observation,sender,sender_type,sender_id,response,response_action,ended_on,duration,time_run,time_render,time_show,time_end,time_commit,timestamp,time_switch,german,swahili,enc,distractor1,distractor2,distractor3,response_2,x,correct,distractors,url_vp,url_sess,meta_labjs_version,meta_location,meta_user_agent,meta_platform,meta_language,meta_locale,meta_time_zone,meta_timezone_offset,meta_screen_width,meta_screen_height,meta_scroll_width,meta_scroll_height,meta_window_inner_width,meta_window_inner_height,meta_device_pixel_ratio,meta_labjs_build_flavor,meta_labjs_build_commit
3c735,Introduction delayed retrieval,canvas.Screen,0,weiter,keypress(Space),response,10222.853000191,956.30000019073,947.278,963.947,11186.800000191,11188.699999809,2023-11-13T18:41:22Z,11188.279,NA,NA,NA,NA,NA,NA,NA,NA,NA,NULL,150,2,20.2.4,https://neurocog.fernuni.ch/studies/vweber/jbaenninger/delayed%202/index.html?vp=150&sess=2,"Mozilla/5.0 (Windows NT 10.0; Win64; x64) AppleWebKit/537.36 (KHTML, like Gecko) Chrome/118.0.0.0 Safari/537.36 Edg/118.0.2088.57",Win32,de,de-DE,Europe/Berlin,-60,1536,864,1488,694,1488,742,1.25,production,f5b4a49f956347addd546a832a3327688c2c0fef
3c735,Deep Question,html.Page,1_0_0_0,NA,NA,form submission,10097.021000191,11188.800000191,11171.942,11188.279,21285.300000191,21285.800000191,2023-11-13T18:41:32Z,21296.085,Prüfung,mtihani,d,mkulima,mtizamo,ufumbuzi,mhubi,NA,NA,NULL,NA,NA,NA,NA,NA,NA,NA,NA,NA,NA,NA,NA,NA,NA,NA,NA,NA,NA,NA
3c735,Save data screen,canvas.Screen,1_0_0_1,NA,NA,timeout,499.593,21287.099999905,21279.466,21296.085,21779.031,21780.599999905,2023-11-13T18:41:33Z,21795.678,Prüfung,mtihani,d,mkulima,mtizamo,ufumbuzi,NA,NA,0,NULL,NA,NA,NA,NA,NA,NA,NA,NA,NA,NA,NA,NA,NA,NA,NA,NA,NA,NA,NA
3c735,deep,flow.Sequence,1_0_0,NA,NA,completion,10590.752,11188.800000191,11171.942,11188.279,21779.031,21781,2023-11-13T18:41:33Z,21795.678,Prüfung,mtihani,d,mkulima,mtizamo,ufumbuzi,NA,NA,NA,NULL,NA,NA,NA,NA,NA,NA,NA,NA,NA,NA,NA,NA,NA,NA,NA,NA,NA,NA,NA
3c735,task,flow.Sequence,1_0,NA,NA,completion,10590.752,11188.800000191,11171.942,11188.279,21779.031,21781.199999809,2023-11-13T18:41:33Z,21795.678,Prüfung,mtihani,d,mkulima,mtizamo,ufumbuzi,NA,NA,NA,NULL,NA,NA,NA,NA,NA,NA,NA,NA,NA,NA,NA,NA,NA,NA,NA,NA,NA,NA,NA
3c735,Deep Question,html.Page,1_1_0_0,NA,NA,form submission,10677.421999905,21781.400000095,21779.031,21795.678,32473.099999905,32473.599999905,2023-11-13T18:41:44Z,32486.308,Kontrolle,kudhibiti,s,mbinguni,kufunga,utegemezi,minubarei,NA,NA,NULL,NA,NA,NA,NA,NA,NA,NA,NA,NA,NA,NA,NA,NA,NA,NA,NA,NA,NA,NA
3c735,Save data screen,canvas.Screen,1_1_0_1,NA,NA,timeout,499.836,32474.800000191,32469.703,32486.308,32969.283,32970.199999809,2023-11-13T18:41:44Z,32986.144,Kontrolle,kudhibiti,s,mbinguni,kufunga,utegemezi,NA,NA,0,NULL,NA,NA,NA,NA,NA,NA,NA,NA,NA,NA,NA,NA,NA,NA,NA,NA,NA,NA,NA
3c735,deep,flow.Sequence,1_1_0,NA,NA,completion,11173.605,21781.300000191,21779.031,21795.678,32969.283,32970.5,2023-11-13T18:41:44Z,32986.144,Kontrolle,kudhibiti,s,mbinguni,kufunga,utegemezi,NA,NA,NA,NULL,NA,NA,NA,NA,NA,NA,NA,NA,NA,NA,NA,NA,NA,NA,NA,NA,NA,NA,NA
3c735,task,flow.Sequence,1_1,NA,NA,completion,11173.605,21781.300000191,21779.031,21795.678,32969.283,32970.699999809,2023-11-13T18:41:44Z,32986.144,Kontrolle,kudhibiti,s,mbinguni,kufunga,utegemezi,NA,NA,NA,NULL,NA,NA,NA,NA,NA,NA,NA,NA,NA,NA,NA,NA,NA,NA,NA,NA,NA,NA,NA
3c735,Deep Question,html.Page,1_2_0_0,NA,NA,form submission,7624.1560001907,32970.800000191,32969.283,32986.144,40610.300000191,40610.400000095004,2023-11-13T18:41:52Z,40612.558,Körper,kiwiliwili,s,mapambano,mpatanishi,kiolezo,kiwilli,NA,NA,NULL,NA,NA,NA,NA,NA,NA,NA,NA,NA,NA,NA,NA,NA,NA,NA,NA,NA,NA,NA
3c735,Save data screen,canvas.Screen,1_2_0_1,NA,NA,timeout,499.523,40610.800000191,40595.881,40612.558,41095.435,41096.699999809,2023-11-13T18:41:52Z,41112.081,Körper,kiwiliwili,s,mapambano,mpatanishi,kiolezo,NA,NA,0,NULL,NA,NA,NA,NA,NA,NA,NA,NA,NA,NA,NA,NA,NA,NA,NA,NA,NA,NA,NA
3c735,deep,flow.Sequence,1_2_0,NA,NA,completion,8109.291,32970.800000191,32969.283,32986.144,41095.435,41096.800000191,2023-11-13T18:41:52Z,41112.081,Körper,kiwiliwili,s,mapambano,mpatanishi,kiolezo,NA,NA,NA,NULL,NA,NA,NA,NA,NA,NA,NA,NA,NA,NA,NA,NA,NA,NA,NA,NA,NA,NA,NA
3c735,task,flow.Sequence,1_2,NA,NA,completion,8109.291,32970.800000191,32969.283,32986.144,41095.435,41096.900000095004,2023-11-13T18:41:52Z,41112.081,Körper,kiwiliwili,s,mapambano,mpatanishi,kiolezo,NA,NA,NA,NULL,NA,NA,NA,NA,NA,NA,NA,NA,NA,NA,NA,NA,NA,NA,NA,NA,NA,NA,NA
3c735,Deep Question,html.Page,1_3_0_0,NA,NA,form submission,14553.419,41097,41095.435,41112.081,55665.5,55665.699999809,2023-11-13T18:42:07Z,55666.009,System,maongozi,d,chokochoko,nuksani,mitaani,myhunai,NA,NA,NULL,NA,NA,NA,NA,NA,NA,NA,NA,NA,NA,NA,NA,NA,NA,NA,NA,NA,NA,NA
3c735,Save data screen,canvas.Screen,1_3_0_1,NA,NA,timeout,499.576,55666.300000191,55649.415,55666.009,56148.938,56149.599999904996,2023-11-13T18:42:07Z,56165.585,System,maongozi,d,chokochoko,nuksani,mitaani,NA,NA,0,NULL,NA,NA,NA,NA,NA,NA,NA,NA,NA,NA,NA,NA,NA,NA,NA,NA,NA,NA,NA
3c735,deep,flow.Sequence,1_3_0,NA,NA,completion,15036.857,41097,41095.435,41112.081,56148.938,56149.800000191,2023-11-13T18:42:07Z,56165.585,System,maongozi,d,chokochoko,nuksani,mitaani,NA,NA,NA,NULL,NA,NA,NA,NA,NA,NA,NA,NA,NA,NA,NA,NA,NA,NA,NA,NA,NA,NA,NA
3c735,task,flow.Sequence,1_3,NA,NA,completion,15036.857,41096.900000095004,41095.435,41112.081,56148.938,56149.900000095004,2023-11-13T18:42:07Z,56165.585,System,maongozi,d,chokochoko,nuksani,mitaani,NA,NA,NA,NULL,NA,NA,NA,NA,NA,NA,NA,NA,NA,NA,NA,NA,NA,NA,NA,NA,NA,NA,NA
3c735,Deep Question,html.Page,1_4_0_0,NA,NA,form submission,28362.014999905,56150,56148.938,56165.585,84527.599999905,84528.300000191,2023-11-13T18:42:36Z,84540.678,Sänger,mwimbaji,d,msichana,shughuli,mshirika,mwambadi,NA,NA,NULL,NA,NA,NA,NA,NA,NA,NA,NA,NA,NA,NA,NA,NA,NA,NA,NA,NA,NA,NA
3c735,Save data screen,canvas.Screen,1_4_0_1,NA,NA,timeout,499.63400000001,84530.599999905,84524.094,84540.678,85023.635,85024.400000095,2023-11-13T18:42:36Z,85040.312,Sänger,mwimbaji,d,msichana,shughuli,mshirika,NA,NA,0,NULL,NA,NA,NA,NA,NA,NA,NA,NA,NA,NA,NA,NA,NA,NA,NA,NA,NA,NA,NA
3c735,deep,flow.Sequence,1_4_0,NA,NA,completion,28858.05,56150,56148.938,56165.585,85023.635,85024.599999905,2023-11-13T18:42:36Z,85040.312,Sänger,mwimbaji,d,msichana,shughuli,mshirika,NA,NA,NA,NULL,NA,NA,NA,NA,NA,NA,NA,NA,NA,NA,NA,NA,NA,NA,NA,NA,NA,NA,NA
3c735,task,flow.Sequence,1_4,NA,NA,completion,28858.05,56149.900000095004,56148.938,56165.585,85023.635,85024.599999905,2023-11-13T18:42:36Z,85040.312,Sänger,mwimbaji,d,msichana,shughuli,mshirika,NA,NA,NA,NULL,NA,NA,NA,NA,NA,NA,NA,NA,NA,NA,NA,NA,NA,NA,NA,NA,NA,NA,NA
3c735,Deep Question,html.Page,1_5_0_0,NA,NA,form submission,10042.088000095,85024.800000191,85023.635,85040.312,95082.400000095,95082.599999905,2023-11-13T18:42:46Z,95098.099,Können,unaweza,d,kiongozi,bustani,mienendo,uinubi,NA,NA,NULL,NA,NA,NA,NA,NA,NA,NA,NA,NA,NA,NA,NA,NA,NA,NA,NA,NA,NA,NA
3c735,Save data screen,canvas.Screen,1_5_0_1,NA,NA,timeout,499.607,95083.800000191,95081.825,95098.099,95581.016,95581.599999905,2023-11-13T18:42:47Z,95597.706,Können,unaweza,d,kiongozi,bustani,mienendo,NA,NA,0,NULL,NA,NA,NA,NA,NA,NA,NA,NA,NA,NA,NA,NA,NA,NA,NA,NA,NA,NA,NA
3c735,deep,flow.Sequence,1_5_0,NA,NA,completion,10540.704,85024.699999809,85023.635,85040.312,95581.016,95581.699999809,2023-11-13T18:42:47Z,95597.706,Können,unaweza,d,kiongozi,bustani,mienendo,NA,NA,NA,NULL,NA,NA,NA,NA,NA,NA,NA,NA,NA,NA,NA,NA,NA,NA,NA,NA,NA,NA,NA
3c735,task,flow.Sequence,1_5,NA,NA,completion,10540.704,85024.699999809,85023.635,85040.312,95581.016,95581.900000095,2023-11-13T18:42:47Z,95597.706,Können,unaweza,d,kiongozi,bustani,mienendo,NA,NA,NA,NULL,NA,NA,NA,NA,NA,NA,NA,NA,NA,NA,NA,NA,NA,NA,NA,NA,NA,NA,NA
3c735,Deep Question,html.Page,1_6_0_0,NA,NA,form submission,6952.5940001907,95582.099999905,95581.016,95597.706,102550.30000019001,102550.4000001,2023-11-13T18:42:54Z,102558.277,Kreativität,ubunifu,d,mratibu,mwendelezo,makubaliano,kiluini,NA,NA,NULL,NA,NA,NA,NA,NA,NA,NA,NA,NA,NA,NA,NA,NA,NA,NA,NA,NA,NA,NA
3c735,Save data screen,canvas.Screen,1_6_0_1,NA,NA,timeout,499.568,102551.69999980999,102541.642,102558.277,103041.177,103041.80000019001,2023-11-13T18:42:54Z,103057.845,Kreativität,ubunifu,d,mratibu,mwendelezo,makubaliano,NA,NA,0,NULL,NA,NA,NA,NA,NA,NA,NA,NA,NA,NA,NA,NA,NA,NA,NA,NA,NA,NA,NA
3c735,deep,flow.Sequence,1_6_0,NA,NA,completion,7443.471,95582,95581.016,95597.706,103041.177,103041.9000001,2023-11-13T18:42:54Z,103057.845,Kreativität,ubunifu,d,mratibu,mwendelezo,makubaliano,NA,NA,NA,NULL,NA,NA,NA,NA,NA,NA,NA,NA,NA,NA,NA,NA,NA,NA,NA,NA,NA,NA,NA
3c735,task,flow.Sequence,1_6,NA,NA,completion,7443.471,95582,95581.016,95597.706,103041.177,103041.9000001,2023-11-13T18:42:54Z,103057.845,Kreativität,ubunifu,d,mratibu,mwendelezo,makubaliano,NA,NA,NA,NULL,NA,NA,NA,NA,NA,NA,NA,NA,NA,NA,NA,NA,NA,NA,NA,NA,NA,NA,NA
3c735,Deep Question,html.Page,1_7_0_0,NA,NA,form submission,11898.555000095,103042,103041.177,103057.845,114956.4000001,114956.5999999,2023-11-13T18:43:06Z,114964.06,Aufstand,ugomaji,d,mazidio,msingi,kujieleza,uhiniti,NA,NA,NULL,NA,NA,NA,NA,NA,NA,NA,NA,NA,NA,NA,NA,NA,NA,NA,NA,NA,NA,NA
3c735,Save data screen,canvas.Screen,1_7_0_1,NA,NA,timeout,499.592,114958,114947.44,114964.06,115446.969,115447.5,2023-11-13T18:43:07Z,115463.652,Aufstand,ugomaji,d,mazidio,msingi,kujieleza,NA,NA,0,NULL,NA,NA,NA,NA,NA,NA,NA,NA,NA,NA,NA,NA,NA,NA,NA,NA,NA,NA,NA
3c735,deep,flow.Sequence,1_7_0,NA,NA,completion,12389.124,103042,103041.177,103057.845,115446.969,115447.69999981,2023-11-13T18:43:07Z,115463.652,Aufstand,ugomaji,d,mazidio,msingi,kujieleza,NA,NA,NA,NULL,NA,NA,NA,NA,NA,NA,NA,NA,NA,NA,NA,NA,NA,NA,NA,NA,NA,NA,NA
3c735,task,flow.Sequence,1_7,NA,NA,completion,12389.124,103042,103041.177,103057.845,115446.969,115447.69999981,2023-11-13T18:43:07Z,115463.652,Aufstand,ugomaji,d,mazidio,msingi,kujieleza,NA,NA,NA,NULL,NA,NA,NA,NA,NA,NA,NA,NA,NA,NA,NA,NA,NA,NA,NA,NA,NA,NA,NA
3c735,Deep Question,html.Page,1_8_0_0,NA,NA,form submission,10617.348,115447.69999981,115446.969,115463.652,126081,126081.19999981,2023-11-13T18:43:17Z,126087.674,Kanzler,diwani,s,rasilmali,mahitaji,maabudu,damwi,NA,NA,NULL,NA,NA,NA,NA,NA,NA,NA,NA,NA,NA,NA,NA,NA,NA,NA,NA,NA,NA,NA
3c735,Save data screen,canvas.Screen,1_8_0_1,NA,NA,timeout,499.49800000001,126082.4000001,126071.012,126087.674,126570.576,126571.30000019001,2023-11-13T18:43:18Z,126587.172,Kanzler,diwani,s,rasilmali,mahitaji,maabudu,NA,NA,0,NULL,NA,NA,NA,NA,NA,NA,NA,NA,NA,NA,NA,NA,NA,NA,NA,NA,NA,NA,NA
3c735,deep,flow.Sequence,1_8_0,NA,NA,completion,11106.924,115447.69999981,115446.969,115463.652,126570.576,126571.5,2023-11-13T18:43:18Z,126587.172,Kanzler,diwani,s,rasilmali,mahitaji,maabudu,NA,NA,NA,NULL,NA,NA,NA,NA,NA,NA,NA,NA,NA,NA,NA,NA,NA,NA,NA,NA,NA,NA,NA
3c735,task,flow.Sequence,1_8,NA,NA,completion,11106.924,115447.69999981,115446.969,115463.652,126570.576,126571.5999999,2023-11-13T18:43:18Z,126587.172,Kanzler,diwani,s,rasilmali,mahitaji,maabudu,NA,NA,NA,NULL,NA,NA,NA,NA,NA,NA,NA,NA,NA,NA,NA,NA,NA,NA,NA,NA,NA,NA,NA
3c735,Deep Question,html.Page,1_9_0_0,NA,NA,form submission,35272.128000191,126571.69999981,126570.576,126587.172,161859.30000019,161859.5999999,2023-11-13T18:43:53Z,161872.974,Angreifer,mshambulizi,d,kitengo,tasinia,usafirishaji,mwimbaji,NA,NA,NULL,NA,NA,NA,NA,NA,NA,NA,NA,NA,NA,NA,NA,NA,NA,NA,NA,NA,NA,NA
3c735,Save data screen,canvas.Screen,1_9_0_1,NA,NA,timeout,499.58300000001,161861.4000001,161856.377,161872.974,162355.9,162356.5999999,2023-11-13T18:43:54Z,162372.557,Angreifer,mshambulizi,d,kitengo,tasinia,usafirishaji,NA,NA,0,NULL,NA,NA,NA,NA,NA,NA,NA,NA,NA,NA,NA,NA,NA,NA,NA,NA,NA,NA,NA
3c735,deep,flow.Sequence,1_9_0,NA,NA,completion,35768.728,126571.69999981,126570.576,126587.172,162355.9,162356.80000019,2023-11-13T18:43:54Z,162372.557,Angreifer,mshambulizi,d,kitengo,tasinia,usafirishaji,NA,NA,NA,NULL,NA,NA,NA,NA,NA,NA,NA,NA,NA,NA,NA,NA,NA,NA,NA,NA,NA,NA,NA
3c735,task,flow.Sequence,1_9,NA,NA,completion,35768.728,126571.69999981,126570.576,126587.172,162355.9,162356.80000019,2023-11-13T18:43:54Z,162372.557,Angreifer,mshambulizi,d,kitengo,tasinia,usafirishaji,NA,NA,NA,NULL,NA,NA,NA,NA,NA,NA,NA,NA,NA,NA,NA,NA,NA,NA,NA,NA,NA,NA,NA
3c735,Deep Question,html.Page,1_10_0_0,NA,NA,form submission,13380.343000095,162356.9000001,162355.9,162372.557,175752.9000001,175753.0999999,2023-11-13T18:44:07Z,175760.782,Verzögerung,kuchelewa,s,mwakilishi,mwanauchumi,jaribio,utukazji,NA,NA,NULL,NA,NA,NA,NA,NA,NA,NA,NA,NA,NA,NA,NA,NA,NA,NA,NA,NA,NA,NA
3c735,Save data screen,canvas.Screen,1_10_0_1,NA,NA,timeout,499.595,175754.5999999,175744.209,175760.782,176243.744,176244.5,2023-11-13T18:44:07Z,176260.377,Verzögerung,kuchelewa,s,mwakilishi,mwanauchumi,jaribio,NA,NA,0,NULL,NA,NA,NA,NA,NA,NA,NA,NA,NA,NA,NA,NA,NA,NA,NA,NA,NA,NA,NA
3c735,deep,flow.Sequence,1_10_0,NA,NA,completion,13871.187,162356.9000001,162355.9,162372.557,176243.744,176244.5999999,2023-11-13T18:44:07Z,176260.377,Verzögerung,kuchelewa,s,mwakilishi,mwanauchumi,jaribio,NA,NA,NA,NULL,NA,NA,NA,NA,NA,NA,NA,NA,NA,NA,NA,NA,NA,NA,NA,NA,NA,NA,NA
3c735,task,flow.Sequence,1_10,NA,NA,completion,13871.187,162356.80000019,162355.9,162372.557,176243.744,176244.80000019,2023-11-13T18:44:07Z,176260.377,Verzögerung,kuchelewa,s,mwakilishi,mwanauchumi,jaribio,NA,NA,NA,NULL,NA,NA,NA,NA,NA,NA,NA,NA,NA,NA,NA,NA,NA,NA,NA,NA,NA,NA,NA
3c735,Deep Question,html.Page,1_11_0_0,NA,NA,form submission,12417.322999809,176244.9000001,176243.744,176260.377,188677.69999981,188678,2023-11-13T18:44:20Z,188682.82,Kultur,utamaduni,s,shetani,gerezani,mazingira,uhitani,NA,NA,NULL,NA,NA,NA,NA,NA,NA,NA,NA,NA,NA,NA,NA,NA,NA,NA,NA,NA,NA,NA
3c735,Save data screen,canvas.Screen,1_11_0_1,NA,NA,timeout,499.56599999999,188679.30000019,188666.34,188682.82,189165.751,189166.4000001,2023-11-13T18:44:20Z,189182.386,Kultur,utamaduni,s,shetani,gerezani,mazingira,NA,NA,0,NULL,NA,NA,NA,NA,NA,NA,NA,NA,NA,NA,NA,NA,NA,NA,NA,NA,NA,NA,NA
3c735,deep,flow.Sequence,1_11_0,NA,NA,completion,12905.374,176244.9000001,176243.744,176260.377,189165.751,189166.5999999,2023-11-13T18:44:20Z,189182.386,Kultur,utamaduni,s,shetani,gerezani,mazingira,NA,NA,NA,NULL,NA,NA,NA,NA,NA,NA,NA,NA,NA,NA,NA,NA,NA,NA,NA,NA,NA,NA,NA
3c735,task,flow.Sequence,1_11,NA,NA,completion,12905.374,176244.9000001,176243.744,176260.377,189165.751,189166.69999981,2023-11-13T18:44:20Z,189182.386,Kultur,utamaduni,s,shetani,gerezani,mazingira,NA,NA,NA,NULL,NA,NA,NA,NA,NA,NA,NA,NA,NA,NA,NA,NA,NA,NA,NA,NA,NA,NA,NA
3c735,Deep Question,html.Page,1_12_0_0,NA,NA,form submission,21108.614,189166.69999981,189165.751,189182.386,210291,210291.30000019,2023-11-13T18:44:41Z,210297.2,Lawine,banguko,d,maambukizi,usuluhishi,chekechea,benkougo,NA,NA,NULL,NA,NA,NA,NA,NA,NA,NA,NA,NA,NA,NA,NA,NA,NA,NA,NA,NA,NA,NA
3c735,Save data screen,canvas.Screen,1_12_0_1,NA,NA,timeout,499.56,210292.5999999,210283.984,210297.2,210780.153,210780.69999981,2023-11-13T18:44:42Z,210796.76,Lawine,banguko,d,maambukizi,usuluhishi,chekechea,NA,NA,0,NULL,NA,NA,NA,NA,NA,NA,NA,NA,NA,NA,NA,NA,NA,NA,NA,NA,NA,NA,NA
3c735,deep,flow.Sequence,1_12_0,NA,NA,completion,21597.767,189166.69999981,189165.751,189182.386,210780.153,210780.9000001,2023-11-13T18:44:42Z,210796.76,Lawine,banguko,d,maambukizi,usuluhishi,chekechea,NA,NA,NA,NULL,NA,NA,NA,NA,NA,NA,NA,NA,NA,NA,NA,NA,NA,NA,NA,NA,NA,NA,NA
3c735,task,flow.Sequence,1_12,NA,NA,completion,21597.767,189166.69999981,189165.751,189182.386,210780.153,210781,2023-11-13T18:44:42Z,210796.76,Lawine,banguko,d,maambukizi,usuluhishi,chekechea,NA,NA,NA,NULL,NA,NA,NA,NA,NA,NA,NA,NA,NA,NA,NA,NA,NA,NA,NA,NA,NA,NA,NA
3c735,Deep Question,html.Page,1_13_0_0,NA,NA,form submission,8596.6400000954,210781.30000019,210780.153,210796.76,219393.4000001,219393.5999999,2023-11-13T18:44:51Z,219405.91,Übersicht,kilindo,s,mgusano,chipukizi,kulinganisha,mnuisti,NA,NA,NULL,NA,NA,NA,NA,NA,NA,NA,NA,NA,NA,NA,NA,NA,NA,NA,NA,NA,NA,NA
3c735,Save data screen,canvas.Screen,1_13_0_1,NA,NA,timeout,499.557,219394.9000001,219389.269,219405.91,219888.82,219889.4000001,2023-11-13T18:44:51Z,219905.467,Übersicht,kilindo,s,mgusano,chipukizi,kulinganisha,NA,NA,0,NULL,NA,NA,NA,NA,NA,NA,NA,NA,NA,NA,NA,NA,NA,NA,NA,NA,NA,NA,NA
3c735,deep,flow.Sequence,1_13_0,NA,NA,completion,9092.06,210781.19999981,210780.153,210796.76,219888.82,219889.5,2023-11-13T18:44:51Z,219905.467,Übersicht,kilindo,s,mgusano,chipukizi,kulinganisha,NA,NA,NA,NULL,NA,NA,NA,NA,NA,NA,NA,NA,NA,NA,NA,NA,NA,NA,NA,NA,NA,NA,NA
3c735,task,flow.Sequence,1_13,NA,NA,completion,9092.06,210781.0999999,210780.153,210796.76,219888.82,219889.5,2023-11-13T18:44:51Z,219905.467,Übersicht,kilindo,s,mgusano,chipukizi,kulinganisha,NA,NA,NA,NULL,NA,NA,NA,NA,NA,NA,NA,NA,NA,NA,NA,NA,NA,NA,NA,NA,NA,NA,NA
3c735,Deep Question,html.Page,1_14_0_0,NA,NA,form submission,5834.3330001907,219889.5,219888.82,219905.467,225739.80000019,225740,2023-11-13T18:44:57Z,225750.359,Abrechnung,uhasibu,s,kusahihisha,mpambano,mashambulizi,hamilani,NA,NA,NULL,NA,NA,NA,NA,NA,NA,NA,NA,NA,NA,NA,NA,NA,NA,NA,NA,NA,NA,NA
3c735,Save data screen,canvas.Screen,1_14_0_1,NA,NA,timeout,499.56,225741.19999981,225726.211,225750.359,226233.298,226234,2023-11-13T18:44:57Z,226249.919,Abrechnung,uhasibu,s,kusahihisha,mpambano,mashambulizi,NA,NA,0,NULL,NA,NA,NA,NA,NA,NA,NA,NA,NA,NA,NA,NA,NA,NA,NA,NA,NA,NA,NA
3c735,deep,flow.Sequence,1_14_0,NA,NA,completion,6327.831,219889.5,219888.82,219905.467,226233.298,226234.19999981,2023-11-13T18:44:57Z,226249.919,Abrechnung,uhasibu,s,kusahihisha,mpambano,mashambulizi,NA,NA,NA,NULL,NA,NA,NA,NA,NA,NA,NA,NA,NA,NA,NA,NA,NA,NA,NA,NA,NA,NA,NA
3c735,task,flow.Sequence,1_14,NA,NA,completion,6327.831,219889.5,219888.82,219905.467,226233.298,226234.19999981,2023-11-13T18:44:57Z,226249.919,Abrechnung,uhasibu,s,kusahihisha,mpambano,mashambulizi,NA,NA,NA,NULL,NA,NA,NA,NA,NA,NA,NA,NA,NA,NA,NA,NA,NA,NA,NA,NA,NA,NA,NA
3c735,Deep Question,html.Page,1_15_0_0,NA,NA,form submission,5709.3810001907,226234.30000019,226233.298,226249.919,231959.30000019,231959.5999999,2023-11-13T18:45:03Z,231961.607,Gefährdung,kuhatarisha,s,uchokozi,udhaifu,makorowezo,sinwami,NA,NA,NULL,NA,NA,NA,NA,NA,NA,NA,NA,NA,NA,NA,NA,NA,NA,NA,NA,NA,NA,NA
3c735,Save data screen,canvas.Screen,1_15_0_1,NA,NA,timeout,499.54800000001,231960.5999999,231944.945,231961.607,232444.498,232444.9000001,2023-11-13T18:45:04Z,232461.155,Gefährdung,kuhatarisha,s,uchokozi,udhaifu,makorowezo,NA,NA,0,NULL,NA,NA,NA,NA,NA,NA,NA,NA,NA,NA,NA,NA,NA,NA,NA,NA,NA,NA,NA
3c735,deep,flow.Sequence,1_15_0,NA,NA,completion,6194.579,226234.19999981,226233.298,226249.919,232444.498,232445.0999999,2023-11-13T18:45:04Z,232461.155,Gefährdung,kuhatarisha,s,uchokozi,udhaifu,makorowezo,NA,NA,NA,NULL,NA,NA,NA,NA,NA,NA,NA,NA,NA,NA,NA,NA,NA,NA,NA,NA,NA,NA,NA
3c735,task,flow.Sequence,1_15,NA,NA,completion,6194.579,226234.19999981,226233.298,226249.919,232444.498,232445.30000019,2023-11-13T18:45:04Z,232461.155,Gefährdung,kuhatarisha,s,uchokozi,udhaifu,makorowezo,NA,NA,NA,NULL,NA,NA,NA,NA,NA,NA,NA,NA,NA,NA,NA,NA,NA,NA,NA,NA,NA,NA,NA
3c735,retrieval block 1 (cued recall),flow.Loop,1,NA,NA,completion,221256.219,11188.800000191,11171.942,11188.279,232444.498,232445.4000001,2023-11-13T18:45:04Z,232461.155,NA,NA,NA,NA,NA,NA,NA,NA,NA,NULL,NA,NA,NA,NA,NA,NA,NA,NA,NA,NA,NA,NA,NA,NA,NA,NA,NA,NA,NA
3c735,Shallow Question,html.Page,2_0_0_0,NA,NA,form submission,18891.645000191,232445.5,232444.498,232461.155,251352.80000019,251353.0999999,2023-11-13T18:45:23Z,251361.243,Kontrolle,kudhibiti,s,mbinguni,kufunga,utegemezi,kufunga,NA,NA,"c(""distractor1"", ""distractor2"", ""distractor3"")",NA,NA,NA,NA,NA,NA,NA,NA,NA,NA,NA,NA,NA,NA,NA,NA,NA,NA,NA
3c735,Save data screen,canvas.Screen,2_0_0_1,NA,NA,timeout,499.58600000001,251354.4000001,251343.731,251361.243,251844.188,251844.80000019,2023-11-13T18:45:23Z,251860.829,Kontrolle,kudhibiti,s,mbinguni,kufunga,utegemezi,NA,NA,0,"c(""distractor1"", ""distractor2"", ""distractor3"")",NA,NA,NA,NA,NA,NA,NA,NA,NA,NA,NA,NA,NA,NA,NA,NA,NA,NA,NA
3c735,shallow,flow.Sequence,2_0_0,NA,NA,completion,19383.033,232445.5,232444.498,232461.155,251844.188,251845,2023-11-13T18:45:23Z,251860.829,Kontrolle,kudhibiti,s,mbinguni,kufunga,utegemezi,NA,NA,NA,"c(""distractor1"", ""distractor2"", ""distractor3"")",NA,NA,NA,NA,NA,NA,NA,NA,NA,NA,NA,NA,NA,NA,NA,NA,NA,NA,NA
3c735,task,flow.Sequence,2_0,NA,NA,completion,19383.033,232445.5,232444.498,232461.155,251844.188,251845.0999999,2023-11-13T18:45:23Z,251860.829,Kontrolle,kudhibiti,s,mbinguni,kufunga,utegemezi,NA,NA,NA,"c(""distractor1"", ""distractor2"", ""distractor3"")",NA,NA,NA,NA,NA,NA,NA,NA,NA,NA,NA,NA,NA,NA,NA,NA,NA,NA,NA
3c735,Shallow Question,html.Page,2_1_0_0,NA,NA,form submission,9970.9710001907,251845.19999981,251844.188,251860.829,261831.80000019,261832,2023-11-13T18:45:33Z,261835.452,Kreativität,ubunifu,d,mratibu,mwendelezo,makubaliano,mwendelezo,NA,NA,"c(""distractor1"", ""distractor2"", ""distractor3"")",NA,NA,NA,NA,NA,NA,NA,NA,NA,NA,NA,NA,NA,NA,NA,NA,NA,NA,NA
3c735,Save data screen,canvas.Screen,2_1_0_1,NA,NA,timeout,499.57400000002,261833.19999981,261820.89,261835.452,262318.376,262319,2023-11-13T18:45:34Z,262335.026,Kreativität,ubunifu,d,mratibu,mwendelezo,makubaliano,NA,NA,0,"c(""distractor1"", ""distractor2"", ""distractor3"")",NA,NA,NA,NA,NA,NA,NA,NA,NA,NA,NA,NA,NA,NA,NA,NA,NA,NA,NA
3c735,shallow,flow.Sequence,2_1_0,NA,NA,completion,10457.547,251845.19999981,251844.188,251860.829,262318.376,262319.19999981,2023-11-13T18:45:34Z,262335.026,Kreativität,ubunifu,d,mratibu,mwendelezo,makubaliano,NA,NA,NA,"c(""distractor1"", ""distractor2"", ""distractor3"")",NA,NA,NA,NA,NA,NA,NA,NA,NA,NA,NA,NA,NA,NA,NA,NA,NA,NA,NA
3c735,task,flow.Sequence,2_1,NA,NA,completion,10457.547,251845.19999981,251844.188,251860.829,262318.376,262319.30000019,2023-11-13T18:45:34Z,262335.026,Kreativität,ubunifu,d,mratibu,mwendelezo,makubaliano,NA,NA,NA,"c(""distractor1"", ""distractor2"", ""distractor3"")",NA,NA,NA,NA,NA,NA,NA,NA,NA,NA,NA,NA,NA,NA,NA,NA,NA,NA,NA
3c735,Shallow Question,html.Page,2_2_0_0,NA,NA,form submission,6930.474,262319.4000001,262318.376,262335.026,269265.5,269265.80000019,2023-11-13T18:45:40Z,269278.934,Können,unaweza,d,kiongozi,bustani,mienendo,unaweza,NA,NA,"c(""distractor1"", ""distractor2"", ""distractor3"")",NA,NA,NA,NA,NA,NA,NA,NA,NA,NA,NA,NA,NA,NA,NA,NA,NA,NA,NA
3c735,Save data screen,canvas.Screen,2_2_0_1,NA,NA,timeout,499.57899999997,269267.0999999,269262.013,269278.934,269761.829,269762.4000001,2023-11-13T18:45:41Z,269778.513,Können,unaweza,d,kiongozi,bustani,mienendo,NA,NA,1,"c(""distractor1"", ""distractor2"", ""distractor3"")",NA,NA,NA,NA,NA,NA,NA,NA,NA,NA,NA,NA,NA,NA,NA,NA,NA,NA,NA
3c735,shallow,flow.Sequence,2_2_0,NA,NA,completion,7426.803,262319.4000001,262318.376,262335.026,269761.829,269762.4000001,2023-11-13T18:45:41Z,269778.513,Können,unaweza,d,kiongozi,bustani,mienendo,NA,NA,NA,"c(""distractor1"", ""distractor2"", ""distractor3"")",NA,NA,NA,NA,NA,NA,NA,NA,NA,NA,NA,NA,NA,NA,NA,NA,NA,NA,NA
3c735,task,flow.Sequence,2_2,NA,NA,completion,7426.803,262319.30000019,262318.376,262335.026,269761.829,269762.5,2023-11-13T18:45:41Z,269778.513,Können,unaweza,d,kiongozi,bustani,mienendo,NA,NA,NA,"c(""distractor1"", ""distractor2"", ""distractor3"")",NA,NA,NA,NA,NA,NA,NA,NA,NA,NA,NA,NA,NA,NA,NA,NA,NA,NA,NA
3c735,Shallow Question,html.Page,2_3_0_0,NA,NA,form submission,10948.586999905,269762.5,269761.829,269778.513,280727.0999999,280727.30000019,2023-11-13T18:45:52Z,280735.512,Abrechnung,uhasibu,s,kusahihisha,mpambano,mashambulizi,mashambulizi,NA,NA,"c(""distractor1"", ""distractor2"", ""distractor3"")",NA,NA,NA,NA,NA,NA,NA,NA,NA,NA,NA,NA,NA,NA,NA,NA,NA,NA,NA
3c735,Save data screen,canvas.Screen,2_3_0_1,NA,NA,timeout,499.587,280728.4000001,280724.532,280735.512,281218.473,281219.0999999,2023-11-13T18:45:52Z,281235.099,Abrechnung,uhasibu,s,kusahihisha,mpambano,mashambulizi,NA,NA,0,"c(""distractor1"", ""distractor2"", ""distractor3"")",NA,NA,NA,NA,NA,NA,NA,NA,NA,NA,NA,NA,NA,NA,NA,NA,NA,NA,NA
3c735,shallow,flow.Sequence,2_3_0,NA,NA,completion,11439.96,269762.5,269761.829,269778.513,281218.473,281219.30000019,2023-11-13T18:45:52Z,281235.099,Abrechnung,uhasibu,s,kusahihisha,mpambano,mashambulizi,NA,NA,NA,"c(""distractor1"", ""distractor2"", ""distractor3"")",NA,NA,NA,NA,NA,NA,NA,NA,NA,NA,NA,NA,NA,NA,NA,NA,NA,NA,NA
3c735,task,flow.Sequence,2_3,NA,NA,completion,11439.96,269762.5,269761.829,269778.513,281218.473,281219.4000001,2023-11-13T18:45:52Z,281235.099,Abrechnung,uhasibu,s,kusahihisha,mpambano,mashambulizi,NA,NA,NA,"c(""distractor1"", ""distractor2"", ""distractor3"")",NA,NA,NA,NA,NA,NA,NA,NA,NA,NA,NA,NA,NA,NA,NA,NA,NA,NA,NA
3c735,Shallow Question,html.Page,2_4_0_0,NA,NA,form submission,3422.0009999046,281219.5,281218.473,281235.099,284657.0999999,284657.30000019,2023-11-13T18:45:56Z,284665.454,Prüfung,mtihani,d,mkulima,mtizamo,ufumbuzi,mtihani,NA,NA,"c(""distractor1"", ""distractor2"", ""distractor3"")",NA,NA,NA,NA,NA,NA,NA,NA,NA,NA,NA,NA,NA,NA,NA,NA,NA,NA,NA
3c735,Save data screen,canvas.Screen,2_4_0_1,NA,NA,timeout,499.55899999995,284657.69999981,284649.297,284665.454,285148.357,285148.9000001,2023-11-13T18:45:56Z,285165.013,Prüfung,mtihani,d,mkulima,mtizamo,ufumbuzi,NA,NA,1,"c(""distractor1"", ""distractor2"", ""distractor3"")",NA,NA,NA,NA,NA,NA,NA,NA,NA,NA,NA,NA,NA,NA,NA,NA,NA,NA,NA
3c735,shallow,flow.Sequence,2_4_0,NA,NA,completion,3913.258,281219.4000001,281218.473,281235.099,285148.357,285149.0999999,2023-11-13T18:45:56Z,285165.013,Prüfung,mtihani,d,mkulima,mtizamo,ufumbuzi,NA,NA,NA,"c(""distractor1"", ""distractor2"", ""distractor3"")",NA,NA,NA,NA,NA,NA,NA,NA,NA,NA,NA,NA,NA,NA,NA,NA,NA,NA,NA
3c735,task,flow.Sequence,2_4,NA,NA,completion,3913.258,281219.4000001,281218.473,281235.099,285148.357,285149.19999981,2023-11-13T18:45:56Z,285165.013,Prüfung,mtihani,d,mkulima,mtizamo,ufumbuzi,NA,NA,NA,"c(""distractor1"", ""distractor2"", ""distractor3"")",NA,NA,NA,NA,NA,NA,NA,NA,NA,NA,NA,NA,NA,NA,NA,NA,NA,NA,NA
3c735,Shallow Question,html.Page,2_5_0_0,NA,NA,form submission,4031.487,285149.30000019,285148.357,285165.013,289196.5,289196.69999981,2023-11-13T18:46:00Z,289211.468,Verzögerung,kuchelewa,s,mwakilishi,mwanauchumi,jaribio,kuchelewa,NA,NA,"c(""distractor1"", ""distractor2"", ""distractor3"")",NA,NA,NA,NA,NA,NA,NA,NA,NA,NA,NA,NA,NA,NA,NA,NA,NA,NA,NA
3c735,Save data screen,canvas.Screen,2_5_0_1,NA,NA,timeout,499.58400000003,289197.69999981,289179.023,289211.468,289694.397,289695.30000019,2023-11-13T18:46:01Z,289711.052,Verzögerung,kuchelewa,s,mwakilishi,mwanauchumi,jaribio,NA,NA,1,"c(""distractor1"", ""distractor2"", ""distractor3"")",NA,NA,NA,NA,NA,NA,NA,NA,NA,NA,NA,NA,NA,NA,NA,NA,NA,NA,NA
3c735,shallow,flow.Sequence,2_5_0,NA,NA,completion,4529.384,285149.30000019,285148.357,285165.013,289694.397,289695.5,2023-11-13T18:46:01Z,289711.052,Verzögerung,kuchelewa,s,mwakilishi,mwanauchumi,jaribio,NA,NA,NA,"c(""distractor1"", ""distractor2"", ""distractor3"")",NA,NA,NA,NA,NA,NA,NA,NA,NA,NA,NA,NA,NA,NA,NA,NA,NA,NA,NA
3c735,task,flow.Sequence,2_5,NA,NA,completion,4529.384,285149.30000019,285148.357,285165.013,289694.397,289695.5,2023-11-13T18:46:01Z,289711.052,Verzögerung,kuchelewa,s,mwakilishi,mwanauchumi,jaribio,NA,NA,NA,"c(""distractor1"", ""distractor2"", ""distractor3"")",NA,NA,NA,NA,NA,NA,NA,NA,NA,NA,NA,NA,NA,NA,NA,NA,NA,NA,NA
3c735,Shallow Question,html.Page,2_6_0_0,NA,NA,form submission,8453.0479999046,289695.5999999,289694.397,289711.052,298164.0999999,298164.30000019,2023-11-13T18:46:09Z,298170.25,Gefährdung,kuhatarisha,s,uchokozi,udhaifu,makorowezo,kuhatarisha,NA,NA,"c(""distractor1"", ""distractor2"", ""distractor3"")",NA,NA,NA,NA,NA,NA,NA,NA,NA,NA,NA,NA,NA,NA,NA,NA,NA,NA,NA
3c735,Save data screen,canvas.Screen,2_6_0_1,NA,NA,timeout,499.59999999998,298165.5999999,298154.333,298170.25,298653.24,298654,2023-11-13T18:46:10Z,298669.85,Gefährdung,kuhatarisha,s,uchokozi,udhaifu,makorowezo,NA,NA,1,"c(""distractor1"", ""distractor2"", ""distractor3"")",NA,NA,NA,NA,NA,NA,NA,NA,NA,NA,NA,NA,NA,NA,NA,NA,NA,NA,NA
3c735,shallow,flow.Sequence,2_6_0,NA,NA,completion,8942.188,289695.5999999,289694.397,289711.052,298653.24,298654.0999999,2023-11-13T18:46:10Z,298669.85,Gefährdung,kuhatarisha,s,uchokozi,udhaifu,makorowezo,NA,NA,NA,"c(""distractor1"", ""distractor2"", ""distractor3"")",NA,NA,NA,NA,NA,NA,NA,NA,NA,NA,NA,NA,NA,NA,NA,NA,NA,NA,NA
3c735,task,flow.Sequence,2_6,NA,NA,completion,8942.188,289695.5999999,289694.397,289711.052,298653.24,298654.19999981,2023-11-13T18:46:10Z,298669.85,Gefährdung,kuhatarisha,s,uchokozi,udhaifu,makorowezo,NA,NA,NA,"c(""distractor1"", ""distractor2"", ""distractor3"")",NA,NA,NA,NA,NA,NA,NA,NA,NA,NA,NA,NA,NA,NA,NA,NA,NA,NA,NA
3c735,Shallow Question,html.Page,2_7_0_0,NA,NA,form submission,3932.15,298654.30000019,298653.24,298669.85,302602,302602.4000001,2023-11-13T18:46:14Z,302616.383,Sänger,mwimbaji,d,msichana,shughuli,mshirika,mwimbaji,NA,NA,"c(""distractor1"", ""distractor2"", ""distractor3"")",NA,NA,NA,NA,NA,NA,NA,NA,NA,NA,NA,NA,NA,NA,NA,NA,NA,NA,NA
3c735,Save data screen,canvas.Screen,2_7_0_1,NA,NA,timeout,499.59600000002,302604,302593.929,302616.383,303099.317,303099.9000001,2023-11-13T18:46:14Z,303115.979,Sänger,mwimbaji,d,msichana,shughuli,mshirika,NA,NA,1,"c(""distractor1"", ""distractor2"", ""distractor3"")",NA,NA,NA,NA,NA,NA,NA,NA,NA,NA,NA,NA,NA,NA,NA,NA,NA,NA,NA
3c735,shallow,flow.Sequence,2_7_0,NA,NA,completion,4429.467,298654.30000019,298653.24,298669.85,303099.317,303100.0999999,2023-11-13T18:46:14Z,303115.979,Sänger,mwimbaji,d,msichana,shughuli,mshirika,NA,NA,NA,"c(""distractor1"", ""distractor2"", ""distractor3"")",NA,NA,NA,NA,NA,NA,NA,NA,NA,NA,NA,NA,NA,NA,NA,NA,NA,NA,NA
3c735,task,flow.Sequence,2_7,NA,NA,completion,4429.467,298654.30000019,298653.24,298669.85,303099.317,303100.19999981,2023-11-13T18:46:14Z,303115.979,Sänger,mwimbaji,d,msichana,shughuli,mshirika,NA,NA,NA,"c(""distractor1"", ""distractor2"", ""distractor3"")",NA,NA,NA,NA,NA,NA,NA,NA,NA,NA,NA,NA,NA,NA,NA,NA,NA,NA,NA
3c735,Shallow Question,html.Page,2_8_0_0,NA,NA,form submission,2707.4210000954,303100.19999981,303099.317,303115.979,305823.4000001,305823.5999999,2023-11-13T18:46:17Z,305830.227,Kanzler,diwani,s,rasilmali,mahitaji,maabudu,diwani,NA,NA,"c(""distractor1"", ""distractor2"", ""distractor3"")",NA,NA,NA,NA,NA,NA,NA,NA,NA,NA,NA,NA,NA,NA,NA,NA,NA,NA,NA
3c735,Save data screen,canvas.Screen,2_8_0_1,NA,NA,timeout,499.59700000001,305823.9000001,305811.909,305830.227,306313.146,306313.80000019,2023-11-13T18:46:18Z,306329.824,Kanzler,diwani,s,rasilmali,mahitaji,maabudu,NA,NA,1,"c(""distractor1"", ""distractor2"", ""distractor3"")",NA,NA,NA,NA,NA,NA,NA,NA,NA,NA,NA,NA,NA,NA,NA,NA,NA,NA,NA
3c735,shallow,flow.Sequence,2_8_0,NA,NA,completion,3197.167,303100.19999981,303099.317,303115.979,306313.146,306313.9000001,2023-11-13T18:46:18Z,306329.824,Kanzler,diwani,s,rasilmali,mahitaji,maabudu,NA,NA,NA,"c(""distractor1"", ""distractor2"", ""distractor3"")",NA,NA,NA,NA,NA,NA,NA,NA,NA,NA,NA,NA,NA,NA,NA,NA,NA,NA,NA
3c735,task,flow.Sequence,2_8,NA,NA,completion,3197.167,303100.19999981,303099.317,303115.979,306313.146,306313.9000001,2023-11-13T18:46:18Z,306329.824,Kanzler,diwani,s,rasilmali,mahitaji,maabudu,NA,NA,NA,"c(""distractor1"", ""distractor2"", ""distractor3"")",NA,NA,NA,NA,NA,NA,NA,NA,NA,NA,NA,NA,NA,NA,NA,NA,NA,NA,NA
3c735,Shallow Question,html.Page,2_9_0_0,NA,NA,form submission,7575.3759998092,306313.9000001,306313.146,306329.824,313905.19999981,313905.30000019,2023-11-13T18:46:25Z,313906.508,Aufstand,ugomaji,d,mazidio,msingi,kujieleza,ugomaji,NA,NA,"c(""distractor1"", ""distractor2"", ""distractor3"")",NA,NA,NA,NA,NA,NA,NA,NA,NA,NA,NA,NA,NA,NA,NA,NA,NA,NA,NA
3c735,Save data screen,canvas.Screen,2_9_0_1,NA,NA,timeout,499.61900000001,313906.5,313897.172,313906.508,314389.423,314390.0999999,2023-11-13T18:46:26Z,314406.127,Aufstand,ugomaji,d,mazidio,msingi,kujieleza,NA,NA,1,"c(""distractor1"", ""distractor2"", ""distractor3"")",NA,NA,NA,NA,NA,NA,NA,NA,NA,NA,NA,NA,NA,NA,NA,NA,NA,NA,NA
3c735,shallow,flow.Sequence,2_9_0,NA,NA,completion,8059.599,306313.9000001,306313.146,306329.824,314389.423,314390.0999999,2023-11-13T18:46:26Z,314406.127,Aufstand,ugomaji,d,mazidio,msingi,kujieleza,NA,NA,NA,"c(""distractor1"", ""distractor2"", ""distractor3"")",NA,NA,NA,NA,NA,NA,NA,NA,NA,NA,NA,NA,NA,NA,NA,NA,NA,NA,NA
3c735,task,flow.Sequence,2_9,NA,NA,completion,8059.599,306313.9000001,306313.146,306329.824,314389.423,314390.19999981,2023-11-13T18:46:26Z,314406.127,Aufstand,ugomaji,d,mazidio,msingi,kujieleza,NA,NA,NA,"c(""distractor1"", ""distractor2"", ""distractor3"")",NA,NA,NA,NA,NA,NA,NA,NA,NA,NA,NA,NA,NA,NA,NA,NA,NA,NA,NA
3c735,Shallow Question,html.Page,2_10_0_0,NA,NA,form submission,4285.9729999047,314390.30000019,314389.423,314406.127,318692.0999999,318692.30000019,2023-11-13T18:46:30Z,318702.278,Lawine,banguko,d,maambukizi,usuluhishi,chekechea,banguko,NA,NA,"c(""distractor1"", ""distractor2"", ""distractor3"")",NA,NA,NA,NA,NA,NA,NA,NA,NA,NA,NA,NA,NA,NA,NA,NA,NA,NA,NA
3c735,Save data screen,canvas.Screen,2_10_0_1,NA,NA,timeout,499.69900000002,318693.4000001,318681.568,318702.278,319185.248,319186.30000019,2023-11-13T18:46:30Z,319201.977,Lawine,banguko,d,maambukizi,usuluhishi,chekechea,NA,NA,1,"c(""distractor1"", ""distractor2"", ""distractor3"")",NA,NA,NA,NA,NA,NA,NA,NA,NA,NA,NA,NA,NA,NA,NA,NA,NA,NA,NA
3c735,shallow,flow.Sequence,2_10_0,NA,NA,completion,4779.121,314390.30000019,314389.423,314406.127,319185.248,319186.5,2023-11-13T18:46:30Z,319201.977,Lawine,banguko,d,maambukizi,usuluhishi,chekechea,NA,NA,NA,"c(""distractor1"", ""distractor2"", ""distractor3"")",NA,NA,NA,NA,NA,NA,NA,NA,NA,NA,NA,NA,NA,NA,NA,NA,NA,NA,NA
3c735,task,flow.Sequence,2_10,NA,NA,completion,4779.121,314390.30000019,314389.423,314406.127,319185.248,319186.5,2023-11-13T18:46:30Z,319201.977,Lawine,banguko,d,maambukizi,usuluhishi,chekechea,NA,NA,NA,"c(""distractor1"", ""distractor2"", ""distractor3"")",NA,NA,NA,NA,NA,NA,NA,NA,NA,NA,NA,NA,NA,NA,NA,NA,NA,NA,NA
3c735,Shallow Question,html.Page,2_11_0_0,NA,NA,form submission,4079.023,319186.5999999,319185.248,319201.977,323281,323281.19999981,2023-11-13T18:46:34Z,323281.628,Körper,kiwiliwili,s,mapambano,mpatanishi,kiolezo,kiwiliwili,NA,NA,"c(""distractor1"", ""distractor2"", ""distractor3"")",NA,NA,NA,NA,NA,NA,NA,NA,NA,NA,NA,NA,NA,NA,NA,NA,NA,NA,NA
3c735,Save data screen,canvas.Screen,2_11_0_1,NA,NA,timeout,499.62199999997,323282.19999981,323264.933,323281.628,323764.606,323765.30000019,2023-11-13T18:46:35Z,323781.25,Körper,kiwiliwili,s,mapambano,mpatanishi,kiolezo,NA,NA,1,"c(""distractor1"", ""distractor2"", ""distractor3"")",NA,NA,NA,NA,NA,NA,NA,NA,NA,NA,NA,NA,NA,NA,NA,NA,NA,NA,NA
3c735,shallow,flow.Sequence,2_11_0,NA,NA,completion,4562.629,319186.5999999,319185.248,319201.977,323764.606,323765.5,2023-11-13T18:46:35Z,323781.25,Körper,kiwiliwili,s,mapambano,mpatanishi,kiolezo,NA,NA,NA,"c(""distractor1"", ""distractor2"", ""distractor3"")",NA,NA,NA,NA,NA,NA,NA,NA,NA,NA,NA,NA,NA,NA,NA,NA,NA,NA,NA
3c735,task,flow.Sequence,2_11,NA,NA,completion,4562.629,319186.5999999,319185.248,319201.977,323764.606,323765.5,2023-11-13T18:46:35Z,323781.25,Körper,kiwiliwili,s,mapambano,mpatanishi,kiolezo,NA,NA,NA,"c(""distractor1"", ""distractor2"", ""distractor3"")",NA,NA,NA,NA,NA,NA,NA,NA,NA,NA,NA,NA,NA,NA,NA,NA,NA,NA,NA
3c735,Shallow Question,html.Page,2_12_0_0,NA,NA,form submission,8377.0500001907,323765.5999999,323764.606,323781.25,332158.30000019,332158.5,2023-11-13T18:46:43Z,332173.863,Übersicht,kilindo,s,mgusano,chipukizi,kulinganisha,mgusano,NA,NA,"c(""distractor1"", ""distractor2"", ""distractor3"")",NA,NA,NA,NA,NA,NA,NA,NA,NA,NA,NA,NA,NA,NA,NA,NA,NA,NA,NA
3c735,Save data screen,canvas.Screen,2_12_0_1,NA,NA,timeout,499.58799999999,332159.69999981,332157.31,332173.863,332656.806,332657.69999981,2023-11-13T18:46:44Z,332673.451,Übersicht,kilindo,s,mgusano,chipukizi,kulinganisha,NA,NA,0,"c(""distractor1"", ""distractor2"", ""distractor3"")",NA,NA,NA,NA,NA,NA,NA,NA,NA,NA,NA,NA,NA,NA,NA,NA,NA,NA,NA
3c735,shallow,flow.Sequence,2_12_0,NA,NA,completion,8875.556,323765.5999999,323764.606,323781.25,332656.806,332657.9000001,2023-11-13T18:46:44Z,332673.451,Übersicht,kilindo,s,mgusano,chipukizi,kulinganisha,NA,NA,NA,"c(""distractor1"", ""distractor2"", ""distractor3"")",NA,NA,NA,NA,NA,NA,NA,NA,NA,NA,NA,NA,NA,NA,NA,NA,NA,NA,NA
3c735,task,flow.Sequence,2_12,NA,NA,completion,8875.556,323765.5,323764.606,323781.25,332656.806,332657.9000001,2023-11-13T18:46:44Z,332673.451,Übersicht,kilindo,s,mgusano,chipukizi,kulinganisha,NA,NA,NA,"c(""distractor1"", ""distractor2"", ""distractor3"")",NA,NA,NA,NA,NA,NA,NA,NA,NA,NA,NA,NA,NA,NA,NA,NA,NA,NA,NA
3c735,Shallow Question,html.Page,2_13_0_0,NA,NA,form submission,4092.049,332658.0999999,332656.806,332673.451,336765.5,336765.5999999,2023-11-13T18:46:48Z,336769.807,Angreifer,mshambulizi,d,kitengo,tasinia,usafirishaji,mshambulizi,NA,NA,"c(""distractor1"", ""distractor2"", ""distractor3"")",NA,NA,NA,NA,NA,NA,NA,NA,NA,NA,NA,NA,NA,NA,NA,NA,NA,NA,NA
3c735,Save data screen,canvas.Screen,2_13_0_1,NA,NA,timeout,499.79100000003,336766.69999981,336755.331,336769.807,337252.763,337253.30000019,2023-11-13T18:46:48Z,337269.598,Angreifer,mshambulizi,d,kitengo,tasinia,usafirishaji,NA,NA,1,"c(""distractor1"", ""distractor2"", ""distractor3"")",NA,NA,NA,NA,NA,NA,NA,NA,NA,NA,NA,NA,NA,NA,NA,NA,NA,NA,NA
3c735,shallow,flow.Sequence,2_13_0,NA,NA,completion,4579.312,332658,332656.806,332673.451,337252.763,337253.5,2023-11-13T18:46:48Z,337269.598,Angreifer,mshambulizi,d,kitengo,tasinia,usafirishaji,NA,NA,NA,"c(""distractor1"", ""distractor2"", ""distractor3"")",NA,NA,NA,NA,NA,NA,NA,NA,NA,NA,NA,NA,NA,NA,NA,NA,NA,NA,NA
3c735,task,flow.Sequence,2_13,NA,NA,completion,4579.312,332658,332656.806,332673.451,337252.763,337253.69999981,2023-11-13T18:46:48Z,337269.598,Angreifer,mshambulizi,d,kitengo,tasinia,usafirishaji,NA,NA,NA,"c(""distractor1"", ""distractor2"", ""distractor3"")",NA,NA,NA,NA,NA,NA,NA,NA,NA,NA,NA,NA,NA,NA,NA,NA,NA,NA,NA
3c735,Shallow Question,html.Page,2_14_0_0,NA,NA,form submission,4883.402,337253.69999981,337252.763,337269.598,342153,342153.0999999,2023-11-13T18:46:53Z,342165.123,Kultur,utamaduni,s,shetani,gerezani,mazingira,utamaduni,NA,NA,"c(""distractor1"", ""distractor2"", ""distractor3"")",NA,NA,NA,NA,NA,NA,NA,NA,NA,NA,NA,NA,NA,NA,NA,NA,NA,NA,NA
3c735,Save data screen,canvas.Screen,2_14_0_1,NA,NA,timeout,499.53899999999,342154.19999981,342148.301,342165.123,342648.053,342648.69999981,2023-11-13T18:46:54Z,342664.662,Kultur,utamaduni,s,shetani,gerezani,mazingira,NA,NA,1,"c(""distractor1"", ""distractor2"", ""distractor3"")",NA,NA,NA,NA,NA,NA,NA,NA,NA,NA,NA,NA,NA,NA,NA,NA,NA,NA,NA
3c735,shallow,flow.Sequence,2_14_0,NA,NA,completion,5378.455,337253.69999981,337252.763,337269.598,342648.053,342648.80000019,2023-11-13T18:46:54Z,342664.662,Kultur,utamaduni,s,shetani,gerezani,mazingira,NA,NA,NA,"c(""distractor1"", ""distractor2"", ""distractor3"")",NA,NA,NA,NA,NA,NA,NA,NA,NA,NA,NA,NA,NA,NA,NA,NA,NA,NA,NA
3c735,task,flow.Sequence,2_14,NA,NA,completion,5378.455,337253.69999981,337252.763,337269.598,342648.053,342648.9000001,2023-11-13T18:46:54Z,342664.662,Kultur,utamaduni,s,shetani,gerezani,mazingira,NA,NA,NA,"c(""distractor1"", ""distractor2"", ""distractor3"")",NA,NA,NA,NA,NA,NA,NA,NA,NA,NA,NA,NA,NA,NA,NA,NA,NA,NA,NA
3c735,Shallow Question,html.Page,2_15_0_0,NA,NA,form submission,6978.9379999046,342649.0999999,342648.053,342664.662,349643.5999999,349643.80000019,2023-11-13T18:47:01Z,349658.55,System,maongozi,d,chokochoko,nuksani,mitaani,maongozi,NA,NA,"c(""distractor1"", ""distractor2"", ""distractor3"")",NA,NA,NA,NA,NA,NA,NA,NA,NA,NA,NA,NA,NA,NA,NA,NA,NA,NA,NA
3c735,Save data screen,canvas.Screen,2_15_0_1,NA,NA,timeout,499.60000000003,349644.9000001,349641.519,349658.55,350141.82,350142.69999981,2023-11-13T18:47:01Z,350158.15,System,maongozi,d,chokochoko,nuksani,mitaani,NA,NA,1,"c(""distractor1"", ""distractor2"", ""distractor3"")",NA,NA,NA,NA,NA,NA,NA,NA,NA,NA,NA,NA,NA,NA,NA,NA,NA,NA,NA
3c735,shallow,flow.Sequence,2_15_0,NA,NA,completion,7477.158,342649.0999999,342648.053,342664.662,350141.82,350142.9000001,2023-11-13T18:47:01Z,350158.15,System,maongozi,d,chokochoko,nuksani,mitaani,NA,NA,NA,"c(""distractor1"", ""distractor2"", ""distractor3"")",NA,NA,NA,NA,NA,NA,NA,NA,NA,NA,NA,NA,NA,NA,NA,NA,NA,NA,NA
3c735,task,flow.Sequence,2_15,NA,NA,completion,7477.158,342649.0999999,342648.053,342664.662,350141.82,350142.9000001,2023-11-13T18:47:01Z,350158.15,System,maongozi,d,chokochoko,nuksani,mitaani,NA,NA,NA,"c(""distractor1"", ""distractor2"", ""distractor3"")",NA,NA,NA,NA,NA,NA,NA,NA,NA,NA,NA,NA,NA,NA,NA,NA,NA,NA,NA
3c735,retrieval block 2 (multiple choice),flow.Loop,2,NA,NA,completion,117680.665,232445.5,232444.498,232461.155,350141.82,350142.9000001,2023-11-13T18:47:01Z,350158.15,NA,NA,NA,NA,NA,NA,NA,NA,NA,"c(""distractor1"", ""distractor2"", ""distractor3"")",NA,NA,NA,NA,NA,NA,NA,NA,NA,NA,NA,NA,NA,NA,NA,NA,NA,NA,NA
3c735,End,canvas.Screen,3,NA,keypress(Space),response,2592.35,350143,350141.82,350158.15,352750.5,352751.0999999,2023-11-13T18:47:04Z,352756.189,NA,NA,NA,NA,NA,NA,NA,NA,NA,NULL,NA,NA,NA,NA,NA,NA,NA,NA,NA,NA,NA,NA,NA,NA,NA,NA,NA,NA,NA
3c735,root,flow.Sequence,NA,NA,NA,completion,351786.553,956,947.278,963.947,352750.5,352751.30000019,2023-11-13T18:47:04Z,352756.189,NA,NA,NA,NA,NA,NA,NA,NA,NA,NULL,NA,NA,NA,NA,NA,NA,NA,NA,NA,NA,NA,NA,NA,NA,NA,NA,NA,NA,NA
