observation,sender,sender_type,sender_id,response,response_action,ended_on,duration,time_run,time_render,time_show,time_end,time_commit,timestamp,time_switch,distractors,german,swahili,enc,distractor1,distractor2,distractor3,response_2,x,correct,x_2,url_vp,url_sess,meta_labjs_version,meta_location,meta_user_agent,meta_platform,meta_language,meta_locale,meta_time_zone,meta_timezone_offset,meta_screen_width,meta_screen_height,meta_scroll_width,meta_scroll_height,meta_window_inner_width,meta_window_inner_height,meta_device_pixel_ratio,meta_labjs_build_flavor,meta_labjs_build_commit
c41d3,Introduction general,canvas.Screen,0,weiter,keypress(q),response,9715.815,996.29999995232,1050.868,1084.185,10800,10803.799999952,2023-12-03T21:33:56Z,10811.548,NULL,NA,NA,NA,NA,NA,NA,NA,NA,NA,NA,136,3,20.2.4,https://neurocog.fernuni.ch/studies/vweber/aberisha/encoding_immediate/index.html?vp=136&sess=3,"Mozilla/5.0 (Windows NT 10.0; Win64; x64) AppleWebKit/537.36 (KHTML, like Gecko) Chrome/119.0.0.0 Safari/537.36",Win32,de-DE,de,Europe/Zurich,-60,1739,979,1740,774,1740,822,1.1041666269302,production,f5b4a49f956347addd546a832a3327688c2c0fef
c41d3,Introduction practice,canvas.Screen,1_0,NA,keypress(Space),response,4770.7519999523,10804.399999857,10787.908,10811.548,15582.299999952,15582.899999857,2023-12-03T21:34:01Z,15591.937,NULL,NA,NA,NA,NA,NA,NA,NA,NA,NA,NA,NA,NA,NA,NA,NA,NA,NA,NA,NA,NA,NA,NA,NA,NA,NA,NA,NA,NA,NA
c41d3,deep,flow.Sequence,1_1_0_0,NA,NA,skipped,NA,15583.099999905,NA,NA,15582.299999952,15583.200000048,2023-12-03T21:34:01Z,15591.937,"c(""distractor1"", ""distractor2"", ""distractor3"")",Gegenwart,hadhara,s,katiba,jokofu,mikopo,NA,NA,NA,NA,NA,NA,NA,NA,NA,NA,NA,NA,NA,NA,NA,NA,NA,NA,NA,NA,NA,NA,NA
c41d3,Shallow Question,html.Page,1_1_0_1_0,NA,NA,form submission,10641.362999952,15583.399999857,15580.595,15591.937,26233.299999952,26233.599999905,2023-12-03T21:34:11Z,26235.487,"c(""distractor1"", ""distractor2"", ""distractor3"")",Gegenwart,hadhara,s,katiba,jokofu,mikopo,hadhara,NA,NA,NA,NA,NA,NA,NA,NA,NA,NA,NA,NA,NA,NA,NA,NA,NA,NA,NA,NA,NA,NA
c41d3,"""Richtig""-Screen",canvas.Screen,1_1_0_1_1,NA,NA,timeout,4997.282,26235.299999952,26219.321,26235.487,31216.102,31216.799999952,2023-12-03T21:34:16Z,31232.769,"c(""distractor1"", ""distractor2"", ""distractor3"")",Gegenwart,hadhara,s,katiba,jokofu,mikopo,NA,NA,1,NA,NA,NA,NA,NA,NA,NA,NA,NA,NA,NA,NA,NA,NA,NA,NA,NA,NA,NA,NA
c41d3,"""Falsch""-Screen",canvas.Screen,1_1_0_1_2,NA,NA,skipped,NA,31217.700000048,NA,NA,31216.102,31217.899999857,2023-12-03T21:34:16Z,31232.769,"c(""distractor1"", ""distractor2"", ""distractor3"")",Gegenwart,hadhara,s,katiba,jokofu,mikopo,NA,NA,NA,NA,NA,NA,NA,NA,NA,NA,NA,NA,NA,NA,NA,NA,NA,NA,NA,NA,NA,NA,NA
c41d3,shallow,flow.Sequence,1_1_0_1,NA,NA,completion,15624.165,15583.299999952,15580.595,15591.937,31216.102,31218,2023-12-03T21:34:16Z,31232.769,"c(""distractor1"", ""distractor2"", ""distractor3"")",Gegenwart,hadhara,s,katiba,jokofu,mikopo,NA,NA,NA,NA,NA,NA,NA,NA,NA,NA,NA,NA,NA,NA,NA,NA,NA,NA,NA,NA,NA,NA,NA
c41d3,task,flow.Sequence,1_1_0,NA,NA,completion,15624.165,15583,15580.595,15591.937,31216.102,31218,2023-12-03T21:34:16Z,31232.769,"c(""distractor1"", ""distractor2"", ""distractor3"")",Gegenwart,hadhara,s,katiba,jokofu,mikopo,NA,NA,NA,NA,NA,NA,NA,NA,NA,NA,NA,NA,NA,NA,NA,NA,NA,NA,NA,NA,NA,NA,NA
c41d3,deep,flow.Sequence,1_1_1_0,NA,NA,skipped,NA,31218.200000048,NA,NA,31216.102,31218.299999952,2023-12-03T21:34:16Z,31232.769,"c(""distractor1"", ""distractor2"", ""distractor3"")",Kritik,lawama,s,dereva,nafasi,mawazo,NA,NA,NA,NA,NA,NA,NA,NA,NA,NA,NA,NA,NA,NA,NA,NA,NA,NA,NA,NA,NA,NA,NA
c41d3,Shallow Question,html.Page,1_1_1_1_0,NA,NA,form submission,3553.5309999523,31218.299999952,31216.102,31232.769,34786.299999952,34786.700000048,2023-12-03T21:34:20Z,34796.935,"c(""distractor1"", ""distractor2"", ""distractor3"")",Kritik,lawama,s,dereva,nafasi,mawazo,nafasi,NA,NA,NA,NA,NA,NA,NA,NA,NA,NA,NA,NA,NA,NA,NA,NA,NA,NA,NA,NA,NA,NA
c41d3,"""Richtig""-Screen",canvas.Screen,1_1_1_1_1,NA,NA,skipped,NA,34788.099999904996,NA,NA,34786.299999952,34788.399999857,2023-12-03T21:34:20Z,34796.935,"c(""distractor1"", ""distractor2"", ""distractor3"")",Kritik,lawama,s,dereva,nafasi,mawazo,NA,NA,NA,NA,NA,NA,NA,NA,NA,NA,NA,NA,NA,NA,NA,NA,NA,NA,NA,NA,NA,NA,NA
c41d3,"""Falsch""-Screen",canvas.Screen,1_1_1_1_2,NA,NA,timeout,4997.278,34789.700000048,34770.637,34796.935,39777.6,39778.700000048,2023-12-03T21:34:25Z,39794.213,"c(""distractor1"", ""distractor2"", ""distractor3"")",Kritik,lawama,s,dereva,nafasi,mawazo,NA,NA,0,NA,NA,NA,NA,NA,NA,NA,NA,NA,NA,NA,NA,NA,NA,NA,NA,NA,NA,NA,NA
c41d3,shallow,flow.Sequence,1_1_1_1,NA,NA,completion,8544.831,31218.299999952,31216.102,31232.769,39777.6,39779.099999904996,2023-12-03T21:34:25Z,39794.213,"c(""distractor1"", ""distractor2"", ""distractor3"")",Kritik,lawama,s,dereva,nafasi,mawazo,NA,NA,NA,NA,NA,NA,NA,NA,NA,NA,NA,NA,NA,NA,NA,NA,NA,NA,NA,NA,NA,NA,NA
c41d3,task,flow.Sequence,1_1_1,NA,NA,completion,8544.831,31218.200000048,31216.102,31232.769,39777.6,39779.599999904996,2023-12-03T21:34:25Z,39794.213,"c(""distractor1"", ""distractor2"", ""distractor3"")",Kritik,lawama,s,dereva,nafasi,mawazo,NA,NA,NA,NA,NA,NA,NA,NA,NA,NA,NA,NA,NA,NA,NA,NA,NA,NA,NA,NA,NA,NA,NA
c41d3,Deep Question,html.Page,1_1_2_0_0,NA,NA,form submission,5265.4870000477,39779.899999857,39777.6,39794.213,45059.700000048,45060,2023-12-03T21:34:30Z,45074.081,"c(""distractor1"", ""distractor2"", ""distractor3"")",Schatten,kivuli,d,NA,NA,NA,dgfgfgfg,NA,NA,NA,NA,NA,NA,NA,NA,NA,NA,NA,NA,NA,NA,NA,NA,NA,NA,NA,NA,NA,NA
c41d3,"""Richtig""-Screen",canvas.Screen,1_1_2_0_1,NA,NA,skipped,NA,45061.200000048,NA,NA,45059.700000048,45061.399999857,2023-12-03T21:34:30Z,45074.081,"c(""distractor1"", ""distractor2"", ""distractor3"")",Schatten,kivuli,d,NA,NA,NA,NA,NA,NA,NA,NA,NA,NA,NA,NA,NA,NA,NA,NA,NA,NA,NA,NA,NA,NA,NA,NA,NA,NA
c41d3,"""Falsch""-Screen",canvas.Screen,1_1_2_0_2,NA,NA,timeout,4996.792,45062.5,45054.373,45074.081,50054.353,50056.700000048,2023-12-03T21:34:35Z,50070.873,"c(""distractor1"", ""distractor2"", ""distractor3"")",Schatten,kivuli,d,NA,NA,NA,NA,NA,0,NA,NA,NA,NA,NA,NA,NA,NA,NA,NA,NA,NA,NA,NA,NA,NA,NA,NA,NA,NA
c41d3,deep,flow.Sequence,1_1_2_0,NA,NA,completion,10260.14,39779.799999952,39777.6,39794.213,50054.353,50057.099999904996,2023-12-03T21:34:35Z,50070.873,"c(""distractor1"", ""distractor2"", ""distractor3"")",Schatten,kivuli,d,NA,NA,NA,NA,NA,NA,NA,NA,NA,NA,NA,NA,NA,NA,NA,NA,NA,NA,NA,NA,NA,NA,NA,NA,NA,NA
c41d3,shallow,flow.Sequence,1_1_2_1,NA,NA,skipped,NA,50057.299999952,NA,NA,50054.353,50057.5,2023-12-03T21:34:35Z,50070.873,"c(""distractor1"", ""distractor2"", ""distractor3"")",Schatten,kivuli,d,NA,NA,NA,NA,NA,NA,NA,NA,NA,NA,NA,NA,NA,NA,NA,NA,NA,NA,NA,NA,NA,NA,NA,NA,NA,NA
c41d3,task,flow.Sequence,1_1_2,NA,NA,completion,10260.14,39779.799999952,39777.6,39794.213,50054.353,50057.899999857,2023-12-03T21:34:35Z,50070.873,"c(""distractor1"", ""distractor2"", ""distractor3"")",Schatten,kivuli,d,NA,NA,NA,NA,NA,NA,NA,NA,NA,NA,NA,NA,NA,NA,NA,NA,NA,NA,NA,NA,NA,NA,NA,NA,NA,NA
c41d3,Deep Question,html.Page,1_1_3_0_0,NA,NA,form submission,3525.2269999046,50058.099999904996,50054.353,50070.873,53596.099999904996,53596.200000048,2023-12-03T21:34:39Z,53602.236,"c(""distractor1"", ""distractor2"", ""distractor3"")",Gesundheit,salama,d,NA,NA,NA,fgfgfgf,NA,NA,NA,NA,NA,NA,NA,NA,NA,NA,NA,NA,NA,NA,NA,NA,NA,NA,NA,NA,NA,NA
c41d3,"""Richtig""-Screen",canvas.Screen,1_1_3_0_1,NA,NA,skipped,NA,53596.899999857,NA,NA,53596.099999904996,53597.099999904996,2023-12-03T21:34:39Z,53602.236,"c(""distractor1"", ""distractor2"", ""distractor3"")",Gesundheit,salama,d,NA,NA,NA,NA,NA,NA,NA,NA,NA,NA,NA,NA,NA,NA,NA,NA,NA,NA,NA,NA,NA,NA,NA,NA,NA,NA
c41d3,"""Falsch""-Screen",canvas.Screen,1_1_3_0_2,NA,NA,timeout,4997.228,53597.799999952,53585.539,53602.236,58582.652,58583.700000048,2023-12-03T21:34:44Z,58599.464,"c(""distractor1"", ""distractor2"", ""distractor3"")",Gesundheit,salama,d,NA,NA,NA,NA,NA,0,NA,NA,NA,NA,NA,NA,NA,NA,NA,NA,NA,NA,NA,NA,NA,NA,NA,NA,NA,NA
c41d3,deep,flow.Sequence,1_1_3_0,NA,NA,completion,8511.779,50058.099999904996,50054.353,50070.873,58582.652,58584.099999904996,2023-12-03T21:34:44Z,58599.464,"c(""distractor1"", ""distractor2"", ""distractor3"")",Gesundheit,salama,d,NA,NA,NA,NA,NA,NA,NA,NA,NA,NA,NA,NA,NA,NA,NA,NA,NA,NA,NA,NA,NA,NA,NA,NA,NA,NA
c41d3,shallow,flow.Sequence,1_1_3_1,NA,NA,skipped,NA,58584.299999952,NA,NA,58582.652,58584.5,2023-12-03T21:34:44Z,58599.464,"c(""distractor1"", ""distractor2"", ""distractor3"")",Gesundheit,salama,d,NA,NA,NA,NA,NA,NA,NA,NA,NA,NA,NA,NA,NA,NA,NA,NA,NA,NA,NA,NA,NA,NA,NA,NA,NA,NA
c41d3,task,flow.Sequence,1_1_3,NA,NA,completion,8511.779,50058.099999904996,50054.353,50070.873,58582.652,58584.799999952,2023-12-03T21:34:44Z,58599.464,"c(""distractor1"", ""distractor2"", ""distractor3"")",Gesundheit,salama,d,NA,NA,NA,NA,NA,NA,NA,NA,NA,NA,NA,NA,NA,NA,NA,NA,NA,NA,NA,NA,NA,NA,NA,NA,NA,NA
c41d3,Deep Question,html.Page,1_1_4_0_0,NA,NA,form submission,2965.4359998569,58585,58582.652,58599.464,61564.899999857,61565.099999904996,2023-12-03T21:34:47Z,61580.545,"c(""distractor1"", ""distractor2"", ""distractor3"")",Qualität,mtindo,d,NA,NA,NA,fggfgfg,NA,NA,NA,NA,NA,NA,NA,NA,NA,NA,NA,NA,NA,NA,NA,NA,NA,NA,NA,NA,NA,NA
c41d3,"""Richtig""-Screen",canvas.Screen,1_1_4_0_1,NA,NA,skipped,NA,61566.200000048,NA,NA,61564.899999857,61566.299999952,2023-12-03T21:34:47Z,61580.545,"c(""distractor1"", ""distractor2"", ""distractor3"")",Qualität,mtindo,d,NA,NA,NA,NA,NA,NA,NA,NA,NA,NA,NA,NA,NA,NA,NA,NA,NA,NA,NA,NA,NA,NA,NA,NA,NA,NA
c41d3,"""Falsch""-Screen",canvas.Screen,1_1_4_0_2,NA,NA,timeout,4996.998,61568.299999952,61561.546,61580.545,66561.106,66563.299999952,2023-12-03T21:34:52Z,66577.543,"c(""distractor1"", ""distractor2"", ""distractor3"")",Qualität,mtindo,d,NA,NA,NA,NA,NA,0,NA,NA,NA,NA,NA,NA,NA,NA,NA,NA,NA,NA,NA,NA,NA,NA,NA,NA,NA,NA
c41d3,deep,flow.Sequence,1_1_4_0,NA,NA,completion,7961.642,58584.899999857,58582.652,58599.464,66561.106,66563.599999905,2023-12-03T21:34:52Z,66577.543,"c(""distractor1"", ""distractor2"", ""distractor3"")",Qualität,mtindo,d,NA,NA,NA,NA,NA,NA,NA,NA,NA,NA,NA,NA,NA,NA,NA,NA,NA,NA,NA,NA,NA,NA,NA,NA,NA,NA
c41d3,shallow,flow.Sequence,1_1_4_1,NA,NA,skipped,NA,66563.899999857,NA,NA,66561.106,66564,2023-12-03T21:34:52Z,66577.543,"c(""distractor1"", ""distractor2"", ""distractor3"")",Qualität,mtindo,d,NA,NA,NA,NA,NA,NA,NA,NA,NA,NA,NA,NA,NA,NA,NA,NA,NA,NA,NA,NA,NA,NA,NA,NA,NA,NA
c41d3,task,flow.Sequence,1_1_4,NA,NA,completion,7961.642,58584.899999857,58582.652,58599.464,66561.106,66564.299999952,2023-12-03T21:34:52Z,66577.543,"c(""distractor1"", ""distractor2"", ""distractor3"")",Qualität,mtindo,d,NA,NA,NA,NA,NA,NA,NA,NA,NA,NA,NA,NA,NA,NA,NA,NA,NA,NA,NA,NA,NA,NA,NA,NA,NA,NA
c41d3,deep,flow.Sequence,1_1_5_0,NA,NA,skipped,NA,66564.599999905,NA,NA,66561.106,66564.799999952,2023-12-03T21:34:52Z,66577.543,"c(""distractor1"", ""distractor2"", ""distractor3"")",Rückhalt,msaada,s,muhula,auwali,kiwimbe,NA,NA,NA,NA,NA,NA,NA,NA,NA,NA,NA,NA,NA,NA,NA,NA,NA,NA,NA,NA,NA,NA,NA
c41d3,Shallow Question,html.Page,1_1_5_1_0,NA,NA,form submission,3409.1570000477,66565.099999905,66561.106,66577.543,69986.700000048,69986.899999857,2023-12-03T21:34:55Z,69992.071,"c(""distractor1"", ""distractor2"", ""distractor3"")",Rückhalt,msaada,s,muhula,auwali,kiwimbe,kiwimbe,NA,NA,NA,NA,NA,NA,NA,NA,NA,NA,NA,NA,NA,NA,NA,NA,NA,NA,NA,NA,NA,NA
c41d3,"""Richtig""-Screen",canvas.Screen,1_1_5_1_1,NA,NA,skipped,NA,69990.299999952,NA,NA,69986.700000048,69990.399999857,2023-12-03T21:34:55Z,69992.071,"c(""distractor1"", ""distractor2"", ""distractor3"")",Rückhalt,msaada,s,muhula,auwali,kiwimbe,NA,NA,NA,NA,NA,NA,NA,NA,NA,NA,NA,NA,NA,NA,NA,NA,NA,NA,NA,NA,NA,NA,NA
c41d3,"""Falsch""-Screen",canvas.Screen,1_1_5_1_2,NA,NA,timeout,4997.476,69991.5,69975.301,69992.071,74972.627,74973.799999952,2023-12-03T21:35:00Z,74989.547,"c(""distractor1"", ""distractor2"", ""distractor3"")",Rückhalt,msaada,s,muhula,auwali,kiwimbe,NA,NA,0,NA,NA,NA,NA,NA,NA,NA,NA,NA,NA,NA,NA,NA,NA,NA,NA,NA,NA,NA,NA
c41d3,shallow,flow.Sequence,1_1_5_1,NA,NA,completion,8395.084,66565.099999905,66561.106,66577.543,74972.627,74974.299999952,2023-12-03T21:35:00Z,74989.547,"c(""distractor1"", ""distractor2"", ""distractor3"")",Rückhalt,msaada,s,muhula,auwali,kiwimbe,NA,NA,NA,NA,NA,NA,NA,NA,NA,NA,NA,NA,NA,NA,NA,NA,NA,NA,NA,NA,NA,NA,NA
c41d3,task,flow.Sequence,1_1_5,NA,NA,completion,8395.084,66564.5,66561.106,66577.543,74972.627,74974.700000048,2023-12-03T21:35:00Z,74989.547,"c(""distractor1"", ""distractor2"", ""distractor3"")",Rückhalt,msaada,s,muhula,auwali,kiwimbe,NA,NA,NA,NA,NA,NA,NA,NA,NA,NA,NA,NA,NA,NA,NA,NA,NA,NA,NA,NA,NA,NA,NA
c41d3,block,flow.Loop,1_1,NA,NA,completion,59380.69,15583,15580.595,15591.937,74972.627,74975.099999905,2023-12-03T21:35:00Z,74989.547,"c(""distractor1"", ""distractor2"", ""distractor3"")",NA,NA,NA,NA,NA,NA,NA,NA,NA,NA,NA,NA,NA,NA,NA,NA,NA,NA,NA,NA,NA,NA,NA,NA,NA,NA,NA,NA,NA
c41d3,Practice,flow.Sequence,1,NA,NA,completion,64161.079,10804.299999952,10787.908,10811.548,74972.627,74975.599999905,2023-12-03T21:35:00Z,74989.547,NULL,NA,NA,NA,NA,NA,NA,NA,NA,NA,NA,NA,NA,NA,NA,NA,NA,NA,NA,NA,NA,NA,NA,NA,NA,NA,NA,NA,NA,NA
c41d3,Experiment start,canvas.Screen,2,weiter,keypress(q),response,21680.552999905,74975.799999952,74972.627,74989.547,96670.099999905,96671.200000048,2023-12-03T21:35:22Z,96725.727,NULL,NA,NA,NA,NA,NA,NA,NA,NA,NA,NA,NA,NA,NA,NA,NA,NA,NA,NA,NA,NA,NA,NA,NA,NA,NA,NA,NA,NA,NA
c41d3,deep,flow.Sequence,3_0_0_0_0_0,NA,NA,skipped,NA,96740.899999857,NA,NA,96670.099999905,96741,2023-12-03T21:35:22Z,96725.727,NULL,Flexibilität,kubadilika,s,enjini,usikilivu,hesabu,NA,sdf,NA,0,NA,NA,NA,NA,NA,NA,NA,NA,NA,NA,NA,NA,NA,NA,NA,NA,NA,NA,NA
c41d3,Shallow Question,html.Page,3_0_0_0_0_1_0,NA,NA,form submission,3835.9730000477,96741.200000048,96667.818,96725.727,100561.70000005,100561.89999986,2023-12-03T21:35:26Z,100573.45,NULL,Flexibilität,kubadilika,s,enjini,usikilivu,hesabu,enjini,NA,NA,0,NA,NA,NA,NA,NA,NA,NA,NA,NA,NA,NA,NA,NA,NA,NA,NA,NA,NA,NA
c41d3,"""Richtig""-Screen",canvas.Screen,3_0_0_0_0_1_1,NA,NA,skipped,NA,100562.89999986,NA,NA,100561.70000005,100563.0999999,2023-12-03T21:35:26Z,100573.45,NULL,Flexibilität,kubadilika,s,enjini,usikilivu,hesabu,NA,sdf,NA,0,NA,NA,NA,NA,NA,NA,NA,NA,NA,NA,NA,NA,NA,NA,NA,NA,NA,NA,NA
c41d3,"""Falsch""-Screen",canvas.Screen,3_0_0_0_0_1_2,NA,NA,timeout,4997.07,100564.0999999,100557.372,100573.45,105554.062,105555.39999986,2023-12-03T21:35:31Z,105570.52,NULL,Flexibilität,kubadilika,s,enjini,usikilivu,hesabu,NA,sdf,0,0,NA,NA,NA,NA,NA,NA,NA,NA,NA,NA,NA,NA,NA,NA,NA,NA,NA,NA,NA
c41d3,shallow,flow.Sequence,3_0_0_0_0_1,NA,NA,completion,8828.335,96741.099999905,96667.818,96725.727,105554.062,105555.79999995,2023-12-03T21:35:31Z,105570.52,NULL,Flexibilität,kubadilika,s,enjini,usikilivu,hesabu,NA,sdf,NA,0,NA,NA,NA,NA,NA,NA,NA,NA,NA,NA,NA,NA,NA,NA,NA,NA,NA,NA,NA
c41d3,task,flow.Sequence,3_0_0_0_0,NA,NA,completion,8828.335,96740.899999857,96667.818,96725.727,105554.062,105556.0999999,2023-12-03T21:35:31Z,105570.52,NULL,Flexibilität,kubadilika,s,enjini,usikilivu,hesabu,NA,sdf,NA,0,NA,NA,NA,NA,NA,NA,NA,NA,NA,NA,NA,NA,NA,NA,NA,NA,NA,NA,NA
c41d3,Deep Question,html.Page,3_0_0_0_1_0_0,NA,NA,form submission,3986.0799999046,105556.29999995,105554.062,105570.52,109556.5999999,109556.79999995,2023-12-03T21:35:35Z,109568.112,NULL,Wechsel,ugeuzaji,d,NA,NA,NA,fgfgfgf,NA,NA,0,NA,NA,NA,NA,NA,NA,NA,NA,NA,NA,NA,NA,NA,NA,NA,NA,NA,NA,NA
c41d3,"""Richtig""-Screen",canvas.Screen,3_0_0_0_1_0_1,NA,NA,skipped,NA,109560,NA,NA,109556.5999999,109560.20000005,2023-12-03T21:35:35Z,109568.112,NULL,Wechsel,ugeuzaji,d,NA,NA,NA,NA,sdf,NA,0,NA,NA,NA,NA,NA,NA,NA,NA,NA,NA,NA,NA,NA,NA,NA,NA,NA,NA,NA
c41d3,"""Falsch""-Screen",canvas.Screen,3_0_0_0_1_0_2,NA,NA,timeout,4996.782,109560.70000005,109551.535,109568.112,114548.6,114550.39999986,2023-12-03T21:35:40Z,114564.894,NULL,Wechsel,ugeuzaji,d,NA,NA,NA,NA,sdf,0,0,NA,NA,NA,NA,NA,NA,NA,NA,NA,NA,NA,NA,NA,NA,NA,NA,NA,NA,NA
c41d3,deep,flow.Sequence,3_0_0_0_1_0,NA,NA,completion,8978.08,105556.29999995,105554.062,105570.52,114548.6,114550.79999995,2023-12-03T21:35:40Z,114564.894,NULL,Wechsel,ugeuzaji,d,NA,NA,NA,NA,sdf,NA,0,NA,NA,NA,NA,NA,NA,NA,NA,NA,NA,NA,NA,NA,NA,NA,NA,NA,NA,NA
c41d3,shallow,flow.Sequence,3_0_0_0_1_1,NA,NA,skipped,NA,114551,NA,NA,114548.6,114551.20000005,2023-12-03T21:35:40Z,114564.894,NULL,Wechsel,ugeuzaji,d,NA,NA,NA,NA,sdf,NA,0,NA,NA,NA,NA,NA,NA,NA,NA,NA,NA,NA,NA,NA,NA,NA,NA,NA,NA,NA
c41d3,task,flow.Sequence,3_0_0_0_1,NA,NA,completion,8978.08,105556.29999995,105554.062,105570.52,114548.6,114551.29999995,2023-12-03T21:35:40Z,114564.894,NULL,Wechsel,ugeuzaji,d,NA,NA,NA,NA,sdf,NA,0,NA,NA,NA,NA,NA,NA,NA,NA,NA,NA,NA,NA,NA,NA,NA,NA,NA,NA,NA
c41d3,deep,flow.Sequence,3_0_0_0_2_0,NA,NA,skipped,NA,114551.5999999,NA,NA,114548.6,114551.5999999,2023-12-03T21:35:40Z,114564.894,NULL,Atmosphäre,angahewa,s,kuteseka,usahihi,kutoamini,NA,sdf,NA,0,NA,NA,NA,NA,NA,NA,NA,NA,NA,NA,NA,NA,NA,NA,NA,NA,NA,NA,NA
c41d3,Shallow Question,html.Page,3_0_0_0_2_1_0,NA,NA,form submission,4954.7059999046,114551.89999986,114548.6,114564.894,119519.5999999,119519.70000005,2023-12-03T21:35:45Z,119528.659,NULL,Atmosphäre,angahewa,s,kuteseka,usahihi,kutoamini,angahewa,NA,NA,0,NA,NA,NA,NA,NA,NA,NA,NA,NA,NA,NA,NA,NA,NA,NA,NA,NA,NA,NA
c41d3,"""Richtig""-Screen",canvas.Screen,3_0_0_0_2_1_1,NA,NA,timeout,4996.919,119521,119511.995,119528.659,124509.045,124510,2023-12-03T21:35:50Z,124525.578,NULL,Atmosphäre,angahewa,s,kuteseka,usahihi,kutoamini,NA,sdf,1,0,NA,NA,NA,NA,NA,NA,NA,NA,NA,NA,NA,NA,NA,NA,NA,NA,NA,NA,NA
c41d3,"""Falsch""-Screen",canvas.Screen,3_0_0_0_2_1_2,NA,NA,skipped,NA,124515.70000005,NA,NA,124509.045,124516,2023-12-03T21:35:50Z,124525.578,NULL,Atmosphäre,angahewa,s,kuteseka,usahihi,kutoamini,NA,sdf,NA,0,NA,NA,NA,NA,NA,NA,NA,NA,NA,NA,NA,NA,NA,NA,NA,NA,NA,NA,NA
c41d3,shallow,flow.Sequence,3_0_0_0_2_1,NA,NA,completion,9944.151,114551.79999995,114548.6,114564.894,124509.045,124516.29999995,2023-12-03T21:35:50Z,124525.578,NULL,Atmosphäre,angahewa,s,kuteseka,usahihi,kutoamini,NA,sdf,NA,0,NA,NA,NA,NA,NA,NA,NA,NA,NA,NA,NA,NA,NA,NA,NA,NA,NA,NA,NA
c41d3,task,flow.Sequence,3_0_0_0_2,NA,NA,completion,9944.151,114551.5,114548.6,114564.894,124509.045,124516.5999999,2023-12-03T21:35:50Z,124525.578,NULL,Atmosphäre,angahewa,s,kuteseka,usahihi,kutoamini,NA,sdf,NA,0,NA,NA,NA,NA,NA,NA,NA,NA,NA,NA,NA,NA,NA,NA,NA,NA,NA,NA,NA
c41d3,Deep Question,html.Page,3_0_0_0_3_0_0,NA,NA,form submission,4242.6220000477,124516.79999995,124509.045,124525.578,128768.20000005,128768.39999986,2023-12-03T21:35:54Z,128772.856,NULL,Angreifer,mshambulizi,d,NA,NA,NA,fdfdf,NA,NA,0,NA,NA,NA,NA,NA,NA,NA,NA,NA,NA,NA,NA,NA,NA,NA,NA,NA,NA,NA
c41d3,"""Richtig""-Screen",canvas.Screen,3_0_0_0_3_0_1,NA,NA,skipped,NA,128771.70000005,NA,NA,128768.20000005,128771.89999986,2023-12-03T21:35:54Z,128772.856,NULL,Angreifer,mshambulizi,d,NA,NA,NA,NA,sdf,NA,0,NA,NA,NA,NA,NA,NA,NA,NA,NA,NA,NA,NA,NA,NA,NA,NA,NA,NA,NA
c41d3,"""Falsch""-Screen",canvas.Screen,3_0_0_0_3_0_2,NA,NA,timeout,4997.444,128772.29999995,128756.825,128772.856,133753.463,133754.39999986,2023-12-03T21:35:59Z,133770.3,NULL,Angreifer,mshambulizi,d,NA,NA,NA,NA,sdf,0,0,NA,NA,NA,NA,NA,NA,NA,NA,NA,NA,NA,NA,NA,NA,NA,NA,NA,NA,NA
c41d3,deep,flow.Sequence,3_0_0_0_3_0,NA,NA,completion,9227.885,124516.70000005,124509.045,124525.578,133753.463,133754.79999995,2023-12-03T21:35:59Z,133770.3,NULL,Angreifer,mshambulizi,d,NA,NA,NA,NA,sdf,NA,0,NA,NA,NA,NA,NA,NA,NA,NA,NA,NA,NA,NA,NA,NA,NA,NA,NA,NA,NA
c41d3,shallow,flow.Sequence,3_0_0_0_3_1,NA,NA,skipped,NA,133755,NA,NA,133753.463,133755.20000005,2023-12-03T21:35:59Z,133770.3,NULL,Angreifer,mshambulizi,d,NA,NA,NA,NA,sdf,NA,0,NA,NA,NA,NA,NA,NA,NA,NA,NA,NA,NA,NA,NA,NA,NA,NA,NA,NA,NA
c41d3,task,flow.Sequence,3_0_0_0_3,NA,NA,completion,9227.885,124516.70000005,124509.045,124525.578,133753.463,133755.39999986,2023-12-03T21:35:59Z,133770.3,NULL,Angreifer,mshambulizi,d,NA,NA,NA,NA,sdf,NA,0,NA,NA,NA,NA,NA,NA,NA,NA,NA,NA,NA,NA,NA,NA,NA,NA,NA,NA,NA
c41d3,deep,flow.Sequence,3_0_0_0_4_0,NA,NA,skipped,NA,133755.5,NA,NA,133753.463,133755.70000005,2023-12-03T21:35:59Z,133770.3,NULL,Abrechnung,uhasibu,s,kusahihisha,mpambano,mashambulizi,NA,sdf,NA,0,NA,NA,NA,NA,NA,NA,NA,NA,NA,NA,NA,NA,NA,NA,NA,NA,NA,NA,NA
c41d3,Shallow Question,html.Page,3_0_0_0_4_1_0,NA,NA,form submission,5925.7999999046,133755.89999986,133753.463,133770.3,139696.0999999,139696.29999995,2023-12-03T21:36:05Z,139699.472,NULL,Abrechnung,uhasibu,s,kusahihisha,mpambano,mashambulizi,uhasibu,NA,NA,0,NA,NA,NA,NA,NA,NA,NA,NA,NA,NA,NA,NA,NA,NA,NA,NA,NA,NA,NA
c41d3,"""Richtig""-Screen",canvas.Screen,3_0_0_0_4_1_1,NA,NA,timeout,4996.924,139699.39999986,139683.124,139699.472,144680.231,144681.5999999,2023-12-03T21:36:10Z,144696.396,NULL,Abrechnung,uhasibu,s,kusahihisha,mpambano,mashambulizi,NA,sdf,1,0,NA,NA,NA,NA,NA,NA,NA,NA,NA,NA,NA,NA,NA,NA,NA,NA,NA,NA,NA
c41d3,"""Falsch""-Screen",canvas.Screen,3_0_0_0_4_1_2,NA,NA,skipped,NA,144687.0999999,NA,NA,144680.231,144687.29999995,2023-12-03T21:36:10Z,144696.396,NULL,Abrechnung,uhasibu,s,kusahihisha,mpambano,mashambulizi,NA,sdf,NA,0,NA,NA,NA,NA,NA,NA,NA,NA,NA,NA,NA,NA,NA,NA,NA,NA,NA,NA,NA
c41d3,shallow,flow.Sequence,3_0_0_0_4_1,NA,NA,completion,10909.931,133755.89999986,133753.463,133770.3,144680.231,144687.5999999,2023-12-03T21:36:10Z,144696.396,NULL,Abrechnung,uhasibu,s,kusahihisha,mpambano,mashambulizi,NA,sdf,NA,0,NA,NA,NA,NA,NA,NA,NA,NA,NA,NA,NA,NA,NA,NA,NA,NA,NA,NA,NA
c41d3,task,flow.Sequence,3_0_0_0_4,NA,NA,completion,10909.931,133755.5,133753.463,133770.3,144680.231,144687.79999995,2023-12-03T21:36:10Z,144696.396,NULL,Abrechnung,uhasibu,s,kusahihisha,mpambano,mashambulizi,NA,sdf,NA,0,NA,NA,NA,NA,NA,NA,NA,NA,NA,NA,NA,NA,NA,NA,NA,NA,NA,NA,NA
c41d3,deep,flow.Sequence,3_0_0_0_5_0,NA,NA,skipped,NA,144688,NA,NA,144680.231,144688.29999995,2023-12-03T21:36:10Z,144696.396,NULL,Kanzler,diwani,s,rasilmali,mahitaji,maabudu,NA,sdf,NA,0,NA,NA,NA,NA,NA,NA,NA,NA,NA,NA,NA,NA,NA,NA,NA,NA,NA,NA,NA
c41d3,Shallow Question,html.Page,3_0_0_0_5_1_0,NA,NA,form submission,3353.7039999046,144688.5,144680.231,144696.396,148050.0999999,148050.39999986,2023-12-03T21:36:13Z,148061.15,NULL,Kanzler,diwani,s,rasilmali,mahitaji,maabudu,diwani,NA,NA,0,NA,NA,NA,NA,NA,NA,NA,NA,NA,NA,NA,NA,NA,NA,NA,NA,NA,NA,NA
c41d3,"""Richtig""-Screen",canvas.Screen,3_0_0_0_5_1_1,NA,NA,timeout,4996.846,148053.20000005,148044.855,148061.15,153041.352,153042.89999986,2023-12-03T21:36:18Z,153057.996,NULL,Kanzler,diwani,s,rasilmali,mahitaji,maabudu,NA,sdf,1,0,NA,NA,NA,NA,NA,NA,NA,NA,NA,NA,NA,NA,NA,NA,NA,NA,NA,NA,NA
c41d3,"""Falsch""-Screen",canvas.Screen,3_0_0_0_5_1_2,NA,NA,skipped,NA,153048.79999995,NA,NA,153041.352,153049.0999999,2023-12-03T21:36:18Z,153057.996,NULL,Kanzler,diwani,s,rasilmali,mahitaji,maabudu,NA,sdf,NA,0,NA,NA,NA,NA,NA,NA,NA,NA,NA,NA,NA,NA,NA,NA,NA,NA,NA,NA,NA
c41d3,shallow,flow.Sequence,3_0_0_0_5_1,NA,NA,completion,8344.956,144688.39999986,144680.231,144696.396,153041.352,153049.39999986,2023-12-03T21:36:18Z,153057.996,NULL,Kanzler,diwani,s,rasilmali,mahitaji,maabudu,NA,sdf,NA,0,NA,NA,NA,NA,NA,NA,NA,NA,NA,NA,NA,NA,NA,NA,NA,NA,NA,NA,NA
c41d3,task,flow.Sequence,3_0_0_0_5,NA,NA,completion,8344.956,144688,144680.231,144696.396,153041.352,153049.79999995,2023-12-03T21:36:18Z,153057.996,NULL,Kanzler,diwani,s,rasilmali,mahitaji,maabudu,NA,sdf,NA,0,NA,NA,NA,NA,NA,NA,NA,NA,NA,NA,NA,NA,NA,NA,NA,NA,NA,NA,NA
c41d3,Deep Question,html.Page,3_0_0_0_6_0_0,NA,NA,form submission,2744.6039999046,153050.0999999,153041.352,153057.996,155802.5999999,155802.79999995,2023-12-03T21:36:21Z,155806.272,NULL,Sänger,mwimbaji,d,NA,NA,NA,ddfdff,NA,NA,0,NA,NA,NA,NA,NA,NA,NA,NA,NA,NA,NA,NA,NA,NA,NA,NA,NA,NA,NA
c41d3,"""Richtig""-Screen",canvas.Screen,3_0_0_0_6_0_1,NA,NA,skipped,NA,155805.89999986,NA,NA,155802.5999999,155806.20000005,2023-12-03T21:36:21Z,155806.272,NULL,Sänger,mwimbaji,d,NA,NA,NA,NA,sdf,NA,0,NA,NA,NA,NA,NA,NA,NA,NA,NA,NA,NA,NA,NA,NA,NA,NA,NA,NA,NA
c41d3,"""Falsch""-Screen",canvas.Screen,3_0_0_0_6_0_2,NA,NA,timeout,4997.352,155806.89999986,155790.191,155806.272,160786.911,160787.29999995,2023-12-03T21:36:26Z,160803.624,NULL,Sänger,mwimbaji,d,NA,NA,NA,NA,sdf,0,0,NA,NA,NA,NA,NA,NA,NA,NA,NA,NA,NA,NA,NA,NA,NA,NA,NA,NA,NA
c41d3,deep,flow.Sequence,3_0_0_0_6_0,NA,NA,completion,7728.915,153050,153041.352,153057.996,160786.911,160787.39999986,2023-12-03T21:36:26Z,160803.624,NULL,Sänger,mwimbaji,d,NA,NA,NA,NA,sdf,NA,0,NA,NA,NA,NA,NA,NA,NA,NA,NA,NA,NA,NA,NA,NA,NA,NA,NA,NA,NA
c41d3,shallow,flow.Sequence,3_0_0_0_6_1,NA,NA,skipped,NA,160787.5,NA,NA,160786.911,160787.5999999,2023-12-03T21:36:26Z,160803.624,NULL,Sänger,mwimbaji,d,NA,NA,NA,NA,sdf,NA,0,NA,NA,NA,NA,NA,NA,NA,NA,NA,NA,NA,NA,NA,NA,NA,NA,NA,NA,NA
c41d3,task,flow.Sequence,3_0_0_0_6,NA,NA,completion,7728.915,153050,153041.352,153057.996,160786.911,160787.5999999,2023-12-03T21:36:26Z,160803.624,NULL,Sänger,mwimbaji,d,NA,NA,NA,NA,sdf,NA,0,NA,NA,NA,NA,NA,NA,NA,NA,NA,NA,NA,NA,NA,NA,NA,NA,NA,NA,NA
c41d3,Deep Question,html.Page,3_0_0_0_7_0_0,NA,NA,form submission,3165.5760000477,160787.70000005,160786.911,160803.624,163969.20000005,163969.39999986,2023-12-03T21:36:29Z,163984.614,NULL,Erneuerung,ukarabati,d,NA,NA,NA,dfdff,NA,NA,0,NA,NA,NA,NA,NA,NA,NA,NA,NA,NA,NA,NA,NA,NA,NA,NA,NA,NA,NA
c41d3,"""Richtig""-Screen",canvas.Screen,3_0_0_0_7_0_1,NA,NA,skipped,NA,163971.29999995,NA,NA,163969.20000005,163971.5,2023-12-03T21:36:29Z,163984.614,NULL,Erneuerung,ukarabati,d,NA,NA,NA,NA,sdf,NA,0,NA,NA,NA,NA,NA,NA,NA,NA,NA,NA,NA,NA,NA,NA,NA,NA,NA,NA,NA
c41d3,"""Falsch""-Screen",canvas.Screen,3_0_0_0_7_0_2,NA,NA,timeout,4997.015,163971.89999986,163951.883,163984.614,168965.332,168966.5999999,2023-12-03T21:36:34Z,168981.629,NULL,Erneuerung,ukarabati,d,NA,NA,NA,NA,sdf,0,0,NA,NA,NA,NA,NA,NA,NA,NA,NA,NA,NA,NA,NA,NA,NA,NA,NA,NA,NA
c41d3,deep,flow.Sequence,3_0_0_0_7_0,NA,NA,completion,8161.708,160787.70000005,160786.911,160803.624,168965.332,168967,2023-12-03T21:36:34Z,168981.629,NULL,Erneuerung,ukarabati,d,NA,NA,NA,NA,sdf,NA,0,NA,NA,NA,NA,NA,NA,NA,NA,NA,NA,NA,NA,NA,NA,NA,NA,NA,NA,NA
c41d3,shallow,flow.Sequence,3_0_0_0_7_1,NA,NA,skipped,NA,168967.0999999,NA,NA,168965.332,168967.29999995,2023-12-03T21:36:34Z,168981.629,NULL,Erneuerung,ukarabati,d,NA,NA,NA,NA,sdf,NA,0,NA,NA,NA,NA,NA,NA,NA,NA,NA,NA,NA,NA,NA,NA,NA,NA,NA,NA,NA
c41d3,task,flow.Sequence,3_0_0_0_7,NA,NA,completion,8161.708,160787.70000005,160786.911,160803.624,168965.332,168967.5999999,2023-12-03T21:36:34Z,168981.629,NULL,Erneuerung,ukarabati,d,NA,NA,NA,NA,sdf,NA,0,NA,NA,NA,NA,NA,NA,NA,NA,NA,NA,NA,NA,NA,NA,NA,NA,NA,NA,NA
c41d3,block,flow.Loop,3_0_0_0,NA,NA,completion,72239.605,96740.899999857,96667.818,96725.727,168965.332,168967.89999986,2023-12-03T21:36:34Z,168981.629,NULL,NA,NA,NA,NA,NA,NA,NA,sdf,NA,0,NA,NA,NA,NA,NA,NA,NA,NA,NA,NA,NA,NA,NA,NA,NA,NA,NA,NA,NA
c41d3,weiter,canvas.Screen,3_0_0_1,sdf,keypress(Space),response,1414.0710000477,168968,168965.332,168981.629,170395.70000005,170396.29999995,2023-12-03T21:36:35Z,170414.065,NULL,NA,NA,NA,NA,NA,NA,NA,sdf,NA,0,NA,NA,NA,NA,NA,NA,NA,NA,NA,NA,NA,NA,NA,NA,NA,NA,NA,NA,NA
c41d3,check continue,flow.Sequence,3_0_0,NA,NA,completion,73669.973000048,96740.899999857,96667.818,96725.727,170395.70000005,170396.39999986,2023-12-03T21:36:35Z,170414.065,NULL,NA,NA,NA,NA,NA,NA,NA,sdf,NA,0,NA,NA,NA,NA,NA,NA,NA,NA,NA,NA,NA,NA,NA,NA,NA,NA,NA,NA,NA
c41d3,deep,flow.Sequence,3_0_1_0_0_0,NA,NA,skipped,NA,170418,NA,NA,170395.70000005,170418.20000005,2023-12-03T21:36:35Z,170414.065,NULL,Atmosphäre,angahewa,s,kuteseka,usahihi,kutoamini,NA,sdfdsf,NA,1,NA,NA,NA,NA,NA,NA,NA,NA,NA,NA,NA,NA,NA,NA,NA,NA,NA,NA,NA
c41d3,Shallow Question,html.Page,3_0_1_0_0_1_0,NA,NA,form submission,7793.935,170418.20000005,170397.36,170414.065,178208,178208.29999995,2023-12-03T21:36:43Z,178209.3,NULL,Atmosphäre,angahewa,s,kuteseka,usahihi,kutoamini,usahihi,NA,NA,1,NA,NA,NA,NA,NA,NA,NA,NA,NA,NA,NA,NA,NA,NA,NA,NA,NA,NA,NA
c41d3,"""Richtig""-Screen",canvas.Screen,3_0_1_0_0_1_1,NA,NA,skipped,NA,178211.29999995,NA,NA,178208,178211.5,2023-12-03T21:36:43Z,178209.3,NULL,Atmosphäre,angahewa,s,kuteseka,usahihi,kutoamini,NA,sdfdsf,NA,1,NA,NA,NA,NA,NA,NA,NA,NA,NA,NA,NA,NA,NA,NA,NA,NA,NA,NA,NA
c41d3,"""Falsch""-Screen",canvas.Screen,3_0_1_0_0_1_2,NA,NA,timeout,4996.947,178212.29999995,178193.646,178209.3,183189.967,183191.5,2023-12-03T21:36:48Z,183206.247,NULL,Atmosphäre,angahewa,s,kuteseka,usahihi,kutoamini,NA,sdfdsf,0,1,NA,NA,NA,NA,NA,NA,NA,NA,NA,NA,NA,NA,NA,NA,NA,NA,NA,NA,NA
c41d3,shallow,flow.Sequence,3_0_1_0_0_1,NA,NA,completion,12775.902,170418.20000005,170397.36,170414.065,183189.967,183192,2023-12-03T21:36:48Z,183206.247,NULL,Atmosphäre,angahewa,s,kuteseka,usahihi,kutoamini,NA,sdfdsf,NA,1,NA,NA,NA,NA,NA,NA,NA,NA,NA,NA,NA,NA,NA,NA,NA,NA,NA,NA,NA
c41d3,task,flow.Sequence,3_0_1_0_0,NA,NA,completion,12775.902,170418,170397.36,170414.065,183189.967,183192.20000005,2023-12-03T21:36:48Z,183206.247,NULL,Atmosphäre,angahewa,s,kuteseka,usahihi,kutoamini,NA,sdfdsf,NA,1,NA,NA,NA,NA,NA,NA,NA,NA,NA,NA,NA,NA,NA,NA,NA,NA,NA,NA,NA
c41d3,Deep Question,html.Page,3_0_1_0_1_0_0,NA,NA,form submission,16883.753,183192.5,183189.967,183206.247,200090,200090.0999999,2023-12-03T21:37:05Z,200095.873,NULL,Angreifer,mshambulizi,d,NA,NA,NA,ugeuzahi,NA,NA,1,NA,NA,NA,NA,NA,NA,NA,NA,NA,NA,NA,NA,NA,NA,NA,NA,NA,NA,NA
c41d3,"""Richtig""-Screen",canvas.Screen,3_0_1_0_1_0_1,NA,NA,skipped,NA,200092.70000005,NA,NA,200090,200092.79999995,2023-12-03T21:37:05Z,200095.873,NULL,Angreifer,mshambulizi,d,NA,NA,NA,NA,sdfdsf,NA,1,NA,NA,NA,NA,NA,NA,NA,NA,NA,NA,NA,NA,NA,NA,NA,NA,NA,NA,NA
c41d3,"""Falsch""-Screen",canvas.Screen,3_0_1_0_1_0_2,NA,NA,timeout,4997.327,200093.5999999,200079.527,200095.873,205076.255,205077.5999999,2023-12-03T21:37:10Z,205093.2,NULL,Angreifer,mshambulizi,d,NA,NA,NA,NA,sdfdsf,0,1,NA,NA,NA,NA,NA,NA,NA,NA,NA,NA,NA,NA,NA,NA,NA,NA,NA,NA,NA
c41d3,deep,flow.Sequence,3_0_1_0_1_0,NA,NA,completion,21870.008,183192.5,183189.967,183206.247,205076.255,205077.89999986,2023-12-03T21:37:10Z,205093.2,NULL,Angreifer,mshambulizi,d,NA,NA,NA,NA,sdfdsf,NA,1,NA,NA,NA,NA,NA,NA,NA,NA,NA,NA,NA,NA,NA,NA,NA,NA,NA,NA,NA
c41d3,shallow,flow.Sequence,3_0_1_0_1_1,NA,NA,skipped,NA,205078.0999999,NA,NA,205076.255,205078.29999995,2023-12-03T21:37:10Z,205093.2,NULL,Angreifer,mshambulizi,d,NA,NA,NA,NA,sdfdsf,NA,1,NA,NA,NA,NA,NA,NA,NA,NA,NA,NA,NA,NA,NA,NA,NA,NA,NA,NA,NA
c41d3,task,flow.Sequence,3_0_1_0_1,NA,NA,completion,21870.008,183192.39999986,183189.967,183206.247,205076.255,205078.5,2023-12-03T21:37:10Z,205093.2,NULL,Angreifer,mshambulizi,d,NA,NA,NA,NA,sdfdsf,NA,1,NA,NA,NA,NA,NA,NA,NA,NA,NA,NA,NA,NA,NA,NA,NA,NA,NA,NA,NA
c41d3,deep,flow.Sequence,3_0_1_0_2_0,NA,NA,skipped,NA,205078.70000005,NA,NA,205076.255,205078.79999995,2023-12-03T21:37:10Z,205093.2,NULL,Flexibilität,kubadilika,s,enjini,usikilivu,hesabu,NA,sdfdsf,NA,1,NA,NA,NA,NA,NA,NA,NA,NA,NA,NA,NA,NA,NA,NA,NA,NA,NA,NA,NA
c41d3,Shallow Question,html.Page,3_0_1_0_2_1_0,NA,NA,form submission,7722.3999999046,205078.89999986,205076.255,205093.2,212815.5999999,212815.70000005,2023-12-03T21:37:18Z,212821.439,NULL,Flexibilität,kubadilika,s,enjini,usikilivu,hesabu,kubadilika,NA,NA,1,NA,NA,NA,NA,NA,NA,NA,NA,NA,NA,NA,NA,NA,NA,NA,NA,NA,NA,NA
c41d3,"""Richtig""-Screen",canvas.Screen,3_0_1_0_2_1_1,NA,NA,timeout,4997.249,212817.5,212804.878,212821.439,217802.067,217802.79999995,2023-12-03T21:37:23Z,217818.688,NULL,Flexibilität,kubadilika,s,enjini,usikilivu,hesabu,NA,sdfdsf,1,1,NA,NA,NA,NA,NA,NA,NA,NA,NA,NA,NA,NA,NA,NA,NA,NA,NA,NA,NA
c41d3,"""Falsch""-Screen",canvas.Screen,3_0_1_0_2_1_2,NA,NA,skipped,NA,217805,NA,NA,217802.067,217805.0999999,2023-12-03T21:37:23Z,217818.688,NULL,Flexibilität,kubadilika,s,enjini,usikilivu,hesabu,NA,sdfdsf,NA,1,NA,NA,NA,NA,NA,NA,NA,NA,NA,NA,NA,NA,NA,NA,NA,NA,NA,NA,NA
c41d3,shallow,flow.Sequence,3_0_1_0_2_1,NA,NA,completion,12708.867,205078.89999986,205076.255,205093.2,217802.067,217805.20000005,2023-12-03T21:37:23Z,217818.688,NULL,Flexibilität,kubadilika,s,enjini,usikilivu,hesabu,NA,sdfdsf,NA,1,NA,NA,NA,NA,NA,NA,NA,NA,NA,NA,NA,NA,NA,NA,NA,NA,NA,NA,NA
c41d3,task,flow.Sequence,3_0_1_0_2,NA,NA,completion,12708.867,205078.5999999,205076.255,205093.2,217802.067,217805.29999995,2023-12-03T21:37:23Z,217818.688,NULL,Flexibilität,kubadilika,s,enjini,usikilivu,hesabu,NA,sdfdsf,NA,1,NA,NA,NA,NA,NA,NA,NA,NA,NA,NA,NA,NA,NA,NA,NA,NA,NA,NA,NA
c41d3,deep,flow.Sequence,3_0_1_0_3_0,NA,NA,skipped,NA,217805.39999986,NA,NA,217802.067,217805.39999986,2023-12-03T21:37:23Z,217818.688,NULL,Abrechnung,uhasibu,s,kusahihisha,mpambano,mashambulizi,NA,sdfdsf,NA,1,NA,NA,NA,NA,NA,NA,NA,NA,NA,NA,NA,NA,NA,NA,NA,NA,NA,NA,NA
c41d3,Shallow Question,html.Page,3_0_1_0_3_1_0,NA,NA,form submission,7246.9119999046,217805.5,217802.067,217818.688,225065.5999999,225065.70000005,2023-12-03T21:37:30Z,225080.625,NULL,Abrechnung,uhasibu,s,kusahihisha,mpambano,mashambulizi,uhasibu,NA,NA,1,NA,NA,NA,NA,NA,NA,NA,NA,NA,NA,NA,NA,NA,NA,NA,NA,NA,NA,NA
c41d3,"""Richtig""-Screen",canvas.Screen,3_0_1_0_3_1_1,NA,NA,timeout,4997.01,225067.70000005,225064.295,225080.625,230061.023,230062.79999995,2023-12-03T21:37:35Z,230077.635,NULL,Abrechnung,uhasibu,s,kusahihisha,mpambano,mashambulizi,NA,sdfdsf,1,1,NA,NA,NA,NA,NA,NA,NA,NA,NA,NA,NA,NA,NA,NA,NA,NA,NA,NA,NA
c41d3,"""Falsch""-Screen",canvas.Screen,3_0_1_0_3_1_2,NA,NA,skipped,NA,230068.5,NA,NA,230061.023,230068.70000005,2023-12-03T21:37:35Z,230077.635,NULL,Abrechnung,uhasibu,s,kusahihisha,mpambano,mashambulizi,NA,sdfdsf,NA,1,NA,NA,NA,NA,NA,NA,NA,NA,NA,NA,NA,NA,NA,NA,NA,NA,NA,NA,NA
c41d3,shallow,flow.Sequence,3_0_1_0_3_1,NA,NA,completion,12242.335,217805.5,217802.067,217818.688,230061.023,230069.0999999,2023-12-03T21:37:35Z,230077.635,NULL,Abrechnung,uhasibu,s,kusahihisha,mpambano,mashambulizi,NA,sdfdsf,NA,1,NA,NA,NA,NA,NA,NA,NA,NA,NA,NA,NA,NA,NA,NA,NA,NA,NA,NA,NA
c41d3,task,flow.Sequence,3_0_1_0_3,NA,NA,completion,12242.335,217805.39999986,217802.067,217818.688,230061.023,230069.29999995,2023-12-03T21:37:35Z,230077.635,NULL,Abrechnung,uhasibu,s,kusahihisha,mpambano,mashambulizi,NA,sdfdsf,NA,1,NA,NA,NA,NA,NA,NA,NA,NA,NA,NA,NA,NA,NA,NA,NA,NA,NA,NA,NA
c41d3,Deep Question,html.Page,3_0_1_0_4_0_0,NA,NA,form submission,7184.9649999046,230069.5999999,230061.023,230077.635,237262.5999999,237262.89999986,2023-12-03T21:37:42Z,237273.387,NULL,Sänger,mwimbaji,d,NA,NA,NA,dff,NA,NA,1,NA,NA,NA,NA,NA,NA,NA,NA,NA,NA,NA,NA,NA,NA,NA,NA,NA,NA,NA
c41d3,"""Richtig""-Screen",canvas.Screen,3_0_1_0_4_0_1,NA,NA,skipped,NA,237265.89999986,NA,NA,237262.5999999,237266.0999999,2023-12-03T21:37:42Z,237273.387,NULL,Sänger,mwimbaji,d,NA,NA,NA,NA,sdfdsf,NA,1,NA,NA,NA,NA,NA,NA,NA,NA,NA,NA,NA,NA,NA,NA,NA,NA,NA,NA,NA
c41d3,"""Falsch""-Screen",canvas.Screen,3_0_1_0_4_0_2,NA,NA,timeout,4997.132,237266.79999995,237257.066,237273.387,242253.854,242254.70000005,2023-12-03T21:37:47Z,242270.519,NULL,Sänger,mwimbaji,d,NA,NA,NA,NA,sdfdsf,0,1,NA,NA,NA,NA,NA,NA,NA,NA,NA,NA,NA,NA,NA,NA,NA,NA,NA,NA,NA
c41d3,deep,flow.Sequence,3_0_1_0_4_0,NA,NA,completion,12176.219,230069.5,230061.023,230077.635,242253.854,242255.20000005,2023-12-03T21:37:47Z,242270.519,NULL,Sänger,mwimbaji,d,NA,NA,NA,NA,sdfdsf,NA,1,NA,NA,NA,NA,NA,NA,NA,NA,NA,NA,NA,NA,NA,NA,NA,NA,NA,NA,NA
c41d3,shallow,flow.Sequence,3_0_1_0_4_1,NA,NA,skipped,NA,242255.29999995,NA,NA,242253.854,242257.29999995,2023-12-03T21:37:47Z,242270.519,NULL,Sänger,mwimbaji,d,NA,NA,NA,NA,sdfdsf,NA,1,NA,NA,NA,NA,NA,NA,NA,NA,NA,NA,NA,NA,NA,NA,NA,NA,NA,NA,NA
c41d3,task,flow.Sequence,3_0_1_0_4,NA,NA,completion,12176.219,230069.39999986,230061.023,230077.635,242253.854,242257.5,2023-12-03T21:37:47Z,242270.519,NULL,Sänger,mwimbaji,d,NA,NA,NA,NA,sdfdsf,NA,1,NA,NA,NA,NA,NA,NA,NA,NA,NA,NA,NA,NA,NA,NA,NA,NA,NA,NA,NA
c41d3,deep,flow.Sequence,3_0_1_0_5_0,NA,NA,skipped,NA,242257.79999995,NA,NA,242253.854,242257.89999986,2023-12-03T21:37:47Z,242270.519,NULL,Kanzler,diwani,s,rasilmali,mahitaji,maabudu,NA,sdfdsf,NA,1,NA,NA,NA,NA,NA,NA,NA,NA,NA,NA,NA,NA,NA,NA,NA,NA,NA,NA,NA
c41d3,Shallow Question,html.Page,3_0_1_0_5_1_0,NA,NA,form submission,4015.6810000477,242258,242253.854,242270.519,246286.20000005,246286.39999986,2023-12-03T21:37:51Z,246301.004,NULL,Kanzler,diwani,s,rasilmali,mahitaji,maabudu,diwani,NA,NA,1,NA,NA,NA,NA,NA,NA,NA,NA,NA,NA,NA,NA,NA,NA,NA,NA,NA,NA,NA
c41d3,"""Richtig""-Screen",canvas.Screen,3_0_1_0_5_1_1,NA,NA,timeout,4997.432,246289.5999999,246284.363,246301.004,251281.517,251282.39999986,2023-12-03T21:37:56Z,251298.436,NULL,Kanzler,diwani,s,rasilmali,mahitaji,maabudu,NA,sdfdsf,1,1,NA,NA,NA,NA,NA,NA,NA,NA,NA,NA,NA,NA,NA,NA,NA,NA,NA,NA,NA
c41d3,"""Falsch""-Screen",canvas.Screen,3_0_1_0_5_1_2,NA,NA,skipped,NA,251287.29999995,NA,NA,251281.517,251287.5999999,2023-12-03T21:37:56Z,251298.436,NULL,Kanzler,diwani,s,rasilmali,mahitaji,maabudu,NA,sdfdsf,NA,1,NA,NA,NA,NA,NA,NA,NA,NA,NA,NA,NA,NA,NA,NA,NA,NA,NA,NA,NA
c41d3,shallow,flow.Sequence,3_0_1_0_5_1,NA,NA,completion,9010.998,242258,242253.854,242270.519,251281.517,251287.70000005,2023-12-03T21:37:56Z,251298.436,NULL,Kanzler,diwani,s,rasilmali,mahitaji,maabudu,NA,sdfdsf,NA,1,NA,NA,NA,NA,NA,NA,NA,NA,NA,NA,NA,NA,NA,NA,NA,NA,NA,NA,NA
c41d3,task,flow.Sequence,3_0_1_0_5,NA,NA,completion,9010.998,242257.70000005,242253.854,242270.519,251281.517,251287.79999995,2023-12-03T21:37:56Z,251298.436,NULL,Kanzler,diwani,s,rasilmali,mahitaji,maabudu,NA,sdfdsf,NA,1,NA,NA,NA,NA,NA,NA,NA,NA,NA,NA,NA,NA,NA,NA,NA,NA,NA,NA,NA
c41d3,Deep Question,html.Page,3_0_1_0_6_0_0,NA,NA,form submission,10640.363999952,251287.89999986,251281.517,251298.436,261938.79999995,261939,2023-12-03T21:38:07Z,261941.445,NULL,Erneuerung,ukarabati,d,NA,NA,NA,salami,NA,NA,1,NA,NA,NA,NA,NA,NA,NA,NA,NA,NA,NA,NA,NA,NA,NA,NA,NA,NA,NA
c41d3,"""Richtig""-Screen",canvas.Screen,3_0_1_0_6_0_1,NA,NA,skipped,NA,261942.39999986,NA,NA,261938.79999995,261942.5999999,2023-12-03T21:38:07Z,261941.445,NULL,Erneuerung,ukarabati,d,NA,NA,NA,NA,sdfdsf,NA,1,NA,NA,NA,NA,NA,NA,NA,NA,NA,NA,NA,NA,NA,NA,NA,NA,NA,NA,NA
c41d3,"""Falsch""-Screen",canvas.Screen,3_0_1_0_6_0_2,NA,NA,timeout,4997.334,261943.5999999,261924.723,261941.445,266921.982,266923,2023-12-03T21:38:12Z,266938.779,NULL,Erneuerung,ukarabati,d,NA,NA,NA,NA,sdfdsf,0,1,NA,NA,NA,NA,NA,NA,NA,NA,NA,NA,NA,NA,NA,NA,NA,NA,NA,NA,NA
c41d3,deep,flow.Sequence,3_0_1_0_6_0,NA,NA,completion,15623.546,251287.89999986,251281.517,251298.436,266921.982,266923.29999995,2023-12-03T21:38:12Z,266938.779,NULL,Erneuerung,ukarabati,d,NA,NA,NA,NA,sdfdsf,NA,1,NA,NA,NA,NA,NA,NA,NA,NA,NA,NA,NA,NA,NA,NA,NA,NA,NA,NA,NA
c41d3,shallow,flow.Sequence,3_0_1_0_6_1,NA,NA,skipped,NA,266923.5999999,NA,NA,266921.982,266923.70000005,2023-12-03T21:38:12Z,266938.779,NULL,Erneuerung,ukarabati,d,NA,NA,NA,NA,sdfdsf,NA,1,NA,NA,NA,NA,NA,NA,NA,NA,NA,NA,NA,NA,NA,NA,NA,NA,NA,NA,NA
c41d3,task,flow.Sequence,3_0_1_0_6,NA,NA,completion,15623.546,251287.79999995,251281.517,251298.436,266921.982,266924,2023-12-03T21:38:12Z,266938.779,NULL,Erneuerung,ukarabati,d,NA,NA,NA,NA,sdfdsf,NA,1,NA,NA,NA,NA,NA,NA,NA,NA,NA,NA,NA,NA,NA,NA,NA,NA,NA,NA,NA
c41d3,Deep Question,html.Page,3_0_1_0_7_0_0,NA,NA,form submission,3206.120999857,266924.20000005,266921.982,266938.779,270144.89999986,270145.0999999,2023-12-03T21:38:15Z,270153.07,NULL,Wechsel,ugeuzaji,d,NA,NA,NA,gfg,NA,NA,1,NA,NA,NA,NA,NA,NA,NA,NA,NA,NA,NA,NA,NA,NA,NA,NA,NA,NA,NA
c41d3,"""Richtig""-Screen",canvas.Screen,3_0_1_0_7_0_1,NA,NA,skipped,NA,270148.0999999,NA,NA,270144.89999986,270148.29999995,2023-12-03T21:38:15Z,270153.07,NULL,Wechsel,ugeuzaji,d,NA,NA,NA,NA,sdfdsf,NA,1,NA,NA,NA,NA,NA,NA,NA,NA,NA,NA,NA,NA,NA,NA,NA,NA,NA,NA,NA
c41d3,"""Falsch""-Screen",canvas.Screen,3_0_1_0_7_0_2,NA,NA,timeout,4996.943,270149.20000005,270136.604,270153.07,275133.452,275134.70000005,2023-12-03T21:38:20Z,275150.013,NULL,Wechsel,ugeuzaji,d,NA,NA,NA,NA,sdfdsf,0,1,NA,NA,NA,NA,NA,NA,NA,NA,NA,NA,NA,NA,NA,NA,NA,NA,NA,NA,NA
c41d3,deep,flow.Sequence,3_0_1_0_7_0,NA,NA,completion,8194.673,266924.20000005,266921.982,266938.779,275133.452,275135.20000005,2023-12-03T21:38:20Z,275150.013,NULL,Wechsel,ugeuzaji,d,NA,NA,NA,NA,sdfdsf,NA,1,NA,NA,NA,NA,NA,NA,NA,NA,NA,NA,NA,NA,NA,NA,NA,NA,NA,NA,NA
c41d3,shallow,flow.Sequence,3_0_1_0_7_1,NA,NA,skipped,NA,275135.29999995,NA,NA,275133.452,275135.5,2023-12-03T21:38:20Z,275150.013,NULL,Wechsel,ugeuzaji,d,NA,NA,NA,NA,sdfdsf,NA,1,NA,NA,NA,NA,NA,NA,NA,NA,NA,NA,NA,NA,NA,NA,NA,NA,NA,NA,NA
c41d3,task,flow.Sequence,3_0_1_0_7,NA,NA,completion,8194.673,266924.0999999,266921.982,266938.779,275133.452,275135.79999995,2023-12-03T21:38:20Z,275150.013,NULL,Wechsel,ugeuzaji,d,NA,NA,NA,NA,sdfdsf,NA,1,NA,NA,NA,NA,NA,NA,NA,NA,NA,NA,NA,NA,NA,NA,NA,NA,NA,NA,NA
c41d3,block,flow.Loop,3_0_1_0,NA,NA,completion,104719.387,170418,170397.36,170414.065,275133.452,275136.0999999,2023-12-03T21:38:20Z,275150.013,NULL,NA,NA,NA,NA,NA,NA,NA,sdfdsf,NA,1,NA,NA,NA,NA,NA,NA,NA,NA,NA,NA,NA,NA,NA,NA,NA,NA,NA,NA,NA
c41d3,weiter,canvas.Screen,3_0_1_1,sdf,keypress(Space),response,1188.5869999047,275136.20000005,275133.452,275150.013,276338.5999999,276339.5,2023-12-03T21:38:21Z,276365.95,NULL,NA,NA,NA,NA,NA,NA,NA,sdfdsf,NA,1,NA,NA,NA,NA,NA,NA,NA,NA,NA,NA,NA,NA,NA,NA,NA,NA,NA,NA,NA
c41d3,check continue,flow.Sequence,3_0_1,NA,NA,completion,105924.5349999,170418,170397.36,170414.065,276338.5999999,276339.79999995,2023-12-03T21:38:21Z,276365.95,NULL,NA,NA,NA,NA,NA,NA,NA,sdfdsf,NA,1,NA,NA,NA,NA,NA,NA,NA,NA,NA,NA,NA,NA,NA,NA,NA,NA,NA,NA,NA
c41d3,Deep Question,html.Page,3_0_2_0_0_0_0,NA,NA,form submission,7864.2500000477,276367.20000005,276333.373,276365.95,284230.20000005,284230.39999986,2023-12-03T21:38:29Z,284244.9,NULL,Angreifer,mshambulizi,d,NA,NA,NA,ugeuzaji,NA,NA,2,NA,NA,NA,NA,NA,NA,NA,NA,NA,NA,NA,NA,NA,NA,NA,NA,NA,NA,NA
c41d3,"""Richtig""-Screen",canvas.Screen,3_0_2_0_0_0_1,NA,NA,skipped,NA,284233.79999995,NA,NA,284230.20000005,284234,2023-12-03T21:38:29Z,284244.9,NULL,Angreifer,mshambulizi,d,NA,NA,NA,NA,sdf,NA,2,NA,NA,NA,NA,NA,NA,NA,NA,NA,NA,NA,NA,NA,NA,NA,NA,NA,NA,NA
c41d3,"""Falsch""-Screen",canvas.Screen,3_0_2_0_0_0_2,NA,NA,timeout,4996.65,284234.70000005,284228.139,284244.9,289224.856,289226.20000005,2023-12-03T21:38:34Z,289241.55,NULL,Angreifer,mshambulizi,d,NA,NA,NA,NA,sdf,0,2,NA,NA,NA,NA,NA,NA,NA,NA,NA,NA,NA,NA,NA,NA,NA,NA,NA,NA,NA
c41d3,deep,flow.Sequence,3_0_2_0_0_0,NA,NA,completion,12858.906,276367.20000005,276333.373,276365.95,289224.856,289226.70000005,2023-12-03T21:38:34Z,289241.55,NULL,Angreifer,mshambulizi,d,NA,NA,NA,NA,sdf,NA,2,NA,NA,NA,NA,NA,NA,NA,NA,NA,NA,NA,NA,NA,NA,NA,NA,NA,NA,NA
c41d3,shallow,flow.Sequence,3_0_2_0_0_1,NA,NA,skipped,NA,289226.70000005,NA,NA,289224.856,289226.89999986,2023-12-03T21:38:34Z,289241.55,NULL,Angreifer,mshambulizi,d,NA,NA,NA,NA,sdf,NA,2,NA,NA,NA,NA,NA,NA,NA,NA,NA,NA,NA,NA,NA,NA,NA,NA,NA,NA,NA
c41d3,task,flow.Sequence,3_0_2_0_0,NA,NA,completion,12858.906,276367.20000005,276333.373,276365.95,289224.856,289227.20000005,2023-12-03T21:38:34Z,289241.55,NULL,Angreifer,mshambulizi,d,NA,NA,NA,NA,sdf,NA,2,NA,NA,NA,NA,NA,NA,NA,NA,NA,NA,NA,NA,NA,NA,NA,NA,NA,NA,NA
c41d3,Deep Question,html.Page,3_0_2_0_1_0_0,NA,NA,form submission,6234.2499999523,289227.39999986,289224.856,289241.55,295475.79999995,295476,2023-12-03T21:38:41Z,295504.613,NULL,Wechsel,ugeuzaji,d,NA,NA,NA,ugeuzaji,NA,NA,2,NA,NA,NA,NA,NA,NA,NA,NA,NA,NA,NA,NA,NA,NA,NA,NA,NA,NA,NA
c41d3,"""Richtig""-Screen",canvas.Screen,3_0_2_0_1_0_1,NA,NA,timeout,4996.895,295479.0999999,295487.938,295504.613,300485.118,300485.79999995,2023-12-03T21:38:46Z,300501.508,NULL,Wechsel,ugeuzaji,d,NA,NA,NA,NA,sdf,1,2,NA,NA,NA,NA,NA,NA,NA,NA,NA,NA,NA,NA,NA,NA,NA,NA,NA,NA,NA
c41d3,"""Falsch""-Screen",canvas.Screen,3_0_2_0_1_0_2,NA,NA,skipped,NA,300487.29999995,NA,NA,300485.118,300487.29999995,2023-12-03T21:38:46Z,300501.508,NULL,Wechsel,ugeuzaji,d,NA,NA,NA,NA,sdf,NA,2,NA,NA,NA,NA,NA,NA,NA,NA,NA,NA,NA,NA,NA,NA,NA,NA,NA,NA,NA
c41d3,deep,flow.Sequence,3_0_2_0_1_0,NA,NA,completion,11243.568,289227.29999995,289224.856,289241.55,300485.118,300487.5,2023-12-03T21:38:46Z,300501.508,NULL,Wechsel,ugeuzaji,d,NA,NA,NA,NA,sdf,NA,2,NA,NA,NA,NA,NA,NA,NA,NA,NA,NA,NA,NA,NA,NA,NA,NA,NA,NA,NA
c41d3,shallow,flow.Sequence,3_0_2_0_1_1,NA,NA,skipped,NA,300487.5,NA,NA,300485.118,300487.5999999,2023-12-03T21:38:46Z,300501.508,NULL,Wechsel,ugeuzaji,d,NA,NA,NA,NA,sdf,NA,2,NA,NA,NA,NA,NA,NA,NA,NA,NA,NA,NA,NA,NA,NA,NA,NA,NA,NA,NA
c41d3,task,flow.Sequence,3_0_2_0_1,NA,NA,completion,11243.568,289227.29999995,289224.856,289241.55,300485.118,300487.5999999,2023-12-03T21:38:46Z,300501.508,NULL,Wechsel,ugeuzaji,d,NA,NA,NA,NA,sdf,NA,2,NA,NA,NA,NA,NA,NA,NA,NA,NA,NA,NA,NA,NA,NA,NA,NA,NA,NA,NA
c41d3,Deep Question,html.Page,3_0_2_0_2_0_0,NA,NA,form submission,9945.2919999523,300487.5999999,300485.118,300501.508,310446.79999995,310446.89999986,2023-12-03T21:38:55Z,310461.864,NULL,Erneuerung,ukarabati,d,NA,NA,NA,mshambulizi,NA,NA,2,NA,NA,NA,NA,NA,NA,NA,NA,NA,NA,NA,NA,NA,NA,NA,NA,NA,NA,NA
c41d3,"""Richtig""-Screen",canvas.Screen,3_0_2_0_2_0_1,NA,NA,skipped,NA,310449.70000005,NA,NA,310446.79999995,310449.89999986,2023-12-03T21:38:55Z,310461.864,NULL,Erneuerung,ukarabati,d,NA,NA,NA,NA,sdf,NA,2,NA,NA,NA,NA,NA,NA,NA,NA,NA,NA,NA,NA,NA,NA,NA,NA,NA,NA,NA
c41d3,"""Falsch""-Screen",canvas.Screen,3_0_2_0_2_0_2,NA,NA,timeout,4997.371,310450.79999995,310445.371,310461.864,315442.44,315443.39999986,2023-12-03T21:39:00Z,315459.235,NULL,Erneuerung,ukarabati,d,NA,NA,NA,NA,sdf,0,2,NA,NA,NA,NA,NA,NA,NA,NA,NA,NA,NA,NA,NA,NA,NA,NA,NA,NA,NA
c41d3,deep,flow.Sequence,3_0_2_0_2_0,NA,NA,completion,14940.932,300487.5999999,300485.118,300501.508,315442.44,315443.79999995,2023-12-03T21:39:00Z,315459.235,NULL,Erneuerung,ukarabati,d,NA,NA,NA,NA,sdf,NA,2,NA,NA,NA,NA,NA,NA,NA,NA,NA,NA,NA,NA,NA,NA,NA,NA,NA,NA,NA
c41d3,shallow,flow.Sequence,3_0_2_0_2_1,NA,NA,skipped,NA,315444,NA,NA,315442.44,315444.20000005,2023-12-03T21:39:00Z,315459.235,NULL,Erneuerung,ukarabati,d,NA,NA,NA,NA,sdf,NA,2,NA,NA,NA,NA,NA,NA,NA,NA,NA,NA,NA,NA,NA,NA,NA,NA,NA,NA,NA
c41d3,task,flow.Sequence,3_0_2_0_2,NA,NA,completion,14940.932,300487.5999999,300485.118,300501.508,315442.44,315444.29999995,2023-12-03T21:39:00Z,315459.235,NULL,Erneuerung,ukarabati,d,NA,NA,NA,NA,sdf,NA,2,NA,NA,NA,NA,NA,NA,NA,NA,NA,NA,NA,NA,NA,NA,NA,NA,NA,NA,NA
c41d3,deep,flow.Sequence,3_0_2_0_3_0,NA,NA,skipped,NA,315444.5,NA,NA,315442.44,315444.70000005,2023-12-03T21:39:00Z,315459.235,NULL,Atmosphäre,angahewa,s,kuteseka,usahihi,kutoamini,NA,sdf,NA,2,NA,NA,NA,NA,NA,NA,NA,NA,NA,NA,NA,NA,NA,NA,NA,NA,NA,NA,NA
c41d3,Shallow Question,html.Page,3_0_2_0_3_1_0,NA,NA,form submission,8272.765,315444.79999995,315442.44,315459.235,323732,323732.29999995,2023-12-03T21:39:09Z,323754.082,NULL,Atmosphäre,angahewa,s,kuteseka,usahihi,kutoamini,angahewa,NA,NA,2,NA,NA,NA,NA,NA,NA,NA,NA,NA,NA,NA,NA,NA,NA,NA,NA,NA,NA,NA
c41d3,"""Richtig""-Screen",canvas.Screen,3_0_2_0_3_1_1,NA,NA,timeout,4996.659,323735.70000005,323737.041,323754.082,328734.053,328735.0999999,2023-12-03T21:39:14Z,328750.741,NULL,Atmosphäre,angahewa,s,kuteseka,usahihi,kutoamini,NA,sdf,1,2,NA,NA,NA,NA,NA,NA,NA,NA,NA,NA,NA,NA,NA,NA,NA,NA,NA,NA,NA
c41d3,"""Falsch""-Screen",canvas.Screen,3_0_2_0_3_1_2,NA,NA,skipped,NA,328737.39999986,NA,NA,328734.053,328737.5999999,2023-12-03T21:39:14Z,328750.741,NULL,Atmosphäre,angahewa,s,kuteseka,usahihi,kutoamini,NA,sdf,NA,2,NA,NA,NA,NA,NA,NA,NA,NA,NA,NA,NA,NA,NA,NA,NA,NA,NA,NA,NA
c41d3,shallow,flow.Sequence,3_0_2_0_3_1,NA,NA,completion,13274.818,315444.79999995,315442.44,315459.235,328734.053,328737.70000005,2023-12-03T21:39:14Z,328750.741,NULL,Atmosphäre,angahewa,s,kuteseka,usahihi,kutoamini,NA,sdf,NA,2,NA,NA,NA,NA,NA,NA,NA,NA,NA,NA,NA,NA,NA,NA,NA,NA,NA,NA,NA
c41d3,task,flow.Sequence,3_0_2_0_3,NA,NA,completion,13274.818,315444.5,315442.44,315459.235,328734.053,328737.70000005,2023-12-03T21:39:14Z,328750.741,NULL,Atmosphäre,angahewa,s,kuteseka,usahihi,kutoamini,NA,sdf,NA,2,NA,NA,NA,NA,NA,NA,NA,NA,NA,NA,NA,NA,NA,NA,NA,NA,NA,NA,NA
c41d3,deep,flow.Sequence,3_0_2_0_4_0,NA,NA,skipped,NA,328737.79999995,NA,NA,328734.053,328737.79999995,2023-12-03T21:39:14Z,328750.741,NULL,Kanzler,diwani,s,rasilmali,mahitaji,maabudu,NA,sdf,NA,2,NA,NA,NA,NA,NA,NA,NA,NA,NA,NA,NA,NA,NA,NA,NA,NA,NA,NA,NA
c41d3,Shallow Question,html.Page,3_0_2_0_4_1_0,NA,NA,form submission,3722.658999857,328737.89999986,328734.053,328750.741,332473.39999986,332473.5,2023-12-03T21:39:18Z,332481.866,NULL,Kanzler,diwani,s,rasilmali,mahitaji,maabudu,diwani,NA,NA,2,NA,NA,NA,NA,NA,NA,NA,NA,NA,NA,NA,NA,NA,NA,NA,NA,NA,NA,NA
c41d3,"""Richtig""-Screen",canvas.Screen,3_0_2_0_4_1_1,NA,NA,timeout,4997.212,332474.79999995,332465.458,332481.866,337462.273,337463.5999999,2023-12-03T21:39:23Z,337479.078,NULL,Kanzler,diwani,s,rasilmali,mahitaji,maabudu,NA,sdf,1,2,NA,NA,NA,NA,NA,NA,NA,NA,NA,NA,NA,NA,NA,NA,NA,NA,NA,NA,NA
c41d3,"""Falsch""-Screen",canvas.Screen,3_0_2_0_4_1_2,NA,NA,skipped,NA,337468.89999986,NA,NA,337462.273,337469,2023-12-03T21:39:23Z,337479.078,NULL,Kanzler,diwani,s,rasilmali,mahitaji,maabudu,NA,sdf,NA,2,NA,NA,NA,NA,NA,NA,NA,NA,NA,NA,NA,NA,NA,NA,NA,NA,NA,NA,NA
c41d3,shallow,flow.Sequence,3_0_2_0_4_1,NA,NA,completion,8711.532,328737.79999995,328734.053,328750.741,337462.273,337469.0999999,2023-12-03T21:39:23Z,337479.078,NULL,Kanzler,diwani,s,rasilmali,mahitaji,maabudu,NA,sdf,NA,2,NA,NA,NA,NA,NA,NA,NA,NA,NA,NA,NA,NA,NA,NA,NA,NA,NA,NA,NA
c41d3,task,flow.Sequence,3_0_2_0_4,NA,NA,completion,8711.532,328737.79999995,328734.053,328750.741,337462.273,337469.20000005,2023-12-03T21:39:23Z,337479.078,NULL,Kanzler,diwani,s,rasilmali,mahitaji,maabudu,NA,sdf,NA,2,NA,NA,NA,NA,NA,NA,NA,NA,NA,NA,NA,NA,NA,NA,NA,NA,NA,NA,NA
c41d3,deep,flow.Sequence,3_0_2_0_5_0,NA,NA,skipped,NA,337469.29999995,NA,NA,337462.273,337469.29999995,2023-12-03T21:39:23Z,337479.078,NULL,Abrechnung,uhasibu,s,kusahihisha,mpambano,mashambulizi,NA,sdf,NA,2,NA,NA,NA,NA,NA,NA,NA,NA,NA,NA,NA,NA,NA,NA,NA,NA,NA,NA,NA
c41d3,Shallow Question,html.Page,3_0_2_0_5_1_0,NA,NA,form submission,7703.1220000477,337469.29999995,337462.273,337479.078,345182.20000005,345182.5,2023-12-03T21:39:30Z,345190.598,NULL,Abrechnung,uhasibu,s,kusahihisha,mpambano,mashambulizi,uhasibu,NA,NA,2,NA,NA,NA,NA,NA,NA,NA,NA,NA,NA,NA,NA,NA,NA,NA,NA,NA,NA,NA
c41d3,"""Richtig""-Screen",canvas.Screen,3_0_2_0_5_1_1,NA,NA,timeout,4996.927,345185.5999999,345173.951,345190.598,350171.134,350173.20000005,2023-12-03T21:39:35Z,350187.525,NULL,Abrechnung,uhasibu,s,kusahihisha,mpambano,mashambulizi,NA,sdf,1,2,NA,NA,NA,NA,NA,NA,NA,NA,NA,NA,NA,NA,NA,NA,NA,NA,NA,NA,NA
c41d3,"""Falsch""-Screen",canvas.Screen,3_0_2_0_5_1_2,NA,NA,skipped,NA,350178.79999995,NA,NA,350171.134,350179,2023-12-03T21:39:35Z,350187.525,NULL,Abrechnung,uhasibu,s,kusahihisha,mpambano,mashambulizi,NA,sdf,NA,2,NA,NA,NA,NA,NA,NA,NA,NA,NA,NA,NA,NA,NA,NA,NA,NA,NA,NA,NA
c41d3,shallow,flow.Sequence,3_0_2_0_5_1,NA,NA,completion,12692.056,337469.29999995,337462.273,337479.078,350171.134,350179.29999995,2023-12-03T21:39:35Z,350187.525,NULL,Abrechnung,uhasibu,s,kusahihisha,mpambano,mashambulizi,NA,sdf,NA,2,NA,NA,NA,NA,NA,NA,NA,NA,NA,NA,NA,NA,NA,NA,NA,NA,NA,NA,NA
c41d3,task,flow.Sequence,3_0_2_0_5,NA,NA,completion,12692.056,337469.20000005,337462.273,337479.078,350171.134,350179.5999999,2023-12-03T21:39:35Z,350187.525,NULL,Abrechnung,uhasibu,s,kusahihisha,mpambano,mashambulizi,NA,sdf,NA,2,NA,NA,NA,NA,NA,NA,NA,NA,NA,NA,NA,NA,NA,NA,NA,NA,NA,NA,NA
c41d3,Deep Question,html.Page,3_0_2_0_6_0_0,NA,NA,form submission,12933.374999857,350179.89999986,350171.134,350187.525,363120.89999986,363121.0999999,2023-12-03T21:39:48Z,363129.563,NULL,Sänger,mwimbaji,d,NA,NA,NA,mshambulizi,NA,NA,2,NA,NA,NA,NA,NA,NA,NA,NA,NA,NA,NA,NA,NA,NA,NA,NA,NA,NA,NA
c41d3,"""Richtig""-Screen",canvas.Screen,3_0_2_0_6_0_1,NA,NA,skipped,NA,363124.39999986,NA,NA,363120.89999986,363124.5999999,2023-12-03T21:39:48Z,363129.563,NULL,Sänger,mwimbaji,d,NA,NA,NA,NA,sdf,NA,2,NA,NA,NA,NA,NA,NA,NA,NA,NA,NA,NA,NA,NA,NA,NA,NA,NA,NA,NA
c41d3,"""Falsch""-Screen",canvas.Screen,3_0_2_0_6_0_2,NA,NA,timeout,4997.231,363125.29999995,363113.361,363129.563,368110.318,368110.70000005,2023-12-03T21:39:53Z,368126.794,NULL,Sänger,mwimbaji,d,NA,NA,NA,NA,sdf,0,2,NA,NA,NA,NA,NA,NA,NA,NA,NA,NA,NA,NA,NA,NA,NA,NA,NA,NA,NA
c41d3,deep,flow.Sequence,3_0_2_0_6_0,NA,NA,completion,17922.793,350179.79999995,350171.134,350187.525,368110.318,368110.79999995,2023-12-03T21:39:53Z,368126.794,NULL,Sänger,mwimbaji,d,NA,NA,NA,NA,sdf,NA,2,NA,NA,NA,NA,NA,NA,NA,NA,NA,NA,NA,NA,NA,NA,NA,NA,NA,NA,NA
c41d3,shallow,flow.Sequence,3_0_2_0_6_1,NA,NA,skipped,NA,368110.89999986,NA,NA,368110.318,368110.89999986,2023-12-03T21:39:53Z,368126.794,NULL,Sänger,mwimbaji,d,NA,NA,NA,NA,sdf,NA,2,NA,NA,NA,NA,NA,NA,NA,NA,NA,NA,NA,NA,NA,NA,NA,NA,NA,NA,NA
c41d3,task,flow.Sequence,3_0_2_0_6,NA,NA,completion,17922.793,350179.70000005,350171.134,350187.525,368110.318,368111,2023-12-03T21:39:53Z,368126.794,NULL,Sänger,mwimbaji,d,NA,NA,NA,NA,sdf,NA,2,NA,NA,NA,NA,NA,NA,NA,NA,NA,NA,NA,NA,NA,NA,NA,NA,NA,NA,NA
c41d3,deep,flow.Sequence,3_0_2_0_7_0,NA,NA,skipped,NA,368111,NA,NA,368110.318,368111.0999999,2023-12-03T21:39:53Z,368126.794,NULL,Flexibilität,kubadilika,s,enjini,usikilivu,hesabu,NA,sdf,NA,2,NA,NA,NA,NA,NA,NA,NA,NA,NA,NA,NA,NA,NA,NA,NA,NA,NA,NA,NA
c41d3,Shallow Question,html.Page,3_0_2_0_7_1_0,NA,NA,form submission,7742.5059999523,368111.0999999,368110.318,368126.794,375869.29999995,375869.5999999,2023-12-03T21:40:01Z,375888.854,NULL,Flexibilität,kubadilika,s,enjini,usikilivu,hesabu,kubadilika,NA,NA,2,NA,NA,NA,NA,NA,NA,NA,NA,NA,NA,NA,NA,NA,NA,NA,NA,NA,NA,NA
c41d3,"""Richtig""-Screen",canvas.Screen,3_0_2_0_7_1_1,NA,NA,timeout,4996.526,375872.70000005,375871.85,375888.854,380869.092,380870.0999999,2023-12-03T21:40:06Z,380885.38,NULL,Flexibilität,kubadilika,s,enjini,usikilivu,hesabu,NA,sdf,1,2,NA,NA,NA,NA,NA,NA,NA,NA,NA,NA,NA,NA,NA,NA,NA,NA,NA,NA,NA
c41d3,"""Falsch""-Screen",canvas.Screen,3_0_2_0_7_1_2,NA,NA,skipped,NA,380875.39999986,NA,NA,380869.092,380875.39999986,2023-12-03T21:40:06Z,380885.38,NULL,Flexibilität,kubadilika,s,enjini,usikilivu,hesabu,NA,sdf,NA,2,NA,NA,NA,NA,NA,NA,NA,NA,NA,NA,NA,NA,NA,NA,NA,NA,NA,NA,NA
c41d3,shallow,flow.Sequence,3_0_2_0_7_1,NA,NA,completion,12742.298,368111.0999999,368110.318,368126.794,380869.092,380875.5999999,2023-12-03T21:40:06Z,380885.38,NULL,Flexibilität,kubadilika,s,enjini,usikilivu,hesabu,NA,sdf,NA,2,NA,NA,NA,NA,NA,NA,NA,NA,NA,NA,NA,NA,NA,NA,NA,NA,NA,NA,NA
c41d3,task,flow.Sequence,3_0_2_0_7,NA,NA,completion,12742.298,368111,368110.318,368126.794,380869.092,380875.5999999,2023-12-03T21:40:06Z,380885.38,NULL,Flexibilität,kubadilika,s,enjini,usikilivu,hesabu,NA,sdf,NA,2,NA,NA,NA,NA,NA,NA,NA,NA,NA,NA,NA,NA,NA,NA,NA,NA,NA,NA,NA
c41d3,block,flow.Loop,3_0_2_0,NA,NA,completion,104503.142,276367.20000005,276333.373,276365.95,380869.092,380875.70000005,2023-12-03T21:40:06Z,380885.38,NULL,NA,NA,NA,NA,NA,NA,NA,sdf,NA,2,NA,NA,NA,NA,NA,NA,NA,NA,NA,NA,NA,NA,NA,NA,NA,NA,NA,NA,NA
c41d3,weiter,canvas.Screen,3_0_2_1,sdf,keypress(Space),response,1142.5199998569,380875.70000005,380869.092,380885.38,382027.89999986,382028.79999995,2023-12-03T21:40:07Z,382068.029,NULL,NA,NA,NA,NA,NA,NA,NA,sdf,NA,2,NA,NA,NA,NA,NA,NA,NA,NA,NA,NA,NA,NA,NA,NA,NA,NA,NA,NA,NA
c41d3,check continue,flow.Sequence,3_0_2,NA,NA,completion,105661.94999986,276367.0999999,276333.373,276365.95,382027.89999986,382029.0999999,2023-12-03T21:40:07Z,382068.029,NULL,NA,NA,NA,NA,NA,NA,NA,sdf,NA,2,NA,NA,NA,NA,NA,NA,NA,NA,NA,NA,NA,NA,NA,NA,NA,NA,NA,NA,NA
c41d3,deep,flow.Sequence,3_0_3_0_0_0,NA,NA,skipped,NA,382068.0999999,NA,NA,382027.89999986,382068.20000005,2023-12-03T21:40:07Z,382068.029,NULL,Abrechnung,uhasibu,s,kusahihisha,mpambano,mashambulizi,NA,qt,NA,3,NA,NA,NA,NA,NA,NA,NA,NA,NA,NA,NA,NA,NA,NA,NA,NA,NA,NA,NA
c41d3,Shallow Question,html.Page,3_0_3_0_0_1_0,NA,NA,form submission,3594.0709999047,382068.29999995,382017.95,382068.029,385662.0999999,385662.29999995,2023-12-03T21:40:11Z,385682.828,NULL,Abrechnung,uhasibu,s,kusahihisha,mpambano,mashambulizi,uhasibu,NA,NA,3,NA,NA,NA,NA,NA,NA,NA,NA,NA,NA,NA,NA,NA,NA,NA,NA,NA,NA,NA
c41d3,"""Richtig""-Screen",canvas.Screen,3_0_3_0_0_1_1,NA,NA,timeout,4997.217,385663.29999995,385665.921,385682.828,390663.042,390664.29999995,2023-12-03T21:40:16Z,390680.045,NULL,Abrechnung,uhasibu,s,kusahihisha,mpambano,mashambulizi,NA,qt,1,3,NA,NA,NA,NA,NA,NA,NA,NA,NA,NA,NA,NA,NA,NA,NA,NA,NA,NA,NA
c41d3,"""Falsch""-Screen",canvas.Screen,3_0_3_0_0_1_2,NA,NA,skipped,NA,390668.70000005,NA,NA,390663.042,390668.70000005,2023-12-03T21:40:16Z,390680.045,NULL,Abrechnung,uhasibu,s,kusahihisha,mpambano,mashambulizi,NA,qt,NA,3,NA,NA,NA,NA,NA,NA,NA,NA,NA,NA,NA,NA,NA,NA,NA,NA,NA,NA,NA
c41d3,shallow,flow.Sequence,3_0_3_0_0_1,NA,NA,completion,8595.013,382068.29999995,382017.95,382068.029,390663.042,390668.89999986,2023-12-03T21:40:16Z,390680.045,NULL,Abrechnung,uhasibu,s,kusahihisha,mpambano,mashambulizi,NA,qt,NA,3,NA,NA,NA,NA,NA,NA,NA,NA,NA,NA,NA,NA,NA,NA,NA,NA,NA,NA,NA
c41d3,task,flow.Sequence,3_0_3_0_0,NA,NA,completion,8595.013,382068.0999999,382017.95,382068.029,390663.042,390669,2023-12-03T21:40:16Z,390680.045,NULL,Abrechnung,uhasibu,s,kusahihisha,mpambano,mashambulizi,NA,qt,NA,3,NA,NA,NA,NA,NA,NA,NA,NA,NA,NA,NA,NA,NA,NA,NA,NA,NA,NA,NA
c41d3,deep,flow.Sequence,3_0_3_0_1_0,NA,NA,skipped,NA,390669,NA,NA,390663.042,390669,2023-12-03T21:40:16Z,390680.045,NULL,Atmosphäre,angahewa,s,kuteseka,usahihi,kutoamini,NA,qt,NA,3,NA,NA,NA,NA,NA,NA,NA,NA,NA,NA,NA,NA,NA,NA,NA,NA,NA,NA,NA
c41d3,Shallow Question,html.Page,3_0_3_0_1_1_0,NA,NA,form submission,3709.854999857,390669,390663.042,390680.045,394389.89999986,394390.0999999,2023-12-03T21:40:19Z,394393.843,NULL,Atmosphäre,angahewa,s,kuteseka,usahihi,kutoamini,angahewa,NA,NA,3,NA,NA,NA,NA,NA,NA,NA,NA,NA,NA,NA,NA,NA,NA,NA,NA,NA,NA,NA
c41d3,"""Richtig""-Screen",canvas.Screen,3_0_3_0_1_1_1,NA,NA,timeout,4997.171,394393.20000005,394377.382,394393.843,399374.145,399375.0999999,2023-12-03T21:40:24Z,399391.014,NULL,Atmosphäre,angahewa,s,kuteseka,usahihi,kutoamini,NA,qt,1,3,NA,NA,NA,NA,NA,NA,NA,NA,NA,NA,NA,NA,NA,NA,NA,NA,NA,NA,NA
c41d3,"""Falsch""-Screen",canvas.Screen,3_0_3_0_1_1_2,NA,NA,skipped,NA,399380.20000005,NA,NA,399374.145,399380.5,2023-12-03T21:40:24Z,399391.014,NULL,Atmosphäre,angahewa,s,kuteseka,usahihi,kutoamini,NA,qt,NA,3,NA,NA,NA,NA,NA,NA,NA,NA,NA,NA,NA,NA,NA,NA,NA,NA,NA,NA,NA
c41d3,shallow,flow.Sequence,3_0_3_0_1_1,NA,NA,completion,8694.1,390669,390663.042,390680.045,399374.145,399380.70000005,2023-12-03T21:40:24Z,399391.014,NULL,Atmosphäre,angahewa,s,kuteseka,usahihi,kutoamini,NA,qt,NA,3,NA,NA,NA,NA,NA,NA,NA,NA,NA,NA,NA,NA,NA,NA,NA,NA,NA,NA,NA
c41d3,task,flow.Sequence,3_0_3_0_1,NA,NA,completion,8694.1,390669,390663.042,390680.045,399374.145,399381,2023-12-03T21:40:24Z,399391.014,NULL,Atmosphäre,angahewa,s,kuteseka,usahihi,kutoamini,NA,qt,NA,3,NA,NA,NA,NA,NA,NA,NA,NA,NA,NA,NA,NA,NA,NA,NA,NA,NA,NA,NA
c41d3,Deep Question,html.Page,3_0_3_0_2_0_0,NA,NA,form submission,20221.186000048,399381.20000005,399374.145,399391.014,419612.20000005,419612.39999986,2023-12-03T21:40:45Z,419629.483,NULL,Erneuerung,ukarabati,d,NA,NA,NA,mshambulizi,NA,NA,3,NA,NA,NA,NA,NA,NA,NA,NA,NA,NA,NA,NA,NA,NA,NA,NA,NA,NA,NA
c41d3,"""Richtig""-Screen",canvas.Screen,3_0_3_0_2_0_1,NA,NA,skipped,NA,419615.5999999,NA,NA,419612.20000005,419615.70000005,2023-12-03T21:40:45Z,419629.483,NULL,Erneuerung,ukarabati,d,NA,NA,NA,NA,qt,NA,3,NA,NA,NA,NA,NA,NA,NA,NA,NA,NA,NA,NA,NA,NA,NA,NA,NA,NA,NA
c41d3,"""Falsch""-Screen",canvas.Screen,3_0_3_0_2_0_2,NA,NA,timeout,4996.257,419616.70000005,419595.665,419629.483,424608.763,424609.79999995,2023-12-03T21:40:50Z,424625.74,NULL,Erneuerung,ukarabati,d,NA,NA,NA,NA,qt,0,3,NA,NA,NA,NA,NA,NA,NA,NA,NA,NA,NA,NA,NA,NA,NA,NA,NA,NA,NA
c41d3,deep,flow.Sequence,3_0_3_0_2_0,NA,NA,completion,25217.749,399381.0999999,399374.145,399391.014,424608.763,424610.20000005,2023-12-03T21:40:50Z,424625.74,NULL,Erneuerung,ukarabati,d,NA,NA,NA,NA,qt,NA,3,NA,NA,NA,NA,NA,NA,NA,NA,NA,NA,NA,NA,NA,NA,NA,NA,NA,NA,NA
c41d3,shallow,flow.Sequence,3_0_3_0_2_1,NA,NA,skipped,NA,424610.39999986,NA,NA,424608.763,424610.5,2023-12-03T21:40:50Z,424625.74,NULL,Erneuerung,ukarabati,d,NA,NA,NA,NA,qt,NA,3,NA,NA,NA,NA,NA,NA,NA,NA,NA,NA,NA,NA,NA,NA,NA,NA,NA,NA,NA
c41d3,task,flow.Sequence,3_0_3_0_2,NA,NA,completion,25217.749,399381.0999999,399374.145,399391.014,424608.763,424610.79999995,2023-12-03T21:40:50Z,424625.74,NULL,Erneuerung,ukarabati,d,NA,NA,NA,NA,qt,NA,3,NA,NA,NA,NA,NA,NA,NA,NA,NA,NA,NA,NA,NA,NA,NA,NA,NA,NA,NA
c41d3,deep,flow.Sequence,3_0_3_0_3_0,NA,NA,skipped,NA,424610.89999986,NA,NA,424608.763,424611.0999999,2023-12-03T21:40:50Z,424625.74,NULL,Kanzler,diwani,s,rasilmali,mahitaji,maabudu,NA,qt,NA,3,NA,NA,NA,NA,NA,NA,NA,NA,NA,NA,NA,NA,NA,NA,NA,NA,NA,NA,NA
c41d3,Shallow Question,html.Page,3_0_3_0_3_1_0,NA,NA,form submission,3087.9600000477,424611.29999995,424608.763,424625.74,427713.70000005,427714,2023-12-03T21:40:53Z,427723.69,NULL,Kanzler,diwani,s,rasilmali,mahitaji,maabudu,diwani,NA,NA,3,NA,NA,NA,NA,NA,NA,NA,NA,NA,NA,NA,NA,NA,NA,NA,NA,NA,NA,NA
c41d3,"""Richtig""-Screen",canvas.Screen,3_0_3_0_3_1_1,NA,NA,timeout,4996.791,427717,427707.066,427723.69,432703.825,432705.29999995,2023-12-03T21:40:58Z,432720.481,NULL,Kanzler,diwani,s,rasilmali,mahitaji,maabudu,NA,qt,1,3,NA,NA,NA,NA,NA,NA,NA,NA,NA,NA,NA,NA,NA,NA,NA,NA,NA,NA,NA
c41d3,"""Falsch""-Screen",canvas.Screen,3_0_3_0_3_1_2,NA,NA,skipped,NA,432710.79999995,NA,NA,432703.825,432711.20000005,2023-12-03T21:40:58Z,432720.481,NULL,Kanzler,diwani,s,rasilmali,mahitaji,maabudu,NA,qt,NA,3,NA,NA,NA,NA,NA,NA,NA,NA,NA,NA,NA,NA,NA,NA,NA,NA,NA,NA,NA
c41d3,shallow,flow.Sequence,3_0_3_0_3_1,NA,NA,completion,8078.085,424611.20000005,424608.763,424625.74,432703.825,432711.5999999,2023-12-03T21:40:58Z,432720.481,NULL,Kanzler,diwani,s,rasilmali,mahitaji,maabudu,NA,qt,NA,3,NA,NA,NA,NA,NA,NA,NA,NA,NA,NA,NA,NA,NA,NA,NA,NA,NA,NA,NA
c41d3,task,flow.Sequence,3_0_3_0_3,NA,NA,completion,8078.085,424610.89999986,424608.763,424625.74,432703.825,432711.79999995,2023-12-03T21:40:58Z,432720.481,NULL,Kanzler,diwani,s,rasilmali,mahitaji,maabudu,NA,qt,NA,3,NA,NA,NA,NA,NA,NA,NA,NA,NA,NA,NA,NA,NA,NA,NA,NA,NA,NA,NA
c41d3,Deep Question,html.Page,3_0_3_0_4_0_0,NA,NA,form submission,21665.519,432712.0999999,432703.825,432720.481,454386,454386.29999995,2023-12-03T21:41:19Z,454390.485,NULL,Wechsel,ugeuzaji,d,NA,NA,NA,mshambulizi,NA,NA,3,NA,NA,NA,NA,NA,NA,NA,NA,NA,NA,NA,NA,NA,NA,NA,NA,NA,NA,NA
c41d3,"""Richtig""-Screen",canvas.Screen,3_0_3_0_4_0_1,NA,NA,skipped,NA,454389.29999995,NA,NA,454386,454389.5,2023-12-03T21:41:19Z,454390.485,NULL,Wechsel,ugeuzaji,d,NA,NA,NA,NA,qt,NA,3,NA,NA,NA,NA,NA,NA,NA,NA,NA,NA,NA,NA,NA,NA,NA,NA,NA,NA,NA
c41d3,"""Falsch""-Screen",canvas.Screen,3_0_3_0_4_0_2,NA,NA,timeout,4997.328,454390.29999995,454374.219,454390.485,459370.794,459372.39999986,2023-12-03T21:41:24Z,459387.813,NULL,Wechsel,ugeuzaji,d,NA,NA,NA,NA,qt,0,3,NA,NA,NA,NA,NA,NA,NA,NA,NA,NA,NA,NA,NA,NA,NA,NA,NA,NA,NA
c41d3,deep,flow.Sequence,3_0_3_0_4_0,NA,NA,completion,26650.313,432711.89999986,432703.825,432720.481,459370.794,459372.5999999,2023-12-03T21:41:24Z,459387.813,NULL,Wechsel,ugeuzaji,d,NA,NA,NA,NA,qt,NA,3,NA,NA,NA,NA,NA,NA,NA,NA,NA,NA,NA,NA,NA,NA,NA,NA,NA,NA,NA
c41d3,shallow,flow.Sequence,3_0_3_0_4_1,NA,NA,skipped,NA,459372.5999999,NA,NA,459370.794,459372.5999999,2023-12-03T21:41:24Z,459387.813,NULL,Wechsel,ugeuzaji,d,NA,NA,NA,NA,qt,NA,3,NA,NA,NA,NA,NA,NA,NA,NA,NA,NA,NA,NA,NA,NA,NA,NA,NA,NA,NA
c41d3,task,flow.Sequence,3_0_3_0_4,NA,NA,completion,26650.313,432711.89999986,432703.825,432720.481,459370.794,459372.70000005,2023-12-03T21:41:24Z,459387.813,NULL,Wechsel,ugeuzaji,d,NA,NA,NA,NA,qt,NA,3,NA,NA,NA,NA,NA,NA,NA,NA,NA,NA,NA,NA,NA,NA,NA,NA,NA,NA,NA
c41d3,Deep Question,html.Page,3_0_3_0_5_0_0,NA,NA,form submission,7844.5869998569,459372.70000005,459370.794,459387.813,467232.39999986,467232.70000005,2023-12-03T21:41:32Z,467250.529,NULL,Angreifer,mshambulizi,d,NA,NA,NA,mashambulizi,NA,NA,3,NA,NA,NA,NA,NA,NA,NA,NA,NA,NA,NA,NA,NA,NA,NA,NA,NA,NA,NA
c41d3,"""Richtig""-Screen",canvas.Screen,3_0_3_0_5_0_1,NA,NA,skipped,NA,467236.0999999,NA,NA,467232.39999986,467236.20000005,2023-12-03T21:41:32Z,467250.529,NULL,Angreifer,mshambulizi,d,NA,NA,NA,NA,qt,NA,3,NA,NA,NA,NA,NA,NA,NA,NA,NA,NA,NA,NA,NA,NA,NA,NA,NA,NA,NA
c41d3,"""Falsch""-Screen",canvas.Screen,3_0_3_0_5_0_2,NA,NA,timeout,4995.814,467236.79999995,467216.464,467250.529,472230.156,472230.79999995,2023-12-03T21:41:37Z,472246.343,NULL,Angreifer,mshambulizi,d,NA,NA,NA,NA,qt,0,3,NA,NA,NA,NA,NA,NA,NA,NA,NA,NA,NA,NA,NA,NA,NA,NA,NA,NA,NA
c41d3,deep,flow.Sequence,3_0_3_0_5_0,NA,NA,completion,12842.343,459372.70000005,459370.794,459387.813,472230.156,472231,2023-12-03T21:41:37Z,472246.343,NULL,Angreifer,mshambulizi,d,NA,NA,NA,NA,qt,NA,3,NA,NA,NA,NA,NA,NA,NA,NA,NA,NA,NA,NA,NA,NA,NA,NA,NA,NA,NA
c41d3,shallow,flow.Sequence,3_0_3_0_5_1,NA,NA,skipped,NA,472231,NA,NA,472230.156,472231.0999999,2023-12-03T21:41:37Z,472246.343,NULL,Angreifer,mshambulizi,d,NA,NA,NA,NA,qt,NA,3,NA,NA,NA,NA,NA,NA,NA,NA,NA,NA,NA,NA,NA,NA,NA,NA,NA,NA,NA
c41d3,task,flow.Sequence,3_0_3_0_5,NA,NA,completion,12842.343,459372.70000005,459370.794,459387.813,472230.156,472231.20000005,2023-12-03T21:41:37Z,472246.343,NULL,Angreifer,mshambulizi,d,NA,NA,NA,NA,qt,NA,3,NA,NA,NA,NA,NA,NA,NA,NA,NA,NA,NA,NA,NA,NA,NA,NA,NA,NA,NA
c41d3,Deep Question,html.Page,3_0_3_0_6_0_0,NA,NA,form submission,10370.357000048,472231.20000005,472230.156,472246.343,482616.70000005,482617,2023-12-03T21:41:48Z,482623.43,NULL,Sänger,mwimbaji,d,NA,NA,NA,mkarabati,NA,NA,3,NA,NA,NA,NA,NA,NA,NA,NA,NA,NA,NA,NA,NA,NA,NA,NA,NA,NA,NA
c41d3,"""Richtig""-Screen",canvas.Screen,3_0_3_0_6_0_1,NA,NA,skipped,NA,482618.39999986,NA,NA,482616.70000005,482618.5,2023-12-03T21:41:48Z,482623.43,NULL,Sänger,mwimbaji,d,NA,NA,NA,NA,qt,NA,3,NA,NA,NA,NA,NA,NA,NA,NA,NA,NA,NA,NA,NA,NA,NA,NA,NA,NA,NA
c41d3,"""Falsch""-Screen",canvas.Screen,3_0_3_0_6_0_2,NA,NA,timeout,4996.861,482618.89999986,482607.06,482623.43,487604.023,487605.29999995,2023-12-03T21:41:53Z,487620.291,NULL,Sänger,mwimbaji,d,NA,NA,NA,NA,qt,0,3,NA,NA,NA,NA,NA,NA,NA,NA,NA,NA,NA,NA,NA,NA,NA,NA,NA,NA,NA
c41d3,deep,flow.Sequence,3_0_3_0_6_0,NA,NA,completion,15357.68,472231.20000005,472230.156,472246.343,487604.023,487605.79999995,2023-12-03T21:41:53Z,487620.291,NULL,Sänger,mwimbaji,d,NA,NA,NA,NA,qt,NA,3,NA,NA,NA,NA,NA,NA,NA,NA,NA,NA,NA,NA,NA,NA,NA,NA,NA,NA,NA
c41d3,shallow,flow.Sequence,3_0_3_0_6_1,NA,NA,skipped,NA,487605.89999986,NA,NA,487604.023,487606.0999999,2023-12-03T21:41:53Z,487620.291,NULL,Sänger,mwimbaji,d,NA,NA,NA,NA,qt,NA,3,NA,NA,NA,NA,NA,NA,NA,NA,NA,NA,NA,NA,NA,NA,NA,NA,NA,NA,NA
c41d3,task,flow.Sequence,3_0_3_0_6,NA,NA,completion,15357.68,472231.20000005,472230.156,472246.343,487604.023,487606.29999995,2023-12-03T21:41:53Z,487620.291,NULL,Sänger,mwimbaji,d,NA,NA,NA,NA,qt,NA,3,NA,NA,NA,NA,NA,NA,NA,NA,NA,NA,NA,NA,NA,NA,NA,NA,NA,NA,NA
c41d3,deep,flow.Sequence,3_0_3_0_7_0,NA,NA,skipped,NA,487606.5,NA,NA,487604.023,487606.5999999,2023-12-03T21:41:53Z,487620.291,NULL,Flexibilität,kubadilika,s,enjini,usikilivu,hesabu,NA,qt,NA,3,NA,NA,NA,NA,NA,NA,NA,NA,NA,NA,NA,NA,NA,NA,NA,NA,NA,NA,NA
c41d3,Shallow Question,html.Page,3_0_3_0_7_1_0,NA,NA,form submission,8353.209,487606.89999986,487604.023,487620.291,495973.5,495973.5999999,2023-12-03T21:42:01Z,495998.922,NULL,Flexibilität,kubadilika,s,enjini,usikilivu,hesabu,kubadilika,NA,NA,3,NA,NA,NA,NA,NA,NA,NA,NA,NA,NA,NA,NA,NA,NA,NA,NA,NA,NA,NA
c41d3,"""Richtig""-Screen",canvas.Screen,3_0_3_0_7_1_1,NA,NA,timeout,4996.517,495975.0999999,495981.959,495998.922,500979.087,500980.0999999,2023-12-03T21:42:06Z,500995.439,NULL,Flexibilität,kubadilika,s,enjini,usikilivu,hesabu,NA,qt,1,3,NA,NA,NA,NA,NA,NA,NA,NA,NA,NA,NA,NA,NA,NA,NA,NA,NA,NA,NA
c41d3,"""Falsch""-Screen",canvas.Screen,3_0_3_0_7_1_2,NA,NA,skipped,NA,500985.5,NA,NA,500979.087,500985.79999995,2023-12-03T21:42:06Z,500995.439,NULL,Flexibilität,kubadilika,s,enjini,usikilivu,hesabu,NA,qt,NA,3,NA,NA,NA,NA,NA,NA,NA,NA,NA,NA,NA,NA,NA,NA,NA,NA,NA,NA,NA
c41d3,shallow,flow.Sequence,3_0_3_0_7_1,NA,NA,completion,13358.796,487606.79999995,487604.023,487620.291,500979.087,500986.0999999,2023-12-03T21:42:06Z,500995.439,NULL,Flexibilität,kubadilika,s,enjini,usikilivu,hesabu,NA,qt,NA,3,NA,NA,NA,NA,NA,NA,NA,NA,NA,NA,NA,NA,NA,NA,NA,NA,NA,NA,NA
c41d3,task,flow.Sequence,3_0_3_0_7,NA,NA,completion,13358.796,487606.5,487604.023,487620.291,500979.087,500986.39999986,2023-12-03T21:42:06Z,500995.439,NULL,Flexibilität,kubadilika,s,enjini,usikilivu,hesabu,NA,qt,NA,3,NA,NA,NA,NA,NA,NA,NA,NA,NA,NA,NA,NA,NA,NA,NA,NA,NA,NA,NA
c41d3,block,flow.Loop,3_0_3_0,NA,NA,completion,118911.058,382068.0999999,382017.95,382068.029,500979.087,500986.5999999,2023-12-03T21:42:06Z,500995.439,NULL,NA,NA,NA,NA,NA,NA,NA,qt,NA,3,NA,NA,NA,NA,NA,NA,NA,NA,NA,NA,NA,NA,NA,NA,NA,NA,NA,NA,NA
c41d3,weiter,canvas.Screen,3_0_3_1,sdf,keypress(Space),response,927.06099999999,500986.79999995,500979.087,500995.439,501922.5,501923.39999986,2023-12-03T21:42:07Z,501944.792,NULL,NA,NA,NA,NA,NA,NA,NA,qt,NA,3,NA,NA,NA,NA,NA,NA,NA,NA,NA,NA,NA,NA,NA,NA,NA,NA,NA,NA,NA
c41d3,check continue,flow.Sequence,3_0_3,NA,NA,completion,119854.471,382068.0999999,382017.95,382068.029,501922.5,501923.89999986,2023-12-03T21:42:07Z,501944.792,NULL,NA,NA,NA,NA,NA,NA,NA,qt,NA,3,NA,NA,NA,NA,NA,NA,NA,NA,NA,NA,NA,NA,NA,NA,NA,NA,NA,NA,NA
c41d3,deep,flow.Sequence,3_0_4_0_0_0,NA,NA,skipped,NA,501944.39999986,NA,NA,501922.5,501944.5,2023-12-03T21:42:07Z,501944.792,NULL,Abrechnung,uhasibu,s,kusahihisha,mpambano,mashambulizi,NA,sd,NA,4,NA,NA,NA,NA,NA,NA,NA,NA,NA,NA,NA,NA,NA,NA,NA,NA,NA,NA,NA
c41d3,Shallow Question,html.Page,3_0_4_0_0_1_0,NA,NA,form submission,10721.307999905,501944.5999999,501928.137,501944.792,512666.0999999,512666.29999995,2023-12-03T21:42:18Z,512671.495,NULL,Abrechnung,uhasibu,s,kusahihisha,mpambano,mashambulizi,uhasibu,NA,NA,4,NA,NA,NA,NA,NA,NA,NA,NA,NA,NA,NA,NA,NA,NA,NA,NA,NA,NA,NA
c41d3,"""Richtig""-Screen",canvas.Screen,3_0_4_0_0_1_1,NA,NA,timeout,4997.475,512669.70000005,512655.533,512671.495,517652.105,517652.5999999,2023-12-03T21:42:23Z,517668.97,NULL,Abrechnung,uhasibu,s,kusahihisha,mpambano,mashambulizi,NA,sd,1,4,NA,NA,NA,NA,NA,NA,NA,NA,NA,NA,NA,NA,NA,NA,NA,NA,NA,NA,NA
c41d3,"""Falsch""-Screen",canvas.Screen,3_0_4_0_0_1_2,NA,NA,skipped,NA,517655.0999999,NA,NA,517652.105,517655.0999999,2023-12-03T21:42:23Z,517668.97,NULL,Abrechnung,uhasibu,s,kusahihisha,mpambano,mashambulizi,NA,sd,NA,4,NA,NA,NA,NA,NA,NA,NA,NA,NA,NA,NA,NA,NA,NA,NA,NA,NA,NA,NA
c41d3,shallow,flow.Sequence,3_0_4_0_0_1,NA,NA,completion,15707.313,501944.5999999,501928.137,501944.792,517652.105,517655.29999995,2023-12-03T21:42:23Z,517668.97,NULL,Abrechnung,uhasibu,s,kusahihisha,mpambano,mashambulizi,NA,sd,NA,4,NA,NA,NA,NA,NA,NA,NA,NA,NA,NA,NA,NA,NA,NA,NA,NA,NA,NA,NA
c41d3,task,flow.Sequence,3_0_4_0_0,NA,NA,completion,15707.313,501944.39999986,501928.137,501944.792,517652.105,517655.39999986,2023-12-03T21:42:23Z,517668.97,NULL,Abrechnung,uhasibu,s,kusahihisha,mpambano,mashambulizi,NA,sd,NA,4,NA,NA,NA,NA,NA,NA,NA,NA,NA,NA,NA,NA,NA,NA,NA,NA,NA,NA,NA
c41d3,deep,flow.Sequence,3_0_4_0_1_0,NA,NA,skipped,NA,517655.5999999,NA,NA,517652.105,517655.5999999,2023-12-03T21:42:23Z,517668.97,NULL,Kanzler,diwani,s,rasilmali,mahitaji,maabudu,NA,sd,NA,4,NA,NA,NA,NA,NA,NA,NA,NA,NA,NA,NA,NA,NA,NA,NA,NA,NA,NA,NA
c41d3,Shallow Question,html.Page,3_0_4_0_1_1_0,NA,NA,form submission,2189.03,517655.5999999,517652.105,517668.97,519858,519858.20000005,2023-12-03T21:42:25Z,519867.26,NULL,Kanzler,diwani,s,rasilmali,mahitaji,maabudu,diwani,NA,NA,4,NA,NA,NA,NA,NA,NA,NA,NA,NA,NA,NA,NA,NA,NA,NA,NA,NA,NA,NA
c41d3,"""Richtig""-Screen",canvas.Screen,3_0_4_0_1_1_1,NA,NA,timeout,4997.269,519858.79999995,519850.602,519867.26,524847.84,524849.20000005,2023-12-03T21:42:30Z,524864.529,NULL,Kanzler,diwani,s,rasilmali,mahitaji,maabudu,NA,sd,1,4,NA,NA,NA,NA,NA,NA,NA,NA,NA,NA,NA,NA,NA,NA,NA,NA,NA,NA,NA
c41d3,"""Falsch""-Screen",canvas.Screen,3_0_4_0_1_1_2,NA,NA,skipped,NA,524853.89999986,NA,NA,524847.84,524854,2023-12-03T21:42:30Z,524864.529,NULL,Kanzler,diwani,s,rasilmali,mahitaji,maabudu,NA,sd,NA,4,NA,NA,NA,NA,NA,NA,NA,NA,NA,NA,NA,NA,NA,NA,NA,NA,NA,NA,NA
c41d3,shallow,flow.Sequence,3_0_4_0_1_1,NA,NA,completion,7178.87,517655.5999999,517652.105,517668.97,524847.84,524854.0999999,2023-12-03T21:42:30Z,524864.529,NULL,Kanzler,diwani,s,rasilmali,mahitaji,maabudu,NA,sd,NA,4,NA,NA,NA,NA,NA,NA,NA,NA,NA,NA,NA,NA,NA,NA,NA,NA,NA,NA,NA
c41d3,task,flow.Sequence,3_0_4_0_1,NA,NA,completion,7178.87,517655.39999986,517652.105,517668.97,524847.84,524854.20000005,2023-12-03T21:42:30Z,524864.529,NULL,Kanzler,diwani,s,rasilmali,mahitaji,maabudu,NA,sd,NA,4,NA,NA,NA,NA,NA,NA,NA,NA,NA,NA,NA,NA,NA,NA,NA,NA,NA,NA,NA
c41d3,Deep Question,html.Page,3_0_4_0_2_0_0,NA,NA,form submission,9456.7709999523,524854.29999995,524847.84,524864.529,534321.29999995,534321.5,2023-12-03T21:42:39Z,534325.02,NULL,Erneuerung,ukarabati,d,NA,NA,NA,ukarabati,NA,NA,4,NA,NA,NA,NA,NA,NA,NA,NA,NA,NA,NA,NA,NA,NA,NA,NA,NA,NA,NA
c41d3,"""Richtig""-Screen",canvas.Screen,3_0_4_0_2_0_1,NA,NA,timeout,4996.9179999999,534324.70000005,534308.418,534325.02,539305.339,539306.79999995,2023-12-03T21:42:44Z,539321.938,NULL,Erneuerung,ukarabati,d,NA,NA,NA,NA,sd,1,4,NA,NA,NA,NA,NA,NA,NA,NA,NA,NA,NA,NA,NA,NA,NA,NA,NA,NA,NA
c41d3,"""Falsch""-Screen",canvas.Screen,3_0_4_0_2_0_2,NA,NA,skipped,NA,539311.5,NA,NA,539305.339,539311.5999999,2023-12-03T21:42:44Z,539321.938,NULL,Erneuerung,ukarabati,d,NA,NA,NA,NA,sd,NA,4,NA,NA,NA,NA,NA,NA,NA,NA,NA,NA,NA,NA,NA,NA,NA,NA,NA,NA,NA
c41d3,deep,flow.Sequence,3_0_4_0_2_0,NA,NA,completion,14440.81,524854.29999995,524847.84,524864.529,539305.339,539311.70000005,2023-12-03T21:42:44Z,539321.938,NULL,Erneuerung,ukarabati,d,NA,NA,NA,NA,sd,NA,4,NA,NA,NA,NA,NA,NA,NA,NA,NA,NA,NA,NA,NA,NA,NA,NA,NA,NA,NA
c41d3,shallow,flow.Sequence,3_0_4_0_2_1,NA,NA,skipped,NA,539311.79999995,NA,NA,539305.339,539311.79999995,2023-12-03T21:42:44Z,539321.938,NULL,Erneuerung,ukarabati,d,NA,NA,NA,NA,sd,NA,4,NA,NA,NA,NA,NA,NA,NA,NA,NA,NA,NA,NA,NA,NA,NA,NA,NA,NA,NA
c41d3,task,flow.Sequence,3_0_4_0_2,NA,NA,completion,14440.81,524854.20000005,524847.84,524864.529,539305.339,539311.89999986,2023-12-03T21:42:44Z,539321.938,NULL,Erneuerung,ukarabati,d,NA,NA,NA,NA,sd,NA,4,NA,NA,NA,NA,NA,NA,NA,NA,NA,NA,NA,NA,NA,NA,NA,NA,NA,NA,NA
c41d3,deep,flow.Sequence,3_0_4_0_3_0,NA,NA,skipped,NA,539311.89999986,NA,NA,539305.339,539312,2023-12-03T21:42:44Z,539321.938,NULL,Atmosphäre,angahewa,s,kuteseka,usahihi,kutoamini,NA,sd,NA,4,NA,NA,NA,NA,NA,NA,NA,NA,NA,NA,NA,NA,NA,NA,NA,NA,NA,NA,NA
c41d3,Shallow Question,html.Page,3_0_4_0_3_1_0,NA,NA,form submission,3950.2620000477,539312,539305.339,539321.938,543272.20000005,543272.5,2023-12-03T21:42:48Z,543286.177,NULL,Atmosphäre,angahewa,s,kuteseka,usahihi,kutoamini,angahewa,NA,NA,4,NA,NA,NA,NA,NA,NA,NA,NA,NA,NA,NA,NA,NA,NA,NA,NA,NA,NA,NA
c41d3,"""Richtig""-Screen",canvas.Screen,3_0_4_0_3_1_1,NA,NA,timeout,4997.468,543275.70000005,543269.615,543286.177,548266.727,548267.79999995,2023-12-03T21:42:53Z,548283.645,NULL,Atmosphäre,angahewa,s,kuteseka,usahihi,kutoamini,NA,sd,1,4,NA,NA,NA,NA,NA,NA,NA,NA,NA,NA,NA,NA,NA,NA,NA,NA,NA,NA,NA
c41d3,"""Falsch""-Screen",canvas.Screen,3_0_4_0_3_1_2,NA,NA,skipped,NA,548273.0999999,NA,NA,548266.727,548273.29999995,2023-12-03T21:42:53Z,548283.645,NULL,Atmosphäre,angahewa,s,kuteseka,usahihi,kutoamini,NA,sd,NA,4,NA,NA,NA,NA,NA,NA,NA,NA,NA,NA,NA,NA,NA,NA,NA,NA,NA,NA,NA
c41d3,shallow,flow.Sequence,3_0_4_0_3_1,NA,NA,completion,8944.789,539312,539305.339,539321.938,548266.727,548273.39999986,2023-12-03T21:42:53Z,548283.645,NULL,Atmosphäre,angahewa,s,kuteseka,usahihi,kutoamini,NA,sd,NA,4,NA,NA,NA,NA,NA,NA,NA,NA,NA,NA,NA,NA,NA,NA,NA,NA,NA,NA,NA
c41d3,task,flow.Sequence,3_0_4_0_3,NA,NA,completion,8944.789,539311.89999986,539305.339,539321.938,548266.727,548273.39999986,2023-12-03T21:42:53Z,548283.645,NULL,Atmosphäre,angahewa,s,kuteseka,usahihi,kutoamini,NA,sd,NA,4,NA,NA,NA,NA,NA,NA,NA,NA,NA,NA,NA,NA,NA,NA,NA,NA,NA,NA,NA
c41d3,deep,flow.Sequence,3_0_4_0_4_0,NA,NA,skipped,NA,548273.5,NA,NA,548266.727,548273.5999999,2023-12-03T21:42:53Z,548283.645,NULL,Flexibilität,kubadilika,s,enjini,usikilivu,hesabu,NA,sd,NA,4,NA,NA,NA,NA,NA,NA,NA,NA,NA,NA,NA,NA,NA,NA,NA,NA,NA,NA,NA
c41d3,Shallow Question,html.Page,3_0_4_0_4_1_0,NA,NA,form submission,3513.9549999046,548273.5999999,548266.727,548283.645,551797.5999999,551797.89999986,2023-12-03T21:42:57Z,551814.811,NULL,Flexibilität,kubadilika,s,enjini,usikilivu,hesabu,kubadilika,NA,NA,4,NA,NA,NA,NA,NA,NA,NA,NA,NA,NA,NA,NA,NA,NA,NA,NA,NA,NA,NA
c41d3,"""Richtig""-Screen",canvas.Screen,3_0_4_0_4_1_1,NA,NA,timeout,4996.512,551800.89999986,551781.41,551814.811,556795.041,556796,2023-12-03T21:43:02Z,556811.323,NULL,Flexibilität,kubadilika,s,enjini,usikilivu,hesabu,NA,sd,1,4,NA,NA,NA,NA,NA,NA,NA,NA,NA,NA,NA,NA,NA,NA,NA,NA,NA,NA,NA
c41d3,"""Falsch""-Screen",canvas.Screen,3_0_4_0_4_1_2,NA,NA,skipped,NA,556801.39999986,NA,NA,556795.041,556801.70000005,2023-12-03T21:43:02Z,556811.323,NULL,Flexibilität,kubadilika,s,enjini,usikilivu,hesabu,NA,sd,NA,4,NA,NA,NA,NA,NA,NA,NA,NA,NA,NA,NA,NA,NA,NA,NA,NA,NA,NA,NA
c41d3,shallow,flow.Sequence,3_0_4_0_4_1,NA,NA,completion,8511.3959999999,548273.5999999,548266.727,548283.645,556795.041,556802.0999999,2023-12-03T21:43:02Z,556811.323,NULL,Flexibilität,kubadilika,s,enjini,usikilivu,hesabu,NA,sd,NA,4,NA,NA,NA,NA,NA,NA,NA,NA,NA,NA,NA,NA,NA,NA,NA,NA,NA,NA,NA
c41d3,task,flow.Sequence,3_0_4_0_4,NA,NA,completion,8511.3959999999,548273.5,548266.727,548283.645,556795.041,556802.29999995,2023-12-03T21:43:02Z,556811.323,NULL,Flexibilität,kubadilika,s,enjini,usikilivu,hesabu,NA,sd,NA,4,NA,NA,NA,NA,NA,NA,NA,NA,NA,NA,NA,NA,NA,NA,NA,NA,NA,NA,NA
c41d3,Deep Question,html.Page,3_0_4_0_5_0_0,NA,NA,form submission,15916.377000048,556802.5,556795.041,556811.323,572727.70000005,572728,2023-12-03T21:43:18Z,572734.846,NULL,Angreifer,mshambulizi,d,NA,NA,NA,ugeuzaji,NA,NA,4,NA,NA,NA,NA,NA,NA,NA,NA,NA,NA,NA,NA,NA,NA,NA,NA,NA,NA,NA
c41d3,"""Richtig""-Screen",canvas.Screen,3_0_4_0_5_0_1,NA,NA,skipped,NA,572731.0999999,NA,NA,572727.70000005,572731.29999995,2023-12-03T21:43:18Z,572734.846,NULL,Angreifer,mshambulizi,d,NA,NA,NA,NA,sd,NA,4,NA,NA,NA,NA,NA,NA,NA,NA,NA,NA,NA,NA,NA,NA,NA,NA,NA,NA,NA
c41d3,"""Falsch""-Screen",canvas.Screen,3_0_4_0_5_0_2,NA,NA,timeout,4997.081,572732.20000005,572718.644,572734.846,577715.524,577717,2023-12-03T21:43:23Z,577731.927,NULL,Angreifer,mshambulizi,d,NA,NA,NA,NA,sd,0,4,NA,NA,NA,NA,NA,NA,NA,NA,NA,NA,NA,NA,NA,NA,NA,NA,NA,NA,NA
c41d3,deep,flow.Sequence,3_0_4_0_5_0,NA,NA,completion,20904.201,556802.5,556795.041,556811.323,577715.524,577717.5999999,2023-12-03T21:43:23Z,577731.927,NULL,Angreifer,mshambulizi,d,NA,NA,NA,NA,sd,NA,4,NA,NA,NA,NA,NA,NA,NA,NA,NA,NA,NA,NA,NA,NA,NA,NA,NA,NA,NA
c41d3,shallow,flow.Sequence,3_0_4_0_5_1,NA,NA,skipped,NA,577717.70000005,NA,NA,577715.524,577717.89999986,2023-12-03T21:43:23Z,577731.927,NULL,Angreifer,mshambulizi,d,NA,NA,NA,NA,sd,NA,4,NA,NA,NA,NA,NA,NA,NA,NA,NA,NA,NA,NA,NA,NA,NA,NA,NA,NA,NA
c41d3,task,flow.Sequence,3_0_4_0_5,NA,NA,completion,20904.201,556802.39999986,556795.041,556811.323,577715.524,577718.0999999,2023-12-03T21:43:23Z,577731.927,NULL,Angreifer,mshambulizi,d,NA,NA,NA,NA,sd,NA,4,NA,NA,NA,NA,NA,NA,NA,NA,NA,NA,NA,NA,NA,NA,NA,NA,NA,NA,NA
c41d3,Deep Question,html.Page,3_0_4_0_6_0_0,NA,NA,form submission,13345.773000048,577718.39999986,577715.524,577731.927,591077.70000005,591077.89999986,2023-12-03T21:43:36Z,591090.405,NULL,Sänger,mwimbaji,d,NA,NA,NA,miwujawi,NA,NA,4,NA,NA,NA,NA,NA,NA,NA,NA,NA,NA,NA,NA,NA,NA,NA,NA,NA,NA,NA
c41d3,"""Richtig""-Screen",canvas.Screen,3_0_4_0_6_0_1,NA,NA,skipped,NA,591080.70000005,NA,NA,591077.70000005,591080.89999986,2023-12-03T21:43:36Z,591090.405,NULL,Sänger,mwimbaji,d,NA,NA,NA,NA,sd,NA,4,NA,NA,NA,NA,NA,NA,NA,NA,NA,NA,NA,NA,NA,NA,NA,NA,NA,NA,NA
c41d3,"""Falsch""-Screen",canvas.Screen,3_0_4_0_6_0_2,NA,NA,timeout,4996.899,591081.70000005,591073.98,591090.405,596070.716,596072.20000005,2023-12-03T21:43:41Z,596087.304,NULL,Sänger,mwimbaji,d,NA,NA,NA,NA,sd,0,4,NA,NA,NA,NA,NA,NA,NA,NA,NA,NA,NA,NA,NA,NA,NA,NA,NA,NA,NA
c41d3,deep,flow.Sequence,3_0_4_0_6_0,NA,NA,completion,18338.789,577718.29999995,577715.524,577731.927,596070.716,596072.5999999,2023-12-03T21:43:41Z,596087.304,NULL,Sänger,mwimbaji,d,NA,NA,NA,NA,sd,NA,4,NA,NA,NA,NA,NA,NA,NA,NA,NA,NA,NA,NA,NA,NA,NA,NA,NA,NA,NA
c41d3,shallow,flow.Sequence,3_0_4_0_6_1,NA,NA,skipped,NA,596072.70000005,NA,NA,596070.716,596073,2023-12-03T21:43:41Z,596087.304,NULL,Sänger,mwimbaji,d,NA,NA,NA,NA,sd,NA,4,NA,NA,NA,NA,NA,NA,NA,NA,NA,NA,NA,NA,NA,NA,NA,NA,NA,NA,NA
c41d3,task,flow.Sequence,3_0_4_0_6,NA,NA,completion,18338.789,577718.29999995,577715.524,577731.927,596070.716,596073.0999999,2023-12-03T21:43:41Z,596087.304,NULL,Sänger,mwimbaji,d,NA,NA,NA,NA,sd,NA,4,NA,NA,NA,NA,NA,NA,NA,NA,NA,NA,NA,NA,NA,NA,NA,NA,NA,NA,NA
c41d3,Deep Question,html.Page,3_0_4_0_7_0_0,NA,NA,form submission,14538.795999905,596073.39999986,596070.716,596087.304,610626.0999999,610626.39999986,2023-12-03T21:43:56Z,610628.394,NULL,Wechsel,ugeuzaji,d,NA,NA,NA,egeuzaji,NA,NA,4,NA,NA,NA,NA,NA,NA,NA,NA,NA,NA,NA,NA,NA,NA,NA,NA,NA,NA,NA
c41d3,"""Richtig""-Screen",canvas.Screen,3_0_4_0_7_0_1,NA,NA,skipped,NA,610629.39999986,NA,NA,610626.0999999,610629.5999999,2023-12-03T21:43:56Z,610628.394,NULL,Wechsel,ugeuzaji,d,NA,NA,NA,NA,sd,NA,4,NA,NA,NA,NA,NA,NA,NA,NA,NA,NA,NA,NA,NA,NA,NA,NA,NA,NA,NA
c41d3,"""Falsch""-Screen",canvas.Screen,3_0_4_0_7_0_2,NA,NA,timeout,4997.351,610630.0999999,610612.208,610628.394,615609.064,615610.5,2023-12-03T21:44:01Z,615625.745,NULL,Wechsel,ugeuzaji,d,NA,NA,NA,NA,sd,0,4,NA,NA,NA,NA,NA,NA,NA,NA,NA,NA,NA,NA,NA,NA,NA,NA,NA,NA,NA
c41d3,deep,flow.Sequence,3_0_4_0_7_0,NA,NA,completion,19521.76,596073.39999986,596070.716,596087.304,615609.064,615610.79999995,2023-12-03T21:44:01Z,615625.745,NULL,Wechsel,ugeuzaji,d,NA,NA,NA,NA,sd,NA,4,NA,NA,NA,NA,NA,NA,NA,NA,NA,NA,NA,NA,NA,NA,NA,NA,NA,NA,NA
c41d3,shallow,flow.Sequence,3_0_4_0_7_1,NA,NA,skipped,NA,615611,NA,NA,615609.064,615611.20000005,2023-12-03T21:44:01Z,615625.745,NULL,Wechsel,ugeuzaji,d,NA,NA,NA,NA,sd,NA,4,NA,NA,NA,NA,NA,NA,NA,NA,NA,NA,NA,NA,NA,NA,NA,NA,NA,NA,NA
c41d3,task,flow.Sequence,3_0_4_0_7,NA,NA,completion,19521.76,596073.29999995,596070.716,596087.304,615609.064,615611.39999986,2023-12-03T21:44:01Z,615625.745,NULL,Wechsel,ugeuzaji,d,NA,NA,NA,NA,sd,NA,4,NA,NA,NA,NA,NA,NA,NA,NA,NA,NA,NA,NA,NA,NA,NA,NA,NA,NA,NA
c41d3,block,flow.Loop,3_0_4_0,NA,NA,completion,113664.272,501944.39999986,501928.137,501944.792,615609.064,615611.79999995,2023-12-03T21:44:01Z,615625.745,NULL,NA,NA,NA,NA,NA,NA,NA,sd,NA,4,NA,NA,NA,NA,NA,NA,NA,NA,NA,NA,NA,NA,NA,NA,NA,NA,NA,NA,NA
c41d3,weiter,canvas.Screen,3_0_4_1,sdf,keypress(Space),response,1303.9550000477,615611.89999986,615609.064,615625.745,616929.70000005,616930.70000005,2023-12-03T21:44:02Z,616957.838,NULL,NA,NA,NA,NA,NA,NA,NA,sd,NA,4,NA,NA,NA,NA,NA,NA,NA,NA,NA,NA,NA,NA,NA,NA,NA,NA,NA,NA,NA
c41d3,check continue,flow.Sequence,3_0_4,NA,NA,completion,114984.90800005,501944.39999986,501928.137,501944.792,616929.70000005,616931.0999999,2023-12-03T21:44:02Z,616957.838,NULL,NA,NA,NA,NA,NA,NA,NA,sd,NA,4,NA,NA,NA,NA,NA,NA,NA,NA,NA,NA,NA,NA,NA,NA,NA,NA,NA,NA,NA
c41d3,Deep Question,html.Page,3_0_5_0_0_0_0,NA,NA,form submission,7047.162,616972.79999995,616924.342,616957.838,624005,624005.20000005,2023-12-03T21:44:09Z,624020.305,NULL,Wechsel,ugeuzaji,d,NA,NA,NA,ugeuzaji,NA,NA,5,NA,NA,NA,NA,NA,NA,NA,NA,NA,NA,NA,NA,NA,NA,NA,NA,NA,NA,NA
c41d3,"""Richtig""-Screen",canvas.Screen,3_0_5_0_0_0_1,NA,NA,timeout,4996.8239999999,624008.29999995,624003.651,624020.305,629001.018,629001.70000005,2023-12-03T21:44:14Z,629017.129,NULL,Wechsel,ugeuzaji,d,NA,NA,NA,NA,sdf,1,5,NA,NA,NA,NA,NA,NA,NA,NA,NA,NA,NA,NA,NA,NA,NA,NA,NA,NA,NA
c41d3,"""Falsch""-Screen",canvas.Screen,3_0_5_0_0_0_2,NA,NA,skipped,NA,629003.5999999,NA,NA,629001.018,629003.70000005,2023-12-03T21:44:14Z,629017.129,NULL,Wechsel,ugeuzaji,d,NA,NA,NA,NA,sdf,NA,5,NA,NA,NA,NA,NA,NA,NA,NA,NA,NA,NA,NA,NA,NA,NA,NA,NA,NA,NA
c41d3,deep,flow.Sequence,3_0_5_0_0_0,NA,NA,completion,12043.18,616972.79999995,616924.342,616957.838,629001.018,629003.79999995,2023-12-03T21:44:14Z,629017.129,NULL,Wechsel,ugeuzaji,d,NA,NA,NA,NA,sdf,NA,5,NA,NA,NA,NA,NA,NA,NA,NA,NA,NA,NA,NA,NA,NA,NA,NA,NA,NA,NA
c41d3,shallow,flow.Sequence,3_0_5_0_0_1,NA,NA,skipped,NA,629003.89999986,NA,NA,629001.018,629003.89999986,2023-12-03T21:44:14Z,629017.129,NULL,Wechsel,ugeuzaji,d,NA,NA,NA,NA,sdf,NA,5,NA,NA,NA,NA,NA,NA,NA,NA,NA,NA,NA,NA,NA,NA,NA,NA,NA,NA,NA
c41d3,task,flow.Sequence,3_0_5_0_0,NA,NA,completion,12043.18,616972.79999995,616924.342,616957.838,629001.018,629004,2023-12-03T21:44:14Z,629017.129,NULL,Wechsel,ugeuzaji,d,NA,NA,NA,NA,sdf,NA,5,NA,NA,NA,NA,NA,NA,NA,NA,NA,NA,NA,NA,NA,NA,NA,NA,NA,NA,NA
c41d3,Deep Question,html.Page,3_0_5_0_1_0_0,NA,NA,form submission,8298.9709999047,629004.0999999,629001.018,629017.129,637316.0999999,637316.39999986,2023-12-03T21:44:22Z,637328.722,NULL,Sänger,mwimbaji,d,NA,NA,NA,mwimbaji,NA,NA,5,NA,NA,NA,NA,NA,NA,NA,NA,NA,NA,NA,NA,NA,NA,NA,NA,NA,NA,NA
c41d3,"""Richtig""-Screen",canvas.Screen,3_0_5_0_1_0_1,NA,NA,timeout,4996.9970000001,637319.39999986,637312.482,637328.722,642309.112,642310.0999999,2023-12-03T21:44:27Z,642325.719,NULL,Sänger,mwimbaji,d,NA,NA,NA,NA,sdf,1,5,NA,NA,NA,NA,NA,NA,NA,NA,NA,NA,NA,NA,NA,NA,NA,NA,NA,NA,NA
c41d3,"""Falsch""-Screen",canvas.Screen,3_0_5_0_1_0_2,NA,NA,skipped,NA,642315.0999999,NA,NA,642309.112,642315.0999999,2023-12-03T21:44:27Z,642325.719,NULL,Sänger,mwimbaji,d,NA,NA,NA,NA,sdf,NA,5,NA,NA,NA,NA,NA,NA,NA,NA,NA,NA,NA,NA,NA,NA,NA,NA,NA,NA,NA
c41d3,deep,flow.Sequence,3_0_5_0_1_0,NA,NA,completion,13291.983,629004,629001.018,629017.129,642309.112,642315.29999995,2023-12-03T21:44:27Z,642325.719,NULL,Sänger,mwimbaji,d,NA,NA,NA,NA,sdf,NA,5,NA,NA,NA,NA,NA,NA,NA,NA,NA,NA,NA,NA,NA,NA,NA,NA,NA,NA,NA
c41d3,shallow,flow.Sequence,3_0_5_0_1_1,NA,NA,skipped,NA,642315.29999995,NA,NA,642309.112,642315.39999986,2023-12-03T21:44:27Z,642325.719,NULL,Sänger,mwimbaji,d,NA,NA,NA,NA,sdf,NA,5,NA,NA,NA,NA,NA,NA,NA,NA,NA,NA,NA,NA,NA,NA,NA,NA,NA,NA,NA
c41d3,task,flow.Sequence,3_0_5_0_1,NA,NA,completion,13291.983,629004,629001.018,629017.129,642309.112,642315.39999986,2023-12-03T21:44:27Z,642325.719,NULL,Sänger,mwimbaji,d,NA,NA,NA,NA,sdf,NA,5,NA,NA,NA,NA,NA,NA,NA,NA,NA,NA,NA,NA,NA,NA,NA,NA,NA,NA,NA
c41d3,Deep Question,html.Page,3_0_5_0_2_0_0,NA,NA,form submission,7569.5809999523,642315.39999986,642309.112,642325.719,649895.29999995,649895.5,2023-12-03T21:44:35Z,649904.672,NULL,Angreifer,mshambulizi,d,NA,NA,NA,ukarabati,NA,NA,5,NA,NA,NA,NA,NA,NA,NA,NA,NA,NA,NA,NA,NA,NA,NA,NA,NA,NA,NA
c41d3,"""Richtig""-Screen",canvas.Screen,3_0_5_0_2_0_1,NA,NA,skipped,NA,649897.29999995,NA,NA,649895.29999995,649897.39999986,2023-12-03T21:44:35Z,649904.672,NULL,Angreifer,mshambulizi,d,NA,NA,NA,NA,sdf,NA,5,NA,NA,NA,NA,NA,NA,NA,NA,NA,NA,NA,NA,NA,NA,NA,NA,NA,NA,NA
c41d3,"""Falsch""-Screen",canvas.Screen,3_0_5_0_2_0_2,NA,NA,timeout,4996.767,649897.89999986,649887.7,649904.672,654885.079,654886,2023-12-03T21:44:40Z,654901.439,NULL,Angreifer,mshambulizi,d,NA,NA,NA,NA,sdf,0,5,NA,NA,NA,NA,NA,NA,NA,NA,NA,NA,NA,NA,NA,NA,NA,NA,NA,NA,NA
c41d3,deep,flow.Sequence,3_0_5_0_2_0,NA,NA,completion,12559.36,642315.39999986,642309.112,642325.719,654885.079,654886.39999986,2023-12-03T21:44:40Z,654901.439,NULL,Angreifer,mshambulizi,d,NA,NA,NA,NA,sdf,NA,5,NA,NA,NA,NA,NA,NA,NA,NA,NA,NA,NA,NA,NA,NA,NA,NA,NA,NA,NA
c41d3,shallow,flow.Sequence,3_0_5_0_2_1,NA,NA,skipped,NA,654886.5999999,NA,NA,654885.079,654886.79999995,2023-12-03T21:44:40Z,654901.439,NULL,Angreifer,mshambulizi,d,NA,NA,NA,NA,sdf,NA,5,NA,NA,NA,NA,NA,NA,NA,NA,NA,NA,NA,NA,NA,NA,NA,NA,NA,NA,NA
c41d3,task,flow.Sequence,3_0_5_0_2,NA,NA,completion,12559.36,642315.39999986,642309.112,642325.719,654885.079,654887.0999999,2023-12-03T21:44:40Z,654901.439,NULL,Angreifer,mshambulizi,d,NA,NA,NA,NA,sdf,NA,5,NA,NA,NA,NA,NA,NA,NA,NA,NA,NA,NA,NA,NA,NA,NA,NA,NA,NA,NA
c41d3,Deep Question,html.Page,3_0_5_0_3_0_0,NA,NA,form submission,6525.3609999523,654887.20000005,654885.079,654901.439,661426.79999995,661427,2023-12-03T21:44:46Z,661430.621,NULL,Erneuerung,ukarabati,d,NA,NA,NA,ukarabati,NA,NA,5,NA,NA,NA,NA,NA,NA,NA,NA,NA,NA,NA,NA,NA,NA,NA,NA,NA,NA,NA
c41d3,"""Richtig""-Screen",canvas.Screen,3_0_5_0_3_0_1,NA,NA,timeout,4997.0619999999,661428.5,661414.101,661430.621,666410.976,666412.79999995,2023-12-03T21:44:51Z,666427.683,NULL,Erneuerung,ukarabati,d,NA,NA,NA,NA,sdf,1,5,NA,NA,NA,NA,NA,NA,NA,NA,NA,NA,NA,NA,NA,NA,NA,NA,NA,NA,NA
c41d3,"""Falsch""-Screen",canvas.Screen,3_0_5_0_3_0_2,NA,NA,skipped,NA,666418.5,NA,NA,666410.976,666418.70000005,2023-12-03T21:44:51Z,666427.683,NULL,Erneuerung,ukarabati,d,NA,NA,NA,NA,sdf,NA,5,NA,NA,NA,NA,NA,NA,NA,NA,NA,NA,NA,NA,NA,NA,NA,NA,NA,NA,NA
c41d3,deep,flow.Sequence,3_0_5_0_3_0,NA,NA,completion,11509.537,654887.20000005,654885.079,654901.439,666410.976,666419.0999999,2023-12-03T21:44:51Z,666427.683,NULL,Erneuerung,ukarabati,d,NA,NA,NA,NA,sdf,NA,5,NA,NA,NA,NA,NA,NA,NA,NA,NA,NA,NA,NA,NA,NA,NA,NA,NA,NA,NA
c41d3,shallow,flow.Sequence,3_0_5_0_3_1,NA,NA,skipped,NA,666419.20000005,NA,NA,666410.976,666419.29999995,2023-12-03T21:44:51Z,666427.683,NULL,Erneuerung,ukarabati,d,NA,NA,NA,NA,sdf,NA,5,NA,NA,NA,NA,NA,NA,NA,NA,NA,NA,NA,NA,NA,NA,NA,NA,NA,NA,NA
c41d3,task,flow.Sequence,3_0_5_0_3,NA,NA,completion,11509.537,654887.20000005,654885.079,654901.439,666410.976,666419.5999999,2023-12-03T21:44:51Z,666427.683,NULL,Erneuerung,ukarabati,d,NA,NA,NA,NA,sdf,NA,5,NA,NA,NA,NA,NA,NA,NA,NA,NA,NA,NA,NA,NA,NA,NA,NA,NA,NA,NA
c41d3,deep,flow.Sequence,3_0_5_0_4_0,NA,NA,skipped,NA,666419.79999995,NA,NA,666410.976,666420,2023-12-03T21:44:51Z,666427.683,NULL,Kanzler,diwani,s,rasilmali,mahitaji,maabudu,NA,sdf,NA,5,NA,NA,NA,NA,NA,NA,NA,NA,NA,NA,NA,NA,NA,NA,NA,NA,NA,NA,NA
c41d3,Shallow Question,html.Page,3_0_5_0_4_1_0,NA,NA,form submission,2502.1169999524,666420.0999999,666410.976,666427.683,668929.79999995,668930,2023-12-03T21:44:54Z,668943.16,NULL,Kanzler,diwani,s,rasilmali,mahitaji,maabudu,diwani,NA,NA,5,NA,NA,NA,NA,NA,NA,NA,NA,NA,NA,NA,NA,NA,NA,NA,NA,NA,NA,NA
c41d3,"""Richtig""-Screen",canvas.Screen,3_0_5_0_4_1_1,NA,NA,timeout,4996.52,668931.0999999,668926.309,668943.16,673923.45,673923.89999986,2023-12-03T21:44:59Z,673939.68,NULL,Kanzler,diwani,s,rasilmali,mahitaji,maabudu,NA,sdf,1,5,NA,NA,NA,NA,NA,NA,NA,NA,NA,NA,NA,NA,NA,NA,NA,NA,NA,NA,NA
c41d3,"""Falsch""-Screen",canvas.Screen,3_0_5_0_4_1_2,NA,NA,skipped,NA,673925.29999995,NA,NA,673923.45,673925.39999986,2023-12-03T21:44:59Z,673939.68,NULL,Kanzler,diwani,s,rasilmali,mahitaji,maabudu,NA,sdf,NA,5,NA,NA,NA,NA,NA,NA,NA,NA,NA,NA,NA,NA,NA,NA,NA,NA,NA,NA,NA
c41d3,shallow,flow.Sequence,3_0_5_0_4_1,NA,NA,completion,7495.767,666420.0999999,666410.976,666427.683,673923.45,673925.39999986,2023-12-03T21:44:59Z,673939.68,NULL,Kanzler,diwani,s,rasilmali,mahitaji,maabudu,NA,sdf,NA,5,NA,NA,NA,NA,NA,NA,NA,NA,NA,NA,NA,NA,NA,NA,NA,NA,NA,NA,NA
c41d3,task,flow.Sequence,3_0_5_0_4,NA,NA,completion,7495.767,666419.70000005,666410.976,666427.683,673923.45,673925.39999986,2023-12-03T21:44:59Z,673939.68,NULL,Kanzler,diwani,s,rasilmali,mahitaji,maabudu,NA,sdf,NA,5,NA,NA,NA,NA,NA,NA,NA,NA,NA,NA,NA,NA,NA,NA,NA,NA,NA,NA,NA
c41d3,deep,flow.Sequence,3_0_5_0_5_0,NA,NA,skipped,NA,673925.5,NA,NA,673923.45,673925.5,2023-12-03T21:44:59Z,673939.68,NULL,Flexibilität,kubadilika,s,enjini,usikilivu,hesabu,NA,sdf,NA,5,NA,NA,NA,NA,NA,NA,NA,NA,NA,NA,NA,NA,NA,NA,NA,NA,NA,NA,NA
c41d3,Shallow Question,html.Page,3_0_5_0_5_1_0,NA,NA,form submission,3285.8199999999,673925.5999999,673923.45,673939.68,677225.5,677225.70000005,2023-12-03T21:45:02Z,677238.095,NULL,Flexibilität,kubadilika,s,enjini,usikilivu,hesabu,kubadilika,NA,NA,5,NA,NA,NA,NA,NA,NA,NA,NA,NA,NA,NA,NA,NA,NA,NA,NA,NA,NA,NA
c41d3,"""Richtig""-Screen",canvas.Screen,3_0_5_0_5_1_1,NA,NA,timeout,4996.5380000001,677226.20000005,677221.393,677238.095,682218.308,682219.5,2023-12-03T21:45:07Z,682234.633,NULL,Flexibilität,kubadilika,s,enjini,usikilivu,hesabu,NA,sdf,1,5,NA,NA,NA,NA,NA,NA,NA,NA,NA,NA,NA,NA,NA,NA,NA,NA,NA,NA,NA
c41d3,"""Falsch""-Screen",canvas.Screen,3_0_5_0_5_1_2,NA,NA,skipped,NA,682224.89999986,NA,NA,682218.308,682225.20000005,2023-12-03T21:45:07Z,682234.633,NULL,Flexibilität,kubadilika,s,enjini,usikilivu,hesabu,NA,sdf,NA,5,NA,NA,NA,NA,NA,NA,NA,NA,NA,NA,NA,NA,NA,NA,NA,NA,NA,NA,NA
c41d3,shallow,flow.Sequence,3_0_5_0_5_1,NA,NA,completion,8278.6279999999,673925.5,673923.45,673939.68,682218.308,682225.5999999,2023-12-03T21:45:07Z,682234.633,NULL,Flexibilität,kubadilika,s,enjini,usikilivu,hesabu,NA,sdf,NA,5,NA,NA,NA,NA,NA,NA,NA,NA,NA,NA,NA,NA,NA,NA,NA,NA,NA,NA,NA
c41d3,task,flow.Sequence,3_0_5_0_5,NA,NA,completion,8278.6279999999,673925.5,673923.45,673939.68,682218.308,682225.79999995,2023-12-03T21:45:07Z,682234.633,NULL,Flexibilität,kubadilika,s,enjini,usikilivu,hesabu,NA,sdf,NA,5,NA,NA,NA,NA,NA,NA,NA,NA,NA,NA,NA,NA,NA,NA,NA,NA,NA,NA,NA
c41d3,deep,flow.Sequence,3_0_5_0_6_0,NA,NA,skipped,NA,682225.89999986,NA,NA,682218.308,682226.0999999,2023-12-03T21:45:07Z,682234.633,NULL,Abrechnung,uhasibu,s,kusahihisha,mpambano,mashambulizi,NA,sdf,NA,5,NA,NA,NA,NA,NA,NA,NA,NA,NA,NA,NA,NA,NA,NA,NA,NA,NA,NA,NA
c41d3,Shallow Question,html.Page,3_0_5_0_6_1_0,NA,NA,form submission,4580.5670000477,682226.29999995,682218.308,682234.633,686815.20000005,686815.5,2023-12-03T21:45:12Z,686832.199,NULL,Abrechnung,uhasibu,s,kusahihisha,mpambano,mashambulizi,uhasibu,NA,NA,5,NA,NA,NA,NA,NA,NA,NA,NA,NA,NA,NA,NA,NA,NA,NA,NA,NA,NA,NA
c41d3,"""Richtig""-Screen",canvas.Screen,3_0_5_0_6_1_1,NA,NA,timeout,4997.032,686818.5,686815.142,686832.199,691812.129,691813.0999999,2023-12-03T21:45:17Z,691829.231,NULL,Abrechnung,uhasibu,s,kusahihisha,mpambano,mashambulizi,NA,sdf,1,5,NA,NA,NA,NA,NA,NA,NA,NA,NA,NA,NA,NA,NA,NA,NA,NA,NA,NA,NA
c41d3,"""Falsch""-Screen",canvas.Screen,3_0_5_0_6_1_2,NA,NA,skipped,NA,691816.5,NA,NA,691812.129,691816.5999999,2023-12-03T21:45:17Z,691829.231,NULL,Abrechnung,uhasibu,s,kusahihisha,mpambano,mashambulizi,NA,sdf,NA,5,NA,NA,NA,NA,NA,NA,NA,NA,NA,NA,NA,NA,NA,NA,NA,NA,NA,NA,NA
c41d3,shallow,flow.Sequence,3_0_5_0_6_1,NA,NA,completion,9577.4959999999,682226.20000005,682218.308,682234.633,691812.129,691816.70000005,2023-12-03T21:45:17Z,691829.231,NULL,Abrechnung,uhasibu,s,kusahihisha,mpambano,mashambulizi,NA,sdf,NA,5,NA,NA,NA,NA,NA,NA,NA,NA,NA,NA,NA,NA,NA,NA,NA,NA,NA,NA,NA
c41d3,task,flow.Sequence,3_0_5_0_6,NA,NA,completion,9577.4959999999,682225.89999986,682218.308,682234.633,691812.129,691816.79999995,2023-12-03T21:45:17Z,691829.231,NULL,Abrechnung,uhasibu,s,kusahihisha,mpambano,mashambulizi,NA,sdf,NA,5,NA,NA,NA,NA,NA,NA,NA,NA,NA,NA,NA,NA,NA,NA,NA,NA,NA,NA,NA
c41d3,deep,flow.Sequence,3_0_5_0_7_0,NA,NA,skipped,NA,691816.79999995,NA,NA,691812.129,691816.79999995,2023-12-03T21:45:17Z,691829.231,NULL,Atmosphäre,angahewa,s,kuteseka,usahihi,kutoamini,NA,sdf,NA,5,NA,NA,NA,NA,NA,NA,NA,NA,NA,NA,NA,NA,NA,NA,NA,NA,NA,NA,NA
c41d3,Shallow Question,html.Page,3_0_5_0_7_1_0,NA,NA,form submission,3988.5689999523,691816.79999995,691812.129,691829.231,695817.79999995,695818.0999999,2023-12-03T21:45:21Z,695826.387,NULL,Atmosphäre,angahewa,s,kuteseka,usahihi,kutoamini,angahewa,NA,NA,5,NA,NA,NA,NA,NA,NA,NA,NA,NA,NA,NA,NA,NA,NA,NA,NA,NA,NA,NA
c41d3,"""Richtig""-Screen",canvas.Screen,3_0_5_0_7_1_1,NA,NA,timeout,4996.898,695821,695809.709,695826.387,700806.725,700807.79999995,2023-12-03T21:45:26Z,700823.285,NULL,Atmosphäre,angahewa,s,kuteseka,usahihi,kutoamini,NA,sdf,1,5,NA,NA,NA,NA,NA,NA,NA,NA,NA,NA,NA,NA,NA,NA,NA,NA,NA,NA,NA
c41d3,"""Falsch""-Screen",canvas.Screen,3_0_5_0_7_1_2,NA,NA,skipped,NA,700813.29999995,NA,NA,700806.725,700813.5999999,2023-12-03T21:45:26Z,700823.285,NULL,Atmosphäre,angahewa,s,kuteseka,usahihi,kutoamini,NA,sdf,NA,5,NA,NA,NA,NA,NA,NA,NA,NA,NA,NA,NA,NA,NA,NA,NA,NA,NA,NA,NA
c41d3,shallow,flow.Sequence,3_0_5_0_7_1,NA,NA,completion,8977.4939999999,691816.79999995,691812.129,691829.231,700806.725,700813.89999986,2023-12-03T21:45:26Z,700823.285,NULL,Atmosphäre,angahewa,s,kuteseka,usahihi,kutoamini,NA,sdf,NA,5,NA,NA,NA,NA,NA,NA,NA,NA,NA,NA,NA,NA,NA,NA,NA,NA,NA,NA,NA
c41d3,task,flow.Sequence,3_0_5_0_7,NA,NA,completion,8977.4939999999,691816.79999995,691812.129,691829.231,700806.725,700814.20000005,2023-12-03T21:45:26Z,700823.285,NULL,Atmosphäre,angahewa,s,kuteseka,usahihi,kutoamini,NA,sdf,NA,5,NA,NA,NA,NA,NA,NA,NA,NA,NA,NA,NA,NA,NA,NA,NA,NA,NA,NA,NA
c41d3,block,flow.Loop,3_0_5_0,NA,NA,completion,83848.887,616972.79999995,616924.342,616957.838,700806.725,700814.39999986,2023-12-03T21:45:26Z,700823.285,NULL,NA,NA,NA,NA,NA,NA,NA,sdf,NA,5,NA,NA,NA,NA,NA,NA,NA,NA,NA,NA,NA,NA,NA,NA,NA,NA,NA,NA,NA
c41d3,weiter,canvas.Screen,3_0_5_1,sdf,keypress(Space),response,1710.3149999046,700814.5,700806.725,700823.285,702533.5999999,702541,2023-12-03T21:45:28Z,702871.957,NULL,NA,NA,NA,NA,NA,NA,NA,sdf,NA,5,NA,NA,NA,NA,NA,NA,NA,NA,NA,NA,NA,NA,NA,NA,NA,NA,NA,NA,NA
c41d3,check continue,flow.Sequence,3_0_5,NA,NA,completion,85575.761999905,616972.70000005,616924.342,616957.838,702533.5999999,702541.29999995,2023-12-03T21:45:28Z,702871.957,NULL,NA,NA,NA,NA,NA,NA,NA,sdf,NA,5,NA,NA,NA,NA,NA,NA,NA,NA,NA,NA,NA,NA,NA,NA,NA,NA,NA,NA,NA
c41d3,check continue,flow.Sequence,3_0_6,NA,NA,skipped,NA,702558.5999999,NA,NA,702533.5999999,702558.79999995,2023-12-03T21:45:28Z,702871.957,NULL,NA,NA,NA,NA,NA,NA,NA,dfs,NA,6,NA,NA,NA,NA,NA,NA,NA,NA,NA,NA,NA,NA,NA,NA,NA,NA,NA,NA,NA
c41d3,check continue,flow.Sequence,3_0_7,NA,NA,skipped,NA,702575.89999986,NA,NA,702533.5999999,702576,2023-12-03T21:45:28Z,702871.957,NULL,NA,NA,NA,NA,NA,NA,NA,df,NA,7,NA,NA,NA,NA,NA,NA,NA,NA,NA,NA,NA,NA,NA,NA,NA,NA,NA,NA,NA
c41d3,check continue,flow.Sequence,3_0_8,NA,NA,skipped,NA,702592,NA,NA,702533.5999999,702592,2023-12-03T21:45:28Z,702871.957,NULL,NA,NA,NA,NA,NA,NA,NA,dfs,NA,8,NA,NA,NA,NA,NA,NA,NA,NA,NA,NA,NA,NA,NA,NA,NA,NA,NA,NA,NA
c41d3,check continue,flow.Sequence,3_0_9,NA,NA,skipped,NA,702606.79999995,NA,NA,702533.5999999,702606.89999986,2023-12-03T21:45:28Z,702871.957,NULL,NA,NA,NA,NA,NA,NA,NA,dsf,NA,9,NA,NA,NA,NA,NA,NA,NA,NA,NA,NA,NA,NA,NA,NA,NA,NA,NA,NA,NA
c41d3,check continue,flow.Sequence,3_0_10,NA,NA,skipped,NA,702620.39999986,NA,NA,702533.5999999,702620.5,2023-12-03T21:45:28Z,702871.957,NULL,NA,NA,NA,NA,NA,NA,NA,df,NA,10,NA,NA,NA,NA,NA,NA,NA,NA,NA,NA,NA,NA,NA,NA,NA,NA,NA,NA,NA
c41d3,check continue,flow.Sequence,3_0_11,NA,NA,skipped,NA,702634,NA,NA,702533.5999999,702634.0999999,2023-12-03T21:45:28Z,702871.957,NULL,NA,NA,NA,NA,NA,NA,NA,dfs,NA,11,NA,NA,NA,NA,NA,NA,NA,NA,NA,NA,NA,NA,NA,NA,NA,NA,NA,NA,NA
c41d3,check continue,flow.Sequence,3_0_12,NA,NA,skipped,NA,702647.0999999,NA,NA,702533.5999999,702647.20000005,2023-12-03T21:45:28Z,702871.957,NULL,NA,NA,NA,NA,NA,NA,NA,dsf,NA,12,NA,NA,NA,NA,NA,NA,NA,NA,NA,NA,NA,NA,NA,NA,NA,NA,NA,NA,NA
c41d3,check continue,flow.Sequence,3_0_13,NA,NA,skipped,NA,702660.70000005,NA,NA,702533.5999999,702660.79999995,2023-12-03T21:45:28Z,702871.957,NULL,NA,NA,NA,NA,NA,NA,NA,dsf,NA,13,NA,NA,NA,NA,NA,NA,NA,NA,NA,NA,NA,NA,NA,NA,NA,NA,NA,NA,NA
c41d3,check continue,flow.Sequence,3_0_14,NA,NA,skipped,NA,702673.89999986,NA,NA,702533.5999999,702673.89999986,2023-12-03T21:45:28Z,702871.957,NULL,NA,NA,NA,NA,NA,NA,NA,NA,NA,14,NA,NA,NA,NA,NA,NA,NA,NA,NA,NA,NA,NA,NA,NA,NA,NA,NA,NA,NA
c41d3,check continue,flow.Sequence,3_0_15,NA,NA,skipped,NA,702687.39999986,NA,NA,702533.5999999,702687.5,2023-12-03T21:45:28Z,702871.957,NULL,NA,NA,NA,NA,NA,NA,NA,NA,NA,15,NA,NA,NA,NA,NA,NA,NA,NA,NA,NA,NA,NA,NA,NA,NA,NA,NA,NA,NA
c41d3,check continue,flow.Sequence,3_0_16,NA,NA,skipped,NA,702700.5,NA,NA,702533.5999999,702700.5999999,2023-12-03T21:45:28Z,702871.957,NULL,NA,NA,NA,NA,NA,NA,NA,NA,NA,16,NA,NA,NA,NA,NA,NA,NA,NA,NA,NA,NA,NA,NA,NA,NA,NA,NA,NA,NA
c41d3,check continue,flow.Sequence,3_0_17,NA,NA,skipped,NA,702713,NA,NA,702533.5999999,702713.0999999,2023-12-03T21:45:28Z,702871.957,NULL,NA,NA,NA,NA,NA,NA,NA,NA,NA,17,NA,NA,NA,NA,NA,NA,NA,NA,NA,NA,NA,NA,NA,NA,NA,NA,NA,NA,NA
c41d3,check continue,flow.Sequence,3_0_18,NA,NA,skipped,NA,702725.29999995,NA,NA,702533.5999999,702725.39999986,2023-12-03T21:45:28Z,702871.957,NULL,NA,NA,NA,NA,NA,NA,NA,NA,NA,18,NA,NA,NA,NA,NA,NA,NA,NA,NA,NA,NA,NA,NA,NA,NA,NA,NA,NA,NA
c41d3,check continue,flow.Sequence,3_0_19,NA,NA,skipped,NA,702737.5999999,NA,NA,702533.5999999,702737.5999999,2023-12-03T21:45:28Z,702871.957,NULL,NA,NA,NA,NA,NA,NA,NA,NA,NA,19,NA,NA,NA,NA,NA,NA,NA,NA,NA,NA,NA,NA,NA,NA,NA,NA,NA,NA,NA
c41d3,check continue,flow.Sequence,3_0_20,NA,NA,skipped,NA,702749.89999986,NA,NA,702533.5999999,702750,2023-12-03T21:45:28Z,702871.957,NULL,NA,NA,NA,NA,NA,NA,NA,NA,NA,20,NA,NA,NA,NA,NA,NA,NA,NA,NA,NA,NA,NA,NA,NA,NA,NA,NA,NA,NA
