observation,sender,sender_type,sender_id,response,response_action,ended_on,duration,time_run,time_render,time_show,time_end,time_commit,timestamp,time_switch,distractors,german,swahili,enc,distractor1,distractor2,distractor3,response_2,x,correct,x_2,url_vp,url_sess,meta_labjs_version,meta_location,meta_user_agent,meta_platform,meta_language,meta_locale,meta_time_zone,meta_timezone_offset,meta_screen_width,meta_screen_height,meta_scroll_width,meta_scroll_height,meta_window_inner_width,meta_window_inner_height,meta_device_pixel_ratio,meta_labjs_build_flavor,meta_labjs_build_commit
a31fe,Introduction general,canvas.Screen,0,weiter,keypress(q),response,36010.700000012,378,369.19,385.6,36396.300000012,36399.099999964,2024-05-31T18:13:42Z,36413.7,NULL,NA,NA,NA,NA,NA,NA,NA,NA,NA,NA,224,3,20.2.4,https://neurocog.fernuni.ch/studies/vweber/aberisha/encoding_immediate/index.html?vp=224&sess=3,"Mozilla/5.0 (Windows NT 10.0; Win64; x64) AppleWebKit/537.36 (KHTML, like Gecko) Chrome/125.0.0.0 Safari/537.36",Win32,de-DE,de,Europe/Zurich,-120,1536,864,1536,682,1536,730,1.25,production,f5b4a49f956347addd546a832a3327688c2c0fef
a31fe,Introduction practice,canvas.Screen,1_0,NA,keypress(Space),response,7979.1999999762,36399.800000012,36397.752,36413.7,44392.899999976,44393.699999988,2024-05-31T18:13:50Z,44425.9,NULL,NA,NA,NA,NA,NA,NA,NA,NA,NA,NA,NA,NA,NA,NA,NA,NA,NA,NA,NA,NA,NA,NA,NA,NA,NA,NA,NA,NA,NA
a31fe,Deep Question,html.Page,1_1_0_0_0,NA,NA,form submission,6717.1999999642,44394.199999988,44409.1,44425.9,51143.099999964,51143.399999976,2024-05-31T18:13:57Z,51154.7,"c(""distractor1"", ""distractor2"", ""distractor3"")",Qualität,mtindo,d,NA,NA,NA,asdf,NA,NA,NA,NA,NA,NA,NA,NA,NA,NA,NA,NA,NA,NA,NA,NA,NA,NA,NA,NA,NA,NA
a31fe,"""Richtig""-Screen",canvas.Screen,1_1_0_0_1,NA,NA,skipped,NA,51145.199999988,NA,NA,51143.099999964,51145.5,2024-05-31T18:13:57Z,51154.7,"c(""distractor1"", ""distractor2"", ""distractor3"")",Qualität,mtindo,d,NA,NA,NA,NA,NA,NA,NA,NA,NA,NA,NA,NA,NA,NA,NA,NA,NA,NA,NA,NA,NA,NA,NA,NA,NA,NA
a31fe,"""Falsch""-Screen",canvas.Screen,1_1_0_0_2,NA,NA,timeout,4997.1,51147,51138.424,51154.7,56135.2,56136.5,2024-05-31T18:14:02Z,56151.8,"c(""distractor1"", ""distractor2"", ""distractor3"")",Qualität,mtindo,d,NA,NA,NA,NA,NA,0,NA,NA,NA,NA,NA,NA,NA,NA,NA,NA,NA,NA,NA,NA,NA,NA,NA,NA,NA,NA
a31fe,deep,flow.Sequence,1_1_0_0,NA,NA,completion,11709.3,44394.099999964,44409.1,44425.9,56135.2,56137,2024-05-31T18:14:02Z,56151.8,"c(""distractor1"", ""distractor2"", ""distractor3"")",Qualität,mtindo,d,NA,NA,NA,NA,NA,NA,NA,NA,NA,NA,NA,NA,NA,NA,NA,NA,NA,NA,NA,NA,NA,NA,NA,NA,NA,NA
a31fe,shallow,flow.Sequence,1_1_0_1,NA,NA,skipped,NA,56137.199999988,NA,NA,56135.2,56137.399999976,2024-05-31T18:14:02Z,56151.8,"c(""distractor1"", ""distractor2"", ""distractor3"")",Qualität,mtindo,d,NA,NA,NA,NA,NA,NA,NA,NA,NA,NA,NA,NA,NA,NA,NA,NA,NA,NA,NA,NA,NA,NA,NA,NA,NA,NA
a31fe,task,flow.Sequence,1_1_0,NA,NA,completion,11709.3,44394.099999964,44409.1,44425.9,56135.2,56137.699999988,2024-05-31T18:14:02Z,56151.8,"c(""distractor1"", ""distractor2"", ""distractor3"")",Qualität,mtindo,d,NA,NA,NA,NA,NA,NA,NA,NA,NA,NA,NA,NA,NA,NA,NA,NA,NA,NA,NA,NA,NA,NA,NA,NA,NA,NA
a31fe,deep,flow.Sequence,1_1_1_0,NA,NA,skipped,NA,56137.899999976,NA,NA,56135.2,56138,2024-05-31T18:14:02Z,56151.8,"c(""distractor1"", ""distractor2"", ""distractor3"")",Kritik,lawama,s,dereva,nafasi,mawazo,NA,NA,NA,NA,NA,NA,NA,NA,NA,NA,NA,NA,NA,NA,NA,NA,NA,NA,NA,NA,NA,NA,NA
a31fe,Shallow Question,html.Page,1_1_1_1_0,NA,NA,form submission,9863.3999999881,56138.300000012,56135.2,56151.8,66015.199999988,66015.5,2024-05-31T18:14:12Z,66028.9,"c(""distractor1"", ""distractor2"", ""distractor3"")",Kritik,lawama,s,dereva,nafasi,mawazo,mawazo,NA,NA,NA,NA,NA,NA,NA,NA,NA,NA,NA,NA,NA,NA,NA,NA,NA,NA,NA,NA,NA,NA
a31fe,"""Richtig""-Screen",canvas.Screen,1_1_1_1_1,NA,NA,skipped,NA,66018.899999976,NA,NA,66015.199999988,66019.099999964,2024-05-31T18:14:12Z,66028.9,"c(""distractor1"", ""distractor2"", ""distractor3"")",Kritik,lawama,s,dereva,nafasi,mawazo,NA,NA,NA,NA,NA,NA,NA,NA,NA,NA,NA,NA,NA,NA,NA,NA,NA,NA,NA,NA,NA,NA,NA
a31fe,"""Falsch""-Screen",canvas.Screen,1_1_1_1_2,NA,NA,timeout,4996.9,66020.300000012,66012.89,66028.9,71009.6,71010.599999964,2024-05-31T18:14:17Z,71025.8,"c(""distractor1"", ""distractor2"", ""distractor3"")",Kritik,lawama,s,dereva,nafasi,mawazo,NA,NA,0,NA,NA,NA,NA,NA,NA,NA,NA,NA,NA,NA,NA,NA,NA,NA,NA,NA,NA,NA,NA
a31fe,shallow,flow.Sequence,1_1_1_1,NA,NA,completion,14857.8,56138.199999988,56135.2,56151.8,71009.6,71011,2024-05-31T18:14:17Z,71025.8,"c(""distractor1"", ""distractor2"", ""distractor3"")",Kritik,lawama,s,dereva,nafasi,mawazo,NA,NA,NA,NA,NA,NA,NA,NA,NA,NA,NA,NA,NA,NA,NA,NA,NA,NA,NA,NA,NA,NA,NA
a31fe,task,flow.Sequence,1_1_1,NA,NA,completion,14857.8,56137.800000012,56135.2,56151.8,71009.6,71011.399999976,2024-05-31T18:14:17Z,71025.8,"c(""distractor1"", ""distractor2"", ""distractor3"")",Kritik,lawama,s,dereva,nafasi,mawazo,NA,NA,NA,NA,NA,NA,NA,NA,NA,NA,NA,NA,NA,NA,NA,NA,NA,NA,NA,NA,NA,NA,NA
a31fe,deep,flow.Sequence,1_1_2_0,NA,NA,skipped,NA,71011.599999964,NA,NA,71009.6,71011.699999988,2024-05-31T18:14:17Z,71025.8,"c(""distractor1"", ""distractor2"", ""distractor3"")",Rückhalt,msaada,s,muhula,auwali,kiwimbe,NA,NA,NA,NA,NA,NA,NA,NA,NA,NA,NA,NA,NA,NA,NA,NA,NA,NA,NA,NA,NA,NA,NA
a31fe,Shallow Question,html.Page,1_1_2_1_0,NA,NA,form submission,4967.5999999762,71011.899999976,71009.6,71025.8,75993.399999976,75993.599999964,2024-05-31T18:14:22Z,76006.4,"c(""distractor1"", ""distractor2"", ""distractor3"")",Rückhalt,msaada,s,muhula,auwali,kiwimbe,kiwimbe,NA,NA,NA,NA,NA,NA,NA,NA,NA,NA,NA,NA,NA,NA,NA,NA,NA,NA,NA,NA,NA,NA
a31fe,"""Richtig""-Screen",canvas.Screen,1_1_2_1_1,NA,NA,skipped,NA,75997,NA,NA,75993.399999976,75997.099999964,2024-05-31T18:14:22Z,76006.4,"c(""distractor1"", ""distractor2"", ""distractor3"")",Rückhalt,msaada,s,muhula,auwali,kiwimbe,NA,NA,NA,NA,NA,NA,NA,NA,NA,NA,NA,NA,NA,NA,NA,NA,NA,NA,NA,NA,NA,NA,NA
a31fe,"""Falsch""-Screen",canvas.Screen,1_1_2_1_2,NA,NA,timeout,4996.7,75998,75990.214,76006.4,80986.7,80987.599999964,2024-05-31T18:14:27Z,81003.1,"c(""distractor1"", ""distractor2"", ""distractor3"")",Rückhalt,msaada,s,muhula,auwali,kiwimbe,NA,NA,0,NA,NA,NA,NA,NA,NA,NA,NA,NA,NA,NA,NA,NA,NA,NA,NA,NA,NA,NA,NA
a31fe,shallow,flow.Sequence,1_1_2_1,NA,NA,completion,9960.9,71011.899999976,71009.6,71025.8,80986.7,80988.099999964,2024-05-31T18:14:27Z,81003.1,"c(""distractor1"", ""distractor2"", ""distractor3"")",Rückhalt,msaada,s,muhula,auwali,kiwimbe,NA,NA,NA,NA,NA,NA,NA,NA,NA,NA,NA,NA,NA,NA,NA,NA,NA,NA,NA,NA,NA,NA,NA
a31fe,task,flow.Sequence,1_1_2,NA,NA,completion,9960.9,71011.5,71009.6,71025.8,80986.7,80988.300000012,2024-05-31T18:14:27Z,81003.1,"c(""distractor1"", ""distractor2"", ""distractor3"")",Rückhalt,msaada,s,muhula,auwali,kiwimbe,NA,NA,NA,NA,NA,NA,NA,NA,NA,NA,NA,NA,NA,NA,NA,NA,NA,NA,NA,NA,NA,NA,NA
a31fe,Deep Question,html.Page,1_1_3_0_0,NA,NA,form submission,6325.4,80988.599999964,80986.7,81003.1,87328.5,87328.800000012,2024-05-31T18:14:33Z,87333.058,"c(""distractor1"", ""distractor2"", ""distractor3"")",Schatten,kivuli,d,NA,NA,NA,asdf,NA,NA,NA,NA,NA,NA,NA,NA,NA,NA,NA,NA,NA,NA,NA,NA,NA,NA,NA,NA,NA,NA
a31fe,"""Richtig""-Screen",canvas.Screen,1_1_3_0_1,NA,NA,skipped,NA,87332,NA,NA,87328.5,87332.199999988,2024-05-31T18:14:33Z,87333.058,"c(""distractor1"", ""distractor2"", ""distractor3"")",Schatten,kivuli,d,NA,NA,NA,NA,NA,NA,NA,NA,NA,NA,NA,NA,NA,NA,NA,NA,NA,NA,NA,NA,NA,NA,NA,NA,NA,NA
a31fe,"""Falsch""-Screen",canvas.Screen,1_1_3_0_2,NA,NA,timeout,4996.542,87332.899999976,87333.058,87333.058,92312.9,92313.899999976,2024-05-31T18:14:38Z,92329.6,"c(""distractor1"", ""distractor2"", ""distractor3"")",Schatten,kivuli,d,NA,NA,NA,NA,NA,0,NA,NA,NA,NA,NA,NA,NA,NA,NA,NA,NA,NA,NA,NA,NA,NA,NA,NA,NA,NA
a31fe,deep,flow.Sequence,1_1_3_0,NA,NA,completion,11309.8,80988.599999964,80986.7,81003.1,92312.9,92314.199999988,2024-05-31T18:14:38Z,92329.6,"c(""distractor1"", ""distractor2"", ""distractor3"")",Schatten,kivuli,d,NA,NA,NA,NA,NA,NA,NA,NA,NA,NA,NA,NA,NA,NA,NA,NA,NA,NA,NA,NA,NA,NA,NA,NA,NA,NA
a31fe,shallow,flow.Sequence,1_1_3_1,NA,NA,skipped,NA,92314.399999976,NA,NA,92312.9,92314.5,2024-05-31T18:14:38Z,92329.6,"c(""distractor1"", ""distractor2"", ""distractor3"")",Schatten,kivuli,d,NA,NA,NA,NA,NA,NA,NA,NA,NA,NA,NA,NA,NA,NA,NA,NA,NA,NA,NA,NA,NA,NA,NA,NA,NA,NA
a31fe,task,flow.Sequence,1_1_3,NA,NA,completion,11309.8,80988.599999964,80986.7,81003.1,92312.9,92314.699999988,2024-05-31T18:14:38Z,92329.6,"c(""distractor1"", ""distractor2"", ""distractor3"")",Schatten,kivuli,d,NA,NA,NA,NA,NA,NA,NA,NA,NA,NA,NA,NA,NA,NA,NA,NA,NA,NA,NA,NA,NA,NA,NA,NA,NA,NA
a31fe,deep,flow.Sequence,1_1_4_0,NA,NA,skipped,NA,92314.800000012,NA,NA,92312.9,92314.899999976,2024-05-31T18:14:38Z,92329.6,"c(""distractor1"", ""distractor2"", ""distractor3"")",Gegenwart,hadhara,s,katiba,jokofu,mikopo,NA,NA,NA,NA,NA,NA,NA,NA,NA,NA,NA,NA,NA,NA,NA,NA,NA,NA,NA,NA,NA,NA,NA
a31fe,Shallow Question,html.Page,1_1_4_1_0,NA,NA,form submission,4799.9999999642,92315.099999964,92312.9,92329.6,97129.599999964,97129.800000012,2024-05-31T18:14:43Z,97143.5,"c(""distractor1"", ""distractor2"", ""distractor3"")",Gegenwart,hadhara,s,katiba,jokofu,mikopo,mikopo,NA,NA,NA,NA,NA,NA,NA,NA,NA,NA,NA,NA,NA,NA,NA,NA,NA,NA,NA,NA,NA,NA
a31fe,"""Richtig""-Screen",canvas.Screen,1_1_4_1_1,NA,NA,skipped,NA,97133.099999964,NA,NA,97129.599999964,97133.300000012,2024-05-31T18:14:43Z,97143.5,"c(""distractor1"", ""distractor2"", ""distractor3"")",Gegenwart,hadhara,s,katiba,jokofu,mikopo,NA,NA,NA,NA,NA,NA,NA,NA,NA,NA,NA,NA,NA,NA,NA,NA,NA,NA,NA,NA,NA,NA,NA
a31fe,"""Falsch""-Screen",canvas.Screen,1_1_4_1_2,NA,NA,timeout,4997.1,97133.800000012,97127.258,97143.5,102123.8,102124.69999999,2024-05-31T18:14:48Z,102140.6,"c(""distractor1"", ""distractor2"", ""distractor3"")",Gegenwart,hadhara,s,katiba,jokofu,mikopo,NA,NA,0,NA,NA,NA,NA,NA,NA,NA,NA,NA,NA,NA,NA,NA,NA,NA,NA,NA,NA,NA,NA
a31fe,shallow,flow.Sequence,1_1_4_1,NA,NA,completion,9794.2,92315,92312.9,92329.6,102123.8,102124.89999998,2024-05-31T18:14:48Z,102140.6,"c(""distractor1"", ""distractor2"", ""distractor3"")",Gegenwart,hadhara,s,katiba,jokofu,mikopo,NA,NA,NA,NA,NA,NA,NA,NA,NA,NA,NA,NA,NA,NA,NA,NA,NA,NA,NA,NA,NA,NA,NA
a31fe,task,flow.Sequence,1_1_4,NA,NA,completion,9794.2,92314.800000012,92312.9,92329.6,102123.8,102125.19999999,2024-05-31T18:14:48Z,102140.6,"c(""distractor1"", ""distractor2"", ""distractor3"")",Gegenwart,hadhara,s,katiba,jokofu,mikopo,NA,NA,NA,NA,NA,NA,NA,NA,NA,NA,NA,NA,NA,NA,NA,NA,NA,NA,NA,NA,NA,NA,NA
a31fe,Deep Question,html.Page,1_1_5_0_0,NA,NA,form submission,4213.9999999642,102125.39999998,102123.8,102140.6,106354.59999996,106354.89999998,2024-05-31T18:14:52Z,106371.3,"c(""distractor1"", ""distractor2"", ""distractor3"")",Gesundheit,salama,d,NA,NA,NA,asdf,NA,NA,NA,NA,NA,NA,NA,NA,NA,NA,NA,NA,NA,NA,NA,NA,NA,NA,NA,NA,NA,NA
a31fe,"""Richtig""-Screen",canvas.Screen,1_1_5_0_1,NA,NA,skipped,NA,106358.09999996,NA,NA,106354.59999996,106358.19999999,2024-05-31T18:14:52Z,106371.3,"c(""distractor1"", ""distractor2"", ""distractor3"")",Gesundheit,salama,d,NA,NA,NA,NA,NA,NA,NA,NA,NA,NA,NA,NA,NA,NA,NA,NA,NA,NA,NA,NA,NA,NA,NA,NA,NA,NA
a31fe,"""Falsch""-Screen",canvas.Screen,1_1_5_0_2,NA,NA,timeout,4996.6,106359,106354.69,106371.3,111351.6,111352.89999998,2024-05-31T18:14:57Z,111367.9,"c(""distractor1"", ""distractor2"", ""distractor3"")",Gesundheit,salama,d,NA,NA,NA,NA,NA,0,NA,NA,NA,NA,NA,NA,NA,NA,NA,NA,NA,NA,NA,NA,NA,NA,NA,NA,NA,NA
a31fe,deep,flow.Sequence,1_1_5_0,NA,NA,completion,9211,102125.30000001,102123.8,102140.6,111351.6,111353.19999999,2024-05-31T18:14:57Z,111367.9,"c(""distractor1"", ""distractor2"", ""distractor3"")",Gesundheit,salama,d,NA,NA,NA,NA,NA,NA,NA,NA,NA,NA,NA,NA,NA,NA,NA,NA,NA,NA,NA,NA,NA,NA,NA,NA,NA,NA
a31fe,shallow,flow.Sequence,1_1_5_1,NA,NA,skipped,NA,111353.39999998,NA,NA,111351.6,111353.39999998,2024-05-31T18:14:57Z,111367.9,"c(""distractor1"", ""distractor2"", ""distractor3"")",Gesundheit,salama,d,NA,NA,NA,NA,NA,NA,NA,NA,NA,NA,NA,NA,NA,NA,NA,NA,NA,NA,NA,NA,NA,NA,NA,NA,NA,NA
a31fe,task,flow.Sequence,1_1_5,NA,NA,completion,9211,102125.30000001,102123.8,102140.6,111351.6,111353.59999996,2024-05-31T18:14:57Z,111367.9,"c(""distractor1"", ""distractor2"", ""distractor3"")",Gesundheit,salama,d,NA,NA,NA,NA,NA,NA,NA,NA,NA,NA,NA,NA,NA,NA,NA,NA,NA,NA,NA,NA,NA,NA,NA,NA,NA,NA
a31fe,block,flow.Loop,1_1,NA,NA,completion,66925.7,44394.099999964,44409.1,44425.9,111351.6,111354,2024-05-31T18:14:57Z,111367.9,"c(""distractor1"", ""distractor2"", ""distractor3"")",NA,NA,NA,NA,NA,NA,NA,NA,NA,NA,NA,NA,NA,NA,NA,NA,NA,NA,NA,NA,NA,NA,NA,NA,NA,NA,NA,NA,NA
a31fe,Practice,flow.Sequence,1,NA,NA,completion,74937.9,36399.699999988,36397.752,36413.7,111351.6,111354.30000001,2024-05-31T18:14:57Z,111367.9,NULL,NA,NA,NA,NA,NA,NA,NA,NA,NA,NA,NA,NA,NA,NA,NA,NA,NA,NA,NA,NA,NA,NA,NA,NA,NA,NA,NA,NA,NA
a31fe,Experiment start,canvas.Screen,2,weiter,keypress(q),response,11626.400000012,111354.39999998,111351.6,111367.9,122994.30000001,122995.30000001,2024-05-31T18:15:09Z,123044,NULL,NA,NA,NA,NA,NA,NA,NA,NA,NA,NA,NA,NA,NA,NA,NA,NA,NA,NA,NA,NA,NA,NA,NA,NA,NA,NA,NA,NA,NA
a31fe,Deep Question,html.Page,3_0_0_0_0_0_0,NA,NA,form submission,6533.8999999762,123048.09999996,123033.276,123044,129577.89999998,129578,2024-05-31T18:15:15Z,129590.5,NULL,Flexibilität,kubadilika,d,NA,NA,NA,asdf,NA,NA,0,NA,NA,NA,NA,NA,NA,NA,NA,NA,NA,NA,NA,NA,NA,NA,NA,NA,NA,NA
a31fe,"""Richtig""-Screen",canvas.Screen,3_0_0_0_0_0_1,NA,NA,skipped,NA,129579.30000001,NA,NA,129577.89999998,129579.39999998,2024-05-31T18:15:15Z,129590.5,NULL,Flexibilität,kubadilika,d,NA,NA,NA,NA,sdf,NA,0,NA,NA,NA,NA,NA,NA,NA,NA,NA,NA,NA,NA,NA,NA,NA,NA,NA,NA,NA
a31fe,"""Falsch""-Screen",canvas.Screen,3_0_0_0_0_0_2,NA,NA,timeout,4996.8,129579.80000001,129573.956,129590.5,134570.3,134571.30000001,2024-05-31T18:15:20Z,134587.3,NULL,Flexibilität,kubadilika,d,NA,NA,NA,NA,sdf,0,0,NA,NA,NA,NA,NA,NA,NA,NA,NA,NA,NA,NA,NA,NA,NA,NA,NA,NA,NA
a31fe,deep,flow.Sequence,3_0_0_0_0_0,NA,NA,completion,11526.3,123048.09999996,123033.276,123044,134570.3,134571.80000001,2024-05-31T18:15:20Z,134587.3,NULL,Flexibilität,kubadilika,d,NA,NA,NA,NA,sdf,NA,0,NA,NA,NA,NA,NA,NA,NA,NA,NA,NA,NA,NA,NA,NA,NA,NA,NA,NA,NA
a31fe,shallow,flow.Sequence,3_0_0_0_0_1,NA,NA,skipped,NA,134571.89999998,NA,NA,134570.3,134572,2024-05-31T18:15:20Z,134587.3,NULL,Flexibilität,kubadilika,d,NA,NA,NA,NA,sdf,NA,0,NA,NA,NA,NA,NA,NA,NA,NA,NA,NA,NA,NA,NA,NA,NA,NA,NA,NA,NA
a31fe,task,flow.Sequence,3_0_0_0_0,NA,NA,completion,11526.3,123048.09999996,123033.276,123044,134570.3,134572.19999999,2024-05-31T18:15:20Z,134587.3,NULL,Flexibilität,kubadilika,d,NA,NA,NA,NA,sdf,NA,0,NA,NA,NA,NA,NA,NA,NA,NA,NA,NA,NA,NA,NA,NA,NA,NA,NA,NA,NA
a31fe,Deep Question,html.Page,3_0_0_0_1_0_0,NA,NA,form submission,7057.0000000119,134572.39999998,134570.3,134587.3,141644.30000001,141644.59999996,2024-05-31T18:15:27Z,141649.3,NULL,Schock,mshtuko,d,NA,NA,NA,asdf,NA,NA,0,NA,NA,NA,NA,NA,NA,NA,NA,NA,NA,NA,NA,NA,NA,NA,NA,NA,NA,NA
a31fe,"""Richtig""-Screen",canvas.Screen,3_0_0_0_1_0_1,NA,NA,skipped,NA,141647.69999999,NA,NA,141644.30000001,141647.80000001,2024-05-31T18:15:27Z,141649.3,NULL,Schock,mshtuko,d,NA,NA,NA,NA,sdf,NA,0,NA,NA,NA,NA,NA,NA,NA,NA,NA,NA,NA,NA,NA,NA,NA,NA,NA,NA,NA
a31fe,"""Falsch""-Screen",canvas.Screen,3_0_0_0_1_0_2,NA,NA,timeout,4997.3,141648.59999996,141634.118,141649.3,146630,146630.89999998,2024-05-31T18:15:32Z,146646.6,NULL,Schock,mshtuko,d,NA,NA,NA,NA,sdf,0,0,NA,NA,NA,NA,NA,NA,NA,NA,NA,NA,NA,NA,NA,NA,NA,NA,NA,NA,NA
a31fe,deep,flow.Sequence,3_0_0_0_1_0,NA,NA,completion,12042.7,134572.30000001,134570.3,134587.3,146630,146631.30000001,2024-05-31T18:15:32Z,146646.6,NULL,Schock,mshtuko,d,NA,NA,NA,NA,sdf,NA,0,NA,NA,NA,NA,NA,NA,NA,NA,NA,NA,NA,NA,NA,NA,NA,NA,NA,NA,NA
a31fe,shallow,flow.Sequence,3_0_0_0_1_1,NA,NA,skipped,NA,146631.30000001,NA,NA,146630,146631.5,2024-05-31T18:15:32Z,146646.6,NULL,Schock,mshtuko,d,NA,NA,NA,NA,sdf,NA,0,NA,NA,NA,NA,NA,NA,NA,NA,NA,NA,NA,NA,NA,NA,NA,NA,NA,NA,NA
a31fe,task,flow.Sequence,3_0_0_0_1,NA,NA,completion,12042.7,134572.30000001,134570.3,134587.3,146630,146631.69999999,2024-05-31T18:15:32Z,146646.6,NULL,Schock,mshtuko,d,NA,NA,NA,NA,sdf,NA,0,NA,NA,NA,NA,NA,NA,NA,NA,NA,NA,NA,NA,NA,NA,NA,NA,NA,NA,NA
a31fe,deep,flow.Sequence,3_0_0_0_2_0,NA,NA,skipped,NA,146631.80000001,NA,NA,146630,146631.89999998,2024-05-31T18:15:32Z,146646.6,NULL,Erneuerung,ukarabati,s,ushawishi,ukalifu,unyonyaji,NA,sdf,NA,0,NA,NA,NA,NA,NA,NA,NA,NA,NA,NA,NA,NA,NA,NA,NA,NA,NA,NA,NA
a31fe,Shallow Question,html.Page,3_0_0_0_2_1_0,NA,NA,form submission,5790.9,146632.19999999,146630,146646.6,152437.5,152437.69999999,2024-05-31T18:15:38Z,152442.7,NULL,Erneuerung,ukarabati,s,ushawishi,ukalifu,unyonyaji,ushawishi,NA,NA,0,NA,NA,NA,NA,NA,NA,NA,NA,NA,NA,NA,NA,NA,NA,NA,NA,NA,NA,NA
a31fe,"""Richtig""-Screen",canvas.Screen,3_0_0_0_2_1_1,NA,NA,skipped,NA,152440.80000001,NA,NA,152437.5,152440.89999998,2024-05-31T18:15:38Z,152442.7,NULL,Erneuerung,ukarabati,s,ushawishi,ukalifu,unyonyaji,NA,sdf,NA,0,NA,NA,NA,NA,NA,NA,NA,NA,NA,NA,NA,NA,NA,NA,NA,NA,NA,NA,NA
a31fe,"""Falsch""-Screen",canvas.Screen,3_0_0_0_2_1_2,NA,NA,timeout,4997.1,152441.69999999,152426.684,152442.7,157423,157423.89999998,2024-05-31T18:15:43Z,157439.8,NULL,Erneuerung,ukarabati,s,ushawishi,ukalifu,unyonyaji,NA,sdf,0,0,NA,NA,NA,NA,NA,NA,NA,NA,NA,NA,NA,NA,NA,NA,NA,NA,NA,NA,NA
a31fe,shallow,flow.Sequence,3_0_0_0_2_1,NA,NA,completion,10776.4,146632,146630,146646.6,157423,157424.30000001,2024-05-31T18:15:43Z,157439.8,NULL,Erneuerung,ukarabati,s,ushawishi,ukalifu,unyonyaji,NA,sdf,NA,0,NA,NA,NA,NA,NA,NA,NA,NA,NA,NA,NA,NA,NA,NA,NA,NA,NA,NA,NA
a31fe,task,flow.Sequence,3_0_0_0_2,NA,NA,completion,10776.4,146631.80000001,146630,146646.6,157423,157424.5,2024-05-31T18:15:43Z,157439.8,NULL,Erneuerung,ukarabati,s,ushawishi,ukalifu,unyonyaji,NA,sdf,NA,0,NA,NA,NA,NA,NA,NA,NA,NA,NA,NA,NA,NA,NA,NA,NA,NA,NA,NA,NA
a31fe,deep,flow.Sequence,3_0_0_0_3_0,NA,NA,skipped,NA,157424.59999996,NA,NA,157423,157424.89999998,2024-05-31T18:15:43Z,157439.8,NULL,Hoffnung,matarajio,s,kutaalamika,uratibu,mvumbuzi,NA,sdf,NA,0,NA,NA,NA,NA,NA,NA,NA,NA,NA,NA,NA,NA,NA,NA,NA,NA,NA,NA,NA
a31fe,Shallow Question,html.Page,3_0_0_0_3_1_0,NA,NA,form submission,4757.0000000119,157425,157423,157439.8,162196.80000001,162197,2024-05-31T18:15:48Z,162203.96,NULL,Hoffnung,matarajio,s,kutaalamika,uratibu,mvumbuzi,mvumbuzi,NA,NA,0,NA,NA,NA,NA,NA,NA,NA,NA,NA,NA,NA,NA,NA,NA,NA,NA,NA,NA,NA
a31fe,"""Richtig""-Screen",canvas.Screen,3_0_0_0_3_1_1,NA,NA,skipped,NA,162199,NA,NA,162196.80000001,162199.09999996,2024-05-31T18:15:48Z,162203.96,NULL,Hoffnung,matarajio,s,kutaalamika,uratibu,mvumbuzi,NA,sdf,NA,0,NA,NA,NA,NA,NA,NA,NA,NA,NA,NA,NA,NA,NA,NA,NA,NA,NA,NA,NA
a31fe,"""Falsch""-Screen",canvas.Screen,3_0_0_0_3_1_2,NA,NA,timeout,4996.84,162199.5,162203.96,162203.96,167183.8,167185.39999998,2024-05-31T18:15:53Z,167200.8,NULL,Hoffnung,matarajio,s,kutaalamika,uratibu,mvumbuzi,NA,sdf,0,0,NA,NA,NA,NA,NA,NA,NA,NA,NA,NA,NA,NA,NA,NA,NA,NA,NA,NA,NA
a31fe,shallow,flow.Sequence,3_0_0_0_3_1,NA,NA,completion,9744,157424.89999998,157423,157439.8,167183.8,167185.80000001,2024-05-31T18:15:53Z,167200.8,NULL,Hoffnung,matarajio,s,kutaalamika,uratibu,mvumbuzi,NA,sdf,NA,0,NA,NA,NA,NA,NA,NA,NA,NA,NA,NA,NA,NA,NA,NA,NA,NA,NA,NA,NA
a31fe,task,flow.Sequence,3_0_0_0_3,NA,NA,completion,9744,157424.59999996,157423,157439.8,167183.8,167186.09999996,2024-05-31T18:15:53Z,167200.8,NULL,Hoffnung,matarajio,s,kutaalamika,uratibu,mvumbuzi,NA,sdf,NA,0,NA,NA,NA,NA,NA,NA,NA,NA,NA,NA,NA,NA,NA,NA,NA,NA,NA,NA,NA
a31fe,Deep Question,html.Page,3_0_0_0_4_0_0,NA,NA,form submission,3411.3999999881,167186.30000001,167183.8,167200.8,170612.19999999,170612.39999998,2024-05-31T18:15:56Z,170615.428,NULL,Atmosphäre,angahewa,d,NA,NA,NA,asdf,NA,NA,0,NA,NA,NA,NA,NA,NA,NA,NA,NA,NA,NA,NA,NA,NA,NA,NA,NA,NA,NA
a31fe,"""Richtig""-Screen",canvas.Screen,3_0_0_0_4_0_1,NA,NA,skipped,NA,170615.59999996,NA,NA,170612.19999999,170615.80000001,2024-05-31T18:15:56Z,170615.428,NULL,Atmosphäre,angahewa,d,NA,NA,NA,NA,sdf,NA,0,NA,NA,NA,NA,NA,NA,NA,NA,NA,NA,NA,NA,NA,NA,NA,NA,NA,NA,NA
a31fe,"""Falsch""-Screen",canvas.Screen,3_0_0_0_4_0_2,NA,NA,timeout,4996.572,170616.5,170615.428,170615.428,175595.6,175596.19999999,2024-05-31T18:16:01Z,175612,NULL,Atmosphäre,angahewa,d,NA,NA,NA,NA,sdf,0,0,NA,NA,NA,NA,NA,NA,NA,NA,NA,NA,NA,NA,NA,NA,NA,NA,NA,NA,NA
a31fe,deep,flow.Sequence,3_0_0_0_4_0,NA,NA,completion,8394.8,167186.19999999,167183.8,167200.8,175595.6,175596.39999998,2024-05-31T18:16:01Z,175612,NULL,Atmosphäre,angahewa,d,NA,NA,NA,NA,sdf,NA,0,NA,NA,NA,NA,NA,NA,NA,NA,NA,NA,NA,NA,NA,NA,NA,NA,NA,NA,NA
a31fe,shallow,flow.Sequence,3_0_0_0_4_1,NA,NA,skipped,NA,175596.5,NA,NA,175595.6,175596.59999996,2024-05-31T18:16:01Z,175612,NULL,Atmosphäre,angahewa,d,NA,NA,NA,NA,sdf,NA,0,NA,NA,NA,NA,NA,NA,NA,NA,NA,NA,NA,NA,NA,NA,NA,NA,NA,NA,NA
a31fe,task,flow.Sequence,3_0_0_0_4,NA,NA,completion,8394.8,167186.19999999,167183.8,167200.8,175595.6,175596.69999999,2024-05-31T18:16:01Z,175612,NULL,Atmosphäre,angahewa,d,NA,NA,NA,NA,sdf,NA,0,NA,NA,NA,NA,NA,NA,NA,NA,NA,NA,NA,NA,NA,NA,NA,NA,NA,NA,NA
a31fe,Deep Question,html.Page,3_0_0_0_5_0_0,NA,NA,form submission,3574.8999999762,175596.89999998,175595.6,175612,179186.89999998,179187,2024-05-31T18:16:05Z,179193.1,NULL,Theorie,nadharia,d,NA,NA,NA,asdf,NA,NA,0,NA,NA,NA,NA,NA,NA,NA,NA,NA,NA,NA,NA,NA,NA,NA,NA,NA,NA,NA
a31fe,"""Richtig""-Screen",canvas.Screen,3_0_0_0_5_0_1,NA,NA,skipped,NA,179188.30000001,NA,NA,179186.89999998,179188.39999998,2024-05-31T18:16:05Z,179193.1,NULL,Theorie,nadharia,d,NA,NA,NA,NA,sdf,NA,0,NA,NA,NA,NA,NA,NA,NA,NA,NA,NA,NA,NA,NA,NA,NA,NA,NA,NA,NA
a31fe,"""Falsch""-Screen",canvas.Screen,3_0_0_0_5_0_2,NA,NA,timeout,4997.5,179188.80000001,179176.954,179193.1,184173.5,184174.30000001,2024-05-31T18:16:10Z,184190.6,NULL,Theorie,nadharia,d,NA,NA,NA,NA,sdf,0,0,NA,NA,NA,NA,NA,NA,NA,NA,NA,NA,NA,NA,NA,NA,NA,NA,NA,NA,NA
a31fe,deep,flow.Sequence,3_0_0_0_5_0,NA,NA,completion,8561.5,175596.80000001,175595.6,175612,184173.5,184174.69999999,2024-05-31T18:16:10Z,184190.6,NULL,Theorie,nadharia,d,NA,NA,NA,NA,sdf,NA,0,NA,NA,NA,NA,NA,NA,NA,NA,NA,NA,NA,NA,NA,NA,NA,NA,NA,NA,NA
a31fe,shallow,flow.Sequence,3_0_0_0_5_1,NA,NA,skipped,NA,184174.80000001,NA,NA,184173.5,184174.89999998,2024-05-31T18:16:10Z,184190.6,NULL,Theorie,nadharia,d,NA,NA,NA,NA,sdf,NA,0,NA,NA,NA,NA,NA,NA,NA,NA,NA,NA,NA,NA,NA,NA,NA,NA,NA,NA,NA
a31fe,task,flow.Sequence,3_0_0_0_5,NA,NA,completion,8561.5,175596.80000001,175595.6,175612,184173.5,184175.09999996,2024-05-31T18:16:10Z,184190.6,NULL,Theorie,nadharia,d,NA,NA,NA,NA,sdf,NA,0,NA,NA,NA,NA,NA,NA,NA,NA,NA,NA,NA,NA,NA,NA,NA,NA,NA,NA,NA
a31fe,deep,flow.Sequence,3_0_0_0_6_0,NA,NA,skipped,NA,184175.19999999,NA,NA,184173.5,184175.39999998,2024-05-31T18:16:10Z,184190.6,NULL,Wechsel,ugeuzaji,s,utambulisho,kujenga,wasiwasi,NA,sdf,NA,0,NA,NA,NA,NA,NA,NA,NA,NA,NA,NA,NA,NA,NA,NA,NA,NA,NA,NA,NA
a31fe,Shallow Question,html.Page,3_0_0_0_6_1_0,NA,NA,form submission,5084.5999999881,184175.5,184173.5,184190.6,189275.19999999,189275.39999998,2024-05-31T18:16:15Z,189287.2,NULL,Wechsel,ugeuzaji,s,utambulisho,kujenga,wasiwasi,wasiwasi,NA,NA,0,NA,NA,NA,NA,NA,NA,NA,NA,NA,NA,NA,NA,NA,NA,NA,NA,NA,NA,NA
a31fe,"""Richtig""-Screen",canvas.Screen,3_0_0_0_6_1_1,NA,NA,skipped,NA,189278.59999996,NA,NA,189275.19999999,189278.69999999,2024-05-31T18:16:15Z,189287.2,NULL,Wechsel,ugeuzaji,s,utambulisho,kujenga,wasiwasi,NA,sdf,NA,0,NA,NA,NA,NA,NA,NA,NA,NA,NA,NA,NA,NA,NA,NA,NA,NA,NA,NA,NA
a31fe,"""Falsch""-Screen",canvas.Screen,3_0_0_0_6_1_2,NA,NA,timeout,4997,189279.19999999,189270.792,189287.2,194267.6,194268.59999996,2024-05-31T18:16:20Z,194284.2,NULL,Wechsel,ugeuzaji,s,utambulisho,kujenga,wasiwasi,NA,sdf,0,0,NA,NA,NA,NA,NA,NA,NA,NA,NA,NA,NA,NA,NA,NA,NA,NA,NA,NA,NA
a31fe,shallow,flow.Sequence,3_0_0_0_6_1,NA,NA,completion,10077,184175.5,184173.5,184190.6,194267.6,194268.89999998,2024-05-31T18:16:20Z,194284.2,NULL,Wechsel,ugeuzaji,s,utambulisho,kujenga,wasiwasi,NA,sdf,NA,0,NA,NA,NA,NA,NA,NA,NA,NA,NA,NA,NA,NA,NA,NA,NA,NA,NA,NA,NA
a31fe,task,flow.Sequence,3_0_0_0_6,NA,NA,completion,10077,184175.19999999,184173.5,184190.6,194267.6,194269.19999999,2024-05-31T18:16:20Z,194284.2,NULL,Wechsel,ugeuzaji,s,utambulisho,kujenga,wasiwasi,NA,sdf,NA,0,NA,NA,NA,NA,NA,NA,NA,NA,NA,NA,NA,NA,NA,NA,NA,NA,NA,NA,NA
a31fe,deep,flow.Sequence,3_0_0_0_7_0,NA,NA,skipped,NA,194269.30000001,NA,NA,194267.6,194269.5,2024-05-31T18:16:20Z,194284.2,NULL,Verpackung,ufungaji,s,uhusiano,upimaji,uchunguzi,NA,sdf,NA,0,NA,NA,NA,NA,NA,NA,NA,NA,NA,NA,NA,NA,NA,NA,NA,NA,NA,NA,NA
a31fe,Shallow Question,html.Page,3_0_0_0_7_1_0,NA,NA,form submission,4579.3999999642,194269.59999996,194267.6,194284.2,198863.59999996,198863.80000001,2024-05-31T18:16:25Z,198864.694,NULL,Verpackung,ufungaji,s,uhusiano,upimaji,uchunguzi,uhusiano,NA,NA,0,NA,NA,NA,NA,NA,NA,NA,NA,NA,NA,NA,NA,NA,NA,NA,NA,NA,NA,NA
a31fe,"""Richtig""-Screen",canvas.Screen,3_0_0_0_7_1_1,NA,NA,skipped,NA,198866.80000001,NA,NA,198863.59999996,198867,2024-05-31T18:16:25Z,198864.694,NULL,Verpackung,ufungaji,s,uhusiano,upimaji,uchunguzi,NA,sdf,NA,0,NA,NA,NA,NA,NA,NA,NA,NA,NA,NA,NA,NA,NA,NA,NA,NA,NA,NA,NA
a31fe,"""Falsch""-Screen",canvas.Screen,3_0_0_0_7_1_2,NA,NA,timeout,4997.206,198867.80000001,198864.694,198864.694,203845,203846.80000001,2024-05-31T18:16:30Z,203861.9,NULL,Verpackung,ufungaji,s,uhusiano,upimaji,uchunguzi,NA,sdf,0,0,NA,NA,NA,NA,NA,NA,NA,NA,NA,NA,NA,NA,NA,NA,NA,NA,NA,NA,NA
a31fe,shallow,flow.Sequence,3_0_0_0_7_1,NA,NA,completion,9560.8,194269.59999996,194267.6,194284.2,203845,203847.19999999,2024-05-31T18:16:30Z,203861.9,NULL,Verpackung,ufungaji,s,uhusiano,upimaji,uchunguzi,NA,sdf,NA,0,NA,NA,NA,NA,NA,NA,NA,NA,NA,NA,NA,NA,NA,NA,NA,NA,NA,NA,NA
a31fe,task,flow.Sequence,3_0_0_0_7,NA,NA,completion,9560.8,194269.19999999,194267.6,194284.2,203845,203847.5,2024-05-31T18:16:30Z,203861.9,NULL,Verpackung,ufungaji,s,uhusiano,upimaji,uchunguzi,NA,sdf,NA,0,NA,NA,NA,NA,NA,NA,NA,NA,NA,NA,NA,NA,NA,NA,NA,NA,NA,NA,NA
a31fe,block,flow.Loop,3_0_0_0,NA,NA,completion,80801,123048.09999996,123033.276,123044,203845,203847.69999999,2024-05-31T18:16:30Z,203861.9,NULL,NA,NA,NA,NA,NA,NA,NA,sdf,NA,0,NA,NA,NA,NA,NA,NA,NA,NA,NA,NA,NA,NA,NA,NA,NA,NA,NA,NA,NA
a31fe,weiter,canvas.Screen,3_0_0_1,sdf,keypress(Space),response,1718.2999999881,203847.89999998,203845,203861.9,205580.19999999,205581,2024-05-31T18:16:31Z,205610.7,NULL,NA,NA,NA,NA,NA,NA,NA,sdf,NA,0,NA,NA,NA,NA,NA,NA,NA,NA,NA,NA,NA,NA,NA,NA,NA,NA,NA,NA,NA
a31fe,check continue,flow.Sequence,3_0_0,NA,NA,completion,82536.199999988,123048.09999996,123033.276,123044,205580.19999999,205581.09999996,2024-05-31T18:16:31Z,205610.7,NULL,NA,NA,NA,NA,NA,NA,NA,sdf,NA,0,NA,NA,NA,NA,NA,NA,NA,NA,NA,NA,NA,NA,NA,NA,NA,NA,NA,NA,NA
a31fe,deep,flow.Sequence,3_0_1_0_0_0,NA,NA,skipped,NA,205597.39999998,NA,NA,205580.19999999,205597.5,2024-05-31T18:16:31Z,205610.7,NULL,Wechsel,ugeuzaji,s,utambulisho,kujenga,wasiwasi,NA,sdfdsf,NA,1,NA,NA,NA,NA,NA,NA,NA,NA,NA,NA,NA,NA,NA,NA,NA,NA,NA,NA,NA
a31fe,Shallow Question,html.Page,3_0_1_0_0_1_0,NA,NA,form submission,8218.4999999881,205597.5,205593.666,205610.7,213829.19999999,213829.5,2024-05-31T18:16:40Z,213838.6,NULL,Wechsel,ugeuzaji,s,utambulisho,kujenga,wasiwasi,kujenga,NA,NA,1,NA,NA,NA,NA,NA,NA,NA,NA,NA,NA,NA,NA,NA,NA,NA,NA,NA,NA,NA
a31fe,"""Richtig""-Screen",canvas.Screen,3_0_1_0_0_1_1,NA,NA,skipped,NA,213832.5,NA,NA,213829.19999999,213832.69999999,2024-05-31T18:16:40Z,213838.6,NULL,Wechsel,ugeuzaji,s,utambulisho,kujenga,wasiwasi,NA,sdfdsf,NA,1,NA,NA,NA,NA,NA,NA,NA,NA,NA,NA,NA,NA,NA,NA,NA,NA,NA,NA,NA
a31fe,"""Falsch""-Screen",canvas.Screen,3_0_1_0_0_1_2,NA,NA,timeout,4996.9,213833.59999996,213822.426,213838.6,218819.3,218820.09999996,2024-05-31T18:16:45Z,218835.5,NULL,Wechsel,ugeuzaji,s,utambulisho,kujenga,wasiwasi,NA,sdfdsf,0,1,NA,NA,NA,NA,NA,NA,NA,NA,NA,NA,NA,NA,NA,NA,NA,NA,NA,NA,NA
a31fe,shallow,flow.Sequence,3_0_1_0_0_1,NA,NA,completion,13208.6,205597.5,205593.666,205610.7,218819.3,218820.39999998,2024-05-31T18:16:45Z,218835.5,NULL,Wechsel,ugeuzaji,s,utambulisho,kujenga,wasiwasi,NA,sdfdsf,NA,1,NA,NA,NA,NA,NA,NA,NA,NA,NA,NA,NA,NA,NA,NA,NA,NA,NA,NA,NA
a31fe,task,flow.Sequence,3_0_1_0_0,NA,NA,completion,13208.6,205597.39999998,205593.666,205610.7,218819.3,218820.59999996,2024-05-31T18:16:45Z,218835.5,NULL,Wechsel,ugeuzaji,s,utambulisho,kujenga,wasiwasi,NA,sdfdsf,NA,1,NA,NA,NA,NA,NA,NA,NA,NA,NA,NA,NA,NA,NA,NA,NA,NA,NA,NA,NA
a31fe,Deep Question,html.Page,3_0_1_0_1_0_0,NA,NA,form submission,4317.6999999881,218820.80000001,218819.3,218835.5,223153.19999999,223153.39999998,2024-05-31T18:16:49Z,223166.1,NULL,Atmosphäre,angahewa,d,NA,NA,NA,angahewa,NA,NA,1,NA,NA,NA,NA,NA,NA,NA,NA,NA,NA,NA,NA,NA,NA,NA,NA,NA,NA,NA
a31fe,"""Richtig""-Screen",canvas.Screen,3_0_1_0_1_0_1,NA,NA,timeout,4996.9,223156.59999996,223151.134,223166.1,228146.7,228147.59999996,2024-05-31T18:16:54Z,228163,NULL,Atmosphäre,angahewa,d,NA,NA,NA,NA,sdfdsf,1,1,NA,NA,NA,NA,NA,NA,NA,NA,NA,NA,NA,NA,NA,NA,NA,NA,NA,NA,NA
a31fe,"""Falsch""-Screen",canvas.Screen,3_0_1_0_1_0_2,NA,NA,skipped,NA,228152.59999996,NA,NA,228146.7,228152.59999996,2024-05-31T18:16:54Z,228163,NULL,Atmosphäre,angahewa,d,NA,NA,NA,NA,sdfdsf,NA,1,NA,NA,NA,NA,NA,NA,NA,NA,NA,NA,NA,NA,NA,NA,NA,NA,NA,NA,NA
a31fe,deep,flow.Sequence,3_0_1_0_1_0,NA,NA,completion,9311.2,218820.80000001,218819.3,218835.5,228146.7,228152.80000001,2024-05-31T18:16:54Z,228163,NULL,Atmosphäre,angahewa,d,NA,NA,NA,NA,sdfdsf,NA,1,NA,NA,NA,NA,NA,NA,NA,NA,NA,NA,NA,NA,NA,NA,NA,NA,NA,NA,NA
a31fe,shallow,flow.Sequence,3_0_1_0_1_1,NA,NA,skipped,NA,228152.80000001,NA,NA,228146.7,228152.80000001,2024-05-31T18:16:54Z,228163,NULL,Atmosphäre,angahewa,d,NA,NA,NA,NA,sdfdsf,NA,1,NA,NA,NA,NA,NA,NA,NA,NA,NA,NA,NA,NA,NA,NA,NA,NA,NA,NA,NA
a31fe,task,flow.Sequence,3_0_1_0_1,NA,NA,completion,9311.2,218820.69999999,218819.3,218835.5,228146.7,228152.80000001,2024-05-31T18:16:54Z,228163,NULL,Atmosphäre,angahewa,d,NA,NA,NA,NA,sdfdsf,NA,1,NA,NA,NA,NA,NA,NA,NA,NA,NA,NA,NA,NA,NA,NA,NA,NA,NA,NA,NA
a31fe,deep,flow.Sequence,3_0_1_0_2_0,NA,NA,skipped,NA,228152.89999998,NA,NA,228146.7,228153,2024-05-31T18:16:54Z,228163,NULL,Hoffnung,matarajio,s,kutaalamika,uratibu,mvumbuzi,NA,sdfdsf,NA,1,NA,NA,NA,NA,NA,NA,NA,NA,NA,NA,NA,NA,NA,NA,NA,NA,NA,NA,NA
a31fe,Shallow Question,html.Page,3_0_1_0_2_1_0,NA,NA,form submission,5434.5,228153,228146.7,228163,233597.5,233597.69999999,2024-05-31T18:16:59Z,233609.9,NULL,Hoffnung,matarajio,s,kutaalamika,uratibu,mvumbuzi,matarajio,NA,NA,1,NA,NA,NA,NA,NA,NA,NA,NA,NA,NA,NA,NA,NA,NA,NA,NA,NA,NA,NA
a31fe,"""Richtig""-Screen",canvas.Screen,3_0_1_0_2_1_1,NA,NA,timeout,4997,233600.69999999,233593.75,233609.9,238590.3,238591.59999996,2024-05-31T18:17:04Z,238606.9,NULL,Hoffnung,matarajio,s,kutaalamika,uratibu,mvumbuzi,NA,sdfdsf,1,1,NA,NA,NA,NA,NA,NA,NA,NA,NA,NA,NA,NA,NA,NA,NA,NA,NA,NA,NA
a31fe,"""Falsch""-Screen",canvas.Screen,3_0_1_0_2_1_2,NA,NA,skipped,NA,238596.69999999,NA,NA,238590.3,238596.80000001,2024-05-31T18:17:04Z,238606.9,NULL,Hoffnung,matarajio,s,kutaalamika,uratibu,mvumbuzi,NA,sdfdsf,NA,1,NA,NA,NA,NA,NA,NA,NA,NA,NA,NA,NA,NA,NA,NA,NA,NA,NA,NA,NA
a31fe,shallow,flow.Sequence,3_0_1_0_2_1,NA,NA,completion,10427.3,228153,228146.7,228163,238590.3,238596.89999998,2024-05-31T18:17:04Z,238606.9,NULL,Hoffnung,matarajio,s,kutaalamika,uratibu,mvumbuzi,NA,sdfdsf,NA,1,NA,NA,NA,NA,NA,NA,NA,NA,NA,NA,NA,NA,NA,NA,NA,NA,NA,NA,NA
a31fe,task,flow.Sequence,3_0_1_0_2,NA,NA,completion,10427.3,228152.89999998,228146.7,228163,238590.3,238596.89999998,2024-05-31T18:17:04Z,238606.9,NULL,Hoffnung,matarajio,s,kutaalamika,uratibu,mvumbuzi,NA,sdfdsf,NA,1,NA,NA,NA,NA,NA,NA,NA,NA,NA,NA,NA,NA,NA,NA,NA,NA,NA,NA,NA
a31fe,Deep Question,html.Page,3_0_1_0_3_0_0,NA,NA,form submission,3538.9999999762,238597,238590.3,238606.9,242145.89999998,242146.09999996,2024-05-31T18:17:08Z,242154.6,NULL,Theorie,nadharia,d,NA,NA,NA,asdf,NA,NA,1,NA,NA,NA,NA,NA,NA,NA,NA,NA,NA,NA,NA,NA,NA,NA,NA,NA,NA,NA
a31fe,"""Richtig""-Screen",canvas.Screen,3_0_1_0_3_0_1,NA,NA,skipped,NA,242149.09999996,NA,NA,242145.89999998,242149.19999999,2024-05-31T18:17:08Z,242154.6,NULL,Theorie,nadharia,d,NA,NA,NA,NA,sdfdsf,NA,1,NA,NA,NA,NA,NA,NA,NA,NA,NA,NA,NA,NA,NA,NA,NA,NA,NA,NA,NA
a31fe,"""Falsch""-Screen",canvas.Screen,3_0_1_0_3_0_2,NA,NA,timeout,4997.2,242149.89999998,242138.4,242154.6,247135.2,247136.19999999,2024-05-31T18:17:13Z,247151.8,NULL,Theorie,nadharia,d,NA,NA,NA,NA,sdfdsf,0,1,NA,NA,NA,NA,NA,NA,NA,NA,NA,NA,NA,NA,NA,NA,NA,NA,NA,NA,NA
a31fe,deep,flow.Sequence,3_0_1_0_3_0,NA,NA,completion,8528.3,238597,238590.3,238606.9,247135.2,247136.5,2024-05-31T18:17:13Z,247151.8,NULL,Theorie,nadharia,d,NA,NA,NA,NA,sdfdsf,NA,1,NA,NA,NA,NA,NA,NA,NA,NA,NA,NA,NA,NA,NA,NA,NA,NA,NA,NA,NA
a31fe,shallow,flow.Sequence,3_0_1_0_3_1,NA,NA,skipped,NA,247136.59999996,NA,NA,247135.2,247136.69999999,2024-05-31T18:17:13Z,247151.8,NULL,Theorie,nadharia,d,NA,NA,NA,NA,sdfdsf,NA,1,NA,NA,NA,NA,NA,NA,NA,NA,NA,NA,NA,NA,NA,NA,NA,NA,NA,NA,NA
a31fe,task,flow.Sequence,3_0_1_0_3,NA,NA,completion,8528.3,238597,238590.3,238606.9,247135.2,247136.89999998,2024-05-31T18:17:13Z,247151.8,NULL,Theorie,nadharia,d,NA,NA,NA,NA,sdfdsf,NA,1,NA,NA,NA,NA,NA,NA,NA,NA,NA,NA,NA,NA,NA,NA,NA,NA,NA,NA,NA
a31fe,deep,flow.Sequence,3_0_1_0_4_0,NA,NA,skipped,NA,247137.09999996,NA,NA,247135.2,247137.19999999,2024-05-31T18:17:13Z,247151.8,NULL,Erneuerung,ukarabati,s,ushawishi,ukalifu,unyonyaji,NA,sdfdsf,NA,1,NA,NA,NA,NA,NA,NA,NA,NA,NA,NA,NA,NA,NA,NA,NA,NA,NA,NA,NA
a31fe,Shallow Question,html.Page,3_0_1_0_4_1_0,NA,NA,form submission,7051.7,247137.39999998,247135.2,247151.8,254203.5,254203.80000001,2024-05-31T18:17:20Z,254213.8,NULL,Erneuerung,ukarabati,s,ushawishi,ukalifu,unyonyaji,ukalifu,NA,NA,1,NA,NA,NA,NA,NA,NA,NA,NA,NA,NA,NA,NA,NA,NA,NA,NA,NA,NA,NA
a31fe,"""Richtig""-Screen",canvas.Screen,3_0_1_0_4_1_1,NA,NA,skipped,NA,254206.80000001,NA,NA,254203.5,254207,2024-05-31T18:17:20Z,254213.8,NULL,Erneuerung,ukarabati,s,ushawishi,ukalifu,unyonyaji,NA,sdfdsf,NA,1,NA,NA,NA,NA,NA,NA,NA,NA,NA,NA,NA,NA,NA,NA,NA,NA,NA,NA,NA
a31fe,"""Falsch""-Screen",canvas.Screen,3_0_1_0_4_1_2,NA,NA,timeout,4997.4,254207.80000001,254197.8,254213.8,259194.3,259195.30000001,2024-05-31T18:17:25Z,259211.2,NULL,Erneuerung,ukarabati,s,ushawishi,ukalifu,unyonyaji,NA,sdfdsf,0,1,NA,NA,NA,NA,NA,NA,NA,NA,NA,NA,NA,NA,NA,NA,NA,NA,NA,NA,NA
a31fe,shallow,flow.Sequence,3_0_1_0_4_1,NA,NA,completion,12042.5,247137.30000001,247135.2,247151.8,259194.3,259195.59999996,2024-05-31T18:17:25Z,259211.2,NULL,Erneuerung,ukarabati,s,ushawishi,ukalifu,unyonyaji,NA,sdfdsf,NA,1,NA,NA,NA,NA,NA,NA,NA,NA,NA,NA,NA,NA,NA,NA,NA,NA,NA,NA,NA
a31fe,task,flow.Sequence,3_0_1_0_4,NA,NA,completion,12042.5,247137.09999996,247135.2,247151.8,259194.3,259195.80000001,2024-05-31T18:17:25Z,259211.2,NULL,Erneuerung,ukarabati,s,ushawishi,ukalifu,unyonyaji,NA,sdfdsf,NA,1,NA,NA,NA,NA,NA,NA,NA,NA,NA,NA,NA,NA,NA,NA,NA,NA,NA,NA,NA
a31fe,Deep Question,html.Page,3_0_1_0_5_0_0,NA,NA,form submission,3034.9999999881,259196,259194.3,259211.2,262246.19999999,262246.30000001,2024-05-31T18:17:28Z,262258.8,NULL,Flexibilität,kubadilika,d,NA,NA,NA,asd,NA,NA,1,NA,NA,NA,NA,NA,NA,NA,NA,NA,NA,NA,NA,NA,NA,NA,NA,NA,NA,NA
a31fe,"""Richtig""-Screen",canvas.Screen,3_0_1_0_5_0_1,NA,NA,skipped,NA,262247.80000001,NA,NA,262246.19999999,262247.80000001,2024-05-31T18:17:28Z,262258.8,NULL,Flexibilität,kubadilika,d,NA,NA,NA,NA,sdfdsf,NA,1,NA,NA,NA,NA,NA,NA,NA,NA,NA,NA,NA,NA,NA,NA,NA,NA,NA,NA,NA
a31fe,"""Falsch""-Screen",canvas.Screen,3_0_1_0_5_0_2,NA,NA,timeout,4997.4,262248.30000001,262243.7,262258.8,267239.7,267240.5,2024-05-31T18:17:33Z,267256.2,NULL,Flexibilität,kubadilika,d,NA,NA,NA,NA,sdfdsf,0,1,NA,NA,NA,NA,NA,NA,NA,NA,NA,NA,NA,NA,NA,NA,NA,NA,NA,NA,NA
a31fe,deep,flow.Sequence,3_0_1_0_5_0,NA,NA,completion,8028.5,259196,259194.3,259211.2,267239.7,267240.69999999,2024-05-31T18:17:33Z,267256.2,NULL,Flexibilität,kubadilika,d,NA,NA,NA,NA,sdfdsf,NA,1,NA,NA,NA,NA,NA,NA,NA,NA,NA,NA,NA,NA,NA,NA,NA,NA,NA,NA,NA
a31fe,shallow,flow.Sequence,3_0_1_0_5_1,NA,NA,skipped,NA,267240.89999998,NA,NA,267239.7,267241,2024-05-31T18:17:33Z,267256.2,NULL,Flexibilität,kubadilika,d,NA,NA,NA,NA,sdfdsf,NA,1,NA,NA,NA,NA,NA,NA,NA,NA,NA,NA,NA,NA,NA,NA,NA,NA,NA,NA,NA
a31fe,task,flow.Sequence,3_0_1_0_5,NA,NA,completion,8028.5,259195.89999998,259194.3,259211.2,267239.7,267241.19999999,2024-05-31T18:17:33Z,267256.2,NULL,Flexibilität,kubadilika,d,NA,NA,NA,NA,sdfdsf,NA,1,NA,NA,NA,NA,NA,NA,NA,NA,NA,NA,NA,NA,NA,NA,NA,NA,NA,NA,NA
a31fe,deep,flow.Sequence,3_0_1_0_6_0,NA,NA,skipped,NA,267241.39999998,NA,NA,267239.7,267241.39999998,2024-05-31T18:17:33Z,267256.2,NULL,Verpackung,ufungaji,s,uhusiano,upimaji,uchunguzi,NA,sdfdsf,NA,1,NA,NA,NA,NA,NA,NA,NA,NA,NA,NA,NA,NA,NA,NA,NA,NA,NA,NA,NA
a31fe,Shallow Question,html.Page,3_0_1_0_6_1_0,NA,NA,form submission,8275.6000000119,267241.59999996,267239.7,267256.2,275531.80000001,275532.09999996,2024-05-31T18:17:41Z,275534.78,NULL,Verpackung,ufungaji,s,uhusiano,upimaji,uchunguzi,ufungaji,NA,NA,1,NA,NA,NA,NA,NA,NA,NA,NA,NA,NA,NA,NA,NA,NA,NA,NA,NA,NA,NA
a31fe,"""Richtig""-Screen",canvas.Screen,3_0_1_0_6_1_1,NA,NA,timeout,4996.72,275535.19999999,275534.78,275534.78,280514.4,280517.09999996,2024-05-31T18:17:46Z,280531.5,NULL,Verpackung,ufungaji,s,uhusiano,upimaji,uchunguzi,NA,sdfdsf,1,1,NA,NA,NA,NA,NA,NA,NA,NA,NA,NA,NA,NA,NA,NA,NA,NA,NA,NA,NA
a31fe,"""Falsch""-Screen",canvas.Screen,3_0_1_0_6_1_2,NA,NA,skipped,NA,280522.39999998,NA,NA,280514.4,280522.5,2024-05-31T18:17:46Z,280531.5,NULL,Verpackung,ufungaji,s,uhusiano,upimaji,uchunguzi,NA,sdfdsf,NA,1,NA,NA,NA,NA,NA,NA,NA,NA,NA,NA,NA,NA,NA,NA,NA,NA,NA,NA,NA
a31fe,shallow,flow.Sequence,3_0_1_0_6_1,NA,NA,completion,13258.2,267241.59999996,267239.7,267256.2,280514.4,280522.5,2024-05-31T18:17:46Z,280531.5,NULL,Verpackung,ufungaji,s,uhusiano,upimaji,uchunguzi,NA,sdfdsf,NA,1,NA,NA,NA,NA,NA,NA,NA,NA,NA,NA,NA,NA,NA,NA,NA,NA,NA,NA,NA
a31fe,task,flow.Sequence,3_0_1_0_6,NA,NA,completion,13258.2,267241.30000001,267239.7,267256.2,280514.4,280522.59999996,2024-05-31T18:17:46Z,280531.5,NULL,Verpackung,ufungaji,s,uhusiano,upimaji,uchunguzi,NA,sdfdsf,NA,1,NA,NA,NA,NA,NA,NA,NA,NA,NA,NA,NA,NA,NA,NA,NA,NA,NA,NA,NA
a31fe,Deep Question,html.Page,3_0_1_0_7_0_0,NA,NA,form submission,3046.8000000119,280522.59999996,280514.4,280531.5,283578.30000001,283578.59999996,2024-05-31T18:17:49Z,283579.914,NULL,Schock,mshtuko,d,NA,NA,NA,asd,NA,NA,1,NA,NA,NA,NA,NA,NA,NA,NA,NA,NA,NA,NA,NA,NA,NA,NA,NA,NA,NA
a31fe,"""Richtig""-Screen",canvas.Screen,3_0_1_0_7_0_1,NA,NA,skipped,NA,283581.59999996,NA,NA,283578.30000001,283581.69999999,2024-05-31T18:17:49Z,283579.914,NULL,Schock,mshtuko,d,NA,NA,NA,NA,sdfdsf,NA,1,NA,NA,NA,NA,NA,NA,NA,NA,NA,NA,NA,NA,NA,NA,NA,NA,NA,NA,NA
a31fe,"""Falsch""-Screen",canvas.Screen,3_0_1_0_7_0_2,NA,NA,timeout,4996.286,283582.59999996,283579.914,283579.914,288559.5,288560.5,2024-05-31T18:17:54Z,288576.2,NULL,Schock,mshtuko,d,NA,NA,NA,NA,sdfdsf,0,1,NA,NA,NA,NA,NA,NA,NA,NA,NA,NA,NA,NA,NA,NA,NA,NA,NA,NA,NA
a31fe,deep,flow.Sequence,3_0_1_0_7_0,NA,NA,completion,8028,280522.59999996,280514.4,280531.5,288559.5,288560.80000001,2024-05-31T18:17:54Z,288576.2,NULL,Schock,mshtuko,d,NA,NA,NA,NA,sdfdsf,NA,1,NA,NA,NA,NA,NA,NA,NA,NA,NA,NA,NA,NA,NA,NA,NA,NA,NA,NA,NA
a31fe,shallow,flow.Sequence,3_0_1_0_7_1,NA,NA,skipped,NA,288560.89999998,NA,NA,288559.5,288561.19999999,2024-05-31T18:17:54Z,288576.2,NULL,Schock,mshtuko,d,NA,NA,NA,NA,sdfdsf,NA,1,NA,NA,NA,NA,NA,NA,NA,NA,NA,NA,NA,NA,NA,NA,NA,NA,NA,NA,NA
a31fe,task,flow.Sequence,3_0_1_0_7,NA,NA,completion,8028,280522.59999996,280514.4,280531.5,288559.5,288561.39999998,2024-05-31T18:17:54Z,288576.2,NULL,Schock,mshtuko,d,NA,NA,NA,NA,sdfdsf,NA,1,NA,NA,NA,NA,NA,NA,NA,NA,NA,NA,NA,NA,NA,NA,NA,NA,NA,NA,NA
a31fe,block,flow.Loop,3_0_1_0,NA,NA,completion,82948.8,205597.30000001,205593.666,205610.7,288559.5,288561.69999999,2024-05-31T18:17:54Z,288576.2,NULL,NA,NA,NA,NA,NA,NA,NA,sdfdsf,NA,1,NA,NA,NA,NA,NA,NA,NA,NA,NA,NA,NA,NA,NA,NA,NA,NA,NA,NA,NA
a31fe,weiter,canvas.Screen,3_0_1_1,sdf,keypress(Space),response,1683.3999999642,288561.89999998,288559.5,288576.2,290259.59999996,290260.09999996,2024-05-31T18:17:56Z,290275.888,NULL,NA,NA,NA,NA,NA,NA,NA,sdfdsf,NA,1,NA,NA,NA,NA,NA,NA,NA,NA,NA,NA,NA,NA,NA,NA,NA,NA,NA,NA,NA
a31fe,check continue,flow.Sequence,3_0_1,NA,NA,completion,84648.899999964,205597.30000001,205593.666,205610.7,290259.59999996,290260.19999999,2024-05-31T18:17:56Z,290275.888,NULL,NA,NA,NA,NA,NA,NA,NA,sdfdsf,NA,1,NA,NA,NA,NA,NA,NA,NA,NA,NA,NA,NA,NA,NA,NA,NA,NA,NA,NA,NA
a31fe,deep,flow.Sequence,3_0_2_0_0_0,NA,NA,skipped,NA,290280.30000001,NA,NA,290259.59999996,290280.30000001,2024-05-31T18:17:56Z,290275.888,NULL,Verpackung,ufungaji,s,uhusiano,upimaji,uchunguzi,NA,sdf,NA,2,NA,NA,NA,NA,NA,NA,NA,NA,NA,NA,NA,NA,NA,NA,NA,NA,NA,NA,NA
a31fe,Shallow Question,html.Page,3_0_2_0_0_1_0,NA,NA,form submission,5049.4120000119,290280.39999998,290275.888,290275.888,295325.30000001,295325.5,2024-05-31T18:18:01Z,295339.2,NULL,Verpackung,ufungaji,s,uhusiano,upimaji,uchunguzi,ufungaji,NA,NA,2,NA,NA,NA,NA,NA,NA,NA,NA,NA,NA,NA,NA,NA,NA,NA,NA,NA,NA,NA
a31fe,"""Richtig""-Screen",canvas.Screen,3_0_2_0_0_1_1,NA,NA,timeout,4996.9,295328.39999998,295322.592,295339.2,300319.3,300320.5,2024-05-31T18:18:06Z,300336.1,NULL,Verpackung,ufungaji,s,uhusiano,upimaji,uchunguzi,NA,sdf,1,2,NA,NA,NA,NA,NA,NA,NA,NA,NA,NA,NA,NA,NA,NA,NA,NA,NA,NA,NA
a31fe,"""Falsch""-Screen",canvas.Screen,3_0_2_0_0_1_2,NA,NA,skipped,NA,300324.89999998,NA,NA,300319.3,300325.09999996,2024-05-31T18:18:06Z,300336.1,NULL,Verpackung,ufungaji,s,uhusiano,upimaji,uchunguzi,NA,sdf,NA,2,NA,NA,NA,NA,NA,NA,NA,NA,NA,NA,NA,NA,NA,NA,NA,NA,NA,NA,NA
a31fe,shallow,flow.Sequence,3_0_2_0_0_1,NA,NA,completion,10043.412,290280.39999998,290275.888,290275.888,300319.3,300325.19999999,2024-05-31T18:18:06Z,300336.1,NULL,Verpackung,ufungaji,s,uhusiano,upimaji,uchunguzi,NA,sdf,NA,2,NA,NA,NA,NA,NA,NA,NA,NA,NA,NA,NA,NA,NA,NA,NA,NA,NA,NA,NA
a31fe,task,flow.Sequence,3_0_2_0_0,NA,NA,completion,10043.412,290280.30000001,290275.888,290275.888,300319.3,300325.30000001,2024-05-31T18:18:06Z,300336.1,NULL,Verpackung,ufungaji,s,uhusiano,upimaji,uchunguzi,NA,sdf,NA,2,NA,NA,NA,NA,NA,NA,NA,NA,NA,NA,NA,NA,NA,NA,NA,NA,NA,NA,NA
a31fe,Deep Question,html.Page,3_0_2_0_1_0_0,NA,NA,form submission,2728.0999999881,300325.30000001,300319.3,300336.1,303064.19999999,303064.30000001,2024-05-31T18:18:09Z,303067.3,NULL,Flexibilität,kubadilika,d,NA,NA,NA,asd,NA,NA,2,NA,NA,NA,NA,NA,NA,NA,NA,NA,NA,NA,NA,NA,NA,NA,NA,NA,NA,NA
a31fe,"""Richtig""-Screen",canvas.Screen,3_0_2_0_1_0_1,NA,NA,skipped,NA,303065.19999999,NA,NA,303064.19999999,303065.30000001,2024-05-31T18:18:09Z,303067.3,NULL,Flexibilität,kubadilika,d,NA,NA,NA,NA,sdf,NA,2,NA,NA,NA,NA,NA,NA,NA,NA,NA,NA,NA,NA,NA,NA,NA,NA,NA,NA,NA
a31fe,"""Falsch""-Screen",canvas.Screen,3_0_2_0_1_0_2,NA,NA,timeout,4997.3,303066,303051.194,303067.3,308047.9,308049.19999999,2024-05-31T18:18:14Z,308064.6,NULL,Flexibilität,kubadilika,d,NA,NA,NA,NA,sdf,0,2,NA,NA,NA,NA,NA,NA,NA,NA,NA,NA,NA,NA,NA,NA,NA,NA,NA,NA,NA
a31fe,deep,flow.Sequence,3_0_2_0_1_0,NA,NA,completion,7711.8,300325.30000001,300319.3,300336.1,308047.9,308049.5,2024-05-31T18:18:14Z,308064.6,NULL,Flexibilität,kubadilika,d,NA,NA,NA,NA,sdf,NA,2,NA,NA,NA,NA,NA,NA,NA,NA,NA,NA,NA,NA,NA,NA,NA,NA,NA,NA,NA
a31fe,shallow,flow.Sequence,3_0_2_0_1_1,NA,NA,skipped,NA,308049.59999996,NA,NA,308047.9,308049.69999999,2024-05-31T18:18:14Z,308064.6,NULL,Flexibilität,kubadilika,d,NA,NA,NA,NA,sdf,NA,2,NA,NA,NA,NA,NA,NA,NA,NA,NA,NA,NA,NA,NA,NA,NA,NA,NA,NA,NA
a31fe,task,flow.Sequence,3_0_2_0_1,NA,NA,completion,7711.8,300325.30000001,300319.3,300336.1,308047.9,308049.89999998,2024-05-31T18:18:14Z,308064.6,NULL,Flexibilität,kubadilika,d,NA,NA,NA,NA,sdf,NA,2,NA,NA,NA,NA,NA,NA,NA,NA,NA,NA,NA,NA,NA,NA,NA,NA,NA,NA,NA
a31fe,deep,flow.Sequence,3_0_2_0_2_0,NA,NA,skipped,NA,308050,NA,NA,308047.9,308050.19999999,2024-05-31T18:18:14Z,308064.6,NULL,Erneuerung,ukarabati,s,ushawishi,ukalifu,unyonyaji,NA,sdf,NA,2,NA,NA,NA,NA,NA,NA,NA,NA,NA,NA,NA,NA,NA,NA,NA,NA,NA,NA,NA
a31fe,Shallow Question,html.Page,3_0_2_0_2_1_0,NA,NA,form submission,5099.4999999643,308050.30000001,308047.9,308064.6,313164.09999996,313164.39999998,2024-05-31T18:18:19Z,313177.9,NULL,Erneuerung,ukarabati,s,ushawishi,ukalifu,unyonyaji,ukarabati,NA,NA,2,NA,NA,NA,NA,NA,NA,NA,NA,NA,NA,NA,NA,NA,NA,NA,NA,NA,NA,NA
a31fe,"""Richtig""-Screen",canvas.Screen,3_0_2_0_2_1_1,NA,NA,timeout,4997.2,313167.19999999,313161.728,313177.9,318158.4,318159.69999999,2024-05-31T18:18:24Z,318175.1,NULL,Erneuerung,ukarabati,s,ushawishi,ukalifu,unyonyaji,NA,sdf,1,2,NA,NA,NA,NA,NA,NA,NA,NA,NA,NA,NA,NA,NA,NA,NA,NA,NA,NA,NA
a31fe,"""Falsch""-Screen",canvas.Screen,3_0_2_0_2_1_2,NA,NA,skipped,NA,318164.19999999,NA,NA,318158.4,318164.30000001,2024-05-31T18:18:24Z,318175.1,NULL,Erneuerung,ukarabati,s,ushawishi,ukalifu,unyonyaji,NA,sdf,NA,2,NA,NA,NA,NA,NA,NA,NA,NA,NA,NA,NA,NA,NA,NA,NA,NA,NA,NA,NA
a31fe,shallow,flow.Sequence,3_0_2_0_2_1,NA,NA,completion,10093.8,308050.19999999,308047.9,308064.6,318158.4,318164.39999998,2024-05-31T18:18:24Z,318175.1,NULL,Erneuerung,ukarabati,s,ushawishi,ukalifu,unyonyaji,NA,sdf,NA,2,NA,NA,NA,NA,NA,NA,NA,NA,NA,NA,NA,NA,NA,NA,NA,NA,NA,NA,NA
a31fe,task,flow.Sequence,3_0_2_0_2,NA,NA,completion,10093.8,308050,308047.9,308064.6,318158.4,318164.39999998,2024-05-31T18:18:24Z,318175.1,NULL,Erneuerung,ukarabati,s,ushawishi,ukalifu,unyonyaji,NA,sdf,NA,2,NA,NA,NA,NA,NA,NA,NA,NA,NA,NA,NA,NA,NA,NA,NA,NA,NA,NA,NA
a31fe,deep,flow.Sequence,3_0_2_0_3_0,NA,NA,skipped,NA,318164.5,NA,NA,318158.4,318164.5,2024-05-31T18:18:24Z,318175.1,NULL,Wechsel,ugeuzaji,s,utambulisho,kujenga,wasiwasi,NA,sdf,NA,2,NA,NA,NA,NA,NA,NA,NA,NA,NA,NA,NA,NA,NA,NA,NA,NA,NA,NA,NA
a31fe,Shallow Question,html.Page,3_0_2_0_3_1_0,NA,NA,form submission,7622.4999999643,318164.59999996,318158.4,318175.1,325797.59999996,325797.80000001,2024-05-31T18:18:32Z,325803.3,NULL,Wechsel,ugeuzaji,s,utambulisho,kujenga,wasiwasi,ugeuzaji,NA,NA,2,NA,NA,NA,NA,NA,NA,NA,NA,NA,NA,NA,NA,NA,NA,NA,NA,NA,NA,NA
a31fe,"""Richtig""-Screen",canvas.Screen,3_0_2_0_3_1_1,NA,NA,timeout,4997.6,325800.89999998,325787.382,325803.3,330783.9,330784.89999998,2024-05-31T18:18:37Z,330800.9,NULL,Wechsel,ugeuzaji,s,utambulisho,kujenga,wasiwasi,NA,sdf,1,2,NA,NA,NA,NA,NA,NA,NA,NA,NA,NA,NA,NA,NA,NA,NA,NA,NA,NA,NA
a31fe,"""Falsch""-Screen",canvas.Screen,3_0_2_0_3_1_2,NA,NA,skipped,NA,330790.09999996,NA,NA,330783.9,330790.19999999,2024-05-31T18:18:37Z,330800.9,NULL,Wechsel,ugeuzaji,s,utambulisho,kujenga,wasiwasi,NA,sdf,NA,2,NA,NA,NA,NA,NA,NA,NA,NA,NA,NA,NA,NA,NA,NA,NA,NA,NA,NA,NA
a31fe,shallow,flow.Sequence,3_0_2_0_3_1,NA,NA,completion,12608.8,318164.5,318158.4,318175.1,330783.9,330790.30000001,2024-05-31T18:18:37Z,330800.9,NULL,Wechsel,ugeuzaji,s,utambulisho,kujenga,wasiwasi,NA,sdf,NA,2,NA,NA,NA,NA,NA,NA,NA,NA,NA,NA,NA,NA,NA,NA,NA,NA,NA,NA,NA
a31fe,task,flow.Sequence,3_0_2_0_3,NA,NA,completion,12608.8,318164.39999998,318158.4,318175.1,330783.9,330790.30000001,2024-05-31T18:18:37Z,330800.9,NULL,Wechsel,ugeuzaji,s,utambulisho,kujenga,wasiwasi,NA,sdf,NA,2,NA,NA,NA,NA,NA,NA,NA,NA,NA,NA,NA,NA,NA,NA,NA,NA,NA,NA,NA
a31fe,Deep Question,html.Page,3_0_2_0_4_0_0,NA,NA,form submission,4173.2999999881,330790.39999998,330783.9,330800.9,334974.19999999,334974.39999998,2024-05-31T18:18:41Z,334981,NULL,Atmosphäre,angahewa,d,NA,NA,NA,angahewa,NA,NA,2,NA,NA,NA,NA,NA,NA,NA,NA,NA,NA,NA,NA,NA,NA,NA,NA,NA,NA,NA
a31fe,"""Richtig""-Screen",canvas.Screen,3_0_2_0_4_0_1,NA,NA,timeout,4997.5,334977.59999996,334965.514,334981,339961.6,339962.39999998,2024-05-31T18:18:46Z,339978.5,NULL,Atmosphäre,angahewa,d,NA,NA,NA,NA,sdf,1,2,NA,NA,NA,NA,NA,NA,NA,NA,NA,NA,NA,NA,NA,NA,NA,NA,NA,NA,NA
a31fe,"""Falsch""-Screen",canvas.Screen,3_0_2_0_4_0_2,NA,NA,skipped,NA,339967.89999998,NA,NA,339961.6,339968,2024-05-31T18:18:46Z,339978.5,NULL,Atmosphäre,angahewa,d,NA,NA,NA,NA,sdf,NA,2,NA,NA,NA,NA,NA,NA,NA,NA,NA,NA,NA,NA,NA,NA,NA,NA,NA,NA,NA
a31fe,deep,flow.Sequence,3_0_2_0_4_0,NA,NA,completion,9160.7,330790.39999998,330783.9,330800.9,339961.6,339968,2024-05-31T18:18:46Z,339978.5,NULL,Atmosphäre,angahewa,d,NA,NA,NA,NA,sdf,NA,2,NA,NA,NA,NA,NA,NA,NA,NA,NA,NA,NA,NA,NA,NA,NA,NA,NA,NA,NA
a31fe,shallow,flow.Sequence,3_0_2_0_4_1,NA,NA,skipped,NA,339968.09999996,NA,NA,339961.6,339968.09999996,2024-05-31T18:18:46Z,339978.5,NULL,Atmosphäre,angahewa,d,NA,NA,NA,NA,sdf,NA,2,NA,NA,NA,NA,NA,NA,NA,NA,NA,NA,NA,NA,NA,NA,NA,NA,NA,NA,NA
a31fe,task,flow.Sequence,3_0_2_0_4,NA,NA,completion,9160.7,330790.39999998,330783.9,330800.9,339961.6,339968.09999996,2024-05-31T18:18:46Z,339978.5,NULL,Atmosphäre,angahewa,d,NA,NA,NA,NA,sdf,NA,2,NA,NA,NA,NA,NA,NA,NA,NA,NA,NA,NA,NA,NA,NA,NA,NA,NA,NA,NA
a31fe,deep,flow.Sequence,3_0_2_0_5_0,NA,NA,skipped,NA,339968.19999999,NA,NA,339961.6,339968.19999999,2024-05-31T18:18:46Z,339978.5,NULL,Hoffnung,matarajio,s,kutaalamika,uratibu,mvumbuzi,NA,sdf,NA,2,NA,NA,NA,NA,NA,NA,NA,NA,NA,NA,NA,NA,NA,NA,NA,NA,NA,NA,NA
a31fe,Shallow Question,html.Page,3_0_2_0_5_1_0,NA,NA,form submission,8219.8999999762,339968.19999999,339961.6,339978.5,348198.39999998,348198.5,2024-05-31T18:18:54Z,348206.5,NULL,Hoffnung,matarajio,s,kutaalamika,uratibu,mvumbuzi,matarajio,NA,NA,2,NA,NA,NA,NA,NA,NA,NA,NA,NA,NA,NA,NA,NA,NA,NA,NA,NA,NA,NA
a31fe,"""Richtig""-Screen",canvas.Screen,3_0_2_0_5_1_1,NA,NA,timeout,4997.1,348200.5,348190.224,348206.5,353186.7,353187.5,2024-05-31T18:18:59Z,353203.6,NULL,Hoffnung,matarajio,s,kutaalamika,uratibu,mvumbuzi,NA,sdf,1,2,NA,NA,NA,NA,NA,NA,NA,NA,NA,NA,NA,NA,NA,NA,NA,NA,NA,NA,NA
a31fe,"""Falsch""-Screen",canvas.Screen,3_0_2_0_5_1_2,NA,NA,skipped,NA,353192.39999998,NA,NA,353186.7,353192.5,2024-05-31T18:18:59Z,353203.6,NULL,Hoffnung,matarajio,s,kutaalamika,uratibu,mvumbuzi,NA,sdf,NA,2,NA,NA,NA,NA,NA,NA,NA,NA,NA,NA,NA,NA,NA,NA,NA,NA,NA,NA,NA
a31fe,shallow,flow.Sequence,3_0_2_0_5_1,NA,NA,completion,13208.2,339968.19999999,339961.6,339978.5,353186.7,353192.80000001,2024-05-31T18:18:59Z,353203.6,NULL,Hoffnung,matarajio,s,kutaalamika,uratibu,mvumbuzi,NA,sdf,NA,2,NA,NA,NA,NA,NA,NA,NA,NA,NA,NA,NA,NA,NA,NA,NA,NA,NA,NA,NA
a31fe,task,flow.Sequence,3_0_2_0_5,NA,NA,completion,13208.2,339968.09999996,339961.6,339978.5,353186.7,353192.89999998,2024-05-31T18:18:59Z,353203.6,NULL,Hoffnung,matarajio,s,kutaalamika,uratibu,mvumbuzi,NA,sdf,NA,2,NA,NA,NA,NA,NA,NA,NA,NA,NA,NA,NA,NA,NA,NA,NA,NA,NA,NA,NA
a31fe,Deep Question,html.Page,3_0_2_0_6_0_0,NA,NA,form submission,4346.5999999881,353193,353186.7,353203.6,357550.19999999,357550.39999998,2024-05-31T18:19:03Z,357551.99,NULL,Theorie,nadharia,d,NA,NA,NA,mshtuko,NA,NA,2,NA,NA,NA,NA,NA,NA,NA,NA,NA,NA,NA,NA,NA,NA,NA,NA,NA,NA,NA
a31fe,"""Richtig""-Screen",canvas.Screen,3_0_2_0_6_0_1,NA,NA,skipped,NA,357553.39999998,NA,NA,357550.19999999,357553.5,2024-05-31T18:19:03Z,357551.99,NULL,Theorie,nadharia,d,NA,NA,NA,NA,sdf,NA,2,NA,NA,NA,NA,NA,NA,NA,NA,NA,NA,NA,NA,NA,NA,NA,NA,NA,NA,NA
a31fe,"""Falsch""-Screen",canvas.Screen,3_0_2_0_6_0_2,NA,NA,timeout,4996.11,357553.89999998,357551.99,357551.99,362531.4,362532.30000001,2024-05-31T18:19:08Z,362548.1,NULL,Theorie,nadharia,d,NA,NA,NA,NA,sdf,0,2,NA,NA,NA,NA,NA,NA,NA,NA,NA,NA,NA,NA,NA,NA,NA,NA,NA,NA,NA
a31fe,deep,flow.Sequence,3_0_2_0_6_0,NA,NA,completion,9327.8,353193,353186.7,353203.6,362531.4,362532.59999996,2024-05-31T18:19:08Z,362548.1,NULL,Theorie,nadharia,d,NA,NA,NA,NA,sdf,NA,2,NA,NA,NA,NA,NA,NA,NA,NA,NA,NA,NA,NA,NA,NA,NA,NA,NA,NA,NA
a31fe,shallow,flow.Sequence,3_0_2_0_6_1,NA,NA,skipped,NA,362532.80000001,NA,NA,362531.4,362532.89999998,2024-05-31T18:19:08Z,362548.1,NULL,Theorie,nadharia,d,NA,NA,NA,NA,sdf,NA,2,NA,NA,NA,NA,NA,NA,NA,NA,NA,NA,NA,NA,NA,NA,NA,NA,NA,NA,NA
a31fe,task,flow.Sequence,3_0_2_0_6,NA,NA,completion,9327.8,353192.89999998,353186.7,353203.6,362531.4,362533,2024-05-31T18:19:08Z,362548.1,NULL,Theorie,nadharia,d,NA,NA,NA,NA,sdf,NA,2,NA,NA,NA,NA,NA,NA,NA,NA,NA,NA,NA,NA,NA,NA,NA,NA,NA,NA,NA
a31fe,Deep Question,html.Page,3_0_2_0_7_0_0,NA,NA,form submission,3938.2000000119,362533.19999999,362531.4,362548.1,366486.30000001,366486.5,2024-05-31T18:19:12Z,366495.2,NULL,Schock,mshtuko,d,NA,NA,NA,mshtuko,NA,NA,2,NA,NA,NA,NA,NA,NA,NA,NA,NA,NA,NA,NA,NA,NA,NA,NA,NA,NA,NA
a31fe,"""Richtig""-Screen",canvas.Screen,3_0_2_0_7_0_1,NA,NA,timeout,4996.8,366489.5,366479.974,366495.2,371475.8,371476.80000001,2024-05-31T18:19:17Z,371492,NULL,Schock,mshtuko,d,NA,NA,NA,NA,sdf,1,2,NA,NA,NA,NA,NA,NA,NA,NA,NA,NA,NA,NA,NA,NA,NA,NA,NA,NA,NA
a31fe,"""Falsch""-Screen",canvas.Screen,3_0_2_0_7_0_2,NA,NA,skipped,NA,371481.5,NA,NA,371475.8,371481.59999996,2024-05-31T18:19:17Z,371492,NULL,Schock,mshtuko,d,NA,NA,NA,NA,sdf,NA,2,NA,NA,NA,NA,NA,NA,NA,NA,NA,NA,NA,NA,NA,NA,NA,NA,NA,NA,NA
a31fe,deep,flow.Sequence,3_0_2_0_7_0,NA,NA,completion,8927.7,362533.19999999,362531.4,362548.1,371475.8,371481.69999999,2024-05-31T18:19:17Z,371492,NULL,Schock,mshtuko,d,NA,NA,NA,NA,sdf,NA,2,NA,NA,NA,NA,NA,NA,NA,NA,NA,NA,NA,NA,NA,NA,NA,NA,NA,NA,NA
a31fe,shallow,flow.Sequence,3_0_2_0_7_1,NA,NA,skipped,NA,371481.80000001,NA,NA,371475.8,371481.80000001,2024-05-31T18:19:17Z,371492,NULL,Schock,mshtuko,d,NA,NA,NA,NA,sdf,NA,2,NA,NA,NA,NA,NA,NA,NA,NA,NA,NA,NA,NA,NA,NA,NA,NA,NA,NA,NA
a31fe,task,flow.Sequence,3_0_2_0_7,NA,NA,completion,8927.7,362533.09999996,362531.4,362548.1,371475.8,371481.80000001,2024-05-31T18:19:17Z,371492,NULL,Schock,mshtuko,d,NA,NA,NA,NA,sdf,NA,2,NA,NA,NA,NA,NA,NA,NA,NA,NA,NA,NA,NA,NA,NA,NA,NA,NA,NA,NA
a31fe,block,flow.Loop,3_0_2_0,NA,NA,completion,81199.912,290280.19999999,290275.888,290275.888,371475.8,371481.80000001,2024-05-31T18:19:17Z,371492,NULL,NA,NA,NA,NA,NA,NA,NA,sdf,NA,2,NA,NA,NA,NA,NA,NA,NA,NA,NA,NA,NA,NA,NA,NA,NA,NA,NA,NA,NA
a31fe,weiter,canvas.Screen,3_0_2_1,sdf,keypress(Space),response,1355.5999999642,371481.89999998,371475.8,371492,372847.59999996,372848.39999998,2024-05-31T18:19:19Z,373191.1,NULL,NA,NA,NA,NA,NA,NA,NA,sdf,NA,2,NA,NA,NA,NA,NA,NA,NA,NA,NA,NA,NA,NA,NA,NA,NA,NA,NA,NA,NA
a31fe,check continue,flow.Sequence,3_0_2,NA,NA,completion,82571.711999964,290280.19999999,290275.888,290275.888,372847.59999996,372848.59999996,2024-05-31T18:19:19Z,373191.1,NULL,NA,NA,NA,NA,NA,NA,NA,sdf,NA,2,NA,NA,NA,NA,NA,NA,NA,NA,NA,NA,NA,NA,NA,NA,NA,NA,NA,NA,NA
a31fe,check continue,flow.Sequence,3_0_3,NA,NA,skipped,NA,372867.19999999,NA,NA,372847.59999996,372867.19999999,2024-05-31T18:19:19Z,373191.1,NULL,NA,NA,NA,NA,NA,NA,NA,qt,NA,3,NA,NA,NA,NA,NA,NA,NA,NA,NA,NA,NA,NA,NA,NA,NA,NA,NA,NA,NA
a31fe,check continue,flow.Sequence,3_0_4,NA,NA,skipped,NA,372885.39999998,NA,NA,372847.59999996,372885.59999996,2024-05-31T18:19:19Z,373191.1,NULL,NA,NA,NA,NA,NA,NA,NA,sd,NA,4,NA,NA,NA,NA,NA,NA,NA,NA,NA,NA,NA,NA,NA,NA,NA,NA,NA,NA,NA
a31fe,check continue,flow.Sequence,3_0_5,NA,NA,skipped,NA,372899.5,NA,NA,372847.59999996,372899.5,2024-05-31T18:19:19Z,373191.1,NULL,NA,NA,NA,NA,NA,NA,NA,sdf,NA,5,NA,NA,NA,NA,NA,NA,NA,NA,NA,NA,NA,NA,NA,NA,NA,NA,NA,NA,NA
a31fe,check continue,flow.Sequence,3_0_6,NA,NA,skipped,NA,372912.59999996,NA,NA,372847.59999996,372912.80000001,2024-05-31T18:19:19Z,373191.1,NULL,NA,NA,NA,NA,NA,NA,NA,dfs,NA,6,NA,NA,NA,NA,NA,NA,NA,NA,NA,NA,NA,NA,NA,NA,NA,NA,NA,NA,NA
a31fe,check continue,flow.Sequence,3_0_7,NA,NA,skipped,NA,372925.69999999,NA,NA,372847.59999996,372925.80000001,2024-05-31T18:19:19Z,373191.1,NULL,NA,NA,NA,NA,NA,NA,NA,df,NA,7,NA,NA,NA,NA,NA,NA,NA,NA,NA,NA,NA,NA,NA,NA,NA,NA,NA,NA,NA
a31fe,check continue,flow.Sequence,3_0_8,NA,NA,skipped,NA,372938.30000001,NA,NA,372847.59999996,372938.39999998,2024-05-31T18:19:19Z,373191.1,NULL,NA,NA,NA,NA,NA,NA,NA,dfs,NA,8,NA,NA,NA,NA,NA,NA,NA,NA,NA,NA,NA,NA,NA,NA,NA,NA,NA,NA,NA
a31fe,check continue,flow.Sequence,3_0_9,NA,NA,skipped,NA,372950.59999996,NA,NA,372847.59999996,372950.69999999,2024-05-31T18:19:19Z,373191.1,NULL,NA,NA,NA,NA,NA,NA,NA,dsf,NA,9,NA,NA,NA,NA,NA,NA,NA,NA,NA,NA,NA,NA,NA,NA,NA,NA,NA,NA,NA
a31fe,check continue,flow.Sequence,3_0_10,NA,NA,skipped,NA,372963.39999998,NA,NA,372847.59999996,372963.39999998,2024-05-31T18:19:19Z,373191.1,NULL,NA,NA,NA,NA,NA,NA,NA,df,NA,10,NA,NA,NA,NA,NA,NA,NA,NA,NA,NA,NA,NA,NA,NA,NA,NA,NA,NA,NA
a31fe,check continue,flow.Sequence,3_0_11,NA,NA,skipped,NA,372975.19999999,NA,NA,372847.59999996,372975.30000001,2024-05-31T18:19:19Z,373191.1,NULL,NA,NA,NA,NA,NA,NA,NA,dfs,NA,11,NA,NA,NA,NA,NA,NA,NA,NA,NA,NA,NA,NA,NA,NA,NA,NA,NA,NA,NA
a31fe,check continue,flow.Sequence,3_0_12,NA,NA,skipped,NA,372986.39999998,NA,NA,372847.59999996,372986.59999996,2024-05-31T18:19:19Z,373191.1,NULL,NA,NA,NA,NA,NA,NA,NA,dsf,NA,12,NA,NA,NA,NA,NA,NA,NA,NA,NA,NA,NA,NA,NA,NA,NA,NA,NA,NA,NA
a31fe,check continue,flow.Sequence,3_0_13,NA,NA,skipped,NA,372998.39999998,NA,NA,372847.59999996,372998.5,2024-05-31T18:19:19Z,373191.1,NULL,NA,NA,NA,NA,NA,NA,NA,dsf,NA,13,NA,NA,NA,NA,NA,NA,NA,NA,NA,NA,NA,NA,NA,NA,NA,NA,NA,NA,NA
a31fe,check continue,flow.Sequence,3_0_14,NA,NA,skipped,NA,373009.80000001,NA,NA,372847.59999996,373009.89999998,2024-05-31T18:19:19Z,373191.1,NULL,NA,NA,NA,NA,NA,NA,NA,NA,NA,14,NA,NA,NA,NA,NA,NA,NA,NA,NA,NA,NA,NA,NA,NA,NA,NA,NA,NA,NA
a31fe,check continue,flow.Sequence,3_0_15,NA,NA,skipped,NA,373021.5,NA,NA,372847.59999996,373021.5,2024-05-31T18:19:19Z,373191.1,NULL,NA,NA,NA,NA,NA,NA,NA,NA,NA,15,NA,NA,NA,NA,NA,NA,NA,NA,NA,NA,NA,NA,NA,NA,NA,NA,NA,NA,NA
a31fe,check continue,flow.Sequence,3_0_16,NA,NA,skipped,NA,373032.89999998,NA,NA,372847.59999996,373032.89999998,2024-05-31T18:19:19Z,373191.1,NULL,NA,NA,NA,NA,NA,NA,NA,NA,NA,16,NA,NA,NA,NA,NA,NA,NA,NA,NA,NA,NA,NA,NA,NA,NA,NA,NA,NA,NA
a31fe,check continue,flow.Sequence,3_0_17,NA,NA,skipped,NA,373043.69999999,NA,NA,372847.59999996,373043.69999999,2024-05-31T18:19:19Z,373191.1,NULL,NA,NA,NA,NA,NA,NA,NA,NA,NA,17,NA,NA,NA,NA,NA,NA,NA,NA,NA,NA,NA,NA,NA,NA,NA,NA,NA,NA,NA
a31fe,check continue,flow.Sequence,3_0_18,NA,NA,skipped,NA,373056.09999996,NA,NA,372847.59999996,373056.09999996,2024-05-31T18:19:19Z,373191.1,NULL,NA,NA,NA,NA,NA,NA,NA,NA,NA,18,NA,NA,NA,NA,NA,NA,NA,NA,NA,NA,NA,NA,NA,NA,NA,NA,NA,NA,NA
a31fe,check continue,flow.Sequence,3_0_19,NA,NA,skipped,NA,373067.09999996,NA,NA,372847.59999996,373067.19999999,2024-05-31T18:19:19Z,373191.1,NULL,NA,NA,NA,NA,NA,NA,NA,NA,NA,19,NA,NA,NA,NA,NA,NA,NA,NA,NA,NA,NA,NA,NA,NA,NA,NA,NA,NA,NA
a31fe,check continue,flow.Sequence,3_0_20,NA,NA,skipped,NA,373079,NA,NA,372847.59999996,373079.09999996,2024-05-31T18:19:19Z,373191.1,NULL,NA,NA,NA,NA,NA,NA,NA,NA,NA,20,NA,NA,NA,NA,NA,NA,NA,NA,NA,NA,NA,NA,NA,NA,NA,NA,NA,NA,NA
a31fe,check continue,flow.Sequence,3_0_21,NA,NA,skipped,NA,373090.5,NA,NA,372847.59999996,373090.59999996,2024-05-31T18:19:19Z,373191.1,NULL,NA,NA,NA,NA,NA,NA,NA,NA,NA,21,NA,NA,NA,NA,NA,NA,NA,NA,NA,NA,NA,NA,NA,NA,NA,NA,NA,NA,NA
a31fe,check continue,flow.Sequence,3_0_22,NA,NA,skipped,NA,373102.80000001,NA,NA,372847.59999996,373103,2024-05-31T18:19:19Z,373191.1,NULL,NA,NA,NA,NA,NA,NA,NA,NA,NA,22,NA,NA,NA,NA,NA,NA,NA,NA,NA,NA,NA,NA,NA,NA,NA,NA,NA,NA,NA
a31fe,check continue,flow.Sequence,3_0_23,NA,NA,skipped,NA,373114.89999998,NA,NA,372847.59999996,373114.89999998,2024-05-31T18:19:19Z,373191.1,NULL,NA,NA,NA,NA,NA,NA,NA,NA,NA,23,NA,NA,NA,NA,NA,NA,NA,NA,NA,NA,NA,NA,NA,NA,NA,NA,NA,NA,NA
a31fe,check continue,flow.Sequence,3_0_24,NA,NA,skipped,NA,373125.59999996,NA,NA,372847.59999996,373125.69999999,2024-05-31T18:19:19Z,373191.1,NULL,NA,NA,NA,NA,NA,NA,NA,NA,NA,24,NA,NA,NA,NA,NA,NA,NA,NA,NA,NA,NA,NA,NA,NA,NA,NA,NA,NA,NA
a31fe,check continue,flow.Sequence,3_0_25,NA,NA,skipped,NA,373137.59999996,NA,NA,372847.59999996,373137.69999999,2024-05-31T18:19:19Z,373191.1,NULL,NA,NA,NA,NA,NA,NA,NA,NA,NA,25,NA,NA,NA,NA,NA,NA,NA,NA,NA,NA,NA,NA,NA,NA,NA,NA,NA,NA,NA
a31fe,check continue,flow.Sequence,3_0_26,NA,NA,skipped,NA,373150.39999998,NA,NA,372847.59999996,373150.5,2024-05-31T18:19:19Z,373191.1,NULL,NA,NA,NA,NA,NA,NA,NA,NA,NA,26,NA,NA,NA,NA,NA,NA,NA,NA,NA,NA,NA,NA,NA,NA,NA,NA,NA,NA,NA
a31fe,check continue,flow.Sequence,3_0_27,NA,NA,skipped,NA,373162,NA,NA,372847.59999996,373162,2024-05-31T18:19:19Z,373191.1,NULL,NA,NA,NA,NA,NA,NA,NA,NA,NA,27,NA,NA,NA,NA,NA,NA,NA,NA,NA,NA,NA,NA,NA,NA,NA,NA,NA,NA,NA
a31fe,check continue,flow.Sequence,3_0_28,NA,NA,skipped,NA,373172.69999999,NA,NA,372847.59999996,373172.89999998,2024-05-31T18:19:19Z,373191.1,NULL,NA,NA,NA,NA,NA,NA,NA,NA,NA,28,NA,NA,NA,NA,NA,NA,NA,NA,NA,NA,NA,NA,NA,NA,NA,NA,NA,NA,NA
a31fe,check continue,flow.Sequence,3_0_29,NA,NA,skipped,NA,373185.30000001,NA,NA,372847.59999996,373185.30000001,2024-05-31T18:19:19Z,373191.1,NULL,NA,NA,NA,NA,NA,NA,NA,NA,NA,29,NA,NA,NA,NA,NA,NA,NA,NA,NA,NA,NA,NA,NA,NA,NA,NA,NA,NA,NA
a31fe,until continue,flow.Loop,3_0,NA,NA,completion,249803.59999996,123033,123033.276,123044,372847.59999996,373185.39999998,2024-05-31T18:19:19Z,373191.1,NULL,NA,NA,NA,NA,NA,NA,NA,NA,NA,NA,NA,NA,NA,NA,NA,NA,NA,NA,NA,NA,NA,NA,NA,NA,NA,NA,NA,NA,NA
a31fe,block 1,flow.Sequence,3,NA,NA,completion,249803.59999996,123033,123033.276,123044,372847.59999996,373185.39999998,2024-05-31T18:19:19Z,373191.1,NULL,NA,NA,NA,NA,NA,NA,NA,NA,NA,NA,NA,NA,NA,NA,NA,NA,NA,NA,NA,NA,NA,NA,NA,NA,NA,NA,NA,NA,NA
a31fe,1.Part Over,canvas.Screen,4,NA,keypress(Space),response,2671.9,373185.5,373177.3,373191.1,375863,375864,2024-05-31T18:19:22Z,375923.9,NULL,NA,NA,NA,NA,NA,NA,NA,NA,NA,NA,NA,NA,NA,NA,NA,NA,NA,NA,NA,NA,NA,NA,NA,NA,NA,NA,NA,NA,NA
a31fe,deep,flow.Sequence,5_0_0_0_0_0,NA,NA,skipped,NA,375904.80000001,NA,NA,375863,375904.89999998,2024-05-31T18:19:22Z,375923.9,NULL,Orientierung,urekebisho,s,uelekeo,marekebisho,utunzaji,NA,sdf,NA,0,NA,NA,NA,NA,NA,NA,NA,NA,NA,NA,NA,NA,NA,NA,NA,NA,NA,NA,NA
a31fe,Shallow Question,html.Page,5_0_0_0_0_1_0,NA,NA,form submission,6493.1999999642,375904.89999998,375904.1,375923.9,382417.09999996,382417.30000001,2024-05-31T18:19:28Z,382419.362,NULL,Orientierung,urekebisho,s,uelekeo,marekebisho,utunzaji,marekebisho,NA,NA,0,NA,NA,NA,NA,NA,NA,NA,NA,NA,NA,NA,NA,NA,NA,NA,NA,NA,NA,NA
a31fe,"""Richtig""-Screen",canvas.Screen,5_0_0_0_0_1_1,NA,NA,skipped,NA,382421.19999999,NA,NA,382417.09999996,382421.30000001,2024-05-31T18:19:28Z,382419.362,NULL,Orientierung,urekebisho,s,uelekeo,marekebisho,utunzaji,NA,sdf,NA,0,NA,NA,NA,NA,NA,NA,NA,NA,NA,NA,NA,NA,NA,NA,NA,NA,NA,NA,NA
a31fe,"""Falsch""-Screen",canvas.Screen,5_0_0_0_0_1_2,NA,NA,timeout,4996.838,382422.09999996,382419.362,382419.362,387399.2,387400.19999999,2024-05-31T18:19:33Z,387416.2,NULL,Orientierung,urekebisho,s,uelekeo,marekebisho,utunzaji,NA,sdf,0,0,NA,NA,NA,NA,NA,NA,NA,NA,NA,NA,NA,NA,NA,NA,NA,NA,NA,NA,NA
a31fe,shallow,flow.Sequence,5_0_0_0_0_1,NA,NA,completion,11475.3,375904.89999998,375904.1,375923.9,387399.2,387400.59999996,2024-05-31T18:19:33Z,387416.2,NULL,Orientierung,urekebisho,s,uelekeo,marekebisho,utunzaji,NA,sdf,NA,0,NA,NA,NA,NA,NA,NA,NA,NA,NA,NA,NA,NA,NA,NA,NA,NA,NA,NA,NA
a31fe,task,flow.Sequence,5_0_0_0_0,NA,NA,completion,11475.3,375904.80000001,375904.1,375923.9,387399.2,387400.80000001,2024-05-31T18:19:33Z,387416.2,NULL,Orientierung,urekebisho,s,uelekeo,marekebisho,utunzaji,NA,sdf,NA,0,NA,NA,NA,NA,NA,NA,NA,NA,NA,NA,NA,NA,NA,NA,NA,NA,NA,NA,NA
a31fe,deep,flow.Sequence,5_0_0_0_1_0,NA,NA,skipped,NA,387400.89999998,NA,NA,387399.2,387401.09999996,2024-05-31T18:19:33Z,387416.2,NULL,Respekt,heshima,s,changamnao,upinzani,ufanisi,NA,sdf,NA,0,NA,NA,NA,NA,NA,NA,NA,NA,NA,NA,NA,NA,NA,NA,NA,NA,NA,NA,NA
a31fe,Shallow Question,html.Page,5_0_0_0_1_1_0,NA,NA,form submission,3618.9999999881,387401.30000001,387399.2,387416.2,391035.19999999,391035.59999996,2024-05-31T18:19:37Z,391047,NULL,Respekt,heshima,s,changamnao,upinzani,ufanisi,ufanisi,NA,NA,0,NA,NA,NA,NA,NA,NA,NA,NA,NA,NA,NA,NA,NA,NA,NA,NA,NA,NA,NA
a31fe,"""Richtig""-Screen",canvas.Screen,5_0_0_0_1_1_1,NA,NA,skipped,NA,391038.80000001,NA,NA,391035.19999999,391038.89999998,2024-05-31T18:19:37Z,391047,NULL,Respekt,heshima,s,changamnao,upinzani,ufanisi,NA,sdf,NA,0,NA,NA,NA,NA,NA,NA,NA,NA,NA,NA,NA,NA,NA,NA,NA,NA,NA,NA,NA
a31fe,"""Falsch""-Screen",canvas.Screen,5_0_0_0_1_1_2,NA,NA,timeout,4997.1,391039.59999996,391030.596,391047,396027.5,396028.39999998,2024-05-31T18:19:42Z,396044.1,NULL,Respekt,heshima,s,changamnao,upinzani,ufanisi,NA,sdf,0,0,NA,NA,NA,NA,NA,NA,NA,NA,NA,NA,NA,NA,NA,NA,NA,NA,NA,NA,NA
a31fe,shallow,flow.Sequence,5_0_0_0_1_1,NA,NA,completion,8611.3,387401.09999996,387399.2,387416.2,396027.5,396028.69999999,2024-05-31T18:19:42Z,396044.1,NULL,Respekt,heshima,s,changamnao,upinzani,ufanisi,NA,sdf,NA,0,NA,NA,NA,NA,NA,NA,NA,NA,NA,NA,NA,NA,NA,NA,NA,NA,NA,NA,NA
a31fe,task,flow.Sequence,5_0_0_0_1,NA,NA,completion,8611.3,387400.80000001,387399.2,387416.2,396027.5,396028.89999998,2024-05-31T18:19:42Z,396044.1,NULL,Respekt,heshima,s,changamnao,upinzani,ufanisi,NA,sdf,NA,0,NA,NA,NA,NA,NA,NA,NA,NA,NA,NA,NA,NA,NA,NA,NA,NA,NA,NA,NA
a31fe,Deep Question,html.Page,5_0_0_0_2_0_0,NA,NA,form submission,3673.5999999881,396029.09999996,396027.5,396044.1,399717.69999999,399717.89999998,2024-05-31T18:19:46Z,399724.8,NULL,Ergänzung,kijalizo,d,NA,NA,NA,asd,NA,NA,0,NA,NA,NA,NA,NA,NA,NA,NA,NA,NA,NA,NA,NA,NA,NA,NA,NA,NA,NA
a31fe,"""Richtig""-Screen",canvas.Screen,5_0_0_0_2_0_1,NA,NA,skipped,NA,399721,NA,NA,399717.69999999,399721.09999996,2024-05-31T18:19:46Z,399724.8,NULL,Ergänzung,kijalizo,d,NA,NA,NA,NA,sdf,NA,0,NA,NA,NA,NA,NA,NA,NA,NA,NA,NA,NA,NA,NA,NA,NA,NA,NA,NA,NA
a31fe,"""Falsch""-Screen",canvas.Screen,5_0_0_0_2_0_2,NA,NA,timeout,4997.4,399721.5,399708.8,399724.8,404705.4,404706.89999998,2024-05-31T18:19:51Z,404722.2,NULL,Ergänzung,kijalizo,d,NA,NA,NA,NA,sdf,0,0,NA,NA,NA,NA,NA,NA,NA,NA,NA,NA,NA,NA,NA,NA,NA,NA,NA,NA,NA
a31fe,deep,flow.Sequence,5_0_0_0_2_0,NA,NA,completion,8661.3,396029.09999996,396027.5,396044.1,404705.4,404707.39999998,2024-05-31T18:19:51Z,404722.2,NULL,Ergänzung,kijalizo,d,NA,NA,NA,NA,sdf,NA,0,NA,NA,NA,NA,NA,NA,NA,NA,NA,NA,NA,NA,NA,NA,NA,NA,NA,NA,NA
a31fe,shallow,flow.Sequence,5_0_0_0_2_1,NA,NA,skipped,NA,404707.5,NA,NA,404705.4,404707.59999996,2024-05-31T18:19:51Z,404722.2,NULL,Ergänzung,kijalizo,d,NA,NA,NA,NA,sdf,NA,0,NA,NA,NA,NA,NA,NA,NA,NA,NA,NA,NA,NA,NA,NA,NA,NA,NA,NA,NA
a31fe,task,flow.Sequence,5_0_0_0_2,NA,NA,completion,8661.3,396029.09999996,396027.5,396044.1,404705.4,404707.89999998,2024-05-31T18:19:51Z,404722.2,NULL,Ergänzung,kijalizo,d,NA,NA,NA,NA,sdf,NA,0,NA,NA,NA,NA,NA,NA,NA,NA,NA,NA,NA,NA,NA,NA,NA,NA,NA,NA,NA
a31fe,deep,flow.Sequence,5_0_0_0_3_0,NA,NA,skipped,NA,404708.09999996,NA,NA,404705.4,404708.30000001,2024-05-31T18:19:51Z,404722.2,NULL,Vergnügen,kichekesho,s,dubwana,mpanuko,mtesaji,NA,sdf,NA,0,NA,NA,NA,NA,NA,NA,NA,NA,NA,NA,NA,NA,NA,NA,NA,NA,NA,NA,NA
a31fe,Shallow Question,html.Page,5_0_0_0_3_1_0,NA,NA,form submission,6698.3,404708.39999998,404705.4,404722.2,411420.5,411420.59999996,2024-05-31T18:19:57Z,411434.3,NULL,Vergnügen,kichekesho,s,dubwana,mpanuko,mtesaji,dubwana,NA,NA,0,NA,NA,NA,NA,NA,NA,NA,NA,NA,NA,NA,NA,NA,NA,NA,NA,NA,NA,NA
a31fe,"""Richtig""-Screen",canvas.Screen,5_0_0_0_3_1_1,NA,NA,skipped,NA,411422.09999996,NA,NA,411420.5,411422.19999999,2024-05-31T18:19:57Z,411434.3,NULL,Vergnügen,kichekesho,s,dubwana,mpanuko,mtesaji,NA,sdf,NA,0,NA,NA,NA,NA,NA,NA,NA,NA,NA,NA,NA,NA,NA,NA,NA,NA,NA,NA,NA
a31fe,"""Falsch""-Screen",canvas.Screen,5_0_0_0_3_1_2,NA,NA,timeout,4997.5,411422.5,411418.262,411434.3,416414.8,416415.89999998,2024-05-31T18:20:02Z,416431.8,NULL,Vergnügen,kichekesho,s,dubwana,mpanuko,mtesaji,NA,sdf,0,0,NA,NA,NA,NA,NA,NA,NA,NA,NA,NA,NA,NA,NA,NA,NA,NA,NA,NA,NA
a31fe,shallow,flow.Sequence,5_0_0_0_3_1,NA,NA,completion,11692.6,404708.30000001,404705.4,404722.2,416414.8,416416.30000001,2024-05-31T18:20:02Z,416431.8,NULL,Vergnügen,kichekesho,s,dubwana,mpanuko,mtesaji,NA,sdf,NA,0,NA,NA,NA,NA,NA,NA,NA,NA,NA,NA,NA,NA,NA,NA,NA,NA,NA,NA,NA
a31fe,task,flow.Sequence,5_0_0_0_3,NA,NA,completion,11692.6,404708,404705.4,404722.2,416414.8,416416.5,2024-05-31T18:20:02Z,416431.8,NULL,Vergnügen,kichekesho,s,dubwana,mpanuko,mtesaji,NA,sdf,NA,0,NA,NA,NA,NA,NA,NA,NA,NA,NA,NA,NA,NA,NA,NA,NA,NA,NA,NA,NA
a31fe,Deep Question,html.Page,5_0_0_0_4_0_0,NA,NA,form submission,2936.3999999881,416416.80000001,416414.8,416431.8,419368.19999999,419368.39999998,2024-05-31T18:20:05Z,419379.5,NULL,Wohlstand,mafanikio,d,NA,NA,NA,kializo,NA,NA,0,NA,NA,NA,NA,NA,NA,NA,NA,NA,NA,NA,NA,NA,NA,NA,NA,NA,NA,NA
a31fe,"""Richtig""-Screen",canvas.Screen,5_0_0_0_4_0_1,NA,NA,skipped,NA,419371.5,NA,NA,419368.19999999,419371.69999999,2024-05-31T18:20:05Z,419379.5,NULL,Wohlstand,mafanikio,d,NA,NA,NA,NA,sdf,NA,0,NA,NA,NA,NA,NA,NA,NA,NA,NA,NA,NA,NA,NA,NA,NA,NA,NA,NA,NA
a31fe,"""Falsch""-Screen",canvas.Screen,5_0_0_0_4_0_2,NA,NA,timeout,4997.4,419372.59999996,419364.102,419379.5,424359.8,424360.80000001,2024-05-31T18:20:10Z,424376.9,NULL,Wohlstand,mafanikio,d,NA,NA,NA,NA,sdf,0,0,NA,NA,NA,NA,NA,NA,NA,NA,NA,NA,NA,NA,NA,NA,NA,NA,NA,NA,NA
a31fe,deep,flow.Sequence,5_0_0_0_4_0,NA,NA,completion,7928,416416.69999999,416414.8,416431.8,424359.8,424361.19999999,2024-05-31T18:20:10Z,424376.9,NULL,Wohlstand,mafanikio,d,NA,NA,NA,NA,sdf,NA,0,NA,NA,NA,NA,NA,NA,NA,NA,NA,NA,NA,NA,NA,NA,NA,NA,NA,NA,NA
a31fe,shallow,flow.Sequence,5_0_0_0_4_1,NA,NA,skipped,NA,424361.39999998,NA,NA,424359.8,424361.5,2024-05-31T18:20:10Z,424376.9,NULL,Wohlstand,mafanikio,d,NA,NA,NA,NA,sdf,NA,0,NA,NA,NA,NA,NA,NA,NA,NA,NA,NA,NA,NA,NA,NA,NA,NA,NA,NA,NA
a31fe,task,flow.Sequence,5_0_0_0_4,NA,NA,completion,7928,416416.59999996,416414.8,416431.8,424359.8,424361.69999999,2024-05-31T18:20:10Z,424376.9,NULL,Wohlstand,mafanikio,d,NA,NA,NA,NA,sdf,NA,0,NA,NA,NA,NA,NA,NA,NA,NA,NA,NA,NA,NA,NA,NA,NA,NA,NA,NA,NA
a31fe,deep,flow.Sequence,5_0_0_0_5_0,NA,NA,skipped,NA,424361.80000001,NA,NA,424359.8,424362,2024-05-31T18:20:10Z,424376.9,NULL,Notfall,dharura,s,rairai,malalamiko,ahueni,NA,sdf,NA,0,NA,NA,NA,NA,NA,NA,NA,NA,NA,NA,NA,NA,NA,NA,NA,NA,NA,NA,NA
a31fe,Shallow Question,html.Page,5_0_0_0_5_1_0,NA,NA,form submission,4232.6,424362.19999999,424359.8,424376.9,428609.5,428609.59999996,2024-05-31T18:20:14Z,428624.2,NULL,Notfall,dharura,s,rairai,malalamiko,ahueni,malalamiko,NA,NA,0,NA,NA,NA,NA,NA,NA,NA,NA,NA,NA,NA,NA,NA,NA,NA,NA,NA,NA,NA
a31fe,"""Richtig""-Screen",canvas.Screen,5_0_0_0_5_1_1,NA,NA,skipped,NA,428612.39999998,NA,NA,428609.5,428612.5,2024-05-31T18:20:14Z,428624.2,NULL,Notfall,dharura,s,rairai,malalamiko,ahueni,NA,sdf,NA,0,NA,NA,NA,NA,NA,NA,NA,NA,NA,NA,NA,NA,NA,NA,NA,NA,NA,NA,NA
a31fe,"""Falsch""-Screen",canvas.Screen,5_0_0_0_5_1_2,NA,NA,timeout,4997.1,428613.09999996,428607.658,428624.2,433604.4,433605.09999996,2024-05-31T18:20:19Z,433621.3,NULL,Notfall,dharura,s,rairai,malalamiko,ahueni,NA,sdf,0,0,NA,NA,NA,NA,NA,NA,NA,NA,NA,NA,NA,NA,NA,NA,NA,NA,NA,NA,NA
a31fe,shallow,flow.Sequence,5_0_0_0_5_1,NA,NA,completion,9227.5,424362,424359.8,424376.9,433604.4,433605.59999996,2024-05-31T18:20:19Z,433621.3,NULL,Notfall,dharura,s,rairai,malalamiko,ahueni,NA,sdf,NA,0,NA,NA,NA,NA,NA,NA,NA,NA,NA,NA,NA,NA,NA,NA,NA,NA,NA,NA,NA
a31fe,task,flow.Sequence,5_0_0_0_5,NA,NA,completion,9227.5,424361.80000001,424359.8,424376.9,433604.4,433605.80000001,2024-05-31T18:20:19Z,433621.3,NULL,Notfall,dharura,s,rairai,malalamiko,ahueni,NA,sdf,NA,0,NA,NA,NA,NA,NA,NA,NA,NA,NA,NA,NA,NA,NA,NA,NA,NA,NA,NA,NA
a31fe,Deep Question,html.Page,5_0_0_0_6_0_0,NA,NA,form submission,3186.0000000119,433605.89999998,433604.4,433621.3,436807.30000001,436807.39999998,2024-05-31T18:20:23Z,436818.9,NULL,Stimmung,kinyongo,d,NA,NA,NA,kializo,NA,NA,0,NA,NA,NA,NA,NA,NA,NA,NA,NA,NA,NA,NA,NA,NA,NA,NA,NA,NA,NA
a31fe,"""Richtig""-Screen",canvas.Screen,5_0_0_0_6_0_1,NA,NA,skipped,NA,436810.59999996,NA,NA,436807.30000001,436810.69999999,2024-05-31T18:20:23Z,436818.9,NULL,Stimmung,kinyongo,d,NA,NA,NA,NA,sdf,NA,0,NA,NA,NA,NA,NA,NA,NA,NA,NA,NA,NA,NA,NA,NA,NA,NA,NA,NA,NA
a31fe,"""Falsch""-Screen",canvas.Screen,5_0_0_0_6_0_2,NA,NA,timeout,4997.3,436811.59999996,436803.626,436818.9,441799.6,441800.69999999,2024-05-31T18:20:28Z,441816.2,NULL,Stimmung,kinyongo,d,NA,NA,NA,NA,sdf,0,0,NA,NA,NA,NA,NA,NA,NA,NA,NA,NA,NA,NA,NA,NA,NA,NA,NA,NA,NA
a31fe,deep,flow.Sequence,5_0_0_0_6_0,NA,NA,completion,8178.3,433605.89999998,433604.4,433621.3,441799.6,441801.19999999,2024-05-31T18:20:28Z,441816.2,NULL,Stimmung,kinyongo,d,NA,NA,NA,NA,sdf,NA,0,NA,NA,NA,NA,NA,NA,NA,NA,NA,NA,NA,NA,NA,NA,NA,NA,NA,NA,NA
a31fe,shallow,flow.Sequence,5_0_0_0_6_1,NA,NA,skipped,NA,441801.30000001,NA,NA,441799.6,441801.5,2024-05-31T18:20:28Z,441816.2,NULL,Stimmung,kinyongo,d,NA,NA,NA,NA,sdf,NA,0,NA,NA,NA,NA,NA,NA,NA,NA,NA,NA,NA,NA,NA,NA,NA,NA,NA,NA,NA
a31fe,task,flow.Sequence,5_0_0_0_6,NA,NA,completion,8178.3,433605.89999998,433604.4,433621.3,441799.6,441801.69999999,2024-05-31T18:20:28Z,441816.2,NULL,Stimmung,kinyongo,d,NA,NA,NA,NA,sdf,NA,0,NA,NA,NA,NA,NA,NA,NA,NA,NA,NA,NA,NA,NA,NA,NA,NA,NA,NA,NA
a31fe,Deep Question,html.Page,5_0_0_0_7_0_0,NA,NA,form submission,3228.3,441801.80000001,441799.6,441816.2,445044.5,445044.59999996,2024-05-31T18:20:31Z,445047.1,NULL,Betrüger,mdanganyifu,d,NA,NA,NA,kializo,NA,NA,0,NA,NA,NA,NA,NA,NA,NA,NA,NA,NA,NA,NA,NA,NA,NA,NA,NA,NA,NA
a31fe,"""Richtig""-Screen",canvas.Screen,5_0_0_0_7_0_1,NA,NA,skipped,NA,445046,NA,NA,445044.5,445046.19999999,2024-05-31T18:20:31Z,445047.1,NULL,Betrüger,mdanganyifu,d,NA,NA,NA,NA,sdf,NA,0,NA,NA,NA,NA,NA,NA,NA,NA,NA,NA,NA,NA,NA,NA,NA,NA,NA,NA,NA
a31fe,"""Falsch""-Screen",canvas.Screen,5_0_0_0_7_0_2,NA,NA,timeout,4997.3,445046.69999999,445033,445047.1,450027.5,450028.69999999,2024-05-31T18:20:36Z,450044.4,NULL,Betrüger,mdanganyifu,d,NA,NA,NA,NA,sdf,0,0,NA,NA,NA,NA,NA,NA,NA,NA,NA,NA,NA,NA,NA,NA,NA,NA,NA,NA,NA
a31fe,deep,flow.Sequence,5_0_0_0_7_0,NA,NA,completion,8211.3,441801.80000001,441799.6,441816.2,450027.5,450029.09999996,2024-05-31T18:20:36Z,450044.4,NULL,Betrüger,mdanganyifu,d,NA,NA,NA,NA,sdf,NA,0,NA,NA,NA,NA,NA,NA,NA,NA,NA,NA,NA,NA,NA,NA,NA,NA,NA,NA,NA
a31fe,shallow,flow.Sequence,5_0_0_0_7_1,NA,NA,skipped,NA,450029.30000001,NA,NA,450027.5,450029.39999998,2024-05-31T18:20:36Z,450044.4,NULL,Betrüger,mdanganyifu,d,NA,NA,NA,NA,sdf,NA,0,NA,NA,NA,NA,NA,NA,NA,NA,NA,NA,NA,NA,NA,NA,NA,NA,NA,NA,NA
a31fe,task,flow.Sequence,5_0_0_0_7,NA,NA,completion,8211.3,441801.80000001,441799.6,441816.2,450027.5,450029.59999996,2024-05-31T18:20:36Z,450044.4,NULL,Betrüger,mdanganyifu,d,NA,NA,NA,NA,sdf,NA,0,NA,NA,NA,NA,NA,NA,NA,NA,NA,NA,NA,NA,NA,NA,NA,NA,NA,NA,NA
a31fe,block,flow.Loop,5_0_0_0,NA,NA,completion,74103.6,375904.80000001,375904.1,375923.9,450027.5,450029.80000001,2024-05-31T18:20:36Z,450044.4,NULL,NA,NA,NA,NA,NA,NA,NA,sdf,NA,0,NA,NA,NA,NA,NA,NA,NA,NA,NA,NA,NA,NA,NA,NA,NA,NA,NA,NA,NA
a31fe,weiter,canvas.Screen,5_0_0_1,sdf,keypress(Space),response,1022.6,450029.89999998,450027.5,450044.4,451067,451069,2024-05-31T18:20:37Z,451093.6,NULL,NA,NA,NA,NA,NA,NA,NA,sdf,NA,0,NA,NA,NA,NA,NA,NA,NA,NA,NA,NA,NA,NA,NA,NA,NA,NA,NA,NA,NA
a31fe,check continue,flow.Sequence,5_0_0,NA,NA,completion,75143.1,375904.80000001,375904.1,375923.9,451067,451069.09999996,2024-05-31T18:20:37Z,451093.6,NULL,NA,NA,NA,NA,NA,NA,NA,sdf,NA,0,NA,NA,NA,NA,NA,NA,NA,NA,NA,NA,NA,NA,NA,NA,NA,NA,NA,NA,NA
a31fe,Deep Question,html.Page,5_0_1_0_0_0_0,NA,NA,form submission,2823.7999999762,451086.09999996,451076.956,451093.6,453917.39999998,453917.59999996,2024-05-31T18:20:40Z,453925,NULL,Ergänzung,kijalizo,d,NA,NA,NA,kializo,NA,NA,1,NA,NA,NA,NA,NA,NA,NA,NA,NA,NA,NA,NA,NA,NA,NA,NA,NA,NA,NA
a31fe,"""Richtig""-Screen",canvas.Screen,5_0_1_0_0_0_1,NA,NA,skipped,NA,453918.59999996,NA,NA,453917.39999998,453918.69999999,2024-05-31T18:20:40Z,453925,NULL,Ergänzung,kijalizo,d,NA,NA,NA,NA,sdfdsf,NA,1,NA,NA,NA,NA,NA,NA,NA,NA,NA,NA,NA,NA,NA,NA,NA,NA,NA,NA,NA
a31fe,"""Falsch""-Screen",canvas.Screen,5_0_1_0_0_0_2,NA,NA,timeout,4997.3,453919.39999998,453909.354,453925,458905.3,458906.30000001,2024-05-31T18:20:45Z,458922.3,NULL,Ergänzung,kijalizo,d,NA,NA,NA,NA,sdfdsf,0,1,NA,NA,NA,NA,NA,NA,NA,NA,NA,NA,NA,NA,NA,NA,NA,NA,NA,NA,NA
a31fe,deep,flow.Sequence,5_0_1_0_0_0,NA,NA,completion,7811.7,451086.09999996,451076.956,451093.6,458905.3,458906.69999999,2024-05-31T18:20:45Z,458922.3,NULL,Ergänzung,kijalizo,d,NA,NA,NA,NA,sdfdsf,NA,1,NA,NA,NA,NA,NA,NA,NA,NA,NA,NA,NA,NA,NA,NA,NA,NA,NA,NA,NA
a31fe,shallow,flow.Sequence,5_0_1_0_0_1,NA,NA,skipped,NA,458906.89999998,NA,NA,458905.3,458907.09999996,2024-05-31T18:20:45Z,458922.3,NULL,Ergänzung,kijalizo,d,NA,NA,NA,NA,sdfdsf,NA,1,NA,NA,NA,NA,NA,NA,NA,NA,NA,NA,NA,NA,NA,NA,NA,NA,NA,NA,NA
a31fe,task,flow.Sequence,5_0_1_0_0,NA,NA,completion,7811.7,451086.09999996,451076.956,451093.6,458905.3,458907.19999999,2024-05-31T18:20:45Z,458922.3,NULL,Ergänzung,kijalizo,d,NA,NA,NA,NA,sdfdsf,NA,1,NA,NA,NA,NA,NA,NA,NA,NA,NA,NA,NA,NA,NA,NA,NA,NA,NA,NA,NA
a31fe,Deep Question,html.Page,5_0_1_0_1_0_0,NA,NA,form submission,3435.5999999762,458907.39999998,458905.3,458922.3,462357.89999998,462358.19999999,2024-05-31T18:20:48Z,462370.1,NULL,Stimmung,kinyongo,d,NA,NA,NA,asdf,NA,NA,1,NA,NA,NA,NA,NA,NA,NA,NA,NA,NA,NA,NA,NA,NA,NA,NA,NA,NA,NA
a31fe,"""Richtig""-Screen",canvas.Screen,5_0_1_0_1_0_1,NA,NA,skipped,NA,462360.09999996,NA,NA,462357.89999998,462360.19999999,2024-05-31T18:20:48Z,462370.1,NULL,Stimmung,kinyongo,d,NA,NA,NA,NA,sdfdsf,NA,1,NA,NA,NA,NA,NA,NA,NA,NA,NA,NA,NA,NA,NA,NA,NA,NA,NA,NA,NA
a31fe,"""Falsch""-Screen",canvas.Screen,5_0_1_0_1_0_2,NA,NA,timeout,4997.2,462360.69999999,462353.626,462370.1,467350.4,467351.39999998,2024-05-31T18:20:53Z,467367.3,NULL,Stimmung,kinyongo,d,NA,NA,NA,NA,sdfdsf,0,1,NA,NA,NA,NA,NA,NA,NA,NA,NA,NA,NA,NA,NA,NA,NA,NA,NA,NA,NA
a31fe,deep,flow.Sequence,5_0_1_0_1_0,NA,NA,completion,8428.1,458907.39999998,458905.3,458922.3,467350.4,467351.69999999,2024-05-31T18:20:53Z,467367.3,NULL,Stimmung,kinyongo,d,NA,NA,NA,NA,sdfdsf,NA,1,NA,NA,NA,NA,NA,NA,NA,NA,NA,NA,NA,NA,NA,NA,NA,NA,NA,NA,NA
a31fe,shallow,flow.Sequence,5_0_1_0_1_1,NA,NA,skipped,NA,467351.80000001,NA,NA,467350.4,467352,2024-05-31T18:20:53Z,467367.3,NULL,Stimmung,kinyongo,d,NA,NA,NA,NA,sdfdsf,NA,1,NA,NA,NA,NA,NA,NA,NA,NA,NA,NA,NA,NA,NA,NA,NA,NA,NA,NA,NA
a31fe,task,flow.Sequence,5_0_1_0_1,NA,NA,completion,8428.1,458907.30000001,458905.3,458922.3,467350.4,467352.19999999,2024-05-31T18:20:53Z,467367.3,NULL,Stimmung,kinyongo,d,NA,NA,NA,NA,sdfdsf,NA,1,NA,NA,NA,NA,NA,NA,NA,NA,NA,NA,NA,NA,NA,NA,NA,NA,NA,NA,NA
a31fe,deep,flow.Sequence,5_0_1_0_2_0,NA,NA,skipped,NA,467352.39999998,NA,NA,467350.4,467352.5,2024-05-31T18:20:53Z,467367.3,NULL,Respekt,heshima,s,changamnao,upinzani,ufanisi,NA,sdfdsf,NA,1,NA,NA,NA,NA,NA,NA,NA,NA,NA,NA,NA,NA,NA,NA,NA,NA,NA,NA,NA
a31fe,Shallow Question,html.Page,5_0_1_0_2_1_0,NA,NA,form submission,6771.0000000119,467352.59999996,467350.4,467367.3,474138.30000001,474138.5,2024-05-31T18:21:00Z,474146.1,NULL,Respekt,heshima,s,changamnao,upinzani,ufanisi,heshima,NA,NA,1,NA,NA,NA,NA,NA,NA,NA,NA,NA,NA,NA,NA,NA,NA,NA,NA,NA,NA,NA
a31fe,"""Richtig""-Screen",canvas.Screen,5_0_1_0_2_1_1,NA,NA,timeout,4997.2,474140.5,474129.962,474146.1,479126.6,479127.59999996,2024-05-31T18:21:05Z,479143.3,NULL,Respekt,heshima,s,changamnao,upinzani,ufanisi,NA,sdfdsf,1,1,NA,NA,NA,NA,NA,NA,NA,NA,NA,NA,NA,NA,NA,NA,NA,NA,NA,NA,NA
a31fe,"""Falsch""-Screen",canvas.Screen,5_0_1_0_2_1_2,NA,NA,skipped,NA,479132.59999996,NA,NA,479126.6,479132.80000001,2024-05-31T18:21:05Z,479143.3,NULL,Respekt,heshima,s,changamnao,upinzani,ufanisi,NA,sdfdsf,NA,1,NA,NA,NA,NA,NA,NA,NA,NA,NA,NA,NA,NA,NA,NA,NA,NA,NA,NA,NA
a31fe,shallow,flow.Sequence,5_0_1_0_2_1,NA,NA,completion,11759.3,467352.59999996,467350.4,467367.3,479126.6,479132.80000001,2024-05-31T18:21:05Z,479143.3,NULL,Respekt,heshima,s,changamnao,upinzani,ufanisi,NA,sdfdsf,NA,1,NA,NA,NA,NA,NA,NA,NA,NA,NA,NA,NA,NA,NA,NA,NA,NA,NA,NA,NA
a31fe,task,flow.Sequence,5_0_1_0_2,NA,NA,completion,11759.3,467352.30000001,467350.4,467367.3,479126.6,479132.80000001,2024-05-31T18:21:05Z,479143.3,NULL,Respekt,heshima,s,changamnao,upinzani,ufanisi,NA,sdfdsf,NA,1,NA,NA,NA,NA,NA,NA,NA,NA,NA,NA,NA,NA,NA,NA,NA,NA,NA,NA,NA
a31fe,Deep Question,html.Page,5_0_1_0_3_0_0,NA,NA,form submission,4336.8999999881,479132.89999998,479126.6,479143.3,483480.19999999,483480.39999998,2024-05-31T18:21:09Z,483490.2,NULL,Wohlstand,mafanikio,d,NA,NA,NA,asdf,NA,NA,1,NA,NA,NA,NA,NA,NA,NA,NA,NA,NA,NA,NA,NA,NA,NA,NA,NA,NA,NA
a31fe,"""Richtig""-Screen",canvas.Screen,5_0_1_0_3_0_1,NA,NA,skipped,NA,483481.80000001,NA,NA,483480.19999999,483481.80000001,2024-05-31T18:21:09Z,483490.2,NULL,Wohlstand,mafanikio,d,NA,NA,NA,NA,sdfdsf,NA,1,NA,NA,NA,NA,NA,NA,NA,NA,NA,NA,NA,NA,NA,NA,NA,NA,NA,NA,NA
a31fe,"""Falsch""-Screen",canvas.Screen,5_0_1_0_3_0_2,NA,NA,timeout,4997.1,483482.09999996,483474.318,483490.2,488471,488472.39999998,2024-05-31T18:21:14Z,488487.3,NULL,Wohlstand,mafanikio,d,NA,NA,NA,NA,sdfdsf,0,1,NA,NA,NA,NA,NA,NA,NA,NA,NA,NA,NA,NA,NA,NA,NA,NA,NA,NA,NA
a31fe,deep,flow.Sequence,5_0_1_0_3_0,NA,NA,completion,9327.7,479132.89999998,479126.6,479143.3,488471,488472.80000001,2024-05-31T18:21:14Z,488487.3,NULL,Wohlstand,mafanikio,d,NA,NA,NA,NA,sdfdsf,NA,1,NA,NA,NA,NA,NA,NA,NA,NA,NA,NA,NA,NA,NA,NA,NA,NA,NA,NA,NA
a31fe,shallow,flow.Sequence,5_0_1_0_3_1,NA,NA,skipped,NA,488472.89999998,NA,NA,488471,488473.09999996,2024-05-31T18:21:14Z,488487.3,NULL,Wohlstand,mafanikio,d,NA,NA,NA,NA,sdfdsf,NA,1,NA,NA,NA,NA,NA,NA,NA,NA,NA,NA,NA,NA,NA,NA,NA,NA,NA,NA,NA
a31fe,task,flow.Sequence,5_0_1_0_3,NA,NA,completion,9327.7,479132.89999998,479126.6,479143.3,488471,488473.30000001,2024-05-31T18:21:14Z,488487.3,NULL,Wohlstand,mafanikio,d,NA,NA,NA,NA,sdfdsf,NA,1,NA,NA,NA,NA,NA,NA,NA,NA,NA,NA,NA,NA,NA,NA,NA,NA,NA,NA,NA
a31fe,deep,flow.Sequence,5_0_1_0_4_0,NA,NA,skipped,NA,488473.39999998,NA,NA,488471,488473.39999998,2024-05-31T18:21:14Z,488487.3,NULL,Orientierung,urekebisho,s,uelekeo,marekebisho,utunzaji,NA,sdfdsf,NA,1,NA,NA,NA,NA,NA,NA,NA,NA,NA,NA,NA,NA,NA,NA,NA,NA,NA,NA,NA
a31fe,Shallow Question,html.Page,5_0_1_0_4_1_0,NA,NA,form submission,6119.3999999881,488473.59999996,488471,488487.3,494606.69999999,494607,2024-05-31T18:21:20Z,494617,NULL,Orientierung,urekebisho,s,uelekeo,marekebisho,utunzaji,urekebisho,NA,NA,1,NA,NA,NA,NA,NA,NA,NA,NA,NA,NA,NA,NA,NA,NA,NA,NA,NA,NA,NA
a31fe,"""Richtig""-Screen",canvas.Screen,5_0_1_0_4_1_1,NA,NA,timeout,4997.1,494610.09999996,494600.906,494617,499597.5,499598,2024-05-31T18:21:25Z,499614.1,NULL,Orientierung,urekebisho,s,uelekeo,marekebisho,utunzaji,NA,sdfdsf,1,1,NA,NA,NA,NA,NA,NA,NA,NA,NA,NA,NA,NA,NA,NA,NA,NA,NA,NA,NA
a31fe,"""Falsch""-Screen",canvas.Screen,5_0_1_0_4_1_2,NA,NA,skipped,NA,499600.59999996,NA,NA,499597.5,499600.69999999,2024-05-31T18:21:25Z,499614.1,NULL,Orientierung,urekebisho,s,uelekeo,marekebisho,utunzaji,NA,sdfdsf,NA,1,NA,NA,NA,NA,NA,NA,NA,NA,NA,NA,NA,NA,NA,NA,NA,NA,NA,NA,NA
a31fe,shallow,flow.Sequence,5_0_1_0_4_1,NA,NA,completion,11110.2,488473.59999996,488471,488487.3,499597.5,499600.80000001,2024-05-31T18:21:25Z,499614.1,NULL,Orientierung,urekebisho,s,uelekeo,marekebisho,utunzaji,NA,sdfdsf,NA,1,NA,NA,NA,NA,NA,NA,NA,NA,NA,NA,NA,NA,NA,NA,NA,NA,NA,NA,NA
a31fe,task,flow.Sequence,5_0_1_0_4,NA,NA,completion,11110.2,488473.30000001,488471,488487.3,499597.5,499601,2024-05-31T18:21:25Z,499614.1,NULL,Orientierung,urekebisho,s,uelekeo,marekebisho,utunzaji,NA,sdfdsf,NA,1,NA,NA,NA,NA,NA,NA,NA,NA,NA,NA,NA,NA,NA,NA,NA,NA,NA,NA,NA
a31fe,deep,flow.Sequence,5_0_1_0_5_0,NA,NA,skipped,NA,499601,NA,NA,499597.5,499601,2024-05-31T18:21:25Z,499614.1,NULL,Vergnügen,kichekesho,s,dubwana,mpanuko,mtesaji,NA,sdfdsf,NA,1,NA,NA,NA,NA,NA,NA,NA,NA,NA,NA,NA,NA,NA,NA,NA,NA,NA,NA,NA
a31fe,Shallow Question,html.Page,5_0_1_0_5_1_0,NA,NA,form submission,9633.0999999881,499601,499597.5,499614.1,509247.19999999,509247.5,2024-05-31T18:21:35Z,509257.9,NULL,Vergnügen,kichekesho,s,dubwana,mpanuko,mtesaji,dubwana,NA,NA,1,NA,NA,NA,NA,NA,NA,NA,NA,NA,NA,NA,NA,NA,NA,NA,NA,NA,NA,NA
a31fe,"""Richtig""-Screen",canvas.Screen,5_0_1_0_5_1_1,NA,NA,skipped,NA,509250.5,NA,NA,509247.19999999,509250.59999996,2024-05-31T18:21:35Z,509257.9,NULL,Vergnügen,kichekesho,s,dubwana,mpanuko,mtesaji,NA,sdfdsf,NA,1,NA,NA,NA,NA,NA,NA,NA,NA,NA,NA,NA,NA,NA,NA,NA,NA,NA,NA,NA
a31fe,"""Falsch""-Screen",canvas.Screen,5_0_1_0_5_1_2,NA,NA,timeout,4997.1,509251.39999998,509243.3,509257.9,514238.4,514239.19999999,2024-05-31T18:21:40Z,514255,NULL,Vergnügen,kichekesho,s,dubwana,mpanuko,mtesaji,NA,sdfdsf,0,1,NA,NA,NA,NA,NA,NA,NA,NA,NA,NA,NA,NA,NA,NA,NA,NA,NA,NA,NA
a31fe,shallow,flow.Sequence,5_0_1_0_5_1,NA,NA,completion,14624.3,499601,499597.5,499614.1,514238.4,514239.59999996,2024-05-31T18:21:40Z,514255,NULL,Vergnügen,kichekesho,s,dubwana,mpanuko,mtesaji,NA,sdfdsf,NA,1,NA,NA,NA,NA,NA,NA,NA,NA,NA,NA,NA,NA,NA,NA,NA,NA,NA,NA,NA
a31fe,task,flow.Sequence,5_0_1_0_5,NA,NA,completion,14624.3,499601,499597.5,499614.1,514238.4,514239.80000001,2024-05-31T18:21:40Z,514255,NULL,Vergnügen,kichekesho,s,dubwana,mpanuko,mtesaji,NA,sdfdsf,NA,1,NA,NA,NA,NA,NA,NA,NA,NA,NA,NA,NA,NA,NA,NA,NA,NA,NA,NA,NA
a31fe,deep,flow.Sequence,5_0_1_0_6_0,NA,NA,skipped,NA,514240,NA,NA,514238.4,514240,2024-05-31T18:21:40Z,514255,NULL,Notfall,dharura,s,rairai,malalamiko,ahueni,NA,sdfdsf,NA,1,NA,NA,NA,NA,NA,NA,NA,NA,NA,NA,NA,NA,NA,NA,NA,NA,NA,NA,NA
a31fe,Shallow Question,html.Page,5_0_1_0_6_1_0,NA,NA,form submission,6066.1999999881,514240.19999999,514238.4,514255,520321.19999999,520321.5,2024-05-31T18:21:46Z,520334.4,NULL,Notfall,dharura,s,rairai,malalamiko,ahueni,malalamiko,NA,NA,1,NA,NA,NA,NA,NA,NA,NA,NA,NA,NA,NA,NA,NA,NA,NA,NA,NA,NA,NA
a31fe,"""Richtig""-Screen",canvas.Screen,5_0_1_0_6_1_1,NA,NA,skipped,NA,520324.59999996,NA,NA,520321.19999999,520324.80000001,2024-05-31T18:21:46Z,520334.4,NULL,Notfall,dharura,s,rairai,malalamiko,ahueni,NA,sdfdsf,NA,1,NA,NA,NA,NA,NA,NA,NA,NA,NA,NA,NA,NA,NA,NA,NA,NA,NA,NA,NA
a31fe,"""Falsch""-Screen",canvas.Screen,5_0_1_0_6_1_2,NA,NA,timeout,4997.2,520325.39999998,520318.022,520334.4,525315.1,525317,2024-05-31T18:21:51Z,525331.6,NULL,Notfall,dharura,s,rairai,malalamiko,ahueni,NA,sdfdsf,0,1,NA,NA,NA,NA,NA,NA,NA,NA,NA,NA,NA,NA,NA,NA,NA,NA,NA,NA,NA
a31fe,shallow,flow.Sequence,5_0_1_0_6_1,NA,NA,completion,11060.1,514240.09999996,514238.4,514255,525315.1,525317.30000000994,2024-05-31T18:21:51Z,525331.6,NULL,Notfall,dharura,s,rairai,malalamiko,ahueni,NA,sdfdsf,NA,1,NA,NA,NA,NA,NA,NA,NA,NA,NA,NA,NA,NA,NA,NA,NA,NA,NA,NA,NA
a31fe,task,flow.Sequence,5_0_1_0_6,NA,NA,completion,11060.1,514239.89999998,514238.4,514255,525315.1,525317.59999996,2024-05-31T18:21:51Z,525331.6,NULL,Notfall,dharura,s,rairai,malalamiko,ahueni,NA,sdfdsf,NA,1,NA,NA,NA,NA,NA,NA,NA,NA,NA,NA,NA,NA,NA,NA,NA,NA,NA,NA,NA
a31fe,Deep Question,html.Page,5_0_1_0_7_0_0,NA,NA,form submission,4244.0999999881,525317.80000001,525315.1,525331.6,529575.69999999006,529575.89999998,2024-05-31T18:21:55Z,529579.358,NULL,Betrüger,mdanganyifu,d,NA,NA,NA,asdf,NA,NA,1,NA,NA,NA,NA,NA,NA,NA,NA,NA,NA,NA,NA,NA,NA,NA,NA,NA,NA,NA
a31fe,"""Richtig""-Screen",canvas.Screen,5_0_1_0_7_0_1,NA,NA,skipped,NA,529579.09999996,NA,NA,529575.69999999006,529579.19999999006,2024-05-31T18:21:55Z,529579.358,NULL,Betrüger,mdanganyifu,d,NA,NA,NA,NA,sdfdsf,NA,1,NA,NA,NA,NA,NA,NA,NA,NA,NA,NA,NA,NA,NA,NA,NA,NA,NA,NA,NA
a31fe,"""Falsch""-Screen",canvas.Screen,5_0_1_0_7_0_2,NA,NA,timeout,4996.642,529580.09999996,529579.358,529579.358,534559.5,534560.59999996,2024-05-31T18:22:00Z,534576,NULL,Betrüger,mdanganyifu,d,NA,NA,NA,NA,sdfdsf,0,1,NA,NA,NA,NA,NA,NA,NA,NA,NA,NA,NA,NA,NA,NA,NA,NA,NA,NA,NA
a31fe,deep,flow.Sequence,5_0_1_0_7_0,NA,NA,completion,9227.9,525317.69999999006,525315.1,525331.6,534559.5,534561,2024-05-31T18:22:00Z,534576,NULL,Betrüger,mdanganyifu,d,NA,NA,NA,NA,sdfdsf,NA,1,NA,NA,NA,NA,NA,NA,NA,NA,NA,NA,NA,NA,NA,NA,NA,NA,NA,NA,NA
a31fe,shallow,flow.Sequence,5_0_1_0_7_1,NA,NA,skipped,NA,534561.09999996,NA,NA,534559.5,534561.19999999006,2024-05-31T18:22:00Z,534576,NULL,Betrüger,mdanganyifu,d,NA,NA,NA,NA,sdfdsf,NA,1,NA,NA,NA,NA,NA,NA,NA,NA,NA,NA,NA,NA,NA,NA,NA,NA,NA,NA,NA
a31fe,task,flow.Sequence,5_0_1_0_7,NA,NA,completion,9227.9,525317.69999999006,525315.1,525331.6,534559.5,534561.59999996,2024-05-31T18:22:00Z,534576,NULL,Betrüger,mdanganyifu,d,NA,NA,NA,NA,sdfdsf,NA,1,NA,NA,NA,NA,NA,NA,NA,NA,NA,NA,NA,NA,NA,NA,NA,NA,NA,NA,NA
a31fe,block,flow.Loop,5_0_1_0,NA,NA,completion,83465.9,451086.09999996,451076.956,451093.6,534559.5,534561.80000001,2024-05-31T18:22:00Z,534576,NULL,NA,NA,NA,NA,NA,NA,NA,sdfdsf,NA,1,NA,NA,NA,NA,NA,NA,NA,NA,NA,NA,NA,NA,NA,NA,NA,NA,NA,NA,NA
a31fe,weiter,canvas.Screen,5_0_1_1,sdf,keypress(Space),response,1167.5,534561.89999998,534559.5,534576,535743.5,535748.09999996,2024-05-31T18:22:02Z,535759.048,NULL,NA,NA,NA,NA,NA,NA,NA,sdfdsf,NA,1,NA,NA,NA,NA,NA,NA,NA,NA,NA,NA,NA,NA,NA,NA,NA,NA,NA,NA,NA
a31fe,check continue,flow.Sequence,5_0_1,NA,NA,completion,84649.9,451086.09999996,451076.956,451093.6,535743.5,535748.39999998,2024-05-31T18:22:02Z,535759.048,NULL,NA,NA,NA,NA,NA,NA,NA,sdfdsf,NA,1,NA,NA,NA,NA,NA,NA,NA,NA,NA,NA,NA,NA,NA,NA,NA,NA,NA,NA,NA
a31fe,deep,flow.Sequence,5_0_2_0_0_0,NA,NA,skipped,NA,535763.5,NA,NA,535743.5,535763.5,2024-05-31T18:22:02Z,535759.048,NULL,Orientierung,urekebisho,s,uelekeo,marekebisho,utunzaji,NA,sdf,NA,2,NA,NA,NA,NA,NA,NA,NA,NA,NA,NA,NA,NA,NA,NA,NA,NA,NA,NA,NA
a31fe,Shallow Question,html.Page,5_0_2_0_0_1_0,NA,NA,form submission,8075.3519999762,535763.59999996,535759.048,535759.048,543834.39999998,543834.59999996,2024-05-31T18:22:10Z,543837.356,NULL,Orientierung,urekebisho,s,uelekeo,marekebisho,utunzaji,urekebisho,NA,NA,2,NA,NA,NA,NA,NA,NA,NA,NA,NA,NA,NA,NA,NA,NA,NA,NA,NA,NA,NA
a31fe,"""Richtig""-Screen",canvas.Screen,5_0_2_0_0_1_1,NA,NA,timeout,4996.644,543837.80000001,543837.356,543837.356,548817,548819.19999999006,2024-05-31T18:22:15Z,548834,NULL,Orientierung,urekebisho,s,uelekeo,marekebisho,utunzaji,NA,sdf,1,2,NA,NA,NA,NA,NA,NA,NA,NA,NA,NA,NA,NA,NA,NA,NA,NA,NA,NA,NA
a31fe,"""Falsch""-Screen",canvas.Screen,5_0_2_0_0_1_2,NA,NA,skipped,NA,548824,NA,NA,548817,548824.19999999006,2024-05-31T18:22:15Z,548834,NULL,Orientierung,urekebisho,s,uelekeo,marekebisho,utunzaji,NA,sdf,NA,2,NA,NA,NA,NA,NA,NA,NA,NA,NA,NA,NA,NA,NA,NA,NA,NA,NA,NA,NA
a31fe,shallow,flow.Sequence,5_0_2_0_0_1,NA,NA,completion,13057.952,535763.59999996,535759.048,535759.048,548817,548824.30000001,2024-05-31T18:22:15Z,548834,NULL,Orientierung,urekebisho,s,uelekeo,marekebisho,utunzaji,NA,sdf,NA,2,NA,NA,NA,NA,NA,NA,NA,NA,NA,NA,NA,NA,NA,NA,NA,NA,NA,NA,NA
a31fe,task,flow.Sequence,5_0_2_0_0,NA,NA,completion,13057.952,535763.5,535759.048,535759.048,548817,548824.30000001,2024-05-31T18:22:15Z,548834,NULL,Orientierung,urekebisho,s,uelekeo,marekebisho,utunzaji,NA,sdf,NA,2,NA,NA,NA,NA,NA,NA,NA,NA,NA,NA,NA,NA,NA,NA,NA,NA,NA,NA,NA
a31fe,Deep Question,html.Page,5_0_2_0_1_0_0,NA,NA,form submission,4098.1999999881,548824.39999998,548817,548834,552932.19999999006,552932.39999998,2024-05-31T18:22:19Z,552964.7,NULL,Wohlstand,mafanikio,d,NA,NA,NA,asdf,NA,NA,2,NA,NA,NA,NA,NA,NA,NA,NA,NA,NA,NA,NA,NA,NA,NA,NA,NA,NA,NA
a31fe,"""Richtig""-Screen",canvas.Screen,5_0_2_0_1_0_1,NA,NA,skipped,NA,552935.39999998,NA,NA,552932.19999999006,552935.59999996,2024-05-31T18:22:19Z,552964.7,NULL,Wohlstand,mafanikio,d,NA,NA,NA,NA,sdf,NA,2,NA,NA,NA,NA,NA,NA,NA,NA,NA,NA,NA,NA,NA,NA,NA,NA,NA,NA,NA
a31fe,"""Falsch""-Screen",canvas.Screen,5_0_2_0_1_0_2,NA,NA,timeout,4996.7000000001,552936.19999999006,552948.4,552964.7,557944.7,557946.30000001,2024-05-31T18:22:24Z,557961.4,NULL,Wohlstand,mafanikio,d,NA,NA,NA,NA,sdf,0,2,NA,NA,NA,NA,NA,NA,NA,NA,NA,NA,NA,NA,NA,NA,NA,NA,NA,NA,NA
a31fe,deep,flow.Sequence,5_0_2_0_1_0,NA,NA,completion,9110.7,548824.39999998,548817,548834,557944.7,557946.59999996,2024-05-31T18:22:24Z,557961.4,NULL,Wohlstand,mafanikio,d,NA,NA,NA,NA,sdf,NA,2,NA,NA,NA,NA,NA,NA,NA,NA,NA,NA,NA,NA,NA,NA,NA,NA,NA,NA,NA
a31fe,shallow,flow.Sequence,5_0_2_0_1_1,NA,NA,skipped,NA,557946.69999999006,NA,NA,557944.7,557946.89999998,2024-05-31T18:22:24Z,557961.4,NULL,Wohlstand,mafanikio,d,NA,NA,NA,NA,sdf,NA,2,NA,NA,NA,NA,NA,NA,NA,NA,NA,NA,NA,NA,NA,NA,NA,NA,NA,NA,NA
a31fe,task,flow.Sequence,5_0_2_0_1,NA,NA,completion,9110.7,548824.39999998,548817,548834,557944.7,557947.09999996,2024-05-31T18:22:24Z,557961.4,NULL,Wohlstand,mafanikio,d,NA,NA,NA,NA,sdf,NA,2,NA,NA,NA,NA,NA,NA,NA,NA,NA,NA,NA,NA,NA,NA,NA,NA,NA,NA,NA
a31fe,deep,flow.Sequence,5_0_2_0_2_0,NA,NA,skipped,NA,557947.19999999006,NA,NA,557944.7,557947.30000001,2024-05-31T18:22:24Z,557961.4,NULL,Respekt,heshima,s,changamnao,upinzani,ufanisi,NA,sdf,NA,2,NA,NA,NA,NA,NA,NA,NA,NA,NA,NA,NA,NA,NA,NA,NA,NA,NA,NA,NA
a31fe,Shallow Question,html.Page,5_0_2_0_2_1_0,NA,NA,form submission,4094.7999999881,557947.39999998,557944.7,557961.4,562056.19999999006,562056.39999998,2024-05-31T18:22:28Z,562058.9,NULL,Respekt,heshima,s,changamnao,upinzani,ufanisi,heshima,NA,NA,2,NA,NA,NA,NA,NA,NA,NA,NA,NA,NA,NA,NA,NA,NA,NA,NA,NA,NA,NA
a31fe,"""Richtig""-Screen",canvas.Screen,5_0_2_0_2_1_1,NA,NA,timeout,4996.9,562058,562042.596,562058.9,567039.3,567040.30000001,2024-05-31T18:22:33Z,567055.8,NULL,Respekt,heshima,s,changamnao,upinzani,ufanisi,NA,sdf,1,2,NA,NA,NA,NA,NA,NA,NA,NA,NA,NA,NA,NA,NA,NA,NA,NA,NA,NA,NA
a31fe,"""Falsch""-Screen",canvas.Screen,5_0_2_0_2_1_2,NA,NA,skipped,NA,567045.89999998,NA,NA,567039.3,567046.19999999006,2024-05-31T18:22:33Z,567055.8,NULL,Respekt,heshima,s,changamnao,upinzani,ufanisi,NA,sdf,NA,2,NA,NA,NA,NA,NA,NA,NA,NA,NA,NA,NA,NA,NA,NA,NA,NA,NA,NA,NA
a31fe,shallow,flow.Sequence,5_0_2_0_2_1,NA,NA,completion,9077.9,557947.39999998,557944.7,557961.4,567039.3,567046.5,2024-05-31T18:22:33Z,567055.8,NULL,Respekt,heshima,s,changamnao,upinzani,ufanisi,NA,sdf,NA,2,NA,NA,NA,NA,NA,NA,NA,NA,NA,NA,NA,NA,NA,NA,NA,NA,NA,NA,NA
a31fe,task,flow.Sequence,5_0_2_0_2,NA,NA,completion,9077.9,557947.19999999006,557944.7,557961.4,567039.3,567046.69999999006,2024-05-31T18:22:33Z,567055.8,NULL,Respekt,heshima,s,changamnao,upinzani,ufanisi,NA,sdf,NA,2,NA,NA,NA,NA,NA,NA,NA,NA,NA,NA,NA,NA,NA,NA,NA,NA,NA,NA,NA
a31fe,Deep Question,html.Page,5_0_2_0_3_0_0,NA,NA,form submission,4337.0000000119,567046.89999998,567039.3,567055.8,571392.80000000994,571393,2024-05-31T18:22:37Z,571403.3,NULL,Stimmung,kinyongo,d,NA,NA,NA,kijalizo,NA,NA,2,NA,NA,NA,NA,NA,NA,NA,NA,NA,NA,NA,NA,NA,NA,NA,NA,NA,NA,NA
a31fe,"""Richtig""-Screen",canvas.Screen,5_0_2_0_3_0_1,NA,NA,skipped,NA,571395.89999998,NA,NA,571392.80000000994,571396.09999996,2024-05-31T18:22:37Z,571403.3,NULL,Stimmung,kinyongo,d,NA,NA,NA,NA,sdf,NA,2,NA,NA,NA,NA,NA,NA,NA,NA,NA,NA,NA,NA,NA,NA,NA,NA,NA,NA,NA
a31fe,"""Falsch""-Screen",canvas.Screen,5_0_2_0_3_0_2,NA,NA,timeout,4997.2,571396.69999999006,571387.9,571403.3,576383.5,576384.5,2024-05-31T18:22:42Z,576400.5,NULL,Stimmung,kinyongo,d,NA,NA,NA,NA,sdf,0,2,NA,NA,NA,NA,NA,NA,NA,NA,NA,NA,NA,NA,NA,NA,NA,NA,NA,NA,NA
a31fe,deep,flow.Sequence,5_0_2_0_3_0,NA,NA,completion,9327.7,567046.80000000994,567039.3,567055.8,576383.5,576384.89999998,2024-05-31T18:22:42Z,576400.5,NULL,Stimmung,kinyongo,d,NA,NA,NA,NA,sdf,NA,2,NA,NA,NA,NA,NA,NA,NA,NA,NA,NA,NA,NA,NA,NA,NA,NA,NA,NA,NA
a31fe,shallow,flow.Sequence,5_0_2_0_3_1,NA,NA,skipped,NA,576385.09999996,NA,NA,576383.5,576385.19999999006,2024-05-31T18:22:42Z,576400.5,NULL,Stimmung,kinyongo,d,NA,NA,NA,NA,sdf,NA,2,NA,NA,NA,NA,NA,NA,NA,NA,NA,NA,NA,NA,NA,NA,NA,NA,NA,NA,NA
a31fe,task,flow.Sequence,5_0_2_0_3,NA,NA,completion,9327.7,567046.69999999006,567039.3,567055.8,576383.5,576385.39999998,2024-05-31T18:22:42Z,576400.5,NULL,Stimmung,kinyongo,d,NA,NA,NA,NA,sdf,NA,2,NA,NA,NA,NA,NA,NA,NA,NA,NA,NA,NA,NA,NA,NA,NA,NA,NA,NA,NA
a31fe,deep,flow.Sequence,5_0_2_0_4_0,NA,NA,skipped,NA,576385.5,NA,NA,576383.5,576385.69999999006,2024-05-31T18:22:42Z,576400.5,NULL,Vergnügen,kichekesho,s,dubwana,mpanuko,mtesaji,NA,sdf,NA,2,NA,NA,NA,NA,NA,NA,NA,NA,NA,NA,NA,NA,NA,NA,NA,NA,NA,NA,NA
a31fe,Shallow Question,html.Page,5_0_2_0_4_1_0,NA,NA,form submission,5038.1999999881,576385.80000001,576383.5,576400.5,581438.69999999006,581438.80000000994,2024-05-31T18:22:47Z,581447.1,NULL,Vergnügen,kichekesho,s,dubwana,mpanuko,mtesaji,kichekesho,NA,NA,2,NA,NA,NA,NA,NA,NA,NA,NA,NA,NA,NA,NA,NA,NA,NA,NA,NA,NA,NA
a31fe,"""Richtig""-Screen",canvas.Screen,5_0_2_0_4_1_1,NA,NA,timeout,4997.3,581441.30000000994,581430.956,581447.1,586427.5,586428.5,2024-05-31T18:22:52Z,586444.4,NULL,Vergnügen,kichekesho,s,dubwana,mpanuko,mtesaji,NA,sdf,1,2,NA,NA,NA,NA,NA,NA,NA,NA,NA,NA,NA,NA,NA,NA,NA,NA,NA,NA,NA
a31fe,"""Falsch""-Screen",canvas.Screen,5_0_2_0_4_1_2,NA,NA,skipped,NA,586433.09999996,NA,NA,586427.5,586433.19999999006,2024-05-31T18:22:52Z,586444.4,NULL,Vergnügen,kichekesho,s,dubwana,mpanuko,mtesaji,NA,sdf,NA,2,NA,NA,NA,NA,NA,NA,NA,NA,NA,NA,NA,NA,NA,NA,NA,NA,NA,NA,NA
a31fe,shallow,flow.Sequence,5_0_2_0_4_1,NA,NA,completion,10027,576385.69999999006,576383.5,576400.5,586427.5,586433.30000001,2024-05-31T18:22:52Z,586444.4,NULL,Vergnügen,kichekesho,s,dubwana,mpanuko,mtesaji,NA,sdf,NA,2,NA,NA,NA,NA,NA,NA,NA,NA,NA,NA,NA,NA,NA,NA,NA,NA,NA,NA,NA
a31fe,task,flow.Sequence,5_0_2_0_4,NA,NA,completion,10027,576385.5,576383.5,576400.5,586427.5,586433.39999998,2024-05-31T18:22:52Z,586444.4,NULL,Vergnügen,kichekesho,s,dubwana,mpanuko,mtesaji,NA,sdf,NA,2,NA,NA,NA,NA,NA,NA,NA,NA,NA,NA,NA,NA,NA,NA,NA,NA,NA,NA,NA
a31fe,Deep Question,html.Page,5_0_2_0_5_0_0,NA,NA,form submission,3313.1,586433.5,586427.5,586444.4,589757.5,589757.69999999006,2024-05-31T18:22:56Z,589759.188,NULL,Ergänzung,kijalizo,d,NA,NA,NA,kijalizo,NA,NA,2,NA,NA,NA,NA,NA,NA,NA,NA,NA,NA,NA,NA,NA,NA,NA,NA,NA,NA,NA
a31fe,"""Richtig""-Screen",canvas.Screen,5_0_2_0_5_0_1,NA,NA,timeout,4996.912,589760.80000001,589759.188,589759.188,594739.4,594740.39999998,2024-05-31T18:23:01Z,594756.1,NULL,Ergänzung,kijalizo,d,NA,NA,NA,NA,sdf,1,2,NA,NA,NA,NA,NA,NA,NA,NA,NA,NA,NA,NA,NA,NA,NA,NA,NA,NA,NA
a31fe,"""Falsch""-Screen",canvas.Screen,5_0_2_0_5_0_2,NA,NA,skipped,NA,594745.80000001,NA,NA,594739.4,594745.89999998,2024-05-31T18:23:01Z,594756.1,NULL,Ergänzung,kijalizo,d,NA,NA,NA,NA,sdf,NA,2,NA,NA,NA,NA,NA,NA,NA,NA,NA,NA,NA,NA,NA,NA,NA,NA,NA,NA,NA
a31fe,deep,flow.Sequence,5_0_2_0_5_0,NA,NA,completion,8295,586433.5,586427.5,586444.4,594739.4,594745.89999998,2024-05-31T18:23:01Z,594756.1,NULL,Ergänzung,kijalizo,d,NA,NA,NA,NA,sdf,NA,2,NA,NA,NA,NA,NA,NA,NA,NA,NA,NA,NA,NA,NA,NA,NA,NA,NA,NA,NA
a31fe,shallow,flow.Sequence,5_0_2_0_5_1,NA,NA,skipped,NA,594746,NA,NA,594739.4,594746,2024-05-31T18:23:01Z,594756.1,NULL,Ergänzung,kijalizo,d,NA,NA,NA,NA,sdf,NA,2,NA,NA,NA,NA,NA,NA,NA,NA,NA,NA,NA,NA,NA,NA,NA,NA,NA,NA,NA
a31fe,task,flow.Sequence,5_0_2_0_5,NA,NA,completion,8295,586433.5,586427.5,586444.4,594739.4,594746,2024-05-31T18:23:01Z,594756.1,NULL,Ergänzung,kijalizo,d,NA,NA,NA,NA,sdf,NA,2,NA,NA,NA,NA,NA,NA,NA,NA,NA,NA,NA,NA,NA,NA,NA,NA,NA,NA,NA
a31fe,deep,flow.Sequence,5_0_2_0_6_0,NA,NA,skipped,NA,594746.09999996,NA,NA,594739.4,594746.09999996,2024-05-31T18:23:01Z,594756.1,NULL,Notfall,dharura,s,rairai,malalamiko,ahueni,NA,sdf,NA,2,NA,NA,NA,NA,NA,NA,NA,NA,NA,NA,NA,NA,NA,NA,NA,NA,NA,NA,NA
a31fe,Shallow Question,html.Page,5_0_2_0_6_1_0,NA,NA,form submission,6312.9,594746.19999999006,594739.4,594756.1,601069,601069.30000001,2024-05-31T18:23:07Z,601085.4,NULL,Notfall,dharura,s,rairai,malalamiko,ahueni,dharura,NA,NA,2,NA,NA,NA,NA,NA,NA,NA,NA,NA,NA,NA,NA,NA,NA,NA,NA,NA,NA,NA
a31fe,"""Richtig""-Screen",canvas.Screen,5_0_2_0_6_1_1,NA,NA,timeout,4997.2,601072.5,601068.92,601085.4,606065.7,606066.59999996,2024-05-31T18:23:12Z,606082.6,NULL,Notfall,dharura,s,rairai,malalamiko,ahueni,NA,sdf,1,2,NA,NA,NA,NA,NA,NA,NA,NA,NA,NA,NA,NA,NA,NA,NA,NA,NA,NA,NA
a31fe,"""Falsch""-Screen",canvas.Screen,5_0_2_0_6_1_2,NA,NA,skipped,NA,606071.39999998,NA,NA,606065.7,606071.5,2024-05-31T18:23:12Z,606082.6,NULL,Notfall,dharura,s,rairai,malalamiko,ahueni,NA,sdf,NA,2,NA,NA,NA,NA,NA,NA,NA,NA,NA,NA,NA,NA,NA,NA,NA,NA,NA,NA,NA
a31fe,shallow,flow.Sequence,5_0_2_0_6_1,NA,NA,completion,11309.6,594746.19999999006,594739.4,594756.1,606065.7,606071.5,2024-05-31T18:23:12Z,606082.6,NULL,Notfall,dharura,s,rairai,malalamiko,ahueni,NA,sdf,NA,2,NA,NA,NA,NA,NA,NA,NA,NA,NA,NA,NA,NA,NA,NA,NA,NA,NA,NA,NA
a31fe,task,flow.Sequence,5_0_2_0_6,NA,NA,completion,11309.6,594746.09999996,594739.4,594756.1,606065.7,606071.59999996,2024-05-31T18:23:12Z,606082.6,NULL,Notfall,dharura,s,rairai,malalamiko,ahueni,NA,sdf,NA,2,NA,NA,NA,NA,NA,NA,NA,NA,NA,NA,NA,NA,NA,NA,NA,NA,NA,NA,NA
a31fe,Deep Question,html.Page,5_0_2_0_7_0_0,NA,NA,form submission,6761.9999999643,606071.69999999006,606065.7,606082.6,612844.59999996,612844.89999998,2024-05-31T18:23:19Z,612861.2,NULL,Betrüger,mdanganyifu,d,NA,NA,NA,mashitizo,NA,NA,2,NA,NA,NA,NA,NA,NA,NA,NA,NA,NA,NA,NA,NA,NA,NA,NA,NA,NA,NA
a31fe,"""Richtig""-Screen",canvas.Screen,5_0_2_0_7_0_1,NA,NA,skipped,NA,612847.89999998,NA,NA,612844.59999996,612848.09999996,2024-05-31T18:23:19Z,612861.2,NULL,Betrüger,mdanganyifu,d,NA,NA,NA,NA,sdf,NA,2,NA,NA,NA,NA,NA,NA,NA,NA,NA,NA,NA,NA,NA,NA,NA,NA,NA,NA,NA
a31fe,"""Falsch""-Screen",canvas.Screen,5_0_2_0_7_0_2,NA,NA,timeout,4997.3,612848.80000000994,612845.87,612861.2,617841.5,617842.5,2024-05-31T18:23:24Z,617858.5,NULL,Betrüger,mdanganyifu,d,NA,NA,NA,NA,sdf,0,2,NA,NA,NA,NA,NA,NA,NA,NA,NA,NA,NA,NA,NA,NA,NA,NA,NA,NA,NA
