observation,sender,sender_type,sender_id,response,response_action,ended_on,duration,time_run,time_render,time_show,time_end,time_commit,timestamp,time_switch,german,swahili,enc,distractor1,distractor2,distractor3,response_2,x,correct,distractors,url_vp,url_sess,meta_labjs_version,meta_location,meta_user_agent,meta_platform,meta_language,meta_locale,meta_time_zone,meta_timezone_offset,meta_screen_width,meta_screen_height,meta_scroll_width,meta_scroll_height,meta_window_inner_width,meta_window_inner_height,meta_device_pixel_ratio,meta_labjs_build_flavor,meta_labjs_build_commit
021df,Introduction delayed retrieval,canvas.Screen,0,weiter,keypress(Space),response,25882.6,1059,1069.72,1086.4,26969,26983,2023-07-29T08:04:13Z,26997.68,NA,NA,NA,NA,NA,NA,NA,NA,NA,NULL,174,4,20.2.4,https://neurocog.fernuni.ch/studies/vweber/sliechti/delayed/index.html?vp=174&sess=4,Mozilla/5.0 (Windows NT 10.0; Win64; x64; rv:109.0) Gecko/20100101 Firefox/115.0,Win32,de,de-CH,Europe/Zurich,-120,1707,960,1707,787,1707,835,1.5,production,f5b4a49f956347addd546a832a3327688c2c0fef
021df,Deep Question,html.Page,1_0_0_0,NA,NA,form submission,6702.32,26989,26988.88,26997.68,33700,33700,2023-07-29T08:04:20Z,33712.94,Zufall,kikuti,d,kukosekana,uchoraji,leseni,kj,NA,NA,NULL,NA,NA,NA,NA,NA,NA,NA,NA,NA,NA,NA,NA,NA,NA,NA,NA,NA,NA,NA
021df,Save data screen,canvas.Screen,1_0_0_1,NA,NA,timeout,499.89999999999,33710,33697.8,33712.94,34196.18,34197,2023-07-29T08:04:20Z,34212.84,Zufall,kikuti,d,kukosekana,uchoraji,leseni,NA,NA,0,NULL,NA,NA,NA,NA,NA,NA,NA,NA,NA,NA,NA,NA,NA,NA,NA,NA,NA,NA,NA
021df,deep,flow.Sequence,1_0_0,NA,NA,completion,7198.5,26988,26988.88,26997.68,34196.18,34198,2023-07-29T08:04:20Z,34212.84,Zufall,kikuti,d,kukosekana,uchoraji,leseni,NA,NA,NA,NULL,NA,NA,NA,NA,NA,NA,NA,NA,NA,NA,NA,NA,NA,NA,NA,NA,NA,NA,NA
021df,task,flow.Sequence,1_0,NA,NA,completion,7198.5,26988,26988.88,26997.68,34196.18,34198,2023-07-29T08:04:20Z,34212.84,Zufall,kikuti,d,kukosekana,uchoraji,leseni,NA,NA,NA,NULL,NA,NA,NA,NA,NA,NA,NA,NA,NA,NA,NA,NA,NA,NA,NA,NA,NA,NA,NA
021df,Deep Question,html.Page,1_1_0_0,NA,NA,form submission,7052.16,34199,34196.18,34212.84,41265,41266,2023-07-29T08:04:28Z,41263.58,Annäherung,maegesho,d,madahili,kujiamini,mapendekezo,kj,NA,NA,NULL,NA,NA,NA,NA,NA,NA,NA,NA,NA,NA,NA,NA,NA,NA,NA,NA,NA,NA,NA
021df,Save data screen,canvas.Screen,1_1_0_1,NA,NA,timeout,497.68,41268,41263.36,41263.58,41744.6,41745,2023-07-29T08:04:28Z,41761.26,Annäherung,maegesho,d,madahili,kujiamini,mapendekezo,NA,NA,0,NULL,NA,NA,NA,NA,NA,NA,NA,NA,NA,NA,NA,NA,NA,NA,NA,NA,NA,NA,NA
021df,deep,flow.Sequence,1_1_0,NA,NA,completion,7531.76,34199,34196.18,34212.84,41744.6,41746,2023-07-29T08:04:28Z,41761.26,Annäherung,maegesho,d,madahili,kujiamini,mapendekezo,NA,NA,NA,NULL,NA,NA,NA,NA,NA,NA,NA,NA,NA,NA,NA,NA,NA,NA,NA,NA,NA,NA,NA
021df,task,flow.Sequence,1_1,NA,NA,completion,7531.76,34198,34196.18,34212.84,41744.6,41747,2023-07-29T08:04:28Z,41761.26,Annäherung,maegesho,d,madahili,kujiamini,mapendekezo,NA,NA,NA,NULL,NA,NA,NA,NA,NA,NA,NA,NA,NA,NA,NA,NA,NA,NA,NA,NA,NA,NA,NA
021df,Deep Question,html.Page,1_2_0_0,NA,NA,form submission,3731.74,41748,41744.6,41761.26,45493,45494,2023-07-29T08:04:32Z,45493.84,Ausschluss,kutengwa,s,ununuzi,taratibu,madeni,kj,NA,NA,NULL,NA,NA,NA,NA,NA,NA,NA,NA,NA,NA,NA,NA,NA,NA,NA,NA,NA,NA,NA
021df,Save data screen,canvas.Screen,1_2_0_1,NA,NA,timeout,499.9,45498,45491.16,45493.84,45977.06,45979,2023-07-29T08:04:32Z,45993.74,Ausschluss,kutengwa,s,ununuzi,taratibu,madeni,NA,NA,0,NULL,NA,NA,NA,NA,NA,NA,NA,NA,NA,NA,NA,NA,NA,NA,NA,NA,NA,NA,NA
021df,deep,flow.Sequence,1_2_0,NA,NA,completion,4215.8,41748,41744.6,41761.26,45977.06,45980,2023-07-29T08:04:32Z,45993.74,Ausschluss,kutengwa,s,ununuzi,taratibu,madeni,NA,NA,NA,NULL,NA,NA,NA,NA,NA,NA,NA,NA,NA,NA,NA,NA,NA,NA,NA,NA,NA,NA,NA
021df,task,flow.Sequence,1_2,NA,NA,completion,4215.8,41748,41744.6,41761.26,45977.06,45981,2023-07-29T08:04:32Z,45993.74,Ausschluss,kutengwa,s,ununuzi,taratibu,madeni,NA,NA,NA,NULL,NA,NA,NA,NA,NA,NA,NA,NA,NA,NA,NA,NA,NA,NA,NA,NA,NA,NA,NA
021df,Deep Question,html.Page,1_3_0_0,NA,NA,form submission,2888.26,45982,45977.06,45993.74,48882,48882,2023-07-29T08:04:35Z,48893.06,Sympathie,mapendano,d,dhamiria,fungamano,maazimio,kj,NA,NA,NULL,NA,NA,NA,NA,NA,NA,NA,NA,NA,NA,NA,NA,NA,NA,NA,NA,NA,NA,NA
021df,Save data screen,canvas.Screen,1_3_0_1,NA,NA,timeout,499.94,48885,48880.98,48893.06,49376.34,49379,2023-07-29T08:04:36Z,49393,Sympathie,mapendano,d,dhamiria,fungamano,maazimio,NA,NA,0,NULL,NA,NA,NA,NA,NA,NA,NA,NA,NA,NA,NA,NA,NA,NA,NA,NA,NA,NA,NA
021df,deep,flow.Sequence,1_3_0,NA,NA,completion,3382.6,45981,45977.06,45993.74,49376.34,49379,2023-07-29T08:04:36Z,49393,Sympathie,mapendano,d,dhamiria,fungamano,maazimio,NA,NA,NA,NULL,NA,NA,NA,NA,NA,NA,NA,NA,NA,NA,NA,NA,NA,NA,NA,NA,NA,NA,NA
021df,task,flow.Sequence,1_3,NA,NA,completion,3382.6,45981,45977.06,45993.74,49376.34,49380,2023-07-29T08:04:36Z,49393,Sympathie,mapendano,d,dhamiria,fungamano,maazimio,NA,NA,NA,NULL,NA,NA,NA,NA,NA,NA,NA,NA,NA,NA,NA,NA,NA,NA,NA,NA,NA,NA,NA
021df,Deep Question,html.Page,1_4_0_0,NA,NA,form submission,8271,49380,49376.34,49393,57664,57664,2023-07-29T08:04:44Z,57674.66,Vorsorge,tahadhari,s,ufafanuzi,makini,mashambani,kj,NA,NA,NULL,NA,NA,NA,NA,NA,NA,NA,NA,NA,NA,NA,NA,NA,NA,NA,NA,NA,NA,NA
021df,Save data screen,canvas.Screen,1_4_0_1,NA,NA,timeout,499.84,57667,57662.9,57674.66,58157.84,58161,2023-07-29T08:04:44Z,58174.5,Vorsorge,tahadhari,s,ufafanuzi,makini,mashambani,NA,NA,0,NULL,NA,NA,NA,NA,NA,NA,NA,NA,NA,NA,NA,NA,NA,NA,NA,NA,NA,NA,NA
021df,deep,flow.Sequence,1_4_0,NA,NA,completion,8764.84,49380,49376.34,49393,58157.84,58164,2023-07-29T08:04:44Z,58174.5,Vorsorge,tahadhari,s,ufafanuzi,makini,mashambani,NA,NA,NA,NULL,NA,NA,NA,NA,NA,NA,NA,NA,NA,NA,NA,NA,NA,NA,NA,NA,NA,NA,NA
021df,task,flow.Sequence,1_4,NA,NA,completion,8764.84,49380,49376.34,49393,58157.84,58165,2023-07-29T08:04:44Z,58174.5,Vorsorge,tahadhari,s,ufafanuzi,makini,mashambani,NA,NA,NA,NULL,NA,NA,NA,NA,NA,NA,NA,NA,NA,NA,NA,NA,NA,NA,NA,NA,NA,NA,NA
021df,Deep Question,html.Page,1_5_0_0,NA,NA,form submission,12056.5,58167,58157.84,58174.5,70231,70232,2023-07-29T08:04:57Z,70238.64,Polizist,msongora,s,simanzi,mandhari,nidhamu,mogosza,NA,NA,NULL,NA,NA,NA,NA,NA,NA,NA,NA,NA,NA,NA,NA,NA,NA,NA,NA,NA,NA,NA
021df,Save data screen,canvas.Screen,1_5_0_1,NA,NA,timeout,499.89999999999,70244,70230.22,70238.64,70721.88,70722,2023-07-29T08:04:57Z,70738.54,Polizist,msongora,s,simanzi,mandhari,nidhamu,NA,NA,0,NULL,NA,NA,NA,NA,NA,NA,NA,NA,NA,NA,NA,NA,NA,NA,NA,NA,NA,NA,NA
021df,deep,flow.Sequence,1_5_0,NA,NA,completion,12547.38,58167,58157.84,58174.5,70721.88,70723,2023-07-29T08:04:57Z,70738.54,Polizist,msongora,s,simanzi,mandhari,nidhamu,NA,NA,NA,NULL,NA,NA,NA,NA,NA,NA,NA,NA,NA,NA,NA,NA,NA,NA,NA,NA,NA,NA,NA
021df,task,flow.Sequence,1_5,NA,NA,completion,12547.38,58166,58157.84,58174.5,70721.88,70724,2023-07-29T08:04:57Z,70738.54,Polizist,msongora,s,simanzi,mandhari,nidhamu,NA,NA,NA,NULL,NA,NA,NA,NA,NA,NA,NA,NA,NA,NA,NA,NA,NA,NA,NA,NA,NA,NA,NA
021df,Deep Question,html.Page,1_6_0_0,NA,NA,form submission,7005.46,70724,70721.88,70738.54,77744,77749,2023-07-29T08:05:04Z,77770.36,Gelegenheit,wakati,s,mchanganyiko,kipaumbele,kushuku,kj,NA,NA,NULL,NA,NA,NA,NA,NA,NA,NA,NA,NA,NA,NA,NA,NA,NA,NA,NA,NA,NA,NA
021df,Save data screen,canvas.Screen,1_6_0_1,NA,NA,timeout,499.94,77764,77741.96,77770.36,78253.64,78255,2023-07-29T08:05:05Z,78270.3,Gelegenheit,wakati,s,mchanganyiko,kipaumbele,kushuku,NA,NA,0,NULL,NA,NA,NA,NA,NA,NA,NA,NA,NA,NA,NA,NA,NA,NA,NA,NA,NA,NA,NA
021df,deep,flow.Sequence,1_6_0,NA,NA,completion,7515.1,70724,70721.88,70738.54,78253.64,78256,2023-07-29T08:05:05Z,78270.3,Gelegenheit,wakati,s,mchanganyiko,kipaumbele,kushuku,NA,NA,NA,NULL,NA,NA,NA,NA,NA,NA,NA,NA,NA,NA,NA,NA,NA,NA,NA,NA,NA,NA,NA
021df,task,flow.Sequence,1_6,NA,NA,completion,7515.1,70724,70721.88,70738.54,78253.64,78265,2023-07-29T08:05:05Z,78270.3,Gelegenheit,wakati,s,mchanganyiko,kipaumbele,kushuku,NA,NA,NA,NULL,NA,NA,NA,NA,NA,NA,NA,NA,NA,NA,NA,NA,NA,NA,NA,NA,NA,NA,NA
021df,Deep Question,html.Page,1_7_0_0,NA,NA,form submission,3035.7,78266,78253.64,78270.3,81306,81307,2023-07-29T08:05:08Z,81319.68,Beweis,ushahidi,s,marudio,kizuizi,mtendaji,kj,NA,NA,NULL,NA,NA,NA,NA,NA,NA,NA,NA,NA,NA,NA,NA,NA,NA,NA,NA,NA,NA,NA
021df,Save data screen,canvas.Screen,1_7_0_1,NA,NA,timeout,499.90000000001,81311,81304.82,81319.68,81802.9,81805,2023-07-29T08:05:08Z,81819.58,Beweis,ushahidi,s,marudio,kizuizi,mtendaji,NA,NA,0,NULL,NA,NA,NA,NA,NA,NA,NA,NA,NA,NA,NA,NA,NA,NA,NA,NA,NA,NA,NA
021df,deep,flow.Sequence,1_7_0,NA,NA,completion,3532.6,78266,78253.64,78270.3,81802.9,81805,2023-07-29T08:05:08Z,81819.58,Beweis,ushahidi,s,marudio,kizuizi,mtendaji,NA,NA,NA,NULL,NA,NA,NA,NA,NA,NA,NA,NA,NA,NA,NA,NA,NA,NA,NA,NA,NA,NA,NA
021df,task,flow.Sequence,1_7,NA,NA,completion,3532.6,78265,78253.64,78270.3,81802.9,81806,2023-07-29T08:05:08Z,81819.58,Beweis,ushahidi,s,marudio,kizuizi,mtendaji,NA,NA,NA,NULL,NA,NA,NA,NA,NA,NA,NA,NA,NA,NA,NA,NA,NA,NA,NA,NA,NA,NA,NA
021df,Deep Question,html.Page,1_8_0_0,NA,NA,form submission,8039.42,81806,81802.9,81819.58,89859,89860,2023-07-29T08:05:16Z,89867.88,Schönheit,kirembo,d,mahojiano,msisimko,jitihadi,kj,NA,NA,NULL,NA,NA,NA,NA,NA,NA,NA,NA,NA,NA,NA,NA,NA,NA,NA,NA,NA,NA,NA
021df,Save data screen,canvas.Screen,1_8_0_1,NA,NA,timeout,499.89999999999,89862,89858.42,89867.88,90351.12,90352,2023-07-29T08:05:17Z,90367.78,Schönheit,kirembo,d,mahojiano,msisimko,jitihadi,NA,NA,0,NULL,NA,NA,NA,NA,NA,NA,NA,NA,NA,NA,NA,NA,NA,NA,NA,NA,NA,NA,NA
021df,deep,flow.Sequence,1_8_0,NA,NA,completion,8531.54,81806,81802.9,81819.58,90351.12,90353,2023-07-29T08:05:17Z,90367.78,Schönheit,kirembo,d,mahojiano,msisimko,jitihadi,NA,NA,NA,NULL,NA,NA,NA,NA,NA,NA,NA,NA,NA,NA,NA,NA,NA,NA,NA,NA,NA,NA,NA
021df,task,flow.Sequence,1_8,NA,NA,completion,8531.54,81806,81802.9,81819.58,90351.12,90353,2023-07-29T08:05:17Z,90367.78,Schönheit,kirembo,d,mahojiano,msisimko,jitihadi,NA,NA,NA,NULL,NA,NA,NA,NA,NA,NA,NA,NA,NA,NA,NA,NA,NA,NA,NA,NA,NA,NA,NA
021df,Deep Question,html.Page,1_9_0_0,NA,NA,form submission,9125.22,90353,90351.12,90367.78,99493,99494,2023-07-29T08:05:26Z,99499.22,Widerstand,usulubu,d,kusababisha,mwalimu,mwenendo,mshtoka,NA,NA,NULL,NA,NA,NA,NA,NA,NA,NA,NA,NA,NA,NA,NA,NA,NA,NA,NA,NA,NA,NA
021df,Save data screen,canvas.Screen,1_9_0_1,NA,NA,timeout,499.88,99496,99492.58,99499.22,99982.48,99983,2023-07-29T08:05:26Z,99999.1,Widerstand,usulubu,d,kusababisha,mwalimu,mwenendo,NA,NA,0,NULL,NA,NA,NA,NA,NA,NA,NA,NA,NA,NA,NA,NA,NA,NA,NA,NA,NA,NA,NA
021df,deep,flow.Sequence,1_9_0,NA,NA,completion,9614.7,90353,90351.12,90367.78,99982.48,99983,2023-07-29T08:05:26Z,99999.1,Widerstand,usulubu,d,kusababisha,mwalimu,mwenendo,NA,NA,NA,NULL,NA,NA,NA,NA,NA,NA,NA,NA,NA,NA,NA,NA,NA,NA,NA,NA,NA,NA,NA
021df,task,flow.Sequence,1_9,NA,NA,completion,9614.7,90353,90351.12,90367.78,99982.48,99984,2023-07-29T08:05:26Z,99999.1,Widerstand,usulubu,d,kusababisha,mwalimu,mwenendo,NA,NA,NA,NULL,NA,NA,NA,NA,NA,NA,NA,NA,NA,NA,NA,NA,NA,NA,NA,NA,NA,NA,NA
021df,Deep Question,html.Page,1_10_0_0,NA,NA,form submission,6818.9,99985,99982.48,99999.1,106818,106819,2023-07-29T08:05:33Z,106817.46,Symbol,kielezo,d,kinyume,nderemo,utayari,kielenzo,NA,NA,NULL,NA,NA,NA,NA,NA,NA,NA,NA,NA,NA,NA,NA,NA,NA,NA,NA,NA,NA,NA
021df,Save data screen,canvas.Screen,1_10_0_1,NA,NA,timeout,496.75999999999,106821,106817.2,106817.46,107297.56,107299,2023-07-29T08:05:34Z,107314.22,Symbol,kielezo,d,kinyume,nderemo,utayari,NA,NA,0,NULL,NA,NA,NA,NA,NA,NA,NA,NA,NA,NA,NA,NA,NA,NA,NA,NA,NA,NA,NA
021df,deep,flow.Sequence,1_10_0,NA,NA,completion,7298.46,99985,99982.48,99999.1,107297.56,107299,2023-07-29T08:05:34Z,107314.22,Symbol,kielezo,d,kinyume,nderemo,utayari,NA,NA,NA,NULL,NA,NA,NA,NA,NA,NA,NA,NA,NA,NA,NA,NA,NA,NA,NA,NA,NA,NA,NA
021df,task,flow.Sequence,1_10,NA,NA,completion,7298.46,99985,99982.48,99999.1,107297.56,107299,2023-07-29T08:05:34Z,107314.22,Symbol,kielezo,d,kinyume,nderemo,utayari,NA,NA,NA,NULL,NA,NA,NA,NA,NA,NA,NA,NA,NA,NA,NA,NA,NA,NA,NA,NA,NA,NA,NA
021df,Deep Question,html.Page,1_11_0_0,NA,NA,form submission,4207.78,107299,107297.56,107314.22,111522,111522,2023-07-29T08:05:38Z,111530.16,Konkurrent,mshindani,s,msemaji,mvutaji,kipukusa,ch,NA,NA,NULL,NA,NA,NA,NA,NA,NA,NA,NA,NA,NA,NA,NA,NA,NA,NA,NA,NA,NA,NA
021df,Save data screen,canvas.Screen,1_11_0_1,NA,NA,timeout,499.75999999999,111524,111521.82,111530.16,112013.24,112019,2023-07-29T08:05:38Z,112029.92,Konkurrent,mshindani,s,msemaji,mvutaji,kipukusa,NA,NA,0,NULL,NA,NA,NA,NA,NA,NA,NA,NA,NA,NA,NA,NA,NA,NA,NA,NA,NA,NA,NA
021df,deep,flow.Sequence,1_11_0,NA,NA,completion,4699.02,107299,107297.56,107314.22,112013.24,112022,2023-07-29T08:05:38Z,112029.92,Konkurrent,mshindani,s,msemaji,mvutaji,kipukusa,NA,NA,NA,NULL,NA,NA,NA,NA,NA,NA,NA,NA,NA,NA,NA,NA,NA,NA,NA,NA,NA,NA,NA
021df,task,flow.Sequence,1_11,NA,NA,completion,4699.02,107299,107297.56,107314.22,112013.24,112023,2023-07-29T08:05:38Z,112029.92,Konkurrent,mshindani,s,msemaji,mvutaji,kipukusa,NA,NA,NA,NULL,NA,NA,NA,NA,NA,NA,NA,NA,NA,NA,NA,NA,NA,NA,NA,NA,NA,NA,NA
021df,Deep Question,html.Page,1_12_0_0,NA,NA,form submission,2344.08,112024,112013.24,112029.92,114374,114375,2023-07-29T08:05:41Z,114379.42,Verstand,ufahamivu,d,shakawa,hadhari,mhandisi,kj,NA,NA,NULL,NA,NA,NA,NA,NA,NA,NA,NA,NA,NA,NA,NA,NA,NA,NA,NA,NA,NA,NA
021df,Save data screen,canvas.Screen,1_12_0_1,NA,NA,timeout,499.90000000001,114384,114372.78,114379.42,114862.66,114864,2023-07-29T08:05:41Z,114879.32,Verstand,ufahamivu,d,shakawa,hadhari,mhandisi,NA,NA,0,NULL,NA,NA,NA,NA,NA,NA,NA,NA,NA,NA,NA,NA,NA,NA,NA,NA,NA,NA,NA
021df,deep,flow.Sequence,1_12_0,NA,NA,completion,2832.74,112024,112013.24,112029.92,114862.66,114865,2023-07-29T08:05:41Z,114879.32,Verstand,ufahamivu,d,shakawa,hadhari,mhandisi,NA,NA,NA,NULL,NA,NA,NA,NA,NA,NA,NA,NA,NA,NA,NA,NA,NA,NA,NA,NA,NA,NA,NA
021df,task,flow.Sequence,1_12,NA,NA,completion,2832.74,112023,112013.24,112029.92,114862.66,114866,2023-07-29T08:05:41Z,114879.32,Verstand,ufahamivu,d,shakawa,hadhari,mhandisi,NA,NA,NA,NULL,NA,NA,NA,NA,NA,NA,NA,NA,NA,NA,NA,NA,NA,NA,NA,NA,NA,NA,NA
021df,Deep Question,html.Page,1_13_0_0,NA,NA,form submission,2251.68,114866,114862.66,114879.32,117131,117131,2023-07-29T08:05:43Z,117129.96,Zuwachs,nyongeza,d,matilaba,udhibiti,hudhurio,kj,NA,NA,NULL,NA,NA,NA,NA,NA,NA,NA,NA,NA,NA,NA,NA,NA,NA,NA,NA,NA,NA,NA
021df,Save data screen,canvas.Screen,1_13_0_1,NA,NA,timeout,498.73999999999,117135,117129.72,117129.96,117612.08,117613,2023-07-29T08:05:44Z,117628.7,Zuwachs,nyongeza,d,matilaba,udhibiti,hudhurio,NA,NA,0,NULL,NA,NA,NA,NA,NA,NA,NA,NA,NA,NA,NA,NA,NA,NA,NA,NA,NA,NA,NA
021df,deep,flow.Sequence,1_13_0,NA,NA,completion,2732.76,114866,114862.66,114879.32,117612.08,117614,2023-07-29T08:05:44Z,117628.7,Zuwachs,nyongeza,d,matilaba,udhibiti,hudhurio,NA,NA,NA,NULL,NA,NA,NA,NA,NA,NA,NA,NA,NA,NA,NA,NA,NA,NA,NA,NA,NA,NA,NA
021df,task,flow.Sequence,1_13,NA,NA,completion,2732.76,114866,114862.66,114879.32,117612.08,117615,2023-07-29T08:05:44Z,117628.7,Zuwachs,nyongeza,d,matilaba,udhibiti,hudhurio,NA,NA,NA,NULL,NA,NA,NA,NA,NA,NA,NA,NA,NA,NA,NA,NA,NA,NA,NA,NA,NA,NA,NA
021df,Deep Question,html.Page,1_14_0_0,NA,NA,form submission,2851.3,117616,117612.08,117628.7,120480,120480,2023-07-29T08:05:47Z,120494.76,Auftrag,uagizaji,s,ghanima,kuzingatia,msukani,kj,NA,NA,NULL,NA,NA,NA,NA,NA,NA,NA,NA,NA,NA,NA,NA,NA,NA,NA,NA,NA,NA,NA
021df,Save data screen,canvas.Screen,1_14_0_1,NA,NA,timeout,499.94,120483,120478.7,120494.76,120978.04,120979,2023-07-29T08:05:47Z,120994.7,Auftrag,uagizaji,s,ghanima,kuzingatia,msukani,NA,NA,0,NULL,NA,NA,NA,NA,NA,NA,NA,NA,NA,NA,NA,NA,NA,NA,NA,NA,NA,NA,NA
021df,deep,flow.Sequence,1_14_0,NA,NA,completion,3349.34,117615,117612.08,117628.7,120978.04,120979,2023-07-29T08:05:47Z,120994.7,Auftrag,uagizaji,s,ghanima,kuzingatia,msukani,NA,NA,NA,NULL,NA,NA,NA,NA,NA,NA,NA,NA,NA,NA,NA,NA,NA,NA,NA,NA,NA,NA,NA
021df,task,flow.Sequence,1_14,NA,NA,completion,3349.34,117615,117612.08,117628.7,120978.04,120980,2023-07-29T08:05:47Z,120994.7,Auftrag,uagizaji,s,ghanima,kuzingatia,msukani,NA,NA,NA,NULL,NA,NA,NA,NA,NA,NA,NA,NA,NA,NA,NA,NA,NA,NA,NA,NA,NA,NA,NA
021df,Deep Question,html.Page,1_15_0_0,NA,NA,form submission,9159.3,120981,120978.04,120994.7,130154,130154,2023-07-29T08:05:56Z,130159.44,Wettbewerb,ushindani,s,mapendezi,kichocheo,ubaguzi,ch,NA,NA,NULL,NA,NA,NA,NA,NA,NA,NA,NA,NA,NA,NA,NA,NA,NA,NA,NA,NA,NA,NA
021df,Save data screen,canvas.Screen,1_15_0_1,NA,NA,timeout,499.89999999999,130156,130153.38,130159.44,130642.72,130644,2023-07-29T08:05:57Z,130659.34,Wettbewerb,ushindani,s,mapendezi,kichocheo,ubaguzi,NA,NA,0,NULL,NA,NA,NA,NA,NA,NA,NA,NA,NA,NA,NA,NA,NA,NA,NA,NA,NA,NA,NA
021df,deep,flow.Sequence,1_15_0,NA,NA,completion,9648.02,120981,120978.04,120994.7,130642.72,130644,2023-07-29T08:05:57Z,130659.34,Wettbewerb,ushindani,s,mapendezi,kichocheo,ubaguzi,NA,NA,NA,NULL,NA,NA,NA,NA,NA,NA,NA,NA,NA,NA,NA,NA,NA,NA,NA,NA,NA,NA,NA
021df,task,flow.Sequence,1_15,NA,NA,completion,9648.02,120981,120978.04,120994.7,130642.72,130645,2023-07-29T08:05:57Z,130659.34,Wettbewerb,ushindani,s,mapendezi,kichocheo,ubaguzi,NA,NA,NA,NULL,NA,NA,NA,NA,NA,NA,NA,NA,NA,NA,NA,NA,NA,NA,NA,NA,NA,NA,NA
021df,retrieval block 1 (cued recall),flow.Loop,1,NA,NA,completion,103645.04,26988,26988.88,26997.68,130642.72,130645,2023-07-29T08:05:57Z,130659.34,NA,NA,NA,NA,NA,NA,NA,NA,NA,NULL,NA,NA,NA,NA,NA,NA,NA,NA,NA,NA,NA,NA,NA,NA,NA,NA,NA,NA,NA
021df,Shallow Question,html.Page,2_0_0_0,NA,NA,form submission,9792.66,130646,130642.72,130659.34,140452,140452,2023-07-29T08:06:07Z,140451.3,Auftrag,uagizaji,s,ghanima,kuzingatia,msukani,msukani,NA,NA,"c(""distractor1"", ""distractor2"", ""distractor3"")",NA,NA,NA,NA,NA,NA,NA,NA,NA,NA,NA,NA,NA,NA,NA,NA,NA,NA,NA
021df,Save data screen,canvas.Screen,2_0_0_1,NA,NA,timeout,505.90000000002,140454,140451.04,140451.3,140940.54,140941,2023-07-29T08:06:07Z,140957.2,Auftrag,uagizaji,s,ghanima,kuzingatia,msukani,NA,NA,0,"c(""distractor1"", ""distractor2"", ""distractor3"")",NA,NA,NA,NA,NA,NA,NA,NA,NA,NA,NA,NA,NA,NA,NA,NA,NA,NA,NA
021df,shallow,flow.Sequence,2_0_0,NA,NA,completion,10281.2,130646,130642.72,130659.34,140940.54,140942,2023-07-29T08:06:07Z,140957.2,Auftrag,uagizaji,s,ghanima,kuzingatia,msukani,NA,NA,NA,"c(""distractor1"", ""distractor2"", ""distractor3"")",NA,NA,NA,NA,NA,NA,NA,NA,NA,NA,NA,NA,NA,NA,NA,NA,NA,NA,NA
021df,task,flow.Sequence,2_0,NA,NA,completion,10281.2,130646,130642.72,130659.34,140940.54,140942,2023-07-29T08:06:07Z,140957.2,Auftrag,uagizaji,s,ghanima,kuzingatia,msukani,NA,NA,NA,"c(""distractor1"", ""distractor2"", ""distractor3"")",NA,NA,NA,NA,NA,NA,NA,NA,NA,NA,NA,NA,NA,NA,NA,NA,NA,NA,NA
021df,Shallow Question,html.Page,2_1_0_0,NA,NA,form submission,4401.8,140943,140940.54,140957.2,145359,145359,2023-07-29T08:06:12Z,145357.54,Annäherung,maegesho,d,madahili,kujiamini,mapendekezo,maegesho,NA,NA,"c(""distractor1"", ""distractor2"", ""distractor3"")",NA,NA,NA,NA,NA,NA,NA,NA,NA,NA,NA,NA,NA,NA,NA,NA,NA,NA,NA
021df,Save data screen,canvas.Screen,2_1_0_1,NA,NA,timeout,498.69999999998,145362,145357.24,145357.54,145839.58,145841,2023-07-29T08:06:12Z,145856.24,Annäherung,maegesho,d,madahili,kujiamini,mapendekezo,NA,NA,1,"c(""distractor1"", ""distractor2"", ""distractor3"")",NA,NA,NA,NA,NA,NA,NA,NA,NA,NA,NA,NA,NA,NA,NA,NA,NA,NA,NA
021df,shallow,flow.Sequence,2_1_0,NA,NA,completion,4882.38,140943,140940.54,140957.2,145839.58,145841,2023-07-29T08:06:12Z,145856.24,Annäherung,maegesho,d,madahili,kujiamini,mapendekezo,NA,NA,NA,"c(""distractor1"", ""distractor2"", ""distractor3"")",NA,NA,NA,NA,NA,NA,NA,NA,NA,NA,NA,NA,NA,NA,NA,NA,NA,NA,NA
021df,task,flow.Sequence,2_1,NA,NA,completion,4882.38,140943,140940.54,140957.2,145839.58,145842,2023-07-29T08:06:12Z,145856.24,Annäherung,maegesho,d,madahili,kujiamini,mapendekezo,NA,NA,NA,"c(""distractor1"", ""distractor2"", ""distractor3"")",NA,NA,NA,NA,NA,NA,NA,NA,NA,NA,NA,NA,NA,NA,NA,NA,NA,NA,NA
021df,Shallow Question,html.Page,2_2_0_0,NA,NA,form submission,8601.76,145842,145839.58,145856.24,154458,154458,2023-07-29T08:06:21Z,154457.24,Vorsorge,tahadhari,s,ufafanuzi,makini,mashambani,tahadhari,NA,NA,"c(""distractor1"", ""distractor2"", ""distractor3"")",NA,NA,NA,NA,NA,NA,NA,NA,NA,NA,NA,NA,NA,NA,NA,NA,NA,NA,NA
021df,Save data screen,canvas.Screen,2_2_0_1,NA,NA,timeout,497.04000000001,154460,154457.06,154457.24,154937.6,154938,2023-07-29T08:06:21Z,154954.28,Vorsorge,tahadhari,s,ufafanuzi,makini,mashambani,NA,NA,1,"c(""distractor1"", ""distractor2"", ""distractor3"")",NA,NA,NA,NA,NA,NA,NA,NA,NA,NA,NA,NA,NA,NA,NA,NA,NA,NA,NA
021df,shallow,flow.Sequence,2_2_0,NA,NA,completion,9081.36,145842,145839.58,145856.24,154937.6,154939,2023-07-29T08:06:21Z,154954.28,Vorsorge,tahadhari,s,ufafanuzi,makini,mashambani,NA,NA,NA,"c(""distractor1"", ""distractor2"", ""distractor3"")",NA,NA,NA,NA,NA,NA,NA,NA,NA,NA,NA,NA,NA,NA,NA,NA,NA,NA,NA
021df,task,flow.Sequence,2_2,NA,NA,completion,9081.36,145842,145839.58,145856.24,154937.6,154940,2023-07-29T08:06:21Z,154954.28,Vorsorge,tahadhari,s,ufafanuzi,makini,mashambani,NA,NA,NA,"c(""distractor1"", ""distractor2"", ""distractor3"")",NA,NA,NA,NA,NA,NA,NA,NA,NA,NA,NA,NA,NA,NA,NA,NA,NA,NA,NA
021df,Shallow Question,html.Page,2_3_0_0,NA,NA,form submission,6263.72,154940,154937.6,154954.28,161218,161218,2023-07-29T08:06:27Z,161219.64,Ausschluss,kutengwa,s,ununuzi,taratibu,madeni,kutengwa,NA,NA,"c(""distractor1"", ""distractor2"", ""distractor3"")",NA,NA,NA,NA,NA,NA,NA,NA,NA,NA,NA,NA,NA,NA,NA,NA,NA,NA,NA
021df,Save data screen,canvas.Screen,2_3_0_1,NA,NA,timeout,499.89999999999,161220,161217.46,161219.64,161702.88,161704,2023-07-29T08:06:28Z,161719.54,Ausschluss,kutengwa,s,ununuzi,taratibu,madeni,NA,NA,1,"c(""distractor1"", ""distractor2"", ""distractor3"")",NA,NA,NA,NA,NA,NA,NA,NA,NA,NA,NA,NA,NA,NA,NA,NA,NA,NA,NA
021df,shallow,flow.Sequence,2_3_0,NA,NA,completion,6748.6,154940,154937.6,154954.28,161702.88,161704,2023-07-29T08:06:28Z,161719.54,Ausschluss,kutengwa,s,ununuzi,taratibu,madeni,NA,NA,NA,"c(""distractor1"", ""distractor2"", ""distractor3"")",NA,NA,NA,NA,NA,NA,NA,NA,NA,NA,NA,NA,NA,NA,NA,NA,NA,NA,NA
021df,task,flow.Sequence,2_3,NA,NA,completion,6748.6,154940,154937.6,154954.28,161702.88,161704,2023-07-29T08:06:28Z,161719.54,Ausschluss,kutengwa,s,ununuzi,taratibu,madeni,NA,NA,NA,"c(""distractor1"", ""distractor2"", ""distractor3"")",NA,NA,NA,NA,NA,NA,NA,NA,NA,NA,NA,NA,NA,NA,NA,NA,NA,NA,NA
021df,Shallow Question,html.Page,2_4_0_0,NA,NA,form submission,3190.46,161705,161702.88,161719.54,164910,164911,2023-07-29T08:06:31Z,164909.5,Polizist,msongora,s,simanzi,mandhari,nidhamu,msongora,NA,NA,"c(""distractor1"", ""distractor2"", ""distractor3"")",NA,NA,NA,NA,NA,NA,NA,NA,NA,NA,NA,NA,NA,NA,NA,NA,NA,NA,NA
021df,Save data screen,canvas.Screen,2_4_0_1,NA,NA,timeout,492.57999999999,164913,164909.22,164909.5,165385.42,165386,2023-07-29T08:06:32Z,165402.08,Polizist,msongora,s,simanzi,mandhari,nidhamu,NA,NA,1,"c(""distractor1"", ""distractor2"", ""distractor3"")",NA,NA,NA,NA,NA,NA,NA,NA,NA,NA,NA,NA,NA,NA,NA,NA,NA,NA,NA
021df,shallow,flow.Sequence,2_4_0,NA,NA,completion,3665.88,161705,161702.88,161719.54,165385.42,165387,2023-07-29T08:06:32Z,165402.08,Polizist,msongora,s,simanzi,mandhari,nidhamu,NA,NA,NA,"c(""distractor1"", ""distractor2"", ""distractor3"")",NA,NA,NA,NA,NA,NA,NA,NA,NA,NA,NA,NA,NA,NA,NA,NA,NA,NA,NA
021df,task,flow.Sequence,2_4,NA,NA,completion,3665.88,161705,161702.88,161719.54,165385.42,165387,2023-07-29T08:06:32Z,165402.08,Polizist,msongora,s,simanzi,mandhari,nidhamu,NA,NA,NA,"c(""distractor1"", ""distractor2"", ""distractor3"")",NA,NA,NA,NA,NA,NA,NA,NA,NA,NA,NA,NA,NA,NA,NA,NA,NA,NA,NA
021df,Shallow Question,html.Page,2_5_0_0,NA,NA,form submission,3452.92,165388,165385.42,165402.08,168855,168856,2023-07-29T08:06:35Z,168854.32,Symbol,kielezo,d,kinyume,nderemo,utayari,kielezo,NA,NA,"c(""distractor1"", ""distractor2"", ""distractor3"")",NA,NA,NA,NA,NA,NA,NA,NA,NA,NA,NA,NA,NA,NA,NA,NA,NA,NA,NA
021df,Save data screen,canvas.Screen,2_5_0_1,NA,NA,timeout,496.94,168857,168854.12,168854.32,169334.6,169342,2023-07-29T08:06:36Z,169351.26,Symbol,kielezo,d,kinyume,nderemo,utayari,NA,NA,1,"c(""distractor1"", ""distractor2"", ""distractor3"")",NA,NA,NA,NA,NA,NA,NA,NA,NA,NA,NA,NA,NA,NA,NA,NA,NA,NA,NA
021df,shallow,flow.Sequence,2_5_0,NA,NA,completion,3932.52,165388,165385.42,165402.08,169334.6,169347,2023-07-29T08:06:36Z,169351.26,Symbol,kielezo,d,kinyume,nderemo,utayari,NA,NA,NA,"c(""distractor1"", ""distractor2"", ""distractor3"")",NA,NA,NA,NA,NA,NA,NA,NA,NA,NA,NA,NA,NA,NA,NA,NA,NA,NA,NA
021df,task,flow.Sequence,2_5,NA,NA,completion,3932.52,165388,165385.42,165402.08,169334.6,169348,2023-07-29T08:06:36Z,169351.26,Symbol,kielezo,d,kinyume,nderemo,utayari,NA,NA,NA,"c(""distractor1"", ""distractor2"", ""distractor3"")",NA,NA,NA,NA,NA,NA,NA,NA,NA,NA,NA,NA,NA,NA,NA,NA,NA,NA,NA
021df,Shallow Question,html.Page,2_6_0_0,NA,NA,form submission,4161.74,169349,169334.6,169351.26,173513,173519,2023-07-29T08:06:40Z,173533.76,Konkurrent,mshindani,s,msemaji,mvutaji,kipukusa,mshindani,NA,NA,"c(""distractor1"", ""distractor2"", ""distractor3"")",NA,NA,NA,NA,NA,NA,NA,NA,NA,NA,NA,NA,NA,NA,NA,NA,NA,NA,NA
021df,Save data screen,canvas.Screen,2_6_0_1,NA,NA,timeout,499.94,173536,173509.6,173533.76,174017.06,174020,2023-07-29T08:06:40Z,174033.7,Konkurrent,mshindani,s,msemaji,mvutaji,kipukusa,NA,NA,1,"c(""distractor1"", ""distractor2"", ""distractor3"")",NA,NA,NA,NA,NA,NA,NA,NA,NA,NA,NA,NA,NA,NA,NA,NA,NA,NA,NA
021df,shallow,flow.Sequence,2_6_0,NA,NA,completion,4665.8,169349,169334.6,169351.26,174017.06,174022,2023-07-29T08:06:40Z,174033.7,Konkurrent,mshindani,s,msemaji,mvutaji,kipukusa,NA,NA,NA,"c(""distractor1"", ""distractor2"", ""distractor3"")",NA,NA,NA,NA,NA,NA,NA,NA,NA,NA,NA,NA,NA,NA,NA,NA,NA,NA,NA
021df,task,flow.Sequence,2_6,NA,NA,completion,4665.8,169348,169334.6,169351.26,174017.06,174023,2023-07-29T08:06:40Z,174033.7,Konkurrent,mshindani,s,msemaji,mvutaji,kipukusa,NA,NA,NA,"c(""distractor1"", ""distractor2"", ""distractor3"")",NA,NA,NA,NA,NA,NA,NA,NA,NA,NA,NA,NA,NA,NA,NA,NA,NA,NA,NA
021df,Shallow Question,html.Page,2_7_0_0,NA,NA,form submission,4855.3,174024,174017.06,174033.7,178889,178890,2023-07-29T08:06:45Z,178888.82,Verstand,ufahamivu,d,shakawa,hadhari,mhandisi,hadhari,NA,NA,"c(""distractor1"", ""distractor2"", ""distractor3"")",NA,NA,NA,NA,NA,NA,NA,NA,NA,NA,NA,NA,NA,NA,NA,NA,NA,NA,NA
021df,Save data screen,canvas.Screen,2_7_0_1,NA,NA,timeout,493.75999999998,178892,178888.48,178888.82,179365.9,179368,2023-07-29T08:06:46Z,179382.58,Verstand,ufahamivu,d,shakawa,hadhari,mhandisi,NA,NA,0,"c(""distractor1"", ""distractor2"", ""distractor3"")",NA,NA,NA,NA,NA,NA,NA,NA,NA,NA,NA,NA,NA,NA,NA,NA,NA,NA,NA
021df,shallow,flow.Sequence,2_7_0,NA,NA,completion,5332.2,174024,174017.06,174033.7,179365.9,179370,2023-07-29T08:06:46Z,179382.58,Verstand,ufahamivu,d,shakawa,hadhari,mhandisi,NA,NA,NA,"c(""distractor1"", ""distractor2"", ""distractor3"")",NA,NA,NA,NA,NA,NA,NA,NA,NA,NA,NA,NA,NA,NA,NA,NA,NA,NA,NA
021df,task,flow.Sequence,2_7,NA,NA,completion,5332.2,174023,174017.06,174033.7,179365.9,179372,2023-07-29T08:06:46Z,179382.58,Verstand,ufahamivu,d,shakawa,hadhari,mhandisi,NA,NA,NA,"c(""distractor1"", ""distractor2"", ""distractor3"")",NA,NA,NA,NA,NA,NA,NA,NA,NA,NA,NA,NA,NA,NA,NA,NA,NA,NA,NA
021df,Shallow Question,html.Page,2_8_0_0,NA,NA,form submission,7442.42,179373,179365.9,179382.58,186825,186826,2023-07-29T08:06:53Z,186831,Widerstand,usulubu,d,kusababisha,mwalimu,mwenendo,usulubu,NA,NA,"c(""distractor1"", ""distractor2"", ""distractor3"")",NA,NA,NA,NA,NA,NA,NA,NA,NA,NA,NA,NA,NA,NA,NA,NA,NA,NA,NA
021df,Save data screen,canvas.Screen,2_8_0_1,NA,NA,timeout,499.92000000001,186828,186823.4,186831,187314.28,187317,2023-07-29T08:06:54Z,187330.92,Widerstand,usulubu,d,kusababisha,mwalimu,mwenendo,NA,NA,1,"c(""distractor1"", ""distractor2"", ""distractor3"")",NA,NA,NA,NA,NA,NA,NA,NA,NA,NA,NA,NA,NA,NA,NA,NA,NA,NA,NA
021df,shallow,flow.Sequence,2_8_0,NA,NA,completion,7931.7,179373,179365.9,179382.58,187314.28,187319,2023-07-29T08:06:54Z,187330.92,Widerstand,usulubu,d,kusababisha,mwalimu,mwenendo,NA,NA,NA,"c(""distractor1"", ""distractor2"", ""distractor3"")",NA,NA,NA,NA,NA,NA,NA,NA,NA,NA,NA,NA,NA,NA,NA,NA,NA,NA,NA
021df,task,flow.Sequence,2_8,NA,NA,completion,7931.7,179373,179365.9,179382.58,187314.28,187320,2023-07-29T08:06:54Z,187330.92,Widerstand,usulubu,d,kusababisha,mwalimu,mwenendo,NA,NA,NA,"c(""distractor1"", ""distractor2"", ""distractor3"")",NA,NA,NA,NA,NA,NA,NA,NA,NA,NA,NA,NA,NA,NA,NA,NA,NA,NA,NA
021df,Shallow Question,html.Page,2_9_0_0,NA,NA,form submission,10925.08,187321,187314.28,187330.92,198256,198257,2023-07-29T08:07:05Z,198262.06,Zufall,kikuti,d,kukosekana,uchoraji,leseni,kikuti,NA,NA,"c(""distractor1"", ""distractor2"", ""distractor3"")",NA,NA,NA,NA,NA,NA,NA,NA,NA,NA,NA,NA,NA,NA,NA,NA,NA,NA,NA
021df,Save data screen,canvas.Screen,2_9_0_1,NA,NA,timeout,499.82000000001,198259,198255.48,198262.06,198745.2,198748,2023-07-29T08:07:05Z,198761.88,Zufall,kikuti,d,kukosekana,uchoraji,leseni,NA,NA,1,"c(""distractor1"", ""distractor2"", ""distractor3"")",NA,NA,NA,NA,NA,NA,NA,NA,NA,NA,NA,NA,NA,NA,NA,NA,NA,NA,NA
021df,shallow,flow.Sequence,2_9_0,NA,NA,completion,11414.28,187321,187314.28,187330.92,198745.2,198749,2023-07-29T08:07:05Z,198761.88,Zufall,kikuti,d,kukosekana,uchoraji,leseni,NA,NA,NA,"c(""distractor1"", ""distractor2"", ""distractor3"")",NA,NA,NA,NA,NA,NA,NA,NA,NA,NA,NA,NA,NA,NA,NA,NA,NA,NA,NA
021df,task,flow.Sequence,2_9,NA,NA,completion,11414.28,187321,187314.28,187330.92,198745.2,198751,2023-07-29T08:07:05Z,198761.88,Zufall,kikuti,d,kukosekana,uchoraji,leseni,NA,NA,NA,"c(""distractor1"", ""distractor2"", ""distractor3"")",NA,NA,NA,NA,NA,NA,NA,NA,NA,NA,NA,NA,NA,NA,NA,NA,NA,NA,NA
021df,Shallow Question,html.Page,2_10_0_0,NA,NA,form submission,4423.12,198751,198745.2,198761.88,203185,203185,2023-07-29T08:07:09Z,203184.18,Gelegenheit,wakati,s,mchanganyiko,kipaumbele,kushuku,wakati,NA,NA,"c(""distractor1"", ""distractor2"", ""distractor3"")",NA,NA,NA,NA,NA,NA,NA,NA,NA,NA,NA,NA,NA,NA,NA,NA,NA,NA,NA
021df,Save data screen,canvas.Screen,2_10_0_1,NA,NA,timeout,493.30000000002,203188,203183.88,203184.18,203660.82,203663,2023-07-29T08:07:10Z,203677.48,Gelegenheit,wakati,s,mchanganyiko,kipaumbele,kushuku,NA,NA,1,"c(""distractor1"", ""distractor2"", ""distractor3"")",NA,NA,NA,NA,NA,NA,NA,NA,NA,NA,NA,NA,NA,NA,NA,NA,NA,NA,NA
021df,shallow,flow.Sequence,2_10_0,NA,NA,completion,4898.94,198751,198745.2,198761.88,203660.82,203664,2023-07-29T08:07:10Z,203677.48,Gelegenheit,wakati,s,mchanganyiko,kipaumbele,kushuku,NA,NA,NA,"c(""distractor1"", ""distractor2"", ""distractor3"")",NA,NA,NA,NA,NA,NA,NA,NA,NA,NA,NA,NA,NA,NA,NA,NA,NA,NA,NA
021df,task,flow.Sequence,2_10,NA,NA,completion,4898.94,198751,198745.2,198761.88,203660.82,203665,2023-07-29T08:07:10Z,203677.48,Gelegenheit,wakati,s,mchanganyiko,kipaumbele,kushuku,NA,NA,NA,"c(""distractor1"", ""distractor2"", ""distractor3"")",NA,NA,NA,NA,NA,NA,NA,NA,NA,NA,NA,NA,NA,NA,NA,NA,NA,NA,NA
021df,Shallow Question,html.Page,2_11_0_0,NA,NA,form submission,4428.52,203666,203660.82,203677.48,208106,208106,2023-07-29T08:07:14Z,208109.86,Sympathie,mapendano,d,dhamiria,fungamano,maazimio,mapendano,NA,NA,"c(""distractor1"", ""distractor2"", ""distractor3"")",NA,NA,NA,NA,NA,NA,NA,NA,NA,NA,NA,NA,NA,NA,NA,NA,NA,NA,NA
021df,Save data screen,canvas.Screen,2_11_0_1,NA,NA,timeout,516.64000000001,208108,208104.42,208109.86,208593.18,208606,2023-07-29T08:07:15Z,208626.5,Sympathie,mapendano,d,dhamiria,fungamano,maazimio,NA,NA,1,"c(""distractor1"", ""distractor2"", ""distractor3"")",NA,NA,NA,NA,NA,NA,NA,NA,NA,NA,NA,NA,NA,NA,NA,NA,NA,NA,NA
021df,shallow,flow.Sequence,2_11_0,NA,NA,completion,4915.7,203666,203660.82,203677.48,208593.18,208618,2023-07-29T08:07:15Z,208626.5,Sympathie,mapendano,d,dhamiria,fungamano,maazimio,NA,NA,NA,"c(""distractor1"", ""distractor2"", ""distractor3"")",NA,NA,NA,NA,NA,NA,NA,NA,NA,NA,NA,NA,NA,NA,NA,NA,NA,NA,NA
021df,task,flow.Sequence,2_11,NA,NA,completion,4915.7,203666,203660.82,203677.48,208593.18,208620,2023-07-29T08:07:15Z,208626.5,Sympathie,mapendano,d,dhamiria,fungamano,maazimio,NA,NA,NA,"c(""distractor1"", ""distractor2"", ""distractor3"")",NA,NA,NA,NA,NA,NA,NA,NA,NA,NA,NA,NA,NA,NA,NA,NA,NA,NA,NA
021df,Shallow Question,html.Page,2_12_0_0,NA,NA,form submission,3739.5,208623,208593.18,208626.5,212366,212366,2023-07-29T08:07:19Z,212375.66,Schönheit,kirembo,d,mahojiano,msisimko,jitihadi,kirembo,NA,NA,"c(""distractor1"", ""distractor2"", ""distractor3"")",NA,NA,NA,NA,NA,NA,NA,NA,NA,NA,NA,NA,NA,NA,NA,NA,NA,NA,NA
021df,Save data screen,canvas.Screen,2_12_0_1,NA,NA,timeout,499.91999999998,212379,212364.36,212375.66,212858.92,212862,2023-07-29T08:07:19Z,212875.58,Schönheit,kirembo,d,mahojiano,msisimko,jitihadi,NA,NA,1,"c(""distractor1"", ""distractor2"", ""distractor3"")",NA,NA,NA,NA,NA,NA,NA,NA,NA,NA,NA,NA,NA,NA,NA,NA,NA,NA,NA
021df,shallow,flow.Sequence,2_12_0,NA,NA,completion,4232.42,208622,208593.18,208626.5,212858.92,212864,2023-07-29T08:07:19Z,212875.58,Schönheit,kirembo,d,mahojiano,msisimko,jitihadi,NA,NA,NA,"c(""distractor1"", ""distractor2"", ""distractor3"")",NA,NA,NA,NA,NA,NA,NA,NA,NA,NA,NA,NA,NA,NA,NA,NA,NA,NA,NA
021df,task,flow.Sequence,2_12,NA,NA,completion,4232.42,208621,208593.18,208626.5,212858.92,212865,2023-07-29T08:07:19Z,212875.58,Schönheit,kirembo,d,mahojiano,msisimko,jitihadi,NA,NA,NA,"c(""distractor1"", ""distractor2"", ""distractor3"")",NA,NA,NA,NA,NA,NA,NA,NA,NA,NA,NA,NA,NA,NA,NA,NA,NA,NA,NA
021df,Shallow Question,html.Page,2_13_0_0,NA,NA,form submission,4452.42,212867,212858.92,212875.58,217328,217328,2023-07-29T08:07:24Z,217326.94,Zuwachs,nyongeza,d,matilaba,udhibiti,hudhurio,nyongeza,NA,NA,"c(""distractor1"", ""distractor2"", ""distractor3"")",NA,NA,NA,NA,NA,NA,NA,NA,NA,NA,NA,NA,NA,NA,NA,NA,NA,NA,NA
021df,Save data screen,canvas.Screen,2_13_0_1,NA,NA,timeout,497.62,217331,217326.58,217326.94,217807.9,217811,2023-07-29T08:07:24Z,217824.56,Zuwachs,nyongeza,d,matilaba,udhibiti,hudhurio,NA,NA,1,"c(""distractor1"", ""distractor2"", ""distractor3"")",NA,NA,NA,NA,NA,NA,NA,NA,NA,NA,NA,NA,NA,NA,NA,NA,NA,NA,NA
021df,shallow,flow.Sequence,2_13_0,NA,NA,completion,4932.32,212866,212858.92,212875.58,217807.9,217811,2023-07-29T08:07:24Z,217824.56,Zuwachs,nyongeza,d,matilaba,udhibiti,hudhurio,NA,NA,NA,"c(""distractor1"", ""distractor2"", ""distractor3"")",NA,NA,NA,NA,NA,NA,NA,NA,NA,NA,NA,NA,NA,NA,NA,NA,NA,NA,NA
021df,task,flow.Sequence,2_13,NA,NA,completion,4932.32,212866,212858.92,212875.58,217807.9,217814,2023-07-29T08:07:24Z,217824.56,Zuwachs,nyongeza,d,matilaba,udhibiti,hudhurio,NA,NA,NA,"c(""distractor1"", ""distractor2"", ""distractor3"")",NA,NA,NA,NA,NA,NA,NA,NA,NA,NA,NA,NA,NA,NA,NA,NA,NA,NA,NA
021df,Shallow Question,html.Page,2_14_0_0,NA,NA,form submission,7055.44,217815,217807.9,217824.56,224880,224881,2023-07-29T08:07:31Z,224879.38,Beweis,ushahidi,s,marudio,kizuizi,mtendaji,ushahidi,NA,NA,"c(""distractor1"", ""distractor2"", ""distractor3"")",NA,NA,NA,NA,NA,NA,NA,NA,NA,NA,NA,NA,NA,NA,NA,NA,NA,NA,NA
021df,Save data screen,canvas.Screen,2_14_0_1,NA,NA,timeout,493.66,224884,224879.1,224879.38,225356.38,225359,2023-07-29T08:07:32Z,225373.04,Beweis,ushahidi,s,marudio,kizuizi,mtendaji,NA,NA,1,"c(""distractor1"", ""distractor2"", ""distractor3"")",NA,NA,NA,NA,NA,NA,NA,NA,NA,NA,NA,NA,NA,NA,NA,NA,NA,NA,NA
021df,shallow,flow.Sequence,2_14_0,NA,NA,completion,7531.82,217815,217807.9,217824.56,225356.38,225360,2023-07-29T08:07:32Z,225373.04,Beweis,ushahidi,s,marudio,kizuizi,mtendaji,NA,NA,NA,"c(""distractor1"", ""distractor2"", ""distractor3"")",NA,NA,NA,NA,NA,NA,NA,NA,NA,NA,NA,NA,NA,NA,NA,NA,NA,NA,NA
021df,task,flow.Sequence,2_14,NA,NA,completion,7531.82,217815,217807.9,217824.56,225356.38,225362,2023-07-29T08:07:32Z,225373.04,Beweis,ushahidi,s,marudio,kizuizi,mtendaji,NA,NA,NA,"c(""distractor1"", ""distractor2"", ""distractor3"")",NA,NA,NA,NA,NA,NA,NA,NA,NA,NA,NA,NA,NA,NA,NA,NA,NA,NA,NA
021df,Shallow Question,html.Page,2_15_0_0,NA,NA,form submission,20701.96,225364,225356.38,225373.04,246075,246075,2023-07-29T08:07:52Z,246074.18,Wettbewerb,ushindani,s,mapendezi,kichocheo,ubaguzi,mapendezi,NA,NA,"c(""distractor1"", ""distractor2"", ""distractor3"")",NA,NA,NA,NA,NA,NA,NA,NA,NA,NA,NA,NA,NA,NA,NA,NA,NA,NA,NA
021df,Save data screen,canvas.Screen,2_15_0_1,NA,NA,timeout,494.28,246077,246073.88,246074.18,246551.8,246552,2023-07-29T08:07:53Z,246568.46,Wettbewerb,ushindani,s,mapendezi,kichocheo,ubaguzi,NA,NA,0,"c(""distractor1"", ""distractor2"", ""distractor3"")",NA,NA,NA,NA,NA,NA,NA,NA,NA,NA,NA,NA,NA,NA,NA,NA,NA,NA,NA
021df,shallow,flow.Sequence,2_15_0,NA,NA,completion,21178.76,225364,225356.38,225373.04,246551.8,246553,2023-07-29T08:07:53Z,246568.46,Wettbewerb,ushindani,s,mapendezi,kichocheo,ubaguzi,NA,NA,NA,"c(""distractor1"", ""distractor2"", ""distractor3"")",NA,NA,NA,NA,NA,NA,NA,NA,NA,NA,NA,NA,NA,NA,NA,NA,NA,NA,NA
021df,task,flow.Sequence,2_15,NA,NA,completion,21178.76,225363,225356.38,225373.04,246551.8,246554,2023-07-29T08:07:53Z,246568.46,Wettbewerb,ushindani,s,mapendezi,kichocheo,ubaguzi,NA,NA,NA,"c(""distractor1"", ""distractor2"", ""distractor3"")",NA,NA,NA,NA,NA,NA,NA,NA,NA,NA,NA,NA,NA,NA,NA,NA,NA,NA,NA
021df,retrieval block 2 (multiple choice),flow.Loop,2,NA,NA,completion,115892.46,130645,130642.72,130659.34,246551.8,246554,2023-07-29T08:07:53Z,246568.46,NA,NA,NA,NA,NA,NA,NA,NA,NA,"c(""distractor1"", ""distractor2"", ""distractor3"")",NA,NA,NA,NA,NA,NA,NA,NA,NA,NA,NA,NA,NA,NA,NA,NA,NA,NA,NA
021df,End,canvas.Screen,3,NA,keypress(Space),response,3885.54,246555,246551.8,246568.46,250454,250471,2023-07-29T08:07:57Z,250484.84,NA,NA,NA,NA,NA,NA,NA,NA,NA,NULL,NA,NA,NA,NA,NA,NA,NA,NA,NA,NA,NA,NA,NA,NA,NA,NA,NA,NA,NA
021df,root,flow.Sequence,NA,NA,NA,completion,249367.6,1059,1069.72,1086.4,250454,250472,2023-07-29T08:07:57Z,250484.84,NA,NA,NA,NA,NA,NA,NA,NA,NA,NULL,NA,NA,NA,NA,NA,NA,NA,NA,NA,NA,NA,NA,NA,NA,NA,NA,NA,NA,NA
