observation,sender,sender_type,sender_id,response,response_action,ended_on,duration,time_run,time_render,time_show,time_end,time_commit,timestamp,time_switch,german,swahili,enc,distractor1,distractor2,distractor3,response_2,x,correct,distractors,url_vp,url_sess,meta_labjs_version,meta_location,meta_user_agent,meta_platform,meta_language,meta_locale,meta_time_zone,meta_timezone_offset,meta_screen_width,meta_screen_height,meta_scroll_width,meta_scroll_height,meta_window_inner_width,meta_window_inner_height,meta_device_pixel_ratio,meta_labjs_build_flavor,meta_labjs_build_commit
8b870,Introduction delayed retrieval,canvas.Screen,0,weiter,keypress(Space),response,19886.76,679,683.58,700.24,20587,20618,2023-07-12T18:27:57Z,20629.5,NA,NA,NA,NA,NA,NA,NA,NA,NA,NULL,174,2,20.2.4,https://neurocog.fernuni.ch/studies/vweber/sliechti/delayed%202/index.html?vp=174&sess=2,Mozilla/5.0 (Windows NT 10.0; Win64; x64; rv:109.0) Gecko/20100101 Firefox/115.0,Win32,de,de-CH,Europe/Zurich,-120,1707,960,1460,743,1460,791,1.5,production,f5b4a49f956347addd546a832a3327688c2c0fef
8b870,Deep Question,html.Page,1_0_0_0,NA,NA,form submission,11159.5,20624,20623.98,20629.5,31789,31790,2023-07-12T18:28:08Z,31793.82,Flexibilität,kubadilika,d,enjini,usikilivu,hesabu,kuchelewa,NA,NA,NULL,NA,NA,NA,NA,NA,NA,NA,NA,NA,NA,NA,NA,NA,NA,NA,NA,NA,NA,NA
8b870,Save data screen,canvas.Screen,1_0_0_1,NA,NA,timeout,499.86,31803,31782.02,31793.82,32277.12,32278,2023-07-12T18:28:08Z,32293.68,Flexibilität,kubadilika,d,enjini,usikilivu,hesabu,NA,NA,0,NULL,NA,NA,NA,NA,NA,NA,NA,NA,NA,NA,NA,NA,NA,NA,NA,NA,NA,NA,NA
8b870,deep,flow.Sequence,1_0_0,NA,NA,completion,11647.62,20624,20623.98,20629.5,32277.12,32279,2023-07-12T18:28:08Z,32293.68,Flexibilität,kubadilika,d,enjini,usikilivu,hesabu,NA,NA,NA,NULL,NA,NA,NA,NA,NA,NA,NA,NA,NA,NA,NA,NA,NA,NA,NA,NA,NA,NA,NA
8b870,task,flow.Sequence,1_0,NA,NA,completion,11647.62,20624,20623.98,20629.5,32277.12,32281,2023-07-12T18:28:08Z,32293.68,Flexibilität,kubadilika,d,enjini,usikilivu,hesabu,NA,NA,NA,NULL,NA,NA,NA,NA,NA,NA,NA,NA,NA,NA,NA,NA,NA,NA,NA,NA,NA,NA,NA
8b870,Deep Question,html.Page,1_1_0_0,NA,NA,form submission,9964.32,32282,32277.12,32293.68,42258,42259,2023-07-12T18:28:18Z,42258.28,Papier,karatasi,s,uchambuzi,usalama,kukataliwa,kirisi,NA,NA,NULL,NA,NA,NA,NA,NA,NA,NA,NA,NA,NA,NA,NA,NA,NA,NA,NA,NA,NA,NA
8b870,Save data screen,canvas.Screen,1_1_0_1,NA,NA,timeout,499.9,42262,42255.04,42258.28,42741.62,42744,2023-07-12T18:28:19Z,42758.18,Papier,karatasi,s,uchambuzi,usalama,kukataliwa,NA,NA,0,NULL,NA,NA,NA,NA,NA,NA,NA,NA,NA,NA,NA,NA,NA,NA,NA,NA,NA,NA,NA
8b870,deep,flow.Sequence,1_1_0,NA,NA,completion,10447.94,32282,32277.12,32293.68,42741.62,42745,2023-07-12T18:28:19Z,42758.18,Papier,karatasi,s,uchambuzi,usalama,kukataliwa,NA,NA,NA,NULL,NA,NA,NA,NA,NA,NA,NA,NA,NA,NA,NA,NA,NA,NA,NA,NA,NA,NA,NA
8b870,task,flow.Sequence,1_1,NA,NA,completion,10447.94,32282,32277.12,32293.68,42741.62,42746,2023-07-12T18:28:19Z,42758.18,Papier,karatasi,s,uchambuzi,usalama,kukataliwa,NA,NA,NA,NULL,NA,NA,NA,NA,NA,NA,NA,NA,NA,NA,NA,NA,NA,NA,NA,NA,NA,NA,NA
8b870,Deep Question,html.Page,1_2_0_0,NA,NA,form submission,7300.82,42747,42741.62,42758.18,50059,50060,2023-07-12T18:28:26Z,50073.32,Orientierung,urekebisho,s,uelekeo,marekebisho,utunzaji,kj,NA,NA,NULL,NA,NA,NA,NA,NA,NA,NA,NA,NA,NA,NA,NA,NA,NA,NA,NA,NA,NA,NA
8b870,Save data screen,canvas.Screen,1_2_0_1,NA,NA,timeout,499.96,50062,50057.54,50073.32,50556.66,50558,2023-07-12T18:28:27Z,50573.28,Orientierung,urekebisho,s,uelekeo,marekebisho,utunzaji,NA,NA,0,NULL,NA,NA,NA,NA,NA,NA,NA,NA,NA,NA,NA,NA,NA,NA,NA,NA,NA,NA,NA
8b870,deep,flow.Sequence,1_2_0,NA,NA,completion,7798.48,42747,42741.62,42758.18,50556.66,50559,2023-07-12T18:28:27Z,50573.28,Orientierung,urekebisho,s,uelekeo,marekebisho,utunzaji,NA,NA,NA,NULL,NA,NA,NA,NA,NA,NA,NA,NA,NA,NA,NA,NA,NA,NA,NA,NA,NA,NA,NA
8b870,task,flow.Sequence,1_2,NA,NA,completion,7798.48,42747,42741.62,42758.18,50556.66,50560,2023-07-12T18:28:27Z,50573.28,Orientierung,urekebisho,s,uelekeo,marekebisho,utunzaji,NA,NA,NA,NULL,NA,NA,NA,NA,NA,NA,NA,NA,NA,NA,NA,NA,NA,NA,NA,NA,NA,NA,NA
8b870,Deep Question,html.Page,1_3_0_0,NA,NA,form submission,4269.72,50560,50556.66,50573.28,54843,54843,2023-07-12T18:28:31Z,54855.62,Respekt,heshima,s,changamnao,upinzani,ufanisi,kj,NA,NA,NULL,NA,NA,NA,NA,NA,NA,NA,NA,NA,NA,NA,NA,NA,NA,NA,NA,NA,NA,NA
8b870,Save data screen,canvas.Screen,1_3_0_1,NA,NA,timeout,499.98,54845,54840.14,54855.62,55338.96,55340,2023-07-12T18:28:31Z,55355.6,Respekt,heshima,s,changamnao,upinzani,ufanisi,NA,NA,0,NULL,NA,NA,NA,NA,NA,NA,NA,NA,NA,NA,NA,NA,NA,NA,NA,NA,NA,NA,NA
8b870,deep,flow.Sequence,1_3_0,NA,NA,completion,4765.68,50560,50556.66,50573.28,55338.96,55342,2023-07-12T18:28:31Z,55355.6,Respekt,heshima,s,changamnao,upinzani,ufanisi,NA,NA,NA,NULL,NA,NA,NA,NA,NA,NA,NA,NA,NA,NA,NA,NA,NA,NA,NA,NA,NA,NA,NA
8b870,task,flow.Sequence,1_3,NA,NA,completion,4765.68,50560,50556.66,50573.28,55338.96,55343,2023-07-12T18:28:31Z,55355.6,Respekt,heshima,s,changamnao,upinzani,ufanisi,NA,NA,NA,NULL,NA,NA,NA,NA,NA,NA,NA,NA,NA,NA,NA,NA,NA,NA,NA,NA,NA,NA,NA
8b870,Deep Question,html.Page,1_4_0_0,NA,NA,form submission,5861.4,55344,55338.96,55355.6,61217,61217,2023-07-12T18:28:37Z,61221,Entwicklung,maendeleo,d,uangavu,mshindwa,badiliko,kj,NA,NA,NULL,NA,NA,NA,NA,NA,NA,NA,NA,NA,NA,NA,NA,NA,NA,NA,NA,NA,NA,NA
8b870,Save data screen,canvas.Screen,1_4_0_1,NA,NA,timeout,499.92,61220,61214.48,61221,61704.24,61706,2023-07-12T18:28:38Z,61720.92,Entwicklung,maendeleo,d,uangavu,mshindwa,badiliko,NA,NA,0,NULL,NA,NA,NA,NA,NA,NA,NA,NA,NA,NA,NA,NA,NA,NA,NA,NA,NA,NA,NA
8b870,deep,flow.Sequence,1_4_0,NA,NA,completion,6348.64,55344,55338.96,55355.6,61704.24,61707,2023-07-12T18:28:38Z,61720.92,Entwicklung,maendeleo,d,uangavu,mshindwa,badiliko,NA,NA,NA,NULL,NA,NA,NA,NA,NA,NA,NA,NA,NA,NA,NA,NA,NA,NA,NA,NA,NA,NA,NA
8b870,task,flow.Sequence,1_4,NA,NA,completion,6348.64,55344,55338.96,55355.6,61704.24,61708,2023-07-12T18:28:38Z,61720.92,Entwicklung,maendeleo,d,uangavu,mshindwa,badiliko,NA,NA,NA,NULL,NA,NA,NA,NA,NA,NA,NA,NA,NA,NA,NA,NA,NA,NA,NA,NA,NA,NA,NA
8b870,Deep Question,html.Page,1_5_0_0,NA,NA,form submission,5901.08,61708,61704.24,61720.92,67622,67622,2023-07-12T18:28:44Z,67619.7,Stimmung,kinyongo,d,kilekile,kisambo,madhehebu,kj,NA,NA,NULL,NA,NA,NA,NA,NA,NA,NA,NA,NA,NA,NA,NA,NA,NA,NA,NA,NA,NA,NA
8b870,Save data screen,canvas.Screen,1_5_0_1,NA,NA,timeout,500,67624,67619.26,67619.7,68103.02,68117,2023-07-12T18:28:44Z,68119.7,Stimmung,kinyongo,d,kilekile,kisambo,madhehebu,NA,NA,0,NULL,NA,NA,NA,NA,NA,NA,NA,NA,NA,NA,NA,NA,NA,NA,NA,NA,NA,NA,NA
8b870,deep,flow.Sequence,1_5_0,NA,NA,completion,6382.1,61708,61704.24,61720.92,68103.02,68121,2023-07-12T18:28:44Z,68119.7,Stimmung,kinyongo,d,kilekile,kisambo,madhehebu,NA,NA,NA,NULL,NA,NA,NA,NA,NA,NA,NA,NA,NA,NA,NA,NA,NA,NA,NA,NA,NA,NA,NA
8b870,task,flow.Sequence,1_5,NA,NA,completion,6382.1,61708,61704.24,61720.92,68103.02,68122,2023-07-12T18:28:44Z,68119.7,Stimmung,kinyongo,d,kilekile,kisambo,madhehebu,NA,NA,NA,NULL,NA,NA,NA,NA,NA,NA,NA,NA,NA,NA,NA,NA,NA,NA,NA,NA,NA,NA,NA
8b870,Deep Question,html.Page,1_6_0_0,NA,NA,form submission,7843.3,68122,68103.02,68119.7,75963,75970,2023-07-12T18:28:52Z,75967.96,Integrität,uadilifu,s,muungano,mtiririko,upunguaji,nihiti,NA,NA,NULL,NA,NA,NA,NA,NA,NA,NA,NA,NA,NA,NA,NA,NA,NA,NA,NA,NA,NA,NA
8b870,Save data screen,canvas.Screen,1_6_0_1,NA,NA,timeout,499.86,75980,75955.76,75967.96,76451.3,76453,2023-07-12T18:28:52Z,76467.82,Integrität,uadilifu,s,muungano,mtiririko,upunguaji,NA,NA,0,NULL,NA,NA,NA,NA,NA,NA,NA,NA,NA,NA,NA,NA,NA,NA,NA,NA,NA,NA,NA
8b870,deep,flow.Sequence,1_6_0,NA,NA,completion,8331.6,68122,68103.02,68119.7,76451.3,76455,2023-07-12T18:28:52Z,76467.82,Integrität,uadilifu,s,muungano,mtiririko,upunguaji,NA,NA,NA,NULL,NA,NA,NA,NA,NA,NA,NA,NA,NA,NA,NA,NA,NA,NA,NA,NA,NA,NA,NA
8b870,task,flow.Sequence,1_6,NA,NA,completion,8331.6,68122,68103.02,68119.7,76451.3,76456,2023-07-12T18:28:52Z,76467.82,Integrität,uadilifu,s,muungano,mtiririko,upunguaji,NA,NA,NA,NULL,NA,NA,NA,NA,NA,NA,NA,NA,NA,NA,NA,NA,NA,NA,NA,NA,NA,NA,NA
8b870,Deep Question,html.Page,1_7_0_0,NA,NA,form submission,4256.18,76457,76451.3,76467.82,80724,80724,2023-07-12T18:28:57Z,80733.64,Wechsel,ugeuzaji,s,utambulisho,kujenga,wasiwasi,kj,NA,NA,NULL,NA,NA,NA,NA,NA,NA,NA,NA,NA,NA,NA,NA,NA,NA,NA,NA,NA,NA,NA
8b870,Save data screen,canvas.Screen,1_7_0_1,NA,NA,timeout,499.89999999999,80725,80721.66,80733.64,81216.92,81219,2023-07-12T18:28:57Z,81233.54,Wechsel,ugeuzaji,s,utambulisho,kujenga,wasiwasi,NA,NA,0,NULL,NA,NA,NA,NA,NA,NA,NA,NA,NA,NA,NA,NA,NA,NA,NA,NA,NA,NA,NA
8b870,deep,flow.Sequence,1_7_0,NA,NA,completion,4749.1,76457,76451.3,76467.82,81216.92,81221,2023-07-12T18:28:57Z,81233.54,Wechsel,ugeuzaji,s,utambulisho,kujenga,wasiwasi,NA,NA,NA,NULL,NA,NA,NA,NA,NA,NA,NA,NA,NA,NA,NA,NA,NA,NA,NA,NA,NA,NA,NA
8b870,task,flow.Sequence,1_7,NA,NA,completion,4749.1,76456,76451.3,76467.82,81216.92,81223,2023-07-12T18:28:57Z,81233.54,Wechsel,ugeuzaji,s,utambulisho,kujenga,wasiwasi,NA,NA,NA,NULL,NA,NA,NA,NA,NA,NA,NA,NA,NA,NA,NA,NA,NA,NA,NA,NA,NA,NA,NA
8b870,Deep Question,html.Page,1_8_0_0,NA,NA,form submission,11002.46,81224,81216.92,81233.54,92236,92236,2023-07-12T18:29:08Z,92247.9,Genehmigung,idhini,d,mwanamke,itikadi,fedheha,tahini,NA,NA,NULL,NA,NA,NA,NA,NA,NA,NA,NA,NA,NA,NA,NA,NA,NA,NA,NA,NA,NA,NA
8b870,Save data screen,canvas.Screen,1_8_0_1,NA,NA,timeout,499.90000000001,92239,92233.9,92247.9,92731.24,92735,2023-07-12T18:29:09Z,92747.8,Genehmigung,idhini,d,mwanamke,itikadi,fedheha,NA,NA,0,NULL,NA,NA,NA,NA,NA,NA,NA,NA,NA,NA,NA,NA,NA,NA,NA,NA,NA,NA,NA
8b870,deep,flow.Sequence,1_8_0,NA,NA,completion,11497.7,81224,81216.92,81233.54,92731.24,92737,2023-07-12T18:29:09Z,92747.8,Genehmigung,idhini,d,mwanamke,itikadi,fedheha,NA,NA,NA,NULL,NA,NA,NA,NA,NA,NA,NA,NA,NA,NA,NA,NA,NA,NA,NA,NA,NA,NA,NA
8b870,task,flow.Sequence,1_8,NA,NA,completion,11497.7,81224,81216.92,81233.54,92731.24,92738,2023-07-12T18:29:09Z,92747.8,Genehmigung,idhini,d,mwanamke,itikadi,fedheha,NA,NA,NA,NULL,NA,NA,NA,NA,NA,NA,NA,NA,NA,NA,NA,NA,NA,NA,NA,NA,NA,NA,NA
8b870,Deep Question,html.Page,1_9_0_0,NA,NA,form submission,3089.2,92739,92731.24,92747.8,95837,95838,2023-07-12T18:29:12Z,95847.26,Vorwurf,mashtaka,d,msukumo,mtangulizi,uenyekiti,kj,NA,NA,NULL,NA,NA,NA,NA,NA,NA,NA,NA,NA,NA,NA,NA,NA,NA,NA,NA,NA,NA,NA
8b870,Save data screen,canvas.Screen,1_9_0_1,NA,NA,timeout,499.86,95839,95835.4,95847.26,96330.48,96332,2023-07-12T18:29:12Z,96347.12,Vorwurf,mashtaka,d,msukumo,mtangulizi,uenyekiti,NA,NA,0,NULL,NA,NA,NA,NA,NA,NA,NA,NA,NA,NA,NA,NA,NA,NA,NA,NA,NA,NA,NA
8b870,deep,flow.Sequence,1_9_0,NA,NA,completion,3582.68,92739,92731.24,92747.8,96330.48,96332,2023-07-12T18:29:12Z,96347.12,Vorwurf,mashtaka,d,msukumo,mtangulizi,uenyekiti,NA,NA,NA,NULL,NA,NA,NA,NA,NA,NA,NA,NA,NA,NA,NA,NA,NA,NA,NA,NA,NA,NA,NA
8b870,task,flow.Sequence,1_9,NA,NA,completion,3582.68,92738,92731.24,92747.8,96330.48,96333,2023-07-12T18:29:12Z,96347.12,Vorwurf,mashtaka,d,msukumo,mtangulizi,uenyekiti,NA,NA,NA,NULL,NA,NA,NA,NA,NA,NA,NA,NA,NA,NA,NA,NA,NA,NA,NA,NA,NA,NA,NA
8b870,Deep Question,html.Page,1_10_0_0,NA,NA,form submission,19753.88,96333,96330.48,96347.12,116101,116101,2023-07-12T18:29:32Z,116109.48,Atmosphäre,angahewa,d,kuteseka,usahihi,kutoamini,nehewa,NA,NA,NULL,NA,NA,NA,NA,NA,NA,NA,NA,NA,NA,NA,NA,NA,NA,NA,NA,NA,NA,NA
8b870,Save data screen,canvas.Screen,1_10_0_1,NA,NA,timeout,500,116104,116097.82,116109.48,116592.88,116594,2023-07-12T18:29:33Z,116609.48,Atmosphäre,angahewa,d,kuteseka,usahihi,kutoamini,NA,NA,0,NULL,NA,NA,NA,NA,NA,NA,NA,NA,NA,NA,NA,NA,NA,NA,NA,NA,NA,NA,NA
8b870,deep,flow.Sequence,1_10_0,NA,NA,completion,20245.76,96333,96330.48,96347.12,116592.88,116595,2023-07-12T18:29:33Z,116609.48,Atmosphäre,angahewa,d,kuteseka,usahihi,kutoamini,NA,NA,NA,NULL,NA,NA,NA,NA,NA,NA,NA,NA,NA,NA,NA,NA,NA,NA,NA,NA,NA,NA,NA
8b870,task,flow.Sequence,1_10,NA,NA,completion,20245.76,96333,96330.48,96347.12,116592.88,116595,2023-07-12T18:29:33Z,116609.48,Atmosphäre,angahewa,d,kuteseka,usahihi,kutoamini,NA,NA,NA,NULL,NA,NA,NA,NA,NA,NA,NA,NA,NA,NA,NA,NA,NA,NA,NA,NA,NA,NA,NA
8b870,Deep Question,html.Page,1_11_0_0,NA,NA,form submission,16459.52,116596,116592.88,116609.48,133069,133069,2023-07-12T18:29:49Z,133072.78,Fleisch,mshakiki,s,kizunguzungu,mshikamano,angusho,mashtiki,NA,NA,NULL,NA,NA,NA,NA,NA,NA,NA,NA,NA,NA,NA,NA,NA,NA,NA,NA,NA,NA,NA
8b870,Save data screen,canvas.Screen,1_11_0_1,NA,NA,timeout,499.92000000001,133072,133066.34,133072.78,133556.04,133558,2023-07-12T18:29:50Z,133572.7,Fleisch,mshakiki,s,kizunguzungu,mshikamano,angusho,NA,NA,0,NULL,NA,NA,NA,NA,NA,NA,NA,NA,NA,NA,NA,NA,NA,NA,NA,NA,NA,NA,NA
8b870,deep,flow.Sequence,1_11_0,NA,NA,completion,16946.56,116596,116592.88,116609.48,133556.04,133560,2023-07-12T18:29:50Z,133572.7,Fleisch,mshakiki,s,kizunguzungu,mshikamano,angusho,NA,NA,NA,NULL,NA,NA,NA,NA,NA,NA,NA,NA,NA,NA,NA,NA,NA,NA,NA,NA,NA,NA,NA
8b870,task,flow.Sequence,1_11,NA,NA,completion,16946.56,116596,116592.88,116609.48,133556.04,133561,2023-07-12T18:29:50Z,133572.7,Fleisch,mshakiki,s,kizunguzungu,mshikamano,angusho,NA,NA,NA,NULL,NA,NA,NA,NA,NA,NA,NA,NA,NA,NA,NA,NA,NA,NA,NA,NA,NA,NA,NA
8b870,Deep Question,html.Page,1_12_0_0,NA,NA,form submission,4236.3,133562,133556.04,133572.7,137809,137809,2023-07-12T18:29:54Z,137821.76,Niveau,kiwango,s,usimamizi,mwamali,mshairi,kj,NA,NA,NULL,NA,NA,NA,NA,NA,NA,NA,NA,NA,NA,NA,NA,NA,NA,NA,NA,NA,NA,NA
8b870,Save data screen,canvas.Screen,1_12_0_1,NA,NA,timeout,499.88,137811,137807.8,137821.76,138304.98,138309,2023-07-12T18:29:54Z,138321.64,Niveau,kiwango,s,usimamizi,mwamali,mshairi,NA,NA,0,NULL,NA,NA,NA,NA,NA,NA,NA,NA,NA,NA,NA,NA,NA,NA,NA,NA,NA,NA,NA
8b870,deep,flow.Sequence,1_12_0,NA,NA,completion,4732.28,133562,133556.04,133572.7,138304.98,138311,2023-07-12T18:29:54Z,138321.64,Niveau,kiwango,s,usimamizi,mwamali,mshairi,NA,NA,NA,NULL,NA,NA,NA,NA,NA,NA,NA,NA,NA,NA,NA,NA,NA,NA,NA,NA,NA,NA,NA
8b870,task,flow.Sequence,1_12,NA,NA,completion,4732.28,133562,133556.04,133572.7,138304.98,138311,2023-07-12T18:29:54Z,138321.64,Niveau,kiwango,s,usimamizi,mwamali,mshairi,NA,NA,NA,NULL,NA,NA,NA,NA,NA,NA,NA,NA,NA,NA,NA,NA,NA,NA,NA,NA,NA,NA,NA
8b870,Deep Question,html.Page,1_13_0_0,NA,NA,form submission,3475.36,138312,138304.98,138321.64,141797,141798,2023-07-12T18:29:58Z,141804.24,Erneuerung,ukarabati,s,ushawishi,ukalifu,unyonyaji,kj,NA,NA,NULL,NA,NA,NA,NA,NA,NA,NA,NA,NA,NA,NA,NA,NA,NA,NA,NA,NA,NA,NA
8b870,Save data screen,canvas.Screen,1_13_0_1,NA,NA,timeout,500.02000000002,141806,141791.46,141804.24,142287.64,142290,2023-07-12T18:29:58Z,142304.26,Erneuerung,ukarabati,s,ushawishi,ukalifu,unyonyaji,NA,NA,0,NULL,NA,NA,NA,NA,NA,NA,NA,NA,NA,NA,NA,NA,NA,NA,NA,NA,NA,NA,NA
8b870,deep,flow.Sequence,1_13_0,NA,NA,completion,3966,138312,138304.98,138321.64,142287.64,142292,2023-07-12T18:29:58Z,142304.26,Erneuerung,ukarabati,s,ushawishi,ukalifu,unyonyaji,NA,NA,NA,NULL,NA,NA,NA,NA,NA,NA,NA,NA,NA,NA,NA,NA,NA,NA,NA,NA,NA,NA,NA
8b870,task,flow.Sequence,1_13,NA,NA,completion,3966,138312,138304.98,138321.64,142287.64,142293,2023-07-12T18:29:58Z,142304.26,Erneuerung,ukarabati,s,ushawishi,ukalifu,unyonyaji,NA,NA,NA,NULL,NA,NA,NA,NA,NA,NA,NA,NA,NA,NA,NA,NA,NA,NA,NA,NA,NA,NA,NA
8b870,Deep Question,html.Page,1_14_0_0,NA,NA,form submission,3405.74,142294,142287.64,142304.26,145710,145710,2023-07-12T18:30:02Z,145720.1,Betrüger,mdanganyifu,d,mwanamuziki,wastani,mahakama,kj,NA,NA,NULL,NA,NA,NA,NA,NA,NA,NA,NA,NA,NA,NA,NA,NA,NA,NA,NA,NA,NA,NA
8b870,Save data screen,canvas.Screen,1_14_0_1,NA,NA,timeout,499.95999999999,145713,145706.66,145720.1,146203.4,146205,2023-07-12T18:30:02Z,146220.06,Betrüger,mdanganyifu,d,mwanamuziki,wastani,mahakama,NA,NA,0,NULL,NA,NA,NA,NA,NA,NA,NA,NA,NA,NA,NA,NA,NA,NA,NA,NA,NA,NA,NA
8b870,deep,flow.Sequence,1_14_0,NA,NA,completion,3899.14,142294,142287.64,142304.26,146203.4,146207,2023-07-12T18:30:02Z,146220.06,Betrüger,mdanganyifu,d,mwanamuziki,wastani,mahakama,NA,NA,NA,NULL,NA,NA,NA,NA,NA,NA,NA,NA,NA,NA,NA,NA,NA,NA,NA,NA,NA,NA,NA
8b870,task,flow.Sequence,1_14,NA,NA,completion,3899.14,142294,142287.64,142304.26,146203.4,146209,2023-07-12T18:30:02Z,146220.06,Betrüger,mdanganyifu,d,mwanamuziki,wastani,mahakama,NA,NA,NA,NULL,NA,NA,NA,NA,NA,NA,NA,NA,NA,NA,NA,NA,NA,NA,NA,NA,NA,NA,NA
8b870,Deep Question,html.Page,1_15_0_0,NA,NA,form submission,3629.94,146210,146203.4,146220.06,149850,149850,2023-07-12T18:30:06Z,149852.6,Begegnung,kukutana,d,mmasihiya,mpiganaji,husiano,kj,NA,NA,NULL,NA,NA,NA,NA,NA,NA,NA,NA,NA,NA,NA,NA,NA,NA,NA,NA,NA,NA,NA
8b870,Save data screen,canvas.Screen,1_15_0_1,NA,NA,timeout,499.97999999998,149855,149847.56,149852.6,150335.92,150338,2023-07-12T18:30:06Z,150352.58,Begegnung,kukutana,d,mmasihiya,mpiganaji,husiano,NA,NA,0,NULL,NA,NA,NA,NA,NA,NA,NA,NA,NA,NA,NA,NA,NA,NA,NA,NA,NA,NA,NA
8b870,deep,flow.Sequence,1_15_0,NA,NA,completion,4115.86,146210,146203.4,146220.06,150335.92,150339,2023-07-12T18:30:06Z,150352.58,Begegnung,kukutana,d,mmasihiya,mpiganaji,husiano,NA,NA,NA,NULL,NA,NA,NA,NA,NA,NA,NA,NA,NA,NA,NA,NA,NA,NA,NA,NA,NA,NA,NA
8b870,task,flow.Sequence,1_15,NA,NA,completion,4115.86,146209,146203.4,146220.06,150335.92,150341,2023-07-12T18:30:06Z,150352.58,Begegnung,kukutana,d,mmasihiya,mpiganaji,husiano,NA,NA,NA,NULL,NA,NA,NA,NA,NA,NA,NA,NA,NA,NA,NA,NA,NA,NA,NA,NA,NA,NA,NA
8b870,retrieval block 1 (cued recall),flow.Loop,1,NA,NA,completion,129706.42,20623,20623.98,20629.5,150335.92,150342,2023-07-12T18:30:06Z,150352.58,NA,NA,NA,NA,NA,NA,NA,NA,NA,NULL,NA,NA,NA,NA,NA,NA,NA,NA,NA,NA,NA,NA,NA,NA,NA,NA,NA,NA,NA
8b870,Shallow Question,html.Page,2_0_0_0,NA,NA,form submission,5504.42,150343,150335.92,150352.58,155857,155857,2023-07-12T18:30:12Z,155868.06,Fleisch,mshakiki,s,kizunguzungu,mshikamano,angusho,mshakiki,NA,NA,"c(""distractor1"", ""distractor2"", ""distractor3"")",NA,NA,NA,NA,NA,NA,NA,NA,NA,NA,NA,NA,NA,NA,NA,NA,NA,NA,NA
8b870,Save data screen,canvas.Screen,2_0_0_1,NA,NA,timeout,499.89999999999,155860,155854.48,155868.06,156351.38,156353,2023-07-12T18:30:12Z,156367.96,Fleisch,mshakiki,s,kizunguzungu,mshikamano,angusho,NA,NA,1,"c(""distractor1"", ""distractor2"", ""distractor3"")",NA,NA,NA,NA,NA,NA,NA,NA,NA,NA,NA,NA,NA,NA,NA,NA,NA,NA,NA
8b870,shallow,flow.Sequence,2_0_0,NA,NA,completion,5998.8,150342,150335.92,150352.58,156351.38,156355,2023-07-12T18:30:12Z,156367.96,Fleisch,mshakiki,s,kizunguzungu,mshikamano,angusho,NA,NA,NA,"c(""distractor1"", ""distractor2"", ""distractor3"")",NA,NA,NA,NA,NA,NA,NA,NA,NA,NA,NA,NA,NA,NA,NA,NA,NA,NA,NA
8b870,task,flow.Sequence,2_0,NA,NA,completion,5998.8,150342,150335.92,150352.58,156351.38,156356,2023-07-12T18:30:12Z,156367.96,Fleisch,mshakiki,s,kizunguzungu,mshikamano,angusho,NA,NA,NA,"c(""distractor1"", ""distractor2"", ""distractor3"")",NA,NA,NA,NA,NA,NA,NA,NA,NA,NA,NA,NA,NA,NA,NA,NA,NA,NA,NA
8b870,Shallow Question,html.Page,2_1_0_0,NA,NA,form submission,7333.04,156357,156351.38,156367.96,163701,163701,2023-07-12T18:30:20Z,163699.68,Respekt,heshima,s,changamnao,upinzani,ufanisi,heshima,NA,NA,"c(""distractor1"", ""distractor2"", ""distractor3"")",NA,NA,NA,NA,NA,NA,NA,NA,NA,NA,NA,NA,NA,NA,NA,NA,NA,NA,NA
8b870,Save data screen,canvas.Screen,2_1_0_1,NA,NA,timeout,499.92000000001,163703,163697.92,163699.68,164182.94,164185,2023-07-12T18:30:20Z,164199.6,Respekt,heshima,s,changamnao,upinzani,ufanisi,NA,NA,1,"c(""distractor1"", ""distractor2"", ""distractor3"")",NA,NA,NA,NA,NA,NA,NA,NA,NA,NA,NA,NA,NA,NA,NA,NA,NA,NA,NA
8b870,shallow,flow.Sequence,2_1_0,NA,NA,completion,7814.98,156356,156351.38,156367.96,164182.94,164187,2023-07-12T18:30:20Z,164199.6,Respekt,heshima,s,changamnao,upinzani,ufanisi,NA,NA,NA,"c(""distractor1"", ""distractor2"", ""distractor3"")",NA,NA,NA,NA,NA,NA,NA,NA,NA,NA,NA,NA,NA,NA,NA,NA,NA,NA,NA
8b870,task,flow.Sequence,2_1,NA,NA,completion,7814.98,156356,156351.38,156367.96,164182.94,164188,2023-07-12T18:30:20Z,164199.6,Respekt,heshima,s,changamnao,upinzani,ufanisi,NA,NA,NA,"c(""distractor1"", ""distractor2"", ""distractor3"")",NA,NA,NA,NA,NA,NA,NA,NA,NA,NA,NA,NA,NA,NA,NA,NA,NA,NA,NA
8b870,Shallow Question,html.Page,2_2_0_0,NA,NA,form submission,8629.4,164188,164182.94,164199.6,172829,172829,2023-07-12T18:30:29Z,172831.12,Wechsel,ugeuzaji,s,utambulisho,kujenga,wasiwasi,utambulisho,NA,NA,"c(""distractor1"", ""distractor2"", ""distractor3"")",NA,NA,NA,NA,NA,NA,NA,NA,NA,NA,NA,NA,NA,NA,NA,NA,NA,NA,NA
8b870,Save data screen,canvas.Screen,2_2_0_1,NA,NA,timeout,500.02000000002,172831,172824.6,172831.12,173314.58,173317,2023-07-12T18:30:29Z,173331.14,Wechsel,ugeuzaji,s,utambulisho,kujenga,wasiwasi,NA,NA,0,"c(""distractor1"", ""distractor2"", ""distractor3"")",NA,NA,NA,NA,NA,NA,NA,NA,NA,NA,NA,NA,NA,NA,NA,NA,NA,NA,NA
8b870,shallow,flow.Sequence,2_2_0,NA,NA,completion,9114.98,164188,164182.94,164199.6,173314.58,173318,2023-07-12T18:30:29Z,173331.14,Wechsel,ugeuzaji,s,utambulisho,kujenga,wasiwasi,NA,NA,NA,"c(""distractor1"", ""distractor2"", ""distractor3"")",NA,NA,NA,NA,NA,NA,NA,NA,NA,NA,NA,NA,NA,NA,NA,NA,NA,NA,NA
8b870,task,flow.Sequence,2_2,NA,NA,completion,9114.98,164188,164182.94,164199.6,173314.58,173318,2023-07-12T18:30:29Z,173331.14,Wechsel,ugeuzaji,s,utambulisho,kujenga,wasiwasi,NA,NA,NA,"c(""distractor1"", ""distractor2"", ""distractor3"")",NA,NA,NA,NA,NA,NA,NA,NA,NA,NA,NA,NA,NA,NA,NA,NA,NA,NA,NA
8b870,Shallow Question,html.Page,2_3_0_0,NA,NA,form submission,7549.86,173319,173314.58,173331.14,180881,180881,2023-07-12T18:30:37Z,180879.48,Begegnung,kukutana,d,mmasihiya,mpiganaji,husiano,kukutana,NA,NA,"c(""distractor1"", ""distractor2"", ""distractor3"")",NA,NA,NA,NA,NA,NA,NA,NA,NA,NA,NA,NA,NA,NA,NA,NA,NA,NA,NA
8b870,Save data screen,canvas.Screen,2_3_0_1,NA,NA,timeout,499.87999999998,180883,180878.06,180879.48,181362.7,181364,2023-07-12T18:30:37Z,181379.36,Begegnung,kukutana,d,mmasihiya,mpiganaji,husiano,NA,NA,1,"c(""distractor1"", ""distractor2"", ""distractor3"")",NA,NA,NA,NA,NA,NA,NA,NA,NA,NA,NA,NA,NA,NA,NA,NA,NA,NA,NA
8b870,shallow,flow.Sequence,2_3_0,NA,NA,completion,8031.56,173319,173314.58,173331.14,181362.7,181365,2023-07-12T18:30:37Z,181379.36,Begegnung,kukutana,d,mmasihiya,mpiganaji,husiano,NA,NA,NA,"c(""distractor1"", ""distractor2"", ""distractor3"")",NA,NA,NA,NA,NA,NA,NA,NA,NA,NA,NA,NA,NA,NA,NA,NA,NA,NA,NA
8b870,task,flow.Sequence,2_3,NA,NA,completion,8031.56,173319,173314.58,173331.14,181362.7,181366,2023-07-12T18:30:37Z,181379.36,Begegnung,kukutana,d,mmasihiya,mpiganaji,husiano,NA,NA,NA,"c(""distractor1"", ""distractor2"", ""distractor3"")",NA,NA,NA,NA,NA,NA,NA,NA,NA,NA,NA,NA,NA,NA,NA,NA,NA,NA,NA
8b870,Shallow Question,html.Page,2_4_0_0,NA,NA,form submission,6336.64,181366,181362.7,181379.36,187716,187717,2023-07-12T18:30:44Z,187728.06,Papier,karatasi,s,uchambuzi,usalama,kukataliwa,karatasi,NA,NA,"c(""distractor1"", ""distractor2"", ""distractor3"")",NA,NA,NA,NA,NA,NA,NA,NA,NA,NA,NA,NA,NA,NA,NA,NA,NA,NA,NA
8b870,Save data screen,canvas.Screen,2_4_0_1,NA,NA,timeout,499.88,187718,187714.04,187728.06,188211.3,188213,2023-07-12T18:30:44Z,188227.94,Papier,karatasi,s,uchambuzi,usalama,kukataliwa,NA,NA,1,"c(""distractor1"", ""distractor2"", ""distractor3"")",NA,NA,NA,NA,NA,NA,NA,NA,NA,NA,NA,NA,NA,NA,NA,NA,NA,NA,NA
8b870,shallow,flow.Sequence,2_4_0,NA,NA,completion,6831.94,181366,181362.7,181379.36,188211.3,188213,2023-07-12T18:30:44Z,188227.94,Papier,karatasi,s,uchambuzi,usalama,kukataliwa,NA,NA,NA,"c(""distractor1"", ""distractor2"", ""distractor3"")",NA,NA,NA,NA,NA,NA,NA,NA,NA,NA,NA,NA,NA,NA,NA,NA,NA,NA,NA
8b870,task,flow.Sequence,2_4,NA,NA,completion,6831.94,181366,181362.7,181379.36,188211.3,188214,2023-07-12T18:30:44Z,188227.94,Papier,karatasi,s,uchambuzi,usalama,kukataliwa,NA,NA,NA,"c(""distractor1"", ""distractor2"", ""distractor3"")",NA,NA,NA,NA,NA,NA,NA,NA,NA,NA,NA,NA,NA,NA,NA,NA,NA,NA,NA
8b870,Shallow Question,html.Page,2_5_0_0,NA,NA,form submission,6357.06,188214,188211.3,188227.94,194585,194585,2023-07-12T18:30:51Z,194593.3,Integrität,uadilifu,s,muungano,mtiririko,upunguaji,uadilifu,NA,NA,"c(""distractor1"", ""distractor2"", ""distractor3"")",NA,NA,NA,NA,NA,NA,NA,NA,NA,NA,NA,NA,NA,NA,NA,NA,NA,NA,NA
8b870,Save data screen,canvas.Screen,2_5_0_1,NA,NA,timeout,499.92000000001,194588,194582.92,194593.3,195076.56,195078,2023-07-12T18:30:51Z,195093.22,Integrität,uadilifu,s,muungano,mtiririko,upunguaji,NA,NA,1,"c(""distractor1"", ""distractor2"", ""distractor3"")",NA,NA,NA,NA,NA,NA,NA,NA,NA,NA,NA,NA,NA,NA,NA,NA,NA,NA,NA
8b870,shallow,flow.Sequence,2_5_0,NA,NA,completion,6848.62,188214,188211.3,188227.94,195076.56,195080,2023-07-12T18:30:51Z,195093.22,Integrität,uadilifu,s,muungano,mtiririko,upunguaji,NA,NA,NA,"c(""distractor1"", ""distractor2"", ""distractor3"")",NA,NA,NA,NA,NA,NA,NA,NA,NA,NA,NA,NA,NA,NA,NA,NA,NA,NA,NA
8b870,task,flow.Sequence,2_5,NA,NA,completion,6848.62,188214,188211.3,188227.94,195076.56,195081,2023-07-12T18:30:51Z,195093.22,Integrität,uadilifu,s,muungano,mtiririko,upunguaji,NA,NA,NA,"c(""distractor1"", ""distractor2"", ""distractor3"")",NA,NA,NA,NA,NA,NA,NA,NA,NA,NA,NA,NA,NA,NA,NA,NA,NA,NA,NA
8b870,Shallow Question,html.Page,2_6_0_0,NA,NA,form submission,8856.78,195081,195076.56,195093.22,203950,203956,2023-07-12T18:31:00Z,203957.98,Vorwurf,mashtaka,d,msukumo,mtangulizi,uenyekiti,mashtaka,NA,NA,"c(""distractor1"", ""distractor2"", ""distractor3"")",NA,NA,NA,NA,NA,NA,NA,NA,NA,NA,NA,NA,NA,NA,NA,NA,NA,NA,NA
8b870,Save data screen,canvas.Screen,2_6_0_1,NA,NA,timeout,499.94,203966,203940.1,203957.98,204441.26,204443,2023-07-12T18:31:00Z,204457.92,Vorwurf,mashtaka,d,msukumo,mtangulizi,uenyekiti,NA,NA,1,"c(""distractor1"", ""distractor2"", ""distractor3"")",NA,NA,NA,NA,NA,NA,NA,NA,NA,NA,NA,NA,NA,NA,NA,NA,NA,NA,NA
8b870,shallow,flow.Sequence,2_6_0,NA,NA,completion,9348.04,195081,195076.56,195093.22,204441.26,204445,2023-07-12T18:31:00Z,204457.92,Vorwurf,mashtaka,d,msukumo,mtangulizi,uenyekiti,NA,NA,NA,"c(""distractor1"", ""distractor2"", ""distractor3"")",NA,NA,NA,NA,NA,NA,NA,NA,NA,NA,NA,NA,NA,NA,NA,NA,NA,NA,NA
8b870,task,flow.Sequence,2_6,NA,NA,completion,9348.04,195081,195076.56,195093.22,204441.26,204446,2023-07-12T18:31:00Z,204457.92,Vorwurf,mashtaka,d,msukumo,mtangulizi,uenyekiti,NA,NA,NA,"c(""distractor1"", ""distractor2"", ""distractor3"")",NA,NA,NA,NA,NA,NA,NA,NA,NA,NA,NA,NA,NA,NA,NA,NA,NA,NA,NA
8b870,Shallow Question,html.Page,2_7_0_0,NA,NA,form submission,6885.08,204448,204441.26,204457.92,211343,211343,2023-07-12T18:31:07Z,211356.44,Niveau,kiwango,s,usimamizi,mwamali,mshairi,kiwango,NA,NA,"c(""distractor1"", ""distractor2"", ""distractor3"")",NA,NA,NA,NA,NA,NA,NA,NA,NA,NA,NA,NA,NA,NA,NA,NA,NA,NA,NA
8b870,Save data screen,canvas.Screen,2_7_0_1,NA,NA,timeout,500,211346,211340.46,211356.44,211839.76,211842,2023-07-12T18:31:08Z,211856.44,Niveau,kiwango,s,usimamizi,mwamali,mshairi,NA,NA,1,"c(""distractor1"", ""distractor2"", ""distractor3"")",NA,NA,NA,NA,NA,NA,NA,NA,NA,NA,NA,NA,NA,NA,NA,NA,NA,NA,NA
8b870,shallow,flow.Sequence,2_7_0,NA,NA,completion,7381.84,204447,204441.26,204457.92,211839.76,211844,2023-07-12T18:31:08Z,211856.44,Niveau,kiwango,s,usimamizi,mwamali,mshairi,NA,NA,NA,"c(""distractor1"", ""distractor2"", ""distractor3"")",NA,NA,NA,NA,NA,NA,NA,NA,NA,NA,NA,NA,NA,NA,NA,NA,NA,NA,NA
8b870,task,flow.Sequence,2_7,NA,NA,completion,7381.84,204447,204441.26,204457.92,211839.76,211845,2023-07-12T18:31:08Z,211856.44,Niveau,kiwango,s,usimamizi,mwamali,mshairi,NA,NA,NA,"c(""distractor1"", ""distractor2"", ""distractor3"")",NA,NA,NA,NA,NA,NA,NA,NA,NA,NA,NA,NA,NA,NA,NA,NA,NA,NA,NA
8b870,Shallow Question,html.Page,2_8_0_0,NA,NA,form submission,5074.56,211847,211839.76,211856.44,216931,216931,2023-07-12T18:31:13Z,216939.04,Genehmigung,idhini,d,mwanamke,itikadi,fedheha,idhini,NA,NA,"c(""distractor1"", ""distractor2"", ""distractor3"")",NA,NA,NA,NA,NA,NA,NA,NA,NA,NA,NA,NA,NA,NA,NA,NA,NA,NA,NA
8b870,Save data screen,canvas.Screen,2_8_0_1,NA,NA,timeout,499.51999999999,216934,216925.98,216939.04,217421.9,217423,2023-07-12T18:31:13Z,217438.56,Genehmigung,idhini,d,mwanamke,itikadi,fedheha,NA,NA,1,"c(""distractor1"", ""distractor2"", ""distractor3"")",NA,NA,NA,NA,NA,NA,NA,NA,NA,NA,NA,NA,NA,NA,NA,NA,NA,NA,NA
8b870,shallow,flow.Sequence,2_8_0,NA,NA,completion,5565.46,211846,211839.76,211856.44,217421.9,217424,2023-07-12T18:31:13Z,217438.56,Genehmigung,idhini,d,mwanamke,itikadi,fedheha,NA,NA,NA,"c(""distractor1"", ""distractor2"", ""distractor3"")",NA,NA,NA,NA,NA,NA,NA,NA,NA,NA,NA,NA,NA,NA,NA,NA,NA,NA,NA
8b870,task,flow.Sequence,2_8,NA,NA,completion,5565.46,211846,211839.76,211856.44,217421.9,217425,2023-07-12T18:31:13Z,217438.56,Genehmigung,idhini,d,mwanamke,itikadi,fedheha,NA,NA,NA,"c(""distractor1"", ""distractor2"", ""distractor3"")",NA,NA,NA,NA,NA,NA,NA,NA,NA,NA,NA,NA,NA,NA,NA,NA,NA,NA,NA
8b870,Shallow Question,html.Page,2_9_0_0,NA,NA,form submission,4706.44,217425,217421.9,217438.56,222145,222146,2023-07-12T18:31:18Z,222154.18,Entwicklung,maendeleo,d,uangavu,mshindwa,badiliko,maendeleo,NA,NA,"c(""distractor1"", ""distractor2"", ""distractor3"")",NA,NA,NA,NA,NA,NA,NA,NA,NA,NA,NA,NA,NA,NA,NA,NA,NA,NA,NA
8b870,Save data screen,canvas.Screen,2_9_0_1,NA,NA,timeout,499.92000000001,222148,222143.76,222154.18,222637.5,222640,2023-07-12T18:31:19Z,222654.1,Entwicklung,maendeleo,d,uangavu,mshindwa,badiliko,NA,NA,1,"c(""distractor1"", ""distractor2"", ""distractor3"")",NA,NA,NA,NA,NA,NA,NA,NA,NA,NA,NA,NA,NA,NA,NA,NA,NA,NA,NA
8b870,shallow,flow.Sequence,2_9_0,NA,NA,completion,5198.94,217425,217421.9,217438.56,222637.5,222641,2023-07-12T18:31:19Z,222654.1,Entwicklung,maendeleo,d,uangavu,mshindwa,badiliko,NA,NA,NA,"c(""distractor1"", ""distractor2"", ""distractor3"")",NA,NA,NA,NA,NA,NA,NA,NA,NA,NA,NA,NA,NA,NA,NA,NA,NA,NA,NA
8b870,task,flow.Sequence,2_9,NA,NA,completion,5198.94,217425,217421.9,217438.56,222637.5,222642,2023-07-12T18:31:19Z,222654.1,Entwicklung,maendeleo,d,uangavu,mshindwa,badiliko,NA,NA,NA,"c(""distractor1"", ""distractor2"", ""distractor3"")",NA,NA,NA,NA,NA,NA,NA,NA,NA,NA,NA,NA,NA,NA,NA,NA,NA,NA,NA
8b870,Shallow Question,html.Page,2_10_0_0,NA,NA,form submission,10451.9,222642,222637.5,222654.1,233106,233107,2023-07-12T18:31:29Z,233118.58,Stimmung,kinyongo,d,kilekile,kisambo,madhehebu,kisambo,NA,NA,"c(""distractor1"", ""distractor2"", ""distractor3"")",NA,NA,NA,NA,NA,NA,NA,NA,NA,NA,NA,NA,NA,NA,NA,NA,NA,NA,NA
8b870,Save data screen,canvas.Screen,2_10_0_1,NA,NA,timeout,499.94,233109,233104,233118.58,233601.88,233604,2023-07-12T18:31:30Z,233618.52,Stimmung,kinyongo,d,kilekile,kisambo,madhehebu,NA,NA,0,"c(""distractor1"", ""distractor2"", ""distractor3"")",NA,NA,NA,NA,NA,NA,NA,NA,NA,NA,NA,NA,NA,NA,NA,NA,NA,NA,NA
8b870,shallow,flow.Sequence,2_10_0,NA,NA,completion,10947.78,222642,222637.5,222654.1,233601.88,233605,2023-07-12T18:31:30Z,233618.52,Stimmung,kinyongo,d,kilekile,kisambo,madhehebu,NA,NA,NA,"c(""distractor1"", ""distractor2"", ""distractor3"")",NA,NA,NA,NA,NA,NA,NA,NA,NA,NA,NA,NA,NA,NA,NA,NA,NA,NA,NA
8b870,task,flow.Sequence,2_10,NA,NA,completion,10947.78,222642,222637.5,222654.1,233601.88,233606,2023-07-12T18:31:30Z,233618.52,Stimmung,kinyongo,d,kilekile,kisambo,madhehebu,NA,NA,NA,"c(""distractor1"", ""distractor2"", ""distractor3"")",NA,NA,NA,NA,NA,NA,NA,NA,NA,NA,NA,NA,NA,NA,NA,NA,NA,NA,NA
8b870,Shallow Question,html.Page,2_11_0_0,NA,NA,form submission,14184.48,233607,233601.88,233618.52,247803,247803,2023-07-12T18:31:44Z,247815.54,Erneuerung,ukarabati,s,ushawishi,ukalifu,unyonyaji,ukarabati,NA,NA,"c(""distractor1"", ""distractor2"", ""distractor3"")",NA,NA,NA,NA,NA,NA,NA,NA,NA,NA,NA,NA,NA,NA,NA,NA,NA,NA,NA
8b870,Save data screen,canvas.Screen,2_11_0_1,NA,NA,timeout,499.91999999998,247806,247800.1,247815.54,248298.8,248300,2023-07-12T18:31:44Z,248315.46,Erneuerung,ukarabati,s,ushawishi,ukalifu,unyonyaji,NA,NA,1,"c(""distractor1"", ""distractor2"", ""distractor3"")",NA,NA,NA,NA,NA,NA,NA,NA,NA,NA,NA,NA,NA,NA,NA,NA,NA,NA,NA
8b870,shallow,flow.Sequence,2_11_0,NA,NA,completion,14680.28,233607,233601.88,233618.52,248298.8,248302,2023-07-12T18:31:44Z,248315.46,Erneuerung,ukarabati,s,ushawishi,ukalifu,unyonyaji,NA,NA,NA,"c(""distractor1"", ""distractor2"", ""distractor3"")",NA,NA,NA,NA,NA,NA,NA,NA,NA,NA,NA,NA,NA,NA,NA,NA,NA,NA,NA
8b870,task,flow.Sequence,2_11,NA,NA,completion,14680.28,233607,233601.88,233618.52,248298.8,248303,2023-07-12T18:31:44Z,248315.46,Erneuerung,ukarabati,s,ushawishi,ukalifu,unyonyaji,NA,NA,NA,"c(""distractor1"", ""distractor2"", ""distractor3"")",NA,NA,NA,NA,NA,NA,NA,NA,NA,NA,NA,NA,NA,NA,NA,NA,NA,NA,NA
8b870,Shallow Question,html.Page,2_12_0_0,NA,NA,form submission,6596.54,248304,248298.8,248315.46,254912,254912,2023-07-12T18:31:51Z,254914.1,Flexibilität,kubadilika,d,enjini,usikilivu,hesabu,kubadilika,NA,NA,"c(""distractor1"", ""distractor2"", ""distractor3"")",NA,NA,NA,NA,NA,NA,NA,NA,NA,NA,NA,NA,NA,NA,NA,NA,NA,NA,NA
8b870,Save data screen,canvas.Screen,2_12_0_1,NA,NA,timeout,499.94,254917,254910.38,254914.1,255397.38,255413,2023-07-12T18:31:51Z,255414.04,Flexibilität,kubadilika,d,enjini,usikilivu,hesabu,NA,NA,1,"c(""distractor1"", ""distractor2"", ""distractor3"")",NA,NA,NA,NA,NA,NA,NA,NA,NA,NA,NA,NA,NA,NA,NA,NA,NA,NA,NA
8b870,shallow,flow.Sequence,2_12_0,NA,NA,completion,7081.92,248304,248298.8,248315.46,255397.38,255421,2023-07-12T18:31:51Z,255414.04,Flexibilität,kubadilika,d,enjini,usikilivu,hesabu,NA,NA,NA,"c(""distractor1"", ""distractor2"", ""distractor3"")",NA,NA,NA,NA,NA,NA,NA,NA,NA,NA,NA,NA,NA,NA,NA,NA,NA,NA,NA
8b870,task,flow.Sequence,2_12,NA,NA,completion,7081.92,248304,248298.8,248315.46,255397.38,255422,2023-07-12T18:31:51Z,255414.04,Flexibilität,kubadilika,d,enjini,usikilivu,hesabu,NA,NA,NA,"c(""distractor1"", ""distractor2"", ""distractor3"")",NA,NA,NA,NA,NA,NA,NA,NA,NA,NA,NA,NA,NA,NA,NA,NA,NA,NA,NA
8b870,Shallow Question,html.Page,2_13_0_0,NA,NA,form submission,14430.96,255423,255397.38,255414.04,269845,269851,2023-07-12T18:32:06Z,269860.96,Orientierung,urekebisho,s,uelekeo,marekebisho,utunzaji,urekebisho,NA,NA,"c(""distractor1"", ""distractor2"", ""distractor3"")",NA,NA,NA,NA,NA,NA,NA,NA,NA,NA,NA,NA,NA,NA,NA,NA,NA,NA,NA
8b870,Save data screen,canvas.Screen,2_13_0_1,NA,NA,timeout,499.97999999998,269865,269837.6,269860.96,270344.38,270346,2023-07-12T18:32:06Z,270360.94,Orientierung,urekebisho,s,uelekeo,marekebisho,utunzaji,NA,NA,1,"c(""distractor1"", ""distractor2"", ""distractor3"")",NA,NA,NA,NA,NA,NA,NA,NA,NA,NA,NA,NA,NA,NA,NA,NA,NA,NA,NA
8b870,shallow,flow.Sequence,2_13_0,NA,NA,completion,14930.34,255422,255397.38,255414.04,270344.38,270348,2023-07-12T18:32:06Z,270360.94,Orientierung,urekebisho,s,uelekeo,marekebisho,utunzaji,NA,NA,NA,"c(""distractor1"", ""distractor2"", ""distractor3"")",NA,NA,NA,NA,NA,NA,NA,NA,NA,NA,NA,NA,NA,NA,NA,NA,NA,NA,NA
8b870,task,flow.Sequence,2_13,NA,NA,completion,14930.34,255422,255397.38,255414.04,270344.38,270349,2023-07-12T18:32:06Z,270360.94,Orientierung,urekebisho,s,uelekeo,marekebisho,utunzaji,NA,NA,NA,"c(""distractor1"", ""distractor2"", ""distractor3"")",NA,NA,NA,NA,NA,NA,NA,NA,NA,NA,NA,NA,NA,NA,NA,NA,NA,NA,NA
8b870,Shallow Question,html.Page,2_14_0_0,NA,NA,form submission,16198.06,270350,270344.38,270360.94,286559,286560,2023-07-12T18:32:23Z,286557.48,Atmosphäre,angahewa,d,kuteseka,usahihi,kutoamini,angahewa,NA,NA,"c(""distractor1"", ""distractor2"", ""distractor3"")",NA,NA,NA,NA,NA,NA,NA,NA,NA,NA,NA,NA,NA,NA,NA,NA,NA,NA,NA
8b870,Save data screen,canvas.Screen,2_14_0_1,NA,NA,timeout,499.92000000004,286562,286556.44,286557.48,287040.92,287043,2023-07-12T18:32:23Z,287057.4,Atmosphäre,angahewa,d,kuteseka,usahihi,kutoamini,NA,NA,1,"c(""distractor1"", ""distractor2"", ""distractor3"")",NA,NA,NA,NA,NA,NA,NA,NA,NA,NA,NA,NA,NA,NA,NA,NA,NA,NA,NA
8b870,shallow,flow.Sequence,2_14_0,NA,NA,completion,16679.98,270350,270344.38,270360.94,287040.92,287045,2023-07-12T18:32:23Z,287057.4,Atmosphäre,angahewa,d,kuteseka,usahihi,kutoamini,NA,NA,NA,"c(""distractor1"", ""distractor2"", ""distractor3"")",NA,NA,NA,NA,NA,NA,NA,NA,NA,NA,NA,NA,NA,NA,NA,NA,NA,NA,NA
8b870,task,flow.Sequence,2_14,NA,NA,completion,16679.98,270349,270344.38,270360.94,287040.92,287047,2023-07-12T18:32:23Z,287057.4,Atmosphäre,angahewa,d,kuteseka,usahihi,kutoamini,NA,NA,NA,"c(""distractor1"", ""distractor2"", ""distractor3"")",NA,NA,NA,NA,NA,NA,NA,NA,NA,NA,NA,NA,NA,NA,NA,NA,NA,NA,NA
8b870,Shallow Question,html.Page,2_15_0_0,NA,NA,form submission,15186.6,287049,287040.92,287057.4,302244,302245,2023-07-12T18:32:38Z,302254.22,Betrüger,mdanganyifu,d,mwanamuziki,wastani,mahakama,mdanganyifu,NA,NA,"c(""distractor1"", ""distractor2"", ""distractor3"")",NA,NA,NA,NA,NA,NA,NA,NA,NA,NA,NA,NA,NA,NA,NA,NA,NA,NA,NA
8b870,Save data screen,canvas.Screen,2_15_0_1,NA,NA,timeout,499.90000000002,302246,302242.5,302254.22,302737.46,302738,2023-07-12T18:32:39Z,302754.12,Betrüger,mdanganyifu,d,mwanamuziki,wastani,mahakama,NA,NA,1,"c(""distractor1"", ""distractor2"", ""distractor3"")",NA,NA,NA,NA,NA,NA,NA,NA,NA,NA,NA,NA,NA,NA,NA,NA,NA,NA,NA
8b870,shallow,flow.Sequence,2_15_0,NA,NA,completion,15680.06,287048,287040.92,287057.4,302737.46,302739,2023-07-12T18:32:39Z,302754.12,Betrüger,mdanganyifu,d,mwanamuziki,wastani,mahakama,NA,NA,NA,"c(""distractor1"", ""distractor2"", ""distractor3"")",NA,NA,NA,NA,NA,NA,NA,NA,NA,NA,NA,NA,NA,NA,NA,NA,NA,NA,NA
8b870,task,flow.Sequence,2_15,NA,NA,completion,15680.06,287048,287040.92,287057.4,302737.46,302739,2023-07-12T18:32:39Z,302754.12,Betrüger,mdanganyifu,d,mwanamuziki,wastani,mahakama,NA,NA,NA,"c(""distractor1"", ""distractor2"", ""distractor3"")",NA,NA,NA,NA,NA,NA,NA,NA,NA,NA,NA,NA,NA,NA,NA,NA,NA,NA,NA
8b870,retrieval block 2 (multiple choice),flow.Loop,2,NA,NA,completion,152384.88,150342,150335.92,150352.58,302737.46,302740,2023-07-12T18:32:39Z,302754.12,NA,NA,NA,NA,NA,NA,NA,NA,NA,"c(""distractor1"", ""distractor2"", ""distractor3"")",NA,NA,NA,NA,NA,NA,NA,NA,NA,NA,NA,NA,NA,NA,NA,NA,NA,NA,NA
8b870,End,canvas.Screen,3,NA,keypress(Space),response,3662.88,302740,302737.46,302754.12,306417,306426,2023-07-12T18:32:42Z,306429.48,NA,NA,NA,NA,NA,NA,NA,NA,NA,NULL,NA,NA,NA,NA,NA,NA,NA,NA,NA,NA,NA,NA,NA,NA,NA,NA,NA,NA,NA
8b870,root,flow.Sequence,NA,NA,NA,completion,305716.76,679,683.58,700.24,306417,306428,2023-07-12T18:32:42Z,306429.48,NA,NA,NA,NA,NA,NA,NA,NA,NA,NULL,NA,NA,NA,NA,NA,NA,NA,NA,NA,NA,NA,NA,NA,NA,NA,NA,NA,NA,NA
