observation,sender,sender_type,sender_id,response,response_action,ended_on,duration,time_run,time_render,time_show,time_end,time_commit,timestamp,time_switch,distractors,german,swahili,enc,distractor1,distractor2,distractor3,response_2,x,correct,x_2,url_vp,url_sess,meta_labjs_version,meta_location,meta_user_agent,meta_platform,meta_language,meta_locale,meta_time_zone,meta_timezone_offset,meta_screen_width,meta_screen_height,meta_scroll_width,meta_scroll_height,meta_window_inner_width,meta_window_inner_height,meta_device_pixel_ratio,meta_labjs_build_flavor,meta_labjs_build_commit
1cb6d,Introduction general,canvas.Screen,0,weiter,keypress(q),response,86867.96,1955,1968.38,1985.04,88853,88862,2023-04-25T11:29:15Z,88863.3,NULL,NA,NA,NA,NA,NA,NA,NA,NA,NA,NA,125,1,20.2.4,https://neurocog.fernuni.ch/studies/vweber/encoding_immediate/index.html?vp=125&sess=1,Mozilla/5.0 (Macintosh; Intel Mac OS X 10.15; rv:109.0) Gecko/20100101 Firefox/112.0,MacIntel,de,de-CH,Europe/Zurich,-120,1470,956,1068,652,1068,700,2,production,f5b4a49f956347addd546a832a3327688c2c0fef
1cb6d,Introduction practice,canvas.Screen,1_0,NA,keypress(Space),response,13584.7,88863,88863.14,88863.3,102448,102455,2023-04-25T11:29:29Z,102456.98,NULL,NA,NA,NA,NA,NA,NA,NA,NA,NA,NA,NA,NA,NA,NA,NA,NA,NA,NA,NA,NA,NA,NA,NA,NA,NA,NA,NA,NA,NA
1cb6d,deep,flow.Sequence,1_1_0_0,NA,NA,skipped,NA,102456,NA,NA,102448,102456,2023-04-25T11:29:29Z,102456.98,"c(""distractor1"", ""distractor2"", ""distractor3"")",Rückhalt,msaada,s,muhula,auwali,kiwimbe,NA,NA,NA,NA,NA,NA,NA,NA,NA,NA,NA,NA,NA,NA,NA,NA,NA,NA,NA,NA,NA,NA,NA
1cb6d,Shallow Question,html.Page,1_1_0_1_0,NA,NA,form submission,8180.02,102457,102456.76,102456.98,110637,110637,2023-04-25T11:29:37Z,110633.7,"c(""distractor1"", ""distractor2"", ""distractor3"")",Rückhalt,msaada,s,muhula,auwali,kiwimbe,kiwimbe,NA,NA,NA,NA,NA,NA,NA,NA,NA,NA,NA,NA,NA,NA,NA,NA,NA,NA,NA,NA,NA,NA
1cb6d,"""Richtig""-Screen",canvas.Screen,1_1_0_1_1,NA,NA,skipped,NA,110640,NA,NA,110637,110640,2023-04-25T11:29:37Z,110633.7,"c(""distractor1"", ""distractor2"", ""distractor3"")",Rückhalt,msaada,s,muhula,auwali,kiwimbe,NA,NA,NA,NA,NA,NA,NA,NA,NA,NA,NA,NA,NA,NA,NA,NA,NA,NA,NA,NA,NA,NA,NA
1cb6d,"""Falsch""-Screen",canvas.Screen,1_1_0_1_2,NA,NA,timeout,4999.94,110641,110619.46,110633.7,115616.94,115618,2023-04-25T11:29:42Z,115633.64,"c(""distractor1"", ""distractor2"", ""distractor3"")",Rückhalt,msaada,s,muhula,auwali,kiwimbe,NA,NA,0,NA,NA,NA,NA,NA,NA,NA,NA,NA,NA,NA,NA,NA,NA,NA,NA,NA,NA,NA,NA
1cb6d,shallow,flow.Sequence,1_1_0_1,NA,NA,completion,13159.96,102457,102456.76,102456.98,115616.94,115619,2023-04-25T11:29:42Z,115633.64,"c(""distractor1"", ""distractor2"", ""distractor3"")",Rückhalt,msaada,s,muhula,auwali,kiwimbe,NA,NA,NA,NA,NA,NA,NA,NA,NA,NA,NA,NA,NA,NA,NA,NA,NA,NA,NA,NA,NA,NA,NA
1cb6d,task,flow.Sequence,1_1_0,NA,NA,completion,13159.96,102456,102456.76,102456.98,115616.94,115620,2023-04-25T11:29:42Z,115633.64,"c(""distractor1"", ""distractor2"", ""distractor3"")",Rückhalt,msaada,s,muhula,auwali,kiwimbe,NA,NA,NA,NA,NA,NA,NA,NA,NA,NA,NA,NA,NA,NA,NA,NA,NA,NA,NA,NA,NA,NA,NA
1cb6d,Deep Question,html.Page,1_1_1_0_0,NA,NA,form submission,4921.36,115620,115616.94,115633.64,120555,120556,2023-04-25T11:29:47Z,120566.9,"c(""distractor1"", ""distractor2"", ""distractor3"")",Schatten,kivuli,d,NA,NA,NA,kaben,NA,NA,NA,NA,NA,NA,NA,NA,NA,NA,NA,NA,NA,NA,NA,NA,NA,NA,NA,NA,NA,NA
1cb6d,"""Richtig""-Screen",canvas.Screen,1_1_1_0_1,NA,NA,skipped,NA,120560,NA,NA,120555,120560,2023-04-25T11:29:47Z,120566.9,"c(""distractor1"", ""distractor2"", ""distractor3"")",Schatten,kivuli,d,NA,NA,NA,NA,NA,NA,NA,NA,NA,NA,NA,NA,NA,NA,NA,NA,NA,NA,NA,NA,NA,NA,NA,NA,NA,NA
1cb6d,"""Falsch""-Screen",canvas.Screen,1_1_1_0_2,NA,NA,timeout,4999.8,120561,120552.4,120566.9,125550.04,125552,2023-04-25T11:29:52Z,125566.7,"c(""distractor1"", ""distractor2"", ""distractor3"")",Schatten,kivuli,d,NA,NA,NA,NA,NA,0,NA,NA,NA,NA,NA,NA,NA,NA,NA,NA,NA,NA,NA,NA,NA,NA,NA,NA,NA,NA
1cb6d,deep,flow.Sequence,1_1_1_0,NA,NA,completion,9916.4,115620,115616.94,115633.64,125550.04,125554,2023-04-25T11:29:52Z,125566.7,"c(""distractor1"", ""distractor2"", ""distractor3"")",Schatten,kivuli,d,NA,NA,NA,NA,NA,NA,NA,NA,NA,NA,NA,NA,NA,NA,NA,NA,NA,NA,NA,NA,NA,NA,NA,NA,NA,NA
1cb6d,shallow,flow.Sequence,1_1_1_1,NA,NA,skipped,NA,125554,NA,NA,125550.04,125554,2023-04-25T11:29:52Z,125566.7,"c(""distractor1"", ""distractor2"", ""distractor3"")",Schatten,kivuli,d,NA,NA,NA,NA,NA,NA,NA,NA,NA,NA,NA,NA,NA,NA,NA,NA,NA,NA,NA,NA,NA,NA,NA,NA,NA,NA
1cb6d,task,flow.Sequence,1_1_1,NA,NA,completion,9916.4,115620,115616.94,115633.64,125550.04,125555,2023-04-25T11:29:52Z,125566.7,"c(""distractor1"", ""distractor2"", ""distractor3"")",Schatten,kivuli,d,NA,NA,NA,NA,NA,NA,NA,NA,NA,NA,NA,NA,NA,NA,NA,NA,NA,NA,NA,NA,NA,NA,NA,NA,NA,NA
1cb6d,deep,flow.Sequence,1_1_2_0,NA,NA,skipped,NA,125555,NA,NA,125550.04,125555,2023-04-25T11:29:52Z,125566.7,"c(""distractor1"", ""distractor2"", ""distractor3"")",Kritik,lawama,s,dereva,nafasi,mawazo,NA,NA,NA,NA,NA,NA,NA,NA,NA,NA,NA,NA,NA,NA,NA,NA,NA,NA,NA,NA,NA,NA,NA
1cb6d,Shallow Question,html.Page,1_1_2_1_0,NA,NA,form submission,4933.3,125556,125550.04,125566.7,130500,130500,2023-04-25T11:29:57Z,130500.1,"c(""distractor1"", ""distractor2"", ""distractor3"")",Kritik,lawama,s,dereva,nafasi,mawazo,lawama,NA,NA,NA,NA,NA,NA,NA,NA,NA,NA,NA,NA,NA,NA,NA,NA,NA,NA,NA,NA,NA,NA
1cb6d,"""Richtig""-Screen",canvas.Screen,1_1_2_1_1,NA,NA,timeout,4999.9,130506,130494.82,130500.1,135483.34,135485,2023-04-25T11:30:02Z,135500,"c(""distractor1"", ""distractor2"", ""distractor3"")",Kritik,lawama,s,dereva,nafasi,mawazo,NA,NA,1,NA,NA,NA,NA,NA,NA,NA,NA,NA,NA,NA,NA,NA,NA,NA,NA,NA,NA,NA,NA
1cb6d,"""Falsch""-Screen",canvas.Screen,1_1_2_1_2,NA,NA,skipped,NA,135490,NA,NA,135483.34,135490,2023-04-25T11:30:02Z,135500,"c(""distractor1"", ""distractor2"", ""distractor3"")",Kritik,lawama,s,dereva,nafasi,mawazo,NA,NA,NA,NA,NA,NA,NA,NA,NA,NA,NA,NA,NA,NA,NA,NA,NA,NA,NA,NA,NA,NA,NA
1cb6d,shallow,flow.Sequence,1_1_2_1,NA,NA,completion,9916.64,125556,125550.04,125566.7,135483.34,135490,2023-04-25T11:30:02Z,135500,"c(""distractor1"", ""distractor2"", ""distractor3"")",Kritik,lawama,s,dereva,nafasi,mawazo,NA,NA,NA,NA,NA,NA,NA,NA,NA,NA,NA,NA,NA,NA,NA,NA,NA,NA,NA,NA,NA,NA,NA
1cb6d,task,flow.Sequence,1_1_2,NA,NA,completion,9916.64,125555,125550.04,125566.7,135483.34,135491,2023-04-25T11:30:02Z,135500,"c(""distractor1"", ""distractor2"", ""distractor3"")",Kritik,lawama,s,dereva,nafasi,mawazo,NA,NA,NA,NA,NA,NA,NA,NA,NA,NA,NA,NA,NA,NA,NA,NA,NA,NA,NA,NA,NA,NA,NA
1cb6d,Deep Question,html.Page,1_1_3_0_0,NA,NA,form submission,4889,135491,135483.34,135500,140389,140390,2023-04-25T11:30:07Z,140388.4,"c(""distractor1"", ""distractor2"", ""distractor3"")",Qualität,mtindo,d,NA,NA,NA,lawama,NA,NA,NA,NA,NA,NA,NA,NA,NA,NA,NA,NA,NA,NA,NA,NA,NA,NA,NA,NA,NA,NA
1cb6d,"""Richtig""-Screen",canvas.Screen,1_1_3_0_1,NA,NA,skipped,NA,140393,NA,NA,140389,140393,2023-04-25T11:30:07Z,140388.4,"c(""distractor1"", ""distractor2"", ""distractor3"")",Qualität,mtindo,d,NA,NA,NA,NA,NA,NA,NA,NA,NA,NA,NA,NA,NA,NA,NA,NA,NA,NA,NA,NA,NA,NA,NA,NA,NA,NA
1cb6d,"""Falsch""-Screen",canvas.Screen,1_1_3_0_2,NA,NA,timeout,4994.76,140395,140388.2,140388.4,145365.58,145366,2023-04-25T11:30:12Z,145383.16,"c(""distractor1"", ""distractor2"", ""distractor3"")",Qualität,mtindo,d,NA,NA,NA,NA,NA,0,NA,NA,NA,NA,NA,NA,NA,NA,NA,NA,NA,NA,NA,NA,NA,NA,NA,NA,NA,NA
1cb6d,deep,flow.Sequence,1_1_3_0,NA,NA,completion,9865.58,135491,135483.34,135500,145365.58,145366,2023-04-25T11:30:12Z,145383.16,"c(""distractor1"", ""distractor2"", ""distractor3"")",Qualität,mtindo,d,NA,NA,NA,NA,NA,NA,NA,NA,NA,NA,NA,NA,NA,NA,NA,NA,NA,NA,NA,NA,NA,NA,NA,NA,NA,NA
1cb6d,shallow,flow.Sequence,1_1_3_1,NA,NA,skipped,NA,145367,NA,NA,145365.58,145367,2023-04-25T11:30:12Z,145383.16,"c(""distractor1"", ""distractor2"", ""distractor3"")",Qualität,mtindo,d,NA,NA,NA,NA,NA,NA,NA,NA,NA,NA,NA,NA,NA,NA,NA,NA,NA,NA,NA,NA,NA,NA,NA,NA,NA,NA
1cb6d,task,flow.Sequence,1_1_3,NA,NA,completion,9865.58,135491,135483.34,135500,145365.58,145367,2023-04-25T11:30:12Z,145383.16,"c(""distractor1"", ""distractor2"", ""distractor3"")",Qualität,mtindo,d,NA,NA,NA,NA,NA,NA,NA,NA,NA,NA,NA,NA,NA,NA,NA,NA,NA,NA,NA,NA,NA,NA,NA,NA,NA,NA
1cb6d,deep,flow.Sequence,1_1_4_0,NA,NA,skipped,NA,145367,NA,NA,145365.58,145367,2023-04-25T11:30:12Z,145383.16,"c(""distractor1"", ""distractor2"", ""distractor3"")",Gegenwart,hadhara,s,katiba,jokofu,mikopo,NA,NA,NA,NA,NA,NA,NA,NA,NA,NA,NA,NA,NA,NA,NA,NA,NA,NA,NA,NA,NA,NA,NA
1cb6d,Shallow Question,html.Page,1_1_4_1_0,NA,NA,form submission,5886.84,145368,145365.58,145383.16,151270,151271,2023-04-25T11:30:18Z,151283.18,"c(""distractor1"", ""distractor2"", ""distractor3"")",Gegenwart,hadhara,s,katiba,jokofu,mikopo,katiba,NA,NA,NA,NA,NA,NA,NA,NA,NA,NA,NA,NA,NA,NA,NA,NA,NA,NA,NA,NA,NA,NA
1cb6d,"""Richtig""-Screen",canvas.Screen,1_1_4_1_1,NA,NA,skipped,NA,151274,NA,NA,151270,151274,2023-04-25T11:30:18Z,151283.18,"c(""distractor1"", ""distractor2"", ""distractor3"")",Gegenwart,hadhara,s,katiba,jokofu,mikopo,NA,NA,NA,NA,NA,NA,NA,NA,NA,NA,NA,NA,NA,NA,NA,NA,NA,NA,NA,NA,NA,NA,NA
1cb6d,"""Falsch""-Screen",canvas.Screen,1_1_4_1_2,NA,NA,timeout,4999.84,151276,151266.88,151283.18,156266.32,156267,2023-04-25T11:30:23Z,156283.02,"c(""distractor1"", ""distractor2"", ""distractor3"")",Gegenwart,hadhara,s,katiba,jokofu,mikopo,NA,NA,0,NA,NA,NA,NA,NA,NA,NA,NA,NA,NA,NA,NA,NA,NA,NA,NA,NA,NA,NA,NA
1cb6d,shallow,flow.Sequence,1_1_4_1,NA,NA,completion,10883.16,145367,145365.58,145383.16,156266.32,156268,2023-04-25T11:30:23Z,156283.02,"c(""distractor1"", ""distractor2"", ""distractor3"")",Gegenwart,hadhara,s,katiba,jokofu,mikopo,NA,NA,NA,NA,NA,NA,NA,NA,NA,NA,NA,NA,NA,NA,NA,NA,NA,NA,NA,NA,NA,NA,NA
1cb6d,task,flow.Sequence,1_1_4,NA,NA,completion,10883.16,145367,145365.58,145383.16,156266.32,156268,2023-04-25T11:30:23Z,156283.02,"c(""distractor1"", ""distractor2"", ""distractor3"")",Gegenwart,hadhara,s,katiba,jokofu,mikopo,NA,NA,NA,NA,NA,NA,NA,NA,NA,NA,NA,NA,NA,NA,NA,NA,NA,NA,NA,NA,NA,NA,NA
1cb6d,Deep Question,html.Page,1_1_5_0_0,NA,NA,form submission,5610.98,156268,156266.32,156283.02,161894,161894,2023-04-25T11:30:28Z,161899.7,"c(""distractor1"", ""distractor2"", ""distractor3"")",Gesundheit,salama,d,NA,NA,NA,hadhara,NA,NA,NA,NA,NA,NA,NA,NA,NA,NA,NA,NA,NA,NA,NA,NA,NA,NA,NA,NA,NA,NA
1cb6d,"""Richtig""-Screen",canvas.Screen,1_1_5_0_1,NA,NA,skipped,NA,161898,NA,NA,161894,161898,2023-04-25T11:30:28Z,161899.7,"c(""distractor1"", ""distractor2"", ""distractor3"")",Gesundheit,salama,d,NA,NA,NA,NA,NA,NA,NA,NA,NA,NA,NA,NA,NA,NA,NA,NA,NA,NA,NA,NA,NA,NA,NA,NA,NA,NA
1cb6d,"""Falsch""-Screen",canvas.Screen,1_1_5_0_2,NA,NA,timeout,4999.88,161899,161893.18,161899.7,166882.92,166884,2023-04-25T11:30:33Z,166899.58,"c(""distractor1"", ""distractor2"", ""distractor3"")",Gesundheit,salama,d,NA,NA,NA,NA,NA,0,NA,NA,NA,NA,NA,NA,NA,NA,NA,NA,NA,NA,NA,NA,NA,NA,NA,NA,NA,NA
1cb6d,deep,flow.Sequence,1_1_5_0,NA,NA,completion,10599.9,156268,156266.32,156283.02,166882.92,166884,2023-04-25T11:30:33Z,166899.58,"c(""distractor1"", ""distractor2"", ""distractor3"")",Gesundheit,salama,d,NA,NA,NA,NA,NA,NA,NA,NA,NA,NA,NA,NA,NA,NA,NA,NA,NA,NA,NA,NA,NA,NA,NA,NA,NA,NA
1cb6d,shallow,flow.Sequence,1_1_5_1,NA,NA,skipped,NA,166885,NA,NA,166882.92,166885,2023-04-25T11:30:33Z,166899.58,"c(""distractor1"", ""distractor2"", ""distractor3"")",Gesundheit,salama,d,NA,NA,NA,NA,NA,NA,NA,NA,NA,NA,NA,NA,NA,NA,NA,NA,NA,NA,NA,NA,NA,NA,NA,NA,NA,NA
1cb6d,task,flow.Sequence,1_1_5,NA,NA,completion,10599.9,156268,156266.32,156283.02,166882.92,166886,2023-04-25T11:30:33Z,166899.58,"c(""distractor1"", ""distractor2"", ""distractor3"")",Gesundheit,salama,d,NA,NA,NA,NA,NA,NA,NA,NA,NA,NA,NA,NA,NA,NA,NA,NA,NA,NA,NA,NA,NA,NA,NA,NA,NA,NA
1cb6d,block,flow.Loop,1_1,NA,NA,completion,64425.94,102456,102456.76,102456.98,166882.92,166886,2023-04-25T11:30:33Z,166899.58,"c(""distractor1"", ""distractor2"", ""distractor3"")",NA,NA,NA,NA,NA,NA,NA,NA,NA,NA,NA,NA,NA,NA,NA,NA,NA,NA,NA,NA,NA,NA,NA,NA,NA,NA,NA,NA,NA
1cb6d,Practice,flow.Sequence,1,NA,NA,completion,78019.62,88863,88863.14,88863.3,166882.92,166886,2023-04-25T11:30:33Z,166899.58,NULL,NA,NA,NA,NA,NA,NA,NA,NA,NA,NA,NA,NA,NA,NA,NA,NA,NA,NA,NA,NA,NA,NA,NA,NA,NA,NA,NA,NA,NA
1cb6d,Experiment start,canvas.Screen,2,weiter,keypress(q),response,26148.42,166886,166882.92,166899.58,193048,193053,2023-04-25T11:30:59Z,193113,NULL,NA,NA,NA,NA,NA,NA,NA,NA,NA,NA,NA,NA,NA,NA,NA,NA,NA,NA,NA,NA,NA,NA,NA,NA,NA,NA,NA,NA,NA
1cb6d,Deep Question,html.Page,3_0_0_0_0_0_0,NA,NA,form submission,8453,193113,193112.92,193113,201566,201567,2023-04-25T11:31:08Z,201565.3,NULL,Begegnung,kukutana,d,NA,NA,NA,lawama,NA,NA,0,NA,NA,NA,NA,NA,NA,NA,NA,NA,NA,NA,NA,NA,NA,NA,NA,NA,NA,NA
1cb6d,"""Richtig""-Screen",canvas.Screen,3_0_0_0_0_0_1,NA,NA,skipped,NA,201570,NA,NA,201566,201570,2023-04-25T11:31:08Z,201565.3,NULL,Begegnung,kukutana,d,NA,NA,NA,NA,sdf,NA,0,NA,NA,NA,NA,NA,NA,NA,NA,NA,NA,NA,NA,NA,NA,NA,NA,NA,NA,NA
1cb6d,"""Falsch""-Screen",canvas.Screen,3_0_0_0_0_0_2,NA,NA,timeout,4999.9,201572,201565.12,201565.3,206549.18,206550,2023-04-25T11:31:13Z,206565.2,NULL,Begegnung,kukutana,d,NA,NA,NA,NA,sdf,0,0,NA,NA,NA,NA,NA,NA,NA,NA,NA,NA,NA,NA,NA,NA,NA,NA,NA,NA,NA
1cb6d,deep,flow.Sequence,3_0_0_0_0_0,NA,NA,completion,13436.18,193113,193112.92,193113,206549.18,206551,2023-04-25T11:31:13Z,206565.2,NULL,Begegnung,kukutana,d,NA,NA,NA,NA,sdf,NA,0,NA,NA,NA,NA,NA,NA,NA,NA,NA,NA,NA,NA,NA,NA,NA,NA,NA,NA,NA
1cb6d,shallow,flow.Sequence,3_0_0_0_0_1,NA,NA,skipped,NA,206551,NA,NA,206549.18,206551,2023-04-25T11:31:13Z,206565.2,NULL,Begegnung,kukutana,d,NA,NA,NA,NA,sdf,NA,0,NA,NA,NA,NA,NA,NA,NA,NA,NA,NA,NA,NA,NA,NA,NA,NA,NA,NA,NA
1cb6d,task,flow.Sequence,3_0_0_0_0,NA,NA,completion,13436.18,193113,193112.92,193113,206549.18,206551,2023-04-25T11:31:13Z,206565.2,NULL,Begegnung,kukutana,d,NA,NA,NA,NA,sdf,NA,0,NA,NA,NA,NA,NA,NA,NA,NA,NA,NA,NA,NA,NA,NA,NA,NA,NA,NA,NA
1cb6d,deep,flow.Sequence,3_0_0_0_1_0,NA,NA,skipped,NA,206551,NA,NA,206549.18,206551,2023-04-25T11:31:13Z,206565.2,NULL,Inhalt,yaliyomo,s,kishawishi,hifadhi,kutembea,NA,sdf,NA,0,NA,NA,NA,NA,NA,NA,NA,NA,NA,NA,NA,NA,NA,NA,NA,NA,NA,NA,NA
1cb6d,Shallow Question,html.Page,3_0_0_0_1_1_0,NA,NA,form submission,4952.8,206551,206549.18,206565.2,211518,211520,2023-04-25T11:31:18Z,211531.98,NULL,Inhalt,yaliyomo,s,kishawishi,hifadhi,kutembea,kishawishi,NA,NA,0,NA,NA,NA,NA,NA,NA,NA,NA,NA,NA,NA,NA,NA,NA,NA,NA,NA,NA,NA
1cb6d,"""Richtig""-Screen",canvas.Screen,3_0_0_0_1_1_1,NA,NA,skipped,NA,211522,NA,NA,211518,211522,2023-04-25T11:31:18Z,211531.98,NULL,Inhalt,yaliyomo,s,kishawishi,hifadhi,kutembea,NA,sdf,NA,0,NA,NA,NA,NA,NA,NA,NA,NA,NA,NA,NA,NA,NA,NA,NA,NA,NA,NA,NA
1cb6d,"""Falsch""-Screen",canvas.Screen,3_0_0_0_1_1_2,NA,NA,timeout,5000.36,211523,211515.58,211531.98,216515.66,216517,2023-04-25T11:31:23Z,216532.34,NULL,Inhalt,yaliyomo,s,kishawishi,hifadhi,kutembea,NA,sdf,0,0,NA,NA,NA,NA,NA,NA,NA,NA,NA,NA,NA,NA,NA,NA,NA,NA,NA,NA,NA
1cb6d,shallow,flow.Sequence,3_0_0_0_1_1,NA,NA,completion,9950.46,206551,206549.18,206565.2,216515.66,216517,2023-04-25T11:31:23Z,216532.34,NULL,Inhalt,yaliyomo,s,kishawishi,hifadhi,kutembea,NA,sdf,NA,0,NA,NA,NA,NA,NA,NA,NA,NA,NA,NA,NA,NA,NA,NA,NA,NA,NA,NA,NA
1cb6d,task,flow.Sequence,3_0_0_0_1,NA,NA,completion,9950.46,206551,206549.18,206565.2,216515.66,216518,2023-04-25T11:31:23Z,216532.34,NULL,Inhalt,yaliyomo,s,kishawishi,hifadhi,kutembea,NA,sdf,NA,0,NA,NA,NA,NA,NA,NA,NA,NA,NA,NA,NA,NA,NA,NA,NA,NA,NA,NA,NA
1cb6d,Deep Question,html.Page,3_0_0_0_2_0_0,NA,NA,form submission,4653.66,216518,216515.66,216532.34,221186,221186,2023-04-25T11:31:28Z,221185.22,NULL,Schlange,foleni,d,NA,NA,NA,lawama,NA,NA,0,NA,NA,NA,NA,NA,NA,NA,NA,NA,NA,NA,NA,NA,NA,NA,NA,NA,NA,NA
1cb6d,"""Richtig""-Screen",canvas.Screen,3_0_0_0_2_0_1,NA,NA,skipped,NA,221189,NA,NA,221186,221189,2023-04-25T11:31:28Z,221185.22,NULL,Schlange,foleni,d,NA,NA,NA,NA,sdf,NA,0,NA,NA,NA,NA,NA,NA,NA,NA,NA,NA,NA,NA,NA,NA,NA,NA,NA,NA,NA
1cb6d,"""Falsch""-Screen",canvas.Screen,3_0_0_0_2_0_2,NA,NA,timeout,4996.08,221190,221185.04,221185.22,226165.44,226166,2023-04-25T11:31:33Z,226181.3,NULL,Schlange,foleni,d,NA,NA,NA,NA,sdf,0,0,NA,NA,NA,NA,NA,NA,NA,NA,NA,NA,NA,NA,NA,NA,NA,NA,NA,NA,NA
1cb6d,deep,flow.Sequence,3_0_0_0_2_0,NA,NA,completion,9633.1,216518,216515.66,216532.34,226165.44,226167,2023-04-25T11:31:33Z,226181.3,NULL,Schlange,foleni,d,NA,NA,NA,NA,sdf,NA,0,NA,NA,NA,NA,NA,NA,NA,NA,NA,NA,NA,NA,NA,NA,NA,NA,NA,NA,NA
1cb6d,shallow,flow.Sequence,3_0_0_0_2_1,NA,NA,skipped,NA,226168,NA,NA,226165.44,226168,2023-04-25T11:31:33Z,226181.3,NULL,Schlange,foleni,d,NA,NA,NA,NA,sdf,NA,0,NA,NA,NA,NA,NA,NA,NA,NA,NA,NA,NA,NA,NA,NA,NA,NA,NA,NA,NA
1cb6d,task,flow.Sequence,3_0_0_0_2,NA,NA,completion,9633.1,216518,216515.66,216532.34,226165.44,226168,2023-04-25T11:31:33Z,226181.3,NULL,Schlange,foleni,d,NA,NA,NA,NA,sdf,NA,0,NA,NA,NA,NA,NA,NA,NA,NA,NA,NA,NA,NA,NA,NA,NA,NA,NA,NA,NA
1cb6d,deep,flow.Sequence,3_0_0_0_3_0,NA,NA,skipped,NA,226169,NA,NA,226165.44,226170,2023-04-25T11:31:33Z,226181.3,NULL,Vermutung,udhanifu,s,haramia,tikisho,itifaki,NA,sdf,NA,0,NA,NA,NA,NA,NA,NA,NA,NA,NA,NA,NA,NA,NA,NA,NA,NA,NA,NA,NA
1cb6d,Shallow Question,html.Page,3_0_0_0_3_1_0,NA,NA,form submission,5361.7,226170,226165.44,226181.3,231543,231544,2023-04-25T11:31:38Z,231542.06,NULL,Vermutung,udhanifu,s,haramia,tikisho,itifaki,haramia,NA,NA,0,NA,NA,NA,NA,NA,NA,NA,NA,NA,NA,NA,NA,NA,NA,NA,NA,NA,NA,NA
1cb6d,"""Richtig""-Screen",canvas.Screen,3_0_0_0_3_1_1,NA,NA,skipped,NA,231549,NA,NA,231543,231549,2023-04-25T11:31:38Z,231542.06,NULL,Vermutung,udhanifu,s,haramia,tikisho,itifaki,NA,sdf,NA,0,NA,NA,NA,NA,NA,NA,NA,NA,NA,NA,NA,NA,NA,NA,NA,NA,NA,NA,NA
1cb6d,"""Falsch""-Screen",canvas.Screen,3_0_0_0_3_1_2,NA,NA,timeout,5006.62,231553,231541.92,231542.06,236532,236533,2023-04-25T11:31:43Z,236548.68,NULL,Vermutung,udhanifu,s,haramia,tikisho,itifaki,NA,sdf,0,0,NA,NA,NA,NA,NA,NA,NA,NA,NA,NA,NA,NA,NA,NA,NA,NA,NA,NA,NA
1cb6d,shallow,flow.Sequence,3_0_0_0_3_1,NA,NA,completion,10350.7,226170,226165.44,226181.3,236532,236533,2023-04-25T11:31:43Z,236548.68,NULL,Vermutung,udhanifu,s,haramia,tikisho,itifaki,NA,sdf,NA,0,NA,NA,NA,NA,NA,NA,NA,NA,NA,NA,NA,NA,NA,NA,NA,NA,NA,NA,NA
1cb6d,task,flow.Sequence,3_0_0_0_3,NA,NA,completion,10350.7,226169,226165.44,226181.3,236532,236533,2023-04-25T11:31:43Z,236548.68,NULL,Vermutung,udhanifu,s,haramia,tikisho,itifaki,NA,sdf,NA,0,NA,NA,NA,NA,NA,NA,NA,NA,NA,NA,NA,NA,NA,NA,NA,NA,NA,NA,NA
1cb6d,Deep Question,html.Page,3_0_0_0_4_0_0,NA,NA,form submission,7032.32,236534,236532,236548.68,243581,243582,2023-04-25T11:31:50Z,243598.72,NULL,Genehmigung,idhini,d,NA,NA,NA,udhanifu,NA,NA,0,NA,NA,NA,NA,NA,NA,NA,NA,NA,NA,NA,NA,NA,NA,NA,NA,NA,NA,NA
1cb6d,"""Richtig""-Screen",canvas.Screen,3_0_0_0_4_0_1,NA,NA,skipped,NA,243585,NA,NA,243581,243585,2023-04-25T11:31:50Z,243598.72,NULL,Genehmigung,idhini,d,NA,NA,NA,NA,sdf,NA,0,NA,NA,NA,NA,NA,NA,NA,NA,NA,NA,NA,NA,NA,NA,NA,NA,NA,NA,NA
1cb6d,"""Falsch""-Screen",canvas.Screen,3_0_0_0_4_0_2,NA,NA,timeout,4999.92,243587,243574.22,243598.72,248581.94,248583,2023-04-25T11:31:55Z,248598.64,NULL,Genehmigung,idhini,d,NA,NA,NA,NA,sdf,0,0,NA,NA,NA,NA,NA,NA,NA,NA,NA,NA,NA,NA,NA,NA,NA,NA,NA,NA,NA
1cb6d,deep,flow.Sequence,3_0_0_0_4_0,NA,NA,completion,12033.26,236534,236532,236548.68,248581.94,248583,2023-04-25T11:31:55Z,248598.64,NULL,Genehmigung,idhini,d,NA,NA,NA,NA,sdf,NA,0,NA,NA,NA,NA,NA,NA,NA,NA,NA,NA,NA,NA,NA,NA,NA,NA,NA,NA,NA
1cb6d,shallow,flow.Sequence,3_0_0_0_4_1,NA,NA,skipped,NA,248583,NA,NA,248581.94,248583,2023-04-25T11:31:55Z,248598.64,NULL,Genehmigung,idhini,d,NA,NA,NA,NA,sdf,NA,0,NA,NA,NA,NA,NA,NA,NA,NA,NA,NA,NA,NA,NA,NA,NA,NA,NA,NA,NA
1cb6d,task,flow.Sequence,3_0_0_0_4,NA,NA,completion,12033.26,236533,236532,236548.68,248581.94,248583,2023-04-25T11:31:55Z,248598.64,NULL,Genehmigung,idhini,d,NA,NA,NA,NA,sdf,NA,0,NA,NA,NA,NA,NA,NA,NA,NA,NA,NA,NA,NA,NA,NA,NA,NA,NA,NA,NA
1cb6d,Deep Question,html.Page,3_0_0_0_5_0_0,NA,NA,form submission,4886.36,248583,248581.94,248598.64,253485,253486,2023-04-25T11:32:00Z,253482.64,NULL,Toleranz,kuvumiliana,d,NA,NA,NA,idhini,NA,NA,0,NA,NA,NA,NA,NA,NA,NA,NA,NA,NA,NA,NA,NA,NA,NA,NA,NA,NA,NA
1cb6d,"""Richtig""-Screen",canvas.Screen,3_0_0_0_5_0_1,NA,NA,skipped,NA,253488,NA,NA,253485,253488,2023-04-25T11:32:00Z,253482.64,NULL,Toleranz,kuvumiliana,d,NA,NA,NA,NA,sdf,NA,0,NA,NA,NA,NA,NA,NA,NA,NA,NA,NA,NA,NA,NA,NA,NA,NA,NA,NA,NA
1cb6d,"""Falsch""-Screen",canvas.Screen,3_0_0_0_5_0_2,NA,NA,timeout,4999.08,253492,253480.66,253482.64,258465.06,258466,2023-04-25T11:32:05Z,258481.72,NULL,Toleranz,kuvumiliana,d,NA,NA,NA,NA,sdf,0,0,NA,NA,NA,NA,NA,NA,NA,NA,NA,NA,NA,NA,NA,NA,NA,NA,NA,NA,NA
1cb6d,deep,flow.Sequence,3_0_0_0_5_0,NA,NA,completion,9866.42,248583,248581.94,248598.64,258465.06,258467,2023-04-25T11:32:05Z,258481.72,NULL,Toleranz,kuvumiliana,d,NA,NA,NA,NA,sdf,NA,0,NA,NA,NA,NA,NA,NA,NA,NA,NA,NA,NA,NA,NA,NA,NA,NA,NA,NA,NA
1cb6d,shallow,flow.Sequence,3_0_0_0_5_1,NA,NA,skipped,NA,258467,NA,NA,258465.06,258467,2023-04-25T11:32:05Z,258481.72,NULL,Toleranz,kuvumiliana,d,NA,NA,NA,NA,sdf,NA,0,NA,NA,NA,NA,NA,NA,NA,NA,NA,NA,NA,NA,NA,NA,NA,NA,NA,NA,NA
1cb6d,task,flow.Sequence,3_0_0_0_5,NA,NA,completion,9866.42,248583,248581.94,248598.64,258465.06,258467,2023-04-25T11:32:05Z,258481.72,NULL,Toleranz,kuvumiliana,d,NA,NA,NA,NA,sdf,NA,0,NA,NA,NA,NA,NA,NA,NA,NA,NA,NA,NA,NA,NA,NA,NA,NA,NA,NA,NA
1cb6d,deep,flow.Sequence,3_0_0_0_6_0,NA,NA,skipped,NA,258467,NA,NA,258465.06,258467,2023-04-25T11:32:05Z,258481.72,NULL,Fleisch,mshakiki,s,kizunguzungu,mshikamano,angusho,NA,sdf,NA,0,NA,NA,NA,NA,NA,NA,NA,NA,NA,NA,NA,NA,NA,NA,NA,NA,NA,NA,NA
1cb6d,Shallow Question,html.Page,3_0_0_0_6_1_0,NA,NA,form submission,4578.28,258467,258465.06,258481.72,263060,263060,2023-04-25T11:32:09Z,263059.9,NULL,Fleisch,mshakiki,s,kizunguzungu,mshikamano,angusho,mshakiki,NA,NA,0,NA,NA,NA,NA,NA,NA,NA,NA,NA,NA,NA,NA,NA,NA,NA,NA,NA,NA,NA
1cb6d,"""Richtig""-Screen",canvas.Screen,3_0_0_0_6_1_1,NA,NA,timeout,5004.48,263062,263059.78,263059.9,268048.26,268049,2023-04-25T11:32:14Z,268064.38,NULL,Fleisch,mshakiki,s,kizunguzungu,mshikamano,angusho,NA,sdf,1,0,NA,NA,NA,NA,NA,NA,NA,NA,NA,NA,NA,NA,NA,NA,NA,NA,NA,NA,NA
1cb6d,"""Falsch""-Screen",canvas.Screen,3_0_0_0_6_1_2,NA,NA,skipped,NA,268052,NA,NA,268048.26,268052,2023-04-25T11:32:14Z,268064.38,NULL,Fleisch,mshakiki,s,kizunguzungu,mshikamano,angusho,NA,sdf,NA,0,NA,NA,NA,NA,NA,NA,NA,NA,NA,NA,NA,NA,NA,NA,NA,NA,NA,NA,NA
1cb6d,shallow,flow.Sequence,3_0_0_0_6_1,NA,NA,completion,9566.54,258467,258465.06,258481.72,268048.26,268052,2023-04-25T11:32:14Z,268064.38,NULL,Fleisch,mshakiki,s,kizunguzungu,mshikamano,angusho,NA,sdf,NA,0,NA,NA,NA,NA,NA,NA,NA,NA,NA,NA,NA,NA,NA,NA,NA,NA,NA,NA,NA
1cb6d,task,flow.Sequence,3_0_0_0_6,NA,NA,completion,9566.54,258467,258465.06,258481.72,268048.26,268053,2023-04-25T11:32:14Z,268064.38,NULL,Fleisch,mshakiki,s,kizunguzungu,mshikamano,angusho,NA,sdf,NA,0,NA,NA,NA,NA,NA,NA,NA,NA,NA,NA,NA,NA,NA,NA,NA,NA,NA,NA,NA
1cb6d,deep,flow.Sequence,3_0_0_0_7_0,NA,NA,skipped,NA,268053,NA,NA,268048.26,268053,2023-04-25T11:32:14Z,268064.38,NULL,Integrität,uadilifu,s,muungano,mtiririko,upunguaji,NA,sdf,NA,0,NA,NA,NA,NA,NA,NA,NA,NA,NA,NA,NA,NA,NA,NA,NA,NA,NA,NA,NA
1cb6d,Shallow Question,html.Page,3_0_0_0_7_1_0,NA,NA,form submission,4982.62,268053,268048.26,268064.38,273047,273047,2023-04-25T11:32:19Z,273045.86,NULL,Integrität,uadilifu,s,muungano,mtiririko,upunguaji,muungano,NA,NA,0,NA,NA,NA,NA,NA,NA,NA,NA,NA,NA,NA,NA,NA,NA,NA,NA,NA,NA,NA
1cb6d,"""Richtig""-Screen",canvas.Screen,3_0_0_0_7_1_1,NA,NA,skipped,NA,273050,NA,NA,273047,273050,2023-04-25T11:32:19Z,273045.86,NULL,Integrität,uadilifu,s,muungano,mtiririko,upunguaji,NA,sdf,NA,0,NA,NA,NA,NA,NA,NA,NA,NA,NA,NA,NA,NA,NA,NA,NA,NA,NA,NA,NA
1cb6d,"""Falsch""-Screen",canvas.Screen,3_0_0_0_7_1_2,NA,NA,timeout,5002.3,273051,273045.7,273045.86,278031.48,278032,2023-04-25T11:32:24Z,278048.16,NULL,Integrität,uadilifu,s,muungano,mtiririko,upunguaji,NA,sdf,0,0,NA,NA,NA,NA,NA,NA,NA,NA,NA,NA,NA,NA,NA,NA,NA,NA,NA,NA,NA
1cb6d,shallow,flow.Sequence,3_0_0_0_7_1,NA,NA,completion,9967.1,268053,268048.26,268064.38,278031.48,278033,2023-04-25T11:32:24Z,278048.16,NULL,Integrität,uadilifu,s,muungano,mtiririko,upunguaji,NA,sdf,NA,0,NA,NA,NA,NA,NA,NA,NA,NA,NA,NA,NA,NA,NA,NA,NA,NA,NA,NA,NA
1cb6d,task,flow.Sequence,3_0_0_0_7,NA,NA,completion,9967.1,268053,268048.26,268064.38,278031.48,278033,2023-04-25T11:32:24Z,278048.16,NULL,Integrität,uadilifu,s,muungano,mtiririko,upunguaji,NA,sdf,NA,0,NA,NA,NA,NA,NA,NA,NA,NA,NA,NA,NA,NA,NA,NA,NA,NA,NA,NA,NA
1cb6d,block,flow.Loop,3_0_0_0,NA,NA,completion,84918.48,193113,193112.92,193113,278031.48,278034,2023-04-25T11:32:24Z,278048.16,NULL,NA,NA,NA,NA,NA,NA,NA,sdf,NA,0,NA,NA,NA,NA,NA,NA,NA,NA,NA,NA,NA,NA,NA,NA,NA,NA,NA,NA,NA
1cb6d,weiter,canvas.Screen,3_0_0_1,sdf,keypress(Space),response,1518.84,278034,278031.48,278048.16,279567,279573,2023-04-25T11:32:26Z,279613.74,NULL,NA,NA,NA,NA,NA,NA,NA,sdf,NA,0,NA,NA,NA,NA,NA,NA,NA,NA,NA,NA,NA,NA,NA,NA,NA,NA,NA,NA,NA
1cb6d,check continue,flow.Sequence,3_0_0,NA,NA,completion,86454,193113,193112.92,193113,279567,279574,2023-04-25T11:32:26Z,279613.74,NULL,NA,NA,NA,NA,NA,NA,NA,sdf,NA,0,NA,NA,NA,NA,NA,NA,NA,NA,NA,NA,NA,NA,NA,NA,NA,NA,NA,NA,NA
1cb6d,Deep Question,html.Page,3_0_1_0_0_0_0,NA,NA,form submission,6178.26,279614,279613.64,279613.74,285792,285794,2023-04-25T11:32:32Z,285790.72,NULL,Schlange,foleni,d,NA,NA,NA,udkalifu,NA,NA,1,NA,NA,NA,NA,NA,NA,NA,NA,NA,NA,NA,NA,NA,NA,NA,NA,NA,NA,NA
1cb6d,"""Richtig""-Screen",canvas.Screen,3_0_1_0_0_0_1,NA,NA,skipped,NA,285799,NA,NA,285792,285799,2023-04-25T11:32:32Z,285790.72,NULL,Schlange,foleni,d,NA,NA,NA,NA,sdfdsf,NA,1,NA,NA,NA,NA,NA,NA,NA,NA,NA,NA,NA,NA,NA,NA,NA,NA,NA,NA,NA
1cb6d,"""Falsch""-Screen",canvas.Screen,3_0_1_0_0_0_2,NA,NA,timeout,5006.48,285803,285790.56,285790.72,290781.38,290783,2023-04-25T11:32:37Z,290797.2,NULL,Schlange,foleni,d,NA,NA,NA,NA,sdfdsf,0,1,NA,NA,NA,NA,NA,NA,NA,NA,NA,NA,NA,NA,NA,NA,NA,NA,NA,NA,NA
1cb6d,deep,flow.Sequence,3_0_1_0_0_0,NA,NA,completion,11167.64,279614,279613.64,279613.74,290781.38,290784,2023-04-25T11:32:37Z,290797.2,NULL,Schlange,foleni,d,NA,NA,NA,NA,sdfdsf,NA,1,NA,NA,NA,NA,NA,NA,NA,NA,NA,NA,NA,NA,NA,NA,NA,NA,NA,NA,NA
1cb6d,shallow,flow.Sequence,3_0_1_0_0_1,NA,NA,skipped,NA,290784,NA,NA,290781.38,290784,2023-04-25T11:32:37Z,290797.2,NULL,Schlange,foleni,d,NA,NA,NA,NA,sdfdsf,NA,1,NA,NA,NA,NA,NA,NA,NA,NA,NA,NA,NA,NA,NA,NA,NA,NA,NA,NA,NA
1cb6d,task,flow.Sequence,3_0_1_0_0,NA,NA,completion,11167.64,279614,279613.64,279613.74,290781.38,290785,2023-04-25T11:32:37Z,290797.2,NULL,Schlange,foleni,d,NA,NA,NA,NA,sdfdsf,NA,1,NA,NA,NA,NA,NA,NA,NA,NA,NA,NA,NA,NA,NA,NA,NA,NA,NA,NA,NA
1cb6d,deep,flow.Sequence,3_0_1_0_1_0,NA,NA,skipped,NA,290786,NA,NA,290781.38,290786,2023-04-25T11:32:37Z,290797.2,NULL,Inhalt,yaliyomo,s,kishawishi,hifadhi,kutembea,NA,sdfdsf,NA,1,NA,NA,NA,NA,NA,NA,NA,NA,NA,NA,NA,NA,NA,NA,NA,NA,NA,NA,NA
1cb6d,Shallow Question,html.Page,3_0_1_0_1_1_0,NA,NA,form submission,7076.8,290786,290781.38,290797.2,297874,297874,2023-04-25T11:32:44Z,297873.18,NULL,Inhalt,yaliyomo,s,kishawishi,hifadhi,kutembea,yaliyomo,NA,NA,1,NA,NA,NA,NA,NA,NA,NA,NA,NA,NA,NA,NA,NA,NA,NA,NA,NA,NA,NA
1cb6d,"""Richtig""-Screen",canvas.Screen,3_0_1_0_1_1_1,NA,NA,timeout,5007.48,297875,297873.08,297873.18,302864.06,302865,2023-04-25T11:32:49Z,302880.66,NULL,Inhalt,yaliyomo,s,kishawishi,hifadhi,kutembea,NA,sdfdsf,1,1,NA,NA,NA,NA,NA,NA,NA,NA,NA,NA,NA,NA,NA,NA,NA,NA,NA,NA,NA
1cb6d,"""Falsch""-Screen",canvas.Screen,3_0_1_0_1_1_2,NA,NA,skipped,NA,302868,NA,NA,302864.06,302869,2023-04-25T11:32:49Z,302880.66,NULL,Inhalt,yaliyomo,s,kishawishi,hifadhi,kutembea,NA,sdfdsf,NA,1,NA,NA,NA,NA,NA,NA,NA,NA,NA,NA,NA,NA,NA,NA,NA,NA,NA,NA,NA
1cb6d,shallow,flow.Sequence,3_0_1_0_1_1,NA,NA,completion,12066.86,290786,290781.38,290797.2,302864.06,302869,2023-04-25T11:32:49Z,302880.66,NULL,Inhalt,yaliyomo,s,kishawishi,hifadhi,kutembea,NA,sdfdsf,NA,1,NA,NA,NA,NA,NA,NA,NA,NA,NA,NA,NA,NA,NA,NA,NA,NA,NA,NA,NA
1cb6d,task,flow.Sequence,3_0_1_0_1,NA,NA,completion,12066.86,290785,290781.38,290797.2,302864.06,302869,2023-04-25T11:32:49Z,302880.66,NULL,Inhalt,yaliyomo,s,kishawishi,hifadhi,kutembea,NA,sdfdsf,NA,1,NA,NA,NA,NA,NA,NA,NA,NA,NA,NA,NA,NA,NA,NA,NA,NA,NA,NA,NA
1cb6d,deep,flow.Sequence,3_0_1_0_2_0,NA,NA,skipped,NA,302869,NA,NA,302864.06,302869,2023-04-25T11:32:49Z,302880.66,NULL,Integrität,uadilifu,s,muungano,mtiririko,upunguaji,NA,sdfdsf,NA,1,NA,NA,NA,NA,NA,NA,NA,NA,NA,NA,NA,NA,NA,NA,NA,NA,NA,NA,NA
1cb6d,Shallow Question,html.Page,3_0_1_0_2_1_0,NA,NA,form submission,7325.34,302869,302864.06,302880.66,310206,310206,2023-04-25T11:32:57Z,310204.76,NULL,Integrität,uadilifu,s,muungano,mtiririko,upunguaji,uadilifu,NA,NA,1,NA,NA,NA,NA,NA,NA,NA,NA,NA,NA,NA,NA,NA,NA,NA,NA,NA,NA,NA
1cb6d,"""Richtig""-Screen",canvas.Screen,3_0_1_0_2_1_1,NA,NA,timeout,4992.44,310209,310204.6,310204.76,315181.08,315182,2023-04-25T11:33:02Z,315197.2,NULL,Integrität,uadilifu,s,muungano,mtiririko,upunguaji,NA,sdfdsf,1,1,NA,NA,NA,NA,NA,NA,NA,NA,NA,NA,NA,NA,NA,NA,NA,NA,NA,NA,NA
1cb6d,"""Falsch""-Screen",canvas.Screen,3_0_1_0_2_1_2,NA,NA,skipped,NA,315186,NA,NA,315181.08,315186,2023-04-25T11:33:02Z,315197.2,NULL,Integrität,uadilifu,s,muungano,mtiririko,upunguaji,NA,sdfdsf,NA,1,NA,NA,NA,NA,NA,NA,NA,NA,NA,NA,NA,NA,NA,NA,NA,NA,NA,NA,NA
1cb6d,shallow,flow.Sequence,3_0_1_0_2_1,NA,NA,completion,12300.42,302869,302864.06,302880.66,315181.08,315186,2023-04-25T11:33:02Z,315197.2,NULL,Integrität,uadilifu,s,muungano,mtiririko,upunguaji,NA,sdfdsf,NA,1,NA,NA,NA,NA,NA,NA,NA,NA,NA,NA,NA,NA,NA,NA,NA,NA,NA,NA,NA
1cb6d,task,flow.Sequence,3_0_1_0_2,NA,NA,completion,12300.42,302869,302864.06,302880.66,315181.08,315186,2023-04-25T11:33:02Z,315197.2,NULL,Integrität,uadilifu,s,muungano,mtiririko,upunguaji,NA,sdfdsf,NA,1,NA,NA,NA,NA,NA,NA,NA,NA,NA,NA,NA,NA,NA,NA,NA,NA,NA,NA,NA
1cb6d,Deep Question,html.Page,3_0_1_0_3_0_0,NA,NA,form submission,9279.8,315186,315181.08,315197.2,324477,324477,2023-04-25T11:33:11Z,324476.36,NULL,Genehmigung,idhini,d,NA,NA,NA,fulani,NA,NA,1,NA,NA,NA,NA,NA,NA,NA,NA,NA,NA,NA,NA,NA,NA,NA,NA,NA,NA,NA
1cb6d,"""Richtig""-Screen",canvas.Screen,3_0_1_0_3_0_1,NA,NA,skipped,NA,324480,NA,NA,324477,324480,2023-04-25T11:33:11Z,324476.36,NULL,Genehmigung,idhini,d,NA,NA,NA,NA,sdfdsf,NA,1,NA,NA,NA,NA,NA,NA,NA,NA,NA,NA,NA,NA,NA,NA,NA,NA,NA,NA,NA
1cb6d,"""Falsch""-Screen",canvas.Screen,3_0_1_0_3_0_2,NA,NA,timeout,5004.48,324483,324476.14,324476.36,329464.16,329465,2023-04-25T11:33:16Z,329480.84,NULL,Genehmigung,idhini,d,NA,NA,NA,NA,sdfdsf,0,1,NA,NA,NA,NA,NA,NA,NA,NA,NA,NA,NA,NA,NA,NA,NA,NA,NA,NA,NA
1cb6d,deep,flow.Sequence,3_0_1_0_3_0,NA,NA,completion,14266.96,315186,315181.08,315197.2,329464.16,329467,2023-04-25T11:33:16Z,329480.84,NULL,Genehmigung,idhini,d,NA,NA,NA,NA,sdfdsf,NA,1,NA,NA,NA,NA,NA,NA,NA,NA,NA,NA,NA,NA,NA,NA,NA,NA,NA,NA,NA
1cb6d,shallow,flow.Sequence,3_0_1_0_3_1,NA,NA,skipped,NA,329467,NA,NA,329464.16,329468,2023-04-25T11:33:16Z,329480.84,NULL,Genehmigung,idhini,d,NA,NA,NA,NA,sdfdsf,NA,1,NA,NA,NA,NA,NA,NA,NA,NA,NA,NA,NA,NA,NA,NA,NA,NA,NA,NA,NA
1cb6d,task,flow.Sequence,3_0_1_0_3,NA,NA,completion,14266.96,315186,315181.08,315197.2,329464.16,329468,2023-04-25T11:33:16Z,329480.84,NULL,Genehmigung,idhini,d,NA,NA,NA,NA,sdfdsf,NA,1,NA,NA,NA,NA,NA,NA,NA,NA,NA,NA,NA,NA,NA,NA,NA,NA,NA,NA,NA
1cb6d,deep,flow.Sequence,3_0_1_0_4_0,NA,NA,skipped,NA,329468,NA,NA,329464.16,329469,2023-04-25T11:33:16Z,329480.84,NULL,Fleisch,mshakiki,s,kizunguzungu,mshikamano,angusho,NA,sdfdsf,NA,1,NA,NA,NA,NA,NA,NA,NA,NA,NA,NA,NA,NA,NA,NA,NA,NA,NA,NA,NA
1cb6d,Shallow Question,html.Page,3_0_1_0_4_1_0,NA,NA,form submission,6723.16,329469,329464.16,329480.84,336204,336204,2023-04-25T11:33:23Z,336202.72,NULL,Fleisch,mshakiki,s,kizunguzungu,mshikamano,angusho,mshakiki,NA,NA,1,NA,NA,NA,NA,NA,NA,NA,NA,NA,NA,NA,NA,NA,NA,NA,NA,NA,NA,NA
1cb6d,"""Richtig""-Screen",canvas.Screen,3_0_1_0_4_1_1,NA,NA,timeout,4994.6,336210,336202.56,336202.72,341180.24,341181,2023-04-25T11:33:28Z,341197.32,NULL,Fleisch,mshakiki,s,kizunguzungu,mshikamano,angusho,NA,sdfdsf,1,1,NA,NA,NA,NA,NA,NA,NA,NA,NA,NA,NA,NA,NA,NA,NA,NA,NA,NA,NA
1cb6d,"""Falsch""-Screen",canvas.Screen,3_0_1_0_4_1_2,NA,NA,skipped,NA,341184,NA,NA,341180.24,341184,2023-04-25T11:33:28Z,341197.32,NULL,Fleisch,mshakiki,s,kizunguzungu,mshikamano,angusho,NA,sdfdsf,NA,1,NA,NA,NA,NA,NA,NA,NA,NA,NA,NA,NA,NA,NA,NA,NA,NA,NA,NA,NA
1cb6d,shallow,flow.Sequence,3_0_1_0_4_1,NA,NA,completion,11699.4,329469,329464.16,329480.84,341180.24,341185,2023-04-25T11:33:28Z,341197.32,NULL,Fleisch,mshakiki,s,kizunguzungu,mshikamano,angusho,NA,sdfdsf,NA,1,NA,NA,NA,NA,NA,NA,NA,NA,NA,NA,NA,NA,NA,NA,NA,NA,NA,NA,NA
1cb6d,task,flow.Sequence,3_0_1_0_4,NA,NA,completion,11699.4,329468,329464.16,329480.84,341180.24,341185,2023-04-25T11:33:28Z,341197.32,NULL,Fleisch,mshakiki,s,kizunguzungu,mshikamano,angusho,NA,sdfdsf,NA,1,NA,NA,NA,NA,NA,NA,NA,NA,NA,NA,NA,NA,NA,NA,NA,NA,NA,NA,NA
1cb6d,deep,flow.Sequence,3_0_1_0_5_0,NA,NA,skipped,NA,341186,NA,NA,341180.24,341186,2023-04-25T11:33:28Z,341197.32,NULL,Vermutung,udhanifu,s,haramia,tikisho,itifaki,NA,sdfdsf,NA,1,NA,NA,NA,NA,NA,NA,NA,NA,NA,NA,NA,NA,NA,NA,NA,NA,NA,NA,NA
1cb6d,Shallow Question,html.Page,3_0_1_0_5_1_0,NA,NA,form submission,4909.68,341186,341180.24,341197.32,346107,346107,2023-04-25T11:33:32Z,346105.7,NULL,Vermutung,udhanifu,s,haramia,tikisho,itifaki,udhanifu,NA,NA,1,NA,NA,NA,NA,NA,NA,NA,NA,NA,NA,NA,NA,NA,NA,NA,NA,NA,NA,NA
1cb6d,"""Richtig""-Screen",canvas.Screen,3_0_1_0_5_1_1,NA,NA,timeout,5008.2,346111,346105.54,346105.7,351097.22,351098,2023-04-25T11:33:37Z,351113.9,NULL,Vermutung,udhanifu,s,haramia,tikisho,itifaki,NA,sdfdsf,1,1,NA,NA,NA,NA,NA,NA,NA,NA,NA,NA,NA,NA,NA,NA,NA,NA,NA,NA,NA
1cb6d,"""Falsch""-Screen",canvas.Screen,3_0_1_0_5_1_2,NA,NA,skipped,NA,351101,NA,NA,351097.22,351101,2023-04-25T11:33:37Z,351113.9,NULL,Vermutung,udhanifu,s,haramia,tikisho,itifaki,NA,sdfdsf,NA,1,NA,NA,NA,NA,NA,NA,NA,NA,NA,NA,NA,NA,NA,NA,NA,NA,NA,NA,NA
1cb6d,shallow,flow.Sequence,3_0_1_0_5_1,NA,NA,completion,9899.9,341186,341180.24,341197.32,351097.22,351101,2023-04-25T11:33:37Z,351113.9,NULL,Vermutung,udhanifu,s,haramia,tikisho,itifaki,NA,sdfdsf,NA,1,NA,NA,NA,NA,NA,NA,NA,NA,NA,NA,NA,NA,NA,NA,NA,NA,NA,NA,NA
1cb6d,task,flow.Sequence,3_0_1_0_5,NA,NA,completion,9899.9,341186,341180.24,341197.32,351097.22,351101,2023-04-25T11:33:37Z,351113.9,NULL,Vermutung,udhanifu,s,haramia,tikisho,itifaki,NA,sdfdsf,NA,1,NA,NA,NA,NA,NA,NA,NA,NA,NA,NA,NA,NA,NA,NA,NA,NA,NA,NA,NA
1cb6d,Deep Question,html.Page,3_0_1_0_6_0_0,NA,NA,form submission,4964.1,351101,351097.22,351113.9,356078,356078,2023-04-25T11:33:42Z,356080.64,NULL,Toleranz,kuvumiliana,d,NA,NA,NA,folani,NA,NA,1,NA,NA,NA,NA,NA,NA,NA,NA,NA,NA,NA,NA,NA,NA,NA,NA,NA,NA,NA
1cb6d,"""Richtig""-Screen",canvas.Screen,3_0_1_0_6_0_1,NA,NA,skipped,NA,356080,NA,NA,356078,356081,2023-04-25T11:33:42Z,356080.64,NULL,Toleranz,kuvumiliana,d,NA,NA,NA,NA,sdfdsf,NA,1,NA,NA,NA,NA,NA,NA,NA,NA,NA,NA,NA,NA,NA,NA,NA,NA,NA,NA,NA
1cb6d,"""Falsch""-Screen",canvas.Screen,3_0_1_0_6_0_2,NA,NA,timeout,4999.82,356082,356076.2,356080.64,361063.76,361065,2023-04-25T11:33:47Z,361080.46,NULL,Toleranz,kuvumiliana,d,NA,NA,NA,NA,sdfdsf,0,1,NA,NA,NA,NA,NA,NA,NA,NA,NA,NA,NA,NA,NA,NA,NA,NA,NA,NA,NA
1cb6d,deep,flow.Sequence,3_0_1_0_6_0,NA,NA,completion,9949.86,351101,351097.22,351113.9,361063.76,361065,2023-04-25T11:33:47Z,361080.46,NULL,Toleranz,kuvumiliana,d,NA,NA,NA,NA,sdfdsf,NA,1,NA,NA,NA,NA,NA,NA,NA,NA,NA,NA,NA,NA,NA,NA,NA,NA,NA,NA,NA
1cb6d,shallow,flow.Sequence,3_0_1_0_6_1,NA,NA,skipped,NA,361065,NA,NA,361063.76,361065,2023-04-25T11:33:47Z,361080.46,NULL,Toleranz,kuvumiliana,d,NA,NA,NA,NA,sdfdsf,NA,1,NA,NA,NA,NA,NA,NA,NA,NA,NA,NA,NA,NA,NA,NA,NA,NA,NA,NA,NA
1cb6d,task,flow.Sequence,3_0_1_0_6,NA,NA,completion,9949.86,351101,351097.22,351113.9,361063.76,361065,2023-04-25T11:33:47Z,361080.46,NULL,Toleranz,kuvumiliana,d,NA,NA,NA,NA,sdfdsf,NA,1,NA,NA,NA,NA,NA,NA,NA,NA,NA,NA,NA,NA,NA,NA,NA,NA,NA,NA,NA
1cb6d,Deep Question,html.Page,3_0_1_0_7_0_0,NA,NA,form submission,5136.54,361065,361063.76,361080.46,366217,366217,2023-04-25T11:33:53Z,366216.26,NULL,Begegnung,kukutana,d,NA,NA,NA,adhalifu,NA,NA,1,NA,NA,NA,NA,NA,NA,NA,NA,NA,NA,NA,NA,NA,NA,NA,NA,NA,NA,NA
1cb6d,"""Richtig""-Screen",canvas.Screen,3_0_1_0_7_0_1,NA,NA,skipped,NA,366221,NA,NA,366217,366221,2023-04-25T11:33:53Z,366216.26,NULL,Begegnung,kukutana,d,NA,NA,NA,NA,sdfdsf,NA,1,NA,NA,NA,NA,NA,NA,NA,NA,NA,NA,NA,NA,NA,NA,NA,NA,NA,NA,NA
1cb6d,"""Falsch""-Screen",canvas.Screen,3_0_1_0_7_0_2,NA,NA,timeout,4997.14,366223,366215.94,366216.26,371196.98,371198,2023-04-25T11:33:58Z,371213.4,NULL,Begegnung,kukutana,d,NA,NA,NA,NA,sdfdsf,0,1,NA,NA,NA,NA,NA,NA,NA,NA,NA,NA,NA,NA,NA,NA,NA,NA,NA,NA,NA
1cb6d,deep,flow.Sequence,3_0_1_0_7_0,NA,NA,completion,10116.52,361065,361063.76,361080.46,371196.98,371199,2023-04-25T11:33:58Z,371213.4,NULL,Begegnung,kukutana,d,NA,NA,NA,NA,sdfdsf,NA,1,NA,NA,NA,NA,NA,NA,NA,NA,NA,NA,NA,NA,NA,NA,NA,NA,NA,NA,NA
1cb6d,shallow,flow.Sequence,3_0_1_0_7_1,NA,NA,skipped,NA,371199,NA,NA,371196.98,371199,2023-04-25T11:33:58Z,371213.4,NULL,Begegnung,kukutana,d,NA,NA,NA,NA,sdfdsf,NA,1,NA,NA,NA,NA,NA,NA,NA,NA,NA,NA,NA,NA,NA,NA,NA,NA,NA,NA,NA
1cb6d,task,flow.Sequence,3_0_1_0_7,NA,NA,completion,10116.52,361065,361063.76,361080.46,371196.98,371200,2023-04-25T11:33:58Z,371213.4,NULL,Begegnung,kukutana,d,NA,NA,NA,NA,sdfdsf,NA,1,NA,NA,NA,NA,NA,NA,NA,NA,NA,NA,NA,NA,NA,NA,NA,NA,NA,NA,NA
1cb6d,block,flow.Loop,3_0_1_0,NA,NA,completion,91583.24,279614,279613.64,279613.74,371196.98,371200,2023-04-25T11:33:58Z,371213.4,NULL,NA,NA,NA,NA,NA,NA,NA,sdfdsf,NA,1,NA,NA,NA,NA,NA,NA,NA,NA,NA,NA,NA,NA,NA,NA,NA,NA,NA,NA,NA
1cb6d,weiter,canvas.Screen,3_0_1_1,sdf,keypress(Space),response,1037.6,371200,371196.98,371213.4,372251,372256,2023-04-25T11:33:59Z,372293.76,NULL,NA,NA,NA,NA,NA,NA,NA,sdfdsf,NA,1,NA,NA,NA,NA,NA,NA,NA,NA,NA,NA,NA,NA,NA,NA,NA,NA,NA,NA,NA
1cb6d,check continue,flow.Sequence,3_0_1,NA,NA,completion,92637.26,279614,279613.64,279613.74,372251,372256,2023-04-25T11:33:59Z,372293.76,NULL,NA,NA,NA,NA,NA,NA,NA,sdfdsf,NA,1,NA,NA,NA,NA,NA,NA,NA,NA,NA,NA,NA,NA,NA,NA,NA,NA,NA,NA,NA
1cb6d,Deep Question,html.Page,3_0_2_0_0_0_0,NA,NA,form submission,8186.24,372294,372293.64,372293.76,380480,380480,2023-04-25T11:34:07Z,380479.2,NULL,Begegnung,kukutana,d,NA,NA,NA,idhiko,NA,NA,2,NA,NA,NA,NA,NA,NA,NA,NA,NA,NA,NA,NA,NA,NA,NA,NA,NA,NA,NA
1cb6d,"""Richtig""-Screen",canvas.Screen,3_0_2_0_0_0_1,NA,NA,skipped,NA,380482,NA,NA,380480,380484,2023-04-25T11:34:07Z,380479.2,NULL,Begegnung,kukutana,d,NA,NA,NA,NA,sdf,NA,2,NA,NA,NA,NA,NA,NA,NA,NA,NA,NA,NA,NA,NA,NA,NA,NA,NA,NA,NA
1cb6d,"""Falsch""-Screen",canvas.Screen,3_0_2_0_0_0_2,NA,NA,timeout,5000.94,380485,380479.08,380479.2,385463.46,385467,2023-04-25T11:34:12Z,385480.14,NULL,Begegnung,kukutana,d,NA,NA,NA,NA,sdf,0,2,NA,NA,NA,NA,NA,NA,NA,NA,NA,NA,NA,NA,NA,NA,NA,NA,NA,NA,NA
1cb6d,deep,flow.Sequence,3_0_2_0_0_0,NA,NA,completion,13169.7,372294,372293.64,372293.76,385463.46,385468,2023-04-25T11:34:12Z,385480.14,NULL,Begegnung,kukutana,d,NA,NA,NA,NA,sdf,NA,2,NA,NA,NA,NA,NA,NA,NA,NA,NA,NA,NA,NA,NA,NA,NA,NA,NA,NA,NA
1cb6d,shallow,flow.Sequence,3_0_2_0_0_1,NA,NA,skipped,NA,385469,NA,NA,385463.46,385469,2023-04-25T11:34:12Z,385480.14,NULL,Begegnung,kukutana,d,NA,NA,NA,NA,sdf,NA,2,NA,NA,NA,NA,NA,NA,NA,NA,NA,NA,NA,NA,NA,NA,NA,NA,NA,NA,NA
1cb6d,task,flow.Sequence,3_0_2_0_0,NA,NA,completion,13169.7,372294,372293.64,372293.76,385463.46,385469,2023-04-25T11:34:12Z,385480.14,NULL,Begegnung,kukutana,d,NA,NA,NA,NA,sdf,NA,2,NA,NA,NA,NA,NA,NA,NA,NA,NA,NA,NA,NA,NA,NA,NA,NA,NA,NA,NA
1cb6d,Deep Question,html.Page,3_0_2_0_1_0_0,NA,NA,form submission,3802.86,385470,385463.46,385480.14,389283,389284,2023-04-25T11:34:16Z,389296.88,NULL,Schlange,foleni,d,NA,NA,NA,folani,NA,NA,2,NA,NA,NA,NA,NA,NA,NA,NA,NA,NA,NA,NA,NA,NA,NA,NA,NA,NA,NA
1cb6d,"""Richtig""-Screen",canvas.Screen,3_0_2_0_1_0_1,NA,NA,skipped,NA,389290,NA,NA,389283,389290,2023-04-25T11:34:16Z,389296.88,NULL,Schlange,foleni,d,NA,NA,NA,NA,sdf,NA,2,NA,NA,NA,NA,NA,NA,NA,NA,NA,NA,NA,NA,NA,NA,NA,NA,NA,NA,NA
1cb6d,"""Falsch""-Screen",canvas.Screen,3_0_2_0_1_0_2,NA,NA,timeout,4999.8,389292,389282.12,389296.88,394280.02,394280,2023-04-25T11:34:21Z,394296.68,NULL,Schlange,foleni,d,NA,NA,NA,NA,sdf,0,2,NA,NA,NA,NA,NA,NA,NA,NA,NA,NA,NA,NA,NA,NA,NA,NA,NA,NA,NA
1cb6d,deep,flow.Sequence,3_0_2_0_1_0,NA,NA,completion,8799.88,385470,385463.46,385480.14,394280.02,394280,2023-04-25T11:34:21Z,394296.68,NULL,Schlange,foleni,d,NA,NA,NA,NA,sdf,NA,2,NA,NA,NA,NA,NA,NA,NA,NA,NA,NA,NA,NA,NA,NA,NA,NA,NA,NA,NA
1cb6d,shallow,flow.Sequence,3_0_2_0_1_1,NA,NA,skipped,NA,394280,NA,NA,394280.02,394280,2023-04-25T11:34:21Z,394296.68,NULL,Schlange,foleni,d,NA,NA,NA,NA,sdf,NA,2,NA,NA,NA,NA,NA,NA,NA,NA,NA,NA,NA,NA,NA,NA,NA,NA,NA,NA,NA
1cb6d,task,flow.Sequence,3_0_2_0_1,NA,NA,completion,8799.88,385470,385463.46,385480.14,394280.02,394281,2023-04-25T11:34:21Z,394296.68,NULL,Schlange,foleni,d,NA,NA,NA,NA,sdf,NA,2,NA,NA,NA,NA,NA,NA,NA,NA,NA,NA,NA,NA,NA,NA,NA,NA,NA,NA,NA
1cb6d,Deep Question,html.Page,3_0_2_0_2_0_0,NA,NA,form submission,4951.32,394281,394280.02,394296.68,399248,399249,2023-04-25T11:34:26Z,399263.44,NULL,Genehmigung,idhini,d,NA,NA,NA,kuvuliano,NA,NA,2,NA,NA,NA,NA,NA,NA,NA,NA,NA,NA,NA,NA,NA,NA,NA,NA,NA,NA,NA
1cb6d,"""Richtig""-Screen",canvas.Screen,3_0_2_0_2_0_1,NA,NA,skipped,NA,399252,NA,NA,399248,399252,2023-04-25T11:34:26Z,399263.44,NULL,Genehmigung,idhini,d,NA,NA,NA,NA,sdf,NA,2,NA,NA,NA,NA,NA,NA,NA,NA,NA,NA,NA,NA,NA,NA,NA,NA,NA,NA,NA
1cb6d,"""Falsch""-Screen",canvas.Screen,3_0_2_0_2_0_2,NA,NA,timeout,4999.82,399254,399246.9,399263.44,404245.62,404246,2023-04-25T11:34:31Z,404263.26,NULL,Genehmigung,idhini,d,NA,NA,NA,NA,sdf,0,2,NA,NA,NA,NA,NA,NA,NA,NA,NA,NA,NA,NA,NA,NA,NA,NA,NA,NA,NA
1cb6d,deep,flow.Sequence,3_0_2_0_2_0,NA,NA,completion,9948.94,394281,394280.02,394296.68,404245.62,404246,2023-04-25T11:34:31Z,404263.26,NULL,Genehmigung,idhini,d,NA,NA,NA,NA,sdf,NA,2,NA,NA,NA,NA,NA,NA,NA,NA,NA,NA,NA,NA,NA,NA,NA,NA,NA,NA,NA
1cb6d,shallow,flow.Sequence,3_0_2_0_2_1,NA,NA,skipped,NA,404246,NA,NA,404245.62,404246,2023-04-25T11:34:31Z,404263.26,NULL,Genehmigung,idhini,d,NA,NA,NA,NA,sdf,NA,2,NA,NA,NA,NA,NA,NA,NA,NA,NA,NA,NA,NA,NA,NA,NA,NA,NA,NA,NA
1cb6d,task,flow.Sequence,3_0_2_0_2,NA,NA,completion,9948.94,394281,394280.02,394296.68,404245.62,404247,2023-04-25T11:34:31Z,404263.26,NULL,Genehmigung,idhini,d,NA,NA,NA,NA,sdf,NA,2,NA,NA,NA,NA,NA,NA,NA,NA,NA,NA,NA,NA,NA,NA,NA,NA,NA,NA,NA
1cb6d,Deep Question,html.Page,3_0_2_0_3_0_0,NA,NA,form submission,5010.74,404247,404245.62,404263.26,409274,409274,2023-04-25T11:34:36Z,409272.66,NULL,Toleranz,kuvumiliana,d,NA,NA,NA,kuvuliano,NA,NA,2,NA,NA,NA,NA,NA,NA,NA,NA,NA,NA,NA,NA,NA,NA,NA,NA,NA,NA,NA
1cb6d,"""Richtig""-Screen",canvas.Screen,3_0_2_0_3_0_1,NA,NA,skipped,NA,409277,NA,NA,409274,409277,2023-04-25T11:34:36Z,409272.66,NULL,Toleranz,kuvumiliana,d,NA,NA,NA,NA,sdf,NA,2,NA,NA,NA,NA,NA,NA,NA,NA,NA,NA,NA,NA,NA,NA,NA,NA,NA,NA,NA
1cb6d,"""Falsch""-Screen",canvas.Screen,3_0_2_0_3_0_2,NA,NA,timeout,5007.1200000001,409279,409272.42,409272.66,414263.1,414264,2023-04-25T11:34:41Z,414279.78,NULL,Toleranz,kuvumiliana,d,NA,NA,NA,NA,sdf,0,2,NA,NA,NA,NA,NA,NA,NA,NA,NA,NA,NA,NA,NA,NA,NA,NA,NA,NA,NA
1cb6d,deep,flow.Sequence,3_0_2_0_3_0,NA,NA,completion,9999.84,404247,404245.62,404263.26,414263.1,414264,2023-04-25T11:34:41Z,414279.78,NULL,Toleranz,kuvumiliana,d,NA,NA,NA,NA,sdf,NA,2,NA,NA,NA,NA,NA,NA,NA,NA,NA,NA,NA,NA,NA,NA,NA,NA,NA,NA,NA
1cb6d,shallow,flow.Sequence,3_0_2_0_3_1,NA,NA,skipped,NA,414264,NA,NA,414263.1,414265,2023-04-25T11:34:41Z,414279.78,NULL,Toleranz,kuvumiliana,d,NA,NA,NA,NA,sdf,NA,2,NA,NA,NA,NA,NA,NA,NA,NA,NA,NA,NA,NA,NA,NA,NA,NA,NA,NA,NA
1cb6d,task,flow.Sequence,3_0_2_0_3,NA,NA,completion,9999.84,404247,404245.62,404263.26,414263.1,414265,2023-04-25T11:34:41Z,414279.78,NULL,Toleranz,kuvumiliana,d,NA,NA,NA,NA,sdf,NA,2,NA,NA,NA,NA,NA,NA,NA,NA,NA,NA,NA,NA,NA,NA,NA,NA,NA,NA,NA
1cb6d,deep,flow.Sequence,3_0_2_0_4_0,NA,NA,skipped,NA,414265,NA,NA,414263.1,414265,2023-04-25T11:34:41Z,414279.78,NULL,Inhalt,yaliyomo,s,kishawishi,hifadhi,kutembea,NA,sdf,NA,2,NA,NA,NA,NA,NA,NA,NA,NA,NA,NA,NA,NA,NA,NA,NA,NA,NA,NA,NA
1cb6d,Shallow Question,html.Page,3_0_2_0_4_1_0,NA,NA,form submission,8864.22,414265,414263.1,414279.78,423144,423145,2023-04-25T11:34:49Z,423142.64,NULL,Inhalt,yaliyomo,s,kishawishi,hifadhi,kutembea,hifadhi,NA,NA,2,NA,NA,NA,NA,NA,NA,NA,NA,NA,NA,NA,NA,NA,NA,NA,NA,NA,NA,NA
1cb6d,"""Richtig""-Screen",canvas.Screen,3_0_2_0_4_1_1,NA,NA,skipped,NA,423146,NA,NA,423144,423146,2023-04-25T11:34:50Z,423142.64,NULL,Inhalt,yaliyomo,s,kishawishi,hifadhi,kutembea,NA,sdf,NA,2,NA,NA,NA,NA,NA,NA,NA,NA,NA,NA,NA,NA,NA,NA,NA,NA,NA,NA,NA
1cb6d,"""Falsch""-Screen",canvas.Screen,3_0_2_0_4_1_2,NA,NA,timeout,5003.66,423147,423142.48,423142.64,428129.6,428131,2023-04-25T11:34:54Z,428146.3,NULL,Inhalt,yaliyomo,s,kishawishi,hifadhi,kutembea,NA,sdf,0,2,NA,NA,NA,NA,NA,NA,NA,NA,NA,NA,NA,NA,NA,NA,NA,NA,NA,NA,NA
1cb6d,shallow,flow.Sequence,3_0_2_0_4_1,NA,NA,completion,13849.82,414265,414263.1,414279.78,428129.6,428131,2023-04-25T11:34:54Z,428146.3,NULL,Inhalt,yaliyomo,s,kishawishi,hifadhi,kutembea,NA,sdf,NA,2,NA,NA,NA,NA,NA,NA,NA,NA,NA,NA,NA,NA,NA,NA,NA,NA,NA,NA,NA
1cb6d,task,flow.Sequence,3_0_2_0_4,NA,NA,completion,13849.82,414265,414263.1,414279.78,428129.6,428132,2023-04-25T11:34:54Z,428146.3,NULL,Inhalt,yaliyomo,s,kishawishi,hifadhi,kutembea,NA,sdf,NA,2,NA,NA,NA,NA,NA,NA,NA,NA,NA,NA,NA,NA,NA,NA,NA,NA,NA,NA,NA
1cb6d,deep,flow.Sequence,3_0_2_0_5_0,NA,NA,skipped,NA,428132,NA,NA,428129.6,428132,2023-04-25T11:34:54Z,428146.3,NULL,Fleisch,mshakiki,s,kizunguzungu,mshikamano,angusho,NA,sdf,NA,2,NA,NA,NA,NA,NA,NA,NA,NA,NA,NA,NA,NA,NA,NA,NA,NA,NA,NA,NA
1cb6d,Shallow Question,html.Page,3_0_2_0_5_1_0,NA,NA,form submission,7844.7,428133,428129.6,428146.3,435991,435992,2023-04-25T11:35:02Z,435991.04,NULL,Fleisch,mshakiki,s,kizunguzungu,mshikamano,angusho,mshikamano,NA,NA,2,NA,NA,NA,NA,NA,NA,NA,NA,NA,NA,NA,NA,NA,NA,NA,NA,NA,NA,NA
1cb6d,"""Richtig""-Screen",canvas.Screen,3_0_2_0_5_1_1,NA,NA,skipped,NA,435995,NA,NA,435991,435995,2023-04-25T11:35:02Z,435991.04,NULL,Fleisch,mshakiki,s,kizunguzungu,mshikamano,angusho,NA,sdf,NA,2,NA,NA,NA,NA,NA,NA,NA,NA,NA,NA,NA,NA,NA,NA,NA,NA,NA,NA,NA
1cb6d,"""Falsch""-Screen",canvas.Screen,3_0_2_0_5_1_2,NA,NA,timeout,5005.06,435997,435990.88,435991.04,440979.44,440981,2023-04-25T11:35:07Z,440996.1,NULL,Fleisch,mshakiki,s,kizunguzungu,mshikamano,angusho,NA,sdf,0,2,NA,NA,NA,NA,NA,NA,NA,NA,NA,NA,NA,NA,NA,NA,NA,NA,NA,NA,NA
1cb6d,shallow,flow.Sequence,3_0_2_0_5_1,NA,NA,completion,12833.14,428132,428129.6,428146.3,440979.44,440981,2023-04-25T11:35:07Z,440996.1,NULL,Fleisch,mshakiki,s,kizunguzungu,mshikamano,angusho,NA,sdf,NA,2,NA,NA,NA,NA,NA,NA,NA,NA,NA,NA,NA,NA,NA,NA,NA,NA,NA,NA,NA
1cb6d,task,flow.Sequence,3_0_2_0_5,NA,NA,completion,12833.14,428132,428129.6,428146.3,440979.44,440981,2023-04-25T11:35:07Z,440996.1,NULL,Fleisch,mshakiki,s,kizunguzungu,mshikamano,angusho,NA,sdf,NA,2,NA,NA,NA,NA,NA,NA,NA,NA,NA,NA,NA,NA,NA,NA,NA,NA,NA,NA,NA
1cb6d,deep,flow.Sequence,3_0_2_0_6_0,NA,NA,skipped,NA,440982,NA,NA,440979.44,440982,2023-04-25T11:35:07Z,440996.1,NULL,Integrität,uadilifu,s,muungano,mtiririko,upunguaji,NA,sdf,NA,2,NA,NA,NA,NA,NA,NA,NA,NA,NA,NA,NA,NA,NA,NA,NA,NA,NA,NA,NA
1cb6d,Shallow Question,html.Page,3_0_2_0_6_1_0,NA,NA,form submission,11492.9,440982,440979.44,440996.1,452489,452490,2023-04-25T11:35:19Z,452488.52,NULL,Integrität,uadilifu,s,muungano,mtiririko,upunguaji,uadilifu,NA,NA,2,NA,NA,NA,NA,NA,NA,NA,NA,NA,NA,NA,NA,NA,NA,NA,NA,NA,NA,NA
1cb6d,"""Richtig""-Screen",canvas.Screen,3_0_2_0_6_1_1,NA,NA,timeout,5006.7,452493,452488.34,452488.52,457479.34,457480,2023-04-25T11:35:24Z,457495.22,NULL,Integrität,uadilifu,s,muungano,mtiririko,upunguaji,NA,sdf,1,2,NA,NA,NA,NA,NA,NA,NA,NA,NA,NA,NA,NA,NA,NA,NA,NA,NA,NA,NA
1cb6d,"""Falsch""-Screen",canvas.Screen,3_0_2_0_6_1_2,NA,NA,skipped,NA,457484,NA,NA,457479.34,457484,2023-04-25T11:35:24Z,457495.22,NULL,Integrität,uadilifu,s,muungano,mtiririko,upunguaji,NA,sdf,NA,2,NA,NA,NA,NA,NA,NA,NA,NA,NA,NA,NA,NA,NA,NA,NA,NA,NA,NA,NA
1cb6d,shallow,flow.Sequence,3_0_2_0_6_1,NA,NA,completion,16483.24,440982,440979.44,440996.1,457479.34,457484,2023-04-25T11:35:24Z,457495.22,NULL,Integrität,uadilifu,s,muungano,mtiririko,upunguaji,NA,sdf,NA,2,NA,NA,NA,NA,NA,NA,NA,NA,NA,NA,NA,NA,NA,NA,NA,NA,NA,NA,NA
1cb6d,task,flow.Sequence,3_0_2_0_6,NA,NA,completion,16483.24,440982,440979.44,440996.1,457479.34,457484,2023-04-25T11:35:24Z,457495.22,NULL,Integrität,uadilifu,s,muungano,mtiririko,upunguaji,NA,sdf,NA,2,NA,NA,NA,NA,NA,NA,NA,NA,NA,NA,NA,NA,NA,NA,NA,NA,NA,NA,NA
1cb6d,deep,flow.Sequence,3_0_2_0_7_0,NA,NA,skipped,NA,457485,NA,NA,457479.34,457485,2023-04-25T11:35:24Z,457495.22,NULL,Vermutung,udhanifu,s,haramia,tikisho,itifaki,NA,sdf,NA,2,NA,NA,NA,NA,NA,NA,NA,NA,NA,NA,NA,NA,NA,NA,NA,NA,NA,NA,NA
1cb6d,Shallow Question,html.Page,3_0_2_0_7_1_0,NA,NA,form submission,5589.78,457485,457479.34,457495.22,463085,463085,2023-04-25T11:35:29Z,463084.12,NULL,Vermutung,udhanifu,s,haramia,tikisho,itifaki,udhanifu,NA,NA,2,NA,NA,NA,NA,NA,NA,NA,NA,NA,NA,NA,NA,NA,NA,NA,NA,NA,NA,NA
1cb6d,"""Richtig""-Screen",canvas.Screen,3_0_2_0_7_1_1,NA,NA,timeout,4994.08,463088,463083.96,463084.12,468062.42,468063,2023-04-25T11:35:34Z,468078.2,NULL,Vermutung,udhanifu,s,haramia,tikisho,itifaki,NA,sdf,1,2,NA,NA,NA,NA,NA,NA,NA,NA,NA,NA,NA,NA,NA,NA,NA,NA,NA,NA,NA
1cb6d,"""Falsch""-Screen",canvas.Screen,3_0_2_0_7_1_2,NA,NA,skipped,NA,468066,NA,NA,468062.42,468066,2023-04-25T11:35:34Z,468078.2,NULL,Vermutung,udhanifu,s,haramia,tikisho,itifaki,NA,sdf,NA,2,NA,NA,NA,NA,NA,NA,NA,NA,NA,NA,NA,NA,NA,NA,NA,NA,NA,NA,NA
1cb6d,shallow,flow.Sequence,3_0_2_0_7_1,NA,NA,completion,10567.2,457485,457479.34,457495.22,468062.42,468066,2023-04-25T11:35:34Z,468078.2,NULL,Vermutung,udhanifu,s,haramia,tikisho,itifaki,NA,sdf,NA,2,NA,NA,NA,NA,NA,NA,NA,NA,NA,NA,NA,NA,NA,NA,NA,NA,NA,NA,NA
1cb6d,task,flow.Sequence,3_0_2_0_7,NA,NA,completion,10567.2,457485,457479.34,457495.22,468062.42,468066,2023-04-25T11:35:34Z,468078.2,NULL,Vermutung,udhanifu,s,haramia,tikisho,itifaki,NA,sdf,NA,2,NA,NA,NA,NA,NA,NA,NA,NA,NA,NA,NA,NA,NA,NA,NA,NA,NA,NA,NA
1cb6d,block,flow.Loop,3_0_2_0,NA,NA,completion,95768.66,372294,372293.64,372293.76,468062.42,468066,2023-04-25T11:35:34Z,468078.2,NULL,NA,NA,NA,NA,NA,NA,NA,sdf,NA,2,NA,NA,NA,NA,NA,NA,NA,NA,NA,NA,NA,NA,NA,NA,NA,NA,NA,NA,NA
1cb6d,weiter,canvas.Screen,3_0_2_1,sdf,keypress(Space),response,1315.8,468066,468062.42,468078.2,469394,469398,2023-04-25T11:35:36Z,469435.14,NULL,NA,NA,NA,NA,NA,NA,NA,sdf,NA,2,NA,NA,NA,NA,NA,NA,NA,NA,NA,NA,NA,NA,NA,NA,NA,NA,NA,NA,NA
1cb6d,check continue,flow.Sequence,3_0_2,NA,NA,completion,97100.24,372294,372293.64,372293.76,469394,469399,2023-04-25T11:35:36Z,469435.14,NULL,NA,NA,NA,NA,NA,NA,NA,sdf,NA,2,NA,NA,NA,NA,NA,NA,NA,NA,NA,NA,NA,NA,NA,NA,NA,NA,NA,NA,NA
1cb6d,Deep Question,html.Page,3_0_3_0_0_0_0,NA,NA,form submission,6959.86,469435,469435.04,469435.14,476395,476396,2023-04-25T11:35:43Z,476395.78,NULL,Genehmigung,idhini,d,NA,NA,NA,idhiko,NA,NA,3,NA,NA,NA,NA,NA,NA,NA,NA,NA,NA,NA,NA,NA,NA,NA,NA,NA,NA,NA
1cb6d,"""Richtig""-Screen",canvas.Screen,3_0_3_0_0_0_1,NA,NA,skipped,NA,476403,NA,NA,476395,476403,2023-04-25T11:35:43Z,476395.78,NULL,Genehmigung,idhini,d,NA,NA,NA,NA,qt,NA,3,NA,NA,NA,NA,NA,NA,NA,NA,NA,NA,NA,NA,NA,NA,NA,NA,NA,NA,NA
1cb6d,"""Falsch""-Screen",canvas.Screen,3_0_3_0_0_0_2,NA,NA,timeout,4999.86,476404,476392.96,476395.78,481378.92,481380,2023-04-25T11:35:48Z,481395.64,NULL,Genehmigung,idhini,d,NA,NA,NA,NA,qt,0,3,NA,NA,NA,NA,NA,NA,NA,NA,NA,NA,NA,NA,NA,NA,NA,NA,NA,NA,NA
1cb6d,deep,flow.Sequence,3_0_3_0_0_0,NA,NA,completion,11943.78,469435,469435.04,469435.14,481378.92,481380,2023-04-25T11:35:48Z,481395.64,NULL,Genehmigung,idhini,d,NA,NA,NA,NA,qt,NA,3,NA,NA,NA,NA,NA,NA,NA,NA,NA,NA,NA,NA,NA,NA,NA,NA,NA,NA,NA
1cb6d,shallow,flow.Sequence,3_0_3_0_0_1,NA,NA,skipped,NA,481381,NA,NA,481378.92,481381,2023-04-25T11:35:48Z,481395.64,NULL,Genehmigung,idhini,d,NA,NA,NA,NA,qt,NA,3,NA,NA,NA,NA,NA,NA,NA,NA,NA,NA,NA,NA,NA,NA,NA,NA,NA,NA,NA
1cb6d,task,flow.Sequence,3_0_3_0_0,NA,NA,completion,11943.78,469435,469435.04,469435.14,481378.92,481381,2023-04-25T11:35:48Z,481395.64,NULL,Genehmigung,idhini,d,NA,NA,NA,NA,qt,NA,3,NA,NA,NA,NA,NA,NA,NA,NA,NA,NA,NA,NA,NA,NA,NA,NA,NA,NA,NA
1cb6d,Deep Question,html.Page,3_0_3_0_1_0_0,NA,NA,form submission,5948.36,481382,481378.92,481395.64,487344,487345,2023-04-25T11:35:54Z,487345.66,NULL,Toleranz,kuvumiliana,d,NA,NA,NA,kuvuliamo,NA,NA,3,NA,NA,NA,NA,NA,NA,NA,NA,NA,NA,NA,NA,NA,NA,NA,NA,NA,NA,NA
1cb6d,"""Richtig""-Screen",canvas.Screen,3_0_3_0_1_0_1,NA,NA,skipped,NA,487347,NA,NA,487344,487347,2023-04-25T11:35:54Z,487345.66,NULL,Toleranz,kuvumiliana,d,NA,NA,NA,NA,qt,NA,3,NA,NA,NA,NA,NA,NA,NA,NA,NA,NA,NA,NA,NA,NA,NA,NA,NA,NA,NA
1cb6d,"""Falsch""-Screen",canvas.Screen,3_0_3_0_1_0_2,NA,NA,timeout,4999.86,487349,487342.52,487345.66,492328.84,492330,2023-04-25T11:35:59Z,492345.52,NULL,Toleranz,kuvumiliana,d,NA,NA,NA,NA,qt,0,3,NA,NA,NA,NA,NA,NA,NA,NA,NA,NA,NA,NA,NA,NA,NA,NA,NA,NA,NA
1cb6d,deep,flow.Sequence,3_0_3_0_1_0,NA,NA,completion,10933.2,481382,481378.92,481395.64,492328.84,492331,2023-04-25T11:35:59Z,492345.52,NULL,Toleranz,kuvumiliana,d,NA,NA,NA,NA,qt,NA,3,NA,NA,NA,NA,NA,NA,NA,NA,NA,NA,NA,NA,NA,NA,NA,NA,NA,NA,NA
1cb6d,shallow,flow.Sequence,3_0_3_0_1_1,NA,NA,skipped,NA,492331,NA,NA,492328.84,492331,2023-04-25T11:35:59Z,492345.52,NULL,Toleranz,kuvumiliana,d,NA,NA,NA,NA,qt,NA,3,NA,NA,NA,NA,NA,NA,NA,NA,NA,NA,NA,NA,NA,NA,NA,NA,NA,NA,NA
1cb6d,task,flow.Sequence,3_0_3_0_1,NA,NA,completion,10933.2,481382,481378.92,481395.64,492328.84,492333,2023-04-25T11:35:59Z,492345.52,NULL,Toleranz,kuvumiliana,d,NA,NA,NA,NA,qt,NA,3,NA,NA,NA,NA,NA,NA,NA,NA,NA,NA,NA,NA,NA,NA,NA,NA,NA,NA,NA
1cb6d,deep,flow.Sequence,3_0_3_0_2_0,NA,NA,skipped,NA,492333,NA,NA,492328.84,492333,2023-04-25T11:35:59Z,492345.52,NULL,Integrität,uadilifu,s,muungano,mtiririko,upunguaji,NA,qt,NA,3,NA,NA,NA,NA,NA,NA,NA,NA,NA,NA,NA,NA,NA,NA,NA,NA,NA,NA,NA
1cb6d,Shallow Question,html.Page,3_0_3_0_2_1_0,NA,NA,form submission,5318.48,492333,492328.84,492345.52,497664,497664,2023-04-25T11:36:04Z,497662.6,NULL,Integrität,uadilifu,s,muungano,mtiririko,upunguaji,uadilifu,NA,NA,3,NA,NA,NA,NA,NA,NA,NA,NA,NA,NA,NA,NA,NA,NA,NA,NA,NA,NA,NA
1cb6d,"""Richtig""-Screen",canvas.Screen,3_0_3_0_2_1_1,NA,NA,timeout,4999.4,497667,497662.42,497662.6,502645.34,502646,2023-04-25T11:36:09Z,502662,NULL,Integrität,uadilifu,s,muungano,mtiririko,upunguaji,NA,qt,1,3,NA,NA,NA,NA,NA,NA,NA,NA,NA,NA,NA,NA,NA,NA,NA,NA,NA,NA,NA
1cb6d,"""Falsch""-Screen",canvas.Screen,3_0_3_0_2_1_2,NA,NA,skipped,NA,502650,NA,NA,502645.34,502650,2023-04-25T11:36:09Z,502662,NULL,Integrität,uadilifu,s,muungano,mtiririko,upunguaji,NA,qt,NA,3,NA,NA,NA,NA,NA,NA,NA,NA,NA,NA,NA,NA,NA,NA,NA,NA,NA,NA,NA
1cb6d,shallow,flow.Sequence,3_0_3_0_2_1,NA,NA,completion,10299.82,492333,492328.84,492345.52,502645.34,502650,2023-04-25T11:36:09Z,502662,NULL,Integrität,uadilifu,s,muungano,mtiririko,upunguaji,NA,qt,NA,3,NA,NA,NA,NA,NA,NA,NA,NA,NA,NA,NA,NA,NA,NA,NA,NA,NA,NA,NA
1cb6d,task,flow.Sequence,3_0_3_0_2,NA,NA,completion,10299.82,492333,492328.84,492345.52,502645.34,502651,2023-04-25T11:36:09Z,502662,NULL,Integrität,uadilifu,s,muungano,mtiririko,upunguaji,NA,qt,NA,3,NA,NA,NA,NA,NA,NA,NA,NA,NA,NA,NA,NA,NA,NA,NA,NA,NA,NA,NA
1cb6d,deep,flow.Sequence,3_0_3_0_3_0,NA,NA,skipped,NA,502651,NA,NA,502645.34,502651,2023-04-25T11:36:09Z,502662,NULL,Fleisch,mshakiki,s,kizunguzungu,mshikamano,angusho,NA,qt,NA,3,NA,NA,NA,NA,NA,NA,NA,NA,NA,NA,NA,NA,NA,NA,NA,NA,NA,NA,NA
1cb6d,Shallow Question,html.Page,3_0_3_0_3_1_0,NA,NA,form submission,3447,502651,502645.34,502662,506109,506109,2023-04-25T11:36:12Z,506108.92,NULL,Fleisch,mshakiki,s,kizunguzungu,mshikamano,angusho,mshakiki,NA,NA,3,NA,NA,NA,NA,NA,NA,NA,NA,NA,NA,NA,NA,NA,NA,NA,NA,NA,NA,NA
1cb6d,"""Richtig""-Screen",canvas.Screen,3_0_3_0_3_1_1,NA,NA,timeout,5002.98,506111,506108.84,506108.92,511095.22,511097,2023-04-25T11:36:17Z,511111.9,NULL,Fleisch,mshakiki,s,kizunguzungu,mshikamano,angusho,NA,qt,1,3,NA,NA,NA,NA,NA,NA,NA,NA,NA,NA,NA,NA,NA,NA,NA,NA,NA,NA,NA
1cb6d,"""Falsch""-Screen",canvas.Screen,3_0_3_0_3_1_2,NA,NA,skipped,NA,511104,NA,NA,511095.22,511104,2023-04-25T11:36:17Z,511111.9,NULL,Fleisch,mshakiki,s,kizunguzungu,mshikamano,angusho,NA,qt,NA,3,NA,NA,NA,NA,NA,NA,NA,NA,NA,NA,NA,NA,NA,NA,NA,NA,NA,NA,NA
1cb6d,shallow,flow.Sequence,3_0_3_0_3_1,NA,NA,completion,8433.22,502651,502645.34,502662,511095.22,511105,2023-04-25T11:36:17Z,511111.9,NULL,Fleisch,mshakiki,s,kizunguzungu,mshikamano,angusho,NA,qt,NA,3,NA,NA,NA,NA,NA,NA,NA,NA,NA,NA,NA,NA,NA,NA,NA,NA,NA,NA,NA
1cb6d,task,flow.Sequence,3_0_3_0_3,NA,NA,completion,8433.22,502651,502645.34,502662,511095.22,511105,2023-04-25T11:36:17Z,511111.9,NULL,Fleisch,mshakiki,s,kizunguzungu,mshikamano,angusho,NA,qt,NA,3,NA,NA,NA,NA,NA,NA,NA,NA,NA,NA,NA,NA,NA,NA,NA,NA,NA,NA,NA
1cb6d,deep,flow.Sequence,3_0_3_0_4_0,NA,NA,skipped,NA,511105,NA,NA,511095.22,511105,2023-04-25T11:36:17Z,511111.9,NULL,Inhalt,yaliyomo,s,kishawishi,hifadhi,kutembea,NA,qt,NA,3,NA,NA,NA,NA,NA,NA,NA,NA,NA,NA,NA,NA,NA,NA,NA,NA,NA,NA,NA
1cb6d,Shallow Question,html.Page,3_0_3_0_4_1_0,NA,NA,form submission,3271.1,511106,511095.22,511111.9,514383,514384,2023-04-25T11:36:21Z,514381.88,NULL,Inhalt,yaliyomo,s,kishawishi,hifadhi,kutembea,yaliyomo,NA,NA,3,NA,NA,NA,NA,NA,NA,NA,NA,NA,NA,NA,NA,NA,NA,NA,NA,NA,NA,NA
1cb6d,"""Richtig""-Screen",canvas.Screen,3_0_3_0_4_1_1,NA,NA,timeout,4996.58,514387,514381.72,514381.88,519361.78,519362,2023-04-25T11:36:26Z,519378.46,NULL,Inhalt,yaliyomo,s,kishawishi,hifadhi,kutembea,NA,qt,1,3,NA,NA,NA,NA,NA,NA,NA,NA,NA,NA,NA,NA,NA,NA,NA,NA,NA,NA,NA
1cb6d,"""Falsch""-Screen",canvas.Screen,3_0_3_0_4_1_2,NA,NA,skipped,NA,519366,NA,NA,519361.78,519366,2023-04-25T11:36:26Z,519378.46,NULL,Inhalt,yaliyomo,s,kishawishi,hifadhi,kutembea,NA,qt,NA,3,NA,NA,NA,NA,NA,NA,NA,NA,NA,NA,NA,NA,NA,NA,NA,NA,NA,NA,NA
1cb6d,shallow,flow.Sequence,3_0_3_0_4_1,NA,NA,completion,8249.88,511106,511095.22,511111.9,519361.78,519366,2023-04-25T11:36:26Z,519378.46,NULL,Inhalt,yaliyomo,s,kishawishi,hifadhi,kutembea,NA,qt,NA,3,NA,NA,NA,NA,NA,NA,NA,NA,NA,NA,NA,NA,NA,NA,NA,NA,NA,NA,NA
1cb6d,task,flow.Sequence,3_0_3_0_4,NA,NA,completion,8249.88,511105,511095.22,511111.9,519361.78,519366,2023-04-25T11:36:26Z,519378.46,NULL,Inhalt,yaliyomo,s,kishawishi,hifadhi,kutembea,NA,qt,NA,3,NA,NA,NA,NA,NA,NA,NA,NA,NA,NA,NA,NA,NA,NA,NA,NA,NA,NA,NA
1cb6d,deep,flow.Sequence,3_0_3_0_5_0,NA,NA,skipped,NA,519366,NA,NA,519361.78,519368,2023-04-25T11:36:26Z,519378.46,NULL,Vermutung,udhanifu,s,haramia,tikisho,itifaki,NA,qt,NA,3,NA,NA,NA,NA,NA,NA,NA,NA,NA,NA,NA,NA,NA,NA,NA,NA,NA,NA,NA
1cb6d,Shallow Question,html.Page,3_0_3_0_5_1_0,NA,NA,form submission,4700.54,519368,519361.78,519378.46,524079,524079,2023-04-25T11:36:30Z,524077.86,NULL,Vermutung,udhanifu,s,haramia,tikisho,itifaki,udhanifu,NA,NA,3,NA,NA,NA,NA,NA,NA,NA,NA,NA,NA,NA,NA,NA,NA,NA,NA,NA,NA,NA
1cb6d,"""Richtig""-Screen",canvas.Screen,3_0_3_0_5_1_1,NA,NA,timeout,5000.54,524082,524077.72,524077.86,529061.72,529062,2023-04-25T11:36:35Z,529078.4,NULL,Vermutung,udhanifu,s,haramia,tikisho,itifaki,NA,qt,1,3,NA,NA,NA,NA,NA,NA,NA,NA,NA,NA,NA,NA,NA,NA,NA,NA,NA,NA,NA
1cb6d,"""Falsch""-Screen",canvas.Screen,3_0_3_0_5_1_2,NA,NA,skipped,NA,529067,NA,NA,529061.72,529067,2023-04-25T11:36:35Z,529078.4,NULL,Vermutung,udhanifu,s,haramia,tikisho,itifaki,NA,qt,NA,3,NA,NA,NA,NA,NA,NA,NA,NA,NA,NA,NA,NA,NA,NA,NA,NA,NA,NA,NA
1cb6d,shallow,flow.Sequence,3_0_3_0_5_1,NA,NA,completion,9683.26,519368,519361.78,519378.46,529061.72,529067,2023-04-25T11:36:35Z,529078.4,NULL,Vermutung,udhanifu,s,haramia,tikisho,itifaki,NA,qt,NA,3,NA,NA,NA,NA,NA,NA,NA,NA,NA,NA,NA,NA,NA,NA,NA,NA,NA,NA,NA
1cb6d,task,flow.Sequence,3_0_3_0_5,NA,NA,completion,9683.26,519366,519361.78,519378.46,529061.72,529067,2023-04-25T11:36:35Z,529078.4,NULL,Vermutung,udhanifu,s,haramia,tikisho,itifaki,NA,qt,NA,3,NA,NA,NA,NA,NA,NA,NA,NA,NA,NA,NA,NA,NA,NA,NA,NA,NA,NA,NA
1cb6d,Deep Question,html.Page,3_0_3_0_6_0_0,NA,NA,form submission,5195.6,529067,529061.72,529078.4,534274,534276,2023-04-25T11:36:41Z,534278.4,NULL,Begegnung,kukutana,d,NA,NA,NA,ilhiko,NA,NA,3,NA,NA,NA,NA,NA,NA,NA,NA,NA,NA,NA,NA,NA,NA,NA,NA,NA,NA,NA
1cb6d,"""Richtig""-Screen",canvas.Screen,3_0_3_0_6_0_1,NA,NA,skipped,NA,534281,NA,NA,534274,534282,2023-04-25T11:36:41Z,534278.4,NULL,Begegnung,kukutana,d,NA,NA,NA,NA,qt,NA,3,NA,NA,NA,NA,NA,NA,NA,NA,NA,NA,NA,NA,NA,NA,NA,NA,NA,NA,NA
1cb6d,"""Falsch""-Screen",canvas.Screen,3_0_3_0_6_0_2,NA,NA,timeout,4999.86,534285,534272.32,534278.4,539261.56,539263,2023-04-25T11:36:46Z,539278.26,NULL,Begegnung,kukutana,d,NA,NA,NA,NA,qt,0,3,NA,NA,NA,NA,NA,NA,NA,NA,NA,NA,NA,NA,NA,NA,NA,NA,NA,NA,NA
1cb6d,deep,flow.Sequence,3_0_3_0_6_0,NA,NA,completion,10183.16,529067,529061.72,529078.4,539261.56,539264,2023-04-25T11:36:46Z,539278.26,NULL,Begegnung,kukutana,d,NA,NA,NA,NA,qt,NA,3,NA,NA,NA,NA,NA,NA,NA,NA,NA,NA,NA,NA,NA,NA,NA,NA,NA,NA,NA
1cb6d,shallow,flow.Sequence,3_0_3_0_6_1,NA,NA,skipped,NA,539265,NA,NA,539261.56,539265,2023-04-25T11:36:46Z,539278.26,NULL,Begegnung,kukutana,d,NA,NA,NA,NA,qt,NA,3,NA,NA,NA,NA,NA,NA,NA,NA,NA,NA,NA,NA,NA,NA,NA,NA,NA,NA,NA
1cb6d,task,flow.Sequence,3_0_3_0_6,NA,NA,completion,10183.16,529067,529061.72,529078.4,539261.56,539266,2023-04-25T11:36:46Z,539278.26,NULL,Begegnung,kukutana,d,NA,NA,NA,NA,qt,NA,3,NA,NA,NA,NA,NA,NA,NA,NA,NA,NA,NA,NA,NA,NA,NA,NA,NA,NA,NA
1cb6d,Deep Question,html.Page,3_0_3_0_7_0_0,NA,NA,form submission,4756.74,539266,539261.56,539278.26,544035,544036,2023-04-25T11:36:50Z,544044.96,NULL,Schlange,foleni,d,NA,NA,NA,foleni,NA,NA,3,NA,NA,NA,NA,NA,NA,NA,NA,NA,NA,NA,NA,NA,NA,NA,NA,NA,NA,NA
1cb6d,"""Richtig""-Screen",canvas.Screen,3_0_3_0_7_0_1,NA,NA,timeout,4999.9400000001,544039,544033.8,544044.96,549028.22,549029,2023-04-25T11:36:55Z,549044.9,NULL,Schlange,foleni,d,NA,NA,NA,NA,qt,1,3,NA,NA,NA,NA,NA,NA,NA,NA,NA,NA,NA,NA,NA,NA,NA,NA,NA,NA,NA
1cb6d,"""Falsch""-Screen",canvas.Screen,3_0_3_0_7_0_2,NA,NA,skipped,NA,549032,NA,NA,549028.22,549032,2023-04-25T11:36:55Z,549044.9,NULL,Schlange,foleni,d,NA,NA,NA,NA,qt,NA,3,NA,NA,NA,NA,NA,NA,NA,NA,NA,NA,NA,NA,NA,NA,NA,NA,NA,NA,NA
1cb6d,deep,flow.Sequence,3_0_3_0_7_0,NA,NA,completion,9749.96,539266,539261.56,539278.26,549028.22,549032,2023-04-25T11:36:55Z,549044.9,NULL,Schlange,foleni,d,NA,NA,NA,NA,qt,NA,3,NA,NA,NA,NA,NA,NA,NA,NA,NA,NA,NA,NA,NA,NA,NA,NA,NA,NA,NA
1cb6d,shallow,flow.Sequence,3_0_3_0_7_1,NA,NA,skipped,NA,549032,NA,NA,549028.22,549032,2023-04-25T11:36:55Z,549044.9,NULL,Schlange,foleni,d,NA,NA,NA,NA,qt,NA,3,NA,NA,NA,NA,NA,NA,NA,NA,NA,NA,NA,NA,NA,NA,NA,NA,NA,NA,NA
1cb6d,task,flow.Sequence,3_0_3_0_7,NA,NA,completion,9749.96,539266,539261.56,539278.26,549028.22,549033,2023-04-25T11:36:55Z,549044.9,NULL,Schlange,foleni,d,NA,NA,NA,NA,qt,NA,3,NA,NA,NA,NA,NA,NA,NA,NA,NA,NA,NA,NA,NA,NA,NA,NA,NA,NA,NA
1cb6d,block,flow.Loop,3_0_3_0,NA,NA,completion,79593.08,469435,469435.04,469435.14,549028.22,549033,2023-04-25T11:36:55Z,549044.9,NULL,NA,NA,NA,NA,NA,NA,NA,qt,NA,3,NA,NA,NA,NA,NA,NA,NA,NA,NA,NA,NA,NA,NA,NA,NA,NA,NA,NA,NA
1cb6d,weiter,canvas.Screen,3_0_3_1,sdf,keypress(Space),response,1184.1,549033,549028.22,549044.9,550229,550233,2023-04-25T11:36:57Z,550271.32,NULL,NA,NA,NA,NA,NA,NA,NA,qt,NA,3,NA,NA,NA,NA,NA,NA,NA,NA,NA,NA,NA,NA,NA,NA,NA,NA,NA,NA,NA
1cb6d,check continue,flow.Sequence,3_0_3,NA,NA,completion,80793.86,469435,469435.04,469435.14,550229,550233,2023-04-25T11:36:57Z,550271.32,NULL,NA,NA,NA,NA,NA,NA,NA,qt,NA,3,NA,NA,NA,NA,NA,NA,NA,NA,NA,NA,NA,NA,NA,NA,NA,NA,NA,NA,NA
1cb6d,Deep Question,html.Page,3_0_4_0_0_0_0,NA,NA,form submission,3764.6800000001,550271,550271.22,550271.32,554036,554036,2023-04-25T11:37:00Z,554034.76,NULL,Schlange,foleni,d,NA,NA,NA,foleni,NA,NA,4,NA,NA,NA,NA,NA,NA,NA,NA,NA,NA,NA,NA,NA,NA,NA,NA,NA,NA,NA
1cb6d,"""Richtig""-Screen",canvas.Screen,3_0_4_0_0_0_1,NA,NA,timeout,4993.22,554038,554034.62,554034.76,559011.3,559012,2023-04-25T11:37:05Z,559027.98,NULL,Schlange,foleni,d,NA,NA,NA,NA,sd,1,4,NA,NA,NA,NA,NA,NA,NA,NA,NA,NA,NA,NA,NA,NA,NA,NA,NA,NA,NA
1cb6d,"""Falsch""-Screen",canvas.Screen,3_0_4_0_0_0_2,NA,NA,skipped,NA,559015,NA,NA,559011.3,559015,2023-04-25T11:37:05Z,559027.98,NULL,Schlange,foleni,d,NA,NA,NA,NA,sd,NA,4,NA,NA,NA,NA,NA,NA,NA,NA,NA,NA,NA,NA,NA,NA,NA,NA,NA,NA,NA
1cb6d,deep,flow.Sequence,3_0_4_0_0_0,NA,NA,completion,8739.9800000001,550271,550271.22,550271.32,559011.3,559016,2023-04-25T11:37:05Z,559027.98,NULL,Schlange,foleni,d,NA,NA,NA,NA,sd,NA,4,NA,NA,NA,NA,NA,NA,NA,NA,NA,NA,NA,NA,NA,NA,NA,NA,NA,NA,NA
1cb6d,shallow,flow.Sequence,3_0_4_0_0_1,NA,NA,skipped,NA,559016,NA,NA,559011.3,559016,2023-04-25T11:37:05Z,559027.98,NULL,Schlange,foleni,d,NA,NA,NA,NA,sd,NA,4,NA,NA,NA,NA,NA,NA,NA,NA,NA,NA,NA,NA,NA,NA,NA,NA,NA,NA,NA
1cb6d,task,flow.Sequence,3_0_4_0_0,NA,NA,completion,8739.9800000001,550271,550271.22,550271.32,559011.3,559016,2023-04-25T11:37:05Z,559027.98,NULL,Schlange,foleni,d,NA,NA,NA,NA,sd,NA,4,NA,NA,NA,NA,NA,NA,NA,NA,NA,NA,NA,NA,NA,NA,NA,NA,NA,NA,NA
1cb6d,Deep Question,html.Page,3_0_4_0_1_0_0,NA,NA,form submission,9657.02,559016,559011.3,559027.98,568685,568685,2023-04-25T11:37:15Z,568694.66,NULL,Toleranz,kuvumiliana,d,NA,NA,NA,kuvuliamo,NA,NA,4,NA,NA,NA,NA,NA,NA,NA,NA,NA,NA,NA,NA,NA,NA,NA,NA,NA,NA,NA
1cb6d,"""Richtig""-Screen",canvas.Screen,3_0_4_0_1_0_1,NA,NA,skipped,NA,568688,NA,NA,568685,568688,2023-04-25T11:37:15Z,568694.66,NULL,Toleranz,kuvumiliana,d,NA,NA,NA,NA,sd,NA,4,NA,NA,NA,NA,NA,NA,NA,NA,NA,NA,NA,NA,NA,NA,NA,NA,NA,NA,NA
1cb6d,"""Falsch""-Screen",canvas.Screen,3_0_4_0_1_0_2,NA,NA,timeout,4999.8199999999,568690,568683.62,568694.66,573677.82,573678,2023-04-25T11:37:20Z,573694.48,NULL,Toleranz,kuvumiliana,d,NA,NA,NA,NA,sd,0,4,NA,NA,NA,NA,NA,NA,NA,NA,NA,NA,NA,NA,NA,NA,NA,NA,NA,NA,NA
1cb6d,deep,flow.Sequence,3_0_4_0_1_0,NA,NA,completion,14649.84,559016,559011.3,559027.98,573677.82,573679,2023-04-25T11:37:20Z,573694.48,NULL,Toleranz,kuvumiliana,d,NA,NA,NA,NA,sd,NA,4,NA,NA,NA,NA,NA,NA,NA,NA,NA,NA,NA,NA,NA,NA,NA,NA,NA,NA,NA
1cb6d,shallow,flow.Sequence,3_0_4_0_1_1,NA,NA,skipped,NA,573679,NA,NA,573677.82,573679,2023-04-25T11:37:20Z,573694.48,NULL,Toleranz,kuvumiliana,d,NA,NA,NA,NA,sd,NA,4,NA,NA,NA,NA,NA,NA,NA,NA,NA,NA,NA,NA,NA,NA,NA,NA,NA,NA,NA
1cb6d,task,flow.Sequence,3_0_4_0_1,NA,NA,completion,14649.84,559016,559011.3,559027.98,573677.82,573679,2023-04-25T11:37:20Z,573694.48,NULL,Toleranz,kuvumiliana,d,NA,NA,NA,NA,sd,NA,4,NA,NA,NA,NA,NA,NA,NA,NA,NA,NA,NA,NA,NA,NA,NA,NA,NA,NA,NA
1cb6d,deep,flow.Sequence,3_0_4_0_2_0,NA,NA,skipped,NA,573680,NA,NA,573677.82,573680,2023-04-25T11:37:20Z,573694.48,NULL,Fleisch,mshakiki,s,kizunguzungu,mshikamano,angusho,NA,sd,NA,4,NA,NA,NA,NA,NA,NA,NA,NA,NA,NA,NA,NA,NA,NA,NA,NA,NA,NA,NA
1cb6d,Shallow Question,html.Page,3_0_4_0_2_1_0,NA,NA,form submission,4057.52,573680,573677.82,573694.48,577752,577753,2023-04-25T11:37:24Z,577750.94,NULL,Fleisch,mshakiki,s,kizunguzungu,mshikamano,angusho,mshakiki,NA,NA,4,NA,NA,NA,NA,NA,NA,NA,NA,NA,NA,NA,NA,NA,NA,NA,NA,NA,NA,NA
1cb6d,"""Richtig""-Screen",canvas.Screen,3_0_4_0_2_1_1,NA,NA,timeout,4993.54,577754,577750.8,577750.94,582727.6,582728,2023-04-25T11:37:29Z,582744.48,NULL,Fleisch,mshakiki,s,kizunguzungu,mshikamano,angusho,NA,sd,1,4,NA,NA,NA,NA,NA,NA,NA,NA,NA,NA,NA,NA,NA,NA,NA,NA,NA,NA,NA
1cb6d,"""Falsch""-Screen",canvas.Screen,3_0_4_0_2_1_2,NA,NA,skipped,NA,582732,NA,NA,582727.6,582732,2023-04-25T11:37:29Z,582744.48,NULL,Fleisch,mshakiki,s,kizunguzungu,mshikamano,angusho,NA,sd,NA,4,NA,NA,NA,NA,NA,NA,NA,NA,NA,NA,NA,NA,NA,NA,NA,NA,NA,NA,NA
1cb6d,shallow,flow.Sequence,3_0_4_0_2_1,NA,NA,completion,9033.12,573680,573677.82,573694.48,582727.6,582732,2023-04-25T11:37:29Z,582744.48,NULL,Fleisch,mshakiki,s,kizunguzungu,mshikamano,angusho,NA,sd,NA,4,NA,NA,NA,NA,NA,NA,NA,NA,NA,NA,NA,NA,NA,NA,NA,NA,NA,NA,NA
1cb6d,task,flow.Sequence,3_0_4_0_2,NA,NA,completion,9033.12,573680,573677.82,573694.48,582727.6,582732,2023-04-25T11:37:29Z,582744.48,NULL,Fleisch,mshakiki,s,kizunguzungu,mshikamano,angusho,NA,sd,NA,4,NA,NA,NA,NA,NA,NA,NA,NA,NA,NA,NA,NA,NA,NA,NA,NA,NA,NA,NA
1cb6d,deep,flow.Sequence,3_0_4_0_3_0,NA,NA,skipped,NA,582732,NA,NA,582727.6,582733,2023-04-25T11:37:29Z,582744.48,NULL,Vermutung,udhanifu,s,haramia,tikisho,itifaki,NA,sd,NA,4,NA,NA,NA,NA,NA,NA,NA,NA,NA,NA,NA,NA,NA,NA,NA,NA,NA,NA,NA
1cb6d,Shallow Question,html.Page,3_0_4_0_3_1_0,NA,NA,form submission,4659.52,582733,582727.6,582744.48,587404,587405,2023-04-25T11:37:34Z,587404,NULL,Vermutung,udhanifu,s,haramia,tikisho,itifaki,udhanifu,NA,NA,4,NA,NA,NA,NA,NA,NA,NA,NA,NA,NA,NA,NA,NA,NA,NA,NA,NA,NA,NA
1cb6d,"""Richtig""-Screen",canvas.Screen,3_0_4_0_3_1_1,NA,NA,timeout,5006.98,587408,587403.82,587404,592394.3,592395,2023-04-25T11:37:39Z,592410.98,NULL,Vermutung,udhanifu,s,haramia,tikisho,itifaki,NA,sd,1,4,NA,NA,NA,NA,NA,NA,NA,NA,NA,NA,NA,NA,NA,NA,NA,NA,NA,NA,NA
1cb6d,"""Falsch""-Screen",canvas.Screen,3_0_4_0_3_1_2,NA,NA,skipped,NA,592399,NA,NA,592394.3,592399,2023-04-25T11:37:39Z,592410.98,NULL,Vermutung,udhanifu,s,haramia,tikisho,itifaki,NA,sd,NA,4,NA,NA,NA,NA,NA,NA,NA,NA,NA,NA,NA,NA,NA,NA,NA,NA,NA,NA,NA
1cb6d,shallow,flow.Sequence,3_0_4_0_3_1,NA,NA,completion,9649.8200000001,582733,582727.6,582744.48,592394.3,592399,2023-04-25T11:37:39Z,592410.98,NULL,Vermutung,udhanifu,s,haramia,tikisho,itifaki,NA,sd,NA,4,NA,NA,NA,NA,NA,NA,NA,NA,NA,NA,NA,NA,NA,NA,NA,NA,NA,NA,NA
1cb6d,task,flow.Sequence,3_0_4_0_3,NA,NA,completion,9649.8200000001,582732,582727.6,582744.48,592394.3,592399,2023-04-25T11:37:39Z,592410.98,NULL,Vermutung,udhanifu,s,haramia,tikisho,itifaki,NA,sd,NA,4,NA,NA,NA,NA,NA,NA,NA,NA,NA,NA,NA,NA,NA,NA,NA,NA,NA,NA,NA
1cb6d,deep,flow.Sequence,3_0_4_0_4_0,NA,NA,skipped,NA,592399,NA,NA,592394.3,592399,2023-04-25T11:37:39Z,592410.98,NULL,Inhalt,yaliyomo,s,kishawishi,hifadhi,kutembea,NA,sd,NA,4,NA,NA,NA,NA,NA,NA,NA,NA,NA,NA,NA,NA,NA,NA,NA,NA,NA,NA,NA
1cb6d,Shallow Question,html.Page,3_0_4_0_4_1_0,NA,NA,form submission,3800.02,592400,592394.3,592410.98,596211,596212,2023-04-25T11:37:43Z,596211.22,NULL,Inhalt,yaliyomo,s,kishawishi,hifadhi,kutembea,yaliyomo,NA,NA,4,NA,NA,NA,NA,NA,NA,NA,NA,NA,NA,NA,NA,NA,NA,NA,NA,NA,NA,NA
1cb6d,"""Richtig""-Screen",canvas.Screen,3_0_4_0_4_1_1,NA,NA,timeout,4999.5600000001,596214,596211.08,596211.22,601193.74,601195,2023-04-25T11:37:48Z,601210.78,NULL,Inhalt,yaliyomo,s,kishawishi,hifadhi,kutembea,NA,sd,1,4,NA,NA,NA,NA,NA,NA,NA,NA,NA,NA,NA,NA,NA,NA,NA,NA,NA,NA,NA
1cb6d,"""Falsch""-Screen",canvas.Screen,3_0_4_0_4_1_2,NA,NA,skipped,NA,601197,NA,NA,601193.74,601198,2023-04-25T11:37:48Z,601210.78,NULL,Inhalt,yaliyomo,s,kishawishi,hifadhi,kutembea,NA,sd,NA,4,NA,NA,NA,NA,NA,NA,NA,NA,NA,NA,NA,NA,NA,NA,NA,NA,NA,NA,NA
1cb6d,shallow,flow.Sequence,3_0_4_0_4_1,NA,NA,completion,8782.76,592399,592394.3,592410.98,601193.74,601198,2023-04-25T11:37:48Z,601210.78,NULL,Inhalt,yaliyomo,s,kishawishi,hifadhi,kutembea,NA,sd,NA,4,NA,NA,NA,NA,NA,NA,NA,NA,NA,NA,NA,NA,NA,NA,NA,NA,NA,NA,NA
1cb6d,task,flow.Sequence,3_0_4_0_4,NA,NA,completion,8782.76,592399,592394.3,592410.98,601193.74,601198,2023-04-25T11:37:48Z,601210.78,NULL,Inhalt,yaliyomo,s,kishawishi,hifadhi,kutembea,NA,sd,NA,4,NA,NA,NA,NA,NA,NA,NA,NA,NA,NA,NA,NA,NA,NA,NA,NA,NA,NA,NA
1cb6d,Deep Question,html.Page,3_0_4_0_5_0_0,NA,NA,form submission,10805.22,601198,601193.74,601210.78,612016,612016,2023-04-25T11:37:58Z,612027.44,NULL,Begegnung,kukutana,d,NA,NA,NA,kukuliamo,NA,NA,4,NA,NA,NA,NA,NA,NA,NA,NA,NA,NA,NA,NA,NA,NA,NA,NA,NA,NA,NA
1cb6d,"""Richtig""-Screen",canvas.Screen,3_0_4_0_5_0_1,NA,NA,skipped,NA,612019,NA,NA,612016,612020,2023-04-25T11:37:58Z,612027.44,NULL,Begegnung,kukutana,d,NA,NA,NA,NA,sd,NA,4,NA,NA,NA,NA,NA,NA,NA,NA,NA,NA,NA,NA,NA,NA,NA,NA,NA,NA,NA
1cb6d,"""Falsch""-Screen",canvas.Screen,3_0_4_0_5_0_2,NA,NA,timeout,4998.92,612021,612015.48,612027.44,617010.6,617012,2023-04-25T11:38:03Z,617026.36,NULL,Begegnung,kukutana,d,NA,NA,NA,NA,sd,0,4,NA,NA,NA,NA,NA,NA,NA,NA,NA,NA,NA,NA,NA,NA,NA,NA,NA,NA,NA
1cb6d,deep,flow.Sequence,3_0_4_0_5_0,NA,NA,completion,15799.82,601198,601193.74,601210.78,617010.6,617014,2023-04-25T11:38:03Z,617026.36,NULL,Begegnung,kukutana,d,NA,NA,NA,NA,sd,NA,4,NA,NA,NA,NA,NA,NA,NA,NA,NA,NA,NA,NA,NA,NA,NA,NA,NA,NA,NA
1cb6d,shallow,flow.Sequence,3_0_4_0_5_1,NA,NA,skipped,NA,617014,NA,NA,617010.6,617015,2023-04-25T11:38:03Z,617026.36,NULL,Begegnung,kukutana,d,NA,NA,NA,NA,sd,NA,4,NA,NA,NA,NA,NA,NA,NA,NA,NA,NA,NA,NA,NA,NA,NA,NA,NA,NA,NA
1cb6d,task,flow.Sequence,3_0_4_0_5,NA,NA,completion,15799.82,601198,601193.74,601210.78,617010.6,617015,2023-04-25T11:38:03Z,617026.36,NULL,Begegnung,kukutana,d,NA,NA,NA,NA,sd,NA,4,NA,NA,NA,NA,NA,NA,NA,NA,NA,NA,NA,NA,NA,NA,NA,NA,NA,NA,NA
1cb6d,Deep Question,html.Page,3_0_4_0_6_0_0,NA,NA,form submission,4816.64,617016,617010.6,617026.36,621843,621843,2023-04-25T11:38:08Z,621841.76,NULL,Genehmigung,idhini,d,NA,NA,NA,idhiko,NA,NA,4,NA,NA,NA,NA,NA,NA,NA,NA,NA,NA,NA,NA,NA,NA,NA,NA,NA,NA,NA
1cb6d,"""Richtig""-Screen",canvas.Screen,3_0_4_0_6_0_1,NA,NA,skipped,NA,621845,NA,NA,621843,621845,2023-04-25T11:38:08Z,621841.76,NULL,Genehmigung,idhini,d,NA,NA,NA,NA,sd,NA,4,NA,NA,NA,NA,NA,NA,NA,NA,NA,NA,NA,NA,NA,NA,NA,NA,NA,NA,NA
1cb6d,"""Falsch""-Screen",canvas.Screen,3_0_4_0_6_0_2,NA,NA,timeout,5002.02,621847,621841.64,621841.76,626827.1,626828,2023-04-25T11:38:13Z,626843.78,NULL,Genehmigung,idhini,d,NA,NA,NA,NA,sd,0,4,NA,NA,NA,NA,NA,NA,NA,NA,NA,NA,NA,NA,NA,NA,NA,NA,NA,NA,NA
1cb6d,deep,flow.Sequence,3_0_4_0_6_0,NA,NA,completion,9800.74,617015,617010.6,617026.36,626827.1,626828,2023-04-25T11:38:13Z,626843.78,NULL,Genehmigung,idhini,d,NA,NA,NA,NA,sd,NA,4,NA,NA,NA,NA,NA,NA,NA,NA,NA,NA,NA,NA,NA,NA,NA,NA,NA,NA,NA
1cb6d,shallow,flow.Sequence,3_0_4_0_6_1,NA,NA,skipped,NA,626828,NA,NA,626827.1,626828,2023-04-25T11:38:13Z,626843.78,NULL,Genehmigung,idhini,d,NA,NA,NA,NA,sd,NA,4,NA,NA,NA,NA,NA,NA,NA,NA,NA,NA,NA,NA,NA,NA,NA,NA,NA,NA,NA
1cb6d,task,flow.Sequence,3_0_4_0_6,NA,NA,completion,9800.74,617015,617010.6,617026.36,626827.1,626829,2023-04-25T11:38:13Z,626843.78,NULL,Genehmigung,idhini,d,NA,NA,NA,NA,sd,NA,4,NA,NA,NA,NA,NA,NA,NA,NA,NA,NA,NA,NA,NA,NA,NA,NA,NA,NA,NA
1cb6d,deep,flow.Sequence,3_0_4_0_7_0,NA,NA,skipped,NA,626829,NA,NA,626827.1,626829,2023-04-25T11:38:13Z,626843.78,NULL,Integrität,uadilifu,s,muungano,mtiririko,upunguaji,NA,sd,NA,4,NA,NA,NA,NA,NA,NA,NA,NA,NA,NA,NA,NA,NA,NA,NA,NA,NA,NA,NA
1cb6d,Shallow Question,html.Page,3_0_4_0_7_1_0,NA,NA,form submission,3866.22,626829,626827.1,626843.78,630710,630710,2023-04-25T11:38:17Z,630709.02,NULL,Integrität,uadilifu,s,muungano,mtiririko,upunguaji,uadilifu,NA,NA,4,NA,NA,NA,NA,NA,NA,NA,NA,NA,NA,NA,NA,NA,NA,NA,NA,NA,NA,NA
1cb6d,"""Richtig""-Screen",canvas.Screen,3_0_4_0_7_1_1,NA,NA,timeout,5000.48,630713,630708.86,630709.02,635693.8,635695,2023-04-25T11:38:22Z,635709.5,NULL,Integrität,uadilifu,s,muungano,mtiririko,upunguaji,NA,sd,1,4,NA,NA,NA,NA,NA,NA,NA,NA,NA,NA,NA,NA,NA,NA,NA,NA,NA,NA,NA
1cb6d,"""Falsch""-Screen",canvas.Screen,3_0_4_0_7_1_2,NA,NA,skipped,NA,635697,NA,NA,635693.8,635697,2023-04-25T11:38:22Z,635709.5,NULL,Integrität,uadilifu,s,muungano,mtiririko,upunguaji,NA,sd,NA,4,NA,NA,NA,NA,NA,NA,NA,NA,NA,NA,NA,NA,NA,NA,NA,NA,NA,NA,NA
1cb6d,shallow,flow.Sequence,3_0_4_0_7_1,NA,NA,completion,8850.02,626829,626827.1,626843.78,635693.8,635698,2023-04-25T11:38:22Z,635709.5,NULL,Integrität,uadilifu,s,muungano,mtiririko,upunguaji,NA,sd,NA,4,NA,NA,NA,NA,NA,NA,NA,NA,NA,NA,NA,NA,NA,NA,NA,NA,NA,NA,NA
1cb6d,task,flow.Sequence,3_0_4_0_7,NA,NA,completion,8850.02,626829,626827.1,626843.78,635693.8,635698,2023-04-25T11:38:22Z,635709.5,NULL,Integrität,uadilifu,s,muungano,mtiririko,upunguaji,NA,sd,NA,4,NA,NA,NA,NA,NA,NA,NA,NA,NA,NA,NA,NA,NA,NA,NA,NA,NA,NA,NA
1cb6d,block,flow.Loop,3_0_4_0,NA,NA,completion,85422.48,550271,550271.22,550271.32,635693.8,635698,2023-04-25T11:38:22Z,635709.5,NULL,NA,NA,NA,NA,NA,NA,NA,sd,NA,4,NA,NA,NA,NA,NA,NA,NA,NA,NA,NA,NA,NA,NA,NA,NA,NA,NA,NA,NA
1cb6d,weiter,canvas.Screen,3_0_4_1,sdf,keypress(Space),response,1152.5,635698,635693.8,635709.5,636862,636866,2023-04-25T11:38:23Z,636904.66,NULL,NA,NA,NA,NA,NA,NA,NA,sd,NA,4,NA,NA,NA,NA,NA,NA,NA,NA,NA,NA,NA,NA,NA,NA,NA,NA,NA,NA,NA
1cb6d,check continue,flow.Sequence,3_0_4,NA,NA,completion,86590.68,550271,550271.22,550271.32,636862,636867,2023-04-25T11:38:23Z,636904.66,NULL,NA,NA,NA,NA,NA,NA,NA,sd,NA,4,NA,NA,NA,NA,NA,NA,NA,NA,NA,NA,NA,NA,NA,NA,NA,NA,NA,NA,NA
1cb6d,deep,flow.Sequence,3_0_5_0_0_0,NA,NA,skipped,NA,636904,NA,NA,636862,636904,2023-04-25T11:38:23Z,636904.66,NULL,Vermutung,udhanifu,s,haramia,tikisho,itifaki,NA,sdf,NA,5,NA,NA,NA,NA,NA,NA,NA,NA,NA,NA,NA,NA,NA,NA,NA,NA,NA,NA,NA
1cb6d,Shallow Question,html.Page,3_0_5_0_0_1_0,NA,NA,form submission,3412.34,636904,636904.58,636904.66,640317,640318,2023-04-25T11:38:27Z,640316.2,NULL,Vermutung,udhanifu,s,haramia,tikisho,itifaki,udhanifu,NA,NA,5,NA,NA,NA,NA,NA,NA,NA,NA,NA,NA,NA,NA,NA,NA,NA,NA,NA,NA,NA
1cb6d,"""Richtig""-Screen",canvas.Screen,3_0_5_0_0_1_1,NA,NA,timeout,4994.14,640321,640316.06,640316.2,645293.66,645294,2023-04-25T11:38:32Z,645310.34,NULL,Vermutung,udhanifu,s,haramia,tikisho,itifaki,NA,sdf,1,5,NA,NA,NA,NA,NA,NA,NA,NA,NA,NA,NA,NA,NA,NA,NA,NA,NA,NA,NA
1cb6d,"""Falsch""-Screen",canvas.Screen,3_0_5_0_0_1_2,NA,NA,skipped,NA,645297,NA,NA,645293.66,645297,2023-04-25T11:38:32Z,645310.34,NULL,Vermutung,udhanifu,s,haramia,tikisho,itifaki,NA,sdf,NA,5,NA,NA,NA,NA,NA,NA,NA,NA,NA,NA,NA,NA,NA,NA,NA,NA,NA,NA,NA
1cb6d,shallow,flow.Sequence,3_0_5_0_0_1,NA,NA,completion,8389,636904,636904.58,636904.66,645293.66,645297,2023-04-25T11:38:32Z,645310.34,NULL,Vermutung,udhanifu,s,haramia,tikisho,itifaki,NA,sdf,NA,5,NA,NA,NA,NA,NA,NA,NA,NA,NA,NA,NA,NA,NA,NA,NA,NA,NA,NA,NA
1cb6d,task,flow.Sequence,3_0_5_0_0,NA,NA,completion,8389,636904,636904.58,636904.66,645293.66,645297,2023-04-25T11:38:32Z,645310.34,NULL,Vermutung,udhanifu,s,haramia,tikisho,itifaki,NA,sdf,NA,5,NA,NA,NA,NA,NA,NA,NA,NA,NA,NA,NA,NA,NA,NA,NA,NA,NA,NA,NA
1cb6d,Deep Question,html.Page,3_0_5_0_1_0_0,NA,NA,form submission,9733.66,645298,645293.66,645310.34,655044,655044,2023-04-25T11:38:41Z,655043.56,NULL,Begegnung,kukutana,d,NA,NA,NA,kukulani,NA,NA,5,NA,NA,NA,NA,NA,NA,NA,NA,NA,NA,NA,NA,NA,NA,NA,NA,NA,NA,NA
1cb6d,"""Richtig""-Screen",canvas.Screen,3_0_5_0_1_0_1,NA,NA,skipped,NA,655047,NA,NA,655044,655047,2023-04-25T11:38:41Z,655043.56,NULL,Begegnung,kukutana,d,NA,NA,NA,NA,sdf,NA,5,NA,NA,NA,NA,NA,NA,NA,NA,NA,NA,NA,NA,NA,NA,NA,NA,NA,NA,NA
1cb6d,"""Falsch""-Screen",canvas.Screen,3_0_5_0_1_0_2,NA,NA,timeout,4999.46,655048,655042.88,655043.56,660026.7,660027,2023-04-25T11:38:46Z,660043.02,NULL,Begegnung,kukutana,d,NA,NA,NA,NA,sdf,0,5,NA,NA,NA,NA,NA,NA,NA,NA,NA,NA,NA,NA,NA,NA,NA,NA,NA,NA,NA
1cb6d,deep,flow.Sequence,3_0_5_0_1_0,NA,NA,completion,14716.36,645297,645293.66,645310.34,660026.7,660028,2023-04-25T11:38:46Z,660043.02,NULL,Begegnung,kukutana,d,NA,NA,NA,NA,sdf,NA,5,NA,NA,NA,NA,NA,NA,NA,NA,NA,NA,NA,NA,NA,NA,NA,NA,NA,NA,NA
1cb6d,shallow,flow.Sequence,3_0_5_0_1_1,NA,NA,skipped,NA,660028,NA,NA,660026.7,660028,2023-04-25T11:38:46Z,660043.02,NULL,Begegnung,kukutana,d,NA,NA,NA,NA,sdf,NA,5,NA,NA,NA,NA,NA,NA,NA,NA,NA,NA,NA,NA,NA,NA,NA,NA,NA,NA,NA
1cb6d,task,flow.Sequence,3_0_5_0_1,NA,NA,completion,14716.36,645297,645293.66,645310.34,660026.7,660029,2023-04-25T11:38:46Z,660043.02,NULL,Begegnung,kukutana,d,NA,NA,NA,NA,sdf,NA,5,NA,NA,NA,NA,NA,NA,NA,NA,NA,NA,NA,NA,NA,NA,NA,NA,NA,NA,NA
1cb6d,deep,flow.Sequence,3_0_5_0_2_0,NA,NA,skipped,NA,660029,NA,NA,660026.7,660029,2023-04-25T11:38:46Z,660043.02,NULL,Fleisch,mshakiki,s,kizunguzungu,mshikamano,angusho,NA,sdf,NA,5,NA,NA,NA,NA,NA,NA,NA,NA,NA,NA,NA,NA,NA,NA,NA,NA,NA,NA,NA
1cb6d,Shallow Question,html.Page,3_0_5_0_2_1_0,NA,NA,form submission,2798.98,660029,660026.7,660043.02,662842,662843,2023-04-25T11:38:49Z,662841.84,NULL,Fleisch,mshakiki,s,kizunguzungu,mshikamano,angusho,mshakiki,NA,NA,5,NA,NA,NA,NA,NA,NA,NA,NA,NA,NA,NA,NA,NA,NA,NA,NA,NA,NA,NA
1cb6d,"""Richtig""-Screen",canvas.Screen,3_0_5_0_2_1_1,NA,NA,timeout,5001.4400000001,662844,662841.72,662841.84,667826.6,667827,2023-04-25T11:38:54Z,667843.28,NULL,Fleisch,mshakiki,s,kizunguzungu,mshikamano,angusho,NA,sdf,1,5,NA,NA,NA,NA,NA,NA,NA,NA,NA,NA,NA,NA,NA,NA,NA,NA,NA,NA,NA
1cb6d,"""Falsch""-Screen",canvas.Screen,3_0_5_0_2_1_2,NA,NA,skipped,NA,667830,NA,NA,667826.6,667831,2023-04-25T11:38:54Z,667843.28,NULL,Fleisch,mshakiki,s,kizunguzungu,mshikamano,angusho,NA,sdf,NA,5,NA,NA,NA,NA,NA,NA,NA,NA,NA,NA,NA,NA,NA,NA,NA,NA,NA,NA,NA
1cb6d,shallow,flow.Sequence,3_0_5_0_2_1,NA,NA,completion,7783.58,660029,660026.7,660043.02,667826.6,667831,2023-04-25T11:38:54Z,667843.28,NULL,Fleisch,mshakiki,s,kizunguzungu,mshikamano,angusho,NA,sdf,NA,5,NA,NA,NA,NA,NA,NA,NA,NA,NA,NA,NA,NA,NA,NA,NA,NA,NA,NA,NA
1cb6d,task,flow.Sequence,3_0_5_0_2,NA,NA,completion,7783.58,660029,660026.7,660043.02,667826.6,667831,2023-04-25T11:38:54Z,667843.28,NULL,Fleisch,mshakiki,s,kizunguzungu,mshikamano,angusho,NA,sdf,NA,5,NA,NA,NA,NA,NA,NA,NA,NA,NA,NA,NA,NA,NA,NA,NA,NA,NA,NA,NA
1cb6d,Deep Question,html.Page,3_0_5_0_3_0_0,NA,NA,form submission,8022.72,667831,667826.6,667843.28,675866,675866,2023-04-25T11:39:02Z,675876.64,NULL,Genehmigung,idhini,d,NA,NA,NA,idhini,NA,NA,5,NA,NA,NA,NA,NA,NA,NA,NA,NA,NA,NA,NA,NA,NA,NA,NA,NA,NA,NA
1cb6d,"""Richtig""-Screen",canvas.Screen,3_0_5_0_3_0_1,NA,NA,timeout,4999.8199999999,675868,675864.58,675876.64,680859.76,680860,2023-04-25T11:39:07Z,680876.46,NULL,Genehmigung,idhini,d,NA,NA,NA,NA,sdf,1,5,NA,NA,NA,NA,NA,NA,NA,NA,NA,NA,NA,NA,NA,NA,NA,NA,NA,NA,NA
1cb6d,"""Falsch""-Screen",canvas.Screen,3_0_5_0_3_0_2,NA,NA,skipped,NA,680863,NA,NA,680859.76,680863,2023-04-25T11:39:07Z,680876.46,NULL,Genehmigung,idhini,d,NA,NA,NA,NA,sdf,NA,5,NA,NA,NA,NA,NA,NA,NA,NA,NA,NA,NA,NA,NA,NA,NA,NA,NA,NA,NA
1cb6d,deep,flow.Sequence,3_0_5_0_3_0,NA,NA,completion,13016.48,667831,667826.6,667843.28,680859.76,680864,2023-04-25T11:39:07Z,680876.46,NULL,Genehmigung,idhini,d,NA,NA,NA,NA,sdf,NA,5,NA,NA,NA,NA,NA,NA,NA,NA,NA,NA,NA,NA,NA,NA,NA,NA,NA,NA,NA
1cb6d,shallow,flow.Sequence,3_0_5_0_3_1,NA,NA,skipped,NA,680864,NA,NA,680859.76,680864,2023-04-25T11:39:07Z,680876.46,NULL,Genehmigung,idhini,d,NA,NA,NA,NA,sdf,NA,5,NA,NA,NA,NA,NA,NA,NA,NA,NA,NA,NA,NA,NA,NA,NA,NA,NA,NA,NA
1cb6d,task,flow.Sequence,3_0_5_0_3,NA,NA,completion,13016.48,667831,667826.6,667843.28,680859.76,680864,2023-04-25T11:39:07Z,680876.46,NULL,Genehmigung,idhini,d,NA,NA,NA,NA,sdf,NA,5,NA,NA,NA,NA,NA,NA,NA,NA,NA,NA,NA,NA,NA,NA,NA,NA,NA,NA,NA
1cb6d,deep,flow.Sequence,3_0_5_0_4_0,NA,NA,skipped,NA,680864,NA,NA,680859.76,680864,2023-04-25T11:39:07Z,680876.46,NULL,Integrität,uadilifu,s,muungano,mtiririko,upunguaji,NA,sdf,NA,5,NA,NA,NA,NA,NA,NA,NA,NA,NA,NA,NA,NA,NA,NA,NA,NA,NA,NA,NA
1cb6d,Shallow Question,html.Page,3_0_5_0_4_1_0,NA,NA,form submission,3072.54,680864,680859.76,680876.46,683949,683950,2023-04-25T11:39:10Z,683947.94,NULL,Integrität,uadilifu,s,muungano,mtiririko,upunguaji,uadilifu,NA,NA,5,NA,NA,NA,NA,NA,NA,NA,NA,NA,NA,NA,NA,NA,NA,NA,NA,NA,NA,NA
1cb6d,"""Richtig""-Screen",canvas.Screen,3_0_5_0_4_1_1,NA,NA,timeout,4994.5,683951,683947.76,683947.94,688926.34,688929,2023-04-25T11:39:15Z,688942.44,NULL,Integrität,uadilifu,s,muungano,mtiririko,upunguaji,NA,sdf,1,5,NA,NA,NA,NA,NA,NA,NA,NA,NA,NA,NA,NA,NA,NA,NA,NA,NA,NA,NA
1cb6d,"""Falsch""-Screen",canvas.Screen,3_0_5_0_4_1_2,NA,NA,skipped,NA,688935,NA,NA,688926.34,688935,2023-04-25T11:39:15Z,688942.44,NULL,Integrität,uadilifu,s,muungano,mtiririko,upunguaji,NA,sdf,NA,5,NA,NA,NA,NA,NA,NA,NA,NA,NA,NA,NA,NA,NA,NA,NA,NA,NA,NA,NA
1cb6d,shallow,flow.Sequence,3_0_5_0_4_1,NA,NA,completion,8049.88,680864,680859.76,680876.46,688926.34,688936,2023-04-25T11:39:15Z,688942.44,NULL,Integrität,uadilifu,s,muungano,mtiririko,upunguaji,NA,sdf,NA,5,NA,NA,NA,NA,NA,NA,NA,NA,NA,NA,NA,NA,NA,NA,NA,NA,NA,NA,NA
1cb6d,task,flow.Sequence,3_0_5_0_4,NA,NA,completion,8049.88,680864,680859.76,680876.46,688926.34,688936,2023-04-25T11:39:15Z,688942.44,NULL,Integrität,uadilifu,s,muungano,mtiririko,upunguaji,NA,sdf,NA,5,NA,NA,NA,NA,NA,NA,NA,NA,NA,NA,NA,NA,NA,NA,NA,NA,NA,NA,NA
1cb6d,Deep Question,html.Page,3_0_5_0_5_0_0,NA,NA,form submission,7855.5600000001,688936,688926.34,688942.44,696798,696799,2023-04-25T11:39:23Z,696809.7,NULL,Toleranz,kuvumiliana,d,NA,NA,NA,kuvuliana,NA,NA,5,NA,NA,NA,NA,NA,NA,NA,NA,NA,NA,NA,NA,NA,NA,NA,NA,NA,NA,NA
1cb6d,"""Richtig""-Screen",canvas.Screen,3_0_5_0_5_0_1,NA,NA,skipped,NA,696806,NA,NA,696798,696807,2023-04-25T11:39:23Z,696809.7,NULL,Toleranz,kuvumiliana,d,NA,NA,NA,NA,sdf,NA,5,NA,NA,NA,NA,NA,NA,NA,NA,NA,NA,NA,NA,NA,NA,NA,NA,NA,NA,NA
1cb6d,"""Falsch""-Screen",canvas.Screen,3_0_5_0_5_0_2,NA,NA,timeout,4999.64,696809,696796.3,696809.7,701792.84,701795,2023-04-25T11:39:28Z,701809.34,NULL,Toleranz,kuvumiliana,d,NA,NA,NA,NA,sdf,0,5,NA,NA,NA,NA,NA,NA,NA,NA,NA,NA,NA,NA,NA,NA,NA,NA,NA,NA,NA
1cb6d,deep,flow.Sequence,3_0_5_0_5_0,NA,NA,completion,12850.4,688936,688926.34,688942.44,701792.84,701797,2023-04-25T11:39:28Z,701809.34,NULL,Toleranz,kuvumiliana,d,NA,NA,NA,NA,sdf,NA,5,NA,NA,NA,NA,NA,NA,NA,NA,NA,NA,NA,NA,NA,NA,NA,NA,NA,NA,NA
1cb6d,shallow,flow.Sequence,3_0_5_0_5_1,NA,NA,skipped,NA,701797,NA,NA,701792.84,701797,2023-04-25T11:39:28Z,701809.34,NULL,Toleranz,kuvumiliana,d,NA,NA,NA,NA,sdf,NA,5,NA,NA,NA,NA,NA,NA,NA,NA,NA,NA,NA,NA,NA,NA,NA,NA,NA,NA,NA
1cb6d,task,flow.Sequence,3_0_5_0_5,NA,NA,completion,12850.4,688936,688926.34,688942.44,701792.84,701798,2023-04-25T11:39:28Z,701809.34,NULL,Toleranz,kuvumiliana,d,NA,NA,NA,NA,sdf,NA,5,NA,NA,NA,NA,NA,NA,NA,NA,NA,NA,NA,NA,NA,NA,NA,NA,NA,NA,NA
1cb6d,Deep Question,html.Page,3_0_5_0_6_0_0,NA,NA,form submission,5104.66,701799,701792.84,701809.34,706914,706915,2023-04-25T11:39:33Z,706912.96,NULL,Schlange,foleni,d,NA,NA,NA,foleni,NA,NA,5,NA,NA,NA,NA,NA,NA,NA,NA,NA,NA,NA,NA,NA,NA,NA,NA,NA,NA,NA
1cb6d,"""Richtig""-Screen",canvas.Screen,3_0_5_0_6_0_1,NA,NA,timeout,4996.3200000001,706921,706912.8,706912.96,711892.82,711895,2023-04-25T11:39:38Z,711909.28,NULL,Schlange,foleni,d,NA,NA,NA,NA,sdf,1,5,NA,NA,NA,NA,NA,NA,NA,NA,NA,NA,NA,NA,NA,NA,NA,NA,NA,NA,NA
1cb6d,"""Falsch""-Screen",canvas.Screen,3_0_5_0_6_0_2,NA,NA,skipped,NA,711900,NA,NA,711892.82,711900,2023-04-25T11:39:38Z,711909.28,NULL,Schlange,foleni,d,NA,NA,NA,NA,sdf,NA,5,NA,NA,NA,NA,NA,NA,NA,NA,NA,NA,NA,NA,NA,NA,NA,NA,NA,NA,NA
1cb6d,deep,flow.Sequence,3_0_5_0_6_0,NA,NA,completion,10083.48,701799,701792.84,701809.34,711892.82,711900,2023-04-25T11:39:38Z,711909.28,NULL,Schlange,foleni,d,NA,NA,NA,NA,sdf,NA,5,NA,NA,NA,NA,NA,NA,NA,NA,NA,NA,NA,NA,NA,NA,NA,NA,NA,NA,NA
1cb6d,shallow,flow.Sequence,3_0_5_0_6_1,NA,NA,skipped,NA,711900,NA,NA,711892.82,711900,2023-04-25T11:39:38Z,711909.28,NULL,Schlange,foleni,d,NA,NA,NA,NA,sdf,NA,5,NA,NA,NA,NA,NA,NA,NA,NA,NA,NA,NA,NA,NA,NA,NA,NA,NA,NA,NA
1cb6d,task,flow.Sequence,3_0_5_0_6,NA,NA,completion,10083.48,701798,701792.84,701809.34,711892.82,711901,2023-04-25T11:39:38Z,711909.28,NULL,Schlange,foleni,d,NA,NA,NA,NA,sdf,NA,5,NA,NA,NA,NA,NA,NA,NA,NA,NA,NA,NA,NA,NA,NA,NA,NA,NA,NA,NA
1cb6d,deep,flow.Sequence,3_0_5_0_7_0,NA,NA,skipped,NA,711901,NA,NA,711892.82,711901,2023-04-25T11:39:38Z,711909.28,NULL,Inhalt,yaliyomo,s,kishawishi,hifadhi,kutembea,NA,sdf,NA,5,NA,NA,NA,NA,NA,NA,NA,NA,NA,NA,NA,NA,NA,NA,NA,NA,NA,NA,NA
1cb6d,Shallow Question,html.Page,3_0_5_0_7_1_0,NA,NA,form submission,3207.72,711901,711892.82,711909.28,715117,715117,2023-04-25T11:39:41Z,715115.52,NULL,Inhalt,yaliyomo,s,kishawishi,hifadhi,kutembea,yaliyomo,NA,NA,5,NA,NA,NA,NA,NA,NA,NA,NA,NA,NA,NA,NA,NA,NA,NA,NA,NA,NA,NA
1cb6d,"""Richtig""-Screen",canvas.Screen,3_0_5_0_7_1_1,NA,NA,timeout,4993.88,715121,715115.36,715115.52,720092.74,720094,2023-04-25T11:39:46Z,720109.4,NULL,Inhalt,yaliyomo,s,kishawishi,hifadhi,kutembea,NA,sdf,1,5,NA,NA,NA,NA,NA,NA,NA,NA,NA,NA,NA,NA,NA,NA,NA,NA,NA,NA,NA
1cb6d,"""Falsch""-Screen",canvas.Screen,3_0_5_0_7_1_2,NA,NA,skipped,NA,720097,NA,NA,720092.74,720098,2023-04-25T11:39:46Z,720109.4,NULL,Inhalt,yaliyomo,s,kishawishi,hifadhi,kutembea,NA,sdf,NA,5,NA,NA,NA,NA,NA,NA,NA,NA,NA,NA,NA,NA,NA,NA,NA,NA,NA,NA,NA
1cb6d,shallow,flow.Sequence,3_0_5_0_7_1,NA,NA,completion,8183.46,711901,711892.82,711909.28,720092.74,720099,2023-04-25T11:39:46Z,720109.4,NULL,Inhalt,yaliyomo,s,kishawishi,hifadhi,kutembea,NA,sdf,NA,5,NA,NA,NA,NA,NA,NA,NA,NA,NA,NA,NA,NA,NA,NA,NA,NA,NA,NA,NA
1cb6d,task,flow.Sequence,3_0_5_0_7,NA,NA,completion,8183.46,711901,711892.82,711909.28,720092.74,720099,2023-04-25T11:39:46Z,720109.4,NULL,Inhalt,yaliyomo,s,kishawishi,hifadhi,kutembea,NA,sdf,NA,5,NA,NA,NA,NA,NA,NA,NA,NA,NA,NA,NA,NA,NA,NA,NA,NA,NA,NA,NA
1cb6d,block,flow.Loop,3_0_5_0,NA,NA,completion,83188.08,636904,636904.58,636904.66,720092.74,720099,2023-04-25T11:39:46Z,720109.4,NULL,NA,NA,NA,NA,NA,NA,NA,sdf,NA,5,NA,NA,NA,NA,NA,NA,NA,NA,NA,NA,NA,NA,NA,NA,NA,NA,NA,NA,NA
1cb6d,weiter,canvas.Screen,3_0_5_1,sdf,keypress(Space),response,1049.6,720099,720092.74,720109.4,721159,721164,2023-04-25T11:39:48Z,721435.3,NULL,NA,NA,NA,NA,NA,NA,NA,sdf,NA,5,NA,NA,NA,NA,NA,NA,NA,NA,NA,NA,NA,NA,NA,NA,NA,NA,NA,NA,NA
1cb6d,check continue,flow.Sequence,3_0_5,NA,NA,completion,84254.34,636904,636904.58,636904.66,721159,721165,2023-04-25T11:39:48Z,721435.3,NULL,NA,NA,NA,NA,NA,NA,NA,sdf,NA,5,NA,NA,NA,NA,NA,NA,NA,NA,NA,NA,NA,NA,NA,NA,NA,NA,NA,NA,NA
1cb6d,check continue,flow.Sequence,3_0_6,NA,NA,skipped,NA,721203,NA,NA,721159,721203,2023-04-25T11:39:48Z,721435.3,NULL,NA,NA,NA,NA,NA,NA,NA,dfs,NA,6,NA,NA,NA,NA,NA,NA,NA,NA,NA,NA,NA,NA,NA,NA,NA,NA,NA,NA,NA
1cb6d,check continue,flow.Sequence,3_0_7,NA,NA,skipped,NA,721220,NA,NA,721159,721220,2023-04-25T11:39:48Z,721435.3,NULL,NA,NA,NA,NA,NA,NA,NA,df,NA,7,NA,NA,NA,NA,NA,NA,NA,NA,NA,NA,NA,NA,NA,NA,NA,NA,NA,NA,NA
1cb6d,check continue,flow.Sequence,3_0_8,NA,NA,skipped,NA,721233,NA,NA,721159,721233,2023-04-25T11:39:48Z,721435.3,NULL,NA,NA,NA,NA,NA,NA,NA,dfs,NA,8,NA,NA,NA,NA,NA,NA,NA,NA,NA,NA,NA,NA,NA,NA,NA,NA,NA,NA,NA
1cb6d,check continue,flow.Sequence,3_0_9,NA,NA,skipped,NA,721246,NA,NA,721159,721246,2023-04-25T11:39:48Z,721435.3,NULL,NA,NA,NA,NA,NA,NA,NA,dsf,NA,9,NA,NA,NA,NA,NA,NA,NA,NA,NA,NA,NA,NA,NA,NA,NA,NA,NA,NA,NA
1cb6d,check continue,flow.Sequence,3_0_10,NA,NA,skipped,NA,721258,NA,NA,721159,721258,2023-04-25T11:39:48Z,721435.3,NULL,NA,NA,NA,NA,NA,NA,NA,df,NA,10,NA,NA,NA,NA,NA,NA,NA,NA,NA,NA,NA,NA,NA,NA,NA,NA,NA,NA,NA
1cb6d,check continue,flow.Sequence,3_0_11,NA,NA,skipped,NA,721268,NA,NA,721159,721268,2023-04-25T11:39:48Z,721435.3,NULL,NA,NA,NA,NA,NA,NA,NA,dfs,NA,11,NA,NA,NA,NA,NA,NA,NA,NA,NA,NA,NA,NA,NA,NA,NA,NA,NA,NA,NA
1cb6d,check continue,flow.Sequence,3_0_12,NA,NA,skipped,NA,721277,NA,NA,721159,721277,2023-04-25T11:39:48Z,721435.3,NULL,NA,NA,NA,NA,NA,NA,NA,dsf,NA,12,NA,NA,NA,NA,NA,NA,NA,NA,NA,NA,NA,NA,NA,NA,NA,NA,NA,NA,NA
1cb6d,check continue,flow.Sequence,3_0_13,NA,NA,skipped,NA,721286,NA,NA,721159,721286,2023-04-25T11:39:48Z,721435.3,NULL,NA,NA,NA,NA,NA,NA,NA,dsf,NA,13,NA,NA,NA,NA,NA,NA,NA,NA,NA,NA,NA,NA,NA,NA,NA,NA,NA,NA,NA
1cb6d,check continue,flow.Sequence,3_0_14,NA,NA,skipped,NA,721297,NA,NA,721159,721297,2023-04-25T11:39:48Z,721435.3,NULL,NA,NA,NA,NA,NA,NA,NA,NA,NA,14,NA,NA,NA,NA,NA,NA,NA,NA,NA,NA,NA,NA,NA,NA,NA,NA,NA,NA,NA
1cb6d,check continue,flow.Sequence,3_0_15,NA,NA,skipped,NA,721305,NA,NA,721159,721305,2023-04-25T11:39:48Z,721435.3,NULL,NA,NA,NA,NA,NA,NA,NA,NA,NA,15,NA,NA,NA,NA,NA,NA,NA,NA,NA,NA,NA,NA,NA,NA,NA,NA,NA,NA,NA
1cb6d,check continue,flow.Sequence,3_0_16,NA,NA,skipped,NA,721315,NA,NA,721159,721315,2023-04-25T11:39:48Z,721435.3,NULL,NA,NA,NA,NA,NA,NA,NA,NA,NA,16,NA,NA,NA,NA,NA,NA,NA,NA,NA,NA,NA,NA,NA,NA,NA,NA,NA,NA,NA
1cb6d,check continue,flow.Sequence,3_0_17,NA,NA,skipped,NA,721325,NA,NA,721159,721325,2023-04-25T11:39:48Z,721435.3,NULL,NA,NA,NA,NA,NA,NA,NA,NA,NA,17,NA,NA,NA,NA,NA,NA,NA,NA,NA,NA,NA,NA,NA,NA,NA,NA,NA,NA,NA
1cb6d,check continue,flow.Sequence,3_0_18,NA,NA,skipped,NA,721334,NA,NA,721159,721334,2023-04-25T11:39:48Z,721435.3,NULL,NA,NA,NA,NA,NA,NA,NA,NA,NA,18,NA,NA,NA,NA,NA,NA,NA,NA,NA,NA,NA,NA,NA,NA,NA,NA,NA,NA,NA
1cb6d,check continue,flow.Sequence,3_0_19,NA,NA,skipped,NA,721344,NA,NA,721159,721344,2023-04-25T11:39:48Z,721435.3,NULL,NA,NA,NA,NA,NA,NA,NA,NA,NA,19,NA,NA,NA,NA,NA,NA,NA,NA,NA,NA,NA,NA,NA,NA,NA,NA,NA,NA,NA
1cb6d,check continue,flow.Sequence,3_0_20,NA,NA,skipped,NA,721352,NA,NA,721159,721352,2023-04-25T11:39:48Z,721435.3,NULL,NA,NA,NA,NA,NA,NA,NA,NA,NA,20,NA,NA,NA,NA,NA,NA,NA,NA,NA,NA,NA,NA,NA,NA,NA,NA,NA,NA,NA
1cb6d,check continue,flow.Sequence,3_0_21,NA,NA,skipped,NA,721362,NA,NA,721159,721362,2023-04-25T11:39:48Z,721435.3,NULL,NA,NA,NA,NA,NA,NA,NA,NA,NA,21,NA,NA,NA,NA,NA,NA,NA,NA,NA,NA,NA,NA,NA,NA,NA,NA,NA,NA,NA
1cb6d,check continue,flow.Sequence,3_0_22,NA,NA,skipped,NA,721371,NA,NA,721159,721371,2023-04-25T11:39:48Z,721435.3,NULL,NA,NA,NA,NA,NA,NA,NA,NA,NA,22,NA,NA,NA,NA,NA,NA,NA,NA,NA,NA,NA,NA,NA,NA,NA,NA,NA,NA,NA
1cb6d,check continue,flow.Sequence,3_0_23,NA,NA,skipped,NA,721379,NA,NA,721159,721379,2023-04-25T11:39:48Z,721435.3,NULL,NA,NA,NA,NA,NA,NA,NA,NA,NA,23,NA,NA,NA,NA,NA,NA,NA,NA,NA,NA,NA,NA,NA,NA,NA,NA,NA,NA,NA
1cb6d,check continue,flow.Sequence,3_0_24,NA,NA,skipped,NA,721390,NA,NA,721159,721390,2023-04-25T11:39:48Z,721435.3,NULL,NA,NA,NA,NA,NA,NA,NA,NA,NA,24,NA,NA,NA,NA,NA,NA,NA,NA,NA,NA,NA,NA,NA,NA,NA,NA,NA,NA,NA
1cb6d,check continue,flow.Sequence,3_0_25,NA,NA,skipped,NA,721398,NA,NA,721159,721398,2023-04-25T11:39:48Z,721435.3,NULL,NA,NA,NA,NA,NA,NA,NA,NA,NA,25,NA,NA,NA,NA,NA,NA,NA,NA,NA,NA,NA,NA,NA,NA,NA,NA,NA,NA,NA
1cb6d,check continue,flow.Sequence,3_0_26,NA,NA,skipped,NA,721408,NA,NA,721159,721408,2023-04-25T11:39:48Z,721435.3,NULL,NA,NA,NA,NA,NA,NA,NA,NA,NA,26,NA,NA,NA,NA,NA,NA,NA,NA,NA,NA,NA,NA,NA,NA,NA,NA,NA,NA,NA
1cb6d,check continue,flow.Sequence,3_0_27,NA,NA,skipped,NA,721417,NA,NA,721159,721417,2023-04-25T11:39:48Z,721435.3,NULL,NA,NA,NA,NA,NA,NA,NA,NA,NA,27,NA,NA,NA,NA,NA,NA,NA,NA,NA,NA,NA,NA,NA,NA,NA,NA,NA,NA,NA
1cb6d,check continue,flow.Sequence,3_0_28,NA,NA,skipped,NA,721425,NA,NA,721159,721425,2023-04-25T11:39:48Z,721435.3,NULL,NA,NA,NA,NA,NA,NA,NA,NA,NA,28,NA,NA,NA,NA,NA,NA,NA,NA,NA,NA,NA,NA,NA,NA,NA,NA,NA,NA,NA
1cb6d,check continue,flow.Sequence,3_0_29,NA,NA,skipped,NA,721435,NA,NA,721159,721435,2023-04-25T11:39:48Z,721435.3,NULL,NA,NA,NA,NA,NA,NA,NA,NA,NA,29,NA,NA,NA,NA,NA,NA,NA,NA,NA,NA,NA,NA,NA,NA,NA,NA,NA,NA,NA
1cb6d,until continue,flow.Loop,3_0,NA,NA,completion,528046,193092,193112.92,193113,721159,721435,2023-04-25T11:39:48Z,721435.3,NULL,NA,NA,NA,NA,NA,NA,NA,NA,NA,NA,NA,NA,NA,NA,NA,NA,NA,NA,NA,NA,NA,NA,NA,NA,NA,NA,NA,NA,NA
1cb6d,block 1,flow.Sequence,3,NA,NA,completion,528046,193092,193112.92,193113,721159,721435,2023-04-25T11:39:48Z,721435.3,NULL,NA,NA,NA,NA,NA,NA,NA,NA,NA,NA,NA,NA,NA,NA,NA,NA,NA,NA,NA,NA,NA,NA,NA,NA,NA,NA,NA,NA,NA
1cb6d,1.Part Over,canvas.Screen,4,NA,keypress(Space),response,2285.7,721435,721435.12,721435.3,723721,723724,2023-04-25T11:39:50Z,723766.82,NULL,NA,NA,NA,NA,NA,NA,NA,NA,NA,NA,NA,NA,NA,NA,NA,NA,NA,NA,NA,NA,NA,NA,NA,NA,NA,NA,NA,NA,NA
1cb6d,deep,flow.Sequence,5_0_0_0_0_0,NA,NA,skipped,NA,723767,NA,NA,723721,723767,2023-04-25T11:39:50Z,723766.82,NULL,Erneuerung,ukarabati,s,ushawishi,ukalifu,unyonyaji,NA,sdf,NA,0,NA,NA,NA,NA,NA,NA,NA,NA,NA,NA,NA,NA,NA,NA,NA,NA,NA,NA,NA
1cb6d,Shallow Question,html.Page,5_0_0_0_0_1_0,NA,NA,form submission,7933.1800000001,723767,723766.72,723766.82,731700,731701,2023-04-25T11:39:58Z,731698.76,NULL,Erneuerung,ukarabati,s,ushawishi,ukalifu,unyonyaji,ukarabati,NA,NA,0,NA,NA,NA,NA,NA,NA,NA,NA,NA,NA,NA,NA,NA,NA,NA,NA,NA,NA,NA
1cb6d,"""Richtig""-Screen",canvas.Screen,5_0_0_0_0_1_1,NA,NA,timeout,4993.48,731703,731698.56,731698.76,736675.78,736677,2023-04-25T11:40:03Z,736692.24,NULL,Erneuerung,ukarabati,s,ushawishi,ukalifu,unyonyaji,NA,sdf,1,0,NA,NA,NA,NA,NA,NA,NA,NA,NA,NA,NA,NA,NA,NA,NA,NA,NA,NA,NA
1cb6d,"""Falsch""-Screen",canvas.Screen,5_0_0_0_0_1_2,NA,NA,skipped,NA,736679,NA,NA,736675.78,736679,2023-04-25T11:40:03Z,736692.24,NULL,Erneuerung,ukarabati,s,ushawishi,ukalifu,unyonyaji,NA,sdf,NA,0,NA,NA,NA,NA,NA,NA,NA,NA,NA,NA,NA,NA,NA,NA,NA,NA,NA,NA,NA
1cb6d,shallow,flow.Sequence,5_0_0_0_0_1,NA,NA,completion,12908.96,723767,723766.72,723766.82,736675.78,736679,2023-04-25T11:40:03Z,736692.24,NULL,Erneuerung,ukarabati,s,ushawishi,ukalifu,unyonyaji,NA,sdf,NA,0,NA,NA,NA,NA,NA,NA,NA,NA,NA,NA,NA,NA,NA,NA,NA,NA,NA,NA,NA
1cb6d,task,flow.Sequence,5_0_0_0_0,NA,NA,completion,12908.96,723767,723766.72,723766.82,736675.78,736679,2023-04-25T11:40:03Z,736692.24,NULL,Erneuerung,ukarabati,s,ushawishi,ukalifu,unyonyaji,NA,sdf,NA,0,NA,NA,NA,NA,NA,NA,NA,NA,NA,NA,NA,NA,NA,NA,NA,NA,NA,NA,NA
1cb6d,Deep Question,html.Page,5_0_0_0_1_0_0,NA,NA,form submission,4256.76,736679,736675.78,736692.24,740949,740949,2023-04-25T11:40:07Z,740948.08,NULL,Flexibilität,kubadilika,d,NA,NA,NA,flebiliano,NA,NA,0,NA,NA,NA,NA,NA,NA,NA,NA,NA,NA,NA,NA,NA,NA,NA,NA,NA,NA,NA
1cb6d,"""Richtig""-Screen",canvas.Screen,5_0_0_0_1_0_1,NA,NA,skipped,NA,740952,NA,NA,740949,740952,2023-04-25T11:40:07Z,740948.08,NULL,Flexibilität,kubadilika,d,NA,NA,NA,NA,sdf,NA,0,NA,NA,NA,NA,NA,NA,NA,NA,NA,NA,NA,NA,NA,NA,NA,NA,NA,NA,NA
1cb6d,"""Falsch""-Screen",canvas.Screen,5_0_0_0_1_0_2,NA,NA,timeout,4994.3,740953,740947.96,740948.08,745925.7,745926,2023-04-25T11:40:12Z,745942.38,NULL,Flexibilität,kubadilika,d,NA,NA,NA,NA,sdf,0,0,NA,NA,NA,NA,NA,NA,NA,NA,NA,NA,NA,NA,NA,NA,NA,NA,NA,NA,NA
1cb6d,deep,flow.Sequence,5_0_0_0_1_0,NA,NA,completion,9233.46,736679,736675.78,736692.24,745925.7,745926,2023-04-25T11:40:12Z,745942.38,NULL,Flexibilität,kubadilika,d,NA,NA,NA,NA,sdf,NA,0,NA,NA,NA,NA,NA,NA,NA,NA,NA,NA,NA,NA,NA,NA,NA,NA,NA,NA,NA
1cb6d,shallow,flow.Sequence,5_0_0_0_1_1,NA,NA,skipped,NA,745927,NA,NA,745925.7,745928,2023-04-25T11:40:12Z,745942.38,NULL,Flexibilität,kubadilika,d,NA,NA,NA,NA,sdf,NA,0,NA,NA,NA,NA,NA,NA,NA,NA,NA,NA,NA,NA,NA,NA,NA,NA,NA,NA,NA
1cb6d,task,flow.Sequence,5_0_0_0_1,NA,NA,completion,9233.46,736679,736675.78,736692.24,745925.7,745928,2023-04-25T11:40:12Z,745942.38,NULL,Flexibilität,kubadilika,d,NA,NA,NA,NA,sdf,NA,0,NA,NA,NA,NA,NA,NA,NA,NA,NA,NA,NA,NA,NA,NA,NA,NA,NA,NA,NA
1cb6d,Deep Question,html.Page,5_0_0_0_2_0_0,NA,NA,form submission,4169.62,745928,745925.7,745942.38,750112,750113,2023-04-25T11:40:16Z,750111.82,NULL,Schock,mshtuko,d,NA,NA,NA,blabliblu,NA,NA,0,NA,NA,NA,NA,NA,NA,NA,NA,NA,NA,NA,NA,NA,NA,NA,NA,NA,NA,NA
1cb6d,"""Richtig""-Screen",canvas.Screen,5_0_0_0_2_0_1,NA,NA,skipped,NA,750113,NA,NA,750112,750114,2023-04-25T11:40:16Z,750111.82,NULL,Schock,mshtuko,d,NA,NA,NA,NA,sdf,NA,0,NA,NA,NA,NA,NA,NA,NA,NA,NA,NA,NA,NA,NA,NA,NA,NA,NA,NA,NA
1cb6d,"""Falsch""-Screen",canvas.Screen,5_0_0_0_2_0_2,NA,NA,timeout,4997.02,750114,750111.76,750111.82,755091.56,755092,2023-04-25T11:40:21Z,755108.84,NULL,Schock,mshtuko,d,NA,NA,NA,NA,sdf,0,0,NA,NA,NA,NA,NA,NA,NA,NA,NA,NA,NA,NA,NA,NA,NA,NA,NA,NA,NA
1cb6d,deep,flow.Sequence,5_0_0_0_2_0,NA,NA,completion,9149.1800000001,745928,745925.7,745942.38,755091.56,755093,2023-04-25T11:40:21Z,755108.84,NULL,Schock,mshtuko,d,NA,NA,NA,NA,sdf,NA,0,NA,NA,NA,NA,NA,NA,NA,NA,NA,NA,NA,NA,NA,NA,NA,NA,NA,NA,NA
1cb6d,shallow,flow.Sequence,5_0_0_0_2_1,NA,NA,skipped,NA,755093,NA,NA,755091.56,755093,2023-04-25T11:40:21Z,755108.84,NULL,Schock,mshtuko,d,NA,NA,NA,NA,sdf,NA,0,NA,NA,NA,NA,NA,NA,NA,NA,NA,NA,NA,NA,NA,NA,NA,NA,NA,NA,NA
1cb6d,task,flow.Sequence,5_0_0_0_2,NA,NA,completion,9149.1800000001,745928,745925.7,745942.38,755091.56,755093,2023-04-25T11:40:21Z,755108.84,NULL,Schock,mshtuko,d,NA,NA,NA,NA,sdf,NA,0,NA,NA,NA,NA,NA,NA,NA,NA,NA,NA,NA,NA,NA,NA,NA,NA,NA,NA,NA
1cb6d,Deep Question,html.Page,5_0_0_0_3_0_0,NA,NA,form submission,4381.16,755093,755091.56,755108.84,759490,759491,2023-04-25T11:40:26Z,759489.44,NULL,Atmosphäre,angahewa,d,NA,NA,NA,kshtuko,NA,NA,0,NA,NA,NA,NA,NA,NA,NA,NA,NA,NA,NA,NA,NA,NA,NA,NA,NA,NA,NA
1cb6d,"""Richtig""-Screen",canvas.Screen,5_0_0_0_3_0_1,NA,NA,skipped,NA,759493,NA,NA,759490,759493,2023-04-25T11:40:26Z,759489.44,NULL,Atmosphäre,angahewa,d,NA,NA,NA,NA,sdf,NA,0,NA,NA,NA,NA,NA,NA,NA,NA,NA,NA,NA,NA,NA,NA,NA,NA,NA,NA,NA
1cb6d,"""Falsch""-Screen",canvas.Screen,5_0_0_0_3_0_2,NA,NA,timeout,5002.6200000001,759494,759489.26,759489.44,764475.4,764477,2023-04-25T11:40:31Z,764492.06,NULL,Atmosphäre,angahewa,d,NA,NA,NA,NA,sdf,0,0,NA,NA,NA,NA,NA,NA,NA,NA,NA,NA,NA,NA,NA,NA,NA,NA,NA,NA,NA
1cb6d,deep,flow.Sequence,5_0_0_0_3_0,NA,NA,completion,9366.5600000001,755093,755091.56,755108.84,764475.4,764478,2023-04-25T11:40:31Z,764492.06,NULL,Atmosphäre,angahewa,d,NA,NA,NA,NA,sdf,NA,0,NA,NA,NA,NA,NA,NA,NA,NA,NA,NA,NA,NA,NA,NA,NA,NA,NA,NA,NA
1cb6d,shallow,flow.Sequence,5_0_0_0_3_1,NA,NA,skipped,NA,764479,NA,NA,764475.4,764479,2023-04-25T11:40:31Z,764492.06,NULL,Atmosphäre,angahewa,d,NA,NA,NA,NA,sdf,NA,0,NA,NA,NA,NA,NA,NA,NA,NA,NA,NA,NA,NA,NA,NA,NA,NA,NA,NA,NA
