observation,sender,sender_type,sender_id,response,response_action,ended_on,duration,time_run,time_render,time_show,time_end,time_commit,timestamp,time_switch,distractors,german,swahili,enc,distractor1,distractor2,distractor3,response_2,x,correct,x_2,url_vp,url_sess,meta_labjs_version,meta_location,meta_user_agent,meta_platform,meta_language,meta_locale,meta_time_zone,meta_timezone_offset,meta_screen_width,meta_screen_height,meta_scroll_width,meta_scroll_height,meta_window_inner_width,meta_window_inner_height,meta_device_pixel_ratio,meta_labjs_build_flavor,meta_labjs_build_commit
2eade,Introduction general,canvas.Screen,0,weiter,keypress(q),response,66924.624,2138.2000000477,1070.639,2579052.376,2645977,2645979.9000001,2023-06-10T07:28:11Z,2645980.568,NULL,NA,NA,NA,NA,NA,NA,NA,NA,NA,NA,217,3,20.2.4,https://neurocog.fernuni.ch/studies/vweber/sfink/encoding_immediate/index.html?vp=217&sess=3,"Mozilla/5.0 (Windows NT 10.0; Win64; x64) AppleWebKit/537.36 (KHTML, like Gecko) Chrome/114.0.0.0 Safari/537.36",Win32,de-CH,de,Europe/Zurich,-120,1536,864,1536,706,1536,754,1.25,production,f5b4a49f956347addd546a832a3327688c2c0fef
2eade,Introduction practice,canvas.Screen,1_0,NA,keypress(Space),response,3747.7320001908,2645980.3000002,2645976.984,2645980.568,2649728.3000002,2649729.6000001,2023-06-10T07:28:15Z,2649744.156,NULL,NA,NA,NA,NA,NA,NA,NA,NA,NA,NA,NA,NA,NA,NA,NA,NA,NA,NA,NA,NA,NA,NA,NA,NA,NA,NA,NA,NA,NA
2eade,Deep Question,html.Page,1_1_0_0_0,NA,NA,form submission,3637.0440000477,2649730,2649727.3,2649744.156,2653381.2,2653381.5,2023-06-10T07:28:19Z,2653391.148,"c(""distractor1"", ""distractor2"", ""distractor3"")",Qualität,mtindo,d,NA,NA,NA,h,NA,NA,NA,NA,NA,NA,NA,NA,NA,NA,NA,NA,NA,NA,NA,NA,NA,NA,NA,NA,NA,NA
2eade,"""Richtig""-Screen",canvas.Screen,1_1_0_0_1,NA,NA,skipped,NA,2653383.1000001,NA,NA,2653381.2,2653383.4000001,2023-06-10T07:28:19Z,2653391.148,"c(""distractor1"", ""distractor2"", ""distractor3"")",Qualität,mtindo,d,NA,NA,NA,NA,NA,NA,NA,NA,NA,NA,NA,NA,NA,NA,NA,NA,NA,NA,NA,NA,NA,NA,NA,NA,NA,NA
2eade,"""Falsch""-Screen",canvas.Screen,1_1_0_0_2,NA,NA,timeout,4995.9879999999,2653384.6000001,2653375.092,2653391.148,2658370.938,2658375.7,2023-06-10T07:28:24Z,2658387.136,"c(""distractor1"", ""distractor2"", ""distractor3"")",Qualität,mtindo,d,NA,NA,NA,NA,NA,0,NA,NA,NA,NA,NA,NA,NA,NA,NA,NA,NA,NA,NA,NA,NA,NA,NA,NA,NA,NA
2eade,deep,flow.Sequence,1_1_0_0,NA,NA,completion,8626.7820000001,2649729.9000001,2649727.3,2649744.156,2658370.938,2658376.3000002,2023-06-10T07:28:24Z,2658387.136,"c(""distractor1"", ""distractor2"", ""distractor3"")",Qualität,mtindo,d,NA,NA,NA,NA,NA,NA,NA,NA,NA,NA,NA,NA,NA,NA,NA,NA,NA,NA,NA,NA,NA,NA,NA,NA,NA,NA
2eade,shallow,flow.Sequence,1_1_0_1,NA,NA,skipped,NA,2658376.6000001,NA,NA,2658370.938,2658376.8000002,2023-06-10T07:28:24Z,2658387.136,"c(""distractor1"", ""distractor2"", ""distractor3"")",Qualität,mtindo,d,NA,NA,NA,NA,NA,NA,NA,NA,NA,NA,NA,NA,NA,NA,NA,NA,NA,NA,NA,NA,NA,NA,NA,NA,NA,NA
2eade,task,flow.Sequence,1_1_0,NA,NA,completion,8626.7820000001,2649729.9000001,2649727.3,2649744.156,2658370.938,2658377.1000001,2023-06-10T07:28:24Z,2658387.136,"c(""distractor1"", ""distractor2"", ""distractor3"")",Qualität,mtindo,d,NA,NA,NA,NA,NA,NA,NA,NA,NA,NA,NA,NA,NA,NA,NA,NA,NA,NA,NA,NA,NA,NA,NA,NA,NA,NA
2eade,Deep Question,html.Page,1_1_1_0_0,NA,NA,form submission,3186.5640000477,2658377.5,2658370.938,2658387.136,2661573.7,2661574,2023-06-10T07:28:27Z,2661584.394,"c(""distractor1"", ""distractor2"", ""distractor3"")",Gesundheit,salama,d,NA,NA,NA,hn,NA,NA,NA,NA,NA,NA,NA,NA,NA,NA,NA,NA,NA,NA,NA,NA,NA,NA,NA,NA,NA,NA
2eade,"""Richtig""-Screen",canvas.Screen,1_1_1_0_1,NA,NA,skipped,NA,2661581.7,NA,NA,2661573.7,2661581.9000001,2023-06-10T07:28:27Z,2661584.394,"c(""distractor1"", ""distractor2"", ""distractor3"")",Gesundheit,salama,d,NA,NA,NA,NA,NA,NA,NA,NA,NA,NA,NA,NA,NA,NA,NA,NA,NA,NA,NA,NA,NA,NA,NA,NA,NA,NA
2eade,"""Falsch""-Screen",canvas.Screen,1_1_1_0_2,NA,NA,timeout,4996.3670000001,2661582.7,2661568.027,2661584.394,2666563.921,2666566.1000001,2023-06-10T07:28:32Z,2666580.761,"c(""distractor1"", ""distractor2"", ""distractor3"")",Gesundheit,salama,d,NA,NA,NA,NA,NA,0,NA,NA,NA,NA,NA,NA,NA,NA,NA,NA,NA,NA,NA,NA,NA,NA,NA,NA,NA,NA
2eade,deep,flow.Sequence,1_1_1_0,NA,NA,completion,8176.7850000001,2658377.5,2658370.938,2658387.136,2666563.921,2666566.7,2023-06-10T07:28:32Z,2666580.761,"c(""distractor1"", ""distractor2"", ""distractor3"")",Gesundheit,salama,d,NA,NA,NA,NA,NA,NA,NA,NA,NA,NA,NA,NA,NA,NA,NA,NA,NA,NA,NA,NA,NA,NA,NA,NA,NA,NA
2eade,shallow,flow.Sequence,1_1_1_1,NA,NA,skipped,NA,2666566.9000001,NA,NA,2666563.921,2666567.2,2023-06-10T07:28:32Z,2666580.761,"c(""distractor1"", ""distractor2"", ""distractor3"")",Gesundheit,salama,d,NA,NA,NA,NA,NA,NA,NA,NA,NA,NA,NA,NA,NA,NA,NA,NA,NA,NA,NA,NA,NA,NA,NA,NA,NA,NA
2eade,task,flow.Sequence,1_1_1,NA,NA,completion,8176.7850000001,2658377.3000002,2658370.938,2658387.136,2666563.921,2666567.6000001,2023-06-10T07:28:32Z,2666580.761,"c(""distractor1"", ""distractor2"", ""distractor3"")",Gesundheit,salama,d,NA,NA,NA,NA,NA,NA,NA,NA,NA,NA,NA,NA,NA,NA,NA,NA,NA,NA,NA,NA,NA,NA,NA,NA,NA,NA
2eade,Deep Question,html.Page,1_1_2_0_0,NA,NA,form submission,4718.5390001908,2666567.9000001,2666563.921,2666580.761,2671299.3000002,2671299.6000001,2023-06-10T07:28:37Z,2671326.528,"c(""distractor1"", ""distractor2"", ""distractor3"")",Schatten,kivuli,d,NA,NA,NA,gg,NA,NA,NA,NA,NA,NA,NA,NA,NA,NA,NA,NA,NA,NA,NA,NA,NA,NA,NA,NA,NA,NA
2eade,"""Richtig""-Screen",canvas.Screen,1_1_2_0_1,NA,NA,skipped,NA,2671301.7,NA,NA,2671299.3000002,2671301.9000001,2023-06-10T07:28:37Z,2671326.528,"c(""distractor1"", ""distractor2"", ""distractor3"")",Schatten,kivuli,d,NA,NA,NA,NA,NA,NA,NA,NA,NA,NA,NA,NA,NA,NA,NA,NA,NA,NA,NA,NA,NA,NA,NA,NA,NA,NA
2eade,"""Falsch""-Screen",canvas.Screen,1_1_2_0_2,NA,NA,timeout,4995.7149999999,2671302.6000001,2671310.363,2671326.528,2676306.156,2676307.4000001,2023-06-10T07:28:42Z,2676322.243,"c(""distractor1"", ""distractor2"", ""distractor3"")",Schatten,kivuli,d,NA,NA,NA,NA,NA,0,NA,NA,NA,NA,NA,NA,NA,NA,NA,NA,NA,NA,NA,NA,NA,NA,NA,NA,NA,NA
2eade,deep,flow.Sequence,1_1_2_0,NA,NA,completion,9725.395,2666567.8000002,2666563.921,2666580.761,2676306.156,2676307.8000002,2023-06-10T07:28:42Z,2676322.243,"c(""distractor1"", ""distractor2"", ""distractor3"")",Schatten,kivuli,d,NA,NA,NA,NA,NA,NA,NA,NA,NA,NA,NA,NA,NA,NA,NA,NA,NA,NA,NA,NA,NA,NA,NA,NA,NA,NA
2eade,shallow,flow.Sequence,1_1_2_1,NA,NA,skipped,NA,2676308,NA,NA,2676306.156,2676308.2,2023-06-10T07:28:42Z,2676322.243,"c(""distractor1"", ""distractor2"", ""distractor3"")",Schatten,kivuli,d,NA,NA,NA,NA,NA,NA,NA,NA,NA,NA,NA,NA,NA,NA,NA,NA,NA,NA,NA,NA,NA,NA,NA,NA,NA,NA
2eade,task,flow.Sequence,1_1_2,NA,NA,completion,9725.395,2666567.8000002,2666563.921,2666580.761,2676306.156,2676308.4000001,2023-06-10T07:28:42Z,2676322.243,"c(""distractor1"", ""distractor2"", ""distractor3"")",Schatten,kivuli,d,NA,NA,NA,NA,NA,NA,NA,NA,NA,NA,NA,NA,NA,NA,NA,NA,NA,NA,NA,NA,NA,NA,NA,NA,NA,NA
2eade,deep,flow.Sequence,1_1_3_0,NA,NA,skipped,NA,2676308.7,NA,NA,2676306.156,2676309,2023-06-10T07:28:42Z,2676322.243,"c(""distractor1"", ""distractor2"", ""distractor3"")",Rückhalt,msaada,s,muhula,auwali,kiwimbe,NA,NA,NA,NA,NA,NA,NA,NA,NA,NA,NA,NA,NA,NA,NA,NA,NA,NA,NA,NA,NA,NA,NA
2eade,Shallow Question,html.Page,1_1_3_1_0,NA,NA,form submission,3608.7570000002,2676309.2,2676306.156,2676322.243,2679931,2679931.2,2023-06-10T07:28:45Z,2679935.963,"c(""distractor1"", ""distractor2"", ""distractor3"")",Rückhalt,msaada,s,muhula,auwali,kiwimbe,muhula,NA,NA,NA,NA,NA,NA,NA,NA,NA,NA,NA,NA,NA,NA,NA,NA,NA,NA,NA,NA,NA,NA
2eade,"""Richtig""-Screen",canvas.Screen,1_1_3_1_1,NA,NA,skipped,NA,2679932.9000001,NA,NA,2679931,2679933.1000001,2023-06-10T07:28:45Z,2679935.963,"c(""distractor1"", ""distractor2"", ""distractor3"")",Rückhalt,msaada,s,muhula,auwali,kiwimbe,NA,NA,NA,NA,NA,NA,NA,NA,NA,NA,NA,NA,NA,NA,NA,NA,NA,NA,NA,NA,NA,NA,NA
2eade,"""Falsch""-Screen",canvas.Screen,1_1_3_1_2,NA,NA,timeout,4995.9840000002,2679933.8000002,2679919.848,2679935.963,2684915.753,2684916.7,2023-06-10T07:28:50Z,2684931.947,"c(""distractor1"", ""distractor2"", ""distractor3"")",Rückhalt,msaada,s,muhula,auwali,kiwimbe,NA,NA,0,NA,NA,NA,NA,NA,NA,NA,NA,NA,NA,NA,NA,NA,NA,NA,NA,NA,NA,NA,NA
2eade,shallow,flow.Sequence,1_1_3_1,NA,NA,completion,8593.5100000002,2676309.1000001,2676306.156,2676322.243,2684915.753,2684917.3000002,2023-06-10T07:28:50Z,2684931.947,"c(""distractor1"", ""distractor2"", ""distractor3"")",Rückhalt,msaada,s,muhula,auwali,kiwimbe,NA,NA,NA,NA,NA,NA,NA,NA,NA,NA,NA,NA,NA,NA,NA,NA,NA,NA,NA,NA,NA,NA,NA
2eade,task,flow.Sequence,1_1_3,NA,NA,completion,8593.5100000002,2676308.7,2676306.156,2676322.243,2684915.753,2684917.6000001,2023-06-10T07:28:50Z,2684931.947,"c(""distractor1"", ""distractor2"", ""distractor3"")",Rückhalt,msaada,s,muhula,auwali,kiwimbe,NA,NA,NA,NA,NA,NA,NA,NA,NA,NA,NA,NA,NA,NA,NA,NA,NA,NA,NA,NA,NA,NA,NA
2eade,deep,flow.Sequence,1_1_4_0,NA,NA,skipped,NA,2684917.9000001,NA,NA,2684915.753,2684918.2,2023-06-10T07:28:50Z,2684931.947,"c(""distractor1"", ""distractor2"", ""distractor3"")",Kritik,lawama,s,dereva,nafasi,mawazo,NA,NA,NA,NA,NA,NA,NA,NA,NA,NA,NA,NA,NA,NA,NA,NA,NA,NA,NA,NA,NA,NA,NA
2eade,Shallow Question,html.Page,1_1_4_1_0,NA,NA,form submission,2851.9530000952,2684918.5,2684915.753,2684931.947,2687783.9000001,2687784.1000001,2023-06-10T07:28:53Z,2687796.642,"c(""distractor1"", ""distractor2"", ""distractor3"")",Kritik,lawama,s,dereva,nafasi,mawazo,nafasi,NA,NA,NA,NA,NA,NA,NA,NA,NA,NA,NA,NA,NA,NA,NA,NA,NA,NA,NA,NA,NA,NA
2eade,"""Richtig""-Screen",canvas.Screen,1_1_4_1_1,NA,NA,skipped,NA,2687785.9000001,NA,NA,2687783.9000001,2687786,2023-06-10T07:28:53Z,2687796.642,"c(""distractor1"", ""distractor2"", ""distractor3"")",Kritik,lawama,s,dereva,nafasi,mawazo,NA,NA,NA,NA,NA,NA,NA,NA,NA,NA,NA,NA,NA,NA,NA,NA,NA,NA,NA,NA,NA,NA,NA
2eade,"""Falsch""-Screen",canvas.Screen,1_1_4_1_2,NA,NA,timeout,4996.1150000002,2687786.8000002,2687780.05,2687796.642,2692775.841,2692776.7,2023-06-10T07:28:58Z,2692792.757,"c(""distractor1"", ""distractor2"", ""distractor3"")",Kritik,lawama,s,dereva,nafasi,mawazo,NA,NA,0,NA,NA,NA,NA,NA,NA,NA,NA,NA,NA,NA,NA,NA,NA,NA,NA,NA,NA,NA,NA
2eade,shallow,flow.Sequence,1_1_4_1,NA,NA,completion,7843.8939999999,2684918.4000001,2684915.753,2684931.947,2692775.841,2692777.3000002,2023-06-10T07:28:58Z,2692792.757,"c(""distractor1"", ""distractor2"", ""distractor3"")",Kritik,lawama,s,dereva,nafasi,mawazo,NA,NA,NA,NA,NA,NA,NA,NA,NA,NA,NA,NA,NA,NA,NA,NA,NA,NA,NA,NA,NA,NA,NA
2eade,task,flow.Sequence,1_1_4,NA,NA,completion,7843.8939999999,2684917.7,2684915.753,2684931.947,2692775.841,2692777.6000001,2023-06-10T07:28:58Z,2692792.757,"c(""distractor1"", ""distractor2"", ""distractor3"")",Kritik,lawama,s,dereva,nafasi,mawazo,NA,NA,NA,NA,NA,NA,NA,NA,NA,NA,NA,NA,NA,NA,NA,NA,NA,NA,NA,NA,NA,NA,NA
2eade,deep,flow.Sequence,1_1_5_0,NA,NA,skipped,NA,2692777.8000002,NA,NA,2692775.841,2692778,2023-06-10T07:28:58Z,2692792.757,"c(""distractor1"", ""distractor2"", ""distractor3"")",Gegenwart,hadhara,s,katiba,jokofu,mikopo,NA,NA,NA,NA,NA,NA,NA,NA,NA,NA,NA,NA,NA,NA,NA,NA,NA,NA,NA,NA,NA,NA,NA
2eade,Shallow Question,html.Page,1_1_5_1_0,NA,NA,form submission,2406.8430001428,2692778.3000002,2692775.841,2692792.757,2695199.6000001,2695199.8000002,2023-06-10T07:29:00Z,2695206.747,"c(""distractor1"", ""distractor2"", ""distractor3"")",Gegenwart,hadhara,s,katiba,jokofu,mikopo,jokofu,NA,NA,NA,NA,NA,NA,NA,NA,NA,NA,NA,NA,NA,NA,NA,NA,NA,NA,NA,NA,NA,NA
2eade,"""Richtig""-Screen",canvas.Screen,1_1_5_1_1,NA,NA,skipped,NA,2695201.9000001,NA,NA,2695199.6000001,2695202,2023-06-10T07:29:00Z,2695206.747,"c(""distractor1"", ""distractor2"", ""distractor3"")",Gegenwart,hadhara,s,katiba,jokofu,mikopo,NA,NA,NA,NA,NA,NA,NA,NA,NA,NA,NA,NA,NA,NA,NA,NA,NA,NA,NA,NA,NA,NA,NA
2eade,"""Falsch""-Screen",canvas.Screen,1_1_5_1_2,NA,NA,timeout,4995.926,2695202.6000001,2695190.299,2695206.747,2700186.027,2700187.1000001,2023-06-10T07:29:05Z,2700202.673,"c(""distractor1"", ""distractor2"", ""distractor3"")",Gegenwart,hadhara,s,katiba,jokofu,mikopo,NA,NA,0,NA,NA,NA,NA,NA,NA,NA,NA,NA,NA,NA,NA,NA,NA,NA,NA,NA,NA,NA,NA
2eade,shallow,flow.Sequence,1_1_5_1,NA,NA,completion,7393.2699999996,2692778.2,2692775.841,2692792.757,2700186.027,2700187.7,2023-06-10T07:29:05Z,2700202.673,"c(""distractor1"", ""distractor2"", ""distractor3"")",Gegenwart,hadhara,s,katiba,jokofu,mikopo,NA,NA,NA,NA,NA,NA,NA,NA,NA,NA,NA,NA,NA,NA,NA,NA,NA,NA,NA,NA,NA,NA,NA
2eade,task,flow.Sequence,1_1_5,NA,NA,completion,7393.2699999996,2692777.8000002,2692775.841,2692792.757,2700186.027,2700188.1000001,2023-06-10T07:29:05Z,2700202.673,"c(""distractor1"", ""distractor2"", ""distractor3"")",Gegenwart,hadhara,s,katiba,jokofu,mikopo,NA,NA,NA,NA,NA,NA,NA,NA,NA,NA,NA,NA,NA,NA,NA,NA,NA,NA,NA,NA,NA,NA,NA
2eade,block,flow.Loop,1_1,NA,NA,completion,50441.871,2649729.9000001,2649727.3,2649744.156,2700186.027,2700188.7,2023-06-10T07:29:05Z,2700202.673,"c(""distractor1"", ""distractor2"", ""distractor3"")",NA,NA,NA,NA,NA,NA,NA,NA,NA,NA,NA,NA,NA,NA,NA,NA,NA,NA,NA,NA,NA,NA,NA,NA,NA,NA,NA,NA,NA
2eade,Practice,flow.Sequence,1,NA,NA,completion,54205.459,2645980.3000002,2645976.984,2645980.568,2700186.027,2700189.2,2023-06-10T07:29:05Z,2700202.673,NULL,NA,NA,NA,NA,NA,NA,NA,NA,NA,NA,NA,NA,NA,NA,NA,NA,NA,NA,NA,NA,NA,NA,NA,NA,NA,NA,NA,NA,NA
2eade,Experiment start,canvas.Screen,2,weiter,keypress(q),response,7088.4270001431,2700189.4000001,2700186.027,2700202.673,2707291.1000001,2707292.4000001,2023-06-10T07:29:13Z,2707397.445,NULL,NA,NA,NA,NA,NA,NA,NA,NA,NA,NA,NA,NA,NA,NA,NA,NA,NA,NA,NA,NA,NA,NA,NA,NA,NA,NA,NA,NA,NA
2eade,Deep Question,html.Page,3_0_0_0_0_0_0,NA,NA,form submission,3216.9550000955,2707379.9000001,2707380.023,2707397.445,2710614.4000001,2710614.7,2023-06-10T07:29:16Z,2710628.117,NULL,Notfall,dharura,d,NA,NA,NA,j,NA,NA,0,NA,NA,NA,NA,NA,NA,NA,NA,NA,NA,NA,NA,NA,NA,NA,NA,NA,NA,NA
2eade,"""Richtig""-Screen",canvas.Screen,3_0_0_0_0_0_1,NA,NA,skipped,NA,2710615.4000001,NA,NA,2710614.4000001,2710615.5,2023-06-10T07:29:16Z,2710628.117,NULL,Notfall,dharura,d,NA,NA,NA,NA,sdf,NA,0,NA,NA,NA,NA,NA,NA,NA,NA,NA,NA,NA,NA,NA,NA,NA,NA,NA,NA,NA
2eade,"""Falsch""-Screen",canvas.Screen,3_0_0_0_0_0_2,NA,NA,timeout,4995.8259999999,2710616.1000001,2710610.991,2710628.117,2715607.201,2715608.2,2023-06-10T07:29:21Z,2715623.943,NULL,Notfall,dharura,d,NA,NA,NA,NA,sdf,0,0,NA,NA,NA,NA,NA,NA,NA,NA,NA,NA,NA,NA,NA,NA,NA,NA,NA,NA,NA
2eade,deep,flow.Sequence,3_0_0_0_0_0,NA,NA,completion,8209.7560000001,2707379.9000001,2707380.023,2707397.445,2715607.201,2715608.5,2023-06-10T07:29:21Z,2715623.943,NULL,Notfall,dharura,d,NA,NA,NA,NA,sdf,NA,0,NA,NA,NA,NA,NA,NA,NA,NA,NA,NA,NA,NA,NA,NA,NA,NA,NA,NA,NA
2eade,shallow,flow.Sequence,3_0_0_0_0_1,NA,NA,skipped,NA,2715608.7,NA,NA,2715607.201,2715608.9000001,2023-06-10T07:29:21Z,2715623.943,NULL,Notfall,dharura,d,NA,NA,NA,NA,sdf,NA,0,NA,NA,NA,NA,NA,NA,NA,NA,NA,NA,NA,NA,NA,NA,NA,NA,NA,NA,NA
2eade,task,flow.Sequence,3_0_0_0_0,NA,NA,completion,8209.7560000001,2707379.9000001,2707380.023,2707397.445,2715607.201,2715609.1000001,2023-06-10T07:29:21Z,2715623.943,NULL,Notfall,dharura,d,NA,NA,NA,NA,sdf,NA,0,NA,NA,NA,NA,NA,NA,NA,NA,NA,NA,NA,NA,NA,NA,NA,NA,NA,NA,NA
2eade,deep,flow.Sequence,3_0_0_0_1_0,NA,NA,skipped,NA,2715609.3000002,NA,NA,2715607.201,2715609.4000001,2023-06-10T07:29:21Z,2715623.943,NULL,Wohlstand,mafanikio,s,chimbuko,kumbuko,mapwaji,NA,sdf,NA,0,NA,NA,NA,NA,NA,NA,NA,NA,NA,NA,NA,NA,NA,NA,NA,NA,NA,NA,NA
2eade,Shallow Question,html.Page,3_0_0_0_1_1_0,NA,NA,form submission,3513.057,2715609.6000001,2715607.201,2715623.943,2719137,2719137.2,2023-06-10T07:29:24Z,2719155.329,NULL,Wohlstand,mafanikio,s,chimbuko,kumbuko,mapwaji,chimbuko,NA,NA,0,NA,NA,NA,NA,NA,NA,NA,NA,NA,NA,NA,NA,NA,NA,NA,NA,NA,NA,NA
2eade,"""Richtig""-Screen",canvas.Screen,3_0_0_0_1_1_1,NA,NA,skipped,NA,2719138.9000001,NA,NA,2719137,2719139.2,2023-06-10T07:29:24Z,2719155.329,NULL,Wohlstand,mafanikio,s,chimbuko,kumbuko,mapwaji,NA,sdf,NA,0,NA,NA,NA,NA,NA,NA,NA,NA,NA,NA,NA,NA,NA,NA,NA,NA,NA,NA,NA
2eade,"""Falsch""-Screen",canvas.Screen,3_0_0_0_1_1_2,NA,NA,timeout,4994.2460000003,2719139.8000002,2719120.523,2719155.329,2724132.987,2724133.9000001,2023-06-10T07:29:29Z,2724149.575,NULL,Wohlstand,mafanikio,s,chimbuko,kumbuko,mapwaji,NA,sdf,0,0,NA,NA,NA,NA,NA,NA,NA,NA,NA,NA,NA,NA,NA,NA,NA,NA,NA,NA,NA
2eade,shallow,flow.Sequence,3_0_0_0_1_1,NA,NA,completion,8509.0440000002,2715609.6000001,2715607.201,2715623.943,2724132.987,2724134.3000002,2023-06-10T07:29:29Z,2724149.575,NULL,Wohlstand,mafanikio,s,chimbuko,kumbuko,mapwaji,NA,sdf,NA,0,NA,NA,NA,NA,NA,NA,NA,NA,NA,NA,NA,NA,NA,NA,NA,NA,NA,NA,NA
2eade,task,flow.Sequence,3_0_0_0_1,NA,NA,completion,8509.0440000002,2715609.2,2715607.201,2715623.943,2724132.987,2724134.7,2023-06-10T07:29:29Z,2724149.575,NULL,Wohlstand,mafanikio,s,chimbuko,kumbuko,mapwaji,NA,sdf,NA,0,NA,NA,NA,NA,NA,NA,NA,NA,NA,NA,NA,NA,NA,NA,NA,NA,NA,NA,NA
2eade,deep,flow.Sequence,3_0_0_0_2_0,NA,NA,skipped,NA,2724134.8000002,NA,NA,2724132.987,2724135.1000001,2023-06-10T07:29:29Z,2724149.575,NULL,Stimmung,kinyongo,s,kilekile,kisambo,madhehebu,NA,sdf,NA,0,NA,NA,NA,NA,NA,NA,NA,NA,NA,NA,NA,NA,NA,NA,NA,NA,NA,NA,NA
2eade,Shallow Question,html.Page,3_0_0_0_2_1_0,NA,NA,form submission,3568.5250001429,2724135.2,2724132.987,2724149.575,2727718.1000001,2727718.2,2023-06-10T07:29:33Z,2727730.443,NULL,Stimmung,kinyongo,s,kilekile,kisambo,madhehebu,kilekile,NA,NA,0,NA,NA,NA,NA,NA,NA,NA,NA,NA,NA,NA,NA,NA,NA,NA,NA,NA,NA,NA
2eade,"""Richtig""-Screen",canvas.Screen,3_0_0_0_2_1_1,NA,NA,skipped,NA,2727720,NA,NA,2727718.1000001,2727720.1000001,2023-06-10T07:29:33Z,2727730.443,NULL,Stimmung,kinyongo,s,kilekile,kisambo,madhehebu,NA,sdf,NA,0,NA,NA,NA,NA,NA,NA,NA,NA,NA,NA,NA,NA,NA,NA,NA,NA,NA,NA,NA
2eade,"""Falsch""-Screen",canvas.Screen,3_0_0_0_2_1_2,NA,NA,timeout,4996.125,2727720.6000001,2727713.324,2727730.443,2732709.659,2732710.7,2023-06-10T07:29:38Z,2732726.568,NULL,Stimmung,kinyongo,s,kilekile,kisambo,madhehebu,NA,sdf,0,0,NA,NA,NA,NA,NA,NA,NA,NA,NA,NA,NA,NA,NA,NA,NA,NA,NA,NA,NA
2eade,shallow,flow.Sequence,3_0_0_0_2_1,NA,NA,completion,8560.0839999998,2724135.2,2724132.987,2724149.575,2732709.659,2732711.1000001,2023-06-10T07:29:38Z,2732726.568,NULL,Stimmung,kinyongo,s,kilekile,kisambo,madhehebu,NA,sdf,NA,0,NA,NA,NA,NA,NA,NA,NA,NA,NA,NA,NA,NA,NA,NA,NA,NA,NA,NA,NA
2eade,task,flow.Sequence,3_0_0_0_2,NA,NA,completion,8560.0839999998,2724134.8000002,2724132.987,2724149.575,2732709.659,2732711.3000002,2023-06-10T07:29:38Z,2732726.568,NULL,Stimmung,kinyongo,s,kilekile,kisambo,madhehebu,NA,sdf,NA,0,NA,NA,NA,NA,NA,NA,NA,NA,NA,NA,NA,NA,NA,NA,NA,NA,NA,NA,NA
2eade,deep,flow.Sequence,3_0_0_0_3_0,NA,NA,skipped,NA,2732711.5,NA,NA,2732709.659,2732711.7,2023-06-10T07:29:38Z,2732726.568,NULL,Betrüger,mdanganyifu,s,mwanamuziki,wastani,mahakama,NA,sdf,NA,0,NA,NA,NA,NA,NA,NA,NA,NA,NA,NA,NA,NA,NA,NA,NA,NA,NA,NA,NA
2eade,Shallow Question,html.Page,3_0_0_0_3_1_0,NA,NA,form submission,3282.7320001908,2732711.9000001,2732709.659,2732726.568,2736009.3000002,2736009.6000001,2023-06-10T07:29:41Z,2736023.471,NULL,Betrüger,mdanganyifu,s,mwanamuziki,wastani,mahakama,mwanamuziki,NA,NA,0,NA,NA,NA,NA,NA,NA,NA,NA,NA,NA,NA,NA,NA,NA,NA,NA,NA,NA,NA
2eade,"""Richtig""-Screen",canvas.Screen,3_0_0_0_3_1_1,NA,NA,skipped,NA,2736011.5,NA,NA,2736009.3000002,2736011.7,2023-06-10T07:29:41Z,2736023.471,NULL,Betrüger,mdanganyifu,s,mwanamuziki,wastani,mahakama,NA,sdf,NA,0,NA,NA,NA,NA,NA,NA,NA,NA,NA,NA,NA,NA,NA,NA,NA,NA,NA,NA,NA
2eade,"""Falsch""-Screen",canvas.Screen,3_0_0_0_3_1_2,NA,NA,timeout,4995.6200000001,2736012.2,2736007.021,2736023.471,2741002.947,2741003.4000001,2023-06-10T07:29:46Z,2741019.091,NULL,Betrüger,mdanganyifu,s,mwanamuziki,wastani,mahakama,NA,sdf,0,0,NA,NA,NA,NA,NA,NA,NA,NA,NA,NA,NA,NA,NA,NA,NA,NA,NA,NA,NA
2eade,shallow,flow.Sequence,3_0_0_0_3_1,NA,NA,completion,8276.3790000002,2732711.8000002,2732709.659,2732726.568,2741002.947,2741003.8000002,2023-06-10T07:29:46Z,2741019.091,NULL,Betrüger,mdanganyifu,s,mwanamuziki,wastani,mahakama,NA,sdf,NA,0,NA,NA,NA,NA,NA,NA,NA,NA,NA,NA,NA,NA,NA,NA,NA,NA,NA,NA,NA
2eade,task,flow.Sequence,3_0_0_0_3,NA,NA,completion,8276.3790000002,2732711.5,2732709.659,2732726.568,2741002.947,2741004,2023-06-10T07:29:46Z,2741019.091,NULL,Betrüger,mdanganyifu,s,mwanamuziki,wastani,mahakama,NA,sdf,NA,0,NA,NA,NA,NA,NA,NA,NA,NA,NA,NA,NA,NA,NA,NA,NA,NA,NA,NA,NA
2eade,deep,flow.Sequence,3_0_0_0_4_0,NA,NA,skipped,NA,2741004.2,NA,NA,2741002.947,2741004.3000002,2023-06-10T07:29:46Z,2741019.091,NULL,Ergänzung,kijalizo,s,ulaghai,mustarehe,matangazo,NA,sdf,NA,0,NA,NA,NA,NA,NA,NA,NA,NA,NA,NA,NA,NA,NA,NA,NA,NA,NA,NA,NA
2eade,Shallow Question,html.Page,3_0_0_0_4_1_0,NA,NA,form submission,4404.2090001907,2741004.3000002,2741002.947,2741019.091,2745423.3000002,2745423.6000001,2023-06-10T07:29:51Z,2745432.096,NULL,Ergänzung,kijalizo,s,ulaghai,mustarehe,matangazo,mustarehe,NA,NA,0,NA,NA,NA,NA,NA,NA,NA,NA,NA,NA,NA,NA,NA,NA,NA,NA,NA,NA,NA
2eade,"""Richtig""-Screen",canvas.Screen,3_0_0_0_4_1_1,NA,NA,skipped,NA,2745425.1000001,NA,NA,2745423.3000002,2745425.2,2023-06-10T07:29:51Z,2745432.096,NULL,Ergänzung,kijalizo,s,ulaghai,mustarehe,matangazo,NA,sdf,NA,0,NA,NA,NA,NA,NA,NA,NA,NA,NA,NA,NA,NA,NA,NA,NA,NA,NA,NA,NA
2eade,"""Falsch""-Screen",canvas.Screen,3_0_0_0_4_1_2,NA,NA,timeout,4995.963,2745425.6000001,2745415.919,2745432.096,2750411.824,2750412.8000002,2023-06-10T07:29:56Z,2750428.059,NULL,Ergänzung,kijalizo,s,ulaghai,mustarehe,matangazo,NA,sdf,0,0,NA,NA,NA,NA,NA,NA,NA,NA,NA,NA,NA,NA,NA,NA,NA,NA,NA,NA,NA
2eade,shallow,flow.Sequence,3_0_0_0_4_1,NA,NA,completion,9392.733,2741004.3000002,2741002.947,2741019.091,2750411.824,2750413.2,2023-06-10T07:29:56Z,2750428.059,NULL,Ergänzung,kijalizo,s,ulaghai,mustarehe,matangazo,NA,sdf,NA,0,NA,NA,NA,NA,NA,NA,NA,NA,NA,NA,NA,NA,NA,NA,NA,NA,NA,NA,NA
2eade,task,flow.Sequence,3_0_0_0_4,NA,NA,completion,9392.733,2741004.1000001,2741002.947,2741019.091,2750411.824,2750413.5,2023-06-10T07:29:56Z,2750428.059,NULL,Ergänzung,kijalizo,s,ulaghai,mustarehe,matangazo,NA,sdf,NA,0,NA,NA,NA,NA,NA,NA,NA,NA,NA,NA,NA,NA,NA,NA,NA,NA,NA,NA,NA
2eade,Deep Question,html.Page,3_0_0_0_5_0_0,NA,NA,form submission,3758.6410000478,2750413.8000002,2750411.824,2750428.059,2754186.7,2754186.9000001,2023-06-10T07:29:59Z,2754191.506,NULL,Orientierung,urekebisho,d,NA,NA,NA,j,NA,NA,0,NA,NA,NA,NA,NA,NA,NA,NA,NA,NA,NA,NA,NA,NA,NA,NA,NA,NA,NA
2eade,"""Richtig""-Screen",canvas.Screen,3_0_0_0_5_0_1,NA,NA,skipped,NA,2754189.3000002,NA,NA,2754186.7,2754189.5,2023-06-10T07:29:59Z,2754191.506,NULL,Orientierung,urekebisho,d,NA,NA,NA,NA,sdf,NA,0,NA,NA,NA,NA,NA,NA,NA,NA,NA,NA,NA,NA,NA,NA,NA,NA,NA,NA,NA
2eade,"""Falsch""-Screen",canvas.Screen,3_0_0_0_5_0_2,NA,NA,timeout,4996.287,2754190.3000002,2754175.426,2754191.506,2759170.802,2759171.8000002,2023-06-10T07:30:04Z,2759187.793,NULL,Orientierung,urekebisho,d,NA,NA,NA,NA,sdf,0,0,NA,NA,NA,NA,NA,NA,NA,NA,NA,NA,NA,NA,NA,NA,NA,NA,NA,NA,NA
2eade,deep,flow.Sequence,3_0_0_0_5_0,NA,NA,completion,8742.7430000002,2750413.7,2750411.824,2750428.059,2759170.802,2759172.4000001,2023-06-10T07:30:04Z,2759187.793,NULL,Orientierung,urekebisho,d,NA,NA,NA,NA,sdf,NA,0,NA,NA,NA,NA,NA,NA,NA,NA,NA,NA,NA,NA,NA,NA,NA,NA,NA,NA,NA
2eade,shallow,flow.Sequence,3_0_0_0_5_1,NA,NA,skipped,NA,2759172.7,NA,NA,2759170.802,2759173.1000001,2023-06-10T07:30:04Z,2759187.793,NULL,Orientierung,urekebisho,d,NA,NA,NA,NA,sdf,NA,0,NA,NA,NA,NA,NA,NA,NA,NA,NA,NA,NA,NA,NA,NA,NA,NA,NA,NA,NA
2eade,task,flow.Sequence,3_0_0_0_5,NA,NA,completion,8742.7430000002,2750413.6000001,2750411.824,2750428.059,2759170.802,2759175,2023-06-10T07:30:04Z,2759187.793,NULL,Orientierung,urekebisho,d,NA,NA,NA,NA,sdf,NA,0,NA,NA,NA,NA,NA,NA,NA,NA,NA,NA,NA,NA,NA,NA,NA,NA,NA,NA,NA
2eade,Deep Question,html.Page,3_0_0_0_6_0_0,NA,NA,form submission,2178.5070001907,2759175.3000002,2759170.802,2759187.793,2761366.3000002,2761366.5,2023-06-10T07:30:07Z,2761385.757,NULL,Vergnügen,kichekesho,d,NA,NA,NA,b,NA,NA,0,NA,NA,NA,NA,NA,NA,NA,NA,NA,NA,NA,NA,NA,NA,NA,NA,NA,NA,NA
2eade,"""Richtig""-Screen",canvas.Screen,3_0_0_0_6_0_1,NA,NA,skipped,NA,2761368.3000002,NA,NA,2761366.3000002,2761368.5,2023-06-10T07:30:07Z,2761385.757,NULL,Vergnügen,kichekesho,d,NA,NA,NA,NA,sdf,NA,0,NA,NA,NA,NA,NA,NA,NA,NA,NA,NA,NA,NA,NA,NA,NA,NA,NA,NA,NA
2eade,"""Falsch""-Screen",canvas.Screen,3_0_0_0_6_0_2,NA,NA,timeout,4996.2829999998,2761369.4000001,2761368.901,2761385.757,2766364.914,2766366,2023-06-10T07:30:12Z,2766382.04,NULL,Vergnügen,kichekesho,d,NA,NA,NA,NA,sdf,0,0,NA,NA,NA,NA,NA,NA,NA,NA,NA,NA,NA,NA,NA,NA,NA,NA,NA,NA,NA
2eade,deep,flow.Sequence,3_0_0_0_6_0,NA,NA,completion,7177.1209999998,2759175.2,2759170.802,2759187.793,2766364.914,2766366.5,2023-06-10T07:30:12Z,2766382.04,NULL,Vergnügen,kichekesho,d,NA,NA,NA,NA,sdf,NA,0,NA,NA,NA,NA,NA,NA,NA,NA,NA,NA,NA,NA,NA,NA,NA,NA,NA,NA,NA
2eade,shallow,flow.Sequence,3_0_0_0_6_1,NA,NA,skipped,NA,2766366.6000001,NA,NA,2766364.914,2766366.8000002,2023-06-10T07:30:12Z,2766382.04,NULL,Vergnügen,kichekesho,d,NA,NA,NA,NA,sdf,NA,0,NA,NA,NA,NA,NA,NA,NA,NA,NA,NA,NA,NA,NA,NA,NA,NA,NA,NA,NA
2eade,task,flow.Sequence,3_0_0_0_6,NA,NA,completion,7177.1209999998,2759175.1000001,2759170.802,2759187.793,2766364.914,2766367.1000001,2023-06-10T07:30:12Z,2766382.04,NULL,Vergnügen,kichekesho,d,NA,NA,NA,NA,sdf,NA,0,NA,NA,NA,NA,NA,NA,NA,NA,NA,NA,NA,NA,NA,NA,NA,NA,NA,NA,NA
2eade,Deep Question,html.Page,3_0_0_0_7_0_0,NA,NA,form submission,1799.3600000953,2766367.4000001,2766364.914,2766382.04,2768181.4000001,2768181.7,2023-06-10T07:30:13Z,2768196.933,NULL,Respekt,heshima,d,NA,NA,NA,g,NA,NA,0,NA,NA,NA,NA,NA,NA,NA,NA,NA,NA,NA,NA,NA,NA,NA,NA,NA,NA,NA
2eade,"""Richtig""-Screen",canvas.Screen,3_0_0_0_7_0_1,NA,NA,skipped,NA,2768183.7,NA,NA,2768181.4000001,2768183.8000002,2023-06-10T07:30:13Z,2768196.933,NULL,Respekt,heshima,d,NA,NA,NA,NA,sdf,NA,0,NA,NA,NA,NA,NA,NA,NA,NA,NA,NA,NA,NA,NA,NA,NA,NA,NA,NA,NA
2eade,"""Falsch""-Screen",canvas.Screen,3_0_0_0_7_0_2,NA,NA,timeout,4995.6089999997,2768184.8000002,2768180.685,2768196.933,2773176.123,2773177.1000001,2023-06-10T07:30:18Z,2773192.542,NULL,Respekt,heshima,d,NA,NA,NA,NA,sdf,0,0,NA,NA,NA,NA,NA,NA,NA,NA,NA,NA,NA,NA,NA,NA,NA,NA,NA,NA,NA
2eade,deep,flow.Sequence,3_0_0_0_7_0,NA,NA,completion,6794.0830000001,2766367.4000001,2766364.914,2766382.04,2773176.123,2773177.5,2023-06-10T07:30:18Z,2773192.542,NULL,Respekt,heshima,d,NA,NA,NA,NA,sdf,NA,0,NA,NA,NA,NA,NA,NA,NA,NA,NA,NA,NA,NA,NA,NA,NA,NA,NA,NA,NA
2eade,shallow,flow.Sequence,3_0_0_0_7_1,NA,NA,skipped,NA,2773177.6000001,NA,NA,2773176.123,2773177.8000002,2023-06-10T07:30:18Z,2773192.542,NULL,Respekt,heshima,d,NA,NA,NA,NA,sdf,NA,0,NA,NA,NA,NA,NA,NA,NA,NA,NA,NA,NA,NA,NA,NA,NA,NA,NA,NA,NA
2eade,task,flow.Sequence,3_0_0_0_7,NA,NA,completion,6794.0830000001,2766367.3000002,2766364.914,2766382.04,2773176.123,2773178.1000001,2023-06-10T07:30:18Z,2773192.542,NULL,Respekt,heshima,d,NA,NA,NA,NA,sdf,NA,0,NA,NA,NA,NA,NA,NA,NA,NA,NA,NA,NA,NA,NA,NA,NA,NA,NA,NA,NA
2eade,block,flow.Loop,3_0_0_0,NA,NA,completion,65778.678,2707379.9000001,2707380.023,2707397.445,2773176.123,2773178.4000001,2023-06-10T07:30:18Z,2773192.542,NULL,NA,NA,NA,NA,NA,NA,NA,sdf,NA,0,NA,NA,NA,NA,NA,NA,NA,NA,NA,NA,NA,NA,NA,NA,NA,NA,NA,NA,NA
2eade,weiter,canvas.Screen,3_0_0_1,sdf,keypress(Space),response,822.4580000001,2773178.6000001,2773176.123,2773192.542,2774015,2774016.1000001,2023-06-10T07:30:19Z,2774075.637,NULL,NA,NA,NA,NA,NA,NA,NA,sdf,NA,0,NA,NA,NA,NA,NA,NA,NA,NA,NA,NA,NA,NA,NA,NA,NA,NA,NA,NA,NA
2eade,check continue,flow.Sequence,3_0_0,NA,NA,completion,66617.555,2707379.8000002,2707380.023,2707397.445,2774015,2774016.5,2023-06-10T07:30:19Z,2774075.637,NULL,NA,NA,NA,NA,NA,NA,NA,sdf,NA,0,NA,NA,NA,NA,NA,NA,NA,NA,NA,NA,NA,NA,NA,NA,NA,NA,NA,NA,NA
2eade,deep,flow.Sequence,3_0_1_0_0_0,NA,NA,skipped,NA,2774061.7,NA,NA,2774015,2774061.9000001,2023-06-10T07:30:19Z,2774075.637,NULL,Ergänzung,kijalizo,s,ulaghai,mustarehe,matangazo,NA,sdfdsf,NA,1,NA,NA,NA,NA,NA,NA,NA,NA,NA,NA,NA,NA,NA,NA,NA,NA,NA,NA,NA
2eade,Shallow Question,html.Page,3_0_1_0_0_1_0,NA,NA,form submission,6357.9630001428995,2774061.9000001,2774059.158,2774075.637,2780433.6000001,2780433.8000002,2023-06-10T07:30:26Z,2780436.544,NULL,Ergänzung,kijalizo,s,ulaghai,mustarehe,matangazo,matangazo,NA,NA,1,NA,NA,NA,NA,NA,NA,NA,NA,NA,NA,NA,NA,NA,NA,NA,NA,NA,NA,NA
2eade,"""Richtig""-Screen",canvas.Screen,3_0_1_0_0_1_1,NA,NA,skipped,NA,2780435.6000001,NA,NA,2780433.6000001,2780435.8000002,2023-06-10T07:30:26Z,2780436.544,NULL,Ergänzung,kijalizo,s,ulaghai,mustarehe,matangazo,NA,sdfdsf,NA,1,NA,NA,NA,NA,NA,NA,NA,NA,NA,NA,NA,NA,NA,NA,NA,NA,NA,NA,NA
2eade,"""Falsch""-Screen",canvas.Screen,3_0_1_0_0_1_2,NA,NA,timeout,4996.375,2780436.4000001,2780420.199,2780436.544,2785415.89,2785416.5,2023-06-10T07:30:31Z,2785432.919,NULL,Ergänzung,kijalizo,s,ulaghai,mustarehe,matangazo,NA,sdfdsf,0,1,NA,NA,NA,NA,NA,NA,NA,NA,NA,NA,NA,NA,NA,NA,NA,NA,NA,NA,NA
2eade,shallow,flow.Sequence,3_0_1_0_0_1,NA,NA,completion,11340.253,2774061.9000001,2774059.158,2774075.637,2785415.89,2785416.8000002,2023-06-10T07:30:31Z,2785432.919,NULL,Ergänzung,kijalizo,s,ulaghai,mustarehe,matangazo,NA,sdfdsf,NA,1,NA,NA,NA,NA,NA,NA,NA,NA,NA,NA,NA,NA,NA,NA,NA,NA,NA,NA,NA
2eade,task,flow.Sequence,3_0_1_0_0,NA,NA,completion,11340.253,2774061.7,2774059.158,2774075.637,2785415.89,2785416.9000001,2023-06-10T07:30:31Z,2785432.919,NULL,Ergänzung,kijalizo,s,ulaghai,mustarehe,matangazo,NA,sdfdsf,NA,1,NA,NA,NA,NA,NA,NA,NA,NA,NA,NA,NA,NA,NA,NA,NA,NA,NA,NA,NA
2eade,deep,flow.Sequence,3_0_1_0_1_0,NA,NA,skipped,NA,2785416.9000001,NA,NA,2785415.89,2785417.1000001,2023-06-10T07:30:31Z,2785432.919,NULL,Wohlstand,mafanikio,s,chimbuko,kumbuko,mapwaji,NA,sdfdsf,NA,1,NA,NA,NA,NA,NA,NA,NA,NA,NA,NA,NA,NA,NA,NA,NA,NA,NA,NA,NA
2eade,Shallow Question,html.Page,3_0_1_0_1_1_0,NA,NA,form submission,7942.2810000475,2785417.1000001,2785415.89,2785432.919,2793375.2,2793375.4000001,2023-06-10T07:30:39Z,2793375.878,NULL,Wohlstand,mafanikio,s,chimbuko,kumbuko,mapwaji,mafanikio,NA,NA,1,NA,NA,NA,NA,NA,NA,NA,NA,NA,NA,NA,NA,NA,NA,NA,NA,NA,NA,NA
2eade,"""Richtig""-Screen",canvas.Screen,3_0_1_0_1_1_1,NA,NA,timeout,4996.517,2793377.5,2793359.899,2793375.878,2798355.759,2798356.2,2023-06-10T07:30:44Z,2798372.395,NULL,Wohlstand,mafanikio,s,chimbuko,kumbuko,mapwaji,NA,sdfdsf,1,1,NA,NA,NA,NA,NA,NA,NA,NA,NA,NA,NA,NA,NA,NA,NA,NA,NA,NA,NA
2eade,"""Falsch""-Screen",canvas.Screen,3_0_1_0_1_1_2,NA,NA,skipped,NA,2798358.5,NA,NA,2798355.759,2798358.6000001,2023-06-10T07:30:44Z,2798372.395,NULL,Wohlstand,mafanikio,s,chimbuko,kumbuko,mapwaji,NA,sdfdsf,NA,1,NA,NA,NA,NA,NA,NA,NA,NA,NA,NA,NA,NA,NA,NA,NA,NA,NA,NA,NA
2eade,shallow,flow.Sequence,3_0_1_0_1_1,NA,NA,completion,12922.84,2785417.1000001,2785415.89,2785432.919,2798355.759,2798358.8000002,2023-06-10T07:30:44Z,2798372.395,NULL,Wohlstand,mafanikio,s,chimbuko,kumbuko,mapwaji,NA,sdfdsf,NA,1,NA,NA,NA,NA,NA,NA,NA,NA,NA,NA,NA,NA,NA,NA,NA,NA,NA,NA,NA
2eade,task,flow.Sequence,3_0_1_0_1,NA,NA,completion,12922.84,2785416.9000001,2785415.89,2785432.919,2798355.759,2798358.9000001,2023-06-10T07:30:44Z,2798372.395,NULL,Wohlstand,mafanikio,s,chimbuko,kumbuko,mapwaji,NA,sdfdsf,NA,1,NA,NA,NA,NA,NA,NA,NA,NA,NA,NA,NA,NA,NA,NA,NA,NA,NA,NA,NA
2eade,Deep Question,html.Page,3_0_1_0_2_0_0,NA,NA,form submission,2315.4050001907,2798359,2798355.759,2798372.395,2800687.8000002,2800688,2023-06-10T07:30:46Z,2800703.856,NULL,Respekt,heshima,d,NA,NA,NA,h,NA,NA,1,NA,NA,NA,NA,NA,NA,NA,NA,NA,NA,NA,NA,NA,NA,NA,NA,NA,NA,NA
2eade,"""Richtig""-Screen",canvas.Screen,3_0_1_0_2_0_1,NA,NA,skipped,NA,2800688.7,NA,NA,2800687.8000002,2800688.8000002,2023-06-10T07:30:46Z,2800703.856,NULL,Respekt,heshima,d,NA,NA,NA,NA,sdfdsf,NA,1,NA,NA,NA,NA,NA,NA,NA,NA,NA,NA,NA,NA,NA,NA,NA,NA,NA,NA,NA
2eade,"""Falsch""-Screen",canvas.Screen,3_0_1_0_2_0_2,NA,NA,timeout,4995.9929999998,2800689.4000001,2800687.303,2800703.856,2805683.03,2805684,2023-06-10T07:30:51Z,2805699.849,NULL,Respekt,heshima,d,NA,NA,NA,NA,sdfdsf,0,1,NA,NA,NA,NA,NA,NA,NA,NA,NA,NA,NA,NA,NA,NA,NA,NA,NA,NA,NA
2eade,deep,flow.Sequence,3_0_1_0_2_0,NA,NA,completion,7310.6349999998,2798359,2798355.759,2798372.395,2805683.03,2805684.4000001,2023-06-10T07:30:51Z,2805699.849,NULL,Respekt,heshima,d,NA,NA,NA,NA,sdfdsf,NA,1,NA,NA,NA,NA,NA,NA,NA,NA,NA,NA,NA,NA,NA,NA,NA,NA,NA,NA,NA
2eade,shallow,flow.Sequence,3_0_1_0_2_1,NA,NA,skipped,NA,2805684.5,NA,NA,2805683.03,2805684.7,2023-06-10T07:30:51Z,2805699.849,NULL,Respekt,heshima,d,NA,NA,NA,NA,sdfdsf,NA,1,NA,NA,NA,NA,NA,NA,NA,NA,NA,NA,NA,NA,NA,NA,NA,NA,NA,NA,NA
2eade,task,flow.Sequence,3_0_1_0_2,NA,NA,completion,7310.6349999998,2798359,2798355.759,2798372.395,2805683.03,2805685,2023-06-10T07:30:51Z,2805699.849,NULL,Respekt,heshima,d,NA,NA,NA,NA,sdfdsf,NA,1,NA,NA,NA,NA,NA,NA,NA,NA,NA,NA,NA,NA,NA,NA,NA,NA,NA,NA,NA
2eade,Deep Question,html.Page,3_0_1_0_3_0_0,NA,NA,form submission,1583.8510000478,2805685.3000002,2805683.03,2805699.849,2807283.7,2807284,2023-06-10T07:30:53Z,2807314.849,NULL,Notfall,dharura,d,NA,NA,NA,n,NA,NA,1,NA,NA,NA,NA,NA,NA,NA,NA,NA,NA,NA,NA,NA,NA,NA,NA,NA,NA,NA
2eade,"""Richtig""-Screen",canvas.Screen,3_0_1_0_3_0_1,NA,NA,skipped,NA,2807286.1000001,NA,NA,2807283.7,2807286.3000002,2023-06-10T07:30:53Z,2807314.849,NULL,Notfall,dharura,d,NA,NA,NA,NA,sdfdsf,NA,1,NA,NA,NA,NA,NA,NA,NA,NA,NA,NA,NA,NA,NA,NA,NA,NA,NA,NA,NA
2eade,"""Falsch""-Screen",canvas.Screen,3_0_1_0_3_0_2,NA,NA,timeout,4996.219,2807286.8000002,2807298.548,2807314.849,2812294.005,2812295.1000001,2023-06-10T07:30:58Z,2812311.068,NULL,Notfall,dharura,d,NA,NA,NA,NA,sdfdsf,0,1,NA,NA,NA,NA,NA,NA,NA,NA,NA,NA,NA,NA,NA,NA,NA,NA,NA,NA,NA
2eade,deep,flow.Sequence,3_0_1_0_3_0,NA,NA,completion,6594.156,2805685.3000002,2805683.03,2805699.849,2812294.005,2812295.6000001,2023-06-10T07:30:58Z,2812311.068,NULL,Notfall,dharura,d,NA,NA,NA,NA,sdfdsf,NA,1,NA,NA,NA,NA,NA,NA,NA,NA,NA,NA,NA,NA,NA,NA,NA,NA,NA,NA,NA
2eade,shallow,flow.Sequence,3_0_1_0_3_1,NA,NA,skipped,NA,2812295.9000001,NA,NA,2812294.005,2812296,2023-06-10T07:30:58Z,2812311.068,NULL,Notfall,dharura,d,NA,NA,NA,NA,sdfdsf,NA,1,NA,NA,NA,NA,NA,NA,NA,NA,NA,NA,NA,NA,NA,NA,NA,NA,NA,NA,NA
2eade,task,flow.Sequence,3_0_1_0_3,NA,NA,completion,6594.156,2805685.2,2805683.03,2805699.849,2812294.005,2812296.4000001,2023-06-10T07:30:58Z,2812311.068,NULL,Notfall,dharura,d,NA,NA,NA,NA,sdfdsf,NA,1,NA,NA,NA,NA,NA,NA,NA,NA,NA,NA,NA,NA,NA,NA,NA,NA,NA,NA,NA
2eade,Deep Question,html.Page,3_0_1_0_4_0_0,NA,NA,form submission,1660.7320001908,2812296.6000001,2812294.005,2812311.068,2813971.8000002,2813972.1000001,2023-06-10T07:30:59Z,2813992.901,NULL,Vergnügen,kichekesho,d,NA,NA,NA,n,NA,NA,1,NA,NA,NA,NA,NA,NA,NA,NA,NA,NA,NA,NA,NA,NA,NA,NA,NA,NA,NA
2eade,"""Richtig""-Screen",canvas.Screen,3_0_1_0_4_0_1,NA,NA,skipped,NA,2813974.1000001,NA,NA,2813971.8000002,2813974.3000002,2023-06-10T07:30:59Z,2813992.901,NULL,Vergnügen,kichekesho,d,NA,NA,NA,NA,sdfdsf,NA,1,NA,NA,NA,NA,NA,NA,NA,NA,NA,NA,NA,NA,NA,NA,NA,NA,NA,NA,NA
2eade,"""Falsch""-Screen",canvas.Screen,3_0_1_0_4_0_2,NA,NA,timeout,4995.9210000001,2813974.9000001,2813975.602,2813992.901,2818971.998,2818972.9000001,2023-06-10T07:31:04Z,2818988.822,NULL,Vergnügen,kichekesho,d,NA,NA,NA,NA,sdfdsf,0,1,NA,NA,NA,NA,NA,NA,NA,NA,NA,NA,NA,NA,NA,NA,NA,NA,NA,NA,NA
2eade,deep,flow.Sequence,3_0_1_0_4_0,NA,NA,completion,6660.9300000002,2812296.5,2812294.005,2812311.068,2818971.998,2818973.4000001,2023-06-10T07:31:04Z,2818988.822,NULL,Vergnügen,kichekesho,d,NA,NA,NA,NA,sdfdsf,NA,1,NA,NA,NA,NA,NA,NA,NA,NA,NA,NA,NA,NA,NA,NA,NA,NA,NA,NA,NA
2eade,shallow,flow.Sequence,3_0_1_0_4_1,NA,NA,skipped,NA,2818973.6000001,NA,NA,2818971.998,2818973.7,2023-06-10T07:31:04Z,2818988.822,NULL,Vergnügen,kichekesho,d,NA,NA,NA,NA,sdfdsf,NA,1,NA,NA,NA,NA,NA,NA,NA,NA,NA,NA,NA,NA,NA,NA,NA,NA,NA,NA,NA
2eade,task,flow.Sequence,3_0_1_0_4,NA,NA,completion,6660.9300000002,2812296.5,2812294.005,2812311.068,2818971.998,2818974.1000001,2023-06-10T07:31:04Z,2818988.822,NULL,Vergnügen,kichekesho,d,NA,NA,NA,NA,sdfdsf,NA,1,NA,NA,NA,NA,NA,NA,NA,NA,NA,NA,NA,NA,NA,NA,NA,NA,NA,NA,NA
2eade,deep,flow.Sequence,3_0_1_0_5_0,NA,NA,skipped,NA,2818974.3000002,NA,NA,2818971.998,2818974.5,2023-06-10T07:31:04Z,2818988.822,NULL,Betrüger,mdanganyifu,s,mwanamuziki,wastani,mahakama,NA,sdfdsf,NA,1,NA,NA,NA,NA,NA,NA,NA,NA,NA,NA,NA,NA,NA,NA,NA,NA,NA,NA,NA
2eade,Shallow Question,html.Page,3_0_1_0_5_1_0,NA,NA,form submission,4846.8780000475,2818974.7,2818971.998,2818988.822,2823835.7,2823835.9000001,2023-06-10T07:31:09Z,2823851.273,NULL,Betrüger,mdanganyifu,s,mwanamuziki,wastani,mahakama,mwanamuziki,NA,NA,1,NA,NA,NA,NA,NA,NA,NA,NA,NA,NA,NA,NA,NA,NA,NA,NA,NA,NA,NA
2eade,"""Richtig""-Screen",canvas.Screen,3_0_1_0_5_1_1,NA,NA,skipped,NA,2823837.6000001,NA,NA,2823835.7,2823837.8000002,2023-06-10T07:31:09Z,2823851.273,NULL,Betrüger,mdanganyifu,s,mwanamuziki,wastani,mahakama,NA,sdfdsf,NA,1,NA,NA,NA,NA,NA,NA,NA,NA,NA,NA,NA,NA,NA,NA,NA,NA,NA,NA,NA
2eade,"""Falsch""-Screen",canvas.Screen,3_0_1_0_5_1_2,NA,NA,timeout,4995.997,2823838.4000001,2823834.177,2823851.273,2828830.634,2828831.6000001,2023-06-10T07:31:14Z,2828847.27,NULL,Betrüger,mdanganyifu,s,mwanamuziki,wastani,mahakama,NA,sdfdsf,0,1,NA,NA,NA,NA,NA,NA,NA,NA,NA,NA,NA,NA,NA,NA,NA,NA,NA,NA,NA
2eade,shallow,flow.Sequence,3_0_1_0_5_1,NA,NA,completion,9841.8119999999,2818974.6000001,2818971.998,2818988.822,2828830.634,2828832,2023-06-10T07:31:14Z,2828847.27,NULL,Betrüger,mdanganyifu,s,mwanamuziki,wastani,mahakama,NA,sdfdsf,NA,1,NA,NA,NA,NA,NA,NA,NA,NA,NA,NA,NA,NA,NA,NA,NA,NA,NA,NA,NA
2eade,task,flow.Sequence,3_0_1_0_5,NA,NA,completion,9841.8119999999,2818974.2,2818971.998,2818988.822,2828830.634,2828832.4000001,2023-06-10T07:31:14Z,2828847.27,NULL,Betrüger,mdanganyifu,s,mwanamuziki,wastani,mahakama,NA,sdfdsf,NA,1,NA,NA,NA,NA,NA,NA,NA,NA,NA,NA,NA,NA,NA,NA,NA,NA,NA,NA,NA
2eade,Deep Question,html.Page,3_0_1_0_6_0_0,NA,NA,form submission,1964.4300000477,2828832.8000002,2828830.634,2828847.27,2830811.7,2830812,2023-06-10T07:31:16Z,2830829.054,NULL,Orientierung,urekebisho,d,NA,NA,NA,h,NA,NA,1,NA,NA,NA,NA,NA,NA,NA,NA,NA,NA,NA,NA,NA,NA,NA,NA,NA,NA,NA
2eade,"""Richtig""-Screen",canvas.Screen,3_0_1_0_6_0_1,NA,NA,skipped,NA,2830814.4000001,NA,NA,2830811.7,2830814.6000001,2023-06-10T07:31:16Z,2830829.054,NULL,Orientierung,urekebisho,d,NA,NA,NA,NA,sdfdsf,NA,1,NA,NA,NA,NA,NA,NA,NA,NA,NA,NA,NA,NA,NA,NA,NA,NA,NA,NA,NA
2eade,"""Falsch""-Screen",canvas.Screen,3_0_1_0_6_0_2,NA,NA,timeout,4995.2239999999,2830816.1000001,2830811.743,2830829.054,2835808.105,2835809,2023-06-10T07:31:21Z,2835824.278,NULL,Orientierung,urekebisho,d,NA,NA,NA,NA,sdfdsf,0,1,NA,NA,NA,NA,NA,NA,NA,NA,NA,NA,NA,NA,NA,NA,NA,NA,NA,NA,NA
2eade,deep,flow.Sequence,3_0_1_0_6_0,NA,NA,completion,6960.835,2828832.7,2828830.634,2828847.27,2835808.105,2835809.4000001,2023-06-10T07:31:21Z,2835824.278,NULL,Orientierung,urekebisho,d,NA,NA,NA,NA,sdfdsf,NA,1,NA,NA,NA,NA,NA,NA,NA,NA,NA,NA,NA,NA,NA,NA,NA,NA,NA,NA,NA
2eade,shallow,flow.Sequence,3_0_1_0_6_1,NA,NA,skipped,NA,2835809.7,NA,NA,2835808.105,2835809.8000002,2023-06-10T07:31:21Z,2835824.278,NULL,Orientierung,urekebisho,d,NA,NA,NA,NA,sdfdsf,NA,1,NA,NA,NA,NA,NA,NA,NA,NA,NA,NA,NA,NA,NA,NA,NA,NA,NA,NA,NA
2eade,task,flow.Sequence,3_0_1_0_6,NA,NA,completion,6960.835,2828832.6000001,2828830.634,2828847.27,2835808.105,2835810,2023-06-10T07:31:21Z,2835824.278,NULL,Orientierung,urekebisho,d,NA,NA,NA,NA,sdfdsf,NA,1,NA,NA,NA,NA,NA,NA,NA,NA,NA,NA,NA,NA,NA,NA,NA,NA,NA,NA,NA
2eade,deep,flow.Sequence,3_0_1_0_7_0,NA,NA,skipped,NA,2835810.2,NA,NA,2835808.105,2835810.4000001,2023-06-10T07:31:21Z,2835824.278,NULL,Stimmung,kinyongo,s,kilekile,kisambo,madhehebu,NA,sdfdsf,NA,1,NA,NA,NA,NA,NA,NA,NA,NA,NA,NA,NA,NA,NA,NA,NA,NA,NA,NA,NA
2eade,Shallow Question,html.Page,3_0_1_0_7_1_0,NA,NA,form submission,7474.0220001908,2835810.6000001,2835808.105,2835824.278,2843298.3000002,2843298.6000001,2023-06-10T07:31:29Z,2843301.451,NULL,Stimmung,kinyongo,s,kilekile,kisambo,madhehebu,kinyongo,NA,NA,1,NA,NA,NA,NA,NA,NA,NA,NA,NA,NA,NA,NA,NA,NA,NA,NA,NA,NA,NA
2eade,"""Richtig""-Screen",canvas.Screen,3_0_1_0_7_1_1,NA,NA,timeout,4996.6499999999,2843300.5,2843285.338,2843301.451,2848281.362,2848282.3000002,2023-06-10T07:31:34Z,2848298.101,NULL,Stimmung,kinyongo,s,kilekile,kisambo,madhehebu,NA,sdfdsf,1,1,NA,NA,NA,NA,NA,NA,NA,NA,NA,NA,NA,NA,NA,NA,NA,NA,NA,NA,NA
2eade,"""Falsch""-Screen",canvas.Screen,3_0_1_0_7_1_2,NA,NA,skipped,NA,2848287.5,NA,NA,2848281.362,2848287.6000001,2023-06-10T07:31:34Z,2848298.101,NULL,Stimmung,kinyongo,s,kilekile,kisambo,madhehebu,NA,sdfdsf,NA,1,NA,NA,NA,NA,NA,NA,NA,NA,NA,NA,NA,NA,NA,NA,NA,NA,NA,NA,NA
2eade,shallow,flow.Sequence,3_0_1_0_7_1,NA,NA,completion,12457.084,2835810.5,2835808.105,2835824.278,2848281.362,2848287.8000002,2023-06-10T07:31:34Z,2848298.101,NULL,Stimmung,kinyongo,s,kilekile,kisambo,madhehebu,NA,sdfdsf,NA,1,NA,NA,NA,NA,NA,NA,NA,NA,NA,NA,NA,NA,NA,NA,NA,NA,NA,NA,NA
2eade,task,flow.Sequence,3_0_1_0_7,NA,NA,completion,12457.084,2835810.1000001,2835808.105,2835824.278,2848281.362,2848287.8000002,2023-06-10T07:31:34Z,2848298.101,NULL,Stimmung,kinyongo,s,kilekile,kisambo,madhehebu,NA,sdfdsf,NA,1,NA,NA,NA,NA,NA,NA,NA,NA,NA,NA,NA,NA,NA,NA,NA,NA,NA,NA,NA
2eade,block,flow.Loop,3_0_1_0,NA,NA,completion,74205.725,2774061.6000001,2774059.158,2774075.637,2848281.362,2848287.9000001,2023-06-10T07:31:34Z,2848298.101,NULL,NA,NA,NA,NA,NA,NA,NA,sdfdsf,NA,1,NA,NA,NA,NA,NA,NA,NA,NA,NA,NA,NA,NA,NA,NA,NA,NA,NA,NA,NA
2eade,weiter,canvas.Screen,3_0_1_1,sdf,keypress(Space),response,764.89900000021,2848287.9000001,2848281.362,2848298.101,2849063,2849064.2,2023-06-10T07:31:34Z,2849113.999,NULL,NA,NA,NA,NA,NA,NA,NA,sdfdsf,NA,1,NA,NA,NA,NA,NA,NA,NA,NA,NA,NA,NA,NA,NA,NA,NA,NA,NA,NA,NA
2eade,check continue,flow.Sequence,3_0_1,NA,NA,completion,74987.363,2774061.6000001,2774059.158,2774075.637,2849063,2849064.6000001,2023-06-10T07:31:34Z,2849113.999,NULL,NA,NA,NA,NA,NA,NA,NA,sdfdsf,NA,1,NA,NA,NA,NA,NA,NA,NA,NA,NA,NA,NA,NA,NA,NA,NA,NA,NA,NA,NA
2eade,Deep Question,html.Page,3_0_2_0_0_0_0,NA,NA,form submission,2417.6010001432,2849096,2849080.683,2849113.999,2851531.6000001,2851531.8000002,2023-06-10T07:31:37Z,2851544.996,NULL,Orientierung,urekebisho,d,NA,NA,NA,k,NA,NA,2,NA,NA,NA,NA,NA,NA,NA,NA,NA,NA,NA,NA,NA,NA,NA,NA,NA,NA,NA
2eade,"""Richtig""-Screen",canvas.Screen,3_0_2_0_0_0_1,NA,NA,skipped,NA,2851533.7,NA,NA,2851531.6000001,2851533.8000002,2023-06-10T07:31:37Z,2851544.996,NULL,Orientierung,urekebisho,d,NA,NA,NA,NA,sdf,NA,2,NA,NA,NA,NA,NA,NA,NA,NA,NA,NA,NA,NA,NA,NA,NA,NA,NA,NA,NA
2eade,"""Falsch""-Screen",canvas.Screen,3_0_2_0_0_0_2,NA,NA,timeout,4996.1690000002,2851534.4000001,2851528.556,2851544.996,2856524.213,2856525.2,2023-06-10T07:31:42Z,2856541.165,NULL,Orientierung,urekebisho,d,NA,NA,NA,NA,sdf,0,2,NA,NA,NA,NA,NA,NA,NA,NA,NA,NA,NA,NA,NA,NA,NA,NA,NA,NA,NA
2eade,deep,flow.Sequence,3_0_2_0_0_0,NA,NA,completion,7410.2140000002,2849096,2849080.683,2849113.999,2856524.213,2856525.6000001,2023-06-10T07:31:42Z,2856541.165,NULL,Orientierung,urekebisho,d,NA,NA,NA,NA,sdf,NA,2,NA,NA,NA,NA,NA,NA,NA,NA,NA,NA,NA,NA,NA,NA,NA,NA,NA,NA,NA
2eade,shallow,flow.Sequence,3_0_2_0_0_1,NA,NA,skipped,NA,2856525.8000002,NA,NA,2856524.213,2856526,2023-06-10T07:31:42Z,2856541.165,NULL,Orientierung,urekebisho,d,NA,NA,NA,NA,sdf,NA,2,NA,NA,NA,NA,NA,NA,NA,NA,NA,NA,NA,NA,NA,NA,NA,NA,NA,NA,NA
2eade,task,flow.Sequence,3_0_2_0_0,NA,NA,completion,7410.2140000002,2849096,2849080.683,2849113.999,2856524.213,2856526.2,2023-06-10T07:31:42Z,2856541.165,NULL,Orientierung,urekebisho,d,NA,NA,NA,NA,sdf,NA,2,NA,NA,NA,NA,NA,NA,NA,NA,NA,NA,NA,NA,NA,NA,NA,NA,NA,NA,NA
2eade,deep,flow.Sequence,3_0_2_0_1_0,NA,NA,skipped,NA,2856526.3000002,NA,NA,2856524.213,2856526.5,2023-06-10T07:31:42Z,2856541.165,NULL,Ergänzung,kijalizo,s,ulaghai,mustarehe,matangazo,NA,sdf,NA,2,NA,NA,NA,NA,NA,NA,NA,NA,NA,NA,NA,NA,NA,NA,NA,NA,NA,NA,NA
2eade,Shallow Question,html.Page,3_0_2_0_1_1_0,NA,NA,form submission,6418.1350001907,2856526.7,2856524.213,2856541.165,2862959.3000002,2862959.6000001,2023-06-10T07:31:48Z,2862968.912,NULL,Ergänzung,kijalizo,s,ulaghai,mustarehe,matangazo,kijalizo,NA,NA,2,NA,NA,NA,NA,NA,NA,NA,NA,NA,NA,NA,NA,NA,NA,NA,NA,NA,NA,NA
2eade,"""Richtig""-Screen",canvas.Screen,3_0_2_0_1_1_1,NA,NA,timeout,4995.7030000002,2862961.5,2862952.337,2862968.912,2867948.301,2867949.4000001,2023-06-10T07:31:53Z,2867964.615,NULL,Ergänzung,kijalizo,s,ulaghai,mustarehe,matangazo,NA,sdf,1,2,NA,NA,NA,NA,NA,NA,NA,NA,NA,NA,NA,NA,NA,NA,NA,NA,NA,NA,NA
2eade,"""Falsch""-Screen",canvas.Screen,3_0_2_0_1_1_2,NA,NA,skipped,NA,2867954.6000001,NA,NA,2867948.301,2867955,2023-06-10T07:31:53Z,2867964.615,NULL,Ergänzung,kijalizo,s,ulaghai,mustarehe,matangazo,NA,sdf,NA,2,NA,NA,NA,NA,NA,NA,NA,NA,NA,NA,NA,NA,NA,NA,NA,NA,NA,NA,NA
2eade,shallow,flow.Sequence,3_0_2_0_1_1,NA,NA,completion,11407.136,2856526.6000001,2856524.213,2856541.165,2867948.301,2867955.3000002,2023-06-10T07:31:53Z,2867964.615,NULL,Ergänzung,kijalizo,s,ulaghai,mustarehe,matangazo,NA,sdf,NA,2,NA,NA,NA,NA,NA,NA,NA,NA,NA,NA,NA,NA,NA,NA,NA,NA,NA,NA,NA
2eade,task,flow.Sequence,3_0_2_0_1,NA,NA,completion,11407.136,2856526.3000002,2856524.213,2856541.165,2867948.301,2867955.8000002,2023-06-10T07:31:53Z,2867964.615,NULL,Ergänzung,kijalizo,s,ulaghai,mustarehe,matangazo,NA,sdf,NA,2,NA,NA,NA,NA,NA,NA,NA,NA,NA,NA,NA,NA,NA,NA,NA,NA,NA,NA,NA
2eade,deep,flow.Sequence,3_0_2_0_2_0,NA,NA,skipped,NA,2867956.1000001,NA,NA,2867948.301,2867956.2,2023-06-10T07:31:53Z,2867964.615,NULL,Betrüger,mdanganyifu,s,mwanamuziki,wastani,mahakama,NA,sdf,NA,2,NA,NA,NA,NA,NA,NA,NA,NA,NA,NA,NA,NA,NA,NA,NA,NA,NA,NA,NA
2eade,Shallow Question,html.Page,3_0_2_0_2_1_0,NA,NA,form submission,5578.6850001905,2867956.4000001,2867948.301,2867964.615,2873543.3000002,2873543.5,2023-06-10T07:31:59Z,2873560.553,NULL,Betrüger,mdanganyifu,s,mwanamuziki,wastani,mahakama,mdanganyifu,NA,NA,2,NA,NA,NA,NA,NA,NA,NA,NA,NA,NA,NA,NA,NA,NA,NA,NA,NA,NA,NA
2eade,"""Richtig""-Screen",canvas.Screen,3_0_2_0_2_1_1,NA,NA,timeout,4995.3170000003,2873545.2,2873526.782,2873560.553,2878539.723,2878540.6000001,2023-06-10T07:32:04Z,2878555.87,NULL,Betrüger,mdanganyifu,s,mwanamuziki,wastani,mahakama,NA,sdf,1,2,NA,NA,NA,NA,NA,NA,NA,NA,NA,NA,NA,NA,NA,NA,NA,NA,NA,NA,NA
2eade,"""Falsch""-Screen",canvas.Screen,3_0_2_0_2_1_2,NA,NA,skipped,NA,2878545.9000001,NA,NA,2878539.723,2878546.2,2023-06-10T07:32:04Z,2878555.87,NULL,Betrüger,mdanganyifu,s,mwanamuziki,wastani,mahakama,NA,sdf,NA,2,NA,NA,NA,NA,NA,NA,NA,NA,NA,NA,NA,NA,NA,NA,NA,NA,NA,NA,NA
2eade,shallow,flow.Sequence,3_0_2_0_2_1,NA,NA,completion,10575.108,2867956.4000001,2867948.301,2867964.615,2878539.723,2878546.6000001,2023-06-10T07:32:04Z,2878555.87,NULL,Betrüger,mdanganyifu,s,mwanamuziki,wastani,mahakama,NA,sdf,NA,2,NA,NA,NA,NA,NA,NA,NA,NA,NA,NA,NA,NA,NA,NA,NA,NA,NA,NA,NA
2eade,task,flow.Sequence,3_0_2_0_2,NA,NA,completion,10575.108,2867956,2867948.301,2867964.615,2878539.723,2878546.9000001,2023-06-10T07:32:04Z,2878555.87,NULL,Betrüger,mdanganyifu,s,mwanamuziki,wastani,mahakama,NA,sdf,NA,2,NA,NA,NA,NA,NA,NA,NA,NA,NA,NA,NA,NA,NA,NA,NA,NA,NA,NA,NA
2eade,deep,flow.Sequence,3_0_2_0_3_0,NA,NA,skipped,NA,2878547.1000001,NA,NA,2878539.723,2878547.2,2023-06-10T07:32:04Z,2878555.87,NULL,Wohlstand,mafanikio,s,chimbuko,kumbuko,mapwaji,NA,sdf,NA,2,NA,NA,NA,NA,NA,NA,NA,NA,NA,NA,NA,NA,NA,NA,NA,NA,NA,NA,NA
2eade,Shallow Question,html.Page,3_0_2_0_3_1_0,NA,NA,form submission,11510.13,2878547.4000001,2878539.723,2878555.87,2890066,2890066.2,2023-06-10T07:32:15Z,2890080.242,NULL,Wohlstand,mafanikio,s,chimbuko,kumbuko,mapwaji,chimbuko,NA,NA,2,NA,NA,NA,NA,NA,NA,NA,NA,NA,NA,NA,NA,NA,NA,NA,NA,NA,NA,NA
2eade,"""Richtig""-Screen",canvas.Screen,3_0_2_0_3_1_1,NA,NA,skipped,NA,2890068,NA,NA,2890066,2890068.2,2023-06-10T07:32:15Z,2890080.242,NULL,Wohlstand,mafanikio,s,chimbuko,kumbuko,mapwaji,NA,sdf,NA,2,NA,NA,NA,NA,NA,NA,NA,NA,NA,NA,NA,NA,NA,NA,NA,NA,NA,NA,NA
2eade,"""Falsch""-Screen",canvas.Screen,3_0_2_0_3_1_2,NA,NA,timeout,4995.7799999998,2890068.7,2890063.522,2890080.242,2895059.446,2895060.5,2023-06-10T07:32:20Z,2895076.022,NULL,Wohlstand,mafanikio,s,chimbuko,kumbuko,mapwaji,NA,sdf,0,2,NA,NA,NA,NA,NA,NA,NA,NA,NA,NA,NA,NA,NA,NA,NA,NA,NA,NA,NA
2eade,shallow,flow.Sequence,3_0_2_0_3_1,NA,NA,completion,16503.576,2878547.3000002,2878539.723,2878555.87,2895059.446,2895061,2023-06-10T07:32:20Z,2895076.022,NULL,Wohlstand,mafanikio,s,chimbuko,kumbuko,mapwaji,NA,sdf,NA,2,NA,NA,NA,NA,NA,NA,NA,NA,NA,NA,NA,NA,NA,NA,NA,NA,NA,NA,NA
2eade,task,flow.Sequence,3_0_2_0_3,NA,NA,completion,16503.576,2878547,2878539.723,2878555.87,2895059.446,2895061.2,2023-06-10T07:32:20Z,2895076.022,NULL,Wohlstand,mafanikio,s,chimbuko,kumbuko,mapwaji,NA,sdf,NA,2,NA,NA,NA,NA,NA,NA,NA,NA,NA,NA,NA,NA,NA,NA,NA,NA,NA,NA,NA
2eade,Deep Question,html.Page,3_0_2_0_4_0_0,NA,NA,form submission,2277.4780000001,2895062.8000002,2895059.446,2895076.022,2897353.5,2897353.8000002,2023-06-10T07:32:23Z,2897356.955,NULL,Vergnügen,kichekesho,d,NA,NA,NA,h,NA,NA,2,NA,NA,NA,NA,NA,NA,NA,NA,NA,NA,NA,NA,NA,NA,NA,NA,NA,NA,NA
2eade,"""Richtig""-Screen",canvas.Screen,3_0_2_0_4_0_1,NA,NA,skipped,NA,2897355.7,NA,NA,2897353.5,2897355.9000001,2023-06-10T07:32:23Z,2897356.955,NULL,Vergnügen,kichekesho,d,NA,NA,NA,NA,sdf,NA,2,NA,NA,NA,NA,NA,NA,NA,NA,NA,NA,NA,NA,NA,NA,NA,NA,NA,NA,NA
2eade,"""Falsch""-Screen",canvas.Screen,3_0_2_0_4_0_2,NA,NA,timeout,4995.983,2897356.5,2897340.502,2897356.955,2902336.77,2902337.7,2023-06-10T07:32:28Z,2902352.938,NULL,Vergnügen,kichekesho,d,NA,NA,NA,NA,sdf,0,2,NA,NA,NA,NA,NA,NA,NA,NA,NA,NA,NA,NA,NA,NA,NA,NA,NA,NA,NA
2eade,deep,flow.Sequence,3_0_2_0_4_0,NA,NA,completion,7260.7480000001,2895062.8000002,2895059.446,2895076.022,2902336.77,2902338.2,2023-06-10T07:32:28Z,2902352.938,NULL,Vergnügen,kichekesho,d,NA,NA,NA,NA,sdf,NA,2,NA,NA,NA,NA,NA,NA,NA,NA,NA,NA,NA,NA,NA,NA,NA,NA,NA,NA,NA
2eade,shallow,flow.Sequence,3_0_2_0_4_1,NA,NA,skipped,NA,2902338.3000002,NA,NA,2902336.77,2902338.6000001,2023-06-10T07:32:28Z,2902352.938,NULL,Vergnügen,kichekesho,d,NA,NA,NA,NA,sdf,NA,2,NA,NA,NA,NA,NA,NA,NA,NA,NA,NA,NA,NA,NA,NA,NA,NA,NA,NA,NA
2eade,task,flow.Sequence,3_0_2_0_4,NA,NA,completion,7260.7480000001,2895061.4000001,2895059.446,2895076.022,2902336.77,2902338.8000002,2023-06-10T07:32:28Z,2902352.938,NULL,Vergnügen,kichekesho,d,NA,NA,NA,NA,sdf,NA,2,NA,NA,NA,NA,NA,NA,NA,NA,NA,NA,NA,NA,NA,NA,NA,NA,NA,NA,NA
2eade,Deep Question,html.Page,3_0_2_0_5_0_0,NA,NA,form submission,1889.7620000476,2902339,2902336.77,2902352.938,2904242.7,2904242.9000001,2023-06-10T07:32:29Z,2904251.314,NULL,Notfall,dharura,d,NA,NA,NA,b,NA,NA,2,NA,NA,NA,NA,NA,NA,NA,NA,NA,NA,NA,NA,NA,NA,NA,NA,NA,NA,NA
2eade,"""Richtig""-Screen",canvas.Screen,3_0_2_0_5_0_1,NA,NA,skipped,NA,2904244.9000001,NA,NA,2904242.7,2904245,2023-06-10T07:32:29Z,2904251.314,NULL,Notfall,dharura,d,NA,NA,NA,NA,sdf,NA,2,NA,NA,NA,NA,NA,NA,NA,NA,NA,NA,NA,NA,NA,NA,NA,NA,NA,NA,NA
2eade,"""Falsch""-Screen",canvas.Screen,3_0_2_0_5_0_2,NA,NA,timeout,4996.0790000004,2904245.6000001,2904235.208,2904251.314,2909231.126,2909231.5,2023-06-10T07:32:34Z,2909247.393,NULL,Notfall,dharura,d,NA,NA,NA,NA,sdf,0,2,NA,NA,NA,NA,NA,NA,NA,NA,NA,NA,NA,NA,NA,NA,NA,NA,NA,NA,NA
2eade,deep,flow.Sequence,3_0_2_0_5_0,NA,NA,completion,6878.1880000001,2902338.9000001,2902336.77,2902352.938,2909231.126,2909231.8000002,2023-06-10T07:32:34Z,2909247.393,NULL,Notfall,dharura,d,NA,NA,NA,NA,sdf,NA,2,NA,NA,NA,NA,NA,NA,NA,NA,NA,NA,NA,NA,NA,NA,NA,NA,NA,NA,NA
2eade,shallow,flow.Sequence,3_0_2_0_5_1,NA,NA,skipped,NA,2909231.9000001,NA,NA,2909231.126,2909232,2023-06-10T07:32:34Z,2909247.393,NULL,Notfall,dharura,d,NA,NA,NA,NA,sdf,NA,2,NA,NA,NA,NA,NA,NA,NA,NA,NA,NA,NA,NA,NA,NA,NA,NA,NA,NA,NA
2eade,task,flow.Sequence,3_0_2_0_5,NA,NA,completion,6878.1880000001,2902338.9000001,2902336.77,2902352.938,2909231.126,2909232.2,2023-06-10T07:32:34Z,2909247.393,NULL,Notfall,dharura,d,NA,NA,NA,NA,sdf,NA,2,NA,NA,NA,NA,NA,NA,NA,NA,NA,NA,NA,NA,NA,NA,NA,NA,NA,NA,NA
2eade,deep,flow.Sequence,3_0_2_0_6_0,NA,NA,skipped,NA,2909232.3000002,NA,NA,2909231.126,2909232.4000001,2023-06-10T07:32:34Z,2909247.393,NULL,Stimmung,kinyongo,s,kilekile,kisambo,madhehebu,NA,sdf,NA,2,NA,NA,NA,NA,NA,NA,NA,NA,NA,NA,NA,NA,NA,NA,NA,NA,NA,NA,NA
2eade,Shallow Question,html.Page,3_0_2_0_6_1_0,NA,NA,form submission,4052.0070000952,2909232.5,2909231.126,2909247.393,2913299.4000001,2913299.5,2023-06-10T07:32:39Z,2913311.068,NULL,Stimmung,kinyongo,s,kilekile,kisambo,madhehebu,kinyongo,NA,NA,2,NA,NA,NA,NA,NA,NA,NA,NA,NA,NA,NA,NA,NA,NA,NA,NA,NA,NA,NA
2eade,"""Richtig""-Screen",canvas.Screen,3_0_2_0_6_1_1,NA,NA,timeout,4995.7030000002,2913301.3000002,2913294.455,2913311.068,2918290.369,2918291.2,2023-06-10T07:32:44Z,2918306.771,NULL,Stimmung,kinyongo,s,kilekile,kisambo,madhehebu,NA,sdf,1,2,NA,NA,NA,NA,NA,NA,NA,NA,NA,NA,NA,NA,NA,NA,NA,NA,NA,NA,NA
2eade,"""Falsch""-Screen",canvas.Screen,3_0_2_0_6_1_2,NA,NA,skipped,NA,2918295.7,NA,NA,2918290.369,2918295.8000002,2023-06-10T07:32:44Z,2918306.771,NULL,Stimmung,kinyongo,s,kilekile,kisambo,madhehebu,NA,sdf,NA,2,NA,NA,NA,NA,NA,NA,NA,NA,NA,NA,NA,NA,NA,NA,NA,NA,NA,NA,NA
2eade,shallow,flow.Sequence,3_0_2_0_6_1,NA,NA,completion,9042.9759999998,2909232.5,2909231.126,2909247.393,2918290.369,2918296,2023-06-10T07:32:44Z,2918306.771,NULL,Stimmung,kinyongo,s,kilekile,kisambo,madhehebu,NA,sdf,NA,2,NA,NA,NA,NA,NA,NA,NA,NA,NA,NA,NA,NA,NA,NA,NA,NA,NA,NA,NA
2eade,task,flow.Sequence,3_0_2_0_6,NA,NA,completion,9042.9759999998,2909232.3000002,2909231.126,2909247.393,2918290.369,2918296,2023-06-10T07:32:44Z,2918306.771,NULL,Stimmung,kinyongo,s,kilekile,kisambo,madhehebu,NA,sdf,NA,2,NA,NA,NA,NA,NA,NA,NA,NA,NA,NA,NA,NA,NA,NA,NA,NA,NA,NA,NA
2eade,Deep Question,html.Page,3_0_2_0_7_0_0,NA,NA,form submission,5122.1290000952,2918296.1000001,2918290.369,2918306.771,2923428.9000001,2923429.1000001,2023-06-10T07:32:49Z,2923435.491,NULL,Respekt,heshima,d,NA,NA,NA,shadura,NA,NA,2,NA,NA,NA,NA,NA,NA,NA,NA,NA,NA,NA,NA,NA,NA,NA,NA,NA,NA,NA
2eade,"""Richtig""-Screen",canvas.Screen,3_0_2_0_7_0_1,NA,NA,skipped,NA,2923431.7,NA,NA,2923428.9000001,2923432,2023-06-10T07:32:49Z,2923435.491,NULL,Respekt,heshima,d,NA,NA,NA,NA,sdf,NA,2,NA,NA,NA,NA,NA,NA,NA,NA,NA,NA,NA,NA,NA,NA,NA,NA,NA,NA,NA
2eade,"""Falsch""-Screen",canvas.Screen,3_0_2_0_7_0_2,NA,NA,timeout,4996.5430000001,2923433,2923419.436,2923435.491,2928415.221,2928417.2,2023-06-10T07:32:54Z,2928432.034,NULL,Respekt,heshima,d,NA,NA,NA,NA,sdf,0,2,NA,NA,NA,NA,NA,NA,NA,NA,NA,NA,NA,NA,NA,NA,NA,NA,NA,NA,NA
2eade,deep,flow.Sequence,3_0_2_0_7_0,NA,NA,completion,10108.45,2918296.1000001,2918290.369,2918306.771,2928415.221,2928417.2,2023-06-10T07:32:54Z,2928432.034,NULL,Respekt,heshima,d,NA,NA,NA,NA,sdf,NA,2,NA,NA,NA,NA,NA,NA,NA,NA,NA,NA,NA,NA,NA,NA,NA,NA,NA,NA,NA
2eade,shallow,flow.Sequence,3_0_2_0_7_1,NA,NA,skipped,NA,2928417.4000001,NA,NA,2928415.221,2928417.4000001,2023-06-10T07:32:54Z,2928432.034,NULL,Respekt,heshima,d,NA,NA,NA,NA,sdf,NA,2,NA,NA,NA,NA,NA,NA,NA,NA,NA,NA,NA,NA,NA,NA,NA,NA,NA,NA,NA
2eade,task,flow.Sequence,3_0_2_0_7,NA,NA,completion,10108.45,2918296.1000001,2918290.369,2918306.771,2928415.221,2928417.5,2023-06-10T07:32:54Z,2928432.034,NULL,Respekt,heshima,d,NA,NA,NA,NA,sdf,NA,2,NA,NA,NA,NA,NA,NA,NA,NA,NA,NA,NA,NA,NA,NA,NA,NA,NA,NA,NA
2eade,block,flow.Loop,3_0_2_0,NA,NA,completion,79301.222,2849096,2849080.683,2849113.999,2928415.221,2928417.6000001,2023-06-10T07:32:54Z,2928432.034,NULL,NA,NA,NA,NA,NA,NA,NA,sdf,NA,2,NA,NA,NA,NA,NA,NA,NA,NA,NA,NA,NA,NA,NA,NA,NA,NA,NA,NA,NA
2eade,weiter,canvas.Screen,3_0_2_1,sdf,keypress(Space),response,944.86600009538,2928417.7,2928415.221,2928432.034,2929376.9000001,2929377.6000001,2023-06-10T07:32:55Z,2929413.899,NULL,NA,NA,NA,NA,NA,NA,NA,sdf,NA,2,NA,NA,NA,NA,NA,NA,NA,NA,NA,NA,NA,NA,NA,NA,NA,NA,NA,NA,NA
2eade,check continue,flow.Sequence,3_0_2,NA,NA,completion,80262.901000096,2849095.9000001,2849080.683,2849113.999,2929376.9000001,2929377.7,2023-06-10T07:32:55Z,2929413.899,NULL,NA,NA,NA,NA,NA,NA,NA,sdf,NA,2,NA,NA,NA,NA,NA,NA,NA,NA,NA,NA,NA,NA,NA,NA,NA,NA,NA,NA,NA
2eade,Deep Question,html.Page,3_0_3_0_0_0_0,NA,NA,form submission,7808.5010000952,2929409.6000001,2929397.596,2929413.899,2937222.4000001,2937222.6000001,2023-06-10T07:33:02Z,2937224.134,NULL,Respekt,heshima,d,NA,NA,NA,heshima,NA,NA,3,NA,NA,NA,NA,NA,NA,NA,NA,NA,NA,NA,NA,NA,NA,NA,NA,NA,NA,NA
2eade,"""Richtig""-Screen",canvas.Screen,3_0_3_0_0_0_1,NA,NA,timeout,4996.4879999999,2937224.6000001,2937208.148,2937224.134,2942203.491,2942205.2,2023-06-10T07:33:07Z,2942220.622,NULL,Respekt,heshima,d,NA,NA,NA,NA,qt,1,3,NA,NA,NA,NA,NA,NA,NA,NA,NA,NA,NA,NA,NA,NA,NA,NA,NA,NA,NA
2eade,"""Falsch""-Screen",canvas.Screen,3_0_3_0_0_0_2,NA,NA,skipped,NA,2942207.9000001,NA,NA,2942203.491,2942208.1000001,2023-06-10T07:33:07Z,2942220.622,NULL,Respekt,heshima,d,NA,NA,NA,NA,qt,NA,3,NA,NA,NA,NA,NA,NA,NA,NA,NA,NA,NA,NA,NA,NA,NA,NA,NA,NA,NA
2eade,deep,flow.Sequence,3_0_3_0_0_0,NA,NA,completion,12789.592,2929409.6000001,2929397.596,2929413.899,2942203.491,2942208.3000002,2023-06-10T07:33:07Z,2942220.622,NULL,Respekt,heshima,d,NA,NA,NA,NA,qt,NA,3,NA,NA,NA,NA,NA,NA,NA,NA,NA,NA,NA,NA,NA,NA,NA,NA,NA,NA,NA
2eade,shallow,flow.Sequence,3_0_3_0_0_1,NA,NA,skipped,NA,2942208.4000001,NA,NA,2942203.491,2942208.5,2023-06-10T07:33:07Z,2942220.622,NULL,Respekt,heshima,d,NA,NA,NA,NA,qt,NA,3,NA,NA,NA,NA,NA,NA,NA,NA,NA,NA,NA,NA,NA,NA,NA,NA,NA,NA,NA
2eade,task,flow.Sequence,3_0_3_0_0,NA,NA,completion,12789.592,2929409.6000001,2929397.596,2929413.899,2942203.491,2942208.6000001,2023-06-10T07:33:07Z,2942220.622,NULL,Respekt,heshima,d,NA,NA,NA,NA,qt,NA,3,NA,NA,NA,NA,NA,NA,NA,NA,NA,NA,NA,NA,NA,NA,NA,NA,NA,NA,NA
2eade,deep,flow.Sequence,3_0_3_0_1_0,NA,NA,skipped,NA,2942208.6000001,NA,NA,2942203.491,2942208.6000001,2023-06-10T07:33:07Z,2942220.622,NULL,Betrüger,mdanganyifu,s,mwanamuziki,wastani,mahakama,NA,qt,NA,3,NA,NA,NA,NA,NA,NA,NA,NA,NA,NA,NA,NA,NA,NA,NA,NA,NA,NA,NA
2eade,Shallow Question,html.Page,3_0_3_0_1_1_0,NA,NA,form submission,3460.0780000477,2942208.7,2942203.491,2942220.622,2945680.7,2945680.9000001,2023-06-10T07:33:11Z,2945683.847,NULL,Betrüger,mdanganyifu,s,mwanamuziki,wastani,mahakama,mdanganyifu,NA,NA,3,NA,NA,NA,NA,NA,NA,NA,NA,NA,NA,NA,NA,NA,NA,NA,NA,NA,NA,NA
2eade,"""Richtig""-Screen",canvas.Screen,3_0_3_0_1_1_1,NA,NA,timeout,4996.463,2945682.7,2945667.338,2945683.847,2950663.136,2950664.9000001,2023-06-10T07:33:16Z,2950680.31,NULL,Betrüger,mdanganyifu,s,mwanamuziki,wastani,mahakama,NA,qt,1,3,NA,NA,NA,NA,NA,NA,NA,NA,NA,NA,NA,NA,NA,NA,NA,NA,NA,NA,NA
2eade,"""Falsch""-Screen",canvas.Screen,3_0_3_0_1_1_2,NA,NA,skipped,NA,2950669.7,NA,NA,2950663.136,2950669.8000002,2023-06-10T07:33:16Z,2950680.31,NULL,Betrüger,mdanganyifu,s,mwanamuziki,wastani,mahakama,NA,qt,NA,3,NA,NA,NA,NA,NA,NA,NA,NA,NA,NA,NA,NA,NA,NA,NA,NA,NA,NA,NA
2eade,shallow,flow.Sequence,3_0_3_0_1_1,NA,NA,completion,8442.514,2942208.6000001,2942203.491,2942220.622,2950663.136,2950670,2023-06-10T07:33:16Z,2950680.31,NULL,Betrüger,mdanganyifu,s,mwanamuziki,wastani,mahakama,NA,qt,NA,3,NA,NA,NA,NA,NA,NA,NA,NA,NA,NA,NA,NA,NA,NA,NA,NA,NA,NA,NA
2eade,task,flow.Sequence,3_0_3_0_1,NA,NA,completion,8442.514,2942208.6000001,2942203.491,2942220.622,2950663.136,2950670.2,2023-06-10T07:33:16Z,2950680.31,NULL,Betrüger,mdanganyifu,s,mwanamuziki,wastani,mahakama,NA,qt,NA,3,NA,NA,NA,NA,NA,NA,NA,NA,NA,NA,NA,NA,NA,NA,NA,NA,NA,NA,NA
2eade,deep,flow.Sequence,3_0_3_0_2_0,NA,NA,skipped,NA,2950670.2,NA,NA,2950663.136,2950670.3000002,2023-06-10T07:33:16Z,2950680.31,NULL,Stimmung,kinyongo,s,kilekile,kisambo,madhehebu,NA,qt,NA,3,NA,NA,NA,NA,NA,NA,NA,NA,NA,NA,NA,NA,NA,NA,NA,NA,NA,NA,NA
2eade,Shallow Question,html.Page,3_0_3_0_2_1_0,NA,NA,form submission,5164.9900001907,2950670.3000002,2950663.136,2950680.31,2955845.3000002,2955845.5,2023-06-10T07:33:21Z,2955859.166,NULL,Stimmung,kinyongo,s,kilekile,kisambo,madhehebu,kinyongo,NA,NA,3,NA,NA,NA,NA,NA,NA,NA,NA,NA,NA,NA,NA,NA,NA,NA,NA,NA,NA,NA
2eade,"""Richtig""-Screen",canvas.Screen,3_0_3_0_2_1_1,NA,NA,timeout,4995.6519999998,2955847.2,2955842.284,2955859.166,2960838.555,2960839.6000001,2023-06-10T07:33:26Z,2960854.818,NULL,Stimmung,kinyongo,s,kilekile,kisambo,madhehebu,NA,qt,1,3,NA,NA,NA,NA,NA,NA,NA,NA,NA,NA,NA,NA,NA,NA,NA,NA,NA,NA,NA
2eade,"""Falsch""-Screen",canvas.Screen,3_0_3_0_2_1_2,NA,NA,skipped,NA,2960844.7,NA,NA,2960838.555,2960845,2023-06-10T07:33:26Z,2960854.818,NULL,Stimmung,kinyongo,s,kilekile,kisambo,madhehebu,NA,qt,NA,3,NA,NA,NA,NA,NA,NA,NA,NA,NA,NA,NA,NA,NA,NA,NA,NA,NA,NA,NA
2eade,shallow,flow.Sequence,3_0_3_0_2_1,NA,NA,completion,10158.245,2950670.3000002,2950663.136,2950680.31,2960838.555,2960845.1000001,2023-06-10T07:33:26Z,2960854.818,NULL,Stimmung,kinyongo,s,kilekile,kisambo,madhehebu,NA,qt,NA,3,NA,NA,NA,NA,NA,NA,NA,NA,NA,NA,NA,NA,NA,NA,NA,NA,NA,NA,NA
2eade,task,flow.Sequence,3_0_3_0_2,NA,NA,completion,10158.245,2950670.2,2950663.136,2950680.31,2960838.555,2960845.2,2023-06-10T07:33:26Z,2960854.818,NULL,Stimmung,kinyongo,s,kilekile,kisambo,madhehebu,NA,qt,NA,3,NA,NA,NA,NA,NA,NA,NA,NA,NA,NA,NA,NA,NA,NA,NA,NA,NA,NA,NA
2eade,Deep Question,html.Page,3_0_3_0_3_0_0,NA,NA,form submission,9570.182,2960845.3000002,2960838.555,2960854.818,2970425,2970425.2,2023-06-10T07:33:36Z,2970430.139,NULL,Vergnügen,kichekesho,d,NA,NA,NA,daharua,NA,NA,3,NA,NA,NA,NA,NA,NA,NA,NA,NA,NA,NA,NA,NA,NA,NA,NA,NA,NA,NA
2eade,"""Richtig""-Screen",canvas.Screen,3_0_3_0_3_0_1,NA,NA,skipped,NA,2970427.2,NA,NA,2970425,2970427.3000002,2023-06-10T07:33:36Z,2970430.139,NULL,Vergnügen,kichekesho,d,NA,NA,NA,NA,qt,NA,3,NA,NA,NA,NA,NA,NA,NA,NA,NA,NA,NA,NA,NA,NA,NA,NA,NA,NA,NA
2eade,"""Falsch""-Screen",canvas.Screen,3_0_3_0_3_0_2,NA,NA,timeout,4995.9079999998,2970427.9000001,2970413.565,2970430.139,2975409.675,2975410.4000001,2023-06-10T07:33:41Z,2975426.047,NULL,Vergnügen,kichekesho,d,NA,NA,NA,NA,qt,0,3,NA,NA,NA,NA,NA,NA,NA,NA,NA,NA,NA,NA,NA,NA,NA,NA,NA,NA,NA
2eade,deep,flow.Sequence,3_0_3_0_3_0,NA,NA,completion,14554.857,2960845.3000002,2960838.555,2960854.818,2975409.675,2975410.9000001,2023-06-10T07:33:41Z,2975426.047,NULL,Vergnügen,kichekesho,d,NA,NA,NA,NA,qt,NA,3,NA,NA,NA,NA,NA,NA,NA,NA,NA,NA,NA,NA,NA,NA,NA,NA,NA,NA,NA
2eade,shallow,flow.Sequence,3_0_3_0_3_1,NA,NA,skipped,NA,2975411.1000001,NA,NA,2975409.675,2975411.3000002,2023-06-10T07:33:41Z,2975426.047,NULL,Vergnügen,kichekesho,d,NA,NA,NA,NA,qt,NA,3,NA,NA,NA,NA,NA,NA,NA,NA,NA,NA,NA,NA,NA,NA,NA,NA,NA,NA,NA
2eade,task,flow.Sequence,3_0_3_0_3,NA,NA,completion,14554.857,2960845.3000002,2960838.555,2960854.818,2975409.675,2975411.5,2023-06-10T07:33:41Z,2975426.047,NULL,Vergnügen,kichekesho,d,NA,NA,NA,NA,qt,NA,3,NA,NA,NA,NA,NA,NA,NA,NA,NA,NA,NA,NA,NA,NA,NA,NA,NA,NA,NA
2eade,deep,flow.Sequence,3_0_3_0_4_0,NA,NA,skipped,NA,2975411.7,NA,NA,2975409.675,2975411.8000002,2023-06-10T07:33:41Z,2975426.047,NULL,Wohlstand,mafanikio,s,chimbuko,kumbuko,mapwaji,NA,qt,NA,3,NA,NA,NA,NA,NA,NA,NA,NA,NA,NA,NA,NA,NA,NA,NA,NA,NA,NA,NA
2eade,Shallow Question,html.Page,3_0_3_0_4_1_0,NA,NA,form submission,3914.7530001909,2975412,2975409.675,2975426.047,2979340.8000002,2979340.9000001,2023-06-10T07:33:45Z,2979356.791,NULL,Wohlstand,mafanikio,s,chimbuko,kumbuko,mapwaji,mafanikio,NA,NA,3,NA,NA,NA,NA,NA,NA,NA,NA,NA,NA,NA,NA,NA,NA,NA,NA,NA,NA,NA
2eade,"""Richtig""-Screen",canvas.Screen,3_0_3_0_4_1_1,NA,NA,timeout,4995.3059999999,2979342.9000001,2979339.666,2979356.791,2984335.933,2984336.8000002,2023-06-10T07:33:50Z,2984352.097,NULL,Wohlstand,mafanikio,s,chimbuko,kumbuko,mapwaji,NA,qt,1,3,NA,NA,NA,NA,NA,NA,NA,NA,NA,NA,NA,NA,NA,NA,NA,NA,NA,NA,NA
2eade,"""Falsch""-Screen",canvas.Screen,3_0_3_0_4_1_2,NA,NA,skipped,NA,2984342.3000002,NA,NA,2984335.933,2984342.7,2023-06-10T07:33:50Z,2984352.097,NULL,Wohlstand,mafanikio,s,chimbuko,kumbuko,mapwaji,NA,qt,NA,3,NA,NA,NA,NA,NA,NA,NA,NA,NA,NA,NA,NA,NA,NA,NA,NA,NA,NA,NA
2eade,shallow,flow.Sequence,3_0_3_0_4_1,NA,NA,completion,8909.8860000004,2975412,2975409.675,2975426.047,2984335.933,2984343.1000001,2023-06-10T07:33:50Z,2984352.097,NULL,Wohlstand,mafanikio,s,chimbuko,kumbuko,mapwaji,NA,qt,NA,3,NA,NA,NA,NA,NA,NA,NA,NA,NA,NA,NA,NA,NA,NA,NA,NA,NA,NA,NA
2eade,task,flow.Sequence,3_0_3_0_4,NA,NA,completion,8909.8860000004,2975411.7,2975409.675,2975426.047,2984335.933,2984343.5,2023-06-10T07:33:50Z,2984352.097,NULL,Wohlstand,mafanikio,s,chimbuko,kumbuko,mapwaji,NA,qt,NA,3,NA,NA,NA,NA,NA,NA,NA,NA,NA,NA,NA,NA,NA,NA,NA,NA,NA,NA,NA
2eade,deep,flow.Sequence,3_0_3_0_5_0,NA,NA,skipped,NA,2984343.7,NA,NA,2984335.933,2984343.9000001,2023-06-10T07:33:50Z,2984352.097,NULL,Ergänzung,kijalizo,s,ulaghai,mustarehe,matangazo,NA,qt,NA,3,NA,NA,NA,NA,NA,NA,NA,NA,NA,NA,NA,NA,NA,NA,NA,NA,NA,NA,NA
2eade,Shallow Question,html.Page,3_0_3_0_5_1_0,NA,NA,form submission,2968.6030000476,2984344.1000001,2984335.933,2984352.097,2987320.7,2987320.9000001,2023-06-10T07:33:53Z,2987333.563,NULL,Ergänzung,kijalizo,s,ulaghai,mustarehe,matangazo,kijalizo,NA,NA,3,NA,NA,NA,NA,NA,NA,NA,NA,NA,NA,NA,NA,NA,NA,NA,NA,NA,NA,NA
2eade,"""Richtig""-Screen",canvas.Screen,3_0_3_0_5_1_1,NA,NA,timeout,4995.8079999997,2987321.4000001,2987316.866,2987333.563,2992312.655,2992313.2,2023-06-10T07:33:58Z,2992329.371,NULL,Ergänzung,kijalizo,s,ulaghai,mustarehe,matangazo,NA,qt,1,3,NA,NA,NA,NA,NA,NA,NA,NA,NA,NA,NA,NA,NA,NA,NA,NA,NA,NA,NA
2eade,"""Falsch""-Screen",canvas.Screen,3_0_3_0_5_1_2,NA,NA,skipped,NA,2992316.3000002,NA,NA,2992312.655,2992316.5,2023-06-10T07:33:58Z,2992329.371,NULL,Ergänzung,kijalizo,s,ulaghai,mustarehe,matangazo,NA,qt,NA,3,NA,NA,NA,NA,NA,NA,NA,NA,NA,NA,NA,NA,NA,NA,NA,NA,NA,NA,NA
2eade,shallow,flow.Sequence,3_0_3_0_5_1,NA,NA,completion,7960.5579999997,2984344,2984335.933,2984352.097,2992312.655,2992316.8000002,2023-06-10T07:33:58Z,2992329.371,NULL,Ergänzung,kijalizo,s,ulaghai,mustarehe,matangazo,NA,qt,NA,3,NA,NA,NA,NA,NA,NA,NA,NA,NA,NA,NA,NA,NA,NA,NA,NA,NA,NA,NA
2eade,task,flow.Sequence,3_0_3_0_5,NA,NA,completion,7960.5579999997,2984343.6000001,2984335.933,2984352.097,2992312.655,2992317,2023-06-10T07:33:58Z,2992329.371,NULL,Ergänzung,kijalizo,s,ulaghai,mustarehe,matangazo,NA,qt,NA,3,NA,NA,NA,NA,NA,NA,NA,NA,NA,NA,NA,NA,NA,NA,NA,NA,NA,NA,NA
2eade,Deep Question,html.Page,3_0_3_0_6_0_0,NA,NA,form submission,3738.6290000002,2992317.1000001,2992312.655,2992329.371,2996068,2996068.2,2023-06-10T07:34:01Z,2996075.801,NULL,Orientierung,urekebisho,d,NA,NA,NA,dharea,NA,NA,3,NA,NA,NA,NA,NA,NA,NA,NA,NA,NA,NA,NA,NA,NA,NA,NA,NA,NA,NA
2eade,"""Richtig""-Screen",canvas.Screen,3_0_3_0_6_0_1,NA,NA,skipped,NA,2996070.1000001,NA,NA,2996068,2996070.3000002,2023-06-10T07:34:01Z,2996075.801,NULL,Orientierung,urekebisho,d,NA,NA,NA,NA,qt,NA,3,NA,NA,NA,NA,NA,NA,NA,NA,NA,NA,NA,NA,NA,NA,NA,NA,NA,NA,NA
2eade,"""Falsch""-Screen",canvas.Screen,3_0_3_0_6_0_2,NA,NA,timeout,4996.4679999999,2996070.8000002,2996059.78,2996075.801,3001055.281,3001057,2023-06-10T07:34:06Z,3001072.269,NULL,Orientierung,urekebisho,d,NA,NA,NA,NA,qt,0,3,NA,NA,NA,NA,NA,NA,NA,NA,NA,NA,NA,NA,NA,NA,NA,NA,NA,NA,NA
2eade,deep,flow.Sequence,3_0_3_0_6_0,NA,NA,completion,8725.9100000001,2992317.1000001,2992312.655,2992329.371,3001055.281,3001057.4000001,2023-06-10T07:34:06Z,3001072.269,NULL,Orientierung,urekebisho,d,NA,NA,NA,NA,qt,NA,3,NA,NA,NA,NA,NA,NA,NA,NA,NA,NA,NA,NA,NA,NA,NA,NA,NA,NA,NA
2eade,shallow,flow.Sequence,3_0_3_0_6_1,NA,NA,skipped,NA,3001057.6000001,NA,NA,3001055.281,3001057.7,2023-06-10T07:34:06Z,3001072.269,NULL,Orientierung,urekebisho,d,NA,NA,NA,NA,qt,NA,3,NA,NA,NA,NA,NA,NA,NA,NA,NA,NA,NA,NA,NA,NA,NA,NA,NA,NA,NA
2eade,task,flow.Sequence,3_0_3_0_6,NA,NA,completion,8725.9100000001,2992317.1000001,2992312.655,2992329.371,3001055.281,3001057.8000002,2023-06-10T07:34:06Z,3001072.269,NULL,Orientierung,urekebisho,d,NA,NA,NA,NA,qt,NA,3,NA,NA,NA,NA,NA,NA,NA,NA,NA,NA,NA,NA,NA,NA,NA,NA,NA,NA,NA
2eade,Deep Question,html.Page,3_0_3_0_7_0_0,NA,NA,form submission,3692.8310001432,3001058,3001055.281,3001072.269,3004765.1000001,3004765.3000002,2023-06-10T07:34:10Z,3004768.576,NULL,Notfall,dharura,d,NA,NA,NA,dharea,NA,NA,3,NA,NA,NA,NA,NA,NA,NA,NA,NA,NA,NA,NA,NA,NA,NA,NA,NA,NA,NA
2eade,"""Richtig""-Screen",canvas.Screen,3_0_3_0_7_0_1,NA,NA,skipped,NA,3004767.3000002,NA,NA,3004765.1000001,3004767.5,2023-06-10T07:34:10Z,3004768.576,NULL,Notfall,dharura,d,NA,NA,NA,NA,qt,NA,3,NA,NA,NA,NA,NA,NA,NA,NA,NA,NA,NA,NA,NA,NA,NA,NA,NA,NA,NA
2eade,"""Falsch""-Screen",canvas.Screen,3_0_3_0_7_0_2,NA,NA,timeout,4996.1710000001,3004768.1000001,3004751.958,3004768.576,3009747.943,3009749.7,2023-06-10T07:34:15Z,3009764.747,NULL,Notfall,dharura,d,NA,NA,NA,NA,qt,0,3,NA,NA,NA,NA,NA,NA,NA,NA,NA,NA,NA,NA,NA,NA,NA,NA,NA,NA,NA
2eade,deep,flow.Sequence,3_0_3_0_7_0,NA,NA,completion,8675.6740000001,3001058,3001055.281,3001072.269,3009747.943,3009750.2,2023-06-10T07:34:15Z,3009764.747,NULL,Notfall,dharura,d,NA,NA,NA,NA,qt,NA,3,NA,NA,NA,NA,NA,NA,NA,NA,NA,NA,NA,NA,NA,NA,NA,NA,NA,NA,NA
2eade,shallow,flow.Sequence,3_0_3_0_7_1,NA,NA,skipped,NA,3009750.3000002,NA,NA,3009747.943,3009750.6000001,2023-06-10T07:34:15Z,3009764.747,NULL,Notfall,dharura,d,NA,NA,NA,NA,qt,NA,3,NA,NA,NA,NA,NA,NA,NA,NA,NA,NA,NA,NA,NA,NA,NA,NA,NA,NA,NA
2eade,task,flow.Sequence,3_0_3_0_7,NA,NA,completion,8675.6740000001,3001057.9000001,3001055.281,3001072.269,3009747.943,3009750.8000002,2023-06-10T07:34:15Z,3009764.747,NULL,Notfall,dharura,d,NA,NA,NA,NA,qt,NA,3,NA,NA,NA,NA,NA,NA,NA,NA,NA,NA,NA,NA,NA,NA,NA,NA,NA,NA,NA
2eade,block,flow.Loop,3_0_3_0,NA,NA,completion,80334.044,2929409.6000001,2929397.596,2929413.899,3009747.943,3009751.1000001,2023-06-10T07:34:15Z,3009764.747,NULL,NA,NA,NA,NA,NA,NA,NA,qt,NA,3,NA,NA,NA,NA,NA,NA,NA,NA,NA,NA,NA,NA,NA,NA,NA,NA,NA,NA,NA
2eade,weiter,canvas.Screen,3_0_3_1,sdf,keypress(Space),response,749.25300000003,3009751.2,3009747.943,3009764.747,3010514,3010514.6000001,2023-06-10T07:34:16Z,3010547.144,NULL,NA,NA,NA,NA,NA,NA,NA,qt,NA,3,NA,NA,NA,NA,NA,NA,NA,NA,NA,NA,NA,NA,NA,NA,NA,NA,NA,NA,NA
2eade,check continue,flow.Sequence,3_0_3,NA,NA,completion,81100.101,2929409.5,2929397.596,2929413.899,3010514,3010514.7,2023-06-10T07:34:16Z,3010547.144,NULL,NA,NA,NA,NA,NA,NA,NA,qt,NA,3,NA,NA,NA,NA,NA,NA,NA,NA,NA,NA,NA,NA,NA,NA,NA,NA,NA,NA,NA
2eade,deep,flow.Sequence,3_0_4_0_0_0,NA,NA,skipped,NA,3010543.6000001,NA,NA,3010514,3010543.8000002,2023-06-10T07:34:16Z,3010547.144,NULL,Ergänzung,kijalizo,s,ulaghai,mustarehe,matangazo,NA,sd,NA,4,NA,NA,NA,NA,NA,NA,NA,NA,NA,NA,NA,NA,NA,NA,NA,NA,NA,NA,NA
2eade,Shallow Question,html.Page,3_0_4_0_0_1_0,NA,NA,form submission,2918.1560001909,3010543.9000001,3010531.004,3010547.144,3013465.3000002,3013465.5,2023-06-10T07:34:19Z,3013478.701,NULL,Ergänzung,kijalizo,s,ulaghai,mustarehe,matangazo,kijalizo,NA,NA,4,NA,NA,NA,NA,NA,NA,NA,NA,NA,NA,NA,NA,NA,NA,NA,NA,NA,NA,NA
2eade,"""Richtig""-Screen",canvas.Screen,3_0_4_0_0_1_1,NA,NA,timeout,4995.2800000003,3013467.3000002,3013461.939,3013478.701,3018457.381,3018459.5,2023-06-10T07:34:24Z,3018473.981,NULL,Ergänzung,kijalizo,s,ulaghai,mustarehe,matangazo,NA,sd,1,4,NA,NA,NA,NA,NA,NA,NA,NA,NA,NA,NA,NA,NA,NA,NA,NA,NA,NA,NA
2eade,"""Falsch""-Screen",canvas.Screen,3_0_4_0_0_1_2,NA,NA,skipped,NA,3018461.1000001,NA,NA,3018457.381,3018461.1000001,2023-06-10T07:34:24Z,3018473.981,NULL,Ergänzung,kijalizo,s,ulaghai,mustarehe,matangazo,NA,sd,NA,4,NA,NA,NA,NA,NA,NA,NA,NA,NA,NA,NA,NA,NA,NA,NA,NA,NA,NA,NA
2eade,shallow,flow.Sequence,3_0_4_0_0_1,NA,NA,completion,7910.2370000002,3010543.8000002,3010531.004,3010547.144,3018457.381,3018461.3000002,2023-06-10T07:34:24Z,3018473.981,NULL,Ergänzung,kijalizo,s,ulaghai,mustarehe,matangazo,NA,sd,NA,4,NA,NA,NA,NA,NA,NA,NA,NA,NA,NA,NA,NA,NA,NA,NA,NA,NA,NA,NA
2eade,task,flow.Sequence,3_0_4_0_0,NA,NA,completion,7910.2370000002,3010543.6000001,3010531.004,3010547.144,3018457.381,3018461.3000002,2023-06-10T07:34:24Z,3018473.981,NULL,Ergänzung,kijalizo,s,ulaghai,mustarehe,matangazo,NA,sd,NA,4,NA,NA,NA,NA,NA,NA,NA,NA,NA,NA,NA,NA,NA,NA,NA,NA,NA,NA,NA
2eade,Deep Question,html.Page,3_0_4_0_1_0_0,NA,NA,form submission,3811.3190001906,3018461.4000001,3018457.381,3018473.981,3022285.3000002,3022285.6000001,2023-06-10T07:34:28Z,3022287.445,NULL,Orientierung,urekebisho,d,NA,NA,NA,dharua,NA,NA,4,NA,NA,NA,NA,NA,NA,NA,NA,NA,NA,NA,NA,NA,NA,NA,NA,NA,NA,NA
2eade,"""Richtig""-Screen",canvas.Screen,3_0_4_0_1_0_1,NA,NA,skipped,NA,3022287.6000001,NA,NA,3022285.3000002,3022287.7,2023-06-10T07:34:28Z,3022287.445,NULL,Orientierung,urekebisho,d,NA,NA,NA,NA,sd,NA,4,NA,NA,NA,NA,NA,NA,NA,NA,NA,NA,NA,NA,NA,NA,NA,NA,NA,NA,NA
2eade,"""Falsch""-Screen",canvas.Screen,3_0_4_0_1_0_2,NA,NA,timeout,4996.1630000002,3022288.2,3022271.105,3022287.445,3027266.978,3027267.8000002,2023-06-10T07:34:33Z,3027283.608,NULL,Orientierung,urekebisho,d,NA,NA,NA,NA,sd,0,4,NA,NA,NA,NA,NA,NA,NA,NA,NA,NA,NA,NA,NA,NA,NA,NA,NA,NA,NA
2eade,deep,flow.Sequence,3_0_4_0_1_0,NA,NA,completion,8792.997,3018461.4000001,3018457.381,3018473.981,3027266.978,3027268.2,2023-06-10T07:34:33Z,3027283.608,NULL,Orientierung,urekebisho,d,NA,NA,NA,NA,sd,NA,4,NA,NA,NA,NA,NA,NA,NA,NA,NA,NA,NA,NA,NA,NA,NA,NA,NA,NA,NA
2eade,shallow,flow.Sequence,3_0_4_0_1_1,NA,NA,skipped,NA,3027268.4000001,NA,NA,3027266.978,3027268.6000001,2023-06-10T07:34:33Z,3027283.608,NULL,Orientierung,urekebisho,d,NA,NA,NA,NA,sd,NA,4,NA,NA,NA,NA,NA,NA,NA,NA,NA,NA,NA,NA,NA,NA,NA,NA,NA,NA,NA
2eade,task,flow.Sequence,3_0_4_0_1,NA,NA,completion,8792.997,3018461.4000001,3018457.381,3018473.981,3027266.978,3027268.8000002,2023-06-10T07:34:33Z,3027283.608,NULL,Orientierung,urekebisho,d,NA,NA,NA,NA,sd,NA,4,NA,NA,NA,NA,NA,NA,NA,NA,NA,NA,NA,NA,NA,NA,NA,NA,NA,NA,NA
2eade,deep,flow.Sequence,3_0_4_0_2_0,NA,NA,skipped,NA,3027268.9000001,NA,NA,3027266.978,3027269.1000001,2023-06-10T07:34:33Z,3027283.608,NULL,Stimmung,kinyongo,s,kilekile,kisambo,madhehebu,NA,sd,NA,4,NA,NA,NA,NA,NA,NA,NA,NA,NA,NA,NA,NA,NA,NA,NA,NA,NA,NA,NA
2eade,Shallow Question,html.Page,3_0_4_0_2_1_0,NA,NA,form submission,2546.5920000477,3027269.2,3027266.978,3027283.608,3029830.2,3029830.4000001,2023-06-10T07:34:35Z,3029831.26,NULL,Stimmung,kinyongo,s,kilekile,kisambo,madhehebu,kinyongo,NA,NA,4,NA,NA,NA,NA,NA,NA,NA,NA,NA,NA,NA,NA,NA,NA,NA,NA,NA,NA,NA
2eade,"""Richtig""-Screen",canvas.Screen,3_0_4_0_2_1_1,NA,NA,timeout,4995.8620000002,3029832.2,3029815.05,3029831.26,3034810.508,3034810.9000001,2023-06-10T07:34:40Z,3034827.122,NULL,Stimmung,kinyongo,s,kilekile,kisambo,madhehebu,NA,sd,1,4,NA,NA,NA,NA,NA,NA,NA,NA,NA,NA,NA,NA,NA,NA,NA,NA,NA,NA,NA
2eade,"""Falsch""-Screen",canvas.Screen,3_0_4_0_2_1_2,NA,NA,skipped,NA,3034813.6000001,NA,NA,3034810.508,3034813.9000001,2023-06-10T07:34:40Z,3034827.122,NULL,Stimmung,kinyongo,s,kilekile,kisambo,madhehebu,NA,sd,NA,4,NA,NA,NA,NA,NA,NA,NA,NA,NA,NA,NA,NA,NA,NA,NA,NA,NA,NA,NA
2eade,shallow,flow.Sequence,3_0_4_0_2_1,NA,NA,completion,7526.8999999999,3027269.2,3027266.978,3027283.608,3034810.508,3034814,2023-06-10T07:34:40Z,3034827.122,NULL,Stimmung,kinyongo,s,kilekile,kisambo,madhehebu,NA,sd,NA,4,NA,NA,NA,NA,NA,NA,NA,NA,NA,NA,NA,NA,NA,NA,NA,NA,NA,NA,NA
2eade,task,flow.Sequence,3_0_4_0_2,NA,NA,completion,7526.8999999999,3027268.9000001,3027266.978,3027283.608,3034810.508,3034814.1000001,2023-06-10T07:34:40Z,3034827.122,NULL,Stimmung,kinyongo,s,kilekile,kisambo,madhehebu,NA,sd,NA,4,NA,NA,NA,NA,NA,NA,NA,NA,NA,NA,NA,NA,NA,NA,NA,NA,NA,NA,NA
2eade,deep,flow.Sequence,3_0_4_0_3_0,NA,NA,skipped,NA,3034814.2,NA,NA,3034810.508,3034814.2,2023-06-10T07:34:40Z,3034827.122,NULL,Wohlstand,mafanikio,s,chimbuko,kumbuko,mapwaji,NA,sd,NA,4,NA,NA,NA,NA,NA,NA,NA,NA,NA,NA,NA,NA,NA,NA,NA,NA,NA,NA,NA
2eade,Shallow Question,html.Page,3_0_4_0_3_1_0,NA,NA,form submission,3698.0780000477,3034814.2,3034810.508,3034827.122,3038525.2,3038525.3000002,2023-06-10T07:34:44Z,3038541.405,NULL,Wohlstand,mafanikio,s,chimbuko,kumbuko,mapwaji,mafanikio,NA,NA,4,NA,NA,NA,NA,NA,NA,NA,NA,NA,NA,NA,NA,NA,NA,NA,NA,NA,NA,NA
2eade,"""Richtig""-Screen",canvas.Screen,3_0_4_0_3_1_1,NA,NA,timeout,4995.6710000001,3038527.1000001,3038524.247,3038541.405,3043520.256,3043521.3000002,2023-06-10T07:34:49Z,3043537.076,NULL,Wohlstand,mafanikio,s,chimbuko,kumbuko,mapwaji,NA,sd,1,4,NA,NA,NA,NA,NA,NA,NA,NA,NA,NA,NA,NA,NA,NA,NA,NA,NA,NA,NA
2eade,"""Falsch""-Screen",canvas.Screen,3_0_4_0_3_1_2,NA,NA,skipped,NA,3043526,NA,NA,3043520.256,3043526.1000001,2023-06-10T07:34:49Z,3043537.076,NULL,Wohlstand,mafanikio,s,chimbuko,kumbuko,mapwaji,NA,sd,NA,4,NA,NA,NA,NA,NA,NA,NA,NA,NA,NA,NA,NA,NA,NA,NA,NA,NA,NA,NA
2eade,shallow,flow.Sequence,3_0_4_0_3_1,NA,NA,completion,8693.1340000001,3034814.2,3034810.508,3034827.122,3043520.256,3043526.2,2023-06-10T07:34:49Z,3043537.076,NULL,Wohlstand,mafanikio,s,chimbuko,kumbuko,mapwaji,NA,sd,NA,4,NA,NA,NA,NA,NA,NA,NA,NA,NA,NA,NA,NA,NA,NA,NA,NA,NA,NA,NA
2eade,task,flow.Sequence,3_0_4_0_3,NA,NA,completion,8693.1340000001,3034814.1000001,3034810.508,3034827.122,3043520.256,3043526.3000002,2023-06-10T07:34:49Z,3043537.076,NULL,Wohlstand,mafanikio,s,chimbuko,kumbuko,mapwaji,NA,sd,NA,4,NA,NA,NA,NA,NA,NA,NA,NA,NA,NA,NA,NA,NA,NA,NA,NA,NA,NA,NA
2eade,Deep Question,html.Page,3_0_4_0_4_0_0,NA,NA,form submission,10004.124000048,3043526.9000001,3043520.256,3043537.076,3053541.2,3053541.4000001,2023-06-10T07:34:59Z,3053562.358,NULL,Respekt,heshima,d,NA,NA,NA,ushame,NA,NA,4,NA,NA,NA,NA,NA,NA,NA,NA,NA,NA,NA,NA,NA,NA,NA,NA,NA,NA,NA
2eade,"""Richtig""-Screen",canvas.Screen,3_0_4_0_4_0_1,NA,NA,skipped,NA,3053543.5,NA,NA,3053541.2,3053543.7,2023-06-10T07:34:59Z,3053562.358,NULL,Respekt,heshima,d,NA,NA,NA,NA,sd,NA,4,NA,NA,NA,NA,NA,NA,NA,NA,NA,NA,NA,NA,NA,NA,NA,NA,NA,NA,NA
2eade,"""Falsch""-Screen",canvas.Screen,3_0_4_0_4_0_2,NA,NA,timeout,4995.9989999998,3053544.3000002,3053545.094,3053562.358,3058541.03,3058542,2023-06-10T07:35:04Z,3058558.357,NULL,Respekt,heshima,d,NA,NA,NA,NA,sd,0,4,NA,NA,NA,NA,NA,NA,NA,NA,NA,NA,NA,NA,NA,NA,NA,NA,NA,NA,NA
2eade,deep,flow.Sequence,3_0_4_0_4_0,NA,NA,completion,15003.954,3043526.9000001,3043520.256,3043537.076,3058541.03,3058542.6000001,2023-06-10T07:35:04Z,3058558.357,NULL,Respekt,heshima,d,NA,NA,NA,NA,sd,NA,4,NA,NA,NA,NA,NA,NA,NA,NA,NA,NA,NA,NA,NA,NA,NA,NA,NA,NA,NA
2eade,shallow,flow.Sequence,3_0_4_0_4_1,NA,NA,skipped,NA,3058542.9000001,NA,NA,3058541.03,3058543.2,2023-06-10T07:35:04Z,3058558.357,NULL,Respekt,heshima,d,NA,NA,NA,NA,sd,NA,4,NA,NA,NA,NA,NA,NA,NA,NA,NA,NA,NA,NA,NA,NA,NA,NA,NA,NA,NA
2eade,task,flow.Sequence,3_0_4_0_4,NA,NA,completion,15003.954,3043526.8000002,3043520.256,3043537.076,3058541.03,3058543.6000001,2023-06-10T07:35:04Z,3058558.357,NULL,Respekt,heshima,d,NA,NA,NA,NA,sd,NA,4,NA,NA,NA,NA,NA,NA,NA,NA,NA,NA,NA,NA,NA,NA,NA,NA,NA,NA,NA
2eade,Deep Question,html.Page,3_0_4_0_5_0_0,NA,NA,form submission,4044.1430000002,3058544.3000002,3058541.03,3058558.357,3062602.5,3062602.7,2023-06-10T07:35:08Z,3062621.663,NULL,Notfall,dharura,d,NA,NA,NA,dharua,NA,NA,4,NA,NA,NA,NA,NA,NA,NA,NA,NA,NA,NA,NA,NA,NA,NA,NA,NA,NA,NA
2eade,"""Richtig""-Screen",canvas.Screen,3_0_4_0_5_0_1,NA,NA,skipped,NA,3062605.1000001,NA,NA,3062602.5,3062605.4000001,2023-06-10T07:35:08Z,3062621.663,NULL,Notfall,dharura,d,NA,NA,NA,NA,sd,NA,4,NA,NA,NA,NA,NA,NA,NA,NA,NA,NA,NA,NA,NA,NA,NA,NA,NA,NA,NA
2eade,"""Falsch""-Screen",canvas.Screen,3_0_4_0_5_0_2,NA,NA,timeout,4995.389,3062606.2,3062604.282,3062621.663,3067600.711,3067601.7,2023-06-10T07:35:13Z,3067617.052,NULL,Notfall,dharura,d,NA,NA,NA,NA,sd,0,4,NA,NA,NA,NA,NA,NA,NA,NA,NA,NA,NA,NA,NA,NA,NA,NA,NA,NA,NA
2eade,deep,flow.Sequence,3_0_4_0_5_0,NA,NA,completion,9042.3540000003,3058544.1000001,3058541.03,3058558.357,3067600.711,3067602.1000001,2023-06-10T07:35:13Z,3067617.052,NULL,Notfall,dharura,d,NA,NA,NA,NA,sd,NA,4,NA,NA,NA,NA,NA,NA,NA,NA,NA,NA,NA,NA,NA,NA,NA,NA,NA,NA,NA
2eade,shallow,flow.Sequence,3_0_4_0_5_1,NA,NA,skipped,NA,3067602.2,NA,NA,3067600.711,3067602.5,2023-06-10T07:35:13Z,3067617.052,NULL,Notfall,dharura,d,NA,NA,NA,NA,sd,NA,4,NA,NA,NA,NA,NA,NA,NA,NA,NA,NA,NA,NA,NA,NA,NA,NA,NA,NA,NA
2eade,task,flow.Sequence,3_0_4_0_5,NA,NA,completion,9042.3540000003,3058544,3058541.03,3058558.357,3067600.711,3067602.8000002,2023-06-10T07:35:13Z,3067617.052,NULL,Notfall,dharura,d,NA,NA,NA,NA,sd,NA,4,NA,NA,NA,NA,NA,NA,NA,NA,NA,NA,NA,NA,NA,NA,NA,NA,NA,NA,NA
2eade,deep,flow.Sequence,3_0_4_0_6_0,NA,NA,skipped,NA,3067603,NA,NA,3067600.711,3067603.2,2023-06-10T07:35:13Z,3067617.052,NULL,Betrüger,mdanganyifu,s,mwanamuziki,wastani,mahakama,NA,sd,NA,4,NA,NA,NA,NA,NA,NA,NA,NA,NA,NA,NA,NA,NA,NA,NA,NA,NA,NA,NA
2eade,Shallow Question,html.Page,3_0_4_0_6_1_0,NA,NA,form submission,3628.9479999999,3067603.4000001,3067600.711,3067617.052,3071246,3071246.2,2023-06-10T07:35:16Z,3071247.151,NULL,Betrüger,mdanganyifu,s,mwanamuziki,wastani,mahakama,mdanganyifu,NA,NA,4,NA,NA,NA,NA,NA,NA,NA,NA,NA,NA,NA,NA,NA,NA,NA,NA,NA,NA,NA
2eade,"""Richtig""-Screen",canvas.Screen,3_0_4_0_6_1_1,NA,NA,timeout,4995.9470000002,3071248.2,3071231.101,3071247.151,3076226.783,3076227.7,2023-06-10T07:35:21Z,3076243.098,NULL,Betrüger,mdanganyifu,s,mwanamuziki,wastani,mahakama,NA,sd,1,4,NA,NA,NA,NA,NA,NA,NA,NA,NA,NA,NA,NA,NA,NA,NA,NA,NA,NA,NA
2eade,"""Falsch""-Screen",canvas.Screen,3_0_4_0_6_1_2,NA,NA,skipped,NA,3076233,NA,NA,3076226.783,3076233.2,2023-06-10T07:35:21Z,3076243.098,NULL,Betrüger,mdanganyifu,s,mwanamuziki,wastani,mahakama,NA,sd,NA,4,NA,NA,NA,NA,NA,NA,NA,NA,NA,NA,NA,NA,NA,NA,NA,NA,NA,NA,NA
2eade,shallow,flow.Sequence,3_0_4_0_6_1,NA,NA,completion,8609.7309999997,3067603.3000002,3067600.711,3067617.052,3076226.783,3076233.7,2023-06-10T07:35:21Z,3076243.098,NULL,Betrüger,mdanganyifu,s,mwanamuziki,wastani,mahakama,NA,sd,NA,4,NA,NA,NA,NA,NA,NA,NA,NA,NA,NA,NA,NA,NA,NA,NA,NA,NA,NA,NA
2eade,task,flow.Sequence,3_0_4_0_6,NA,NA,completion,8609.7309999997,3067603,3067600.711,3067617.052,3076226.783,3076234.1000001,2023-06-10T07:35:21Z,3076243.098,NULL,Betrüger,mdanganyifu,s,mwanamuziki,wastani,mahakama,NA,sd,NA,4,NA,NA,NA,NA,NA,NA,NA,NA,NA,NA,NA,NA,NA,NA,NA,NA,NA,NA,NA
2eade,Deep Question,html.Page,3_0_4_0_7_0_0,NA,NA,form submission,4826.0020001428,3076234.5,3076226.783,3076243.098,3081069.1000001,3081069.4000001,2023-06-10T07:35:26Z,3081072.396,NULL,Vergnügen,kichekesho,d,NA,NA,NA,kilechicha,NA,NA,4,NA,NA,NA,NA,NA,NA,NA,NA,NA,NA,NA,NA,NA,NA,NA,NA,NA,NA,NA
2eade,"""Richtig""-Screen",canvas.Screen,3_0_4_0_7_0_1,NA,NA,skipped,NA,3081071.4000001,NA,NA,3081069.1000001,3081071.6000001,2023-06-10T07:35:26Z,3081072.396,NULL,Vergnügen,kichekesho,d,NA,NA,NA,NA,sd,NA,4,NA,NA,NA,NA,NA,NA,NA,NA,NA,NA,NA,NA,NA,NA,NA,NA,NA,NA,NA
2eade,"""Falsch""-Screen",canvas.Screen,3_0_4_0_7_0_2,NA,NA,timeout,4996.5429999996,3081072.2,3081056.374,3081072.396,3086052.328,3086052.7,2023-06-10T07:35:31Z,3086068.939,NULL,Vergnügen,kichekesho,d,NA,NA,NA,NA,sd,0,4,NA,NA,NA,NA,NA,NA,NA,NA,NA,NA,NA,NA,NA,NA,NA,NA,NA,NA,NA
2eade,deep,flow.Sequence,3_0_4_0_7_0,NA,NA,completion,9809.23,3076234.5,3076226.783,3076243.098,3086052.328,3086053,2023-06-10T07:35:31Z,3086068.939,NULL,Vergnügen,kichekesho,d,NA,NA,NA,NA,sd,NA,4,NA,NA,NA,NA,NA,NA,NA,NA,NA,NA,NA,NA,NA,NA,NA,NA,NA,NA,NA
2eade,shallow,flow.Sequence,3_0_4_0_7_1,NA,NA,skipped,NA,3086053,NA,NA,3086052.328,3086053,2023-06-10T07:35:31Z,3086068.939,NULL,Vergnügen,kichekesho,d,NA,NA,NA,NA,sd,NA,4,NA,NA,NA,NA,NA,NA,NA,NA,NA,NA,NA,NA,NA,NA,NA,NA,NA,NA,NA
2eade,task,flow.Sequence,3_0_4_0_7,NA,NA,completion,9809.23,3076234.4000001,3076226.783,3076243.098,3086052.328,3086053.2,2023-06-10T07:35:31Z,3086068.939,NULL,Vergnügen,kichekesho,d,NA,NA,NA,NA,sd,NA,4,NA,NA,NA,NA,NA,NA,NA,NA,NA,NA,NA,NA,NA,NA,NA,NA,NA,NA,NA
2eade,block,flow.Loop,3_0_4_0,NA,NA,completion,75505.184,3010543.6000001,3010531.004,3010547.144,3086052.328,3086053.3000002,2023-06-10T07:35:31Z,3086068.939,NULL,NA,NA,NA,NA,NA,NA,NA,sd,NA,4,NA,NA,NA,NA,NA,NA,NA,NA,NA,NA,NA,NA,NA,NA,NA,NA,NA,NA,NA
2eade,weiter,canvas.Screen,3_0_4_1,sdf,keypress(Space),response,835.16100014327,3086053.3000002,3086052.328,3086068.939,3086904.1000001,3086905.3000002,2023-06-10T07:35:32Z,3086951.58,NULL,NA,NA,NA,NA,NA,NA,NA,sd,NA,4,NA,NA,NA,NA,NA,NA,NA,NA,NA,NA,NA,NA,NA,NA,NA,NA,NA,NA,NA
2eade,check continue,flow.Sequence,3_0_4,NA,NA,completion,76356.956000143007,3010543.5,3010531.004,3010547.144,3086904.1000001,3086905.6000001,2023-06-10T07:35:32Z,3086951.58,NULL,NA,NA,NA,NA,NA,NA,NA,sd,NA,4,NA,NA,NA,NA,NA,NA,NA,NA,NA,NA,NA,NA,NA,NA,NA,NA,NA,NA,NA
2eade,deep,flow.Sequence,3_0_5_0_0_0,NA,NA,skipped,NA,3086936.9000001,NA,NA,3086904.1000001,3086937,2023-06-10T07:35:32Z,3086951.58,NULL,Ergänzung,kijalizo,s,ulaghai,mustarehe,matangazo,NA,sdf,NA,5,NA,NA,NA,NA,NA,NA,NA,NA,NA,NA,NA,NA,NA,NA,NA,NA,NA,NA,NA
2eade,Shallow Question,html.Page,3_0_5_0_0_1_0,NA,NA,form submission,4100.3200000953,3086937.1000001,3086934.763,3086951.58,3091051.9000001,3091052.1000001,2023-06-10T07:35:36Z,3091064.239,NULL,Ergänzung,kijalizo,s,ulaghai,mustarehe,matangazo,kijalizo,NA,NA,5,NA,NA,NA,NA,NA,NA,NA,NA,NA,NA,NA,NA,NA,NA,NA,NA,NA,NA,NA
2eade,"""Richtig""-Screen",canvas.Screen,3_0_5_0_0_1_1,NA,NA,timeout,4996.2919999999,3091053.9000001,3091047.615,3091064.239,3096043.497,3096045.3000002,2023-06-10T07:35:41Z,3096060.531,NULL,Ergänzung,kijalizo,s,ulaghai,mustarehe,matangazo,NA,sdf,1,5,NA,NA,NA,NA,NA,NA,NA,NA,NA,NA,NA,NA,NA,NA,NA,NA,NA,NA,NA
2eade,"""Falsch""-Screen",canvas.Screen,3_0_5_0_0_1_2,NA,NA,skipped,NA,3096050.5,NA,NA,3096043.497,3096050.6000001,2023-06-10T07:35:41Z,3096060.531,NULL,Ergänzung,kijalizo,s,ulaghai,mustarehe,matangazo,NA,sdf,NA,5,NA,NA,NA,NA,NA,NA,NA,NA,NA,NA,NA,NA,NA,NA,NA,NA,NA,NA,NA
2eade,shallow,flow.Sequence,3_0_5_0_0_1,NA,NA,completion,9091.9169999999,3086937.1000001,3086934.763,3086951.58,3096043.497,3096050.7,2023-06-10T07:35:41Z,3096060.531,NULL,Ergänzung,kijalizo,s,ulaghai,mustarehe,matangazo,NA,sdf,NA,5,NA,NA,NA,NA,NA,NA,NA,NA,NA,NA,NA,NA,NA,NA,NA,NA,NA,NA,NA
2eade,task,flow.Sequence,3_0_5_0_0,NA,NA,completion,9091.9169999999,3086936.9000001,3086934.763,3086951.58,3096043.497,3096050.8000002,2023-06-10T07:35:41Z,3096060.531,NULL,Ergänzung,kijalizo,s,ulaghai,mustarehe,matangazo,NA,sdf,NA,5,NA,NA,NA,NA,NA,NA,NA,NA,NA,NA,NA,NA,NA,NA,NA,NA,NA,NA,NA
2eade,Deep Question,html.Page,3_0_5_0_1_0_0,NA,NA,form submission,5483.6690000477,3096050.8000002,3096043.497,3096060.531,3101544.2,3101544.3000002,2023-06-10T07:35:47Z,3101556.043,NULL,Orientierung,urekebisho,d,NA,NA,NA,dharura,NA,NA,5,NA,NA,NA,NA,NA,NA,NA,NA,NA,NA,NA,NA,NA,NA,NA,NA,NA,NA,NA
2eade,"""Richtig""-Screen",canvas.Screen,3_0_5_0_1_0_1,NA,NA,skipped,NA,3101546.2,NA,NA,3101544.2,3101546.3000002,2023-06-10T07:35:47Z,3101556.043,NULL,Orientierung,urekebisho,d,NA,NA,NA,NA,sdf,NA,5,NA,NA,NA,NA,NA,NA,NA,NA,NA,NA,NA,NA,NA,NA,NA,NA,NA,NA,NA
2eade,"""Falsch""-Screen",canvas.Screen,3_0_5_0_1_0_2,NA,NA,timeout,4995.7909999997,3101546.9000001,3101539.466,3101556.043,3106535.116,3106536,2023-06-10T07:35:52Z,3106551.834,NULL,Orientierung,urekebisho,d,NA,NA,NA,NA,sdf,0,5,NA,NA,NA,NA,NA,NA,NA,NA,NA,NA,NA,NA,NA,NA,NA,NA,NA,NA,NA
2eade,deep,flow.Sequence,3_0_5_0_1_0,NA,NA,completion,10474.585,3096050.8000002,3096043.497,3096060.531,3106535.116,3106536.5,2023-06-10T07:35:52Z,3106551.834,NULL,Orientierung,urekebisho,d,NA,NA,NA,NA,sdf,NA,5,NA,NA,NA,NA,NA,NA,NA,NA,NA,NA,NA,NA,NA,NA,NA,NA,NA,NA,NA
2eade,shallow,flow.Sequence,3_0_5_0_1_1,NA,NA,skipped,NA,3106536.8000002,NA,NA,3106535.116,3106537.1000001,2023-06-10T07:35:52Z,3106551.834,NULL,Orientierung,urekebisho,d,NA,NA,NA,NA,sdf,NA,5,NA,NA,NA,NA,NA,NA,NA,NA,NA,NA,NA,NA,NA,NA,NA,NA,NA,NA,NA
2eade,task,flow.Sequence,3_0_5_0_1,NA,NA,completion,10474.585,3096050.8000002,3096043.497,3096060.531,3106535.116,3106537.4000001,2023-06-10T07:35:52Z,3106551.834,NULL,Orientierung,urekebisho,d,NA,NA,NA,NA,sdf,NA,5,NA,NA,NA,NA,NA,NA,NA,NA,NA,NA,NA,NA,NA,NA,NA,NA,NA,NA,NA
2eade,deep,flow.Sequence,3_0_5_0_2_0,NA,NA,skipped,NA,3106537.6000001,NA,NA,3106535.116,3106537.7,2023-06-10T07:35:52Z,3106551.834,NULL,Stimmung,kinyongo,s,kilekile,kisambo,madhehebu,NA,sdf,NA,5,NA,NA,NA,NA,NA,NA,NA,NA,NA,NA,NA,NA,NA,NA,NA,NA,NA,NA,NA
2eade,Shallow Question,html.Page,3_0_5_0_2_1_0,NA,NA,form submission,2843.1660000002,3106537.9000001,3106535.116,3106551.834,3109395,3109395.1000001,2023-06-10T07:35:55Z,3109399.069,NULL,Stimmung,kinyongo,s,kilekile,kisambo,madhehebu,kinyongo,NA,NA,5,NA,NA,NA,NA,NA,NA,NA,NA,NA,NA,NA,NA,NA,NA,NA,NA,NA,NA,NA
2eade,"""Richtig""-Screen",canvas.Screen,3_0_5_0_2_1_1,NA,NA,timeout,4995.943,3109396.9000001,3109382.963,3109399.069,3114378.895,3114379.9000001,2023-06-10T07:36:00Z,3114395.012,NULL,Stimmung,kinyongo,s,kilekile,kisambo,madhehebu,NA,sdf,1,5,NA,NA,NA,NA,NA,NA,NA,NA,NA,NA,NA,NA,NA,NA,NA,NA,NA,NA,NA
2eade,"""Falsch""-Screen",canvas.Screen,3_0_5_0_2_1_2,NA,NA,skipped,NA,3114385.2,NA,NA,3114378.895,3114385.7,2023-06-10T07:36:00Z,3114395.012,NULL,Stimmung,kinyongo,s,kilekile,kisambo,madhehebu,NA,sdf,NA,5,NA,NA,NA,NA,NA,NA,NA,NA,NA,NA,NA,NA,NA,NA,NA,NA,NA,NA,NA
2eade,shallow,flow.Sequence,3_0_5_0_2_1,NA,NA,completion,7827.0610000002,3106537.8000002,3106535.116,3106551.834,3114378.895,3114386,2023-06-10T07:36:00Z,3114395.012,NULL,Stimmung,kinyongo,s,kilekile,kisambo,madhehebu,NA,sdf,NA,5,NA,NA,NA,NA,NA,NA,NA,NA,NA,NA,NA,NA,NA,NA,NA,NA,NA,NA,NA
2eade,task,flow.Sequence,3_0_5_0_2,NA,NA,completion,7827.0610000002,3106537.5,3106535.116,3106551.834,3114378.895,3114386.4000001,2023-06-10T07:36:00Z,3114395.012,NULL,Stimmung,kinyongo,s,kilekile,kisambo,madhehebu,NA,sdf,NA,5,NA,NA,NA,NA,NA,NA,NA,NA,NA,NA,NA,NA,NA,NA,NA,NA,NA,NA,NA
2eade,deep,flow.Sequence,3_0_5_0_3_0,NA,NA,skipped,NA,3114386.6000001,NA,NA,3114378.895,3114386.7,2023-06-10T07:36:00Z,3114395.012,NULL,Betrüger,mdanganyifu,s,mwanamuziki,wastani,mahakama,NA,sdf,NA,5,NA,NA,NA,NA,NA,NA,NA,NA,NA,NA,NA,NA,NA,NA,NA,NA,NA,NA,NA
2eade,Shallow Question,html.Page,3_0_5_0_3_1_0,NA,NA,form submission,3228.0880001429,3114387,3114378.895,3114395.012,3117623.1000001,3117623.3000002,2023-06-10T07:36:03Z,3117625.629,NULL,Betrüger,mdanganyifu,s,mwanamuziki,wastani,mahakama,mdanganyifu,NA,NA,5,NA,NA,NA,NA,NA,NA,NA,NA,NA,NA,NA,NA,NA,NA,NA,NA,NA,NA,NA
2eade,"""Richtig""-Screen",canvas.Screen,3_0_5_0_3_1_1,NA,NA,timeout,4995.8899999997,3117625,3117609.478,3117625.629,3122605.367,3122606.5,2023-06-10T07:36:08Z,3122621.519,NULL,Betrüger,mdanganyifu,s,mwanamuziki,wastani,mahakama,NA,sdf,1,5,NA,NA,NA,NA,NA,NA,NA,NA,NA,NA,NA,NA,NA,NA,NA,NA,NA,NA,NA
2eade,"""Falsch""-Screen",canvas.Screen,3_0_5_0_3_1_2,NA,NA,skipped,NA,3122611.5,NA,NA,3122605.367,3122611.6000001,2023-06-10T07:36:08Z,3122621.519,NULL,Betrüger,mdanganyifu,s,mwanamuziki,wastani,mahakama,NA,sdf,NA,5,NA,NA,NA,NA,NA,NA,NA,NA,NA,NA,NA,NA,NA,NA,NA,NA,NA,NA,NA
2eade,shallow,flow.Sequence,3_0_5_0_3_1,NA,NA,completion,8210.355,3114386.8000002,3114378.895,3114395.012,3122605.367,3122611.8000002,2023-06-10T07:36:08Z,3122621.519,NULL,Betrüger,mdanganyifu,s,mwanamuziki,wastani,mahakama,NA,sdf,NA,5,NA,NA,NA,NA,NA,NA,NA,NA,NA,NA,NA,NA,NA,NA,NA,NA,NA,NA,NA
2eade,task,flow.Sequence,3_0_5_0_3,NA,NA,completion,8210.355,3114386.5,3114378.895,3114395.012,3122605.367,3122611.8000002,2023-06-10T07:36:08Z,3122621.519,NULL,Betrüger,mdanganyifu,s,mwanamuziki,wastani,mahakama,NA,sdf,NA,5,NA,NA,NA,NA,NA,NA,NA,NA,NA,NA,NA,NA,NA,NA,NA,NA,NA,NA,NA
2eade,Deep Question,html.Page,3_0_5_0_4_0_0,NA,NA,form submission,4456.4810000001,3122611.9000001,3122605.367,3122621.519,3127078,3127078.2,2023-06-10T07:36:12Z,3127084.566,NULL,Vergnügen,kichekesho,d,NA,NA,NA,kichekesho,NA,NA,5,NA,NA,NA,NA,NA,NA,NA,NA,NA,NA,NA,NA,NA,NA,NA,NA,NA,NA,NA
2eade,"""Richtig""-Screen",canvas.Screen,3_0_5_0_4_0_1,NA,NA,timeout,4996.4950000001,3127079.9000001,3127068.473,3127084.566,3132064.132,3132065.8000002,2023-06-10T07:36:17Z,3132081.061,NULL,Vergnügen,kichekesho,d,NA,NA,NA,NA,sdf,1,5,NA,NA,NA,NA,NA,NA,NA,NA,NA,NA,NA,NA,NA,NA,NA,NA,NA,NA,NA
2eade,"""Falsch""-Screen",canvas.Screen,3_0_5_0_4_0_2,NA,NA,skipped,NA,3132067.5,NA,NA,3132064.132,3132067.7,2023-06-10T07:36:17Z,3132081.061,NULL,Vergnügen,kichekesho,d,NA,NA,NA,NA,sdf,NA,5,NA,NA,NA,NA,NA,NA,NA,NA,NA,NA,NA,NA,NA,NA,NA,NA,NA,NA,NA
2eade,deep,flow.Sequence,3_0_5_0_4_0,NA,NA,completion,9442.6130000004,3122611.9000001,3122605.367,3122621.519,3132064.132,3132067.7,2023-06-10T07:36:17Z,3132081.061,NULL,Vergnügen,kichekesho,d,NA,NA,NA,NA,sdf,NA,5,NA,NA,NA,NA,NA,NA,NA,NA,NA,NA,NA,NA,NA,NA,NA,NA,NA,NA,NA
2eade,shallow,flow.Sequence,3_0_5_0_4_1,NA,NA,skipped,NA,3132067.8000002,NA,NA,3132064.132,3132067.8000002,2023-06-10T07:36:17Z,3132081.061,NULL,Vergnügen,kichekesho,d,NA,NA,NA,NA,sdf,NA,5,NA,NA,NA,NA,NA,NA,NA,NA,NA,NA,NA,NA,NA,NA,NA,NA,NA,NA,NA
2eade,task,flow.Sequence,3_0_5_0_4,NA,NA,completion,9442.6130000004,3122611.8000002,3122605.367,3122621.519,3132064.132,3132068,2023-06-10T07:36:17Z,3132081.061,NULL,Vergnügen,kichekesho,d,NA,NA,NA,NA,sdf,NA,5,NA,NA,NA,NA,NA,NA,NA,NA,NA,NA,NA,NA,NA,NA,NA,NA,NA,NA,NA
2eade,Deep Question,html.Page,3_0_5_0_5_0_0,NA,NA,form submission,8128.7390001905,3132068,3132064.132,3132081.061,3140209.8000002,3140209.9000001,2023-06-10T07:36:25Z,3140223.763,NULL,Respekt,heshima,d,NA,NA,NA,heshuma,NA,NA,5,NA,NA,NA,NA,NA,NA,NA,NA,NA,NA,NA,NA,NA,NA,NA,NA,NA,NA,NA
2eade,"""Richtig""-Screen",canvas.Screen,3_0_5_0_5_0_1,NA,NA,skipped,NA,3140211.8000002,NA,NA,3140209.8000002,3140212,2023-06-10T07:36:25Z,3140223.763,NULL,Respekt,heshima,d,NA,NA,NA,NA,sdf,NA,5,NA,NA,NA,NA,NA,NA,NA,NA,NA,NA,NA,NA,NA,NA,NA,NA,NA,NA,NA
2eade,"""Falsch""-Screen",canvas.Screen,3_0_5_0_5_0_2,NA,NA,timeout,4996.3970000003,3140212.5,3140207.658,3140223.763,3145203.531,3145204.4000001,2023-06-10T07:36:30Z,3145220.16,NULL,Respekt,heshima,d,NA,NA,NA,NA,sdf,0,5,NA,NA,NA,NA,NA,NA,NA,NA,NA,NA,NA,NA,NA,NA,NA,NA,NA,NA,NA
2eade,deep,flow.Sequence,3_0_5_0_5_0,NA,NA,completion,13122.47,3132068,3132064.132,3132081.061,3145203.531,3145204.8000002,2023-06-10T07:36:30Z,3145220.16,NULL,Respekt,heshima,d,NA,NA,NA,NA,sdf,NA,5,NA,NA,NA,NA,NA,NA,NA,NA,NA,NA,NA,NA,NA,NA,NA,NA,NA,NA,NA
2eade,shallow,flow.Sequence,3_0_5_0_5_1,NA,NA,skipped,NA,3145204.9000001,NA,NA,3145203.531,3145205.1000001,2023-06-10T07:36:30Z,3145220.16,NULL,Respekt,heshima,d,NA,NA,NA,NA,sdf,NA,5,NA,NA,NA,NA,NA,NA,NA,NA,NA,NA,NA,NA,NA,NA,NA,NA,NA,NA,NA
2eade,task,flow.Sequence,3_0_5_0_5,NA,NA,completion,13122.47,3132068,3132064.132,3132081.061,3145203.531,3145205.3000002,2023-06-10T07:36:30Z,3145220.16,NULL,Respekt,heshima,d,NA,NA,NA,NA,sdf,NA,5,NA,NA,NA,NA,NA,NA,NA,NA,NA,NA,NA,NA,NA,NA,NA,NA,NA,NA,NA
2eade,deep,flow.Sequence,3_0_5_0_6_0,NA,NA,skipped,NA,3145205.5,NA,NA,3145203.531,3145205.6000001,2023-06-10T07:36:30Z,3145220.16,NULL,Wohlstand,mafanikio,s,chimbuko,kumbuko,mapwaji,NA,sdf,NA,5,NA,NA,NA,NA,NA,NA,NA,NA,NA,NA,NA,NA,NA,NA,NA,NA,NA,NA,NA
2eade,Shallow Question,html.Page,3_0_5_0_6_1_0,NA,NA,form submission,4005.8399999999,3145205.8000002,3145203.531,3145220.16,3149226,3149226.2,2023-06-10T07:36:34Z,3149233.167,NULL,Wohlstand,mafanikio,s,chimbuko,kumbuko,mapwaji,mafanikio,NA,NA,5,NA,NA,NA,NA,NA,NA,NA,NA,NA,NA,NA,NA,NA,NA,NA,NA,NA,NA,NA
2eade,"""Richtig""-Screen",canvas.Screen,3_0_5_0_6_1_1,NA,NA,timeout,4995.8080000002,3149228,3149216.419,3149233.167,3154212.791,3154213.7,2023-06-10T07:36:39Z,3154228.975,NULL,Wohlstand,mafanikio,s,chimbuko,kumbuko,mapwaji,NA,sdf,1,5,NA,NA,NA,NA,NA,NA,NA,NA,NA,NA,NA,NA,NA,NA,NA,NA,NA,NA,NA
2eade,"""Falsch""-Screen",canvas.Screen,3_0_5_0_6_1_2,NA,NA,skipped,NA,3154218.2,NA,NA,3154212.791,3154218.4000001,2023-06-10T07:36:39Z,3154228.975,NULL,Wohlstand,mafanikio,s,chimbuko,kumbuko,mapwaji,NA,sdf,NA,5,NA,NA,NA,NA,NA,NA,NA,NA,NA,NA,NA,NA,NA,NA,NA,NA,NA,NA,NA
2eade,shallow,flow.Sequence,3_0_5_0_6_1,NA,NA,completion,8992.6310000001,3145205.7,3145203.531,3145220.16,3154212.791,3154218.4000001,2023-06-10T07:36:39Z,3154228.975,NULL,Wohlstand,mafanikio,s,chimbuko,kumbuko,mapwaji,NA,sdf,NA,5,NA,NA,NA,NA,NA,NA,NA,NA,NA,NA,NA,NA,NA,NA,NA,NA,NA,NA,NA
2eade,task,flow.Sequence,3_0_5_0_6,NA,NA,completion,8992.6310000001,3145205.4000001,3145203.531,3145220.16,3154212.791,3154219,2023-06-10T07:36:39Z,3154228.975,NULL,Wohlstand,mafanikio,s,chimbuko,kumbuko,mapwaji,NA,sdf,NA,5,NA,NA,NA,NA,NA,NA,NA,NA,NA,NA,NA,NA,NA,NA,NA,NA,NA,NA,NA
2eade,Deep Question,html.Page,3_0_5_0_7_0_0,NA,NA,form submission,3402.625000143,3154219.1000001,3154212.791,3154228.975,3157631.6000001,3157631.9000001,2023-06-10T07:36:43Z,3157643.14,NULL,Notfall,dharura,d,NA,NA,NA,dharura,NA,NA,5,NA,NA,NA,NA,NA,NA,NA,NA,NA,NA,NA,NA,NA,NA,NA,NA,NA,NA,NA
2eade,"""Richtig""-Screen",canvas.Screen,3_0_5_0_7_0_1,NA,NA,timeout,4995.477,3157633.9000001,3157626.705,3157643.14,3162622.499,3162623.5,2023-06-10T07:36:48Z,3162638.617,NULL,Notfall,dharura,d,NA,NA,NA,NA,sdf,1,5,NA,NA,NA,NA,NA,NA,NA,NA,NA,NA,NA,NA,NA,NA,NA,NA,NA,NA,NA
2eade,"""Falsch""-Screen",canvas.Screen,3_0_5_0_7_0_2,NA,NA,skipped,NA,3162628.7,NA,NA,3162622.499,3162629,2023-06-10T07:36:48Z,3162638.617,NULL,Notfall,dharura,d,NA,NA,NA,NA,sdf,NA,5,NA,NA,NA,NA,NA,NA,NA,NA,NA,NA,NA,NA,NA,NA,NA,NA,NA,NA,NA
2eade,deep,flow.Sequence,3_0_5_0_7_0,NA,NA,completion,8393.5239999997,3154219.1000001,3154212.791,3154228.975,3162622.499,3162629.4000001,2023-06-10T07:36:48Z,3162638.617,NULL,Notfall,dharura,d,NA,NA,NA,NA,sdf,NA,5,NA,NA,NA,NA,NA,NA,NA,NA,NA,NA,NA,NA,NA,NA,NA,NA,NA,NA,NA
2eade,shallow,flow.Sequence,3_0_5_0_7_1,NA,NA,skipped,NA,3162629.6000001,NA,NA,3162622.499,3162629.8000002,2023-06-10T07:36:48Z,3162638.617,NULL,Notfall,dharura,d,NA,NA,NA,NA,sdf,NA,5,NA,NA,NA,NA,NA,NA,NA,NA,NA,NA,NA,NA,NA,NA,NA,NA,NA,NA,NA
2eade,task,flow.Sequence,3_0_5_0_7,NA,NA,completion,8393.5239999997,3154219.1000001,3154212.791,3154228.975,3162622.499,3162630,2023-06-10T07:36:48Z,3162638.617,NULL,Notfall,dharura,d,NA,NA,NA,NA,sdf,NA,5,NA,NA,NA,NA,NA,NA,NA,NA,NA,NA,NA,NA,NA,NA,NA,NA,NA,NA,NA
2eade,block,flow.Loop,3_0_5_0,NA,NA,completion,75670.919,3086936.9000001,3086934.763,3086951.58,3162622.499,3162630.3000002,2023-06-10T07:36:48Z,3162638.617,NULL,NA,NA,NA,NA,NA,NA,NA,sdf,NA,5,NA,NA,NA,NA,NA,NA,NA,NA,NA,NA,NA,NA,NA,NA,NA,NA,NA,NA,NA
2eade,weiter,canvas.Screen,3_0_5_1,sdf,keypress(Space),response,935.0830000476,3162630.5,3162622.499,3162638.617,3163573.7,3163574.3000002,2023-06-10T07:36:49Z,3164020.788,NULL,NA,NA,NA,NA,NA,NA,NA,sdf,NA,5,NA,NA,NA,NA,NA,NA,NA,NA,NA,NA,NA,NA,NA,NA,NA,NA,NA,NA,NA
2eade,check continue,flow.Sequence,3_0_5,NA,NA,completion,76622.120000048,3086936.8000002,3086934.763,3086951.58,3163573.7,3163574.4000001,2023-06-10T07:36:49Z,3164020.788,NULL,NA,NA,NA,NA,NA,NA,NA,sdf,NA,5,NA,NA,NA,NA,NA,NA,NA,NA,NA,NA,NA,NA,NA,NA,NA,NA,NA,NA,NA
2eade,check continue,flow.Sequence,3_0_6,NA,NA,skipped,NA,3163613.3000002,NA,NA,3163573.7,3163613.5,2023-06-10T07:36:49Z,3164020.788,NULL,NA,NA,NA,NA,NA,NA,NA,dfs,NA,6,NA,NA,NA,NA,NA,NA,NA,NA,NA,NA,NA,NA,NA,NA,NA,NA,NA,NA,NA
2eade,check continue,flow.Sequence,3_0_7,NA,NA,skipped,NA,3163640.2,NA,NA,3163573.7,3163640.4000001,2023-06-10T07:36:49Z,3164020.788,NULL,NA,NA,NA,NA,NA,NA,NA,df,NA,7,NA,NA,NA,NA,NA,NA,NA,NA,NA,NA,NA,NA,NA,NA,NA,NA,NA,NA,NA
2eade,check continue,flow.Sequence,3_0_8,NA,NA,skipped,NA,3163665.1000001,NA,NA,3163573.7,3163665.2,2023-06-10T07:36:49Z,3164020.788,NULL,NA,NA,NA,NA,NA,NA,NA,dfs,NA,8,NA,NA,NA,NA,NA,NA,NA,NA,NA,NA,NA,NA,NA,NA,NA,NA,NA,NA,NA
2eade,check continue,flow.Sequence,3_0_9,NA,NA,skipped,NA,3163681.9000001,NA,NA,3163573.7,3163682,2023-06-10T07:36:49Z,3164020.788,NULL,NA,NA,NA,NA,NA,NA,NA,dsf,NA,9,NA,NA,NA,NA,NA,NA,NA,NA,NA,NA,NA,NA,NA,NA,NA,NA,NA,NA,NA
2eade,check continue,flow.Sequence,3_0_10,NA,NA,skipped,NA,3163697.8000002,NA,NA,3163573.7,3163697.9000001,2023-06-10T07:36:49Z,3164020.788,NULL,NA,NA,NA,NA,NA,NA,NA,df,NA,10,NA,NA,NA,NA,NA,NA,NA,NA,NA,NA,NA,NA,NA,NA,NA,NA,NA,NA,NA
2eade,check continue,flow.Sequence,3_0_11,NA,NA,skipped,NA,3163717.7,NA,NA,3163573.7,3163717.8000002,2023-06-10T07:36:49Z,3164020.788,NULL,NA,NA,NA,NA,NA,NA,NA,dfs,NA,11,NA,NA,NA,NA,NA,NA,NA,NA,NA,NA,NA,NA,NA,NA,NA,NA,NA,NA,NA
2eade,check continue,flow.Sequence,3_0_12,NA,NA,skipped,NA,3163735.3000002,NA,NA,3163573.7,3163735.4000001,2023-06-10T07:36:49Z,3164020.788,NULL,NA,NA,NA,NA,NA,NA,NA,dsf,NA,12,NA,NA,NA,NA,NA,NA,NA,NA,NA,NA,NA,NA,NA,NA,NA,NA,NA,NA,NA
2eade,check continue,flow.Sequence,3_0_13,NA,NA,skipped,NA,3163751.2,NA,NA,3163573.7,3163751.5,2023-06-10T07:36:49Z,3164020.788,NULL,NA,NA,NA,NA,NA,NA,NA,dsf,NA,13,NA,NA,NA,NA,NA,NA,NA,NA,NA,NA,NA,NA,NA,NA,NA,NA,NA,NA,NA
2eade,check continue,flow.Sequence,3_0_14,NA,NA,skipped,NA,3163768,NA,NA,3163573.7,3163768.2,2023-06-10T07:36:49Z,3164020.788,NULL,NA,NA,NA,NA,NA,NA,NA,NA,NA,14,NA,NA,NA,NA,NA,NA,NA,NA,NA,NA,NA,NA,NA,NA,NA,NA,NA,NA,NA
2eade,check continue,flow.Sequence,3_0_15,NA,NA,skipped,NA,3163783.2,NA,NA,3163573.7,3163783.4000001,2023-06-10T07:36:49Z,3164020.788,NULL,NA,NA,NA,NA,NA,NA,NA,NA,NA,15,NA,NA,NA,NA,NA,NA,NA,NA,NA,NA,NA,NA,NA,NA,NA,NA,NA,NA,NA
2eade,check continue,flow.Sequence,3_0_16,NA,NA,skipped,NA,3163801,NA,NA,3163573.7,3163801.2,2023-06-10T07:36:49Z,3164020.788,NULL,NA,NA,NA,NA,NA,NA,NA,NA,NA,16,NA,NA,NA,NA,NA,NA,NA,NA,NA,NA,NA,NA,NA,NA,NA,NA,NA,NA,NA
