observation,sender,sender_type,sender_id,response,response_action,ended_on,duration,time_run,time_render,time_show,time_end,time_commit,timestamp,time_switch,distractors,german,swahili,enc,distractor1,distractor2,distractor3,response_2,x,correct,x_2,url_vp,url_sess,meta_labjs_version,meta_location,meta_user_agent,meta_platform,meta_language,meta_locale,meta_time_zone,meta_timezone_offset,meta_screen_width,meta_screen_height,meta_scroll_width,meta_scroll_height,meta_window_inner_width,meta_window_inner_height,meta_device_pixel_ratio,meta_labjs_build_flavor,meta_labjs_build_commit
9da13,Introduction general,canvas.Screen,0,weiter,keypress(q),response,4099731.526,1292,465.374,1314.674,4101046.2,4101055.6,2023-05-27T07:36:39Z,4101050.774,NULL,NA,NA,NA,NA,NA,NA,NA,NA,NA,NA,217,1,20.2.4,https://neurocog.fernuni.ch/studies/vweber/sfink/encoding_immediate/index.html?vp=217&sess=1,"Mozilla/5.0 (Windows NT 10.0; Win64; x64) AppleWebKit/537.36 (KHTML, like Gecko) Chrome/113.0.0.0 Safari/537.36",Win32,de-CH,de,Europe/Zurich,-120,1536,864,1536,706,1536,754,1.25,production,f5b4a49f956347addd546a832a3327688c2c0fef
9da13,Introduction practice,canvas.Screen,1_0,NA,keypress(Space),response,4123.9260000475,4101056.5,4101043.157,4101050.774,4105174.7,4105176,2023-05-27T07:36:43Z,4105183.864,NULL,NA,NA,NA,NA,NA,NA,NA,NA,NA,NA,NA,NA,NA,NA,NA,NA,NA,NA,NA,NA,NA,NA,NA,NA,NA,NA,NA,NA,NA
9da13,Deep Question,html.Page,1_1_0_0_0,NA,NA,form submission,12706.035999976,4105176.5,4105168.736,4105183.864,4117889.9,4117890.2,2023-05-27T07:36:55Z,4117908.397,"c(""distractor1"", ""distractor2"", ""distractor3"")",Gesundheit,salama,d,NA,NA,NA,haakko,NA,NA,NA,NA,NA,NA,NA,NA,NA,NA,NA,NA,NA,NA,NA,NA,NA,NA,NA,NA,NA,NA
9da13,"""Richtig""-Screen",canvas.Screen,1_1_0_0_1,NA,NA,skipped,NA,4117891.4,NA,NA,4117889.9,4117891.6,2023-05-27T07:36:55Z,4117908.397,"c(""distractor1"", ""distractor2"", ""distractor3"")",Gesundheit,salama,d,NA,NA,NA,NA,NA,NA,NA,NA,NA,NA,NA,NA,NA,NA,NA,NA,NA,NA,NA,NA,NA,NA,NA,NA,NA,NA
9da13,"""Falsch""-Screen",canvas.Screen,1_1_0_0_2,NA,NA,timeout,4999.7970000003,4117893,4117887.671,4117908.397,4122891.983,4122896.9,2023-05-27T07:37:00Z,4122908.194,"c(""distractor1"", ""distractor2"", ""distractor3"")",Gesundheit,salama,d,NA,NA,NA,NA,NA,0,NA,NA,NA,NA,NA,NA,NA,NA,NA,NA,NA,NA,NA,NA,NA,NA,NA,NA,NA,NA
9da13,deep,flow.Sequence,1_1_0_0,NA,NA,completion,17708.119,4105176.5,4105168.736,4105183.864,4122891.983,4122897.7,2023-05-27T07:37:00Z,4122908.194,"c(""distractor1"", ""distractor2"", ""distractor3"")",Gesundheit,salama,d,NA,NA,NA,NA,NA,NA,NA,NA,NA,NA,NA,NA,NA,NA,NA,NA,NA,NA,NA,NA,NA,NA,NA,NA,NA,NA
9da13,shallow,flow.Sequence,1_1_0_1,NA,NA,skipped,NA,4122897.9,NA,NA,4122891.983,4122898.1,2023-05-27T07:37:00Z,4122908.194,"c(""distractor1"", ""distractor2"", ""distractor3"")",Gesundheit,salama,d,NA,NA,NA,NA,NA,NA,NA,NA,NA,NA,NA,NA,NA,NA,NA,NA,NA,NA,NA,NA,NA,NA,NA,NA,NA,NA
9da13,task,flow.Sequence,1_1_0,NA,NA,completion,17708.119,4105176.4,4105168.736,4105183.864,4122891.983,4122898.5,2023-05-27T07:37:00Z,4122908.194,"c(""distractor1"", ""distractor2"", ""distractor3"")",Gesundheit,salama,d,NA,NA,NA,NA,NA,NA,NA,NA,NA,NA,NA,NA,NA,NA,NA,NA,NA,NA,NA,NA,NA,NA,NA,NA,NA,NA
9da13,deep,flow.Sequence,1_1_1_0,NA,NA,skipped,NA,4122898.8,NA,NA,4122891.983,4122899,2023-05-27T07:37:00Z,4122908.194,"c(""distractor1"", ""distractor2"", ""distractor3"")",Kritik,lawama,s,dereva,nafasi,mawazo,NA,NA,NA,NA,NA,NA,NA,NA,NA,NA,NA,NA,NA,NA,NA,NA,NA,NA,NA,NA,NA,NA,NA
9da13,Shallow Question,html.Page,1_1_1_1_0,NA,NA,form submission,6360.0060000475,4122899.3,4122891.983,4122908.194,4129268.2,4129268.4,2023-05-27T07:37:07Z,4129281.05,"c(""distractor1"", ""distractor2"", ""distractor3"")",Kritik,lawama,s,dereva,nafasi,mawazo,mawazo,NA,NA,NA,NA,NA,NA,NA,NA,NA,NA,NA,NA,NA,NA,NA,NA,NA,NA,NA,NA,NA,NA
9da13,"""Richtig""-Screen",canvas.Screen,1_1_1_1_1,NA,NA,skipped,NA,4129270.4,NA,NA,4129268.2,4129270.5,2023-05-27T07:37:07Z,4129281.05,"c(""distractor1"", ""distractor2"", ""distractor3"")",Kritik,lawama,s,dereva,nafasi,mawazo,NA,NA,NA,NA,NA,NA,NA,NA,NA,NA,NA,NA,NA,NA,NA,NA,NA,NA,NA,NA,NA,NA,NA
9da13,"""Falsch""-Screen",canvas.Screen,1_1_1_1_2,NA,NA,timeout,4991.838,4129271.4,4129255.705,4129281.05,4134256.037,4134257.2,2023-05-27T07:37:12Z,4134272.888,"c(""distractor1"", ""distractor2"", ""distractor3"")",Kritik,lawama,s,dereva,nafasi,mawazo,NA,NA,0,NA,NA,NA,NA,NA,NA,NA,NA,NA,NA,NA,NA,NA,NA,NA,NA,NA,NA,NA,NA
9da13,shallow,flow.Sequence,1_1_1_1,NA,NA,completion,11347.843,4122899.2,4122891.983,4122908.194,4134256.037,4134257.8,2023-05-27T07:37:12Z,4134272.888,"c(""distractor1"", ""distractor2"", ""distractor3"")",Kritik,lawama,s,dereva,nafasi,mawazo,NA,NA,NA,NA,NA,NA,NA,NA,NA,NA,NA,NA,NA,NA,NA,NA,NA,NA,NA,NA,NA,NA,NA
9da13,task,flow.Sequence,1_1_1,NA,NA,completion,11347.843,4122898.6,4122891.983,4122908.194,4134256.037,4134258.2,2023-05-27T07:37:12Z,4134272.888,"c(""distractor1"", ""distractor2"", ""distractor3"")",Kritik,lawama,s,dereva,nafasi,mawazo,NA,NA,NA,NA,NA,NA,NA,NA,NA,NA,NA,NA,NA,NA,NA,NA,NA,NA,NA,NA,NA,NA,NA
9da13,Deep Question,html.Page,1_1_2_0_0,NA,NA,form submission,5345.712000024,4134258.6,4134256.037,4134272.888,4139618.6,4139618.9,2023-05-27T07:37:17Z,4139637.889,"c(""distractor1"", ""distractor2"", ""distractor3"")",Schatten,kivuli,d,NA,NA,NA,dh,NA,NA,NA,NA,NA,NA,NA,NA,NA,NA,NA,NA,NA,NA,NA,NA,NA,NA,NA,NA,NA,NA
9da13,"""Richtig""-Screen",canvas.Screen,1_1_2_0_1,NA,NA,skipped,NA,4139620.9,NA,NA,4139618.6,4139621.1,2023-05-27T07:37:17Z,4139637.889,"c(""distractor1"", ""distractor2"", ""distractor3"")",Schatten,kivuli,d,NA,NA,NA,NA,NA,NA,NA,NA,NA,NA,NA,NA,NA,NA,NA,NA,NA,NA,NA,NA,NA,NA,NA,NA,NA,NA
9da13,"""Falsch""-Screen",canvas.Screen,1_1_2_0_2,NA,NA,timeout,4991.3130000001,4139621.9,4139608.424,4139637.889,4144613.183,4144614.4,2023-05-27T07:37:22Z,4144629.202,"c(""distractor1"", ""distractor2"", ""distractor3"")",Schatten,kivuli,d,NA,NA,NA,NA,NA,0,NA,NA,NA,NA,NA,NA,NA,NA,NA,NA,NA,NA,NA,NA,NA,NA,NA,NA,NA,NA
9da13,deep,flow.Sequence,1_1_2_0,NA,NA,completion,10340.295,4134258.5,4134256.037,4134272.888,4144613.183,4144614.9,2023-05-27T07:37:22Z,4144629.202,"c(""distractor1"", ""distractor2"", ""distractor3"")",Schatten,kivuli,d,NA,NA,NA,NA,NA,NA,NA,NA,NA,NA,NA,NA,NA,NA,NA,NA,NA,NA,NA,NA,NA,NA,NA,NA,NA,NA
9da13,shallow,flow.Sequence,1_1_2_1,NA,NA,skipped,NA,4144615.1,NA,NA,4144613.183,4144615.2,2023-05-27T07:37:22Z,4144629.202,"c(""distractor1"", ""distractor2"", ""distractor3"")",Schatten,kivuli,d,NA,NA,NA,NA,NA,NA,NA,NA,NA,NA,NA,NA,NA,NA,NA,NA,NA,NA,NA,NA,NA,NA,NA,NA,NA,NA
9da13,task,flow.Sequence,1_1_2,NA,NA,completion,10340.295,4134258.4,4134256.037,4134272.888,4144613.183,4144615.5,2023-05-27T07:37:22Z,4144629.202,"c(""distractor1"", ""distractor2"", ""distractor3"")",Schatten,kivuli,d,NA,NA,NA,NA,NA,NA,NA,NA,NA,NA,NA,NA,NA,NA,NA,NA,NA,NA,NA,NA,NA,NA,NA,NA,NA,NA
9da13,deep,flow.Sequence,1_1_3_0,NA,NA,skipped,NA,4144615.8,NA,NA,4144613.183,4144615.9,2023-05-27T07:37:22Z,4144629.202,"c(""distractor1"", ""distractor2"", ""distractor3"")",Gegenwart,hadhara,s,katiba,jokofu,mikopo,NA,NA,NA,NA,NA,NA,NA,NA,NA,NA,NA,NA,NA,NA,NA,NA,NA,NA,NA,NA,NA,NA,NA
9da13,Shallow Question,html.Page,1_1_3_1_0,NA,NA,form submission,4685.1979999761,4144616.1,4144613.183,4144629.202,4149314.4,4149314.6,2023-05-27T07:37:27Z,4149319.245,"c(""distractor1"", ""distractor2"", ""distractor3"")",Gegenwart,hadhara,s,katiba,jokofu,mikopo,jokofu,NA,NA,NA,NA,NA,NA,NA,NA,NA,NA,NA,NA,NA,NA,NA,NA,NA,NA,NA,NA,NA,NA
9da13,"""Richtig""-Screen",canvas.Screen,1_1_3_1_1,NA,NA,skipped,NA,4149316.5,NA,NA,4149314.4,4149316.6,2023-05-27T07:37:27Z,4149319.245,"c(""distractor1"", ""distractor2"", ""distractor3"")",Gegenwart,hadhara,s,katiba,jokofu,mikopo,NA,NA,NA,NA,NA,NA,NA,NA,NA,NA,NA,NA,NA,NA,NA,NA,NA,NA,NA,NA,NA,NA,NA
9da13,"""Falsch""-Screen",canvas.Screen,1_1_3_1_2,NA,NA,timeout,4991.7659999998,4149317.4,4149311.149,4149319.245,4154294.542,4154295.7,2023-05-27T07:37:32Z,4154311.011,"c(""distractor1"", ""distractor2"", ""distractor3"")",Gegenwart,hadhara,s,katiba,jokofu,mikopo,NA,NA,0,NA,NA,NA,NA,NA,NA,NA,NA,NA,NA,NA,NA,NA,NA,NA,NA,NA,NA,NA,NA
9da13,shallow,flow.Sequence,1_1_3_1,NA,NA,completion,9665.3399999999,4144616,4144613.183,4144629.202,4154294.542,4154296,2023-05-27T07:37:32Z,4154311.011,"c(""distractor1"", ""distractor2"", ""distractor3"")",Gegenwart,hadhara,s,katiba,jokofu,mikopo,NA,NA,NA,NA,NA,NA,NA,NA,NA,NA,NA,NA,NA,NA,NA,NA,NA,NA,NA,NA,NA,NA,NA
9da13,task,flow.Sequence,1_1_3,NA,NA,completion,9665.3399999999,4144615.7,4144613.183,4144629.202,4154294.542,4154296.3,2023-05-27T07:37:32Z,4154311.011,"c(""distractor1"", ""distractor2"", ""distractor3"")",Gegenwart,hadhara,s,katiba,jokofu,mikopo,NA,NA,NA,NA,NA,NA,NA,NA,NA,NA,NA,NA,NA,NA,NA,NA,NA,NA,NA,NA,NA,NA,NA
9da13,Deep Question,html.Page,1_1_4_0_0,NA,NA,form submission,4556.2889999524,4154296.5,4154294.542,4154311.011,4158867.3,4158867.5,2023-05-27T07:37:36Z,4158871.596,"c(""distractor1"", ""distractor2"", ""distractor3"")",Qualität,mtindo,d,NA,NA,NA,huh,NA,NA,NA,NA,NA,NA,NA,NA,NA,NA,NA,NA,NA,NA,NA,NA,NA,NA,NA,NA,NA,NA
9da13,"""Richtig""-Screen",canvas.Screen,1_1_4_0_1,NA,NA,skipped,NA,4158869.5,NA,NA,4158867.3,4158869.6,2023-05-27T07:37:36Z,4158871.596,"c(""distractor1"", ""distractor2"", ""distractor3"")",Qualität,mtindo,d,NA,NA,NA,NA,NA,NA,NA,NA,NA,NA,NA,NA,NA,NA,NA,NA,NA,NA,NA,NA,NA,NA,NA,NA,NA,NA
9da13,"""Falsch""-Screen",canvas.Screen,1_1_4_0_2,NA,NA,timeout,5008.2779999999,4158870.3,4158855.33,4158871.596,4163863.539,4163864.6,2023-05-27T07:37:41Z,4163879.874,"c(""distractor1"", ""distractor2"", ""distractor3"")",Qualität,mtindo,d,NA,NA,NA,NA,NA,0,NA,NA,NA,NA,NA,NA,NA,NA,NA,NA,NA,NA,NA,NA,NA,NA,NA,NA,NA,NA
9da13,deep,flow.Sequence,1_1_4_0,NA,NA,completion,9552.5279999999,4154296.5,4154294.542,4154311.011,4163863.539,4163865.1,2023-05-27T07:37:41Z,4163879.874,"c(""distractor1"", ""distractor2"", ""distractor3"")",Qualität,mtindo,d,NA,NA,NA,NA,NA,NA,NA,NA,NA,NA,NA,NA,NA,NA,NA,NA,NA,NA,NA,NA,NA,NA,NA,NA,NA,NA
9da13,shallow,flow.Sequence,1_1_4_1,NA,NA,skipped,NA,4163865.2,NA,NA,4163863.539,4163865.4,2023-05-27T07:37:41Z,4163879.874,"c(""distractor1"", ""distractor2"", ""distractor3"")",Qualität,mtindo,d,NA,NA,NA,NA,NA,NA,NA,NA,NA,NA,NA,NA,NA,NA,NA,NA,NA,NA,NA,NA,NA,NA,NA,NA,NA,NA
9da13,task,flow.Sequence,1_1_4,NA,NA,completion,9552.5279999999,4154296.5,4154294.542,4154311.011,4163863.539,4163865.6,2023-05-27T07:37:41Z,4163879.874,"c(""distractor1"", ""distractor2"", ""distractor3"")",Qualität,mtindo,d,NA,NA,NA,NA,NA,NA,NA,NA,NA,NA,NA,NA,NA,NA,NA,NA,NA,NA,NA,NA,NA,NA,NA,NA,NA,NA
9da13,deep,flow.Sequence,1_1_5_0,NA,NA,skipped,NA,4163865.8,NA,NA,4163863.539,4163866,2023-05-27T07:37:41Z,4163879.874,"c(""distractor1"", ""distractor2"", ""distractor3"")",Rückhalt,msaada,s,muhula,auwali,kiwimbe,NA,NA,NA,NA,NA,NA,NA,NA,NA,NA,NA,NA,NA,NA,NA,NA,NA,NA,NA,NA,NA,NA,NA
9da13,Shallow Question,html.Page,1_1_5_1_0,NA,NA,form submission,4548.226000024,4163866.2,4163863.539,4163879.874,4168428.1,4168428.3,2023-05-27T07:37:46Z,4168444.906,"c(""distractor1"", ""distractor2"", ""distractor3"")",Rückhalt,msaada,s,muhula,auwali,kiwimbe,msaada,NA,NA,NA,NA,NA,NA,NA,NA,NA,NA,NA,NA,NA,NA,NA,NA,NA,NA,NA,NA,NA,NA
9da13,"""Richtig""-Screen",canvas.Screen,1_1_5_1_1,NA,NA,timeout,4991.2919999999,4168430,4168423.949,4168444.906,4173420.077,4173421.2,2023-05-27T07:37:51Z,4173436.198,"c(""distractor1"", ""distractor2"", ""distractor3"")",Rückhalt,msaada,s,muhula,auwali,kiwimbe,NA,NA,1,NA,NA,NA,NA,NA,NA,NA,NA,NA,NA,NA,NA,NA,NA,NA,NA,NA,NA,NA,NA
9da13,"""Falsch""-Screen",canvas.Screen,1_1_5_1_2,NA,NA,skipped,NA,4173426.4,NA,NA,4173420.077,4173426.7,2023-05-27T07:37:51Z,4173436.198,"c(""distractor1"", ""distractor2"", ""distractor3"")",Rückhalt,msaada,s,muhula,auwali,kiwimbe,NA,NA,NA,NA,NA,NA,NA,NA,NA,NA,NA,NA,NA,NA,NA,NA,NA,NA,NA,NA,NA,NA,NA
9da13,shallow,flow.Sequence,1_1_5_1,NA,NA,completion,9540.2030000002,4163866.1,4163863.539,4163879.874,4173420.077,4173427.1,2023-05-27T07:37:51Z,4173436.198,"c(""distractor1"", ""distractor2"", ""distractor3"")",Rückhalt,msaada,s,muhula,auwali,kiwimbe,NA,NA,NA,NA,NA,NA,NA,NA,NA,NA,NA,NA,NA,NA,NA,NA,NA,NA,NA,NA,NA,NA,NA
9da13,task,flow.Sequence,1_1_5,NA,NA,completion,9540.2030000002,4163865.8,4163863.539,4163879.874,4173420.077,4173427.5,2023-05-27T07:37:51Z,4173436.198,"c(""distractor1"", ""distractor2"", ""distractor3"")",Rückhalt,msaada,s,muhula,auwali,kiwimbe,NA,NA,NA,NA,NA,NA,NA,NA,NA,NA,NA,NA,NA,NA,NA,NA,NA,NA,NA,NA,NA,NA,NA
9da13,block,flow.Loop,1_1,NA,NA,completion,68236.213,4105176.3,4105168.736,4105183.864,4173420.077,4173427.9,2023-05-27T07:37:51Z,4173436.198,"c(""distractor1"", ""distractor2"", ""distractor3"")",NA,NA,NA,NA,NA,NA,NA,NA,NA,NA,NA,NA,NA,NA,NA,NA,NA,NA,NA,NA,NA,NA,NA,NA,NA,NA,NA,NA,NA
9da13,Practice,flow.Sequence,1,NA,NA,completion,72369.303,4101056.4,4101043.157,4101050.774,4173420.077,4173428.2,2023-05-27T07:37:51Z,4173436.198,NULL,NA,NA,NA,NA,NA,NA,NA,NA,NA,NA,NA,NA,NA,NA,NA,NA,NA,NA,NA,NA,NA,NA,NA,NA,NA,NA,NA,NA,NA
9da13,Experiment start,canvas.Screen,2,weiter,keypress(q),response,7783.5020000478,4173428.4,4173420.077,4173436.198,4181219.7,4181221,2023-05-27T07:37:59Z,4181402.625,NULL,NA,NA,NA,NA,NA,NA,NA,NA,NA,NA,NA,NA,NA,NA,NA,NA,NA,NA,NA,NA,NA,NA,NA,NA,NA,NA,NA,NA,NA
9da13,Deep Question,html.Page,3_0_0_0_0_0_0,NA,NA,form submission,3840.2749999762,4181400.6,4181396.405,4181402.625,4185242.9,4185243.1,2023-05-27T07:38:03Z,4185260.291,NULL,Gelegenheit,wakati,d,NA,NA,NA,d,NA,NA,0,NA,NA,NA,NA,NA,NA,NA,NA,NA,NA,NA,NA,NA,NA,NA,NA,NA,NA,NA
9da13,"""Richtig""-Screen",canvas.Screen,3_0_0_0_0_0_1,NA,NA,skipped,NA,4185245.5,NA,NA,4185242.9,4185245.6,2023-05-27T07:38:03Z,4185260.291,NULL,Gelegenheit,wakati,d,NA,NA,NA,NA,sdf,NA,0,NA,NA,NA,NA,NA,NA,NA,NA,NA,NA,NA,NA,NA,NA,NA,NA,NA,NA,NA
9da13,"""Falsch""-Screen",canvas.Screen,3_0_0_0_0_0_2,NA,NA,timeout,5008.2509999997,4185246.4,4185239.855,4185260.291,4190252.198,4190253.3,2023-05-27T07:38:08Z,4190268.542,NULL,Gelegenheit,wakati,d,NA,NA,NA,NA,sdf,0,0,NA,NA,NA,NA,NA,NA,NA,NA,NA,NA,NA,NA,NA,NA,NA,NA,NA,NA,NA
9da13,deep,flow.Sequence,3_0_0_0_0_0,NA,NA,completion,8849.5729999999,4181400.5,4181396.405,4181402.625,4190252.198,4190253.7,2023-05-27T07:38:08Z,4190268.542,NULL,Gelegenheit,wakati,d,NA,NA,NA,NA,sdf,NA,0,NA,NA,NA,NA,NA,NA,NA,NA,NA,NA,NA,NA,NA,NA,NA,NA,NA,NA,NA
9da13,shallow,flow.Sequence,3_0_0_0_0_1,NA,NA,skipped,NA,4190253.8,NA,NA,4190252.198,4190254.1,2023-05-27T07:38:08Z,4190268.542,NULL,Gelegenheit,wakati,d,NA,NA,NA,NA,sdf,NA,0,NA,NA,NA,NA,NA,NA,NA,NA,NA,NA,NA,NA,NA,NA,NA,NA,NA,NA,NA
9da13,task,flow.Sequence,3_0_0_0_0,NA,NA,completion,8849.5729999999,4181400.5,4181396.405,4181402.625,4190252.198,4190254.2,2023-05-27T07:38:08Z,4190268.542,NULL,Gelegenheit,wakati,d,NA,NA,NA,NA,sdf,NA,0,NA,NA,NA,NA,NA,NA,NA,NA,NA,NA,NA,NA,NA,NA,NA,NA,NA,NA,NA
9da13,Deep Question,html.Page,3_0_0_0_1_0_0,NA,NA,form submission,5022.5580000239,4190254.4,4190252.198,4190268.542,4195291.1,4195291.4,2023-05-27T07:38:13Z,4195292.236,NULL,Ausschluss,kutengwa,d,NA,NA,NA,sh,NA,NA,0,NA,NA,NA,NA,NA,NA,NA,NA,NA,NA,NA,NA,NA,NA,NA,NA,NA,NA,NA
9da13,"""Richtig""-Screen",canvas.Screen,3_0_0_0_1_0_1,NA,NA,skipped,NA,4195294.4,NA,NA,4195291.1,4195294.5,2023-05-27T07:38:13Z,4195292.236,NULL,Ausschluss,kutengwa,d,NA,NA,NA,NA,sdf,NA,0,NA,NA,NA,NA,NA,NA,NA,NA,NA,NA,NA,NA,NA,NA,NA,NA,NA,NA,NA
9da13,"""Falsch""-Screen",canvas.Screen,3_0_0_0_1_0_2,NA,NA,timeout,4996.2050000001,4195295.4,4195284.396,4195292.236,4200271.774,4200273,2023-05-27T07:38:18Z,4200288.441,NULL,Ausschluss,kutengwa,d,NA,NA,NA,NA,sdf,0,0,NA,NA,NA,NA,NA,NA,NA,NA,NA,NA,NA,NA,NA,NA,NA,NA,NA,NA,NA
9da13,deep,flow.Sequence,3_0_0_0_1_0,NA,NA,completion,10003.232,4190254.4,4190252.198,4190268.542,4200271.774,4200273.3,2023-05-27T07:38:18Z,4200288.441,NULL,Ausschluss,kutengwa,d,NA,NA,NA,NA,sdf,NA,0,NA,NA,NA,NA,NA,NA,NA,NA,NA,NA,NA,NA,NA,NA,NA,NA,NA,NA,NA
9da13,shallow,flow.Sequence,3_0_0_0_1_1,NA,NA,skipped,NA,4200273.5,NA,NA,4200271.774,4200273.7,2023-05-27T07:38:18Z,4200288.441,NULL,Ausschluss,kutengwa,d,NA,NA,NA,NA,sdf,NA,0,NA,NA,NA,NA,NA,NA,NA,NA,NA,NA,NA,NA,NA,NA,NA,NA,NA,NA,NA
9da13,task,flow.Sequence,3_0_0_0_1,NA,NA,completion,10003.232,4190254.3,4190252.198,4190268.542,4200271.774,4200273.9,2023-05-27T07:38:18Z,4200288.441,NULL,Ausschluss,kutengwa,d,NA,NA,NA,NA,sdf,NA,0,NA,NA,NA,NA,NA,NA,NA,NA,NA,NA,NA,NA,NA,NA,NA,NA,NA,NA,NA
9da13,Deep Question,html.Page,3_0_0_0_2_0_0,NA,NA,form submission,4256.8589999527,4200274.1,4200271.774,4200288.441,4204545.3,4204545.4,2023-05-27T07:38:22Z,4204557.988,NULL,Können,unaweza,d,NA,NA,NA,potere,NA,NA,0,NA,NA,NA,NA,NA,NA,NA,NA,NA,NA,NA,NA,NA,NA,NA,NA,NA,NA,NA
9da13,"""Richtig""-Screen",canvas.Screen,3_0_0_0_2_0_1,NA,NA,skipped,NA,4204548,NA,NA,4204545.3,4204548.1,2023-05-27T07:38:22Z,4204557.988,NULL,Können,unaweza,d,NA,NA,NA,NA,sdf,NA,0,NA,NA,NA,NA,NA,NA,NA,NA,NA,NA,NA,NA,NA,NA,NA,NA,NA,NA,NA
9da13,"""Falsch""-Screen",canvas.Screen,3_0_0_0_2_0_2,NA,NA,timeout,4991.3219999997,4204549.1,4204541.625,4204557.988,4209533.069,4209534.2,2023-05-27T07:38:27Z,4209549.31,NULL,Können,unaweza,d,NA,NA,NA,NA,sdf,0,0,NA,NA,NA,NA,NA,NA,NA,NA,NA,NA,NA,NA,NA,NA,NA,NA,NA,NA,NA
9da13,deep,flow.Sequence,3_0_0_0_2_0,NA,NA,completion,9244.6280000005,4200274.1,4200271.774,4200288.441,4209533.069,4209534.7,2023-05-27T07:38:27Z,4209549.31,NULL,Können,unaweza,d,NA,NA,NA,NA,sdf,NA,0,NA,NA,NA,NA,NA,NA,NA,NA,NA,NA,NA,NA,NA,NA,NA,NA,NA,NA,NA
9da13,shallow,flow.Sequence,3_0_0_0_2_1,NA,NA,skipped,NA,4209534.7,NA,NA,4209533.069,4209534.9,2023-05-27T07:38:27Z,4209549.31,NULL,Können,unaweza,d,NA,NA,NA,NA,sdf,NA,0,NA,NA,NA,NA,NA,NA,NA,NA,NA,NA,NA,NA,NA,NA,NA,NA,NA,NA,NA
9da13,task,flow.Sequence,3_0_0_0_2,NA,NA,completion,9244.6280000005,4200274,4200271.774,4200288.441,4209533.069,4209535.2,2023-05-27T07:38:27Z,4209549.31,NULL,Können,unaweza,d,NA,NA,NA,NA,sdf,NA,0,NA,NA,NA,NA,NA,NA,NA,NA,NA,NA,NA,NA,NA,NA,NA,NA,NA,NA,NA
9da13,deep,flow.Sequence,3_0_0_0_3_0,NA,NA,skipped,NA,4209535.4,NA,NA,4209533.069,4209535.5,2023-05-27T07:38:27Z,4209549.31,NULL,Verstand,ufahamivu,s,shakawa,hadhari,mhandisi,NA,sdf,NA,0,NA,NA,NA,NA,NA,NA,NA,NA,NA,NA,NA,NA,NA,NA,NA,NA,NA,NA,NA
9da13,Shallow Question,html.Page,3_0_0_0_3_1_0,NA,NA,form submission,5408.8900000481,4209535.7,4209533.069,4209549.31,4214958.2,4214958.4,2023-05-27T07:38:33Z,4214967.237,NULL,Verstand,ufahamivu,s,shakawa,hadhari,mhandisi,hadhari,NA,NA,0,NA,NA,NA,NA,NA,NA,NA,NA,NA,NA,NA,NA,NA,NA,NA,NA,NA,NA,NA
9da13,"""Richtig""-Screen",canvas.Screen,3_0_0_0_3_1_1,NA,NA,skipped,NA,4214960.4,NA,NA,4214958.2,4214960.5,2023-05-27T07:38:33Z,4214967.237,NULL,Verstand,ufahamivu,s,shakawa,hadhari,mhandisi,NA,sdf,NA,0,NA,NA,NA,NA,NA,NA,NA,NA,NA,NA,NA,NA,NA,NA,NA,NA,NA,NA,NA
9da13,"""Falsch""-Screen",canvas.Screen,3_0_0_0_3_1_2,NA,NA,timeout,4995.4249999998,4214961,4214950.135,4214967.237,4219946.038,4219953.4,2023-05-27T07:38:38Z,4219962.662,NULL,Verstand,ufahamivu,s,shakawa,hadhari,mhandisi,NA,sdf,0,0,NA,NA,NA,NA,NA,NA,NA,NA,NA,NA,NA,NA,NA,NA,NA,NA,NA,NA,NA
9da13,shallow,flow.Sequence,3_0_0_0_3_1,NA,NA,completion,10396.728,4209535.6,4209533.069,4209549.31,4219946.038,4219953.8,2023-05-27T07:38:38Z,4219962.662,NULL,Verstand,ufahamivu,s,shakawa,hadhari,mhandisi,NA,sdf,NA,0,NA,NA,NA,NA,NA,NA,NA,NA,NA,NA,NA,NA,NA,NA,NA,NA,NA,NA,NA
9da13,task,flow.Sequence,3_0_0_0_3,NA,NA,completion,10396.728,4209535.3,4209533.069,4209549.31,4219946.038,4219954,2023-05-27T07:38:38Z,4219962.662,NULL,Verstand,ufahamivu,s,shakawa,hadhari,mhandisi,NA,sdf,NA,0,NA,NA,NA,NA,NA,NA,NA,NA,NA,NA,NA,NA,NA,NA,NA,NA,NA,NA,NA
9da13,deep,flow.Sequence,3_0_0_0_4_0,NA,NA,skipped,NA,4219954.2,NA,NA,4219946.038,4219954.4,2023-05-27T07:38:38Z,4219962.662,NULL,Widerstand,usulubu,s,kusababisha,mwalimu,mwenendo,NA,sdf,NA,0,NA,NA,NA,NA,NA,NA,NA,NA,NA,NA,NA,NA,NA,NA,NA,NA,NA,NA,NA
9da13,Shallow Question,html.Page,3_0_0_0_4_1_0,NA,NA,form submission,4368.9380000243,4219954.5,4219946.038,4219962.662,4224331.6,4224331.7,2023-05-27T07:38:42Z,4224349.662,NULL,Widerstand,usulubu,s,kusababisha,mwalimu,mwenendo,mwalimu,NA,NA,0,NA,NA,NA,NA,NA,NA,NA,NA,NA,NA,NA,NA,NA,NA,NA,NA,NA,NA,NA
9da13,"""Richtig""-Screen",canvas.Screen,3_0_0_0_4_1_1,NA,NA,skipped,NA,4224333.6,NA,NA,4224331.6,4224333.8,2023-05-27T07:38:42Z,4224349.662,NULL,Widerstand,usulubu,s,kusababisha,mwalimu,mwenendo,NA,sdf,NA,0,NA,NA,NA,NA,NA,NA,NA,NA,NA,NA,NA,NA,NA,NA,NA,NA,NA,NA,NA
9da13,"""Falsch""-Screen",canvas.Screen,3_0_0_0_4_1_2,NA,NA,timeout,5002.7810000004,4224334.2,4224327.097,4224349.662,4229336.219,4229337.5,2023-05-27T07:38:47Z,4229352.443,NULL,Widerstand,usulubu,s,kusababisha,mwalimu,mwenendo,NA,sdf,0,0,NA,NA,NA,NA,NA,NA,NA,NA,NA,NA,NA,NA,NA,NA,NA,NA,NA,NA,NA
9da13,shallow,flow.Sequence,3_0_0_0_4_1,NA,NA,completion,9373.557,4219954.5,4219946.038,4219962.662,4229336.219,4229337.8,2023-05-27T07:38:47Z,4229352.443,NULL,Widerstand,usulubu,s,kusababisha,mwalimu,mwenendo,NA,sdf,NA,0,NA,NA,NA,NA,NA,NA,NA,NA,NA,NA,NA,NA,NA,NA,NA,NA,NA,NA,NA
9da13,task,flow.Sequence,3_0_0_0_4,NA,NA,completion,9373.557,4219954.2,4219946.038,4219962.662,4229336.219,4229338.1,2023-05-27T07:38:47Z,4229352.443,NULL,Widerstand,usulubu,s,kusababisha,mwalimu,mwenendo,NA,sdf,NA,0,NA,NA,NA,NA,NA,NA,NA,NA,NA,NA,NA,NA,NA,NA,NA,NA,NA,NA,NA
9da13,deep,flow.Sequence,3_0_0_0_5_0,NA,NA,skipped,NA,4229338.3,NA,NA,4229336.219,4229338.4,2023-05-27T07:38:47Z,4229352.443,NULL,Kontrolle,kudhibiti,s,mbinguni,kufunga,utegemezi,NA,sdf,NA,0,NA,NA,NA,NA,NA,NA,NA,NA,NA,NA,NA,NA,NA,NA,NA,NA,NA,NA,NA
9da13,Shallow Question,html.Page,3_0_0_0_5_1_0,NA,NA,form submission,4252.7570000477,4229338.6,4229336.219,4229352.443,4233605.2,4233605.3,2023-05-27T07:38:51Z,4233612.985,NULL,Kontrolle,kudhibiti,s,mbinguni,kufunga,utegemezi,kudhibiti,NA,NA,0,NA,NA,NA,NA,NA,NA,NA,NA,NA,NA,NA,NA,NA,NA,NA,NA,NA,NA,NA
9da13,"""Richtig""-Screen",canvas.Screen,3_0_0_0_5_1_1,NA,NA,timeout,4991.4189999998,4233607.2,4233596.029,4233612.985,4238588.286,4238589.4,2023-05-27T07:38:56Z,4238604.404,NULL,Kontrolle,kudhibiti,s,mbinguni,kufunga,utegemezi,NA,sdf,1,0,NA,NA,NA,NA,NA,NA,NA,NA,NA,NA,NA,NA,NA,NA,NA,NA,NA,NA,NA
9da13,"""Falsch""-Screen",canvas.Screen,3_0_0_0_5_1_2,NA,NA,skipped,NA,4238594.6,NA,NA,4238588.286,4238595,2023-05-27T07:38:56Z,4238604.404,NULL,Kontrolle,kudhibiti,s,mbinguni,kufunga,utegemezi,NA,sdf,NA,0,NA,NA,NA,NA,NA,NA,NA,NA,NA,NA,NA,NA,NA,NA,NA,NA,NA,NA,NA
9da13,shallow,flow.Sequence,3_0_0_0_5_1,NA,NA,completion,9235.8430000003,4229338.5,4229336.219,4229352.443,4238588.286,4238595.3,2023-05-27T07:38:56Z,4238604.404,NULL,Kontrolle,kudhibiti,s,mbinguni,kufunga,utegemezi,NA,sdf,NA,0,NA,NA,NA,NA,NA,NA,NA,NA,NA,NA,NA,NA,NA,NA,NA,NA,NA,NA,NA
9da13,task,flow.Sequence,3_0_0_0_5,NA,NA,completion,9235.8430000003,4229338.2,4229336.219,4229352.443,4238588.286,4238595.5,2023-05-27T07:38:56Z,4238604.404,NULL,Kontrolle,kudhibiti,s,mbinguni,kufunga,utegemezi,NA,sdf,NA,0,NA,NA,NA,NA,NA,NA,NA,NA,NA,NA,NA,NA,NA,NA,NA,NA,NA,NA,NA
9da13,Deep Question,html.Page,3_0_0_0_6_0_0,NA,NA,form submission,2794.2960000476,4238596.9,4238588.286,4238604.404,4241398.7,4241399,2023-05-27T07:38:59Z,4241403.25,NULL,Kreativität,ubunifu,d,NA,NA,NA,j,NA,NA,0,NA,NA,NA,NA,NA,NA,NA,NA,NA,NA,NA,NA,NA,NA,NA,NA,NA,NA,NA
9da13,"""Richtig""-Screen",canvas.Screen,3_0_0_0_6_0_1,NA,NA,skipped,NA,4241400,NA,NA,4241398.7,4241400.1,2023-05-27T07:38:59Z,4241403.25,NULL,Kreativität,ubunifu,d,NA,NA,NA,NA,sdf,NA,0,NA,NA,NA,NA,NA,NA,NA,NA,NA,NA,NA,NA,NA,NA,NA,NA,NA,NA,NA
9da13,"""Falsch""-Screen",canvas.Screen,3_0_0_0_6_0_2,NA,NA,timeout,4999.9380000001,4241400.9,4241387.212,4241403.25,4246386.779,4246388,2023-05-27T07:39:04Z,4246403.188,NULL,Kreativität,ubunifu,d,NA,NA,NA,NA,sdf,0,0,NA,NA,NA,NA,NA,NA,NA,NA,NA,NA,NA,NA,NA,NA,NA,NA,NA,NA,NA
9da13,deep,flow.Sequence,3_0_0_0_6_0,NA,NA,completion,7782.375,4238596.9,4238588.286,4238604.404,4246386.779,4246388.5,2023-05-27T07:39:04Z,4246403.188,NULL,Kreativität,ubunifu,d,NA,NA,NA,NA,sdf,NA,0,NA,NA,NA,NA,NA,NA,NA,NA,NA,NA,NA,NA,NA,NA,NA,NA,NA,NA,NA
9da13,shallow,flow.Sequence,3_0_0_0_6_1,NA,NA,skipped,NA,4246388.6,NA,NA,4246386.779,4246388.8,2023-05-27T07:39:04Z,4246403.188,NULL,Kreativität,ubunifu,d,NA,NA,NA,NA,sdf,NA,0,NA,NA,NA,NA,NA,NA,NA,NA,NA,NA,NA,NA,NA,NA,NA,NA,NA,NA,NA
9da13,task,flow.Sequence,3_0_0_0_6,NA,NA,completion,7782.375,4238596.8,4238588.286,4238604.404,4246386.779,4246389,2023-05-27T07:39:04Z,4246403.188,NULL,Kreativität,ubunifu,d,NA,NA,NA,NA,sdf,NA,0,NA,NA,NA,NA,NA,NA,NA,NA,NA,NA,NA,NA,NA,NA,NA,NA,NA,NA,NA
9da13,deep,flow.Sequence,3_0_0_0_7_0,NA,NA,skipped,NA,4246389.2,NA,NA,4246386.779,4246389.3,2023-05-27T07:39:04Z,4246403.188,NULL,Gefährdung,kuhatarisha,s,uchokozi,udhaifu,makorowezo,NA,sdf,NA,0,NA,NA,NA,NA,NA,NA,NA,NA,NA,NA,NA,NA,NA,NA,NA,NA,NA,NA,NA
9da13,Shallow Question,html.Page,3_0_0_0_7_1_0,NA,NA,form submission,4303.6119999522,4246389.5,4246386.779,4246403.188,4250706.8,4250706.9,2023-05-27T07:39:08Z,4250722.462,NULL,Gefährdung,kuhatarisha,s,uchokozi,udhaifu,makorowezo,makorowezo,NA,NA,0,NA,NA,NA,NA,NA,NA,NA,NA,NA,NA,NA,NA,NA,NA,NA,NA,NA,NA,NA
9da13,"""Richtig""-Screen",canvas.Screen,3_0_0_0_7_1_1,NA,NA,skipped,NA,4250708.8,NA,NA,4250706.8,4250708.9,2023-05-27T07:39:08Z,4250722.462,NULL,Gefährdung,kuhatarisha,s,uchokozi,udhaifu,makorowezo,NA,sdf,NA,0,NA,NA,NA,NA,NA,NA,NA,NA,NA,NA,NA,NA,NA,NA,NA,NA,NA,NA,NA
9da13,"""Falsch""-Screen",canvas.Screen,3_0_0_0_7_1_2,NA,NA,timeout,5007.9840000002,4250709.4,4250697.421,4250722.462,4255714.408,4255715.8,2023-05-27T07:39:13Z,4255730.446,NULL,Gefährdung,kuhatarisha,s,uchokozi,udhaifu,makorowezo,NA,sdf,0,0,NA,NA,NA,NA,NA,NA,NA,NA,NA,NA,NA,NA,NA,NA,NA,NA,NA,NA,NA
9da13,shallow,flow.Sequence,3_0_0_0_7_1,NA,NA,completion,9311.2199999997,4246389.4,4246386.779,4246403.188,4255714.408,4255716.2,2023-05-27T07:39:13Z,4255730.446,NULL,Gefährdung,kuhatarisha,s,uchokozi,udhaifu,makorowezo,NA,sdf,NA,0,NA,NA,NA,NA,NA,NA,NA,NA,NA,NA,NA,NA,NA,NA,NA,NA,NA,NA,NA
9da13,task,flow.Sequence,3_0_0_0_7,NA,NA,completion,9311.2199999997,4246389.2,4246386.779,4246403.188,4255714.408,4255716.5,2023-05-27T07:39:13Z,4255730.446,NULL,Gefährdung,kuhatarisha,s,uchokozi,udhaifu,makorowezo,NA,sdf,NA,0,NA,NA,NA,NA,NA,NA,NA,NA,NA,NA,NA,NA,NA,NA,NA,NA,NA,NA,NA
9da13,block,flow.Loop,3_0_0_0,NA,NA,completion,74311.783,4181400.5,4181396.405,4181402.625,4255714.408,4255716.7,2023-05-27T07:39:13Z,4255730.446,NULL,NA,NA,NA,NA,NA,NA,NA,sdf,NA,0,NA,NA,NA,NA,NA,NA,NA,NA,NA,NA,NA,NA,NA,NA,NA,NA,NA,NA,NA
9da13,weiter,canvas.Screen,3_0_0_1,sdf,keypress(Space),response,1565.8539999519,4255716.9,4255714.408,4255730.446,4257296.3,4257297.4,2023-05-27T07:39:15Z,4257409.558,NULL,NA,NA,NA,NA,NA,NA,NA,sdf,NA,0,NA,NA,NA,NA,NA,NA,NA,NA,NA,NA,NA,NA,NA,NA,NA,NA,NA,NA,NA
9da13,check continue,flow.Sequence,3_0_0,NA,NA,completion,75893.674999952,4181400.5,4181396.405,4181402.625,4257296.3,4257297.8,2023-05-27T07:39:15Z,4257409.558,NULL,NA,NA,NA,NA,NA,NA,NA,sdf,NA,0,NA,NA,NA,NA,NA,NA,NA,NA,NA,NA,NA,NA,NA,NA,NA,NA,NA,NA,NA
9da13,deep,flow.Sequence,3_0_1_0_0_0,NA,NA,skipped,NA,4257390,NA,NA,4257296.3,4257390.3,2023-05-27T07:39:15Z,4257409.558,NULL,Verstand,ufahamivu,s,shakawa,hadhari,mhandisi,NA,sdfdsf,NA,1,NA,NA,NA,NA,NA,NA,NA,NA,NA,NA,NA,NA,NA,NA,NA,NA,NA,NA,NA
9da13,Shallow Question,html.Page,3_0_1_0_0_1_0,NA,NA,form submission,5777.6420000475,4257390.4,4257379.518,4257409.558,4263187.2,4263187.5,2023-05-27T07:39:21Z,4263202.591,NULL,Verstand,ufahamivu,s,shakawa,hadhari,mhandisi,ufahamivu,NA,NA,1,NA,NA,NA,NA,NA,NA,NA,NA,NA,NA,NA,NA,NA,NA,NA,NA,NA,NA,NA
9da13,"""Richtig""-Screen",canvas.Screen,3_0_1_0_0_1_1,NA,NA,timeout,5003.7060000002,4263189.3,4263181.684,4263202.591,4268189.665,4268200.5,2023-05-27T07:39:26Z,4268206.297,NULL,Verstand,ufahamivu,s,shakawa,hadhari,mhandisi,NA,sdfdsf,1,1,NA,NA,NA,NA,NA,NA,NA,NA,NA,NA,NA,NA,NA,NA,NA,NA,NA,NA,NA
9da13,"""Falsch""-Screen",canvas.Screen,3_0_1_0_0_1_2,NA,NA,skipped,NA,4268205.7,NA,NA,4268189.665,4268206.1,2023-05-27T07:39:26Z,4268206.297,NULL,Verstand,ufahamivu,s,shakawa,hadhari,mhandisi,NA,sdfdsf,NA,1,NA,NA,NA,NA,NA,NA,NA,NA,NA,NA,NA,NA,NA,NA,NA,NA,NA,NA,NA
9da13,shallow,flow.Sequence,3_0_1_0_0_1,NA,NA,completion,10780.107,4257390.4,4257379.518,4257409.558,4268189.665,4268206.6,2023-05-27T07:39:26Z,4268206.297,NULL,Verstand,ufahamivu,s,shakawa,hadhari,mhandisi,NA,sdfdsf,NA,1,NA,NA,NA,NA,NA,NA,NA,NA,NA,NA,NA,NA,NA,NA,NA,NA,NA,NA,NA
9da13,task,flow.Sequence,3_0_1_0_0,NA,NA,completion,10780.107,4257390,4257379.518,4257409.558,4268189.665,4268206.9,2023-05-27T07:39:26Z,4268206.297,NULL,Verstand,ufahamivu,s,shakawa,hadhari,mhandisi,NA,sdfdsf,NA,1,NA,NA,NA,NA,NA,NA,NA,NA,NA,NA,NA,NA,NA,NA,NA,NA,NA,NA,NA
9da13,Deep Question,html.Page,3_0_1_0_1_0_0,NA,NA,form submission,7001.5029999521,4268207.1,4268189.665,4268206.297,4275207.8,4275207.9,2023-05-27T07:39:33Z,4275221.113,NULL,Kreativität,ubunifu,d,NA,NA,NA,unavelta,NA,NA,1,NA,NA,NA,NA,NA,NA,NA,NA,NA,NA,NA,NA,NA,NA,NA,NA,NA,NA,NA
9da13,"""Richtig""-Screen",canvas.Screen,3_0_1_0_1_0_1,NA,NA,skipped,NA,4275209.9,NA,NA,4275207.8,4275210,2023-05-27T07:39:33Z,4275221.113,NULL,Kreativität,ubunifu,d,NA,NA,NA,NA,sdfdsf,NA,1,NA,NA,NA,NA,NA,NA,NA,NA,NA,NA,NA,NA,NA,NA,NA,NA,NA,NA,NA
9da13,"""Falsch""-Screen",canvas.Screen,3_0_1_0_1_0_2,NA,NA,timeout,5003.7209999999,4275210.6,4275196.279,4275221.113,4280208.602,4280209.6,2023-05-27T07:39:38Z,4280224.834,NULL,Kreativität,ubunifu,d,NA,NA,NA,NA,sdfdsf,0,1,NA,NA,NA,NA,NA,NA,NA,NA,NA,NA,NA,NA,NA,NA,NA,NA,NA,NA,NA
9da13,deep,flow.Sequence,3_0_1_0_1_0,NA,NA,completion,12002.305,4268207.1,4268189.665,4268206.297,4280208.602,4280210,2023-05-27T07:39:38Z,4280224.834,NULL,Kreativität,ubunifu,d,NA,NA,NA,NA,sdfdsf,NA,1,NA,NA,NA,NA,NA,NA,NA,NA,NA,NA,NA,NA,NA,NA,NA,NA,NA,NA,NA
9da13,shallow,flow.Sequence,3_0_1_0_1_1,NA,NA,skipped,NA,4280210.3,NA,NA,4280208.602,4280210.4,2023-05-27T07:39:38Z,4280224.834,NULL,Kreativität,ubunifu,d,NA,NA,NA,NA,sdfdsf,NA,1,NA,NA,NA,NA,NA,NA,NA,NA,NA,NA,NA,NA,NA,NA,NA,NA,NA,NA,NA
9da13,task,flow.Sequence,3_0_1_0_1,NA,NA,completion,12002.305,4268207.1,4268189.665,4268206.297,4280208.602,4280210.7,2023-05-27T07:39:38Z,4280224.834,NULL,Kreativität,ubunifu,d,NA,NA,NA,NA,sdfdsf,NA,1,NA,NA,NA,NA,NA,NA,NA,NA,NA,NA,NA,NA,NA,NA,NA,NA,NA,NA,NA
9da13,deep,flow.Sequence,3_0_1_0_2_0,NA,NA,skipped,NA,4280210.9,NA,NA,4280208.602,4280211,2023-05-27T07:39:38Z,4280224.834,NULL,Widerstand,usulubu,s,kusababisha,mwalimu,mwenendo,NA,sdfdsf,NA,1,NA,NA,NA,NA,NA,NA,NA,NA,NA,NA,NA,NA,NA,NA,NA,NA,NA,NA,NA
9da13,Shallow Question,html.Page,3_0_1_0_2_1_0,NA,NA,form submission,4275.1660000002,4280211.4,4280208.602,4280224.834,4284500,4284500.2,2023-05-27T07:39:42Z,4284518.884,NULL,Widerstand,usulubu,s,kusababisha,mwalimu,mwenendo,usulubu,NA,NA,1,NA,NA,NA,NA,NA,NA,NA,NA,NA,NA,NA,NA,NA,NA,NA,NA,NA,NA,NA
9da13,"""Richtig""-Screen",canvas.Screen,3_0_1_0_2_1_1,NA,NA,timeout,4991.2750000004,4284502,4284493.318,4284518.884,4289494.135,4289495.2,2023-05-27T07:39:47Z,4289510.159,NULL,Widerstand,usulubu,s,kusababisha,mwalimu,mwenendo,NA,sdfdsf,1,1,NA,NA,NA,NA,NA,NA,NA,NA,NA,NA,NA,NA,NA,NA,NA,NA,NA,NA,NA
9da13,"""Falsch""-Screen",canvas.Screen,3_0_1_0_2_1_2,NA,NA,skipped,NA,4289500.4,NA,NA,4289494.135,4289500.7,2023-05-27T07:39:47Z,4289510.159,NULL,Widerstand,usulubu,s,kusababisha,mwalimu,mwenendo,NA,sdfdsf,NA,1,NA,NA,NA,NA,NA,NA,NA,NA,NA,NA,NA,NA,NA,NA,NA,NA,NA,NA,NA
9da13,shallow,flow.Sequence,3_0_1_0_2_1,NA,NA,completion,9269.301,4280211.3,4280208.602,4280224.834,4289494.135,4289501.2,2023-05-27T07:39:47Z,4289510.159,NULL,Widerstand,usulubu,s,kusababisha,mwalimu,mwenendo,NA,sdfdsf,NA,1,NA,NA,NA,NA,NA,NA,NA,NA,NA,NA,NA,NA,NA,NA,NA,NA,NA,NA,NA
9da13,task,flow.Sequence,3_0_1_0_2,NA,NA,completion,9269.301,4280210.8,4280208.602,4280224.834,4289494.135,4289501.4,2023-05-27T07:39:47Z,4289510.159,NULL,Widerstand,usulubu,s,kusababisha,mwalimu,mwenendo,NA,sdfdsf,NA,1,NA,NA,NA,NA,NA,NA,NA,NA,NA,NA,NA,NA,NA,NA,NA,NA,NA,NA,NA
9da13,Deep Question,html.Page,3_0_1_0_3_0_0,NA,NA,form submission,6947.5410000477,4289501.8,4289494.135,4289510.159,4296457.7,4296458,2023-05-27T07:39:54Z,4296466.32,NULL,Ausschluss,kutengwa,d,NA,NA,NA,kuttela,NA,NA,1,NA,NA,NA,NA,NA,NA,NA,NA,NA,NA,NA,NA,NA,NA,NA,NA,NA,NA,NA
9da13,"""Richtig""-Screen",canvas.Screen,3_0_1_0_3_0_1,NA,NA,skipped,NA,4296460.4,NA,NA,4296457.7,4296460.7,2023-05-27T07:39:54Z,4296466.32,NULL,Ausschluss,kutengwa,d,NA,NA,NA,NA,sdfdsf,NA,1,NA,NA,NA,NA,NA,NA,NA,NA,NA,NA,NA,NA,NA,NA,NA,NA,NA,NA,NA
9da13,"""Falsch""-Screen",canvas.Screen,3_0_1_0_3_0_2,NA,NA,timeout,4995.7859999994,4296461.5,4296450.266,4296466.32,4301445.372,4301446.4,2023-05-27T07:39:59Z,4301462.106,NULL,Ausschluss,kutengwa,d,NA,NA,NA,NA,sdfdsf,0,1,NA,NA,NA,NA,NA,NA,NA,NA,NA,NA,NA,NA,NA,NA,NA,NA,NA,NA,NA
9da13,deep,flow.Sequence,3_0_1_0_3_0,NA,NA,completion,11935.213,4289501.6,4289494.135,4289510.159,4301445.372,4301446.9,2023-05-27T07:39:59Z,4301462.106,NULL,Ausschluss,kutengwa,d,NA,NA,NA,NA,sdfdsf,NA,1,NA,NA,NA,NA,NA,NA,NA,NA,NA,NA,NA,NA,NA,NA,NA,NA,NA,NA,NA
9da13,shallow,flow.Sequence,3_0_1_0_3_1,NA,NA,skipped,NA,4301447,NA,NA,4301445.372,4301447.2,2023-05-27T07:39:59Z,4301462.106,NULL,Ausschluss,kutengwa,d,NA,NA,NA,NA,sdfdsf,NA,1,NA,NA,NA,NA,NA,NA,NA,NA,NA,NA,NA,NA,NA,NA,NA,NA,NA,NA,NA
9da13,task,flow.Sequence,3_0_1_0_3,NA,NA,completion,11935.213,4289501.6,4289494.135,4289510.159,4301445.372,4301447.4,2023-05-27T07:39:59Z,4301462.106,NULL,Ausschluss,kutengwa,d,NA,NA,NA,NA,sdfdsf,NA,1,NA,NA,NA,NA,NA,NA,NA,NA,NA,NA,NA,NA,NA,NA,NA,NA,NA,NA,NA
9da13,Deep Question,html.Page,3_0_1_0_4_0_0,NA,NA,form submission,2946.6939999526,4301447.6,4301445.372,4301462.106,4304408.8,4304409,2023-05-27T07:40:02Z,4304410.36,NULL,Gelegenheit,wakati,d,NA,NA,NA,k,NA,NA,1,NA,NA,NA,NA,NA,NA,NA,NA,NA,NA,NA,NA,NA,NA,NA,NA,NA,NA,NA
9da13,"""Richtig""-Screen",canvas.Screen,3_0_1_0_4_0_1,NA,NA,skipped,NA,4304411.6,NA,NA,4304408.8,4304411.7,2023-05-27T07:40:02Z,4304410.36,NULL,Gelegenheit,wakati,d,NA,NA,NA,NA,sdfdsf,NA,1,NA,NA,NA,NA,NA,NA,NA,NA,NA,NA,NA,NA,NA,NA,NA,NA,NA,NA,NA
9da13,"""Falsch""-Screen",canvas.Screen,3_0_1_0_4_0_2,NA,NA,timeout,5008.5630000001,4304412.6,4304402.336,4304410.36,4309402.282,4309403.4,2023-05-27T07:40:07Z,4309418.923,NULL,Gelegenheit,wakati,d,NA,NA,NA,NA,sdfdsf,0,1,NA,NA,NA,NA,NA,NA,NA,NA,NA,NA,NA,NA,NA,NA,NA,NA,NA,NA,NA
9da13,deep,flow.Sequence,3_0_1_0_4_0,NA,NA,completion,7940.176,4301447.6,4301445.372,4301462.106,4309402.282,4309403.8,2023-05-27T07:40:07Z,4309418.923,NULL,Gelegenheit,wakati,d,NA,NA,NA,NA,sdfdsf,NA,1,NA,NA,NA,NA,NA,NA,NA,NA,NA,NA,NA,NA,NA,NA,NA,NA,NA,NA,NA
9da13,shallow,flow.Sequence,3_0_1_0_4_1,NA,NA,skipped,NA,4309403.9,NA,NA,4309402.282,4309404.1,2023-05-27T07:40:07Z,4309418.923,NULL,Gelegenheit,wakati,d,NA,NA,NA,NA,sdfdsf,NA,1,NA,NA,NA,NA,NA,NA,NA,NA,NA,NA,NA,NA,NA,NA,NA,NA,NA,NA,NA
9da13,task,flow.Sequence,3_0_1_0_4,NA,NA,completion,7940.176,4301447.6,4301445.372,4301462.106,4309402.282,4309404.3,2023-05-27T07:40:07Z,4309418.923,NULL,Gelegenheit,wakati,d,NA,NA,NA,NA,sdfdsf,NA,1,NA,NA,NA,NA,NA,NA,NA,NA,NA,NA,NA,NA,NA,NA,NA,NA,NA,NA,NA
9da13,Deep Question,html.Page,3_0_1_0_5_0_0,NA,NA,form submission,4554.4769999757,4309404.5,4309402.282,4309418.923,4313973.4,4313973.6,2023-05-27T07:40:12Z,4314004.52,NULL,Können,unaweza,d,NA,NA,NA,j,NA,NA,1,NA,NA,NA,NA,NA,NA,NA,NA,NA,NA,NA,NA,NA,NA,NA,NA,NA,NA,NA
9da13,"""Richtig""-Screen",canvas.Screen,3_0_1_0_5_0_1,NA,NA,skipped,NA,4313975.8,NA,NA,4313973.4,4313975.9,2023-05-27T07:40:12Z,4314004.52,NULL,Können,unaweza,d,NA,NA,NA,NA,sdfdsf,NA,1,NA,NA,NA,NA,NA,NA,NA,NA,NA,NA,NA,NA,NA,NA,NA,NA,NA,NA,NA
9da13,"""Falsch""-Screen",canvas.Screen,3_0_1_0_5_0_2,NA,NA,timeout,4995.1670000004,4313976.4,4313987.526,4314004.52,4318983.589,4318984.8,2023-05-27T07:40:17Z,4318999.687,NULL,Können,unaweza,d,NA,NA,NA,NA,sdfdsf,0,1,NA,NA,NA,NA,NA,NA,NA,NA,NA,NA,NA,NA,NA,NA,NA,NA,NA,NA,NA
9da13,deep,flow.Sequence,3_0_1_0_5_0,NA,NA,completion,9564.6659999993,4309404.5,4309402.282,4309418.923,4318983.589,4318985.2,2023-05-27T07:40:17Z,4318999.687,NULL,Können,unaweza,d,NA,NA,NA,NA,sdfdsf,NA,1,NA,NA,NA,NA,NA,NA,NA,NA,NA,NA,NA,NA,NA,NA,NA,NA,NA,NA,NA
9da13,shallow,flow.Sequence,3_0_1_0_5_1,NA,NA,skipped,NA,4318985.3,NA,NA,4318983.589,4318985.5,2023-05-27T07:40:17Z,4318999.687,NULL,Können,unaweza,d,NA,NA,NA,NA,sdfdsf,NA,1,NA,NA,NA,NA,NA,NA,NA,NA,NA,NA,NA,NA,NA,NA,NA,NA,NA,NA,NA
9da13,task,flow.Sequence,3_0_1_0_5,NA,NA,completion,9564.6659999993,4309404.5,4309402.282,4309418.923,4318983.589,4318985.7,2023-05-27T07:40:17Z,4318999.687,NULL,Können,unaweza,d,NA,NA,NA,NA,sdfdsf,NA,1,NA,NA,NA,NA,NA,NA,NA,NA,NA,NA,NA,NA,NA,NA,NA,NA,NA,NA,NA
9da13,deep,flow.Sequence,3_0_1_0_6_0,NA,NA,skipped,NA,4318985.9,NA,NA,4318983.589,4318986,2023-05-27T07:40:17Z,4318999.687,NULL,Gefährdung,kuhatarisha,s,uchokozi,udhaifu,makorowezo,NA,sdfdsf,NA,1,NA,NA,NA,NA,NA,NA,NA,NA,NA,NA,NA,NA,NA,NA,NA,NA,NA,NA,NA
9da13,Shallow Question,html.Page,3_0_1_0_6_1_0,NA,NA,form submission,6457.0130000478,4318986.2,4318983.589,4318999.687,4325456.7,4325456.9,2023-05-27T07:40:23Z,4325476.057,NULL,Gefährdung,kuhatarisha,s,uchokozi,udhaifu,makorowezo,kuhatarisha,NA,NA,1,NA,NA,NA,NA,NA,NA,NA,NA,NA,NA,NA,NA,NA,NA,NA,NA,NA,NA,NA
9da13,"""Richtig""-Screen",canvas.Screen,3_0_1_0_6_1_1,NA,NA,timeout,4991.2989999996,4325458.8,4325442.251,4325476.057,4330451.319,4330452.3,2023-05-27T07:40:28Z,4330467.356,NULL,Gefährdung,kuhatarisha,s,uchokozi,udhaifu,makorowezo,NA,sdfdsf,1,1,NA,NA,NA,NA,NA,NA,NA,NA,NA,NA,NA,NA,NA,NA,NA,NA,NA,NA,NA
9da13,"""Falsch""-Screen",canvas.Screen,3_0_1_0_6_1_2,NA,NA,skipped,NA,4330457.5,NA,NA,4330451.319,4330457.9,2023-05-27T07:40:28Z,4330467.356,NULL,Gefährdung,kuhatarisha,s,uchokozi,udhaifu,makorowezo,NA,sdfdsf,NA,1,NA,NA,NA,NA,NA,NA,NA,NA,NA,NA,NA,NA,NA,NA,NA,NA,NA,NA,NA
9da13,shallow,flow.Sequence,3_0_1_0_6_1,NA,NA,completion,11451.632,4318986.1,4318983.589,4318999.687,4330451.319,4330458.2,2023-05-27T07:40:28Z,4330467.356,NULL,Gefährdung,kuhatarisha,s,uchokozi,udhaifu,makorowezo,NA,sdfdsf,NA,1,NA,NA,NA,NA,NA,NA,NA,NA,NA,NA,NA,NA,NA,NA,NA,NA,NA,NA,NA
9da13,task,flow.Sequence,3_0_1_0_6,NA,NA,completion,11451.632,4318985.9,4318983.589,4318999.687,4330451.319,4330458.4,2023-05-27T07:40:28Z,4330467.356,NULL,Gefährdung,kuhatarisha,s,uchokozi,udhaifu,makorowezo,NA,sdfdsf,NA,1,NA,NA,NA,NA,NA,NA,NA,NA,NA,NA,NA,NA,NA,NA,NA,NA,NA,NA,NA
9da13,deep,flow.Sequence,3_0_1_0_7_0,NA,NA,skipped,NA,4330458.7,NA,NA,4330451.319,4330458.8,2023-05-27T07:40:28Z,4330467.356,NULL,Kontrolle,kudhibiti,s,mbinguni,kufunga,utegemezi,NA,sdfdsf,NA,1,NA,NA,NA,NA,NA,NA,NA,NA,NA,NA,NA,NA,NA,NA,NA,NA,NA,NA,NA
9da13,Shallow Question,html.Page,3_0_1_0_7_1_0,NA,NA,form submission,4189.9439999526,4330458.9,4330451.319,4330467.356,4334657.3,4334657.4,2023-05-27T07:40:32Z,4334657.598,NULL,Kontrolle,kudhibiti,s,mbinguni,kufunga,utegemezi,kufunga,NA,NA,1,NA,NA,NA,NA,NA,NA,NA,NA,NA,NA,NA,NA,NA,NA,NA,NA,NA,NA,NA
9da13,"""Richtig""-Screen",canvas.Screen,3_0_1_0_7_1_1,NA,NA,skipped,NA,4334659.3,NA,NA,4334657.3,4334659.4,2023-05-27T07:40:32Z,4334657.598,NULL,Kontrolle,kudhibiti,s,mbinguni,kufunga,utegemezi,NA,sdfdsf,NA,1,NA,NA,NA,NA,NA,NA,NA,NA,NA,NA,NA,NA,NA,NA,NA,NA,NA,NA,NA
9da13,"""Falsch""-Screen",canvas.Screen,3_0_1_0_7_1_2,NA,NA,timeout,4991.7439999999,4334659.9,4334653.069,4334657.598,4339632.994,4339634.1,2023-05-27T07:40:37Z,4339649.342,NULL,Kontrolle,kudhibiti,s,mbinguni,kufunga,utegemezi,NA,sdfdsf,0,1,NA,NA,NA,NA,NA,NA,NA,NA,NA,NA,NA,NA,NA,NA,NA,NA,NA,NA,NA
9da13,shallow,flow.Sequence,3_0_1_0_7_1,NA,NA,completion,9165.6380000003,4330458.9,4330451.319,4330467.356,4339632.994,4339634.5,2023-05-27T07:40:37Z,4339649.342,NULL,Kontrolle,kudhibiti,s,mbinguni,kufunga,utegemezi,NA,sdfdsf,NA,1,NA,NA,NA,NA,NA,NA,NA,NA,NA,NA,NA,NA,NA,NA,NA,NA,NA,NA,NA
9da13,task,flow.Sequence,3_0_1_0_7,NA,NA,completion,9165.6380000003,4330458.6,4330451.319,4330467.356,4339632.994,4339634.8,2023-05-27T07:40:37Z,4339649.342,NULL,Kontrolle,kudhibiti,s,mbinguni,kufunga,utegemezi,NA,sdfdsf,NA,1,NA,NA,NA,NA,NA,NA,NA,NA,NA,NA,NA,NA,NA,NA,NA,NA,NA,NA,NA
9da13,block,flow.Loop,3_0_1_0,NA,NA,completion,82223.436,4257389.9,4257379.518,4257409.558,4339632.994,4339635,2023-05-27T07:40:37Z,4339649.342,NULL,NA,NA,NA,NA,NA,NA,NA,sdfdsf,NA,1,NA,NA,NA,NA,NA,NA,NA,NA,NA,NA,NA,NA,NA,NA,NA,NA,NA,NA,NA
9da13,weiter,canvas.Screen,3_0_1_1,sdf,keypress(Space),response,1181.557999976,4339635.2,4339632.994,4339649.342,4340830.9,4340831.9,2023-05-27T07:40:38Z,4340940.427,NULL,NA,NA,NA,NA,NA,NA,NA,sdfdsf,NA,1,NA,NA,NA,NA,NA,NA,NA,NA,NA,NA,NA,NA,NA,NA,NA,NA,NA,NA,NA
9da13,check continue,flow.Sequence,3_0_1,NA,NA,completion,83421.341999976,4257389.9,4257379.518,4257409.558,4340830.9,4340832.2,2023-05-27T07:40:38Z,4340940.427,NULL,NA,NA,NA,NA,NA,NA,NA,sdfdsf,NA,1,NA,NA,NA,NA,NA,NA,NA,NA,NA,NA,NA,NA,NA,NA,NA,NA,NA,NA,NA
9da13,Deep Question,html.Page,3_0_2_0_0_0_0,NA,NA,form submission,7403.972999976,4340934.5,4340931.212,4340940.427,4348344.4,4348344.7,2023-05-27T07:40:46Z,4348363.247,NULL,Gelegenheit,wakati,d,NA,NA,NA,unawelga,NA,NA,2,NA,NA,NA,NA,NA,NA,NA,NA,NA,NA,NA,NA,NA,NA,NA,NA,NA,NA,NA
9da13,"""Richtig""-Screen",canvas.Screen,3_0_2_0_0_0_1,NA,NA,skipped,NA,4348347.2,NA,NA,4348344.4,4348347.4,2023-05-27T07:40:46Z,4348363.247,NULL,Gelegenheit,wakati,d,NA,NA,NA,NA,sdf,NA,2,NA,NA,NA,NA,NA,NA,NA,NA,NA,NA,NA,NA,NA,NA,NA,NA,NA,NA,NA
9da13,"""Falsch""-Screen",canvas.Screen,3_0_2_0_0_0_2,NA,NA,timeout,4991.1089999992,4348348.2,4348346.474,4348363.247,4353338.063,4353339.1,2023-05-27T07:40:51Z,4353354.356,NULL,Gelegenheit,wakati,d,NA,NA,NA,NA,sdf,0,2,NA,NA,NA,NA,NA,NA,NA,NA,NA,NA,NA,NA,NA,NA,NA,NA,NA,NA,NA
9da13,deep,flow.Sequence,3_0_2_0_0_0,NA,NA,completion,12397.636,4340934.4,4340931.212,4340940.427,4353338.063,4353339.4,2023-05-27T07:40:51Z,4353354.356,NULL,Gelegenheit,wakati,d,NA,NA,NA,NA,sdf,NA,2,NA,NA,NA,NA,NA,NA,NA,NA,NA,NA,NA,NA,NA,NA,NA,NA,NA,NA,NA
9da13,shallow,flow.Sequence,3_0_2_0_0_1,NA,NA,skipped,NA,4353339.8,NA,NA,4353338.063,4353339.9,2023-05-27T07:40:51Z,4353354.356,NULL,Gelegenheit,wakati,d,NA,NA,NA,NA,sdf,NA,2,NA,NA,NA,NA,NA,NA,NA,NA,NA,NA,NA,NA,NA,NA,NA,NA,NA,NA,NA
9da13,task,flow.Sequence,3_0_2_0_0,NA,NA,completion,12397.636,4340934.3,4340931.212,4340940.427,4353338.063,4353340.1,2023-05-27T07:40:51Z,4353354.356,NULL,Gelegenheit,wakati,d,NA,NA,NA,NA,sdf,NA,2,NA,NA,NA,NA,NA,NA,NA,NA,NA,NA,NA,NA,NA,NA,NA,NA,NA,NA,NA
9da13,deep,flow.Sequence,3_0_2_0_1_0,NA,NA,skipped,NA,4353340.3,NA,NA,4353338.063,4353340.4,2023-05-27T07:40:51Z,4353354.356,NULL,Kontrolle,kudhibiti,s,mbinguni,kufunga,utegemezi,NA,sdf,NA,2,NA,NA,NA,NA,NA,NA,NA,NA,NA,NA,NA,NA,NA,NA,NA,NA,NA,NA,NA
9da13,Shallow Question,html.Page,3_0_2_0_1_1_0,NA,NA,form submission,5340.5439999765,4353340.6,4353338.063,4353354.356,4358694.9,4358695,2023-05-27T07:40:56Z,4358709.989,NULL,Kontrolle,kudhibiti,s,mbinguni,kufunga,utegemezi,kudhibiti,NA,NA,2,NA,NA,NA,NA,NA,NA,NA,NA,NA,NA,NA,NA,NA,NA,NA,NA,NA,NA,NA
9da13,"""Richtig""-Screen",canvas.Screen,3_0_2_0_1_1_1,NA,NA,timeout,5003.8080000002,4358696.8,4358680.323,4358709.989,4363697.638,4363698.7,2023-05-27T07:41:01Z,4363713.797,NULL,Kontrolle,kudhibiti,s,mbinguni,kufunga,utegemezi,NA,sdf,1,2,NA,NA,NA,NA,NA,NA,NA,NA,NA,NA,NA,NA,NA,NA,NA,NA,NA,NA,NA
9da13,"""Falsch""-Screen",canvas.Screen,3_0_2_0_1_1_2,NA,NA,skipped,NA,4363703.8,NA,NA,4363697.638,4363704.2,2023-05-27T07:41:01Z,4363713.797,NULL,Kontrolle,kudhibiti,s,mbinguni,kufunga,utegemezi,NA,sdf,NA,2,NA,NA,NA,NA,NA,NA,NA,NA,NA,NA,NA,NA,NA,NA,NA,NA,NA,NA,NA
9da13,shallow,flow.Sequence,3_0_2_0_1_1,NA,NA,completion,10343.282000001,4353340.5,4353338.063,4353354.356,4363697.638,4363704.6,2023-05-27T07:41:01Z,4363713.797,NULL,Kontrolle,kudhibiti,s,mbinguni,kufunga,utegemezi,NA,sdf,NA,2,NA,NA,NA,NA,NA,NA,NA,NA,NA,NA,NA,NA,NA,NA,NA,NA,NA,NA,NA
9da13,task,flow.Sequence,3_0_2_0_1,NA,NA,completion,10343.282000001,4353340.2,4353338.063,4353354.356,4363697.638,4363705,2023-05-27T07:41:01Z,4363713.797,NULL,Kontrolle,kudhibiti,s,mbinguni,kufunga,utegemezi,NA,sdf,NA,2,NA,NA,NA,NA,NA,NA,NA,NA,NA,NA,NA,NA,NA,NA,NA,NA,NA,NA,NA
9da13,Deep Question,html.Page,3_0_2_0_2_0_0,NA,NA,form submission,7013.8030000236,4363705.2,4363697.638,4363713.797,4370727.6,4370727.8,2023-05-27T07:41:08Z,4370732.706,NULL,Können,unaweza,d,NA,NA,NA,unawelga,NA,NA,2,NA,NA,NA,NA,NA,NA,NA,NA,NA,NA,NA,NA,NA,NA,NA,NA,NA,NA,NA
9da13,"""Richtig""-Screen",canvas.Screen,3_0_2_0_2_0_1,NA,NA,skipped,NA,4370730.6,NA,NA,4370727.6,4370730.8,2023-05-27T07:41:08Z,4370732.706,NULL,Können,unaweza,d,NA,NA,NA,NA,sdf,NA,2,NA,NA,NA,NA,NA,NA,NA,NA,NA,NA,NA,NA,NA,NA,NA,NA,NA,NA,NA
9da13,"""Falsch""-Screen",canvas.Screen,3_0_2_0_2_0_2,NA,NA,timeout,4996.1269999994,4370732,4370712.323,4370732.706,4375712.292,4375713.4,2023-05-27T07:41:13Z,4375728.833,NULL,Können,unaweza,d,NA,NA,NA,NA,sdf,0,2,NA,NA,NA,NA,NA,NA,NA,NA,NA,NA,NA,NA,NA,NA,NA,NA,NA,NA,NA
9da13,deep,flow.Sequence,3_0_2_0_2_0,NA,NA,completion,11998.495,4363705.2,4363697.638,4363713.797,4375712.292,4375713.9,2023-05-27T07:41:13Z,4375728.833,NULL,Können,unaweza,d,NA,NA,NA,NA,sdf,NA,2,NA,NA,NA,NA,NA,NA,NA,NA,NA,NA,NA,NA,NA,NA,NA,NA,NA,NA,NA
9da13,shallow,flow.Sequence,3_0_2_0_2_1,NA,NA,skipped,NA,4375714,NA,NA,4375712.292,4375714.1,2023-05-27T07:41:13Z,4375728.833,NULL,Können,unaweza,d,NA,NA,NA,NA,sdf,NA,2,NA,NA,NA,NA,NA,NA,NA,NA,NA,NA,NA,NA,NA,NA,NA,NA,NA,NA,NA
9da13,task,flow.Sequence,3_0_2_0_2,NA,NA,completion,11998.495,4363705.1,4363697.638,4363713.797,4375712.292,4375714.4,2023-05-27T07:41:13Z,4375728.833,NULL,Können,unaweza,d,NA,NA,NA,NA,sdf,NA,2,NA,NA,NA,NA,NA,NA,NA,NA,NA,NA,NA,NA,NA,NA,NA,NA,NA,NA,NA
9da13,Deep Question,html.Page,3_0_2_0_3_0_0,NA,NA,form submission,11114.167,4375714.6,4375712.292,4375728.833,4386843,4386843.2,2023-05-27T07:41:24Z,4386846.555,NULL,Ausschluss,kutengwa,d,NA,NA,NA,kugla,NA,NA,2,NA,NA,NA,NA,NA,NA,NA,NA,NA,NA,NA,NA,NA,NA,NA,NA,NA,NA,NA
9da13,"""Richtig""-Screen",canvas.Screen,3_0_2_0_3_0_1,NA,NA,skipped,NA,4386845.8,NA,NA,4386843,4386845.9,2023-05-27T07:41:24Z,4386846.555,NULL,Ausschluss,kutengwa,d,NA,NA,NA,NA,sdf,NA,2,NA,NA,NA,NA,NA,NA,NA,NA,NA,NA,NA,NA,NA,NA,NA,NA,NA,NA,NA
9da13,"""Falsch""-Screen",canvas.Screen,3_0_2_0_3_0_2,NA,NA,timeout,4999.9110000003,4386847.3,4386830.367,4386846.555,4391829.964,4391831.1,2023-05-27T07:41:29Z,4391846.466,NULL,Ausschluss,kutengwa,d,NA,NA,NA,NA,sdf,0,2,NA,NA,NA,NA,NA,NA,NA,NA,NA,NA,NA,NA,NA,NA,NA,NA,NA,NA,NA
9da13,deep,flow.Sequence,3_0_2_0_3_0,NA,NA,completion,16101.131,4375714.6,4375712.292,4375728.833,4391829.964,4391831.6,2023-05-27T07:41:29Z,4391846.466,NULL,Ausschluss,kutengwa,d,NA,NA,NA,NA,sdf,NA,2,NA,NA,NA,NA,NA,NA,NA,NA,NA,NA,NA,NA,NA,NA,NA,NA,NA,NA,NA
9da13,shallow,flow.Sequence,3_0_2_0_3_1,NA,NA,skipped,NA,4391831.7,NA,NA,4391829.964,4391831.9,2023-05-27T07:41:29Z,4391846.466,NULL,Ausschluss,kutengwa,d,NA,NA,NA,NA,sdf,NA,2,NA,NA,NA,NA,NA,NA,NA,NA,NA,NA,NA,NA,NA,NA,NA,NA,NA,NA,NA
9da13,task,flow.Sequence,3_0_2_0_3,NA,NA,completion,16101.131,4375714.5,4375712.292,4375728.833,4391829.964,4391832.2,2023-05-27T07:41:29Z,4391846.466,NULL,Ausschluss,kutengwa,d,NA,NA,NA,NA,sdf,NA,2,NA,NA,NA,NA,NA,NA,NA,NA,NA,NA,NA,NA,NA,NA,NA,NA,NA,NA,NA
9da13,deep,flow.Sequence,3_0_2_0_4_0,NA,NA,skipped,NA,4391832.3,NA,NA,4391829.964,4391832.4,2023-05-27T07:41:29Z,4391846.466,NULL,Verstand,ufahamivu,s,shakawa,hadhari,mhandisi,NA,sdf,NA,2,NA,NA,NA,NA,NA,NA,NA,NA,NA,NA,NA,NA,NA,NA,NA,NA,NA,NA,NA
9da13,Shallow Question,html.Page,3_0_2_0_4_1_0,NA,NA,form submission,5464.2340000477,4391832.6,4391829.964,4391846.466,4397310.7,4397310.8,2023-05-27T07:41:35Z,4397326.986,NULL,Verstand,ufahamivu,s,shakawa,hadhari,mhandisi,ufahamivu,NA,NA,2,NA,NA,NA,NA,NA,NA,NA,NA,NA,NA,NA,NA,NA,NA,NA,NA,NA,NA,NA
9da13,"""Richtig""-Screen",canvas.Screen,3_0_2_0_4_1_1,NA,NA,timeout,5003.7970000003,4397312.6,4397301.767,4397326.986,4402314.746,4402316.1,2023-05-27T07:41:40Z,4402330.783,NULL,Verstand,ufahamivu,s,shakawa,hadhari,mhandisi,NA,sdf,1,2,NA,NA,NA,NA,NA,NA,NA,NA,NA,NA,NA,NA,NA,NA,NA,NA,NA,NA,NA
9da13,"""Falsch""-Screen",canvas.Screen,3_0_2_0_4_1_2,NA,NA,skipped,NA,4402321.3,NA,NA,4402314.746,4402321.6,2023-05-27T07:41:40Z,4402330.783,NULL,Verstand,ufahamivu,s,shakawa,hadhari,mhandisi,NA,sdf,NA,2,NA,NA,NA,NA,NA,NA,NA,NA,NA,NA,NA,NA,NA,NA,NA,NA,NA,NA,NA
9da13,shallow,flow.Sequence,3_0_2_0_4_1,NA,NA,completion,10468.28,4391832.6,4391829.964,4391846.466,4402314.746,4402322,2023-05-27T07:41:40Z,4402330.783,NULL,Verstand,ufahamivu,s,shakawa,hadhari,mhandisi,NA,sdf,NA,2,NA,NA,NA,NA,NA,NA,NA,NA,NA,NA,NA,NA,NA,NA,NA,NA,NA,NA,NA
9da13,task,flow.Sequence,3_0_2_0_4,NA,NA,completion,10468.28,4391832.3,4391829.964,4391846.466,4402314.746,4402322.2,2023-05-27T07:41:40Z,4402330.783,NULL,Verstand,ufahamivu,s,shakawa,hadhari,mhandisi,NA,sdf,NA,2,NA,NA,NA,NA,NA,NA,NA,NA,NA,NA,NA,NA,NA,NA,NA,NA,NA,NA,NA
9da13,deep,flow.Sequence,3_0_2_0_5_0,NA,NA,skipped,NA,4402322.4,NA,NA,4402314.746,4402322.5,2023-05-27T07:41:40Z,4402330.783,NULL,Widerstand,usulubu,s,kusababisha,mwalimu,mwenendo,NA,sdf,NA,2,NA,NA,NA,NA,NA,NA,NA,NA,NA,NA,NA,NA,NA,NA,NA,NA,NA,NA,NA
9da13,Shallow Question,html.Page,3_0_2_0_5_1_0,NA,NA,form submission,5505.4170000479,4402322.7,4402314.746,4402330.783,4407836.2,4407836.3,2023-05-27T07:41:45Z,4407845.438,NULL,Widerstand,usulubu,s,kusababisha,mwalimu,mwenendo,usulubu,NA,NA,2,NA,NA,NA,NA,NA,NA,NA,NA,NA,NA,NA,NA,NA,NA,NA,NA,NA,NA,NA
9da13,"""Richtig""-Screen",canvas.Screen,3_0_2_0_5_1_1,NA,NA,timeout,4991.5109999999,4407838,4407828.846,4407845.438,4412820.845,4412822.1,2023-05-27T07:41:50Z,4412836.949,NULL,Widerstand,usulubu,s,kusababisha,mwalimu,mwenendo,NA,sdf,1,2,NA,NA,NA,NA,NA,NA,NA,NA,NA,NA,NA,NA,NA,NA,NA,NA,NA,NA,NA
9da13,"""Falsch""-Screen",canvas.Screen,3_0_2_0_5_1_2,NA,NA,skipped,NA,4412827.4,NA,NA,4412820.845,4412827.9,2023-05-27T07:41:50Z,4412836.949,NULL,Widerstand,usulubu,s,kusababisha,mwalimu,mwenendo,NA,sdf,NA,2,NA,NA,NA,NA,NA,NA,NA,NA,NA,NA,NA,NA,NA,NA,NA,NA,NA,NA,NA
9da13,shallow,flow.Sequence,3_0_2_0_5_1,NA,NA,completion,10490.062,4402322.6,4402314.746,4402330.783,4412820.845,4412828.3,2023-05-27T07:41:50Z,4412836.949,NULL,Widerstand,usulubu,s,kusababisha,mwalimu,mwenendo,NA,sdf,NA,2,NA,NA,NA,NA,NA,NA,NA,NA,NA,NA,NA,NA,NA,NA,NA,NA,NA,NA,NA
9da13,task,flow.Sequence,3_0_2_0_5,NA,NA,completion,10490.062,4402322.3,4402314.746,4402330.783,4412820.845,4412828.6,2023-05-27T07:41:50Z,4412836.949,NULL,Widerstand,usulubu,s,kusababisha,mwalimu,mwenendo,NA,sdf,NA,2,NA,NA,NA,NA,NA,NA,NA,NA,NA,NA,NA,NA,NA,NA,NA,NA,NA,NA,NA
9da13,deep,flow.Sequence,3_0_2_0_6_0,NA,NA,skipped,NA,4412828.8,NA,NA,4412820.845,4412828.9,2023-05-27T07:41:50Z,4412836.949,NULL,Gefährdung,kuhatarisha,s,uchokozi,udhaifu,makorowezo,NA,sdf,NA,2,NA,NA,NA,NA,NA,NA,NA,NA,NA,NA,NA,NA,NA,NA,NA,NA,NA,NA,NA
9da13,Shallow Question,html.Page,3_0_2_0_6_1_0,NA,NA,form submission,13050.151000024,4412829.1,4412820.845,4412836.949,4425887.1,4425887.3,2023-05-27T07:42:03Z,4425897.432,NULL,Gefährdung,kuhatarisha,s,uchokozi,udhaifu,makorowezo,udhaifu,NA,NA,2,NA,NA,NA,NA,NA,NA,NA,NA,NA,NA,NA,NA,NA,NA,NA,NA,NA,NA,NA
9da13,"""Richtig""-Screen",canvas.Screen,3_0_2_0_6_1_1,NA,NA,skipped,NA,4425889.1,NA,NA,4425887.1,4425889.2,2023-05-27T07:42:03Z,4425897.432,NULL,Gefährdung,kuhatarisha,s,uchokozi,udhaifu,makorowezo,NA,sdf,NA,2,NA,NA,NA,NA,NA,NA,NA,NA,NA,NA,NA,NA,NA,NA,NA,NA,NA,NA,NA
9da13,"""Falsch""-Screen",canvas.Screen,3_0_2_0_6_1_2,NA,NA,timeout,4999.9199999999,4425889.7,4425879.865,4425897.432,4430880.8,4430881.9,2023-05-27T07:42:08Z,4430897.352,NULL,Gefährdung,kuhatarisha,s,uchokozi,udhaifu,makorowezo,NA,sdf,0,2,NA,NA,NA,NA,NA,NA,NA,NA,NA,NA,NA,NA,NA,NA,NA,NA,NA,NA,NA
9da13,shallow,flow.Sequence,3_0_2_0_6_1,NA,NA,completion,18043.851,4412829,4412820.845,4412836.949,4430880.8,4430882.4,2023-05-27T07:42:08Z,4430897.352,NULL,Gefährdung,kuhatarisha,s,uchokozi,udhaifu,makorowezo,NA,sdf,NA,2,NA,NA,NA,NA,NA,NA,NA,NA,NA,NA,NA,NA,NA,NA,NA,NA,NA,NA,NA
9da13,task,flow.Sequence,3_0_2_0_6,NA,NA,completion,18043.851,4412828.7,4412820.845,4412836.949,4430880.8,4430882.6,2023-05-27T07:42:08Z,4430897.352,NULL,Gefährdung,kuhatarisha,s,uchokozi,udhaifu,makorowezo,NA,sdf,NA,2,NA,NA,NA,NA,NA,NA,NA,NA,NA,NA,NA,NA,NA,NA,NA,NA,NA,NA,NA
9da13,Deep Question,html.Page,3_0_2_0_7_0_0,NA,NA,form submission,5566.2480000239,4430882.9,4430880.8,4430897.352,4436463.6,4436463.9,2023-05-27T07:42:14Z,4436474.541,NULL,Kreativität,ubunifu,d,NA,NA,NA,k,NA,NA,2,NA,NA,NA,NA,NA,NA,NA,NA,NA,NA,NA,NA,NA,NA,NA,NA,NA,NA,NA
9da13,"""Richtig""-Screen",canvas.Screen,3_0_2_0_7_0_1,NA,NA,skipped,NA,4436465.8,NA,NA,4436463.6,4436466,2023-05-27T07:42:14Z,4436474.541,NULL,Kreativität,ubunifu,d,NA,NA,NA,NA,sdf,NA,2,NA,NA,NA,NA,NA,NA,NA,NA,NA,NA,NA,NA,NA,NA,NA,NA,NA,NA,NA
9da13,"""Falsch""-Screen",canvas.Screen,3_0_2_0_7_0_2,NA,NA,timeout,4995.4330000002,4436466.6,4436453.356,4436474.541,4441453.321,4441459.9,2023-05-27T07:42:19Z,4441469.974,NULL,Kreativität,ubunifu,d,NA,NA,NA,NA,sdf,0,2,NA,NA,NA,NA,NA,NA,NA,NA,NA,NA,NA,NA,NA,NA,NA,NA,NA,NA,NA
9da13,deep,flow.Sequence,3_0_2_0_7_0,NA,NA,completion,10555.969000001,4430882.8,4430880.8,4430897.352,4441453.321,4441460.2,2023-05-27T07:42:19Z,4441469.974,NULL,Kreativität,ubunifu,d,NA,NA,NA,NA,sdf,NA,2,NA,NA,NA,NA,NA,NA,NA,NA,NA,NA,NA,NA,NA,NA,NA,NA,NA,NA,NA
9da13,shallow,flow.Sequence,3_0_2_0_7_1,NA,NA,skipped,NA,4441460.4,NA,NA,4441453.321,4441460.5,2023-05-27T07:42:19Z,4441469.974,NULL,Kreativität,ubunifu,d,NA,NA,NA,NA,sdf,NA,2,NA,NA,NA,NA,NA,NA,NA,NA,NA,NA,NA,NA,NA,NA,NA,NA,NA,NA,NA
9da13,task,flow.Sequence,3_0_2_0_7,NA,NA,completion,10555.969000001,4430882.8,4430880.8,4430897.352,4441453.321,4441460.7,2023-05-27T07:42:19Z,4441469.974,NULL,Kreativität,ubunifu,d,NA,NA,NA,NA,sdf,NA,2,NA,NA,NA,NA,NA,NA,NA,NA,NA,NA,NA,NA,NA,NA,NA,NA,NA,NA,NA
9da13,block,flow.Loop,3_0_2_0,NA,NA,completion,100512.894,4340934.3,4340931.212,4340940.427,4441453.321,4441461.1,2023-05-27T07:42:19Z,4441469.974,NULL,NA,NA,NA,NA,NA,NA,NA,sdf,NA,2,NA,NA,NA,NA,NA,NA,NA,NA,NA,NA,NA,NA,NA,NA,NA,NA,NA,NA,NA
9da13,weiter,canvas.Screen,3_0_2_1,sdf,keypress(Space),response,953.22600004729,4441461.3,4441453.321,4441469.974,4442423.2,4442424.3,2023-05-27T07:42:20Z,4442544.905,NULL,NA,NA,NA,NA,NA,NA,NA,sdf,NA,2,NA,NA,NA,NA,NA,NA,NA,NA,NA,NA,NA,NA,NA,NA,NA,NA,NA,NA,NA
9da13,check continue,flow.Sequence,3_0_2,NA,NA,completion,101482.77300005,4340934.2,4340931.212,4340940.427,4442423.2,4442424.6,2023-05-27T07:42:20Z,4442544.905,NULL,NA,NA,NA,NA,NA,NA,NA,sdf,NA,2,NA,NA,NA,NA,NA,NA,NA,NA,NA,NA,NA,NA,NA,NA,NA,NA,NA,NA,NA
9da13,deep,flow.Sequence,3_0_3_0_0_0,NA,NA,skipped,NA,4442528.6,NA,NA,4442423.2,4442528.8,2023-05-27T07:42:20Z,4442544.905,NULL,Widerstand,usulubu,s,kusababisha,mwalimu,mwenendo,NA,qt,NA,3,NA,NA,NA,NA,NA,NA,NA,NA,NA,NA,NA,NA,NA,NA,NA,NA,NA,NA,NA
9da13,Shallow Question,html.Page,3_0_3_0_0_1_0,NA,NA,form submission,3325.6950000236,4442529,4442519.571,4442544.905,4445870.6,4445870.8,2023-05-27T07:42:23Z,4445885.039,NULL,Widerstand,usulubu,s,kusababisha,mwalimu,mwenendo,usulubu,NA,NA,3,NA,NA,NA,NA,NA,NA,NA,NA,NA,NA,NA,NA,NA,NA,NA,NA,NA,NA,NA
9da13,"""Richtig""-Screen",canvas.Screen,3_0_3_0_0_1_1,NA,NA,timeout,5007.9170000004,4445872.7,4445859.975,4445885.039,4450876.972,4450878.3,2023-05-27T07:42:28Z,4450892.956,NULL,Widerstand,usulubu,s,kusababisha,mwalimu,mwenendo,NA,qt,1,3,NA,NA,NA,NA,NA,NA,NA,NA,NA,NA,NA,NA,NA,NA,NA,NA,NA,NA,NA
9da13,"""Falsch""-Screen",canvas.Screen,3_0_3_0_0_1_2,NA,NA,skipped,NA,4450883.5,NA,NA,4450876.972,4450883.8,2023-05-27T07:42:28Z,4450892.956,NULL,Widerstand,usulubu,s,kusababisha,mwalimu,mwenendo,NA,qt,NA,3,NA,NA,NA,NA,NA,NA,NA,NA,NA,NA,NA,NA,NA,NA,NA,NA,NA,NA,NA
9da13,shallow,flow.Sequence,3_0_3_0_0_1,NA,NA,completion,8332.0669999998,4442529,4442519.571,4442544.905,4450876.972,4450884,2023-05-27T07:42:28Z,4450892.956,NULL,Widerstand,usulubu,s,kusababisha,mwalimu,mwenendo,NA,qt,NA,3,NA,NA,NA,NA,NA,NA,NA,NA,NA,NA,NA,NA,NA,NA,NA,NA,NA,NA,NA
9da13,task,flow.Sequence,3_0_3_0_0,NA,NA,completion,8332.0669999998,4442528.5,4442519.571,4442544.905,4450876.972,4450884.3,2023-05-27T07:42:28Z,4450892.956,NULL,Widerstand,usulubu,s,kusababisha,mwalimu,mwenendo,NA,qt,NA,3,NA,NA,NA,NA,NA,NA,NA,NA,NA,NA,NA,NA,NA,NA,NA,NA,NA,NA,NA
9da13,deep,flow.Sequence,3_0_3_0_1_0,NA,NA,skipped,NA,4450884.4,NA,NA,4450876.972,4450884.5,2023-05-27T07:42:28Z,4450892.956,NULL,Kontrolle,kudhibiti,s,mbinguni,kufunga,utegemezi,NA,qt,NA,3,NA,NA,NA,NA,NA,NA,NA,NA,NA,NA,NA,NA,NA,NA,NA,NA,NA,NA,NA
9da13,Shallow Question,html.Page,3_0_3_0_1_1_0,NA,NA,form submission,4943.2440000474,4450884.7,4450876.972,4450892.956,4455836.2,4455836.3,2023-05-27T07:42:33Z,4455845.385,NULL,Kontrolle,kudhibiti,s,mbinguni,kufunga,utegemezi,kufunga,NA,NA,3,NA,NA,NA,NA,NA,NA,NA,NA,NA,NA,NA,NA,NA,NA,NA,NA,NA,NA,NA
9da13,"""Richtig""-Screen",canvas.Screen,3_0_3_0_1_1_1,NA,NA,skipped,NA,4455838,NA,NA,4455836.2,4455838,2023-05-27T07:42:33Z,4455845.385,NULL,Kontrolle,kudhibiti,s,mbinguni,kufunga,utegemezi,NA,qt,NA,3,NA,NA,NA,NA,NA,NA,NA,NA,NA,NA,NA,NA,NA,NA,NA,NA,NA,NA,NA
9da13,"""Falsch""-Screen",canvas.Screen,3_0_3_0_1_1_2,NA,NA,timeout,5008.4419999998,4455838.5,4455823.738,4455845.385,4460837.118,4460838.1,2023-05-27T07:42:38Z,4460853.827,NULL,Kontrolle,kudhibiti,s,mbinguni,kufunga,utegemezi,NA,qt,0,3,NA,NA,NA,NA,NA,NA,NA,NA,NA,NA,NA,NA,NA,NA,NA,NA,NA,NA,NA
9da13,shallow,flow.Sequence,3_0_3_0_1_1,NA,NA,completion,9944.1619999995,4450884.6,4450876.972,4450892.956,4460837.118,4460838.5,2023-05-27T07:42:38Z,4460853.827,NULL,Kontrolle,kudhibiti,s,mbinguni,kufunga,utegemezi,NA,qt,NA,3,NA,NA,NA,NA,NA,NA,NA,NA,NA,NA,NA,NA,NA,NA,NA,NA,NA,NA,NA
9da13,task,flow.Sequence,3_0_3_0_1,NA,NA,completion,9944.1619999995,4450884.4,4450876.972,4450892.956,4460837.118,4460838.7,2023-05-27T07:42:38Z,4460853.827,NULL,Kontrolle,kudhibiti,s,mbinguni,kufunga,utegemezi,NA,qt,NA,3,NA,NA,NA,NA,NA,NA,NA,NA,NA,NA,NA,NA,NA,NA,NA,NA,NA,NA,NA
9da13,Deep Question,html.Page,3_0_3_0_2_0_0,NA,NA,form submission,13921.673,4460838.9,4460837.118,4460853.827,4474775.5,4474775.7,2023-05-27T07:42:52Z,4474779.107,NULL,Gelegenheit,wakati,d,NA,NA,NA,wakimi,NA,NA,3,NA,NA,NA,NA,NA,NA,NA,NA,NA,NA,NA,NA,NA,NA,NA,NA,NA,NA,NA
9da13,"""Richtig""-Screen",canvas.Screen,3_0_3_0_2_0_1,NA,NA,skipped,NA,4474777.5,NA,NA,4474775.5,4474777.7,2023-05-27T07:42:52Z,4474779.107,NULL,Gelegenheit,wakati,d,NA,NA,NA,NA,qt,NA,3,NA,NA,NA,NA,NA,NA,NA,NA,NA,NA,NA,NA,NA,NA,NA,NA,NA,NA,NA
9da13,"""Falsch""-Screen",canvas.Screen,3_0_3_0_2_0_2,NA,NA,timeout,5003.8030000003,4474778.2,4474766.923,4474779.107,4479766.698,4479767.9,2023-05-27T07:42:57Z,4479782.91,NULL,Gelegenheit,wakati,d,NA,NA,NA,NA,qt,0,3,NA,NA,NA,NA,NA,NA,NA,NA,NA,NA,NA,NA,NA,NA,NA,NA,NA,NA,NA
9da13,deep,flow.Sequence,3_0_3_0_2_0,NA,NA,completion,18912.871,4460838.9,4460837.118,4460853.827,4479766.698,4479768.4,2023-05-27T07:42:57Z,4479782.91,NULL,Gelegenheit,wakati,d,NA,NA,NA,NA,qt,NA,3,NA,NA,NA,NA,NA,NA,NA,NA,NA,NA,NA,NA,NA,NA,NA,NA,NA,NA,NA
9da13,shallow,flow.Sequence,3_0_3_0_2_1,NA,NA,skipped,NA,4479768.6,NA,NA,4479766.698,4479768.7,2023-05-27T07:42:57Z,4479782.91,NULL,Gelegenheit,wakati,d,NA,NA,NA,NA,qt,NA,3,NA,NA,NA,NA,NA,NA,NA,NA,NA,NA,NA,NA,NA,NA,NA,NA,NA,NA,NA
9da13,task,flow.Sequence,3_0_3_0_2,NA,NA,completion,18912.871,4460838.9,4460837.118,4460853.827,4479766.698,4479769,2023-05-27T07:42:57Z,4479782.91,NULL,Gelegenheit,wakati,d,NA,NA,NA,NA,qt,NA,3,NA,NA,NA,NA,NA,NA,NA,NA,NA,NA,NA,NA,NA,NA,NA,NA,NA,NA,NA
9da13,deep,flow.Sequence,3_0_3_0_3_0,NA,NA,skipped,NA,4479769.1,NA,NA,4479766.698,4479769.3,2023-05-27T07:42:57Z,4479782.91,NULL,Gefährdung,kuhatarisha,s,uchokozi,udhaifu,makorowezo,NA,qt,NA,3,NA,NA,NA,NA,NA,NA,NA,NA,NA,NA,NA,NA,NA,NA,NA,NA,NA,NA,NA
9da13,Shallow Question,html.Page,3_0_3_0_3_1_0,NA,NA,form submission,4639.2900000475,4479769.5,4479766.698,4479782.91,4484422.2,4484422.4,2023-05-27T07:43:02Z,4484439.701,NULL,Gefährdung,kuhatarisha,s,uchokozi,udhaifu,makorowezo,kuhatarisha,NA,NA,3,NA,NA,NA,NA,NA,NA,NA,NA,NA,NA,NA,NA,NA,NA,NA,NA,NA,NA,NA
9da13,"""Richtig""-Screen",canvas.Screen,3_0_3_0_3_1_1,NA,NA,timeout,4998.7649999997,4484424.2,4484410.138,4484439.701,4489422.284,4489423.3,2023-05-27T07:43:07Z,4489438.466,NULL,Gefährdung,kuhatarisha,s,uchokozi,udhaifu,makorowezo,NA,qt,1,3,NA,NA,NA,NA,NA,NA,NA,NA,NA,NA,NA,NA,NA,NA,NA,NA,NA,NA,NA
9da13,"""Falsch""-Screen",canvas.Screen,3_0_3_0_3_1_2,NA,NA,skipped,NA,4489428.5,NA,NA,4489422.284,4489428.9,2023-05-27T07:43:07Z,4489438.466,NULL,Gefährdung,kuhatarisha,s,uchokozi,udhaifu,makorowezo,NA,qt,NA,3,NA,NA,NA,NA,NA,NA,NA,NA,NA,NA,NA,NA,NA,NA,NA,NA,NA,NA,NA
9da13,shallow,flow.Sequence,3_0_3_0_3_1,NA,NA,completion,9639.3739999998,4479769.4,4479766.698,4479782.91,4489422.284,4489429.4,2023-05-27T07:43:07Z,4489438.466,NULL,Gefährdung,kuhatarisha,s,uchokozi,udhaifu,makorowezo,NA,qt,NA,3,NA,NA,NA,NA,NA,NA,NA,NA,NA,NA,NA,NA,NA,NA,NA,NA,NA,NA,NA
9da13,task,flow.Sequence,3_0_3_0_3,NA,NA,completion,9639.3739999998,4479769.1,4479766.698,4479782.91,4489422.284,4489429.6,2023-05-27T07:43:07Z,4489438.466,NULL,Gefährdung,kuhatarisha,s,uchokozi,udhaifu,makorowezo,NA,qt,NA,3,NA,NA,NA,NA,NA,NA,NA,NA,NA,NA,NA,NA,NA,NA,NA,NA,NA,NA,NA
9da13,Deep Question,html.Page,3_0_3_0_4_0_0,NA,NA,form submission,5279.4339999761,4489429.8,4489422.284,4489438.466,4494717.9,4494718,2023-05-27T07:43:12Z,4494736.811,NULL,Können,unaweza,d,NA,NA,NA,unaweza,NA,NA,3,NA,NA,NA,NA,NA,NA,NA,NA,NA,NA,NA,NA,NA,NA,NA,NA,NA,NA,NA
9da13,"""Richtig""-Screen",canvas.Screen,3_0_3_0_4_0_1,NA,NA,timeout,4995.5180000002,4494720.5,4494712.268,4494736.811,4499716.141,4499717.2,2023-05-27T07:43:17Z,4499732.329,NULL,Können,unaweza,d,NA,NA,NA,NA,qt,1,3,NA,NA,NA,NA,NA,NA,NA,NA,NA,NA,NA,NA,NA,NA,NA,NA,NA,NA,NA
9da13,"""Falsch""-Screen",canvas.Screen,3_0_3_0_4_0_2,NA,NA,skipped,NA,4499722.3,NA,NA,4499716.141,4499722.7,2023-05-27T07:43:17Z,4499732.329,NULL,Können,unaweza,d,NA,NA,NA,NA,qt,NA,3,NA,NA,NA,NA,NA,NA,NA,NA,NA,NA,NA,NA,NA,NA,NA,NA,NA,NA,NA
9da13,deep,flow.Sequence,3_0_3_0_4_0,NA,NA,completion,10277.675,4489429.8,4489422.284,4489438.466,4499716.141,4499723.1,2023-05-27T07:43:17Z,4499732.329,NULL,Können,unaweza,d,NA,NA,NA,NA,qt,NA,3,NA,NA,NA,NA,NA,NA,NA,NA,NA,NA,NA,NA,NA,NA,NA,NA,NA,NA,NA
9da13,shallow,flow.Sequence,3_0_3_0_4_1,NA,NA,skipped,NA,4499723.2,NA,NA,4499716.141,4499723.4,2023-05-27T07:43:17Z,4499732.329,NULL,Können,unaweza,d,NA,NA,NA,NA,qt,NA,3,NA,NA,NA,NA,NA,NA,NA,NA,NA,NA,NA,NA,NA,NA,NA,NA,NA,NA,NA
9da13,task,flow.Sequence,3_0_3_0_4,NA,NA,completion,10277.675,4489429.7,4489422.284,4489438.466,4499716.141,4499723.6,2023-05-27T07:43:17Z,4499732.329,NULL,Können,unaweza,d,NA,NA,NA,NA,qt,NA,3,NA,NA,NA,NA,NA,NA,NA,NA,NA,NA,NA,NA,NA,NA,NA,NA,NA,NA,NA
9da13,Deep Question,html.Page,3_0_3_0_5_0_0,NA,NA,form submission,5791.8710000478,4499723.9,4499716.141,4499732.329,4505524.2,4505524.5,2023-05-27T07:43:23Z,4505530.195,NULL,Ausschluss,kutengwa,d,NA,NA,NA,k,NA,NA,3,NA,NA,NA,NA,NA,NA,NA,NA,NA,NA,NA,NA,NA,NA,NA,NA,NA,NA,NA
9da13,"""Richtig""-Screen",canvas.Screen,3_0_3_0_5_0_1,NA,NA,skipped,NA,4505526.8,NA,NA,4505524.2,4505526.9,2023-05-27T07:43:23Z,4505530.195,NULL,Ausschluss,kutengwa,d,NA,NA,NA,NA,qt,NA,3,NA,NA,NA,NA,NA,NA,NA,NA,NA,NA,NA,NA,NA,NA,NA,NA,NA,NA,NA
9da13,"""Falsch""-Screen",canvas.Screen,3_0_3_0_5_0_2,NA,NA,timeout,4995.6739999996,4505527.8,4505514.114,4505530.195,4510509.77,4510510.8,2023-05-27T07:43:28Z,4510525.869,NULL,Ausschluss,kutengwa,d,NA,NA,NA,NA,qt,0,3,NA,NA,NA,NA,NA,NA,NA,NA,NA,NA,NA,NA,NA,NA,NA,NA,NA,NA,NA
9da13,deep,flow.Sequence,3_0_3_0_5_0,NA,NA,completion,10777.441,4499723.8,4499716.141,4499732.329,4510509.77,4510511.3,2023-05-27T07:43:28Z,4510525.869,NULL,Ausschluss,kutengwa,d,NA,NA,NA,NA,qt,NA,3,NA,NA,NA,NA,NA,NA,NA,NA,NA,NA,NA,NA,NA,NA,NA,NA,NA,NA,NA
9da13,shallow,flow.Sequence,3_0_3_0_5_1,NA,NA,skipped,NA,4510511.4,NA,NA,4510509.77,4510511.6,2023-05-27T07:43:28Z,4510525.869,NULL,Ausschluss,kutengwa,d,NA,NA,NA,NA,qt,NA,3,NA,NA,NA,NA,NA,NA,NA,NA,NA,NA,NA,NA,NA,NA,NA,NA,NA,NA,NA
9da13,task,flow.Sequence,3_0_3_0_5,NA,NA,completion,10777.441,4499723.8,4499716.141,4499732.329,4510509.77,4510511.9,2023-05-27T07:43:28Z,4510525.869,NULL,Ausschluss,kutengwa,d,NA,NA,NA,NA,qt,NA,3,NA,NA,NA,NA,NA,NA,NA,NA,NA,NA,NA,NA,NA,NA,NA,NA,NA,NA,NA
9da13,Deep Question,html.Page,3_0_3_0_6_0_0,NA,NA,form submission,3348.5309999762,4510512.1,4510509.77,4510525.869,4513874.4,4513874.6,2023-05-27T07:43:31Z,4513887.718,NULL,Kreativität,ubunifu,d,NA,NA,NA,k,NA,NA,3,NA,NA,NA,NA,NA,NA,NA,NA,NA,NA,NA,NA,NA,NA,NA,NA,NA,NA,NA
9da13,"""Richtig""-Screen",canvas.Screen,3_0_3_0_6_0_1,NA,NA,skipped,NA,4513876.6,NA,NA,4513874.4,4513876.9,2023-05-27T07:43:31Z,4513887.718,NULL,Kreativität,ubunifu,d,NA,NA,NA,NA,qt,NA,3,NA,NA,NA,NA,NA,NA,NA,NA,NA,NA,NA,NA,NA,NA,NA,NA,NA,NA,NA
9da13,"""Falsch""-Screen",canvas.Screen,3_0_3_0_6_0_2,NA,NA,timeout,4995.8119999999,4513877.8,4513862.944,4513887.718,4518866.887,4518867.9,2023-05-27T07:43:36Z,4518883.53,NULL,Kreativität,ubunifu,d,NA,NA,NA,NA,qt,0,3,NA,NA,NA,NA,NA,NA,NA,NA,NA,NA,NA,NA,NA,NA,NA,NA,NA,NA,NA
9da13,deep,flow.Sequence,3_0_3_0_6_0,NA,NA,completion,8341.0180000002,4510512,4510509.77,4510525.869,4518866.887,4518868.4,2023-05-27T07:43:36Z,4518883.53,NULL,Kreativität,ubunifu,d,NA,NA,NA,NA,qt,NA,3,NA,NA,NA,NA,NA,NA,NA,NA,NA,NA,NA,NA,NA,NA,NA,NA,NA,NA,NA
9da13,shallow,flow.Sequence,3_0_3_0_6_1,NA,NA,skipped,NA,4518868.5,NA,NA,4518866.887,4518868.6,2023-05-27T07:43:36Z,4518883.53,NULL,Kreativität,ubunifu,d,NA,NA,NA,NA,qt,NA,3,NA,NA,NA,NA,NA,NA,NA,NA,NA,NA,NA,NA,NA,NA,NA,NA,NA,NA,NA
9da13,task,flow.Sequence,3_0_3_0_6,NA,NA,completion,8341.0180000002,4510511.9,4510509.77,4510525.869,4518866.887,4518868.9,2023-05-27T07:43:36Z,4518883.53,NULL,Kreativität,ubunifu,d,NA,NA,NA,NA,qt,NA,3,NA,NA,NA,NA,NA,NA,NA,NA,NA,NA,NA,NA,NA,NA,NA,NA,NA,NA,NA
9da13,deep,flow.Sequence,3_0_3_0_7_0,NA,NA,skipped,NA,4518869.1,NA,NA,4518866.887,4518869.2,2023-05-27T07:43:36Z,4518883.53,NULL,Verstand,ufahamivu,s,shakawa,hadhari,mhandisi,NA,qt,NA,3,NA,NA,NA,NA,NA,NA,NA,NA,NA,NA,NA,NA,NA,NA,NA,NA,NA,NA,NA
9da13,Shallow Question,html.Page,3_0_3_0_7_1_0,NA,NA,form submission,3354.6700000474,4518869.4,4518866.887,4518883.53,4522238.2,4522238.3,2023-05-27T07:43:40Z,4522240.058,NULL,Verstand,ufahamivu,s,shakawa,hadhari,mhandisi,hadhari,NA,NA,3,NA,NA,NA,NA,NA,NA,NA,NA,NA,NA,NA,NA,NA,NA,NA,NA,NA,NA,NA
9da13,"""Richtig""-Screen",canvas.Screen,3_0_3_0_7_1_1,NA,NA,skipped,NA,4522240.2,NA,NA,4522238.2,4522240.3,2023-05-27T07:43:40Z,4522240.058,NULL,Verstand,ufahamivu,s,shakawa,hadhari,mhandisi,NA,qt,NA,3,NA,NA,NA,NA,NA,NA,NA,NA,NA,NA,NA,NA,NA,NA,NA,NA,NA,NA,NA
9da13,"""Falsch""-Screen",canvas.Screen,3_0_3_0_7_1_2,NA,NA,timeout,4991.9469999997,4522240.9,4522223.375,4522240.058,4527215.44,4527216.4,2023-05-27T07:43:45Z,4527232.005,NULL,Verstand,ufahamivu,s,shakawa,hadhari,mhandisi,NA,qt,0,3,NA,NA,NA,NA,NA,NA,NA,NA,NA,NA,NA,NA,NA,NA,NA,NA,NA,NA,NA
9da13,shallow,flow.Sequence,3_0_3_0_7_1,NA,NA,completion,8331.9100000001,4518869.4,4518866.887,4518883.53,4527215.44,4527216.8,2023-05-27T07:43:45Z,4527232.005,NULL,Verstand,ufahamivu,s,shakawa,hadhari,mhandisi,NA,qt,NA,3,NA,NA,NA,NA,NA,NA,NA,NA,NA,NA,NA,NA,NA,NA,NA,NA,NA,NA,NA
9da13,task,flow.Sequence,3_0_3_0_7,NA,NA,completion,8331.9100000001,4518869,4518866.887,4518883.53,4527215.44,4527217,2023-05-27T07:43:45Z,4527232.005,NULL,Verstand,ufahamivu,s,shakawa,hadhari,mhandisi,NA,qt,NA,3,NA,NA,NA,NA,NA,NA,NA,NA,NA,NA,NA,NA,NA,NA,NA,NA,NA,NA,NA
9da13,block,flow.Loop,3_0_3_0,NA,NA,completion,84670.535,4442528.5,4442519.571,4442544.905,4527215.44,4527217.2,2023-05-27T07:43:45Z,4527232.005,NULL,NA,NA,NA,NA,NA,NA,NA,qt,NA,3,NA,NA,NA,NA,NA,NA,NA,NA,NA,NA,NA,NA,NA,NA,NA,NA,NA,NA,NA
9da13,weiter,canvas.Screen,3_0_3_1,sdf,keypress(Space),response,992.1950000478,4527217.3,4527215.44,4527232.005,4528224.2,4528225.3,2023-05-27T07:43:46Z,4528327.209,NULL,NA,NA,NA,NA,NA,NA,NA,qt,NA,3,NA,NA,NA,NA,NA,NA,NA,NA,NA,NA,NA,NA,NA,NA,NA,NA,NA,NA,NA
9da13,check continue,flow.Sequence,3_0_3,NA,NA,completion,85679.295000047,4442528.4,4442519.571,4442544.905,4528224.2,4528225.6,2023-05-27T07:43:46Z,4528327.209,NULL,NA,NA,NA,NA,NA,NA,NA,qt,NA,3,NA,NA,NA,NA,NA,NA,NA,NA,NA,NA,NA,NA,NA,NA,NA,NA,NA,NA,NA
9da13,deep,flow.Sequence,3_0_4_0_0_0,NA,NA,skipped,NA,4528309.4,NA,NA,4528224.2,4528309.7,2023-05-27T07:43:46Z,4528327.209,NULL,Gefährdung,kuhatarisha,s,uchokozi,udhaifu,makorowezo,NA,sd,NA,4,NA,NA,NA,NA,NA,NA,NA,NA,NA,NA,NA,NA,NA,NA,NA,NA,NA,NA,NA
9da13,Shallow Question,html.Page,3_0_4_0_0_1_0,NA,NA,form submission,2524.6909999764,4528310,4528297.712,4528327.209,4530851.9,4530852.1,2023-05-27T07:43:48Z,4530863.796,NULL,Gefährdung,kuhatarisha,s,uchokozi,udhaifu,makorowezo,kuhatarisha,NA,NA,4,NA,NA,NA,NA,NA,NA,NA,NA,NA,NA,NA,NA,NA,NA,NA,NA,NA,NA,NA
9da13,"""Richtig""-Screen",canvas.Screen,3_0_4_0_0_1_1,NA,NA,timeout,4991.3669999996,4530854,4530842.854,4530863.796,4535839.078,4535840.3,2023-05-27T07:43:53Z,4535855.163,NULL,Gefährdung,kuhatarisha,s,uchokozi,udhaifu,makorowezo,NA,sd,1,4,NA,NA,NA,NA,NA,NA,NA,NA,NA,NA,NA,NA,NA,NA,NA,NA,NA,NA,NA
9da13,"""Falsch""-Screen",canvas.Screen,3_0_4_0_0_1_2,NA,NA,skipped,NA,4535845.3,NA,NA,4535839.078,4535845.7,2023-05-27T07:43:53Z,4535855.163,NULL,Gefährdung,kuhatarisha,s,uchokozi,udhaifu,makorowezo,NA,sd,NA,4,NA,NA,NA,NA,NA,NA,NA,NA,NA,NA,NA,NA,NA,NA,NA,NA,NA,NA,NA
9da13,shallow,flow.Sequence,3_0_4_0_0_1,NA,NA,completion,7511.8689999999,4528310,4528297.712,4528327.209,4535839.078,4535846.2,2023-05-27T07:43:53Z,4535855.163,NULL,Gefährdung,kuhatarisha,s,uchokozi,udhaifu,makorowezo,NA,sd,NA,4,NA,NA,NA,NA,NA,NA,NA,NA,NA,NA,NA,NA,NA,NA,NA,NA,NA,NA,NA
9da13,task,flow.Sequence,3_0_4_0_0,NA,NA,completion,7511.8689999999,4528309.4,4528297.712,4528327.209,4535839.078,4535846.5,2023-05-27T07:43:53Z,4535855.163,NULL,Gefährdung,kuhatarisha,s,uchokozi,udhaifu,makorowezo,NA,sd,NA,4,NA,NA,NA,NA,NA,NA,NA,NA,NA,NA,NA,NA,NA,NA,NA,NA,NA,NA,NA
9da13,Deep Question,html.Page,3_0_4_0_1_0_0,NA,NA,form submission,7322.7369999764,4535846.7,4535839.078,4535855.163,4543177.9,4543178,2023-05-27T07:44:01Z,4543194.804,NULL,Ausschluss,kutengwa,d,NA,NA,NA,kutegwa,NA,NA,4,NA,NA,NA,NA,NA,NA,NA,NA,NA,NA,NA,NA,NA,NA,NA,NA,NA,NA,NA
9da13,"""Richtig""-Screen",canvas.Screen,3_0_4_0_1_0_1,NA,NA,skipped,NA,4543179.7,NA,NA,4543177.9,4543179.9,2023-05-27T07:44:01Z,4543194.804,NULL,Ausschluss,kutengwa,d,NA,NA,NA,NA,sd,NA,4,NA,NA,NA,NA,NA,NA,NA,NA,NA,NA,NA,NA,NA,NA,NA,NA,NA,NA,NA
9da13,"""Falsch""-Screen",canvas.Screen,3_0_4_0_1_0_2,NA,NA,timeout,4995.8760000002,4543180.5,4543161.278,4543194.804,4548174.23,4548175.4,2023-05-27T07:44:06Z,4548190.68,NULL,Ausschluss,kutengwa,d,NA,NA,NA,NA,sd,0,4,NA,NA,NA,NA,NA,NA,NA,NA,NA,NA,NA,NA,NA,NA,NA,NA,NA,NA,NA
9da13,deep,flow.Sequence,3_0_4_0_1_0,NA,NA,completion,12319.067000001,4535846.6,4535839.078,4535855.163,4548174.23,4548175.8,2023-05-27T07:44:06Z,4548190.68,NULL,Ausschluss,kutengwa,d,NA,NA,NA,NA,sd,NA,4,NA,NA,NA,NA,NA,NA,NA,NA,NA,NA,NA,NA,NA,NA,NA,NA,NA,NA,NA
9da13,shallow,flow.Sequence,3_0_4_0_1_1,NA,NA,skipped,NA,4548176,NA,NA,4548174.23,4548176.1,2023-05-27T07:44:06Z,4548190.68,NULL,Ausschluss,kutengwa,d,NA,NA,NA,NA,sd,NA,4,NA,NA,NA,NA,NA,NA,NA,NA,NA,NA,NA,NA,NA,NA,NA,NA,NA,NA,NA
9da13,task,flow.Sequence,3_0_4_0_1,NA,NA,completion,12319.067000001,4535846.6,4535839.078,4535855.163,4548174.23,4548176.3,2023-05-27T07:44:06Z,4548190.68,NULL,Ausschluss,kutengwa,d,NA,NA,NA,NA,sd,NA,4,NA,NA,NA,NA,NA,NA,NA,NA,NA,NA,NA,NA,NA,NA,NA,NA,NA,NA,NA
9da13,deep,flow.Sequence,3_0_4_0_2_0,NA,NA,skipped,NA,4548176.5,NA,NA,4548174.23,4548176.7,2023-05-27T07:44:06Z,4548190.68,NULL,Kontrolle,kudhibiti,s,mbinguni,kufunga,utegemezi,NA,sd,NA,4,NA,NA,NA,NA,NA,NA,NA,NA,NA,NA,NA,NA,NA,NA,NA,NA,NA,NA,NA
9da13,Shallow Question,html.Page,3_0_4_0_2_1_0,NA,NA,form submission,5756.2199999765,4548176.8,4548174.23,4548190.68,4553946.9,4553947.2,2023-05-27T07:44:12Z,4553961.921,NULL,Kontrolle,kudhibiti,s,mbinguni,kufunga,utegemezi,kudhibiti,NA,NA,4,NA,NA,NA,NA,NA,NA,NA,NA,NA,NA,NA,NA,NA,NA,NA,NA,NA,NA,NA
9da13,"""Richtig""-Screen",canvas.Screen,3_0_4_0_2_1_1,NA,NA,timeout,5007.9819999998,4553949,4553944.849,4553961.921,4558953.759,4558954.9,2023-05-27T07:44:17Z,4558969.903,NULL,Kontrolle,kudhibiti,s,mbinguni,kufunga,utegemezi,NA,sd,1,4,NA,NA,NA,NA,NA,NA,NA,NA,NA,NA,NA,NA,NA,NA,NA,NA,NA,NA,NA
9da13,"""Falsch""-Screen",canvas.Screen,3_0_4_0_2_1_2,NA,NA,skipped,NA,4558960.3,NA,NA,4558953.759,4558960.7,2023-05-27T07:44:17Z,4558969.903,NULL,Kontrolle,kudhibiti,s,mbinguni,kufunga,utegemezi,NA,sd,NA,4,NA,NA,NA,NA,NA,NA,NA,NA,NA,NA,NA,NA,NA,NA,NA,NA,NA,NA,NA
9da13,shallow,flow.Sequence,3_0_4_0_2_1,NA,NA,completion,10763.079,4548176.7,4548174.23,4548190.68,4558953.759,4558961.2,2023-05-27T07:44:17Z,4558969.903,NULL,Kontrolle,kudhibiti,s,mbinguni,kufunga,utegemezi,NA,sd,NA,4,NA,NA,NA,NA,NA,NA,NA,NA,NA,NA,NA,NA,NA,NA,NA,NA,NA,NA,NA
9da13,task,flow.Sequence,3_0_4_0_2,NA,NA,completion,10763.079,4548176.4,4548174.23,4548190.68,4558953.759,4558961.5,2023-05-27T07:44:17Z,4558969.903,NULL,Kontrolle,kudhibiti,s,mbinguni,kufunga,utegemezi,NA,sd,NA,4,NA,NA,NA,NA,NA,NA,NA,NA,NA,NA,NA,NA,NA,NA,NA,NA,NA,NA,NA
9da13,Deep Question,html.Page,3_0_4_0_3_0_0,NA,NA,form submission,10277.097,4558961.7,4558953.759,4558969.903,4569247,4569247.2,2023-05-27T07:44:27Z,4569250.892,NULL,Kreativität,ubunifu,d,NA,NA,NA,wa,NA,NA,4,NA,NA,NA,NA,NA,NA,NA,NA,NA,NA,NA,NA,NA,NA,NA,NA,NA,NA,NA
9da13,"""Richtig""-Screen",canvas.Screen,3_0_4_0_3_0_1,NA,NA,skipped,NA,4569249.8,NA,NA,4569247,4569249.9,2023-05-27T07:44:27Z,4569250.892,NULL,Kreativität,ubunifu,d,NA,NA,NA,NA,sd,NA,4,NA,NA,NA,NA,NA,NA,NA,NA,NA,NA,NA,NA,NA,NA,NA,NA,NA,NA,NA
9da13,"""Falsch""-Screen",canvas.Screen,3_0_4_0_3_0_2,NA,NA,timeout,4996.159,4569250.9,4569234.706,4569250.892,4574230.424,4574231.5,2023-05-27T07:44:32Z,4574247.051,NULL,Kreativität,ubunifu,d,NA,NA,NA,NA,sd,0,4,NA,NA,NA,NA,NA,NA,NA,NA,NA,NA,NA,NA,NA,NA,NA,NA,NA,NA,NA
9da13,deep,flow.Sequence,3_0_4_0_3_0,NA,NA,completion,15260.521,4558961.7,4558953.759,4558969.903,4574230.424,4574231.9,2023-05-27T07:44:32Z,4574247.051,NULL,Kreativität,ubunifu,d,NA,NA,NA,NA,sd,NA,4,NA,NA,NA,NA,NA,NA,NA,NA,NA,NA,NA,NA,NA,NA,NA,NA,NA,NA,NA
9da13,shallow,flow.Sequence,3_0_4_0_3_1,NA,NA,skipped,NA,4574232.1,NA,NA,4574230.424,4574232.3,2023-05-27T07:44:32Z,4574247.051,NULL,Kreativität,ubunifu,d,NA,NA,NA,NA,sd,NA,4,NA,NA,NA,NA,NA,NA,NA,NA,NA,NA,NA,NA,NA,NA,NA,NA,NA,NA,NA
9da13,task,flow.Sequence,3_0_4_0_3,NA,NA,completion,15260.521,4558961.7,4558953.759,4558969.903,4574230.424,4574232.5,2023-05-27T07:44:32Z,4574247.051,NULL,Kreativität,ubunifu,d,NA,NA,NA,NA,sd,NA,4,NA,NA,NA,NA,NA,NA,NA,NA,NA,NA,NA,NA,NA,NA,NA,NA,NA,NA,NA
9da13,deep,flow.Sequence,3_0_4_0_4_0,NA,NA,skipped,NA,4574232.7,NA,NA,4574230.424,4574232.8,2023-05-27T07:44:32Z,4574247.051,NULL,Verstand,ufahamivu,s,shakawa,hadhari,mhandisi,NA,sd,NA,4,NA,NA,NA,NA,NA,NA,NA,NA,NA,NA,NA,NA,NA,NA,NA,NA,NA,NA,NA
9da13,Shallow Question,html.Page,3_0_4_0_4_1_0,NA,NA,form submission,5599.2489999523,4574232.9,4574230.424,4574247.051,4579846.3,4579846.4,2023-05-27T07:44:37Z,4579852.43,NULL,Verstand,ufahamivu,s,shakawa,hadhari,mhandisi,ufahamivu,NA,NA,4,NA,NA,NA,NA,NA,NA,NA,NA,NA,NA,NA,NA,NA,NA,NA,NA,NA,NA,NA
9da13,"""Richtig""-Screen",canvas.Screen,3_0_4_0_4_1_1,NA,NA,timeout,5007.7719999999,4579848.3,4579840.117,4579852.43,4584844.053,4584845.2,2023-05-27T07:44:42Z,4584860.202,NULL,Verstand,ufahamivu,s,shakawa,hadhari,mhandisi,NA,sd,1,4,NA,NA,NA,NA,NA,NA,NA,NA,NA,NA,NA,NA,NA,NA,NA,NA,NA,NA,NA
9da13,"""Falsch""-Screen",canvas.Screen,3_0_4_0_4_1_2,NA,NA,skipped,NA,4584850.7,NA,NA,4584844.053,4584851.2,2023-05-27T07:44:42Z,4584860.202,NULL,Verstand,ufahamivu,s,shakawa,hadhari,mhandisi,NA,sd,NA,4,NA,NA,NA,NA,NA,NA,NA,NA,NA,NA,NA,NA,NA,NA,NA,NA,NA,NA,NA
9da13,shallow,flow.Sequence,3_0_4_0_4_1,NA,NA,completion,10597.002,4574232.9,4574230.424,4574247.051,4584844.053,4584851.7,2023-05-27T07:44:42Z,4584860.202,NULL,Verstand,ufahamivu,s,shakawa,hadhari,mhandisi,NA,sd,NA,4,NA,NA,NA,NA,NA,NA,NA,NA,NA,NA,NA,NA,NA,NA,NA,NA,NA,NA,NA
9da13,task,flow.Sequence,3_0_4_0_4,NA,NA,completion,10597.002,4574232.6,4574230.424,4574247.051,4584844.053,4584852.1,2023-05-27T07:44:42Z,4584860.202,NULL,Verstand,ufahamivu,s,shakawa,hadhari,mhandisi,NA,sd,NA,4,NA,NA,NA,NA,NA,NA,NA,NA,NA,NA,NA,NA,NA,NA,NA,NA,NA,NA,NA
9da13,Deep Question,html.Page,3_0_4_0_5_0_0,NA,NA,form submission,4834.3980000243,4584852.5,4584844.053,4584860.202,4589694.6,4589694.9,2023-05-27T07:44:47Z,4589725.316,NULL,Können,unaweza,d,NA,NA,NA,unaweza,NA,NA,4,NA,NA,NA,NA,NA,NA,NA,NA,NA,NA,NA,NA,NA,NA,NA,NA,NA,NA,NA
9da13,"""Richtig""-Screen",canvas.Screen,3_0_4_0_5_0_1,NA,NA,timeout,5007.6900000004,4589697.7,4589709.162,4589725.316,4594716.78,4594718.3,2023-05-27T07:44:52Z,4594733.006,NULL,Können,unaweza,d,NA,NA,NA,NA,sd,1,4,NA,NA,NA,NA,NA,NA,NA,NA,NA,NA,NA,NA,NA,NA,NA,NA,NA,NA,NA
9da13,"""Falsch""-Screen",canvas.Screen,3_0_4_0_5_0_2,NA,NA,skipped,NA,4594723.6,NA,NA,4594716.78,4594724,2023-05-27T07:44:52Z,4594733.006,NULL,Können,unaweza,d,NA,NA,NA,NA,sd,NA,4,NA,NA,NA,NA,NA,NA,NA,NA,NA,NA,NA,NA,NA,NA,NA,NA,NA,NA,NA
9da13,deep,flow.Sequence,3_0_4_0_5_0,NA,NA,completion,9856.5780000007,4584852.4,4584844.053,4584860.202,4594716.78,4594724.4,2023-05-27T07:44:52Z,4594733.006,NULL,Können,unaweza,d,NA,NA,NA,NA,sd,NA,4,NA,NA,NA,NA,NA,NA,NA,NA,NA,NA,NA,NA,NA,NA,NA,NA,NA,NA,NA
9da13,shallow,flow.Sequence,3_0_4_0_5_1,NA,NA,skipped,NA,4594724.6,NA,NA,4594716.78,4594724.7,2023-05-27T07:44:52Z,4594733.006,NULL,Können,unaweza,d,NA,NA,NA,NA,sd,NA,4,NA,NA,NA,NA,NA,NA,NA,NA,NA,NA,NA,NA,NA,NA,NA,NA,NA,NA,NA
9da13,task,flow.Sequence,3_0_4_0_5,NA,NA,completion,9856.5780000007,4584852.3,4584844.053,4584860.202,4594716.78,4594724.9,2023-05-27T07:44:52Z,4594733.006,NULL,Können,unaweza,d,NA,NA,NA,NA,sd,NA,4,NA,NA,NA,NA,NA,NA,NA,NA,NA,NA,NA,NA,NA,NA,NA,NA,NA,NA,NA
9da13,Deep Question,html.Page,3_0_4_0_6_0_0,NA,NA,form submission,7107.3939999761,4594725.1,4594716.78,4594733.006,4601840.4,4601840.5,2023-05-27T07:44:59Z,4601847.748,NULL,Gelegenheit,wakati,d,NA,NA,NA,wakati,NA,NA,4,NA,NA,NA,NA,NA,NA,NA,NA,NA,NA,NA,NA,NA,NA,NA,NA,NA,NA,NA
9da13,"""Richtig""-Screen",canvas.Screen,3_0_4_0_6_0_1,NA,NA,timeout,5007.5580000002,4601842.3,4601831.203,4601847.748,4606839.196,4606840.3,2023-05-27T07:45:04Z,4606855.306,NULL,Gelegenheit,wakati,d,NA,NA,NA,NA,sd,1,4,NA,NA,NA,NA,NA,NA,NA,NA,NA,NA,NA,NA,NA,NA,NA,NA,NA,NA,NA
9da13,"""Falsch""-Screen",canvas.Screen,3_0_4_0_6_0_2,NA,NA,skipped,NA,4606845.4,NA,NA,4606839.196,4606846,2023-05-27T07:45:04Z,4606855.306,NULL,Gelegenheit,wakati,d,NA,NA,NA,NA,sd,NA,4,NA,NA,NA,NA,NA,NA,NA,NA,NA,NA,NA,NA,NA,NA,NA,NA,NA,NA,NA
9da13,deep,flow.Sequence,3_0_4_0_6_0,NA,NA,completion,12106.19,4594725.1,4594716.78,4594733.006,4606839.196,4606846.5,2023-05-27T07:45:04Z,4606855.306,NULL,Gelegenheit,wakati,d,NA,NA,NA,NA,sd,NA,4,NA,NA,NA,NA,NA,NA,NA,NA,NA,NA,NA,NA,NA,NA,NA,NA,NA,NA,NA
9da13,shallow,flow.Sequence,3_0_4_0_6_1,NA,NA,skipped,NA,4606846.7,NA,NA,4606839.196,4606846.9,2023-05-27T07:45:04Z,4606855.306,NULL,Gelegenheit,wakati,d,NA,NA,NA,NA,sd,NA,4,NA,NA,NA,NA,NA,NA,NA,NA,NA,NA,NA,NA,NA,NA,NA,NA,NA,NA,NA
9da13,task,flow.Sequence,3_0_4_0_6,NA,NA,completion,12106.19,4594725.1,4594716.78,4594733.006,4606839.196,4606847.3,2023-05-27T07:45:04Z,4606855.306,NULL,Gelegenheit,wakati,d,NA,NA,NA,NA,sd,NA,4,NA,NA,NA,NA,NA,NA,NA,NA,NA,NA,NA,NA,NA,NA,NA,NA,NA,NA,NA
9da13,deep,flow.Sequence,3_0_4_0_7_0,NA,NA,skipped,NA,4606847.6,NA,NA,4606839.196,4606847.8,2023-05-27T07:45:04Z,4606855.306,NULL,Widerstand,usulubu,s,kusababisha,mwalimu,mwenendo,NA,sd,NA,4,NA,NA,NA,NA,NA,NA,NA,NA,NA,NA,NA,NA,NA,NA,NA,NA,NA,NA,NA
9da13,Shallow Question,html.Page,3_0_4_0_7_1_0,NA,NA,form submission,5753.0939999763,4606848.1,4606839.196,4606855.306,4612608.4,4612608.6,2023-05-27T07:45:10Z,4612610.528,NULL,Widerstand,usulubu,s,kusababisha,mwalimu,mwenendo,usulubu,NA,NA,4,NA,NA,NA,NA,NA,NA,NA,NA,NA,NA,NA,NA,NA,NA,NA,NA,NA,NA,NA
9da13,"""Richtig""-Screen",canvas.Screen,3_0_4_0_7_1_1,NA,NA,timeout,4991.9529999997,4612611.1,4612598.122,4612610.528,4617585.921,4617586.7,2023-05-27T07:45:15Z,4617602.481,NULL,Widerstand,usulubu,s,kusababisha,mwalimu,mwenendo,NA,sd,1,4,NA,NA,NA,NA,NA,NA,NA,NA,NA,NA,NA,NA,NA,NA,NA,NA,NA,NA,NA
9da13,"""Falsch""-Screen",canvas.Screen,3_0_4_0_7_1_2,NA,NA,skipped,NA,4617588.8,NA,NA,4617585.921,4617589,2023-05-27T07:45:15Z,4617602.481,NULL,Widerstand,usulubu,s,kusababisha,mwalimu,mwenendo,NA,sd,NA,4,NA,NA,NA,NA,NA,NA,NA,NA,NA,NA,NA,NA,NA,NA,NA,NA,NA,NA,NA
9da13,shallow,flow.Sequence,3_0_4_0_7_1,NA,NA,completion,10730.615,4606848,4606839.196,4606855.306,4617585.921,4617589.1,2023-05-27T07:45:15Z,4617602.481,NULL,Widerstand,usulubu,s,kusababisha,mwalimu,mwenendo,NA,sd,NA,4,NA,NA,NA,NA,NA,NA,NA,NA,NA,NA,NA,NA,NA,NA,NA,NA,NA,NA,NA
9da13,task,flow.Sequence,3_0_4_0_7,NA,NA,completion,10730.615,4606847.5,4606839.196,4606855.306,4617585.921,4617589.3,2023-05-27T07:45:15Z,4617602.481,NULL,Widerstand,usulubu,s,kusababisha,mwalimu,mwenendo,NA,sd,NA,4,NA,NA,NA,NA,NA,NA,NA,NA,NA,NA,NA,NA,NA,NA,NA,NA,NA,NA,NA
9da13,block,flow.Loop,3_0_4_0,NA,NA,completion,89258.712,4528309.3,4528297.712,4528327.209,4617585.921,4617589.3,2023-05-27T07:45:15Z,4617602.481,NULL,NA,NA,NA,NA,NA,NA,NA,sd,NA,4,NA,NA,NA,NA,NA,NA,NA,NA,NA,NA,NA,NA,NA,NA,NA,NA,NA,NA,NA
9da13,weiter,canvas.Screen,3_0_4_1,sdf,keypress(Space),response,1009.5190000003,4617589.4,4617585.921,4617602.481,4618612,4618613.2,2023-05-27T07:45:16Z,4619260.131,NULL,NA,NA,NA,NA,NA,NA,NA,sd,NA,4,NA,NA,NA,NA,NA,NA,NA,NA,NA,NA,NA,NA,NA,NA,NA,NA,NA,NA,NA
9da13,check continue,flow.Sequence,3_0_4,NA,NA,completion,90284.791,4528309.3,4528297.712,4528327.209,4618612,4618613.6,2023-05-27T07:45:16Z,4619260.131,NULL,NA,NA,NA,NA,NA,NA,NA,sd,NA,4,NA,NA,NA,NA,NA,NA,NA,NA,NA,NA,NA,NA,NA,NA,NA,NA,NA,NA,NA
9da13,check continue,flow.Sequence,3_0_5,NA,NA,skipped,NA,4618711.4,NA,NA,4618612,4618711.9,2023-05-27T07:45:16Z,4619260.131,NULL,NA,NA,NA,NA,NA,NA,NA,sdf,NA,5,NA,NA,NA,NA,NA,NA,NA,NA,NA,NA,NA,NA,NA,NA,NA,NA,NA,NA,NA
9da13,check continue,flow.Sequence,3_0_6,NA,NA,skipped,NA,4618760.7,NA,NA,4618612,4618760.8,2023-05-27T07:45:16Z,4619260.131,NULL,NA,NA,NA,NA,NA,NA,NA,dfs,NA,6,NA,NA,NA,NA,NA,NA,NA,NA,NA,NA,NA,NA,NA,NA,NA,NA,NA,NA,NA
9da13,check continue,flow.Sequence,3_0_7,NA,NA,skipped,NA,4618785.8,NA,NA,4618612,4618785.9,2023-05-27T07:45:16Z,4619260.131,NULL,NA,NA,NA,NA,NA,NA,NA,df,NA,7,NA,NA,NA,NA,NA,NA,NA,NA,NA,NA,NA,NA,NA,NA,NA,NA,NA,NA,NA
9da13,check continue,flow.Sequence,3_0_8,NA,NA,skipped,NA,4618815.9,NA,NA,4618612,4618816,2023-05-27T07:45:16Z,4619260.131,NULL,NA,NA,NA,NA,NA,NA,NA,dfs,NA,8,NA,NA,NA,NA,NA,NA,NA,NA,NA,NA,NA,NA,NA,NA,NA,NA,NA,NA,NA
9da13,check continue,flow.Sequence,3_0_9,NA,NA,skipped,NA,4618833.3,NA,NA,4618612,4618833.4,2023-05-27T07:45:16Z,4619260.131,NULL,NA,NA,NA,NA,NA,NA,NA,dsf,NA,9,NA,NA,NA,NA,NA,NA,NA,NA,NA,NA,NA,NA,NA,NA,NA,NA,NA,NA,NA
9da13,check continue,flow.Sequence,3_0_10,NA,NA,skipped,NA,4618849.5,NA,NA,4618612,4618849.6,2023-05-27T07:45:16Z,4619260.131,NULL,NA,NA,NA,NA,NA,NA,NA,df,NA,10,NA,NA,NA,NA,NA,NA,NA,NA,NA,NA,NA,NA,NA,NA,NA,NA,NA,NA,NA
9da13,check continue,flow.Sequence,3_0_11,NA,NA,skipped,NA,4618868.4,NA,NA,4618612,4618868.5,2023-05-27T07:45:16Z,4619260.131,NULL,NA,NA,NA,NA,NA,NA,NA,dfs,NA,11,NA,NA,NA,NA,NA,NA,NA,NA,NA,NA,NA,NA,NA,NA,NA,NA,NA,NA,NA
9da13,check continue,flow.Sequence,3_0_12,NA,NA,skipped,NA,4618889.9,NA,NA,4618612,4618890.1,2023-05-27T07:45:16Z,4619260.131,NULL,NA,NA,NA,NA,NA,NA,NA,dsf,NA,12,NA,NA,NA,NA,NA,NA,NA,NA,NA,NA,NA,NA,NA,NA,NA,NA,NA,NA,NA
9da13,check continue,flow.Sequence,3_0_13,NA,NA,skipped,NA,4618912.9,NA,NA,4618612,4618913,2023-05-27T07:45:16Z,4619260.131,NULL,NA,NA,NA,NA,NA,NA,NA,dsf,NA,13,NA,NA,NA,NA,NA,NA,NA,NA,NA,NA,NA,NA,NA,NA,NA,NA,NA,NA,NA
9da13,check continue,flow.Sequence,3_0_14,NA,NA,skipped,NA,4618939.7,NA,NA,4618612,4618939.8,2023-05-27T07:45:17Z,4619260.131,NULL,NA,NA,NA,NA,NA,NA,NA,NA,NA,14,NA,NA,NA,NA,NA,NA,NA,NA,NA,NA,NA,NA,NA,NA,NA,NA,NA,NA,NA
9da13,check continue,flow.Sequence,3_0_15,NA,NA,skipped,NA,4618964.8,NA,NA,4618612,4618965,2023-05-27T07:45:17Z,4619260.131,NULL,NA,NA,NA,NA,NA,NA,NA,NA,NA,15,NA,NA,NA,NA,NA,NA,NA,NA,NA,NA,NA,NA,NA,NA,NA,NA,NA,NA,NA
9da13,check continue,flow.Sequence,3_0_16,NA,NA,skipped,NA,4618984.1,NA,NA,4618612,4618984.2,2023-05-27T07:45:17Z,4619260.131,NULL,NA,NA,NA,NA,NA,NA,NA,NA,NA,16,NA,NA,NA,NA,NA,NA,NA,NA,NA,NA,NA,NA,NA,NA,NA,NA,NA,NA,NA
9da13,check continue,flow.Sequence,3_0_17,NA,NA,skipped,NA,4618999.7,NA,NA,4618612,4618999.8,2023-05-27T07:45:17Z,4619260.131,NULL,NA,NA,NA,NA,NA,NA,NA,NA,NA,17,NA,NA,NA,NA,NA,NA,NA,NA,NA,NA,NA,NA,NA,NA,NA,NA,NA,NA,NA
9da13,check continue,flow.Sequence,3_0_18,NA,NA,skipped,NA,4619015.2,NA,NA,4618612,4619015.2,2023-05-27T07:45:17Z,4619260.131,NULL,NA,NA,NA,NA,NA,NA,NA,NA,NA,18,NA,NA,NA,NA,NA,NA,NA,NA,NA,NA,NA,NA,NA,NA,NA,NA,NA,NA,NA
9da13,check continue,flow.Sequence,3_0_19,NA,NA,skipped,NA,4619031.5,NA,NA,4618612,4619031.6,2023-05-27T07:45:17Z,4619260.131,NULL,NA,NA,NA,NA,NA,NA,NA,NA,NA,19,NA,NA,NA,NA,NA,NA,NA,NA,NA,NA,NA,NA,NA,NA,NA,NA,NA,NA,NA
9da13,check continue,flow.Sequence,3_0_20,NA,NA,skipped,NA,4619049.7,NA,NA,4618612,4619049.8,2023-05-27T07:45:17Z,4619260.131,NULL,NA,NA,NA,NA,NA,NA,NA,NA,NA,20,NA,NA,NA,NA,NA,NA,NA,NA,NA,NA,NA,NA,NA,NA,NA,NA,NA,NA,NA
9da13,check continue,flow.Sequence,3_0_21,NA,NA,skipped,NA,4619069.3,NA,NA,4618612,4619069.5,2023-05-27T07:45:17Z,4619260.131,NULL,NA,NA,NA,NA,NA,NA,NA,NA,NA,21,NA,NA,NA,NA,NA,NA,NA,NA,NA,NA,NA,NA,NA,NA,NA,NA,NA,NA,NA
9da13,check continue,flow.Sequence,3_0_22,NA,NA,skipped,NA,4619088.6,NA,NA,4618612,4619088.7,2023-05-27T07:45:17Z,4619260.131,NULL,NA,NA,NA,NA,NA,NA,NA,NA,NA,22,NA,NA,NA,NA,NA,NA,NA,NA,NA,NA,NA,NA,NA,NA,NA,NA,NA,NA,NA
9da13,check continue,flow.Sequence,3_0_23,NA,NA,skipped,NA,4619108.1,NA,NA,4618612,4619108.3,2023-05-27T07:45:17Z,4619260.131,NULL,NA,NA,NA,NA,NA,NA,NA,NA,NA,23,NA,NA,NA,NA,NA,NA,NA,NA,NA,NA,NA,NA,NA,NA,NA,NA,NA,NA,NA
9da13,check continue,flow.Sequence,3_0_24,NA,NA,skipped,NA,4619127.5,NA,NA,4618612,4619127.6,2023-05-27T07:45:17Z,4619260.131,NULL,NA,NA,NA,NA,NA,NA,NA,NA,NA,24,NA,NA,NA,NA,NA,NA,NA,NA,NA,NA,NA,NA,NA,NA,NA,NA,NA,NA,NA
9da13,check continue,flow.Sequence,3_0_25,NA,NA,skipped,NA,4619148.4,NA,NA,4618612,4619148.6,2023-05-27T07:45:17Z,4619260.131,NULL,NA,NA,NA,NA,NA,NA,NA,NA,NA,25,NA,NA,NA,NA,NA,NA,NA,NA,NA,NA,NA,NA,NA,NA,NA,NA,NA,NA,NA
9da13,check continue,flow.Sequence,3_0_26,NA,NA,skipped,NA,4619173.1,NA,NA,4618612,4619173.2,2023-05-27T07:45:17Z,4619260.131,NULL,NA,NA,NA,NA,NA,NA,NA,NA,NA,26,NA,NA,NA,NA,NA,NA,NA,NA,NA,NA,NA,NA,NA,NA,NA,NA,NA,NA,NA
9da13,check continue,flow.Sequence,3_0_27,NA,NA,skipped,NA,4619199.8,NA,NA,4618612,4619199.9,2023-05-27T07:45:17Z,4619260.131,NULL,NA,NA,NA,NA,NA,NA,NA,NA,NA,27,NA,NA,NA,NA,NA,NA,NA,NA,NA,NA,NA,NA,NA,NA,NA,NA,NA,NA,NA
9da13,check continue,flow.Sequence,3_0_28,NA,NA,skipped,NA,4619216.3,NA,NA,4618612,4619216.4,2023-05-27T07:45:17Z,4619260.131,NULL,NA,NA,NA,NA,NA,NA,NA,NA,NA,28,NA,NA,NA,NA,NA,NA,NA,NA,NA,NA,NA,NA,NA,NA,NA,NA,NA,NA,NA
9da13,check continue,flow.Sequence,3_0_29,NA,NA,skipped,NA,4619250.8,NA,NA,4618612,4619250.9,2023-05-27T07:45:17Z,4619260.131,NULL,NA,NA,NA,NA,NA,NA,NA,NA,NA,29,NA,NA,NA,NA,NA,NA,NA,NA,NA,NA,NA,NA,NA,NA,NA,NA,NA,NA,NA
9da13,until continue,flow.Loop,3_0,NA,NA,completion,437209.375,4181371.1,4181396.405,4181402.625,4618612,4619251,2023-05-27T07:45:17Z,4619260.131,NULL,NA,NA,NA,NA,NA,NA,NA,NA,NA,NA,NA,NA,NA,NA,NA,NA,NA,NA,NA,NA,NA,NA,NA,NA,NA,NA,NA,NA,NA
9da13,block 1,flow.Sequence,3,NA,NA,completion,437209.375,4181371,4181396.405,4181402.625,4618612,4619251,2023-05-27T07:45:17Z,4619260.131,NULL,NA,NA,NA,NA,NA,NA,NA,NA,NA,NA,NA,NA,NA,NA,NA,NA,NA,NA,NA,NA,NA,NA,NA,NA,NA,NA,NA,NA,NA
9da13,1.Part Over,canvas.Screen,4,NA,keypress(Space),response,1792.4690000238,4619251.1,4619251.018,4619260.131,4621052.6,4621053.8,2023-05-27T07:45:19Z,4621251.768,NULL,NA,NA,NA,NA,NA,NA,NA,NA,NA,NA,NA,NA,NA,NA,NA,NA,NA,NA,NA,NA,NA,NA,NA,NA,NA,NA,NA,NA,NA
9da13,deep,flow.Sequence,5_0_0_0_0_0,NA,NA,skipped,NA,4621242.2,NA,NA,4621052.6,4621242.4,2023-05-27T07:45:19Z,4621251.768,NULL,Symbol,kielezo,s,kinyume,nderemo,utayari,NA,sdf,NA,0,NA,NA,NA,NA,NA,NA,NA,NA,NA,NA,NA,NA,NA,NA,NA,NA,NA,NA,NA
9da13,Shallow Question,html.Page,5_0_0_0_0_1_0,NA,NA,form submission,4027.3320000237,4621242.6,4621242.289,4621251.768,4625279.1,4625279.1,2023-05-27T07:45:23Z,4625284.192,NULL,Symbol,kielezo,s,kinyume,nderemo,utayari,utayari,NA,NA,0,NA,NA,NA,NA,NA,NA,NA,NA,NA,NA,NA,NA,NA,NA,NA,NA,NA,NA,NA
9da13,"""Richtig""-Screen",canvas.Screen,5_0_0_0_0_1_1,NA,NA,skipped,NA,4625280.9,NA,NA,4625279.1,4625281,2023-05-27T07:45:23Z,4625284.192,NULL,Symbol,kielezo,s,kinyume,nderemo,utayari,NA,sdf,NA,0,NA,NA,NA,NA,NA,NA,NA,NA,NA,NA,NA,NA,NA,NA,NA,NA,NA,NA,NA
9da13,"""Falsch""-Screen",canvas.Screen,5_0_0_0_0_1_2,NA,NA,timeout,4991.6340000005,4625281.5,4625263.321,4625284.192,4630259.476,4630260.6,2023-05-27T07:45:28Z,4630275.826,NULL,Symbol,kielezo,s,kinyume,nderemo,utayari,NA,sdf,0,0,NA,NA,NA,NA,NA,NA,NA,NA,NA,NA,NA,NA,NA,NA,NA,NA,NA,NA,NA
9da13,shallow,flow.Sequence,5_0_0_0_0_1,NA,NA,completion,9007.7079999996,4621242.6,4621242.289,4621251.768,4630259.476,4630260.8,2023-05-27T07:45:28Z,4630275.826,NULL,Symbol,kielezo,s,kinyume,nderemo,utayari,NA,sdf,NA,0,NA,NA,NA,NA,NA,NA,NA,NA,NA,NA,NA,NA,NA,NA,NA,NA,NA,NA,NA
9da13,task,flow.Sequence,5_0_0_0_0,NA,NA,completion,9007.7079999996,4621242.2,4621242.289,4621251.768,4630259.476,4630261.1,2023-05-27T07:45:28Z,4630275.826,NULL,Symbol,kielezo,s,kinyume,nderemo,utayari,NA,sdf,NA,0,NA,NA,NA,NA,NA,NA,NA,NA,NA,NA,NA,NA,NA,NA,NA,NA,NA,NA,NA
9da13,deep,flow.Sequence,5_0_0_0_1_0,NA,NA,skipped,NA,4630261.3,NA,NA,4630259.476,4630261.4,2023-05-27T07:45:28Z,4630275.826,NULL,Zuwachs,nyongeza,s,matilaba,udhibiti,hudhurio,NA,sdf,NA,0,NA,NA,NA,NA,NA,NA,NA,NA,NA,NA,NA,NA,NA,NA,NA,NA,NA,NA,NA
9da13,Shallow Question,html.Page,5_0_0_0_1_1_0,NA,NA,form submission,3662.1739999996,4630261.5,4630259.476,4630275.826,4633938,4633938.1,2023-05-27T07:45:32Z,4633940.989,NULL,Zuwachs,nyongeza,s,matilaba,udhibiti,hudhurio,hudhurio,NA,NA,0,NA,NA,NA,NA,NA,NA,NA,NA,NA,NA,NA,NA,NA,NA,NA,NA,NA,NA,NA
9da13,"""Richtig""-Screen",canvas.Screen,5_0_0_0_1_1_1,NA,NA,skipped,NA,4633939.9,NA,NA,4633938,4633940.1,2023-05-27T07:45:32Z,4633940.989,NULL,Zuwachs,nyongeza,s,matilaba,udhibiti,hudhurio,NA,sdf,NA,0,NA,NA,NA,NA,NA,NA,NA,NA,NA,NA,NA,NA,NA,NA,NA,NA,NA,NA,NA
9da13,"""Falsch""-Screen",canvas.Screen,5_0_0_0_1_1_2,NA,NA,timeout,4991.949,4633940.5,4633931.698,4633940.989,4638916.226,4638917.3,2023-05-27T07:45:37Z,4638932.938,NULL,Zuwachs,nyongeza,s,matilaba,udhibiti,hudhurio,NA,sdf,0,0,NA,NA,NA,NA,NA,NA,NA,NA,NA,NA,NA,NA,NA,NA,NA,NA,NA,NA,NA
9da13,shallow,flow.Sequence,5_0_0_0_1_1,NA,NA,completion,8640.3999999994,4630261.5,4630259.476,4630275.826,4638916.226,4638917.8,2023-05-27T07:45:37Z,4638932.938,NULL,Zuwachs,nyongeza,s,matilaba,udhibiti,hudhurio,NA,sdf,NA,0,NA,NA,NA,NA,NA,NA,NA,NA,NA,NA,NA,NA,NA,NA,NA,NA,NA,NA,NA
9da13,task,flow.Sequence,5_0_0_0_1,NA,NA,completion,8640.3999999994,4630261.2,4630259.476,4630275.826,4638916.226,4638918.2,2023-05-27T07:45:37Z,4638932.938,NULL,Zuwachs,nyongeza,s,matilaba,udhibiti,hudhurio,NA,sdf,NA,0,NA,NA,NA,NA,NA,NA,NA,NA,NA,NA,NA,NA,NA,NA,NA,NA,NA,NA,NA
9da13,Deep Question,html.Page,5_0_0_0_2_0_0,NA,NA,form submission,3137.8619999522,4638918.4,4638916.226,4638932.938,4642070.8,4642071.1,2023-05-27T07:45:40Z,4642085.787,NULL,System,maongozi,d,NA,NA,NA,k,NA,NA,0,NA,NA,NA,NA,NA,NA,NA,NA,NA,NA,NA,NA,NA,NA,NA,NA,NA,NA,NA
9da13,"""Richtig""-Screen",canvas.Screen,5_0_0_0_2_0_1,NA,NA,skipped,NA,4642073.1,NA,NA,4642070.8,4642073.2,2023-05-27T07:45:40Z,4642085.787,NULL,System,maongozi,d,NA,NA,NA,NA,sdf,NA,0,NA,NA,NA,NA,NA,NA,NA,NA,NA,NA,NA,NA,NA,NA,NA,NA,NA,NA,NA
9da13,"""Falsch""-Screen",canvas.Screen,5_0_0_0_2_0_2,NA,NA,timeout,4991.3430000003,4642073.9,4642068.73,4642085.787,4647061.068,4647062.2,2023-05-27T07:45:45Z,4647077.13,NULL,System,maongozi,d,NA,NA,NA,NA,sdf,0,0,NA,NA,NA,NA,NA,NA,NA,NA,NA,NA,NA,NA,NA,NA,NA,NA,NA,NA,NA
9da13,deep,flow.Sequence,5_0_0_0_2_0,NA,NA,completion,8128.1299999999,4638918.4,4638916.226,4638932.938,4647061.068,4647062.7,2023-05-27T07:45:45Z,4647077.13,NULL,System,maongozi,d,NA,NA,NA,NA,sdf,NA,0,NA,NA,NA,NA,NA,NA,NA,NA,NA,NA,NA,NA,NA,NA,NA,NA,NA,NA,NA
9da13,shallow,flow.Sequence,5_0_0_0_2_1,NA,NA,skipped,NA,4647062.8,NA,NA,4647061.068,4647062.9,2023-05-27T07:45:45Z,4647077.13,NULL,System,maongozi,d,NA,NA,NA,NA,sdf,NA,0,NA,NA,NA,NA,NA,NA,NA,NA,NA,NA,NA,NA,NA,NA,NA,NA,NA,NA,NA
9da13,task,flow.Sequence,5_0_0_0_2,NA,NA,completion,8128.1299999999,4638918.3,4638916.226,4638932.938,4647061.068,4647063.2,2023-05-27T07:45:45Z,4647077.13,NULL,System,maongozi,d,NA,NA,NA,NA,sdf,NA,0,NA,NA,NA,NA,NA,NA,NA,NA,NA,NA,NA,NA,NA,NA,NA,NA,NA,NA,NA
9da13,deep,flow.Sequence,5_0_0_0_3_0,NA,NA,skipped,NA,4647063.4,NA,NA,4647061.068,4647063.5,2023-05-27T07:45:45Z,4647077.13,NULL,Körper,kiwiliwili,s,mapambano,mpatanishi,kiolezo,NA,sdf,NA,0,NA,NA,NA,NA,NA,NA,NA,NA,NA,NA,NA,NA,NA,NA,NA,NA,NA,NA,NA
9da13,Shallow Question,html.Page,5_0_0_0_3_1_0,NA,NA,form submission,4141.6699999524,4647063.7,4647061.068,4647077.13,4651218.8,4651219,2023-05-27T07:45:49Z,4651229.699,NULL,Körper,kiwiliwili,s,mapambano,mpatanishi,kiolezo,kiolezo,NA,NA,0,NA,NA,NA,NA,NA,NA,NA,NA,NA,NA,NA,NA,NA,NA,NA,NA,NA,NA,NA
9da13,"""Richtig""-Screen",canvas.Screen,5_0_0_0_3_1_1,NA,NA,skipped,NA,4651220.9,NA,NA,4651218.8,4651221.1,2023-05-27T07:45:49Z,4651229.699,NULL,Körper,kiwiliwili,s,mapambano,mpatanishi,kiolezo,NA,sdf,NA,0,NA,NA,NA,NA,NA,NA,NA,NA,NA,NA,NA,NA,NA,NA,NA,NA,NA,NA,NA
9da13,"""Falsch""-Screen",canvas.Screen,5_0_0_0_3_1_2,NA,NA,timeout,4995.5470000003,4651221.6,4651212.391,4651229.699,4656208.573,4656209.4,2023-05-27T07:45:54Z,4656225.246,NULL,Körper,kiwiliwili,s,mapambano,mpatanishi,kiolezo,NA,sdf,0,0,NA,NA,NA,NA,NA,NA,NA,NA,NA,NA,NA,NA,NA,NA,NA,NA,NA,NA,NA
9da13,shallow,flow.Sequence,5_0_0_0_3_1,NA,NA,completion,9131.443,4647063.6,4647061.068,4647077.13,4656208.573,4656209.8,2023-05-27T07:45:54Z,4656225.246,NULL,Körper,kiwiliwili,s,mapambano,mpatanishi,kiolezo,NA,sdf,NA,0,NA,NA,NA,NA,NA,NA,NA,NA,NA,NA,NA,NA,NA,NA,NA,NA,NA,NA,NA
9da13,task,flow.Sequence,5_0_0_0_3,NA,NA,completion,9131.443,4647063.3,4647061.068,4647077.13,4656208.573,4656210.1,2023-05-27T07:45:54Z,4656225.246,NULL,Körper,kiwiliwili,s,mapambano,mpatanishi,kiolezo,NA,sdf,NA,0,NA,NA,NA,NA,NA,NA,NA,NA,NA,NA,NA,NA,NA,NA,NA,NA,NA,NA,NA
9da13,deep,flow.Sequence,5_0_0_0_4_0,NA,NA,skipped,NA,4656210.3,NA,NA,4656208.573,4656210.4,2023-05-27T07:45:54Z,4656225.246,NULL,Übersicht,kilindo,s,mgusano,chipukizi,kulinganisha,NA,sdf,NA,0,NA,NA,NA,NA,NA,NA,NA,NA,NA,NA,NA,NA,NA,NA,NA,NA,NA,NA,NA
9da13,Shallow Question,html.Page,5_0_0_0_4_1_0,NA,NA,form submission,3727.6539999759,4656210.5,4656208.573,4656225.246,4659952.9,4659953.1,2023-05-27T07:45:58Z,4659969.69,NULL,Übersicht,kilindo,s,mgusano,chipukizi,kulinganisha,kilindo,NA,NA,0,NA,NA,NA,NA,NA,NA,NA,NA,NA,NA,NA,NA,NA,NA,NA,NA,NA,NA,NA
9da13,"""Richtig""-Screen",canvas.Screen,5_0_0_0_4_1_1,NA,NA,timeout,4999.6159999995,4659954.8,4659948.916,4659969.69,4664953.151,4664954.3,2023-05-27T07:46:03Z,4664969.306,NULL,Übersicht,kilindo,s,mgusano,chipukizi,kulinganisha,NA,sdf,1,0,NA,NA,NA,NA,NA,NA,NA,NA,NA,NA,NA,NA,NA,NA,NA,NA,NA,NA,NA
9da13,"""Falsch""-Screen",canvas.Screen,5_0_0_0_4_1_2,NA,NA,skipped,NA,4664959.3,NA,NA,4664953.151,4664959.6,2023-05-27T07:46:03Z,4664969.306,NULL,Übersicht,kilindo,s,mgusano,chipukizi,kulinganisha,NA,sdf,NA,0,NA,NA,NA,NA,NA,NA,NA,NA,NA,NA,NA,NA,NA,NA,NA,NA,NA,NA,NA
9da13,shallow,flow.Sequence,5_0_0_0_4_1,NA,NA,completion,8727.9049999993,4656210.4,4656208.573,4656225.246,4664953.151,4664960,2023-05-27T07:46:03Z,4664969.306,NULL,Übersicht,kilindo,s,mgusano,chipukizi,kulinganisha,NA,sdf,NA,0,NA,NA,NA,NA,NA,NA,NA,NA,NA,NA,NA,NA,NA,NA,NA,NA,NA,NA,NA
9da13,task,flow.Sequence,5_0_0_0_4,NA,NA,completion,8727.9049999993,4656210.2,4656208.573,4656225.246,4664953.151,4664960.4,2023-05-27T07:46:03Z,4664969.306,NULL,Übersicht,kilindo,s,mgusano,chipukizi,kulinganisha,NA,sdf,NA,0,NA,NA,NA,NA,NA,NA,NA,NA,NA,NA,NA,NA,NA,NA,NA,NA,NA,NA,NA
9da13,Deep Question,html.Page,5_0_0_0_5_0_0,NA,NA,form submission,2310.1940000001,4664960.6,4664953.151,4664969.306,4667279.5,4667279.6,2023-05-27T07:46:05Z,4667289.263,NULL,Lawine,banguko,d,NA,NA,NA,k,NA,NA,0,NA,NA,NA,NA,NA,NA,NA,NA,NA,NA,NA,NA,NA,NA,NA,NA,NA,NA,NA
9da13,"""Richtig""-Screen",canvas.Screen,5_0_0_0_5_0_1,NA,NA,skipped,NA,4667280.7,NA,NA,4667279.5,4667280.8,2023-05-27T07:46:05Z,4667289.263,NULL,Lawine,banguko,d,NA,NA,NA,NA,sdf,NA,0,NA,NA,NA,NA,NA,NA,NA,NA,NA,NA,NA,NA,NA,NA,NA,NA,NA,NA,NA
9da13,"""Falsch""-Screen",canvas.Screen,5_0_0_0_5_0_2,NA,NA,timeout,4991.807,4667281.8,4667263.989,4667289.263,4672264.537,4672265.7,2023-05-27T07:46:10Z,4672281.07,NULL,Lawine,banguko,d,NA,NA,NA,NA,sdf,0,0,NA,NA,NA,NA,NA,NA,NA,NA,NA,NA,NA,NA,NA,NA,NA,NA,NA,NA,NA
9da13,deep,flow.Sequence,5_0_0_0_5_0,NA,NA,completion,7295.2309999997,4664960.5,4664953.151,4664969.306,4672264.537,4672266.2,2023-05-27T07:46:10Z,4672281.07,NULL,Lawine,banguko,d,NA,NA,NA,NA,sdf,NA,0,NA,NA,NA,NA,NA,NA,NA,NA,NA,NA,NA,NA,NA,NA,NA,NA,NA,NA,NA
9da13,shallow,flow.Sequence,5_0_0_0_5_1,NA,NA,skipped,NA,4672266.3,NA,NA,4672264.537,4672266.5,2023-05-27T07:46:10Z,4672281.07,NULL,Lawine,banguko,d,NA,NA,NA,NA,sdf,NA,0,NA,NA,NA,NA,NA,NA,NA,NA,NA,NA,NA,NA,NA,NA,NA,NA,NA,NA,NA
9da13,task,flow.Sequence,5_0_0_0_5,NA,NA,completion,7295.2309999997,4664960.4,4664953.151,4664969.306,4672264.537,4672266.8,2023-05-27T07:46:10Z,4672281.07,NULL,Lawine,banguko,d,NA,NA,NA,NA,sdf,NA,0,NA,NA,NA,NA,NA,NA,NA,NA,NA,NA,NA,NA,NA,NA,NA,NA,NA,NA,NA
9da13,Deep Question,html.Page,5_0_0_0_6_0_0,NA,NA,form submission,2318.229999952,4672267,4672264.537,4672281.07,4674599.3,4674599.4,2023-05-27T07:46:12Z,4674617.464,NULL,Konkurrent,mshindani,d,NA,NA,NA,k,NA,NA,0,NA,NA,NA,NA,NA,NA,NA,NA,NA,NA,NA,NA,NA,NA,NA,NA,NA,NA,NA
9da13,"""Richtig""-Screen",canvas.Screen,5_0_0_0_6_0_1,NA,NA,skipped,NA,4674601.4,NA,NA,4674599.3,4674601.5,2023-05-27T07:46:12Z,4674617.464,NULL,Konkurrent,mshindani,d,NA,NA,NA,NA,sdf,NA,0,NA,NA,NA,NA,NA,NA,NA,NA,NA,NA,NA,NA,NA,NA,NA,NA,NA,NA,NA
9da13,"""Falsch""-Screen",canvas.Screen,5_0_0_0_6_0_2,NA,NA,timeout,4991.9500000002,4674602,4674593.031,4674617.464,4679592.669,4679593.8,2023-05-27T07:46:17Z,4679609.414,NULL,Konkurrent,mshindani,d,NA,NA,NA,NA,sdf,0,0,NA,NA,NA,NA,NA,NA,NA,NA,NA,NA,NA,NA,NA,NA,NA,NA,NA,NA,NA
9da13,deep,flow.Sequence,5_0_0_0_6_0,NA,NA,completion,7311.5989999995,4672266.9,4672264.537,4672281.07,4679592.669,4679594.2,2023-05-27T07:46:17Z,4679609.414,NULL,Konkurrent,mshindani,d,NA,NA,NA,NA,sdf,NA,0,NA,NA,NA,NA,NA,NA,NA,NA,NA,NA,NA,NA,NA,NA,NA,NA,NA,NA,NA
9da13,shallow,flow.Sequence,5_0_0_0_6_1,NA,NA,skipped,NA,4679594.4,NA,NA,4679592.669,4679594.5,2023-05-27T07:46:17Z,4679609.414,NULL,Konkurrent,mshindani,d,NA,NA,NA,NA,sdf,NA,0,NA,NA,NA,NA,NA,NA,NA,NA,NA,NA,NA,NA,NA,NA,NA,NA,NA,NA,NA
9da13,task,flow.Sequence,5_0_0_0_6,NA,NA,completion,7311.5989999995,4672266.9,4672264.537,4672281.07,4679592.669,4679594.8,2023-05-27T07:46:17Z,4679609.414,NULL,Konkurrent,mshindani,d,NA,NA,NA,NA,sdf,NA,0,NA,NA,NA,NA,NA,NA,NA,NA,NA,NA,NA,NA,NA,NA,NA,NA,NA,NA,NA
9da13,Deep Question,html.Page,5_0_0_0_7_0_0,NA,NA,form submission,3095.7860000478,4679595,4679592.669,4679609.414,4682705.2,4682705.4,2023-05-27T07:46:20Z,4682716.83,NULL,Vorsorge,tahadhari,d,NA,NA,NA,k,NA,NA,0,NA,NA,NA,NA,NA,NA,NA,NA,NA,NA,NA,NA,NA,NA,NA,NA,NA,NA,NA
9da13,"""Richtig""-Screen",canvas.Screen,5_0_0_0_7_0_1,NA,NA,skipped,NA,4682707.3,NA,NA,4682705.2,4682707.5,2023-05-27T07:46:20Z,4682716.83,NULL,Vorsorge,tahadhari,d,NA,NA,NA,NA,sdf,NA,0,NA,NA,NA,NA,NA,NA,NA,NA,NA,NA,NA,NA,NA,NA,NA,NA,NA,NA,NA
9da13,"""Falsch""-Screen",canvas.Screen,5_0_0_0_7_0_2,NA,NA,timeout,4991.608,4682708,4682691.907,4682716.83,4687692.017,4687693.3,2023-05-27T07:46:25Z,4687708.438,NULL,Vorsorge,tahadhari,d,NA,NA,NA,NA,sdf,0,0,NA,NA,NA,NA,NA,NA,NA,NA,NA,NA,NA,NA,NA,NA,NA,NA,NA,NA,NA
9da13,deep,flow.Sequence,5_0_0_0_7_0,NA,NA,completion,8082.6030000001,4679594.9,4679592.669,4679609.414,4687692.017,4687693.8,2023-05-27T07:46:25Z,4687708.438,NULL,Vorsorge,tahadhari,d,NA,NA,NA,NA,sdf,NA,0,NA,NA,NA,NA,NA,NA,NA,NA,NA,NA,NA,NA,NA,NA,NA,NA,NA,NA,NA
9da13,shallow,flow.Sequence,5_0_0_0_7_1,NA,NA,skipped,NA,4687693.8,NA,NA,4687692.017,4687694.1,2023-05-27T07:46:25Z,4687708.438,NULL,Vorsorge,tahadhari,d,NA,NA,NA,NA,sdf,NA,0,NA,NA,NA,NA,NA,NA,NA,NA,NA,NA,NA,NA,NA,NA,NA,NA,NA,NA,NA
9da13,task,flow.Sequence,5_0_0_0_7,NA,NA,completion,8082.6030000001,4679594.9,4679592.669,4679609.414,4687692.017,4687694.3,2023-05-27T07:46:25Z,4687708.438,NULL,Vorsorge,tahadhari,d,NA,NA,NA,NA,sdf,NA,0,NA,NA,NA,NA,NA,NA,NA,NA,NA,NA,NA,NA,NA,NA,NA,NA,NA,NA,NA
