observation,sender,sender_type,sender_id,response,response_action,ended_on,duration,time_run,time_render,time_show,time_end,time_commit,timestamp,time_switch,german,swahili,enc,distractor1,distractor2,distractor3,response_2,x,correct,distractors,url_vp,url_sess,meta_labjs_version,meta_location,meta_user_agent,meta_platform,meta_language,meta_locale,meta_time_zone,meta_timezone_offset,meta_screen_width,meta_screen_height,meta_scroll_width,meta_scroll_height,meta_window_inner_width,meta_window_inner_height,meta_device_pixel_ratio,meta_labjs_build_flavor,meta_labjs_build_commit
bb14a,Introduction delayed retrieval,canvas.Screen,0,weiter,keypress(Space),response,20472.312,1256.0999999046,1260.964,1360.688,21833,21833.799999714,2023-11-07T10:40:40Z,21843.867,NA,NA,NA,NA,NA,NA,NA,NA,NA,NULL,191,2,20.2.4,https://neurocog.fernuni.ch/studies/vweber/sliechti/delayed/index.html?vp=191&sess=2,"Mozilla/5.0 (Windows NT 10.0; Win64; x64) AppleWebKit/537.36 (KHTML, like Gecko) Chrome/117.0.0.0 Safari/537.36 Edg/117.0.2045.60",Win32,de,de-CH,Europe/Zurich,-60,1280,720,1232,564,1232,564,1.5,production,f5b4a49f956347addd546a832a3327688c2c0fef
bb14a,Deep Question,html.Page,1_0_0_0,NA,NA,form submission,88567.633,21834,21828.132,21843.867,110411.5,110412.79999971,2023-11-07T10:42:09Z,110421.096,Toleranz,kuvumiliana,d,maombolezo,ujasusi,mchekeshaji,kuvomailika,NA,NA,NULL,NA,NA,NA,NA,NA,NA,NA,NA,NA,NA,NA,NA,NA,NA,NA,NA,NA,NA,NA
bb14a,Save data screen,canvas.Screen,1_0_0_1,NA,NA,timeout,499.605,110415.19999981,110387.867,110421.096,110904.039,110905.79999971,2023-11-07T10:42:09Z,110920.701,Toleranz,kuvumiliana,d,maombolezo,ujasusi,mchekeshaji,NA,NA,0,NULL,NA,NA,NA,NA,NA,NA,NA,NA,NA,NA,NA,NA,NA,NA,NA,NA,NA,NA,NA
bb14a,deep,flow.Sequence,1_0_0,NA,NA,completion,89060.172,21834,21828.132,21843.867,110904.039,110906.5,2023-11-07T10:42:09Z,110920.701,Toleranz,kuvumiliana,d,maombolezo,ujasusi,mchekeshaji,NA,NA,NA,NULL,NA,NA,NA,NA,NA,NA,NA,NA,NA,NA,NA,NA,NA,NA,NA,NA,NA,NA,NA
bb14a,task,flow.Sequence,1_0,NA,NA,completion,89060.172,21833.900000095,21828.132,21843.867,110904.039,110906.79999971,2023-11-07T10:42:09Z,110920.701,Toleranz,kuvumiliana,d,maombolezo,ujasusi,mchekeshaji,NA,NA,NA,NULL,NA,NA,NA,NA,NA,NA,NA,NA,NA,NA,NA,NA,NA,NA,NA,NA,NA,NA,NA
bb14a,Deep Question,html.Page,1_1_0_0,NA,NA,form submission,28513.199000095,110907.0999999,110904.039,110920.701,139433.9000001,139435.5,2023-11-07T10:42:38Z,139447.293,Spionage,upelelezi,d,maslahi,utokazo,magangao,a,NA,NA,NULL,NA,NA,NA,NA,NA,NA,NA,NA,NA,NA,NA,NA,NA,NA,NA,NA,NA,NA,NA
bb14a,Save data screen,canvas.Screen,1_1_0_1,NA,NA,timeout,499.52799999999,139443.19999981,139414.049,139447.293,139930.169,139931.19999981,2023-11-07T10:42:38Z,139946.821,Spionage,upelelezi,d,maslahi,utokazo,magangao,NA,NA,0,NULL,NA,NA,NA,NA,NA,NA,NA,NA,NA,NA,NA,NA,NA,NA,NA,NA,NA,NA,NA
bb14a,deep,flow.Sequence,1_1_0,NA,NA,completion,29009.468,110907,110904.039,110920.701,139930.169,139931.5,2023-11-07T10:42:38Z,139946.821,Spionage,upelelezi,d,maslahi,utokazo,magangao,NA,NA,NA,NULL,NA,NA,NA,NA,NA,NA,NA,NA,NA,NA,NA,NA,NA,NA,NA,NA,NA,NA,NA
bb14a,task,flow.Sequence,1_1,NA,NA,completion,29009.468,110907,110904.039,110920.701,139930.169,139931.69999981,2023-11-07T10:42:38Z,139946.821,Spionage,upelelezi,d,maslahi,utokazo,magangao,NA,NA,NA,NULL,NA,NA,NA,NA,NA,NA,NA,NA,NA,NA,NA,NA,NA,NA,NA,NA,NA,NA,NA
bb14a,Deep Question,html.Page,1_2_0_0,NA,NA,form submission,19835.079000095,139931.9000001,139930.169,139946.821,159781.9000001,159783,2023-11-07T10:42:58Z,159797.245,Schock,mshtuko,d,biashara,kukataza,vichekesho,a,NA,NA,NULL,NA,NA,NA,NA,NA,NA,NA,NA,NA,NA,NA,NA,NA,NA,NA,NA,NA,NA,NA
bb14a,Save data screen,canvas.Screen,1_2_0_1,NA,NA,timeout,499.64199999999,159789.4000001,159764.26,159797.245,160280.182,160285.79999971,2023-11-07T10:42:59Z,160296.887,Schock,mshtuko,d,biashara,kukataza,vichekesho,NA,NA,0,NULL,NA,NA,NA,NA,NA,NA,NA,NA,NA,NA,NA,NA,NA,NA,NA,NA,NA,NA,NA
bb14a,deep,flow.Sequence,1_2_0,NA,NA,completion,20333.361,139931.79999971,139930.169,139946.821,160280.182,160286.5,2023-11-07T10:42:59Z,160296.887,Schock,mshtuko,d,biashara,kukataza,vichekesho,NA,NA,NA,NULL,NA,NA,NA,NA,NA,NA,NA,NA,NA,NA,NA,NA,NA,NA,NA,NA,NA,NA,NA
bb14a,task,flow.Sequence,1_2,NA,NA,completion,20333.361,139931.79999971,139930.169,139946.821,160280.182,160287,2023-11-07T10:42:59Z,160296.887,Schock,mshtuko,d,biashara,kukataza,vichekesho,NA,NA,NA,NULL,NA,NA,NA,NA,NA,NA,NA,NA,NA,NA,NA,NA,NA,NA,NA,NA,NA,NA,NA
bb14a,Deep Question,html.Page,1_3_0_0,NA,NA,form submission,51159.212999905,160287.4000001,160280.182,160296.887,211456.0999999,211457.5999999,2023-11-07T10:43:50Z,211471.452,Ergänzung,kijalizo,d,ulaghai,mustarehe,matangazo,taka,NA,NA,NULL,NA,NA,NA,NA,NA,NA,NA,NA,NA,NA,NA,NA,NA,NA,NA,NA,NA,NA,NA
bb14a,Save data screen,canvas.Screen,1_3_0_1,NA,NA,timeout,499.611,211465.5,211438.225,211471.452,211954.366,211955.4000001,2023-11-07T10:43:50Z,211971.063,Ergänzung,kijalizo,d,ulaghai,mustarehe,matangazo,NA,NA,0,NULL,NA,NA,NA,NA,NA,NA,NA,NA,NA,NA,NA,NA,NA,NA,NA,NA,NA,NA,NA
bb14a,deep,flow.Sequence,1_3_0,NA,NA,completion,51657.479,160287.29999971,160280.182,160296.887,211954.366,211955.5,2023-11-07T10:43:50Z,211971.063,Ergänzung,kijalizo,d,ulaghai,mustarehe,matangazo,NA,NA,NA,NULL,NA,NA,NA,NA,NA,NA,NA,NA,NA,NA,NA,NA,NA,NA,NA,NA,NA,NA,NA
bb14a,task,flow.Sequence,1_3,NA,NA,completion,51657.479,160287.19999981,160280.182,160296.887,211954.366,211955.5999999,2023-11-07T10:43:50Z,211971.063,Ergänzung,kijalizo,d,ulaghai,mustarehe,matangazo,NA,NA,NA,NULL,NA,NA,NA,NA,NA,NA,NA,NA,NA,NA,NA,NA,NA,NA,NA,NA,NA,NA,NA
bb14a,Deep Question,html.Page,1_4_0_0,NA,NA,form submission,25194.937,211955.79999971,211954.366,211971.063,237166,237167.5,2023-11-07T10:44:16Z,237183.697,Vergnügen,kichekesho,s,dubwana,mpanuko,mtesaji,a,NA,NA,NULL,NA,NA,NA,NA,NA,NA,NA,NA,NA,NA,NA,NA,NA,NA,NA,NA,NA,NA,NA
bb14a,Save data screen,canvas.Screen,1_4_0_1,NA,NA,timeout,499.51500000001,237175.5,237150.366,237183.697,237666.634,237668.4000001,2023-11-07T10:44:16Z,237683.212,Vergnügen,kichekesho,s,dubwana,mpanuko,mtesaji,NA,NA,0,NULL,NA,NA,NA,NA,NA,NA,NA,NA,NA,NA,NA,NA,NA,NA,NA,NA,NA,NA,NA
bb14a,deep,flow.Sequence,1_4_0,NA,NA,completion,25695.571,211955.79999971,211954.366,211971.063,237666.634,237668.5999999,2023-11-07T10:44:16Z,237683.212,Vergnügen,kichekesho,s,dubwana,mpanuko,mtesaji,NA,NA,NA,NULL,NA,NA,NA,NA,NA,NA,NA,NA,NA,NA,NA,NA,NA,NA,NA,NA,NA,NA,NA
bb14a,task,flow.Sequence,1_4,NA,NA,completion,25695.571,211955.79999971,211954.366,211971.063,237666.634,237668.69999981,2023-11-07T10:44:16Z,237683.212,Vergnügen,kichekesho,s,dubwana,mpanuko,mtesaji,NA,NA,NA,NULL,NA,NA,NA,NA,NA,NA,NA,NA,NA,NA,NA,NA,NA,NA,NA,NA,NA,NA,NA
bb14a,Deep Question,html.Page,1_5_0_0,NA,NA,form submission,28525.387999905,237668.79999971,237666.634,237683.212,266208.5999999,266209.5,2023-11-07T10:44:45Z,266209.854,Vermutung,udhanifu,s,haramia,tikisho,itifaki,a,NA,NA,NULL,NA,NA,NA,NA,NA,NA,NA,NA,NA,NA,NA,NA,NA,NA,NA,NA,NA,NA,NA
bb14a,Save data screen,canvas.Screen,1_5_0_1,NA,NA,timeout,499.48100000003,266215,266193.249,266209.854,266692.781,266694.79999971,2023-11-07T10:44:45Z,266709.335,Vermutung,udhanifu,s,haramia,tikisho,itifaki,NA,NA,0,NULL,NA,NA,NA,NA,NA,NA,NA,NA,NA,NA,NA,NA,NA,NA,NA,NA,NA,NA,NA
bb14a,deep,flow.Sequence,1_5_0,NA,NA,completion,29009.569,237668.79999971,237666.634,237683.212,266692.781,266695,2023-11-07T10:44:45Z,266709.335,Vermutung,udhanifu,s,haramia,tikisho,itifaki,NA,NA,NA,NULL,NA,NA,NA,NA,NA,NA,NA,NA,NA,NA,NA,NA,NA,NA,NA,NA,NA,NA,NA
bb14a,task,flow.Sequence,1_5,NA,NA,completion,29009.569,237668.79999971,237666.634,237683.212,266692.781,266695.5999999,2023-11-07T10:44:45Z,266709.335,Vermutung,udhanifu,s,haramia,tikisho,itifaki,NA,NA,NA,NULL,NA,NA,NA,NA,NA,NA,NA,NA,NA,NA,NA,NA,NA,NA,NA,NA,NA,NA,NA
bb14a,Deep Question,html.Page,1_6_0_0,NA,NA,form submission,33844.364999809,266695.9000001,266692.781,266709.335,300553.69999981,300554.19999981,2023-11-07T10:45:19Z,300564.827,Notfall,dharura,s,rairai,malalamiko,ahueni,uv,NA,NA,NULL,NA,NA,NA,NA,NA,NA,NA,NA,NA,NA,NA,NA,NA,NA,NA,NA,NA,NA,NA
bb14a,Save data screen,canvas.Screen,1_6_0_1,NA,NA,timeout,499.663,300557.4000001,300548.766,300564.827,301047.923,301051.69999981,2023-11-07T10:45:19Z,301064.49,Notfall,dharura,s,rairai,malalamiko,ahueni,NA,NA,0,NULL,NA,NA,NA,NA,NA,NA,NA,NA,NA,NA,NA,NA,NA,NA,NA,NA,NA,NA,NA
bb14a,deep,flow.Sequence,1_6_0,NA,NA,completion,34338.588,266695.9000001,266692.781,266709.335,301047.923,301052.19999981,2023-11-07T10:45:19Z,301064.49,Notfall,dharura,s,rairai,malalamiko,ahueni,NA,NA,NA,NULL,NA,NA,NA,NA,NA,NA,NA,NA,NA,NA,NA,NA,NA,NA,NA,NA,NA,NA,NA
bb14a,task,flow.Sequence,1_6,NA,NA,completion,34338.588,266695.79999971,266692.781,266709.335,301047.923,301052.5999999,2023-11-07T10:45:19Z,301064.49,Notfall,dharura,s,rairai,malalamiko,ahueni,NA,NA,NA,NULL,NA,NA,NA,NA,NA,NA,NA,NA,NA,NA,NA,NA,NA,NA,NA,NA,NA,NA,NA
bb14a,Deep Question,html.Page,1_7_0_0,NA,NA,form submission,57170.609999905,301052.9000001,301047.923,301064.49,358235.0999999,358235.69999981,2023-11-07T10:46:17Z,358250.773,Hoffnung,matarajio,s,kutaalamika,uratibu,mvumbuzi,a,NA,NA,NULL,NA,NA,NA,NA,NA,NA,NA,NA,NA,NA,NA,NA,NA,NA,NA,NA,NA,NA,NA
bb14a,Save data screen,canvas.Screen,1_7_0_1,NA,NA,timeout,499.71299999999,358238.69999981,358234.436,358250.773,358733.917,358735.69999981,2023-11-07T10:46:17Z,358750.486,Hoffnung,matarajio,s,kutaalamika,uratibu,mvumbuzi,NA,NA,0,NULL,NA,NA,NA,NA,NA,NA,NA,NA,NA,NA,NA,NA,NA,NA,NA,NA,NA,NA,NA
bb14a,deep,flow.Sequence,1_7_0,NA,NA,completion,57669.427,301052.79999971,301047.923,301064.49,358733.917,358736,2023-11-07T10:46:17Z,358750.486,Hoffnung,matarajio,s,kutaalamika,uratibu,mvumbuzi,NA,NA,NA,NULL,NA,NA,NA,NA,NA,NA,NA,NA,NA,NA,NA,NA,NA,NA,NA,NA,NA,NA,NA
bb14a,task,flow.Sequence,1_7,NA,NA,completion,57669.427,301052.69999981,301047.923,301064.49,358733.917,358736.19999981,2023-11-07T10:46:17Z,358750.486,Hoffnung,matarajio,s,kutaalamika,uratibu,mvumbuzi,NA,NA,NA,NULL,NA,NA,NA,NA,NA,NA,NA,NA,NA,NA,NA,NA,NA,NA,NA,NA,NA,NA,NA
bb14a,Deep Question,html.Page,1_8_0_0,NA,NA,form submission,61231.914000095,358736.4000001,358733.917,358750.486,419982.4000001,419983.0999999,2023-11-07T10:47:18Z,419983.373,Schlange,foleni,d,uvumilivu,uteuzi,muuzaji,temis,NA,NA,NULL,NA,NA,NA,NA,NA,NA,NA,NA,NA,NA,NA,NA,NA,NA,NA,NA,NA,NA,NA
bb14a,Save data screen,canvas.Screen,1_8_0_1,NA,NA,timeout,499.61499999999,419987.5,419967.005,419983.373,420466.433,420469.19999981,2023-11-07T10:47:19Z,420482.988,Schlange,foleni,d,uvumilivu,uteuzi,muuzaji,NA,NA,0,NULL,NA,NA,NA,NA,NA,NA,NA,NA,NA,NA,NA,NA,NA,NA,NA,NA,NA,NA,NA
bb14a,deep,flow.Sequence,1_8_0,NA,NA,completion,61715.947,358736.29999971,358733.917,358750.486,420466.433,420469.5999999,2023-11-07T10:47:19Z,420482.988,Schlange,foleni,d,uvumilivu,uteuzi,muuzaji,NA,NA,NA,NULL,NA,NA,NA,NA,NA,NA,NA,NA,NA,NA,NA,NA,NA,NA,NA,NA,NA,NA,NA
bb14a,task,flow.Sequence,1_8,NA,NA,completion,61715.947,358736.29999971,358733.917,358750.486,420466.433,420470,2023-11-07T10:47:19Z,420482.988,Schlange,foleni,d,uvumilivu,uteuzi,muuzaji,NA,NA,NA,NULL,NA,NA,NA,NA,NA,NA,NA,NA,NA,NA,NA,NA,NA,NA,NA,NA,NA,NA,NA
bb14a,Deep Question,html.Page,1_9_0_0,NA,NA,form submission,26219.311999714,420470.29999971,420466.433,420482.988,446702.29999971,446703,2023-11-07T10:47:45Z,446711.401,Verpackung,ufungaji,s,uhusiano,upimaji,uchunguzi,kinyongo,NA,NA,NULL,NA,NA,NA,NA,NA,NA,NA,NA,NA,NA,NA,NA,NA,NA,NA,NA,NA,NA,NA
bb14a,Save data screen,canvas.Screen,1_9_0_1,NA,NA,timeout,499.64799999999,446706.0999999,446695.081,446711.401,447194.454,447196.9000001,2023-11-07T10:47:46Z,447211.049,Verpackung,ufungaji,s,uhusiano,upimaji,uchunguzi,NA,NA,0,NULL,NA,NA,NA,NA,NA,NA,NA,NA,NA,NA,NA,NA,NA,NA,NA,NA,NA,NA,NA
bb14a,deep,flow.Sequence,1_9_0,NA,NA,completion,26711.466,420470.29999971,420466.433,420482.988,447194.454,447197.5,2023-11-07T10:47:46Z,447211.049,Verpackung,ufungaji,s,uhusiano,upimaji,uchunguzi,NA,NA,NA,NULL,NA,NA,NA,NA,NA,NA,NA,NA,NA,NA,NA,NA,NA,NA,NA,NA,NA,NA,NA
bb14a,task,flow.Sequence,1_9,NA,NA,completion,26711.466,420470.0999999,420466.433,420482.988,447194.454,447197.9000001,2023-11-07T10:47:46Z,447211.049,Verpackung,ufungaji,s,uhusiano,upimaji,uchunguzi,NA,NA,NA,NULL,NA,NA,NA,NA,NA,NA,NA,NA,NA,NA,NA,NA,NA,NA,NA,NA,NA,NA,NA
bb14a,Deep Question,html.Page,1_10_0_0,NA,NA,form submission,10499.650999809,447198.5999999,447194.454,447211.049,457710.69999981,457711.19999981,2023-11-07T10:47:56Z,457719.023,Wohlstand,mafanikio,d,chimbuko,kumbuko,mapwaji,a,NA,NA,NULL,NA,NA,NA,NA,NA,NA,NA,NA,NA,NA,NA,NA,NA,NA,NA,NA,NA,NA,NA
bb14a,Save data screen,canvas.Screen,1_10_0_1,NA,NA,timeout,499.65100000001,457714.19999981,457702.812,457719.023,458202.064,458206.0999999,2023-11-07T10:47:57Z,458218.674,Wohlstand,mafanikio,d,chimbuko,kumbuko,mapwaji,NA,NA,0,NULL,NA,NA,NA,NA,NA,NA,NA,NA,NA,NA,NA,NA,NA,NA,NA,NA,NA,NA,NA
bb14a,deep,flow.Sequence,1_10_0,NA,NA,completion,10991.015,447198.5,447194.454,447211.049,458202.064,458206.5,2023-11-07T10:47:57Z,458218.674,Wohlstand,mafanikio,d,chimbuko,kumbuko,mapwaji,NA,NA,NA,NULL,NA,NA,NA,NA,NA,NA,NA,NA,NA,NA,NA,NA,NA,NA,NA,NA,NA,NA,NA
bb14a,task,flow.Sequence,1_10,NA,NA,completion,10991.015,447198.19999981,447194.454,447211.049,458202.064,458206.79999971,2023-11-07T10:47:57Z,458218.674,Wohlstand,mafanikio,d,chimbuko,kumbuko,mapwaji,NA,NA,NA,NULL,NA,NA,NA,NA,NA,NA,NA,NA,NA,NA,NA,NA,NA,NA,NA,NA,NA,NA,NA
bb14a,Deep Question,html.Page,1_11_0_0,NA,NA,form submission,41766.826,458207.0999999,458202.064,458218.674,499985.5,499985.9000001,2023-11-07T10:48:38Z,500000.938,Tester,wanaojaribu,s,sherti,sihiri,mlipuko,kinyongo,NA,NA,NULL,NA,NA,NA,NA,NA,NA,NA,NA,NA,NA,NA,NA,NA,NA,NA,NA,NA,NA,NA
bb14a,Save data screen,canvas.Screen,1_11_0_1,NA,NA,timeout,499.68599999999,499988.4000001,499984.588,500000.938,500484.067,500487.0999999,2023-11-07T10:48:39Z,500500.624,Tester,wanaojaribu,s,sherti,sihiri,mlipuko,NA,NA,0,NULL,NA,NA,NA,NA,NA,NA,NA,NA,NA,NA,NA,NA,NA,NA,NA,NA,NA,NA,NA
bb14a,deep,flow.Sequence,1_11_0,NA,NA,completion,42265.393,458207,458202.064,458218.674,500484.067,500487.5999999,2023-11-07T10:48:39Z,500500.624,Tester,wanaojaribu,s,sherti,sihiri,mlipuko,NA,NA,NA,NULL,NA,NA,NA,NA,NA,NA,NA,NA,NA,NA,NA,NA,NA,NA,NA,NA,NA,NA,NA
bb14a,task,flow.Sequence,1_11,NA,NA,completion,42265.393,458206.9000001,458202.064,458218.674,500484.067,500487.9000001,2023-11-07T10:48:39Z,500500.624,Tester,wanaojaribu,s,sherti,sihiri,mlipuko,NA,NA,NA,NULL,NA,NA,NA,NA,NA,NA,NA,NA,NA,NA,NA,NA,NA,NA,NA,NA,NA,NA,NA
bb14a,Deep Question,html.Page,1_12_0_0,NA,NA,form submission,7805.1759997139,500488.19999981,500484.067,500500.624,508305.79999971,508306.4000001,2023-11-07T10:48:47Z,508310.786,Schüler,mwanafunzi,s,mwekezaji,matumizi,uaminifu,mbala,NA,NA,NULL,NA,NA,NA,NA,NA,NA,NA,NA,NA,NA,NA,NA,NA,NA,NA,NA,NA,NA,NA
bb14a,Save data screen,canvas.Screen,1_12_0_1,NA,NA,timeout,499.76899999997,508309.29999971,508294.616,508310.786,508793.833,508796,2023-11-07T10:48:47Z,508810.555,Schüler,mwanafunzi,s,mwekezaji,matumizi,uaminifu,NA,NA,0,NULL,NA,NA,NA,NA,NA,NA,NA,NA,NA,NA,NA,NA,NA,NA,NA,NA,NA,NA,NA
bb14a,deep,flow.Sequence,1_12_0,NA,NA,completion,8293.209,500488.0999999,500484.067,500500.624,508793.833,508796.69999981,2023-11-07T10:48:47Z,508810.555,Schüler,mwanafunzi,s,mwekezaji,matumizi,uaminifu,NA,NA,NA,NULL,NA,NA,NA,NA,NA,NA,NA,NA,NA,NA,NA,NA,NA,NA,NA,NA,NA,NA,NA
bb14a,task,flow.Sequence,1_12,NA,NA,completion,8293.209,500488.0999999,500484.067,500500.624,508793.833,508797.0999999,2023-11-07T10:48:47Z,508810.555,Schüler,mwanafunzi,s,mwekezaji,matumizi,uaminifu,NA,NA,NA,NULL,NA,NA,NA,NA,NA,NA,NA,NA,NA,NA,NA,NA,NA,NA,NA,NA,NA,NA,NA
bb14a,Deep Question,html.Page,1_13_0_0,NA,NA,form submission,75063.445,508797.79999971,508793.833,508810.555,583874,583874.5,2023-11-07T10:50:02Z,583882.044,Fenster,dirisha,d,walakini,tasawari,maarifa,kinyongo,NA,NA,NULL,NA,NA,NA,NA,NA,NA,NA,NA,NA,NA,NA,NA,NA,NA,NA,NA,NA,NA,NA
bb14a,Save data screen,canvas.Screen,1_13_0_1,NA,NA,timeout,499.62800000003,583877.5999999,583865.509,583882.044,584365.081,584368.5,2023-11-07T10:50:03Z,584381.672,Fenster,dirisha,d,walakini,tasawari,maarifa,NA,NA,0,NULL,NA,NA,NA,NA,NA,NA,NA,NA,NA,NA,NA,NA,NA,NA,NA,NA,NA,NA,NA
bb14a,deep,flow.Sequence,1_13_0,NA,NA,completion,75554.526,508797.69999981,508793.833,508810.555,584365.081,584369,2023-11-07T10:50:03Z,584381.672,Fenster,dirisha,d,walakini,tasawari,maarifa,NA,NA,NA,NULL,NA,NA,NA,NA,NA,NA,NA,NA,NA,NA,NA,NA,NA,NA,NA,NA,NA,NA,NA
bb14a,task,flow.Sequence,1_13,NA,NA,completion,75554.526,508797.4000001,508793.833,508810.555,584365.081,584369.29999971,2023-11-07T10:50:03Z,584381.672,Fenster,dirisha,d,walakini,tasawari,maarifa,NA,NA,NA,NULL,NA,NA,NA,NA,NA,NA,NA,NA,NA,NA,NA,NA,NA,NA,NA,NA,NA,NA,NA
bb14a,Deep Question,html.Page,1_14_0_0,NA,NA,form submission,56318.427999905,584370.19999981,584365.081,584381.672,640700.0999999,640700.5999999,2023-11-07T10:50:59Z,640718.701,Inhalt,yaliyomo,s,kishawishi,hifadhi,kutembea,a,NA,NA,NULL,NA,NA,NA,NA,NA,NA,NA,NA,NA,NA,NA,NA,NA,NA,NA,NA,NA,NA,NA
bb14a,Save data screen,canvas.Screen,1_14_0_1,NA,NA,timeout,499.59499999997,640704,640701.998,640718.701,641201.678,641204.4000001,2023-11-07T10:51:00Z,641218.296,Inhalt,yaliyomo,s,kishawishi,hifadhi,kutembea,NA,NA,0,NULL,NA,NA,NA,NA,NA,NA,NA,NA,NA,NA,NA,NA,NA,NA,NA,NA,NA,NA,NA
bb14a,deep,flow.Sequence,1_14_0,NA,NA,completion,56820.006,584369.5,584365.081,584381.672,641201.678,641205.5999999,2023-11-07T10:51:00Z,641218.296,Inhalt,yaliyomo,s,kishawishi,hifadhi,kutembea,NA,NA,NA,NULL,NA,NA,NA,NA,NA,NA,NA,NA,NA,NA,NA,NA,NA,NA,NA,NA,NA,NA,NA
bb14a,task,flow.Sequence,1_14,NA,NA,completion,56820.006,584369.4000001,584365.081,584381.672,641201.678,641206.29999971,2023-11-07T10:51:00Z,641218.296,Inhalt,yaliyomo,s,kishawishi,hifadhi,kutembea,NA,NA,NA,NULL,NA,NA,NA,NA,NA,NA,NA,NA,NA,NA,NA,NA,NA,NA,NA,NA,NA,NA,NA
bb14a,Deep Question,html.Page,1_15_0_0,NA,NA,form submission,228334.00399971,641206.9000001,641201.678,641218.296,869552.29999971,869552.9000001,2023-11-07T10:54:48Z,869563.93,Theorie,nadharia,d,ushungi,mkutano,uwakilishi,a,NA,NA,NULL,NA,NA,NA,NA,NA,NA,NA,NA,NA,NA,NA,NA,NA,NA,NA,NA,NA,NA,NA
bb14a,Save data screen,canvas.Screen,1_15_0_1,NA,NA,timeout,499.66899999999,869556.79999971,869547.496,869563.93,870047.245,870050.9000001,2023-11-07T10:54:48Z,870063.599,Theorie,nadharia,d,ushungi,mkutano,uwakilishi,NA,NA,0,NULL,NA,NA,NA,NA,NA,NA,NA,NA,NA,NA,NA,NA,NA,NA,NA,NA,NA,NA,NA
bb14a,deep,flow.Sequence,1_15_0,NA,NA,completion,228828.949,641206.69999981,641201.678,641218.296,870047.245,870051.29999971,2023-11-07T10:54:48Z,870063.599,Theorie,nadharia,d,ushungi,mkutano,uwakilishi,NA,NA,NA,NULL,NA,NA,NA,NA,NA,NA,NA,NA,NA,NA,NA,NA,NA,NA,NA,NA,NA,NA,NA
bb14a,task,flow.Sequence,1_15,NA,NA,completion,228828.949,641206.5,641201.678,641218.296,870047.245,870051.69999981,2023-11-07T10:54:48Z,870063.599,Theorie,nadharia,d,ushungi,mkutano,uwakilishi,NA,NA,NA,NULL,NA,NA,NA,NA,NA,NA,NA,NA,NA,NA,NA,NA,NA,NA,NA,NA,NA,NA,NA
bb14a,retrieval block 1 (cued recall),flow.Loop,1,NA,NA,completion,848203.378,21833.900000095,21828.132,21843.867,870047.245,870052,2023-11-07T10:54:48Z,870063.599,NA,NA,NA,NA,NA,NA,NA,NA,NA,NULL,NA,NA,NA,NA,NA,NA,NA,NA,NA,NA,NA,NA,NA,NA,NA,NA,NA,NA,NA
bb14a,Shallow Question,html.Page,2_0_0_0,NA,NA,form submission,40571.301000095,870052.4000001,870047.245,870063.599,910634.9000001,910636,2023-11-07T10:55:29Z,910646.931,Vergnügen,kichekesho,s,dubwana,mpanuko,mtesaji,kichekesho,NA,NA,"c(""distractor1"", ""distractor2"", ""distractor3"")",NA,NA,NA,NA,NA,NA,NA,NA,NA,NA,NA,NA,NA,NA,NA,NA,NA,NA,NA
bb14a,Save data screen,canvas.Screen,2_0_0_1,NA,NA,timeout,499.53500000003,910641.69999981,910613.697,910646.931,911129.786,911131.29999971,2023-11-07T10:55:30Z,911146.466,Vergnügen,kichekesho,s,dubwana,mpanuko,mtesaji,NA,NA,1,"c(""distractor1"", ""distractor2"", ""distractor3"")",NA,NA,NA,NA,NA,NA,NA,NA,NA,NA,NA,NA,NA,NA,NA,NA,NA,NA,NA
bb14a,shallow,flow.Sequence,2_0_0,NA,NA,completion,41066.187,870052.4000001,870047.245,870063.599,911129.786,911131.5,2023-11-07T10:55:30Z,911146.466,Vergnügen,kichekesho,s,dubwana,mpanuko,mtesaji,NA,NA,NA,"c(""distractor1"", ""distractor2"", ""distractor3"")",NA,NA,NA,NA,NA,NA,NA,NA,NA,NA,NA,NA,NA,NA,NA,NA,NA,NA,NA
bb14a,task,flow.Sequence,2_0,NA,NA,completion,41066.187,870052.4000001,870047.245,870063.599,911129.786,911131.79999971,2023-11-07T10:55:30Z,911146.466,Vergnügen,kichekesho,s,dubwana,mpanuko,mtesaji,NA,NA,NA,"c(""distractor1"", ""distractor2"", ""distractor3"")",NA,NA,NA,NA,NA,NA,NA,NA,NA,NA,NA,NA,NA,NA,NA,NA,NA,NA,NA
bb14a,Shallow Question,html.Page,2_1_0_0,NA,NA,form submission,23416.333999714,911131.9000001,911129.786,911146.466,934562.79999971,934564.19999981,2023-11-07T10:55:53Z,934577.258,Ergänzung,kijalizo,d,ulaghai,mustarehe,matangazo,kijalizo,NA,NA,"c(""distractor1"", ""distractor2"", ""distractor3"")",NA,NA,NA,NA,NA,NA,NA,NA,NA,NA,NA,NA,NA,NA,NA,NA,NA,NA,NA
bb14a,Save data screen,canvas.Screen,2_1_0_1,NA,NA,timeout,499.54099999997,934571.79999971,934543.979,934577.258,935060.128,935061.5999999,2023-11-07T10:55:53Z,935076.799,Ergänzung,kijalizo,d,ulaghai,mustarehe,matangazo,NA,NA,1,"c(""distractor1"", ""distractor2"", ""distractor3"")",NA,NA,NA,NA,NA,NA,NA,NA,NA,NA,NA,NA,NA,NA,NA,NA,NA,NA,NA
bb14a,shallow,flow.Sequence,2_1_0,NA,NA,completion,23913.662,911131.9000001,911129.786,911146.466,935060.128,935061.9000001,2023-11-07T10:55:53Z,935076.799,Ergänzung,kijalizo,d,ulaghai,mustarehe,matangazo,NA,NA,NA,"c(""distractor1"", ""distractor2"", ""distractor3"")",NA,NA,NA,NA,NA,NA,NA,NA,NA,NA,NA,NA,NA,NA,NA,NA,NA,NA,NA
bb14a,task,flow.Sequence,2_1,NA,NA,completion,23913.662,911131.79999971,911129.786,911146.466,935060.128,935062,2023-11-07T10:55:53Z,935076.799,Ergänzung,kijalizo,d,ulaghai,mustarehe,matangazo,NA,NA,NA,"c(""distractor1"", ""distractor2"", ""distractor3"")",NA,NA,NA,NA,NA,NA,NA,NA,NA,NA,NA,NA,NA,NA,NA,NA,NA,NA,NA
bb14a,Shallow Question,html.Page,2_2_0_0,NA,NA,form submission,64662.900999809,935062.0999999,935060.128,935076.799,999739.69999981,999740.19999981,2023-11-07T10:56:58Z,999758.41,Inhalt,yaliyomo,s,kishawishi,hifadhi,kutembea,kishawishi,NA,NA,"c(""distractor1"", ""distractor2"", ""distractor3"")",NA,NA,NA,NA,NA,NA,NA,NA,NA,NA,NA,NA,NA,NA,NA,NA,NA,NA,NA
bb14a,Save data screen,canvas.Screen,2_2_0_1,NA,NA,timeout,498.22499999998,999743.4000001,999723.766,999758.41,1000239.933,1000243,2023-11-07T10:56:59Z,1000256.635,Inhalt,yaliyomo,s,kishawishi,hifadhi,kutembea,NA,NA,0,"c(""distractor1"", ""distractor2"", ""distractor3"")",NA,NA,NA,NA,NA,NA,NA,NA,NA,NA,NA,NA,NA,NA,NA,NA,NA,NA,NA
bb14a,shallow,flow.Sequence,2_2_0,NA,NA,completion,65163.134,935062.0999999,935060.128,935076.799,1000239.933,1000243.4000001,2023-11-07T10:56:59Z,1000256.635,Inhalt,yaliyomo,s,kishawishi,hifadhi,kutembea,NA,NA,NA,"c(""distractor1"", ""distractor2"", ""distractor3"")",NA,NA,NA,NA,NA,NA,NA,NA,NA,NA,NA,NA,NA,NA,NA,NA,NA,NA,NA
bb14a,task,flow.Sequence,2_2,NA,NA,completion,65163.134,935062,935060.128,935076.799,1000239.933,1000243.5999999,2023-11-07T10:56:59Z,1000256.635,Inhalt,yaliyomo,s,kishawishi,hifadhi,kutembea,NA,NA,NA,"c(""distractor1"", ""distractor2"", ""distractor3"")",NA,NA,NA,NA,NA,NA,NA,NA,NA,NA,NA,NA,NA,NA,NA,NA,NA,NA,NA
bb14a,Shallow Question,html.Page,2_3_0_0,NA,NA,form submission,13549.964999905,1000243.7999997,1000239.933,1000256.635,1013806.5999999,1013807.6999998,2023-11-07T10:57:12Z,1013812.197,Schüler,mwanafunzi,s,mwekezaji,matumizi,uaminifu,mwanafunzi,NA,NA,"c(""distractor1"", ""distractor2"", ""distractor3"")",NA,NA,NA,NA,NA,NA,NA,NA,NA,NA,NA,NA,NA,NA,NA,NA,NA,NA,NA
bb14a,Save data screen,canvas.Screen,2_3_0_1,NA,NA,timeout,499.4659999999,1013813.2999997,1013795.778,1013812.197,1014294.997,1014295.7999997,2023-11-07T10:57:13Z,1014311.663,Schüler,mwanafunzi,s,mwekezaji,matumizi,uaminifu,NA,NA,1,"c(""distractor1"", ""distractor2"", ""distractor3"")",NA,NA,NA,NA,NA,NA,NA,NA,NA,NA,NA,NA,NA,NA,NA,NA,NA,NA,NA
bb14a,shallow,flow.Sequence,2_3_0,NA,NA,completion,14038.362,1000243.7999997,1000239.933,1000256.635,1014294.997,1014296,2023-11-07T10:57:13Z,1014311.663,Schüler,mwanafunzi,s,mwekezaji,matumizi,uaminifu,NA,NA,NA,"c(""distractor1"", ""distractor2"", ""distractor3"")",NA,NA,NA,NA,NA,NA,NA,NA,NA,NA,NA,NA,NA,NA,NA,NA,NA,NA,NA
bb14a,task,flow.Sequence,2_3,NA,NA,completion,14038.362,1000243.6999998,1000239.933,1000256.635,1014294.997,1014296.0999999,2023-11-07T10:57:13Z,1014311.663,Schüler,mwanafunzi,s,mwekezaji,matumizi,uaminifu,NA,NA,NA,"c(""distractor1"", ""distractor2"", ""distractor3"")",NA,NA,NA,NA,NA,NA,NA,NA,NA,NA,NA,NA,NA,NA,NA,NA,NA,NA,NA
bb14a,Shallow Question,html.Page,2_4_0_0,NA,NA,form submission,10984.136999714,1014296.1999998,1014294.997,1014311.663,1025295.7999997,1025296.7999997,2023-11-07T10:57:24Z,1025302.726,Verpackung,ufungaji,s,uhusiano,upimaji,uchunguzi,ufungaji,NA,NA,"c(""distractor1"", ""distractor2"", ""distractor3"")",NA,NA,NA,NA,NA,NA,NA,NA,NA,NA,NA,NA,NA,NA,NA,NA,NA,NA,NA
bb14a,Save data screen,canvas.Screen,2_4_0_1,NA,NA,timeout,499.51699999999,1025302.2999997,1025286.42,1025302.726,1025785.701,1025788.0999999,2023-11-07T10:57:24Z,1025802.243,Verpackung,ufungaji,s,uhusiano,upimaji,uchunguzi,NA,NA,1,"c(""distractor1"", ""distractor2"", ""distractor3"")",NA,NA,NA,NA,NA,NA,NA,NA,NA,NA,NA,NA,NA,NA,NA,NA,NA,NA,NA
bb14a,shallow,flow.Sequence,2_4_0,NA,NA,completion,11474.038,1014296.1999998,1014294.997,1014311.663,1025785.701,1025788.5999999,2023-11-07T10:57:24Z,1025802.243,Verpackung,ufungaji,s,uhusiano,upimaji,uchunguzi,NA,NA,NA,"c(""distractor1"", ""distractor2"", ""distractor3"")",NA,NA,NA,NA,NA,NA,NA,NA,NA,NA,NA,NA,NA,NA,NA,NA,NA,NA,NA
bb14a,task,flow.Sequence,2_4,NA,NA,completion,11474.038,1014296.1999998,1014294.997,1014311.663,1025785.701,1025789.0999999,2023-11-07T10:57:24Z,1025802.243,Verpackung,ufungaji,s,uhusiano,upimaji,uchunguzi,NA,NA,NA,"c(""distractor1"", ""distractor2"", ""distractor3"")",NA,NA,NA,NA,NA,NA,NA,NA,NA,NA,NA,NA,NA,NA,NA,NA,NA,NA,NA
bb14a,Shallow Question,html.Page,2_5_0_0,NA,NA,form submission,9314.257,1025789.5,1025785.701,1025802.243,1035116.5,1035117.5,2023-11-07T10:57:34Z,1035127.947,Hoffnung,matarajio,s,kutaalamika,uratibu,mvumbuzi,matarajio,NA,NA,"c(""distractor1"", ""distractor2"", ""distractor3"")",NA,NA,NA,NA,NA,NA,NA,NA,NA,NA,NA,NA,NA,NA,NA,NA,NA,NA,NA
bb14a,Save data screen,canvas.Screen,2_5_0_1,NA,NA,timeout,499.54299999995,1035123,1035111.418,1035127.947,1035611.167,1035613,2023-11-07T10:57:34Z,1035627.49,Hoffnung,matarajio,s,kutaalamika,uratibu,mvumbuzi,NA,NA,1,"c(""distractor1"", ""distractor2"", ""distractor3"")",NA,NA,NA,NA,NA,NA,NA,NA,NA,NA,NA,NA,NA,NA,NA,NA,NA,NA,NA
bb14a,shallow,flow.Sequence,2_5_0,NA,NA,completion,9808.924,1025789.5,1025785.701,1025802.243,1035611.167,1035613.1999998,2023-11-07T10:57:34Z,1035627.49,Hoffnung,matarajio,s,kutaalamika,uratibu,mvumbuzi,NA,NA,NA,"c(""distractor1"", ""distractor2"", ""distractor3"")",NA,NA,NA,NA,NA,NA,NA,NA,NA,NA,NA,NA,NA,NA,NA,NA,NA,NA,NA
bb14a,task,flow.Sequence,2_5,NA,NA,completion,9808.924,1025789.2999997,1025785.701,1025802.243,1035611.167,1035614,2023-11-07T10:57:34Z,1035627.49,Hoffnung,matarajio,s,kutaalamika,uratibu,mvumbuzi,NA,NA,NA,"c(""distractor1"", ""distractor2"", ""distractor3"")",NA,NA,NA,NA,NA,NA,NA,NA,NA,NA,NA,NA,NA,NA,NA,NA,NA,NA,NA
bb14a,Shallow Question,html.Page,2_6_0_0,NA,NA,form submission,9672.9100000954,1035614.2999997,1035611.167,1035627.49,1045300.4000001,1045301.9000001,2023-11-07T10:57:44Z,1045302.995,Toleranz,kuvumiliana,d,maombolezo,ujasusi,mchekeshaji,kuvumiliana,NA,NA,"c(""distractor1"", ""distractor2"", ""distractor3"")",NA,NA,NA,NA,NA,NA,NA,NA,NA,NA,NA,NA,NA,NA,NA,NA,NA,NA,NA
bb14a,Save data screen,canvas.Screen,2_6_0_1,NA,NA,timeout,499.51199999999,1045307.6999998,1045286.509,1045302.995,1045785.907,1045788.5,2023-11-07T10:57:44Z,1045802.507,Toleranz,kuvumiliana,d,maombolezo,ujasusi,mchekeshaji,NA,NA,1,"c(""distractor1"", ""distractor2"", ""distractor3"")",NA,NA,NA,NA,NA,NA,NA,NA,NA,NA,NA,NA,NA,NA,NA,NA,NA,NA,NA
bb14a,shallow,flow.Sequence,2_6_0,NA,NA,completion,10158.417,1035614.2999997,1035611.167,1035627.49,1045785.907,1045789.2999997,2023-11-07T10:57:44Z,1045802.507,Toleranz,kuvumiliana,d,maombolezo,ujasusi,mchekeshaji,NA,NA,NA,"c(""distractor1"", ""distractor2"", ""distractor3"")",NA,NA,NA,NA,NA,NA,NA,NA,NA,NA,NA,NA,NA,NA,NA,NA,NA,NA,NA
bb14a,task,flow.Sequence,2_6,NA,NA,completion,10158.417,1035614.1999998,1035611.167,1035627.49,1045785.907,1045789.9000001,2023-11-07T10:57:44Z,1045802.507,Toleranz,kuvumiliana,d,maombolezo,ujasusi,mchekeshaji,NA,NA,NA,"c(""distractor1"", ""distractor2"", ""distractor3"")",NA,NA,NA,NA,NA,NA,NA,NA,NA,NA,NA,NA,NA,NA,NA,NA,NA,NA,NA
bb14a,Shallow Question,html.Page,2_7_0_0,NA,NA,form submission,7259.6929998093,1045790.2999997,1045785.907,1045802.507,1053062.1999998,1053063.1999998,2023-11-07T10:57:52Z,1053063.201,Theorie,nadharia,d,ushungi,mkutano,uwakilishi,nadharia,NA,NA,"c(""distractor1"", ""distractor2"", ""distractor3"")",NA,NA,NA,NA,NA,NA,NA,NA,NA,NA,NA,NA,NA,NA,NA,NA,NA,NA,NA
bb14a,Save data screen,canvas.Screen,2_7_0_1,NA,NA,timeout,499.68400000012,1053069.1999998,1053046.721,1053063.201,1053546.138,1053548.4000001,2023-11-07T10:57:52Z,1053562.885,Theorie,nadharia,d,ushungi,mkutano,uwakilishi,NA,NA,1,"c(""distractor1"", ""distractor2"", ""distractor3"")",NA,NA,NA,NA,NA,NA,NA,NA,NA,NA,NA,NA,NA,NA,NA,NA,NA,NA,NA
bb14a,shallow,flow.Sequence,2_7_0,NA,NA,completion,7743.6310000001,1045790.1999998,1045785.907,1045802.507,1053546.138,1053549.0999999,2023-11-07T10:57:52Z,1053562.885,Theorie,nadharia,d,ushungi,mkutano,uwakilishi,NA,NA,NA,"c(""distractor1"", ""distractor2"", ""distractor3"")",NA,NA,NA,NA,NA,NA,NA,NA,NA,NA,NA,NA,NA,NA,NA,NA,NA,NA,NA
bb14a,task,flow.Sequence,2_7,NA,NA,completion,7743.6310000001,1045790.0999999,1045785.907,1045802.507,1053546.138,1053549.5,2023-11-07T10:57:52Z,1053562.885,Theorie,nadharia,d,ushungi,mkutano,uwakilishi,NA,NA,NA,"c(""distractor1"", ""distractor2"", ""distractor3"")",NA,NA,NA,NA,NA,NA,NA,NA,NA,NA,NA,NA,NA,NA,NA,NA,NA,NA,NA
bb14a,Shallow Question,html.Page,2_8_0_0,NA,NA,form submission,9286.115,1053549.7999997,1053546.138,1053562.885,1062849,1062850.0999999,2023-11-07T10:58:01Z,1062855.224,Spionage,upelelezi,d,maslahi,utokazo,magangao,upelelezi,NA,NA,"c(""distractor1"", ""distractor2"", ""distractor3"")",NA,NA,NA,NA,NA,NA,NA,NA,NA,NA,NA,NA,NA,NA,NA,NA,NA,NA,NA
bb14a,Save data screen,canvas.Screen,2_8_0_1,NA,NA,timeout,499.43299999996,1062855.5,1062838.614,1062855.224,1063338.017,1063339.7999997,2023-11-07T10:58:02Z,1063354.657,Spionage,upelelezi,d,maslahi,utokazo,magangao,NA,NA,1,"c(""distractor1"", ""distractor2"", ""distractor3"")",NA,NA,NA,NA,NA,NA,NA,NA,NA,NA,NA,NA,NA,NA,NA,NA,NA,NA,NA
bb14a,shallow,flow.Sequence,2_8_0,NA,NA,completion,9775.132,1053549.7999997,1053546.138,1053562.885,1063338.017,1063340,2023-11-07T10:58:02Z,1063354.657,Spionage,upelelezi,d,maslahi,utokazo,magangao,NA,NA,NA,"c(""distractor1"", ""distractor2"", ""distractor3"")",NA,NA,NA,NA,NA,NA,NA,NA,NA,NA,NA,NA,NA,NA,NA,NA,NA,NA,NA
bb14a,task,flow.Sequence,2_8,NA,NA,completion,9775.132,1053549.6999998,1053546.138,1053562.885,1063338.017,1063340.1999998,2023-11-07T10:58:02Z,1063354.657,Spionage,upelelezi,d,maslahi,utokazo,magangao,NA,NA,NA,"c(""distractor1"", ""distractor2"", ""distractor3"")",NA,NA,NA,NA,NA,NA,NA,NA,NA,NA,NA,NA,NA,NA,NA,NA,NA,NA,NA
bb14a,Shallow Question,html.Page,2_9_0_0,NA,NA,form submission,4185.8430000001,1063340.2999997,1063338.017,1063354.657,1067540.5,1067541.5,2023-11-07T10:58:06Z,1067551.329,Schlange,foleni,d,uvumilivu,uteuzi,muuzaji,foleni,NA,NA,"c(""distractor1"", ""distractor2"", ""distractor3"")",NA,NA,NA,NA,NA,NA,NA,NA,NA,NA,NA,NA,NA,NA,NA,NA,NA,NA,NA
bb14a,Save data screen,canvas.Screen,2_9_0_1,NA,NA,timeout,499.51900000009,1067547.2999997,1067534.824,1067551.329,1068034.2,1068035.4000001,2023-11-07T10:58:06Z,1068050.848,Schlange,foleni,d,uvumilivu,uteuzi,muuzaji,NA,NA,1,"c(""distractor1"", ""distractor2"", ""distractor3"")",NA,NA,NA,NA,NA,NA,NA,NA,NA,NA,NA,NA,NA,NA,NA,NA,NA,NA,NA
bb14a,shallow,flow.Sequence,2_9_0,NA,NA,completion,4679.5430000001,1063340.2999997,1063338.017,1063354.657,1068034.2,1068035.5,2023-11-07T10:58:06Z,1068050.848,Schlange,foleni,d,uvumilivu,uteuzi,muuzaji,NA,NA,NA,"c(""distractor1"", ""distractor2"", ""distractor3"")",NA,NA,NA,NA,NA,NA,NA,NA,NA,NA,NA,NA,NA,NA,NA,NA,NA,NA,NA
bb14a,task,flow.Sequence,2_9,NA,NA,completion,4679.5430000001,1063340.2999997,1063338.017,1063354.657,1068034.2,1068035.5999999,2023-11-07T10:58:06Z,1068050.848,Schlange,foleni,d,uvumilivu,uteuzi,muuzaji,NA,NA,NA,"c(""distractor1"", ""distractor2"", ""distractor3"")",NA,NA,NA,NA,NA,NA,NA,NA,NA,NA,NA,NA,NA,NA,NA,NA,NA,NA,NA
bb14a,Shallow Question,html.Page,2_10_0_0,NA,NA,form submission,7972.7519999046,1068035.6999998,1068034.2,1068050.848,1076023.5999999,1076025.1999998,2023-11-07T10:58:14Z,1076027.704,Fenster,dirisha,d,walakini,tasawari,maarifa,dirisha,NA,NA,"c(""distractor1"", ""distractor2"", ""distractor3"")",NA,NA,NA,NA,NA,NA,NA,NA,NA,NA,NA,NA,NA,NA,NA,NA,NA,NA,NA
bb14a,Save data screen,canvas.Screen,2_10_0_1,NA,NA,timeout,499.54600000009,1076031.6999998,1076011.185,1076027.704,1076510.606,1076515.6999998,2023-11-07T10:58:15Z,1076527.25,Fenster,dirisha,d,walakini,tasawari,maarifa,NA,NA,1,"c(""distractor1"", ""distractor2"", ""distractor3"")",NA,NA,NA,NA,NA,NA,NA,NA,NA,NA,NA,NA,NA,NA,NA,NA,NA,NA,NA
bb14a,shallow,flow.Sequence,2_10_0,NA,NA,completion,8459.7579999999,1068035.6999998,1068034.2,1068050.848,1076510.606,1076516.0999999,2023-11-07T10:58:15Z,1076527.25,Fenster,dirisha,d,walakini,tasawari,maarifa,NA,NA,NA,"c(""distractor1"", ""distractor2"", ""distractor3"")",NA,NA,NA,NA,NA,NA,NA,NA,NA,NA,NA,NA,NA,NA,NA,NA,NA,NA,NA
bb14a,task,flow.Sequence,2_10,NA,NA,completion,8459.7579999999,1068035.6999998,1068034.2,1068050.848,1076510.606,1076516.4000001,2023-11-07T10:58:15Z,1076527.25,Fenster,dirisha,d,walakini,tasawari,maarifa,NA,NA,NA,"c(""distractor1"", ""distractor2"", ""distractor3"")",NA,NA,NA,NA,NA,NA,NA,NA,NA,NA,NA,NA,NA,NA,NA,NA,NA,NA,NA
bb14a,Shallow Question,html.Page,2_11_0_0,NA,NA,form submission,50801.150000095004,1076516.5999999,1076510.606,1076527.25,1127328.4000001,1127329.5,2023-11-07T10:59:06Z,1127335.526,Vermutung,udhanifu,s,haramia,tikisho,itifaki,haramia,NA,NA,"c(""distractor1"", ""distractor2"", ""distractor3"")",NA,NA,NA,NA,NA,NA,NA,NA,NA,NA,NA,NA,NA,NA,NA,NA,NA,NA,NA
bb14a,Save data screen,canvas.Screen,2_11_0_1,NA,NA,timeout,499.51799999992,1127335.2999997,1127319.293,1127335.526,1127818.502,1127819.5,2023-11-07T10:59:06Z,1127835.044,Vermutung,udhanifu,s,haramia,tikisho,itifaki,NA,NA,0,"c(""distractor1"", ""distractor2"", ""distractor3"")",NA,NA,NA,NA,NA,NA,NA,NA,NA,NA,NA,NA,NA,NA,NA,NA,NA,NA,NA
bb14a,shallow,flow.Sequence,2_11_0,NA,NA,completion,51291.252,1076516.5999999,1076510.606,1076527.25,1127818.502,1127819.7999997,2023-11-07T10:59:06Z,1127835.044,Vermutung,udhanifu,s,haramia,tikisho,itifaki,NA,NA,NA,"c(""distractor1"", ""distractor2"", ""distractor3"")",NA,NA,NA,NA,NA,NA,NA,NA,NA,NA,NA,NA,NA,NA,NA,NA,NA,NA,NA
bb14a,task,flow.Sequence,2_11,NA,NA,completion,51291.252,1076516.5,1076510.606,1076527.25,1127818.502,1127819.7999997,2023-11-07T10:59:06Z,1127835.044,Vermutung,udhanifu,s,haramia,tikisho,itifaki,NA,NA,NA,"c(""distractor1"", ""distractor2"", ""distractor3"")",NA,NA,NA,NA,NA,NA,NA,NA,NA,NA,NA,NA,NA,NA,NA,NA,NA,NA,NA
bb14a,Shallow Question,html.Page,2_12_0_0,NA,NA,form submission,7482.3560000954,1127819.9000001,1127818.502,1127835.044,1135317.4000001,1135318.4000001,2023-11-07T10:59:14Z,1135328.955,Schock,mshtuko,d,biashara,kukataza,vichekesho,mshtuko,NA,NA,"c(""distractor1"", ""distractor2"", ""distractor3"")",NA,NA,NA,NA,NA,NA,NA,NA,NA,NA,NA,NA,NA,NA,NA,NA,NA,NA,NA
bb14a,Save data screen,canvas.Screen,2_12_0_1,NA,NA,timeout,499.65399999986,1135323.9000001,1135312.428,1135328.955,1135812.133,1135813.7999997,2023-11-07T10:59:14Z,1135828.609,Schock,mshtuko,d,biashara,kukataza,vichekesho,NA,NA,1,"c(""distractor1"", ""distractor2"", ""distractor3"")",NA,NA,NA,NA,NA,NA,NA,NA,NA,NA,NA,NA,NA,NA,NA,NA,NA,NA,NA
bb14a,shallow,flow.Sequence,2_12_0,NA,NA,completion,7977.0889999999,1127819.9000001,1127818.502,1127835.044,1135812.133,1135814,2023-11-07T10:59:14Z,1135828.609,Schock,mshtuko,d,biashara,kukataza,vichekesho,NA,NA,NA,"c(""distractor1"", ""distractor2"", ""distractor3"")",NA,NA,NA,NA,NA,NA,NA,NA,NA,NA,NA,NA,NA,NA,NA,NA,NA,NA,NA
bb14a,task,flow.Sequence,2_12,NA,NA,completion,7977.0889999999,1127819.9000001,1127818.502,1127835.044,1135812.133,1135814.0999999,2023-11-07T10:59:14Z,1135828.609,Schock,mshtuko,d,biashara,kukataza,vichekesho,NA,NA,NA,"c(""distractor1"", ""distractor2"", ""distractor3"")",NA,NA,NA,NA,NA,NA,NA,NA,NA,NA,NA,NA,NA,NA,NA,NA,NA,NA,NA
bb14a,Shallow Question,html.Page,2_13_0_0,NA,NA,form submission,14290.590999809,1135814.1999998,1135812.133,1135828.609,1150119.1999998,1150119.6999998,2023-11-07T10:59:29Z,1150133.396,Tester,wanaojaribu,s,sherti,sihiri,mlipuko,wanaojaribu,NA,NA,"c(""distractor1"", ""distractor2"", ""distractor3"")",NA,NA,NA,NA,NA,NA,NA,NA,NA,NA,NA,NA,NA,NA,NA,NA,NA,NA,NA
bb14a,Save data screen,canvas.Screen,2_13_0_1,NA,NA,timeout,499.58700000006,1150121.9000001,1150116.824,1150133.396,1150616.366,1150619.7999997,2023-11-07T10:59:29Z,1150632.983,Tester,wanaojaribu,s,sherti,sihiri,mlipuko,NA,NA,1,"c(""distractor1"", ""distractor2"", ""distractor3"")",NA,NA,NA,NA,NA,NA,NA,NA,NA,NA,NA,NA,NA,NA,NA,NA,NA,NA,NA
bb14a,shallow,flow.Sequence,2_13_0,NA,NA,completion,14787.757,1135814.1999998,1135812.133,1135828.609,1150616.366,1150620,2023-11-07T10:59:29Z,1150632.983,Tester,wanaojaribu,s,sherti,sihiri,mlipuko,NA,NA,NA,"c(""distractor1"", ""distractor2"", ""distractor3"")",NA,NA,NA,NA,NA,NA,NA,NA,NA,NA,NA,NA,NA,NA,NA,NA,NA,NA,NA
bb14a,task,flow.Sequence,2_13,NA,NA,completion,14787.757,1135814.1999998,1135812.133,1135828.609,1150616.366,1150620.0999999,2023-11-07T10:59:29Z,1150632.983,Tester,wanaojaribu,s,sherti,sihiri,mlipuko,NA,NA,NA,"c(""distractor1"", ""distractor2"", ""distractor3"")",NA,NA,NA,NA,NA,NA,NA,NA,NA,NA,NA,NA,NA,NA,NA,NA,NA,NA,NA
bb14a,Shallow Question,html.Page,2_14_0_0,NA,NA,form submission,19913.616999905,1150620.7999997,1150616.366,1150632.983,1170546.5999999,1170548.4000001,2023-11-07T10:59:49Z,1170549.999,Notfall,dharura,s,rairai,malalamiko,ahueni,dharura,NA,NA,"c(""distractor1"", ""distractor2"", ""distractor3"")",NA,NA,NA,NA,NA,NA,NA,NA,NA,NA,NA,NA,NA,NA,NA,NA,NA,NA,NA
bb14a,Save data screen,canvas.Screen,2_14_0_1,NA,NA,timeout,499.5689999999,1170556.5,1170533.792,1170549.999,1171032.919,1171035.9000001,2023-11-07T10:59:49Z,1171049.568,Notfall,dharura,s,rairai,malalamiko,ahueni,NA,NA,1,"c(""distractor1"", ""distractor2"", ""distractor3"")",NA,NA,NA,NA,NA,NA,NA,NA,NA,NA,NA,NA,NA,NA,NA,NA,NA,NA,NA
bb14a,shallow,flow.Sequence,2_14_0,NA,NA,completion,20399.936,1150620.6999998,1150616.366,1150632.983,1171032.919,1171036.5,2023-11-07T10:59:49Z,1171049.568,Notfall,dharura,s,rairai,malalamiko,ahueni,NA,NA,NA,"c(""distractor1"", ""distractor2"", ""distractor3"")",NA,NA,NA,NA,NA,NA,NA,NA,NA,NA,NA,NA,NA,NA,NA,NA,NA,NA,NA
bb14a,task,flow.Sequence,2_14,NA,NA,completion,20399.936,1150620.1999998,1150616.366,1150632.983,1171032.919,1171036.9000001,2023-11-07T10:59:49Z,1171049.568,Notfall,dharura,s,rairai,malalamiko,ahueni,NA,NA,NA,"c(""distractor1"", ""distractor2"", ""distractor3"")",NA,NA,NA,NA,NA,NA,NA,NA,NA,NA,NA,NA,NA,NA,NA,NA,NA,NA,NA
bb14a,Shallow Question,html.Page,2_15_0_0,NA,NA,form submission,36992.332000095,1171037.2999997,1171032.919,1171049.568,1208041.9000001,1208043,2023-11-07T11:00:26Z,1208052.561,Wohlstand,mafanikio,d,chimbuko,kumbuko,mapwaji,mafanikio,NA,NA,"c(""distractor1"", ""distractor2"", ""distractor3"")",NA,NA,NA,NA,NA,NA,NA,NA,NA,NA,NA,NA,NA,NA,NA,NA,NA,NA,NA
bb14a,Save data screen,canvas.Screen,2_15_0_1,NA,NA,timeout,499.63000000012,1208048.9000001,1208036.01,1208052.561,1208535.413,1208536.9000001,2023-11-07T11:00:27Z,1208552.191,Wohlstand,mafanikio,d,chimbuko,kumbuko,mapwaji,NA,NA,1,"c(""distractor1"", ""distractor2"", ""distractor3"")",NA,NA,NA,NA,NA,NA,NA,NA,NA,NA,NA,NA,NA,NA,NA,NA,NA,NA,NA
bb14a,shallow,flow.Sequence,2_15_0,NA,NA,completion,37485.845,1171037.2999997,1171032.919,1171049.568,1208535.413,1208537.0999999,2023-11-07T11:00:27Z,1208552.191,Wohlstand,mafanikio,d,chimbuko,kumbuko,mapwaji,NA,NA,NA,"c(""distractor1"", ""distractor2"", ""distractor3"")",NA,NA,NA,NA,NA,NA,NA,NA,NA,NA,NA,NA,NA,NA,NA,NA,NA,NA,NA
bb14a,task,flow.Sequence,2_15,NA,NA,completion,37485.845,1171037.0999999,1171032.919,1171049.568,1208535.413,1208537.2999997,2023-11-07T11:00:27Z,1208552.191,Wohlstand,mafanikio,d,chimbuko,kumbuko,mapwaji,NA,NA,NA,"c(""distractor1"", ""distractor2"", ""distractor3"")",NA,NA,NA,NA,NA,NA,NA,NA,NA,NA,NA,NA,NA,NA,NA,NA,NA,NA,NA
bb14a,retrieval block 2 (multiple choice),flow.Loop,2,NA,NA,completion,338471.814,870052.19999981,870047.245,870063.599,1208535.413,1208537.4000001,2023-11-07T11:00:27Z,1208552.191,NA,NA,NA,NA,NA,NA,NA,NA,NA,"c(""distractor1"", ""distractor2"", ""distractor3"")",NA,NA,NA,NA,NA,NA,NA,NA,NA,NA,NA,NA,NA,NA,NA,NA,NA,NA,NA
bb14a,End,canvas.Screen,3,NA,keypress(Space),response,2559.0089998092,1208537.4000001,1208535.413,1208552.191,1211111.1999998,1211113.0999999,2023-11-07T11:00:30Z,1211116.685,NA,NA,NA,NA,NA,NA,NA,NA,NA,NULL,NA,NA,NA,NA,NA,NA,NA,NA,NA,NA,NA,NA,NA,NA,NA,NA,NA,NA,NA
bb14a,root,flow.Sequence,NA,NA,NA,completion,1209750.5119998,1255.7999997139,1260.964,1360.688,1211111.1999998,1211114.4000001,2023-11-07T11:00:30Z,1211116.685,NA,NA,NA,NA,NA,NA,NA,NA,NA,NULL,NA,NA,NA,NA,NA,NA,NA,NA,NA,NA,NA,NA,NA,NA,NA,NA,NA,NA,NA
