observation,sender,sender_type,sender_id,response,response_action,ended_on,duration,time_run,time_render,time_show,time_end,time_commit,timestamp,time_switch,german,swahili,enc,distractor1,distractor2,distractor3,response_2,x,correct,distractors,url_vp,url_sess,meta_labjs_version,meta_location,meta_user_agent,meta_platform,meta_language,meta_locale,meta_time_zone,meta_timezone_offset,meta_screen_width,meta_screen_height,meta_scroll_width,meta_scroll_height,meta_window_inner_width,meta_window_inner_height,meta_device_pixel_ratio,meta_labjs_build_flavor,meta_labjs_build_commit
123d6,Introduction delayed retrieval,canvas.Screen,0,weiter,keypress(Space),response,9488.466,1465.6000000238,1446.533,1496.534,10985,11004.800000072,2023-05-22T07:59:28Z,11013.391,NA,NA,NA,NA,NA,NA,NA,NA,NA,NULL,127,2,20.2.4,https://neurocog.fernuni.ch/studies/vweber/delayed/index.html?vp=127&sess=2,"Mozilla/5.0 (Macintosh; Intel Mac OS X 10_15_7) AppleWebKit/537.36 (KHTML, like Gecko) Chrome/113.0.0.0 Safari/537.36",MacIntel,de-DE,de,Europe/Zurich,-120,1440,900,1440,749,1440,797,1,production,f5b4a49f956347addd546a832a3327688c2c0fef
123d6,Deep Question,html.Page,1_0_0_0,NA,NA,form submission,19511.509000095,11005.900000095,10996.724,11013.391,30524.900000095,30525.200000048,2023-05-22T07:59:48Z,30531.448,Hoffnung,matarajio,s,kutaalamika,uratibu,mvumbuzi,rarjevo,NA,NA,NULL,NA,NA,NA,NA,NA,NA,NA,NA,NA,NA,NA,NA,NA,NA,NA,NA,NA,NA,NA
123d6,Save data screen,canvas.Screen,1_0_0_1,NA,NA,timeout,500.01,30526.100000024,30514.781,30531.448,31014.791,31017.600000024,2023-05-22T07:59:48Z,31031.458,Hoffnung,matarajio,s,kutaalamika,uratibu,mvumbuzi,NA,NA,0,NULL,NA,NA,NA,NA,NA,NA,NA,NA,NA,NA,NA,NA,NA,NA,NA,NA,NA,NA,NA
123d6,deep,flow.Sequence,1_0_0,NA,NA,completion,20001.4,11005.900000095,10996.724,11013.391,31014.791,31017.900000095,2023-05-22T07:59:48Z,31031.458,Hoffnung,matarajio,s,kutaalamika,uratibu,mvumbuzi,NA,NA,NA,NULL,NA,NA,NA,NA,NA,NA,NA,NA,NA,NA,NA,NA,NA,NA,NA,NA,NA,NA,NA
123d6,task,flow.Sequence,1_0,NA,NA,completion,20001.4,11005.800000072,10996.724,11013.391,31014.791,31018,2023-05-22T07:59:48Z,31031.458,Hoffnung,matarajio,s,kutaalamika,uratibu,mvumbuzi,NA,NA,NA,NULL,NA,NA,NA,NA,NA,NA,NA,NA,NA,NA,NA,NA,NA,NA,NA,NA,NA,NA,NA
123d6,Deep Question,html.Page,1_1_0_0,NA,NA,form submission,14864.342000072,31018.100000024,31014.791,31031.458,45895.800000072,45896.200000048,2023-05-22T08:00:03Z,45899.463,Fenster,dirisha,d,walakini,tasawari,maarifa,sirivisha,NA,NA,NULL,NA,NA,NA,NA,NA,NA,NA,NA,NA,NA,NA,NA,NA,NA,NA,NA,NA,NA,NA
123d6,Save data screen,canvas.Screen,1_1_0_1,NA,NA,timeout,500.00999999999,45897.600000024,45882.796,45899.463,46382.806,46384.5,2023-05-22T08:00:04Z,46399.473,Fenster,dirisha,d,walakini,tasawari,maarifa,NA,NA,0,NULL,NA,NA,NA,NA,NA,NA,NA,NA,NA,NA,NA,NA,NA,NA,NA,NA,NA,NA,NA
123d6,deep,flow.Sequence,1_1_0,NA,NA,completion,15351.348,31018.100000024,31014.791,31031.458,46382.806,46385,2023-05-22T08:00:04Z,46399.473,Fenster,dirisha,d,walakini,tasawari,maarifa,NA,NA,NA,NULL,NA,NA,NA,NA,NA,NA,NA,NA,NA,NA,NA,NA,NA,NA,NA,NA,NA,NA,NA
123d6,task,flow.Sequence,1_1,NA,NA,completion,15351.348,31018,31014.791,31031.458,46382.806,46385.700000048,2023-05-22T08:00:04Z,46399.473,Fenster,dirisha,d,walakini,tasawari,maarifa,NA,NA,NA,NULL,NA,NA,NA,NA,NA,NA,NA,NA,NA,NA,NA,NA,NA,NA,NA,NA,NA,NA,NA
123d6,Deep Question,html.Page,1_2_0_0,NA,NA,form submission,2596.9270000954,46386,46382.806,46399.473,48996.400000095004,48996.700000048,2023-05-22T08:00:06Z,48999.525,Schüler,mwanafunzi,s,mwekezaji,matumizi,uaminifu,m,NA,NA,NULL,NA,NA,NA,NA,NA,NA,NA,NA,NA,NA,NA,NA,NA,NA,NA,NA,NA,NA,NA
123d6,Save data screen,canvas.Screen,1_2_0_1,NA,NA,timeout,500.01,48997.300000072,48982.858,48999.525,49482.868,49487.600000024,2023-05-22T08:00:07Z,49499.535,Schüler,mwanafunzi,s,mwekezaji,matumizi,uaminifu,NA,NA,0,NULL,NA,NA,NA,NA,NA,NA,NA,NA,NA,NA,NA,NA,NA,NA,NA,NA,NA,NA,NA
123d6,deep,flow.Sequence,1_2_0,NA,NA,completion,3083.395,46386,46382.806,46399.473,49482.868,49487.800000072,2023-05-22T08:00:07Z,49499.535,Schüler,mwanafunzi,s,mwekezaji,matumizi,uaminifu,NA,NA,NA,NULL,NA,NA,NA,NA,NA,NA,NA,NA,NA,NA,NA,NA,NA,NA,NA,NA,NA,NA,NA
123d6,task,flow.Sequence,1_2,NA,NA,completion,3083.395,46385.900000095004,46382.806,46399.473,49482.868,49488.100000024,2023-05-22T08:00:07Z,49499.535,Schüler,mwanafunzi,s,mwekezaji,matumizi,uaminifu,NA,NA,NA,NULL,NA,NA,NA,NA,NA,NA,NA,NA,NA,NA,NA,NA,NA,NA,NA,NA,NA,NA,NA
123d6,Deep Question,html.Page,1_3_0_0,NA,NA,form submission,12896.065000024,49488.300000072,49482.868,49499.535,62395.600000024,62395.900000095004,2023-05-22T08:00:20Z,62400.277,Notfall,dharura,s,rairai,malalamiko,ahueni,makarish,NA,NA,NULL,NA,NA,NA,NA,NA,NA,NA,NA,NA,NA,NA,NA,NA,NA,NA,NA,NA,NA,NA
123d6,Save data screen,canvas.Screen,1_3_0_1,NA,NA,timeout,500.00999999999,62396.800000072,62383.61,62400.277,62883.62,62887.900000095004,2023-05-22T08:00:20Z,62900.287,Notfall,dharura,s,rairai,malalamiko,ahueni,NA,NA,0,NULL,NA,NA,NA,NA,NA,NA,NA,NA,NA,NA,NA,NA,NA,NA,NA,NA,NA,NA,NA
123d6,deep,flow.Sequence,1_3_0,NA,NA,completion,13384.085,49488.200000048,49482.868,49499.535,62883.62,62888.300000072,2023-05-22T08:00:20Z,62900.287,Notfall,dharura,s,rairai,malalamiko,ahueni,NA,NA,NA,NULL,NA,NA,NA,NA,NA,NA,NA,NA,NA,NA,NA,NA,NA,NA,NA,NA,NA,NA,NA
123d6,task,flow.Sequence,1_3,NA,NA,completion,13384.085,49488.100000024,49482.868,49499.535,62883.62,62888.5,2023-05-22T08:00:20Z,62900.287,Notfall,dharura,s,rairai,malalamiko,ahueni,NA,NA,NA,NULL,NA,NA,NA,NA,NA,NA,NA,NA,NA,NA,NA,NA,NA,NA,NA,NA,NA,NA,NA
123d6,Deep Question,html.Page,1_4_0_0,NA,NA,form submission,2094.4130000477,62888.700000048,62883.62,62900.287,64994.700000048,64995.200000048,2023-05-22T08:00:22Z,65000.853,Tester,wanaojaribu,s,sherti,sihiri,mlipuko,m,NA,NA,NULL,NA,NA,NA,NA,NA,NA,NA,NA,NA,NA,NA,NA,NA,NA,NA,NA,NA,NA,NA
123d6,Save data screen,canvas.Screen,1_4_0_1,NA,NA,timeout,500.00999999999,64995.800000072,64984.186,65000.853,65484.196,65488.100000024,2023-05-22T08:00:23Z,65500.863,Tester,wanaojaribu,s,sherti,sihiri,mlipuko,NA,NA,0,NULL,NA,NA,NA,NA,NA,NA,NA,NA,NA,NA,NA,NA,NA,NA,NA,NA,NA,NA,NA
123d6,deep,flow.Sequence,1_4_0,NA,NA,completion,2583.909,62888.700000048,62883.62,62900.287,65484.196,65488.5,2023-05-22T08:00:23Z,65500.863,Tester,wanaojaribu,s,sherti,sihiri,mlipuko,NA,NA,NA,NULL,NA,NA,NA,NA,NA,NA,NA,NA,NA,NA,NA,NA,NA,NA,NA,NA,NA,NA,NA
123d6,task,flow.Sequence,1_4,NA,NA,completion,2583.909,62888.600000024,62883.62,62900.287,65484.196,65488.800000072,2023-05-22T08:00:23Z,65500.863,Tester,wanaojaribu,s,sherti,sihiri,mlipuko,NA,NA,NA,NULL,NA,NA,NA,NA,NA,NA,NA,NA,NA,NA,NA,NA,NA,NA,NA,NA,NA,NA,NA
123d6,Deep Question,html.Page,1_5_0_0,NA,NA,form submission,14770.537000095,65489.100000024,65484.196,65500.863,80271.400000095,80271.700000048,2023-05-22T08:00:38Z,80284.979,Vermutung,udhanifu,s,haramia,tikisho,itifaki,ana,NA,NA,NULL,NA,NA,NA,NA,NA,NA,NA,NA,NA,NA,NA,NA,NA,NA,NA,NA,NA,NA,NA
123d6,Save data screen,canvas.Screen,1_5_0_1,NA,NA,timeout,500.00999999999,80275,80268.312,80284.979,80768.322,80770.800000072,2023-05-22T08:00:38Z,80784.989,Vermutung,udhanifu,s,haramia,tikisho,itifaki,NA,NA,0,NULL,NA,NA,NA,NA,NA,NA,NA,NA,NA,NA,NA,NA,NA,NA,NA,NA,NA,NA,NA
123d6,deep,flow.Sequence,1_5_0,NA,NA,completion,15267.459,65489,65484.196,65500.863,80768.322,80770.900000095,2023-05-22T08:00:38Z,80784.989,Vermutung,udhanifu,s,haramia,tikisho,itifaki,NA,NA,NA,NULL,NA,NA,NA,NA,NA,NA,NA,NA,NA,NA,NA,NA,NA,NA,NA,NA,NA,NA,NA
123d6,task,flow.Sequence,1_5,NA,NA,completion,15267.459,65488.900000095004,65484.196,65500.863,80768.322,80771,2023-05-22T08:00:38Z,80784.989,Vermutung,udhanifu,s,haramia,tikisho,itifaki,NA,NA,NA,NULL,NA,NA,NA,NA,NA,NA,NA,NA,NA,NA,NA,NA,NA,NA,NA,NA,NA,NA,NA
123d6,Deep Question,html.Page,1_6_0_0,NA,NA,form submission,4183.7110000477,80771.300000072,80768.322,80784.989,84968.700000048,84969.200000048,2023-05-22T08:00:42Z,84985.554,Toleranz,kuvumiliana,d,maombolezo,ujasusi,mchekeshaji,m,NA,NA,NULL,NA,NA,NA,NA,NA,NA,NA,NA,NA,NA,NA,NA,NA,NA,NA,NA,NA,NA,NA
123d6,Save data screen,canvas.Screen,1_6_0_1,NA,NA,timeout,500.00999999999,84971.900000095,84968.887,84985.554,85468.897,85473.300000072,2023-05-22T08:00:43Z,85485.564,Toleranz,kuvumiliana,d,maombolezo,ujasusi,mchekeshaji,NA,NA,0,NULL,NA,NA,NA,NA,NA,NA,NA,NA,NA,NA,NA,NA,NA,NA,NA,NA,NA,NA,NA
123d6,deep,flow.Sequence,1_6_0,NA,NA,completion,4683.908,80771.200000048,80768.322,80784.989,85468.897,85473.5,2023-05-22T08:00:43Z,85485.564,Toleranz,kuvumiliana,d,maombolezo,ujasusi,mchekeshaji,NA,NA,NA,NULL,NA,NA,NA,NA,NA,NA,NA,NA,NA,NA,NA,NA,NA,NA,NA,NA,NA,NA,NA
123d6,task,flow.Sequence,1_6,NA,NA,completion,4683.908,80771.200000048,80768.322,80784.989,85468.897,85473.700000048,2023-05-22T08:00:43Z,85485.564,Toleranz,kuvumiliana,d,maombolezo,ujasusi,mchekeshaji,NA,NA,NA,NULL,NA,NA,NA,NA,NA,NA,NA,NA,NA,NA,NA,NA,NA,NA,NA,NA,NA,NA,NA
123d6,Deep Question,html.Page,1_7_0_0,NA,NA,form submission,4082.0360000238,85473.800000072,85468.897,85485.564,89567.600000024,89568,2023-05-22T08:00:47Z,89568.979,Schlange,foleni,d,uvumilivu,uteuzi,muuzaji,foleni,NA,NA,NULL,NA,NA,NA,NA,NA,NA,NA,NA,NA,NA,NA,NA,NA,NA,NA,NA,NA,NA,NA
123d6,Save data screen,canvas.Screen,1_7_0_1,NA,NA,timeout,500.00999999999,89569.600000024,89552.312,89568.979,90052.322,90054.700000048,2023-05-22T08:00:47Z,90068.989,Schlange,foleni,d,uvumilivu,uteuzi,muuzaji,NA,NA,1,NULL,NA,NA,NA,NA,NA,NA,NA,NA,NA,NA,NA,NA,NA,NA,NA,NA,NA,NA,NA
123d6,deep,flow.Sequence,1_7_0,NA,NA,completion,4566.758,85473.800000072,85468.897,85485.564,90052.322,90054.900000095,2023-05-22T08:00:47Z,90068.989,Schlange,foleni,d,uvumilivu,uteuzi,muuzaji,NA,NA,NA,NULL,NA,NA,NA,NA,NA,NA,NA,NA,NA,NA,NA,NA,NA,NA,NA,NA,NA,NA,NA
123d6,task,flow.Sequence,1_7,NA,NA,completion,4566.758,85473.700000048,85468.897,85485.564,90052.322,90055.100000024,2023-05-22T08:00:47Z,90068.989,Schlange,foleni,d,uvumilivu,uteuzi,muuzaji,NA,NA,NA,NULL,NA,NA,NA,NA,NA,NA,NA,NA,NA,NA,NA,NA,NA,NA,NA,NA,NA,NA,NA
123d6,Deep Question,html.Page,1_8_0_0,NA,NA,form submission,6381.8110000715,90055.300000072,90052.322,90068.989,96450.800000072,96451.100000024,2023-05-22T08:00:54Z,96452.946,Inhalt,yaliyomo,s,kishawishi,hifadhi,kutembea,m,NA,NA,NULL,NA,NA,NA,NA,NA,NA,NA,NA,NA,NA,NA,NA,NA,NA,NA,NA,NA,NA,NA
123d6,Save data screen,canvas.Screen,1_8_0_1,NA,NA,timeout,500.01000000001,96452.800000072,96436.279,96452.946,96936.289,96938,2023-05-22T08:00:54Z,96952.956,Inhalt,yaliyomo,s,kishawishi,hifadhi,kutembea,NA,NA,0,NULL,NA,NA,NA,NA,NA,NA,NA,NA,NA,NA,NA,NA,NA,NA,NA,NA,NA,NA,NA
123d6,deep,flow.Sequence,1_8_0,NA,NA,completion,6867.3,90055.300000072,90052.322,90068.989,96936.289,96938.100000024,2023-05-22T08:00:54Z,96952.956,Inhalt,yaliyomo,s,kishawishi,hifadhi,kutembea,NA,NA,NA,NULL,NA,NA,NA,NA,NA,NA,NA,NA,NA,NA,NA,NA,NA,NA,NA,NA,NA,NA,NA
123d6,task,flow.Sequence,1_8,NA,NA,completion,6867.3,90055.300000072,90052.322,90068.989,96936.289,96938.300000072,2023-05-22T08:00:54Z,96952.956,Inhalt,yaliyomo,s,kishawishi,hifadhi,kutembea,NA,NA,NA,NULL,NA,NA,NA,NA,NA,NA,NA,NA,NA,NA,NA,NA,NA,NA,NA,NA,NA,NA,NA
123d6,Deep Question,html.Page,1_9_0_0,NA,NA,form submission,3277.544,96938.5,96936.289,96952.956,100230.5,100231.10000002,2023-05-22T08:00:58Z,100236.355,Verpackung,ufungaji,s,uhusiano,upimaji,uchunguzi,m,NA,NA,NULL,NA,NA,NA,NA,NA,NA,NA,NA,NA,NA,NA,NA,NA,NA,NA,NA,NA,NA,NA
123d6,Save data screen,canvas.Screen,1_9_0_1,NA,NA,timeout,500.01000000001,100232,100219.688,100236.355,100719.698,100723.60000002,2023-05-22T08:00:58Z,100736.365,Verpackung,ufungaji,s,uhusiano,upimaji,uchunguzi,NA,NA,0,NULL,NA,NA,NA,NA,NA,NA,NA,NA,NA,NA,NA,NA,NA,NA,NA,NA,NA,NA,NA
123d6,deep,flow.Sequence,1_9_0,NA,NA,completion,3766.742,96938.5,96936.289,96952.956,100719.698,100723.70000005,2023-05-22T08:00:58Z,100736.365,Verpackung,ufungaji,s,uhusiano,upimaji,uchunguzi,NA,NA,NA,NULL,NA,NA,NA,NA,NA,NA,NA,NA,NA,NA,NA,NA,NA,NA,NA,NA,NA,NA,NA
123d6,task,flow.Sequence,1_9,NA,NA,completion,3766.742,96938.400000095,96936.289,96952.956,100719.698,100724.10000002,2023-05-22T08:00:58Z,100736.365,Verpackung,ufungaji,s,uhusiano,upimaji,uchunguzi,NA,NA,NA,NULL,NA,NA,NA,NA,NA,NA,NA,NA,NA,NA,NA,NA,NA,NA,NA,NA,NA,NA,NA
123d6,Deep Question,html.Page,1_10_0_0,NA,NA,form submission,37567.035000095,100724.20000005,100719.698,100736.365,138303.4000001,138304,2023-05-22T08:01:36Z,138322.38,Vergnügen,kichekesho,s,dubwana,mpanuko,mtesaji,m,NA,NA,NULL,NA,NA,NA,NA,NA,NA,NA,NA,NA,NA,NA,NA,NA,NA,NA,NA,NA,NA,NA
123d6,Save data screen,canvas.Screen,1_10_0_1,NA,NA,timeout,500.01000000001,138309.10000002,138305.713,138322.38,138805.723,138809.10000002,2023-05-22T08:01:36Z,138822.39,Vergnügen,kichekesho,s,dubwana,mpanuko,mtesaji,NA,NA,0,NULL,NA,NA,NA,NA,NA,NA,NA,NA,NA,NA,NA,NA,NA,NA,NA,NA,NA,NA,NA
123d6,deep,flow.Sequence,1_10_0,NA,NA,completion,38069.358,100724.20000005,100719.698,100736.365,138805.723,138809.30000007,2023-05-22T08:01:36Z,138822.39,Vergnügen,kichekesho,s,dubwana,mpanuko,mtesaji,NA,NA,NA,NULL,NA,NA,NA,NA,NA,NA,NA,NA,NA,NA,NA,NA,NA,NA,NA,NA,NA,NA,NA
123d6,task,flow.Sequence,1_10,NA,NA,completion,38069.358,100724.20000005,100719.698,100736.365,138805.723,138809.5,2023-05-22T08:01:36Z,138822.39,Vergnügen,kichekesho,s,dubwana,mpanuko,mtesaji,NA,NA,NA,NULL,NA,NA,NA,NA,NA,NA,NA,NA,NA,NA,NA,NA,NA,NA,NA,NA,NA,NA,NA
123d6,Deep Question,html.Page,1_11_0_0,NA,NA,form submission,2480.2100000238,138809.70000005,138805.723,138822.39,141302.60000002,141303,2023-05-22T08:01:39Z,141322.44,Wohlstand,mafanikio,d,chimbuko,kumbuko,mapwaji,m,NA,NA,NULL,NA,NA,NA,NA,NA,NA,NA,NA,NA,NA,NA,NA,NA,NA,NA,NA,NA,NA,NA
123d6,Save data screen,canvas.Screen,1_11_0_1,NA,NA,timeout,500.01000000001,141305.20000005,141305.773,141322.44,141805.783,141809.10000002,2023-05-22T08:01:39Z,141822.45,Wohlstand,mafanikio,d,chimbuko,kumbuko,mapwaji,NA,NA,0,NULL,NA,NA,NA,NA,NA,NA,NA,NA,NA,NA,NA,NA,NA,NA,NA,NA,NA,NA,NA
123d6,deep,flow.Sequence,1_11_0,NA,NA,completion,2983.393,138809.60000002,138805.723,138822.39,141805.783,141809.30000007,2023-05-22T08:01:39Z,141822.45,Wohlstand,mafanikio,d,chimbuko,kumbuko,mapwaji,NA,NA,NA,NULL,NA,NA,NA,NA,NA,NA,NA,NA,NA,NA,NA,NA,NA,NA,NA,NA,NA,NA,NA
123d6,task,flow.Sequence,1_11,NA,NA,completion,2983.393,138809.60000002,138805.723,138822.39,141805.783,141809.60000002,2023-05-22T08:01:39Z,141822.45,Wohlstand,mafanikio,d,chimbuko,kumbuko,mapwaji,NA,NA,NA,NULL,NA,NA,NA,NA,NA,NA,NA,NA,NA,NA,NA,NA,NA,NA,NA,NA,NA,NA,NA
123d6,Deep Question,html.Page,1_12_0_0,NA,NA,form submission,10461.850000072,141809.80000007,141805.783,141822.45,152284.30000007,152284.5,2023-05-22T08:01:50Z,152289.803,Schock,mshtuko,d,biashara,kukataza,vichekesho,mtkele,NA,NA,NULL,NA,NA,NA,NA,NA,NA,NA,NA,NA,NA,NA,NA,NA,NA,NA,NA,NA,NA,NA
123d6,Save data screen,canvas.Screen,1_12_0_1,NA,NA,timeout,500.00999999998,152286.70000005,152273.136,152289.803,152773.146,152778.10000002,2023-05-22T08:01:50Z,152789.813,Schock,mshtuko,d,biashara,kukataza,vichekesho,NA,NA,0,NULL,NA,NA,NA,NA,NA,NA,NA,NA,NA,NA,NA,NA,NA,NA,NA,NA,NA,NA,NA
123d6,deep,flow.Sequence,1_12_0,NA,NA,completion,10950.696,141809.70000005,141805.783,141822.45,152773.146,152778.30000007,2023-05-22T08:01:50Z,152789.813,Schock,mshtuko,d,biashara,kukataza,vichekesho,NA,NA,NA,NULL,NA,NA,NA,NA,NA,NA,NA,NA,NA,NA,NA,NA,NA,NA,NA,NA,NA,NA,NA
123d6,task,flow.Sequence,1_12,NA,NA,completion,10950.696,141809.70000005,141805.783,141822.45,152773.146,152778.4000001,2023-05-22T08:01:50Z,152789.813,Schock,mshtuko,d,biashara,kukataza,vichekesho,NA,NA,NA,NULL,NA,NA,NA,NA,NA,NA,NA,NA,NA,NA,NA,NA,NA,NA,NA,NA,NA,NA,NA
123d6,Deep Question,html.Page,1_13_0_0,NA,NA,form submission,1848.3870000477,152778.5,152773.146,152789.813,154638.20000005,154638.60000002,2023-05-22T08:01:52Z,154639.85,Ergänzung,kijalizo,d,ulaghai,mustarehe,matangazo,m,NA,NA,NULL,NA,NA,NA,NA,NA,NA,NA,NA,NA,NA,NA,NA,NA,NA,NA,NA,NA,NA,NA
123d6,Save data screen,canvas.Screen,1_13_0_1,NA,NA,timeout,500.00999999998,154640,154623.183,154639.85,155123.193,155128.70000005,2023-05-22T08:01:52Z,155139.86,Ergänzung,kijalizo,d,ulaghai,mustarehe,matangazo,NA,NA,0,NULL,NA,NA,NA,NA,NA,NA,NA,NA,NA,NA,NA,NA,NA,NA,NA,NA,NA,NA,NA
123d6,deep,flow.Sequence,1_13_0,NA,NA,completion,2333.38,152778.5,152773.146,152789.813,155123.193,155128.9000001,2023-05-22T08:01:52Z,155139.86,Ergänzung,kijalizo,d,ulaghai,mustarehe,matangazo,NA,NA,NA,NULL,NA,NA,NA,NA,NA,NA,NA,NA,NA,NA,NA,NA,NA,NA,NA,NA,NA,NA,NA
123d6,task,flow.Sequence,1_13,NA,NA,completion,2333.38,152778.5,152773.146,152789.813,155123.193,155128.9000001,2023-05-22T08:01:52Z,155139.86,Ergänzung,kijalizo,d,ulaghai,mustarehe,matangazo,NA,NA,NA,NULL,NA,NA,NA,NA,NA,NA,NA,NA,NA,NA,NA,NA,NA,NA,NA,NA,NA,NA,NA
123d6,Deep Question,html.Page,1_14_0_0,NA,NA,form submission,8500.7400000239,155129.10000002,155123.193,155139.86,163640.60000002,163640.9000001,2023-05-22T08:02:01Z,163657.256,Theorie,nadharia,d,ushungi,mkutano,uwakilishi,m,NA,NA,NULL,NA,NA,NA,NA,NA,NA,NA,NA,NA,NA,NA,NA,NA,NA,NA,NA,NA,NA,NA
123d6,Save data screen,canvas.Screen,1_14_0_1,NA,NA,timeout,500.01000000001,163642.60000002,163640.589,163657.256,164140.599,164144.30000007,2023-05-22T08:02:01Z,164157.266,Theorie,nadharia,d,ushungi,mkutano,uwakilishi,NA,NA,0,NULL,NA,NA,NA,NA,NA,NA,NA,NA,NA,NA,NA,NA,NA,NA,NA,NA,NA,NA,NA
123d6,deep,flow.Sequence,1_14_0,NA,NA,completion,9000.739,155129.10000002,155123.193,155139.86,164140.599,164144.60000002,2023-05-22T08:02:01Z,164157.266,Theorie,nadharia,d,ushungi,mkutano,uwakilishi,NA,NA,NA,NULL,NA,NA,NA,NA,NA,NA,NA,NA,NA,NA,NA,NA,NA,NA,NA,NA,NA,NA,NA
123d6,task,flow.Sequence,1_14,NA,NA,completion,9000.739,155129,155123.193,155139.86,164140.599,164145.10000002,2023-05-22T08:02:01Z,164157.266,Theorie,nadharia,d,ushungi,mkutano,uwakilishi,NA,NA,NA,NULL,NA,NA,NA,NA,NA,NA,NA,NA,NA,NA,NA,NA,NA,NA,NA,NA,NA,NA,NA
123d6,Deep Question,html.Page,1_15_0_0,NA,NA,form submission,5718.1340000954,164145.60000002,164140.599,164157.266,169875.4000001,169875.60000002,2023-05-22T08:02:07Z,169891.199,Spionage,upelelezi,d,maslahi,utokazo,magangao,m,NA,NA,NULL,NA,NA,NA,NA,NA,NA,NA,NA,NA,NA,NA,NA,NA,NA,NA,NA,NA,NA,NA
123d6,Save data screen,canvas.Screen,1_15_0_1,NA,NA,timeout,500.01000000001,169877.20000005,169874.532,169891.199,170374.542,170376.10000002,2023-05-22T08:02:08Z,170391.209,Spionage,upelelezi,d,maslahi,utokazo,magangao,NA,NA,0,NULL,NA,NA,NA,NA,NA,NA,NA,NA,NA,NA,NA,NA,NA,NA,NA,NA,NA,NA,NA
123d6,deep,flow.Sequence,1_15_0,NA,NA,completion,6217.276,164145.60000002,164140.599,164157.266,170374.542,170376.30000007,2023-05-22T08:02:08Z,170391.209,Spionage,upelelezi,d,maslahi,utokazo,magangao,NA,NA,NA,NULL,NA,NA,NA,NA,NA,NA,NA,NA,NA,NA,NA,NA,NA,NA,NA,NA,NA,NA,NA
123d6,task,flow.Sequence,1_15,NA,NA,completion,6217.276,164145.30000007,164140.599,164157.266,170374.542,170376.5,2023-05-22T08:02:08Z,170391.209,Spionage,upelelezi,d,maslahi,utokazo,magangao,NA,NA,NA,NULL,NA,NA,NA,NA,NA,NA,NA,NA,NA,NA,NA,NA,NA,NA,NA,NA,NA,NA,NA
123d6,retrieval block 1 (cued recall),flow.Loop,1,NA,NA,completion,159361.151,11005.400000095,10996.724,11013.391,170374.542,170376.60000002,2023-05-22T08:02:08Z,170391.209,NA,NA,NA,NA,NA,NA,NA,NA,NA,NULL,NA,NA,NA,NA,NA,NA,NA,NA,NA,NA,NA,NA,NA,NA,NA,NA,NA,NA,NA
123d6,Shallow Question,html.Page,2_0_0_0,NA,NA,form submission,5418.0910000715,170376.80000007,170374.542,170391.209,175809.30000007,175809.60000002,2023-05-22T08:02:13Z,175824.651,Verpackung,ufungaji,s,uhusiano,upimaji,uchunguzi,ufungaji,NA,NA,"c(""distractor1"", ""distractor2"", ""distractor3"")",NA,NA,NA,NA,NA,NA,NA,NA,NA,NA,NA,NA,NA,NA,NA,NA,NA,NA,NA
123d6,Save data screen,canvas.Screen,2_0_0_1,NA,NA,timeout,500.00999999998,175812,175807.984,175824.651,176307.994,176309.10000002,2023-05-22T08:02:14Z,176324.661,Verpackung,ufungaji,s,uhusiano,upimaji,uchunguzi,NA,NA,1,"c(""distractor1"", ""distractor2"", ""distractor3"")",NA,NA,NA,NA,NA,NA,NA,NA,NA,NA,NA,NA,NA,NA,NA,NA,NA,NA,NA
123d6,shallow,flow.Sequence,2_0_0,NA,NA,completion,5916.785,170376.80000007,170374.542,170391.209,176307.994,176309.4000001,2023-05-22T08:02:14Z,176324.661,Verpackung,ufungaji,s,uhusiano,upimaji,uchunguzi,NA,NA,NA,"c(""distractor1"", ""distractor2"", ""distractor3"")",NA,NA,NA,NA,NA,NA,NA,NA,NA,NA,NA,NA,NA,NA,NA,NA,NA,NA,NA
123d6,task,flow.Sequence,2_0,NA,NA,completion,5916.785,170376.70000005,170374.542,170391.209,176307.994,176309.5,2023-05-22T08:02:14Z,176324.661,Verpackung,ufungaji,s,uhusiano,upimaji,uchunguzi,NA,NA,NA,"c(""distractor1"", ""distractor2"", ""distractor3"")",NA,NA,NA,NA,NA,NA,NA,NA,NA,NA,NA,NA,NA,NA,NA,NA,NA,NA,NA
123d6,Shallow Question,html.Page,2_1_0_0,NA,NA,form submission,6320.839,176309.60000002,176307.994,176324.661,182645.5,182646.10000002,2023-05-22T08:02:20Z,182658.675,Schüler,mwanafunzi,s,mwekezaji,matumizi,uaminifu,mwanafunzi,NA,NA,"c(""distractor1"", ""distractor2"", ""distractor3"")",NA,NA,NA,NA,NA,NA,NA,NA,NA,NA,NA,NA,NA,NA,NA,NA,NA,NA,NA
123d6,Save data screen,canvas.Screen,2_1_0_1,NA,NA,timeout,500.01000000001,182649.4000001,182642.008,182658.675,183142.018,183142.80000007,2023-05-22T08:02:20Z,183158.685,Schüler,mwanafunzi,s,mwekezaji,matumizi,uaminifu,NA,NA,1,"c(""distractor1"", ""distractor2"", ""distractor3"")",NA,NA,NA,NA,NA,NA,NA,NA,NA,NA,NA,NA,NA,NA,NA,NA,NA,NA,NA
123d6,shallow,flow.Sequence,2_1_0,NA,NA,completion,6817.357,176309.60000002,176307.994,176324.661,183142.018,183143.10000002,2023-05-22T08:02:20Z,183158.685,Schüler,mwanafunzi,s,mwekezaji,matumizi,uaminifu,NA,NA,NA,"c(""distractor1"", ""distractor2"", ""distractor3"")",NA,NA,NA,NA,NA,NA,NA,NA,NA,NA,NA,NA,NA,NA,NA,NA,NA,NA,NA
123d6,task,flow.Sequence,2_1,NA,NA,completion,6817.357,176309.60000002,176307.994,176324.661,183142.018,183143.80000007,2023-05-22T08:02:20Z,183158.685,Schüler,mwanafunzi,s,mwekezaji,matumizi,uaminifu,NA,NA,NA,"c(""distractor1"", ""distractor2"", ""distractor3"")",NA,NA,NA,NA,NA,NA,NA,NA,NA,NA,NA,NA,NA,NA,NA,NA,NA,NA,NA
123d6,Shallow Question,html.Page,2_2_0_0,NA,NA,form submission,6485.2150000954,183143.9000001,183142.018,183158.685,189643.9000001,189644.20000005,2023-05-22T08:02:27Z,189658.815,Notfall,dharura,s,rairai,malalamiko,ahueni,dharura,NA,NA,"c(""distractor1"", ""distractor2"", ""distractor3"")",NA,NA,NA,NA,NA,NA,NA,NA,NA,NA,NA,NA,NA,NA,NA,NA,NA,NA,NA
123d6,Save data screen,canvas.Screen,2_2_0_1,NA,NA,timeout,500.48800000001,189648.5,189642.148,189658.815,190142.636,190144.30000007,2023-05-22T08:02:27Z,190159.303,Notfall,dharura,s,rairai,malalamiko,ahueni,NA,NA,1,"c(""distractor1"", ""distractor2"", ""distractor3"")",NA,NA,NA,NA,NA,NA,NA,NA,NA,NA,NA,NA,NA,NA,NA,NA,NA,NA,NA
123d6,shallow,flow.Sequence,2_2_0,NA,NA,completion,6983.951,183143.9000001,183142.018,183158.685,190142.636,190144.60000002,2023-05-22T08:02:27Z,190159.303,Notfall,dharura,s,rairai,malalamiko,ahueni,NA,NA,NA,"c(""distractor1"", ""distractor2"", ""distractor3"")",NA,NA,NA,NA,NA,NA,NA,NA,NA,NA,NA,NA,NA,NA,NA,NA,NA,NA,NA
123d6,task,flow.Sequence,2_2,NA,NA,completion,6983.951,183143.80000007,183142.018,183158.685,190142.636,190145.10000002,2023-05-22T08:02:27Z,190159.303,Notfall,dharura,s,rairai,malalamiko,ahueni,NA,NA,NA,"c(""distractor1"", ""distractor2"", ""distractor3"")",NA,NA,NA,NA,NA,NA,NA,NA,NA,NA,NA,NA,NA,NA,NA,NA,NA,NA,NA
123d6,Shallow Question,html.Page,2_3_0_0,NA,NA,form submission,6590.697,190145.4000001,190142.636,190159.303,196750,196750.30000007,2023-05-22T08:02:34Z,196759.435,Tester,wanaojaribu,s,sherti,sihiri,mlipuko,wanaojaribu,NA,NA,"c(""distractor1"", ""distractor2"", ""distractor3"")",NA,NA,NA,NA,NA,NA,NA,NA,NA,NA,NA,NA,NA,NA,NA,NA,NA,NA,NA
123d6,Save data screen,canvas.Screen,2_3_0_1,NA,NA,timeout,500.01000000001,196752.70000005,196742.768,196759.435,197242.778,197247.80000007,2023-05-22T08:02:35Z,197259.445,Tester,wanaojaribu,s,sherti,sihiri,mlipuko,NA,NA,1,"c(""distractor1"", ""distractor2"", ""distractor3"")",NA,NA,NA,NA,NA,NA,NA,NA,NA,NA,NA,NA,NA,NA,NA,NA,NA,NA,NA
123d6,shallow,flow.Sequence,2_3_0,NA,NA,completion,7083.475,190145.4000001,190142.636,190159.303,197242.778,197248.10000002,2023-05-22T08:02:35Z,197259.445,Tester,wanaojaribu,s,sherti,sihiri,mlipuko,NA,NA,NA,"c(""distractor1"", ""distractor2"", ""distractor3"")",NA,NA,NA,NA,NA,NA,NA,NA,NA,NA,NA,NA,NA,NA,NA,NA,NA,NA,NA
123d6,task,flow.Sequence,2_3,NA,NA,completion,7083.475,190145.4000001,190142.636,190159.303,197242.778,197248.30000007,2023-05-22T08:02:35Z,197259.445,Tester,wanaojaribu,s,sherti,sihiri,mlipuko,NA,NA,NA,"c(""distractor1"", ""distractor2"", ""distractor3"")",NA,NA,NA,NA,NA,NA,NA,NA,NA,NA,NA,NA,NA,NA,NA,NA,NA,NA,NA
123d6,Shallow Question,html.Page,2_4_0_0,NA,NA,form submission,4280.6550000238,197248.5,197242.778,197259.445,201540.10000002,201540.4000001,2023-05-22T08:02:39Z,201543.38,Vermutung,udhanifu,s,haramia,tikisho,itifaki,udhanifu,NA,NA,"c(""distractor1"", ""distractor2"", ""distractor3"")",NA,NA,NA,NA,NA,NA,NA,NA,NA,NA,NA,NA,NA,NA,NA,NA,NA,NA,NA
123d6,Save data screen,canvas.Screen,2_4_0_1,NA,NA,timeout,500.01000000001,201541.70000005,201526.713,201543.38,202026.723,202031,2023-05-22T08:02:39Z,202043.39,Vermutung,udhanifu,s,haramia,tikisho,itifaki,NA,NA,1,"c(""distractor1"", ""distractor2"", ""distractor3"")",NA,NA,NA,NA,NA,NA,NA,NA,NA,NA,NA,NA,NA,NA,NA,NA,NA,NA,NA
123d6,shallow,flow.Sequence,2_4_0,NA,NA,completion,4767.278,197248.5,197242.778,197259.445,202026.723,202031.4000001,2023-05-22T08:02:39Z,202043.39,Vermutung,udhanifu,s,haramia,tikisho,itifaki,NA,NA,NA,"c(""distractor1"", ""distractor2"", ""distractor3"")",NA,NA,NA,NA,NA,NA,NA,NA,NA,NA,NA,NA,NA,NA,NA,NA,NA,NA,NA
123d6,task,flow.Sequence,2_4,NA,NA,completion,4767.278,197248.4000001,197242.778,197259.445,202026.723,202031.60000002,2023-05-22T08:02:39Z,202043.39,Vermutung,udhanifu,s,haramia,tikisho,itifaki,NA,NA,NA,"c(""distractor1"", ""distractor2"", ""distractor3"")",NA,NA,NA,NA,NA,NA,NA,NA,NA,NA,NA,NA,NA,NA,NA,NA,NA,NA,NA
123d6,Shallow Question,html.Page,2_5_0_0,NA,NA,form submission,10372.910000072,202031.80000007,202026.723,202043.39,212416.30000007,212416.60000002,2023-05-22T08:02:50Z,212427.408,Ergänzung,kijalizo,d,ulaghai,mustarehe,matangazo,matangazo,NA,NA,"c(""distractor1"", ""distractor2"", ""distractor3"")",NA,NA,NA,NA,NA,NA,NA,NA,NA,NA,NA,NA,NA,NA,NA,NA,NA,NA,NA
123d6,Save data screen,canvas.Screen,2_5_0_1,NA,NA,timeout,500.01000000001,212418,212410.741,212427.408,212910.751,212914.9000001,2023-05-22T08:02:50Z,212927.418,Ergänzung,kijalizo,d,ulaghai,mustarehe,matangazo,NA,NA,0,"c(""distractor1"", ""distractor2"", ""distractor3"")",NA,NA,NA,NA,NA,NA,NA,NA,NA,NA,NA,NA,NA,NA,NA,NA,NA,NA,NA
123d6,shallow,flow.Sequence,2_5_0,NA,NA,completion,10867.361,202031.80000007,202026.723,202043.39,212910.751,212915.20000005,2023-05-22T08:02:50Z,212927.418,Ergänzung,kijalizo,d,ulaghai,mustarehe,matangazo,NA,NA,NA,"c(""distractor1"", ""distractor2"", ""distractor3"")",NA,NA,NA,NA,NA,NA,NA,NA,NA,NA,NA,NA,NA,NA,NA,NA,NA,NA,NA
123d6,task,flow.Sequence,2_5,NA,NA,completion,10867.361,202031.80000007,202026.723,202043.39,212910.751,212915.4000001,2023-05-22T08:02:50Z,212927.418,Ergänzung,kijalizo,d,ulaghai,mustarehe,matangazo,NA,NA,NA,"c(""distractor1"", ""distractor2"", ""distractor3"")",NA,NA,NA,NA,NA,NA,NA,NA,NA,NA,NA,NA,NA,NA,NA,NA,NA,NA,NA
123d6,Shallow Question,html.Page,2_6_0_0,NA,NA,form submission,4067.6820000238,212915.60000002,212910.751,212927.418,216995.10000002,216995.4000001,2023-05-22T08:02:54Z,217010.833,Toleranz,kuvumiliana,d,maombolezo,ujasusi,mchekeshaji,kuvumiliana,NA,NA,"c(""distractor1"", ""distractor2"", ""distractor3"")",NA,NA,NA,NA,NA,NA,NA,NA,NA,NA,NA,NA,NA,NA,NA,NA,NA,NA,NA
123d6,Save data screen,canvas.Screen,2_6_0_1,NA,NA,timeout,500.00999999998,216996.9000001,216994.166,217010.833,217494.176,217497.20000005,2023-05-22T08:02:55Z,217510.843,Toleranz,kuvumiliana,d,maombolezo,ujasusi,mchekeshaji,NA,NA,1,"c(""distractor1"", ""distractor2"", ""distractor3"")",NA,NA,NA,NA,NA,NA,NA,NA,NA,NA,NA,NA,NA,NA,NA,NA,NA,NA,NA
123d6,shallow,flow.Sequence,2_6_0,NA,NA,completion,4566.758,212915.60000002,212910.751,212927.418,217494.176,217497.4000001,2023-05-22T08:02:55Z,217510.843,Toleranz,kuvumiliana,d,maombolezo,ujasusi,mchekeshaji,NA,NA,NA,"c(""distractor1"", ""distractor2"", ""distractor3"")",NA,NA,NA,NA,NA,NA,NA,NA,NA,NA,NA,NA,NA,NA,NA,NA,NA,NA,NA
123d6,task,flow.Sequence,2_6,NA,NA,completion,4566.758,212915.5,212910.751,212927.418,217494.176,217497.60000002,2023-05-22T08:02:55Z,217510.843,Toleranz,kuvumiliana,d,maombolezo,ujasusi,mchekeshaji,NA,NA,NA,"c(""distractor1"", ""distractor2"", ""distractor3"")",NA,NA,NA,NA,NA,NA,NA,NA,NA,NA,NA,NA,NA,NA,NA,NA,NA,NA,NA
123d6,Shallow Question,html.Page,2_7_0_0,NA,NA,form submission,10753.657,217497.9000001,217494.176,217510.843,228264.5,228265,2023-05-22T08:03:06Z,228278.216,Wohlstand,mafanikio,d,chimbuko,kumbuko,mapwaji,mafanikio,NA,NA,"c(""distractor1"", ""distractor2"", ""distractor3"")",NA,NA,NA,NA,NA,NA,NA,NA,NA,NA,NA,NA,NA,NA,NA,NA,NA,NA,NA
123d6,Save data screen,canvas.Screen,2_7_0_1,NA,NA,timeout,500.01000000001,228268.5,228261.549,228278.216,228761.559,228764.20000005,2023-05-22T08:03:06Z,228778.226,Wohlstand,mafanikio,d,chimbuko,kumbuko,mapwaji,NA,NA,1,"c(""distractor1"", ""distractor2"", ""distractor3"")",NA,NA,NA,NA,NA,NA,NA,NA,NA,NA,NA,NA,NA,NA,NA,NA,NA,NA,NA
123d6,shallow,flow.Sequence,2_7_0,NA,NA,completion,11250.716,217497.80000007,217494.176,217510.843,228761.559,228764.5,2023-05-22T08:03:06Z,228778.226,Wohlstand,mafanikio,d,chimbuko,kumbuko,mapwaji,NA,NA,NA,"c(""distractor1"", ""distractor2"", ""distractor3"")",NA,NA,NA,NA,NA,NA,NA,NA,NA,NA,NA,NA,NA,NA,NA,NA,NA,NA,NA
123d6,task,flow.Sequence,2_7,NA,NA,completion,11250.716,217497.70000005,217494.176,217510.843,228761.559,228764.9000001,2023-05-22T08:03:06Z,228778.226,Wohlstand,mafanikio,d,chimbuko,kumbuko,mapwaji,NA,NA,NA,"c(""distractor1"", ""distractor2"", ""distractor3"")",NA,NA,NA,NA,NA,NA,NA,NA,NA,NA,NA,NA,NA,NA,NA,NA,NA,NA,NA
123d6,Shallow Question,html.Page,2_8_0_0,NA,NA,form submission,1994.3740000238,228765.20000005,228761.559,228778.226,230772.60000002,230773.10000002,2023-05-22T08:03:08Z,230778.266,Schlange,foleni,d,uvumilivu,uteuzi,muuzaji,foleni,NA,NA,"c(""distractor1"", ""distractor2"", ""distractor3"")",NA,NA,NA,NA,NA,NA,NA,NA,NA,NA,NA,NA,NA,NA,NA,NA,NA,NA,NA
123d6,Save data screen,canvas.Screen,2_8_0_1,NA,NA,timeout,500.01000000001,230774.10000002,230761.599,230778.266,231261.609,231264.70000005,2023-05-22T08:03:09Z,231278.276,Schlange,foleni,d,uvumilivu,uteuzi,muuzaji,NA,NA,1,"c(""distractor1"", ""distractor2"", ""distractor3"")",NA,NA,NA,NA,NA,NA,NA,NA,NA,NA,NA,NA,NA,NA,NA,NA,NA,NA,NA
123d6,shallow,flow.Sequence,2_8_0,NA,NA,completion,2483.383,228765.10000002,228761.559,228778.226,231261.609,231265.10000002,2023-05-22T08:03:09Z,231278.276,Schlange,foleni,d,uvumilivu,uteuzi,muuzaji,NA,NA,NA,"c(""distractor1"", ""distractor2"", ""distractor3"")",NA,NA,NA,NA,NA,NA,NA,NA,NA,NA,NA,NA,NA,NA,NA,NA,NA,NA,NA
123d6,task,flow.Sequence,2_8,NA,NA,completion,2483.383,228765,228761.559,228778.226,231261.609,231265.10000002,2023-05-22T08:03:09Z,231278.276,Schlange,foleni,d,uvumilivu,uteuzi,muuzaji,NA,NA,NA,"c(""distractor1"", ""distractor2"", ""distractor3"")",NA,NA,NA,NA,NA,NA,NA,NA,NA,NA,NA,NA,NA,NA,NA,NA,NA,NA,NA
123d6,Shallow Question,html.Page,2_9_0_0,NA,NA,form submission,2608.0240000715,231265.20000005,231261.609,231278.276,233886.30000007,233888.10000002,2023-05-22T08:03:11Z,233895.486,Hoffnung,matarajio,s,kutaalamika,uratibu,mvumbuzi,matarajio,NA,NA,"c(""distractor1"", ""distractor2"", ""distractor3"")",NA,NA,NA,NA,NA,NA,NA,NA,NA,NA,NA,NA,NA,NA,NA,NA,NA,NA,NA
123d6,Save data screen,canvas.Screen,2_9_0_1,NA,NA,timeout,500.01000000001,233888.9000001,233878.819,233895.486,234378.829,234382.9000001,2023-05-22T08:03:12Z,234395.496,Hoffnung,matarajio,s,kutaalamika,uratibu,mvumbuzi,NA,NA,1,"c(""distractor1"", ""distractor2"", ""distractor3"")",NA,NA,NA,NA,NA,NA,NA,NA,NA,NA,NA,NA,NA,NA,NA,NA,NA,NA,NA
123d6,shallow,flow.Sequence,2_9_0,NA,NA,completion,3100.553,231265.20000005,231261.609,231278.276,234378.829,234383.30000007,2023-05-22T08:03:12Z,234395.496,Hoffnung,matarajio,s,kutaalamika,uratibu,mvumbuzi,NA,NA,NA,"c(""distractor1"", ""distractor2"", ""distractor3"")",NA,NA,NA,NA,NA,NA,NA,NA,NA,NA,NA,NA,NA,NA,NA,NA,NA,NA,NA
123d6,task,flow.Sequence,2_9,NA,NA,completion,3100.553,231265.20000005,231261.609,231278.276,234378.829,234383.5,2023-05-22T08:03:12Z,234395.496,Hoffnung,matarajio,s,kutaalamika,uratibu,mvumbuzi,NA,NA,NA,"c(""distractor1"", ""distractor2"", ""distractor3"")",NA,NA,NA,NA,NA,NA,NA,NA,NA,NA,NA,NA,NA,NA,NA,NA,NA,NA,NA
123d6,Shallow Question,html.Page,2_10_0_0,NA,NA,form submission,3210.2040000477,234383.70000005,234378.829,234395.496,237605.70000005,237606,2023-05-22T08:03:15Z,237612.227,Inhalt,yaliyomo,s,kishawishi,hifadhi,kutembea,yaliyomo,NA,NA,"c(""distractor1"", ""distractor2"", ""distractor3"")",NA,NA,NA,NA,NA,NA,NA,NA,NA,NA,NA,NA,NA,NA,NA,NA,NA,NA,NA
123d6,Save data screen,canvas.Screen,2_10_0_1,NA,NA,timeout,500.00999999998,237607.9000001,237595.56,237612.227,238095.57,238097.80000007,2023-05-22T08:03:15Z,238112.237,Inhalt,yaliyomo,s,kishawishi,hifadhi,kutembea,NA,NA,1,"c(""distractor1"", ""distractor2"", ""distractor3"")",NA,NA,NA,NA,NA,NA,NA,NA,NA,NA,NA,NA,NA,NA,NA,NA,NA,NA,NA
123d6,shallow,flow.Sequence,2_10_0,NA,NA,completion,3700.074,234383.70000005,234378.829,234395.496,238095.57,238098,2023-05-22T08:03:15Z,238112.237,Inhalt,yaliyomo,s,kishawishi,hifadhi,kutembea,NA,NA,NA,"c(""distractor1"", ""distractor2"", ""distractor3"")",NA,NA,NA,NA,NA,NA,NA,NA,NA,NA,NA,NA,NA,NA,NA,NA,NA,NA,NA
123d6,task,flow.Sequence,2_10,NA,NA,completion,3700.074,234383.70000005,234378.829,234395.496,238095.57,238098.10000002,2023-05-22T08:03:15Z,238112.237,Inhalt,yaliyomo,s,kishawishi,hifadhi,kutembea,NA,NA,NA,"c(""distractor1"", ""distractor2"", ""distractor3"")",NA,NA,NA,NA,NA,NA,NA,NA,NA,NA,NA,NA,NA,NA,NA,NA,NA,NA,NA
123d6,Shallow Question,html.Page,2_11_0_0,NA,NA,form submission,2699.1630000954,238098.20000005,238095.57,238112.237,240811.4000001,240811.60000002,2023-05-22T08:03:18Z,240812.291,Schock,mshtuko,d,biashara,kukataza,vichekesho,mshtuko,NA,NA,"c(""distractor1"", ""distractor2"", ""distractor3"")",NA,NA,NA,NA,NA,NA,NA,NA,NA,NA,NA,NA,NA,NA,NA,NA,NA,NA,NA
123d6,Save data screen,canvas.Screen,2_11_0_1,NA,NA,timeout,500.01000000001,240812.9000001,240795.624,240812.291,241295.634,241298.10000002,2023-05-22T08:03:19Z,241312.301,Schock,mshtuko,d,biashara,kukataza,vichekesho,NA,NA,1,"c(""distractor1"", ""distractor2"", ""distractor3"")",NA,NA,NA,NA,NA,NA,NA,NA,NA,NA,NA,NA,NA,NA,NA,NA,NA,NA,NA
123d6,shallow,flow.Sequence,2_11_0,NA,NA,completion,3183.397,238098.10000002,238095.57,238112.237,241295.634,241298.30000007,2023-05-22T08:03:19Z,241312.301,Schock,mshtuko,d,biashara,kukataza,vichekesho,NA,NA,NA,"c(""distractor1"", ""distractor2"", ""distractor3"")",NA,NA,NA,NA,NA,NA,NA,NA,NA,NA,NA,NA,NA,NA,NA,NA,NA,NA,NA
123d6,task,flow.Sequence,2_11,NA,NA,completion,3183.397,238098.10000002,238095.57,238112.237,241295.634,241298.30000007,2023-05-22T08:03:19Z,241312.301,Schock,mshtuko,d,biashara,kukataza,vichekesho,NA,NA,NA,"c(""distractor1"", ""distractor2"", ""distractor3"")",NA,NA,NA,NA,NA,NA,NA,NA,NA,NA,NA,NA,NA,NA,NA,NA,NA,NA,NA
123d6,Shallow Question,html.Page,2_12_0_0,NA,NA,form submission,7365.7990000238,241298.5,241295.634,241312.301,248678.10000002,248678.4000001,2023-05-22T08:03:26Z,248679.591,Theorie,nadharia,d,ushungi,mkutano,uwakilishi,mkutano,NA,NA,"c(""distractor1"", ""distractor2"", ""distractor3"")",NA,NA,NA,NA,NA,NA,NA,NA,NA,NA,NA,NA,NA,NA,NA,NA,NA,NA,NA
123d6,Save data screen,canvas.Screen,2_12_0_1,NA,NA,timeout,500.01000000001,248681.60000002,248662.924,248679.591,249162.934,249167.60000002,2023-05-22T08:03:26Z,249179.601,Theorie,nadharia,d,ushungi,mkutano,uwakilishi,NA,NA,0,"c(""distractor1"", ""distractor2"", ""distractor3"")",NA,NA,NA,NA,NA,NA,NA,NA,NA,NA,NA,NA,NA,NA,NA,NA,NA,NA,NA
123d6,shallow,flow.Sequence,2_12_0,NA,NA,completion,7850.633,241298.5,241295.634,241312.301,249162.934,249167.80000007,2023-05-22T08:03:26Z,249179.601,Theorie,nadharia,d,ushungi,mkutano,uwakilishi,NA,NA,NA,"c(""distractor1"", ""distractor2"", ""distractor3"")",NA,NA,NA,NA,NA,NA,NA,NA,NA,NA,NA,NA,NA,NA,NA,NA,NA,NA,NA
123d6,task,flow.Sequence,2_12,NA,NA,completion,7850.633,241298.4000001,241295.634,241312.301,249162.934,249167.9000001,2023-05-22T08:03:26Z,249179.601,Theorie,nadharia,d,ushungi,mkutano,uwakilishi,NA,NA,NA,"c(""distractor1"", ""distractor2"", ""distractor3"")",NA,NA,NA,NA,NA,NA,NA,NA,NA,NA,NA,NA,NA,NA,NA,NA,NA,NA,NA
123d6,Shallow Question,html.Page,2_13_0_0,NA,NA,form submission,6350.0990000477,249168,249162.934,249179.601,255529.70000005,255529.9000001,2023-05-22T08:03:33Z,255546.395,Spionage,upelelezi,d,maslahi,utokazo,magangao,upelelezi,NA,NA,"c(""distractor1"", ""distractor2"", ""distractor3"")",NA,NA,NA,NA,NA,NA,NA,NA,NA,NA,NA,NA,NA,NA,NA,NA,NA,NA,NA
123d6,Save data screen,canvas.Screen,2_13_0_1,NA,NA,timeout,500.01000000001,255532.10000002,255529.728,255546.395,256029.738,256032.80000007,2023-05-22T08:03:33Z,256046.405,Spionage,upelelezi,d,maslahi,utokazo,magangao,NA,NA,1,"c(""distractor1"", ""distractor2"", ""distractor3"")",NA,NA,NA,NA,NA,NA,NA,NA,NA,NA,NA,NA,NA,NA,NA,NA,NA,NA,NA
123d6,shallow,flow.Sequence,2_13_0,NA,NA,completion,6850.137,249168,249162.934,249179.601,256029.738,256033,2023-05-22T08:03:33Z,256046.405,Spionage,upelelezi,d,maslahi,utokazo,magangao,NA,NA,NA,"c(""distractor1"", ""distractor2"", ""distractor3"")",NA,NA,NA,NA,NA,NA,NA,NA,NA,NA,NA,NA,NA,NA,NA,NA,NA,NA,NA
123d6,task,flow.Sequence,2_13,NA,NA,completion,6850.137,249168,249162.934,249179.601,256029.738,256033.20000005,2023-05-22T08:03:33Z,256046.405,Spionage,upelelezi,d,maslahi,utokazo,magangao,NA,NA,NA,"c(""distractor1"", ""distractor2"", ""distractor3"")",NA,NA,NA,NA,NA,NA,NA,NA,NA,NA,NA,NA,NA,NA,NA,NA,NA,NA,NA
123d6,Shallow Question,html.Page,2_14_0_0,NA,NA,form submission,2521.9950000954,256033.4000001,256029.738,256046.405,258568.4000001,258568.60000002,2023-05-22T08:03:36Z,258579.789,Fenster,dirisha,d,walakini,tasawari,maarifa,dirisha,NA,NA,"c(""distractor1"", ""distractor2"", ""distractor3"")",NA,NA,NA,NA,NA,NA,NA,NA,NA,NA,NA,NA,NA,NA,NA,NA,NA,NA,NA
123d6,Save data screen,canvas.Screen,2_14_0_1,NA,NA,timeout,500.01000000001,258570.20000005,258563.122,258579.789,259063.132,259067.80000007,2023-05-22T08:03:36Z,259079.799,Fenster,dirisha,d,walakini,tasawari,maarifa,NA,NA,1,"c(""distractor1"", ""distractor2"", ""distractor3"")",NA,NA,NA,NA,NA,NA,NA,NA,NA,NA,NA,NA,NA,NA,NA,NA,NA,NA,NA
123d6,shallow,flow.Sequence,2_14_0,NA,NA,completion,3016.727,256033.30000007,256029.738,256046.405,259063.132,259068.10000002,2023-05-22T08:03:36Z,259079.799,Fenster,dirisha,d,walakini,tasawari,maarifa,NA,NA,NA,"c(""distractor1"", ""distractor2"", ""distractor3"")",NA,NA,NA,NA,NA,NA,NA,NA,NA,NA,NA,NA,NA,NA,NA,NA,NA,NA,NA
123d6,task,flow.Sequence,2_14,NA,NA,completion,3016.727,256033.30000007,256029.738,256046.405,259063.132,259068.30000007,2023-05-22T08:03:36Z,259079.799,Fenster,dirisha,d,walakini,tasawari,maarifa,NA,NA,NA,"c(""distractor1"", ""distractor2"", ""distractor3"")",NA,NA,NA,NA,NA,NA,NA,NA,NA,NA,NA,NA,NA,NA,NA,NA,NA,NA,NA
123d6,Shallow Question,html.Page,2_15_0_0,NA,NA,form submission,6273.8010000238,259068.5,259063.132,259079.799,265353.60000002,265353.70000005,2023-05-22T08:03:43Z,265364.215,Vergnügen,kichekesho,s,dubwana,mpanuko,mtesaji,kichekesho,NA,NA,"c(""distractor1"", ""distractor2"", ""distractor3"")",NA,NA,NA,NA,NA,NA,NA,NA,NA,NA,NA,NA,NA,NA,NA,NA,NA,NA,NA
123d6,Save data screen,canvas.Screen,2_15_0_1,NA,NA,timeout,500.00999999995,265355.10000002,265347.548,265364.215,265847.558,265851.30000007,2023-05-22T08:03:43Z,265864.225,Vergnügen,kichekesho,s,dubwana,mpanuko,mtesaji,NA,NA,1,"c(""distractor1"", ""distractor2"", ""distractor3"")",NA,NA,NA,NA,NA,NA,NA,NA,NA,NA,NA,NA,NA,NA,NA,NA,NA,NA,NA
123d6,shallow,flow.Sequence,2_15_0,NA,NA,completion,6767.759,259068.5,259063.132,259079.799,265847.558,265851.60000002,2023-05-22T08:03:43Z,265864.225,Vergnügen,kichekesho,s,dubwana,mpanuko,mtesaji,NA,NA,NA,"c(""distractor1"", ""distractor2"", ""distractor3"")",NA,NA,NA,NA,NA,NA,NA,NA,NA,NA,NA,NA,NA,NA,NA,NA,NA,NA,NA
123d6,task,flow.Sequence,2_15,NA,NA,completion,6767.759,259068.4000001,259063.132,259079.799,265847.558,265851.9000001,2023-05-22T08:03:43Z,265864.225,Vergnügen,kichekesho,s,dubwana,mpanuko,mtesaji,NA,NA,NA,"c(""distractor1"", ""distractor2"", ""distractor3"")",NA,NA,NA,NA,NA,NA,NA,NA,NA,NA,NA,NA,NA,NA,NA,NA,NA,NA,NA
123d6,retrieval block 2 (multiple choice),flow.Loop,2,NA,NA,completion,95456.349,170376.70000005,170374.542,170391.209,265847.558,265852.20000005,2023-05-22T08:03:43Z,265864.225,NA,NA,NA,NA,NA,NA,NA,NA,NA,"c(""distractor1"", ""distractor2"", ""distractor3"")",NA,NA,NA,NA,NA,NA,NA,NA,NA,NA,NA,NA,NA,NA,NA,NA,NA,NA,NA
123d6,End,canvas.Screen,3,NA,keypress(Space),response,1094.8750000239,265852.4000001,265847.558,265864.225,266959.10000002,266962.10000002,2023-05-22T08:03:44Z,266964.247,NA,NA,NA,NA,NA,NA,NA,NA,NA,NULL,NA,NA,NA,NA,NA,NA,NA,NA,NA,NA,NA,NA,NA,NA,NA,NA,NA,NA,NA
123d6,root,flow.Sequence,NA,NA,NA,completion,265462.56600002,1465.4000000954,1446.533,1496.534,266959.10000002,266963,2023-05-22T08:03:44Z,266964.247,NA,NA,NA,NA,NA,NA,NA,NA,NA,NULL,NA,NA,NA,NA,NA,NA,NA,NA,NA,NA,NA,NA,NA,NA,NA,NA,NA,NA,NA
