observation,sender,sender_type,sender_id,response,response_action,ended_on,duration,time_run,time_render,time_show,time_end,time_commit,timestamp,time_switch,german,swahili,enc,distractor1,distractor2,distractor3,response_2,x,correct,distractors,url_vp,url_sess,meta_labjs_version,meta_location,meta_user_agent,meta_platform,meta_language,meta_locale,meta_time_zone,meta_timezone_offset,meta_screen_width,meta_screen_height,meta_scroll_width,meta_scroll_height,meta_window_inner_width,meta_window_inner_height,meta_device_pixel_ratio,meta_labjs_build_flavor,meta_labjs_build_commit
597fc,Introduction delayed retrieval,canvas.Screen,0,weiter,keypress(Space),response,2568.3000001431,1311,1313.8,1319.8,3888.1000001431,3889.2000000477,2024-05-25T19:45:10Z,3894.3,NA,NA,NA,NA,NA,NA,NA,NA,NA,NULL,225,4,20.2.4,https://neurocog.fernuni.ch/studies/vweber/aberisha/delayed/index.html?vp=225&sess=4,"Mozilla/5.0 (Windows NT 10.0; Win64; x64) AppleWebKit/537.36 (KHTML, like Gecko) Chrome/124.0.0.0 Safari/537.36",Win32,de-DE,de,Europe/Zurich,-120,1425,802,878,601,878,649,1.796875,production,f5b4a49f956347addd546a832a3327688c2c0fef
597fc,Deep Question,html.Page,1_0_0_0,NA,NA,form submission,9193.9000000477,3889.4000000954,3888.3,3894.3,13088.200000048,13088.300000191,2024-05-25T19:45:19Z,13089.8,Schlange,foleni,d,uvumilivu,uteuzi,muuzaji,idhiri4,NA,NA,NULL,NA,NA,NA,NA,NA,NA,NA,NA,NA,NA,NA,NA,NA,NA,NA,NA,NA,NA,NA
597fc,Save data screen,canvas.Screen,1_0_0_1,NA,NA,timeout,502.6,13089,13088.266,13089.8,13586.5,13586.900000095,2024-05-25T19:45:20Z,13592.4,Schlange,foleni,d,uvumilivu,uteuzi,muuzaji,NA,NA,0,NULL,NA,NA,NA,NA,NA,NA,NA,NA,NA,NA,NA,NA,NA,NA,NA,NA,NA,NA,NA
597fc,deep,flow.Sequence,1_0_0,NA,NA,completion,9692.2,3889.4000000954,3888.3,3894.3,13586.5,13587.100000143,2024-05-25T19:45:20Z,13592.4,Schlange,foleni,d,uvumilivu,uteuzi,muuzaji,NA,NA,NA,NULL,NA,NA,NA,NA,NA,NA,NA,NA,NA,NA,NA,NA,NA,NA,NA,NA,NA,NA,NA
597fc,task,flow.Sequence,1_0,NA,NA,completion,9692.2,3889.4000000954,3888.3,3894.3,13586.5,13587.100000143,2024-05-25T19:45:20Z,13592.4,Schlange,foleni,d,uvumilivu,uteuzi,muuzaji,NA,NA,NA,NULL,NA,NA,NA,NA,NA,NA,NA,NA,NA,NA,NA,NA,NA,NA,NA,NA,NA,NA,NA
597fc,Deep Question,html.Page,1_1_0_0,NA,NA,form submission,6375.9000001907,13587.200000048,13586.5,13592.4,19968.300000191,19968.400000095,2024-05-25T19:45:26Z,19971.1,Wohlstand,mafanikio,d,chimbuko,kumbuko,mapwaji,idhiri,NA,NA,NULL,NA,NA,NA,NA,NA,NA,NA,NA,NA,NA,NA,NA,NA,NA,NA,NA,NA,NA,NA
597fc,Save data screen,canvas.Screen,1_1_0_1,NA,NA,timeout,502.8,19969,19968.352,19971.1,20467.8,20468.100000143,2024-05-25T19:45:27Z,20473.9,Wohlstand,mafanikio,d,chimbuko,kumbuko,mapwaji,NA,NA,0,NULL,NA,NA,NA,NA,NA,NA,NA,NA,NA,NA,NA,NA,NA,NA,NA,NA,NA,NA,NA
597fc,deep,flow.Sequence,1_1_0,NA,NA,completion,6875.4,13587.200000048,13586.5,13592.4,20467.8,20468.200000048,2024-05-25T19:45:27Z,20473.9,Wohlstand,mafanikio,d,chimbuko,kumbuko,mapwaji,NA,NA,NA,NULL,NA,NA,NA,NA,NA,NA,NA,NA,NA,NA,NA,NA,NA,NA,NA,NA,NA,NA,NA
597fc,task,flow.Sequence,1_1,NA,NA,completion,6875.4,13587.200000048,13586.5,13592.4,20467.8,20468.300000191,2024-05-25T19:45:27Z,20473.9,Wohlstand,mafanikio,d,chimbuko,kumbuko,mapwaji,NA,NA,NA,NULL,NA,NA,NA,NA,NA,NA,NA,NA,NA,NA,NA,NA,NA,NA,NA,NA,NA,NA,NA
597fc,Deep Question,html.Page,1_2_0_0,NA,NA,form submission,3201.6,20468.400000095,20467.8,20473.9,23675.5,23675.600000143,2024-05-25T19:45:30Z,23678.3,Vermutung,udhanifu,s,haramia,tikisho,itifaki,?,NA,NA,NULL,NA,NA,NA,NA,NA,NA,NA,NA,NA,NA,NA,NA,NA,NA,NA,NA,NA,NA,NA
597fc,Save data screen,canvas.Screen,1_2_0_1,NA,NA,timeout,502.8,23676.100000143,23675.48,23678.3,24175,24175.700000048,2024-05-25T19:45:30Z,24181.1,Vermutung,udhanifu,s,haramia,tikisho,itifaki,NA,NA,0,NULL,NA,NA,NA,NA,NA,NA,NA,NA,NA,NA,NA,NA,NA,NA,NA,NA,NA,NA,NA
597fc,deep,flow.Sequence,1_2_0,NA,NA,completion,3701.1,20468.300000191,20467.8,20473.9,24175,24175.900000095,2024-05-25T19:45:30Z,24181.1,Vermutung,udhanifu,s,haramia,tikisho,itifaki,NA,NA,NA,NULL,NA,NA,NA,NA,NA,NA,NA,NA,NA,NA,NA,NA,NA,NA,NA,NA,NA,NA,NA
597fc,task,flow.Sequence,1_2,NA,NA,completion,3701.1,20468.300000191,20467.8,20473.9,24175,24176.100000143,2024-05-25T19:45:30Z,24181.1,Vermutung,udhanifu,s,haramia,tikisho,itifaki,NA,NA,NA,NULL,NA,NA,NA,NA,NA,NA,NA,NA,NA,NA,NA,NA,NA,NA,NA,NA,NA,NA,NA
597fc,Deep Question,html.Page,1_3_0_0,NA,NA,form submission,2801.8000000954,24176.100000143,24175,24181.1,26982.900000095,26983,2024-05-25T19:45:33Z,26985.7,Ergänzung,kijalizo,d,ulaghai,mustarehe,matangazo,?,NA,NA,NULL,NA,NA,NA,NA,NA,NA,NA,NA,NA,NA,NA,NA,NA,NA,NA,NA,NA,NA,NA
597fc,Save data screen,canvas.Screen,1_3_0_1,NA,NA,timeout,502.8,26983.400000095,26980.012,26985.7,27482.4,27482.800000191,2024-05-25T19:45:34Z,27488.5,Ergänzung,kijalizo,d,ulaghai,mustarehe,matangazo,NA,NA,0,NULL,NA,NA,NA,NA,NA,NA,NA,NA,NA,NA,NA,NA,NA,NA,NA,NA,NA,NA,NA
597fc,deep,flow.Sequence,1_3_0,NA,NA,completion,3301.3,24176.100000143,24175,24181.1,27482.4,27482.900000095,2024-05-25T19:45:34Z,27488.5,Ergänzung,kijalizo,d,ulaghai,mustarehe,matangazo,NA,NA,NA,NULL,NA,NA,NA,NA,NA,NA,NA,NA,NA,NA,NA,NA,NA,NA,NA,NA,NA,NA,NA
597fc,task,flow.Sequence,1_3,NA,NA,completion,3301.3,24176.100000143,24175,24181.1,27482.4,27483,2024-05-25T19:45:34Z,27488.5,Ergänzung,kijalizo,d,ulaghai,mustarehe,matangazo,NA,NA,NA,NULL,NA,NA,NA,NA,NA,NA,NA,NA,NA,NA,NA,NA,NA,NA,NA,NA,NA,NA,NA
597fc,Deep Question,html.Page,1_4_0_0,NA,NA,form submission,3471.8000001907,27483,27482.4,27488.5,30960.300000191,30960.400000095,2024-05-25T19:45:37Z,30965.5,Inhalt,yaliyomo,s,kishawishi,hifadhi,kutembea,?,NA,NA,NULL,NA,NA,NA,NA,NA,NA,NA,NA,NA,NA,NA,NA,NA,NA,NA,NA,NA,NA,NA
597fc,Save data screen,canvas.Screen,1_4_0_1,NA,NA,timeout,502.8,30960.800000191,30961.198,30965.5,31462.3,31462.600000143,2024-05-25T19:45:38Z,31468.3,Inhalt,yaliyomo,s,kishawishi,hifadhi,kutembea,NA,NA,0,NULL,NA,NA,NA,NA,NA,NA,NA,NA,NA,NA,NA,NA,NA,NA,NA,NA,NA,NA,NA
597fc,deep,flow.Sequence,1_4_0,NA,NA,completion,3973.8,27483,27482.4,27488.5,31462.3,31462.800000191,2024-05-25T19:45:38Z,31468.3,Inhalt,yaliyomo,s,kishawishi,hifadhi,kutembea,NA,NA,NA,NULL,NA,NA,NA,NA,NA,NA,NA,NA,NA,NA,NA,NA,NA,NA,NA,NA,NA,NA,NA
597fc,task,flow.Sequence,1_4,NA,NA,completion,3973.8,27483,27482.4,27488.5,31462.3,31462.800000191,2024-05-25T19:45:38Z,31468.3,Inhalt,yaliyomo,s,kishawishi,hifadhi,kutembea,NA,NA,NA,NULL,NA,NA,NA,NA,NA,NA,NA,NA,NA,NA,NA,NA,NA,NA,NA,NA,NA,NA,NA
597fc,Deep Question,html.Page,1_5_0_0,NA,NA,form submission,9189.2,31462.900000095,31462.3,31468.3,40657.5,40657.600000143,2024-05-25T19:45:47Z,40665.2,Hoffnung,matarajio,s,kutaalamika,uratibu,mvumbuzi,kinyigo,NA,NA,NULL,NA,NA,NA,NA,NA,NA,NA,NA,NA,NA,NA,NA,NA,NA,NA,NA,NA,NA,NA
597fc,Save data screen,canvas.Screen,1_5_0_1,NA,NA,timeout,501.3,40658.400000095004,40651.6,40665.2,41160.5,41160.900000095004,2024-05-25T19:45:47Z,41166.5,Hoffnung,matarajio,s,kutaalamika,uratibu,mvumbuzi,NA,NA,0,NULL,NA,NA,NA,NA,NA,NA,NA,NA,NA,NA,NA,NA,NA,NA,NA,NA,NA,NA,NA
597fc,deep,flow.Sequence,1_5_0,NA,NA,completion,9692.2,31462.900000095,31462.3,31468.3,41160.5,41161.100000143,2024-05-25T19:45:47Z,41166.5,Hoffnung,matarajio,s,kutaalamika,uratibu,mvumbuzi,NA,NA,NA,NULL,NA,NA,NA,NA,NA,NA,NA,NA,NA,NA,NA,NA,NA,NA,NA,NA,NA,NA,NA
597fc,task,flow.Sequence,1_5,NA,NA,completion,9692.2,31462.900000095,31462.3,31468.3,41160.5,41161.200000048,2024-05-25T19:45:47Z,41166.5,Hoffnung,matarajio,s,kutaalamika,uratibu,mvumbuzi,NA,NA,NA,NULL,NA,NA,NA,NA,NA,NA,NA,NA,NA,NA,NA,NA,NA,NA,NA,NA,NA,NA,NA
597fc,Deep Question,html.Page,1_6_0_0,NA,NA,form submission,2916.8000001907,41161.400000095004,41160.5,41166.5,44083.300000191,44083.600000143,2024-05-25T19:45:50Z,44092.2,Fenster,dirisha,d,walakini,tasawari,maarifa,?,NA,NA,NULL,NA,NA,NA,NA,NA,NA,NA,NA,NA,NA,NA,NA,NA,NA,NA,NA,NA,NA,NA
597fc,Save data screen,canvas.Screen,1_6_0_1,NA,NA,timeout,502.8,44091,44080.412,44092.2,44589,44589.400000095004,2024-05-25T19:45:51Z,44595,Fenster,dirisha,d,walakini,tasawari,maarifa,NA,NA,0,NULL,NA,NA,NA,NA,NA,NA,NA,NA,NA,NA,NA,NA,NA,NA,NA,NA,NA,NA,NA
597fc,deep,flow.Sequence,1_6_0,NA,NA,completion,3422.5,41161.400000095004,41160.5,41166.5,44589,44589.5,2024-05-25T19:45:51Z,44595,Fenster,dirisha,d,walakini,tasawari,maarifa,NA,NA,NA,NULL,NA,NA,NA,NA,NA,NA,NA,NA,NA,NA,NA,NA,NA,NA,NA,NA,NA,NA,NA
597fc,task,flow.Sequence,1_6,NA,NA,completion,3422.5,41161.400000095004,41160.5,41166.5,44589,44589.700000048,2024-05-25T19:45:51Z,44595,Fenster,dirisha,d,walakini,tasawari,maarifa,NA,NA,NA,NULL,NA,NA,NA,NA,NA,NA,NA,NA,NA,NA,NA,NA,NA,NA,NA,NA,NA,NA,NA
597fc,Deep Question,html.Page,1_7_0_0,NA,NA,form submission,3170,44589.800000191,44589,44595,47765,47765.200000048,2024-05-25T19:45:54Z,47769.1,Toleranz,kuvumiliana,d,maombolezo,ujasusi,mchekeshaji,?,NA,NA,NULL,NA,NA,NA,NA,NA,NA,NA,NA,NA,NA,NA,NA,NA,NA,NA,NA,NA,NA,NA
597fc,Save data screen,canvas.Screen,1_7_0_1,NA,NA,timeout,502.9,47765.800000191,47763.512,47769.1,48265.9,48266.200000048,2024-05-25T19:45:54Z,48272,Toleranz,kuvumiliana,d,maombolezo,ujasusi,mchekeshaji,NA,NA,0,NULL,NA,NA,NA,NA,NA,NA,NA,NA,NA,NA,NA,NA,NA,NA,NA,NA,NA,NA,NA
597fc,deep,flow.Sequence,1_7_0,NA,NA,completion,3670.9,44589.800000191,44589,44595,48265.9,48266.300000191,2024-05-25T19:45:54Z,48272,Toleranz,kuvumiliana,d,maombolezo,ujasusi,mchekeshaji,NA,NA,NA,NULL,NA,NA,NA,NA,NA,NA,NA,NA,NA,NA,NA,NA,NA,NA,NA,NA,NA,NA,NA
597fc,task,flow.Sequence,1_7,NA,NA,completion,3670.9,44589.800000191,44589,44595,48265.9,48266.5,2024-05-25T19:45:54Z,48272,Toleranz,kuvumiliana,d,maombolezo,ujasusi,mchekeshaji,NA,NA,NA,NULL,NA,NA,NA,NA,NA,NA,NA,NA,NA,NA,NA,NA,NA,NA,NA,NA,NA,NA,NA
597fc,Deep Question,html.Page,1_8_0_0,NA,NA,form submission,2401.1000001431,48266.600000143,48265.9,48272,50673.100000143,50673.300000191,2024-05-25T19:45:57Z,50682.8,Tester,wanaojaribu,s,sherti,sihiri,mlipuko,?,NA,NA,NULL,NA,NA,NA,NA,NA,NA,NA,NA,NA,NA,NA,NA,NA,NA,NA,NA,NA,NA,NA
597fc,Save data screen,canvas.Screen,1_8_0_1,NA,NA,timeout,502.8,50673.700000048,50670.8,50682.8,51179.6,51180.300000191,2024-05-25T19:45:57Z,51185.6,Tester,wanaojaribu,s,sherti,sihiri,mlipuko,NA,NA,0,NULL,NA,NA,NA,NA,NA,NA,NA,NA,NA,NA,NA,NA,NA,NA,NA,NA,NA,NA,NA
597fc,deep,flow.Sequence,1_8_0,NA,NA,completion,2907.6,48266.5,48265.9,48272,51179.6,51180.5,2024-05-25T19:45:57Z,51185.6,Tester,wanaojaribu,s,sherti,sihiri,mlipuko,NA,NA,NA,NULL,NA,NA,NA,NA,NA,NA,NA,NA,NA,NA,NA,NA,NA,NA,NA,NA,NA,NA,NA
597fc,task,flow.Sequence,1_8,NA,NA,completion,2907.6,48266.5,48265.9,48272,51179.6,51180.600000143,2024-05-25T19:45:57Z,51185.6,Tester,wanaojaribu,s,sherti,sihiri,mlipuko,NA,NA,NA,NULL,NA,NA,NA,NA,NA,NA,NA,NA,NA,NA,NA,NA,NA,NA,NA,NA,NA,NA,NA
597fc,Deep Question,html.Page,1_9_0_0,NA,NA,form submission,5790.0000001431,51180.700000048,51179.6,51185.6,56975.600000143,56975.600000143,2024-05-25T19:46:03Z,56976.6,Schüler,mwanafunzi,s,mwekezaji,matumizi,uaminifu,mangafuzi,NA,NA,NULL,NA,NA,NA,NA,NA,NA,NA,NA,NA,NA,NA,NA,NA,NA,NA,NA,NA,NA,NA
597fc,Save data screen,canvas.Screen,1_9_0_1,NA,NA,timeout,502.8,56976,56971.032,56976.6,57473.3,57473.700000048,2024-05-25T19:46:04Z,57479.4,Schüler,mwanafunzi,s,mwekezaji,matumizi,uaminifu,NA,NA,0,NULL,NA,NA,NA,NA,NA,NA,NA,NA,NA,NA,NA,NA,NA,NA,NA,NA,NA,NA,NA
597fc,deep,flow.Sequence,1_9_0,NA,NA,completion,6287.7,51180.700000048,51179.6,51185.6,57473.3,57473.700000048,2024-05-25T19:46:04Z,57479.4,Schüler,mwanafunzi,s,mwekezaji,matumizi,uaminifu,NA,NA,NA,NULL,NA,NA,NA,NA,NA,NA,NA,NA,NA,NA,NA,NA,NA,NA,NA,NA,NA,NA,NA
597fc,task,flow.Sequence,1_9,NA,NA,completion,6287.7,51180.700000048,51179.6,51185.6,57473.3,57473.800000191,2024-05-25T19:46:04Z,57479.4,Schüler,mwanafunzi,s,mwekezaji,matumizi,uaminifu,NA,NA,NA,NULL,NA,NA,NA,NA,NA,NA,NA,NA,NA,NA,NA,NA,NA,NA,NA,NA,NA,NA,NA
597fc,Deep Question,html.Page,1_10_0_0,NA,NA,form submission,3327.700000143,57473.900000095004,57473.3,57479.4,60807.100000143,60807.200000048,2024-05-25T19:46:07Z,60811,Vergnügen,kichekesho,s,dubwana,mpanuko,mtesaji,?,NA,NA,NULL,NA,NA,NA,NA,NA,NA,NA,NA,NA,NA,NA,NA,NA,NA,NA,NA,NA,NA,NA
597fc,Save data screen,canvas.Screen,1_10_0_1,NA,NA,timeout,502.9,60807.5,60805.2,60811,61307.7,61308,2024-05-25T19:46:07Z,61313.9,Vergnügen,kichekesho,s,dubwana,mpanuko,mtesaji,NA,NA,0,NULL,NA,NA,NA,NA,NA,NA,NA,NA,NA,NA,NA,NA,NA,NA,NA,NA,NA,NA,NA
597fc,deep,flow.Sequence,1_10_0,NA,NA,completion,3828.3,57473.900000095004,57473.3,57479.4,61307.7,61308.100000143,2024-05-25T19:46:07Z,61313.9,Vergnügen,kichekesho,s,dubwana,mpanuko,mtesaji,NA,NA,NA,NULL,NA,NA,NA,NA,NA,NA,NA,NA,NA,NA,NA,NA,NA,NA,NA,NA,NA,NA,NA
597fc,task,flow.Sequence,1_10,NA,NA,completion,3828.3,57473.900000095004,57473.3,57479.4,61307.7,61308.200000048,2024-05-25T19:46:07Z,61313.9,Vergnügen,kichekesho,s,dubwana,mpanuko,mtesaji,NA,NA,NA,NULL,NA,NA,NA,NA,NA,NA,NA,NA,NA,NA,NA,NA,NA,NA,NA,NA,NA,NA,NA
597fc,Deep Question,html.Page,1_11_0_0,NA,NA,form submission,3499.0000000954,61308.200000048,61307.7,61313.9,64812.900000095004,64813,2024-05-25T19:46:11Z,64815.1,Verpackung,ufungaji,s,uhusiano,upimaji,uchunguzi,?,NA,NA,NULL,NA,NA,NA,NA,NA,NA,NA,NA,NA,NA,NA,NA,NA,NA,NA,NA,NA,NA,NA
597fc,Save data screen,canvas.Screen,1_11_0_1,NA,NA,timeout,502.8,64814.300000191,64809.2,64815.1,65311.8,65312.100000143,2024-05-25T19:46:11Z,65317.9,Verpackung,ufungaji,s,uhusiano,upimaji,uchunguzi,NA,NA,0,NULL,NA,NA,NA,NA,NA,NA,NA,NA,NA,NA,NA,NA,NA,NA,NA,NA,NA,NA,NA
597fc,deep,flow.Sequence,1_11_0,NA,NA,completion,3997.9,61308.200000048,61307.7,61313.9,65311.8,65312.100000143,2024-05-25T19:46:11Z,65317.9,Verpackung,ufungaji,s,uhusiano,upimaji,uchunguzi,NA,NA,NA,NULL,NA,NA,NA,NA,NA,NA,NA,NA,NA,NA,NA,NA,NA,NA,NA,NA,NA,NA,NA
597fc,task,flow.Sequence,1_11,NA,NA,completion,3997.9,61308.200000048,61307.7,61313.9,65311.8,65312.200000048,2024-05-25T19:46:11Z,65317.9,Verpackung,ufungaji,s,uhusiano,upimaji,uchunguzi,NA,NA,NA,NULL,NA,NA,NA,NA,NA,NA,NA,NA,NA,NA,NA,NA,NA,NA,NA,NA,NA,NA,NA
597fc,Deep Question,html.Page,1_12_0_0,NA,NA,form submission,2726.200000143,65312.300000191,65311.8,65317.9,68044.100000143,68044.300000191,2024-05-25T19:46:14Z,68049.8,Notfall,dharura,s,rairai,malalamiko,ahueni,?,NA,NA,NULL,NA,NA,NA,NA,NA,NA,NA,NA,NA,NA,NA,NA,NA,NA,NA,NA,NA,NA,NA
597fc,Save data screen,canvas.Screen,1_12_0_1,NA,NA,timeout,502.8,68045.400000095,68044,68049.8,68546.5,68546.900000095,2024-05-25T19:46:15Z,68552.6,Notfall,dharura,s,rairai,malalamiko,ahueni,NA,NA,0,NULL,NA,NA,NA,NA,NA,NA,NA,NA,NA,NA,NA,NA,NA,NA,NA,NA,NA,NA,NA
597fc,deep,flow.Sequence,1_12_0,NA,NA,completion,3228.6,65312.300000191,65311.8,65317.9,68546.5,68547.100000143,2024-05-25T19:46:15Z,68552.6,Notfall,dharura,s,rairai,malalamiko,ahueni,NA,NA,NA,NULL,NA,NA,NA,NA,NA,NA,NA,NA,NA,NA,NA,NA,NA,NA,NA,NA,NA,NA,NA
597fc,task,flow.Sequence,1_12,NA,NA,completion,3228.6,65312.300000191,65311.8,65317.9,68546.5,68547.100000143,2024-05-25T19:46:15Z,68552.6,Notfall,dharura,s,rairai,malalamiko,ahueni,NA,NA,NA,NULL,NA,NA,NA,NA,NA,NA,NA,NA,NA,NA,NA,NA,NA,NA,NA,NA,NA,NA,NA
597fc,Deep Question,html.Page,1_13_0_0,NA,NA,form submission,14651.100000048,68547.200000048,68546.5,68552.6,83203.700000048,83203.800000191,2024-05-25T19:46:29Z,83205.8,Schock,mshtuko,d,biashara,kukataza,vichekesho,shkuto,NA,NA,NULL,NA,NA,NA,NA,NA,NA,NA,NA,NA,NA,NA,NA,NA,NA,NA,NA,NA,NA,NA
597fc,Save data screen,canvas.Screen,1_13_0_1,NA,NA,timeout,502.8,83205.300000191,83199.9,83205.8,83702.6,83703.100000143,2024-05-25T19:46:30Z,83708.6,Schock,mshtuko,d,biashara,kukataza,vichekesho,NA,NA,0,NULL,NA,NA,NA,NA,NA,NA,NA,NA,NA,NA,NA,NA,NA,NA,NA,NA,NA,NA,NA
597fc,deep,flow.Sequence,1_13_0,NA,NA,completion,15150,68547.200000048,68546.5,68552.6,83702.6,83703.100000143,2024-05-25T19:46:30Z,83708.6,Schock,mshtuko,d,biashara,kukataza,vichekesho,NA,NA,NA,NULL,NA,NA,NA,NA,NA,NA,NA,NA,NA,NA,NA,NA,NA,NA,NA,NA,NA,NA,NA
597fc,task,flow.Sequence,1_13,NA,NA,completion,15150,68547.200000048,68546.5,68552.6,83702.6,83703.200000048,2024-05-25T19:46:30Z,83708.6,Schock,mshtuko,d,biashara,kukataza,vichekesho,NA,NA,NA,NULL,NA,NA,NA,NA,NA,NA,NA,NA,NA,NA,NA,NA,NA,NA,NA,NA,NA,NA,NA
597fc,Deep Question,html.Page,1_14_0_0,NA,NA,form submission,2795.3000000954,83703.200000048,83702.6,83708.6,86503.900000095,86504.100000143,2024-05-25T19:46:33Z,86507.2,Spionage,upelelezi,d,maslahi,utokazo,magangao,?,NA,NA,NULL,NA,NA,NA,NA,NA,NA,NA,NA,NA,NA,NA,NA,NA,NA,NA,NA,NA,NA,NA
597fc,Save data screen,canvas.Screen,1_14_0_1,NA,NA,timeout,502.7,86504.5,86501.4,86507.2,87003.8,87004.300000191,2024-05-25T19:46:33Z,87009.9,Spionage,upelelezi,d,maslahi,utokazo,magangao,NA,NA,0,NULL,NA,NA,NA,NA,NA,NA,NA,NA,NA,NA,NA,NA,NA,NA,NA,NA,NA,NA,NA
597fc,deep,flow.Sequence,1_14_0,NA,NA,completion,3295.2,83703.200000048,83702.6,83708.6,87003.8,87004.400000095,2024-05-25T19:46:33Z,87009.9,Spionage,upelelezi,d,maslahi,utokazo,magangao,NA,NA,NA,NULL,NA,NA,NA,NA,NA,NA,NA,NA,NA,NA,NA,NA,NA,NA,NA,NA,NA,NA,NA
597fc,task,flow.Sequence,1_14,NA,NA,completion,3295.2,83703.200000048,83702.6,83708.6,87003.8,87004.5,2024-05-25T19:46:33Z,87009.9,Spionage,upelelezi,d,maslahi,utokazo,magangao,NA,NA,NA,NULL,NA,NA,NA,NA,NA,NA,NA,NA,NA,NA,NA,NA,NA,NA,NA,NA,NA,NA,NA
597fc,Deep Question,html.Page,1_15_0_0,NA,NA,form submission,3013.3000000477,87004.5,87003.8,87009.9,90023.200000048,90023.400000095,2024-05-25T19:46:36Z,90026.7,Theorie,nadharia,d,ushungi,mkutano,uwakilishi,idhiri,NA,NA,NULL,NA,NA,NA,NA,NA,NA,NA,NA,NA,NA,NA,NA,NA,NA,NA,NA,NA,NA,NA
597fc,Save data screen,canvas.Screen,1_15_0_1,NA,NA,timeout,502.8,90024.400000095,90020.7,90026.7,90523.8,90524.100000143,2024-05-25T19:46:37Z,90529.5,Theorie,nadharia,d,ushungi,mkutano,uwakilishi,NA,NA,0,NULL,NA,NA,NA,NA,NA,NA,NA,NA,NA,NA,NA,NA,NA,NA,NA,NA,NA,NA,NA
597fc,deep,flow.Sequence,1_15_0,NA,NA,completion,3513.9,87004.5,87003.8,87009.9,90523.8,90524.200000048,2024-05-25T19:46:37Z,90529.5,Theorie,nadharia,d,ushungi,mkutano,uwakilishi,NA,NA,NA,NULL,NA,NA,NA,NA,NA,NA,NA,NA,NA,NA,NA,NA,NA,NA,NA,NA,NA,NA,NA
597fc,task,flow.Sequence,1_15,NA,NA,completion,3513.9,87004.5,87003.8,87009.9,90523.8,90524.200000048,2024-05-25T19:46:37Z,90529.5,Theorie,nadharia,d,ushungi,mkutano,uwakilishi,NA,NA,NA,NULL,NA,NA,NA,NA,NA,NA,NA,NA,NA,NA,NA,NA,NA,NA,NA,NA,NA,NA,NA
597fc,retrieval block 1 (cued recall),flow.Loop,1,NA,NA,completion,86629.5,3889.4000000954,3888.3,3894.3,90523.8,90524.200000048,2024-05-25T19:46:37Z,90529.5,NA,NA,NA,NA,NA,NA,NA,NA,NA,NULL,NA,NA,NA,NA,NA,NA,NA,NA,NA,NA,NA,NA,NA,NA,NA,NA,NA,NA,NA
597fc,Shallow Question,html.Page,2_0_0_0,NA,NA,form submission,8400,90524.300000191,90523.8,90529.5,98929.5,98929.600000143,2024-05-25T19:46:45Z,98937.3,Fenster,dirisha,d,walakini,tasawari,maarifa,dirisha,NA,NA,"c(""distractor1"", ""distractor2"", ""distractor3"")",NA,NA,NA,NA,NA,NA,NA,NA,NA,NA,NA,NA,NA,NA,NA,NA,NA,NA,NA
597fc,Save data screen,canvas.Screen,2_0_0_1,NA,NA,timeout,503.09999999999,98930.600000143,98931.3,98937.3,99434,99434.800000191,2024-05-25T19:46:46Z,99440.4,Fenster,dirisha,d,walakini,tasawari,maarifa,NA,NA,1,"c(""distractor1"", ""distractor2"", ""distractor3"")",NA,NA,NA,NA,NA,NA,NA,NA,NA,NA,NA,NA,NA,NA,NA,NA,NA,NA,NA
597fc,shallow,flow.Sequence,2_0_0,NA,NA,completion,8904.5,90524.300000191,90523.8,90529.5,99434,99434.800000191,2024-05-25T19:46:46Z,99440.4,Fenster,dirisha,d,walakini,tasawari,maarifa,NA,NA,NA,"c(""distractor1"", ""distractor2"", ""distractor3"")",NA,NA,NA,NA,NA,NA,NA,NA,NA,NA,NA,NA,NA,NA,NA,NA,NA,NA,NA
597fc,task,flow.Sequence,2_0,NA,NA,completion,8904.5,90524.300000191,90523.8,90529.5,99434,99434.900000095,2024-05-25T19:46:46Z,99440.4,Fenster,dirisha,d,walakini,tasawari,maarifa,NA,NA,NA,"c(""distractor1"", ""distractor2"", ""distractor3"")",NA,NA,NA,NA,NA,NA,NA,NA,NA,NA,NA,NA,NA,NA,NA,NA,NA,NA,NA
597fc,Shallow Question,html.Page,2_1_0_0,NA,NA,form submission,8901.8000000477,99435,99434,99440.4,108342.20000005,108342.30000019001,2024-05-25T19:46:54Z,108344.7,Theorie,nadharia,d,ushungi,mkutano,uwakilishi,nadharia,NA,NA,"c(""distractor1"", ""distractor2"", ""distractor3"")",NA,NA,NA,NA,NA,NA,NA,NA,NA,NA,NA,NA,NA,NA,NA,NA,NA,NA,NA
597fc,Save data screen,canvas.Screen,2_1_0_1,NA,NA,timeout,502.7,108343.5,108341.696,108344.7,108841.4,108842,2024-05-25T19:46:55Z,108847.4,Theorie,nadharia,d,ushungi,mkutano,uwakilishi,NA,NA,1,"c(""distractor1"", ""distractor2"", ""distractor3"")",NA,NA,NA,NA,NA,NA,NA,NA,NA,NA,NA,NA,NA,NA,NA,NA,NA,NA,NA
597fc,shallow,flow.Sequence,2_1_0,NA,NA,completion,9401,99435,99434,99440.4,108841.4,108842,2024-05-25T19:46:55Z,108847.4,Theorie,nadharia,d,ushungi,mkutano,uwakilishi,NA,NA,NA,"c(""distractor1"", ""distractor2"", ""distractor3"")",NA,NA,NA,NA,NA,NA,NA,NA,NA,NA,NA,NA,NA,NA,NA,NA,NA,NA,NA
597fc,task,flow.Sequence,2_1,NA,NA,completion,9401,99435,99434,99440.4,108841.4,108842.10000014,2024-05-25T19:46:55Z,108847.4,Theorie,nadharia,d,ushungi,mkutano,uwakilishi,NA,NA,NA,"c(""distractor1"", ""distractor2"", ""distractor3"")",NA,NA,NA,NA,NA,NA,NA,NA,NA,NA,NA,NA,NA,NA,NA,NA,NA,NA,NA
597fc,Shallow Question,html.Page,2_2_0_0,NA,NA,form submission,9057.5000000954,108842.20000005,108841.4,108847.4,117904.9000001,117904.9000001,2024-05-25T19:47:04Z,117909.5,Vermutung,udhanifu,s,haramia,tikisho,itifaki,udhanifu,NA,NA,"c(""distractor1"", ""distractor2"", ""distractor3"")",NA,NA,NA,NA,NA,NA,NA,NA,NA,NA,NA,NA,NA,NA,NA,NA,NA,NA,NA
597fc,Save data screen,canvas.Screen,2_2_0_1,NA,NA,timeout,502.8,117905.9000001,117903.5,117909.5,118406.2,118406.70000005,2024-05-25T19:47:05Z,118412.3,Vermutung,udhanifu,s,haramia,tikisho,itifaki,NA,NA,1,"c(""distractor1"", ""distractor2"", ""distractor3"")",NA,NA,NA,NA,NA,NA,NA,NA,NA,NA,NA,NA,NA,NA,NA,NA,NA,NA,NA
597fc,shallow,flow.Sequence,2_2_0,NA,NA,completion,9558.8,108842.10000014,108841.4,108847.4,118406.2,118406.80000019001,2024-05-25T19:47:05Z,118412.3,Vermutung,udhanifu,s,haramia,tikisho,itifaki,NA,NA,NA,"c(""distractor1"", ""distractor2"", ""distractor3"")",NA,NA,NA,NA,NA,NA,NA,NA,NA,NA,NA,NA,NA,NA,NA,NA,NA,NA,NA
597fc,task,flow.Sequence,2_2,NA,NA,completion,9558.8,108842.10000014,108841.4,108847.4,118406.2,118406.80000019001,2024-05-25T19:47:05Z,118412.3,Vermutung,udhanifu,s,haramia,tikisho,itifaki,NA,NA,NA,"c(""distractor1"", ""distractor2"", ""distractor3"")",NA,NA,NA,NA,NA,NA,NA,NA,NA,NA,NA,NA,NA,NA,NA,NA,NA,NA,NA
597fc,Shallow Question,html.Page,2_3_0_0,NA,NA,form submission,2064.5000001907,118406.9000001,118406.2,118412.3,120476.80000019001,120476.9000001,2024-05-25T19:47:07Z,120477.9,Schock,mshtuko,d,biashara,kukataza,vichekesho,mshtuko,NA,NA,"c(""distractor1"", ""distractor2"", ""distractor3"")",NA,NA,NA,NA,NA,NA,NA,NA,NA,NA,NA,NA,NA,NA,NA,NA,NA,NA,NA
597fc,Save data screen,canvas.Screen,2_3_0_1,NA,NA,timeout,502.8,120477.9000001,120471.9,120477.9,120974.6,120975.10000014,2024-05-25T19:47:07Z,120980.7,Schock,mshtuko,d,biashara,kukataza,vichekesho,NA,NA,1,"c(""distractor1"", ""distractor2"", ""distractor3"")",NA,NA,NA,NA,NA,NA,NA,NA,NA,NA,NA,NA,NA,NA,NA,NA,NA,NA,NA
597fc,shallow,flow.Sequence,2_3_0,NA,NA,completion,2562.3,118406.9000001,118406.2,118412.3,120974.6,120975.30000019001,2024-05-25T19:47:07Z,120980.7,Schock,mshtuko,d,biashara,kukataza,vichekesho,NA,NA,NA,"c(""distractor1"", ""distractor2"", ""distractor3"")",NA,NA,NA,NA,NA,NA,NA,NA,NA,NA,NA,NA,NA,NA,NA,NA,NA,NA,NA
597fc,task,flow.Sequence,2_3,NA,NA,completion,2562.3,118406.9000001,118406.2,118412.3,120974.6,120975.4000001,2024-05-25T19:47:07Z,120980.7,Schock,mshtuko,d,biashara,kukataza,vichekesho,NA,NA,NA,"c(""distractor1"", ""distractor2"", ""distractor3"")",NA,NA,NA,NA,NA,NA,NA,NA,NA,NA,NA,NA,NA,NA,NA,NA,NA,NA,NA
597fc,Shallow Question,html.Page,2_4_0_0,NA,NA,form submission,6381.3,120975.5,120974.6,120980.7,127362,127362.20000005,2024-05-25T19:47:14Z,127365.4,Hoffnung,matarajio,s,kutaalamika,uratibu,mvumbuzi,mvumbuzi,NA,NA,"c(""distractor1"", ""distractor2"", ""distractor3"")",NA,NA,NA,NA,NA,NA,NA,NA,NA,NA,NA,NA,NA,NA,NA,NA,NA,NA,NA
597fc,Save data screen,canvas.Screen,2_4_0_1,NA,NA,timeout,502.70000000001,127363.20000005,127359.4,127365.4,127862.1,127862.4000001,2024-05-25T19:47:14Z,127868.1,Hoffnung,matarajio,s,kutaalamika,uratibu,mvumbuzi,NA,NA,0,"c(""distractor1"", ""distractor2"", ""distractor3"")",NA,NA,NA,NA,NA,NA,NA,NA,NA,NA,NA,NA,NA,NA,NA,NA,NA,NA,NA
597fc,shallow,flow.Sequence,2_4_0,NA,NA,completion,6881.4,120975.5,120974.6,120980.7,127862.1,127862.5,2024-05-25T19:47:14Z,127868.1,Hoffnung,matarajio,s,kutaalamika,uratibu,mvumbuzi,NA,NA,NA,"c(""distractor1"", ""distractor2"", ""distractor3"")",NA,NA,NA,NA,NA,NA,NA,NA,NA,NA,NA,NA,NA,NA,NA,NA,NA,NA,NA
597fc,task,flow.Sequence,2_4,NA,NA,completion,6881.4,120975.5,120974.6,120980.7,127862.1,127862.60000014,2024-05-25T19:47:14Z,127868.1,Hoffnung,matarajio,s,kutaalamika,uratibu,mvumbuzi,NA,NA,NA,"c(""distractor1"", ""distractor2"", ""distractor3"")",NA,NA,NA,NA,NA,NA,NA,NA,NA,NA,NA,NA,NA,NA,NA,NA,NA,NA,NA
597fc,Shallow Question,html.Page,2_5_0_0,NA,NA,form submission,3176.3000000954,127862.60000014,127862.1,127868.1,131044.4000001,131044.5,2024-05-25T19:47:17Z,131048.4,Schüler,mwanafunzi,s,mwekezaji,matumizi,uaminifu,mwanafunzi,NA,NA,"c(""distractor1"", ""distractor2"", ""distractor3"")",NA,NA,NA,NA,NA,NA,NA,NA,NA,NA,NA,NA,NA,NA,NA,NA,NA,NA,NA
597fc,Save data screen,canvas.Screen,2_5_0_1,NA,NA,timeout,502.70000000001,131045.60000014,131045.396,131048.4,131545.1,131545.5,2024-05-25T19:47:18Z,131551.1,Schüler,mwanafunzi,s,mwekezaji,matumizi,uaminifu,NA,NA,1,"c(""distractor1"", ""distractor2"", ""distractor3"")",NA,NA,NA,NA,NA,NA,NA,NA,NA,NA,NA,NA,NA,NA,NA,NA,NA,NA,NA
597fc,shallow,flow.Sequence,2_5_0,NA,NA,completion,3677,127862.60000014,127862.1,127868.1,131545.1,131545.60000014,2024-05-25T19:47:18Z,131551.1,Schüler,mwanafunzi,s,mwekezaji,matumizi,uaminifu,NA,NA,NA,"c(""distractor1"", ""distractor2"", ""distractor3"")",NA,NA,NA,NA,NA,NA,NA,NA,NA,NA,NA,NA,NA,NA,NA,NA,NA,NA,NA
597fc,task,flow.Sequence,2_5,NA,NA,completion,3677,127862.60000014,127862.1,127868.1,131545.1,131545.70000005,2024-05-25T19:47:18Z,131551.1,Schüler,mwanafunzi,s,mwekezaji,matumizi,uaminifu,NA,NA,NA,"c(""distractor1"", ""distractor2"", ""distractor3"")",NA,NA,NA,NA,NA,NA,NA,NA,NA,NA,NA,NA,NA,NA,NA,NA,NA,NA,NA
597fc,Shallow Question,html.Page,2_6_0_0,NA,NA,form submission,3821.3000000954,131545.70000005,131545.1,131551.1,135372.4000001,135372.5,2024-05-25T19:47:22Z,135373.4,Ergänzung,kijalizo,d,ulaghai,mustarehe,matangazo,kijalizo,NA,NA,"c(""distractor1"", ""distractor2"", ""distractor3"")",NA,NA,NA,NA,NA,NA,NA,NA,NA,NA,NA,NA,NA,NA,NA,NA,NA,NA,NA
597fc,Save data screen,canvas.Screen,2_6_0_1,NA,NA,timeout,502.80000000002,135373.60000014,135368.898,135373.4,135870.2,135870.70000005,2024-05-25T19:47:22Z,135876.2,Ergänzung,kijalizo,d,ulaghai,mustarehe,matangazo,NA,NA,1,"c(""distractor1"", ""distractor2"", ""distractor3"")",NA,NA,NA,NA,NA,NA,NA,NA,NA,NA,NA,NA,NA,NA,NA,NA,NA,NA,NA
597fc,shallow,flow.Sequence,2_6_0,NA,NA,completion,4319.1,131545.70000005,131545.1,131551.1,135870.2,135870.80000019,2024-05-25T19:47:22Z,135876.2,Ergänzung,kijalizo,d,ulaghai,mustarehe,matangazo,NA,NA,NA,"c(""distractor1"", ""distractor2"", ""distractor3"")",NA,NA,NA,NA,NA,NA,NA,NA,NA,NA,NA,NA,NA,NA,NA,NA,NA,NA,NA
597fc,task,flow.Sequence,2_6,NA,NA,completion,4319.1,131545.70000005,131545.1,131551.1,135870.2,135870.9000001,2024-05-25T19:47:22Z,135876.2,Ergänzung,kijalizo,d,ulaghai,mustarehe,matangazo,NA,NA,NA,"c(""distractor1"", ""distractor2"", ""distractor3"")",NA,NA,NA,NA,NA,NA,NA,NA,NA,NA,NA,NA,NA,NA,NA,NA,NA,NA,NA
597fc,Shallow Question,html.Page,2_7_0_0,NA,NA,form submission,5953.400000143,135871,135870.2,135876.2,141829.60000014,141829.80000019,2024-05-25T19:47:28Z,141830.8,Toleranz,kuvumiliana,d,maombolezo,ujasusi,mchekeshaji,kuvumiliana,NA,NA,"c(""distractor1"", ""distractor2"", ""distractor3"")",NA,NA,NA,NA,NA,NA,NA,NA,NA,NA,NA,NA,NA,NA,NA,NA,NA,NA,NA
597fc,Save data screen,canvas.Screen,2_7_0_1,NA,NA,timeout,496.80000000002,141830.70000005,141825.3,141830.8,142321.8,142322.30000019,2024-05-25T19:47:28Z,142327.6,Toleranz,kuvumiliana,d,maombolezo,ujasusi,mchekeshaji,NA,NA,1,"c(""distractor1"", ""distractor2"", ""distractor3"")",NA,NA,NA,NA,NA,NA,NA,NA,NA,NA,NA,NA,NA,NA,NA,NA,NA,NA,NA
597fc,shallow,flow.Sequence,2_7_0,NA,NA,completion,6445.6,135871,135870.2,135876.2,142321.8,142322.30000019,2024-05-25T19:47:28Z,142327.6,Toleranz,kuvumiliana,d,maombolezo,ujasusi,mchekeshaji,NA,NA,NA,"c(""distractor1"", ""distractor2"", ""distractor3"")",NA,NA,NA,NA,NA,NA,NA,NA,NA,NA,NA,NA,NA,NA,NA,NA,NA,NA,NA
597fc,task,flow.Sequence,2_7,NA,NA,completion,6445.6,135870.9000001,135870.2,135876.2,142321.8,142322.4000001,2024-05-25T19:47:28Z,142327.6,Toleranz,kuvumiliana,d,maombolezo,ujasusi,mchekeshaji,NA,NA,NA,"c(""distractor1"", ""distractor2"", ""distractor3"")",NA,NA,NA,NA,NA,NA,NA,NA,NA,NA,NA,NA,NA,NA,NA,NA,NA,NA,NA
597fc,Shallow Question,html.Page,2_8_0_0,NA,NA,form submission,8285.2000001907,142322.4000001,142321.8,142327.6,150612.80000019,150612.9000001,2024-05-25T19:47:37Z,150614.3,Spionage,upelelezi,d,maslahi,utokazo,magangao,upelelezi,NA,NA,"c(""distractor1"", ""distractor2"", ""distractor3"")",NA,NA,NA,NA,NA,NA,NA,NA,NA,NA,NA,NA,NA,NA,NA,NA,NA,NA,NA
597fc,Save data screen,canvas.Screen,2_8_0_1,NA,NA,timeout,502.70000000001,150613.9000001,150608.2,150614.3,151111,151111.4000001,2024-05-25T19:47:37Z,151117,Spionage,upelelezi,d,maslahi,utokazo,magangao,NA,NA,1,"c(""distractor1"", ""distractor2"", ""distractor3"")",NA,NA,NA,NA,NA,NA,NA,NA,NA,NA,NA,NA,NA,NA,NA,NA,NA,NA,NA
597fc,shallow,flow.Sequence,2_8_0,NA,NA,completion,8783.4,142322.4000001,142321.8,142327.6,151111,151111.5,2024-05-25T19:47:37Z,151117,Spionage,upelelezi,d,maslahi,utokazo,magangao,NA,NA,NA,"c(""distractor1"", ""distractor2"", ""distractor3"")",NA,NA,NA,NA,NA,NA,NA,NA,NA,NA,NA,NA,NA,NA,NA,NA,NA,NA,NA
597fc,task,flow.Sequence,2_8,NA,NA,completion,8783.4,142322.4000001,142321.8,142327.6,151111,151111.60000014,2024-05-25T19:47:37Z,151117,Spionage,upelelezi,d,maslahi,utokazo,magangao,NA,NA,NA,"c(""distractor1"", ""distractor2"", ""distractor3"")",NA,NA,NA,NA,NA,NA,NA,NA,NA,NA,NA,NA,NA,NA,NA,NA,NA,NA,NA
597fc,Shallow Question,html.Page,2_9_0_0,NA,NA,form submission,5998.5,151111.60000014,151111,151117,157115.5,157115.60000014,2024-05-25T19:47:43Z,157120,Inhalt,yaliyomo,s,kishawishi,hifadhi,kutembea,kishawishi,NA,NA,"c(""distractor1"", ""distractor2"", ""distractor3"")",NA,NA,NA,NA,NA,NA,NA,NA,NA,NA,NA,NA,NA,NA,NA,NA,NA,NA,NA
597fc,Save data screen,canvas.Screen,2_9_0_1,NA,NA,timeout,502.89999999999,157116.5,157114.1,157120,157616.8,157617.10000014,2024-05-25T19:47:44Z,157622.9,Inhalt,yaliyomo,s,kishawishi,hifadhi,kutembea,NA,NA,0,"c(""distractor1"", ""distractor2"", ""distractor3"")",NA,NA,NA,NA,NA,NA,NA,NA,NA,NA,NA,NA,NA,NA,NA,NA,NA,NA,NA
597fc,shallow,flow.Sequence,2_9_0,NA,NA,completion,6499.8,151111.60000014,151111,151117,157616.8,157617.10000014,2024-05-25T19:47:44Z,157622.9,Inhalt,yaliyomo,s,kishawishi,hifadhi,kutembea,NA,NA,NA,"c(""distractor1"", ""distractor2"", ""distractor3"")",NA,NA,NA,NA,NA,NA,NA,NA,NA,NA,NA,NA,NA,NA,NA,NA,NA,NA,NA
597fc,task,flow.Sequence,2_9,NA,NA,completion,6499.8,151111.60000014,151111,151117,157616.8,157617.30000019,2024-05-25T19:47:44Z,157622.9,Inhalt,yaliyomo,s,kishawishi,hifadhi,kutembea,NA,NA,NA,"c(""distractor1"", ""distractor2"", ""distractor3"")",NA,NA,NA,NA,NA,NA,NA,NA,NA,NA,NA,NA,NA,NA,NA,NA,NA,NA,NA
597fc,Shallow Question,html.Page,2_10_0_0,NA,NA,form submission,4231.9000001907,157617.30000019,157616.8,157622.9,161854.80000019,161854.9000001,2024-05-25T19:47:48Z,161857,Wohlstand,mafanikio,d,chimbuko,kumbuko,mapwaji,mafanikio,NA,NA,"c(""distractor1"", ""distractor2"", ""distractor3"")",NA,NA,NA,NA,NA,NA,NA,NA,NA,NA,NA,NA,NA,NA,NA,NA,NA,NA,NA
597fc,Save data screen,canvas.Screen,2_10_0_1,NA,NA,timeout,502.79999999999,161855.80000019,161855.63,161857,162353.7,162354,2024-05-25T19:47:49Z,162359.8,Wohlstand,mafanikio,d,chimbuko,kumbuko,mapwaji,NA,NA,1,"c(""distractor1"", ""distractor2"", ""distractor3"")",NA,NA,NA,NA,NA,NA,NA,NA,NA,NA,NA,NA,NA,NA,NA,NA,NA,NA,NA
597fc,shallow,flow.Sequence,2_10_0,NA,NA,completion,4730.8,157617.30000019,157616.8,157622.9,162353.7,162354.20000005,2024-05-25T19:47:49Z,162359.8,Wohlstand,mafanikio,d,chimbuko,kumbuko,mapwaji,NA,NA,NA,"c(""distractor1"", ""distractor2"", ""distractor3"")",NA,NA,NA,NA,NA,NA,NA,NA,NA,NA,NA,NA,NA,NA,NA,NA,NA,NA,NA
597fc,task,flow.Sequence,2_10,NA,NA,completion,4730.8,157617.30000019,157616.8,157622.9,162353.7,162354.30000019,2024-05-25T19:47:49Z,162359.8,Wohlstand,mafanikio,d,chimbuko,kumbuko,mapwaji,NA,NA,NA,"c(""distractor1"", ""distractor2"", ""distractor3"")",NA,NA,NA,NA,NA,NA,NA,NA,NA,NA,NA,NA,NA,NA,NA,NA,NA,NA,NA
597fc,Shallow Question,html.Page,2_11_0_0,NA,NA,form submission,4332.8000001431,162354.4000001,162353.7,162359.8,166692.60000014,166692.70000005,2024-05-25T19:47:53Z,166697,Notfall,dharura,s,rairai,malalamiko,ahueni,dharura,NA,NA,"c(""distractor1"", ""distractor2"", ""distractor3"")",NA,NA,NA,NA,NA,NA,NA,NA,NA,NA,NA,NA,NA,NA,NA,NA,NA,NA,NA
597fc,Save data screen,canvas.Screen,2_11_0_1,NA,NA,timeout,502.79999999999,166693.60000014,166691.4,166697,167193.7,167194,2024-05-25T19:47:53Z,167199.8,Notfall,dharura,s,rairai,malalamiko,ahueni,NA,NA,1,"c(""distractor1"", ""distractor2"", ""distractor3"")",NA,NA,NA,NA,NA,NA,NA,NA,NA,NA,NA,NA,NA,NA,NA,NA,NA,NA,NA
597fc,shallow,flow.Sequence,2_11_0,NA,NA,completion,4833.9,162354.4000001,162353.7,162359.8,167193.7,167194.10000014,2024-05-25T19:47:53Z,167199.8,Notfall,dharura,s,rairai,malalamiko,ahueni,NA,NA,NA,"c(""distractor1"", ""distractor2"", ""distractor3"")",NA,NA,NA,NA,NA,NA,NA,NA,NA,NA,NA,NA,NA,NA,NA,NA,NA,NA,NA
597fc,task,flow.Sequence,2_11,NA,NA,completion,4833.9,162354.30000019,162353.7,162359.8,167193.7,167194.20000005,2024-05-25T19:47:53Z,167199.8,Notfall,dharura,s,rairai,malalamiko,ahueni,NA,NA,NA,"c(""distractor1"", ""distractor2"", ""distractor3"")",NA,NA,NA,NA,NA,NA,NA,NA,NA,NA,NA,NA,NA,NA,NA,NA,NA,NA,NA
597fc,Shallow Question,html.Page,2_12_0_0,NA,NA,form submission,3775.4000000477,167194.30000019,167193.7,167199.8,170975.20000005,170975.30000019,2024-05-25T19:47:57Z,170979.8,Vergnügen,kichekesho,s,dubwana,mpanuko,mtesaji,kichekesho,NA,NA,"c(""distractor1"", ""distractor2"", ""distractor3"")",NA,NA,NA,NA,NA,NA,NA,NA,NA,NA,NA,NA,NA,NA,NA,NA,NA,NA,NA
597fc,Save data screen,canvas.Screen,2_12_0_1,NA,NA,timeout,502.70000000001,170976.30000019,170973.7,170979.8,171476.4,171476.9000001,2024-05-25T19:47:58Z,171482.5,Vergnügen,kichekesho,s,dubwana,mpanuko,mtesaji,NA,NA,1,"c(""distractor1"", ""distractor2"", ""distractor3"")",NA,NA,NA,NA,NA,NA,NA,NA,NA,NA,NA,NA,NA,NA,NA,NA,NA,NA,NA
597fc,shallow,flow.Sequence,2_12_0,NA,NA,completion,4276.6,167194.30000019,167193.7,167199.8,171476.4,171476.9000001,2024-05-25T19:47:58Z,171482.5,Vergnügen,kichekesho,s,dubwana,mpanuko,mtesaji,NA,NA,NA,"c(""distractor1"", ""distractor2"", ""distractor3"")",NA,NA,NA,NA,NA,NA,NA,NA,NA,NA,NA,NA,NA,NA,NA,NA,NA,NA,NA
597fc,task,flow.Sequence,2_12,NA,NA,completion,4276.6,167194.30000019,167193.7,167199.8,171476.4,171477.10000014,2024-05-25T19:47:58Z,171482.5,Vergnügen,kichekesho,s,dubwana,mpanuko,mtesaji,NA,NA,NA,"c(""distractor1"", ""distractor2"", ""distractor3"")",NA,NA,NA,NA,NA,NA,NA,NA,NA,NA,NA,NA,NA,NA,NA,NA,NA,NA,NA
597fc,Shallow Question,html.Page,2_13_0_0,NA,NA,form submission,4203,171477.10000014,171476.4,171482.5,175685.5,175685.60000014,2024-05-25T19:48:02Z,175686.4,Schlange,foleni,d,uvumilivu,uteuzi,muuzaji,foleni,NA,NA,"c(""distractor1"", ""distractor2"", ""distractor3"")",NA,NA,NA,NA,NA,NA,NA,NA,NA,NA,NA,NA,NA,NA,NA,NA,NA,NA,NA
597fc,Save data screen,canvas.Screen,2_13_0_1,NA,NA,timeout,502.80000000002,175686.70000005,175683.396,175686.4,176183.1,176183.5,2024-05-25T19:48:02Z,176189.2,Schlange,foleni,d,uvumilivu,uteuzi,muuzaji,NA,NA,1,"c(""distractor1"", ""distractor2"", ""distractor3"")",NA,NA,NA,NA,NA,NA,NA,NA,NA,NA,NA,NA,NA,NA,NA,NA,NA,NA,NA
597fc,shallow,flow.Sequence,2_13_0,NA,NA,completion,4700.6,171477.10000014,171476.4,171482.5,176183.1,176183.60000014,2024-05-25T19:48:02Z,176189.2,Schlange,foleni,d,uvumilivu,uteuzi,muuzaji,NA,NA,NA,"c(""distractor1"", ""distractor2"", ""distractor3"")",NA,NA,NA,NA,NA,NA,NA,NA,NA,NA,NA,NA,NA,NA,NA,NA,NA,NA,NA
597fc,task,flow.Sequence,2_13,NA,NA,completion,4700.6,171477.10000014,171476.4,171482.5,176183.1,176183.70000005,2024-05-25T19:48:02Z,176189.2,Schlange,foleni,d,uvumilivu,uteuzi,muuzaji,NA,NA,NA,"c(""distractor1"", ""distractor2"", ""distractor3"")",NA,NA,NA,NA,NA,NA,NA,NA,NA,NA,NA,NA,NA,NA,NA,NA,NA,NA,NA
597fc,Shallow Question,html.Page,2_14_0_0,NA,NA,form submission,5338.2000000954,176183.80000019,176183.1,176189.2,181527.4000001,181527.60000014,2024-05-25T19:48:08Z,181532,Tester,wanaojaribu,s,sherti,sihiri,mlipuko,wanaojaribu,NA,NA,"c(""distractor1"", ""distractor2"", ""distractor3"")",NA,NA,NA,NA,NA,NA,NA,NA,NA,NA,NA,NA,NA,NA,NA,NA,NA,NA,NA
597fc,Save data screen,canvas.Screen,2_14_0_1,NA,NA,timeout,502.70000000001,181528.60000014,181526.2,181532,182028.7,182028.9000001,2024-05-25T19:48:08Z,182034.7,Tester,wanaojaribu,s,sherti,sihiri,mlipuko,NA,NA,1,"c(""distractor1"", ""distractor2"", ""distractor3"")",NA,NA,NA,NA,NA,NA,NA,NA,NA,NA,NA,NA,NA,NA,NA,NA,NA,NA,NA
597fc,shallow,flow.Sequence,2_14_0,NA,NA,completion,5839.5,176183.70000005,176183.1,176189.2,182028.7,182029,2024-05-25T19:48:08Z,182034.7,Tester,wanaojaribu,s,sherti,sihiri,mlipuko,NA,NA,NA,"c(""distractor1"", ""distractor2"", ""distractor3"")",NA,NA,NA,NA,NA,NA,NA,NA,NA,NA,NA,NA,NA,NA,NA,NA,NA,NA,NA
597fc,task,flow.Sequence,2_14,NA,NA,completion,5839.5,176183.70000005,176183.1,176189.2,182028.7,182029.10000014,2024-05-25T19:48:08Z,182034.7,Tester,wanaojaribu,s,sherti,sihiri,mlipuko,NA,NA,NA,"c(""distractor1"", ""distractor2"", ""distractor3"")",NA,NA,NA,NA,NA,NA,NA,NA,NA,NA,NA,NA,NA,NA,NA,NA,NA,NA,NA
597fc,Shallow Question,html.Page,2_15_0_0,NA,NA,form submission,6107.900000143,182029.10000014,182028.7,182034.7,188142.60000014,188142.70000005,2024-05-25T19:48:14Z,188146.9,Verpackung,ufungaji,s,uhusiano,upimaji,uchunguzi,uchunguzi,NA,NA,"c(""distractor1"", ""distractor2"", ""distractor3"")",NA,NA,NA,NA,NA,NA,NA,NA,NA,NA,NA,NA,NA,NA,NA,NA,NA,NA,NA
597fc,Save data screen,canvas.Screen,2_15_0_1,NA,NA,timeout,502.70000000001,188143.70000005,188143.832,188146.9,188643.6,188644.20000005,2024-05-25T19:48:15Z,188649.6,Verpackung,ufungaji,s,uhusiano,upimaji,uchunguzi,NA,NA,0,"c(""distractor1"", ""distractor2"", ""distractor3"")",NA,NA,NA,NA,NA,NA,NA,NA,NA,NA,NA,NA,NA,NA,NA,NA,NA,NA,NA
597fc,shallow,flow.Sequence,2_15_0,NA,NA,completion,6608.9,182029.10000014,182028.7,182034.7,188643.6,188644.30000019,2024-05-25T19:48:15Z,188649.6,Verpackung,ufungaji,s,uhusiano,upimaji,uchunguzi,NA,NA,NA,"c(""distractor1"", ""distractor2"", ""distractor3"")",NA,NA,NA,NA,NA,NA,NA,NA,NA,NA,NA,NA,NA,NA,NA,NA,NA,NA,NA
597fc,task,flow.Sequence,2_15,NA,NA,completion,6608.9,182029.10000014,182028.7,182034.7,188643.6,188644.30000019,2024-05-25T19:48:15Z,188649.6,Verpackung,ufungaji,s,uhusiano,upimaji,uchunguzi,NA,NA,NA,"c(""distractor1"", ""distractor2"", ""distractor3"")",NA,NA,NA,NA,NA,NA,NA,NA,NA,NA,NA,NA,NA,NA,NA,NA,NA,NA,NA
597fc,retrieval block 2 (multiple choice),flow.Loop,2,NA,NA,completion,98114.1,90524.300000191,90523.8,90529.5,188643.6,188644.4000001,2024-05-25T19:48:15Z,188649.6,NA,NA,NA,NA,NA,NA,NA,NA,NA,"c(""distractor1"", ""distractor2"", ""distractor3"")",NA,NA,NA,NA,NA,NA,NA,NA,NA,NA,NA,NA,NA,NA,NA,NA,NA,NA,NA
597fc,End,canvas.Screen,3,NA,keypress(Space),response,2832.4,188644.4000001,188643.6,188649.6,191482,191483.10000014,2024-05-25T19:48:18Z,191484.4,NA,NA,NA,NA,NA,NA,NA,NA,NA,NULL,NA,NA,NA,NA,NA,NA,NA,NA,NA,NA,NA,NA,NA,NA,NA,NA,NA,NA,NA
597fc,root,flow.Sequence,NA,NA,NA,completion,190162.2,1311,1313.8,1319.8,191482,191483.30000019,2024-05-25T19:48:18Z,191484.4,NA,NA,NA,NA,NA,NA,NA,NA,NA,NULL,NA,NA,NA,NA,NA,NA,NA,NA,NA,NA,NA,NA,NA,NA,NA,NA,NA,NA,NA
