observation,sender,sender_type,sender_id,response,response_action,ended_on,duration,time_run,time_render,time_show,time_end,time_commit,timestamp,time_switch,distractors,german,swahili,enc,distractor1,distractor2,distractor3,response_2,x,correct,x_2,url_vp,url_sess,meta_labjs_version,meta_location,meta_user_agent,meta_platform,meta_language,meta_locale,meta_time_zone,meta_timezone_offset,meta_screen_width,meta_screen_height,meta_scroll_width,meta_scroll_height,meta_window_inner_width,meta_window_inner_height,meta_device_pixel_ratio,meta_labjs_build_flavor,meta_labjs_build_commit
a6ad7,Introduction general,canvas.Screen,0,weiter,keypress(q),response,13847.4,868,937.1,1070.6,14918,14931,2023-03-19T16:56:59Z,14933.14,NULL,NA,NA,NA,NA,NA,NA,NA,NA,NA,NA,112,3,20.2.4,https://neurocog.fernuni.ch/studies/vweber/encoding_immediate/index.html?vp=112&sess=3,Mozilla/5.0 (Macintosh; Intel Mac OS X 10.15; rv:109.0) Gecko/20100101 Firefox/111.0,MacIntel,en-US,en-US,Europe/Zurich,-60,1440,900,1440,692,1440,740,2,production,f5b4a49f956347addd546a832a3327688c2c0fef
a6ad7,Introduction practice,canvas.Screen,1_0,NA,keypress(Space),response,2378.86,14932,14932.8,14933.14,17312,17319,2023-03-19T16:57:01Z,17320.12,NULL,NA,NA,NA,NA,NA,NA,NA,NA,NA,NA,NA,NA,NA,NA,NA,NA,NA,NA,NA,NA,NA,NA,NA,NA,NA,NA,NA,NA,NA
a6ad7,Deep Question,html.Page,1_1_0_0_0,NA,NA,form submission,3002.88,17319,17319.78,17320.12,20323,20324,2023-03-19T16:57:04Z,20321.26,"c(""distractor1"", ""distractor2"", ""distractor3"")",Qualität,mtindo,d,NA,NA,NA,a,NA,NA,NA,NA,NA,NA,NA,NA,NA,NA,NA,NA,NA,NA,NA,NA,NA,NA,NA,NA,NA,NA
a6ad7,"""Richtig""-Screen",canvas.Screen,1_1_0_0_1,NA,NA,skipped,NA,20328,NA,NA,20323,20328,2023-03-19T16:57:04Z,20321.26,"c(""distractor1"", ""distractor2"", ""distractor3"")",Qualität,mtindo,d,NA,NA,NA,NA,NA,NA,NA,NA,NA,NA,NA,NA,NA,NA,NA,NA,NA,NA,NA,NA,NA,NA,NA,NA,NA,NA
a6ad7,"""Falsch""-Screen",canvas.Screen,1_1_0_0_2,NA,NA,timeout,5005.46,20331,20320.94,20321.26,25309.94,25310,2023-03-19T16:57:09Z,25326.72,"c(""distractor1"", ""distractor2"", ""distractor3"")",Qualität,mtindo,d,NA,NA,NA,NA,NA,0,NA,NA,NA,NA,NA,NA,NA,NA,NA,NA,NA,NA,NA,NA,NA,NA,NA,NA,NA,NA
a6ad7,deep,flow.Sequence,1_1_0_0,NA,NA,completion,7989.82,17319,17319.78,17320.12,25309.94,25310,2023-03-19T16:57:09Z,25326.72,"c(""distractor1"", ""distractor2"", ""distractor3"")",Qualität,mtindo,d,NA,NA,NA,NA,NA,NA,NA,NA,NA,NA,NA,NA,NA,NA,NA,NA,NA,NA,NA,NA,NA,NA,NA,NA,NA,NA
a6ad7,shallow,flow.Sequence,1_1_0_1,NA,NA,skipped,NA,25311,NA,NA,25309.94,25311,2023-03-19T16:57:09Z,25326.72,"c(""distractor1"", ""distractor2"", ""distractor3"")",Qualität,mtindo,d,NA,NA,NA,NA,NA,NA,NA,NA,NA,NA,NA,NA,NA,NA,NA,NA,NA,NA,NA,NA,NA,NA,NA,NA,NA,NA
a6ad7,task,flow.Sequence,1_1_0,NA,NA,completion,7989.82,17319,17319.78,17320.12,25309.94,25311,2023-03-19T16:57:09Z,25326.72,"c(""distractor1"", ""distractor2"", ""distractor3"")",Qualität,mtindo,d,NA,NA,NA,NA,NA,NA,NA,NA,NA,NA,NA,NA,NA,NA,NA,NA,NA,NA,NA,NA,NA,NA,NA,NA,NA,NA
a6ad7,Deep Question,html.Page,1_1_1_0_0,NA,NA,form submission,1886.28,25312,25309.94,25326.72,27213,27213,2023-03-19T16:57:11Z,27216.36,"c(""distractor1"", ""distractor2"", ""distractor3"")",Gesundheit,salama,d,NA,NA,NA,d,NA,NA,NA,NA,NA,NA,NA,NA,NA,NA,NA,NA,NA,NA,NA,NA,NA,NA,NA,NA,NA,NA
a6ad7,"""Richtig""-Screen",canvas.Screen,1_1_1_0_1,NA,NA,skipped,NA,27215,NA,NA,27213,27215,2023-03-19T16:57:11Z,27216.36,"c(""distractor1"", ""distractor2"", ""distractor3"")",Gesundheit,salama,d,NA,NA,NA,NA,NA,NA,NA,NA,NA,NA,NA,NA,NA,NA,NA,NA,NA,NA,NA,NA,NA,NA,NA,NA,NA,NA
a6ad7,"""Falsch""-Screen",canvas.Screen,1_1_1_0_2,NA,NA,timeout,5001.62,27218,27211.78,27216.36,32202.16,32203,2023-03-19T16:57:16Z,32217.98,"c(""distractor1"", ""distractor2"", ""distractor3"")",Gesundheit,salama,d,NA,NA,NA,NA,NA,0,NA,NA,NA,NA,NA,NA,NA,NA,NA,NA,NA,NA,NA,NA,NA,NA,NA,NA,NA,NA
a6ad7,deep,flow.Sequence,1_1_1_0,NA,NA,completion,6875.44,25311,25309.94,25326.72,32202.16,32204,2023-03-19T16:57:16Z,32217.98,"c(""distractor1"", ""distractor2"", ""distractor3"")",Gesundheit,salama,d,NA,NA,NA,NA,NA,NA,NA,NA,NA,NA,NA,NA,NA,NA,NA,NA,NA,NA,NA,NA,NA,NA,NA,NA,NA,NA
a6ad7,shallow,flow.Sequence,1_1_1_1,NA,NA,skipped,NA,32204,NA,NA,32202.16,32204,2023-03-19T16:57:16Z,32217.98,"c(""distractor1"", ""distractor2"", ""distractor3"")",Gesundheit,salama,d,NA,NA,NA,NA,NA,NA,NA,NA,NA,NA,NA,NA,NA,NA,NA,NA,NA,NA,NA,NA,NA,NA,NA,NA,NA,NA
a6ad7,task,flow.Sequence,1_1_1,NA,NA,completion,6875.44,25311,25309.94,25326.72,32202.16,32204,2023-03-19T16:57:16Z,32217.98,"c(""distractor1"", ""distractor2"", ""distractor3"")",Gesundheit,salama,d,NA,NA,NA,NA,NA,NA,NA,NA,NA,NA,NA,NA,NA,NA,NA,NA,NA,NA,NA,NA,NA,NA,NA,NA,NA,NA
a6ad7,Deep Question,html.Page,1_1_2_0_0,NA,NA,form submission,1067.02,32205,32202.16,32217.98,33285,33286,2023-03-19T16:57:17Z,33284.94,"c(""distractor1"", ""distractor2"", ""distractor3"")",Schatten,kivuli,d,NA,NA,NA,s,NA,NA,NA,NA,NA,NA,NA,NA,NA,NA,NA,NA,NA,NA,NA,NA,NA,NA,NA,NA,NA,NA
a6ad7,"""Richtig""-Screen",canvas.Screen,1_1_2_0_1,NA,NA,skipped,NA,33288,NA,NA,33285,33288,2023-03-19T16:57:17Z,33284.94,"c(""distractor1"", ""distractor2"", ""distractor3"")",Schatten,kivuli,d,NA,NA,NA,NA,NA,NA,NA,NA,NA,NA,NA,NA,NA,NA,NA,NA,NA,NA,NA,NA,NA,NA,NA,NA,NA,NA
a6ad7,"""Falsch""-Screen",canvas.Screen,1_1_2_0_2,NA,NA,timeout,4996.44,33291,33284.68,33284.94,38264.18,38265,2023-03-19T16:57:22Z,38281.38,"c(""distractor1"", ""distractor2"", ""distractor3"")",Schatten,kivuli,d,NA,NA,NA,NA,NA,0,NA,NA,NA,NA,NA,NA,NA,NA,NA,NA,NA,NA,NA,NA,NA,NA,NA,NA,NA,NA
a6ad7,deep,flow.Sequence,1_1_2_0,NA,NA,completion,6046.2,32205,32202.16,32217.98,38264.18,38265,2023-03-19T16:57:22Z,38281.38,"c(""distractor1"", ""distractor2"", ""distractor3"")",Schatten,kivuli,d,NA,NA,NA,NA,NA,NA,NA,NA,NA,NA,NA,NA,NA,NA,NA,NA,NA,NA,NA,NA,NA,NA,NA,NA,NA,NA
a6ad7,shallow,flow.Sequence,1_1_2_1,NA,NA,skipped,NA,38266,NA,NA,38264.18,38266,2023-03-19T16:57:22Z,38281.38,"c(""distractor1"", ""distractor2"", ""distractor3"")",Schatten,kivuli,d,NA,NA,NA,NA,NA,NA,NA,NA,NA,NA,NA,NA,NA,NA,NA,NA,NA,NA,NA,NA,NA,NA,NA,NA,NA,NA
a6ad7,task,flow.Sequence,1_1_2,NA,NA,completion,6046.2,32204,32202.16,32217.98,38264.18,38266,2023-03-19T16:57:22Z,38281.38,"c(""distractor1"", ""distractor2"", ""distractor3"")",Schatten,kivuli,d,NA,NA,NA,NA,NA,NA,NA,NA,NA,NA,NA,NA,NA,NA,NA,NA,NA,NA,NA,NA,NA,NA,NA,NA,NA,NA
a6ad7,deep,flow.Sequence,1_1_3_0,NA,NA,skipped,NA,38266,NA,NA,38264.18,38266,2023-03-19T16:57:22Z,38281.38,"c(""distractor1"", ""distractor2"", ""distractor3"")",Kritik,lawama,s,dereva,nafasi,mawazo,NA,NA,NA,NA,NA,NA,NA,NA,NA,NA,NA,NA,NA,NA,NA,NA,NA,NA,NA,NA,NA,NA,NA
a6ad7,Shallow Question,html.Page,1_1_3_1_0,NA,NA,form submission,2033.62,38266,38264.18,38281.38,40315,40315,2023-03-19T16:57:24Z,40324.54,"c(""distractor1"", ""distractor2"", ""distractor3"")",Kritik,lawama,s,dereva,nafasi,mawazo,mawazo,NA,NA,NA,NA,NA,NA,NA,NA,NA,NA,NA,NA,NA,NA,NA,NA,NA,NA,NA,NA,NA,NA
a6ad7,"""Richtig""-Screen",canvas.Screen,1_1_3_1_1,NA,NA,skipped,NA,40317,NA,NA,40315,40317,2023-03-19T16:57:24Z,40324.54,"c(""distractor1"", ""distractor2"", ""distractor3"")",Kritik,lawama,s,dereva,nafasi,mawazo,NA,NA,NA,NA,NA,NA,NA,NA,NA,NA,NA,NA,NA,NA,NA,NA,NA,NA,NA,NA,NA,NA,NA
a6ad7,"""Falsch""-Screen",canvas.Screen,1_1_3_1_2,NA,NA,timeout,5006.94,40320,40312.1,40324.54,45314.22,45315,2023-03-19T16:57:29Z,45331.48,"c(""distractor1"", ""distractor2"", ""distractor3"")",Kritik,lawama,s,dereva,nafasi,mawazo,NA,NA,0,NA,NA,NA,NA,NA,NA,NA,NA,NA,NA,NA,NA,NA,NA,NA,NA,NA,NA,NA,NA
a6ad7,shallow,flow.Sequence,1_1_3_1,NA,NA,completion,7032.84,38266,38264.18,38281.38,45314.22,45315,2023-03-19T16:57:29Z,45331.48,"c(""distractor1"", ""distractor2"", ""distractor3"")",Kritik,lawama,s,dereva,nafasi,mawazo,NA,NA,NA,NA,NA,NA,NA,NA,NA,NA,NA,NA,NA,NA,NA,NA,NA,NA,NA,NA,NA,NA,NA
a6ad7,task,flow.Sequence,1_1_3,NA,NA,completion,7032.84,38266,38264.18,38281.38,45314.22,45315,2023-03-19T16:57:29Z,45331.48,"c(""distractor1"", ""distractor2"", ""distractor3"")",Kritik,lawama,s,dereva,nafasi,mawazo,NA,NA,NA,NA,NA,NA,NA,NA,NA,NA,NA,NA,NA,NA,NA,NA,NA,NA,NA,NA,NA,NA,NA
a6ad7,deep,flow.Sequence,1_1_4_0,NA,NA,skipped,NA,45316,NA,NA,45314.22,45316,2023-03-19T16:57:29Z,45331.48,"c(""distractor1"", ""distractor2"", ""distractor3"")",Rückhalt,msaada,s,muhula,auwali,kiwimbe,NA,NA,NA,NA,NA,NA,NA,NA,NA,NA,NA,NA,NA,NA,NA,NA,NA,NA,NA,NA,NA,NA,NA
a6ad7,Shallow Question,html.Page,1_1_4_1_0,NA,NA,form submission,2036.52,45316,45314.22,45331.48,47368,47368,2023-03-19T16:57:31Z,47377.52,"c(""distractor1"", ""distractor2"", ""distractor3"")",Rückhalt,msaada,s,muhula,auwali,kiwimbe,muhula,NA,NA,NA,NA,NA,NA,NA,NA,NA,NA,NA,NA,NA,NA,NA,NA,NA,NA,NA,NA,NA,NA
a6ad7,"""Richtig""-Screen",canvas.Screen,1_1_4_1_1,NA,NA,skipped,NA,47370,NA,NA,47368,47370,2023-03-19T16:57:31Z,47377.52,"c(""distractor1"", ""distractor2"", ""distractor3"")",Rückhalt,msaada,s,muhula,auwali,kiwimbe,NA,NA,NA,NA,NA,NA,NA,NA,NA,NA,NA,NA,NA,NA,NA,NA,NA,NA,NA,NA,NA,NA,NA
a6ad7,"""Falsch""-Screen",canvas.Screen,1_1_4_1_2,NA,NA,timeout,5001.06,47372,47365.06,47377.52,52363.08,52364,2023-03-19T16:57:36Z,52378.58,"c(""distractor1"", ""distractor2"", ""distractor3"")",Rückhalt,msaada,s,muhula,auwali,kiwimbe,NA,NA,0,NA,NA,NA,NA,NA,NA,NA,NA,NA,NA,NA,NA,NA,NA,NA,NA,NA,NA,NA,NA
a6ad7,shallow,flow.Sequence,1_1_4_1,NA,NA,completion,7031.6,45316,45314.22,45331.48,52363.08,52364,2023-03-19T16:57:36Z,52378.58,"c(""distractor1"", ""distractor2"", ""distractor3"")",Rückhalt,msaada,s,muhula,auwali,kiwimbe,NA,NA,NA,NA,NA,NA,NA,NA,NA,NA,NA,NA,NA,NA,NA,NA,NA,NA,NA,NA,NA,NA,NA
a6ad7,task,flow.Sequence,1_1_4,NA,NA,completion,7031.6,45315,45314.22,45331.48,52363.08,52364,2023-03-19T16:57:36Z,52378.58,"c(""distractor1"", ""distractor2"", ""distractor3"")",Rückhalt,msaada,s,muhula,auwali,kiwimbe,NA,NA,NA,NA,NA,NA,NA,NA,NA,NA,NA,NA,NA,NA,NA,NA,NA,NA,NA,NA,NA,NA,NA
a6ad7,deep,flow.Sequence,1_1_5_0,NA,NA,skipped,NA,52364,NA,NA,52363.08,52364,2023-03-19T16:57:36Z,52378.58,"c(""distractor1"", ""distractor2"", ""distractor3"")",Gegenwart,hadhara,s,katiba,jokofu,mikopo,NA,NA,NA,NA,NA,NA,NA,NA,NA,NA,NA,NA,NA,NA,NA,NA,NA,NA,NA,NA,NA,NA,NA
a6ad7,Shallow Question,html.Page,1_1_5_1_0,NA,NA,form submission,2608.42,52364,52363.08,52378.58,54987,54987,2023-03-19T16:57:39Z,54995.9,"c(""distractor1"", ""distractor2"", ""distractor3"")",Gegenwart,hadhara,s,katiba,jokofu,mikopo,hadhara,NA,NA,NA,NA,NA,NA,NA,NA,NA,NA,NA,NA,NA,NA,NA,NA,NA,NA,NA,NA,NA,NA
a6ad7,"""Richtig""-Screen",canvas.Screen,1_1_5_1_1,NA,NA,timeout,5007.64,54989,54984.56,54995.9,59986.32,59987,2023-03-19T16:57:44Z,60003.54,"c(""distractor1"", ""distractor2"", ""distractor3"")",Gegenwart,hadhara,s,katiba,jokofu,mikopo,NA,NA,1,NA,NA,NA,NA,NA,NA,NA,NA,NA,NA,NA,NA,NA,NA,NA,NA,NA,NA,NA,NA
a6ad7,"""Falsch""-Screen",canvas.Screen,1_1_5_1_2,NA,NA,skipped,NA,59990,NA,NA,59986.32,59990,2023-03-19T16:57:44Z,60003.54,"c(""distractor1"", ""distractor2"", ""distractor3"")",Gegenwart,hadhara,s,katiba,jokofu,mikopo,NA,NA,NA,NA,NA,NA,NA,NA,NA,NA,NA,NA,NA,NA,NA,NA,NA,NA,NA,NA,NA,NA,NA
a6ad7,shallow,flow.Sequence,1_1_5_1,NA,NA,completion,7607.74,52364,52363.08,52378.58,59986.32,59990,2023-03-19T16:57:44Z,60003.54,"c(""distractor1"", ""distractor2"", ""distractor3"")",Gegenwart,hadhara,s,katiba,jokofu,mikopo,NA,NA,NA,NA,NA,NA,NA,NA,NA,NA,NA,NA,NA,NA,NA,NA,NA,NA,NA,NA,NA,NA,NA
a6ad7,task,flow.Sequence,1_1_5,NA,NA,completion,7607.74,52364,52363.08,52378.58,59986.32,59990,2023-03-19T16:57:44Z,60003.54,"c(""distractor1"", ""distractor2"", ""distractor3"")",Gegenwart,hadhara,s,katiba,jokofu,mikopo,NA,NA,NA,NA,NA,NA,NA,NA,NA,NA,NA,NA,NA,NA,NA,NA,NA,NA,NA,NA,NA,NA,NA
a6ad7,block,flow.Loop,1_1,NA,NA,completion,42666.2,17319,17319.78,17320.12,59986.32,59990,2023-03-19T16:57:44Z,60003.54,"c(""distractor1"", ""distractor2"", ""distractor3"")",NA,NA,NA,NA,NA,NA,NA,NA,NA,NA,NA,NA,NA,NA,NA,NA,NA,NA,NA,NA,NA,NA,NA,NA,NA,NA,NA,NA,NA
a6ad7,Practice,flow.Sequence,1,NA,NA,completion,45053.18,14932,14932.8,14933.14,59986.32,59991,2023-03-19T16:57:44Z,60003.54,NULL,NA,NA,NA,NA,NA,NA,NA,NA,NA,NA,NA,NA,NA,NA,NA,NA,NA,NA,NA,NA,NA,NA,NA,NA,NA,NA,NA,NA,NA
a6ad7,Experiment start,canvas.Screen,2,weiter,keypress(q),response,299335.46,59991,59986.32,60003.54,359339,359348,2023-03-19T17:02:43Z,359469.28,NULL,NA,NA,NA,NA,NA,NA,NA,NA,NA,NA,NA,NA,NA,NA,NA,NA,NA,NA,NA,NA,NA,NA,NA,NA,NA,NA,NA,NA,NA
a6ad7,Deep Question,html.Page,3_0_0_0_0_0_0,NA,NA,form submission,6747.72,359469,359468.96,359469.28,366217,366217,2023-03-19T17:02:50Z,366216.32,NULL,Schock,mshtuko,d,NA,NA,NA,a,NA,NA,0,NA,NA,NA,NA,NA,NA,NA,NA,NA,NA,NA,NA,NA,NA,NA,NA,NA,NA,NA
a6ad7,"""Richtig""-Screen",canvas.Screen,3_0_0_0_0_0_1,NA,NA,skipped,NA,366219,NA,NA,366217,366220,2023-03-19T17:02:50Z,366216.32,NULL,Schock,mshtuko,d,NA,NA,NA,NA,sdf,NA,0,NA,NA,NA,NA,NA,NA,NA,NA,NA,NA,NA,NA,NA,NA,NA,NA,NA,NA,NA
a6ad7,"""Falsch""-Screen",canvas.Screen,3_0_0_0_0_0_2,NA,NA,timeout,5001.36,366221,366215.96,366216.32,371200.32,371201,2023-03-19T17:02:55Z,371217.68,NULL,Schock,mshtuko,d,NA,NA,NA,NA,sdf,0,0,NA,NA,NA,NA,NA,NA,NA,NA,NA,NA,NA,NA,NA,NA,NA,NA,NA,NA,NA
a6ad7,deep,flow.Sequence,3_0_0_0_0_0,NA,NA,completion,11731.04,359469,359468.96,359469.28,371200.32,371202,2023-03-19T17:02:55Z,371217.68,NULL,Schock,mshtuko,d,NA,NA,NA,NA,sdf,NA,0,NA,NA,NA,NA,NA,NA,NA,NA,NA,NA,NA,NA,NA,NA,NA,NA,NA,NA,NA
a6ad7,shallow,flow.Sequence,3_0_0_0_0_1,NA,NA,skipped,NA,371202,NA,NA,371200.32,371202,2023-03-19T17:02:55Z,371217.68,NULL,Schock,mshtuko,d,NA,NA,NA,NA,sdf,NA,0,NA,NA,NA,NA,NA,NA,NA,NA,NA,NA,NA,NA,NA,NA,NA,NA,NA,NA,NA
a6ad7,task,flow.Sequence,3_0_0_0_0,NA,NA,completion,11731.04,359469,359468.96,359469.28,371200.32,371202,2023-03-19T17:02:55Z,371217.68,NULL,Schock,mshtuko,d,NA,NA,NA,NA,sdf,NA,0,NA,NA,NA,NA,NA,NA,NA,NA,NA,NA,NA,NA,NA,NA,NA,NA,NA,NA,NA
a6ad7,Deep Question,html.Page,3_0_0_0_1_0_0,NA,NA,form submission,2685.32,371202,371200.32,371217.68,373903,373903,2023-03-19T17:02:58Z,373902.08,NULL,Zufall,kikuti,d,NA,NA,NA,h,NA,NA,0,NA,NA,NA,NA,NA,NA,NA,NA,NA,NA,NA,NA,NA,NA,NA,NA,NA,NA,NA
a6ad7,"""Richtig""-Screen",canvas.Screen,3_0_0_0_1_0_1,NA,NA,skipped,NA,373904,NA,NA,373903,373904,2023-03-19T17:02:58Z,373902.08,NULL,Zufall,kikuti,d,NA,NA,NA,NA,sdf,NA,0,NA,NA,NA,NA,NA,NA,NA,NA,NA,NA,NA,NA,NA,NA,NA,NA,NA,NA,NA
a6ad7,"""Falsch""-Screen",canvas.Screen,3_0_0_0_1_0_2,NA,NA,timeout,5005.84,373906,373901.82,373902.08,378891.58,378892,2023-03-19T17:03:03Z,378907.92,NULL,Zufall,kikuti,d,NA,NA,NA,NA,sdf,0,0,NA,NA,NA,NA,NA,NA,NA,NA,NA,NA,NA,NA,NA,NA,NA,NA,NA,NA,NA
a6ad7,deep,flow.Sequence,3_0_0_0_1_0,NA,NA,completion,7673.9,371202,371200.32,371217.68,378891.58,378893,2023-03-19T17:03:03Z,378907.92,NULL,Zufall,kikuti,d,NA,NA,NA,NA,sdf,NA,0,NA,NA,NA,NA,NA,NA,NA,NA,NA,NA,NA,NA,NA,NA,NA,NA,NA,NA,NA
a6ad7,shallow,flow.Sequence,3_0_0_0_1_1,NA,NA,skipped,NA,378893,NA,NA,378891.58,378893,2023-03-19T17:03:03Z,378907.92,NULL,Zufall,kikuti,d,NA,NA,NA,NA,sdf,NA,0,NA,NA,NA,NA,NA,NA,NA,NA,NA,NA,NA,NA,NA,NA,NA,NA,NA,NA,NA
a6ad7,task,flow.Sequence,3_0_0_0_1,NA,NA,completion,7673.9,371202,371200.32,371217.68,378891.58,378893,2023-03-19T17:03:03Z,378907.92,NULL,Zufall,kikuti,d,NA,NA,NA,NA,sdf,NA,0,NA,NA,NA,NA,NA,NA,NA,NA,NA,NA,NA,NA,NA,NA,NA,NA,NA,NA,NA
a6ad7,Deep Question,html.Page,3_0_0_0_2_0_0,NA,NA,form submission,2872.08,378893,378891.58,378907.92,381780,381781,2023-03-19T17:03:06Z,381789.64,NULL,Schönheit,kirembo,d,NA,NA,NA,s,NA,NA,0,NA,NA,NA,NA,NA,NA,NA,NA,NA,NA,NA,NA,NA,NA,NA,NA,NA,NA,NA
a6ad7,"""Richtig""-Screen",canvas.Screen,3_0_0_0_2_0_1,NA,NA,skipped,NA,381783,NA,NA,381780,381784,2023-03-19T17:03:06Z,381789.64,NULL,Schönheit,kirembo,d,NA,NA,NA,NA,sdf,NA,0,NA,NA,NA,NA,NA,NA,NA,NA,NA,NA,NA,NA,NA,NA,NA,NA,NA,NA,NA
a6ad7,"""Falsch""-Screen",canvas.Screen,3_0_0_0_2_0_2,NA,NA,timeout,4997,381785,381779.14,381789.64,386770.82,386772,2023-03-19T17:03:11Z,386786.64,NULL,Schönheit,kirembo,d,NA,NA,NA,NA,sdf,0,0,NA,NA,NA,NA,NA,NA,NA,NA,NA,NA,NA,NA,NA,NA,NA,NA,NA,NA,NA
a6ad7,deep,flow.Sequence,3_0_0_0_2_0,NA,NA,completion,7862.9,378893,378891.58,378907.92,386770.82,386773,2023-03-19T17:03:11Z,386786.64,NULL,Schönheit,kirembo,d,NA,NA,NA,NA,sdf,NA,0,NA,NA,NA,NA,NA,NA,NA,NA,NA,NA,NA,NA,NA,NA,NA,NA,NA,NA,NA
a6ad7,shallow,flow.Sequence,3_0_0_0_2_1,NA,NA,skipped,NA,386773,NA,NA,386770.82,386773,2023-03-19T17:03:11Z,386786.64,NULL,Schönheit,kirembo,d,NA,NA,NA,NA,sdf,NA,0,NA,NA,NA,NA,NA,NA,NA,NA,NA,NA,NA,NA,NA,NA,NA,NA,NA,NA,NA
a6ad7,task,flow.Sequence,3_0_0_0_2,NA,NA,completion,7862.9,378893,378891.58,378907.92,386770.82,386773,2023-03-19T17:03:11Z,386786.64,NULL,Schönheit,kirembo,d,NA,NA,NA,NA,sdf,NA,0,NA,NA,NA,NA,NA,NA,NA,NA,NA,NA,NA,NA,NA,NA,NA,NA,NA,NA,NA
a6ad7,deep,flow.Sequence,3_0_0_0_3_0,NA,NA,skipped,NA,386774,NA,NA,386770.82,386774,2023-03-19T17:03:11Z,386786.64,NULL,Auftrag,uagizaji,s,ghanima,kuzingatia,msukani,NA,sdf,NA,0,NA,NA,NA,NA,NA,NA,NA,NA,NA,NA,NA,NA,NA,NA,NA,NA,NA,NA,NA
a6ad7,Shallow Question,html.Page,3_0_0_0_3_1_0,NA,NA,form submission,7684.36,386775,386770.82,386786.64,394471,394471,2023-03-19T17:03:18Z,394469.94,NULL,Auftrag,uagizaji,s,ghanima,kuzingatia,msukani,ghanima,NA,NA,0,NA,NA,NA,NA,NA,NA,NA,NA,NA,NA,NA,NA,NA,NA,NA,NA,NA,NA,NA
a6ad7,"""Richtig""-Screen",canvas.Screen,3_0_0_0_3_1_1,NA,NA,skipped,NA,394475,NA,NA,394471,394475,2023-03-19T17:03:18Z,394469.94,NULL,Auftrag,uagizaji,s,ghanima,kuzingatia,msukani,NA,sdf,NA,0,NA,NA,NA,NA,NA,NA,NA,NA,NA,NA,NA,NA,NA,NA,NA,NA,NA,NA,NA
a6ad7,"""Falsch""-Screen",canvas.Screen,3_0_0_0_3_1_2,NA,NA,timeout,5001.82,394480,394469.6,394469.94,399456.08,399457,2023-03-19T17:03:23Z,399471.76,NULL,Auftrag,uagizaji,s,ghanima,kuzingatia,msukani,NA,sdf,0,0,NA,NA,NA,NA,NA,NA,NA,NA,NA,NA,NA,NA,NA,NA,NA,NA,NA,NA,NA
a6ad7,shallow,flow.Sequence,3_0_0_0_3_1,NA,NA,completion,12669.44,386775,386770.82,386786.64,399456.08,399457,2023-03-19T17:03:23Z,399471.76,NULL,Auftrag,uagizaji,s,ghanima,kuzingatia,msukani,NA,sdf,NA,0,NA,NA,NA,NA,NA,NA,NA,NA,NA,NA,NA,NA,NA,NA,NA,NA,NA,NA,NA
a6ad7,task,flow.Sequence,3_0_0_0_3,NA,NA,completion,12669.44,386774,386770.82,386786.64,399456.08,399457,2023-03-19T17:03:23Z,399471.76,NULL,Auftrag,uagizaji,s,ghanima,kuzingatia,msukani,NA,sdf,NA,0,NA,NA,NA,NA,NA,NA,NA,NA,NA,NA,NA,NA,NA,NA,NA,NA,NA,NA,NA
a6ad7,Deep Question,html.Page,3_0_0_0_4_0_0,NA,NA,form submission,2156.24,399457,399456.08,399471.76,401628,401628,2023-03-19T17:03:25Z,401627.42,NULL,Theorie,nadharia,d,NA,NA,NA,s,NA,NA,0,NA,NA,NA,NA,NA,NA,NA,NA,NA,NA,NA,NA,NA,NA,NA,NA,NA,NA,NA
a6ad7,"""Richtig""-Screen",canvas.Screen,3_0_0_0_4_0_1,NA,NA,skipped,NA,401631,NA,NA,401628,401631,2023-03-19T17:03:25Z,401627.42,NULL,Theorie,nadharia,d,NA,NA,NA,NA,sdf,NA,0,NA,NA,NA,NA,NA,NA,NA,NA,NA,NA,NA,NA,NA,NA,NA,NA,NA,NA,NA
a6ad7,"""Falsch""-Screen",canvas.Screen,3_0_0_0_4_0_2,NA,NA,timeout,5005.24,401634,401626.92,401627.42,406616.54,406617,2023-03-19T17:03:30Z,406632.66,NULL,Theorie,nadharia,d,NA,NA,NA,NA,sdf,0,0,NA,NA,NA,NA,NA,NA,NA,NA,NA,NA,NA,NA,NA,NA,NA,NA,NA,NA,NA
a6ad7,deep,flow.Sequence,3_0_0_0_4_0,NA,NA,completion,7144.78,399457,399456.08,399471.76,406616.54,406617,2023-03-19T17:03:30Z,406632.66,NULL,Theorie,nadharia,d,NA,NA,NA,NA,sdf,NA,0,NA,NA,NA,NA,NA,NA,NA,NA,NA,NA,NA,NA,NA,NA,NA,NA,NA,NA,NA
a6ad7,shallow,flow.Sequence,3_0_0_0_4_1,NA,NA,skipped,NA,406617,NA,NA,406616.54,406617,2023-03-19T17:03:30Z,406632.66,NULL,Theorie,nadharia,d,NA,NA,NA,NA,sdf,NA,0,NA,NA,NA,NA,NA,NA,NA,NA,NA,NA,NA,NA,NA,NA,NA,NA,NA,NA,NA
a6ad7,task,flow.Sequence,3_0_0_0_4,NA,NA,completion,7144.78,399457,399456.08,399471.76,406616.54,406617,2023-03-19T17:03:30Z,406632.66,NULL,Theorie,nadharia,d,NA,NA,NA,NA,sdf,NA,0,NA,NA,NA,NA,NA,NA,NA,NA,NA,NA,NA,NA,NA,NA,NA,NA,NA,NA,NA
a6ad7,deep,flow.Sequence,3_0_0_0_5_0,NA,NA,skipped,NA,406617,NA,NA,406616.54,406617,2023-03-19T17:03:30Z,406632.66,NULL,Verpackung,ufungaji,s,uhusiano,upimaji,uchunguzi,NA,sdf,NA,0,NA,NA,NA,NA,NA,NA,NA,NA,NA,NA,NA,NA,NA,NA,NA,NA,NA,NA,NA
a6ad7,Shallow Question,html.Page,3_0_0_0_5_1_0,NA,NA,form submission,4803.34,406618,406616.54,406632.66,411436,411437,2023-03-19T17:03:35Z,411436.42,NULL,Verpackung,ufungaji,s,uhusiano,upimaji,uchunguzi,upimaji,NA,NA,0,NA,NA,NA,NA,NA,NA,NA,NA,NA,NA,NA,NA,NA,NA,NA,NA,NA,NA,NA
a6ad7,"""Richtig""-Screen",canvas.Screen,3_0_0_0_5_1_1,NA,NA,skipped,NA,411440,NA,NA,411436,411440,2023-03-19T17:03:35Z,411436.42,NULL,Verpackung,ufungaji,s,uhusiano,upimaji,uchunguzi,NA,sdf,NA,0,NA,NA,NA,NA,NA,NA,NA,NA,NA,NA,NA,NA,NA,NA,NA,NA,NA,NA,NA
a6ad7,"""Falsch""-Screen",canvas.Screen,3_0_0_0_5_1_2,NA,NA,timeout,5003.72,411443,411436.14,411436.42,416424.12,416425,2023-03-19T17:03:40Z,416440.14,NULL,Verpackung,ufungaji,s,uhusiano,upimaji,uchunguzi,NA,sdf,0,0,NA,NA,NA,NA,NA,NA,NA,NA,NA,NA,NA,NA,NA,NA,NA,NA,NA,NA,NA
a6ad7,shallow,flow.Sequence,3_0_0_0_5_1,NA,NA,completion,9791.46,406618,406616.54,406632.66,416424.12,416425,2023-03-19T17:03:40Z,416440.14,NULL,Verpackung,ufungaji,s,uhusiano,upimaji,uchunguzi,NA,sdf,NA,0,NA,NA,NA,NA,NA,NA,NA,NA,NA,NA,NA,NA,NA,NA,NA,NA,NA,NA,NA
a6ad7,task,flow.Sequence,3_0_0_0_5,NA,NA,completion,9791.46,406617,406616.54,406632.66,416424.12,416425,2023-03-19T17:03:40Z,416440.14,NULL,Verpackung,ufungaji,s,uhusiano,upimaji,uchunguzi,NA,sdf,NA,0,NA,NA,NA,NA,NA,NA,NA,NA,NA,NA,NA,NA,NA,NA,NA,NA,NA,NA,NA
a6ad7,deep,flow.Sequence,3_0_0_0_6_0,NA,NA,skipped,NA,416426,NA,NA,416424.12,416426,2023-03-19T17:03:40Z,416440.14,NULL,Hoffnung,matarajio,s,kutaalamika,uratibu,mvumbuzi,NA,sdf,NA,0,NA,NA,NA,NA,NA,NA,NA,NA,NA,NA,NA,NA,NA,NA,NA,NA,NA,NA,NA
a6ad7,Shallow Question,html.Page,3_0_0_0_6_1_0,NA,NA,form submission,2766.86,416426,416424.12,416440.14,419207,419207,2023-03-19T17:03:43Z,419206.4,NULL,Hoffnung,matarajio,s,kutaalamika,uratibu,mvumbuzi,kutaalamika,NA,NA,0,NA,NA,NA,NA,NA,NA,NA,NA,NA,NA,NA,NA,NA,NA,NA,NA,NA,NA,NA
a6ad7,"""Richtig""-Screen",canvas.Screen,3_0_0_0_6_1_1,NA,NA,skipped,NA,419209,NA,NA,419207,419210,2023-03-19T17:03:43Z,419206.4,NULL,Hoffnung,matarajio,s,kutaalamika,uratibu,mvumbuzi,NA,sdf,NA,0,NA,NA,NA,NA,NA,NA,NA,NA,NA,NA,NA,NA,NA,NA,NA,NA,NA,NA,NA
a6ad7,"""Falsch""-Screen",canvas.Screen,3_0_0_0_6_1_2,NA,NA,timeout,4999.64,419212,419206.14,419206.4,424190.1,424190,2023-03-19T17:03:48Z,424206.04,NULL,Hoffnung,matarajio,s,kutaalamika,uratibu,mvumbuzi,NA,sdf,0,0,NA,NA,NA,NA,NA,NA,NA,NA,NA,NA,NA,NA,NA,NA,NA,NA,NA,NA,NA
a6ad7,shallow,flow.Sequence,3_0_0_0_6_1,NA,NA,completion,7749.96,416426,416424.12,416440.14,424190.1,424191,2023-03-19T17:03:48Z,424206.04,NULL,Hoffnung,matarajio,s,kutaalamika,uratibu,mvumbuzi,NA,sdf,NA,0,NA,NA,NA,NA,NA,NA,NA,NA,NA,NA,NA,NA,NA,NA,NA,NA,NA,NA,NA
a6ad7,task,flow.Sequence,3_0_0_0_6,NA,NA,completion,7749.96,416425,416424.12,416440.14,424190.1,424191,2023-03-19T17:03:48Z,424206.04,NULL,Hoffnung,matarajio,s,kutaalamika,uratibu,mvumbuzi,NA,sdf,NA,0,NA,NA,NA,NA,NA,NA,NA,NA,NA,NA,NA,NA,NA,NA,NA,NA,NA,NA,NA
a6ad7,deep,flow.Sequence,3_0_0_0_7_0,NA,NA,skipped,NA,424191,NA,NA,424190.1,424191,2023-03-19T17:03:48Z,424206.04,NULL,Wettbewerb,ushindani,s,mapendezi,kichocheo,ubaguzi,NA,sdf,NA,0,NA,NA,NA,NA,NA,NA,NA,NA,NA,NA,NA,NA,NA,NA,NA,NA,NA,NA,NA
a6ad7,Shallow Question,html.Page,3_0_0_0_7_1_0,NA,NA,form submission,2831.96,424192,424190.1,424206.04,427038,427038,2023-03-19T17:03:51Z,427037.58,NULL,Wettbewerb,ushindani,s,mapendezi,kichocheo,ubaguzi,ubaguzi,NA,NA,0,NA,NA,NA,NA,NA,NA,NA,NA,NA,NA,NA,NA,NA,NA,NA,NA,NA,NA,NA
a6ad7,"""Richtig""-Screen",canvas.Screen,3_0_0_0_7_1_1,NA,NA,skipped,NA,427041,NA,NA,427038,427041,2023-03-19T17:03:51Z,427037.58,NULL,Wettbewerb,ushindani,s,mapendezi,kichocheo,ubaguzi,NA,sdf,NA,0,NA,NA,NA,NA,NA,NA,NA,NA,NA,NA,NA,NA,NA,NA,NA,NA,NA,NA,NA
a6ad7,"""Falsch""-Screen",canvas.Screen,3_0_0_0_7_1_2,NA,NA,timeout,5001.92,427043,427037.32,427037.58,432023.62,432024,2023-03-19T17:03:56Z,432039.5,NULL,Wettbewerb,ushindani,s,mapendezi,kichocheo,ubaguzi,NA,sdf,0,0,NA,NA,NA,NA,NA,NA,NA,NA,NA,NA,NA,NA,NA,NA,NA,NA,NA,NA,NA
a6ad7,shallow,flow.Sequence,3_0_0_0_7_1,NA,NA,completion,7817.58,424192,424190.1,424206.04,432023.62,432024,2023-03-19T17:03:56Z,432039.5,NULL,Wettbewerb,ushindani,s,mapendezi,kichocheo,ubaguzi,NA,sdf,NA,0,NA,NA,NA,NA,NA,NA,NA,NA,NA,NA,NA,NA,NA,NA,NA,NA,NA,NA,NA
a6ad7,task,flow.Sequence,3_0_0_0_7,NA,NA,completion,7817.58,424191,424190.1,424206.04,432023.62,432025,2023-03-19T17:03:56Z,432039.5,NULL,Wettbewerb,ushindani,s,mapendezi,kichocheo,ubaguzi,NA,sdf,NA,0,NA,NA,NA,NA,NA,NA,NA,NA,NA,NA,NA,NA,NA,NA,NA,NA,NA,NA,NA
a6ad7,block,flow.Loop,3_0_0_0,NA,NA,completion,72554.34,359469,359468.96,359469.28,432023.62,432025,2023-03-19T17:03:56Z,432039.5,NULL,NA,NA,NA,NA,NA,NA,NA,sdf,NA,0,NA,NA,NA,NA,NA,NA,NA,NA,NA,NA,NA,NA,NA,NA,NA,NA,NA,NA,NA
a6ad7,weiter,canvas.Screen,3_0_0_1,sdf,keypress(Space),response,1454.5,432025,432023.62,432039.5,433494,433499,2023-03-19T17:03:57Z,433563.64,NULL,NA,NA,NA,NA,NA,NA,NA,sdf,NA,0,NA,NA,NA,NA,NA,NA,NA,NA,NA,NA,NA,NA,NA,NA,NA,NA,NA,NA,NA
a6ad7,check continue,flow.Sequence,3_0_0,NA,NA,completion,74024.72,359469,359468.96,359469.28,433494,433500,2023-03-19T17:03:57Z,433563.64,NULL,NA,NA,NA,NA,NA,NA,NA,sdf,NA,0,NA,NA,NA,NA,NA,NA,NA,NA,NA,NA,NA,NA,NA,NA,NA,NA,NA,NA,NA
a6ad7,deep,flow.Sequence,3_0_1_0_0_0,NA,NA,skipped,NA,433563,NA,NA,433494,433563,2023-03-19T17:03:57Z,433563.64,NULL,Auftrag,uagizaji,s,ghanima,kuzingatia,msukani,NA,sdfdsf,NA,1,NA,NA,NA,NA,NA,NA,NA,NA,NA,NA,NA,NA,NA,NA,NA,NA,NA,NA,NA
a6ad7,Shallow Question,html.Page,3_0_1_0_0_1_0,NA,NA,form submission,9064.36,433563,433563.14,433563.64,442628,442629,2023-03-19T17:04:06Z,442626.68,NULL,Auftrag,uagizaji,s,ghanima,kuzingatia,msukani,msukani,NA,NA,1,NA,NA,NA,NA,NA,NA,NA,NA,NA,NA,NA,NA,NA,NA,NA,NA,NA,NA,NA
a6ad7,"""Richtig""-Screen",canvas.Screen,3_0_1_0_0_1_1,NA,NA,skipped,NA,442634,NA,NA,442628,442634,2023-03-19T17:04:06Z,442626.68,NULL,Auftrag,uagizaji,s,ghanima,kuzingatia,msukani,NA,sdfdsf,NA,1,NA,NA,NA,NA,NA,NA,NA,NA,NA,NA,NA,NA,NA,NA,NA,NA,NA,NA,NA
a6ad7,"""Falsch""-Screen",canvas.Screen,3_0_1_0_0_1_2,NA,NA,timeout,4995.36,442638,442626.38,442626.68,447605.54,447607,2023-03-19T17:04:11Z,447622.04,NULL,Auftrag,uagizaji,s,ghanima,kuzingatia,msukani,NA,sdfdsf,0,1,NA,NA,NA,NA,NA,NA,NA,NA,NA,NA,NA,NA,NA,NA,NA,NA,NA,NA,NA
a6ad7,shallow,flow.Sequence,3_0_1_0_0_1,NA,NA,completion,14041.9,433563,433563.14,433563.64,447605.54,447607,2023-03-19T17:04:11Z,447622.04,NULL,Auftrag,uagizaji,s,ghanima,kuzingatia,msukani,NA,sdfdsf,NA,1,NA,NA,NA,NA,NA,NA,NA,NA,NA,NA,NA,NA,NA,NA,NA,NA,NA,NA,NA
a6ad7,task,flow.Sequence,3_0_1_0_0,NA,NA,completion,14041.9,433563,433563.14,433563.64,447605.54,447607,2023-03-19T17:04:11Z,447622.04,NULL,Auftrag,uagizaji,s,ghanima,kuzingatia,msukani,NA,sdfdsf,NA,1,NA,NA,NA,NA,NA,NA,NA,NA,NA,NA,NA,NA,NA,NA,NA,NA,NA,NA,NA
a6ad7,Deep Question,html.Page,3_0_1_0_1_0_0,NA,NA,form submission,6036.96,447608,447605.54,447622.04,453659,453659,2023-03-19T17:04:18Z,453657.98,NULL,Schock,mshtuko,d,NA,NA,NA,kid,NA,NA,1,NA,NA,NA,NA,NA,NA,NA,NA,NA,NA,NA,NA,NA,NA,NA,NA,NA,NA,NA
a6ad7,"""Richtig""-Screen",canvas.Screen,3_0_1_0_1_0_1,NA,NA,skipped,NA,453661,NA,NA,453659,453662,2023-03-19T17:04:18Z,453657.98,NULL,Schock,mshtuko,d,NA,NA,NA,NA,sdfdsf,NA,1,NA,NA,NA,NA,NA,NA,NA,NA,NA,NA,NA,NA,NA,NA,NA,NA,NA,NA,NA
a6ad7,"""Falsch""-Screen",canvas.Screen,3_0_1_0_1_0_2,NA,NA,timeout,4997.32,453663,453657.68,453657.98,458639.82,458640,2023-03-19T17:04:22Z,458655.3,NULL,Schock,mshtuko,d,NA,NA,NA,NA,sdfdsf,0,1,NA,NA,NA,NA,NA,NA,NA,NA,NA,NA,NA,NA,NA,NA,NA,NA,NA,NA,NA
a6ad7,deep,flow.Sequence,3_0_1_0_1_0,NA,NA,completion,11017.78,447608,447605.54,447622.04,458639.82,458641,2023-03-19T17:04:22Z,458655.3,NULL,Schock,mshtuko,d,NA,NA,NA,NA,sdfdsf,NA,1,NA,NA,NA,NA,NA,NA,NA,NA,NA,NA,NA,NA,NA,NA,NA,NA,NA,NA,NA
a6ad7,shallow,flow.Sequence,3_0_1_0_1_1,NA,NA,skipped,NA,458642,NA,NA,458639.82,458642,2023-03-19T17:04:22Z,458655.3,NULL,Schock,mshtuko,d,NA,NA,NA,NA,sdfdsf,NA,1,NA,NA,NA,NA,NA,NA,NA,NA,NA,NA,NA,NA,NA,NA,NA,NA,NA,NA,NA
a6ad7,task,flow.Sequence,3_0_1_0_1,NA,NA,completion,11017.78,447608,447605.54,447622.04,458639.82,458642,2023-03-19T17:04:22Z,458655.3,NULL,Schock,mshtuko,d,NA,NA,NA,NA,sdfdsf,NA,1,NA,NA,NA,NA,NA,NA,NA,NA,NA,NA,NA,NA,NA,NA,NA,NA,NA,NA,NA
a6ad7,Deep Question,html.Page,3_0_1_0_2_0_0,NA,NA,form submission,4186.7,458642,458639.82,458655.3,462842,462844,2023-03-19T17:04:27Z,462852.44,NULL,Zufall,kikuti,d,NA,NA,NA,kikuti,NA,NA,1,NA,NA,NA,NA,NA,NA,NA,NA,NA,NA,NA,NA,NA,NA,NA,NA,NA,NA,NA
a6ad7,"""Richtig""-Screen",canvas.Screen,3_0_1_0_2_0_1,NA,NA,timeout,5002.96,462845,462842.08,462852.44,467838.82,467839,2023-03-19T17:04:32Z,467855.4,NULL,Zufall,kikuti,d,NA,NA,NA,NA,sdfdsf,1,1,NA,NA,NA,NA,NA,NA,NA,NA,NA,NA,NA,NA,NA,NA,NA,NA,NA,NA,NA
a6ad7,"""Falsch""-Screen",canvas.Screen,3_0_1_0_2_0_2,NA,NA,skipped,NA,467843,NA,NA,467838.82,467843,2023-03-19T17:04:32Z,467855.4,NULL,Zufall,kikuti,d,NA,NA,NA,NA,sdfdsf,NA,1,NA,NA,NA,NA,NA,NA,NA,NA,NA,NA,NA,NA,NA,NA,NA,NA,NA,NA,NA
a6ad7,deep,flow.Sequence,3_0_1_0_2_0,NA,NA,completion,9183.52,458642,458639.82,458655.3,467838.82,467843,2023-03-19T17:04:32Z,467855.4,NULL,Zufall,kikuti,d,NA,NA,NA,NA,sdfdsf,NA,1,NA,NA,NA,NA,NA,NA,NA,NA,NA,NA,NA,NA,NA,NA,NA,NA,NA,NA,NA
a6ad7,shallow,flow.Sequence,3_0_1_0_2_1,NA,NA,skipped,NA,467843,NA,NA,467838.82,467843,2023-03-19T17:04:32Z,467855.4,NULL,Zufall,kikuti,d,NA,NA,NA,NA,sdfdsf,NA,1,NA,NA,NA,NA,NA,NA,NA,NA,NA,NA,NA,NA,NA,NA,NA,NA,NA,NA,NA
a6ad7,task,flow.Sequence,3_0_1_0_2,NA,NA,completion,9183.52,458642,458639.82,458655.3,467838.82,467843,2023-03-19T17:04:32Z,467855.4,NULL,Zufall,kikuti,d,NA,NA,NA,NA,sdfdsf,NA,1,NA,NA,NA,NA,NA,NA,NA,NA,NA,NA,NA,NA,NA,NA,NA,NA,NA,NA,NA
a6ad7,Deep Question,html.Page,3_0_1_0_3_0_0,NA,NA,form submission,3646.6,467843,467838.82,467855.4,471502,471502,2023-03-19T17:04:35Z,471501.22,NULL,Theorie,nadharia,d,NA,NA,NA,nadharia,NA,NA,1,NA,NA,NA,NA,NA,NA,NA,NA,NA,NA,NA,NA,NA,NA,NA,NA,NA,NA,NA
a6ad7,"""Richtig""-Screen",canvas.Screen,3_0_1_0_3_0_1,NA,NA,timeout,5001.7,471504,471500.94,471501.22,476487.18,476487,2023-03-19T17:04:40Z,476502.92,NULL,Theorie,nadharia,d,NA,NA,NA,NA,sdfdsf,1,1,NA,NA,NA,NA,NA,NA,NA,NA,NA,NA,NA,NA,NA,NA,NA,NA,NA,NA,NA
a6ad7,"""Falsch""-Screen",canvas.Screen,3_0_1_0_3_0_2,NA,NA,skipped,NA,476489,NA,NA,476487.18,476490,2023-03-19T17:04:40Z,476502.92,NULL,Theorie,nadharia,d,NA,NA,NA,NA,sdfdsf,NA,1,NA,NA,NA,NA,NA,NA,NA,NA,NA,NA,NA,NA,NA,NA,NA,NA,NA,NA,NA
a6ad7,deep,flow.Sequence,3_0_1_0_3_0,NA,NA,completion,8631.78,467843,467838.82,467855.4,476487.18,476490,2023-03-19T17:04:40Z,476502.92,NULL,Theorie,nadharia,d,NA,NA,NA,NA,sdfdsf,NA,1,NA,NA,NA,NA,NA,NA,NA,NA,NA,NA,NA,NA,NA,NA,NA,NA,NA,NA,NA
a6ad7,shallow,flow.Sequence,3_0_1_0_3_1,NA,NA,skipped,NA,476490,NA,NA,476487.18,476490,2023-03-19T17:04:40Z,476502.92,NULL,Theorie,nadharia,d,NA,NA,NA,NA,sdfdsf,NA,1,NA,NA,NA,NA,NA,NA,NA,NA,NA,NA,NA,NA,NA,NA,NA,NA,NA,NA,NA
a6ad7,task,flow.Sequence,3_0_1_0_3,NA,NA,completion,8631.78,467843,467838.82,467855.4,476487.18,476490,2023-03-19T17:04:40Z,476502.92,NULL,Theorie,nadharia,d,NA,NA,NA,NA,sdfdsf,NA,1,NA,NA,NA,NA,NA,NA,NA,NA,NA,NA,NA,NA,NA,NA,NA,NA,NA,NA,NA
a6ad7,deep,flow.Sequence,3_0_1_0_4_0,NA,NA,skipped,NA,476490,NA,NA,476487.18,476490,2023-03-19T17:04:40Z,476502.92,NULL,Verpackung,ufungaji,s,uhusiano,upimaji,uchunguzi,NA,sdfdsf,NA,1,NA,NA,NA,NA,NA,NA,NA,NA,NA,NA,NA,NA,NA,NA,NA,NA,NA,NA,NA
a6ad7,Shallow Question,html.Page,3_0_1_0_4_1_0,NA,NA,form submission,3948.08,476490,476487.18,476502.92,480451,480451,2023-03-19T17:04:44Z,480449.84,NULL,Verpackung,ufungaji,s,uhusiano,upimaji,uchunguzi,ufungaji,NA,NA,1,NA,NA,NA,NA,NA,NA,NA,NA,NA,NA,NA,NA,NA,NA,NA,NA,NA,NA,NA
a6ad7,"""Richtig""-Screen",canvas.Screen,3_0_1_0_4_1_1,NA,NA,timeout,5001.8,480452,480449.58,480449.84,485435.96,485436,2023-03-19T17:04:49Z,485451.64,NULL,Verpackung,ufungaji,s,uhusiano,upimaji,uchunguzi,NA,sdfdsf,1,1,NA,NA,NA,NA,NA,NA,NA,NA,NA,NA,NA,NA,NA,NA,NA,NA,NA,NA,NA
a6ad7,"""Falsch""-Screen",canvas.Screen,3_0_1_0_4_1_2,NA,NA,skipped,NA,485438,NA,NA,485435.96,485438,2023-03-19T17:04:49Z,485451.64,NULL,Verpackung,ufungaji,s,uhusiano,upimaji,uchunguzi,NA,sdfdsf,NA,1,NA,NA,NA,NA,NA,NA,NA,NA,NA,NA,NA,NA,NA,NA,NA,NA,NA,NA,NA
a6ad7,shallow,flow.Sequence,3_0_1_0_4_1,NA,NA,completion,8933.04,476490,476487.18,476502.92,485435.96,485438,2023-03-19T17:04:49Z,485451.64,NULL,Verpackung,ufungaji,s,uhusiano,upimaji,uchunguzi,NA,sdfdsf,NA,1,NA,NA,NA,NA,NA,NA,NA,NA,NA,NA,NA,NA,NA,NA,NA,NA,NA,NA,NA
a6ad7,task,flow.Sequence,3_0_1_0_4,NA,NA,completion,8933.04,476490,476487.18,476502.92,485435.96,485438,2023-03-19T17:04:49Z,485451.64,NULL,Verpackung,ufungaji,s,uhusiano,upimaji,uchunguzi,NA,sdfdsf,NA,1,NA,NA,NA,NA,NA,NA,NA,NA,NA,NA,NA,NA,NA,NA,NA,NA,NA,NA,NA
a6ad7,deep,flow.Sequence,3_0_1_0_5_0,NA,NA,skipped,NA,485439,NA,NA,485435.96,485439,2023-03-19T17:04:49Z,485451.64,NULL,Wettbewerb,ushindani,s,mapendezi,kichocheo,ubaguzi,NA,sdfdsf,NA,1,NA,NA,NA,NA,NA,NA,NA,NA,NA,NA,NA,NA,NA,NA,NA,NA,NA,NA,NA
a6ad7,Shallow Question,html.Page,3_0_1_0_5_1_0,NA,NA,form submission,5239.36,485439,485435.96,485451.64,490691,490691,2023-03-19T17:04:55Z,490690.58,NULL,Wettbewerb,ushindani,s,mapendezi,kichocheo,ubaguzi,ushindani,NA,NA,1,NA,NA,NA,NA,NA,NA,NA,NA,NA,NA,NA,NA,NA,NA,NA,NA,NA,NA,NA
a6ad7,"""Richtig""-Screen",canvas.Screen,3_0_1_0_5_1_1,NA,NA,timeout,4999.5,490693,490690.32,490690.58,495673.6,495674,2023-03-19T17:05:00Z,495690.08,NULL,Wettbewerb,ushindani,s,mapendezi,kichocheo,ubaguzi,NA,sdfdsf,1,1,NA,NA,NA,NA,NA,NA,NA,NA,NA,NA,NA,NA,NA,NA,NA,NA,NA,NA,NA
a6ad7,"""Falsch""-Screen",canvas.Screen,3_0_1_0_5_1_2,NA,NA,skipped,NA,495676,NA,NA,495673.6,495676,2023-03-19T17:05:00Z,495690.08,NULL,Wettbewerb,ushindani,s,mapendezi,kichocheo,ubaguzi,NA,sdfdsf,NA,1,NA,NA,NA,NA,NA,NA,NA,NA,NA,NA,NA,NA,NA,NA,NA,NA,NA,NA,NA
a6ad7,shallow,flow.Sequence,3_0_1_0_5_1,NA,NA,completion,10221.96,485439,485435.96,485451.64,495673.6,495676,2023-03-19T17:05:00Z,495690.08,NULL,Wettbewerb,ushindani,s,mapendezi,kichocheo,ubaguzi,NA,sdfdsf,NA,1,NA,NA,NA,NA,NA,NA,NA,NA,NA,NA,NA,NA,NA,NA,NA,NA,NA,NA,NA
a6ad7,task,flow.Sequence,3_0_1_0_5,NA,NA,completion,10221.96,485439,485435.96,485451.64,495673.6,495676,2023-03-19T17:05:00Z,495690.08,NULL,Wettbewerb,ushindani,s,mapendezi,kichocheo,ubaguzi,NA,sdfdsf,NA,1,NA,NA,NA,NA,NA,NA,NA,NA,NA,NA,NA,NA,NA,NA,NA,NA,NA,NA,NA
a6ad7,deep,flow.Sequence,3_0_1_0_6_0,NA,NA,skipped,NA,495677,NA,NA,495673.6,495677,2023-03-19T17:05:00Z,495690.08,NULL,Hoffnung,matarajio,s,kutaalamika,uratibu,mvumbuzi,NA,sdfdsf,NA,1,NA,NA,NA,NA,NA,NA,NA,NA,NA,NA,NA,NA,NA,NA,NA,NA,NA,NA,NA
a6ad7,Shallow Question,html.Page,3_0_1_0_6_1_0,NA,NA,form submission,3947.92,495677,495673.6,495690.08,499638,499638,2023-03-19T17:05:03Z,499637.26,NULL,Hoffnung,matarajio,s,kutaalamika,uratibu,mvumbuzi,matarajio,NA,NA,1,NA,NA,NA,NA,NA,NA,NA,NA,NA,NA,NA,NA,NA,NA,NA,NA,NA,NA,NA
a6ad7,"""Richtig""-Screen",canvas.Screen,3_0_1_0_6_1_1,NA,NA,timeout,5002.32,499640,499637,499637.26,504622.2,504622,2023-03-19T17:05:08Z,504639.58,NULL,Hoffnung,matarajio,s,kutaalamika,uratibu,mvumbuzi,NA,sdfdsf,1,1,NA,NA,NA,NA,NA,NA,NA,NA,NA,NA,NA,NA,NA,NA,NA,NA,NA,NA,NA
a6ad7,"""Falsch""-Screen",canvas.Screen,3_0_1_0_6_1_2,NA,NA,skipped,NA,504624,NA,NA,504622.2,504624,2023-03-19T17:05:08Z,504639.58,NULL,Hoffnung,matarajio,s,kutaalamika,uratibu,mvumbuzi,NA,sdfdsf,NA,1,NA,NA,NA,NA,NA,NA,NA,NA,NA,NA,NA,NA,NA,NA,NA,NA,NA,NA,NA
a6ad7,shallow,flow.Sequence,3_0_1_0_6_1,NA,NA,completion,8932.12,495677,495673.6,495690.08,504622.2,504624,2023-03-19T17:05:08Z,504639.58,NULL,Hoffnung,matarajio,s,kutaalamika,uratibu,mvumbuzi,NA,sdfdsf,NA,1,NA,NA,NA,NA,NA,NA,NA,NA,NA,NA,NA,NA,NA,NA,NA,NA,NA,NA,NA
a6ad7,task,flow.Sequence,3_0_1_0_6,NA,NA,completion,8932.12,495677,495673.6,495690.08,504622.2,504624,2023-03-19T17:05:08Z,504639.58,NULL,Hoffnung,matarajio,s,kutaalamika,uratibu,mvumbuzi,NA,sdfdsf,NA,1,NA,NA,NA,NA,NA,NA,NA,NA,NA,NA,NA,NA,NA,NA,NA,NA,NA,NA,NA
a6ad7,Deep Question,html.Page,3_0_1_0_7_0_0,NA,NA,form submission,4727.42,504624,504622.2,504639.58,509367,509367,2023-03-19T17:05:13Z,509366.04,NULL,Schönheit,kirembo,d,NA,NA,NA,kir,NA,NA,1,NA,NA,NA,NA,NA,NA,NA,NA,NA,NA,NA,NA,NA,NA,NA,NA,NA,NA,NA
a6ad7,"""Richtig""-Screen",canvas.Screen,3_0_1_0_7_0_1,NA,NA,skipped,NA,509369,NA,NA,509367,509369,2023-03-19T17:05:13Z,509366.04,NULL,Schönheit,kirembo,d,NA,NA,NA,NA,sdfdsf,NA,1,NA,NA,NA,NA,NA,NA,NA,NA,NA,NA,NA,NA,NA,NA,NA,NA,NA,NA,NA
a6ad7,"""Falsch""-Screen",canvas.Screen,3_0_1_0_7_0_2,NA,NA,timeout,5002.6,509371,509365.74,509366.04,514352.9,514353,2023-03-19T17:05:18Z,514368.64,NULL,Schönheit,kirembo,d,NA,NA,NA,NA,sdfdsf,0,1,NA,NA,NA,NA,NA,NA,NA,NA,NA,NA,NA,NA,NA,NA,NA,NA,NA,NA,NA
a6ad7,deep,flow.Sequence,3_0_1_0_7_0,NA,NA,completion,9713.32,504624,504622.2,504639.58,514352.9,514353,2023-03-19T17:05:18Z,514368.64,NULL,Schönheit,kirembo,d,NA,NA,NA,NA,sdfdsf,NA,1,NA,NA,NA,NA,NA,NA,NA,NA,NA,NA,NA,NA,NA,NA,NA,NA,NA,NA,NA
a6ad7,shallow,flow.Sequence,3_0_1_0_7_1,NA,NA,skipped,NA,514353,NA,NA,514352.9,514353,2023-03-19T17:05:18Z,514368.64,NULL,Schönheit,kirembo,d,NA,NA,NA,NA,sdfdsf,NA,1,NA,NA,NA,NA,NA,NA,NA,NA,NA,NA,NA,NA,NA,NA,NA,NA,NA,NA,NA
a6ad7,task,flow.Sequence,3_0_1_0_7,NA,NA,completion,9713.32,504624,504622.2,504639.58,514352.9,514353,2023-03-19T17:05:18Z,514368.64,NULL,Schönheit,kirembo,d,NA,NA,NA,NA,sdfdsf,NA,1,NA,NA,NA,NA,NA,NA,NA,NA,NA,NA,NA,NA,NA,NA,NA,NA,NA,NA,NA
a6ad7,block,flow.Loop,3_0_1_0,NA,NA,completion,80789.26,433563,433563.14,433563.64,514352.9,514354,2023-03-19T17:05:18Z,514368.64,NULL,NA,NA,NA,NA,NA,NA,NA,sdfdsf,NA,1,NA,NA,NA,NA,NA,NA,NA,NA,NA,NA,NA,NA,NA,NA,NA,NA,NA,NA,NA
a6ad7,weiter,canvas.Screen,3_0_1_1,sdf,keypress(Space),response,762.35999999999,514354,514352.9,514368.64,515131,515138,2023-03-19T17:05:19Z,515206.6,NULL,NA,NA,NA,NA,NA,NA,NA,sdfdsf,NA,1,NA,NA,NA,NA,NA,NA,NA,NA,NA,NA,NA,NA,NA,NA,NA,NA,NA,NA,NA
a6ad7,check continue,flow.Sequence,3_0_1,NA,NA,completion,81567.36,433563,433563.14,433563.64,515131,515139,2023-03-19T17:05:19Z,515206.6,NULL,NA,NA,NA,NA,NA,NA,NA,sdfdsf,NA,1,NA,NA,NA,NA,NA,NA,NA,NA,NA,NA,NA,NA,NA,NA,NA,NA,NA,NA,NA
a6ad7,deep,flow.Sequence,3_0_2_0_0_0,NA,NA,skipped,NA,515206,NA,NA,515131,515206,2023-03-19T17:05:19Z,515206.6,NULL,Auftrag,uagizaji,s,ghanima,kuzingatia,msukani,NA,sdf,NA,2,NA,NA,NA,NA,NA,NA,NA,NA,NA,NA,NA,NA,NA,NA,NA,NA,NA,NA,NA
a6ad7,Shallow Question,html.Page,3_0_2_0_0_1_0,NA,NA,form submission,6136.4,515206,515206.26,515206.6,521343,521344,2023-03-19T17:05:25Z,521342.74,NULL,Auftrag,uagizaji,s,ghanima,kuzingatia,msukani,uagizaji,NA,NA,2,NA,NA,NA,NA,NA,NA,NA,NA,NA,NA,NA,NA,NA,NA,NA,NA,NA,NA,NA
a6ad7,"""Richtig""-Screen",canvas.Screen,3_0_2_0_0_1_1,NA,NA,timeout,5001.72,521346,521342.48,521342.74,526328.88,526329,2023-03-19T17:05:30Z,526344.46,NULL,Auftrag,uagizaji,s,ghanima,kuzingatia,msukani,NA,sdf,1,2,NA,NA,NA,NA,NA,NA,NA,NA,NA,NA,NA,NA,NA,NA,NA,NA,NA,NA,NA
a6ad7,"""Falsch""-Screen",canvas.Screen,3_0_2_0_0_1_2,NA,NA,skipped,NA,526331,NA,NA,526328.88,526331,2023-03-19T17:05:30Z,526344.46,NULL,Auftrag,uagizaji,s,ghanima,kuzingatia,msukani,NA,sdf,NA,2,NA,NA,NA,NA,NA,NA,NA,NA,NA,NA,NA,NA,NA,NA,NA,NA,NA,NA,NA
a6ad7,shallow,flow.Sequence,3_0_2_0_0_1,NA,NA,completion,11122.28,515206,515206.26,515206.6,526328.88,526332,2023-03-19T17:05:30Z,526344.46,NULL,Auftrag,uagizaji,s,ghanima,kuzingatia,msukani,NA,sdf,NA,2,NA,NA,NA,NA,NA,NA,NA,NA,NA,NA,NA,NA,NA,NA,NA,NA,NA,NA,NA
a6ad7,task,flow.Sequence,3_0_2_0_0,NA,NA,completion,11122.28,515206,515206.26,515206.6,526328.88,526332,2023-03-19T17:05:30Z,526344.46,NULL,Auftrag,uagizaji,s,ghanima,kuzingatia,msukani,NA,sdf,NA,2,NA,NA,NA,NA,NA,NA,NA,NA,NA,NA,NA,NA,NA,NA,NA,NA,NA,NA,NA
a6ad7,deep,flow.Sequence,3_0_2_0_1_0,NA,NA,skipped,NA,526332,NA,NA,526328.88,526332,2023-03-19T17:05:30Z,526344.46,NULL,Hoffnung,matarajio,s,kutaalamika,uratibu,mvumbuzi,NA,sdf,NA,2,NA,NA,NA,NA,NA,NA,NA,NA,NA,NA,NA,NA,NA,NA,NA,NA,NA,NA,NA
a6ad7,Shallow Question,html.Page,3_0_2_0_1_1_0,NA,NA,form submission,3659.54,526332,526328.88,526344.46,530004,530004,2023-03-19T17:05:34Z,530003.02,NULL,Hoffnung,matarajio,s,kutaalamika,uratibu,mvumbuzi,matarajio,NA,NA,2,NA,NA,NA,NA,NA,NA,NA,NA,NA,NA,NA,NA,NA,NA,NA,NA,NA,NA,NA
a6ad7,"""Richtig""-Screen",canvas.Screen,3_0_2_0_1_1_1,NA,NA,timeout,5000.72,530006,530002.72,530003.02,534987.5,534989,2023-03-19T17:05:39Z,535003.74,NULL,Hoffnung,matarajio,s,kutaalamika,uratibu,mvumbuzi,NA,sdf,1,2,NA,NA,NA,NA,NA,NA,NA,NA,NA,NA,NA,NA,NA,NA,NA,NA,NA,NA,NA
a6ad7,"""Falsch""-Screen",canvas.Screen,3_0_2_0_1_1_2,NA,NA,skipped,NA,534994,NA,NA,534987.5,534995,2023-03-19T17:05:39Z,535003.74,NULL,Hoffnung,matarajio,s,kutaalamika,uratibu,mvumbuzi,NA,sdf,NA,2,NA,NA,NA,NA,NA,NA,NA,NA,NA,NA,NA,NA,NA,NA,NA,NA,NA,NA,NA
a6ad7,shallow,flow.Sequence,3_0_2_0_1_1,NA,NA,completion,8643.04,526332,526328.88,526344.46,534987.5,534995,2023-03-19T17:05:39Z,535003.74,NULL,Hoffnung,matarajio,s,kutaalamika,uratibu,mvumbuzi,NA,sdf,NA,2,NA,NA,NA,NA,NA,NA,NA,NA,NA,NA,NA,NA,NA,NA,NA,NA,NA,NA,NA
a6ad7,task,flow.Sequence,3_0_2_0_1,NA,NA,completion,8643.04,526332,526328.88,526344.46,534987.5,534995,2023-03-19T17:05:39Z,535003.74,NULL,Hoffnung,matarajio,s,kutaalamika,uratibu,mvumbuzi,NA,sdf,NA,2,NA,NA,NA,NA,NA,NA,NA,NA,NA,NA,NA,NA,NA,NA,NA,NA,NA,NA,NA
a6ad7,Deep Question,html.Page,3_0_2_0_2_0_0,NA,NA,form submission,6814.26,534995,534987.5,535003.74,541818,541819,2023-03-19T17:05:46Z,541816.98,NULL,Schock,mshtuko,d,NA,NA,NA,mshan,NA,NA,2,NA,NA,NA,NA,NA,NA,NA,NA,NA,NA,NA,NA,NA,NA,NA,NA,NA,NA,NA
a6ad7,"""Richtig""-Screen",canvas.Screen,3_0_2_0_2_0_1,NA,NA,skipped,NA,541821,NA,NA,541818,541821,2023-03-19T17:05:46Z,541816.98,NULL,Schock,mshtuko,d,NA,NA,NA,NA,sdf,NA,2,NA,NA,NA,NA,NA,NA,NA,NA,NA,NA,NA,NA,NA,NA,NA,NA,NA,NA,NA
a6ad7,"""Falsch""-Screen",canvas.Screen,3_0_2_0_2_0_2,NA,NA,timeout,5004.38,541824,541816.7,541816.98,546804.1,546805,2023-03-19T17:05:51Z,546821.36,NULL,Schock,mshtuko,d,NA,NA,NA,NA,sdf,0,2,NA,NA,NA,NA,NA,NA,NA,NA,NA,NA,NA,NA,NA,NA,NA,NA,NA,NA,NA
a6ad7,deep,flow.Sequence,3_0_2_0_2_0,NA,NA,completion,11800.36,534995,534987.5,535003.74,546804.1,546805,2023-03-19T17:05:51Z,546821.36,NULL,Schock,mshtuko,d,NA,NA,NA,NA,sdf,NA,2,NA,NA,NA,NA,NA,NA,NA,NA,NA,NA,NA,NA,NA,NA,NA,NA,NA,NA,NA
a6ad7,shallow,flow.Sequence,3_0_2_0_2_1,NA,NA,skipped,NA,546805,NA,NA,546804.1,546805,2023-03-19T17:05:51Z,546821.36,NULL,Schock,mshtuko,d,NA,NA,NA,NA,sdf,NA,2,NA,NA,NA,NA,NA,NA,NA,NA,NA,NA,NA,NA,NA,NA,NA,NA,NA,NA,NA
a6ad7,task,flow.Sequence,3_0_2_0_2,NA,NA,completion,11800.36,534995,534987.5,535003.74,546804.1,546806,2023-03-19T17:05:51Z,546821.36,NULL,Schock,mshtuko,d,NA,NA,NA,NA,sdf,NA,2,NA,NA,NA,NA,NA,NA,NA,NA,NA,NA,NA,NA,NA,NA,NA,NA,NA,NA,NA
a6ad7,deep,flow.Sequence,3_0_2_0_3_0,NA,NA,skipped,NA,546806,NA,NA,546804.1,546806,2023-03-19T17:05:51Z,546821.36,NULL,Verpackung,ufungaji,s,uhusiano,upimaji,uchunguzi,NA,sdf,NA,2,NA,NA,NA,NA,NA,NA,NA,NA,NA,NA,NA,NA,NA,NA,NA,NA,NA,NA,NA
a6ad7,Shallow Question,html.Page,3_0_2_0_3_1_0,NA,NA,form submission,4010.64,546806,546804.1,546821.36,550832,550833,2023-03-19T17:05:55Z,550831.96,NULL,Verpackung,ufungaji,s,uhusiano,upimaji,uchunguzi,ufungaji,NA,NA,2,NA,NA,NA,NA,NA,NA,NA,NA,NA,NA,NA,NA,NA,NA,NA,NA,NA,NA,NA
a6ad7,"""Richtig""-Screen",canvas.Screen,3_0_2_0_3_1_1,NA,NA,timeout,4993.54,550834,550831.7,550831.96,555808.96,555810,2023-03-19T17:06:00Z,555825.5,NULL,Verpackung,ufungaji,s,uhusiano,upimaji,uchunguzi,NA,sdf,1,2,NA,NA,NA,NA,NA,NA,NA,NA,NA,NA,NA,NA,NA,NA,NA,NA,NA,NA,NA
a6ad7,"""Falsch""-Screen",canvas.Screen,3_0_2_0_3_1_2,NA,NA,skipped,NA,555811,NA,NA,555808.96,555812,2023-03-19T17:06:00Z,555825.5,NULL,Verpackung,ufungaji,s,uhusiano,upimaji,uchunguzi,NA,sdf,NA,2,NA,NA,NA,NA,NA,NA,NA,NA,NA,NA,NA,NA,NA,NA,NA,NA,NA,NA,NA
a6ad7,shallow,flow.Sequence,3_0_2_0_3_1,NA,NA,completion,8987.6,546806,546804.1,546821.36,555808.96,555812,2023-03-19T17:06:00Z,555825.5,NULL,Verpackung,ufungaji,s,uhusiano,upimaji,uchunguzi,NA,sdf,NA,2,NA,NA,NA,NA,NA,NA,NA,NA,NA,NA,NA,NA,NA,NA,NA,NA,NA,NA,NA
a6ad7,task,flow.Sequence,3_0_2_0_3,NA,NA,completion,8987.6,546806,546804.1,546821.36,555808.96,555812,2023-03-19T17:06:00Z,555825.5,NULL,Verpackung,ufungaji,s,uhusiano,upimaji,uchunguzi,NA,sdf,NA,2,NA,NA,NA,NA,NA,NA,NA,NA,NA,NA,NA,NA,NA,NA,NA,NA,NA,NA,NA
a6ad7,Deep Question,html.Page,3_0_2_0_4_0_0,NA,NA,form submission,3365.5,555812,555808.96,555825.5,559191,559191,2023-03-19T17:06:03Z,559192.96,NULL,Theorie,nadharia,d,NA,NA,NA,nadharia,NA,NA,2,NA,NA,NA,NA,NA,NA,NA,NA,NA,NA,NA,NA,NA,NA,NA,NA,NA,NA,NA
a6ad7,"""Richtig""-Screen",canvas.Screen,3_0_2_0_4_0_1,NA,NA,timeout,4991.0800000001,559194,559190.56,559192.96,564168.28,564169,2023-03-19T17:06:08Z,564184.04,NULL,Theorie,nadharia,d,NA,NA,NA,NA,sdf,1,2,NA,NA,NA,NA,NA,NA,NA,NA,NA,NA,NA,NA,NA,NA,NA,NA,NA,NA,NA
a6ad7,"""Falsch""-Screen",canvas.Screen,3_0_2_0_4_0_2,NA,NA,skipped,NA,564172,NA,NA,564168.28,564172,2023-03-19T17:06:08Z,564184.04,NULL,Theorie,nadharia,d,NA,NA,NA,NA,sdf,NA,2,NA,NA,NA,NA,NA,NA,NA,NA,NA,NA,NA,NA,NA,NA,NA,NA,NA,NA,NA
a6ad7,deep,flow.Sequence,3_0_2_0_4_0,NA,NA,completion,8342.78,555812,555808.96,555825.5,564168.28,564172,2023-03-19T17:06:08Z,564184.04,NULL,Theorie,nadharia,d,NA,NA,NA,NA,sdf,NA,2,NA,NA,NA,NA,NA,NA,NA,NA,NA,NA,NA,NA,NA,NA,NA,NA,NA,NA,NA
a6ad7,shallow,flow.Sequence,3_0_2_0_4_1,NA,NA,skipped,NA,564172,NA,NA,564168.28,564172,2023-03-19T17:06:08Z,564184.04,NULL,Theorie,nadharia,d,NA,NA,NA,NA,sdf,NA,2,NA,NA,NA,NA,NA,NA,NA,NA,NA,NA,NA,NA,NA,NA,NA,NA,NA,NA,NA
a6ad7,task,flow.Sequence,3_0_2_0_4,NA,NA,completion,8342.78,555812,555808.96,555825.5,564168.28,564172,2023-03-19T17:06:08Z,564184.04,NULL,Theorie,nadharia,d,NA,NA,NA,NA,sdf,NA,2,NA,NA,NA,NA,NA,NA,NA,NA,NA,NA,NA,NA,NA,NA,NA,NA,NA,NA,NA
a6ad7,Deep Question,html.Page,3_0_2_0_5_0_0,NA,NA,form submission,7072.96,564174,564168.28,564184.04,571257,571257,2023-03-19T17:06:15Z,571256.36,NULL,Zufall,kikuti,d,NA,NA,NA,kikuti,NA,NA,2,NA,NA,NA,NA,NA,NA,NA,NA,NA,NA,NA,NA,NA,NA,NA,NA,NA,NA,NA
a6ad7,"""Richtig""-Screen",canvas.Screen,3_0_2_0_5_0_1,NA,NA,timeout,4994.54,571260,571256.08,571256.36,576234.84,576235,2023-03-19T17:06:20Z,576250.9,NULL,Zufall,kikuti,d,NA,NA,NA,NA,sdf,1,2,NA,NA,NA,NA,NA,NA,NA,NA,NA,NA,NA,NA,NA,NA,NA,NA,NA,NA,NA
a6ad7,"""Falsch""-Screen",canvas.Screen,3_0_2_0_5_0_2,NA,NA,skipped,NA,576238,NA,NA,576234.84,576238,2023-03-19T17:06:20Z,576250.9,NULL,Zufall,kikuti,d,NA,NA,NA,NA,sdf,NA,2,NA,NA,NA,NA,NA,NA,NA,NA,NA,NA,NA,NA,NA,NA,NA,NA,NA,NA,NA
a6ad7,deep,flow.Sequence,3_0_2_0_5_0,NA,NA,completion,12050.8,564174,564168.28,564184.04,576234.84,576238,2023-03-19T17:06:20Z,576250.9,NULL,Zufall,kikuti,d,NA,NA,NA,NA,sdf,NA,2,NA,NA,NA,NA,NA,NA,NA,NA,NA,NA,NA,NA,NA,NA,NA,NA,NA,NA,NA
a6ad7,shallow,flow.Sequence,3_0_2_0_5_1,NA,NA,skipped,NA,576238,NA,NA,576234.84,576238,2023-03-19T17:06:20Z,576250.9,NULL,Zufall,kikuti,d,NA,NA,NA,NA,sdf,NA,2,NA,NA,NA,NA,NA,NA,NA,NA,NA,NA,NA,NA,NA,NA,NA,NA,NA,NA,NA
a6ad7,task,flow.Sequence,3_0_2_0_5,NA,NA,completion,12050.8,564174,564168.28,564184.04,576234.84,576238,2023-03-19T17:06:20Z,576250.9,NULL,Zufall,kikuti,d,NA,NA,NA,NA,sdf,NA,2,NA,NA,NA,NA,NA,NA,NA,NA,NA,NA,NA,NA,NA,NA,NA,NA,NA,NA,NA
a6ad7,Deep Question,html.Page,3_0_2_0_6_0_0,NA,NA,form submission,3113.1,576238,576234.84,576250.9,579364,579364,2023-03-19T17:06:23Z,579375.94,NULL,Schönheit,kirembo,d,NA,NA,NA,kirembo,NA,NA,2,NA,NA,NA,NA,NA,NA,NA,NA,NA,NA,NA,NA,NA,NA,NA,NA,NA,NA,NA
a6ad7,"""Richtig""-Screen",canvas.Screen,3_0_2_0_6_0_1,NA,NA,timeout,5006.5800000001,579366,579363.26,579375.94,584365.3,584366,2023-03-19T17:06:28Z,584382.52,NULL,Schönheit,kirembo,d,NA,NA,NA,NA,sdf,1,2,NA,NA,NA,NA,NA,NA,NA,NA,NA,NA,NA,NA,NA,NA,NA,NA,NA,NA,NA
a6ad7,"""Falsch""-Screen",canvas.Screen,3_0_2_0_6_0_2,NA,NA,skipped,NA,584369,NA,NA,584365.3,584369,2023-03-19T17:06:28Z,584382.52,NULL,Schönheit,kirembo,d,NA,NA,NA,NA,sdf,NA,2,NA,NA,NA,NA,NA,NA,NA,NA,NA,NA,NA,NA,NA,NA,NA,NA,NA,NA,NA
a6ad7,deep,flow.Sequence,3_0_2_0_6_0,NA,NA,completion,8114.4,576238,576234.84,576250.9,584365.3,584369,2023-03-19T17:06:28Z,584382.52,NULL,Schönheit,kirembo,d,NA,NA,NA,NA,sdf,NA,2,NA,NA,NA,NA,NA,NA,NA,NA,NA,NA,NA,NA,NA,NA,NA,NA,NA,NA,NA
a6ad7,shallow,flow.Sequence,3_0_2_0_6_1,NA,NA,skipped,NA,584369,NA,NA,584365.3,584369,2023-03-19T17:06:28Z,584382.52,NULL,Schönheit,kirembo,d,NA,NA,NA,NA,sdf,NA,2,NA,NA,NA,NA,NA,NA,NA,NA,NA,NA,NA,NA,NA,NA,NA,NA,NA,NA,NA
a6ad7,task,flow.Sequence,3_0_2_0_6,NA,NA,completion,8114.4,576238,576234.84,576250.9,584365.3,584369,2023-03-19T17:06:28Z,584382.52,NULL,Schönheit,kirembo,d,NA,NA,NA,NA,sdf,NA,2,NA,NA,NA,NA,NA,NA,NA,NA,NA,NA,NA,NA,NA,NA,NA,NA,NA,NA,NA
a6ad7,deep,flow.Sequence,3_0_2_0_7_0,NA,NA,skipped,NA,584369,NA,NA,584365.3,584369,2023-03-19T17:06:28Z,584382.52,NULL,Wettbewerb,ushindani,s,mapendezi,kichocheo,ubaguzi,NA,sdf,NA,2,NA,NA,NA,NA,NA,NA,NA,NA,NA,NA,NA,NA,NA,NA,NA,NA,NA,NA,NA
a6ad7,Shallow Question,html.Page,3_0_2_0_7_1_0,NA,NA,form submission,5529.48,584369,584365.3,584382.52,589912,589912,2023-03-19T17:06:34Z,589911.02,NULL,Wettbewerb,ushindani,s,mapendezi,kichocheo,ubaguzi,ushindani,NA,NA,2,NA,NA,NA,NA,NA,NA,NA,NA,NA,NA,NA,NA,NA,NA,NA,NA,NA,NA,NA
a6ad7,"""Richtig""-Screen",canvas.Screen,3_0_2_0_7_1_1,NA,NA,timeout,4994.9199999999,589914,589910.76,589911.02,594889.24,594890,2023-03-19T17:06:39Z,594905.94,NULL,Wettbewerb,ushindani,s,mapendezi,kichocheo,ubaguzi,NA,sdf,1,2,NA,NA,NA,NA,NA,NA,NA,NA,NA,NA,NA,NA,NA,NA,NA,NA,NA,NA,NA
a6ad7,"""Falsch""-Screen",canvas.Screen,3_0_2_0_7_1_2,NA,NA,skipped,NA,594892,NA,NA,594889.24,594892,2023-03-19T17:06:39Z,594905.94,NULL,Wettbewerb,ushindani,s,mapendezi,kichocheo,ubaguzi,NA,sdf,NA,2,NA,NA,NA,NA,NA,NA,NA,NA,NA,NA,NA,NA,NA,NA,NA,NA,NA,NA,NA
a6ad7,shallow,flow.Sequence,3_0_2_0_7_1,NA,NA,completion,10506.72,584369,584365.3,584382.52,594889.24,594893,2023-03-19T17:06:39Z,594905.94,NULL,Wettbewerb,ushindani,s,mapendezi,kichocheo,ubaguzi,NA,sdf,NA,2,NA,NA,NA,NA,NA,NA,NA,NA,NA,NA,NA,NA,NA,NA,NA,NA,NA,NA,NA
a6ad7,task,flow.Sequence,3_0_2_0_7,NA,NA,completion,10506.72,584369,584365.3,584382.52,594889.24,594893,2023-03-19T17:06:39Z,594905.94,NULL,Wettbewerb,ushindani,s,mapendezi,kichocheo,ubaguzi,NA,sdf,NA,2,NA,NA,NA,NA,NA,NA,NA,NA,NA,NA,NA,NA,NA,NA,NA,NA,NA,NA,NA
a6ad7,block,flow.Loop,3_0_2_0,NA,NA,completion,79682.64,515206,515206.26,515206.6,594889.24,594893,2023-03-19T17:06:39Z,594905.94,NULL,NA,NA,NA,NA,NA,NA,NA,sdf,NA,2,NA,NA,NA,NA,NA,NA,NA,NA,NA,NA,NA,NA,NA,NA,NA,NA,NA,NA,NA
a6ad7,weiter,canvas.Screen,3_0_2_1,sdf,keypress(Space),response,878.06000000006,594893,594889.24,594905.94,595784,595790,2023-03-19T17:06:40Z,596708.04,NULL,NA,NA,NA,NA,NA,NA,NA,sdf,NA,2,NA,NA,NA,NA,NA,NA,NA,NA,NA,NA,NA,NA,NA,NA,NA,NA,NA,NA,NA
a6ad7,check continue,flow.Sequence,3_0_2,NA,NA,completion,80577.4,515206,515206.26,515206.6,595784,595790,2023-03-19T17:06:40Z,596708.04,NULL,NA,NA,NA,NA,NA,NA,NA,sdf,NA,2,NA,NA,NA,NA,NA,NA,NA,NA,NA,NA,NA,NA,NA,NA,NA,NA,NA,NA,NA
a6ad7,check continue,flow.Sequence,3_0_3,NA,NA,skipped,NA,595848,NA,NA,595784,595848,2023-03-19T17:06:40Z,596708.04,NULL,NA,NA,NA,NA,NA,NA,NA,qt,NA,3,NA,NA,NA,NA,NA,NA,NA,NA,NA,NA,NA,NA,NA,NA,NA,NA,NA,NA,NA
a6ad7,check continue,flow.Sequence,3_0_4,NA,NA,skipped,NA,595892,NA,NA,595784,595892,2023-03-19T17:06:40Z,596708.04,NULL,NA,NA,NA,NA,NA,NA,NA,sd,NA,4,NA,NA,NA,NA,NA,NA,NA,NA,NA,NA,NA,NA,NA,NA,NA,NA,NA,NA,NA
a6ad7,check continue,flow.Sequence,3_0_5,NA,NA,skipped,NA,595931,NA,NA,595784,595931,2023-03-19T17:06:40Z,596708.04,NULL,NA,NA,NA,NA,NA,NA,NA,sdf,NA,5,NA,NA,NA,NA,NA,NA,NA,NA,NA,NA,NA,NA,NA,NA,NA,NA,NA,NA,NA
a6ad7,check continue,flow.Sequence,3_0_6,NA,NA,skipped,NA,595966,NA,NA,595784,595966,2023-03-19T17:06:40Z,596708.04,NULL,NA,NA,NA,NA,NA,NA,NA,dfs,NA,6,NA,NA,NA,NA,NA,NA,NA,NA,NA,NA,NA,NA,NA,NA,NA,NA,NA,NA,NA
a6ad7,check continue,flow.Sequence,3_0_7,NA,NA,skipped,NA,596001,NA,NA,595784,596001,2023-03-19T17:06:40Z,596708.04,NULL,NA,NA,NA,NA,NA,NA,NA,df,NA,7,NA,NA,NA,NA,NA,NA,NA,NA,NA,NA,NA,NA,NA,NA,NA,NA,NA,NA,NA
a6ad7,check continue,flow.Sequence,3_0_8,NA,NA,skipped,NA,596035,NA,NA,595784,596035,2023-03-19T17:06:40Z,596708.04,NULL,NA,NA,NA,NA,NA,NA,NA,dfs,NA,8,NA,NA,NA,NA,NA,NA,NA,NA,NA,NA,NA,NA,NA,NA,NA,NA,NA,NA,NA
a6ad7,check continue,flow.Sequence,3_0_9,NA,NA,skipped,NA,596066,NA,NA,595784,596066,2023-03-19T17:06:40Z,596708.04,NULL,NA,NA,NA,NA,NA,NA,NA,dsf,NA,9,NA,NA,NA,NA,NA,NA,NA,NA,NA,NA,NA,NA,NA,NA,NA,NA,NA,NA,NA
a6ad7,check continue,flow.Sequence,3_0_10,NA,NA,skipped,NA,596102,NA,NA,595784,596102,2023-03-19T17:06:40Z,596708.04,NULL,NA,NA,NA,NA,NA,NA,NA,df,NA,10,NA,NA,NA,NA,NA,NA,NA,NA,NA,NA,NA,NA,NA,NA,NA,NA,NA,NA,NA
a6ad7,check continue,flow.Sequence,3_0_11,NA,NA,skipped,NA,596137,NA,NA,595784,596137,2023-03-19T17:06:40Z,596708.04,NULL,NA,NA,NA,NA,NA,NA,NA,dfs,NA,11,NA,NA,NA,NA,NA,NA,NA,NA,NA,NA,NA,NA,NA,NA,NA,NA,NA,NA,NA
a6ad7,check continue,flow.Sequence,3_0_12,NA,NA,skipped,NA,596168,NA,NA,595784,596168,2023-03-19T17:06:40Z,596708.04,NULL,NA,NA,NA,NA,NA,NA,NA,dsf,NA,12,NA,NA,NA,NA,NA,NA,NA,NA,NA,NA,NA,NA,NA,NA,NA,NA,NA,NA,NA
a6ad7,check continue,flow.Sequence,3_0_13,NA,NA,skipped,NA,596203,NA,NA,595784,596203,2023-03-19T17:06:40Z,596708.04,NULL,NA,NA,NA,NA,NA,NA,NA,dsf,NA,13,NA,NA,NA,NA,NA,NA,NA,NA,NA,NA,NA,NA,NA,NA,NA,NA,NA,NA,NA
a6ad7,check continue,flow.Sequence,3_0_14,NA,NA,skipped,NA,596239,NA,NA,595784,596239,2023-03-19T17:06:40Z,596708.04,NULL,NA,NA,NA,NA,NA,NA,NA,NA,NA,14,NA,NA,NA,NA,NA,NA,NA,NA,NA,NA,NA,NA,NA,NA,NA,NA,NA,NA,NA
a6ad7,check continue,flow.Sequence,3_0_15,NA,NA,skipped,NA,596270,NA,NA,595784,596270,2023-03-19T17:06:40Z,596708.04,NULL,NA,NA,NA,NA,NA,NA,NA,NA,NA,15,NA,NA,NA,NA,NA,NA,NA,NA,NA,NA,NA,NA,NA,NA,NA,NA,NA,NA,NA
a6ad7,check continue,flow.Sequence,3_0_16,NA,NA,skipped,NA,596303,NA,NA,595784,596303,2023-03-19T17:06:40Z,596708.04,NULL,NA,NA,NA,NA,NA,NA,NA,NA,NA,16,NA,NA,NA,NA,NA,NA,NA,NA,NA,NA,NA,NA,NA,NA,NA,NA,NA,NA,NA
a6ad7,check continue,flow.Sequence,3_0_17,NA,NA,skipped,NA,596332,NA,NA,595784,596332,2023-03-19T17:06:40Z,596708.04,NULL,NA,NA,NA,NA,NA,NA,NA,NA,NA,17,NA,NA,NA,NA,NA,NA,NA,NA,NA,NA,NA,NA,NA,NA,NA,NA,NA,NA,NA
a6ad7,check continue,flow.Sequence,3_0_18,NA,NA,skipped,NA,596366,NA,NA,595784,596366,2023-03-19T17:06:40Z,596708.04,NULL,NA,NA,NA,NA,NA,NA,NA,NA,NA,18,NA,NA,NA,NA,NA,NA,NA,NA,NA,NA,NA,NA,NA,NA,NA,NA,NA,NA,NA
a6ad7,check continue,flow.Sequence,3_0_19,NA,NA,skipped,NA,596396,NA,NA,595784,596396,2023-03-19T17:06:40Z,596708.04,NULL,NA,NA,NA,NA,NA,NA,NA,NA,NA,19,NA,NA,NA,NA,NA,NA,NA,NA,NA,NA,NA,NA,NA,NA,NA,NA,NA,NA,NA
a6ad7,check continue,flow.Sequence,3_0_20,NA,NA,skipped,NA,596427,NA,NA,595784,596427,2023-03-19T17:06:40Z,596708.04,NULL,NA,NA,NA,NA,NA,NA,NA,NA,NA,20,NA,NA,NA,NA,NA,NA,NA,NA,NA,NA,NA,NA,NA,NA,NA,NA,NA,NA,NA
a6ad7,check continue,flow.Sequence,3_0_21,NA,NA,skipped,NA,596460,NA,NA,595784,596460,2023-03-19T17:06:40Z,596708.04,NULL,NA,NA,NA,NA,NA,NA,NA,NA,NA,21,NA,NA,NA,NA,NA,NA,NA,NA,NA,NA,NA,NA,NA,NA,NA,NA,NA,NA,NA
a6ad7,check continue,flow.Sequence,3_0_22,NA,NA,skipped,NA,596490,NA,NA,595784,596490,2023-03-19T17:06:40Z,596708.04,NULL,NA,NA,NA,NA,NA,NA,NA,NA,NA,22,NA,NA,NA,NA,NA,NA,NA,NA,NA,NA,NA,NA,NA,NA,NA,NA,NA,NA,NA
a6ad7,check continue,flow.Sequence,3_0_23,NA,NA,skipped,NA,596525,NA,NA,595784,596525,2023-03-19T17:06:40Z,596708.04,NULL,NA,NA,NA,NA,NA,NA,NA,NA,NA,23,NA,NA,NA,NA,NA,NA,NA,NA,NA,NA,NA,NA,NA,NA,NA,NA,NA,NA,NA
a6ad7,check continue,flow.Sequence,3_0_24,NA,NA,skipped,NA,596554,NA,NA,595784,596554,2023-03-19T17:06:40Z,596708.04,NULL,NA,NA,NA,NA,NA,NA,NA,NA,NA,24,NA,NA,NA,NA,NA,NA,NA,NA,NA,NA,NA,NA,NA,NA,NA,NA,NA,NA,NA
a6ad7,check continue,flow.Sequence,3_0_25,NA,NA,skipped,NA,596582,NA,NA,595784,596582,2023-03-19T17:06:40Z,596708.04,NULL,NA,NA,NA,NA,NA,NA,NA,NA,NA,25,NA,NA,NA,NA,NA,NA,NA,NA,NA,NA,NA,NA,NA,NA,NA,NA,NA,NA,NA
a6ad7,check continue,flow.Sequence,3_0_26,NA,NA,skipped,NA,596616,NA,NA,595784,596616,2023-03-19T17:06:40Z,596708.04,NULL,NA,NA,NA,NA,NA,NA,NA,NA,NA,26,NA,NA,NA,NA,NA,NA,NA,NA,NA,NA,NA,NA,NA,NA,NA,NA,NA,NA,NA
a6ad7,check continue,flow.Sequence,3_0_27,NA,NA,skipped,NA,596645,NA,NA,595784,596645,2023-03-19T17:06:40Z,596708.04,NULL,NA,NA,NA,NA,NA,NA,NA,NA,NA,27,NA,NA,NA,NA,NA,NA,NA,NA,NA,NA,NA,NA,NA,NA,NA,NA,NA,NA,NA
a6ad7,check continue,flow.Sequence,3_0_28,NA,NA,skipped,NA,596678,NA,NA,595784,596678,2023-03-19T17:06:41Z,596708.04,NULL,NA,NA,NA,NA,NA,NA,NA,NA,NA,28,NA,NA,NA,NA,NA,NA,NA,NA,NA,NA,NA,NA,NA,NA,NA,NA,NA,NA,NA
a6ad7,check continue,flow.Sequence,3_0_29,NA,NA,skipped,NA,596707,NA,NA,595784,596707,2023-03-19T17:06:41Z,596708.04,NULL,NA,NA,NA,NA,NA,NA,NA,NA,NA,29,NA,NA,NA,NA,NA,NA,NA,NA,NA,NA,NA,NA,NA,NA,NA,NA,NA,NA,NA
a6ad7,until continue,flow.Loop,3_0,NA,NA,completion,236314.72,359415,359468.96,359469.28,595784,596707,2023-03-19T17:06:41Z,596708.04,NULL,NA,NA,NA,NA,NA,NA,NA,NA,NA,NA,NA,NA,NA,NA,NA,NA,NA,NA,NA,NA,NA,NA,NA,NA,NA,NA,NA,NA,NA
a6ad7,block 1,flow.Sequence,3,NA,NA,completion,236314.72,359415,359468.96,359469.28,595784,596707,2023-03-19T17:06:41Z,596708.04,NULL,NA,NA,NA,NA,NA,NA,NA,NA,NA,NA,NA,NA,NA,NA,NA,NA,NA,NA,NA,NA,NA,NA,NA,NA,NA,NA,NA,NA,NA
a6ad7,1.Part Over,canvas.Screen,4,NA,keypress(Space),response,2183.96,596707,596707.66,596708.04,598892,598900,2023-03-19T17:06:43Z,599014.66,NULL,NA,NA,NA,NA,NA,NA,NA,NA,NA,NA,NA,NA,NA,NA,NA,NA,NA,NA,NA,NA,NA,NA,NA,NA,NA,NA,NA,NA,NA
a6ad7,deep,flow.Sequence,5_0_0_0_0_0,NA,NA,skipped,NA,599013,NA,NA,598892,599014,2023-03-19T17:06:43Z,599014.66,NULL,Vergnügen,kichekesho,s,dubwana,mpanuko,mtesaji,NA,sdf,NA,0,NA,NA,NA,NA,NA,NA,NA,NA,NA,NA,NA,NA,NA,NA,NA,NA,NA,NA,NA
a6ad7,Shallow Question,html.Page,5_0_0_0_0_1_0,NA,NA,form submission,5518.34,599015,599014.36,599014.66,604533,604533,2023-03-19T17:06:48Z,604532.16,NULL,Vergnügen,kichekesho,s,dubwana,mpanuko,mtesaji,dubwana,NA,NA,0,NA,NA,NA,NA,NA,NA,NA,NA,NA,NA,NA,NA,NA,NA,NA,NA,NA,NA,NA
a6ad7,"""Richtig""-Screen",canvas.Screen,5_0_0_0_0_1_1,NA,NA,skipped,NA,604535,NA,NA,604533,604536,2023-03-19T17:06:48Z,604532.16,NULL,Vergnügen,kichekesho,s,dubwana,mpanuko,mtesaji,NA,sdf,NA,0,NA,NA,NA,NA,NA,NA,NA,NA,NA,NA,NA,NA,NA,NA,NA,NA,NA,NA,NA
a6ad7,"""Falsch""-Screen",canvas.Screen,5_0_0_0_0_1_2,NA,NA,timeout,5000.6599999999,604537,604531.88,604532.16,609515.54,609516,2023-03-19T17:06:53Z,609532.82,NULL,Vergnügen,kichekesho,s,dubwana,mpanuko,mtesaji,NA,sdf,0,0,NA,NA,NA,NA,NA,NA,NA,NA,NA,NA,NA,NA,NA,NA,NA,NA,NA,NA,NA
a6ad7,shallow,flow.Sequence,5_0_0_0_0_1,NA,NA,completion,10500.88,599015,599014.36,599014.66,609515.54,609516,2023-03-19T17:06:53Z,609532.82,NULL,Vergnügen,kichekesho,s,dubwana,mpanuko,mtesaji,NA,sdf,NA,0,NA,NA,NA,NA,NA,NA,NA,NA,NA,NA,NA,NA,NA,NA,NA,NA,NA,NA,NA
a6ad7,task,flow.Sequence,5_0_0_0_0,NA,NA,completion,10500.88,599013,599014.36,599014.66,609515.54,609517,2023-03-19T17:06:53Z,609532.82,NULL,Vergnügen,kichekesho,s,dubwana,mpanuko,mtesaji,NA,sdf,NA,0,NA,NA,NA,NA,NA,NA,NA,NA,NA,NA,NA,NA,NA,NA,NA,NA,NA,NA,NA
a6ad7,deep,flow.Sequence,5_0_0_0_1_0,NA,NA,skipped,NA,609517,NA,NA,609515.54,609517,2023-03-19T17:06:53Z,609532.82,NULL,Ausschluss,kutengwa,s,ununuzi,taratibu,madeni,NA,sdf,NA,0,NA,NA,NA,NA,NA,NA,NA,NA,NA,NA,NA,NA,NA,NA,NA,NA,NA,NA,NA
a6ad7,Shallow Question,html.Page,5_0_0_0_1_1_0,NA,NA,form submission,2318.1800000001,609517,609515.54,609532.82,611851,611851,2023-03-19T17:06:56Z,611849.94,NULL,Ausschluss,kutengwa,s,ununuzi,taratibu,madeni,madeni,NA,NA,0,NA,NA,NA,NA,NA,NA,NA,NA,NA,NA,NA,NA,NA,NA,NA,NA,NA,NA,NA
a6ad7,"""Richtig""-Screen",canvas.Screen,5_0_0_0_1_1_1,NA,NA,skipped,NA,611852,NA,NA,611851,611852,2023-03-19T17:06:56Z,611849.94,NULL,Ausschluss,kutengwa,s,ununuzi,taratibu,madeni,NA,sdf,NA,0,NA,NA,NA,NA,NA,NA,NA,NA,NA,NA,NA,NA,NA,NA,NA,NA,NA,NA,NA
a6ad7,"""Falsch""-Screen",canvas.Screen,5_0_0_0_1_1_2,NA,NA,timeout,5001.78,611855,611849.68,611849.94,616835.54,616836,2023-03-19T17:07:01Z,616851.72,NULL,Ausschluss,kutengwa,s,ununuzi,taratibu,madeni,NA,sdf,0,0,NA,NA,NA,NA,NA,NA,NA,NA,NA,NA,NA,NA,NA,NA,NA,NA,NA,NA,NA
a6ad7,shallow,flow.Sequence,5_0_0_0_1_1,NA,NA,completion,7302.7200000001,609517,609515.54,609532.82,616835.54,616836,2023-03-19T17:07:01Z,616851.72,NULL,Ausschluss,kutengwa,s,ununuzi,taratibu,madeni,NA,sdf,NA,0,NA,NA,NA,NA,NA,NA,NA,NA,NA,NA,NA,NA,NA,NA,NA,NA,NA,NA,NA
a6ad7,task,flow.Sequence,5_0_0_0_1,NA,NA,completion,7302.7200000001,609517,609515.54,609532.82,616835.54,616836,2023-03-19T17:07:01Z,616851.72,NULL,Ausschluss,kutengwa,s,ununuzi,taratibu,madeni,NA,sdf,NA,0,NA,NA,NA,NA,NA,NA,NA,NA,NA,NA,NA,NA,NA,NA,NA,NA,NA,NA,NA
a6ad7,deep,flow.Sequence,5_0_0_0_2_0,NA,NA,skipped,NA,616836,NA,NA,616835.54,616836,2023-03-19T17:07:01Z,616851.72,NULL,Gelegenheit,wakati,s,mchanganyiko,kipaumbele,kushuku,NA,sdf,NA,0,NA,NA,NA,NA,NA,NA,NA,NA,NA,NA,NA,NA,NA,NA,NA,NA,NA,NA,NA
a6ad7,Shallow Question,html.Page,5_0_0_0_2_1_0,NA,NA,form submission,3303.28,616836,616835.54,616851.72,620155,620156,2023-03-19T17:07:04Z,620153.68,NULL,Gelegenheit,wakati,s,mchanganyiko,kipaumbele,kushuku,wakati,NA,NA,0,NA,NA,NA,NA,NA,NA,NA,NA,NA,NA,NA,NA,NA,NA,NA,NA,NA,NA,NA
a6ad7,"""Richtig""-Screen",canvas.Screen,5_0_0_0_2_1_1,NA,NA,timeout,5001.08,620162,620153.4,620153.68,625138.5,625140,2023-03-19T17:07:09Z,625154.76,NULL,Gelegenheit,wakati,s,mchanganyiko,kipaumbele,kushuku,NA,sdf,1,0,NA,NA,NA,NA,NA,NA,NA,NA,NA,NA,NA,NA,NA,NA,NA,NA,NA,NA,NA
a6ad7,"""Falsch""-Screen",canvas.Screen,5_0_0_0_2_1_2,NA,NA,skipped,NA,625142,NA,NA,625138.5,625142,2023-03-19T17:07:09Z,625154.76,NULL,Gelegenheit,wakati,s,mchanganyiko,kipaumbele,kushuku,NA,sdf,NA,0,NA,NA,NA,NA,NA,NA,NA,NA,NA,NA,NA,NA,NA,NA,NA,NA,NA,NA,NA
a6ad7,shallow,flow.Sequence,5_0_0_0_2_1,NA,NA,completion,8286.78,616836,616835.54,616851.72,625138.5,625143,2023-03-19T17:07:09Z,625154.76,NULL,Gelegenheit,wakati,s,mchanganyiko,kipaumbele,kushuku,NA,sdf,NA,0,NA,NA,NA,NA,NA,NA,NA,NA,NA,NA,NA,NA,NA,NA,NA,NA,NA,NA,NA
a6ad7,task,flow.Sequence,5_0_0_0_2,NA,NA,completion,8286.78,616836,616835.54,616851.72,625138.5,625143,2023-03-19T17:07:09Z,625154.76,NULL,Gelegenheit,wakati,s,mchanganyiko,kipaumbele,kushuku,NA,sdf,NA,0,NA,NA,NA,NA,NA,NA,NA,NA,NA,NA,NA,NA,NA,NA,NA,NA,NA,NA,NA
a6ad7,deep,flow.Sequence,5_0_0_0_3_0,NA,NA,skipped,NA,625143,NA,NA,625138.5,625144,2023-03-19T17:07:09Z,625154.76,NULL,Notfall,dharura,s,rairai,malalamiko,ahueni,NA,sdf,NA,0,NA,NA,NA,NA,NA,NA,NA,NA,NA,NA,NA,NA,NA,NA,NA,NA,NA,NA,NA
a6ad7,Shallow Question,html.Page,5_0_0_0_3_1_0,NA,NA,form submission,2103.24,625144,625138.5,625154.76,627258,627259,2023-03-19T17:07:11Z,627257.66,NULL,Notfall,dharura,s,rairai,malalamiko,ahueni,malalamiko,NA,NA,0,NA,NA,NA,NA,NA,NA,NA,NA,NA,NA,NA,NA,NA,NA,NA,NA,NA,NA,NA
a6ad7,"""Richtig""-Screen",canvas.Screen,5_0_0_0_3_1_1,NA,NA,skipped,NA,627261,NA,NA,627258,627261,2023-03-19T17:07:11Z,627257.66,NULL,Notfall,dharura,s,rairai,malalamiko,ahueni,NA,sdf,NA,0,NA,NA,NA,NA,NA,NA,NA,NA,NA,NA,NA,NA,NA,NA,NA,NA,NA,NA,NA
a6ad7,"""Falsch""-Screen",canvas.Screen,5_0_0_0_3_1_2,NA,NA,timeout,5006,627265,627257.38,627257.66,632246.06,632247,2023-03-19T17:07:16Z,632263.66,NULL,Notfall,dharura,s,rairai,malalamiko,ahueni,NA,sdf,0,0,NA,NA,NA,NA,NA,NA,NA,NA,NA,NA,NA,NA,NA,NA,NA,NA,NA,NA,NA
a6ad7,shallow,flow.Sequence,5_0_0_0_3_1,NA,NA,completion,7091.3,625144,625138.5,625154.76,632246.06,632247,2023-03-19T17:07:16Z,632263.66,NULL,Notfall,dharura,s,rairai,malalamiko,ahueni,NA,sdf,NA,0,NA,NA,NA,NA,NA,NA,NA,NA,NA,NA,NA,NA,NA,NA,NA,NA,NA,NA,NA
a6ad7,task,flow.Sequence,5_0_0_0_3,NA,NA,completion,7091.3,625143,625138.5,625154.76,632246.06,632247,2023-03-19T17:07:16Z,632263.66,NULL,Notfall,dharura,s,rairai,malalamiko,ahueni,NA,sdf,NA,0,NA,NA,NA,NA,NA,NA,NA,NA,NA,NA,NA,NA,NA,NA,NA,NA,NA,NA,NA
a6ad7,Deep Question,html.Page,5_0_0_0_4_0_0,NA,NA,form submission,1552.34,632248,632246.06,632263.66,633816,633816,2023-03-19T17:07:18Z,633814.58,NULL,Wohlstand,mafanikio,d,NA,NA,NA,f,NA,NA,0,NA,NA,NA,NA,NA,NA,NA,NA,NA,NA,NA,NA,NA,NA,NA,NA,NA,NA,NA
a6ad7,"""Richtig""-Screen",canvas.Screen,5_0_0_0_4_0_1,NA,NA,skipped,NA,633818,NA,NA,633816,633819,2023-03-19T17:07:18Z,633814.58,NULL,Wohlstand,mafanikio,d,NA,NA,NA,NA,sdf,NA,0,NA,NA,NA,NA,NA,NA,NA,NA,NA,NA,NA,NA,NA,NA,NA,NA,NA,NA,NA
a6ad7,"""Falsch""-Screen",canvas.Screen,5_0_0_0_4_0_2,NA,NA,timeout,5007.1800000001,633821,633814.1,633814.58,638804.74,638806,2023-03-19T17:07:23Z,638821.76,NULL,Wohlstand,mafanikio,d,NA,NA,NA,NA,sdf,0,0,NA,NA,NA,NA,NA,NA,NA,NA,NA,NA,NA,NA,NA,NA,NA,NA,NA,NA,NA
a6ad7,deep,flow.Sequence,5_0_0_0_4_0,NA,NA,completion,6541.08,632248,632246.06,632263.66,638804.74,638806,2023-03-19T17:07:23Z,638821.76,NULL,Wohlstand,mafanikio,d,NA,NA,NA,NA,sdf,NA,0,NA,NA,NA,NA,NA,NA,NA,NA,NA,NA,NA,NA,NA,NA,NA,NA,NA,NA,NA
a6ad7,shallow,flow.Sequence,5_0_0_0_4_1,NA,NA,skipped,NA,638806,NA,NA,638804.74,638806,2023-03-19T17:07:23Z,638821.76,NULL,Wohlstand,mafanikio,d,NA,NA,NA,NA,sdf,NA,0,NA,NA,NA,NA,NA,NA,NA,NA,NA,NA,NA,NA,NA,NA,NA,NA,NA,NA,NA
a6ad7,task,flow.Sequence,5_0_0_0_4,NA,NA,completion,6541.08,632248,632246.06,632263.66,638804.74,638806,2023-03-19T17:07:23Z,638821.76,NULL,Wohlstand,mafanikio,d,NA,NA,NA,NA,sdf,NA,0,NA,NA,NA,NA,NA,NA,NA,NA,NA,NA,NA,NA,NA,NA,NA,NA,NA,NA,NA
a6ad7,Deep Question,html.Page,5_0_0_0_5_0_0,NA,NA,form submission,1768.24,638806,638804.74,638821.76,640590,640590,2023-03-19T17:07:24Z,640589.34,NULL,Ergänzung,kijalizo,d,NA,NA,NA,f,NA,NA,0,NA,NA,NA,NA,NA,NA,NA,NA,NA,NA,NA,NA,NA,NA,NA,NA,NA,NA,NA
a6ad7,"""Richtig""-Screen",canvas.Screen,5_0_0_0_5_0_1,NA,NA,skipped,NA,640593,NA,NA,640590,640593,2023-03-19T17:07:24Z,640589.34,NULL,Ergänzung,kijalizo,d,NA,NA,NA,NA,sdf,NA,0,NA,NA,NA,NA,NA,NA,NA,NA,NA,NA,NA,NA,NA,NA,NA,NA,NA,NA,NA
a6ad7,"""Falsch""-Screen",canvas.Screen,5_0_0_0_5_0_2,NA,NA,timeout,5004.5600000001,640595,640589.22,640589.34,645578.34,645579,2023-03-19T17:07:29Z,645593.9,NULL,Ergänzung,kijalizo,d,NA,NA,NA,NA,sdf,0,0,NA,NA,NA,NA,NA,NA,NA,NA,NA,NA,NA,NA,NA,NA,NA,NA,NA,NA,NA
a6ad7,deep,flow.Sequence,5_0_0_0_5_0,NA,NA,completion,6756.58,638806,638804.74,638821.76,645578.34,645579,2023-03-19T17:07:29Z,645593.9,NULL,Ergänzung,kijalizo,d,NA,NA,NA,NA,sdf,NA,0,NA,NA,NA,NA,NA,NA,NA,NA,NA,NA,NA,NA,NA,NA,NA,NA,NA,NA,NA
a6ad7,shallow,flow.Sequence,5_0_0_0_5_1,NA,NA,skipped,NA,645579,NA,NA,645578.34,645579,2023-03-19T17:07:29Z,645593.9,NULL,Ergänzung,kijalizo,d,NA,NA,NA,NA,sdf,NA,0,NA,NA,NA,NA,NA,NA,NA,NA,NA,NA,NA,NA,NA,NA,NA,NA,NA,NA,NA
a6ad7,task,flow.Sequence,5_0_0_0_5,NA,NA,completion,6756.58,638806,638804.74,638821.76,645578.34,645580,2023-03-19T17:07:29Z,645593.9,NULL,Ergänzung,kijalizo,d,NA,NA,NA,NA,sdf,NA,0,NA,NA,NA,NA,NA,NA,NA,NA,NA,NA,NA,NA,NA,NA,NA,NA,NA,NA,NA
a6ad7,Deep Question,html.Page,5_0_0_0_6_0_0,NA,NA,form submission,1899.1,645580,645578.34,645593.9,647493,647493,2023-03-19T17:07:31Z,647505.98,NULL,Widerstand,usulubu,d,NA,NA,NA,f,NA,NA,0,NA,NA,NA,NA,NA,NA,NA,NA,NA,NA,NA,NA,NA,NA,NA,NA,NA,NA,NA
a6ad7,"""Richtig""-Screen",canvas.Screen,5_0_0_0_6_0_1,NA,NA,skipped,NA,647495,NA,NA,647493,647495,2023-03-19T17:07:31Z,647505.98,NULL,Widerstand,usulubu,d,NA,NA,NA,NA,sdf,NA,0,NA,NA,NA,NA,NA,NA,NA,NA,NA,NA,NA,NA,NA,NA,NA,NA,NA,NA,NA
a6ad7,"""Falsch""-Screen",canvas.Screen,5_0_0_0_6_0_2,NA,NA,timeout,5001.84,647497,647491.9,647505.98,652491.16,652491,2023-03-19T17:07:36Z,652507.82,NULL,Widerstand,usulubu,d,NA,NA,NA,NA,sdf,0,0,NA,NA,NA,NA,NA,NA,NA,NA,NA,NA,NA,NA,NA,NA,NA,NA,NA,NA,NA
a6ad7,deep,flow.Sequence,5_0_0_0_6_0,NA,NA,completion,6897.26,645580,645578.34,645593.9,652491.16,652492,2023-03-19T17:07:36Z,652507.82,NULL,Widerstand,usulubu,d,NA,NA,NA,NA,sdf,NA,0,NA,NA,NA,NA,NA,NA,NA,NA,NA,NA,NA,NA,NA,NA,NA,NA,NA,NA,NA
a6ad7,shallow,flow.Sequence,5_0_0_0_6_1,NA,NA,skipped,NA,652492,NA,NA,652491.16,652492,2023-03-19T17:07:36Z,652507.82,NULL,Widerstand,usulubu,d,NA,NA,NA,NA,sdf,NA,0,NA,NA,NA,NA,NA,NA,NA,NA,NA,NA,NA,NA,NA,NA,NA,NA,NA,NA,NA
a6ad7,task,flow.Sequence,5_0_0_0_6,NA,NA,completion,6897.26,645580,645578.34,645593.9,652491.16,652492,2023-03-19T17:07:36Z,652507.82,NULL,Widerstand,usulubu,d,NA,NA,NA,NA,sdf,NA,0,NA,NA,NA,NA,NA,NA,NA,NA,NA,NA,NA,NA,NA,NA,NA,NA,NA,NA,NA
a6ad7,Deep Question,html.Page,5_0_0_0_7_0_0,NA,NA,form submission,1792.1800000001,652493,652491.16,652507.82,654300,654300,2023-03-19T17:07:38Z,654310.52,NULL,Verstand,ufahamivu,d,NA,NA,NA,f,NA,NA,0,NA,NA,NA,NA,NA,NA,NA,NA,NA,NA,NA,NA,NA,NA,NA,NA,NA,NA,NA
a6ad7,"""Richtig""-Screen",canvas.Screen,5_0_0_0_7_0_1,NA,NA,skipped,NA,654303,NA,NA,654300,654303,2023-03-19T17:07:38Z,654310.52,NULL,Verstand,ufahamivu,d,NA,NA,NA,NA,sdf,NA,0,NA,NA,NA,NA,NA,NA,NA,NA,NA,NA,NA,NA,NA,NA,NA,NA,NA,NA,NA
a6ad7,"""Falsch""-Screen",canvas.Screen,5_0_0_0_7_0_2,NA,NA,timeout,4992.16,654305,654298.78,654310.52,659286.66,659287,2023-03-19T17:07:43Z,659302.68,NULL,Verstand,ufahamivu,d,NA,NA,NA,NA,sdf,0,0,NA,NA,NA,NA,NA,NA,NA,NA,NA,NA,NA,NA,NA,NA,NA,NA,NA,NA,NA
a6ad7,deep,flow.Sequence,5_0_0_0_7_0,NA,NA,completion,6778.8400000001,652493,652491.16,652507.82,659286.66,659288,2023-03-19T17:07:43Z,659302.68,NULL,Verstand,ufahamivu,d,NA,NA,NA,NA,sdf,NA,0,NA,NA,NA,NA,NA,NA,NA,NA,NA,NA,NA,NA,NA,NA,NA,NA,NA,NA,NA
a6ad7,shallow,flow.Sequence,5_0_0_0_7_1,NA,NA,skipped,NA,659288,NA,NA,659286.66,659288,2023-03-19T17:07:43Z,659302.68,NULL,Verstand,ufahamivu,d,NA,NA,NA,NA,sdf,NA,0,NA,NA,NA,NA,NA,NA,NA,NA,NA,NA,NA,NA,NA,NA,NA,NA,NA,NA,NA
a6ad7,task,flow.Sequence,5_0_0_0_7,NA,NA,completion,6778.8400000001,652493,652491.16,652507.82,659286.66,659288,2023-03-19T17:07:43Z,659302.68,NULL,Verstand,ufahamivu,d,NA,NA,NA,NA,sdf,NA,0,NA,NA,NA,NA,NA,NA,NA,NA,NA,NA,NA,NA,NA,NA,NA,NA,NA,NA,NA
a6ad7,block,flow.Loop,5_0_0_0,NA,NA,completion,60272,599013,599014.36,599014.66,659286.66,659289,2023-03-19T17:07:43Z,659302.68,NULL,NA,NA,NA,NA,NA,NA,NA,sdf,NA,0,NA,NA,NA,NA,NA,NA,NA,NA,NA,NA,NA,NA,NA,NA,NA,NA,NA,NA,NA
a6ad7,weiter,canvas.Screen,5_0_0_1,sdf,keypress(Space),response,2353.3199999999,659289,659286.66,659302.68,661656,661661,2023-03-19T17:07:46Z,661719.26,NULL,NA,NA,NA,NA,NA,NA,NA,sdf,NA,0,NA,NA,NA,NA,NA,NA,NA,NA,NA,NA,NA,NA,NA,NA,NA,NA,NA,NA,NA
a6ad7,check continue,flow.Sequence,5_0_0,NA,NA,completion,62641.34,599013,599014.36,599014.66,661656,661662,2023-03-19T17:07:46Z,661719.26,NULL,NA,NA,NA,NA,NA,NA,NA,sdf,NA,0,NA,NA,NA,NA,NA,NA,NA,NA,NA,NA,NA,NA,NA,NA,NA,NA,NA,NA,NA
a6ad7,Deep Question,html.Page,5_0_1_0_0_0_0,NA,NA,form submission,4200.74,661719,661718.96,661719.26,665920,665921,2023-03-19T17:07:50Z,665922.32,NULL,Wohlstand,mafanikio,d,NA,NA,NA,mafa,NA,NA,1,NA,NA,NA,NA,NA,NA,NA,NA,NA,NA,NA,NA,NA,NA,NA,NA,NA,NA,NA
a6ad7,"""Richtig""-Screen",canvas.Screen,5_0_1_0_0_0_1,NA,NA,skipped,NA,665922,NA,NA,665920,665922,2023-03-19T17:07:50Z,665922.32,NULL,Wohlstand,mafanikio,d,NA,NA,NA,NA,sdfdsf,NA,1,NA,NA,NA,NA,NA,NA,NA,NA,NA,NA,NA,NA,NA,NA,NA,NA,NA,NA,NA
a6ad7,"""Falsch""-Screen",canvas.Screen,5_0_1_0_0_0_2,NA,NA,timeout,5007.0600000001,665923,665919.12,665922.32,670912.1,670913,2023-03-19T17:07:55Z,670929.38,NULL,Wohlstand,mafanikio,d,NA,NA,NA,NA,sdfdsf,0,1,NA,NA,NA,NA,NA,NA,NA,NA,NA,NA,NA,NA,NA,NA,NA,NA,NA,NA,NA
a6ad7,deep,flow.Sequence,5_0_1_0_0_0,NA,NA,completion,9192.84,661719,661718.96,661719.26,670912.1,670913,2023-03-19T17:07:55Z,670929.38,NULL,Wohlstand,mafanikio,d,NA,NA,NA,NA,sdfdsf,NA,1,NA,NA,NA,NA,NA,NA,NA,NA,NA,NA,NA,NA,NA,NA,NA,NA,NA,NA,NA
a6ad7,shallow,flow.Sequence,5_0_1_0_0_1,NA,NA,skipped,NA,670913,NA,NA,670912.1,670913,2023-03-19T17:07:55Z,670929.38,NULL,Wohlstand,mafanikio,d,NA,NA,NA,NA,sdfdsf,NA,1,NA,NA,NA,NA,NA,NA,NA,NA,NA,NA,NA,NA,NA,NA,NA,NA,NA,NA,NA
a6ad7,task,flow.Sequence,5_0_1_0_0,NA,NA,completion,9192.84,661719,661718.96,661719.26,670912.1,670913,2023-03-19T17:07:55Z,670929.38,NULL,Wohlstand,mafanikio,d,NA,NA,NA,NA,sdfdsf,NA,1,NA,NA,NA,NA,NA,NA,NA,NA,NA,NA,NA,NA,NA,NA,NA,NA,NA,NA,NA
a6ad7,Deep Question,html.Page,5_0_1_0_1_0_0,NA,NA,form submission,4515.62,670913,670912.1,670929.38,675445,675446,2023-03-19T17:07:59Z,675444.72,NULL,Widerstand,usulubu,d,NA,NA,NA,usulubu,NA,NA,1,NA,NA,NA,NA,NA,NA,NA,NA,NA,NA,NA,NA,NA,NA,NA,NA,NA,NA,NA
a6ad7,"""Richtig""-Screen",canvas.Screen,5_0_1_0_1_0_1,NA,NA,timeout,5007.48,675446,675444.46,675444.72,680435.1,680436,2023-03-19T17:08:04Z,680452.2,NULL,Widerstand,usulubu,d,NA,NA,NA,NA,sdfdsf,1,1,NA,NA,NA,NA,NA,NA,NA,NA,NA,NA,NA,NA,NA,NA,NA,NA,NA,NA,NA
a6ad7,"""Falsch""-Screen",canvas.Screen,5_0_1_0_1_0_2,NA,NA,skipped,NA,680442,NA,NA,680435.1,680442,2023-03-19T17:08:04Z,680452.2,NULL,Widerstand,usulubu,d,NA,NA,NA,NA,sdfdsf,NA,1,NA,NA,NA,NA,NA,NA,NA,NA,NA,NA,NA,NA,NA,NA,NA,NA,NA,NA,NA
a6ad7,deep,flow.Sequence,5_0_1_0_1_0,NA,NA,completion,9505.72,670913,670912.1,670929.38,680435.1,680442,2023-03-19T17:08:04Z,680452.2,NULL,Widerstand,usulubu,d,NA,NA,NA,NA,sdfdsf,NA,1,NA,NA,NA,NA,NA,NA,NA,NA,NA,NA,NA,NA,NA,NA,NA,NA,NA,NA,NA
a6ad7,shallow,flow.Sequence,5_0_1_0_1_1,NA,NA,skipped,NA,680443,NA,NA,680435.1,680443,2023-03-19T17:08:04Z,680452.2,NULL,Widerstand,usulubu,d,NA,NA,NA,NA,sdfdsf,NA,1,NA,NA,NA,NA,NA,NA,NA,NA,NA,NA,NA,NA,NA,NA,NA,NA,NA,NA,NA
a6ad7,task,flow.Sequence,5_0_1_0_1,NA,NA,completion,9505.72,670913,670912.1,670929.38,680435.1,680443,2023-03-19T17:08:04Z,680452.2,NULL,Widerstand,usulubu,d,NA,NA,NA,NA,sdfdsf,NA,1,NA,NA,NA,NA,NA,NA,NA,NA,NA,NA,NA,NA,NA,NA,NA,NA,NA,NA,NA
a6ad7,Deep Question,html.Page,5_0_1_0_2_0_0,NA,NA,form submission,3173.8,680444,680435.1,680452.2,683626,683626,2023-03-19T17:08:07Z,683632.08,NULL,Ergänzung,kijalizo,d,NA,NA,NA,d,NA,NA,1,NA,NA,NA,NA,NA,NA,NA,NA,NA,NA,NA,NA,NA,NA,NA,NA,NA,NA,NA
a6ad7,"""Richtig""-Screen",canvas.Screen,5_0_1_0_2_0_1,NA,NA,skipped,NA,683629,NA,NA,683626,683630,2023-03-19T17:08:07Z,683632.08,NULL,Ergänzung,kijalizo,d,NA,NA,NA,NA,sdfdsf,NA,1,NA,NA,NA,NA,NA,NA,NA,NA,NA,NA,NA,NA,NA,NA,NA,NA,NA,NA,NA
a6ad7,"""Falsch""-Screen",canvas.Screen,5_0_1_0_2_0_2,NA,NA,timeout,5003.9600000001,683632,683624.8,683632.08,688619.7,688621,2023-03-19T17:08:12Z,688636.04,NULL,Ergänzung,kijalizo,d,NA,NA,NA,NA,sdfdsf,0,1,NA,NA,NA,NA,NA,NA,NA,NA,NA,NA,NA,NA,NA,NA,NA,NA,NA,NA,NA
a6ad7,deep,flow.Sequence,5_0_1_0_2_0,NA,NA,completion,8167.5,680443,680435.1,680452.2,688619.7,688621,2023-03-19T17:08:12Z,688636.04,NULL,Ergänzung,kijalizo,d,NA,NA,NA,NA,sdfdsf,NA,1,NA,NA,NA,NA,NA,NA,NA,NA,NA,NA,NA,NA,NA,NA,NA,NA,NA,NA,NA
a6ad7,shallow,flow.Sequence,5_0_1_0_2_1,NA,NA,skipped,NA,688621,NA,NA,688619.7,688621,2023-03-19T17:08:12Z,688636.04,NULL,Ergänzung,kijalizo,d,NA,NA,NA,NA,sdfdsf,NA,1,NA,NA,NA,NA,NA,NA,NA,NA,NA,NA,NA,NA,NA,NA,NA,NA,NA,NA,NA
a6ad7,task,flow.Sequence,5_0_1_0_2,NA,NA,completion,8167.5,680443,680435.1,680452.2,688619.7,688622,2023-03-19T17:08:12Z,688636.04,NULL,Ergänzung,kijalizo,d,NA,NA,NA,NA,sdfdsf,NA,1,NA,NA,NA,NA,NA,NA,NA,NA,NA,NA,NA,NA,NA,NA,NA,NA,NA,NA,NA
a6ad7,deep,flow.Sequence,5_0_1_0_3_0,NA,NA,skipped,NA,688622,NA,NA,688619.7,688622,2023-03-19T17:08:12Z,688636.04,NULL,Notfall,dharura,s,rairai,malalamiko,ahueni,NA,sdfdsf,NA,1,NA,NA,NA,NA,NA,NA,NA,NA,NA,NA,NA,NA,NA,NA,NA,NA,NA,NA,NA
a6ad7,Shallow Question,html.Page,5_0_1_0_3_1_0,NA,NA,form submission,4967.96,688622,688619.7,688636.04,693604,693604,2023-03-19T17:08:17Z,693602.78,NULL,Notfall,dharura,s,rairai,malalamiko,ahueni,dharura,NA,NA,1,NA,NA,NA,NA,NA,NA,NA,NA,NA,NA,NA,NA,NA,NA,NA,NA,NA,NA,NA
a6ad7,"""Richtig""-Screen",canvas.Screen,5_0_1_0_3_1_1,NA,NA,timeout,4999,693606,693602.48,693602.78,698584.48,698585,2023-03-19T17:08:22Z,698601.78,NULL,Notfall,dharura,s,rairai,malalamiko,ahueni,NA,sdfdsf,1,1,NA,NA,NA,NA,NA,NA,NA,NA,NA,NA,NA,NA,NA,NA,NA,NA,NA,NA,NA
a6ad7,"""Falsch""-Screen",canvas.Screen,5_0_1_0_3_1_2,NA,NA,skipped,NA,698587,NA,NA,698584.48,698587,2023-03-19T17:08:22Z,698601.78,NULL,Notfall,dharura,s,rairai,malalamiko,ahueni,NA,sdfdsf,NA,1,NA,NA,NA,NA,NA,NA,NA,NA,NA,NA,NA,NA,NA,NA,NA,NA,NA,NA,NA
a6ad7,shallow,flow.Sequence,5_0_1_0_3_1,NA,NA,completion,9948.4399999999,688622,688619.7,688636.04,698584.48,698587,2023-03-19T17:08:22Z,698601.78,NULL,Notfall,dharura,s,rairai,malalamiko,ahueni,NA,sdfdsf,NA,1,NA,NA,NA,NA,NA,NA,NA,NA,NA,NA,NA,NA,NA,NA,NA,NA,NA,NA,NA
a6ad7,task,flow.Sequence,5_0_1_0_3,NA,NA,completion,9948.4399999999,688622,688619.7,688636.04,698584.48,698587,2023-03-19T17:08:22Z,698601.78,NULL,Notfall,dharura,s,rairai,malalamiko,ahueni,NA,sdfdsf,NA,1,NA,NA,NA,NA,NA,NA,NA,NA,NA,NA,NA,NA,NA,NA,NA,NA,NA,NA,NA
a6ad7,Deep Question,html.Page,5_0_1_0_4_0_0,NA,NA,form submission,5146.22,698588,698584.48,698601.78,703748,703749,2023-03-19T17:08:28Z,703755.04,NULL,Verstand,ufahamivu,d,NA,NA,NA,ufeh,NA,NA,1,NA,NA,NA,NA,NA,NA,NA,NA,NA,NA,NA,NA,NA,NA,NA,NA,NA,NA,NA
a6ad7,"""Richtig""-Screen",canvas.Screen,5_0_1_0_4_0_1,NA,NA,skipped,NA,703753,NA,NA,703748,703754,2023-03-19T17:08:28Z,703755.04,NULL,Verstand,ufahamivu,d,NA,NA,NA,NA,sdfdsf,NA,1,NA,NA,NA,NA,NA,NA,NA,NA,NA,NA,NA,NA,NA,NA,NA,NA,NA,NA,NA
a6ad7,"""Falsch""-Screen",canvas.Screen,5_0_1_0_4_0_2,NA,NA,timeout,5005.8999999999,703757,703746.42,703755.04,708745.14,708746,2023-03-19T17:08:33Z,708760.94,NULL,Verstand,ufahamivu,d,NA,NA,NA,NA,sdfdsf,0,1,NA,NA,NA,NA,NA,NA,NA,NA,NA,NA,NA,NA,NA,NA,NA,NA,NA,NA,NA
a6ad7,deep,flow.Sequence,5_0_1_0_4_0,NA,NA,completion,10143.36,698588,698584.48,698601.78,708745.14,708747,2023-03-19T17:08:33Z,708760.94,NULL,Verstand,ufahamivu,d,NA,NA,NA,NA,sdfdsf,NA,1,NA,NA,NA,NA,NA,NA,NA,NA,NA,NA,NA,NA,NA,NA,NA,NA,NA,NA,NA
a6ad7,shallow,flow.Sequence,5_0_1_0_4_1,NA,NA,skipped,NA,708747,NA,NA,708745.14,708747,2023-03-19T17:08:33Z,708760.94,NULL,Verstand,ufahamivu,d,NA,NA,NA,NA,sdfdsf,NA,1,NA,NA,NA,NA,NA,NA,NA,NA,NA,NA,NA,NA,NA,NA,NA,NA,NA,NA,NA
a6ad7,task,flow.Sequence,5_0_1_0_4,NA,NA,completion,10143.36,698588,698584.48,698601.78,708745.14,708747,2023-03-19T17:08:33Z,708760.94,NULL,Verstand,ufahamivu,d,NA,NA,NA,NA,sdfdsf,NA,1,NA,NA,NA,NA,NA,NA,NA,NA,NA,NA,NA,NA,NA,NA,NA,NA,NA,NA,NA
a6ad7,deep,flow.Sequence,5_0_1_0_5_0,NA,NA,skipped,NA,708747,NA,NA,708745.14,708747,2023-03-19T17:08:33Z,708760.94,NULL,Vergnügen,kichekesho,s,dubwana,mpanuko,mtesaji,NA,sdfdsf,NA,1,NA,NA,NA,NA,NA,NA,NA,NA,NA,NA,NA,NA,NA,NA,NA,NA,NA,NA,NA
a6ad7,Shallow Question,html.Page,5_0_1_0_5_1_0,NA,NA,form submission,3959.0600000001,708748,708745.14,708760.94,712720,712721,2023-03-19T17:08:37Z,712718.36,NULL,Vergnügen,kichekesho,s,dubwana,mpanuko,mtesaji,kichekesho,NA,NA,1,NA,NA,NA,NA,NA,NA,NA,NA,NA,NA,NA,NA,NA,NA,NA,NA,NA,NA,NA
a6ad7,"""Richtig""-Screen",canvas.Screen,5_0_1_0_5_1_1,NA,NA,timeout,5001.66,712723,712717.82,712718.36,717703.12,717704,2023-03-19T17:08:42Z,717720.02,NULL,Vergnügen,kichekesho,s,dubwana,mpanuko,mtesaji,NA,sdfdsf,1,1,NA,NA,NA,NA,NA,NA,NA,NA,NA,NA,NA,NA,NA,NA,NA,NA,NA,NA,NA
a6ad7,"""Falsch""-Screen",canvas.Screen,5_0_1_0_5_1_2,NA,NA,skipped,NA,717706,NA,NA,717703.12,717706,2023-03-19T17:08:42Z,717720.02,NULL,Vergnügen,kichekesho,s,dubwana,mpanuko,mtesaji,NA,sdfdsf,NA,1,NA,NA,NA,NA,NA,NA,NA,NA,NA,NA,NA,NA,NA,NA,NA,NA,NA,NA,NA
a6ad7,shallow,flow.Sequence,5_0_1_0_5_1,NA,NA,completion,8942.1800000001,708748,708745.14,708760.94,717703.12,717706,2023-03-19T17:08:42Z,717720.02,NULL,Vergnügen,kichekesho,s,dubwana,mpanuko,mtesaji,NA,sdfdsf,NA,1,NA,NA,NA,NA,NA,NA,NA,NA,NA,NA,NA,NA,NA,NA,NA,NA,NA,NA,NA
a6ad7,task,flow.Sequence,5_0_1_0_5,NA,NA,completion,8942.1800000001,708747,708745.14,708760.94,717703.12,717707,2023-03-19T17:08:42Z,717720.02,NULL,Vergnügen,kichekesho,s,dubwana,mpanuko,mtesaji,NA,sdfdsf,NA,1,NA,NA,NA,NA,NA,NA,NA,NA,NA,NA,NA,NA,NA,NA,NA,NA,NA,NA,NA
a6ad7,deep,flow.Sequence,5_0_1_0_6_0,NA,NA,skipped,NA,717707,NA,NA,717703.12,717707,2023-03-19T17:08:42Z,717720.02,NULL,Ausschluss,kutengwa,s,ununuzi,taratibu,madeni,NA,sdfdsf,NA,1,NA,NA,NA,NA,NA,NA,NA,NA,NA,NA,NA,NA,NA,NA,NA,NA,NA,NA,NA
a6ad7,Shallow Question,html.Page,5_0_1_0_6_1_0,NA,NA,form submission,5089.98,717708,717703.12,717720.02,722810,722810,2023-03-19T17:08:47Z,722809.54,NULL,Ausschluss,kutengwa,s,ununuzi,taratibu,madeni,kutengwa,NA,NA,1,NA,NA,NA,NA,NA,NA,NA,NA,NA,NA,NA,NA,NA,NA,NA,NA,NA,NA,NA
a6ad7,"""Richtig""-Screen",canvas.Screen,5_0_1_0_6_1_1,NA,NA,timeout,5006.74,722812,722809.26,722809.54,727800.76,727802,2023-03-19T17:08:52Z,727816.28,NULL,Ausschluss,kutengwa,s,ununuzi,taratibu,madeni,NA,sdfdsf,1,1,NA,NA,NA,NA,NA,NA,NA,NA,NA,NA,NA,NA,NA,NA,NA,NA,NA,NA,NA
a6ad7,"""Falsch""-Screen",canvas.Screen,5_0_1_0_6_1_2,NA,NA,skipped,NA,727805,NA,NA,727800.76,727805,2023-03-19T17:08:52Z,727816.28,NULL,Ausschluss,kutengwa,s,ununuzi,taratibu,madeni,NA,sdfdsf,NA,1,NA,NA,NA,NA,NA,NA,NA,NA,NA,NA,NA,NA,NA,NA,NA,NA,NA,NA,NA
a6ad7,shallow,flow.Sequence,5_0_1_0_6_1,NA,NA,completion,10080.74,717708,717703.12,717720.02,727800.76,727805,2023-03-19T17:08:52Z,727816.28,NULL,Ausschluss,kutengwa,s,ununuzi,taratibu,madeni,NA,sdfdsf,NA,1,NA,NA,NA,NA,NA,NA,NA,NA,NA,NA,NA,NA,NA,NA,NA,NA,NA,NA,NA
a6ad7,task,flow.Sequence,5_0_1_0_6,NA,NA,completion,10080.74,717707,717703.12,717720.02,727800.76,727805,2023-03-19T17:08:52Z,727816.28,NULL,Ausschluss,kutengwa,s,ununuzi,taratibu,madeni,NA,sdfdsf,NA,1,NA,NA,NA,NA,NA,NA,NA,NA,NA,NA,NA,NA,NA,NA,NA,NA,NA,NA,NA
a6ad7,deep,flow.Sequence,5_0_1_0_7_0,NA,NA,skipped,NA,727805,NA,NA,727800.76,727805,2023-03-19T17:08:52Z,727816.28,NULL,Gelegenheit,wakati,s,mchanganyiko,kipaumbele,kushuku,NA,sdfdsf,NA,1,NA,NA,NA,NA,NA,NA,NA,NA,NA,NA,NA,NA,NA,NA,NA,NA,NA,NA,NA
a6ad7,Shallow Question,html.Page,5_0_1_0_7_1_0,NA,NA,form submission,4865.72,727805,727800.76,727816.28,732682,732682,2023-03-19T17:08:57Z,732681.56,NULL,Gelegenheit,wakati,s,mchanganyiko,kipaumbele,kushuku,wakati,NA,NA,1,NA,NA,NA,NA,NA,NA,NA,NA,NA,NA,NA,NA,NA,NA,NA,NA,NA,NA,NA
a6ad7,"""Richtig""-Screen",canvas.Screen,5_0_1_0_7_1_1,NA,NA,timeout,5002.0599999999,732686,732681.28,732681.56,737666.84,737667,2023-03-19T17:09:02Z,737683.62,NULL,Gelegenheit,wakati,s,mchanganyiko,kipaumbele,kushuku,NA,sdfdsf,1,1,NA,NA,NA,NA,NA,NA,NA,NA,NA,NA,NA,NA,NA,NA,NA,NA,NA,NA,NA
a6ad7,"""Falsch""-Screen",canvas.Screen,5_0_1_0_7_1_2,NA,NA,skipped,NA,737674,NA,NA,737666.84,737675,2023-03-19T17:09:02Z,737683.62,NULL,Gelegenheit,wakati,s,mchanganyiko,kipaumbele,kushuku,NA,sdfdsf,NA,1,NA,NA,NA,NA,NA,NA,NA,NA,NA,NA,NA,NA,NA,NA,NA,NA,NA,NA,NA
a6ad7,shallow,flow.Sequence,5_0_1_0_7_1,NA,NA,completion,9850.5599999999,727805,727800.76,727816.28,737666.84,737675,2023-03-19T17:09:02Z,737683.62,NULL,Gelegenheit,wakati,s,mchanganyiko,kipaumbele,kushuku,NA,sdfdsf,NA,1,NA,NA,NA,NA,NA,NA,NA,NA,NA,NA,NA,NA,NA,NA,NA,NA,NA,NA,NA
a6ad7,task,flow.Sequence,5_0_1_0_7,NA,NA,completion,9850.5599999999,727805,727800.76,727816.28,737666.84,737675,2023-03-19T17:09:02Z,737683.62,NULL,Gelegenheit,wakati,s,mchanganyiko,kipaumbele,kushuku,NA,sdfdsf,NA,1,NA,NA,NA,NA,NA,NA,NA,NA,NA,NA,NA,NA,NA,NA,NA,NA,NA,NA,NA
a6ad7,block,flow.Loop,5_0_1_0,NA,NA,completion,75947.58,661719,661718.96,661719.26,737666.84,737675,2023-03-19T17:09:02Z,737683.62,NULL,NA,NA,NA,NA,NA,NA,NA,sdfdsf,NA,1,NA,NA,NA,NA,NA,NA,NA,NA,NA,NA,NA,NA,NA,NA,NA,NA,NA,NA,NA
a6ad7,weiter,canvas.Screen,5_0_1_1,sdf,keypress(Space),response,862.38,737676,737666.84,737683.62,738546,738552,2023-03-19T17:09:02Z,738617.66,NULL,NA,NA,NA,NA,NA,NA,NA,sdfdsf,NA,1,NA,NA,NA,NA,NA,NA,NA,NA,NA,NA,NA,NA,NA,NA,NA,NA,NA,NA,NA
a6ad7,check continue,flow.Sequence,5_0_1,NA,NA,completion,76826.74,661719,661718.96,661719.26,738546,738553,2023-03-19T17:09:02Z,738617.66,NULL,NA,NA,NA,NA,NA,NA,NA,sdfdsf,NA,1,NA,NA,NA,NA,NA,NA,NA,NA,NA,NA,NA,NA,NA,NA,NA,NA,NA,NA,NA
a6ad7,Deep Question,html.Page,5_0_2_0_0_0_0,NA,NA,form submission,6167.34,738617,738617.36,738617.66,744785,744785,2023-03-19T17:09:09Z,744787.6,NULL,Wohlstand,mafanikio,d,NA,NA,NA,mafanikio,NA,NA,2,NA,NA,NA,NA,NA,NA,NA,NA,NA,NA,NA,NA,NA,NA,NA,NA,NA,NA,NA
a6ad7,"""Richtig""-Screen",canvas.Screen,5_0_2_0_0_0_1,NA,NA,timeout,5006.34,744787,744783.78,744787.6,749778.42,749779,2023-03-19T17:09:14Z,749793.94,NULL,Wohlstand,mafanikio,d,NA,NA,NA,NA,sdf,1,2,NA,NA,NA,NA,NA,NA,NA,NA,NA,NA,NA,NA,NA,NA,NA,NA,NA,NA,NA
a6ad7,"""Falsch""-Screen",canvas.Screen,5_0_2_0_0_0_2,NA,NA,skipped,NA,749780,NA,NA,749778.42,749781,2023-03-19T17:09:14Z,749793.94,NULL,Wohlstand,mafanikio,d,NA,NA,NA,NA,sdf,NA,2,NA,NA,NA,NA,NA,NA,NA,NA,NA,NA,NA,NA,NA,NA,NA,NA,NA,NA,NA
a6ad7,deep,flow.Sequence,5_0_2_0_0_0,NA,NA,completion,11160.76,738617,738617.36,738617.66,749778.42,749782,2023-03-19T17:09:14Z,749793.94,NULL,Wohlstand,mafanikio,d,NA,NA,NA,NA,sdf,NA,2,NA,NA,NA,NA,NA,NA,NA,NA,NA,NA,NA,NA,NA,NA,NA,NA,NA,NA,NA
a6ad7,shallow,flow.Sequence,5_0_2_0_0_1,NA,NA,skipped,NA,749782,NA,NA,749778.42,749782,2023-03-19T17:09:14Z,749793.94,NULL,Wohlstand,mafanikio,d,NA,NA,NA,NA,sdf,NA,2,NA,NA,NA,NA,NA,NA,NA,NA,NA,NA,NA,NA,NA,NA,NA,NA,NA,NA,NA
a6ad7,task,flow.Sequence,5_0_2_0_0,NA,NA,completion,11160.76,738617,738617.36,738617.66,749778.42,749782,2023-03-19T17:09:14Z,749793.94,NULL,Wohlstand,mafanikio,d,NA,NA,NA,NA,sdf,NA,2,NA,NA,NA,NA,NA,NA,NA,NA,NA,NA,NA,NA,NA,NA,NA,NA,NA,NA,NA
a6ad7,deep,flow.Sequence,5_0_2_0_1_0,NA,NA,skipped,NA,749782,NA,NA,749778.42,749782,2023-03-19T17:09:14Z,749793.94,NULL,Notfall,dharura,s,rairai,malalamiko,ahueni,NA,sdf,NA,2,NA,NA,NA,NA,NA,NA,NA,NA,NA,NA,NA,NA,NA,NA,NA,NA,NA,NA,NA
a6ad7,Shallow Question,html.Page,5_0_2_0_1_1_0,NA,NA,form submission,2820.0600000001,749782,749778.42,749793.94,752614,752614,2023-03-19T17:09:16Z,752613.34,NULL,Notfall,dharura,s,rairai,malalamiko,ahueni,dharura,NA,NA,2,NA,NA,NA,NA,NA,NA,NA,NA,NA,NA,NA,NA,NA,NA,NA,NA,NA,NA,NA
a6ad7,"""Richtig""-Screen",canvas.Screen,5_0_2_0_1_1_1,NA,NA,timeout,4994.8200000001,752616,752613.06,752613.34,757591.48,757592,2023-03-19T17:09:21Z,757608.16,NULL,Notfall,dharura,s,rairai,malalamiko,ahueni,NA,sdf,1,2,NA,NA,NA,NA,NA,NA,NA,NA,NA,NA,NA,NA,NA,NA,NA,NA,NA,NA,NA
a6ad7,"""Falsch""-Screen",canvas.Screen,5_0_2_0_1_1_2,NA,NA,skipped,NA,757594,NA,NA,757591.48,757594,2023-03-19T17:09:21Z,757608.16,NULL,Notfall,dharura,s,rairai,malalamiko,ahueni,NA,sdf,NA,2,NA,NA,NA,NA,NA,NA,NA,NA,NA,NA,NA,NA,NA,NA,NA,NA,NA,NA,NA
a6ad7,shallow,flow.Sequence,5_0_2_0_1_1,NA,NA,completion,7797.54,749782,749778.42,749793.94,757591.48,757594,2023-03-19T17:09:21Z,757608.16,NULL,Notfall,dharura,s,rairai,malalamiko,ahueni,NA,sdf,NA,2,NA,NA,NA,NA,NA,NA,NA,NA,NA,NA,NA,NA,NA,NA,NA,NA,NA,NA,NA
a6ad7,task,flow.Sequence,5_0_2_0_1,NA,NA,completion,7797.54,749782,749778.42,749793.94,757591.48,757595,2023-03-19T17:09:21Z,757608.16,NULL,Notfall,dharura,s,rairai,malalamiko,ahueni,NA,sdf,NA,2,NA,NA,NA,NA,NA,NA,NA,NA,NA,NA,NA,NA,NA,NA,NA,NA,NA,NA,NA
a6ad7,deep,flow.Sequence,5_0_2_0_2_0,NA,NA,skipped,NA,757595,NA,NA,757591.48,757595,2023-03-19T17:09:21Z,757608.16,NULL,Ausschluss,kutengwa,s,ununuzi,taratibu,madeni,NA,sdf,NA,2,NA,NA,NA,NA,NA,NA,NA,NA,NA,NA,NA,NA,NA,NA,NA,NA,NA,NA,NA
a6ad7,Shallow Question,html.Page,5_0_2_0_2_1_0,NA,NA,form submission,3786.84,757595,757591.48,757608.16,761395,761396,2023-03-19T17:09:25Z,761394.2,NULL,Ausschluss,kutengwa,s,ununuzi,taratibu,madeni,kutengwa,NA,NA,2,NA,NA,NA,NA,NA,NA,NA,NA,NA,NA,NA,NA,NA,NA,NA,NA,NA,NA,NA
a6ad7,"""Richtig""-Screen",canvas.Screen,5_0_2_0_2_1_1,NA,NA,timeout,5000.92,761397,761393.84,761394.2,766378.14,766379,2023-03-19T17:09:30Z,766395.12,NULL,Ausschluss,kutengwa,s,ununuzi,taratibu,madeni,NA,sdf,1,2,NA,NA,NA,NA,NA,NA,NA,NA,NA,NA,NA,NA,NA,NA,NA,NA,NA,NA,NA
a6ad7,"""Falsch""-Screen",canvas.Screen,5_0_2_0_2_1_2,NA,NA,skipped,NA,766380,NA,NA,766378.14,766380,2023-03-19T17:09:30Z,766395.12,NULL,Ausschluss,kutengwa,s,ununuzi,taratibu,madeni,NA,sdf,NA,2,NA,NA,NA,NA,NA,NA,NA,NA,NA,NA,NA,NA,NA,NA,NA,NA,NA,NA,NA
a6ad7,shallow,flow.Sequence,5_0_2_0_2_1,NA,NA,completion,8769.98,757595,757591.48,757608.16,766378.14,766380,2023-03-19T17:09:30Z,766395.12,NULL,Ausschluss,kutengwa,s,ununuzi,taratibu,madeni,NA,sdf,NA,2,NA,NA,NA,NA,NA,NA,NA,NA,NA,NA,NA,NA,NA,NA,NA,NA,NA,NA,NA
a6ad7,task,flow.Sequence,5_0_2_0_2,NA,NA,completion,8769.98,757595,757591.48,757608.16,766378.14,766381,2023-03-19T17:09:30Z,766395.12,NULL,Ausschluss,kutengwa,s,ununuzi,taratibu,madeni,NA,sdf,NA,2,NA,NA,NA,NA,NA,NA,NA,NA,NA,NA,NA,NA,NA,NA,NA,NA,NA,NA,NA
a6ad7,Deep Question,html.Page,5_0_2_0_3_0_0,NA,NA,form submission,5087.88,766381,766378.14,766395.12,771483,771483,2023-03-19T17:09:35Z,771484.76,NULL,Widerstand,usulubu,d,NA,NA,NA,usulubu,NA,NA,2,NA,NA,NA,NA,NA,NA,NA,NA,NA,NA,NA,NA,NA,NA,NA,NA,NA,NA,NA
a6ad7,"""Richtig""-Screen",canvas.Screen,5_0_2_0_3_0_1,NA,NA,timeout,5002.24,771485,771482.64,771484.76,776471.46,776472,2023-03-19T17:09:40Z,776487,NULL,Widerstand,usulubu,d,NA,NA,NA,NA,sdf,1,2,NA,NA,NA,NA,NA,NA,NA,NA,NA,NA,NA,NA,NA,NA,NA,NA,NA,NA,NA
a6ad7,"""Falsch""-Screen",canvas.Screen,5_0_2_0_3_0_2,NA,NA,skipped,NA,776474,NA,NA,776471.46,776474,2023-03-19T17:09:40Z,776487,NULL,Widerstand,usulubu,d,NA,NA,NA,NA,sdf,NA,2,NA,NA,NA,NA,NA,NA,NA,NA,NA,NA,NA,NA,NA,NA,NA,NA,NA,NA,NA
a6ad7,deep,flow.Sequence,5_0_2_0_3_0,NA,NA,completion,10076.34,766381,766378.14,766395.12,776471.46,776474,2023-03-19T17:09:40Z,776487,NULL,Widerstand,usulubu,d,NA,NA,NA,NA,sdf,NA,2,NA,NA,NA,NA,NA,NA,NA,NA,NA,NA,NA,NA,NA,NA,NA,NA,NA,NA,NA
a6ad7,shallow,flow.Sequence,5_0_2_0_3_1,NA,NA,skipped,NA,776474,NA,NA,776471.46,776474,2023-03-19T17:09:40Z,776487,NULL,Widerstand,usulubu,d,NA,NA,NA,NA,sdf,NA,2,NA,NA,NA,NA,NA,NA,NA,NA,NA,NA,NA,NA,NA,NA,NA,NA,NA,NA,NA
a6ad7,task,flow.Sequence,5_0_2_0_3,NA,NA,completion,10076.34,766381,766378.14,766395.12,776471.46,776474,2023-03-19T17:09:40Z,776487,NULL,Widerstand,usulubu,d,NA,NA,NA,NA,sdf,NA,2,NA,NA,NA,NA,NA,NA,NA,NA,NA,NA,NA,NA,NA,NA,NA,NA,NA,NA,NA
a6ad7,deep,flow.Sequence,5_0_2_0_4_0,NA,NA,skipped,NA,776474,NA,NA,776471.46,776474,2023-03-19T17:09:40Z,776487,NULL,Vergnügen,kichekesho,s,dubwana,mpanuko,mtesaji,NA,sdf,NA,2,NA,NA,NA,NA,NA,NA,NA,NA,NA,NA,NA,NA,NA,NA,NA,NA,NA,NA,NA
a6ad7,Shallow Question,html.Page,5_0_2_0_4_1_0,NA,NA,form submission,2523,776474,776471.46,776487,779010,779010,2023-03-19T17:09:43Z,779009.08,NULL,Vergnügen,kichekesho,s,dubwana,mpanuko,mtesaji,kichekesho,NA,NA,2,NA,NA,NA,NA,NA,NA,NA,NA,NA,NA,NA,NA,NA,NA,NA,NA,NA,NA,NA
a6ad7,"""Richtig""-Screen",canvas.Screen,5_0_2_0_4_1_1,NA,NA,timeout,4993.5,779012,779008.8,779009.08,783986.6,783988,2023-03-19T17:09:48Z,784002.58,NULL,Vergnügen,kichekesho,s,dubwana,mpanuko,mtesaji,NA,sdf,1,2,NA,NA,NA,NA,NA,NA,NA,NA,NA,NA,NA,NA,NA,NA,NA,NA,NA,NA,NA
a6ad7,"""Falsch""-Screen",canvas.Screen,5_0_2_0_4_1_2,NA,NA,skipped,NA,783993,NA,NA,783986.6,783994,2023-03-19T17:09:48Z,784002.58,NULL,Vergnügen,kichekesho,s,dubwana,mpanuko,mtesaji,NA,sdf,NA,2,NA,NA,NA,NA,NA,NA,NA,NA,NA,NA,NA,NA,NA,NA,NA,NA,NA,NA,NA
a6ad7,shallow,flow.Sequence,5_0_2_0_4_1,NA,NA,completion,7499.6,776474,776471.46,776487,783986.6,783994,2023-03-19T17:09:48Z,784002.58,NULL,Vergnügen,kichekesho,s,dubwana,mpanuko,mtesaji,NA,sdf,NA,2,NA,NA,NA,NA,NA,NA,NA,NA,NA,NA,NA,NA,NA,NA,NA,NA,NA,NA,NA
a6ad7,task,flow.Sequence,5_0_2_0_4,NA,NA,completion,7499.6,776474,776471.46,776487,783986.6,783995,2023-03-19T17:09:48Z,784002.58,NULL,Vergnügen,kichekesho,s,dubwana,mpanuko,mtesaji,NA,sdf,NA,2,NA,NA,NA,NA,NA,NA,NA,NA,NA,NA,NA,NA,NA,NA,NA,NA,NA,NA,NA
a6ad7,Deep Question,html.Page,5_0_2_0_5_0_0,NA,NA,form submission,3953.42,783995,783986.6,784002.58,787956,787956,2023-03-19T17:09:52Z,787955,NULL,Ergänzung,kijalizo,d,NA,NA,NA,ki,NA,NA,2,NA,NA,NA,NA,NA,NA,NA,NA,NA,NA,NA,NA,NA,NA,NA,NA,NA,NA,NA
a6ad7,"""Richtig""-Screen",canvas.Screen,5_0_2_0_5_0_1,NA,NA,skipped,NA,787960,NA,NA,787956,787960,2023-03-19T17:09:52Z,787955,NULL,Ergänzung,kijalizo,d,NA,NA,NA,NA,sdf,NA,2,NA,NA,NA,NA,NA,NA,NA,NA,NA,NA,NA,NA,NA,NA,NA,NA,NA,NA,NA
a6ad7,"""Falsch""-Screen",canvas.Screen,5_0_2_0_5_0_2,NA,NA,timeout,5002.72,787962,787954.6,787955,792941.4,792942,2023-03-19T17:09:57Z,792957.72,NULL,Ergänzung,kijalizo,d,NA,NA,NA,NA,sdf,0,2,NA,NA,NA,NA,NA,NA,NA,NA,NA,NA,NA,NA,NA,NA,NA,NA,NA,NA,NA
a6ad7,deep,flow.Sequence,5_0_2_0_5_0,NA,NA,completion,8938.8200000001,783995,783986.6,784002.58,792941.4,792942,2023-03-19T17:09:57Z,792957.72,NULL,Ergänzung,kijalizo,d,NA,NA,NA,NA,sdf,NA,2,NA,NA,NA,NA,NA,NA,NA,NA,NA,NA,NA,NA,NA,NA,NA,NA,NA,NA,NA
a6ad7,shallow,flow.Sequence,5_0_2_0_5_1,NA,NA,skipped,NA,792943,NA,NA,792941.4,792943,2023-03-19T17:09:57Z,792957.72,NULL,Ergänzung,kijalizo,d,NA,NA,NA,NA,sdf,NA,2,NA,NA,NA,NA,NA,NA,NA,NA,NA,NA,NA,NA,NA,NA,NA,NA,NA,NA,NA
a6ad7,task,flow.Sequence,5_0_2_0_5,NA,NA,completion,8938.8200000001,783995,783986.6,784002.58,792941.4,792943,2023-03-19T17:09:57Z,792957.72,NULL,Ergänzung,kijalizo,d,NA,NA,NA,NA,sdf,NA,2,NA,NA,NA,NA,NA,NA,NA,NA,NA,NA,NA,NA,NA,NA,NA,NA,NA,NA,NA
a6ad7,Deep Question,html.Page,5_0_2_0_6_0_0,NA,NA,form submission,5233.28,792943,792941.4,792957.72,798191,798191,2023-03-19T17:10:02Z,798189.66,NULL,Verstand,ufahamivu,d,NA,NA,NA,ufahamivu,NA,NA,2,NA,NA,NA,NA,NA,NA,NA,NA,NA,NA,NA,NA,NA,NA,NA,NA,NA,NA,NA
a6ad7,"""Richtig""-Screen",canvas.Screen,5_0_2_0_6_0_1,NA,NA,timeout,4991.4,798194,798189.34,798189.66,803164.02,803164,2023-03-19T17:10:07Z,803181.06,NULL,Verstand,ufahamivu,d,NA,NA,NA,NA,sdf,1,2,NA,NA,NA,NA,NA,NA,NA,NA,NA,NA,NA,NA,NA,NA,NA,NA,NA,NA,NA
a6ad7,"""Falsch""-Screen",canvas.Screen,5_0_2_0_6_0_2,NA,NA,skipped,NA,803166,NA,NA,803164.02,803167,2023-03-19T17:10:07Z,803181.06,NULL,Verstand,ufahamivu,d,NA,NA,NA,NA,sdf,NA,2,NA,NA,NA,NA,NA,NA,NA,NA,NA,NA,NA,NA,NA,NA,NA,NA,NA,NA,NA
a6ad7,deep,flow.Sequence,5_0_2_0_6_0,NA,NA,completion,10206.3,792943,792941.4,792957.72,803164.02,803167,2023-03-19T17:10:07Z,803181.06,NULL,Verstand,ufahamivu,d,NA,NA,NA,NA,sdf,NA,2,NA,NA,NA,NA,NA,NA,NA,NA,NA,NA,NA,NA,NA,NA,NA,NA,NA,NA,NA
a6ad7,shallow,flow.Sequence,5_0_2_0_6_1,NA,NA,skipped,NA,803167,NA,NA,803164.02,803167,2023-03-19T17:10:07Z,803181.06,NULL,Verstand,ufahamivu,d,NA,NA,NA,NA,sdf,NA,2,NA,NA,NA,NA,NA,NA,NA,NA,NA,NA,NA,NA,NA,NA,NA,NA,NA,NA,NA
a6ad7,task,flow.Sequence,5_0_2_0_6,NA,NA,completion,10206.3,792943,792941.4,792957.72,803164.02,803167,2023-03-19T17:10:07Z,803181.06,NULL,Verstand,ufahamivu,d,NA,NA,NA,NA,sdf,NA,2,NA,NA,NA,NA,NA,NA,NA,NA,NA,NA,NA,NA,NA,NA,NA,NA,NA,NA,NA
a6ad7,deep,flow.Sequence,5_0_2_0_7_0,NA,NA,skipped,NA,803167,NA,NA,803164.02,803167,2023-03-19T17:10:07Z,803181.06,NULL,Gelegenheit,wakati,s,mchanganyiko,kipaumbele,kushuku,NA,sdf,NA,2,NA,NA,NA,NA,NA,NA,NA,NA,NA,NA,NA,NA,NA,NA,NA,NA,NA,NA,NA
a6ad7,Shallow Question,html.Page,5_0_2_0_7_1_0,NA,NA,form submission,2661.9399999999,803167,803164.02,803181.06,805843,805843,2023-03-19T17:10:10Z,805841.88,NULL,Gelegenheit,wakati,s,mchanganyiko,kipaumbele,kushuku,wakati,NA,NA,2,NA,NA,NA,NA,NA,NA,NA,NA,NA,NA,NA,NA,NA,NA,NA,NA,NA,NA,NA
a6ad7,"""Richtig""-Screen",canvas.Screen,5_0_2_0_7_1_1,NA,NA,timeout,5005.04,805846,805841.62,805841.88,810831.32,810832,2023-03-19T17:10:15Z,810846.92,NULL,Gelegenheit,wakati,s,mchanganyiko,kipaumbele,kushuku,NA,sdf,1,2,NA,NA,NA,NA,NA,NA,NA,NA,NA,NA,NA,NA,NA,NA,NA,NA,NA,NA,NA
a6ad7,"""Falsch""-Screen",canvas.Screen,5_0_2_0_7_1_2,NA,NA,skipped,NA,810834,NA,NA,810831.32,810834,2023-03-19T17:10:15Z,810846.92,NULL,Gelegenheit,wakati,s,mchanganyiko,kipaumbele,kushuku,NA,sdf,NA,2,NA,NA,NA,NA,NA,NA,NA,NA,NA,NA,NA,NA,NA,NA,NA,NA,NA,NA,NA
a6ad7,shallow,flow.Sequence,5_0_2_0_7_1,NA,NA,completion,7650.2599999999,803167,803164.02,803181.06,810831.32,810834,2023-03-19T17:10:15Z,810846.92,NULL,Gelegenheit,wakati,s,mchanganyiko,kipaumbele,kushuku,NA,sdf,NA,2,NA,NA,NA,NA,NA,NA,NA,NA,NA,NA,NA,NA,NA,NA,NA,NA,NA,NA,NA
a6ad7,task,flow.Sequence,5_0_2_0_7,NA,NA,completion,7650.2599999999,803167,803164.02,803181.06,810831.32,810835,2023-03-19T17:10:15Z,810846.92,NULL,Gelegenheit,wakati,s,mchanganyiko,kipaumbele,kushuku,NA,sdf,NA,2,NA,NA,NA,NA,NA,NA,NA,NA,NA,NA,NA,NA,NA,NA,NA,NA,NA,NA,NA
a6ad7,block,flow.Loop,5_0_2_0,NA,NA,completion,72213.66,738617,738617.36,738617.66,810831.32,810835,2023-03-19T17:10:15Z,810846.92,NULL,NA,NA,NA,NA,NA,NA,NA,sdf,NA,2,NA,NA,NA,NA,NA,NA,NA,NA,NA,NA,NA,NA,NA,NA,NA,NA,NA,NA,NA
a6ad7,weiter,canvas.Screen,5_0_2_1,sdf,keypress(Space),response,1151.08,810835,810831.32,810846.92,811998,812006,2023-03-19T17:10:16Z,812932.62,NULL,NA,NA,NA,NA,NA,NA,NA,sdf,NA,2,NA,NA,NA,NA,NA,NA,NA,NA,NA,NA,NA,NA,NA,NA,NA,NA,NA,NA,NA
a6ad7,check continue,flow.Sequence,5_0_2,NA,NA,completion,73380.34,738617,738617.36,738617.66,811998,812007,2023-03-19T17:10:16Z,812932.62,NULL,NA,NA,NA,NA,NA,NA,NA,sdf,NA,2,NA,NA,NA,NA,NA,NA,NA,NA,NA,NA,NA,NA,NA,NA,NA,NA,NA,NA,NA
a6ad7,check continue,flow.Sequence,5_0_3,NA,NA,skipped,NA,812074,NA,NA,811998,812074,2023-03-19T17:10:16Z,812932.62,NULL,NA,NA,NA,NA,NA,NA,NA,qt,NA,3,NA,NA,NA,NA,NA,NA,NA,NA,NA,NA,NA,NA,NA,NA,NA,NA,NA,NA,NA
a6ad7,check continue,flow.Sequence,5_0_4,NA,NA,skipped,NA,812123,NA,NA,811998,812123,2023-03-19T17:10:16Z,812932.62,NULL,NA,NA,NA,NA,NA,NA,NA,sd,NA,4,NA,NA,NA,NA,NA,NA,NA,NA,NA,NA,NA,NA,NA,NA,NA,NA,NA,NA,NA
a6ad7,check continue,flow.Sequence,5_0_5,NA,NA,skipped,NA,812164,NA,NA,811998,812164,2023-03-19T17:10:16Z,812932.62,NULL,NA,NA,NA,NA,NA,NA,NA,sdf,NA,5,NA,NA,NA,NA,NA,NA,NA,NA,NA,NA,NA,NA,NA,NA,NA,NA,NA,NA,NA
a6ad7,check continue,flow.Sequence,5_0_6,NA,NA,skipped,NA,812205,NA,NA,811998,812205,2023-03-19T17:10:16Z,812932.62,NULL,NA,NA,NA,NA,NA,NA,NA,dfs,NA,6,NA,NA,NA,NA,NA,NA,NA,NA,NA,NA,NA,NA,NA,NA,NA,NA,NA,NA,NA
a6ad7,check continue,flow.Sequence,5_0_7,NA,NA,skipped,NA,812239,NA,NA,811998,812239,2023-03-19T17:10:16Z,812932.62,NULL,NA,NA,NA,NA,NA,NA,NA,df,NA,7,NA,NA,NA,NA,NA,NA,NA,NA,NA,NA,NA,NA,NA,NA,NA,NA,NA,NA,NA
a6ad7,check continue,flow.Sequence,5_0_8,NA,NA,skipped,NA,812273,NA,NA,811998,812273,2023-03-19T17:10:16Z,812932.62,NULL,NA,NA,NA,NA,NA,NA,NA,dfs,NA,8,NA,NA,NA,NA,NA,NA,NA,NA,NA,NA,NA,NA,NA,NA,NA,NA,NA,NA,NA
a6ad7,check continue,flow.Sequence,5_0_9,NA,NA,skipped,NA,812308,NA,NA,811998,812308,2023-03-19T17:10:16Z,812932.62,NULL,NA,NA,NA,NA,NA,NA,NA,dsf,NA,9,NA,NA,NA,NA,NA,NA,NA,NA,NA,NA,NA,NA,NA,NA,NA,NA,NA,NA,NA
a6ad7,check continue,flow.Sequence,5_0_10,NA,NA,skipped,NA,812347,NA,NA,811998,812347,2023-03-19T17:10:16Z,812932.62,NULL,NA,NA,NA,NA,NA,NA,NA,df,NA,10,NA,NA,NA,NA,NA,NA,NA,NA,NA,NA,NA,NA,NA,NA,NA,NA,NA,NA,NA
a6ad7,check continue,flow.Sequence,5_0_11,NA,NA,skipped,NA,812379,NA,NA,811998,812379,2023-03-19T17:10:16Z,812932.62,NULL,NA,NA,NA,NA,NA,NA,NA,dfs,NA,11,NA,NA,NA,NA,NA,NA,NA,NA,NA,NA,NA,NA,NA,NA,NA,NA,NA,NA,NA
a6ad7,check continue,flow.Sequence,5_0_12,NA,NA,skipped,NA,812408,NA,NA,811998,812409,2023-03-19T17:10:16Z,812932.62,NULL,NA,NA,NA,NA,NA,NA,NA,dsf,NA,12,NA,NA,NA,NA,NA,NA,NA,NA,NA,NA,NA,NA,NA,NA,NA,NA,NA,NA,NA
a6ad7,check continue,flow.Sequence,5_0_13,NA,NA,skipped,NA,812441,NA,NA,811998,812441,2023-03-19T17:10:16Z,812932.62,NULL,NA,NA,NA,NA,NA,NA,NA,dsf,NA,13,NA,NA,NA,NA,NA,NA,NA,NA,NA,NA,NA,NA,NA,NA,NA,NA,NA,NA,NA
a6ad7,check continue,flow.Sequence,5_0_14,NA,NA,skipped,NA,812473,NA,NA,811998,812473,2023-03-19T17:10:16Z,812932.62,NULL,NA,NA,NA,NA,NA,NA,NA,NA,NA,14,NA,NA,NA,NA,NA,NA,NA,NA,NA,NA,NA,NA,NA,NA,NA,NA,NA,NA,NA
a6ad7,check continue,flow.Sequence,5_0_15,NA,NA,skipped,NA,812505,NA,NA,811998,812505,2023-03-19T17:10:16Z,812932.62,NULL,NA,NA,NA,NA,NA,NA,NA,NA,NA,15,NA,NA,NA,NA,NA,NA,NA,NA,NA,NA,NA,NA,NA,NA,NA,NA,NA,NA,NA
a6ad7,check continue,flow.Sequence,5_0_16,NA,NA,skipped,NA,812535,NA,NA,811998,812535,2023-03-19T17:10:16Z,812932.62,NULL,NA,NA,NA,NA,NA,NA,NA,NA,NA,16,NA,NA,NA,NA,NA,NA,NA,NA,NA,NA,NA,NA,NA,NA,NA,NA,NA,NA,NA
a6ad7,check continue,flow.Sequence,5_0_17,NA,NA,skipped,NA,812564,NA,NA,811998,812564,2023-03-19T17:10:16Z,812932.62,NULL,NA,NA,NA,NA,NA,NA,NA,NA,NA,17,NA,NA,NA,NA,NA,NA,NA,NA,NA,NA,NA,NA,NA,NA,NA,NA,NA,NA,NA
a6ad7,check continue,flow.Sequence,5_0_18,NA,NA,skipped,NA,812598,NA,NA,811998,812599,2023-03-19T17:10:16Z,812932.62,NULL,NA,NA,NA,NA,NA,NA,NA,NA,NA,18,NA,NA,NA,NA,NA,NA,NA,NA,NA,NA,NA,NA,NA,NA,NA,NA,NA,NA,NA
a6ad7,check continue,flow.Sequence,5_0_19,NA,NA,skipped,NA,812628,NA,NA,811998,812628,2023-03-19T17:10:16Z,812932.62,NULL,NA,NA,NA,NA,NA,NA,NA,NA,NA,19,NA,NA,NA,NA,NA,NA,NA,NA,NA,NA,NA,NA,NA,NA,NA,NA,NA,NA,NA
a6ad7,check continue,flow.Sequence,5_0_20,NA,NA,skipped,NA,812661,NA,NA,811998,812661,2023-03-19T17:10:17Z,812932.62,NULL,NA,NA,NA,NA,NA,NA,NA,NA,NA,20,NA,NA,NA,NA,NA,NA,NA,NA,NA,NA,NA,NA,NA,NA,NA,NA,NA,NA,NA
a6ad7,check continue,flow.Sequence,5_0_21,NA,NA,skipped,NA,812691,NA,NA,811998,812691,2023-03-19T17:10:17Z,812932.62,NULL,NA,NA,NA,NA,NA,NA,NA,NA,NA,21,NA,NA,NA,NA,NA,NA,NA,NA,NA,NA,NA,NA,NA,NA,NA,NA,NA,NA,NA
a6ad7,check continue,flow.Sequence,5_0_22,NA,NA,skipped,NA,812719,NA,NA,811998,812720,2023-03-19T17:10:17Z,812932.62,NULL,NA,NA,NA,NA,NA,NA,NA,NA,NA,22,NA,NA,NA,NA,NA,NA,NA,NA,NA,NA,NA,NA,NA,NA,NA,NA,NA,NA,NA
a6ad7,check continue,flow.Sequence,5_0_23,NA,NA,skipped,NA,812752,NA,NA,811998,812753,2023-03-19T17:10:17Z,812932.62,NULL,NA,NA,NA,NA,NA,NA,NA,NA,NA,23,NA,NA,NA,NA,NA,NA,NA,NA,NA,NA,NA,NA,NA,NA,NA,NA,NA,NA,NA
a6ad7,check continue,flow.Sequence,5_0_24,NA,NA,skipped,NA,812782,NA,NA,811998,812782,2023-03-19T17:10:17Z,812932.62,NULL,NA,NA,NA,NA,NA,NA,NA,NA,NA,24,NA,NA,NA,NA,NA,NA,NA,NA,NA,NA,NA,NA,NA,NA,NA,NA,NA,NA,NA
a6ad7,check continue,flow.Sequence,5_0_25,NA,NA,skipped,NA,812814,NA,NA,811998,812814,2023-03-19T17:10:17Z,812932.62,NULL,NA,NA,NA,NA,NA,NA,NA,NA,NA,25,NA,NA,NA,NA,NA,NA,NA,NA,NA,NA,NA,NA,NA,NA,NA,NA,NA,NA,NA
a6ad7,check continue,flow.Sequence,5_0_26,NA,NA,skipped,NA,812843,NA,NA,811998,812843,2023-03-19T17:10:17Z,812932.62,NULL,NA,NA,NA,NA,NA,NA,NA,NA,NA,26,NA,NA,NA,NA,NA,NA,NA,NA,NA,NA,NA,NA,NA,NA,NA,NA,NA,NA,NA
