observation,sender,sender_type,sender_id,response,response_action,ended_on,duration,time_run,time_render,time_show,time_end,time_commit,timestamp,time_switch,german,swahili,enc,distractor1,distractor2,distractor3,response_2,x,correct,distractors,url_vp,url_sess,meta_labjs_version,meta_location,meta_user_agent,meta_platform,meta_language,meta_locale,meta_time_zone,meta_timezone_offset,meta_screen_width,meta_screen_height,meta_scroll_width,meta_scroll_height,meta_window_inner_width,meta_window_inner_height,meta_device_pixel_ratio,meta_labjs_build_flavor,meta_labjs_build_commit
dd49f,Introduction delayed retrieval,canvas.Screen,0,weiter,keypress(Space),response,6822.2099999523,2065.8999999762,2078.806,2112.09,8934.2999999523,8938.6999999285,2023-12-04T21:57:56Z,8939.856,NA,NA,NA,NA,NA,NA,NA,NA,NA,NULL,191,4,20.2.4,https://neurocog.fernuni.ch/studies/vweber/sliechti/delayed/index.html?vp=191&sess=4,"Mozilla/5.0 (Windows NT 10.0; Win64; x64) AppleWebKit/537.36 (KHTML, like Gecko) Chrome/119.0.0.0 Safari/537.36 Edg/119.0.0.0",Win32,de,de-CH,Europe/Zurich,-60,1280,720,1272,564,1272,564,1.5,production,f5b4a49f956347addd546a832a3327688c2c0fef
dd49f,Deep Question,html.Page,1_0_0_0,NA,NA,form submission,26386.244000024,8939.1999999285,8922.975,8939.856,35326.100000024,35327.799999952,2023-12-04T21:58:22Z,35334.863,Prüfung,mtihani,s,mkulima,mtizamo,ufumbuzi,a,NA,NA,NULL,NA,NA,NA,NA,NA,NA,NA,NA,NA,NA,NA,NA,NA,NA,NA,NA,NA,NA,NA
dd49f,Save data screen,canvas.Screen,1_0_0_1,NA,NA,timeout,499.502,35330.699999928,35318.147,35334.863,35817.722,35819,2023-12-04T21:58:23Z,35834.365,Prüfung,mtihani,s,mkulima,mtizamo,ufumbuzi,NA,NA,0,NULL,NA,NA,NA,NA,NA,NA,NA,NA,NA,NA,NA,NA,NA,NA,NA,NA,NA,NA,NA
dd49f,deep,flow.Sequence,1_0_0,NA,NA,completion,26877.866,8939.1999999285,8922.975,8939.856,35817.722,35819.5,2023-12-04T21:58:23Z,35834.365,Prüfung,mtihani,s,mkulima,mtizamo,ufumbuzi,NA,NA,NA,NULL,NA,NA,NA,NA,NA,NA,NA,NA,NA,NA,NA,NA,NA,NA,NA,NA,NA,NA,NA
dd49f,task,flow.Sequence,1_0,NA,NA,completion,26877.866,8939.1999999285,8922.975,8939.856,35817.722,35819.699999928,2023-12-04T21:58:23Z,35834.365,Prüfung,mtihani,s,mkulima,mtizamo,ufumbuzi,NA,NA,NA,NULL,NA,NA,NA,NA,NA,NA,NA,NA,NA,NA,NA,NA,NA,NA,NA,NA,NA,NA,NA
dd49f,Deep Question,html.Page,1_1_0_0,NA,NA,form submission,5428.5349999762,35820.100000024,35817.722,35834.365,41262.899999976,41263.899999976,2023-12-04T21:58:28Z,41263.263,Kreativität,ubunifu,s,mratibu,mwendelezo,makubaliano,a,NA,NA,NULL,NA,NA,NA,NA,NA,NA,NA,NA,NA,NA,NA,NA,NA,NA,NA,NA,NA,NA,NA
dd49f,Save data screen,canvas.Screen,1_1_0_1,NA,NA,timeout,499.58,41266.100000024,41246.844,41263.263,41746.212,41747.199999928,2023-12-04T21:58:29Z,41762.843,Kreativität,ubunifu,s,mratibu,mwendelezo,makubaliano,NA,NA,0,NULL,NA,NA,NA,NA,NA,NA,NA,NA,NA,NA,NA,NA,NA,NA,NA,NA,NA,NA,NA
dd49f,deep,flow.Sequence,1_1_0,NA,NA,completion,5911.847,35819.899999976,35817.722,35834.365,41746.212,41747.600000024,2023-12-04T21:58:29Z,41762.843,Kreativität,ubunifu,s,mratibu,mwendelezo,makubaliano,NA,NA,NA,NULL,NA,NA,NA,NA,NA,NA,NA,NA,NA,NA,NA,NA,NA,NA,NA,NA,NA,NA,NA
dd49f,task,flow.Sequence,1_1,NA,NA,completion,5911.847,35819.899999976,35817.722,35834.365,41746.212,41747.899999976,2023-12-04T21:58:29Z,41762.843,Kreativität,ubunifu,s,mratibu,mwendelezo,makubaliano,NA,NA,NA,NULL,NA,NA,NA,NA,NA,NA,NA,NA,NA,NA,NA,NA,NA,NA,NA,NA,NA,NA,NA
dd49f,Deep Question,html.Page,1_2_0_0,NA,NA,form submission,8085.157,41748.399999976,41746.212,41762.843,49848,49849.299999952,2023-12-04T21:58:37Z,49856.198,Verzögerung,kuchelewa,d,mwakilishi,mwanauchumi,jaribio,a,NA,NA,NULL,NA,NA,NA,NA,NA,NA,NA,NA,NA,NA,NA,NA,NA,NA,NA,NA,NA,NA,NA
dd49f,Save data screen,canvas.Screen,1_2_0_1,NA,NA,timeout,499.57900000001,49851.100000024,49839.514,49856.198,50339.169,50340.5,2023-12-04T21:58:37Z,50355.777,Verzögerung,kuchelewa,d,mwakilishi,mwanauchumi,jaribio,NA,NA,0,NULL,NA,NA,NA,NA,NA,NA,NA,NA,NA,NA,NA,NA,NA,NA,NA,NA,NA,NA,NA
dd49f,deep,flow.Sequence,1_2_0,NA,NA,completion,8576.326,41748.299999952,41746.212,41762.843,50339.169,50340.899999976,2023-12-04T21:58:37Z,50355.777,Verzögerung,kuchelewa,d,mwakilishi,mwanauchumi,jaribio,NA,NA,NA,NULL,NA,NA,NA,NA,NA,NA,NA,NA,NA,NA,NA,NA,NA,NA,NA,NA,NA,NA,NA
dd49f,task,flow.Sequence,1_2,NA,NA,completion,8576.326,41748.199999928,41746.212,41762.843,50339.169,50341.199999928,2023-12-04T21:58:37Z,50355.777,Verzögerung,kuchelewa,d,mwakilishi,mwanauchumi,jaribio,NA,NA,NA,NULL,NA,NA,NA,NA,NA,NA,NA,NA,NA,NA,NA,NA,NA,NA,NA,NA,NA,NA,NA
dd49f,Deep Question,html.Page,1_3_0_0,NA,NA,form submission,3396.6229999762,50341.399999976,50339.169,50355.777,53752.399999976,53753.5,2023-12-04T21:58:41Z,53752.94,Können,unaweza,s,kiongozi,bustani,mienendo,a,NA,NA,NULL,NA,NA,NA,NA,NA,NA,NA,NA,NA,NA,NA,NA,NA,NA,NA,NA,NA,NA,NA
dd49f,Save data screen,canvas.Screen,1_3_0_1,NA,NA,timeout,499.673,53755.399999976,53736.366,53752.94,54235.919,54236.899999976,2023-12-04T21:58:41Z,54252.613,Können,unaweza,s,kiongozi,bustani,mienendo,NA,NA,0,NULL,NA,NA,NA,NA,NA,NA,NA,NA,NA,NA,NA,NA,NA,NA,NA,NA,NA,NA,NA
dd49f,deep,flow.Sequence,1_3_0,NA,NA,completion,3880.142,50341.399999976,50339.169,50355.777,54235.919,54237.299999952,2023-12-04T21:58:41Z,54252.613,Können,unaweza,s,kiongozi,bustani,mienendo,NA,NA,NA,NULL,NA,NA,NA,NA,NA,NA,NA,NA,NA,NA,NA,NA,NA,NA,NA,NA,NA,NA,NA
dd49f,task,flow.Sequence,1_3,NA,NA,completion,3880.142,50341.299999952,50339.169,50355.777,54235.919,54237.600000024,2023-12-04T21:58:41Z,54252.613,Können,unaweza,s,kiongozi,bustani,mienendo,NA,NA,NA,NULL,NA,NA,NA,NA,NA,NA,NA,NA,NA,NA,NA,NA,NA,NA,NA,NA,NA,NA,NA
dd49f,Deep Question,html.Page,1_4_0_0,NA,NA,form submission,17122.186999952,54237.899999976,54235.919,54252.613,71374.799999952,71375.799999952,2023-12-04T21:58:58Z,71405.152,Sänger,mwimbaji,s,msichana,shughuli,mshirika,makele,NA,NA,NULL,NA,NA,NA,NA,NA,NA,NA,NA,NA,NA,NA,NA,NA,NA,NA,NA,NA,NA,NA
dd49f,Save data screen,canvas.Screen,1_4_0_1,NA,NA,timeout,499.643,71381.899999976,71371.845,71405.152,71888.108,71889,2023-12-04T21:58:59Z,71904.795,Sänger,mwimbaji,s,msichana,shughuli,mshirika,NA,NA,0,NULL,NA,NA,NA,NA,NA,NA,NA,NA,NA,NA,NA,NA,NA,NA,NA,NA,NA,NA,NA
dd49f,deep,flow.Sequence,1_4_0,NA,NA,completion,17635.495,54237.799999952,54235.919,54252.613,71888.108,71889.399999976,2023-12-04T21:58:59Z,71904.795,Sänger,mwimbaji,s,msichana,shughuli,mshirika,NA,NA,NA,NULL,NA,NA,NA,NA,NA,NA,NA,NA,NA,NA,NA,NA,NA,NA,NA,NA,NA,NA,NA
dd49f,task,flow.Sequence,1_4,NA,NA,completion,17635.495,54237.799999952,54235.919,54252.613,71888.108,71889.600000024,2023-12-04T21:58:59Z,71904.795,Sänger,mwimbaji,s,msichana,shughuli,mshirika,NA,NA,NA,NULL,NA,NA,NA,NA,NA,NA,NA,NA,NA,NA,NA,NA,NA,NA,NA,NA,NA,NA,NA
dd49f,Deep Question,html.Page,1_5_0_0,NA,NA,form submission,222414.00499995,71889.799999952,71888.108,71904.795,294318.79999995,294320.29999995,2023-12-04T22:02:41Z,294321.873,Kanzler,diwani,d,rasilmali,mahitaji,maabudu,divino,NA,NA,NULL,NA,NA,NA,NA,NA,NA,NA,NA,NA,NA,NA,NA,NA,NA,NA,NA,NA,NA,NA
dd49f,Save data screen,canvas.Screen,1_5_0_1,NA,NA,timeout,499.71399999998,294325.29999995,294305.221,294321.873,294804.81,294805.79999995,2023-12-04T22:02:42Z,294821.587,Kanzler,diwani,d,rasilmali,mahitaji,maabudu,NA,NA,0,NULL,NA,NA,NA,NA,NA,NA,NA,NA,NA,NA,NA,NA,NA,NA,NA,NA,NA,NA,NA
dd49f,deep,flow.Sequence,1_5_0,NA,NA,completion,222900.015,71889.799999952,71888.108,71904.795,294804.81,294806.10000002,2023-12-04T22:02:42Z,294821.587,Kanzler,diwani,d,rasilmali,mahitaji,maabudu,NA,NA,NA,NULL,NA,NA,NA,NA,NA,NA,NA,NA,NA,NA,NA,NA,NA,NA,NA,NA,NA,NA,NA
dd49f,task,flow.Sequence,1_5,NA,NA,completion,222900.015,71889.699999928,71888.108,71904.795,294804.81,294806.29999995,2023-12-04T22:02:42Z,294821.587,Kanzler,diwani,d,rasilmali,mahitaji,maabudu,NA,NA,NA,NULL,NA,NA,NA,NA,NA,NA,NA,NA,NA,NA,NA,NA,NA,NA,NA,NA,NA,NA,NA
dd49f,Deep Question,html.Page,1_6_0_0,NA,NA,form submission,29068.413,294806.60000002,294804.81,294821.587,323890,323891,2023-12-04T22:03:11Z,323897.546,Körper,kiwiliwili,d,mapambano,mpatanishi,kiolezo,mkele,NA,NA,NULL,NA,NA,NA,NA,NA,NA,NA,NA,NA,NA,NA,NA,NA,NA,NA,NA,NA,NA,NA
dd49f,Save data screen,canvas.Screen,1_6_0_1,NA,NA,timeout,499.56900000002,323896.5,323880.871,323897.546,324380.506,324381.79999995,2023-12-04T22:03:11Z,324397.115,Körper,kiwiliwili,d,mapambano,mpatanishi,kiolezo,NA,NA,0,NULL,NA,NA,NA,NA,NA,NA,NA,NA,NA,NA,NA,NA,NA,NA,NA,NA,NA,NA,NA
dd49f,deep,flow.Sequence,1_6_0,NA,NA,completion,29558.919,294806.5,294804.81,294821.587,324380.506,324382.10000002,2023-12-04T22:03:11Z,324397.115,Körper,kiwiliwili,d,mapambano,mpatanishi,kiolezo,NA,NA,NA,NULL,NA,NA,NA,NA,NA,NA,NA,NA,NA,NA,NA,NA,NA,NA,NA,NA,NA,NA,NA
dd49f,task,flow.Sequence,1_6,NA,NA,completion,29558.919,294806.39999998,294804.81,294821.587,324380.506,324382.39999998,2023-12-04T22:03:11Z,324397.115,Körper,kiwiliwili,d,mapambano,mpatanishi,kiolezo,NA,NA,NA,NULL,NA,NA,NA,NA,NA,NA,NA,NA,NA,NA,NA,NA,NA,NA,NA,NA,NA,NA,NA
dd49f,Deep Question,html.Page,1_7_0_0,NA,NA,form submission,86118.485000024,324382.5,324380.506,324397.115,410515.60000002,410516.60000002,2023-12-04T22:04:38Z,410526.33,Abrechnung,uhasibu,d,kusahihisha,mpambano,mashambulizi,nyuseza,NA,NA,NULL,NA,NA,NA,NA,NA,NA,NA,NA,NA,NA,NA,NA,NA,NA,NA,NA,NA,NA,NA
dd49f,Save data screen,canvas.Screen,1_7_0_1,NA,NA,timeout,499.53700000001,410521.60000002,410509.691,410526.33,411009.29,411010.39999998,2023-12-04T22:04:38Z,411025.867,Abrechnung,uhasibu,d,kusahihisha,mpambano,mashambulizi,NA,NA,0,NULL,NA,NA,NA,NA,NA,NA,NA,NA,NA,NA,NA,NA,NA,NA,NA,NA,NA,NA,NA
dd49f,deep,flow.Sequence,1_7_0,NA,NA,completion,86612.175,324382.5,324380.506,324397.115,411009.29,411010.69999993,2023-12-04T22:04:38Z,411025.867,Abrechnung,uhasibu,d,kusahihisha,mpambano,mashambulizi,NA,NA,NA,NULL,NA,NA,NA,NA,NA,NA,NA,NA,NA,NA,NA,NA,NA,NA,NA,NA,NA,NA,NA
dd49f,task,flow.Sequence,1_7,NA,NA,completion,86612.175,324382.5,324380.506,324397.115,411009.29,411010.89999998,2023-12-04T22:04:38Z,411025.867,Abrechnung,uhasibu,d,kusahihisha,mpambano,mashambulizi,NA,NA,NA,NULL,NA,NA,NA,NA,NA,NA,NA,NA,NA,NA,NA,NA,NA,NA,NA,NA,NA,NA,NA
dd49f,Deep Question,html.Page,1_8_0_0,NA,NA,form submission,9868.633,411011.10000002,411009.29,411025.867,420894.5,420895.29999995,2023-12-04T22:04:48Z,420901.115,Kultur,utamaduni,d,shetani,gerezani,mazingira,mbele,NA,NA,NULL,NA,NA,NA,NA,NA,NA,NA,NA,NA,NA,NA,NA,NA,NA,NA,NA,NA,NA,NA
dd49f,Save data screen,canvas.Screen,1_8_0_1,NA,NA,timeout,499.79000000004,420899.60000002,420884.475,420901.115,421384.091,421385.10000002,2023-12-04T22:04:48Z,421400.905,Kultur,utamaduni,d,shetani,gerezani,mazingira,NA,NA,0,NULL,NA,NA,NA,NA,NA,NA,NA,NA,NA,NA,NA,NA,NA,NA,NA,NA,NA,NA,NA
dd49f,deep,flow.Sequence,1_8_0,NA,NA,completion,10358.224,411011.10000002,411009.29,411025.867,421384.091,421385.5,2023-12-04T22:04:48Z,421400.905,Kultur,utamaduni,d,shetani,gerezani,mazingira,NA,NA,NA,NULL,NA,NA,NA,NA,NA,NA,NA,NA,NA,NA,NA,NA,NA,NA,NA,NA,NA,NA,NA
dd49f,task,flow.Sequence,1_8,NA,NA,completion,10358.224,411011.10000002,411009.29,411025.867,421384.091,421385.69999993,2023-12-04T22:04:48Z,421400.905,Kultur,utamaduni,d,shetani,gerezani,mazingira,NA,NA,NA,NULL,NA,NA,NA,NA,NA,NA,NA,NA,NA,NA,NA,NA,NA,NA,NA,NA,NA,NA,NA
dd49f,Deep Question,html.Page,1_9_0_0,NA,NA,form submission,90171.894999952,421386,421384.091,421400.905,511572.79999995,511573.69999993,2023-12-04T22:06:19Z,511576.594,Kontrolle,kudhibiti,d,mbinguni,kufunga,utegemezi,h,NA,NA,NULL,NA,NA,NA,NA,NA,NA,NA,NA,NA,NA,NA,NA,NA,NA,NA,NA,NA,NA,NA
dd49f,Save data screen,canvas.Screen,1_9_0_1,NA,NA,timeout,499.57000000001,511579.19999993,511559.89,511576.594,512059.613,512060.5,2023-12-04T22:06:19Z,512076.164,Kontrolle,kudhibiti,d,mbinguni,kufunga,utegemezi,NA,NA,0,NULL,NA,NA,NA,NA,NA,NA,NA,NA,NA,NA,NA,NA,NA,NA,NA,NA,NA,NA,NA
dd49f,deep,flow.Sequence,1_9_0,NA,NA,completion,90658.708,421385.89999998,421384.091,421400.905,512059.613,512060.79999995,2023-12-04T22:06:19Z,512076.164,Kontrolle,kudhibiti,d,mbinguni,kufunga,utegemezi,NA,NA,NA,NULL,NA,NA,NA,NA,NA,NA,NA,NA,NA,NA,NA,NA,NA,NA,NA,NA,NA,NA,NA
dd49f,task,flow.Sequence,1_9,NA,NA,completion,90658.708,421385.89999998,421384.091,421400.905,512059.613,512061.10000002,2023-12-04T22:06:19Z,512076.164,Kontrolle,kudhibiti,d,mbinguni,kufunga,utegemezi,NA,NA,NA,NULL,NA,NA,NA,NA,NA,NA,NA,NA,NA,NA,NA,NA,NA,NA,NA,NA,NA,NA,NA
dd49f,Deep Question,html.Page,1_10_0_0,NA,NA,form submission,15900.336,512061.5,512059.613,512076.164,527976.5,527977.19999993,2023-12-04T22:06:35Z,527979.769,Gefährdung,kuhatarisha,d,uchokozi,udhaifu,makorowezo,nyaseza,NA,NA,NULL,NA,NA,NA,NA,NA,NA,NA,NA,NA,NA,NA,NA,NA,NA,NA,NA,NA,NA,NA
dd49f,Save data screen,canvas.Screen,1_10_0_1,NA,NA,timeout,499.61400000006,527982.79999995,527963.1,527979.769,528462.733,528463.79999995,2023-12-04T22:06:35Z,528479.383,Gefährdung,kuhatarisha,d,uchokozi,udhaifu,makorowezo,NA,NA,0,NULL,NA,NA,NA,NA,NA,NA,NA,NA,NA,NA,NA,NA,NA,NA,NA,NA,NA,NA,NA
dd49f,deep,flow.Sequence,1_10_0,NA,NA,completion,16386.569,512061.39999998,512059.613,512076.164,528462.733,528464.10000002,2023-12-04T22:06:35Z,528479.383,Gefährdung,kuhatarisha,d,uchokozi,udhaifu,makorowezo,NA,NA,NA,NULL,NA,NA,NA,NA,NA,NA,NA,NA,NA,NA,NA,NA,NA,NA,NA,NA,NA,NA,NA
dd49f,task,flow.Sequence,1_10,NA,NA,completion,16386.569,512061.19999993,512059.613,512076.164,528462.733,528464.29999995,2023-12-04T22:06:35Z,528479.383,Gefährdung,kuhatarisha,d,uchokozi,udhaifu,makorowezo,NA,NA,NA,NULL,NA,NA,NA,NA,NA,NA,NA,NA,NA,NA,NA,NA,NA,NA,NA,NA,NA,NA,NA
dd49f,Deep Question,html.Page,1_11_0_0,NA,NA,form submission,4365.117,528464.5,528462.733,528479.383,532844.5,532845.19999993,2023-12-04T22:06:40Z,532859.069,Übersicht,kilindo,d,mgusano,chipukizi,kulinganisha,u,NA,NA,NULL,NA,NA,NA,NA,NA,NA,NA,NA,NA,NA,NA,NA,NA,NA,NA,NA,NA,NA,NA
dd49f,Save data screen,canvas.Screen,1_11_0_1,NA,NA,timeout,1032.431,532849.89999998,532842.412,532859.069,533901.29999995,533901.60000002,2023-12-04T22:06:41Z,533891.5,Übersicht,kilindo,d,mgusano,chipukizi,kulinganisha,NA,NA,0,NULL,NA,NA,NA,NA,NA,NA,NA,NA,NA,NA,NA,NA,NA,NA,NA,NA,NA,NA,NA
dd49f,deep,flow.Sequence,1_11_0,NA,NA,completion,5421.9169999523,528464.39999998,528462.733,528479.383,533901.29999995,533901.89999998,2023-12-04T22:06:41Z,533891.5,Übersicht,kilindo,d,mgusano,chipukizi,kulinganisha,NA,NA,NA,NULL,NA,NA,NA,NA,NA,NA,NA,NA,NA,NA,NA,NA,NA,NA,NA,NA,NA,NA,NA
dd49f,task,flow.Sequence,1_11,NA,NA,completion,5421.9169999523,528464.29999995,528462.733,528479.383,533901.29999995,533902.10000002,2023-12-04T22:06:41Z,533891.5,Übersicht,kilindo,d,mgusano,chipukizi,kulinganisha,NA,NA,NA,NULL,NA,NA,NA,NA,NA,NA,NA,NA,NA,NA,NA,NA,NA,NA,NA,NA,NA,NA,NA
dd49f,Deep Question,html.Page,1_12_0_0,NA,NA,form submission,17376.5,533902.39999998,533901.29999995,533891.5,551268,551268.79999995,2023-12-04T22:06:58Z,551277.234,Lawine,banguko,s,maambukizi,usuluhishi,chekechea,mbukau,NA,NA,NULL,NA,NA,NA,NA,NA,NA,NA,NA,NA,NA,NA,NA,NA,NA,NA,NA,NA,NA,NA
dd49f,Save data screen,canvas.Screen,1_12_0_1,NA,NA,timeout,499.598,551275.19999993,551260.632,551277.234,551760.254,551761.5,2023-12-04T22:06:59Z,551776.832,Lawine,banguko,s,maambukizi,usuluhishi,chekechea,NA,NA,0,NULL,NA,NA,NA,NA,NA,NA,NA,NA,NA,NA,NA,NA,NA,NA,NA,NA,NA,NA,NA
dd49f,deep,flow.Sequence,1_12_0,NA,NA,completion,17868.754,533902.29999995,533901.29999995,533891.5,551760.254,551762,2023-12-04T22:06:59Z,551776.832,Lawine,banguko,s,maambukizi,usuluhishi,chekechea,NA,NA,NA,NULL,NA,NA,NA,NA,NA,NA,NA,NA,NA,NA,NA,NA,NA,NA,NA,NA,NA,NA,NA
dd49f,task,flow.Sequence,1_12,NA,NA,completion,17868.754,533902.19999993,533901.29999995,533891.5,551760.254,551762.29999995,2023-12-04T22:06:59Z,551776.832,Lawine,banguko,s,maambukizi,usuluhishi,chekechea,NA,NA,NA,NULL,NA,NA,NA,NA,NA,NA,NA,NA,NA,NA,NA,NA,NA,NA,NA,NA,NA,NA,NA
dd49f,Deep Question,html.Page,1_13_0_0,NA,NA,form submission,22383.567999976,551762.69999993,551760.254,551776.832,574160.39999998,574161.39999998,2023-12-04T22:07:21Z,574175.812,Aufstand,ugomaji,s,mazidio,msingi,kujieleza,k,NA,NA,NULL,NA,NA,NA,NA,NA,NA,NA,NA,NA,NA,NA,NA,NA,NA,NA,NA,NA,NA,NA
dd49f,Save data screen,canvas.Screen,1_13_0_1,NA,NA,timeout,498.91799999995,574167.19999993,574141.793,574175.812,574658.016,574659.39999998,2023-12-04T22:07:22Z,574674.73,Aufstand,ugomaji,s,mazidio,msingi,kujieleza,NA,NA,0,NULL,NA,NA,NA,NA,NA,NA,NA,NA,NA,NA,NA,NA,NA,NA,NA,NA,NA,NA,NA
dd49f,deep,flow.Sequence,1_13_0,NA,NA,completion,22881.184,551762.60000002,551760.254,551776.832,574658.016,574659.79999995,2023-12-04T22:07:22Z,574674.73,Aufstand,ugomaji,s,mazidio,msingi,kujieleza,NA,NA,NA,NULL,NA,NA,NA,NA,NA,NA,NA,NA,NA,NA,NA,NA,NA,NA,NA,NA,NA,NA,NA
dd49f,task,flow.Sequence,1_13,NA,NA,completion,22881.184,551762.5,551760.254,551776.832,574658.016,574660.10000002,2023-12-04T22:07:22Z,574674.73,Aufstand,ugomaji,s,mazidio,msingi,kujieleza,NA,NA,NA,NULL,NA,NA,NA,NA,NA,NA,NA,NA,NA,NA,NA,NA,NA,NA,NA,NA,NA,NA,NA
dd49f,Deep Question,html.Page,1_14_0_0,NA,NA,form submission,24878.870000024,574660.29999995,574658.016,574674.73,599553.60000002,599554.39999998,2023-12-04T22:07:47Z,599554.222,Angreifer,mshambulizi,s,kitengo,tasinia,usafirishaji,o,NA,NA,NULL,NA,NA,NA,NA,NA,NA,NA,NA,NA,NA,NA,NA,NA,NA,NA,NA,NA,NA,NA
dd49f,Save data screen,canvas.Screen,1_14_0_1,NA,NA,timeout,499.679,599558.60000002,599537.593,599554.222,600037.222,600038.19999993,2023-12-04T22:07:47Z,600053.901,Angreifer,mshambulizi,s,kitengo,tasinia,usafirishaji,NA,NA,0,NULL,NA,NA,NA,NA,NA,NA,NA,NA,NA,NA,NA,NA,NA,NA,NA,NA,NA,NA,NA
dd49f,deep,flow.Sequence,1_14_0,NA,NA,completion,25362.492,574660.29999995,574658.016,574674.73,600037.222,600038.5,2023-12-04T22:07:47Z,600053.901,Angreifer,mshambulizi,s,kitengo,tasinia,usafirishaji,NA,NA,NA,NULL,NA,NA,NA,NA,NA,NA,NA,NA,NA,NA,NA,NA,NA,NA,NA,NA,NA,NA,NA
dd49f,task,flow.Sequence,1_14,NA,NA,completion,25362.492,574660.19999993,574658.016,574674.73,600037.222,600038.69999993,2023-12-04T22:07:47Z,600053.901,Angreifer,mshambulizi,s,kitengo,tasinia,usafirishaji,NA,NA,NA,NULL,NA,NA,NA,NA,NA,NA,NA,NA,NA,NA,NA,NA,NA,NA,NA,NA,NA,NA,NA
dd49f,Deep Question,html.Page,1_15_0_0,NA,NA,form submission,37684.798999929,600038.89999998,600037.222,600053.901,637738.69999993,637739.69999993,2023-12-04T22:08:25Z,637739.572,System,maongozi,s,chokochoko,nuksani,mitaani,mlounge,NA,NA,NULL,NA,NA,NA,NA,NA,NA,NA,NA,NA,NA,NA,NA,NA,NA,NA,NA,NA,NA,NA
dd49f,Save data screen,canvas.Screen,1_15_0_1,NA,NA,timeout,499.50899999996,637744.5,637722.862,637739.572,638222.468,638223.60000002,2023-12-04T22:08:25Z,638239.081,System,maongozi,s,chokochoko,nuksani,mitaani,NA,NA,0,NULL,NA,NA,NA,NA,NA,NA,NA,NA,NA,NA,NA,NA,NA,NA,NA,NA,NA,NA,NA
dd49f,deep,flow.Sequence,1_15_0,NA,NA,completion,38168.567,600038.79999995,600037.222,600053.901,638222.468,638223.89999998,2023-12-04T22:08:25Z,638239.081,System,maongozi,s,chokochoko,nuksani,mitaani,NA,NA,NA,NULL,NA,NA,NA,NA,NA,NA,NA,NA,NA,NA,NA,NA,NA,NA,NA,NA,NA,NA,NA
dd49f,task,flow.Sequence,1_15,NA,NA,completion,38168.567,600038.79999995,600037.222,600053.901,638222.468,638224,2023-12-04T22:08:25Z,638239.081,System,maongozi,s,chokochoko,nuksani,mitaani,NA,NA,NA,NULL,NA,NA,NA,NA,NA,NA,NA,NA,NA,NA,NA,NA,NA,NA,NA,NA,NA,NA,NA
dd49f,retrieval block 1 (cued recall),flow.Loop,1,NA,NA,completion,629282.612,8939.1000000238,8922.975,8939.856,638222.468,638224.29999995,2023-12-04T22:08:25Z,638239.081,NA,NA,NA,NA,NA,NA,NA,NA,NA,NULL,NA,NA,NA,NA,NA,NA,NA,NA,NA,NA,NA,NA,NA,NA,NA,NA,NA,NA,NA
dd49f,Shallow Question,html.Page,2_0_0_0,NA,NA,form submission,8195.7189999523,638224.60000002,638222.468,638239.081,646434.79999995,646435.60000002,2023-12-04T22:08:33Z,646450.035,Kanzler,diwani,d,rasilmali,mahitaji,maabudu,diwani,NA,NA,"c(""distractor1"", ""distractor2"", ""distractor3"")",NA,NA,NA,NA,NA,NA,NA,NA,NA,NA,NA,NA,NA,NA,NA,NA,NA,NA,NA
dd49f,Save data screen,canvas.Screen,2_0_0_1,NA,NA,timeout,498.59399999992,646438.89999998,646415.711,646450.035,646931.958,646933,2023-12-04T22:08:34Z,646948.629,Kanzler,diwani,d,rasilmali,mahitaji,maabudu,NA,NA,1,"c(""distractor1"", ""distractor2"", ""distractor3"")",NA,NA,NA,NA,NA,NA,NA,NA,NA,NA,NA,NA,NA,NA,NA,NA,NA,NA,NA
dd49f,shallow,flow.Sequence,2_0_0,NA,NA,completion,8692.877,638224.5,638222.468,638239.081,646931.958,646933.39999998,2023-12-04T22:08:34Z,646948.629,Kanzler,diwani,d,rasilmali,mahitaji,maabudu,NA,NA,NA,"c(""distractor1"", ""distractor2"", ""distractor3"")",NA,NA,NA,NA,NA,NA,NA,NA,NA,NA,NA,NA,NA,NA,NA,NA,NA,NA,NA
dd49f,task,flow.Sequence,2_0,NA,NA,completion,8692.877,638224.5,638222.468,638239.081,646931.958,646933.60000002,2023-12-04T22:08:34Z,646948.629,Kanzler,diwani,d,rasilmali,mahitaji,maabudu,NA,NA,NA,"c(""distractor1"", ""distractor2"", ""distractor3"")",NA,NA,NA,NA,NA,NA,NA,NA,NA,NA,NA,NA,NA,NA,NA,NA,NA,NA,NA
dd49f,Shallow Question,html.Page,2_1_0_0,NA,NA,form submission,8637.7709999762,646933.89999998,646931.958,646948.629,655586.39999998,655587.19999993,2023-12-04T22:08:43Z,655591.488,Können,unaweza,s,kiongozi,bustani,mienendo,unaweza,NA,NA,"c(""distractor1"", ""distractor2"", ""distractor3"")",NA,NA,NA,NA,NA,NA,NA,NA,NA,NA,NA,NA,NA,NA,NA,NA,NA,NA,NA
dd49f,Save data screen,canvas.Screen,2_1_0_1,NA,NA,timeout,499.55799999996,655591.60000002,655575.098,655591.488,656074.488,656075.69999993,2023-12-04T22:08:43Z,656091.046,Können,unaweza,s,kiongozi,bustani,mienendo,NA,NA,1,"c(""distractor1"", ""distractor2"", ""distractor3"")",NA,NA,NA,NA,NA,NA,NA,NA,NA,NA,NA,NA,NA,NA,NA,NA,NA,NA,NA
dd49f,shallow,flow.Sequence,2_1_0,NA,NA,completion,9125.8590000001,646933.79999995,646931.958,646948.629,656074.488,656076.29999995,2023-12-04T22:08:43Z,656091.046,Können,unaweza,s,kiongozi,bustani,mienendo,NA,NA,NA,"c(""distractor1"", ""distractor2"", ""distractor3"")",NA,NA,NA,NA,NA,NA,NA,NA,NA,NA,NA,NA,NA,NA,NA,NA,NA,NA,NA
dd49f,task,flow.Sequence,2_1,NA,NA,completion,9125.8590000001,646933.69999993,646931.958,646948.629,656074.488,656076.60000002,2023-12-04T22:08:43Z,656091.046,Können,unaweza,s,kiongozi,bustani,mienendo,NA,NA,NA,"c(""distractor1"", ""distractor2"", ""distractor3"")",NA,NA,NA,NA,NA,NA,NA,NA,NA,NA,NA,NA,NA,NA,NA,NA,NA,NA,NA
dd49f,Shallow Question,html.Page,2_2_0_0,NA,NA,form submission,10751.454,656076.79999995,656074.488,656091.046,666842.5,666843.19999993,2023-12-04T22:08:54Z,666865.579,System,maongozi,s,chokochoko,nuksani,mitaani,maongozi,NA,NA,"c(""distractor1"", ""distractor2"", ""distractor3"")",NA,NA,NA,NA,NA,NA,NA,NA,NA,NA,NA,NA,NA,NA,NA,NA,NA,NA,NA
dd49f,Save data screen,canvas.Screen,2_2_0_1,NA,NA,timeout,499.58699999994,666846.39999998,666848.937,666865.579,667348.496,667349.39999998,2023-12-04T22:08:54Z,667365.166,System,maongozi,s,chokochoko,nuksani,mitaani,NA,NA,1,"c(""distractor1"", ""distractor2"", ""distractor3"")",NA,NA,NA,NA,NA,NA,NA,NA,NA,NA,NA,NA,NA,NA,NA,NA,NA,NA,NA
dd49f,shallow,flow.Sequence,2_2_0,NA,NA,completion,11257.45,656076.79999995,656074.488,656091.046,667348.496,667350,2023-12-04T22:08:54Z,667365.166,System,maongozi,s,chokochoko,nuksani,mitaani,NA,NA,NA,"c(""distractor1"", ""distractor2"", ""distractor3"")",NA,NA,NA,NA,NA,NA,NA,NA,NA,NA,NA,NA,NA,NA,NA,NA,NA,NA,NA
dd49f,task,flow.Sequence,2_2,NA,NA,completion,11257.45,656076.79999995,656074.488,656091.046,667348.496,667350.29999995,2023-12-04T22:08:54Z,667365.166,System,maongozi,s,chokochoko,nuksani,mitaani,NA,NA,NA,"c(""distractor1"", ""distractor2"", ""distractor3"")",NA,NA,NA,NA,NA,NA,NA,NA,NA,NA,NA,NA,NA,NA,NA,NA,NA,NA,NA
dd49f,Shallow Question,html.Page,2_3_0_0,NA,NA,form submission,14655.033999929,667350.69999993,667348.496,667365.166,682020.19999993,682020.89999998,2023-12-04T22:09:09Z,682019.779,Sänger,mwimbaji,s,msichana,shughuli,mshirika,mwimbaji,NA,NA,"c(""distractor1"", ""distractor2"", ""distractor3"")",NA,NA,NA,NA,NA,NA,NA,NA,NA,NA,NA,NA,NA,NA,NA,NA,NA,NA,NA
dd49f,Save data screen,canvas.Screen,2_3_0_1,NA,NA,timeout,499.57200000004,682025.60000002,682003.143,682019.779,682502.69,682504.19999993,2023-12-04T22:09:09Z,682519.351,Sänger,mwimbaji,s,msichana,shughuli,mshirika,NA,NA,1,"c(""distractor1"", ""distractor2"", ""distractor3"")",NA,NA,NA,NA,NA,NA,NA,NA,NA,NA,NA,NA,NA,NA,NA,NA,NA,NA,NA
dd49f,shallow,flow.Sequence,2_3_0,NA,NA,completion,15137.524,667350.60000002,667348.496,667365.166,682502.69,682504.60000002,2023-12-04T22:09:09Z,682519.351,Sänger,mwimbaji,s,msichana,shughuli,mshirika,NA,NA,NA,"c(""distractor1"", ""distractor2"", ""distractor3"")",NA,NA,NA,NA,NA,NA,NA,NA,NA,NA,NA,NA,NA,NA,NA,NA,NA,NA,NA
dd49f,task,flow.Sequence,2_3,NA,NA,completion,15137.524,667350.5,667348.496,667365.166,682502.69,682504.89999998,2023-12-04T22:09:09Z,682519.351,Sänger,mwimbaji,s,msichana,shughuli,mshirika,NA,NA,NA,"c(""distractor1"", ""distractor2"", ""distractor3"")",NA,NA,NA,NA,NA,NA,NA,NA,NA,NA,NA,NA,NA,NA,NA,NA,NA,NA,NA
dd49f,Shallow Question,html.Page,2_4_0_0,NA,NA,form submission,5806.7490000238,682505.19999993,682502.69,682519.351,688326.10000002,688326.60000002,2023-12-04T22:09:15Z,688331.245,Körper,kiwiliwili,d,mapambano,mpatanishi,kiolezo,kiwiliwili,NA,NA,"c(""distractor1"", ""distractor2"", ""distractor3"")",NA,NA,NA,NA,NA,NA,NA,NA,NA,NA,NA,NA,NA,NA,NA,NA,NA,NA,NA
dd49f,Save data screen,canvas.Screen,2_4_0_1,NA,NA,timeout,499.61699999997,688330.5,688314.619,688331.245,688814.18,688815.5,2023-12-04T22:09:16Z,688830.862,Körper,kiwiliwili,d,mapambano,mpatanishi,kiolezo,NA,NA,1,"c(""distractor1"", ""distractor2"", ""distractor3"")",NA,NA,NA,NA,NA,NA,NA,NA,NA,NA,NA,NA,NA,NA,NA,NA,NA,NA,NA
dd49f,shallow,flow.Sequence,2_4_0,NA,NA,completion,6294.829,682505.10000002,682502.69,682519.351,688814.18,688815.89999998,2023-12-04T22:09:16Z,688830.862,Körper,kiwiliwili,d,mapambano,mpatanishi,kiolezo,NA,NA,NA,"c(""distractor1"", ""distractor2"", ""distractor3"")",NA,NA,NA,NA,NA,NA,NA,NA,NA,NA,NA,NA,NA,NA,NA,NA,NA,NA,NA
dd49f,task,flow.Sequence,2_4,NA,NA,completion,6294.829,682505,682502.69,682519.351,688814.18,688816.19999993,2023-12-04T22:09:16Z,688830.862,Körper,kiwiliwili,d,mapambano,mpatanishi,kiolezo,NA,NA,NA,"c(""distractor1"", ""distractor2"", ""distractor3"")",NA,NA,NA,NA,NA,NA,NA,NA,NA,NA,NA,NA,NA,NA,NA,NA,NA,NA,NA
dd49f,Shallow Question,html.Page,2_5_0_0,NA,NA,form submission,10530.638,688816.39999998,688814.18,688830.862,699361.5,699362.39999998,2023-12-04T22:09:26Z,699372.149,Kultur,utamaduni,d,shetani,gerezani,mazingira,utamaduni,NA,NA,"c(""distractor1"", ""distractor2"", ""distractor3"")",NA,NA,NA,NA,NA,NA,NA,NA,NA,NA,NA,NA,NA,NA,NA,NA,NA,NA,NA
dd49f,Save data screen,canvas.Screen,2_5_0_1,NA,NA,timeout,499.65000000002,699368.29999995,699355.595,699372.149,699855.072,699856.29999995,2023-12-04T22:09:27Z,699871.799,Kultur,utamaduni,d,shetani,gerezani,mazingira,NA,NA,1,"c(""distractor1"", ""distractor2"", ""distractor3"")",NA,NA,NA,NA,NA,NA,NA,NA,NA,NA,NA,NA,NA,NA,NA,NA,NA,NA,NA
dd49f,shallow,flow.Sequence,2_5_0,NA,NA,completion,11024.21,688816.39999998,688814.18,688830.862,699855.072,699856.69999993,2023-12-04T22:09:27Z,699871.799,Kultur,utamaduni,d,shetani,gerezani,mazingira,NA,NA,NA,"c(""distractor1"", ""distractor2"", ""distractor3"")",NA,NA,NA,NA,NA,NA,NA,NA,NA,NA,NA,NA,NA,NA,NA,NA,NA,NA,NA
dd49f,task,flow.Sequence,2_5,NA,NA,completion,11024.21,688816.29999995,688814.18,688830.862,699855.072,699856.79999995,2023-12-04T22:09:27Z,699871.799,Kultur,utamaduni,d,shetani,gerezani,mazingira,NA,NA,NA,"c(""distractor1"", ""distractor2"", ""distractor3"")",NA,NA,NA,NA,NA,NA,NA,NA,NA,NA,NA,NA,NA,NA,NA,NA,NA,NA,NA
dd49f,Shallow Question,html.Page,2_6_0_0,NA,NA,form submission,17169.801000024,699857.10000002,699855.072,699871.799,717041.60000002,717042.19999993,2023-12-04T22:09:44Z,717040.959,Angreifer,mshambulizi,s,kitengo,tasinia,usafirishaji,mshambulizi,NA,NA,"c(""distractor1"", ""distractor2"", ""distractor3"")",NA,NA,NA,NA,NA,NA,NA,NA,NA,NA,NA,NA,NA,NA,NA,NA,NA,NA,NA
dd49f,Save data screen,canvas.Screen,2_6_0_1,NA,NA,timeout,499.68400000001,717046.39999998,717024.367,717040.959,717523.962,717525.10000002,2023-12-04T22:09:45Z,717540.643,Angreifer,mshambulizi,s,kitengo,tasinia,usafirishaji,NA,NA,1,"c(""distractor1"", ""distractor2"", ""distractor3"")",NA,NA,NA,NA,NA,NA,NA,NA,NA,NA,NA,NA,NA,NA,NA,NA,NA,NA,NA
dd49f,shallow,flow.Sequence,2_6_0,NA,NA,completion,17652.163,699857,699855.072,699871.799,717523.962,717525.39999998,2023-12-04T22:09:45Z,717540.643,Angreifer,mshambulizi,s,kitengo,tasinia,usafirishaji,NA,NA,NA,"c(""distractor1"", ""distractor2"", ""distractor3"")",NA,NA,NA,NA,NA,NA,NA,NA,NA,NA,NA,NA,NA,NA,NA,NA,NA,NA,NA
dd49f,task,flow.Sequence,2_6,NA,NA,completion,17652.163,699857,699855.072,699871.799,717523.962,717525.60000002,2023-12-04T22:09:45Z,717540.643,Angreifer,mshambulizi,s,kitengo,tasinia,usafirishaji,NA,NA,NA,"c(""distractor1"", ""distractor2"", ""distractor3"")",NA,NA,NA,NA,NA,NA,NA,NA,NA,NA,NA,NA,NA,NA,NA,NA,NA,NA,NA
dd49f,Shallow Question,html.Page,2_7_0_0,NA,NA,form submission,12478.357,717525.79999995,717523.962,717540.643,730019,730019.69999993,2023-12-04T22:09:57Z,730030.313,Übersicht,kilindo,d,mgusano,chipukizi,kulinganisha,kulinganisha,NA,NA,"c(""distractor1"", ""distractor2"", ""distractor3"")",NA,NA,NA,NA,NA,NA,NA,NA,NA,NA,NA,NA,NA,NA,NA,NA,NA,NA,NA
dd49f,Save data screen,canvas.Screen,2_7_0_1,NA,NA,timeout,499.58000000007,730025.5,730013.687,730030.313,730513.203,730515.39999998,2023-12-04T22:09:58Z,730529.893,Übersicht,kilindo,d,mgusano,chipukizi,kulinganisha,NA,NA,0,"c(""distractor1"", ""distractor2"", ""distractor3"")",NA,NA,NA,NA,NA,NA,NA,NA,NA,NA,NA,NA,NA,NA,NA,NA,NA,NA,NA
dd49f,shallow,flow.Sequence,2_7_0,NA,NA,completion,12972.56,717525.79999995,717523.962,717540.643,730513.203,730515.69999993,2023-12-04T22:09:58Z,730529.893,Übersicht,kilindo,d,mgusano,chipukizi,kulinganisha,NA,NA,NA,"c(""distractor1"", ""distractor2"", ""distractor3"")",NA,NA,NA,NA,NA,NA,NA,NA,NA,NA,NA,NA,NA,NA,NA,NA,NA,NA,NA
dd49f,task,flow.Sequence,2_7,NA,NA,completion,12972.56,717525.79999995,717523.962,717540.643,730513.203,730516,2023-12-04T22:09:58Z,730529.893,Übersicht,kilindo,d,mgusano,chipukizi,kulinganisha,NA,NA,NA,"c(""distractor1"", ""distractor2"", ""distractor3"")",NA,NA,NA,NA,NA,NA,NA,NA,NA,NA,NA,NA,NA,NA,NA,NA,NA,NA,NA
dd49f,Shallow Question,html.Page,2_8_0_0,NA,NA,form submission,7945.3069999284,730516.19999993,730513.203,730529.893,738475.19999993,738475.89999998,2023-12-04T22:10:05Z,738490.038,Gefährdung,kuhatarisha,d,uchokozi,udhaifu,makorowezo,kuhatarisha,NA,NA,"c(""distractor1"", ""distractor2"", ""distractor3"")",NA,NA,NA,NA,NA,NA,NA,NA,NA,NA,NA,NA,NA,NA,NA,NA,NA,NA,NA
dd49f,Save data screen,canvas.Screen,2_8_0_1,NA,NA,timeout,499.5290000001,738479.69999993,738473.355,738490.038,738972.907,738974,2023-12-04T22:10:06Z,738989.567,Gefährdung,kuhatarisha,d,uchokozi,udhaifu,makorowezo,NA,NA,1,"c(""distractor1"", ""distractor2"", ""distractor3"")",NA,NA,NA,NA,NA,NA,NA,NA,NA,NA,NA,NA,NA,NA,NA,NA,NA,NA,NA
dd49f,shallow,flow.Sequence,2_8_0,NA,NA,completion,8443.014,730516.19999993,730513.203,730529.893,738972.907,738974.19999993,2023-12-04T22:10:06Z,738989.567,Gefährdung,kuhatarisha,d,uchokozi,udhaifu,makorowezo,NA,NA,NA,"c(""distractor1"", ""distractor2"", ""distractor3"")",NA,NA,NA,NA,NA,NA,NA,NA,NA,NA,NA,NA,NA,NA,NA,NA,NA,NA,NA
dd49f,task,flow.Sequence,2_8,NA,NA,completion,8443.014,730516.10000002,730513.203,730529.893,738972.907,738974.5,2023-12-04T22:10:06Z,738989.567,Gefährdung,kuhatarisha,d,uchokozi,udhaifu,makorowezo,NA,NA,NA,"c(""distractor1"", ""distractor2"", ""distractor3"")",NA,NA,NA,NA,NA,NA,NA,NA,NA,NA,NA,NA,NA,NA,NA,NA,NA,NA,NA
dd49f,Shallow Question,html.Page,2_9_0_0,NA,NA,form submission,13313.232999952,738974.79999995,738972.907,738989.567,752302.79999995,752303.79999995,2023-12-04T22:10:19Z,752312.006,Aufstand,ugomaji,s,mazidio,msingi,kujieleza,ugomaji,NA,NA,"c(""distractor1"", ""distractor2"", ""distractor3"")",NA,NA,NA,NA,NA,NA,NA,NA,NA,NA,NA,NA,NA,NA,NA,NA,NA,NA,NA
dd49f,Save data screen,canvas.Screen,2_9_0_1,NA,NA,timeout,499.54999999993,752308.60000002,752295.371,752312.006,752794.888,752796.19999993,2023-12-04T22:10:20Z,752811.556,Aufstand,ugomaji,s,mazidio,msingi,kujieleza,NA,NA,1,"c(""distractor1"", ""distractor2"", ""distractor3"")",NA,NA,NA,NA,NA,NA,NA,NA,NA,NA,NA,NA,NA,NA,NA,NA,NA,NA,NA
dd49f,shallow,flow.Sequence,2_9_0,NA,NA,completion,13805.321,738974.69999993,738972.907,738989.567,752794.888,752796.60000002,2023-12-04T22:10:20Z,752811.556,Aufstand,ugomaji,s,mazidio,msingi,kujieleza,NA,NA,NA,"c(""distractor1"", ""distractor2"", ""distractor3"")",NA,NA,NA,NA,NA,NA,NA,NA,NA,NA,NA,NA,NA,NA,NA,NA,NA,NA,NA
dd49f,task,flow.Sequence,2_9,NA,NA,completion,13805.321,738974.60000002,738972.907,738989.567,752794.888,752796.89999998,2023-12-04T22:10:20Z,752811.556,Aufstand,ugomaji,s,mazidio,msingi,kujieleza,NA,NA,NA,"c(""distractor1"", ""distractor2"", ""distractor3"")",NA,NA,NA,NA,NA,NA,NA,NA,NA,NA,NA,NA,NA,NA,NA,NA,NA,NA,NA
dd49f,Shallow Question,html.Page,2_10_0_0,NA,NA,form submission,9449.2439999523,752797.29999995,752794.888,752811.556,762260.79999995,762261.39999998,2023-12-04T22:10:29Z,762270.46,Verzögerung,kuchelewa,d,mwakilishi,mwanauchumi,jaribio,kuchelewa,NA,NA,"c(""distractor1"", ""distractor2"", ""distractor3"")",NA,NA,NA,NA,NA,NA,NA,NA,NA,NA,NA,NA,NA,NA,NA,NA,NA,NA,NA
dd49f,Save data screen,canvas.Screen,2_10_0_1,NA,NA,timeout,499.60000000009,762265.29999995,762253.78,762270.46,762753.417,762755.10000002,2023-12-04T22:10:30Z,762770.06,Verzögerung,kuchelewa,d,mwakilishi,mwanauchumi,jaribio,NA,NA,1,"c(""distractor1"", ""distractor2"", ""distractor3"")",NA,NA,NA,NA,NA,NA,NA,NA,NA,NA,NA,NA,NA,NA,NA,NA,NA,NA,NA
dd49f,shallow,flow.Sequence,2_10_0,NA,NA,completion,9941.861,752797.19999993,752794.888,752811.556,762753.417,762755.5,2023-12-04T22:10:30Z,762770.06,Verzögerung,kuchelewa,d,mwakilishi,mwanauchumi,jaribio,NA,NA,NA,"c(""distractor1"", ""distractor2"", ""distractor3"")",NA,NA,NA,NA,NA,NA,NA,NA,NA,NA,NA,NA,NA,NA,NA,NA,NA,NA,NA
dd49f,task,flow.Sequence,2_10,NA,NA,completion,9941.861,752797.19999993,752794.888,752811.556,762753.417,762755.69999993,2023-12-04T22:10:30Z,762770.06,Verzögerung,kuchelewa,d,mwakilishi,mwanauchumi,jaribio,NA,NA,NA,"c(""distractor1"", ""distractor2"", ""distractor3"")",NA,NA,NA,NA,NA,NA,NA,NA,NA,NA,NA,NA,NA,NA,NA,NA,NA,NA,NA
dd49f,Shallow Question,html.Page,2_11_0_0,NA,NA,form submission,5958.0400000238,762756,762753.417,762770.06,768728.10000002,768728.69999993,2023-12-04T22:10:36Z,768731.843,Lawine,banguko,s,maambukizi,usuluhishi,chekechea,banguko,NA,NA,"c(""distractor1"", ""distractor2"", ""distractor3"")",NA,NA,NA,NA,NA,NA,NA,NA,NA,NA,NA,NA,NA,NA,NA,NA,NA,NA,NA
dd49f,Save data screen,canvas.Screen,2_11_0_1,NA,NA,timeout,499.55799999996,768733.10000002,768715.175,768731.843,769214.699,769215.69999993,2023-12-04T22:10:36Z,769231.401,Lawine,banguko,s,maambukizi,usuluhishi,chekechea,NA,NA,1,"c(""distractor1"", ""distractor2"", ""distractor3"")",NA,NA,NA,NA,NA,NA,NA,NA,NA,NA,NA,NA,NA,NA,NA,NA,NA,NA,NA
dd49f,shallow,flow.Sequence,2_11_0,NA,NA,completion,6444.639,762755.89999998,762753.417,762770.06,769214.699,769216,2023-12-04T22:10:36Z,769231.401,Lawine,banguko,s,maambukizi,usuluhishi,chekechea,NA,NA,NA,"c(""distractor1"", ""distractor2"", ""distractor3"")",NA,NA,NA,NA,NA,NA,NA,NA,NA,NA,NA,NA,NA,NA,NA,NA,NA,NA,NA
dd49f,task,flow.Sequence,2_11,NA,NA,completion,6444.639,762755.79999995,762753.417,762770.06,769214.699,769216.29999995,2023-12-04T22:10:36Z,769231.401,Lawine,banguko,s,maambukizi,usuluhishi,chekechea,NA,NA,NA,"c(""distractor1"", ""distractor2"", ""distractor3"")",NA,NA,NA,NA,NA,NA,NA,NA,NA,NA,NA,NA,NA,NA,NA,NA,NA,NA,NA
dd49f,Shallow Question,html.Page,2_12_0_0,NA,NA,form submission,8926.8989999524,769216.5,769214.699,769231.401,778158.29999995,778159,2023-12-04T22:10:45Z,778175.267,Kreativität,ubunifu,s,mratibu,mwendelezo,makubaliano,ubunifu,NA,NA,"c(""distractor1"", ""distractor2"", ""distractor3"")",NA,NA,NA,NA,NA,NA,NA,NA,NA,NA,NA,NA,NA,NA,NA,NA,NA,NA,NA
dd49f,Save data screen,canvas.Screen,2_12_0_1,NA,NA,timeout,498.53800000006,778163,778140.745,778175.267,778656.974,778658,2023-12-04T22:10:46Z,778673.805,Kreativität,ubunifu,s,mratibu,mwendelezo,makubaliano,NA,NA,1,"c(""distractor1"", ""distractor2"", ""distractor3"")",NA,NA,NA,NA,NA,NA,NA,NA,NA,NA,NA,NA,NA,NA,NA,NA,NA,NA,NA
dd49f,shallow,flow.Sequence,2_12_0,NA,NA,completion,9425.5730000001,769216.5,769214.699,769231.401,778656.974,778658.39999998,2023-12-04T22:10:46Z,778673.805,Kreativität,ubunifu,s,mratibu,mwendelezo,makubaliano,NA,NA,NA,"c(""distractor1"", ""distractor2"", ""distractor3"")",NA,NA,NA,NA,NA,NA,NA,NA,NA,NA,NA,NA,NA,NA,NA,NA,NA,NA,NA
dd49f,task,flow.Sequence,2_12,NA,NA,completion,9425.5730000001,769216.39999998,769214.699,769231.401,778656.974,778658.5,2023-12-04T22:10:46Z,778673.805,Kreativität,ubunifu,s,mratibu,mwendelezo,makubaliano,NA,NA,NA,"c(""distractor1"", ""distractor2"", ""distractor3"")",NA,NA,NA,NA,NA,NA,NA,NA,NA,NA,NA,NA,NA,NA,NA,NA,NA,NA,NA
dd49f,Shallow Question,html.Page,2_13_0_0,NA,NA,form submission,7260.5949999761,778658.79999995,778656.974,778673.805,785934.39999998,785935.19999993,2023-12-04T22:10:53Z,785934.361,Prüfung,mtihani,s,mkulima,mtizamo,ufumbuzi,mtihani,NA,NA,"c(""distractor1"", ""distractor2"", ""distractor3"")",NA,NA,NA,NA,NA,NA,NA,NA,NA,NA,NA,NA,NA,NA,NA,NA,NA,NA,NA
dd49f,Save data screen,canvas.Screen,2_13_0_1,NA,NA,timeout,499.61699999997,785939.60000002,785917.706,785934.361,786417.248,786418.39999998,2023-12-04T22:10:53Z,786433.978,Prüfung,mtihani,s,mkulima,mtizamo,ufumbuzi,NA,NA,1,"c(""distractor1"", ""distractor2"", ""distractor3"")",NA,NA,NA,NA,NA,NA,NA,NA,NA,NA,NA,NA,NA,NA,NA,NA,NA,NA,NA
dd49f,shallow,flow.Sequence,2_13_0,NA,NA,completion,7743.443,778658.79999995,778656.974,778673.805,786417.248,786418.60000002,2023-12-04T22:10:53Z,786433.978,Prüfung,mtihani,s,mkulima,mtizamo,ufumbuzi,NA,NA,NA,"c(""distractor1"", ""distractor2"", ""distractor3"")",NA,NA,NA,NA,NA,NA,NA,NA,NA,NA,NA,NA,NA,NA,NA,NA,NA,NA,NA
dd49f,task,flow.Sequence,2_13,NA,NA,completion,7743.443,778658.69999993,778656.974,778673.805,786417.248,786418.89999998,2023-12-04T22:10:53Z,786433.978,Prüfung,mtihani,s,mkulima,mtizamo,ufumbuzi,NA,NA,NA,"c(""distractor1"", ""distractor2"", ""distractor3"")",NA,NA,NA,NA,NA,NA,NA,NA,NA,NA,NA,NA,NA,NA,NA,NA,NA,NA,NA
dd49f,Shallow Question,html.Page,2_14_0_0,NA,NA,form submission,7948.6220000238,786419.10000002,786417.248,786433.978,794382.60000002,794383.5,2023-12-04T22:11:01Z,794394.047,Abrechnung,uhasibu,d,kusahihisha,mpambano,mashambulizi,uhasibu,NA,NA,"c(""distractor1"", ""distractor2"", ""distractor3"")",NA,NA,NA,NA,NA,NA,NA,NA,NA,NA,NA,NA,NA,NA,NA,NA,NA,NA,NA
dd49f,Save data screen,canvas.Screen,2_14_0_1,NA,NA,timeout,499.576,794389.60000002,794377.344,794394.047,794877.097,794878.5,2023-12-04T22:11:02Z,794893.623,Abrechnung,uhasibu,d,kusahihisha,mpambano,mashambulizi,NA,NA,1,"c(""distractor1"", ""distractor2"", ""distractor3"")",NA,NA,NA,NA,NA,NA,NA,NA,NA,NA,NA,NA,NA,NA,NA,NA,NA,NA,NA
dd49f,shallow,flow.Sequence,2_14_0,NA,NA,completion,8443.1189999999,786419,786417.248,786433.978,794877.097,794878.69999993,2023-12-04T22:11:02Z,794893.623,Abrechnung,uhasibu,d,kusahihisha,mpambano,mashambulizi,NA,NA,NA,"c(""distractor1"", ""distractor2"", ""distractor3"")",NA,NA,NA,NA,NA,NA,NA,NA,NA,NA,NA,NA,NA,NA,NA,NA,NA,NA,NA
dd49f,task,flow.Sequence,2_14,NA,NA,completion,8443.1189999999,786419,786417.248,786433.978,794877.097,794879,2023-12-04T22:11:02Z,794893.623,Abrechnung,uhasibu,d,kusahihisha,mpambano,mashambulizi,NA,NA,NA,"c(""distractor1"", ""distractor2"", ""distractor3"")",NA,NA,NA,NA,NA,NA,NA,NA,NA,NA,NA,NA,NA,NA,NA,NA,NA,NA,NA
dd49f,Shallow Question,html.Page,2_15_0_0,NA,NA,form submission,14757.076999928,794879.19999993,794877.097,794893.623,809650.69999993,809651.60000002,2023-12-04T22:11:17Z,809664.828,Kontrolle,kudhibiti,d,mbinguni,kufunga,utegemezi,kudhibiti,NA,NA,"c(""distractor1"", ""distractor2"", ""distractor3"")",NA,NA,NA,NA,NA,NA,NA,NA,NA,NA,NA,NA,NA,NA,NA,NA,NA,NA,NA
dd49f,Save data screen,canvas.Screen,2_15_0_1,NA,NA,timeout,499.67599999998,809656.29999995,809648.143,809664.828,810147.744,810148.69999993,2023-12-04T22:11:17Z,810164.504,Kontrolle,kudhibiti,d,mbinguni,kufunga,utegemezi,NA,NA,1,"c(""distractor1"", ""distractor2"", ""distractor3"")",NA,NA,NA,NA,NA,NA,NA,NA,NA,NA,NA,NA,NA,NA,NA,NA,NA,NA,NA
dd49f,shallow,flow.Sequence,2_15_0,NA,NA,completion,15254.121,794879.10000002,794877.097,794893.623,810147.744,810149.5,2023-12-04T22:11:17Z,810164.504,Kontrolle,kudhibiti,d,mbinguni,kufunga,utegemezi,NA,NA,NA,"c(""distractor1"", ""distractor2"", ""distractor3"")",NA,NA,NA,NA,NA,NA,NA,NA,NA,NA,NA,NA,NA,NA,NA,NA,NA,NA,NA
dd49f,task,flow.Sequence,2_15,NA,NA,completion,15254.121,794879.10000002,794877.097,794893.623,810147.744,810150.89999998,2023-12-04T22:11:17Z,810164.504,Kontrolle,kudhibiti,d,mbinguni,kufunga,utegemezi,NA,NA,NA,"c(""distractor1"", ""distractor2"", ""distractor3"")",NA,NA,NA,NA,NA,NA,NA,NA,NA,NA,NA,NA,NA,NA,NA,NA,NA,NA,NA
dd49f,retrieval block 2 (multiple choice),flow.Loop,2,NA,NA,completion,171908.663,638224.39999998,638222.468,638239.081,810147.744,810151.79999995,2023-12-04T22:11:17Z,810164.504,NA,NA,NA,NA,NA,NA,NA,NA,NA,"c(""distractor1"", ""distractor2"", ""distractor3"")",NA,NA,NA,NA,NA,NA,NA,NA,NA,NA,NA,NA,NA,NA,NA,NA,NA,NA,NA
dd49f,End,canvas.Screen,3,NA,keypress(Space),response,1717.1959999285,810152,810147.744,810164.504,811881.69999993,811883,2023-12-04T22:11:19Z,811896.347,NA,NA,NA,NA,NA,NA,NA,NA,NA,NULL,NA,NA,NA,NA,NA,NA,NA,NA,NA,NA,NA,NA,NA,NA,NA,NA,NA,NA,NA
dd49f,root,flow.Sequence,NA,NA,NA,completion,809769.60999993,2065.5,2078.806,2112.09,811881.69999993,811883.5,2023-12-04T22:11:19Z,811896.347,NA,NA,NA,NA,NA,NA,NA,NA,NA,NULL,NA,NA,NA,NA,NA,NA,NA,NA,NA,NA,NA,NA,NA,NA,NA,NA,NA,NA,NA
