observation,sender,sender_type,sender_id,response,response_action,ended_on,duration,time_run,time_render,time_show,time_end,time_commit,timestamp,time_switch,german,swahili,enc,distractor1,distractor2,distractor3,response_2,x,correct,distractors,url_vp,url_sess,meta_labjs_version,meta_location,meta_user_agent,meta_platform,meta_language,meta_locale,meta_time_zone,meta_timezone_offset,meta_screen_width,meta_screen_height,meta_scroll_width,meta_scroll_height,meta_window_inner_width,meta_window_inner_height,meta_device_pixel_ratio,meta_labjs_build_flavor,meta_labjs_build_commit
73928,Introduction delayed retrieval,canvas.Screen,0,weiter,keypress(Space),response,2021,347,352,420,2373,2425,2023-05-16T16:03:36Z,2458,NA,NA,NA,NA,NA,NA,NA,NA,NA,NULL,210,4,20.2.4,https://neurocog.fernuni.ch/studies/vweber/sfink/delayed/index.html?vp=210&sess=4,"Mozilla/5.0 (Macintosh; Intel Mac OS X 10_15_7) AppleWebKit/605.1.15 (KHTML, like Gecko) Version/14.1.2 Safari/605.1.15",MacIntel,de-de,de-DE,Europe/Zurich,-120,1440,900,1440,683,1440,731,2,production,f5b4a49f956347addd546a832a3327688c2c0fef
73928,Deep Question,html.Page,1_0_0_0,NA,NA,form submission,20294,2426,2446,2458,22752,22753,2023-05-16T16:03:56Z,22769,Atmosphäre,angahewa,d,kuteseka,usahihi,kutoamini,kilango,NA,NA,NULL,NA,NA,NA,NA,NA,NA,NA,NA,NA,NA,NA,NA,NA,NA,NA,NA,NA,NA,NA
73928,Save data screen,canvas.Screen,1_0_0_1,NA,NA,timeout,507,22754,22755,22769,23259,23259,2023-05-16T16:03:57Z,23276,Atmosphäre,angahewa,d,kuteseka,usahihi,kutoamini,NA,NA,0,NULL,NA,NA,NA,NA,NA,NA,NA,NA,NA,NA,NA,NA,NA,NA,NA,NA,NA,NA,NA
73928,deep,flow.Sequence,1_0_0,NA,NA,completion,20801,2426,2446,2458,23259,23260,2023-05-16T16:03:57Z,23276,Atmosphäre,angahewa,d,kuteseka,usahihi,kutoamini,NA,NA,NA,NULL,NA,NA,NA,NA,NA,NA,NA,NA,NA,NA,NA,NA,NA,NA,NA,NA,NA,NA,NA
73928,task,flow.Sequence,1_0,NA,NA,completion,20801,2426,2446,2458,23259,23260,2023-05-16T16:03:57Z,23276,Atmosphäre,angahewa,d,kuteseka,usahihi,kutoamini,NA,NA,NA,NULL,NA,NA,NA,NA,NA,NA,NA,NA,NA,NA,NA,NA,NA,NA,NA,NA,NA,NA,NA
73928,Deep Question,html.Page,1_1_0_0,NA,NA,form submission,13459,23260,23259,23276,36735,36735,2023-05-16T16:04:10Z,36760,Genehmigung,idhini,d,mwanamke,itikadi,fedheha,kiwiliwili,NA,NA,NULL,NA,NA,NA,NA,NA,NA,NA,NA,NA,NA,NA,NA,NA,NA,NA,NA,NA,NA,NA
73928,Save data screen,canvas.Screen,1_1_0_1,NA,NA,timeout,500,36735,36736,36760,37242,37243,2023-05-16T16:04:11Z,37260,Genehmigung,idhini,d,mwanamke,itikadi,fedheha,NA,NA,0,NULL,NA,NA,NA,NA,NA,NA,NA,NA,NA,NA,NA,NA,NA,NA,NA,NA,NA,NA,NA
73928,deep,flow.Sequence,1_1_0,NA,NA,completion,13966,23260,23259,23276,37242,37243,2023-05-16T16:04:11Z,37260,Genehmigung,idhini,d,mwanamke,itikadi,fedheha,NA,NA,NA,NULL,NA,NA,NA,NA,NA,NA,NA,NA,NA,NA,NA,NA,NA,NA,NA,NA,NA,NA,NA
73928,task,flow.Sequence,1_1,NA,NA,completion,13966,23260,23259,23276,37242,37243,2023-05-16T16:04:11Z,37260,Genehmigung,idhini,d,mwanamke,itikadi,fedheha,NA,NA,NA,NULL,NA,NA,NA,NA,NA,NA,NA,NA,NA,NA,NA,NA,NA,NA,NA,NA,NA,NA,NA
73928,Deep Question,html.Page,1_2_0_0,NA,NA,form submission,4666,37244,37242,37260,41926,41926,2023-05-16T16:04:16Z,41943,Niveau,kiwango,s,usimamizi,mwamali,mshairi,mbduae,NA,NA,NULL,NA,NA,NA,NA,NA,NA,NA,NA,NA,NA,NA,NA,NA,NA,NA,NA,NA,NA,NA
73928,Save data screen,canvas.Screen,1_2_0_1,NA,NA,timeout,500,41927,41932,41943,42427,42430,2023-05-16T16:04:16Z,42443,Niveau,kiwango,s,usimamizi,mwamali,mshairi,NA,NA,0,NULL,NA,NA,NA,NA,NA,NA,NA,NA,NA,NA,NA,NA,NA,NA,NA,NA,NA,NA,NA
73928,deep,flow.Sequence,1_2_0,NA,NA,completion,5167,37244,37242,37260,42427,42431,2023-05-16T16:04:16Z,42443,Niveau,kiwango,s,usimamizi,mwamali,mshairi,NA,NA,NA,NULL,NA,NA,NA,NA,NA,NA,NA,NA,NA,NA,NA,NA,NA,NA,NA,NA,NA,NA,NA
73928,task,flow.Sequence,1_2,NA,NA,completion,5167,37243,37242,37260,42427,42431,2023-05-16T16:04:16Z,42443,Niveau,kiwango,s,usimamizi,mwamali,mshairi,NA,NA,NA,NULL,NA,NA,NA,NA,NA,NA,NA,NA,NA,NA,NA,NA,NA,NA,NA,NA,NA,NA,NA
73928,Deep Question,html.Page,1_3_0_0,NA,NA,form submission,13425,42431,42427,42443,55868,55869,2023-05-16T16:04:30Z,55884,Entwicklung,maendeleo,d,uangavu,mshindwa,badiliko,kinyongo,NA,NA,NULL,NA,NA,NA,NA,NA,NA,NA,NA,NA,NA,NA,NA,NA,NA,NA,NA,NA,NA,NA
73928,Save data screen,canvas.Screen,1_3_0_1,NA,NA,timeout,492,55870,55871,55884,56360,56362,2023-05-16T16:04:30Z,56376,Entwicklung,maendeleo,d,uangavu,mshindwa,badiliko,NA,NA,0,NULL,NA,NA,NA,NA,NA,NA,NA,NA,NA,NA,NA,NA,NA,NA,NA,NA,NA,NA,NA
73928,deep,flow.Sequence,1_3_0,NA,NA,completion,13917,42431,42427,42443,56360,56362,2023-05-16T16:04:30Z,56376,Entwicklung,maendeleo,d,uangavu,mshindwa,badiliko,NA,NA,NA,NULL,NA,NA,NA,NA,NA,NA,NA,NA,NA,NA,NA,NA,NA,NA,NA,NA,NA,NA,NA
73928,task,flow.Sequence,1_3,NA,NA,completion,13917,42431,42427,42443,56360,56363,2023-05-16T16:04:30Z,56376,Entwicklung,maendeleo,d,uangavu,mshindwa,badiliko,NA,NA,NA,NULL,NA,NA,NA,NA,NA,NA,NA,NA,NA,NA,NA,NA,NA,NA,NA,NA,NA,NA,NA
73928,Deep Question,html.Page,1_4_0_0,NA,NA,form submission,13992,56363,56360,56376,70368,70368,2023-05-16T16:04:44Z,70377,Vorwurf,mashtaka,d,msukumo,mtangulizi,uenyekiti,usahi,NA,NA,NULL,NA,NA,NA,NA,NA,NA,NA,NA,NA,NA,NA,NA,NA,NA,NA,NA,NA,NA,NA
73928,Save data screen,canvas.Screen,1_4_0_1,NA,NA,timeout,501,70369,70373,70377,70861,70862,2023-05-16T16:04:45Z,70878,Vorwurf,mashtaka,d,msukumo,mtangulizi,uenyekiti,NA,NA,0,NULL,NA,NA,NA,NA,NA,NA,NA,NA,NA,NA,NA,NA,NA,NA,NA,NA,NA,NA,NA
73928,deep,flow.Sequence,1_4_0,NA,NA,completion,14485,56363,56360,56376,70861,70863,2023-05-16T16:04:45Z,70878,Vorwurf,mashtaka,d,msukumo,mtangulizi,uenyekiti,NA,NA,NA,NULL,NA,NA,NA,NA,NA,NA,NA,NA,NA,NA,NA,NA,NA,NA,NA,NA,NA,NA,NA
73928,task,flow.Sequence,1_4,NA,NA,completion,14485,56363,56360,56376,70861,70863,2023-05-16T16:04:45Z,70878,Vorwurf,mashtaka,d,msukumo,mtangulizi,uenyekiti,NA,NA,NA,NULL,NA,NA,NA,NA,NA,NA,NA,NA,NA,NA,NA,NA,NA,NA,NA,NA,NA,NA,NA
73928,Deep Question,html.Page,1_5_0_0,NA,NA,form submission,22102,70864,70861,70878,92980,92980,2023-05-16T16:05:07Z,92995,Integrität,uadilifu,s,muungano,mtiririko,upunguaji,wasata,NA,NA,NULL,NA,NA,NA,NA,NA,NA,NA,NA,NA,NA,NA,NA,NA,NA,NA,NA,NA,NA,NA
73928,Save data screen,canvas.Screen,1_5_0_1,NA,NA,timeout,500,92982,92983,92995,93479,93480,2023-05-16T16:05:07Z,93495,Integrität,uadilifu,s,muungano,mtiririko,upunguaji,NA,NA,0,NULL,NA,NA,NA,NA,NA,NA,NA,NA,NA,NA,NA,NA,NA,NA,NA,NA,NA,NA,NA
73928,deep,flow.Sequence,1_5_0,NA,NA,completion,22601,70864,70861,70878,93479,93481,2023-05-16T16:05:07Z,93495,Integrität,uadilifu,s,muungano,mtiririko,upunguaji,NA,NA,NA,NULL,NA,NA,NA,NA,NA,NA,NA,NA,NA,NA,NA,NA,NA,NA,NA,NA,NA,NA,NA
73928,task,flow.Sequence,1_5,NA,NA,completion,22601,70863,70861,70878,93479,93481,2023-05-16T16:05:07Z,93495,Integrität,uadilifu,s,muungano,mtiririko,upunguaji,NA,NA,NA,NULL,NA,NA,NA,NA,NA,NA,NA,NA,NA,NA,NA,NA,NA,NA,NA,NA,NA,NA,NA
73928,Deep Question,html.Page,1_6_0_0,NA,NA,form submission,5365,93481,93479,93495,98860,98860,2023-05-16T16:05:13Z,98885,Erneuerung,ukarabati,s,ushawishi,ukalifu,unyonyaji,keine ahnung,NA,NA,NULL,NA,NA,NA,NA,NA,NA,NA,NA,NA,NA,NA,NA,NA,NA,NA,NA,NA,NA,NA
73928,Save data screen,canvas.Screen,1_6_0_1,NA,NA,timeout,494,98860,98875,98885,99362,99364,2023-05-16T16:05:13Z,99379,Erneuerung,ukarabati,s,ushawishi,ukalifu,unyonyaji,NA,NA,0,NULL,NA,NA,NA,NA,NA,NA,NA,NA,NA,NA,NA,NA,NA,NA,NA,NA,NA,NA,NA
73928,deep,flow.Sequence,1_6_0,NA,NA,completion,5867,93481,93479,93495,99362,99365,2023-05-16T16:05:13Z,99379,Erneuerung,ukarabati,s,ushawishi,ukalifu,unyonyaji,NA,NA,NA,NULL,NA,NA,NA,NA,NA,NA,NA,NA,NA,NA,NA,NA,NA,NA,NA,NA,NA,NA,NA
73928,task,flow.Sequence,1_6,NA,NA,completion,5867,93481,93479,93495,99362,99365,2023-05-16T16:05:13Z,99379,Erneuerung,ukarabati,s,ushawishi,ukalifu,unyonyaji,NA,NA,NA,NULL,NA,NA,NA,NA,NA,NA,NA,NA,NA,NA,NA,NA,NA,NA,NA,NA,NA,NA,NA
73928,Deep Question,html.Page,1_7_0_0,NA,NA,form submission,38170,99365,99362,99379,137549,137550,2023-05-16T16:05:51Z,137564,Betrüger,mdanganyifu,d,mwanamuziki,wastani,mahakama,NA,NA,NA,NULL,NA,NA,NA,NA,NA,NA,NA,NA,NA,NA,NA,NA,NA,NA,NA,NA,NA,NA,NA
73928,Save data screen,canvas.Screen,1_7_0_1,NA,NA,timeout,500,137551,137552,137564,138047,138049,2023-05-16T16:05:52Z,138064,Betrüger,mdanganyifu,d,mwanamuziki,wastani,mahakama,NA,NA,0,NULL,NA,NA,NA,NA,NA,NA,NA,NA,NA,NA,NA,NA,NA,NA,NA,NA,NA,NA,NA
73928,deep,flow.Sequence,1_7_0,NA,NA,completion,38668,99365,99362,99379,138047,138049,2023-05-16T16:05:52Z,138064,Betrüger,mdanganyifu,d,mwanamuziki,wastani,mahakama,NA,NA,NA,NULL,NA,NA,NA,NA,NA,NA,NA,NA,NA,NA,NA,NA,NA,NA,NA,NA,NA,NA,NA
73928,task,flow.Sequence,1_7,NA,NA,completion,38668,99365,99362,99379,138047,138050,2023-05-16T16:05:52Z,138064,Betrüger,mdanganyifu,d,mwanamuziki,wastani,mahakama,NA,NA,NA,NULL,NA,NA,NA,NA,NA,NA,NA,NA,NA,NA,NA,NA,NA,NA,NA,NA,NA,NA,NA
73928,Deep Question,html.Page,1_8_0_0,NA,NA,form submission,6898,138050,138047,138064,144962,144962,2023-05-16T16:05:59Z,144980,Fleisch,mshakiki,s,kizunguzungu,mshikamano,angusho,mstuku,NA,NA,NULL,NA,NA,NA,NA,NA,NA,NA,NA,NA,NA,NA,NA,NA,NA,NA,NA,NA,NA,NA
73928,Save data screen,canvas.Screen,1_8_0_1,NA,NA,timeout,501,144963,144965,144980,145464,145465,2023-05-16T16:05:59Z,145481,Fleisch,mshakiki,s,kizunguzungu,mshikamano,angusho,NA,NA,0,NULL,NA,NA,NA,NA,NA,NA,NA,NA,NA,NA,NA,NA,NA,NA,NA,NA,NA,NA,NA
73928,deep,flow.Sequence,1_8_0,NA,NA,completion,7400,138050,138047,138064,145464,145465,2023-05-16T16:05:59Z,145481,Fleisch,mshakiki,s,kizunguzungu,mshikamano,angusho,NA,NA,NA,NULL,NA,NA,NA,NA,NA,NA,NA,NA,NA,NA,NA,NA,NA,NA,NA,NA,NA,NA,NA
73928,task,flow.Sequence,1_8,NA,NA,completion,7400,138050,138047,138064,145464,145466,2023-05-16T16:05:59Z,145481,Fleisch,mshakiki,s,kizunguzungu,mshikamano,angusho,NA,NA,NA,NULL,NA,NA,NA,NA,NA,NA,NA,NA,NA,NA,NA,NA,NA,NA,NA,NA,NA,NA,NA
73928,Deep Question,html.Page,1_9_0_0,NA,NA,form submission,4239,145466,145464,145481,149720,149721,2023-05-16T16:06:03Z,149731,Flexibilität,kubadilika,d,enjini,usikilivu,hesabu,NA,NA,NA,NULL,NA,NA,NA,NA,NA,NA,NA,NA,NA,NA,NA,NA,NA,NA,NA,NA,NA,NA,NA
73928,Save data screen,canvas.Screen,1_9_0_1,NA,NA,timeout,500,149723,149727,149731,150214,150216,2023-05-16T16:06:04Z,150231,Flexibilität,kubadilika,d,enjini,usikilivu,hesabu,NA,NA,0,NULL,NA,NA,NA,NA,NA,NA,NA,NA,NA,NA,NA,NA,NA,NA,NA,NA,NA,NA,NA
73928,deep,flow.Sequence,1_9_0,NA,NA,completion,4733,145466,145464,145481,150214,150216,2023-05-16T16:06:04Z,150231,Flexibilität,kubadilika,d,enjini,usikilivu,hesabu,NA,NA,NA,NULL,NA,NA,NA,NA,NA,NA,NA,NA,NA,NA,NA,NA,NA,NA,NA,NA,NA,NA,NA
73928,task,flow.Sequence,1_9,NA,NA,completion,4733,145466,145464,145481,150214,150217,2023-05-16T16:06:04Z,150231,Flexibilität,kubadilika,d,enjini,usikilivu,hesabu,NA,NA,NA,NULL,NA,NA,NA,NA,NA,NA,NA,NA,NA,NA,NA,NA,NA,NA,NA,NA,NA,NA,NA
73928,Deep Question,html.Page,1_10_0_0,NA,NA,form submission,53492,150217,150214,150231,203723,203724,2023-05-16T16:06:57Z,203749,Stimmung,kinyongo,d,kilekile,kisambo,madhehebu,ushtaba,NA,NA,NULL,NA,NA,NA,NA,NA,NA,NA,NA,NA,NA,NA,NA,NA,NA,NA,NA,NA,NA,NA
73928,Save data screen,canvas.Screen,1_10_0_1,NA,NA,timeout,501,203725,203726,203749,204233,204235,2023-05-16T16:06:58Z,204250,Stimmung,kinyongo,d,kilekile,kisambo,madhehebu,NA,NA,0,NULL,NA,NA,NA,NA,NA,NA,NA,NA,NA,NA,NA,NA,NA,NA,NA,NA,NA,NA,NA
73928,deep,flow.Sequence,1_10_0,NA,NA,completion,54002,150217,150214,150231,204233,204236,2023-05-16T16:06:58Z,204250,Stimmung,kinyongo,d,kilekile,kisambo,madhehebu,NA,NA,NA,NULL,NA,NA,NA,NA,NA,NA,NA,NA,NA,NA,NA,NA,NA,NA,NA,NA,NA,NA,NA
73928,task,flow.Sequence,1_10,NA,NA,completion,54002,150217,150214,150231,204233,204236,2023-05-16T16:06:58Z,204250,Stimmung,kinyongo,d,kilekile,kisambo,madhehebu,NA,NA,NA,NULL,NA,NA,NA,NA,NA,NA,NA,NA,NA,NA,NA,NA,NA,NA,NA,NA,NA,NA,NA
73928,Deep Question,html.Page,1_11_0_0,NA,NA,form submission,8248,204236,204233,204250,212498,212498,2023-05-16T16:07:06Z,212514,Orientierung,urekebisho,s,uelekeo,marekebisho,utunzaji,kyongo,NA,NA,NULL,NA,NA,NA,NA,NA,NA,NA,NA,NA,NA,NA,NA,NA,NA,NA,NA,NA,NA,NA
73928,Save data screen,canvas.Screen,1_11_0_1,NA,NA,timeout,503,212498,212505,212514,213000,213002,2023-05-16T16:07:07Z,213017,Orientierung,urekebisho,s,uelekeo,marekebisho,utunzaji,NA,NA,0,NULL,NA,NA,NA,NA,NA,NA,NA,NA,NA,NA,NA,NA,NA,NA,NA,NA,NA,NA,NA
73928,deep,flow.Sequence,1_11_0,NA,NA,completion,8750,204236,204233,204250,213000,213003,2023-05-16T16:07:07Z,213017,Orientierung,urekebisho,s,uelekeo,marekebisho,utunzaji,NA,NA,NA,NULL,NA,NA,NA,NA,NA,NA,NA,NA,NA,NA,NA,NA,NA,NA,NA,NA,NA,NA,NA
73928,task,flow.Sequence,1_11,NA,NA,completion,8750,204236,204233,204250,213000,213004,2023-05-16T16:07:07Z,213017,Orientierung,urekebisho,s,uelekeo,marekebisho,utunzaji,NA,NA,NA,NULL,NA,NA,NA,NA,NA,NA,NA,NA,NA,NA,NA,NA,NA,NA,NA,NA,NA,NA,NA
73928,Deep Question,html.Page,1_12_0_0,NA,NA,form submission,14948,213004,213000,213017,227965,227965,2023-05-16T16:07:22Z,227979,Wechsel,ugeuzaji,s,utambulisho,kujenga,wasiwasi,naewazu,NA,NA,NULL,NA,NA,NA,NA,NA,NA,NA,NA,NA,NA,NA,NA,NA,NA,NA,NA,NA,NA,NA
73928,Save data screen,canvas.Screen,1_12_0_1,NA,NA,timeout,505,227965,227966,227979,228468,228470,2023-05-16T16:07:22Z,228484,Wechsel,ugeuzaji,s,utambulisho,kujenga,wasiwasi,NA,NA,0,NULL,NA,NA,NA,NA,NA,NA,NA,NA,NA,NA,NA,NA,NA,NA,NA,NA,NA,NA,NA
73928,deep,flow.Sequence,1_12_0,NA,NA,completion,15451,213004,213000,213017,228468,228470,2023-05-16T16:07:22Z,228484,Wechsel,ugeuzaji,s,utambulisho,kujenga,wasiwasi,NA,NA,NA,NULL,NA,NA,NA,NA,NA,NA,NA,NA,NA,NA,NA,NA,NA,NA,NA,NA,NA,NA,NA
73928,task,flow.Sequence,1_12,NA,NA,completion,15451,213004,213000,213017,228468,228471,2023-05-16T16:07:22Z,228484,Wechsel,ugeuzaji,s,utambulisho,kujenga,wasiwasi,NA,NA,NA,NULL,NA,NA,NA,NA,NA,NA,NA,NA,NA,NA,NA,NA,NA,NA,NA,NA,NA,NA,NA
73928,Deep Question,html.Page,1_13_0_0,NA,NA,form submission,49798,228471,228468,228484,278282,278283,2023-05-16T16:08:12Z,278298,Respekt,heshima,s,changamnao,upinzani,ufanisi,kkiwilazo,NA,NA,NULL,NA,NA,NA,NA,NA,NA,NA,NA,NA,NA,NA,NA,NA,NA,NA,NA,NA,NA,NA
73928,Save data screen,canvas.Screen,1_13_0_1,NA,NA,timeout,504,278284,278286,278298,278787,278788,2023-05-16T16:08:13Z,278802,Respekt,heshima,s,changamnao,upinzani,ufanisi,NA,NA,0,NULL,NA,NA,NA,NA,NA,NA,NA,NA,NA,NA,NA,NA,NA,NA,NA,NA,NA,NA,NA
73928,deep,flow.Sequence,1_13_0,NA,NA,completion,50303,228471,228468,228484,278787,278789,2023-05-16T16:08:13Z,278802,Respekt,heshima,s,changamnao,upinzani,ufanisi,NA,NA,NA,NULL,NA,NA,NA,NA,NA,NA,NA,NA,NA,NA,NA,NA,NA,NA,NA,NA,NA,NA,NA
73928,task,flow.Sequence,1_13,NA,NA,completion,50303,228471,228468,228484,278787,278790,2023-05-16T16:08:13Z,278802,Respekt,heshima,s,changamnao,upinzani,ufanisi,NA,NA,NA,NULL,NA,NA,NA,NA,NA,NA,NA,NA,NA,NA,NA,NA,NA,NA,NA,NA,NA,NA,NA
73928,Deep Question,html.Page,1_14_0_0,NA,NA,form submission,6612,278790,278787,278802,285414,285415,2023-05-16T16:08:19Z,285422,Papier,karatasi,s,uchambuzi,usalama,kukataliwa,keine ahnung,NA,NA,NULL,NA,NA,NA,NA,NA,NA,NA,NA,NA,NA,NA,NA,NA,NA,NA,NA,NA,NA,NA
73928,Save data screen,canvas.Screen,1_14_0_1,NA,NA,timeout,498,285416,285417,285422,285903,285905,2023-05-16T16:08:20Z,285920,Papier,karatasi,s,uchambuzi,usalama,kukataliwa,NA,NA,0,NULL,NA,NA,NA,NA,NA,NA,NA,NA,NA,NA,NA,NA,NA,NA,NA,NA,NA,NA,NA
73928,deep,flow.Sequence,1_14_0,NA,NA,completion,7101,278790,278787,278802,285903,285906,2023-05-16T16:08:20Z,285920,Papier,karatasi,s,uchambuzi,usalama,kukataliwa,NA,NA,NA,NULL,NA,NA,NA,NA,NA,NA,NA,NA,NA,NA,NA,NA,NA,NA,NA,NA,NA,NA,NA
73928,task,flow.Sequence,1_14,NA,NA,completion,7101,278790,278787,278802,285903,285907,2023-05-16T16:08:20Z,285920,Papier,karatasi,s,uchambuzi,usalama,kukataliwa,NA,NA,NA,NULL,NA,NA,NA,NA,NA,NA,NA,NA,NA,NA,NA,NA,NA,NA,NA,NA,NA,NA,NA
73928,Deep Question,html.Page,1_15_0_0,NA,NA,form submission,7350,285907,285903,285920,293270,293271,2023-05-16T16:08:27Z,293287,Begegnung,kukutana,d,mmasihiya,mpiganaji,husiano,ushti,NA,NA,NULL,NA,NA,NA,NA,NA,NA,NA,NA,NA,NA,NA,NA,NA,NA,NA,NA,NA,NA,NA
73928,Save data screen,canvas.Screen,1_15_0_1,NA,NA,timeout,555,293272,293273,293287,293771,293771,2023-05-16T16:08:28Z,293842,Begegnung,kukutana,d,mmasihiya,mpiganaji,husiano,NA,NA,0,NULL,NA,NA,NA,NA,NA,NA,NA,NA,NA,NA,NA,NA,NA,NA,NA,NA,NA,NA,NA
73928,deep,flow.Sequence,1_15_0,NA,NA,completion,7851,285907,285903,285920,293771,293772,2023-05-16T16:08:28Z,293842,Begegnung,kukutana,d,mmasihiya,mpiganaji,husiano,NA,NA,NA,NULL,NA,NA,NA,NA,NA,NA,NA,NA,NA,NA,NA,NA,NA,NA,NA,NA,NA,NA,NA
73928,task,flow.Sequence,1_15,NA,NA,completion,7851,285907,285903,285920,293771,293773,2023-05-16T16:08:28Z,293842,Begegnung,kukutana,d,mmasihiya,mpiganaji,husiano,NA,NA,NA,NULL,NA,NA,NA,NA,NA,NA,NA,NA,NA,NA,NA,NA,NA,NA,NA,NA,NA,NA,NA
73928,retrieval block 1 (cued recall),flow.Loop,1,NA,NA,completion,291313,2426,2446,2458,293771,293773,2023-05-16T16:08:28Z,293842,NA,NA,NA,NA,NA,NA,NA,NA,NA,NULL,NA,NA,NA,NA,NA,NA,NA,NA,NA,NA,NA,NA,NA,NA,NA,NA,NA,NA,NA
73928,Shallow Question,html.Page,2_0_0_0,NA,NA,form submission,10930,293775,293771,293842,304772,304773,2023-05-16T16:08:39Z,304788,Vorwurf,mashtaka,d,msukumo,mtangulizi,uenyekiti,uenyekiti,NA,NA,"c(""distractor1"", ""distractor2"", ""distractor3"")",NA,NA,NA,NA,NA,NA,NA,NA,NA,NA,NA,NA,NA,NA,NA,NA,NA,NA,NA
73928,Save data screen,canvas.Screen,2_0_0_1,NA,NA,timeout,500,304773,304777,304788,305271,305272,2023-05-16T16:08:39Z,305288,Vorwurf,mashtaka,d,msukumo,mtangulizi,uenyekiti,NA,NA,0,"c(""distractor1"", ""distractor2"", ""distractor3"")",NA,NA,NA,NA,NA,NA,NA,NA,NA,NA,NA,NA,NA,NA,NA,NA,NA,NA,NA
73928,shallow,flow.Sequence,2_0_0,NA,NA,completion,11429,293775,293771,293842,305271,305273,2023-05-16T16:08:39Z,305288,Vorwurf,mashtaka,d,msukumo,mtangulizi,uenyekiti,NA,NA,NA,"c(""distractor1"", ""distractor2"", ""distractor3"")",NA,NA,NA,NA,NA,NA,NA,NA,NA,NA,NA,NA,NA,NA,NA,NA,NA,NA,NA
73928,task,flow.Sequence,2_0,NA,NA,completion,11429,293775,293771,293842,305271,305274,2023-05-16T16:08:39Z,305288,Vorwurf,mashtaka,d,msukumo,mtangulizi,uenyekiti,NA,NA,NA,"c(""distractor1"", ""distractor2"", ""distractor3"")",NA,NA,NA,NA,NA,NA,NA,NA,NA,NA,NA,NA,NA,NA,NA,NA,NA,NA,NA
73928,Shallow Question,html.Page,2_1_0_0,NA,NA,form submission,6066,305274,305271,305288,311354,311354,2023-05-16T16:08:45Z,311371,Respekt,heshima,s,changamnao,upinzani,ufanisi,ufanisi,NA,NA,"c(""distractor1"", ""distractor2"", ""distractor3"")",NA,NA,NA,NA,NA,NA,NA,NA,NA,NA,NA,NA,NA,NA,NA,NA,NA,NA,NA
73928,Save data screen,canvas.Screen,2_1_0_1,NA,NA,timeout,500,311356,311358,311371,311855,311856,2023-05-16T16:08:46Z,311871,Respekt,heshima,s,changamnao,upinzani,ufanisi,NA,NA,0,"c(""distractor1"", ""distractor2"", ""distractor3"")",NA,NA,NA,NA,NA,NA,NA,NA,NA,NA,NA,NA,NA,NA,NA,NA,NA,NA,NA
73928,shallow,flow.Sequence,2_1_0,NA,NA,completion,6567,305274,305271,305288,311855,311856,2023-05-16T16:08:46Z,311871,Respekt,heshima,s,changamnao,upinzani,ufanisi,NA,NA,NA,"c(""distractor1"", ""distractor2"", ""distractor3"")",NA,NA,NA,NA,NA,NA,NA,NA,NA,NA,NA,NA,NA,NA,NA,NA,NA,NA,NA
73928,task,flow.Sequence,2_1,NA,NA,completion,6567,305274,305271,305288,311855,311856,2023-05-16T16:08:46Z,311871,Respekt,heshima,s,changamnao,upinzani,ufanisi,NA,NA,NA,"c(""distractor1"", ""distractor2"", ""distractor3"")",NA,NA,NA,NA,NA,NA,NA,NA,NA,NA,NA,NA,NA,NA,NA,NA,NA,NA,NA
73928,Shallow Question,html.Page,2_2_0_0,NA,NA,form submission,2655,311857,311855,311871,314526,314526,2023-05-16T16:08:48Z,314555,Integrität,uadilifu,s,muungano,mtiririko,upunguaji,uadilifu,NA,NA,"c(""distractor1"", ""distractor2"", ""distractor3"")",NA,NA,NA,NA,NA,NA,NA,NA,NA,NA,NA,NA,NA,NA,NA,NA,NA,NA,NA
73928,Save data screen,canvas.Screen,2_2_0_1,NA,NA,timeout,500,314528,314538,314555,315037,315038,2023-05-16T16:08:49Z,315055,Integrität,uadilifu,s,muungano,mtiririko,upunguaji,NA,NA,1,"c(""distractor1"", ""distractor2"", ""distractor3"")",NA,NA,NA,NA,NA,NA,NA,NA,NA,NA,NA,NA,NA,NA,NA,NA,NA,NA,NA
73928,shallow,flow.Sequence,2_2_0,NA,NA,completion,3166,311857,311855,311871,315037,315039,2023-05-16T16:08:49Z,315055,Integrität,uadilifu,s,muungano,mtiririko,upunguaji,NA,NA,NA,"c(""distractor1"", ""distractor2"", ""distractor3"")",NA,NA,NA,NA,NA,NA,NA,NA,NA,NA,NA,NA,NA,NA,NA,NA,NA,NA,NA
73928,task,flow.Sequence,2_2,NA,NA,completion,3166,311857,311855,311871,315037,315039,2023-05-16T16:08:49Z,315055,Integrität,uadilifu,s,muungano,mtiririko,upunguaji,NA,NA,NA,"c(""distractor1"", ""distractor2"", ""distractor3"")",NA,NA,NA,NA,NA,NA,NA,NA,NA,NA,NA,NA,NA,NA,NA,NA,NA,NA,NA
73928,Shallow Question,html.Page,2_3_0_0,NA,NA,form submission,4572,315040,315037,315055,319627,319628,2023-05-16T16:08:53Z,319655,Atmosphäre,angahewa,d,kuteseka,usahihi,kutoamini,kuteseka,NA,NA,"c(""distractor1"", ""distractor2"", ""distractor3"")",NA,NA,NA,NA,NA,NA,NA,NA,NA,NA,NA,NA,NA,NA,NA,NA,NA,NA,NA
73928,Save data screen,canvas.Screen,2_3_0_1,NA,NA,timeout,500,319629,319638,319655,320137,320138,2023-05-16T16:08:54Z,320155,Atmosphäre,angahewa,d,kuteseka,usahihi,kutoamini,NA,NA,0,"c(""distractor1"", ""distractor2"", ""distractor3"")",NA,NA,NA,NA,NA,NA,NA,NA,NA,NA,NA,NA,NA,NA,NA,NA,NA,NA,NA
73928,shallow,flow.Sequence,2_3_0,NA,NA,completion,5082,315039,315037,315055,320137,320139,2023-05-16T16:08:54Z,320155,Atmosphäre,angahewa,d,kuteseka,usahihi,kutoamini,NA,NA,NA,"c(""distractor1"", ""distractor2"", ""distractor3"")",NA,NA,NA,NA,NA,NA,NA,NA,NA,NA,NA,NA,NA,NA,NA,NA,NA,NA,NA
73928,task,flow.Sequence,2_3,NA,NA,completion,5082,315039,315037,315055,320137,320140,2023-05-16T16:08:54Z,320155,Atmosphäre,angahewa,d,kuteseka,usahihi,kutoamini,NA,NA,NA,"c(""distractor1"", ""distractor2"", ""distractor3"")",NA,NA,NA,NA,NA,NA,NA,NA,NA,NA,NA,NA,NA,NA,NA,NA,NA,NA,NA
73928,Shallow Question,html.Page,2_4_0_0,NA,NA,form submission,6505,320140,320137,320155,326660,326661,2023-05-16T16:09:00Z,326688,Flexibilität,kubadilika,d,enjini,usikilivu,hesabu,hesabu,NA,NA,"c(""distractor1"", ""distractor2"", ""distractor3"")",NA,NA,NA,NA,NA,NA,NA,NA,NA,NA,NA,NA,NA,NA,NA,NA,NA,NA,NA
73928,Save data screen,canvas.Screen,2_4_0_1,NA,NA,timeout,501,326662,326672,326688,327171,327172,2023-05-16T16:09:01Z,327189,Flexibilität,kubadilika,d,enjini,usikilivu,hesabu,NA,NA,0,"c(""distractor1"", ""distractor2"", ""distractor3"")",NA,NA,NA,NA,NA,NA,NA,NA,NA,NA,NA,NA,NA,NA,NA,NA,NA,NA,NA
73928,shallow,flow.Sequence,2_4_0,NA,NA,completion,7016,320140,320137,320155,327171,327173,2023-05-16T16:09:01Z,327189,Flexibilität,kubadilika,d,enjini,usikilivu,hesabu,NA,NA,NA,"c(""distractor1"", ""distractor2"", ""distractor3"")",NA,NA,NA,NA,NA,NA,NA,NA,NA,NA,NA,NA,NA,NA,NA,NA,NA,NA,NA
73928,task,flow.Sequence,2_4,NA,NA,completion,7016,320140,320137,320155,327171,327174,2023-05-16T16:09:01Z,327189,Flexibilität,kubadilika,d,enjini,usikilivu,hesabu,NA,NA,NA,"c(""distractor1"", ""distractor2"", ""distractor3"")",NA,NA,NA,NA,NA,NA,NA,NA,NA,NA,NA,NA,NA,NA,NA,NA,NA,NA,NA
73928,Shallow Question,html.Page,2_5_0_0,NA,NA,form submission,4406,327174,327171,327189,331595,331595,2023-05-16T16:09:05Z,331622,Orientierung,urekebisho,s,uelekeo,marekebisho,utunzaji,urekebisho,NA,NA,"c(""distractor1"", ""distractor2"", ""distractor3"")",NA,NA,NA,NA,NA,NA,NA,NA,NA,NA,NA,NA,NA,NA,NA,NA,NA,NA,NA
73928,Save data screen,canvas.Screen,2_5_0_1,NA,NA,timeout,500,331596,331605,331622,332105,332110,2023-05-16T16:09:06Z,332122,Orientierung,urekebisho,s,uelekeo,marekebisho,utunzaji,NA,NA,1,"c(""distractor1"", ""distractor2"", ""distractor3"")",NA,NA,NA,NA,NA,NA,NA,NA,NA,NA,NA,NA,NA,NA,NA,NA,NA,NA,NA
73928,shallow,flow.Sequence,2_5_0,NA,NA,completion,4916,327174,327171,327189,332105,332111,2023-05-16T16:09:06Z,332122,Orientierung,urekebisho,s,uelekeo,marekebisho,utunzaji,NA,NA,NA,"c(""distractor1"", ""distractor2"", ""distractor3"")",NA,NA,NA,NA,NA,NA,NA,NA,NA,NA,NA,NA,NA,NA,NA,NA,NA,NA,NA
73928,task,flow.Sequence,2_5,NA,NA,completion,4916,327174,327171,327189,332105,332111,2023-05-16T16:09:06Z,332122,Orientierung,urekebisho,s,uelekeo,marekebisho,utunzaji,NA,NA,NA,"c(""distractor1"", ""distractor2"", ""distractor3"")",NA,NA,NA,NA,NA,NA,NA,NA,NA,NA,NA,NA,NA,NA,NA,NA,NA,NA,NA
73928,Shallow Question,html.Page,2_6_0_0,NA,NA,form submission,4391.0000000001,332112,332105,332122,336513,336513,2023-05-16T16:09:10Z,336539,Stimmung,kinyongo,d,kilekile,kisambo,madhehebu,kinyongo,NA,NA,"c(""distractor1"", ""distractor2"", ""distractor3"")",NA,NA,NA,NA,NA,NA,NA,NA,NA,NA,NA,NA,NA,NA,NA,NA,NA,NA,NA
73928,Save data screen,canvas.Screen,2_6_0_1,NA,NA,timeout,500,336515,336522,336539,337022,337023,2023-05-16T16:09:11Z,337039,Stimmung,kinyongo,d,kilekile,kisambo,madhehebu,NA,NA,1,"c(""distractor1"", ""distractor2"", ""distractor3"")",NA,NA,NA,NA,NA,NA,NA,NA,NA,NA,NA,NA,NA,NA,NA,NA,NA,NA,NA
73928,shallow,flow.Sequence,2_6_0,NA,NA,completion,4900,332112,332105,332122,337022,337024,2023-05-16T16:09:11Z,337039,Stimmung,kinyongo,d,kilekile,kisambo,madhehebu,NA,NA,NA,"c(""distractor1"", ""distractor2"", ""distractor3"")",NA,NA,NA,NA,NA,NA,NA,NA,NA,NA,NA,NA,NA,NA,NA,NA,NA,NA,NA
73928,task,flow.Sequence,2_6,NA,NA,completion,4900,332112,332105,332122,337022,337024,2023-05-16T16:09:11Z,337039,Stimmung,kinyongo,d,kilekile,kisambo,madhehebu,NA,NA,NA,"c(""distractor1"", ""distractor2"", ""distractor3"")",NA,NA,NA,NA,NA,NA,NA,NA,NA,NA,NA,NA,NA,NA,NA,NA,NA,NA,NA
73928,Shallow Question,html.Page,2_7_0_0,NA,NA,form submission,5362,337024,337022,337039,342401,342401,2023-05-16T16:09:16Z,342422,Niveau,kiwango,s,usimamizi,mwamali,mshairi,usimamizi,NA,NA,"c(""distractor1"", ""distractor2"", ""distractor3"")",NA,NA,NA,NA,NA,NA,NA,NA,NA,NA,NA,NA,NA,NA,NA,NA,NA,NA,NA
73928,Save data screen,canvas.Screen,2_7_0_1,NA,NA,timeout,501,342403,342407,342422,342905,342906,2023-05-16T16:09:17Z,342923,Niveau,kiwango,s,usimamizi,mwamali,mshairi,NA,NA,0,"c(""distractor1"", ""distractor2"", ""distractor3"")",NA,NA,NA,NA,NA,NA,NA,NA,NA,NA,NA,NA,NA,NA,NA,NA,NA,NA,NA
73928,shallow,flow.Sequence,2_7_0,NA,NA,completion,5866,337024,337022,337039,342905,342907,2023-05-16T16:09:17Z,342923,Niveau,kiwango,s,usimamizi,mwamali,mshairi,NA,NA,NA,"c(""distractor1"", ""distractor2"", ""distractor3"")",NA,NA,NA,NA,NA,NA,NA,NA,NA,NA,NA,NA,NA,NA,NA,NA,NA,NA,NA
73928,task,flow.Sequence,2_7,NA,NA,completion,5866,337024,337022,337039,342905,342907,2023-05-16T16:09:17Z,342923,Niveau,kiwango,s,usimamizi,mwamali,mshairi,NA,NA,NA,"c(""distractor1"", ""distractor2"", ""distractor3"")",NA,NA,NA,NA,NA,NA,NA,NA,NA,NA,NA,NA,NA,NA,NA,NA,NA,NA,NA
73928,Shallow Question,html.Page,2_8_0_0,NA,NA,form submission,2898,342908,342905,342923,345821,345821,2023-05-16T16:09:20Z,345839,Entwicklung,maendeleo,d,uangavu,mshindwa,badiliko,maendeleo,NA,NA,"c(""distractor1"", ""distractor2"", ""distractor3"")",NA,NA,NA,NA,NA,NA,NA,NA,NA,NA,NA,NA,NA,NA,NA,NA,NA,NA,NA
73928,Save data screen,canvas.Screen,2_8_0_1,NA,NA,timeout,500,345824,345825,345839,346323,346324,2023-05-16T16:09:20Z,346339,Entwicklung,maendeleo,d,uangavu,mshindwa,badiliko,NA,NA,1,"c(""distractor1"", ""distractor2"", ""distractor3"")",NA,NA,NA,NA,NA,NA,NA,NA,NA,NA,NA,NA,NA,NA,NA,NA,NA,NA,NA
73928,shallow,flow.Sequence,2_8_0,NA,NA,completion,3400,342907,342905,342923,346323,346325,2023-05-16T16:09:20Z,346339,Entwicklung,maendeleo,d,uangavu,mshindwa,badiliko,NA,NA,NA,"c(""distractor1"", ""distractor2"", ""distractor3"")",NA,NA,NA,NA,NA,NA,NA,NA,NA,NA,NA,NA,NA,NA,NA,NA,NA,NA,NA
73928,task,flow.Sequence,2_8,NA,NA,completion,3400,342907,342905,342923,346323,346325,2023-05-16T16:09:20Z,346339,Entwicklung,maendeleo,d,uangavu,mshindwa,badiliko,NA,NA,NA,"c(""distractor1"", ""distractor2"", ""distractor3"")",NA,NA,NA,NA,NA,NA,NA,NA,NA,NA,NA,NA,NA,NA,NA,NA,NA,NA,NA
73928,Shallow Question,html.Page,2_9_0_0,NA,NA,form submission,3735,346325,346323,346339,350074,350074,2023-05-16T16:09:24Z,350089,Begegnung,kukutana,d,mmasihiya,mpiganaji,husiano,kukutana,NA,NA,"c(""distractor1"", ""distractor2"", ""distractor3"")",NA,NA,NA,NA,NA,NA,NA,NA,NA,NA,NA,NA,NA,NA,NA,NA,NA,NA,NA
73928,Save data screen,canvas.Screen,2_9_0_1,NA,NA,timeout,501,350075,350077,350089,350573,350574,2023-05-16T16:09:24Z,350590,Begegnung,kukutana,d,mmasihiya,mpiganaji,husiano,NA,NA,1,"c(""distractor1"", ""distractor2"", ""distractor3"")",NA,NA,NA,NA,NA,NA,NA,NA,NA,NA,NA,NA,NA,NA,NA,NA,NA,NA,NA
73928,shallow,flow.Sequence,2_9_0,NA,NA,completion,4234,346325,346323,346339,350573,350575,2023-05-16T16:09:24Z,350590,Begegnung,kukutana,d,mmasihiya,mpiganaji,husiano,NA,NA,NA,"c(""distractor1"", ""distractor2"", ""distractor3"")",NA,NA,NA,NA,NA,NA,NA,NA,NA,NA,NA,NA,NA,NA,NA,NA,NA,NA,NA
73928,task,flow.Sequence,2_9,NA,NA,completion,4234,346325,346323,346339,350573,350575,2023-05-16T16:09:24Z,350590,Begegnung,kukutana,d,mmasihiya,mpiganaji,husiano,NA,NA,NA,"c(""distractor1"", ""distractor2"", ""distractor3"")",NA,NA,NA,NA,NA,NA,NA,NA,NA,NA,NA,NA,NA,NA,NA,NA,NA,NA,NA
73928,Shallow Question,html.Page,2_10_0_0,NA,NA,form submission,4650,350575,350573,350590,355240,355240,2023-05-16T16:09:29Z,355256,Genehmigung,idhini,d,mwanamke,itikadi,fedheha,idhini,NA,NA,"c(""distractor1"", ""distractor2"", ""distractor3"")",NA,NA,NA,NA,NA,NA,NA,NA,NA,NA,NA,NA,NA,NA,NA,NA,NA,NA,NA
73928,Save data screen,canvas.Screen,2_10_0_1,NA,NA,timeout,500,355242,355246,355256,355739,355740,2023-05-16T16:09:29Z,355756,Genehmigung,idhini,d,mwanamke,itikadi,fedheha,NA,NA,1,"c(""distractor1"", ""distractor2"", ""distractor3"")",NA,NA,NA,NA,NA,NA,NA,NA,NA,NA,NA,NA,NA,NA,NA,NA,NA,NA,NA
73928,shallow,flow.Sequence,2_10_0,NA,NA,completion,5149,350575,350573,350590,355739,355741,2023-05-16T16:09:29Z,355756,Genehmigung,idhini,d,mwanamke,itikadi,fedheha,NA,NA,NA,"c(""distractor1"", ""distractor2"", ""distractor3"")",NA,NA,NA,NA,NA,NA,NA,NA,NA,NA,NA,NA,NA,NA,NA,NA,NA,NA,NA
73928,task,flow.Sequence,2_10,NA,NA,completion,5149,350575,350573,350590,355739,355741,2023-05-16T16:09:29Z,355756,Genehmigung,idhini,d,mwanamke,itikadi,fedheha,NA,NA,NA,"c(""distractor1"", ""distractor2"", ""distractor3"")",NA,NA,NA,NA,NA,NA,NA,NA,NA,NA,NA,NA,NA,NA,NA,NA,NA,NA,NA
73928,Shallow Question,html.Page,2_11_0_0,NA,NA,form submission,102005,355742,355739,355756,457761,457761,2023-05-16T16:11:11Z,457777,Wechsel,ugeuzaji,s,utambulisho,kujenga,wasiwasi,kujenga,NA,NA,"c(""distractor1"", ""distractor2"", ""distractor3"")",NA,NA,NA,NA,NA,NA,NA,NA,NA,NA,NA,NA,NA,NA,NA,NA,NA,NA,NA
73928,Save data screen,canvas.Screen,2_11_0_1,NA,NA,timeout,500,457762,457764,457777,458261,458261,2023-05-16T16:11:12Z,458277,Wechsel,ugeuzaji,s,utambulisho,kujenga,wasiwasi,NA,NA,0,"c(""distractor1"", ""distractor2"", ""distractor3"")",NA,NA,NA,NA,NA,NA,NA,NA,NA,NA,NA,NA,NA,NA,NA,NA,NA,NA,NA
73928,shallow,flow.Sequence,2_11_0,NA,NA,completion,102505,355742,355739,355756,458261,458261,2023-05-16T16:11:12Z,458277,Wechsel,ugeuzaji,s,utambulisho,kujenga,wasiwasi,NA,NA,NA,"c(""distractor1"", ""distractor2"", ""distractor3"")",NA,NA,NA,NA,NA,NA,NA,NA,NA,NA,NA,NA,NA,NA,NA,NA,NA,NA,NA
73928,task,flow.Sequence,2_11,NA,NA,completion,102505,355742,355739,355756,458261,458261,2023-05-16T16:11:12Z,458277,Wechsel,ugeuzaji,s,utambulisho,kujenga,wasiwasi,NA,NA,NA,"c(""distractor1"", ""distractor2"", ""distractor3"")",NA,NA,NA,NA,NA,NA,NA,NA,NA,NA,NA,NA,NA,NA,NA,NA,NA,NA,NA
73928,Shallow Question,html.Page,2_12_0_0,NA,NA,form submission,5844.0000000001,458262,458261,458277,464121,464121,2023-05-16T16:11:18Z,464144,Erneuerung,ukarabati,s,ushawishi,ukalifu,unyonyaji,ushawishi,NA,NA,"c(""distractor1"", ""distractor2"", ""distractor3"")",NA,NA,NA,NA,NA,NA,NA,NA,NA,NA,NA,NA,NA,NA,NA,NA,NA,NA,NA
73928,Save data screen,canvas.Screen,2_12_0_1,NA,NA,timeout,500,464122,464128,464144,464627,464629,2023-05-16T16:11:18Z,464644,Erneuerung,ukarabati,s,ushawishi,ukalifu,unyonyaji,NA,NA,0,"c(""distractor1"", ""distractor2"", ""distractor3"")",NA,NA,NA,NA,NA,NA,NA,NA,NA,NA,NA,NA,NA,NA,NA,NA,NA,NA,NA
73928,shallow,flow.Sequence,2_12_0,NA,NA,completion,6350,458262,458261,458277,464627,464630,2023-05-16T16:11:18Z,464644,Erneuerung,ukarabati,s,ushawishi,ukalifu,unyonyaji,NA,NA,NA,"c(""distractor1"", ""distractor2"", ""distractor3"")",NA,NA,NA,NA,NA,NA,NA,NA,NA,NA,NA,NA,NA,NA,NA,NA,NA,NA,NA
73928,task,flow.Sequence,2_12,NA,NA,completion,6350,458262,458261,458277,464627,464631,2023-05-16T16:11:18Z,464644,Erneuerung,ukarabati,s,ushawishi,ukalifu,unyonyaji,NA,NA,NA,"c(""distractor1"", ""distractor2"", ""distractor3"")",NA,NA,NA,NA,NA,NA,NA,NA,NA,NA,NA,NA,NA,NA,NA,NA,NA,NA,NA
73928,Shallow Question,html.Page,2_13_0_0,NA,NA,form submission,32576,464632,464627,464644,497220,497221,2023-05-16T16:11:51Z,497246,Betrüger,mdanganyifu,d,mwanamuziki,wastani,mahakama,mdanganyifu,NA,NA,"c(""distractor1"", ""distractor2"", ""distractor3"")",NA,NA,NA,NA,NA,NA,NA,NA,NA,NA,NA,NA,NA,NA,NA,NA,NA,NA,NA
73928,Save data screen,canvas.Screen,2_13_0_1,NA,NA,timeout,500,497222,497229,497246,497729,497731,2023-05-16T16:11:51Z,497746,Betrüger,mdanganyifu,d,mwanamuziki,wastani,mahakama,NA,NA,1,"c(""distractor1"", ""distractor2"", ""distractor3"")",NA,NA,NA,NA,NA,NA,NA,NA,NA,NA,NA,NA,NA,NA,NA,NA,NA,NA,NA
73928,shallow,flow.Sequence,2_13_0,NA,NA,completion,33085,464632,464627,464644,497729,497732,2023-05-16T16:11:51Z,497746,Betrüger,mdanganyifu,d,mwanamuziki,wastani,mahakama,NA,NA,NA,"c(""distractor1"", ""distractor2"", ""distractor3"")",NA,NA,NA,NA,NA,NA,NA,NA,NA,NA,NA,NA,NA,NA,NA,NA,NA,NA,NA
73928,task,flow.Sequence,2_13,NA,NA,completion,33085,464631,464627,464644,497729,497732,2023-05-16T16:11:51Z,497746,Betrüger,mdanganyifu,d,mwanamuziki,wastani,mahakama,NA,NA,NA,"c(""distractor1"", ""distractor2"", ""distractor3"")",NA,NA,NA,NA,NA,NA,NA,NA,NA,NA,NA,NA,NA,NA,NA,NA,NA,NA,NA
73928,Shallow Question,html.Page,2_14_0_0,NA,NA,form submission,3447,497732,497729,497746,501193,501193,2023-05-16T16:11:55Z,501212,Fleisch,mshakiki,s,kizunguzungu,mshikamano,angusho,mshakiki,NA,NA,"c(""distractor1"", ""distractor2"", ""distractor3"")",NA,NA,NA,NA,NA,NA,NA,NA,NA,NA,NA,NA,NA,NA,NA,NA,NA,NA,NA
73928,Save data screen,canvas.Screen,2_14_0_1,NA,NA,timeout,501,501195,501197,501212,501696,501697,2023-05-16T16:11:55Z,501713,Fleisch,mshakiki,s,kizunguzungu,mshikamano,angusho,NA,NA,1,"c(""distractor1"", ""distractor2"", ""distractor3"")",NA,NA,NA,NA,NA,NA,NA,NA,NA,NA,NA,NA,NA,NA,NA,NA,NA,NA,NA
73928,shallow,flow.Sequence,2_14_0,NA,NA,completion,3950,497732,497729,497746,501696,501698,2023-05-16T16:11:55Z,501713,Fleisch,mshakiki,s,kizunguzungu,mshikamano,angusho,NA,NA,NA,"c(""distractor1"", ""distractor2"", ""distractor3"")",NA,NA,NA,NA,NA,NA,NA,NA,NA,NA,NA,NA,NA,NA,NA,NA,NA,NA,NA
73928,task,flow.Sequence,2_14,NA,NA,completion,3950,497732,497729,497746,501696,501698,2023-05-16T16:11:55Z,501713,Fleisch,mshakiki,s,kizunguzungu,mshikamano,angusho,NA,NA,NA,"c(""distractor1"", ""distractor2"", ""distractor3"")",NA,NA,NA,NA,NA,NA,NA,NA,NA,NA,NA,NA,NA,NA,NA,NA,NA,NA,NA
73928,Shallow Question,html.Page,2_15_0_0,NA,NA,form submission,4992,501698,501696,501713,506705,506706,2023-05-16T16:12:00Z,506729,Papier,karatasi,s,uchambuzi,usalama,kukataliwa,karatasi,NA,NA,"c(""distractor1"", ""distractor2"", ""distractor3"")",NA,NA,NA,NA,NA,NA,NA,NA,NA,NA,NA,NA,NA,NA,NA,NA,NA,NA,NA
73928,Save data screen,canvas.Screen,2_15_0_1,NA,NA,timeout,503,506708,506713,506729,507213,507213,2023-05-16T16:12:01Z,507232,Papier,karatasi,s,uchambuzi,usalama,kukataliwa,NA,NA,1,"c(""distractor1"", ""distractor2"", ""distractor3"")",NA,NA,NA,NA,NA,NA,NA,NA,NA,NA,NA,NA,NA,NA,NA,NA,NA,NA,NA
73928,shallow,flow.Sequence,2_15_0,NA,NA,completion,5500,501698,501696,501713,507213,507213,2023-05-16T16:12:01Z,507232,Papier,karatasi,s,uchambuzi,usalama,kukataliwa,NA,NA,NA,"c(""distractor1"", ""distractor2"", ""distractor3"")",NA,NA,NA,NA,NA,NA,NA,NA,NA,NA,NA,NA,NA,NA,NA,NA,NA,NA,NA
73928,task,flow.Sequence,2_15,NA,NA,completion,5500,501698,501696,501713,507213,507213,2023-05-16T16:12:01Z,507232,Papier,karatasi,s,uchambuzi,usalama,kukataliwa,NA,NA,NA,"c(""distractor1"", ""distractor2"", ""distractor3"")",NA,NA,NA,NA,NA,NA,NA,NA,NA,NA,NA,NA,NA,NA,NA,NA,NA,NA,NA
73928,retrieval block 2 (multiple choice),flow.Loop,2,NA,NA,completion,213371,293775,293771,293842,507213,507213,2023-05-16T16:12:01Z,507232,NA,NA,NA,NA,NA,NA,NA,NA,NA,"c(""distractor1"", ""distractor2"", ""distractor3"")",NA,NA,NA,NA,NA,NA,NA,NA,NA,NA,NA,NA,NA,NA,NA,NA,NA,NA,NA
73928,End,canvas.Screen,3,NA,keypress(Space),response,1046,507213,507213,507232,508259,508250,2023-05-16T16:12:02Z,508280,NA,NA,NA,NA,NA,NA,NA,NA,NA,NULL,NA,NA,NA,NA,NA,NA,NA,NA,NA,NA,NA,NA,NA,NA,NA,NA,NA,NA,NA
73928,root,flow.Sequence,NA,NA,NA,completion,507839,347,352,420,508259,508253,2023-05-16T16:12:02Z,508280,NA,NA,NA,NA,NA,NA,NA,NA,NA,NULL,NA,NA,NA,NA,NA,NA,NA,NA,NA,NA,NA,NA,NA,NA,NA,NA,NA,NA,NA
