observation,sender,sender_type,sender_id,response,response_action,ended_on,duration,time_run,time_render,time_show,time_end,time_commit,timestamp,time_switch,distractors,german,swahili,enc,distractor1,distractor2,distractor3,response_2,x,correct,x_2,url_vp,url_sess,meta_labjs_version,meta_location,meta_user_agent,meta_platform,meta_language,meta_locale,meta_time_zone,meta_timezone_offset,meta_screen_width,meta_screen_height,meta_scroll_width,meta_scroll_height,meta_window_inner_width,meta_window_inner_height,meta_device_pixel_ratio,meta_labjs_build_flavor,meta_labjs_build_commit
36c03,Introduction general,canvas.Screen,0,weiter,keypress(q),response,2438876.8440003,1493.4000000954,8015.687,8032.356,2446909.2000003,2446917.8000002,2023-08-11T08:26:37Z,2446912.8,NULL,NA,NA,NA,NA,NA,NA,NA,NA,NA,NA,221,3,20.2.4,https://neurocog.fernuni.ch/studies/vweber/sfink/encoding_immediate/index.html?vp=221&sess=3,"Mozilla/5.0 (Windows NT 10.0; Win64; x64) AppleWebKit/537.36 (KHTML, like Gecko) Chrome/114.0.0.0 Safari/537.36",Win32,de-CH,de,Europe/Zurich,-120,1536,864,1536,706,1536,754,1.25,production,f5b4a49f956347addd546a832a3327688c2c0fef
36c03,Introduction practice,canvas.Screen,1_0,NA,keypress(Space),response,7502.2000000002,2446918.5999999,2446893.997,2446912.8,2454415,2454416.0999999,2023-08-11T08:26:44Z,2454423.224,NULL,NA,NA,NA,NA,NA,NA,NA,NA,NA,NA,NA,NA,NA,NA,NA,NA,NA,NA,NA,NA,NA,NA,NA,NA,NA,NA,NA,NA,NA
36c03,deep,flow.Sequence,1_1_0_0,NA,NA,skipped,NA,2454416.4000001,NA,NA,2454415,2454420,2023-08-11T08:26:44Z,2454423.224,"c(""distractor1"", ""distractor2"", ""distractor3"")",Rückhalt,msaada,s,muhula,auwali,kiwimbe,NA,NA,NA,NA,NA,NA,NA,NA,NA,NA,NA,NA,NA,NA,NA,NA,NA,NA,NA,NA,NA,NA,NA
36c03,Shallow Question,html.Page,1_1_0_1_0,NA,NA,form submission,5352.1760000954,2454420.2000003,2454406.169,2454423.224,2459775.4000001,2459775.7000003,2023-08-11T08:26:50Z,2459785.541,"c(""distractor1"", ""distractor2"", ""distractor3"")",Rückhalt,msaada,s,muhula,auwali,kiwimbe,msaada,NA,NA,NA,NA,NA,NA,NA,NA,NA,NA,NA,NA,NA,NA,NA,NA,NA,NA,NA,NA,NA,NA
36c03,"""Richtig""-Screen",canvas.Screen,1_1_0_1_1,NA,NA,timeout,4995.9239999996,2459776.9000001,2459769.371,2459785.541,2464765.283,2464770.4000001,2023-08-11T08:26:55Z,2464781.465,"c(""distractor1"", ""distractor2"", ""distractor3"")",Rückhalt,msaada,s,muhula,auwali,kiwimbe,NA,NA,1,NA,NA,NA,NA,NA,NA,NA,NA,NA,NA,NA,NA,NA,NA,NA,NA,NA,NA,NA,NA
36c03,"""Falsch""-Screen",canvas.Screen,1_1_0_1_2,NA,NA,skipped,NA,2464773.5999999,NA,NA,2464765.283,2464774,2023-08-11T08:26:55Z,2464781.465,"c(""distractor1"", ""distractor2"", ""distractor3"")",Rückhalt,msaada,s,muhula,auwali,kiwimbe,NA,NA,NA,NA,NA,NA,NA,NA,NA,NA,NA,NA,NA,NA,NA,NA,NA,NA,NA,NA,NA,NA,NA
36c03,shallow,flow.Sequence,1_1_0_1,NA,NA,completion,10342.059,2454420.2000003,2454406.169,2454423.224,2464765.283,2464774.5,2023-08-11T08:26:55Z,2464781.465,"c(""distractor1"", ""distractor2"", ""distractor3"")",Rückhalt,msaada,s,muhula,auwali,kiwimbe,NA,NA,NA,NA,NA,NA,NA,NA,NA,NA,NA,NA,NA,NA,NA,NA,NA,NA,NA,NA,NA,NA,NA
36c03,task,flow.Sequence,1_1_0,NA,NA,completion,10342.059,2454416.4000001,2454406.169,2454423.224,2464765.283,2464774.9000001,2023-08-11T08:26:55Z,2464781.465,"c(""distractor1"", ""distractor2"", ""distractor3"")",Rückhalt,msaada,s,muhula,auwali,kiwimbe,NA,NA,NA,NA,NA,NA,NA,NA,NA,NA,NA,NA,NA,NA,NA,NA,NA,NA,NA,NA,NA,NA,NA
36c03,Deep Question,html.Page,1_1_1_0_0,NA,NA,form submission,9359.6349999048,2464775.5,2464765.283,2464781.465,2474141.0999999,2474141.4000001,2023-08-11T08:27:04Z,2474140.432,"c(""distractor1"", ""distractor2"", ""distractor3"")",Gesundheit,salama,d,NA,NA,NA,suanah,NA,NA,NA,NA,NA,NA,NA,NA,NA,NA,NA,NA,NA,NA,NA,NA,NA,NA,NA,NA,NA,NA
36c03,"""Richtig""-Screen",canvas.Screen,1_1_1_0_1,NA,NA,skipped,NA,2474143.7000003,NA,NA,2474141.0999999,2474144,2023-08-11T08:27:04Z,2474140.432,"c(""distractor1"", ""distractor2"", ""distractor3"")",Gesundheit,salama,d,NA,NA,NA,NA,NA,NA,NA,NA,NA,NA,NA,NA,NA,NA,NA,NA,NA,NA,NA,NA,NA,NA,NA,NA,NA,NA
36c03,"""Falsch""-Screen",canvas.Screen,1_1_1_0_2,NA,NA,timeout,4995.852,2474144.7000003,2474124.328,2474140.432,2479120.154,2479121.3000002,2023-08-11T08:27:09Z,2479136.284,"c(""distractor1"", ""distractor2"", ""distractor3"")",Gesundheit,salama,d,NA,NA,NA,NA,NA,0,NA,NA,NA,NA,NA,NA,NA,NA,NA,NA,NA,NA,NA,NA,NA,NA,NA,NA,NA,NA
36c03,deep,flow.Sequence,1_1_1_0,NA,NA,completion,14338.689,2464775.4000001,2464765.283,2464781.465,2479120.154,2479121.9000001,2023-08-11T08:27:09Z,2479136.284,"c(""distractor1"", ""distractor2"", ""distractor3"")",Gesundheit,salama,d,NA,NA,NA,NA,NA,NA,NA,NA,NA,NA,NA,NA,NA,NA,NA,NA,NA,NA,NA,NA,NA,NA,NA,NA,NA,NA
36c03,shallow,flow.Sequence,1_1_1_1,NA,NA,skipped,NA,2479122,NA,NA,2479120.154,2479122.4000001,2023-08-11T08:27:09Z,2479136.284,"c(""distractor1"", ""distractor2"", ""distractor3"")",Gesundheit,salama,d,NA,NA,NA,NA,NA,NA,NA,NA,NA,NA,NA,NA,NA,NA,NA,NA,NA,NA,NA,NA,NA,NA,NA,NA,NA,NA
36c03,task,flow.Sequence,1_1_1,NA,NA,completion,14338.689,2464775.2000003,2464765.283,2464781.465,2479120.154,2479122.7000003,2023-08-11T08:27:09Z,2479136.284,"c(""distractor1"", ""distractor2"", ""distractor3"")",Gesundheit,salama,d,NA,NA,NA,NA,NA,NA,NA,NA,NA,NA,NA,NA,NA,NA,NA,NA,NA,NA,NA,NA,NA,NA,NA,NA,NA,NA
36c03,deep,flow.Sequence,1_1_2_0,NA,NA,skipped,NA,2479123,NA,NA,2479120.154,2479123.2000003,2023-08-11T08:27:09Z,2479136.284,"c(""distractor1"", ""distractor2"", ""distractor3"")",Kritik,lawama,s,dereva,nafasi,mawazo,NA,NA,NA,NA,NA,NA,NA,NA,NA,NA,NA,NA,NA,NA,NA,NA,NA,NA,NA,NA,NA,NA,NA
36c03,Shallow Question,html.Page,1_1_2_1_0,NA,NA,form submission,8029.716,2479123.5,2479120.154,2479136.284,2487166,2487166.0999999,2023-08-11T08:27:17Z,2487180.119,"c(""distractor1"", ""distractor2"", ""distractor3"")",Kritik,lawama,s,dereva,nafasi,mawazo,nafasi,NA,NA,NA,NA,NA,NA,NA,NA,NA,NA,NA,NA,NA,NA,NA,NA,NA,NA,NA,NA,NA,NA
36c03,"""Richtig""-Screen",canvas.Screen,1_1_2_1_1,NA,NA,skipped,NA,2487168,NA,NA,2487166,2487168.3000002,2023-08-11T08:27:17Z,2487180.119,"c(""distractor1"", ""distractor2"", ""distractor3"")",Kritik,lawama,s,dereva,nafasi,mawazo,NA,NA,NA,NA,NA,NA,NA,NA,NA,NA,NA,NA,NA,NA,NA,NA,NA,NA,NA,NA,NA,NA,NA
36c03,"""Falsch""-Screen",canvas.Screen,1_1_2_1_2,NA,NA,timeout,4995.9900000002,2487169,2487163.584,2487180.119,2492159.713,2492160.2000003,2023-08-11T08:27:22Z,2492176.109,"c(""distractor1"", ""distractor2"", ""distractor3"")",Kritik,lawama,s,dereva,nafasi,mawazo,NA,NA,0,NA,NA,NA,NA,NA,NA,NA,NA,NA,NA,NA,NA,NA,NA,NA,NA,NA,NA,NA,NA
36c03,shallow,flow.Sequence,1_1_2_1,NA,NA,completion,13023.429,2479123.3000002,2479120.154,2479136.284,2492159.713,2492160.5,2023-08-11T08:27:22Z,2492176.109,"c(""distractor1"", ""distractor2"", ""distractor3"")",Kritik,lawama,s,dereva,nafasi,mawazo,NA,NA,NA,NA,NA,NA,NA,NA,NA,NA,NA,NA,NA,NA,NA,NA,NA,NA,NA,NA,NA,NA,NA
36c03,task,flow.Sequence,1_1_2,NA,NA,completion,13023.429,2479122.9000001,2479120.154,2479136.284,2492159.713,2492160.5999999,2023-08-11T08:27:22Z,2492176.109,"c(""distractor1"", ""distractor2"", ""distractor3"")",Kritik,lawama,s,dereva,nafasi,mawazo,NA,NA,NA,NA,NA,NA,NA,NA,NA,NA,NA,NA,NA,NA,NA,NA,NA,NA,NA,NA,NA,NA,NA
36c03,Deep Question,html.Page,1_1_3_0_0,NA,NA,form submission,6832.2910000952,2492160.7000003,2492159.713,2492176.109,2499008.4000001,2499008.5999999,2023-08-11T08:27:29Z,2499019.981,"c(""distractor1"", ""distractor2"", ""distractor3"")",Qualität,mtindo,d,NA,NA,NA,turfek,NA,NA,NA,NA,NA,NA,NA,NA,NA,NA,NA,NA,NA,NA,NA,NA,NA,NA,NA,NA,NA,NA
36c03,"""Richtig""-Screen",canvas.Screen,1_1_3_0_1,NA,NA,skipped,NA,2499010.5999999,NA,NA,2499008.4000001,2499010.7000003,2023-08-11T08:27:29Z,2499019.981,"c(""distractor1"", ""distractor2"", ""distractor3"")",Qualität,mtindo,d,NA,NA,NA,NA,NA,NA,NA,NA,NA,NA,NA,NA,NA,NA,NA,NA,NA,NA,NA,NA,NA,NA,NA,NA,NA,NA
36c03,"""Falsch""-Screen",canvas.Screen,1_1_3_0_2,NA,NA,timeout,4996.2029999997,2499011.4000001,2499003.851,2499019.981,2503999.587,2504000.2000003,2023-08-11T08:27:34Z,2504016.184,"c(""distractor1"", ""distractor2"", ""distractor3"")",Qualität,mtindo,d,NA,NA,NA,NA,NA,0,NA,NA,NA,NA,NA,NA,NA,NA,NA,NA,NA,NA,NA,NA,NA,NA,NA,NA,NA,NA
36c03,deep,flow.Sequence,1_1_3_0,NA,NA,completion,11823.478,2492160.7000003,2492159.713,2492176.109,2503999.587,2504000.3000002,2023-08-11T08:27:34Z,2504016.184,"c(""distractor1"", ""distractor2"", ""distractor3"")",Qualität,mtindo,d,NA,NA,NA,NA,NA,NA,NA,NA,NA,NA,NA,NA,NA,NA,NA,NA,NA,NA,NA,NA,NA,NA,NA,NA,NA,NA
36c03,shallow,flow.Sequence,1_1_3_1,NA,NA,skipped,NA,2504000.5,NA,NA,2503999.587,2504000.5,2023-08-11T08:27:34Z,2504016.184,"c(""distractor1"", ""distractor2"", ""distractor3"")",Qualität,mtindo,d,NA,NA,NA,NA,NA,NA,NA,NA,NA,NA,NA,NA,NA,NA,NA,NA,NA,NA,NA,NA,NA,NA,NA,NA,NA,NA
36c03,task,flow.Sequence,1_1_3,NA,NA,completion,11823.478,2492160.7000003,2492159.713,2492176.109,2503999.587,2504000.7000003,2023-08-11T08:27:34Z,2504016.184,"c(""distractor1"", ""distractor2"", ""distractor3"")",Qualität,mtindo,d,NA,NA,NA,NA,NA,NA,NA,NA,NA,NA,NA,NA,NA,NA,NA,NA,NA,NA,NA,NA,NA,NA,NA,NA,NA,NA
36c03,Deep Question,html.Page,1_1_4_0_0,NA,NA,form submission,8583.5160002862,2504000.7000003,2503999.587,2504016.184,2512599.7000003,2512599.8000002,2023-08-11T08:27:42Z,2512608.736,"c(""distractor1"", ""distractor2"", ""distractor3"")",Schatten,kivuli,d,NA,NA,NA,tekash,NA,NA,NA,NA,NA,NA,NA,NA,NA,NA,NA,NA,NA,NA,NA,NA,NA,NA,NA,NA,NA,NA
36c03,"""Richtig""-Screen",canvas.Screen,1_1_4_0_1,NA,NA,skipped,NA,2512602.4000001,NA,NA,2512599.7000003,2512602.5999999,2023-08-11T08:27:42Z,2512608.736,"c(""distractor1"", ""distractor2"", ""distractor3"")",Schatten,kivuli,d,NA,NA,NA,NA,NA,NA,NA,NA,NA,NA,NA,NA,NA,NA,NA,NA,NA,NA,NA,NA,NA,NA,NA,NA,NA,NA
36c03,"""Falsch""-Screen",canvas.Screen,1_1_4_0_2,NA,NA,timeout,4995.963,2512603.5,2512592.513,2512608.736,2517588.539,2517589.5999999,2023-08-11T08:27:47Z,2517604.699,"c(""distractor1"", ""distractor2"", ""distractor3"")",Schatten,kivuli,d,NA,NA,NA,NA,NA,0,NA,NA,NA,NA,NA,NA,NA,NA,NA,NA,NA,NA,NA,NA,NA,NA,NA,NA,NA,NA
36c03,deep,flow.Sequence,1_1_4_0,NA,NA,completion,13572.355,2504000.7000003,2503999.587,2504016.184,2517588.539,2517590,2023-08-11T08:27:47Z,2517604.699,"c(""distractor1"", ""distractor2"", ""distractor3"")",Schatten,kivuli,d,NA,NA,NA,NA,NA,NA,NA,NA,NA,NA,NA,NA,NA,NA,NA,NA,NA,NA,NA,NA,NA,NA,NA,NA,NA,NA
36c03,shallow,flow.Sequence,1_1_4_1,NA,NA,skipped,NA,2517590.2000003,NA,NA,2517588.539,2517590.4000001,2023-08-11T08:27:47Z,2517604.699,"c(""distractor1"", ""distractor2"", ""distractor3"")",Schatten,kivuli,d,NA,NA,NA,NA,NA,NA,NA,NA,NA,NA,NA,NA,NA,NA,NA,NA,NA,NA,NA,NA,NA,NA,NA,NA,NA,NA
36c03,task,flow.Sequence,1_1_4,NA,NA,completion,13572.355,2504000.7000003,2503999.587,2504016.184,2517588.539,2517590.7000003,2023-08-11T08:27:47Z,2517604.699,"c(""distractor1"", ""distractor2"", ""distractor3"")",Schatten,kivuli,d,NA,NA,NA,NA,NA,NA,NA,NA,NA,NA,NA,NA,NA,NA,NA,NA,NA,NA,NA,NA,NA,NA,NA,NA,NA,NA
36c03,deep,flow.Sequence,1_1_5_0,NA,NA,skipped,NA,2517590.9000001,NA,NA,2517588.539,2517591,2023-08-11T08:27:47Z,2517604.699,"c(""distractor1"", ""distractor2"", ""distractor3"")",Gegenwart,hadhara,s,katiba,jokofu,mikopo,NA,NA,NA,NA,NA,NA,NA,NA,NA,NA,NA,NA,NA,NA,NA,NA,NA,NA,NA,NA,NA,NA,NA
36c03,Shallow Question,html.Page,1_1_5_1_0,NA,NA,form submission,7164.2010000953,2517591.2000003,2517588.539,2517604.699,2524768.9000001,2524769.0999999,2023-08-11T08:27:55Z,2524782.63,"c(""distractor1"", ""distractor2"", ""distractor3"")",Gegenwart,hadhara,s,katiba,jokofu,mikopo,mikopo,NA,NA,NA,NA,NA,NA,NA,NA,NA,NA,NA,NA,NA,NA,NA,NA,NA,NA,NA,NA,NA,NA
36c03,"""Richtig""-Screen",canvas.Screen,1_1_5_1_1,NA,NA,skipped,NA,2524771,NA,NA,2524768.9000001,2524771.2000003,2023-08-11T08:27:55Z,2524782.63,"c(""distractor1"", ""distractor2"", ""distractor3"")",Gegenwart,hadhara,s,katiba,jokofu,mikopo,NA,NA,NA,NA,NA,NA,NA,NA,NA,NA,NA,NA,NA,NA,NA,NA,NA,NA,NA,NA,NA,NA,NA
36c03,"""Falsch""-Screen",canvas.Screen,1_1_5_1_2,NA,NA,timeout,4996.0109999999,2524771.8000002,2524765.933,2524782.63,2529761.946,2529762.5,2023-08-11T08:28:00Z,2529778.641,"c(""distractor1"", ""distractor2"", ""distractor3"")",Gegenwart,hadhara,s,katiba,jokofu,mikopo,NA,NA,0,NA,NA,NA,NA,NA,NA,NA,NA,NA,NA,NA,NA,NA,NA,NA,NA,NA,NA,NA,NA
36c03,shallow,flow.Sequence,1_1_5_1,NA,NA,completion,12157.247,2517591.2000003,2517588.539,2517604.699,2529761.946,2529762.5999999,2023-08-11T08:28:00Z,2529778.641,"c(""distractor1"", ""distractor2"", ""distractor3"")",Gegenwart,hadhara,s,katiba,jokofu,mikopo,NA,NA,NA,NA,NA,NA,NA,NA,NA,NA,NA,NA,NA,NA,NA,NA,NA,NA,NA,NA,NA,NA,NA
36c03,task,flow.Sequence,1_1_5,NA,NA,completion,12157.247,2517590.8000002,2517588.539,2517604.699,2529761.946,2529762.8000002,2023-08-11T08:28:00Z,2529778.641,"c(""distractor1"", ""distractor2"", ""distractor3"")",Gegenwart,hadhara,s,katiba,jokofu,mikopo,NA,NA,NA,NA,NA,NA,NA,NA,NA,NA,NA,NA,NA,NA,NA,NA,NA,NA,NA,NA,NA,NA,NA
36c03,block,flow.Loop,1_1,NA,NA,completion,75338.722,2454416.3000002,2454406.169,2454423.224,2529761.946,2529763,2023-08-11T08:28:00Z,2529778.641,"c(""distractor1"", ""distractor2"", ""distractor3"")",NA,NA,NA,NA,NA,NA,NA,NA,NA,NA,NA,NA,NA,NA,NA,NA,NA,NA,NA,NA,NA,NA,NA,NA,NA,NA,NA,NA,NA
36c03,Practice,flow.Sequence,1,NA,NA,completion,82849.146,2446918.5,2446893.997,2446912.8,2529761.946,2529763.0999999,2023-08-11T08:28:00Z,2529778.641,NULL,NA,NA,NA,NA,NA,NA,NA,NA,NA,NA,NA,NA,NA,NA,NA,NA,NA,NA,NA,NA,NA,NA,NA,NA,NA,NA,NA,NA,NA
36c03,Experiment start,canvas.Screen,2,weiter,keypress(q),response,6230.3590000002,2529763.0999999,2529761.946,2529778.641,2536009,2536010.2000003,2023-08-11T08:28:06Z,2536089.437,NULL,NA,NA,NA,NA,NA,NA,NA,NA,NA,NA,NA,NA,NA,NA,NA,NA,NA,NA,NA,NA,NA,NA,NA,NA,NA,NA,NA,NA,NA
36c03,Deep Question,html.Page,3_0_0_0_0_0_0,NA,NA,form submission,14193.363000191,2536087.9000001,2536072.546,2536089.437,2550282.8000002,2550282.9000001,2023-08-11T08:28:20Z,2550294.715,NULL,Schlange,foleni,d,NA,NA,NA,kumweba,NA,NA,0,NA,NA,NA,NA,NA,NA,NA,NA,NA,NA,NA,NA,NA,NA,NA,NA,NA,NA,NA
36c03,"""Richtig""-Screen",canvas.Screen,3_0_0_0_0_0_1,NA,NA,skipped,NA,2550285,NA,NA,2550282.8000002,2550285.2000003,2023-08-11T08:28:20Z,2550294.715,NULL,Schlange,foleni,d,NA,NA,NA,NA,sdf,NA,0,NA,NA,NA,NA,NA,NA,NA,NA,NA,NA,NA,NA,NA,NA,NA,NA,NA,NA,NA
36c03,"""Falsch""-Screen",canvas.Screen,3_0_0_0_0_0_2,NA,NA,timeout,4995.9390000002,2550285.9000001,2550278.115,2550294.715,2555273.777,2555274.8000002,2023-08-11T08:28:25Z,2555290.654,NULL,Schlange,foleni,d,NA,NA,NA,NA,sdf,0,0,NA,NA,NA,NA,NA,NA,NA,NA,NA,NA,NA,NA,NA,NA,NA,NA,NA,NA,NA
36c03,deep,flow.Sequence,3_0_0_0_0_0,NA,NA,completion,19184.34,2536087.8000002,2536072.546,2536089.437,2555273.777,2555275.3000002,2023-08-11T08:28:25Z,2555290.654,NULL,Schlange,foleni,d,NA,NA,NA,NA,sdf,NA,0,NA,NA,NA,NA,NA,NA,NA,NA,NA,NA,NA,NA,NA,NA,NA,NA,NA,NA,NA
36c03,shallow,flow.Sequence,3_0_0_0_0_1,NA,NA,skipped,NA,2555275.5,NA,NA,2555273.777,2555275.7000003,2023-08-11T08:28:25Z,2555290.654,NULL,Schlange,foleni,d,NA,NA,NA,NA,sdf,NA,0,NA,NA,NA,NA,NA,NA,NA,NA,NA,NA,NA,NA,NA,NA,NA,NA,NA,NA,NA
36c03,task,flow.Sequence,3_0_0_0_0,NA,NA,completion,19184.34,2536087.8000002,2536072.546,2536089.437,2555273.777,2555276.0999999,2023-08-11T08:28:25Z,2555290.654,NULL,Schlange,foleni,d,NA,NA,NA,NA,sdf,NA,0,NA,NA,NA,NA,NA,NA,NA,NA,NA,NA,NA,NA,NA,NA,NA,NA,NA,NA,NA
36c03,Deep Question,html.Page,3_0_0_0_1_0_0,NA,NA,form submission,7059.1460001906,2555276.3000002,2555273.777,2555290.654,2562349.8000002,2562349.9000001,2023-08-11T08:28:32Z,2562368.515,NULL,Begegnung,kukutana,d,NA,NA,NA,srekeyn,NA,NA,0,NA,NA,NA,NA,NA,NA,NA,NA,NA,NA,NA,NA,NA,NA,NA,NA,NA,NA,NA
36c03,"""Richtig""-Screen",canvas.Screen,3_0_0_0_1_0_1,NA,NA,skipped,NA,2562352.0999999,NA,NA,2562349.8000002,2562352.3000002,2023-08-11T08:28:32Z,2562368.515,NULL,Begegnung,kukutana,d,NA,NA,NA,NA,sdf,NA,0,NA,NA,NA,NA,NA,NA,NA,NA,NA,NA,NA,NA,NA,NA,NA,NA,NA,NA,NA
36c03,"""Falsch""-Screen",canvas.Screen,3_0_0_0_1_0_2,NA,NA,timeout,4995.338,2562353,2562351.205,2562368.515,2567347.631,2567348.5,2023-08-11T08:28:37Z,2567363.853,NULL,Begegnung,kukutana,d,NA,NA,NA,NA,sdf,0,0,NA,NA,NA,NA,NA,NA,NA,NA,NA,NA,NA,NA,NA,NA,NA,NA,NA,NA,NA
36c03,deep,flow.Sequence,3_0_0_0_1_0,NA,NA,completion,12056.977,2555276.3000002,2555273.777,2555290.654,2567347.631,2567349,2023-08-11T08:28:37Z,2567363.853,NULL,Begegnung,kukutana,d,NA,NA,NA,NA,sdf,NA,0,NA,NA,NA,NA,NA,NA,NA,NA,NA,NA,NA,NA,NA,NA,NA,NA,NA,NA,NA
36c03,shallow,flow.Sequence,3_0_0_0_1_1,NA,NA,skipped,NA,2567349.0999999,NA,NA,2567347.631,2567349.4000001,2023-08-11T08:28:37Z,2567363.853,NULL,Begegnung,kukutana,d,NA,NA,NA,NA,sdf,NA,0,NA,NA,NA,NA,NA,NA,NA,NA,NA,NA,NA,NA,NA,NA,NA,NA,NA,NA,NA
36c03,task,flow.Sequence,3_0_0_0_1,NA,NA,completion,12056.977,2555276.2000003,2555273.777,2555290.654,2567347.631,2567349.5999999,2023-08-11T08:28:37Z,2567363.853,NULL,Begegnung,kukutana,d,NA,NA,NA,NA,sdf,NA,0,NA,NA,NA,NA,NA,NA,NA,NA,NA,NA,NA,NA,NA,NA,NA,NA,NA,NA,NA
36c03,deep,flow.Sequence,3_0_0_0_2_0,NA,NA,skipped,NA,2567349.9000001,NA,NA,2567347.631,2567350.0999999,2023-08-11T08:28:37Z,2567363.853,NULL,Inhalt,yaliyomo,s,kishawishi,hifadhi,kutembea,NA,sdf,NA,0,NA,NA,NA,NA,NA,NA,NA,NA,NA,NA,NA,NA,NA,NA,NA,NA,NA,NA,NA
36c03,Shallow Question,html.Page,3_0_0_0_2_1_0,NA,NA,form submission,5833.6469999999,2567350.2000003,2567347.631,2567363.853,2573197.5,2573197.7000003,2023-08-11T08:28:43Z,2573209.079,NULL,Inhalt,yaliyomo,s,kishawishi,hifadhi,kutembea,hifadhi,NA,NA,0,NA,NA,NA,NA,NA,NA,NA,NA,NA,NA,NA,NA,NA,NA,NA,NA,NA,NA,NA
36c03,"""Richtig""-Screen",canvas.Screen,3_0_0_0_2_1_1,NA,NA,skipped,NA,2573199.5999999,NA,NA,2573197.5,2573199.7000003,2023-08-11T08:28:43Z,2573209.079,NULL,Inhalt,yaliyomo,s,kishawishi,hifadhi,kutembea,NA,sdf,NA,0,NA,NA,NA,NA,NA,NA,NA,NA,NA,NA,NA,NA,NA,NA,NA,NA,NA,NA,NA
36c03,"""Falsch""-Screen",canvas.Screen,3_0_0_0_2_1_2,NA,NA,timeout,4996.1699999999,2573200.2000003,2573192.834,2573209.079,2578188.325,2578188.9000001,2023-08-11T08:28:48Z,2578205.249,NULL,Inhalt,yaliyomo,s,kishawishi,hifadhi,kutembea,NA,sdf,0,0,NA,NA,NA,NA,NA,NA,NA,NA,NA,NA,NA,NA,NA,NA,NA,NA,NA,NA,NA
36c03,shallow,flow.Sequence,3_0_0_0_2_1,NA,NA,completion,10824.472,2567350.0999999,2567347.631,2567363.853,2578188.325,2578189,2023-08-11T08:28:48Z,2578205.249,NULL,Inhalt,yaliyomo,s,kishawishi,hifadhi,kutembea,NA,sdf,NA,0,NA,NA,NA,NA,NA,NA,NA,NA,NA,NA,NA,NA,NA,NA,NA,NA,NA,NA,NA
36c03,task,flow.Sequence,3_0_0_0_2,NA,NA,completion,10824.472,2567349.8000002,2567347.631,2567363.853,2578188.325,2578189.0999999,2023-08-11T08:28:48Z,2578205.249,NULL,Inhalt,yaliyomo,s,kishawishi,hifadhi,kutembea,NA,sdf,NA,0,NA,NA,NA,NA,NA,NA,NA,NA,NA,NA,NA,NA,NA,NA,NA,NA,NA,NA,NA
36c03,deep,flow.Sequence,3_0_0_0_3_0,NA,NA,skipped,NA,2578189.3000002,NA,NA,2578188.325,2578189.4000001,2023-08-11T08:28:48Z,2578205.249,NULL,Vermutung,udhanifu,s,haramia,tikisho,itifaki,NA,sdf,NA,0,NA,NA,NA,NA,NA,NA,NA,NA,NA,NA,NA,NA,NA,NA,NA,NA,NA,NA,NA
36c03,Shallow Question,html.Page,3_0_0_0_3_1_0,NA,NA,form submission,4956.4510002863,2578189.4000001,2578188.325,2578205.249,2583161.7000003,2583161.9000001,2023-08-11T08:28:53Z,2583167.419,NULL,Vermutung,udhanifu,s,haramia,tikisho,itifaki,tikisho,NA,NA,0,NA,NA,NA,NA,NA,NA,NA,NA,NA,NA,NA,NA,NA,NA,NA,NA,NA,NA,NA
36c03,"""Richtig""-Screen",canvas.Screen,3_0_0_0_3_1_1,NA,NA,skipped,NA,2583163.7000003,NA,NA,2583161.7000003,2583163.9000001,2023-08-11T08:28:53Z,2583167.419,NULL,Vermutung,udhanifu,s,haramia,tikisho,itifaki,NA,sdf,NA,0,NA,NA,NA,NA,NA,NA,NA,NA,NA,NA,NA,NA,NA,NA,NA,NA,NA,NA,NA
36c03,"""Falsch""-Screen",canvas.Screen,3_0_0_0_3_1_2,NA,NA,timeout,4996.1739999996,2583164.4000001,2583150.819,2583167.419,2588146.963,2588148.7000003,2023-08-11T08:28:58Z,2588163.593,NULL,Vermutung,udhanifu,s,haramia,tikisho,itifaki,NA,sdf,0,0,NA,NA,NA,NA,NA,NA,NA,NA,NA,NA,NA,NA,NA,NA,NA,NA,NA,NA,NA
36c03,shallow,flow.Sequence,3_0_0_0_3_1,NA,NA,completion,9941.7140000002,2578189.4000001,2578188.325,2578205.249,2588146.963,2588149.3000002,2023-08-11T08:28:58Z,2588163.593,NULL,Vermutung,udhanifu,s,haramia,tikisho,itifaki,NA,sdf,NA,0,NA,NA,NA,NA,NA,NA,NA,NA,NA,NA,NA,NA,NA,NA,NA,NA,NA,NA,NA
36c03,task,flow.Sequence,3_0_0_0_3,NA,NA,completion,9941.7140000002,2578189.2000003,2578188.325,2578205.249,2588146.963,2588149.7000003,2023-08-11T08:28:58Z,2588163.593,NULL,Vermutung,udhanifu,s,haramia,tikisho,itifaki,NA,sdf,NA,0,NA,NA,NA,NA,NA,NA,NA,NA,NA,NA,NA,NA,NA,NA,NA,NA,NA,NA,NA
36c03,deep,flow.Sequence,3_0_0_0_4_0,NA,NA,skipped,NA,2588149.9000001,NA,NA,2588146.963,2588150.0999999,2023-08-11T08:28:58Z,2588163.593,NULL,Integrität,uadilifu,s,muungano,mtiririko,upunguaji,NA,sdf,NA,0,NA,NA,NA,NA,NA,NA,NA,NA,NA,NA,NA,NA,NA,NA,NA,NA,NA,NA,NA
36c03,Shallow Question,html.Page,3_0_0_0_4_1_0,NA,NA,form submission,5723.1070002862,2588150.3000002,2588146.963,2588163.593,2593886.7000003,2593886.9000001,2023-08-11T08:29:04Z,2593891.899,NULL,Integrität,uadilifu,s,muungano,mtiririko,upunguaji,uadilifu,NA,NA,0,NA,NA,NA,NA,NA,NA,NA,NA,NA,NA,NA,NA,NA,NA,NA,NA,NA,NA,NA
36c03,"""Richtig""-Screen",canvas.Screen,3_0_0_0_4_1_1,NA,NA,timeout,4995.9699999997,2593888.7000003,2593875.775,2593891.899,2598871.299,2598872.9000001,2023-08-11T08:29:09Z,2598887.869,NULL,Integrität,uadilifu,s,muungano,mtiririko,upunguaji,NA,sdf,1,0,NA,NA,NA,NA,NA,NA,NA,NA,NA,NA,NA,NA,NA,NA,NA,NA,NA,NA,NA
36c03,"""Falsch""-Screen",canvas.Screen,3_0_0_0_4_1_2,NA,NA,skipped,NA,2598874.9000001,NA,NA,2598871.299,2598875,2023-08-11T08:29:09Z,2598887.869,NULL,Integrität,uadilifu,s,muungano,mtiririko,upunguaji,NA,sdf,NA,0,NA,NA,NA,NA,NA,NA,NA,NA,NA,NA,NA,NA,NA,NA,NA,NA,NA,NA,NA
36c03,shallow,flow.Sequence,3_0_0_0_4_1,NA,NA,completion,10707.706,2588150.3000002,2588146.963,2588163.593,2598871.299,2598875.0999999,2023-08-11T08:29:09Z,2598887.869,NULL,Integrität,uadilifu,s,muungano,mtiririko,upunguaji,NA,sdf,NA,0,NA,NA,NA,NA,NA,NA,NA,NA,NA,NA,NA,NA,NA,NA,NA,NA,NA,NA,NA
36c03,task,flow.Sequence,3_0_0_0_4,NA,NA,completion,10707.706,2588149.9000001,2588146.963,2588163.593,2598871.299,2598875.2000003,2023-08-11T08:29:09Z,2598887.869,NULL,Integrität,uadilifu,s,muungano,mtiririko,upunguaji,NA,sdf,NA,0,NA,NA,NA,NA,NA,NA,NA,NA,NA,NA,NA,NA,NA,NA,NA,NA,NA,NA,NA
36c03,Deep Question,html.Page,3_0_0_0_5_0_0,NA,NA,form submission,8973.1310000001,2598875.9000001,2598871.299,2598887.869,2607861,2607861.2000003,2023-08-11T08:29:18Z,2607863.778,NULL,Genehmigung,idhini,d,NA,NA,NA,zulaw,NA,NA,0,NA,NA,NA,NA,NA,NA,NA,NA,NA,NA,NA,NA,NA,NA,NA,NA,NA,NA,NA
36c03,"""Richtig""-Screen",canvas.Screen,3_0_0_0_5_0_1,NA,NA,skipped,NA,2607864,NA,NA,2607861,2607864.0999999,2023-08-11T08:29:18Z,2607863.778,NULL,Genehmigung,idhini,d,NA,NA,NA,NA,sdf,NA,0,NA,NA,NA,NA,NA,NA,NA,NA,NA,NA,NA,NA,NA,NA,NA,NA,NA,NA,NA
36c03,"""Falsch""-Screen",canvas.Screen,3_0_0_0_5_0_2,NA,NA,timeout,4996.3170000003,2607864.9000001,2607847.681,2607863.778,2612843.563,2612844.5999999,2023-08-11T08:29:23Z,2612860.095,NULL,Genehmigung,idhini,d,NA,NA,NA,NA,sdf,0,0,NA,NA,NA,NA,NA,NA,NA,NA,NA,NA,NA,NA,NA,NA,NA,NA,NA,NA,NA
36c03,deep,flow.Sequence,3_0_0_0_5_0,NA,NA,completion,13955.694,2598875.9000001,2598871.299,2598887.869,2612843.563,2612845.4000001,2023-08-11T08:29:23Z,2612860.095,NULL,Genehmigung,idhini,d,NA,NA,NA,NA,sdf,NA,0,NA,NA,NA,NA,NA,NA,NA,NA,NA,NA,NA,NA,NA,NA,NA,NA,NA,NA,NA
36c03,shallow,flow.Sequence,3_0_0_0_5_1,NA,NA,skipped,NA,2612845.5,NA,NA,2612843.563,2612845.8000002,2023-08-11T08:29:23Z,2612860.095,NULL,Genehmigung,idhini,d,NA,NA,NA,NA,sdf,NA,0,NA,NA,NA,NA,NA,NA,NA,NA,NA,NA,NA,NA,NA,NA,NA,NA,NA,NA,NA
36c03,task,flow.Sequence,3_0_0_0_5,NA,NA,completion,13955.694,2598875.8000002,2598871.299,2598887.869,2612843.563,2612846,2023-08-11T08:29:23Z,2612860.095,NULL,Genehmigung,idhini,d,NA,NA,NA,NA,sdf,NA,0,NA,NA,NA,NA,NA,NA,NA,NA,NA,NA,NA,NA,NA,NA,NA,NA,NA,NA,NA
36c03,deep,flow.Sequence,3_0_0_0_6_0,NA,NA,skipped,NA,2612846.3000002,NA,NA,2612843.563,2612846.4000001,2023-08-11T08:29:23Z,2612860.095,NULL,Fleisch,mshakiki,s,kizunguzungu,mshikamano,angusho,NA,sdf,NA,0,NA,NA,NA,NA,NA,NA,NA,NA,NA,NA,NA,NA,NA,NA,NA,NA,NA,NA,NA
36c03,Shallow Question,html.Page,3_0_0_0_6_1_0,NA,NA,form submission,6677.2050001905,2612846.5999999,2612843.563,2612860.095,2619537.3000002,2619537.4000001,2023-08-11T08:29:29Z,2619554.661,NULL,Fleisch,mshakiki,s,kizunguzungu,mshikamano,angusho,mshikamano,NA,NA,0,NA,NA,NA,NA,NA,NA,NA,NA,NA,NA,NA,NA,NA,NA,NA,NA,NA,NA,NA
36c03,"""Richtig""-Screen",canvas.Screen,3_0_0_0_6_1_1,NA,NA,skipped,NA,2619539.5,NA,NA,2619537.3000002,2619539.5999999,2023-08-11T08:29:29Z,2619554.661,NULL,Fleisch,mshakiki,s,kizunguzungu,mshikamano,angusho,NA,sdf,NA,0,NA,NA,NA,NA,NA,NA,NA,NA,NA,NA,NA,NA,NA,NA,NA,NA,NA,NA,NA
36c03,"""Falsch""-Screen",canvas.Screen,3_0_0_0_6_1_2,NA,NA,timeout,4996.156,2619540.4000001,2619521.375,2619554.661,2624533.491,2624535.3000002,2023-08-11T08:29:34Z,2624550.817,NULL,Fleisch,mshakiki,s,kizunguzungu,mshikamano,angusho,NA,sdf,0,0,NA,NA,NA,NA,NA,NA,NA,NA,NA,NA,NA,NA,NA,NA,NA,NA,NA,NA,NA
36c03,shallow,flow.Sequence,3_0_0_0_6_1,NA,NA,completion,11673.396,2612846.5999999,2612843.563,2612860.095,2624533.491,2624535.7000003,2023-08-11T08:29:34Z,2624550.817,NULL,Fleisch,mshakiki,s,kizunguzungu,mshikamano,angusho,NA,sdf,NA,0,NA,NA,NA,NA,NA,NA,NA,NA,NA,NA,NA,NA,NA,NA,NA,NA,NA,NA,NA
36c03,task,flow.Sequence,3_0_0_0_6,NA,NA,completion,11673.396,2612846.2000003,2612843.563,2612860.095,2624533.491,2624536,2023-08-11T08:29:34Z,2624550.817,NULL,Fleisch,mshakiki,s,kizunguzungu,mshikamano,angusho,NA,sdf,NA,0,NA,NA,NA,NA,NA,NA,NA,NA,NA,NA,NA,NA,NA,NA,NA,NA,NA,NA,NA
36c03,Deep Question,html.Page,3_0_0_0_7_0_0,NA,NA,form submission,6951.1830000002,2624536.3000002,2624533.491,2624550.817,2631502,2631502.2000003,2023-08-11T08:29:41Z,2631510.976,NULL,Toleranz,kuvumiliana,d,NA,NA,NA,forenza,NA,NA,0,NA,NA,NA,NA,NA,NA,NA,NA,NA,NA,NA,NA,NA,NA,NA,NA,NA,NA,NA
36c03,"""Richtig""-Screen",canvas.Screen,3_0_0_0_7_0_1,NA,NA,skipped,NA,2631504.8000002,NA,NA,2631502,2631505,2023-08-11T08:29:41Z,2631510.976,NULL,Toleranz,kuvumiliana,d,NA,NA,NA,NA,sdf,NA,0,NA,NA,NA,NA,NA,NA,NA,NA,NA,NA,NA,NA,NA,NA,NA,NA,NA,NA,NA
36c03,"""Falsch""-Screen",canvas.Screen,3_0_0_0_7_0_2,NA,NA,timeout,4996.327,2631505.5999999,2631494.753,2631510.976,2636490.71,2636491.7000003,2023-08-11T08:29:46Z,2636507.303,NULL,Toleranz,kuvumiliana,d,NA,NA,NA,NA,sdf,0,0,NA,NA,NA,NA,NA,NA,NA,NA,NA,NA,NA,NA,NA,NA,NA,NA,NA,NA,NA
36c03,deep,flow.Sequence,3_0_0_0_7_0,NA,NA,completion,11939.893,2624536.3000002,2624533.491,2624550.817,2636490.71,2636492.4000001,2023-08-11T08:29:46Z,2636507.303,NULL,Toleranz,kuvumiliana,d,NA,NA,NA,NA,sdf,NA,0,NA,NA,NA,NA,NA,NA,NA,NA,NA,NA,NA,NA,NA,NA,NA,NA,NA,NA,NA
36c03,shallow,flow.Sequence,3_0_0_0_7_1,NA,NA,skipped,NA,2636492.5,NA,NA,2636490.71,2636492.7000003,2023-08-11T08:29:46Z,2636507.303,NULL,Toleranz,kuvumiliana,d,NA,NA,NA,NA,sdf,NA,0,NA,NA,NA,NA,NA,NA,NA,NA,NA,NA,NA,NA,NA,NA,NA,NA,NA,NA,NA
36c03,task,flow.Sequence,3_0_0_0_7,NA,NA,completion,11939.893,2624536.0999999,2624533.491,2624550.817,2636490.71,2636493,2023-08-11T08:29:46Z,2636507.303,NULL,Toleranz,kuvumiliana,d,NA,NA,NA,NA,sdf,NA,0,NA,NA,NA,NA,NA,NA,NA,NA,NA,NA,NA,NA,NA,NA,NA,NA,NA,NA,NA
36c03,block,flow.Loop,3_0_0_0,NA,NA,completion,100401.273,2536087.7000003,2536072.546,2536089.437,2636490.71,2636493.3000002,2023-08-11T08:29:46Z,2636507.303,NULL,NA,NA,NA,NA,NA,NA,NA,sdf,NA,0,NA,NA,NA,NA,NA,NA,NA,NA,NA,NA,NA,NA,NA,NA,NA,NA,NA,NA,NA
36c03,weiter,canvas.Screen,3_0_0_1,sdf,keypress(Space),response,1535.7969999048,2636493.5,2636490.71,2636507.303,2638043.0999999,2638044.4000001,2023-08-11T08:29:48Z,2638089.276,NULL,NA,NA,NA,NA,NA,NA,NA,sdf,NA,0,NA,NA,NA,NA,NA,NA,NA,NA,NA,NA,NA,NA,NA,NA,NA,NA,NA,NA,NA
36c03,check continue,flow.Sequence,3_0_0,NA,NA,completion,101953.6629999,2536087.7000003,2536072.546,2536089.437,2638043.0999999,2638044.8000002,2023-08-11T08:29:48Z,2638089.276,NULL,NA,NA,NA,NA,NA,NA,NA,sdf,NA,0,NA,NA,NA,NA,NA,NA,NA,NA,NA,NA,NA,NA,NA,NA,NA,NA,NA,NA,NA
36c03,deep,flow.Sequence,3_0_1_0_0_0,NA,NA,skipped,NA,2638083,NA,NA,2638043.0999999,2638083.0999999,2023-08-11T08:29:48Z,2638089.276,NULL,Inhalt,yaliyomo,s,kishawishi,hifadhi,kutembea,NA,sdfdsf,NA,1,NA,NA,NA,NA,NA,NA,NA,NA,NA,NA,NA,NA,NA,NA,NA,NA,NA,NA,NA
36c03,Shallow Question,html.Page,3_0_1_0_0_1_0,NA,NA,form submission,3095.924000286,2638083.0999999,2638072.773,2638089.276,2641185.2000003,2641185.4000001,2023-08-11T08:29:51Z,2641186.39,NULL,Inhalt,yaliyomo,s,kishawishi,hifadhi,kutembea,yaliyomo,NA,NA,1,NA,NA,NA,NA,NA,NA,NA,NA,NA,NA,NA,NA,NA,NA,NA,NA,NA,NA,NA
36c03,"""Richtig""-Screen",canvas.Screen,3_0_1_0_0_1_1,NA,NA,timeout,4995.9389999998,2641186,2641169.949,2641186.39,2646165.89,2646166.9000001,2023-08-11T08:29:56Z,2646182.329,NULL,Inhalt,yaliyomo,s,kishawishi,hifadhi,kutembea,NA,sdfdsf,1,1,NA,NA,NA,NA,NA,NA,NA,NA,NA,NA,NA,NA,NA,NA,NA,NA,NA,NA,NA
36c03,"""Falsch""-Screen",canvas.Screen,3_0_1_0_0_1_2,NA,NA,skipped,NA,2646172.2000003,NA,NA,2646165.89,2646172.7000003,2023-08-11T08:29:56Z,2646182.329,NULL,Inhalt,yaliyomo,s,kishawishi,hifadhi,kutembea,NA,sdfdsf,NA,1,NA,NA,NA,NA,NA,NA,NA,NA,NA,NA,NA,NA,NA,NA,NA,NA,NA,NA,NA
36c03,shallow,flow.Sequence,3_0_1_0_0_1,NA,NA,completion,8076.6140000001,2638083.0999999,2638072.773,2638089.276,2646165.89,2646173.0999999,2023-08-11T08:29:56Z,2646182.329,NULL,Inhalt,yaliyomo,s,kishawishi,hifadhi,kutembea,NA,sdfdsf,NA,1,NA,NA,NA,NA,NA,NA,NA,NA,NA,NA,NA,NA,NA,NA,NA,NA,NA,NA,NA
36c03,task,flow.Sequence,3_0_1_0_0,NA,NA,completion,8076.6140000001,2638083,2638072.773,2638089.276,2646165.89,2646173.3000002,2023-08-11T08:29:56Z,2646182.329,NULL,Inhalt,yaliyomo,s,kishawishi,hifadhi,kutembea,NA,sdfdsf,NA,1,NA,NA,NA,NA,NA,NA,NA,NA,NA,NA,NA,NA,NA,NA,NA,NA,NA,NA,NA
36c03,Deep Question,html.Page,3_0_1_0_1_0_0,NA,NA,form submission,5677.3710002862,2646173.7000003,2646165.89,2646182.329,2651859.7000003,2651859.9000001,2023-08-11T08:30:02Z,2651860.938,NULL,Begegnung,kukutana,d,NA,NA,NA,foleni,NA,NA,1,NA,NA,NA,NA,NA,NA,NA,NA,NA,NA,NA,NA,NA,NA,NA,NA,NA,NA,NA
36c03,"""Richtig""-Screen",canvas.Screen,3_0_1_0_1_0_1,NA,NA,skipped,NA,2651862,NA,NA,2651859.7000003,2651862.2000003,2023-08-11T08:30:02Z,2651860.938,NULL,Begegnung,kukutana,d,NA,NA,NA,NA,sdfdsf,NA,1,NA,NA,NA,NA,NA,NA,NA,NA,NA,NA,NA,NA,NA,NA,NA,NA,NA,NA,NA
36c03,"""Falsch""-Screen",canvas.Screen,3_0_1_0_1_0_2,NA,NA,timeout,4996.6459999997,2651863,2651845.059,2651860.938,2656840.714,2656841.7000003,2023-08-11T08:30:07Z,2656857.584,NULL,Begegnung,kukutana,d,NA,NA,NA,NA,sdfdsf,0,1,NA,NA,NA,NA,NA,NA,NA,NA,NA,NA,NA,NA,NA,NA,NA,NA,NA,NA,NA
36c03,deep,flow.Sequence,3_0_1_0_1_0,NA,NA,completion,10658.385,2646173.7000003,2646165.89,2646182.329,2656840.714,2656842.0999999,2023-08-11T08:30:07Z,2656857.584,NULL,Begegnung,kukutana,d,NA,NA,NA,NA,sdfdsf,NA,1,NA,NA,NA,NA,NA,NA,NA,NA,NA,NA,NA,NA,NA,NA,NA,NA,NA,NA,NA
36c03,shallow,flow.Sequence,3_0_1_0_1_1,NA,NA,skipped,NA,2656842.3000002,NA,NA,2656840.714,2656842.5,2023-08-11T08:30:07Z,2656857.584,NULL,Begegnung,kukutana,d,NA,NA,NA,NA,sdfdsf,NA,1,NA,NA,NA,NA,NA,NA,NA,NA,NA,NA,NA,NA,NA,NA,NA,NA,NA,NA,NA
36c03,task,flow.Sequence,3_0_1_0_1,NA,NA,completion,10658.385,2646173.5999999,2646165.89,2646182.329,2656840.714,2656842.8000002,2023-08-11T08:30:07Z,2656857.584,NULL,Begegnung,kukutana,d,NA,NA,NA,NA,sdfdsf,NA,1,NA,NA,NA,NA,NA,NA,NA,NA,NA,NA,NA,NA,NA,NA,NA,NA,NA,NA,NA
36c03,Deep Question,html.Page,3_0_1_0_2_0_0,NA,NA,form submission,12470.616000286,2656843.0999999,2656840.714,2656857.584,2669328.2000003,2669328.4000001,2023-08-11T08:30:19Z,2669329.893,NULL,Toleranz,kuvumiliana,d,NA,NA,NA,kukumulitana,NA,NA,1,NA,NA,NA,NA,NA,NA,NA,NA,NA,NA,NA,NA,NA,NA,NA,NA,NA,NA,NA
36c03,"""Richtig""-Screen",canvas.Screen,3_0_1_0_2_0_1,NA,NA,skipped,NA,2669330.5,NA,NA,2669328.2000003,2669330.7000003,2023-08-11T08:30:19Z,2669329.893,NULL,Toleranz,kuvumiliana,d,NA,NA,NA,NA,sdfdsf,NA,1,NA,NA,NA,NA,NA,NA,NA,NA,NA,NA,NA,NA,NA,NA,NA,NA,NA,NA,NA
36c03,"""Falsch""-Screen",canvas.Screen,3_0_1_0_2_0_2,NA,NA,timeout,4996.301,2669331.7000003,2669313.838,2669329.893,2674309.687,2674310.2000003,2023-08-11T08:30:24Z,2674326.194,NULL,Toleranz,kuvumiliana,d,NA,NA,NA,NA,sdfdsf,0,1,NA,NA,NA,NA,NA,NA,NA,NA,NA,NA,NA,NA,NA,NA,NA,NA,NA,NA,NA
36c03,deep,flow.Sequence,3_0_1_0_2_0,NA,NA,completion,17452.103,2656843.0999999,2656840.714,2656857.584,2674309.687,2674310.3000002,2023-08-11T08:30:24Z,2674326.194,NULL,Toleranz,kuvumiliana,d,NA,NA,NA,NA,sdfdsf,NA,1,NA,NA,NA,NA,NA,NA,NA,NA,NA,NA,NA,NA,NA,NA,NA,NA,NA,NA,NA
36c03,shallow,flow.Sequence,3_0_1_0_2_1,NA,NA,skipped,NA,2674310.4000001,NA,NA,2674309.687,2674310.5999999,2023-08-11T08:30:24Z,2674326.194,NULL,Toleranz,kuvumiliana,d,NA,NA,NA,NA,sdfdsf,NA,1,NA,NA,NA,NA,NA,NA,NA,NA,NA,NA,NA,NA,NA,NA,NA,NA,NA,NA,NA
36c03,task,flow.Sequence,3_0_1_0_2,NA,NA,completion,17452.103,2656843,2656840.714,2656857.584,2674309.687,2674310.7000003,2023-08-11T08:30:24Z,2674326.194,NULL,Toleranz,kuvumiliana,d,NA,NA,NA,NA,sdfdsf,NA,1,NA,NA,NA,NA,NA,NA,NA,NA,NA,NA,NA,NA,NA,NA,NA,NA,NA,NA,NA
36c03,deep,flow.Sequence,3_0_1_0_3_0,NA,NA,skipped,NA,2674310.8000002,NA,NA,2674309.687,2674310.9000001,2023-08-11T08:30:24Z,2674326.194,NULL,Vermutung,udhanifu,s,haramia,tikisho,itifaki,NA,sdfdsf,NA,1,NA,NA,NA,NA,NA,NA,NA,NA,NA,NA,NA,NA,NA,NA,NA,NA,NA,NA,NA
36c03,Shallow Question,html.Page,3_0_1_0_3_1_0,NA,NA,form submission,11159.306,2674310.9000001,2674309.687,2674326.194,2685485.5,2685485.7000003,2023-08-11T08:30:35Z,2685500.593,NULL,Vermutung,udhanifu,s,haramia,tikisho,itifaki,udhanifu,NA,NA,1,NA,NA,NA,NA,NA,NA,NA,NA,NA,NA,NA,NA,NA,NA,NA,NA,NA,NA,NA
36c03,"""Richtig""-Screen",canvas.Screen,3_0_1_0_3_1_1,NA,NA,timeout,4995.8820000002,2685487.5,2685484.031,2685500.593,2690479.749,2690480.7000003,2023-08-11T08:30:40Z,2690496.475,NULL,Vermutung,udhanifu,s,haramia,tikisho,itifaki,NA,sdfdsf,1,1,NA,NA,NA,NA,NA,NA,NA,NA,NA,NA,NA,NA,NA,NA,NA,NA,NA,NA,NA
36c03,"""Falsch""-Screen",canvas.Screen,3_0_1_0_3_1_2,NA,NA,skipped,NA,2690485.3000002,NA,NA,2690479.749,2690485.4000001,2023-08-11T08:30:40Z,2690496.475,NULL,Vermutung,udhanifu,s,haramia,tikisho,itifaki,NA,sdfdsf,NA,1,NA,NA,NA,NA,NA,NA,NA,NA,NA,NA,NA,NA,NA,NA,NA,NA,NA,NA,NA
36c03,shallow,flow.Sequence,3_0_1_0_3_1,NA,NA,completion,16153.555,2674310.9000001,2674309.687,2674326.194,2690479.749,2690485.5999999,2023-08-11T08:30:40Z,2690496.475,NULL,Vermutung,udhanifu,s,haramia,tikisho,itifaki,NA,sdfdsf,NA,1,NA,NA,NA,NA,NA,NA,NA,NA,NA,NA,NA,NA,NA,NA,NA,NA,NA,NA,NA
36c03,task,flow.Sequence,3_0_1_0_3,NA,NA,completion,16153.555,2674310.7000003,2674309.687,2674326.194,2690479.749,2690485.7000003,2023-08-11T08:30:40Z,2690496.475,NULL,Vermutung,udhanifu,s,haramia,tikisho,itifaki,NA,sdfdsf,NA,1,NA,NA,NA,NA,NA,NA,NA,NA,NA,NA,NA,NA,NA,NA,NA,NA,NA,NA,NA
36c03,deep,flow.Sequence,3_0_1_0_4_0,NA,NA,skipped,NA,2690485.7000003,NA,NA,2690479.749,2690485.7000003,2023-08-11T08:30:40Z,2690496.475,NULL,Fleisch,mshakiki,s,kizunguzungu,mshikamano,angusho,NA,sdfdsf,NA,1,NA,NA,NA,NA,NA,NA,NA,NA,NA,NA,NA,NA,NA,NA,NA,NA,NA,NA,NA
36c03,Shallow Question,html.Page,3_0_1_0_4_1_0,NA,NA,form submission,13616.925000095,2690485.9000001,2690479.749,2690496.475,2704113.4000001,2704113.7000003,2023-08-11T08:30:54Z,2704117.964,NULL,Fleisch,mshakiki,s,kizunguzungu,mshikamano,angusho,mshakiki,NA,NA,1,NA,NA,NA,NA,NA,NA,NA,NA,NA,NA,NA,NA,NA,NA,NA,NA,NA,NA,NA
36c03,"""Richtig""-Screen",canvas.Screen,3_0_1_0_4_1_1,NA,NA,timeout,4995.9669999997,2704115.5999999,2704101.833,2704117.964,2709097.637,2709098.7000003,2023-08-11T08:30:59Z,2709113.931,NULL,Fleisch,mshakiki,s,kizunguzungu,mshikamano,angusho,NA,sdfdsf,1,1,NA,NA,NA,NA,NA,NA,NA,NA,NA,NA,NA,NA,NA,NA,NA,NA,NA,NA,NA
36c03,"""Falsch""-Screen",canvas.Screen,3_0_1_0_4_1_2,NA,NA,skipped,NA,2709104.4000001,NA,NA,2709097.637,2709104.9000001,2023-08-11T08:30:59Z,2709113.931,NULL,Fleisch,mshakiki,s,kizunguzungu,mshikamano,angusho,NA,sdfdsf,NA,1,NA,NA,NA,NA,NA,NA,NA,NA,NA,NA,NA,NA,NA,NA,NA,NA,NA,NA,NA
36c03,shallow,flow.Sequence,3_0_1_0_4_1,NA,NA,completion,18601.162,2690485.9000001,2690479.749,2690496.475,2709097.637,2709105.2000003,2023-08-11T08:30:59Z,2709113.931,NULL,Fleisch,mshakiki,s,kizunguzungu,mshikamano,angusho,NA,sdfdsf,NA,1,NA,NA,NA,NA,NA,NA,NA,NA,NA,NA,NA,NA,NA,NA,NA,NA,NA,NA,NA
36c03,task,flow.Sequence,3_0_1_0_4,NA,NA,completion,18601.162,2690485.7000003,2690479.749,2690496.475,2709097.637,2709105.8000002,2023-08-11T08:30:59Z,2709113.931,NULL,Fleisch,mshakiki,s,kizunguzungu,mshikamano,angusho,NA,sdfdsf,NA,1,NA,NA,NA,NA,NA,NA,NA,NA,NA,NA,NA,NA,NA,NA,NA,NA,NA,NA,NA
36c03,deep,flow.Sequence,3_0_1_0_5_0,NA,NA,skipped,NA,2709106,NA,NA,2709097.637,2709106.2000003,2023-08-11T08:30:59Z,2709113.931,NULL,Integrität,uadilifu,s,muungano,mtiririko,upunguaji,NA,sdfdsf,NA,1,NA,NA,NA,NA,NA,NA,NA,NA,NA,NA,NA,NA,NA,NA,NA,NA,NA,NA,NA
36c03,Shallow Question,html.Page,3_0_1_0_5_1_0,NA,NA,form submission,6070.8690001909,2709106.4000001,2709097.637,2709113.931,2715184.8000002,2715185,2023-08-11T08:31:05Z,2715192.224,NULL,Integrität,uadilifu,s,muungano,mtiririko,upunguaji,uadilifu,NA,NA,1,NA,NA,NA,NA,NA,NA,NA,NA,NA,NA,NA,NA,NA,NA,NA,NA,NA,NA,NA
36c03,"""Richtig""-Screen",canvas.Screen,3_0_1_0_5_1_1,NA,NA,timeout,4995.9250000003,2715186.8000002,2715176.04,2715192.224,2720171.746,2720172.3000002,2023-08-11T08:31:10Z,2720188.149,NULL,Integrität,uadilifu,s,muungano,mtiririko,upunguaji,NA,sdfdsf,1,1,NA,NA,NA,NA,NA,NA,NA,NA,NA,NA,NA,NA,NA,NA,NA,NA,NA,NA,NA
36c03,"""Falsch""-Screen",canvas.Screen,3_0_1_0_5_1_2,NA,NA,skipped,NA,2720174.5,NA,NA,2720171.746,2720174.5999999,2023-08-11T08:31:10Z,2720188.149,NULL,Integrität,uadilifu,s,muungano,mtiririko,upunguaji,NA,sdfdsf,NA,1,NA,NA,NA,NA,NA,NA,NA,NA,NA,NA,NA,NA,NA,NA,NA,NA,NA,NA,NA
36c03,shallow,flow.Sequence,3_0_1_0_5_1,NA,NA,completion,11057.815,2709106.4000001,2709097.637,2709113.931,2720171.746,2720174.8000002,2023-08-11T08:31:10Z,2720188.149,NULL,Integrität,uadilifu,s,muungano,mtiririko,upunguaji,NA,sdfdsf,NA,1,NA,NA,NA,NA,NA,NA,NA,NA,NA,NA,NA,NA,NA,NA,NA,NA,NA,NA,NA
36c03,task,flow.Sequence,3_0_1_0_5,NA,NA,completion,11057.815,2709105.9000001,2709097.637,2709113.931,2720171.746,2720174.9000001,2023-08-11T08:31:10Z,2720188.149,NULL,Integrität,uadilifu,s,muungano,mtiririko,upunguaji,NA,sdfdsf,NA,1,NA,NA,NA,NA,NA,NA,NA,NA,NA,NA,NA,NA,NA,NA,NA,NA,NA,NA,NA
36c03,Deep Question,html.Page,3_0_1_0_6_0_0,NA,NA,form submission,4825.2510000952,2720175,2720171.746,2720188.149,2725013.4000001,2725013.5999999,2023-08-11T08:31:15Z,2725017.469,NULL,Schlange,foleni,d,NA,NA,NA,foleni,NA,NA,1,NA,NA,NA,NA,NA,NA,NA,NA,NA,NA,NA,NA,NA,NA,NA,NA,NA,NA,NA
36c03,"""Richtig""-Screen",canvas.Screen,3_0_1_0_6_0_1,NA,NA,timeout,4996.3169999998,2725016.0999999,2725001.385,2725017.469,2729997.158,2729998.2000003,2023-08-11T08:31:20Z,2730013.786,NULL,Schlange,foleni,d,NA,NA,NA,NA,sdfdsf,1,1,NA,NA,NA,NA,NA,NA,NA,NA,NA,NA,NA,NA,NA,NA,NA,NA,NA,NA,NA
36c03,"""Falsch""-Screen",canvas.Screen,3_0_1_0_6_0_2,NA,NA,skipped,NA,2730003.0999999,NA,NA,2729997.158,2730003.2000003,2023-08-11T08:31:20Z,2730013.786,NULL,Schlange,foleni,d,NA,NA,NA,NA,sdfdsf,NA,1,NA,NA,NA,NA,NA,NA,NA,NA,NA,NA,NA,NA,NA,NA,NA,NA,NA,NA,NA
36c03,deep,flow.Sequence,3_0_1_0_6_0,NA,NA,completion,9809.0089999996,2720175,2720171.746,2720188.149,2729997.158,2730003.3000002,2023-08-11T08:31:20Z,2730013.786,NULL,Schlange,foleni,d,NA,NA,NA,NA,sdfdsf,NA,1,NA,NA,NA,NA,NA,NA,NA,NA,NA,NA,NA,NA,NA,NA,NA,NA,NA,NA,NA
36c03,shallow,flow.Sequence,3_0_1_0_6_1,NA,NA,skipped,NA,2730003.3000002,NA,NA,2729997.158,2730003.4000001,2023-08-11T08:31:20Z,2730013.786,NULL,Schlange,foleni,d,NA,NA,NA,NA,sdfdsf,NA,1,NA,NA,NA,NA,NA,NA,NA,NA,NA,NA,NA,NA,NA,NA,NA,NA,NA,NA,NA
36c03,task,flow.Sequence,3_0_1_0_6,NA,NA,completion,9809.0089999996,2720174.9000001,2720171.746,2720188.149,2729997.158,2730003.5,2023-08-11T08:31:20Z,2730013.786,NULL,Schlange,foleni,d,NA,NA,NA,NA,sdfdsf,NA,1,NA,NA,NA,NA,NA,NA,NA,NA,NA,NA,NA,NA,NA,NA,NA,NA,NA,NA,NA
36c03,Deep Question,html.Page,3_0_1_0_7_0_0,NA,NA,form submission,12012.313999905,2730003.5,2729997.158,2730013.786,2742026.0999999,2742026.4000001,2023-08-11T08:31:32Z,2742037.01,NULL,Genehmigung,idhini,d,NA,NA,NA,kikivul$,NA,NA,1,NA,NA,NA,NA,NA,NA,NA,NA,NA,NA,NA,NA,NA,NA,NA,NA,NA,NA,NA
36c03,"""Richtig""-Screen",canvas.Screen,3_0_1_0_7_0_1,NA,NA,skipped,NA,2742029,NA,NA,2742026.0999999,2742029,2023-08-11T08:31:32Z,2742037.01,NULL,Genehmigung,idhini,d,NA,NA,NA,NA,sdfdsf,NA,1,NA,NA,NA,NA,NA,NA,NA,NA,NA,NA,NA,NA,NA,NA,NA,NA,NA,NA,NA
36c03,"""Falsch""-Screen",canvas.Screen,3_0_1_0_7_0_2,NA,NA,timeout,4995.7370000002,2742029.7000003,2742020.374,2742037.01,2747016.687,2747017.5999999,2023-08-11T08:31:37Z,2747032.747,NULL,Genehmigung,idhini,d,NA,NA,NA,NA,sdfdsf,0,1,NA,NA,NA,NA,NA,NA,NA,NA,NA,NA,NA,NA,NA,NA,NA,NA,NA,NA,NA
36c03,deep,flow.Sequence,3_0_1_0_7_0,NA,NA,completion,17002.901,2730003.5,2729997.158,2730013.786,2747016.687,2747018,2023-08-11T08:31:37Z,2747032.747,NULL,Genehmigung,idhini,d,NA,NA,NA,NA,sdfdsf,NA,1,NA,NA,NA,NA,NA,NA,NA,NA,NA,NA,NA,NA,NA,NA,NA,NA,NA,NA,NA
36c03,shallow,flow.Sequence,3_0_1_0_7_1,NA,NA,skipped,NA,2747018.2000003,NA,NA,2747016.687,2747018.4000001,2023-08-11T08:31:37Z,2747032.747,NULL,Genehmigung,idhini,d,NA,NA,NA,NA,sdfdsf,NA,1,NA,NA,NA,NA,NA,NA,NA,NA,NA,NA,NA,NA,NA,NA,NA,NA,NA,NA,NA
36c03,task,flow.Sequence,3_0_1_0_7,NA,NA,completion,17002.901,2730003.5,2729997.158,2730013.786,2747016.687,2747018.7000003,2023-08-11T08:31:37Z,2747032.747,NULL,Genehmigung,idhini,d,NA,NA,NA,NA,sdfdsf,NA,1,NA,NA,NA,NA,NA,NA,NA,NA,NA,NA,NA,NA,NA,NA,NA,NA,NA,NA,NA
36c03,block,flow.Loop,3_0_1_0,NA,NA,completion,108927.411,2638082.9000001,2638072.773,2638089.276,2747016.687,2747019,2023-08-11T08:31:37Z,2747032.747,NULL,NA,NA,NA,NA,NA,NA,NA,sdfdsf,NA,1,NA,NA,NA,NA,NA,NA,NA,NA,NA,NA,NA,NA,NA,NA,NA,NA,NA,NA,NA
36c03,weiter,canvas.Screen,3_0_1_1,sdf,keypress(Space),response,885.05300019076,2747019.2000003,2747016.687,2747032.747,2747917.8000002,2747919,2023-08-11T08:31:38Z,2747965.806,NULL,NA,NA,NA,NA,NA,NA,NA,sdfdsf,NA,1,NA,NA,NA,NA,NA,NA,NA,NA,NA,NA,NA,NA,NA,NA,NA,NA,NA,NA,NA
36c03,check continue,flow.Sequence,3_0_1,NA,NA,completion,109828.52400019,2638082.9000001,2638072.773,2638089.276,2747917.8000002,2747919.5,2023-08-11T08:31:38Z,2747965.806,NULL,NA,NA,NA,NA,NA,NA,NA,sdfdsf,NA,1,NA,NA,NA,NA,NA,NA,NA,NA,NA,NA,NA,NA,NA,NA,NA,NA,NA,NA,NA
36c03,Deep Question,html.Page,3_0_2_0_0_0_0,NA,NA,form submission,4179.1940000001,2747954.5999999,2747949.286,2747965.806,2752145,2752145.2000003,2023-08-11T08:31:42Z,2752162.449,NULL,Genehmigung,idhini,d,NA,NA,NA,idhini,NA,NA,2,NA,NA,NA,NA,NA,NA,NA,NA,NA,NA,NA,NA,NA,NA,NA,NA,NA,NA,NA
36c03,"""Richtig""-Screen",canvas.Screen,3_0_2_0_0_0_1,NA,NA,timeout,4995.2960000001,2752147.7000003,2752145.136,2752162.449,2757141.609,2757142.5999999,2023-08-11T08:31:47Z,2757157.745,NULL,Genehmigung,idhini,d,NA,NA,NA,NA,sdf,1,2,NA,NA,NA,NA,NA,NA,NA,NA,NA,NA,NA,NA,NA,NA,NA,NA,NA,NA,NA
36c03,"""Falsch""-Screen",canvas.Screen,3_0_2_0_0_0_2,NA,NA,skipped,NA,2757148.0999999,NA,NA,2757141.609,2757148.5999999,2023-08-11T08:31:47Z,2757157.745,NULL,Genehmigung,idhini,d,NA,NA,NA,NA,sdf,NA,2,NA,NA,NA,NA,NA,NA,NA,NA,NA,NA,NA,NA,NA,NA,NA,NA,NA,NA,NA
36c03,deep,flow.Sequence,3_0_2_0_0_0,NA,NA,completion,9175.8030000003,2747954.5999999,2747949.286,2747965.806,2757141.609,2757148.9000001,2023-08-11T08:31:47Z,2757157.745,NULL,Genehmigung,idhini,d,NA,NA,NA,NA,sdf,NA,2,NA,NA,NA,NA,NA,NA,NA,NA,NA,NA,NA,NA,NA,NA,NA,NA,NA,NA,NA
36c03,shallow,flow.Sequence,3_0_2_0_0_1,NA,NA,skipped,NA,2757149,NA,NA,2757141.609,2757149.2000003,2023-08-11T08:31:47Z,2757157.745,NULL,Genehmigung,idhini,d,NA,NA,NA,NA,sdf,NA,2,NA,NA,NA,NA,NA,NA,NA,NA,NA,NA,NA,NA,NA,NA,NA,NA,NA,NA,NA
36c03,task,flow.Sequence,3_0_2_0_0,NA,NA,completion,9175.8030000003,2747954.5,2747949.286,2747965.806,2757141.609,2757149.3000002,2023-08-11T08:31:47Z,2757157.745,NULL,Genehmigung,idhini,d,NA,NA,NA,NA,sdf,NA,2,NA,NA,NA,NA,NA,NA,NA,NA,NA,NA,NA,NA,NA,NA,NA,NA,NA,NA,NA
36c03,deep,flow.Sequence,3_0_2_0_1_0,NA,NA,skipped,NA,2757149.5,NA,NA,2757141.609,2757149.7000003,2023-08-11T08:31:47Z,2757157.745,NULL,Inhalt,yaliyomo,s,kishawishi,hifadhi,kutembea,NA,sdf,NA,2,NA,NA,NA,NA,NA,NA,NA,NA,NA,NA,NA,NA,NA,NA,NA,NA,NA,NA,NA
36c03,Shallow Question,html.Page,3_0_2_0_1_1_0,NA,NA,form submission,2567.3549999045,2757149.8000002,2757141.609,2757157.745,2759725.0999999,2759725.2000003,2023-08-11T08:31:49Z,2759738.904,NULL,Inhalt,yaliyomo,s,kishawishi,hifadhi,kutembea,yaliyomo,NA,NA,2,NA,NA,NA,NA,NA,NA,NA,NA,NA,NA,NA,NA,NA,NA,NA,NA,NA,NA,NA
36c03,"""Richtig""-Screen",canvas.Screen,3_0_2_0_1_1_1,NA,NA,timeout,4996.5069999998,2759725.9000001,2759722.775,2759738.904,2764718.384,2764719.3000002,2023-08-11T08:31:54Z,2764735.411,NULL,Inhalt,yaliyomo,s,kishawishi,hifadhi,kutembea,NA,sdf,1,2,NA,NA,NA,NA,NA,NA,NA,NA,NA,NA,NA,NA,NA,NA,NA,NA,NA,NA,NA
36c03,"""Falsch""-Screen",canvas.Screen,3_0_2_0_1_1_2,NA,NA,skipped,NA,2764723.9000001,NA,NA,2764718.384,2764724,2023-08-11T08:31:54Z,2764735.411,NULL,Inhalt,yaliyomo,s,kishawishi,hifadhi,kutembea,NA,sdf,NA,2,NA,NA,NA,NA,NA,NA,NA,NA,NA,NA,NA,NA,NA,NA,NA,NA,NA,NA,NA
36c03,shallow,flow.Sequence,3_0_2_0_1_1,NA,NA,completion,7560.639,2757149.8000002,2757141.609,2757157.745,2764718.384,2764724.0999999,2023-08-11T08:31:54Z,2764735.411,NULL,Inhalt,yaliyomo,s,kishawishi,hifadhi,kutembea,NA,sdf,NA,2,NA,NA,NA,NA,NA,NA,NA,NA,NA,NA,NA,NA,NA,NA,NA,NA,NA,NA,NA
36c03,task,flow.Sequence,3_0_2_0_1,NA,NA,completion,7560.639,2757149.5,2757141.609,2757157.745,2764718.384,2764724.0999999,2023-08-11T08:31:54Z,2764735.411,NULL,Inhalt,yaliyomo,s,kishawishi,hifadhi,kutembea,NA,sdf,NA,2,NA,NA,NA,NA,NA,NA,NA,NA,NA,NA,NA,NA,NA,NA,NA,NA,NA,NA,NA
36c03,deep,flow.Sequence,3_0_2_0_2_0,NA,NA,skipped,NA,2764724.2000003,NA,NA,2764718.384,2764724.2000003,2023-08-11T08:31:54Z,2764735.411,NULL,Fleisch,mshakiki,s,kizunguzungu,mshikamano,angusho,NA,sdf,NA,2,NA,NA,NA,NA,NA,NA,NA,NA,NA,NA,NA,NA,NA,NA,NA,NA,NA,NA,NA
36c03,Shallow Question,html.Page,3_0_2_0_2_1_0,NA,NA,form submission,4950.0890000002,2764724.3000002,2764718.384,2764735.411,2769685.5,2769685.7000003,2023-08-11T08:31:59Z,2769698.036,NULL,Fleisch,mshakiki,s,kizunguzungu,mshikamano,angusho,mshakiki,NA,NA,2,NA,NA,NA,NA,NA,NA,NA,NA,NA,NA,NA,NA,NA,NA,NA,NA,NA,NA,NA
36c03,"""Richtig""-Screen",canvas.Screen,3_0_2_0_2_1_1,NA,NA,timeout,4995.284,2769687.4000001,2769681.268,2769698.036,2774677.238,2774678.2000003,2023-08-11T08:32:04Z,2774693.32,NULL,Fleisch,mshakiki,s,kizunguzungu,mshikamano,angusho,NA,sdf,1,2,NA,NA,NA,NA,NA,NA,NA,NA,NA,NA,NA,NA,NA,NA,NA,NA,NA,NA,NA
36c03,"""Falsch""-Screen",canvas.Screen,3_0_2_0_2_1_2,NA,NA,skipped,NA,2774683.8000002,NA,NA,2774677.238,2774684.3000002,2023-08-11T08:32:04Z,2774693.32,NULL,Fleisch,mshakiki,s,kizunguzungu,mshikamano,angusho,NA,sdf,NA,2,NA,NA,NA,NA,NA,NA,NA,NA,NA,NA,NA,NA,NA,NA,NA,NA,NA,NA,NA
36c03,shallow,flow.Sequence,3_0_2_0_2_1,NA,NA,completion,9941.827,2764724.3000002,2764718.384,2764735.411,2774677.238,2774684.7000003,2023-08-11T08:32:04Z,2774693.32,NULL,Fleisch,mshakiki,s,kizunguzungu,mshikamano,angusho,NA,sdf,NA,2,NA,NA,NA,NA,NA,NA,NA,NA,NA,NA,NA,NA,NA,NA,NA,NA,NA,NA,NA
36c03,task,flow.Sequence,3_0_2_0_2,NA,NA,completion,9941.827,2764724.2000003,2764718.384,2764735.411,2774677.238,2774685,2023-08-11T08:32:04Z,2774693.32,NULL,Fleisch,mshakiki,s,kizunguzungu,mshikamano,angusho,NA,sdf,NA,2,NA,NA,NA,NA,NA,NA,NA,NA,NA,NA,NA,NA,NA,NA,NA,NA,NA,NA,NA
36c03,Deep Question,html.Page,3_0_2_0_3_0_0,NA,NA,form submission,3093.5800000955,2774685.2000003,2774677.238,2774693.32,2777786.9000001,2777787,2023-08-11T08:32:08Z,2777790.723,NULL,Schlange,foleni,d,NA,NA,NA,foleni,NA,NA,2,NA,NA,NA,NA,NA,NA,NA,NA,NA,NA,NA,NA,NA,NA,NA,NA,NA,NA,NA
36c03,"""Richtig""-Screen",canvas.Screen,3_0_2_0_3_0_1,NA,NA,timeout,4995.963,2777787.7000003,2777774.675,2777790.723,2782770.431,2782771.3000002,2023-08-11T08:32:13Z,2782786.686,NULL,Schlange,foleni,d,NA,NA,NA,NA,sdf,1,2,NA,NA,NA,NA,NA,NA,NA,NA,NA,NA,NA,NA,NA,NA,NA,NA,NA,NA,NA
36c03,"""Falsch""-Screen",canvas.Screen,3_0_2_0_3_0_2,NA,NA,skipped,NA,2782776.5999999,NA,NA,2782770.431,2782777,2023-08-11T08:32:13Z,2782786.686,NULL,Schlange,foleni,d,NA,NA,NA,NA,sdf,NA,2,NA,NA,NA,NA,NA,NA,NA,NA,NA,NA,NA,NA,NA,NA,NA,NA,NA,NA,NA
36c03,deep,flow.Sequence,3_0_2_0_3_0,NA,NA,completion,8077.111,2774685.2000003,2774677.238,2774693.32,2782770.431,2782777.4000001,2023-08-11T08:32:13Z,2782786.686,NULL,Schlange,foleni,d,NA,NA,NA,NA,sdf,NA,2,NA,NA,NA,NA,NA,NA,NA,NA,NA,NA,NA,NA,NA,NA,NA,NA,NA,NA,NA
36c03,shallow,flow.Sequence,3_0_2_0_3_1,NA,NA,skipped,NA,2782777.5,NA,NA,2782770.431,2782777.5999999,2023-08-11T08:32:13Z,2782786.686,NULL,Schlange,foleni,d,NA,NA,NA,NA,sdf,NA,2,NA,NA,NA,NA,NA,NA,NA,NA,NA,NA,NA,NA,NA,NA,NA,NA,NA,NA,NA
36c03,task,flow.Sequence,3_0_2_0_3,NA,NA,completion,8077.111,2774685.0999999,2774677.238,2774693.32,2782770.431,2782777.9000001,2023-08-11T08:32:13Z,2782786.686,NULL,Schlange,foleni,d,NA,NA,NA,NA,sdf,NA,2,NA,NA,NA,NA,NA,NA,NA,NA,NA,NA,NA,NA,NA,NA,NA,NA,NA,NA,NA
36c03,deep,flow.Sequence,3_0_2_0_4_0,NA,NA,skipped,NA,2782778.0999999,NA,NA,2782770.431,2782778.3000002,2023-08-11T08:32:13Z,2782786.686,NULL,Vermutung,udhanifu,s,haramia,tikisho,itifaki,NA,sdf,NA,2,NA,NA,NA,NA,NA,NA,NA,NA,NA,NA,NA,NA,NA,NA,NA,NA,NA,NA,NA
36c03,Shallow Question,html.Page,3_0_2_0_4_1_0,NA,NA,form submission,5642.5140002859,2782778.4000001,2782770.431,2782786.686,2788429.2000003,2788429.5,2023-08-11T08:32:18Z,2788431.987,NULL,Vermutung,udhanifu,s,haramia,tikisho,itifaki,udhanifu,NA,NA,2,NA,NA,NA,NA,NA,NA,NA,NA,NA,NA,NA,NA,NA,NA,NA,NA,NA,NA,NA
36c03,"""Richtig""-Screen",canvas.Screen,3_0_2_0_4_1_1,NA,NA,timeout,4995.9199999999,2788431.0999999,2788415.368,2788431.987,2793411.842,2793413,2023-08-11T08:32:23Z,2793427.907,NULL,Vermutung,udhanifu,s,haramia,tikisho,itifaki,NA,sdf,1,2,NA,NA,NA,NA,NA,NA,NA,NA,NA,NA,NA,NA,NA,NA,NA,NA,NA,NA,NA
36c03,"""Falsch""-Screen",canvas.Screen,3_0_2_0_4_1_2,NA,NA,skipped,NA,2793418.0999999,NA,NA,2793411.842,2793418.3000002,2023-08-11T08:32:23Z,2793427.907,NULL,Vermutung,udhanifu,s,haramia,tikisho,itifaki,NA,sdf,NA,2,NA,NA,NA,NA,NA,NA,NA,NA,NA,NA,NA,NA,NA,NA,NA,NA,NA,NA,NA
36c03,shallow,flow.Sequence,3_0_2_0_4_1,NA,NA,completion,10625.156,2782778.3000002,2782770.431,2782786.686,2793411.842,2793418.4000001,2023-08-11T08:32:23Z,2793427.907,NULL,Vermutung,udhanifu,s,haramia,tikisho,itifaki,NA,sdf,NA,2,NA,NA,NA,NA,NA,NA,NA,NA,NA,NA,NA,NA,NA,NA,NA,NA,NA,NA,NA
36c03,task,flow.Sequence,3_0_2_0_4,NA,NA,completion,10625.156,2782778,2782770.431,2782786.686,2793411.842,2793418.5,2023-08-11T08:32:23Z,2793427.907,NULL,Vermutung,udhanifu,s,haramia,tikisho,itifaki,NA,sdf,NA,2,NA,NA,NA,NA,NA,NA,NA,NA,NA,NA,NA,NA,NA,NA,NA,NA,NA,NA,NA
36c03,Deep Question,html.Page,3_0_2_0_5_0_0,NA,NA,form submission,12860.893000191,2793418.5999999,2793411.842,2793427.907,2806288.8000002,2806289,2023-08-11T08:32:36Z,2806300.88,NULL,Toleranz,kuvumiliana,d,NA,NA,NA,kuvumiliana,NA,NA,2,NA,NA,NA,NA,NA,NA,NA,NA,NA,NA,NA,NA,NA,NA,NA,NA,NA,NA,NA
36c03,"""Richtig""-Screen",canvas.Screen,3_0_2_0_5_0_1,NA,NA,timeout,4995.6980000003000,2806291.8000002,2806284.578,2806300.88,2811280.429,2811282.5999999,2023-08-11T08:32:41Z,2811296.578,NULL,Toleranz,kuvumiliana,d,NA,NA,NA,NA,sdf,1,2,NA,NA,NA,NA,NA,NA,NA,NA,NA,NA,NA,NA,NA,NA,NA,NA,NA,NA,NA
36c03,"""Falsch""-Screen",canvas.Screen,3_0_2_0_5_0_2,NA,NA,skipped,NA,2811287.8000002,NA,NA,2811280.429,2811288.2000003,2023-08-11T08:32:41Z,2811296.578,NULL,Toleranz,kuvumiliana,d,NA,NA,NA,NA,sdf,NA,2,NA,NA,NA,NA,NA,NA,NA,NA,NA,NA,NA,NA,NA,NA,NA,NA,NA,NA,NA
36c03,deep,flow.Sequence,3_0_2_0_5_0,NA,NA,completion,17852.522,2793418.5999999,2793411.842,2793427.907,2811280.429,2811288.7000003,2023-08-11T08:32:41Z,2811296.578,NULL,Toleranz,kuvumiliana,d,NA,NA,NA,NA,sdf,NA,2,NA,NA,NA,NA,NA,NA,NA,NA,NA,NA,NA,NA,NA,NA,NA,NA,NA,NA,NA
36c03,shallow,flow.Sequence,3_0_2_0_5_1,NA,NA,skipped,NA,2811288.7000003,NA,NA,2811280.429,2811288.9000001,2023-08-11T08:32:41Z,2811296.578,NULL,Toleranz,kuvumiliana,d,NA,NA,NA,NA,sdf,NA,2,NA,NA,NA,NA,NA,NA,NA,NA,NA,NA,NA,NA,NA,NA,NA,NA,NA,NA,NA
36c03,task,flow.Sequence,3_0_2_0_5,NA,NA,completion,17852.522,2793418.5,2793411.842,2793427.907,2811280.429,2811289.0999999,2023-08-11T08:32:41Z,2811296.578,NULL,Toleranz,kuvumiliana,d,NA,NA,NA,NA,sdf,NA,2,NA,NA,NA,NA,NA,NA,NA,NA,NA,NA,NA,NA,NA,NA,NA,NA,NA,NA,NA
36c03,Deep Question,html.Page,3_0_2_0_6_0_0,NA,NA,form submission,24957.122000286,2811289.4000001,2811280.429,2811296.578,2836253.7000003,2836254,2023-08-11T08:33:06Z,2836259.348,NULL,Begegnung,kukutana,d,NA,NA,NA,kukuadweni,NA,NA,2,NA,NA,NA,NA,NA,NA,NA,NA,NA,NA,NA,NA,NA,NA,NA,NA,NA,NA,NA
36c03,"""Richtig""-Screen",canvas.Screen,3_0_2_0_6_0_1,NA,NA,skipped,NA,2836256.7000003,NA,NA,2836253.7000003,2836256.9000001,2023-08-11T08:33:06Z,2836259.348,NULL,Begegnung,kukutana,d,NA,NA,NA,NA,sdf,NA,2,NA,NA,NA,NA,NA,NA,NA,NA,NA,NA,NA,NA,NA,NA,NA,NA,NA,NA,NA
36c03,"""Falsch""-Screen",canvas.Screen,3_0_2_0_6_0_2,NA,NA,timeout,4995.8589999997,2836257.8000002,2836243.21,2836259.348,2841239.046,2841240,2023-08-11T08:33:11Z,2841255.207,NULL,Begegnung,kukutana,d,NA,NA,NA,NA,sdf,0,2,NA,NA,NA,NA,NA,NA,NA,NA,NA,NA,NA,NA,NA,NA,NA,NA,NA,NA,NA
36c03,deep,flow.Sequence,3_0_2_0_6_0,NA,NA,completion,29942.468,2811289.3000002,2811280.429,2811296.578,2841239.046,2841240.5,2023-08-11T08:33:11Z,2841255.207,NULL,Begegnung,kukutana,d,NA,NA,NA,NA,sdf,NA,2,NA,NA,NA,NA,NA,NA,NA,NA,NA,NA,NA,NA,NA,NA,NA,NA,NA,NA,NA
36c03,shallow,flow.Sequence,3_0_2_0_6_1,NA,NA,skipped,NA,2841240.7000003,NA,NA,2841239.046,2841240.8000002,2023-08-11T08:33:11Z,2841255.207,NULL,Begegnung,kukutana,d,NA,NA,NA,NA,sdf,NA,2,NA,NA,NA,NA,NA,NA,NA,NA,NA,NA,NA,NA,NA,NA,NA,NA,NA,NA,NA
36c03,task,flow.Sequence,3_0_2_0_6,NA,NA,completion,29942.468,2811289.3000002,2811280.429,2811296.578,2841239.046,2841241.0999999,2023-08-11T08:33:11Z,2841255.207,NULL,Begegnung,kukutana,d,NA,NA,NA,NA,sdf,NA,2,NA,NA,NA,NA,NA,NA,NA,NA,NA,NA,NA,NA,NA,NA,NA,NA,NA,NA,NA
36c03,deep,flow.Sequence,3_0_2_0_7_0,NA,NA,skipped,NA,2841241.2000003,NA,NA,2841239.046,2841241.5,2023-08-11T08:33:11Z,2841255.207,NULL,Integrität,uadilifu,s,muungano,mtiririko,upunguaji,NA,sdf,NA,2,NA,NA,NA,NA,NA,NA,NA,NA,NA,NA,NA,NA,NA,NA,NA,NA,NA,NA,NA
36c03,Shallow Question,html.Page,3_0_2_0_7_1_0,NA,NA,form submission,4245.8929999047,2841241.5999999,2841239.046,2841255.207,2845501.0999999,2845501.2000003,2023-08-11T08:33:15Z,2845501.725,NULL,Integrität,uadilifu,s,muungano,mtiririko,upunguaji,uadilifu,NA,NA,2,NA,NA,NA,NA,NA,NA,NA,NA,NA,NA,NA,NA,NA,NA,NA,NA,NA,NA,NA
36c03,"""Richtig""-Screen",canvas.Screen,3_0_2_0_7_1_1,NA,NA,timeout,4996.2050000001,2845503.3000002,2845485.235,2845501.725,2850481.659,2850482.7000003,2023-08-11T08:33:20Z,2850497.93,NULL,Integrität,uadilifu,s,muungano,mtiririko,upunguaji,NA,sdf,1,2,NA,NA,NA,NA,NA,NA,NA,NA,NA,NA,NA,NA,NA,NA,NA,NA,NA,NA,NA
36c03,"""Falsch""-Screen",canvas.Screen,3_0_2_0_7_1_2,NA,NA,skipped,NA,2850488.3000002,NA,NA,2850481.659,2850488.5999999,2023-08-11T08:33:20Z,2850497.93,NULL,Integrität,uadilifu,s,muungano,mtiririko,upunguaji,NA,sdf,NA,2,NA,NA,NA,NA,NA,NA,NA,NA,NA,NA,NA,NA,NA,NA,NA,NA,NA,NA,NA
36c03,shallow,flow.Sequence,3_0_2_0_7_1,NA,NA,completion,9226.452,2841241.5999999,2841239.046,2841255.207,2850481.659,2850489,2023-08-11T08:33:20Z,2850497.93,NULL,Integrität,uadilifu,s,muungano,mtiririko,upunguaji,NA,sdf,NA,2,NA,NA,NA,NA,NA,NA,NA,NA,NA,NA,NA,NA,NA,NA,NA,NA,NA,NA,NA
36c03,task,flow.Sequence,3_0_2_0_7,NA,NA,completion,9226.452,2841241.2000003,2841239.046,2841255.207,2850481.659,2850489.2000003,2023-08-11T08:33:20Z,2850497.93,NULL,Integrität,uadilifu,s,muungano,mtiririko,upunguaji,NA,sdf,NA,2,NA,NA,NA,NA,NA,NA,NA,NA,NA,NA,NA,NA,NA,NA,NA,NA,NA,NA,NA
36c03,block,flow.Loop,3_0_2_0,NA,NA,completion,102515.853,2747954.5,2747949.286,2747965.806,2850481.659,2850489.5,2023-08-11T08:33:20Z,2850497.93,NULL,NA,NA,NA,NA,NA,NA,NA,sdf,NA,2,NA,NA,NA,NA,NA,NA,NA,NA,NA,NA,NA,NA,NA,NA,NA,NA,NA,NA,NA
36c03,weiter,canvas.Screen,3_0_2_1,sdf,keypress(Space),response,899.16999990446,2850489.7000003,2850481.659,2850497.93,2851397.0999999,2851398.0999999,2023-08-11T08:33:21Z,2851913.128,NULL,NA,NA,NA,NA,NA,NA,NA,sdf,NA,2,NA,NA,NA,NA,NA,NA,NA,NA,NA,NA,NA,NA,NA,NA,NA,NA,NA,NA,NA
36c03,check continue,flow.Sequence,3_0_2,NA,NA,completion,103431.2939999,2747954.4000001,2747949.286,2747965.806,2851397.0999999,2851398.5,2023-08-11T08:33:21Z,2851913.128,NULL,NA,NA,NA,NA,NA,NA,NA,sdf,NA,2,NA,NA,NA,NA,NA,NA,NA,NA,NA,NA,NA,NA,NA,NA,NA,NA,NA,NA,NA
36c03,check continue,flow.Sequence,3_0_3,NA,NA,skipped,NA,2851445.5,NA,NA,2851397.0999999,2851445.7000003,2023-08-11T08:33:21Z,2851913.128,NULL,NA,NA,NA,NA,NA,NA,NA,qt,NA,3,NA,NA,NA,NA,NA,NA,NA,NA,NA,NA,NA,NA,NA,NA,NA,NA,NA,NA,NA
36c03,check continue,flow.Sequence,3_0_4,NA,NA,skipped,NA,2851464.5999999,NA,NA,2851397.0999999,2851464.7000003,2023-08-11T08:33:21Z,2851913.128,NULL,NA,NA,NA,NA,NA,NA,NA,sd,NA,4,NA,NA,NA,NA,NA,NA,NA,NA,NA,NA,NA,NA,NA,NA,NA,NA,NA,NA,NA
36c03,check continue,flow.Sequence,3_0_5,NA,NA,skipped,NA,2851483.9000001,NA,NA,2851397.0999999,2851484,2023-08-11T08:33:21Z,2851913.128,NULL,NA,NA,NA,NA,NA,NA,NA,sdf,NA,5,NA,NA,NA,NA,NA,NA,NA,NA,NA,NA,NA,NA,NA,NA,NA,NA,NA,NA,NA
36c03,check continue,flow.Sequence,3_0_6,NA,NA,skipped,NA,2851501,NA,NA,2851397.0999999,2851501.2000003,2023-08-11T08:33:21Z,2851913.128,NULL,NA,NA,NA,NA,NA,NA,NA,dfs,NA,6,NA,NA,NA,NA,NA,NA,NA,NA,NA,NA,NA,NA,NA,NA,NA,NA,NA,NA,NA
36c03,check continue,flow.Sequence,3_0_7,NA,NA,skipped,NA,2851518.0999999,NA,NA,2851397.0999999,2851518.2000003,2023-08-11T08:33:21Z,2851913.128,NULL,NA,NA,NA,NA,NA,NA,NA,df,NA,7,NA,NA,NA,NA,NA,NA,NA,NA,NA,NA,NA,NA,NA,NA,NA,NA,NA,NA,NA
36c03,check continue,flow.Sequence,3_0_8,NA,NA,skipped,NA,2851547.4000001,NA,NA,2851397.0999999,2851547.5999999,2023-08-11T08:33:21Z,2851913.128,NULL,NA,NA,NA,NA,NA,NA,NA,dfs,NA,8,NA,NA,NA,NA,NA,NA,NA,NA,NA,NA,NA,NA,NA,NA,NA,NA,NA,NA,NA
36c03,check continue,flow.Sequence,3_0_9,NA,NA,skipped,NA,2851563.8000002,NA,NA,2851397.0999999,2851563.9000001,2023-08-11T08:33:21Z,2851913.128,NULL,NA,NA,NA,NA,NA,NA,NA,dsf,NA,9,NA,NA,NA,NA,NA,NA,NA,NA,NA,NA,NA,NA,NA,NA,NA,NA,NA,NA,NA
36c03,check continue,flow.Sequence,3_0_10,NA,NA,skipped,NA,2851579.8000002,NA,NA,2851397.0999999,2851580,2023-08-11T08:33:21Z,2851913.128,NULL,NA,NA,NA,NA,NA,NA,NA,df,NA,10,NA,NA,NA,NA,NA,NA,NA,NA,NA,NA,NA,NA,NA,NA,NA,NA,NA,NA,NA
36c03,check continue,flow.Sequence,3_0_11,NA,NA,skipped,NA,2851596.8000002,NA,NA,2851397.0999999,2851597,2023-08-11T08:33:21Z,2851913.128,NULL,NA,NA,NA,NA,NA,NA,NA,dfs,NA,11,NA,NA,NA,NA,NA,NA,NA,NA,NA,NA,NA,NA,NA,NA,NA,NA,NA,NA,NA
36c03,check continue,flow.Sequence,3_0_12,NA,NA,skipped,NA,2851614.0999999,NA,NA,2851397.0999999,2851614.2000003,2023-08-11T08:33:21Z,2851913.128,NULL,NA,NA,NA,NA,NA,NA,NA,dsf,NA,12,NA,NA,NA,NA,NA,NA,NA,NA,NA,NA,NA,NA,NA,NA,NA,NA,NA,NA,NA
36c03,check continue,flow.Sequence,3_0_13,NA,NA,skipped,NA,2851629.7000003,NA,NA,2851397.0999999,2851629.8000002,2023-08-11T08:33:21Z,2851913.128,NULL,NA,NA,NA,NA,NA,NA,NA,dsf,NA,13,NA,NA,NA,NA,NA,NA,NA,NA,NA,NA,NA,NA,NA,NA,NA,NA,NA,NA,NA
36c03,check continue,flow.Sequence,3_0_14,NA,NA,skipped,NA,2851644.4000001,NA,NA,2851397.0999999,2851644.5999999,2023-08-11T08:33:21Z,2851913.128,NULL,NA,NA,NA,NA,NA,NA,NA,NA,NA,14,NA,NA,NA,NA,NA,NA,NA,NA,NA,NA,NA,NA,NA,NA,NA,NA,NA,NA,NA
36c03,check continue,flow.Sequence,3_0_15,NA,NA,skipped,NA,2851660,NA,NA,2851397.0999999,2851660.2000003,2023-08-11T08:33:21Z,2851913.128,NULL,NA,NA,NA,NA,NA,NA,NA,NA,NA,15,NA,NA,NA,NA,NA,NA,NA,NA,NA,NA,NA,NA,NA,NA,NA,NA,NA,NA,NA
36c03,check continue,flow.Sequence,3_0_16,NA,NA,skipped,NA,2851675.4000001,NA,NA,2851397.0999999,2851675.5,2023-08-11T08:33:21Z,2851913.128,NULL,NA,NA,NA,NA,NA,NA,NA,NA,NA,16,NA,NA,NA,NA,NA,NA,NA,NA,NA,NA,NA,NA,NA,NA,NA,NA,NA,NA,NA
36c03,check continue,flow.Sequence,3_0_17,NA,NA,skipped,NA,2851690.5,NA,NA,2851397.0999999,2851690.5999999,2023-08-11T08:33:21Z,2851913.128,NULL,NA,NA,NA,NA,NA,NA,NA,NA,NA,17,NA,NA,NA,NA,NA,NA,NA,NA,NA,NA,NA,NA,NA,NA,NA,NA,NA,NA,NA
36c03,check continue,flow.Sequence,3_0_18,NA,NA,skipped,NA,2851705.4000001,NA,NA,2851397.0999999,2851705.5999999,2023-08-11T08:33:21Z,2851913.128,NULL,NA,NA,NA,NA,NA,NA,NA,NA,NA,18,NA,NA,NA,NA,NA,NA,NA,NA,NA,NA,NA,NA,NA,NA,NA,NA,NA,NA,NA
36c03,check continue,flow.Sequence,3_0_19,NA,NA,skipped,NA,2851724.5999999,NA,NA,2851397.0999999,2851724.8000002,2023-08-11T08:33:21Z,2851913.128,NULL,NA,NA,NA,NA,NA,NA,NA,NA,NA,19,NA,NA,NA,NA,NA,NA,NA,NA,NA,NA,NA,NA,NA,NA,NA,NA,NA,NA,NA
36c03,check continue,flow.Sequence,3_0_20,NA,NA,skipped,NA,2851741.2000003,NA,NA,2851397.0999999,2851741.3000002,2023-08-11T08:33:22Z,2851913.128,NULL,NA,NA,NA,NA,NA,NA,NA,NA,NA,20,NA,NA,NA,NA,NA,NA,NA,NA,NA,NA,NA,NA,NA,NA,NA,NA,NA,NA,NA
36c03,check continue,flow.Sequence,3_0_21,NA,NA,skipped,NA,2851758.3000002,NA,NA,2851397.0999999,2851758.4000001,2023-08-11T08:33:22Z,2851913.128,NULL,NA,NA,NA,NA,NA,NA,NA,NA,NA,21,NA,NA,NA,NA,NA,NA,NA,NA,NA,NA,NA,NA,NA,NA,NA,NA,NA,NA,NA
36c03,check continue,flow.Sequence,3_0_22,NA,NA,skipped,NA,2851772.5,NA,NA,2851397.0999999,2851772.5999999,2023-08-11T08:33:22Z,2851913.128,NULL,NA,NA,NA,NA,NA,NA,NA,NA,NA,22,NA,NA,NA,NA,NA,NA,NA,NA,NA,NA,NA,NA,NA,NA,NA,NA,NA,NA,NA
36c03,check continue,flow.Sequence,3_0_23,NA,NA,skipped,NA,2851788.5999999,NA,NA,2851397.0999999,2851788.7000003,2023-08-11T08:33:22Z,2851913.128,NULL,NA,NA,NA,NA,NA,NA,NA,NA,NA,23,NA,NA,NA,NA,NA,NA,NA,NA,NA,NA,NA,NA,NA,NA,NA,NA,NA,NA,NA
36c03,check continue,flow.Sequence,3_0_24,NA,NA,skipped,NA,2851808.0999999,NA,NA,2851397.0999999,2851808.2000003,2023-08-11T08:33:22Z,2851913.128,NULL,NA,NA,NA,NA,NA,NA,NA,NA,NA,24,NA,NA,NA,NA,NA,NA,NA,NA,NA,NA,NA,NA,NA,NA,NA,NA,NA,NA,NA
36c03,check continue,flow.Sequence,3_0_25,NA,NA,skipped,NA,2851829.5999999,NA,NA,2851397.0999999,2851829.7000003,2023-08-11T08:33:22Z,2851913.128,NULL,NA,NA,NA,NA,NA,NA,NA,NA,NA,25,NA,NA,NA,NA,NA,NA,NA,NA,NA,NA,NA,NA,NA,NA,NA,NA,NA,NA,NA
36c03,check continue,flow.Sequence,3_0_26,NA,NA,skipped,NA,2851848.5999999,NA,NA,2851397.0999999,2851848.7000003,2023-08-11T08:33:22Z,2851913.128,NULL,NA,NA,NA,NA,NA,NA,NA,NA,NA,26,NA,NA,NA,NA,NA,NA,NA,NA,NA,NA,NA,NA,NA,NA,NA,NA,NA,NA,NA
36c03,check continue,flow.Sequence,3_0_27,NA,NA,skipped,NA,2851866.2000003,NA,NA,2851397.0999999,2851866.3000002,2023-08-11T08:33:22Z,2851913.128,NULL,NA,NA,NA,NA,NA,NA,NA,NA,NA,27,NA,NA,NA,NA,NA,NA,NA,NA,NA,NA,NA,NA,NA,NA,NA,NA,NA,NA,NA
36c03,check continue,flow.Sequence,3_0_28,NA,NA,skipped,NA,2851882.5999999,NA,NA,2851397.0999999,2851882.7000003,2023-08-11T08:33:22Z,2851913.128,NULL,NA,NA,NA,NA,NA,NA,NA,NA,NA,28,NA,NA,NA,NA,NA,NA,NA,NA,NA,NA,NA,NA,NA,NA,NA,NA,NA,NA,NA
36c03,check continue,flow.Sequence,3_0_29,NA,NA,skipped,NA,2851897,NA,NA,2851397.0999999,2851897.0999999,2023-08-11T08:33:22Z,2851913.128,NULL,NA,NA,NA,NA,NA,NA,NA,NA,NA,29,NA,NA,NA,NA,NA,NA,NA,NA,NA,NA,NA,NA,NA,NA,NA,NA,NA,NA,NA
36c03,until continue,flow.Loop,3_0,NA,NA,completion,315307.6629999,2536064.3000002,2536072.546,2536089.437,2851397.0999999,2851897.2000003,2023-08-11T08:33:22Z,2851913.128,NULL,NA,NA,NA,NA,NA,NA,NA,NA,NA,NA,NA,NA,NA,NA,NA,NA,NA,NA,NA,NA,NA,NA,NA,NA,NA,NA,NA,NA,NA
36c03,block 1,flow.Sequence,3,NA,NA,completion,315307.6629999,2536064.2000003,2536072.546,2536089.437,2851397.0999999,2851897.2000003,2023-08-11T08:33:22Z,2851913.128,NULL,NA,NA,NA,NA,NA,NA,NA,NA,NA,NA,NA,NA,NA,NA,NA,NA,NA,NA,NA,NA,NA,NA,NA,NA,NA,NA,NA,NA,NA
36c03,1.Part Over,canvas.Screen,4,NA,keypress(Space),response,2716.4719999046,2851897.3000002,2851897.104,2851913.128,2854629.5999999,2854630.8000002,2023-08-11T08:33:24Z,2854711.169,NULL,NA,NA,NA,NA,NA,NA,NA,NA,NA,NA,NA,NA,NA,NA,NA,NA,NA,NA,NA,NA,NA,NA,NA,NA,NA,NA,NA,NA,NA
36c03,Deep Question,html.Page,5_0_0_0_0_0_0,NA,NA,form submission,4919.8309999998,2854700.9000001,2854694.115,2854711.169,2859631,2859631.0999999,2023-08-11T08:33:29Z,2859640.167,NULL,Theorie,nadharia,d,NA,NA,NA,taktika,NA,NA,0,NA,NA,NA,NA,NA,NA,NA,NA,NA,NA,NA,NA,NA,NA,NA,NA,NA,NA,NA
36c03,"""Richtig""-Screen",canvas.Screen,5_0_0_0_0_0_1,NA,NA,skipped,NA,2859632.8000002,NA,NA,2859631,2859632.9000001,2023-08-11T08:33:29Z,2859640.167,NULL,Theorie,nadharia,d,NA,NA,NA,NA,sdf,NA,0,NA,NA,NA,NA,NA,NA,NA,NA,NA,NA,NA,NA,NA,NA,NA,NA,NA,NA,NA
36c03,"""Falsch""-Screen",canvas.Screen,5_0_0_0_0_0_2,NA,NA,timeout,4995.858,2859633.4000001,2859623.702,2859640.167,2864619.494,2864622.5999999,2023-08-11T08:33:34Z,2864636.025,NULL,Theorie,nadharia,d,NA,NA,NA,NA,sdf,0,0,NA,NA,NA,NA,NA,NA,NA,NA,NA,NA,NA,NA,NA,NA,NA,NA,NA,NA,NA
36c03,deep,flow.Sequence,5_0_0_0_0_0,NA,NA,completion,9908.3249999997,2854700.9000001,2854694.115,2854711.169,2864619.494,2864623.4000001,2023-08-11T08:33:34Z,2864636.025,NULL,Theorie,nadharia,d,NA,NA,NA,NA,sdf,NA,0,NA,NA,NA,NA,NA,NA,NA,NA,NA,NA,NA,NA,NA,NA,NA,NA,NA,NA,NA
36c03,shallow,flow.Sequence,5_0_0_0_0_1,NA,NA,skipped,NA,2864623.7000003,NA,NA,2864619.494,2864624,2023-08-11T08:33:34Z,2864636.025,NULL,Theorie,nadharia,d,NA,NA,NA,NA,sdf,NA,0,NA,NA,NA,NA,NA,NA,NA,NA,NA,NA,NA,NA,NA,NA,NA,NA,NA,NA,NA
36c03,task,flow.Sequence,5_0_0_0_0,NA,NA,completion,9908.3249999997,2854700.9000001,2854694.115,2854711.169,2864619.494,2864624.4000001,2023-08-11T08:33:34Z,2864636.025,NULL,Theorie,nadharia,d,NA,NA,NA,NA,sdf,NA,0,NA,NA,NA,NA,NA,NA,NA,NA,NA,NA,NA,NA,NA,NA,NA,NA,NA,NA,NA
36c03,deep,flow.Sequence,5_0_0_0_1_0,NA,NA,skipped,NA,2864624.8000002,NA,NA,2864619.494,2864624.9000001,2023-08-11T08:33:34Z,2864636.025,NULL,Hoffnung,matarajio,s,kutaalamika,uratibu,mvumbuzi,NA,sdf,NA,0,NA,NA,NA,NA,NA,NA,NA,NA,NA,NA,NA,NA,NA,NA,NA,NA,NA,NA,NA
36c03,Shallow Question,html.Page,5_0_0_0_1_1_0,NA,NA,form submission,9055.6750002862,2864628.5999999,2864619.494,2864636.025,2873691.7000003,2873691.9000001,2023-08-11T08:33:43Z,2873695.247,NULL,Hoffnung,matarajio,s,kutaalamika,uratibu,mvumbuzi,matarajio,NA,NA,0,NA,NA,NA,NA,NA,NA,NA,NA,NA,NA,NA,NA,NA,NA,NA,NA,NA,NA,NA
36c03,"""Richtig""-Screen",canvas.Screen,5_0_0_0_1_1_1,NA,NA,timeout,4995.929,2873693.9000001,2873679.033,2873695.247,2878674.78,2878675.9000001,2023-08-11T08:33:48Z,2878691.176,NULL,Hoffnung,matarajio,s,kutaalamika,uratibu,mvumbuzi,NA,sdf,1,0,NA,NA,NA,NA,NA,NA,NA,NA,NA,NA,NA,NA,NA,NA,NA,NA,NA,NA,NA
36c03,"""Falsch""-Screen",canvas.Screen,5_0_0_0_1_1_2,NA,NA,skipped,NA,2878681.9000001,NA,NA,2878674.78,2878682.2000003,2023-08-11T08:33:48Z,2878691.176,NULL,Hoffnung,matarajio,s,kutaalamika,uratibu,mvumbuzi,NA,sdf,NA,0,NA,NA,NA,NA,NA,NA,NA,NA,NA,NA,NA,NA,NA,NA,NA,NA,NA,NA,NA
36c03,shallow,flow.Sequence,5_0_0_0_1_1,NA,NA,completion,14038.755,2864628.5999999,2864619.494,2864636.025,2878674.78,2878682.5999999,2023-08-11T08:33:48Z,2878691.176,NULL,Hoffnung,matarajio,s,kutaalamika,uratibu,mvumbuzi,NA,sdf,NA,0,NA,NA,NA,NA,NA,NA,NA,NA,NA,NA,NA,NA,NA,NA,NA,NA,NA,NA,NA
36c03,task,flow.Sequence,5_0_0_0_1,NA,NA,completion,14038.755,2864624.5999999,2864619.494,2864636.025,2878674.78,2878682.8000002,2023-08-11T08:33:48Z,2878691.176,NULL,Hoffnung,matarajio,s,kutaalamika,uratibu,mvumbuzi,NA,sdf,NA,0,NA,NA,NA,NA,NA,NA,NA,NA,NA,NA,NA,NA,NA,NA,NA,NA,NA,NA,NA
36c03,Deep Question,html.Page,5_0_0_0_2_0_0,NA,NA,form submission,4191.6240001908,2878683,2878674.78,2878691.176,2882882.8000002,2882883,2023-08-11T08:33:53Z,2882887.69,NULL,Atmosphäre,angahewa,d,NA,NA,NA,sapala,NA,NA,0,NA,NA,NA,NA,NA,NA,NA,NA,NA,NA,NA,NA,NA,NA,NA,NA,NA,NA,NA
36c03,"""Richtig""-Screen",canvas.Screen,5_0_0_0_2_0_1,NA,NA,skipped,NA,2882885.4000001,NA,NA,2882882.8000002,2882885.5999999,2023-08-11T08:33:53Z,2882887.69,NULL,Atmosphäre,angahewa,d,NA,NA,NA,NA,sdf,NA,0,NA,NA,NA,NA,NA,NA,NA,NA,NA,NA,NA,NA,NA,NA,NA,NA,NA,NA,NA
36c03,"""Falsch""-Screen",canvas.Screen,5_0_0_0_2_0_2,NA,NA,timeout,4996.0189999999,2882886.5,2882871.585,2882887.69,2887867.326,2887868.3000002,2023-08-11T08:33:58Z,2887883.709,NULL,Atmosphäre,angahewa,d,NA,NA,NA,NA,sdf,0,0,NA,NA,NA,NA,NA,NA,NA,NA,NA,NA,NA,NA,NA,NA,NA,NA,NA,NA,NA
36c03,deep,flow.Sequence,5_0_0_0_2_0,NA,NA,completion,9176.1499999999,2878683,2878674.78,2878691.176,2887867.326,2887868.7000003,2023-08-11T08:33:58Z,2887883.709,NULL,Atmosphäre,angahewa,d,NA,NA,NA,NA,sdf,NA,0,NA,NA,NA,NA,NA,NA,NA,NA,NA,NA,NA,NA,NA,NA,NA,NA,NA,NA,NA
36c03,shallow,flow.Sequence,5_0_0_0_2_1,NA,NA,skipped,NA,2887868.9000001,NA,NA,2887867.326,2887869,2023-08-11T08:33:58Z,2887883.709,NULL,Atmosphäre,angahewa,d,NA,NA,NA,NA,sdf,NA,0,NA,NA,NA,NA,NA,NA,NA,NA,NA,NA,NA,NA,NA,NA,NA,NA,NA,NA,NA
36c03,task,flow.Sequence,5_0_0_0_2,NA,NA,completion,9176.1499999999,2878683,2878674.78,2878691.176,2887867.326,2887869.3000002,2023-08-11T08:33:58Z,2887883.709,NULL,Atmosphäre,angahewa,d,NA,NA,NA,NA,sdf,NA,0,NA,NA,NA,NA,NA,NA,NA,NA,NA,NA,NA,NA,NA,NA,NA,NA,NA,NA,NA
36c03,deep,flow.Sequence,5_0_0_0_3_0,NA,NA,skipped,NA,2887869.4000001,NA,NA,2887867.326,2887869.5999999,2023-08-11T08:33:58Z,2887883.709,NULL,Verpackung,ufungaji,s,uhusiano,upimaji,uchunguzi,NA,sdf,NA,0,NA,NA,NA,NA,NA,NA,NA,NA,NA,NA,NA,NA,NA,NA,NA,NA,NA,NA,NA
36c03,Shallow Question,html.Page,5_0_0_0_3_1_0,NA,NA,form submission,7006.2910000002,2887869.8000002,2887867.326,2887883.709,2894890,2894890.3000002,2023-08-11T08:34:05Z,2894894.497,NULL,Verpackung,ufungaji,s,uhusiano,upimaji,uchunguzi,uhusiano,NA,NA,0,NA,NA,NA,NA,NA,NA,NA,NA,NA,NA,NA,NA,NA,NA,NA,NA,NA,NA,NA
36c03,"""Richtig""-Screen",canvas.Screen,5_0_0_0_3_1_1,NA,NA,skipped,NA,2894892.3000002,NA,NA,2894890,2894892.4000001,2023-08-11T08:34:05Z,2894894.497,NULL,Verpackung,ufungaji,s,uhusiano,upimaji,uchunguzi,NA,sdf,NA,0,NA,NA,NA,NA,NA,NA,NA,NA,NA,NA,NA,NA,NA,NA,NA,NA,NA,NA,NA
36c03,"""Falsch""-Screen",canvas.Screen,5_0_0_0_3_1_2,NA,NA,timeout,4996.602,2894893.0999999,2894878.464,2894894.497,2899873.844,2899875,2023-08-11T08:34:10Z,2899891.099,NULL,Verpackung,ufungaji,s,uhusiano,upimaji,uchunguzi,NA,sdf,0,0,NA,NA,NA,NA,NA,NA,NA,NA,NA,NA,NA,NA,NA,NA,NA,NA,NA,NA,NA
36c03,shallow,flow.Sequence,5_0_0_0_3_1,NA,NA,completion,11990.135,2887869.8000002,2887867.326,2887883.709,2899873.844,2899875.5,2023-08-11T08:34:10Z,2899891.099,NULL,Verpackung,ufungaji,s,uhusiano,upimaji,uchunguzi,NA,sdf,NA,0,NA,NA,NA,NA,NA,NA,NA,NA,NA,NA,NA,NA,NA,NA,NA,NA,NA,NA,NA
36c03,task,flow.Sequence,5_0_0_0_3,NA,NA,completion,11990.135,2887869.4000001,2887867.326,2887883.709,2899873.844,2899875.7000003,2023-08-11T08:34:10Z,2899891.099,NULL,Verpackung,ufungaji,s,uhusiano,upimaji,uchunguzi,NA,sdf,NA,0,NA,NA,NA,NA,NA,NA,NA,NA,NA,NA,NA,NA,NA,NA,NA,NA,NA,NA,NA
36c03,Deep Question,html.Page,5_0_0_0_4_0_0,NA,NA,form submission,5684.8010000954,2899876,2899873.844,2899891.099,2905575.9000001,2905576,2023-08-11T08:34:15Z,2905585.906,NULL,Schock,mshtuko,d,NA,NA,NA,raakkal,NA,NA,0,NA,NA,NA,NA,NA,NA,NA,NA,NA,NA,NA,NA,NA,NA,NA,NA,NA,NA,NA
36c03,"""Richtig""-Screen",canvas.Screen,5_0_0_0_4_0_1,NA,NA,skipped,NA,2905578,NA,NA,2905575.9000001,2905578.0999999,2023-08-11T08:34:15Z,2905585.906,NULL,Schock,mshtuko,d,NA,NA,NA,NA,sdf,NA,0,NA,NA,NA,NA,NA,NA,NA,NA,NA,NA,NA,NA,NA,NA,NA,NA,NA,NA,NA
36c03,"""Falsch""-Screen",canvas.Screen,5_0_0_0_4_0_2,NA,NA,timeout,4995.6499999999,2905578.7000003,2905569.609,2905585.906,2910565.354,2910566.5,2023-08-11T08:34:20Z,2910581.556,NULL,Schock,mshtuko,d,NA,NA,NA,NA,sdf,0,0,NA,NA,NA,NA,NA,NA,NA,NA,NA,NA,NA,NA,NA,NA,NA,NA,NA,NA,NA
36c03,deep,flow.Sequence,5_0_0_0_4_0,NA,NA,completion,10674.255,2899875.9000001,2899873.844,2899891.099,2910565.354,2910566.9000001,2023-08-11T08:34:20Z,2910581.556,NULL,Schock,mshtuko,d,NA,NA,NA,NA,sdf,NA,0,NA,NA,NA,NA,NA,NA,NA,NA,NA,NA,NA,NA,NA,NA,NA,NA,NA,NA,NA
36c03,shallow,flow.Sequence,5_0_0_0_4_1,NA,NA,skipped,NA,2910567.0999999,NA,NA,2910565.354,2910567.3000002,2023-08-11T08:34:20Z,2910581.556,NULL,Schock,mshtuko,d,NA,NA,NA,NA,sdf,NA,0,NA,NA,NA,NA,NA,NA,NA,NA,NA,NA,NA,NA,NA,NA,NA,NA,NA,NA,NA
36c03,task,flow.Sequence,5_0_0_0_4,NA,NA,completion,10674.255,2899875.9000001,2899873.844,2899891.099,2910565.354,2910567.5999999,2023-08-11T08:34:20Z,2910581.556,NULL,Schock,mshtuko,d,NA,NA,NA,NA,sdf,NA,0,NA,NA,NA,NA,NA,NA,NA,NA,NA,NA,NA,NA,NA,NA,NA,NA,NA,NA,NA
36c03,Deep Question,html.Page,5_0_0_0_5_0_0,NA,NA,form submission,9885.6440002862,2910567.9000001,2910565.354,2910581.556,2920467.2000003,2920467.4000001,2023-08-11T08:34:30Z,2920473.426,NULL,Flexibilität,kubadilika,d,NA,NA,NA,til,NA,NA,0,NA,NA,NA,NA,NA,NA,NA,NA,NA,NA,NA,NA,NA,NA,NA,NA,NA,NA,NA
36c03,"""Richtig""-Screen",canvas.Screen,5_0_0_0_5_0_1,NA,NA,skipped,NA,2920470.0999999,NA,NA,2920467.2000003,2920470.2000003,2023-08-11T08:34:30Z,2920473.426,NULL,Flexibilität,kubadilika,d,NA,NA,NA,NA,sdf,NA,0,NA,NA,NA,NA,NA,NA,NA,NA,NA,NA,NA,NA,NA,NA,NA,NA,NA,NA,NA
36c03,"""Falsch""-Screen",canvas.Screen,5_0_0_0_5_0_2,NA,NA,timeout,4996.5440000002,2920471.0999999,2920457.39,2920473.426,2925453.338,2925454,2023-08-11T08:34:35Z,2925469.97,NULL,Flexibilität,kubadilika,d,NA,NA,NA,NA,sdf,0,0,NA,NA,NA,NA,NA,NA,NA,NA,NA,NA,NA,NA,NA,NA,NA,NA,NA,NA,NA
36c03,deep,flow.Sequence,5_0_0_0_5_0,NA,NA,completion,14871.782,2910567.7000003,2910565.354,2910581.556,2925453.338,2925454.0999999,2023-08-11T08:34:35Z,2925469.97,NULL,Flexibilität,kubadilika,d,NA,NA,NA,NA,sdf,NA,0,NA,NA,NA,NA,NA,NA,NA,NA,NA,NA,NA,NA,NA,NA,NA,NA,NA,NA,NA
36c03,shallow,flow.Sequence,5_0_0_0_5_1,NA,NA,skipped,NA,2925454.3000002,NA,NA,2925453.338,2925454.3000002,2023-08-11T08:34:35Z,2925469.97,NULL,Flexibilität,kubadilika,d,NA,NA,NA,NA,sdf,NA,0,NA,NA,NA,NA,NA,NA,NA,NA,NA,NA,NA,NA,NA,NA,NA,NA,NA,NA,NA
36c03,task,flow.Sequence,5_0_0_0_5,NA,NA,completion,14871.782,2910567.7000003,2910565.354,2910581.556,2925453.338,2925454.4000001,2023-08-11T08:34:35Z,2925469.97,NULL,Flexibilität,kubadilika,d,NA,NA,NA,NA,sdf,NA,0,NA,NA,NA,NA,NA,NA,NA,NA,NA,NA,NA,NA,NA,NA,NA,NA,NA,NA,NA
36c03,deep,flow.Sequence,5_0_0_0_6_0,NA,NA,skipped,NA,2925454.5,NA,NA,2925453.338,2925454.5,2023-08-11T08:34:35Z,2925469.97,NULL,Wechsel,ugeuzaji,s,utambulisho,kujenga,wasiwasi,NA,sdf,NA,0,NA,NA,NA,NA,NA,NA,NA,NA,NA,NA,NA,NA,NA,NA,NA,NA,NA,NA,NA
36c03,Shallow Question,html.Page,5_0_0_0_6_1_0,NA,NA,form submission,5925.3300001905,2925454.7000003,2925453.338,2925469.97,2931395.3000002,2931395.5,2023-08-11T08:34:41Z,2931397.778,NULL,Wechsel,ugeuzaji,s,utambulisho,kujenga,wasiwasi,wasiwasi,NA,NA,0,NA,NA,NA,NA,NA,NA,NA,NA,NA,NA,NA,NA,NA,NA,NA,NA,NA,NA,NA
36c03,"""Richtig""-Screen",canvas.Screen,5_0_0_0_6_1_1,NA,NA,skipped,NA,2931397.5,NA,NA,2931395.3000002,2931397.5999999,2023-08-11T08:34:41Z,2931397.778,NULL,Wechsel,ugeuzaji,s,utambulisho,kujenga,wasiwasi,NA,sdf,NA,0,NA,NA,NA,NA,NA,NA,NA,NA,NA,NA,NA,NA,NA,NA,NA,NA,NA,NA,NA
36c03,"""Falsch""-Screen",canvas.Screen,5_0_0_0_6_1_2,NA,NA,timeout,4996.3170000003,2931398.2000003,2931381.818,2931397.778,2936377.498,2936378.5,2023-08-11T08:34:46Z,2936394.095,NULL,Wechsel,ugeuzaji,s,utambulisho,kujenga,wasiwasi,NA,sdf,0,0,NA,NA,NA,NA,NA,NA,NA,NA,NA,NA,NA,NA,NA,NA,NA,NA,NA,NA,NA
36c03,shallow,flow.Sequence,5_0_0_0_6_1,NA,NA,completion,10907.528,2925454.5999999,2925453.338,2925469.97,2936377.498,2936378.8000002,2023-08-11T08:34:46Z,2936394.095,NULL,Wechsel,ugeuzaji,s,utambulisho,kujenga,wasiwasi,NA,sdf,NA,0,NA,NA,NA,NA,NA,NA,NA,NA,NA,NA,NA,NA,NA,NA,NA,NA,NA,NA,NA
36c03,task,flow.Sequence,5_0_0_0_6,NA,NA,completion,10907.528,2925454.5,2925453.338,2925469.97,2936377.498,2936379.0999999,2023-08-11T08:34:46Z,2936394.095,NULL,Wechsel,ugeuzaji,s,utambulisho,kujenga,wasiwasi,NA,sdf,NA,0,NA,NA,NA,NA,NA,NA,NA,NA,NA,NA,NA,NA,NA,NA,NA,NA,NA,NA,NA
36c03,deep,flow.Sequence,5_0_0_0_7_0,NA,NA,skipped,NA,2936379.3000002,NA,NA,2936377.498,2936379.5,2023-08-11T08:34:46Z,2936394.095,NULL,Erneuerung,ukarabati,s,ushawishi,ukalifu,unyonyaji,NA,sdf,NA,0,NA,NA,NA,NA,NA,NA,NA,NA,NA,NA,NA,NA,NA,NA,NA,NA,NA,NA,NA
36c03,Shallow Question,html.Page,5_0_0_0_7_1_0,NA,NA,form submission,10853.004999904,2936379.5999999,2936377.498,2936394.095,2947247.0999999,2947247.4000001,2023-08-11T08:34:57Z,2947251.457,NULL,Erneuerung,ukarabati,s,ushawishi,ukalifu,unyonyaji,ushawishi,NA,NA,0,NA,NA,NA,NA,NA,NA,NA,NA,NA,NA,NA,NA,NA,NA,NA,NA,NA,NA,NA
36c03,"""Richtig""-Screen",canvas.Screen,5_0_0_0_7_1_1,NA,NA,skipped,NA,2947249.5,NA,NA,2947247.0999999,2947249.5999999,2023-08-11T08:34:57Z,2947251.457,NULL,Erneuerung,ukarabati,s,ushawishi,ukalifu,unyonyaji,NA,sdf,NA,0,NA,NA,NA,NA,NA,NA,NA,NA,NA,NA,NA,NA,NA,NA,NA,NA,NA,NA,NA
36c03,"""Falsch""-Screen",canvas.Screen,5_0_0_0_7_1_2,NA,NA,timeout,4996.3569999998,2947250.3000002,2947235.308,2947251.457,2952230.763,2952231.9000001,2023-08-11T08:35:02Z,2952247.814,NULL,Erneuerung,ukarabati,s,ushawishi,ukalifu,unyonyaji,NA,sdf,0,0,NA,NA,NA,NA,NA,NA,NA,NA,NA,NA,NA,NA,NA,NA,NA,NA,NA,NA,NA
36c03,shallow,flow.Sequence,5_0_0_0_7_1,NA,NA,completion,15836.668,2936379.5999999,2936377.498,2936394.095,2952230.763,2952232.5,2023-08-11T08:35:02Z,2952247.814,NULL,Erneuerung,ukarabati,s,ushawishi,ukalifu,unyonyaji,NA,sdf,NA,0,NA,NA,NA,NA,NA,NA,NA,NA,NA,NA,NA,NA,NA,NA,NA,NA,NA,NA,NA
36c03,task,flow.Sequence,5_0_0_0_7,NA,NA,completion,15836.668,2936379.2000003,2936377.498,2936394.095,2952230.763,2952232.8000002,2023-08-11T08:35:02Z,2952247.814,NULL,Erneuerung,ukarabati,s,ushawishi,ukalifu,unyonyaji,NA,sdf,NA,0,NA,NA,NA,NA,NA,NA,NA,NA,NA,NA,NA,NA,NA,NA,NA,NA,NA,NA,NA
36c03,block,flow.Loop,5_0_0_0,NA,NA,completion,97519.594,2854700.9000001,2854694.115,2854711.169,2952230.763,2952233.0999999,2023-08-11T08:35:02Z,2952247.814,NULL,NA,NA,NA,NA,NA,NA,NA,sdf,NA,0,NA,NA,NA,NA,NA,NA,NA,NA,NA,NA,NA,NA,NA,NA,NA,NA,NA,NA,NA
36c03,weiter,canvas.Screen,5_0_0_1,sdf,keypress(Space),response,906.28599990485,2952233.5,2952230.763,2952247.814,2953154.0999999,2953159.0999999,2023-08-11T08:35:03Z,2953197.076,NULL,NA,NA,NA,NA,NA,NA,NA,sdf,NA,0,NA,NA,NA,NA,NA,NA,NA,NA,NA,NA,NA,NA,NA,NA,NA,NA,NA,NA,NA
36c03,check continue,flow.Sequence,5_0_0,NA,NA,completion,98442.930999904,2854700.9000001,2854694.115,2854711.169,2953154.0999999,2953159.4000001,2023-08-11T08:35:03Z,2953197.076,NULL,NA,NA,NA,NA,NA,NA,NA,sdf,NA,0,NA,NA,NA,NA,NA,NA,NA,NA,NA,NA,NA,NA,NA,NA,NA,NA,NA,NA,NA
36c03,Deep Question,html.Page,5_0_1_0_0_0_0,NA,NA,form submission,7485.4240000001,2953188.8000002,2953180.432,2953197.076,2960682.5,2960682.5999999,2023-08-11T08:35:10Z,2960690.385,NULL,Atmosphäre,angahewa,d,NA,NA,NA,idilia,NA,NA,1,NA,NA,NA,NA,NA,NA,NA,NA,NA,NA,NA,NA,NA,NA,NA,NA,NA,NA,NA
36c03,"""Richtig""-Screen",canvas.Screen,5_0_1_0_0_0_1,NA,NA,skipped,NA,2960685.3000002,NA,NA,2960682.5,2960685.4000001,2023-08-11T08:35:10Z,2960690.385,NULL,Atmosphäre,angahewa,d,NA,NA,NA,NA,sdfdsf,NA,1,NA,NA,NA,NA,NA,NA,NA,NA,NA,NA,NA,NA,NA,NA,NA,NA,NA,NA,NA
36c03,"""Falsch""-Screen",canvas.Screen,5_0_1_0_0_0_2,NA,NA,timeout,4996.4620000003,2960686,2960674.328,2960690.385,2965670.056,2965671.2000003,2023-08-11T08:35:15Z,2965686.847,NULL,Atmosphäre,angahewa,d,NA,NA,NA,NA,sdfdsf,0,1,NA,NA,NA,NA,NA,NA,NA,NA,NA,NA,NA,NA,NA,NA,NA,NA,NA,NA,NA
36c03,deep,flow.Sequence,5_0_1_0_0_0,NA,NA,completion,12472.98,2953188.8000002,2953180.432,2953197.076,2965670.056,2965671.5999999,2023-08-11T08:35:15Z,2965686.847,NULL,Atmosphäre,angahewa,d,NA,NA,NA,NA,sdfdsf,NA,1,NA,NA,NA,NA,NA,NA,NA,NA,NA,NA,NA,NA,NA,NA,NA,NA,NA,NA,NA
36c03,shallow,flow.Sequence,5_0_1_0_0_1,NA,NA,skipped,NA,2965671.7000003,NA,NA,2965670.056,2965671.9000001,2023-08-11T08:35:15Z,2965686.847,NULL,Atmosphäre,angahewa,d,NA,NA,NA,NA,sdfdsf,NA,1,NA,NA,NA,NA,NA,NA,NA,NA,NA,NA,NA,NA,NA,NA,NA,NA,NA,NA,NA
36c03,task,flow.Sequence,5_0_1_0_0,NA,NA,completion,12472.98,2953188.8000002,2953180.432,2953197.076,2965670.056,2965672.2000003,2023-08-11T08:35:15Z,2965686.847,NULL,Atmosphäre,angahewa,d,NA,NA,NA,NA,sdfdsf,NA,1,NA,NA,NA,NA,NA,NA,NA,NA,NA,NA,NA,NA,NA,NA,NA,NA,NA,NA,NA
36c03,deep,flow.Sequence,5_0_1_0_1_0,NA,NA,skipped,NA,2965672.4000001,NA,NA,2965670.056,2965672.5999999,2023-08-11T08:35:15Z,2965686.847,NULL,Erneuerung,ukarabati,s,ushawishi,ukalifu,unyonyaji,NA,sdfdsf,NA,1,NA,NA,NA,NA,NA,NA,NA,NA,NA,NA,NA,NA,NA,NA,NA,NA,NA,NA,NA
36c03,Shallow Question,html.Page,5_0_1_0_1_1_0,NA,NA,form submission,8247.5530000953,2965672.7000003,2965670.056,2965686.847,2973934.4000001,2973934.5999999,2023-08-11T08:35:24Z,2973946.167,NULL,Erneuerung,ukarabati,s,ushawishi,ukalifu,unyonyaji,ukarabati,NA,NA,1,NA,NA,NA,NA,NA,NA,NA,NA,NA,NA,NA,NA,NA,NA,NA,NA,NA,NA,NA
36c03,"""Richtig""-Screen",canvas.Screen,5_0_1_0_1_1_1,NA,NA,timeout,4996.2250000001,2973936.7000003,2973930.005,2973946.167,2978925.476,2978927.0999999,2023-08-11T08:35:29Z,2978942.392,NULL,Erneuerung,ukarabati,s,ushawishi,ukalifu,unyonyaji,NA,sdfdsf,1,1,NA,NA,NA,NA,NA,NA,NA,NA,NA,NA,NA,NA,NA,NA,NA,NA,NA,NA,NA
36c03,"""Falsch""-Screen",canvas.Screen,5_0_1_0_1_1_2,NA,NA,skipped,NA,2978932.0999999,NA,NA,2978925.476,2978932.3000002,2023-08-11T08:35:29Z,2978942.392,NULL,Erneuerung,ukarabati,s,ushawishi,ukalifu,unyonyaji,NA,sdfdsf,NA,1,NA,NA,NA,NA,NA,NA,NA,NA,NA,NA,NA,NA,NA,NA,NA,NA,NA,NA,NA
36c03,shallow,flow.Sequence,5_0_1_0_1_1,NA,NA,completion,13238.629,2965672.7000003,2965670.056,2965686.847,2978925.476,2978932.8000002,2023-08-11T08:35:29Z,2978942.392,NULL,Erneuerung,ukarabati,s,ushawishi,ukalifu,unyonyaji,NA,sdfdsf,NA,1,NA,NA,NA,NA,NA,NA,NA,NA,NA,NA,NA,NA,NA,NA,NA,NA,NA,NA,NA
36c03,task,flow.Sequence,5_0_1_0_1,NA,NA,completion,13238.629,2965672.3000002,2965670.056,2965686.847,2978925.476,2978933.2000003,2023-08-11T08:35:29Z,2978942.392,NULL,Erneuerung,ukarabati,s,ushawishi,ukalifu,unyonyaji,NA,sdfdsf,NA,1,NA,NA,NA,NA,NA,NA,NA,NA,NA,NA,NA,NA,NA,NA,NA,NA,NA,NA,NA
36c03,Deep Question,html.Page,5_0_1_0_2_0_0,NA,NA,form submission,12502.808000286,2978933.5,2978925.476,2978942.392,2991445.2000003,2991445.4000001,2023-08-11T08:35:41Z,2991448.414,NULL,Flexibilität,kubadilika,d,NA,NA,NA,kubawasi,NA,NA,1,NA,NA,NA,NA,NA,NA,NA,NA,NA,NA,NA,NA,NA,NA,NA,NA,NA,NA,NA
36c03,"""Richtig""-Screen",canvas.Screen,5_0_1_0_2_0_1,NA,NA,skipped,NA,2991447.2000003,NA,NA,2991445.2000003,2991447.4000001,2023-08-11T08:35:41Z,2991448.414,NULL,Flexibilität,kubadilika,d,NA,NA,NA,NA,sdfdsf,NA,1,NA,NA,NA,NA,NA,NA,NA,NA,NA,NA,NA,NA,NA,NA,NA,NA,NA,NA,NA
36c03,"""Falsch""-Screen",canvas.Screen,5_0_1_0_2_0_2,NA,NA,timeout,4996.2310000001,2991448,2991432.24,2991448.414,2996428.34,2996429.5,2023-08-11T08:35:46Z,2996444.645,NULL,Flexibilität,kubadilika,d,NA,NA,NA,NA,sdfdsf,0,1,NA,NA,NA,NA,NA,NA,NA,NA,NA,NA,NA,NA,NA,NA,NA,NA,NA,NA,NA
36c03,deep,flow.Sequence,5_0_1_0_2_0,NA,NA,completion,17485.948,2978933.4000001,2978925.476,2978942.392,2996428.34,2996430,2023-08-11T08:35:46Z,2996444.645,NULL,Flexibilität,kubadilika,d,NA,NA,NA,NA,sdfdsf,NA,1,NA,NA,NA,NA,NA,NA,NA,NA,NA,NA,NA,NA,NA,NA,NA,NA,NA,NA,NA
36c03,shallow,flow.Sequence,5_0_1_0_2_1,NA,NA,skipped,NA,2996430.2000003,NA,NA,2996428.34,2996430.3000002,2023-08-11T08:35:46Z,2996444.645,NULL,Flexibilität,kubadilika,d,NA,NA,NA,NA,sdfdsf,NA,1,NA,NA,NA,NA,NA,NA,NA,NA,NA,NA,NA,NA,NA,NA,NA,NA,NA,NA,NA
36c03,task,flow.Sequence,5_0_1_0_2,NA,NA,completion,17485.948,2978933.3000002,2978925.476,2978942.392,2996428.34,2996430.5999999,2023-08-11T08:35:46Z,2996444.645,NULL,Flexibilität,kubadilika,d,NA,NA,NA,NA,sdfdsf,NA,1,NA,NA,NA,NA,NA,NA,NA,NA,NA,NA,NA,NA,NA,NA,NA,NA,NA,NA,NA
36c03,Deep Question,html.Page,5_0_1_0_3_0_0,NA,NA,form submission,10016.355,2996430.8000002,2996428.34,2996444.645,3006461,3006461.0999999,2023-08-11T08:35:56Z,3006469.441,NULL,Schock,mshtuko,d,NA,NA,NA,saok,NA,NA,1,NA,NA,NA,NA,NA,NA,NA,NA,NA,NA,NA,NA,NA,NA,NA,NA,NA,NA,NA
36c03,"""Richtig""-Screen",canvas.Screen,5_0_1_0_3_0_1,NA,NA,skipped,NA,3006463,NA,NA,3006461,3006463.0999999,2023-08-11T08:35:56Z,3006469.441,NULL,Schock,mshtuko,d,NA,NA,NA,NA,sdfdsf,NA,1,NA,NA,NA,NA,NA,NA,NA,NA,NA,NA,NA,NA,NA,NA,NA,NA,NA,NA,NA
36c03,"""Falsch""-Screen",canvas.Screen,5_0_1_0_3_0_2,NA,NA,timeout,4996.423,3006463.7000003,3006453.408,3006469.441,3011448.74,3011449.9000001,2023-08-11T08:36:01Z,3011465.864,NULL,Schock,mshtuko,d,NA,NA,NA,NA,sdfdsf,0,1,NA,NA,NA,NA,NA,NA,NA,NA,NA,NA,NA,NA,NA,NA,NA,NA,NA,NA,NA
36c03,deep,flow.Sequence,5_0_1_0_3_0,NA,NA,completion,15004.095,2996430.8000002,2996428.34,2996444.645,3011448.74,3011450.4000001,2023-08-11T08:36:01Z,3011465.864,NULL,Schock,mshtuko,d,NA,NA,NA,NA,sdfdsf,NA,1,NA,NA,NA,NA,NA,NA,NA,NA,NA,NA,NA,NA,NA,NA,NA,NA,NA,NA,NA
36c03,shallow,flow.Sequence,5_0_1_0_3_1,NA,NA,skipped,NA,3011450.5999999,NA,NA,3011448.74,3011450.8000002,2023-08-11T08:36:01Z,3011465.864,NULL,Schock,mshtuko,d,NA,NA,NA,NA,sdfdsf,NA,1,NA,NA,NA,NA,NA,NA,NA,NA,NA,NA,NA,NA,NA,NA,NA,NA,NA,NA,NA
36c03,task,flow.Sequence,5_0_1_0_3,NA,NA,completion,15004.095,2996430.7000003,2996428.34,2996444.645,3011448.74,3011450.9000001,2023-08-11T08:36:01Z,3011465.864,NULL,Schock,mshtuko,d,NA,NA,NA,NA,sdfdsf,NA,1,NA,NA,NA,NA,NA,NA,NA,NA,NA,NA,NA,NA,NA,NA,NA,NA,NA,NA,NA
36c03,deep,flow.Sequence,5_0_1_0_4_0,NA,NA,skipped,NA,3011451.0999999,NA,NA,3011448.74,3011451.3000002,2023-08-11T08:36:01Z,3011465.864,NULL,Hoffnung,matarajio,s,kutaalamika,uratibu,mvumbuzi,NA,sdfdsf,NA,1,NA,NA,NA,NA,NA,NA,NA,NA,NA,NA,NA,NA,NA,NA,NA,NA,NA,NA,NA
36c03,Shallow Question,html.Page,5_0_1_0_4_1_0,NA,NA,form submission,16607.036000095,3011451.4000001,3011448.74,3011465.864,3028072.9000001,3028073.0999999,2023-08-11T08:36:18Z,3028085.604,NULL,Hoffnung,matarajio,s,kutaalamika,uratibu,mvumbuzi,matarajio,NA,NA,1,NA,NA,NA,NA,NA,NA,NA,NA,NA,NA,NA,NA,NA,NA,NA,NA,NA,NA,NA
36c03,"""Richtig""-Screen",canvas.Screen,5_0_1_0_4_1_1,NA,NA,timeout,4995.2540000002,3028075.2000003,3028068.819,3028085.604,3033064.343,3033065.5,2023-08-11T08:36:23Z,3033080.858,NULL,Hoffnung,matarajio,s,kutaalamika,uratibu,mvumbuzi,NA,sdfdsf,1,1,NA,NA,NA,NA,NA,NA,NA,NA,NA,NA,NA,NA,NA,NA,NA,NA,NA,NA,NA
36c03,"""Falsch""-Screen",canvas.Screen,5_0_1_0_4_1_2,NA,NA,skipped,NA,3033070.3000002,NA,NA,3033064.343,3033070.4000001,2023-08-11T08:36:23Z,3033080.858,NULL,Hoffnung,matarajio,s,kutaalamika,uratibu,mvumbuzi,NA,sdfdsf,NA,1,NA,NA,NA,NA,NA,NA,NA,NA,NA,NA,NA,NA,NA,NA,NA,NA,NA,NA,NA
36c03,shallow,flow.Sequence,5_0_1_0_4_1,NA,NA,completion,21598.479,3011451.4000001,3011448.74,3011465.864,3033064.343,3033070.5,2023-08-11T08:36:23Z,3033080.858,NULL,Hoffnung,matarajio,s,kutaalamika,uratibu,mvumbuzi,NA,sdfdsf,NA,1,NA,NA,NA,NA,NA,NA,NA,NA,NA,NA,NA,NA,NA,NA,NA,NA,NA,NA,NA
36c03,task,flow.Sequence,5_0_1_0_4,NA,NA,completion,21598.479,3011451,3011448.74,3011465.864,3033064.343,3033070.7000003,2023-08-11T08:36:23Z,3033080.858,NULL,Hoffnung,matarajio,s,kutaalamika,uratibu,mvumbuzi,NA,sdfdsf,NA,1,NA,NA,NA,NA,NA,NA,NA,NA,NA,NA,NA,NA,NA,NA,NA,NA,NA,NA,NA
36c03,Deep Question,html.Page,5_0_1_0_5_0_0,NA,NA,form submission,6960.2419999046,3033070.7000003,3033064.343,3033080.858,3040041.0999999,3040041.3000002,2023-08-11T08:36:30Z,3040059.147,NULL,Theorie,nadharia,d,NA,NA,NA,shtak,NA,NA,1,NA,NA,NA,NA,NA,NA,NA,NA,NA,NA,NA,NA,NA,NA,NA,NA,NA,NA,NA
36c03,"""Richtig""-Screen",canvas.Screen,5_0_1_0_5_0_1,NA,NA,skipped,NA,3040043.4000001,NA,NA,3040041.0999999,3040043.5,2023-08-11T08:36:30Z,3040059.147,NULL,Theorie,nadharia,d,NA,NA,NA,NA,sdfdsf,NA,1,NA,NA,NA,NA,NA,NA,NA,NA,NA,NA,NA,NA,NA,NA,NA,NA,NA,NA,NA
36c03,"""Falsch""-Screen",canvas.Screen,5_0_1_0_5_0_2,NA,NA,timeout,4995.5100000002,3040044.4000001,3040025.76,3040059.147,3045038.556,3045039.2000003,2023-08-11T08:36:35Z,3045054.657,NULL,Theorie,nadharia,d,NA,NA,NA,NA,sdfdsf,0,1,NA,NA,NA,NA,NA,NA,NA,NA,NA,NA,NA,NA,NA,NA,NA,NA,NA,NA,NA
36c03,deep,flow.Sequence,5_0_1_0_5_0,NA,NA,completion,11957.698,3033070.7000003,3033064.343,3033080.858,3045038.556,3045039.3000002,2023-08-11T08:36:35Z,3045054.657,NULL,Theorie,nadharia,d,NA,NA,NA,NA,sdfdsf,NA,1,NA,NA,NA,NA,NA,NA,NA,NA,NA,NA,NA,NA,NA,NA,NA,NA,NA,NA,NA
36c03,shallow,flow.Sequence,5_0_1_0_5_1,NA,NA,skipped,NA,3045039.4000001,NA,NA,3045038.556,3045039.5,2023-08-11T08:36:35Z,3045054.657,NULL,Theorie,nadharia,d,NA,NA,NA,NA,sdfdsf,NA,1,NA,NA,NA,NA,NA,NA,NA,NA,NA,NA,NA,NA,NA,NA,NA,NA,NA,NA,NA
36c03,task,flow.Sequence,5_0_1_0_5,NA,NA,completion,11957.698,3033070.7000003,3033064.343,3033080.858,3045038.556,3045039.7000003,2023-08-11T08:36:35Z,3045054.657,NULL,Theorie,nadharia,d,NA,NA,NA,NA,sdfdsf,NA,1,NA,NA,NA,NA,NA,NA,NA,NA,NA,NA,NA,NA,NA,NA,NA,NA,NA,NA,NA
36c03,deep,flow.Sequence,5_0_1_0_6_0,NA,NA,skipped,NA,3045039.7000003,NA,NA,3045038.556,3045039.8000002,2023-08-11T08:36:35Z,3045054.657,NULL,Verpackung,ufungaji,s,uhusiano,upimaji,uchunguzi,NA,sdfdsf,NA,1,NA,NA,NA,NA,NA,NA,NA,NA,NA,NA,NA,NA,NA,NA,NA,NA,NA,NA,NA
36c03,Shallow Question,html.Page,5_0_1_0_6_1_0,NA,NA,form submission,6742.543000286,3045039.9000001,3045038.556,3045054.657,3051797.2000003,3051797.5,2023-08-11T08:36:42Z,3051798.824,NULL,Verpackung,ufungaji,s,uhusiano,upimaji,uchunguzi,ufungaji,NA,NA,1,NA,NA,NA,NA,NA,NA,NA,NA,NA,NA,NA,NA,NA,NA,NA,NA,NA,NA,NA
36c03,"""Richtig""-Screen",canvas.Screen,5_0_1_0_6_1_1,NA,NA,timeout,4995.909,3051799.5,3051782.51,3051798.824,3056778.264,3056779.4000001,2023-08-11T08:36:47Z,3056794.733,NULL,Verpackung,ufungaji,s,uhusiano,upimaji,uchunguzi,NA,sdfdsf,1,1,NA,NA,NA,NA,NA,NA,NA,NA,NA,NA,NA,NA,NA,NA,NA,NA,NA,NA,NA
36c03,"""Falsch""-Screen",canvas.Screen,5_0_1_0_6_1_2,NA,NA,skipped,NA,3056785,NA,NA,3056778.264,3056785.4000001,2023-08-11T08:36:47Z,3056794.733,NULL,Verpackung,ufungaji,s,uhusiano,upimaji,uchunguzi,NA,sdfdsf,NA,1,NA,NA,NA,NA,NA,NA,NA,NA,NA,NA,NA,NA,NA,NA,NA,NA,NA,NA,NA
36c03,shallow,flow.Sequence,5_0_1_0_6_1,NA,NA,completion,11723.607,3045039.8000002,3045038.556,3045054.657,3056778.264,3056785.8000002,2023-08-11T08:36:47Z,3056794.733,NULL,Verpackung,ufungaji,s,uhusiano,upimaji,uchunguzi,NA,sdfdsf,NA,1,NA,NA,NA,NA,NA,NA,NA,NA,NA,NA,NA,NA,NA,NA,NA,NA,NA,NA,NA
36c03,task,flow.Sequence,5_0_1_0_6,NA,NA,completion,11723.607,3045039.7000003,3045038.556,3045054.657,3056778.264,3056786.0999999,2023-08-11T08:36:47Z,3056794.733,NULL,Verpackung,ufungaji,s,uhusiano,upimaji,uchunguzi,NA,sdfdsf,NA,1,NA,NA,NA,NA,NA,NA,NA,NA,NA,NA,NA,NA,NA,NA,NA,NA,NA,NA,NA
36c03,deep,flow.Sequence,5_0_1_0_7_0,NA,NA,skipped,NA,3056786.3000002,NA,NA,3056778.264,3056786.4000001,2023-08-11T08:36:47Z,3056794.733,NULL,Wechsel,ugeuzaji,s,utambulisho,kujenga,wasiwasi,NA,sdfdsf,NA,1,NA,NA,NA,NA,NA,NA,NA,NA,NA,NA,NA,NA,NA,NA,NA,NA,NA,NA,NA
36c03,Shallow Question,html.Page,5_0_1_0_7_1_0,NA,NA,form submission,3907.6670000954,3056786.5999999,3056778.264,3056794.733,3060702.4000001,3060702.5999999,2023-08-11T08:36:50Z,3060708.131,NULL,Wechsel,ugeuzaji,s,utambulisho,kujenga,wasiwasi,ugeuzaji,NA,NA,1,NA,NA,NA,NA,NA,NA,NA,NA,NA,NA,NA,NA,NA,NA,NA,NA,NA,NA,NA
36c03,"""Richtig""-Screen",canvas.Screen,5_0_1_0_7_1_1,NA,NA,timeout,4995.898,3060704.3000002,3060692.064,3060708.131,3065687.83,3065688.8000002,2023-08-11T08:36:55Z,3065704.029,NULL,Wechsel,ugeuzaji,s,utambulisho,kujenga,wasiwasi,NA,sdfdsf,1,1,NA,NA,NA,NA,NA,NA,NA,NA,NA,NA,NA,NA,NA,NA,NA,NA,NA,NA,NA
36c03,"""Falsch""-Screen",canvas.Screen,5_0_1_0_7_1_2,NA,NA,skipped,NA,3065694.5999999,NA,NA,3065687.83,3065695,2023-08-11T08:36:55Z,3065704.029,NULL,Wechsel,ugeuzaji,s,utambulisho,kujenga,wasiwasi,NA,sdfdsf,NA,1,NA,NA,NA,NA,NA,NA,NA,NA,NA,NA,NA,NA,NA,NA,NA,NA,NA,NA,NA
36c03,shallow,flow.Sequence,5_0_1_0_7_1,NA,NA,completion,8893.0970000001,3056786.5,3056778.264,3056794.733,3065687.83,3065695.4000001,2023-08-11T08:36:55Z,3065704.029,NULL,Wechsel,ugeuzaji,s,utambulisho,kujenga,wasiwasi,NA,sdfdsf,NA,1,NA,NA,NA,NA,NA,NA,NA,NA,NA,NA,NA,NA,NA,NA,NA,NA,NA,NA,NA
36c03,task,flow.Sequence,5_0_1_0_7,NA,NA,completion,8893.0970000001,3056786.2000003,3056778.264,3056794.733,3065687.83,3065695.5999999,2023-08-11T08:36:55Z,3065704.029,NULL,Wechsel,ugeuzaji,s,utambulisho,kujenga,wasiwasi,NA,sdfdsf,NA,1,NA,NA,NA,NA,NA,NA,NA,NA,NA,NA,NA,NA,NA,NA,NA,NA,NA,NA,NA
36c03,block,flow.Loop,5_0_1_0,NA,NA,completion,112490.754,2953188.7000003,2953180.432,2953197.076,3065687.83,3065695.9000001,2023-08-11T08:36:55Z,3065704.029,NULL,NA,NA,NA,NA,NA,NA,NA,sdfdsf,NA,1,NA,NA,NA,NA,NA,NA,NA,NA,NA,NA,NA,NA,NA,NA,NA,NA,NA,NA,NA
36c03,weiter,canvas.Screen,5_0_1_1,sdf,keypress(Space),response,1490.671000286,3065696,3065687.83,3065704.029,3067194.7000003,3067196.3000002,2023-08-11T08:36:57Z,3067236.45,NULL,NA,NA,NA,NA,NA,NA,NA,sdfdsf,NA,1,NA,NA,NA,NA,NA,NA,NA,NA,NA,NA,NA,NA,NA,NA,NA,NA,NA,NA,NA
36c03,check continue,flow.Sequence,5_0_1,NA,NA,completion,113997.62400029,2953188.7000003,2953180.432,2953197.076,3067194.7000003,3067196.7000003,2023-08-11T08:36:57Z,3067236.45,NULL,NA,NA,NA,NA,NA,NA,NA,sdfdsf,NA,1,NA,NA,NA,NA,NA,NA,NA,NA,NA,NA,NA,NA,NA,NA,NA,NA,NA,NA,NA
36c03,Deep Question,html.Page,5_0_2_0_0_0_0,NA,NA,form submission,8106.5499999998,3067225,3067220.148,3067236.45,3075343,3075343.3000002,2023-08-11T08:37:05Z,3075346.112,NULL,Theorie,nadharia,d,NA,NA,NA,nadhari,NA,NA,2,NA,NA,NA,NA,NA,NA,NA,NA,NA,NA,NA,NA,NA,NA,NA,NA,NA,NA,NA
36c03,"""Richtig""-Screen",canvas.Screen,5_0_2_0_0_0_1,NA,NA,skipped,NA,3075345,NA,NA,3075343,3075345.2000003,2023-08-11T08:37:05Z,3075346.112,NULL,Theorie,nadharia,d,NA,NA,NA,NA,sdf,NA,2,NA,NA,NA,NA,NA,NA,NA,NA,NA,NA,NA,NA,NA,NA,NA,NA,NA,NA,NA
36c03,"""Falsch""-Screen",canvas.Screen,5_0_2_0_0_0_2,NA,NA,timeout,4996.6549999998,3075345.8000002,3075330.206,3075346.112,3080325.596,3080328.0999999,2023-08-11T08:37:10Z,3080342.767,NULL,Theorie,nadharia,d,NA,NA,NA,NA,sdf,0,2,NA,NA,NA,NA,NA,NA,NA,NA,NA,NA,NA,NA,NA,NA,NA,NA,NA,NA,NA
36c03,deep,flow.Sequence,5_0_2_0_0_0,NA,NA,completion,13089.146,3067225,3067220.148,3067236.45,3080325.596,3080328.3000002,2023-08-11T08:37:10Z,3080342.767,NULL,Theorie,nadharia,d,NA,NA,NA,NA,sdf,NA,2,NA,NA,NA,NA,NA,NA,NA,NA,NA,NA,NA,NA,NA,NA,NA,NA,NA,NA,NA
36c03,shallow,flow.Sequence,5_0_2_0_0_1,NA,NA,skipped,NA,3080328.3000002,NA,NA,3080325.596,3080328.4000001,2023-08-11T08:37:10Z,3080342.767,NULL,Theorie,nadharia,d,NA,NA,NA,NA,sdf,NA,2,NA,NA,NA,NA,NA,NA,NA,NA,NA,NA,NA,NA,NA,NA,NA,NA,NA,NA,NA
36c03,task,flow.Sequence,5_0_2_0_0,NA,NA,completion,13089.146,3067225,3067220.148,3067236.45,3080325.596,3080328.5,2023-08-11T08:37:10Z,3080342.767,NULL,Theorie,nadharia,d,NA,NA,NA,NA,sdf,NA,2,NA,NA,NA,NA,NA,NA,NA,NA,NA,NA,NA,NA,NA,NA,NA,NA,NA,NA,NA
36c03,deep,flow.Sequence,5_0_2_0_1_0,NA,NA,skipped,NA,3080328.5999999,NA,NA,3080325.596,3080328.7000003,2023-08-11T08:37:10Z,3080342.767,NULL,Verpackung,ufungaji,s,uhusiano,upimaji,uchunguzi,NA,sdf,NA,2,NA,NA,NA,NA,NA,NA,NA,NA,NA,NA,NA,NA,NA,NA,NA,NA,NA,NA,NA
36c03,Shallow Question,html.Page,5_0_2_0_1_1_0,NA,NA,form submission,7152.8329999046,3080328.7000003,3080325.596,3080342.767,3087495.5999999,3087495.8000002,2023-08-11T08:37:17Z,3087502.788,NULL,Verpackung,ufungaji,s,uhusiano,upimaji,uchunguzi,ufungaji,NA,NA,2,NA,NA,NA,NA,NA,NA,NA,NA,NA,NA,NA,NA,NA,NA,NA,NA,NA,NA,NA
36c03,"""Richtig""-Screen",canvas.Screen,5_0_2_0_1_1_1,NA,NA,timeout,4996.4479999999,3087497.7000003,3087486.16,3087502.788,3092482.406,3092483.3000002,2023-08-11T08:37:22Z,3092499.236,NULL,Verpackung,ufungaji,s,uhusiano,upimaji,uchunguzi,NA,sdf,1,2,NA,NA,NA,NA,NA,NA,NA,NA,NA,NA,NA,NA,NA,NA,NA,NA,NA,NA,NA
36c03,"""Falsch""-Screen",canvas.Screen,5_0_2_0_1_1_2,NA,NA,skipped,NA,3092488.3000002,NA,NA,3092482.406,3092488.5,2023-08-11T08:37:22Z,3092499.236,NULL,Verpackung,ufungaji,s,uhusiano,upimaji,uchunguzi,NA,sdf,NA,2,NA,NA,NA,NA,NA,NA,NA,NA,NA,NA,NA,NA,NA,NA,NA,NA,NA,NA,NA
36c03,shallow,flow.Sequence,5_0_2_0_1_1,NA,NA,completion,12139.639,3080328.7000003,3080325.596,3080342.767,3092482.406,3092488.5999999,2023-08-11T08:37:22Z,3092499.236,NULL,Verpackung,ufungaji,s,uhusiano,upimaji,uchunguzi,NA,sdf,NA,2,NA,NA,NA,NA,NA,NA,NA,NA,NA,NA,NA,NA,NA,NA,NA,NA,NA,NA,NA
36c03,task,flow.Sequence,5_0_2_0_1,NA,NA,completion,12139.639,3080328.5999999,3080325.596,3080342.767,3092482.406,3092488.7000003,2023-08-11T08:37:22Z,3092499.236,NULL,Verpackung,ufungaji,s,uhusiano,upimaji,uchunguzi,NA,sdf,NA,2,NA,NA,NA,NA,NA,NA,NA,NA,NA,NA,NA,NA,NA,NA,NA,NA,NA,NA,NA
36c03,Deep Question,html.Page,5_0_2_0_2_0_0,NA,NA,form submission,11269.964000286,3092488.7000003,3092482.406,3092499.236,3103769.2000003,3103769.4000001,2023-08-11T08:37:34Z,3103772.766,NULL,Schock,mshtuko,d,NA,NA,NA,mshteka,NA,NA,2,NA,NA,NA,NA,NA,NA,NA,NA,NA,NA,NA,NA,NA,NA,NA,NA,NA,NA,NA
36c03,"""Richtig""-Screen",canvas.Screen,5_0_2_0_2_0_1,NA,NA,skipped,NA,3103772.2000003,NA,NA,3103769.2000003,3103772.3000002,2023-08-11T08:37:34Z,3103772.766,NULL,Schock,mshtuko,d,NA,NA,NA,NA,sdf,NA,2,NA,NA,NA,NA,NA,NA,NA,NA,NA,NA,NA,NA,NA,NA,NA,NA,NA,NA,NA
36c03,"""Falsch""-Screen",canvas.Screen,5_0_2_0_2_0_2,NA,NA,timeout,4995.8680000002,3103773.4000001,3103756.156,3103772.766,3108752.555,3108753.5,2023-08-11T08:37:39Z,3108768.634,NULL,Schock,mshtuko,d,NA,NA,NA,NA,sdf,0,2,NA,NA,NA,NA,NA,NA,NA,NA,NA,NA,NA,NA,NA,NA,NA,NA,NA,NA,NA
36c03,deep,flow.Sequence,5_0_2_0_2_0,NA,NA,completion,16253.319,3092488.7000003,3092482.406,3092499.236,3108752.555,3108753.9000001,2023-08-11T08:37:39Z,3108768.634,NULL,Schock,mshtuko,d,NA,NA,NA,NA,sdf,NA,2,NA,NA,NA,NA,NA,NA,NA,NA,NA,NA,NA,NA,NA,NA,NA,NA,NA,NA,NA
36c03,shallow,flow.Sequence,5_0_2_0_2_1,NA,NA,skipped,NA,3108754.0999999,NA,NA,3108752.555,3108754.3000002,2023-08-11T08:37:39Z,3108768.634,NULL,Schock,mshtuko,d,NA,NA,NA,NA,sdf,NA,2,NA,NA,NA,NA,NA,NA,NA,NA,NA,NA,NA,NA,NA,NA,NA,NA,NA,NA,NA
36c03,task,flow.Sequence,5_0_2_0_2,NA,NA,completion,16253.319,3092488.7000003,3092482.406,3092499.236,3108752.555,3108754.5,2023-08-11T08:37:39Z,3108768.634,NULL,Schock,mshtuko,d,NA,NA,NA,NA,sdf,NA,2,NA,NA,NA,NA,NA,NA,NA,NA,NA,NA,NA,NA,NA,NA,NA,NA,NA,NA,NA
36c03,deep,flow.Sequence,5_0_2_0_3_0,NA,NA,skipped,NA,3108754.7000003,NA,NA,3108752.555,3108754.9000001,2023-08-11T08:37:39Z,3108768.634,NULL,Wechsel,ugeuzaji,s,utambulisho,kujenga,wasiwasi,NA,sdf,NA,2,NA,NA,NA,NA,NA,NA,NA,NA,NA,NA,NA,NA,NA,NA,NA,NA,NA,NA,NA
36c03,Shallow Question,html.Page,5_0_2_0_3_1_0,NA,NA,form submission,7498.6660001907,3108755,3108752.555,3108768.634,3116267.3000002,3116267.5,2023-08-11T08:37:46Z,3116279.132,NULL,Wechsel,ugeuzaji,s,utambulisho,kujenga,wasiwasi,ugeuzaji,NA,NA,2,NA,NA,NA,NA,NA,NA,NA,NA,NA,NA,NA,NA,NA,NA,NA,NA,NA,NA,NA
36c03,"""Richtig""-Screen",canvas.Screen,5_0_2_0_3_1_1,NA,NA,timeout,4996.4169999999,3116269.5999999,3116263.088,3116279.132,3121258.539,3121259.7000003,2023-08-11T08:37:51Z,3121275.549,NULL,Wechsel,ugeuzaji,s,utambulisho,kujenga,wasiwasi,NA,sdf,1,2,NA,NA,NA,NA,NA,NA,NA,NA,NA,NA,NA,NA,NA,NA,NA,NA,NA,NA,NA
36c03,"""Falsch""-Screen",canvas.Screen,5_0_2_0_3_1_2,NA,NA,skipped,NA,3121264.9000001,NA,NA,3121258.539,3121265,2023-08-11T08:37:51Z,3121275.549,NULL,Wechsel,ugeuzaji,s,utambulisho,kujenga,wasiwasi,NA,sdf,NA,2,NA,NA,NA,NA,NA,NA,NA,NA,NA,NA,NA,NA,NA,NA,NA,NA,NA,NA,NA
36c03,shallow,flow.Sequence,5_0_2_0_3_1,NA,NA,completion,12489.905,3108755,3108752.555,3108768.634,3121258.539,3121265.0999999,2023-08-11T08:37:51Z,3121275.549,NULL,Wechsel,ugeuzaji,s,utambulisho,kujenga,wasiwasi,NA,sdf,NA,2,NA,NA,NA,NA,NA,NA,NA,NA,NA,NA,NA,NA,NA,NA,NA,NA,NA,NA,NA
36c03,task,flow.Sequence,5_0_2_0_3,NA,NA,completion,12489.905,3108754.7000003,3108752.555,3108768.634,3121258.539,3121265.3000002,2023-08-11T08:37:51Z,3121275.549,NULL,Wechsel,ugeuzaji,s,utambulisho,kujenga,wasiwasi,NA,sdf,NA,2,NA,NA,NA,NA,NA,NA,NA,NA,NA,NA,NA,NA,NA,NA,NA,NA,NA,NA,NA
36c03,deep,flow.Sequence,5_0_2_0_4_0,NA,NA,skipped,NA,3121265.3000002,NA,NA,3121258.539,3121265.3000002,2023-08-11T08:37:51Z,3121275.549,NULL,Hoffnung,matarajio,s,kutaalamika,uratibu,mvumbuzi,NA,sdf,NA,2,NA,NA,NA,NA,NA,NA,NA,NA,NA,NA,NA,NA,NA,NA,NA,NA,NA,NA,NA
36c03,Shallow Question,html.Page,5_0_2_0_4_1_0,NA,NA,form submission,3937.2510001906,3121265.3000002,3121258.539,3121275.549,3125212.8000002,3125213,2023-08-11T08:37:55Z,3125221.821,NULL,Hoffnung,matarajio,s,kutaalamika,uratibu,mvumbuzi,matarajio,NA,NA,2,NA,NA,NA,NA,NA,NA,NA,NA,NA,NA,NA,NA,NA,NA,NA,NA,NA,NA,NA
36c03,"""Richtig""-Screen",canvas.Screen,5_0_2_0_4_1_1,NA,NA,timeout,4995.9759999998,3125214.8000002,3125205.189,3125221.821,3130201.6,3130202.7000003,2023-08-11T08:38:00Z,3130217.797,NULL,Hoffnung,matarajio,s,kutaalamika,uratibu,mvumbuzi,NA,sdf,1,2,NA,NA,NA,NA,NA,NA,NA,NA,NA,NA,NA,NA,NA,NA,NA,NA,NA,NA,NA
36c03,"""Falsch""-Screen",canvas.Screen,5_0_2_0_4_1_2,NA,NA,skipped,NA,3130208.3000002,NA,NA,3130201.6,3130208.5999999,2023-08-11T08:38:00Z,3130217.797,NULL,Hoffnung,matarajio,s,kutaalamika,uratibu,mvumbuzi,NA,sdf,NA,2,NA,NA,NA,NA,NA,NA,NA,NA,NA,NA,NA,NA,NA,NA,NA,NA,NA,NA,NA
36c03,shallow,flow.Sequence,5_0_2_0_4_1,NA,NA,completion,8926.051,3121265.3000002,3121258.539,3121275.549,3130201.6,3130208.9000001,2023-08-11T08:38:00Z,3130217.797,NULL,Hoffnung,matarajio,s,kutaalamika,uratibu,mvumbuzi,NA,sdf,NA,2,NA,NA,NA,NA,NA,NA,NA,NA,NA,NA,NA,NA,NA,NA,NA,NA,NA,NA,NA
36c03,task,flow.Sequence,5_0_2_0_4,NA,NA,completion,8926.051,3121265.3000002,3121258.539,3121275.549,3130201.6,3130209.2000003,2023-08-11T08:38:00Z,3130217.797,NULL,Hoffnung,matarajio,s,kutaalamika,uratibu,mvumbuzi,NA,sdf,NA,2,NA,NA,NA,NA,NA,NA,NA,NA,NA,NA,NA,NA,NA,NA,NA,NA,NA,NA,NA
