observation,sender,sender_type,sender_id,response,response_action,ended_on,duration,time_run,time_render,time_show,time_end,time_commit,timestamp,time_switch,distractors,german,swahili,enc,distractor1,distractor2,distractor3,response_2,x,correct,x_2,url_vp,url_sess,meta_labjs_version,meta_location,meta_user_agent,meta_platform,meta_language,meta_locale,meta_time_zone,meta_timezone_offset,meta_screen_width,meta_screen_height,meta_scroll_width,meta_scroll_height,meta_window_inner_width,meta_window_inner_height,meta_device_pixel_ratio,meta_labjs_build_flavor,meta_labjs_build_commit
7b60e,Introduction general,canvas.Screen,0,weiter,keypress(q),response,2663765.5139998,997.19999980927,98.425,997.686,2664763.1999998,2664770,2023-07-11T16:05:45Z,2664774.519,NULL,NA,NA,NA,NA,NA,NA,NA,NA,NA,NA,221,1,20.2.4,https://neurocog.fernuni.ch/studies/vweber/sfink/encoding_immediate/index.html?vp=221&sess=1,"Mozilla/5.0 (Windows NT 10.0; Win64; x64) AppleWebKit/537.36 (KHTML, like Gecko) Chrome/114.0.0.0 Safari/537.36",Win32,de-CH,de,Europe/Zurich,-120,1536,864,1536,706,1536,754,1.25,production,f5b4a49f956347addd546a832a3327688c2c0fef
7b60e,Introduction practice,canvas.Screen,1_0,NA,keypress(Space),response,10123.580999905,2664771.0999999,2664767.069,2664774.519,2674898.0999999,2674898.5999999,2023-07-11T16:05:55Z,2674916.745,NULL,NA,NA,NA,NA,NA,NA,NA,NA,NA,NA,NA,NA,NA,NA,NA,NA,NA,NA,NA,NA,NA,NA,NA,NA,NA,NA,NA,NA,NA
7b60e,deep,flow.Sequence,1_1_0_0,NA,NA,skipped,NA,2674898.8,NA,NA,2674898.0999999,2674900.3,2023-07-11T16:05:55Z,2674916.745,"c(""distractor1"", ""distractor2"", ""distractor3"")",Kritik,lawama,s,dereva,nafasi,mawazo,NA,NA,NA,NA,NA,NA,NA,NA,NA,NA,NA,NA,NA,NA,NA,NA,NA,NA,NA,NA,NA,NA,NA
7b60e,Shallow Question,html.Page,1_1_0_1_0,NA,NA,form submission,8912.7549999999,2674900.5,2674898.909,2674916.745,2683829.5,2683829.6999998,2023-07-11T16:06:04Z,2683842.113,"c(""distractor1"", ""distractor2"", ""distractor3"")",Kritik,lawama,s,dereva,nafasi,mawazo,nafasi,NA,NA,NA,NA,NA,NA,NA,NA,NA,NA,NA,NA,NA,NA,NA,NA,NA,NA,NA,NA,NA,NA
7b60e,"""Richtig""-Screen",canvas.Screen,1_1_0_1_1,NA,NA,skipped,NA,2683830.8999999,NA,NA,2683829.5,2683831,2023-07-11T16:06:04Z,2683842.113,"c(""distractor1"", ""distractor2"", ""distractor3"")",Kritik,lawama,s,dereva,nafasi,mawazo,NA,NA,NA,NA,NA,NA,NA,NA,NA,NA,NA,NA,NA,NA,NA,NA,NA,NA,NA,NA,NA,NA,NA
7b60e,"""Falsch""-Screen",canvas.Screen,1_1_0_1_2,NA,NA,timeout,4995.9250000003,2683831.8999999,2683826.083,2683842.113,2688821.379,2688823.0999999,2023-07-11T16:06:09Z,2688838.038,"c(""distractor1"", ""distractor2"", ""distractor3"")",Kritik,lawama,s,dereva,nafasi,mawazo,NA,NA,0,NA,NA,NA,NA,NA,NA,NA,NA,NA,NA,NA,NA,NA,NA,NA,NA,NA,NA,NA,NA
7b60e,shallow,flow.Sequence,1_1_0_1,NA,NA,completion,13904.634,2674900.5,2674898.909,2674916.745,2688821.379,2688827.5999999,2023-07-11T16:06:09Z,2688838.038,"c(""distractor1"", ""distractor2"", ""distractor3"")",Kritik,lawama,s,dereva,nafasi,mawazo,NA,NA,NA,NA,NA,NA,NA,NA,NA,NA,NA,NA,NA,NA,NA,NA,NA,NA,NA,NA,NA,NA,NA
7b60e,task,flow.Sequence,1_1_0,NA,NA,completion,13904.634,2674898.8,2674898.909,2674916.745,2688821.379,2688827.8,2023-07-11T16:06:09Z,2688838.038,"c(""distractor1"", ""distractor2"", ""distractor3"")",Kritik,lawama,s,dereva,nafasi,mawazo,NA,NA,NA,NA,NA,NA,NA,NA,NA,NA,NA,NA,NA,NA,NA,NA,NA,NA,NA,NA,NA,NA,NA
7b60e,Deep Question,html.Page,1_1_1_0_0,NA,NA,form submission,18529.761999952,2688828,2688821.379,2688838.038,2707367.8,2707368.3,2023-07-11T16:06:28Z,2707389.441,"c(""distractor1"", ""distractor2"", ""distractor3"")",Qualität,mtindo,d,NA,NA,NA,qualitasi,NA,NA,NA,NA,NA,NA,NA,NA,NA,NA,NA,NA,NA,NA,NA,NA,NA,NA,NA,NA,NA,NA
7b60e,"""Richtig""-Screen",canvas.Screen,1_1_1_0_1,NA,NA,skipped,NA,2707376.5,NA,NA,2707367.8,2707377.0999999,2023-07-11T16:06:28Z,2707389.441,"c(""distractor1"", ""distractor2"", ""distractor3"")",Qualität,mtindo,d,NA,NA,NA,NA,NA,NA,NA,NA,NA,NA,NA,NA,NA,NA,NA,NA,NA,NA,NA,NA,NA,NA,NA,NA,NA,NA
7b60e,"""Falsch""-Screen",canvas.Screen,1_1_1_0_2,NA,NA,timeout,4995.949,2707380.1999998,2707356.214,2707389.441,2712368.776,2712371.1999998,2023-07-11T16:06:33Z,2712385.39,"c(""distractor1"", ""distractor2"", ""distractor3"")",Qualität,mtindo,d,NA,NA,NA,NA,NA,0,NA,NA,NA,NA,NA,NA,NA,NA,NA,NA,NA,NA,NA,NA,NA,NA,NA,NA,NA,NA
7b60e,deep,flow.Sequence,1_1_1_0,NA,NA,completion,23530.738,2688828,2688821.379,2688838.038,2712368.776,2712372.3,2023-07-11T16:06:33Z,2712385.39,"c(""distractor1"", ""distractor2"", ""distractor3"")",Qualität,mtindo,d,NA,NA,NA,NA,NA,NA,NA,NA,NA,NA,NA,NA,NA,NA,NA,NA,NA,NA,NA,NA,NA,NA,NA,NA,NA,NA
7b60e,shallow,flow.Sequence,1_1_1_1,NA,NA,skipped,NA,2712372.5999999,NA,NA,2712368.776,2712373.0999999,2023-07-11T16:06:33Z,2712385.39,"c(""distractor1"", ""distractor2"", ""distractor3"")",Qualität,mtindo,d,NA,NA,NA,NA,NA,NA,NA,NA,NA,NA,NA,NA,NA,NA,NA,NA,NA,NA,NA,NA,NA,NA,NA,NA,NA,NA
7b60e,task,flow.Sequence,1_1_1,NA,NA,completion,23530.738,2688827.8999999,2688821.379,2688838.038,2712368.776,2712373.8,2023-07-11T16:06:33Z,2712385.39,"c(""distractor1"", ""distractor2"", ""distractor3"")",Qualität,mtindo,d,NA,NA,NA,NA,NA,NA,NA,NA,NA,NA,NA,NA,NA,NA,NA,NA,NA,NA,NA,NA,NA,NA,NA,NA,NA,NA
7b60e,deep,flow.Sequence,1_1_2_0,NA,NA,skipped,NA,2712374.1999998,NA,NA,2712368.776,2712374.5999999,2023-07-11T16:06:33Z,2712385.39,"c(""distractor1"", ""distractor2"", ""distractor3"")",Rückhalt,msaada,s,muhula,auwali,kiwimbe,NA,NA,NA,NA,NA,NA,NA,NA,NA,NA,NA,NA,NA,NA,NA,NA,NA,NA,NA,NA,NA,NA,NA
7b60e,Shallow Question,html.Page,1_1_2_1_0,NA,NA,form submission,6938.9099999522,2712374.8999999,2712368.776,2712385.39,2719324.3,2719324.8,2023-07-11T16:06:40Z,2719329.7,"c(""distractor1"", ""distractor2"", ""distractor3"")",Rückhalt,msaada,s,muhula,auwali,kiwimbe,msaada,NA,NA,NA,NA,NA,NA,NA,NA,NA,NA,NA,NA,NA,NA,NA,NA,NA,NA,NA,NA,NA,NA
7b60e,"""Richtig""-Screen",canvas.Screen,1_1_2_1_1,NA,NA,timeout,4996.5209999997,2719331,2719313.353,2719329.7,2724308.889,2724310.5999999,2023-07-11T16:06:45Z,2724326.221,"c(""distractor1"", ""distractor2"", ""distractor3"")",Rückhalt,msaada,s,muhula,auwali,kiwimbe,NA,NA,1,NA,NA,NA,NA,NA,NA,NA,NA,NA,NA,NA,NA,NA,NA,NA,NA,NA,NA,NA,NA
7b60e,"""Falsch""-Screen",canvas.Screen,1_1_2_1_2,NA,NA,skipped,NA,2724312.5,NA,NA,2724308.889,2724312.6999998,2023-07-11T16:06:45Z,2724326.221,"c(""distractor1"", ""distractor2"", ""distractor3"")",Rückhalt,msaada,s,muhula,auwali,kiwimbe,NA,NA,NA,NA,NA,NA,NA,NA,NA,NA,NA,NA,NA,NA,NA,NA,NA,NA,NA,NA,NA,NA,NA
7b60e,shallow,flow.Sequence,1_1_2_1,NA,NA,completion,11923.499,2712374.8999999,2712368.776,2712385.39,2724308.889,2724312.8,2023-07-11T16:06:45Z,2724326.221,"c(""distractor1"", ""distractor2"", ""distractor3"")",Rückhalt,msaada,s,muhula,auwali,kiwimbe,NA,NA,NA,NA,NA,NA,NA,NA,NA,NA,NA,NA,NA,NA,NA,NA,NA,NA,NA,NA,NA,NA,NA
7b60e,task,flow.Sequence,1_1_2,NA,NA,completion,11923.499,2712374.0999999,2712368.776,2712385.39,2724308.889,2724312.8999999,2023-07-11T16:06:45Z,2724326.221,"c(""distractor1"", ""distractor2"", ""distractor3"")",Rückhalt,msaada,s,muhula,auwali,kiwimbe,NA,NA,NA,NA,NA,NA,NA,NA,NA,NA,NA,NA,NA,NA,NA,NA,NA,NA,NA,NA,NA,NA,NA
7b60e,deep,flow.Sequence,1_1_3_0,NA,NA,skipped,NA,2724316.6999998,NA,NA,2724308.889,2724316.8,2023-07-11T16:06:45Z,2724326.221,"c(""distractor1"", ""distractor2"", ""distractor3"")",Gegenwart,hadhara,s,katiba,jokofu,mikopo,NA,NA,NA,NA,NA,NA,NA,NA,NA,NA,NA,NA,NA,NA,NA,NA,NA,NA,NA,NA,NA,NA,NA
7b60e,Shallow Question,html.Page,1_1_3_1_0,NA,NA,form submission,5671.5789999524,2724317,2724308.889,2724326.221,2729997.8,2729998.1999998,2023-07-11T16:06:51Z,2730004.201,"c(""distractor1"", ""distractor2"", ""distractor3"")",Gegenwart,hadhara,s,katiba,jokofu,mikopo,jokofu,NA,NA,NA,NA,NA,NA,NA,NA,NA,NA,NA,NA,NA,NA,NA,NA,NA,NA,NA,NA,NA,NA
7b60e,"""Richtig""-Screen",canvas.Screen,1_1_3_1_1,NA,NA,skipped,NA,2730002,NA,NA,2729997.8,2730002.0999999,2023-07-11T16:06:51Z,2730004.201,"c(""distractor1"", ""distractor2"", ""distractor3"")",Gegenwart,hadhara,s,katiba,jokofu,mikopo,NA,NA,NA,NA,NA,NA,NA,NA,NA,NA,NA,NA,NA,NA,NA,NA,NA,NA,NA,NA,NA,NA,NA
7b60e,"""Falsch""-Screen",canvas.Screen,1_1_3_1_2,NA,NA,timeout,4995.9310000003,2730002.5999999,2729987.87,2730004.201,2734984.005,2734985,2023-07-11T16:06:55Z,2735000.132,"c(""distractor1"", ""distractor2"", ""distractor3"")",Gegenwart,hadhara,s,katiba,jokofu,mikopo,NA,NA,0,NA,NA,NA,NA,NA,NA,NA,NA,NA,NA,NA,NA,NA,NA,NA,NA,NA,NA,NA,NA
7b60e,shallow,flow.Sequence,1_1_3_1,NA,NA,completion,10657.784,2724317,2724308.889,2724326.221,2734984.005,2734985.5,2023-07-11T16:06:55Z,2735000.132,"c(""distractor1"", ""distractor2"", ""distractor3"")",Gegenwart,hadhara,s,katiba,jokofu,mikopo,NA,NA,NA,NA,NA,NA,NA,NA,NA,NA,NA,NA,NA,NA,NA,NA,NA,NA,NA,NA,NA,NA,NA
7b60e,task,flow.Sequence,1_1_3,NA,NA,completion,10657.784,2724316.5999999,2724308.889,2724326.221,2734984.005,2734985.8,2023-07-11T16:06:55Z,2735000.132,"c(""distractor1"", ""distractor2"", ""distractor3"")",Gegenwart,hadhara,s,katiba,jokofu,mikopo,NA,NA,NA,NA,NA,NA,NA,NA,NA,NA,NA,NA,NA,NA,NA,NA,NA,NA,NA,NA,NA,NA,NA
7b60e,Deep Question,html.Page,1_1_4_0_0,NA,NA,form submission,10135.267999857,2734986.0999999,2734984.005,2735000.132,2745135.3999999,2745135.8,2023-07-11T16:07:06Z,2745141.745,"c(""distractor1"", ""distractor2"", ""distractor3"")",Gesundheit,salama,d,NA,NA,NA,kulawa,NA,NA,NA,NA,NA,NA,NA,NA,NA,NA,NA,NA,NA,NA,NA,NA,NA,NA,NA,NA,NA,NA
7b60e,"""Richtig""-Screen",canvas.Screen,1_1_4_0_1,NA,NA,skipped,NA,2745139.3999999,NA,NA,2745135.3999999,2745139.3999999,2023-07-11T16:07:06Z,2745141.745,"c(""distractor1"", ""distractor2"", ""distractor3"")",Gesundheit,salama,d,NA,NA,NA,NA,NA,NA,NA,NA,NA,NA,NA,NA,NA,NA,NA,NA,NA,NA,NA,NA,NA,NA,NA,NA,NA,NA
7b60e,"""Falsch""-Screen",canvas.Screen,1_1_4_0_2,NA,NA,timeout,4996.7069999999,2745140.0999999,2745125.701,2745141.745,2750121.566,2750122.5999999,2023-07-11T16:07:11Z,2750138.452,"c(""distractor1"", ""distractor2"", ""distractor3"")",Gesundheit,salama,d,NA,NA,NA,NA,NA,0,NA,NA,NA,NA,NA,NA,NA,NA,NA,NA,NA,NA,NA,NA,NA,NA,NA,NA,NA,NA
7b60e,deep,flow.Sequence,1_1_4_0,NA,NA,completion,15121.434,2734986,2734984.005,2735000.132,2750121.566,2750123.0999999,2023-07-11T16:07:11Z,2750138.452,"c(""distractor1"", ""distractor2"", ""distractor3"")",Gesundheit,salama,d,NA,NA,NA,NA,NA,NA,NA,NA,NA,NA,NA,NA,NA,NA,NA,NA,NA,NA,NA,NA,NA,NA,NA,NA,NA,NA
7b60e,shallow,flow.Sequence,1_1_4_1,NA,NA,skipped,NA,2750123.3,NA,NA,2750121.566,2750123.5,2023-07-11T16:07:11Z,2750138.452,"c(""distractor1"", ""distractor2"", ""distractor3"")",Gesundheit,salama,d,NA,NA,NA,NA,NA,NA,NA,NA,NA,NA,NA,NA,NA,NA,NA,NA,NA,NA,NA,NA,NA,NA,NA,NA,NA,NA
7b60e,task,flow.Sequence,1_1_4,NA,NA,completion,15121.434,2734986,2734984.005,2735000.132,2750121.566,2750123.5999999,2023-07-11T16:07:11Z,2750138.452,"c(""distractor1"", ""distractor2"", ""distractor3"")",Gesundheit,salama,d,NA,NA,NA,NA,NA,NA,NA,NA,NA,NA,NA,NA,NA,NA,NA,NA,NA,NA,NA,NA,NA,NA,NA,NA,NA,NA
7b60e,Deep Question,html.Page,1_1_5_0_0,NA,NA,form submission,10033.647999905,2750124,2750121.566,2750138.452,2760172.0999999,2760172.5999999,2023-07-11T16:07:21Z,2760179.432,"c(""distractor1"", ""distractor2"", ""distractor3"")",Schatten,kivuli,d,NA,NA,NA,darwa,NA,NA,NA,NA,NA,NA,NA,NA,NA,NA,NA,NA,NA,NA,NA,NA,NA,NA,NA,NA,NA,NA
7b60e,"""Richtig""-Screen",canvas.Screen,1_1_5_0_1,NA,NA,skipped,NA,2760180.6999998,NA,NA,2760172.0999999,2760181.0999999,2023-07-11T16:07:21Z,2760179.432,"c(""distractor1"", ""distractor2"", ""distractor3"")",Schatten,kivuli,d,NA,NA,NA,NA,NA,NA,NA,NA,NA,NA,NA,NA,NA,NA,NA,NA,NA,NA,NA,NA,NA,NA,NA,NA,NA,NA
7b60e,"""Falsch""-Screen",canvas.Screen,1_1_5_0_2,NA,NA,timeout,4996.5669999998,2760182.8,2760163.202,2760179.432,2765158.973,2765160,2023-07-11T16:07:26Z,2765175.999,"c(""distractor1"", ""distractor2"", ""distractor3"")",Schatten,kivuli,d,NA,NA,NA,NA,NA,0,NA,NA,NA,NA,NA,NA,NA,NA,NA,NA,NA,NA,NA,NA,NA,NA,NA,NA,NA,NA
7b60e,deep,flow.Sequence,1_1_5_0,NA,NA,completion,15020.521,2750123.8999999,2750121.566,2750138.452,2765158.973,2765160.5,2023-07-11T16:07:26Z,2765175.999,"c(""distractor1"", ""distractor2"", ""distractor3"")",Schatten,kivuli,d,NA,NA,NA,NA,NA,NA,NA,NA,NA,NA,NA,NA,NA,NA,NA,NA,NA,NA,NA,NA,NA,NA,NA,NA,NA,NA
7b60e,shallow,flow.Sequence,1_1_5_1,NA,NA,skipped,NA,2765160.6999998,NA,NA,2765158.973,2765160.8999999,2023-07-11T16:07:26Z,2765175.999,"c(""distractor1"", ""distractor2"", ""distractor3"")",Schatten,kivuli,d,NA,NA,NA,NA,NA,NA,NA,NA,NA,NA,NA,NA,NA,NA,NA,NA,NA,NA,NA,NA,NA,NA,NA,NA,NA,NA
7b60e,task,flow.Sequence,1_1_5,NA,NA,completion,15020.521,2750123.8,2750121.566,2750138.452,2765158.973,2765161.0999999,2023-07-11T16:07:26Z,2765175.999,"c(""distractor1"", ""distractor2"", ""distractor3"")",Schatten,kivuli,d,NA,NA,NA,NA,NA,NA,NA,NA,NA,NA,NA,NA,NA,NA,NA,NA,NA,NA,NA,NA,NA,NA,NA,NA,NA,NA
7b60e,block,flow.Loop,1_1,NA,NA,completion,90242.228,2674898.8,2674898.909,2674916.745,2765158.973,2765161.5,2023-07-11T16:07:26Z,2765175.999,"c(""distractor1"", ""distractor2"", ""distractor3"")",NA,NA,NA,NA,NA,NA,NA,NA,NA,NA,NA,NA,NA,NA,NA,NA,NA,NA,NA,NA,NA,NA,NA,NA,NA,NA,NA,NA,NA
7b60e,Practice,flow.Sequence,1,NA,NA,completion,100384.454,2664771,2664767.069,2664774.519,2765158.973,2765161.6999998,2023-07-11T16:07:26Z,2765175.999,NULL,NA,NA,NA,NA,NA,NA,NA,NA,NA,NA,NA,NA,NA,NA,NA,NA,NA,NA,NA,NA,NA,NA,NA,NA,NA,NA,NA,NA,NA
7b60e,Experiment start,canvas.Screen,2,weiter,keypress(q),response,10386.800999952,2765162,2765158.973,2765175.999,2775562.8,2775564.1999998,2023-07-11T16:07:36Z,2775650.032,NULL,NA,NA,NA,NA,NA,NA,NA,NA,NA,NA,NA,NA,NA,NA,NA,NA,NA,NA,NA,NA,NA,NA,NA,NA,NA,NA,NA,NA,NA
7b60e,Deep Question,html.Page,3_0_0_0_0_0_0,NA,NA,form submission,14128.667999809,2775655.5999999,2775549.874,2775650.032,2789778.6999998,2789779.5,2023-07-11T16:07:50Z,2789788.461,NULL,Verzögerung,kuchelewa,d,NA,NA,NA,tugalo,NA,NA,0,NA,NA,NA,NA,NA,NA,NA,NA,NA,NA,NA,NA,NA,NA,NA,NA,NA,NA,NA
7b60e,"""Richtig""-Screen",canvas.Screen,3_0_0_0_0_0_1,NA,NA,skipped,NA,2789782.3999999,NA,NA,2789778.6999998,2789782.5,2023-07-11T16:07:50Z,2789788.461,NULL,Verzögerung,kuchelewa,d,NA,NA,NA,NA,sdf,NA,0,NA,NA,NA,NA,NA,NA,NA,NA,NA,NA,NA,NA,NA,NA,NA,NA,NA,NA,NA
7b60e,"""Falsch""-Screen",canvas.Screen,3_0_0_0_0_0_2,NA,NA,timeout,4996.5630000001,2789783,2789772.317,2789788.461,2794767.714,2794769.5999999,2023-07-11T16:07:55Z,2794785.024,NULL,Verzögerung,kuchelewa,d,NA,NA,NA,NA,sdf,0,0,NA,NA,NA,NA,NA,NA,NA,NA,NA,NA,NA,NA,NA,NA,NA,NA,NA,NA,NA
7b60e,deep,flow.Sequence,3_0_0_0_0_0,NA,NA,completion,19117.682,2775655.5999999,2775549.874,2775650.032,2794767.714,2794770.0999999,2023-07-11T16:07:55Z,2794785.024,NULL,Verzögerung,kuchelewa,d,NA,NA,NA,NA,sdf,NA,0,NA,NA,NA,NA,NA,NA,NA,NA,NA,NA,NA,NA,NA,NA,NA,NA,NA,NA,NA
7b60e,shallow,flow.Sequence,3_0_0_0_0_1,NA,NA,skipped,NA,2794770.1999998,NA,NA,2794767.714,2794770.5,2023-07-11T16:07:55Z,2794785.024,NULL,Verzögerung,kuchelewa,d,NA,NA,NA,NA,sdf,NA,0,NA,NA,NA,NA,NA,NA,NA,NA,NA,NA,NA,NA,NA,NA,NA,NA,NA,NA,NA
7b60e,task,flow.Sequence,3_0_0_0_0,NA,NA,completion,19117.682,2775655.5999999,2775549.874,2775650.032,2794767.714,2794770.6999998,2023-07-11T16:07:55Z,2794785.024,NULL,Verzögerung,kuchelewa,d,NA,NA,NA,NA,sdf,NA,0,NA,NA,NA,NA,NA,NA,NA,NA,NA,NA,NA,NA,NA,NA,NA,NA,NA,NA,NA
7b60e,deep,flow.Sequence,3_0_0_0_1_0,NA,NA,skipped,NA,2794770.8,NA,NA,2794767.714,2794770.8999999,2023-07-11T16:07:55Z,2794785.024,NULL,Beweis,ushahidi,s,marudio,kizuizi,mtendaji,NA,sdf,NA,0,NA,NA,NA,NA,NA,NA,NA,NA,NA,NA,NA,NA,NA,NA,NA,NA,NA,NA,NA
7b60e,Shallow Question,html.Page,3_0_0_0_1_1_0,NA,NA,form submission,10252.175999809,2794771.0999999,2794767.714,2794785.024,2805037.1999998,2805037.3999999,2023-07-11T16:08:06Z,2805042.534,NULL,Beweis,ushahidi,s,marudio,kizuizi,mtendaji,marudio,NA,NA,0,NA,NA,NA,NA,NA,NA,NA,NA,NA,NA,NA,NA,NA,NA,NA,NA,NA,NA,NA
7b60e,"""Richtig""-Screen",canvas.Screen,3_0_0_0_1_1_1,NA,NA,skipped,NA,2805040.1999998,NA,NA,2805037.1999998,2805040.3999999,2023-07-11T16:08:06Z,2805042.534,NULL,Beweis,ushahidi,s,marudio,kizuizi,mtendaji,NA,sdf,NA,0,NA,NA,NA,NA,NA,NA,NA,NA,NA,NA,NA,NA,NA,NA,NA,NA,NA,NA,NA
7b60e,"""Falsch""-Screen",canvas.Screen,3_0_0_0_1_1_2,NA,NA,timeout,4995.9139999999,2805041.1999998,2805026.163,2805042.534,2810022.304,2810023.1999998,2023-07-11T16:08:11Z,2810038.448,NULL,Beweis,ushahidi,s,marudio,kizuizi,mtendaji,NA,sdf,0,0,NA,NA,NA,NA,NA,NA,NA,NA,NA,NA,NA,NA,NA,NA,NA,NA,NA,NA,NA
7b60e,shallow,flow.Sequence,3_0_0_0_1_1,NA,NA,completion,15237.28,2794771,2794767.714,2794785.024,2810022.304,2810023.8,2023-07-11T16:08:11Z,2810038.448,NULL,Beweis,ushahidi,s,marudio,kizuizi,mtendaji,NA,sdf,NA,0,NA,NA,NA,NA,NA,NA,NA,NA,NA,NA,NA,NA,NA,NA,NA,NA,NA,NA,NA
7b60e,task,flow.Sequence,3_0_0_0_1,NA,NA,completion,15237.28,2794770.6999998,2794767.714,2794785.024,2810022.304,2810024.0999999,2023-07-11T16:08:11Z,2810038.448,NULL,Beweis,ushahidi,s,marudio,kizuizi,mtendaji,NA,sdf,NA,0,NA,NA,NA,NA,NA,NA,NA,NA,NA,NA,NA,NA,NA,NA,NA,NA,NA,NA,NA
7b60e,deep,flow.Sequence,3_0_0_0_2_0,NA,NA,skipped,NA,2810024.3,NA,NA,2810022.304,2810024.5,2023-07-11T16:08:11Z,2810038.448,NULL,Prüfung,mtihani,s,mkulima,mtizamo,ufumbuzi,NA,sdf,NA,0,NA,NA,NA,NA,NA,NA,NA,NA,NA,NA,NA,NA,NA,NA,NA,NA,NA,NA,NA
7b60e,Shallow Question,html.Page,3_0_0_0_2_1_0,NA,NA,form submission,6373.0520000001,2810024.6999998,2810022.304,2810038.448,2816411.5,2816412,2023-07-11T16:08:17Z,2816416.505,NULL,Prüfung,mtihani,s,mkulima,mtizamo,ufumbuzi,mkulima,NA,NA,0,NA,NA,NA,NA,NA,NA,NA,NA,NA,NA,NA,NA,NA,NA,NA,NA,NA,NA,NA
7b60e,"""Richtig""-Screen",canvas.Screen,3_0_0_0_2_1_1,NA,NA,skipped,NA,2816414.3999999,NA,NA,2816411.5,2816414.5,2023-07-11T16:08:17Z,2816416.505,NULL,Prüfung,mtihani,s,mkulima,mtizamo,ufumbuzi,NA,sdf,NA,0,NA,NA,NA,NA,NA,NA,NA,NA,NA,NA,NA,NA,NA,NA,NA,NA,NA,NA,NA
7b60e,"""Falsch""-Screen",canvas.Screen,3_0_0_0_2_1_2,NA,NA,timeout,4996.5360000003,2816415,2816400.522,2816416.505,2821396.343,2821396.8999999,2023-07-11T16:08:22Z,2821413.041,NULL,Prüfung,mtihani,s,mkulima,mtizamo,ufumbuzi,NA,sdf,0,0,NA,NA,NA,NA,NA,NA,NA,NA,NA,NA,NA,NA,NA,NA,NA,NA,NA,NA,NA
7b60e,shallow,flow.Sequence,3_0_0_0_2_1,NA,NA,completion,11357.895,2810024.5999999,2810022.304,2810038.448,2821396.343,2821397.0999999,2023-07-11T16:08:22Z,2821413.041,NULL,Prüfung,mtihani,s,mkulima,mtizamo,ufumbuzi,NA,sdf,NA,0,NA,NA,NA,NA,NA,NA,NA,NA,NA,NA,NA,NA,NA,NA,NA,NA,NA,NA,NA
7b60e,task,flow.Sequence,3_0_0_0_2,NA,NA,completion,11357.895,2810024.1999998,2810022.304,2810038.448,2821396.343,2821397.3,2023-07-11T16:08:22Z,2821413.041,NULL,Prüfung,mtihani,s,mkulima,mtizamo,ufumbuzi,NA,sdf,NA,0,NA,NA,NA,NA,NA,NA,NA,NA,NA,NA,NA,NA,NA,NA,NA,NA,NA,NA,NA
7b60e,Deep Question,html.Page,3_0_0_0_3_0_0,NA,NA,form submission,18601.058999904,2821397.3999999,2821396.343,2821413.041,2840014.0999999,2840014.8,2023-07-11T16:08:41Z,2840013.821,NULL,Kultur,utamaduni,d,NA,NA,NA,cultaso,NA,NA,0,NA,NA,NA,NA,NA,NA,NA,NA,NA,NA,NA,NA,NA,NA,NA,NA,NA,NA,NA
7b60e,"""Richtig""-Screen",canvas.Screen,3_0_0_0_3_0_1,NA,NA,skipped,NA,2840019.5999999,NA,NA,2840014.0999999,2840019.5999999,2023-07-11T16:08:41Z,2840013.821,NULL,Kultur,utamaduni,d,NA,NA,NA,NA,sdf,NA,0,NA,NA,NA,NA,NA,NA,NA,NA,NA,NA,NA,NA,NA,NA,NA,NA,NA,NA,NA
7b60e,"""Falsch""-Screen",canvas.Screen,3_0_0_0_3_0_2,NA,NA,timeout,4996.193,2840020.1999998,2839997.586,2840013.821,2844992.996,2844995.0999999,2023-07-11T16:08:46Z,2845010.014,NULL,Kultur,utamaduni,d,NA,NA,NA,NA,sdf,0,0,NA,NA,NA,NA,NA,NA,NA,NA,NA,NA,NA,NA,NA,NA,NA,NA,NA,NA,NA
7b60e,deep,flow.Sequence,3_0_0_0_3_0,NA,NA,completion,23579.955,2821397.3999999,2821396.343,2821413.041,2844992.996,2844995.3,2023-07-11T16:08:46Z,2845010.014,NULL,Kultur,utamaduni,d,NA,NA,NA,NA,sdf,NA,0,NA,NA,NA,NA,NA,NA,NA,NA,NA,NA,NA,NA,NA,NA,NA,NA,NA,NA,NA
7b60e,shallow,flow.Sequence,3_0_0_0_3_1,NA,NA,skipped,NA,2844995.3999999,NA,NA,2844992.996,2844995.5,2023-07-11T16:08:46Z,2845010.014,NULL,Kultur,utamaduni,d,NA,NA,NA,NA,sdf,NA,0,NA,NA,NA,NA,NA,NA,NA,NA,NA,NA,NA,NA,NA,NA,NA,NA,NA,NA,NA
7b60e,task,flow.Sequence,3_0_0_0_3,NA,NA,completion,23579.955,2821397.3,2821396.343,2821413.041,2844992.996,2844995.6999998,2023-07-11T16:08:46Z,2845010.014,NULL,Kultur,utamaduni,d,NA,NA,NA,NA,sdf,NA,0,NA,NA,NA,NA,NA,NA,NA,NA,NA,NA,NA,NA,NA,NA,NA,NA,NA,NA,NA
7b60e,Deep Question,html.Page,3_0_0_0_4_0_0,NA,NA,form submission,15865.685999809,2844995.8,2844992.996,2845010.014,2860875.6999998,2860876.0999999,2023-07-11T16:09:01Z,2860879.937,NULL,Annäherung,maegesho,d,NA,NA,NA,sorvana,NA,NA,0,NA,NA,NA,NA,NA,NA,NA,NA,NA,NA,NA,NA,NA,NA,NA,NA,NA,NA,NA
7b60e,"""Richtig""-Screen",canvas.Screen,3_0_0_0_4_0_1,NA,NA,skipped,NA,2860880.3999999,NA,NA,2860875.6999998,2860880.5,2023-07-11T16:09:01Z,2860879.937,NULL,Annäherung,maegesho,d,NA,NA,NA,NA,sdf,NA,0,NA,NA,NA,NA,NA,NA,NA,NA,NA,NA,NA,NA,NA,NA,NA,NA,NA,NA,NA
7b60e,"""Falsch""-Screen",canvas.Screen,3_0_0_0_4_0_2,NA,NA,timeout,4995.889,2860881.0999999,2860863.755,2860879.937,2865859.227,2865861.6999998,2023-07-11T16:09:06Z,2865875.826,NULL,Annäherung,maegesho,d,NA,NA,NA,NA,sdf,0,0,NA,NA,NA,NA,NA,NA,NA,NA,NA,NA,NA,NA,NA,NA,NA,NA,NA,NA,NA
7b60e,deep,flow.Sequence,3_0_0_0_4_0,NA,NA,completion,20849.213,2844995.8,2844992.996,2845010.014,2865859.227,2865862,2023-07-11T16:09:06Z,2865875.826,NULL,Annäherung,maegesho,d,NA,NA,NA,NA,sdf,NA,0,NA,NA,NA,NA,NA,NA,NA,NA,NA,NA,NA,NA,NA,NA,NA,NA,NA,NA,NA
7b60e,shallow,flow.Sequence,3_0_0_0_4_1,NA,NA,skipped,NA,2865862.0999999,NA,NA,2865859.227,2865862.1999998,2023-07-11T16:09:06Z,2865875.826,NULL,Annäherung,maegesho,d,NA,NA,NA,NA,sdf,NA,0,NA,NA,NA,NA,NA,NA,NA,NA,NA,NA,NA,NA,NA,NA,NA,NA,NA,NA,NA
7b60e,task,flow.Sequence,3_0_0_0_4,NA,NA,completion,20849.213,2844995.8,2844992.996,2845010.014,2865859.227,2865862.3999999,2023-07-11T16:09:06Z,2865875.826,NULL,Annäherung,maegesho,d,NA,NA,NA,NA,sdf,NA,0,NA,NA,NA,NA,NA,NA,NA,NA,NA,NA,NA,NA,NA,NA,NA,NA,NA,NA,NA
7b60e,deep,flow.Sequence,3_0_0_0_5_0,NA,NA,skipped,NA,2865862.5,NA,NA,2865859.227,2865862.5999999,2023-07-11T16:09:06Z,2865875.826,NULL,Aufstand,ugomaji,s,mazidio,msingi,kujieleza,NA,sdf,NA,0,NA,NA,NA,NA,NA,NA,NA,NA,NA,NA,NA,NA,NA,NA,NA,NA,NA,NA,NA
7b60e,Shallow Question,html.Page,3_0_0_0_5_1_0,NA,NA,form submission,6741.6740000001,2865862.8,2865859.227,2865875.826,2872617.5,2872617.8999999,2023-07-11T16:09:13Z,2872620.296,NULL,Aufstand,ugomaji,s,mazidio,msingi,kujieleza,ugomaji,NA,NA,0,NA,NA,NA,NA,NA,NA,NA,NA,NA,NA,NA,NA,NA,NA,NA,NA,NA,NA,NA
7b60e,"""Richtig""-Screen",canvas.Screen,3_0_0_0_5_1_1,NA,NA,timeout,4996.2280000001,2872620.8,2872604.009,2872620.296,2877599.547,2877601.5999999,2023-07-11T16:09:18Z,2877616.524,NULL,Aufstand,ugomaji,s,mazidio,msingi,kujieleza,NA,sdf,1,0,NA,NA,NA,NA,NA,NA,NA,NA,NA,NA,NA,NA,NA,NA,NA,NA,NA,NA,NA
7b60e,"""Falsch""-Screen",canvas.Screen,3_0_0_0_5_1_2,NA,NA,skipped,NA,2877603.5,NA,NA,2877599.547,2877603.6999998,2023-07-11T16:09:18Z,2877616.524,NULL,Aufstand,ugomaji,s,mazidio,msingi,kujieleza,NA,sdf,NA,0,NA,NA,NA,NA,NA,NA,NA,NA,NA,NA,NA,NA,NA,NA,NA,NA,NA,NA,NA
7b60e,shallow,flow.Sequence,3_0_0_0_5_1,NA,NA,completion,11723.721,2865862.6999998,2865859.227,2865875.826,2877599.547,2877603.8999999,2023-07-11T16:09:18Z,2877616.524,NULL,Aufstand,ugomaji,s,mazidio,msingi,kujieleza,NA,sdf,NA,0,NA,NA,NA,NA,NA,NA,NA,NA,NA,NA,NA,NA,NA,NA,NA,NA,NA,NA,NA
7b60e,task,flow.Sequence,3_0_0_0_5,NA,NA,completion,11723.721,2865862.5,2865859.227,2865875.826,2877599.547,2877604.0999999,2023-07-11T16:09:18Z,2877616.524,NULL,Aufstand,ugomaji,s,mazidio,msingi,kujieleza,NA,sdf,NA,0,NA,NA,NA,NA,NA,NA,NA,NA,NA,NA,NA,NA,NA,NA,NA,NA,NA,NA,NA
7b60e,deep,flow.Sequence,3_0_0_0_6_0,NA,NA,skipped,NA,2877604.1999998,NA,NA,2877599.547,2877604.3,2023-07-11T16:09:18Z,2877616.524,NULL,Polizist,msongora,s,simanzi,mandhari,nidhamu,NA,sdf,NA,0,NA,NA,NA,NA,NA,NA,NA,NA,NA,NA,NA,NA,NA,NA,NA,NA,NA,NA,NA
7b60e,Shallow Question,html.Page,3_0_0_0_6_1_0,NA,NA,form submission,10496.275999952,2877604.3999999,2877599.547,2877616.524,2888112.8,2888113.1999998,2023-07-11T16:09:29Z,2888124.166,NULL,Polizist,msongora,s,simanzi,mandhari,nidhamu,nidhamu,NA,NA,0,NA,NA,NA,NA,NA,NA,NA,NA,NA,NA,NA,NA,NA,NA,NA,NA,NA,NA,NA
7b60e,"""Richtig""-Screen",canvas.Screen,3_0_0_0_6_1_1,NA,NA,skipped,NA,2888118.6999998,NA,NA,2888112.8,2888119.1999998,2023-07-11T16:09:29Z,2888124.166,NULL,Polizist,msongora,s,simanzi,mandhari,nidhamu,NA,sdf,NA,0,NA,NA,NA,NA,NA,NA,NA,NA,NA,NA,NA,NA,NA,NA,NA,NA,NA,NA,NA
7b60e,"""Falsch""-Screen",canvas.Screen,3_0_0_0_6_1_2,NA,NA,timeout,4996.4979999997,2888119.8999999,2888108.117,2888124.166,2893103.908,2893105,2023-07-11T16:09:34Z,2893120.664,NULL,Polizist,msongora,s,simanzi,mandhari,nidhamu,NA,sdf,0,0,NA,NA,NA,NA,NA,NA,NA,NA,NA,NA,NA,NA,NA,NA,NA,NA,NA,NA,NA
7b60e,shallow,flow.Sequence,3_0_0_0_6_1,NA,NA,completion,15487.384,2877604.3999999,2877599.547,2877616.524,2893103.908,2893105.3999999,2023-07-11T16:09:34Z,2893120.664,NULL,Polizist,msongora,s,simanzi,mandhari,nidhamu,NA,sdf,NA,0,NA,NA,NA,NA,NA,NA,NA,NA,NA,NA,NA,NA,NA,NA,NA,NA,NA,NA,NA
7b60e,task,flow.Sequence,3_0_0_0_6,NA,NA,completion,15487.384,2877604.0999999,2877599.547,2877616.524,2893103.908,2893105.6999998,2023-07-11T16:09:34Z,2893120.664,NULL,Polizist,msongora,s,simanzi,mandhari,nidhamu,NA,sdf,NA,0,NA,NA,NA,NA,NA,NA,NA,NA,NA,NA,NA,NA,NA,NA,NA,NA,NA,NA,NA
7b60e,Deep Question,html.Page,3_0_0_0_7_0_0,NA,NA,form submission,10276.735999857,2893106,2893103.908,2893120.664,2903397.3999999,2903397.8,2023-07-11T16:09:44Z,2903411.655,NULL,Sympathie,mapendano,d,NA,NA,NA,travasa,NA,NA,0,NA,NA,NA,NA,NA,NA,NA,NA,NA,NA,NA,NA,NA,NA,NA,NA,NA,NA,NA
7b60e,"""Richtig""-Screen",canvas.Screen,3_0_0_0_7_0_1,NA,NA,skipped,NA,2903405.1999998,NA,NA,2903397.3999999,2903405.6999998,2023-07-11T16:09:44Z,2903411.655,NULL,Sympathie,mapendano,d,NA,NA,NA,NA,sdf,NA,0,NA,NA,NA,NA,NA,NA,NA,NA,NA,NA,NA,NA,NA,NA,NA,NA,NA,NA,NA
7b60e,"""Falsch""-Screen",canvas.Screen,3_0_0_0_7_0_2,NA,NA,timeout,4995.8870000001,2903409.6999998,2903395.606,2903411.655,2908391.406,2908392.3999999,2023-07-11T16:09:49Z,2908407.542,NULL,Sympathie,mapendano,d,NA,NA,NA,NA,sdf,0,0,NA,NA,NA,NA,NA,NA,NA,NA,NA,NA,NA,NA,NA,NA,NA,NA,NA,NA,NA
7b60e,deep,flow.Sequence,3_0_0_0_7_0,NA,NA,completion,15270.742,2893105.8999999,2893103.908,2893120.664,2908391.406,2908393,2023-07-11T16:09:49Z,2908407.542,NULL,Sympathie,mapendano,d,NA,NA,NA,NA,sdf,NA,0,NA,NA,NA,NA,NA,NA,NA,NA,NA,NA,NA,NA,NA,NA,NA,NA,NA,NA,NA
7b60e,shallow,flow.Sequence,3_0_0_0_7_1,NA,NA,skipped,NA,2908393.0999999,NA,NA,2908391.406,2908393.3,2023-07-11T16:09:49Z,2908407.542,NULL,Sympathie,mapendano,d,NA,NA,NA,NA,sdf,NA,0,NA,NA,NA,NA,NA,NA,NA,NA,NA,NA,NA,NA,NA,NA,NA,NA,NA,NA,NA
7b60e,task,flow.Sequence,3_0_0_0_7,NA,NA,completion,15270.742,2893105.8999999,2893103.908,2893120.664,2908391.406,2908393.5,2023-07-11T16:09:49Z,2908407.542,NULL,Sympathie,mapendano,d,NA,NA,NA,NA,sdf,NA,0,NA,NA,NA,NA,NA,NA,NA,NA,NA,NA,NA,NA,NA,NA,NA,NA,NA,NA,NA
7b60e,block,flow.Loop,3_0_0_0,NA,NA,completion,132741.374,2775655.5,2775549.874,2775650.032,2908391.406,2908393.8,2023-07-11T16:09:49Z,2908407.542,NULL,NA,NA,NA,NA,NA,NA,NA,sdf,NA,0,NA,NA,NA,NA,NA,NA,NA,NA,NA,NA,NA,NA,NA,NA,NA,NA,NA,NA,NA
7b60e,weiter,canvas.Screen,3_0_0_1,sdf,keypress(Space),response,1927.1579998094,2908394,2908391.406,2908407.542,2910334.6999998,2910336,2023-07-11T16:09:51Z,2910355.908,NULL,NA,NA,NA,NA,NA,NA,NA,sdf,NA,0,NA,NA,NA,NA,NA,NA,NA,NA,NA,NA,NA,NA,NA,NA,NA,NA,NA,NA,NA
7b60e,check continue,flow.Sequence,3_0_0,NA,NA,completion,134684.66799981,2775655.5,2775549.874,2775650.032,2910334.6999998,2910336.3999999,2023-07-11T16:09:51Z,2910355.908,NULL,NA,NA,NA,NA,NA,NA,NA,sdf,NA,0,NA,NA,NA,NA,NA,NA,NA,NA,NA,NA,NA,NA,NA,NA,NA,NA,NA,NA,NA
7b60e,deep,flow.Sequence,3_0_1_0_0_0,NA,NA,skipped,NA,2910367.5999999,NA,NA,2910334.6999998,2910367.6999998,2023-07-11T16:09:51Z,2910355.908,NULL,Aufstand,ugomaji,s,mazidio,msingi,kujieleza,NA,sdfdsf,NA,1,NA,NA,NA,NA,NA,NA,NA,NA,NA,NA,NA,NA,NA,NA,NA,NA,NA,NA,NA
7b60e,Shallow Question,html.Page,3_0_1_0_0_1_0,NA,NA,form submission,6702.0920000002,2910367.8,2910323.091,2910355.908,2917058,2917058.5,2023-07-11T16:09:58Z,2917067.129,NULL,Aufstand,ugomaji,s,mazidio,msingi,kujieleza,ugomaji,NA,NA,1,NA,NA,NA,NA,NA,NA,NA,NA,NA,NA,NA,NA,NA,NA,NA,NA,NA,NA,NA
7b60e,"""Richtig""-Screen",canvas.Screen,3_0_1_0_0_1_1,NA,NA,timeout,4996.4129999997,2917064,2917051.024,2917067.129,2922046.911,2922047.5999999,2023-07-11T16:10:03Z,2922063.542,NULL,Aufstand,ugomaji,s,mazidio,msingi,kujieleza,NA,sdfdsf,1,1,NA,NA,NA,NA,NA,NA,NA,NA,NA,NA,NA,NA,NA,NA,NA,NA,NA,NA,NA
7b60e,"""Falsch""-Screen",canvas.Screen,3_0_1_0_0_1_2,NA,NA,skipped,NA,2922050.0999999,NA,NA,2922046.911,2922050.3,2023-07-11T16:10:03Z,2922063.542,NULL,Aufstand,ugomaji,s,mazidio,msingi,kujieleza,NA,sdfdsf,NA,1,NA,NA,NA,NA,NA,NA,NA,NA,NA,NA,NA,NA,NA,NA,NA,NA,NA,NA,NA
7b60e,shallow,flow.Sequence,3_0_1_0_0_1,NA,NA,completion,11691.003,2910367.8,2910323.091,2910355.908,2922046.911,2922050.5,2023-07-11T16:10:03Z,2922063.542,NULL,Aufstand,ugomaji,s,mazidio,msingi,kujieleza,NA,sdfdsf,NA,1,NA,NA,NA,NA,NA,NA,NA,NA,NA,NA,NA,NA,NA,NA,NA,NA,NA,NA,NA
7b60e,task,flow.Sequence,3_0_1_0_0,NA,NA,completion,11691.003,2910367.5999999,2910323.091,2910355.908,2922046.911,2922050.5999999,2023-07-11T16:10:03Z,2922063.542,NULL,Aufstand,ugomaji,s,mazidio,msingi,kujieleza,NA,sdfdsf,NA,1,NA,NA,NA,NA,NA,NA,NA,NA,NA,NA,NA,NA,NA,NA,NA,NA,NA,NA,NA
7b60e,deep,flow.Sequence,3_0_1_0_1_0,NA,NA,skipped,NA,2922050.6999998,NA,NA,2922046.911,2922050.8,2023-07-11T16:10:03Z,2922063.542,NULL,Beweis,ushahidi,s,marudio,kizuizi,mtendaji,NA,sdfdsf,NA,1,NA,NA,NA,NA,NA,NA,NA,NA,NA,NA,NA,NA,NA,NA,NA,NA,NA,NA,NA
7b60e,Shallow Question,html.Page,3_0_1_0_1_1_0,NA,NA,form submission,8137.857999857,2922050.8,2922046.911,2922063.542,2930201.3999999,2930201.8,2023-07-11T16:10:11Z,2930206.323,NULL,Beweis,ushahidi,s,marudio,kizuizi,mtendaji,ushahidi,NA,NA,1,NA,NA,NA,NA,NA,NA,NA,NA,NA,NA,NA,NA,NA,NA,NA,NA,NA,NA,NA
7b60e,"""Richtig""-Screen",canvas.Screen,3_0_1_0_1_1_1,NA,NA,timeout,4996.5520000001,2930205.1999998,2930189.89,2930206.323,2935185.48,2935187.5999999,2023-07-11T16:10:16Z,2935202.875,NULL,Beweis,ushahidi,s,marudio,kizuizi,mtendaji,NA,sdfdsf,1,1,NA,NA,NA,NA,NA,NA,NA,NA,NA,NA,NA,NA,NA,NA,NA,NA,NA,NA,NA
7b60e,"""Falsch""-Screen",canvas.Screen,3_0_1_0_1_1_2,NA,NA,skipped,NA,2935189.1999998,NA,NA,2935185.48,2935189.3999999,2023-07-11T16:10:16Z,2935202.875,NULL,Beweis,ushahidi,s,marudio,kizuizi,mtendaji,NA,sdfdsf,NA,1,NA,NA,NA,NA,NA,NA,NA,NA,NA,NA,NA,NA,NA,NA,NA,NA,NA,NA,NA
7b60e,shallow,flow.Sequence,3_0_1_0_1_1,NA,NA,completion,13121.938,2922050.8,2922046.911,2922063.542,2935185.48,2935189.3999999,2023-07-11T16:10:16Z,2935202.875,NULL,Beweis,ushahidi,s,marudio,kizuizi,mtendaji,NA,sdfdsf,NA,1,NA,NA,NA,NA,NA,NA,NA,NA,NA,NA,NA,NA,NA,NA,NA,NA,NA,NA,NA
7b60e,task,flow.Sequence,3_0_1_0_1,NA,NA,completion,13121.938,2922050.6999998,2922046.911,2922063.542,2935185.48,2935189.5,2023-07-11T16:10:16Z,2935202.875,NULL,Beweis,ushahidi,s,marudio,kizuizi,mtendaji,NA,sdfdsf,NA,1,NA,NA,NA,NA,NA,NA,NA,NA,NA,NA,NA,NA,NA,NA,NA,NA,NA,NA,NA
7b60e,deep,flow.Sequence,3_0_1_0_2_0,NA,NA,skipped,NA,2935189.5999999,NA,NA,2935185.48,2935189.5999999,2023-07-11T16:10:16Z,2935202.875,NULL,Polizist,msongora,s,simanzi,mandhari,nidhamu,NA,sdfdsf,NA,1,NA,NA,NA,NA,NA,NA,NA,NA,NA,NA,NA,NA,NA,NA,NA,NA,NA,NA,NA
7b60e,Shallow Question,html.Page,3_0_1_0_2_1_0,NA,NA,form submission,5389.7249999046,2935189.6999998,2935185.48,2935202.875,2940592.5999999,2940593.1999998,2023-07-11T16:10:21Z,2940597.703,NULL,Polizist,msongora,s,simanzi,mandhari,nidhamu,msongora,NA,NA,1,NA,NA,NA,NA,NA,NA,NA,NA,NA,NA,NA,NA,NA,NA,NA,NA,NA,NA,NA
7b60e,"""Richtig""-Screen",canvas.Screen,3_0_1_0_2_1_1,NA,NA,timeout,4995.9219999998,2940595.3999999,2940581.658,2940597.703,2945577.343,2945578.3999999,2023-07-11T16:10:26Z,2945593.625,NULL,Polizist,msongora,s,simanzi,mandhari,nidhamu,NA,sdfdsf,1,1,NA,NA,NA,NA,NA,NA,NA,NA,NA,NA,NA,NA,NA,NA,NA,NA,NA,NA,NA
7b60e,"""Falsch""-Screen",canvas.Screen,3_0_1_0_2_1_2,NA,NA,skipped,NA,2945583.6999998,NA,NA,2945577.343,2945584.0999999,2023-07-11T16:10:26Z,2945593.625,NULL,Polizist,msongora,s,simanzi,mandhari,nidhamu,NA,sdfdsf,NA,1,NA,NA,NA,NA,NA,NA,NA,NA,NA,NA,NA,NA,NA,NA,NA,NA,NA,NA,NA
7b60e,shallow,flow.Sequence,3_0_1_0_2_1,NA,NA,completion,10374.468,2935189.5999999,2935185.48,2935202.875,2945577.343,2945584.3999999,2023-07-11T16:10:26Z,2945593.625,NULL,Polizist,msongora,s,simanzi,mandhari,nidhamu,NA,sdfdsf,NA,1,NA,NA,NA,NA,NA,NA,NA,NA,NA,NA,NA,NA,NA,NA,NA,NA,NA,NA,NA
7b60e,task,flow.Sequence,3_0_1_0_2,NA,NA,completion,10374.468,2935189.5,2935185.48,2935202.875,2945577.343,2945584.6999998,2023-07-11T16:10:26Z,2945593.625,NULL,Polizist,msongora,s,simanzi,mandhari,nidhamu,NA,sdfdsf,NA,1,NA,NA,NA,NA,NA,NA,NA,NA,NA,NA,NA,NA,NA,NA,NA,NA,NA,NA,NA
7b60e,deep,flow.Sequence,3_0_1_0_3_0,NA,NA,skipped,NA,2945584.8999999,NA,NA,2945577.343,2945585.0999999,2023-07-11T16:10:26Z,2945593.625,NULL,Prüfung,mtihani,s,mkulima,mtizamo,ufumbuzi,NA,sdfdsf,NA,1,NA,NA,NA,NA,NA,NA,NA,NA,NA,NA,NA,NA,NA,NA,NA,NA,NA,NA,NA
7b60e,Shallow Question,html.Page,3_0_1_0_3_1_0,NA,NA,form submission,6021.375,2945585.1999998,2945577.343,2945593.625,2951615,2951615.1999998,2023-07-11T16:10:32Z,2951622.249,NULL,Prüfung,mtihani,s,mkulima,mtizamo,ufumbuzi,mtihani,NA,NA,1,NA,NA,NA,NA,NA,NA,NA,NA,NA,NA,NA,NA,NA,NA,NA,NA,NA,NA,NA
7b60e,"""Richtig""-Screen",canvas.Screen,3_0_1_0_3_1_1,NA,NA,timeout,4996.3770000003,2951616.6999998,2951605.439,2951622.249,2956601.491,2956602.5,2023-07-11T16:10:37Z,2956618.626,NULL,Prüfung,mtihani,s,mkulima,mtizamo,ufumbuzi,NA,sdfdsf,1,1,NA,NA,NA,NA,NA,NA,NA,NA,NA,NA,NA,NA,NA,NA,NA,NA,NA,NA,NA
7b60e,"""Falsch""-Screen",canvas.Screen,3_0_1_0_3_1_2,NA,NA,skipped,NA,2956607.8,NA,NA,2956601.491,2956607.8999999,2023-07-11T16:10:37Z,2956618.626,NULL,Prüfung,mtihani,s,mkulima,mtizamo,ufumbuzi,NA,sdfdsf,NA,1,NA,NA,NA,NA,NA,NA,NA,NA,NA,NA,NA,NA,NA,NA,NA,NA,NA,NA,NA
7b60e,shallow,flow.Sequence,3_0_1_0_3_1,NA,NA,completion,11007.866,2945585.1999998,2945577.343,2945593.625,2956601.491,2956608,2023-07-11T16:10:37Z,2956618.626,NULL,Prüfung,mtihani,s,mkulima,mtizamo,ufumbuzi,NA,sdfdsf,NA,1,NA,NA,NA,NA,NA,NA,NA,NA,NA,NA,NA,NA,NA,NA,NA,NA,NA,NA,NA
7b60e,task,flow.Sequence,3_0_1_0_3,NA,NA,completion,11007.866,2945584.8,2945577.343,2945593.625,2956601.491,2956608.0999999,2023-07-11T16:10:37Z,2956618.626,NULL,Prüfung,mtihani,s,mkulima,mtizamo,ufumbuzi,NA,sdfdsf,NA,1,NA,NA,NA,NA,NA,NA,NA,NA,NA,NA,NA,NA,NA,NA,NA,NA,NA,NA,NA
7b60e,Deep Question,html.Page,3_0_1_0_4_0_0,NA,NA,form submission,10585.573999809,2956608.1999998,2956601.491,2956618.626,2967204.1999998,2967204.3999999,2023-07-11T16:10:48Z,2967209.189,NULL,Verzögerung,kuchelewa,d,NA,NA,NA,mkuwali,NA,NA,1,NA,NA,NA,NA,NA,NA,NA,NA,NA,NA,NA,NA,NA,NA,NA,NA,NA,NA,NA
7b60e,"""Richtig""-Screen",canvas.Screen,3_0_1_0_4_0_1,NA,NA,skipped,NA,2967206.8,NA,NA,2967204.1999998,2967206.8999999,2023-07-11T16:10:48Z,2967209.189,NULL,Verzögerung,kuchelewa,d,NA,NA,NA,NA,sdfdsf,NA,1,NA,NA,NA,NA,NA,NA,NA,NA,NA,NA,NA,NA,NA,NA,NA,NA,NA,NA,NA
7b60e,"""Falsch""-Screen",canvas.Screen,3_0_1_0_4_0_2,NA,NA,timeout,4995.9350000001,2967207.5999999,2967192.86,2967209.189,2972188.712,2972189.6999998,2023-07-11T16:10:53Z,2972205.124,NULL,Verzögerung,kuchelewa,d,NA,NA,NA,NA,sdfdsf,0,1,NA,NA,NA,NA,NA,NA,NA,NA,NA,NA,NA,NA,NA,NA,NA,NA,NA,NA,NA
7b60e,deep,flow.Sequence,3_0_1_0_4_0,NA,NA,completion,15570.086,2956608.1999998,2956601.491,2956618.626,2972188.712,2972190.3,2023-07-11T16:10:53Z,2972205.124,NULL,Verzögerung,kuchelewa,d,NA,NA,NA,NA,sdfdsf,NA,1,NA,NA,NA,NA,NA,NA,NA,NA,NA,NA,NA,NA,NA,NA,NA,NA,NA,NA,NA
7b60e,shallow,flow.Sequence,3_0_1_0_4_1,NA,NA,skipped,NA,2972190.5,NA,NA,2972188.712,2972190.5999999,2023-07-11T16:10:53Z,2972205.124,NULL,Verzögerung,kuchelewa,d,NA,NA,NA,NA,sdfdsf,NA,1,NA,NA,NA,NA,NA,NA,NA,NA,NA,NA,NA,NA,NA,NA,NA,NA,NA,NA,NA
7b60e,task,flow.Sequence,3_0_1_0_4,NA,NA,completion,15570.086,2956608.0999999,2956601.491,2956618.626,2972188.712,2972191.0999999,2023-07-11T16:10:53Z,2972205.124,NULL,Verzögerung,kuchelewa,d,NA,NA,NA,NA,sdfdsf,NA,1,NA,NA,NA,NA,NA,NA,NA,NA,NA,NA,NA,NA,NA,NA,NA,NA,NA,NA,NA
7b60e,Deep Question,html.Page,3_0_1_0_5_0_0,NA,NA,form submission,12387.175999952,2972191.3,2972188.712,2972205.124,2984592.3,2984592.8,2023-07-11T16:11:05Z,2984594.925,NULL,Kultur,utamaduni,d,NA,NA,NA,mchuvalo,NA,NA,1,NA,NA,NA,NA,NA,NA,NA,NA,NA,NA,NA,NA,NA,NA,NA,NA,NA,NA,NA
7b60e,"""Richtig""-Screen",canvas.Screen,3_0_1_0_5_0_1,NA,NA,skipped,NA,2984599.3999999,NA,NA,2984592.3,2984599.6999998,2023-07-11T16:11:05Z,2984594.925,NULL,Kultur,utamaduni,d,NA,NA,NA,NA,sdfdsf,NA,1,NA,NA,NA,NA,NA,NA,NA,NA,NA,NA,NA,NA,NA,NA,NA,NA,NA,NA,NA
7b60e,"""Falsch""-Screen",canvas.Screen,3_0_1_0_5_0_2,NA,NA,timeout,4996.523,2984601.6999998,2984578.816,2984594.925,2989574.69,2989575.8,2023-07-11T16:11:10Z,2989591.448,NULL,Kultur,utamaduni,d,NA,NA,NA,NA,sdfdsf,0,1,NA,NA,NA,NA,NA,NA,NA,NA,NA,NA,NA,NA,NA,NA,NA,NA,NA,NA,NA
7b60e,deep,flow.Sequence,3_0_1_0_5_0,NA,NA,completion,17369.566,2972191.3,2972188.712,2972205.124,2989574.69,2989576.0999999,2023-07-11T16:11:10Z,2989591.448,NULL,Kultur,utamaduni,d,NA,NA,NA,NA,sdfdsf,NA,1,NA,NA,NA,NA,NA,NA,NA,NA,NA,NA,NA,NA,NA,NA,NA,NA,NA,NA,NA
7b60e,shallow,flow.Sequence,3_0_1_0_5_1,NA,NA,skipped,NA,2989576.3,NA,NA,2989574.69,2989576.5,2023-07-11T16:11:10Z,2989591.448,NULL,Kultur,utamaduni,d,NA,NA,NA,NA,sdfdsf,NA,1,NA,NA,NA,NA,NA,NA,NA,NA,NA,NA,NA,NA,NA,NA,NA,NA,NA,NA,NA
7b60e,task,flow.Sequence,3_0_1_0_5,NA,NA,completion,17369.566,2972191.1999998,2972188.712,2972205.124,2989574.69,2989576.8,2023-07-11T16:11:10Z,2989591.448,NULL,Kultur,utamaduni,d,NA,NA,NA,NA,sdfdsf,NA,1,NA,NA,NA,NA,NA,NA,NA,NA,NA,NA,NA,NA,NA,NA,NA,NA,NA,NA,NA
7b60e,Deep Question,html.Page,3_0_1_0_6_0_0,NA,NA,form submission,11585.851999952,2989577.0999999,2989574.69,2989591.448,3001177.3,3001177.8,2023-07-11T16:11:22Z,3001181.328,NULL,Annäherung,maegesho,d,NA,NA,NA,mhasani,NA,NA,1,NA,NA,NA,NA,NA,NA,NA,NA,NA,NA,NA,NA,NA,NA,NA,NA,NA,NA,NA
7b60e,"""Richtig""-Screen",canvas.Screen,3_0_1_0_6_0_1,NA,NA,skipped,NA,3001184.8,NA,NA,3001177.3,3001185.1999998,2023-07-11T16:11:22Z,3001181.328,NULL,Annäherung,maegesho,d,NA,NA,NA,NA,sdfdsf,NA,1,NA,NA,NA,NA,NA,NA,NA,NA,NA,NA,NA,NA,NA,NA,NA,NA,NA,NA,NA
7b60e,"""Falsch""-Screen",canvas.Screen,3_0_1_0_6_0_2,NA,NA,timeout,4996.514,3001186.5,3001164.981,3001181.328,3006161.041,3006162.0999999,2023-07-11T16:11:27Z,3006177.842,NULL,Annäherung,maegesho,d,NA,NA,NA,NA,sdfdsf,0,1,NA,NA,NA,NA,NA,NA,NA,NA,NA,NA,NA,NA,NA,NA,NA,NA,NA,NA,NA
7b60e,deep,flow.Sequence,3_0_1_0_6_0,NA,NA,completion,16569.593,2989577,2989574.69,2989591.448,3006161.041,3006162.5999999,2023-07-11T16:11:27Z,3006177.842,NULL,Annäherung,maegesho,d,NA,NA,NA,NA,sdfdsf,NA,1,NA,NA,NA,NA,NA,NA,NA,NA,NA,NA,NA,NA,NA,NA,NA,NA,NA,NA,NA
7b60e,shallow,flow.Sequence,3_0_1_0_6_1,NA,NA,skipped,NA,3006162.8,NA,NA,3006161.041,3006162.8999999,2023-07-11T16:11:27Z,3006177.842,NULL,Annäherung,maegesho,d,NA,NA,NA,NA,sdfdsf,NA,1,NA,NA,NA,NA,NA,NA,NA,NA,NA,NA,NA,NA,NA,NA,NA,NA,NA,NA,NA
7b60e,task,flow.Sequence,3_0_1_0_6,NA,NA,completion,16569.593,2989577,2989574.69,2989591.448,3006161.041,3006163.0999999,2023-07-11T16:11:27Z,3006177.842,NULL,Annäherung,maegesho,d,NA,NA,NA,NA,sdfdsf,NA,1,NA,NA,NA,NA,NA,NA,NA,NA,NA,NA,NA,NA,NA,NA,NA,NA,NA,NA,NA
7b60e,Deep Question,html.Page,3_0_1_0_7_0_0,NA,NA,form submission,19568.957999952,3006163.5,3006161.041,3006177.842,3025746.8,3025747.3,2023-07-11T16:11:46Z,3025761.055,NULL,Sympathie,mapendano,d,NA,NA,NA,mutegsho,NA,NA,1,NA,NA,NA,NA,NA,NA,NA,NA,NA,NA,NA,NA,NA,NA,NA,NA,NA,NA,NA
7b60e,"""Richtig""-Screen",canvas.Screen,3_0_1_0_7_0_1,NA,NA,skipped,NA,3025754.0999999,NA,NA,3025746.8,3025754.5999999,2023-07-11T16:11:46Z,3025761.055,NULL,Sympathie,mapendano,d,NA,NA,NA,NA,sdfdsf,NA,1,NA,NA,NA,NA,NA,NA,NA,NA,NA,NA,NA,NA,NA,NA,NA,NA,NA,NA,NA
7b60e,"""Falsch""-Screen",canvas.Screen,3_0_1_0_7_0_2,NA,NA,timeout,4995.9819999998,3025758.0999999,3025744.869,3025761.055,3030740.826,3030741.8999999,2023-07-11T16:11:51Z,3030757.037,NULL,Sympathie,mapendano,d,NA,NA,NA,NA,sdfdsf,0,1,NA,NA,NA,NA,NA,NA,NA,NA,NA,NA,NA,NA,NA,NA,NA,NA,NA,NA,NA
7b60e,deep,flow.Sequence,3_0_1_0_7_0,NA,NA,completion,24562.984,3006163.3999999,3006161.041,3006177.842,3030740.826,3030742.5999999,2023-07-11T16:11:51Z,3030757.037,NULL,Sympathie,mapendano,d,NA,NA,NA,NA,sdfdsf,NA,1,NA,NA,NA,NA,NA,NA,NA,NA,NA,NA,NA,NA,NA,NA,NA,NA,NA,NA,NA
7b60e,shallow,flow.Sequence,3_0_1_0_7_1,NA,NA,skipped,NA,3030742.8,NA,NA,3030740.826,3030743,2023-07-11T16:11:51Z,3030757.037,NULL,Sympathie,mapendano,d,NA,NA,NA,NA,sdfdsf,NA,1,NA,NA,NA,NA,NA,NA,NA,NA,NA,NA,NA,NA,NA,NA,NA,NA,NA,NA,NA
7b60e,task,flow.Sequence,3_0_1_0_7,NA,NA,completion,24562.984,3006163.3,3006161.041,3006177.842,3030740.826,3030743.1999998,2023-07-11T16:11:51Z,3030757.037,NULL,Sympathie,mapendano,d,NA,NA,NA,NA,sdfdsf,NA,1,NA,NA,NA,NA,NA,NA,NA,NA,NA,NA,NA,NA,NA,NA,NA,NA,NA,NA,NA
7b60e,block,flow.Loop,3_0_1_0,NA,NA,completion,120384.918,2910367.5999999,2910323.091,2910355.908,3030740.826,3030743.5,2023-07-11T16:11:51Z,3030757.037,NULL,NA,NA,NA,NA,NA,NA,NA,sdfdsf,NA,1,NA,NA,NA,NA,NA,NA,NA,NA,NA,NA,NA,NA,NA,NA,NA,NA,NA,NA,NA
7b60e,weiter,canvas.Screen,3_0_1_1,sdf,keypress(Space),response,1462.7629999523,3030743.6999998,3030740.826,3030757.037,3032219.8,3032220.5,2023-07-11T16:11:53Z,3032239.041,NULL,NA,NA,NA,NA,NA,NA,NA,sdfdsf,NA,1,NA,NA,NA,NA,NA,NA,NA,NA,NA,NA,NA,NA,NA,NA,NA,NA,NA,NA,NA
7b60e,check continue,flow.Sequence,3_0_1,NA,NA,completion,121863.89199995,2910367.5999999,2910323.091,2910355.908,3032219.8,3032220.6999998,2023-07-11T16:11:53Z,3032239.041,NULL,NA,NA,NA,NA,NA,NA,NA,sdfdsf,NA,1,NA,NA,NA,NA,NA,NA,NA,NA,NA,NA,NA,NA,NA,NA,NA,NA,NA,NA,NA
7b60e,Deep Question,html.Page,3_0_2_0_0_0_0,NA,NA,form submission,14071.459,3032249.3,3032205.846,3032239.041,3046310.5,3046311.3,2023-07-11T16:12:07Z,3046310.856,NULL,Verzögerung,kuchelewa,d,NA,NA,NA,maegowo,NA,NA,2,NA,NA,NA,NA,NA,NA,NA,NA,NA,NA,NA,NA,NA,NA,NA,NA,NA,NA,NA
7b60e,"""Richtig""-Screen",canvas.Screen,3_0_2_0_0_0_1,NA,NA,skipped,NA,3046316,NA,NA,3046310.5,3046316.1999998,2023-07-11T16:12:07Z,3046310.856,NULL,Verzögerung,kuchelewa,d,NA,NA,NA,NA,sdf,NA,2,NA,NA,NA,NA,NA,NA,NA,NA,NA,NA,NA,NA,NA,NA,NA,NA,NA,NA,NA
7b60e,"""Falsch""-Screen",canvas.Screen,3_0_2_0_0_0_2,NA,NA,timeout,4996.6119999997,3046316.6999998,3046294.848,3046310.856,3051290.093,3051292.3,2023-07-11T16:12:12Z,3051307.468,NULL,Verzögerung,kuchelewa,d,NA,NA,NA,NA,sdf,0,2,NA,NA,NA,NA,NA,NA,NA,NA,NA,NA,NA,NA,NA,NA,NA,NA,NA,NA,NA
7b60e,deep,flow.Sequence,3_0_2_0_0_0,NA,NA,completion,19051.052,3032249.1999998,3032205.846,3032239.041,3051290.093,3051292.5,2023-07-11T16:12:12Z,3051307.468,NULL,Verzögerung,kuchelewa,d,NA,NA,NA,NA,sdf,NA,2,NA,NA,NA,NA,NA,NA,NA,NA,NA,NA,NA,NA,NA,NA,NA,NA,NA,NA,NA
7b60e,shallow,flow.Sequence,3_0_2_0_0_1,NA,NA,skipped,NA,3051292.5999999,NA,NA,3051290.093,3051292.6999998,2023-07-11T16:12:12Z,3051307.468,NULL,Verzögerung,kuchelewa,d,NA,NA,NA,NA,sdf,NA,2,NA,NA,NA,NA,NA,NA,NA,NA,NA,NA,NA,NA,NA,NA,NA,NA,NA,NA,NA
7b60e,task,flow.Sequence,3_0_2_0_0,NA,NA,completion,19051.052,3032249.1999998,3032205.846,3032239.041,3051290.093,3051292.6999998,2023-07-11T16:12:12Z,3051307.468,NULL,Verzögerung,kuchelewa,d,NA,NA,NA,NA,sdf,NA,2,NA,NA,NA,NA,NA,NA,NA,NA,NA,NA,NA,NA,NA,NA,NA,NA,NA,NA,NA
7b60e,deep,flow.Sequence,3_0_2_0_1_0,NA,NA,skipped,NA,3051292.8999999,NA,NA,3051290.093,3051293,2023-07-11T16:12:12Z,3051307.468,NULL,Beweis,ushahidi,s,marudio,kizuizi,mtendaji,NA,sdf,NA,2,NA,NA,NA,NA,NA,NA,NA,NA,NA,NA,NA,NA,NA,NA,NA,NA,NA,NA,NA
7b60e,Shallow Question,html.Page,3_0_2_0_1_1_0,NA,NA,form submission,9752.5320000001,3051293.0999999,3051290.093,3051307.468,3061060,3061060.3999999,2023-07-11T16:12:22Z,3061065.424,NULL,Beweis,ushahidi,s,marudio,kizuizi,mtendaji,ushahidi,NA,NA,2,NA,NA,NA,NA,NA,NA,NA,NA,NA,NA,NA,NA,NA,NA,NA,NA,NA,NA,NA
7b60e,"""Richtig""-Screen",canvas.Screen,3_0_2_0_1_1_1,NA,NA,timeout,4996.588,3061066.0999999,3061049.29,3061065.424,3066045.125,3066046.0999999,2023-07-11T16:12:27Z,3066062.012,NULL,Beweis,ushahidi,s,marudio,kizuizi,mtendaji,NA,sdf,1,2,NA,NA,NA,NA,NA,NA,NA,NA,NA,NA,NA,NA,NA,NA,NA,NA,NA,NA,NA
7b60e,"""Falsch""-Screen",canvas.Screen,3_0_2_0_1_1_2,NA,NA,skipped,NA,3066050.8,NA,NA,3066045.125,3066050.8999999,2023-07-11T16:12:27Z,3066062.012,NULL,Beweis,ushahidi,s,marudio,kizuizi,mtendaji,NA,sdf,NA,2,NA,NA,NA,NA,NA,NA,NA,NA,NA,NA,NA,NA,NA,NA,NA,NA,NA,NA,NA
7b60e,shallow,flow.Sequence,3_0_2_0_1_1,NA,NA,completion,14737.657,3051293.0999999,3051290.093,3051307.468,3066045.125,3066051,2023-07-11T16:12:27Z,3066062.012,NULL,Beweis,ushahidi,s,marudio,kizuizi,mtendaji,NA,sdf,NA,2,NA,NA,NA,NA,NA,NA,NA,NA,NA,NA,NA,NA,NA,NA,NA,NA,NA,NA,NA
7b60e,task,flow.Sequence,3_0_2_0_1,NA,NA,completion,14737.657,3051292.8999999,3051290.093,3051307.468,3066045.125,3066051.0999999,2023-07-11T16:12:27Z,3066062.012,NULL,Beweis,ushahidi,s,marudio,kizuizi,mtendaji,NA,sdf,NA,2,NA,NA,NA,NA,NA,NA,NA,NA,NA,NA,NA,NA,NA,NA,NA,NA,NA,NA,NA
7b60e,Deep Question,html.Page,3_0_2_0_2_0_0,NA,NA,form submission,16824.988,3066051.1999998,3066045.125,3066062.012,3082887,3082887.3999999,2023-07-11T16:12:43Z,3082897.395,NULL,Kultur,utamaduni,d,NA,NA,NA,maegoshono,NA,NA,2,NA,NA,NA,NA,NA,NA,NA,NA,NA,NA,NA,NA,NA,NA,NA,NA,NA,NA,NA
7b60e,"""Richtig""-Screen",canvas.Screen,3_0_2_0_2_0_1,NA,NA,skipped,NA,3082889.5999999,NA,NA,3082887,3082889.8,2023-07-11T16:12:43Z,3082897.395,NULL,Kultur,utamaduni,d,NA,NA,NA,NA,sdf,NA,2,NA,NA,NA,NA,NA,NA,NA,NA,NA,NA,NA,NA,NA,NA,NA,NA,NA,NA,NA
7b60e,"""Falsch""-Screen",canvas.Screen,3_0_2_0_2_0_2,NA,NA,timeout,4996.318,3082890.5,3082881.537,3082897.395,3087876.712,3087878.1999998,2023-07-11T16:12:48Z,3087893.713,NULL,Kultur,utamaduni,d,NA,NA,NA,NA,sdf,0,2,NA,NA,NA,NA,NA,NA,NA,NA,NA,NA,NA,NA,NA,NA,NA,NA,NA,NA,NA
7b60e,deep,flow.Sequence,3_0_2_0_2_0,NA,NA,completion,21814.7,3066051.0999999,3066045.125,3066062.012,3087876.712,3087878.6999998,2023-07-11T16:12:48Z,3087893.713,NULL,Kultur,utamaduni,d,NA,NA,NA,NA,sdf,NA,2,NA,NA,NA,NA,NA,NA,NA,NA,NA,NA,NA,NA,NA,NA,NA,NA,NA,NA,NA
7b60e,shallow,flow.Sequence,3_0_2_0_2_1,NA,NA,skipped,NA,3087878.8999999,NA,NA,3087876.712,3087879.0999999,2023-07-11T16:12:48Z,3087893.713,NULL,Kultur,utamaduni,d,NA,NA,NA,NA,sdf,NA,2,NA,NA,NA,NA,NA,NA,NA,NA,NA,NA,NA,NA,NA,NA,NA,NA,NA,NA,NA
7b60e,task,flow.Sequence,3_0_2_0_2,NA,NA,completion,21814.7,3066051.0999999,3066045.125,3066062.012,3087876.712,3087879.3,2023-07-11T16:12:48Z,3087893.713,NULL,Kultur,utamaduni,d,NA,NA,NA,NA,sdf,NA,2,NA,NA,NA,NA,NA,NA,NA,NA,NA,NA,NA,NA,NA,NA,NA,NA,NA,NA,NA
7b60e,deep,flow.Sequence,3_0_2_0_3_0,NA,NA,skipped,NA,3087879.6999998,NA,NA,3087876.712,3087879.8999999,2023-07-11T16:12:48Z,3087893.713,NULL,Polizist,msongora,s,simanzi,mandhari,nidhamu,NA,sdf,NA,2,NA,NA,NA,NA,NA,NA,NA,NA,NA,NA,NA,NA,NA,NA,NA,NA,NA,NA,NA
7b60e,Shallow Question,html.Page,3_0_2_0_3_1_0,NA,NA,form submission,5301.0869999523,3087880,3087876.712,3087893.713,3093194.8,3093195,2023-07-11T16:12:54Z,3093205.82,NULL,Polizist,msongora,s,simanzi,mandhari,nidhamu,msongora,NA,NA,2,NA,NA,NA,NA,NA,NA,NA,NA,NA,NA,NA,NA,NA,NA,NA,NA,NA,NA,NA
7b60e,"""Richtig""-Screen",canvas.Screen,3_0_2_0_3_1_1,NA,NA,timeout,4995.7710000002,3093198.0999999,3093189.041,3093205.82,3098185.315,3098186.3999999,2023-07-11T16:12:59Z,3098201.591,NULL,Polizist,msongora,s,simanzi,mandhari,nidhamu,NA,sdf,1,2,NA,NA,NA,NA,NA,NA,NA,NA,NA,NA,NA,NA,NA,NA,NA,NA,NA,NA,NA
7b60e,"""Falsch""-Screen",canvas.Screen,3_0_2_0_3_1_2,NA,NA,skipped,NA,3098191.6999998,NA,NA,3098185.315,3098192,2023-07-11T16:12:59Z,3098201.591,NULL,Polizist,msongora,s,simanzi,mandhari,nidhamu,NA,sdf,NA,2,NA,NA,NA,NA,NA,NA,NA,NA,NA,NA,NA,NA,NA,NA,NA,NA,NA,NA,NA
7b60e,shallow,flow.Sequence,3_0_2_0_3_1,NA,NA,completion,10291.602,3087879.8999999,3087876.712,3087893.713,3098185.315,3098192.3,2023-07-11T16:12:59Z,3098201.591,NULL,Polizist,msongora,s,simanzi,mandhari,nidhamu,NA,sdf,NA,2,NA,NA,NA,NA,NA,NA,NA,NA,NA,NA,NA,NA,NA,NA,NA,NA,NA,NA,NA
7b60e,task,flow.Sequence,3_0_2_0_3,NA,NA,completion,10291.602,3087879.5,3087876.712,3087893.713,3098185.315,3098192.5,2023-07-11T16:12:59Z,3098201.591,NULL,Polizist,msongora,s,simanzi,mandhari,nidhamu,NA,sdf,NA,2,NA,NA,NA,NA,NA,NA,NA,NA,NA,NA,NA,NA,NA,NA,NA,NA,NA,NA,NA
7b60e,deep,flow.Sequence,3_0_2_0_4_0,NA,NA,skipped,NA,3098192.5999999,NA,NA,3098185.315,3098192.8,2023-07-11T16:12:59Z,3098201.591,NULL,Aufstand,ugomaji,s,mazidio,msingi,kujieleza,NA,sdf,NA,2,NA,NA,NA,NA,NA,NA,NA,NA,NA,NA,NA,NA,NA,NA,NA,NA,NA,NA,NA
7b60e,Shallow Question,html.Page,3_0_2_0_4_1_0,NA,NA,form submission,4394.1089998093,3098193,3098185.315,3098201.591,3102595.6999998,3102596.1999998,2023-07-11T16:13:03Z,3102597.887,NULL,Aufstand,ugomaji,s,mazidio,msingi,kujieleza,ugomaji,NA,NA,2,NA,NA,NA,NA,NA,NA,NA,NA,NA,NA,NA,NA,NA,NA,NA,NA,NA,NA,NA
7b60e,"""Richtig""-Screen",canvas.Screen,3_0_2_0_4_1_1,NA,NA,timeout,4995.9070000001,3102598.8,3102581.819,3102597.887,3107577.805,3107579,2023-07-11T16:13:08Z,3107593.794,NULL,Aufstand,ugomaji,s,mazidio,msingi,kujieleza,NA,sdf,1,2,NA,NA,NA,NA,NA,NA,NA,NA,NA,NA,NA,NA,NA,NA,NA,NA,NA,NA,NA
7b60e,"""Falsch""-Screen",canvas.Screen,3_0_2_0_4_1_2,NA,NA,skipped,NA,3107584.1999998,NA,NA,3107577.805,3107584.5,2023-07-11T16:13:08Z,3107593.794,NULL,Aufstand,ugomaji,s,mazidio,msingi,kujieleza,NA,sdf,NA,2,NA,NA,NA,NA,NA,NA,NA,NA,NA,NA,NA,NA,NA,NA,NA,NA,NA,NA,NA
7b60e,shallow,flow.Sequence,3_0_2_0_4_1,NA,NA,completion,9376.2140000002,3098193,3098185.315,3098201.591,3107577.805,3107584.8999999,2023-07-11T16:13:08Z,3107593.794,NULL,Aufstand,ugomaji,s,mazidio,msingi,kujieleza,NA,sdf,NA,2,NA,NA,NA,NA,NA,NA,NA,NA,NA,NA,NA,NA,NA,NA,NA,NA,NA,NA,NA
7b60e,task,flow.Sequence,3_0_2_0_4,NA,NA,completion,9376.2140000002,3098192.5999999,3098185.315,3098201.591,3107577.805,3107585.0999999,2023-07-11T16:13:08Z,3107593.794,NULL,Aufstand,ugomaji,s,mazidio,msingi,kujieleza,NA,sdf,NA,2,NA,NA,NA,NA,NA,NA,NA,NA,NA,NA,NA,NA,NA,NA,NA,NA,NA,NA,NA
7b60e,deep,flow.Sequence,3_0_2_0_5_0,NA,NA,skipped,NA,3107585.1999998,NA,NA,3107577.805,3107585.5,2023-07-11T16:13:08Z,3107593.794,NULL,Prüfung,mtihani,s,mkulima,mtizamo,ufumbuzi,NA,sdf,NA,2,NA,NA,NA,NA,NA,NA,NA,NA,NA,NA,NA,NA,NA,NA,NA,NA,NA,NA,NA
7b60e,Shallow Question,html.Page,3_0_2_0_5_1_0,NA,NA,form submission,5761.5059999521,3107585.5999999,3107577.805,3107593.794,3113355.3,3113355.8999999,2023-07-11T16:13:14Z,3113355.792,NULL,Prüfung,mtihani,s,mkulima,mtizamo,ufumbuzi,mtihani,NA,NA,2,NA,NA,NA,NA,NA,NA,NA,NA,NA,NA,NA,NA,NA,NA,NA,NA,NA,NA,NA
7b60e,"""Richtig""-Screen",canvas.Screen,3_0_2_0_5_1_1,NA,NA,timeout,4996.5830000001,3113361.8,3113339.64,3113355.792,3118335.626,3118336.8999999,2023-07-11T16:13:19Z,3118352.375,NULL,Prüfung,mtihani,s,mkulima,mtizamo,ufumbuzi,NA,sdf,1,2,NA,NA,NA,NA,NA,NA,NA,NA,NA,NA,NA,NA,NA,NA,NA,NA,NA,NA,NA
7b60e,"""Falsch""-Screen",canvas.Screen,3_0_2_0_5_1_2,NA,NA,skipped,NA,3118341.3999999,NA,NA,3118335.626,3118341.5999999,2023-07-11T16:13:19Z,3118352.375,NULL,Prüfung,mtihani,s,mkulima,mtizamo,ufumbuzi,NA,sdf,NA,2,NA,NA,NA,NA,NA,NA,NA,NA,NA,NA,NA,NA,NA,NA,NA,NA,NA,NA,NA
7b60e,shallow,flow.Sequence,3_0_2_0_5_1,NA,NA,completion,10741.832,3107585.5,3107577.805,3107593.794,3118335.626,3118341.6999998,2023-07-11T16:13:19Z,3118352.375,NULL,Prüfung,mtihani,s,mkulima,mtizamo,ufumbuzi,NA,sdf,NA,2,NA,NA,NA,NA,NA,NA,NA,NA,NA,NA,NA,NA,NA,NA,NA,NA,NA,NA,NA
7b60e,task,flow.Sequence,3_0_2_0_5,NA,NA,completion,10741.832,3107585.1999998,3107577.805,3107593.794,3118335.626,3118341.8,2023-07-11T16:13:19Z,3118352.375,NULL,Prüfung,mtihani,s,mkulima,mtizamo,ufumbuzi,NA,sdf,NA,2,NA,NA,NA,NA,NA,NA,NA,NA,NA,NA,NA,NA,NA,NA,NA,NA,NA,NA,NA
7b60e,Deep Question,html.Page,3_0_2_0_6_0_0,NA,NA,form submission,10716.524999857,3118341.8,3118335.626,3118352.375,3129068.8999999,3129069.3999999,2023-07-11T16:13:30Z,3129076.163,NULL,Annäherung,maegesho,d,NA,NA,NA,maegoshono,NA,NA,2,NA,NA,NA,NA,NA,NA,NA,NA,NA,NA,NA,NA,NA,NA,NA,NA,NA,NA,NA
7b60e,"""Richtig""-Screen",canvas.Screen,3_0_2_0_6_0_1,NA,NA,skipped,NA,3129076.0999999,NA,NA,3129068.8999999,3129076.6999998,2023-07-11T16:13:30Z,3129076.163,NULL,Annäherung,maegesho,d,NA,NA,NA,NA,sdf,NA,2,NA,NA,NA,NA,NA,NA,NA,NA,NA,NA,NA,NA,NA,NA,NA,NA,NA,NA,NA
7b60e,"""Falsch""-Screen",canvas.Screen,3_0_2_0_6_0_2,NA,NA,timeout,4996.5409999997,3129079.0999999,3129060.161,3129076.163,3134056.008,3134056.6999998,2023-07-11T16:13:35Z,3134072.704,NULL,Annäherung,maegesho,d,NA,NA,NA,NA,sdf,0,2,NA,NA,NA,NA,NA,NA,NA,NA,NA,NA,NA,NA,NA,NA,NA,NA,NA,NA,NA
7b60e,deep,flow.Sequence,3_0_2_0_6_0,NA,NA,completion,15703.633,3118341.8,3118335.626,3118352.375,3134056.008,3134056.8,2023-07-11T16:13:35Z,3134072.704,NULL,Annäherung,maegesho,d,NA,NA,NA,NA,sdf,NA,2,NA,NA,NA,NA,NA,NA,NA,NA,NA,NA,NA,NA,NA,NA,NA,NA,NA,NA,NA
7b60e,shallow,flow.Sequence,3_0_2_0_6_1,NA,NA,skipped,NA,3134057,NA,NA,3134056.008,3134057.0999999,2023-07-11T16:13:35Z,3134072.704,NULL,Annäherung,maegesho,d,NA,NA,NA,NA,sdf,NA,2,NA,NA,NA,NA,NA,NA,NA,NA,NA,NA,NA,NA,NA,NA,NA,NA,NA,NA,NA
7b60e,task,flow.Sequence,3_0_2_0_6,NA,NA,completion,15703.633,3118341.8,3118335.626,3118352.375,3134056.008,3134057.0999999,2023-07-11T16:13:35Z,3134072.704,NULL,Annäherung,maegesho,d,NA,NA,NA,NA,sdf,NA,2,NA,NA,NA,NA,NA,NA,NA,NA,NA,NA,NA,NA,NA,NA,NA,NA,NA,NA,NA
7b60e,Deep Question,html.Page,3_0_2_0_7_0_0,NA,NA,form submission,13407.395999905,3134057.1999998,3134056.008,3134072.704,3147480.0999999,3147480.3,2023-07-11T16:13:48Z,3147494.727,NULL,Sympathie,mapendano,d,NA,NA,NA,kushewe,NA,NA,2,NA,NA,NA,NA,NA,NA,NA,NA,NA,NA,NA,NA,NA,NA,NA,NA,NA,NA,NA
7b60e,"""Richtig""-Screen",canvas.Screen,3_0_2_0_7_0_1,NA,NA,skipped,NA,3147482.8999999,NA,NA,3147480.0999999,3147483.0999999,2023-07-11T16:13:48Z,3147494.727,NULL,Sympathie,mapendano,d,NA,NA,NA,NA,sdf,NA,2,NA,NA,NA,NA,NA,NA,NA,NA,NA,NA,NA,NA,NA,NA,NA,NA,NA,NA,NA
7b60e,"""Falsch""-Screen",canvas.Screen,3_0_2_0_7_0_2,NA,NA,timeout,4995.9960000003,3147484,3147477.999,3147494.727,3152474.262,3152474.8,2023-07-11T16:13:53Z,3152490.723,NULL,Sympathie,mapendano,d,NA,NA,NA,NA,sdf,0,2,NA,NA,NA,NA,NA,NA,NA,NA,NA,NA,NA,NA,NA,NA,NA,NA,NA,NA,NA
7b60e,deep,flow.Sequence,3_0_2_0_7_0,NA,NA,completion,18401.558,3134057.1999998,3134056.008,3134072.704,3152474.262,3152475,2023-07-11T16:13:53Z,3152490.723,NULL,Sympathie,mapendano,d,NA,NA,NA,NA,sdf,NA,2,NA,NA,NA,NA,NA,NA,NA,NA,NA,NA,NA,NA,NA,NA,NA,NA,NA,NA,NA
7b60e,shallow,flow.Sequence,3_0_2_0_7_1,NA,NA,skipped,NA,3152475.0999999,NA,NA,3152474.262,3152475.0999999,2023-07-11T16:13:53Z,3152490.723,NULL,Sympathie,mapendano,d,NA,NA,NA,NA,sdf,NA,2,NA,NA,NA,NA,NA,NA,NA,NA,NA,NA,NA,NA,NA,NA,NA,NA,NA,NA,NA
7b60e,task,flow.Sequence,3_0_2_0_7,NA,NA,completion,18401.558,3134057.0999999,3134056.008,3134072.704,3152474.262,3152475.1999998,2023-07-11T16:13:53Z,3152490.723,NULL,Sympathie,mapendano,d,NA,NA,NA,NA,sdf,NA,2,NA,NA,NA,NA,NA,NA,NA,NA,NA,NA,NA,NA,NA,NA,NA,NA,NA,NA,NA
7b60e,block,flow.Loop,3_0_2_0,NA,NA,completion,120235.221,3032249.0999999,3032205.846,3032239.041,3152474.262,3152475.3,2023-07-11T16:13:53Z,3152490.723,NULL,NA,NA,NA,NA,NA,NA,NA,sdf,NA,2,NA,NA,NA,NA,NA,NA,NA,NA,NA,NA,NA,NA,NA,NA,NA,NA,NA,NA,NA
7b60e,weiter,canvas.Screen,3_0_2_1,sdf,keypress(Space),response,1110.976999809,3152475.3,3152474.262,3152490.723,3153601.6999998,3153602.5999999,2023-07-11T16:13:54Z,3153655.894,NULL,NA,NA,NA,NA,NA,NA,NA,sdf,NA,2,NA,NA,NA,NA,NA,NA,NA,NA,NA,NA,NA,NA,NA,NA,NA,NA,NA,NA,NA
7b60e,check continue,flow.Sequence,3_0_2,NA,NA,completion,121362.65899981,3032249.0999999,3032205.846,3032239.041,3153601.6999998,3153603,2023-07-11T16:13:54Z,3153655.894,NULL,NA,NA,NA,NA,NA,NA,NA,sdf,NA,2,NA,NA,NA,NA,NA,NA,NA,NA,NA,NA,NA,NA,NA,NA,NA,NA,NA,NA,NA
7b60e,Deep Question,html.Page,3_0_3_0_0_0_0,NA,NA,form submission,6546.7059999048,3153648.8999999,3153639.256,3153655.894,3160202.5999999,3160202.8999999,2023-07-11T16:14:01Z,3160234.46,NULL,Sympathie,mapendano,d,NA,NA,NA,mapendano,NA,NA,3,NA,NA,NA,NA,NA,NA,NA,NA,NA,NA,NA,NA,NA,NA,NA,NA,NA,NA,NA
7b60e,"""Richtig""-Screen",canvas.Screen,3_0_3_0_0_0_1,NA,NA,timeout,4995.2990000001,3160205.3999999,3160217.812,3160234.46,3165213.175,3165214.0999999,2023-07-11T16:14:06Z,3165229.759,NULL,Sympathie,mapendano,d,NA,NA,NA,NA,qt,1,3,NA,NA,NA,NA,NA,NA,NA,NA,NA,NA,NA,NA,NA,NA,NA,NA,NA,NA,NA
7b60e,"""Falsch""-Screen",canvas.Screen,3_0_3_0_0_0_2,NA,NA,skipped,NA,3165219.6999998,NA,NA,3165213.175,3165220.0999999,2023-07-11T16:14:06Z,3165229.759,NULL,Sympathie,mapendano,d,NA,NA,NA,NA,qt,NA,3,NA,NA,NA,NA,NA,NA,NA,NA,NA,NA,NA,NA,NA,NA,NA,NA,NA,NA,NA
7b60e,deep,flow.Sequence,3_0_3_0_0_0,NA,NA,completion,11557.281,3153648.8999999,3153639.256,3153655.894,3165213.175,3165220.3999999,2023-07-11T16:14:06Z,3165229.759,NULL,Sympathie,mapendano,d,NA,NA,NA,NA,qt,NA,3,NA,NA,NA,NA,NA,NA,NA,NA,NA,NA,NA,NA,NA,NA,NA,NA,NA,NA,NA
7b60e,shallow,flow.Sequence,3_0_3_0_0_1,NA,NA,skipped,NA,3165220.5,NA,NA,3165213.175,3165220.6999998,2023-07-11T16:14:06Z,3165229.759,NULL,Sympathie,mapendano,d,NA,NA,NA,NA,qt,NA,3,NA,NA,NA,NA,NA,NA,NA,NA,NA,NA,NA,NA,NA,NA,NA,NA,NA,NA,NA
7b60e,task,flow.Sequence,3_0_3_0_0,NA,NA,completion,11557.281,3153648.8999999,3153639.256,3153655.894,3165213.175,3165221,2023-07-11T16:14:06Z,3165229.759,NULL,Sympathie,mapendano,d,NA,NA,NA,NA,qt,NA,3,NA,NA,NA,NA,NA,NA,NA,NA,NA,NA,NA,NA,NA,NA,NA,NA,NA,NA,NA
7b60e,Deep Question,html.Page,3_0_3_0_1_0_0,NA,NA,form submission,14373.840999905,3165221.3999999,3165213.175,3165229.759,3179603.5999999,3179604.0999999,2023-07-11T16:14:20Z,3179617.98,NULL,Verzögerung,kuchelewa,d,NA,NA,NA,kushetowa,NA,NA,3,NA,NA,NA,NA,NA,NA,NA,NA,NA,NA,NA,NA,NA,NA,NA,NA,NA,NA,NA
7b60e,"""Richtig""-Screen",canvas.Screen,3_0_3_0_1_0_1,NA,NA,skipped,NA,3179611.3999999,NA,NA,3179603.5999999,3179611.8999999,2023-07-11T16:14:20Z,3179617.98,NULL,Verzögerung,kuchelewa,d,NA,NA,NA,NA,qt,NA,3,NA,NA,NA,NA,NA,NA,NA,NA,NA,NA,NA,NA,NA,NA,NA,NA,NA,NA,NA
7b60e,"""Falsch""-Screen",canvas.Screen,3_0_3_0_1_0_2,NA,NA,timeout,4996.2770000002,3179614.5,3179601.473,3179617.98,3184597.552,3184598.1999998,2023-07-11T16:14:25Z,3184614.257,NULL,Verzögerung,kuchelewa,d,NA,NA,NA,NA,qt,0,3,NA,NA,NA,NA,NA,NA,NA,NA,NA,NA,NA,NA,NA,NA,NA,NA,NA,NA,NA
7b60e,deep,flow.Sequence,3_0_3_0_1_0,NA,NA,completion,19367.793,3165221.3,3165213.175,3165229.759,3184597.552,3184598.5,2023-07-11T16:14:25Z,3184614.257,NULL,Verzögerung,kuchelewa,d,NA,NA,NA,NA,qt,NA,3,NA,NA,NA,NA,NA,NA,NA,NA,NA,NA,NA,NA,NA,NA,NA,NA,NA,NA,NA
7b60e,shallow,flow.Sequence,3_0_3_0_1_1,NA,NA,skipped,NA,3184598.5,NA,NA,3184597.552,3184598.6999998,2023-07-11T16:14:25Z,3184614.257,NULL,Verzögerung,kuchelewa,d,NA,NA,NA,NA,qt,NA,3,NA,NA,NA,NA,NA,NA,NA,NA,NA,NA,NA,NA,NA,NA,NA,NA,NA,NA,NA
7b60e,task,flow.Sequence,3_0_3_0_1,NA,NA,completion,19367.793,3165221.3,3165213.175,3165229.759,3184597.552,3184598.8,2023-07-11T16:14:25Z,3184614.257,NULL,Verzögerung,kuchelewa,d,NA,NA,NA,NA,qt,NA,3,NA,NA,NA,NA,NA,NA,NA,NA,NA,NA,NA,NA,NA,NA,NA,NA,NA,NA,NA
7b60e,Deep Question,html.Page,3_0_3_0_2_0_0,NA,NA,form submission,10250.142999857,3184598.8999999,3184597.552,3184614.257,3194864.3999999,3194864.5999999,2023-07-11T16:14:35Z,3194872.02,NULL,Kultur,utamaduni,d,NA,NA,NA,ushatego,NA,NA,3,NA,NA,NA,NA,NA,NA,NA,NA,NA,NA,NA,NA,NA,NA,NA,NA,NA,NA,NA
7b60e,"""Richtig""-Screen",canvas.Screen,3_0_3_0_2_0_1,NA,NA,skipped,NA,3194866.3999999,NA,NA,3194864.3999999,3194866.5999999,2023-07-11T16:14:35Z,3194872.02,NULL,Kultur,utamaduni,d,NA,NA,NA,NA,qt,NA,3,NA,NA,NA,NA,NA,NA,NA,NA,NA,NA,NA,NA,NA,NA,NA,NA,NA,NA,NA
7b60e,"""Falsch""-Screen",canvas.Screen,3_0_3_0_2_0_2,NA,NA,timeout,4995.9929999998,3194867.1999998,3194855.497,3194872.02,3199851.72,3199852.6999998,2023-07-11T16:14:40Z,3199868.013,NULL,Kultur,utamaduni,d,NA,NA,NA,NA,qt,0,3,NA,NA,NA,NA,NA,NA,NA,NA,NA,NA,NA,NA,NA,NA,NA,NA,NA,NA,NA
7b60e,deep,flow.Sequence,3_0_3_0_2_0,NA,NA,completion,15237.463,3184598.8999999,3184597.552,3184614.257,3199851.72,3199853.0999999,2023-07-11T16:14:40Z,3199868.013,NULL,Kultur,utamaduni,d,NA,NA,NA,NA,qt,NA,3,NA,NA,NA,NA,NA,NA,NA,NA,NA,NA,NA,NA,NA,NA,NA,NA,NA,NA,NA
7b60e,shallow,flow.Sequence,3_0_3_0_2_1,NA,NA,skipped,NA,3199853.3,NA,NA,3199851.72,3199853.5,2023-07-11T16:14:40Z,3199868.013,NULL,Kultur,utamaduni,d,NA,NA,NA,NA,qt,NA,3,NA,NA,NA,NA,NA,NA,NA,NA,NA,NA,NA,NA,NA,NA,NA,NA,NA,NA,NA
7b60e,task,flow.Sequence,3_0_3_0_2,NA,NA,completion,15237.463,3184598.8999999,3184597.552,3184614.257,3199851.72,3199853.6999998,2023-07-11T16:14:40Z,3199868.013,NULL,Kultur,utamaduni,d,NA,NA,NA,NA,qt,NA,3,NA,NA,NA,NA,NA,NA,NA,NA,NA,NA,NA,NA,NA,NA,NA,NA,NA,NA,NA
7b60e,deep,flow.Sequence,3_0_3_0_3_0,NA,NA,skipped,NA,3199855.1999998,NA,NA,3199851.72,3199855.3999999,2023-07-11T16:14:40Z,3199868.013,NULL,Beweis,ushahidi,s,marudio,kizuizi,mtendaji,NA,qt,NA,3,NA,NA,NA,NA,NA,NA,NA,NA,NA,NA,NA,NA,NA,NA,NA,NA,NA,NA,NA
7b60e,Shallow Question,html.Page,3_0_3_0_3_1_0,NA,NA,form submission,6414.8869998571,3199855.5999999,3199851.72,3199868.013,3206282.8999999,3206283.3,2023-07-11T16:14:47Z,3206295.998,NULL,Beweis,ushahidi,s,marudio,kizuizi,mtendaji,ushahidi,NA,NA,3,NA,NA,NA,NA,NA,NA,NA,NA,NA,NA,NA,NA,NA,NA,NA,NA,NA,NA,NA
7b60e,"""Richtig""-Screen",canvas.Screen,3_0_3_0_3_1_1,NA,NA,timeout,4995.9350000001,3206285.6999998,3206279.904,3206295.998,3211275.46,3211276.5,2023-07-11T16:14:52Z,3211291.933,NULL,Beweis,ushahidi,s,marudio,kizuizi,mtendaji,NA,qt,1,3,NA,NA,NA,NA,NA,NA,NA,NA,NA,NA,NA,NA,NA,NA,NA,NA,NA,NA,NA
7b60e,"""Falsch""-Screen",canvas.Screen,3_0_3_0_3_1_2,NA,NA,skipped,NA,3211281.8,NA,NA,3211275.46,3211282.0999999,2023-07-11T16:14:52Z,3211291.933,NULL,Beweis,ushahidi,s,marudio,kizuizi,mtendaji,NA,qt,NA,3,NA,NA,NA,NA,NA,NA,NA,NA,NA,NA,NA,NA,NA,NA,NA,NA,NA,NA,NA
7b60e,shallow,flow.Sequence,3_0_3_0_3_1,NA,NA,completion,11407.447,3199855.5999999,3199851.72,3199868.013,3211275.46,3211282.5,2023-07-11T16:14:52Z,3211291.933,NULL,Beweis,ushahidi,s,marudio,kizuizi,mtendaji,NA,qt,NA,3,NA,NA,NA,NA,NA,NA,NA,NA,NA,NA,NA,NA,NA,NA,NA,NA,NA,NA,NA
7b60e,task,flow.Sequence,3_0_3_0_3,NA,NA,completion,11407.447,3199855,3199851.72,3199868.013,3211275.46,3211282.8,2023-07-11T16:14:52Z,3211291.933,NULL,Beweis,ushahidi,s,marudio,kizuizi,mtendaji,NA,qt,NA,3,NA,NA,NA,NA,NA,NA,NA,NA,NA,NA,NA,NA,NA,NA,NA,NA,NA,NA,NA
7b60e,deep,flow.Sequence,3_0_3_0_4_0,NA,NA,skipped,NA,3211283,NA,NA,3211275.46,3211283.1999998,2023-07-11T16:14:52Z,3211291.933,NULL,Aufstand,ugomaji,s,mazidio,msingi,kujieleza,NA,qt,NA,3,NA,NA,NA,NA,NA,NA,NA,NA,NA,NA,NA,NA,NA,NA,NA,NA,NA,NA,NA
7b60e,Shallow Question,html.Page,3_0_3_0_4_1_0,NA,NA,form submission,4949.3669999521,3211283.3,3211275.46,3211291.933,3216241.3,3216241.6999998,2023-07-11T16:14:57Z,3216254.876,NULL,Aufstand,ugomaji,s,mazidio,msingi,kujieleza,ugomaji,NA,NA,3,NA,NA,NA,NA,NA,NA,NA,NA,NA,NA,NA,NA,NA,NA,NA,NA,NA,NA,NA
7b60e,"""Richtig""-Screen",canvas.Screen,3_0_3_0_4_1_1,NA,NA,timeout,4995.9449999998,3216245.0999999,3216238.371,3216254.876,3221234.267,3221235.0999999,2023-07-11T16:15:02Z,3221250.821,NULL,Aufstand,ugomaji,s,mazidio,msingi,kujieleza,NA,qt,1,3,NA,NA,NA,NA,NA,NA,NA,NA,NA,NA,NA,NA,NA,NA,NA,NA,NA,NA,NA
7b60e,"""Falsch""-Screen",canvas.Screen,3_0_3_0_4_1_2,NA,NA,skipped,NA,3221238.5,NA,NA,3221234.267,3221238.8,2023-07-11T16:15:02Z,3221250.821,NULL,Aufstand,ugomaji,s,mazidio,msingi,kujieleza,NA,qt,NA,3,NA,NA,NA,NA,NA,NA,NA,NA,NA,NA,NA,NA,NA,NA,NA,NA,NA,NA,NA
7b60e,shallow,flow.Sequence,3_0_3_0_4_1,NA,NA,completion,9942.3339999998,3211283.3,3211275.46,3211291.933,3221234.267,3221239,2023-07-11T16:15:02Z,3221250.821,NULL,Aufstand,ugomaji,s,mazidio,msingi,kujieleza,NA,qt,NA,3,NA,NA,NA,NA,NA,NA,NA,NA,NA,NA,NA,NA,NA,NA,NA,NA,NA,NA,NA
7b60e,task,flow.Sequence,3_0_3_0_4,NA,NA,completion,9942.3339999998,3211283,3211275.46,3211291.933,3221234.267,3221239.1999998,2023-07-11T16:15:02Z,3221250.821,NULL,Aufstand,ugomaji,s,mazidio,msingi,kujieleza,NA,qt,NA,3,NA,NA,NA,NA,NA,NA,NA,NA,NA,NA,NA,NA,NA,NA,NA,NA,NA,NA,NA
7b60e,deep,flow.Sequence,3_0_3_0_5_0,NA,NA,skipped,NA,3221239.3,NA,NA,3221234.267,3221239.3999999,2023-07-11T16:15:02Z,3221250.821,NULL,Polizist,msongora,s,simanzi,mandhari,nidhamu,NA,qt,NA,3,NA,NA,NA,NA,NA,NA,NA,NA,NA,NA,NA,NA,NA,NA,NA,NA,NA,NA,NA
7b60e,Shallow Question,html.Page,3_0_3_0_5_1_0,NA,NA,form submission,4521.578999857,3221239.5,3221234.267,3221250.821,3225772.3999999,3225772.8,2023-07-11T16:15:06Z,3225780.041,NULL,Polizist,msongora,s,simanzi,mandhari,nidhamu,msongora,NA,NA,3,NA,NA,NA,NA,NA,NA,NA,NA,NA,NA,NA,NA,NA,NA,NA,NA,NA,NA,NA
7b60e,"""Richtig""-Screen",canvas.Screen,3_0_3_0_5_1_1,NA,NA,timeout,4995.7889999999,3225777.8,3225763.646,3225780.041,3230759.171,3230760.1999998,2023-07-11T16:15:11Z,3230775.83,NULL,Polizist,msongora,s,simanzi,mandhari,nidhamu,NA,qt,1,3,NA,NA,NA,NA,NA,NA,NA,NA,NA,NA,NA,NA,NA,NA,NA,NA,NA,NA,NA
7b60e,"""Falsch""-Screen",canvas.Screen,3_0_3_0_5_1_2,NA,NA,skipped,NA,3230762.3,NA,NA,3230759.171,3230762.5,2023-07-11T16:15:11Z,3230775.83,NULL,Polizist,msongora,s,simanzi,mandhari,nidhamu,NA,qt,NA,3,NA,NA,NA,NA,NA,NA,NA,NA,NA,NA,NA,NA,NA,NA,NA,NA,NA,NA,NA
7b60e,shallow,flow.Sequence,3_0_3_0_5_1,NA,NA,completion,9508.3500000001,3221239.3999999,3221234.267,3221250.821,3230759.171,3230762.6999998,2023-07-11T16:15:11Z,3230775.83,NULL,Polizist,msongora,s,simanzi,mandhari,nidhamu,NA,qt,NA,3,NA,NA,NA,NA,NA,NA,NA,NA,NA,NA,NA,NA,NA,NA,NA,NA,NA,NA,NA
7b60e,task,flow.Sequence,3_0_3_0_5,NA,NA,completion,9508.3500000001,3221239.3,3221234.267,3221250.821,3230759.171,3230762.8999999,2023-07-11T16:15:11Z,3230775.83,NULL,Polizist,msongora,s,simanzi,mandhari,nidhamu,NA,qt,NA,3,NA,NA,NA,NA,NA,NA,NA,NA,NA,NA,NA,NA,NA,NA,NA,NA,NA,NA,NA
7b60e,Deep Question,html.Page,3_0_3_0_6_0_0,NA,NA,form submission,13713.17,3230763,3230759.171,3230775.83,3244489,3244489.3999999,2023-07-11T16:15:25Z,3244498.01,NULL,Annäherung,maegesho,d,NA,NA,NA,maegosho,NA,NA,3,NA,NA,NA,NA,NA,NA,NA,NA,NA,NA,NA,NA,NA,NA,NA,NA,NA,NA,NA
7b60e,"""Richtig""-Screen",canvas.Screen,3_0_3_0_6_0_1,NA,NA,skipped,NA,3244492.8,NA,NA,3244489,3244493,2023-07-11T16:15:25Z,3244498.01,NULL,Annäherung,maegesho,d,NA,NA,NA,NA,qt,NA,3,NA,NA,NA,NA,NA,NA,NA,NA,NA,NA,NA,NA,NA,NA,NA,NA,NA,NA,NA
7b60e,"""Falsch""-Screen",canvas.Screen,3_0_3_0_6_0_2,NA,NA,timeout,4996.1600000001,3244493.5,3244481.691,3244498.01,3249477.417,3249478.5,2023-07-11T16:15:30Z,3249494.17,NULL,Annäherung,maegesho,d,NA,NA,NA,NA,qt,0,3,NA,NA,NA,NA,NA,NA,NA,NA,NA,NA,NA,NA,NA,NA,NA,NA,NA,NA,NA
7b60e,deep,flow.Sequence,3_0_3_0_6_0,NA,NA,completion,18701.587,3230763,3230759.171,3230775.83,3249477.417,3249478.8999999,2023-07-11T16:15:30Z,3249494.17,NULL,Annäherung,maegesho,d,NA,NA,NA,NA,qt,NA,3,NA,NA,NA,NA,NA,NA,NA,NA,NA,NA,NA,NA,NA,NA,NA,NA,NA,NA,NA
7b60e,shallow,flow.Sequence,3_0_3_0_6_1,NA,NA,skipped,NA,3249479.0999999,NA,NA,3249477.417,3249479.1999998,2023-07-11T16:15:30Z,3249494.17,NULL,Annäherung,maegesho,d,NA,NA,NA,NA,qt,NA,3,NA,NA,NA,NA,NA,NA,NA,NA,NA,NA,NA,NA,NA,NA,NA,NA,NA,NA,NA
7b60e,task,flow.Sequence,3_0_3_0_6,NA,NA,completion,18701.587,3230763,3230759.171,3230775.83,3249477.417,3249479.5,2023-07-11T16:15:30Z,3249494.17,NULL,Annäherung,maegesho,d,NA,NA,NA,NA,qt,NA,3,NA,NA,NA,NA,NA,NA,NA,NA,NA,NA,NA,NA,NA,NA,NA,NA,NA,NA,NA
7b60e,deep,flow.Sequence,3_0_3_0_7_0,NA,NA,skipped,NA,3249479.6999998,NA,NA,3249477.417,3249479.8,2023-07-11T16:15:30Z,3249494.17,NULL,Prüfung,mtihani,s,mkulima,mtizamo,ufumbuzi,NA,qt,NA,3,NA,NA,NA,NA,NA,NA,NA,NA,NA,NA,NA,NA,NA,NA,NA,NA,NA,NA,NA
7b60e,Shallow Question,html.Page,3_0_3_0_7_1_0,NA,NA,form submission,8579.8300000001,3249480,3249477.417,3249494.17,3258074,3258074.5999999,2023-07-11T16:15:39Z,3258087.116,NULL,Prüfung,mtihani,s,mkulima,mtizamo,ufumbuzi,mtihani,NA,NA,3,NA,NA,NA,NA,NA,NA,NA,NA,NA,NA,NA,NA,NA,NA,NA,NA,NA,NA,NA
7b60e,"""Richtig""-Screen",canvas.Screen,3_0_3_0_7_1_1,NA,NA,timeout,4995.5380000002,3258076.3999999,3258070.739,3258087.116,3263066.065,3263067.0999999,2023-07-11T16:15:44Z,3263082.654,NULL,Prüfung,mtihani,s,mkulima,mtizamo,ufumbuzi,NA,qt,1,3,NA,NA,NA,NA,NA,NA,NA,NA,NA,NA,NA,NA,NA,NA,NA,NA,NA,NA,NA
7b60e,"""Falsch""-Screen",canvas.Screen,3_0_3_0_7_1_2,NA,NA,skipped,NA,3263070.8,NA,NA,3263066.065,3263071.0999999,2023-07-11T16:15:44Z,3263082.654,NULL,Prüfung,mtihani,s,mkulima,mtizamo,ufumbuzi,NA,qt,NA,3,NA,NA,NA,NA,NA,NA,NA,NA,NA,NA,NA,NA,NA,NA,NA,NA,NA,NA,NA
7b60e,shallow,flow.Sequence,3_0_3_0_7_1,NA,NA,completion,13571.895,3249479.8999999,3249477.417,3249494.17,3263066.065,3263071.3999999,2023-07-11T16:15:44Z,3263082.654,NULL,Prüfung,mtihani,s,mkulima,mtizamo,ufumbuzi,NA,qt,NA,3,NA,NA,NA,NA,NA,NA,NA,NA,NA,NA,NA,NA,NA,NA,NA,NA,NA,NA,NA
7b60e,task,flow.Sequence,3_0_3_0_7,NA,NA,completion,13571.895,3249479.5999999,3249477.417,3249494.17,3263066.065,3263071.3999999,2023-07-11T16:15:44Z,3263082.654,NULL,Prüfung,mtihani,s,mkulima,mtizamo,ufumbuzi,NA,qt,NA,3,NA,NA,NA,NA,NA,NA,NA,NA,NA,NA,NA,NA,NA,NA,NA,NA,NA,NA,NA
7b60e,block,flow.Loop,3_0_3_0,NA,NA,completion,109410.171,3153648.8999999,3153639.256,3153655.894,3263066.065,3263071.8,2023-07-11T16:15:44Z,3263082.654,NULL,NA,NA,NA,NA,NA,NA,NA,qt,NA,3,NA,NA,NA,NA,NA,NA,NA,NA,NA,NA,NA,NA,NA,NA,NA,NA,NA,NA,NA
7b60e,weiter,canvas.Screen,3_0_3_1,sdf,keypress(Space),response,1150.5459998092,3263071.8999999,3263066.065,3263082.654,3264233.1999998,3264234.5999999,2023-07-11T16:15:45Z,3264264.983,NULL,NA,NA,NA,NA,NA,NA,NA,qt,NA,3,NA,NA,NA,NA,NA,NA,NA,NA,NA,NA,NA,NA,NA,NA,NA,NA,NA,NA,NA
7b60e,check continue,flow.Sequence,3_0_3,NA,NA,completion,110577.30599981,3153648.8,3153639.256,3153655.894,3264233.1999998,3264235,2023-07-11T16:15:45Z,3264264.983,NULL,NA,NA,NA,NA,NA,NA,NA,qt,NA,3,NA,NA,NA,NA,NA,NA,NA,NA,NA,NA,NA,NA,NA,NA,NA,NA,NA,NA,NA
7b60e,deep,flow.Sequence,3_0_4_0_0_0,NA,NA,skipped,NA,3264270.6999998,NA,NA,3264233.1999998,3264270.8,2023-07-11T16:15:45Z,3264264.983,NULL,Beweis,ushahidi,s,marudio,kizuizi,mtendaji,NA,sd,NA,4,NA,NA,NA,NA,NA,NA,NA,NA,NA,NA,NA,NA,NA,NA,NA,NA,NA,NA,NA
7b60e,Shallow Question,html.Page,3_0_4_0_0_1_0,NA,NA,form submission,5372.3169999523,3264270.8999999,3264231.754,3264264.983,3269637.3,3269637.6999998,2023-07-11T16:15:50Z,3269643.871,NULL,Beweis,ushahidi,s,marudio,kizuizi,mtendaji,ushahidi,NA,NA,4,NA,NA,NA,NA,NA,NA,NA,NA,NA,NA,NA,NA,NA,NA,NA,NA,NA,NA,NA
7b60e,"""Richtig""-Screen",canvas.Screen,3_0_4_0_0_1_1,NA,NA,timeout,4995.946,3269641.6999998,3269627.665,3269643.871,3274623.699,3274624.6999998,2023-07-11T16:15:55Z,3274639.817,NULL,Beweis,ushahidi,s,marudio,kizuizi,mtendaji,NA,sd,1,4,NA,NA,NA,NA,NA,NA,NA,NA,NA,NA,NA,NA,NA,NA,NA,NA,NA,NA,NA
7b60e,"""Falsch""-Screen",canvas.Screen,3_0_4_0_0_1_2,NA,NA,skipped,NA,3274629.8999999,NA,NA,3274623.699,3274630.3999999,2023-07-11T16:15:55Z,3274639.817,NULL,Beweis,ushahidi,s,marudio,kizuizi,mtendaji,NA,sd,NA,4,NA,NA,NA,NA,NA,NA,NA,NA,NA,NA,NA,NA,NA,NA,NA,NA,NA,NA,NA
7b60e,shallow,flow.Sequence,3_0_4_0_0_1,NA,NA,completion,10358.716,3264270.8999999,3264231.754,3264264.983,3274623.699,3274630.5999999,2023-07-11T16:15:55Z,3274639.817,NULL,Beweis,ushahidi,s,marudio,kizuizi,mtendaji,NA,sd,NA,4,NA,NA,NA,NA,NA,NA,NA,NA,NA,NA,NA,NA,NA,NA,NA,NA,NA,NA,NA
7b60e,task,flow.Sequence,3_0_4_0_0,NA,NA,completion,10358.716,3264270.6999998,3264231.754,3264264.983,3274623.699,3274630.8999999,2023-07-11T16:15:55Z,3274639.817,NULL,Beweis,ushahidi,s,marudio,kizuizi,mtendaji,NA,sd,NA,4,NA,NA,NA,NA,NA,NA,NA,NA,NA,NA,NA,NA,NA,NA,NA,NA,NA,NA,NA
7b60e,deep,flow.Sequence,3_0_4_0_1_0,NA,NA,skipped,NA,3274631.0999999,NA,NA,3274623.699,3274631.1999998,2023-07-11T16:15:55Z,3274639.817,NULL,Prüfung,mtihani,s,mkulima,mtizamo,ufumbuzi,NA,sd,NA,4,NA,NA,NA,NA,NA,NA,NA,NA,NA,NA,NA,NA,NA,NA,NA,NA,NA,NA,NA
7b60e,Shallow Question,html.Page,3_0_4_0_1_1_0,NA,NA,form submission,4748.0829998571,3274631.3,3274623.699,3274639.817,3279387.8999999,3279388.1999998,2023-07-11T16:16:00Z,3279403.087,NULL,Prüfung,mtihani,s,mkulima,mtizamo,ufumbuzi,mtihani,NA,NA,4,NA,NA,NA,NA,NA,NA,NA,NA,NA,NA,NA,NA,NA,NA,NA,NA,NA,NA,NA
7b60e,"""Richtig""-Screen",canvas.Screen,3_0_4_0_1_1_1,NA,NA,timeout,4996.0070000002,3279391.8,3279386.273,3279403.087,3284382.35,3284383.3999999,2023-07-11T16:16:05Z,3284399.094,NULL,Prüfung,mtihani,s,mkulima,mtizamo,ufumbuzi,NA,sd,1,4,NA,NA,NA,NA,NA,NA,NA,NA,NA,NA,NA,NA,NA,NA,NA,NA,NA,NA,NA
7b60e,"""Falsch""-Screen",canvas.Screen,3_0_4_0_1_1_2,NA,NA,skipped,NA,3284388.5999999,NA,NA,3284382.35,3284388.6999998,2023-07-11T16:16:05Z,3284399.094,NULL,Prüfung,mtihani,s,mkulima,mtizamo,ufumbuzi,NA,sd,NA,4,NA,NA,NA,NA,NA,NA,NA,NA,NA,NA,NA,NA,NA,NA,NA,NA,NA,NA,NA
7b60e,shallow,flow.Sequence,3_0_4_0_1_1,NA,NA,completion,9742.5330000003,3274631.3,3274623.699,3274639.817,3284382.35,3284388.8,2023-07-11T16:16:05Z,3284399.094,NULL,Prüfung,mtihani,s,mkulima,mtizamo,ufumbuzi,NA,sd,NA,4,NA,NA,NA,NA,NA,NA,NA,NA,NA,NA,NA,NA,NA,NA,NA,NA,NA,NA,NA
7b60e,task,flow.Sequence,3_0_4_0_1,NA,NA,completion,9742.5330000003,3274631,3274623.699,3274639.817,3284382.35,3284388.8999999,2023-07-11T16:16:05Z,3284399.094,NULL,Prüfung,mtihani,s,mkulima,mtizamo,ufumbuzi,NA,sd,NA,4,NA,NA,NA,NA,NA,NA,NA,NA,NA,NA,NA,NA,NA,NA,NA,NA,NA,NA,NA
7b60e,Deep Question,html.Page,3_0_4_0_2_0_0,NA,NA,form submission,27790.705999952,3284388.8999999,3284382.35,3284399.094,3312189.8,3312190.3999999,2023-07-11T16:16:33Z,3312192.296,NULL,Kultur,utamaduni,d,NA,NA,NA,kuwutl,NA,NA,4,NA,NA,NA,NA,NA,NA,NA,NA,NA,NA,NA,NA,NA,NA,NA,NA,NA,NA,NA
7b60e,"""Richtig""-Screen",canvas.Screen,3_0_4_0_2_0_1,NA,NA,skipped,NA,3312194.8,NA,NA,3312189.8,3312194.8999999,2023-07-11T16:16:33Z,3312192.296,NULL,Kultur,utamaduni,d,NA,NA,NA,NA,sd,NA,4,NA,NA,NA,NA,NA,NA,NA,NA,NA,NA,NA,NA,NA,NA,NA,NA,NA,NA,NA
7b60e,"""Falsch""-Screen",canvas.Screen,3_0_4_0_2_0_2,NA,NA,timeout,4996.1170000001,3312195.3999999,3312176.216,3312192.296,3317171.875,3317173,2023-07-11T16:16:38Z,3317188.413,NULL,Kultur,utamaduni,d,NA,NA,NA,NA,sd,0,4,NA,NA,NA,NA,NA,NA,NA,NA,NA,NA,NA,NA,NA,NA,NA,NA,NA,NA,NA
7b60e,deep,flow.Sequence,3_0_4_0_2_0,NA,NA,completion,32772.781,3284388.8999999,3284382.35,3284399.094,3317171.875,3317173.5,2023-07-11T16:16:38Z,3317188.413,NULL,Kultur,utamaduni,d,NA,NA,NA,NA,sd,NA,4,NA,NA,NA,NA,NA,NA,NA,NA,NA,NA,NA,NA,NA,NA,NA,NA,NA,NA,NA
7b60e,shallow,flow.Sequence,3_0_4_0_2_1,NA,NA,skipped,NA,3317173.5999999,NA,NA,3317171.875,3317173.8,2023-07-11T16:16:38Z,3317188.413,NULL,Kultur,utamaduni,d,NA,NA,NA,NA,sd,NA,4,NA,NA,NA,NA,NA,NA,NA,NA,NA,NA,NA,NA,NA,NA,NA,NA,NA,NA,NA
7b60e,task,flow.Sequence,3_0_4_0_2,NA,NA,completion,32772.781,3284388.8999999,3284382.35,3284399.094,3317171.875,3317174.0999999,2023-07-11T16:16:38Z,3317188.413,NULL,Kultur,utamaduni,d,NA,NA,NA,NA,sd,NA,4,NA,NA,NA,NA,NA,NA,NA,NA,NA,NA,NA,NA,NA,NA,NA,NA,NA,NA,NA
7b60e,Deep Question,html.Page,3_0_4_0_3_0_0,NA,NA,form submission,16060.587,3317174.5,3317171.875,3317188.413,3333249,3333249.6999998,2023-07-11T16:16:54Z,3333258.565,NULL,Verzögerung,kuchelewa,d,NA,NA,NA,kuchetula,NA,NA,4,NA,NA,NA,NA,NA,NA,NA,NA,NA,NA,NA,NA,NA,NA,NA,NA,NA,NA,NA
7b60e,"""Richtig""-Screen",canvas.Screen,3_0_4_0_3_0_1,NA,NA,skipped,NA,3333252.3999999,NA,NA,3333249,3333252.5999999,2023-07-11T16:16:54Z,3333258.565,NULL,Verzögerung,kuchelewa,d,NA,NA,NA,NA,sd,NA,4,NA,NA,NA,NA,NA,NA,NA,NA,NA,NA,NA,NA,NA,NA,NA,NA,NA,NA,NA
7b60e,"""Falsch""-Screen",canvas.Screen,3_0_4_0_3_0_2,NA,NA,timeout,4996.2239999999,3333253.1999998,3333241.685,3333258.565,3338238.214,3338238.8,2023-07-11T16:16:59Z,3338254.789,NULL,Verzögerung,kuchelewa,d,NA,NA,NA,NA,sd,0,4,NA,NA,NA,NA,NA,NA,NA,NA,NA,NA,NA,NA,NA,NA,NA,NA,NA,NA,NA
7b60e,deep,flow.Sequence,3_0_4_0_3_0,NA,NA,completion,21049.801,3317174.3999999,3317171.875,3317188.413,3338238.214,3338239.3,2023-07-11T16:16:59Z,3338254.789,NULL,Verzögerung,kuchelewa,d,NA,NA,NA,NA,sd,NA,4,NA,NA,NA,NA,NA,NA,NA,NA,NA,NA,NA,NA,NA,NA,NA,NA,NA,NA,NA
7b60e,shallow,flow.Sequence,3_0_4_0_3_1,NA,NA,skipped,NA,3338239.3999999,NA,NA,3338238.214,3338239.5,2023-07-11T16:16:59Z,3338254.789,NULL,Verzögerung,kuchelewa,d,NA,NA,NA,NA,sd,NA,4,NA,NA,NA,NA,NA,NA,NA,NA,NA,NA,NA,NA,NA,NA,NA,NA,NA,NA,NA
7b60e,task,flow.Sequence,3_0_4_0_3,NA,NA,completion,21049.801,3317174.3999999,3317171.875,3317188.413,3338238.214,3338239.5,2023-07-11T16:16:59Z,3338254.789,NULL,Verzögerung,kuchelewa,d,NA,NA,NA,NA,sd,NA,4,NA,NA,NA,NA,NA,NA,NA,NA,NA,NA,NA,NA,NA,NA,NA,NA,NA,NA,NA
7b60e,deep,flow.Sequence,3_0_4_0_4_0,NA,NA,skipped,NA,3338239.5999999,NA,NA,3338238.214,3338239.6999998,2023-07-11T16:16:59Z,3338254.789,NULL,Aufstand,ugomaji,s,mazidio,msingi,kujieleza,NA,sd,NA,4,NA,NA,NA,NA,NA,NA,NA,NA,NA,NA,NA,NA,NA,NA,NA,NA,NA,NA,NA
7b60e,Shallow Question,html.Page,3_0_4_0_4_1_0,NA,NA,form submission,6904.5109999524,3338239.6999998,3338238.214,3338254.789,3345159.3,3345159.5999999,2023-07-11T16:17:06Z,3345165.111,NULL,Aufstand,ugomaji,s,mazidio,msingi,kujieleza,ugomaji,NA,NA,4,NA,NA,NA,NA,NA,NA,NA,NA,NA,NA,NA,NA,NA,NA,NA,NA,NA,NA,NA
7b60e,"""Richtig""-Screen",canvas.Screen,3_0_4_0_4_1_1,NA,NA,timeout,4996.4419999998,3345162.8,3345148.868,3345165.111,3350144.697,3350145.8,2023-07-11T16:17:11Z,3350161.553,NULL,Aufstand,ugomaji,s,mazidio,msingi,kujieleza,NA,sd,1,4,NA,NA,NA,NA,NA,NA,NA,NA,NA,NA,NA,NA,NA,NA,NA,NA,NA,NA,NA
7b60e,"""Falsch""-Screen",canvas.Screen,3_0_4_0_4_1_2,NA,NA,skipped,NA,3350151.5999999,NA,NA,3350144.697,3350151.6999998,2023-07-11T16:17:11Z,3350161.553,NULL,Aufstand,ugomaji,s,mazidio,msingi,kujieleza,NA,sd,NA,4,NA,NA,NA,NA,NA,NA,NA,NA,NA,NA,NA,NA,NA,NA,NA,NA,NA,NA,NA
7b60e,shallow,flow.Sequence,3_0_4_0_4_1,NA,NA,completion,11889.908,3338239.6999998,3338238.214,3338254.789,3350144.697,3350151.8999999,2023-07-11T16:17:11Z,3350161.553,NULL,Aufstand,ugomaji,s,mazidio,msingi,kujieleza,NA,sd,NA,4,NA,NA,NA,NA,NA,NA,NA,NA,NA,NA,NA,NA,NA,NA,NA,NA,NA,NA,NA
7b60e,task,flow.Sequence,3_0_4_0_4,NA,NA,completion,11889.908,3338239.5999999,3338238.214,3338254.789,3350144.697,3350152,2023-07-11T16:17:11Z,3350161.553,NULL,Aufstand,ugomaji,s,mazidio,msingi,kujieleza,NA,sd,NA,4,NA,NA,NA,NA,NA,NA,NA,NA,NA,NA,NA,NA,NA,NA,NA,NA,NA,NA,NA
7b60e,Deep Question,html.Page,3_0_4_0_5_0_0,NA,NA,form submission,18064.646999809,3350152.0999999,3350144.697,3350161.553,3368226.1999998,3368226.5999999,2023-07-11T16:17:29Z,3368229.604,NULL,Annäherung,maegesho,d,NA,NA,NA,maegesho,NA,NA,4,NA,NA,NA,NA,NA,NA,NA,NA,NA,NA,NA,NA,NA,NA,NA,NA,NA,NA,NA
7b60e,"""Richtig""-Screen",canvas.Screen,3_0_4_0_5_0_1,NA,NA,timeout,4995.8030000003,3368233.5,3368213.28,3368229.604,3373208.867,3373211.3,2023-07-11T16:17:34Z,3373225.407,NULL,Annäherung,maegesho,d,NA,NA,NA,NA,sd,1,4,NA,NA,NA,NA,NA,NA,NA,NA,NA,NA,NA,NA,NA,NA,NA,NA,NA,NA,NA
7b60e,"""Falsch""-Screen",canvas.Screen,3_0_4_0_5_0_2,NA,NA,skipped,NA,3373215.8999999,NA,NA,3373208.867,3373216.0999999,2023-07-11T16:17:34Z,3373225.407,NULL,Annäherung,maegesho,d,NA,NA,NA,NA,sd,NA,4,NA,NA,NA,NA,NA,NA,NA,NA,NA,NA,NA,NA,NA,NA,NA,NA,NA,NA,NA
7b60e,deep,flow.Sequence,3_0_4_0_5_0,NA,NA,completion,23047.314,3350152.0999999,3350144.697,3350161.553,3373208.867,3373216.3999999,2023-07-11T16:17:34Z,3373225.407,NULL,Annäherung,maegesho,d,NA,NA,NA,NA,sd,NA,4,NA,NA,NA,NA,NA,NA,NA,NA,NA,NA,NA,NA,NA,NA,NA,NA,NA,NA,NA
7b60e,shallow,flow.Sequence,3_0_4_0_5_1,NA,NA,skipped,NA,3373216.5999999,NA,NA,3373208.867,3373216.5999999,2023-07-11T16:17:34Z,3373225.407,NULL,Annäherung,maegesho,d,NA,NA,NA,NA,sd,NA,4,NA,NA,NA,NA,NA,NA,NA,NA,NA,NA,NA,NA,NA,NA,NA,NA,NA,NA,NA
7b60e,task,flow.Sequence,3_0_4_0_5,NA,NA,completion,23047.314,3350152,3350144.697,3350161.553,3373208.867,3373216.8999999,2023-07-11T16:17:34Z,3373225.407,NULL,Annäherung,maegesho,d,NA,NA,NA,NA,sd,NA,4,NA,NA,NA,NA,NA,NA,NA,NA,NA,NA,NA,NA,NA,NA,NA,NA,NA,NA,NA
7b60e,Deep Question,html.Page,3_0_4_0_6_0_0,NA,NA,form submission,16424.692999905,3373217,3373208.867,3373225.407,3389650.0999999,3389650.3,2023-07-11T16:17:50Z,3389662.326,NULL,Sympathie,mapendano,d,NA,NA,NA,matamaduni,NA,NA,4,NA,NA,NA,NA,NA,NA,NA,NA,NA,NA,NA,NA,NA,NA,NA,NA,NA,NA,NA
7b60e,"""Richtig""-Screen",canvas.Screen,3_0_4_0_6_0_1,NA,NA,skipped,NA,3389652.1999998,NA,NA,3389650.0999999,3389652.3,2023-07-11T16:17:50Z,3389662.326,NULL,Sympathie,mapendano,d,NA,NA,NA,NA,sd,NA,4,NA,NA,NA,NA,NA,NA,NA,NA,NA,NA,NA,NA,NA,NA,NA,NA,NA,NA,NA
7b60e,"""Falsch""-Screen",canvas.Screen,3_0_4_0_6_0_2,NA,NA,timeout,4995.5279999999,3389652.8999999,3389645.78,3389662.326,3394641.639,3394643,2023-07-11T16:17:55Z,3394657.854,NULL,Sympathie,mapendano,d,NA,NA,NA,NA,sd,0,4,NA,NA,NA,NA,NA,NA,NA,NA,NA,NA,NA,NA,NA,NA,NA,NA,NA,NA,NA
7b60e,deep,flow.Sequence,3_0_4_0_6_0,NA,NA,completion,21416.232,3373217,3373208.867,3373225.407,3394641.639,3394643.5999999,2023-07-11T16:17:55Z,3394657.854,NULL,Sympathie,mapendano,d,NA,NA,NA,NA,sd,NA,4,NA,NA,NA,NA,NA,NA,NA,NA,NA,NA,NA,NA,NA,NA,NA,NA,NA,NA,NA
7b60e,shallow,flow.Sequence,3_0_4_0_6_1,NA,NA,skipped,NA,3394643.8,NA,NA,3394641.639,3394644.3,2023-07-11T16:17:55Z,3394657.854,NULL,Sympathie,mapendano,d,NA,NA,NA,NA,sd,NA,4,NA,NA,NA,NA,NA,NA,NA,NA,NA,NA,NA,NA,NA,NA,NA,NA,NA,NA,NA
7b60e,task,flow.Sequence,3_0_4_0_6,NA,NA,completion,21416.232,3373217,3373208.867,3373225.407,3394641.639,3394644.8,2023-07-11T16:17:55Z,3394657.854,NULL,Sympathie,mapendano,d,NA,NA,NA,NA,sd,NA,4,NA,NA,NA,NA,NA,NA,NA,NA,NA,NA,NA,NA,NA,NA,NA,NA,NA,NA,NA
7b60e,deep,flow.Sequence,3_0_4_0_7_0,NA,NA,skipped,NA,3394645.0999999,NA,NA,3394641.639,3394645.0999999,2023-07-11T16:17:55Z,3394657.854,NULL,Polizist,msongora,s,simanzi,mandhari,nidhamu,NA,sd,NA,4,NA,NA,NA,NA,NA,NA,NA,NA,NA,NA,NA,NA,NA,NA,NA,NA,NA,NA,NA
7b60e,Shallow Question,html.Page,3_0_4_0_7_1_0,NA,NA,form submission,6210.8459998094,3394645.3999999,3394641.639,3394657.854,3400868.6999998,3400869.3,2023-07-11T16:18:01Z,3400869.453,NULL,Polizist,msongora,s,simanzi,mandhari,nidhamu,msongora,NA,NA,4,NA,NA,NA,NA,NA,NA,NA,NA,NA,NA,NA,NA,NA,NA,NA,NA,NA,NA,NA
7b60e,"""Richtig""-Screen",canvas.Screen,3_0_4_0_7_1_1,NA,NA,timeout,4995.9069999997,3400876.3999999,3400853.303,3400869.453,3405848.914,3405850,2023-07-11T16:18:06Z,3405865.36,NULL,Polizist,msongora,s,simanzi,mandhari,nidhamu,NA,sd,1,4,NA,NA,NA,NA,NA,NA,NA,NA,NA,NA,NA,NA,NA,NA,NA,NA,NA,NA,NA
7b60e,"""Falsch""-Screen",canvas.Screen,3_0_4_0_7_1_2,NA,NA,skipped,NA,3405855.3,NA,NA,3405848.914,3405855.6999998,2023-07-11T16:18:06Z,3405865.36,NULL,Polizist,msongora,s,simanzi,mandhari,nidhamu,NA,sd,NA,4,NA,NA,NA,NA,NA,NA,NA,NA,NA,NA,NA,NA,NA,NA,NA,NA,NA,NA,NA
7b60e,shallow,flow.Sequence,3_0_4_0_7_1,NA,NA,completion,11191.06,3394645.3,3394641.639,3394657.854,3405848.914,3405856,2023-07-11T16:18:06Z,3405865.36,NULL,Polizist,msongora,s,simanzi,mandhari,nidhamu,NA,sd,NA,4,NA,NA,NA,NA,NA,NA,NA,NA,NA,NA,NA,NA,NA,NA,NA,NA,NA,NA,NA
7b60e,task,flow.Sequence,3_0_4_0_7,NA,NA,completion,11191.06,3394644.8999999,3394641.639,3394657.854,3405848.914,3405856.1999998,2023-07-11T16:18:06Z,3405865.36,NULL,Polizist,msongora,s,simanzi,mandhari,nidhamu,NA,sd,NA,4,NA,NA,NA,NA,NA,NA,NA,NA,NA,NA,NA,NA,NA,NA,NA,NA,NA,NA,NA
7b60e,block,flow.Loop,3_0_4_0,NA,NA,completion,141583.931,3264270.6999998,3264231.754,3264264.983,3405848.914,3405856.5,2023-07-11T16:18:06Z,3405865.36,NULL,NA,NA,NA,NA,NA,NA,NA,sd,NA,4,NA,NA,NA,NA,NA,NA,NA,NA,NA,NA,NA,NA,NA,NA,NA,NA,NA,NA,NA
7b60e,weiter,canvas.Screen,3_0_4_1,sdf,keypress(Space),response,1357.6400000001,3405856.6999998,3405848.914,3405865.36,3407223,3407224.5,2023-07-11T16:18:08Z,3407264.144,NULL,NA,NA,NA,NA,NA,NA,NA,sd,NA,4,NA,NA,NA,NA,NA,NA,NA,NA,NA,NA,NA,NA,NA,NA,NA,NA,NA,NA,NA
7b60e,check continue,flow.Sequence,3_0_4,NA,NA,completion,142958.017,3264270.5999999,3264231.754,3264264.983,3407223,3407224.8,2023-07-11T16:18:08Z,3407264.144,NULL,NA,NA,NA,NA,NA,NA,NA,sd,NA,4,NA,NA,NA,NA,NA,NA,NA,NA,NA,NA,NA,NA,NA,NA,NA,NA,NA,NA,NA
7b60e,deep,flow.Sequence,3_0_5_0_0_0,NA,NA,skipped,NA,3407262.3,NA,NA,3407223,3407262.3999999,2023-07-11T16:18:08Z,3407264.144,NULL,Polizist,msongora,s,simanzi,mandhari,nidhamu,NA,sdf,NA,5,NA,NA,NA,NA,NA,NA,NA,NA,NA,NA,NA,NA,NA,NA,NA,NA,NA,NA,NA
7b60e,Shallow Question,html.Page,3_0_5_0_0_1_0,NA,NA,form submission,3672.4559999048,3407262.5,3407214.679,3407264.144,3410936.5999999,3410937.1999998,2023-07-11T16:18:11Z,3410944.491,NULL,Polizist,msongora,s,simanzi,mandhari,nidhamu,msongora,NA,NA,5,NA,NA,NA,NA,NA,NA,NA,NA,NA,NA,NA,NA,NA,NA,NA,NA,NA,NA,NA
7b60e,"""Richtig""-Screen",canvas.Screen,3_0_5_0_0_1_1,NA,NA,timeout,4996.3700000001,3410942.1999998,3410928.558,3410944.491,3415924.043,3415924.8,2023-07-11T16:18:16Z,3415940.861,NULL,Polizist,msongora,s,simanzi,mandhari,nidhamu,NA,sdf,1,5,NA,NA,NA,NA,NA,NA,NA,NA,NA,NA,NA,NA,NA,NA,NA,NA,NA,NA,NA
7b60e,"""Falsch""-Screen",canvas.Screen,3_0_5_0_0_1_2,NA,NA,skipped,NA,3415928.3999999,NA,NA,3415924.043,3415928.8,2023-07-11T16:18:16Z,3415940.861,NULL,Polizist,msongora,s,simanzi,mandhari,nidhamu,NA,sdf,NA,5,NA,NA,NA,NA,NA,NA,NA,NA,NA,NA,NA,NA,NA,NA,NA,NA,NA,NA,NA
7b60e,shallow,flow.Sequence,3_0_5_0_0_1,NA,NA,completion,8659.8990000002,3407262.5,3407214.679,3407264.144,3415924.043,3415929.0999999,2023-07-11T16:18:16Z,3415940.861,NULL,Polizist,msongora,s,simanzi,mandhari,nidhamu,NA,sdf,NA,5,NA,NA,NA,NA,NA,NA,NA,NA,NA,NA,NA,NA,NA,NA,NA,NA,NA,NA,NA
7b60e,task,flow.Sequence,3_0_5_0_0,NA,NA,completion,8659.8990000002,3407262.3,3407214.679,3407264.144,3415924.043,3415929.1999998,2023-07-11T16:18:16Z,3415940.861,NULL,Polizist,msongora,s,simanzi,mandhari,nidhamu,NA,sdf,NA,5,NA,NA,NA,NA,NA,NA,NA,NA,NA,NA,NA,NA,NA,NA,NA,NA,NA,NA,NA
7b60e,Deep Question,html.Page,3_0_5_0_1_0_0,NA,NA,form submission,25922.338999809,3415929.3999999,3415924.043,3415940.861,3441863.1999998,3441863.6999998,2023-07-11T16:18:42Z,3441869.053,NULL,Sympathie,mapendano,d,NA,NA,NA,mapendono,NA,NA,5,NA,NA,NA,NA,NA,NA,NA,NA,NA,NA,NA,NA,NA,NA,NA,NA,NA,NA,NA
7b60e,"""Richtig""-Screen",canvas.Screen,3_0_5_0_1_0_1,NA,NA,skipped,NA,3441871.1999998,NA,NA,3441863.1999998,3441871.5999999,2023-07-11T16:18:42Z,3441869.053,NULL,Sympathie,mapendano,d,NA,NA,NA,NA,sdf,NA,5,NA,NA,NA,NA,NA,NA,NA,NA,NA,NA,NA,NA,NA,NA,NA,NA,NA,NA,NA
7b60e,"""Falsch""-Screen",canvas.Screen,3_0_5_0_1_0_2,NA,NA,timeout,4995.8220000002,3441873.1999998,3441852.429,3441869.053,3446848.664,3446849.8,2023-07-11T16:18:47Z,3446864.875,NULL,Sympathie,mapendano,d,NA,NA,NA,NA,sdf,0,5,NA,NA,NA,NA,NA,NA,NA,NA,NA,NA,NA,NA,NA,NA,NA,NA,NA,NA,NA
7b60e,deep,flow.Sequence,3_0_5_0_1_0,NA,NA,completion,30907.803,3415929.3999999,3415924.043,3415940.861,3446848.664,3446850.1999998,2023-07-11T16:18:47Z,3446864.875,NULL,Sympathie,mapendano,d,NA,NA,NA,NA,sdf,NA,5,NA,NA,NA,NA,NA,NA,NA,NA,NA,NA,NA,NA,NA,NA,NA,NA,NA,NA,NA
7b60e,shallow,flow.Sequence,3_0_5_0_1_1,NA,NA,skipped,NA,3446850.3,NA,NA,3446848.664,3446850.5,2023-07-11T16:18:47Z,3446864.875,NULL,Sympathie,mapendano,d,NA,NA,NA,NA,sdf,NA,5,NA,NA,NA,NA,NA,NA,NA,NA,NA,NA,NA,NA,NA,NA,NA,NA,NA,NA,NA
7b60e,task,flow.Sequence,3_0_5_0_1,NA,NA,completion,30907.803,3415929.3,3415924.043,3415940.861,3446848.664,3446850.6999998,2023-07-11T16:18:47Z,3446864.875,NULL,Sympathie,mapendano,d,NA,NA,NA,NA,sdf,NA,5,NA,NA,NA,NA,NA,NA,NA,NA,NA,NA,NA,NA,NA,NA,NA,NA,NA,NA,NA
7b60e,deep,flow.Sequence,3_0_5_0_2_0,NA,NA,skipped,NA,3446850.8,NA,NA,3446848.664,3446851,2023-07-11T16:18:47Z,3446864.875,NULL,Prüfung,mtihani,s,mkulima,mtizamo,ufumbuzi,NA,sdf,NA,5,NA,NA,NA,NA,NA,NA,NA,NA,NA,NA,NA,NA,NA,NA,NA,NA,NA,NA,NA
7b60e,Shallow Question,html.Page,3_0_5_0_2_1_0,NA,NA,form submission,3596.125,3446851.0999999,3446848.664,3446864.875,3450461,3450461.5999999,2023-07-11T16:18:51Z,3450461.997,NULL,Prüfung,mtihani,s,mkulima,mtizamo,ufumbuzi,mtihani,NA,NA,5,NA,NA,NA,NA,NA,NA,NA,NA,NA,NA,NA,NA,NA,NA,NA,NA,NA,NA,NA
7b60e,"""Richtig""-Screen",canvas.Screen,3_0_5_0_2_1_1,NA,NA,timeout,4996.54,3450463.8,3450445.836,3450461.997,3455441.727,3455442.8,2023-07-11T16:18:56Z,3455458.537,NULL,Prüfung,mtihani,s,mkulima,mtizamo,ufumbuzi,NA,sdf,1,5,NA,NA,NA,NA,NA,NA,NA,NA,NA,NA,NA,NA,NA,NA,NA,NA,NA,NA,NA
7b60e,"""Falsch""-Screen",canvas.Screen,3_0_5_0_2_1_2,NA,NA,skipped,NA,3455447.5999999,NA,NA,3455441.727,3455447.6999998,2023-07-11T16:18:56Z,3455458.537,NULL,Prüfung,mtihani,s,mkulima,mtizamo,ufumbuzi,NA,sdf,NA,5,NA,NA,NA,NA,NA,NA,NA,NA,NA,NA,NA,NA,NA,NA,NA,NA,NA,NA,NA
7b60e,shallow,flow.Sequence,3_0_5_0_2_1,NA,NA,completion,8576.852,3446851,3446848.664,3446864.875,3455441.727,3455447.8999999,2023-07-11T16:18:56Z,3455458.537,NULL,Prüfung,mtihani,s,mkulima,mtizamo,ufumbuzi,NA,sdf,NA,5,NA,NA,NA,NA,NA,NA,NA,NA,NA,NA,NA,NA,NA,NA,NA,NA,NA,NA,NA
7b60e,task,flow.Sequence,3_0_5_0_2,NA,NA,completion,8576.852,3446850.8,3446848.664,3446864.875,3455441.727,3455447.8999999,2023-07-11T16:18:56Z,3455458.537,NULL,Prüfung,mtihani,s,mkulima,mtizamo,ufumbuzi,NA,sdf,NA,5,NA,NA,NA,NA,NA,NA,NA,NA,NA,NA,NA,NA,NA,NA,NA,NA,NA,NA,NA
7b60e,Deep Question,html.Page,3_0_5_0_3_0_0,NA,NA,form submission,8547.1629998093,3455448,3455441.727,3455458.537,3464005.6999998,3464005.8999999,2023-07-11T16:19:05Z,3464017.464,NULL,Kultur,utamaduni,d,NA,NA,NA,matamaduni,NA,NA,5,NA,NA,NA,NA,NA,NA,NA,NA,NA,NA,NA,NA,NA,NA,NA,NA,NA,NA,NA
7b60e,"""Richtig""-Screen",canvas.Screen,3_0_5_0_3_0_1,NA,NA,skipped,NA,3464007.8,NA,NA,3464005.6999998,3464008,2023-07-11T16:19:05Z,3464017.464,NULL,Kultur,utamaduni,d,NA,NA,NA,NA,sdf,NA,5,NA,NA,NA,NA,NA,NA,NA,NA,NA,NA,NA,NA,NA,NA,NA,NA,NA,NA,NA
7b60e,"""Falsch""-Screen",canvas.Screen,3_0_5_0_3_0_2,NA,NA,timeout,4996.1239999998,3464008.5,3464001.341,3464017.464,3468996.718,3468998.0999999,2023-07-11T16:19:10Z,3469013.588,NULL,Kultur,utamaduni,d,NA,NA,NA,NA,sdf,0,5,NA,NA,NA,NA,NA,NA,NA,NA,NA,NA,NA,NA,NA,NA,NA,NA,NA,NA,NA
7b60e,deep,flow.Sequence,3_0_5_0_3_0,NA,NA,completion,13538.181,3455447.8999999,3455441.727,3455458.537,3468996.718,3468998.5999999,2023-07-11T16:19:10Z,3469013.588,NULL,Kultur,utamaduni,d,NA,NA,NA,NA,sdf,NA,5,NA,NA,NA,NA,NA,NA,NA,NA,NA,NA,NA,NA,NA,NA,NA,NA,NA,NA,NA
7b60e,shallow,flow.Sequence,3_0_5_0_3_1,NA,NA,skipped,NA,3468998.6999998,NA,NA,3468996.718,3468998.8999999,2023-07-11T16:19:10Z,3469013.588,NULL,Kultur,utamaduni,d,NA,NA,NA,NA,sdf,NA,5,NA,NA,NA,NA,NA,NA,NA,NA,NA,NA,NA,NA,NA,NA,NA,NA,NA,NA,NA
7b60e,task,flow.Sequence,3_0_5_0_3,NA,NA,completion,13538.181,3455447.8999999,3455441.727,3455458.537,3468996.718,3468999.1999998,2023-07-11T16:19:10Z,3469013.588,NULL,Kultur,utamaduni,d,NA,NA,NA,NA,sdf,NA,5,NA,NA,NA,NA,NA,NA,NA,NA,NA,NA,NA,NA,NA,NA,NA,NA,NA,NA,NA
7b60e,deep,flow.Sequence,3_0_5_0_4_0,NA,NA,skipped,NA,3468999.3999999,NA,NA,3468996.718,3468999.5999999,2023-07-11T16:19:10Z,3469013.588,NULL,Beweis,ushahidi,s,marudio,kizuizi,mtendaji,NA,sdf,NA,5,NA,NA,NA,NA,NA,NA,NA,NA,NA,NA,NA,NA,NA,NA,NA,NA,NA,NA,NA
7b60e,Shallow Question,html.Page,3_0_5_0_4_1_0,NA,NA,form submission,8871.912,3468999.8,3468996.718,3469013.588,3477885.5,3477885.6999998,2023-07-11T16:19:18Z,3477889.332,NULL,Beweis,ushahidi,s,marudio,kizuizi,mtendaji,ushahidi,NA,NA,5,NA,NA,NA,NA,NA,NA,NA,NA,NA,NA,NA,NA,NA,NA,NA,NA,NA,NA,NA
7b60e,"""Richtig""-Screen",canvas.Screen,3_0_5_0_4_1_1,NA,NA,timeout,4996.372,3477887.1999998,3477872.756,3477889.332,3482868.657,3482870.0999999,2023-07-11T16:19:23Z,3482885.704,NULL,Beweis,ushahidi,s,marudio,kizuizi,mtendaji,NA,sdf,1,5,NA,NA,NA,NA,NA,NA,NA,NA,NA,NA,NA,NA,NA,NA,NA,NA,NA,NA,NA
7b60e,"""Falsch""-Screen",canvas.Screen,3_0_5_0_4_1_2,NA,NA,skipped,NA,3482874.8999999,NA,NA,3482868.657,3482875,2023-07-11T16:19:23Z,3482885.704,NULL,Beweis,ushahidi,s,marudio,kizuizi,mtendaji,NA,sdf,NA,5,NA,NA,NA,NA,NA,NA,NA,NA,NA,NA,NA,NA,NA,NA,NA,NA,NA,NA,NA
7b60e,shallow,flow.Sequence,3_0_5_0_4_1,NA,NA,completion,13855.069,3468999.6999998,3468996.718,3469013.588,3482868.657,3482875.0999999,2023-07-11T16:19:23Z,3482885.704,NULL,Beweis,ushahidi,s,marudio,kizuizi,mtendaji,NA,sdf,NA,5,NA,NA,NA,NA,NA,NA,NA,NA,NA,NA,NA,NA,NA,NA,NA,NA,NA,NA,NA
7b60e,task,flow.Sequence,3_0_5_0_4,NA,NA,completion,13855.069,3468999.3,3468996.718,3469013.588,3482868.657,3482875.0999999,2023-07-11T16:19:23Z,3482885.704,NULL,Beweis,ushahidi,s,marudio,kizuizi,mtendaji,NA,sdf,NA,5,NA,NA,NA,NA,NA,NA,NA,NA,NA,NA,NA,NA,NA,NA,NA,NA,NA,NA,NA
7b60e,Deep Question,html.Page,3_0_5_0_5_0_0,NA,NA,form submission,15497.796,3482875.1999998,3482868.657,3482885.704,3498383.5,3498383.8999999,2023-07-11T16:19:39Z,3498389.159,NULL,Verzögerung,kuchelewa,d,NA,NA,NA,kuchelewo,NA,NA,5,NA,NA,NA,NA,NA,NA,NA,NA,NA,NA,NA,NA,NA,NA,NA,NA,NA,NA,NA
7b60e,"""Richtig""-Screen",canvas.Screen,3_0_5_0_5_0_1,NA,NA,skipped,NA,3498387.5,NA,NA,3498383.5,3498387.5999999,2023-07-11T16:19:39Z,3498389.159,NULL,Verzögerung,kuchelewa,d,NA,NA,NA,NA,sdf,NA,5,NA,NA,NA,NA,NA,NA,NA,NA,NA,NA,NA,NA,NA,NA,NA,NA,NA,NA,NA
7b60e,"""Falsch""-Screen",canvas.Screen,3_0_5_0_5_0_2,NA,NA,timeout,4995.9199999999,3498388.0999999,3498372.576,3498389.159,3503368.787,3503369.8,2023-07-11T16:19:44Z,3503385.079,NULL,Verzögerung,kuchelewa,d,NA,NA,NA,NA,sdf,0,5,NA,NA,NA,NA,NA,NA,NA,NA,NA,NA,NA,NA,NA,NA,NA,NA,NA,NA,NA
7b60e,deep,flow.Sequence,3_0_5_0_5_0,NA,NA,completion,20483.083,3482875.1999998,3482868.657,3482885.704,3503368.787,3503370.3999999,2023-07-11T16:19:44Z,3503385.079,NULL,Verzögerung,kuchelewa,d,NA,NA,NA,NA,sdf,NA,5,NA,NA,NA,NA,NA,NA,NA,NA,NA,NA,NA,NA,NA,NA,NA,NA,NA,NA,NA
7b60e,shallow,flow.Sequence,3_0_5_0_5_1,NA,NA,skipped,NA,3503370.5,NA,NA,3503368.787,3503370.6999998,2023-07-11T16:19:44Z,3503385.079,NULL,Verzögerung,kuchelewa,d,NA,NA,NA,NA,sdf,NA,5,NA,NA,NA,NA,NA,NA,NA,NA,NA,NA,NA,NA,NA,NA,NA,NA,NA,NA,NA
7b60e,task,flow.Sequence,3_0_5_0_5,NA,NA,completion,20483.083,3482875.1999998,3482868.657,3482885.704,3503368.787,3503370.8999999,2023-07-11T16:19:44Z,3503385.079,NULL,Verzögerung,kuchelewa,d,NA,NA,NA,NA,sdf,NA,5,NA,NA,NA,NA,NA,NA,NA,NA,NA,NA,NA,NA,NA,NA,NA,NA,NA,NA,NA
7b60e,deep,flow.Sequence,3_0_5_0_6_0,NA,NA,skipped,NA,3503371.0999999,NA,NA,3503368.787,3503371.3,2023-07-11T16:19:44Z,3503385.079,NULL,Aufstand,ugomaji,s,mazidio,msingi,kujieleza,NA,sdf,NA,5,NA,NA,NA,NA,NA,NA,NA,NA,NA,NA,NA,NA,NA,NA,NA,NA,NA,NA,NA
7b60e,Shallow Question,html.Page,3_0_5_0_6_1_0,NA,NA,form submission,7566.1209998094,3503371.3999999,3503368.787,3503385.079,3510951.1999998,3510951.6999998,2023-07-11T16:19:51Z,3510962.442,NULL,Aufstand,ugomaji,s,mazidio,msingi,kujieleza,ugomaji,NA,NA,5,NA,NA,NA,NA,NA,NA,NA,NA,NA,NA,NA,NA,NA,NA,NA,NA,NA,NA,NA
7b60e,"""Richtig""-Screen",canvas.Screen,3_0_5_0_6_1_1,NA,NA,timeout,4995.6330000004,3510954.1999998,3510946.113,3510962.442,3515941.47,3515942.5999999,2023-07-11T16:19:56Z,3515958.075,NULL,Aufstand,ugomaji,s,mazidio,msingi,kujieleza,NA,sdf,1,5,NA,NA,NA,NA,NA,NA,NA,NA,NA,NA,NA,NA,NA,NA,NA,NA,NA,NA,NA
7b60e,"""Falsch""-Screen",canvas.Screen,3_0_5_0_6_1_2,NA,NA,skipped,NA,3515945.6999998,NA,NA,3515941.47,3515945.8,2023-07-11T16:19:56Z,3515958.075,NULL,Aufstand,ugomaji,s,mazidio,msingi,kujieleza,NA,sdf,NA,5,NA,NA,NA,NA,NA,NA,NA,NA,NA,NA,NA,NA,NA,NA,NA,NA,NA,NA,NA
7b60e,shallow,flow.Sequence,3_0_5_0_6_1,NA,NA,completion,12556.391,3503371.3,3503368.787,3503385.079,3515941.47,3515946,2023-07-11T16:19:56Z,3515958.075,NULL,Aufstand,ugomaji,s,mazidio,msingi,kujieleza,NA,sdf,NA,5,NA,NA,NA,NA,NA,NA,NA,NA,NA,NA,NA,NA,NA,NA,NA,NA,NA,NA,NA
7b60e,task,flow.Sequence,3_0_5_0_6,NA,NA,completion,12556.391,3503371.0999999,3503368.787,3503385.079,3515941.47,3515946.0999999,2023-07-11T16:19:56Z,3515958.075,NULL,Aufstand,ugomaji,s,mazidio,msingi,kujieleza,NA,sdf,NA,5,NA,NA,NA,NA,NA,NA,NA,NA,NA,NA,NA,NA,NA,NA,NA,NA,NA,NA,NA
7b60e,Deep Question,html.Page,3_0_5_0_7_0_0,NA,NA,form submission,15077.124999809,3515946.1999998,3515941.47,3515958.075,3531035.1999998,3531035.5999999,2023-07-11T16:20:12Z,3531045.697,NULL,Annäherung,maegesho,d,NA,NA,NA,maegeshewo,NA,NA,5,NA,NA,NA,NA,NA,NA,NA,NA,NA,NA,NA,NA,NA,NA,NA,NA,NA,NA,NA
7b60e,"""Richtig""-Screen",canvas.Screen,3_0_5_0_7_0_1,NA,NA,skipped,NA,3531042.8,NA,NA,3531035.1999998,3531043.3,2023-07-11T16:20:12Z,3531045.697,NULL,Annäherung,maegesho,d,NA,NA,NA,NA,sdf,NA,5,NA,NA,NA,NA,NA,NA,NA,NA,NA,NA,NA,NA,NA,NA,NA,NA,NA,NA,NA
7b60e,"""Falsch""-Screen",canvas.Screen,3_0_5_0_7_0_2,NA,NA,timeout,4996.4309999999,3531045.3,3531029.622,3531045.697,3536025.357,3536026.1999998,2023-07-11T16:20:17Z,3536042.128,NULL,Annäherung,maegesho,d,NA,NA,NA,NA,sdf,0,5,NA,NA,NA,NA,NA,NA,NA,NA,NA,NA,NA,NA,NA,NA,NA,NA,NA,NA,NA
7b60e,deep,flow.Sequence,3_0_5_0_7_0,NA,NA,completion,20067.282,3515946.0999999,3515941.47,3515958.075,3536025.357,3536026.5999999,2023-07-11T16:20:17Z,3536042.128,NULL,Annäherung,maegesho,d,NA,NA,NA,NA,sdf,NA,5,NA,NA,NA,NA,NA,NA,NA,NA,NA,NA,NA,NA,NA,NA,NA,NA,NA,NA,NA
7b60e,shallow,flow.Sequence,3_0_5_0_7_1,NA,NA,skipped,NA,3536026.8,NA,NA,3536025.357,3536027,2023-07-11T16:20:17Z,3536042.128,NULL,Annäherung,maegesho,d,NA,NA,NA,NA,sdf,NA,5,NA,NA,NA,NA,NA,NA,NA,NA,NA,NA,NA,NA,NA,NA,NA,NA,NA,NA,NA
7b60e,task,flow.Sequence,3_0_5_0_7,NA,NA,completion,20067.282,3515946.0999999,3515941.47,3515958.075,3536025.357,3536027.1999998,2023-07-11T16:20:17Z,3536042.128,NULL,Annäherung,maegesho,d,NA,NA,NA,NA,sdf,NA,5,NA,NA,NA,NA,NA,NA,NA,NA,NA,NA,NA,NA,NA,NA,NA,NA,NA,NA,NA
7b60e,block,flow.Loop,3_0_5_0,NA,NA,completion,128761.213,3407262.3,3407214.679,3407264.144,3536025.357,3536027.5,2023-07-11T16:20:17Z,3536042.128,NULL,NA,NA,NA,NA,NA,NA,NA,sdf,NA,5,NA,NA,NA,NA,NA,NA,NA,NA,NA,NA,NA,NA,NA,NA,NA,NA,NA,NA,NA
7b60e,weiter,canvas.Screen,3_0_5_1,sdf,keypress(Space),response,1154.4719999046,3536027.5999999,3536025.357,3536042.128,3537196.5999999,3537198.1999998,2023-07-11T16:20:18Z,3537223.919,NULL,NA,NA,NA,NA,NA,NA,NA,sdf,NA,5,NA,NA,NA,NA,NA,NA,NA,NA,NA,NA,NA,NA,NA,NA,NA,NA,NA,NA,NA
7b60e,check continue,flow.Sequence,3_0_5,NA,NA,completion,129932.4559999,3407262.3,3407214.679,3407264.144,3537196.5999999,3537198.6999998,2023-07-11T16:20:18Z,3537223.919,NULL,NA,NA,NA,NA,NA,NA,NA,sdf,NA,5,NA,NA,NA,NA,NA,NA,NA,NA,NA,NA,NA,NA,NA,NA,NA,NA,NA,NA,NA
7b60e,Deep Question,html.Page,3_0_6_0_0_0_0,NA,NA,form submission,20769.880999952,3537231.5999999,3537191.148,3537223.919,3557993.8,3557994,2023-07-11T16:20:39Z,3558007.464,NULL,Verzögerung,kuchelewa,d,NA,NA,NA,kuchelewa,NA,NA,6,NA,NA,NA,NA,NA,NA,NA,NA,NA,NA,NA,NA,NA,NA,NA,NA,NA,NA,NA
7b60e,"""Richtig""-Screen",canvas.Screen,3_0_6_0_0_0_1,NA,NA,timeout,4996.0129999998,3557996.1999998,3557990.772,3558007.464,3562986.658,3562987.6999998,2023-07-11T16:20:43Z,3563003.477,NULL,Verzögerung,kuchelewa,d,NA,NA,NA,NA,dfs,1,6,NA,NA,NA,NA,NA,NA,NA,NA,NA,NA,NA,NA,NA,NA,NA,NA,NA,NA,NA
7b60e,"""Falsch""-Screen",canvas.Screen,3_0_6_0_0_0_2,NA,NA,skipped,NA,3562992.1999998,NA,NA,3562986.658,3562992.3,2023-07-11T16:20:44Z,3563003.477,NULL,Verzögerung,kuchelewa,d,NA,NA,NA,NA,dfs,NA,6,NA,NA,NA,NA,NA,NA,NA,NA,NA,NA,NA,NA,NA,NA,NA,NA,NA,NA,NA
7b60e,deep,flow.Sequence,3_0_6_0_0_0,NA,NA,completion,25762.739,3537231.5999999,3537191.148,3537223.919,3562986.658,3562992.3999999,2023-07-11T16:20:44Z,3563003.477,NULL,Verzögerung,kuchelewa,d,NA,NA,NA,NA,dfs,NA,6,NA,NA,NA,NA,NA,NA,NA,NA,NA,NA,NA,NA,NA,NA,NA,NA,NA,NA,NA
7b60e,shallow,flow.Sequence,3_0_6_0_0_1,NA,NA,skipped,NA,3562992.5,NA,NA,3562986.658,3562992.5,2023-07-11T16:20:44Z,3563003.477,NULL,Verzögerung,kuchelewa,d,NA,NA,NA,NA,dfs,NA,6,NA,NA,NA,NA,NA,NA,NA,NA,NA,NA,NA,NA,NA,NA,NA,NA,NA,NA,NA
7b60e,task,flow.Sequence,3_0_6_0_0,NA,NA,completion,25762.739,3537231.5999999,3537191.148,3537223.919,3562986.658,3562992.5999999,2023-07-11T16:20:44Z,3563003.477,NULL,Verzögerung,kuchelewa,d,NA,NA,NA,NA,dfs,NA,6,NA,NA,NA,NA,NA,NA,NA,NA,NA,NA,NA,NA,NA,NA,NA,NA,NA,NA,NA
7b60e,deep,flow.Sequence,3_0_6_0_1_0,NA,NA,skipped,NA,3562992.5999999,NA,NA,3562986.658,3562992.6999998,2023-07-11T16:20:44Z,3563003.477,NULL,Prüfung,mtihani,s,mkulima,mtizamo,ufumbuzi,NA,dfs,NA,6,NA,NA,NA,NA,NA,NA,NA,NA,NA,NA,NA,NA,NA,NA,NA,NA,NA,NA,NA
7b60e,Shallow Question,html.Page,3_0_6_0_1_1_0,NA,NA,form submission,5746.6229999047,3562992.6999998,3562986.658,3563003.477,3568750.0999999,3568750.5,2023-07-11T16:20:49Z,3568765.092,NULL,Prüfung,mtihani,s,mkulima,mtizamo,ufumbuzi,mtihani,NA,NA,6,NA,NA,NA,NA,NA,NA,NA,NA,NA,NA,NA,NA,NA,NA,NA,NA,NA,NA,NA
7b60e,"""Richtig""-Screen",canvas.Screen,3_0_6_0_1_1_1,NA,NA,timeout,4995.5209999997,3568752.8,3568731.914,3568765.092,3573743.991,3573746.5999999,2023-07-11T16:20:54Z,3573760.613,NULL,Prüfung,mtihani,s,mkulima,mtizamo,ufumbuzi,NA,dfs,1,6,NA,NA,NA,NA,NA,NA,NA,NA,NA,NA,NA,NA,NA,NA,NA,NA,NA,NA,NA
7b60e,"""Falsch""-Screen",canvas.Screen,3_0_6_0_1_1_2,NA,NA,skipped,NA,3573753.3999999,NA,NA,3573743.991,3573753.8999999,2023-07-11T16:20:54Z,3573760.613,NULL,Prüfung,mtihani,s,mkulima,mtizamo,ufumbuzi,NA,dfs,NA,6,NA,NA,NA,NA,NA,NA,NA,NA,NA,NA,NA,NA,NA,NA,NA,NA,NA,NA,NA
7b60e,shallow,flow.Sequence,3_0_6_0_1_1,NA,NA,completion,10740.514,3562992.6999998,3562986.658,3563003.477,3573743.991,3573754.5,2023-07-11T16:20:54Z,3573760.613,NULL,Prüfung,mtihani,s,mkulima,mtizamo,ufumbuzi,NA,dfs,NA,6,NA,NA,NA,NA,NA,NA,NA,NA,NA,NA,NA,NA,NA,NA,NA,NA,NA,NA,NA
7b60e,task,flow.Sequence,3_0_6_0_1,NA,NA,completion,10740.514,3562992.5999999,3562986.658,3563003.477,3573743.991,3573754.8999999,2023-07-11T16:20:54Z,3573760.613,NULL,Prüfung,mtihani,s,mkulima,mtizamo,ufumbuzi,NA,dfs,NA,6,NA,NA,NA,NA,NA,NA,NA,NA,NA,NA,NA,NA,NA,NA,NA,NA,NA,NA,NA
