observation,sender,sender_type,sender_id,response,response_action,ended_on,duration,time_run,time_render,time_show,time_end,time_commit,timestamp,time_switch,distractors,german,swahili,enc,distractor1,distractor2,distractor3,response_2,x,correct,x_2,url_vp,url_sess,meta_labjs_version,meta_location,meta_user_agent,meta_platform,meta_language,meta_locale,meta_time_zone,meta_timezone_offset,meta_screen_width,meta_screen_height,meta_scroll_width,meta_scroll_height,meta_window_inner_width,meta_window_inner_height,meta_device_pixel_ratio,meta_labjs_build_flavor,meta_labjs_build_commit
15ff9,Introduction general,canvas.Screen,0,weiter,keypress(q),response,116785.65300019,1239.2000000477,1533.994,1550.647,118336.30000019001,118342.30000019001,2023-10-11T12:02:11Z,118345.695,NULL,NA,NA,NA,NA,NA,NA,NA,NA,NA,NA,134,1,20.2.4,https://neurocog.fernuni.ch/studies/vweber/aberisha/encoding_immediate/index.html?vp=134&sess=1,"Mozilla/5.0 (Windows NT 10.0; Win64; x64) AppleWebKit/537.36 (KHTML, like Gecko) Chrome/117.0.0.0 Safari/537.36",Win32,de-DE,de,Europe/Zurich,-120,1739,979,1740,774,1740,822,1.1041666269302,production,f5b4a49f956347addd546a832a3327688c2c0fef
15ff9,Introduction practice,canvas.Screen,1_0,NA,keypress(Space),response,7022.805,118342.5,118337.129,118345.695,125368.5,125369.80000019001,2023-10-11T12:02:18Z,125374.723,NULL,NA,NA,NA,NA,NA,NA,NA,NA,NA,NA,NA,NA,NA,NA,NA,NA,NA,NA,NA,NA,NA,NA,NA,NA,NA,NA,NA,NA,NA
15ff9,Deep Question,html.Page,1_1_0_0_0,NA,NA,form submission,17191.477000048,125370.30000019001,125366.634,125374.723,142566.20000005,142566.60000014,2023-10-11T12:02:35Z,142580.838,"c(""distractor1"", ""distractor2"", ""distractor3"")",Schatten,kivuli,d,NA,NA,NA,iklo,NA,NA,NA,NA,NA,NA,NA,NA,NA,NA,NA,NA,NA,NA,NA,NA,NA,NA,NA,NA,NA,NA
15ff9,"""Richtig""-Screen",canvas.Screen,1_1_0_0_1,NA,NA,skipped,NA,142567.5,NA,NA,142566.20000005,142567.70000005,2023-10-11T12:02:35Z,142580.838,"c(""distractor1"", ""distractor2"", ""distractor3"")",Schatten,kivuli,d,NA,NA,NA,NA,NA,NA,NA,NA,NA,NA,NA,NA,NA,NA,NA,NA,NA,NA,NA,NA,NA,NA,NA,NA,NA,NA
15ff9,"""Falsch""-Screen",canvas.Screen,1_1_0_0_2,NA,NA,timeout,4996.963,142568.30000019,142564.827,142580.838,147561.179,147566.30000019,2023-10-11T12:02:40Z,147577.801,"c(""distractor1"", ""distractor2"", ""distractor3"")",Schatten,kivuli,d,NA,NA,NA,NA,NA,0,NA,NA,NA,NA,NA,NA,NA,NA,NA,NA,NA,NA,NA,NA,NA,NA,NA,NA,NA,NA
15ff9,deep,flow.Sequence,1_1_0_0,NA,NA,completion,22186.456,125370.20000005,125366.634,125374.723,147561.179,147567,2023-10-11T12:02:40Z,147577.801,"c(""distractor1"", ""distractor2"", ""distractor3"")",Schatten,kivuli,d,NA,NA,NA,NA,NA,NA,NA,NA,NA,NA,NA,NA,NA,NA,NA,NA,NA,NA,NA,NA,NA,NA,NA,NA,NA,NA
15ff9,shallow,flow.Sequence,1_1_0_1,NA,NA,skipped,NA,147567.10000014,NA,NA,147561.179,147567.4000001,2023-10-11T12:02:40Z,147577.801,"c(""distractor1"", ""distractor2"", ""distractor3"")",Schatten,kivuli,d,NA,NA,NA,NA,NA,NA,NA,NA,NA,NA,NA,NA,NA,NA,NA,NA,NA,NA,NA,NA,NA,NA,NA,NA,NA,NA
15ff9,task,flow.Sequence,1_1_0,NA,NA,completion,22186.456,125370.20000005,125366.634,125374.723,147561.179,147567.70000005,2023-10-11T12:02:40Z,147577.801,"c(""distractor1"", ""distractor2"", ""distractor3"")",Schatten,kivuli,d,NA,NA,NA,NA,NA,NA,NA,NA,NA,NA,NA,NA,NA,NA,NA,NA,NA,NA,NA,NA,NA,NA,NA,NA,NA,NA
15ff9,deep,flow.Sequence,1_1_1_0,NA,NA,skipped,NA,147567.70000005,NA,NA,147561.179,147567.80000019,2023-10-11T12:02:40Z,147577.801,"c(""distractor1"", ""distractor2"", ""distractor3"")",Rückhalt,msaada,s,muhula,auwali,kiwimbe,NA,NA,NA,NA,NA,NA,NA,NA,NA,NA,NA,NA,NA,NA,NA,NA,NA,NA,NA,NA,NA,NA,NA
15ff9,Shallow Question,html.Page,1_1_1_1_0,NA,NA,form submission,10762.199,147567.9000001,147561.179,147577.801,158340,158340.30000019,2023-10-11T12:02:51Z,158355.029,"c(""distractor1"", ""distractor2"", ""distractor3"")",Rückhalt,msaada,s,muhula,auwali,kiwimbe,auwali,NA,NA,NA,NA,NA,NA,NA,NA,NA,NA,NA,NA,NA,NA,NA,NA,NA,NA,NA,NA,NA,NA
15ff9,"""Richtig""-Screen",canvas.Screen,1_1_1_1_1,NA,NA,skipped,NA,158343.70000005,NA,NA,158340,158343.9000001,2023-10-11T12:02:51Z,158355.029,"c(""distractor1"", ""distractor2"", ""distractor3"")",Rückhalt,msaada,s,muhula,auwali,kiwimbe,NA,NA,NA,NA,NA,NA,NA,NA,NA,NA,NA,NA,NA,NA,NA,NA,NA,NA,NA,NA,NA,NA,NA
15ff9,"""Falsch""-Screen",canvas.Screen,1_1_1_1_2,NA,NA,timeout,4996.786,158344.4000001,158323.654,158355.029,163335.194,163336.30000019,2023-10-11T12:02:56Z,163351.815,"c(""distractor1"", ""distractor2"", ""distractor3"")",Rückhalt,msaada,s,muhula,auwali,kiwimbe,NA,NA,0,NA,NA,NA,NA,NA,NA,NA,NA,NA,NA,NA,NA,NA,NA,NA,NA,NA,NA,NA,NA
15ff9,shallow,flow.Sequence,1_1_1_1,NA,NA,completion,15757.393,147567.9000001,147561.179,147577.801,163335.194,163336.80000019,2023-10-11T12:02:56Z,163351.815,"c(""distractor1"", ""distractor2"", ""distractor3"")",Rückhalt,msaada,s,muhula,auwali,kiwimbe,NA,NA,NA,NA,NA,NA,NA,NA,NA,NA,NA,NA,NA,NA,NA,NA,NA,NA,NA,NA,NA,NA,NA
15ff9,task,flow.Sequence,1_1_1,NA,NA,completion,15757.393,147567.70000005,147561.179,147577.801,163335.194,163337.30000019,2023-10-11T12:02:56Z,163351.815,"c(""distractor1"", ""distractor2"", ""distractor3"")",Rückhalt,msaada,s,muhula,auwali,kiwimbe,NA,NA,NA,NA,NA,NA,NA,NA,NA,NA,NA,NA,NA,NA,NA,NA,NA,NA,NA,NA,NA,NA,NA
15ff9,deep,flow.Sequence,1_1_2_0,NA,NA,skipped,NA,163337.60000014,NA,NA,163335.194,163337.80000019,2023-10-11T12:02:56Z,163351.815,"c(""distractor1"", ""distractor2"", ""distractor3"")",Gegenwart,hadhara,s,katiba,jokofu,mikopo,NA,NA,NA,NA,NA,NA,NA,NA,NA,NA,NA,NA,NA,NA,NA,NA,NA,NA,NA,NA,NA,NA,NA
15ff9,Shallow Question,html.Page,1_1_2_1_0,NA,NA,form submission,9129.3850000477,163337.9000001,163335.194,163351.815,172481.20000005,172481.4000001,2023-10-11T12:03:05Z,172495.833,"c(""distractor1"", ""distractor2"", ""distractor3"")",Gegenwart,hadhara,s,katiba,jokofu,mikopo,katiba,NA,NA,NA,NA,NA,NA,NA,NA,NA,NA,NA,NA,NA,NA,NA,NA,NA,NA,NA,NA,NA,NA
15ff9,"""Richtig""-Screen",canvas.Screen,1_1_2_1_1,NA,NA,skipped,NA,172484.60000014,NA,NA,172481.20000005,172484.70000005,2023-10-11T12:03:05Z,172495.833,"c(""distractor1"", ""distractor2"", ""distractor3"")",Gegenwart,hadhara,s,katiba,jokofu,mikopo,NA,NA,NA,NA,NA,NA,NA,NA,NA,NA,NA,NA,NA,NA,NA,NA,NA,NA,NA,NA,NA,NA,NA
15ff9,"""Falsch""-Screen",canvas.Screen,1_1_2_1_2,NA,NA,timeout,4997.401,172485.60000014,172479.353,172495.833,177476.167,177477.4000001,2023-10-11T12:03:10Z,177493.234,"c(""distractor1"", ""distractor2"", ""distractor3"")",Gegenwart,hadhara,s,katiba,jokofu,mikopo,NA,NA,0,NA,NA,NA,NA,NA,NA,NA,NA,NA,NA,NA,NA,NA,NA,NA,NA,NA,NA,NA,NA
15ff9,shallow,flow.Sequence,1_1_2_1,NA,NA,completion,14124.352,163337.9000001,163335.194,163351.815,177476.167,177477.80000019,2023-10-11T12:03:10Z,177493.234,"c(""distractor1"", ""distractor2"", ""distractor3"")",Gegenwart,hadhara,s,katiba,jokofu,mikopo,NA,NA,NA,NA,NA,NA,NA,NA,NA,NA,NA,NA,NA,NA,NA,NA,NA,NA,NA,NA,NA,NA,NA
15ff9,task,flow.Sequence,1_1_2,NA,NA,completion,14124.352,163337.4000001,163335.194,163351.815,177476.167,177478.20000005,2023-10-11T12:03:10Z,177493.234,"c(""distractor1"", ""distractor2"", ""distractor3"")",Gegenwart,hadhara,s,katiba,jokofu,mikopo,NA,NA,NA,NA,NA,NA,NA,NA,NA,NA,NA,NA,NA,NA,NA,NA,NA,NA,NA,NA,NA,NA,NA
15ff9,deep,flow.Sequence,1_1_3_0,NA,NA,skipped,NA,177478.4000001,NA,NA,177476.167,177478.60000014,2023-10-11T12:03:10Z,177493.234,"c(""distractor1"", ""distractor2"", ""distractor3"")",Kritik,lawama,s,dereva,nafasi,mawazo,NA,NA,NA,NA,NA,NA,NA,NA,NA,NA,NA,NA,NA,NA,NA,NA,NA,NA,NA,NA,NA,NA,NA
15ff9,Shallow Question,html.Page,1_1_3_1_0,NA,NA,form submission,3840.266,177478.80000019,177476.167,177493.234,181333.5,181333.80000019,2023-10-11T12:03:14Z,181340.418,"c(""distractor1"", ""distractor2"", ""distractor3"")",Kritik,lawama,s,dereva,nafasi,mawazo,nafasi,NA,NA,NA,NA,NA,NA,NA,NA,NA,NA,NA,NA,NA,NA,NA,NA,NA,NA,NA,NA,NA,NA
15ff9,"""Richtig""-Screen",canvas.Screen,1_1_3_1_1,NA,NA,skipped,NA,181336.70000005,NA,NA,181333.5,181336.80000019,2023-10-11T12:03:14Z,181340.418,"c(""distractor1"", ""distractor2"", ""distractor3"")",Kritik,lawama,s,dereva,nafasi,mawazo,NA,NA,NA,NA,NA,NA,NA,NA,NA,NA,NA,NA,NA,NA,NA,NA,NA,NA,NA,NA,NA,NA,NA
15ff9,"""Falsch""-Screen",canvas.Screen,1_1_3_1_2,NA,NA,timeout,4997.068,181337.20000005,181324.993,181340.418,186320.9,186322.10000014,2023-10-11T12:03:19Z,186337.486,"c(""distractor1"", ""distractor2"", ""distractor3"")",Kritik,lawama,s,dereva,nafasi,mawazo,NA,NA,0,NA,NA,NA,NA,NA,NA,NA,NA,NA,NA,NA,NA,NA,NA,NA,NA,NA,NA,NA,NA
15ff9,shallow,flow.Sequence,1_1_3_1,NA,NA,completion,8827.666,177478.70000005,177476.167,177493.234,186320.9,186322.70000005,2023-10-11T12:03:19Z,186337.486,"c(""distractor1"", ""distractor2"", ""distractor3"")",Kritik,lawama,s,dereva,nafasi,mawazo,NA,NA,NA,NA,NA,NA,NA,NA,NA,NA,NA,NA,NA,NA,NA,NA,NA,NA,NA,NA,NA,NA,NA
15ff9,task,flow.Sequence,1_1_3,NA,NA,completion,8827.666,177478.4000001,177476.167,177493.234,186320.9,186323,2023-10-11T12:03:19Z,186337.486,"c(""distractor1"", ""distractor2"", ""distractor3"")",Kritik,lawama,s,dereva,nafasi,mawazo,NA,NA,NA,NA,NA,NA,NA,NA,NA,NA,NA,NA,NA,NA,NA,NA,NA,NA,NA,NA,NA,NA,NA
15ff9,Deep Question,html.Page,1_1_4_0_0,NA,NA,form submission,7511.9140000954,186323.30000019,186320.9,186337.486,193849.4000001,193849.70000005,2023-10-11T12:03:26Z,193866.454,"c(""distractor1"", ""distractor2"", ""distractor3"")",Gesundheit,salama,d,NA,NA,NA,kerfi,NA,NA,NA,NA,NA,NA,NA,NA,NA,NA,NA,NA,NA,NA,NA,NA,NA,NA,NA,NA,NA,NA
15ff9,"""Richtig""-Screen",canvas.Screen,1_1_4_0_1,NA,NA,skipped,NA,193852.9000001,NA,NA,193849.4000001,193853.10000014,2023-10-11T12:03:26Z,193866.454,"c(""distractor1"", ""distractor2"", ""distractor3"")",Gesundheit,salama,d,NA,NA,NA,NA,NA,NA,NA,NA,NA,NA,NA,NA,NA,NA,NA,NA,NA,NA,NA,NA,NA,NA,NA,NA,NA,NA
15ff9,"""Falsch""-Screen",canvas.Screen,1_1_4_0_2,NA,NA,timeout,4996.902,193853.9000001,193833.88,193866.454,198846.972,198847.5,2023-10-11T12:03:31Z,198863.356,"c(""distractor1"", ""distractor2"", ""distractor3"")",Gesundheit,salama,d,NA,NA,NA,NA,NA,0,NA,NA,NA,NA,NA,NA,NA,NA,NA,NA,NA,NA,NA,NA,NA,NA,NA,NA,NA,NA
15ff9,deep,flow.Sequence,1_1_4_0,NA,NA,completion,12509.486,186323.30000019,186320.9,186337.486,198846.972,198847.60000014,2023-10-11T12:03:31Z,198863.356,"c(""distractor1"", ""distractor2"", ""distractor3"")",Gesundheit,salama,d,NA,NA,NA,NA,NA,NA,NA,NA,NA,NA,NA,NA,NA,NA,NA,NA,NA,NA,NA,NA,NA,NA,NA,NA,NA,NA
15ff9,shallow,flow.Sequence,1_1_4_1,NA,NA,skipped,NA,198847.60000014,NA,NA,198846.972,198847.60000014,2023-10-11T12:03:31Z,198863.356,"c(""distractor1"", ""distractor2"", ""distractor3"")",Gesundheit,salama,d,NA,NA,NA,NA,NA,NA,NA,NA,NA,NA,NA,NA,NA,NA,NA,NA,NA,NA,NA,NA,NA,NA,NA,NA,NA,NA
15ff9,task,flow.Sequence,1_1_4,NA,NA,completion,12509.486,186323.20000005,186320.9,186337.486,198846.972,198847.80000019,2023-10-11T12:03:31Z,198863.356,"c(""distractor1"", ""distractor2"", ""distractor3"")",Gesundheit,salama,d,NA,NA,NA,NA,NA,NA,NA,NA,NA,NA,NA,NA,NA,NA,NA,NA,NA,NA,NA,NA,NA,NA,NA,NA,NA,NA
15ff9,Deep Question,html.Page,1_1_5_0_0,NA,NA,form submission,7391.2440001431,198847.80000019,198846.972,198863.356,206254.60000014,206254.9000001,2023-10-11T12:03:39Z,206258.502,"c(""distractor1"", ""distractor2"", ""distractor3"")",Qualität,mtindo,d,NA,NA,NA,lika,NA,NA,NA,NA,NA,NA,NA,NA,NA,NA,NA,NA,NA,NA,NA,NA,NA,NA,NA,NA,NA,NA
15ff9,"""Richtig""-Screen",canvas.Screen,1_1_5_0_1,NA,NA,skipped,NA,206258.80000019,NA,NA,206254.60000014,206258.9000001,2023-10-11T12:03:39Z,206258.502,"c(""distractor1"", ""distractor2"", ""distractor3"")",Qualität,mtindo,d,NA,NA,NA,NA,NA,NA,NA,NA,NA,NA,NA,NA,NA,NA,NA,NA,NA,NA,NA,NA,NA,NA,NA,NA,NA,NA
15ff9,"""Falsch""-Screen",canvas.Screen,1_1_5_0_2,NA,NA,timeout,4997.408,206259.4000001,206242.125,206258.502,211238.839,211240,2023-10-11T12:03:44Z,211255.91,"c(""distractor1"", ""distractor2"", ""distractor3"")",Qualität,mtindo,d,NA,NA,NA,NA,NA,0,NA,NA,NA,NA,NA,NA,NA,NA,NA,NA,NA,NA,NA,NA,NA,NA,NA,NA,NA,NA
15ff9,deep,flow.Sequence,1_1_5_0,NA,NA,completion,12375.483,198847.80000019,198846.972,198863.356,211238.839,211240.4000001,2023-10-11T12:03:44Z,211255.91,"c(""distractor1"", ""distractor2"", ""distractor3"")",Qualität,mtindo,d,NA,NA,NA,NA,NA,NA,NA,NA,NA,NA,NA,NA,NA,NA,NA,NA,NA,NA,NA,NA,NA,NA,NA,NA,NA,NA
15ff9,shallow,flow.Sequence,1_1_5_1,NA,NA,skipped,NA,211240.60000014,NA,NA,211238.839,211240.80000019,2023-10-11T12:03:44Z,211255.91,"c(""distractor1"", ""distractor2"", ""distractor3"")",Qualität,mtindo,d,NA,NA,NA,NA,NA,NA,NA,NA,NA,NA,NA,NA,NA,NA,NA,NA,NA,NA,NA,NA,NA,NA,NA,NA,NA,NA
15ff9,task,flow.Sequence,1_1_5,NA,NA,completion,12375.483,198847.80000019,198846.972,198863.356,211238.839,211241.10000014,2023-10-11T12:03:44Z,211255.91,"c(""distractor1"", ""distractor2"", ""distractor3"")",Qualität,mtindo,d,NA,NA,NA,NA,NA,NA,NA,NA,NA,NA,NA,NA,NA,NA,NA,NA,NA,NA,NA,NA,NA,NA,NA,NA,NA,NA
15ff9,block,flow.Loop,1_1,NA,NA,completion,85864.116,125370.10000014,125366.634,125374.723,211238.839,211241.30000019,2023-10-11T12:03:44Z,211255.91,"c(""distractor1"", ""distractor2"", ""distractor3"")",NA,NA,NA,NA,NA,NA,NA,NA,NA,NA,NA,NA,NA,NA,NA,NA,NA,NA,NA,NA,NA,NA,NA,NA,NA,NA,NA,NA,NA
15ff9,Practice,flow.Sequence,1,NA,NA,completion,92893.144,118342.5,118337.129,118345.695,211238.839,211241.60000014,2023-10-11T12:03:44Z,211255.91,NULL,NA,NA,NA,NA,NA,NA,NA,NA,NA,NA,NA,NA,NA,NA,NA,NA,NA,NA,NA,NA,NA,NA,NA,NA,NA,NA,NA,NA,NA
15ff9,Experiment start,canvas.Screen,2,weiter,keypress(q),response,39252.690000143,211241.80000019,211238.839,211255.91,250508.60000014,250509.80000019,2023-10-11T12:04:23Z,250581.349,NULL,NA,NA,NA,NA,NA,NA,NA,NA,NA,NA,NA,NA,NA,NA,NA,NA,NA,NA,NA,NA,NA,NA,NA,NA,NA,NA,NA,NA,NA
15ff9,deep,flow.Sequence,3_0_0_0_0_0,NA,NA,skipped,NA,250573.10000014,NA,NA,250508.60000014,250573.30000019,2023-10-11T12:04:23Z,250581.349,NULL,Schlange,foleni,s,uvumilivu,uteuzi,muuzaji,NA,sdf,NA,0,NA,NA,NA,NA,NA,NA,NA,NA,NA,NA,NA,NA,NA,NA,NA,NA,NA,NA,NA
15ff9,Shallow Question,html.Page,3_0_0_0_0_1_0,NA,NA,form submission,6203.7510001431,250573.30000019,250560.797,250581.349,256785.10000014,256785.4000001,2023-10-11T12:04:29Z,256794.158,NULL,Schlange,foleni,s,uvumilivu,uteuzi,muuzaji,foleni,NA,NA,0,NA,NA,NA,NA,NA,NA,NA,NA,NA,NA,NA,NA,NA,NA,NA,NA,NA,NA,NA
15ff9,"""Richtig""-Screen",canvas.Screen,3_0_0_0_0_1_1,NA,NA,timeout,4997.225,256788.20000005,256776.969,256794.158,261774.781,261775.80000019,2023-10-11T12:04:34Z,261791.383,NULL,Schlange,foleni,s,uvumilivu,uteuzi,muuzaji,NA,sdf,1,0,NA,NA,NA,NA,NA,NA,NA,NA,NA,NA,NA,NA,NA,NA,NA,NA,NA,NA,NA
15ff9,"""Falsch""-Screen",canvas.Screen,3_0_0_0_0_1_2,NA,NA,skipped,NA,261781.20000005,NA,NA,261774.781,261781.30000019,2023-10-11T12:04:34Z,261791.383,NULL,Schlange,foleni,s,uvumilivu,uteuzi,muuzaji,NA,sdf,NA,0,NA,NA,NA,NA,NA,NA,NA,NA,NA,NA,NA,NA,NA,NA,NA,NA,NA,NA,NA
15ff9,shallow,flow.Sequence,3_0_0_0_0_1,NA,NA,completion,11193.432,250573.30000019,250560.797,250581.349,261774.781,261781.4000001,2023-10-11T12:04:34Z,261791.383,NULL,Schlange,foleni,s,uvumilivu,uteuzi,muuzaji,NA,sdf,NA,0,NA,NA,NA,NA,NA,NA,NA,NA,NA,NA,NA,NA,NA,NA,NA,NA,NA,NA,NA
15ff9,task,flow.Sequence,3_0_0_0_0,NA,NA,completion,11193.432,250573.10000014,250560.797,250581.349,261774.781,261781.4000001,2023-10-11T12:04:34Z,261791.383,NULL,Schlange,foleni,s,uvumilivu,uteuzi,muuzaji,NA,sdf,NA,0,NA,NA,NA,NA,NA,NA,NA,NA,NA,NA,NA,NA,NA,NA,NA,NA,NA,NA,NA
15ff9,deep,flow.Sequence,3_0_0_0_1_0,NA,NA,skipped,NA,261781.4000001,NA,NA,261774.781,261781.4000001,2023-10-11T12:04:34Z,261791.383,NULL,Annäherung,maegesho,s,madahili,kujiamini,mapendekezo,NA,sdf,NA,0,NA,NA,NA,NA,NA,NA,NA,NA,NA,NA,NA,NA,NA,NA,NA,NA,NA,NA,NA
15ff9,Shallow Question,html.Page,3_0_0_0_1_1_0,NA,NA,form submission,4628.3170000477,261781.5,261774.781,261791.383,266419.70000005,266419.9000001,2023-10-11T12:04:39Z,266421.586,NULL,Annäherung,maegesho,s,madahili,kujiamini,mapendekezo,madahili,NA,NA,0,NA,NA,NA,NA,NA,NA,NA,NA,NA,NA,NA,NA,NA,NA,NA,NA,NA,NA,NA
15ff9,"""Richtig""-Screen",canvas.Screen,3_0_0_0_1_1_1,NA,NA,skipped,NA,266422.60000014,NA,NA,266419.70000005,266422.70000005,2023-10-11T12:04:39Z,266421.586,NULL,Annäherung,maegesho,s,madahili,kujiamini,mapendekezo,NA,sdf,NA,0,NA,NA,NA,NA,NA,NA,NA,NA,NA,NA,NA,NA,NA,NA,NA,NA,NA,NA,NA
15ff9,"""Falsch""-Screen",canvas.Screen,3_0_0_0_1_1_2,NA,NA,timeout,4997.371,266423.5,266403.458,266421.586,271402.137,271403.10000014,2023-10-11T12:04:44Z,271418.957,NULL,Annäherung,maegesho,s,madahili,kujiamini,mapendekezo,NA,sdf,0,0,NA,NA,NA,NA,NA,NA,NA,NA,NA,NA,NA,NA,NA,NA,NA,NA,NA,NA,NA
15ff9,shallow,flow.Sequence,3_0_0_0_1_1,NA,NA,completion,9610.754,261781.5,261774.781,261791.383,271402.137,271403.5,2023-10-11T12:04:44Z,271418.957,NULL,Annäherung,maegesho,s,madahili,kujiamini,mapendekezo,NA,sdf,NA,0,NA,NA,NA,NA,NA,NA,NA,NA,NA,NA,NA,NA,NA,NA,NA,NA,NA,NA,NA
15ff9,task,flow.Sequence,3_0_0_0_1,NA,NA,completion,9610.754,261781.4000001,261774.781,261791.383,271402.137,271403.70000005,2023-10-11T12:04:44Z,271418.957,NULL,Annäherung,maegesho,s,madahili,kujiamini,mapendekezo,NA,sdf,NA,0,NA,NA,NA,NA,NA,NA,NA,NA,NA,NA,NA,NA,NA,NA,NA,NA,NA,NA,NA
15ff9,Deep Question,html.Page,3_0_0_0_2_0_0,NA,NA,form submission,3618.543,271403.9000001,271402.137,271418.957,275037.5,275037.80000019,2023-10-11T12:04:47Z,275066.86,NULL,Beweis,ushahidi,d,NA,NA,NA,ujfg,NA,NA,0,NA,NA,NA,NA,NA,NA,NA,NA,NA,NA,NA,NA,NA,NA,NA,NA,NA,NA,NA
15ff9,"""Richtig""-Screen",canvas.Screen,3_0_0_0_2_0_1,NA,NA,skipped,NA,275040.80000019,NA,NA,275037.5,275041,2023-10-11T12:04:47Z,275066.86,NULL,Beweis,ushahidi,d,NA,NA,NA,NA,sdf,NA,0,NA,NA,NA,NA,NA,NA,NA,NA,NA,NA,NA,NA,NA,NA,NA,NA,NA,NA,NA
15ff9,"""Falsch""-Screen",canvas.Screen,3_0_0_0_2_0_2,NA,NA,timeout,4996.737,275041.80000019,275050.101,275066.86,280046.66,280047.9000001,2023-10-11T12:04:53Z,280063.597,NULL,Beweis,ushahidi,d,NA,NA,NA,NA,sdf,0,0,NA,NA,NA,NA,NA,NA,NA,NA,NA,NA,NA,NA,NA,NA,NA,NA,NA,NA,NA
15ff9,deep,flow.Sequence,3_0_0_0_2_0,NA,NA,completion,8627.703,271403.80000019,271402.137,271418.957,280046.66,280048.30000019,2023-10-11T12:04:53Z,280063.597,NULL,Beweis,ushahidi,d,NA,NA,NA,NA,sdf,NA,0,NA,NA,NA,NA,NA,NA,NA,NA,NA,NA,NA,NA,NA,NA,NA,NA,NA,NA,NA
15ff9,shallow,flow.Sequence,3_0_0_0_2_1,NA,NA,skipped,NA,280048.4000001,NA,NA,280046.66,280048.60000014,2023-10-11T12:04:53Z,280063.597,NULL,Beweis,ushahidi,d,NA,NA,NA,NA,sdf,NA,0,NA,NA,NA,NA,NA,NA,NA,NA,NA,NA,NA,NA,NA,NA,NA,NA,NA,NA,NA
15ff9,task,flow.Sequence,3_0_0_0_2,NA,NA,completion,8627.703,271403.80000019,271402.137,271418.957,280046.66,280048.80000019,2023-10-11T12:04:53Z,280063.597,NULL,Beweis,ushahidi,d,NA,NA,NA,NA,sdf,NA,0,NA,NA,NA,NA,NA,NA,NA,NA,NA,NA,NA,NA,NA,NA,NA,NA,NA,NA,NA
15ff9,deep,flow.Sequence,3_0_0_0_3_0,NA,NA,skipped,NA,280048.9000001,NA,NA,280046.66,280049,2023-10-11T12:04:53Z,280063.597,NULL,Toleranz,kuvumiliana,s,maombolezo,ujasusi,mchekeshaji,NA,sdf,NA,0,NA,NA,NA,NA,NA,NA,NA,NA,NA,NA,NA,NA,NA,NA,NA,NA,NA,NA,NA
15ff9,Shallow Question,html.Page,3_0_0_0_3_1_0,NA,NA,form submission,4760.2030001907,280049.20000005,280046.66,280063.597,284823.80000019,284824,2023-10-11T12:04:57Z,284826.983,NULL,Toleranz,kuvumiliana,s,maombolezo,ujasusi,mchekeshaji,mchekeshaji,NA,NA,0,NA,NA,NA,NA,NA,NA,NA,NA,NA,NA,NA,NA,NA,NA,NA,NA,NA,NA,NA
15ff9,"""Richtig""-Screen",canvas.Screen,3_0_0_0_3_1_1,NA,NA,skipped,NA,284826.9000001,NA,NA,284823.80000019,284827.20000005,2023-10-11T12:04:57Z,284826.983,NULL,Toleranz,kuvumiliana,s,maombolezo,ujasusi,mchekeshaji,NA,sdf,NA,0,NA,NA,NA,NA,NA,NA,NA,NA,NA,NA,NA,NA,NA,NA,NA,NA,NA,NA,NA
15ff9,"""Falsch""-Screen",canvas.Screen,3_0_0_0_3_1_2,NA,NA,timeout,4997.394,284827.9000001,284811.114,284826.983,289807.431,289809.20000005,2023-10-11T12:05:02Z,289824.377,NULL,Toleranz,kuvumiliana,s,maombolezo,ujasusi,mchekeshaji,NA,sdf,0,0,NA,NA,NA,NA,NA,NA,NA,NA,NA,NA,NA,NA,NA,NA,NA,NA,NA,NA,NA
15ff9,shallow,flow.Sequence,3_0_0_0_3_1,NA,NA,completion,9743.834,280049.20000005,280046.66,280063.597,289807.431,289809.20000005,2023-10-11T12:05:02Z,289824.377,NULL,Toleranz,kuvumiliana,s,maombolezo,ujasusi,mchekeshaji,NA,sdf,NA,0,NA,NA,NA,NA,NA,NA,NA,NA,NA,NA,NA,NA,NA,NA,NA,NA,NA,NA,NA
15ff9,task,flow.Sequence,3_0_0_0_3,NA,NA,completion,9743.834,280048.9000001,280046.66,280063.597,289807.431,289809.30000019,2023-10-11T12:05:02Z,289824.377,NULL,Toleranz,kuvumiliana,s,maombolezo,ujasusi,mchekeshaji,NA,sdf,NA,0,NA,NA,NA,NA,NA,NA,NA,NA,NA,NA,NA,NA,NA,NA,NA,NA,NA,NA,NA
15ff9,Deep Question,html.Page,3_0_0_0_4_0_0,NA,NA,form submission,5846.2230001431,289809.30000019,289807.431,289824.377,295670.60000014,295670.80000019,2023-10-11T12:05:08Z,295687.188,NULL,Polizist,msongora,d,NA,NA,NA,ilop,NA,NA,0,NA,NA,NA,NA,NA,NA,NA,NA,NA,NA,NA,NA,NA,NA,NA,NA,NA,NA,NA
15ff9,"""Richtig""-Screen",canvas.Screen,3_0_0_0_4_0_1,NA,NA,skipped,NA,295674.20000005,NA,NA,295670.60000014,295674.30000019,2023-10-11T12:05:08Z,295687.188,NULL,Polizist,msongora,d,NA,NA,NA,NA,sdf,NA,0,NA,NA,NA,NA,NA,NA,NA,NA,NA,NA,NA,NA,NA,NA,NA,NA,NA,NA,NA
15ff9,"""Falsch""-Screen",canvas.Screen,3_0_0_0_4_0_2,NA,NA,timeout,4997.219,295675.70000005,295653.941,295687.188,300667.493,300668.60000014,2023-10-11T12:05:13Z,300684.407,NULL,Polizist,msongora,d,NA,NA,NA,NA,sdf,0,0,NA,NA,NA,NA,NA,NA,NA,NA,NA,NA,NA,NA,NA,NA,NA,NA,NA,NA,NA
15ff9,deep,flow.Sequence,3_0_0_0_4_0,NA,NA,completion,10843.116,289809.30000019,289807.431,289824.377,300667.493,300668.9000001,2023-10-11T12:05:13Z,300684.407,NULL,Polizist,msongora,d,NA,NA,NA,NA,sdf,NA,0,NA,NA,NA,NA,NA,NA,NA,NA,NA,NA,NA,NA,NA,NA,NA,NA,NA,NA,NA
15ff9,shallow,flow.Sequence,3_0_0_0_4_1,NA,NA,skipped,NA,300669.10000014,NA,NA,300667.493,300669.30000019,2023-10-11T12:05:13Z,300684.407,NULL,Polizist,msongora,d,NA,NA,NA,NA,sdf,NA,0,NA,NA,NA,NA,NA,NA,NA,NA,NA,NA,NA,NA,NA,NA,NA,NA,NA,NA,NA
15ff9,task,flow.Sequence,3_0_0_0_4,NA,NA,completion,10843.116,289809.30000019,289807.431,289824.377,300667.493,300669.5,2023-10-11T12:05:13Z,300684.407,NULL,Polizist,msongora,d,NA,NA,NA,NA,sdf,NA,0,NA,NA,NA,NA,NA,NA,NA,NA,NA,NA,NA,NA,NA,NA,NA,NA,NA,NA,NA
15ff9,deep,flow.Sequence,3_0_0_0_5_0,NA,NA,skipped,NA,300669.70000005,NA,NA,300667.493,300669.9000001,2023-10-11T12:05:13Z,300684.407,NULL,Sympathie,mapendano,s,dhamiria,fungamano,maazimio,NA,sdf,NA,0,NA,NA,NA,NA,NA,NA,NA,NA,NA,NA,NA,NA,NA,NA,NA,NA,NA,NA,NA
15ff9,Shallow Question,html.Page,3_0_0_0_5_1_0,NA,NA,form submission,4336.593,300670,300667.493,300684.407,305021,305021.30000019,2023-10-11T12:05:17Z,305031.261,NULL,Sympathie,mapendano,s,dhamiria,fungamano,maazimio,dhamiria,NA,NA,0,NA,NA,NA,NA,NA,NA,NA,NA,NA,NA,NA,NA,NA,NA,NA,NA,NA,NA,NA
15ff9,"""Richtig""-Screen",canvas.Screen,3_0_0_0_5_1_1,NA,NA,skipped,NA,305024.30000019,NA,NA,305021,305024.5,2023-10-11T12:05:17Z,305031.261,NULL,Sympathie,mapendano,s,dhamiria,fungamano,maazimio,NA,sdf,NA,0,NA,NA,NA,NA,NA,NA,NA,NA,NA,NA,NA,NA,NA,NA,NA,NA,NA,NA,NA
15ff9,"""Falsch""-Screen",canvas.Screen,3_0_0_0_5_1_2,NA,NA,timeout,4997.281,305025.10000014,305015.173,305031.261,310011.77,310012.80000019,2023-10-11T12:05:22Z,310028.542,NULL,Sympathie,mapendano,s,dhamiria,fungamano,maazimio,NA,sdf,0,0,NA,NA,NA,NA,NA,NA,NA,NA,NA,NA,NA,NA,NA,NA,NA,NA,NA,NA,NA
15ff9,shallow,flow.Sequence,3_0_0_0_5_1,NA,NA,completion,9327.363,300670,300667.493,300684.407,310011.77,310013.30000019,2023-10-11T12:05:22Z,310028.542,NULL,Sympathie,mapendano,s,dhamiria,fungamano,maazimio,NA,sdf,NA,0,NA,NA,NA,NA,NA,NA,NA,NA,NA,NA,NA,NA,NA,NA,NA,NA,NA,NA,NA
15ff9,task,flow.Sequence,3_0_0_0_5,NA,NA,completion,9327.363,300669.60000014,300667.493,300684.407,310011.77,310013.4000001,2023-10-11T12:05:22Z,310028.542,NULL,Sympathie,mapendano,s,dhamiria,fungamano,maazimio,NA,sdf,NA,0,NA,NA,NA,NA,NA,NA,NA,NA,NA,NA,NA,NA,NA,NA,NA,NA,NA,NA,NA
15ff9,Deep Question,html.Page,3_0_0_0_6_0_0,NA,NA,form submission,2870.1580000477,310013.70000005,310011.77,310028.542,312898.70000005,312898.9000001,2023-10-11T12:05:25Z,312909.909,NULL,Vermutung,udhanifu,d,NA,NA,NA,qgl,NA,NA,0,NA,NA,NA,NA,NA,NA,NA,NA,NA,NA,NA,NA,NA,NA,NA,NA,NA,NA,NA
15ff9,"""Richtig""-Screen",canvas.Screen,3_0_0_0_6_0_1,NA,NA,skipped,NA,312902,NA,NA,312898.70000005,312902.10000014,2023-10-11T12:05:25Z,312909.909,NULL,Vermutung,udhanifu,d,NA,NA,NA,NA,sdf,NA,0,NA,NA,NA,NA,NA,NA,NA,NA,NA,NA,NA,NA,NA,NA,NA,NA,NA,NA,NA
15ff9,"""Falsch""-Screen",canvas.Screen,3_0_0_0_6_0_2,NA,NA,timeout,4997.124,312902.9000001,312893.504,312909.909,317890.404,317891,2023-10-11T12:05:30Z,317907.033,NULL,Vermutung,udhanifu,d,NA,NA,NA,NA,sdf,0,0,NA,NA,NA,NA,NA,NA,NA,NA,NA,NA,NA,NA,NA,NA,NA,NA,NA,NA,NA
15ff9,deep,flow.Sequence,3_0_0_0_6_0,NA,NA,completion,7861.862,310013.70000005,310011.77,310028.542,317890.404,317891.10000014,2023-10-11T12:05:30Z,317907.033,NULL,Vermutung,udhanifu,d,NA,NA,NA,NA,sdf,NA,0,NA,NA,NA,NA,NA,NA,NA,NA,NA,NA,NA,NA,NA,NA,NA,NA,NA,NA,NA
15ff9,shallow,flow.Sequence,3_0_0_0_6_1,NA,NA,skipped,NA,317891.10000014,NA,NA,317890.404,317891.20000005,2023-10-11T12:05:30Z,317907.033,NULL,Vermutung,udhanifu,d,NA,NA,NA,NA,sdf,NA,0,NA,NA,NA,NA,NA,NA,NA,NA,NA,NA,NA,NA,NA,NA,NA,NA,NA,NA,NA
15ff9,task,flow.Sequence,3_0_0_0_6,NA,NA,completion,7861.862,310013.60000014,310011.77,310028.542,317890.404,317891.30000019,2023-10-11T12:05:30Z,317907.033,NULL,Vermutung,udhanifu,d,NA,NA,NA,NA,sdf,NA,0,NA,NA,NA,NA,NA,NA,NA,NA,NA,NA,NA,NA,NA,NA,NA,NA,NA,NA,NA
15ff9,Deep Question,html.Page,3_0_0_0_7_0_0,NA,NA,form submission,5117.3670000954,317891.30000019,317890.404,317907.033,323024.4000001,323024.5,2023-10-11T12:05:35Z,323037.004,NULL,Inhalt,yaliyomo,d,NA,NA,NA,hali,NA,NA,0,NA,NA,NA,NA,NA,NA,NA,NA,NA,NA,NA,NA,NA,NA,NA,NA,NA,NA,NA
15ff9,"""Richtig""-Screen",canvas.Screen,3_0_0_0_7_0_1,NA,NA,skipped,NA,323027.70000005,NA,NA,323024.4000001,323027.9000001,2023-10-11T12:05:35Z,323037.004,NULL,Inhalt,yaliyomo,d,NA,NA,NA,NA,sdf,NA,0,NA,NA,NA,NA,NA,NA,NA,NA,NA,NA,NA,NA,NA,NA,NA,NA,NA,NA,NA
15ff9,"""Falsch""-Screen",canvas.Screen,3_0_0_0_7_0_2,NA,NA,timeout,4997.284,323028.70000005,323020.351,323037.004,328017.709,328018.80000019,2023-10-11T12:05:40Z,328034.288,NULL,Inhalt,yaliyomo,d,NA,NA,NA,NA,sdf,0,0,NA,NA,NA,NA,NA,NA,NA,NA,NA,NA,NA,NA,NA,NA,NA,NA,NA,NA,NA
15ff9,deep,flow.Sequence,3_0_0_0_7_0,NA,NA,completion,10110.676,317891.30000019,317890.404,317907.033,328017.709,328019.20000005,2023-10-11T12:05:40Z,328034.288,NULL,Inhalt,yaliyomo,d,NA,NA,NA,NA,sdf,NA,0,NA,NA,NA,NA,NA,NA,NA,NA,NA,NA,NA,NA,NA,NA,NA,NA,NA,NA,NA
15ff9,shallow,flow.Sequence,3_0_0_0_7_1,NA,NA,skipped,NA,328019.4000001,NA,NA,328017.709,328019.60000014,2023-10-11T12:05:40Z,328034.288,NULL,Inhalt,yaliyomo,d,NA,NA,NA,NA,sdf,NA,0,NA,NA,NA,NA,NA,NA,NA,NA,NA,NA,NA,NA,NA,NA,NA,NA,NA,NA,NA
15ff9,task,flow.Sequence,3_0_0_0_7,NA,NA,completion,10110.676,317891.30000019,317890.404,317907.033,328017.709,328019.80000019,2023-10-11T12:05:40Z,328034.288,NULL,Inhalt,yaliyomo,d,NA,NA,NA,NA,sdf,NA,0,NA,NA,NA,NA,NA,NA,NA,NA,NA,NA,NA,NA,NA,NA,NA,NA,NA,NA,NA
15ff9,block,flow.Loop,3_0_0_0,NA,NA,completion,77436.36,250573.10000014,250560.797,250581.349,328017.709,328020.10000014,2023-10-11T12:05:40Z,328034.288,NULL,NA,NA,NA,NA,NA,NA,NA,sdf,NA,0,NA,NA,NA,NA,NA,NA,NA,NA,NA,NA,NA,NA,NA,NA,NA,NA,NA,NA,NA
15ff9,weiter,canvas.Screen,3_0_0_1,sdf,keypress(Space),response,2063.712,328020.20000005,328017.709,328034.288,330098,330099,2023-10-11T12:05:43Z,330149.189,NULL,NA,NA,NA,NA,NA,NA,NA,sdf,NA,0,NA,NA,NA,NA,NA,NA,NA,NA,NA,NA,NA,NA,NA,NA,NA,NA,NA,NA,NA
15ff9,check continue,flow.Sequence,3_0_0,NA,NA,completion,79516.651,250573,250560.797,250581.349,330098,330099.4000001,2023-10-11T12:05:43Z,330149.189,NULL,NA,NA,NA,NA,NA,NA,NA,sdf,NA,0,NA,NA,NA,NA,NA,NA,NA,NA,NA,NA,NA,NA,NA,NA,NA,NA,NA,NA,NA
15ff9,Deep Question,html.Page,3_0_1_0_0_0_0,NA,NA,form submission,7252.311,330143.10000014,330133.87,330149.189,337401.5,337401.70000005,2023-10-11T12:05:50Z,337411.422,NULL,Beweis,ushahidi,d,NA,NA,NA,matedp,NA,NA,1,NA,NA,NA,NA,NA,NA,NA,NA,NA,NA,NA,NA,NA,NA,NA,NA,NA,NA,NA
15ff9,"""Richtig""-Screen",canvas.Screen,3_0_1_0_0_0_1,NA,NA,skipped,NA,337403.20000005,NA,NA,337401.5,337403.30000019,2023-10-11T12:05:50Z,337411.422,NULL,Beweis,ushahidi,d,NA,NA,NA,NA,sdfdsf,NA,1,NA,NA,NA,NA,NA,NA,NA,NA,NA,NA,NA,NA,NA,NA,NA,NA,NA,NA,NA
15ff9,"""Falsch""-Screen",canvas.Screen,3_0_1_0_0_0_2,NA,NA,timeout,4997.307,337403.80000019,337395.359,337411.422,342391.895,342392.9000001,2023-10-11T12:05:55Z,342408.729,NULL,Beweis,ushahidi,d,NA,NA,NA,NA,sdfdsf,0,1,NA,NA,NA,NA,NA,NA,NA,NA,NA,NA,NA,NA,NA,NA,NA,NA,NA,NA,NA
15ff9,deep,flow.Sequence,3_0_1_0_0_0,NA,NA,completion,12242.706,330143.10000014,330133.87,330149.189,342391.895,342393.4000001,2023-10-11T12:05:55Z,342408.729,NULL,Beweis,ushahidi,d,NA,NA,NA,NA,sdfdsf,NA,1,NA,NA,NA,NA,NA,NA,NA,NA,NA,NA,NA,NA,NA,NA,NA,NA,NA,NA,NA
15ff9,shallow,flow.Sequence,3_0_1_0_0_1,NA,NA,skipped,NA,342393.5,NA,NA,342391.895,342393.70000005,2023-10-11T12:05:55Z,342408.729,NULL,Beweis,ushahidi,d,NA,NA,NA,NA,sdfdsf,NA,1,NA,NA,NA,NA,NA,NA,NA,NA,NA,NA,NA,NA,NA,NA,NA,NA,NA,NA,NA
15ff9,task,flow.Sequence,3_0_1_0_0,NA,NA,completion,12242.706,330143,330133.87,330149.189,342391.895,342393.9000001,2023-10-11T12:05:55Z,342408.729,NULL,Beweis,ushahidi,d,NA,NA,NA,NA,sdfdsf,NA,1,NA,NA,NA,NA,NA,NA,NA,NA,NA,NA,NA,NA,NA,NA,NA,NA,NA,NA,NA
15ff9,Deep Question,html.Page,3_0_1_0_1_0_0,NA,NA,form submission,9145.5710001907,342394.10000014,342391.895,342408.729,351554.30000019,351554.60000014,2023-10-11T12:06:04Z,351569.444,NULL,Inhalt,yaliyomo,d,NA,NA,NA,palu,NA,NA,1,NA,NA,NA,NA,NA,NA,NA,NA,NA,NA,NA,NA,NA,NA,NA,NA,NA,NA,NA
15ff9,"""Richtig""-Screen",canvas.Screen,3_0_1_0_1_0_1,NA,NA,skipped,NA,351557.70000005,NA,NA,351554.30000019,351557.80000019,2023-10-11T12:06:04Z,351569.444,NULL,Inhalt,yaliyomo,d,NA,NA,NA,NA,sdfdsf,NA,1,NA,NA,NA,NA,NA,NA,NA,NA,NA,NA,NA,NA,NA,NA,NA,NA,NA,NA,NA
15ff9,"""Falsch""-Screen",canvas.Screen,3_0_1_0_1_0_2,NA,NA,timeout,4997.479,351558.5,351553.241,351569.444,356549.73,356550.80000019,2023-10-11T12:06:09Z,356566.923,NULL,Inhalt,yaliyomo,d,NA,NA,NA,NA,sdfdsf,0,1,NA,NA,NA,NA,NA,NA,NA,NA,NA,NA,NA,NA,NA,NA,NA,NA,NA,NA,NA
15ff9,deep,flow.Sequence,3_0_1_0_1_0,NA,NA,completion,14141.001,342394.10000014,342391.895,342408.729,356549.73,356551.10000014,2023-10-11T12:06:09Z,356566.923,NULL,Inhalt,yaliyomo,d,NA,NA,NA,NA,sdfdsf,NA,1,NA,NA,NA,NA,NA,NA,NA,NA,NA,NA,NA,NA,NA,NA,NA,NA,NA,NA,NA
15ff9,shallow,flow.Sequence,3_0_1_0_1_1,NA,NA,skipped,NA,356551.30000019,NA,NA,356549.73,356551.5,2023-10-11T12:06:09Z,356566.923,NULL,Inhalt,yaliyomo,d,NA,NA,NA,NA,sdfdsf,NA,1,NA,NA,NA,NA,NA,NA,NA,NA,NA,NA,NA,NA,NA,NA,NA,NA,NA,NA,NA
15ff9,task,flow.Sequence,3_0_1_0_1,NA,NA,completion,14141.001,342394.10000014,342391.895,342408.729,356549.73,356551.70000005,2023-10-11T12:06:09Z,356566.923,NULL,Inhalt,yaliyomo,d,NA,NA,NA,NA,sdfdsf,NA,1,NA,NA,NA,NA,NA,NA,NA,NA,NA,NA,NA,NA,NA,NA,NA,NA,NA,NA,NA
15ff9,deep,flow.Sequence,3_0_1_0_2_0,NA,NA,skipped,NA,356551.9000001,NA,NA,356549.73,356552,2023-10-11T12:06:09Z,356566.923,NULL,Annäherung,maegesho,s,madahili,kujiamini,mapendekezo,NA,sdfdsf,NA,1,NA,NA,NA,NA,NA,NA,NA,NA,NA,NA,NA,NA,NA,NA,NA,NA,NA,NA,NA
15ff9,Shallow Question,html.Page,3_0_1_0_2_1_0,NA,NA,form submission,5476.8770001907,356552.20000005,356549.73,356566.923,362043.80000019,362044,2023-10-11T12:06:15Z,362046.332,NULL,Annäherung,maegesho,s,madahili,kujiamini,mapendekezo,maegesho,NA,NA,1,NA,NA,NA,NA,NA,NA,NA,NA,NA,NA,NA,NA,NA,NA,NA,NA,NA,NA,NA
15ff9,"""Richtig""-Screen",canvas.Screen,3_0_1_0_2_1_1,NA,NA,timeout,4996.965,362047.10000014,362030.583,362046.332,367027.09,367027.80000019,2023-10-11T12:06:19Z,367043.297,NULL,Annäherung,maegesho,s,madahili,kujiamini,mapendekezo,NA,sdfdsf,1,1,NA,NA,NA,NA,NA,NA,NA,NA,NA,NA,NA,NA,NA,NA,NA,NA,NA,NA,NA
15ff9,"""Falsch""-Screen",canvas.Screen,3_0_1_0_2_1_2,NA,NA,skipped,NA,367031.80000019,NA,NA,367027.09,367032.10000014,2023-10-11T12:06:19Z,367043.297,NULL,Annäherung,maegesho,s,madahili,kujiamini,mapendekezo,NA,sdfdsf,NA,1,NA,NA,NA,NA,NA,NA,NA,NA,NA,NA,NA,NA,NA,NA,NA,NA,NA,NA,NA
15ff9,shallow,flow.Sequence,3_0_1_0_2_1,NA,NA,completion,10460.167,356552.10000014,356549.73,356566.923,367027.09,367032.4000001,2023-10-11T12:06:19Z,367043.297,NULL,Annäherung,maegesho,s,madahili,kujiamini,mapendekezo,NA,sdfdsf,NA,1,NA,NA,NA,NA,NA,NA,NA,NA,NA,NA,NA,NA,NA,NA,NA,NA,NA,NA,NA
15ff9,task,flow.Sequence,3_0_1_0_2,NA,NA,completion,10460.167,356551.80000019,356549.73,356566.923,367027.09,367032.60000014,2023-10-11T12:06:19Z,367043.297,NULL,Annäherung,maegesho,s,madahili,kujiamini,mapendekezo,NA,sdfdsf,NA,1,NA,NA,NA,NA,NA,NA,NA,NA,NA,NA,NA,NA,NA,NA,NA,NA,NA,NA,NA
15ff9,Deep Question,html.Page,3_0_1_0_3_0_0,NA,NA,form submission,6735.803000143,367032.70000005,367027.09,367043.297,373779.10000014,373779.4000001,2023-10-11T12:06:26Z,373789.035,NULL,Polizist,msongora,d,NA,NA,NA,samai,NA,NA,1,NA,NA,NA,NA,NA,NA,NA,NA,NA,NA,NA,NA,NA,NA,NA,NA,NA,NA,NA
15ff9,"""Richtig""-Screen",canvas.Screen,3_0_1_0_3_0_1,NA,NA,skipped,NA,373782.5,NA,NA,373779.10000014,373782.60000014,2023-10-11T12:06:26Z,373789.035,NULL,Polizist,msongora,d,NA,NA,NA,NA,sdfdsf,NA,1,NA,NA,NA,NA,NA,NA,NA,NA,NA,NA,NA,NA,NA,NA,NA,NA,NA,NA,NA
15ff9,"""Falsch""-Screen",canvas.Screen,3_0_1_0_3_0_2,NA,NA,timeout,4997.274,373783.20000005,373773.078,373789.035,378769.77,378770.80000019,2023-10-11T12:06:31Z,378786.309,NULL,Polizist,msongora,d,NA,NA,NA,NA,sdfdsf,0,1,NA,NA,NA,NA,NA,NA,NA,NA,NA,NA,NA,NA,NA,NA,NA,NA,NA,NA,NA
15ff9,deep,flow.Sequence,3_0_1_0_3_0,NA,NA,completion,11726.473,367032.70000005,367027.09,367043.297,378769.77,378771.10000014,2023-10-11T12:06:31Z,378786.309,NULL,Polizist,msongora,d,NA,NA,NA,NA,sdfdsf,NA,1,NA,NA,NA,NA,NA,NA,NA,NA,NA,NA,NA,NA,NA,NA,NA,NA,NA,NA,NA
15ff9,shallow,flow.Sequence,3_0_1_0_3_1,NA,NA,skipped,NA,378771.30000019,NA,NA,378769.77,378771.5,2023-10-11T12:06:31Z,378786.309,NULL,Polizist,msongora,d,NA,NA,NA,NA,sdfdsf,NA,1,NA,NA,NA,NA,NA,NA,NA,NA,NA,NA,NA,NA,NA,NA,NA,NA,NA,NA,NA
15ff9,task,flow.Sequence,3_0_1_0_3,NA,NA,completion,11726.473,367032.70000005,367027.09,367043.297,378769.77,378771.70000005,2023-10-11T12:06:31Z,378786.309,NULL,Polizist,msongora,d,NA,NA,NA,NA,sdfdsf,NA,1,NA,NA,NA,NA,NA,NA,NA,NA,NA,NA,NA,NA,NA,NA,NA,NA,NA,NA,NA
15ff9,Deep Question,html.Page,3_0_1_0_4_0_0,NA,NA,form submission,7061.8910000477,378772,378769.77,378786.309,385848.20000005,385848.4000001,2023-10-11T12:06:38Z,385865.487,NULL,Vermutung,udhanifu,d,NA,NA,NA,halo,NA,NA,1,NA,NA,NA,NA,NA,NA,NA,NA,NA,NA,NA,NA,NA,NA,NA,NA,NA,NA,NA
15ff9,"""Richtig""-Screen",canvas.Screen,3_0_1_0_4_0_1,NA,NA,skipped,NA,385850,NA,NA,385848.20000005,385850.10000014,2023-10-11T12:06:38Z,385865.487,NULL,Vermutung,udhanifu,d,NA,NA,NA,NA,sdfdsf,NA,1,NA,NA,NA,NA,NA,NA,NA,NA,NA,NA,NA,NA,NA,NA,NA,NA,NA,NA,NA
15ff9,"""Falsch""-Screen",canvas.Screen,3_0_1_0_4_0_2,NA,NA,timeout,4996.902,385850.4000001,385832.468,385865.487,390845.807,390846.9000001,2023-10-11T12:06:43Z,390862.389,NULL,Vermutung,udhanifu,d,NA,NA,NA,NA,sdfdsf,0,1,NA,NA,NA,NA,NA,NA,NA,NA,NA,NA,NA,NA,NA,NA,NA,NA,NA,NA,NA
15ff9,deep,flow.Sequence,3_0_1_0_4_0,NA,NA,completion,12059.498,378771.9000001,378769.77,378786.309,390845.807,390847.4000001,2023-10-11T12:06:43Z,390862.389,NULL,Vermutung,udhanifu,d,NA,NA,NA,NA,sdfdsf,NA,1,NA,NA,NA,NA,NA,NA,NA,NA,NA,NA,NA,NA,NA,NA,NA,NA,NA,NA,NA
15ff9,shallow,flow.Sequence,3_0_1_0_4_1,NA,NA,skipped,NA,390847.5,NA,NA,390845.807,390847.80000019,2023-10-11T12:06:43Z,390862.389,NULL,Vermutung,udhanifu,d,NA,NA,NA,NA,sdfdsf,NA,1,NA,NA,NA,NA,NA,NA,NA,NA,NA,NA,NA,NA,NA,NA,NA,NA,NA,NA,NA
15ff9,task,flow.Sequence,3_0_1_0_4,NA,NA,completion,12059.498,378771.9000001,378769.77,378786.309,390845.807,390848.10000014,2023-10-11T12:06:43Z,390862.389,NULL,Vermutung,udhanifu,d,NA,NA,NA,NA,sdfdsf,NA,1,NA,NA,NA,NA,NA,NA,NA,NA,NA,NA,NA,NA,NA,NA,NA,NA,NA,NA,NA
15ff9,deep,flow.Sequence,3_0_1_0_5_0,NA,NA,skipped,NA,390848.20000005,NA,NA,390845.807,390848.4000001,2023-10-11T12:06:43Z,390862.389,NULL,Sympathie,mapendano,s,dhamiria,fungamano,maazimio,NA,sdfdsf,NA,1,NA,NA,NA,NA,NA,NA,NA,NA,NA,NA,NA,NA,NA,NA,NA,NA,NA,NA,NA
15ff9,Shallow Question,html.Page,3_0_1_0_5_1_0,NA,NA,form submission,4548.4110001907,390848.5,390845.807,390862.389,395410.80000019,395411.10000014,2023-10-11T12:06:48Z,395426.346,NULL,Sympathie,mapendano,s,dhamiria,fungamano,maazimio,mapendano,NA,NA,1,NA,NA,NA,NA,NA,NA,NA,NA,NA,NA,NA,NA,NA,NA,NA,NA,NA,NA,NA
15ff9,"""Richtig""-Screen",canvas.Screen,3_0_1_0_5_1_1,NA,NA,timeout,4996.924,395414.10000014,395409.558,395426.346,400406.127,400407.10000014,2023-10-11T12:06:53Z,400423.27,NULL,Sympathie,mapendano,s,dhamiria,fungamano,maazimio,NA,sdfdsf,1,1,NA,NA,NA,NA,NA,NA,NA,NA,NA,NA,NA,NA,NA,NA,NA,NA,NA,NA,NA
15ff9,"""Falsch""-Screen",canvas.Screen,3_0_1_0_5_1_2,NA,NA,skipped,NA,400412.20000005,NA,NA,400406.127,400412.5,2023-10-11T12:06:53Z,400423.27,NULL,Sympathie,mapendano,s,dhamiria,fungamano,maazimio,NA,sdfdsf,NA,1,NA,NA,NA,NA,NA,NA,NA,NA,NA,NA,NA,NA,NA,NA,NA,NA,NA,NA,NA
15ff9,shallow,flow.Sequence,3_0_1_0_5_1,NA,NA,completion,9543.738,390848.4000001,390845.807,390862.389,400406.127,400412.5,2023-10-11T12:06:53Z,400423.27,NULL,Sympathie,mapendano,s,dhamiria,fungamano,maazimio,NA,sdfdsf,NA,1,NA,NA,NA,NA,NA,NA,NA,NA,NA,NA,NA,NA,NA,NA,NA,NA,NA,NA,NA
15ff9,task,flow.Sequence,3_0_1_0_5,NA,NA,completion,9543.738,390848.10000014,390845.807,390862.389,400406.127,400412.60000014,2023-10-11T12:06:53Z,400423.27,NULL,Sympathie,mapendano,s,dhamiria,fungamano,maazimio,NA,sdfdsf,NA,1,NA,NA,NA,NA,NA,NA,NA,NA,NA,NA,NA,NA,NA,NA,NA,NA,NA,NA,NA
15ff9,deep,flow.Sequence,3_0_1_0_6_0,NA,NA,skipped,NA,400412.60000014,NA,NA,400406.127,400412.70000005,2023-10-11T12:06:53Z,400423.27,NULL,Schlange,foleni,s,uvumilivu,uteuzi,muuzaji,NA,sdfdsf,NA,1,NA,NA,NA,NA,NA,NA,NA,NA,NA,NA,NA,NA,NA,NA,NA,NA,NA,NA,NA
15ff9,Shallow Question,html.Page,3_0_1_0_6_1_0,NA,NA,form submission,4203.73,400412.70000005,400406.127,400423.27,404627,404627.30000019,2023-10-11T12:06:57Z,404637.059,NULL,Schlange,foleni,s,uvumilivu,uteuzi,muuzaji,foleni,NA,NA,1,NA,NA,NA,NA,NA,NA,NA,NA,NA,NA,NA,NA,NA,NA,NA,NA,NA,NA,NA
15ff9,"""Richtig""-Screen",canvas.Screen,3_0_1_0_6_1_1,NA,NA,timeout,4997.194,404629.70000005,404619.877,404637.059,409617.696,409618.80000019,2023-10-11T12:07:02Z,409634.253,NULL,Schlange,foleni,s,uvumilivu,uteuzi,muuzaji,NA,sdfdsf,1,1,NA,NA,NA,NA,NA,NA,NA,NA,NA,NA,NA,NA,NA,NA,NA,NA,NA,NA,NA
15ff9,"""Falsch""-Screen",canvas.Screen,3_0_1_0_6_1_2,NA,NA,skipped,NA,409624.10000014,NA,NA,409617.696,409624.20000005,2023-10-11T12:07:02Z,409634.253,NULL,Schlange,foleni,s,uvumilivu,uteuzi,muuzaji,NA,sdfdsf,NA,1,NA,NA,NA,NA,NA,NA,NA,NA,NA,NA,NA,NA,NA,NA,NA,NA,NA,NA,NA
15ff9,shallow,flow.Sequence,3_0_1_0_6_1,NA,NA,completion,9194.426,400412.70000005,400406.127,400423.27,409617.696,409624.30000019,2023-10-11T12:07:02Z,409634.253,NULL,Schlange,foleni,s,uvumilivu,uteuzi,muuzaji,NA,sdfdsf,NA,1,NA,NA,NA,NA,NA,NA,NA,NA,NA,NA,NA,NA,NA,NA,NA,NA,NA,NA,NA
15ff9,task,flow.Sequence,3_0_1_0_6,NA,NA,completion,9194.426,400412.60000014,400406.127,400423.27,409617.696,409624.4000001,2023-10-11T12:07:02Z,409634.253,NULL,Schlange,foleni,s,uvumilivu,uteuzi,muuzaji,NA,sdfdsf,NA,1,NA,NA,NA,NA,NA,NA,NA,NA,NA,NA,NA,NA,NA,NA,NA,NA,NA,NA,NA
15ff9,deep,flow.Sequence,3_0_1_0_7_0,NA,NA,skipped,NA,409624.4000001,NA,NA,409617.696,409624.5,2023-10-11T12:07:02Z,409634.253,NULL,Toleranz,kuvumiliana,s,maombolezo,ujasusi,mchekeshaji,NA,sdfdsf,NA,1,NA,NA,NA,NA,NA,NA,NA,NA,NA,NA,NA,NA,NA,NA,NA,NA,NA,NA,NA
15ff9,Shallow Question,html.Page,3_0_1_0_7_1_0,NA,NA,form submission,7332.847000143,409624.5,409617.696,409634.253,416967.10000014,416967.4000001,2023-10-11T12:07:09Z,416979.784,NULL,Toleranz,kuvumiliana,s,maombolezo,ujasusi,mchekeshaji,maombolezo,NA,NA,1,NA,NA,NA,NA,NA,NA,NA,NA,NA,NA,NA,NA,NA,NA,NA,NA,NA,NA,NA
15ff9,"""Richtig""-Screen",canvas.Screen,3_0_1_0_7_1_1,NA,NA,skipped,NA,416970.4000001,NA,NA,416967.10000014,416970.60000014,2023-10-11T12:07:09Z,416979.784,NULL,Toleranz,kuvumiliana,s,maombolezo,ujasusi,mchekeshaji,NA,sdfdsf,NA,1,NA,NA,NA,NA,NA,NA,NA,NA,NA,NA,NA,NA,NA,NA,NA,NA,NA,NA,NA
15ff9,"""Falsch""-Screen",canvas.Screen,3_0_1_0_7_1_2,NA,NA,timeout,4996.861,416971.4000001,416961.37,416979.784,421959.64,421960.10000014,2023-10-11T12:07:14Z,421976.645,NULL,Toleranz,kuvumiliana,s,maombolezo,ujasusi,mchekeshaji,NA,sdfdsf,0,1,NA,NA,NA,NA,NA,NA,NA,NA,NA,NA,NA,NA,NA,NA,NA,NA,NA,NA,NA
15ff9,shallow,flow.Sequence,3_0_1_0_7_1,NA,NA,completion,12325.387,409624.5,409617.696,409634.253,421959.64,421960.30000019,2023-10-11T12:07:14Z,421976.645,NULL,Toleranz,kuvumiliana,s,maombolezo,ujasusi,mchekeshaji,NA,sdfdsf,NA,1,NA,NA,NA,NA,NA,NA,NA,NA,NA,NA,NA,NA,NA,NA,NA,NA,NA,NA,NA
15ff9,task,flow.Sequence,3_0_1_0_7,NA,NA,completion,12325.387,409624.4000001,409617.696,409634.253,421959.64,421960.30000019,2023-10-11T12:07:14Z,421976.645,NULL,Toleranz,kuvumiliana,s,maombolezo,ujasusi,mchekeshaji,NA,sdfdsf,NA,1,NA,NA,NA,NA,NA,NA,NA,NA,NA,NA,NA,NA,NA,NA,NA,NA,NA,NA,NA
15ff9,block,flow.Loop,3_0_1_0,NA,NA,completion,91810.451,330143,330133.87,330149.189,421959.64,421960.30000019,2023-10-11T12:07:14Z,421976.645,NULL,NA,NA,NA,NA,NA,NA,NA,sdfdsf,NA,1,NA,NA,NA,NA,NA,NA,NA,NA,NA,NA,NA,NA,NA,NA,NA,NA,NA,NA,NA
15ff9,weiter,canvas.Screen,3_0_1_1,sdf,keypress(Space),response,1472.355,421960.4000001,421959.64,421976.645,423449,423449.60000014,2023-10-11T12:07:16Z,423492.174,NULL,NA,NA,NA,NA,NA,NA,NA,sdfdsf,NA,1,NA,NA,NA,NA,NA,NA,NA,NA,NA,NA,NA,NA,NA,NA,NA,NA,NA,NA,NA
15ff9,check continue,flow.Sequence,3_0_1,NA,NA,completion,93299.811,330143,330133.87,330149.189,423449,423449.80000019,2023-10-11T12:07:16Z,423492.174,NULL,NA,NA,NA,NA,NA,NA,NA,sdfdsf,NA,1,NA,NA,NA,NA,NA,NA,NA,NA,NA,NA,NA,NA,NA,NA,NA,NA,NA,NA,NA
15ff9,Deep Question,html.Page,3_0_2_0_0_0_0,NA,NA,form submission,10863.626000191,423483.20000005,423475.451,423492.174,434355.80000019,434356,2023-10-11T12:07:27Z,434368.836,NULL,Vermutung,udhanifu,d,NA,NA,NA,mhengudo,NA,NA,2,NA,NA,NA,NA,NA,NA,NA,NA,NA,NA,NA,NA,NA,NA,NA,NA,NA,NA,NA
15ff9,"""Richtig""-Screen",canvas.Screen,3_0_2_0_0_0_1,NA,NA,skipped,NA,434359.30000019,NA,NA,434355.80000019,434359.60000014,2023-10-11T12:07:27Z,434368.836,NULL,Vermutung,udhanifu,d,NA,NA,NA,NA,sdf,NA,2,NA,NA,NA,NA,NA,NA,NA,NA,NA,NA,NA,NA,NA,NA,NA,NA,NA,NA,NA
15ff9,"""Falsch""-Screen",canvas.Screen,3_0_2_0_0_0_2,NA,NA,timeout,4997.18,434360.30000019,434351.738,434368.836,439349.307,439350.4000001,2023-10-11T12:07:32Z,439366.016,NULL,Vermutung,udhanifu,d,NA,NA,NA,NA,sdf,0,2,NA,NA,NA,NA,NA,NA,NA,NA,NA,NA,NA,NA,NA,NA,NA,NA,NA,NA,NA
15ff9,deep,flow.Sequence,3_0_2_0_0_0,NA,NA,completion,15857.133,423483.20000005,423475.451,423492.174,439349.307,439350.70000005,2023-10-11T12:07:32Z,439366.016,NULL,Vermutung,udhanifu,d,NA,NA,NA,NA,sdf,NA,2,NA,NA,NA,NA,NA,NA,NA,NA,NA,NA,NA,NA,NA,NA,NA,NA,NA,NA,NA
15ff9,shallow,flow.Sequence,3_0_2_0_0_1,NA,NA,skipped,NA,439350.9000001,NA,NA,439349.307,439351,2023-10-11T12:07:32Z,439366.016,NULL,Vermutung,udhanifu,d,NA,NA,NA,NA,sdf,NA,2,NA,NA,NA,NA,NA,NA,NA,NA,NA,NA,NA,NA,NA,NA,NA,NA,NA,NA,NA
15ff9,task,flow.Sequence,3_0_2_0_0,NA,NA,completion,15857.133,423483.20000005,423475.451,423492.174,439349.307,439351.30000019,2023-10-11T12:07:32Z,439366.016,NULL,Vermutung,udhanifu,d,NA,NA,NA,NA,sdf,NA,2,NA,NA,NA,NA,NA,NA,NA,NA,NA,NA,NA,NA,NA,NA,NA,NA,NA,NA,NA
15ff9,deep,flow.Sequence,3_0_2_0_1_0,NA,NA,skipped,NA,439351.4000001,NA,NA,439349.307,439351.60000014,2023-10-11T12:07:32Z,439366.016,NULL,Schlange,foleni,s,uvumilivu,uteuzi,muuzaji,NA,sdf,NA,2,NA,NA,NA,NA,NA,NA,NA,NA,NA,NA,NA,NA,NA,NA,NA,NA,NA,NA,NA
15ff9,Shallow Question,html.Page,3_0_2_0_1_1_0,NA,NA,form submission,3041.3840000954,439351.80000019,439349.307,439366.016,442407.4000001,442407.60000014,2023-10-11T12:07:35Z,442413.698,NULL,Schlange,foleni,s,uvumilivu,uteuzi,muuzaji,foleni,NA,NA,2,NA,NA,NA,NA,NA,NA,NA,NA,NA,NA,NA,NA,NA,NA,NA,NA,NA,NA,NA
15ff9,"""Richtig""-Screen",canvas.Screen,3_0_2_0_1_1_1,NA,NA,timeout,4997.255,442410.60000014,442397.332,442413.698,447394.374,447395.4000001,2023-10-11T12:07:40Z,447410.953,NULL,Schlange,foleni,s,uvumilivu,uteuzi,muuzaji,NA,sdf,1,2,NA,NA,NA,NA,NA,NA,NA,NA,NA,NA,NA,NA,NA,NA,NA,NA,NA,NA,NA
15ff9,"""Falsch""-Screen",canvas.Screen,3_0_2_0_1_1_2,NA,NA,skipped,NA,447399.80000019,NA,NA,447394.374,447399.9000001,2023-10-11T12:07:40Z,447410.953,NULL,Schlange,foleni,s,uvumilivu,uteuzi,muuzaji,NA,sdf,NA,2,NA,NA,NA,NA,NA,NA,NA,NA,NA,NA,NA,NA,NA,NA,NA,NA,NA,NA,NA
15ff9,shallow,flow.Sequence,3_0_2_0_1_1,NA,NA,completion,8028.358,439351.70000005,439349.307,439366.016,447394.374,447400,2023-10-11T12:07:40Z,447410.953,NULL,Schlange,foleni,s,uvumilivu,uteuzi,muuzaji,NA,sdf,NA,2,NA,NA,NA,NA,NA,NA,NA,NA,NA,NA,NA,NA,NA,NA,NA,NA,NA,NA,NA
15ff9,task,flow.Sequence,3_0_2_0_1,NA,NA,completion,8028.358,439351.4000001,439349.307,439366.016,447394.374,447400.10000014,2023-10-11T12:07:40Z,447410.953,NULL,Schlange,foleni,s,uvumilivu,uteuzi,muuzaji,NA,sdf,NA,2,NA,NA,NA,NA,NA,NA,NA,NA,NA,NA,NA,NA,NA,NA,NA,NA,NA,NA,NA
15ff9,Deep Question,html.Page,3_0_2_0_2_0_0,NA,NA,form submission,8835.3470001908,447400.20000005,447394.374,447410.953,456246.30000019,456246.5,2023-10-11T12:07:49Z,456255.197,NULL,Polizist,msongora,d,NA,NA,NA,somora,NA,NA,2,NA,NA,NA,NA,NA,NA,NA,NA,NA,NA,NA,NA,NA,NA,NA,NA,NA,NA,NA
15ff9,"""Richtig""-Screen",canvas.Screen,3_0_2_0_2_0_1,NA,NA,skipped,NA,456248.10000014,NA,NA,456246.30000019,456248.10000014,2023-10-11T12:07:49Z,456255.197,NULL,Polizist,msongora,d,NA,NA,NA,NA,sdf,NA,2,NA,NA,NA,NA,NA,NA,NA,NA,NA,NA,NA,NA,NA,NA,NA,NA,NA,NA,NA
15ff9,"""Falsch""-Screen",canvas.Screen,3_0_2_0_2_0_2,NA,NA,timeout,4997.26,456248.60000014,456238.968,456255.197,461235.647,461236.80000019,2023-10-11T12:07:54Z,461252.457,NULL,Polizist,msongora,d,NA,NA,NA,NA,sdf,0,2,NA,NA,NA,NA,NA,NA,NA,NA,NA,NA,NA,NA,NA,NA,NA,NA,NA,NA,NA
15ff9,deep,flow.Sequence,3_0_2_0_2_0,NA,NA,completion,13824.694,447400.20000005,447394.374,447410.953,461235.647,461237.30000019,2023-10-11T12:07:54Z,461252.457,NULL,Polizist,msongora,d,NA,NA,NA,NA,sdf,NA,2,NA,NA,NA,NA,NA,NA,NA,NA,NA,NA,NA,NA,NA,NA,NA,NA,NA,NA,NA
15ff9,shallow,flow.Sequence,3_0_2_0_2_1,NA,NA,skipped,NA,461237.4000001,NA,NA,461235.647,461237.5,2023-10-11T12:07:54Z,461252.457,NULL,Polizist,msongora,d,NA,NA,NA,NA,sdf,NA,2,NA,NA,NA,NA,NA,NA,NA,NA,NA,NA,NA,NA,NA,NA,NA,NA,NA,NA,NA
15ff9,task,flow.Sequence,3_0_2_0_2,NA,NA,completion,13824.694,447400.10000014,447394.374,447410.953,461235.647,461237.80000019,2023-10-11T12:07:54Z,461252.457,NULL,Polizist,msongora,d,NA,NA,NA,NA,sdf,NA,2,NA,NA,NA,NA,NA,NA,NA,NA,NA,NA,NA,NA,NA,NA,NA,NA,NA,NA,NA
15ff9,Deep Question,html.Page,3_0_2_0_3_0_0,NA,NA,form submission,7635.1430001431,461238,461235.647,461252.457,468887.60000014,468887.70000005,2023-10-11T12:08:01Z,468897.625,NULL,Inhalt,yaliyomo,d,NA,NA,NA,yalimo,NA,NA,2,NA,NA,NA,NA,NA,NA,NA,NA,NA,NA,NA,NA,NA,NA,NA,NA,NA,NA,NA
15ff9,"""Richtig""-Screen",canvas.Screen,3_0_2_0_3_0_1,NA,NA,skipped,NA,468889.10000014,NA,NA,468887.60000014,468889.20000005,2023-10-11T12:08:01Z,468897.625,NULL,Inhalt,yaliyomo,d,NA,NA,NA,NA,sdf,NA,2,NA,NA,NA,NA,NA,NA,NA,NA,NA,NA,NA,NA,NA,NA,NA,NA,NA,NA,NA
15ff9,"""Falsch""-Screen",canvas.Screen,3_0_2_0_3_0_2,NA,NA,timeout,4997.244,468889.5,468881.18,468897.625,473877.823,473878.9000001,2023-10-11T12:08:06Z,473894.869,NULL,Inhalt,yaliyomo,d,NA,NA,NA,NA,sdf,0,2,NA,NA,NA,NA,NA,NA,NA,NA,NA,NA,NA,NA,NA,NA,NA,NA,NA,NA,NA
15ff9,deep,flow.Sequence,3_0_2_0_3_0,NA,NA,completion,12625.366,461237.9000001,461235.647,461252.457,473877.823,473879.30000019,2023-10-11T12:08:06Z,473894.869,NULL,Inhalt,yaliyomo,d,NA,NA,NA,NA,sdf,NA,2,NA,NA,NA,NA,NA,NA,NA,NA,NA,NA,NA,NA,NA,NA,NA,NA,NA,NA,NA
15ff9,shallow,flow.Sequence,3_0_2_0_3_1,NA,NA,skipped,NA,473879.4000001,NA,NA,473877.823,473879.60000014,2023-10-11T12:08:06Z,473894.869,NULL,Inhalt,yaliyomo,d,NA,NA,NA,NA,sdf,NA,2,NA,NA,NA,NA,NA,NA,NA,NA,NA,NA,NA,NA,NA,NA,NA,NA,NA,NA,NA
15ff9,task,flow.Sequence,3_0_2_0_3,NA,NA,completion,12625.366,461237.9000001,461235.647,461252.457,473877.823,473879.9000001,2023-10-11T12:08:06Z,473894.869,NULL,Inhalt,yaliyomo,d,NA,NA,NA,NA,sdf,NA,2,NA,NA,NA,NA,NA,NA,NA,NA,NA,NA,NA,NA,NA,NA,NA,NA,NA,NA,NA
15ff9,deep,flow.Sequence,3_0_2_0_4_0,NA,NA,skipped,NA,473880,NA,NA,473877.823,473880.10000014,2023-10-11T12:08:06Z,473894.869,NULL,Annäherung,maegesho,s,madahili,kujiamini,mapendekezo,NA,sdf,NA,2,NA,NA,NA,NA,NA,NA,NA,NA,NA,NA,NA,NA,NA,NA,NA,NA,NA,NA,NA
15ff9,Shallow Question,html.Page,3_0_2_0_4_1_0,NA,NA,form submission,4180.9310001907,473880.30000019,473877.823,473894.869,478075.80000019,478076.10000014,2023-10-11T12:08:11Z,478092.173,NULL,Annäherung,maegesho,s,madahili,kujiamini,mapendekezo,maegesho,NA,NA,2,NA,NA,NA,NA,NA,NA,NA,NA,NA,NA,NA,NA,NA,NA,NA,NA,NA,NA,NA
15ff9,"""Richtig""-Screen",canvas.Screen,3_0_2_0_4_1_1,NA,NA,timeout,4997.042,478079,478061.863,478092.173,483072.398,483073.30000019,2023-10-11T12:08:16Z,483089.215,NULL,Annäherung,maegesho,s,madahili,kujiamini,mapendekezo,NA,sdf,1,2,NA,NA,NA,NA,NA,NA,NA,NA,NA,NA,NA,NA,NA,NA,NA,NA,NA,NA,NA
15ff9,"""Falsch""-Screen",canvas.Screen,3_0_2_0_4_1_2,NA,NA,skipped,NA,483078.20000005,NA,NA,483072.398,483078.30000019,2023-10-11T12:08:16Z,483089.215,NULL,Annäherung,maegesho,s,madahili,kujiamini,mapendekezo,NA,sdf,NA,2,NA,NA,NA,NA,NA,NA,NA,NA,NA,NA,NA,NA,NA,NA,NA,NA,NA,NA,NA
15ff9,shallow,flow.Sequence,3_0_2_0_4_1,NA,NA,completion,9177.529,473880.20000005,473877.823,473894.869,483072.398,483078.30000019,2023-10-11T12:08:16Z,483089.215,NULL,Annäherung,maegesho,s,madahili,kujiamini,mapendekezo,NA,sdf,NA,2,NA,NA,NA,NA,NA,NA,NA,NA,NA,NA,NA,NA,NA,NA,NA,NA,NA,NA,NA
15ff9,task,flow.Sequence,3_0_2_0_4,NA,NA,completion,9177.529,473880,473877.823,473894.869,483072.398,483078.4000001,2023-10-11T12:08:16Z,483089.215,NULL,Annäherung,maegesho,s,madahili,kujiamini,mapendekezo,NA,sdf,NA,2,NA,NA,NA,NA,NA,NA,NA,NA,NA,NA,NA,NA,NA,NA,NA,NA,NA,NA,NA
15ff9,deep,flow.Sequence,3_0_2_0_5_0,NA,NA,skipped,NA,483078.5,NA,NA,483072.398,483078.5,2023-10-11T12:08:16Z,483089.215,NULL,Toleranz,kuvumiliana,s,maombolezo,ujasusi,mchekeshaji,NA,sdf,NA,2,NA,NA,NA,NA,NA,NA,NA,NA,NA,NA,NA,NA,NA,NA,NA,NA,NA,NA,NA
15ff9,Shallow Question,html.Page,3_0_2_0_5_1_0,NA,NA,form submission,5701.4850000477,483078.5,483072.398,483089.215,488790.70000005,488790.9000001,2023-10-11T12:08:21Z,488802.078,NULL,Toleranz,kuvumiliana,s,maombolezo,ujasusi,mchekeshaji,kuvumiliana,NA,NA,2,NA,NA,NA,NA,NA,NA,NA,NA,NA,NA,NA,NA,NA,NA,NA,NA,NA,NA,NA
15ff9,"""Richtig""-Screen",canvas.Screen,3_0_2_0_5_1_1,NA,NA,timeout,4997.033,488793.9000001,488784.958,488802.078,493782.531,493783.60000014,2023-10-11T12:08:26Z,493799.111,NULL,Toleranz,kuvumiliana,s,maombolezo,ujasusi,mchekeshaji,NA,sdf,1,2,NA,NA,NA,NA,NA,NA,NA,NA,NA,NA,NA,NA,NA,NA,NA,NA,NA,NA,NA
15ff9,"""Falsch""-Screen",canvas.Screen,3_0_2_0_5_1_2,NA,NA,skipped,NA,493788.70000005,NA,NA,493782.531,493788.70000005,2023-10-11T12:08:26Z,493799.111,NULL,Toleranz,kuvumiliana,s,maombolezo,ujasusi,mchekeshaji,NA,sdf,NA,2,NA,NA,NA,NA,NA,NA,NA,NA,NA,NA,NA,NA,NA,NA,NA,NA,NA,NA,NA
15ff9,shallow,flow.Sequence,3_0_2_0_5_1,NA,NA,completion,10693.316,483078.5,483072.398,483089.215,493782.531,493788.9000001,2023-10-11T12:08:26Z,493799.111,NULL,Toleranz,kuvumiliana,s,maombolezo,ujasusi,mchekeshaji,NA,sdf,NA,2,NA,NA,NA,NA,NA,NA,NA,NA,NA,NA,NA,NA,NA,NA,NA,NA,NA,NA,NA
15ff9,task,flow.Sequence,3_0_2_0_5,NA,NA,completion,10693.316,483078.4000001,483072.398,483089.215,493782.531,493788.9000001,2023-10-11T12:08:26Z,493799.111,NULL,Toleranz,kuvumiliana,s,maombolezo,ujasusi,mchekeshaji,NA,sdf,NA,2,NA,NA,NA,NA,NA,NA,NA,NA,NA,NA,NA,NA,NA,NA,NA,NA,NA,NA,NA
15ff9,deep,flow.Sequence,3_0_2_0_6_0,NA,NA,skipped,NA,493789,NA,NA,493782.531,493789,2023-10-11T12:08:26Z,493799.111,NULL,Sympathie,mapendano,s,dhamiria,fungamano,maazimio,NA,sdf,NA,2,NA,NA,NA,NA,NA,NA,NA,NA,NA,NA,NA,NA,NA,NA,NA,NA,NA,NA,NA
15ff9,Shallow Question,html.Page,3_0_2_0_6_1_0,NA,NA,form submission,3406.1890001908,493789,493782.531,493799.111,497205.30000019,497205.5,2023-10-11T12:08:30Z,497213.667,NULL,Sympathie,mapendano,s,dhamiria,fungamano,maazimio,mapendano,NA,NA,2,NA,NA,NA,NA,NA,NA,NA,NA,NA,NA,NA,NA,NA,NA,NA,NA,NA,NA,NA
15ff9,"""Richtig""-Screen",canvas.Screen,3_0_2_0_6_1_1,NA,NA,timeout,4996.689,497208.10000014,497196.529,497213.667,502193.776,502194.70000005,2023-10-11T12:08:35Z,502210.356,NULL,Sympathie,mapendano,s,dhamiria,fungamano,maazimio,NA,sdf,1,2,NA,NA,NA,NA,NA,NA,NA,NA,NA,NA,NA,NA,NA,NA,NA,NA,NA,NA,NA
15ff9,"""Falsch""-Screen",canvas.Screen,3_0_2_0_6_1_2,NA,NA,skipped,NA,502199.60000014,NA,NA,502193.776,502199.9000001,2023-10-11T12:08:35Z,502210.356,NULL,Sympathie,mapendano,s,dhamiria,fungamano,maazimio,NA,sdf,NA,2,NA,NA,NA,NA,NA,NA,NA,NA,NA,NA,NA,NA,NA,NA,NA,NA,NA,NA,NA
15ff9,shallow,flow.Sequence,3_0_2_0_6_1,NA,NA,completion,8394.665,493789,493782.531,493799.111,502193.776,502200.20000005,2023-10-11T12:08:35Z,502210.356,NULL,Sympathie,mapendano,s,dhamiria,fungamano,maazimio,NA,sdf,NA,2,NA,NA,NA,NA,NA,NA,NA,NA,NA,NA,NA,NA,NA,NA,NA,NA,NA,NA,NA
15ff9,task,flow.Sequence,3_0_2_0_6,NA,NA,completion,8394.665,493789,493782.531,493799.111,502193.776,502200.4000001,2023-10-11T12:08:35Z,502210.356,NULL,Sympathie,mapendano,s,dhamiria,fungamano,maazimio,NA,sdf,NA,2,NA,NA,NA,NA,NA,NA,NA,NA,NA,NA,NA,NA,NA,NA,NA,NA,NA,NA,NA
15ff9,Deep Question,html.Page,3_0_2_0_7_0_0,NA,NA,form submission,9027.644,502200.5,502193.776,502210.356,511238,511238.30000019,2023-10-11T12:08:44Z,511255.538,NULL,Beweis,ushahidi,d,NA,NA,NA,ukil,NA,NA,2,NA,NA,NA,NA,NA,NA,NA,NA,NA,NA,NA,NA,NA,NA,NA,NA,NA,NA,NA
15ff9,"""Richtig""-Screen",canvas.Screen,3_0_2_0_7_0_1,NA,NA,skipped,NA,511241.30000019,NA,NA,511238,511241.4000001,2023-10-11T12:08:44Z,511255.538,NULL,Beweis,ushahidi,d,NA,NA,NA,NA,sdf,NA,2,NA,NA,NA,NA,NA,NA,NA,NA,NA,NA,NA,NA,NA,NA,NA,NA,NA,NA,NA
15ff9,"""Falsch""-Screen",canvas.Screen,3_0_2_0_7_0_2,NA,NA,timeout,4996.348,511242.20000005,511222.256,511255.538,516235.541,516236.5,2023-10-11T12:08:49Z,516251.886,NULL,Beweis,ushahidi,d,NA,NA,NA,NA,sdf,0,2,NA,NA,NA,NA,NA,NA,NA,NA,NA,NA,NA,NA,NA,NA,NA,NA,NA,NA,NA
15ff9,deep,flow.Sequence,3_0_2_0_7_0,NA,NA,completion,14025.185,502200.5,502193.776,502210.356,516235.541,516237,2023-10-11T12:08:49Z,516251.886,NULL,Beweis,ushahidi,d,NA,NA,NA,NA,sdf,NA,2,NA,NA,NA,NA,NA,NA,NA,NA,NA,NA,NA,NA,NA,NA,NA,NA,NA,NA,NA
15ff9,shallow,flow.Sequence,3_0_2_0_7_1,NA,NA,skipped,NA,516237.10000014,NA,NA,516235.541,516237.4000001,2023-10-11T12:08:49Z,516251.886,NULL,Beweis,ushahidi,d,NA,NA,NA,NA,sdf,NA,2,NA,NA,NA,NA,NA,NA,NA,NA,NA,NA,NA,NA,NA,NA,NA,NA,NA,NA,NA
15ff9,task,flow.Sequence,3_0_2_0_7,NA,NA,completion,14025.185,502200.5,502193.776,502210.356,516235.541,516237.5,2023-10-11T12:08:49Z,516251.886,NULL,Beweis,ushahidi,d,NA,NA,NA,NA,sdf,NA,2,NA,NA,NA,NA,NA,NA,NA,NA,NA,NA,NA,NA,NA,NA,NA,NA,NA,NA,NA
15ff9,block,flow.Loop,3_0_2_0,NA,NA,completion,92743.367,423483.20000005,423475.451,423492.174,516235.541,516237.80000019,2023-10-11T12:08:49Z,516251.886,NULL,NA,NA,NA,NA,NA,NA,NA,sdf,NA,2,NA,NA,NA,NA,NA,NA,NA,NA,NA,NA,NA,NA,NA,NA,NA,NA,NA,NA,NA
15ff9,weiter,canvas.Screen,3_0_2_1,sdf,keypress(Space),response,2098.9140001907,516238,516235.541,516251.886,518350.80000019,518351.5,2023-10-11T12:08:51Z,518384.335,NULL,NA,NA,NA,NA,NA,NA,NA,sdf,NA,2,NA,NA,NA,NA,NA,NA,NA,NA,NA,NA,NA,NA,NA,NA,NA,NA,NA,NA,NA
15ff9,check continue,flow.Sequence,3_0_2,NA,NA,completion,94858.626000191,423483.10000014,423475.451,423492.174,518350.80000019,518351.70000005,2023-10-11T12:08:51Z,518384.335,NULL,NA,NA,NA,NA,NA,NA,NA,sdf,NA,2,NA,NA,NA,NA,NA,NA,NA,NA,NA,NA,NA,NA,NA,NA,NA,NA,NA,NA,NA
15ff9,Deep Question,html.Page,3_0_3_0_0_0_0,NA,NA,form submission,9829.5650000953,518372.60000014,518367.483,518384.335,528213.9000001,528214.10000014,2023-10-11T12:09:01Z,528227.814,NULL,Vermutung,udhanifu,d,NA,NA,NA,kumuli,NA,NA,3,NA,NA,NA,NA,NA,NA,NA,NA,NA,NA,NA,NA,NA,NA,NA,NA,NA,NA,NA
15ff9,"""Richtig""-Screen",canvas.Screen,3_0_3_0_0_0_1,NA,NA,skipped,NA,528217.30000019,NA,NA,528213.9000001,528217.5,2023-10-11T12:09:01Z,528227.814,NULL,Vermutung,udhanifu,d,NA,NA,NA,NA,qt,NA,3,NA,NA,NA,NA,NA,NA,NA,NA,NA,NA,NA,NA,NA,NA,NA,NA,NA,NA,NA
15ff9,"""Falsch""-Screen",canvas.Screen,3_0_3_0_0_0_2,NA,NA,timeout,4996.9,528218.30000019,528211.351,528227.814,533208.279,533209.10000014,2023-10-11T12:09:06Z,533224.714,NULL,Vermutung,udhanifu,d,NA,NA,NA,NA,qt,0,3,NA,NA,NA,NA,NA,NA,NA,NA,NA,NA,NA,NA,NA,NA,NA,NA,NA,NA,NA
15ff9,deep,flow.Sequence,3_0_3_0_0_0,NA,NA,completion,14823.944,518372.5,518367.483,518384.335,533208.279,533209.4000001,2023-10-11T12:09:06Z,533224.714,NULL,Vermutung,udhanifu,d,NA,NA,NA,NA,qt,NA,3,NA,NA,NA,NA,NA,NA,NA,NA,NA,NA,NA,NA,NA,NA,NA,NA,NA,NA,NA
15ff9,shallow,flow.Sequence,3_0_3_0_0_1,NA,NA,skipped,NA,533209.60000014,NA,NA,533208.279,533209.70000005,2023-10-11T12:09:06Z,533224.714,NULL,Vermutung,udhanifu,d,NA,NA,NA,NA,qt,NA,3,NA,NA,NA,NA,NA,NA,NA,NA,NA,NA,NA,NA,NA,NA,NA,NA,NA,NA,NA
15ff9,task,flow.Sequence,3_0_3_0_0,NA,NA,completion,14823.944,518372.5,518367.483,518384.335,533208.279,533209.9000001,2023-10-11T12:09:06Z,533224.714,NULL,Vermutung,udhanifu,d,NA,NA,NA,NA,qt,NA,3,NA,NA,NA,NA,NA,NA,NA,NA,NA,NA,NA,NA,NA,NA,NA,NA,NA,NA,NA
15ff9,deep,flow.Sequence,3_0_3_0_1_0,NA,NA,skipped,NA,533210,NA,NA,533208.279,533210.10000014,2023-10-11T12:09:06Z,533224.714,NULL,Annäherung,maegesho,s,madahili,kujiamini,mapendekezo,NA,qt,NA,3,NA,NA,NA,NA,NA,NA,NA,NA,NA,NA,NA,NA,NA,NA,NA,NA,NA,NA,NA
15ff9,Shallow Question,html.Page,3_0_3_0_1_1_0,NA,NA,form submission,4735.4860000476,533210.30000019,533208.279,533224.714,537960.20000005,537960.4000001,2023-10-11T12:09:10Z,537971.795,NULL,Annäherung,maegesho,s,madahili,kujiamini,mapendekezo,maegesho,NA,NA,3,NA,NA,NA,NA,NA,NA,NA,NA,NA,NA,NA,NA,NA,NA,NA,NA,NA,NA,NA
15ff9,"""Richtig""-Screen",canvas.Screen,3_0_3_0_1_1_1,NA,NA,timeout,4997.3809999999,537963.4000001,537957.335,537971.795,542952.402,542954.10000014,2023-10-11T12:09:15Z,542969.176,NULL,Annäherung,maegesho,s,madahili,kujiamini,mapendekezo,NA,qt,1,3,NA,NA,NA,NA,NA,NA,NA,NA,NA,NA,NA,NA,NA,NA,NA,NA,NA,NA,NA
15ff9,"""Falsch""-Screen",canvas.Screen,3_0_3_0_1_1_2,NA,NA,skipped,NA,542958.70000005,NA,NA,542952.402,542958.70000005,2023-10-11T12:09:15Z,542969.176,NULL,Annäherung,maegesho,s,madahili,kujiamini,mapendekezo,NA,qt,NA,3,NA,NA,NA,NA,NA,NA,NA,NA,NA,NA,NA,NA,NA,NA,NA,NA,NA,NA,NA
15ff9,shallow,flow.Sequence,3_0_3_0_1_1,NA,NA,completion,9727.688,533210.20000005,533208.279,533224.714,542952.402,542958.9000001,2023-10-11T12:09:15Z,542969.176,NULL,Annäherung,maegesho,s,madahili,kujiamini,mapendekezo,NA,qt,NA,3,NA,NA,NA,NA,NA,NA,NA,NA,NA,NA,NA,NA,NA,NA,NA,NA,NA,NA,NA
15ff9,task,flow.Sequence,3_0_3_0_1,NA,NA,completion,9727.688,533209.9000001,533208.279,533224.714,542952.402,542958.9000001,2023-10-11T12:09:15Z,542969.176,NULL,Annäherung,maegesho,s,madahili,kujiamini,mapendekezo,NA,qt,NA,3,NA,NA,NA,NA,NA,NA,NA,NA,NA,NA,NA,NA,NA,NA,NA,NA,NA,NA,NA
15ff9,Deep Question,html.Page,3_0_3_0_2_0_0,NA,NA,form submission,12147.724000095,542959.10000014,542952.402,542969.176,555116.9000001,555117.20000005,2023-10-11T12:09:28Z,555145.15,NULL,Polizist,msongora,d,NA,NA,NA,msomora,NA,NA,3,NA,NA,NA,NA,NA,NA,NA,NA,NA,NA,NA,NA,NA,NA,NA,NA,NA,NA,NA
15ff9,"""Richtig""-Screen",canvas.Screen,3_0_3_0_2_0_1,NA,NA,skipped,NA,555120.20000005,NA,NA,555116.9000001,555120.4000001,2023-10-11T12:09:28Z,555145.15,NULL,Polizist,msongora,d,NA,NA,NA,NA,qt,NA,3,NA,NA,NA,NA,NA,NA,NA,NA,NA,NA,NA,NA,NA,NA,NA,NA,NA,NA,NA
15ff9,"""Falsch""-Screen",canvas.Screen,3_0_3_0_2_0_2,NA,NA,timeout,4996.6699999999,555121.20000005,555127.946,555145.15,560125.039,560125.9000001,2023-10-11T12:09:33Z,560141.82,NULL,Polizist,msongora,d,NA,NA,NA,NA,qt,0,3,NA,NA,NA,NA,NA,NA,NA,NA,NA,NA,NA,NA,NA,NA,NA,NA,NA,NA,NA
15ff9,deep,flow.Sequence,3_0_3_0_2_0,NA,NA,completion,17155.863,542959.10000014,542952.402,542969.176,560125.039,560126.30000019,2023-10-11T12:09:33Z,560141.82,NULL,Polizist,msongora,d,NA,NA,NA,NA,qt,NA,3,NA,NA,NA,NA,NA,NA,NA,NA,NA,NA,NA,NA,NA,NA,NA,NA,NA,NA,NA
15ff9,shallow,flow.Sequence,3_0_3_0_2_1,NA,NA,skipped,NA,560126.5,NA,NA,560125.039,560126.60000014,2023-10-11T12:09:33Z,560141.82,NULL,Polizist,msongora,d,NA,NA,NA,NA,qt,NA,3,NA,NA,NA,NA,NA,NA,NA,NA,NA,NA,NA,NA,NA,NA,NA,NA,NA,NA,NA
15ff9,task,flow.Sequence,3_0_3_0_2,NA,NA,completion,17155.863,542959.10000014,542952.402,542969.176,560125.039,560126.80000019,2023-10-11T12:09:33Z,560141.82,NULL,Polizist,msongora,d,NA,NA,NA,NA,qt,NA,3,NA,NA,NA,NA,NA,NA,NA,NA,NA,NA,NA,NA,NA,NA,NA,NA,NA,NA,NA
15ff9,deep,flow.Sequence,3_0_3_0_3_0,NA,NA,skipped,NA,560127,NA,NA,560125.039,560127.10000014,2023-10-11T12:09:33Z,560141.82,NULL,Sympathie,mapendano,s,dhamiria,fungamano,maazimio,NA,qt,NA,3,NA,NA,NA,NA,NA,NA,NA,NA,NA,NA,NA,NA,NA,NA,NA,NA,NA,NA,NA
15ff9,Shallow Question,html.Page,3_0_3_0_3_1_0,NA,NA,form submission,3590.9800001908,560127.30000019,560125.039,560141.82,563732.80000019,563733,2023-10-11T12:09:36Z,563739.324,NULL,Sympathie,mapendano,s,dhamiria,fungamano,maazimio,mapendano,NA,NA,3,NA,NA,NA,NA,NA,NA,NA,NA,NA,NA,NA,NA,NA,NA,NA,NA,NA,NA,NA
15ff9,"""Richtig""-Screen",canvas.Screen,3_0_3_0_3_1_1,NA,NA,timeout,4997.465,563736,563723.822,563739.324,568719.953,568721,2023-10-11T12:09:41Z,568736.789,NULL,Sympathie,mapendano,s,dhamiria,fungamano,maazimio,NA,qt,1,3,NA,NA,NA,NA,NA,NA,NA,NA,NA,NA,NA,NA,NA,NA,NA,NA,NA,NA,NA
15ff9,"""Falsch""-Screen",canvas.Screen,3_0_3_0_3_1_2,NA,NA,skipped,NA,568726.20000005,NA,NA,568719.953,568726.30000019,2023-10-11T12:09:41Z,568736.789,NULL,Sympathie,mapendano,s,dhamiria,fungamano,maazimio,NA,qt,NA,3,NA,NA,NA,NA,NA,NA,NA,NA,NA,NA,NA,NA,NA,NA,NA,NA,NA,NA,NA
15ff9,shallow,flow.Sequence,3_0_3_0_3_1,NA,NA,completion,8578.133,560127.30000019,560125.039,560141.82,568719.953,568726.4000001,2023-10-11T12:09:41Z,568736.789,NULL,Sympathie,mapendano,s,dhamiria,fungamano,maazimio,NA,qt,NA,3,NA,NA,NA,NA,NA,NA,NA,NA,NA,NA,NA,NA,NA,NA,NA,NA,NA,NA,NA
15ff9,task,flow.Sequence,3_0_3_0_3,NA,NA,completion,8578.133,560126.9000001,560125.039,560141.82,568719.953,568726.5,2023-10-11T12:09:41Z,568736.789,NULL,Sympathie,mapendano,s,dhamiria,fungamano,maazimio,NA,qt,NA,3,NA,NA,NA,NA,NA,NA,NA,NA,NA,NA,NA,NA,NA,NA,NA,NA,NA,NA,NA
15ff9,deep,flow.Sequence,3_0_3_0_4_0,NA,NA,skipped,NA,568726.5,NA,NA,568719.953,568726.5,2023-10-11T12:09:41Z,568736.789,NULL,Toleranz,kuvumiliana,s,maombolezo,ujasusi,mchekeshaji,NA,qt,NA,3,NA,NA,NA,NA,NA,NA,NA,NA,NA,NA,NA,NA,NA,NA,NA,NA,NA,NA,NA
15ff9,Shallow Question,html.Page,3_0_3_0_4_1_0,NA,NA,form submission,5356.5110001907,568726.5,568719.953,568736.789,574093.30000019,574093.5,2023-10-11T12:09:47Z,574099.648,NULL,Toleranz,kuvumiliana,s,maombolezo,ujasusi,mchekeshaji,kuvumiliana,NA,NA,3,NA,NA,NA,NA,NA,NA,NA,NA,NA,NA,NA,NA,NA,NA,NA,NA,NA,NA,NA
15ff9,"""Richtig""-Screen",canvas.Screen,3_0_3_0_4_1_1,NA,NA,timeout,4997.365,574095.9000001,574083.193,574099.648,579080.209,579081.30000019,2023-10-11T12:09:52Z,579097.013,NULL,Toleranz,kuvumiliana,s,maombolezo,ujasusi,mchekeshaji,NA,qt,1,3,NA,NA,NA,NA,NA,NA,NA,NA,NA,NA,NA,NA,NA,NA,NA,NA,NA,NA,NA
15ff9,"""Falsch""-Screen",canvas.Screen,3_0_3_0_4_1_2,NA,NA,skipped,NA,579086.4000001,NA,NA,579080.209,579086.5,2023-10-11T12:09:52Z,579097.013,NULL,Toleranz,kuvumiliana,s,maombolezo,ujasusi,mchekeshaji,NA,qt,NA,3,NA,NA,NA,NA,NA,NA,NA,NA,NA,NA,NA,NA,NA,NA,NA,NA,NA,NA,NA
15ff9,shallow,flow.Sequence,3_0_3_0_4_1,NA,NA,completion,10343.42,568726.5,568719.953,568736.789,579080.209,579086.60000014,2023-10-11T12:09:52Z,579097.013,NULL,Toleranz,kuvumiliana,s,maombolezo,ujasusi,mchekeshaji,NA,qt,NA,3,NA,NA,NA,NA,NA,NA,NA,NA,NA,NA,NA,NA,NA,NA,NA,NA,NA,NA,NA
15ff9,task,flow.Sequence,3_0_3_0_4,NA,NA,completion,10343.42,568726.5,568719.953,568736.789,579080.209,579086.60000014,2023-10-11T12:09:52Z,579097.013,NULL,Toleranz,kuvumiliana,s,maombolezo,ujasusi,mchekeshaji,NA,qt,NA,3,NA,NA,NA,NA,NA,NA,NA,NA,NA,NA,NA,NA,NA,NA,NA,NA,NA,NA,NA
15ff9,Deep Question,html.Page,3_0_3_0_5_0_0,NA,NA,form submission,7447.3870000953,579086.80000019,579080.209,579097.013,586544.4000001,586544.70000005,2023-10-11T12:09:59Z,586558.877,NULL,Inhalt,yaliyomo,d,NA,NA,NA,yalomosa,NA,NA,3,NA,NA,NA,NA,NA,NA,NA,NA,NA,NA,NA,NA,NA,NA,NA,NA,NA,NA,NA
15ff9,"""Richtig""-Screen",canvas.Screen,3_0_3_0_5_0_1,NA,NA,skipped,NA,586547.60000014,NA,NA,586544.4000001,586547.80000019,2023-10-11T12:09:59Z,586558.877,NULL,Inhalt,yaliyomo,d,NA,NA,NA,NA,qt,NA,3,NA,NA,NA,NA,NA,NA,NA,NA,NA,NA,NA,NA,NA,NA,NA,NA,NA,NA,NA
15ff9,"""Falsch""-Screen",canvas.Screen,3_0_3_0_5_0_2,NA,NA,timeout,4996.743,586548.60000014,586542.443,586558.877,591539.196,591540.20000005,2023-10-11T12:10:04Z,591555.62,NULL,Inhalt,yaliyomo,d,NA,NA,NA,NA,qt,0,3,NA,NA,NA,NA,NA,NA,NA,NA,NA,NA,NA,NA,NA,NA,NA,NA,NA,NA,NA
15ff9,deep,flow.Sequence,3_0_3_0_5_0,NA,NA,completion,12442.183,579086.70000005,579080.209,579097.013,591539.196,591540.60000014,2023-10-11T12:10:04Z,591555.62,NULL,Inhalt,yaliyomo,d,NA,NA,NA,NA,qt,NA,3,NA,NA,NA,NA,NA,NA,NA,NA,NA,NA,NA,NA,NA,NA,NA,NA,NA,NA,NA
15ff9,shallow,flow.Sequence,3_0_3_0_5_1,NA,NA,skipped,NA,591540.80000019,NA,NA,591539.196,591540.9000001,2023-10-11T12:10:04Z,591555.62,NULL,Inhalt,yaliyomo,d,NA,NA,NA,NA,qt,NA,3,NA,NA,NA,NA,NA,NA,NA,NA,NA,NA,NA,NA,NA,NA,NA,NA,NA,NA,NA
15ff9,task,flow.Sequence,3_0_3_0_5,NA,NA,completion,12442.183,579086.70000005,579080.209,579097.013,591539.196,591541.20000005,2023-10-11T12:10:04Z,591555.62,NULL,Inhalt,yaliyomo,d,NA,NA,NA,NA,qt,NA,3,NA,NA,NA,NA,NA,NA,NA,NA,NA,NA,NA,NA,NA,NA,NA,NA,NA,NA,NA
15ff9,deep,flow.Sequence,3_0_3_0_6_0,NA,NA,skipped,NA,591541.30000019,NA,NA,591539.196,591541.4000001,2023-10-11T12:10:04Z,591555.62,NULL,Schlange,foleni,s,uvumilivu,uteuzi,muuzaji,NA,qt,NA,3,NA,NA,NA,NA,NA,NA,NA,NA,NA,NA,NA,NA,NA,NA,NA,NA,NA,NA,NA
15ff9,Shallow Question,html.Page,3_0_3_0_6_1_0,NA,NA,form submission,4416.5800000477,591541.60000014,591539.196,591555.62,595972.20000005,595972.5,2023-10-11T12:10:08Z,595986.71,NULL,Schlange,foleni,s,uvumilivu,uteuzi,muuzaji,foleni,NA,NA,3,NA,NA,NA,NA,NA,NA,NA,NA,NA,NA,NA,NA,NA,NA,NA,NA,NA,NA,NA
15ff9,"""Richtig""-Screen",canvas.Screen,3_0_3_0_6_1_1,NA,NA,timeout,4996.7830000001,595975.5,595970.54,595986.71,600966.645,600967.10000014,2023-10-11T12:10:13Z,600983.493,NULL,Schlange,foleni,s,uvumilivu,uteuzi,muuzaji,NA,qt,1,3,NA,NA,NA,NA,NA,NA,NA,NA,NA,NA,NA,NA,NA,NA,NA,NA,NA,NA,NA
15ff9,"""Falsch""-Screen",canvas.Screen,3_0_3_0_6_1_2,NA,NA,skipped,NA,600968.60000014,NA,NA,600966.645,600968.70000005,2023-10-11T12:10:13Z,600983.493,NULL,Schlange,foleni,s,uvumilivu,uteuzi,muuzaji,NA,qt,NA,3,NA,NA,NA,NA,NA,NA,NA,NA,NA,NA,NA,NA,NA,NA,NA,NA,NA,NA,NA
15ff9,shallow,flow.Sequence,3_0_3_0_6_1,NA,NA,completion,9411.025,591541.5,591539.196,591555.62,600966.645,600968.70000005,2023-10-11T12:10:13Z,600983.493,NULL,Schlange,foleni,s,uvumilivu,uteuzi,muuzaji,NA,qt,NA,3,NA,NA,NA,NA,NA,NA,NA,NA,NA,NA,NA,NA,NA,NA,NA,NA,NA,NA,NA
15ff9,task,flow.Sequence,3_0_3_0_6,NA,NA,completion,9411.025,591541.30000019,591539.196,591555.62,600966.645,600968.80000019,2023-10-11T12:10:13Z,600983.493,NULL,Schlange,foleni,s,uvumilivu,uteuzi,muuzaji,NA,qt,NA,3,NA,NA,NA,NA,NA,NA,NA,NA,NA,NA,NA,NA,NA,NA,NA,NA,NA,NA,NA
15ff9,Deep Question,html.Page,3_0_3_0_7_0_0,NA,NA,form submission,5162.9070000954,600968.9000001,600966.645,600983.493,606146.4000001,606146.60000014,2023-10-11T12:10:19Z,606163.767,NULL,Beweis,ushahidi,d,NA,NA,NA,yaliyomo,NA,NA,3,NA,NA,NA,NA,NA,NA,NA,NA,NA,NA,NA,NA,NA,NA,NA,NA,NA,NA,NA
15ff9,"""Richtig""-Screen",canvas.Screen,3_0_3_0_7_0_1,NA,NA,skipped,NA,606149.5,NA,NA,606146.4000001,606149.70000005,2023-10-11T12:10:19Z,606163.767,NULL,Beweis,ushahidi,d,NA,NA,NA,NA,qt,NA,3,NA,NA,NA,NA,NA,NA,NA,NA,NA,NA,NA,NA,NA,NA,NA,NA,NA,NA,NA
15ff9,"""Falsch""-Screen",canvas.Screen,3_0_3_0_7_0_2,NA,NA,timeout,4996.573,606150.10000014,606130.598,606163.767,611143.997,611145,2023-10-11T12:10:24Z,611160.34,NULL,Beweis,ushahidi,d,NA,NA,NA,NA,qt,0,3,NA,NA,NA,NA,NA,NA,NA,NA,NA,NA,NA,NA,NA,NA,NA,NA,NA,NA,NA
15ff9,deep,flow.Sequence,3_0_3_0_7_0,NA,NA,completion,10160.504,600968.9000001,600966.645,600983.493,611143.997,611145.4000001,2023-10-11T12:10:24Z,611160.34,NULL,Beweis,ushahidi,d,NA,NA,NA,NA,qt,NA,3,NA,NA,NA,NA,NA,NA,NA,NA,NA,NA,NA,NA,NA,NA,NA,NA,NA,NA,NA
15ff9,shallow,flow.Sequence,3_0_3_0_7_1,NA,NA,skipped,NA,611145.5,NA,NA,611143.997,611145.70000005,2023-10-11T12:10:24Z,611160.34,NULL,Beweis,ushahidi,d,NA,NA,NA,NA,qt,NA,3,NA,NA,NA,NA,NA,NA,NA,NA,NA,NA,NA,NA,NA,NA,NA,NA,NA,NA,NA
15ff9,task,flow.Sequence,3_0_3_0_7,NA,NA,completion,10160.504,600968.9000001,600966.645,600983.493,611143.997,611145.9000001,2023-10-11T12:10:24Z,611160.34,NULL,Beweis,ushahidi,d,NA,NA,NA,NA,qt,NA,3,NA,NA,NA,NA,NA,NA,NA,NA,NA,NA,NA,NA,NA,NA,NA,NA,NA,NA,NA
15ff9,block,flow.Loop,3_0_3_0,NA,NA,completion,92759.662,518372.5,518367.483,518384.335,611143.997,611146.20000005,2023-10-11T12:10:24Z,611160.34,NULL,NA,NA,NA,NA,NA,NA,NA,qt,NA,3,NA,NA,NA,NA,NA,NA,NA,NA,NA,NA,NA,NA,NA,NA,NA,NA,NA,NA,NA
15ff9,weiter,canvas.Screen,3_0_3_1,sdf,keypress(Space),response,1605.9600001908,611146.30000019,611143.997,611160.34,612766.30000019,612767.30000019,2023-10-11T12:10:25Z,612792.553,NULL,NA,NA,NA,NA,NA,NA,NA,qt,NA,3,NA,NA,NA,NA,NA,NA,NA,NA,NA,NA,NA,NA,NA,NA,NA,NA,NA,NA,NA
15ff9,check continue,flow.Sequence,3_0_3,NA,NA,completion,94381.965000191,518372.5,518367.483,518384.335,612766.30000019,612767.60000014,2023-10-11T12:10:25Z,612792.553,NULL,NA,NA,NA,NA,NA,NA,NA,qt,NA,3,NA,NA,NA,NA,NA,NA,NA,NA,NA,NA,NA,NA,NA,NA,NA,NA,NA,NA,NA
15ff9,deep,flow.Sequence,3_0_4_0_0_0,NA,NA,skipped,NA,612789.5,NA,NA,612766.30000019,612789.60000014,2023-10-11T12:10:25Z,612792.553,NULL,Schlange,foleni,s,uvumilivu,uteuzi,muuzaji,NA,sd,NA,4,NA,NA,NA,NA,NA,NA,NA,NA,NA,NA,NA,NA,NA,NA,NA,NA,NA,NA,NA
15ff9,Shallow Question,html.Page,3_0_4_0_0_1_0,NA,NA,form submission,3938.7470001908,612789.70000005,612775.703,612792.553,616731.30000019,616731.60000014,2023-10-11T12:10:29Z,616740.406,NULL,Schlange,foleni,s,uvumilivu,uteuzi,muuzaji,foleni,NA,NA,4,NA,NA,NA,NA,NA,NA,NA,NA,NA,NA,NA,NA,NA,NA,NA,NA,NA,NA,NA
15ff9,"""Richtig""-Screen",canvas.Screen,3_0_4_0_0_1_1,NA,NA,timeout,4997.0550000001,616734.4000001,616724.037,616740.406,621720.569,621721.60000014,2023-10-11T12:10:34Z,621737.461,NULL,Schlange,foleni,s,uvumilivu,uteuzi,muuzaji,NA,sd,1,4,NA,NA,NA,NA,NA,NA,NA,NA,NA,NA,NA,NA,NA,NA,NA,NA,NA,NA,NA
15ff9,"""Falsch""-Screen",canvas.Screen,3_0_4_0_0_1_2,NA,NA,skipped,NA,621727,NA,NA,621720.569,621727.10000014,2023-10-11T12:10:34Z,621737.461,NULL,Schlange,foleni,s,uvumilivu,uteuzi,muuzaji,NA,sd,NA,4,NA,NA,NA,NA,NA,NA,NA,NA,NA,NA,NA,NA,NA,NA,NA,NA,NA,NA,NA
15ff9,shallow,flow.Sequence,3_0_4_0_0_1,NA,NA,completion,8928.0160000001,612789.60000014,612775.703,612792.553,621720.569,621727.20000005,2023-10-11T12:10:34Z,621737.461,NULL,Schlange,foleni,s,uvumilivu,uteuzi,muuzaji,NA,sd,NA,4,NA,NA,NA,NA,NA,NA,NA,NA,NA,NA,NA,NA,NA,NA,NA,NA,NA,NA,NA
15ff9,task,flow.Sequence,3_0_4_0_0,NA,NA,completion,8928.0160000001,612789.4000001,612775.703,612792.553,621720.569,621727.30000019,2023-10-11T12:10:34Z,621737.461,NULL,Schlange,foleni,s,uvumilivu,uteuzi,muuzaji,NA,sd,NA,4,NA,NA,NA,NA,NA,NA,NA,NA,NA,NA,NA,NA,NA,NA,NA,NA,NA,NA,NA
15ff9,Deep Question,html.Page,3_0_4_0_1_0_0,NA,NA,form submission,5445.7390000477,621727.30000019,621720.569,621737.461,627183.20000005,627183.30000019,2023-10-11T12:10:40Z,627200.997,NULL,Polizist,msongora,d,NA,NA,NA,msongora,NA,NA,4,NA,NA,NA,NA,NA,NA,NA,NA,NA,NA,NA,NA,NA,NA,NA,NA,NA,NA,NA
15ff9,"""Richtig""-Screen",canvas.Screen,3_0_4_0_1_0_1,NA,NA,timeout,4996.702,627185.9000001,627167.51,627200.997,632181.145,632182.20000005,2023-10-11T12:10:45Z,632197.699,NULL,Polizist,msongora,d,NA,NA,NA,NA,sd,1,4,NA,NA,NA,NA,NA,NA,NA,NA,NA,NA,NA,NA,NA,NA,NA,NA,NA,NA,NA
15ff9,"""Falsch""-Screen",canvas.Screen,3_0_4_0_1_0_2,NA,NA,skipped,NA,632186.9000001,NA,NA,632181.145,632187,2023-10-11T12:10:45Z,632197.699,NULL,Polizist,msongora,d,NA,NA,NA,NA,sd,NA,4,NA,NA,NA,NA,NA,NA,NA,NA,NA,NA,NA,NA,NA,NA,NA,NA,NA,NA,NA
15ff9,deep,flow.Sequence,3_0_4_0_1_0,NA,NA,completion,10443.684,621727.30000019,621720.569,621737.461,632181.145,632187.10000014,2023-10-11T12:10:45Z,632197.699,NULL,Polizist,msongora,d,NA,NA,NA,NA,sd,NA,4,NA,NA,NA,NA,NA,NA,NA,NA,NA,NA,NA,NA,NA,NA,NA,NA,NA,NA,NA
15ff9,shallow,flow.Sequence,3_0_4_0_1_1,NA,NA,skipped,NA,632187.20000005,NA,NA,632181.145,632187.20000005,2023-10-11T12:10:45Z,632197.699,NULL,Polizist,msongora,d,NA,NA,NA,NA,sd,NA,4,NA,NA,NA,NA,NA,NA,NA,NA,NA,NA,NA,NA,NA,NA,NA,NA,NA,NA,NA
15ff9,task,flow.Sequence,3_0_4_0_1,NA,NA,completion,10443.684,621727.30000019,621720.569,621737.461,632181.145,632187.30000019,2023-10-11T12:10:45Z,632197.699,NULL,Polizist,msongora,d,NA,NA,NA,NA,sd,NA,4,NA,NA,NA,NA,NA,NA,NA,NA,NA,NA,NA,NA,NA,NA,NA,NA,NA,NA,NA
15ff9,Deep Question,html.Page,3_0_4_0_2_0_0,NA,NA,form submission,4431.0010000477,632187.30000019,632181.145,632197.699,636628.70000005,636629,2023-10-11T12:10:49Z,636644.773,NULL,Beweis,ushahidi,d,NA,NA,NA,yaliyomo,NA,NA,4,NA,NA,NA,NA,NA,NA,NA,NA,NA,NA,NA,NA,NA,NA,NA,NA,NA,NA,NA
15ff9,"""Richtig""-Screen",canvas.Screen,3_0_4_0_2_0_1,NA,NA,skipped,NA,636631.60000014,NA,NA,636628.70000005,636631.70000005,2023-10-11T12:10:49Z,636644.773,NULL,Beweis,ushahidi,d,NA,NA,NA,NA,sd,NA,4,NA,NA,NA,NA,NA,NA,NA,NA,NA,NA,NA,NA,NA,NA,NA,NA,NA,NA,NA
15ff9,"""Falsch""-Screen",canvas.Screen,3_0_4_0_2_0_2,NA,NA,timeout,4997.154,636632.60000014,636628.057,636644.773,641624.947,641626.20000005,2023-10-11T12:10:54Z,641641.927,NULL,Beweis,ushahidi,d,NA,NA,NA,NA,sd,0,4,NA,NA,NA,NA,NA,NA,NA,NA,NA,NA,NA,NA,NA,NA,NA,NA,NA,NA,NA
15ff9,deep,flow.Sequence,3_0_4_0_2_0,NA,NA,completion,9427.248,632187.30000019,632181.145,632197.699,641624.947,641626.70000005,2023-10-11T12:10:54Z,641641.927,NULL,Beweis,ushahidi,d,NA,NA,NA,NA,sd,NA,4,NA,NA,NA,NA,NA,NA,NA,NA,NA,NA,NA,NA,NA,NA,NA,NA,NA,NA,NA
15ff9,shallow,flow.Sequence,3_0_4_0_2_1,NA,NA,skipped,NA,641626.80000019,NA,NA,641624.947,641627.10000014,2023-10-11T12:10:54Z,641641.927,NULL,Beweis,ushahidi,d,NA,NA,NA,NA,sd,NA,4,NA,NA,NA,NA,NA,NA,NA,NA,NA,NA,NA,NA,NA,NA,NA,NA,NA,NA,NA
15ff9,task,flow.Sequence,3_0_4_0_2,NA,NA,completion,9427.248,632187.30000019,632181.145,632197.699,641624.947,641627.30000019,2023-10-11T12:10:54Z,641641.927,NULL,Beweis,ushahidi,d,NA,NA,NA,NA,sd,NA,4,NA,NA,NA,NA,NA,NA,NA,NA,NA,NA,NA,NA,NA,NA,NA,NA,NA,NA,NA
15ff9,deep,flow.Sequence,3_0_4_0_3_0,NA,NA,skipped,NA,641627.5,NA,NA,641624.947,641627.60000014,2023-10-11T12:10:54Z,641641.927,NULL,Toleranz,kuvumiliana,s,maombolezo,ujasusi,mchekeshaji,NA,sd,NA,4,NA,NA,NA,NA,NA,NA,NA,NA,NA,NA,NA,NA,NA,NA,NA,NA,NA,NA,NA
15ff9,Shallow Question,html.Page,3_0_4_0_3_1_0,NA,NA,form submission,3770.3730001907,641628,641624.947,641641.927,645412.30000019,645412.60000014,2023-10-11T12:10:58Z,645423.053,NULL,Toleranz,kuvumiliana,s,maombolezo,ujasusi,mchekeshaji,kuvumiliana,NA,NA,4,NA,NA,NA,NA,NA,NA,NA,NA,NA,NA,NA,NA,NA,NA,NA,NA,NA,NA,NA
15ff9,"""Richtig""-Screen",canvas.Screen,3_0_4_0_3_1_1,NA,NA,timeout,4996.799,645415.70000005,645406.268,645423.053,650403.073,650404.10000014,2023-10-11T12:11:03Z,650419.852,NULL,Toleranz,kuvumiliana,s,maombolezo,ujasusi,mchekeshaji,NA,sd,1,4,NA,NA,NA,NA,NA,NA,NA,NA,NA,NA,NA,NA,NA,NA,NA,NA,NA,NA,NA
15ff9,"""Falsch""-Screen",canvas.Screen,3_0_4_0_3_1_2,NA,NA,skipped,NA,650409.60000014,NA,NA,650403.073,650409.70000005,2023-10-11T12:11:03Z,650419.852,NULL,Toleranz,kuvumiliana,s,maombolezo,ujasusi,mchekeshaji,NA,sd,NA,4,NA,NA,NA,NA,NA,NA,NA,NA,NA,NA,NA,NA,NA,NA,NA,NA,NA,NA,NA
15ff9,shallow,flow.Sequence,3_0_4_0_3_1,NA,NA,completion,8761.1459999999,641627.70000005,641624.947,641641.927,650403.073,650409.80000019,2023-10-11T12:11:03Z,650419.852,NULL,Toleranz,kuvumiliana,s,maombolezo,ujasusi,mchekeshaji,NA,sd,NA,4,NA,NA,NA,NA,NA,NA,NA,NA,NA,NA,NA,NA,NA,NA,NA,NA,NA,NA,NA
15ff9,task,flow.Sequence,3_0_4_0_3,NA,NA,completion,8761.1459999999,641627.5,641624.947,641641.927,650403.073,650409.9000001,2023-10-11T12:11:03Z,650419.852,NULL,Toleranz,kuvumiliana,s,maombolezo,ujasusi,mchekeshaji,NA,sd,NA,4,NA,NA,NA,NA,NA,NA,NA,NA,NA,NA,NA,NA,NA,NA,NA,NA,NA,NA,NA
15ff9,Deep Question,html.Page,3_0_4_0_4_0_0,NA,NA,form submission,4091.3480000477,650410,650403.073,650419.852,654511.20000005,654511.5,2023-10-11T12:11:07Z,654517.006,NULL,Inhalt,yaliyomo,d,NA,NA,NA,yaliyomo,NA,NA,4,NA,NA,NA,NA,NA,NA,NA,NA,NA,NA,NA,NA,NA,NA,NA,NA,NA,NA,NA
15ff9,"""Richtig""-Screen",canvas.Screen,3_0_4_0_4_0_1,NA,NA,timeout,4997.4389999999,654514.4000001,654500.074,654517.006,659497.405,659498.30000019,2023-10-11T12:11:12Z,659514.445,NULL,Inhalt,yaliyomo,d,NA,NA,NA,NA,sd,1,4,NA,NA,NA,NA,NA,NA,NA,NA,NA,NA,NA,NA,NA,NA,NA,NA,NA,NA,NA
15ff9,"""Falsch""-Screen",canvas.Screen,3_0_4_0_4_0_2,NA,NA,skipped,NA,659503.20000005,NA,NA,659497.405,659503.30000019,2023-10-11T12:11:12Z,659514.445,NULL,Inhalt,yaliyomo,d,NA,NA,NA,NA,sd,NA,4,NA,NA,NA,NA,NA,NA,NA,NA,NA,NA,NA,NA,NA,NA,NA,NA,NA,NA,NA
15ff9,deep,flow.Sequence,3_0_4_0_4_0,NA,NA,completion,9077.5530000001,650410,650403.073,650419.852,659497.405,659503.4000001,2023-10-11T12:11:12Z,659514.445,NULL,Inhalt,yaliyomo,d,NA,NA,NA,NA,sd,NA,4,NA,NA,NA,NA,NA,NA,NA,NA,NA,NA,NA,NA,NA,NA,NA,NA,NA,NA,NA
15ff9,shallow,flow.Sequence,3_0_4_0_4_1,NA,NA,skipped,NA,659503.5,NA,NA,659497.405,659503.5,2023-10-11T12:11:12Z,659514.445,NULL,Inhalt,yaliyomo,d,NA,NA,NA,NA,sd,NA,4,NA,NA,NA,NA,NA,NA,NA,NA,NA,NA,NA,NA,NA,NA,NA,NA,NA,NA,NA
15ff9,task,flow.Sequence,3_0_4_0_4,NA,NA,completion,9077.5530000001,650409.9000001,650403.073,650419.852,659497.405,659503.5,2023-10-11T12:11:12Z,659514.445,NULL,Inhalt,yaliyomo,d,NA,NA,NA,NA,sd,NA,4,NA,NA,NA,NA,NA,NA,NA,NA,NA,NA,NA,NA,NA,NA,NA,NA,NA,NA,NA
15ff9,deep,flow.Sequence,3_0_4_0_5_0,NA,NA,skipped,NA,659503.5,NA,NA,659497.405,659503.5,2023-10-11T12:11:12Z,659514.445,NULL,Annäherung,maegesho,s,madahili,kujiamini,mapendekezo,NA,sd,NA,4,NA,NA,NA,NA,NA,NA,NA,NA,NA,NA,NA,NA,NA,NA,NA,NA,NA,NA,NA
15ff9,Shallow Question,html.Page,3_0_4_0_5_1_0,NA,NA,form submission,4417.6550001431,659503.70000005,659497.405,659514.445,663932.10000014,663932.4000001,2023-10-11T12:11:16Z,663944.567,NULL,Annäherung,maegesho,s,madahili,kujiamini,mapendekezo,maegesho,NA,NA,4,NA,NA,NA,NA,NA,NA,NA,NA,NA,NA,NA,NA,NA,NA,NA,NA,NA,NA,NA
15ff9,"""Richtig""-Screen",canvas.Screen,3_0_4_0_5_1_1,NA,NA,timeout,4997.105,663934.9000001,663926.252,663944.567,668925.136,668926.10000014,2023-10-11T12:11:21Z,668941.672,NULL,Annäherung,maegesho,s,madahili,kujiamini,mapendekezo,NA,sd,1,4,NA,NA,NA,NA,NA,NA,NA,NA,NA,NA,NA,NA,NA,NA,NA,NA,NA,NA,NA
15ff9,"""Falsch""-Screen",canvas.Screen,3_0_4_0_5_1_2,NA,NA,skipped,NA,668931.20000005,NA,NA,668925.136,668931.20000005,2023-10-11T12:11:21Z,668941.672,NULL,Annäherung,maegesho,s,madahili,kujiamini,mapendekezo,NA,sd,NA,4,NA,NA,NA,NA,NA,NA,NA,NA,NA,NA,NA,NA,NA,NA,NA,NA,NA,NA,NA
15ff9,shallow,flow.Sequence,3_0_4_0_5_1,NA,NA,completion,9410.6910000001,659503.70000005,659497.405,659514.445,668925.136,668931.4000001,2023-10-11T12:11:21Z,668941.672,NULL,Annäherung,maegesho,s,madahili,kujiamini,mapendekezo,NA,sd,NA,4,NA,NA,NA,NA,NA,NA,NA,NA,NA,NA,NA,NA,NA,NA,NA,NA,NA,NA,NA
15ff9,task,flow.Sequence,3_0_4_0_5,NA,NA,completion,9410.6910000001,659503.5,659497.405,659514.445,668925.136,668931.60000014,2023-10-11T12:11:21Z,668941.672,NULL,Annäherung,maegesho,s,madahili,kujiamini,mapendekezo,NA,sd,NA,4,NA,NA,NA,NA,NA,NA,NA,NA,NA,NA,NA,NA,NA,NA,NA,NA,NA,NA,NA
15ff9,Deep Question,html.Page,3_0_4_0_6_0_0,NA,NA,form submission,7683.6280001907,668931.70000005,668925.136,668941.672,676625.30000019,676625.5,2023-10-11T12:11:29Z,676636.911,NULL,Vermutung,udhanifu,d,NA,NA,NA,ushaidi,NA,NA,4,NA,NA,NA,NA,NA,NA,NA,NA,NA,NA,NA,NA,NA,NA,NA,NA,NA,NA,NA
15ff9,"""Richtig""-Screen",canvas.Screen,3_0_4_0_6_0_1,NA,NA,skipped,NA,676628.70000005,NA,NA,676625.30000019,676628.80000019,2023-10-11T12:11:29Z,676636.911,NULL,Vermutung,udhanifu,d,NA,NA,NA,NA,sd,NA,4,NA,NA,NA,NA,NA,NA,NA,NA,NA,NA,NA,NA,NA,NA,NA,NA,NA,NA,NA
15ff9,"""Falsch""-Screen",canvas.Screen,3_0_4_0_6_0_2,NA,NA,timeout,4997.275,676629.30000019,676620.521,676636.911,681617.122,681618,2023-10-11T12:11:34Z,681634.186,NULL,Vermutung,udhanifu,d,NA,NA,NA,NA,sd,0,4,NA,NA,NA,NA,NA,NA,NA,NA,NA,NA,NA,NA,NA,NA,NA,NA,NA,NA,NA
15ff9,deep,flow.Sequence,3_0_4_0_6_0,NA,NA,completion,12675.45,668931.60000014,668925.136,668941.672,681617.122,681618.4000001,2023-10-11T12:11:34Z,681634.186,NULL,Vermutung,udhanifu,d,NA,NA,NA,NA,sd,NA,4,NA,NA,NA,NA,NA,NA,NA,NA,NA,NA,NA,NA,NA,NA,NA,NA,NA,NA,NA
15ff9,shallow,flow.Sequence,3_0_4_0_6_1,NA,NA,skipped,NA,681618.5,NA,NA,681617.122,681618.60000014,2023-10-11T12:11:34Z,681634.186,NULL,Vermutung,udhanifu,d,NA,NA,NA,NA,sd,NA,4,NA,NA,NA,NA,NA,NA,NA,NA,NA,NA,NA,NA,NA,NA,NA,NA,NA,NA,NA
15ff9,task,flow.Sequence,3_0_4_0_6,NA,NA,completion,12675.45,668931.60000014,668925.136,668941.672,681617.122,681618.9000001,2023-10-11T12:11:34Z,681634.186,NULL,Vermutung,udhanifu,d,NA,NA,NA,NA,sd,NA,4,NA,NA,NA,NA,NA,NA,NA,NA,NA,NA,NA,NA,NA,NA,NA,NA,NA,NA,NA
15ff9,deep,flow.Sequence,3_0_4_0_7_0,NA,NA,skipped,NA,681619,NA,NA,681617.122,681619.10000014,2023-10-11T12:11:34Z,681634.186,NULL,Sympathie,mapendano,s,dhamiria,fungamano,maazimio,NA,sd,NA,4,NA,NA,NA,NA,NA,NA,NA,NA,NA,NA,NA,NA,NA,NA,NA,NA,NA,NA,NA
15ff9,Shallow Question,html.Page,3_0_4_0_7_1_0,NA,NA,form submission,3086.5140000477,681619.20000005,681617.122,681634.186,684720.70000005,684720.9000001,2023-10-11T12:11:37Z,684731.881,NULL,Sympathie,mapendano,s,dhamiria,fungamano,maazimio,mapendano,NA,NA,4,NA,NA,NA,NA,NA,NA,NA,NA,NA,NA,NA,NA,NA,NA,NA,NA,NA,NA,NA
15ff9,"""Richtig""-Screen",canvas.Screen,3_0_4_0_7_1_1,NA,NA,timeout,4997.294,684723.9000001,684714.872,684731.881,689712.272,689713.20000005,2023-10-11T12:11:42Z,689729.175,NULL,Sympathie,mapendano,s,dhamiria,fungamano,maazimio,NA,sd,1,4,NA,NA,NA,NA,NA,NA,NA,NA,NA,NA,NA,NA,NA,NA,NA,NA,NA,NA,NA
15ff9,"""Falsch""-Screen",canvas.Screen,3_0_4_0_7_1_2,NA,NA,skipped,NA,689718,NA,NA,689712.272,689718.10000014,2023-10-11T12:11:42Z,689729.175,NULL,Sympathie,mapendano,s,dhamiria,fungamano,maazimio,NA,sd,NA,4,NA,NA,NA,NA,NA,NA,NA,NA,NA,NA,NA,NA,NA,NA,NA,NA,NA,NA,NA
15ff9,shallow,flow.Sequence,3_0_4_0_7_1,NA,NA,completion,8078.086,681619.20000005,681617.122,681634.186,689712.272,689718.10000014,2023-10-11T12:11:42Z,689729.175,NULL,Sympathie,mapendano,s,dhamiria,fungamano,maazimio,NA,sd,NA,4,NA,NA,NA,NA,NA,NA,NA,NA,NA,NA,NA,NA,NA,NA,NA,NA,NA,NA,NA
15ff9,task,flow.Sequence,3_0_4_0_7,NA,NA,completion,8078.086,681619,681617.122,681634.186,689712.272,689718.20000005,2023-10-11T12:11:42Z,689729.175,NULL,Sympathie,mapendano,s,dhamiria,fungamano,maazimio,NA,sd,NA,4,NA,NA,NA,NA,NA,NA,NA,NA,NA,NA,NA,NA,NA,NA,NA,NA,NA,NA,NA
15ff9,block,flow.Loop,3_0_4_0,NA,NA,completion,76919.719,612789.4000001,612775.703,612792.553,689712.272,689718.20000005,2023-10-11T12:11:42Z,689729.175,NULL,NA,NA,NA,NA,NA,NA,NA,sd,NA,4,NA,NA,NA,NA,NA,NA,NA,NA,NA,NA,NA,NA,NA,NA,NA,NA,NA,NA,NA
15ff9,weiter,canvas.Screen,3_0_4_1,sdf,keypress(Space),response,1064.325,689718.30000019,689712.272,689729.175,690793.5,690794.5,2023-10-11T12:11:43Z,690828.123,NULL,NA,NA,NA,NA,NA,NA,NA,sd,NA,4,NA,NA,NA,NA,NA,NA,NA,NA,NA,NA,NA,NA,NA,NA,NA,NA,NA,NA,NA
15ff9,check continue,flow.Sequence,3_0_4,NA,NA,completion,78000.947,612789.4000001,612775.703,612792.553,690793.5,690794.80000019,2023-10-11T12:11:43Z,690828.123,NULL,NA,NA,NA,NA,NA,NA,NA,sd,NA,4,NA,NA,NA,NA,NA,NA,NA,NA,NA,NA,NA,NA,NA,NA,NA,NA,NA,NA,NA
15ff9,deep,flow.Sequence,3_0_5_0_0_0,NA,NA,skipped,NA,690821.20000005,NA,NA,690793.5,690821.30000019,2023-10-11T12:11:43Z,690828.123,NULL,Sympathie,mapendano,s,dhamiria,fungamano,maazimio,NA,sdf,NA,5,NA,NA,NA,NA,NA,NA,NA,NA,NA,NA,NA,NA,NA,NA,NA,NA,NA,NA,NA
15ff9,Shallow Question,html.Page,3_0_5_0_0_1_0,NA,NA,form submission,3157.2770000953,690821.4000001,690810.948,690828.123,693985.4000001,693985.5,2023-10-11T12:11:46Z,693992.923,NULL,Sympathie,mapendano,s,dhamiria,fungamano,maazimio,mapendano,NA,NA,5,NA,NA,NA,NA,NA,NA,NA,NA,NA,NA,NA,NA,NA,NA,NA,NA,NA,NA,NA
15ff9,"""Richtig""-Screen",canvas.Screen,3_0_5_0_0_1_1,NA,NA,timeout,4997.228,693986.10000014,693976.54,693992.923,698973.201,698974.4000001,2023-10-11T12:11:51Z,698990.151,NULL,Sympathie,mapendano,s,dhamiria,fungamano,maazimio,NA,sdf,1,5,NA,NA,NA,NA,NA,NA,NA,NA,NA,NA,NA,NA,NA,NA,NA,NA,NA,NA,NA
15ff9,"""Falsch""-Screen",canvas.Screen,3_0_5_0_0_1_2,NA,NA,skipped,NA,698979.5,NA,NA,698973.201,698979.5,2023-10-11T12:11:51Z,698990.151,NULL,Sympathie,mapendano,s,dhamiria,fungamano,maazimio,NA,sdf,NA,5,NA,NA,NA,NA,NA,NA,NA,NA,NA,NA,NA,NA,NA,NA,NA,NA,NA,NA,NA
15ff9,shallow,flow.Sequence,3_0_5_0_0_1,NA,NA,completion,8145.078,690821.4000001,690810.948,690828.123,698973.201,698979.60000014,2023-10-11T12:11:51Z,698990.151,NULL,Sympathie,mapendano,s,dhamiria,fungamano,maazimio,NA,sdf,NA,5,NA,NA,NA,NA,NA,NA,NA,NA,NA,NA,NA,NA,NA,NA,NA,NA,NA,NA,NA
15ff9,task,flow.Sequence,3_0_5_0_0,NA,NA,completion,8145.078,690821.20000005,690810.948,690828.123,698973.201,698979.70000005,2023-10-11T12:11:51Z,698990.151,NULL,Sympathie,mapendano,s,dhamiria,fungamano,maazimio,NA,sdf,NA,5,NA,NA,NA,NA,NA,NA,NA,NA,NA,NA,NA,NA,NA,NA,NA,NA,NA,NA,NA
15ff9,deep,flow.Sequence,3_0_5_0_1_0,NA,NA,skipped,NA,698979.80000019,NA,NA,698973.201,698979.80000019,2023-10-11T12:11:51Z,698990.151,NULL,Annäherung,maegesho,s,madahili,kujiamini,mapendekezo,NA,sdf,NA,5,NA,NA,NA,NA,NA,NA,NA,NA,NA,NA,NA,NA,NA,NA,NA,NA,NA,NA,NA
15ff9,Shallow Question,html.Page,3_0_5_0_1_1_0,NA,NA,form submission,4830.9490001431,698979.80000019,698973.201,698990.151,703821.10000014,703821.30000019,2023-10-11T12:11:56Z,703837.397,NULL,Annäherung,maegesho,s,madahili,kujiamini,mapendekezo,maegesho,NA,NA,5,NA,NA,NA,NA,NA,NA,NA,NA,NA,NA,NA,NA,NA,NA,NA,NA,NA,NA,NA
15ff9,"""Richtig""-Screen",canvas.Screen,3_0_5_0_1_1_1,NA,NA,timeout,4996.834,703824.20000005,703804.264,703837.397,708817.587,708818.70000005,2023-10-11T12:12:01Z,708834.231,NULL,Annäherung,maegesho,s,madahili,kujiamini,mapendekezo,NA,sdf,1,5,NA,NA,NA,NA,NA,NA,NA,NA,NA,NA,NA,NA,NA,NA,NA,NA,NA,NA,NA
15ff9,"""Falsch""-Screen",canvas.Screen,3_0_5_0_1_1_2,NA,NA,skipped,NA,708823.9000001,NA,NA,708817.587,708824,2023-10-11T12:12:01Z,708834.231,NULL,Annäherung,maegesho,s,madahili,kujiamini,mapendekezo,NA,sdf,NA,5,NA,NA,NA,NA,NA,NA,NA,NA,NA,NA,NA,NA,NA,NA,NA,NA,NA,NA,NA
15ff9,shallow,flow.Sequence,3_0_5_0_1_1,NA,NA,completion,9827.4360000001,698979.80000019,698973.201,698990.151,708817.587,708824.10000014,2023-10-11T12:12:01Z,708834.231,NULL,Annäherung,maegesho,s,madahili,kujiamini,mapendekezo,NA,sdf,NA,5,NA,NA,NA,NA,NA,NA,NA,NA,NA,NA,NA,NA,NA,NA,NA,NA,NA,NA,NA
15ff9,task,flow.Sequence,3_0_5_0_1,NA,NA,completion,9827.4360000001,698979.70000005,698973.201,698990.151,708817.587,708824.20000005,2023-10-11T12:12:01Z,708834.231,NULL,Annäherung,maegesho,s,madahili,kujiamini,mapendekezo,NA,sdf,NA,5,NA,NA,NA,NA,NA,NA,NA,NA,NA,NA,NA,NA,NA,NA,NA,NA,NA,NA,NA
15ff9,deep,flow.Sequence,3_0_5_0_2_0,NA,NA,skipped,NA,708824.30000019,NA,NA,708817.587,708824.30000019,2023-10-11T12:12:01Z,708834.231,NULL,Toleranz,kuvumiliana,s,maombolezo,ujasusi,mchekeshaji,NA,sdf,NA,5,NA,NA,NA,NA,NA,NA,NA,NA,NA,NA,NA,NA,NA,NA,NA,NA,NA,NA,NA
15ff9,Shallow Question,html.Page,3_0_5_0_2_1_0,NA,NA,form submission,3253.6690000953,708824.30000019,708817.587,708834.231,712087.9000001,712088.10000014,2023-10-11T12:12:05Z,712098.685,NULL,Toleranz,kuvumiliana,s,maombolezo,ujasusi,mchekeshaji,kuvumiliana,NA,NA,5,NA,NA,NA,NA,NA,NA,NA,NA,NA,NA,NA,NA,NA,NA,NA,NA,NA,NA,NA
15ff9,"""Richtig""-Screen",canvas.Screen,3_0_5_0_2_1_1,NA,NA,timeout,4997.0589999999,712090.70000005,712081.786,712098.685,717078.965,717079.80000019,2023-10-11T12:12:10Z,717095.744,NULL,Toleranz,kuvumiliana,s,maombolezo,ujasusi,mchekeshaji,NA,sdf,1,5,NA,NA,NA,NA,NA,NA,NA,NA,NA,NA,NA,NA,NA,NA,NA,NA,NA,NA,NA
15ff9,"""Falsch""-Screen",canvas.Screen,3_0_5_0_2_1_2,NA,NA,skipped,NA,717084.9000001,NA,NA,717078.965,717085.20000005,2023-10-11T12:12:10Z,717095.744,NULL,Toleranz,kuvumiliana,s,maombolezo,ujasusi,mchekeshaji,NA,sdf,NA,5,NA,NA,NA,NA,NA,NA,NA,NA,NA,NA,NA,NA,NA,NA,NA,NA,NA,NA,NA
15ff9,shallow,flow.Sequence,3_0_5_0_2_1,NA,NA,completion,8244.7339999999,708824.30000019,708817.587,708834.231,717078.965,717085.4000001,2023-10-11T12:12:10Z,717095.744,NULL,Toleranz,kuvumiliana,s,maombolezo,ujasusi,mchekeshaji,NA,sdf,NA,5,NA,NA,NA,NA,NA,NA,NA,NA,NA,NA,NA,NA,NA,NA,NA,NA,NA,NA,NA
15ff9,task,flow.Sequence,3_0_5_0_2,NA,NA,completion,8244.7339999999,708824.30000019,708817.587,708834.231,717078.965,717085.4000001,2023-10-11T12:12:10Z,717095.744,NULL,Toleranz,kuvumiliana,s,maombolezo,ujasusi,mchekeshaji,NA,sdf,NA,5,NA,NA,NA,NA,NA,NA,NA,NA,NA,NA,NA,NA,NA,NA,NA,NA,NA,NA,NA
15ff9,Deep Question,html.Page,3_0_5_0_3_0_0,NA,NA,form submission,3790.4560000477,717085.4000001,717078.965,717095.744,720886.20000005,720886.4000001,2023-10-11T12:12:13Z,720909.956,NULL,Inhalt,yaliyomo,d,NA,NA,NA,yaliyomo,NA,NA,5,NA,NA,NA,NA,NA,NA,NA,NA,NA,NA,NA,NA,NA,NA,NA,NA,NA,NA,NA
15ff9,"""Richtig""-Screen",canvas.Screen,3_0_5_0_3_0_1,NA,NA,timeout,4997.027,720889.20000005,720893.446,720909.956,725890.23,725891.4000001,2023-10-11T12:12:18Z,725906.983,NULL,Inhalt,yaliyomo,d,NA,NA,NA,NA,sdf,1,5,NA,NA,NA,NA,NA,NA,NA,NA,NA,NA,NA,NA,NA,NA,NA,NA,NA,NA,NA
15ff9,"""Falsch""-Screen",canvas.Screen,3_0_5_0_3_0_2,NA,NA,skipped,NA,725896.10000014,NA,NA,725890.23,725896.30000019,2023-10-11T12:12:18Z,725906.983,NULL,Inhalt,yaliyomo,d,NA,NA,NA,NA,sdf,NA,5,NA,NA,NA,NA,NA,NA,NA,NA,NA,NA,NA,NA,NA,NA,NA,NA,NA,NA,NA
15ff9,deep,flow.Sequence,3_0_5_0_3_0,NA,NA,completion,8794.486,717085.4000001,717078.965,717095.744,725890.23,725896.4000001,2023-10-11T12:12:18Z,725906.983,NULL,Inhalt,yaliyomo,d,NA,NA,NA,NA,sdf,NA,5,NA,NA,NA,NA,NA,NA,NA,NA,NA,NA,NA,NA,NA,NA,NA,NA,NA,NA,NA
15ff9,shallow,flow.Sequence,3_0_5_0_3_1,NA,NA,skipped,NA,725896.4000001,NA,NA,725890.23,725896.5,2023-10-11T12:12:18Z,725906.983,NULL,Inhalt,yaliyomo,d,NA,NA,NA,NA,sdf,NA,5,NA,NA,NA,NA,NA,NA,NA,NA,NA,NA,NA,NA,NA,NA,NA,NA,NA,NA,NA
15ff9,task,flow.Sequence,3_0_5_0_3,NA,NA,completion,8794.486,717085.4000001,717078.965,717095.744,725890.23,725896.5,2023-10-11T12:12:18Z,725906.983,NULL,Inhalt,yaliyomo,d,NA,NA,NA,NA,sdf,NA,5,NA,NA,NA,NA,NA,NA,NA,NA,NA,NA,NA,NA,NA,NA,NA,NA,NA,NA,NA
15ff9,Deep Question,html.Page,3_0_5_0_4_0_0,NA,NA,form submission,4525.7170000477,725896.60000014,725890.23,725906.983,730432.70000005,730433,2023-10-11T12:12:23Z,730437.135,NULL,Polizist,msongora,d,NA,NA,NA,msongora,NA,NA,5,NA,NA,NA,NA,NA,NA,NA,NA,NA,NA,NA,NA,NA,NA,NA,NA,NA,NA,NA
15ff9,"""Richtig""-Screen",canvas.Screen,3_0_5_0_4_0_1,NA,NA,timeout,4997.416,730436.20000005,730420.8,730437.135,735417.841,735418.9000001,2023-10-11T12:12:28Z,735434.551,NULL,Polizist,msongora,d,NA,NA,NA,NA,sdf,1,5,NA,NA,NA,NA,NA,NA,NA,NA,NA,NA,NA,NA,NA,NA,NA,NA,NA,NA,NA
15ff9,"""Falsch""-Screen",canvas.Screen,3_0_5_0_4_0_2,NA,NA,skipped,NA,735425.10000014,NA,NA,735417.841,735425.20000005,2023-10-11T12:12:28Z,735434.551,NULL,Polizist,msongora,d,NA,NA,NA,NA,sdf,NA,5,NA,NA,NA,NA,NA,NA,NA,NA,NA,NA,NA,NA,NA,NA,NA,NA,NA,NA,NA
15ff9,deep,flow.Sequence,3_0_5_0_4_0,NA,NA,completion,9510.858,725896.5,725890.23,725906.983,735417.841,735425.4000001,2023-10-11T12:12:28Z,735434.551,NULL,Polizist,msongora,d,NA,NA,NA,NA,sdf,NA,5,NA,NA,NA,NA,NA,NA,NA,NA,NA,NA,NA,NA,NA,NA,NA,NA,NA,NA,NA
15ff9,shallow,flow.Sequence,3_0_5_0_4_1,NA,NA,skipped,NA,735425.4000001,NA,NA,735417.841,735425.5,2023-10-11T12:12:28Z,735434.551,NULL,Polizist,msongora,d,NA,NA,NA,NA,sdf,NA,5,NA,NA,NA,NA,NA,NA,NA,NA,NA,NA,NA,NA,NA,NA,NA,NA,NA,NA,NA
15ff9,task,flow.Sequence,3_0_5_0_4,NA,NA,completion,9510.858,725896.5,725890.23,725906.983,735417.841,735425.60000014,2023-10-11T12:12:28Z,735434.551,NULL,Polizist,msongora,d,NA,NA,NA,NA,sdf,NA,5,NA,NA,NA,NA,NA,NA,NA,NA,NA,NA,NA,NA,NA,NA,NA,NA,NA,NA,NA
15ff9,Deep Question,html.Page,3_0_5_0_5_0_0,NA,NA,form submission,14324.849000095,735425.80000019,735417.841,735434.551,749759.4000001,749759.60000014,2023-10-11T12:12:42Z,749775.386,NULL,Vermutung,udhanifu,d,NA,NA,NA,ushanfi,NA,NA,5,NA,NA,NA,NA,NA,NA,NA,NA,NA,NA,NA,NA,NA,NA,NA,NA,NA,NA,NA
15ff9,"""Richtig""-Screen",canvas.Screen,3_0_5_0_5_0_1,NA,NA,skipped,NA,749762.80000019,NA,NA,749759.4000001,749763,2023-10-11T12:12:42Z,749775.386,NULL,Vermutung,udhanifu,d,NA,NA,NA,NA,sdf,NA,5,NA,NA,NA,NA,NA,NA,NA,NA,NA,NA,NA,NA,NA,NA,NA,NA,NA,NA,NA
15ff9,"""Falsch""-Screen",canvas.Screen,3_0_5_0_5_0_2,NA,NA,timeout,4997.264,749763.80000019,749758.945,749775.386,754755.83,754756.80000019,2023-10-11T12:12:47Z,754772.65,NULL,Vermutung,udhanifu,d,NA,NA,NA,NA,sdf,0,5,NA,NA,NA,NA,NA,NA,NA,NA,NA,NA,NA,NA,NA,NA,NA,NA,NA,NA,NA
15ff9,deep,flow.Sequence,3_0_5_0_5_0,NA,NA,completion,19321.279,735425.70000005,735417.841,735434.551,754755.83,754757.30000019,2023-10-11T12:12:47Z,754772.65,NULL,Vermutung,udhanifu,d,NA,NA,NA,NA,sdf,NA,5,NA,NA,NA,NA,NA,NA,NA,NA,NA,NA,NA,NA,NA,NA,NA,NA,NA,NA,NA
15ff9,shallow,flow.Sequence,3_0_5_0_5_1,NA,NA,skipped,NA,754757.5,NA,NA,754755.83,754757.60000014,2023-10-11T12:12:47Z,754772.65,NULL,Vermutung,udhanifu,d,NA,NA,NA,NA,sdf,NA,5,NA,NA,NA,NA,NA,NA,NA,NA,NA,NA,NA,NA,NA,NA,NA,NA,NA,NA,NA
15ff9,task,flow.Sequence,3_0_5_0_5,NA,NA,completion,19321.279,735425.70000005,735417.841,735434.551,754755.83,754757.80000019,2023-10-11T12:12:47Z,754772.65,NULL,Vermutung,udhanifu,d,NA,NA,NA,NA,sdf,NA,5,NA,NA,NA,NA,NA,NA,NA,NA,NA,NA,NA,NA,NA,NA,NA,NA,NA,NA,NA
15ff9,deep,flow.Sequence,3_0_5_0_6_0,NA,NA,skipped,NA,754758,NA,NA,754755.83,754758.10000014,2023-10-11T12:12:47Z,754772.65,NULL,Schlange,foleni,s,uvumilivu,uteuzi,muuzaji,NA,sdf,NA,5,NA,NA,NA,NA,NA,NA,NA,NA,NA,NA,NA,NA,NA,NA,NA,NA,NA,NA,NA
15ff9,Shallow Question,html.Page,3_0_5_0_6_1_0,NA,NA,form submission,3515.0500000477,754758.30000019,754755.83,754772.65,758287.70000005,758287.80000019,2023-10-11T12:12:51Z,758303.879,NULL,Schlange,foleni,s,uvumilivu,uteuzi,muuzaji,foleni,NA,NA,5,NA,NA,NA,NA,NA,NA,NA,NA,NA,NA,NA,NA,NA,NA,NA,NA,NA,NA,NA
15ff9,"""Richtig""-Screen",canvas.Screen,3_0_5_0_6_1_1,NA,NA,timeout,4996.995,758289.4000001,758286.429,758303.879,763283.763,763284.9000001,2023-10-11T12:12:56Z,763300.874,NULL,Schlange,foleni,s,uvumilivu,uteuzi,muuzaji,NA,sdf,1,5,NA,NA,NA,NA,NA,NA,NA,NA,NA,NA,NA,NA,NA,NA,NA,NA,NA,NA,NA
15ff9,"""Falsch""-Screen",canvas.Screen,3_0_5_0_6_1_2,NA,NA,skipped,NA,763290.10000014,NA,NA,763283.763,763290.10000014,2023-10-11T12:12:56Z,763300.874,NULL,Schlange,foleni,s,uvumilivu,uteuzi,muuzaji,NA,sdf,NA,5,NA,NA,NA,NA,NA,NA,NA,NA,NA,NA,NA,NA,NA,NA,NA,NA,NA,NA,NA
15ff9,shallow,flow.Sequence,3_0_5_0_6_1,NA,NA,completion,8511.113,754758.20000005,754755.83,754772.65,763283.763,763290.20000005,2023-10-11T12:12:56Z,763300.874,NULL,Schlange,foleni,s,uvumilivu,uteuzi,muuzaji,NA,sdf,NA,5,NA,NA,NA,NA,NA,NA,NA,NA,NA,NA,NA,NA,NA,NA,NA,NA,NA,NA,NA
15ff9,task,flow.Sequence,3_0_5_0_6,NA,NA,completion,8511.113,754757.9000001,754755.83,754772.65,763283.763,763290.30000019,2023-10-11T12:12:56Z,763300.874,NULL,Schlange,foleni,s,uvumilivu,uteuzi,muuzaji,NA,sdf,NA,5,NA,NA,NA,NA,NA,NA,NA,NA,NA,NA,NA,NA,NA,NA,NA,NA,NA,NA,NA
15ff9,Deep Question,html.Page,3_0_5_0_7_0_0,NA,NA,form submission,11834.126,763290.30000019,763283.763,763300.874,775135,775135.30000019,2023-10-11T12:13:08Z,775143.047,NULL,Beweis,ushahidi,d,NA,NA,NA,hani,NA,NA,5,NA,NA,NA,NA,NA,NA,NA,NA,NA,NA,NA,NA,NA,NA,NA,NA,NA,NA,NA
15ff9,"""Richtig""-Screen",canvas.Screen,3_0_5_0_7_0_1,NA,NA,skipped,NA,775138.70000005,NA,NA,775135,775138.80000019,2023-10-11T12:13:08Z,775143.047,NULL,Beweis,ushahidi,d,NA,NA,NA,NA,sdf,NA,5,NA,NA,NA,NA,NA,NA,NA,NA,NA,NA,NA,NA,NA,NA,NA,NA,NA,NA,NA
15ff9,"""Falsch""-Screen",canvas.Screen,3_0_5_0_7_0_2,NA,NA,timeout,4997.3439999999,775139.60000014,775126.421,775143.047,780123.577,780125.10000014,2023-10-11T12:13:13Z,780140.391,NULL,Beweis,ushahidi,d,NA,NA,NA,NA,sdf,0,5,NA,NA,NA,NA,NA,NA,NA,NA,NA,NA,NA,NA,NA,NA,NA,NA,NA,NA,NA
15ff9,deep,flow.Sequence,3_0_5_0_7_0,NA,NA,completion,16822.703,763290.30000019,763283.763,763300.874,780123.577,780125.5,2023-10-11T12:13:13Z,780140.391,NULL,Beweis,ushahidi,d,NA,NA,NA,NA,sdf,NA,5,NA,NA,NA,NA,NA,NA,NA,NA,NA,NA,NA,NA,NA,NA,NA,NA,NA,NA,NA
15ff9,shallow,flow.Sequence,3_0_5_0_7_1,NA,NA,skipped,NA,780125.60000014,NA,NA,780123.577,780125.80000019,2023-10-11T12:13:13Z,780140.391,NULL,Beweis,ushahidi,d,NA,NA,NA,NA,sdf,NA,5,NA,NA,NA,NA,NA,NA,NA,NA,NA,NA,NA,NA,NA,NA,NA,NA,NA,NA,NA
15ff9,task,flow.Sequence,3_0_5_0_7,NA,NA,completion,16822.703,763290.30000019,763283.763,763300.874,780123.577,780126,2023-10-11T12:13:13Z,780140.391,NULL,Beweis,ushahidi,d,NA,NA,NA,NA,sdf,NA,5,NA,NA,NA,NA,NA,NA,NA,NA,NA,NA,NA,NA,NA,NA,NA,NA,NA,NA,NA
15ff9,block,flow.Loop,3_0_5_0,NA,NA,completion,89295.454,690821.20000005,690810.948,690828.123,780123.577,780126.20000005,2023-10-11T12:13:13Z,780140.391,NULL,NA,NA,NA,NA,NA,NA,NA,sdf,NA,5,NA,NA,NA,NA,NA,NA,NA,NA,NA,NA,NA,NA,NA,NA,NA,NA,NA,NA,NA
15ff9,weiter,canvas.Screen,3_0_5_1,sdf,keypress(Space),response,1437.9090001908,780126.4000001,780123.577,780140.391,781578.30000019,781582.30000019,2023-10-11T12:13:14Z,781938.856,NULL,NA,NA,NA,NA,NA,NA,NA,sdf,NA,5,NA,NA,NA,NA,NA,NA,NA,NA,NA,NA,NA,NA,NA,NA,NA,NA,NA,NA,NA
15ff9,check continue,flow.Sequence,3_0_5,NA,NA,completion,90750.177000191,690821.10000014,690810.948,690828.123,781578.30000019,781582.5,2023-10-11T12:13:14Z,781938.856,NULL,NA,NA,NA,NA,NA,NA,NA,sdf,NA,5,NA,NA,NA,NA,NA,NA,NA,NA,NA,NA,NA,NA,NA,NA,NA,NA,NA,NA,NA
15ff9,check continue,flow.Sequence,3_0_6,NA,NA,skipped,NA,781607.30000019,NA,NA,781578.30000019,781607.4000001,2023-10-11T12:13:14Z,781938.856,NULL,NA,NA,NA,NA,NA,NA,NA,dfs,NA,6,NA,NA,NA,NA,NA,NA,NA,NA,NA,NA,NA,NA,NA,NA,NA,NA,NA,NA,NA
15ff9,check continue,flow.Sequence,3_0_7,NA,NA,skipped,NA,781628.60000014,NA,NA,781578.30000019,781628.70000005,2023-10-11T12:13:14Z,781938.856,NULL,NA,NA,NA,NA,NA,NA,NA,df,NA,7,NA,NA,NA,NA,NA,NA,NA,NA,NA,NA,NA,NA,NA,NA,NA,NA,NA,NA,NA
15ff9,check continue,flow.Sequence,3_0_8,NA,NA,skipped,NA,781648.30000019,NA,NA,781578.30000019,781648.30000019,2023-10-11T12:13:14Z,781938.856,NULL,NA,NA,NA,NA,NA,NA,NA,dfs,NA,8,NA,NA,NA,NA,NA,NA,NA,NA,NA,NA,NA,NA,NA,NA,NA,NA,NA,NA,NA
15ff9,check continue,flow.Sequence,3_0_9,NA,NA,skipped,NA,781662.70000005,NA,NA,781578.30000019,781662.70000005,2023-10-11T12:13:14Z,781938.856,NULL,NA,NA,NA,NA,NA,NA,NA,dsf,NA,9,NA,NA,NA,NA,NA,NA,NA,NA,NA,NA,NA,NA,NA,NA,NA,NA,NA,NA,NA
15ff9,check continue,flow.Sequence,3_0_10,NA,NA,skipped,NA,781676.30000019,NA,NA,781578.30000019,781676.4000001,2023-10-11T12:13:14Z,781938.856,NULL,NA,NA,NA,NA,NA,NA,NA,df,NA,10,NA,NA,NA,NA,NA,NA,NA,NA,NA,NA,NA,NA,NA,NA,NA,NA,NA,NA,NA
15ff9,check continue,flow.Sequence,3_0_11,NA,NA,skipped,NA,781690,NA,NA,781578.30000019,781690.20000005,2023-10-11T12:13:14Z,781938.856,NULL,NA,NA,NA,NA,NA,NA,NA,dfs,NA,11,NA,NA,NA,NA,NA,NA,NA,NA,NA,NA,NA,NA,NA,NA,NA,NA,NA,NA,NA
15ff9,check continue,flow.Sequence,3_0_12,NA,NA,skipped,NA,781702.9000001,NA,NA,781578.30000019,781703,2023-10-11T12:13:14Z,781938.856,NULL,NA,NA,NA,NA,NA,NA,NA,dsf,NA,12,NA,NA,NA,NA,NA,NA,NA,NA,NA,NA,NA,NA,NA,NA,NA,NA,NA,NA,NA
15ff9,check continue,flow.Sequence,3_0_13,NA,NA,skipped,NA,781715.80000019,NA,NA,781578.30000019,781715.80000019,2023-10-11T12:13:14Z,781938.856,NULL,NA,NA,NA,NA,NA,NA,NA,dsf,NA,13,NA,NA,NA,NA,NA,NA,NA,NA,NA,NA,NA,NA,NA,NA,NA,NA,NA,NA,NA
15ff9,check continue,flow.Sequence,3_0_14,NA,NA,skipped,NA,781729.20000005,NA,NA,781578.30000019,781729.30000019,2023-10-11T12:13:14Z,781938.856,NULL,NA,NA,NA,NA,NA,NA,NA,NA,NA,14,NA,NA,NA,NA,NA,NA,NA,NA,NA,NA,NA,NA,NA,NA,NA,NA,NA,NA,NA
15ff9,check continue,flow.Sequence,3_0_15,NA,NA,skipped,NA,781741.70000005,NA,NA,781578.30000019,781741.70000005,2023-10-11T12:13:14Z,781938.856,NULL,NA,NA,NA,NA,NA,NA,NA,NA,NA,15,NA,NA,NA,NA,NA,NA,NA,NA,NA,NA,NA,NA,NA,NA,NA,NA,NA,NA,NA
15ff9,check continue,flow.Sequence,3_0_16,NA,NA,skipped,NA,781753.9000001,NA,NA,781578.30000019,781753.9000001,2023-10-11T12:13:14Z,781938.856,NULL,NA,NA,NA,NA,NA,NA,NA,NA,NA,16,NA,NA,NA,NA,NA,NA,NA,NA,NA,NA,NA,NA,NA,NA,NA,NA,NA,NA,NA
15ff9,check continue,flow.Sequence,3_0_17,NA,NA,skipped,NA,781765.9000001,NA,NA,781578.30000019,781766.10000014,2023-10-11T12:13:14Z,781938.856,NULL,NA,NA,NA,NA,NA,NA,NA,NA,NA,17,NA,NA,NA,NA,NA,NA,NA,NA,NA,NA,NA,NA,NA,NA,NA,NA,NA,NA,NA
15ff9,check continue,flow.Sequence,3_0_18,NA,NA,skipped,NA,781778.30000019,NA,NA,781578.30000019,781778.4000001,2023-10-11T12:13:14Z,781938.856,NULL,NA,NA,NA,NA,NA,NA,NA,NA,NA,18,NA,NA,NA,NA,NA,NA,NA,NA,NA,NA,NA,NA,NA,NA,NA,NA,NA,NA,NA
15ff9,check continue,flow.Sequence,3_0_19,NA,NA,skipped,NA,781790.5,NA,NA,781578.30000019,781790.5,2023-10-11T12:13:14Z,781938.856,NULL,NA,NA,NA,NA,NA,NA,NA,NA,NA,19,NA,NA,NA,NA,NA,NA,NA,NA,NA,NA,NA,NA,NA,NA,NA,NA,NA,NA,NA
15ff9,check continue,flow.Sequence,3_0_20,NA,NA,skipped,NA,781802.80000019,NA,NA,781578.30000019,781802.80000019,2023-10-11T12:13:14Z,781938.856,NULL,NA,NA,NA,NA,NA,NA,NA,NA,NA,20,NA,NA,NA,NA,NA,NA,NA,NA,NA,NA,NA,NA,NA,NA,NA,NA,NA,NA,NA
