observation,sender,sender_type,sender_id,response,response_action,ended_on,duration,time_run,time_render,time_show,time_end,time_commit,timestamp,time_switch,distractors,german,swahili,enc,distractor1,distractor2,distractor3,response_2,x,correct,x_2,url_vp,url_sess,meta_labjs_version,meta_location,meta_user_agent,meta_platform,meta_language,meta_locale,meta_time_zone,meta_timezone_offset,meta_screen_width,meta_screen_height,meta_scroll_width,meta_scroll_height,meta_window_inner_width,meta_window_inner_height,meta_device_pixel_ratio,meta_labjs_build_flavor,meta_labjs_build_commit
31aa5,Introduction general,canvas.Screen,0,weiter,keypress(q),response,68900.799999714,434.2999997139,433.29,450,69350.799999714,69356.599999905,2024-03-09T06:39:35Z,69366.7,NULL,NA,NA,NA,NA,NA,NA,NA,NA,NA,NA,156,1,20.2.4,https://neurocog.fernuni.ch/studies/vweber/jbaenninger/encoding_immediate/index.html?vp=156&sess=1,"Mozilla/5.0 (Windows NT 10.0; Win64; x64) AppleWebKit/537.36 (KHTML, like Gecko) Chrome/122.0.0.0 Safari/537.36 Edg/122.0.0.0",Win32,de,de-CH,Europe/Zurich,-60,1920,1080,1872,910,1872,958,1,production,f5b4a49f956347addd546a832a3327688c2c0fef
31aa5,Introduction practice,canvas.Screen,1_0,NA,keypress(Space),response,8409.4999998093,69357.099999905,69348.732,69366.7,77776.199999809,77777.199999809,2024-03-09T06:39:44Z,77783.3,NULL,NA,NA,NA,NA,NA,NA,NA,NA,NA,NA,NA,NA,NA,NA,NA,NA,NA,NA,NA,NA,NA,NA,NA,NA,NA,NA,NA,NA,NA
31aa5,Deep Question,html.Page,1_1_0_0_0,NA,NA,form submission,9548.7999999046,77777.599999905,77766.37,77783.3,87332.099999905,87332.400000095,2024-03-09T06:39:53Z,87333.3,"c(""distractor1"", ""distractor2"", ""distractor3"")",Qualität,mtindo,d,NA,NA,NA,wc,NA,NA,NA,NA,NA,NA,NA,NA,NA,NA,NA,NA,NA,NA,NA,NA,NA,NA,NA,NA,NA,NA
31aa5,"""Richtig""-Screen",canvas.Screen,1_1_0_0_1,NA,NA,skipped,NA,87333.799999714,NA,NA,87332.099999905,87334,2024-03-09T06:39:53Z,87333.3,"c(""distractor1"", ""distractor2"", ""distractor3"")",Qualität,mtindo,d,NA,NA,NA,NA,NA,NA,NA,NA,NA,NA,NA,NA,NA,NA,NA,NA,NA,NA,NA,NA,NA,NA,NA,NA,NA,NA
31aa5,"""Falsch""-Screen",canvas.Screen,1_1_0_0_2,NA,NA,timeout,5000,87334.799999714,87332.312,87333.3,92316.7,92320.299999714,2024-03-09T06:39:58Z,92333.3,"c(""distractor1"", ""distractor2"", ""distractor3"")",Qualität,mtindo,d,NA,NA,NA,NA,NA,0,NA,NA,NA,NA,NA,NA,NA,NA,NA,NA,NA,NA,NA,NA,NA,NA,NA,NA,NA,NA
31aa5,deep,flow.Sequence,1_1_0_0,NA,NA,completion,14533.4,77777.599999905,77766.37,77783.3,92316.7,92320.799999714,2024-03-09T06:39:58Z,92333.3,"c(""distractor1"", ""distractor2"", ""distractor3"")",Qualität,mtindo,d,NA,NA,NA,NA,NA,NA,NA,NA,NA,NA,NA,NA,NA,NA,NA,NA,NA,NA,NA,NA,NA,NA,NA,NA,NA,NA
31aa5,shallow,flow.Sequence,1_1_0_1,NA,NA,skipped,NA,92320.900000095,NA,NA,92316.7,92321,2024-03-09T06:39:58Z,92333.3,"c(""distractor1"", ""distractor2"", ""distractor3"")",Qualität,mtindo,d,NA,NA,NA,NA,NA,NA,NA,NA,NA,NA,NA,NA,NA,NA,NA,NA,NA,NA,NA,NA,NA,NA,NA,NA,NA,NA
31aa5,task,flow.Sequence,1_1_0,NA,NA,completion,14533.4,77777.5,77766.37,77783.3,92316.7,92321.199999809,2024-03-09T06:39:58Z,92333.3,"c(""distractor1"", ""distractor2"", ""distractor3"")",Qualität,mtindo,d,NA,NA,NA,NA,NA,NA,NA,NA,NA,NA,NA,NA,NA,NA,NA,NA,NA,NA,NA,NA,NA,NA,NA,NA,NA,NA
31aa5,deep,flow.Sequence,1_1_1_0,NA,NA,skipped,NA,92321.299999714,NA,NA,92316.7,92321.5,2024-03-09T06:39:58Z,92333.3,"c(""distractor1"", ""distractor2"", ""distractor3"")",Rückhalt,msaada,s,muhula,auwali,kiwimbe,NA,NA,NA,NA,NA,NA,NA,NA,NA,NA,NA,NA,NA,NA,NA,NA,NA,NA,NA,NA,NA,NA,NA
31aa5,Shallow Question,html.Page,1_1_1_1_0,NA,NA,form submission,14609.799999905,92321.599999905,92316.7,92333.3,106943.0999999,106943.4000001,2024-03-09T06:40:13Z,106966.8,"c(""distractor1"", ""distractor2"", ""distractor3"")",Rückhalt,msaada,s,muhula,auwali,kiwimbe,auwali,NA,NA,NA,NA,NA,NA,NA,NA,NA,NA,NA,NA,NA,NA,NA,NA,NA,NA,NA,NA,NA,NA
31aa5,"""Richtig""-Screen",canvas.Screen,1_1_1_1_1,NA,NA,skipped,NA,106945.4000001,NA,NA,106943.0999999,106945.5,2024-03-09T06:40:13Z,106966.8,"c(""distractor1"", ""distractor2"", ""distractor3"")",Rückhalt,msaada,s,muhula,auwali,kiwimbe,NA,NA,NA,NA,NA,NA,NA,NA,NA,NA,NA,NA,NA,NA,NA,NA,NA,NA,NA,NA,NA,NA,NA
31aa5,"""Falsch""-Screen",canvas.Screen,1_1_1_1_2,NA,NA,timeout,4999.8,106946.29999971,106950.132,106966.8,111950.1,111950.79999971,2024-03-09T06:40:18Z,111966.6,"c(""distractor1"", ""distractor2"", ""distractor3"")",Rückhalt,msaada,s,muhula,auwali,kiwimbe,NA,NA,0,NA,NA,NA,NA,NA,NA,NA,NA,NA,NA,NA,NA,NA,NA,NA,NA,NA,NA,NA,NA
31aa5,shallow,flow.Sequence,1_1_1_1,NA,NA,completion,19616.8,92321.599999905,92316.7,92333.3,111950.1,111951.19999980999,2024-03-09T06:40:18Z,111966.6,"c(""distractor1"", ""distractor2"", ""distractor3"")",Rückhalt,msaada,s,muhula,auwali,kiwimbe,NA,NA,NA,NA,NA,NA,NA,NA,NA,NA,NA,NA,NA,NA,NA,NA,NA,NA,NA,NA,NA,NA,NA
31aa5,task,flow.Sequence,1_1_1,NA,NA,completion,19616.8,92321.299999714,92316.7,92333.3,111950.1,111951.4000001,2024-03-09T06:40:18Z,111966.6,"c(""distractor1"", ""distractor2"", ""distractor3"")",Rückhalt,msaada,s,muhula,auwali,kiwimbe,NA,NA,NA,NA,NA,NA,NA,NA,NA,NA,NA,NA,NA,NA,NA,NA,NA,NA,NA,NA,NA,NA,NA
31aa5,deep,flow.Sequence,1_1_2_0,NA,NA,skipped,NA,111951.4000001,NA,NA,111950.1,111951.5999999,2024-03-09T06:40:18Z,111966.6,"c(""distractor1"", ""distractor2"", ""distractor3"")",Gegenwart,hadhara,s,katiba,jokofu,mikopo,NA,NA,NA,NA,NA,NA,NA,NA,NA,NA,NA,NA,NA,NA,NA,NA,NA,NA,NA,NA,NA,NA,NA
31aa5,Shallow Question,html.Page,1_1_2_1_0,NA,NA,form submission,12253.499999905,111951.79999971,111950.1,111966.6,124220.0999999,124220.29999971,2024-03-09T06:40:30Z,124233.2,"c(""distractor1"", ""distractor2"", ""distractor3"")",Gegenwart,hadhara,s,katiba,jokofu,mikopo,hadhara,NA,NA,NA,NA,NA,NA,NA,NA,NA,NA,NA,NA,NA,NA,NA,NA,NA,NA,NA,NA,NA,NA
31aa5,"""Richtig""-Screen",canvas.Screen,1_1_2_1_1,NA,NA,timeout,5000.1,124222.0999999,124216.8,124233.2,129216.7,129217.5,2024-03-09T06:40:35Z,129233.3,"c(""distractor1"", ""distractor2"", ""distractor3"")",Gegenwart,hadhara,s,katiba,jokofu,mikopo,NA,NA,1,NA,NA,NA,NA,NA,NA,NA,NA,NA,NA,NA,NA,NA,NA,NA,NA,NA,NA,NA,NA
31aa5,"""Falsch""-Screen",canvas.Screen,1_1_2_1_2,NA,NA,skipped,NA,129221.9000001,NA,NA,129216.7,129222.0999999,2024-03-09T06:40:35Z,129233.3,"c(""distractor1"", ""distractor2"", ""distractor3"")",Gegenwart,hadhara,s,katiba,jokofu,mikopo,NA,NA,NA,NA,NA,NA,NA,NA,NA,NA,NA,NA,NA,NA,NA,NA,NA,NA,NA,NA,NA,NA,NA
31aa5,shallow,flow.Sequence,1_1_2_1,NA,NA,completion,17250.1,111951.69999981,111950.1,111966.6,129216.7,129222.29999971,2024-03-09T06:40:35Z,129233.3,"c(""distractor1"", ""distractor2"", ""distractor3"")",Gegenwart,hadhara,s,katiba,jokofu,mikopo,NA,NA,NA,NA,NA,NA,NA,NA,NA,NA,NA,NA,NA,NA,NA,NA,NA,NA,NA,NA,NA,NA,NA
31aa5,task,flow.Sequence,1_1_2,NA,NA,completion,17250.1,111951.4000001,111950.1,111966.6,129216.7,129222.5,2024-03-09T06:40:35Z,129233.3,"c(""distractor1"", ""distractor2"", ""distractor3"")",Gegenwart,hadhara,s,katiba,jokofu,mikopo,NA,NA,NA,NA,NA,NA,NA,NA,NA,NA,NA,NA,NA,NA,NA,NA,NA,NA,NA,NA,NA,NA,NA
31aa5,deep,flow.Sequence,1_1_3_0,NA,NA,skipped,NA,129222.69999981,NA,NA,129216.7,129222.69999981,2024-03-09T06:40:35Z,129233.3,"c(""distractor1"", ""distractor2"", ""distractor3"")",Kritik,lawama,s,dereva,nafasi,mawazo,NA,NA,NA,NA,NA,NA,NA,NA,NA,NA,NA,NA,NA,NA,NA,NA,NA,NA,NA,NA,NA,NA,NA
31aa5,Shallow Question,html.Page,1_1_3_1_0,NA,NA,form submission,8520.7,129222.9000001,129216.7,129233.3,137754,137754.19999981,2024-03-09T06:40:44Z,137766.6,"c(""distractor1"", ""distractor2"", ""distractor3"")",Kritik,lawama,s,dereva,nafasi,mawazo,lawama,NA,NA,NA,NA,NA,NA,NA,NA,NA,NA,NA,NA,NA,NA,NA,NA,NA,NA,NA,NA,NA,NA
31aa5,"""Richtig""-Screen",canvas.Screen,1_1_3_1_1,NA,NA,timeout,5000,137755.79999971,137750.228,137766.6,142750,142750.79999971,2024-03-09T06:40:49Z,142766.6,"c(""distractor1"", ""distractor2"", ""distractor3"")",Kritik,lawama,s,dereva,nafasi,mawazo,NA,NA,1,NA,NA,NA,NA,NA,NA,NA,NA,NA,NA,NA,NA,NA,NA,NA,NA,NA,NA,NA,NA
31aa5,"""Falsch""-Screen",canvas.Screen,1_1_3_1_2,NA,NA,skipped,NA,142754.5999999,NA,NA,142750,142754.9000001,2024-03-09T06:40:49Z,142766.6,"c(""distractor1"", ""distractor2"", ""distractor3"")",Kritik,lawama,s,dereva,nafasi,mawazo,NA,NA,NA,NA,NA,NA,NA,NA,NA,NA,NA,NA,NA,NA,NA,NA,NA,NA,NA,NA,NA,NA,NA
31aa5,shallow,flow.Sequence,1_1_3_1,NA,NA,completion,13516.7,129222.69999981,129216.7,129233.3,142750,142755.0999999,2024-03-09T06:40:49Z,142766.6,"c(""distractor1"", ""distractor2"", ""distractor3"")",Kritik,lawama,s,dereva,nafasi,mawazo,NA,NA,NA,NA,NA,NA,NA,NA,NA,NA,NA,NA,NA,NA,NA,NA,NA,NA,NA,NA,NA,NA,NA
31aa5,task,flow.Sequence,1_1_3,NA,NA,completion,13516.7,129222.5999999,129216.7,129233.3,142750,142755.19999981,2024-03-09T06:40:49Z,142766.6,"c(""distractor1"", ""distractor2"", ""distractor3"")",Kritik,lawama,s,dereva,nafasi,mawazo,NA,NA,NA,NA,NA,NA,NA,NA,NA,NA,NA,NA,NA,NA,NA,NA,NA,NA,NA,NA,NA,NA,NA
31aa5,Deep Question,html.Page,1_1_4_0_0,NA,NA,form submission,8415.4,142755.29999971,142750,142766.6,151182,151182.19999981,2024-03-09T06:40:57Z,151185.674,"c(""distractor1"", ""distractor2"", ""distractor3"")",Gesundheit,salama,d,NA,NA,NA,mshaada,NA,NA,NA,NA,NA,NA,NA,NA,NA,NA,NA,NA,NA,NA,NA,NA,NA,NA,NA,NA,NA,NA
31aa5,"""Richtig""-Screen",canvas.Screen,1_1_4_0_1,NA,NA,skipped,NA,151183.9000001,NA,NA,151182,151184,2024-03-09T06:40:57Z,151185.674,"c(""distractor1"", ""distractor2"", ""distractor3"")",Gesundheit,salama,d,NA,NA,NA,NA,NA,NA,NA,NA,NA,NA,NA,NA,NA,NA,NA,NA,NA,NA,NA,NA,NA,NA,NA,NA,NA,NA
31aa5,"""Falsch""-Screen",canvas.Screen,1_1_4_0_2,NA,NA,timeout,4997.726,151184.5999999,151185.674,151185.674,156166.7,156167.4000001,2024-03-09T06:41:02Z,156183.4,"c(""distractor1"", ""distractor2"", ""distractor3"")",Gesundheit,salama,d,NA,NA,NA,NA,NA,0,NA,NA,NA,NA,NA,NA,NA,NA,NA,NA,NA,NA,NA,NA,NA,NA,NA,NA,NA,NA
31aa5,deep,flow.Sequence,1_1_4_0,NA,NA,completion,13400.1,142755.29999971,142750,142766.6,156166.7,156167.69999981,2024-03-09T06:41:02Z,156183.4,"c(""distractor1"", ""distractor2"", ""distractor3"")",Gesundheit,salama,d,NA,NA,NA,NA,NA,NA,NA,NA,NA,NA,NA,NA,NA,NA,NA,NA,NA,NA,NA,NA,NA,NA,NA,NA,NA,NA
31aa5,shallow,flow.Sequence,1_1_4_1,NA,NA,skipped,NA,156167.79999971,NA,NA,156166.7,156167.9000001,2024-03-09T06:41:02Z,156183.4,"c(""distractor1"", ""distractor2"", ""distractor3"")",Gesundheit,salama,d,NA,NA,NA,NA,NA,NA,NA,NA,NA,NA,NA,NA,NA,NA,NA,NA,NA,NA,NA,NA,NA,NA,NA,NA,NA,NA
31aa5,task,flow.Sequence,1_1_4,NA,NA,completion,13400.1,142755.29999971,142750,142766.6,156166.7,156168,2024-03-09T06:41:02Z,156183.4,"c(""distractor1"", ""distractor2"", ""distractor3"")",Gesundheit,salama,d,NA,NA,NA,NA,NA,NA,NA,NA,NA,NA,NA,NA,NA,NA,NA,NA,NA,NA,NA,NA,NA,NA,NA,NA,NA,NA
31aa5,Deep Question,html.Page,1_1_5_0_0,NA,NA,form submission,3411.6,156168.19999981,156166.7,156183.4,159595,159595.19999981,2024-03-09T06:41:05Z,159616.7,"c(""distractor1"", ""distractor2"", ""distractor3"")",Schatten,kivuli,d,NA,NA,NA,fg,NA,NA,NA,NA,NA,NA,NA,NA,NA,NA,NA,NA,NA,NA,NA,NA,NA,NA,NA,NA,NA,NA
31aa5,"""Richtig""-Screen",canvas.Screen,1_1_5_0_1,NA,NA,skipped,NA,159597,NA,NA,159595,159597,2024-03-09T06:41:05Z,159616.7,"c(""distractor1"", ""distractor2"", ""distractor3"")",Schatten,kivuli,d,NA,NA,NA,NA,NA,NA,NA,NA,NA,NA,NA,NA,NA,NA,NA,NA,NA,NA,NA,NA,NA,NA,NA,NA,NA,NA
31aa5,"""Falsch""-Screen",canvas.Screen,1_1_5_0_2,NA,NA,timeout,4999.8,159597.5999999,159600.078,159616.7,164600,164600.69999981,2024-03-09T06:41:10Z,164616.5,"c(""distractor1"", ""distractor2"", ""distractor3"")",Schatten,kivuli,d,NA,NA,NA,NA,NA,0,NA,NA,NA,NA,NA,NA,NA,NA,NA,NA,NA,NA,NA,NA,NA,NA,NA,NA,NA,NA
31aa5,deep,flow.Sequence,1_1_5_0,NA,NA,completion,8416.6,156168.19999981,156166.7,156183.4,164600,164601.0999999,2024-03-09T06:41:10Z,164616.5,"c(""distractor1"", ""distractor2"", ""distractor3"")",Schatten,kivuli,d,NA,NA,NA,NA,NA,NA,NA,NA,NA,NA,NA,NA,NA,NA,NA,NA,NA,NA,NA,NA,NA,NA,NA,NA,NA,NA
31aa5,shallow,flow.Sequence,1_1_5_1,NA,NA,skipped,NA,164601.19999981,NA,NA,164600,164601.19999981,2024-03-09T06:41:10Z,164616.5,"c(""distractor1"", ""distractor2"", ""distractor3"")",Schatten,kivuli,d,NA,NA,NA,NA,NA,NA,NA,NA,NA,NA,NA,NA,NA,NA,NA,NA,NA,NA,NA,NA,NA,NA,NA,NA,NA,NA
31aa5,task,flow.Sequence,1_1_5,NA,NA,completion,8416.6,156168.0999999,156166.7,156183.4,164600,164601.4000001,2024-03-09T06:41:10Z,164616.5,"c(""distractor1"", ""distractor2"", ""distractor3"")",Schatten,kivuli,d,NA,NA,NA,NA,NA,NA,NA,NA,NA,NA,NA,NA,NA,NA,NA,NA,NA,NA,NA,NA,NA,NA,NA,NA,NA,NA
31aa5,block,flow.Loop,1_1,NA,NA,completion,86816.7,77777.5,77766.37,77783.3,164600,164601.69999981,2024-03-09T06:41:10Z,164616.5,"c(""distractor1"", ""distractor2"", ""distractor3"")",NA,NA,NA,NA,NA,NA,NA,NA,NA,NA,NA,NA,NA,NA,NA,NA,NA,NA,NA,NA,NA,NA,NA,NA,NA,NA,NA,NA,NA
31aa5,Practice,flow.Sequence,1,NA,NA,completion,95233.3,69357.099999905,69348.732,69366.7,164600,164601.79999971,2024-03-09T06:41:10Z,164616.5,NULL,NA,NA,NA,NA,NA,NA,NA,NA,NA,NA,NA,NA,NA,NA,NA,NA,NA,NA,NA,NA,NA,NA,NA,NA,NA,NA,NA,NA,NA
31aa5,Experiment start,canvas.Screen,2,weiter,keypress(q),response,60391.599999904996,164601.9000001,164600,164616.5,225008.0999999,225008.5999999,2024-03-09T06:42:11Z,225099.7,NULL,NA,NA,NA,NA,NA,NA,NA,NA,NA,NA,NA,NA,NA,NA,NA,NA,NA,NA,NA,NA,NA,NA,NA,NA,NA,NA,NA,NA,NA
31aa5,Deep Question,html.Page,3_0_0_0_0_0_0,NA,NA,form submission,4366.2000000954,225083,225082.428,225099.7,229465.9000001,229466.19999981,2024-03-09T06:42:15Z,229484.3,NULL,Konkurrent,mshindani,d,NA,NA,NA,gg,NA,NA,0,NA,NA,NA,NA,NA,NA,NA,NA,NA,NA,NA,NA,NA,NA,NA,NA,NA,NA,NA
31aa5,"""Richtig""-Screen",canvas.Screen,3_0_0_0_0_0_1,NA,NA,skipped,NA,229467.79999971,NA,NA,229465.9000001,229468,2024-03-09T06:42:15Z,229484.3,NULL,Konkurrent,mshindani,d,NA,NA,NA,NA,sdf,NA,0,NA,NA,NA,NA,NA,NA,NA,NA,NA,NA,NA,NA,NA,NA,NA,NA,NA,NA,NA
31aa5,"""Falsch""-Screen",canvas.Screen,3_0_0_0_0_0_2,NA,NA,timeout,4998.9,229468.5,229466.62,229484.3,234466.6,234467.29999971,2024-03-09T06:42:20Z,234483.2,NULL,Konkurrent,mshindani,d,NA,NA,NA,NA,sdf,0,0,NA,NA,NA,NA,NA,NA,NA,NA,NA,NA,NA,NA,NA,NA,NA,NA,NA,NA,NA
31aa5,deep,flow.Sequence,3_0_0_0_0_0,NA,NA,completion,9366.9,225083,225082.428,225099.7,234466.6,234467.69999981,2024-03-09T06:42:20Z,234483.2,NULL,Konkurrent,mshindani,d,NA,NA,NA,NA,sdf,NA,0,NA,NA,NA,NA,NA,NA,NA,NA,NA,NA,NA,NA,NA,NA,NA,NA,NA,NA,NA
31aa5,shallow,flow.Sequence,3_0_0_0_0_1,NA,NA,skipped,NA,234467.79999971,NA,NA,234466.6,234467.79999971,2024-03-09T06:42:20Z,234483.2,NULL,Konkurrent,mshindani,d,NA,NA,NA,NA,sdf,NA,0,NA,NA,NA,NA,NA,NA,NA,NA,NA,NA,NA,NA,NA,NA,NA,NA,NA,NA,NA
31aa5,task,flow.Sequence,3_0_0_0_0,NA,NA,completion,9366.9,225083,225082.428,225099.7,234466.6,234468,2024-03-09T06:42:20Z,234483.2,NULL,Konkurrent,mshindani,d,NA,NA,NA,NA,sdf,NA,0,NA,NA,NA,NA,NA,NA,NA,NA,NA,NA,NA,NA,NA,NA,NA,NA,NA,NA,NA
31aa5,deep,flow.Sequence,3_0_0_0_1_0,NA,NA,skipped,NA,234468,NA,NA,234466.6,234468.0999999,2024-03-09T06:42:20Z,234483.2,NULL,Symbol,kielezo,s,kinyume,nderemo,utayari,NA,sdf,NA,0,NA,NA,NA,NA,NA,NA,NA,NA,NA,NA,NA,NA,NA,NA,NA,NA,NA,NA,NA
31aa5,Shallow Question,html.Page,3_0_0_0_1_1_0,NA,NA,form submission,6066.8,234468.19999981,234466.6,234483.2,240550,240550.29999971,2024-03-09T06:42:26Z,240566.9,NULL,Symbol,kielezo,s,kinyume,nderemo,utayari,nderemo,NA,NA,0,NA,NA,NA,NA,NA,NA,NA,NA,NA,NA,NA,NA,NA,NA,NA,NA,NA,NA,NA
31aa5,"""Richtig""-Screen",canvas.Screen,3_0_0_0_1_1_1,NA,NA,skipped,NA,240551.79999971,NA,NA,240550,240552,2024-03-09T06:42:26Z,240566.9,NULL,Symbol,kielezo,s,kinyume,nderemo,utayari,NA,sdf,NA,0,NA,NA,NA,NA,NA,NA,NA,NA,NA,NA,NA,NA,NA,NA,NA,NA,NA,NA,NA
31aa5,"""Falsch""-Screen",canvas.Screen,3_0_0_0_1_1_2,NA,NA,timeout,4999.7,240552.5,240549.988,240566.9,245550,245550.69999981,2024-03-09T06:42:31Z,245566.6,NULL,Symbol,kielezo,s,kinyume,nderemo,utayari,NA,sdf,0,0,NA,NA,NA,NA,NA,NA,NA,NA,NA,NA,NA,NA,NA,NA,NA,NA,NA,NA,NA
31aa5,shallow,flow.Sequence,3_0_0_0_1_1,NA,NA,completion,11066.8,234468.19999981,234466.6,234483.2,245550,245551,2024-03-09T06:42:31Z,245566.6,NULL,Symbol,kielezo,s,kinyume,nderemo,utayari,NA,sdf,NA,0,NA,NA,NA,NA,NA,NA,NA,NA,NA,NA,NA,NA,NA,NA,NA,NA,NA,NA,NA
31aa5,task,flow.Sequence,3_0_0_0_1,NA,NA,completion,11066.8,234468,234466.6,234483.2,245550,245551.0999999,2024-03-09T06:42:31Z,245566.6,NULL,Symbol,kielezo,s,kinyume,nderemo,utayari,NA,sdf,NA,0,NA,NA,NA,NA,NA,NA,NA,NA,NA,NA,NA,NA,NA,NA,NA,NA,NA,NA,NA
31aa5,Deep Question,html.Page,3_0_0_0_2_0_0,NA,NA,form submission,3834.6999997139,245551.19999981,245550,245566.6,249401.29999971,249401.5,2024-03-09T06:42:35Z,249416.5,NULL,System,maongozi,d,NA,NA,NA,gg,NA,NA,0,NA,NA,NA,NA,NA,NA,NA,NA,NA,NA,NA,NA,NA,NA,NA,NA,NA,NA,NA
31aa5,"""Richtig""-Screen",canvas.Screen,3_0_0_0_2_0_1,NA,NA,skipped,NA,249403.0999999,NA,NA,249401.29999971,249403.29999971,2024-03-09T06:42:35Z,249416.5,NULL,System,maongozi,d,NA,NA,NA,NA,sdf,NA,0,NA,NA,NA,NA,NA,NA,NA,NA,NA,NA,NA,NA,NA,NA,NA,NA,NA,NA,NA
31aa5,"""Falsch""-Screen",canvas.Screen,3_0_0_0_2_0_2,NA,NA,timeout,4999.9,249403.79999971,249399.95,249416.5,254400,254400.69999981,2024-03-09T06:42:40Z,254416.4,NULL,System,maongozi,d,NA,NA,NA,NA,sdf,0,0,NA,NA,NA,NA,NA,NA,NA,NA,NA,NA,NA,NA,NA,NA,NA,NA,NA,NA,NA
31aa5,deep,flow.Sequence,3_0_0_0_2_0,NA,NA,completion,8833.4,245551.19999981,245550,245566.6,254400,254400.9000001,2024-03-09T06:42:40Z,254416.4,NULL,System,maongozi,d,NA,NA,NA,NA,sdf,NA,0,NA,NA,NA,NA,NA,NA,NA,NA,NA,NA,NA,NA,NA,NA,NA,NA,NA,NA,NA
31aa5,shallow,flow.Sequence,3_0_0_0_2_1,NA,NA,skipped,NA,254401.0999999,NA,NA,254400,254401.0999999,2024-03-09T06:42:40Z,254416.4,NULL,System,maongozi,d,NA,NA,NA,NA,sdf,NA,0,NA,NA,NA,NA,NA,NA,NA,NA,NA,NA,NA,NA,NA,NA,NA,NA,NA,NA,NA
31aa5,task,flow.Sequence,3_0_0_0_2,NA,NA,completion,8833.4,245551.19999981,245550,245566.6,254400,254401.19999981,2024-03-09T06:42:40Z,254416.4,NULL,System,maongozi,d,NA,NA,NA,NA,sdf,NA,0,NA,NA,NA,NA,NA,NA,NA,NA,NA,NA,NA,NA,NA,NA,NA,NA,NA,NA,NA
31aa5,deep,flow.Sequence,3_0_0_0_3_0,NA,NA,skipped,NA,254401.29999971,NA,NA,254400,254401.4000001,2024-03-09T06:42:40Z,254416.4,NULL,Zuwachs,nyongeza,s,matilaba,udhibiti,hudhurio,NA,sdf,NA,0,NA,NA,NA,NA,NA,NA,NA,NA,NA,NA,NA,NA,NA,NA,NA,NA,NA,NA,NA
31aa5,Shallow Question,html.Page,3_0_0_0_3_1_0,NA,NA,form submission,6809.5000000954,254401.5,254400,254416.4,261225.9000001,261226.0999999,2024-03-09T06:42:47Z,261233.322,NULL,Zuwachs,nyongeza,s,matilaba,udhibiti,hudhurio,matilaba,NA,NA,0,NA,NA,NA,NA,NA,NA,NA,NA,NA,NA,NA,NA,NA,NA,NA,NA,NA,NA,NA
31aa5,"""Richtig""-Screen",canvas.Screen,3_0_0_0_3_1_1,NA,NA,skipped,NA,261227.79999971,NA,NA,261225.9000001,261227.9000001,2024-03-09T06:42:47Z,261233.322,NULL,Zuwachs,nyongeza,s,matilaba,udhibiti,hudhurio,NA,sdf,NA,0,NA,NA,NA,NA,NA,NA,NA,NA,NA,NA,NA,NA,NA,NA,NA,NA,NA,NA,NA
31aa5,"""Falsch""-Screen",canvas.Screen,3_0_0_0_3_1_2,NA,NA,timeout,4999.978,261228.4000001,261233.322,261233.322,266216.6,266217.29999971,2024-03-09T06:42:52Z,266233.3,NULL,Zuwachs,nyongeza,s,matilaba,udhibiti,hudhurio,NA,sdf,0,0,NA,NA,NA,NA,NA,NA,NA,NA,NA,NA,NA,NA,NA,NA,NA,NA,NA,NA,NA
31aa5,shallow,flow.Sequence,3_0_0_0_3_1,NA,NA,completion,11800.2,254401.4000001,254400,254416.4,266216.6,266217.5999999,2024-03-09T06:42:52Z,266233.3,NULL,Zuwachs,nyongeza,s,matilaba,udhibiti,hudhurio,NA,sdf,NA,0,NA,NA,NA,NA,NA,NA,NA,NA,NA,NA,NA,NA,NA,NA,NA,NA,NA,NA,NA
31aa5,task,flow.Sequence,3_0_0_0_3,NA,NA,completion,11800.2,254401.29999971,254400,254416.4,266216.6,266217.79999971,2024-03-09T06:42:52Z,266233.3,NULL,Zuwachs,nyongeza,s,matilaba,udhibiti,hudhurio,NA,sdf,NA,0,NA,NA,NA,NA,NA,NA,NA,NA,NA,NA,NA,NA,NA,NA,NA,NA,NA,NA,NA
31aa5,deep,flow.Sequence,3_0_0_0_4_0,NA,NA,skipped,NA,266217.9000001,NA,NA,266216.6,266218,2024-03-09T06:42:52Z,266233.3,NULL,Übersicht,kilindo,s,mgusano,chipukizi,kulinganisha,NA,sdf,NA,0,NA,NA,NA,NA,NA,NA,NA,NA,NA,NA,NA,NA,NA,NA,NA,NA,NA,NA,NA
31aa5,Shallow Question,html.Page,3_0_0_0_4_1_0,NA,NA,form submission,5656.7,266218.0999999,266216.6,266233.3,271890,271890.19999981,2024-03-09T06:42:58Z,271899.7,NULL,Übersicht,kilindo,s,mgusano,chipukizi,kulinganisha,mgusano,NA,NA,0,NA,NA,NA,NA,NA,NA,NA,NA,NA,NA,NA,NA,NA,NA,NA,NA,NA,NA,NA
31aa5,"""Richtig""-Screen",canvas.Screen,3_0_0_0_4_1_1,NA,NA,skipped,NA,271891.9000001,NA,NA,271890,271892.0999999,2024-03-09T06:42:58Z,271899.7,NULL,Übersicht,kilindo,s,mgusano,chipukizi,kulinganisha,NA,sdf,NA,0,NA,NA,NA,NA,NA,NA,NA,NA,NA,NA,NA,NA,NA,NA,NA,NA,NA,NA,NA
31aa5,"""Falsch""-Screen",canvas.Screen,3_0_0_0_4_1_2,NA,NA,timeout,5000.1,271892.5,271883.278,271899.7,276883.2,276884,2024-03-09T06:43:03Z,276899.8,NULL,Übersicht,kilindo,s,mgusano,chipukizi,kulinganisha,NA,sdf,0,0,NA,NA,NA,NA,NA,NA,NA,NA,NA,NA,NA,NA,NA,NA,NA,NA,NA,NA,NA
31aa5,shallow,flow.Sequence,3_0_0_0_4_1,NA,NA,completion,10649.9,266218.0999999,266216.6,266233.3,276883.2,276884.29999971,2024-03-09T06:43:03Z,276899.8,NULL,Übersicht,kilindo,s,mgusano,chipukizi,kulinganisha,NA,sdf,NA,0,NA,NA,NA,NA,NA,NA,NA,NA,NA,NA,NA,NA,NA,NA,NA,NA,NA,NA,NA
31aa5,task,flow.Sequence,3_0_0_0_4,NA,NA,completion,10649.9,266217.9000001,266216.6,266233.3,276883.2,276884.4000001,2024-03-09T06:43:03Z,276899.8,NULL,Übersicht,kilindo,s,mgusano,chipukizi,kulinganisha,NA,sdf,NA,0,NA,NA,NA,NA,NA,NA,NA,NA,NA,NA,NA,NA,NA,NA,NA,NA,NA,NA,NA
31aa5,deep,flow.Sequence,3_0_0_0_5_0,NA,NA,skipped,NA,276884.5,NA,NA,276883.2,276884.5999999,2024-03-09T06:43:03Z,276899.8,NULL,Körper,kiwiliwili,s,mapambano,mpatanishi,kiolezo,NA,sdf,NA,0,NA,NA,NA,NA,NA,NA,NA,NA,NA,NA,NA,NA,NA,NA,NA,NA,NA,NA,NA
31aa5,Shallow Question,html.Page,3_0_0_0_5_1_0,NA,NA,form submission,5453.8999998093,276884.69999981,276883.2,276899.8,282353.69999981,282353.9000001,2024-03-09T06:43:08Z,282366.5,NULL,Körper,kiwiliwili,s,mapambano,mpatanishi,kiolezo,mapambano,NA,NA,0,NA,NA,NA,NA,NA,NA,NA,NA,NA,NA,NA,NA,NA,NA,NA,NA,NA,NA,NA
31aa5,"""Richtig""-Screen",canvas.Screen,3_0_0_0_5_1_1,NA,NA,skipped,NA,282355.5,NA,NA,282353.69999981,282355.5999999,2024-03-09T06:43:08Z,282366.5,NULL,Körper,kiwiliwili,s,mapambano,mpatanishi,kiolezo,NA,sdf,NA,0,NA,NA,NA,NA,NA,NA,NA,NA,NA,NA,NA,NA,NA,NA,NA,NA,NA,NA,NA
31aa5,"""Falsch""-Screen",canvas.Screen,3_0_0_0_5_1_2,NA,NA,timeout,5000,282356.0999999,282349.928,282366.5,287349.9,287350.69999981,2024-03-09T06:43:13Z,287366.5,NULL,Körper,kiwiliwili,s,mapambano,mpatanishi,kiolezo,NA,sdf,0,0,NA,NA,NA,NA,NA,NA,NA,NA,NA,NA,NA,NA,NA,NA,NA,NA,NA,NA,NA
31aa5,shallow,flow.Sequence,3_0_0_0_5_1,NA,NA,completion,10450.1,276884.69999981,276883.2,276899.8,287349.9,287350.9000001,2024-03-09T06:43:13Z,287366.5,NULL,Körper,kiwiliwili,s,mapambano,mpatanishi,kiolezo,NA,sdf,NA,0,NA,NA,NA,NA,NA,NA,NA,NA,NA,NA,NA,NA,NA,NA,NA,NA,NA,NA,NA
31aa5,task,flow.Sequence,3_0_0_0_5,NA,NA,completion,10450.1,276884.5,276883.2,276899.8,287349.9,287351.0999999,2024-03-09T06:43:13Z,287366.5,NULL,Körper,kiwiliwili,s,mapambano,mpatanishi,kiolezo,NA,sdf,NA,0,NA,NA,NA,NA,NA,NA,NA,NA,NA,NA,NA,NA,NA,NA,NA,NA,NA,NA,NA
31aa5,Deep Question,html.Page,3_0_0_0_6_0_0,NA,NA,form submission,3268.4000000954,287351.19999981,287349.9,287366.5,290634.9000001,290635.0999999,2024-03-09T06:43:16Z,290649.9,NULL,Lawine,banguko,d,NA,NA,NA,gg,NA,NA,0,NA,NA,NA,NA,NA,NA,NA,NA,NA,NA,NA,NA,NA,NA,NA,NA,NA,NA,NA
31aa5,"""Richtig""-Screen",canvas.Screen,3_0_0_0_6_0_1,NA,NA,skipped,NA,290636.69999981,NA,NA,290634.9000001,290637,2024-03-09T06:43:17Z,290649.9,NULL,Lawine,banguko,d,NA,NA,NA,NA,sdf,NA,0,NA,NA,NA,NA,NA,NA,NA,NA,NA,NA,NA,NA,NA,NA,NA,NA,NA,NA,NA
31aa5,"""Falsch""-Screen",canvas.Screen,3_0_0_0_6_0_2,NA,NA,timeout,5000,290637.4000001,290635.116,290649.9,295633.2,295633.9000001,2024-03-09T06:43:21Z,295649.9,NULL,Lawine,banguko,d,NA,NA,NA,NA,sdf,0,0,NA,NA,NA,NA,NA,NA,NA,NA,NA,NA,NA,NA,NA,NA,NA,NA,NA,NA,NA
31aa5,deep,flow.Sequence,3_0_0_0_6_0,NA,NA,completion,8266.7,287351.19999981,287349.9,287366.5,295633.2,295634.19999981,2024-03-09T06:43:21Z,295649.9,NULL,Lawine,banguko,d,NA,NA,NA,NA,sdf,NA,0,NA,NA,NA,NA,NA,NA,NA,NA,NA,NA,NA,NA,NA,NA,NA,NA,NA,NA,NA
31aa5,shallow,flow.Sequence,3_0_0_0_6_1,NA,NA,skipped,NA,295634.4000001,NA,NA,295633.2,295634.5,2024-03-09T06:43:21Z,295649.9,NULL,Lawine,banguko,d,NA,NA,NA,NA,sdf,NA,0,NA,NA,NA,NA,NA,NA,NA,NA,NA,NA,NA,NA,NA,NA,NA,NA,NA,NA,NA
31aa5,task,flow.Sequence,3_0_0_0_6,NA,NA,completion,8266.7,287351.19999981,287349.9,287366.5,295633.2,295634.5999999,2024-03-09T06:43:21Z,295649.9,NULL,Lawine,banguko,d,NA,NA,NA,NA,sdf,NA,0,NA,NA,NA,NA,NA,NA,NA,NA,NA,NA,NA,NA,NA,NA,NA,NA,NA,NA,NA
31aa5,Deep Question,html.Page,3_0_0_0_7_0_0,NA,NA,form submission,2663.0000000953,295634.69999981,295633.2,295649.9,298312.9000001,298313,2024-03-09T06:43:24Z,298316.4,NULL,Vorsorge,tahadhari,d,NA,NA,NA,gg,NA,NA,0,NA,NA,NA,NA,NA,NA,NA,NA,NA,NA,NA,NA,NA,NA,NA,NA,NA,NA,NA
31aa5,"""Richtig""-Screen",canvas.Screen,3_0_0_0_7_0_1,NA,NA,skipped,NA,298314.5,NA,NA,298312.9000001,298314.69999981,2024-03-09T06:43:24Z,298316.4,NULL,Vorsorge,tahadhari,d,NA,NA,NA,NA,sdf,NA,0,NA,NA,NA,NA,NA,NA,NA,NA,NA,NA,NA,NA,NA,NA,NA,NA,NA,NA,NA
31aa5,"""Falsch""-Screen",canvas.Screen,3_0_0_0_7_0_2,NA,NA,timeout,5000.2,298315.19999981,298300.3,298316.4,303299.8,303300.69999981,2024-03-09T06:43:29Z,303316.6,NULL,Vorsorge,tahadhari,d,NA,NA,NA,NA,sdf,0,0,NA,NA,NA,NA,NA,NA,NA,NA,NA,NA,NA,NA,NA,NA,NA,NA,NA,NA,NA
31aa5,deep,flow.Sequence,3_0_0_0_7_0,NA,NA,completion,7649.9,295634.69999981,295633.2,295649.9,303299.8,303301,2024-03-09T06:43:29Z,303316.6,NULL,Vorsorge,tahadhari,d,NA,NA,NA,NA,sdf,NA,0,NA,NA,NA,NA,NA,NA,NA,NA,NA,NA,NA,NA,NA,NA,NA,NA,NA,NA,NA
31aa5,shallow,flow.Sequence,3_0_0_0_7_1,NA,NA,skipped,NA,303301.19999981,NA,NA,303299.8,303301.19999981,2024-03-09T06:43:29Z,303316.6,NULL,Vorsorge,tahadhari,d,NA,NA,NA,NA,sdf,NA,0,NA,NA,NA,NA,NA,NA,NA,NA,NA,NA,NA,NA,NA,NA,NA,NA,NA,NA,NA
31aa5,task,flow.Sequence,3_0_0_0_7,NA,NA,completion,7649.9,295634.5999999,295633.2,295649.9,303299.8,303301.29999971,2024-03-09T06:43:29Z,303316.6,NULL,Vorsorge,tahadhari,d,NA,NA,NA,NA,sdf,NA,0,NA,NA,NA,NA,NA,NA,NA,NA,NA,NA,NA,NA,NA,NA,NA,NA,NA,NA,NA
31aa5,block,flow.Loop,3_0_0_0,NA,NA,completion,78200.1,225083,225082.428,225099.7,303299.8,303301.5,2024-03-09T06:43:29Z,303316.6,NULL,NA,NA,NA,NA,NA,NA,NA,sdf,NA,0,NA,NA,NA,NA,NA,NA,NA,NA,NA,NA,NA,NA,NA,NA,NA,NA,NA,NA,NA
31aa5,weiter,canvas.Screen,3_0_0_1,sdf,keypress(Space),response,1541.3000000954,303301.5,303299.8,303316.6,304857.9000001,304858.79999971,2024-03-09T06:43:31Z,304899.7,NULL,NA,NA,NA,NA,NA,NA,NA,sdf,NA,0,NA,NA,NA,NA,NA,NA,NA,NA,NA,NA,NA,NA,NA,NA,NA,NA,NA,NA,NA
31aa5,check continue,flow.Sequence,3_0_0,NA,NA,completion,79758.200000095,225082.9000001,225082.428,225099.7,304857.9000001,304859,2024-03-09T06:43:31Z,304899.7,NULL,NA,NA,NA,NA,NA,NA,NA,sdf,NA,0,NA,NA,NA,NA,NA,NA,NA,NA,NA,NA,NA,NA,NA,NA,NA,NA,NA,NA,NA
31aa5,Deep Question,html.Page,3_0_1_0_0_0_0,NA,NA,form submission,3898.8999999046,304897.19999981,304883.272,304899.7,308798.5999999,308798.79999971,2024-03-09T06:43:35Z,308799.872,NULL,System,maongozi,d,NA,NA,NA,gg,NA,NA,1,NA,NA,NA,NA,NA,NA,NA,NA,NA,NA,NA,NA,NA,NA,NA,NA,NA,NA,NA
31aa5,"""Richtig""-Screen",canvas.Screen,3_0_1_0_0_0_1,NA,NA,skipped,NA,308799.5,NA,NA,308798.5999999,308799.5999999,2024-03-09T06:43:35Z,308799.872,NULL,System,maongozi,d,NA,NA,NA,NA,sdfdsf,NA,1,NA,NA,NA,NA,NA,NA,NA,NA,NA,NA,NA,NA,NA,NA,NA,NA,NA,NA,NA
31aa5,"""Falsch""-Screen",canvas.Screen,3_0_1_0_0_0_2,NA,NA,timeout,4999.928,308800.19999981,308799.872,308799.872,313783.2,313783.79999971,2024-03-09T06:43:40Z,313799.8,NULL,System,maongozi,d,NA,NA,NA,NA,sdfdsf,0,1,NA,NA,NA,NA,NA,NA,NA,NA,NA,NA,NA,NA,NA,NA,NA,NA,NA,NA,NA
31aa5,deep,flow.Sequence,3_0_1_0_0_0,NA,NA,completion,8883.5,304897.19999981,304883.272,304899.7,313783.2,313784.19999981,2024-03-09T06:43:40Z,313799.8,NULL,System,maongozi,d,NA,NA,NA,NA,sdfdsf,NA,1,NA,NA,NA,NA,NA,NA,NA,NA,NA,NA,NA,NA,NA,NA,NA,NA,NA,NA,NA
31aa5,shallow,flow.Sequence,3_0_1_0_0_1,NA,NA,skipped,NA,313784.19999981,NA,NA,313783.2,313784.29999971,2024-03-09T06:43:40Z,313799.8,NULL,System,maongozi,d,NA,NA,NA,NA,sdfdsf,NA,1,NA,NA,NA,NA,NA,NA,NA,NA,NA,NA,NA,NA,NA,NA,NA,NA,NA,NA,NA
31aa5,task,flow.Sequence,3_0_1_0_0,NA,NA,completion,8883.5,304897.19999981,304883.272,304899.7,313783.2,313784.5,2024-03-09T06:43:40Z,313799.8,NULL,System,maongozi,d,NA,NA,NA,NA,sdfdsf,NA,1,NA,NA,NA,NA,NA,NA,NA,NA,NA,NA,NA,NA,NA,NA,NA,NA,NA,NA,NA
31aa5,Deep Question,html.Page,3_0_1_0_1_0_0,NA,NA,form submission,10205.999999714,313784.5999999,313783.2,313799.8,324005.79999971,324006,2024-03-09T06:43:50Z,324016.5,NULL,Vorsorge,tahadhari,d,NA,NA,NA,gg,NA,NA,1,NA,NA,NA,NA,NA,NA,NA,NA,NA,NA,NA,NA,NA,NA,NA,NA,NA,NA,NA
31aa5,"""Richtig""-Screen",canvas.Screen,3_0_1_0_1_0_1,NA,NA,skipped,NA,324007.5999999,NA,NA,324005.79999971,324007.79999971,2024-03-09T06:43:50Z,324016.5,NULL,Vorsorge,tahadhari,d,NA,NA,NA,NA,sdfdsf,NA,1,NA,NA,NA,NA,NA,NA,NA,NA,NA,NA,NA,NA,NA,NA,NA,NA,NA,NA,NA
31aa5,"""Falsch""-Screen",canvas.Screen,3_0_1_0_1_0_2,NA,NA,timeout,4999.9,324008.4000001,324000.11,324016.5,328999.8,329000.5999999,2024-03-09T06:43:55Z,329016.4,NULL,Vorsorge,tahadhari,d,NA,NA,NA,NA,sdfdsf,0,1,NA,NA,NA,NA,NA,NA,NA,NA,NA,NA,NA,NA,NA,NA,NA,NA,NA,NA,NA
31aa5,deep,flow.Sequence,3_0_1_0_1_0,NA,NA,completion,15200,313784.5,313783.2,313799.8,328999.8,329000.79999971,2024-03-09T06:43:55Z,329016.4,NULL,Vorsorge,tahadhari,d,NA,NA,NA,NA,sdfdsf,NA,1,NA,NA,NA,NA,NA,NA,NA,NA,NA,NA,NA,NA,NA,NA,NA,NA,NA,NA,NA
31aa5,shallow,flow.Sequence,3_0_1_0_1_1,NA,NA,skipped,NA,329000.9000001,NA,NA,328999.8,329001.0999999,2024-03-09T06:43:55Z,329016.4,NULL,Vorsorge,tahadhari,d,NA,NA,NA,NA,sdfdsf,NA,1,NA,NA,NA,NA,NA,NA,NA,NA,NA,NA,NA,NA,NA,NA,NA,NA,NA,NA,NA
31aa5,task,flow.Sequence,3_0_1_0_1,NA,NA,completion,15200,313784.5,313783.2,313799.8,328999.8,329001.0999999,2024-03-09T06:43:55Z,329016.4,NULL,Vorsorge,tahadhari,d,NA,NA,NA,NA,sdfdsf,NA,1,NA,NA,NA,NA,NA,NA,NA,NA,NA,NA,NA,NA,NA,NA,NA,NA,NA,NA,NA
31aa5,deep,flow.Sequence,3_0_1_0_2_0,NA,NA,skipped,NA,329001.29999971,NA,NA,328999.8,329001.29999971,2024-03-09T06:43:55Z,329016.4,NULL,Symbol,kielezo,s,kinyume,nderemo,utayari,NA,sdfdsf,NA,1,NA,NA,NA,NA,NA,NA,NA,NA,NA,NA,NA,NA,NA,NA,NA,NA,NA,NA,NA
31aa5,Shallow Question,html.Page,3_0_1_0_2_1_0,NA,NA,form submission,7536.2999998092,329001.5,328999.8,329016.4,336552.69999981,336552.79999971,2024-03-09T06:44:02Z,336566.4,NULL,Symbol,kielezo,s,kinyume,nderemo,utayari,kielezo,NA,NA,1,NA,NA,NA,NA,NA,NA,NA,NA,NA,NA,NA,NA,NA,NA,NA,NA,NA,NA,NA
31aa5,"""Richtig""-Screen",canvas.Screen,3_0_1_0_2_1_1,NA,NA,timeout,5000,336554.5999999,336549.892,336566.4,341549.8,341550.5999999,2024-03-09T06:44:07Z,341566.4,NULL,Symbol,kielezo,s,kinyume,nderemo,utayari,NA,sdfdsf,1,1,NA,NA,NA,NA,NA,NA,NA,NA,NA,NA,NA,NA,NA,NA,NA,NA,NA,NA,NA
31aa5,"""Falsch""-Screen",canvas.Screen,3_0_1_0_2_1_2,NA,NA,skipped,NA,341554.5999999,NA,NA,341549.8,341554.79999971,2024-03-09T06:44:07Z,341566.4,NULL,Symbol,kielezo,s,kinyume,nderemo,utayari,NA,sdfdsf,NA,1,NA,NA,NA,NA,NA,NA,NA,NA,NA,NA,NA,NA,NA,NA,NA,NA,NA,NA,NA
31aa5,shallow,flow.Sequence,3_0_1_0_2_1,NA,NA,completion,12533.4,329001.5,328999.8,329016.4,341549.8,341555.0999999,2024-03-09T06:44:07Z,341566.4,NULL,Symbol,kielezo,s,kinyume,nderemo,utayari,NA,sdfdsf,NA,1,NA,NA,NA,NA,NA,NA,NA,NA,NA,NA,NA,NA,NA,NA,NA,NA,NA,NA,NA
31aa5,task,flow.Sequence,3_0_1_0_2,NA,NA,completion,12533.4,329001.29999971,328999.8,329016.4,341549.8,341555.0999999,2024-03-09T06:44:07Z,341566.4,NULL,Symbol,kielezo,s,kinyume,nderemo,utayari,NA,sdfdsf,NA,1,NA,NA,NA,NA,NA,NA,NA,NA,NA,NA,NA,NA,NA,NA,NA,NA,NA,NA,NA
31aa5,deep,flow.Sequence,3_0_1_0_3_0,NA,NA,skipped,NA,341555.19999981,NA,NA,341549.8,341555.4000001,2024-03-09T06:44:07Z,341566.4,NULL,Körper,kiwiliwili,s,mapambano,mpatanishi,kiolezo,NA,sdfdsf,NA,1,NA,NA,NA,NA,NA,NA,NA,NA,NA,NA,NA,NA,NA,NA,NA,NA,NA,NA,NA
31aa5,Shallow Question,html.Page,3_0_1_0_3_1_0,NA,NA,form submission,10423.399999714,341555.4000001,341549.8,341566.4,351989.79999971,351990,2024-03-09T06:44:18Z,351999.8,NULL,Körper,kiwiliwili,s,mapambano,mpatanishi,kiolezo,kiwiliwili,NA,NA,1,NA,NA,NA,NA,NA,NA,NA,NA,NA,NA,NA,NA,NA,NA,NA,NA,NA,NA,NA
31aa5,"""Richtig""-Screen",canvas.Screen,3_0_1_0_3_1_1,NA,NA,timeout,5000,351991.69999981,351983.1,351999.8,356983,356983.79999971,2024-03-09T06:44:23Z,356999.8,NULL,Körper,kiwiliwili,s,mapambano,mpatanishi,kiolezo,NA,sdfdsf,1,1,NA,NA,NA,NA,NA,NA,NA,NA,NA,NA,NA,NA,NA,NA,NA,NA,NA,NA,NA
31aa5,"""Falsch""-Screen",canvas.Screen,3_0_1_0_3_1_2,NA,NA,skipped,NA,356987.5999999,NA,NA,356983,356987.79999971,2024-03-09T06:44:23Z,356999.8,NULL,Körper,kiwiliwili,s,mapambano,mpatanishi,kiolezo,NA,sdfdsf,NA,1,NA,NA,NA,NA,NA,NA,NA,NA,NA,NA,NA,NA,NA,NA,NA,NA,NA,NA,NA
31aa5,shallow,flow.Sequence,3_0_1_0_3_1,NA,NA,completion,15416.6,341555.4000001,341549.8,341566.4,356983,356988,2024-03-09T06:44:23Z,356999.8,NULL,Körper,kiwiliwili,s,mapambano,mpatanishi,kiolezo,NA,sdfdsf,NA,1,NA,NA,NA,NA,NA,NA,NA,NA,NA,NA,NA,NA,NA,NA,NA,NA,NA,NA,NA
31aa5,task,flow.Sequence,3_0_1_0_3,NA,NA,completion,15416.6,341555.19999981,341549.8,341566.4,356983,356988.0999999,2024-03-09T06:44:23Z,356999.8,NULL,Körper,kiwiliwili,s,mapambano,mpatanishi,kiolezo,NA,sdfdsf,NA,1,NA,NA,NA,NA,NA,NA,NA,NA,NA,NA,NA,NA,NA,NA,NA,NA,NA,NA,NA
31aa5,Deep Question,html.Page,3_0_1_0_4_0_0,NA,NA,form submission,3390.1000000954,356988.29999971,356983,356999.8,360389.9000001,360390.19999981,2024-03-09T06:44:26Z,360399.6,NULL,Lawine,banguko,d,NA,NA,NA,gg,NA,NA,1,NA,NA,NA,NA,NA,NA,NA,NA,NA,NA,NA,NA,NA,NA,NA,NA,NA,NA,NA
31aa5,"""Richtig""-Screen",canvas.Screen,3_0_1_0_4_0_1,NA,NA,skipped,NA,360391.69999981,NA,NA,360389.9000001,360391.79999971,2024-03-09T06:44:26Z,360399.6,NULL,Lawine,banguko,d,NA,NA,NA,NA,sdfdsf,NA,1,NA,NA,NA,NA,NA,NA,NA,NA,NA,NA,NA,NA,NA,NA,NA,NA,NA,NA,NA
31aa5,"""Falsch""-Screen",canvas.Screen,3_0_1_0_4_0_2,NA,NA,timeout,5000.1,360392.4000001,360383.298,360399.6,365383.1,365383.69999981,2024-03-09T06:44:31Z,365399.7,NULL,Lawine,banguko,d,NA,NA,NA,NA,sdfdsf,0,1,NA,NA,NA,NA,NA,NA,NA,NA,NA,NA,NA,NA,NA,NA,NA,NA,NA,NA,NA
31aa5,deep,flow.Sequence,3_0_1_0_4_0,NA,NA,completion,8383.3,356988.19999981,356983,356999.8,365383.1,365384.0999999,2024-03-09T06:44:31Z,365399.7,NULL,Lawine,banguko,d,NA,NA,NA,NA,sdfdsf,NA,1,NA,NA,NA,NA,NA,NA,NA,NA,NA,NA,NA,NA,NA,NA,NA,NA,NA,NA,NA
31aa5,shallow,flow.Sequence,3_0_1_0_4_1,NA,NA,skipped,NA,365384.19999981,NA,NA,365383.1,365384.4000001,2024-03-09T06:44:31Z,365399.7,NULL,Lawine,banguko,d,NA,NA,NA,NA,sdfdsf,NA,1,NA,NA,NA,NA,NA,NA,NA,NA,NA,NA,NA,NA,NA,NA,NA,NA,NA,NA,NA
31aa5,task,flow.Sequence,3_0_1_0_4,NA,NA,completion,8383.3,356988.19999981,356983,356999.8,365383.1,365384.5,2024-03-09T06:44:31Z,365399.7,NULL,Lawine,banguko,d,NA,NA,NA,NA,sdfdsf,NA,1,NA,NA,NA,NA,NA,NA,NA,NA,NA,NA,NA,NA,NA,NA,NA,NA,NA,NA,NA
31aa5,deep,flow.Sequence,3_0_1_0_5_0,NA,NA,skipped,NA,365384.5999999,NA,NA,365383.1,365384.69999981,2024-03-09T06:44:31Z,365399.7,NULL,Übersicht,kilindo,s,mgusano,chipukizi,kulinganisha,NA,sdfdsf,NA,1,NA,NA,NA,NA,NA,NA,NA,NA,NA,NA,NA,NA,NA,NA,NA,NA,NA,NA,NA
31aa5,Shallow Question,html.Page,3_0_1_0_5_1_0,NA,NA,form submission,11994.899999905,365384.69999981,365383.1,365399.7,377394.5999999,377394.9000001,2024-03-09T06:44:43Z,377399.6,NULL,Übersicht,kilindo,s,mgusano,chipukizi,kulinganisha,kilindo,NA,NA,1,NA,NA,NA,NA,NA,NA,NA,NA,NA,NA,NA,NA,NA,NA,NA,NA,NA,NA,NA
31aa5,"""Richtig""-Screen",canvas.Screen,3_0_1_0_5_1_1,NA,NA,timeout,5000.1,377396.5999999,377383.93,377399.6,382383,382383.69999981,2024-03-09T06:44:48Z,382399.7,NULL,Übersicht,kilindo,s,mgusano,chipukizi,kulinganisha,NA,sdfdsf,1,1,NA,NA,NA,NA,NA,NA,NA,NA,NA,NA,NA,NA,NA,NA,NA,NA,NA,NA,NA
31aa5,"""Falsch""-Screen",canvas.Screen,3_0_1_0_5_1_2,NA,NA,skipped,NA,382387.69999981,NA,NA,382383,382388,2024-03-09T06:44:48Z,382399.7,NULL,Übersicht,kilindo,s,mgusano,chipukizi,kulinganisha,NA,sdfdsf,NA,1,NA,NA,NA,NA,NA,NA,NA,NA,NA,NA,NA,NA,NA,NA,NA,NA,NA,NA,NA
31aa5,shallow,flow.Sequence,3_0_1_0_5_1,NA,NA,completion,16983.3,365384.69999981,365383.1,365399.7,382383,382388.0999999,2024-03-09T06:44:48Z,382399.7,NULL,Übersicht,kilindo,s,mgusano,chipukizi,kulinganisha,NA,sdfdsf,NA,1,NA,NA,NA,NA,NA,NA,NA,NA,NA,NA,NA,NA,NA,NA,NA,NA,NA,NA,NA
31aa5,task,flow.Sequence,3_0_1_0_5,NA,NA,completion,16983.3,365384.5999999,365383.1,365399.7,382383,382388.29999971,2024-03-09T06:44:48Z,382399.7,NULL,Übersicht,kilindo,s,mgusano,chipukizi,kulinganisha,NA,sdfdsf,NA,1,NA,NA,NA,NA,NA,NA,NA,NA,NA,NA,NA,NA,NA,NA,NA,NA,NA,NA,NA
31aa5,Deep Question,html.Page,3_0_1_0_6_0_0,NA,NA,form submission,2608.9999998093,382388.4000001,382383,382399.7,385008.69999981,385009,2024-03-09T06:44:51Z,385016.3,NULL,Konkurrent,mshindani,d,NA,NA,NA,gg,NA,NA,1,NA,NA,NA,NA,NA,NA,NA,NA,NA,NA,NA,NA,NA,NA,NA,NA,NA,NA,NA
31aa5,"""Richtig""-Screen",canvas.Screen,3_0_1_0_6_0_1,NA,NA,skipped,NA,385009.69999981,NA,NA,385008.69999981,385009.69999981,2024-03-09T06:44:51Z,385016.3,NULL,Konkurrent,mshindani,d,NA,NA,NA,NA,sdfdsf,NA,1,NA,NA,NA,NA,NA,NA,NA,NA,NA,NA,NA,NA,NA,NA,NA,NA,NA,NA,NA
31aa5,"""Falsch""-Screen",canvas.Screen,3_0_1_0_6_0_2,NA,NA,timeout,5000,385010.0999999,384999.842,385016.3,389999.6,390000.4000001,2024-03-09T06:44:56Z,390016.3,NULL,Konkurrent,mshindani,d,NA,NA,NA,NA,sdfdsf,0,1,NA,NA,NA,NA,NA,NA,NA,NA,NA,NA,NA,NA,NA,NA,NA,NA,NA,NA,NA
31aa5,deep,flow.Sequence,3_0_1_0_6_0,NA,NA,completion,7599.9,382388.4000001,382383,382399.7,389999.6,390000.79999971,2024-03-09T06:44:56Z,390016.3,NULL,Konkurrent,mshindani,d,NA,NA,NA,NA,sdfdsf,NA,1,NA,NA,NA,NA,NA,NA,NA,NA,NA,NA,NA,NA,NA,NA,NA,NA,NA,NA,NA
31aa5,shallow,flow.Sequence,3_0_1_0_6_1,NA,NA,skipped,NA,390001,NA,NA,389999.6,390001,2024-03-09T06:44:56Z,390016.3,NULL,Konkurrent,mshindani,d,NA,NA,NA,NA,sdfdsf,NA,1,NA,NA,NA,NA,NA,NA,NA,NA,NA,NA,NA,NA,NA,NA,NA,NA,NA,NA,NA
31aa5,task,flow.Sequence,3_0_1_0_6,NA,NA,completion,7599.9,382388.4000001,382383,382399.7,389999.6,390001.19999981,2024-03-09T06:44:56Z,390016.3,NULL,Konkurrent,mshindani,d,NA,NA,NA,NA,sdfdsf,NA,1,NA,NA,NA,NA,NA,NA,NA,NA,NA,NA,NA,NA,NA,NA,NA,NA,NA,NA,NA
31aa5,deep,flow.Sequence,3_0_1_0_7_0,NA,NA,skipped,NA,390001.19999981,NA,NA,389999.6,390001.29999971,2024-03-09T06:44:56Z,390016.3,NULL,Zuwachs,nyongeza,s,matilaba,udhibiti,hudhurio,NA,sdfdsf,NA,1,NA,NA,NA,NA,NA,NA,NA,NA,NA,NA,NA,NA,NA,NA,NA,NA,NA,NA,NA
31aa5,Shallow Question,html.Page,3_0_1_0_7_1_0,NA,NA,form submission,8702.2,390001.4000001,389999.6,390016.3,398718.5,398718.69999981,2024-03-09T06:45:05Z,398733,NULL,Zuwachs,nyongeza,s,matilaba,udhibiti,hudhurio,matilaba,NA,NA,1,NA,NA,NA,NA,NA,NA,NA,NA,NA,NA,NA,NA,NA,NA,NA,NA,NA,NA,NA
31aa5,"""Richtig""-Screen",canvas.Screen,3_0_1_0_7_1_1,NA,NA,skipped,NA,398720.4000001,NA,NA,398718.5,398720.5,2024-03-09T06:45:05Z,398733,NULL,Zuwachs,nyongeza,s,matilaba,udhibiti,hudhurio,NA,sdfdsf,NA,1,NA,NA,NA,NA,NA,NA,NA,NA,NA,NA,NA,NA,NA,NA,NA,NA,NA,NA,NA
31aa5,"""Falsch""-Screen",canvas.Screen,3_0_1_0_7_1_2,NA,NA,timeout,5000.2,398721,398716.514,398733,403716.4,403717.19999981,2024-03-09T06:45:10Z,403733.2,NULL,Zuwachs,nyongeza,s,matilaba,udhibiti,hudhurio,NA,sdfdsf,0,1,NA,NA,NA,NA,NA,NA,NA,NA,NA,NA,NA,NA,NA,NA,NA,NA,NA,NA,NA
31aa5,shallow,flow.Sequence,3_0_1_0_7_1,NA,NA,completion,13700.1,390001.4000001,389999.6,390016.3,403716.4,403717.5,2024-03-09T06:45:10Z,403733.2,NULL,Zuwachs,nyongeza,s,matilaba,udhibiti,hudhurio,NA,sdfdsf,NA,1,NA,NA,NA,NA,NA,NA,NA,NA,NA,NA,NA,NA,NA,NA,NA,NA,NA,NA,NA
31aa5,task,flow.Sequence,3_0_1_0_7,NA,NA,completion,13700.1,390001.19999981,389999.6,390016.3,403716.4,403717.5,2024-03-09T06:45:10Z,403733.2,NULL,Zuwachs,nyongeza,s,matilaba,udhibiti,hudhurio,NA,sdfdsf,NA,1,NA,NA,NA,NA,NA,NA,NA,NA,NA,NA,NA,NA,NA,NA,NA,NA,NA,NA,NA
31aa5,block,flow.Loop,3_0_1_0,NA,NA,completion,98816.7,304897.19999981,304883.272,304899.7,403716.4,403717.69999981,2024-03-09T06:45:10Z,403733.2,NULL,NA,NA,NA,NA,NA,NA,NA,sdfdsf,NA,1,NA,NA,NA,NA,NA,NA,NA,NA,NA,NA,NA,NA,NA,NA,NA,NA,NA,NA,NA
31aa5,weiter,canvas.Screen,3_0_1_1,sdf,keypress(Space),response,1412.7000000954,403717.9000001,403716.4,403733.2,405145.9000001,405146.69999981,2024-03-09T06:45:11Z,405183.142,NULL,NA,NA,NA,NA,NA,NA,NA,sdfdsf,NA,1,NA,NA,NA,NA,NA,NA,NA,NA,NA,NA,NA,NA,NA,NA,NA,NA,NA,NA,NA
31aa5,check continue,flow.Sequence,3_0_1,NA,NA,completion,100246.2000001,304897.19999981,304883.272,304899.7,405145.9000001,405147,2024-03-09T06:45:11Z,405183.142,NULL,NA,NA,NA,NA,NA,NA,NA,sdfdsf,NA,1,NA,NA,NA,NA,NA,NA,NA,NA,NA,NA,NA,NA,NA,NA,NA,NA,NA,NA,NA
31aa5,Deep Question,html.Page,3_0_2_0_0_0_0,NA,NA,form submission,4672.7580000954,405188.29999971,405183.142,405183.142,409855.9000001,409856.19999981,2024-03-09T06:45:16Z,409883.1,NULL,Lawine,banguko,d,NA,NA,NA,banguko,NA,NA,2,NA,NA,NA,NA,NA,NA,NA,NA,NA,NA,NA,NA,NA,NA,NA,NA,NA,NA,NA
31aa5,"""Richtig""-Screen",canvas.Screen,3_0_2_0_0_0_1,NA,NA,timeout,4999.9,409857.79999971,409866.5,409883.1,414866.4,414867.0999999,2024-03-09T06:45:21Z,414883,NULL,Lawine,banguko,d,NA,NA,NA,NA,sdf,1,2,NA,NA,NA,NA,NA,NA,NA,NA,NA,NA,NA,NA,NA,NA,NA,NA,NA,NA,NA
31aa5,"""Falsch""-Screen",canvas.Screen,3_0_2_0_0_0_2,NA,NA,skipped,NA,414871.0999999,NA,NA,414866.4,414871.19999981,2024-03-09T06:45:21Z,414883,NULL,Lawine,banguko,d,NA,NA,NA,NA,sdf,NA,2,NA,NA,NA,NA,NA,NA,NA,NA,NA,NA,NA,NA,NA,NA,NA,NA,NA,NA,NA
31aa5,deep,flow.Sequence,3_0_2_0_0_0,NA,NA,completion,9683.258,405188.29999971,405183.142,405183.142,414866.4,414871.4000001,2024-03-09T06:45:21Z,414883,NULL,Lawine,banguko,d,NA,NA,NA,NA,sdf,NA,2,NA,NA,NA,NA,NA,NA,NA,NA,NA,NA,NA,NA,NA,NA,NA,NA,NA,NA,NA
31aa5,shallow,flow.Sequence,3_0_2_0_0_1,NA,NA,skipped,NA,414871.5,NA,NA,414866.4,414871.5,2024-03-09T06:45:21Z,414883,NULL,Lawine,banguko,d,NA,NA,NA,NA,sdf,NA,2,NA,NA,NA,NA,NA,NA,NA,NA,NA,NA,NA,NA,NA,NA,NA,NA,NA,NA,NA
31aa5,task,flow.Sequence,3_0_2_0_0,NA,NA,completion,9683.258,405188.29999971,405183.142,405183.142,414866.4,414871.69999981,2024-03-09T06:45:21Z,414883,NULL,Lawine,banguko,d,NA,NA,NA,NA,sdf,NA,2,NA,NA,NA,NA,NA,NA,NA,NA,NA,NA,NA,NA,NA,NA,NA,NA,NA,NA,NA
31aa5,deep,flow.Sequence,3_0_2_0_1_0,NA,NA,skipped,NA,414871.79999971,NA,NA,414866.4,414871.9000001,2024-03-09T06:45:21Z,414883,NULL,Zuwachs,nyongeza,s,matilaba,udhibiti,hudhurio,NA,sdf,NA,2,NA,NA,NA,NA,NA,NA,NA,NA,NA,NA,NA,NA,NA,NA,NA,NA,NA,NA,NA
31aa5,Shallow Question,html.Page,3_0_2_0_1_1_0,NA,NA,form submission,4905.5999999046,414871.9000001,414866.4,414883,419788.5999999,419788.79999971,2024-03-09T06:45:26Z,419799.6,NULL,Zuwachs,nyongeza,s,matilaba,udhibiti,hudhurio,nyongeza,NA,NA,2,NA,NA,NA,NA,NA,NA,NA,NA,NA,NA,NA,NA,NA,NA,NA,NA,NA,NA,NA
31aa5,"""Richtig""-Screen",canvas.Screen,3_0_2_0_1_1_1,NA,NA,timeout,5000,419790.29999971,419783.156,419799.6,424783.2,424783.9000001,2024-03-09T06:45:31Z,424799.6,NULL,Zuwachs,nyongeza,s,matilaba,udhibiti,hudhurio,NA,sdf,1,2,NA,NA,NA,NA,NA,NA,NA,NA,NA,NA,NA,NA,NA,NA,NA,NA,NA,NA,NA
31aa5,"""Falsch""-Screen",canvas.Screen,3_0_2_0_1_1_2,NA,NA,skipped,NA,424788,NA,NA,424783.2,424788.19999981,2024-03-09T06:45:31Z,424799.6,NULL,Zuwachs,nyongeza,s,matilaba,udhibiti,hudhurio,NA,sdf,NA,2,NA,NA,NA,NA,NA,NA,NA,NA,NA,NA,NA,NA,NA,NA,NA,NA,NA,NA,NA
31aa5,shallow,flow.Sequence,3_0_2_0_1_1,NA,NA,completion,9900.2,414871.9000001,414866.4,414883,424783.2,424788.29999971,2024-03-09T06:45:31Z,424799.6,NULL,Zuwachs,nyongeza,s,matilaba,udhibiti,hudhurio,NA,sdf,NA,2,NA,NA,NA,NA,NA,NA,NA,NA,NA,NA,NA,NA,NA,NA,NA,NA,NA,NA,NA
31aa5,task,flow.Sequence,3_0_2_0_1,NA,NA,completion,9900.2,414871.69999981,414866.4,414883,424783.2,424788.5,2024-03-09T06:45:31Z,424799.6,NULL,Zuwachs,nyongeza,s,matilaba,udhibiti,hudhurio,NA,sdf,NA,2,NA,NA,NA,NA,NA,NA,NA,NA,NA,NA,NA,NA,NA,NA,NA,NA,NA,NA,NA
31aa5,deep,flow.Sequence,3_0_2_0_2_0,NA,NA,skipped,NA,424788.5999999,NA,NA,424783.2,424788.69999981,2024-03-09T06:45:31Z,424799.6,NULL,Symbol,kielezo,s,kinyume,nderemo,utayari,NA,sdf,NA,2,NA,NA,NA,NA,NA,NA,NA,NA,NA,NA,NA,NA,NA,NA,NA,NA,NA,NA,NA
31aa5,Shallow Question,html.Page,3_0_2_0_2_1_0,NA,NA,form submission,11990.999999905,424788.79999971,424783.2,424799.6,436790.5999999,436790.9000001,2024-03-09T06:45:43Z,436799.5,NULL,Symbol,kielezo,s,kinyume,nderemo,utayari,kinyume,NA,NA,2,NA,NA,NA,NA,NA,NA,NA,NA,NA,NA,NA,NA,NA,NA,NA,NA,NA,NA,NA
31aa5,"""Richtig""-Screen",canvas.Screen,3_0_2_0_2_1_1,NA,NA,skipped,NA,436792.5999999,NA,NA,436790.5999999,436792.69999981,2024-03-09T06:45:43Z,436799.5,NULL,Symbol,kielezo,s,kinyume,nderemo,utayari,NA,sdf,NA,2,NA,NA,NA,NA,NA,NA,NA,NA,NA,NA,NA,NA,NA,NA,NA,NA,NA,NA,NA
31aa5,"""Falsch""-Screen",canvas.Screen,3_0_2_0_2_1_2,NA,NA,timeout,5000.3,436793.19999981,436783.106,436799.5,441783,441783.79999971,2024-03-09T06:45:48Z,441799.8,NULL,Symbol,kielezo,s,kinyume,nderemo,utayari,NA,sdf,0,2,NA,NA,NA,NA,NA,NA,NA,NA,NA,NA,NA,NA,NA,NA,NA,NA,NA,NA,NA
31aa5,shallow,flow.Sequence,3_0_2_0_2_1,NA,NA,completion,16983.4,424788.69999981,424783.2,424799.6,441783,441784.0999999,2024-03-09T06:45:48Z,441799.8,NULL,Symbol,kielezo,s,kinyume,nderemo,utayari,NA,sdf,NA,2,NA,NA,NA,NA,NA,NA,NA,NA,NA,NA,NA,NA,NA,NA,NA,NA,NA,NA,NA
31aa5,task,flow.Sequence,3_0_2_0_2,NA,NA,completion,16983.4,424788.5999999,424783.2,424799.6,441783,441784.19999981,2024-03-09T06:45:48Z,441799.8,NULL,Symbol,kielezo,s,kinyume,nderemo,utayari,NA,sdf,NA,2,NA,NA,NA,NA,NA,NA,NA,NA,NA,NA,NA,NA,NA,NA,NA,NA,NA,NA,NA
31aa5,Deep Question,html.Page,3_0_2_0_3_0_0,NA,NA,form submission,5928.7999999046,441784.4000001,441783,441799.8,447728.5999999,447728.79999971,2024-03-09T06:45:54Z,447732.9,NULL,System,maongozi,d,NA,NA,NA,gg,NA,NA,2,NA,NA,NA,NA,NA,NA,NA,NA,NA,NA,NA,NA,NA,NA,NA,NA,NA,NA,NA
31aa5,"""Richtig""-Screen",canvas.Screen,3_0_2_0_3_0_1,NA,NA,skipped,NA,447730.5,NA,NA,447728.5999999,447730.5999999,2024-03-09T06:45:54Z,447732.9,NULL,System,maongozi,d,NA,NA,NA,NA,sdf,NA,2,NA,NA,NA,NA,NA,NA,NA,NA,NA,NA,NA,NA,NA,NA,NA,NA,NA,NA,NA
31aa5,"""Falsch""-Screen",canvas.Screen,3_0_2_0_3_0_2,NA,NA,timeout,5000,447731.0999999,447718.1,447732.9,452716.4,452717,2024-03-09T06:45:59Z,452732.9,NULL,System,maongozi,d,NA,NA,NA,NA,sdf,0,2,NA,NA,NA,NA,NA,NA,NA,NA,NA,NA,NA,NA,NA,NA,NA,NA,NA,NA,NA
31aa5,deep,flow.Sequence,3_0_2_0_3_0,NA,NA,completion,10916.6,441784.4000001,441783,441799.8,452716.4,452717.29999971,2024-03-09T06:45:59Z,452732.9,NULL,System,maongozi,d,NA,NA,NA,NA,sdf,NA,2,NA,NA,NA,NA,NA,NA,NA,NA,NA,NA,NA,NA,NA,NA,NA,NA,NA,NA,NA
31aa5,shallow,flow.Sequence,3_0_2_0_3_1,NA,NA,skipped,NA,452717.5,NA,NA,452716.4,452717.5999999,2024-03-09T06:45:59Z,452732.9,NULL,System,maongozi,d,NA,NA,NA,NA,sdf,NA,2,NA,NA,NA,NA,NA,NA,NA,NA,NA,NA,NA,NA,NA,NA,NA,NA,NA,NA,NA
31aa5,task,flow.Sequence,3_0_2_0_3,NA,NA,completion,10916.6,441784.29999971,441783,441799.8,452716.4,452717.69999981,2024-03-09T06:45:59Z,452732.9,NULL,System,maongozi,d,NA,NA,NA,NA,sdf,NA,2,NA,NA,NA,NA,NA,NA,NA,NA,NA,NA,NA,NA,NA,NA,NA,NA,NA,NA,NA
31aa5,deep,flow.Sequence,3_0_2_0_4_0,NA,NA,skipped,NA,452717.79999971,NA,NA,452716.4,452717.79999971,2024-03-09T06:45:59Z,452732.9,NULL,Körper,kiwiliwili,s,mapambano,mpatanishi,kiolezo,NA,sdf,NA,2,NA,NA,NA,NA,NA,NA,NA,NA,NA,NA,NA,NA,NA,NA,NA,NA,NA,NA,NA
31aa5,Shallow Question,html.Page,3_0_2_0_4_1_0,NA,NA,form submission,6526.6999999046,452717.9000001,452716.4,452732.9,459259.5999999,459259.69999981,2024-03-09T06:46:05Z,459266.2,NULL,Körper,kiwiliwili,s,mapambano,mpatanishi,kiolezo,kiwiliwili,NA,NA,2,NA,NA,NA,NA,NA,NA,NA,NA,NA,NA,NA,NA,NA,NA,NA,NA,NA,NA,NA
31aa5,"""Richtig""-Screen",canvas.Screen,3_0_2_0_4_1_1,NA,NA,timeout,5000.2,459261.29999971,459249.824,459266.2,464249.6,464250.4000001,2024-03-09T06:46:10Z,464266.4,NULL,Körper,kiwiliwili,s,mapambano,mpatanishi,kiolezo,NA,sdf,1,2,NA,NA,NA,NA,NA,NA,NA,NA,NA,NA,NA,NA,NA,NA,NA,NA,NA,NA,NA
31aa5,"""Falsch""-Screen",canvas.Screen,3_0_2_0_4_1_2,NA,NA,skipped,NA,464254.79999971,NA,NA,464249.6,464255,2024-03-09T06:46:10Z,464266.4,NULL,Körper,kiwiliwili,s,mapambano,mpatanishi,kiolezo,NA,sdf,NA,2,NA,NA,NA,NA,NA,NA,NA,NA,NA,NA,NA,NA,NA,NA,NA,NA,NA,NA,NA
31aa5,shallow,flow.Sequence,3_0_2_0_4_1,NA,NA,completion,11516.7,452717.79999971,452716.4,452732.9,464249.6,464255.19999981,2024-03-09T06:46:10Z,464266.4,NULL,Körper,kiwiliwili,s,mapambano,mpatanishi,kiolezo,NA,sdf,NA,2,NA,NA,NA,NA,NA,NA,NA,NA,NA,NA,NA,NA,NA,NA,NA,NA,NA,NA,NA
31aa5,task,flow.Sequence,3_0_2_0_4,NA,NA,completion,11516.7,452717.79999971,452716.4,452732.9,464249.6,464255.29999971,2024-03-09T06:46:10Z,464266.4,NULL,Körper,kiwiliwili,s,mapambano,mpatanishi,kiolezo,NA,sdf,NA,2,NA,NA,NA,NA,NA,NA,NA,NA,NA,NA,NA,NA,NA,NA,NA,NA,NA,NA,NA
31aa5,Deep Question,html.Page,3_0_2_0_5_0_0,NA,NA,form submission,10472.299999809,464255.5,464249.6,464266.4,474738.69999981,474738.9000001,2024-03-09T06:46:21Z,474749.5,NULL,Konkurrent,mshindani,d,NA,NA,NA,mangaoli,NA,NA,2,NA,NA,NA,NA,NA,NA,NA,NA,NA,NA,NA,NA,NA,NA,NA,NA,NA,NA,NA
31aa5,"""Richtig""-Screen",canvas.Screen,3_0_2_0_5_0_1,NA,NA,skipped,NA,474740.5999999,NA,NA,474738.69999981,474740.5999999,2024-03-09T06:46:21Z,474749.5,NULL,Konkurrent,mshindani,d,NA,NA,NA,NA,sdf,NA,2,NA,NA,NA,NA,NA,NA,NA,NA,NA,NA,NA,NA,NA,NA,NA,NA,NA,NA,NA
31aa5,"""Falsch""-Screen",canvas.Screen,3_0_2_0_5_0_2,NA,NA,timeout,5000.2,474741.0999999,474734.024,474749.5,479732.9,479733.69999981,2024-03-09T06:46:26Z,479749.7,NULL,Konkurrent,mshindani,d,NA,NA,NA,NA,sdf,0,2,NA,NA,NA,NA,NA,NA,NA,NA,NA,NA,NA,NA,NA,NA,NA,NA,NA,NA,NA
31aa5,deep,flow.Sequence,3_0_2_0_5_0,NA,NA,completion,15466.5,464255.4000001,464249.6,464266.4,479732.9,479734.0999999,2024-03-09T06:46:26Z,479749.7,NULL,Konkurrent,mshindani,d,NA,NA,NA,NA,sdf,NA,2,NA,NA,NA,NA,NA,NA,NA,NA,NA,NA,NA,NA,NA,NA,NA,NA,NA,NA,NA
31aa5,shallow,flow.Sequence,3_0_2_0_5_1,NA,NA,skipped,NA,479734.19999981,NA,NA,479732.9,479734.29999971,2024-03-09T06:46:26Z,479749.7,NULL,Konkurrent,mshindani,d,NA,NA,NA,NA,sdf,NA,2,NA,NA,NA,NA,NA,NA,NA,NA,NA,NA,NA,NA,NA,NA,NA,NA,NA,NA,NA
31aa5,task,flow.Sequence,3_0_2_0_5,NA,NA,completion,15466.5,464255.4000001,464249.6,464266.4,479732.9,479734.4000001,2024-03-09T06:46:26Z,479749.7,NULL,Konkurrent,mshindani,d,NA,NA,NA,NA,sdf,NA,2,NA,NA,NA,NA,NA,NA,NA,NA,NA,NA,NA,NA,NA,NA,NA,NA,NA,NA,NA
31aa5,Deep Question,html.Page,3_0_2_0_6_0_0,NA,NA,form submission,2463.8,479734.5,479732.9,479749.7,482213.5,482213.69999981,2024-03-09T06:46:28Z,482216.2,NULL,Vorsorge,tahadhari,d,NA,NA,NA,gg,NA,NA,2,NA,NA,NA,NA,NA,NA,NA,NA,NA,NA,NA,NA,NA,NA,NA,NA,NA,NA,NA
31aa5,"""Richtig""-Screen",canvas.Screen,3_0_2_0_6_0_1,NA,NA,skipped,NA,482215.29999971,NA,NA,482213.5,482215.5,2024-03-09T06:46:28Z,482216.2,NULL,Vorsorge,tahadhari,d,NA,NA,NA,NA,sdf,NA,2,NA,NA,NA,NA,NA,NA,NA,NA,NA,NA,NA,NA,NA,NA,NA,NA,NA,NA,NA
31aa5,"""Falsch""-Screen",canvas.Screen,3_0_2_0_6_0_2,NA,NA,timeout,5000.1,482216.19999981,482201.488,482216.2,487199.6,487200.4000001,2024-03-09T06:46:33Z,487216.3,NULL,Vorsorge,tahadhari,d,NA,NA,NA,NA,sdf,0,2,NA,NA,NA,NA,NA,NA,NA,NA,NA,NA,NA,NA,NA,NA,NA,NA,NA,NA,NA
31aa5,deep,flow.Sequence,3_0_2_0_6_0,NA,NA,completion,7449.9,479734.5,479732.9,479749.7,487199.6,487200.5999999,2024-03-09T06:46:33Z,487216.3,NULL,Vorsorge,tahadhari,d,NA,NA,NA,NA,sdf,NA,2,NA,NA,NA,NA,NA,NA,NA,NA,NA,NA,NA,NA,NA,NA,NA,NA,NA,NA,NA
31aa5,shallow,flow.Sequence,3_0_2_0_6_1,NA,NA,skipped,NA,487200.69999981,NA,NA,487199.6,487200.79999971,2024-03-09T06:46:33Z,487216.3,NULL,Vorsorge,tahadhari,d,NA,NA,NA,NA,sdf,NA,2,NA,NA,NA,NA,NA,NA,NA,NA,NA,NA,NA,NA,NA,NA,NA,NA,NA,NA,NA
31aa5,task,flow.Sequence,3_0_2_0_6,NA,NA,completion,7449.9,479734.5,479732.9,479749.7,487199.6,487200.9000001,2024-03-09T06:46:33Z,487216.3,NULL,Vorsorge,tahadhari,d,NA,NA,NA,NA,sdf,NA,2,NA,NA,NA,NA,NA,NA,NA,NA,NA,NA,NA,NA,NA,NA,NA,NA,NA,NA,NA
31aa5,deep,flow.Sequence,3_0_2_0_7_0,NA,NA,skipped,NA,487201,NA,NA,487199.6,487201.0999999,2024-03-09T06:46:33Z,487216.3,NULL,Übersicht,kilindo,s,mgusano,chipukizi,kulinganisha,NA,sdf,NA,2,NA,NA,NA,NA,NA,NA,NA,NA,NA,NA,NA,NA,NA,NA,NA,NA,NA,NA,NA
31aa5,Shallow Question,html.Page,3_0_2_0_7_1_0,NA,NA,form submission,17965.299999905,487201.0999999,487199.6,487216.3,505181.5999999,505181.79999971,2024-03-09T06:46:51Z,505183.088,NULL,Übersicht,kilindo,s,mgusano,chipukizi,kulinganisha,mgusano,NA,NA,2,NA,NA,NA,NA,NA,NA,NA,NA,NA,NA,NA,NA,NA,NA,NA,NA,NA,NA,NA
31aa5,"""Richtig""-Screen",canvas.Screen,3_0_2_0_7_1_1,NA,NA,skipped,NA,505183.5999999,NA,NA,505181.5999999,505183.69999981,2024-03-09T06:46:51Z,505183.088,NULL,Übersicht,kilindo,s,mgusano,chipukizi,kulinganisha,NA,sdf,NA,2,NA,NA,NA,NA,NA,NA,NA,NA,NA,NA,NA,NA,NA,NA,NA,NA,NA,NA,NA
31aa5,"""Falsch""-Screen",canvas.Screen,3_0_2_0_7_1_2,NA,NA,timeout,4999.812,505184.19999981,505183.088,505183.088,510166.4,510167.19999981,2024-03-09T06:46:56Z,510182.9,NULL,Übersicht,kilindo,s,mgusano,chipukizi,kulinganisha,NA,sdf,0,2,NA,NA,NA,NA,NA,NA,NA,NA,NA,NA,NA,NA,NA,NA,NA,NA,NA,NA,NA
31aa5,shallow,flow.Sequence,3_0_2_0_7_1,NA,NA,completion,22950.1,487201.0999999,487199.6,487216.3,510166.4,510167.5,2024-03-09T06:46:56Z,510182.9,NULL,Übersicht,kilindo,s,mgusano,chipukizi,kulinganisha,NA,sdf,NA,2,NA,NA,NA,NA,NA,NA,NA,NA,NA,NA,NA,NA,NA,NA,NA,NA,NA,NA,NA
31aa5,task,flow.Sequence,3_0_2_0_7,NA,NA,completion,22950.1,487201,487199.6,487216.3,510166.4,510167.5999999,2024-03-09T06:46:56Z,510182.9,NULL,Übersicht,kilindo,s,mgusano,chipukizi,kulinganisha,NA,sdf,NA,2,NA,NA,NA,NA,NA,NA,NA,NA,NA,NA,NA,NA,NA,NA,NA,NA,NA,NA,NA
31aa5,block,flow.Loop,3_0_2_0,NA,NA,completion,104983.258,405188.29999971,405183.142,405183.142,510166.4,510167.79999971,2024-03-09T06:46:56Z,510182.9,NULL,NA,NA,NA,NA,NA,NA,NA,sdf,NA,2,NA,NA,NA,NA,NA,NA,NA,NA,NA,NA,NA,NA,NA,NA,NA,NA,NA,NA,NA
31aa5,weiter,canvas.Screen,3_0_2_1,sdf,keypress(Space),response,1270.1,510167.9000001,510166.4,510182.9,511453,511453.79999971,2024-03-09T06:46:57Z,511483.056,NULL,NA,NA,NA,NA,NA,NA,NA,sdf,NA,2,NA,NA,NA,NA,NA,NA,NA,NA,NA,NA,NA,NA,NA,NA,NA,NA,NA,NA,NA
31aa5,check continue,flow.Sequence,3_0_2,NA,NA,completion,106269.858,405188.19999981,405183.142,405183.142,511453,511454.0999999,2024-03-09T06:46:57Z,511483.056,NULL,NA,NA,NA,NA,NA,NA,NA,sdf,NA,2,NA,NA,NA,NA,NA,NA,NA,NA,NA,NA,NA,NA,NA,NA,NA,NA,NA,NA,NA
31aa5,deep,flow.Sequence,3_0_3_0_0_0,NA,NA,skipped,NA,511490.79999971,NA,NA,511453,511490.9000001,2024-03-09T06:46:57Z,511483.056,NULL,Übersicht,kilindo,s,mgusano,chipukizi,kulinganisha,NA,qt,NA,3,NA,NA,NA,NA,NA,NA,NA,NA,NA,NA,NA,NA,NA,NA,NA,NA,NA,NA,NA
31aa5,Shallow Question,html.Page,3_0_3_0_0_1_0,NA,NA,form submission,5520.5439999047,511491,511483.056,511483.056,517003.5999999,517003.79999971,2024-03-09T06:47:03Z,517016.1,NULL,Übersicht,kilindo,s,mgusano,chipukizi,kulinganisha,kilindo,NA,NA,3,NA,NA,NA,NA,NA,NA,NA,NA,NA,NA,NA,NA,NA,NA,NA,NA,NA,NA,NA
31aa5,"""Richtig""-Screen",canvas.Screen,3_0_3_0_0_1_1,NA,NA,timeout,5000.2,517005.29999971,516999.7,517016.1,521999.6,522000.29999971,2024-03-09T06:47:08Z,522016.3,NULL,Übersicht,kilindo,s,mgusano,chipukizi,kulinganisha,NA,qt,1,3,NA,NA,NA,NA,NA,NA,NA,NA,NA,NA,NA,NA,NA,NA,NA,NA,NA,NA,NA
31aa5,"""Falsch""-Screen",canvas.Screen,3_0_3_0_0_1_2,NA,NA,skipped,NA,522004.29999971,NA,NA,521999.6,522004.5999999,2024-03-09T06:47:08Z,522016.3,NULL,Übersicht,kilindo,s,mgusano,chipukizi,kulinganisha,NA,qt,NA,3,NA,NA,NA,NA,NA,NA,NA,NA,NA,NA,NA,NA,NA,NA,NA,NA,NA,NA,NA
31aa5,shallow,flow.Sequence,3_0_3_0_0_1,NA,NA,completion,10516.544,511490.9000001,511483.056,511483.056,521999.6,522004.69999981,2024-03-09T06:47:08Z,522016.3,NULL,Übersicht,kilindo,s,mgusano,chipukizi,kulinganisha,NA,qt,NA,3,NA,NA,NA,NA,NA,NA,NA,NA,NA,NA,NA,NA,NA,NA,NA,NA,NA,NA,NA
31aa5,task,flow.Sequence,3_0_3_0_0,NA,NA,completion,10516.544,511490.79999971,511483.056,511483.056,521999.6,522004.9000001,2024-03-09T06:47:08Z,522016.3,NULL,Übersicht,kilindo,s,mgusano,chipukizi,kulinganisha,NA,qt,NA,3,NA,NA,NA,NA,NA,NA,NA,NA,NA,NA,NA,NA,NA,NA,NA,NA,NA,NA,NA
31aa5,Deep Question,html.Page,3_0_3_0_1_0_0,NA,NA,form submission,9929.3999998093,522005,521999.6,522016.3,531945.69999981,531945.9000001,2024-03-09T06:47:18Z,531949.5,NULL,Konkurrent,mshindani,d,NA,NA,NA,mishilano,NA,NA,3,NA,NA,NA,NA,NA,NA,NA,NA,NA,NA,NA,NA,NA,NA,NA,NA,NA,NA,NA
31aa5,"""Richtig""-Screen",canvas.Screen,3_0_3_0_1_0_1,NA,NA,skipped,NA,531947.5999999,NA,NA,531945.69999981,531947.69999981,2024-03-09T06:47:18Z,531949.5,NULL,Konkurrent,mshindani,d,NA,NA,NA,NA,qt,NA,3,NA,NA,NA,NA,NA,NA,NA,NA,NA,NA,NA,NA,NA,NA,NA,NA,NA,NA,NA
31aa5,"""Falsch""-Screen",canvas.Screen,3_0_3_0_1_0_2,NA,NA,timeout,5000.2,531948.29999971,531933.224,531949.5,536932.8,536933.69999981,2024-03-09T06:47:23Z,536949.7,NULL,Konkurrent,mshindani,d,NA,NA,NA,NA,qt,0,3,NA,NA,NA,NA,NA,NA,NA,NA,NA,NA,NA,NA,NA,NA,NA,NA,NA,NA,NA
31aa5,deep,flow.Sequence,3_0_3_0_1_0,NA,NA,completion,14916.5,522004.9000001,521999.6,522016.3,536932.8,536934,2024-03-09T06:47:23Z,536949.7,NULL,Konkurrent,mshindani,d,NA,NA,NA,NA,qt,NA,3,NA,NA,NA,NA,NA,NA,NA,NA,NA,NA,NA,NA,NA,NA,NA,NA,NA,NA,NA
31aa5,shallow,flow.Sequence,3_0_3_0_1_1,NA,NA,skipped,NA,536934.0999999,NA,NA,536932.8,536934.19999981,2024-03-09T06:47:23Z,536949.7,NULL,Konkurrent,mshindani,d,NA,NA,NA,NA,qt,NA,3,NA,NA,NA,NA,NA,NA,NA,NA,NA,NA,NA,NA,NA,NA,NA,NA,NA,NA,NA
31aa5,task,flow.Sequence,3_0_3_0_1,NA,NA,completion,14916.5,522004.9000001,521999.6,522016.3,536932.8,536934.29999971,2024-03-09T06:47:23Z,536949.7,NULL,Konkurrent,mshindani,d,NA,NA,NA,NA,qt,NA,3,NA,NA,NA,NA,NA,NA,NA,NA,NA,NA,NA,NA,NA,NA,NA,NA,NA,NA,NA
31aa5,Deep Question,html.Page,3_0_3_0_2_0_0,NA,NA,form submission,10670.700000095,536934.4000001,536932.8,536949.7,547620.4000001,547620.5,2024-03-09T06:47:33Z,547632.8,NULL,System,maongozi,d,NA,NA,NA,keolezgo,NA,NA,3,NA,NA,NA,NA,NA,NA,NA,NA,NA,NA,NA,NA,NA,NA,NA,NA,NA,NA,NA
31aa5,"""Richtig""-Screen",canvas.Screen,3_0_3_0_2_0_1,NA,NA,skipped,NA,547622.19999981,NA,NA,547620.4000001,547622.29999971,2024-03-09T06:47:33Z,547632.8,NULL,System,maongozi,d,NA,NA,NA,NA,qt,NA,3,NA,NA,NA,NA,NA,NA,NA,NA,NA,NA,NA,NA,NA,NA,NA,NA,NA,NA,NA
31aa5,"""Falsch""-Screen",canvas.Screen,3_0_3_0_2_0_2,NA,NA,timeout,5000,547622.79999971,547616.4,547632.8,552616.2,552617.19999981,2024-03-09T06:47:38Z,552632.8,NULL,System,maongozi,d,NA,NA,NA,NA,qt,0,3,NA,NA,NA,NA,NA,NA,NA,NA,NA,NA,NA,NA,NA,NA,NA,NA,NA,NA,NA
31aa5,deep,flow.Sequence,3_0_3_0_2_0,NA,NA,completion,15666.5,536934.4000001,536932.8,536949.7,552616.2,552617.5,2024-03-09T06:47:38Z,552632.8,NULL,System,maongozi,d,NA,NA,NA,NA,qt,NA,3,NA,NA,NA,NA,NA,NA,NA,NA,NA,NA,NA,NA,NA,NA,NA,NA,NA,NA,NA
31aa5,shallow,flow.Sequence,3_0_3_0_2_1,NA,NA,skipped,NA,552617.5,NA,NA,552616.2,552617.69999981,2024-03-09T06:47:38Z,552632.8,NULL,System,maongozi,d,NA,NA,NA,NA,qt,NA,3,NA,NA,NA,NA,NA,NA,NA,NA,NA,NA,NA,NA,NA,NA,NA,NA,NA,NA,NA
31aa5,task,flow.Sequence,3_0_3_0_2,NA,NA,completion,15666.5,536934.4000001,536932.8,536949.7,552616.2,552617.69999981,2024-03-09T06:47:38Z,552632.8,NULL,System,maongozi,d,NA,NA,NA,NA,qt,NA,3,NA,NA,NA,NA,NA,NA,NA,NA,NA,NA,NA,NA,NA,NA,NA,NA,NA,NA,NA
31aa5,deep,flow.Sequence,3_0_3_0_3_0,NA,NA,skipped,NA,552617.9000001,NA,NA,552616.2,552617.9000001,2024-03-09T06:47:38Z,552632.8,NULL,Körper,kiwiliwili,s,mapambano,mpatanishi,kiolezo,NA,qt,NA,3,NA,NA,NA,NA,NA,NA,NA,NA,NA,NA,NA,NA,NA,NA,NA,NA,NA,NA,NA
31aa5,Shallow Question,html.Page,3_0_3_0_3_1_0,NA,NA,form submission,5786.6000000953,552618.0999999,552616.2,552632.8,558419.4000001,558419.5999999,2024-03-09T06:47:44Z,558432.8,NULL,Körper,kiwiliwili,s,mapambano,mpatanishi,kiolezo,kiwiliwili,NA,NA,3,NA,NA,NA,NA,NA,NA,NA,NA,NA,NA,NA,NA,NA,NA,NA,NA,NA,NA,NA
31aa5,"""Richtig""-Screen",canvas.Screen,3_0_3_0_3_1_1,NA,NA,timeout,5000,558421.29999971,558416.358,558432.8,563416.3,563417,2024-03-09T06:47:49Z,563432.8,NULL,Körper,kiwiliwili,s,mapambano,mpatanishi,kiolezo,NA,qt,1,3,NA,NA,NA,NA,NA,NA,NA,NA,NA,NA,NA,NA,NA,NA,NA,NA,NA,NA,NA
31aa5,"""Falsch""-Screen",canvas.Screen,3_0_3_0_3_1_2,NA,NA,skipped,NA,563420.79999971,NA,NA,563416.3,563421,2024-03-09T06:47:49Z,563432.8,NULL,Körper,kiwiliwili,s,mapambano,mpatanishi,kiolezo,NA,qt,NA,3,NA,NA,NA,NA,NA,NA,NA,NA,NA,NA,NA,NA,NA,NA,NA,NA,NA,NA,NA
31aa5,shallow,flow.Sequence,3_0_3_0_3_1,NA,NA,completion,10783.5,552618,552616.2,552632.8,563416.3,563421.19999981,2024-03-09T06:47:49Z,563432.8,NULL,Körper,kiwiliwili,s,mapambano,mpatanishi,kiolezo,NA,qt,NA,3,NA,NA,NA,NA,NA,NA,NA,NA,NA,NA,NA,NA,NA,NA,NA,NA,NA,NA,NA
31aa5,task,flow.Sequence,3_0_3_0_3,NA,NA,completion,10783.5,552617.79999971,552616.2,552632.8,563416.3,563421.29999971,2024-03-09T06:47:49Z,563432.8,NULL,Körper,kiwiliwili,s,mapambano,mpatanishi,kiolezo,NA,qt,NA,3,NA,NA,NA,NA,NA,NA,NA,NA,NA,NA,NA,NA,NA,NA,NA,NA,NA,NA,NA
31aa5,deep,flow.Sequence,3_0_3_0_4_0,NA,NA,skipped,NA,563421.5,NA,NA,563416.3,563421.5,2024-03-09T06:47:49Z,563432.8,NULL,Symbol,kielezo,s,kinyume,nderemo,utayari,NA,qt,NA,3,NA,NA,NA,NA,NA,NA,NA,NA,NA,NA,NA,NA,NA,NA,NA,NA,NA,NA,NA
31aa5,Shallow Question,html.Page,3_0_3_0_4_1_0,NA,NA,form submission,4305.6000000953,563421.5999999,563416.3,563432.8,567738.4000001,567738.5999999,2024-03-09T06:47:54Z,567749.5,NULL,Symbol,kielezo,s,kinyume,nderemo,utayari,kielezo,NA,NA,3,NA,NA,NA,NA,NA,NA,NA,NA,NA,NA,NA,NA,NA,NA,NA,NA,NA,NA,NA
31aa5,"""Richtig""-Screen",canvas.Screen,3_0_3_0_4_1_1,NA,NA,timeout,5000,567740.0999999,567733.016,567749.5,572733,572733.9000001,2024-03-09T06:47:59Z,572749.5,NULL,Symbol,kielezo,s,kinyume,nderemo,utayari,NA,qt,1,3,NA,NA,NA,NA,NA,NA,NA,NA,NA,NA,NA,NA,NA,NA,NA,NA,NA,NA,NA
31aa5,"""Falsch""-Screen",canvas.Screen,3_0_3_0_4_1_2,NA,NA,skipped,NA,572737.79999971,NA,NA,572733,572738,2024-03-09T06:47:59Z,572749.5,NULL,Symbol,kielezo,s,kinyume,nderemo,utayari,NA,qt,NA,3,NA,NA,NA,NA,NA,NA,NA,NA,NA,NA,NA,NA,NA,NA,NA,NA,NA,NA,NA
31aa5,shallow,flow.Sequence,3_0_3_0_4_1,NA,NA,completion,9300.2,563421.5999999,563416.3,563432.8,572733,572738.19999981,2024-03-09T06:47:59Z,572749.5,NULL,Symbol,kielezo,s,kinyume,nderemo,utayari,NA,qt,NA,3,NA,NA,NA,NA,NA,NA,NA,NA,NA,NA,NA,NA,NA,NA,NA,NA,NA,NA,NA
31aa5,task,flow.Sequence,3_0_3_0_4,NA,NA,completion,9300.2,563421.5,563416.3,563432.8,572733,572738.4000001,2024-03-09T06:47:59Z,572749.5,NULL,Symbol,kielezo,s,kinyume,nderemo,utayari,NA,qt,NA,3,NA,NA,NA,NA,NA,NA,NA,NA,NA,NA,NA,NA,NA,NA,NA,NA,NA,NA,NA
31aa5,deep,flow.Sequence,3_0_3_0_5_0,NA,NA,skipped,NA,572738.5,NA,NA,572733,572738.5999999,2024-03-09T06:47:59Z,572749.5,NULL,Zuwachs,nyongeza,s,matilaba,udhibiti,hudhurio,NA,qt,NA,3,NA,NA,NA,NA,NA,NA,NA,NA,NA,NA,NA,NA,NA,NA,NA,NA,NA,NA,NA
31aa5,Shallow Question,html.Page,3_0_3_0_5_1_0,NA,NA,form submission,5213.9000000954,572738.69999981,572733,572749.5,577963.4000001,577963.5999999,2024-03-09T06:48:04Z,577966.1,NULL,Zuwachs,nyongeza,s,matilaba,udhibiti,hudhurio,nyongeza,NA,NA,3,NA,NA,NA,NA,NA,NA,NA,NA,NA,NA,NA,NA,NA,NA,NA,NA,NA,NA,NA
31aa5,"""Richtig""-Screen",canvas.Screen,3_0_3_0_5_1_1,NA,NA,timeout,5000.1,577965.0999999,577949.638,577966.1,582949.6,582950.29999971,2024-03-09T06:48:09Z,582966.2,NULL,Zuwachs,nyongeza,s,matilaba,udhibiti,hudhurio,NA,qt,1,3,NA,NA,NA,NA,NA,NA,NA,NA,NA,NA,NA,NA,NA,NA,NA,NA,NA,NA,NA
31aa5,"""Falsch""-Screen",canvas.Screen,3_0_3_0_5_1_2,NA,NA,skipped,NA,582954.0999999,NA,NA,582949.6,582954.4000001,2024-03-09T06:48:09Z,582966.2,NULL,Zuwachs,nyongeza,s,matilaba,udhibiti,hudhurio,NA,qt,NA,3,NA,NA,NA,NA,NA,NA,NA,NA,NA,NA,NA,NA,NA,NA,NA,NA,NA,NA,NA
31aa5,shallow,flow.Sequence,3_0_3_0_5_1,NA,NA,completion,10200.1,572738.5999999,572733,572749.5,582949.6,582954.5,2024-03-09T06:48:09Z,582966.2,NULL,Zuwachs,nyongeza,s,matilaba,udhibiti,hudhurio,NA,qt,NA,3,NA,NA,NA,NA,NA,NA,NA,NA,NA,NA,NA,NA,NA,NA,NA,NA,NA,NA,NA
31aa5,task,flow.Sequence,3_0_3_0_5,NA,NA,completion,10200.1,572738.5,572733,572749.5,582949.6,582954.69999981,2024-03-09T06:48:09Z,582966.2,NULL,Zuwachs,nyongeza,s,matilaba,udhibiti,hudhurio,NA,qt,NA,3,NA,NA,NA,NA,NA,NA,NA,NA,NA,NA,NA,NA,NA,NA,NA,NA,NA,NA,NA
31aa5,Deep Question,html.Page,3_0_3_0_6_0_0,NA,NA,form submission,6791.2000000954,582954.79999971,582949.6,582966.2,589757.4000001,589757.69999981,2024-03-09T06:48:16Z,589766.1,NULL,Lawine,banguko,d,NA,NA,NA,thadili,NA,NA,3,NA,NA,NA,NA,NA,NA,NA,NA,NA,NA,NA,NA,NA,NA,NA,NA,NA,NA,NA
31aa5,"""Richtig""-Screen",canvas.Screen,3_0_3_0_6_0_1,NA,NA,skipped,NA,589759.29999971,NA,NA,589757.4000001,589759.4000001,2024-03-09T06:48:16Z,589766.1,NULL,Lawine,banguko,d,NA,NA,NA,NA,qt,NA,3,NA,NA,NA,NA,NA,NA,NA,NA,NA,NA,NA,NA,NA,NA,NA,NA,NA,NA,NA
31aa5,"""Falsch""-Screen",canvas.Screen,3_0_3_0_6_0_2,NA,NA,timeout,5000.2000000001,589759.9000001,589749.546,589766.1,594749.6,594750.29999971,2024-03-09T06:48:21Z,594766.3,NULL,Lawine,banguko,d,NA,NA,NA,NA,qt,0,3,NA,NA,NA,NA,NA,NA,NA,NA,NA,NA,NA,NA,NA,NA,NA,NA,NA,NA,NA
31aa5,deep,flow.Sequence,3_0_3_0_6_0,NA,NA,completion,11783.4,582954.79999971,582949.6,582966.2,594749.6,594750.69999981,2024-03-09T06:48:21Z,594766.3,NULL,Lawine,banguko,d,NA,NA,NA,NA,qt,NA,3,NA,NA,NA,NA,NA,NA,NA,NA,NA,NA,NA,NA,NA,NA,NA,NA,NA,NA,NA
31aa5,shallow,flow.Sequence,3_0_3_0_6_1,NA,NA,skipped,NA,594750.69999981,NA,NA,594749.6,594750.79999971,2024-03-09T06:48:21Z,594766.3,NULL,Lawine,banguko,d,NA,NA,NA,NA,qt,NA,3,NA,NA,NA,NA,NA,NA,NA,NA,NA,NA,NA,NA,NA,NA,NA,NA,NA,NA,NA
31aa5,task,flow.Sequence,3_0_3_0_6,NA,NA,completion,11783.4,582954.79999971,582949.6,582966.2,594749.6,594750.9000001,2024-03-09T06:48:21Z,594766.3,NULL,Lawine,banguko,d,NA,NA,NA,NA,qt,NA,3,NA,NA,NA,NA,NA,NA,NA,NA,NA,NA,NA,NA,NA,NA,NA,NA,NA,NA,NA
31aa5,Deep Question,html.Page,3_0_3_0_7_0_0,NA,NA,form submission,3038.9999997139,594751,594749.6,594766.3,597805.29999971,597805.5,2024-03-09T06:48:24Z,597816.2,NULL,Vorsorge,tahadhari,d,NA,NA,NA,gg,NA,NA,3,NA,NA,NA,NA,NA,NA,NA,NA,NA,NA,NA,NA,NA,NA,NA,NA,NA,NA,NA
31aa5,"""Richtig""-Screen",canvas.Screen,3_0_3_0_7_0_1,NA,NA,skipped,NA,597807.19999981,NA,NA,597805.29999971,597807.19999981,2024-03-09T06:48:24Z,597816.2,NULL,Vorsorge,tahadhari,d,NA,NA,NA,NA,qt,NA,3,NA,NA,NA,NA,NA,NA,NA,NA,NA,NA,NA,NA,NA,NA,NA,NA,NA,NA,NA
31aa5,"""Falsch""-Screen",canvas.Screen,3_0_3_0_7_0_2,NA,NA,timeout,5000,597807.69999981,597799.842,597816.2,602799.6,602800.29999971,2024-03-09T06:48:29Z,602816.2,NULL,Vorsorge,tahadhari,d,NA,NA,NA,NA,qt,0,3,NA,NA,NA,NA,NA,NA,NA,NA,NA,NA,NA,NA,NA,NA,NA,NA,NA,NA,NA
31aa5,deep,flow.Sequence,3_0_3_0_7_0,NA,NA,completion,8033.2999999999,594751,594749.6,594766.3,602799.6,602800.69999981,2024-03-09T06:48:29Z,602816.2,NULL,Vorsorge,tahadhari,d,NA,NA,NA,NA,qt,NA,3,NA,NA,NA,NA,NA,NA,NA,NA,NA,NA,NA,NA,NA,NA,NA,NA,NA,NA,NA
31aa5,shallow,flow.Sequence,3_0_3_0_7_1,NA,NA,skipped,NA,602800.79999971,NA,NA,602799.6,602800.79999971,2024-03-09T06:48:29Z,602816.2,NULL,Vorsorge,tahadhari,d,NA,NA,NA,NA,qt,NA,3,NA,NA,NA,NA,NA,NA,NA,NA,NA,NA,NA,NA,NA,NA,NA,NA,NA,NA,NA
31aa5,task,flow.Sequence,3_0_3_0_7,NA,NA,completion,8033.2999999999,594751,594749.6,594766.3,602799.6,602801,2024-03-09T06:48:29Z,602816.2,NULL,Vorsorge,tahadhari,d,NA,NA,NA,NA,qt,NA,3,NA,NA,NA,NA,NA,NA,NA,NA,NA,NA,NA,NA,NA,NA,NA,NA,NA,NA,NA
31aa5,block,flow.Loop,3_0_3_0,NA,NA,completion,91316.544,511490.79999971,511483.056,511483.056,602799.6,602801.0999999,2024-03-09T06:48:29Z,602816.2,NULL,NA,NA,NA,NA,NA,NA,NA,qt,NA,3,NA,NA,NA,NA,NA,NA,NA,NA,NA,NA,NA,NA,NA,NA,NA,NA,NA,NA,NA
31aa5,weiter,canvas.Screen,3_0_3_1,sdf,keypress(Space),response,1113.3999999047,602801.0999999,602799.6,602816.2,603929.5999999,603930.4000001,2024-03-09T06:48:30Z,603982.8,NULL,NA,NA,NA,NA,NA,NA,NA,qt,NA,3,NA,NA,NA,NA,NA,NA,NA,NA,NA,NA,NA,NA,NA,NA,NA,NA,NA,NA,NA
31aa5,check continue,flow.Sequence,3_0_3,NA,NA,completion,92446.543999905,511490.69999981,511483.056,511483.056,603929.5999999,603930.79999971,2024-03-09T06:48:30Z,603982.8,NULL,NA,NA,NA,NA,NA,NA,NA,qt,NA,3,NA,NA,NA,NA,NA,NA,NA,NA,NA,NA,NA,NA,NA,NA,NA,NA,NA,NA,NA
31aa5,Deep Question,html.Page,3_0_4_0_0_0_0,NA,NA,form submission,10168.399999809,603967.19999981,603966.3,603982.8,614151.19999981,614151.5,2024-03-09T06:48:40Z,614166.1,NULL,System,maongozi,d,NA,NA,NA,keilezgo,NA,NA,4,NA,NA,NA,NA,NA,NA,NA,NA,NA,NA,NA,NA,NA,NA,NA,NA,NA,NA,NA
31aa5,"""Richtig""-Screen",canvas.Screen,3_0_4_0_0_0_1,NA,NA,skipped,NA,614153.0999999,NA,NA,614151.19999981,614153.29999971,2024-03-09T06:48:40Z,614166.1,NULL,System,maongozi,d,NA,NA,NA,NA,sd,NA,4,NA,NA,NA,NA,NA,NA,NA,NA,NA,NA,NA,NA,NA,NA,NA,NA,NA,NA,NA
31aa5,"""Falsch""-Screen",canvas.Screen,3_0_4_0_0_0_2,NA,NA,timeout,5000.1,614154,614149.5,614166.1,619149.5,619150.19999981,2024-03-09T06:48:45Z,619166.2,NULL,System,maongozi,d,NA,NA,NA,NA,sd,0,4,NA,NA,NA,NA,NA,NA,NA,NA,NA,NA,NA,NA,NA,NA,NA,NA,NA,NA,NA
31aa5,deep,flow.Sequence,3_0_4_0_0_0,NA,NA,completion,15166.7,603966.9000001,603966.3,603982.8,619149.5,619150.5,2024-03-09T06:48:45Z,619166.2,NULL,System,maongozi,d,NA,NA,NA,NA,sd,NA,4,NA,NA,NA,NA,NA,NA,NA,NA,NA,NA,NA,NA,NA,NA,NA,NA,NA,NA,NA
31aa5,shallow,flow.Sequence,3_0_4_0_0_1,NA,NA,skipped,NA,619150.5999999,NA,NA,619149.5,619150.69999981,2024-03-09T06:48:45Z,619166.2,NULL,System,maongozi,d,NA,NA,NA,NA,sd,NA,4,NA,NA,NA,NA,NA,NA,NA,NA,NA,NA,NA,NA,NA,NA,NA,NA,NA,NA,NA
31aa5,task,flow.Sequence,3_0_4_0_0,NA,NA,completion,15166.7,603966.9000001,603966.3,603982.8,619149.5,619150.79999971,2024-03-09T06:48:45Z,619166.2,NULL,System,maongozi,d,NA,NA,NA,NA,sd,NA,4,NA,NA,NA,NA,NA,NA,NA,NA,NA,NA,NA,NA,NA,NA,NA,NA,NA,NA,NA
31aa5,Deep Question,html.Page,3_0_4_0_1_0_0,NA,NA,form submission,4585.3,619150.9000001,619149.5,619166.2,623751.5,623751.5999999,2024-03-09T06:48:50Z,623766.1,NULL,Vorsorge,tahadhari,d,NA,NA,NA,gg,NA,NA,4,NA,NA,NA,NA,NA,NA,NA,NA,NA,NA,NA,NA,NA,NA,NA,NA,NA,NA,NA
31aa5,"""Richtig""-Screen",canvas.Screen,3_0_4_0_1_0_1,NA,NA,skipped,NA,623753.19999981,NA,NA,623751.5,623753.5,2024-03-09T06:48:50Z,623766.1,NULL,Vorsorge,tahadhari,d,NA,NA,NA,NA,sd,NA,4,NA,NA,NA,NA,NA,NA,NA,NA,NA,NA,NA,NA,NA,NA,NA,NA,NA,NA,NA
31aa5,"""Falsch""-Screen",canvas.Screen,3_0_4_0_1_0_2,NA,NA,timeout,5000.1,623753.9000001,623749.656,623766.1,628749.6,628750.29999971,2024-03-09T06:48:55Z,628766.2,NULL,Vorsorge,tahadhari,d,NA,NA,NA,NA,sd,0,4,NA,NA,NA,NA,NA,NA,NA,NA,NA,NA,NA,NA,NA,NA,NA,NA,NA,NA,NA
31aa5,deep,flow.Sequence,3_0_4_0_1_0,NA,NA,completion,9583.4,619150.9000001,619149.5,619166.2,628749.6,628750.5999999,2024-03-09T06:48:55Z,628766.2,NULL,Vorsorge,tahadhari,d,NA,NA,NA,NA,sd,NA,4,NA,NA,NA,NA,NA,NA,NA,NA,NA,NA,NA,NA,NA,NA,NA,NA,NA,NA,NA
31aa5,shallow,flow.Sequence,3_0_4_0_1_1,NA,NA,skipped,NA,628750.5999999,NA,NA,628749.6,628750.69999981,2024-03-09T06:48:55Z,628766.2,NULL,Vorsorge,tahadhari,d,NA,NA,NA,NA,sd,NA,4,NA,NA,NA,NA,NA,NA,NA,NA,NA,NA,NA,NA,NA,NA,NA,NA,NA,NA,NA
31aa5,task,flow.Sequence,3_0_4_0_1,NA,NA,completion,9583.4,619150.79999971,619149.5,619166.2,628749.6,628750.9000001,2024-03-09T06:48:55Z,628766.2,NULL,Vorsorge,tahadhari,d,NA,NA,NA,NA,sd,NA,4,NA,NA,NA,NA,NA,NA,NA,NA,NA,NA,NA,NA,NA,NA,NA,NA,NA,NA,NA
31aa5,Deep Question,html.Page,3_0_4_0_2_0_0,NA,NA,form submission,11933.3,628750.9000001,628749.6,628766.2,640699.5,640699.5999999,2024-03-09T06:49:07Z,640716.5,NULL,Konkurrent,mshindani,d,NA,NA,NA,mandhari,NA,NA,4,NA,NA,NA,NA,NA,NA,NA,NA,NA,NA,NA,NA,NA,NA,NA,NA,NA,NA,NA
31aa5,"""Richtig""-Screen",canvas.Screen,3_0_4_0_2_0_1,NA,NA,skipped,NA,640701.29999971,NA,NA,640699.5,640701.4000001,2024-03-09T06:49:07Z,640716.5,NULL,Konkurrent,mshindani,d,NA,NA,NA,NA,sd,NA,4,NA,NA,NA,NA,NA,NA,NA,NA,NA,NA,NA,NA,NA,NA,NA,NA,NA,NA,NA
31aa5,"""Falsch""-Screen",canvas.Screen,3_0_4_0_2_0_2,NA,NA,timeout,4999.7,640702,640699.6,640716.5,645699.5,645700.29999971,2024-03-09T06:49:12Z,645716.2,NULL,Konkurrent,mshindani,d,NA,NA,NA,NA,sd,0,4,NA,NA,NA,NA,NA,NA,NA,NA,NA,NA,NA,NA,NA,NA,NA,NA,NA,NA,NA
31aa5,deep,flow.Sequence,3_0_4_0_2_0,NA,NA,completion,16933.3,628750.9000001,628749.6,628766.2,645699.5,645700.5999999,2024-03-09T06:49:12Z,645716.2,NULL,Konkurrent,mshindani,d,NA,NA,NA,NA,sd,NA,4,NA,NA,NA,NA,NA,NA,NA,NA,NA,NA,NA,NA,NA,NA,NA,NA,NA,NA,NA
31aa5,shallow,flow.Sequence,3_0_4_0_2_1,NA,NA,skipped,NA,645700.69999981,NA,NA,645699.5,645700.79999971,2024-03-09T06:49:12Z,645716.2,NULL,Konkurrent,mshindani,d,NA,NA,NA,NA,sd,NA,4,NA,NA,NA,NA,NA,NA,NA,NA,NA,NA,NA,NA,NA,NA,NA,NA,NA,NA,NA
31aa5,task,flow.Sequence,3_0_4_0_2,NA,NA,completion,16933.3,628750.9000001,628749.6,628766.2,645699.5,645700.9000001,2024-03-09T06:49:12Z,645716.2,NULL,Konkurrent,mshindani,d,NA,NA,NA,NA,sd,NA,4,NA,NA,NA,NA,NA,NA,NA,NA,NA,NA,NA,NA,NA,NA,NA,NA,NA,NA,NA
31aa5,deep,flow.Sequence,3_0_4_0_3_0,NA,NA,skipped,NA,645701,NA,NA,645699.5,645701,2024-03-09T06:49:12Z,645716.2,NULL,Symbol,kielezo,s,kinyume,nderemo,utayari,NA,sd,NA,4,NA,NA,NA,NA,NA,NA,NA,NA,NA,NA,NA,NA,NA,NA,NA,NA,NA,NA,NA
31aa5,Shallow Question,html.Page,3_0_4_0_3_1_0,NA,NA,form submission,5037.9999998093,645701.19999981,645699.5,645716.2,650754.19999981,650754.4000001,2024-03-09T06:49:17Z,650766.1,NULL,Symbol,kielezo,s,kinyume,nderemo,utayari,kielezo,NA,NA,4,NA,NA,NA,NA,NA,NA,NA,NA,NA,NA,NA,NA,NA,NA,NA,NA,NA,NA,NA
31aa5,"""Richtig""-Screen",canvas.Screen,3_0_4_0_3_1_1,NA,NA,timeout,5000.1,650756.0999999,650749.558,650766.1,655749.4,655750.29999971,2024-03-09T06:49:22Z,655766.2,NULL,Symbol,kielezo,s,kinyume,nderemo,utayari,NA,sd,1,4,NA,NA,NA,NA,NA,NA,NA,NA,NA,NA,NA,NA,NA,NA,NA,NA,NA,NA,NA
31aa5,"""Falsch""-Screen",canvas.Screen,3_0_4_0_3_1_2,NA,NA,skipped,NA,655754.4000001,NA,NA,655749.4,655754.69999981,2024-03-09T06:49:22Z,655766.2,NULL,Symbol,kielezo,s,kinyume,nderemo,utayari,NA,sd,NA,4,NA,NA,NA,NA,NA,NA,NA,NA,NA,NA,NA,NA,NA,NA,NA,NA,NA,NA,NA
31aa5,shallow,flow.Sequence,3_0_4_0_3_1,NA,NA,completion,10033.2,645701.0999999,645699.5,645716.2,655749.4,655754.9000001,2024-03-09T06:49:22Z,655766.2,NULL,Symbol,kielezo,s,kinyume,nderemo,utayari,NA,sd,NA,4,NA,NA,NA,NA,NA,NA,NA,NA,NA,NA,NA,NA,NA,NA,NA,NA,NA,NA,NA
31aa5,task,flow.Sequence,3_0_4_0_3,NA,NA,completion,10033.2,645701,645699.5,645716.2,655749.4,655755,2024-03-09T06:49:22Z,655766.2,NULL,Symbol,kielezo,s,kinyume,nderemo,utayari,NA,sd,NA,4,NA,NA,NA,NA,NA,NA,NA,NA,NA,NA,NA,NA,NA,NA,NA,NA,NA,NA,NA
31aa5,Deep Question,html.Page,3_0_4_0_4_0_0,NA,NA,form submission,9307.9999998093,655755.0999999,655749.4,655766.2,665074.19999981,665074.4000001,2024-03-09T06:49:31Z,665082.7,NULL,Lawine,banguko,d,NA,NA,NA,bankugo,NA,NA,4,NA,NA,NA,NA,NA,NA,NA,NA,NA,NA,NA,NA,NA,NA,NA,NA,NA,NA,NA
31aa5,"""Richtig""-Screen",canvas.Screen,3_0_4_0_4_0_1,NA,NA,skipped,NA,665076.0999999,NA,NA,665074.19999981,665076.29999971,2024-03-09T06:49:31Z,665082.7,NULL,Lawine,banguko,d,NA,NA,NA,NA,sd,NA,4,NA,NA,NA,NA,NA,NA,NA,NA,NA,NA,NA,NA,NA,NA,NA,NA,NA,NA,NA
31aa5,"""Falsch""-Screen",canvas.Screen,3_0_4_0_4_0_2,NA,NA,timeout,5000.2000000001,665076.69999981,665072.5,665082.7,670066.2,670066.9000001,2024-03-09T06:49:36Z,670082.9,NULL,Lawine,banguko,d,NA,NA,NA,NA,sd,0,4,NA,NA,NA,NA,NA,NA,NA,NA,NA,NA,NA,NA,NA,NA,NA,NA,NA,NA,NA
31aa5,deep,flow.Sequence,3_0_4_0_4_0,NA,NA,completion,14300,655755.0999999,655749.4,655766.2,670066.2,670067.19999981,2024-03-09T06:49:36Z,670082.9,NULL,Lawine,banguko,d,NA,NA,NA,NA,sd,NA,4,NA,NA,NA,NA,NA,NA,NA,NA,NA,NA,NA,NA,NA,NA,NA,NA,NA,NA,NA
31aa5,shallow,flow.Sequence,3_0_4_0_4_1,NA,NA,skipped,NA,670067.29999971,NA,NA,670066.2,670067.29999971,2024-03-09T06:49:36Z,670082.9,NULL,Lawine,banguko,d,NA,NA,NA,NA,sd,NA,4,NA,NA,NA,NA,NA,NA,NA,NA,NA,NA,NA,NA,NA,NA,NA,NA,NA,NA,NA
31aa5,task,flow.Sequence,3_0_4_0_4,NA,NA,completion,14300,655755.0999999,655749.4,655766.2,670066.2,670067.5,2024-03-09T06:49:36Z,670082.9,NULL,Lawine,banguko,d,NA,NA,NA,NA,sd,NA,4,NA,NA,NA,NA,NA,NA,NA,NA,NA,NA,NA,NA,NA,NA,NA,NA,NA,NA,NA
31aa5,deep,flow.Sequence,3_0_4_0_5_0,NA,NA,skipped,NA,670067.5999999,NA,NA,670066.2,670067.5999999,2024-03-09T06:49:36Z,670082.9,NULL,Zuwachs,nyongeza,s,matilaba,udhibiti,hudhurio,NA,sd,NA,4,NA,NA,NA,NA,NA,NA,NA,NA,NA,NA,NA,NA,NA,NA,NA,NA,NA,NA,NA
31aa5,Shallow Question,html.Page,3_0_4_0_5_1_0,NA,NA,form submission,5237.3999997139,670067.69999981,670066.2,670082.9,675320.29999971,675320.5,2024-03-09T06:49:41Z,675332.8,NULL,Zuwachs,nyongeza,s,matilaba,udhibiti,hudhurio,nyongeza,NA,NA,4,NA,NA,NA,NA,NA,NA,NA,NA,NA,NA,NA,NA,NA,NA,NA,NA,NA,NA,NA
31aa5,"""Richtig""-Screen",canvas.Screen,3_0_4_0_5_1_1,NA,NA,timeout,5000,675322.0999999,675316.216,675332.8,680316.2,680317,2024-03-09T06:49:46Z,680332.8,NULL,Zuwachs,nyongeza,s,matilaba,udhibiti,hudhurio,NA,sd,1,4,NA,NA,NA,NA,NA,NA,NA,NA,NA,NA,NA,NA,NA,NA,NA,NA,NA,NA,NA
31aa5,"""Falsch""-Screen",canvas.Screen,3_0_4_0_5_1_2,NA,NA,skipped,NA,680320.9000001,NA,NA,680316.2,680321,2024-03-09T06:49:46Z,680332.8,NULL,Zuwachs,nyongeza,s,matilaba,udhibiti,hudhurio,NA,sd,NA,4,NA,NA,NA,NA,NA,NA,NA,NA,NA,NA,NA,NA,NA,NA,NA,NA,NA,NA,NA
31aa5,shallow,flow.Sequence,3_0_4_0_5_1,NA,NA,completion,10233.3,670067.69999981,670066.2,670082.9,680316.2,680321.29999971,2024-03-09T06:49:46Z,680332.8,NULL,Zuwachs,nyongeza,s,matilaba,udhibiti,hudhurio,NA,sd,NA,4,NA,NA,NA,NA,NA,NA,NA,NA,NA,NA,NA,NA,NA,NA,NA,NA,NA,NA,NA
31aa5,task,flow.Sequence,3_0_4_0_5,NA,NA,completion,10233.3,670067.5999999,670066.2,670082.9,680316.2,680321.29999971,2024-03-09T06:49:46Z,680332.8,NULL,Zuwachs,nyongeza,s,matilaba,udhibiti,hudhurio,NA,sd,NA,4,NA,NA,NA,NA,NA,NA,NA,NA,NA,NA,NA,NA,NA,NA,NA,NA,NA,NA,NA
31aa5,deep,flow.Sequence,3_0_4_0_6_0,NA,NA,skipped,NA,680321.5,NA,NA,680316.2,680321.5,2024-03-09T06:49:46Z,680332.8,NULL,Übersicht,kilindo,s,mgusano,chipukizi,kulinganisha,NA,sd,NA,4,NA,NA,NA,NA,NA,NA,NA,NA,NA,NA,NA,NA,NA,NA,NA,NA,NA,NA,NA
31aa5,Shallow Question,html.Page,3_0_4_0_6_1_0,NA,NA,form submission,5867.4999997139,680321.5999999,680316.2,680332.8,686200.29999971,686200.5999999,2024-03-09T06:49:52Z,686232.9,NULL,Übersicht,kilindo,s,mgusano,chipukizi,kulinganisha,kilindo,NA,NA,4,NA,NA,NA,NA,NA,NA,NA,NA,NA,NA,NA,NA,NA,NA,NA,NA,NA,NA,NA
31aa5,"""Richtig""-Screen",canvas.Screen,3_0_4_0_6_1_1,NA,NA,timeout,4999.9,686202.0999999,686216.296,686232.9,691216.1,691216.9000001,2024-03-09T06:49:57Z,691232.8,NULL,Übersicht,kilindo,s,mgusano,chipukizi,kulinganisha,NA,sd,1,4,NA,NA,NA,NA,NA,NA,NA,NA,NA,NA,NA,NA,NA,NA,NA,NA,NA,NA,NA
31aa5,"""Falsch""-Screen",canvas.Screen,3_0_4_0_6_1_2,NA,NA,skipped,NA,691220.69999981,NA,NA,691216.1,691220.9000001,2024-03-09T06:49:57Z,691232.8,NULL,Übersicht,kilindo,s,mgusano,chipukizi,kulinganisha,NA,sd,NA,4,NA,NA,NA,NA,NA,NA,NA,NA,NA,NA,NA,NA,NA,NA,NA,NA,NA,NA,NA
31aa5,shallow,flow.Sequence,3_0_4_0_6_1,NA,NA,completion,10883.3,680321.5999999,680316.2,680332.8,691216.1,691221.0999999,2024-03-09T06:49:57Z,691232.8,NULL,Übersicht,kilindo,s,mgusano,chipukizi,kulinganisha,NA,sd,NA,4,NA,NA,NA,NA,NA,NA,NA,NA,NA,NA,NA,NA,NA,NA,NA,NA,NA,NA,NA
31aa5,task,flow.Sequence,3_0_4_0_6,NA,NA,completion,10883.3,680321.4000001,680316.2,680332.8,691216.1,691221.19999981,2024-03-09T06:49:57Z,691232.8,NULL,Übersicht,kilindo,s,mgusano,chipukizi,kulinganisha,NA,sd,NA,4,NA,NA,NA,NA,NA,NA,NA,NA,NA,NA,NA,NA,NA,NA,NA,NA,NA,NA,NA
31aa5,deep,flow.Sequence,3_0_4_0_7_0,NA,NA,skipped,NA,691221.29999971,NA,NA,691216.1,691221.5,2024-03-09T06:49:57Z,691232.8,NULL,Körper,kiwiliwili,s,mapambano,mpatanishi,kiolezo,NA,sd,NA,4,NA,NA,NA,NA,NA,NA,NA,NA,NA,NA,NA,NA,NA,NA,NA,NA,NA,NA,NA
31aa5,Shallow Question,html.Page,3_0_4_0_7_1_0,NA,NA,form submission,6993.4999997139,691221.5,691216.1,691232.8,698226.29999971,698226.5,2024-03-09T06:50:04Z,698232.958,NULL,Körper,kiwiliwili,s,mapambano,mpatanishi,kiolezo,kiwiliwili,NA,NA,4,NA,NA,NA,NA,NA,NA,NA,NA,NA,NA,NA,NA,NA,NA,NA,NA,NA,NA,NA
31aa5,"""Richtig""-Screen",canvas.Screen,3_0_4_0_7_1_1,NA,NA,timeout,4999.742,698228.19999981,698232.958,698232.958,703216.1,703216.79999971,2024-03-09T06:50:09Z,703232.7,NULL,Körper,kiwiliwili,s,mapambano,mpatanishi,kiolezo,NA,sd,1,4,NA,NA,NA,NA,NA,NA,NA,NA,NA,NA,NA,NA,NA,NA,NA,NA,NA,NA,NA
31aa5,"""Falsch""-Screen",canvas.Screen,3_0_4_0_7_1_2,NA,NA,skipped,NA,703220.79999971,NA,NA,703216.1,703221,2024-03-09T06:50:09Z,703232.7,NULL,Körper,kiwiliwili,s,mapambano,mpatanishi,kiolezo,NA,sd,NA,4,NA,NA,NA,NA,NA,NA,NA,NA,NA,NA,NA,NA,NA,NA,NA,NA,NA,NA,NA
31aa5,shallow,flow.Sequence,3_0_4_0_7_1,NA,NA,completion,11983.3,691221.5,691216.1,691232.8,703216.1,703221.19999981,2024-03-09T06:50:09Z,703232.7,NULL,Körper,kiwiliwili,s,mapambano,mpatanishi,kiolezo,NA,sd,NA,4,NA,NA,NA,NA,NA,NA,NA,NA,NA,NA,NA,NA,NA,NA,NA,NA,NA,NA,NA
31aa5,task,flow.Sequence,3_0_4_0_7,NA,NA,completion,11983.3,691221.29999971,691216.1,691232.8,703216.1,703221.4000001,2024-03-09T06:50:09Z,703232.7,NULL,Körper,kiwiliwili,s,mapambano,mpatanishi,kiolezo,NA,sd,NA,4,NA,NA,NA,NA,NA,NA,NA,NA,NA,NA,NA,NA,NA,NA,NA,NA,NA,NA,NA
31aa5,block,flow.Loop,3_0_4_0,NA,NA,completion,99233.3,603966.9000001,603966.3,603982.8,703216.1,703221.5,2024-03-09T06:50:09Z,703232.7,NULL,NA,NA,NA,NA,NA,NA,NA,sd,NA,4,NA,NA,NA,NA,NA,NA,NA,NA,NA,NA,NA,NA,NA,NA,NA,NA,NA,NA,NA
31aa5,weiter,canvas.Screen,3_0_4_1,sdf,keypress(Space),response,1291.8,703221.5,703216.1,703232.7,704524.5,704525.29999971,2024-03-09T06:50:10Z,704549.454,NULL,NA,NA,NA,NA,NA,NA,NA,sd,NA,4,NA,NA,NA,NA,NA,NA,NA,NA,NA,NA,NA,NA,NA,NA,NA,NA,NA,NA,NA
31aa5,check continue,flow.Sequence,3_0_4,NA,NA,completion,100541.7,603966.9000001,603966.3,603982.8,704524.5,704525.5999999,2024-03-09T06:50:10Z,704549.454,NULL,NA,NA,NA,NA,NA,NA,NA,sd,NA,4,NA,NA,NA,NA,NA,NA,NA,NA,NA,NA,NA,NA,NA,NA,NA,NA,NA,NA,NA
31aa5,deep,flow.Sequence,3_0_5_0_0_0,NA,NA,skipped,NA,704559.9000001,NA,NA,704524.5,704559.9000001,2024-03-09T06:50:10Z,704549.454,NULL,Körper,kiwiliwili,s,mapambano,mpatanishi,kiolezo,NA,sdf,NA,5,NA,NA,NA,NA,NA,NA,NA,NA,NA,NA,NA,NA,NA,NA,NA,NA,NA,NA,NA
31aa5,Shallow Question,html.Page,3_0_5_0_0_1_0,NA,NA,form submission,3281.046,704560.0999999,704549.454,704549.454,707830.5,707830.5999999,2024-03-09T06:50:14Z,707832.6,NULL,Körper,kiwiliwili,s,mapambano,mpatanishi,kiolezo,kiwiliwili,NA,NA,5,NA,NA,NA,NA,NA,NA,NA,NA,NA,NA,NA,NA,NA,NA,NA,NA,NA,NA,NA
31aa5,"""Richtig""-Screen",canvas.Screen,3_0_5_0_0_1_1,NA,NA,timeout,5000.1,707831.29999971,707816.186,707832.6,712816.1,712817,2024-03-09T06:50:19Z,712832.7,NULL,Körper,kiwiliwili,s,mapambano,mpatanishi,kiolezo,NA,sdf,1,5,NA,NA,NA,NA,NA,NA,NA,NA,NA,NA,NA,NA,NA,NA,NA,NA,NA,NA,NA
31aa5,"""Falsch""-Screen",canvas.Screen,3_0_5_0_0_1_2,NA,NA,skipped,NA,712820.79999971,NA,NA,712816.1,712821,2024-03-09T06:50:19Z,712832.7,NULL,Körper,kiwiliwili,s,mapambano,mpatanishi,kiolezo,NA,sdf,NA,5,NA,NA,NA,NA,NA,NA,NA,NA,NA,NA,NA,NA,NA,NA,NA,NA,NA,NA,NA
31aa5,shallow,flow.Sequence,3_0_5_0_0_1,NA,NA,completion,8266.6459999999,704560.0999999,704549.454,704549.454,712816.1,712821.19999981,2024-03-09T06:50:19Z,712832.7,NULL,Körper,kiwiliwili,s,mapambano,mpatanishi,kiolezo,NA,sdf,NA,5,NA,NA,NA,NA,NA,NA,NA,NA,NA,NA,NA,NA,NA,NA,NA,NA,NA,NA,NA
31aa5,task,flow.Sequence,3_0_5_0_0,NA,NA,completion,8266.6459999999,704559.79999971,704549.454,704549.454,712816.1,712821.29999971,2024-03-09T06:50:19Z,712832.7,NULL,Körper,kiwiliwili,s,mapambano,mpatanishi,kiolezo,NA,sdf,NA,5,NA,NA,NA,NA,NA,NA,NA,NA,NA,NA,NA,NA,NA,NA,NA,NA,NA,NA,NA
31aa5,deep,flow.Sequence,3_0_5_0_1_0,NA,NA,skipped,NA,712821.5,NA,NA,712816.1,712821.5,2024-03-09T06:50:19Z,712832.7,NULL,Übersicht,kilindo,s,mgusano,chipukizi,kulinganisha,NA,sdf,NA,5,NA,NA,NA,NA,NA,NA,NA,NA,NA,NA,NA,NA,NA,NA,NA,NA,NA,NA,NA
31aa5,Shallow Question,html.Page,3_0_5_0_1_1_0,NA,NA,form submission,6146.7000000954,712821.5999999,712816.1,712832.7,718979.4000001,718979.5999999,2024-03-09T06:50:25Z,718982.6,NULL,Übersicht,kilindo,s,mgusano,chipukizi,kulinganisha,kilindo,NA,NA,5,NA,NA,NA,NA,NA,NA,NA,NA,NA,NA,NA,NA,NA,NA,NA,NA,NA,NA,NA
31aa5,"""Richtig""-Screen",canvas.Screen,3_0_5_0_1_1_1,NA,NA,timeout,5000.1,718981.0999999,718966.192,718982.6,723966.2,723966.9000001,2024-03-09T06:50:30Z,723982.7,NULL,Übersicht,kilindo,s,mgusano,chipukizi,kulinganisha,NA,sdf,1,5,NA,NA,NA,NA,NA,NA,NA,NA,NA,NA,NA,NA,NA,NA,NA,NA,NA,NA,NA
31aa5,"""Falsch""-Screen",canvas.Screen,3_0_5_0_1_1_2,NA,NA,skipped,NA,723970.69999981,NA,NA,723966.2,723970.9000001,2024-03-09T06:50:30Z,723982.7,NULL,Übersicht,kilindo,s,mgusano,chipukizi,kulinganisha,NA,sdf,NA,5,NA,NA,NA,NA,NA,NA,NA,NA,NA,NA,NA,NA,NA,NA,NA,NA,NA,NA,NA
31aa5,shallow,flow.Sequence,3_0_5_0_1_1,NA,NA,completion,11133.5,712821.5999999,712816.1,712832.7,723966.2,723971.19999981,2024-03-09T06:50:30Z,723982.7,NULL,Übersicht,kilindo,s,mgusano,chipukizi,kulinganisha,NA,sdf,NA,5,NA,NA,NA,NA,NA,NA,NA,NA,NA,NA,NA,NA,NA,NA,NA,NA,NA,NA,NA
31aa5,task,flow.Sequence,3_0_5_0_1,NA,NA,completion,11133.5,712821.29999971,712816.1,712832.7,723966.2,723971.29999971,2024-03-09T06:50:30Z,723982.7,NULL,Übersicht,kilindo,s,mgusano,chipukizi,kulinganisha,NA,sdf,NA,5,NA,NA,NA,NA,NA,NA,NA,NA,NA,NA,NA,NA,NA,NA,NA,NA,NA,NA,NA
31aa5,deep,flow.Sequence,3_0_5_0_2_0,NA,NA,skipped,NA,723971.4000001,NA,NA,723966.2,723971.5,2024-03-09T06:50:30Z,723982.7,NULL,Symbol,kielezo,s,kinyume,nderemo,utayari,NA,sdf,NA,5,NA,NA,NA,NA,NA,NA,NA,NA,NA,NA,NA,NA,NA,NA,NA,NA,NA,NA,NA
31aa5,Shallow Question,html.Page,3_0_5_0_2_1_0,NA,NA,form submission,5275.4999998093,723971.5999999,723966.2,723982.7,729258.19999981,729258.5,2024-03-09T06:50:35Z,729266.148,NULL,Symbol,kielezo,s,kinyume,nderemo,utayari,kielezo,NA,NA,5,NA,NA,NA,NA,NA,NA,NA,NA,NA,NA,NA,NA,NA,NA,NA,NA,NA,NA,NA
31aa5,"""Richtig""-Screen",canvas.Screen,3_0_5_0_2_1_1,NA,NA,timeout,5000.0519999999,729260,729266.148,729266.148,734249.4,734250.0999999,2024-03-09T06:50:40Z,734266.2,NULL,Symbol,kielezo,s,kinyume,nderemo,utayari,NA,sdf,1,5,NA,NA,NA,NA,NA,NA,NA,NA,NA,NA,NA,NA,NA,NA,NA,NA,NA,NA,NA
31aa5,"""Falsch""-Screen",canvas.Screen,3_0_5_0_2_1_2,NA,NA,skipped,NA,734254.0999999,NA,NA,734249.4,734254.4000001,2024-03-09T06:50:40Z,734266.2,NULL,Symbol,kielezo,s,kinyume,nderemo,utayari,NA,sdf,NA,5,NA,NA,NA,NA,NA,NA,NA,NA,NA,NA,NA,NA,NA,NA,NA,NA,NA,NA,NA
31aa5,shallow,flow.Sequence,3_0_5_0_2_1,NA,NA,completion,10266.7,723971.5999999,723966.2,723982.7,734249.4,734254.5999999,2024-03-09T06:50:40Z,734266.2,NULL,Symbol,kielezo,s,kinyume,nderemo,utayari,NA,sdf,NA,5,NA,NA,NA,NA,NA,NA,NA,NA,NA,NA,NA,NA,NA,NA,NA,NA,NA,NA,NA
31aa5,task,flow.Sequence,3_0_5_0_2,NA,NA,completion,10266.7,723971.4000001,723966.2,723982.7,734249.4,734254.69999981,2024-03-09T06:50:40Z,734266.2,NULL,Symbol,kielezo,s,kinyume,nderemo,utayari,NA,sdf,NA,5,NA,NA,NA,NA,NA,NA,NA,NA,NA,NA,NA,NA,NA,NA,NA,NA,NA,NA,NA
31aa5,Deep Question,html.Page,3_0_5_0_3_0_0,NA,NA,form submission,24527.700000095,734254.9000001,734249.4,734266.2,758793.9000001,758794.19999981,2024-03-09T06:51:05Z,758816.1,NULL,Konkurrent,mshindani,d,NA,NA,NA,mishigango,NA,NA,5,NA,NA,NA,NA,NA,NA,NA,NA,NA,NA,NA,NA,NA,NA,NA,NA,NA,NA,NA
31aa5,"""Richtig""-Screen",canvas.Screen,3_0_5_0_3_0_1,NA,NA,skipped,NA,758795.79999971,NA,NA,758793.9000001,758795.9000001,2024-03-09T06:51:05Z,758816.1,NULL,Konkurrent,mshindani,d,NA,NA,NA,NA,sdf,NA,5,NA,NA,NA,NA,NA,NA,NA,NA,NA,NA,NA,NA,NA,NA,NA,NA,NA,NA,NA
31aa5,"""Falsch""-Screen",canvas.Screen,3_0_5_0_3_0_2,NA,NA,timeout,4999.9,758796.5,758782.782,758816.1,763799.4,763800.0999999,2024-03-09T06:51:10Z,763816,NULL,Konkurrent,mshindani,d,NA,NA,NA,NA,sdf,0,5,NA,NA,NA,NA,NA,NA,NA,NA,NA,NA,NA,NA,NA,NA,NA,NA,NA,NA,NA
31aa5,deep,flow.Sequence,3_0_5_0_3_0,NA,NA,completion,29533.2,734254.9000001,734249.4,734266.2,763799.4,763800.4000001,2024-03-09T06:51:10Z,763816,NULL,Konkurrent,mshindani,d,NA,NA,NA,NA,sdf,NA,5,NA,NA,NA,NA,NA,NA,NA,NA,NA,NA,NA,NA,NA,NA,NA,NA,NA,NA,NA
31aa5,shallow,flow.Sequence,3_0_5_0_3_1,NA,NA,skipped,NA,763800.5,NA,NA,763799.4,763800.5999999,2024-03-09T06:51:10Z,763816,NULL,Konkurrent,mshindani,d,NA,NA,NA,NA,sdf,NA,5,NA,NA,NA,NA,NA,NA,NA,NA,NA,NA,NA,NA,NA,NA,NA,NA,NA,NA,NA
31aa5,task,flow.Sequence,3_0_5_0_3,NA,NA,completion,29533.2,734254.79999971,734249.4,734266.2,763799.4,763800.79999971,2024-03-09T06:51:10Z,763816,NULL,Konkurrent,mshindani,d,NA,NA,NA,NA,sdf,NA,5,NA,NA,NA,NA,NA,NA,NA,NA,NA,NA,NA,NA,NA,NA,NA,NA,NA,NA,NA
31aa5,deep,flow.Sequence,3_0_5_0_4_0,NA,NA,skipped,NA,763800.9000001,NA,NA,763799.4,763801,2024-03-09T06:51:10Z,763816,NULL,Zuwachs,nyongeza,s,matilaba,udhibiti,hudhurio,NA,sdf,NA,5,NA,NA,NA,NA,NA,NA,NA,NA,NA,NA,NA,NA,NA,NA,NA,NA,NA,NA,NA
31aa5,Shallow Question,html.Page,3_0_5_0_4_1_0,NA,NA,form submission,5050.1999998093,763801,763799.4,763816,768866.19999981,768866.4000001,2024-03-09T06:51:15Z,768883.3,NULL,Zuwachs,nyongeza,s,matilaba,udhibiti,hudhurio,nyongeza,NA,NA,5,NA,NA,NA,NA,NA,NA,NA,NA,NA,NA,NA,NA,NA,NA,NA,NA,NA,NA,NA
31aa5,"""Richtig""-Screen",canvas.Screen,3_0_5_0_4_1_1,NA,NA,timeout,4999.5,768868.0999999,768866.148,768883.3,773866,773866.79999971,2024-03-09T06:51:20Z,773882.8,NULL,Zuwachs,nyongeza,s,matilaba,udhibiti,hudhurio,NA,sdf,1,5,NA,NA,NA,NA,NA,NA,NA,NA,NA,NA,NA,NA,NA,NA,NA,NA,NA,NA,NA
31aa5,"""Falsch""-Screen",canvas.Screen,3_0_5_0_4_1_2,NA,NA,skipped,NA,773870.5999999,NA,NA,773866,773870.9000001,2024-03-09T06:51:20Z,773882.8,NULL,Zuwachs,nyongeza,s,matilaba,udhibiti,hudhurio,NA,sdf,NA,5,NA,NA,NA,NA,NA,NA,NA,NA,NA,NA,NA,NA,NA,NA,NA,NA,NA,NA,NA
31aa5,shallow,flow.Sequence,3_0_5_0_4_1,NA,NA,completion,10050,763801,763799.4,763816,773866,773871,2024-03-09T06:51:20Z,773882.8,NULL,Zuwachs,nyongeza,s,matilaba,udhibiti,hudhurio,NA,sdf,NA,5,NA,NA,NA,NA,NA,NA,NA,NA,NA,NA,NA,NA,NA,NA,NA,NA,NA,NA,NA
31aa5,task,flow.Sequence,3_0_5_0_4,NA,NA,completion,10050,763800.79999971,763799.4,763816,773866,773871.19999981,2024-03-09T06:51:20Z,773882.8,NULL,Zuwachs,nyongeza,s,matilaba,udhibiti,hudhurio,NA,sdf,NA,5,NA,NA,NA,NA,NA,NA,NA,NA,NA,NA,NA,NA,NA,NA,NA,NA,NA,NA,NA
31aa5,Deep Question,html.Page,3_0_5_0_5_0_0,NA,NA,form submission,7546.3999998092,773871.29999971,773866,773882.8,781429.19999981,781429.4000001,2024-03-09T06:51:27Z,781432.6,NULL,Vorsorge,tahadhari,d,NA,NA,NA,thadali,NA,NA,5,NA,NA,NA,NA,NA,NA,NA,NA,NA,NA,NA,NA,NA,NA,NA,NA,NA,NA,NA
31aa5,"""Richtig""-Screen",canvas.Screen,3_0_5_0_5_0_1,NA,NA,skipped,NA,781431,NA,NA,781429.19999981,781431.0999999,2024-03-09T06:51:27Z,781432.6,NULL,Vorsorge,tahadhari,d,NA,NA,NA,NA,sdf,NA,5,NA,NA,NA,NA,NA,NA,NA,NA,NA,NA,NA,NA,NA,NA,NA,NA,NA,NA,NA
31aa5,"""Falsch""-Screen",canvas.Screen,3_0_5_0_5_0_2,NA,NA,timeout,5000,781431.5999999,781416.324,781432.6,786416.1,786417,2024-03-09T06:51:32Z,786432.6,NULL,Vorsorge,tahadhari,d,NA,NA,NA,NA,sdf,0,5,NA,NA,NA,NA,NA,NA,NA,NA,NA,NA,NA,NA,NA,NA,NA,NA,NA,NA,NA
31aa5,deep,flow.Sequence,3_0_5_0_5_0,NA,NA,completion,12533.3,773871.29999971,773866,773882.8,786416.1,786417.19999981,2024-03-09T06:51:32Z,786432.6,NULL,Vorsorge,tahadhari,d,NA,NA,NA,NA,sdf,NA,5,NA,NA,NA,NA,NA,NA,NA,NA,NA,NA,NA,NA,NA,NA,NA,NA,NA,NA,NA
31aa5,shallow,flow.Sequence,3_0_5_0_5_1,NA,NA,skipped,NA,786417.29999971,NA,NA,786416.1,786417.4000001,2024-03-09T06:51:32Z,786432.6,NULL,Vorsorge,tahadhari,d,NA,NA,NA,NA,sdf,NA,5,NA,NA,NA,NA,NA,NA,NA,NA,NA,NA,NA,NA,NA,NA,NA,NA,NA,NA,NA
31aa5,task,flow.Sequence,3_0_5_0_5,NA,NA,completion,12533.3,773871.29999971,773866,773882.8,786416.1,786417.5,2024-03-09T06:51:32Z,786432.6,NULL,Vorsorge,tahadhari,d,NA,NA,NA,NA,sdf,NA,5,NA,NA,NA,NA,NA,NA,NA,NA,NA,NA,NA,NA,NA,NA,NA,NA,NA,NA,NA
31aa5,Deep Question,html.Page,3_0_5_0_6_0_0,NA,NA,form submission,7574.8000000954,786417.5999999,786416.1,786432.6,794007.4000001,794007.5,2024-03-09T06:51:40Z,794016.352,NULL,System,maongozi,d,NA,NA,NA,kielezo,NA,NA,5,NA,NA,NA,NA,NA,NA,NA,NA,NA,NA,NA,NA,NA,NA,NA,NA,NA,NA,NA
31aa5,"""Richtig""-Screen",canvas.Screen,3_0_5_0_6_0_1,NA,NA,skipped,NA,794009.19999981,NA,NA,794007.4000001,794009.29999971,2024-03-09T06:51:40Z,794016.352,NULL,System,maongozi,d,NA,NA,NA,NA,sdf,NA,5,NA,NA,NA,NA,NA,NA,NA,NA,NA,NA,NA,NA,NA,NA,NA,NA,NA,NA,NA
31aa5,"""Falsch""-Screen",canvas.Screen,3_0_5_0_6_0_2,NA,NA,timeout,4999.748,794009.79999971,794016.352,794016.352,798999.4,799000.19999981,2024-03-09T06:51:45Z,799016.1,NULL,System,maongozi,d,NA,NA,NA,NA,sdf,0,5,NA,NA,NA,NA,NA,NA,NA,NA,NA,NA,NA,NA,NA,NA,NA,NA,NA,NA,NA
31aa5,deep,flow.Sequence,3_0_5_0_6_0,NA,NA,completion,12566.8,786417.5999999,786416.1,786432.6,798999.4,799000.5999999,2024-03-09T06:51:45Z,799016.1,NULL,System,maongozi,d,NA,NA,NA,NA,sdf,NA,5,NA,NA,NA,NA,NA,NA,NA,NA,NA,NA,NA,NA,NA,NA,NA,NA,NA,NA,NA
31aa5,shallow,flow.Sequence,3_0_5_0_6_1,NA,NA,skipped,NA,799000.5999999,NA,NA,798999.4,799000.79999971,2024-03-09T06:51:45Z,799016.1,NULL,System,maongozi,d,NA,NA,NA,NA,sdf,NA,5,NA,NA,NA,NA,NA,NA,NA,NA,NA,NA,NA,NA,NA,NA,NA,NA,NA,NA,NA
31aa5,task,flow.Sequence,3_0_5_0_6,NA,NA,completion,12566.8,786417.5999999,786416.1,786432.6,798999.4,799000.9000001,2024-03-09T06:51:45Z,799016.1,NULL,System,maongozi,d,NA,NA,NA,NA,sdf,NA,5,NA,NA,NA,NA,NA,NA,NA,NA,NA,NA,NA,NA,NA,NA,NA,NA,NA,NA,NA
31aa5,Deep Question,html.Page,3_0_5_0_7_0_0,NA,NA,form submission,8561.1999997139,799001,798999.4,799016.1,807577.29999971,807577.4000001,2024-03-09T06:51:53Z,807599.4,NULL,Lawine,banguko,d,NA,NA,NA,banguko,NA,NA,5,NA,NA,NA,NA,NA,NA,NA,NA,NA,NA,NA,NA,NA,NA,NA,NA,NA,NA,NA
31aa5,"""Richtig""-Screen",canvas.Screen,3_0_5_0_7_0_1,NA,NA,timeout,4999.9,807579.19999981,807569.512,807599.4,812582.6,812583.4000001,2024-03-09T06:51:58Z,812599.3,NULL,Lawine,banguko,d,NA,NA,NA,NA,sdf,1,5,NA,NA,NA,NA,NA,NA,NA,NA,NA,NA,NA,NA,NA,NA,NA,NA,NA,NA,NA
31aa5,"""Falsch""-Screen",canvas.Screen,3_0_5_0_7_0_2,NA,NA,skipped,NA,812587.29999971,NA,NA,812582.6,812587.5,2024-03-09T06:51:58Z,812599.3,NULL,Lawine,banguko,d,NA,NA,NA,NA,sdf,NA,5,NA,NA,NA,NA,NA,NA,NA,NA,NA,NA,NA,NA,NA,NA,NA,NA,NA,NA,NA
31aa5,deep,flow.Sequence,3_0_5_0_7_0,NA,NA,completion,13566.5,799001,798999.4,799016.1,812582.6,812587.69999981,2024-03-09T06:51:58Z,812599.3,NULL,Lawine,banguko,d,NA,NA,NA,NA,sdf,NA,5,NA,NA,NA,NA,NA,NA,NA,NA,NA,NA,NA,NA,NA,NA,NA,NA,NA,NA,NA
31aa5,shallow,flow.Sequence,3_0_5_0_7_1,NA,NA,skipped,NA,812587.69999981,NA,NA,812582.6,812587.9000001,2024-03-09T06:51:58Z,812599.3,NULL,Lawine,banguko,d,NA,NA,NA,NA,sdf,NA,5,NA,NA,NA,NA,NA,NA,NA,NA,NA,NA,NA,NA,NA,NA,NA,NA,NA,NA,NA
31aa5,task,flow.Sequence,3_0_5_0_7,NA,NA,completion,13566.5,799001,798999.4,799016.1,812582.6,812587.9000001,2024-03-09T06:51:58Z,812599.3,NULL,Lawine,banguko,d,NA,NA,NA,NA,sdf,NA,5,NA,NA,NA,NA,NA,NA,NA,NA,NA,NA,NA,NA,NA,NA,NA,NA,NA,NA,NA
31aa5,block,flow.Loop,3_0_5_0,NA,NA,completion,108033.146,704559.79999971,704549.454,704549.454,812582.6,812588.0999999,2024-03-09T06:51:58Z,812599.3,NULL,NA,NA,NA,NA,NA,NA,NA,sdf,NA,5,NA,NA,NA,NA,NA,NA,NA,NA,NA,NA,NA,NA,NA,NA,NA,NA,NA,NA,NA
31aa5,weiter,canvas.Screen,3_0_5_1,sdf,keypress(Space),response,1061.3999998092,812588.19999981,812582.6,812599.3,813660.69999981,813661.5999999,2024-03-09T06:52:00Z,813715.8,NULL,NA,NA,NA,NA,NA,NA,NA,sdf,NA,5,NA,NA,NA,NA,NA,NA,NA,NA,NA,NA,NA,NA,NA,NA,NA,NA,NA,NA,NA
31aa5,check continue,flow.Sequence,3_0_5,NA,NA,completion,109111.24599981,704559.79999971,704549.454,704549.454,813660.69999981,813661.9000001,2024-03-09T06:52:00Z,813715.8,NULL,NA,NA,NA,NA,NA,NA,NA,sdf,NA,5,NA,NA,NA,NA,NA,NA,NA,NA,NA,NA,NA,NA,NA,NA,NA,NA,NA,NA,NA
31aa5,deep,flow.Sequence,3_0_6_0_0_0,NA,NA,skipped,NA,813705.5999999,NA,NA,813660.69999981,813705.69999981,2024-03-09T06:52:00Z,813715.8,NULL,Körper,kiwiliwili,s,mapambano,mpatanishi,kiolezo,NA,dfs,NA,6,NA,NA,NA,NA,NA,NA,NA,NA,NA,NA,NA,NA,NA,NA,NA,NA,NA,NA,NA
31aa5,Shallow Question,html.Page,3_0_6_0_0_1_0,NA,NA,form submission,4448.2,813705.9000001,813699.5,813715.8,818164,818164.29999971,2024-03-09T06:52:04Z,818166.094,NULL,Körper,kiwiliwili,s,mapambano,mpatanishi,kiolezo,kiwiliwili,NA,NA,6,NA,NA,NA,NA,NA,NA,NA,NA,NA,NA,NA,NA,NA,NA,NA,NA,NA,NA,NA
31aa5,"""Richtig""-Screen",canvas.Screen,3_0_6_0_0_1_1,NA,NA,timeout,4999.906,818166,818166.094,818166.094,823149.3,823150.0999999,2024-03-09T06:52:09Z,823166,NULL,Körper,kiwiliwili,s,mapambano,mpatanishi,kiolezo,NA,dfs,1,6,NA,NA,NA,NA,NA,NA,NA,NA,NA,NA,NA,NA,NA,NA,NA,NA,NA,NA,NA
31aa5,"""Falsch""-Screen",canvas.Screen,3_0_6_0_0_1_2,NA,NA,skipped,NA,823154,NA,NA,823149.3,823154.0999999,2024-03-09T06:52:09Z,823166,NULL,Körper,kiwiliwili,s,mapambano,mpatanishi,kiolezo,NA,dfs,NA,6,NA,NA,NA,NA,NA,NA,NA,NA,NA,NA,NA,NA,NA,NA,NA,NA,NA,NA,NA
31aa5,shallow,flow.Sequence,3_0_6_0_0_1,NA,NA,completion,9433.5,813705.9000001,813699.5,813715.8,823149.3,823154.4000001,2024-03-09T06:52:09Z,823166,NULL,Körper,kiwiliwili,s,mapambano,mpatanishi,kiolezo,NA,dfs,NA,6,NA,NA,NA,NA,NA,NA,NA,NA,NA,NA,NA,NA,NA,NA,NA,NA,NA,NA,NA
31aa5,task,flow.Sequence,3_0_6_0_0,NA,NA,completion,9433.5,813705.5999999,813699.5,813715.8,823149.3,823154.5,2024-03-09T06:52:09Z,823166,NULL,Körper,kiwiliwili,s,mapambano,mpatanishi,kiolezo,NA,dfs,NA,6,NA,NA,NA,NA,NA,NA,NA,NA,NA,NA,NA,NA,NA,NA,NA,NA,NA,NA,NA
31aa5,Deep Question,html.Page,3_0_6_0_1_0_0,NA,NA,form submission,11568.400000095,823154.5999999,823149.3,823166,834734.4000001,834734.5999999,2024-03-09T06:52:21Z,834749.3,NULL,System,maongozi,d,NA,NA,NA,kielezo,NA,NA,6,NA,NA,NA,NA,NA,NA,NA,NA,NA,NA,NA,NA,NA,NA,NA,NA,NA,NA,NA
31aa5,"""Richtig""-Screen",canvas.Screen,3_0_6_0_1_0_1,NA,NA,skipped,NA,834736.5999999,NA,NA,834734.4000001,834736.69999981,2024-03-09T06:52:21Z,834749.3,NULL,System,maongozi,d,NA,NA,NA,NA,dfs,NA,6,NA,NA,NA,NA,NA,NA,NA,NA,NA,NA,NA,NA,NA,NA,NA,NA,NA,NA,NA
31aa5,"""Falsch""-Screen",canvas.Screen,3_0_6_0_1_0_2,NA,NA,timeout,5000,834737.19999981,834732.74,834749.3,839732.5,839733.29999971,2024-03-09T06:52:26Z,839749.3,NULL,System,maongozi,d,NA,NA,NA,NA,dfs,0,6,NA,NA,NA,NA,NA,NA,NA,NA,NA,NA,NA,NA,NA,NA,NA,NA,NA,NA,NA
31aa5,deep,flow.Sequence,3_0_6_0_1_0,NA,NA,completion,16566.5,823154.5999999,823149.3,823166,839732.5,839733.5999999,2024-03-09T06:52:26Z,839749.3,NULL,System,maongozi,d,NA,NA,NA,NA,dfs,NA,6,NA,NA,NA,NA,NA,NA,NA,NA,NA,NA,NA,NA,NA,NA,NA,NA,NA,NA,NA
31aa5,shallow,flow.Sequence,3_0_6_0_1_1,NA,NA,skipped,NA,839733.5999999,NA,NA,839732.5,839733.69999981,2024-03-09T06:52:26Z,839749.3,NULL,System,maongozi,d,NA,NA,NA,NA,dfs,NA,6,NA,NA,NA,NA,NA,NA,NA,NA,NA,NA,NA,NA,NA,NA,NA,NA,NA,NA,NA
31aa5,task,flow.Sequence,3_0_6_0_1,NA,NA,completion,16566.5,823154.5999999,823149.3,823166,839732.5,839733.79999971,2024-03-09T06:52:26Z,839749.3,NULL,System,maongozi,d,NA,NA,NA,NA,dfs,NA,6,NA,NA,NA,NA,NA,NA,NA,NA,NA,NA,NA,NA,NA,NA,NA,NA,NA,NA,NA
31aa5,Deep Question,html.Page,3_0_6_0_2_0_0,NA,NA,form submission,15020.999999714,839733.9000001,839732.5,839749.3,854770.29999971,854770.5999999,2024-03-09T06:52:41Z,854782.5,NULL,Konkurrent,mshindani,d,NA,NA,NA,thahadani,NA,NA,6,NA,NA,NA,NA,NA,NA,NA,NA,NA,NA,NA,NA,NA,NA,NA,NA,NA,NA,NA
31aa5,"""Richtig""-Screen",canvas.Screen,3_0_6_0_2_0_1,NA,NA,skipped,NA,854772.19999981,NA,NA,854770.29999971,854772.4000001,2024-03-09T06:52:41Z,854782.5,NULL,Konkurrent,mshindani,d,NA,NA,NA,NA,dfs,NA,6,NA,NA,NA,NA,NA,NA,NA,NA,NA,NA,NA,NA,NA,NA,NA,NA,NA,NA,NA
31aa5,"""Falsch""-Screen",canvas.Screen,3_0_6_0_2_0_2,NA,NA,timeout,5000.2,854772.79999971,854766.1,854782.5,859766,859766.69999981,2024-03-09T06:52:46Z,859782.7,NULL,Konkurrent,mshindani,d,NA,NA,NA,NA,dfs,0,6,NA,NA,NA,NA,NA,NA,NA,NA,NA,NA,NA,NA,NA,NA,NA,NA,NA,NA,NA
31aa5,deep,flow.Sequence,3_0_6_0_2_0,NA,NA,completion,20016.7,839733.9000001,839732.5,839749.3,859766,859767,2024-03-09T06:52:46Z,859782.7,NULL,Konkurrent,mshindani,d,NA,NA,NA,NA,dfs,NA,6,NA,NA,NA,NA,NA,NA,NA,NA,NA,NA,NA,NA,NA,NA,NA,NA,NA,NA,NA
31aa5,shallow,flow.Sequence,3_0_6_0_2_1,NA,NA,skipped,NA,859767.0999999,NA,NA,859766,859767.19999981,2024-03-09T06:52:46Z,859782.7,NULL,Konkurrent,mshindani,d,NA,NA,NA,NA,dfs,NA,6,NA,NA,NA,NA,NA,NA,NA,NA,NA,NA,NA,NA,NA,NA,NA,NA,NA,NA,NA
31aa5,task,flow.Sequence,3_0_6_0_2,NA,NA,completion,20016.7,839733.9000001,839732.5,839749.3,859766,859767.4000001,2024-03-09T06:52:46Z,859782.7,NULL,Konkurrent,mshindani,d,NA,NA,NA,NA,dfs,NA,6,NA,NA,NA,NA,NA,NA,NA,NA,NA,NA,NA,NA,NA,NA,NA,NA,NA,NA,NA
31aa5,deep,flow.Sequence,3_0_6_0_3_0,NA,NA,skipped,NA,859767.5,NA,NA,859766,859767.5,2024-03-09T06:52:46Z,859782.7,NULL,Zuwachs,nyongeza,s,matilaba,udhibiti,hudhurio,NA,dfs,NA,6,NA,NA,NA,NA,NA,NA,NA,NA,NA,NA,NA,NA,NA,NA,NA,NA,NA,NA,NA
31aa5,Shallow Question,html.Page,3_0_6_0_3_1_0,NA,NA,form submission,6802.3999999047,859767.69999981,859766,859782.7,866585.0999999,866585.4000001,2024-03-09T06:52:52Z,866599,NULL,Zuwachs,nyongeza,s,matilaba,udhibiti,hudhurio,nyongeza,NA,NA,6,NA,NA,NA,NA,NA,NA,NA,NA,NA,NA,NA,NA,NA,NA,NA,NA,NA,NA,NA
31aa5,"""Richtig""-Screen",canvas.Screen,3_0_6_0_3_1_1,NA,NA,timeout,5000.3,866586.9000001,866582.7,866599,871582.5,871583.29999971,2024-03-09T06:52:57Z,871599.3,NULL,Zuwachs,nyongeza,s,matilaba,udhibiti,hudhurio,NA,dfs,1,6,NA,NA,NA,NA,NA,NA,NA,NA,NA,NA,NA,NA,NA,NA,NA,NA,NA,NA,NA
31aa5,"""Falsch""-Screen",canvas.Screen,3_0_6_0_3_1_2,NA,NA,skipped,NA,871587.29999971,NA,NA,871582.5,871587.5999999,2024-03-09T06:52:57Z,871599.3,NULL,Zuwachs,nyongeza,s,matilaba,udhibiti,hudhurio,NA,dfs,NA,6,NA,NA,NA,NA,NA,NA,NA,NA,NA,NA,NA,NA,NA,NA,NA,NA,NA,NA,NA
31aa5,shallow,flow.Sequence,3_0_6_0_3_1,NA,NA,completion,11799.8,859767.69999981,859766,859782.7,871582.5,871587.79999971,2024-03-09T06:52:57Z,871599.3,NULL,Zuwachs,nyongeza,s,matilaba,udhibiti,hudhurio,NA,dfs,NA,6,NA,NA,NA,NA,NA,NA,NA,NA,NA,NA,NA,NA,NA,NA,NA,NA,NA,NA,NA
31aa5,task,flow.Sequence,3_0_6_0_3,NA,NA,completion,11799.8,859767.5,859766,859782.7,871582.5,871588,2024-03-09T06:52:57Z,871599.3,NULL,Zuwachs,nyongeza,s,matilaba,udhibiti,hudhurio,NA,dfs,NA,6,NA,NA,NA,NA,NA,NA,NA,NA,NA,NA,NA,NA,NA,NA,NA,NA,NA,NA,NA
31aa5,Deep Question,html.Page,3_0_6_0_4_0_0,NA,NA,form submission,4218.2,871588.0999999,871582.5,871599.3,875817.5,875817.69999981,2024-03-09T06:53:02Z,875849.3,NULL,Lawine,banguko,d,NA,NA,NA,banguko,NA,NA,6,NA,NA,NA,NA,NA,NA,NA,NA,NA,NA,NA,NA,NA,NA,NA,NA,NA,NA,NA
