observation,sender,sender_type,sender_id,response,response_action,ended_on,duration,time_run,time_render,time_show,time_end,time_commit,timestamp,time_switch,german,swahili,enc,distractor1,distractor2,distractor3,response_2,x,correct,distractors,url_vp,url_sess,meta_labjs_version,meta_location,meta_user_agent,meta_platform,meta_language,meta_locale,meta_time_zone,meta_timezone_offset,meta_screen_width,meta_screen_height,meta_scroll_width,meta_scroll_height,meta_window_inner_width,meta_window_inner_height,meta_device_pixel_ratio,meta_labjs_build_flavor,meta_labjs_build_commit
8.3E+03,Introduction delayed retrieval,canvas.Screen,0,weiter,keypress(Space),response,43176,363,369,402,43545,43549,2023-01-16T11:39:24Z,43583,NA,NA,NA,NA,NA,NA,NA,NA,NA,NULL,106,2,20.2.4,https://neurocog.fernuni.ch/studies/vweber/delayed/index.html?vp=106&sess=2,"Mozilla/5.0 (Macintosh; Intel Mac OS X 10_15_7) AppleWebKit/605.1.15 (KHTML, like Gecko) Version/16.1 Safari/605.1.15",MacIntel,de-DE,de-DE,Europe/Zurich,-60,1440,900,1440,743,1440,791,2,production,f5b4a49f956347addd546a832a3327688c2c0fef
8.3E+03,Deep Question,html.Page,1_0_0_0,NA,NA,form submission,19746,43550,43567,43583,63329,63329,2023-01-16T11:39:44Z,63364,Entwicklung,maendeleo,s,uangavu,mshindwa,badiliko,NA,NA,NA,NULL,NA,NA,NA,NA,NA,NA,NA,NA,NA,NA,NA,NA,NA,NA,NA,NA,NA,NA,NA
8.3E+03,Save data screen,canvas.Screen,1_0_0_1,NA,NA,timeout,501,63330,63348,63364,63848,63849,2023-01-16T11:39:45Z,63865,Entwicklung,maendeleo,s,uangavu,mshindwa,badiliko,NA,NA,0,NULL,NA,NA,NA,NA,NA,NA,NA,NA,NA,NA,NA,NA,NA,NA,NA,NA,NA,NA,NA
8.3E+03,deep,flow.Sequence,1_0_0,NA,NA,completion,20265,43550,43567,43583,63848,63849,2023-01-16T11:39:45Z,63865,Entwicklung,maendeleo,s,uangavu,mshindwa,badiliko,NA,NA,NA,NULL,NA,NA,NA,NA,NA,NA,NA,NA,NA,NA,NA,NA,NA,NA,NA,NA,NA,NA,NA
8.3E+03,task,flow.Sequence,1_0,NA,NA,completion,20265,43550,43567,43583,63848,63849,2023-01-16T11:39:45Z,63865,Entwicklung,maendeleo,s,uangavu,mshindwa,badiliko,NA,NA,NA,NULL,NA,NA,NA,NA,NA,NA,NA,NA,NA,NA,NA,NA,NA,NA,NA,NA,NA,NA,NA
8.3E+03,Deep Question,html.Page,1_1_0_0,NA,NA,form submission,17742,63849,63848,63865,81607,81608,2023-01-16T11:40:02Z,81626,Flexibilität,kubadilika,s,enjini,usikilivu,hesabu,kudathase,NA,NA,NULL,NA,NA,NA,NA,NA,NA,NA,NA,NA,NA,NA,NA,NA,NA,NA,NA,NA,NA,NA
8.3E+03,Save data screen,canvas.Screen,1_1_0_1,NA,NA,timeout,500,81608,81615,81626,82110,82111,2023-01-16T11:40:03Z,82126,Flexibilität,kubadilika,s,enjini,usikilivu,hesabu,NA,NA,0,NULL,NA,NA,NA,NA,NA,NA,NA,NA,NA,NA,NA,NA,NA,NA,NA,NA,NA,NA,NA
8.3E+03,deep,flow.Sequence,1_1_0,NA,NA,completion,18245,63849,63848,63865,82110,82111,2023-01-16T11:40:03Z,82126,Flexibilität,kubadilika,s,enjini,usikilivu,hesabu,NA,NA,NA,NULL,NA,NA,NA,NA,NA,NA,NA,NA,NA,NA,NA,NA,NA,NA,NA,NA,NA,NA,NA
8.3E+03,task,flow.Sequence,1_1,NA,NA,completion,18245,63849,63848,63865,82110,82111,2023-01-16T11:40:03Z,82126,Flexibilität,kubadilika,s,enjini,usikilivu,hesabu,NA,NA,NA,NULL,NA,NA,NA,NA,NA,NA,NA,NA,NA,NA,NA,NA,NA,NA,NA,NA,NA,NA,NA
8.3E+03,Deep Question,html.Page,1_2_0_0,NA,NA,form submission,5258,82111,82110,82126,87384,87384,2023-01-16T11:40:08Z,87411,Begegnung,kukutana,s,mmasihiya,mpiganaji,husiano,NA,NA,NA,NULL,NA,NA,NA,NA,NA,NA,NA,NA,NA,NA,NA,NA,NA,NA,NA,NA,NA,NA,NA
8.3E+03,Save data screen,canvas.Screen,1_2_0_1,NA,NA,timeout,501,87385,87394,87411,87896,87896,2023-01-16T11:40:09Z,87912,Begegnung,kukutana,s,mmasihiya,mpiganaji,husiano,NA,NA,0,NULL,NA,NA,NA,NA,NA,NA,NA,NA,NA,NA,NA,NA,NA,NA,NA,NA,NA,NA,NA
8.3E+03,deep,flow.Sequence,1_2_0,NA,NA,completion,5770,82111,82110,82126,87896,87896,2023-01-16T11:40:09Z,87912,Begegnung,kukutana,s,mmasihiya,mpiganaji,husiano,NA,NA,NA,NULL,NA,NA,NA,NA,NA,NA,NA,NA,NA,NA,NA,NA,NA,NA,NA,NA,NA,NA,NA
8.3E+03,task,flow.Sequence,1_2,NA,NA,completion,5770,82111,82110,82126,87896,87896,2023-01-16T11:40:09Z,87912,Begegnung,kukutana,s,mmasihiya,mpiganaji,husiano,NA,NA,NA,NULL,NA,NA,NA,NA,NA,NA,NA,NA,NA,NA,NA,NA,NA,NA,NA,NA,NA,NA,NA
8.3E+03,Deep Question,html.Page,1_3_0_0,NA,NA,form submission,6896,87896,87896,87912,94808,94808,2023-01-16T11:40:16Z,94833,Betrüger,mdanganyifu,s,mwanamuziki,wastani,mahakama,NA,NA,NA,NULL,NA,NA,NA,NA,NA,NA,NA,NA,NA,NA,NA,NA,NA,NA,NA,NA,NA,NA,NA
8.3E+03,Save data screen,canvas.Screen,1_3_0_1,NA,NA,timeout,501,94809,94820,94833,95318,95319,2023-01-16T11:40:16Z,95334,Betrüger,mdanganyifu,s,mwanamuziki,wastani,mahakama,NA,NA,0,NULL,NA,NA,NA,NA,NA,NA,NA,NA,NA,NA,NA,NA,NA,NA,NA,NA,NA,NA,NA
8.3E+03,deep,flow.Sequence,1_3_0,NA,NA,completion,7406,87896,87896,87912,95318,95319,2023-01-16T11:40:16Z,95334,Betrüger,mdanganyifu,s,mwanamuziki,wastani,mahakama,NA,NA,NA,NULL,NA,NA,NA,NA,NA,NA,NA,NA,NA,NA,NA,NA,NA,NA,NA,NA,NA,NA,NA
8.3E+03,task,flow.Sequence,1_3,NA,NA,completion,7406,87896,87896,87912,95318,95319,2023-01-16T11:40:16Z,95334,Betrüger,mdanganyifu,s,mwanamuziki,wastani,mahakama,NA,NA,NA,NULL,NA,NA,NA,NA,NA,NA,NA,NA,NA,NA,NA,NA,NA,NA,NA,NA,NA,NA,NA
8.3E+03,Deep Question,html.Page,1_4_0_0,NA,NA,form submission,16258,95319,95318,95334,111592,111593,2023-01-16T11:40:32Z,111624,Erneuerung,ukarabati,d,ushawishi,ukalifu,unyonyaji,NA,NA,NA,NULL,NA,NA,NA,NA,NA,NA,NA,NA,NA,NA,NA,NA,NA,NA,NA,NA,NA,NA,NA
8.3E+03,Save data screen,canvas.Screen,1_4_0_1,NA,NA,timeout,501,111594,111608,111624,112108,112108,2023-01-16T11:40:33Z,112125,Erneuerung,ukarabati,d,ushawishi,ukalifu,unyonyaji,NA,NA,0,NULL,NA,NA,NA,NA,NA,NA,NA,NA,NA,NA,NA,NA,NA,NA,NA,NA,NA,NA,NA
8.3E+03,deep,flow.Sequence,1_4_0,NA,NA,completion,16774,95319,95318,95334,112108,112109,2023-01-16T11:40:33Z,112125,Erneuerung,ukarabati,d,ushawishi,ukalifu,unyonyaji,NA,NA,NA,NULL,NA,NA,NA,NA,NA,NA,NA,NA,NA,NA,NA,NA,NA,NA,NA,NA,NA,NA,NA
8.3E+03,task,flow.Sequence,1_4,NA,NA,completion,16774,95319,95318,95334,112108,112109,2023-01-16T11:40:33Z,112125,Erneuerung,ukarabati,d,ushawishi,ukalifu,unyonyaji,NA,NA,NA,NULL,NA,NA,NA,NA,NA,NA,NA,NA,NA,NA,NA,NA,NA,NA,NA,NA,NA,NA,NA
8.3E+03,Deep Question,html.Page,1_5_0_0,NA,NA,form submission,31106,112109,112108,112125,143231,143232,2023-01-16T11:41:04Z,143265,Papier,karatasi,d,uchambuzi,usalama,kukataliwa,keritasi,NA,NA,NULL,NA,NA,NA,NA,NA,NA,NA,NA,NA,NA,NA,NA,NA,NA,NA,NA,NA,NA,NA
8.3E+03,Save data screen,canvas.Screen,1_5_0_1,NA,NA,timeout,500,143233,143249,143265,143748,143749,2023-01-16T11:41:05Z,143765,Papier,karatasi,d,uchambuzi,usalama,kukataliwa,NA,NA,0,NULL,NA,NA,NA,NA,NA,NA,NA,NA,NA,NA,NA,NA,NA,NA,NA,NA,NA,NA,NA
8.3E+03,deep,flow.Sequence,1_5_0,NA,NA,completion,31623,112109,112108,112125,143748,143749,2023-01-16T11:41:05Z,143765,Papier,karatasi,d,uchambuzi,usalama,kukataliwa,NA,NA,NA,NULL,NA,NA,NA,NA,NA,NA,NA,NA,NA,NA,NA,NA,NA,NA,NA,NA,NA,NA,NA
8.3E+03,task,flow.Sequence,1_5,NA,NA,completion,31623,112109,112108,112125,143748,143749,2023-01-16T11:41:05Z,143765,Papier,karatasi,d,uchambuzi,usalama,kukataliwa,NA,NA,NA,NULL,NA,NA,NA,NA,NA,NA,NA,NA,NA,NA,NA,NA,NA,NA,NA,NA,NA,NA,NA
8.3E+03,Deep Question,html.Page,1_6_0_0,NA,NA,form submission,1386,143749,143748,143765,145151,145151,2023-01-16T11:41:06Z,145182,Orientierung,urekebisho,d,uelekeo,marekebisho,utunzaji,NA,NA,NA,NULL,NA,NA,NA,NA,NA,NA,NA,NA,NA,NA,NA,NA,NA,NA,NA,NA,NA,NA,NA
8.3E+03,Save data screen,canvas.Screen,1_6_0_1,NA,NA,timeout,501,145152,145167,145182,145667,145667,2023-01-16T11:41:06Z,145683,Orientierung,urekebisho,d,uelekeo,marekebisho,utunzaji,NA,NA,0,NULL,NA,NA,NA,NA,NA,NA,NA,NA,NA,NA,NA,NA,NA,NA,NA,NA,NA,NA,NA
8.3E+03,deep,flow.Sequence,1_6_0,NA,NA,completion,1902,143749,143748,143765,145667,145667,2023-01-16T11:41:06Z,145683,Orientierung,urekebisho,d,uelekeo,marekebisho,utunzaji,NA,NA,NA,NULL,NA,NA,NA,NA,NA,NA,NA,NA,NA,NA,NA,NA,NA,NA,NA,NA,NA,NA,NA
8.3E+03,task,flow.Sequence,1_6,NA,NA,completion,1902,143749,143748,143765,145667,145667,2023-01-16T11:41:06Z,145683,Orientierung,urekebisho,d,uelekeo,marekebisho,utunzaji,NA,NA,NA,NULL,NA,NA,NA,NA,NA,NA,NA,NA,NA,NA,NA,NA,NA,NA,NA,NA,NA,NA,NA
8.3E+03,Deep Question,html.Page,1_7_0_0,NA,NA,form submission,1860,145668,145667,145683,147543,147543,2023-01-16T11:41:08Z,147567,Atmosphäre,angahewa,s,kuteseka,usahihi,kutoamini,NA,NA,NA,NULL,NA,NA,NA,NA,NA,NA,NA,NA,NA,NA,NA,NA,NA,NA,NA,NA,NA,NA,NA
8.3E+03,Save data screen,canvas.Screen,1_7_0_1,NA,NA,timeout,501,147544,147550,147567,148052,148052,2023-01-16T11:41:09Z,148068,Atmosphäre,angahewa,s,kuteseka,usahihi,kutoamini,NA,NA,0,NULL,NA,NA,NA,NA,NA,NA,NA,NA,NA,NA,NA,NA,NA,NA,NA,NA,NA,NA,NA
8.3E+03,deep,flow.Sequence,1_7_0,NA,NA,completion,2369,145667,145667,145683,148052,148052,2023-01-16T11:41:09Z,148068,Atmosphäre,angahewa,s,kuteseka,usahihi,kutoamini,NA,NA,NA,NULL,NA,NA,NA,NA,NA,NA,NA,NA,NA,NA,NA,NA,NA,NA,NA,NA,NA,NA,NA
8.3E+03,task,flow.Sequence,1_7,NA,NA,completion,2369,145667,145667,145683,148052,148053,2023-01-16T11:41:09Z,148068,Atmosphäre,angahewa,s,kuteseka,usahihi,kutoamini,NA,NA,NA,NULL,NA,NA,NA,NA,NA,NA,NA,NA,NA,NA,NA,NA,NA,NA,NA,NA,NA,NA,NA
8.3E+03,Deep Question,html.Page,1_8_0_0,NA,NA,form submission,2851,148053,148052,148068,150919,150919,2023-01-16T11:41:12Z,150952,Stimmung,kinyongo,s,kilekile,kisambo,madhehebu,NA,NA,NA,NULL,NA,NA,NA,NA,NA,NA,NA,NA,NA,NA,NA,NA,NA,NA,NA,NA,NA,NA,NA
8.3E+03,Save data screen,canvas.Screen,1_8_0_1,NA,NA,timeout,500,150920,150936,150952,151436,151437,2023-01-16T11:41:12Z,151452,Stimmung,kinyongo,s,kilekile,kisambo,madhehebu,NA,NA,0,NULL,NA,NA,NA,NA,NA,NA,NA,NA,NA,NA,NA,NA,NA,NA,NA,NA,NA,NA,NA
8.3E+03,deep,flow.Sequence,1_8_0,NA,NA,completion,3368,148053,148052,148068,151436,151437,2023-01-16T11:41:12Z,151452,Stimmung,kinyongo,s,kilekile,kisambo,madhehebu,NA,NA,NA,NULL,NA,NA,NA,NA,NA,NA,NA,NA,NA,NA,NA,NA,NA,NA,NA,NA,NA,NA,NA
8.3E+03,task,flow.Sequence,1_8,NA,NA,completion,3368,148053,148052,148068,151436,151437,2023-01-16T11:41:12Z,151452,Stimmung,kinyongo,s,kilekile,kisambo,madhehebu,NA,NA,NA,NULL,NA,NA,NA,NA,NA,NA,NA,NA,NA,NA,NA,NA,NA,NA,NA,NA,NA,NA,NA
8.3E+03,Deep Question,html.Page,1_9_0_0,NA,NA,form submission,6827,151438,151436,151452,158279,158280,2023-01-16T11:41:19Z,158305,Wechsel,ugeuzaji,d,utambulisho,kujenga,wasiwasi,NA,NA,NA,NULL,NA,NA,NA,NA,NA,NA,NA,NA,NA,NA,NA,NA,NA,NA,NA,NA,NA,NA,NA
8.3E+03,Save data screen,canvas.Screen,1_9_0_1,NA,NA,timeout,501,158280,158288,158305,158789,158791,2023-01-16T11:41:20Z,158806,Wechsel,ugeuzaji,d,utambulisho,kujenga,wasiwasi,NA,NA,0,NULL,NA,NA,NA,NA,NA,NA,NA,NA,NA,NA,NA,NA,NA,NA,NA,NA,NA,NA,NA
8.3E+03,deep,flow.Sequence,1_9_0,NA,NA,completion,7337,151438,151436,151452,158789,158791,2023-01-16T11:41:20Z,158806,Wechsel,ugeuzaji,d,utambulisho,kujenga,wasiwasi,NA,NA,NA,NULL,NA,NA,NA,NA,NA,NA,NA,NA,NA,NA,NA,NA,NA,NA,NA,NA,NA,NA,NA
8.3E+03,task,flow.Sequence,1_9,NA,NA,completion,7337,151437,151436,151452,158789,158791,2023-01-16T11:41:20Z,158806,Wechsel,ugeuzaji,d,utambulisho,kujenga,wasiwasi,NA,NA,NA,NULL,NA,NA,NA,NA,NA,NA,NA,NA,NA,NA,NA,NA,NA,NA,NA,NA,NA,NA,NA
8.3E+03,Deep Question,html.Page,1_10_0_0,NA,NA,form submission,8785,158791,158789,158806,167591,167592,2023-01-16T11:41:28Z,167611,Respekt,heshima,d,changamnao,upinzani,ufanisi,uwalasi,NA,NA,NULL,NA,NA,NA,NA,NA,NA,NA,NA,NA,NA,NA,NA,NA,NA,NA,NA,NA,NA,NA
8.3E+03,Save data screen,canvas.Screen,1_10_0_1,NA,NA,timeout,500,167593,167595,167611,168095,168095,2023-01-16T11:41:29Z,168111,Respekt,heshima,d,changamnao,upinzani,ufanisi,NA,NA,0,NULL,NA,NA,NA,NA,NA,NA,NA,NA,NA,NA,NA,NA,NA,NA,NA,NA,NA,NA,NA
8.3E+03,deep,flow.Sequence,1_10_0,NA,NA,completion,9289,158791,158789,158806,168095,168096,2023-01-16T11:41:29Z,168111,Respekt,heshima,d,changamnao,upinzani,ufanisi,NA,NA,NA,NULL,NA,NA,NA,NA,NA,NA,NA,NA,NA,NA,NA,NA,NA,NA,NA,NA,NA,NA,NA
8.3E+03,task,flow.Sequence,1_10,NA,NA,completion,9289,158791,158789,158806,168095,168096,2023-01-16T11:41:29Z,168111,Respekt,heshima,d,changamnao,upinzani,ufanisi,NA,NA,NA,NULL,NA,NA,NA,NA,NA,NA,NA,NA,NA,NA,NA,NA,NA,NA,NA,NA,NA,NA,NA
8.3E+03,Deep Question,html.Page,1_11_0_0,NA,NA,form submission,1776,168096,168095,168111,169887,169887,2023-01-16T11:41:31Z,169912,Genehmigung,idhini,s,mwanamke,itikadi,fedheha,NA,NA,NA,NULL,NA,NA,NA,NA,NA,NA,NA,NA,NA,NA,NA,NA,NA,NA,NA,NA,NA,NA,NA
8.3E+03,Save data screen,canvas.Screen,1_11_0_1,NA,NA,timeout,500,169888,169896,169912,170396,170396,2023-01-16T11:41:31Z,170412,Genehmigung,idhini,s,mwanamke,itikadi,fedheha,NA,NA,0,NULL,NA,NA,NA,NA,NA,NA,NA,NA,NA,NA,NA,NA,NA,NA,NA,NA,NA,NA,NA
8.3E+03,deep,flow.Sequence,1_11_0,NA,NA,completion,2285,168096,168095,168111,170396,170396,2023-01-16T11:41:31Z,170412,Genehmigung,idhini,s,mwanamke,itikadi,fedheha,NA,NA,NA,NULL,NA,NA,NA,NA,NA,NA,NA,NA,NA,NA,NA,NA,NA,NA,NA,NA,NA,NA,NA
8.3E+03,task,flow.Sequence,1_11,NA,NA,completion,2285,168096,168095,168111,170396,170397,2023-01-16T11:41:31Z,170412,Genehmigung,idhini,s,mwanamke,itikadi,fedheha,NA,NA,NA,NULL,NA,NA,NA,NA,NA,NA,NA,NA,NA,NA,NA,NA,NA,NA,NA,NA,NA,NA,NA
8.3E+03,Deep Question,html.Page,1_12_0_0,NA,NA,form submission,1635,170397,170396,170412,172047,172047,2023-01-16T11:41:33Z,172079,Integrität,uadilifu,d,muungano,mtiririko,upunguaji,NA,NA,NA,NULL,NA,NA,NA,NA,NA,NA,NA,NA,NA,NA,NA,NA,NA,NA,NA,NA,NA,NA,NA
8.3E+03,Save data screen,canvas.Screen,1_12_0_1,NA,NA,timeout,502,172048,172062,172079,172564,172565,2023-01-16T11:41:33Z,172581,Integrität,uadilifu,d,muungano,mtiririko,upunguaji,NA,NA,0,NULL,NA,NA,NA,NA,NA,NA,NA,NA,NA,NA,NA,NA,NA,NA,NA,NA,NA,NA,NA
8.3E+03,deep,flow.Sequence,1_12_0,NA,NA,completion,2152,170397,170396,170412,172564,172565,2023-01-16T11:41:33Z,172581,Integrität,uadilifu,d,muungano,mtiririko,upunguaji,NA,NA,NA,NULL,NA,NA,NA,NA,NA,NA,NA,NA,NA,NA,NA,NA,NA,NA,NA,NA,NA,NA,NA
8.3E+03,task,flow.Sequence,1_12,NA,NA,completion,2152,170397,170396,170412,172564,172565,2023-01-16T11:41:33Z,172581,Integrität,uadilifu,d,muungano,mtiririko,upunguaji,NA,NA,NA,NULL,NA,NA,NA,NA,NA,NA,NA,NA,NA,NA,NA,NA,NA,NA,NA,NA,NA,NA,NA
8.3E+03,Deep Question,html.Page,1_13_0_0,NA,NA,form submission,34643,172565,172564,172581,207224,207224,2023-01-16T11:42:08Z,207254,Fleisch,mshakiki,d,kizunguzungu,mshikamano,angusho,NA,NA,NA,NULL,NA,NA,NA,NA,NA,NA,NA,NA,NA,NA,NA,NA,NA,NA,NA,NA,NA,NA,NA
8.3E+03,Save data screen,canvas.Screen,1_13_0_1,NA,NA,timeout,500,207225,207237,207254,207738,207738,2023-01-16T11:42:09Z,207754,Fleisch,mshakiki,d,kizunguzungu,mshikamano,angusho,NA,NA,0,NULL,NA,NA,NA,NA,NA,NA,NA,NA,NA,NA,NA,NA,NA,NA,NA,NA,NA,NA,NA
8.3E+03,deep,flow.Sequence,1_13_0,NA,NA,completion,35157,172565,172564,172581,207738,207739,2023-01-16T11:42:09Z,207754,Fleisch,mshakiki,d,kizunguzungu,mshikamano,angusho,NA,NA,NA,NULL,NA,NA,NA,NA,NA,NA,NA,NA,NA,NA,NA,NA,NA,NA,NA,NA,NA,NA,NA
8.3E+03,task,flow.Sequence,1_13,NA,NA,completion,35157,172565,172564,172581,207738,207739,2023-01-16T11:42:09Z,207754,Fleisch,mshakiki,d,kizunguzungu,mshikamano,angusho,NA,NA,NA,NULL,NA,NA,NA,NA,NA,NA,NA,NA,NA,NA,NA,NA,NA,NA,NA,NA,NA,NA,NA
8.3E+03,Deep Question,html.Page,1_14_0_0,NA,NA,form submission,2293,207739,207738,207754,210047,210047,2023-01-16T11:42:11Z,210072,Niveau,kiwango,d,usimamizi,mwamali,mshairi,NA,NA,NA,NULL,NA,NA,NA,NA,NA,NA,NA,NA,NA,NA,NA,NA,NA,NA,NA,NA,NA,NA,NA
8.3E+03,Save data screen,canvas.Screen,1_14_0_1,NA,NA,timeout,500,210048,210055,210072,210555,210555,2023-01-16T11:42:11Z,210572,Niveau,kiwango,d,usimamizi,mwamali,mshairi,NA,NA,0,NULL,NA,NA,NA,NA,NA,NA,NA,NA,NA,NA,NA,NA,NA,NA,NA,NA,NA,NA,NA
8.3E+03,deep,flow.Sequence,1_14_0,NA,NA,completion,2801,207739,207738,207754,210555,210555,2023-01-16T11:42:11Z,210572,Niveau,kiwango,d,usimamizi,mwamali,mshairi,NA,NA,NA,NULL,NA,NA,NA,NA,NA,NA,NA,NA,NA,NA,NA,NA,NA,NA,NA,NA,NA,NA,NA
8.3E+03,task,flow.Sequence,1_14,NA,NA,completion,2801,207739,207738,207754,210555,210556,2023-01-16T11:42:11Z,210572,Niveau,kiwango,d,usimamizi,mwamali,mshairi,NA,NA,NA,NULL,NA,NA,NA,NA,NA,NA,NA,NA,NA,NA,NA,NA,NA,NA,NA,NA,NA,NA,NA
8.3E+03,Deep Question,html.Page,1_15_0_0,NA,NA,form submission,2523,210556,210555,210572,213095,213095,2023-01-16T11:42:14Z,213123,Vorwurf,mashtaka,s,msukumo,mtangulizi,uenyekiti,NA,NA,NA,NULL,NA,NA,NA,NA,NA,NA,NA,NA,NA,NA,NA,NA,NA,NA,NA,NA,NA,NA,NA
8.3E+03,Save data screen,canvas.Screen,1_15_0_1,NA,NA,timeout,501,213096,213106,213123,213608,213608,2023-01-16T11:42:14Z,213624,Vorwurf,mashtaka,s,msukumo,mtangulizi,uenyekiti,NA,NA,0,NULL,NA,NA,NA,NA,NA,NA,NA,NA,NA,NA,NA,NA,NA,NA,NA,NA,NA,NA,NA
8.3E+03,deep,flow.Sequence,1_15_0,NA,NA,completion,3036,210556,210555,210572,213608,213609,2023-01-16T11:42:14Z,213624,Vorwurf,mashtaka,s,msukumo,mtangulizi,uenyekiti,NA,NA,NA,NULL,NA,NA,NA,NA,NA,NA,NA,NA,NA,NA,NA,NA,NA,NA,NA,NA,NA,NA,NA
8.3E+03,task,flow.Sequence,1_15,NA,NA,completion,3036,210556,210555,210572,213608,213609,2023-01-16T11:42:14Z,213624,Vorwurf,mashtaka,s,msukumo,mtangulizi,uenyekiti,NA,NA,NA,NULL,NA,NA,NA,NA,NA,NA,NA,NA,NA,NA,NA,NA,NA,NA,NA,NA,NA,NA,NA
8.3E+03,retrieval block 1 (cued recall),flow.Loop,1,NA,NA,completion,170025,43550,43567,43583,213608,213609,2023-01-16T11:42:14Z,213624,NA,NA,NA,NA,NA,NA,NA,NA,NA,NULL,NA,NA,NA,NA,NA,NA,NA,NA,NA,NA,NA,NA,NA,NA,NA,NA,NA,NA,NA
8.3E+03,Shallow Question,html.Page,2_0_0_0,NA,NA,form submission,7936,213609,213608,213624,221560,221560,2023-01-16T11:42:22Z,221593,Respekt,heshima,d,changamnao,upinzani,ufanisi,heshima,NA,NA,"c(""distractor1"", ""distractor2"", ""distractor3"")",NA,NA,NA,NA,NA,NA,NA,NA,NA,NA,NA,NA,NA,NA,NA,NA,NA,NA,NA
8.3E+03,Save data screen,canvas.Screen,2_0_0_1,NA,NA,timeout,499,221561,221575,221593,222076,222077,2023-01-16T11:42:23Z,222092,Respekt,heshima,d,changamnao,upinzani,ufanisi,NA,NA,1,"c(""distractor1"", ""distractor2"", ""distractor3"")",NA,NA,NA,NA,NA,NA,NA,NA,NA,NA,NA,NA,NA,NA,NA,NA,NA,NA,NA
8.3E+03,shallow,flow.Sequence,2_0_0,NA,NA,completion,8452,213609,213608,213624,222076,222077,2023-01-16T11:42:23Z,222092,Respekt,heshima,d,changamnao,upinzani,ufanisi,NA,NA,NA,"c(""distractor1"", ""distractor2"", ""distractor3"")",NA,NA,NA,NA,NA,NA,NA,NA,NA,NA,NA,NA,NA,NA,NA,NA,NA,NA,NA
8.3E+03,task,flow.Sequence,2_0,NA,NA,completion,8452,213609,213608,213624,222076,222077,2023-01-16T11:42:23Z,222092,Respekt,heshima,d,changamnao,upinzani,ufanisi,NA,NA,NA,"c(""distractor1"", ""distractor2"", ""distractor3"")",NA,NA,NA,NA,NA,NA,NA,NA,NA,NA,NA,NA,NA,NA,NA,NA,NA,NA,NA
8.3E+03,Shallow Question,html.Page,2_1_0_0,NA,NA,form submission,3375,222077,222076,222092,225467,225467,2023-01-16T11:42:26Z,225493,Betrüger,mdanganyifu,s,mwanamuziki,wastani,mahakama,mdanganyifu,NA,NA,"c(""distractor1"", ""distractor2"", ""distractor3"")",NA,NA,NA,NA,NA,NA,NA,NA,NA,NA,NA,NA,NA,NA,NA,NA,NA,NA,NA
8.3E+03,Save data screen,canvas.Screen,2_1_0_1,NA,NA,timeout,500,225468,225476,225493,225978,225978,2023-01-16T11:42:27Z,225993,Betrüger,mdanganyifu,s,mwanamuziki,wastani,mahakama,NA,NA,1,"c(""distractor1"", ""distractor2"", ""distractor3"")",NA,NA,NA,NA,NA,NA,NA,NA,NA,NA,NA,NA,NA,NA,NA,NA,NA,NA,NA
8.3E+03,shallow,flow.Sequence,2_1_0,NA,NA,completion,3886,222077,222076,222092,225978,225978,2023-01-16T11:42:27Z,225993,Betrüger,mdanganyifu,s,mwanamuziki,wastani,mahakama,NA,NA,NA,"c(""distractor1"", ""distractor2"", ""distractor3"")",NA,NA,NA,NA,NA,NA,NA,NA,NA,NA,NA,NA,NA,NA,NA,NA,NA,NA,NA
8.3E+03,task,flow.Sequence,2_1,NA,NA,completion,3886,222077,222076,222092,225978,225978,2023-01-16T11:42:27Z,225993,Betrüger,mdanganyifu,s,mwanamuziki,wastani,mahakama,NA,NA,NA,"c(""distractor1"", ""distractor2"", ""distractor3"")",NA,NA,NA,NA,NA,NA,NA,NA,NA,NA,NA,NA,NA,NA,NA,NA,NA,NA,NA
8.3E+03,Shallow Question,html.Page,2_2_0_0,NA,NA,form submission,5090,225979,225978,225993,231083,231084,2023-01-16T11:42:32Z,231111,Integrität,uadilifu,d,muungano,mtiririko,upunguaji,uadilifu,NA,NA,"c(""distractor1"", ""distractor2"", ""distractor3"")",NA,NA,NA,NA,NA,NA,NA,NA,NA,NA,NA,NA,NA,NA,NA,NA,NA,NA,NA
8.3E+03,Save data screen,canvas.Screen,2_2_0_1,NA,NA,timeout,501,231084,231094,231111,231595,231595,2023-01-16T11:42:32Z,231612,Integrität,uadilifu,d,muungano,mtiririko,upunguaji,NA,NA,1,"c(""distractor1"", ""distractor2"", ""distractor3"")",NA,NA,NA,NA,NA,NA,NA,NA,NA,NA,NA,NA,NA,NA,NA,NA,NA,NA,NA
8.3E+03,shallow,flow.Sequence,2_2_0,NA,NA,completion,5602,225979,225978,225993,231595,231596,2023-01-16T11:42:32Z,231612,Integrität,uadilifu,d,muungano,mtiririko,upunguaji,NA,NA,NA,"c(""distractor1"", ""distractor2"", ""distractor3"")",NA,NA,NA,NA,NA,NA,NA,NA,NA,NA,NA,NA,NA,NA,NA,NA,NA,NA,NA
8.3E+03,task,flow.Sequence,2_2,NA,NA,completion,5602,225979,225978,225993,231595,231596,2023-01-16T11:42:32Z,231612,Integrität,uadilifu,d,muungano,mtiririko,upunguaji,NA,NA,NA,"c(""distractor1"", ""distractor2"", ""distractor3"")",NA,NA,NA,NA,NA,NA,NA,NA,NA,NA,NA,NA,NA,NA,NA,NA,NA,NA,NA
8.3E+03,Shallow Question,html.Page,2_3_0_0,NA,NA,form submission,3660,231596,231595,231612,235272,235273,2023-01-16T11:42:36Z,235295,Papier,karatasi,d,uchambuzi,usalama,kukataliwa,karatasi,NA,NA,"c(""distractor1"", ""distractor2"", ""distractor3"")",NA,NA,NA,NA,NA,NA,NA,NA,NA,NA,NA,NA,NA,NA,NA,NA,NA,NA,NA
8.3E+03,Save data screen,canvas.Screen,2_3_0_1,NA,NA,timeout,500,235274,235278,235295,235779,235780,2023-01-16T11:42:37Z,235795,Papier,karatasi,d,uchambuzi,usalama,kukataliwa,NA,NA,1,"c(""distractor1"", ""distractor2"", ""distractor3"")",NA,NA,NA,NA,NA,NA,NA,NA,NA,NA,NA,NA,NA,NA,NA,NA,NA,NA,NA
8.3E+03,shallow,flow.Sequence,2_3_0,NA,NA,completion,4167,231596,231595,231612,235779,235780,2023-01-16T11:42:37Z,235795,Papier,karatasi,d,uchambuzi,usalama,kukataliwa,NA,NA,NA,"c(""distractor1"", ""distractor2"", ""distractor3"")",NA,NA,NA,NA,NA,NA,NA,NA,NA,NA,NA,NA,NA,NA,NA,NA,NA,NA,NA
8.3E+03,task,flow.Sequence,2_3,NA,NA,completion,4167,231596,231595,231612,235779,235780,2023-01-16T11:42:37Z,235795,Papier,karatasi,d,uchambuzi,usalama,kukataliwa,NA,NA,NA,"c(""distractor1"", ""distractor2"", ""distractor3"")",NA,NA,NA,NA,NA,NA,NA,NA,NA,NA,NA,NA,NA,NA,NA,NA,NA,NA,NA
8.3E+03,Shallow Question,html.Page,2_4_0_0,NA,NA,form submission,4590,235780,235779,235795,240385,240385,2023-01-16T11:42:41Z,240413,Niveau,kiwango,d,usimamizi,mwamali,mshairi,kiwango,NA,NA,"c(""distractor1"", ""distractor2"", ""distractor3"")",NA,NA,NA,NA,NA,NA,NA,NA,NA,NA,NA,NA,NA,NA,NA,NA,NA,NA,NA
8.3E+03,Save data screen,canvas.Screen,2_4_0_1,NA,NA,timeout,500,240386,240397,240413,240897,240897,2023-01-16T11:42:42Z,240913,Niveau,kiwango,d,usimamizi,mwamali,mshairi,NA,NA,1,"c(""distractor1"", ""distractor2"", ""distractor3"")",NA,NA,NA,NA,NA,NA,NA,NA,NA,NA,NA,NA,NA,NA,NA,NA,NA,NA,NA
8.3E+03,shallow,flow.Sequence,2_4_0,NA,NA,completion,5102,235780,235779,235795,240897,240897,2023-01-16T11:42:42Z,240913,Niveau,kiwango,d,usimamizi,mwamali,mshairi,NA,NA,NA,"c(""distractor1"", ""distractor2"", ""distractor3"")",NA,NA,NA,NA,NA,NA,NA,NA,NA,NA,NA,NA,NA,NA,NA,NA,NA,NA,NA
8.3E+03,task,flow.Sequence,2_4,NA,NA,completion,5102,235780,235779,235795,240897,240898,2023-01-16T11:42:42Z,240913,Niveau,kiwango,d,usimamizi,mwamali,mshairi,NA,NA,NA,"c(""distractor1"", ""distractor2"", ""distractor3"")",NA,NA,NA,NA,NA,NA,NA,NA,NA,NA,NA,NA,NA,NA,NA,NA,NA,NA,NA
8.3E+03,Shallow Question,html.Page,2_5_0_0,NA,NA,form submission,4540,240898,240897,240913,245453,245454,2023-01-16T11:42:46Z,245481,Flexibilität,kubadilika,s,enjini,usikilivu,hesabu,kubadilika,NA,NA,"c(""distractor1"", ""distractor2"", ""distractor3"")",NA,NA,NA,NA,NA,NA,NA,NA,NA,NA,NA,NA,NA,NA,NA,NA,NA,NA,NA
8.3E+03,Save data screen,canvas.Screen,2_5_0_1,NA,NA,timeout,500,245455,245464,245481,245965,245966,2023-01-16T11:42:47Z,245981,Flexibilität,kubadilika,s,enjini,usikilivu,hesabu,NA,NA,1,"c(""distractor1"", ""distractor2"", ""distractor3"")",NA,NA,NA,NA,NA,NA,NA,NA,NA,NA,NA,NA,NA,NA,NA,NA,NA,NA,NA
8.3E+03,shallow,flow.Sequence,2_5_0,NA,NA,completion,5052,240898,240897,240913,245965,245966,2023-01-16T11:42:47Z,245981,Flexibilität,kubadilika,s,enjini,usikilivu,hesabu,NA,NA,NA,"c(""distractor1"", ""distractor2"", ""distractor3"")",NA,NA,NA,NA,NA,NA,NA,NA,NA,NA,NA,NA,NA,NA,NA,NA,NA,NA,NA
8.3E+03,task,flow.Sequence,2_5,NA,NA,completion,5052,240898,240897,240913,245965,245966,2023-01-16T11:42:47Z,245981,Flexibilität,kubadilika,s,enjini,usikilivu,hesabu,NA,NA,NA,"c(""distractor1"", ""distractor2"", ""distractor3"")",NA,NA,NA,NA,NA,NA,NA,NA,NA,NA,NA,NA,NA,NA,NA,NA,NA,NA,NA
8.3E+03,Shallow Question,html.Page,2_6_0_0,NA,NA,form submission,3227,245966,245965,245981,249208,249208,2023-01-16T11:42:50Z,249231,Stimmung,kinyongo,s,kilekile,kisambo,madhehebu,kinyongo,NA,NA,"c(""distractor1"", ""distractor2"", ""distractor3"")",NA,NA,NA,NA,NA,NA,NA,NA,NA,NA,NA,NA,NA,NA,NA,NA,NA,NA,NA
8.3E+03,Save data screen,canvas.Screen,2_6_0_1,NA,NA,timeout,500,249209,249215,249231,249715,249715,2023-01-16T11:42:51Z,249731,Stimmung,kinyongo,s,kilekile,kisambo,madhehebu,NA,NA,1,"c(""distractor1"", ""distractor2"", ""distractor3"")",NA,NA,NA,NA,NA,NA,NA,NA,NA,NA,NA,NA,NA,NA,NA,NA,NA,NA,NA
8.3E+03,shallow,flow.Sequence,2_6_0,NA,NA,completion,3734,245966,245965,245981,249715,249716,2023-01-16T11:42:51Z,249731,Stimmung,kinyongo,s,kilekile,kisambo,madhehebu,NA,NA,NA,"c(""distractor1"", ""distractor2"", ""distractor3"")",NA,NA,NA,NA,NA,NA,NA,NA,NA,NA,NA,NA,NA,NA,NA,NA,NA,NA,NA
8.3E+03,task,flow.Sequence,2_6,NA,NA,completion,3734,245966,245965,245981,249715,249716,2023-01-16T11:42:51Z,249731,Stimmung,kinyongo,s,kilekile,kisambo,madhehebu,NA,NA,NA,"c(""distractor1"", ""distractor2"", ""distractor3"")",NA,NA,NA,NA,NA,NA,NA,NA,NA,NA,NA,NA,NA,NA,NA,NA,NA,NA,NA
8.3E+03,Shallow Question,html.Page,2_7_0_0,NA,NA,form submission,9242,249716,249715,249731,258973,258974,2023-01-16T11:43:00Z,259000,Begegnung,kukutana,s,mmasihiya,mpiganaji,husiano,kukutana,NA,NA,"c(""distractor1"", ""distractor2"", ""distractor3"")",NA,NA,NA,NA,NA,NA,NA,NA,NA,NA,NA,NA,NA,NA,NA,NA,NA,NA,NA
8.3E+03,Save data screen,canvas.Screen,2_7_0_1,NA,NA,timeout,500,258975,258984,259000,259484,259485,2023-01-16T11:43:00Z,259500,Begegnung,kukutana,s,mmasihiya,mpiganaji,husiano,NA,NA,1,"c(""distractor1"", ""distractor2"", ""distractor3"")",NA,NA,NA,NA,NA,NA,NA,NA,NA,NA,NA,NA,NA,NA,NA,NA,NA,NA,NA
8.3E+03,shallow,flow.Sequence,2_7_0,NA,NA,completion,9753,249716,249715,249731,259484,259485,2023-01-16T11:43:00Z,259500,Begegnung,kukutana,s,mmasihiya,mpiganaji,husiano,NA,NA,NA,"c(""distractor1"", ""distractor2"", ""distractor3"")",NA,NA,NA,NA,NA,NA,NA,NA,NA,NA,NA,NA,NA,NA,NA,NA,NA,NA,NA
8.3E+03,task,flow.Sequence,2_7,NA,NA,completion,9753,249716,249715,249731,259484,259485,2023-01-16T11:43:00Z,259500,Begegnung,kukutana,s,mmasihiya,mpiganaji,husiano,NA,NA,NA,"c(""distractor1"", ""distractor2"", ""distractor3"")",NA,NA,NA,NA,NA,NA,NA,NA,NA,NA,NA,NA,NA,NA,NA,NA,NA,NA,NA
8.3E+03,Shallow Question,html.Page,2_8_0_0,NA,NA,form submission,4224,259486,259484,259500,263724,263724,2023-01-16T11:43:05Z,263751,Wechsel,ugeuzaji,d,utambulisho,kujenga,wasiwasi,ugeuzaji,NA,NA,"c(""distractor1"", ""distractor2"", ""distractor3"")",NA,NA,NA,NA,NA,NA,NA,NA,NA,NA,NA,NA,NA,NA,NA,NA,NA,NA,NA
8.3E+03,Save data screen,canvas.Screen,2_8_0_1,NA,NA,timeout,501,263725,263735,263751,264235,264235,2023-01-16T11:43:05Z,264252,Wechsel,ugeuzaji,d,utambulisho,kujenga,wasiwasi,NA,NA,1,"c(""distractor1"", ""distractor2"", ""distractor3"")",NA,NA,NA,NA,NA,NA,NA,NA,NA,NA,NA,NA,NA,NA,NA,NA,NA,NA,NA
8.3E+03,shallow,flow.Sequence,2_8_0,NA,NA,completion,4735,259486,259484,259500,264235,264236,2023-01-16T11:43:05Z,264252,Wechsel,ugeuzaji,d,utambulisho,kujenga,wasiwasi,NA,NA,NA,"c(""distractor1"", ""distractor2"", ""distractor3"")",NA,NA,NA,NA,NA,NA,NA,NA,NA,NA,NA,NA,NA,NA,NA,NA,NA,NA,NA
8.3E+03,task,flow.Sequence,2_8,NA,NA,completion,4735,259485,259484,259500,264235,264236,2023-01-16T11:43:05Z,264252,Wechsel,ugeuzaji,d,utambulisho,kujenga,wasiwasi,NA,NA,NA,"c(""distractor1"", ""distractor2"", ""distractor3"")",NA,NA,NA,NA,NA,NA,NA,NA,NA,NA,NA,NA,NA,NA,NA,NA,NA,NA,NA
8.3E+03,Shallow Question,html.Page,2_9_0_0,NA,NA,form submission,5293,264236,264235,264252,269545,269545,2023-01-16T11:43:10Z,269568,Genehmigung,idhini,s,mwanamke,itikadi,fedheha,idhini,NA,NA,"c(""distractor1"", ""distractor2"", ""distractor3"")",NA,NA,NA,NA,NA,NA,NA,NA,NA,NA,NA,NA,NA,NA,NA,NA,NA,NA,NA
8.3E+03,Save data screen,canvas.Screen,2_9_0_1,NA,NA,timeout,501,269546,269552,269568,270053,270053,2023-01-16T11:43:11Z,270069,Genehmigung,idhini,s,mwanamke,itikadi,fedheha,NA,NA,1,"c(""distractor1"", ""distractor2"", ""distractor3"")",NA,NA,NA,NA,NA,NA,NA,NA,NA,NA,NA,NA,NA,NA,NA,NA,NA,NA,NA
8.3E+03,shallow,flow.Sequence,2_9_0,NA,NA,completion,5801,264236,264235,264252,270053,270053,2023-01-16T11:43:11Z,270069,Genehmigung,idhini,s,mwanamke,itikadi,fedheha,NA,NA,NA,"c(""distractor1"", ""distractor2"", ""distractor3"")",NA,NA,NA,NA,NA,NA,NA,NA,NA,NA,NA,NA,NA,NA,NA,NA,NA,NA,NA
8.3E+03,task,flow.Sequence,2_9,NA,NA,completion,5801,264236,264235,264252,270053,270054,2023-01-16T11:43:11Z,270069,Genehmigung,idhini,s,mwanamke,itikadi,fedheha,NA,NA,NA,"c(""distractor1"", ""distractor2"", ""distractor3"")",NA,NA,NA,NA,NA,NA,NA,NA,NA,NA,NA,NA,NA,NA,NA,NA,NA,NA,NA
8.3E+03,Shallow Question,html.Page,2_10_0_0,NA,NA,form submission,4828,270054,270053,270069,274897,274898,2023-01-16T11:43:16Z,274919,Erneuerung,ukarabati,d,ushawishi,ukalifu,unyonyaji,ukarabati,NA,NA,"c(""distractor1"", ""distractor2"", ""distractor3"")",NA,NA,NA,NA,NA,NA,NA,NA,NA,NA,NA,NA,NA,NA,NA,NA,NA,NA,NA
8.3E+03,Save data screen,canvas.Screen,2_10_0_1,NA,NA,timeout,500,274898,274903,274919,275402,275402,2023-01-16T11:43:16Z,275419,Erneuerung,ukarabati,d,ushawishi,ukalifu,unyonyaji,NA,NA,1,"c(""distractor1"", ""distractor2"", ""distractor3"")",NA,NA,NA,NA,NA,NA,NA,NA,NA,NA,NA,NA,NA,NA,NA,NA,NA,NA,NA
8.3E+03,shallow,flow.Sequence,2_10_0,NA,NA,completion,5333,270054,270053,270069,275402,275403,2023-01-16T11:43:16Z,275419,Erneuerung,ukarabati,d,ushawishi,ukalifu,unyonyaji,NA,NA,NA,"c(""distractor1"", ""distractor2"", ""distractor3"")",NA,NA,NA,NA,NA,NA,NA,NA,NA,NA,NA,NA,NA,NA,NA,NA,NA,NA,NA
8.3E+03,task,flow.Sequence,2_10,NA,NA,completion,5333,270054,270053,270069,275402,275403,2023-01-16T11:43:16Z,275419,Erneuerung,ukarabati,d,ushawishi,ukalifu,unyonyaji,NA,NA,NA,"c(""distractor1"", ""distractor2"", ""distractor3"")",NA,NA,NA,NA,NA,NA,NA,NA,NA,NA,NA,NA,NA,NA,NA,NA,NA,NA,NA
8.3E+03,Shallow Question,html.Page,2_11_0_0,NA,NA,form submission,4223,275403,275402,275419,279642,279643,2023-01-16T11:43:20Z,279671,Vorwurf,mashtaka,s,msukumo,mtangulizi,uenyekiti,mashtaka,NA,NA,"c(""distractor1"", ""distractor2"", ""distractor3"")",NA,NA,NA,NA,NA,NA,NA,NA,NA,NA,NA,NA,NA,NA,NA,NA,NA,NA,NA
8.3E+03,Save data screen,canvas.Screen,2_11_0_1,NA,NA,timeout,499,279644,279653,279671,280154,280154,2023-01-16T11:43:21Z,280170,Vorwurf,mashtaka,s,msukumo,mtangulizi,uenyekiti,NA,NA,1,"c(""distractor1"", ""distractor2"", ""distractor3"")",NA,NA,NA,NA,NA,NA,NA,NA,NA,NA,NA,NA,NA,NA,NA,NA,NA,NA,NA
8.3E+03,shallow,flow.Sequence,2_11_0,NA,NA,completion,4735,275403,275402,275419,280154,280154,2023-01-16T11:43:21Z,280170,Vorwurf,mashtaka,s,msukumo,mtangulizi,uenyekiti,NA,NA,NA,"c(""distractor1"", ""distractor2"", ""distractor3"")",NA,NA,NA,NA,NA,NA,NA,NA,NA,NA,NA,NA,NA,NA,NA,NA,NA,NA,NA
8.3E+03,task,flow.Sequence,2_11,NA,NA,completion,4735,275403,275402,275419,280154,280155,2023-01-16T11:43:21Z,280170,Vorwurf,mashtaka,s,msukumo,mtangulizi,uenyekiti,NA,NA,NA,"c(""distractor1"", ""distractor2"", ""distractor3"")",NA,NA,NA,NA,NA,NA,NA,NA,NA,NA,NA,NA,NA,NA,NA,NA,NA,NA,NA
8.3E+03,Shallow Question,html.Page,2_12_0_0,NA,NA,form submission,6575,280155,280154,280170,286745,286745,2023-01-16T11:43:28Z,286772,Atmosphäre,angahewa,s,kuteseka,usahihi,kutoamini,angahewa,NA,NA,"c(""distractor1"", ""distractor2"", ""distractor3"")",NA,NA,NA,NA,NA,NA,NA,NA,NA,NA,NA,NA,NA,NA,NA,NA,NA,NA,NA
8.3E+03,Save data screen,canvas.Screen,2_12_0_1,NA,NA,timeout,500,286747,286756,286772,287256,287256,2023-01-16T11:43:28Z,287272,Atmosphäre,angahewa,s,kuteseka,usahihi,kutoamini,NA,NA,1,"c(""distractor1"", ""distractor2"", ""distractor3"")",NA,NA,NA,NA,NA,NA,NA,NA,NA,NA,NA,NA,NA,NA,NA,NA,NA,NA,NA
8.3E+03,shallow,flow.Sequence,2_12_0,NA,NA,completion,7086,280155,280154,280170,287256,287257,2023-01-16T11:43:28Z,287272,Atmosphäre,angahewa,s,kuteseka,usahihi,kutoamini,NA,NA,NA,"c(""distractor1"", ""distractor2"", ""distractor3"")",NA,NA,NA,NA,NA,NA,NA,NA,NA,NA,NA,NA,NA,NA,NA,NA,NA,NA,NA
8.3E+03,task,flow.Sequence,2_12,NA,NA,completion,7086,280155,280154,280170,287256,287257,2023-01-16T11:43:28Z,287272,Atmosphäre,angahewa,s,kuteseka,usahihi,kutoamini,NA,NA,NA,"c(""distractor1"", ""distractor2"", ""distractor3"")",NA,NA,NA,NA,NA,NA,NA,NA,NA,NA,NA,NA,NA,NA,NA,NA,NA,NA,NA
8.3E+03,Shallow Question,html.Page,2_13_0_0,NA,NA,form submission,9708,287257,287256,287272,296980,296980,2023-01-16T11:43:38Z,297007,Orientierung,urekebisho,d,uelekeo,marekebisho,utunzaji,urekebisho,NA,NA,"c(""distractor1"", ""distractor2"", ""distractor3"")",NA,NA,NA,NA,NA,NA,NA,NA,NA,NA,NA,NA,NA,NA,NA,NA,NA,NA,NA
8.3E+03,Save data screen,canvas.Screen,2_13_0_1,NA,NA,timeout,501,296981,296991,297007,297492,297492,2023-01-16T11:43:38Z,297508,Orientierung,urekebisho,d,uelekeo,marekebisho,utunzaji,NA,NA,1,"c(""distractor1"", ""distractor2"", ""distractor3"")",NA,NA,NA,NA,NA,NA,NA,NA,NA,NA,NA,NA,NA,NA,NA,NA,NA,NA,NA
8.3E+03,shallow,flow.Sequence,2_13_0,NA,NA,completion,10220,287257,287256,287272,297492,297493,2023-01-16T11:43:38Z,297508,Orientierung,urekebisho,d,uelekeo,marekebisho,utunzaji,NA,NA,NA,"c(""distractor1"", ""distractor2"", ""distractor3"")",NA,NA,NA,NA,NA,NA,NA,NA,NA,NA,NA,NA,NA,NA,NA,NA,NA,NA,NA
8.3E+03,task,flow.Sequence,2_13,NA,NA,completion,10220,287257,287256,287272,297492,297493,2023-01-16T11:43:38Z,297508,Orientierung,urekebisho,d,uelekeo,marekebisho,utunzaji,NA,NA,NA,"c(""distractor1"", ""distractor2"", ""distractor3"")",NA,NA,NA,NA,NA,NA,NA,NA,NA,NA,NA,NA,NA,NA,NA,NA,NA,NA,NA
8.3E+03,Shallow Question,html.Page,2_14_0_0,NA,NA,form submission,2622,297493,297492,297508,300130,300130,2023-01-16T11:43:41Z,300158,Fleisch,mshakiki,d,kizunguzungu,mshikamano,angusho,mshakiki,NA,NA,"c(""distractor1"", ""distractor2"", ""distractor3"")",NA,NA,NA,NA,NA,NA,NA,NA,NA,NA,NA,NA,NA,NA,NA,NA,NA,NA,NA
8.3E+03,Save data screen,canvas.Screen,2_14_0_1,NA,NA,timeout,500,300131,300142,300158,300641,300641,2023-01-16T11:43:41Z,300658,Fleisch,mshakiki,d,kizunguzungu,mshikamano,angusho,NA,NA,1,"c(""distractor1"", ""distractor2"", ""distractor3"")",NA,NA,NA,NA,NA,NA,NA,NA,NA,NA,NA,NA,NA,NA,NA,NA,NA,NA,NA
8.3E+03,shallow,flow.Sequence,2_14_0,NA,NA,completion,3133,297493,297492,297508,300641,300642,2023-01-16T11:43:41Z,300658,Fleisch,mshakiki,d,kizunguzungu,mshikamano,angusho,NA,NA,NA,"c(""distractor1"", ""distractor2"", ""distractor3"")",NA,NA,NA,NA,NA,NA,NA,NA,NA,NA,NA,NA,NA,NA,NA,NA,NA,NA,NA
8.3E+03,task,flow.Sequence,2_14,NA,NA,completion,3133,297493,297492,297508,300641,300642,2023-01-16T11:43:41Z,300658,Fleisch,mshakiki,d,kizunguzungu,mshikamano,angusho,NA,NA,NA,"c(""distractor1"", ""distractor2"", ""distractor3"")",NA,NA,NA,NA,NA,NA,NA,NA,NA,NA,NA,NA,NA,NA,NA,NA,NA,NA,NA
8.3E+03,Shallow Question,html.Page,2_15_0_0,NA,NA,form submission,2723,300642,300641,300658,303381,303381,2023-01-16T11:43:44Z,303408,Entwicklung,maendeleo,s,uangavu,mshindwa,badiliko,maendeleo,NA,NA,"c(""distractor1"", ""distractor2"", ""distractor3"")",NA,NA,NA,NA,NA,NA,NA,NA,NA,NA,NA,NA,NA,NA,NA,NA,NA,NA,NA
8.3E+03,Save data screen,canvas.Screen,2_15_0_1,NA,NA,timeout,500,303383,303391,303408,303892,303892,2023-01-16T11:43:45Z,303908,Entwicklung,maendeleo,s,uangavu,mshindwa,badiliko,NA,NA,1,"c(""distractor1"", ""distractor2"", ""distractor3"")",NA,NA,NA,NA,NA,NA,NA,NA,NA,NA,NA,NA,NA,NA,NA,NA,NA,NA,NA
8.3E+03,shallow,flow.Sequence,2_15_0,NA,NA,completion,3234,300642,300641,300658,303892,303893,2023-01-16T11:43:45Z,303908,Entwicklung,maendeleo,s,uangavu,mshindwa,badiliko,NA,NA,NA,"c(""distractor1"", ""distractor2"", ""distractor3"")",NA,NA,NA,NA,NA,NA,NA,NA,NA,NA,NA,NA,NA,NA,NA,NA,NA,NA,NA
8.3E+03,task,flow.Sequence,2_15,NA,NA,completion,3234,300642,300641,300658,303892,303893,2023-01-16T11:43:45Z,303908,Entwicklung,maendeleo,s,uangavu,mshindwa,badiliko,NA,NA,NA,"c(""distractor1"", ""distractor2"", ""distractor3"")",NA,NA,NA,NA,NA,NA,NA,NA,NA,NA,NA,NA,NA,NA,NA,NA,NA,NA,NA
8.3E+03,retrieval block 2 (multiple choice),flow.Loop,2,NA,NA,completion,90268,213609,213608,213624,303892,303893,2023-01-16T11:43:45Z,303908,NA,NA,NA,NA,NA,NA,NA,NA,NA,"c(""distractor1"", ""distractor2"", ""distractor3"")",NA,NA,NA,NA,NA,NA,NA,NA,NA,NA,NA,NA,NA,NA,NA,NA,NA,NA,NA
8.3E+03,End,canvas.Screen,3,NA,keypress(Space),response,1285,303893,303892,303908,305177,305180,2023-01-16T11:43:46Z,305209,NA,NA,NA,NA,NA,NA,NA,NA,NA,NULL,NA,NA,NA,NA,NA,NA,NA,NA,NA,NA,NA,NA,NA,NA,NA,NA,NA,NA,NA
8.3E+03,root,flow.Sequence,NA,NA,NA,completion,304775,363,369,402,305177,305180,2023-01-16T11:43:46Z,305209,NA,NA,NA,NA,NA,NA,NA,NA,NA,NULL,NA,NA,NA,NA,NA,NA,NA,NA,NA,NA,NA,NA,NA,NA,NA,NA,NA,NA,NA