observation,sender,sender_type,sender_id,response,response_action,ended_on,duration,time_run,time_render,time_show,time_end,time_commit,timestamp,time_switch,distractors,german,swahili,enc,distractor1,distractor2,distractor3,response_2,x,correct,x_2,url_vp,url_sess,meta_labjs_version,meta_location,meta_user_agent,meta_platform,meta_language,meta_locale,meta_time_zone,meta_timezone_offset,meta_screen_width,meta_screen_height,meta_scroll_width,meta_scroll_height,meta_window_inner_width,meta_window_inner_height,meta_device_pixel_ratio,meta_labjs_build_flavor,meta_labjs_build_commit
0ccb7,Introduction general,canvas.Screen,0,weiter,keypress(q),response,1612178.911,582.69999998808,899.451,932.789,1613111.7,1613114.3,2023-01-28T16:59:45Z,1613116.244,NULL,NA,NA,NA,NA,NA,NA,NA,NA,NA,NA,106,3,20.2.4,https://neurocog.fernuni.ch/studies/vweber/encoding_immediate/index.html?vp=106&sess=3,"Mozilla/5.0 (Macintosh; Intel Mac OS X 10_15_7) AppleWebKit/537.36 (KHTML, like Gecko) Chrome/109.0.0.0 Safari/537.36",MacIntel,de-DE,de,Europe/Zurich,-60,1440,900,1440,748,1440,796,2,production,f5b4a49f956347addd546a832a3327688c2c0fef
0ccb7,Introduction practice,canvas.Screen,1_0,NA,keypress(Space),response,3971.556000012,1613114.6,1613099.575,1613116.244,1617087.8,1617090,2023-01-28T16:59:49Z,1617101.045,NULL,NA,NA,NA,NA,NA,NA,NA,NA,NA,NA,NA,NA,NA,NA,NA,NA,NA,NA,NA,NA,NA,NA,NA,NA,NA,NA,NA,NA,NA
0ccb7,Deep Question,html.Page,1_1_0_0_0,NA,NA,form submission,4993.6549999882,1617090.2,1617084.376,1617101.045,1622094.7,1622094.9,2023-01-28T16:59:54Z,1622101.745,"c(""distractor1"", ""distractor2"", ""distractor3"")",Gesundheit,salama,d,NA,NA,NA,a,NA,NA,NA,NA,NA,NA,NA,NA,NA,NA,NA,NA,NA,NA,NA,NA,NA,NA,NA,NA,NA,NA
0ccb7,"""Richtig""-Screen",canvas.Screen,1_1_0_0_1,NA,NA,skipped,NA,1622096.1,NA,NA,1622094.7,1622096.3,2023-01-28T16:59:54Z,1622101.745,"c(""distractor1"", ""distractor2"", ""distractor3"")",Gesundheit,salama,d,NA,NA,NA,NA,NA,NA,NA,NA,NA,NA,NA,NA,NA,NA,NA,NA,NA,NA,NA,NA,NA,NA,NA,NA,NA,NA
0ccb7,"""Falsch""-Screen",canvas.Screen,1_1_0_0_2,NA,NA,timeout,5000.7,1622097.1,1622085.076,1622101.745,1627085.776,1627089.1,2023-01-28T16:59:59Z,1627102.445,"c(""distractor1"", ""distractor2"", ""distractor3"")",Gesundheit,salama,d,NA,NA,NA,NA,NA,0,NA,NA,NA,NA,NA,NA,NA,NA,NA,NA,NA,NA,NA,NA,NA,NA,NA,NA,NA,NA
0ccb7,deep,flow.Sequence,1_1_0_0,NA,NA,completion,9984.7310000001,1617090.1,1617084.376,1617101.045,1627085.776,1627089.4,2023-01-28T16:59:59Z,1627102.445,"c(""distractor1"", ""distractor2"", ""distractor3"")",Gesundheit,salama,d,NA,NA,NA,NA,NA,NA,NA,NA,NA,NA,NA,NA,NA,NA,NA,NA,NA,NA,NA,NA,NA,NA,NA,NA,NA,NA
0ccb7,shallow,flow.Sequence,1_1_0_1,NA,NA,skipped,NA,1627089.4,NA,NA,1627085.776,1627089.6,2023-01-28T16:59:59Z,1627102.445,"c(""distractor1"", ""distractor2"", ""distractor3"")",Gesundheit,salama,d,NA,NA,NA,NA,NA,NA,NA,NA,NA,NA,NA,NA,NA,NA,NA,NA,NA,NA,NA,NA,NA,NA,NA,NA,NA,NA
0ccb7,task,flow.Sequence,1_1_0,NA,NA,completion,9984.7310000001,1617090.1,1617084.376,1617101.045,1627085.776,1627089.9,2023-01-28T16:59:59Z,1627102.445,"c(""distractor1"", ""distractor2"", ""distractor3"")",Gesundheit,salama,d,NA,NA,NA,NA,NA,NA,NA,NA,NA,NA,NA,NA,NA,NA,NA,NA,NA,NA,NA,NA,NA,NA,NA,NA,NA,NA
0ccb7,deep,flow.Sequence,1_1_1_0,NA,NA,skipped,NA,1627089.9,NA,NA,1627085.776,1627090,2023-01-28T16:59:59Z,1627102.445,"c(""distractor1"", ""distractor2"", ""distractor3"")",Kritik,lawama,s,dereva,nafasi,mawazo,NA,NA,NA,NA,NA,NA,NA,NA,NA,NA,NA,NA,NA,NA,NA,NA,NA,NA,NA,NA,NA,NA,NA
0ccb7,Shallow Question,html.Page,1_1_1_1_0,NA,NA,form submission,2409.3550000119,1627090.2,1627085.776,1627102.445,1629511.8,1629512.1,2023-01-28T17:00:02Z,1629521.416,"c(""distractor1"", ""distractor2"", ""distractor3"")",Kritik,lawama,s,dereva,nafasi,mawazo,lawama,NA,NA,NA,NA,NA,NA,NA,NA,NA,NA,NA,NA,NA,NA,NA,NA,NA,NA,NA,NA,NA,NA
0ccb7,"""Richtig""-Screen",canvas.Screen,1_1_1_1_1,NA,NA,timeout,5000.7,1629512.9,1629504.747,1629521.416,1634505.447,1634507.6,2023-01-28T17:00:07Z,1634522.116,"c(""distractor1"", ""distractor2"", ""distractor3"")",Kritik,lawama,s,dereva,nafasi,mawazo,NA,NA,1,NA,NA,NA,NA,NA,NA,NA,NA,NA,NA,NA,NA,NA,NA,NA,NA,NA,NA,NA,NA
0ccb7,"""Falsch""-Screen",canvas.Screen,1_1_1_1_2,NA,NA,skipped,NA,1634509.9,NA,NA,1634505.447,1634510.1,2023-01-28T17:00:07Z,1634522.116,"c(""distractor1"", ""distractor2"", ""distractor3"")",Kritik,lawama,s,dereva,nafasi,mawazo,NA,NA,NA,NA,NA,NA,NA,NA,NA,NA,NA,NA,NA,NA,NA,NA,NA,NA,NA,NA,NA,NA,NA
0ccb7,shallow,flow.Sequence,1_1_1_1,NA,NA,completion,7403.0019999999,1627090.2,1627085.776,1627102.445,1634505.447,1634510.3,2023-01-28T17:00:07Z,1634522.116,"c(""distractor1"", ""distractor2"", ""distractor3"")",Kritik,lawama,s,dereva,nafasi,mawazo,NA,NA,NA,NA,NA,NA,NA,NA,NA,NA,NA,NA,NA,NA,NA,NA,NA,NA,NA,NA,NA,NA,NA
0ccb7,task,flow.Sequence,1_1_1,NA,NA,completion,7403.0019999999,1627089.9,1627085.776,1627102.445,1634505.447,1634510.3,2023-01-28T17:00:07Z,1634522.116,"c(""distractor1"", ""distractor2"", ""distractor3"")",Kritik,lawama,s,dereva,nafasi,mawazo,NA,NA,NA,NA,NA,NA,NA,NA,NA,NA,NA,NA,NA,NA,NA,NA,NA,NA,NA,NA,NA,NA,NA
0ccb7,deep,flow.Sequence,1_1_2_0,NA,NA,skipped,NA,1634510.5,NA,NA,1634505.447,1634510.6,2023-01-28T17:00:07Z,1634522.116,"c(""distractor1"", ""distractor2"", ""distractor3"")",Rückhalt,msaada,s,muhula,auwali,kiwimbe,NA,NA,NA,NA,NA,NA,NA,NA,NA,NA,NA,NA,NA,NA,NA,NA,NA,NA,NA,NA,NA,NA,NA
0ccb7,Shallow Question,html.Page,1_1_2_1_0,NA,NA,form submission,1607.9839999941,1634510.6,1634505.447,1634522.116,1636130.1,1636130.3,2023-01-28T17:00:08Z,1636139.009,"c(""distractor1"", ""distractor2"", ""distractor3"")",Rückhalt,msaada,s,muhula,auwali,kiwimbe,auwali,NA,NA,NA,NA,NA,NA,NA,NA,NA,NA,NA,NA,NA,NA,NA,NA,NA,NA,NA,NA,NA,NA
0ccb7,"""Richtig""-Screen",canvas.Screen,1_1_2_1_1,NA,NA,skipped,NA,1636130.9,NA,NA,1636130.1,1636131,2023-01-28T17:00:08Z,1636139.009,"c(""distractor1"", ""distractor2"", ""distractor3"")",Rückhalt,msaada,s,muhula,auwali,kiwimbe,NA,NA,NA,NA,NA,NA,NA,NA,NA,NA,NA,NA,NA,NA,NA,NA,NA,NA,NA,NA,NA,NA,NA
0ccb7,"""Falsch""-Screen",canvas.Screen,1_1_2_1_2,NA,NA,timeout,5000.7,1636131.7,1636122.34,1636139.009,1641123.04,1641124.6,2023-01-28T17:00:13Z,1641139.709,"c(""distractor1"", ""distractor2"", ""distractor3"")",Rückhalt,msaada,s,muhula,auwali,kiwimbe,NA,NA,0,NA,NA,NA,NA,NA,NA,NA,NA,NA,NA,NA,NA,NA,NA,NA,NA,NA,NA,NA,NA
0ccb7,shallow,flow.Sequence,1_1_2_1,NA,NA,completion,6600.9240000001,1634510.6,1634505.447,1634522.116,1641123.04,1641124.7,2023-01-28T17:00:13Z,1641139.709,"c(""distractor1"", ""distractor2"", ""distractor3"")",Rückhalt,msaada,s,muhula,auwali,kiwimbe,NA,NA,NA,NA,NA,NA,NA,NA,NA,NA,NA,NA,NA,NA,NA,NA,NA,NA,NA,NA,NA,NA,NA
0ccb7,task,flow.Sequence,1_1_2,NA,NA,completion,6600.9240000001,1634510.5,1634505.447,1634522.116,1641123.04,1641124.9,2023-01-28T17:00:13Z,1641139.709,"c(""distractor1"", ""distractor2"", ""distractor3"")",Rückhalt,msaada,s,muhula,auwali,kiwimbe,NA,NA,NA,NA,NA,NA,NA,NA,NA,NA,NA,NA,NA,NA,NA,NA,NA,NA,NA,NA,NA,NA,NA
0ccb7,Deep Question,html.Page,1_1_3_0_0,NA,NA,form submission,3030.490999988,1641125,1641123.04,1641139.709,1644170.2,1644170.3,2023-01-28T17:00:17Z,1644174.943,"c(""distractor1"", ""distractor2"", ""distractor3"")",Qualität,mtindo,d,NA,NA,NA,a,NA,NA,NA,NA,NA,NA,NA,NA,NA,NA,NA,NA,NA,NA,NA,NA,NA,NA,NA,NA,NA,NA
0ccb7,"""Richtig""-Screen",canvas.Screen,1_1_3_0_1,NA,NA,skipped,NA,1644172,NA,NA,1644170.2,1644172.1,2023-01-28T17:00:17Z,1644174.943,"c(""distractor1"", ""distractor2"", ""distractor3"")",Qualität,mtindo,d,NA,NA,NA,NA,NA,NA,NA,NA,NA,NA,NA,NA,NA,NA,NA,NA,NA,NA,NA,NA,NA,NA,NA,NA,NA,NA
0ccb7,"""Falsch""-Screen",canvas.Screen,1_1_3_0_2,NA,NA,timeout,5000.7,1644172.6,1644158.274,1644174.943,1649158.974,1649160.4,2023-01-28T17:00:22Z,1649175.643,"c(""distractor1"", ""distractor2"", ""distractor3"")",Qualität,mtindo,d,NA,NA,NA,NA,NA,0,NA,NA,NA,NA,NA,NA,NA,NA,NA,NA,NA,NA,NA,NA,NA,NA,NA,NA,NA,NA
0ccb7,deep,flow.Sequence,1_1_3_0,NA,NA,completion,8019.2649999999,1641125,1641123.04,1641139.709,1649158.974,1649160.7,2023-01-28T17:00:22Z,1649175.643,"c(""distractor1"", ""distractor2"", ""distractor3"")",Qualität,mtindo,d,NA,NA,NA,NA,NA,NA,NA,NA,NA,NA,NA,NA,NA,NA,NA,NA,NA,NA,NA,NA,NA,NA,NA,NA,NA,NA
0ccb7,shallow,flow.Sequence,1_1_3_1,NA,NA,skipped,NA,1649160.7,NA,NA,1649158.974,1649160.7,2023-01-28T17:00:22Z,1649175.643,"c(""distractor1"", ""distractor2"", ""distractor3"")",Qualität,mtindo,d,NA,NA,NA,NA,NA,NA,NA,NA,NA,NA,NA,NA,NA,NA,NA,NA,NA,NA,NA,NA,NA,NA,NA,NA,NA,NA
0ccb7,task,flow.Sequence,1_1_3,NA,NA,completion,8019.2649999999,1641124.9,1641123.04,1641139.709,1649158.974,1649160.9,2023-01-28T17:00:22Z,1649175.643,"c(""distractor1"", ""distractor2"", ""distractor3"")",Qualität,mtindo,d,NA,NA,NA,NA,NA,NA,NA,NA,NA,NA,NA,NA,NA,NA,NA,NA,NA,NA,NA,NA,NA,NA,NA,NA,NA,NA
0ccb7,Deep Question,html.Page,1_1_4_0_0,NA,NA,form submission,1586.657000012,1649161,1649158.974,1649175.643,1650762.3,1650762.5,2023-01-28T17:00:23Z,1650775.867,"c(""distractor1"", ""distractor2"", ""distractor3"")",Schatten,kivuli,d,NA,NA,NA,c,NA,NA,NA,NA,NA,NA,NA,NA,NA,NA,NA,NA,NA,NA,NA,NA,NA,NA,NA,NA,NA,NA
0ccb7,"""Richtig""-Screen",canvas.Screen,1_1_4_0_1,NA,NA,skipped,NA,1650764,NA,NA,1650762.3,1650764.1,2023-01-28T17:00:23Z,1650775.867,"c(""distractor1"", ""distractor2"", ""distractor3"")",Schatten,kivuli,d,NA,NA,NA,NA,NA,NA,NA,NA,NA,NA,NA,NA,NA,NA,NA,NA,NA,NA,NA,NA,NA,NA,NA,NA,NA,NA
0ccb7,"""Falsch""-Screen",canvas.Screen,1_1_4_0_2,NA,NA,timeout,5000.7,1650764.7,1650759.198,1650775.867,1655759.898,1655762,2023-01-28T17:00:28Z,1655776.567,"c(""distractor1"", ""distractor2"", ""distractor3"")",Schatten,kivuli,d,NA,NA,NA,NA,NA,0,NA,NA,NA,NA,NA,NA,NA,NA,NA,NA,NA,NA,NA,NA,NA,NA,NA,NA,NA,NA
0ccb7,deep,flow.Sequence,1_1_4_0,NA,NA,completion,6584.2550000001,1649160.9,1649158.974,1649175.643,1655759.898,1655762.2,2023-01-28T17:00:28Z,1655776.567,"c(""distractor1"", ""distractor2"", ""distractor3"")",Schatten,kivuli,d,NA,NA,NA,NA,NA,NA,NA,NA,NA,NA,NA,NA,NA,NA,NA,NA,NA,NA,NA,NA,NA,NA,NA,NA,NA,NA
0ccb7,shallow,flow.Sequence,1_1_4_1,NA,NA,skipped,NA,1655762.3,NA,NA,1655759.898,1655762.3,2023-01-28T17:00:28Z,1655776.567,"c(""distractor1"", ""distractor2"", ""distractor3"")",Schatten,kivuli,d,NA,NA,NA,NA,NA,NA,NA,NA,NA,NA,NA,NA,NA,NA,NA,NA,NA,NA,NA,NA,NA,NA,NA,NA,NA,NA
0ccb7,task,flow.Sequence,1_1_4,NA,NA,completion,6584.2550000001,1649160.9,1649158.974,1649175.643,1655759.898,1655762.4,2023-01-28T17:00:28Z,1655776.567,"c(""distractor1"", ""distractor2"", ""distractor3"")",Schatten,kivuli,d,NA,NA,NA,NA,NA,NA,NA,NA,NA,NA,NA,NA,NA,NA,NA,NA,NA,NA,NA,NA,NA,NA,NA,NA,NA,NA
0ccb7,deep,flow.Sequence,1_1_5_0,NA,NA,skipped,NA,1655762.5,NA,NA,1655759.898,1655762.5,2023-01-28T17:00:28Z,1655776.567,"c(""distractor1"", ""distractor2"", ""distractor3"")",Gegenwart,hadhara,s,katiba,jokofu,mikopo,NA,NA,NA,NA,NA,NA,NA,NA,NA,NA,NA,NA,NA,NA,NA,NA,NA,NA,NA,NA,NA,NA,NA
0ccb7,Shallow Question,html.Page,1_1_5_1_0,NA,NA,form submission,2627.3330000059,1655762.7,1655759.898,1655776.567,1658403.9,1658404.1,2023-01-28T17:00:31Z,1658411.661,"c(""distractor1"", ""distractor2"", ""distractor3"")",Gegenwart,hadhara,s,katiba,jokofu,mikopo,katiba,NA,NA,NA,NA,NA,NA,NA,NA,NA,NA,NA,NA,NA,NA,NA,NA,NA,NA,NA,NA,NA,NA
0ccb7,"""Richtig""-Screen",canvas.Screen,1_1_5_1_1,NA,NA,skipped,NA,1658405.6,NA,NA,1658403.9,1658405.7,2023-01-28T17:00:31Z,1658411.661,"c(""distractor1"", ""distractor2"", ""distractor3"")",Gegenwart,hadhara,s,katiba,jokofu,mikopo,NA,NA,NA,NA,NA,NA,NA,NA,NA,NA,NA,NA,NA,NA,NA,NA,NA,NA,NA,NA,NA,NA,NA
0ccb7,"""Falsch""-Screen",canvas.Screen,1_1_5_1_2,NA,NA,timeout,5000.7,1658406.3,1658394.992,1658411.661,1663395.692,1663397.4,2023-01-28T17:00:36Z,1663412.361,"c(""distractor1"", ""distractor2"", ""distractor3"")",Gegenwart,hadhara,s,katiba,jokofu,mikopo,NA,NA,0,NA,NA,NA,NA,NA,NA,NA,NA,NA,NA,NA,NA,NA,NA,NA,NA,NA,NA,NA,NA
0ccb7,shallow,flow.Sequence,1_1_5_1,NA,NA,completion,7619.125,1655762.6,1655759.898,1655776.567,1663395.692,1663397.7,2023-01-28T17:00:36Z,1663412.361,"c(""distractor1"", ""distractor2"", ""distractor3"")",Gegenwart,hadhara,s,katiba,jokofu,mikopo,NA,NA,NA,NA,NA,NA,NA,NA,NA,NA,NA,NA,NA,NA,NA,NA,NA,NA,NA,NA,NA,NA,NA
0ccb7,task,flow.Sequence,1_1_5,NA,NA,completion,7619.125,1655762.4,1655759.898,1655776.567,1663395.692,1663397.9,2023-01-28T17:00:36Z,1663412.361,"c(""distractor1"", ""distractor2"", ""distractor3"")",Gegenwart,hadhara,s,katiba,jokofu,mikopo,NA,NA,NA,NA,NA,NA,NA,NA,NA,NA,NA,NA,NA,NA,NA,NA,NA,NA,NA,NA,NA,NA,NA
0ccb7,block,flow.Loop,1_1,NA,NA,completion,46294.647,1617090.1,1617084.376,1617101.045,1663395.692,1663398.1,2023-01-28T17:00:36Z,1663412.361,"c(""distractor1"", ""distractor2"", ""distractor3"")",NA,NA,NA,NA,NA,NA,NA,NA,NA,NA,NA,NA,NA,NA,NA,NA,NA,NA,NA,NA,NA,NA,NA,NA,NA,NA,NA,NA,NA
0ccb7,Practice,flow.Sequence,1,NA,NA,completion,50279.448,1613114.6,1613099.575,1613116.244,1663395.692,1663398.2,2023-01-28T17:00:36Z,1663412.361,NULL,NA,NA,NA,NA,NA,NA,NA,NA,NA,NA,NA,NA,NA,NA,NA,NA,NA,NA,NA,NA,NA,NA,NA,NA,NA,NA,NA,NA,NA
0ccb7,Experiment start,canvas.Screen,2,weiter,keypress(q),response,22563.439000012,1663398.3,1663395.692,1663412.361,1685975.8,1685979.7,2023-01-28T17:00:58Z,1686048.863,NULL,NA,NA,NA,NA,NA,NA,NA,NA,NA,NA,NA,NA,NA,NA,NA,NA,NA,NA,NA,NA,NA,NA,NA,NA,NA,NA,NA,NA,NA
0ccb7,Deep Question,html.Page,3_0_0_0_0_0_0,NA,NA,form submission,19865.437000012,1686058.7,1685965.518,1686048.863,1705914.3,1705914.6,2023-01-28T17:01:18Z,1705925.276,NULL,Ausschluss,kutengwa,d,NA,NA,NA,mapungu,NA,NA,0,NA,NA,NA,NA,NA,NA,NA,NA,NA,NA,NA,NA,NA,NA,NA,NA,NA,NA,NA
0ccb7,"""Richtig""-Screen",canvas.Screen,3_0_0_0_0_0_1,NA,NA,skipped,NA,1705916.3,NA,NA,1705914.3,1705916.4,2023-01-28T17:01:18Z,1705925.276,NULL,Ausschluss,kutengwa,d,NA,NA,NA,NA,sdf,NA,0,NA,NA,NA,NA,NA,NA,NA,NA,NA,NA,NA,NA,NA,NA,NA,NA,NA,NA,NA
0ccb7,"""Falsch""-Screen",canvas.Screen,3_0_0_0_0_0_2,NA,NA,timeout,5000.7,1705916.9,1705908.607,1705925.276,1710909.307,1710911.3,2023-01-28T17:01:23Z,1710925.976,NULL,Ausschluss,kutengwa,d,NA,NA,NA,NA,sdf,0,0,NA,NA,NA,NA,NA,NA,NA,NA,NA,NA,NA,NA,NA,NA,NA,NA,NA,NA,NA
0ccb7,deep,flow.Sequence,3_0_0_0_0_0,NA,NA,completion,24860.444,1686058.7,1685965.518,1686048.863,1710909.307,1710911.6,2023-01-28T17:01:23Z,1710925.976,NULL,Ausschluss,kutengwa,d,NA,NA,NA,NA,sdf,NA,0,NA,NA,NA,NA,NA,NA,NA,NA,NA,NA,NA,NA,NA,NA,NA,NA,NA,NA,NA
0ccb7,shallow,flow.Sequence,3_0_0_0_0_1,NA,NA,skipped,NA,1710911.7,NA,NA,1710909.307,1710911.7,2023-01-28T17:01:23Z,1710925.976,NULL,Ausschluss,kutengwa,d,NA,NA,NA,NA,sdf,NA,0,NA,NA,NA,NA,NA,NA,NA,NA,NA,NA,NA,NA,NA,NA,NA,NA,NA,NA,NA
0ccb7,task,flow.Sequence,3_0_0_0_0,NA,NA,completion,24860.444,1686058.7,1685965.518,1686048.863,1710909.307,1710911.8,2023-01-28T17:01:23Z,1710925.976,NULL,Ausschluss,kutengwa,d,NA,NA,NA,NA,sdf,NA,0,NA,NA,NA,NA,NA,NA,NA,NA,NA,NA,NA,NA,NA,NA,NA,NA,NA,NA,NA
0ccb7,Deep Question,html.Page,3_0_0_0_1_0_0,NA,NA,form submission,2348.524,1710911.8,1710909.307,1710925.976,1713274.5,1713274.7,2023-01-28T17:01:26Z,1713284.106,NULL,Notfall,dharura,d,NA,NA,NA,m,NA,NA,0,NA,NA,NA,NA,NA,NA,NA,NA,NA,NA,NA,NA,NA,NA,NA,NA,NA,NA,NA
0ccb7,"""Richtig""-Screen",canvas.Screen,3_0_0_0_1_0_1,NA,NA,skipped,NA,1713276.2,NA,NA,1713274.5,1713276.3,2023-01-28T17:01:26Z,1713284.106,NULL,Notfall,dharura,d,NA,NA,NA,NA,sdf,NA,0,NA,NA,NA,NA,NA,NA,NA,NA,NA,NA,NA,NA,NA,NA,NA,NA,NA,NA,NA
0ccb7,"""Falsch""-Screen",canvas.Screen,3_0_0_0_1_0_2,NA,NA,timeout,5000.7000000002,1713276.8,1713267.437,1713284.106,1718268.137,1718270.3,2023-01-28T17:01:31Z,1718284.806,NULL,Notfall,dharura,d,NA,NA,NA,NA,sdf,0,0,NA,NA,NA,NA,NA,NA,NA,NA,NA,NA,NA,NA,NA,NA,NA,NA,NA,NA,NA
0ccb7,deep,flow.Sequence,3_0_0_0_1_0,NA,NA,completion,7342.1610000001,1710911.8,1710909.307,1710925.976,1718268.137,1718270.5,2023-01-28T17:01:31Z,1718284.806,NULL,Notfall,dharura,d,NA,NA,NA,NA,sdf,NA,0,NA,NA,NA,NA,NA,NA,NA,NA,NA,NA,NA,NA,NA,NA,NA,NA,NA,NA,NA
0ccb7,shallow,flow.Sequence,3_0_0_0_1_1,NA,NA,skipped,NA,1718270.6,NA,NA,1718268.137,1718270.7,2023-01-28T17:01:31Z,1718284.806,NULL,Notfall,dharura,d,NA,NA,NA,NA,sdf,NA,0,NA,NA,NA,NA,NA,NA,NA,NA,NA,NA,NA,NA,NA,NA,NA,NA,NA,NA,NA
0ccb7,task,flow.Sequence,3_0_0_0_1,NA,NA,completion,7342.1610000001,1710911.8,1710909.307,1710925.976,1718268.137,1718270.8,2023-01-28T17:01:31Z,1718284.806,NULL,Notfall,dharura,d,NA,NA,NA,NA,sdf,NA,0,NA,NA,NA,NA,NA,NA,NA,NA,NA,NA,NA,NA,NA,NA,NA,NA,NA,NA,NA
0ccb7,Deep Question,html.Page,3_0_0_0_2_0_0,NA,NA,form submission,3557.1939999999,1718270.9,1718268.137,1718284.806,1721842,1721842.3,2023-01-28T17:01:34Z,1721853.891,NULL,Gelegenheit,wakati,d,NA,NA,NA,mapua,NA,NA,0,NA,NA,NA,NA,NA,NA,NA,NA,NA,NA,NA,NA,NA,NA,NA,NA,NA,NA,NA
0ccb7,"""Richtig""-Screen",canvas.Screen,3_0_0_0_2_0_1,NA,NA,skipped,NA,1721843.8,NA,NA,1721842,1721843.9,2023-01-28T17:01:34Z,1721853.891,NULL,Gelegenheit,wakati,d,NA,NA,NA,NA,sdf,NA,0,NA,NA,NA,NA,NA,NA,NA,NA,NA,NA,NA,NA,NA,NA,NA,NA,NA,NA,NA
0ccb7,"""Falsch""-Screen",canvas.Screen,3_0_0_0_2_0_2,NA,NA,timeout,5000.7,1721844.4,1721837.222,1721853.891,1726837.922,1726838.6,2023-01-28T17:01:39Z,1726854.591,NULL,Gelegenheit,wakati,d,NA,NA,NA,NA,sdf,0,0,NA,NA,NA,NA,NA,NA,NA,NA,NA,NA,NA,NA,NA,NA,NA,NA,NA,NA,NA
0ccb7,deep,flow.Sequence,3_0_0_0_2_0,NA,NA,completion,8553.1159999999,1718270.9,1718268.137,1718284.806,1726837.922,1726838.8,2023-01-28T17:01:39Z,1726854.591,NULL,Gelegenheit,wakati,d,NA,NA,NA,NA,sdf,NA,0,NA,NA,NA,NA,NA,NA,NA,NA,NA,NA,NA,NA,NA,NA,NA,NA,NA,NA,NA
0ccb7,shallow,flow.Sequence,3_0_0_0_2_1,NA,NA,skipped,NA,1726838.9,NA,NA,1726837.922,1726839,2023-01-28T17:01:39Z,1726854.591,NULL,Gelegenheit,wakati,d,NA,NA,NA,NA,sdf,NA,0,NA,NA,NA,NA,NA,NA,NA,NA,NA,NA,NA,NA,NA,NA,NA,NA,NA,NA,NA
0ccb7,task,flow.Sequence,3_0_0_0_2,NA,NA,completion,8553.1159999999,1718270.8,1718268.137,1718284.806,1726837.922,1726839.1,2023-01-28T17:01:39Z,1726854.591,NULL,Gelegenheit,wakati,d,NA,NA,NA,NA,sdf,NA,0,NA,NA,NA,NA,NA,NA,NA,NA,NA,NA,NA,NA,NA,NA,NA,NA,NA,NA,NA
0ccb7,deep,flow.Sequence,3_0_0_0_3_0,NA,NA,skipped,NA,1726839.1,NA,NA,1726837.922,1726839.2,2023-01-28T17:01:39Z,1726854.591,NULL,Wohlstand,mafanikio,s,chimbuko,kumbuko,mapwaji,NA,sdf,NA,0,NA,NA,NA,NA,NA,NA,NA,NA,NA,NA,NA,NA,NA,NA,NA,NA,NA,NA,NA
0ccb7,Shallow Question,html.Page,3_0_0_0_3_1_0,NA,NA,form submission,7531.508999994,1726839.2,1726837.922,1726854.591,1734386.1,1734386.4,2023-01-28T17:01:47Z,1734389.876,NULL,Wohlstand,mafanikio,s,chimbuko,kumbuko,mapwaji,kumbuko,NA,NA,0,NA,NA,NA,NA,NA,NA,NA,NA,NA,NA,NA,NA,NA,NA,NA,NA,NA,NA,NA
0ccb7,"""Richtig""-Screen",canvas.Screen,3_0_0_0_3_1_1,NA,NA,skipped,NA,1734387.8,NA,NA,1734386.1,1734387.9,2023-01-28T17:01:47Z,1734389.876,NULL,Wohlstand,mafanikio,s,chimbuko,kumbuko,mapwaji,NA,sdf,NA,0,NA,NA,NA,NA,NA,NA,NA,NA,NA,NA,NA,NA,NA,NA,NA,NA,NA,NA,NA
0ccb7,"""Falsch""-Screen",canvas.Screen,3_0_0_0_3_1_2,NA,NA,timeout,5000.7,1734388.5,1734373.207,1734389.876,1739373.907,1739376.1,2023-01-28T17:01:52Z,1739390.576,NULL,Wohlstand,mafanikio,s,chimbuko,kumbuko,mapwaji,NA,sdf,0,0,NA,NA,NA,NA,NA,NA,NA,NA,NA,NA,NA,NA,NA,NA,NA,NA,NA,NA,NA
0ccb7,shallow,flow.Sequence,3_0_0_0_3_1,NA,NA,completion,12519.316,1726839.2,1726837.922,1726854.591,1739373.907,1739376.2,2023-01-28T17:01:52Z,1739390.576,NULL,Wohlstand,mafanikio,s,chimbuko,kumbuko,mapwaji,NA,sdf,NA,0,NA,NA,NA,NA,NA,NA,NA,NA,NA,NA,NA,NA,NA,NA,NA,NA,NA,NA,NA
0ccb7,task,flow.Sequence,3_0_0_0_3,NA,NA,completion,12519.316,1726839.1,1726837.922,1726854.591,1739373.907,1739376.3,2023-01-28T17:01:52Z,1739390.576,NULL,Wohlstand,mafanikio,s,chimbuko,kumbuko,mapwaji,NA,sdf,NA,0,NA,NA,NA,NA,NA,NA,NA,NA,NA,NA,NA,NA,NA,NA,NA,NA,NA,NA,NA
0ccb7,deep,flow.Sequence,3_0_0_0_4_0,NA,NA,skipped,NA,1739376.4,NA,NA,1739373.907,1739376.5,2023-01-28T17:01:52Z,1739390.576,NULL,Verstand,ufahamivu,s,shakawa,hadhari,mhandisi,NA,sdf,NA,0,NA,NA,NA,NA,NA,NA,NA,NA,NA,NA,NA,NA,NA,NA,NA,NA,NA,NA,NA
0ccb7,Shallow Question,html.Page,3_0_0_0_4_1_0,NA,NA,form submission,4027.6239999882,1739376.5,1739373.907,1739390.576,1743418.2,1743418.4,2023-01-28T17:01:56Z,1743426.573,NULL,Verstand,ufahamivu,s,shakawa,hadhari,mhandisi,hadhari,NA,NA,0,NA,NA,NA,NA,NA,NA,NA,NA,NA,NA,NA,NA,NA,NA,NA,NA,NA,NA,NA
0ccb7,"""Richtig""-Screen",canvas.Screen,3_0_0_0_4_1_1,NA,NA,skipped,NA,1743420.1,NA,NA,1743418.2,1743420.2,2023-01-28T17:01:56Z,1743426.573,NULL,Verstand,ufahamivu,s,shakawa,hadhari,mhandisi,NA,sdf,NA,0,NA,NA,NA,NA,NA,NA,NA,NA,NA,NA,NA,NA,NA,NA,NA,NA,NA,NA,NA
0ccb7,"""Falsch""-Screen",canvas.Screen,3_0_0_0_4_1_2,NA,NA,timeout,5000.7,1743420.8,1743409.904,1743426.573,1748410.604,1748412.3,2023-01-28T17:02:01Z,1748427.273,NULL,Verstand,ufahamivu,s,shakawa,hadhari,mhandisi,NA,sdf,0,0,NA,NA,NA,NA,NA,NA,NA,NA,NA,NA,NA,NA,NA,NA,NA,NA,NA,NA,NA
0ccb7,shallow,flow.Sequence,3_0_0_0_4_1,NA,NA,completion,9020.0280000002,1739376.5,1739373.907,1739390.576,1748410.604,1748412.5,2023-01-28T17:02:01Z,1748427.273,NULL,Verstand,ufahamivu,s,shakawa,hadhari,mhandisi,NA,sdf,NA,0,NA,NA,NA,NA,NA,NA,NA,NA,NA,NA,NA,NA,NA,NA,NA,NA,NA,NA,NA
0ccb7,task,flow.Sequence,3_0_0_0_4,NA,NA,completion,9020.0280000002,1739376.3,1739373.907,1739390.576,1748410.604,1748412.7,2023-01-28T17:02:01Z,1748427.273,NULL,Verstand,ufahamivu,s,shakawa,hadhari,mhandisi,NA,sdf,NA,0,NA,NA,NA,NA,NA,NA,NA,NA,NA,NA,NA,NA,NA,NA,NA,NA,NA,NA,NA
0ccb7,Deep Question,html.Page,3_0_0_0_5_0_0,NA,NA,form submission,5174.727,1748412.7,1748410.604,1748427.273,1753602,1753602.1,2023-01-28T17:02:06Z,1753614.427,NULL,Vergnügen,kichekesho,d,NA,NA,NA,d,NA,NA,0,NA,NA,NA,NA,NA,NA,NA,NA,NA,NA,NA,NA,NA,NA,NA,NA,NA,NA,NA
0ccb7,"""Richtig""-Screen",canvas.Screen,3_0_0_0_5_0_1,NA,NA,skipped,NA,1753603.8,NA,NA,1753602,1753603.9,2023-01-28T17:02:06Z,1753614.427,NULL,Vergnügen,kichekesho,d,NA,NA,NA,NA,sdf,NA,0,NA,NA,NA,NA,NA,NA,NA,NA,NA,NA,NA,NA,NA,NA,NA,NA,NA,NA,NA
0ccb7,"""Falsch""-Screen",canvas.Screen,3_0_0_0_5_0_2,NA,NA,timeout,5000.7000000002,1753604.5,1753597.758,1753614.427,1758598.458,1758600.3,2023-01-28T17:02:11Z,1758615.127,NULL,Vergnügen,kichekesho,d,NA,NA,NA,NA,sdf,0,0,NA,NA,NA,NA,NA,NA,NA,NA,NA,NA,NA,NA,NA,NA,NA,NA,NA,NA,NA
0ccb7,deep,flow.Sequence,3_0_0_0_5_0,NA,NA,completion,10171.185,1748412.7,1748410.604,1748427.273,1758598.458,1758600.5,2023-01-28T17:02:11Z,1758615.127,NULL,Vergnügen,kichekesho,d,NA,NA,NA,NA,sdf,NA,0,NA,NA,NA,NA,NA,NA,NA,NA,NA,NA,NA,NA,NA,NA,NA,NA,NA,NA,NA
0ccb7,shallow,flow.Sequence,3_0_0_0_5_1,NA,NA,skipped,NA,1758600.5,NA,NA,1758598.458,1758600.6,2023-01-28T17:02:11Z,1758615.127,NULL,Vergnügen,kichekesho,d,NA,NA,NA,NA,sdf,NA,0,NA,NA,NA,NA,NA,NA,NA,NA,NA,NA,NA,NA,NA,NA,NA,NA,NA,NA,NA
0ccb7,task,flow.Sequence,3_0_0_0_5,NA,NA,completion,10171.185,1748412.7,1748410.604,1748427.273,1758598.458,1758600.7,2023-01-28T17:02:11Z,1758615.127,NULL,Vergnügen,kichekesho,d,NA,NA,NA,NA,sdf,NA,0,NA,NA,NA,NA,NA,NA,NA,NA,NA,NA,NA,NA,NA,NA,NA,NA,NA,NA,NA
0ccb7,deep,flow.Sequence,3_0_0_0_6_0,NA,NA,skipped,NA,1758600.8,NA,NA,1758598.458,1758600.8,2023-01-28T17:02:11Z,1758615.127,NULL,Ergänzung,kijalizo,s,ulaghai,mustarehe,matangazo,NA,sdf,NA,0,NA,NA,NA,NA,NA,NA,NA,NA,NA,NA,NA,NA,NA,NA,NA,NA,NA,NA,NA
0ccb7,Shallow Question,html.Page,3_0_0_0_6_1_0,NA,NA,form submission,4203.1730000118,1758600.8,1758598.458,1758615.127,1762818.3,1762818.6,2023-01-28T17:02:15Z,1762818.55,NULL,Ergänzung,kijalizo,s,ulaghai,mustarehe,matangazo,ulaghai,NA,NA,0,NA,NA,NA,NA,NA,NA,NA,NA,NA,NA,NA,NA,NA,NA,NA,NA,NA,NA,NA
0ccb7,"""Richtig""-Screen",canvas.Screen,3_0_0_0_6_1_1,NA,NA,skipped,NA,1762820.1,NA,NA,1762818.3,1762820.3,2023-01-28T17:02:15Z,1762818.55,NULL,Ergänzung,kijalizo,s,ulaghai,mustarehe,matangazo,NA,sdf,NA,0,NA,NA,NA,NA,NA,NA,NA,NA,NA,NA,NA,NA,NA,NA,NA,NA,NA,NA,NA
0ccb7,"""Falsch""-Screen",canvas.Screen,3_0_0_0_6_1_2,NA,NA,timeout,5000.7,1762820.9,1762801.881,1762818.55,1767802.581,1767803.9,2023-01-28T17:02:20Z,1767819.25,NULL,Ergänzung,kijalizo,s,ulaghai,mustarehe,matangazo,NA,sdf,0,0,NA,NA,NA,NA,NA,NA,NA,NA,NA,NA,NA,NA,NA,NA,NA,NA,NA,NA,NA
0ccb7,shallow,flow.Sequence,3_0_0_0_6_1,NA,NA,completion,9187.4539999999,1758600.8,1758598.458,1758615.127,1767802.581,1767804.1,2023-01-28T17:02:20Z,1767819.25,NULL,Ergänzung,kijalizo,s,ulaghai,mustarehe,matangazo,NA,sdf,NA,0,NA,NA,NA,NA,NA,NA,NA,NA,NA,NA,NA,NA,NA,NA,NA,NA,NA,NA,NA
0ccb7,task,flow.Sequence,3_0_0_0_6,NA,NA,completion,9187.4539999999,1758600.8,1758598.458,1758615.127,1767802.581,1767804.3,2023-01-28T17:02:20Z,1767819.25,NULL,Ergänzung,kijalizo,s,ulaghai,mustarehe,matangazo,NA,sdf,NA,0,NA,NA,NA,NA,NA,NA,NA,NA,NA,NA,NA,NA,NA,NA,NA,NA,NA,NA,NA
0ccb7,deep,flow.Sequence,3_0_0_0_7_0,NA,NA,skipped,NA,1767804.3,NA,NA,1767802.581,1767804.3,2023-01-28T17:02:20Z,1767819.25,NULL,Widerstand,usulubu,s,kusababisha,mwalimu,mwenendo,NA,sdf,NA,0,NA,NA,NA,NA,NA,NA,NA,NA,NA,NA,NA,NA,NA,NA,NA,NA,NA,NA,NA
0ccb7,Shallow Question,html.Page,3_0_0_0_7_1_0,NA,NA,form submission,8647.25,1767804.4,1767802.581,1767819.25,1776466.5,1776466.8,2023-01-28T17:02:29Z,1776472.662,NULL,Widerstand,usulubu,s,kusababisha,mwalimu,mwenendo,kusababisha,NA,NA,0,NA,NA,NA,NA,NA,NA,NA,NA,NA,NA,NA,NA,NA,NA,NA,NA,NA,NA,NA
0ccb7,"""Richtig""-Screen",canvas.Screen,3_0_0_0_7_1_1,NA,NA,skipped,NA,1776468.5,NA,NA,1776466.5,1776468.6,2023-01-28T17:02:29Z,1776472.662,NULL,Widerstand,usulubu,s,kusababisha,mwalimu,mwenendo,NA,sdf,NA,0,NA,NA,NA,NA,NA,NA,NA,NA,NA,NA,NA,NA,NA,NA,NA,NA,NA,NA,NA
0ccb7,"""Falsch""-Screen",canvas.Screen,3_0_0_0_7_1_2,NA,NA,timeout,5000.7,1776469.1,1776455.993,1776472.662,1781456.693,1781457.5,2023-01-28T17:02:34Z,1781473.362,NULL,Widerstand,usulubu,s,kusababisha,mwalimu,mwenendo,NA,sdf,0,0,NA,NA,NA,NA,NA,NA,NA,NA,NA,NA,NA,NA,NA,NA,NA,NA,NA,NA,NA
0ccb7,shallow,flow.Sequence,3_0_0_0_7_1,NA,NA,completion,13637.443,1767804.4,1767802.581,1767819.25,1781456.693,1781457.6,2023-01-28T17:02:34Z,1781473.362,NULL,Widerstand,usulubu,s,kusababisha,mwalimu,mwenendo,NA,sdf,NA,0,NA,NA,NA,NA,NA,NA,NA,NA,NA,NA,NA,NA,NA,NA,NA,NA,NA,NA,NA
0ccb7,task,flow.Sequence,3_0_0_0_7,NA,NA,completion,13637.443,1767804.3,1767802.581,1767819.25,1781456.693,1781457.7,2023-01-28T17:02:34Z,1781473.362,NULL,Widerstand,usulubu,s,kusababisha,mwalimu,mwenendo,NA,sdf,NA,0,NA,NA,NA,NA,NA,NA,NA,NA,NA,NA,NA,NA,NA,NA,NA,NA,NA,NA,NA
0ccb7,block,flow.Loop,3_0_0_0,NA,NA,completion,95407.83,1686058.7,1685965.518,1686048.863,1781456.693,1781457.8,2023-01-28T17:02:34Z,1781473.362,NULL,NA,NA,NA,NA,NA,NA,NA,sdf,NA,0,NA,NA,NA,NA,NA,NA,NA,NA,NA,NA,NA,NA,NA,NA,NA,NA,NA,NA,NA
0ccb7,weiter,canvas.Screen,3_0_0_1,sdf,keypress(Space),response,886.43800001196,1781457.9,1781456.693,1781473.362,1782359.8,1782363.2,2023-01-28T17:02:35Z,1782406.826,NULL,NA,NA,NA,NA,NA,NA,NA,sdf,NA,0,NA,NA,NA,NA,NA,NA,NA,NA,NA,NA,NA,NA,NA,NA,NA,NA,NA,NA,NA
0ccb7,check continue,flow.Sequence,3_0_0,NA,NA,completion,96310.937000012,1686058.7,1685965.518,1686048.863,1782359.8,1782363.3,2023-01-28T17:02:35Z,1782406.826,NULL,NA,NA,NA,NA,NA,NA,NA,sdf,NA,0,NA,NA,NA,NA,NA,NA,NA,NA,NA,NA,NA,NA,NA,NA,NA,NA,NA,NA,NA
0ccb7,Deep Question,html.Page,3_0_1_0_0_0_0,NA,NA,form submission,6475.5740000061,1782390.2,1782390.157,1782406.826,1788882.4,1788882.5,2023-01-28T17:02:41Z,1788891.633,NULL,Notfall,dharura,d,NA,NA,NA,kiwengo,NA,NA,1,NA,NA,NA,NA,NA,NA,NA,NA,NA,NA,NA,NA,NA,NA,NA,NA,NA,NA,NA
0ccb7,"""Richtig""-Screen",canvas.Screen,3_0_1_0_0_0_1,NA,NA,skipped,NA,1788884.1,NA,NA,1788882.4,1788884.1,2023-01-28T17:02:41Z,1788891.633,NULL,Notfall,dharura,d,NA,NA,NA,NA,sdfdsf,NA,1,NA,NA,NA,NA,NA,NA,NA,NA,NA,NA,NA,NA,NA,NA,NA,NA,NA,NA,NA
0ccb7,"""Falsch""-Screen",canvas.Screen,3_0_1_0_0_0_2,NA,NA,timeout,5000.7000000002,1788884.7,1788874.964,1788891.633,1793875.664,1793877.7,2023-01-28T17:02:46Z,1793892.333,NULL,Notfall,dharura,d,NA,NA,NA,NA,sdfdsf,0,1,NA,NA,NA,NA,NA,NA,NA,NA,NA,NA,NA,NA,NA,NA,NA,NA,NA,NA,NA
0ccb7,deep,flow.Sequence,3_0_1_0_0_0,NA,NA,completion,11468.838,1782390.2,1782390.157,1782406.826,1793875.664,1793877.8,2023-01-28T17:02:46Z,1793892.333,NULL,Notfall,dharura,d,NA,NA,NA,NA,sdfdsf,NA,1,NA,NA,NA,NA,NA,NA,NA,NA,NA,NA,NA,NA,NA,NA,NA,NA,NA,NA,NA
0ccb7,shallow,flow.Sequence,3_0_1_0_0_1,NA,NA,skipped,NA,1793877.8,NA,NA,1793875.664,1793877.9,2023-01-28T17:02:46Z,1793892.333,NULL,Notfall,dharura,d,NA,NA,NA,NA,sdfdsf,NA,1,NA,NA,NA,NA,NA,NA,NA,NA,NA,NA,NA,NA,NA,NA,NA,NA,NA,NA,NA
0ccb7,task,flow.Sequence,3_0_1_0_0,NA,NA,completion,11468.838,1782390.2,1782390.157,1782406.826,1793875.664,1793877.9,2023-01-28T17:02:46Z,1793892.333,NULL,Notfall,dharura,d,NA,NA,NA,NA,sdfdsf,NA,1,NA,NA,NA,NA,NA,NA,NA,NA,NA,NA,NA,NA,NA,NA,NA,NA,NA,NA,NA
0ccb7,deep,flow.Sequence,3_0_1_0_1_0,NA,NA,skipped,NA,1793878.1,NA,NA,1793875.664,1793878.1,2023-01-28T17:02:46Z,1793892.333,NULL,Wohlstand,mafanikio,s,chimbuko,kumbuko,mapwaji,NA,sdfdsf,NA,1,NA,NA,NA,NA,NA,NA,NA,NA,NA,NA,NA,NA,NA,NA,NA,NA,NA,NA,NA
0ccb7,Shallow Question,html.Page,3_0_1_0_1_1_0,NA,NA,form submission,3245.6669999999,1793878.1,1793875.664,1793892.333,1797138,1797138.2,2023-01-28T17:02:49Z,1797144.477,NULL,Wohlstand,mafanikio,s,chimbuko,kumbuko,mapwaji,mafanikio,NA,NA,1,NA,NA,NA,NA,NA,NA,NA,NA,NA,NA,NA,NA,NA,NA,NA,NA,NA,NA,NA
0ccb7,"""Richtig""-Screen",canvas.Screen,3_0_1_0_1_1_1,NA,NA,timeout,5000.7,1797139.7,1797127.808,1797144.477,1802128.508,1802130.4,2023-01-28T17:02:54Z,1802145.177,NULL,Wohlstand,mafanikio,s,chimbuko,kumbuko,mapwaji,NA,sdfdsf,1,1,NA,NA,NA,NA,NA,NA,NA,NA,NA,NA,NA,NA,NA,NA,NA,NA,NA,NA,NA
0ccb7,"""Falsch""-Screen",canvas.Screen,3_0_1_0_1_1_2,NA,NA,skipped,NA,1802132.5,NA,NA,1802128.508,1802132.7,2023-01-28T17:02:54Z,1802145.177,NULL,Wohlstand,mafanikio,s,chimbuko,kumbuko,mapwaji,NA,sdfdsf,NA,1,NA,NA,NA,NA,NA,NA,NA,NA,NA,NA,NA,NA,NA,NA,NA,NA,NA,NA,NA
0ccb7,shallow,flow.Sequence,3_0_1_0_1_1,NA,NA,completion,8236.1749999998,1793878.1,1793875.664,1793892.333,1802128.508,1802132.8,2023-01-28T17:02:54Z,1802145.177,NULL,Wohlstand,mafanikio,s,chimbuko,kumbuko,mapwaji,NA,sdfdsf,NA,1,NA,NA,NA,NA,NA,NA,NA,NA,NA,NA,NA,NA,NA,NA,NA,NA,NA,NA,NA
0ccb7,task,flow.Sequence,3_0_1_0_1,NA,NA,completion,8236.1749999998,1793878,1793875.664,1793892.333,1802128.508,1802133,2023-01-28T17:02:54Z,1802145.177,NULL,Wohlstand,mafanikio,s,chimbuko,kumbuko,mapwaji,NA,sdfdsf,NA,1,NA,NA,NA,NA,NA,NA,NA,NA,NA,NA,NA,NA,NA,NA,NA,NA,NA,NA,NA
0ccb7,deep,flow.Sequence,3_0_1_0_2_0,NA,NA,skipped,NA,1802133,NA,NA,1802128.508,1802133.1,2023-01-28T17:02:54Z,1802145.177,NULL,Ergänzung,kijalizo,s,ulaghai,mustarehe,matangazo,NA,sdfdsf,NA,1,NA,NA,NA,NA,NA,NA,NA,NA,NA,NA,NA,NA,NA,NA,NA,NA,NA,NA,NA
0ccb7,Shallow Question,html.Page,3_0_1_0_2_1_0,NA,NA,form submission,5312.9229999941,1802133.2,1802128.508,1802145.177,1807458.1,1807458.3,2023-01-28T17:03:00Z,1807464.616,NULL,Ergänzung,kijalizo,s,ulaghai,mustarehe,matangazo,kijalizo,NA,NA,1,NA,NA,NA,NA,NA,NA,NA,NA,NA,NA,NA,NA,NA,NA,NA,NA,NA,NA,NA
0ccb7,"""Richtig""-Screen",canvas.Screen,3_0_1_0_2_1_1,NA,NA,timeout,5000.7000000002,1807459.7,1807447.947,1807464.616,1812448.647,1812449.8,2023-01-28T17:03:05Z,1812465.316,NULL,Ergänzung,kijalizo,s,ulaghai,mustarehe,matangazo,NA,sdfdsf,1,1,NA,NA,NA,NA,NA,NA,NA,NA,NA,NA,NA,NA,NA,NA,NA,NA,NA,NA,NA
0ccb7,"""Falsch""-Screen",canvas.Screen,3_0_1_0_2_1_2,NA,NA,skipped,NA,1812451.4,NA,NA,1812448.647,1812451.5,2023-01-28T17:03:05Z,1812465.316,NULL,Ergänzung,kijalizo,s,ulaghai,mustarehe,matangazo,NA,sdfdsf,NA,1,NA,NA,NA,NA,NA,NA,NA,NA,NA,NA,NA,NA,NA,NA,NA,NA,NA,NA,NA
0ccb7,shallow,flow.Sequence,3_0_1_0_2_1,NA,NA,completion,10303.47,1802133.2,1802128.508,1802145.177,1812448.647,1812451.7,2023-01-28T17:03:05Z,1812465.316,NULL,Ergänzung,kijalizo,s,ulaghai,mustarehe,matangazo,NA,sdfdsf,NA,1,NA,NA,NA,NA,NA,NA,NA,NA,NA,NA,NA,NA,NA,NA,NA,NA,NA,NA,NA
0ccb7,task,flow.Sequence,3_0_1_0_2,NA,NA,completion,10303.47,1802133,1802128.508,1802145.177,1812448.647,1812451.7,2023-01-28T17:03:05Z,1812465.316,NULL,Ergänzung,kijalizo,s,ulaghai,mustarehe,matangazo,NA,sdfdsf,NA,1,NA,NA,NA,NA,NA,NA,NA,NA,NA,NA,NA,NA,NA,NA,NA,NA,NA,NA,NA
0ccb7,Deep Question,html.Page,3_0_1_0_3_0_0,NA,NA,form submission,5137.0840000059,1812451.8,1812448.647,1812465.316,1817602.4,1817602.5,2023-01-28T17:03:10Z,1817618.052,NULL,Ausschluss,kutengwa,d,NA,NA,NA,kuwerengo,NA,NA,1,NA,NA,NA,NA,NA,NA,NA,NA,NA,NA,NA,NA,NA,NA,NA,NA,NA,NA,NA
0ccb7,"""Richtig""-Screen",canvas.Screen,3_0_1_0_3_0_1,NA,NA,skipped,NA,1817604,NA,NA,1817602.4,1817604.2,2023-01-28T17:03:10Z,1817618.052,NULL,Ausschluss,kutengwa,d,NA,NA,NA,NA,sdfdsf,NA,1,NA,NA,NA,NA,NA,NA,NA,NA,NA,NA,NA,NA,NA,NA,NA,NA,NA,NA,NA
0ccb7,"""Falsch""-Screen",canvas.Screen,3_0_1_0_3_0_2,NA,NA,timeout,5000.7000000002,1817604.6,1817601.383,1817618.052,1822602.083,1822603.3,2023-01-28T17:03:15Z,1822618.752,NULL,Ausschluss,kutengwa,d,NA,NA,NA,NA,sdfdsf,0,1,NA,NA,NA,NA,NA,NA,NA,NA,NA,NA,NA,NA,NA,NA,NA,NA,NA,NA,NA
0ccb7,deep,flow.Sequence,3_0_1_0_3_0,NA,NA,completion,10136.767,1812451.7,1812448.647,1812465.316,1822602.083,1822603.6,2023-01-28T17:03:15Z,1822618.752,NULL,Ausschluss,kutengwa,d,NA,NA,NA,NA,sdfdsf,NA,1,NA,NA,NA,NA,NA,NA,NA,NA,NA,NA,NA,NA,NA,NA,NA,NA,NA,NA,NA
0ccb7,shallow,flow.Sequence,3_0_1_0_3_1,NA,NA,skipped,NA,1822603.7,NA,NA,1822602.083,1822603.7,2023-01-28T17:03:15Z,1822618.752,NULL,Ausschluss,kutengwa,d,NA,NA,NA,NA,sdfdsf,NA,1,NA,NA,NA,NA,NA,NA,NA,NA,NA,NA,NA,NA,NA,NA,NA,NA,NA,NA,NA
0ccb7,task,flow.Sequence,3_0_1_0_3,NA,NA,completion,10136.767,1812451.7,1812448.647,1812465.316,1822602.083,1822603.8,2023-01-28T17:03:15Z,1822618.752,NULL,Ausschluss,kutengwa,d,NA,NA,NA,NA,sdfdsf,NA,1,NA,NA,NA,NA,NA,NA,NA,NA,NA,NA,NA,NA,NA,NA,NA,NA,NA,NA,NA
0ccb7,Deep Question,html.Page,3_0_1_0_4_0_0,NA,NA,form submission,3647.7479999999,1822603.9,1822602.083,1822618.752,1826266.5,1826266.7,2023-01-28T17:03:19Z,1826271.678,NULL,Vergnügen,kichekesho,d,NA,NA,NA,m,NA,NA,1,NA,NA,NA,NA,NA,NA,NA,NA,NA,NA,NA,NA,NA,NA,NA,NA,NA,NA,NA
0ccb7,"""Richtig""-Screen",canvas.Screen,3_0_1_0_4_0_1,NA,NA,skipped,NA,1826268.2,NA,NA,1826266.5,1826268.4,2023-01-28T17:03:19Z,1826271.678,NULL,Vergnügen,kichekesho,d,NA,NA,NA,NA,sdfdsf,NA,1,NA,NA,NA,NA,NA,NA,NA,NA,NA,NA,NA,NA,NA,NA,NA,NA,NA,NA,NA
0ccb7,"""Falsch""-Screen",canvas.Screen,3_0_1_0_4_0_2,NA,NA,timeout,5000.7,1826268.9,1826255.009,1826271.678,1831255.709,1831256.6,2023-01-28T17:03:24Z,1831272.378,NULL,Vergnügen,kichekesho,d,NA,NA,NA,NA,sdfdsf,0,1,NA,NA,NA,NA,NA,NA,NA,NA,NA,NA,NA,NA,NA,NA,NA,NA,NA,NA,NA
0ccb7,deep,flow.Sequence,3_0_1_0_4_0,NA,NA,completion,8636.9569999999,1822603.9,1822602.083,1822618.752,1831255.709,1831256.8,2023-01-28T17:03:24Z,1831272.378,NULL,Vergnügen,kichekesho,d,NA,NA,NA,NA,sdfdsf,NA,1,NA,NA,NA,NA,NA,NA,NA,NA,NA,NA,NA,NA,NA,NA,NA,NA,NA,NA,NA
0ccb7,shallow,flow.Sequence,3_0_1_0_4_1,NA,NA,skipped,NA,1831256.8,NA,NA,1831255.709,1831256.9,2023-01-28T17:03:24Z,1831272.378,NULL,Vergnügen,kichekesho,d,NA,NA,NA,NA,sdfdsf,NA,1,NA,NA,NA,NA,NA,NA,NA,NA,NA,NA,NA,NA,NA,NA,NA,NA,NA,NA,NA
0ccb7,task,flow.Sequence,3_0_1_0_4,NA,NA,completion,8636.9569999999,1822603.9,1822602.083,1822618.752,1831255.709,1831257,2023-01-28T17:03:24Z,1831272.378,NULL,Vergnügen,kichekesho,d,NA,NA,NA,NA,sdfdsf,NA,1,NA,NA,NA,NA,NA,NA,NA,NA,NA,NA,NA,NA,NA,NA,NA,NA,NA,NA,NA
0ccb7,Deep Question,html.Page,3_0_1_0_5_0_0,NA,NA,form submission,4321.622,1831257,1831255.709,1831272.378,1835594,1835594.2,2023-01-28T17:03:28Z,1835606.318,NULL,Gelegenheit,wakati,d,NA,NA,NA,a,NA,NA,1,NA,NA,NA,NA,NA,NA,NA,NA,NA,NA,NA,NA,NA,NA,NA,NA,NA,NA,NA
0ccb7,"""Richtig""-Screen",canvas.Screen,3_0_1_0_5_0_1,NA,NA,skipped,NA,1835595.8,NA,NA,1835594,1835595.9,2023-01-28T17:03:28Z,1835606.318,NULL,Gelegenheit,wakati,d,NA,NA,NA,NA,sdfdsf,NA,1,NA,NA,NA,NA,NA,NA,NA,NA,NA,NA,NA,NA,NA,NA,NA,NA,NA,NA,NA
0ccb7,"""Falsch""-Screen",canvas.Screen,3_0_1_0_5_0_2,NA,NA,timeout,5000.7,1835596.4,1835589.649,1835606.318,1840590.349,1840591.6,2023-01-28T17:03:33Z,1840607.018,NULL,Gelegenheit,wakati,d,NA,NA,NA,NA,sdfdsf,0,1,NA,NA,NA,NA,NA,NA,NA,NA,NA,NA,NA,NA,NA,NA,NA,NA,NA,NA,NA
0ccb7,deep,flow.Sequence,3_0_1_0_5_0,NA,NA,completion,9317.9709999999,1831257,1831255.709,1831272.378,1840590.349,1840591.8,2023-01-28T17:03:33Z,1840607.018,NULL,Gelegenheit,wakati,d,NA,NA,NA,NA,sdfdsf,NA,1,NA,NA,NA,NA,NA,NA,NA,NA,NA,NA,NA,NA,NA,NA,NA,NA,NA,NA,NA
0ccb7,shallow,flow.Sequence,3_0_1_0_5_1,NA,NA,skipped,NA,1840591.8,NA,NA,1840590.349,1840591.9,2023-01-28T17:03:33Z,1840607.018,NULL,Gelegenheit,wakati,d,NA,NA,NA,NA,sdfdsf,NA,1,NA,NA,NA,NA,NA,NA,NA,NA,NA,NA,NA,NA,NA,NA,NA,NA,NA,NA,NA
0ccb7,task,flow.Sequence,3_0_1_0_5,NA,NA,completion,9317.9709999999,1831257,1831255.709,1831272.378,1840590.349,1840592,2023-01-28T17:03:33Z,1840607.018,NULL,Gelegenheit,wakati,d,NA,NA,NA,NA,sdfdsf,NA,1,NA,NA,NA,NA,NA,NA,NA,NA,NA,NA,NA,NA,NA,NA,NA,NA,NA,NA,NA
0ccb7,deep,flow.Sequence,3_0_1_0_6_0,NA,NA,skipped,NA,1840592.2,NA,NA,1840590.349,1840592.2,2023-01-28T17:03:33Z,1840607.018,NULL,Widerstand,usulubu,s,kusababisha,mwalimu,mwenendo,NA,sdfdsf,NA,1,NA,NA,NA,NA,NA,NA,NA,NA,NA,NA,NA,NA,NA,NA,NA,NA,NA,NA,NA
0ccb7,Shallow Question,html.Page,3_0_1_0_6_1_0,NA,NA,form submission,2587.4820000001,1840592.3,1840590.349,1840607.018,1843194.5,1843194.7,2023-01-28T17:03:36Z,1843194.285,NULL,Widerstand,usulubu,s,kusababisha,mwalimu,mwenendo,usulubu,NA,NA,1,NA,NA,NA,NA,NA,NA,NA,NA,NA,NA,NA,NA,NA,NA,NA,NA,NA,NA,NA
0ccb7,"""Richtig""-Screen",canvas.Screen,3_0_1_0_6_1_1,NA,NA,timeout,5000.7000000002,1843196.3,1843177.616,1843194.285,1848178.316,1848180.3,2023-01-28T17:03:41Z,1848194.985,NULL,Widerstand,usulubu,s,kusababisha,mwalimu,mwenendo,NA,sdfdsf,1,1,NA,NA,NA,NA,NA,NA,NA,NA,NA,NA,NA,NA,NA,NA,NA,NA,NA,NA,NA
0ccb7,"""Falsch""-Screen",canvas.Screen,3_0_1_0_6_1_2,NA,NA,skipped,NA,1848183.1,NA,NA,1848178.316,1848183.2,2023-01-28T17:03:41Z,1848194.985,NULL,Widerstand,usulubu,s,kusababisha,mwalimu,mwenendo,NA,sdfdsf,NA,1,NA,NA,NA,NA,NA,NA,NA,NA,NA,NA,NA,NA,NA,NA,NA,NA,NA,NA,NA
0ccb7,shallow,flow.Sequence,3_0_1_0_6_1,NA,NA,completion,7571.2980000002,1840592.2,1840590.349,1840607.018,1848178.316,1848183.4,2023-01-28T17:03:41Z,1848194.985,NULL,Widerstand,usulubu,s,kusababisha,mwalimu,mwenendo,NA,sdfdsf,NA,1,NA,NA,NA,NA,NA,NA,NA,NA,NA,NA,NA,NA,NA,NA,NA,NA,NA,NA,NA
0ccb7,task,flow.Sequence,3_0_1_0_6,NA,NA,completion,7571.2980000002,1840592.1,1840590.349,1840607.018,1848178.316,1848183.4,2023-01-28T17:03:41Z,1848194.985,NULL,Widerstand,usulubu,s,kusababisha,mwalimu,mwenendo,NA,sdfdsf,NA,1,NA,NA,NA,NA,NA,NA,NA,NA,NA,NA,NA,NA,NA,NA,NA,NA,NA,NA,NA
0ccb7,deep,flow.Sequence,3_0_1_0_7_0,NA,NA,skipped,NA,1848183.5,NA,NA,1848178.316,1848183.5,2023-01-28T17:03:41Z,1848194.985,NULL,Verstand,ufahamivu,s,shakawa,hadhari,mhandisi,NA,sdfdsf,NA,1,NA,NA,NA,NA,NA,NA,NA,NA,NA,NA,NA,NA,NA,NA,NA,NA,NA,NA,NA
0ccb7,Shallow Question,html.Page,3_0_1_0_7_1_0,NA,NA,form submission,9415.214999988,1848183.6,1848178.316,1848194.985,1857610.2,1857610.4,2023-01-28T17:03:50Z,1857614.84,NULL,Verstand,ufahamivu,s,shakawa,hadhari,mhandisi,ufahamivu,NA,NA,1,NA,NA,NA,NA,NA,NA,NA,NA,NA,NA,NA,NA,NA,NA,NA,NA,NA,NA,NA
0ccb7,"""Richtig""-Screen",canvas.Screen,3_0_1_0_7_1_1,NA,NA,timeout,5000.7,1857612,1857598.171,1857614.84,1862598.871,1862599.5,2023-01-28T17:03:55Z,1862615.54,NULL,Verstand,ufahamivu,s,shakawa,hadhari,mhandisi,NA,sdfdsf,1,1,NA,NA,NA,NA,NA,NA,NA,NA,NA,NA,NA,NA,NA,NA,NA,NA,NA,NA,NA
0ccb7,"""Falsch""-Screen",canvas.Screen,3_0_1_0_7_1_2,NA,NA,skipped,NA,1862601.8,NA,NA,1862598.871,1862601.9,2023-01-28T17:03:55Z,1862615.54,NULL,Verstand,ufahamivu,s,shakawa,hadhari,mhandisi,NA,sdfdsf,NA,1,NA,NA,NA,NA,NA,NA,NA,NA,NA,NA,NA,NA,NA,NA,NA,NA,NA,NA,NA
0ccb7,shallow,flow.Sequence,3_0_1_0_7_1,NA,NA,completion,14403.886,1848183.6,1848178.316,1848194.985,1862598.871,1862602.1,2023-01-28T17:03:55Z,1862615.54,NULL,Verstand,ufahamivu,s,shakawa,hadhari,mhandisi,NA,sdfdsf,NA,1,NA,NA,NA,NA,NA,NA,NA,NA,NA,NA,NA,NA,NA,NA,NA,NA,NA,NA,NA
0ccb7,task,flow.Sequence,3_0_1_0_7,NA,NA,completion,14403.886,1848183.5,1848178.316,1848194.985,1862598.871,1862602.2,2023-01-28T17:03:55Z,1862615.54,NULL,Verstand,ufahamivu,s,shakawa,hadhari,mhandisi,NA,sdfdsf,NA,1,NA,NA,NA,NA,NA,NA,NA,NA,NA,NA,NA,NA,NA,NA,NA,NA,NA,NA,NA
0ccb7,block,flow.Loop,3_0_1_0,NA,NA,completion,80192.045,1782390.1,1782390.157,1782406.826,1862598.871,1862602.3,2023-01-28T17:03:55Z,1862615.54,NULL,NA,NA,NA,NA,NA,NA,NA,sdfdsf,NA,1,NA,NA,NA,NA,NA,NA,NA,NA,NA,NA,NA,NA,NA,NA,NA,NA,NA,NA,NA
0ccb7,weiter,canvas.Screen,3_0_1_1,sdf,keypress(Space),response,680.36000000592,1862602.3,1862598.871,1862615.54,1863295.9,1863298.1,2023-01-28T17:03:56Z,1863333.307,NULL,NA,NA,NA,NA,NA,NA,NA,sdfdsf,NA,1,NA,NA,NA,NA,NA,NA,NA,NA,NA,NA,NA,NA,NA,NA,NA,NA,NA,NA,NA
0ccb7,check continue,flow.Sequence,3_0_1,NA,NA,completion,80889.074000006,1782390.1,1782390.157,1782406.826,1863295.9,1863298.2,2023-01-28T17:03:56Z,1863333.307,NULL,NA,NA,NA,NA,NA,NA,NA,sdfdsf,NA,1,NA,NA,NA,NA,NA,NA,NA,NA,NA,NA,NA,NA,NA,NA,NA,NA,NA,NA,NA
0ccb7,Deep Question,html.Page,3_0_2_0_0_0_0,NA,NA,form submission,5524.892999988,1863323.6,1863316.638,1863333.307,1868858.2,1868858.5,2023-01-28T17:04:01Z,1868867.415,NULL,Notfall,dharura,d,NA,NA,NA,dharuara,NA,NA,2,NA,NA,NA,NA,NA,NA,NA,NA,NA,NA,NA,NA,NA,NA,NA,NA,NA,NA,NA
0ccb7,"""Richtig""-Screen",canvas.Screen,3_0_2_0_0_0_1,NA,NA,skipped,NA,1868859.8,NA,NA,1868858.2,1868860,2023-01-28T17:04:01Z,1868867.415,NULL,Notfall,dharura,d,NA,NA,NA,NA,sdf,NA,2,NA,NA,NA,NA,NA,NA,NA,NA,NA,NA,NA,NA,NA,NA,NA,NA,NA,NA,NA
0ccb7,"""Falsch""-Screen",canvas.Screen,3_0_2_0_0_0_2,NA,NA,timeout,5000.7,1868860.4,1868850.746,1868867.415,1873851.446,1873852.8,2023-01-28T17:04:06Z,1873868.115,NULL,Notfall,dharura,d,NA,NA,NA,NA,sdf,0,2,NA,NA,NA,NA,NA,NA,NA,NA,NA,NA,NA,NA,NA,NA,NA,NA,NA,NA,NA
0ccb7,deep,flow.Sequence,3_0_2_0_0_0,NA,NA,completion,10518.139,1863323.6,1863316.638,1863333.307,1873851.446,1873853,2023-01-28T17:04:06Z,1873868.115,NULL,Notfall,dharura,d,NA,NA,NA,NA,sdf,NA,2,NA,NA,NA,NA,NA,NA,NA,NA,NA,NA,NA,NA,NA,NA,NA,NA,NA,NA,NA
0ccb7,shallow,flow.Sequence,3_0_2_0_0_1,NA,NA,skipped,NA,1873853,NA,NA,1873851.446,1873853,2023-01-28T17:04:06Z,1873868.115,NULL,Notfall,dharura,d,NA,NA,NA,NA,sdf,NA,2,NA,NA,NA,NA,NA,NA,NA,NA,NA,NA,NA,NA,NA,NA,NA,NA,NA,NA,NA
0ccb7,task,flow.Sequence,3_0_2_0_0,NA,NA,completion,10518.139,1863323.6,1863316.638,1863333.307,1873851.446,1873853.1,2023-01-28T17:04:06Z,1873868.115,NULL,Notfall,dharura,d,NA,NA,NA,NA,sdf,NA,2,NA,NA,NA,NA,NA,NA,NA,NA,NA,NA,NA,NA,NA,NA,NA,NA,NA,NA,NA
0ccb7,deep,flow.Sequence,3_0_2_0_1_0,NA,NA,skipped,NA,1873853.2,NA,NA,1873851.446,1873853.2,2023-01-28T17:04:06Z,1873868.115,NULL,Ergänzung,kijalizo,s,ulaghai,mustarehe,matangazo,NA,sdf,NA,2,NA,NA,NA,NA,NA,NA,NA,NA,NA,NA,NA,NA,NA,NA,NA,NA,NA,NA,NA
0ccb7,Shallow Question,html.Page,3_0_2_0_1_1_0,NA,NA,form submission,3141.984999994,1873853.3,1873851.446,1873868.115,1877010.1,1877010.3,2023-01-28T17:04:09Z,1877020.682,NULL,Ergänzung,kijalizo,s,ulaghai,mustarehe,matangazo,kijalizo,NA,NA,2,NA,NA,NA,NA,NA,NA,NA,NA,NA,NA,NA,NA,NA,NA,NA,NA,NA,NA,NA
0ccb7,"""Richtig""-Screen",canvas.Screen,3_0_2_0_1_1_1,NA,NA,timeout,5000.7,1877011.9,1877004.013,1877020.682,1882004.713,1882006.5,2023-01-28T17:04:14Z,1882021.382,NULL,Ergänzung,kijalizo,s,ulaghai,mustarehe,matangazo,NA,sdf,1,2,NA,NA,NA,NA,NA,NA,NA,NA,NA,NA,NA,NA,NA,NA,NA,NA,NA,NA,NA
0ccb7,"""Falsch""-Screen",canvas.Screen,3_0_2_0_1_1_2,NA,NA,skipped,NA,1882008.1,NA,NA,1882004.713,1882008.2,2023-01-28T17:04:14Z,1882021.382,NULL,Ergänzung,kijalizo,s,ulaghai,mustarehe,matangazo,NA,sdf,NA,2,NA,NA,NA,NA,NA,NA,NA,NA,NA,NA,NA,NA,NA,NA,NA,NA,NA,NA,NA
0ccb7,shallow,flow.Sequence,3_0_2_0_1_1,NA,NA,completion,8136.598,1873853.3,1873851.446,1873868.115,1882004.713,1882008.3,2023-01-28T17:04:14Z,1882021.382,NULL,Ergänzung,kijalizo,s,ulaghai,mustarehe,matangazo,NA,sdf,NA,2,NA,NA,NA,NA,NA,NA,NA,NA,NA,NA,NA,NA,NA,NA,NA,NA,NA,NA,NA
0ccb7,task,flow.Sequence,3_0_2_0_1,NA,NA,completion,8136.598,1873853.2,1873851.446,1873868.115,1882004.713,1882008.4,2023-01-28T17:04:14Z,1882021.382,NULL,Ergänzung,kijalizo,s,ulaghai,mustarehe,matangazo,NA,sdf,NA,2,NA,NA,NA,NA,NA,NA,NA,NA,NA,NA,NA,NA,NA,NA,NA,NA,NA,NA,NA
0ccb7,deep,flow.Sequence,3_0_2_0_2_0,NA,NA,skipped,NA,1882008.5,NA,NA,1882004.713,1882008.5,2023-01-28T17:04:14Z,1882021.382,NULL,Wohlstand,mafanikio,s,chimbuko,kumbuko,mapwaji,NA,sdf,NA,2,NA,NA,NA,NA,NA,NA,NA,NA,NA,NA,NA,NA,NA,NA,NA,NA,NA,NA,NA
0ccb7,Shallow Question,html.Page,3_0_2_0_2_1_0,NA,NA,form submission,2580.8179999881,1882008.6,1882004.713,1882021.382,1884602.2,1884602.4,2023-01-28T17:04:17Z,1884606.493,NULL,Wohlstand,mafanikio,s,chimbuko,kumbuko,mapwaji,mafanikio,NA,NA,2,NA,NA,NA,NA,NA,NA,NA,NA,NA,NA,NA,NA,NA,NA,NA,NA,NA,NA,NA
0ccb7,"""Richtig""-Screen",canvas.Screen,3_0_2_0_2_1_1,NA,NA,timeout,5000.7,1884603,1884589.824,1884606.493,1889590.524,1889592.7,2023-01-28T17:04:22Z,1889607.193,NULL,Wohlstand,mafanikio,s,chimbuko,kumbuko,mapwaji,NA,sdf,1,2,NA,NA,NA,NA,NA,NA,NA,NA,NA,NA,NA,NA,NA,NA,NA,NA,NA,NA,NA
0ccb7,"""Falsch""-Screen",canvas.Screen,3_0_2_0_2_1_2,NA,NA,skipped,NA,1889594.3,NA,NA,1889590.524,1889594.3,2023-01-28T17:04:22Z,1889607.193,NULL,Wohlstand,mafanikio,s,chimbuko,kumbuko,mapwaji,NA,sdf,NA,2,NA,NA,NA,NA,NA,NA,NA,NA,NA,NA,NA,NA,NA,NA,NA,NA,NA,NA,NA
0ccb7,shallow,flow.Sequence,3_0_2_0_2_1,NA,NA,completion,7569.142,1882008.6,1882004.713,1882021.382,1889590.524,1889594.4,2023-01-28T17:04:22Z,1889607.193,NULL,Wohlstand,mafanikio,s,chimbuko,kumbuko,mapwaji,NA,sdf,NA,2,NA,NA,NA,NA,NA,NA,NA,NA,NA,NA,NA,NA,NA,NA,NA,NA,NA,NA,NA
0ccb7,task,flow.Sequence,3_0_2_0_2,NA,NA,completion,7569.142,1882008.5,1882004.713,1882021.382,1889590.524,1889594.5,2023-01-28T17:04:22Z,1889607.193,NULL,Wohlstand,mafanikio,s,chimbuko,kumbuko,mapwaji,NA,sdf,NA,2,NA,NA,NA,NA,NA,NA,NA,NA,NA,NA,NA,NA,NA,NA,NA,NA,NA,NA,NA
0ccb7,Deep Question,html.Page,3_0_2_0_3_0_0,NA,NA,form submission,11819.107000012,1889594.6,1889590.524,1889607.193,1901426.3,1901426.5,2023-01-28T17:04:34Z,1901427.551,NULL,Gelegenheit,wakati,d,NA,NA,NA,ki,NA,NA,2,NA,NA,NA,NA,NA,NA,NA,NA,NA,NA,NA,NA,NA,NA,NA,NA,NA,NA,NA
0ccb7,"""Richtig""-Screen",canvas.Screen,3_0_2_0_3_0_1,NA,NA,skipped,NA,1901428.1,NA,NA,1901426.3,1901428.1,2023-01-28T17:04:34Z,1901427.551,NULL,Gelegenheit,wakati,d,NA,NA,NA,NA,sdf,NA,2,NA,NA,NA,NA,NA,NA,NA,NA,NA,NA,NA,NA,NA,NA,NA,NA,NA,NA,NA
0ccb7,"""Falsch""-Screen",canvas.Screen,3_0_2_0_3_0_2,NA,NA,timeout,5000.7,1901428.7,1901410.882,1901427.551,1906411.582,1906413.2,2023-01-28T17:04:39Z,1906428.251,NULL,Gelegenheit,wakati,d,NA,NA,NA,NA,sdf,0,2,NA,NA,NA,NA,NA,NA,NA,NA,NA,NA,NA,NA,NA,NA,NA,NA,NA,NA,NA
0ccb7,deep,flow.Sequence,3_0_2_0_3_0,NA,NA,completion,16804.389,1889594.6,1889590.524,1889607.193,1906411.582,1906413.4,2023-01-28T17:04:39Z,1906428.251,NULL,Gelegenheit,wakati,d,NA,NA,NA,NA,sdf,NA,2,NA,NA,NA,NA,NA,NA,NA,NA,NA,NA,NA,NA,NA,NA,NA,NA,NA,NA,NA
0ccb7,shallow,flow.Sequence,3_0_2_0_3_1,NA,NA,skipped,NA,1906413.4,NA,NA,1906411.582,1906413.5,2023-01-28T17:04:39Z,1906428.251,NULL,Gelegenheit,wakati,d,NA,NA,NA,NA,sdf,NA,2,NA,NA,NA,NA,NA,NA,NA,NA,NA,NA,NA,NA,NA,NA,NA,NA,NA,NA,NA
0ccb7,task,flow.Sequence,3_0_2_0_3,NA,NA,completion,16804.389,1889594.6,1889590.524,1889607.193,1906411.582,1906413.6,2023-01-28T17:04:39Z,1906428.251,NULL,Gelegenheit,wakati,d,NA,NA,NA,NA,sdf,NA,2,NA,NA,NA,NA,NA,NA,NA,NA,NA,NA,NA,NA,NA,NA,NA,NA,NA,NA,NA
0ccb7,Deep Question,html.Page,3_0_2_0_4_0_0,NA,NA,form submission,15733.948999988,1906413.6,1906411.582,1906428.251,1922162.2,1922162.4,2023-01-28T17:04:55Z,1922173.669,NULL,Ausschluss,kutengwa,d,NA,NA,NA,m,NA,NA,2,NA,NA,NA,NA,NA,NA,NA,NA,NA,NA,NA,NA,NA,NA,NA,NA,NA,NA,NA
0ccb7,"""Richtig""-Screen",canvas.Screen,3_0_2_0_4_0_1,NA,NA,skipped,NA,1922164,NA,NA,1922162.2,1922164.2,2023-01-28T17:04:55Z,1922173.669,NULL,Ausschluss,kutengwa,d,NA,NA,NA,NA,sdf,NA,2,NA,NA,NA,NA,NA,NA,NA,NA,NA,NA,NA,NA,NA,NA,NA,NA,NA,NA,NA
0ccb7,"""Falsch""-Screen",canvas.Screen,3_0_2_0_4_0_2,NA,NA,timeout,5000.7,1922164.7,1922157,1922173.669,1927157.7,1927159.8,2023-01-28T17:05:00Z,1927174.369,NULL,Ausschluss,kutengwa,d,NA,NA,NA,NA,sdf,0,2,NA,NA,NA,NA,NA,NA,NA,NA,NA,NA,NA,NA,NA,NA,NA,NA,NA,NA,NA
0ccb7,deep,flow.Sequence,3_0_2_0_4_0,NA,NA,completion,20729.449,1906413.6,1906411.582,1906428.251,1927157.7,1927160,2023-01-28T17:05:00Z,1927174.369,NULL,Ausschluss,kutengwa,d,NA,NA,NA,NA,sdf,NA,2,NA,NA,NA,NA,NA,NA,NA,NA,NA,NA,NA,NA,NA,NA,NA,NA,NA,NA,NA
0ccb7,shallow,flow.Sequence,3_0_2_0_4_1,NA,NA,skipped,NA,1927160.1,NA,NA,1927157.7,1927160.1,2023-01-28T17:05:00Z,1927174.369,NULL,Ausschluss,kutengwa,d,NA,NA,NA,NA,sdf,NA,2,NA,NA,NA,NA,NA,NA,NA,NA,NA,NA,NA,NA,NA,NA,NA,NA,NA,NA,NA
0ccb7,task,flow.Sequence,3_0_2_0_4,NA,NA,completion,20729.449,1906413.6,1906411.582,1906428.251,1927157.7,1927160.2,2023-01-28T17:05:00Z,1927174.369,NULL,Ausschluss,kutengwa,d,NA,NA,NA,NA,sdf,NA,2,NA,NA,NA,NA,NA,NA,NA,NA,NA,NA,NA,NA,NA,NA,NA,NA,NA,NA,NA
0ccb7,deep,flow.Sequence,3_0_2_0_5_0,NA,NA,skipped,NA,1927160.3,NA,NA,1927157.7,1927160.4,2023-01-28T17:05:00Z,1927174.369,NULL,Verstand,ufahamivu,s,shakawa,hadhari,mhandisi,NA,sdf,NA,2,NA,NA,NA,NA,NA,NA,NA,NA,NA,NA,NA,NA,NA,NA,NA,NA,NA,NA,NA
0ccb7,Shallow Question,html.Page,3_0_2_0_5_1_0,NA,NA,form submission,2803.931000012,1927160.4,1927157.7,1927174.369,1929978.3,1929978.5,2023-01-28T17:05:02Z,1929979.017,NULL,Verstand,ufahamivu,s,shakawa,hadhari,mhandisi,ufahamivu,NA,NA,2,NA,NA,NA,NA,NA,NA,NA,NA,NA,NA,NA,NA,NA,NA,NA,NA,NA,NA,NA
0ccb7,"""Richtig""-Screen",canvas.Screen,3_0_2_0_5_1_1,NA,NA,timeout,5000.7,1929979.9,1929962.348,1929979.017,1934963.048,1934964,2023-01-28T17:05:07Z,1934979.717,NULL,Verstand,ufahamivu,s,shakawa,hadhari,mhandisi,NA,sdf,1,2,NA,NA,NA,NA,NA,NA,NA,NA,NA,NA,NA,NA,NA,NA,NA,NA,NA,NA,NA
0ccb7,"""Falsch""-Screen",canvas.Screen,3_0_2_0_5_1_2,NA,NA,skipped,NA,1934966.5,NA,NA,1934963.048,1934966.6,2023-01-28T17:05:07Z,1934979.717,NULL,Verstand,ufahamivu,s,shakawa,hadhari,mhandisi,NA,sdf,NA,2,NA,NA,NA,NA,NA,NA,NA,NA,NA,NA,NA,NA,NA,NA,NA,NA,NA,NA,NA
0ccb7,shallow,flow.Sequence,3_0_2_0_5_1,NA,NA,completion,7788.679,1927160.4,1927157.7,1927174.369,1934963.048,1934966.7,2023-01-28T17:05:07Z,1934979.717,NULL,Verstand,ufahamivu,s,shakawa,hadhari,mhandisi,NA,sdf,NA,2,NA,NA,NA,NA,NA,NA,NA,NA,NA,NA,NA,NA,NA,NA,NA,NA,NA,NA,NA
0ccb7,task,flow.Sequence,3_0_2_0_5,NA,NA,completion,7788.679,1927160.3,1927157.7,1927174.369,1934963.048,1934966.9,2023-01-28T17:05:07Z,1934979.717,NULL,Verstand,ufahamivu,s,shakawa,hadhari,mhandisi,NA,sdf,NA,2,NA,NA,NA,NA,NA,NA,NA,NA,NA,NA,NA,NA,NA,NA,NA,NA,NA,NA,NA
0ccb7,deep,flow.Sequence,3_0_2_0_6_0,NA,NA,skipped,NA,1934967,NA,NA,1934963.048,1934967,2023-01-28T17:05:07Z,1934979.717,NULL,Widerstand,usulubu,s,kusababisha,mwalimu,mwenendo,NA,sdf,NA,2,NA,NA,NA,NA,NA,NA,NA,NA,NA,NA,NA,NA,NA,NA,NA,NA,NA,NA,NA
0ccb7,Shallow Question,html.Page,3_0_2_0_6_1_0,NA,NA,form submission,3638.583000012,1934967.1,1934963.048,1934979.717,1938618.3,1938618.5,2023-01-28T17:05:11Z,1938631.757,NULL,Widerstand,usulubu,s,kusababisha,mwalimu,mwenendo,usulubu,NA,NA,2,NA,NA,NA,NA,NA,NA,NA,NA,NA,NA,NA,NA,NA,NA,NA,NA,NA,NA,NA
0ccb7,"""Richtig""-Screen",canvas.Screen,3_0_2_0_6_1_1,NA,NA,timeout,5000.7,1938620,1938615.088,1938631.757,1943615.788,1943618.2,2023-01-28T17:05:16Z,1943632.457,NULL,Widerstand,usulubu,s,kusababisha,mwalimu,mwenendo,NA,sdf,1,2,NA,NA,NA,NA,NA,NA,NA,NA,NA,NA,NA,NA,NA,NA,NA,NA,NA,NA,NA
0ccb7,"""Falsch""-Screen",canvas.Screen,3_0_2_0_6_1_2,NA,NA,skipped,NA,1943620.7,NA,NA,1943615.788,1943620.9,2023-01-28T17:05:16Z,1943632.457,NULL,Widerstand,usulubu,s,kusababisha,mwalimu,mwenendo,NA,sdf,NA,2,NA,NA,NA,NA,NA,NA,NA,NA,NA,NA,NA,NA,NA,NA,NA,NA,NA,NA,NA
0ccb7,shallow,flow.Sequence,3_0_2_0_6_1,NA,NA,completion,8636.071,1934967.1,1934963.048,1934979.717,1943615.788,1943621.1,2023-01-28T17:05:16Z,1943632.457,NULL,Widerstand,usulubu,s,kusababisha,mwalimu,mwenendo,NA,sdf,NA,2,NA,NA,NA,NA,NA,NA,NA,NA,NA,NA,NA,NA,NA,NA,NA,NA,NA,NA,NA
0ccb7,task,flow.Sequence,3_0_2_0_6,NA,NA,completion,8636.071,1934966.9,1934963.048,1934979.717,1943615.788,1943621.3,2023-01-28T17:05:16Z,1943632.457,NULL,Widerstand,usulubu,s,kusababisha,mwalimu,mwenendo,NA,sdf,NA,2,NA,NA,NA,NA,NA,NA,NA,NA,NA,NA,NA,NA,NA,NA,NA,NA,NA,NA,NA
0ccb7,Deep Question,html.Page,3_0_2_0_7_0_0,NA,NA,form submission,11081.943000006,1943621.4,1943615.788,1943632.457,1954714.4,1954714.6,2023-01-28T17:05:27Z,1954718.259,NULL,Vergnügen,kichekesho,d,NA,NA,NA,kichengo,NA,NA,2,NA,NA,NA,NA,NA,NA,NA,NA,NA,NA,NA,NA,NA,NA,NA,NA,NA,NA,NA
0ccb7,"""Richtig""-Screen",canvas.Screen,3_0_2_0_7_0_1,NA,NA,skipped,NA,1954716.2,NA,NA,1954714.4,1954716.2,2023-01-28T17:05:27Z,1954718.259,NULL,Vergnügen,kichekesho,d,NA,NA,NA,NA,sdf,NA,2,NA,NA,NA,NA,NA,NA,NA,NA,NA,NA,NA,NA,NA,NA,NA,NA,NA,NA,NA
0ccb7,"""Falsch""-Screen",canvas.Screen,3_0_2_0_7_0_2,NA,NA,timeout,5000.7,1954716.9,1954701.59,1954718.259,1959702.29,1959703.6,2023-01-28T17:05:32Z,1959718.959,NULL,Vergnügen,kichekesho,d,NA,NA,NA,NA,sdf,0,2,NA,NA,NA,NA,NA,NA,NA,NA,NA,NA,NA,NA,NA,NA,NA,NA,NA,NA,NA
0ccb7,deep,flow.Sequence,3_0_2_0_7_0,NA,NA,completion,16069.833,1943621.4,1943615.788,1943632.457,1959702.29,1959703.7,2023-01-28T17:05:32Z,1959718.959,NULL,Vergnügen,kichekesho,d,NA,NA,NA,NA,sdf,NA,2,NA,NA,NA,NA,NA,NA,NA,NA,NA,NA,NA,NA,NA,NA,NA,NA,NA,NA,NA
0ccb7,shallow,flow.Sequence,3_0_2_0_7_1,NA,NA,skipped,NA,1959703.8,NA,NA,1959702.29,1959703.9,2023-01-28T17:05:32Z,1959718.959,NULL,Vergnügen,kichekesho,d,NA,NA,NA,NA,sdf,NA,2,NA,NA,NA,NA,NA,NA,NA,NA,NA,NA,NA,NA,NA,NA,NA,NA,NA,NA,NA
0ccb7,task,flow.Sequence,3_0_2_0_7,NA,NA,completion,16069.833,1943621.4,1943615.788,1943632.457,1959702.29,1959703.9,2023-01-28T17:05:32Z,1959718.959,NULL,Vergnügen,kichekesho,d,NA,NA,NA,NA,sdf,NA,2,NA,NA,NA,NA,NA,NA,NA,NA,NA,NA,NA,NA,NA,NA,NA,NA,NA,NA,NA
0ccb7,block,flow.Loop,3_0_2_0,NA,NA,completion,96368.983,1863323.6,1863316.638,1863333.307,1959702.29,1959704,2023-01-28T17:05:32Z,1959718.959,NULL,NA,NA,NA,NA,NA,NA,NA,sdf,NA,2,NA,NA,NA,NA,NA,NA,NA,NA,NA,NA,NA,NA,NA,NA,NA,NA,NA,NA,NA
0ccb7,weiter,canvas.Screen,3_0_2_1,sdf,keypress(Space),response,744.74099998805,1959704.2,1959702.29,1959718.959,1960463.7,1960466.7,2023-01-28T17:05:33Z,1960502.402,NULL,NA,NA,NA,NA,NA,NA,NA,sdf,NA,2,NA,NA,NA,NA,NA,NA,NA,NA,NA,NA,NA,NA,NA,NA,NA,NA,NA,NA,NA
0ccb7,check continue,flow.Sequence,3_0_2,NA,NA,completion,97130.392999988,1863323.6,1863316.638,1863333.307,1960463.7,1960466.8,2023-01-28T17:05:33Z,1960502.402,NULL,NA,NA,NA,NA,NA,NA,NA,sdf,NA,2,NA,NA,NA,NA,NA,NA,NA,NA,NA,NA,NA,NA,NA,NA,NA,NA,NA,NA,NA
0ccb7,deep,flow.Sequence,3_0_3_0_0_0,NA,NA,skipped,NA,1960493.8,NA,NA,1960463.7,1960494,2023-01-28T17:05:33Z,1960502.402,NULL,Ergänzung,kijalizo,s,ulaghai,mustarehe,matangazo,NA,qt,NA,3,NA,NA,NA,NA,NA,NA,NA,NA,NA,NA,NA,NA,NA,NA,NA,NA,NA,NA,NA
0ccb7,Shallow Question,html.Page,3_0_3_0_0_1_0,NA,NA,form submission,2731.998000006,1960494.4,1960485.733,1960502.402,1963234.4,1963234.6,2023-01-28T17:05:36Z,1963238.347,NULL,Ergänzung,kijalizo,s,ulaghai,mustarehe,matangazo,kijalizo,NA,NA,3,NA,NA,NA,NA,NA,NA,NA,NA,NA,NA,NA,NA,NA,NA,NA,NA,NA,NA,NA
0ccb7,"""Richtig""-Screen",canvas.Screen,3_0_3_0_0_1_1,NA,NA,timeout,5000.7,1963236.2,1963221.678,1963238.347,1968222.378,1968224.3,2023-01-28T17:05:41Z,1968239.047,NULL,Ergänzung,kijalizo,s,ulaghai,mustarehe,matangazo,NA,qt,1,3,NA,NA,NA,NA,NA,NA,NA,NA,NA,NA,NA,NA,NA,NA,NA,NA,NA,NA,NA
0ccb7,"""Falsch""-Screen",canvas.Screen,3_0_3_0_0_1_2,NA,NA,skipped,NA,1968226.5,NA,NA,1968222.378,1968226.6,2023-01-28T17:05:41Z,1968239.047,NULL,Ergänzung,kijalizo,s,ulaghai,mustarehe,matangazo,NA,qt,NA,3,NA,NA,NA,NA,NA,NA,NA,NA,NA,NA,NA,NA,NA,NA,NA,NA,NA,NA,NA
0ccb7,shallow,flow.Sequence,3_0_3_0_0_1,NA,NA,completion,7719.976,1960494.3,1960485.733,1960502.402,1968222.378,1968226.7,2023-01-28T17:05:41Z,1968239.047,NULL,Ergänzung,kijalizo,s,ulaghai,mustarehe,matangazo,NA,qt,NA,3,NA,NA,NA,NA,NA,NA,NA,NA,NA,NA,NA,NA,NA,NA,NA,NA,NA,NA,NA
0ccb7,task,flow.Sequence,3_0_3_0_0,NA,NA,completion,7719.976,1960493.8,1960485.733,1960502.402,1968222.378,1968226.8,2023-01-28T17:05:41Z,1968239.047,NULL,Ergänzung,kijalizo,s,ulaghai,mustarehe,matangazo,NA,qt,NA,3,NA,NA,NA,NA,NA,NA,NA,NA,NA,NA,NA,NA,NA,NA,NA,NA,NA,NA,NA
0ccb7,Deep Question,html.Page,3_0_3_0_1_0_0,NA,NA,form submission,5523.1529999881,1968227,1968222.378,1968239.047,1973762.2,1973762.4,2023-01-28T17:05:46Z,1973774.19,NULL,Notfall,dharura,d,NA,NA,NA,dharura,NA,NA,3,NA,NA,NA,NA,NA,NA,NA,NA,NA,NA,NA,NA,NA,NA,NA,NA,NA,NA,NA
0ccb7,"""Richtig""-Screen",canvas.Screen,3_0_3_0_1_0_1,NA,NA,timeout,5000.7,1973763.9,1973757.521,1973774.19,1978758.221,1978759.5,2023-01-28T17:05:51Z,1978774.89,NULL,Notfall,dharura,d,NA,NA,NA,NA,qt,1,3,NA,NA,NA,NA,NA,NA,NA,NA,NA,NA,NA,NA,NA,NA,NA,NA,NA,NA,NA
0ccb7,"""Falsch""-Screen",canvas.Screen,3_0_3_0_1_0_2,NA,NA,skipped,NA,1978761,NA,NA,1978758.221,1978761.2,2023-01-28T17:05:51Z,1978774.89,NULL,Notfall,dharura,d,NA,NA,NA,NA,qt,NA,3,NA,NA,NA,NA,NA,NA,NA,NA,NA,NA,NA,NA,NA,NA,NA,NA,NA,NA,NA
0ccb7,deep,flow.Sequence,3_0_3_0_1_0,NA,NA,completion,10519.174,1968226.9,1968222.378,1968239.047,1978758.221,1978761.3,2023-01-28T17:05:51Z,1978774.89,NULL,Notfall,dharura,d,NA,NA,NA,NA,qt,NA,3,NA,NA,NA,NA,NA,NA,NA,NA,NA,NA,NA,NA,NA,NA,NA,NA,NA,NA,NA
0ccb7,shallow,flow.Sequence,3_0_3_0_1_1,NA,NA,skipped,NA,1978761.3,NA,NA,1978758.221,1978761.3,2023-01-28T17:05:51Z,1978774.89,NULL,Notfall,dharura,d,NA,NA,NA,NA,qt,NA,3,NA,NA,NA,NA,NA,NA,NA,NA,NA,NA,NA,NA,NA,NA,NA,NA,NA,NA,NA
0ccb7,task,flow.Sequence,3_0_3_0_1,NA,NA,completion,10519.174,1968226.9,1968222.378,1968239.047,1978758.221,1978761.5,2023-01-28T17:05:51Z,1978774.89,NULL,Notfall,dharura,d,NA,NA,NA,NA,qt,NA,3,NA,NA,NA,NA,NA,NA,NA,NA,NA,NA,NA,NA,NA,NA,NA,NA,NA,NA,NA
0ccb7,deep,flow.Sequence,3_0_3_0_2_0,NA,NA,skipped,NA,1978761.5,NA,NA,1978758.221,1978761.6,2023-01-28T17:05:51Z,1978774.89,NULL,Verstand,ufahamivu,s,shakawa,hadhari,mhandisi,NA,qt,NA,3,NA,NA,NA,NA,NA,NA,NA,NA,NA,NA,NA,NA,NA,NA,NA,NA,NA,NA,NA
0ccb7,Shallow Question,html.Page,3_0_3_0_2_1_0,NA,NA,form submission,2963.5100000061,1978761.6,1978758.221,1978774.89,1981738.4,1981738.5,2023-01-28T17:05:54Z,1981741.972,NULL,Verstand,ufahamivu,s,shakawa,hadhari,mhandisi,ufahamivu,NA,NA,3,NA,NA,NA,NA,NA,NA,NA,NA,NA,NA,NA,NA,NA,NA,NA,NA,NA,NA,NA
0ccb7,"""Richtig""-Screen",canvas.Screen,3_0_3_0_2_1_1,NA,NA,timeout,5002.527,1981740.3,1981725.303,1981741.972,1986727.83,1986729.5,2023-01-28T17:05:59Z,1986744.499,NULL,Verstand,ufahamivu,s,shakawa,hadhari,mhandisi,NA,qt,1,3,NA,NA,NA,NA,NA,NA,NA,NA,NA,NA,NA,NA,NA,NA,NA,NA,NA,NA,NA
0ccb7,"""Falsch""-Screen",canvas.Screen,3_0_3_0_2_1_2,NA,NA,skipped,NA,1986731.2,NA,NA,1986727.83,1986731.2,2023-01-28T17:05:59Z,1986744.499,NULL,Verstand,ufahamivu,s,shakawa,hadhari,mhandisi,NA,qt,NA,3,NA,NA,NA,NA,NA,NA,NA,NA,NA,NA,NA,NA,NA,NA,NA,NA,NA,NA,NA
0ccb7,shallow,flow.Sequence,3_0_3_0_2_1,NA,NA,completion,7952.9400000002,1978761.6,1978758.221,1978774.89,1986727.83,1986731.4,2023-01-28T17:05:59Z,1986744.499,NULL,Verstand,ufahamivu,s,shakawa,hadhari,mhandisi,NA,qt,NA,3,NA,NA,NA,NA,NA,NA,NA,NA,NA,NA,NA,NA,NA,NA,NA,NA,NA,NA,NA
0ccb7,task,flow.Sequence,3_0_3_0_2,NA,NA,completion,7952.9400000002,1978761.5,1978758.221,1978774.89,1986727.83,1986731.4,2023-01-28T17:05:59Z,1986744.499,NULL,Verstand,ufahamivu,s,shakawa,hadhari,mhandisi,NA,qt,NA,3,NA,NA,NA,NA,NA,NA,NA,NA,NA,NA,NA,NA,NA,NA,NA,NA,NA,NA,NA
0ccb7,Deep Question,html.Page,3_0_3_0_3_0_0,NA,NA,form submission,29593.901000006,1986731.5,1986727.83,1986744.499,2016338.4,2016338.6,2023-01-28T17:06:29Z,2016348.674,NULL,Ausschluss,kutengwa,d,NA,NA,NA,m,NA,NA,3,NA,NA,NA,NA,NA,NA,NA,NA,NA,NA,NA,NA,NA,NA,NA,NA,NA,NA,NA
0ccb7,"""Richtig""-Screen",canvas.Screen,3_0_3_0_3_0_1,NA,NA,skipped,NA,2016340.4,NA,NA,2016338.4,2016340.5,2023-01-28T17:06:29Z,2016348.674,NULL,Ausschluss,kutengwa,d,NA,NA,NA,NA,qt,NA,3,NA,NA,NA,NA,NA,NA,NA,NA,NA,NA,NA,NA,NA,NA,NA,NA,NA,NA,NA
0ccb7,"""Falsch""-Screen",canvas.Screen,3_0_3_0_3_0_2,NA,NA,timeout,5000.7,2016341.1,2016332.005,2016348.674,2021332.705,2021334.3,2023-01-28T17:06:34Z,2021349.374,NULL,Ausschluss,kutengwa,d,NA,NA,NA,NA,qt,0,3,NA,NA,NA,NA,NA,NA,NA,NA,NA,NA,NA,NA,NA,NA,NA,NA,NA,NA,NA
0ccb7,deep,flow.Sequence,3_0_3_0_3_0,NA,NA,completion,34588.206,1986731.4,1986727.83,1986744.499,2021332.705,2021334.4,2023-01-28T17:06:34Z,2021349.374,NULL,Ausschluss,kutengwa,d,NA,NA,NA,NA,qt,NA,3,NA,NA,NA,NA,NA,NA,NA,NA,NA,NA,NA,NA,NA,NA,NA,NA,NA,NA,NA
0ccb7,shallow,flow.Sequence,3_0_3_0_3_1,NA,NA,skipped,NA,2021334.5,NA,NA,2021332.705,2021334.5,2023-01-28T17:06:34Z,2021349.374,NULL,Ausschluss,kutengwa,d,NA,NA,NA,NA,qt,NA,3,NA,NA,NA,NA,NA,NA,NA,NA,NA,NA,NA,NA,NA,NA,NA,NA,NA,NA,NA
0ccb7,task,flow.Sequence,3_0_3_0_3,NA,NA,completion,34588.206,1986731.4,1986727.83,1986744.499,2021332.705,2021334.6,2023-01-28T17:06:34Z,2021349.374,NULL,Ausschluss,kutengwa,d,NA,NA,NA,NA,qt,NA,3,NA,NA,NA,NA,NA,NA,NA,NA,NA,NA,NA,NA,NA,NA,NA,NA,NA,NA,NA
0ccb7,deep,flow.Sequence,3_0_3_0_4_0,NA,NA,skipped,NA,2021334.7,NA,NA,2021332.705,2021334.8,2023-01-28T17:06:34Z,2021349.374,NULL,Wohlstand,mafanikio,s,chimbuko,kumbuko,mapwaji,NA,qt,NA,3,NA,NA,NA,NA,NA,NA,NA,NA,NA,NA,NA,NA,NA,NA,NA,NA,NA,NA,NA
0ccb7,Shallow Question,html.Page,3_0_3_0_4_1_0,NA,NA,form submission,2125.0260000059,2021334.8,2021332.705,2021349.374,2023474.4,2023474.5,2023-01-28T17:06:36Z,2023485.94,NULL,Wohlstand,mafanikio,s,chimbuko,kumbuko,mapwaji,mafanikio,NA,NA,3,NA,NA,NA,NA,NA,NA,NA,NA,NA,NA,NA,NA,NA,NA,NA,NA,NA,NA,NA
0ccb7,"""Richtig""-Screen",canvas.Screen,3_0_3_0_4_1_1,NA,NA,timeout,5000.7,2023476,2023469.271,2023485.94,2028469.971,2028471,2023-01-28T17:06:41Z,2028486.64,NULL,Wohlstand,mafanikio,s,chimbuko,kumbuko,mapwaji,NA,qt,1,3,NA,NA,NA,NA,NA,NA,NA,NA,NA,NA,NA,NA,NA,NA,NA,NA,NA,NA,NA
0ccb7,"""Falsch""-Screen",canvas.Screen,3_0_3_0_4_1_2,NA,NA,skipped,NA,2028473.6,NA,NA,2028469.971,2028473.6,2023-01-28T17:06:41Z,2028486.64,NULL,Wohlstand,mafanikio,s,chimbuko,kumbuko,mapwaji,NA,qt,NA,3,NA,NA,NA,NA,NA,NA,NA,NA,NA,NA,NA,NA,NA,NA,NA,NA,NA,NA,NA
0ccb7,shallow,flow.Sequence,3_0_3_0_4_1,NA,NA,completion,7120.5969999998,2021334.8,2021332.705,2021349.374,2028469.971,2028473.8,2023-01-28T17:06:41Z,2028486.64,NULL,Wohlstand,mafanikio,s,chimbuko,kumbuko,mapwaji,NA,qt,NA,3,NA,NA,NA,NA,NA,NA,NA,NA,NA,NA,NA,NA,NA,NA,NA,NA,NA,NA,NA
0ccb7,task,flow.Sequence,3_0_3_0_4,NA,NA,completion,7120.5969999998,2021334.6,2021332.705,2021349.374,2028469.971,2028473.9,2023-01-28T17:06:41Z,2028486.64,NULL,Wohlstand,mafanikio,s,chimbuko,kumbuko,mapwaji,NA,qt,NA,3,NA,NA,NA,NA,NA,NA,NA,NA,NA,NA,NA,NA,NA,NA,NA,NA,NA,NA,NA
0ccb7,Deep Question,html.Page,3_0_3_0_5_0_0,NA,NA,form submission,4451.9599999941,2028474,2028469.971,2028486.64,2032938.6,2032938.8,2023-01-28T17:06:45Z,2032953.932,NULL,Vergnügen,kichekesho,d,NA,NA,NA,kichekesho,NA,NA,3,NA,NA,NA,NA,NA,NA,NA,NA,NA,NA,NA,NA,NA,NA,NA,NA,NA,NA,NA
0ccb7,"""Richtig""-Screen",canvas.Screen,3_0_3_0_5_0_1,NA,NA,timeout,5000.7,2032940.3,2032937.263,2032953.932,2037937.963,2037939,2023-01-28T17:06:50Z,2037954.632,NULL,Vergnügen,kichekesho,d,NA,NA,NA,NA,qt,1,3,NA,NA,NA,NA,NA,NA,NA,NA,NA,NA,NA,NA,NA,NA,NA,NA,NA,NA,NA
0ccb7,"""Falsch""-Screen",canvas.Screen,3_0_3_0_5_0_2,NA,NA,skipped,NA,2037940.8,NA,NA,2037937.963,2037940.9,2023-01-28T17:06:50Z,2037954.632,NULL,Vergnügen,kichekesho,d,NA,NA,NA,NA,qt,NA,3,NA,NA,NA,NA,NA,NA,NA,NA,NA,NA,NA,NA,NA,NA,NA,NA,NA,NA,NA
0ccb7,deep,flow.Sequence,3_0_3_0_5_0,NA,NA,completion,9451.3230000001,2028473.9,2028469.971,2028486.64,2037937.963,2037941.1,2023-01-28T17:06:50Z,2037954.632,NULL,Vergnügen,kichekesho,d,NA,NA,NA,NA,qt,NA,3,NA,NA,NA,NA,NA,NA,NA,NA,NA,NA,NA,NA,NA,NA,NA,NA,NA,NA,NA
0ccb7,shallow,flow.Sequence,3_0_3_0_5_1,NA,NA,skipped,NA,2037941.1,NA,NA,2037937.963,2037941.2,2023-01-28T17:06:50Z,2037954.632,NULL,Vergnügen,kichekesho,d,NA,NA,NA,NA,qt,NA,3,NA,NA,NA,NA,NA,NA,NA,NA,NA,NA,NA,NA,NA,NA,NA,NA,NA,NA,NA
0ccb7,task,flow.Sequence,3_0_3_0_5,NA,NA,completion,9451.3230000001,2028473.9,2028469.971,2028486.64,2037937.963,2037941.3,2023-01-28T17:06:50Z,2037954.632,NULL,Vergnügen,kichekesho,d,NA,NA,NA,NA,qt,NA,3,NA,NA,NA,NA,NA,NA,NA,NA,NA,NA,NA,NA,NA,NA,NA,NA,NA,NA,NA
0ccb7,Deep Question,html.Page,3_0_3_0_6_0_0,NA,NA,form submission,5855.5679999881,2037941.3,2037937.963,2037954.632,2043810.2,2043810.4,2023-01-28T17:06:56Z,2043824.185,NULL,Gelegenheit,wakati,d,NA,NA,NA,kitawa,NA,NA,3,NA,NA,NA,NA,NA,NA,NA,NA,NA,NA,NA,NA,NA,NA,NA,NA,NA,NA,NA
0ccb7,"""Richtig""-Screen",canvas.Screen,3_0_3_0_6_0_1,NA,NA,skipped,NA,2043812.1,NA,NA,2043810.2,2043812.2,2023-01-28T17:06:56Z,2043824.185,NULL,Gelegenheit,wakati,d,NA,NA,NA,NA,qt,NA,3,NA,NA,NA,NA,NA,NA,NA,NA,NA,NA,NA,NA,NA,NA,NA,NA,NA,NA,NA
0ccb7,"""Falsch""-Screen",canvas.Screen,3_0_3_0_6_0_2,NA,NA,timeout,5000.7,2043812.8,2043807.516,2043824.185,2048808.216,2048809.4,2023-01-28T17:07:01Z,2048824.885,NULL,Gelegenheit,wakati,d,NA,NA,NA,NA,qt,0,3,NA,NA,NA,NA,NA,NA,NA,NA,NA,NA,NA,NA,NA,NA,NA,NA,NA,NA,NA
0ccb7,deep,flow.Sequence,3_0_3_0_6_0,NA,NA,completion,10853.584,2037941.3,2037937.963,2037954.632,2048808.216,2048809.6,2023-01-28T17:07:01Z,2048824.885,NULL,Gelegenheit,wakati,d,NA,NA,NA,NA,qt,NA,3,NA,NA,NA,NA,NA,NA,NA,NA,NA,NA,NA,NA,NA,NA,NA,NA,NA,NA,NA
0ccb7,shallow,flow.Sequence,3_0_3_0_6_1,NA,NA,skipped,NA,2048809.6,NA,NA,2048808.216,2048809.7,2023-01-28T17:07:01Z,2048824.885,NULL,Gelegenheit,wakati,d,NA,NA,NA,NA,qt,NA,3,NA,NA,NA,NA,NA,NA,NA,NA,NA,NA,NA,NA,NA,NA,NA,NA,NA,NA,NA
0ccb7,task,flow.Sequence,3_0_3_0_6,NA,NA,completion,10853.584,2037941.3,2037937.963,2037954.632,2048808.216,2048809.7,2023-01-28T17:07:01Z,2048824.885,NULL,Gelegenheit,wakati,d,NA,NA,NA,NA,qt,NA,3,NA,NA,NA,NA,NA,NA,NA,NA,NA,NA,NA,NA,NA,NA,NA,NA,NA,NA,NA
0ccb7,deep,flow.Sequence,3_0_3_0_7_0,NA,NA,skipped,NA,2048809.9,NA,NA,2048808.216,2048809.9,2023-01-28T17:07:01Z,2048824.885,NULL,Widerstand,usulubu,s,kusababisha,mwalimu,mwenendo,NA,qt,NA,3,NA,NA,NA,NA,NA,NA,NA,NA,NA,NA,NA,NA,NA,NA,NA,NA,NA,NA,NA
0ccb7,Shallow Question,html.Page,3_0_3_0_7_1_0,NA,NA,form submission,2889.3149999881,2048810,2048808.216,2048824.885,2051714.2,2051714.4,2023-01-28T17:07:04Z,2051725.291,NULL,Widerstand,usulubu,s,kusababisha,mwalimu,mwenendo,usulubu,NA,NA,3,NA,NA,NA,NA,NA,NA,NA,NA,NA,NA,NA,NA,NA,NA,NA,NA,NA,NA,NA
0ccb7,"""Richtig""-Screen",canvas.Screen,3_0_3_0_7_1_1,NA,NA,timeout,5000.7,2051716,2051708.622,2051725.291,2056709.322,2056711.8,2023-01-28T17:07:09Z,2056725.991,NULL,Widerstand,usulubu,s,kusababisha,mwalimu,mwenendo,NA,qt,1,3,NA,NA,NA,NA,NA,NA,NA,NA,NA,NA,NA,NA,NA,NA,NA,NA,NA,NA,NA
0ccb7,"""Falsch""-Screen",canvas.Screen,3_0_3_0_7_1_2,NA,NA,skipped,NA,2056713.7,NA,NA,2056709.322,2056713.8,2023-01-28T17:07:09Z,2056725.991,NULL,Widerstand,usulubu,s,kusababisha,mwalimu,mwenendo,NA,qt,NA,3,NA,NA,NA,NA,NA,NA,NA,NA,NA,NA,NA,NA,NA,NA,NA,NA,NA,NA,NA
0ccb7,shallow,flow.Sequence,3_0_3_0_7_1,NA,NA,completion,7884.4369999999,2048809.9,2048808.216,2048824.885,2056709.322,2056714,2023-01-28T17:07:09Z,2056725.991,NULL,Widerstand,usulubu,s,kusababisha,mwalimu,mwenendo,NA,qt,NA,3,NA,NA,NA,NA,NA,NA,NA,NA,NA,NA,NA,NA,NA,NA,NA,NA,NA,NA,NA
0ccb7,task,flow.Sequence,3_0_3_0_7,NA,NA,completion,7884.4369999999,2048809.8,2048808.216,2048824.885,2056709.322,2056714.1,2023-01-28T17:07:09Z,2056725.991,NULL,Widerstand,usulubu,s,kusababisha,mwalimu,mwenendo,NA,qt,NA,3,NA,NA,NA,NA,NA,NA,NA,NA,NA,NA,NA,NA,NA,NA,NA,NA,NA,NA,NA
0ccb7,block,flow.Loop,3_0_3_0,NA,NA,completion,96206.92,1960493.6,1960485.733,1960502.402,2056709.322,2056714.2,2023-01-28T17:07:09Z,2056725.991,NULL,NA,NA,NA,NA,NA,NA,NA,qt,NA,3,NA,NA,NA,NA,NA,NA,NA,NA,NA,NA,NA,NA,NA,NA,NA,NA,NA,NA,NA
0ccb7,weiter,canvas.Screen,3_0_3_1,sdf,keypress(Space),response,681.809000012,2056714.2,2056709.322,2056725.991,2057407.8,2057410.2,2023-01-28T17:07:10Z,2057445.39,NULL,NA,NA,NA,NA,NA,NA,NA,qt,NA,3,NA,NA,NA,NA,NA,NA,NA,NA,NA,NA,NA,NA,NA,NA,NA,NA,NA,NA,NA
0ccb7,check continue,flow.Sequence,3_0_3,NA,NA,completion,96905.398000012,1960493.4,1960485.733,1960502.402,2057407.8,2057410.3,2023-01-28T17:07:10Z,2057445.39,NULL,NA,NA,NA,NA,NA,NA,NA,qt,NA,3,NA,NA,NA,NA,NA,NA,NA,NA,NA,NA,NA,NA,NA,NA,NA,NA,NA,NA,NA
0ccb7,deep,flow.Sequence,3_0_4_0_0_0,NA,NA,skipped,NA,2057436.9,NA,NA,2057407.8,2057437,2023-01-28T17:07:10Z,2057445.39,NULL,Ergänzung,kijalizo,s,ulaghai,mustarehe,matangazo,NA,sd,NA,4,NA,NA,NA,NA,NA,NA,NA,NA,NA,NA,NA,NA,NA,NA,NA,NA,NA,NA,NA
0ccb7,Shallow Question,html.Page,3_0_4_0_0_1_0,NA,NA,form submission,2556.910000012,2057437,2057428.721,2057445.39,2060002.3,2060002.5,2023-01-28T17:07:12Z,2060012.416,NULL,Ergänzung,kijalizo,s,ulaghai,mustarehe,matangazo,kijalizo,NA,NA,4,NA,NA,NA,NA,NA,NA,NA,NA,NA,NA,NA,NA,NA,NA,NA,NA,NA,NA,NA
0ccb7,"""Richtig""-Screen",canvas.Screen,3_0_4_0_0_1_1,NA,NA,timeout,5000.7,2060003.3,2059995.747,2060012.416,2064996.447,2064997.8,2023-01-28T17:07:17Z,2065013.116,NULL,Ergänzung,kijalizo,s,ulaghai,mustarehe,matangazo,NA,sd,1,4,NA,NA,NA,NA,NA,NA,NA,NA,NA,NA,NA,NA,NA,NA,NA,NA,NA,NA,NA
0ccb7,"""Falsch""-Screen",canvas.Screen,3_0_4_0_0_1_2,NA,NA,skipped,NA,2064999.9,NA,NA,2064996.447,2065000.1,2023-01-28T17:07:17Z,2065013.116,NULL,Ergänzung,kijalizo,s,ulaghai,mustarehe,matangazo,NA,sd,NA,4,NA,NA,NA,NA,NA,NA,NA,NA,NA,NA,NA,NA,NA,NA,NA,NA,NA,NA,NA
0ccb7,shallow,flow.Sequence,3_0_4_0_0_1,NA,NA,completion,7551.057,2057437,2057428.721,2057445.39,2064996.447,2065000.2,2023-01-28T17:07:17Z,2065013.116,NULL,Ergänzung,kijalizo,s,ulaghai,mustarehe,matangazo,NA,sd,NA,4,NA,NA,NA,NA,NA,NA,NA,NA,NA,NA,NA,NA,NA,NA,NA,NA,NA,NA,NA
0ccb7,task,flow.Sequence,3_0_4_0_0,NA,NA,completion,7551.057,2057436.9,2057428.721,2057445.39,2064996.447,2065000.3,2023-01-28T17:07:17Z,2065013.116,NULL,Ergänzung,kijalizo,s,ulaghai,mustarehe,matangazo,NA,sd,NA,4,NA,NA,NA,NA,NA,NA,NA,NA,NA,NA,NA,NA,NA,NA,NA,NA,NA,NA,NA
0ccb7,Deep Question,html.Page,3_0_4_0_1_0_0,NA,NA,form submission,5341.284000006,2065000.4,2064996.447,2065013.116,2070354.4,2070354.6,2023-01-28T17:07:23Z,2070365.797,NULL,Gelegenheit,wakati,d,NA,NA,NA,kitengwa,NA,NA,4,NA,NA,NA,NA,NA,NA,NA,NA,NA,NA,NA,NA,NA,NA,NA,NA,NA,NA,NA
0ccb7,"""Richtig""-Screen",canvas.Screen,3_0_4_0_1_0_1,NA,NA,skipped,NA,2070356.2,NA,NA,2070354.4,2070356.3,2023-01-28T17:07:23Z,2070365.797,NULL,Gelegenheit,wakati,d,NA,NA,NA,NA,sd,NA,4,NA,NA,NA,NA,NA,NA,NA,NA,NA,NA,NA,NA,NA,NA,NA,NA,NA,NA,NA
0ccb7,"""Falsch""-Screen",canvas.Screen,3_0_4_0_1_0_2,NA,NA,timeout,5000.7,2070356.9,2070349.128,2070365.797,2075349.828,2075350.3,2023-01-28T17:07:28Z,2075366.497,NULL,Gelegenheit,wakati,d,NA,NA,NA,NA,sd,0,4,NA,NA,NA,NA,NA,NA,NA,NA,NA,NA,NA,NA,NA,NA,NA,NA,NA,NA,NA
0ccb7,deep,flow.Sequence,3_0_4_0_1_0,NA,NA,completion,10336.712,2065000.4,2064996.447,2065013.116,2075349.828,2075350.5,2023-01-28T17:07:28Z,2075366.497,NULL,Gelegenheit,wakati,d,NA,NA,NA,NA,sd,NA,4,NA,NA,NA,NA,NA,NA,NA,NA,NA,NA,NA,NA,NA,NA,NA,NA,NA,NA,NA
0ccb7,shallow,flow.Sequence,3_0_4_0_1_1,NA,NA,skipped,NA,2075350.5,NA,NA,2075349.828,2075350.5,2023-01-28T17:07:28Z,2075366.497,NULL,Gelegenheit,wakati,d,NA,NA,NA,NA,sd,NA,4,NA,NA,NA,NA,NA,NA,NA,NA,NA,NA,NA,NA,NA,NA,NA,NA,NA,NA,NA
0ccb7,task,flow.Sequence,3_0_4_0_1,NA,NA,completion,10336.712,2065000.3,2064996.447,2065013.116,2075349.828,2075350.6,2023-01-28T17:07:28Z,2075366.497,NULL,Gelegenheit,wakati,d,NA,NA,NA,NA,sd,NA,4,NA,NA,NA,NA,NA,NA,NA,NA,NA,NA,NA,NA,NA,NA,NA,NA,NA,NA,NA
0ccb7,deep,flow.Sequence,3_0_4_0_2_0,NA,NA,skipped,NA,2075350.7,NA,NA,2075349.828,2075350.7,2023-01-28T17:07:28Z,2075366.497,NULL,Wohlstand,mafanikio,s,chimbuko,kumbuko,mapwaji,NA,sd,NA,4,NA,NA,NA,NA,NA,NA,NA,NA,NA,NA,NA,NA,NA,NA,NA,NA,NA,NA,NA
0ccb7,Shallow Question,html.Page,3_0_4_0_2_1_0,NA,NA,form submission,2707.6029999941,2075350.9,2075349.828,2075366.497,2078074.1,2078074.3,2023-01-28T17:07:30Z,2078085.15,NULL,Wohlstand,mafanikio,s,chimbuko,kumbuko,mapwaji,mafanikio,NA,NA,4,NA,NA,NA,NA,NA,NA,NA,NA,NA,NA,NA,NA,NA,NA,NA,NA,NA,NA,NA
0ccb7,"""Richtig""-Screen",canvas.Screen,3_0_4_0_2_1_1,NA,NA,timeout,5000.7000000002,2078075.7,2078068.481,2078085.15,2083069.181,2083070.7,2023-01-28T17:07:35Z,2083085.85,NULL,Wohlstand,mafanikio,s,chimbuko,kumbuko,mapwaji,NA,sd,1,4,NA,NA,NA,NA,NA,NA,NA,NA,NA,NA,NA,NA,NA,NA,NA,NA,NA,NA,NA
0ccb7,"""Falsch""-Screen",canvas.Screen,3_0_4_0_2_1_2,NA,NA,skipped,NA,2083073.1,NA,NA,2083069.181,2083073.2,2023-01-28T17:07:35Z,2083085.85,NULL,Wohlstand,mafanikio,s,chimbuko,kumbuko,mapwaji,NA,sd,NA,4,NA,NA,NA,NA,NA,NA,NA,NA,NA,NA,NA,NA,NA,NA,NA,NA,NA,NA,NA
0ccb7,shallow,flow.Sequence,3_0_4_0_2_1,NA,NA,completion,7702.6840000001,2075350.8,2075349.828,2075366.497,2083069.181,2083073.4,2023-01-28T17:07:35Z,2083085.85,NULL,Wohlstand,mafanikio,s,chimbuko,kumbuko,mapwaji,NA,sd,NA,4,NA,NA,NA,NA,NA,NA,NA,NA,NA,NA,NA,NA,NA,NA,NA,NA,NA,NA,NA
0ccb7,task,flow.Sequence,3_0_4_0_2,NA,NA,completion,7702.6840000001,2075350.6,2075349.828,2075366.497,2083069.181,2083073.4,2023-01-28T17:07:35Z,2083085.85,NULL,Wohlstand,mafanikio,s,chimbuko,kumbuko,mapwaji,NA,sd,NA,4,NA,NA,NA,NA,NA,NA,NA,NA,NA,NA,NA,NA,NA,NA,NA,NA,NA,NA,NA
0ccb7,deep,flow.Sequence,3_0_4_0_3_0,NA,NA,skipped,NA,2083073.6,NA,NA,2083069.181,2083073.6,2023-01-28T17:07:35Z,2083085.85,NULL,Verstand,ufahamivu,s,shakawa,hadhari,mhandisi,NA,sd,NA,4,NA,NA,NA,NA,NA,NA,NA,NA,NA,NA,NA,NA,NA,NA,NA,NA,NA,NA,NA
0ccb7,Shallow Question,html.Page,3_0_4_0_3_1_0,NA,NA,form submission,3164.349999988,2083073.7,2083069.181,2083085.85,2086250.2,2086250.4,2023-01-28T17:07:39Z,2086252.96,NULL,Verstand,ufahamivu,s,shakawa,hadhari,mhandisi,ufahamivu,NA,NA,4,NA,NA,NA,NA,NA,NA,NA,NA,NA,NA,NA,NA,NA,NA,NA,NA,NA,NA,NA
0ccb7,"""Richtig""-Screen",canvas.Screen,3_0_4_0_3_1_1,NA,NA,timeout,5000.7,2086251.2,2086236.291,2086252.96,2091236.991,2091239,2023-01-28T17:07:44Z,2091253.66,NULL,Verstand,ufahamivu,s,shakawa,hadhari,mhandisi,NA,sd,1,4,NA,NA,NA,NA,NA,NA,NA,NA,NA,NA,NA,NA,NA,NA,NA,NA,NA,NA,NA
0ccb7,"""Falsch""-Screen",canvas.Screen,3_0_4_0_3_1_2,NA,NA,skipped,NA,2091241,NA,NA,2091236.991,2091241.1,2023-01-28T17:07:44Z,2091253.66,NULL,Verstand,ufahamivu,s,shakawa,hadhari,mhandisi,NA,sd,NA,4,NA,NA,NA,NA,NA,NA,NA,NA,NA,NA,NA,NA,NA,NA,NA,NA,NA,NA,NA
0ccb7,shallow,flow.Sequence,3_0_4_0_3_1,NA,NA,completion,8151.1409999998,2083073.7,2083069.181,2083085.85,2091236.991,2091241.2,2023-01-28T17:07:44Z,2091253.66,NULL,Verstand,ufahamivu,s,shakawa,hadhari,mhandisi,NA,sd,NA,4,NA,NA,NA,NA,NA,NA,NA,NA,NA,NA,NA,NA,NA,NA,NA,NA,NA,NA,NA
0ccb7,task,flow.Sequence,3_0_4_0_3,NA,NA,completion,8151.1409999998,2083073.6,2083069.181,2083085.85,2091236.991,2091241.4,2023-01-28T17:07:44Z,2091253.66,NULL,Verstand,ufahamivu,s,shakawa,hadhari,mhandisi,NA,sd,NA,4,NA,NA,NA,NA,NA,NA,NA,NA,NA,NA,NA,NA,NA,NA,NA,NA,NA,NA,NA
0ccb7,Deep Question,html.Page,3_0_4_0_4_0_0,NA,NA,form submission,3148.4399999941,2091241.4,2091236.991,2091253.66,2094402.1,2094402.2,2023-01-28T17:07:47Z,2094405.08,NULL,Notfall,dharura,d,NA,NA,NA,dharura,NA,NA,4,NA,NA,NA,NA,NA,NA,NA,NA,NA,NA,NA,NA,NA,NA,NA,NA,NA,NA,NA
0ccb7,"""Richtig""-Screen",canvas.Screen,3_0_4_0_4_0_1,NA,NA,timeout,5000.6999999997,2094402.9,2094388.411,2094405.08,2099389.111,2099390.8,2023-01-28T17:07:52Z,2099405.78,NULL,Notfall,dharura,d,NA,NA,NA,NA,sd,1,4,NA,NA,NA,NA,NA,NA,NA,NA,NA,NA,NA,NA,NA,NA,NA,NA,NA,NA,NA
0ccb7,"""Falsch""-Screen",canvas.Screen,3_0_4_0_4_0_2,NA,NA,skipped,NA,2099392.4,NA,NA,2099389.111,2099392.5,2023-01-28T17:07:52Z,2099405.78,NULL,Notfall,dharura,d,NA,NA,NA,NA,sd,NA,4,NA,NA,NA,NA,NA,NA,NA,NA,NA,NA,NA,NA,NA,NA,NA,NA,NA,NA,NA
0ccb7,deep,flow.Sequence,3_0_4_0_4_0,NA,NA,completion,8135.4510000001,2091241.4,2091236.991,2091253.66,2099389.111,2099392.6,2023-01-28T17:07:52Z,2099405.78,NULL,Notfall,dharura,d,NA,NA,NA,NA,sd,NA,4,NA,NA,NA,NA,NA,NA,NA,NA,NA,NA,NA,NA,NA,NA,NA,NA,NA,NA,NA
0ccb7,shallow,flow.Sequence,3_0_4_0_4_1,NA,NA,skipped,NA,2099392.7,NA,NA,2099389.111,2099392.8,2023-01-28T17:07:52Z,2099405.78,NULL,Notfall,dharura,d,NA,NA,NA,NA,sd,NA,4,NA,NA,NA,NA,NA,NA,NA,NA,NA,NA,NA,NA,NA,NA,NA,NA,NA,NA,NA
0ccb7,task,flow.Sequence,3_0_4_0_4,NA,NA,completion,8135.4510000001,2091241.4,2091236.991,2091253.66,2099389.111,2099392.8,2023-01-28T17:07:52Z,2099405.78,NULL,Notfall,dharura,d,NA,NA,NA,NA,sd,NA,4,NA,NA,NA,NA,NA,NA,NA,NA,NA,NA,NA,NA,NA,NA,NA,NA,NA,NA,NA
0ccb7,deep,flow.Sequence,3_0_4_0_5_0,NA,NA,skipped,NA,2099392.9,NA,NA,2099389.111,2099393,2023-01-28T17:07:52Z,2099405.78,NULL,Widerstand,usulubu,s,kusababisha,mwalimu,mwenendo,NA,sd,NA,4,NA,NA,NA,NA,NA,NA,NA,NA,NA,NA,NA,NA,NA,NA,NA,NA,NA,NA,NA
0ccb7,Shallow Question,html.Page,3_0_4_0_5_1_0,NA,NA,form submission,2524.2200000002,2099393,2099389.111,2099405.78,2101930,2101930.2,2023-01-28T17:07:54Z,2101942.025,NULL,Widerstand,usulubu,s,kusababisha,mwalimu,mwenendo,usulubu,NA,NA,4,NA,NA,NA,NA,NA,NA,NA,NA,NA,NA,NA,NA,NA,NA,NA,NA,NA,NA,NA
0ccb7,"""Richtig""-Screen",canvas.Screen,3_0_4_0_5_1_1,NA,NA,timeout,5000.7000000002,2101930.8,2101925.356,2101942.025,2106926.056,2106928,2023-01-28T17:07:59Z,2106942.725,NULL,Widerstand,usulubu,s,kusababisha,mwalimu,mwenendo,NA,sd,1,4,NA,NA,NA,NA,NA,NA,NA,NA,NA,NA,NA,NA,NA,NA,NA,NA,NA,NA,NA
0ccb7,"""Falsch""-Screen",canvas.Screen,3_0_4_0_5_1_2,NA,NA,skipped,NA,2106929.7,NA,NA,2106926.056,2106929.8,2023-01-28T17:07:59Z,2106942.725,NULL,Widerstand,usulubu,s,kusababisha,mwalimu,mwenendo,NA,sd,NA,4,NA,NA,NA,NA,NA,NA,NA,NA,NA,NA,NA,NA,NA,NA,NA,NA,NA,NA,NA
0ccb7,shallow,flow.Sequence,3_0_4_0_5_1,NA,NA,completion,7520.2760000001,2099393,2099389.111,2099405.78,2106926.056,2106929.9,2023-01-28T17:07:59Z,2106942.725,NULL,Widerstand,usulubu,s,kusababisha,mwalimu,mwenendo,NA,sd,NA,4,NA,NA,NA,NA,NA,NA,NA,NA,NA,NA,NA,NA,NA,NA,NA,NA,NA,NA,NA
0ccb7,task,flow.Sequence,3_0_4_0_5,NA,NA,completion,7520.2760000001,2099392.8,2099389.111,2099405.78,2106926.056,2106930.1,2023-01-28T17:07:59Z,2106942.725,NULL,Widerstand,usulubu,s,kusababisha,mwalimu,mwenendo,NA,sd,NA,4,NA,NA,NA,NA,NA,NA,NA,NA,NA,NA,NA,NA,NA,NA,NA,NA,NA,NA,NA
0ccb7,Deep Question,html.Page,3_0_4_0_6_0_0,NA,NA,form submission,6635.5750000118,2106930.1,2106926.056,2106942.725,2113578.3,2113578.5,2023-01-28T17:08:06Z,2113578.521,NULL,Ausschluss,kutengwa,d,NA,NA,NA,kitengwa,NA,NA,4,NA,NA,NA,NA,NA,NA,NA,NA,NA,NA,NA,NA,NA,NA,NA,NA,NA,NA,NA
0ccb7,"""Richtig""-Screen",canvas.Screen,3_0_4_0_6_0_1,NA,NA,skipped,NA,2113580.1,NA,NA,2113578.3,2113580.2,2023-01-28T17:08:06Z,2113578.521,NULL,Ausschluss,kutengwa,d,NA,NA,NA,NA,sd,NA,4,NA,NA,NA,NA,NA,NA,NA,NA,NA,NA,NA,NA,NA,NA,NA,NA,NA,NA,NA
0ccb7,"""Falsch""-Screen",canvas.Screen,3_0_4_0_6_0_2,NA,NA,timeout,5000.6999999997,2113580.7,2113561.852,2113578.521,2118562.552,2118564.6,2023-01-28T17:08:11Z,2118579.221,NULL,Ausschluss,kutengwa,d,NA,NA,NA,NA,sd,0,4,NA,NA,NA,NA,NA,NA,NA,NA,NA,NA,NA,NA,NA,NA,NA,NA,NA,NA,NA
0ccb7,deep,flow.Sequence,3_0_4_0_6_0,NA,NA,completion,11619.827,2106930.1,2106926.056,2106942.725,2118562.552,2118564.8,2023-01-28T17:08:11Z,2118579.221,NULL,Ausschluss,kutengwa,d,NA,NA,NA,NA,sd,NA,4,NA,NA,NA,NA,NA,NA,NA,NA,NA,NA,NA,NA,NA,NA,NA,NA,NA,NA,NA
0ccb7,shallow,flow.Sequence,3_0_4_0_6_1,NA,NA,skipped,NA,2118564.9,NA,NA,2118562.552,2118565,2023-01-28T17:08:11Z,2118579.221,NULL,Ausschluss,kutengwa,d,NA,NA,NA,NA,sd,NA,4,NA,NA,NA,NA,NA,NA,NA,NA,NA,NA,NA,NA,NA,NA,NA,NA,NA,NA,NA
0ccb7,task,flow.Sequence,3_0_4_0_6,NA,NA,completion,11619.827,2106930.1,2106926.056,2106942.725,2118562.552,2118565.1,2023-01-28T17:08:11Z,2118579.221,NULL,Ausschluss,kutengwa,d,NA,NA,NA,NA,sd,NA,4,NA,NA,NA,NA,NA,NA,NA,NA,NA,NA,NA,NA,NA,NA,NA,NA,NA,NA,NA
0ccb7,Deep Question,html.Page,3_0_4_0_7_0_0,NA,NA,form submission,3958.9789999882,2118565.2,2118562.552,2118579.221,2122538.2,2122538.4,2023-01-28T17:08:15Z,2122548.84,NULL,Vergnügen,kichekesho,d,NA,NA,NA,kichekesho,NA,NA,4,NA,NA,NA,NA,NA,NA,NA,NA,NA,NA,NA,NA,NA,NA,NA,NA,NA,NA,NA
0ccb7,"""Richtig""-Screen",canvas.Screen,3_0_4_0_7_0_1,NA,NA,timeout,5000.7000000002,2122540.1,2122532.171,2122548.84,2127532.871,2127533.6,2023-01-28T17:08:20Z,2127549.54,NULL,Vergnügen,kichekesho,d,NA,NA,NA,NA,sd,1,4,NA,NA,NA,NA,NA,NA,NA,NA,NA,NA,NA,NA,NA,NA,NA,NA,NA,NA,NA
0ccb7,"""Falsch""-Screen",canvas.Screen,3_0_4_0_7_0_2,NA,NA,skipped,NA,2127535.4,NA,NA,2127532.871,2127535.5,2023-01-28T17:08:20Z,2127549.54,NULL,Vergnügen,kichekesho,d,NA,NA,NA,NA,sd,NA,4,NA,NA,NA,NA,NA,NA,NA,NA,NA,NA,NA,NA,NA,NA,NA,NA,NA,NA,NA
0ccb7,deep,flow.Sequence,3_0_4_0_7_0,NA,NA,completion,8953.6499999999,2118565.1,2118562.552,2118579.221,2127532.871,2127535.6,2023-01-28T17:08:20Z,2127549.54,NULL,Vergnügen,kichekesho,d,NA,NA,NA,NA,sd,NA,4,NA,NA,NA,NA,NA,NA,NA,NA,NA,NA,NA,NA,NA,NA,NA,NA,NA,NA,NA
0ccb7,shallow,flow.Sequence,3_0_4_0_7_1,NA,NA,skipped,NA,2127535.8,NA,NA,2127532.871,2127535.8,2023-01-28T17:08:20Z,2127549.54,NULL,Vergnügen,kichekesho,d,NA,NA,NA,NA,sd,NA,4,NA,NA,NA,NA,NA,NA,NA,NA,NA,NA,NA,NA,NA,NA,NA,NA,NA,NA,NA
0ccb7,task,flow.Sequence,3_0_4_0_7,NA,NA,completion,8953.6499999999,2118565.1,2118562.552,2118579.221,2127532.871,2127535.9,2023-01-28T17:08:20Z,2127549.54,NULL,Vergnügen,kichekesho,d,NA,NA,NA,NA,sd,NA,4,NA,NA,NA,NA,NA,NA,NA,NA,NA,NA,NA,NA,NA,NA,NA,NA,NA,NA,NA
0ccb7,block,flow.Loop,3_0_4_0,NA,NA,completion,70087.481,2057436.9,2057428.721,2057445.39,2127532.871,2127536,2023-01-28T17:08:20Z,2127549.54,NULL,NA,NA,NA,NA,NA,NA,NA,sd,NA,4,NA,NA,NA,NA,NA,NA,NA,NA,NA,NA,NA,NA,NA,NA,NA,NA,NA,NA,NA
0ccb7,weiter,canvas.Screen,3_0_4_1,sdf,keypress(Space),response,746.36000000592,2127536,2127532.871,2127549.54,2128295.9,2128298.2,2023-01-28T17:08:21Z,2128749.708,NULL,NA,NA,NA,NA,NA,NA,NA,sd,NA,4,NA,NA,NA,NA,NA,NA,NA,NA,NA,NA,NA,NA,NA,NA,NA,NA,NA,NA,NA
0ccb7,check continue,flow.Sequence,3_0_4,NA,NA,completion,70850.510000006,2057436.8,2057428.721,2057445.39,2128295.9,2128298.3,2023-01-28T17:08:21Z,2128749.708,NULL,NA,NA,NA,NA,NA,NA,NA,sd,NA,4,NA,NA,NA,NA,NA,NA,NA,NA,NA,NA,NA,NA,NA,NA,NA,NA,NA,NA,NA
0ccb7,check continue,flow.Sequence,3_0_5,NA,NA,skipped,NA,2128323.6,NA,NA,2128295.9,2128323.6,2023-01-28T17:08:21Z,2128749.708,NULL,NA,NA,NA,NA,NA,NA,NA,sdf,NA,5,NA,NA,NA,NA,NA,NA,NA,NA,NA,NA,NA,NA,NA,NA,NA,NA,NA,NA,NA
0ccb7,check continue,flow.Sequence,3_0_6,NA,NA,skipped,NA,2128343.3,NA,NA,2128295.9,2128343.4,2023-01-28T17:08:21Z,2128749.708,NULL,NA,NA,NA,NA,NA,NA,NA,dfs,NA,6,NA,NA,NA,NA,NA,NA,NA,NA,NA,NA,NA,NA,NA,NA,NA,NA,NA,NA,NA
0ccb7,check continue,flow.Sequence,3_0_7,NA,NA,skipped,NA,2128361.8,NA,NA,2128295.9,2128361.9,2023-01-28T17:08:21Z,2128749.708,NULL,NA,NA,NA,NA,NA,NA,NA,df,NA,7,NA,NA,NA,NA,NA,NA,NA,NA,NA,NA,NA,NA,NA,NA,NA,NA,NA,NA,NA
0ccb7,check continue,flow.Sequence,3_0_8,NA,NA,skipped,NA,2128379.5,NA,NA,2128295.9,2128379.5,2023-01-28T17:08:21Z,2128749.708,NULL,NA,NA,NA,NA,NA,NA,NA,dfs,NA,8,NA,NA,NA,NA,NA,NA,NA,NA,NA,NA,NA,NA,NA,NA,NA,NA,NA,NA,NA
0ccb7,check continue,flow.Sequence,3_0_9,NA,NA,skipped,NA,2128399.2,NA,NA,2128295.9,2128399.3,2023-01-28T17:08:21Z,2128749.708,NULL,NA,NA,NA,NA,NA,NA,NA,dsf,NA,9,NA,NA,NA,NA,NA,NA,NA,NA,NA,NA,NA,NA,NA,NA,NA,NA,NA,NA,NA
0ccb7,check continue,flow.Sequence,3_0_10,NA,NA,skipped,NA,2128415.8,NA,NA,2128295.9,2128416,2023-01-28T17:08:21Z,2128749.708,NULL,NA,NA,NA,NA,NA,NA,NA,df,NA,10,NA,NA,NA,NA,NA,NA,NA,NA,NA,NA,NA,NA,NA,NA,NA,NA,NA,NA,NA
0ccb7,check continue,flow.Sequence,3_0_11,NA,NA,skipped,NA,2128432.5,NA,NA,2128295.9,2128432.5,2023-01-28T17:08:21Z,2128749.708,NULL,NA,NA,NA,NA,NA,NA,NA,dfs,NA,11,NA,NA,NA,NA,NA,NA,NA,NA,NA,NA,NA,NA,NA,NA,NA,NA,NA,NA,NA
0ccb7,check continue,flow.Sequence,3_0_12,NA,NA,skipped,NA,2128451,NA,NA,2128295.9,2128451.2,2023-01-28T17:08:21Z,2128749.708,NULL,NA,NA,NA,NA,NA,NA,NA,dsf,NA,12,NA,NA,NA,NA,NA,NA,NA,NA,NA,NA,NA,NA,NA,NA,NA,NA,NA,NA,NA
0ccb7,check continue,flow.Sequence,3_0_13,NA,NA,skipped,NA,2128470,NA,NA,2128295.9,2128470.1,2023-01-28T17:08:21Z,2128749.708,NULL,NA,NA,NA,NA,NA,NA,NA,dsf,NA,13,NA,NA,NA,NA,NA,NA,NA,NA,NA,NA,NA,NA,NA,NA,NA,NA,NA,NA,NA
0ccb7,check continue,flow.Sequence,3_0_14,NA,NA,skipped,NA,2128487,NA,NA,2128295.9,2128487.1,2023-01-28T17:08:21Z,2128749.708,NULL,NA,NA,NA,NA,NA,NA,NA,NA,NA,14,NA,NA,NA,NA,NA,NA,NA,NA,NA,NA,NA,NA,NA,NA,NA,NA,NA,NA,NA
0ccb7,check continue,flow.Sequence,3_0_15,NA,NA,skipped,NA,2128504.1,NA,NA,2128295.9,2128504.1,2023-01-28T17:08:21Z,2128749.708,NULL,NA,NA,NA,NA,NA,NA,NA,NA,NA,15,NA,NA,NA,NA,NA,NA,NA,NA,NA,NA,NA,NA,NA,NA,NA,NA,NA,NA,NA
0ccb7,check continue,flow.Sequence,3_0_16,NA,NA,skipped,NA,2128520.4,NA,NA,2128295.9,2128520.4,2023-01-28T17:08:21Z,2128749.708,NULL,NA,NA,NA,NA,NA,NA,NA,NA,NA,16,NA,NA,NA,NA,NA,NA,NA,NA,NA,NA,NA,NA,NA,NA,NA,NA,NA,NA,NA
0ccb7,check continue,flow.Sequence,3_0_17,NA,NA,skipped,NA,2128536.1,NA,NA,2128295.9,2128536.2,2023-01-28T17:08:21Z,2128749.708,NULL,NA,NA,NA,NA,NA,NA,NA,NA,NA,17,NA,NA,NA,NA,NA,NA,NA,NA,NA,NA,NA,NA,NA,NA,NA,NA,NA,NA,NA
0ccb7,check continue,flow.Sequence,3_0_18,NA,NA,skipped,NA,2128552.6,NA,NA,2128295.9,2128552.7,2023-01-28T17:08:21Z,2128749.708,NULL,NA,NA,NA,NA,NA,NA,NA,NA,NA,18,NA,NA,NA,NA,NA,NA,NA,NA,NA,NA,NA,NA,NA,NA,NA,NA,NA,NA,NA
0ccb7,check continue,flow.Sequence,3_0_19,NA,NA,skipped,NA,2128569,NA,NA,2128295.9,2128569.1,2023-01-28T17:08:21Z,2128749.708,NULL,NA,NA,NA,NA,NA,NA,NA,NA,NA,19,NA,NA,NA,NA,NA,NA,NA,NA,NA,NA,NA,NA,NA,NA,NA,NA,NA,NA,NA
0ccb7,check continue,flow.Sequence,3_0_20,NA,NA,skipped,NA,2128587.5,NA,NA,2128295.9,2128587.6,2023-01-28T17:08:21Z,2128749.708,NULL,NA,NA,NA,NA,NA,NA,NA,NA,NA,20,NA,NA,NA,NA,NA,NA,NA,NA,NA,NA,NA,NA,NA,NA,NA,NA,NA,NA,NA
0ccb7,check continue,flow.Sequence,3_0_21,NA,NA,skipped,NA,2128603.5,NA,NA,2128295.9,2128603.6,2023-01-28T17:08:21Z,2128749.708,NULL,NA,NA,NA,NA,NA,NA,NA,NA,NA,21,NA,NA,NA,NA,NA,NA,NA,NA,NA,NA,NA,NA,NA,NA,NA,NA,NA,NA,NA
0ccb7,check continue,flow.Sequence,3_0_22,NA,NA,skipped,NA,2128623.2,NA,NA,2128295.9,2128623.2,2023-01-28T17:08:21Z,2128749.708,NULL,NA,NA,NA,NA,NA,NA,NA,NA,NA,22,NA,NA,NA,NA,NA,NA,NA,NA,NA,NA,NA,NA,NA,NA,NA,NA,NA,NA,NA
0ccb7,check continue,flow.Sequence,3_0_23,NA,NA,skipped,NA,2128638.2,NA,NA,2128295.9,2128638.4,2023-01-28T17:08:21Z,2128749.708,NULL,NA,NA,NA,NA,NA,NA,NA,NA,NA,23,NA,NA,NA,NA,NA,NA,NA,NA,NA,NA,NA,NA,NA,NA,NA,NA,NA,NA,NA
0ccb7,check continue,flow.Sequence,3_0_24,NA,NA,skipped,NA,2128654.8,NA,NA,2128295.9,2128654.9,2023-01-28T17:08:21Z,2128749.708,NULL,NA,NA,NA,NA,NA,NA,NA,NA,NA,24,NA,NA,NA,NA,NA,NA,NA,NA,NA,NA,NA,NA,NA,NA,NA,NA,NA,NA,NA
0ccb7,check continue,flow.Sequence,3_0_25,NA,NA,skipped,NA,2128669.7,NA,NA,2128295.9,2128669.7,2023-01-28T17:08:21Z,2128749.708,NULL,NA,NA,NA,NA,NA,NA,NA,NA,NA,25,NA,NA,NA,NA,NA,NA,NA,NA,NA,NA,NA,NA,NA,NA,NA,NA,NA,NA,NA
0ccb7,check continue,flow.Sequence,3_0_26,NA,NA,skipped,NA,2128686.5,NA,NA,2128295.9,2128686.6,2023-01-28T17:08:21Z,2128749.708,NULL,NA,NA,NA,NA,NA,NA,NA,NA,NA,26,NA,NA,NA,NA,NA,NA,NA,NA,NA,NA,NA,NA,NA,NA,NA,NA,NA,NA,NA
0ccb7,check continue,flow.Sequence,3_0_27,NA,NA,skipped,NA,2128702.8,NA,NA,2128295.9,2128702.8,2023-01-28T17:08:21Z,2128749.708,NULL,NA,NA,NA,NA,NA,NA,NA,NA,NA,27,NA,NA,NA,NA,NA,NA,NA,NA,NA,NA,NA,NA,NA,NA,NA,NA,NA,NA,NA
0ccb7,check continue,flow.Sequence,3_0_28,NA,NA,skipped,NA,2128717.9,NA,NA,2128295.9,2128718,2023-01-28T17:08:21Z,2128749.708,NULL,NA,NA,NA,NA,NA,NA,NA,NA,NA,28,NA,NA,NA,NA,NA,NA,NA,NA,NA,NA,NA,NA,NA,NA,NA,NA,NA,NA,NA
0ccb7,check continue,flow.Sequence,3_0_29,NA,NA,skipped,NA,2128747.2,NA,NA,2128295.9,2128747.3,2023-01-28T17:08:21Z,2128749.708,NULL,NA,NA,NA,NA,NA,NA,NA,NA,NA,29,NA,NA,NA,NA,NA,NA,NA,NA,NA,NA,NA,NA,NA,NA,NA,NA,NA,NA,NA
0ccb7,until continue,flow.Loop,3_0,NA,NA,completion,442247.03700001,1686028.5,1685965.518,1686048.863,2128295.9,2128747.4,2023-01-28T17:08:21Z,2128749.708,NULL,NA,NA,NA,NA,NA,NA,NA,NA,NA,NA,NA,NA,NA,NA,NA,NA,NA,NA,NA,NA,NA,NA,NA,NA,NA,NA,NA,NA,NA
0ccb7,block 1,flow.Sequence,3,NA,NA,completion,442247.03700001,1686028.5,1685965.518,1686048.863,2128295.9,2128747.5,2023-01-28T17:08:21Z,2128749.708,NULL,NA,NA,NA,NA,NA,NA,NA,NA,NA,NA,NA,NA,NA,NA,NA,NA,NA,NA,NA,NA,NA,NA,NA,NA,NA,NA,NA,NA,NA
0ccb7,1.Part Over,canvas.Screen,4,NA,keypress(Space),response,2586.0920000118,2128747.5,2128733.039,2128749.708,2131335.8,2131338,2023-01-28T17:08:24Z,2131400.079,NULL,NA,NA,NA,NA,NA,NA,NA,NA,NA,NA,NA,NA,NA,NA,NA,NA,NA,NA,NA,NA,NA,NA,NA,NA,NA,NA,NA,NA,NA
0ccb7,deep,flow.Sequence,5_0_0_0_0_0,NA,NA,skipped,NA,2131396.1,NA,NA,2131335.8,2131396.3,2023-01-28T17:08:24Z,2131400.079,NULL,Zuwachs,nyongeza,s,matilaba,udhibiti,hudhurio,NA,sdf,NA,0,NA,NA,NA,NA,NA,NA,NA,NA,NA,NA,NA,NA,NA,NA,NA,NA,NA,NA,NA
0ccb7,Shallow Question,html.Page,5_0_0_0_0_1_0,NA,NA,form submission,7146.321000006,2131396.3,2131383.41,2131400.079,2138546.4,2138546.7,2023-01-28T17:08:31Z,2138552.264,NULL,Zuwachs,nyongeza,s,matilaba,udhibiti,hudhurio,matilaba,NA,NA,0,NA,NA,NA,NA,NA,NA,NA,NA,NA,NA,NA,NA,NA,NA,NA,NA,NA,NA,NA
0ccb7,"""Richtig""-Screen",canvas.Screen,5_0_0_0_0_1_1,NA,NA,skipped,NA,2138548.1,NA,NA,2138546.4,2138548.1,2023-01-28T17:08:31Z,2138552.264,NULL,Zuwachs,nyongeza,s,matilaba,udhibiti,hudhurio,NA,sdf,NA,0,NA,NA,NA,NA,NA,NA,NA,NA,NA,NA,NA,NA,NA,NA,NA,NA,NA,NA,NA
0ccb7,"""Falsch""-Screen",canvas.Screen,5_0_0_0_0_1_2,NA,NA,timeout,5000.7000000002,2138548.8,2138535.595,2138552.264,2143536.295,2143537.8,2023-01-28T17:08:36Z,2143552.964,NULL,Zuwachs,nyongeza,s,matilaba,udhibiti,hudhurio,NA,sdf,0,0,NA,NA,NA,NA,NA,NA,NA,NA,NA,NA,NA,NA,NA,NA,NA,NA,NA,NA,NA
0ccb7,shallow,flow.Sequence,5_0_0_0_0_1,NA,NA,completion,12136.216,2131396.3,2131383.41,2131400.079,2143536.295,2143537.9,2023-01-28T17:08:36Z,2143552.964,NULL,Zuwachs,nyongeza,s,matilaba,udhibiti,hudhurio,NA,sdf,NA,0,NA,NA,NA,NA,NA,NA,NA,NA,NA,NA,NA,NA,NA,NA,NA,NA,NA,NA,NA
0ccb7,task,flow.Sequence,5_0_0_0_0,NA,NA,completion,12136.216,2131396.1,2131383.41,2131400.079,2143536.295,2143538,2023-01-28T17:08:36Z,2143552.964,NULL,Zuwachs,nyongeza,s,matilaba,udhibiti,hudhurio,NA,sdf,NA,0,NA,NA,NA,NA,NA,NA,NA,NA,NA,NA,NA,NA,NA,NA,NA,NA,NA,NA,NA
0ccb7,deep,flow.Sequence,5_0_0_0_1_0,NA,NA,skipped,NA,2143538.1,NA,NA,2143536.295,2143538.1,2023-01-28T17:08:36Z,2143552.964,NULL,Symbol,kielezo,s,kinyume,nderemo,utayari,NA,sdf,NA,0,NA,NA,NA,NA,NA,NA,NA,NA,NA,NA,NA,NA,NA,NA,NA,NA,NA,NA,NA
0ccb7,Shallow Question,html.Page,5_0_0_0_1_1_0,NA,NA,form submission,5705.2359999879,2143538.2,2143536.295,2143552.964,2149258.2,2149258.4,2023-01-28T17:08:42Z,2149271.462,NULL,Symbol,kielezo,s,kinyume,nderemo,utayari,kinyume,NA,NA,0,NA,NA,NA,NA,NA,NA,NA,NA,NA,NA,NA,NA,NA,NA,NA,NA,NA,NA,NA
0ccb7,"""Richtig""-Screen",canvas.Screen,5_0_0_0_1_1_1,NA,NA,skipped,NA,2149260,NA,NA,2149258.2,2149260.1,2023-01-28T17:08:42Z,2149271.462,NULL,Symbol,kielezo,s,kinyume,nderemo,utayari,NA,sdf,NA,0,NA,NA,NA,NA,NA,NA,NA,NA,NA,NA,NA,NA,NA,NA,NA,NA,NA,NA,NA
0ccb7,"""Falsch""-Screen",canvas.Screen,5_0_0_0_1_1_2,NA,NA,timeout,5000.7000000002,2149260.7,2149254.793,2149271.462,2154255.493,2154257.1,2023-01-28T17:08:47Z,2154272.162,NULL,Symbol,kielezo,s,kinyume,nderemo,utayari,NA,sdf,0,0,NA,NA,NA,NA,NA,NA,NA,NA,NA,NA,NA,NA,NA,NA,NA,NA,NA,NA,NA
0ccb7,shallow,flow.Sequence,5_0_0_0_1_1,NA,NA,completion,10702.529,2143538.2,2143536.295,2143552.964,2154255.493,2154257.5,2023-01-28T17:08:47Z,2154272.162,NULL,Symbol,kielezo,s,kinyume,nderemo,utayari,NA,sdf,NA,0,NA,NA,NA,NA,NA,NA,NA,NA,NA,NA,NA,NA,NA,NA,NA,NA,NA,NA,NA
0ccb7,task,flow.Sequence,5_0_0_0_1,NA,NA,completion,10702.529,2143538,2143536.295,2143552.964,2154255.493,2154257.6,2023-01-28T17:08:47Z,2154272.162,NULL,Symbol,kielezo,s,kinyume,nderemo,utayari,NA,sdf,NA,0,NA,NA,NA,NA,NA,NA,NA,NA,NA,NA,NA,NA,NA,NA,NA,NA,NA,NA,NA
0ccb7,Deep Question,html.Page,5_0_0_0_2_0_0,NA,NA,form submission,2145.937999994,2154257.7,2154255.493,2154272.162,2156418.1,2156418.2,2023-01-28T17:08:49Z,2156423.676,NULL,Vorsorge,tahadhari,d,NA,NA,NA,m,NA,NA,0,NA,NA,NA,NA,NA,NA,NA,NA,NA,NA,NA,NA,NA,NA,NA,NA,NA,NA,NA
0ccb7,"""Richtig""-Screen",canvas.Screen,5_0_0_0_2_0_1,NA,NA,skipped,NA,2156419.9,NA,NA,2156418.1,2156420,2023-01-28T17:08:49Z,2156423.676,NULL,Vorsorge,tahadhari,d,NA,NA,NA,NA,sdf,NA,0,NA,NA,NA,NA,NA,NA,NA,NA,NA,NA,NA,NA,NA,NA,NA,NA,NA,NA,NA
0ccb7,"""Falsch""-Screen",canvas.Screen,5_0_0_0_2_0_2,NA,NA,timeout,5000.7000000002,2156420.5,2156407.007,2156423.676,2161407.707,2161410,2023-01-28T17:08:54Z,2161424.376,NULL,Vorsorge,tahadhari,d,NA,NA,NA,NA,sdf,0,0,NA,NA,NA,NA,NA,NA,NA,NA,NA,NA,NA,NA,NA,NA,NA,NA,NA,NA,NA
0ccb7,deep,flow.Sequence,5_0_0_0_2_0,NA,NA,completion,7135.5449999999,2154257.7,2154255.493,2154272.162,2161407.707,2161410.1,2023-01-28T17:08:54Z,2161424.376,NULL,Vorsorge,tahadhari,d,NA,NA,NA,NA,sdf,NA,0,NA,NA,NA,NA,NA,NA,NA,NA,NA,NA,NA,NA,NA,NA,NA,NA,NA,NA,NA
0ccb7,shallow,flow.Sequence,5_0_0_0_2_1,NA,NA,skipped,NA,2161410.2,NA,NA,2161407.707,2161410.3,2023-01-28T17:08:54Z,2161424.376,NULL,Vorsorge,tahadhari,d,NA,NA,NA,NA,sdf,NA,0,NA,NA,NA,NA,NA,NA,NA,NA,NA,NA,NA,NA,NA,NA,NA,NA,NA,NA,NA
0ccb7,task,flow.Sequence,5_0_0_0_2,NA,NA,completion,7135.5449999999,2154257.7,2154255.493,2154272.162,2161407.707,2161410.5,2023-01-28T17:08:54Z,2161424.376,NULL,Vorsorge,tahadhari,d,NA,NA,NA,NA,sdf,NA,0,NA,NA,NA,NA,NA,NA,NA,NA,NA,NA,NA,NA,NA,NA,NA,NA,NA,NA,NA
0ccb7,Deep Question,html.Page,5_0_0_0_3_0_0,NA,NA,form submission,3673.9240000118,2161410.6,2161407.707,2161424.376,2165098.3,2165098.4,2023-01-28T17:08:57Z,2165111.186,NULL,Tester,wanaojaribu,d,NA,NA,NA,t,NA,NA,0,NA,NA,NA,NA,NA,NA,NA,NA,NA,NA,NA,NA,NA,NA,NA,NA,NA,NA,NA
0ccb7,"""Richtig""-Screen",canvas.Screen,5_0_0_0_3_0_1,NA,NA,skipped,NA,2165100.1,NA,NA,2165098.3,2165100.2,2023-01-28T17:08:57Z,2165111.186,NULL,Tester,wanaojaribu,d,NA,NA,NA,NA,sdf,NA,0,NA,NA,NA,NA,NA,NA,NA,NA,NA,NA,NA,NA,NA,NA,NA,NA,NA,NA,NA
0ccb7,"""Falsch""-Screen",canvas.Screen,5_0_0_0_3_0_2,NA,NA,timeout,5000.6999999997,2165100.8,2165094.517,2165111.186,2170095.217,2170097,2023-01-28T17:09:02Z,2170111.886,NULL,Tester,wanaojaribu,d,NA,NA,NA,NA,sdf,0,0,NA,NA,NA,NA,NA,NA,NA,NA,NA,NA,NA,NA,NA,NA,NA,NA,NA,NA,NA
0ccb7,deep,flow.Sequence,5_0_0_0_3_0,NA,NA,completion,8670.841,2161410.5,2161407.707,2161424.376,2170095.217,2170097.1,2023-01-28T17:09:02Z,2170111.886,NULL,Tester,wanaojaribu,d,NA,NA,NA,NA,sdf,NA,0,NA,NA,NA,NA,NA,NA,NA,NA,NA,NA,NA,NA,NA,NA,NA,NA,NA,NA,NA
0ccb7,shallow,flow.Sequence,5_0_0_0_3_1,NA,NA,skipped,NA,2170097.2,NA,NA,2170095.217,2170097.2,2023-01-28T17:09:02Z,2170111.886,NULL,Tester,wanaojaribu,d,NA,NA,NA,NA,sdf,NA,0,NA,NA,NA,NA,NA,NA,NA,NA,NA,NA,NA,NA,NA,NA,NA,NA,NA,NA,NA
0ccb7,task,flow.Sequence,5_0_0_0_3,NA,NA,completion,8670.841,2161410.5,2161407.707,2161424.376,2170095.217,2170097.3,2023-01-28T17:09:02Z,2170111.886,NULL,Tester,wanaojaribu,d,NA,NA,NA,NA,sdf,NA,0,NA,NA,NA,NA,NA,NA,NA,NA,NA,NA,NA,NA,NA,NA,NA,NA,NA,NA,NA
0ccb7,Deep Question,html.Page,5_0_0_0_4_0_0,NA,NA,form submission,2490.1140000001,2170097.4,2170095.217,2170111.886,2172602,2172602.2,2023-01-28T17:09:05Z,2172612.236,NULL,Konkurrent,mshindani,d,NA,NA,NA,a,NA,NA,0,NA,NA,NA,NA,NA,NA,NA,NA,NA,NA,NA,NA,NA,NA,NA,NA,NA,NA,NA
0ccb7,"""Richtig""-Screen",canvas.Screen,5_0_0_0_4_0_1,NA,NA,skipped,NA,2172603.7,NA,NA,2172602,2172603.8,2023-01-28T17:09:05Z,2172612.236,NULL,Konkurrent,mshindani,d,NA,NA,NA,NA,sdf,NA,0,NA,NA,NA,NA,NA,NA,NA,NA,NA,NA,NA,NA,NA,NA,NA,NA,NA,NA,NA
0ccb7,"""Falsch""-Screen",canvas.Screen,5_0_0_0_4_0_2,NA,NA,timeout,5000.7000000002,2172604.3,2172595.567,2172612.236,2177596.267,2177596.8,2023-01-28T17:09:10Z,2177612.936,NULL,Konkurrent,mshindani,d,NA,NA,NA,NA,sdf,0,0,NA,NA,NA,NA,NA,NA,NA,NA,NA,NA,NA,NA,NA,NA,NA,NA,NA,NA,NA
0ccb7,deep,flow.Sequence,5_0_0_0_4_0,NA,NA,completion,7484.3810000001,2170097.4,2170095.217,2170111.886,2177596.267,2177597,2023-01-28T17:09:10Z,2177612.936,NULL,Konkurrent,mshindani,d,NA,NA,NA,NA,sdf,NA,0,NA,NA,NA,NA,NA,NA,NA,NA,NA,NA,NA,NA,NA,NA,NA,NA,NA,NA,NA
0ccb7,shallow,flow.Sequence,5_0_0_0_4_1,NA,NA,skipped,NA,2177597.1,NA,NA,2177596.267,2177597.1,2023-01-28T17:09:10Z,2177612.936,NULL,Konkurrent,mshindani,d,NA,NA,NA,NA,sdf,NA,0,NA,NA,NA,NA,NA,NA,NA,NA,NA,NA,NA,NA,NA,NA,NA,NA,NA,NA,NA
0ccb7,task,flow.Sequence,5_0_0_0_4,NA,NA,completion,7484.3810000001,2170097.3,2170095.217,2170111.886,2177596.267,2177597.2,2023-01-28T17:09:10Z,2177612.936,NULL,Konkurrent,mshindani,d,NA,NA,NA,NA,sdf,NA,0,NA,NA,NA,NA,NA,NA,NA,NA,NA,NA,NA,NA,NA,NA,NA,NA,NA,NA,NA
0ccb7,deep,flow.Sequence,5_0_0_0_5_0,NA,NA,skipped,NA,2177597.3,NA,NA,2177596.267,2177597.3,2023-01-28T17:09:10Z,2177612.936,NULL,Fenster,dirisha,s,walakini,tasawari,maarifa,NA,sdf,NA,0,NA,NA,NA,NA,NA,NA,NA,NA,NA,NA,NA,NA,NA,NA,NA,NA,NA,NA,NA
0ccb7,Shallow Question,html.Page,5_0_0_0_5_1_0,NA,NA,form submission,6141.5639999998,2177597.4,2177596.267,2177612.936,2183754.5,2183754.7,2023-01-28T17:09:16Z,2183766.578,NULL,Fenster,dirisha,s,walakini,tasawari,maarifa,dirisha,NA,NA,0,NA,NA,NA,NA,NA,NA,NA,NA,NA,NA,NA,NA,NA,NA,NA,NA,NA,NA,NA
0ccb7,"""Richtig""-Screen",canvas.Screen,5_0_0_0_5_1_1,NA,NA,timeout,5000.6999999997,2183756.5,2183749.909,2183766.578,2188750.609,2188751.6,2023-01-28T17:09:21Z,2188767.278,NULL,Fenster,dirisha,s,walakini,tasawari,maarifa,NA,sdf,1,0,NA,NA,NA,NA,NA,NA,NA,NA,NA,NA,NA,NA,NA,NA,NA,NA,NA,NA,NA
0ccb7,"""Falsch""-Screen",canvas.Screen,5_0_0_0_5_1_2,NA,NA,skipped,NA,2188753.1,NA,NA,2188750.609,2188753.2,2023-01-28T17:09:21Z,2188767.278,NULL,Fenster,dirisha,s,walakini,tasawari,maarifa,NA,sdf,NA,0,NA,NA,NA,NA,NA,NA,NA,NA,NA,NA,NA,NA,NA,NA,NA,NA,NA,NA,NA
0ccb7,shallow,flow.Sequence,5_0_0_0_5_1,NA,NA,completion,11137.673,2177597.4,2177596.267,2177612.936,2188750.609,2188753.4,2023-01-28T17:09:21Z,2188767.278,NULL,Fenster,dirisha,s,walakini,tasawari,maarifa,NA,sdf,NA,0,NA,NA,NA,NA,NA,NA,NA,NA,NA,NA,NA,NA,NA,NA,NA,NA,NA,NA,NA
0ccb7,task,flow.Sequence,5_0_0_0_5,NA,NA,completion,11137.673,2177597.2,2177596.267,2177612.936,2188750.609,2188753.4,2023-01-28T17:09:21Z,2188767.278,NULL,Fenster,dirisha,s,walakini,tasawari,maarifa,NA,sdf,NA,0,NA,NA,NA,NA,NA,NA,NA,NA,NA,NA,NA,NA,NA,NA,NA,NA,NA,NA,NA
0ccb7,deep,flow.Sequence,5_0_0_0_6_0,NA,NA,skipped,NA,2188753.5,NA,NA,2188750.609,2188753.6,2023-01-28T17:09:21Z,2188767.278,NULL,Spionage,upelelezi,s,maslahi,utokazo,magangao,NA,sdf,NA,0,NA,NA,NA,NA,NA,NA,NA,NA,NA,NA,NA,NA,NA,NA,NA,NA,NA,NA,NA
0ccb7,Shallow Question,html.Page,5_0_0_0_6_1_0,NA,NA,form submission,4099.2220000001,2188753.6,2188750.609,2188767.278,2192866.5,2192866.7,2023-01-28T17:09:25Z,2192869.909,NULL,Spionage,upelelezi,s,maslahi,utokazo,magangao,maslahi,NA,NA,0,NA,NA,NA,NA,NA,NA,NA,NA,NA,NA,NA,NA,NA,NA,NA,NA,NA,NA,NA
0ccb7,"""Richtig""-Screen",canvas.Screen,5_0_0_0_6_1_1,NA,NA,skipped,NA,2192868.3,NA,NA,2192866.5,2192868.3,2023-01-28T17:09:25Z,2192869.909,NULL,Spionage,upelelezi,s,maslahi,utokazo,magangao,NA,sdf,NA,0,NA,NA,NA,NA,NA,NA,NA,NA,NA,NA,NA,NA,NA,NA,NA,NA,NA,NA,NA
0ccb7,"""Falsch""-Screen",canvas.Screen,5_0_0_0_6_1_2,NA,NA,timeout,5000.7000000002,2192869,2192853.24,2192869.909,2197853.94,2197854.8,2023-01-28T17:09:30Z,2197870.609,NULL,Spionage,upelelezi,s,maslahi,utokazo,magangao,NA,sdf,0,0,NA,NA,NA,NA,NA,NA,NA,NA,NA,NA,NA,NA,NA,NA,NA,NA,NA,NA,NA
0ccb7,shallow,flow.Sequence,5_0_0_0_6_1,NA,NA,completion,9086.662,2188753.6,2188750.609,2188767.278,2197853.94,2197855.1,2023-01-28T17:09:30Z,2197870.609,NULL,Spionage,upelelezi,s,maslahi,utokazo,magangao,NA,sdf,NA,0,NA,NA,NA,NA,NA,NA,NA,NA,NA,NA,NA,NA,NA,NA,NA,NA,NA,NA,NA
0ccb7,task,flow.Sequence,5_0_0_0_6,NA,NA,completion,9086.662,2188753.5,2188750.609,2188767.278,2197853.94,2197855.3,2023-01-28T17:09:30Z,2197870.609,NULL,Spionage,upelelezi,s,maslahi,utokazo,magangao,NA,sdf,NA,0,NA,NA,NA,NA,NA,NA,NA,NA,NA,NA,NA,NA,NA,NA,NA,NA,NA,NA,NA
0ccb7,Deep Question,html.Page,5_0_0_0_7_0_0,NA,NA,form submission,3291.7910000058,2197855.4,2197853.94,2197870.609,2201162.4,2201162.6,2023-01-28T17:09:33Z,2201172.193,NULL,Schüler,mwanafunzi,d,NA,NA,NA,a,NA,NA,0,NA,NA,NA,NA,NA,NA,NA,NA,NA,NA,NA,NA,NA,NA,NA,NA,NA,NA,NA
0ccb7,"""Richtig""-Screen",canvas.Screen,5_0_0_0_7_0_1,NA,NA,skipped,NA,2201164.3,NA,NA,2201162.4,2201164.4,2023-01-28T17:09:33Z,2201172.193,NULL,Schüler,mwanafunzi,d,NA,NA,NA,NA,sdf,NA,0,NA,NA,NA,NA,NA,NA,NA,NA,NA,NA,NA,NA,NA,NA,NA,NA,NA,NA,NA
0ccb7,"""Falsch""-Screen",canvas.Screen,5_0_0_0_7_0_2,NA,NA,timeout,5000.7000000002,2201165,2201155.524,2201172.193,2206156.224,2206158.5,2023-01-28T17:09:38Z,2206172.893,NULL,Schüler,mwanafunzi,d,NA,NA,NA,NA,sdf,0,0,NA,NA,NA,NA,NA,NA,NA,NA,NA,NA,NA,NA,NA,NA,NA,NA,NA,NA,NA
0ccb7,deep,flow.Sequence,5_0_0_0_7_0,NA,NA,completion,8285.6149999998,2197855.4,2197853.94,2197870.609,2206156.224,2206158.6,2023-01-28T17:09:38Z,2206172.893,NULL,Schüler,mwanafunzi,d,NA,NA,NA,NA,sdf,NA,0,NA,NA,NA,NA,NA,NA,NA,NA,NA,NA,NA,NA,NA,NA,NA,NA,NA,NA,NA
0ccb7,shallow,flow.Sequence,5_0_0_0_7_1,NA,NA,skipped,NA,2206158.7,NA,NA,2206156.224,2206158.8,2023-01-28T17:09:38Z,2206172.893,NULL,Schüler,mwanafunzi,d,NA,NA,NA,NA,sdf,NA,0,NA,NA,NA,NA,NA,NA,NA,NA,NA,NA,NA,NA,NA,NA,NA,NA,NA,NA,NA
0ccb7,task,flow.Sequence,5_0_0_0_7,NA,NA,completion,8285.6149999998,2197855.4,2197853.94,2197870.609,2206156.224,2206158.8,2023-01-28T17:09:38Z,2206172.893,NULL,Schüler,mwanafunzi,d,NA,NA,NA,NA,sdf,NA,0,NA,NA,NA,NA,NA,NA,NA,NA,NA,NA,NA,NA,NA,NA,NA,NA,NA,NA,NA
0ccb7,block,flow.Loop,5_0_0_0,NA,NA,completion,74756.145,2131396.1,2131383.41,2131400.079,2206156.224,2206159,2023-01-28T17:09:38Z,2206172.893,NULL,NA,NA,NA,NA,NA,NA,NA,sdf,NA,0,NA,NA,NA,NA,NA,NA,NA,NA,NA,NA,NA,NA,NA,NA,NA,NA,NA,NA,NA
0ccb7,weiter,canvas.Screen,5_0_0_1,sdf,keypress(Space),response,746.90700001176,2206159,2206156.224,2206172.893,2206919.8,2206923.1,2023-01-28T17:09:39Z,2206956.336,NULL,NA,NA,NA,NA,NA,NA,NA,sdf,NA,0,NA,NA,NA,NA,NA,NA,NA,NA,NA,NA,NA,NA,NA,NA,NA,NA,NA,NA,NA
