observation,sender,sender_type,sender_id,response,response_action,ended_on,duration,time_run,time_render,time_show,time_end,time_commit,timestamp,time_switch,german,swahili,enc,distractor1,distractor2,distractor3,response_2,x,correct,distractors,url_vp,url_sess,meta_labjs_version,meta_location,meta_user_agent,meta_platform,meta_language,meta_locale,meta_time_zone,meta_timezone_offset,meta_screen_width,meta_screen_height,meta_scroll_width,meta_scroll_height,meta_window_inner_width,meta_window_inner_height,meta_device_pixel_ratio,meta_labjs_build_flavor,meta_labjs_build_commit
2cdda,Introduction delayed retrieval,canvas.Screen,0,weiter,keypress(Space),response,11685.176000018,586.80000001192,588.355,605.024,12290.200000018,12296.400000006,2023-01-31T10:45:18Z,12306.662,NA,NA,NA,NA,NA,NA,NA,NA,NA,NULL,106,4,20.2.4,https://neurocog.fernuni.ch/studies/vweber/delayed/index.html?vp=106&sess=4,"Mozilla/5.0 (Macintosh; Intel Mac OS X 10_15_7) AppleWebKit/537.36 (KHTML, like Gecko) Chrome/109.0.0.0 Safari/537.36",MacIntel,de-DE,de,Europe/Zurich,-60,1440,900,1440,748,1440,796,2,production,f5b4a49f956347addd546a832a3327688c2c0fef
2cdda,Deep Question,html.Page,1_0_0_0,NA,NA,form submission,34285.238000006,12296.800000012,12289.993,12306.662,46591.900000006,46592.200000018,2023-01-31T10:45:53Z,46602.503,Widerstand,usulubu,s,kusababisha,mwalimu,mwenendo,NA,NA,NA,NULL,NA,NA,NA,NA,NA,NA,NA,NA,NA,NA,NA,NA,NA,NA,NA,NA,NA,NA,NA
2cdda,Save data screen,canvas.Screen,1_0_0_1,NA,NA,timeout,500.07,46593.100000024,46585.834,46602.503,47085.904,47087.5,2023-01-31T10:45:53Z,47102.573,Widerstand,usulubu,s,kusababisha,mwalimu,mwenendo,NA,NA,0,NULL,NA,NA,NA,NA,NA,NA,NA,NA,NA,NA,NA,NA,NA,NA,NA,NA,NA,NA,NA
2cdda,deep,flow.Sequence,1_0_0,NA,NA,completion,34779.242,12296.800000012,12289.993,12306.662,47085.904,47087.700000018,2023-01-31T10:45:53Z,47102.573,Widerstand,usulubu,s,kusababisha,mwalimu,mwenendo,NA,NA,NA,NULL,NA,NA,NA,NA,NA,NA,NA,NA,NA,NA,NA,NA,NA,NA,NA,NA,NA,NA,NA
2cdda,task,flow.Sequence,1_0,NA,NA,completion,34779.242,12296.800000012,12289.993,12306.662,47085.904,47087.900000006,2023-01-31T10:45:53Z,47102.573,Widerstand,usulubu,s,kusababisha,mwalimu,mwenendo,NA,NA,NA,NULL,NA,NA,NA,NA,NA,NA,NA,NA,NA,NA,NA,NA,NA,NA,NA,NA,NA,NA,NA
2cdda,Deep Question,html.Page,1_1_0_0,NA,NA,form submission,10310.427,47088,47085.904,47102.573,57413,57413.200000018,2023-01-31T10:46:04Z,57422.289,Schönheit,kirembo,s,mahojiano,msisimko,jitihadi,NA,NA,NA,NULL,NA,NA,NA,NA,NA,NA,NA,NA,NA,NA,NA,NA,NA,NA,NA,NA,NA,NA,NA
2cdda,Save data screen,canvas.Screen,1_1_0_1,NA,NA,timeout,500.07,57414,57405.62,57422.289,57905.69,57907.700000018,2023-01-31T10:46:04Z,57922.359,Schönheit,kirembo,s,mahojiano,msisimko,jitihadi,NA,NA,0,NULL,NA,NA,NA,NA,NA,NA,NA,NA,NA,NA,NA,NA,NA,NA,NA,NA,NA,NA,NA
2cdda,deep,flow.Sequence,1_1_0,NA,NA,completion,10803.117,47088,47085.904,47102.573,57905.69,57908,2023-01-31T10:46:04Z,57922.359,Schönheit,kirembo,s,mahojiano,msisimko,jitihadi,NA,NA,NA,NULL,NA,NA,NA,NA,NA,NA,NA,NA,NA,NA,NA,NA,NA,NA,NA,NA,NA,NA,NA
2cdda,task,flow.Sequence,1_1,NA,NA,completion,10803.117,47087.900000006,47085.904,47102.573,57905.69,57908.100000024,2023-01-31T10:46:04Z,57922.359,Schönheit,kirembo,s,mahojiano,msisimko,jitihadi,NA,NA,NA,NULL,NA,NA,NA,NA,NA,NA,NA,NA,NA,NA,NA,NA,NA,NA,NA,NA,NA,NA,NA
2cdda,Deep Question,html.Page,1_2_0_0,NA,NA,form submission,72930.141,57908.300000012,57905.69,57922.359,130852.5,130852.70000002,2023-01-31T10:47:17Z,130866.335,Zufall,kikuti,s,kukosekana,uchoraji,leseni,NA,NA,NA,NULL,NA,NA,NA,NA,NA,NA,NA,NA,NA,NA,NA,NA,NA,NA,NA,NA,NA,NA,NA
2cdda,Save data screen,canvas.Screen,1_2_0_1,NA,NA,timeout,500.06999999999,130854.60000002,130849.666,130866.335,131349.736,131351.30000001,2023-01-31T10:47:18Z,131366.405,Zufall,kikuti,s,kukosekana,uchoraji,leseni,NA,NA,0,NULL,NA,NA,NA,NA,NA,NA,NA,NA,NA,NA,NA,NA,NA,NA,NA,NA,NA,NA,NA
2cdda,deep,flow.Sequence,1_2_0,NA,NA,completion,73427.377,57908.200000018,57905.69,57922.359,131349.736,131351.5,2023-01-31T10:47:18Z,131366.405,Zufall,kikuti,s,kukosekana,uchoraji,leseni,NA,NA,NA,NULL,NA,NA,NA,NA,NA,NA,NA,NA,NA,NA,NA,NA,NA,NA,NA,NA,NA,NA,NA
2cdda,task,flow.Sequence,1_2,NA,NA,completion,73427.377,57908.200000018,57905.69,57922.359,131349.736,131351.70000002,2023-01-31T10:47:18Z,131366.405,Zufall,kikuti,s,kukosekana,uchoraji,leseni,NA,NA,NA,NULL,NA,NA,NA,NA,NA,NA,NA,NA,NA,NA,NA,NA,NA,NA,NA,NA,NA,NA,NA
2cdda,Deep Question,html.Page,1_3_0_0,NA,NA,form submission,18918.095,131351.90000001,131349.736,131366.405,150284.5,150284.70000002,2023-01-31T10:47:36Z,150289.38,Ausschluss,kutengwa,d,ununuzi,taratibu,madeni,NA,NA,NA,NULL,NA,NA,NA,NA,NA,NA,NA,NA,NA,NA,NA,NA,NA,NA,NA,NA,NA,NA,NA
2cdda,Save data screen,canvas.Screen,1_3_0_1,NA,NA,timeout,500.07000000001,150286.10000002,150272.711,150289.38,150772.781,150773.70000002,2023-01-31T10:47:37Z,150789.45,Ausschluss,kutengwa,d,ununuzi,taratibu,madeni,NA,NA,0,NULL,NA,NA,NA,NA,NA,NA,NA,NA,NA,NA,NA,NA,NA,NA,NA,NA,NA,NA,NA
2cdda,deep,flow.Sequence,1_3_0,NA,NA,completion,19406.376,131351.80000001,131349.736,131366.405,150772.781,150773.80000001,2023-01-31T10:47:37Z,150789.45,Ausschluss,kutengwa,d,ununuzi,taratibu,madeni,NA,NA,NA,NULL,NA,NA,NA,NA,NA,NA,NA,NA,NA,NA,NA,NA,NA,NA,NA,NA,NA,NA,NA
2cdda,task,flow.Sequence,1_3,NA,NA,completion,19406.376,131351.80000001,131349.736,131366.405,150772.781,150773.90000001,2023-01-31T10:47:37Z,150789.45,Ausschluss,kutengwa,d,ununuzi,taratibu,madeni,NA,NA,NA,NULL,NA,NA,NA,NA,NA,NA,NA,NA,NA,NA,NA,NA,NA,NA,NA,NA,NA,NA,NA
2cdda,Deep Question,html.Page,1_4_0_0,NA,NA,form submission,7871.3500000119,150774.10000002,150772.781,150789.45,158660.80000001,158661,2023-01-31T10:47:45Z,158676.049,Sympathie,mapendano,s,dhamiria,fungamano,maazimio,NA,NA,NA,NULL,NA,NA,NA,NA,NA,NA,NA,NA,NA,NA,NA,NA,NA,NA,NA,NA,NA,NA,NA
2cdda,Save data screen,canvas.Screen,1_4_0_1,NA,NA,timeout,500.07000000001,158662.5,158659.38,158676.049,159159.45,159160.90000001,2023-01-31T10:47:45Z,159176.119,Sympathie,mapendano,s,dhamiria,fungamano,maazimio,NA,NA,0,NULL,NA,NA,NA,NA,NA,NA,NA,NA,NA,NA,NA,NA,NA,NA,NA,NA,NA,NA,NA
2cdda,deep,flow.Sequence,1_4_0,NA,NA,completion,8370,150774.10000002,150772.781,150789.45,159159.45,159161.10000002,2023-01-31T10:47:45Z,159176.119,Sympathie,mapendano,s,dhamiria,fungamano,maazimio,NA,NA,NA,NULL,NA,NA,NA,NA,NA,NA,NA,NA,NA,NA,NA,NA,NA,NA,NA,NA,NA,NA,NA
2cdda,task,flow.Sequence,1_4,NA,NA,completion,8370,150774,150772.781,150789.45,159159.45,159161.20000002,2023-01-31T10:47:45Z,159176.119,Sympathie,mapendano,s,dhamiria,fungamano,maazimio,NA,NA,NA,NULL,NA,NA,NA,NA,NA,NA,NA,NA,NA,NA,NA,NA,NA,NA,NA,NA,NA,NA,NA
2cdda,Deep Question,html.Page,1_5_0_0,NA,NA,form submission,6108.4810000238,159161.20000002,159159.45,159176.119,165284.60000002,165284.80000001,2023-01-31T10:47:51Z,165293.642,Konkurrent,mshindani,d,msemaji,mvutaji,kipukusa,mshindani,NA,NA,NULL,NA,NA,NA,NA,NA,NA,NA,NA,NA,NA,NA,NA,NA,NA,NA,NA,NA,NA,NA
2cdda,Save data screen,canvas.Screen,1_5_0_1,NA,NA,timeout,501.65900000001,165286.30000001,165276.973,165293.642,165778.632,165779.5,2023-01-31T10:47:52Z,165795.301,Konkurrent,mshindani,d,msemaji,mvutaji,kipukusa,NA,NA,1,NULL,NA,NA,NA,NA,NA,NA,NA,NA,NA,NA,NA,NA,NA,NA,NA,NA,NA,NA,NA
2cdda,deep,flow.Sequence,1_5_0,NA,NA,completion,6602.513,159161.20000002,159159.45,159176.119,165778.632,165779.80000001,2023-01-31T10:47:52Z,165795.301,Konkurrent,mshindani,d,msemaji,mvutaji,kipukusa,NA,NA,NA,NULL,NA,NA,NA,NA,NA,NA,NA,NA,NA,NA,NA,NA,NA,NA,NA,NA,NA,NA,NA
2cdda,task,flow.Sequence,1_5,NA,NA,completion,6602.513,159161.20000002,159159.45,159176.119,165778.632,165779.90000001,2023-01-31T10:47:52Z,165795.301,Konkurrent,mshindani,d,msemaji,mvutaji,kipukusa,NA,NA,NA,NULL,NA,NA,NA,NA,NA,NA,NA,NA,NA,NA,NA,NA,NA,NA,NA,NA,NA,NA,NA
2cdda,Deep Question,html.Page,1_6_0_0,NA,NA,form submission,25897.099000006,165780.10000002,165778.632,165795.301,191692.40000001,191692.70000002,2023-01-31T10:48:18Z,191701.439,Auftrag,uagizaji,d,ghanima,kuzingatia,msukani,NA,NA,NA,NULL,NA,NA,NA,NA,NA,NA,NA,NA,NA,NA,NA,NA,NA,NA,NA,NA,NA,NA,NA
2cdda,Save data screen,canvas.Screen,1_6_0_1,NA,NA,timeout,500.06999999998,191694.20000002,191684.77,191701.439,192184.84,192186.20000002,2023-01-31T10:48:18Z,192201.509,Auftrag,uagizaji,d,ghanima,kuzingatia,msukani,NA,NA,0,NULL,NA,NA,NA,NA,NA,NA,NA,NA,NA,NA,NA,NA,NA,NA,NA,NA,NA,NA,NA
2cdda,deep,flow.Sequence,1_6_0,NA,NA,completion,26389.539,165780,165778.632,165795.301,192184.84,192186.30000001,2023-01-31T10:48:18Z,192201.509,Auftrag,uagizaji,d,ghanima,kuzingatia,msukani,NA,NA,NA,NULL,NA,NA,NA,NA,NA,NA,NA,NA,NA,NA,NA,NA,NA,NA,NA,NA,NA,NA,NA
2cdda,task,flow.Sequence,1_6,NA,NA,completion,26389.539,165780,165778.632,165795.301,192184.84,192186.5,2023-01-31T10:48:18Z,192201.509,Auftrag,uagizaji,d,ghanima,kuzingatia,msukani,NA,NA,NA,NULL,NA,NA,NA,NA,NA,NA,NA,NA,NA,NA,NA,NA,NA,NA,NA,NA,NA,NA,NA
2cdda,Deep Question,html.Page,1_7_0_0,NA,NA,form submission,11739.491,192186.60000002,192184.84,192201.509,203941,203941.20000002,2023-01-31T10:48:30Z,203941.115,Gelegenheit,wakati,d,mchanganyiko,kipaumbele,kushuku,dharura,NA,NA,NULL,NA,NA,NA,NA,NA,NA,NA,NA,NA,NA,NA,NA,NA,NA,NA,NA,NA,NA,NA
2cdda,Save data screen,canvas.Screen,1_7_0_1,NA,NA,timeout,500.07000000001,203942.60000002,203924.446,203941.115,204424.516,204425.90000001,2023-01-31T10:48:31Z,204441.185,Gelegenheit,wakati,d,mchanganyiko,kipaumbele,kushuku,NA,NA,0,NULL,NA,NA,NA,NA,NA,NA,NA,NA,NA,NA,NA,NA,NA,NA,NA,NA,NA,NA,NA
2cdda,deep,flow.Sequence,1_7_0,NA,NA,completion,12223.007,192186.60000002,192184.84,192201.509,204424.516,204426.10000002,2023-01-31T10:48:31Z,204441.185,Gelegenheit,wakati,d,mchanganyiko,kipaumbele,kushuku,NA,NA,NA,NULL,NA,NA,NA,NA,NA,NA,NA,NA,NA,NA,NA,NA,NA,NA,NA,NA,NA,NA,NA
2cdda,task,flow.Sequence,1_7,NA,NA,completion,12223.007,192186.60000002,192184.84,192201.509,204424.516,204426.10000002,2023-01-31T10:48:31Z,204441.185,Gelegenheit,wakati,d,mchanganyiko,kipaumbele,kushuku,NA,NA,NA,NULL,NA,NA,NA,NA,NA,NA,NA,NA,NA,NA,NA,NA,NA,NA,NA,NA,NA,NA,NA
2cdda,Deep Question,html.Page,1_8_0_0,NA,NA,form submission,5539.715000006,204426.20000002,204424.516,204441.185,209980.90000001,209981.10000002,2023-01-31T10:48:36Z,209993.938,Beweis,ushahidi,d,marudio,kizuizi,mtendaji,dharura,NA,NA,NULL,NA,NA,NA,NA,NA,NA,NA,NA,NA,NA,NA,NA,NA,NA,NA,NA,NA,NA,NA
2cdda,Save data screen,canvas.Screen,1_8_0_1,NA,NA,timeout,500.07000000001,209982.60000002,209977.269,209993.938,210477.339,210479.60000002,2023-01-31T10:48:37Z,210494.008,Beweis,ushahidi,d,marudio,kizuizi,mtendaji,NA,NA,0,NULL,NA,NA,NA,NA,NA,NA,NA,NA,NA,NA,NA,NA,NA,NA,NA,NA,NA,NA,NA
2cdda,deep,flow.Sequence,1_8_0,NA,NA,completion,6036.154,204426.20000002,204424.516,204441.185,210477.339,210479.80000001,2023-01-31T10:48:37Z,210494.008,Beweis,ushahidi,d,marudio,kizuizi,mtendaji,NA,NA,NA,NULL,NA,NA,NA,NA,NA,NA,NA,NA,NA,NA,NA,NA,NA,NA,NA,NA,NA,NA,NA
2cdda,task,flow.Sequence,1_8,NA,NA,completion,6036.154,204426.20000002,204424.516,204441.185,210477.339,210479.90000001,2023-01-31T10:48:37Z,210494.008,Beweis,ushahidi,d,marudio,kizuizi,mtendaji,NA,NA,NA,NULL,NA,NA,NA,NA,NA,NA,NA,NA,NA,NA,NA,NA,NA,NA,NA,NA,NA,NA,NA
2cdda,Deep Question,html.Page,1_9_0_0,NA,NA,form submission,17086.492,210480,210477.339,210494.008,227580.5,227580.70000002,2023-01-31T10:48:54Z,227583.411,Polizist,msongora,d,simanzi,mandhari,nidhamu,melelepezi,NA,NA,NULL,NA,NA,NA,NA,NA,NA,NA,NA,NA,NA,NA,NA,NA,NA,NA,NA,NA,NA,NA
2cdda,Save data screen,canvas.Screen,1_9_0_1,NA,NA,timeout,500.07000000001,227582.20000002,227566.742,227583.411,228066.812,228068.60000002,2023-01-31T10:48:54Z,228083.481,Polizist,msongora,d,simanzi,mandhari,nidhamu,NA,NA,0,NULL,NA,NA,NA,NA,NA,NA,NA,NA,NA,NA,NA,NA,NA,NA,NA,NA,NA,NA,NA
2cdda,deep,flow.Sequence,1_9_0,NA,NA,completion,17572.804,210480,210477.339,210494.008,228066.812,228068.80000001,2023-01-31T10:48:54Z,228083.481,Polizist,msongora,d,simanzi,mandhari,nidhamu,NA,NA,NA,NULL,NA,NA,NA,NA,NA,NA,NA,NA,NA,NA,NA,NA,NA,NA,NA,NA,NA,NA,NA
2cdda,task,flow.Sequence,1_9,NA,NA,completion,17572.804,210480,210477.339,210494.008,228066.812,228068.90000001,2023-01-31T10:48:54Z,228083.481,Polizist,msongora,d,simanzi,mandhari,nidhamu,NA,NA,NA,NULL,NA,NA,NA,NA,NA,NA,NA,NA,NA,NA,NA,NA,NA,NA,NA,NA,NA,NA,NA
2cdda,Deep Question,html.Page,1_10_0_0,NA,NA,form submission,1664.7190000179,228069,228066.812,228083.481,229748.20000002,229748.5,2023-01-31T10:48:56Z,229750.381,Annäherung,maegesho,s,madahili,kujiamini,mapendekezo,NA,NA,NA,NULL,NA,NA,NA,NA,NA,NA,NA,NA,NA,NA,NA,NA,NA,NA,NA,NA,NA,NA,NA
2cdda,Save data screen,canvas.Screen,1_10_0_1,NA,NA,timeout,500.07000000001,229749,229733.712,229750.381,230233.782,230234.80000001,2023-01-31T10:48:56Z,230250.451,Annäherung,maegesho,s,madahili,kujiamini,mapendekezo,NA,NA,0,NULL,NA,NA,NA,NA,NA,NA,NA,NA,NA,NA,NA,NA,NA,NA,NA,NA,NA,NA,NA
2cdda,deep,flow.Sequence,1_10_0,NA,NA,completion,2150.301,228069,228066.812,228083.481,230233.782,230235,2023-01-31T10:48:56Z,230250.451,Annäherung,maegesho,s,madahili,kujiamini,mapendekezo,NA,NA,NA,NULL,NA,NA,NA,NA,NA,NA,NA,NA,NA,NA,NA,NA,NA,NA,NA,NA,NA,NA,NA
2cdda,task,flow.Sequence,1_10,NA,NA,completion,2150.301,228069,228066.812,228083.481,230233.782,230235,2023-01-31T10:48:56Z,230250.451,Annäherung,maegesho,s,madahili,kujiamini,mapendekezo,NA,NA,NA,NULL,NA,NA,NA,NA,NA,NA,NA,NA,NA,NA,NA,NA,NA,NA,NA,NA,NA,NA,NA
2cdda,Deep Question,html.Page,1_11_0_0,NA,NA,form submission,4866.049,230235.20000002,230233.782,230250.451,235116.5,235116.80000001,2023-01-31T10:49:01Z,235117.799,Verstand,ufahamivu,s,shakawa,hadhari,mhandisi,NA,NA,NA,NULL,NA,NA,NA,NA,NA,NA,NA,NA,NA,NA,NA,NA,NA,NA,NA,NA,NA,NA,NA
2cdda,Save data screen,canvas.Screen,1_11_0_1,NA,NA,timeout,500.07000000001,235118.20000002,235101.13,235117.799,235601.2,235602.60000002,2023-01-31T10:49:02Z,235617.869,Verstand,ufahamivu,s,shakawa,hadhari,mhandisi,NA,NA,0,NULL,NA,NA,NA,NA,NA,NA,NA,NA,NA,NA,NA,NA,NA,NA,NA,NA,NA,NA,NA
2cdda,deep,flow.Sequence,1_11_0,NA,NA,completion,5350.749,230235.20000002,230233.782,230250.451,235601.2,235602.80000001,2023-01-31T10:49:02Z,235617.869,Verstand,ufahamivu,s,shakawa,hadhari,mhandisi,NA,NA,NA,NULL,NA,NA,NA,NA,NA,NA,NA,NA,NA,NA,NA,NA,NA,NA,NA,NA,NA,NA,NA
2cdda,task,flow.Sequence,1_11,NA,NA,completion,5350.749,230235.10000002,230233.782,230250.451,235601.2,235602.90000001,2023-01-31T10:49:02Z,235617.869,Verstand,ufahamivu,s,shakawa,hadhari,mhandisi,NA,NA,NA,NULL,NA,NA,NA,NA,NA,NA,NA,NA,NA,NA,NA,NA,NA,NA,NA,NA,NA,NA,NA
2cdda,Deep Question,html.Page,1_12_0_0,NA,NA,form submission,3346.531000006,235603,235601.2,235617.869,238964.40000001,238964.60000002,2023-01-31T10:49:05Z,238969.151,Wettbewerb,ushindani,d,mapendezi,kichocheo,ubaguzi,NA,NA,NA,NULL,NA,NA,NA,NA,NA,NA,NA,NA,NA,NA,NA,NA,NA,NA,NA,NA,NA,NA,NA
2cdda,Save data screen,canvas.Screen,1_12_0_1,NA,NA,timeout,500.06999999998,238966,238952.482,238969.151,239452.552,239454.30000001,2023-01-31T10:49:06Z,239469.221,Wettbewerb,ushindani,d,mapendezi,kichocheo,ubaguzi,NA,NA,0,NULL,NA,NA,NA,NA,NA,NA,NA,NA,NA,NA,NA,NA,NA,NA,NA,NA,NA,NA,NA
2cdda,deep,flow.Sequence,1_12_0,NA,NA,completion,3834.683,235602.90000001,235601.2,235617.869,239452.552,239454.5,2023-01-31T10:49:06Z,239469.221,Wettbewerb,ushindani,d,mapendezi,kichocheo,ubaguzi,NA,NA,NA,NULL,NA,NA,NA,NA,NA,NA,NA,NA,NA,NA,NA,NA,NA,NA,NA,NA,NA,NA,NA
2cdda,task,flow.Sequence,1_12,NA,NA,completion,3834.683,235602.90000001,235601.2,235617.869,239452.552,239454.60000002,2023-01-31T10:49:06Z,239469.221,Wettbewerb,ushindani,d,mapendezi,kichocheo,ubaguzi,NA,NA,NA,NULL,NA,NA,NA,NA,NA,NA,NA,NA,NA,NA,NA,NA,NA,NA,NA,NA,NA,NA,NA
2cdda,Deep Question,html.Page,1_13_0_0,NA,NA,form submission,5103.179000006,239454.70000002,239452.552,239469.221,244572.40000001,244572.60000002,2023-01-31T10:49:11Z,244586.604,Vorsorge,tahadhari,d,ufafanuzi,makini,mashambani,tahadhari,NA,NA,NULL,NA,NA,NA,NA,NA,NA,NA,NA,NA,NA,NA,NA,NA,NA,NA,NA,NA,NA,NA
2cdda,Save data screen,canvas.Screen,1_13_0_1,NA,NA,timeout,500.07000000001,244574.10000002,244569.935,244586.604,245070.005,245071.80000001,2023-01-31T10:49:11Z,245086.674,Vorsorge,tahadhari,d,ufafanuzi,makini,mashambani,NA,NA,1,NULL,NA,NA,NA,NA,NA,NA,NA,NA,NA,NA,NA,NA,NA,NA,NA,NA,NA,NA,NA
2cdda,deep,flow.Sequence,1_13_0,NA,NA,completion,5600.784,239454.70000002,239452.552,239469.221,245070.005,245072,2023-01-31T10:49:11Z,245086.674,Vorsorge,tahadhari,d,ufafanuzi,makini,mashambani,NA,NA,NA,NULL,NA,NA,NA,NA,NA,NA,NA,NA,NA,NA,NA,NA,NA,NA,NA,NA,NA,NA,NA
2cdda,task,flow.Sequence,1_13,NA,NA,completion,5600.784,239454.70000002,239452.552,239469.221,245070.005,245072.10000002,2023-01-31T10:49:11Z,245086.674,Vorsorge,tahadhari,d,ufafanuzi,makini,mashambani,NA,NA,NA,NULL,NA,NA,NA,NA,NA,NA,NA,NA,NA,NA,NA,NA,NA,NA,NA,NA,NA,NA,NA
2cdda,Deep Question,html.Page,1_14_0_0,NA,NA,form submission,3702.226000006,245072.20000002,245070.005,245086.674,248788.90000001,248789.20000002,2023-01-31T10:49:15Z,248805.072,Zuwachs,nyongeza,s,matilaba,udhibiti,hudhurio,NA,NA,NA,NULL,NA,NA,NA,NA,NA,NA,NA,NA,NA,NA,NA,NA,NA,NA,NA,NA,NA,NA,NA
2cdda,Save data screen,canvas.Screen,1_14_0_1,NA,NA,timeout,500.07000000001,248790.60000002,248788.403,248805.072,249288.473,249289.40000001,2023-01-31T10:49:15Z,249305.142,Zuwachs,nyongeza,s,matilaba,udhibiti,hudhurio,NA,NA,0,NULL,NA,NA,NA,NA,NA,NA,NA,NA,NA,NA,NA,NA,NA,NA,NA,NA,NA,NA,NA
2cdda,deep,flow.Sequence,1_14_0,NA,NA,completion,4201.799,245072.10000002,245070.005,245086.674,249288.473,249289.5,2023-01-31T10:49:15Z,249305.142,Zuwachs,nyongeza,s,matilaba,udhibiti,hudhurio,NA,NA,NA,NULL,NA,NA,NA,NA,NA,NA,NA,NA,NA,NA,NA,NA,NA,NA,NA,NA,NA,NA,NA
2cdda,task,flow.Sequence,1_14,NA,NA,completion,4201.799,245072.10000002,245070.005,245086.674,249288.473,249289.60000002,2023-01-31T10:49:15Z,249305.142,Zuwachs,nyongeza,s,matilaba,udhibiti,hudhurio,NA,NA,NA,NULL,NA,NA,NA,NA,NA,NA,NA,NA,NA,NA,NA,NA,NA,NA,NA,NA,NA,NA,NA
2cdda,Deep Question,html.Page,1_15_0_0,NA,NA,form submission,4347.358,249289.70000002,249288.473,249305.142,253652.5,253652.70000002,2023-01-31T10:49:20Z,253655.751,Symbol,kielezo,s,kinyume,nderemo,utayari,NA,NA,NA,NULL,NA,NA,NA,NA,NA,NA,NA,NA,NA,NA,NA,NA,NA,NA,NA,NA,NA,NA,NA
2cdda,Save data screen,canvas.Screen,1_15_0_1,NA,NA,timeout,500.07000000001,253654,253639.082,253655.751,254139.152,254141.10000002,2023-01-31T10:49:20Z,254155.821,Symbol,kielezo,s,kinyume,nderemo,utayari,NA,NA,0,NULL,NA,NA,NA,NA,NA,NA,NA,NA,NA,NA,NA,NA,NA,NA,NA,NA,NA,NA,NA
2cdda,deep,flow.Sequence,1_15_0,NA,NA,completion,4834.01,249289.70000002,249288.473,249305.142,254139.152,254141.30000001,2023-01-31T10:49:20Z,254155.821,Symbol,kielezo,s,kinyume,nderemo,utayari,NA,NA,NA,NULL,NA,NA,NA,NA,NA,NA,NA,NA,NA,NA,NA,NA,NA,NA,NA,NA,NA,NA,NA
2cdda,task,flow.Sequence,1_15,NA,NA,completion,4834.01,249289.70000002,249288.473,249305.142,254139.152,254141.40000001,2023-01-31T10:49:20Z,254155.821,Symbol,kielezo,s,kinyume,nderemo,utayari,NA,NA,NA,NULL,NA,NA,NA,NA,NA,NA,NA,NA,NA,NA,NA,NA,NA,NA,NA,NA,NA,NA,NA
2cdda,retrieval block 1 (cued recall),flow.Loop,1,NA,NA,completion,241832.49,12296.700000018,12289.993,12306.662,254139.152,254141.5,2023-01-31T10:49:20Z,254155.821,NA,NA,NA,NA,NA,NA,NA,NA,NA,NULL,NA,NA,NA,NA,NA,NA,NA,NA,NA,NA,NA,NA,NA,NA,NA,NA,NA,NA,NA
2cdda,Shallow Question,html.Page,2_0_0_0,NA,NA,form submission,4504.9790000119,254141.60000002,254139.152,254155.821,258660.80000001,258661,2023-01-31T10:49:25Z,258674.311,Auftrag,uagizaji,d,ghanima,kuzingatia,msukani,uagizaji,NA,NA,"c(""distractor1"", ""distractor2"", ""distractor3"")",NA,NA,NA,NA,NA,NA,NA,NA,NA,NA,NA,NA,NA,NA,NA,NA,NA,NA,NA
2cdda,Save data screen,canvas.Screen,2_0_0_1,NA,NA,timeout,500.07000000001,258662.5,258657.642,258674.311,259157.712,259158.70000002,2023-01-31T10:49:25Z,259174.381,Auftrag,uagizaji,d,ghanima,kuzingatia,msukani,NA,NA,1,"c(""distractor1"", ""distractor2"", ""distractor3"")",NA,NA,NA,NA,NA,NA,NA,NA,NA,NA,NA,NA,NA,NA,NA,NA,NA,NA,NA
2cdda,shallow,flow.Sequence,2_0_0,NA,NA,completion,5001.891,254141.5,254139.152,254155.821,259157.712,259158.90000001,2023-01-31T10:49:25Z,259174.381,Auftrag,uagizaji,d,ghanima,kuzingatia,msukani,NA,NA,NA,"c(""distractor1"", ""distractor2"", ""distractor3"")",NA,NA,NA,NA,NA,NA,NA,NA,NA,NA,NA,NA,NA,NA,NA,NA,NA,NA,NA
2cdda,task,flow.Sequence,2_0,NA,NA,completion,5001.891,254141.5,254139.152,254155.821,259157.712,259158.90000001,2023-01-31T10:49:25Z,259174.381,Auftrag,uagizaji,d,ghanima,kuzingatia,msukani,NA,NA,NA,"c(""distractor1"", ""distractor2"", ""distractor3"")",NA,NA,NA,NA,NA,NA,NA,NA,NA,NA,NA,NA,NA,NA,NA,NA,NA,NA,NA
2cdda,Shallow Question,html.Page,2_1_0_0,NA,NA,form submission,4646.119,259159.10000002,259157.712,259174.381,263820.5,263820.60000002,2023-01-31T10:49:30Z,263825.032,Konkurrent,mshindani,d,msemaji,mvutaji,kipukusa,mshindani,NA,NA,"c(""distractor1"", ""distractor2"", ""distractor3"")",NA,NA,NA,NA,NA,NA,NA,NA,NA,NA,NA,NA,NA,NA,NA,NA,NA,NA,NA
2cdda,Save data screen,canvas.Screen,2_1_0_1,NA,NA,timeout,500.07000000001,263822,263808.363,263825.032,264308.433,264309.70000002,2023-01-31T10:49:31Z,264325.102,Konkurrent,mshindani,d,msemaji,mvutaji,kipukusa,NA,NA,1,"c(""distractor1"", ""distractor2"", ""distractor3"")",NA,NA,NA,NA,NA,NA,NA,NA,NA,NA,NA,NA,NA,NA,NA,NA,NA,NA,NA
2cdda,shallow,flow.Sequence,2_1_0,NA,NA,completion,5134.052,259159,259157.712,259174.381,264308.433,264309.90000001,2023-01-31T10:49:31Z,264325.102,Konkurrent,mshindani,d,msemaji,mvutaji,kipukusa,NA,NA,NA,"c(""distractor1"", ""distractor2"", ""distractor3"")",NA,NA,NA,NA,NA,NA,NA,NA,NA,NA,NA,NA,NA,NA,NA,NA,NA,NA,NA
2cdda,task,flow.Sequence,2_1,NA,NA,completion,5134.052,259159,259157.712,259174.381,264308.433,264309.90000001,2023-01-31T10:49:31Z,264325.102,Konkurrent,mshindani,d,msemaji,mvutaji,kipukusa,NA,NA,NA,"c(""distractor1"", ""distractor2"", ""distractor3"")",NA,NA,NA,NA,NA,NA,NA,NA,NA,NA,NA,NA,NA,NA,NA,NA,NA,NA,NA
2cdda,Shallow Question,html.Page,2_2_0_0,NA,NA,form submission,2408.2980000059,264310,264308.433,264325.102,266733.40000001,266733.70000002,2023-01-31T10:49:33Z,266742.107,Annäherung,maegesho,s,madahili,kujiamini,mapendekezo,maegesho,NA,NA,"c(""distractor1"", ""distractor2"", ""distractor3"")",NA,NA,NA,NA,NA,NA,NA,NA,NA,NA,NA,NA,NA,NA,NA,NA,NA,NA,NA
2cdda,Save data screen,canvas.Screen,2_2_0_1,NA,NA,timeout,500.07000000001,266734.5,266725.438,266742.107,267225.508,267227.10000002,2023-01-31T10:49:33Z,267242.177,Annäherung,maegesho,s,madahili,kujiamini,mapendekezo,NA,NA,1,"c(""distractor1"", ""distractor2"", ""distractor3"")",NA,NA,NA,NA,NA,NA,NA,NA,NA,NA,NA,NA,NA,NA,NA,NA,NA,NA,NA
2cdda,shallow,flow.Sequence,2_2_0,NA,NA,completion,2900.406,264310,264308.433,264325.102,267225.508,267227.30000001,2023-01-31T10:49:33Z,267242.177,Annäherung,maegesho,s,madahili,kujiamini,mapendekezo,NA,NA,NA,"c(""distractor1"", ""distractor2"", ""distractor3"")",NA,NA,NA,NA,NA,NA,NA,NA,NA,NA,NA,NA,NA,NA,NA,NA,NA,NA,NA
2cdda,task,flow.Sequence,2_2,NA,NA,completion,2900.406,264310,264308.433,264325.102,267225.508,267227.40000001,2023-01-31T10:49:33Z,267242.177,Annäherung,maegesho,s,madahili,kujiamini,mapendekezo,NA,NA,NA,"c(""distractor1"", ""distractor2"", ""distractor3"")",NA,NA,NA,NA,NA,NA,NA,NA,NA,NA,NA,NA,NA,NA,NA,NA,NA,NA,NA
2cdda,Shallow Question,html.Page,2_3_0_0,NA,NA,form submission,9682.323,267227.5,267225.508,267242.177,276924.5,276924.70000002,2023-01-31T10:49:43Z,276927.91,Wettbewerb,ushindani,d,mapendezi,kichocheo,ubaguzi,mapendezi,NA,NA,"c(""distractor1"", ""distractor2"", ""distractor3"")",NA,NA,NA,NA,NA,NA,NA,NA,NA,NA,NA,NA,NA,NA,NA,NA,NA,NA,NA
2cdda,Save data screen,canvas.Screen,2_3_0_1,NA,NA,timeout,500.07000000001,276926,276911.241,276927.91,277411.311,277412.70000002,2023-01-31T10:49:44Z,277427.98,Wettbewerb,ushindani,d,mapendezi,kichocheo,ubaguzi,NA,NA,0,"c(""distractor1"", ""distractor2"", ""distractor3"")",NA,NA,NA,NA,NA,NA,NA,NA,NA,NA,NA,NA,NA,NA,NA,NA,NA,NA,NA
2cdda,shallow,flow.Sequence,2_3_0,NA,NA,completion,10169.134,267227.40000001,267225.508,267242.177,277411.311,277412.90000001,2023-01-31T10:49:44Z,277427.98,Wettbewerb,ushindani,d,mapendezi,kichocheo,ubaguzi,NA,NA,NA,"c(""distractor1"", ""distractor2"", ""distractor3"")",NA,NA,NA,NA,NA,NA,NA,NA,NA,NA,NA,NA,NA,NA,NA,NA,NA,NA,NA
2cdda,task,flow.Sequence,2_3,NA,NA,completion,10169.134,267227.40000001,267225.508,267242.177,277411.311,277413.10000002,2023-01-31T10:49:44Z,277427.98,Wettbewerb,ushindani,d,mapendezi,kichocheo,ubaguzi,NA,NA,NA,"c(""distractor1"", ""distractor2"", ""distractor3"")",NA,NA,NA,NA,NA,NA,NA,NA,NA,NA,NA,NA,NA,NA,NA,NA,NA,NA,NA
2cdda,Shallow Question,html.Page,2_4_0_0,NA,NA,form submission,4032.420000006,277413.20000002,277411.311,277427.98,281460.40000001,281460.70000002,2023-01-31T10:49:48Z,281462.773,Ausschluss,kutengwa,d,ununuzi,taratibu,madeni,kutengwa,NA,NA,"c(""distractor1"", ""distractor2"", ""distractor3"")",NA,NA,NA,NA,NA,NA,NA,NA,NA,NA,NA,NA,NA,NA,NA,NA,NA,NA,NA
2cdda,Save data screen,canvas.Screen,2_4_0_1,NA,NA,timeout,500.07000000001,281461.90000001,281446.104,281462.773,281946.174,281947.20000002,2023-01-31T10:49:48Z,281962.843,Ausschluss,kutengwa,d,ununuzi,taratibu,madeni,NA,NA,1,"c(""distractor1"", ""distractor2"", ""distractor3"")",NA,NA,NA,NA,NA,NA,NA,NA,NA,NA,NA,NA,NA,NA,NA,NA,NA,NA,NA
2cdda,shallow,flow.Sequence,2_4_0,NA,NA,completion,4518.194,277413.20000002,277411.311,277427.98,281946.174,281947.30000001,2023-01-31T10:49:48Z,281962.843,Ausschluss,kutengwa,d,ununuzi,taratibu,madeni,NA,NA,NA,"c(""distractor1"", ""distractor2"", ""distractor3"")",NA,NA,NA,NA,NA,NA,NA,NA,NA,NA,NA,NA,NA,NA,NA,NA,NA,NA,NA
2cdda,task,flow.Sequence,2_4,NA,NA,completion,4518.194,277413.10000002,277411.311,277427.98,281946.174,281947.40000001,2023-01-31T10:49:48Z,281962.843,Ausschluss,kutengwa,d,ununuzi,taratibu,madeni,NA,NA,NA,"c(""distractor1"", ""distractor2"", ""distractor3"")",NA,NA,NA,NA,NA,NA,NA,NA,NA,NA,NA,NA,NA,NA,NA,NA,NA,NA,NA
2cdda,Shallow Question,html.Page,2_5_0_0,NA,NA,form submission,7385.657,281947.5,281946.174,281962.843,289348.5,289349.20000002,2023-01-31T10:49:56Z,289363.879,Symbol,kielezo,s,kinyume,nderemo,utayari,kielezo,NA,NA,"c(""distractor1"", ""distractor2"", ""distractor3"")",NA,NA,NA,NA,NA,NA,NA,NA,NA,NA,NA,NA,NA,NA,NA,NA,NA,NA,NA
2cdda,Save data screen,canvas.Screen,2_5_0_1,NA,NA,timeout,501.03700000001,289351.80000001,289347.21,289363.879,289848.247,289849.70000002,2023-01-31T10:49:56Z,289864.916,Symbol,kielezo,s,kinyume,nderemo,utayari,NA,NA,1,"c(""distractor1"", ""distractor2"", ""distractor3"")",NA,NA,NA,NA,NA,NA,NA,NA,NA,NA,NA,NA,NA,NA,NA,NA,NA,NA,NA
2cdda,shallow,flow.Sequence,2_5_0,NA,NA,completion,7885.404,281947.5,281946.174,281962.843,289848.247,289849.90000001,2023-01-31T10:49:56Z,289864.916,Symbol,kielezo,s,kinyume,nderemo,utayari,NA,NA,NA,"c(""distractor1"", ""distractor2"", ""distractor3"")",NA,NA,NA,NA,NA,NA,NA,NA,NA,NA,NA,NA,NA,NA,NA,NA,NA,NA,NA
2cdda,task,flow.Sequence,2_5,NA,NA,completion,7885.404,281947.5,281946.174,281962.843,289848.247,289849.90000001,2023-01-31T10:49:56Z,289864.916,Symbol,kielezo,s,kinyume,nderemo,utayari,NA,NA,NA,"c(""distractor1"", ""distractor2"", ""distractor3"")",NA,NA,NA,NA,NA,NA,NA,NA,NA,NA,NA,NA,NA,NA,NA,NA,NA,NA,NA
2cdda,Shallow Question,html.Page,2_6_0_0,NA,NA,form submission,7291.6840000238,289850,289848.247,289864.916,297156.60000002,297156.80000001,2023-01-31T10:50:03Z,297165.938,Verstand,ufahamivu,s,shakawa,hadhari,mhandisi,ufahamivu,NA,NA,"c(""distractor1"", ""distractor2"", ""distractor3"")",NA,NA,NA,NA,NA,NA,NA,NA,NA,NA,NA,NA,NA,NA,NA,NA,NA,NA,NA
2cdda,Save data screen,canvas.Screen,2_6_0_1,NA,NA,timeout,500.06999999995,297158.30000001,297149.269,297165.938,297649.339,297650.5,2023-01-31T10:50:04Z,297666.008,Verstand,ufahamivu,s,shakawa,hadhari,mhandisi,NA,NA,1,"c(""distractor1"", ""distractor2"", ""distractor3"")",NA,NA,NA,NA,NA,NA,NA,NA,NA,NA,NA,NA,NA,NA,NA,NA,NA,NA,NA
2cdda,shallow,flow.Sequence,2_6_0,NA,NA,completion,7784.423,289850,289848.247,289864.916,297649.339,297650.70000002,2023-01-31T10:50:04Z,297666.008,Verstand,ufahamivu,s,shakawa,hadhari,mhandisi,NA,NA,NA,"c(""distractor1"", ""distractor2"", ""distractor3"")",NA,NA,NA,NA,NA,NA,NA,NA,NA,NA,NA,NA,NA,NA,NA,NA,NA,NA,NA
2cdda,task,flow.Sequence,2_6,NA,NA,completion,7784.423,289850,289848.247,289864.916,297649.339,297650.80000001,2023-01-31T10:50:04Z,297666.008,Verstand,ufahamivu,s,shakawa,hadhari,mhandisi,NA,NA,NA,"c(""distractor1"", ""distractor2"", ""distractor3"")",NA,NA,NA,NA,NA,NA,NA,NA,NA,NA,NA,NA,NA,NA,NA,NA,NA,NA,NA
2cdda,Shallow Question,html.Page,2_7_0_0,NA,NA,form submission,2842.392000006,297650.90000001,297649.339,297666.008,300508.40000001,300508.70000002,2023-01-31T10:50:07Z,300518.013,Widerstand,usulubu,s,kusababisha,mwalimu,mwenendo,usulubu,NA,NA,"c(""distractor1"", ""distractor2"", ""distractor3"")",NA,NA,NA,NA,NA,NA,NA,NA,NA,NA,NA,NA,NA,NA,NA,NA,NA,NA,NA
2cdda,Save data screen,canvas.Screen,2_7_0_1,NA,NA,timeout,500.07000000001,300509.40000001,300501.344,300518.013,301001.414,301002.60000002,2023-01-31T10:50:07Z,301018.083,Widerstand,usulubu,s,kusababisha,mwalimu,mwenendo,NA,NA,1,"c(""distractor1"", ""distractor2"", ""distractor3"")",NA,NA,NA,NA,NA,NA,NA,NA,NA,NA,NA,NA,NA,NA,NA,NA,NA,NA,NA
2cdda,shallow,flow.Sequence,2_7_0,NA,NA,completion,3335.406,297650.90000001,297649.339,297666.008,301001.414,301002.80000001,2023-01-31T10:50:07Z,301018.083,Widerstand,usulubu,s,kusababisha,mwalimu,mwenendo,NA,NA,NA,"c(""distractor1"", ""distractor2"", ""distractor3"")",NA,NA,NA,NA,NA,NA,NA,NA,NA,NA,NA,NA,NA,NA,NA,NA,NA,NA,NA
2cdda,task,flow.Sequence,2_7,NA,NA,completion,3335.406,297650.90000001,297649.339,297666.008,301001.414,301003,2023-01-31T10:50:07Z,301018.083,Widerstand,usulubu,s,kusababisha,mwalimu,mwenendo,NA,NA,NA,"c(""distractor1"", ""distractor2"", ""distractor3"")",NA,NA,NA,NA,NA,NA,NA,NA,NA,NA,NA,NA,NA,NA,NA,NA,NA,NA,NA
2cdda,Shallow Question,html.Page,2_8_0_0,NA,NA,form submission,15362.517000024,301003,301001.414,301018.083,316380.60000002,316380.90000001,2023-01-31T10:50:23Z,316388.343,Beweis,ushahidi,d,marudio,kizuizi,mtendaji,ushahidi,NA,NA,"c(""distractor1"", ""distractor2"", ""distractor3"")",NA,NA,NA,NA,NA,NA,NA,NA,NA,NA,NA,NA,NA,NA,NA,NA,NA,NA,NA
2cdda,Save data screen,canvas.Screen,2_8_0_1,NA,NA,timeout,500.07000000001,316382.10000002,316371.674,316388.343,316871.744,316872.90000001,2023-01-31T10:50:23Z,316888.413,Beweis,ushahidi,d,marudio,kizuizi,mtendaji,NA,NA,1,"c(""distractor1"", ""distractor2"", ""distractor3"")",NA,NA,NA,NA,NA,NA,NA,NA,NA,NA,NA,NA,NA,NA,NA,NA,NA,NA,NA
2cdda,shallow,flow.Sequence,2_8_0,NA,NA,completion,15853.661,301003,301001.414,301018.083,316871.744,316873.10000002,2023-01-31T10:50:23Z,316888.413,Beweis,ushahidi,d,marudio,kizuizi,mtendaji,NA,NA,NA,"c(""distractor1"", ""distractor2"", ""distractor3"")",NA,NA,NA,NA,NA,NA,NA,NA,NA,NA,NA,NA,NA,NA,NA,NA,NA,NA,NA
2cdda,task,flow.Sequence,2_8,NA,NA,completion,15853.661,301003,301001.414,301018.083,316871.744,316873.30000001,2023-01-31T10:50:23Z,316888.413,Beweis,ushahidi,d,marudio,kizuizi,mtendaji,NA,NA,NA,"c(""distractor1"", ""distractor2"", ""distractor3"")",NA,NA,NA,NA,NA,NA,NA,NA,NA,NA,NA,NA,NA,NA,NA,NA,NA,NA,NA
2cdda,Shallow Question,html.Page,2_9_0_0,NA,NA,form submission,1836.6870000238,316873.5,316871.744,316888.413,318725.10000002,318725.20000002,2023-01-31T10:50:25Z,318738.672,Vorsorge,tahadhari,d,ufafanuzi,makini,mashambani,tahadhari,NA,NA,"c(""distractor1"", ""distractor2"", ""distractor3"")",NA,NA,NA,NA,NA,NA,NA,NA,NA,NA,NA,NA,NA,NA,NA,NA,NA,NA,NA
2cdda,Save data screen,canvas.Screen,2_9_0_1,NA,NA,timeout,500.07000000001,318725.80000001,318722.003,318738.672,319222.073,319223.5,2023-01-31T10:50:25Z,319238.742,Vorsorge,tahadhari,d,ufafanuzi,makini,mashambani,NA,NA,1,"c(""distractor1"", ""distractor2"", ""distractor3"")",NA,NA,NA,NA,NA,NA,NA,NA,NA,NA,NA,NA,NA,NA,NA,NA,NA,NA,NA
2cdda,shallow,flow.Sequence,2_9_0,NA,NA,completion,2333.66,316873.5,316871.744,316888.413,319222.073,319224,2023-01-31T10:50:25Z,319238.742,Vorsorge,tahadhari,d,ufafanuzi,makini,mashambani,NA,NA,NA,"c(""distractor1"", ""distractor2"", ""distractor3"")",NA,NA,NA,NA,NA,NA,NA,NA,NA,NA,NA,NA,NA,NA,NA,NA,NA,NA,NA
2cdda,task,flow.Sequence,2_9,NA,NA,completion,2333.66,316873.5,316871.744,316888.413,319222.073,319224.5,2023-01-31T10:50:25Z,319238.742,Vorsorge,tahadhari,d,ufafanuzi,makini,mashambani,NA,NA,NA,"c(""distractor1"", ""distractor2"", ""distractor3"")",NA,NA,NA,NA,NA,NA,NA,NA,NA,NA,NA,NA,NA,NA,NA,NA,NA,NA,NA
2cdda,Shallow Question,html.Page,2_10_0_0,NA,NA,form submission,9357.6580000059,319224.60000002,319222.073,319238.742,328596.40000001,328596.60000002,2023-01-31T10:50:35Z,328608.165,Sympathie,mapendano,s,dhamiria,fungamano,maazimio,mapendano,NA,NA,"c(""distractor1"", ""distractor2"", ""distractor3"")",NA,NA,NA,NA,NA,NA,NA,NA,NA,NA,NA,NA,NA,NA,NA,NA,NA,NA,NA
2cdda,Save data screen,canvas.Screen,2_10_0_1,NA,NA,timeout,500.07000000001,328598,328591.496,328608.165,329091.566,329092.40000001,2023-01-31T10:50:35Z,329108.235,Sympathie,mapendano,s,dhamiria,fungamano,maazimio,NA,NA,1,"c(""distractor1"", ""distractor2"", ""distractor3"")",NA,NA,NA,NA,NA,NA,NA,NA,NA,NA,NA,NA,NA,NA,NA,NA,NA,NA,NA
2cdda,shallow,flow.Sequence,2_10_0,NA,NA,completion,9852.824,319224.60000002,319222.073,319238.742,329091.566,329092.70000002,2023-01-31T10:50:35Z,329108.235,Sympathie,mapendano,s,dhamiria,fungamano,maazimio,NA,NA,NA,"c(""distractor1"", ""distractor2"", ""distractor3"")",NA,NA,NA,NA,NA,NA,NA,NA,NA,NA,NA,NA,NA,NA,NA,NA,NA,NA,NA
2cdda,task,flow.Sequence,2_10,NA,NA,completion,9852.824,319224.60000002,319222.073,319238.742,329091.566,329092.90000001,2023-01-31T10:50:35Z,329108.235,Sympathie,mapendano,s,dhamiria,fungamano,maazimio,NA,NA,NA,"c(""distractor1"", ""distractor2"", ""distractor3"")",NA,NA,NA,NA,NA,NA,NA,NA,NA,NA,NA,NA,NA,NA,NA,NA,NA,NA,NA
2cdda,Shallow Question,html.Page,2_11_0_0,NA,NA,form submission,12425.065000012,329093,329091.566,329108.235,341533.30000001,341533.5,2023-01-31T10:50:48Z,341547.098,Zuwachs,nyongeza,s,matilaba,udhibiti,hudhurio,nyongeza,NA,NA,"c(""distractor1"", ""distractor2"", ""distractor3"")",NA,NA,NA,NA,NA,NA,NA,NA,NA,NA,NA,NA,NA,NA,NA,NA,NA,NA,NA
2cdda,Save data screen,canvas.Screen,2_11_0_1,NA,NA,timeout,500.07000000001,341534.80000001,341530.429,341547.098,342030.499,342032,2023-01-31T10:50:48Z,342047.168,Zuwachs,nyongeza,s,matilaba,udhibiti,hudhurio,NA,NA,1,"c(""distractor1"", ""distractor2"", ""distractor3"")",NA,NA,NA,NA,NA,NA,NA,NA,NA,NA,NA,NA,NA,NA,NA,NA,NA,NA,NA
2cdda,shallow,flow.Sequence,2_11_0,NA,NA,completion,12922.264,329093,329091.566,329108.235,342030.499,342032.10000002,2023-01-31T10:50:48Z,342047.168,Zuwachs,nyongeza,s,matilaba,udhibiti,hudhurio,NA,NA,NA,"c(""distractor1"", ""distractor2"", ""distractor3"")",NA,NA,NA,NA,NA,NA,NA,NA,NA,NA,NA,NA,NA,NA,NA,NA,NA,NA,NA
2cdda,task,flow.Sequence,2_11,NA,NA,completion,12922.264,329092.90000001,329091.566,329108.235,342030.499,342032.20000002,2023-01-31T10:50:48Z,342047.168,Zuwachs,nyongeza,s,matilaba,udhibiti,hudhurio,NA,NA,NA,"c(""distractor1"", ""distractor2"", ""distractor3"")",NA,NA,NA,NA,NA,NA,NA,NA,NA,NA,NA,NA,NA,NA,NA,NA,NA,NA,NA
2cdda,Shallow Question,html.Page,2_12_0_0,NA,NA,form submission,6717.4320000238,342032.30000001,342030.499,342047.168,348764.60000002,348764.80000001,2023-01-31T10:50:55Z,348764.775,Zufall,kikuti,s,kukosekana,uchoraji,leseni,kikuti,NA,NA,"c(""distractor1"", ""distractor2"", ""distractor3"")",NA,NA,NA,NA,NA,NA,NA,NA,NA,NA,NA,NA,NA,NA,NA,NA,NA,NA,NA
2cdda,Save data screen,canvas.Screen,2_12_0_1,NA,NA,timeout,500.06999999995,348766.20000002,348748.106,348764.775,349248.176,349249,2023-01-31T10:50:55Z,349264.845,Zufall,kikuti,s,kukosekana,uchoraji,leseni,NA,NA,1,"c(""distractor1"", ""distractor2"", ""distractor3"")",NA,NA,NA,NA,NA,NA,NA,NA,NA,NA,NA,NA,NA,NA,NA,NA,NA,NA,NA
2cdda,shallow,flow.Sequence,2_12_0,NA,NA,completion,7201.008,342032.20000002,342030.499,342047.168,349248.176,349249.20000002,2023-01-31T10:50:55Z,349264.845,Zufall,kikuti,s,kukosekana,uchoraji,leseni,NA,NA,NA,"c(""distractor1"", ""distractor2"", ""distractor3"")",NA,NA,NA,NA,NA,NA,NA,NA,NA,NA,NA,NA,NA,NA,NA,NA,NA,NA,NA
2cdda,task,flow.Sequence,2_12,NA,NA,completion,7201.008,342032.20000002,342030.499,342047.168,349248.176,349249.40000001,2023-01-31T10:50:55Z,349264.845,Zufall,kikuti,s,kukosekana,uchoraji,leseni,NA,NA,NA,"c(""distractor1"", ""distractor2"", ""distractor3"")",NA,NA,NA,NA,NA,NA,NA,NA,NA,NA,NA,NA,NA,NA,NA,NA,NA,NA,NA
2cdda,Shallow Question,html.Page,2_13_0_0,NA,NA,form submission,2923.655,349249.5,349248.176,349264.845,352188.5,352188.70000002,2023-01-31T10:50:58Z,352199.499,Schönheit,kirembo,s,mahojiano,msisimko,jitihadi,kirembo,NA,NA,"c(""distractor1"", ""distractor2"", ""distractor3"")",NA,NA,NA,NA,NA,NA,NA,NA,NA,NA,NA,NA,NA,NA,NA,NA,NA,NA,NA
2cdda,Save data screen,canvas.Screen,2_13_0_1,NA,NA,timeout,500.07000000001,352189.90000001,352182.83,352199.499,352682.9,352683.90000001,2023-01-31T10:50:59Z,352699.569,Schönheit,kirembo,s,mahojiano,msisimko,jitihadi,NA,NA,1,"c(""distractor1"", ""distractor2"", ""distractor3"")",NA,NA,NA,NA,NA,NA,NA,NA,NA,NA,NA,NA,NA,NA,NA,NA,NA,NA,NA
2cdda,shallow,flow.Sequence,2_13_0,NA,NA,completion,3418.0550000001,349249.5,349248.176,349264.845,352682.9,352684,2023-01-31T10:50:59Z,352699.569,Schönheit,kirembo,s,mahojiano,msisimko,jitihadi,NA,NA,NA,"c(""distractor1"", ""distractor2"", ""distractor3"")",NA,NA,NA,NA,NA,NA,NA,NA,NA,NA,NA,NA,NA,NA,NA,NA,NA,NA,NA
2cdda,task,flow.Sequence,2_13,NA,NA,completion,3418.0550000001,349249.40000001,349248.176,349264.845,352682.9,352684.10000002,2023-01-31T10:50:59Z,352699.569,Schönheit,kirembo,s,mahojiano,msisimko,jitihadi,NA,NA,NA,"c(""distractor1"", ""distractor2"", ""distractor3"")",NA,NA,NA,NA,NA,NA,NA,NA,NA,NA,NA,NA,NA,NA,NA,NA,NA,NA,NA
2cdda,Shallow Question,html.Page,2_14_0_0,NA,NA,form submission,3320.931,352684.10000002,352682.9,352699.569,356020.5,356020.70000002,2023-01-31T10:51:02Z,356033.369,Polizist,msongora,d,simanzi,mandhari,nidhamu,msongora,NA,NA,"c(""distractor1"", ""distractor2"", ""distractor3"")",NA,NA,NA,NA,NA,NA,NA,NA,NA,NA,NA,NA,NA,NA,NA,NA,NA,NA,NA
2cdda,Save data screen,canvas.Screen,2_14_0_1,NA,NA,timeout,500.07000000001,356022,356016.7,356033.369,356516.77,356518.10000002,2023-01-31T10:51:03Z,356533.439,Polizist,msongora,d,simanzi,mandhari,nidhamu,NA,NA,1,"c(""distractor1"", ""distractor2"", ""distractor3"")",NA,NA,NA,NA,NA,NA,NA,NA,NA,NA,NA,NA,NA,NA,NA,NA,NA,NA,NA
2cdda,shallow,flow.Sequence,2_14_0,NA,NA,completion,3817.201,352684.10000002,352682.9,352699.569,356516.77,356518.30000001,2023-01-31T10:51:03Z,356533.439,Polizist,msongora,d,simanzi,mandhari,nidhamu,NA,NA,NA,"c(""distractor1"", ""distractor2"", ""distractor3"")",NA,NA,NA,NA,NA,NA,NA,NA,NA,NA,NA,NA,NA,NA,NA,NA,NA,NA,NA
2cdda,task,flow.Sequence,2_14,NA,NA,completion,3817.201,352684.10000002,352682.9,352699.569,356516.77,356518.40000001,2023-01-31T10:51:03Z,356533.439,Polizist,msongora,d,simanzi,mandhari,nidhamu,NA,NA,NA,"c(""distractor1"", ""distractor2"", ""distractor3"")",NA,NA,NA,NA,NA,NA,NA,NA,NA,NA,NA,NA,NA,NA,NA,NA,NA,NA,NA
2cdda,Shallow Question,html.Page,2_15_0_0,NA,NA,form submission,5111.2610000179,356518.5,356516.77,356533.439,361644.70000002,361644.90000001,2023-01-31T10:51:08Z,361650.822,Gelegenheit,wakati,d,mchanganyiko,kipaumbele,kushuku,wakati,NA,NA,"c(""distractor1"", ""distractor2"", ""distractor3"")",NA,NA,NA,NA,NA,NA,NA,NA,NA,NA,NA,NA,NA,NA,NA,NA,NA,NA,NA
2cdda,Save data screen,canvas.Screen,2_15_0_1,NA,NA,timeout,501.04999999999,361646.20000002,361634.153,361650.822,362135.203,362136.40000001,2023-01-31T10:51:08Z,362151.872,Gelegenheit,wakati,d,mchanganyiko,kipaumbele,kushuku,NA,NA,1,"c(""distractor1"", ""distractor2"", ""distractor3"")",NA,NA,NA,NA,NA,NA,NA,NA,NA,NA,NA,NA,NA,NA,NA,NA,NA,NA,NA
2cdda,shallow,flow.Sequence,2_15_0,NA,NA,completion,5601.764,356518.40000001,356516.77,356533.439,362135.203,362136.5,2023-01-31T10:51:08Z,362151.872,Gelegenheit,wakati,d,mchanganyiko,kipaumbele,kushuku,NA,NA,NA,"c(""distractor1"", ""distractor2"", ""distractor3"")",NA,NA,NA,NA,NA,NA,NA,NA,NA,NA,NA,NA,NA,NA,NA,NA,NA,NA,NA
2cdda,task,flow.Sequence,2_15,NA,NA,completion,5601.764,356518.40000001,356516.77,356533.439,362135.203,362136.60000002,2023-01-31T10:51:08Z,362151.872,Gelegenheit,wakati,d,mchanganyiko,kipaumbele,kushuku,NA,NA,NA,"c(""distractor1"", ""distractor2"", ""distractor3"")",NA,NA,NA,NA,NA,NA,NA,NA,NA,NA,NA,NA,NA,NA,NA,NA,NA,NA,NA
2cdda,retrieval block 2 (multiple choice),flow.Loop,2,NA,NA,completion,107979.382,254141.5,254139.152,254155.821,362135.203,362136.80000001,2023-01-31T10:51:08Z,362151.872,NA,NA,NA,NA,NA,NA,NA,NA,NA,"c(""distractor1"", ""distractor2"", ""distractor3"")",NA,NA,NA,NA,NA,NA,NA,NA,NA,NA,NA,NA,NA,NA,NA,NA,NA,NA,NA
2cdda,End,canvas.Screen,3,NA,keypress(Space),response,1306.4280000119,362136.80000001,362135.203,362151.872,363458.30000001,363460.60000002,2023-01-31T10:51:10Z,363468.723,NA,NA,NA,NA,NA,NA,NA,NA,NA,NULL,NA,NA,NA,NA,NA,NA,NA,NA,NA,NA,NA,NA,NA,NA,NA,NA,NA,NA,NA
2cdda,root,flow.Sequence,NA,NA,NA,completion,362853.27600001,586.60000002384,588.355,605.024,363458.30000001,363460.90000001,2023-01-31T10:51:10Z,363468.723,NA,NA,NA,NA,NA,NA,NA,NA,NA,NULL,NA,NA,NA,NA,NA,NA,NA,NA,NA,NA,NA,NA,NA,NA,NA,NA,NA,NA,NA
