observation,sender,sender_type,sender_id,response,response_action,ended_on,duration,time_run,time_render,time_show,time_end,time_commit,timestamp,time_switch,distractors,german,swahili,enc,distractor1,distractor2,distractor3,response_2,x,correct,x_2,url_vp,url_sess,meta_labjs_version,meta_location,meta_user_agent,meta_platform,meta_language,meta_locale,meta_time_zone,meta_timezone_offset,meta_screen_width,meta_screen_height,meta_scroll_width,meta_scroll_height,meta_window_inner_width,meta_window_inner_height,meta_device_pixel_ratio,meta_labjs_build_flavor,meta_labjs_build_commit
f7fe7,Introduction general,canvas.Screen,0,weiter,keypress(q),response,71649.26,295,291.08,307.74,71957,71973,2023-07-10T09:15:53Z,71974.66,NULL,NA,NA,NA,NA,NA,NA,NA,NA,NA,NA,175,1,20.2.4,https://neurocog.fernuni.ch/studies/vweber/sliechti/encoding_immediate/index.html?vp=175&sess=1,Mozilla/5.0 (Windows NT 10.0; Win64; x64; rv:109.0) Gecko/20100101 Firefox/115.0,Win32,de,de-CH,Europe/Zurich,-120,1280,720,1280,587,1280,587,1.5,production,f5b4a49f956347addd546a832a3327688c2c0fef
f7fe7,Introduction practice,canvas.Screen,1_0,NA,keypress(Space),response,9341.34,71974,71974.08,71974.66,81316,81325,2023-07-10T09:16:02Z,81331.44,NULL,NA,NA,NA,NA,NA,NA,NA,NA,NA,NA,NA,NA,NA,NA,NA,NA,NA,NA,NA,NA,NA,NA,NA,NA,NA,NA,NA,NA,NA
f7fe7,deep,flow.Sequence,1_1_0_0,NA,NA,skipped,NA,81329,NA,NA,81316,81330,2023-07-10T09:16:02Z,81331.44,"c(""distractor1"", ""distractor2"", ""distractor3"")",Kritik,lawama,s,dereva,nafasi,mawazo,NA,NA,NA,NA,NA,NA,NA,NA,NA,NA,NA,NA,NA,NA,NA,NA,NA,NA,NA,NA,NA,NA,NA
f7fe7,Shallow Question,html.Page,1_1_0_1_0,NA,NA,form submission,13039.56,81331,81331,81331.44,94371,94372,2023-07-10T09:16:15Z,94378.96,"c(""distractor1"", ""distractor2"", ""distractor3"")",Kritik,lawama,s,dereva,nafasi,mawazo,lawama,NA,NA,NA,NA,NA,NA,NA,NA,NA,NA,NA,NA,NA,NA,NA,NA,NA,NA,NA,NA,NA,NA
f7fe7,"""Richtig""-Screen",canvas.Screen,1_1_0_1_1,NA,NA,timeout,4999.36,94377,94334.72,94378.96,99361.76,99364,2023-07-10T09:16:20Z,99378.32,"c(""distractor1"", ""distractor2"", ""distractor3"")",Kritik,lawama,s,dereva,nafasi,mawazo,NA,NA,1,NA,NA,NA,NA,NA,NA,NA,NA,NA,NA,NA,NA,NA,NA,NA,NA,NA,NA,NA,NA
f7fe7,"""Falsch""-Screen",canvas.Screen,1_1_0_1_2,NA,NA,skipped,NA,99373,NA,NA,99361.76,99374,2023-07-10T09:16:20Z,99378.32,"c(""distractor1"", ""distractor2"", ""distractor3"")",Kritik,lawama,s,dereva,nafasi,mawazo,NA,NA,NA,NA,NA,NA,NA,NA,NA,NA,NA,NA,NA,NA,NA,NA,NA,NA,NA,NA,NA,NA,NA
f7fe7,shallow,flow.Sequence,1_1_0_1,NA,NA,completion,18030.32,81331,81331,81331.44,99361.76,99374,2023-07-10T09:16:20Z,99378.32,"c(""distractor1"", ""distractor2"", ""distractor3"")",Kritik,lawama,s,dereva,nafasi,mawazo,NA,NA,NA,NA,NA,NA,NA,NA,NA,NA,NA,NA,NA,NA,NA,NA,NA,NA,NA,NA,NA,NA,NA
f7fe7,task,flow.Sequence,1_1_0,NA,NA,completion,18030.32,81329,81331,81331.44,99361.76,99374,2023-07-10T09:16:20Z,99378.32,"c(""distractor1"", ""distractor2"", ""distractor3"")",Kritik,lawama,s,dereva,nafasi,mawazo,NA,NA,NA,NA,NA,NA,NA,NA,NA,NA,NA,NA,NA,NA,NA,NA,NA,NA,NA,NA,NA,NA,NA
f7fe7,Deep Question,html.Page,1_1_1_0_0,NA,NA,form submission,8971.68,99375,99361.76,99378.32,108350,108350,2023-07-10T09:16:29Z,108360.88,"c(""distractor1"", ""distractor2"", ""distractor3"")",Gesundheit,salama,d,NA,NA,NA,kalana,NA,NA,NA,NA,NA,NA,NA,NA,NA,NA,NA,NA,NA,NA,NA,NA,NA,NA,NA,NA,NA,NA
f7fe7,"""Richtig""-Screen",canvas.Screen,1_1_1_0_1,NA,NA,skipped,NA,108351,NA,NA,108350,108351,2023-07-10T09:16:29Z,108360.88,"c(""distractor1"", ""distractor2"", ""distractor3"")",Gesundheit,salama,d,NA,NA,NA,NA,NA,NA,NA,NA,NA,NA,NA,NA,NA,NA,NA,NA,NA,NA,NA,NA,NA,NA,NA,NA,NA,NA
f7fe7,"""Falsch""-Screen",canvas.Screen,1_1_1_0_2,NA,NA,timeout,4999.04,108353,108347.8,108360.88,113343.26,113345,2023-07-10T09:16:34Z,113359.92,"c(""distractor1"", ""distractor2"", ""distractor3"")",Gesundheit,salama,d,NA,NA,NA,NA,NA,0,NA,NA,NA,NA,NA,NA,NA,NA,NA,NA,NA,NA,NA,NA,NA,NA,NA,NA,NA,NA
f7fe7,deep,flow.Sequence,1_1_1_0,NA,NA,completion,13964.94,99375,99361.76,99378.32,113343.26,113346,2023-07-10T09:16:34Z,113359.92,"c(""distractor1"", ""distractor2"", ""distractor3"")",Gesundheit,salama,d,NA,NA,NA,NA,NA,NA,NA,NA,NA,NA,NA,NA,NA,NA,NA,NA,NA,NA,NA,NA,NA,NA,NA,NA,NA,NA
f7fe7,shallow,flow.Sequence,1_1_1_1,NA,NA,skipped,NA,113346,NA,NA,113343.26,113347,2023-07-10T09:16:34Z,113359.92,"c(""distractor1"", ""distractor2"", ""distractor3"")",Gesundheit,salama,d,NA,NA,NA,NA,NA,NA,NA,NA,NA,NA,NA,NA,NA,NA,NA,NA,NA,NA,NA,NA,NA,NA,NA,NA,NA,NA
f7fe7,task,flow.Sequence,1_1_1,NA,NA,completion,13964.94,99374,99361.76,99378.32,113343.26,113348,2023-07-10T09:16:34Z,113359.92,"c(""distractor1"", ""distractor2"", ""distractor3"")",Gesundheit,salama,d,NA,NA,NA,NA,NA,NA,NA,NA,NA,NA,NA,NA,NA,NA,NA,NA,NA,NA,NA,NA,NA,NA,NA,NA,NA,NA
f7fe7,deep,flow.Sequence,1_1_2_0,NA,NA,skipped,NA,113348,NA,NA,113343.26,113348,2023-07-10T09:16:34Z,113359.92,"c(""distractor1"", ""distractor2"", ""distractor3"")",Rückhalt,msaada,s,muhula,auwali,kiwimbe,NA,NA,NA,NA,NA,NA,NA,NA,NA,NA,NA,NA,NA,NA,NA,NA,NA,NA,NA,NA,NA,NA,NA
f7fe7,Shallow Question,html.Page,1_1_2_1_0,NA,NA,form submission,41983.08,113349,113343.26,113359.92,155343,155344,2023-07-10T09:17:16Z,155354.42,"c(""distractor1"", ""distractor2"", ""distractor3"")",Rückhalt,msaada,s,muhula,auwali,kiwimbe,msaada,NA,NA,NA,NA,NA,NA,NA,NA,NA,NA,NA,NA,NA,NA,NA,NA,NA,NA,NA,NA,NA,NA
f7fe7,"""Richtig""-Screen",canvas.Screen,1_1_2_1_1,NA,NA,timeout,4999.36,155351,155337.84,155354.42,160337.1,160339,2023-07-10T09:17:21Z,160353.78,"c(""distractor1"", ""distractor2"", ""distractor3"")",Rückhalt,msaada,s,muhula,auwali,kiwimbe,NA,NA,1,NA,NA,NA,NA,NA,NA,NA,NA,NA,NA,NA,NA,NA,NA,NA,NA,NA,NA,NA,NA
f7fe7,"""Falsch""-Screen",canvas.Screen,1_1_2_1_2,NA,NA,skipped,NA,160348,NA,NA,160337.1,160348,2023-07-10T09:17:21Z,160353.78,"c(""distractor1"", ""distractor2"", ""distractor3"")",Rückhalt,msaada,s,muhula,auwali,kiwimbe,NA,NA,NA,NA,NA,NA,NA,NA,NA,NA,NA,NA,NA,NA,NA,NA,NA,NA,NA,NA,NA,NA,NA
f7fe7,shallow,flow.Sequence,1_1_2_1,NA,NA,completion,46977.18,113349,113343.26,113359.92,160337.1,160349,2023-07-10T09:17:21Z,160353.78,"c(""distractor1"", ""distractor2"", ""distractor3"")",Rückhalt,msaada,s,muhula,auwali,kiwimbe,NA,NA,NA,NA,NA,NA,NA,NA,NA,NA,NA,NA,NA,NA,NA,NA,NA,NA,NA,NA,NA,NA,NA
f7fe7,task,flow.Sequence,1_1_2,NA,NA,completion,46977.18,113348,113343.26,113359.92,160337.1,160350,2023-07-10T09:17:21Z,160353.78,"c(""distractor1"", ""distractor2"", ""distractor3"")",Rückhalt,msaada,s,muhula,auwali,kiwimbe,NA,NA,NA,NA,NA,NA,NA,NA,NA,NA,NA,NA,NA,NA,NA,NA,NA,NA,NA,NA,NA,NA,NA
f7fe7,deep,flow.Sequence,1_1_3_0,NA,NA,skipped,NA,160351,NA,NA,160337.1,160351,2023-07-10T09:17:21Z,160353.78,"c(""distractor1"", ""distractor2"", ""distractor3"")",Gegenwart,hadhara,s,katiba,jokofu,mikopo,NA,NA,NA,NA,NA,NA,NA,NA,NA,NA,NA,NA,NA,NA,NA,NA,NA,NA,NA,NA,NA,NA,NA
f7fe7,Shallow Question,html.Page,1_1_3_1_0,NA,NA,form submission,7871.22,160351,160337.1,160353.78,168225,168225,2023-07-10T09:17:29Z,168236.12,"c(""distractor1"", ""distractor2"", ""distractor3"")",Gegenwart,hadhara,s,katiba,jokofu,mikopo,katiba,NA,NA,NA,NA,NA,NA,NA,NA,NA,NA,NA,NA,NA,NA,NA,NA,NA,NA,NA,NA,NA,NA
f7fe7,"""Richtig""-Screen",canvas.Screen,1_1_3_1_1,NA,NA,skipped,NA,168230,NA,NA,168225,168231,2023-07-10T09:17:29Z,168236.12,"c(""distractor1"", ""distractor2"", ""distractor3"")",Gegenwart,hadhara,s,katiba,jokofu,mikopo,NA,NA,NA,NA,NA,NA,NA,NA,NA,NA,NA,NA,NA,NA,NA,NA,NA,NA,NA,NA,NA,NA,NA
f7fe7,"""Falsch""-Screen",canvas.Screen,1_1_3_1_2,NA,NA,timeout,4999.34,168235,168220.9,168236.12,173218.86,173220,2023-07-10T09:17:34Z,173235.46,"c(""distractor1"", ""distractor2"", ""distractor3"")",Gegenwart,hadhara,s,katiba,jokofu,mikopo,NA,NA,0,NA,NA,NA,NA,NA,NA,NA,NA,NA,NA,NA,NA,NA,NA,NA,NA,NA,NA,NA,NA
f7fe7,shallow,flow.Sequence,1_1_3_1,NA,NA,completion,12865.08,160351,160337.1,160353.78,173218.86,173221,2023-07-10T09:17:34Z,173235.46,"c(""distractor1"", ""distractor2"", ""distractor3"")",Gegenwart,hadhara,s,katiba,jokofu,mikopo,NA,NA,NA,NA,NA,NA,NA,NA,NA,NA,NA,NA,NA,NA,NA,NA,NA,NA,NA,NA,NA,NA,NA
f7fe7,task,flow.Sequence,1_1_3,NA,NA,completion,12865.08,160351,160337.1,160353.78,173218.86,173221,2023-07-10T09:17:34Z,173235.46,"c(""distractor1"", ""distractor2"", ""distractor3"")",Gegenwart,hadhara,s,katiba,jokofu,mikopo,NA,NA,NA,NA,NA,NA,NA,NA,NA,NA,NA,NA,NA,NA,NA,NA,NA,NA,NA,NA,NA,NA,NA
f7fe7,Deep Question,html.Page,1_1_4_0_0,NA,NA,form submission,9949.54,173221,173218.86,173235.46,183185,183186,2023-07-10T09:17:44Z,183184.18,"c(""distractor1"", ""distractor2"", ""distractor3"")",Qualität,mtindo,d,NA,NA,NA,kasara,NA,NA,NA,NA,NA,NA,NA,NA,NA,NA,NA,NA,NA,NA,NA,NA,NA,NA,NA,NA,NA,NA
f7fe7,"""Richtig""-Screen",canvas.Screen,1_1_4_0_1,NA,NA,skipped,NA,183191,NA,NA,183185,183191,2023-07-10T09:17:44Z,183184.18,"c(""distractor1"", ""distractor2"", ""distractor3"")",Qualität,mtindo,d,NA,NA,NA,NA,NA,NA,NA,NA,NA,NA,NA,NA,NA,NA,NA,NA,NA,NA,NA,NA,NA,NA,NA,NA,NA,NA
f7fe7,"""Falsch""-Screen",canvas.Screen,1_1_4_0_2,NA,NA,timeout,4999.38,183195,183180.16,183184.18,188166.92,188169,2023-07-10T09:17:49Z,188183.56,"c(""distractor1"", ""distractor2"", ""distractor3"")",Qualität,mtindo,d,NA,NA,NA,NA,NA,0,NA,NA,NA,NA,NA,NA,NA,NA,NA,NA,NA,NA,NA,NA,NA,NA,NA,NA,NA,NA
f7fe7,deep,flow.Sequence,1_1_4_0,NA,NA,completion,14931.46,173221,173218.86,173235.46,188166.92,188169,2023-07-10T09:17:49Z,188183.56,"c(""distractor1"", ""distractor2"", ""distractor3"")",Qualität,mtindo,d,NA,NA,NA,NA,NA,NA,NA,NA,NA,NA,NA,NA,NA,NA,NA,NA,NA,NA,NA,NA,NA,NA,NA,NA,NA,NA
f7fe7,shallow,flow.Sequence,1_1_4_1,NA,NA,skipped,NA,188170,NA,NA,188166.92,188170,2023-07-10T09:17:49Z,188183.56,"c(""distractor1"", ""distractor2"", ""distractor3"")",Qualität,mtindo,d,NA,NA,NA,NA,NA,NA,NA,NA,NA,NA,NA,NA,NA,NA,NA,NA,NA,NA,NA,NA,NA,NA,NA,NA,NA,NA
f7fe7,task,flow.Sequence,1_1_4,NA,NA,completion,14931.46,173221,173218.86,173235.46,188166.92,188171,2023-07-10T09:17:49Z,188183.56,"c(""distractor1"", ""distractor2"", ""distractor3"")",Qualität,mtindo,d,NA,NA,NA,NA,NA,NA,NA,NA,NA,NA,NA,NA,NA,NA,NA,NA,NA,NA,NA,NA,NA,NA,NA,NA,NA,NA
f7fe7,Deep Question,html.Page,1_1_5_0_0,NA,NA,form submission,10043.44,188171,188166.92,188183.56,198227,198228,2023-07-10T09:17:59Z,198232.12,"c(""distractor1"", ""distractor2"", ""distractor3"")",Schatten,kivuli,d,NA,NA,NA,sama,NA,NA,NA,NA,NA,NA,NA,NA,NA,NA,NA,NA,NA,NA,NA,NA,NA,NA,NA,NA,NA,NA
f7fe7,"""Richtig""-Screen",canvas.Screen,1_1_5_0_1,NA,NA,skipped,NA,198232,NA,NA,198227,198232,2023-07-10T09:17:59Z,198232.12,"c(""distractor1"", ""distractor2"", ""distractor3"")",Schatten,kivuli,d,NA,NA,NA,NA,NA,NA,NA,NA,NA,NA,NA,NA,NA,NA,NA,NA,NA,NA,NA,NA,NA,NA,NA,NA,NA,NA
f7fe7,"""Falsch""-Screen",canvas.Screen,1_1_5_0_2,NA,NA,timeout,4999.44,198237,198221.36,198232.12,203214.9,203215,2023-07-10T09:18:04Z,203231.56,"c(""distractor1"", ""distractor2"", ""distractor3"")",Schatten,kivuli,d,NA,NA,NA,NA,NA,0,NA,NA,NA,NA,NA,NA,NA,NA,NA,NA,NA,NA,NA,NA,NA,NA,NA,NA,NA,NA
f7fe7,deep,flow.Sequence,1_1_5_0,NA,NA,completion,15031.34,188171,188166.92,188183.56,203214.9,203215,2023-07-10T09:18:04Z,203231.56,"c(""distractor1"", ""distractor2"", ""distractor3"")",Schatten,kivuli,d,NA,NA,NA,NA,NA,NA,NA,NA,NA,NA,NA,NA,NA,NA,NA,NA,NA,NA,NA,NA,NA,NA,NA,NA,NA,NA
f7fe7,shallow,flow.Sequence,1_1_5_1,NA,NA,skipped,NA,203215,NA,NA,203214.9,203215,2023-07-10T09:18:04Z,203231.56,"c(""distractor1"", ""distractor2"", ""distractor3"")",Schatten,kivuli,d,NA,NA,NA,NA,NA,NA,NA,NA,NA,NA,NA,NA,NA,NA,NA,NA,NA,NA,NA,NA,NA,NA,NA,NA,NA,NA
f7fe7,task,flow.Sequence,1_1_5,NA,NA,completion,15031.34,188171,188166.92,188183.56,203214.9,203216,2023-07-10T09:18:04Z,203231.56,"c(""distractor1"", ""distractor2"", ""distractor3"")",Schatten,kivuli,d,NA,NA,NA,NA,NA,NA,NA,NA,NA,NA,NA,NA,NA,NA,NA,NA,NA,NA,NA,NA,NA,NA,NA,NA,NA,NA
f7fe7,block,flow.Loop,1_1,NA,NA,completion,121883.46,81328,81331,81331.44,203214.9,203216,2023-07-10T09:18:04Z,203231.56,"c(""distractor1"", ""distractor2"", ""distractor3"")",NA,NA,NA,NA,NA,NA,NA,NA,NA,NA,NA,NA,NA,NA,NA,NA,NA,NA,NA,NA,NA,NA,NA,NA,NA,NA,NA,NA,NA
f7fe7,Practice,flow.Sequence,1,NA,NA,completion,131240.24,71974,71974.08,71974.66,203214.9,203216,2023-07-10T09:18:04Z,203231.56,NULL,NA,NA,NA,NA,NA,NA,NA,NA,NA,NA,NA,NA,NA,NA,NA,NA,NA,NA,NA,NA,NA,NA,NA,NA,NA,NA,NA,NA,NA
f7fe7,Experiment start,canvas.Screen,2,weiter,keypress(q),response,21132.44,203216,203214.9,203231.56,224364,224384,2023-07-10T09:18:25Z,224483.16,NULL,NA,NA,NA,NA,NA,NA,NA,NA,NA,NA,NA,NA,NA,NA,NA,NA,NA,NA,NA,NA,NA,NA,NA,NA,NA,NA,NA,NA,NA
f7fe7,Deep Question,html.Page,3_0_0_0_0_0_0,NA,NA,form submission,15603.84,224482,224482.88,224483.16,240087,240088,2023-07-10T09:18:41Z,240093.5,NULL,Flexibilität,kubadilika,d,NA,NA,NA,felisa,NA,NA,0,NA,NA,NA,NA,NA,NA,NA,NA,NA,NA,NA,NA,NA,NA,NA,NA,NA,NA,NA
f7fe7,"""Richtig""-Screen",canvas.Screen,3_0_0_0_0_0_1,NA,NA,skipped,NA,240091,NA,NA,240087,240091,2023-07-10T09:18:41Z,240093.5,NULL,Flexibilität,kubadilika,d,NA,NA,NA,NA,sdf,NA,0,NA,NA,NA,NA,NA,NA,NA,NA,NA,NA,NA,NA,NA,NA,NA,NA,NA,NA,NA
f7fe7,"""Falsch""-Screen",canvas.Screen,3_0_0_0_0_0_2,NA,NA,timeout,4999.42,240095,240082.78,240093.5,245076.28,245084,2023-07-10T09:18:46Z,245092.92,NULL,Flexibilität,kubadilika,d,NA,NA,NA,NA,sdf,0,0,NA,NA,NA,NA,NA,NA,NA,NA,NA,NA,NA,NA,NA,NA,NA,NA,NA,NA,NA
f7fe7,deep,flow.Sequence,3_0_0_0_0_0,NA,NA,completion,20593.12,224482,224482.88,224483.16,245076.28,245088,2023-07-10T09:18:46Z,245092.92,NULL,Flexibilität,kubadilika,d,NA,NA,NA,NA,sdf,NA,0,NA,NA,NA,NA,NA,NA,NA,NA,NA,NA,NA,NA,NA,NA,NA,NA,NA,NA,NA
f7fe7,shallow,flow.Sequence,3_0_0_0_0_1,NA,NA,skipped,NA,245089,NA,NA,245076.28,245089,2023-07-10T09:18:46Z,245092.92,NULL,Flexibilität,kubadilika,d,NA,NA,NA,NA,sdf,NA,0,NA,NA,NA,NA,NA,NA,NA,NA,NA,NA,NA,NA,NA,NA,NA,NA,NA,NA,NA
f7fe7,task,flow.Sequence,3_0_0_0_0,NA,NA,completion,20593.12,224482,224482.88,224483.16,245076.28,245089,2023-07-10T09:18:46Z,245092.92,NULL,Flexibilität,kubadilika,d,NA,NA,NA,NA,sdf,NA,0,NA,NA,NA,NA,NA,NA,NA,NA,NA,NA,NA,NA,NA,NA,NA,NA,NA,NA,NA
f7fe7,Deep Question,html.Page,3_0_0_0_1_0_0,NA,NA,form submission,6728.08,245090,245076.28,245092.92,251821,251821,2023-07-10T09:18:53Z,251825.32,NULL,Kanzler,diwani,d,NA,NA,NA,sama,NA,NA,0,NA,NA,NA,NA,NA,NA,NA,NA,NA,NA,NA,NA,NA,NA,NA,NA,NA,NA,NA
f7fe7,"""Richtig""-Screen",canvas.Screen,3_0_0_0_1_0_1,NA,NA,skipped,NA,251826,NA,NA,251821,251826,2023-07-10T09:18:53Z,251825.32,NULL,Kanzler,diwani,d,NA,NA,NA,NA,sdf,NA,0,NA,NA,NA,NA,NA,NA,NA,NA,NA,NA,NA,NA,NA,NA,NA,NA,NA,NA,NA
f7fe7,"""Falsch""-Screen",canvas.Screen,3_0_0_0_1_0_2,NA,NA,timeout,4999.38,251827,251818.62,251825.32,256808.04,256809,2023-07-10T09:18:57Z,256824.7,NULL,Kanzler,diwani,d,NA,NA,NA,NA,sdf,0,0,NA,NA,NA,NA,NA,NA,NA,NA,NA,NA,NA,NA,NA,NA,NA,NA,NA,NA,NA
f7fe7,deep,flow.Sequence,3_0_0_0_1_0,NA,NA,completion,11715.12,245090,245076.28,245092.92,256808.04,256810,2023-07-10T09:18:57Z,256824.7,NULL,Kanzler,diwani,d,NA,NA,NA,NA,sdf,NA,0,NA,NA,NA,NA,NA,NA,NA,NA,NA,NA,NA,NA,NA,NA,NA,NA,NA,NA,NA
f7fe7,shallow,flow.Sequence,3_0_0_0_1_1,NA,NA,skipped,NA,256811,NA,NA,256808.04,256811,2023-07-10T09:18:58Z,256824.7,NULL,Kanzler,diwani,d,NA,NA,NA,NA,sdf,NA,0,NA,NA,NA,NA,NA,NA,NA,NA,NA,NA,NA,NA,NA,NA,NA,NA,NA,NA,NA
f7fe7,task,flow.Sequence,3_0_0_0_1,NA,NA,completion,11715.12,245089,245076.28,245092.92,256808.04,256812,2023-07-10T09:18:58Z,256824.7,NULL,Kanzler,diwani,d,NA,NA,NA,NA,sdf,NA,0,NA,NA,NA,NA,NA,NA,NA,NA,NA,NA,NA,NA,NA,NA,NA,NA,NA,NA,NA
f7fe7,deep,flow.Sequence,3_0_0_0_2_0,NA,NA,skipped,NA,256813,NA,NA,256808.04,256813,2023-07-10T09:18:58Z,256824.7,NULL,Sänger,mwimbaji,s,msichana,shughuli,mshirika,NA,sdf,NA,0,NA,NA,NA,NA,NA,NA,NA,NA,NA,NA,NA,NA,NA,NA,NA,NA,NA,NA,NA
f7fe7,Shallow Question,html.Page,3_0_0_0_2_1_0,NA,NA,form submission,16093.3,256815,256808.04,256824.7,272918,272919,2023-07-10T09:19:14Z,272922.6,NULL,Sänger,mwimbaji,s,msichana,shughuli,mshirika,mshirika,NA,NA,0,NA,NA,NA,NA,NA,NA,NA,NA,NA,NA,NA,NA,NA,NA,NA,NA,NA,NA,NA
f7fe7,"""Richtig""-Screen",canvas.Screen,3_0_0_0_2_1_1,NA,NA,skipped,NA,272926,NA,NA,272918,272926,2023-07-10T09:19:14Z,272922.6,NULL,Sänger,mwimbaji,s,msichana,shughuli,mshirika,NA,sdf,NA,0,NA,NA,NA,NA,NA,NA,NA,NA,NA,NA,NA,NA,NA,NA,NA,NA,NA,NA,NA
f7fe7,"""Falsch""-Screen",canvas.Screen,3_0_0_0_2_1_2,NA,NA,timeout,4999.34,272931,272912.68,272922.6,277905.28,277905,2023-07-10T09:19:19Z,277921.94,NULL,Sänger,mwimbaji,s,msichana,shughuli,mshirika,NA,sdf,0,0,NA,NA,NA,NA,NA,NA,NA,NA,NA,NA,NA,NA,NA,NA,NA,NA,NA,NA,NA
f7fe7,shallow,flow.Sequence,3_0_0_0_2_1,NA,NA,completion,21080.58,256814,256808.04,256824.7,277905.28,277906,2023-07-10T09:19:19Z,277921.94,NULL,Sänger,mwimbaji,s,msichana,shughuli,mshirika,NA,sdf,NA,0,NA,NA,NA,NA,NA,NA,NA,NA,NA,NA,NA,NA,NA,NA,NA,NA,NA,NA,NA
f7fe7,task,flow.Sequence,3_0_0_0_2,NA,NA,completion,21080.58,256812,256808.04,256824.7,277905.28,277906,2023-07-10T09:19:19Z,277921.94,NULL,Sänger,mwimbaji,s,msichana,shughuli,mshirika,NA,sdf,NA,0,NA,NA,NA,NA,NA,NA,NA,NA,NA,NA,NA,NA,NA,NA,NA,NA,NA,NA,NA
f7fe7,Deep Question,html.Page,3_0_0_0_3_0_0,NA,NA,form submission,10280.06,277906,277905.28,277921.94,288202,288204,2023-07-10T09:19:29Z,288220.62,NULL,Atmosphäre,angahewa,d,NA,NA,NA,mibaji,NA,NA,0,NA,NA,NA,NA,NA,NA,NA,NA,NA,NA,NA,NA,NA,NA,NA,NA,NA,NA,NA
f7fe7,"""Richtig""-Screen",canvas.Screen,3_0_0_0_3_0_1,NA,NA,skipped,NA,288211,NA,NA,288202,288211,2023-07-10T09:19:29Z,288220.62,NULL,Atmosphäre,angahewa,d,NA,NA,NA,NA,sdf,NA,0,NA,NA,NA,NA,NA,NA,NA,NA,NA,NA,NA,NA,NA,NA,NA,NA,NA,NA,NA
f7fe7,"""Falsch""-Screen",canvas.Screen,3_0_0_0_3_0_2,NA,NA,timeout,4999.38,288218,288196.38,288220.62,293203.34,293205,2023-07-10T09:19:34Z,293220,NULL,Atmosphäre,angahewa,d,NA,NA,NA,NA,sdf,0,0,NA,NA,NA,NA,NA,NA,NA,NA,NA,NA,NA,NA,NA,NA,NA,NA,NA,NA,NA
f7fe7,deep,flow.Sequence,3_0_0_0_3_0,NA,NA,completion,15281.4,277906,277905.28,277921.94,293203.34,293206,2023-07-10T09:19:34Z,293220,NULL,Atmosphäre,angahewa,d,NA,NA,NA,NA,sdf,NA,0,NA,NA,NA,NA,NA,NA,NA,NA,NA,NA,NA,NA,NA,NA,NA,NA,NA,NA,NA
f7fe7,shallow,flow.Sequence,3_0_0_0_3_1,NA,NA,skipped,NA,293206,NA,NA,293203.34,293206,2023-07-10T09:19:34Z,293220,NULL,Atmosphäre,angahewa,d,NA,NA,NA,NA,sdf,NA,0,NA,NA,NA,NA,NA,NA,NA,NA,NA,NA,NA,NA,NA,NA,NA,NA,NA,NA,NA
f7fe7,task,flow.Sequence,3_0_0_0_3,NA,NA,completion,15281.4,277906,277905.28,277921.94,293203.34,293206,2023-07-10T09:19:34Z,293220,NULL,Atmosphäre,angahewa,d,NA,NA,NA,NA,sdf,NA,0,NA,NA,NA,NA,NA,NA,NA,NA,NA,NA,NA,NA,NA,NA,NA,NA,NA,NA,NA
f7fe7,deep,flow.Sequence,3_0_0_0_4_0,NA,NA,skipped,NA,293207,NA,NA,293203.34,293207,2023-07-10T09:19:34Z,293220,NULL,Angreifer,mshambulizi,s,kitengo,tasinia,usafirishaji,NA,sdf,NA,0,NA,NA,NA,NA,NA,NA,NA,NA,NA,NA,NA,NA,NA,NA,NA,NA,NA,NA,NA
f7fe7,Shallow Question,html.Page,3_0_0_0_4_1_0,NA,NA,form submission,8917,293207,293203.34,293220,302137,302142,2023-07-10T09:19:43Z,302152.18,NULL,Angreifer,mshambulizi,s,kitengo,tasinia,usafirishaji,usafirishaji,NA,NA,0,NA,NA,NA,NA,NA,NA,NA,NA,NA,NA,NA,NA,NA,NA,NA,NA,NA,NA,NA
f7fe7,"""Richtig""-Screen",canvas.Screen,3_0_0_0_4_1_1,NA,NA,skipped,NA,302154,NA,NA,302137,302154,2023-07-10T09:19:43Z,302152.18,NULL,Angreifer,mshambulizi,s,kitengo,tasinia,usafirishaji,NA,sdf,NA,0,NA,NA,NA,NA,NA,NA,NA,NA,NA,NA,NA,NA,NA,NA,NA,NA,NA,NA,NA
f7fe7,"""Falsch""-Screen",canvas.Screen,3_0_0_0_4_1_2,NA,NA,timeout,4999.34,302157,302126,302152.18,307134.92,307137,2023-07-10T09:19:48Z,307151.52,NULL,Angreifer,mshambulizi,s,kitengo,tasinia,usafirishaji,NA,sdf,0,0,NA,NA,NA,NA,NA,NA,NA,NA,NA,NA,NA,NA,NA,NA,NA,NA,NA,NA,NA
f7fe7,shallow,flow.Sequence,3_0_0_0_4_1,NA,NA,completion,13914.92,293207,293203.34,293220,307134.92,307137,2023-07-10T09:19:48Z,307151.52,NULL,Angreifer,mshambulizi,s,kitengo,tasinia,usafirishaji,NA,sdf,NA,0,NA,NA,NA,NA,NA,NA,NA,NA,NA,NA,NA,NA,NA,NA,NA,NA,NA,NA,NA
f7fe7,task,flow.Sequence,3_0_0_0_4,NA,NA,completion,13914.92,293207,293203.34,293220,307134.92,307138,2023-07-10T09:19:48Z,307151.52,NULL,Angreifer,mshambulizi,s,kitengo,tasinia,usafirishaji,NA,sdf,NA,0,NA,NA,NA,NA,NA,NA,NA,NA,NA,NA,NA,NA,NA,NA,NA,NA,NA,NA,NA
f7fe7,deep,flow.Sequence,3_0_0_0_5_0,NA,NA,skipped,NA,307139,NA,NA,307134.92,307139,2023-07-10T09:19:48Z,307151.52,NULL,Erneuerung,ukarabati,s,ushawishi,ukalifu,unyonyaji,NA,sdf,NA,0,NA,NA,NA,NA,NA,NA,NA,NA,NA,NA,NA,NA,NA,NA,NA,NA,NA,NA,NA
f7fe7,Shallow Question,html.Page,3_0_0_0_5_1_0,NA,NA,form submission,7726.48,307140,307134.92,307151.52,314878,314878,2023-07-10T09:19:56Z,314883.86,NULL,Erneuerung,ukarabati,s,ushawishi,ukalifu,unyonyaji,ukarabati,NA,NA,0,NA,NA,NA,NA,NA,NA,NA,NA,NA,NA,NA,NA,NA,NA,NA,NA,NA,NA,NA
f7fe7,"""Richtig""-Screen",canvas.Screen,3_0_0_0_5_1_1,NA,NA,timeout,4999.36,314885,314872.18,314883.86,319866.58,319868,2023-07-10T09:20:01Z,319883.22,NULL,Erneuerung,ukarabati,s,ushawishi,ukalifu,unyonyaji,NA,sdf,1,0,NA,NA,NA,NA,NA,NA,NA,NA,NA,NA,NA,NA,NA,NA,NA,NA,NA,NA,NA
f7fe7,"""Falsch""-Screen",canvas.Screen,3_0_0_0_5_1_2,NA,NA,skipped,NA,319875,NA,NA,319866.58,319875,2023-07-10T09:20:01Z,319883.22,NULL,Erneuerung,ukarabati,s,ushawishi,ukalifu,unyonyaji,NA,sdf,NA,0,NA,NA,NA,NA,NA,NA,NA,NA,NA,NA,NA,NA,NA,NA,NA,NA,NA,NA,NA
f7fe7,shallow,flow.Sequence,3_0_0_0_5_1,NA,NA,completion,12715.06,307140,307134.92,307151.52,319866.58,319876,2023-07-10T09:20:01Z,319883.22,NULL,Erneuerung,ukarabati,s,ushawishi,ukalifu,unyonyaji,NA,sdf,NA,0,NA,NA,NA,NA,NA,NA,NA,NA,NA,NA,NA,NA,NA,NA,NA,NA,NA,NA,NA
f7fe7,task,flow.Sequence,3_0_0_0_5,NA,NA,completion,12715.06,307138,307134.92,307151.52,319866.58,319877,2023-07-10T09:20:01Z,319883.22,NULL,Erneuerung,ukarabati,s,ushawishi,ukalifu,unyonyaji,NA,sdf,NA,0,NA,NA,NA,NA,NA,NA,NA,NA,NA,NA,NA,NA,NA,NA,NA,NA,NA,NA,NA
f7fe7,Deep Question,html.Page,3_0_0_0_6_0_0,NA,NA,form submission,7245.78,319878,319866.58,319883.22,327129,327129,2023-07-10T09:20:08Z,327132.3,NULL,Abrechnung,uhasibu,d,NA,NA,NA,abakari,NA,NA,0,NA,NA,NA,NA,NA,NA,NA,NA,NA,NA,NA,NA,NA,NA,NA,NA,NA,NA,NA
f7fe7,"""Richtig""-Screen",canvas.Screen,3_0_0_0_6_0_1,NA,NA,skipped,NA,327131,NA,NA,327129,327131,2023-07-10T09:20:08Z,327132.3,NULL,Abrechnung,uhasibu,d,NA,NA,NA,NA,sdf,NA,0,NA,NA,NA,NA,NA,NA,NA,NA,NA,NA,NA,NA,NA,NA,NA,NA,NA,NA,NA
f7fe7,"""Falsch""-Screen",canvas.Screen,3_0_0_0_6_0_2,NA,NA,timeout,4999.36,327135,327126.94,327132.3,332115.02,332117,2023-07-10T09:20:13Z,332131.66,NULL,Abrechnung,uhasibu,d,NA,NA,NA,NA,sdf,0,0,NA,NA,NA,NA,NA,NA,NA,NA,NA,NA,NA,NA,NA,NA,NA,NA,NA,NA,NA
f7fe7,deep,flow.Sequence,3_0_0_0_6_0,NA,NA,completion,12231.8,319878,319866.58,319883.22,332115.02,332117,2023-07-10T09:20:13Z,332131.66,NULL,Abrechnung,uhasibu,d,NA,NA,NA,NA,sdf,NA,0,NA,NA,NA,NA,NA,NA,NA,NA,NA,NA,NA,NA,NA,NA,NA,NA,NA,NA,NA
f7fe7,shallow,flow.Sequence,3_0_0_0_6_1,NA,NA,skipped,NA,332118,NA,NA,332115.02,332118,2023-07-10T09:20:13Z,332131.66,NULL,Abrechnung,uhasibu,d,NA,NA,NA,NA,sdf,NA,0,NA,NA,NA,NA,NA,NA,NA,NA,NA,NA,NA,NA,NA,NA,NA,NA,NA,NA,NA
f7fe7,task,flow.Sequence,3_0_0_0_6,NA,NA,completion,12231.8,319877,319866.58,319883.22,332115.02,332118,2023-07-10T09:20:13Z,332131.66,NULL,Abrechnung,uhasibu,d,NA,NA,NA,NA,sdf,NA,0,NA,NA,NA,NA,NA,NA,NA,NA,NA,NA,NA,NA,NA,NA,NA,NA,NA,NA,NA
f7fe7,deep,flow.Sequence,3_0_0_0_7_0,NA,NA,skipped,NA,332118,NA,NA,332115.02,332118,2023-07-10T09:20:13Z,332131.66,NULL,Wechsel,ugeuzaji,s,utambulisho,kujenga,wasiwasi,NA,sdf,NA,0,NA,NA,NA,NA,NA,NA,NA,NA,NA,NA,NA,NA,NA,NA,NA,NA,NA,NA,NA
f7fe7,Shallow Question,html.Page,3_0_0_0_7_1_0,NA,NA,form submission,8874.34,332119,332115.02,332131.66,341006,341006,2023-07-10T09:20:22Z,341013.96,NULL,Wechsel,ugeuzaji,s,utambulisho,kujenga,wasiwasi,kujenga,NA,NA,0,NA,NA,NA,NA,NA,NA,NA,NA,NA,NA,NA,NA,NA,NA,NA,NA,NA,NA,NA
f7fe7,"""Richtig""-Screen",canvas.Screen,3_0_0_0_7_1_1,NA,NA,skipped,NA,341009,NA,NA,341006,341009,2023-07-10T09:20:22Z,341013.96,NULL,Wechsel,ugeuzaji,s,utambulisho,kujenga,wasiwasi,NA,sdf,NA,0,NA,NA,NA,NA,NA,NA,NA,NA,NA,NA,NA,NA,NA,NA,NA,NA,NA,NA,NA
f7fe7,"""Falsch""-Screen",canvas.Screen,3_0_0_0_7_1_2,NA,NA,timeout,4999.22,341012,341004.56,341013.96,345996.56,345998,2023-07-10T09:20:27Z,346013.18,NULL,Wechsel,ugeuzaji,s,utambulisho,kujenga,wasiwasi,NA,sdf,0,0,NA,NA,NA,NA,NA,NA,NA,NA,NA,NA,NA,NA,NA,NA,NA,NA,NA,NA,NA
f7fe7,shallow,flow.Sequence,3_0_0_0_7_1,NA,NA,completion,13864.9,332119,332115.02,332131.66,345996.56,345998,2023-07-10T09:20:27Z,346013.18,NULL,Wechsel,ugeuzaji,s,utambulisho,kujenga,wasiwasi,NA,sdf,NA,0,NA,NA,NA,NA,NA,NA,NA,NA,NA,NA,NA,NA,NA,NA,NA,NA,NA,NA,NA
f7fe7,task,flow.Sequence,3_0_0_0_7,NA,NA,completion,13864.9,332118,332115.02,332131.66,345996.56,345999,2023-07-10T09:20:27Z,346013.18,NULL,Wechsel,ugeuzaji,s,utambulisho,kujenga,wasiwasi,NA,sdf,NA,0,NA,NA,NA,NA,NA,NA,NA,NA,NA,NA,NA,NA,NA,NA,NA,NA,NA,NA,NA
f7fe7,block,flow.Loop,3_0_0_0,NA,NA,completion,121513.4,224482,224482.88,224483.16,345996.56,345999,2023-07-10T09:20:27Z,346013.18,NULL,NA,NA,NA,NA,NA,NA,NA,sdf,NA,0,NA,NA,NA,NA,NA,NA,NA,NA,NA,NA,NA,NA,NA,NA,NA,NA,NA,NA,NA
f7fe7,weiter,canvas.Screen,3_0_0_1,sdf,keypress(Space),response,3990.82,346000,345996.56,346013.18,350004,350012,2023-07-10T09:20:31Z,350062.82,NULL,NA,NA,NA,NA,NA,NA,NA,sdf,NA,0,NA,NA,NA,NA,NA,NA,NA,NA,NA,NA,NA,NA,NA,NA,NA,NA,NA,NA,NA
f7fe7,check continue,flow.Sequence,3_0_0,NA,NA,completion,125520.84,224482,224482.88,224483.16,350004,350012,2023-07-10T09:20:31Z,350062.82,NULL,NA,NA,NA,NA,NA,NA,NA,sdf,NA,0,NA,NA,NA,NA,NA,NA,NA,NA,NA,NA,NA,NA,NA,NA,NA,NA,NA,NA,NA
f7fe7,deep,flow.Sequence,3_0_1_0_0_0,NA,NA,skipped,NA,350062,NA,NA,350004,350062,2023-07-10T09:20:31Z,350062.82,NULL,Angreifer,mshambulizi,s,kitengo,tasinia,usafirishaji,NA,sdfdsf,NA,1,NA,NA,NA,NA,NA,NA,NA,NA,NA,NA,NA,NA,NA,NA,NA,NA,NA,NA,NA
f7fe7,Shallow Question,html.Page,3_0_1_0_0_1_0,NA,NA,form submission,7944.18,350062,350062.14,350062.82,358007,358007,2023-07-10T09:20:39Z,358011.64,NULL,Angreifer,mshambulizi,s,kitengo,tasinia,usafirishaji,mshambulizi,NA,NA,1,NA,NA,NA,NA,NA,NA,NA,NA,NA,NA,NA,NA,NA,NA,NA,NA,NA,NA,NA
f7fe7,"""Richtig""-Screen",canvas.Screen,3_0_1_0_0_1_1,NA,NA,timeout,4999.38,358012,358001.3,358011.64,362994.34,362996,2023-07-10T09:20:44Z,363011.02,NULL,Angreifer,mshambulizi,s,kitengo,tasinia,usafirishaji,NA,sdfdsf,1,1,NA,NA,NA,NA,NA,NA,NA,NA,NA,NA,NA,NA,NA,NA,NA,NA,NA,NA,NA
f7fe7,"""Falsch""-Screen",canvas.Screen,3_0_1_0_0_1_2,NA,NA,skipped,NA,363002,NA,NA,362994.34,363003,2023-07-10T09:20:44Z,363011.02,NULL,Angreifer,mshambulizi,s,kitengo,tasinia,usafirishaji,NA,sdfdsf,NA,1,NA,NA,NA,NA,NA,NA,NA,NA,NA,NA,NA,NA,NA,NA,NA,NA,NA,NA,NA
f7fe7,shallow,flow.Sequence,3_0_1_0_0_1,NA,NA,completion,12931.52,350062,350062.14,350062.82,362994.34,363003,2023-07-10T09:20:44Z,363011.02,NULL,Angreifer,mshambulizi,s,kitengo,tasinia,usafirishaji,NA,sdfdsf,NA,1,NA,NA,NA,NA,NA,NA,NA,NA,NA,NA,NA,NA,NA,NA,NA,NA,NA,NA,NA
f7fe7,task,flow.Sequence,3_0_1_0_0,NA,NA,completion,12931.52,350062,350062.14,350062.82,362994.34,363004,2023-07-10T09:20:44Z,363011.02,NULL,Angreifer,mshambulizi,s,kitengo,tasinia,usafirishaji,NA,sdfdsf,NA,1,NA,NA,NA,NA,NA,NA,NA,NA,NA,NA,NA,NA,NA,NA,NA,NA,NA,NA,NA
f7fe7,deep,flow.Sequence,3_0_1_0_1_0,NA,NA,skipped,NA,363005,NA,NA,362994.34,363005,2023-07-10T09:20:44Z,363011.02,NULL,Sänger,mwimbaji,s,msichana,shughuli,mshirika,NA,sdfdsf,NA,1,NA,NA,NA,NA,NA,NA,NA,NA,NA,NA,NA,NA,NA,NA,NA,NA,NA,NA,NA
f7fe7,Shallow Question,html.Page,3_0_1_0_1_1_0,NA,NA,form submission,9806.98,363005,362994.34,363011.02,372818,372819,2023-07-10T09:20:54Z,372826.4,NULL,Sänger,mwimbaji,s,msichana,shughuli,mshirika,mwimbaji,NA,NA,1,NA,NA,NA,NA,NA,NA,NA,NA,NA,NA,NA,NA,NA,NA,NA,NA,NA,NA,NA
f7fe7,"""Richtig""-Screen",canvas.Screen,3_0_1_0_1_1_1,NA,NA,timeout,4999.3199999999,372825,372813.32,372826.4,377809.16,377810,2023-07-10T09:20:58Z,377825.72,NULL,Sänger,mwimbaji,s,msichana,shughuli,mshirika,NA,sdfdsf,1,1,NA,NA,NA,NA,NA,NA,NA,NA,NA,NA,NA,NA,NA,NA,NA,NA,NA,NA,NA
f7fe7,"""Falsch""-Screen",canvas.Screen,3_0_1_0_1_1_2,NA,NA,skipped,NA,377815,NA,NA,377809.16,377815,2023-07-10T09:20:59Z,377825.72,NULL,Sänger,mwimbaji,s,msichana,shughuli,mshirika,NA,sdfdsf,NA,1,NA,NA,NA,NA,NA,NA,NA,NA,NA,NA,NA,NA,NA,NA,NA,NA,NA,NA,NA
f7fe7,shallow,flow.Sequence,3_0_1_0_1_1,NA,NA,completion,14798.14,363005,362994.34,363011.02,377809.16,377816,2023-07-10T09:20:59Z,377825.72,NULL,Sänger,mwimbaji,s,msichana,shughuli,mshirika,NA,sdfdsf,NA,1,NA,NA,NA,NA,NA,NA,NA,NA,NA,NA,NA,NA,NA,NA,NA,NA,NA,NA,NA
f7fe7,task,flow.Sequence,3_0_1_0_1,NA,NA,completion,14798.14,363004,362994.34,363011.02,377809.16,377816,2023-07-10T09:20:59Z,377825.72,NULL,Sänger,mwimbaji,s,msichana,shughuli,mshirika,NA,sdfdsf,NA,1,NA,NA,NA,NA,NA,NA,NA,NA,NA,NA,NA,NA,NA,NA,NA,NA,NA,NA,NA
f7fe7,Deep Question,html.Page,3_0_1_0_2_0_0,NA,NA,form submission,10678.28,377817,377809.16,377825.72,388504,388505,2023-07-10T09:21:09Z,388507.72,NULL,Kanzler,diwani,d,NA,NA,NA,ubadji,NA,NA,1,NA,NA,NA,NA,NA,NA,NA,NA,NA,NA,NA,NA,NA,NA,NA,NA,NA,NA,NA
f7fe7,"""Richtig""-Screen",canvas.Screen,3_0_1_0_2_0_1,NA,NA,skipped,NA,388507,NA,NA,388504,388507,2023-07-10T09:21:09Z,388507.72,NULL,Kanzler,diwani,d,NA,NA,NA,NA,sdfdsf,NA,1,NA,NA,NA,NA,NA,NA,NA,NA,NA,NA,NA,NA,NA,NA,NA,NA,NA,NA,NA
f7fe7,"""Falsch""-Screen",canvas.Screen,3_0_1_0_2_0_2,NA,NA,timeout,4999.34,388509,388503.76,388507.72,393490.4,393492,2023-07-10T09:21:14Z,393507.06,NULL,Kanzler,diwani,d,NA,NA,NA,NA,sdfdsf,0,1,NA,NA,NA,NA,NA,NA,NA,NA,NA,NA,NA,NA,NA,NA,NA,NA,NA,NA,NA
f7fe7,deep,flow.Sequence,3_0_1_0_2_0,NA,NA,completion,15664.68,377816,377809.16,377825.72,393490.4,393492,2023-07-10T09:21:14Z,393507.06,NULL,Kanzler,diwani,d,NA,NA,NA,NA,sdfdsf,NA,1,NA,NA,NA,NA,NA,NA,NA,NA,NA,NA,NA,NA,NA,NA,NA,NA,NA,NA,NA
f7fe7,shallow,flow.Sequence,3_0_1_0_2_1,NA,NA,skipped,NA,393493,NA,NA,393490.4,393493,2023-07-10T09:21:14Z,393507.06,NULL,Kanzler,diwani,d,NA,NA,NA,NA,sdfdsf,NA,1,NA,NA,NA,NA,NA,NA,NA,NA,NA,NA,NA,NA,NA,NA,NA,NA,NA,NA,NA
f7fe7,task,flow.Sequence,3_0_1_0_2,NA,NA,completion,15664.68,377816,377809.16,377825.72,393490.4,393493,2023-07-10T09:21:14Z,393507.06,NULL,Kanzler,diwani,d,NA,NA,NA,NA,sdfdsf,NA,1,NA,NA,NA,NA,NA,NA,NA,NA,NA,NA,NA,NA,NA,NA,NA,NA,NA,NA,NA
f7fe7,Deep Question,html.Page,3_0_1_0_3_0_0,NA,NA,form submission,6516.94,393495,393490.4,393507.06,400024,400024,2023-07-10T09:21:21Z,400023.02,NULL,Flexibilität,kubadilika,d,NA,NA,NA,ubadji,NA,NA,1,NA,NA,NA,NA,NA,NA,NA,NA,NA,NA,NA,NA,NA,NA,NA,NA,NA,NA,NA
f7fe7,"""Richtig""-Screen",canvas.Screen,3_0_1_0_3_0_1,NA,NA,skipped,NA,400027,NA,NA,400024,400027,2023-07-10T09:21:21Z,400023.02,NULL,Flexibilität,kubadilika,d,NA,NA,NA,NA,sdfdsf,NA,1,NA,NA,NA,NA,NA,NA,NA,NA,NA,NA,NA,NA,NA,NA,NA,NA,NA,NA,NA
f7fe7,"""Falsch""-Screen",canvas.Screen,3_0_1_0_3_0_2,NA,NA,timeout,4999.18,400029,400022.74,400023.02,405005.58,405011,2023-07-10T09:21:26Z,405022.2,NULL,Flexibilität,kubadilika,d,NA,NA,NA,NA,sdfdsf,0,1,NA,NA,NA,NA,NA,NA,NA,NA,NA,NA,NA,NA,NA,NA,NA,NA,NA,NA,NA
f7fe7,deep,flow.Sequence,3_0_1_0_3_0,NA,NA,completion,11498.52,393494,393490.4,393507.06,405005.58,405014,2023-07-10T09:21:26Z,405022.2,NULL,Flexibilität,kubadilika,d,NA,NA,NA,NA,sdfdsf,NA,1,NA,NA,NA,NA,NA,NA,NA,NA,NA,NA,NA,NA,NA,NA,NA,NA,NA,NA,NA
f7fe7,shallow,flow.Sequence,3_0_1_0_3_1,NA,NA,skipped,NA,405014,NA,NA,405005.58,405014,2023-07-10T09:21:26Z,405022.2,NULL,Flexibilität,kubadilika,d,NA,NA,NA,NA,sdfdsf,NA,1,NA,NA,NA,NA,NA,NA,NA,NA,NA,NA,NA,NA,NA,NA,NA,NA,NA,NA,NA
f7fe7,task,flow.Sequence,3_0_1_0_3,NA,NA,completion,11498.52,393494,393490.4,393507.06,405005.58,405014,2023-07-10T09:21:26Z,405022.2,NULL,Flexibilität,kubadilika,d,NA,NA,NA,NA,sdfdsf,NA,1,NA,NA,NA,NA,NA,NA,NA,NA,NA,NA,NA,NA,NA,NA,NA,NA,NA,NA,NA
f7fe7,deep,flow.Sequence,3_0_1_0_4_0,NA,NA,skipped,NA,405015,NA,NA,405005.58,405015,2023-07-10T09:21:26Z,405022.2,NULL,Erneuerung,ukarabati,s,ushawishi,ukalifu,unyonyaji,NA,sdfdsf,NA,1,NA,NA,NA,NA,NA,NA,NA,NA,NA,NA,NA,NA,NA,NA,NA,NA,NA,NA,NA
f7fe7,Shallow Question,html.Page,3_0_1_0_4_1_0,NA,NA,form submission,12998.8,405015,405005.58,405022.2,418021,418021,2023-07-10T09:21:39Z,418020.56,NULL,Erneuerung,ukarabati,s,ushawishi,ukalifu,unyonyaji,ushawishi,NA,NA,1,NA,NA,NA,NA,NA,NA,NA,NA,NA,NA,NA,NA,NA,NA,NA,NA,NA,NA,NA
f7fe7,"""Richtig""-Screen",canvas.Screen,3_0_1_0_4_1_1,NA,NA,skipped,NA,418029,NA,NA,418021,418030,2023-07-10T09:21:39Z,418020.56,NULL,Erneuerung,ukarabati,s,ushawishi,ukalifu,unyonyaji,NA,sdfdsf,NA,1,NA,NA,NA,NA,NA,NA,NA,NA,NA,NA,NA,NA,NA,NA,NA,NA,NA,NA,NA
f7fe7,"""Falsch""-Screen",canvas.Screen,3_0_1_0_4_1_2,NA,NA,timeout,4999.34,418033,418019.04,418020.56,423003.28,423004,2023-07-10T09:21:44Z,423019.9,NULL,Erneuerung,ukarabati,s,ushawishi,ukalifu,unyonyaji,NA,sdfdsf,0,1,NA,NA,NA,NA,NA,NA,NA,NA,NA,NA,NA,NA,NA,NA,NA,NA,NA,NA,NA
f7fe7,shallow,flow.Sequence,3_0_1_0_4_1,NA,NA,completion,17981.08,405015,405005.58,405022.2,423003.28,423005,2023-07-10T09:21:44Z,423019.9,NULL,Erneuerung,ukarabati,s,ushawishi,ukalifu,unyonyaji,NA,sdfdsf,NA,1,NA,NA,NA,NA,NA,NA,NA,NA,NA,NA,NA,NA,NA,NA,NA,NA,NA,NA,NA
f7fe7,task,flow.Sequence,3_0_1_0_4,NA,NA,completion,17981.08,405015,405005.58,405022.2,423003.28,423006,2023-07-10T09:21:44Z,423019.9,NULL,Erneuerung,ukarabati,s,ushawishi,ukalifu,unyonyaji,NA,sdfdsf,NA,1,NA,NA,NA,NA,NA,NA,NA,NA,NA,NA,NA,NA,NA,NA,NA,NA,NA,NA,NA
f7fe7,deep,flow.Sequence,3_0_1_0_5_0,NA,NA,skipped,NA,423007,NA,NA,423003.28,423008,2023-07-10T09:21:44Z,423019.9,NULL,Wechsel,ugeuzaji,s,utambulisho,kujenga,wasiwasi,NA,sdfdsf,NA,1,NA,NA,NA,NA,NA,NA,NA,NA,NA,NA,NA,NA,NA,NA,NA,NA,NA,NA,NA
f7fe7,Shallow Question,html.Page,3_0_1_0_5_1_0,NA,NA,form submission,12932.1,423009,423003.28,423019.9,435952,435952,2023-07-10T09:21:57Z,435951.56,NULL,Wechsel,ugeuzaji,s,utambulisho,kujenga,wasiwasi,ugeuzaji,NA,NA,1,NA,NA,NA,NA,NA,NA,NA,NA,NA,NA,NA,NA,NA,NA,NA,NA,NA,NA,NA
f7fe7,"""Richtig""-Screen",canvas.Screen,3_0_1_0_5_1_1,NA,NA,timeout,4999.34,435956,435950.78,435951.56,440934.28,440935,2023-07-10T09:22:02Z,440950.9,NULL,Wechsel,ugeuzaji,s,utambulisho,kujenga,wasiwasi,NA,sdfdsf,1,1,NA,NA,NA,NA,NA,NA,NA,NA,NA,NA,NA,NA,NA,NA,NA,NA,NA,NA,NA
f7fe7,"""Falsch""-Screen",canvas.Screen,3_0_1_0_5_1_2,NA,NA,skipped,NA,440941,NA,NA,440934.28,440941,2023-07-10T09:22:02Z,440950.9,NULL,Wechsel,ugeuzaji,s,utambulisho,kujenga,wasiwasi,NA,sdfdsf,NA,1,NA,NA,NA,NA,NA,NA,NA,NA,NA,NA,NA,NA,NA,NA,NA,NA,NA,NA,NA
f7fe7,shallow,flow.Sequence,3_0_1_0_5_1,NA,NA,completion,17914.38,423009,423003.28,423019.9,440934.28,440942,2023-07-10T09:22:02Z,440950.9,NULL,Wechsel,ugeuzaji,s,utambulisho,kujenga,wasiwasi,NA,sdfdsf,NA,1,NA,NA,NA,NA,NA,NA,NA,NA,NA,NA,NA,NA,NA,NA,NA,NA,NA,NA,NA
f7fe7,task,flow.Sequence,3_0_1_0_5,NA,NA,completion,17914.38,423007,423003.28,423019.9,440934.28,440942,2023-07-10T09:22:02Z,440950.9,NULL,Wechsel,ugeuzaji,s,utambulisho,kujenga,wasiwasi,NA,sdfdsf,NA,1,NA,NA,NA,NA,NA,NA,NA,NA,NA,NA,NA,NA,NA,NA,NA,NA,NA,NA,NA
f7fe7,Deep Question,html.Page,3_0_1_0_6_0_0,NA,NA,form submission,6674.1,440942,440934.28,440950.9,447625,447626,2023-07-10T09:22:08Z,447623.74,NULL,Atmosphäre,angahewa,d,NA,NA,NA,ubadji,NA,NA,1,NA,NA,NA,NA,NA,NA,NA,NA,NA,NA,NA,NA,NA,NA,NA,NA,NA,NA,NA
f7fe7,"""Richtig""-Screen",canvas.Screen,3_0_1_0_6_0_1,NA,NA,skipped,NA,447628,NA,NA,447625,447628,2023-07-10T09:22:08Z,447623.74,NULL,Atmosphäre,angahewa,d,NA,NA,NA,NA,sdfdsf,NA,1,NA,NA,NA,NA,NA,NA,NA,NA,NA,NA,NA,NA,NA,NA,NA,NA,NA,NA,NA
f7fe7,"""Falsch""-Screen",canvas.Screen,3_0_1_0_6_0_2,NA,NA,timeout,4992.36,447631,447623.44,447623.74,452599.54,452600,2023-07-10T09:22:13Z,452616.1,NULL,Atmosphäre,angahewa,d,NA,NA,NA,NA,sdfdsf,0,1,NA,NA,NA,NA,NA,NA,NA,NA,NA,NA,NA,NA,NA,NA,NA,NA,NA,NA,NA
f7fe7,deep,flow.Sequence,3_0_1_0_6_0,NA,NA,completion,11648.64,440942,440934.28,440950.9,452599.54,452601,2023-07-10T09:22:13Z,452616.1,NULL,Atmosphäre,angahewa,d,NA,NA,NA,NA,sdfdsf,NA,1,NA,NA,NA,NA,NA,NA,NA,NA,NA,NA,NA,NA,NA,NA,NA,NA,NA,NA,NA
f7fe7,shallow,flow.Sequence,3_0_1_0_6_1,NA,NA,skipped,NA,452602,NA,NA,452599.54,452602,2023-07-10T09:22:13Z,452616.1,NULL,Atmosphäre,angahewa,d,NA,NA,NA,NA,sdfdsf,NA,1,NA,NA,NA,NA,NA,NA,NA,NA,NA,NA,NA,NA,NA,NA,NA,NA,NA,NA,NA
f7fe7,task,flow.Sequence,3_0_1_0_6,NA,NA,completion,11648.64,440942,440934.28,440950.9,452599.54,452603,2023-07-10T09:22:13Z,452616.1,NULL,Atmosphäre,angahewa,d,NA,NA,NA,NA,sdfdsf,NA,1,NA,NA,NA,NA,NA,NA,NA,NA,NA,NA,NA,NA,NA,NA,NA,NA,NA,NA,NA
f7fe7,Deep Question,html.Page,3_0_1_0_7_0_0,NA,NA,form submission,7231.9,452603,452599.54,452616.1,459848,459848,2023-07-10T09:22:21Z,459848.52,NULL,Abrechnung,uhasibu,d,NA,NA,NA,ubadji,NA,NA,1,NA,NA,NA,NA,NA,NA,NA,NA,NA,NA,NA,NA,NA,NA,NA,NA,NA,NA,NA
f7fe7,"""Richtig""-Screen",canvas.Screen,3_0_1_0_7_0_1,NA,NA,skipped,NA,459850,NA,NA,459848,459851,2023-07-10T09:22:21Z,459848.52,NULL,Abrechnung,uhasibu,d,NA,NA,NA,NA,sdfdsf,NA,1,NA,NA,NA,NA,NA,NA,NA,NA,NA,NA,NA,NA,NA,NA,NA,NA,NA,NA,NA
f7fe7,"""Falsch""-Screen",canvas.Screen,3_0_1_0_7_0_2,NA,NA,timeout,4999.38,459854,459846.04,459848.52,464831.24,464834,2023-07-10T09:22:26Z,464847.9,NULL,Abrechnung,uhasibu,d,NA,NA,NA,NA,sdfdsf,0,1,NA,NA,NA,NA,NA,NA,NA,NA,NA,NA,NA,NA,NA,NA,NA,NA,NA,NA,NA
f7fe7,deep,flow.Sequence,3_0_1_0_7_0,NA,NA,completion,12215.14,452603,452599.54,452616.1,464831.24,464835,2023-07-10T09:22:26Z,464847.9,NULL,Abrechnung,uhasibu,d,NA,NA,NA,NA,sdfdsf,NA,1,NA,NA,NA,NA,NA,NA,NA,NA,NA,NA,NA,NA,NA,NA,NA,NA,NA,NA,NA
f7fe7,shallow,flow.Sequence,3_0_1_0_7_1,NA,NA,skipped,NA,464835,NA,NA,464831.24,464835,2023-07-10T09:22:26Z,464847.9,NULL,Abrechnung,uhasibu,d,NA,NA,NA,NA,sdfdsf,NA,1,NA,NA,NA,NA,NA,NA,NA,NA,NA,NA,NA,NA,NA,NA,NA,NA,NA,NA,NA
f7fe7,task,flow.Sequence,3_0_1_0_7,NA,NA,completion,12215.14,452603,452599.54,452616.1,464831.24,464836,2023-07-10T09:22:26Z,464847.9,NULL,Abrechnung,uhasibu,d,NA,NA,NA,NA,sdfdsf,NA,1,NA,NA,NA,NA,NA,NA,NA,NA,NA,NA,NA,NA,NA,NA,NA,NA,NA,NA,NA
f7fe7,block,flow.Loop,3_0_1_0,NA,NA,completion,114768.42,350062,350062.14,350062.82,464831.24,464836,2023-07-10T09:22:26Z,464847.9,NULL,NA,NA,NA,NA,NA,NA,NA,sdfdsf,NA,1,NA,NA,NA,NA,NA,NA,NA,NA,NA,NA,NA,NA,NA,NA,NA,NA,NA,NA,NA
f7fe7,weiter,canvas.Screen,3_0_1_1,sdf,keypress(Space),response,1282.1,464836,464831.24,464847.9,466130,466148,2023-07-10T09:22:27Z,466217.22,NULL,NA,NA,NA,NA,NA,NA,NA,sdfdsf,NA,1,NA,NA,NA,NA,NA,NA,NA,NA,NA,NA,NA,NA,NA,NA,NA,NA,NA,NA,NA
f7fe7,check continue,flow.Sequence,3_0_1,NA,NA,completion,116067.18,350062,350062.14,350062.82,466130,466149,2023-07-10T09:22:27Z,466217.22,NULL,NA,NA,NA,NA,NA,NA,NA,sdfdsf,NA,1,NA,NA,NA,NA,NA,NA,NA,NA,NA,NA,NA,NA,NA,NA,NA,NA,NA,NA,NA
f7fe7,Deep Question,html.Page,3_0_2_0_0_0_0,NA,NA,form submission,12806.78,466217,466216.84,466217.22,479024,479025,2023-07-10T09:22:40Z,479029.38,NULL,Kanzler,diwani,d,NA,NA,NA,kiwani,NA,NA,2,NA,NA,NA,NA,NA,NA,NA,NA,NA,NA,NA,NA,NA,NA,NA,NA,NA,NA,NA
f7fe7,"""Richtig""-Screen",canvas.Screen,3_0_2_0_0_0_1,NA,NA,skipped,NA,479028,NA,NA,479024,479029,2023-07-10T09:22:40Z,479029.38,NULL,Kanzler,diwani,d,NA,NA,NA,NA,sdf,NA,2,NA,NA,NA,NA,NA,NA,NA,NA,NA,NA,NA,NA,NA,NA,NA,NA,NA,NA,NA
f7fe7,"""Falsch""-Screen",canvas.Screen,3_0_2_0_0_0_2,NA,NA,timeout,4999.32,479031,479023.28,479029.38,484012.08,484013,2023-07-10T09:22:45Z,484028.7,NULL,Kanzler,diwani,d,NA,NA,NA,NA,sdf,0,2,NA,NA,NA,NA,NA,NA,NA,NA,NA,NA,NA,NA,NA,NA,NA,NA,NA,NA,NA
f7fe7,deep,flow.Sequence,3_0_2_0_0_0,NA,NA,completion,17794.86,466217,466216.84,466217.22,484012.08,484014,2023-07-10T09:22:45Z,484028.7,NULL,Kanzler,diwani,d,NA,NA,NA,NA,sdf,NA,2,NA,NA,NA,NA,NA,NA,NA,NA,NA,NA,NA,NA,NA,NA,NA,NA,NA,NA,NA
f7fe7,shallow,flow.Sequence,3_0_2_0_0_1,NA,NA,skipped,NA,484015,NA,NA,484012.08,484015,2023-07-10T09:22:45Z,484028.7,NULL,Kanzler,diwani,d,NA,NA,NA,NA,sdf,NA,2,NA,NA,NA,NA,NA,NA,NA,NA,NA,NA,NA,NA,NA,NA,NA,NA,NA,NA,NA
f7fe7,task,flow.Sequence,3_0_2_0_0,NA,NA,completion,17794.86,466217,466216.84,466217.22,484012.08,484015,2023-07-10T09:22:45Z,484028.7,NULL,Kanzler,diwani,d,NA,NA,NA,NA,sdf,NA,2,NA,NA,NA,NA,NA,NA,NA,NA,NA,NA,NA,NA,NA,NA,NA,NA,NA,NA,NA
f7fe7,deep,flow.Sequence,3_0_2_0_1_0,NA,NA,skipped,NA,484015,NA,NA,484012.08,484015,2023-07-10T09:22:45Z,484028.7,NULL,Angreifer,mshambulizi,s,kitengo,tasinia,usafirishaji,NA,sdf,NA,2,NA,NA,NA,NA,NA,NA,NA,NA,NA,NA,NA,NA,NA,NA,NA,NA,NA,NA,NA
f7fe7,Shallow Question,html.Page,3_0_2_0_1_1_0,NA,NA,form submission,8132.3,484016,484012.08,484028.7,492161,492162,2023-07-10T09:22:53Z,492160.96,NULL,Angreifer,mshambulizi,s,kitengo,tasinia,usafirishaji,mshambulizi,NA,NA,2,NA,NA,NA,NA,NA,NA,NA,NA,NA,NA,NA,NA,NA,NA,NA,NA,NA,NA,NA
f7fe7,"""Richtig""-Screen",canvas.Screen,3_0_2_0_1_1_1,NA,NA,timeout,4999.36,492165,492159.78,492160.96,497143.76,497146,2023-07-10T09:22:58Z,497160.32,NULL,Angreifer,mshambulizi,s,kitengo,tasinia,usafirishaji,NA,sdf,1,2,NA,NA,NA,NA,NA,NA,NA,NA,NA,NA,NA,NA,NA,NA,NA,NA,NA,NA,NA
f7fe7,"""Falsch""-Screen",canvas.Screen,3_0_2_0_1_1_2,NA,NA,skipped,NA,497151,NA,NA,497143.76,497152,2023-07-10T09:22:58Z,497160.32,NULL,Angreifer,mshambulizi,s,kitengo,tasinia,usafirishaji,NA,sdf,NA,2,NA,NA,NA,NA,NA,NA,NA,NA,NA,NA,NA,NA,NA,NA,NA,NA,NA,NA,NA
f7fe7,shallow,flow.Sequence,3_0_2_0_1_1,NA,NA,completion,13115.06,484016,484012.08,484028.7,497143.76,497152,2023-07-10T09:22:58Z,497160.32,NULL,Angreifer,mshambulizi,s,kitengo,tasinia,usafirishaji,NA,sdf,NA,2,NA,NA,NA,NA,NA,NA,NA,NA,NA,NA,NA,NA,NA,NA,NA,NA,NA,NA,NA
f7fe7,task,flow.Sequence,3_0_2_0_1,NA,NA,completion,13115.06,484015,484012.08,484028.7,497143.76,497153,2023-07-10T09:22:58Z,497160.32,NULL,Angreifer,mshambulizi,s,kitengo,tasinia,usafirishaji,NA,sdf,NA,2,NA,NA,NA,NA,NA,NA,NA,NA,NA,NA,NA,NA,NA,NA,NA,NA,NA,NA,NA
f7fe7,deep,flow.Sequence,3_0_2_0_2_0,NA,NA,skipped,NA,497153,NA,NA,497143.76,497154,2023-07-10T09:22:58Z,497160.32,NULL,Wechsel,ugeuzaji,s,utambulisho,kujenga,wasiwasi,NA,sdf,NA,2,NA,NA,NA,NA,NA,NA,NA,NA,NA,NA,NA,NA,NA,NA,NA,NA,NA,NA,NA
f7fe7,Shallow Question,html.Page,3_0_2_0_2_1_0,NA,NA,form submission,8969.68,497155,497143.76,497160.32,506130,506131,2023-07-10T09:23:07Z,506129.64,NULL,Wechsel,ugeuzaji,s,utambulisho,kujenga,wasiwasi,ugeuzaji,NA,NA,2,NA,NA,NA,NA,NA,NA,NA,NA,NA,NA,NA,NA,NA,NA,NA,NA,NA,NA,NA
f7fe7,"""Richtig""-Screen",canvas.Screen,3_0_2_0_2_1_1,NA,NA,timeout,4995.68,506134,506129.26,506129.64,511108.66,511110,2023-07-10T09:23:12Z,511125.32,NULL,Wechsel,ugeuzaji,s,utambulisho,kujenga,wasiwasi,NA,sdf,1,2,NA,NA,NA,NA,NA,NA,NA,NA,NA,NA,NA,NA,NA,NA,NA,NA,NA,NA,NA
f7fe7,"""Falsch""-Screen",canvas.Screen,3_0_2_0_2_1_2,NA,NA,skipped,NA,511116,NA,NA,511108.66,511117,2023-07-10T09:23:12Z,511125.32,NULL,Wechsel,ugeuzaji,s,utambulisho,kujenga,wasiwasi,NA,sdf,NA,2,NA,NA,NA,NA,NA,NA,NA,NA,NA,NA,NA,NA,NA,NA,NA,NA,NA,NA,NA
f7fe7,shallow,flow.Sequence,3_0_2_0_2_1,NA,NA,completion,13948.34,497154,497143.76,497160.32,511108.66,511117,2023-07-10T09:23:12Z,511125.32,NULL,Wechsel,ugeuzaji,s,utambulisho,kujenga,wasiwasi,NA,sdf,NA,2,NA,NA,NA,NA,NA,NA,NA,NA,NA,NA,NA,NA,NA,NA,NA,NA,NA,NA,NA
f7fe7,task,flow.Sequence,3_0_2_0_2,NA,NA,completion,13948.34,497153,497143.76,497160.32,511108.66,511118,2023-07-10T09:23:12Z,511125.32,NULL,Wechsel,ugeuzaji,s,utambulisho,kujenga,wasiwasi,NA,sdf,NA,2,NA,NA,NA,NA,NA,NA,NA,NA,NA,NA,NA,NA,NA,NA,NA,NA,NA,NA,NA
f7fe7,deep,flow.Sequence,3_0_2_0_3_0,NA,NA,skipped,NA,511118,NA,NA,511108.66,511118,2023-07-10T09:23:12Z,511125.32,NULL,Sänger,mwimbaji,s,msichana,shughuli,mshirika,NA,sdf,NA,2,NA,NA,NA,NA,NA,NA,NA,NA,NA,NA,NA,NA,NA,NA,NA,NA,NA,NA,NA
f7fe7,Shallow Question,html.Page,3_0_2_0_3_1_0,NA,NA,form submission,13442.68,511118,511108.66,511125.32,524568,524568,2023-07-10T09:23:25Z,524573.46,NULL,Sänger,mwimbaji,s,msichana,shughuli,mshirika,mwimbaji,NA,NA,2,NA,NA,NA,NA,NA,NA,NA,NA,NA,NA,NA,NA,NA,NA,NA,NA,NA,NA,NA
f7fe7,"""Richtig""-Screen",canvas.Screen,3_0_2_0_3_1_1,NA,NA,timeout,4999.4,524571,524567.08,524573.46,529556.24,529558,2023-07-10T09:23:30Z,529572.86,NULL,Sänger,mwimbaji,s,msichana,shughuli,mshirika,NA,sdf,1,2,NA,NA,NA,NA,NA,NA,NA,NA,NA,NA,NA,NA,NA,NA,NA,NA,NA,NA,NA
f7fe7,"""Falsch""-Screen",canvas.Screen,3_0_2_0_3_1_2,NA,NA,skipped,NA,529564,NA,NA,529556.24,529564,2023-07-10T09:23:30Z,529572.86,NULL,Sänger,mwimbaji,s,msichana,shughuli,mshirika,NA,sdf,NA,2,NA,NA,NA,NA,NA,NA,NA,NA,NA,NA,NA,NA,NA,NA,NA,NA,NA,NA,NA
f7fe7,shallow,flow.Sequence,3_0_2_0_3_1,NA,NA,completion,18430.92,511118,511108.66,511125.32,529556.24,529565,2023-07-10T09:23:30Z,529572.86,NULL,Sänger,mwimbaji,s,msichana,shughuli,mshirika,NA,sdf,NA,2,NA,NA,NA,NA,NA,NA,NA,NA,NA,NA,NA,NA,NA,NA,NA,NA,NA,NA,NA
f7fe7,task,flow.Sequence,3_0_2_0_3,NA,NA,completion,18430.92,511118,511108.66,511125.32,529556.24,529565,2023-07-10T09:23:30Z,529572.86,NULL,Sänger,mwimbaji,s,msichana,shughuli,mshirika,NA,sdf,NA,2,NA,NA,NA,NA,NA,NA,NA,NA,NA,NA,NA,NA,NA,NA,NA,NA,NA,NA,NA
f7fe7,Deep Question,html.Page,3_0_2_0_4_0_0,NA,NA,form submission,7988.14,529565,529556.24,529572.86,537561,537561,2023-07-10T09:23:38Z,537560.24,NULL,Flexibilität,kubadilika,d,NA,NA,NA,kanibo,NA,NA,2,NA,NA,NA,NA,NA,NA,NA,NA,NA,NA,NA,NA,NA,NA,NA,NA,NA,NA,NA
f7fe7,"""Richtig""-Screen",canvas.Screen,3_0_2_0_4_0_1,NA,NA,skipped,NA,537565,NA,NA,537561,537565,2023-07-10T09:23:38Z,537560.24,NULL,Flexibilität,kubadilika,d,NA,NA,NA,NA,sdf,NA,2,NA,NA,NA,NA,NA,NA,NA,NA,NA,NA,NA,NA,NA,NA,NA,NA,NA,NA,NA
f7fe7,"""Falsch""-Screen",canvas.Screen,3_0_2_0_4_0_2,NA,NA,timeout,4994.3,537568,537559.9,537560.24,542537.88,542540,2023-07-10T09:23:43Z,542554.54,NULL,Flexibilität,kubadilika,d,NA,NA,NA,NA,sdf,0,2,NA,NA,NA,NA,NA,NA,NA,NA,NA,NA,NA,NA,NA,NA,NA,NA,NA,NA,NA
f7fe7,deep,flow.Sequence,3_0_2_0_4_0,NA,NA,completion,12965.02,529565,529556.24,529572.86,542537.88,542540,2023-07-10T09:23:43Z,542554.54,NULL,Flexibilität,kubadilika,d,NA,NA,NA,NA,sdf,NA,2,NA,NA,NA,NA,NA,NA,NA,NA,NA,NA,NA,NA,NA,NA,NA,NA,NA,NA,NA
f7fe7,shallow,flow.Sequence,3_0_2_0_4_1,NA,NA,skipped,NA,542540,NA,NA,542537.88,542540,2023-07-10T09:23:43Z,542554.54,NULL,Flexibilität,kubadilika,d,NA,NA,NA,NA,sdf,NA,2,NA,NA,NA,NA,NA,NA,NA,NA,NA,NA,NA,NA,NA,NA,NA,NA,NA,NA,NA
f7fe7,task,flow.Sequence,3_0_2_0_4,NA,NA,completion,12965.02,529565,529556.24,529572.86,542537.88,542541,2023-07-10T09:23:43Z,542554.54,NULL,Flexibilität,kubadilika,d,NA,NA,NA,NA,sdf,NA,2,NA,NA,NA,NA,NA,NA,NA,NA,NA,NA,NA,NA,NA,NA,NA,NA,NA,NA,NA
f7fe7,Deep Question,html.Page,3_0_2_0_5_0_0,NA,NA,form submission,5330.46,542541,542537.88,542554.54,547885,547885,2023-07-10T09:23:49Z,547887.16,NULL,Abrechnung,uhasibu,d,NA,NA,NA,diwani,NA,NA,2,NA,NA,NA,NA,NA,NA,NA,NA,NA,NA,NA,NA,NA,NA,NA,NA,NA,NA,NA
f7fe7,"""Richtig""-Screen",canvas.Screen,3_0_2_0_5_0_1,NA,NA,skipped,NA,547888,NA,NA,547885,547888,2023-07-10T09:23:49Z,547887.16,NULL,Abrechnung,uhasibu,d,NA,NA,NA,NA,sdf,NA,2,NA,NA,NA,NA,NA,NA,NA,NA,NA,NA,NA,NA,NA,NA,NA,NA,NA,NA,NA
f7fe7,"""Falsch""-Screen",canvas.Screen,3_0_2_0_5_0_2,NA,NA,timeout,4999.38,547892,547884.38,547887.16,552869.88,552871,2023-07-10T09:23:54Z,552886.54,NULL,Abrechnung,uhasibu,d,NA,NA,NA,NA,sdf,0,2,NA,NA,NA,NA,NA,NA,NA,NA,NA,NA,NA,NA,NA,NA,NA,NA,NA,NA,NA
f7fe7,deep,flow.Sequence,3_0_2_0_5_0,NA,NA,completion,10315.34,542541,542537.88,542554.54,552869.88,552872,2023-07-10T09:23:54Z,552886.54,NULL,Abrechnung,uhasibu,d,NA,NA,NA,NA,sdf,NA,2,NA,NA,NA,NA,NA,NA,NA,NA,NA,NA,NA,NA,NA,NA,NA,NA,NA,NA,NA
f7fe7,shallow,flow.Sequence,3_0_2_0_5_1,NA,NA,skipped,NA,552872,NA,NA,552869.88,552872,2023-07-10T09:23:54Z,552886.54,NULL,Abrechnung,uhasibu,d,NA,NA,NA,NA,sdf,NA,2,NA,NA,NA,NA,NA,NA,NA,NA,NA,NA,NA,NA,NA,NA,NA,NA,NA,NA,NA
f7fe7,task,flow.Sequence,3_0_2_0_5,NA,NA,completion,10315.34,542541,542537.88,542554.54,552869.88,552873,2023-07-10T09:23:54Z,552886.54,NULL,Abrechnung,uhasibu,d,NA,NA,NA,NA,sdf,NA,2,NA,NA,NA,NA,NA,NA,NA,NA,NA,NA,NA,NA,NA,NA,NA,NA,NA,NA,NA
f7fe7,Deep Question,html.Page,3_0_2_0_6_0_0,NA,NA,form submission,7450.46,552874,552869.88,552886.54,560337,560337,2023-07-10T09:24:01Z,560352.14,NULL,Atmosphäre,angahewa,d,NA,NA,NA,uhasibu,NA,NA,2,NA,NA,NA,NA,NA,NA,NA,NA,NA,NA,NA,NA,NA,NA,NA,NA,NA,NA,NA
f7fe7,"""Richtig""-Screen",canvas.Screen,3_0_2_0_6_0_1,NA,NA,skipped,NA,560340,NA,NA,560337,560340,2023-07-10T09:24:01Z,560352.14,NULL,Atmosphäre,angahewa,d,NA,NA,NA,NA,sdf,NA,2,NA,NA,NA,NA,NA,NA,NA,NA,NA,NA,NA,NA,NA,NA,NA,NA,NA,NA,NA
f7fe7,"""Falsch""-Screen",canvas.Screen,3_0_2_0_6_0_2,NA,NA,timeout,4999.42,560342,560336.16,560352.14,565334.9,565342,2023-07-10T09:24:06Z,565351.56,NULL,Atmosphäre,angahewa,d,NA,NA,NA,NA,sdf,0,2,NA,NA,NA,NA,NA,NA,NA,NA,NA,NA,NA,NA,NA,NA,NA,NA,NA,NA,NA
f7fe7,deep,flow.Sequence,3_0_2_0_6_0,NA,NA,completion,12448.36,552874,552869.88,552886.54,565334.9,565346,2023-07-10T09:24:06Z,565351.56,NULL,Atmosphäre,angahewa,d,NA,NA,NA,NA,sdf,NA,2,NA,NA,NA,NA,NA,NA,NA,NA,NA,NA,NA,NA,NA,NA,NA,NA,NA,NA,NA
f7fe7,shallow,flow.Sequence,3_0_2_0_6_1,NA,NA,skipped,NA,565346,NA,NA,565334.9,565347,2023-07-10T09:24:06Z,565351.56,NULL,Atmosphäre,angahewa,d,NA,NA,NA,NA,sdf,NA,2,NA,NA,NA,NA,NA,NA,NA,NA,NA,NA,NA,NA,NA,NA,NA,NA,NA,NA,NA
f7fe7,task,flow.Sequence,3_0_2_0_6,NA,NA,completion,12448.36,552874,552869.88,552886.54,565334.9,565347,2023-07-10T09:24:06Z,565351.56,NULL,Atmosphäre,angahewa,d,NA,NA,NA,NA,sdf,NA,2,NA,NA,NA,NA,NA,NA,NA,NA,NA,NA,NA,NA,NA,NA,NA,NA,NA,NA,NA
f7fe7,deep,flow.Sequence,3_0_2_0_7_0,NA,NA,skipped,NA,565347,NA,NA,565334.9,565347,2023-07-10T09:24:06Z,565351.56,NULL,Erneuerung,ukarabati,s,ushawishi,ukalifu,unyonyaji,NA,sdf,NA,2,NA,NA,NA,NA,NA,NA,NA,NA,NA,NA,NA,NA,NA,NA,NA,NA,NA,NA,NA
f7fe7,Shallow Question,html.Page,3_0_2_0_7_1_0,NA,NA,form submission,12913.44,565348,565334.9,565351.56,578265,578266,2023-07-10T09:24:19Z,578266.56,NULL,Erneuerung,ukarabati,s,ushawishi,ukalifu,unyonyaji,ukarabati,NA,NA,2,NA,NA,NA,NA,NA,NA,NA,NA,NA,NA,NA,NA,NA,NA,NA,NA,NA,NA,NA
f7fe7,"""Richtig""-Screen",canvas.Screen,3_0_2_0_7_1_1,NA,NA,timeout,4999.3999999999,578274,578263.24,578266.56,583249.3,583250,2023-07-10T09:24:24Z,583265.96,NULL,Erneuerung,ukarabati,s,ushawishi,ukalifu,unyonyaji,NA,sdf,1,2,NA,NA,NA,NA,NA,NA,NA,NA,NA,NA,NA,NA,NA,NA,NA,NA,NA,NA,NA
f7fe7,"""Falsch""-Screen",canvas.Screen,3_0_2_0_7_1_2,NA,NA,skipped,NA,583256,NA,NA,583249.3,583257,2023-07-10T09:24:24Z,583265.96,NULL,Erneuerung,ukarabati,s,ushawishi,ukalifu,unyonyaji,NA,sdf,NA,2,NA,NA,NA,NA,NA,NA,NA,NA,NA,NA,NA,NA,NA,NA,NA,NA,NA,NA,NA
f7fe7,shallow,flow.Sequence,3_0_2_0_7_1,NA,NA,completion,17897.74,565347,565334.9,565351.56,583249.3,583258,2023-07-10T09:24:24Z,583265.96,NULL,Erneuerung,ukarabati,s,ushawishi,ukalifu,unyonyaji,NA,sdf,NA,2,NA,NA,NA,NA,NA,NA,NA,NA,NA,NA,NA,NA,NA,NA,NA,NA,NA,NA,NA
f7fe7,task,flow.Sequence,3_0_2_0_7,NA,NA,completion,17897.74,565347,565334.9,565351.56,583249.3,583258,2023-07-10T09:24:24Z,583265.96,NULL,Erneuerung,ukarabati,s,ushawishi,ukalifu,unyonyaji,NA,sdf,NA,2,NA,NA,NA,NA,NA,NA,NA,NA,NA,NA,NA,NA,NA,NA,NA,NA,NA,NA,NA
f7fe7,block,flow.Loop,3_0_2_0,NA,NA,completion,117032.08,466217,466216.84,466217.22,583249.3,583259,2023-07-10T09:24:24Z,583265.96,NULL,NA,NA,NA,NA,NA,NA,NA,sdf,NA,2,NA,NA,NA,NA,NA,NA,NA,NA,NA,NA,NA,NA,NA,NA,NA,NA,NA,NA,NA
f7fe7,weiter,canvas.Screen,3_0_2_1,sdf,keypress(Space),response,1082.04,583259,583249.3,583265.96,584348,584354,2023-07-10T09:24:25Z,584421.3,NULL,NA,NA,NA,NA,NA,NA,NA,sdf,NA,2,NA,NA,NA,NA,NA,NA,NA,NA,NA,NA,NA,NA,NA,NA,NA,NA,NA,NA,NA
f7fe7,check continue,flow.Sequence,3_0_2,NA,NA,completion,118130.78,466217,466216.84,466217.22,584348,584355,2023-07-10T09:24:25Z,584421.3,NULL,NA,NA,NA,NA,NA,NA,NA,sdf,NA,2,NA,NA,NA,NA,NA,NA,NA,NA,NA,NA,NA,NA,NA,NA,NA,NA,NA,NA,NA
f7fe7,Deep Question,html.Page,3_0_3_0_0_0_0,NA,NA,form submission,8244.7,584421,584420.94,584421.3,592666,592666,2023-07-10T09:24:33Z,592664.68,NULL,Abrechnung,uhasibu,d,NA,NA,NA,hangasewa,NA,NA,3,NA,NA,NA,NA,NA,NA,NA,NA,NA,NA,NA,NA,NA,NA,NA,NA,NA,NA,NA
f7fe7,"""Richtig""-Screen",canvas.Screen,3_0_3_0_0_0_1,NA,NA,skipped,NA,592669,NA,NA,592666,592669,2023-07-10T09:24:33Z,592664.68,NULL,Abrechnung,uhasibu,d,NA,NA,NA,NA,qt,NA,3,NA,NA,NA,NA,NA,NA,NA,NA,NA,NA,NA,NA,NA,NA,NA,NA,NA,NA,NA
f7fe7,"""Falsch""-Screen",canvas.Screen,3_0_3_0_0_0_2,NA,NA,timeout,4999.4199999999,592671,592664.36,592664.68,597647.42,597649,2023-07-10T09:24:38Z,597664.1,NULL,Abrechnung,uhasibu,d,NA,NA,NA,NA,qt,0,3,NA,NA,NA,NA,NA,NA,NA,NA,NA,NA,NA,NA,NA,NA,NA,NA,NA,NA,NA
f7fe7,deep,flow.Sequence,3_0_3_0_0_0,NA,NA,completion,13226.12,584421,584420.94,584421.3,597647.42,597650,2023-07-10T09:24:38Z,597664.1,NULL,Abrechnung,uhasibu,d,NA,NA,NA,NA,qt,NA,3,NA,NA,NA,NA,NA,NA,NA,NA,NA,NA,NA,NA,NA,NA,NA,NA,NA,NA,NA
f7fe7,shallow,flow.Sequence,3_0_3_0_0_1,NA,NA,skipped,NA,597650,NA,NA,597647.42,597650,2023-07-10T09:24:38Z,597664.1,NULL,Abrechnung,uhasibu,d,NA,NA,NA,NA,qt,NA,3,NA,NA,NA,NA,NA,NA,NA,NA,NA,NA,NA,NA,NA,NA,NA,NA,NA,NA,NA
f7fe7,task,flow.Sequence,3_0_3_0_0,NA,NA,completion,13226.12,584420,584420.94,584421.3,597647.42,597651,2023-07-10T09:24:38Z,597664.1,NULL,Abrechnung,uhasibu,d,NA,NA,NA,NA,qt,NA,3,NA,NA,NA,NA,NA,NA,NA,NA,NA,NA,NA,NA,NA,NA,NA,NA,NA,NA,NA
f7fe7,Deep Question,html.Page,3_0_3_0_1_0_0,NA,NA,form submission,5828.9,597651,597647.42,597664.1,603493,603493,2023-07-10T09:24:44Z,603496.66,NULL,Atmosphäre,angahewa,d,NA,NA,NA,haengso,NA,NA,3,NA,NA,NA,NA,NA,NA,NA,NA,NA,NA,NA,NA,NA,NA,NA,NA,NA,NA,NA
f7fe7,"""Richtig""-Screen",canvas.Screen,3_0_3_0_1_0_1,NA,NA,skipped,NA,603496,NA,NA,603493,603496,2023-07-10T09:24:44Z,603496.66,NULL,Atmosphäre,angahewa,d,NA,NA,NA,NA,qt,NA,3,NA,NA,NA,NA,NA,NA,NA,NA,NA,NA,NA,NA,NA,NA,NA,NA,NA,NA,NA
f7fe7,"""Falsch""-Screen",canvas.Screen,3_0_3_0_1_0_2,NA,NA,timeout,4999.3199999999,603498,603491.52,603496.66,608479.32,608481,2023-07-10T09:24:49Z,608495.98,NULL,Atmosphäre,angahewa,d,NA,NA,NA,NA,qt,0,3,NA,NA,NA,NA,NA,NA,NA,NA,NA,NA,NA,NA,NA,NA,NA,NA,NA,NA,NA
f7fe7,deep,flow.Sequence,3_0_3_0_1_0,NA,NA,completion,10815.22,597651,597647.42,597664.1,608479.32,608481,2023-07-10T09:24:49Z,608495.98,NULL,Atmosphäre,angahewa,d,NA,NA,NA,NA,qt,NA,3,NA,NA,NA,NA,NA,NA,NA,NA,NA,NA,NA,NA,NA,NA,NA,NA,NA,NA,NA
f7fe7,shallow,flow.Sequence,3_0_3_0_1_1,NA,NA,skipped,NA,608481,NA,NA,608479.32,608481,2023-07-10T09:24:49Z,608495.98,NULL,Atmosphäre,angahewa,d,NA,NA,NA,NA,qt,NA,3,NA,NA,NA,NA,NA,NA,NA,NA,NA,NA,NA,NA,NA,NA,NA,NA,NA,NA,NA
f7fe7,task,flow.Sequence,3_0_3_0_1,NA,NA,completion,10815.22,597651,597647.42,597664.1,608479.32,608482,2023-07-10T09:24:49Z,608495.98,NULL,Atmosphäre,angahewa,d,NA,NA,NA,NA,qt,NA,3,NA,NA,NA,NA,NA,NA,NA,NA,NA,NA,NA,NA,NA,NA,NA,NA,NA,NA,NA
f7fe7,deep,flow.Sequence,3_0_3_0_2_0,NA,NA,skipped,NA,608482,NA,NA,608479.32,608482,2023-07-10T09:24:49Z,608495.98,NULL,Angreifer,mshambulizi,s,kitengo,tasinia,usafirishaji,NA,qt,NA,3,NA,NA,NA,NA,NA,NA,NA,NA,NA,NA,NA,NA,NA,NA,NA,NA,NA,NA,NA
f7fe7,Shallow Question,html.Page,3_0_3_0_2_1_0,NA,NA,form submission,7856.02,608483,608479.32,608495.98,616352,616352,2023-07-10T09:24:57Z,616350.98,NULL,Angreifer,mshambulizi,s,kitengo,tasinia,usafirishaji,mshambulizi,NA,NA,3,NA,NA,NA,NA,NA,NA,NA,NA,NA,NA,NA,NA,NA,NA,NA,NA,NA,NA,NA
f7fe7,"""Richtig""-Screen",canvas.Screen,3_0_3_0_2_1_1,NA,NA,timeout,4993.36,616355,616350.62,616350.98,621327.68,621335,2023-07-10T09:25:02Z,621344.34,NULL,Angreifer,mshambulizi,s,kitengo,tasinia,usafirishaji,NA,qt,1,3,NA,NA,NA,NA,NA,NA,NA,NA,NA,NA,NA,NA,NA,NA,NA,NA,NA,NA,NA
f7fe7,"""Falsch""-Screen",canvas.Screen,3_0_3_0_2_1_2,NA,NA,skipped,NA,621352,NA,NA,621327.68,621352,2023-07-10T09:25:02Z,621344.34,NULL,Angreifer,mshambulizi,s,kitengo,tasinia,usafirishaji,NA,qt,NA,3,NA,NA,NA,NA,NA,NA,NA,NA,NA,NA,NA,NA,NA,NA,NA,NA,NA,NA,NA
f7fe7,shallow,flow.Sequence,3_0_3_0_2_1,NA,NA,completion,12831.7,608482,608479.32,608495.98,621327.68,621353,2023-07-10T09:25:02Z,621344.34,NULL,Angreifer,mshambulizi,s,kitengo,tasinia,usafirishaji,NA,qt,NA,3,NA,NA,NA,NA,NA,NA,NA,NA,NA,NA,NA,NA,NA,NA,NA,NA,NA,NA,NA
f7fe7,task,flow.Sequence,3_0_3_0_2,NA,NA,completion,12831.7,608482,608479.32,608495.98,621327.68,621354,2023-07-10T09:25:02Z,621344.34,NULL,Angreifer,mshambulizi,s,kitengo,tasinia,usafirishaji,NA,qt,NA,3,NA,NA,NA,NA,NA,NA,NA,NA,NA,NA,NA,NA,NA,NA,NA,NA,NA,NA,NA
f7fe7,deep,flow.Sequence,3_0_3_0_3_0,NA,NA,skipped,NA,621354,NA,NA,621327.68,621355,2023-07-10T09:25:02Z,621344.34,NULL,Sänger,mwimbaji,s,msichana,shughuli,mshirika,NA,qt,NA,3,NA,NA,NA,NA,NA,NA,NA,NA,NA,NA,NA,NA,NA,NA,NA,NA,NA,NA,NA
f7fe7,Shallow Question,html.Page,3_0_3_0_3_1_0,NA,NA,form submission,3471.66,621355,621327.68,621344.34,624816,624817,2023-07-10T09:25:06Z,624814.58,NULL,Sänger,mwimbaji,s,msichana,shughuli,mshirika,mwimbaji,NA,NA,3,NA,NA,NA,NA,NA,NA,NA,NA,NA,NA,NA,NA,NA,NA,NA,NA,NA,NA,NA
f7fe7,"""Richtig""-Screen",canvas.Screen,3_0_3_0_3_1_1,NA,NA,timeout,4995.3400000001,624819,624814.2,624814.58,629793.28,629795,2023-07-10T09:25:10Z,629809.92,NULL,Sänger,mwimbaji,s,msichana,shughuli,mshirika,NA,qt,1,3,NA,NA,NA,NA,NA,NA,NA,NA,NA,NA,NA,NA,NA,NA,NA,NA,NA,NA,NA
f7fe7,"""Falsch""-Screen",canvas.Screen,3_0_3_0_3_1_2,NA,NA,skipped,NA,629802,NA,NA,629793.28,629803,2023-07-10T09:25:10Z,629809.92,NULL,Sänger,mwimbaji,s,msichana,shughuli,mshirika,NA,qt,NA,3,NA,NA,NA,NA,NA,NA,NA,NA,NA,NA,NA,NA,NA,NA,NA,NA,NA,NA,NA
f7fe7,shallow,flow.Sequence,3_0_3_0_3_1,NA,NA,completion,8448.9400000001,621355,621327.68,621344.34,629793.28,629803,2023-07-10T09:25:10Z,629809.92,NULL,Sänger,mwimbaji,s,msichana,shughuli,mshirika,NA,qt,NA,3,NA,NA,NA,NA,NA,NA,NA,NA,NA,NA,NA,NA,NA,NA,NA,NA,NA,NA,NA
f7fe7,task,flow.Sequence,3_0_3_0_3,NA,NA,completion,8448.9400000001,621354,621327.68,621344.34,629793.28,629804,2023-07-10T09:25:10Z,629809.92,NULL,Sänger,mwimbaji,s,msichana,shughuli,mshirika,NA,qt,NA,3,NA,NA,NA,NA,NA,NA,NA,NA,NA,NA,NA,NA,NA,NA,NA,NA,NA,NA,NA
f7fe7,Deep Question,html.Page,3_0_3_0_4_0_0,NA,NA,form submission,4711.08,629804,629793.28,629809.92,634521,634522,2023-07-10T09:25:15Z,634525.92,NULL,Kanzler,diwani,d,NA,NA,NA,diwani,NA,NA,3,NA,NA,NA,NA,NA,NA,NA,NA,NA,NA,NA,NA,NA,NA,NA,NA,NA,NA,NA
f7fe7,"""Richtig""-Screen",canvas.Screen,3_0_3_0_4_0_1,NA,NA,timeout,4999.4399999999,634524,634520.12,634525.92,639508.7,639510,2023-07-10T09:25:20Z,639525.36,NULL,Kanzler,diwani,d,NA,NA,NA,NA,qt,1,3,NA,NA,NA,NA,NA,NA,NA,NA,NA,NA,NA,NA,NA,NA,NA,NA,NA,NA,NA
f7fe7,"""Falsch""-Screen",canvas.Screen,3_0_3_0_4_0_2,NA,NA,skipped,NA,639517,NA,NA,639508.7,639518,2023-07-10T09:25:20Z,639525.36,NULL,Kanzler,diwani,d,NA,NA,NA,NA,qt,NA,3,NA,NA,NA,NA,NA,NA,NA,NA,NA,NA,NA,NA,NA,NA,NA,NA,NA,NA,NA
f7fe7,deep,flow.Sequence,3_0_3_0_4_0,NA,NA,completion,9698.7799999999,629804,629793.28,629809.92,639508.7,639519,2023-07-10T09:25:20Z,639525.36,NULL,Kanzler,diwani,d,NA,NA,NA,NA,qt,NA,3,NA,NA,NA,NA,NA,NA,NA,NA,NA,NA,NA,NA,NA,NA,NA,NA,NA,NA,NA
f7fe7,shallow,flow.Sequence,3_0_3_0_4_1,NA,NA,skipped,NA,639519,NA,NA,639508.7,639519,2023-07-10T09:25:20Z,639525.36,NULL,Kanzler,diwani,d,NA,NA,NA,NA,qt,NA,3,NA,NA,NA,NA,NA,NA,NA,NA,NA,NA,NA,NA,NA,NA,NA,NA,NA,NA,NA
f7fe7,task,flow.Sequence,3_0_3_0_4,NA,NA,completion,9698.7799999999,629804,629793.28,629809.92,639508.7,639520,2023-07-10T09:25:20Z,639525.36,NULL,Kanzler,diwani,d,NA,NA,NA,NA,qt,NA,3,NA,NA,NA,NA,NA,NA,NA,NA,NA,NA,NA,NA,NA,NA,NA,NA,NA,NA,NA
f7fe7,Deep Question,html.Page,3_0_3_0_5_0_0,NA,NA,form submission,13487.64,639520,639508.7,639525.36,653013,653013,2023-07-10T09:25:34Z,653012,NULL,Flexibilität,kubadilika,d,NA,NA,NA,usehang,NA,NA,3,NA,NA,NA,NA,NA,NA,NA,NA,NA,NA,NA,NA,NA,NA,NA,NA,NA,NA,NA
f7fe7,"""Richtig""-Screen",canvas.Screen,3_0_3_0_5_0_1,NA,NA,skipped,NA,653017,NA,NA,653013,653017,2023-07-10T09:25:34Z,653012,NULL,Flexibilität,kubadilika,d,NA,NA,NA,NA,qt,NA,3,NA,NA,NA,NA,NA,NA,NA,NA,NA,NA,NA,NA,NA,NA,NA,NA,NA,NA,NA
f7fe7,"""Falsch""-Screen",canvas.Screen,3_0_3_0_5_0_2,NA,NA,timeout,4994.28,653020,653011.68,653012,657989.6,657990,2023-07-10T09:25:39Z,658006.28,NULL,Flexibilität,kubadilika,d,NA,NA,NA,NA,qt,0,3,NA,NA,NA,NA,NA,NA,NA,NA,NA,NA,NA,NA,NA,NA,NA,NA,NA,NA,NA
f7fe7,deep,flow.Sequence,3_0_3_0_5_0,NA,NA,completion,18464.24,639520,639508.7,639525.36,657989.6,657991,2023-07-10T09:25:39Z,658006.28,NULL,Flexibilität,kubadilika,d,NA,NA,NA,NA,qt,NA,3,NA,NA,NA,NA,NA,NA,NA,NA,NA,NA,NA,NA,NA,NA,NA,NA,NA,NA,NA
f7fe7,shallow,flow.Sequence,3_0_3_0_5_1,NA,NA,skipped,NA,657991,NA,NA,657989.6,657991,2023-07-10T09:25:39Z,658006.28,NULL,Flexibilität,kubadilika,d,NA,NA,NA,NA,qt,NA,3,NA,NA,NA,NA,NA,NA,NA,NA,NA,NA,NA,NA,NA,NA,NA,NA,NA,NA,NA
f7fe7,task,flow.Sequence,3_0_3_0_5,NA,NA,completion,18464.24,639520,639508.7,639525.36,657989.6,657991,2023-07-10T09:25:39Z,658006.28,NULL,Flexibilität,kubadilika,d,NA,NA,NA,NA,qt,NA,3,NA,NA,NA,NA,NA,NA,NA,NA,NA,NA,NA,NA,NA,NA,NA,NA,NA,NA,NA
f7fe7,deep,flow.Sequence,3_0_3_0_6_0,NA,NA,skipped,NA,657991,NA,NA,657989.6,657991,2023-07-10T09:25:39Z,658006.28,NULL,Erneuerung,ukarabati,s,ushawishi,ukalifu,unyonyaji,NA,qt,NA,3,NA,NA,NA,NA,NA,NA,NA,NA,NA,NA,NA,NA,NA,NA,NA,NA,NA,NA,NA
f7fe7,Shallow Question,html.Page,3_0_3_0_6_1_0,NA,NA,form submission,6449.72,657992,657989.6,658006.28,664456,664457,2023-07-10T09:25:45Z,664455.54,NULL,Erneuerung,ukarabati,s,ushawishi,ukalifu,unyonyaji,ukarabati,NA,NA,3,NA,NA,NA,NA,NA,NA,NA,NA,NA,NA,NA,NA,NA,NA,NA,NA,NA,NA,NA
f7fe7,"""Richtig""-Screen",canvas.Screen,3_0_3_0_6_1_1,NA,NA,timeout,4999.24,664459,664455.3,664455.54,669438.14,669440,2023-07-10T09:25:50Z,669454.78,NULL,Erneuerung,ukarabati,s,ushawishi,ukalifu,unyonyaji,NA,qt,1,3,NA,NA,NA,NA,NA,NA,NA,NA,NA,NA,NA,NA,NA,NA,NA,NA,NA,NA,NA
f7fe7,"""Falsch""-Screen",canvas.Screen,3_0_3_0_6_1_2,NA,NA,skipped,NA,669447,NA,NA,669438.14,669447,2023-07-10T09:25:50Z,669454.78,NULL,Erneuerung,ukarabati,s,ushawishi,ukalifu,unyonyaji,NA,qt,NA,3,NA,NA,NA,NA,NA,NA,NA,NA,NA,NA,NA,NA,NA,NA,NA,NA,NA,NA,NA
f7fe7,shallow,flow.Sequence,3_0_3_0_6_1,NA,NA,completion,11431.86,657992,657989.6,658006.28,669438.14,669447,2023-07-10T09:25:50Z,669454.78,NULL,Erneuerung,ukarabati,s,ushawishi,ukalifu,unyonyaji,NA,qt,NA,3,NA,NA,NA,NA,NA,NA,NA,NA,NA,NA,NA,NA,NA,NA,NA,NA,NA,NA,NA
f7fe7,task,flow.Sequence,3_0_3_0_6,NA,NA,completion,11431.86,657991,657989.6,658006.28,669438.14,669448,2023-07-10T09:25:50Z,669454.78,NULL,Erneuerung,ukarabati,s,ushawishi,ukalifu,unyonyaji,NA,qt,NA,3,NA,NA,NA,NA,NA,NA,NA,NA,NA,NA,NA,NA,NA,NA,NA,NA,NA,NA,NA
f7fe7,deep,flow.Sequence,3_0_3_0_7_0,NA,NA,skipped,NA,669448,NA,NA,669438.14,669449,2023-07-10T09:25:50Z,669454.78,NULL,Wechsel,ugeuzaji,s,utambulisho,kujenga,wasiwasi,NA,qt,NA,3,NA,NA,NA,NA,NA,NA,NA,NA,NA,NA,NA,NA,NA,NA,NA,NA,NA,NA,NA
f7fe7,Shallow Question,html.Page,3_0_3_0_7_1_0,NA,NA,form submission,12087.22,669449,669438.14,669454.78,681542,681542,2023-07-10T09:26:02Z,681541.68,NULL,Wechsel,ugeuzaji,s,utambulisho,kujenga,wasiwasi,ugeuzaji,NA,NA,3,NA,NA,NA,NA,NA,NA,NA,NA,NA,NA,NA,NA,NA,NA,NA,NA,NA,NA,NA
f7fe7,"""Richtig""-Screen",canvas.Screen,3_0_3_0_7_1_1,NA,NA,timeout,4994.24,681545,681541.4,681541.68,686519.26,686520,2023-07-10T09:26:07Z,686535.92,NULL,Wechsel,ugeuzaji,s,utambulisho,kujenga,wasiwasi,NA,qt,1,3,NA,NA,NA,NA,NA,NA,NA,NA,NA,NA,NA,NA,NA,NA,NA,NA,NA,NA,NA
f7fe7,"""Falsch""-Screen",canvas.Screen,3_0_3_0_7_1_2,NA,NA,skipped,NA,686522,NA,NA,686519.26,686523,2023-07-10T09:26:07Z,686535.92,NULL,Wechsel,ugeuzaji,s,utambulisho,kujenga,wasiwasi,NA,qt,NA,3,NA,NA,NA,NA,NA,NA,NA,NA,NA,NA,NA,NA,NA,NA,NA,NA,NA,NA,NA
f7fe7,shallow,flow.Sequence,3_0_3_0_7_1,NA,NA,completion,17064.48,669449,669438.14,669454.78,686519.26,686523,2023-07-10T09:26:07Z,686535.92,NULL,Wechsel,ugeuzaji,s,utambulisho,kujenga,wasiwasi,NA,qt,NA,3,NA,NA,NA,NA,NA,NA,NA,NA,NA,NA,NA,NA,NA,NA,NA,NA,NA,NA,NA
f7fe7,task,flow.Sequence,3_0_3_0_7,NA,NA,completion,17064.48,669448,669438.14,669454.78,686519.26,686523,2023-07-10T09:26:07Z,686535.92,NULL,Wechsel,ugeuzaji,s,utambulisho,kujenga,wasiwasi,NA,qt,NA,3,NA,NA,NA,NA,NA,NA,NA,NA,NA,NA,NA,NA,NA,NA,NA,NA,NA,NA,NA
f7fe7,block,flow.Loop,3_0_3_0,NA,NA,completion,102097.96,584420,584420.94,584421.3,686519.26,686523,2023-07-10T09:26:07Z,686535.92,NULL,NA,NA,NA,NA,NA,NA,NA,qt,NA,3,NA,NA,NA,NA,NA,NA,NA,NA,NA,NA,NA,NA,NA,NA,NA,NA,NA,NA,NA
f7fe7,weiter,canvas.Screen,3_0_3_1,sdf,keypress(Space),response,937.07999999996,686523,686519.26,686535.92,687473,687490,2023-07-10T09:26:08Z,687558.22,NULL,NA,NA,NA,NA,NA,NA,NA,qt,NA,3,NA,NA,NA,NA,NA,NA,NA,NA,NA,NA,NA,NA,NA,NA,NA,NA,NA,NA,NA
f7fe7,check continue,flow.Sequence,3_0_3,NA,NA,completion,103051.7,584420,584420.94,584421.3,687473,687491,2023-07-10T09:26:08Z,687558.22,NULL,NA,NA,NA,NA,NA,NA,NA,qt,NA,3,NA,NA,NA,NA,NA,NA,NA,NA,NA,NA,NA,NA,NA,NA,NA,NA,NA,NA,NA
f7fe7,Deep Question,html.Page,3_0_4_0_0_0_0,NA,NA,form submission,13421.78,687558,687557.92,687558.22,700980,700981,2023-07-10T09:26:22Z,700984.06,NULL,Abrechnung,uhasibu,d,NA,NA,NA,kuwadilika,NA,NA,4,NA,NA,NA,NA,NA,NA,NA,NA,NA,NA,NA,NA,NA,NA,NA,NA,NA,NA,NA
f7fe7,"""Richtig""-Screen",canvas.Screen,3_0_4_0_0_0_1,NA,NA,skipped,NA,700983,NA,NA,700980,700983,2023-07-10T09:26:22Z,700984.06,NULL,Abrechnung,uhasibu,d,NA,NA,NA,NA,sd,NA,4,NA,NA,NA,NA,NA,NA,NA,NA,NA,NA,NA,NA,NA,NA,NA,NA,NA,NA,NA
f7fe7,"""Falsch""-Screen",canvas.Screen,3_0_4_0_0_0_2,NA,NA,timeout,4999.34,700986,700978.94,700984.06,705966.74,705968,2023-07-10T09:26:27Z,705983.4,NULL,Abrechnung,uhasibu,d,NA,NA,NA,NA,sd,0,4,NA,NA,NA,NA,NA,NA,NA,NA,NA,NA,NA,NA,NA,NA,NA,NA,NA,NA,NA
f7fe7,deep,flow.Sequence,3_0_4_0_0_0,NA,NA,completion,18408.52,687558,687557.92,687558.22,705966.74,705969,2023-07-10T09:26:27Z,705983.4,NULL,Abrechnung,uhasibu,d,NA,NA,NA,NA,sd,NA,4,NA,NA,NA,NA,NA,NA,NA,NA,NA,NA,NA,NA,NA,NA,NA,NA,NA,NA,NA
f7fe7,shallow,flow.Sequence,3_0_4_0_0_1,NA,NA,skipped,NA,705969,NA,NA,705966.74,705970,2023-07-10T09:26:27Z,705983.4,NULL,Abrechnung,uhasibu,d,NA,NA,NA,NA,sd,NA,4,NA,NA,NA,NA,NA,NA,NA,NA,NA,NA,NA,NA,NA,NA,NA,NA,NA,NA,NA
f7fe7,task,flow.Sequence,3_0_4_0_0,NA,NA,completion,18408.52,687558,687557.92,687558.22,705966.74,705971,2023-07-10T09:26:27Z,705983.4,NULL,Abrechnung,uhasibu,d,NA,NA,NA,NA,sd,NA,4,NA,NA,NA,NA,NA,NA,NA,NA,NA,NA,NA,NA,NA,NA,NA,NA,NA,NA,NA
f7fe7,deep,flow.Sequence,3_0_4_0_1_0,NA,NA,skipped,NA,705971,NA,NA,705966.74,705971,2023-07-10T09:26:27Z,705983.4,NULL,Erneuerung,ukarabati,s,ushawishi,ukalifu,unyonyaji,NA,sd,NA,4,NA,NA,NA,NA,NA,NA,NA,NA,NA,NA,NA,NA,NA,NA,NA,NA,NA,NA,NA
f7fe7,Shallow Question,html.Page,3_0_4_0_1_1_0,NA,NA,form submission,5750.6,705972,705966.74,705983.4,711734,711734,2023-07-10T09:26:32Z,711733.48,NULL,Erneuerung,ukarabati,s,ushawishi,ukalifu,unyonyaji,ukarabati,NA,NA,4,NA,NA,NA,NA,NA,NA,NA,NA,NA,NA,NA,NA,NA,NA,NA,NA,NA,NA,NA
f7fe7,"""Richtig""-Screen",canvas.Screen,3_0_4_0_1_1_1,NA,NA,timeout,4998.5600000001,711736,711733.28,711733.48,716715.4,716723,2023-07-10T09:26:37Z,716732.04,NULL,Erneuerung,ukarabati,s,ushawishi,ukalifu,unyonyaji,NA,sd,1,4,NA,NA,NA,NA,NA,NA,NA,NA,NA,NA,NA,NA,NA,NA,NA,NA,NA,NA,NA
f7fe7,"""Falsch""-Screen",canvas.Screen,3_0_4_0_1_1_2,NA,NA,skipped,NA,716737,NA,NA,716715.4,716737,2023-07-10T09:26:37Z,716732.04,NULL,Erneuerung,ukarabati,s,ushawishi,ukalifu,unyonyaji,NA,sd,NA,4,NA,NA,NA,NA,NA,NA,NA,NA,NA,NA,NA,NA,NA,NA,NA,NA,NA,NA,NA
f7fe7,shallow,flow.Sequence,3_0_4_0_1_1,NA,NA,completion,10732,705972,705966.74,705983.4,716715.4,716738,2023-07-10T09:26:37Z,716732.04,NULL,Erneuerung,ukarabati,s,ushawishi,ukalifu,unyonyaji,NA,sd,NA,4,NA,NA,NA,NA,NA,NA,NA,NA,NA,NA,NA,NA,NA,NA,NA,NA,NA,NA,NA
f7fe7,task,flow.Sequence,3_0_4_0_1,NA,NA,completion,10732,705971,705966.74,705983.4,716715.4,716738,2023-07-10T09:26:37Z,716732.04,NULL,Erneuerung,ukarabati,s,ushawishi,ukalifu,unyonyaji,NA,sd,NA,4,NA,NA,NA,NA,NA,NA,NA,NA,NA,NA,NA,NA,NA,NA,NA,NA,NA,NA,NA
f7fe7,Deep Question,html.Page,3_0_4_0_2_0_0,NA,NA,form submission,3904.96,716739,716715.4,716732.04,720637,720637,2023-07-10T09:26:41Z,720647.9,NULL,Kanzler,diwani,d,NA,NA,NA,diwani,NA,NA,4,NA,NA,NA,NA,NA,NA,NA,NA,NA,NA,NA,NA,NA,NA,NA,NA,NA,NA,NA
f7fe7,"""Richtig""-Screen",canvas.Screen,3_0_4_0_2_0_1,NA,NA,timeout,4999.66,720639,720635.6,720647.9,725630.9,725633,2023-07-10T09:26:46Z,725647.56,NULL,Kanzler,diwani,d,NA,NA,NA,NA,sd,1,4,NA,NA,NA,NA,NA,NA,NA,NA,NA,NA,NA,NA,NA,NA,NA,NA,NA,NA,NA
f7fe7,"""Falsch""-Screen",canvas.Screen,3_0_4_0_2_0_2,NA,NA,skipped,NA,725639,NA,NA,725630.9,725640,2023-07-10T09:26:46Z,725647.56,NULL,Kanzler,diwani,d,NA,NA,NA,NA,sd,NA,4,NA,NA,NA,NA,NA,NA,NA,NA,NA,NA,NA,NA,NA,NA,NA,NA,NA,NA,NA
f7fe7,deep,flow.Sequence,3_0_4_0_2_0,NA,NA,completion,8898.86,716739,716715.4,716732.04,725630.9,725641,2023-07-10T09:26:46Z,725647.56,NULL,Kanzler,diwani,d,NA,NA,NA,NA,sd,NA,4,NA,NA,NA,NA,NA,NA,NA,NA,NA,NA,NA,NA,NA,NA,NA,NA,NA,NA,NA
f7fe7,shallow,flow.Sequence,3_0_4_0_2_1,NA,NA,skipped,NA,725642,NA,NA,725630.9,725642,2023-07-10T09:26:46Z,725647.56,NULL,Kanzler,diwani,d,NA,NA,NA,NA,sd,NA,4,NA,NA,NA,NA,NA,NA,NA,NA,NA,NA,NA,NA,NA,NA,NA,NA,NA,NA,NA
f7fe7,task,flow.Sequence,3_0_4_0_2,NA,NA,completion,8898.86,716738,716715.4,716732.04,725630.9,725642,2023-07-10T09:26:46Z,725647.56,NULL,Kanzler,diwani,d,NA,NA,NA,NA,sd,NA,4,NA,NA,NA,NA,NA,NA,NA,NA,NA,NA,NA,NA,NA,NA,NA,NA,NA,NA,NA
f7fe7,deep,flow.Sequence,3_0_4_0_3_0,NA,NA,skipped,NA,725643,NA,NA,725630.9,725643,2023-07-10T09:26:46Z,725647.56,NULL,Sänger,mwimbaji,s,msichana,shughuli,mshirika,NA,sd,NA,4,NA,NA,NA,NA,NA,NA,NA,NA,NA,NA,NA,NA,NA,NA,NA,NA,NA,NA,NA
f7fe7,Shallow Question,html.Page,3_0_4_0_3_1_0,NA,NA,form submission,4050.4399999999,725644,725630.9,725647.56,729698,729699,2023-07-10T09:26:50Z,729697.5,NULL,Sänger,mwimbaji,s,msichana,shughuli,mshirika,mwimbaji,NA,NA,4,NA,NA,NA,NA,NA,NA,NA,NA,NA,NA,NA,NA,NA,NA,NA,NA,NA,NA,NA
f7fe7,"""Richtig""-Screen",canvas.Screen,3_0_4_0_3_1_1,NA,NA,timeout,4998.84,729702,729697.12,729697.5,734679.74,734681,2023-07-10T09:26:55Z,734696.34,NULL,Sänger,mwimbaji,s,msichana,shughuli,mshirika,NA,sd,1,4,NA,NA,NA,NA,NA,NA,NA,NA,NA,NA,NA,NA,NA,NA,NA,NA,NA,NA,NA
f7fe7,"""Falsch""-Screen",canvas.Screen,3_0_4_0_3_1_2,NA,NA,skipped,NA,734689,NA,NA,734679.74,734689,2023-07-10T09:26:55Z,734696.34,NULL,Sänger,mwimbaji,s,msichana,shughuli,mshirika,NA,sd,NA,4,NA,NA,NA,NA,NA,NA,NA,NA,NA,NA,NA,NA,NA,NA,NA,NA,NA,NA,NA
f7fe7,shallow,flow.Sequence,3_0_4_0_3_1,NA,NA,completion,9032.1799999999,725644,725630.9,725647.56,734679.74,734690,2023-07-10T09:26:55Z,734696.34,NULL,Sänger,mwimbaji,s,msichana,shughuli,mshirika,NA,sd,NA,4,NA,NA,NA,NA,NA,NA,NA,NA,NA,NA,NA,NA,NA,NA,NA,NA,NA,NA,NA
f7fe7,task,flow.Sequence,3_0_4_0_3,NA,NA,completion,9032.1799999999,725643,725630.9,725647.56,734679.74,734690,2023-07-10T09:26:55Z,734696.34,NULL,Sänger,mwimbaji,s,msichana,shughuli,mshirika,NA,sd,NA,4,NA,NA,NA,NA,NA,NA,NA,NA,NA,NA,NA,NA,NA,NA,NA,NA,NA,NA,NA
f7fe7,deep,flow.Sequence,3_0_4_0_4_0,NA,NA,skipped,NA,734691,NA,NA,734679.74,734691,2023-07-10T09:26:55Z,734696.34,NULL,Wechsel,ugeuzaji,s,utambulisho,kujenga,wasiwasi,NA,sd,NA,4,NA,NA,NA,NA,NA,NA,NA,NA,NA,NA,NA,NA,NA,NA,NA,NA,NA,NA,NA
f7fe7,Shallow Question,html.Page,3_0_4_0_4_1_0,NA,NA,form submission,6386.66,734692,734679.74,734696.34,741083,741083,2023-07-10T09:27:02Z,741082.02,NULL,Wechsel,ugeuzaji,s,utambulisho,kujenga,wasiwasi,ugeuzaji,NA,NA,4,NA,NA,NA,NA,NA,NA,NA,NA,NA,NA,NA,NA,NA,NA,NA,NA,NA,NA,NA
f7fe7,"""Richtig""-Screen",canvas.Screen,3_0_4_0_4_1_1,NA,NA,timeout,4996.24,741087,741081.78,741082.02,746061.6,746063,2023-07-10T09:27:07Z,746078.26,NULL,Wechsel,ugeuzaji,s,utambulisho,kujenga,wasiwasi,NA,sd,1,4,NA,NA,NA,NA,NA,NA,NA,NA,NA,NA,NA,NA,NA,NA,NA,NA,NA,NA,NA
f7fe7,"""Falsch""-Screen",canvas.Screen,3_0_4_0_4_1_2,NA,NA,skipped,NA,746070,NA,NA,746061.6,746070,2023-07-10T09:27:07Z,746078.26,NULL,Wechsel,ugeuzaji,s,utambulisho,kujenga,wasiwasi,NA,sd,NA,4,NA,NA,NA,NA,NA,NA,NA,NA,NA,NA,NA,NA,NA,NA,NA,NA,NA,NA,NA
f7fe7,shallow,flow.Sequence,3_0_4_0_4_1,NA,NA,completion,11365.26,734692,734679.74,734696.34,746061.6,746070,2023-07-10T09:27:07Z,746078.26,NULL,Wechsel,ugeuzaji,s,utambulisho,kujenga,wasiwasi,NA,sd,NA,4,NA,NA,NA,NA,NA,NA,NA,NA,NA,NA,NA,NA,NA,NA,NA,NA,NA,NA,NA
f7fe7,task,flow.Sequence,3_0_4_0_4,NA,NA,completion,11365.26,734691,734679.74,734696.34,746061.6,746070,2023-07-10T09:27:07Z,746078.26,NULL,Wechsel,ugeuzaji,s,utambulisho,kujenga,wasiwasi,NA,sd,NA,4,NA,NA,NA,NA,NA,NA,NA,NA,NA,NA,NA,NA,NA,NA,NA,NA,NA,NA,NA
f7fe7,Deep Question,html.Page,3_0_4_0_5_0_0,NA,NA,form submission,6953.74,746071,746061.6,746078.26,753032,753032,2023-07-10T09:27:14Z,753031.38,NULL,Flexibilität,kubadilika,d,NA,NA,NA,uhasibu,NA,NA,4,NA,NA,NA,NA,NA,NA,NA,NA,NA,NA,NA,NA,NA,NA,NA,NA,NA,NA,NA
f7fe7,"""Richtig""-Screen",canvas.Screen,3_0_4_0_5_0_1,NA,NA,skipped,NA,753035,NA,NA,753032,753035,2023-07-10T09:27:14Z,753031.38,NULL,Flexibilität,kubadilika,d,NA,NA,NA,NA,sd,NA,4,NA,NA,NA,NA,NA,NA,NA,NA,NA,NA,NA,NA,NA,NA,NA,NA,NA,NA,NA
f7fe7,"""Falsch""-Screen",canvas.Screen,3_0_4_0_5_0_2,NA,NA,timeout,4995.34,753039,753031,753031.38,758010.06,758012,2023-07-10T09:27:19Z,758026.72,NULL,Flexibilität,kubadilika,d,NA,NA,NA,NA,sd,0,4,NA,NA,NA,NA,NA,NA,NA,NA,NA,NA,NA,NA,NA,NA,NA,NA,NA,NA,NA
f7fe7,deep,flow.Sequence,3_0_4_0_5_0,NA,NA,completion,11931.8,746071,746061.6,746078.26,758010.06,758013,2023-07-10T09:27:19Z,758026.72,NULL,Flexibilität,kubadilika,d,NA,NA,NA,NA,sd,NA,4,NA,NA,NA,NA,NA,NA,NA,NA,NA,NA,NA,NA,NA,NA,NA,NA,NA,NA,NA
f7fe7,shallow,flow.Sequence,3_0_4_0_5_1,NA,NA,skipped,NA,758013,NA,NA,758010.06,758014,2023-07-10T09:27:19Z,758026.72,NULL,Flexibilität,kubadilika,d,NA,NA,NA,NA,sd,NA,4,NA,NA,NA,NA,NA,NA,NA,NA,NA,NA,NA,NA,NA,NA,NA,NA,NA,NA,NA
f7fe7,task,flow.Sequence,3_0_4_0_5,NA,NA,completion,11931.8,746071,746061.6,746078.26,758010.06,758014,2023-07-10T09:27:19Z,758026.72,NULL,Flexibilität,kubadilika,d,NA,NA,NA,NA,sd,NA,4,NA,NA,NA,NA,NA,NA,NA,NA,NA,NA,NA,NA,NA,NA,NA,NA,NA,NA,NA
f7fe7,deep,flow.Sequence,3_0_4_0_6_0,NA,NA,skipped,NA,758014,NA,NA,758010.06,758014,2023-07-10T09:27:19Z,758026.72,NULL,Angreifer,mshambulizi,s,kitengo,tasinia,usafirishaji,NA,sd,NA,4,NA,NA,NA,NA,NA,NA,NA,NA,NA,NA,NA,NA,NA,NA,NA,NA,NA,NA,NA
f7fe7,Shallow Question,html.Page,3_0_4_0_6_1_0,NA,NA,form submission,5339.28,758015,758010.06,758026.72,763366,763366,2023-07-10T09:27:24Z,763364.82,NULL,Angreifer,mshambulizi,s,kitengo,tasinia,usafirishaji,usafirishaji,NA,NA,4,NA,NA,NA,NA,NA,NA,NA,NA,NA,NA,NA,NA,NA,NA,NA,NA,NA,NA,NA
f7fe7,"""Richtig""-Screen",canvas.Screen,3_0_4_0_6_1_1,NA,NA,skipped,NA,763368,NA,NA,763366,763368,2023-07-10T09:27:24Z,763364.82,NULL,Angreifer,mshambulizi,s,kitengo,tasinia,usafirishaji,NA,sd,NA,4,NA,NA,NA,NA,NA,NA,NA,NA,NA,NA,NA,NA,NA,NA,NA,NA,NA,NA,NA
f7fe7,"""Falsch""-Screen",canvas.Screen,3_0_4_0_6_1_2,NA,NA,timeout,4993.8600000001,763369,763364.7,763364.82,768342.02,768343,2023-07-10T09:27:29Z,768358.68,NULL,Angreifer,mshambulizi,s,kitengo,tasinia,usafirishaji,NA,sd,0,4,NA,NA,NA,NA,NA,NA,NA,NA,NA,NA,NA,NA,NA,NA,NA,NA,NA,NA,NA
f7fe7,shallow,flow.Sequence,3_0_4_0_6_1,NA,NA,completion,10315.3,758015,758010.06,758026.72,768342.02,768344,2023-07-10T09:27:29Z,768358.68,NULL,Angreifer,mshambulizi,s,kitengo,tasinia,usafirishaji,NA,sd,NA,4,NA,NA,NA,NA,NA,NA,NA,NA,NA,NA,NA,NA,NA,NA,NA,NA,NA,NA,NA
f7fe7,task,flow.Sequence,3_0_4_0_6,NA,NA,completion,10315.3,758014,758010.06,758026.72,768342.02,768344,2023-07-10T09:27:29Z,768358.68,NULL,Angreifer,mshambulizi,s,kitengo,tasinia,usafirishaji,NA,sd,NA,4,NA,NA,NA,NA,NA,NA,NA,NA,NA,NA,NA,NA,NA,NA,NA,NA,NA,NA,NA
f7fe7,Deep Question,html.Page,3_0_4_0_7_0_0,NA,NA,form submission,3945.3199999999,768345,768342.02,768358.68,772304,772307,2023-07-10T09:27:33Z,772308.2,NULL,Atmosphäre,angahewa,d,NA,NA,NA,uhasibu,NA,NA,4,NA,NA,NA,NA,NA,NA,NA,NA,NA,NA,NA,NA,NA,NA,NA,NA,NA,NA,NA
f7fe7,"""Richtig""-Screen",canvas.Screen,3_0_4_0_7_0_1,NA,NA,skipped,NA,772316,NA,NA,772304,772316,2023-07-10T09:27:33Z,772308.2,NULL,Atmosphäre,angahewa,d,NA,NA,NA,NA,sd,NA,4,NA,NA,NA,NA,NA,NA,NA,NA,NA,NA,NA,NA,NA,NA,NA,NA,NA,NA,NA
f7fe7,"""Falsch""-Screen",canvas.Screen,3_0_4_0_7_0_2,NA,NA,timeout,4999.3600000001,772319,772301.46,772308.2,777290.88,777292,2023-07-10T09:27:38Z,777307.56,NULL,Atmosphäre,angahewa,d,NA,NA,NA,NA,sd,0,4,NA,NA,NA,NA,NA,NA,NA,NA,NA,NA,NA,NA,NA,NA,NA,NA,NA,NA,NA
f7fe7,deep,flow.Sequence,3_0_4_0_7_0,NA,NA,completion,8932.2,768345,768342.02,768358.68,777290.88,777294,2023-07-10T09:27:38Z,777307.56,NULL,Atmosphäre,angahewa,d,NA,NA,NA,NA,sd,NA,4,NA,NA,NA,NA,NA,NA,NA,NA,NA,NA,NA,NA,NA,NA,NA,NA,NA,NA,NA
f7fe7,shallow,flow.Sequence,3_0_4_0_7_1,NA,NA,skipped,NA,777294,NA,NA,777290.88,777295,2023-07-10T09:27:38Z,777307.56,NULL,Atmosphäre,angahewa,d,NA,NA,NA,NA,sd,NA,4,NA,NA,NA,NA,NA,NA,NA,NA,NA,NA,NA,NA,NA,NA,NA,NA,NA,NA,NA
f7fe7,task,flow.Sequence,3_0_4_0_7,NA,NA,completion,8932.2,768345,768342.02,768358.68,777290.88,777296,2023-07-10T09:27:38Z,777307.56,NULL,Atmosphäre,angahewa,d,NA,NA,NA,NA,sd,NA,4,NA,NA,NA,NA,NA,NA,NA,NA,NA,NA,NA,NA,NA,NA,NA,NA,NA,NA,NA
f7fe7,block,flow.Loop,3_0_4_0,NA,NA,completion,89732.66,687558,687557.92,687558.22,777290.88,777297,2023-07-10T09:27:38Z,777307.56,NULL,NA,NA,NA,NA,NA,NA,NA,sd,NA,4,NA,NA,NA,NA,NA,NA,NA,NA,NA,NA,NA,NA,NA,NA,NA,NA,NA,NA,NA
f7fe7,weiter,canvas.Screen,3_0_4_1,sdf,keypress(Space),response,1196.4399999999,777297,777290.88,777307.56,778504,778521,2023-07-10T09:27:39Z,778565.94,NULL,NA,NA,NA,NA,NA,NA,NA,sd,NA,4,NA,NA,NA,NA,NA,NA,NA,NA,NA,NA,NA,NA,NA,NA,NA,NA,NA,NA,NA
f7fe7,check continue,flow.Sequence,3_0_4,NA,NA,completion,90945.78,687558,687557.92,687558.22,778504,778521,2023-07-10T09:27:39Z,778565.94,NULL,NA,NA,NA,NA,NA,NA,NA,sd,NA,4,NA,NA,NA,NA,NA,NA,NA,NA,NA,NA,NA,NA,NA,NA,NA,NA,NA,NA,NA
f7fe7,Deep Question,html.Page,3_0_5_0_0_0_0,NA,NA,form submission,4465.0600000001,778565,778565.62,778565.94,783031,783031,2023-07-10T09:27:44Z,783029.86,NULL,Flexibilität,kubadilika,d,NA,NA,NA,uhasibu,NA,NA,5,NA,NA,NA,NA,NA,NA,NA,NA,NA,NA,NA,NA,NA,NA,NA,NA,NA,NA,NA
f7fe7,"""Richtig""-Screen",canvas.Screen,3_0_5_0_0_0_1,NA,NA,skipped,NA,783032,NA,NA,783031,783032,2023-07-10T09:27:44Z,783029.86,NULL,Flexibilität,kubadilika,d,NA,NA,NA,NA,sdf,NA,5,NA,NA,NA,NA,NA,NA,NA,NA,NA,NA,NA,NA,NA,NA,NA,NA,NA,NA,NA
f7fe7,"""Falsch""-Screen",canvas.Screen,3_0_5_0_0_0_2,NA,NA,timeout,4992.96,783033,783029.64,783029.86,788006.18,788008,2023-07-10T09:27:49Z,788022.82,NULL,Flexibilität,kubadilika,d,NA,NA,NA,NA,sdf,0,5,NA,NA,NA,NA,NA,NA,NA,NA,NA,NA,NA,NA,NA,NA,NA,NA,NA,NA,NA
f7fe7,deep,flow.Sequence,3_0_5_0_0_0,NA,NA,completion,9440.2400000001,778565,778565.62,778565.94,788006.18,788009,2023-07-10T09:27:49Z,788022.82,NULL,Flexibilität,kubadilika,d,NA,NA,NA,NA,sdf,NA,5,NA,NA,NA,NA,NA,NA,NA,NA,NA,NA,NA,NA,NA,NA,NA,NA,NA,NA,NA
f7fe7,shallow,flow.Sequence,3_0_5_0_0_1,NA,NA,skipped,NA,788009,NA,NA,788006.18,788009,2023-07-10T09:27:49Z,788022.82,NULL,Flexibilität,kubadilika,d,NA,NA,NA,NA,sdf,NA,5,NA,NA,NA,NA,NA,NA,NA,NA,NA,NA,NA,NA,NA,NA,NA,NA,NA,NA,NA
f7fe7,task,flow.Sequence,3_0_5_0_0,NA,NA,completion,9440.2400000001,778565,778565.62,778565.94,788006.18,788009,2023-07-10T09:27:49Z,788022.82,NULL,Flexibilität,kubadilika,d,NA,NA,NA,NA,sdf,NA,5,NA,NA,NA,NA,NA,NA,NA,NA,NA,NA,NA,NA,NA,NA,NA,NA,NA,NA,NA
f7fe7,deep,flow.Sequence,3_0_5_0_1_0,NA,NA,skipped,NA,788009,NA,NA,788006.18,788009,2023-07-10T09:27:49Z,788022.82,NULL,Sänger,mwimbaji,s,msichana,shughuli,mshirika,NA,sdf,NA,5,NA,NA,NA,NA,NA,NA,NA,NA,NA,NA,NA,NA,NA,NA,NA,NA,NA,NA,NA
f7fe7,Shallow Question,html.Page,3_0_5_0_1_1_0,NA,NA,form submission,4967.1800000001,788010,788006.18,788022.82,792990,792990,2023-07-10T09:27:54Z,792988.8,NULL,Sänger,mwimbaji,s,msichana,shughuli,mshirika,mwimbaji,NA,NA,5,NA,NA,NA,NA,NA,NA,NA,NA,NA,NA,NA,NA,NA,NA,NA,NA,NA,NA,NA
f7fe7,"""Richtig""-Screen",canvas.Screen,3_0_5_0_1_1_1,NA,NA,timeout,4999.38,792992,792987.94,792988.8,797971.62,797974,2023-07-10T09:27:59Z,797988.18,NULL,Sänger,mwimbaji,s,msichana,shughuli,mshirika,NA,sdf,1,5,NA,NA,NA,NA,NA,NA,NA,NA,NA,NA,NA,NA,NA,NA,NA,NA,NA,NA,NA
f7fe7,"""Falsch""-Screen",canvas.Screen,3_0_5_0_1_1_2,NA,NA,skipped,NA,797981,NA,NA,797971.62,797981,2023-07-10T09:27:59Z,797988.18,NULL,Sänger,mwimbaji,s,msichana,shughuli,mshirika,NA,sdf,NA,5,NA,NA,NA,NA,NA,NA,NA,NA,NA,NA,NA,NA,NA,NA,NA,NA,NA,NA,NA
f7fe7,shallow,flow.Sequence,3_0_5_0_1_1,NA,NA,completion,9948.8,788010,788006.18,788022.82,797971.62,797982,2023-07-10T09:27:59Z,797988.18,NULL,Sänger,mwimbaji,s,msichana,shughuli,mshirika,NA,sdf,NA,5,NA,NA,NA,NA,NA,NA,NA,NA,NA,NA,NA,NA,NA,NA,NA,NA,NA,NA,NA
f7fe7,task,flow.Sequence,3_0_5_0_1,NA,NA,completion,9948.8,788009,788006.18,788022.82,797971.62,797982,2023-07-10T09:27:59Z,797988.18,NULL,Sänger,mwimbaji,s,msichana,shughuli,mshirika,NA,sdf,NA,5,NA,NA,NA,NA,NA,NA,NA,NA,NA,NA,NA,NA,NA,NA,NA,NA,NA,NA,NA
f7fe7,Deep Question,html.Page,3_0_5_0_2_0_0,NA,NA,form submission,3753.8199999999,797982,797971.62,797988.18,801742,801742,2023-07-10T09:28:02Z,801754.4,NULL,Atmosphäre,angahewa,d,NA,NA,NA,uhasibu,NA,NA,5,NA,NA,NA,NA,NA,NA,NA,NA,NA,NA,NA,NA,NA,NA,NA,NA,NA,NA,NA
f7fe7,"""Richtig""-Screen",canvas.Screen,3_0_5_0_2_0_1,NA,NA,skipped,NA,801744,NA,NA,801742,801744,2023-07-10T09:28:02Z,801754.4,NULL,Atmosphäre,angahewa,d,NA,NA,NA,NA,sdf,NA,5,NA,NA,NA,NA,NA,NA,NA,NA,NA,NA,NA,NA,NA,NA,NA,NA,NA,NA,NA
f7fe7,"""Falsch""-Screen",canvas.Screen,3_0_5_0_2_0_2,NA,NA,timeout,4999.36,801747,801740.22,801754.4,806737.12,806739,2023-07-10T09:28:07Z,806753.76,NULL,Atmosphäre,angahewa,d,NA,NA,NA,NA,sdf,0,5,NA,NA,NA,NA,NA,NA,NA,NA,NA,NA,NA,NA,NA,NA,NA,NA,NA,NA,NA
f7fe7,deep,flow.Sequence,3_0_5_0_2_0,NA,NA,completion,8748.9399999999,797982,797971.62,797988.18,806737.12,806740,2023-07-10T09:28:07Z,806753.76,NULL,Atmosphäre,angahewa,d,NA,NA,NA,NA,sdf,NA,5,NA,NA,NA,NA,NA,NA,NA,NA,NA,NA,NA,NA,NA,NA,NA,NA,NA,NA,NA
f7fe7,shallow,flow.Sequence,3_0_5_0_2_1,NA,NA,skipped,NA,806740,NA,NA,806737.12,806740,2023-07-10T09:28:07Z,806753.76,NULL,Atmosphäre,angahewa,d,NA,NA,NA,NA,sdf,NA,5,NA,NA,NA,NA,NA,NA,NA,NA,NA,NA,NA,NA,NA,NA,NA,NA,NA,NA,NA
f7fe7,task,flow.Sequence,3_0_5_0_2,NA,NA,completion,8748.9399999999,797982,797971.62,797988.18,806737.12,806741,2023-07-10T09:28:07Z,806753.76,NULL,Atmosphäre,angahewa,d,NA,NA,NA,NA,sdf,NA,5,NA,NA,NA,NA,NA,NA,NA,NA,NA,NA,NA,NA,NA,NA,NA,NA,NA,NA,NA
f7fe7,deep,flow.Sequence,3_0_5_0_3_0,NA,NA,skipped,NA,806741,NA,NA,806737.12,806741,2023-07-10T09:28:07Z,806753.76,NULL,Erneuerung,ukarabati,s,ushawishi,ukalifu,unyonyaji,NA,sdf,NA,5,NA,NA,NA,NA,NA,NA,NA,NA,NA,NA,NA,NA,NA,NA,NA,NA,NA,NA,NA
f7fe7,Shallow Question,html.Page,3_0_5_0_3_1_0,NA,NA,form submission,6611.24,806742,806737.12,806753.76,813365,813365,2023-07-10T09:28:14Z,813369.56,NULL,Erneuerung,ukarabati,s,ushawishi,ukalifu,unyonyaji,ukarabati,NA,NA,5,NA,NA,NA,NA,NA,NA,NA,NA,NA,NA,NA,NA,NA,NA,NA,NA,NA,NA,NA
f7fe7,"""Richtig""-Screen",canvas.Screen,3_0_5_0_3_1_1,NA,NA,timeout,4999.3799999999,813368,813363.64,813369.56,818352.3,818354,2023-07-10T09:28:19Z,818368.94,NULL,Erneuerung,ukarabati,s,ushawishi,ukalifu,unyonyaji,NA,sdf,1,5,NA,NA,NA,NA,NA,NA,NA,NA,NA,NA,NA,NA,NA,NA,NA,NA,NA,NA,NA
f7fe7,"""Falsch""-Screen",canvas.Screen,3_0_5_0_3_1_2,NA,NA,skipped,NA,818360,NA,NA,818352.3,818360,2023-07-10T09:28:19Z,818368.94,NULL,Erneuerung,ukarabati,s,ushawishi,ukalifu,unyonyaji,NA,sdf,NA,5,NA,NA,NA,NA,NA,NA,NA,NA,NA,NA,NA,NA,NA,NA,NA,NA,NA,NA,NA
f7fe7,shallow,flow.Sequence,3_0_5_0_3_1,NA,NA,completion,11598.54,806741,806737.12,806753.76,818352.3,818361,2023-07-10T09:28:19Z,818368.94,NULL,Erneuerung,ukarabati,s,ushawishi,ukalifu,unyonyaji,NA,sdf,NA,5,NA,NA,NA,NA,NA,NA,NA,NA,NA,NA,NA,NA,NA,NA,NA,NA,NA,NA,NA
f7fe7,task,flow.Sequence,3_0_5_0_3,NA,NA,completion,11598.54,806741,806737.12,806753.76,818352.3,818361,2023-07-10T09:28:19Z,818368.94,NULL,Erneuerung,ukarabati,s,ushawishi,ukalifu,unyonyaji,NA,sdf,NA,5,NA,NA,NA,NA,NA,NA,NA,NA,NA,NA,NA,NA,NA,NA,NA,NA,NA,NA,NA
f7fe7,Deep Question,html.Page,3_0_5_0_4_0_0,NA,NA,form submission,9270.0600000001,818362,818352.3,818368.94,827639,827639,2023-07-10T09:28:28Z,827637.72,NULL,Abrechnung,uhasibu,d,NA,NA,NA,uhasibu,NA,NA,5,NA,NA,NA,NA,NA,NA,NA,NA,NA,NA,NA,NA,NA,NA,NA,NA,NA,NA,NA
f7fe7,"""Richtig""-Screen",canvas.Screen,3_0_5_0_4_0_1,NA,NA,timeout,4996.04,827641,827637.38,827637.72,832617.1,832617,2023-07-10T09:28:33Z,832633.76,NULL,Abrechnung,uhasibu,d,NA,NA,NA,NA,sdf,1,5,NA,NA,NA,NA,NA,NA,NA,NA,NA,NA,NA,NA,NA,NA,NA,NA,NA,NA,NA
f7fe7,"""Falsch""-Screen",canvas.Screen,3_0_5_0_4_0_2,NA,NA,skipped,NA,832620,NA,NA,832617.1,832621,2023-07-10T09:28:33Z,832633.76,NULL,Abrechnung,uhasibu,d,NA,NA,NA,NA,sdf,NA,5,NA,NA,NA,NA,NA,NA,NA,NA,NA,NA,NA,NA,NA,NA,NA,NA,NA,NA,NA
f7fe7,deep,flow.Sequence,3_0_5_0_4_0,NA,NA,completion,14248.16,818362,818352.3,818368.94,832617.1,832621,2023-07-10T09:28:33Z,832633.76,NULL,Abrechnung,uhasibu,d,NA,NA,NA,NA,sdf,NA,5,NA,NA,NA,NA,NA,NA,NA,NA,NA,NA,NA,NA,NA,NA,NA,NA,NA,NA,NA
f7fe7,shallow,flow.Sequence,3_0_5_0_4_1,NA,NA,skipped,NA,832621,NA,NA,832617.1,832621,2023-07-10T09:28:33Z,832633.76,NULL,Abrechnung,uhasibu,d,NA,NA,NA,NA,sdf,NA,5,NA,NA,NA,NA,NA,NA,NA,NA,NA,NA,NA,NA,NA,NA,NA,NA,NA,NA,NA
f7fe7,task,flow.Sequence,3_0_5_0_4,NA,NA,completion,14248.16,818361,818352.3,818368.94,832617.1,832621,2023-07-10T09:28:33Z,832633.76,NULL,Abrechnung,uhasibu,d,NA,NA,NA,NA,sdf,NA,5,NA,NA,NA,NA,NA,NA,NA,NA,NA,NA,NA,NA,NA,NA,NA,NA,NA,NA,NA
f7fe7,Deep Question,html.Page,3_0_5_0_5_0_0,NA,NA,form submission,4623.24,832621,832617.1,832633.76,837257,837257,2023-07-10T09:28:38Z,837266.46,NULL,Kanzler,diwani,d,NA,NA,NA,diwani,NA,NA,5,NA,NA,NA,NA,NA,NA,NA,NA,NA,NA,NA,NA,NA,NA,NA,NA,NA,NA,NA
f7fe7,"""Richtig""-Screen",canvas.Screen,3_0_5_0_5_0_1,NA,NA,timeout,4999.4,837259,837255.9,837266.46,842249.2,842250,2023-07-10T09:28:43Z,842265.86,NULL,Kanzler,diwani,d,NA,NA,NA,NA,sdf,1,5,NA,NA,NA,NA,NA,NA,NA,NA,NA,NA,NA,NA,NA,NA,NA,NA,NA,NA,NA
f7fe7,"""Falsch""-Screen",canvas.Screen,3_0_5_0_5_0_2,NA,NA,skipped,NA,842255,NA,NA,842249.2,842255,2023-07-10T09:28:43Z,842265.86,NULL,Kanzler,diwani,d,NA,NA,NA,NA,sdf,NA,5,NA,NA,NA,NA,NA,NA,NA,NA,NA,NA,NA,NA,NA,NA,NA,NA,NA,NA,NA
f7fe7,deep,flow.Sequence,3_0_5_0_5_0,NA,NA,completion,9615.4399999999,832621,832617.1,832633.76,842249.2,842255,2023-07-10T09:28:43Z,842265.86,NULL,Kanzler,diwani,d,NA,NA,NA,NA,sdf,NA,5,NA,NA,NA,NA,NA,NA,NA,NA,NA,NA,NA,NA,NA,NA,NA,NA,NA,NA,NA
f7fe7,shallow,flow.Sequence,3_0_5_0_5_1,NA,NA,skipped,NA,842256,NA,NA,842249.2,842256,2023-07-10T09:28:43Z,842265.86,NULL,Kanzler,diwani,d,NA,NA,NA,NA,sdf,NA,5,NA,NA,NA,NA,NA,NA,NA,NA,NA,NA,NA,NA,NA,NA,NA,NA,NA,NA,NA
f7fe7,task,flow.Sequence,3_0_5_0_5,NA,NA,completion,9615.4399999999,832621,832617.1,832633.76,842249.2,842256,2023-07-10T09:28:43Z,842265.86,NULL,Kanzler,diwani,d,NA,NA,NA,NA,sdf,NA,5,NA,NA,NA,NA,NA,NA,NA,NA,NA,NA,NA,NA,NA,NA,NA,NA,NA,NA,NA
f7fe7,deep,flow.Sequence,3_0_5_0_6_0,NA,NA,skipped,NA,842256,NA,NA,842249.2,842256,2023-07-10T09:28:43Z,842265.86,NULL,Wechsel,ugeuzaji,s,utambulisho,kujenga,wasiwasi,NA,sdf,NA,5,NA,NA,NA,NA,NA,NA,NA,NA,NA,NA,NA,NA,NA,NA,NA,NA,NA,NA,NA
f7fe7,Shallow Question,html.Page,3_0_5_0_6_1_0,NA,NA,form submission,5369.14,842256,842249.2,842265.86,847635,847635,2023-07-10T09:28:48Z,847634.72,NULL,Wechsel,ugeuzaji,s,utambulisho,kujenga,wasiwasi,ugeuzaji,NA,NA,5,NA,NA,NA,NA,NA,NA,NA,NA,NA,NA,NA,NA,NA,NA,NA,NA,NA,NA,NA
f7fe7,"""Richtig""-Screen",canvas.Screen,3_0_5_0_6_1_1,NA,NA,timeout,4996.4400000001,847638,847634.36,847634.72,852614.52,852621,2023-07-10T09:28:53Z,852631.16,NULL,Wechsel,ugeuzaji,s,utambulisho,kujenga,wasiwasi,NA,sdf,1,5,NA,NA,NA,NA,NA,NA,NA,NA,NA,NA,NA,NA,NA,NA,NA,NA,NA,NA,NA
f7fe7,"""Falsch""-Screen",canvas.Screen,3_0_5_0_6_1_2,NA,NA,skipped,NA,852636,NA,NA,852614.52,852636,2023-07-10T09:28:53Z,852631.16,NULL,Wechsel,ugeuzaji,s,utambulisho,kujenga,wasiwasi,NA,sdf,NA,5,NA,NA,NA,NA,NA,NA,NA,NA,NA,NA,NA,NA,NA,NA,NA,NA,NA,NA,NA
f7fe7,shallow,flow.Sequence,3_0_5_0_6_1,NA,NA,completion,10348.66,842256,842249.2,842265.86,852614.52,852637,2023-07-10T09:28:53Z,852631.16,NULL,Wechsel,ugeuzaji,s,utambulisho,kujenga,wasiwasi,NA,sdf,NA,5,NA,NA,NA,NA,NA,NA,NA,NA,NA,NA,NA,NA,NA,NA,NA,NA,NA,NA,NA
f7fe7,task,flow.Sequence,3_0_5_0_6,NA,NA,completion,10348.66,842256,842249.2,842265.86,852614.52,852637,2023-07-10T09:28:53Z,852631.16,NULL,Wechsel,ugeuzaji,s,utambulisho,kujenga,wasiwasi,NA,sdf,NA,5,NA,NA,NA,NA,NA,NA,NA,NA,NA,NA,NA,NA,NA,NA,NA,NA,NA,NA,NA
f7fe7,deep,flow.Sequence,3_0_5_0_7_0,NA,NA,skipped,NA,852637,NA,NA,852614.52,852638,2023-07-10T09:28:53Z,852631.16,NULL,Angreifer,mshambulizi,s,kitengo,tasinia,usafirishaji,NA,sdf,NA,5,NA,NA,NA,NA,NA,NA,NA,NA,NA,NA,NA,NA,NA,NA,NA,NA,NA,NA,NA
f7fe7,Shallow Question,html.Page,3_0_5_0_7_1_0,NA,NA,form submission,7979.84,852638,852614.52,852631.16,860611,860611,2023-07-10T09:29:01Z,860613.46,NULL,Angreifer,mshambulizi,s,kitengo,tasinia,usafirishaji,mshambulizi,NA,NA,5,NA,NA,NA,NA,NA,NA,NA,NA,NA,NA,NA,NA,NA,NA,NA,NA,NA,NA,NA
f7fe7,"""Richtig""-Screen",canvas.Screen,3_0_5_0_7_1_1,NA,NA,timeout,4999.3400000001,860614,860608.98,860613.46,865596.18,865598,2023-07-10T09:29:06Z,865612.8,NULL,Angreifer,mshambulizi,s,kitengo,tasinia,usafirishaji,NA,sdf,1,5,NA,NA,NA,NA,NA,NA,NA,NA,NA,NA,NA,NA,NA,NA,NA,NA,NA,NA,NA
f7fe7,"""Falsch""-Screen",canvas.Screen,3_0_5_0_7_1_2,NA,NA,skipped,NA,865606,NA,NA,865596.18,865607,2023-07-10T09:29:06Z,865612.8,NULL,Angreifer,mshambulizi,s,kitengo,tasinia,usafirishaji,NA,sdf,NA,5,NA,NA,NA,NA,NA,NA,NA,NA,NA,NA,NA,NA,NA,NA,NA,NA,NA,NA,NA
f7fe7,shallow,flow.Sequence,3_0_5_0_7_1,NA,NA,completion,12965.02,852638,852614.52,852631.16,865596.18,865607,2023-07-10T09:29:06Z,865612.8,NULL,Angreifer,mshambulizi,s,kitengo,tasinia,usafirishaji,NA,sdf,NA,5,NA,NA,NA,NA,NA,NA,NA,NA,NA,NA,NA,NA,NA,NA,NA,NA,NA,NA,NA
f7fe7,task,flow.Sequence,3_0_5_0_7,NA,NA,completion,12965.02,852637,852614.52,852631.16,865596.18,865608,2023-07-10T09:29:06Z,865612.8,NULL,Angreifer,mshambulizi,s,kitengo,tasinia,usafirishaji,NA,sdf,NA,5,NA,NA,NA,NA,NA,NA,NA,NA,NA,NA,NA,NA,NA,NA,NA,NA,NA,NA,NA
f7fe7,block,flow.Loop,3_0_5_0,NA,NA,completion,87030.24,778565,778565.62,778565.94,865596.18,865609,2023-07-10T09:29:06Z,865612.8,NULL,NA,NA,NA,NA,NA,NA,NA,sdf,NA,5,NA,NA,NA,NA,NA,NA,NA,NA,NA,NA,NA,NA,NA,NA,NA,NA,NA,NA,NA
f7fe7,weiter,canvas.Screen,3_0_5_1,sdf,keypress(Space),response,1438.2,865610,865596.18,865612.8,867051,867057,2023-07-10T09:29:08Z,867774.42,NULL,NA,NA,NA,NA,NA,NA,NA,sdf,NA,5,NA,NA,NA,NA,NA,NA,NA,NA,NA,NA,NA,NA,NA,NA,NA,NA,NA,NA,NA
f7fe7,check continue,flow.Sequence,3_0_5,NA,NA,completion,88485.06,778565,778565.62,778565.94,867051,867058,2023-07-10T09:29:08Z,867774.42,NULL,NA,NA,NA,NA,NA,NA,NA,sdf,NA,5,NA,NA,NA,NA,NA,NA,NA,NA,NA,NA,NA,NA,NA,NA,NA,NA,NA,NA,NA
f7fe7,check continue,flow.Sequence,3_0_6,NA,NA,skipped,NA,867127,NA,NA,867051,867127,2023-07-10T09:29:08Z,867774.42,NULL,NA,NA,NA,NA,NA,NA,NA,dfs,NA,6,NA,NA,NA,NA,NA,NA,NA,NA,NA,NA,NA,NA,NA,NA,NA,NA,NA,NA,NA
f7fe7,check continue,flow.Sequence,3_0_7,NA,NA,skipped,NA,867160,NA,NA,867051,867160,2023-07-10T09:29:08Z,867774.42,NULL,NA,NA,NA,NA,NA,NA,NA,df,NA,7,NA,NA,NA,NA,NA,NA,NA,NA,NA,NA,NA,NA,NA,NA,NA,NA,NA,NA,NA
f7fe7,check continue,flow.Sequence,3_0_8,NA,NA,skipped,NA,867191,NA,NA,867051,867191,2023-07-10T09:29:08Z,867774.42,NULL,NA,NA,NA,NA,NA,NA,NA,dfs,NA,8,NA,NA,NA,NA,NA,NA,NA,NA,NA,NA,NA,NA,NA,NA,NA,NA,NA,NA,NA
f7fe7,check continue,flow.Sequence,3_0_9,NA,NA,skipped,NA,867222,NA,NA,867051,867222,2023-07-10T09:29:08Z,867774.42,NULL,NA,NA,NA,NA,NA,NA,NA,dsf,NA,9,NA,NA,NA,NA,NA,NA,NA,NA,NA,NA,NA,NA,NA,NA,NA,NA,NA,NA,NA
f7fe7,check continue,flow.Sequence,3_0_10,NA,NA,skipped,NA,867250,NA,NA,867051,867251,2023-07-10T09:29:08Z,867774.42,NULL,NA,NA,NA,NA,NA,NA,NA,df,NA,10,NA,NA,NA,NA,NA,NA,NA,NA,NA,NA,NA,NA,NA,NA,NA,NA,NA,NA,NA
f7fe7,check continue,flow.Sequence,3_0_11,NA,NA,skipped,NA,867281,NA,NA,867051,867281,2023-07-10T09:29:08Z,867774.42,NULL,NA,NA,NA,NA,NA,NA,NA,dfs,NA,11,NA,NA,NA,NA,NA,NA,NA,NA,NA,NA,NA,NA,NA,NA,NA,NA,NA,NA,NA
f7fe7,check continue,flow.Sequence,3_0_12,NA,NA,skipped,NA,867308,NA,NA,867051,867308,2023-07-10T09:29:08Z,867774.42,NULL,NA,NA,NA,NA,NA,NA,NA,dsf,NA,12,NA,NA,NA,NA,NA,NA,NA,NA,NA,NA,NA,NA,NA,NA,NA,NA,NA,NA,NA
f7fe7,check continue,flow.Sequence,3_0_13,NA,NA,skipped,NA,867338,NA,NA,867051,867338,2023-07-10T09:29:08Z,867774.42,NULL,NA,NA,NA,NA,NA,NA,NA,dsf,NA,13,NA,NA,NA,NA,NA,NA,NA,NA,NA,NA,NA,NA,NA,NA,NA,NA,NA,NA,NA
f7fe7,check continue,flow.Sequence,3_0_14,NA,NA,skipped,NA,867366,NA,NA,867051,867366,2023-07-10T09:29:08Z,867774.42,NULL,NA,NA,NA,NA,NA,NA,NA,NA,NA,14,NA,NA,NA,NA,NA,NA,NA,NA,NA,NA,NA,NA,NA,NA,NA,NA,NA,NA,NA
f7fe7,check continue,flow.Sequence,3_0_15,NA,NA,skipped,NA,867392,NA,NA,867051,867392,2023-07-10T09:29:08Z,867774.42,NULL,NA,NA,NA,NA,NA,NA,NA,NA,NA,15,NA,NA,NA,NA,NA,NA,NA,NA,NA,NA,NA,NA,NA,NA,NA,NA,NA,NA,NA
f7fe7,check continue,flow.Sequence,3_0_16,NA,NA,skipped,NA,867421,NA,NA,867051,867421,2023-07-10T09:29:08Z,867774.42,NULL,NA,NA,NA,NA,NA,NA,NA,NA,NA,16,NA,NA,NA,NA,NA,NA,NA,NA,NA,NA,NA,NA,NA,NA,NA,NA,NA,NA,NA
f7fe7,check continue,flow.Sequence,3_0_17,NA,NA,skipped,NA,867450,NA,NA,867051,867450,2023-07-10T09:29:08Z,867774.42,NULL,NA,NA,NA,NA,NA,NA,NA,NA,NA,17,NA,NA,NA,NA,NA,NA,NA,NA,NA,NA,NA,NA,NA,NA,NA,NA,NA,NA,NA
f7fe7,check continue,flow.Sequence,3_0_18,NA,NA,skipped,NA,867476,NA,NA,867051,867477,2023-07-10T09:29:08Z,867774.42,NULL,NA,NA,NA,NA,NA,NA,NA,NA,NA,18,NA,NA,NA,NA,NA,NA,NA,NA,NA,NA,NA,NA,NA,NA,NA,NA,NA,NA,NA
f7fe7,check continue,flow.Sequence,3_0_19,NA,NA,skipped,NA,867504,NA,NA,867051,867504,2023-07-10T09:29:08Z,867774.42,NULL,NA,NA,NA,NA,NA,NA,NA,NA,NA,19,NA,NA,NA,NA,NA,NA,NA,NA,NA,NA,NA,NA,NA,NA,NA,NA,NA,NA,NA
f7fe7,check continue,flow.Sequence,3_0_20,NA,NA,skipped,NA,867530,NA,NA,867051,867530,2023-07-10T09:29:08Z,867774.42,NULL,NA,NA,NA,NA,NA,NA,NA,NA,NA,20,NA,NA,NA,NA,NA,NA,NA,NA,NA,NA,NA,NA,NA,NA,NA,NA,NA,NA,NA
f7fe7,check continue,flow.Sequence,3_0_21,NA,NA,skipped,NA,867558,NA,NA,867051,867559,2023-07-10T09:29:08Z,867774.42,NULL,NA,NA,NA,NA,NA,NA,NA,NA,NA,21,NA,NA,NA,NA,NA,NA,NA,NA,NA,NA,NA,NA,NA,NA,NA,NA,NA,NA,NA
f7fe7,check continue,flow.Sequence,3_0_22,NA,NA,skipped,NA,867585,NA,NA,867051,867585,2023-07-10T09:29:08Z,867774.42,NULL,NA,NA,NA,NA,NA,NA,NA,NA,NA,22,NA,NA,NA,NA,NA,NA,NA,NA,NA,NA,NA,NA,NA,NA,NA,NA,NA,NA,NA
f7fe7,check continue,flow.Sequence,3_0_23,NA,NA,skipped,NA,867612,NA,NA,867051,867612,2023-07-10T09:29:08Z,867774.42,NULL,NA,NA,NA,NA,NA,NA,NA,NA,NA,23,NA,NA,NA,NA,NA,NA,NA,NA,NA,NA,NA,NA,NA,NA,NA,NA,NA,NA,NA
f7fe7,check continue,flow.Sequence,3_0_24,NA,NA,skipped,NA,867641,NA,NA,867051,867641,2023-07-10T09:29:08Z,867774.42,NULL,NA,NA,NA,NA,NA,NA,NA,NA,NA,24,NA,NA,NA,NA,NA,NA,NA,NA,NA,NA,NA,NA,NA,NA,NA,NA,NA,NA,NA
f7fe7,check continue,flow.Sequence,3_0_25,NA,NA,skipped,NA,867667,NA,NA,867051,867667,2023-07-10T09:29:08Z,867774.42,NULL,NA,NA,NA,NA,NA,NA,NA,NA,NA,25,NA,NA,NA,NA,NA,NA,NA,NA,NA,NA,NA,NA,NA,NA,NA,NA,NA,NA,NA
f7fe7,check continue,flow.Sequence,3_0_26,NA,NA,skipped,NA,867696,NA,NA,867051,867696,2023-07-10T09:29:08Z,867774.42,NULL,NA,NA,NA,NA,NA,NA,NA,NA,NA,26,NA,NA,NA,NA,NA,NA,NA,NA,NA,NA,NA,NA,NA,NA,NA,NA,NA,NA,NA
f7fe7,check continue,flow.Sequence,3_0_27,NA,NA,skipped,NA,867721,NA,NA,867051,867721,2023-07-10T09:29:08Z,867774.42,NULL,NA,NA,NA,NA,NA,NA,NA,NA,NA,27,NA,NA,NA,NA,NA,NA,NA,NA,NA,NA,NA,NA,NA,NA,NA,NA,NA,NA,NA
f7fe7,check continue,flow.Sequence,3_0_28,NA,NA,skipped,NA,867745,NA,NA,867051,867745,2023-07-10T09:29:08Z,867774.42,NULL,NA,NA,NA,NA,NA,NA,NA,NA,NA,28,NA,NA,NA,NA,NA,NA,NA,NA,NA,NA,NA,NA,NA,NA,NA,NA,NA,NA,NA
f7fe7,check continue,flow.Sequence,3_0_29,NA,NA,skipped,NA,867774,NA,NA,867051,867774,2023-07-10T09:29:08Z,867774.42,NULL,NA,NA,NA,NA,NA,NA,NA,NA,NA,29,NA,NA,NA,NA,NA,NA,NA,NA,NA,NA,NA,NA,NA,NA,NA,NA,NA,NA,NA
f7fe7,until continue,flow.Loop,3_0,NA,NA,completion,642567.84,224448,224482.88,224483.16,867051,867774,2023-07-10T09:29:08Z,867774.42,NULL,NA,NA,NA,NA,NA,NA,NA,NA,NA,NA,NA,NA,NA,NA,NA,NA,NA,NA,NA,NA,NA,NA,NA,NA,NA,NA,NA,NA,NA
f7fe7,block 1,flow.Sequence,3,NA,NA,completion,642567.84,224448,224482.88,224483.16,867051,867774,2023-07-10T09:29:08Z,867774.42,NULL,NA,NA,NA,NA,NA,NA,NA,NA,NA,NA,NA,NA,NA,NA,NA,NA,NA,NA,NA,NA,NA,NA,NA,NA,NA,NA,NA,NA,NA
f7fe7,1.Part Over,canvas.Screen,4,NA,keypress(Space),response,3167.58,867774,867774.08,867774.42,870942,870945,2023-07-10T09:29:12Z,871016.08,NULL,NA,NA,NA,NA,NA,NA,NA,NA,NA,NA,NA,NA,NA,NA,NA,NA,NA,NA,NA,NA,NA,NA,NA,NA,NA,NA,NA,NA,NA
f7fe7,deep,flow.Sequence,5_0_0_0_0_0,NA,NA,skipped,NA,871015,NA,NA,870942,871015,2023-07-10T09:29:12Z,871016.08,NULL,Können,unaweza,s,kiongozi,bustani,mienendo,NA,sdf,NA,0,NA,NA,NA,NA,NA,NA,NA,NA,NA,NA,NA,NA,NA,NA,NA,NA,NA,NA,NA
f7fe7,Shallow Question,html.Page,5_0_0_0_0_1_0,NA,NA,form submission,9671.92,871015,871015.68,871016.08,880688,880689,2023-07-10T09:29:21Z,880694.16,NULL,Können,unaweza,s,kiongozi,bustani,mienendo,bustani,NA,NA,0,NA,NA,NA,NA,NA,NA,NA,NA,NA,NA,NA,NA,NA,NA,NA,NA,NA,NA,NA
f7fe7,"""Richtig""-Screen",canvas.Screen,5_0_0_0_0_1_1,NA,NA,skipped,NA,880690,NA,NA,880688,880690,2023-07-10T09:29:21Z,880694.16,NULL,Können,unaweza,s,kiongozi,bustani,mienendo,NA,sdf,NA,0,NA,NA,NA,NA,NA,NA,NA,NA,NA,NA,NA,NA,NA,NA,NA,NA,NA,NA,NA
f7fe7,"""Falsch""-Screen",canvas.Screen,5_0_0_0_0_1_2,NA,NA,timeout,4999.38,880693,880686.34,880694.16,885676.92,885678,2023-07-10T09:29:26Z,885693.54,NULL,Können,unaweza,s,kiongozi,bustani,mienendo,NA,sdf,0,0,NA,NA,NA,NA,NA,NA,NA,NA,NA,NA,NA,NA,NA,NA,NA,NA,NA,NA,NA
f7fe7,shallow,flow.Sequence,5_0_0_0_0_1,NA,NA,completion,14660.84,871015,871015.68,871016.08,885676.92,885678,2023-07-10T09:29:26Z,885693.54,NULL,Können,unaweza,s,kiongozi,bustani,mienendo,NA,sdf,NA,0,NA,NA,NA,NA,NA,NA,NA,NA,NA,NA,NA,NA,NA,NA,NA,NA,NA,NA,NA
f7fe7,task,flow.Sequence,5_0_0_0_0,NA,NA,completion,14660.84,871015,871015.68,871016.08,885676.92,885678,2023-07-10T09:29:26Z,885693.54,NULL,Können,unaweza,s,kiongozi,bustani,mienendo,NA,sdf,NA,0,NA,NA,NA,NA,NA,NA,NA,NA,NA,NA,NA,NA,NA,NA,NA,NA,NA,NA,NA
f7fe7,deep,flow.Sequence,5_0_0_0_1_0,NA,NA,skipped,NA,885679,NA,NA,885676.92,885679,2023-07-10T09:29:26Z,885693.54,NULL,Kreativität,ubunifu,s,mratibu,mwendelezo,makubaliano,NA,sdf,NA,0,NA,NA,NA,NA,NA,NA,NA,NA,NA,NA,NA,NA,NA,NA,NA,NA,NA,NA,NA
f7fe7,Shallow Question,html.Page,5_0_0_0_1_1_0,NA,NA,form submission,11242.46,885679,885676.92,885693.54,896936,896936,2023-07-10T09:29:38Z,896942.1,NULL,Kreativität,ubunifu,s,mratibu,mwendelezo,makubaliano,mwendelezo,NA,NA,0,NA,NA,NA,NA,NA,NA,NA,NA,NA,NA,NA,NA,NA,NA,NA,NA,NA,NA,NA
f7fe7,"""Richtig""-Screen",canvas.Screen,5_0_0_0_1_1_1,NA,NA,skipped,NA,896938,NA,NA,896936,896939,2023-07-10T09:29:38Z,896942.1,NULL,Kreativität,ubunifu,s,mratibu,mwendelezo,makubaliano,NA,sdf,NA,0,NA,NA,NA,NA,NA,NA,NA,NA,NA,NA,NA,NA,NA,NA,NA,NA,NA,NA,NA
f7fe7,"""Falsch""-Screen",canvas.Screen,5_0_0_0_1_1_2,NA,NA,timeout,4999.38,896941,896934.58,896942.1,901924.8,901925,2023-07-10T09:29:43Z,901941.48,NULL,Kreativität,ubunifu,s,mratibu,mwendelezo,makubaliano,NA,sdf,0,0,NA,NA,NA,NA,NA,NA,NA,NA,NA,NA,NA,NA,NA,NA,NA,NA,NA,NA,NA
f7fe7,shallow,flow.Sequence,5_0_0_0_1_1,NA,NA,completion,16231.26,885679,885676.92,885693.54,901924.8,901926,2023-07-10T09:29:43Z,901941.48,NULL,Kreativität,ubunifu,s,mratibu,mwendelezo,makubaliano,NA,sdf,NA,0,NA,NA,NA,NA,NA,NA,NA,NA,NA,NA,NA,NA,NA,NA,NA,NA,NA,NA,NA
f7fe7,task,flow.Sequence,5_0_0_0_1,NA,NA,completion,16231.26,885679,885676.92,885693.54,901924.8,901926,2023-07-10T09:29:43Z,901941.48,NULL,Kreativität,ubunifu,s,mratibu,mwendelezo,makubaliano,NA,sdf,NA,0,NA,NA,NA,NA,NA,NA,NA,NA,NA,NA,NA,NA,NA,NA,NA,NA,NA,NA,NA
f7fe7,Deep Question,html.Page,5_0_0_0_2_0_0,NA,NA,form submission,3960.52,901926,901924.8,901941.48,905902,905903,2023-07-10T09:29:47Z,905907.64,NULL,Stimmung,kinyongo,d,NA,NA,NA,ubina,NA,NA,0,NA,NA,NA,NA,NA,NA,NA,NA,NA,NA,NA,NA,NA,NA,NA,NA,NA,NA,NA
f7fe7,"""Richtig""-Screen",canvas.Screen,5_0_0_0_2_0_1,NA,NA,skipped,NA,905905,NA,NA,905902,905905,2023-07-10T09:29:47Z,905907.64,NULL,Stimmung,kinyongo,d,NA,NA,NA,NA,sdf,NA,0,NA,NA,NA,NA,NA,NA,NA,NA,NA,NA,NA,NA,NA,NA,NA,NA,NA,NA,NA
f7fe7,"""Falsch""-Screen",canvas.Screen,5_0_0_0_2_0_2,NA,NA,timeout,4999.3199999999,905908,905901.46,905907.64,910890.3,910894,2023-07-10T09:29:52Z,910906.96,NULL,Stimmung,kinyongo,d,NA,NA,NA,NA,sdf,0,0,NA,NA,NA,NA,NA,NA,NA,NA,NA,NA,NA,NA,NA,NA,NA,NA,NA,NA,NA
f7fe7,deep,flow.Sequence,5_0_0_0_2_0,NA,NA,completion,8948.8200000001,901926,901924.8,901941.48,910890.3,910896,2023-07-10T09:29:52Z,910906.96,NULL,Stimmung,kinyongo,d,NA,NA,NA,NA,sdf,NA,0,NA,NA,NA,NA,NA,NA,NA,NA,NA,NA,NA,NA,NA,NA,NA,NA,NA,NA,NA
f7fe7,shallow,flow.Sequence,5_0_0_0_2_1,NA,NA,skipped,NA,910898,NA,NA,910890.3,910899,2023-07-10T09:29:52Z,910906.96,NULL,Stimmung,kinyongo,d,NA,NA,NA,NA,sdf,NA,0,NA,NA,NA,NA,NA,NA,NA,NA,NA,NA,NA,NA,NA,NA,NA,NA,NA,NA,NA
f7fe7,task,flow.Sequence,5_0_0_0_2,NA,NA,completion,8948.8200000001,901926,901924.8,901941.48,910890.3,910900,2023-07-10T09:29:52Z,910906.96,NULL,Stimmung,kinyongo,d,NA,NA,NA,NA,sdf,NA,0,NA,NA,NA,NA,NA,NA,NA,NA,NA,NA,NA,NA,NA,NA,NA,NA,NA,NA,NA
f7fe7,deep,flow.Sequence,5_0_0_0_3_0,NA,NA,skipped,NA,910900,NA,NA,910890.3,910901,2023-07-10T09:29:52Z,910906.96,NULL,Orientierung,urekebisho,s,uelekeo,marekebisho,utunzaji,NA,sdf,NA,0,NA,NA,NA,NA,NA,NA,NA,NA,NA,NA,NA,NA,NA,NA,NA,NA,NA,NA,NA
f7fe7,Shallow Question,html.Page,5_0_0_0_3_1_0,NA,NA,form submission,7661.04,910901,910890.3,910906.96,918568,918568,2023-07-10T09:29:59Z,918572.64,NULL,Orientierung,urekebisho,s,uelekeo,marekebisho,utunzaji,urekebisho,NA,NA,0,NA,NA,NA,NA,NA,NA,NA,NA,NA,NA,NA,NA,NA,NA,NA,NA,NA,NA,NA
