observation,sender,sender_type,sender_id,response,response_action,ended_on,duration,time_run,time_render,time_show,time_end,time_commit,timestamp,time_switch,distractors,german,swahili,enc,distractor1,distractor2,distractor3,response_2,x,correct,x_2,url_vp,url_sess,meta_labjs_version,meta_location,meta_user_agent,meta_platform,meta_language,meta_locale,meta_time_zone,meta_timezone_offset,meta_screen_width,meta_screen_height,meta_scroll_width,meta_scroll_height,meta_window_inner_width,meta_window_inner_height,meta_device_pixel_ratio,meta_labjs_build_flavor,meta_labjs_build_commit
161f9,Introduction general,canvas.Screen,0,weiter,keypress(q),response,33056.270000024,793.70000004768,333.875,816.83,33873.100000024,33875,2023-11-25T13:32:51Z,33882.84,NULL,NA,NA,NA,NA,NA,NA,NA,NA,NA,NA,148,"3",20.2.4,https://neurocog.fernuni.ch/studies/vweber/jbaenninger/encoding_immediate/index.html?vp=148&sess=3%0d,"Mozilla/5.0 (Windows NT 10.0; Win64; x64) AppleWebKit/537.36 (KHTML, like Gecko) Chrome/119.0.0.0 Safari/537.36 Edg/119.0.0.0",Win32,de,de-CH,Etc/GMT-1,-60,1280,720,1232,598,1232,598,1.5,production,f5b4a49f956347addd546a832a3327688c2c0fef
161f9,Introduction practice,canvas.Screen,1_0,NA,keypress(Space),response,3625.3600000477,33875.300000072,33861.162,33882.84,37508.200000048,37509.200000048,2023-11-25T13:32:55Z,37515.786,NULL,NA,NA,NA,NA,NA,NA,NA,NA,NA,NA,NA,NA,NA,NA,NA,NA,NA,NA,NA,NA,NA,NA,NA,NA,NA,NA,NA,NA,NA
161f9,deep,flow.Sequence,1_1_0_0,NA,NA,skipped,NA,37509.5,NA,NA,37508.200000048,37509.700000048,2023-11-25T13:32:55Z,37515.786,"c(""distractor1"", ""distractor2"", ""distractor3"")",Rückhalt,msaada,s,muhula,auwali,kiwimbe,NA,NA,NA,NA,NA,NA,NA,NA,NA,NA,NA,NA,NA,NA,NA,NA,NA,NA,NA,NA,NA,NA,NA
161f9,Shallow Question,html.Page,1_1_0_1_0,NA,NA,form submission,4199.6140000954,37509.800000072,37500.391,37515.786,41715.400000095004,41716,2023-11-25T13:32:59Z,41715.64,"c(""distractor1"", ""distractor2"", ""distractor3"")",Rückhalt,msaada,s,muhula,auwali,kiwimbe,auwali,NA,NA,NA,NA,NA,NA,NA,NA,NA,NA,NA,NA,NA,NA,NA,NA,NA,NA,NA,NA,NA,NA
161f9,"""Richtig""-Screen",canvas.Screen,1_1_0_1_1,NA,NA,skipped,NA,41717.300000072,NA,NA,41715.400000095004,41717.600000024,2023-11-25T13:32:59Z,41715.64,"c(""distractor1"", ""distractor2"", ""distractor3"")",Rückhalt,msaada,s,muhula,auwali,kiwimbe,NA,NA,NA,NA,NA,NA,NA,NA,NA,NA,NA,NA,NA,NA,NA,NA,NA,NA,NA,NA,NA,NA,NA
161f9,"""Falsch""-Screen",canvas.Screen,1_1_0_1_2,NA,NA,timeout,5000.051,41719,41704.448,41715.64,46699.391,46700.900000095004,2023-11-25T13:33:04Z,46715.691,"c(""distractor1"", ""distractor2"", ""distractor3"")",Rückhalt,msaada,s,muhula,auwali,kiwimbe,NA,NA,0,NA,NA,NA,NA,NA,NA,NA,NA,NA,NA,NA,NA,NA,NA,NA,NA,NA,NA,NA,NA
161f9,shallow,flow.Sequence,1_1_0_1,NA,NA,completion,9183.605,37509.700000048,37500.391,37515.786,46699.391,46701.200000048,2023-11-25T13:33:04Z,46715.691,"c(""distractor1"", ""distractor2"", ""distractor3"")",Rückhalt,msaada,s,muhula,auwali,kiwimbe,NA,NA,NA,NA,NA,NA,NA,NA,NA,NA,NA,NA,NA,NA,NA,NA,NA,NA,NA,NA,NA,NA,NA
161f9,task,flow.Sequence,1_1_0,NA,NA,completion,9183.605,37509.400000095004,37500.391,37515.786,46699.391,46701.700000048,2023-11-25T13:33:04Z,46715.691,"c(""distractor1"", ""distractor2"", ""distractor3"")",Rückhalt,msaada,s,muhula,auwali,kiwimbe,NA,NA,NA,NA,NA,NA,NA,NA,NA,NA,NA,NA,NA,NA,NA,NA,NA,NA,NA,NA,NA,NA,NA
161f9,Deep Question,html.Page,1_1_1_0_0,NA,NA,form submission,2897.0090000477,46702,46699.391,46715.691,49612.700000048,49613.100000024,2023-11-25T13:33:07Z,49617.34,"c(""distractor1"", ""distractor2"", ""distractor3"")",Gesundheit,salama,d,NA,NA,NA,lj,NA,NA,NA,NA,NA,NA,NA,NA,NA,NA,NA,NA,NA,NA,NA,NA,NA,NA,NA,NA,NA,NA
161f9,"""Richtig""-Screen",canvas.Screen,1_1_1_0_1,NA,NA,skipped,NA,49626.400000095004,NA,NA,49612.700000048,49626.800000072,2023-11-25T13:33:07Z,49617.34,"c(""distractor1"", ""distractor2"", ""distractor3"")",Gesundheit,salama,d,NA,NA,NA,NA,NA,NA,NA,NA,NA,NA,NA,NA,NA,NA,NA,NA,NA,NA,NA,NA,NA,NA,NA,NA,NA,NA
161f9,"""Falsch""-Screen",canvas.Screen,1_1_1_0_2,NA,NA,timeout,4998.246,49628.100000024,49601.165,49617.34,54598.931,54600.5,2023-11-25T13:33:12Z,54615.586,"c(""distractor1"", ""distractor2"", ""distractor3"")",Gesundheit,salama,d,NA,NA,NA,NA,NA,0,NA,NA,NA,NA,NA,NA,NA,NA,NA,NA,NA,NA,NA,NA,NA,NA,NA,NA,NA,NA
161f9,deep,flow.Sequence,1_1_1_0,NA,NA,completion,7883.24,46701.900000095004,46699.391,46715.691,54598.931,54600.800000072,2023-11-25T13:33:12Z,54615.586,"c(""distractor1"", ""distractor2"", ""distractor3"")",Gesundheit,salama,d,NA,NA,NA,NA,NA,NA,NA,NA,NA,NA,NA,NA,NA,NA,NA,NA,NA,NA,NA,NA,NA,NA,NA,NA,NA,NA
161f9,shallow,flow.Sequence,1_1_1_1,NA,NA,skipped,NA,54600.800000072,NA,NA,54598.931,54600.900000095004,2023-11-25T13:33:12Z,54615.586,"c(""distractor1"", ""distractor2"", ""distractor3"")",Gesundheit,salama,d,NA,NA,NA,NA,NA,NA,NA,NA,NA,NA,NA,NA,NA,NA,NA,NA,NA,NA,NA,NA,NA,NA,NA,NA,NA,NA
161f9,task,flow.Sequence,1_1_1,NA,NA,completion,7883.24,46701.900000095004,46699.391,46715.691,54598.931,54601.100000024,2023-11-25T13:33:12Z,54615.586,"c(""distractor1"", ""distractor2"", ""distractor3"")",Gesundheit,salama,d,NA,NA,NA,NA,NA,NA,NA,NA,NA,NA,NA,NA,NA,NA,NA,NA,NA,NA,NA,NA,NA,NA,NA,NA,NA,NA
161f9,deep,flow.Sequence,1_1_2_0,NA,NA,skipped,NA,54601.200000048,NA,NA,54598.931,54601.300000072,2023-11-25T13:33:12Z,54615.586,"c(""distractor1"", ""distractor2"", ""distractor3"")",Gegenwart,hadhara,s,katiba,jokofu,mikopo,NA,NA,NA,NA,NA,NA,NA,NA,NA,NA,NA,NA,NA,NA,NA,NA,NA,NA,NA,NA,NA,NA,NA
161f9,Shallow Question,html.Page,1_1_2_1_0,NA,NA,form submission,3123.2140000715,54601.400000095004,54598.931,54615.586,57738.800000072,57739.100000024,2023-11-25T13:33:15Z,57748.554,"c(""distractor1"", ""distractor2"", ""distractor3"")",Gegenwart,hadhara,s,katiba,jokofu,mikopo,mikopo,NA,NA,NA,NA,NA,NA,NA,NA,NA,NA,NA,NA,NA,NA,NA,NA,NA,NA,NA,NA,NA,NA
161f9,"""Richtig""-Screen",canvas.Screen,1_1_2_1_1,NA,NA,skipped,NA,57749.5,NA,NA,57738.800000072,57749.800000072,2023-11-25T13:33:15Z,57748.554,"c(""distractor1"", ""distractor2"", ""distractor3"")",Gegenwart,hadhara,s,katiba,jokofu,mikopo,NA,NA,NA,NA,NA,NA,NA,NA,NA,NA,NA,NA,NA,NA,NA,NA,NA,NA,NA,NA,NA,NA,NA
161f9,"""Falsch""-Screen",canvas.Screen,1_1_2_1_2,NA,NA,timeout,5000.269,57751.5,57733.846,57748.554,62732.489,62733.200000048,2023-11-25T13:33:20Z,62748.823,"c(""distractor1"", ""distractor2"", ""distractor3"")",Gegenwart,hadhara,s,katiba,jokofu,mikopo,NA,NA,0,NA,NA,NA,NA,NA,NA,NA,NA,NA,NA,NA,NA,NA,NA,NA,NA,NA,NA,NA,NA
161f9,shallow,flow.Sequence,1_1_2_1,NA,NA,completion,8116.903,54601.400000095004,54598.931,54615.586,62732.489,62733.5,2023-11-25T13:33:20Z,62748.823,"c(""distractor1"", ""distractor2"", ""distractor3"")",Gegenwart,hadhara,s,katiba,jokofu,mikopo,NA,NA,NA,NA,NA,NA,NA,NA,NA,NA,NA,NA,NA,NA,NA,NA,NA,NA,NA,NA,NA,NA,NA
161f9,task,flow.Sequence,1_1_2,NA,NA,completion,8116.903,54601.200000048,54598.931,54615.586,62732.489,62733.700000048,2023-11-25T13:33:20Z,62748.823,"c(""distractor1"", ""distractor2"", ""distractor3"")",Gegenwart,hadhara,s,katiba,jokofu,mikopo,NA,NA,NA,NA,NA,NA,NA,NA,NA,NA,NA,NA,NA,NA,NA,NA,NA,NA,NA,NA,NA,NA,NA
161f9,Deep Question,html.Page,1_1_3_0_0,NA,NA,form submission,2684.7770000238,62733.800000072,62732.489,62748.823,65433.600000024,65434,2023-11-25T13:33:22Z,65448.324,"c(""distractor1"", ""distractor2"", ""distractor3"")",Schatten,kivuli,d,NA,NA,NA,kjn,NA,NA,NA,NA,NA,NA,NA,NA,NA,NA,NA,NA,NA,NA,NA,NA,NA,NA,NA,NA,NA,NA
161f9,"""Richtig""-Screen",canvas.Screen,1_1_3_0_1,NA,NA,skipped,NA,65437.200000048,NA,NA,65433.600000024,65437.400000095004,2023-11-25T13:33:22Z,65448.324,"c(""distractor1"", ""distractor2"", ""distractor3"")",Schatten,kivuli,d,NA,NA,NA,NA,NA,NA,NA,NA,NA,NA,NA,NA,NA,NA,NA,NA,NA,NA,NA,NA,NA,NA,NA,NA,NA,NA
161f9,"""Falsch""-Screen",canvas.Screen,1_1_3_0_2,NA,NA,timeout,5000.166,65438.900000095004,65417.148,65448.324,70432.089,70432.800000072,2023-11-25T13:33:27Z,70448.49,"c(""distractor1"", ""distractor2"", ""distractor3"")",Schatten,kivuli,d,NA,NA,NA,NA,NA,0,NA,NA,NA,NA,NA,NA,NA,NA,NA,NA,NA,NA,NA,NA,NA,NA,NA,NA,NA,NA
161f9,deep,flow.Sequence,1_1_3_0,NA,NA,completion,7683.266,62733.800000072,62732.489,62748.823,70432.089,70433,2023-11-25T13:33:27Z,70448.49,"c(""distractor1"", ""distractor2"", ""distractor3"")",Schatten,kivuli,d,NA,NA,NA,NA,NA,NA,NA,NA,NA,NA,NA,NA,NA,NA,NA,NA,NA,NA,NA,NA,NA,NA,NA,NA,NA,NA
161f9,shallow,flow.Sequence,1_1_3_1,NA,NA,skipped,NA,70433.100000024,NA,NA,70432.089,70433.100000024,2023-11-25T13:33:27Z,70448.49,"c(""distractor1"", ""distractor2"", ""distractor3"")",Schatten,kivuli,d,NA,NA,NA,NA,NA,NA,NA,NA,NA,NA,NA,NA,NA,NA,NA,NA,NA,NA,NA,NA,NA,NA,NA,NA,NA,NA
161f9,task,flow.Sequence,1_1_3,NA,NA,completion,7683.266,62733.800000072,62732.489,62748.823,70432.089,70433.300000072,2023-11-25T13:33:27Z,70448.49,"c(""distractor1"", ""distractor2"", ""distractor3"")",Schatten,kivuli,d,NA,NA,NA,NA,NA,NA,NA,NA,NA,NA,NA,NA,NA,NA,NA,NA,NA,NA,NA,NA,NA,NA,NA,NA,NA,NA
161f9,Deep Question,html.Page,1_1_4_0_0,NA,NA,form submission,2883.51,70433.400000095,70432.089,70448.49,73332,73332.300000072,2023-11-25T13:33:30Z,73352.123,"c(""distractor1"", ""distractor2"", ""distractor3"")",Qualität,mtindo,d,NA,NA,NA,kj,NA,NA,NA,NA,NA,NA,NA,NA,NA,NA,NA,NA,NA,NA,NA,NA,NA,NA,NA,NA,NA,NA
161f9,"""Richtig""-Screen",canvas.Screen,1_1_4_0_1,NA,NA,skipped,NA,73335.700000048,NA,NA,73332,73336,2023-11-25T13:33:30Z,73352.123,"c(""distractor1"", ""distractor2"", ""distractor3"")",Qualität,mtindo,d,NA,NA,NA,NA,NA,NA,NA,NA,NA,NA,NA,NA,NA,NA,NA,NA,NA,NA,NA,NA,NA,NA,NA,NA,NA,NA
161f9,"""Falsch""-Screen",canvas.Screen,1_1_4_0_2,NA,NA,timeout,4996.194,73337,73320.532,73352.123,78332.015,78332.800000072,2023-11-25T13:33:35Z,78348.317,"c(""distractor1"", ""distractor2"", ""distractor3"")",Qualität,mtindo,d,NA,NA,NA,NA,NA,0,NA,NA,NA,NA,NA,NA,NA,NA,NA,NA,NA,NA,NA,NA,NA,NA,NA,NA,NA,NA
161f9,deep,flow.Sequence,1_1_4_0,NA,NA,completion,7883.525,70433.400000095,70432.089,70448.49,78332.015,78333.100000024,2023-11-25T13:33:35Z,78348.317,"c(""distractor1"", ""distractor2"", ""distractor3"")",Qualität,mtindo,d,NA,NA,NA,NA,NA,NA,NA,NA,NA,NA,NA,NA,NA,NA,NA,NA,NA,NA,NA,NA,NA,NA,NA,NA,NA,NA
161f9,shallow,flow.Sequence,1_1_4_1,NA,NA,skipped,NA,78333.200000048,NA,NA,78332.015,78333.200000048,2023-11-25T13:33:35Z,78348.317,"c(""distractor1"", ""distractor2"", ""distractor3"")",Qualität,mtindo,d,NA,NA,NA,NA,NA,NA,NA,NA,NA,NA,NA,NA,NA,NA,NA,NA,NA,NA,NA,NA,NA,NA,NA,NA,NA,NA
161f9,task,flow.Sequence,1_1_4,NA,NA,completion,7883.525,70433.300000072,70432.089,70448.49,78332.015,78333.300000072,2023-11-25T13:33:35Z,78348.317,"c(""distractor1"", ""distractor2"", ""distractor3"")",Qualität,mtindo,d,NA,NA,NA,NA,NA,NA,NA,NA,NA,NA,NA,NA,NA,NA,NA,NA,NA,NA,NA,NA,NA,NA,NA,NA,NA,NA
161f9,deep,flow.Sequence,1_1_5_0,NA,NA,skipped,NA,78333.400000095,NA,NA,78332.015,78333.400000095,2023-11-25T13:33:35Z,78348.317,"c(""distractor1"", ""distractor2"", ""distractor3"")",Kritik,lawama,s,dereva,nafasi,mawazo,NA,NA,NA,NA,NA,NA,NA,NA,NA,NA,NA,NA,NA,NA,NA,NA,NA,NA,NA,NA,NA,NA,NA
161f9,Shallow Question,html.Page,1_1_5_1_0,NA,NA,form submission,4140.0830000954,78333.5,78332.015,78348.317,82488.400000095,82488.700000048,2023-11-25T13:33:39Z,82501.051,"c(""distractor1"", ""distractor2"", ""distractor3"")",Kritik,lawama,s,dereva,nafasi,mawazo,mawazo,NA,NA,NA,NA,NA,NA,NA,NA,NA,NA,NA,NA,NA,NA,NA,NA,NA,NA,NA,NA,NA,NA
161f9,"""Richtig""-Screen",canvas.Screen,1_1_5_1_1,NA,NA,skipped,NA,82492,NA,NA,82488.400000095,82492.200000048,2023-11-25T13:33:39Z,82501.051,"c(""distractor1"", ""distractor2"", ""distractor3"")",Kritik,lawama,s,dereva,nafasi,mawazo,NA,NA,NA,NA,NA,NA,NA,NA,NA,NA,NA,NA,NA,NA,NA,NA,NA,NA,NA,NA,NA,NA,NA
161f9,"""Falsch""-Screen",canvas.Screen,1_1_5_1_2,NA,NA,timeout,4997.39,82493.300000072,82483.962,82501.051,87481.761,87483.900000095,2023-11-25T13:33:44Z,87498.441,"c(""distractor1"", ""distractor2"", ""distractor3"")",Kritik,lawama,s,dereva,nafasi,mawazo,NA,NA,0,NA,NA,NA,NA,NA,NA,NA,NA,NA,NA,NA,NA,NA,NA,NA,NA,NA,NA,NA,NA
161f9,shallow,flow.Sequence,1_1_5_1,NA,NA,completion,9133.444,78333.400000095,78332.015,78348.317,87481.761,87484.100000024,2023-11-25T13:33:44Z,87498.441,"c(""distractor1"", ""distractor2"", ""distractor3"")",Kritik,lawama,s,dereva,nafasi,mawazo,NA,NA,NA,NA,NA,NA,NA,NA,NA,NA,NA,NA,NA,NA,NA,NA,NA,NA,NA,NA,NA,NA,NA
161f9,task,flow.Sequence,1_1_5,NA,NA,completion,9133.444,78333.400000095,78332.015,78348.317,87481.761,87484.200000048,2023-11-25T13:33:44Z,87498.441,"c(""distractor1"", ""distractor2"", ""distractor3"")",Kritik,lawama,s,dereva,nafasi,mawazo,NA,NA,NA,NA,NA,NA,NA,NA,NA,NA,NA,NA,NA,NA,NA,NA,NA,NA,NA,NA,NA,NA,NA
161f9,block,flow.Loop,1_1,NA,NA,completion,49965.975,37509.400000095004,37500.391,37515.786,87481.761,87484.400000095,2023-11-25T13:33:44Z,87498.441,"c(""distractor1"", ""distractor2"", ""distractor3"")",NA,NA,NA,NA,NA,NA,NA,NA,NA,NA,NA,NA,NA,NA,NA,NA,NA,NA,NA,NA,NA,NA,NA,NA,NA,NA,NA,NA,NA
161f9,Practice,flow.Sequence,1,NA,NA,completion,53598.921,33875.300000072,33861.162,33882.84,87481.761,87484.5,2023-11-25T13:33:44Z,87498.441,NULL,NA,NA,NA,NA,NA,NA,NA,NA,NA,NA,NA,NA,NA,NA,NA,NA,NA,NA,NA,NA,NA,NA,NA,NA,NA,NA,NA,NA,NA
161f9,Experiment start,canvas.Screen,2,weiter,keypress(q),response,8936.6590000238,87484.600000024,87481.761,87498.441,96435.100000024,96435.800000072,2023-11-25T13:33:53Z,96514.258,NULL,NA,NA,NA,NA,NA,NA,NA,NA,NA,NA,NA,NA,NA,NA,NA,NA,NA,NA,NA,NA,NA,NA,NA,NA,NA,NA,NA,NA,NA
161f9,deep,flow.Sequence,3_0_0_0_0_0,NA,NA,skipped,NA,96511,NA,NA,96435.100000024,96511,2023-11-25T13:33:54Z,96514.258,NULL,Niveau,kiwango,s,usimamizi,mwamali,mshairi,NA,sdf,NA,0,NA,NA,NA,NA,NA,NA,NA,NA,NA,NA,NA,NA,NA,NA,NA,NA,NA,NA,NA
161f9,Shallow Question,html.Page,3_0_0_0_0_1_0,NA,NA,form submission,6091.8420000238,96511.100000024,96495.9,96514.258,102606.10000002,102606.60000002,2023-11-25T13:34:00Z,102613.999,NULL,Niveau,kiwango,s,usimamizi,mwamali,mshairi,usimamizi,NA,NA,0,NA,NA,NA,NA,NA,NA,NA,NA,NA,NA,NA,NA,NA,NA,NA,NA,NA,NA,NA
161f9,"""Richtig""-Screen",canvas.Screen,3_0_0_0_0_1_1,NA,NA,skipped,NA,102609.9000001,NA,NA,102606.10000002,102610.10000002,2023-11-25T13:34:00Z,102613.999,NULL,Niveau,kiwango,s,usimamizi,mwamali,mshairi,NA,sdf,NA,0,NA,NA,NA,NA,NA,NA,NA,NA,NA,NA,NA,NA,NA,NA,NA,NA,NA,NA,NA
161f9,"""Falsch""-Screen",canvas.Screen,3_0_0_0_0_1_2,NA,NA,timeout,5000.209,102610.9000001,102598.082,102613.999,107597.374,107599,2023-11-25T13:34:05Z,107614.208,NULL,Niveau,kiwango,s,usimamizi,mwamali,mshairi,NA,sdf,0,0,NA,NA,NA,NA,NA,NA,NA,NA,NA,NA,NA,NA,NA,NA,NA,NA,NA,NA,NA
161f9,shallow,flow.Sequence,3_0_0_0_0_1,NA,NA,completion,11083.116,96511.100000024,96495.9,96514.258,107597.374,107599.30000007,2023-11-25T13:34:05Z,107614.208,NULL,Niveau,kiwango,s,usimamizi,mwamali,mshairi,NA,sdf,NA,0,NA,NA,NA,NA,NA,NA,NA,NA,NA,NA,NA,NA,NA,NA,NA,NA,NA,NA,NA
161f9,task,flow.Sequence,3_0_0_0_0,NA,NA,completion,11083.116,96511,96495.9,96514.258,107597.374,107599.4000001,2023-11-25T13:34:05Z,107614.208,NULL,Niveau,kiwango,s,usimamizi,mwamali,mshairi,NA,sdf,NA,0,NA,NA,NA,NA,NA,NA,NA,NA,NA,NA,NA,NA,NA,NA,NA,NA,NA,NA,NA
161f9,Deep Question,html.Page,3_0_0_0_1_0_0,NA,NA,form submission,2707.0920000715,107599.60000002,107597.374,107614.208,110321.30000007,110321.60000002,2023-11-25T13:34:07Z,110330.441,NULL,Entwicklung,maendeleo,d,NA,NA,NA,k,NA,NA,0,NA,NA,NA,NA,NA,NA,NA,NA,NA,NA,NA,NA,NA,NA,NA,NA,NA,NA,NA
161f9,"""Richtig""-Screen",canvas.Screen,3_0_0_0_1_0_1,NA,NA,skipped,NA,110324.70000005,NA,NA,110321.30000007,110324.9000001,2023-11-25T13:34:07Z,110330.441,NULL,Entwicklung,maendeleo,d,NA,NA,NA,NA,sdf,NA,0,NA,NA,NA,NA,NA,NA,NA,NA,NA,NA,NA,NA,NA,NA,NA,NA,NA,NA,NA
161f9,"""Falsch""-Screen",canvas.Screen,3_0_0_0_1_0_2,NA,NA,timeout,5000.593,110325.9000001,110314.593,110330.441,115313.918,115315.70000005,2023-11-25T13:34:12Z,115331.034,NULL,Entwicklung,maendeleo,d,NA,NA,NA,NA,sdf,0,0,NA,NA,NA,NA,NA,NA,NA,NA,NA,NA,NA,NA,NA,NA,NA,NA,NA,NA,NA
161f9,deep,flow.Sequence,3_0_0_0_1_0,NA,NA,completion,7699.71,107599.5,107597.374,107614.208,115313.918,115315.9000001,2023-11-25T13:34:12Z,115331.034,NULL,Entwicklung,maendeleo,d,NA,NA,NA,NA,sdf,NA,0,NA,NA,NA,NA,NA,NA,NA,NA,NA,NA,NA,NA,NA,NA,NA,NA,NA,NA,NA
161f9,shallow,flow.Sequence,3_0_0_0_1_1,NA,NA,skipped,NA,115316,NA,NA,115313.918,115316.10000002,2023-11-25T13:34:12Z,115331.034,NULL,Entwicklung,maendeleo,d,NA,NA,NA,NA,sdf,NA,0,NA,NA,NA,NA,NA,NA,NA,NA,NA,NA,NA,NA,NA,NA,NA,NA,NA,NA,NA
161f9,task,flow.Sequence,3_0_0_0_1,NA,NA,completion,7699.71,107599.5,107597.374,107614.208,115313.918,115316.20000005,2023-11-25T13:34:12Z,115331.034,NULL,Entwicklung,maendeleo,d,NA,NA,NA,NA,sdf,NA,0,NA,NA,NA,NA,NA,NA,NA,NA,NA,NA,NA,NA,NA,NA,NA,NA,NA,NA,NA
161f9,Deep Question,html.Page,3_0_0_0_2_0_0,NA,NA,form submission,4644.2660000715,115316.30000007,115313.918,115331.034,119975.30000007,119975.60000002,2023-11-25T13:34:17Z,119980.701,NULL,Übersicht,kilindo,d,NA,NA,NA,k,NA,NA,0,NA,NA,NA,NA,NA,NA,NA,NA,NA,NA,NA,NA,NA,NA,NA,NA,NA,NA,NA
161f9,"""Richtig""-Screen",canvas.Screen,3_0_0_0_2_0_1,NA,NA,skipped,NA,119978.9000001,NA,NA,119975.30000007,119979,2023-11-25T13:34:17Z,119980.701,NULL,Übersicht,kilindo,d,NA,NA,NA,NA,sdf,NA,0,NA,NA,NA,NA,NA,NA,NA,NA,NA,NA,NA,NA,NA,NA,NA,NA,NA,NA,NA
161f9,"""Falsch""-Screen",canvas.Screen,3_0_0_0_2_0_2,NA,NA,timeout,4999.786,119980.10000002,119962.608,119980.701,124964.13,124965.10000002,2023-11-25T13:34:22Z,124980.487,NULL,Übersicht,kilindo,d,NA,NA,NA,NA,sdf,0,0,NA,NA,NA,NA,NA,NA,NA,NA,NA,NA,NA,NA,NA,NA,NA,NA,NA,NA,NA
161f9,deep,flow.Sequence,3_0_0_0_2_0,NA,NA,completion,9633.096,115316.30000007,115313.918,115331.034,124964.13,124965.30000007,2023-11-25T13:34:22Z,124980.487,NULL,Übersicht,kilindo,d,NA,NA,NA,NA,sdf,NA,0,NA,NA,NA,NA,NA,NA,NA,NA,NA,NA,NA,NA,NA,NA,NA,NA,NA,NA,NA
161f9,shallow,flow.Sequence,3_0_0_0_2_1,NA,NA,skipped,NA,124965.4000001,NA,NA,124964.13,124965.5,2023-11-25T13:34:22Z,124980.487,NULL,Übersicht,kilindo,d,NA,NA,NA,NA,sdf,NA,0,NA,NA,NA,NA,NA,NA,NA,NA,NA,NA,NA,NA,NA,NA,NA,NA,NA,NA,NA
161f9,task,flow.Sequence,3_0_0_0_2,NA,NA,completion,9633.096,115316.30000007,115313.918,115331.034,124964.13,124965.60000002,2023-11-25T13:34:22Z,124980.487,NULL,Übersicht,kilindo,d,NA,NA,NA,NA,sdf,NA,0,NA,NA,NA,NA,NA,NA,NA,NA,NA,NA,NA,NA,NA,NA,NA,NA,NA,NA,NA
161f9,deep,flow.Sequence,3_0_0_0_3_0,NA,NA,skipped,NA,124965.60000002,NA,NA,124964.13,124965.70000005,2023-11-25T13:34:22Z,124980.487,NULL,System,maongozi,s,chokochoko,nuksani,mitaani,NA,sdf,NA,0,NA,NA,NA,NA,NA,NA,NA,NA,NA,NA,NA,NA,NA,NA,NA,NA,NA,NA,NA
161f9,Shallow Question,html.Page,3_0_0_0_3_1_0,NA,NA,form submission,3916.013,124965.80000007,124964.13,124980.487,128896.5,128897.10000002,2023-11-25T13:34:26Z,128913.248,NULL,System,maongozi,s,chokochoko,nuksani,mitaani,nuksani,NA,NA,0,NA,NA,NA,NA,NA,NA,NA,NA,NA,NA,NA,NA,NA,NA,NA,NA,NA,NA,NA
161f9,"""Richtig""-Screen",canvas.Screen,3_0_0_0_3_1_1,NA,NA,skipped,NA,128900.20000005,NA,NA,128896.5,128900.30000007,2023-11-25T13:34:26Z,128913.248,NULL,System,maongozi,s,chokochoko,nuksani,mitaani,NA,sdf,NA,0,NA,NA,NA,NA,NA,NA,NA,NA,NA,NA,NA,NA,NA,NA,NA,NA,NA,NA,NA
161f9,"""Falsch""-Screen",canvas.Screen,3_0_0_0_3_1_2,NA,NA,timeout,4999.902,128901,128882.507,128913.248,133896.483,133897.4000001,2023-11-25T13:34:31Z,133913.15,NULL,System,maongozi,s,chokochoko,nuksani,mitaani,NA,sdf,0,0,NA,NA,NA,NA,NA,NA,NA,NA,NA,NA,NA,NA,NA,NA,NA,NA,NA,NA,NA
161f9,shallow,flow.Sequence,3_0_0_0_3_1,NA,NA,completion,8915.996,124965.70000005,124964.13,124980.487,133896.483,133897.60000002,2023-11-25T13:34:31Z,133913.15,NULL,System,maongozi,s,chokochoko,nuksani,mitaani,NA,sdf,NA,0,NA,NA,NA,NA,NA,NA,NA,NA,NA,NA,NA,NA,NA,NA,NA,NA,NA,NA,NA
161f9,task,flow.Sequence,3_0_0_0_3,NA,NA,completion,8915.996,124965.60000002,124964.13,124980.487,133896.483,133897.70000005,2023-11-25T13:34:31Z,133913.15,NULL,System,maongozi,s,chokochoko,nuksani,mitaani,NA,sdf,NA,0,NA,NA,NA,NA,NA,NA,NA,NA,NA,NA,NA,NA,NA,NA,NA,NA,NA,NA,NA
161f9,deep,flow.Sequence,3_0_0_0_4_0,NA,NA,skipped,NA,133897.70000005,NA,NA,133896.483,133897.80000007,2023-11-25T13:34:31Z,133913.15,NULL,Lawine,banguko,s,maambukizi,usuluhishi,chekechea,NA,sdf,NA,0,NA,NA,NA,NA,NA,NA,NA,NA,NA,NA,NA,NA,NA,NA,NA,NA,NA,NA,NA
161f9,Shallow Question,html.Page,3_0_0_0_4_1_0,NA,NA,form submission,5029.4500000238,133897.80000007,133896.483,133913.15,138942.60000002,138942.80000007,2023-11-25T13:34:36Z,138946.293,NULL,Lawine,banguko,s,maambukizi,usuluhishi,chekechea,usuluhishi,NA,NA,0,NA,NA,NA,NA,NA,NA,NA,NA,NA,NA,NA,NA,NA,NA,NA,NA,NA,NA,NA
161f9,"""Richtig""-Screen",canvas.Screen,3_0_0_0_4_1_1,NA,NA,skipped,NA,138945.60000002,NA,NA,138942.60000002,138945.70000005,2023-11-25T13:34:36Z,138946.293,NULL,Lawine,banguko,s,maambukizi,usuluhishi,chekechea,NA,sdf,NA,0,NA,NA,NA,NA,NA,NA,NA,NA,NA,NA,NA,NA,NA,NA,NA,NA,NA,NA,NA
161f9,"""Falsch""-Screen",canvas.Screen,3_0_0_0_4_1_2,NA,NA,timeout,4999.987,138946.30000007,138934.778,138946.293,143929.549,143930,2023-11-25T13:34:41Z,143946.28,NULL,Lawine,banguko,s,maambukizi,usuluhishi,chekechea,NA,sdf,0,0,NA,NA,NA,NA,NA,NA,NA,NA,NA,NA,NA,NA,NA,NA,NA,NA,NA,NA,NA
161f9,shallow,flow.Sequence,3_0_0_0_4_1,NA,NA,completion,10016.399,133897.80000007,133896.483,133913.15,143929.549,143930.10000002,2023-11-25T13:34:41Z,143946.28,NULL,Lawine,banguko,s,maambukizi,usuluhishi,chekechea,NA,sdf,NA,0,NA,NA,NA,NA,NA,NA,NA,NA,NA,NA,NA,NA,NA,NA,NA,NA,NA,NA,NA
161f9,task,flow.Sequence,3_0_0_0_4,NA,NA,completion,10016.399,133897.70000005,133896.483,133913.15,143929.549,143930.30000007,2023-11-25T13:34:41Z,143946.28,NULL,Lawine,banguko,s,maambukizi,usuluhishi,chekechea,NA,sdf,NA,0,NA,NA,NA,NA,NA,NA,NA,NA,NA,NA,NA,NA,NA,NA,NA,NA,NA,NA,NA
161f9,Deep Question,html.Page,3_0_0_0_5_0_0,NA,NA,form submission,2674.3200000238,143930.4000001,143929.549,143946.28,146620.60000002,146620.80000007,2023-11-25T13:34:44Z,146629.461,NULL,Körper,kiwiliwili,d,NA,NA,NA,df,NA,NA,0,NA,NA,NA,NA,NA,NA,NA,NA,NA,NA,NA,NA,NA,NA,NA,NA,NA,NA,NA
161f9,"""Richtig""-Screen",canvas.Screen,3_0_0_0_5_0_1,NA,NA,skipped,NA,146624.10000002,NA,NA,146620.60000002,146624.20000005,2023-11-25T13:34:44Z,146629.461,NULL,Körper,kiwiliwili,d,NA,NA,NA,NA,sdf,NA,0,NA,NA,NA,NA,NA,NA,NA,NA,NA,NA,NA,NA,NA,NA,NA,NA,NA,NA,NA
161f9,"""Falsch""-Screen",canvas.Screen,3_0_0_0_5_0_2,NA,NA,timeout,5000.558,146625.30000007,146606.865,146629.461,151613.337,151614.20000005,2023-11-25T13:34:49Z,151630.019,NULL,Körper,kiwiliwili,d,NA,NA,NA,NA,sdf,0,0,NA,NA,NA,NA,NA,NA,NA,NA,NA,NA,NA,NA,NA,NA,NA,NA,NA,NA,NA
161f9,deep,flow.Sequence,3_0_0_0_5_0,NA,NA,completion,7667.057,143930.4000001,143929.549,143946.28,151613.337,151614.4000001,2023-11-25T13:34:49Z,151630.019,NULL,Körper,kiwiliwili,d,NA,NA,NA,NA,sdf,NA,0,NA,NA,NA,NA,NA,NA,NA,NA,NA,NA,NA,NA,NA,NA,NA,NA,NA,NA,NA
161f9,shallow,flow.Sequence,3_0_0_0_5_1,NA,NA,skipped,NA,151614.5,NA,NA,151613.337,151614.60000002,2023-11-25T13:34:49Z,151630.019,NULL,Körper,kiwiliwili,d,NA,NA,NA,NA,sdf,NA,0,NA,NA,NA,NA,NA,NA,NA,NA,NA,NA,NA,NA,NA,NA,NA,NA,NA,NA,NA
161f9,task,flow.Sequence,3_0_0_0_5,NA,NA,completion,7667.057,143930.30000007,143929.549,143946.28,151613.337,151614.60000002,2023-11-25T13:34:49Z,151630.019,NULL,Körper,kiwiliwili,d,NA,NA,NA,NA,sdf,NA,0,NA,NA,NA,NA,NA,NA,NA,NA,NA,NA,NA,NA,NA,NA,NA,NA,NA,NA,NA
161f9,Deep Question,html.Page,3_0_0_0_6_0_0,NA,NA,form submission,2507.3810000954,151614.70000005,151613.337,151630.019,154137.4000001,154137.80000007,2023-11-25T13:34:51Z,154162.684,NULL,Vorwurf,mashtaka,d,NA,NA,NA,d,NA,NA,0,NA,NA,NA,NA,NA,NA,NA,NA,NA,NA,NA,NA,NA,NA,NA,NA,NA,NA,NA
161f9,"""Richtig""-Screen",canvas.Screen,3_0_0_0_6_0_1,NA,NA,skipped,NA,154140.60000002,NA,NA,154137.4000001,154140.80000007,2023-11-25T13:34:51Z,154162.684,NULL,Vorwurf,mashtaka,d,NA,NA,NA,NA,sdf,NA,0,NA,NA,NA,NA,NA,NA,NA,NA,NA,NA,NA,NA,NA,NA,NA,NA,NA,NA,NA
161f9,"""Falsch""-Screen",canvas.Screen,3_0_0_0_6_0_2,NA,NA,timeout,4999.749,154141.4000001,154146.007,154162.684,159146.48,159147.5,2023-11-25T13:34:56Z,159162.433,NULL,Vorwurf,mashtaka,d,NA,NA,NA,NA,sdf,0,0,NA,NA,NA,NA,NA,NA,NA,NA,NA,NA,NA,NA,NA,NA,NA,NA,NA,NA,NA
161f9,deep,flow.Sequence,3_0_0_0_6_0,NA,NA,completion,7516.461,151614.70000005,151613.337,151630.019,159146.48,159147.70000005,2023-11-25T13:34:56Z,159162.433,NULL,Vorwurf,mashtaka,d,NA,NA,NA,NA,sdf,NA,0,NA,NA,NA,NA,NA,NA,NA,NA,NA,NA,NA,NA,NA,NA,NA,NA,NA,NA,NA
161f9,shallow,flow.Sequence,3_0_0_0_6_1,NA,NA,skipped,NA,159147.80000007,NA,NA,159146.48,159147.9000001,2023-11-25T13:34:56Z,159162.433,NULL,Vorwurf,mashtaka,d,NA,NA,NA,NA,sdf,NA,0,NA,NA,NA,NA,NA,NA,NA,NA,NA,NA,NA,NA,NA,NA,NA,NA,NA,NA,NA
161f9,task,flow.Sequence,3_0_0_0_6,NA,NA,completion,7516.461,151614.70000005,151613.337,151630.019,159146.48,159147.9000001,2023-11-25T13:34:56Z,159162.433,NULL,Vorwurf,mashtaka,d,NA,NA,NA,NA,sdf,NA,0,NA,NA,NA,NA,NA,NA,NA,NA,NA,NA,NA,NA,NA,NA,NA,NA,NA,NA,NA
161f9,deep,flow.Sequence,3_0_0_0_7_0,NA,NA,skipped,NA,159148.10000002,NA,NA,159146.48,159148.10000002,2023-11-25T13:34:56Z,159162.433,NULL,Papier,karatasi,s,uchambuzi,usalama,kukataliwa,NA,sdf,NA,0,NA,NA,NA,NA,NA,NA,NA,NA,NA,NA,NA,NA,NA,NA,NA,NA,NA,NA,NA
161f9,Shallow Question,html.Page,3_0_0_0_7_1_0,NA,NA,form submission,4672.9670000954,159148.20000005,159146.48,159162.433,163835.4000001,163835.70000005,2023-11-25T13:35:01Z,163859.849,NULL,Papier,karatasi,s,uchambuzi,usalama,kukataliwa,usalama,NA,NA,0,NA,NA,NA,NA,NA,NA,NA,NA,NA,NA,NA,NA,NA,NA,NA,NA,NA,NA,NA
161f9,"""Richtig""-Screen",canvas.Screen,3_0_0_0_7_1_1,NA,NA,skipped,NA,163838.5,NA,NA,163835.4000001,163838.70000005,2023-11-25T13:35:01Z,163859.849,NULL,Papier,karatasi,s,uchambuzi,usalama,kukataliwa,NA,sdf,NA,0,NA,NA,NA,NA,NA,NA,NA,NA,NA,NA,NA,NA,NA,NA,NA,NA,NA,NA,NA
161f9,"""Falsch""-Screen",canvas.Screen,3_0_0_0_7_1_2,NA,NA,timeout,5003.017,163839.30000007,163826.642,163859.849,168846.196,168847.5,2023-11-25T13:35:06Z,168862.866,NULL,Papier,karatasi,s,uchambuzi,usalama,kukataliwa,NA,sdf,0,0,NA,NA,NA,NA,NA,NA,NA,NA,NA,NA,NA,NA,NA,NA,NA,NA,NA,NA,NA
161f9,shallow,flow.Sequence,3_0_0_0_7_1,NA,NA,completion,9683.763,159148.20000005,159146.48,159162.433,168846.196,168847.9000001,2023-11-25T13:35:06Z,168862.866,NULL,Papier,karatasi,s,uchambuzi,usalama,kukataliwa,NA,sdf,NA,0,NA,NA,NA,NA,NA,NA,NA,NA,NA,NA,NA,NA,NA,NA,NA,NA,NA,NA,NA
161f9,task,flow.Sequence,3_0_0_0_7,NA,NA,completion,9683.763,159148.10000002,159146.48,159162.433,168846.196,168848,2023-11-25T13:35:06Z,168862.866,NULL,Papier,karatasi,s,uchambuzi,usalama,kukataliwa,NA,sdf,NA,0,NA,NA,NA,NA,NA,NA,NA,NA,NA,NA,NA,NA,NA,NA,NA,NA,NA,NA,NA
161f9,block,flow.Loop,3_0_0_0,NA,NA,completion,72331.938,96511,96495.9,96514.258,168846.196,168848.10000002,2023-11-25T13:35:06Z,168862.866,NULL,NA,NA,NA,NA,NA,NA,NA,sdf,NA,0,NA,NA,NA,NA,NA,NA,NA,NA,NA,NA,NA,NA,NA,NA,NA,NA,NA,NA,NA
161f9,weiter,canvas.Screen,3_0_0_1,sdf,keypress(Space),response,1574.7340000238,168848.20000005,168846.196,168862.866,170437.60000002,170438.9000001,2023-11-25T13:35:07Z,170462.098,NULL,NA,NA,NA,NA,NA,NA,NA,sdf,NA,0,NA,NA,NA,NA,NA,NA,NA,NA,NA,NA,NA,NA,NA,NA,NA,NA,NA,NA,NA
161f9,check continue,flow.Sequence,3_0_0,NA,NA,completion,73923.342000024,96511,96495.9,96514.258,170437.60000002,170439,2023-11-25T13:35:07Z,170462.098,NULL,NA,NA,NA,NA,NA,NA,NA,sdf,NA,0,NA,NA,NA,NA,NA,NA,NA,NA,NA,NA,NA,NA,NA,NA,NA,NA,NA,NA,NA
161f9,Deep Question,html.Page,3_0_1_0_0_0_0,NA,NA,form submission,4744.1020000477,170468.80000007,170428.36,170462.098,175206.20000005,175206.70000005,2023-11-25T13:35:12Z,175212.074,NULL,Entwicklung,maendeleo,d,NA,NA,NA,d,NA,NA,1,NA,NA,NA,NA,NA,NA,NA,NA,NA,NA,NA,NA,NA,NA,NA,NA,NA,NA,NA
161f9,"""Richtig""-Screen",canvas.Screen,3_0_1_0_0_0_1,NA,NA,skipped,NA,175209.60000002,NA,NA,175206.20000005,175209.80000007,2023-11-25T13:35:12Z,175212.074,NULL,Entwicklung,maendeleo,d,NA,NA,NA,NA,sdfdsf,NA,1,NA,NA,NA,NA,NA,NA,NA,NA,NA,NA,NA,NA,NA,NA,NA,NA,NA,NA,NA
161f9,"""Falsch""-Screen",canvas.Screen,3_0_1_0_0_0_2,NA,NA,timeout,5000.723,175210.5,175196.381,175212.074,180195.183,180195.60000002,2023-11-25T13:35:17Z,180212.797,NULL,Entwicklung,maendeleo,d,NA,NA,NA,NA,sdfdsf,0,1,NA,NA,NA,NA,NA,NA,NA,NA,NA,NA,NA,NA,NA,NA,NA,NA,NA,NA,NA
161f9,deep,flow.Sequence,3_0_1_0_0_0,NA,NA,completion,9733.085,170468.80000007,170428.36,170462.098,180195.183,180195.70000005,2023-11-25T13:35:17Z,180212.797,NULL,Entwicklung,maendeleo,d,NA,NA,NA,NA,sdfdsf,NA,1,NA,NA,NA,NA,NA,NA,NA,NA,NA,NA,NA,NA,NA,NA,NA,NA,NA,NA,NA
161f9,shallow,flow.Sequence,3_0_1_0_0_1,NA,NA,skipped,NA,180195.9000001,NA,NA,180195.183,180195.9000001,2023-11-25T13:35:17Z,180212.797,NULL,Entwicklung,maendeleo,d,NA,NA,NA,NA,sdfdsf,NA,1,NA,NA,NA,NA,NA,NA,NA,NA,NA,NA,NA,NA,NA,NA,NA,NA,NA,NA,NA
161f9,task,flow.Sequence,3_0_1_0_0,NA,NA,completion,9733.085,170468.80000007,170428.36,170462.098,180195.183,180196,2023-11-25T13:35:17Z,180212.797,NULL,Entwicklung,maendeleo,d,NA,NA,NA,NA,sdfdsf,NA,1,NA,NA,NA,NA,NA,NA,NA,NA,NA,NA,NA,NA,NA,NA,NA,NA,NA,NA,NA
161f9,deep,flow.Sequence,3_0_1_0_1_0,NA,NA,skipped,NA,180196.10000002,NA,NA,180195.183,180196.20000005,2023-11-25T13:35:17Z,180212.797,NULL,System,maongozi,s,chokochoko,nuksani,mitaani,NA,sdfdsf,NA,1,NA,NA,NA,NA,NA,NA,NA,NA,NA,NA,NA,NA,NA,NA,NA,NA,NA,NA,NA
161f9,Shallow Question,html.Page,3_0_1_0_1_1_0,NA,NA,form submission,5160.5030000715,180196.20000005,180195.183,180212.797,185373.30000007,185373.70000005,2023-11-25T13:35:22Z,185378.387,NULL,System,maongozi,s,chokochoko,nuksani,mitaani,maongozi,NA,NA,1,NA,NA,NA,NA,NA,NA,NA,NA,NA,NA,NA,NA,NA,NA,NA,NA,NA,NA,NA
161f9,"""Richtig""-Screen",canvas.Screen,3_0_1_0_1_1_1,NA,NA,timeout,5000.14,185376.5,185363.041,185378.387,190362.263,190363.20000005,2023-11-25T13:35:27Z,190378.527,NULL,System,maongozi,s,chokochoko,nuksani,mitaani,NA,sdfdsf,1,1,NA,NA,NA,NA,NA,NA,NA,NA,NA,NA,NA,NA,NA,NA,NA,NA,NA,NA,NA
161f9,"""Falsch""-Screen",canvas.Screen,3_0_1_0_1_1_2,NA,NA,skipped,NA,190366,NA,NA,190362.263,190366.20000005,2023-11-25T13:35:27Z,190378.527,NULL,System,maongozi,s,chokochoko,nuksani,mitaani,NA,sdfdsf,NA,1,NA,NA,NA,NA,NA,NA,NA,NA,NA,NA,NA,NA,NA,NA,NA,NA,NA,NA,NA
161f9,shallow,flow.Sequence,3_0_1_0_1_1,NA,NA,completion,10149.466,180196.20000005,180195.183,180212.797,190362.263,190366.4000001,2023-11-25T13:35:27Z,190378.527,NULL,System,maongozi,s,chokochoko,nuksani,mitaani,NA,sdfdsf,NA,1,NA,NA,NA,NA,NA,NA,NA,NA,NA,NA,NA,NA,NA,NA,NA,NA,NA,NA,NA
161f9,task,flow.Sequence,3_0_1_0_1,NA,NA,completion,10149.466,180196.10000002,180195.183,180212.797,190362.263,190366.5,2023-11-25T13:35:27Z,190378.527,NULL,System,maongozi,s,chokochoko,nuksani,mitaani,NA,sdfdsf,NA,1,NA,NA,NA,NA,NA,NA,NA,NA,NA,NA,NA,NA,NA,NA,NA,NA,NA,NA,NA
161f9,deep,flow.Sequence,3_0_1_0_2_0,NA,NA,skipped,NA,190366.60000002,NA,NA,190362.263,190366.70000005,2023-11-25T13:35:27Z,190378.527,NULL,Lawine,banguko,s,maambukizi,usuluhishi,chekechea,NA,sdfdsf,NA,1,NA,NA,NA,NA,NA,NA,NA,NA,NA,NA,NA,NA,NA,NA,NA,NA,NA,NA,NA
161f9,Shallow Question,html.Page,3_0_1_0_2_1_0,NA,NA,form submission,4712.8730000954,190366.80000007,190362.263,190378.527,195091.4000001,195091.70000005,2023-11-25T13:35:32Z,195095.162,NULL,Lawine,banguko,s,maambukizi,usuluhishi,chekechea,banguko,NA,NA,1,NA,NA,NA,NA,NA,NA,NA,NA,NA,NA,NA,NA,NA,NA,NA,NA,NA,NA,NA
161f9,"""Richtig""-Screen",canvas.Screen,3_0_1_0_2_1_1,NA,NA,timeout,4999.501,195095.10000002,195076.831,195095.162,200078.669,200081.20000005,2023-11-25T13:35:37Z,200094.663,NULL,Lawine,banguko,s,maambukizi,usuluhishi,chekechea,NA,sdfdsf,1,1,NA,NA,NA,NA,NA,NA,NA,NA,NA,NA,NA,NA,NA,NA,NA,NA,NA,NA,NA
161f9,"""Falsch""-Screen",canvas.Screen,3_0_1_0_2_1_2,NA,NA,skipped,NA,200084.5,NA,NA,200078.669,200084.80000007,2023-11-25T13:35:37Z,200094.663,NULL,Lawine,banguko,s,maambukizi,usuluhishi,chekechea,NA,sdfdsf,NA,1,NA,NA,NA,NA,NA,NA,NA,NA,NA,NA,NA,NA,NA,NA,NA,NA,NA,NA,NA
161f9,shallow,flow.Sequence,3_0_1_0_2_1,NA,NA,completion,9700.142,190366.80000007,190362.263,190378.527,200078.669,200085,2023-11-25T13:35:37Z,200094.663,NULL,Lawine,banguko,s,maambukizi,usuluhishi,chekechea,NA,sdfdsf,NA,1,NA,NA,NA,NA,NA,NA,NA,NA,NA,NA,NA,NA,NA,NA,NA,NA,NA,NA,NA
161f9,task,flow.Sequence,3_0_1_0_2,NA,NA,completion,9700.142,190366.60000002,190362.263,190378.527,200078.669,200085.10000002,2023-11-25T13:35:37Z,200094.663,NULL,Lawine,banguko,s,maambukizi,usuluhishi,chekechea,NA,sdfdsf,NA,1,NA,NA,NA,NA,NA,NA,NA,NA,NA,NA,NA,NA,NA,NA,NA,NA,NA,NA,NA
161f9,deep,flow.Sequence,3_0_1_0_3_0,NA,NA,skipped,NA,200085.10000002,NA,NA,200078.669,200085.20000005,2023-11-25T13:35:37Z,200094.663,NULL,Papier,karatasi,s,uchambuzi,usalama,kukataliwa,NA,sdfdsf,NA,1,NA,NA,NA,NA,NA,NA,NA,NA,NA,NA,NA,NA,NA,NA,NA,NA,NA,NA,NA
161f9,Shallow Question,html.Page,3_0_1_0_3_1_0,NA,NA,form submission,5228.0370000477,200085.30000007,200078.669,200094.663,205322.70000005,205323.20000005,2023-11-25T13:35:42Z,205327.905,NULL,Papier,karatasi,s,uchambuzi,usalama,kukataliwa,kukataliwa,NA,NA,1,NA,NA,NA,NA,NA,NA,NA,NA,NA,NA,NA,NA,NA,NA,NA,NA,NA,NA,NA
161f9,"""Richtig""-Screen",canvas.Screen,3_0_1_0_3_1_1,NA,NA,skipped,NA,205326.30000007,NA,NA,205322.70000005,205326.5,2023-11-25T13:35:42Z,205327.905,NULL,Papier,karatasi,s,uchambuzi,usalama,kukataliwa,NA,sdfdsf,NA,1,NA,NA,NA,NA,NA,NA,NA,NA,NA,NA,NA,NA,NA,NA,NA,NA,NA,NA,NA
161f9,"""Falsch""-Screen",canvas.Screen,3_0_1_0_3_1_2,NA,NA,timeout,5000.369,205327.4000001,205306.008,205327.905,210311.457,210312.80000007,2023-11-25T13:35:47Z,210328.274,NULL,Papier,karatasi,s,uchambuzi,usalama,kukataliwa,NA,sdfdsf,0,1,NA,NA,NA,NA,NA,NA,NA,NA,NA,NA,NA,NA,NA,NA,NA,NA,NA,NA,NA
161f9,shallow,flow.Sequence,3_0_1_0_3_1,NA,NA,completion,10216.794,200085.30000007,200078.669,200094.663,210311.457,210313.10000002,2023-11-25T13:35:47Z,210328.274,NULL,Papier,karatasi,s,uchambuzi,usalama,kukataliwa,NA,sdfdsf,NA,1,NA,NA,NA,NA,NA,NA,NA,NA,NA,NA,NA,NA,NA,NA,NA,NA,NA,NA,NA
161f9,task,flow.Sequence,3_0_1_0_3,NA,NA,completion,10216.794,200085.10000002,200078.669,200094.663,210311.457,210313.30000007,2023-11-25T13:35:47Z,210328.274,NULL,Papier,karatasi,s,uchambuzi,usalama,kukataliwa,NA,sdfdsf,NA,1,NA,NA,NA,NA,NA,NA,NA,NA,NA,NA,NA,NA,NA,NA,NA,NA,NA,NA,NA
161f9,Deep Question,html.Page,3_0_1_0_4_0_0,NA,NA,form submission,2655.3260000238,210313.4000001,210311.457,210328.274,212983.60000002,212984,2023-11-25T13:35:50Z,212994.439,NULL,Vorwurf,mashtaka,d,NA,NA,NA,k,NA,NA,1,NA,NA,NA,NA,NA,NA,NA,NA,NA,NA,NA,NA,NA,NA,NA,NA,NA,NA,NA
161f9,"""Richtig""-Screen",canvas.Screen,3_0_1_0_4_0_1,NA,NA,skipped,NA,212987.30000007,NA,NA,212983.60000002,212987.5,2023-11-25T13:35:50Z,212994.439,NULL,Vorwurf,mashtaka,d,NA,NA,NA,NA,sdfdsf,NA,1,NA,NA,NA,NA,NA,NA,NA,NA,NA,NA,NA,NA,NA,NA,NA,NA,NA,NA,NA
161f9,"""Falsch""-Screen",canvas.Screen,3_0_1_0_4_0_2,NA,NA,timeout,5000.162,212988.10000002,212968.839,212994.439,217978.11,217979,2023-11-25T13:35:55Z,217994.601,NULL,Vorwurf,mashtaka,d,NA,NA,NA,NA,sdfdsf,0,1,NA,NA,NA,NA,NA,NA,NA,NA,NA,NA,NA,NA,NA,NA,NA,NA,NA,NA,NA
161f9,deep,flow.Sequence,3_0_1_0_4_0,NA,NA,completion,7649.836,210313.4000001,210311.457,210328.274,217978.11,217979.30000007,2023-11-25T13:35:55Z,217994.601,NULL,Vorwurf,mashtaka,d,NA,NA,NA,NA,sdfdsf,NA,1,NA,NA,NA,NA,NA,NA,NA,NA,NA,NA,NA,NA,NA,NA,NA,NA,NA,NA,NA
161f9,shallow,flow.Sequence,3_0_1_0_4_1,NA,NA,skipped,NA,217979.5,NA,NA,217978.11,217979.60000002,2023-11-25T13:35:55Z,217994.601,NULL,Vorwurf,mashtaka,d,NA,NA,NA,NA,sdfdsf,NA,1,NA,NA,NA,NA,NA,NA,NA,NA,NA,NA,NA,NA,NA,NA,NA,NA,NA,NA,NA
161f9,task,flow.Sequence,3_0_1_0_4,NA,NA,completion,7649.836,210313.4000001,210311.457,210328.274,217978.11,217979.70000005,2023-11-25T13:35:55Z,217994.601,NULL,Vorwurf,mashtaka,d,NA,NA,NA,NA,sdfdsf,NA,1,NA,NA,NA,NA,NA,NA,NA,NA,NA,NA,NA,NA,NA,NA,NA,NA,NA,NA,NA
161f9,Deep Question,html.Page,3_0_1_0_5_0_0,NA,NA,form submission,2665.6990000715,217979.9000001,217978.11,217994.601,220660.30000007,220660.5,2023-11-25T13:35:58Z,220684.336,NULL,Übersicht,kilindo,d,NA,NA,NA,k,NA,NA,1,NA,NA,NA,NA,NA,NA,NA,NA,NA,NA,NA,NA,NA,NA,NA,NA,NA,NA,NA
161f9,"""Richtig""-Screen",canvas.Screen,3_0_1_0_5_0_1,NA,NA,skipped,NA,220664.10000002,NA,NA,220660.30000007,220664.30000007,2023-11-25T13:35:58Z,220684.336,NULL,Übersicht,kilindo,d,NA,NA,NA,NA,sdfdsf,NA,1,NA,NA,NA,NA,NA,NA,NA,NA,NA,NA,NA,NA,NA,NA,NA,NA,NA,NA,NA
161f9,"""Falsch""-Screen",canvas.Screen,3_0_1_0_5_0_2,NA,NA,timeout,4993.109,220665.20000005,220646.228,220684.336,225660.604,225667.30000007,2023-11-25T13:36:03Z,225677.445,NULL,Übersicht,kilindo,d,NA,NA,NA,NA,sdfdsf,0,1,NA,NA,NA,NA,NA,NA,NA,NA,NA,NA,NA,NA,NA,NA,NA,NA,NA,NA,NA
161f9,deep,flow.Sequence,3_0_1_0_5_0,NA,NA,completion,7666.003,217979.80000007,217978.11,217994.601,225660.604,225667.5,2023-11-25T13:36:03Z,225677.445,NULL,Übersicht,kilindo,d,NA,NA,NA,NA,sdfdsf,NA,1,NA,NA,NA,NA,NA,NA,NA,NA,NA,NA,NA,NA,NA,NA,NA,NA,NA,NA,NA
161f9,shallow,flow.Sequence,3_0_1_0_5_1,NA,NA,skipped,NA,225667.5,NA,NA,225660.604,225667.5,2023-11-25T13:36:03Z,225677.445,NULL,Übersicht,kilindo,d,NA,NA,NA,NA,sdfdsf,NA,1,NA,NA,NA,NA,NA,NA,NA,NA,NA,NA,NA,NA,NA,NA,NA,NA,NA,NA,NA
161f9,task,flow.Sequence,3_0_1_0_5,NA,NA,completion,7666.003,217979.80000007,217978.11,217994.601,225660.604,225667.70000005,2023-11-25T13:36:03Z,225677.445,NULL,Übersicht,kilindo,d,NA,NA,NA,NA,sdfdsf,NA,1,NA,NA,NA,NA,NA,NA,NA,NA,NA,NA,NA,NA,NA,NA,NA,NA,NA,NA,NA
161f9,deep,flow.Sequence,3_0_1_0_6_0,NA,NA,skipped,NA,225667.70000005,NA,NA,225660.604,225667.80000007,2023-11-25T13:36:03Z,225677.445,NULL,Niveau,kiwango,s,usimamizi,mwamali,mshairi,NA,sdfdsf,NA,1,NA,NA,NA,NA,NA,NA,NA,NA,NA,NA,NA,NA,NA,NA,NA,NA,NA,NA,NA
161f9,Shallow Question,html.Page,3_0_1_0_6_1_0,NA,NA,form submission,4105.3550000715,225667.80000007,225660.604,225677.445,229782.80000007,229783,2023-11-25T13:36:07Z,229794.453,NULL,Niveau,kiwango,s,usimamizi,mwamali,mshairi,kiwango,NA,NA,1,NA,NA,NA,NA,NA,NA,NA,NA,NA,NA,NA,NA,NA,NA,NA,NA,NA,NA,NA
161f9,"""Richtig""-Screen",canvas.Screen,3_0_1_0_6_1_1,NA,NA,timeout,5000.109,229785.70000005,229779.774,229794.453,234777.19,234785.60000002,2023-11-25T13:36:12Z,234794.562,NULL,Niveau,kiwango,s,usimamizi,mwamali,mshairi,NA,sdfdsf,1,1,NA,NA,NA,NA,NA,NA,NA,NA,NA,NA,NA,NA,NA,NA,NA,NA,NA,NA,NA
161f9,"""Falsch""-Screen",canvas.Screen,3_0_1_0_6_1_2,NA,NA,skipped,NA,234788.60000002,NA,NA,234777.19,234788.70000005,2023-11-25T13:36:12Z,234794.562,NULL,Niveau,kiwango,s,usimamizi,mwamali,mshairi,NA,sdfdsf,NA,1,NA,NA,NA,NA,NA,NA,NA,NA,NA,NA,NA,NA,NA,NA,NA,NA,NA,NA,NA
161f9,shallow,flow.Sequence,3_0_1_0_6_1,NA,NA,completion,9099.745,225667.80000007,225660.604,225677.445,234777.19,234788.9000001,2023-11-25T13:36:12Z,234794.562,NULL,Niveau,kiwango,s,usimamizi,mwamali,mshairi,NA,sdfdsf,NA,1,NA,NA,NA,NA,NA,NA,NA,NA,NA,NA,NA,NA,NA,NA,NA,NA,NA,NA,NA
161f9,task,flow.Sequence,3_0_1_0_6,NA,NA,completion,9099.745,225667.70000005,225660.604,225677.445,234777.19,234789,2023-11-25T13:36:12Z,234794.562,NULL,Niveau,kiwango,s,usimamizi,mwamali,mshairi,NA,sdfdsf,NA,1,NA,NA,NA,NA,NA,NA,NA,NA,NA,NA,NA,NA,NA,NA,NA,NA,NA,NA,NA
161f9,Deep Question,html.Page,3_0_1_0_7_0_0,NA,NA,form submission,2825.438,234789.20000005,234777.19,234794.562,237620,237620.30000007,2023-11-25T13:36:15Z,237627.093,NULL,Körper,kiwiliwili,d,NA,NA,NA,k,NA,NA,1,NA,NA,NA,NA,NA,NA,NA,NA,NA,NA,NA,NA,NA,NA,NA,NA,NA,NA,NA
161f9,"""Richtig""-Screen",canvas.Screen,3_0_1_0_7_0_1,NA,NA,skipped,NA,237621.4000001,NA,NA,237620,237621.5,2023-11-25T13:36:15Z,237627.093,NULL,Körper,kiwiliwili,d,NA,NA,NA,NA,sdfdsf,NA,1,NA,NA,NA,NA,NA,NA,NA,NA,NA,NA,NA,NA,NA,NA,NA,NA,NA,NA,NA
161f9,"""Falsch""-Screen",canvas.Screen,3_0_1_0_7_0_2,NA,NA,timeout,5000.419,237622.20000005,237610.071,237627.093,242610.825,242611.60000002,2023-11-25T13:36:20Z,242627.512,NULL,Körper,kiwiliwili,d,NA,NA,NA,NA,sdfdsf,0,1,NA,NA,NA,NA,NA,NA,NA,NA,NA,NA,NA,NA,NA,NA,NA,NA,NA,NA,NA
161f9,deep,flow.Sequence,3_0_1_0_7_0,NA,NA,completion,7816.263,234789.20000005,234777.19,234794.562,242610.825,242611.80000007,2023-11-25T13:36:20Z,242627.512,NULL,Körper,kiwiliwili,d,NA,NA,NA,NA,sdfdsf,NA,1,NA,NA,NA,NA,NA,NA,NA,NA,NA,NA,NA,NA,NA,NA,NA,NA,NA,NA,NA
161f9,shallow,flow.Sequence,3_0_1_0_7_1,NA,NA,skipped,NA,242611.9000001,NA,NA,242610.825,242611.9000001,2023-11-25T13:36:20Z,242627.512,NULL,Körper,kiwiliwili,d,NA,NA,NA,NA,sdfdsf,NA,1,NA,NA,NA,NA,NA,NA,NA,NA,NA,NA,NA,NA,NA,NA,NA,NA,NA,NA,NA
161f9,task,flow.Sequence,3_0_1_0_7,NA,NA,completion,7816.263,234789.10000002,234777.19,234794.562,242610.825,242612.10000002,2023-11-25T13:36:20Z,242627.512,NULL,Körper,kiwiliwili,d,NA,NA,NA,NA,sdfdsf,NA,1,NA,NA,NA,NA,NA,NA,NA,NA,NA,NA,NA,NA,NA,NA,NA,NA,NA,NA,NA
161f9,block,flow.Loop,3_0_1_0,NA,NA,completion,72148.727,170468.80000007,170428.36,170462.098,242610.825,242612.10000002,2023-11-25T13:36:20Z,242627.512,NULL,NA,NA,NA,NA,NA,NA,NA,sdfdsf,NA,1,NA,NA,NA,NA,NA,NA,NA,NA,NA,NA,NA,NA,NA,NA,NA,NA,NA,NA,NA
161f9,weiter,canvas.Screen,3_0_1_1,sdf,keypress(Space),response,2282.0880000239,242612.20000005,242610.825,242627.512,244909.60000002,244911.20000005,2023-11-25T13:36:22Z,244960.461,NULL,NA,NA,NA,NA,NA,NA,NA,sdfdsf,NA,1,NA,NA,NA,NA,NA,NA,NA,NA,NA,NA,NA,NA,NA,NA,NA,NA,NA,NA,NA
161f9,check continue,flow.Sequence,3_0_1,NA,NA,completion,74447.502000024,170468.80000007,170428.36,170462.098,244909.60000002,244911.5,2023-11-25T13:36:22Z,244960.461,NULL,NA,NA,NA,NA,NA,NA,NA,sdfdsf,NA,1,NA,NA,NA,NA,NA,NA,NA,NA,NA,NA,NA,NA,NA,NA,NA,NA,NA,NA,NA
161f9,Deep Question,html.Page,3_0_2_0_0_0_0,NA,NA,form submission,4717.8390000715,244945.80000007,244941.851,244960.461,249678.30000007,249678.70000005,2023-11-25T13:36:27Z,249693.354,NULL,Körper,kiwiliwili,d,NA,NA,NA,kiwiliwili,NA,NA,2,NA,NA,NA,NA,NA,NA,NA,NA,NA,NA,NA,NA,NA,NA,NA,NA,NA,NA,NA
161f9,"""Richtig""-Screen",canvas.Screen,3_0_2_0_0_0_1,NA,NA,timeout,5001.411,249681.60000002,249672.516,249693.354,254677.204,254686.10000002,2023-11-25T13:36:32Z,254694.765,NULL,Körper,kiwiliwili,d,NA,NA,NA,NA,sdf,1,2,NA,NA,NA,NA,NA,NA,NA,NA,NA,NA,NA,NA,NA,NA,NA,NA,NA,NA,NA
161f9,"""Falsch""-Screen",canvas.Screen,3_0_2_0_0_0_2,NA,NA,skipped,NA,254688.9000001,NA,NA,254677.204,254689.10000002,2023-11-25T13:36:32Z,254694.765,NULL,Körper,kiwiliwili,d,NA,NA,NA,NA,sdf,NA,2,NA,NA,NA,NA,NA,NA,NA,NA,NA,NA,NA,NA,NA,NA,NA,NA,NA,NA,NA
161f9,deep,flow.Sequence,3_0_2_0_0_0,NA,NA,completion,9716.743,244945.80000007,244941.851,244960.461,254677.204,254689.20000005,2023-11-25T13:36:32Z,254694.765,NULL,Körper,kiwiliwili,d,NA,NA,NA,NA,sdf,NA,2,NA,NA,NA,NA,NA,NA,NA,NA,NA,NA,NA,NA,NA,NA,NA,NA,NA,NA,NA
161f9,shallow,flow.Sequence,3_0_2_0_0_1,NA,NA,skipped,NA,254689.30000007,NA,NA,254677.204,254689.30000007,2023-11-25T13:36:32Z,254694.765,NULL,Körper,kiwiliwili,d,NA,NA,NA,NA,sdf,NA,2,NA,NA,NA,NA,NA,NA,NA,NA,NA,NA,NA,NA,NA,NA,NA,NA,NA,NA,NA
161f9,task,flow.Sequence,3_0_2_0_0,NA,NA,completion,9716.743,244945.80000007,244941.851,244960.461,254677.204,254689.4000001,2023-11-25T13:36:32Z,254694.765,NULL,Körper,kiwiliwili,d,NA,NA,NA,NA,sdf,NA,2,NA,NA,NA,NA,NA,NA,NA,NA,NA,NA,NA,NA,NA,NA,NA,NA,NA,NA,NA
161f9,deep,flow.Sequence,3_0_2_0_1_0,NA,NA,skipped,NA,254689.4000001,NA,NA,254677.204,254689.5,2023-11-25T13:36:32Z,254694.765,NULL,Niveau,kiwango,s,usimamizi,mwamali,mshairi,NA,sdf,NA,2,NA,NA,NA,NA,NA,NA,NA,NA,NA,NA,NA,NA,NA,NA,NA,NA,NA,NA,NA
161f9,Shallow Question,html.Page,3_0_2_0_1_1_0,NA,NA,form submission,2927.6350000954,254689.5,254677.204,254694.765,257622.4000001,257622.70000005,2023-11-25T13:36:35Z,257626.53,NULL,Niveau,kiwango,s,usimamizi,mwamali,mshairi,kiwango,NA,NA,2,NA,NA,NA,NA,NA,NA,NA,NA,NA,NA,NA,NA,NA,NA,NA,NA,NA,NA,NA
161f9,"""Richtig""-Screen",canvas.Screen,3_0_2_0_1_1_1,NA,NA,timeout,5000.357,257625.20000005,257613.165,257626.53,262609.903,262617.60000002,2023-11-25T13:36:40Z,262626.887,NULL,Niveau,kiwango,s,usimamizi,mwamali,mshairi,NA,sdf,1,2,NA,NA,NA,NA,NA,NA,NA,NA,NA,NA,NA,NA,NA,NA,NA,NA,NA,NA,NA
161f9,"""Falsch""-Screen",canvas.Screen,3_0_2_0_1_1_2,NA,NA,skipped,NA,262620.9000001,NA,NA,262609.903,262621.20000005,2023-11-25T13:36:40Z,262626.887,NULL,Niveau,kiwango,s,usimamizi,mwamali,mshairi,NA,sdf,NA,2,NA,NA,NA,NA,NA,NA,NA,NA,NA,NA,NA,NA,NA,NA,NA,NA,NA,NA,NA
161f9,shallow,flow.Sequence,3_0_2_0_1_1,NA,NA,completion,7915.138,254689.5,254677.204,254694.765,262609.903,262621.30000007,2023-11-25T13:36:40Z,262626.887,NULL,Niveau,kiwango,s,usimamizi,mwamali,mshairi,NA,sdf,NA,2,NA,NA,NA,NA,NA,NA,NA,NA,NA,NA,NA,NA,NA,NA,NA,NA,NA,NA,NA
161f9,task,flow.Sequence,3_0_2_0_1,NA,NA,completion,7915.138,254689.4000001,254677.204,254694.765,262609.903,262621.30000007,2023-11-25T13:36:40Z,262626.887,NULL,Niveau,kiwango,s,usimamizi,mwamali,mshairi,NA,sdf,NA,2,NA,NA,NA,NA,NA,NA,NA,NA,NA,NA,NA,NA,NA,NA,NA,NA,NA,NA,NA
161f9,Deep Question,html.Page,3_0_2_0_2_0_0,NA,NA,form submission,5056.113,262621.5,262609.903,262626.887,267683,267683.30000007,2023-11-25T13:36:45Z,267692.827,NULL,Übersicht,kilindo,d,NA,NA,NA,mashendo,NA,NA,2,NA,NA,NA,NA,NA,NA,NA,NA,NA,NA,NA,NA,NA,NA,NA,NA,NA,NA,NA
161f9,"""Richtig""-Screen",canvas.Screen,3_0_2_0_2_0_1,NA,NA,skipped,NA,267686,NA,NA,267683,267686.10000002,2023-11-25T13:36:45Z,267692.827,NULL,Übersicht,kilindo,d,NA,NA,NA,NA,sdf,NA,2,NA,NA,NA,NA,NA,NA,NA,NA,NA,NA,NA,NA,NA,NA,NA,NA,NA,NA,NA
161f9,"""Falsch""-Screen",canvas.Screen,3_0_2_0_2_0_2,NA,NA,timeout,4999.82,267686.9000001,267677.099,267692.827,272676.151,272684.80000007,2023-11-25T13:36:50Z,272692.647,NULL,Übersicht,kilindo,d,NA,NA,NA,NA,sdf,0,2,NA,NA,NA,NA,NA,NA,NA,NA,NA,NA,NA,NA,NA,NA,NA,NA,NA,NA,NA
161f9,deep,flow.Sequence,3_0_2_0_2_0,NA,NA,completion,10049.264,262621.5,262609.903,262626.887,272676.151,272685,2023-11-25T13:36:50Z,272692.647,NULL,Übersicht,kilindo,d,NA,NA,NA,NA,sdf,NA,2,NA,NA,NA,NA,NA,NA,NA,NA,NA,NA,NA,NA,NA,NA,NA,NA,NA,NA,NA
161f9,shallow,flow.Sequence,3_0_2_0_2_1,NA,NA,skipped,NA,272685,NA,NA,272676.151,272685.10000002,2023-11-25T13:36:50Z,272692.647,NULL,Übersicht,kilindo,d,NA,NA,NA,NA,sdf,NA,2,NA,NA,NA,NA,NA,NA,NA,NA,NA,NA,NA,NA,NA,NA,NA,NA,NA,NA,NA
161f9,task,flow.Sequence,3_0_2_0_2,NA,NA,completion,10049.264,262621.4000001,262609.903,262626.887,272676.151,272685.20000005,2023-11-25T13:36:50Z,272692.647,NULL,Übersicht,kilindo,d,NA,NA,NA,NA,sdf,NA,2,NA,NA,NA,NA,NA,NA,NA,NA,NA,NA,NA,NA,NA,NA,NA,NA,NA,NA,NA
161f9,Deep Question,html.Page,3_0_2_0_3_0_0,NA,NA,form submission,2337.9530000238,272685.4000001,272676.151,272692.647,275030.60000002,275030.9000001,2023-11-25T13:36:52Z,275043.092,NULL,Entwicklung,maendeleo,d,NA,NA,NA,mashendo,NA,NA,2,NA,NA,NA,NA,NA,NA,NA,NA,NA,NA,NA,NA,NA,NA,NA,NA,NA,NA,NA
161f9,"""Richtig""-Screen",canvas.Screen,3_0_2_0_3_0_1,NA,NA,skipped,NA,275033.70000005,NA,NA,275030.60000002,275033.9000001,2023-11-25T13:36:52Z,275043.092,NULL,Entwicklung,maendeleo,d,NA,NA,NA,NA,sdf,NA,2,NA,NA,NA,NA,NA,NA,NA,NA,NA,NA,NA,NA,NA,NA,NA,NA,NA,NA,NA
161f9,"""Falsch""-Screen",canvas.Screen,3_0_2_0_3_0_2,NA,NA,timeout,4999.632,275034.70000005,275027.213,275043.092,280025.815,280026.5,2023-11-25T13:36:57Z,280042.724,NULL,Entwicklung,maendeleo,d,NA,NA,NA,NA,sdf,0,2,NA,NA,NA,NA,NA,NA,NA,NA,NA,NA,NA,NA,NA,NA,NA,NA,NA,NA,NA
161f9,deep,flow.Sequence,3_0_2_0_3_0,NA,NA,completion,7333.168,272685.20000005,272676.151,272692.647,280025.815,280026.70000005,2023-11-25T13:36:57Z,280042.724,NULL,Entwicklung,maendeleo,d,NA,NA,NA,NA,sdf,NA,2,NA,NA,NA,NA,NA,NA,NA,NA,NA,NA,NA,NA,NA,NA,NA,NA,NA,NA,NA
161f9,shallow,flow.Sequence,3_0_2_0_3_1,NA,NA,skipped,NA,280026.80000007,NA,NA,280025.815,280026.80000007,2023-11-25T13:36:57Z,280042.724,NULL,Entwicklung,maendeleo,d,NA,NA,NA,NA,sdf,NA,2,NA,NA,NA,NA,NA,NA,NA,NA,NA,NA,NA,NA,NA,NA,NA,NA,NA,NA,NA
161f9,task,flow.Sequence,3_0_2_0_3,NA,NA,completion,7333.168,272685.20000005,272676.151,272692.647,280025.815,280027,2023-11-25T13:36:57Z,280042.724,NULL,Entwicklung,maendeleo,d,NA,NA,NA,NA,sdf,NA,2,NA,NA,NA,NA,NA,NA,NA,NA,NA,NA,NA,NA,NA,NA,NA,NA,NA,NA,NA
161f9,deep,flow.Sequence,3_0_2_0_4_0,NA,NA,skipped,NA,280027,NA,NA,280025.815,280027,2023-11-25T13:36:57Z,280042.724,NULL,Papier,karatasi,s,uchambuzi,usalama,kukataliwa,NA,sdf,NA,2,NA,NA,NA,NA,NA,NA,NA,NA,NA,NA,NA,NA,NA,NA,NA,NA,NA,NA,NA
161f9,Shallow Question,html.Page,3_0_2_0_4_1_0,NA,NA,form submission,5377.8760000239,280027.10000002,280025.815,280042.724,285420.60000002,285421,2023-11-25T13:37:02Z,285425.649,NULL,Papier,karatasi,s,uchambuzi,usalama,kukataliwa,karatasi,NA,NA,2,NA,NA,NA,NA,NA,NA,NA,NA,NA,NA,NA,NA,NA,NA,NA,NA,NA,NA,NA
161f9,"""Richtig""-Screen",canvas.Screen,3_0_2_0_4_1_1,NA,NA,timeout,5000.557,285423.9000001,285405.137,285425.649,290409.247,290410,2023-11-25T13:37:07Z,290426.206,NULL,Papier,karatasi,s,uchambuzi,usalama,kukataliwa,NA,sdf,1,2,NA,NA,NA,NA,NA,NA,NA,NA,NA,NA,NA,NA,NA,NA,NA,NA,NA,NA,NA
161f9,"""Falsch""-Screen",canvas.Screen,3_0_2_0_4_1_2,NA,NA,skipped,NA,290413,NA,NA,290409.247,290413.10000002,2023-11-25T13:37:07Z,290426.206,NULL,Papier,karatasi,s,uchambuzi,usalama,kukataliwa,NA,sdf,NA,2,NA,NA,NA,NA,NA,NA,NA,NA,NA,NA,NA,NA,NA,NA,NA,NA,NA,NA,NA
161f9,shallow,flow.Sequence,3_0_2_0_4_1,NA,NA,completion,10366.523,280027.10000002,280025.815,280042.724,290409.247,290413.30000007,2023-11-25T13:37:07Z,290426.206,NULL,Papier,karatasi,s,uchambuzi,usalama,kukataliwa,NA,sdf,NA,2,NA,NA,NA,NA,NA,NA,NA,NA,NA,NA,NA,NA,NA,NA,NA,NA,NA,NA,NA
161f9,task,flow.Sequence,3_0_2_0_4,NA,NA,completion,10366.523,280027,280025.815,280042.724,290409.247,290413.30000007,2023-11-25T13:37:07Z,290426.206,NULL,Papier,karatasi,s,uchambuzi,usalama,kukataliwa,NA,sdf,NA,2,NA,NA,NA,NA,NA,NA,NA,NA,NA,NA,NA,NA,NA,NA,NA,NA,NA,NA,NA
161f9,deep,flow.Sequence,3_0_2_0_5_0,NA,NA,skipped,NA,290413.5,NA,NA,290409.247,290413.5,2023-11-25T13:37:07Z,290426.206,NULL,System,maongozi,s,chokochoko,nuksani,mitaani,NA,sdf,NA,2,NA,NA,NA,NA,NA,NA,NA,NA,NA,NA,NA,NA,NA,NA,NA,NA,NA,NA,NA
161f9,Shallow Question,html.Page,3_0_2_0_5_1_0,NA,NA,form submission,3657.6940000954,290413.60000002,290409.247,290426.206,294083.9000001,294084.10000002,2023-11-25T13:37:11Z,294092.116,NULL,System,maongozi,s,chokochoko,nuksani,mitaani,maongozi,NA,NA,2,NA,NA,NA,NA,NA,NA,NA,NA,NA,NA,NA,NA,NA,NA,NA,NA,NA,NA,NA
161f9,"""Richtig""-Screen",canvas.Screen,3_0_2_0_5_1_1,NA,NA,timeout,4999.838,294087.30000007,294066.517,294092.116,299075.257,299075.80000007,2023-11-25T13:37:16Z,299091.954,NULL,System,maongozi,s,chokochoko,nuksani,mitaani,NA,sdf,1,2,NA,NA,NA,NA,NA,NA,NA,NA,NA,NA,NA,NA,NA,NA,NA,NA,NA,NA,NA
161f9,"""Falsch""-Screen",canvas.Screen,3_0_2_0_5_1_2,NA,NA,skipped,NA,299077.4000001,NA,NA,299075.257,299077.5,2023-11-25T13:37:16Z,299091.954,NULL,System,maongozi,s,chokochoko,nuksani,mitaani,NA,sdf,NA,2,NA,NA,NA,NA,NA,NA,NA,NA,NA,NA,NA,NA,NA,NA,NA,NA,NA,NA,NA
161f9,shallow,flow.Sequence,3_0_2_0_5_1,NA,NA,completion,8649.051,290413.60000002,290409.247,290426.206,299075.257,299077.60000002,2023-11-25T13:37:16Z,299091.954,NULL,System,maongozi,s,chokochoko,nuksani,mitaani,NA,sdf,NA,2,NA,NA,NA,NA,NA,NA,NA,NA,NA,NA,NA,NA,NA,NA,NA,NA,NA,NA,NA
161f9,task,flow.Sequence,3_0_2_0_5,NA,NA,completion,8649.051,290413.4000001,290409.247,290426.206,299075.257,299077.60000002,2023-11-25T13:37:16Z,299091.954,NULL,System,maongozi,s,chokochoko,nuksani,mitaani,NA,sdf,NA,2,NA,NA,NA,NA,NA,NA,NA,NA,NA,NA,NA,NA,NA,NA,NA,NA,NA,NA,NA
161f9,deep,flow.Sequence,3_0_2_0_6_0,NA,NA,skipped,NA,299077.70000005,NA,NA,299075.257,299077.70000005,2023-11-25T13:37:16Z,299091.954,NULL,Lawine,banguko,s,maambukizi,usuluhishi,chekechea,NA,sdf,NA,2,NA,NA,NA,NA,NA,NA,NA,NA,NA,NA,NA,NA,NA,NA,NA,NA,NA,NA,NA
161f9,Shallow Question,html.Page,3_0_2_0_6_1_0,NA,NA,form submission,3571.3460000715,299077.70000005,299075.257,299091.954,302663.30000007,302663.60000002,2023-11-25T13:37:20Z,302675.364,NULL,Lawine,banguko,s,maambukizi,usuluhishi,chekechea,banguko,NA,NA,2,NA,NA,NA,NA,NA,NA,NA,NA,NA,NA,NA,NA,NA,NA,NA,NA,NA,NA,NA
161f9,"""Richtig""-Screen",canvas.Screen,3_0_2_0_6_1_1,NA,NA,timeout,5000.354,302666.10000002,302658.689,302675.364,307658.376,307664.30000007,2023-11-25T13:37:25Z,307675.718,NULL,Lawine,banguko,s,maambukizi,usuluhishi,chekechea,NA,sdf,1,2,NA,NA,NA,NA,NA,NA,NA,NA,NA,NA,NA,NA,NA,NA,NA,NA,NA,NA,NA
161f9,"""Falsch""-Screen",canvas.Screen,3_0_2_0_6_1_2,NA,NA,skipped,NA,307666,NA,NA,307658.376,307666.10000002,2023-11-25T13:37:25Z,307675.718,NULL,Lawine,banguko,s,maambukizi,usuluhishi,chekechea,NA,sdf,NA,2,NA,NA,NA,NA,NA,NA,NA,NA,NA,NA,NA,NA,NA,NA,NA,NA,NA,NA,NA
161f9,shallow,flow.Sequence,3_0_2_0_6_1,NA,NA,completion,8566.422,299077.70000005,299075.257,299091.954,307658.376,307666.20000005,2023-11-25T13:37:25Z,307675.718,NULL,Lawine,banguko,s,maambukizi,usuluhishi,chekechea,NA,sdf,NA,2,NA,NA,NA,NA,NA,NA,NA,NA,NA,NA,NA,NA,NA,NA,NA,NA,NA,NA,NA
161f9,task,flow.Sequence,3_0_2_0_6,NA,NA,completion,8566.422,299077.70000005,299075.257,299091.954,307658.376,307666.30000007,2023-11-25T13:37:25Z,307675.718,NULL,Lawine,banguko,s,maambukizi,usuluhishi,chekechea,NA,sdf,NA,2,NA,NA,NA,NA,NA,NA,NA,NA,NA,NA,NA,NA,NA,NA,NA,NA,NA,NA,NA
161f9,Deep Question,html.Page,3_0_2_0_7_0_0,NA,NA,form submission,1844.282,307666.4000001,307658.376,307675.718,309520,309520.20000005,2023-11-25T13:37:27Z,309524.971,NULL,Vorwurf,mashtaka,d,NA,NA,NA,k,NA,NA,2,NA,NA,NA,NA,NA,NA,NA,NA,NA,NA,NA,NA,NA,NA,NA,NA,NA,NA,NA
161f9,"""Richtig""-Screen",canvas.Screen,3_0_2_0_7_0_1,NA,NA,skipped,NA,309520.60000002,NA,NA,309520,309520.60000002,2023-11-25T13:37:27Z,309524.971,NULL,Vorwurf,mashtaka,d,NA,NA,NA,NA,sdf,NA,2,NA,NA,NA,NA,NA,NA,NA,NA,NA,NA,NA,NA,NA,NA,NA,NA,NA,NA,NA
161f9,"""Falsch""-Screen",canvas.Screen,3_0_2_0_7_0_2,NA,NA,timeout,5000.238,309521.10000002,309516.833,309524.971,314508.472,314509.70000005,2023-11-25T13:37:32Z,314525.209,NULL,Vorwurf,mashtaka,d,NA,NA,NA,NA,sdf,0,2,NA,NA,NA,NA,NA,NA,NA,NA,NA,NA,NA,NA,NA,NA,NA,NA,NA,NA,NA
161f9,deep,flow.Sequence,3_0_2_0_7_0,NA,NA,completion,6832.754,307666.4000001,307658.376,307675.718,314508.472,314510,2023-11-25T13:37:32Z,314525.209,NULL,Vorwurf,mashtaka,d,NA,NA,NA,NA,sdf,NA,2,NA,NA,NA,NA,NA,NA,NA,NA,NA,NA,NA,NA,NA,NA,NA,NA,NA,NA,NA
161f9,shallow,flow.Sequence,3_0_2_0_7_1,NA,NA,skipped,NA,314510.10000002,NA,NA,314508.472,314510.30000007,2023-11-25T13:37:32Z,314525.209,NULL,Vorwurf,mashtaka,d,NA,NA,NA,NA,sdf,NA,2,NA,NA,NA,NA,NA,NA,NA,NA,NA,NA,NA,NA,NA,NA,NA,NA,NA,NA,NA
161f9,task,flow.Sequence,3_0_2_0_7,NA,NA,completion,6832.754,307666.4000001,307658.376,307675.718,314508.472,314510.30000007,2023-11-25T13:37:32Z,314525.209,NULL,Vorwurf,mashtaka,d,NA,NA,NA,NA,sdf,NA,2,NA,NA,NA,NA,NA,NA,NA,NA,NA,NA,NA,NA,NA,NA,NA,NA,NA,NA,NA
161f9,block,flow.Loop,3_0_2_0,NA,NA,completion,69548.011,244945.80000007,244941.851,244960.461,314508.472,314510.4000001,2023-11-25T13:37:32Z,314525.209,NULL,NA,NA,NA,NA,NA,NA,NA,sdf,NA,2,NA,NA,NA,NA,NA,NA,NA,NA,NA,NA,NA,NA,NA,NA,NA,NA,NA,NA,NA
161f9,weiter,canvas.Screen,3_0_2_1,sdf,keypress(Space),response,1130.3910000239,314510.5,314508.472,314525.209,315655.60000002,315656.30000007,2023-11-25T13:37:33Z,315691.638,NULL,NA,NA,NA,NA,NA,NA,NA,sdf,NA,2,NA,NA,NA,NA,NA,NA,NA,NA,NA,NA,NA,NA,NA,NA,NA,NA,NA,NA,NA
161f9,check continue,flow.Sequence,3_0_2,NA,NA,completion,70695.139000024,244945.80000007,244941.851,244960.461,315655.60000002,315656.30000007,2023-11-25T13:37:33Z,315691.638,NULL,NA,NA,NA,NA,NA,NA,NA,sdf,NA,2,NA,NA,NA,NA,NA,NA,NA,NA,NA,NA,NA,NA,NA,NA,NA,NA,NA,NA,NA
161f9,Deep Question,html.Page,3_0_3_0_0_0_0,NA,NA,form submission,4895.862,315674.30000007,315668.445,315691.638,320587.5,320587.80000007,2023-11-25T13:37:38Z,320608.148,NULL,Entwicklung,maendeleo,d,NA,NA,NA,d,NA,NA,3,NA,NA,NA,NA,NA,NA,NA,NA,NA,NA,NA,NA,NA,NA,NA,NA,NA,NA,NA
161f9,"""Richtig""-Screen",canvas.Screen,3_0_3_0_0_0_1,NA,NA,skipped,NA,320590.5,NA,NA,320587.5,320590.60000002,2023-11-25T13:37:38Z,320608.148,NULL,Entwicklung,maendeleo,d,NA,NA,NA,NA,qt,NA,3,NA,NA,NA,NA,NA,NA,NA,NA,NA,NA,NA,NA,NA,NA,NA,NA,NA,NA,NA
161f9,"""Falsch""-Screen",canvas.Screen,3_0_3_0_0_0_2,NA,NA,timeout,5000.449,320591.20000005,320591.406,320608.148,325591.896,325592.70000005,2023-11-25T13:37:43Z,325608.597,NULL,Entwicklung,maendeleo,d,NA,NA,NA,NA,qt,0,3,NA,NA,NA,NA,NA,NA,NA,NA,NA,NA,NA,NA,NA,NA,NA,NA,NA,NA,NA
161f9,deep,flow.Sequence,3_0_3_0_0_0,NA,NA,completion,9900.258,315674.30000007,315668.445,315691.638,325591.896,325592.9000001,2023-11-25T13:37:43Z,325608.597,NULL,Entwicklung,maendeleo,d,NA,NA,NA,NA,qt,NA,3,NA,NA,NA,NA,NA,NA,NA,NA,NA,NA,NA,NA,NA,NA,NA,NA,NA,NA,NA
161f9,shallow,flow.Sequence,3_0_3_0_0_1,NA,NA,skipped,NA,325593,NA,NA,325591.896,325593,2023-11-25T13:37:43Z,325608.597,NULL,Entwicklung,maendeleo,d,NA,NA,NA,NA,qt,NA,3,NA,NA,NA,NA,NA,NA,NA,NA,NA,NA,NA,NA,NA,NA,NA,NA,NA,NA,NA
161f9,task,flow.Sequence,3_0_3_0_0,NA,NA,completion,9900.258,315674.20000005,315668.445,315691.638,325591.896,325593.10000002,2023-11-25T13:37:43Z,325608.597,NULL,Entwicklung,maendeleo,d,NA,NA,NA,NA,qt,NA,3,NA,NA,NA,NA,NA,NA,NA,NA,NA,NA,NA,NA,NA,NA,NA,NA,NA,NA,NA
161f9,deep,flow.Sequence,3_0_3_0_1_0,NA,NA,skipped,NA,325593.10000002,NA,NA,325591.896,325593.20000005,2023-11-25T13:37:43Z,325608.597,NULL,System,maongozi,s,chokochoko,nuksani,mitaani,NA,qt,NA,3,NA,NA,NA,NA,NA,NA,NA,NA,NA,NA,NA,NA,NA,NA,NA,NA,NA,NA,NA
161f9,Shallow Question,html.Page,3_0_3_0_1_1_0,NA,NA,form submission,5728.403,325593.20000005,325591.896,325608.597,331337,331337.4000001,2023-11-25T13:37:48Z,331341.053,NULL,System,maongozi,s,chokochoko,nuksani,mitaani,maongozi,NA,NA,3,NA,NA,NA,NA,NA,NA,NA,NA,NA,NA,NA,NA,NA,NA,NA,NA,NA,NA,NA
161f9,"""Richtig""-Screen",canvas.Screen,3_0_3_0_1_1_1,NA,NA,timeout,5000.507,331340.10000002,331325.01,331341.053,336324.982,336329.70000005,2023-11-25T13:37:53Z,336341.56,NULL,System,maongozi,s,chokochoko,nuksani,mitaani,NA,qt,1,3,NA,NA,NA,NA,NA,NA,NA,NA,NA,NA,NA,NA,NA,NA,NA,NA,NA,NA,NA
161f9,"""Falsch""-Screen",canvas.Screen,3_0_3_0_1_1_2,NA,NA,skipped,NA,336332.60000002,NA,NA,336324.982,336332.70000005,2023-11-25T13:37:53Z,336341.56,NULL,System,maongozi,s,chokochoko,nuksani,mitaani,NA,qt,NA,3,NA,NA,NA,NA,NA,NA,NA,NA,NA,NA,NA,NA,NA,NA,NA,NA,NA,NA,NA
161f9,shallow,flow.Sequence,3_0_3_0_1_1,NA,NA,completion,10716.385,325593.20000005,325591.896,325608.597,336324.982,336332.9000001,2023-11-25T13:37:53Z,336341.56,NULL,System,maongozi,s,chokochoko,nuksani,mitaani,NA,qt,NA,3,NA,NA,NA,NA,NA,NA,NA,NA,NA,NA,NA,NA,NA,NA,NA,NA,NA,NA,NA
161f9,task,flow.Sequence,3_0_3_0_1,NA,NA,completion,10716.385,325593.10000002,325591.896,325608.597,336324.982,336333.10000002,2023-11-25T13:37:53Z,336341.56,NULL,System,maongozi,s,chokochoko,nuksani,mitaani,NA,qt,NA,3,NA,NA,NA,NA,NA,NA,NA,NA,NA,NA,NA,NA,NA,NA,NA,NA,NA,NA,NA
161f9,deep,flow.Sequence,3_0_3_0_2_0,NA,NA,skipped,NA,336333.10000002,NA,NA,336324.982,336333.20000005,2023-11-25T13:37:53Z,336341.56,NULL,Papier,karatasi,s,uchambuzi,usalama,kukataliwa,NA,qt,NA,3,NA,NA,NA,NA,NA,NA,NA,NA,NA,NA,NA,NA,NA,NA,NA,NA,NA,NA,NA
161f9,Shallow Question,html.Page,3_0_3_0_2_1_0,NA,NA,form submission,4645.5400000238,336333.20000005,336324.982,336341.56,340987.10000002,340987.30000007,2023-11-25T13:37:58Z,340990.819,NULL,Papier,karatasi,s,uchambuzi,usalama,kukataliwa,karatasi,NA,NA,3,NA,NA,NA,NA,NA,NA,NA,NA,NA,NA,NA,NA,NA,NA,NA,NA,NA,NA,NA
161f9,"""Richtig""-Screen",canvas.Screen,3_0_3_0_2_1_1,NA,NA,timeout,4999.825,340990,340982.279,340990.819,345974.67,345977.60000002,2023-11-25T13:38:03Z,345990.644,NULL,Papier,karatasi,s,uchambuzi,usalama,kukataliwa,NA,qt,1,3,NA,NA,NA,NA,NA,NA,NA,NA,NA,NA,NA,NA,NA,NA,NA,NA,NA,NA,NA
161f9,"""Falsch""-Screen",canvas.Screen,3_0_3_0_2_1_2,NA,NA,skipped,NA,345980.9000001,NA,NA,345974.67,345981.10000002,2023-11-25T13:38:03Z,345990.644,NULL,Papier,karatasi,s,uchambuzi,usalama,kukataliwa,NA,qt,NA,3,NA,NA,NA,NA,NA,NA,NA,NA,NA,NA,NA,NA,NA,NA,NA,NA,NA,NA,NA
161f9,shallow,flow.Sequence,3_0_3_0_2_1,NA,NA,completion,9633.11,336333.20000005,336324.982,336341.56,345974.67,345981.30000007,2023-11-25T13:38:03Z,345990.644,NULL,Papier,karatasi,s,uchambuzi,usalama,kukataliwa,NA,qt,NA,3,NA,NA,NA,NA,NA,NA,NA,NA,NA,NA,NA,NA,NA,NA,NA,NA,NA,NA,NA
161f9,task,flow.Sequence,3_0_3_0_2,NA,NA,completion,9633.11,336333.10000002,336324.982,336341.56,345974.67,345981.4000001,2023-11-25T13:38:03Z,345990.644,NULL,Papier,karatasi,s,uchambuzi,usalama,kukataliwa,NA,qt,NA,3,NA,NA,NA,NA,NA,NA,NA,NA,NA,NA,NA,NA,NA,NA,NA,NA,NA,NA,NA
161f9,deep,flow.Sequence,3_0_3_0_3_0,NA,NA,skipped,NA,345981.5,NA,NA,345974.67,345981.5,2023-11-25T13:38:03Z,345990.644,NULL,Niveau,kiwango,s,usimamizi,mwamali,mshairi,NA,qt,NA,3,NA,NA,NA,NA,NA,NA,NA,NA,NA,NA,NA,NA,NA,NA,NA,NA,NA,NA,NA
161f9,Shallow Question,html.Page,3_0_3_0_3_1_0,NA,NA,form submission,9837.856,345981.60000002,345974.67,345990.644,355828.5,355829,2023-11-25T13:38:13Z,355840.566,NULL,Niveau,kiwango,s,usimamizi,mwamali,mshairi,kiwango,NA,NA,3,NA,NA,NA,NA,NA,NA,NA,NA,NA,NA,NA,NA,NA,NA,NA,NA,NA,NA,NA
161f9,"""Richtig""-Screen",canvas.Screen,3_0_3_0_3_1_1,NA,NA,timeout,5001.858,355831.70000005,355819.27,355840.566,360824.296,360833.60000002,2023-11-25T13:38:18Z,360842.424,NULL,Niveau,kiwango,s,usimamizi,mwamali,mshairi,NA,qt,1,3,NA,NA,NA,NA,NA,NA,NA,NA,NA,NA,NA,NA,NA,NA,NA,NA,NA,NA,NA
161f9,"""Falsch""-Screen",canvas.Screen,3_0_3_0_3_1_2,NA,NA,skipped,NA,360836.4000001,NA,NA,360824.296,360836.70000005,2023-11-25T13:38:18Z,360842.424,NULL,Niveau,kiwango,s,usimamizi,mwamali,mshairi,NA,qt,NA,3,NA,NA,NA,NA,NA,NA,NA,NA,NA,NA,NA,NA,NA,NA,NA,NA,NA,NA,NA
161f9,shallow,flow.Sequence,3_0_3_0_3_1,NA,NA,completion,14833.652,345981.60000002,345974.67,345990.644,360824.296,360836.9000001,2023-11-25T13:38:18Z,360842.424,NULL,Niveau,kiwango,s,usimamizi,mwamali,mshairi,NA,qt,NA,3,NA,NA,NA,NA,NA,NA,NA,NA,NA,NA,NA,NA,NA,NA,NA,NA,NA,NA,NA
161f9,task,flow.Sequence,3_0_3_0_3,NA,NA,completion,14833.652,345981.4000001,345974.67,345990.644,360824.296,360836.9000001,2023-11-25T13:38:18Z,360842.424,NULL,Niveau,kiwango,s,usimamizi,mwamali,mshairi,NA,qt,NA,3,NA,NA,NA,NA,NA,NA,NA,NA,NA,NA,NA,NA,NA,NA,NA,NA,NA,NA,NA
161f9,deep,flow.Sequence,3_0_3_0_4_0,NA,NA,skipped,NA,360837.10000002,NA,NA,360824.296,360837.10000002,2023-11-25T13:38:18Z,360842.424,NULL,Lawine,banguko,s,maambukizi,usuluhishi,chekechea,NA,qt,NA,3,NA,NA,NA,NA,NA,NA,NA,NA,NA,NA,NA,NA,NA,NA,NA,NA,NA,NA,NA
161f9,Shallow Question,html.Page,3_0_3_0_4_1_0,NA,NA,form submission,2386.076,360837.20000005,360824.296,360842.424,363228.5,363228.80000007,2023-11-25T13:38:20Z,363240.273,NULL,Lawine,banguko,s,maambukizi,usuluhishi,chekechea,banguko,NA,NA,3,NA,NA,NA,NA,NA,NA,NA,NA,NA,NA,NA,NA,NA,NA,NA,NA,NA,NA,NA
161f9,"""Richtig""-Screen",canvas.Screen,3_0_3_0_4_1_1,NA,NA,timeout,5001.031,363229.60000002,363226.581,363240.273,368223.553,368224.4000001,2023-11-25T13:38:25Z,368241.304,NULL,Lawine,banguko,s,maambukizi,usuluhishi,chekechea,NA,qt,1,3,NA,NA,NA,NA,NA,NA,NA,NA,NA,NA,NA,NA,NA,NA,NA,NA,NA,NA,NA
161f9,"""Falsch""-Screen",canvas.Screen,3_0_3_0_4_1_2,NA,NA,skipped,NA,368227.10000002,NA,NA,368223.553,368227.30000007,2023-11-25T13:38:25Z,368241.304,NULL,Lawine,banguko,s,maambukizi,usuluhishi,chekechea,NA,qt,NA,3,NA,NA,NA,NA,NA,NA,NA,NA,NA,NA,NA,NA,NA,NA,NA,NA,NA,NA,NA
161f9,shallow,flow.Sequence,3_0_3_0_4_1,NA,NA,completion,7381.129,360837.20000005,360824.296,360842.424,368223.553,368227.4000001,2023-11-25T13:38:25Z,368241.304,NULL,Lawine,banguko,s,maambukizi,usuluhishi,chekechea,NA,qt,NA,3,NA,NA,NA,NA,NA,NA,NA,NA,NA,NA,NA,NA,NA,NA,NA,NA,NA,NA,NA
161f9,task,flow.Sequence,3_0_3_0_4,NA,NA,completion,7381.129,360837.10000002,360824.296,360842.424,368223.553,368227.5,2023-11-25T13:38:25Z,368241.304,NULL,Lawine,banguko,s,maambukizi,usuluhishi,chekechea,NA,qt,NA,3,NA,NA,NA,NA,NA,NA,NA,NA,NA,NA,NA,NA,NA,NA,NA,NA,NA,NA,NA
161f9,Deep Question,html.Page,3_0_3_0_5_0_0,NA,NA,form submission,4302.3960000477,368227.70000005,368223.553,368241.304,372543.70000005,372544,2023-11-25T13:38:30Z,372556.792,NULL,Vorwurf,mashtaka,d,NA,NA,NA,mashtaka,NA,NA,3,NA,NA,NA,NA,NA,NA,NA,NA,NA,NA,NA,NA,NA,NA,NA,NA,NA,NA,NA
161f9,"""Richtig""-Screen",canvas.Screen,3_0_3_0_5_0_1,NA,NA,timeout,5001.762,372546.60000002,372538.956,372556.792,377540.101,377550.20000005,2023-11-25T13:38:35Z,377558.554,NULL,Vorwurf,mashtaka,d,NA,NA,NA,NA,qt,1,3,NA,NA,NA,NA,NA,NA,NA,NA,NA,NA,NA,NA,NA,NA,NA,NA,NA,NA,NA
161f9,"""Falsch""-Screen",canvas.Screen,3_0_3_0_5_0_2,NA,NA,skipped,NA,377553.60000002,NA,NA,377540.101,377553.9000001,2023-11-25T13:38:35Z,377558.554,NULL,Vorwurf,mashtaka,d,NA,NA,NA,NA,qt,NA,3,NA,NA,NA,NA,NA,NA,NA,NA,NA,NA,NA,NA,NA,NA,NA,NA,NA,NA,NA
161f9,deep,flow.Sequence,3_0_3_0_5_0,NA,NA,completion,9298.797,368227.60000002,368223.553,368241.304,377540.101,377554,2023-11-25T13:38:35Z,377558.554,NULL,Vorwurf,mashtaka,d,NA,NA,NA,NA,qt,NA,3,NA,NA,NA,NA,NA,NA,NA,NA,NA,NA,NA,NA,NA,NA,NA,NA,NA,NA,NA
161f9,shallow,flow.Sequence,3_0_3_0_5_1,NA,NA,skipped,NA,377554.10000002,NA,NA,377540.101,377554.20000005,2023-11-25T13:38:35Z,377558.554,NULL,Vorwurf,mashtaka,d,NA,NA,NA,NA,qt,NA,3,NA,NA,NA,NA,NA,NA,NA,NA,NA,NA,NA,NA,NA,NA,NA,NA,NA,NA,NA
161f9,task,flow.Sequence,3_0_3_0_5,NA,NA,completion,9298.797,368227.5,368223.553,368241.304,377540.101,377554.20000005,2023-11-25T13:38:35Z,377558.554,NULL,Vorwurf,mashtaka,d,NA,NA,NA,NA,qt,NA,3,NA,NA,NA,NA,NA,NA,NA,NA,NA,NA,NA,NA,NA,NA,NA,NA,NA,NA,NA
161f9,Deep Question,html.Page,3_0_3_0_6_0_0,NA,NA,form submission,2299.446,377554.4000001,377540.101,377558.554,379858,379858.4000001,2023-11-25T13:38:37Z,379873.215,NULL,Übersicht,kilindo,d,NA,NA,NA,d,NA,NA,3,NA,NA,NA,NA,NA,NA,NA,NA,NA,NA,NA,NA,NA,NA,NA,NA,NA,NA,NA
161f9,"""Richtig""-Screen",canvas.Screen,3_0_3_0_6_0_1,NA,NA,skipped,NA,379859.30000007,NA,NA,379858,379859.4000001,2023-11-25T13:38:37Z,379873.215,NULL,Übersicht,kilindo,d,NA,NA,NA,NA,qt,NA,3,NA,NA,NA,NA,NA,NA,NA,NA,NA,NA,NA,NA,NA,NA,NA,NA,NA,NA,NA
161f9,"""Falsch""-Screen",canvas.Screen,3_0_3_0_6_0_2,NA,NA,timeout,4999.715,379860.5,379857.597,379873.215,384856.481,384865,2023-11-25T13:38:42Z,384872.93,NULL,Übersicht,kilindo,d,NA,NA,NA,NA,qt,0,3,NA,NA,NA,NA,NA,NA,NA,NA,NA,NA,NA,NA,NA,NA,NA,NA,NA,NA,NA
161f9,deep,flow.Sequence,3_0_3_0_6_0,NA,NA,completion,7297.927,377554.30000007,377540.101,377558.554,384856.481,384865.20000005,2023-11-25T13:38:42Z,384872.93,NULL,Übersicht,kilindo,d,NA,NA,NA,NA,qt,NA,3,NA,NA,NA,NA,NA,NA,NA,NA,NA,NA,NA,NA,NA,NA,NA,NA,NA,NA,NA
161f9,shallow,flow.Sequence,3_0_3_0_6_1,NA,NA,skipped,NA,384865.30000007,NA,NA,384856.481,384865.30000007,2023-11-25T13:38:42Z,384872.93,NULL,Übersicht,kilindo,d,NA,NA,NA,NA,qt,NA,3,NA,NA,NA,NA,NA,NA,NA,NA,NA,NA,NA,NA,NA,NA,NA,NA,NA,NA,NA
161f9,task,flow.Sequence,3_0_3_0_6,NA,NA,completion,7297.927,377554.30000007,377540.101,377558.554,384856.481,384865.4000001,2023-11-25T13:38:42Z,384872.93,NULL,Übersicht,kilindo,d,NA,NA,NA,NA,qt,NA,3,NA,NA,NA,NA,NA,NA,NA,NA,NA,NA,NA,NA,NA,NA,NA,NA,NA,NA,NA
161f9,Deep Question,html.Page,3_0_3_0_7_0_0,NA,NA,form submission,3894.3700000715,384865.5,384856.481,384872.93,388767.30000007,388767.9000001,2023-11-25T13:38:46Z,388772.819,NULL,Körper,kiwiliwili,d,NA,NA,NA,k,NA,NA,3,NA,NA,NA,NA,NA,NA,NA,NA,NA,NA,NA,NA,NA,NA,NA,NA,NA,NA,NA
161f9,"""Richtig""-Screen",canvas.Screen,3_0_3_0_7_0_1,NA,NA,skipped,NA,388771,NA,NA,388767.30000007,388771.10000002,2023-11-25T13:38:46Z,388772.819,NULL,Körper,kiwiliwili,d,NA,NA,NA,NA,qt,NA,3,NA,NA,NA,NA,NA,NA,NA,NA,NA,NA,NA,NA,NA,NA,NA,NA,NA,NA,NA
161f9,"""Falsch""-Screen",canvas.Screen,3_0_3_0_7_0_2,NA,NA,timeout,5000.292,388771.9000001,388757.295,388772.819,393756.704,393761.5,2023-11-25T13:38:51Z,393773.111,NULL,Körper,kiwiliwili,d,NA,NA,NA,NA,qt,0,3,NA,NA,NA,NA,NA,NA,NA,NA,NA,NA,NA,NA,NA,NA,NA,NA,NA,NA,NA
161f9,deep,flow.Sequence,3_0_3_0_7_0,NA,NA,completion,8883.774,384865.5,384856.481,384872.93,393756.704,393761.80000007,2023-11-25T13:38:51Z,393773.111,NULL,Körper,kiwiliwili,d,NA,NA,NA,NA,qt,NA,3,NA,NA,NA,NA,NA,NA,NA,NA,NA,NA,NA,NA,NA,NA,NA,NA,NA,NA,NA
161f9,shallow,flow.Sequence,3_0_3_0_7_1,NA,NA,skipped,NA,393761.9000001,NA,NA,393756.704,393761.9000001,2023-11-25T13:38:51Z,393773.111,NULL,Körper,kiwiliwili,d,NA,NA,NA,NA,qt,NA,3,NA,NA,NA,NA,NA,NA,NA,NA,NA,NA,NA,NA,NA,NA,NA,NA,NA,NA,NA
161f9,task,flow.Sequence,3_0_3_0_7,NA,NA,completion,8883.774,384865.5,384856.481,384872.93,393756.704,393762,2023-11-25T13:38:51Z,393773.111,NULL,Körper,kiwiliwili,d,NA,NA,NA,NA,qt,NA,3,NA,NA,NA,NA,NA,NA,NA,NA,NA,NA,NA,NA,NA,NA,NA,NA,NA,NA,NA
161f9,block,flow.Loop,3_0_3_0,NA,NA,completion,78065.066,315674.20000005,315668.445,315691.638,393756.704,393762.10000002,2023-11-25T13:38:51Z,393773.111,NULL,NA,NA,NA,NA,NA,NA,NA,qt,NA,3,NA,NA,NA,NA,NA,NA,NA,NA,NA,NA,NA,NA,NA,NA,NA,NA,NA,NA,NA
161f9,weiter,canvas.Screen,3_0_3_1,sdf,keypress(Space),response,2232.7890000954,393762.20000005,393756.704,393773.111,396005.9000001,396007.10000002,2023-11-25T13:38:53Z,396040.836,NULL,NA,NA,NA,NA,NA,NA,NA,qt,NA,3,NA,NA,NA,NA,NA,NA,NA,NA,NA,NA,NA,NA,NA,NA,NA,NA,NA,NA,NA
161f9,check continue,flow.Sequence,3_0_3,NA,NA,completion,80314.262000095,315674.20000005,315668.445,315691.638,396005.9000001,396007.20000005,2023-11-25T13:38:53Z,396040.836,NULL,NA,NA,NA,NA,NA,NA,NA,qt,NA,3,NA,NA,NA,NA,NA,NA,NA,NA,NA,NA,NA,NA,NA,NA,NA,NA,NA,NA,NA
161f9,deep,flow.Sequence,3_0_4_0_0_0,NA,NA,skipped,NA,396036.30000007,NA,NA,396005.9000001,396036.4000001,2023-11-25T13:38:53Z,396040.836,NULL,Papier,karatasi,s,uchambuzi,usalama,kukataliwa,NA,sd,NA,4,NA,NA,NA,NA,NA,NA,NA,NA,NA,NA,NA,NA,NA,NA,NA,NA,NA,NA,NA
161f9,Shallow Question,html.Page,3_0_4_0_0_1_0,NA,NA,form submission,3689.164,396036.4000001,396024.427,396040.836,399730,399730.4000001,2023-11-25T13:38:57Z,399739.232,NULL,Papier,karatasi,s,uchambuzi,usalama,kukataliwa,karatasi,NA,NA,4,NA,NA,NA,NA,NA,NA,NA,NA,NA,NA,NA,NA,NA,NA,NA,NA,NA,NA,NA
161f9,"""Richtig""-Screen",canvas.Screen,3_0_4_0_0_1_1,NA,NA,timeout,5000.811,399733.10000002,399713.742,399739.232,404722.83,404731.20000005,2023-11-25T13:39:02Z,404740.043,NULL,Papier,karatasi,s,uchambuzi,usalama,kukataliwa,NA,sd,1,4,NA,NA,NA,NA,NA,NA,NA,NA,NA,NA,NA,NA,NA,NA,NA,NA,NA,NA,NA
161f9,"""Falsch""-Screen",canvas.Screen,3_0_4_0_0_1_2,NA,NA,skipped,NA,404733.9000001,NA,NA,404722.83,404734.10000002,2023-11-25T13:39:02Z,404740.043,NULL,Papier,karatasi,s,uchambuzi,usalama,kukataliwa,NA,sd,NA,4,NA,NA,NA,NA,NA,NA,NA,NA,NA,NA,NA,NA,NA,NA,NA,NA,NA,NA,NA
161f9,shallow,flow.Sequence,3_0_4_0_0_1,NA,NA,completion,8681.994,396036.4000001,396024.427,396040.836,404722.83,404734.30000007,2023-11-25T13:39:02Z,404740.043,NULL,Papier,karatasi,s,uchambuzi,usalama,kukataliwa,NA,sd,NA,4,NA,NA,NA,NA,NA,NA,NA,NA,NA,NA,NA,NA,NA,NA,NA,NA,NA,NA,NA
161f9,task,flow.Sequence,3_0_4_0_0,NA,NA,completion,8681.994,396036.30000007,396024.427,396040.836,404722.83,404734.5,2023-11-25T13:39:02Z,404740.043,NULL,Papier,karatasi,s,uchambuzi,usalama,kukataliwa,NA,sd,NA,4,NA,NA,NA,NA,NA,NA,NA,NA,NA,NA,NA,NA,NA,NA,NA,NA,NA,NA,NA
161f9,deep,flow.Sequence,3_0_4_0_1_0,NA,NA,skipped,NA,404734.5,NA,NA,404722.83,404734.60000002,2023-11-25T13:39:02Z,404740.043,NULL,Niveau,kiwango,s,usimamizi,mwamali,mshairi,NA,sd,NA,4,NA,NA,NA,NA,NA,NA,NA,NA,NA,NA,NA,NA,NA,NA,NA,NA,NA,NA,NA
161f9,Shallow Question,html.Page,3_0_4_0_1_1_0,NA,NA,form submission,3935.0570000238,404734.60000002,404722.83,404740.043,408675.10000002,408675.4000001,2023-11-25T13:39:06Z,408689.047,NULL,Niveau,kiwango,s,usimamizi,mwamali,mshairi,kiwango,NA,NA,4,NA,NA,NA,NA,NA,NA,NA,NA,NA,NA,NA,NA,NA,NA,NA,NA,NA,NA,NA
161f9,"""Richtig""-Screen",canvas.Screen,3_0_4_0_1_1_1,NA,NA,timeout,5000.103,408678,408660.663,408689.047,413672.303,413673.10000002,2023-11-25T13:39:11Z,413689.15,NULL,Niveau,kiwango,s,usimamizi,mwamali,mshairi,NA,sd,1,4,NA,NA,NA,NA,NA,NA,NA,NA,NA,NA,NA,NA,NA,NA,NA,NA,NA,NA,NA
161f9,"""Falsch""-Screen",canvas.Screen,3_0_4_0_1_1_2,NA,NA,skipped,NA,413676,NA,NA,413672.303,413676.20000005,2023-11-25T13:39:11Z,413689.15,NULL,Niveau,kiwango,s,usimamizi,mwamali,mshairi,NA,sd,NA,4,NA,NA,NA,NA,NA,NA,NA,NA,NA,NA,NA,NA,NA,NA,NA,NA,NA,NA,NA
161f9,shallow,flow.Sequence,3_0_4_0_1_1,NA,NA,completion,8932.26,404734.60000002,404722.83,404740.043,413672.303,413676.4000001,2023-11-25T13:39:11Z,413689.15,NULL,Niveau,kiwango,s,usimamizi,mwamali,mshairi,NA,sd,NA,4,NA,NA,NA,NA,NA,NA,NA,NA,NA,NA,NA,NA,NA,NA,NA,NA,NA,NA,NA
161f9,task,flow.Sequence,3_0_4_0_1,NA,NA,completion,8932.26,404734.5,404722.83,404740.043,413672.303,413676.60000002,2023-11-25T13:39:11Z,413689.15,NULL,Niveau,kiwango,s,usimamizi,mwamali,mshairi,NA,sd,NA,4,NA,NA,NA,NA,NA,NA,NA,NA,NA,NA,NA,NA,NA,NA,NA,NA,NA,NA,NA
161f9,deep,flow.Sequence,3_0_4_0_2_0,NA,NA,skipped,NA,413676.60000002,NA,NA,413672.303,413676.60000002,2023-11-25T13:39:11Z,413689.15,NULL,System,maongozi,s,chokochoko,nuksani,mitaani,NA,sd,NA,4,NA,NA,NA,NA,NA,NA,NA,NA,NA,NA,NA,NA,NA,NA,NA,NA,NA,NA,NA
161f9,Shallow Question,html.Page,3_0_4_0_2_1_0,NA,NA,form submission,7630.1500000715,413676.70000005,413672.303,413689.15,421319.30000007,421319.70000005,2023-11-25T13:39:18Z,421321.904,NULL,System,maongozi,s,chokochoko,nuksani,mitaani,maongozi,NA,NA,4,NA,NA,NA,NA,NA,NA,NA,NA,NA,NA,NA,NA,NA,NA,NA,NA,NA,NA,NA
161f9,"""Richtig""-Screen",canvas.Screen,3_0_4_0_2_1_1,NA,NA,timeout,5000.028,421323.20000005,421309.196,421321.904,426305.245,426313.30000007,2023-11-25T13:39:23Z,426321.932,NULL,System,maongozi,s,chokochoko,nuksani,mitaani,NA,sd,1,4,NA,NA,NA,NA,NA,NA,NA,NA,NA,NA,NA,NA,NA,NA,NA,NA,NA,NA,NA
161f9,"""Falsch""-Screen",canvas.Screen,3_0_4_0_2_1_2,NA,NA,skipped,NA,426316,NA,NA,426305.245,426316.30000007,2023-11-25T13:39:23Z,426321.932,NULL,System,maongozi,s,chokochoko,nuksani,mitaani,NA,sd,NA,4,NA,NA,NA,NA,NA,NA,NA,NA,NA,NA,NA,NA,NA,NA,NA,NA,NA,NA,NA
161f9,shallow,flow.Sequence,3_0_4_0_2_1,NA,NA,completion,12616.095,413676.60000002,413672.303,413689.15,426305.245,426316.4000001,2023-11-25T13:39:23Z,426321.932,NULL,System,maongozi,s,chokochoko,nuksani,mitaani,NA,sd,NA,4,NA,NA,NA,NA,NA,NA,NA,NA,NA,NA,NA,NA,NA,NA,NA,NA,NA,NA,NA
161f9,task,flow.Sequence,3_0_4_0_2,NA,NA,completion,12616.095,413676.60000002,413672.303,413689.15,426305.245,426316.60000002,2023-11-25T13:39:23Z,426321.932,NULL,System,maongozi,s,chokochoko,nuksani,mitaani,NA,sd,NA,4,NA,NA,NA,NA,NA,NA,NA,NA,NA,NA,NA,NA,NA,NA,NA,NA,NA,NA,NA
161f9,Deep Question,html.Page,3_0_4_0_3_0_0,NA,NA,form submission,3258.3680000716,426316.80000007,426305.245,426321.932,429580.30000007,429580.80000007,2023-11-25T13:39:27Z,429588.454,NULL,Übersicht,kilindo,d,NA,NA,NA,j,NA,NA,4,NA,NA,NA,NA,NA,NA,NA,NA,NA,NA,NA,NA,NA,NA,NA,NA,NA,NA,NA
161f9,"""Richtig""-Screen",canvas.Screen,3_0_4_0_3_0_1,NA,NA,skipped,NA,429583.60000002,NA,NA,429580.30000007,429583.80000007,2023-11-25T13:39:27Z,429588.454,NULL,Übersicht,kilindo,d,NA,NA,NA,NA,sd,NA,4,NA,NA,NA,NA,NA,NA,NA,NA,NA,NA,NA,NA,NA,NA,NA,NA,NA,NA,NA
161f9,"""Falsch""-Screen",canvas.Screen,3_0_4_0_3_0_2,NA,NA,timeout,5000.471,429584.5,429568.131,429588.454,434572.268,434573.20000005,2023-11-25T13:39:32Z,434588.925,NULL,Übersicht,kilindo,d,NA,NA,NA,NA,sd,0,4,NA,NA,NA,NA,NA,NA,NA,NA,NA,NA,NA,NA,NA,NA,NA,NA,NA,NA,NA
161f9,deep,flow.Sequence,3_0_4_0_3_0,NA,NA,completion,8250.336,426316.70000005,426305.245,426321.932,434572.268,434573.4000001,2023-11-25T13:39:32Z,434588.925,NULL,Übersicht,kilindo,d,NA,NA,NA,NA,sd,NA,4,NA,NA,NA,NA,NA,NA,NA,NA,NA,NA,NA,NA,NA,NA,NA,NA,NA,NA,NA
161f9,shallow,flow.Sequence,3_0_4_0_3_1,NA,NA,skipped,NA,434573.60000002,NA,NA,434572.268,434573.60000002,2023-11-25T13:39:32Z,434588.925,NULL,Übersicht,kilindo,d,NA,NA,NA,NA,sd,NA,4,NA,NA,NA,NA,NA,NA,NA,NA,NA,NA,NA,NA,NA,NA,NA,NA,NA,NA,NA
161f9,task,flow.Sequence,3_0_4_0_3,NA,NA,completion,8250.336,426316.70000005,426305.245,426321.932,434572.268,434573.70000005,2023-11-25T13:39:32Z,434588.925,NULL,Übersicht,kilindo,d,NA,NA,NA,NA,sd,NA,4,NA,NA,NA,NA,NA,NA,NA,NA,NA,NA,NA,NA,NA,NA,NA,NA,NA,NA,NA
161f9,deep,flow.Sequence,3_0_4_0_4_0,NA,NA,skipped,NA,434573.80000007,NA,NA,434572.268,434573.80000007,2023-11-25T13:39:32Z,434588.925,NULL,Lawine,banguko,s,maambukizi,usuluhishi,chekechea,NA,sd,NA,4,NA,NA,NA,NA,NA,NA,NA,NA,NA,NA,NA,NA,NA,NA,NA,NA,NA,NA,NA
161f9,Shallow Question,html.Page,3_0_4_0_4_1_0,NA,NA,form submission,6363.2750000477,434573.9000001,434572.268,434588.925,440952.20000005,440952.5,2023-11-25T13:39:38Z,440954.804,NULL,Lawine,banguko,s,maambukizi,usuluhishi,chekechea,banguko,NA,NA,4,NA,NA,NA,NA,NA,NA,NA,NA,NA,NA,NA,NA,NA,NA,NA,NA,NA,NA,NA
161f9,"""Richtig""-Screen",canvas.Screen,3_0_4_0_4_1_1,NA,NA,timeout,5000.15,440955.30000007,440938.682,440954.804,445938.275,445945.80000007,2023-11-25T13:39:43Z,445954.954,NULL,Lawine,banguko,s,maambukizi,usuluhishi,chekechea,NA,sd,1,4,NA,NA,NA,NA,NA,NA,NA,NA,NA,NA,NA,NA,NA,NA,NA,NA,NA,NA,NA
161f9,"""Falsch""-Screen",canvas.Screen,3_0_4_0_4_1_2,NA,NA,skipped,NA,445949,NA,NA,445938.275,445949.20000005,2023-11-25T13:39:43Z,445954.954,NULL,Lawine,banguko,s,maambukizi,usuluhishi,chekechea,NA,sd,NA,4,NA,NA,NA,NA,NA,NA,NA,NA,NA,NA,NA,NA,NA,NA,NA,NA,NA,NA,NA
161f9,shallow,flow.Sequence,3_0_4_0_4_1,NA,NA,completion,11349.35,434573.80000007,434572.268,434588.925,445938.275,445949.5,2023-11-25T13:39:43Z,445954.954,NULL,Lawine,banguko,s,maambukizi,usuluhishi,chekechea,NA,sd,NA,4,NA,NA,NA,NA,NA,NA,NA,NA,NA,NA,NA,NA,NA,NA,NA,NA,NA,NA,NA
161f9,task,flow.Sequence,3_0_4_0_4,NA,NA,completion,11349.35,434573.80000007,434572.268,434588.925,445938.275,445949.5,2023-11-25T13:39:43Z,445954.954,NULL,Lawine,banguko,s,maambukizi,usuluhishi,chekechea,NA,sd,NA,4,NA,NA,NA,NA,NA,NA,NA,NA,NA,NA,NA,NA,NA,NA,NA,NA,NA,NA,NA
161f9,Deep Question,html.Page,3_0_4_0_5_0_0,NA,NA,form submission,3901.6460000238,445949.70000005,445938.275,445954.954,449856.60000002,449857,2023-11-25T13:39:47Z,449871.214,NULL,Vorwurf,mashtaka,d,NA,NA,NA,mashtaka,NA,NA,4,NA,NA,NA,NA,NA,NA,NA,NA,NA,NA,NA,NA,NA,NA,NA,NA,NA,NA,NA
161f9,"""Richtig""-Screen",canvas.Screen,3_0_4_0_5_0_1,NA,NA,timeout,5000.537,449859.70000005,449856.728,449871.214,454854.759,454863.5,2023-11-25T13:39:52Z,454871.751,NULL,Vorwurf,mashtaka,d,NA,NA,NA,NA,sd,1,4,NA,NA,NA,NA,NA,NA,NA,NA,NA,NA,NA,NA,NA,NA,NA,NA,NA,NA,NA
161f9,"""Falsch""-Screen",canvas.Screen,3_0_4_0_5_0_2,NA,NA,skipped,NA,454867.20000005,NA,NA,454854.759,454867.30000007,2023-11-25T13:39:52Z,454871.751,NULL,Vorwurf,mashtaka,d,NA,NA,NA,NA,sd,NA,4,NA,NA,NA,NA,NA,NA,NA,NA,NA,NA,NA,NA,NA,NA,NA,NA,NA,NA,NA
161f9,deep,flow.Sequence,3_0_4_0_5_0,NA,NA,completion,8899.805,445949.70000005,445938.275,445954.954,454854.759,454867.5,2023-11-25T13:39:52Z,454871.751,NULL,Vorwurf,mashtaka,d,NA,NA,NA,NA,sd,NA,4,NA,NA,NA,NA,NA,NA,NA,NA,NA,NA,NA,NA,NA,NA,NA,NA,NA,NA,NA
161f9,shallow,flow.Sequence,3_0_4_0_5_1,NA,NA,skipped,NA,454867.5,NA,NA,454854.759,454867.60000002,2023-11-25T13:39:52Z,454871.751,NULL,Vorwurf,mashtaka,d,NA,NA,NA,NA,sd,NA,4,NA,NA,NA,NA,NA,NA,NA,NA,NA,NA,NA,NA,NA,NA,NA,NA,NA,NA,NA
161f9,task,flow.Sequence,3_0_4_0_5,NA,NA,completion,8899.805,445949.60000002,445938.275,445954.954,454854.759,454867.70000005,2023-11-25T13:39:52Z,454871.751,NULL,Vorwurf,mashtaka,d,NA,NA,NA,NA,sd,NA,4,NA,NA,NA,NA,NA,NA,NA,NA,NA,NA,NA,NA,NA,NA,NA,NA,NA,NA,NA
161f9,Deep Question,html.Page,3_0_4_0_6_0_0,NA,NA,form submission,6242.249,454867.80000007,454854.759,454871.751,461114,461114.5,2023-11-25T13:39:58Z,461120.921,NULL,Körper,kiwiliwili,d,NA,NA,NA,kiwiliwiani,NA,NA,4,NA,NA,NA,NA,NA,NA,NA,NA,NA,NA,NA,NA,NA,NA,NA,NA,NA,NA,NA
161f9,"""Richtig""-Screen",canvas.Screen,3_0_4_0_6_0_1,NA,NA,skipped,NA,461117.30000007,NA,NA,461114,461117.5,2023-11-25T13:39:58Z,461120.921,NULL,Körper,kiwiliwili,d,NA,NA,NA,NA,sd,NA,4,NA,NA,NA,NA,NA,NA,NA,NA,NA,NA,NA,NA,NA,NA,NA,NA,NA,NA,NA
161f9,"""Falsch""-Screen",canvas.Screen,3_0_4_0_6_0_2,NA,NA,timeout,5001.713,461118.30000007,461113.408,461120.921,466104.268,466112.9000001,2023-11-25T13:40:03Z,466122.634,NULL,Körper,kiwiliwili,d,NA,NA,NA,NA,sd,0,4,NA,NA,NA,NA,NA,NA,NA,NA,NA,NA,NA,NA,NA,NA,NA,NA,NA,NA,NA
161f9,deep,flow.Sequence,3_0_4_0_6_0,NA,NA,completion,11232.517,454867.80000007,454854.759,454871.751,466104.268,466113.20000005,2023-11-25T13:40:03Z,466122.634,NULL,Körper,kiwiliwili,d,NA,NA,NA,NA,sd,NA,4,NA,NA,NA,NA,NA,NA,NA,NA,NA,NA,NA,NA,NA,NA,NA,NA,NA,NA,NA
161f9,shallow,flow.Sequence,3_0_4_0_6_1,NA,NA,skipped,NA,466113.30000007,NA,NA,466104.268,466113.30000007,2023-11-25T13:40:03Z,466122.634,NULL,Körper,kiwiliwili,d,NA,NA,NA,NA,sd,NA,4,NA,NA,NA,NA,NA,NA,NA,NA,NA,NA,NA,NA,NA,NA,NA,NA,NA,NA,NA
161f9,task,flow.Sequence,3_0_4_0_6,NA,NA,completion,11232.517,454867.80000007,454854.759,454871.751,466104.268,466113.5,2023-11-25T13:40:03Z,466122.634,NULL,Körper,kiwiliwili,d,NA,NA,NA,NA,sd,NA,4,NA,NA,NA,NA,NA,NA,NA,NA,NA,NA,NA,NA,NA,NA,NA,NA,NA,NA,NA
161f9,Deep Question,html.Page,3_0_4_0_7_0_0,NA,NA,form submission,2160.7660000953,466113.70000005,466104.268,466122.634,468283.4000001,468283.9000001,2023-11-25T13:40:05Z,468287.345,NULL,Entwicklung,maendeleo,d,NA,NA,NA,f,NA,NA,4,NA,NA,NA,NA,NA,NA,NA,NA,NA,NA,NA,NA,NA,NA,NA,NA,NA,NA,NA
161f9,"""Richtig""-Screen",canvas.Screen,3_0_4_0_7_0_1,NA,NA,skipped,NA,468287,NA,NA,468283.4000001,468287.20000005,2023-11-25T13:40:05Z,468287.345,NULL,Entwicklung,maendeleo,d,NA,NA,NA,NA,sd,NA,4,NA,NA,NA,NA,NA,NA,NA,NA,NA,NA,NA,NA,NA,NA,NA,NA,NA,NA,NA
161f9,"""Falsch""-Screen",canvas.Screen,3_0_4_0_7_0_2,NA,NA,timeout,5000.2340000001,468288,468269.779,468287.345,473270.639,473275.30000007,2023-11-25T13:40:10Z,473287.579,NULL,Entwicklung,maendeleo,d,NA,NA,NA,NA,sd,0,4,NA,NA,NA,NA,NA,NA,NA,NA,NA,NA,NA,NA,NA,NA,NA,NA,NA,NA,NA
161f9,deep,flow.Sequence,3_0_4_0_7_0,NA,NA,completion,7148.005,466113.70000005,466104.268,466122.634,473270.639,473275.5,2023-11-25T13:40:10Z,473287.579,NULL,Entwicklung,maendeleo,d,NA,NA,NA,NA,sd,NA,4,NA,NA,NA,NA,NA,NA,NA,NA,NA,NA,NA,NA,NA,NA,NA,NA,NA,NA,NA
161f9,shallow,flow.Sequence,3_0_4_0_7_1,NA,NA,skipped,NA,473275.60000002,NA,NA,473270.639,473275.60000002,2023-11-25T13:40:10Z,473287.579,NULL,Entwicklung,maendeleo,d,NA,NA,NA,NA,sd,NA,4,NA,NA,NA,NA,NA,NA,NA,NA,NA,NA,NA,NA,NA,NA,NA,NA,NA,NA,NA
161f9,task,flow.Sequence,3_0_4_0_7,NA,NA,completion,7148.005,466113.60000002,466104.268,466122.634,473270.639,473275.70000005,2023-11-25T13:40:10Z,473287.579,NULL,Entwicklung,maendeleo,d,NA,NA,NA,NA,sd,NA,4,NA,NA,NA,NA,NA,NA,NA,NA,NA,NA,NA,NA,NA,NA,NA,NA,NA,NA,NA
161f9,block,flow.Loop,3_0_4_0,NA,NA,completion,77229.803,396036.20000005,396024.427,396040.836,473270.639,473275.9000001,2023-11-25T13:40:10Z,473287.579,NULL,NA,NA,NA,NA,NA,NA,NA,sd,NA,4,NA,NA,NA,NA,NA,NA,NA,NA,NA,NA,NA,NA,NA,NA,NA,NA,NA,NA,NA
161f9,weiter,canvas.Screen,3_0_4_1,sdf,keypress(Space),response,960.82100009534,473275.9000001,473270.639,473287.579,474248.4000001,474249.4000001,2023-11-25T13:40:11Z,474564.8,NULL,NA,NA,NA,NA,NA,NA,NA,sd,NA,4,NA,NA,NA,NA,NA,NA,NA,NA,NA,NA,NA,NA,NA,NA,NA,NA,NA,NA,NA
161f9,check continue,flow.Sequence,3_0_4,NA,NA,completion,78207.564000095,396036.20000005,396024.427,396040.836,474248.4000001,474249.60000002,2023-11-25T13:40:11Z,474564.8,NULL,NA,NA,NA,NA,NA,NA,NA,sd,NA,4,NA,NA,NA,NA,NA,NA,NA,NA,NA,NA,NA,NA,NA,NA,NA,NA,NA,NA,NA
161f9,check continue,flow.Sequence,3_0_5,NA,NA,skipped,NA,474276.60000002,NA,NA,474248.4000001,474276.60000002,2023-11-25T13:40:11Z,474564.8,NULL,NA,NA,NA,NA,NA,NA,NA,sdf,NA,5,NA,NA,NA,NA,NA,NA,NA,NA,NA,NA,NA,NA,NA,NA,NA,NA,NA,NA,NA
161f9,check continue,flow.Sequence,3_0_6,NA,NA,skipped,NA,474292.20000005,NA,NA,474248.4000001,474292.20000005,2023-11-25T13:40:11Z,474564.8,NULL,NA,NA,NA,NA,NA,NA,NA,dfs,NA,6,NA,NA,NA,NA,NA,NA,NA,NA,NA,NA,NA,NA,NA,NA,NA,NA,NA,NA,NA
161f9,check continue,flow.Sequence,3_0_7,NA,NA,skipped,NA,474306.4000001,NA,NA,474248.4000001,474306.4000001,2023-11-25T13:40:11Z,474564.8,NULL,NA,NA,NA,NA,NA,NA,NA,df,NA,7,NA,NA,NA,NA,NA,NA,NA,NA,NA,NA,NA,NA,NA,NA,NA,NA,NA,NA,NA
161f9,check continue,flow.Sequence,3_0_8,NA,NA,skipped,NA,474326.60000002,NA,NA,474248.4000001,474326.80000007,2023-11-25T13:40:11Z,474564.8,NULL,NA,NA,NA,NA,NA,NA,NA,dfs,NA,8,NA,NA,NA,NA,NA,NA,NA,NA,NA,NA,NA,NA,NA,NA,NA,NA,NA,NA,NA
161f9,check continue,flow.Sequence,3_0_9,NA,NA,skipped,NA,474350.10000002,NA,NA,474248.4000001,474350.20000005,2023-11-25T13:40:11Z,474564.8,NULL,NA,NA,NA,NA,NA,NA,NA,dsf,NA,9,NA,NA,NA,NA,NA,NA,NA,NA,NA,NA,NA,NA,NA,NA,NA,NA,NA,NA,NA
161f9,check continue,flow.Sequence,3_0_10,NA,NA,skipped,NA,474360.60000002,NA,NA,474248.4000001,474360.70000005,2023-11-25T13:40:11Z,474564.8,NULL,NA,NA,NA,NA,NA,NA,NA,df,NA,10,NA,NA,NA,NA,NA,NA,NA,NA,NA,NA,NA,NA,NA,NA,NA,NA,NA,NA,NA
161f9,check continue,flow.Sequence,3_0_11,NA,NA,skipped,NA,474371.10000002,NA,NA,474248.4000001,474371.20000005,2023-11-25T13:40:11Z,474564.8,NULL,NA,NA,NA,NA,NA,NA,NA,dfs,NA,11,NA,NA,NA,NA,NA,NA,NA,NA,NA,NA,NA,NA,NA,NA,NA,NA,NA,NA,NA
161f9,check continue,flow.Sequence,3_0_12,NA,NA,skipped,NA,474382.5,NA,NA,474248.4000001,474382.70000005,2023-11-25T13:40:11Z,474564.8,NULL,NA,NA,NA,NA,NA,NA,NA,dsf,NA,12,NA,NA,NA,NA,NA,NA,NA,NA,NA,NA,NA,NA,NA,NA,NA,NA,NA,NA,NA
161f9,check continue,flow.Sequence,3_0_13,NA,NA,skipped,NA,474393.5,NA,NA,474248.4000001,474393.60000002,2023-11-25T13:40:11Z,474564.8,NULL,NA,NA,NA,NA,NA,NA,NA,dsf,NA,13,NA,NA,NA,NA,NA,NA,NA,NA,NA,NA,NA,NA,NA,NA,NA,NA,NA,NA,NA
161f9,check continue,flow.Sequence,3_0_14,NA,NA,skipped,NA,474403.4000001,NA,NA,474248.4000001,474403.60000002,2023-11-25T13:40:11Z,474564.8,NULL,NA,NA,NA,NA,NA,NA,NA,NA,NA,14,NA,NA,NA,NA,NA,NA,NA,NA,NA,NA,NA,NA,NA,NA,NA,NA,NA,NA,NA
161f9,check continue,flow.Sequence,3_0_15,NA,NA,skipped,NA,474414,NA,NA,474248.4000001,474414,2023-11-25T13:40:11Z,474564.8,NULL,NA,NA,NA,NA,NA,NA,NA,NA,NA,15,NA,NA,NA,NA,NA,NA,NA,NA,NA,NA,NA,NA,NA,NA,NA,NA,NA,NA,NA
161f9,check continue,flow.Sequence,3_0_16,NA,NA,skipped,NA,474424,NA,NA,474248.4000001,474424.10000002,2023-11-25T13:40:11Z,474564.8,NULL,NA,NA,NA,NA,NA,NA,NA,NA,NA,16,NA,NA,NA,NA,NA,NA,NA,NA,NA,NA,NA,NA,NA,NA,NA,NA,NA,NA,NA
161f9,check continue,flow.Sequence,3_0_17,NA,NA,skipped,NA,474433.70000005,NA,NA,474248.4000001,474433.80000007,2023-11-25T13:40:11Z,474564.8,NULL,NA,NA,NA,NA,NA,NA,NA,NA,NA,17,NA,NA,NA,NA,NA,NA,NA,NA,NA,NA,NA,NA,NA,NA,NA,NA,NA,NA,NA
161f9,check continue,flow.Sequence,3_0_18,NA,NA,skipped,NA,474443.20000005,NA,NA,474248.4000001,474443.30000007,2023-11-25T13:40:11Z,474564.8,NULL,NA,NA,NA,NA,NA,NA,NA,NA,NA,18,NA,NA,NA,NA,NA,NA,NA,NA,NA,NA,NA,NA,NA,NA,NA,NA,NA,NA,NA
161f9,check continue,flow.Sequence,3_0_19,NA,NA,skipped,NA,474451.5,NA,NA,474248.4000001,474451.5,2023-11-25T13:40:11Z,474564.8,NULL,NA,NA,NA,NA,NA,NA,NA,NA,NA,19,NA,NA,NA,NA,NA,NA,NA,NA,NA,NA,NA,NA,NA,NA,NA,NA,NA,NA,NA
161f9,check continue,flow.Sequence,3_0_20,NA,NA,skipped,NA,474461.80000007,NA,NA,474248.4000001,474461.9000001,2023-11-25T13:40:11Z,474564.8,NULL,NA,NA,NA,NA,NA,NA,NA,NA,NA,20,NA,NA,NA,NA,NA,NA,NA,NA,NA,NA,NA,NA,NA,NA,NA,NA,NA,NA,NA
161f9,check continue,flow.Sequence,3_0_21,NA,NA,skipped,NA,474473.10000002,NA,NA,474248.4000001,474473.20000005,2023-11-25T13:40:11Z,474564.8,NULL,NA,NA,NA,NA,NA,NA,NA,NA,NA,21,NA,NA,NA,NA,NA,NA,NA,NA,NA,NA,NA,NA,NA,NA,NA,NA,NA,NA,NA
161f9,check continue,flow.Sequence,3_0_22,NA,NA,skipped,NA,474482.4000001,NA,NA,474248.4000001,474482.5,2023-11-25T13:40:11Z,474564.8,NULL,NA,NA,NA,NA,NA,NA,NA,NA,NA,22,NA,NA,NA,NA,NA,NA,NA,NA,NA,NA,NA,NA,NA,NA,NA,NA,NA,NA,NA
161f9,check continue,flow.Sequence,3_0_23,NA,NA,skipped,NA,474492.10000002,NA,NA,474248.4000001,474492.20000005,2023-11-25T13:40:11Z,474564.8,NULL,NA,NA,NA,NA,NA,NA,NA,NA,NA,23,NA,NA,NA,NA,NA,NA,NA,NA,NA,NA,NA,NA,NA,NA,NA,NA,NA,NA,NA
161f9,check continue,flow.Sequence,3_0_24,NA,NA,skipped,NA,474500.70000005,NA,NA,474248.4000001,474500.80000007,2023-11-25T13:40:12Z,474564.8,NULL,NA,NA,NA,NA,NA,NA,NA,NA,NA,24,NA,NA,NA,NA,NA,NA,NA,NA,NA,NA,NA,NA,NA,NA,NA,NA,NA,NA,NA
161f9,check continue,flow.Sequence,3_0_25,NA,NA,skipped,NA,474510.70000005,NA,NA,474248.4000001,474510.80000007,2023-11-25T13:40:12Z,474564.8,NULL,NA,NA,NA,NA,NA,NA,NA,NA,NA,25,NA,NA,NA,NA,NA,NA,NA,NA,NA,NA,NA,NA,NA,NA,NA,NA,NA,NA,NA
161f9,check continue,flow.Sequence,3_0_26,NA,NA,skipped,NA,474519.30000007,NA,NA,474248.4000001,474519.4000001,2023-11-25T13:40:12Z,474564.8,NULL,NA,NA,NA,NA,NA,NA,NA,NA,NA,26,NA,NA,NA,NA,NA,NA,NA,NA,NA,NA,NA,NA,NA,NA,NA,NA,NA,NA,NA
161f9,check continue,flow.Sequence,3_0_27,NA,NA,skipped,NA,474529.10000002,NA,NA,474248.4000001,474529.10000002,2023-11-25T13:40:12Z,474564.8,NULL,NA,NA,NA,NA,NA,NA,NA,NA,NA,27,NA,NA,NA,NA,NA,NA,NA,NA,NA,NA,NA,NA,NA,NA,NA,NA,NA,NA,NA
161f9,check continue,flow.Sequence,3_0_28,NA,NA,skipped,NA,474537.4000001,NA,NA,474248.4000001,474537.5,2023-11-25T13:40:12Z,474564.8,NULL,NA,NA,NA,NA,NA,NA,NA,NA,NA,28,NA,NA,NA,NA,NA,NA,NA,NA,NA,NA,NA,NA,NA,NA,NA,NA,NA,NA,NA
161f9,check continue,flow.Sequence,3_0_29,NA,NA,skipped,NA,474548.10000002,NA,NA,474248.4000001,474548.10000002,2023-11-25T13:40:12Z,474564.8,NULL,NA,NA,NA,NA,NA,NA,NA,NA,NA,29,NA,NA,NA,NA,NA,NA,NA,NA,NA,NA,NA,NA,NA,NA,NA,NA,NA,NA,NA
161f9,until continue,flow.Loop,3_0,NA,NA,completion,377734.1420001,96496.200000048,96495.9,96514.258,474248.4000001,474548.30000007,2023-11-25T13:40:12Z,474564.8,NULL,NA,NA,NA,NA,NA,NA,NA,NA,NA,NA,NA,NA,NA,NA,NA,NA,NA,NA,NA,NA,NA,NA,NA,NA,NA,NA,NA,NA,NA
161f9,block 1,flow.Sequence,3,NA,NA,completion,377734.1420001,96496.100000024,96495.9,96514.258,474248.4000001,474548.30000007,2023-11-25T13:40:12Z,474564.8,NULL,NA,NA,NA,NA,NA,NA,NA,NA,NA,NA,NA,NA,NA,NA,NA,NA,NA,NA,NA,NA,NA,NA,NA,NA,NA,NA,NA,NA,NA
161f9,1.Part Over,canvas.Screen,4,NA,keypress(Space),response,19158.7,474548.30000007,474547.409,474564.8,493723.5,493724.5,2023-11-25T13:40:31Z,493803.419,NULL,NA,NA,NA,NA,NA,NA,NA,NA,NA,NA,NA,NA,NA,NA,NA,NA,NA,NA,NA,NA,NA,NA,NA,NA,NA,NA,NA,NA,NA
161f9,deep,flow.Sequence,5_0_0_0_0_0,NA,NA,skipped,NA,493793.30000007,NA,NA,493723.5,493793.4000001,2023-11-25T13:40:31Z,493803.419,NULL,Fleisch,mshakiki,s,kizunguzungu,mshikamano,angusho,NA,sdf,NA,0,NA,NA,NA,NA,NA,NA,NA,NA,NA,NA,NA,NA,NA,NA,NA,NA,NA,NA,NA
161f9,Shallow Question,html.Page,5_0_0_0_0_1_0,NA,NA,form submission,16877.981000095,493793.4000001,493776.687,493803.419,510681.4000001,510681.70000005,2023-11-25T13:40:48Z,510686.166,NULL,Fleisch,mshakiki,s,kizunguzungu,mshikamano,angusho,kizunguzungu,NA,NA,0,NA,NA,NA,NA,NA,NA,NA,NA,NA,NA,NA,NA,NA,NA,NA,NA,NA,NA,NA
161f9,"""Richtig""-Screen",canvas.Screen,5_0_0_0_0_1_1,NA,NA,skipped,NA,510684.5,NA,NA,510681.4000001,510684.70000005,2023-11-25T13:40:48Z,510686.166,NULL,Fleisch,mshakiki,s,kizunguzungu,mshikamano,angusho,NA,sdf,NA,0,NA,NA,NA,NA,NA,NA,NA,NA,NA,NA,NA,NA,NA,NA,NA,NA,NA,NA,NA
161f9,"""Falsch""-Screen",canvas.Screen,5_0_0_0_0_1_2,NA,NA,timeout,5000.537,510685.70000005,510670.925,510686.166,515670.034,515671.10000002,2023-11-25T13:40:53Z,515686.703,NULL,Fleisch,mshakiki,s,kizunguzungu,mshikamano,angusho,NA,sdf,0,0,NA,NA,NA,NA,NA,NA,NA,NA,NA,NA,NA,NA,NA,NA,NA,NA,NA,NA,NA
161f9,shallow,flow.Sequence,5_0_0_0_0_1,NA,NA,completion,21866.615,493793.4000001,493776.687,493803.419,515670.034,515671.30000007,2023-11-25T13:40:53Z,515686.703,NULL,Fleisch,mshakiki,s,kizunguzungu,mshikamano,angusho,NA,sdf,NA,0,NA,NA,NA,NA,NA,NA,NA,NA,NA,NA,NA,NA,NA,NA,NA,NA,NA,NA,NA
161f9,task,flow.Sequence,5_0_0_0_0,NA,NA,completion,21866.615,493793.30000007,493776.687,493803.419,515670.034,515671.30000007,2023-11-25T13:40:53Z,515686.703,NULL,Fleisch,mshakiki,s,kizunguzungu,mshikamano,angusho,NA,sdf,NA,0,NA,NA,NA,NA,NA,NA,NA,NA,NA,NA,NA,NA,NA,NA,NA,NA,NA,NA,NA
161f9,Deep Question,html.Page,5_0_0_0_1_0_0,NA,NA,form submission,1871.0970000715,515671.4000001,515670.034,515686.703,517557.80000007,517558,2023-11-25T13:40:55Z,517569.354,NULL,Genehmigung,idhini,d,NA,NA,NA,k,NA,NA,0,NA,NA,NA,NA,NA,NA,NA,NA,NA,NA,NA,NA,NA,NA,NA,NA,NA,NA,NA
161f9,"""Richtig""-Screen",canvas.Screen,5_0_0_0_1_0_1,NA,NA,skipped,NA,517560.9000001,NA,NA,517557.80000007,517561.20000005,2023-11-25T13:40:55Z,517569.354,NULL,Genehmigung,idhini,d,NA,NA,NA,NA,sdf,NA,0,NA,NA,NA,NA,NA,NA,NA,NA,NA,NA,NA,NA,NA,NA,NA,NA,NA,NA,NA
161f9,"""Falsch""-Screen",canvas.Screen,5_0_0_0_1_0_2,NA,NA,timeout,4999.94,517562,517547.393,517569.354,522553.153,522557.30000007,2023-11-25T13:41:00Z,522569.294,NULL,Genehmigung,idhini,d,NA,NA,NA,NA,sdf,0,0,NA,NA,NA,NA,NA,NA,NA,NA,NA,NA,NA,NA,NA,NA,NA,NA,NA,NA,NA
161f9,deep,flow.Sequence,5_0_0_0_1_0,NA,NA,completion,6866.45,515671.4000001,515670.034,515686.703,522553.153,522557.4000001,2023-11-25T13:41:00Z,522569.294,NULL,Genehmigung,idhini,d,NA,NA,NA,NA,sdf,NA,0,NA,NA,NA,NA,NA,NA,NA,NA,NA,NA,NA,NA,NA,NA,NA,NA,NA,NA,NA
161f9,shallow,flow.Sequence,5_0_0_0_1_1,NA,NA,skipped,NA,522557.5,NA,NA,522553.153,522557.60000002,2023-11-25T13:41:00Z,522569.294,NULL,Genehmigung,idhini,d,NA,NA,NA,NA,sdf,NA,0,NA,NA,NA,NA,NA,NA,NA,NA,NA,NA,NA,NA,NA,NA,NA,NA,NA,NA,NA
161f9,task,flow.Sequence,5_0_0_0_1,NA,NA,completion,6866.45,515671.4000001,515670.034,515686.703,522553.153,522557.70000005,2023-11-25T13:41:00Z,522569.294,NULL,Genehmigung,idhini,d,NA,NA,NA,NA,sdf,NA,0,NA,NA,NA,NA,NA,NA,NA,NA,NA,NA,NA,NA,NA,NA,NA,NA,NA,NA,NA
161f9,Deep Question,html.Page,5_0_0_0_2_0_0,NA,NA,form submission,2309.9060000477,522557.70000005,522553.153,522569.294,524879.20000005,524879.60000002,2023-11-25T13:41:02Z,524893.469,NULL,Kultur,utamaduni,d,NA,NA,NA,j,NA,NA,0,NA,NA,NA,NA,NA,NA,NA,NA,NA,NA,NA,NA,NA,NA,NA,NA,NA,NA,NA
161f9,"""Richtig""-Screen",canvas.Screen,5_0_0_0_2_0_1,NA,NA,skipped,NA,524883,NA,NA,524879.20000005,524883.20000005,2023-11-25T13:41:02Z,524893.469,NULL,Kultur,utamaduni,d,NA,NA,NA,NA,sdf,NA,0,NA,NA,NA,NA,NA,NA,NA,NA,NA,NA,NA,NA,NA,NA,NA,NA,NA,NA,NA
161f9,"""Falsch""-Screen",canvas.Screen,5_0_0_0_2_0_2,NA,NA,timeout,4992.857,524883.9000001,524870.32,524893.469,529869.616,529870.4000001,2023-11-25T13:41:07Z,529886.326,NULL,Kultur,utamaduni,d,NA,NA,NA,NA,sdf,0,0,NA,NA,NA,NA,NA,NA,NA,NA,NA,NA,NA,NA,NA,NA,NA,NA,NA,NA,NA
161f9,deep,flow.Sequence,5_0_0_0_2_0,NA,NA,completion,7300.322,522557.70000005,522553.153,522569.294,529869.616,529870.70000005,2023-11-25T13:41:07Z,529886.326,NULL,Kultur,utamaduni,d,NA,NA,NA,NA,sdf,NA,0,NA,NA,NA,NA,NA,NA,NA,NA,NA,NA,NA,NA,NA,NA,NA,NA,NA,NA,NA
161f9,shallow,flow.Sequence,5_0_0_0_2_1,NA,NA,skipped,NA,529870.70000005,NA,NA,529869.616,529870.80000007,2023-11-25T13:41:07Z,529886.326,NULL,Kultur,utamaduni,d,NA,NA,NA,NA,sdf,NA,0,NA,NA,NA,NA,NA,NA,NA,NA,NA,NA,NA,NA,NA,NA,NA,NA,NA,NA,NA
161f9,task,flow.Sequence,5_0_0_0_2,NA,NA,completion,7300.322,522557.70000005,522553.153,522569.294,529869.616,529870.9000001,2023-11-25T13:41:07Z,529886.326,NULL,Kultur,utamaduni,d,NA,NA,NA,NA,sdf,NA,0,NA,NA,NA,NA,NA,NA,NA,NA,NA,NA,NA,NA,NA,NA,NA,NA,NA,NA,NA
161f9,Deep Question,html.Page,5_0_0_0_3_0_0,NA,NA,form submission,2722.3740000477,529871,529869.616,529886.326,532608.70000005,532609.10000002,2023-11-25T13:41:10Z,532635.589,NULL,Begegnung,kukutana,d,NA,NA,NA,l,NA,NA,0,NA,NA,NA,NA,NA,NA,NA,NA,NA,NA,NA,NA,NA,NA,NA,NA,NA,NA,NA
161f9,"""Richtig""-Screen",canvas.Screen,5_0_0_0_3_0_1,NA,NA,skipped,NA,532612.20000005,NA,NA,532608.70000005,532612.30000007,2023-11-25T13:41:10Z,532635.589,NULL,Begegnung,kukutana,d,NA,NA,NA,NA,sdf,NA,0,NA,NA,NA,NA,NA,NA,NA,NA,NA,NA,NA,NA,NA,NA,NA,NA,NA,NA,NA
161f9,"""Falsch""-Screen",canvas.Screen,5_0_0_0_3_0_2,NA,NA,timeout,5000.5059999999,532613.10000002,532619.004,532635.589,537619.423,537620.30000007,2023-11-25T13:41:15Z,537636.095,NULL,Begegnung,kukutana,d,NA,NA,NA,NA,sdf,0,0,NA,NA,NA,NA,NA,NA,NA,NA,NA,NA,NA,NA,NA,NA,NA,NA,NA,NA,NA
161f9,deep,flow.Sequence,5_0_0_0_3_0,NA,NA,completion,7733.097,529871,529869.616,529886.326,537619.423,537620.5,2023-11-25T13:41:15Z,537636.095,NULL,Begegnung,kukutana,d,NA,NA,NA,NA,sdf,NA,0,NA,NA,NA,NA,NA,NA,NA,NA,NA,NA,NA,NA,NA,NA,NA,NA,NA,NA,NA
161f9,shallow,flow.Sequence,5_0_0_0_3_1,NA,NA,skipped,NA,537620.60000002,NA,NA,537619.423,537620.60000002,2023-11-25T13:41:15Z,537636.095,NULL,Begegnung,kukutana,d,NA,NA,NA,NA,sdf,NA,0,NA,NA,NA,NA,NA,NA,NA,NA,NA,NA,NA,NA,NA,NA,NA,NA,NA,NA,NA
161f9,task,flow.Sequence,5_0_0_0_3,NA,NA,completion,7733.097,529870.9000001,529869.616,529886.326,537619.423,537620.70000005,2023-11-25T13:41:15Z,537636.095,NULL,Begegnung,kukutana,d,NA,NA,NA,NA,sdf,NA,0,NA,NA,NA,NA,NA,NA,NA,NA,NA,NA,NA,NA,NA,NA,NA,NA,NA,NA,NA
161f9,Deep Question,html.Page,5_0_0_0_4_0_0,NA,NA,form submission,4370.6050000477,537620.80000007,537619.423,537636.095,542006.70000005,542007.10000002,2023-11-25T13:41:19Z,542018.664,NULL,Verzögerung,kuchelewa,d,NA,NA,NA,h,NA,NA,0,NA,NA,NA,NA,NA,NA,NA,NA,NA,NA,NA,NA,NA,NA,NA,NA,NA,NA,NA
161f9,"""Richtig""-Screen",canvas.Screen,5_0_0_0_4_0_1,NA,NA,skipped,NA,542010,NA,NA,542006.70000005,542010.20000005,2023-11-25T13:41:19Z,542018.664,NULL,Verzögerung,kuchelewa,d,NA,NA,NA,NA,sdf,NA,0,NA,NA,NA,NA,NA,NA,NA,NA,NA,NA,NA,NA,NA,NA,NA,NA,NA,NA,NA
161f9,"""Falsch""-Screen",canvas.Screen,5_0_0_0_4_0_2,NA,NA,timeout,5000.264,542011.4000001,542003.988,542018.664,547002.153,547002.9000001,2023-11-25T13:41:24Z,547018.928,NULL,Verzögerung,kuchelewa,d,NA,NA,NA,NA,sdf,0,0,NA,NA,NA,NA,NA,NA,NA,NA,NA,NA,NA,NA,NA,NA,NA,NA,NA,NA,NA
161f9,deep,flow.Sequence,5_0_0_0_4_0,NA,NA,completion,9366.0580000001,537620.80000007,537619.423,537636.095,547002.153,547003.20000005,2023-11-25T13:41:24Z,547018.928,NULL,Verzögerung,kuchelewa,d,NA,NA,NA,NA,sdf,NA,0,NA,NA,NA,NA,NA,NA,NA,NA,NA,NA,NA,NA,NA,NA,NA,NA,NA,NA,NA
161f9,shallow,flow.Sequence,5_0_0_0_4_1,NA,NA,skipped,NA,547003.30000007,NA,NA,547002.153,547003.30000007,2023-11-25T13:41:24Z,547018.928,NULL,Verzögerung,kuchelewa,d,NA,NA,NA,NA,sdf,NA,0,NA,NA,NA,NA,NA,NA,NA,NA,NA,NA,NA,NA,NA,NA,NA,NA,NA,NA,NA
161f9,task,flow.Sequence,5_0_0_0_4,NA,NA,completion,9366.0580000001,537620.70000005,537619.423,537636.095,547002.153,547003.4000001,2023-11-25T13:41:24Z,547018.928,NULL,Verzögerung,kuchelewa,d,NA,NA,NA,NA,sdf,NA,0,NA,NA,NA,NA,NA,NA,NA,NA,NA,NA,NA,NA,NA,NA,NA,NA,NA,NA,NA
161f9,deep,flow.Sequence,5_0_0_0_5_0,NA,NA,skipped,NA,547003.4000001,NA,NA,547002.153,547003.5,2023-11-25T13:41:24Z,547018.928,NULL,Integrität,uadilifu,s,muungano,mtiririko,upunguaji,NA,sdf,NA,0,NA,NA,NA,NA,NA,NA,NA,NA,NA,NA,NA,NA,NA,NA,NA,NA,NA,NA,NA
161f9,Shallow Question,html.Page,5_0_0_0_5_1_0,NA,NA,form submission,4762.6720000239,547003.60000002,547002.153,547018.928,551781.60000002,551782,2023-11-25T13:41:29Z,551785.15,NULL,Integrität,uadilifu,s,muungano,mtiririko,upunguaji,muungano,NA,NA,0,NA,NA,NA,NA,NA,NA,NA,NA,NA,NA,NA,NA,NA,NA,NA,NA,NA,NA,NA
161f9,"""Richtig""-Screen",canvas.Screen,5_0_0_0_5_1_1,NA,NA,skipped,NA,551784.9000001,NA,NA,551781.60000002,551785,2023-11-25T13:41:29Z,551785.15,NULL,Integrität,uadilifu,s,muungano,mtiririko,upunguaji,NA,sdf,NA,0,NA,NA,NA,NA,NA,NA,NA,NA,NA,NA,NA,NA,NA,NA,NA,NA,NA,NA,NA
161f9,"""Falsch""-Screen",canvas.Screen,5_0_0_0_5_1_2,NA,NA,timeout,5000.416,551786,551770.997,551785.15,556768.88,556769.9000001,2023-11-25T13:41:34Z,556785.566,NULL,Integrität,uadilifu,s,muungano,mtiririko,upunguaji,NA,sdf,0,0,NA,NA,NA,NA,NA,NA,NA,NA,NA,NA,NA,NA,NA,NA,NA,NA,NA,NA,NA
161f9,shallow,flow.Sequence,5_0_0_0_5_1,NA,NA,completion,9749.952,547003.5,547002.153,547018.928,556768.88,556770.10000002,2023-11-25T13:41:34Z,556785.566,NULL,Integrität,uadilifu,s,muungano,mtiririko,upunguaji,NA,sdf,NA,0,NA,NA,NA,NA,NA,NA,NA,NA,NA,NA,NA,NA,NA,NA,NA,NA,NA,NA,NA
161f9,task,flow.Sequence,5_0_0_0_5,NA,NA,completion,9749.952,547003.4000001,547002.153,547018.928,556768.88,556770.20000005,2023-11-25T13:41:34Z,556785.566,NULL,Integrität,uadilifu,s,muungano,mtiririko,upunguaji,NA,sdf,NA,0,NA,NA,NA,NA,NA,NA,NA,NA,NA,NA,NA,NA,NA,NA,NA,NA,NA,NA,NA
161f9,deep,flow.Sequence,5_0_0_0_6_0,NA,NA,skipped,NA,556770.30000007,NA,NA,556768.88,556770.4000001,2023-11-25T13:41:34Z,556785.566,NULL,Aufstand,ugomaji,s,mazidio,msingi,kujieleza,NA,sdf,NA,0,NA,NA,NA,NA,NA,NA,NA,NA,NA,NA,NA,NA,NA,NA,NA,NA,NA,NA,NA
161f9,Shallow Question,html.Page,5_0_0_0_6_1_0,NA,NA,form submission,2605.1340000477,556770.4000001,556768.88,556785.566,559390.70000005,559391,2023-11-25T13:41:36Z,559401.483,NULL,Aufstand,ugomaji,s,mazidio,msingi,kujieleza,mazidio,NA,NA,0,NA,NA,NA,NA,NA,NA,NA,NA,NA,NA,NA,NA,NA,NA,NA,NA,NA,NA,NA
161f9,"""Richtig""-Screen",canvas.Screen,5_0_0_0_6_1_1,NA,NA,skipped,NA,559393.80000007,NA,NA,559390.70000005,559394,2023-11-25T13:41:36Z,559401.483,NULL,Aufstand,ugomaji,s,mazidio,msingi,kujieleza,NA,sdf,NA,0,NA,NA,NA,NA,NA,NA,NA,NA,NA,NA,NA,NA,NA,NA,NA,NA,NA,NA,NA
161f9,"""Falsch""-Screen",canvas.Screen,5_0_0_0_6_1_2,NA,NA,timeout,5000.132,559394.70000005,559382.729,559401.483,564385.337,564387.4000001,2023-11-25T13:41:41Z,564401.615,NULL,Aufstand,ugomaji,s,mazidio,msingi,kujieleza,NA,sdf,0,0,NA,NA,NA,NA,NA,NA,NA,NA,NA,NA,NA,NA,NA,NA,NA,NA,NA,NA,NA
161f9,shallow,flow.Sequence,5_0_0_0_6_1,NA,NA,completion,7599.7710000001,556770.4000001,556768.88,556785.566,564385.337,564387.70000005,2023-11-25T13:41:41Z,564401.615,NULL,Aufstand,ugomaji,s,mazidio,msingi,kujieleza,NA,sdf,NA,0,NA,NA,NA,NA,NA,NA,NA,NA,NA,NA,NA,NA,NA,NA,NA,NA,NA,NA,NA
161f9,task,flow.Sequence,5_0_0_0_6,NA,NA,completion,7599.7710000001,556770.30000007,556768.88,556785.566,564385.337,564387.9000001,2023-11-25T13:41:41Z,564401.615,NULL,Aufstand,ugomaji,s,mazidio,msingi,kujieleza,NA,sdf,NA,0,NA,NA,NA,NA,NA,NA,NA,NA,NA,NA,NA,NA,NA,NA,NA,NA,NA,NA,NA
