observation,sender,sender_type,sender_id,response,response_action,ended_on,duration,time_run,time_render,time_show,time_end,time_commit,timestamp,time_switch,german,swahili,enc,distractor1,distractor2,distractor3,response_2,x,correct,distractors,url_vp,url_sess,meta_labjs_version,meta_location,meta_user_agent,meta_platform,meta_language,meta_locale,meta_time_zone,meta_timezone_offset,meta_screen_width,meta_screen_height,meta_scroll_width,meta_scroll_height,meta_window_inner_width,meta_window_inner_height,meta_device_pixel_ratio,meta_labjs_build_flavor,meta_labjs_build_commit
b2d7b,Introduction delayed retrieval,canvas.Screen,0,weiter,keypress(Space),response,12573,323,325,362,12898,12877,2023-11-13T07:31:12Z,12912,NA,NA,NA,NA,NA,NA,NA,NA,NA,NULL,185,4,20.2.4,https://neurocog.fernuni.ch/studies/vweber/sliechti/delayed/index.html?vp=185&sess=4,"Mozilla/5.0 (Macintosh; Intel Mac OS X 10_15_7) AppleWebKit/605.1.15 (KHTML, like Gecko) Version/14.1.2 Safari/605.1.15",MacIntel,de-de,de-DE,Europe/Zurich,-60,1440,900,1112,556,1112,604,2,production,f5b4a49f956347addd546a832a3327688c2c0fef
b2d7b,Deep Question,html.Page,1_0_0_0,NA,NA,form submission,5207,12878,12894,12912,18119,18120,2023-11-13T07:31:17Z,18144,Kultur,utamaduni,s,shetani,gerezani,mazingira,jsofheiw,NA,NA,NULL,NA,NA,NA,NA,NA,NA,NA,NA,NA,NA,NA,NA,NA,NA,NA,NA,NA,NA,NA
b2d7b,Save data screen,canvas.Screen,1_0_0_1,NA,NA,timeout,501,18122,18128,18144,18628,18630,2023-11-13T07:31:17Z,18645,Kultur,utamaduni,s,shetani,gerezani,mazingira,NA,NA,0,NULL,NA,NA,NA,NA,NA,NA,NA,NA,NA,NA,NA,NA,NA,NA,NA,NA,NA,NA,NA
b2d7b,deep,flow.Sequence,1_0_0,NA,NA,completion,5716,12878,12894,12912,18628,18631,2023-11-13T07:31:17Z,18645,Kultur,utamaduni,s,shetani,gerezani,mazingira,NA,NA,NA,NULL,NA,NA,NA,NA,NA,NA,NA,NA,NA,NA,NA,NA,NA,NA,NA,NA,NA,NA,NA
b2d7b,task,flow.Sequence,1_0,NA,NA,completion,5716,12878,12894,12912,18628,18631,2023-11-13T07:31:17Z,18645,Kultur,utamaduni,s,shetani,gerezani,mazingira,NA,NA,NA,NULL,NA,NA,NA,NA,NA,NA,NA,NA,NA,NA,NA,NA,NA,NA,NA,NA,NA,NA,NA
b2d7b,Deep Question,html.Page,1_1_0_0,NA,NA,form submission,10036,18631,18628,18645,28681,28682,2023-11-13T07:31:27Z,28712,Lawine,banguko,d,maambukizi,usuluhishi,chekechea,ombigasi,NA,NA,NULL,NA,NA,NA,NA,NA,NA,NA,NA,NA,NA,NA,NA,NA,NA,NA,NA,NA,NA,NA
b2d7b,Save data screen,canvas.Screen,1_1_0_1,NA,NA,timeout,500,28683,28695,28712,29195,29198,2023-11-13T07:31:28Z,29212,Lawine,banguko,d,maambukizi,usuluhishi,chekechea,NA,NA,0,NULL,NA,NA,NA,NA,NA,NA,NA,NA,NA,NA,NA,NA,NA,NA,NA,NA,NA,NA,NA
b2d7b,deep,flow.Sequence,1_1_0,NA,NA,completion,10550,18631,18628,18645,29195,29199,2023-11-13T07:31:28Z,29212,Lawine,banguko,d,maambukizi,usuluhishi,chekechea,NA,NA,NA,NULL,NA,NA,NA,NA,NA,NA,NA,NA,NA,NA,NA,NA,NA,NA,NA,NA,NA,NA,NA
b2d7b,task,flow.Sequence,1_1,NA,NA,completion,10550,18631,18628,18645,29195,29199,2023-11-13T07:31:28Z,29212,Lawine,banguko,d,maambukizi,usuluhishi,chekechea,NA,NA,NA,NULL,NA,NA,NA,NA,NA,NA,NA,NA,NA,NA,NA,NA,NA,NA,NA,NA,NA,NA,NA
b2d7b,Deep Question,html.Page,1_2_0_0,NA,NA,form submission,4383,29199,29195,29212,33595,33595,2023-11-13T07:31:32Z,33628,Übersicht,kilindo,s,mgusano,chipukizi,kulinganisha,sofjeiwoe,NA,NA,NULL,NA,NA,NA,NA,NA,NA,NA,NA,NA,NA,NA,NA,NA,NA,NA,NA,NA,NA,NA
b2d7b,Save data screen,canvas.Screen,1_2_0_1,NA,NA,timeout,500,33597,33612,33628,34112,34112,2023-11-13T07:31:33Z,34128,Übersicht,kilindo,s,mgusano,chipukizi,kulinganisha,NA,NA,0,NULL,NA,NA,NA,NA,NA,NA,NA,NA,NA,NA,NA,NA,NA,NA,NA,NA,NA,NA,NA
b2d7b,deep,flow.Sequence,1_2_0,NA,NA,completion,4900,29199,29195,29212,34112,34113,2023-11-13T07:31:33Z,34128,Übersicht,kilindo,s,mgusano,chipukizi,kulinganisha,NA,NA,NA,NULL,NA,NA,NA,NA,NA,NA,NA,NA,NA,NA,NA,NA,NA,NA,NA,NA,NA,NA,NA
b2d7b,task,flow.Sequence,1_2,NA,NA,completion,4900,29199,29195,29212,34112,34113,2023-11-13T07:31:33Z,34128,Übersicht,kilindo,s,mgusano,chipukizi,kulinganisha,NA,NA,NA,NULL,NA,NA,NA,NA,NA,NA,NA,NA,NA,NA,NA,NA,NA,NA,NA,NA,NA,NA,NA
b2d7b,Deep Question,html.Page,1_3_0_0,NA,NA,form submission,6987,34113,34112,34128,41115,41116,2023-11-13T07:31:40Z,41145,Sänger,mwimbaji,d,msichana,shughuli,mshirika,mwebaji,NA,NA,NULL,NA,NA,NA,NA,NA,NA,NA,NA,NA,NA,NA,NA,NA,NA,NA,NA,NA,NA,NA
b2d7b,Save data screen,canvas.Screen,1_3_0_1,NA,NA,timeout,500,41118,41128,41145,41628,41629,2023-11-13T07:31:40Z,41645,Sänger,mwimbaji,d,msichana,shughuli,mshirika,NA,NA,0,NULL,NA,NA,NA,NA,NA,NA,NA,NA,NA,NA,NA,NA,NA,NA,NA,NA,NA,NA,NA
b2d7b,deep,flow.Sequence,1_3_0,NA,NA,completion,7500,34113,34112,34128,41628,41629,2023-11-13T07:31:40Z,41645,Sänger,mwimbaji,d,msichana,shughuli,mshirika,NA,NA,NA,NULL,NA,NA,NA,NA,NA,NA,NA,NA,NA,NA,NA,NA,NA,NA,NA,NA,NA,NA,NA
b2d7b,task,flow.Sequence,1_3,NA,NA,completion,7500,34113,34112,34128,41628,41630,2023-11-13T07:31:40Z,41645,Sänger,mwimbaji,d,msichana,shughuli,mshirika,NA,NA,NA,NULL,NA,NA,NA,NA,NA,NA,NA,NA,NA,NA,NA,NA,NA,NA,NA,NA,NA,NA,NA
b2d7b,Deep Question,html.Page,1_4_0_0,NA,NA,form submission,3345,41630,41628,41645,44990,44991,2023-11-13T07:31:44Z,45028,Kanzler,diwani,s,rasilmali,mahitaji,maabudu,diwani,NA,NA,NULL,NA,NA,NA,NA,NA,NA,NA,NA,NA,NA,NA,NA,NA,NA,NA,NA,NA,NA,NA
b2d7b,Save data screen,canvas.Screen,1_4_0_1,NA,NA,timeout,500,44992,45011,45028,45511,45513,2023-11-13T07:31:44Z,45528,Kanzler,diwani,s,rasilmali,mahitaji,maabudu,NA,NA,1,NULL,NA,NA,NA,NA,NA,NA,NA,NA,NA,NA,NA,NA,NA,NA,NA,NA,NA,NA,NA
b2d7b,deep,flow.Sequence,1_4_0,NA,NA,completion,3866,41630,41628,41645,45511,45514,2023-11-13T07:31:44Z,45528,Kanzler,diwani,s,rasilmali,mahitaji,maabudu,NA,NA,NA,NULL,NA,NA,NA,NA,NA,NA,NA,NA,NA,NA,NA,NA,NA,NA,NA,NA,NA,NA,NA
b2d7b,task,flow.Sequence,1_4,NA,NA,completion,3866,41630,41628,41645,45511,45514,2023-11-13T07:31:44Z,45528,Kanzler,diwani,s,rasilmali,mahitaji,maabudu,NA,NA,NA,NULL,NA,NA,NA,NA,NA,NA,NA,NA,NA,NA,NA,NA,NA,NA,NA,NA,NA,NA,NA
b2d7b,Deep Question,html.Page,1_5_0_0,NA,NA,form submission,3596,45515,45511,45528,49124,49125,2023-11-13T07:31:48Z,49161,Prüfung,mtihani,d,mkulima,mtizamo,ufumbuzi,sofjeiwo,NA,NA,NULL,NA,NA,NA,NA,NA,NA,NA,NA,NA,NA,NA,NA,NA,NA,NA,NA,NA,NA,NA
b2d7b,Save data screen,canvas.Screen,1_5_0_1,NA,NA,timeout,500,49128,49144,49161,49645,49645,2023-11-13T07:31:48Z,49661,Prüfung,mtihani,d,mkulima,mtizamo,ufumbuzi,NA,NA,0,NULL,NA,NA,NA,NA,NA,NA,NA,NA,NA,NA,NA,NA,NA,NA,NA,NA,NA,NA,NA
b2d7b,deep,flow.Sequence,1_5_0,NA,NA,completion,4117,45515,45511,45528,49645,49646,2023-11-13T07:31:48Z,49661,Prüfung,mtihani,d,mkulima,mtizamo,ufumbuzi,NA,NA,NA,NULL,NA,NA,NA,NA,NA,NA,NA,NA,NA,NA,NA,NA,NA,NA,NA,NA,NA,NA,NA
b2d7b,task,flow.Sequence,1_5,NA,NA,completion,4117,45515,45511,45528,49645,49646,2023-11-13T07:31:48Z,49661,Prüfung,mtihani,d,mkulima,mtizamo,ufumbuzi,NA,NA,NA,NULL,NA,NA,NA,NA,NA,NA,NA,NA,NA,NA,NA,NA,NA,NA,NA,NA,NA,NA,NA
b2d7b,Deep Question,html.Page,1_6_0_0,NA,NA,form submission,2817,49646,49645,49661,52478,52479,2023-11-13T07:31:51Z,52512,Gefährdung,kuhatarisha,s,uchokozi,udhaifu,makorowezo,sdfoweifj,NA,NA,NULL,NA,NA,NA,NA,NA,NA,NA,NA,NA,NA,NA,NA,NA,NA,NA,NA,NA,NA,NA
b2d7b,Save data screen,canvas.Screen,1_6_0_1,NA,NA,timeout,499,52481,52495,52512,52995,52996,2023-11-13T07:31:52Z,53011,Gefährdung,kuhatarisha,s,uchokozi,udhaifu,makorowezo,NA,NA,0,NULL,NA,NA,NA,NA,NA,NA,NA,NA,NA,NA,NA,NA,NA,NA,NA,NA,NA,NA,NA
b2d7b,deep,flow.Sequence,1_6_0,NA,NA,completion,3334,49646,49645,49661,52995,52997,2023-11-13T07:31:52Z,53011,Gefährdung,kuhatarisha,s,uchokozi,udhaifu,makorowezo,NA,NA,NA,NULL,NA,NA,NA,NA,NA,NA,NA,NA,NA,NA,NA,NA,NA,NA,NA,NA,NA,NA,NA
b2d7b,task,flow.Sequence,1_6,NA,NA,completion,3334,49646,49645,49661,52995,52997,2023-11-13T07:31:52Z,53011,Gefährdung,kuhatarisha,s,uchokozi,udhaifu,makorowezo,NA,NA,NA,NULL,NA,NA,NA,NA,NA,NA,NA,NA,NA,NA,NA,NA,NA,NA,NA,NA,NA,NA,NA
b2d7b,Deep Question,html.Page,1_7_0_0,NA,NA,form submission,3127,52998,52995,53011,56138,56139,2023-11-13T07:31:55Z,56161,Können,unaweza,d,kiongozi,bustani,mienendo,kofmeiwjeo,NA,NA,NULL,NA,NA,NA,NA,NA,NA,NA,NA,NA,NA,NA,NA,NA,NA,NA,NA,NA,NA,NA
b2d7b,Save data screen,canvas.Screen,1_7_0_1,NA,NA,timeout,500,56141,56145,56161,56645,56645,2023-11-13T07:31:55Z,56661,Können,unaweza,d,kiongozi,bustani,mienendo,NA,NA,0,NULL,NA,NA,NA,NA,NA,NA,NA,NA,NA,NA,NA,NA,NA,NA,NA,NA,NA,NA,NA
b2d7b,deep,flow.Sequence,1_7_0,NA,NA,completion,3634,52998,52995,53011,56645,56646,2023-11-13T07:31:55Z,56661,Können,unaweza,d,kiongozi,bustani,mienendo,NA,NA,NA,NULL,NA,NA,NA,NA,NA,NA,NA,NA,NA,NA,NA,NA,NA,NA,NA,NA,NA,NA,NA
b2d7b,task,flow.Sequence,1_7,NA,NA,completion,3634,52998,52995,53011,56645,56647,2023-11-13T07:31:55Z,56661,Können,unaweza,d,kiongozi,bustani,mienendo,NA,NA,NA,NULL,NA,NA,NA,NA,NA,NA,NA,NA,NA,NA,NA,NA,NA,NA,NA,NA,NA,NA,NA
b2d7b,Deep Question,html.Page,1_8_0_0,NA,NA,form submission,3125,56647,56645,56661,59786,59787,2023-11-13T07:31:58Z,59827,Kreativität,ubunifu,d,mratibu,mwendelezo,makubaliano,sviemweoi,NA,NA,NULL,NA,NA,NA,NA,NA,NA,NA,NA,NA,NA,NA,NA,NA,NA,NA,NA,NA,NA,NA
b2d7b,Save data screen,canvas.Screen,1_8_0_1,NA,NA,timeout,500,59789,59811,59827,60311,60312,2023-11-13T07:31:59Z,60327,Kreativität,ubunifu,d,mratibu,mwendelezo,makubaliano,NA,NA,0,NULL,NA,NA,NA,NA,NA,NA,NA,NA,NA,NA,NA,NA,NA,NA,NA,NA,NA,NA,NA
b2d7b,deep,flow.Sequence,1_8_0,NA,NA,completion,3650,56647,56645,56661,60311,60313,2023-11-13T07:31:59Z,60327,Kreativität,ubunifu,d,mratibu,mwendelezo,makubaliano,NA,NA,NA,NULL,NA,NA,NA,NA,NA,NA,NA,NA,NA,NA,NA,NA,NA,NA,NA,NA,NA,NA,NA
b2d7b,task,flow.Sequence,1_8,NA,NA,completion,3650,56647,56645,56661,60311,60313,2023-11-13T07:31:59Z,60327,Kreativität,ubunifu,d,mratibu,mwendelezo,makubaliano,NA,NA,NA,NULL,NA,NA,NA,NA,NA,NA,NA,NA,NA,NA,NA,NA,NA,NA,NA,NA,NA,NA,NA
b2d7b,Deep Question,html.Page,1_9_0_0,NA,NA,form submission,3181,60313,60311,60327,63508,63508,2023-11-13T07:32:02Z,63544,Körper,kiwiliwili,s,mapambano,mpatanishi,kiolezo,sovoiweofi,NA,NA,NULL,NA,NA,NA,NA,NA,NA,NA,NA,NA,NA,NA,NA,NA,NA,NA,NA,NA,NA,NA
b2d7b,Save data screen,canvas.Screen,1_9_0_1,NA,NA,timeout,500,63509,63528,63544,64028,64029,2023-11-13T07:32:03Z,64044,Körper,kiwiliwili,s,mapambano,mpatanishi,kiolezo,NA,NA,0,NULL,NA,NA,NA,NA,NA,NA,NA,NA,NA,NA,NA,NA,NA,NA,NA,NA,NA,NA,NA
b2d7b,deep,flow.Sequence,1_9_0,NA,NA,completion,3701,60313,60311,60327,64028,64030,2023-11-13T07:32:03Z,64044,Körper,kiwiliwili,s,mapambano,mpatanishi,kiolezo,NA,NA,NA,NULL,NA,NA,NA,NA,NA,NA,NA,NA,NA,NA,NA,NA,NA,NA,NA,NA,NA,NA,NA
b2d7b,task,flow.Sequence,1_9,NA,NA,completion,3701,60313,60311,60327,64028,64030,2023-11-13T07:32:03Z,64044,Körper,kiwiliwili,s,mapambano,mpatanishi,kiolezo,NA,NA,NA,NULL,NA,NA,NA,NA,NA,NA,NA,NA,NA,NA,NA,NA,NA,NA,NA,NA,NA,NA,NA
b2d7b,Deep Question,html.Page,1_10_0_0,NA,NA,form submission,8704,64030,64028,64044,72748,72749,2023-11-13T07:32:11Z,72795,Kontrolle,kudhibiti,s,mbinguni,kufunga,utegemezi,uwevieow,NA,NA,NULL,NA,NA,NA,NA,NA,NA,NA,NA,NA,NA,NA,NA,NA,NA,NA,NA,NA,NA,NA
b2d7b,Save data screen,canvas.Screen,1_10_0_1,NA,NA,timeout,499,72752,72778,72795,73278,73279,2023-11-13T07:32:12Z,73294,Kontrolle,kudhibiti,s,mbinguni,kufunga,utegemezi,NA,NA,0,NULL,NA,NA,NA,NA,NA,NA,NA,NA,NA,NA,NA,NA,NA,NA,NA,NA,NA,NA,NA
b2d7b,deep,flow.Sequence,1_10_0,NA,NA,completion,9234,64030,64028,64044,73278,73279,2023-11-13T07:32:12Z,73294,Kontrolle,kudhibiti,s,mbinguni,kufunga,utegemezi,NA,NA,NA,NULL,NA,NA,NA,NA,NA,NA,NA,NA,NA,NA,NA,NA,NA,NA,NA,NA,NA,NA,NA
b2d7b,task,flow.Sequence,1_10,NA,NA,completion,9234,64030,64028,64044,73278,73280,2023-11-13T07:32:12Z,73294,Kontrolle,kudhibiti,s,mbinguni,kufunga,utegemezi,NA,NA,NA,NULL,NA,NA,NA,NA,NA,NA,NA,NA,NA,NA,NA,NA,NA,NA,NA,NA,NA,NA,NA
b2d7b,Deep Question,html.Page,1_11_0_0,NA,NA,form submission,4856,73280,73278,73294,78150,78151,2023-11-13T07:32:17Z,78194,Abrechnung,uhasibu,s,kusahihisha,mpambano,mashambulizi,vomwdmki,NA,NA,NULL,NA,NA,NA,NA,NA,NA,NA,NA,NA,NA,NA,NA,NA,NA,NA,NA,NA,NA,NA
b2d7b,Save data screen,canvas.Screen,1_11_0_1,NA,NA,timeout,501,78153,78178,78194,78678,78679,2023-11-13T07:32:17Z,78695,Abrechnung,uhasibu,s,kusahihisha,mpambano,mashambulizi,NA,NA,0,NULL,NA,NA,NA,NA,NA,NA,NA,NA,NA,NA,NA,NA,NA,NA,NA,NA,NA,NA,NA
b2d7b,deep,flow.Sequence,1_11_0,NA,NA,completion,5384,73280,73278,73294,78678,78680,2023-11-13T07:32:17Z,78695,Abrechnung,uhasibu,s,kusahihisha,mpambano,mashambulizi,NA,NA,NA,NULL,NA,NA,NA,NA,NA,NA,NA,NA,NA,NA,NA,NA,NA,NA,NA,NA,NA,NA,NA
b2d7b,task,flow.Sequence,1_11,NA,NA,completion,5384,73280,73278,73294,78678,78680,2023-11-13T07:32:17Z,78695,Abrechnung,uhasibu,s,kusahihisha,mpambano,mashambulizi,NA,NA,NA,NULL,NA,NA,NA,NA,NA,NA,NA,NA,NA,NA,NA,NA,NA,NA,NA,NA,NA,NA,NA
b2d7b,Deep Question,html.Page,1_12_0_0,NA,NA,form submission,4607,78680,78678,78695,83302,83302,2023-11-13T07:32:22Z,83328,System,maongozi,d,chokochoko,nuksani,mitaani,kiejlzio,NA,NA,NULL,NA,NA,NA,NA,NA,NA,NA,NA,NA,NA,NA,NA,NA,NA,NA,NA,NA,NA,NA
b2d7b,Save data screen,canvas.Screen,1_12_0_1,NA,NA,timeout,500,83303,83311,83328,83811,83812,2023-11-13T07:32:22Z,83828,System,maongozi,d,chokochoko,nuksani,mitaani,NA,NA,0,NULL,NA,NA,NA,NA,NA,NA,NA,NA,NA,NA,NA,NA,NA,NA,NA,NA,NA,NA,NA
b2d7b,deep,flow.Sequence,1_12_0,NA,NA,completion,5116,78680,78678,78695,83811,83813,2023-11-13T07:32:22Z,83828,System,maongozi,d,chokochoko,nuksani,mitaani,NA,NA,NA,NULL,NA,NA,NA,NA,NA,NA,NA,NA,NA,NA,NA,NA,NA,NA,NA,NA,NA,NA,NA
b2d7b,task,flow.Sequence,1_12,NA,NA,completion,5116,78680,78678,78695,83811,83813,2023-11-13T07:32:22Z,83828,System,maongozi,d,chokochoko,nuksani,mitaani,NA,NA,NA,NULL,NA,NA,NA,NA,NA,NA,NA,NA,NA,NA,NA,NA,NA,NA,NA,NA,NA,NA,NA
b2d7b,Deep Question,html.Page,1_13_0_0,NA,NA,form submission,4548,83814,83811,83828,88376,88377,2023-11-13T07:32:27Z,88411,Aufstand,ugomaji,d,mazidio,msingi,kujieleza,okvoweifke,NA,NA,NULL,NA,NA,NA,NA,NA,NA,NA,NA,NA,NA,NA,NA,NA,NA,NA,NA,NA,NA,NA
b2d7b,Save data screen,canvas.Screen,1_13_0_1,NA,NA,timeout,499,88379,88395,88411,88894,88895,2023-11-13T07:32:28Z,88910,Aufstand,ugomaji,d,mazidio,msingi,kujieleza,NA,NA,0,NULL,NA,NA,NA,NA,NA,NA,NA,NA,NA,NA,NA,NA,NA,NA,NA,NA,NA,NA,NA
b2d7b,deep,flow.Sequence,1_13_0,NA,NA,completion,5066,83814,83811,83828,88894,88896,2023-11-13T07:32:28Z,88910,Aufstand,ugomaji,d,mazidio,msingi,kujieleza,NA,NA,NA,NULL,NA,NA,NA,NA,NA,NA,NA,NA,NA,NA,NA,NA,NA,NA,NA,NA,NA,NA,NA
b2d7b,task,flow.Sequence,1_13,NA,NA,completion,5066,83814,83811,83828,88894,88896,2023-11-13T07:32:28Z,88910,Aufstand,ugomaji,d,mazidio,msingi,kujieleza,NA,NA,NA,NULL,NA,NA,NA,NA,NA,NA,NA,NA,NA,NA,NA,NA,NA,NA,NA,NA,NA,NA,NA
b2d7b,Deep Question,html.Page,1_14_0_0,NA,NA,form submission,3401,88897,88894,88910,92311,92312,2023-11-13T07:32:31Z,92344,Verzögerung,kuchelewa,s,mwakilishi,mwanauchumi,jaribio,ovmwefoekw,NA,NA,NULL,NA,NA,NA,NA,NA,NA,NA,NA,NA,NA,NA,NA,NA,NA,NA,NA,NA,NA,NA
b2d7b,Save data screen,canvas.Screen,1_14_0_1,NA,NA,timeout,501,92315,92328,92344,92828,92828,2023-11-13T07:32:32Z,92845,Verzögerung,kuchelewa,s,mwakilishi,mwanauchumi,jaribio,NA,NA,0,NULL,NA,NA,NA,NA,NA,NA,NA,NA,NA,NA,NA,NA,NA,NA,NA,NA,NA,NA,NA
b2d7b,deep,flow.Sequence,1_14_0,NA,NA,completion,3918,88897,88894,88910,92828,92829,2023-11-13T07:32:32Z,92845,Verzögerung,kuchelewa,s,mwakilishi,mwanauchumi,jaribio,NA,NA,NA,NULL,NA,NA,NA,NA,NA,NA,NA,NA,NA,NA,NA,NA,NA,NA,NA,NA,NA,NA,NA
b2d7b,task,flow.Sequence,1_14,NA,NA,completion,3918,88897,88894,88910,92828,92829,2023-11-13T07:32:32Z,92845,Verzögerung,kuchelewa,s,mwakilishi,mwanauchumi,jaribio,NA,NA,NA,NULL,NA,NA,NA,NA,NA,NA,NA,NA,NA,NA,NA,NA,NA,NA,NA,NA,NA,NA,NA
b2d7b,Deep Question,html.Page,1_15_0_0,NA,NA,form submission,5316,92829,92828,92845,98161,98162,2023-11-13T07:32:37Z,98194,Angreifer,mshambulizi,d,kitengo,tasinia,usafirishaji,vomsidkfoeq,NA,NA,NULL,NA,NA,NA,NA,NA,NA,NA,NA,NA,NA,NA,NA,NA,NA,NA,NA,NA,NA,NA
b2d7b,Save data screen,canvas.Screen,1_15_0_1,NA,NA,timeout,510,98164,98178,98194,98678,98679,2023-11-13T07:32:37Z,98704,Angreifer,mshambulizi,d,kitengo,tasinia,usafirishaji,NA,NA,0,NULL,NA,NA,NA,NA,NA,NA,NA,NA,NA,NA,NA,NA,NA,NA,NA,NA,NA,NA,NA
b2d7b,deep,flow.Sequence,1_15_0,NA,NA,completion,5833,92829,92828,92845,98678,98679,2023-11-13T07:32:37Z,98704,Angreifer,mshambulizi,d,kitengo,tasinia,usafirishaji,NA,NA,NA,NULL,NA,NA,NA,NA,NA,NA,NA,NA,NA,NA,NA,NA,NA,NA,NA,NA,NA,NA,NA
b2d7b,task,flow.Sequence,1_15,NA,NA,completion,5833,92829,92828,92845,98678,98680,2023-11-13T07:32:37Z,98704,Angreifer,mshambulizi,d,kitengo,tasinia,usafirishaji,NA,NA,NA,NULL,NA,NA,NA,NA,NA,NA,NA,NA,NA,NA,NA,NA,NA,NA,NA,NA,NA,NA,NA
b2d7b,retrieval block 1 (cued recall),flow.Loop,1,NA,NA,completion,85766,12878,12894,12912,98678,98680,2023-11-13T07:32:37Z,98704,NA,NA,NA,NA,NA,NA,NA,NA,NA,NULL,NA,NA,NA,NA,NA,NA,NA,NA,NA,NA,NA,NA,NA,NA,NA,NA,NA,NA,NA
b2d7b,Shallow Question,html.Page,2_0_0_0,NA,NA,form submission,4551,98681,98678,98704,103255,103255,2023-11-13T07:32:42Z,103277,Lawine,banguko,d,maambukizi,usuluhishi,chekechea,banguko,NA,NA,"c(""distractor1"", ""distractor2"", ""distractor3"")",NA,NA,NA,NA,NA,NA,NA,NA,NA,NA,NA,NA,NA,NA,NA,NA,NA,NA,NA
b2d7b,Save data screen,canvas.Screen,2_0_0_1,NA,NA,timeout,501,103256,103261,103277,103761,103762,2023-11-13T07:32:42Z,103778,Lawine,banguko,d,maambukizi,usuluhishi,chekechea,NA,NA,1,"c(""distractor1"", ""distractor2"", ""distractor3"")",NA,NA,NA,NA,NA,NA,NA,NA,NA,NA,NA,NA,NA,NA,NA,NA,NA,NA,NA
b2d7b,shallow,flow.Sequence,2_0_0,NA,NA,completion,5057,98681,98678,98704,103761,103762,2023-11-13T07:32:42Z,103778,Lawine,banguko,d,maambukizi,usuluhishi,chekechea,NA,NA,NA,"c(""distractor1"", ""distractor2"", ""distractor3"")",NA,NA,NA,NA,NA,NA,NA,NA,NA,NA,NA,NA,NA,NA,NA,NA,NA,NA,NA
b2d7b,task,flow.Sequence,2_0,NA,NA,completion,5057,98681,98678,98704,103761,103763,2023-11-13T07:32:42Z,103778,Lawine,banguko,d,maambukizi,usuluhishi,chekechea,NA,NA,NA,"c(""distractor1"", ""distractor2"", ""distractor3"")",NA,NA,NA,NA,NA,NA,NA,NA,NA,NA,NA,NA,NA,NA,NA,NA,NA,NA,NA
b2d7b,Shallow Question,html.Page,2_1_0_0,NA,NA,form submission,8223,103764,103761,103778,112001,112002,2023-11-13T07:32:51Z,112044,Abrechnung,uhasibu,s,kusahihisha,mpambano,mashambulizi,uhasibu,NA,NA,"c(""distractor1"", ""distractor2"", ""distractor3"")",NA,NA,NA,NA,NA,NA,NA,NA,NA,NA,NA,NA,NA,NA,NA,NA,NA,NA,NA
b2d7b,Save data screen,canvas.Screen,2_1_0_1,NA,NA,timeout,500,112003,112028,112044,112528,112528,2023-11-13T07:32:51Z,112544,Abrechnung,uhasibu,s,kusahihisha,mpambano,mashambulizi,NA,NA,1,"c(""distractor1"", ""distractor2"", ""distractor3"")",NA,NA,NA,NA,NA,NA,NA,NA,NA,NA,NA,NA,NA,NA,NA,NA,NA,NA,NA
b2d7b,shallow,flow.Sequence,2_1_0,NA,NA,completion,8750,103763,103761,103778,112528,112529,2023-11-13T07:32:51Z,112544,Abrechnung,uhasibu,s,kusahihisha,mpambano,mashambulizi,NA,NA,NA,"c(""distractor1"", ""distractor2"", ""distractor3"")",NA,NA,NA,NA,NA,NA,NA,NA,NA,NA,NA,NA,NA,NA,NA,NA,NA,NA,NA
b2d7b,task,flow.Sequence,2_1,NA,NA,completion,8750,103763,103761,103778,112528,112529,2023-11-13T07:32:51Z,112544,Abrechnung,uhasibu,s,kusahihisha,mpambano,mashambulizi,NA,NA,NA,"c(""distractor1"", ""distractor2"", ""distractor3"")",NA,NA,NA,NA,NA,NA,NA,NA,NA,NA,NA,NA,NA,NA,NA,NA,NA,NA,NA
b2d7b,Shallow Question,html.Page,2_2_0_0,NA,NA,form submission,5213,112530,112528,112544,117757,117757,2023-11-13T07:32:56Z,117776,Prüfung,mtihani,d,mkulima,mtizamo,ufumbuzi,mtihani,NA,NA,"c(""distractor1"", ""distractor2"", ""distractor3"")",NA,NA,NA,NA,NA,NA,NA,NA,NA,NA,NA,NA,NA,NA,NA,NA,NA,NA,NA
b2d7b,Save data screen,canvas.Screen,2_2_0_1,NA,NA,timeout,502,117758,117761,117776,118260,118261,2023-11-13T07:32:57Z,118278,Prüfung,mtihani,d,mkulima,mtizamo,ufumbuzi,NA,NA,1,"c(""distractor1"", ""distractor2"", ""distractor3"")",NA,NA,NA,NA,NA,NA,NA,NA,NA,NA,NA,NA,NA,NA,NA,NA,NA,NA,NA
b2d7b,shallow,flow.Sequence,2_2_0,NA,NA,completion,5716,112530,112528,112544,118260,118262,2023-11-13T07:32:57Z,118278,Prüfung,mtihani,d,mkulima,mtizamo,ufumbuzi,NA,NA,NA,"c(""distractor1"", ""distractor2"", ""distractor3"")",NA,NA,NA,NA,NA,NA,NA,NA,NA,NA,NA,NA,NA,NA,NA,NA,NA,NA,NA
b2d7b,task,flow.Sequence,2_2,NA,NA,completion,5716,112530,112528,112544,118260,118262,2023-11-13T07:32:57Z,118278,Prüfung,mtihani,d,mkulima,mtizamo,ufumbuzi,NA,NA,NA,"c(""distractor1"", ""distractor2"", ""distractor3"")",NA,NA,NA,NA,NA,NA,NA,NA,NA,NA,NA,NA,NA,NA,NA,NA,NA,NA,NA
b2d7b,Shallow Question,html.Page,2_3_0_0,NA,NA,form submission,5207,118262,118260,118278,123485,123485,2023-11-13T07:33:02Z,123511,Angreifer,mshambulizi,d,kitengo,tasinia,usafirishaji,mshambulizi,NA,NA,"c(""distractor1"", ""distractor2"", ""distractor3"")",NA,NA,NA,NA,NA,NA,NA,NA,NA,NA,NA,NA,NA,NA,NA,NA,NA,NA,NA
b2d7b,Save data screen,canvas.Screen,2_3_0_1,NA,NA,timeout,499,123486,123494,123511,123994,123998,2023-11-13T07:33:03Z,124010,Angreifer,mshambulizi,d,kitengo,tasinia,usafirishaji,NA,NA,1,"c(""distractor1"", ""distractor2"", ""distractor3"")",NA,NA,NA,NA,NA,NA,NA,NA,NA,NA,NA,NA,NA,NA,NA,NA,NA,NA,NA
b2d7b,shallow,flow.Sequence,2_3_0,NA,NA,completion,5716,118262,118260,118278,123994,123999,2023-11-13T07:33:03Z,124010,Angreifer,mshambulizi,d,kitengo,tasinia,usafirishaji,NA,NA,NA,"c(""distractor1"", ""distractor2"", ""distractor3"")",NA,NA,NA,NA,NA,NA,NA,NA,NA,NA,NA,NA,NA,NA,NA,NA,NA,NA,NA
b2d7b,task,flow.Sequence,2_3,NA,NA,completion,5716,118262,118260,118278,123994,123999,2023-11-13T07:33:03Z,124010,Angreifer,mshambulizi,d,kitengo,tasinia,usafirishaji,NA,NA,NA,"c(""distractor1"", ""distractor2"", ""distractor3"")",NA,NA,NA,NA,NA,NA,NA,NA,NA,NA,NA,NA,NA,NA,NA,NA,NA,NA,NA
b2d7b,Shallow Question,html.Page,2_4_0_0,NA,NA,form submission,2750,123999,123994,124010,126760,126760,2023-11-13T07:33:05Z,126777,Kanzler,diwani,s,rasilmali,mahitaji,maabudu,diwani,NA,NA,"c(""distractor1"", ""distractor2"", ""distractor3"")",NA,NA,NA,NA,NA,NA,NA,NA,NA,NA,NA,NA,NA,NA,NA,NA,NA,NA,NA
b2d7b,Save data screen,canvas.Screen,2_4_0_1,NA,NA,timeout,501,126762,126765,126777,127261,127261,2023-11-13T07:33:06Z,127278,Kanzler,diwani,s,rasilmali,mahitaji,maabudu,NA,NA,1,"c(""distractor1"", ""distractor2"", ""distractor3"")",NA,NA,NA,NA,NA,NA,NA,NA,NA,NA,NA,NA,NA,NA,NA,NA,NA,NA,NA
b2d7b,shallow,flow.Sequence,2_4_0,NA,NA,completion,3251,123999,123994,124010,127261,127262,2023-11-13T07:33:06Z,127278,Kanzler,diwani,s,rasilmali,mahitaji,maabudu,NA,NA,NA,"c(""distractor1"", ""distractor2"", ""distractor3"")",NA,NA,NA,NA,NA,NA,NA,NA,NA,NA,NA,NA,NA,NA,NA,NA,NA,NA,NA
b2d7b,task,flow.Sequence,2_4,NA,NA,completion,3251,123999,123994,124010,127261,127262,2023-11-13T07:33:06Z,127278,Kanzler,diwani,s,rasilmali,mahitaji,maabudu,NA,NA,NA,"c(""distractor1"", ""distractor2"", ""distractor3"")",NA,NA,NA,NA,NA,NA,NA,NA,NA,NA,NA,NA,NA,NA,NA,NA,NA,NA,NA
b2d7b,Shallow Question,html.Page,2_5_0_0,NA,NA,form submission,4786,127263,127261,127278,132064,132064,2023-11-13T07:33:11Z,132094,Verzögerung,kuchelewa,s,mwakilishi,mwanauchumi,jaribio,mwanauchumi,NA,NA,"c(""distractor1"", ""distractor2"", ""distractor3"")",NA,NA,NA,NA,NA,NA,NA,NA,NA,NA,NA,NA,NA,NA,NA,NA,NA,NA,NA
b2d7b,Save data screen,canvas.Screen,2_5_0_1,NA,NA,timeout,500,132066,132078,132094,132577,132578,2023-11-13T07:33:11Z,132594,Verzögerung,kuchelewa,s,mwakilishi,mwanauchumi,jaribio,NA,NA,0,"c(""distractor1"", ""distractor2"", ""distractor3"")",NA,NA,NA,NA,NA,NA,NA,NA,NA,NA,NA,NA,NA,NA,NA,NA,NA,NA,NA
b2d7b,shallow,flow.Sequence,2_5_0,NA,NA,completion,5299,127263,127261,127278,132577,132579,2023-11-13T07:33:11Z,132594,Verzögerung,kuchelewa,s,mwakilishi,mwanauchumi,jaribio,NA,NA,NA,"c(""distractor1"", ""distractor2"", ""distractor3"")",NA,NA,NA,NA,NA,NA,NA,NA,NA,NA,NA,NA,NA,NA,NA,NA,NA,NA,NA
b2d7b,task,flow.Sequence,2_5,NA,NA,completion,5299,127262,127261,127278,132577,132579,2023-11-13T07:33:11Z,132594,Verzögerung,kuchelewa,s,mwakilishi,mwanauchumi,jaribio,NA,NA,NA,"c(""distractor1"", ""distractor2"", ""distractor3"")",NA,NA,NA,NA,NA,NA,NA,NA,NA,NA,NA,NA,NA,NA,NA,NA,NA,NA,NA
b2d7b,Shallow Question,html.Page,2_6_0_0,NA,NA,form submission,3394,132579,132577,132594,135988,135989,2023-11-13T07:33:15Z,136010,Aufstand,ugomaji,d,mazidio,msingi,kujieleza,kujieleza,NA,NA,"c(""distractor1"", ""distractor2"", ""distractor3"")",NA,NA,NA,NA,NA,NA,NA,NA,NA,NA,NA,NA,NA,NA,NA,NA,NA,NA,NA
b2d7b,Save data screen,canvas.Screen,2_6_0_1,NA,NA,timeout,501,135990,135995,136010,136494,136495,2023-11-13T07:33:15Z,136511,Aufstand,ugomaji,d,mazidio,msingi,kujieleza,NA,NA,0,"c(""distractor1"", ""distractor2"", ""distractor3"")",NA,NA,NA,NA,NA,NA,NA,NA,NA,NA,NA,NA,NA,NA,NA,NA,NA,NA,NA
b2d7b,shallow,flow.Sequence,2_6_0,NA,NA,completion,3900,132579,132577,132594,136494,136495,2023-11-13T07:33:15Z,136511,Aufstand,ugomaji,d,mazidio,msingi,kujieleza,NA,NA,NA,"c(""distractor1"", ""distractor2"", ""distractor3"")",NA,NA,NA,NA,NA,NA,NA,NA,NA,NA,NA,NA,NA,NA,NA,NA,NA,NA,NA
b2d7b,task,flow.Sequence,2_6,NA,NA,completion,3900,132579,132577,132594,136494,136495,2023-11-13T07:33:15Z,136511,Aufstand,ugomaji,d,mazidio,msingi,kujieleza,NA,NA,NA,"c(""distractor1"", ""distractor2"", ""distractor3"")",NA,NA,NA,NA,NA,NA,NA,NA,NA,NA,NA,NA,NA,NA,NA,NA,NA,NA,NA
b2d7b,Shallow Question,html.Page,2_7_0_0,NA,NA,form submission,5346,136496,136494,136511,141857,141858,2023-11-13T07:33:21Z,141894,System,maongozi,d,chokochoko,nuksani,mitaani,maongozi,NA,NA,"c(""distractor1"", ""distractor2"", ""distractor3"")",NA,NA,NA,NA,NA,NA,NA,NA,NA,NA,NA,NA,NA,NA,NA,NA,NA,NA,NA
b2d7b,Save data screen,canvas.Screen,2_7_0_1,NA,NA,timeout,499,141860,141878,141894,142377,142378,2023-11-13T07:33:21Z,142393,System,maongozi,d,chokochoko,nuksani,mitaani,NA,NA,1,"c(""distractor1"", ""distractor2"", ""distractor3"")",NA,NA,NA,NA,NA,NA,NA,NA,NA,NA,NA,NA,NA,NA,NA,NA,NA,NA,NA
b2d7b,shallow,flow.Sequence,2_7_0,NA,NA,completion,5866,136496,136494,136511,142377,142379,2023-11-13T07:33:21Z,142393,System,maongozi,d,chokochoko,nuksani,mitaani,NA,NA,NA,"c(""distractor1"", ""distractor2"", ""distractor3"")",NA,NA,NA,NA,NA,NA,NA,NA,NA,NA,NA,NA,NA,NA,NA,NA,NA,NA,NA
b2d7b,task,flow.Sequence,2_7,NA,NA,completion,5866,136496,136494,136511,142377,142379,2023-11-13T07:33:21Z,142393,System,maongozi,d,chokochoko,nuksani,mitaani,NA,NA,NA,"c(""distractor1"", ""distractor2"", ""distractor3"")",NA,NA,NA,NA,NA,NA,NA,NA,NA,NA,NA,NA,NA,NA,NA,NA,NA,NA,NA
b2d7b,Shallow Question,html.Page,2_8_0_0,NA,NA,form submission,3019,142380,142377,142393,145412,145413,2023-11-13T07:33:24Z,145444,Kontrolle,kudhibiti,s,mbinguni,kufunga,utegemezi,kufunga,NA,NA,"c(""distractor1"", ""distractor2"", ""distractor3"")",NA,NA,NA,NA,NA,NA,NA,NA,NA,NA,NA,NA,NA,NA,NA,NA,NA,NA,NA
b2d7b,Save data screen,canvas.Screen,2_8_0_1,NA,NA,timeout,500,145414,145427,145444,145927,145928,2023-11-13T07:33:25Z,145944,Kontrolle,kudhibiti,s,mbinguni,kufunga,utegemezi,NA,NA,0,"c(""distractor1"", ""distractor2"", ""distractor3"")",NA,NA,NA,NA,NA,NA,NA,NA,NA,NA,NA,NA,NA,NA,NA,NA,NA,NA,NA
b2d7b,shallow,flow.Sequence,2_8_0,NA,NA,completion,3534,142380,142377,142393,145927,145928,2023-11-13T07:33:25Z,145944,Kontrolle,kudhibiti,s,mbinguni,kufunga,utegemezi,NA,NA,NA,"c(""distractor1"", ""distractor2"", ""distractor3"")",NA,NA,NA,NA,NA,NA,NA,NA,NA,NA,NA,NA,NA,NA,NA,NA,NA,NA,NA
b2d7b,task,flow.Sequence,2_8,NA,NA,completion,3534,142380,142377,142393,145927,145929,2023-11-13T07:33:25Z,145944,Kontrolle,kudhibiti,s,mbinguni,kufunga,utegemezi,NA,NA,NA,"c(""distractor1"", ""distractor2"", ""distractor3"")",NA,NA,NA,NA,NA,NA,NA,NA,NA,NA,NA,NA,NA,NA,NA,NA,NA,NA,NA
b2d7b,Shallow Question,html.Page,2_9_0_0,NA,NA,form submission,3970,145929,145927,145944,149914,149915,2023-11-13T07:33:29Z,149944,Gefährdung,kuhatarisha,s,uchokozi,udhaifu,makorowezo,kuhatarisha,NA,NA,"c(""distractor1"", ""distractor2"", ""distractor3"")",NA,NA,NA,NA,NA,NA,NA,NA,NA,NA,NA,NA,NA,NA,NA,NA,NA,NA,NA
b2d7b,Save data screen,canvas.Screen,2_9_0_1,NA,NA,timeout,500,149916,149927,149944,150427,150428,2023-11-13T07:33:29Z,150444,Gefährdung,kuhatarisha,s,uchokozi,udhaifu,makorowezo,NA,NA,1,"c(""distractor1"", ""distractor2"", ""distractor3"")",NA,NA,NA,NA,NA,NA,NA,NA,NA,NA,NA,NA,NA,NA,NA,NA,NA,NA,NA
b2d7b,shallow,flow.Sequence,2_9_0,NA,NA,completion,4483,145929,145927,145944,150427,150429,2023-11-13T07:33:29Z,150444,Gefährdung,kuhatarisha,s,uchokozi,udhaifu,makorowezo,NA,NA,NA,"c(""distractor1"", ""distractor2"", ""distractor3"")",NA,NA,NA,NA,NA,NA,NA,NA,NA,NA,NA,NA,NA,NA,NA,NA,NA,NA,NA
b2d7b,task,flow.Sequence,2_9,NA,NA,completion,4483,145929,145927,145944,150427,150429,2023-11-13T07:33:29Z,150444,Gefährdung,kuhatarisha,s,uchokozi,udhaifu,makorowezo,NA,NA,NA,"c(""distractor1"", ""distractor2"", ""distractor3"")",NA,NA,NA,NA,NA,NA,NA,NA,NA,NA,NA,NA,NA,NA,NA,NA,NA,NA,NA
b2d7b,Shallow Question,html.Page,2_10_0_0,NA,NA,form submission,5129,150429,150427,150444,155573,155573,2023-11-13T07:33:34Z,155594,Übersicht,kilindo,s,mgusano,chipukizi,kulinganisha,kulinganisha,NA,NA,"c(""distractor1"", ""distractor2"", ""distractor3"")",NA,NA,NA,NA,NA,NA,NA,NA,NA,NA,NA,NA,NA,NA,NA,NA,NA,NA,NA
b2d7b,Save data screen,canvas.Screen,2_10_0_1,NA,NA,timeout,499,155575,155577,155594,156077,156078,2023-11-13T07:33:35Z,156093,Übersicht,kilindo,s,mgusano,chipukizi,kulinganisha,NA,NA,0,"c(""distractor1"", ""distractor2"", ""distractor3"")",NA,NA,NA,NA,NA,NA,NA,NA,NA,NA,NA,NA,NA,NA,NA,NA,NA,NA,NA
b2d7b,shallow,flow.Sequence,2_10_0,NA,NA,completion,5633,150429,150427,150444,156077,156079,2023-11-13T07:33:35Z,156093,Übersicht,kilindo,s,mgusano,chipukizi,kulinganisha,NA,NA,NA,"c(""distractor1"", ""distractor2"", ""distractor3"")",NA,NA,NA,NA,NA,NA,NA,NA,NA,NA,NA,NA,NA,NA,NA,NA,NA,NA,NA
b2d7b,task,flow.Sequence,2_10,NA,NA,completion,5633,150429,150427,150444,156077,156079,2023-11-13T07:33:35Z,156093,Übersicht,kilindo,s,mgusano,chipukizi,kulinganisha,NA,NA,NA,"c(""distractor1"", ""distractor2"", ""distractor3"")",NA,NA,NA,NA,NA,NA,NA,NA,NA,NA,NA,NA,NA,NA,NA,NA,NA,NA,NA
b2d7b,Shallow Question,html.Page,2_11_0_0,NA,NA,form submission,5832,156080,156077,156093,161925,161926,2023-11-13T07:33:41Z,161961,Können,unaweza,d,kiongozi,bustani,mienendo,unaweza,NA,NA,"c(""distractor1"", ""distractor2"", ""distractor3"")",NA,NA,NA,NA,NA,NA,NA,NA,NA,NA,NA,NA,NA,NA,NA,NA,NA,NA,NA
b2d7b,Save data screen,canvas.Screen,2_11_0_1,NA,NA,timeout,500,161927,161944,161961,162444,162445,2023-11-13T07:33:41Z,162461,Können,unaweza,d,kiongozi,bustani,mienendo,NA,NA,1,"c(""distractor1"", ""distractor2"", ""distractor3"")",NA,NA,NA,NA,NA,NA,NA,NA,NA,NA,NA,NA,NA,NA,NA,NA,NA,NA,NA
b2d7b,shallow,flow.Sequence,2_11_0,NA,NA,completion,6351,156079,156077,156093,162444,162445,2023-11-13T07:33:41Z,162461,Können,unaweza,d,kiongozi,bustani,mienendo,NA,NA,NA,"c(""distractor1"", ""distractor2"", ""distractor3"")",NA,NA,NA,NA,NA,NA,NA,NA,NA,NA,NA,NA,NA,NA,NA,NA,NA,NA,NA
b2d7b,task,flow.Sequence,2_11,NA,NA,completion,6351,156079,156077,156093,162444,162446,2023-11-13T07:33:41Z,162461,Können,unaweza,d,kiongozi,bustani,mienendo,NA,NA,NA,"c(""distractor1"", ""distractor2"", ""distractor3"")",NA,NA,NA,NA,NA,NA,NA,NA,NA,NA,NA,NA,NA,NA,NA,NA,NA,NA,NA
b2d7b,Shallow Question,html.Page,2_12_0_0,NA,NA,form submission,4695,162446,162444,162461,167156,167156,2023-11-13T07:33:46Z,167177,Sänger,mwimbaji,d,msichana,shughuli,mshirika,mwimbaji,NA,NA,"c(""distractor1"", ""distractor2"", ""distractor3"")",NA,NA,NA,NA,NA,NA,NA,NA,NA,NA,NA,NA,NA,NA,NA,NA,NA,NA,NA
b2d7b,Save data screen,canvas.Screen,2_12_0_1,NA,NA,timeout,500,167158,167160,167177,167660,167660,2023-11-13T07:33:46Z,167677,Sänger,mwimbaji,d,msichana,shughuli,mshirika,NA,NA,1,"c(""distractor1"", ""distractor2"", ""distractor3"")",NA,NA,NA,NA,NA,NA,NA,NA,NA,NA,NA,NA,NA,NA,NA,NA,NA,NA,NA
b2d7b,shallow,flow.Sequence,2_12_0,NA,NA,completion,5199,162446,162444,162461,167660,167661,2023-11-13T07:33:46Z,167677,Sänger,mwimbaji,d,msichana,shughuli,mshirika,NA,NA,NA,"c(""distractor1"", ""distractor2"", ""distractor3"")",NA,NA,NA,NA,NA,NA,NA,NA,NA,NA,NA,NA,NA,NA,NA,NA,NA,NA,NA
b2d7b,task,flow.Sequence,2_12,NA,NA,completion,5199,162446,162444,162461,167660,167662,2023-11-13T07:33:46Z,167677,Sänger,mwimbaji,d,msichana,shughuli,mshirika,NA,NA,NA,"c(""distractor1"", ""distractor2"", ""distractor3"")",NA,NA,NA,NA,NA,NA,NA,NA,NA,NA,NA,NA,NA,NA,NA,NA,NA,NA,NA
b2d7b,Shallow Question,html.Page,2_13_0_0,NA,NA,form submission,5414,167662,167660,167677,173091,173092,2023-11-13T07:33:52Z,173127,Körper,kiwiliwili,s,mapambano,mpatanishi,kiolezo,kiwiliwili,NA,NA,"c(""distractor1"", ""distractor2"", ""distractor3"")",NA,NA,NA,NA,NA,NA,NA,NA,NA,NA,NA,NA,NA,NA,NA,NA,NA,NA,NA
b2d7b,Save data screen,canvas.Screen,2_13_0_1,NA,NA,timeout,500,173094,173111,173127,173610,173611,2023-11-13T07:33:52Z,173627,Körper,kiwiliwili,s,mapambano,mpatanishi,kiolezo,NA,NA,1,"c(""distractor1"", ""distractor2"", ""distractor3"")",NA,NA,NA,NA,NA,NA,NA,NA,NA,NA,NA,NA,NA,NA,NA,NA,NA,NA,NA
b2d7b,shallow,flow.Sequence,2_13_0,NA,NA,completion,5933,167662,167660,167677,173610,173612,2023-11-13T07:33:52Z,173627,Körper,kiwiliwili,s,mapambano,mpatanishi,kiolezo,NA,NA,NA,"c(""distractor1"", ""distractor2"", ""distractor3"")",NA,NA,NA,NA,NA,NA,NA,NA,NA,NA,NA,NA,NA,NA,NA,NA,NA,NA,NA
b2d7b,task,flow.Sequence,2_13,NA,NA,completion,5933,167662,167660,167677,173610,173612,2023-11-13T07:33:52Z,173627,Körper,kiwiliwili,s,mapambano,mpatanishi,kiolezo,NA,NA,NA,"c(""distractor1"", ""distractor2"", ""distractor3"")",NA,NA,NA,NA,NA,NA,NA,NA,NA,NA,NA,NA,NA,NA,NA,NA,NA,NA,NA
b2d7b,Shallow Question,html.Page,2_14_0_0,NA,NA,form submission,4835,173613,173610,173627,178462,178462,2023-11-13T07:33:57Z,178494,Kultur,utamaduni,s,shetani,gerezani,mazingira,utamaduni,NA,NA,"c(""distractor1"", ""distractor2"", ""distractor3"")",NA,NA,NA,NA,NA,NA,NA,NA,NA,NA,NA,NA,NA,NA,NA,NA,NA,NA,NA
b2d7b,Save data screen,canvas.Screen,2_14_0_1,NA,NA,timeout,499,178464,178477,178494,178977,178978,2023-11-13T07:33:58Z,178993,Kultur,utamaduni,s,shetani,gerezani,mazingira,NA,NA,1,"c(""distractor1"", ""distractor2"", ""distractor3"")",NA,NA,NA,NA,NA,NA,NA,NA,NA,NA,NA,NA,NA,NA,NA,NA,NA,NA,NA
b2d7b,shallow,flow.Sequence,2_14_0,NA,NA,completion,5350,173613,173610,173627,178977,178978,2023-11-13T07:33:58Z,178993,Kultur,utamaduni,s,shetani,gerezani,mazingira,NA,NA,NA,"c(""distractor1"", ""distractor2"", ""distractor3"")",NA,NA,NA,NA,NA,NA,NA,NA,NA,NA,NA,NA,NA,NA,NA,NA,NA,NA,NA
b2d7b,task,flow.Sequence,2_14,NA,NA,completion,5350,173613,173610,173627,178977,178979,2023-11-13T07:33:58Z,178993,Kultur,utamaduni,s,shetani,gerezani,mazingira,NA,NA,NA,"c(""distractor1"", ""distractor2"", ""distractor3"")",NA,NA,NA,NA,NA,NA,NA,NA,NA,NA,NA,NA,NA,NA,NA,NA,NA,NA,NA
b2d7b,Shallow Question,html.Page,2_15_0_0,NA,NA,form submission,5858,178979,178977,178993,184851,184851,2023-11-13T07:34:04Z,184894,Kreativität,ubunifu,d,mratibu,mwendelezo,makubaliano,mwendelezo,NA,NA,"c(""distractor1"", ""distractor2"", ""distractor3"")",NA,NA,NA,NA,NA,NA,NA,NA,NA,NA,NA,NA,NA,NA,NA,NA,NA,NA,NA
b2d7b,Save data screen,canvas.Screen,2_15_0_1,NA,NA,timeout,500,184853,184877,184894,185377,185378,2023-11-13T07:34:04Z,185394,Kreativität,ubunifu,d,mratibu,mwendelezo,makubaliano,NA,NA,0,"c(""distractor1"", ""distractor2"", ""distractor3"")",NA,NA,NA,NA,NA,NA,NA,NA,NA,NA,NA,NA,NA,NA,NA,NA,NA,NA,NA
b2d7b,shallow,flow.Sequence,2_15_0,NA,NA,completion,6384,178979,178977,178993,185377,185378,2023-11-13T07:34:04Z,185394,Kreativität,ubunifu,d,mratibu,mwendelezo,makubaliano,NA,NA,NA,"c(""distractor1"", ""distractor2"", ""distractor3"")",NA,NA,NA,NA,NA,NA,NA,NA,NA,NA,NA,NA,NA,NA,NA,NA,NA,NA,NA
b2d7b,task,flow.Sequence,2_15,NA,NA,completion,6384,178979,178977,178993,185377,185378,2023-11-13T07:34:04Z,185394,Kreativität,ubunifu,d,mratibu,mwendelezo,makubaliano,NA,NA,NA,"c(""distractor1"", ""distractor2"", ""distractor3"")",NA,NA,NA,NA,NA,NA,NA,NA,NA,NA,NA,NA,NA,NA,NA,NA,NA,NA,NA
b2d7b,retrieval block 2 (multiple choice),flow.Loop,2,NA,NA,completion,86673,98680,98678,98704,185377,185378,2023-11-13T07:34:04Z,185394,NA,NA,NA,NA,NA,NA,NA,NA,NA,"c(""distractor1"", ""distractor2"", ""distractor3"")",NA,NA,NA,NA,NA,NA,NA,NA,NA,NA,NA,NA,NA,NA,NA,NA,NA,NA,NA
b2d7b,End,canvas.Screen,3,NA,keypress(Space),response,2223,185378,185377,185394,187600,187545,2023-11-13T07:34:06Z,187577,NA,NA,NA,NA,NA,NA,NA,NA,NA,NULL,NA,NA,NA,NA,NA,NA,NA,NA,NA,NA,NA,NA,NA,NA,NA,NA,NA,NA,NA
b2d7b,root,flow.Sequence,NA,NA,NA,completion,187238,323,325,362,187600,187546,2023-11-13T07:34:06Z,187577,NA,NA,NA,NA,NA,NA,NA,NA,NA,NULL,NA,NA,NA,NA,NA,NA,NA,NA,NA,NA,NA,NA,NA,NA,NA,NA,NA,NA,NA
