observation,sender,sender_type,sender_id,response,response_action,ended_on,duration,time_run,time_render,time_show,time_end,time_commit,timestamp,time_switch,distractors,german,swahili,enc,distractor1,distractor2,distractor3,response_2,x,correct,x_2,url_vp,url_sess,meta_labjs_version,meta_location,meta_user_agent,meta_platform,meta_language,meta_locale,meta_time_zone,meta_timezone_offset,meta_screen_width,meta_screen_height,meta_scroll_width,meta_scroll_height,meta_window_inner_width,meta_window_inner_height,meta_device_pixel_ratio,meta_labjs_build_flavor,meta_labjs_build_commit
1ea2d,Introduction general,canvas.Screen,0,weiter,keypress(q),response,30663.547,892.30000000447,902.144,935.453,31599,31601.300000004,2023-11-14T12:25:52Z,31616.822,NULL,NA,NA,NA,NA,NA,NA,NA,NA,NA,NA,134,3,20.2.4,https://neurocog.fernuni.ch/studies/vweber/aberisha/encoding_immediate/index.html?vp=134&sess=3,"Mozilla/5.0 (Windows NT 10.0; Win64; x64) AppleWebKit/537.36 (KHTML, like Gecko) Chrome/119.0.0.0 Safari/537.36",Win32,de-DE,de,Europe/Zurich,-60,1739,979,1740,774,1740,822,1.1041666269302,production,f5b4a49f956347addd546a832a3327688c2c0fef
1ea2d,Introduction practice,canvas.Screen,1_0,NA,keypress(Space),response,10047.178,31602,31602.066,31616.822,41664,41664.899999999,2023-11-14T12:26:02Z,41677.693,NULL,NA,NA,NA,NA,NA,NA,NA,NA,NA,NA,NA,NA,NA,NA,NA,NA,NA,NA,NA,NA,NA,NA,NA,NA,NA,NA,NA,NA,NA
1ea2d,Deep Question,html.Page,1_1_0_0_0,NA,NA,form submission,5886.1070000045,41665.399999999,41651.701,41677.693,47563.800000004,47564.200000003,2023-11-14T12:26:08Z,47573.686,"c(""distractor1"", ""distractor2"", ""distractor3"")",Schatten,kivuli,d,NA,NA,NA,zulu,NA,NA,NA,NA,NA,NA,NA,NA,NA,NA,NA,NA,NA,NA,NA,NA,NA,NA,NA,NA,NA,NA
1ea2d,"""Richtig""-Screen",canvas.Screen,1_1_0_0_1,NA,NA,skipped,NA,47565.899999999,NA,NA,47563.800000004,47566.300000004,2023-11-14T12:26:08Z,47573.686,"c(""distractor1"", ""distractor2"", ""distractor3"")",Schatten,kivuli,d,NA,NA,NA,NA,NA,NA,NA,NA,NA,NA,NA,NA,NA,NA,NA,NA,NA,NA,NA,NA,NA,NA,NA,NA,NA,NA
1ea2d,"""Falsch""-Screen",canvas.Screen,1_1_0_0_2,NA,NA,timeout,4996.99,47567.700000003,47558.211,47573.686,52554.388,52555.800000004,2023-11-14T12:26:13Z,52570.676,"c(""distractor1"", ""distractor2"", ""distractor3"")",Schatten,kivuli,d,NA,NA,NA,NA,NA,0,NA,NA,NA,NA,NA,NA,NA,NA,NA,NA,NA,NA,NA,NA,NA,NA,NA,NA,NA,NA
1ea2d,deep,flow.Sequence,1_1_0_0,NA,NA,completion,10876.695,41665.399999999,41651.701,41677.693,52554.388,52556.5,2023-11-14T12:26:13Z,52570.676,"c(""distractor1"", ""distractor2"", ""distractor3"")",Schatten,kivuli,d,NA,NA,NA,NA,NA,NA,NA,NA,NA,NA,NA,NA,NA,NA,NA,NA,NA,NA,NA,NA,NA,NA,NA,NA,NA,NA
1ea2d,shallow,flow.Sequence,1_1_0_1,NA,NA,skipped,NA,52556.700000003,NA,NA,52554.388,52557,2023-11-14T12:26:13Z,52570.676,"c(""distractor1"", ""distractor2"", ""distractor3"")",Schatten,kivuli,d,NA,NA,NA,NA,NA,NA,NA,NA,NA,NA,NA,NA,NA,NA,NA,NA,NA,NA,NA,NA,NA,NA,NA,NA,NA,NA
1ea2d,task,flow.Sequence,1_1_0,NA,NA,completion,10876.695,41665.300000004,41651.701,41677.693,52554.388,52557.300000004,2023-11-14T12:26:13Z,52570.676,"c(""distractor1"", ""distractor2"", ""distractor3"")",Schatten,kivuli,d,NA,NA,NA,NA,NA,NA,NA,NA,NA,NA,NA,NA,NA,NA,NA,NA,NA,NA,NA,NA,NA,NA,NA,NA,NA,NA
1ea2d,deep,flow.Sequence,1_1_1_0,NA,NA,skipped,NA,52557.700000003,NA,NA,52554.388,52557.899999999,2023-11-14T12:26:13Z,52570.676,"c(""distractor1"", ""distractor2"", ""distractor3"")",Rückhalt,msaada,s,muhula,auwali,kiwimbe,NA,NA,NA,NA,NA,NA,NA,NA,NA,NA,NA,NA,NA,NA,NA,NA,NA,NA,NA,NA,NA,NA,NA
1ea2d,Shallow Question,html.Page,1_1_1_1_0,NA,NA,form submission,5623.324,52558.200000003,52554.388,52570.676,58194,58194.300000004,2023-11-14T12:26:19Z,58200.505,"c(""distractor1"", ""distractor2"", ""distractor3"")",Rückhalt,msaada,s,muhula,auwali,kiwimbe,kiwimbe,NA,NA,NA,NA,NA,NA,NA,NA,NA,NA,NA,NA,NA,NA,NA,NA,NA,NA,NA,NA,NA,NA
1ea2d,"""Richtig""-Screen",canvas.Screen,1_1_1_1_1,NA,NA,skipped,NA,58195.700000003,NA,NA,58194,58196,2023-11-14T12:26:19Z,58200.505,"c(""distractor1"", ""distractor2"", ""distractor3"")",Rückhalt,msaada,s,muhula,auwali,kiwimbe,NA,NA,NA,NA,NA,NA,NA,NA,NA,NA,NA,NA,NA,NA,NA,NA,NA,NA,NA,NA,NA,NA,NA
1ea2d,"""Falsch""-Screen",canvas.Screen,1_1_1_1_2,NA,NA,timeout,4997.508,58197.200000003,58184.239,58200.505,63181.077,63182.100000001,2023-11-14T12:26:24Z,63198.013,"c(""distractor1"", ""distractor2"", ""distractor3"")",Rückhalt,msaada,s,muhula,auwali,kiwimbe,NA,NA,0,NA,NA,NA,NA,NA,NA,NA,NA,NA,NA,NA,NA,NA,NA,NA,NA,NA,NA,NA,NA
1ea2d,shallow,flow.Sequence,1_1_1_1,NA,NA,completion,10610.401,52558.100000001,52554.388,52570.676,63181.077,63182.600000001,2023-11-14T12:26:24Z,63198.013,"c(""distractor1"", ""distractor2"", ""distractor3"")",Rückhalt,msaada,s,muhula,auwali,kiwimbe,NA,NA,NA,NA,NA,NA,NA,NA,NA,NA,NA,NA,NA,NA,NA,NA,NA,NA,NA,NA,NA,NA,NA
1ea2d,task,flow.Sequence,1_1_1,NA,NA,completion,10610.401,52557.600000001,52554.388,52570.676,63181.077,63183.100000001,2023-11-14T12:26:24Z,63198.013,"c(""distractor1"", ""distractor2"", ""distractor3"")",Rückhalt,msaada,s,muhula,auwali,kiwimbe,NA,NA,NA,NA,NA,NA,NA,NA,NA,NA,NA,NA,NA,NA,NA,NA,NA,NA,NA,NA,NA,NA,NA
1ea2d,Deep Question,html.Page,1_1_2_0_0,NA,NA,form submission,3784.487,63183.300000004,63181.077,63198.013,66982.5,66982.800000004,2023-11-14T12:26:27Z,66995.178,"c(""distractor1"", ""distractor2"", ""distractor3"")",Qualität,mtindo,d,NA,NA,NA,ulu,NA,NA,NA,NA,NA,NA,NA,NA,NA,NA,NA,NA,NA,NA,NA,NA,NA,NA,NA,NA,NA,NA
1ea2d,"""Richtig""-Screen",canvas.Screen,1_1_2_0_1,NA,NA,skipped,NA,66986.100000001,NA,NA,66982.5,66986.399999999,2023-11-14T12:26:27Z,66995.178,"c(""distractor1"", ""distractor2"", ""distractor3"")",Qualität,mtindo,d,NA,NA,NA,NA,NA,NA,NA,NA,NA,NA,NA,NA,NA,NA,NA,NA,NA,NA,NA,NA,NA,NA,NA,NA,NA,NA
1ea2d,"""Falsch""-Screen",canvas.Screen,1_1_2_0_2,NA,NA,timeout,4997.39,66987.200000003,66979.505,66995.178,71975.597,71976.600000001,2023-11-14T12:26:32Z,71992.568,"c(""distractor1"", ""distractor2"", ""distractor3"")",Qualität,mtindo,d,NA,NA,NA,NA,NA,0,NA,NA,NA,NA,NA,NA,NA,NA,NA,NA,NA,NA,NA,NA,NA,NA,NA,NA,NA,NA
1ea2d,deep,flow.Sequence,1_1_2_0,NA,NA,completion,8777.584,63183.300000004,63181.077,63198.013,71975.597,71977.100000001,2023-11-14T12:26:32Z,71992.568,"c(""distractor1"", ""distractor2"", ""distractor3"")",Qualität,mtindo,d,NA,NA,NA,NA,NA,NA,NA,NA,NA,NA,NA,NA,NA,NA,NA,NA,NA,NA,NA,NA,NA,NA,NA,NA,NA,NA
1ea2d,shallow,flow.Sequence,1_1_2_1,NA,NA,skipped,NA,71977.300000004,NA,NA,71975.597,71977.5,2023-11-14T12:26:32Z,71992.568,"c(""distractor1"", ""distractor2"", ""distractor3"")",Qualität,mtindo,d,NA,NA,NA,NA,NA,NA,NA,NA,NA,NA,NA,NA,NA,NA,NA,NA,NA,NA,NA,NA,NA,NA,NA,NA,NA,NA
1ea2d,task,flow.Sequence,1_1_2,NA,NA,completion,8777.584,63183.200000003,63181.077,63198.013,71975.597,71977.800000004,2023-11-14T12:26:32Z,71992.568,"c(""distractor1"", ""distractor2"", ""distractor3"")",Qualität,mtindo,d,NA,NA,NA,NA,NA,NA,NA,NA,NA,NA,NA,NA,NA,NA,NA,NA,NA,NA,NA,NA,NA,NA,NA,NA,NA,NA
1ea2d,deep,flow.Sequence,1_1_3_0,NA,NA,skipped,NA,71978,NA,NA,71975.597,71978.200000003,2023-11-14T12:26:32Z,71992.568,"c(""distractor1"", ""distractor2"", ""distractor3"")",Kritik,lawama,s,dereva,nafasi,mawazo,NA,NA,NA,NA,NA,NA,NA,NA,NA,NA,NA,NA,NA,NA,NA,NA,NA,NA,NA,NA,NA,NA,NA
1ea2d,Shallow Question,html.Page,1_1_3_1_0,NA,NA,form submission,4619.132000003,71978.399999999,71975.597,71992.568,76611.700000003,76611.899999999,2023-11-14T12:26:37Z,76622.887,"c(""distractor1"", ""distractor2"", ""distractor3"")",Kritik,lawama,s,dereva,nafasi,mawazo,lawama,NA,NA,NA,NA,NA,NA,NA,NA,NA,NA,NA,NA,NA,NA,NA,NA,NA,NA,NA,NA,NA,NA
1ea2d,"""Richtig""-Screen",canvas.Screen,1_1_3_1_1,NA,NA,timeout,4997.061,76613.700000003,76608.439,76622.887,81603.295,81604.300000004,2023-11-14T12:26:42Z,81619.948,"c(""distractor1"", ""distractor2"", ""distractor3"")",Kritik,lawama,s,dereva,nafasi,mawazo,NA,NA,1,NA,NA,NA,NA,NA,NA,NA,NA,NA,NA,NA,NA,NA,NA,NA,NA,NA,NA,NA,NA
1ea2d,"""Falsch""-Screen",canvas.Screen,1_1_3_1_2,NA,NA,skipped,NA,81609.800000004,NA,NA,81603.295,81609.899999999,2023-11-14T12:26:42Z,81619.948,"c(""distractor1"", ""distractor2"", ""distractor3"")",Kritik,lawama,s,dereva,nafasi,mawazo,NA,NA,NA,NA,NA,NA,NA,NA,NA,NA,NA,NA,NA,NA,NA,NA,NA,NA,NA,NA,NA,NA,NA
1ea2d,shallow,flow.Sequence,1_1_3_1,NA,NA,completion,9610.727,71978.300000004,71975.597,71992.568,81603.295,81610,2023-11-14T12:26:42Z,81619.948,"c(""distractor1"", ""distractor2"", ""distractor3"")",Kritik,lawama,s,dereva,nafasi,mawazo,NA,NA,NA,NA,NA,NA,NA,NA,NA,NA,NA,NA,NA,NA,NA,NA,NA,NA,NA,NA,NA,NA,NA
1ea2d,task,flow.Sequence,1_1_3,NA,NA,completion,9610.727,71978,71975.597,71992.568,81603.295,81610.100000001,2023-11-14T12:26:42Z,81619.948,"c(""distractor1"", ""distractor2"", ""distractor3"")",Kritik,lawama,s,dereva,nafasi,mawazo,NA,NA,NA,NA,NA,NA,NA,NA,NA,NA,NA,NA,NA,NA,NA,NA,NA,NA,NA,NA,NA,NA,NA
1ea2d,deep,flow.Sequence,1_1_4_0,NA,NA,skipped,NA,81610.200000003,NA,NA,81603.295,81610.200000003,2023-11-14T12:26:42Z,81619.948,"c(""distractor1"", ""distractor2"", ""distractor3"")",Gegenwart,hadhara,s,katiba,jokofu,mikopo,NA,NA,NA,NA,NA,NA,NA,NA,NA,NA,NA,NA,NA,NA,NA,NA,NA,NA,NA,NA,NA,NA,NA
1ea2d,Shallow Question,html.Page,1_1_4_1_0,NA,NA,form submission,3802.3520000045,81610.200000003,81603.295,81619.948,85422.300000004,85422.700000003,2023-11-14T12:26:46Z,85434.14,"c(""distractor1"", ""distractor2"", ""distractor3"")",Gegenwart,hadhara,s,katiba,jokofu,mikopo,mikopo,NA,NA,NA,NA,NA,NA,NA,NA,NA,NA,NA,NA,NA,NA,NA,NA,NA,NA,NA,NA,NA,NA
1ea2d,"""Richtig""-Screen",canvas.Screen,1_1_4_1_1,NA,NA,skipped,NA,85425.600000001,NA,NA,85422.300000004,85425.800000004,2023-11-14T12:26:46Z,85434.14,"c(""distractor1"", ""distractor2"", ""distractor3"")",Gegenwart,hadhara,s,katiba,jokofu,mikopo,NA,NA,NA,NA,NA,NA,NA,NA,NA,NA,NA,NA,NA,NA,NA,NA,NA,NA,NA,NA,NA,NA,NA
1ea2d,"""Falsch""-Screen",canvas.Screen,1_1_4_1_2,NA,NA,timeout,4996.909,85426.700000003,85418.073,85434.14,90414.601,90415.600000001,2023-11-14T12:26:51Z,90431.049,"c(""distractor1"", ""distractor2"", ""distractor3"")",Gegenwart,hadhara,s,katiba,jokofu,mikopo,NA,NA,0,NA,NA,NA,NA,NA,NA,NA,NA,NA,NA,NA,NA,NA,NA,NA,NA,NA,NA,NA,NA
1ea2d,shallow,flow.Sequence,1_1_4_1,NA,NA,completion,8794.653,81610.200000003,81603.295,81619.948,90414.601,90415.899999999,2023-11-14T12:26:51Z,90431.049,"c(""distractor1"", ""distractor2"", ""distractor3"")",Gegenwart,hadhara,s,katiba,jokofu,mikopo,NA,NA,NA,NA,NA,NA,NA,NA,NA,NA,NA,NA,NA,NA,NA,NA,NA,NA,NA,NA,NA,NA,NA
1ea2d,task,flow.Sequence,1_1_4,NA,NA,completion,8794.653,81610.200000003,81603.295,81619.948,90414.601,90416.100000001,2023-11-14T12:26:51Z,90431.049,"c(""distractor1"", ""distractor2"", ""distractor3"")",Gegenwart,hadhara,s,katiba,jokofu,mikopo,NA,NA,NA,NA,NA,NA,NA,NA,NA,NA,NA,NA,NA,NA,NA,NA,NA,NA,NA,NA,NA,NA,NA
1ea2d,Deep Question,html.Page,1_1_5_0_0,NA,NA,form submission,2678.0510000015,90416.399999999,90414.601,90431.049,93109.100000001,93109.300000004,2023-11-14T12:26:53Z,93112.571,"c(""distractor1"", ""distractor2"", ""distractor3"")",Gesundheit,salama,d,NA,NA,NA,lo,NA,NA,NA,NA,NA,NA,NA,NA,NA,NA,NA,NA,NA,NA,NA,NA,NA,NA,NA,NA,NA,NA
1ea2d,"""Richtig""-Screen",canvas.Screen,1_1_5_0_1,NA,NA,skipped,NA,93112.300000004,NA,NA,93109.100000001,93112.5,2023-11-14T12:26:53Z,93112.571,"c(""distractor1"", ""distractor2"", ""distractor3"")",Gesundheit,salama,d,NA,NA,NA,NA,NA,NA,NA,NA,NA,NA,NA,NA,NA,NA,NA,NA,NA,NA,NA,NA,NA,NA,NA,NA,NA,NA
1ea2d,"""Falsch""-Screen",canvas.Screen,1_1_5_0_2,NA,NA,timeout,4997.025,93113.399999999,93097.716,93112.571,98093.21,98094.100000001,2023-11-14T12:26:58Z,98109.596,"c(""distractor1"", ""distractor2"", ""distractor3"")",Gesundheit,salama,d,NA,NA,NA,NA,NA,0,NA,NA,NA,NA,NA,NA,NA,NA,NA,NA,NA,NA,NA,NA,NA,NA,NA,NA,NA,NA
1ea2d,deep,flow.Sequence,1_1_5_0,NA,NA,completion,7662.161,90416.300000004,90414.601,90431.049,98093.21,98094.5,2023-11-14T12:26:58Z,98109.596,"c(""distractor1"", ""distractor2"", ""distractor3"")",Gesundheit,salama,d,NA,NA,NA,NA,NA,NA,NA,NA,NA,NA,NA,NA,NA,NA,NA,NA,NA,NA,NA,NA,NA,NA,NA,NA,NA,NA
1ea2d,shallow,flow.Sequence,1_1_5_1,NA,NA,skipped,NA,98094.600000001,NA,NA,98093.21,98094.700000003,2023-11-14T12:26:58Z,98109.596,"c(""distractor1"", ""distractor2"", ""distractor3"")",Gesundheit,salama,d,NA,NA,NA,NA,NA,NA,NA,NA,NA,NA,NA,NA,NA,NA,NA,NA,NA,NA,NA,NA,NA,NA,NA,NA,NA,NA
1ea2d,task,flow.Sequence,1_1_5,NA,NA,completion,7662.161,90416.300000004,90414.601,90431.049,98093.21,98094.899999999,2023-11-14T12:26:58Z,98109.596,"c(""distractor1"", ""distractor2"", ""distractor3"")",Gesundheit,salama,d,NA,NA,NA,NA,NA,NA,NA,NA,NA,NA,NA,NA,NA,NA,NA,NA,NA,NA,NA,NA,NA,NA,NA,NA,NA,NA
1ea2d,block,flow.Loop,1_1,NA,NA,completion,56415.517,41665.200000003,41651.701,41677.693,98093.21,98095.300000004,2023-11-14T12:26:58Z,98109.596,"c(""distractor1"", ""distractor2"", ""distractor3"")",NA,NA,NA,NA,NA,NA,NA,NA,NA,NA,NA,NA,NA,NA,NA,NA,NA,NA,NA,NA,NA,NA,NA,NA,NA,NA,NA,NA,NA
1ea2d,Practice,flow.Sequence,1,NA,NA,completion,66476.388,31601.899999999,31602.066,31616.822,98093.21,98095.5,2023-11-14T12:26:58Z,98109.596,NULL,NA,NA,NA,NA,NA,NA,NA,NA,NA,NA,NA,NA,NA,NA,NA,NA,NA,NA,NA,NA,NA,NA,NA,NA,NA,NA,NA,NA,NA
1ea2d,Experiment start,canvas.Screen,2,weiter,keypress(q),response,21205.303999999,98095.600000001,98093.21,98109.596,119314.9,119315.8,2023-11-14T12:27:20Z,119396.792,NULL,NA,NA,NA,NA,NA,NA,NA,NA,NA,NA,NA,NA,NA,NA,NA,NA,NA,NA,NA,NA,NA,NA,NA,NA,NA,NA,NA,NA,NA
1ea2d,Deep Question,html.Page,3_0_0_0_0_0_0,NA,NA,form submission,4745.408000003,119379.3,119374.396,119396.792,124142.2,124142.5,2023-11-14T12:27:25Z,124143.66,NULL,Aufstand,ugomaji,d,NA,NA,NA,ol,NA,NA,0,NA,NA,NA,NA,NA,NA,NA,NA,NA,NA,NA,NA,NA,NA,NA,NA,NA,NA,NA
1ea2d,"""Richtig""-Screen",canvas.Screen,3_0_0_0_0_0_1,NA,NA,skipped,NA,124145.6,NA,NA,124142.2,124145.8,2023-11-14T12:27:25Z,124143.66,NULL,Aufstand,ugomaji,d,NA,NA,NA,NA,sdf,NA,0,NA,NA,NA,NA,NA,NA,NA,NA,NA,NA,NA,NA,NA,NA,NA,NA,NA,NA,NA
1ea2d,"""Falsch""-Screen",canvas.Screen,3_0_0_0_0_0_2,NA,NA,timeout,4997.08,124146.5,124127.443,124143.66,129124.275,129125.6,2023-11-14T12:27:30Z,129140.74,NULL,Aufstand,ugomaji,d,NA,NA,NA,NA,sdf,0,0,NA,NA,NA,NA,NA,NA,NA,NA,NA,NA,NA,NA,NA,NA,NA,NA,NA,NA,NA
1ea2d,deep,flow.Sequence,3_0_0_0_0_0,NA,NA,completion,9727.483,119379.3,119374.396,119396.792,129124.275,129126,2023-11-14T12:27:30Z,129140.74,NULL,Aufstand,ugomaji,d,NA,NA,NA,NA,sdf,NA,0,NA,NA,NA,NA,NA,NA,NA,NA,NA,NA,NA,NA,NA,NA,NA,NA,NA,NA,NA
1ea2d,shallow,flow.Sequence,3_0_0_0_0_1,NA,NA,skipped,NA,129126.1,NA,NA,129124.275,129126.3,2023-11-14T12:27:30Z,129140.74,NULL,Aufstand,ugomaji,d,NA,NA,NA,NA,sdf,NA,0,NA,NA,NA,NA,NA,NA,NA,NA,NA,NA,NA,NA,NA,NA,NA,NA,NA,NA,NA
1ea2d,task,flow.Sequence,3_0_0_0_0,NA,NA,completion,9727.483,119379.2,119374.396,119396.792,129124.275,129126.5,2023-11-14T12:27:30Z,129140.74,NULL,Aufstand,ugomaji,d,NA,NA,NA,NA,sdf,NA,0,NA,NA,NA,NA,NA,NA,NA,NA,NA,NA,NA,NA,NA,NA,NA,NA,NA,NA,NA
1ea2d,Deep Question,html.Page,3_0_0_0_1_0_0,NA,NA,form submission,3047.0600000045,129126.7,129124.275,129140.74,132187.8,132188,2023-11-14T12:27:33Z,132188.782,NULL,Integrität,uadilifu,d,NA,NA,NA,ik,NA,NA,0,NA,NA,NA,NA,NA,NA,NA,NA,NA,NA,NA,NA,NA,NA,NA,NA,NA,NA,NA
1ea2d,"""Richtig""-Screen",canvas.Screen,3_0_0_0_1_0_1,NA,NA,skipped,NA,132191.1,NA,NA,132187.8,132191.3,2023-11-14T12:27:33Z,132188.782,NULL,Integrität,uadilifu,d,NA,NA,NA,NA,sdf,NA,0,NA,NA,NA,NA,NA,NA,NA,NA,NA,NA,NA,NA,NA,NA,NA,NA,NA,NA,NA
1ea2d,"""Falsch""-Screen",canvas.Screen,3_0_0_0_1_0_2,NA,NA,timeout,4997.552,132191.8,132173.435,132188.782,137169.643,137170.5,2023-11-14T12:27:38Z,137186.334,NULL,Integrität,uadilifu,d,NA,NA,NA,NA,sdf,0,0,NA,NA,NA,NA,NA,NA,NA,NA,NA,NA,NA,NA,NA,NA,NA,NA,NA,NA,NA
1ea2d,deep,flow.Sequence,3_0_0_0_1_0,NA,NA,completion,8028.903,129126.6,129124.275,129140.74,137169.643,137170.9,2023-11-14T12:27:38Z,137186.334,NULL,Integrität,uadilifu,d,NA,NA,NA,NA,sdf,NA,0,NA,NA,NA,NA,NA,NA,NA,NA,NA,NA,NA,NA,NA,NA,NA,NA,NA,NA,NA
1ea2d,shallow,flow.Sequence,3_0_0_0_1_1,NA,NA,skipped,NA,137171,NA,NA,137169.643,137171.2,2023-11-14T12:27:38Z,137186.334,NULL,Integrität,uadilifu,d,NA,NA,NA,NA,sdf,NA,0,NA,NA,NA,NA,NA,NA,NA,NA,NA,NA,NA,NA,NA,NA,NA,NA,NA,NA,NA
1ea2d,task,flow.Sequence,3_0_0_0_1,NA,NA,completion,8028.903,129126.6,129124.275,129140.74,137169.643,137171.4,2023-11-14T12:27:38Z,137186.334,NULL,Integrität,uadilifu,d,NA,NA,NA,NA,sdf,NA,0,NA,NA,NA,NA,NA,NA,NA,NA,NA,NA,NA,NA,NA,NA,NA,NA,NA,NA,NA
1ea2d,deep,flow.Sequence,3_0_0_0_2_0,NA,NA,skipped,NA,137171.6,NA,NA,137169.643,137171.7,2023-11-14T12:27:38Z,137186.334,NULL,Verzögerung,kuchelewa,s,mwakilishi,mwanauchumi,jaribio,NA,sdf,NA,0,NA,NA,NA,NA,NA,NA,NA,NA,NA,NA,NA,NA,NA,NA,NA,NA,NA,NA,NA
1ea2d,Shallow Question,html.Page,3_0_0_0_2_1_0,NA,NA,form submission,9194.2660000015,137171.9,137169.643,137186.334,146380.6,146380.8,2023-11-14T12:27:47Z,146397.249,NULL,Verzögerung,kuchelewa,s,mwakilishi,mwanauchumi,jaribio,jaribio,NA,NA,0,NA,NA,NA,NA,NA,NA,NA,NA,NA,NA,NA,NA,NA,NA,NA,NA,NA,NA,NA
1ea2d,"""Richtig""-Screen",canvas.Screen,3_0_0_0_2_1_1,NA,NA,skipped,NA,146384,NA,NA,146380.6,146384.1,2023-11-14T12:27:47Z,146397.249,NULL,Verzögerung,kuchelewa,s,mwakilishi,mwanauchumi,jaribio,NA,sdf,NA,0,NA,NA,NA,NA,NA,NA,NA,NA,NA,NA,NA,NA,NA,NA,NA,NA,NA,NA,NA
1ea2d,"""Falsch""-Screen",canvas.Screen,3_0_0_0_2_1_2,NA,NA,timeout,4996.951,146385.1,146365.023,146397.249,151377.405,151378.3,2023-11-14T12:27:52Z,151394.2,NULL,Verzögerung,kuchelewa,s,mwakilishi,mwanauchumi,jaribio,NA,sdf,0,0,NA,NA,NA,NA,NA,NA,NA,NA,NA,NA,NA,NA,NA,NA,NA,NA,NA,NA,NA
1ea2d,shallow,flow.Sequence,3_0_0_0_2_1,NA,NA,completion,14191.071,137171.8,137169.643,137186.334,151377.405,151378.7,2023-11-14T12:27:52Z,151394.2,NULL,Verzögerung,kuchelewa,s,mwakilishi,mwanauchumi,jaribio,NA,sdf,NA,0,NA,NA,NA,NA,NA,NA,NA,NA,NA,NA,NA,NA,NA,NA,NA,NA,NA,NA,NA
1ea2d,task,flow.Sequence,3_0_0_0_2,NA,NA,completion,14191.071,137171.5,137169.643,137186.334,151377.405,151378.8,2023-11-14T12:27:52Z,151394.2,NULL,Verzögerung,kuchelewa,s,mwakilishi,mwanauchumi,jaribio,NA,sdf,NA,0,NA,NA,NA,NA,NA,NA,NA,NA,NA,NA,NA,NA,NA,NA,NA,NA,NA,NA,NA
1ea2d,deep,flow.Sequence,3_0_0_0_3_0,NA,NA,skipped,NA,151379,NA,NA,151377.405,151379.2,2023-11-14T12:27:52Z,151394.2,NULL,Genehmigung,idhini,s,mwanamke,itikadi,fedheha,NA,sdf,NA,0,NA,NA,NA,NA,NA,NA,NA,NA,NA,NA,NA,NA,NA,NA,NA,NA,NA,NA,NA
1ea2d,Shallow Question,html.Page,3_0_0_0_3_1_0,NA,NA,form submission,4921.500000003,151379.3,151377.405,151394.2,156315.7,156316,2023-11-14T12:27:57Z,156324.032,NULL,Genehmigung,idhini,s,mwanamke,itikadi,fedheha,fedheha,NA,NA,0,NA,NA,NA,NA,NA,NA,NA,NA,NA,NA,NA,NA,NA,NA,NA,NA,NA,NA,NA
1ea2d,"""Richtig""-Screen",canvas.Screen,3_0_0_0_3_1_1,NA,NA,skipped,NA,156319.3,NA,NA,156315.7,156319.4,2023-11-14T12:27:57Z,156324.032,NULL,Genehmigung,idhini,s,mwanamke,itikadi,fedheha,NA,sdf,NA,0,NA,NA,NA,NA,NA,NA,NA,NA,NA,NA,NA,NA,NA,NA,NA,NA,NA,NA,NA
1ea2d,"""Falsch""-Screen",canvas.Screen,3_0_0_0_3_1_2,NA,NA,timeout,4997.105,156319.8,156307.805,156324.032,161304.674,161305.6,2023-11-14T12:28:02Z,161321.137,NULL,Genehmigung,idhini,s,mwanamke,itikadi,fedheha,NA,sdf,0,0,NA,NA,NA,NA,NA,NA,NA,NA,NA,NA,NA,NA,NA,NA,NA,NA,NA,NA,NA
1ea2d,shallow,flow.Sequence,3_0_0_0_3_1,NA,NA,completion,9910.474,151379.2,151377.405,151394.2,161304.674,161306.2,2023-11-14T12:28:02Z,161321.137,NULL,Genehmigung,idhini,s,mwanamke,itikadi,fedheha,NA,sdf,NA,0,NA,NA,NA,NA,NA,NA,NA,NA,NA,NA,NA,NA,NA,NA,NA,NA,NA,NA,NA
1ea2d,task,flow.Sequence,3_0_0_0_3,NA,NA,completion,9910.474,151378.9,151377.405,151394.2,161304.674,161306.4,2023-11-14T12:28:02Z,161321.137,NULL,Genehmigung,idhini,s,mwanamke,itikadi,fedheha,NA,sdf,NA,0,NA,NA,NA,NA,NA,NA,NA,NA,NA,NA,NA,NA,NA,NA,NA,NA,NA,NA,NA
1ea2d,Deep Question,html.Page,3_0_0_0_4_0_0,NA,NA,form submission,2251.863,161306.6,161304.674,161321.137,163573,163573.1,2023-11-14T12:28:04Z,163586.288,NULL,Fleisch,mshakiki,d,NA,NA,NA,ml,NA,NA,0,NA,NA,NA,NA,NA,NA,NA,NA,NA,NA,NA,NA,NA,NA,NA,NA,NA,NA,NA
1ea2d,"""Richtig""-Screen",canvas.Screen,3_0_0_0_4_0_1,NA,NA,skipped,NA,163574.8,NA,NA,163573,163574.9,2023-11-14T12:28:04Z,163586.288,NULL,Fleisch,mshakiki,d,NA,NA,NA,NA,sdf,NA,0,NA,NA,NA,NA,NA,NA,NA,NA,NA,NA,NA,NA,NA,NA,NA,NA,NA,NA,NA
1ea2d,"""Falsch""-Screen",canvas.Screen,3_0_0_0_4_0_2,NA,NA,timeout,4996.994,163575.5,163570.197,163586.288,168567.076,168567.7,2023-11-14T12:28:09Z,168583.282,NULL,Fleisch,mshakiki,d,NA,NA,NA,NA,sdf,0,0,NA,NA,NA,NA,NA,NA,NA,NA,NA,NA,NA,NA,NA,NA,NA,NA,NA,NA,NA
1ea2d,deep,flow.Sequence,3_0_0_0_4_0,NA,NA,completion,7245.939,161306.6,161304.674,161321.137,168567.076,168568,2023-11-14T12:28:09Z,168583.282,NULL,Fleisch,mshakiki,d,NA,NA,NA,NA,sdf,NA,0,NA,NA,NA,NA,NA,NA,NA,NA,NA,NA,NA,NA,NA,NA,NA,NA,NA,NA,NA
1ea2d,shallow,flow.Sequence,3_0_0_0_4_1,NA,NA,skipped,NA,168568,NA,NA,168567.076,168568.1,2023-11-14T12:28:09Z,168583.282,NULL,Fleisch,mshakiki,d,NA,NA,NA,NA,sdf,NA,0,NA,NA,NA,NA,NA,NA,NA,NA,NA,NA,NA,NA,NA,NA,NA,NA,NA,NA,NA
1ea2d,task,flow.Sequence,3_0_0_0_4,NA,NA,completion,7245.939,161306.6,161304.674,161321.137,168567.076,168568.3,2023-11-14T12:28:09Z,168583.282,NULL,Fleisch,mshakiki,d,NA,NA,NA,NA,sdf,NA,0,NA,NA,NA,NA,NA,NA,NA,NA,NA,NA,NA,NA,NA,NA,NA,NA,NA,NA,NA
1ea2d,deep,flow.Sequence,3_0_0_0_5_0,NA,NA,skipped,NA,168568.3,NA,NA,168567.076,168568.5,2023-11-14T12:28:09Z,168583.282,NULL,Begegnung,kukutana,s,mmasihiya,mpiganaji,husiano,NA,sdf,NA,0,NA,NA,NA,NA,NA,NA,NA,NA,NA,NA,NA,NA,NA,NA,NA,NA,NA,NA,NA
1ea2d,Shallow Question,html.Page,3_0_0_0_5_1_0,NA,NA,form submission,2890.418000003,168568.6,168567.076,168583.282,171473.7,171473.9,2023-11-14T12:28:12Z,171481.46,NULL,Begegnung,kukutana,s,mmasihiya,mpiganaji,husiano,kukutana,NA,NA,0,NA,NA,NA,NA,NA,NA,NA,NA,NA,NA,NA,NA,NA,NA,NA,NA,NA,NA,NA
1ea2d,"""Richtig""-Screen",canvas.Screen,3_0_0_0_5_1_1,NA,NA,timeout,4997.388,171476.9,171465.54,171481.46,176461.886,176462.8,2023-11-14T12:28:17Z,176478.848,NULL,Begegnung,kukutana,s,mmasihiya,mpiganaji,husiano,NA,sdf,1,0,NA,NA,NA,NA,NA,NA,NA,NA,NA,NA,NA,NA,NA,NA,NA,NA,NA,NA,NA
1ea2d,"""Falsch""-Screen",canvas.Screen,3_0_0_0_5_1_2,NA,NA,skipped,NA,176467.8,NA,NA,176461.886,176467.9,2023-11-14T12:28:17Z,176478.848,NULL,Begegnung,kukutana,s,mmasihiya,mpiganaji,husiano,NA,sdf,NA,0,NA,NA,NA,NA,NA,NA,NA,NA,NA,NA,NA,NA,NA,NA,NA,NA,NA,NA,NA
1ea2d,shallow,flow.Sequence,3_0_0_0_5_1,NA,NA,completion,7878.604,168568.5,168567.076,168583.282,176461.886,176468,2023-11-14T12:28:17Z,176478.848,NULL,Begegnung,kukutana,s,mmasihiya,mpiganaji,husiano,NA,sdf,NA,0,NA,NA,NA,NA,NA,NA,NA,NA,NA,NA,NA,NA,NA,NA,NA,NA,NA,NA,NA
1ea2d,task,flow.Sequence,3_0_0_0_5,NA,NA,completion,7878.604,168568.3,168567.076,168583.282,176461.886,176468.1,2023-11-14T12:28:17Z,176478.848,NULL,Begegnung,kukutana,s,mmasihiya,mpiganaji,husiano,NA,sdf,NA,0,NA,NA,NA,NA,NA,NA,NA,NA,NA,NA,NA,NA,NA,NA,NA,NA,NA,NA,NA
1ea2d,deep,flow.Sequence,3_0_0_0_6_0,NA,NA,skipped,NA,176468.1,NA,NA,176461.886,176468.1,2023-11-14T12:28:17Z,176478.848,NULL,Kultur,utamaduni,s,shetani,gerezani,mazingira,NA,sdf,NA,0,NA,NA,NA,NA,NA,NA,NA,NA,NA,NA,NA,NA,NA,NA,NA,NA,NA,NA,NA
1ea2d,Shallow Question,html.Page,3_0_0_0_6_1_0,NA,NA,form submission,4619.9520000045,176468.2,176461.886,176478.848,181098.8,181099.1,2023-11-14T12:28:21Z,181109.194,NULL,Kultur,utamaduni,s,shetani,gerezani,mazingira,shetani,NA,NA,0,NA,NA,NA,NA,NA,NA,NA,NA,NA,NA,NA,NA,NA,NA,NA,NA,NA,NA,NA
1ea2d,"""Richtig""-Screen",canvas.Screen,3_0_0_0_6_1_1,NA,NA,skipped,NA,181102,NA,NA,181098.8,181102.1,2023-11-14T12:28:21Z,181109.194,NULL,Kultur,utamaduni,s,shetani,gerezani,mazingira,NA,sdf,NA,0,NA,NA,NA,NA,NA,NA,NA,NA,NA,NA,NA,NA,NA,NA,NA,NA,NA,NA,NA
1ea2d,"""Falsch""-Screen",canvas.Screen,3_0_0_0_6_1_2,NA,NA,timeout,4997.023,181102.8,181092.94,181109.194,186089.749,186090.7,2023-11-14T12:28:26Z,186106.217,NULL,Kultur,utamaduni,s,shetani,gerezani,mazingira,NA,sdf,0,0,NA,NA,NA,NA,NA,NA,NA,NA,NA,NA,NA,NA,NA,NA,NA,NA,NA,NA,NA
1ea2d,shallow,flow.Sequence,3_0_0_0_6_1,NA,NA,completion,9610.901,176468.2,176461.886,176478.848,186089.749,186091.1,2023-11-14T12:28:26Z,186106.217,NULL,Kultur,utamaduni,s,shetani,gerezani,mazingira,NA,sdf,NA,0,NA,NA,NA,NA,NA,NA,NA,NA,NA,NA,NA,NA,NA,NA,NA,NA,NA,NA,NA
1ea2d,task,flow.Sequence,3_0_0_0_6,NA,NA,completion,9610.901,176468.1,176461.886,176478.848,186089.749,186091.3,2023-11-14T12:28:26Z,186106.217,NULL,Kultur,utamaduni,s,shetani,gerezani,mazingira,NA,sdf,NA,0,NA,NA,NA,NA,NA,NA,NA,NA,NA,NA,NA,NA,NA,NA,NA,NA,NA,NA,NA
1ea2d,Deep Question,html.Page,3_0_0_0_7_0_0,NA,NA,form submission,2227.283,186091.6,186089.749,186106.217,188333.5,188333.7,2023-11-14T12:28:29Z,188337.878,NULL,Prüfung,mtihani,d,NA,NA,NA,p,NA,NA,0,NA,NA,NA,NA,NA,NA,NA,NA,NA,NA,NA,NA,NA,NA,NA,NA,NA,NA,NA
1ea2d,"""Richtig""-Screen",canvas.Screen,3_0_0_0_7_0_1,NA,NA,skipped,NA,188336.8,NA,NA,188333.5,188336.9,2023-11-14T12:28:29Z,188337.878,NULL,Prüfung,mtihani,d,NA,NA,NA,NA,sdf,NA,0,NA,NA,NA,NA,NA,NA,NA,NA,NA,NA,NA,NA,NA,NA,NA,NA,NA,NA,NA
1ea2d,"""Falsch""-Screen",canvas.Screen,3_0_0_0_7_0_2,NA,NA,timeout,4997.467,188337.8,188321.61,188337.878,193318.672,193319.6,2023-11-14T12:28:34Z,193335.345,NULL,Prüfung,mtihani,d,NA,NA,NA,NA,sdf,0,0,NA,NA,NA,NA,NA,NA,NA,NA,NA,NA,NA,NA,NA,NA,NA,NA,NA,NA,NA
1ea2d,deep,flow.Sequence,3_0_0_0_7_0,NA,NA,completion,7212.455,186091.5,186089.749,186106.217,193318.672,193320,2023-11-14T12:28:34Z,193335.345,NULL,Prüfung,mtihani,d,NA,NA,NA,NA,sdf,NA,0,NA,NA,NA,NA,NA,NA,NA,NA,NA,NA,NA,NA,NA,NA,NA,NA,NA,NA,NA
1ea2d,shallow,flow.Sequence,3_0_0_0_7_1,NA,NA,skipped,NA,193320.2,NA,NA,193318.672,193320.4,2023-11-14T12:28:34Z,193335.345,NULL,Prüfung,mtihani,d,NA,NA,NA,NA,sdf,NA,0,NA,NA,NA,NA,NA,NA,NA,NA,NA,NA,NA,NA,NA,NA,NA,NA,NA,NA,NA
1ea2d,task,flow.Sequence,3_0_0_0_7,NA,NA,completion,7212.455,186091.5,186089.749,186106.217,193318.672,193320.7,2023-11-14T12:28:34Z,193335.345,NULL,Prüfung,mtihani,d,NA,NA,NA,NA,sdf,NA,0,NA,NA,NA,NA,NA,NA,NA,NA,NA,NA,NA,NA,NA,NA,NA,NA,NA,NA,NA
1ea2d,block,flow.Loop,3_0_0_0,NA,NA,completion,73921.88,119379.1,119374.396,119396.792,193318.672,193320.9,2023-11-14T12:28:34Z,193335.345,NULL,NA,NA,NA,NA,NA,NA,NA,sdf,NA,0,NA,NA,NA,NA,NA,NA,NA,NA,NA,NA,NA,NA,NA,NA,NA,NA,NA,NA,NA
1ea2d,weiter,canvas.Screen,3_0_0_1,sdf,keypress(Space),response,1310.9550000045,193321.1,193318.672,193335.345,194646.3,194647.3,2023-11-14T12:28:35Z,194700.673,NULL,NA,NA,NA,NA,NA,NA,NA,sdf,NA,0,NA,NA,NA,NA,NA,NA,NA,NA,NA,NA,NA,NA,NA,NA,NA,NA,NA,NA,NA
1ea2d,check continue,flow.Sequence,3_0_0,NA,NA,completion,75249.508000004,119379.1,119374.396,119396.792,194646.3,194647.6,2023-11-14T12:28:35Z,194700.673,NULL,NA,NA,NA,NA,NA,NA,NA,sdf,NA,0,NA,NA,NA,NA,NA,NA,NA,NA,NA,NA,NA,NA,NA,NA,NA,NA,NA,NA,NA
1ea2d,deep,flow.Sequence,3_0_1_0_0_0,NA,NA,skipped,NA,194687.6,NA,NA,194646.3,194687.6,2023-11-14T12:28:35Z,194700.673,NULL,Kultur,utamaduni,s,shetani,gerezani,mazingira,NA,sdfdsf,NA,1,NA,NA,NA,NA,NA,NA,NA,NA,NA,NA,NA,NA,NA,NA,NA,NA,NA,NA,NA
1ea2d,Shallow Question,html.Page,3_0_1_0_0_1_0,NA,NA,form submission,6189.327,194687.7,194686.527,194700.673,200890,200890.3,2023-11-14T12:28:41Z,200896.89,NULL,Kultur,utamaduni,s,shetani,gerezani,mazingira,utamaduni,NA,NA,1,NA,NA,NA,NA,NA,NA,NA,NA,NA,NA,NA,NA,NA,NA,NA,NA,NA,NA,NA
1ea2d,"""Richtig""-Screen",canvas.Screen,3_0_1_0_0_1_1,NA,NA,timeout,4997.408,200893.3,200882.581,200896.89,205877.467,205878.3,2023-11-14T12:28:46Z,205894.298,NULL,Kultur,utamaduni,s,shetani,gerezani,mazingira,NA,sdfdsf,1,1,NA,NA,NA,NA,NA,NA,NA,NA,NA,NA,NA,NA,NA,NA,NA,NA,NA,NA,NA
1ea2d,"""Falsch""-Screen",canvas.Screen,3_0_1_0_0_1_2,NA,NA,skipped,NA,205883.8,NA,NA,205877.467,205884,2023-11-14T12:28:46Z,205894.298,NULL,Kultur,utamaduni,s,shetani,gerezani,mazingira,NA,sdfdsf,NA,1,NA,NA,NA,NA,NA,NA,NA,NA,NA,NA,NA,NA,NA,NA,NA,NA,NA,NA,NA
1ea2d,shallow,flow.Sequence,3_0_1_0_0_1,NA,NA,completion,11176.794,194687.7,194686.527,194700.673,205877.467,205884,2023-11-14T12:28:46Z,205894.298,NULL,Kultur,utamaduni,s,shetani,gerezani,mazingira,NA,sdfdsf,NA,1,NA,NA,NA,NA,NA,NA,NA,NA,NA,NA,NA,NA,NA,NA,NA,NA,NA,NA,NA
1ea2d,task,flow.Sequence,3_0_1_0_0,NA,NA,completion,11176.794,194687.6,194686.527,194700.673,205877.467,205884.1,2023-11-14T12:28:46Z,205894.298,NULL,Kultur,utamaduni,s,shetani,gerezani,mazingira,NA,sdfdsf,NA,1,NA,NA,NA,NA,NA,NA,NA,NA,NA,NA,NA,NA,NA,NA,NA,NA,NA,NA,NA
1ea2d,Deep Question,html.Page,3_0_1_0_1_0_0,NA,NA,form submission,6193.402000003,205884.2,205877.467,205894.298,212087.7,212087.8,2023-11-14T12:28:52Z,212090.096,NULL,Prüfung,mtihani,d,NA,NA,NA,mthiti,NA,NA,1,NA,NA,NA,NA,NA,NA,NA,NA,NA,NA,NA,NA,NA,NA,NA,NA,NA,NA,NA
1ea2d,"""Richtig""-Screen",canvas.Screen,3_0_1_0_1_0_1,NA,NA,skipped,NA,212089.5,NA,NA,212087.7,212089.6,2023-11-14T12:28:52Z,212090.096,NULL,Prüfung,mtihani,d,NA,NA,NA,NA,sdfdsf,NA,1,NA,NA,NA,NA,NA,NA,NA,NA,NA,NA,NA,NA,NA,NA,NA,NA,NA,NA,NA
1ea2d,"""Falsch""-Screen",canvas.Screen,3_0_1_0_1_0_2,NA,NA,timeout,4997.53,212090,212073.391,212090.096,217070.585,217071.6,2023-11-14T12:28:57Z,217087.626,NULL,Prüfung,mtihani,d,NA,NA,NA,NA,sdfdsf,0,1,NA,NA,NA,NA,NA,NA,NA,NA,NA,NA,NA,NA,NA,NA,NA,NA,NA,NA,NA
1ea2d,deep,flow.Sequence,3_0_1_0_1_0,NA,NA,completion,11176.287,205884.2,205877.467,205894.298,217070.585,217072,2023-11-14T12:28:57Z,217087.626,NULL,Prüfung,mtihani,d,NA,NA,NA,NA,sdfdsf,NA,1,NA,NA,NA,NA,NA,NA,NA,NA,NA,NA,NA,NA,NA,NA,NA,NA,NA,NA,NA
1ea2d,shallow,flow.Sequence,3_0_1_0_1_1,NA,NA,skipped,NA,217072.1,NA,NA,217070.585,217072.2,2023-11-14T12:28:57Z,217087.626,NULL,Prüfung,mtihani,d,NA,NA,NA,NA,sdfdsf,NA,1,NA,NA,NA,NA,NA,NA,NA,NA,NA,NA,NA,NA,NA,NA,NA,NA,NA,NA,NA
1ea2d,task,flow.Sequence,3_0_1_0_1,NA,NA,completion,11176.287,205884.1,205877.467,205894.298,217070.585,217072.5,2023-11-14T12:28:57Z,217087.626,NULL,Prüfung,mtihani,d,NA,NA,NA,NA,sdfdsf,NA,1,NA,NA,NA,NA,NA,NA,NA,NA,NA,NA,NA,NA,NA,NA,NA,NA,NA,NA,NA
1ea2d,deep,flow.Sequence,3_0_1_0_2_0,NA,NA,skipped,NA,217072.7,NA,NA,217070.585,217072.8,2023-11-14T12:28:57Z,217087.626,NULL,Verzögerung,kuchelewa,s,mwakilishi,mwanauchumi,jaribio,NA,sdfdsf,NA,1,NA,NA,NA,NA,NA,NA,NA,NA,NA,NA,NA,NA,NA,NA,NA,NA,NA,NA,NA
1ea2d,Shallow Question,html.Page,3_0_1_0_2_1_0,NA,NA,form submission,4897.574000003,217073,217070.585,217087.626,221985.2,221985.4,2023-11-14T12:29:02Z,222000.804,NULL,Verzögerung,kuchelewa,s,mwakilishi,mwanauchumi,jaribio,kuchelewa,NA,NA,1,NA,NA,NA,NA,NA,NA,NA,NA,NA,NA,NA,NA,NA,NA,NA,NA,NA,NA,NA
1ea2d,"""Richtig""-Screen",canvas.Screen,3_0_1_0_2_1_1,NA,NA,timeout,4997.419,221988.6,221984.183,222000.804,226981.067,226982,2023-11-14T12:29:07Z,226998.223,NULL,Verzögerung,kuchelewa,s,mwakilishi,mwanauchumi,jaribio,NA,sdfdsf,1,1,NA,NA,NA,NA,NA,NA,NA,NA,NA,NA,NA,NA,NA,NA,NA,NA,NA,NA,NA
1ea2d,"""Falsch""-Screen",canvas.Screen,3_0_1_0_2_1_2,NA,NA,skipped,NA,226987.1,NA,NA,226981.067,226987.3,2023-11-14T12:29:07Z,226998.223,NULL,Verzögerung,kuchelewa,s,mwakilishi,mwanauchumi,jaribio,NA,sdfdsf,NA,1,NA,NA,NA,NA,NA,NA,NA,NA,NA,NA,NA,NA,NA,NA,NA,NA,NA,NA,NA
1ea2d,shallow,flow.Sequence,3_0_1_0_2_1,NA,NA,completion,9893.441,217073,217070.585,217087.626,226981.067,226987.4,2023-11-14T12:29:07Z,226998.223,NULL,Verzögerung,kuchelewa,s,mwakilishi,mwanauchumi,jaribio,NA,sdfdsf,NA,1,NA,NA,NA,NA,NA,NA,NA,NA,NA,NA,NA,NA,NA,NA,NA,NA,NA,NA,NA
1ea2d,task,flow.Sequence,3_0_1_0_2,NA,NA,completion,9893.441,217072.6,217070.585,217087.626,226981.067,226987.4,2023-11-14T12:29:07Z,226998.223,NULL,Verzögerung,kuchelewa,s,mwakilishi,mwanauchumi,jaribio,NA,sdfdsf,NA,1,NA,NA,NA,NA,NA,NA,NA,NA,NA,NA,NA,NA,NA,NA,NA,NA,NA,NA,NA
1ea2d,Deep Question,html.Page,3_0_1_0_3_0_0,NA,NA,form submission,9036.977000003,226987.5,226981.067,226998.223,236035.2,236035.4,2023-11-14T12:29:16Z,236042.127,NULL,Fleisch,mshakiki,d,NA,NA,NA,mshakiki,NA,NA,1,NA,NA,NA,NA,NA,NA,NA,NA,NA,NA,NA,NA,NA,NA,NA,NA,NA,NA,NA
1ea2d,"""Richtig""-Screen",canvas.Screen,3_0_1_0_3_0_1,NA,NA,timeout,4997.596,236038.6,236025.466,236042.127,241022.514,241023.5,2023-11-14T12:29:21Z,241039.723,NULL,Fleisch,mshakiki,d,NA,NA,NA,NA,sdfdsf,1,1,NA,NA,NA,NA,NA,NA,NA,NA,NA,NA,NA,NA,NA,NA,NA,NA,NA,NA,NA
1ea2d,"""Falsch""-Screen",canvas.Screen,3_0_1_0_3_0_2,NA,NA,skipped,NA,241028.5,NA,NA,241022.514,241028.6,2023-11-14T12:29:21Z,241039.723,NULL,Fleisch,mshakiki,d,NA,NA,NA,NA,sdfdsf,NA,1,NA,NA,NA,NA,NA,NA,NA,NA,NA,NA,NA,NA,NA,NA,NA,NA,NA,NA,NA
1ea2d,deep,flow.Sequence,3_0_1_0_3_0,NA,NA,completion,14024.291,226987.5,226981.067,226998.223,241022.514,241028.6,2023-11-14T12:29:21Z,241039.723,NULL,Fleisch,mshakiki,d,NA,NA,NA,NA,sdfdsf,NA,1,NA,NA,NA,NA,NA,NA,NA,NA,NA,NA,NA,NA,NA,NA,NA,NA,NA,NA,NA
1ea2d,shallow,flow.Sequence,3_0_1_0_3_1,NA,NA,skipped,NA,241028.8,NA,NA,241022.514,241028.8,2023-11-14T12:29:21Z,241039.723,NULL,Fleisch,mshakiki,d,NA,NA,NA,NA,sdfdsf,NA,1,NA,NA,NA,NA,NA,NA,NA,NA,NA,NA,NA,NA,NA,NA,NA,NA,NA,NA,NA
1ea2d,task,flow.Sequence,3_0_1_0_3,NA,NA,completion,14024.291,226987.5,226981.067,226998.223,241022.514,241028.8,2023-11-14T12:29:21Z,241039.723,NULL,Fleisch,mshakiki,d,NA,NA,NA,NA,sdfdsf,NA,1,NA,NA,NA,NA,NA,NA,NA,NA,NA,NA,NA,NA,NA,NA,NA,NA,NA,NA,NA
1ea2d,Deep Question,html.Page,3_0_1_0_4_0_0,NA,NA,form submission,2233.0770000045,241028.9,241022.514,241039.723,243272.8,243273,2023-11-14T12:29:24Z,243304.903,NULL,Integrität,uadilifu,d,NA,NA,NA,l,NA,NA,1,NA,NA,NA,NA,NA,NA,NA,NA,NA,NA,NA,NA,NA,NA,NA,NA,NA,NA,NA
1ea2d,"""Richtig""-Screen",canvas.Screen,3_0_1_0_4_0_1,NA,NA,skipped,NA,243273.9,NA,NA,243272.8,243274,2023-11-14T12:29:24Z,243304.903,NULL,Integrität,uadilifu,d,NA,NA,NA,NA,sdfdsf,NA,1,NA,NA,NA,NA,NA,NA,NA,NA,NA,NA,NA,NA,NA,NA,NA,NA,NA,NA,NA
1ea2d,"""Falsch""-Screen",canvas.Screen,3_0_1_0_4_0_2,NA,NA,timeout,4996.53,243274.7,243288.218,243304.903,248285.083,248286,2023-11-14T12:29:29Z,248301.433,NULL,Integrität,uadilifu,d,NA,NA,NA,NA,sdfdsf,0,1,NA,NA,NA,NA,NA,NA,NA,NA,NA,NA,NA,NA,NA,NA,NA,NA,NA,NA,NA
1ea2d,deep,flow.Sequence,3_0_1_0_4_0,NA,NA,completion,7245.36,241028.8,241022.514,241039.723,248285.083,248286.5,2023-11-14T12:29:29Z,248301.433,NULL,Integrität,uadilifu,d,NA,NA,NA,NA,sdfdsf,NA,1,NA,NA,NA,NA,NA,NA,NA,NA,NA,NA,NA,NA,NA,NA,NA,NA,NA,NA,NA
1ea2d,shallow,flow.Sequence,3_0_1_0_4_1,NA,NA,skipped,NA,248286.6,NA,NA,248285.083,248286.7,2023-11-14T12:29:29Z,248301.433,NULL,Integrität,uadilifu,d,NA,NA,NA,NA,sdfdsf,NA,1,NA,NA,NA,NA,NA,NA,NA,NA,NA,NA,NA,NA,NA,NA,NA,NA,NA,NA,NA
1ea2d,task,flow.Sequence,3_0_1_0_4,NA,NA,completion,7245.36,241028.8,241022.514,241039.723,248285.083,248286.9,2023-11-14T12:29:29Z,248301.433,NULL,Integrität,uadilifu,d,NA,NA,NA,NA,sdfdsf,NA,1,NA,NA,NA,NA,NA,NA,NA,NA,NA,NA,NA,NA,NA,NA,NA,NA,NA,NA,NA
1ea2d,Deep Question,html.Page,3_0_1_0_5_0_0,NA,NA,form submission,5632.767000003,248287.2,248285.083,248301.433,253934.2,253934.5,2023-11-14T12:29:34Z,253948.014,NULL,Aufstand,ugomaji,d,NA,NA,NA,m,NA,NA,1,NA,NA,NA,NA,NA,NA,NA,NA,NA,NA,NA,NA,NA,NA,NA,NA,NA,NA,NA
1ea2d,"""Richtig""-Screen",canvas.Screen,3_0_1_0_5_0_1,NA,NA,skipped,NA,253938.2,NA,NA,253934.2,253938.4,2023-11-14T12:29:34Z,253948.014,NULL,Aufstand,ugomaji,d,NA,NA,NA,NA,sdfdsf,NA,1,NA,NA,NA,NA,NA,NA,NA,NA,NA,NA,NA,NA,NA,NA,NA,NA,NA,NA,NA
1ea2d,"""Falsch""-Screen",canvas.Screen,3_0_1_0_5_0_2,NA,NA,timeout,4997.335,253938.9,253931.631,253948.014,258928.571,258929.4,2023-11-14T12:29:39Z,258945.349,NULL,Aufstand,ugomaji,d,NA,NA,NA,NA,sdfdsf,0,1,NA,NA,NA,NA,NA,NA,NA,NA,NA,NA,NA,NA,NA,NA,NA,NA,NA,NA,NA
1ea2d,deep,flow.Sequence,3_0_1_0_5_0,NA,NA,completion,10627.138,248287.1,248285.083,248301.433,258928.571,258929.8,2023-11-14T12:29:39Z,258945.349,NULL,Aufstand,ugomaji,d,NA,NA,NA,NA,sdfdsf,NA,1,NA,NA,NA,NA,NA,NA,NA,NA,NA,NA,NA,NA,NA,NA,NA,NA,NA,NA,NA
1ea2d,shallow,flow.Sequence,3_0_1_0_5_1,NA,NA,skipped,NA,258930,NA,NA,258928.571,258930.1,2023-11-14T12:29:39Z,258945.349,NULL,Aufstand,ugomaji,d,NA,NA,NA,NA,sdfdsf,NA,1,NA,NA,NA,NA,NA,NA,NA,NA,NA,NA,NA,NA,NA,NA,NA,NA,NA,NA,NA
1ea2d,task,flow.Sequence,3_0_1_0_5,NA,NA,completion,10627.138,248287.1,248285.083,248301.433,258928.571,258930.3,2023-11-14T12:29:39Z,258945.349,NULL,Aufstand,ugomaji,d,NA,NA,NA,NA,sdfdsf,NA,1,NA,NA,NA,NA,NA,NA,NA,NA,NA,NA,NA,NA,NA,NA,NA,NA,NA,NA,NA
1ea2d,deep,flow.Sequence,3_0_1_0_6_0,NA,NA,skipped,NA,258930.4,NA,NA,258928.571,258930.6,2023-11-14T12:29:39Z,258945.349,NULL,Genehmigung,idhini,s,mwanamke,itikadi,fedheha,NA,sdfdsf,NA,1,NA,NA,NA,NA,NA,NA,NA,NA,NA,NA,NA,NA,NA,NA,NA,NA,NA,NA,NA
1ea2d,Shallow Question,html.Page,3_0_1_0_6_1_0,NA,NA,form submission,11444.151,258930.7,258928.571,258945.349,270389.5,270389.7,2023-11-14T12:29:51Z,270404.74,NULL,Genehmigung,idhini,s,mwanamke,itikadi,fedheha,idhini,NA,NA,1,NA,NA,NA,NA,NA,NA,NA,NA,NA,NA,NA,NA,NA,NA,NA,NA,NA,NA,NA
1ea2d,"""Richtig""-Screen",canvas.Screen,3_0_1_0_6_1_1,NA,NA,timeout,4997.139,270392.9,270388.222,270404.74,275385.079,275386,2023-11-14T12:29:56Z,275401.879,NULL,Genehmigung,idhini,s,mwanamke,itikadi,fedheha,NA,sdfdsf,1,1,NA,NA,NA,NA,NA,NA,NA,NA,NA,NA,NA,NA,NA,NA,NA,NA,NA,NA,NA
1ea2d,"""Falsch""-Screen",canvas.Screen,3_0_1_0_6_1_2,NA,NA,skipped,NA,275390.6,NA,NA,275385.079,275390.7,2023-11-14T12:29:56Z,275401.879,NULL,Genehmigung,idhini,s,mwanamke,itikadi,fedheha,NA,sdfdsf,NA,1,NA,NA,NA,NA,NA,NA,NA,NA,NA,NA,NA,NA,NA,NA,NA,NA,NA,NA,NA
1ea2d,shallow,flow.Sequence,3_0_1_0_6_1,NA,NA,completion,16439.73,258930.7,258928.571,258945.349,275385.079,275390.8,2023-11-14T12:29:56Z,275401.879,NULL,Genehmigung,idhini,s,mwanamke,itikadi,fedheha,NA,sdfdsf,NA,1,NA,NA,NA,NA,NA,NA,NA,NA,NA,NA,NA,NA,NA,NA,NA,NA,NA,NA,NA
1ea2d,task,flow.Sequence,3_0_1_0_6,NA,NA,completion,16439.73,258930.4,258928.571,258945.349,275385.079,275390.9,2023-11-14T12:29:56Z,275401.879,NULL,Genehmigung,idhini,s,mwanamke,itikadi,fedheha,NA,sdfdsf,NA,1,NA,NA,NA,NA,NA,NA,NA,NA,NA,NA,NA,NA,NA,NA,NA,NA,NA,NA,NA
1ea2d,deep,flow.Sequence,3_0_1_0_7_0,NA,NA,skipped,NA,275390.9,NA,NA,275385.079,275391,2023-11-14T12:29:56Z,275401.879,NULL,Begegnung,kukutana,s,mmasihiya,mpiganaji,husiano,NA,sdfdsf,NA,1,NA,NA,NA,NA,NA,NA,NA,NA,NA,NA,NA,NA,NA,NA,NA,NA,NA,NA,NA
1ea2d,Shallow Question,html.Page,3_0_1_0_7_1_0,NA,NA,form submission,3722.2210000015,275391.1,275385.079,275401.879,279124.1,279124.4,2023-11-14T12:30:00Z,279132.505,NULL,Begegnung,kukutana,s,mmasihiya,mpiganaji,husiano,kukutana,NA,NA,1,NA,NA,NA,NA,NA,NA,NA,NA,NA,NA,NA,NA,NA,NA,NA,NA,NA,NA,NA
1ea2d,"""Richtig""-Screen",canvas.Screen,3_0_1_0_7_1_1,NA,NA,timeout,4997.212,279127.7,279116.44,279132.505,284113.163,284114.4,2023-11-14T12:30:04Z,284129.717,NULL,Begegnung,kukutana,s,mmasihiya,mpiganaji,husiano,NA,sdfdsf,1,1,NA,NA,NA,NA,NA,NA,NA,NA,NA,NA,NA,NA,NA,NA,NA,NA,NA,NA,NA
1ea2d,"""Falsch""-Screen",canvas.Screen,3_0_1_0_7_1_2,NA,NA,skipped,NA,284119,NA,NA,284113.163,284119.2,2023-11-14T12:30:04Z,284129.717,NULL,Begegnung,kukutana,s,mmasihiya,mpiganaji,husiano,NA,sdfdsf,NA,1,NA,NA,NA,NA,NA,NA,NA,NA,NA,NA,NA,NA,NA,NA,NA,NA,NA,NA,NA
1ea2d,shallow,flow.Sequence,3_0_1_0_7_1,NA,NA,completion,8711.284,275391.1,275385.079,275401.879,284113.163,284119.4,2023-11-14T12:30:04Z,284129.717,NULL,Begegnung,kukutana,s,mmasihiya,mpiganaji,husiano,NA,sdfdsf,NA,1,NA,NA,NA,NA,NA,NA,NA,NA,NA,NA,NA,NA,NA,NA,NA,NA,NA,NA,NA
1ea2d,task,flow.Sequence,3_0_1_0_7,NA,NA,completion,8711.284,275390.9,275385.079,275401.879,284113.163,284119.4,2023-11-14T12:30:04Z,284129.717,NULL,Begegnung,kukutana,s,mmasihiya,mpiganaji,husiano,NA,sdfdsf,NA,1,NA,NA,NA,NA,NA,NA,NA,NA,NA,NA,NA,NA,NA,NA,NA,NA,NA,NA,NA
1ea2d,block,flow.Loop,3_0_1_0,NA,NA,completion,89412.49,194687.6,194686.527,194700.673,284113.163,284119.6,2023-11-14T12:30:04Z,284129.717,NULL,NA,NA,NA,NA,NA,NA,NA,sdfdsf,NA,1,NA,NA,NA,NA,NA,NA,NA,NA,NA,NA,NA,NA,NA,NA,NA,NA,NA,NA,NA
1ea2d,weiter,canvas.Screen,3_0_1_1,sdf,keypress(Space),response,1136.983000003,284119.7,284113.163,284129.717,285266.7,285267.7,2023-11-14T12:30:06Z,285295.547,NULL,NA,NA,NA,NA,NA,NA,NA,sdfdsf,NA,1,NA,NA,NA,NA,NA,NA,NA,NA,NA,NA,NA,NA,NA,NA,NA,NA,NA,NA,NA
1ea2d,check continue,flow.Sequence,3_0_1,NA,NA,completion,90566.027000003,194687.5,194686.527,194700.673,285266.7,285268.1,2023-11-14T12:30:06Z,285295.547,NULL,NA,NA,NA,NA,NA,NA,NA,sdfdsf,NA,1,NA,NA,NA,NA,NA,NA,NA,NA,NA,NA,NA,NA,NA,NA,NA,NA,NA,NA,NA
1ea2d,deep,flow.Sequence,3_0_2_0_0_0,NA,NA,skipped,NA,285290.5,NA,NA,285266.7,285290.5,2023-11-14T12:30:06Z,285295.547,NULL,Kultur,utamaduni,s,shetani,gerezani,mazingira,NA,sdf,NA,2,NA,NA,NA,NA,NA,NA,NA,NA,NA,NA,NA,NA,NA,NA,NA,NA,NA,NA,NA
1ea2d,Shallow Question,html.Page,3_0_2_0_0_1_0,NA,NA,form submission,4693.153000003,285290.6,285279.167,285295.547,289988.7,289989.1,2023-11-14T12:30:10Z,289992.575,NULL,Kultur,utamaduni,s,shetani,gerezani,mazingira,utamaduni,NA,NA,2,NA,NA,NA,NA,NA,NA,NA,NA,NA,NA,NA,NA,NA,NA,NA,NA,NA,NA,NA
1ea2d,"""Richtig""-Screen",canvas.Screen,3_0_2_0_0_1_1,NA,NA,timeout,4997.584,289992.1,289976.421,289992.575,294972.943,294975.2,2023-11-14T12:30:15Z,294990.159,NULL,Kultur,utamaduni,s,shetani,gerezani,mazingira,NA,sdf,1,2,NA,NA,NA,NA,NA,NA,NA,NA,NA,NA,NA,NA,NA,NA,NA,NA,NA,NA,NA
1ea2d,"""Falsch""-Screen",canvas.Screen,3_0_2_0_0_1_2,NA,NA,skipped,NA,294978.9,NA,NA,294972.943,294979,2023-11-14T12:30:15Z,294990.159,NULL,Kultur,utamaduni,s,shetani,gerezani,mazingira,NA,sdf,NA,2,NA,NA,NA,NA,NA,NA,NA,NA,NA,NA,NA,NA,NA,NA,NA,NA,NA,NA,NA
1ea2d,shallow,flow.Sequence,3_0_2_0_0_1,NA,NA,completion,9677.396,285290.6,285279.167,285295.547,294972.943,294979.2,2023-11-14T12:30:15Z,294990.159,NULL,Kultur,utamaduni,s,shetani,gerezani,mazingira,NA,sdf,NA,2,NA,NA,NA,NA,NA,NA,NA,NA,NA,NA,NA,NA,NA,NA,NA,NA,NA,NA,NA
1ea2d,task,flow.Sequence,3_0_2_0_0,NA,NA,completion,9677.396,285290.5,285279.167,285295.547,294972.943,294979.3,2023-11-14T12:30:15Z,294990.159,NULL,Kultur,utamaduni,s,shetani,gerezani,mazingira,NA,sdf,NA,2,NA,NA,NA,NA,NA,NA,NA,NA,NA,NA,NA,NA,NA,NA,NA,NA,NA,NA,NA
1ea2d,Deep Question,html.Page,3_0_2_0_1_0_0,NA,NA,form submission,10469.240999999,294979.3,294972.943,294990.159,305459.4,305459.6,2023-11-14T12:30:26Z,305466.427,NULL,Integrität,uadilifu,d,NA,NA,NA,uatiju,NA,NA,2,NA,NA,NA,NA,NA,NA,NA,NA,NA,NA,NA,NA,NA,NA,NA,NA,NA,NA,NA
1ea2d,"""Richtig""-Screen",canvas.Screen,3_0_2_0_1_0_1,NA,NA,skipped,NA,305462.8,NA,NA,305459.4,305463,2023-11-14T12:30:26Z,305466.427,NULL,Integrität,uadilifu,d,NA,NA,NA,NA,sdf,NA,2,NA,NA,NA,NA,NA,NA,NA,NA,NA,NA,NA,NA,NA,NA,NA,NA,NA,NA,NA
1ea2d,"""Falsch""-Screen",canvas.Screen,3_0_2_0_1_0_2,NA,NA,timeout,4997.393,305463.7,305450.234,305466.427,310446.83,310447.9,2023-11-14T12:30:31Z,310463.82,NULL,Integrität,uadilifu,d,NA,NA,NA,NA,sdf,0,2,NA,NA,NA,NA,NA,NA,NA,NA,NA,NA,NA,NA,NA,NA,NA,NA,NA,NA,NA
1ea2d,deep,flow.Sequence,3_0_2_0_1_0,NA,NA,completion,15456.671,294979.3,294972.943,294990.159,310446.83,310448.5,2023-11-14T12:30:31Z,310463.82,NULL,Integrität,uadilifu,d,NA,NA,NA,NA,sdf,NA,2,NA,NA,NA,NA,NA,NA,NA,NA,NA,NA,NA,NA,NA,NA,NA,NA,NA,NA,NA
1ea2d,shallow,flow.Sequence,3_0_2_0_1_1,NA,NA,skipped,NA,310448.6,NA,NA,310446.83,310448.8,2023-11-14T12:30:31Z,310463.82,NULL,Integrität,uadilifu,d,NA,NA,NA,NA,sdf,NA,2,NA,NA,NA,NA,NA,NA,NA,NA,NA,NA,NA,NA,NA,NA,NA,NA,NA,NA,NA
1ea2d,task,flow.Sequence,3_0_2_0_1,NA,NA,completion,15456.671,294979.3,294972.943,294990.159,310446.83,310449,2023-11-14T12:30:31Z,310463.82,NULL,Integrität,uadilifu,d,NA,NA,NA,NA,sdf,NA,2,NA,NA,NA,NA,NA,NA,NA,NA,NA,NA,NA,NA,NA,NA,NA,NA,NA,NA,NA
1ea2d,deep,flow.Sequence,3_0_2_0_2_0,NA,NA,skipped,NA,310449.2,NA,NA,310446.83,310449.4,2023-11-14T12:30:31Z,310463.82,NULL,Begegnung,kukutana,s,mmasihiya,mpiganaji,husiano,NA,sdf,NA,2,NA,NA,NA,NA,NA,NA,NA,NA,NA,NA,NA,NA,NA,NA,NA,NA,NA,NA,NA
1ea2d,Shallow Question,html.Page,3_0_2_0_2_1_0,NA,NA,form submission,3076.380000003,310449.5,310446.83,310463.82,313540.2,313540.5,2023-11-14T12:30:34Z,313544.917,NULL,Begegnung,kukutana,s,mmasihiya,mpiganaji,husiano,kukutana,NA,NA,2,NA,NA,NA,NA,NA,NA,NA,NA,NA,NA,NA,NA,NA,NA,NA,NA,NA,NA,NA
1ea2d,"""Richtig""-Screen",canvas.Screen,3_0_2_0_2_1_1,NA,NA,timeout,4997.299,313543.6,313529.326,313544.917,318525.613,318526.5,2023-11-14T12:30:39Z,318542.216,NULL,Begegnung,kukutana,s,mmasihiya,mpiganaji,husiano,NA,sdf,1,2,NA,NA,NA,NA,NA,NA,NA,NA,NA,NA,NA,NA,NA,NA,NA,NA,NA,NA,NA
1ea2d,"""Falsch""-Screen",canvas.Screen,3_0_2_0_2_1_2,NA,NA,skipped,NA,318532.1,NA,NA,318525.613,318532.2,2023-11-14T12:30:39Z,318542.216,NULL,Begegnung,kukutana,s,mmasihiya,mpiganaji,husiano,NA,sdf,NA,2,NA,NA,NA,NA,NA,NA,NA,NA,NA,NA,NA,NA,NA,NA,NA,NA,NA,NA,NA
1ea2d,shallow,flow.Sequence,3_0_2_0_2_1,NA,NA,completion,8061.793,310449.4,310446.83,310463.82,318525.613,318532.3,2023-11-14T12:30:39Z,318542.216,NULL,Begegnung,kukutana,s,mmasihiya,mpiganaji,husiano,NA,sdf,NA,2,NA,NA,NA,NA,NA,NA,NA,NA,NA,NA,NA,NA,NA,NA,NA,NA,NA,NA,NA
1ea2d,task,flow.Sequence,3_0_2_0_2,NA,NA,completion,8061.793,310449.2,310446.83,310463.82,318525.613,318532.3,2023-11-14T12:30:39Z,318542.216,NULL,Begegnung,kukutana,s,mmasihiya,mpiganaji,husiano,NA,sdf,NA,2,NA,NA,NA,NA,NA,NA,NA,NA,NA,NA,NA,NA,NA,NA,NA,NA,NA,NA,NA
1ea2d,deep,flow.Sequence,3_0_2_0_3_0,NA,NA,skipped,NA,318532.5,NA,NA,318525.613,318532.5,2023-11-14T12:30:39Z,318542.216,NULL,Verzögerung,kuchelewa,s,mwakilishi,mwanauchumi,jaribio,NA,sdf,NA,2,NA,NA,NA,NA,NA,NA,NA,NA,NA,NA,NA,NA,NA,NA,NA,NA,NA,NA,NA
1ea2d,Shallow Question,html.Page,3_0_2_0_3_1_0,NA,NA,form submission,3259.984000003,318532.6,318525.613,318542.216,321802.2,321802.4,2023-11-14T12:30:42Z,321806.507,NULL,Verzögerung,kuchelewa,s,mwakilishi,mwanauchumi,jaribio,kuchelewa,NA,NA,2,NA,NA,NA,NA,NA,NA,NA,NA,NA,NA,NA,NA,NA,NA,NA,NA,NA,NA,NA
1ea2d,"""Richtig""-Screen",canvas.Screen,3_0_2_0_3_1_1,NA,NA,timeout,4997.323,321805.6,321790.26,321806.507,326786.884,326787.7,2023-11-14T12:30:47Z,326803.83,NULL,Verzögerung,kuchelewa,s,mwakilishi,mwanauchumi,jaribio,NA,sdf,1,2,NA,NA,NA,NA,NA,NA,NA,NA,NA,NA,NA,NA,NA,NA,NA,NA,NA,NA,NA
1ea2d,"""Falsch""-Screen",canvas.Screen,3_0_2_0_3_1_2,NA,NA,skipped,NA,326792.9,NA,NA,326786.884,326793.1,2023-11-14T12:30:47Z,326803.83,NULL,Verzögerung,kuchelewa,s,mwakilishi,mwanauchumi,jaribio,NA,sdf,NA,2,NA,NA,NA,NA,NA,NA,NA,NA,NA,NA,NA,NA,NA,NA,NA,NA,NA,NA,NA
1ea2d,shallow,flow.Sequence,3_0_2_0_3_1,NA,NA,completion,8244.668,318532.5,318525.613,318542.216,326786.884,326793.2,2023-11-14T12:30:47Z,326803.83,NULL,Verzögerung,kuchelewa,s,mwakilishi,mwanauchumi,jaribio,NA,sdf,NA,2,NA,NA,NA,NA,NA,NA,NA,NA,NA,NA,NA,NA,NA,NA,NA,NA,NA,NA,NA
1ea2d,task,flow.Sequence,3_0_2_0_3,NA,NA,completion,8244.668,318532.4,318525.613,318542.216,326786.884,326793.3,2023-11-14T12:30:47Z,326803.83,NULL,Verzögerung,kuchelewa,s,mwakilishi,mwanauchumi,jaribio,NA,sdf,NA,2,NA,NA,NA,NA,NA,NA,NA,NA,NA,NA,NA,NA,NA,NA,NA,NA,NA,NA,NA
1ea2d,deep,flow.Sequence,3_0_2_0_4_0,NA,NA,skipped,NA,326793.3,NA,NA,326786.884,326793.3,2023-11-14T12:30:47Z,326803.83,NULL,Genehmigung,idhini,s,mwanamke,itikadi,fedheha,NA,sdf,NA,2,NA,NA,NA,NA,NA,NA,NA,NA,NA,NA,NA,NA,NA,NA,NA,NA,NA,NA,NA
1ea2d,Shallow Question,html.Page,3_0_2_0_4_1_0,NA,NA,form submission,2889.870000003,326793.4,326786.884,326803.83,329693.7,329693.9,2023-11-14T12:30:50Z,329701.707,NULL,Genehmigung,idhini,s,mwanamke,itikadi,fedheha,idhini,NA,NA,2,NA,NA,NA,NA,NA,NA,NA,NA,NA,NA,NA,NA,NA,NA,NA,NA,NA,NA,NA
1ea2d,"""Richtig""-Screen",canvas.Screen,3_0_2_0_4_1_1,NA,NA,timeout,4997.505,329696.8,329685.469,329701.707,334682.297,334683.3,2023-11-14T12:30:55Z,334699.212,NULL,Genehmigung,idhini,s,mwanamke,itikadi,fedheha,NA,sdf,1,2,NA,NA,NA,NA,NA,NA,NA,NA,NA,NA,NA,NA,NA,NA,NA,NA,NA,NA,NA
1ea2d,"""Falsch""-Screen",canvas.Screen,3_0_2_0_4_1_2,NA,NA,skipped,NA,334688.8,NA,NA,334682.297,334688.9,2023-11-14T12:30:55Z,334699.212,NULL,Genehmigung,idhini,s,mwanamke,itikadi,fedheha,NA,sdf,NA,2,NA,NA,NA,NA,NA,NA,NA,NA,NA,NA,NA,NA,NA,NA,NA,NA,NA,NA,NA
1ea2d,shallow,flow.Sequence,3_0_2_0_4_1,NA,NA,completion,7878.467,326793.4,326786.884,326803.83,334682.297,334689,2023-11-14T12:30:55Z,334699.212,NULL,Genehmigung,idhini,s,mwanamke,itikadi,fedheha,NA,sdf,NA,2,NA,NA,NA,NA,NA,NA,NA,NA,NA,NA,NA,NA,NA,NA,NA,NA,NA,NA,NA
1ea2d,task,flow.Sequence,3_0_2_0_4,NA,NA,completion,7878.467,326793.3,326786.884,326803.83,334682.297,334689.1,2023-11-14T12:30:55Z,334699.212,NULL,Genehmigung,idhini,s,mwanamke,itikadi,fedheha,NA,sdf,NA,2,NA,NA,NA,NA,NA,NA,NA,NA,NA,NA,NA,NA,NA,NA,NA,NA,NA,NA,NA
1ea2d,Deep Question,html.Page,3_0_2_0_5_0_0,NA,NA,form submission,5063.488000003,334689.1,334682.297,334699.212,339762.7,339762.9,2023-11-14T12:31:00Z,339778.976,NULL,Fleisch,mshakiki,d,NA,NA,NA,mshakiki,NA,NA,2,NA,NA,NA,NA,NA,NA,NA,NA,NA,NA,NA,NA,NA,NA,NA,NA,NA,NA,NA
1ea2d,"""Richtig""-Screen",canvas.Screen,3_0_2_0_5_0_1,NA,NA,timeout,4997.332,339764.8,339762.455,339778.976,344759.339,344760.4,2023-11-14T12:31:05Z,344776.308,NULL,Fleisch,mshakiki,d,NA,NA,NA,NA,sdf,1,2,NA,NA,NA,NA,NA,NA,NA,NA,NA,NA,NA,NA,NA,NA,NA,NA,NA,NA,NA
1ea2d,"""Falsch""-Screen",canvas.Screen,3_0_2_0_5_0_2,NA,NA,skipped,NA,344765.4,NA,NA,344759.339,344765.5,2023-11-14T12:31:05Z,344776.308,NULL,Fleisch,mshakiki,d,NA,NA,NA,NA,sdf,NA,2,NA,NA,NA,NA,NA,NA,NA,NA,NA,NA,NA,NA,NA,NA,NA,NA,NA,NA,NA
1ea2d,deep,flow.Sequence,3_0_2_0_5_0,NA,NA,completion,10060.127,334689.1,334682.297,334699.212,344759.339,344765.5,2023-11-14T12:31:05Z,344776.308,NULL,Fleisch,mshakiki,d,NA,NA,NA,NA,sdf,NA,2,NA,NA,NA,NA,NA,NA,NA,NA,NA,NA,NA,NA,NA,NA,NA,NA,NA,NA,NA
1ea2d,shallow,flow.Sequence,3_0_2_0_5_1,NA,NA,skipped,NA,344765.6,NA,NA,344759.339,344765.6,2023-11-14T12:31:05Z,344776.308,NULL,Fleisch,mshakiki,d,NA,NA,NA,NA,sdf,NA,2,NA,NA,NA,NA,NA,NA,NA,NA,NA,NA,NA,NA,NA,NA,NA,NA,NA,NA,NA
1ea2d,task,flow.Sequence,3_0_2_0_5,NA,NA,completion,10060.127,334689.1,334682.297,334699.212,344759.339,344765.7,2023-11-14T12:31:05Z,344776.308,NULL,Fleisch,mshakiki,d,NA,NA,NA,NA,sdf,NA,2,NA,NA,NA,NA,NA,NA,NA,NA,NA,NA,NA,NA,NA,NA,NA,NA,NA,NA,NA
1ea2d,Deep Question,html.Page,3_0_2_0_6_0_0,NA,NA,form submission,14535.091999998,344765.7,344759.339,344776.308,359311.4,359311.7,2023-11-14T12:31:20Z,359316.981,NULL,Prüfung,mtihani,d,NA,NA,NA,mhani,NA,NA,2,NA,NA,NA,NA,NA,NA,NA,NA,NA,NA,NA,NA,NA,NA,NA,NA,NA,NA,NA
1ea2d,"""Richtig""-Screen",canvas.Screen,3_0_2_0_6_0_1,NA,NA,skipped,NA,359314.9,NA,NA,359311.4,359315,2023-11-14T12:31:20Z,359316.981,NULL,Prüfung,mtihani,d,NA,NA,NA,NA,sdf,NA,2,NA,NA,NA,NA,NA,NA,NA,NA,NA,NA,NA,NA,NA,NA,NA,NA,NA,NA,NA
1ea2d,"""Falsch""-Screen",canvas.Screen,3_0_2_0_6_0_2,NA,NA,timeout,4997.359,359315.9,359300.6,359316.981,364297.495,364298.4,2023-11-14T12:31:25Z,364314.34,NULL,Prüfung,mtihani,d,NA,NA,NA,NA,sdf,0,2,NA,NA,NA,NA,NA,NA,NA,NA,NA,NA,NA,NA,NA,NA,NA,NA,NA,NA,NA
1ea2d,deep,flow.Sequence,3_0_2_0_6_0,NA,NA,completion,19521.187,344765.7,344759.339,344776.308,364297.495,364298.7,2023-11-14T12:31:25Z,364314.34,NULL,Prüfung,mtihani,d,NA,NA,NA,NA,sdf,NA,2,NA,NA,NA,NA,NA,NA,NA,NA,NA,NA,NA,NA,NA,NA,NA,NA,NA,NA,NA
1ea2d,shallow,flow.Sequence,3_0_2_0_6_1,NA,NA,skipped,NA,364298.9,NA,NA,364297.495,364299.1,2023-11-14T12:31:25Z,364314.34,NULL,Prüfung,mtihani,d,NA,NA,NA,NA,sdf,NA,2,NA,NA,NA,NA,NA,NA,NA,NA,NA,NA,NA,NA,NA,NA,NA,NA,NA,NA,NA
1ea2d,task,flow.Sequence,3_0_2_0_6,NA,NA,completion,19521.187,344765.7,344759.339,344776.308,364297.495,364299.3,2023-11-14T12:31:25Z,364314.34,NULL,Prüfung,mtihani,d,NA,NA,NA,NA,sdf,NA,2,NA,NA,NA,NA,NA,NA,NA,NA,NA,NA,NA,NA,NA,NA,NA,NA,NA,NA,NA
1ea2d,Deep Question,html.Page,3_0_2_0_7_0_0,NA,NA,form submission,3533.9600000044,364299.4,364297.495,364314.34,367848.3,367848.6,2023-11-14T12:31:28Z,367861.736,NULL,Aufstand,ugomaji,d,NA,NA,NA,l,NA,NA,2,NA,NA,NA,NA,NA,NA,NA,NA,NA,NA,NA,NA,NA,NA,NA,NA,NA,NA,NA
1ea2d,"""Richtig""-Screen",canvas.Screen,3_0_2_0_7_0_1,NA,NA,skipped,NA,367851.7,NA,NA,367848.3,367851.8,2023-11-14T12:31:28Z,367861.736,NULL,Aufstand,ugomaji,d,NA,NA,NA,NA,sdf,NA,2,NA,NA,NA,NA,NA,NA,NA,NA,NA,NA,NA,NA,NA,NA,NA,NA,NA,NA,NA
1ea2d,"""Falsch""-Screen",canvas.Screen,3_0_2_0_7_0_2,NA,NA,timeout,4997.266,367852.5,367845.662,367861.736,372842.158,372843,2023-11-14T12:31:33Z,372859.002,NULL,Aufstand,ugomaji,d,NA,NA,NA,NA,sdf,0,2,NA,NA,NA,NA,NA,NA,NA,NA,NA,NA,NA,NA,NA,NA,NA,NA,NA,NA,NA
1ea2d,deep,flow.Sequence,3_0_2_0_7_0,NA,NA,completion,8527.818,364299.4,364297.495,364314.34,372842.158,372843.3,2023-11-14T12:31:33Z,372859.002,NULL,Aufstand,ugomaji,d,NA,NA,NA,NA,sdf,NA,2,NA,NA,NA,NA,NA,NA,NA,NA,NA,NA,NA,NA,NA,NA,NA,NA,NA,NA,NA
1ea2d,shallow,flow.Sequence,3_0_2_0_7_1,NA,NA,skipped,NA,372843.5,NA,NA,372842.158,372843.6,2023-11-14T12:31:33Z,372859.002,NULL,Aufstand,ugomaji,d,NA,NA,NA,NA,sdf,NA,2,NA,NA,NA,NA,NA,NA,NA,NA,NA,NA,NA,NA,NA,NA,NA,NA,NA,NA,NA
1ea2d,task,flow.Sequence,3_0_2_0_7,NA,NA,completion,8527.818,364299.4,364297.495,364314.34,372842.158,372843.8,2023-11-14T12:31:33Z,372859.002,NULL,Aufstand,ugomaji,d,NA,NA,NA,NA,sdf,NA,2,NA,NA,NA,NA,NA,NA,NA,NA,NA,NA,NA,NA,NA,NA,NA,NA,NA,NA,NA
1ea2d,block,flow.Loop,3_0_2_0,NA,NA,completion,87546.611,285290.4,285279.167,285295.547,372842.158,372844,2023-11-14T12:31:33Z,372859.002,NULL,NA,NA,NA,NA,NA,NA,NA,sdf,NA,2,NA,NA,NA,NA,NA,NA,NA,NA,NA,NA,NA,NA,NA,NA,NA,NA,NA,NA,NA
1ea2d,weiter,canvas.Screen,3_0_2_1,sdf,keypress(Space),response,1166.0980000015,372844.2,372842.158,372859.002,374025.1,374026.2,2023-11-14T12:31:34Z,374057.978,NULL,NA,NA,NA,NA,NA,NA,NA,sdf,NA,2,NA,NA,NA,NA,NA,NA,NA,NA,NA,NA,NA,NA,NA,NA,NA,NA,NA,NA,NA
1ea2d,check continue,flow.Sequence,3_0_2,NA,NA,completion,88729.553000001,285290.4,285279.167,285295.547,374025.1,374026.5,2023-11-14T12:31:34Z,374057.978,NULL,NA,NA,NA,NA,NA,NA,NA,sdf,NA,2,NA,NA,NA,NA,NA,NA,NA,NA,NA,NA,NA,NA,NA,NA,NA,NA,NA,NA,NA
1ea2d,deep,flow.Sequence,3_0_3_0_0_0,NA,NA,skipped,NA,374054,NA,NA,374025.1,374054.1,2023-11-14T12:31:34Z,374057.978,NULL,Kultur,utamaduni,s,shetani,gerezani,mazingira,NA,qt,NA,3,NA,NA,NA,NA,NA,NA,NA,NA,NA,NA,NA,NA,NA,NA,NA,NA,NA,NA,NA
1ea2d,Shallow Question,html.Page,3_0_3_0_0_1_0,NA,NA,form submission,4689.222000003,374054.2,374041.238,374057.978,378747.2,378747.5,2023-11-14T12:31:39Z,378755.345,NULL,Kultur,utamaduni,s,shetani,gerezani,mazingira,utamaduni,NA,NA,3,NA,NA,NA,NA,NA,NA,NA,NA,NA,NA,NA,NA,NA,NA,NA,NA,NA,NA,NA
1ea2d,"""Richtig""-Screen",canvas.Screen,3_0_3_0_0_1_1,NA,NA,timeout,4997.132,378750.6,378739.034,378755.345,383735.495,383736.8,2023-11-14T12:31:44Z,383752.477,NULL,Kultur,utamaduni,s,shetani,gerezani,mazingira,NA,qt,1,3,NA,NA,NA,NA,NA,NA,NA,NA,NA,NA,NA,NA,NA,NA,NA,NA,NA,NA,NA
1ea2d,"""Falsch""-Screen",canvas.Screen,3_0_3_0_0_1_2,NA,NA,skipped,NA,383738.2,NA,NA,383735.495,383738.3,2023-11-14T12:31:44Z,383752.477,NULL,Kultur,utamaduni,s,shetani,gerezani,mazingira,NA,qt,NA,3,NA,NA,NA,NA,NA,NA,NA,NA,NA,NA,NA,NA,NA,NA,NA,NA,NA,NA,NA
1ea2d,shallow,flow.Sequence,3_0_3_0_0_1,NA,NA,completion,9677.517,374054.2,374041.238,374057.978,383735.495,383738.5,2023-11-14T12:31:44Z,383752.477,NULL,Kultur,utamaduni,s,shetani,gerezani,mazingira,NA,qt,NA,3,NA,NA,NA,NA,NA,NA,NA,NA,NA,NA,NA,NA,NA,NA,NA,NA,NA,NA,NA
1ea2d,task,flow.Sequence,3_0_3_0_0,NA,NA,completion,9677.517,374054,374041.238,374057.978,383735.495,383738.5,2023-11-14T12:31:44Z,383752.477,NULL,Kultur,utamaduni,s,shetani,gerezani,mazingira,NA,qt,NA,3,NA,NA,NA,NA,NA,NA,NA,NA,NA,NA,NA,NA,NA,NA,NA,NA,NA,NA,NA
1ea2d,Deep Question,html.Page,3_0_3_0_1_0_0,NA,NA,form submission,12030.922999998,383738.6,383735.495,383752.477,395783.4,395783.5,2023-11-14T12:31:56Z,395794.71,NULL,Integrität,uadilifu,d,NA,NA,NA,ualilifu,NA,NA,3,NA,NA,NA,NA,NA,NA,NA,NA,NA,NA,NA,NA,NA,NA,NA,NA,NA,NA,NA
1ea2d,"""Richtig""-Screen",canvas.Screen,3_0_3_0_1_0_1,NA,NA,skipped,NA,395785.2,NA,NA,395783.4,395785.3,2023-11-14T12:31:56Z,395794.71,NULL,Integrität,uadilifu,d,NA,NA,NA,NA,qt,NA,3,NA,NA,NA,NA,NA,NA,NA,NA,NA,NA,NA,NA,NA,NA,NA,NA,NA,NA,NA
1ea2d,"""Falsch""-Screen",canvas.Screen,3_0_3_0_1_0_2,NA,NA,timeout,4997.364,395785.9,395778.121,395794.71,400775.395,400776.3,2023-11-14T12:32:01Z,400792.074,NULL,Integrität,uadilifu,d,NA,NA,NA,NA,qt,0,3,NA,NA,NA,NA,NA,NA,NA,NA,NA,NA,NA,NA,NA,NA,NA,NA,NA,NA,NA
1ea2d,deep,flow.Sequence,3_0_3_0_1_0,NA,NA,completion,17022.918,383738.6,383735.495,383752.477,400775.395,400776.7,2023-11-14T12:32:01Z,400792.074,NULL,Integrität,uadilifu,d,NA,NA,NA,NA,qt,NA,3,NA,NA,NA,NA,NA,NA,NA,NA,NA,NA,NA,NA,NA,NA,NA,NA,NA,NA,NA
1ea2d,shallow,flow.Sequence,3_0_3_0_1_1,NA,NA,skipped,NA,400776.9,NA,NA,400775.395,400777,2023-11-14T12:32:01Z,400792.074,NULL,Integrität,uadilifu,d,NA,NA,NA,NA,qt,NA,3,NA,NA,NA,NA,NA,NA,NA,NA,NA,NA,NA,NA,NA,NA,NA,NA,NA,NA,NA
1ea2d,task,flow.Sequence,3_0_3_0_1,NA,NA,completion,17022.918,383738.6,383735.495,383752.477,400775.395,400777.2,2023-11-14T12:32:01Z,400792.074,NULL,Integrität,uadilifu,d,NA,NA,NA,NA,qt,NA,3,NA,NA,NA,NA,NA,NA,NA,NA,NA,NA,NA,NA,NA,NA,NA,NA,NA,NA,NA
1ea2d,Deep Question,html.Page,3_0_3_0_2_0_0,NA,NA,form submission,4306.7260000044,400777.5,400775.395,400792.074,405098.8,405099,2023-11-14T12:32:05Z,405105.72,NULL,Fleisch,mshakiki,d,NA,NA,NA,mshakiki,NA,NA,3,NA,NA,NA,NA,NA,NA,NA,NA,NA,NA,NA,NA,NA,NA,NA,NA,NA,NA,NA
1ea2d,"""Richtig""-Screen",canvas.Screen,3_0_3_0_2_0_1,NA,NA,timeout,4997.36,405102.2,405089.285,405105.72,410086.575,410087.5,2023-11-14T12:32:10Z,410103.08,NULL,Fleisch,mshakiki,d,NA,NA,NA,NA,qt,1,3,NA,NA,NA,NA,NA,NA,NA,NA,NA,NA,NA,NA,NA,NA,NA,NA,NA,NA,NA
1ea2d,"""Falsch""-Screen",canvas.Screen,3_0_3_0_2_0_2,NA,NA,skipped,NA,410093,NA,NA,410086.575,410093,2023-11-14T12:32:10Z,410103.08,NULL,Fleisch,mshakiki,d,NA,NA,NA,NA,qt,NA,3,NA,NA,NA,NA,NA,NA,NA,NA,NA,NA,NA,NA,NA,NA,NA,NA,NA,NA,NA
1ea2d,deep,flow.Sequence,3_0_3_0_2_0,NA,NA,completion,9294.501,400777.5,400775.395,400792.074,410086.575,410093,2023-11-14T12:32:10Z,410103.08,NULL,Fleisch,mshakiki,d,NA,NA,NA,NA,qt,NA,3,NA,NA,NA,NA,NA,NA,NA,NA,NA,NA,NA,NA,NA,NA,NA,NA,NA,NA,NA
1ea2d,shallow,flow.Sequence,3_0_3_0_2_1,NA,NA,skipped,NA,410093.1,NA,NA,410086.575,410093.1,2023-11-14T12:32:10Z,410103.08,NULL,Fleisch,mshakiki,d,NA,NA,NA,NA,qt,NA,3,NA,NA,NA,NA,NA,NA,NA,NA,NA,NA,NA,NA,NA,NA,NA,NA,NA,NA,NA
1ea2d,task,flow.Sequence,3_0_3_0_2,NA,NA,completion,9294.501,400777.4,400775.395,400792.074,410086.575,410093.2,2023-11-14T12:32:10Z,410103.08,NULL,Fleisch,mshakiki,d,NA,NA,NA,NA,qt,NA,3,NA,NA,NA,NA,NA,NA,NA,NA,NA,NA,NA,NA,NA,NA,NA,NA,NA,NA,NA
1ea2d,Deep Question,html.Page,3_0_3_0_3_0_0,NA,NA,form submission,10225.020000001,410093.3,410086.575,410103.08,420328.1,420328.4,2023-11-14T12:32:21Z,420346.837,NULL,Aufstand,ugomaji,d,NA,NA,NA,magijo,NA,NA,3,NA,NA,NA,NA,NA,NA,NA,NA,NA,NA,NA,NA,NA,NA,NA,NA,NA,NA,NA
1ea2d,"""Richtig""-Screen",canvas.Screen,3_0_3_0_3_0_1,NA,NA,skipped,NA,420331.6,NA,NA,420328.1,420331.8,2023-11-14T12:32:21Z,420346.837,NULL,Aufstand,ugomaji,d,NA,NA,NA,NA,qt,NA,3,NA,NA,NA,NA,NA,NA,NA,NA,NA,NA,NA,NA,NA,NA,NA,NA,NA,NA,NA
1ea2d,"""Falsch""-Screen",canvas.Screen,3_0_3_0_3_0_2,NA,NA,timeout,4996.951,420332.5,420329.836,420346.837,425327.057,425328.1,2023-11-14T12:32:26Z,425343.788,NULL,Aufstand,ugomaji,d,NA,NA,NA,NA,qt,0,3,NA,NA,NA,NA,NA,NA,NA,NA,NA,NA,NA,NA,NA,NA,NA,NA,NA,NA,NA
1ea2d,deep,flow.Sequence,3_0_3_0_3_0,NA,NA,completion,15223.977,410093.3,410086.575,410103.08,425327.057,425328.4,2023-11-14T12:32:26Z,425343.788,NULL,Aufstand,ugomaji,d,NA,NA,NA,NA,qt,NA,3,NA,NA,NA,NA,NA,NA,NA,NA,NA,NA,NA,NA,NA,NA,NA,NA,NA,NA,NA
1ea2d,shallow,flow.Sequence,3_0_3_0_3_1,NA,NA,skipped,NA,425328.7,NA,NA,425327.057,425328.8,2023-11-14T12:32:26Z,425343.788,NULL,Aufstand,ugomaji,d,NA,NA,NA,NA,qt,NA,3,NA,NA,NA,NA,NA,NA,NA,NA,NA,NA,NA,NA,NA,NA,NA,NA,NA,NA,NA
1ea2d,task,flow.Sequence,3_0_3_0_3,NA,NA,completion,15223.977,410093.3,410086.575,410103.08,425327.057,425329,2023-11-14T12:32:26Z,425343.788,NULL,Aufstand,ugomaji,d,NA,NA,NA,NA,qt,NA,3,NA,NA,NA,NA,NA,NA,NA,NA,NA,NA,NA,NA,NA,NA,NA,NA,NA,NA,NA
1ea2d,Deep Question,html.Page,3_0_3_0_4_0_0,NA,NA,form submission,12464.512000004,425329.3,425327.057,425343.788,437808.3,437808.5,2023-11-14T12:32:38Z,437835.842,NULL,Prüfung,mtihani,d,NA,NA,NA,mtihani,NA,NA,3,NA,NA,NA,NA,NA,NA,NA,NA,NA,NA,NA,NA,NA,NA,NA,NA,NA,NA,NA
1ea2d,"""Richtig""-Screen",canvas.Screen,3_0_3_0_4_0_1,NA,NA,timeout,4997.347,437810.4,437819.276,437835.842,442816.61,442817.4,2023-11-14T12:32:43Z,442833.189,NULL,Prüfung,mtihani,d,NA,NA,NA,NA,qt,1,3,NA,NA,NA,NA,NA,NA,NA,NA,NA,NA,NA,NA,NA,NA,NA,NA,NA,NA,NA
1ea2d,"""Falsch""-Screen",canvas.Screen,3_0_3_0_4_0_2,NA,NA,skipped,NA,442822.8,NA,NA,442816.61,442823,2023-11-14T12:32:43Z,442833.189,NULL,Prüfung,mtihani,d,NA,NA,NA,NA,qt,NA,3,NA,NA,NA,NA,NA,NA,NA,NA,NA,NA,NA,NA,NA,NA,NA,NA,NA,NA,NA
1ea2d,deep,flow.Sequence,3_0_3_0_4_0,NA,NA,completion,17472.822,425329.1,425327.057,425343.788,442816.61,442823,2023-11-14T12:32:43Z,442833.189,NULL,Prüfung,mtihani,d,NA,NA,NA,NA,qt,NA,3,NA,NA,NA,NA,NA,NA,NA,NA,NA,NA,NA,NA,NA,NA,NA,NA,NA,NA,NA
1ea2d,shallow,flow.Sequence,3_0_3_0_4_1,NA,NA,skipped,NA,442823,NA,NA,442816.61,442823.1,2023-11-14T12:32:43Z,442833.189,NULL,Prüfung,mtihani,d,NA,NA,NA,NA,qt,NA,3,NA,NA,NA,NA,NA,NA,NA,NA,NA,NA,NA,NA,NA,NA,NA,NA,NA,NA,NA
1ea2d,task,flow.Sequence,3_0_3_0_4,NA,NA,completion,17472.822,425329.1,425327.057,425343.788,442816.61,442823.2,2023-11-14T12:32:43Z,442833.189,NULL,Prüfung,mtihani,d,NA,NA,NA,NA,qt,NA,3,NA,NA,NA,NA,NA,NA,NA,NA,NA,NA,NA,NA,NA,NA,NA,NA,NA,NA,NA
1ea2d,deep,flow.Sequence,3_0_3_0_5_0,NA,NA,skipped,NA,442823.2,NA,NA,442816.61,442823.2,2023-11-14T12:32:43Z,442833.189,NULL,Genehmigung,idhini,s,mwanamke,itikadi,fedheha,NA,qt,NA,3,NA,NA,NA,NA,NA,NA,NA,NA,NA,NA,NA,NA,NA,NA,NA,NA,NA,NA,NA
1ea2d,Shallow Question,html.Page,3_0_3_0_5_1_0,NA,NA,form submission,3191.2109999985,442823.2,442816.61,442833.189,446024.4,446024.5,2023-11-14T12:32:46Z,446030.796,NULL,Genehmigung,idhini,s,mwanamke,itikadi,fedheha,idhini,NA,NA,3,NA,NA,NA,NA,NA,NA,NA,NA,NA,NA,NA,NA,NA,NA,NA,NA,NA,NA,NA
1ea2d,"""Richtig""-Screen",canvas.Screen,3_0_3_0_5_1_1,NA,NA,timeout,4997.463,446027.6,446014.039,446030.796,451011.136,451013.7,2023-11-14T12:32:51Z,451028.259,NULL,Genehmigung,idhini,s,mwanamke,itikadi,fedheha,NA,qt,1,3,NA,NA,NA,NA,NA,NA,NA,NA,NA,NA,NA,NA,NA,NA,NA,NA,NA,NA,NA
1ea2d,"""Falsch""-Screen",canvas.Screen,3_0_3_0_5_1_2,NA,NA,skipped,NA,451018.4,NA,NA,451011.136,451018.5,2023-11-14T12:32:51Z,451028.259,NULL,Genehmigung,idhini,s,mwanamke,itikadi,fedheha,NA,qt,NA,3,NA,NA,NA,NA,NA,NA,NA,NA,NA,NA,NA,NA,NA,NA,NA,NA,NA,NA,NA
1ea2d,shallow,flow.Sequence,3_0_3_0_5_1,NA,NA,completion,8177.947,442823.2,442816.61,442833.189,451011.136,451018.6,2023-11-14T12:32:51Z,451028.259,NULL,Genehmigung,idhini,s,mwanamke,itikadi,fedheha,NA,qt,NA,3,NA,NA,NA,NA,NA,NA,NA,NA,NA,NA,NA,NA,NA,NA,NA,NA,NA,NA,NA
1ea2d,task,flow.Sequence,3_0_3_0_5,NA,NA,completion,8177.947,442823.2,442816.61,442833.189,451011.136,451018.6,2023-11-14T12:32:51Z,451028.259,NULL,Genehmigung,idhini,s,mwanamke,itikadi,fedheha,NA,qt,NA,3,NA,NA,NA,NA,NA,NA,NA,NA,NA,NA,NA,NA,NA,NA,NA,NA,NA,NA,NA
1ea2d,deep,flow.Sequence,3_0_3_0_6_0,NA,NA,skipped,NA,451018.7,NA,NA,451011.136,451018.8,2023-11-14T12:32:51Z,451028.259,NULL,Verzögerung,kuchelewa,s,mwakilishi,mwanauchumi,jaribio,NA,qt,NA,3,NA,NA,NA,NA,NA,NA,NA,NA,NA,NA,NA,NA,NA,NA,NA,NA,NA,NA,NA
1ea2d,Shallow Question,html.Page,3_0_3_0_6_1_0,NA,NA,form submission,3185.3410000015,451018.9,451011.136,451028.259,454213.6,454213.7,2023-11-14T12:32:55Z,454226.257,NULL,Verzögerung,kuchelewa,s,mwakilishi,mwanauchumi,jaribio,kuchelewa,NA,NA,3,NA,NA,NA,NA,NA,NA,NA,NA,NA,NA,NA,NA,NA,NA,NA,NA,NA,NA,NA
1ea2d,"""Richtig""-Screen",canvas.Screen,3_0_3_0_6_1_1,NA,NA,timeout,4996.878,454215.1,454209.393,454226.257,459206.672,459207.1,2023-11-14T12:33:00Z,459223.135,NULL,Verzögerung,kuchelewa,s,mwakilishi,mwanauchumi,jaribio,NA,qt,1,3,NA,NA,NA,NA,NA,NA,NA,NA,NA,NA,NA,NA,NA,NA,NA,NA,NA,NA,NA
1ea2d,"""Falsch""-Screen",canvas.Screen,3_0_3_0_6_1_2,NA,NA,skipped,NA,459209,NA,NA,459206.672,459209.2,2023-11-14T12:33:00Z,459223.135,NULL,Verzögerung,kuchelewa,s,mwakilishi,mwanauchumi,jaribio,NA,qt,NA,3,NA,NA,NA,NA,NA,NA,NA,NA,NA,NA,NA,NA,NA,NA,NA,NA,NA,NA,NA
1ea2d,shallow,flow.Sequence,3_0_3_0_6_1,NA,NA,completion,8178.413,451018.8,451011.136,451028.259,459206.672,459209.2,2023-11-14T12:33:00Z,459223.135,NULL,Verzögerung,kuchelewa,s,mwakilishi,mwanauchumi,jaribio,NA,qt,NA,3,NA,NA,NA,NA,NA,NA,NA,NA,NA,NA,NA,NA,NA,NA,NA,NA,NA,NA,NA
1ea2d,task,flow.Sequence,3_0_3_0_6,NA,NA,completion,8178.413,451018.7,451011.136,451028.259,459206.672,459209.3,2023-11-14T12:33:00Z,459223.135,NULL,Verzögerung,kuchelewa,s,mwakilishi,mwanauchumi,jaribio,NA,qt,NA,3,NA,NA,NA,NA,NA,NA,NA,NA,NA,NA,NA,NA,NA,NA,NA,NA,NA,NA,NA
1ea2d,deep,flow.Sequence,3_0_3_0_7_0,NA,NA,skipped,NA,459209.4,NA,NA,459206.672,459209.5,2023-11-14T12:33:00Z,459223.135,NULL,Begegnung,kukutana,s,mmasihiya,mpiganaji,husiano,NA,qt,NA,3,NA,NA,NA,NA,NA,NA,NA,NA,NA,NA,NA,NA,NA,NA,NA,NA,NA,NA,NA
1ea2d,Shallow Question,html.Page,3_0_3_0_7_1_0,NA,NA,form submission,2863.365,459209.5,459206.672,459223.135,462086.5,462086.7,2023-11-14T12:33:02Z,462087.708,NULL,Begegnung,kukutana,s,mmasihiya,mpiganaji,husiano,kukutana,NA,NA,3,NA,NA,NA,NA,NA,NA,NA,NA,NA,NA,NA,NA,NA,NA,NA,NA,NA,NA,NA
1ea2d,"""Richtig""-Screen",canvas.Screen,3_0_3_0_7_1_1,NA,NA,timeout,4997.392,462089.7,462071.295,462087.708,467068.229,467069.1,2023-11-14T12:33:07Z,467085.1,NULL,Begegnung,kukutana,s,mmasihiya,mpiganaji,husiano,NA,qt,1,3,NA,NA,NA,NA,NA,NA,NA,NA,NA,NA,NA,NA,NA,NA,NA,NA,NA,NA,NA
1ea2d,"""Falsch""-Screen",canvas.Screen,3_0_3_0_7_1_2,NA,NA,skipped,NA,467074.3,NA,NA,467068.229,467074.4,2023-11-14T12:33:07Z,467085.1,NULL,Begegnung,kukutana,s,mmasihiya,mpiganaji,husiano,NA,qt,NA,3,NA,NA,NA,NA,NA,NA,NA,NA,NA,NA,NA,NA,NA,NA,NA,NA,NA,NA,NA
1ea2d,shallow,flow.Sequence,3_0_3_0_7_1,NA,NA,completion,7845.094,459209.5,459206.672,459223.135,467068.229,467074.5,2023-11-14T12:33:07Z,467085.1,NULL,Begegnung,kukutana,s,mmasihiya,mpiganaji,husiano,NA,qt,NA,3,NA,NA,NA,NA,NA,NA,NA,NA,NA,NA,NA,NA,NA,NA,NA,NA,NA,NA,NA
1ea2d,task,flow.Sequence,3_0_3_0_7,NA,NA,completion,7845.094,459209.4,459206.672,459223.135,467068.229,467074.6,2023-11-14T12:33:07Z,467085.1,NULL,Begegnung,kukutana,s,mmasihiya,mpiganaji,husiano,NA,qt,NA,3,NA,NA,NA,NA,NA,NA,NA,NA,NA,NA,NA,NA,NA,NA,NA,NA,NA,NA,NA
1ea2d,block,flow.Loop,3_0_3_0,NA,NA,completion,93010.251,374054,374041.238,374057.978,467068.229,467074.7,2023-11-14T12:33:07Z,467085.1,NULL,NA,NA,NA,NA,NA,NA,NA,qt,NA,3,NA,NA,NA,NA,NA,NA,NA,NA,NA,NA,NA,NA,NA,NA,NA,NA,NA,NA,NA
1ea2d,weiter,canvas.Screen,3_0_3_1,sdf,keypress(Space),response,1077.4,467074.8,467068.229,467085.1,468162.5,468163.4,2023-11-14T12:33:09Z,468533.689,NULL,NA,NA,NA,NA,NA,NA,NA,qt,NA,3,NA,NA,NA,NA,NA,NA,NA,NA,NA,NA,NA,NA,NA,NA,NA,NA,NA,NA,NA
1ea2d,check continue,flow.Sequence,3_0_3,NA,NA,completion,94104.522,374054,374041.238,374057.978,468162.5,468163.6,2023-11-14T12:33:09Z,468533.689,NULL,NA,NA,NA,NA,NA,NA,NA,qt,NA,3,NA,NA,NA,NA,NA,NA,NA,NA,NA,NA,NA,NA,NA,NA,NA,NA,NA,NA,NA
1ea2d,check continue,flow.Sequence,3_0_4,NA,NA,skipped,NA,468185.1,NA,NA,468162.5,468185.2,2023-11-14T12:33:09Z,468533.689,NULL,NA,NA,NA,NA,NA,NA,NA,sd,NA,4,NA,NA,NA,NA,NA,NA,NA,NA,NA,NA,NA,NA,NA,NA,NA,NA,NA,NA,NA
1ea2d,check continue,flow.Sequence,3_0_5,NA,NA,skipped,NA,468206.4,NA,NA,468162.5,468206.5,2023-11-14T12:33:09Z,468533.689,NULL,NA,NA,NA,NA,NA,NA,NA,sdf,NA,5,NA,NA,NA,NA,NA,NA,NA,NA,NA,NA,NA,NA,NA,NA,NA,NA,NA,NA,NA
1ea2d,check continue,flow.Sequence,3_0_6,NA,NA,skipped,NA,468229.6,NA,NA,468162.5,468229.7,2023-11-14T12:33:09Z,468533.689,NULL,NA,NA,NA,NA,NA,NA,NA,dfs,NA,6,NA,NA,NA,NA,NA,NA,NA,NA,NA,NA,NA,NA,NA,NA,NA,NA,NA,NA,NA
1ea2d,check continue,flow.Sequence,3_0_7,NA,NA,skipped,NA,468244.6,NA,NA,468162.5,468244.6,2023-11-14T12:33:09Z,468533.689,NULL,NA,NA,NA,NA,NA,NA,NA,df,NA,7,NA,NA,NA,NA,NA,NA,NA,NA,NA,NA,NA,NA,NA,NA,NA,NA,NA,NA,NA
1ea2d,check continue,flow.Sequence,3_0_8,NA,NA,skipped,NA,468258.9,NA,NA,468162.5,468259,2023-11-14T12:33:09Z,468533.689,NULL,NA,NA,NA,NA,NA,NA,NA,dfs,NA,8,NA,NA,NA,NA,NA,NA,NA,NA,NA,NA,NA,NA,NA,NA,NA,NA,NA,NA,NA
1ea2d,check continue,flow.Sequence,3_0_9,NA,NA,skipped,NA,468273.5,NA,NA,468162.5,468273.5,2023-11-14T12:33:09Z,468533.689,NULL,NA,NA,NA,NA,NA,NA,NA,dsf,NA,9,NA,NA,NA,NA,NA,NA,NA,NA,NA,NA,NA,NA,NA,NA,NA,NA,NA,NA,NA
1ea2d,check continue,flow.Sequence,3_0_10,NA,NA,skipped,NA,468288.1,NA,NA,468162.5,468288.2,2023-11-14T12:33:09Z,468533.689,NULL,NA,NA,NA,NA,NA,NA,NA,df,NA,10,NA,NA,NA,NA,NA,NA,NA,NA,NA,NA,NA,NA,NA,NA,NA,NA,NA,NA,NA
1ea2d,check continue,flow.Sequence,3_0_11,NA,NA,skipped,NA,468301.2,NA,NA,468162.5,468301.2,2023-11-14T12:33:09Z,468533.689,NULL,NA,NA,NA,NA,NA,NA,NA,dfs,NA,11,NA,NA,NA,NA,NA,NA,NA,NA,NA,NA,NA,NA,NA,NA,NA,NA,NA,NA,NA
1ea2d,check continue,flow.Sequence,3_0_12,NA,NA,skipped,NA,468314.1,NA,NA,468162.5,468314.1,2023-11-14T12:33:09Z,468533.689,NULL,NA,NA,NA,NA,NA,NA,NA,dsf,NA,12,NA,NA,NA,NA,NA,NA,NA,NA,NA,NA,NA,NA,NA,NA,NA,NA,NA,NA,NA
1ea2d,check continue,flow.Sequence,3_0_13,NA,NA,skipped,NA,468326.7,NA,NA,468162.5,468326.8,2023-11-14T12:33:09Z,468533.689,NULL,NA,NA,NA,NA,NA,NA,NA,dsf,NA,13,NA,NA,NA,NA,NA,NA,NA,NA,NA,NA,NA,NA,NA,NA,NA,NA,NA,NA,NA
1ea2d,check continue,flow.Sequence,3_0_14,NA,NA,skipped,NA,468339,NA,NA,468162.5,468339.1,2023-11-14T12:33:09Z,468533.689,NULL,NA,NA,NA,NA,NA,NA,NA,NA,NA,14,NA,NA,NA,NA,NA,NA,NA,NA,NA,NA,NA,NA,NA,NA,NA,NA,NA,NA,NA
1ea2d,check continue,flow.Sequence,3_0_15,NA,NA,skipped,NA,468351.8,NA,NA,468162.5,468351.8,2023-11-14T12:33:09Z,468533.689,NULL,NA,NA,NA,NA,NA,NA,NA,NA,NA,15,NA,NA,NA,NA,NA,NA,NA,NA,NA,NA,NA,NA,NA,NA,NA,NA,NA,NA,NA
1ea2d,check continue,flow.Sequence,3_0_16,NA,NA,skipped,NA,468363.8,NA,NA,468162.5,468363.8,2023-11-14T12:33:09Z,468533.689,NULL,NA,NA,NA,NA,NA,NA,NA,NA,NA,16,NA,NA,NA,NA,NA,NA,NA,NA,NA,NA,NA,NA,NA,NA,NA,NA,NA,NA,NA
1ea2d,check continue,flow.Sequence,3_0_17,NA,NA,skipped,NA,468377.6,NA,NA,468162.5,468377.7,2023-11-14T12:33:09Z,468533.689,NULL,NA,NA,NA,NA,NA,NA,NA,NA,NA,17,NA,NA,NA,NA,NA,NA,NA,NA,NA,NA,NA,NA,NA,NA,NA,NA,NA,NA,NA
1ea2d,check continue,flow.Sequence,3_0_18,NA,NA,skipped,NA,468389.5,NA,NA,468162.5,468389.6,2023-11-14T12:33:09Z,468533.689,NULL,NA,NA,NA,NA,NA,NA,NA,NA,NA,18,NA,NA,NA,NA,NA,NA,NA,NA,NA,NA,NA,NA,NA,NA,NA,NA,NA,NA,NA
1ea2d,check continue,flow.Sequence,3_0_19,NA,NA,skipped,NA,468403.7,NA,NA,468162.5,468403.8,2023-11-14T12:33:09Z,468533.689,NULL,NA,NA,NA,NA,NA,NA,NA,NA,NA,19,NA,NA,NA,NA,NA,NA,NA,NA,NA,NA,NA,NA,NA,NA,NA,NA,NA,NA,NA
1ea2d,check continue,flow.Sequence,3_0_20,NA,NA,skipped,NA,468415.8,NA,NA,468162.5,468415.8,2023-11-14T12:33:09Z,468533.689,NULL,NA,NA,NA,NA,NA,NA,NA,NA,NA,20,NA,NA,NA,NA,NA,NA,NA,NA,NA,NA,NA,NA,NA,NA,NA,NA,NA,NA,NA
1ea2d,check continue,flow.Sequence,3_0_21,NA,NA,skipped,NA,468428.6,NA,NA,468162.5,468428.6,2023-11-14T12:33:09Z,468533.689,NULL,NA,NA,NA,NA,NA,NA,NA,NA,NA,21,NA,NA,NA,NA,NA,NA,NA,NA,NA,NA,NA,NA,NA,NA,NA,NA,NA,NA,NA
1ea2d,check continue,flow.Sequence,3_0_22,NA,NA,skipped,NA,468440.3,NA,NA,468162.5,468440.3,2023-11-14T12:33:09Z,468533.689,NULL,NA,NA,NA,NA,NA,NA,NA,NA,NA,22,NA,NA,NA,NA,NA,NA,NA,NA,NA,NA,NA,NA,NA,NA,NA,NA,NA,NA,NA
1ea2d,check continue,flow.Sequence,3_0_23,NA,NA,skipped,NA,468453,NA,NA,468162.5,468453,2023-11-14T12:33:09Z,468533.689,NULL,NA,NA,NA,NA,NA,NA,NA,NA,NA,23,NA,NA,NA,NA,NA,NA,NA,NA,NA,NA,NA,NA,NA,NA,NA,NA,NA,NA,NA
1ea2d,check continue,flow.Sequence,3_0_24,NA,NA,skipped,NA,468464.8,NA,NA,468162.5,468464.9,2023-11-14T12:33:09Z,468533.689,NULL,NA,NA,NA,NA,NA,NA,NA,NA,NA,24,NA,NA,NA,NA,NA,NA,NA,NA,NA,NA,NA,NA,NA,NA,NA,NA,NA,NA,NA
1ea2d,check continue,flow.Sequence,3_0_25,NA,NA,skipped,NA,468477.5,NA,NA,468162.5,468477.6,2023-11-14T12:33:09Z,468533.689,NULL,NA,NA,NA,NA,NA,NA,NA,NA,NA,25,NA,NA,NA,NA,NA,NA,NA,NA,NA,NA,NA,NA,NA,NA,NA,NA,NA,NA,NA
1ea2d,check continue,flow.Sequence,3_0_26,NA,NA,skipped,NA,468489.1,NA,NA,468162.5,468489.1,2023-11-14T12:33:09Z,468533.689,NULL,NA,NA,NA,NA,NA,NA,NA,NA,NA,26,NA,NA,NA,NA,NA,NA,NA,NA,NA,NA,NA,NA,NA,NA,NA,NA,NA,NA,NA
1ea2d,check continue,flow.Sequence,3_0_27,NA,NA,skipped,NA,468500.4,NA,NA,468162.5,468500.4,2023-11-14T12:33:09Z,468533.689,NULL,NA,NA,NA,NA,NA,NA,NA,NA,NA,27,NA,NA,NA,NA,NA,NA,NA,NA,NA,NA,NA,NA,NA,NA,NA,NA,NA,NA,NA
1ea2d,check continue,flow.Sequence,3_0_28,NA,NA,skipped,NA,468513.3,NA,NA,468162.5,468513.3,2023-11-14T12:33:09Z,468533.689,NULL,NA,NA,NA,NA,NA,NA,NA,NA,NA,28,NA,NA,NA,NA,NA,NA,NA,NA,NA,NA,NA,NA,NA,NA,NA,NA,NA,NA,NA
1ea2d,check continue,flow.Sequence,3_0_29,NA,NA,skipped,NA,468525.2,NA,NA,468162.5,468525.3,2023-11-14T12:33:09Z,468533.689,NULL,NA,NA,NA,NA,NA,NA,NA,NA,NA,29,NA,NA,NA,NA,NA,NA,NA,NA,NA,NA,NA,NA,NA,NA,NA,NA,NA,NA,NA
1ea2d,until continue,flow.Loop,3_0,NA,NA,completion,348765.708,119362.1,119374.396,119396.792,468162.5,468525.4,2023-11-14T12:33:09Z,468533.689,NULL,NA,NA,NA,NA,NA,NA,NA,NA,NA,NA,NA,NA,NA,NA,NA,NA,NA,NA,NA,NA,NA,NA,NA,NA,NA,NA,NA,NA,NA
1ea2d,block 1,flow.Sequence,3,NA,NA,completion,348765.708,119361.9,119374.396,119396.792,468162.5,468525.5,2023-11-14T12:33:09Z,468533.689,NULL,NA,NA,NA,NA,NA,NA,NA,NA,NA,NA,NA,NA,NA,NA,NA,NA,NA,NA,NA,NA,NA,NA,NA,NA,NA,NA,NA,NA,NA
1ea2d,1.Part Over,canvas.Screen,4,NA,keypress(Space),response,2353.1110000045,468525.5,468516.587,468533.689,470886.8,470887.8,2023-11-14T12:33:11Z,470948.941,NULL,NA,NA,NA,NA,NA,NA,NA,NA,NA,NA,NA,NA,NA,NA,NA,NA,NA,NA,NA,NA,NA,NA,NA,NA,NA,NA,NA,NA,NA
1ea2d,deep,flow.Sequence,5_0_0_0_0_0,NA,NA,skipped,NA,470934.7,NA,NA,470886.8,470934.8,2023-11-14T12:33:11Z,470948.941,NULL,Flexibilität,kubadilika,s,enjini,usikilivu,hesabu,NA,sdf,NA,0,NA,NA,NA,NA,NA,NA,NA,NA,NA,NA,NA,NA,NA,NA,NA,NA,NA,NA,NA
1ea2d,Shallow Question,html.Page,5_0_0_0_0_1_0,NA,NA,form submission,4344.4589999985,470934.9,470932.461,470948.941,475293.4,475293.7,2023-11-14T12:33:16Z,475296.283,NULL,Flexibilität,kubadilika,s,enjini,usikilivu,hesabu,enjini,NA,NA,0,NA,NA,NA,NA,NA,NA,NA,NA,NA,NA,NA,NA,NA,NA,NA,NA,NA,NA,NA
1ea2d,"""Richtig""-Screen",canvas.Screen,5_0_0_0_0_1_1,NA,NA,skipped,NA,475296.7,NA,NA,475293.4,475296.8,2023-11-14T12:33:16Z,475296.283,NULL,Flexibilität,kubadilika,s,enjini,usikilivu,hesabu,NA,sdf,NA,0,NA,NA,NA,NA,NA,NA,NA,NA,NA,NA,NA,NA,NA,NA,NA,NA,NA,NA,NA
1ea2d,"""Falsch""-Screen",canvas.Screen,5_0_0_0_0_1_2,NA,NA,timeout,4997.317,475297.8,475280.008,475296.283,480276.88,480277.5,2023-11-14T12:33:21Z,480293.6,NULL,Flexibilität,kubadilika,s,enjini,usikilivu,hesabu,NA,sdf,0,0,NA,NA,NA,NA,NA,NA,NA,NA,NA,NA,NA,NA,NA,NA,NA,NA,NA,NA,NA
1ea2d,shallow,flow.Sequence,5_0_0_0_0_1,NA,NA,completion,9327.939,470934.9,470932.461,470948.941,480276.88,480277.8,2023-11-14T12:33:21Z,480293.6,NULL,Flexibilität,kubadilika,s,enjini,usikilivu,hesabu,NA,sdf,NA,0,NA,NA,NA,NA,NA,NA,NA,NA,NA,NA,NA,NA,NA,NA,NA,NA,NA,NA,NA
1ea2d,task,flow.Sequence,5_0_0_0_0,NA,NA,completion,9327.939,470934.7,470932.461,470948.941,480276.88,480277.9,2023-11-14T12:33:21Z,480293.6,NULL,Flexibilität,kubadilika,s,enjini,usikilivu,hesabu,NA,sdf,NA,0,NA,NA,NA,NA,NA,NA,NA,NA,NA,NA,NA,NA,NA,NA,NA,NA,NA,NA,NA
1ea2d,Deep Question,html.Page,5_0_0_0_1_0_0,NA,NA,form submission,2630.0000000015,480278.1,480276.88,480293.6,482923.6,482923.8,2023-11-14T12:33:23Z,482924.971,NULL,Erneuerung,ukarabati,d,NA,NA,NA,l,NA,NA,0,NA,NA,NA,NA,NA,NA,NA,NA,NA,NA,NA,NA,NA,NA,NA,NA,NA,NA,NA
1ea2d,"""Richtig""-Screen",canvas.Screen,5_0_0_0_1_0_1,NA,NA,skipped,NA,482927.2,NA,NA,482923.6,482927.4,2023-11-14T12:33:23Z,482924.971,NULL,Erneuerung,ukarabati,d,NA,NA,NA,NA,sdf,NA,0,NA,NA,NA,NA,NA,NA,NA,NA,NA,NA,NA,NA,NA,NA,NA,NA,NA,NA,NA
1ea2d,"""Falsch""-Screen",canvas.Screen,5_0_0_0_1_0_2,NA,NA,timeout,4997.357,482927.9,482908.378,482924.971,487905.513,487906.4,2023-11-14T12:33:28Z,487922.328,NULL,Erneuerung,ukarabati,d,NA,NA,NA,NA,sdf,0,0,NA,NA,NA,NA,NA,NA,NA,NA,NA,NA,NA,NA,NA,NA,NA,NA,NA,NA,NA
1ea2d,deep,flow.Sequence,5_0_0_0_1_0,NA,NA,completion,7611.913,480278.1,480276.88,480293.6,487905.513,487906.9,2023-11-14T12:33:28Z,487922.328,NULL,Erneuerung,ukarabati,d,NA,NA,NA,NA,sdf,NA,0,NA,NA,NA,NA,NA,NA,NA,NA,NA,NA,NA,NA,NA,NA,NA,NA,NA,NA,NA
1ea2d,shallow,flow.Sequence,5_0_0_0_1_1,NA,NA,skipped,NA,487907.1,NA,NA,487905.513,487907.2,2023-11-14T12:33:28Z,487922.328,NULL,Erneuerung,ukarabati,d,NA,NA,NA,NA,sdf,NA,0,NA,NA,NA,NA,NA,NA,NA,NA,NA,NA,NA,NA,NA,NA,NA,NA,NA,NA,NA
1ea2d,task,flow.Sequence,5_0_0_0_1,NA,NA,completion,7611.913,480278,480276.88,480293.6,487905.513,487907.5,2023-11-14T12:33:28Z,487922.328,NULL,Erneuerung,ukarabati,d,NA,NA,NA,NA,sdf,NA,0,NA,NA,NA,NA,NA,NA,NA,NA,NA,NA,NA,NA,NA,NA,NA,NA,NA,NA,NA
1ea2d,deep,flow.Sequence,5_0_0_0_2_0,NA,NA,skipped,NA,487907.6,NA,NA,487905.513,487907.7,2023-11-14T12:33:28Z,487922.328,NULL,Atmosphäre,angahewa,s,kuteseka,usahihi,kutoamini,NA,sdf,NA,0,NA,NA,NA,NA,NA,NA,NA,NA,NA,NA,NA,NA,NA,NA,NA,NA,NA,NA,NA
1ea2d,Shallow Question,html.Page,5_0_0_0_2_1_0,NA,NA,form submission,2531.4720000045,487907.8,487905.513,487922.328,490453.8,490454,2023-11-14T12:33:31Z,490472.195,NULL,Atmosphäre,angahewa,s,kuteseka,usahihi,kutoamini,kutoamini,NA,NA,0,NA,NA,NA,NA,NA,NA,NA,NA,NA,NA,NA,NA,NA,NA,NA,NA,NA,NA,NA
1ea2d,"""Richtig""-Screen",canvas.Screen,5_0_0_0_2_1_1,NA,NA,skipped,NA,490456,NA,NA,490453.8,490456.1,2023-11-14T12:33:31Z,490472.195,NULL,Atmosphäre,angahewa,s,kuteseka,usahihi,kutoamini,NA,sdf,NA,0,NA,NA,NA,NA,NA,NA,NA,NA,NA,NA,NA,NA,NA,NA,NA,NA,NA,NA,NA
1ea2d,"""Falsch""-Screen",canvas.Screen,5_0_0_0_2_1_2,NA,NA,timeout,4995.747,490456.7,490437.633,490472.195,495451.001,495451.8,2023-11-14T12:33:36Z,495467.942,NULL,Atmosphäre,angahewa,s,kuteseka,usahihi,kutoamini,NA,sdf,0,0,NA,NA,NA,NA,NA,NA,NA,NA,NA,NA,NA,NA,NA,NA,NA,NA,NA,NA,NA
1ea2d,shallow,flow.Sequence,5_0_0_0_2_1,NA,NA,completion,7528.673,487907.8,487905.513,487922.328,495451.001,495452.4,2023-11-14T12:33:36Z,495467.942,NULL,Atmosphäre,angahewa,s,kuteseka,usahihi,kutoamini,NA,sdf,NA,0,NA,NA,NA,NA,NA,NA,NA,NA,NA,NA,NA,NA,NA,NA,NA,NA,NA,NA,NA
1ea2d,task,flow.Sequence,5_0_0_0_2,NA,NA,completion,7528.673,487907.6,487905.513,487922.328,495451.001,495452.7,2023-11-14T12:33:36Z,495467.942,NULL,Atmosphäre,angahewa,s,kuteseka,usahihi,kutoamini,NA,sdf,NA,0,NA,NA,NA,NA,NA,NA,NA,NA,NA,NA,NA,NA,NA,NA,NA,NA,NA,NA,NA
1ea2d,deep,flow.Sequence,5_0_0_0_3_0,NA,NA,skipped,NA,495452.9,NA,NA,495451.001,495453,2023-11-14T12:33:36Z,495467.942,NULL,Kanzler,diwani,s,rasilmali,mahitaji,maabudu,NA,sdf,NA,0,NA,NA,NA,NA,NA,NA,NA,NA,NA,NA,NA,NA,NA,NA,NA,NA,NA,NA,NA
1ea2d,Shallow Question,html.Page,5_0_0_0_3_1_0,NA,NA,form submission,3004.258000003,495453.3,495451.001,495467.942,498472.2,498472.4,2023-11-14T12:33:39Z,498482.372,NULL,Kanzler,diwani,s,rasilmali,mahitaji,maabudu,diwani,NA,NA,0,NA,NA,NA,NA,NA,NA,NA,NA,NA,NA,NA,NA,NA,NA,NA,NA,NA,NA,NA
1ea2d,"""Richtig""-Screen",canvas.Screen,5_0_0_0_3_1_1,NA,NA,timeout,4996.83,498475.5,498465.076,498482.372,503462.596,503463.4,2023-11-14T12:33:44Z,503479.202,NULL,Kanzler,diwani,s,rasilmali,mahitaji,maabudu,NA,sdf,1,0,NA,NA,NA,NA,NA,NA,NA,NA,NA,NA,NA,NA,NA,NA,NA,NA,NA,NA,NA
1ea2d,"""Falsch""-Screen",canvas.Screen,5_0_0_0_3_1_2,NA,NA,skipped,NA,503468.1,NA,NA,503462.596,503468.2,2023-11-14T12:33:44Z,503479.202,NULL,Kanzler,diwani,s,rasilmali,mahitaji,maabudu,NA,sdf,NA,0,NA,NA,NA,NA,NA,NA,NA,NA,NA,NA,NA,NA,NA,NA,NA,NA,NA,NA,NA
1ea2d,shallow,flow.Sequence,5_0_0_0_3_1,NA,NA,completion,7994.654,495453.2,495451.001,495467.942,503462.596,503468.4,2023-11-14T12:33:44Z,503479.202,NULL,Kanzler,diwani,s,rasilmali,mahitaji,maabudu,NA,sdf,NA,0,NA,NA,NA,NA,NA,NA,NA,NA,NA,NA,NA,NA,NA,NA,NA,NA,NA,NA,NA
1ea2d,task,flow.Sequence,5_0_0_0_3,NA,NA,completion,7994.654,495452.8,495451.001,495467.942,503462.596,503468.4,2023-11-14T12:33:44Z,503479.202,NULL,Kanzler,diwani,s,rasilmali,mahitaji,maabudu,NA,sdf,NA,0,NA,NA,NA,NA,NA,NA,NA,NA,NA,NA,NA,NA,NA,NA,NA,NA,NA,NA,NA
1ea2d,Deep Question,html.Page,5_0_0_0_4_0_0,NA,NA,form submission,2752.498000003,503468.5,503462.596,503479.202,506231.7,506232,2023-11-14T12:33:47Z,506244.065,NULL,Sänger,mwimbaji,d,NA,NA,NA,l,NA,NA,0,NA,NA,NA,NA,NA,NA,NA,NA,NA,NA,NA,NA,NA,NA,NA,NA,NA,NA,NA
1ea2d,"""Richtig""-Screen",canvas.Screen,5_0_0_0_4_0_1,NA,NA,skipped,NA,506233.2,NA,NA,506231.7,506233.4,2023-11-14T12:33:47Z,506244.065,NULL,Sänger,mwimbaji,d,NA,NA,NA,NA,sdf,NA,0,NA,NA,NA,NA,NA,NA,NA,NA,NA,NA,NA,NA,NA,NA,NA,NA,NA,NA,NA
1ea2d,"""Falsch""-Screen",canvas.Screen,5_0_0_0_4_0_2,NA,NA,timeout,4997.01,506234.1,506227.886,506244.065,511224.633,511225.6,2023-11-14T12:33:52Z,511241.075,NULL,Sänger,mwimbaji,d,NA,NA,NA,NA,sdf,0,0,NA,NA,NA,NA,NA,NA,NA,NA,NA,NA,NA,NA,NA,NA,NA,NA,NA,NA,NA
1ea2d,deep,flow.Sequence,5_0_0_0_4_0,NA,NA,completion,7745.431,503468.5,503462.596,503479.202,511224.633,511225.9,2023-11-14T12:33:52Z,511241.075,NULL,Sänger,mwimbaji,d,NA,NA,NA,NA,sdf,NA,0,NA,NA,NA,NA,NA,NA,NA,NA,NA,NA,NA,NA,NA,NA,NA,NA,NA,NA,NA
1ea2d,shallow,flow.Sequence,5_0_0_0_4_1,NA,NA,skipped,NA,511226.2,NA,NA,511224.633,511226.3,2023-11-14T12:33:52Z,511241.075,NULL,Sänger,mwimbaji,d,NA,NA,NA,NA,sdf,NA,0,NA,NA,NA,NA,NA,NA,NA,NA,NA,NA,NA,NA,NA,NA,NA,NA,NA,NA,NA
1ea2d,task,flow.Sequence,5_0_0_0_4,NA,NA,completion,7745.431,503468.5,503462.596,503479.202,511224.633,511226.6,2023-11-14T12:33:52Z,511241.075,NULL,Sänger,mwimbaji,d,NA,NA,NA,NA,sdf,NA,0,NA,NA,NA,NA,NA,NA,NA,NA,NA,NA,NA,NA,NA,NA,NA,NA,NA,NA,NA
1ea2d,deep,flow.Sequence,5_0_0_0_5_0,NA,NA,skipped,NA,511226.7,NA,NA,511224.633,511226.8,2023-11-14T12:33:52Z,511241.075,NULL,Abrechnung,uhasibu,s,kusahihisha,mpambano,mashambulizi,NA,sdf,NA,0,NA,NA,NA,NA,NA,NA,NA,NA,NA,NA,NA,NA,NA,NA,NA,NA,NA,NA,NA
1ea2d,Shallow Question,html.Page,5_0_0_0_5_1_0,NA,NA,form submission,4230.5250000015,511227.1,511224.633,511241.075,515471.6,515471.8,2023-11-14T12:33:56Z,515489.066,NULL,Abrechnung,uhasibu,s,kusahihisha,mpambano,mashambulizi,mashambulizi,NA,NA,0,NA,NA,NA,NA,NA,NA,NA,NA,NA,NA,NA,NA,NA,NA,NA,NA,NA,NA,NA
1ea2d,"""Richtig""-Screen",canvas.Screen,5_0_0_0_5_1_1,NA,NA,skipped,NA,515474,NA,NA,515471.6,515474.1,2023-11-14T12:33:56Z,515489.066,NULL,Abrechnung,uhasibu,s,kusahihisha,mpambano,mashambulizi,NA,sdf,NA,0,NA,NA,NA,NA,NA,NA,NA,NA,NA,NA,NA,NA,NA,NA,NA,NA,NA,NA,NA
1ea2d,"""Falsch""-Screen",canvas.Screen,5_0_0_0_5_1_2,NA,NA,timeout,4996.71,515474.8,515455.811,515489.066,520469.228,520470.3,2023-11-14T12:34:01Z,520485.776,NULL,Abrechnung,uhasibu,s,kusahihisha,mpambano,mashambulizi,NA,sdf,0,0,NA,NA,NA,NA,NA,NA,NA,NA,NA,NA,NA,NA,NA,NA,NA,NA,NA,NA,NA
1ea2d,shallow,flow.Sequence,5_0_0_0_5_1,NA,NA,completion,9228.153,511227,511224.633,511241.075,520469.228,520470.7,2023-11-14T12:34:01Z,520485.776,NULL,Abrechnung,uhasibu,s,kusahihisha,mpambano,mashambulizi,NA,sdf,NA,0,NA,NA,NA,NA,NA,NA,NA,NA,NA,NA,NA,NA,NA,NA,NA,NA,NA,NA,NA
1ea2d,task,flow.Sequence,5_0_0_0_5,NA,NA,completion,9228.153,511226.7,511224.633,511241.075,520469.228,520470.9,2023-11-14T12:34:01Z,520485.776,NULL,Abrechnung,uhasibu,s,kusahihisha,mpambano,mashambulizi,NA,sdf,NA,0,NA,NA,NA,NA,NA,NA,NA,NA,NA,NA,NA,NA,NA,NA,NA,NA,NA,NA,NA
1ea2d,Deep Question,html.Page,5_0_0_0_6_0_0,NA,NA,form submission,1908.8240000015,520471.2,520469.228,520485.776,522394.6,522394.8,2023-11-14T12:34:03Z,522400.939,NULL,Angreifer,mshambulizi,d,NA,NA,NA,l,NA,NA,0,NA,NA,NA,NA,NA,NA,NA,NA,NA,NA,NA,NA,NA,NA,NA,NA,NA,NA,NA
1ea2d,"""Richtig""-Screen",canvas.Screen,5_0_0_0_6_0_1,NA,NA,skipped,NA,522398.1,NA,NA,522394.6,522398.2,2023-11-14T12:34:03Z,522400.939,NULL,Angreifer,mshambulizi,d,NA,NA,NA,NA,sdf,NA,0,NA,NA,NA,NA,NA,NA,NA,NA,NA,NA,NA,NA,NA,NA,NA,NA,NA,NA,NA
1ea2d,"""Falsch""-Screen",canvas.Screen,5_0_0_0_6_0_2,NA,NA,timeout,4997.3149999999,522399.2,522384.481,522400.939,527381.512,527381.9,2023-11-14T12:34:08Z,527398.254,NULL,Angreifer,mshambulizi,d,NA,NA,NA,NA,sdf,0,0,NA,NA,NA,NA,NA,NA,NA,NA,NA,NA,NA,NA,NA,NA,NA,NA,NA,NA,NA
1ea2d,deep,flow.Sequence,5_0_0_0_6_0,NA,NA,completion,6895.736,520471.2,520469.228,520485.776,527381.512,527382.1,2023-11-14T12:34:08Z,527398.254,NULL,Angreifer,mshambulizi,d,NA,NA,NA,NA,sdf,NA,0,NA,NA,NA,NA,NA,NA,NA,NA,NA,NA,NA,NA,NA,NA,NA,NA,NA,NA,NA
1ea2d,shallow,flow.Sequence,5_0_0_0_6_1,NA,NA,skipped,NA,527382.1,NA,NA,527381.512,527382.2,2023-11-14T12:34:08Z,527398.254,NULL,Angreifer,mshambulizi,d,NA,NA,NA,NA,sdf,NA,0,NA,NA,NA,NA,NA,NA,NA,NA,NA,NA,NA,NA,NA,NA,NA,NA,NA,NA,NA
1ea2d,task,flow.Sequence,5_0_0_0_6,NA,NA,completion,6895.736,520471.1,520469.228,520485.776,527381.512,527382.3,2023-11-14T12:34:08Z,527398.254,NULL,Angreifer,mshambulizi,d,NA,NA,NA,NA,sdf,NA,0,NA,NA,NA,NA,NA,NA,NA,NA,NA,NA,NA,NA,NA,NA,NA,NA,NA,NA,NA
1ea2d,Deep Question,html.Page,5_0_0_0_7_0_0,NA,NA,form submission,2063.3460000015,527382.3,527381.512,527398.254,529461.6,529461.9,2023-11-14T12:34:10Z,529463.304,NULL,Wechsel,ugeuzaji,d,NA,NA,NA,l,NA,NA,0,NA,NA,NA,NA,NA,NA,NA,NA,NA,NA,NA,NA,NA,NA,NA,NA,NA,NA,NA
1ea2d,"""Richtig""-Screen",canvas.Screen,5_0_0_0_7_0_1,NA,NA,skipped,NA,529465.2,NA,NA,529461.6,529465.4,2023-11-14T12:34:10Z,529463.304,NULL,Wechsel,ugeuzaji,d,NA,NA,NA,NA,sdf,NA,0,NA,NA,NA,NA,NA,NA,NA,NA,NA,NA,NA,NA,NA,NA,NA,NA,NA,NA,NA
1ea2d,"""Falsch""-Screen",canvas.Screen,5_0_0_0_7_0_2,NA,NA,timeout,4997.191,529466,529447.456,529463.304,534443.771,534445.2,2023-11-14T12:34:15Z,534460.495,NULL,Wechsel,ugeuzaji,d,NA,NA,NA,NA,sdf,0,0,NA,NA,NA,NA,NA,NA,NA,NA,NA,NA,NA,NA,NA,NA,NA,NA,NA,NA,NA
1ea2d,deep,flow.Sequence,5_0_0_0_7_0,NA,NA,completion,7045.517,527382.3,527381.512,527398.254,534443.771,534445.8,2023-11-14T12:34:15Z,534460.495,NULL,Wechsel,ugeuzaji,d,NA,NA,NA,NA,sdf,NA,0,NA,NA,NA,NA,NA,NA,NA,NA,NA,NA,NA,NA,NA,NA,NA,NA,NA,NA,NA
1ea2d,shallow,flow.Sequence,5_0_0_0_7_1,NA,NA,skipped,NA,534446.1,NA,NA,534443.771,534446.3,2023-11-14T12:34:15Z,534460.495,NULL,Wechsel,ugeuzaji,d,NA,NA,NA,NA,sdf,NA,0,NA,NA,NA,NA,NA,NA,NA,NA,NA,NA,NA,NA,NA,NA,NA,NA,NA,NA,NA
1ea2d,task,flow.Sequence,5_0_0_0_7,NA,NA,completion,7045.517,527382.3,527381.512,527398.254,534443.771,534446.8,2023-11-14T12:34:15Z,534460.495,NULL,Wechsel,ugeuzaji,d,NA,NA,NA,NA,sdf,NA,0,NA,NA,NA,NA,NA,NA,NA,NA,NA,NA,NA,NA,NA,NA,NA,NA,NA,NA,NA
1ea2d,block,flow.Loop,5_0_0_0,NA,NA,completion,63494.83,470934.7,470932.461,470948.941,534443.771,534447.4,2023-11-14T12:34:15Z,534460.495,NULL,NA,NA,NA,NA,NA,NA,NA,sdf,NA,0,NA,NA,NA,NA,NA,NA,NA,NA,NA,NA,NA,NA,NA,NA,NA,NA,NA,NA,NA
1ea2d,weiter,canvas.Screen,5_0_0_1,sdf,keypress(Space),response,1165.205000003,534447.6,534443.771,534460.495,535625.7,535628.2,2023-11-14T12:34:16Z,535659.643,NULL,NA,NA,NA,NA,NA,NA,NA,sdf,NA,0,NA,NA,NA,NA,NA,NA,NA,NA,NA,NA,NA,NA,NA,NA,NA,NA,NA,NA,NA
1ea2d,check continue,flow.Sequence,5_0_0,NA,NA,completion,64676.759000003,470934.7,470932.461,470948.941,535625.7,535628.4,2023-11-14T12:34:16Z,535659.643,NULL,NA,NA,NA,NA,NA,NA,NA,sdf,NA,0,NA,NA,NA,NA,NA,NA,NA,NA,NA,NA,NA,NA,NA,NA,NA,NA,NA,NA,NA
1ea2d,deep,flow.Sequence,5_0_1_0_0_0,NA,NA,skipped,NA,535647.7,NA,NA,535625.7,535647.8,2023-11-14T12:34:16Z,535659.643,NULL,Kanzler,diwani,s,rasilmali,mahitaji,maabudu,NA,sdfdsf,NA,1,NA,NA,NA,NA,NA,NA,NA,NA,NA,NA,NA,NA,NA,NA,NA,NA,NA,NA,NA
1ea2d,Shallow Question,html.Page,5_0_1_0_0_1_0,NA,NA,form submission,3198.4570000015,535648,535643.73,535659.643,538858.1,538858.4,2023-11-14T12:34:19Z,538874.592,NULL,Kanzler,diwani,s,rasilmali,mahitaji,maabudu,diwani,NA,NA,1,NA,NA,NA,NA,NA,NA,NA,NA,NA,NA,NA,NA,NA,NA,NA,NA,NA,NA,NA
1ea2d,"""Richtig""-Screen",canvas.Screen,5_0_1_0_0_1_1,NA,NA,timeout,4996.9310000001,538859.5,538841.287,538874.592,543854.543,543855.3,2023-11-14T12:34:24Z,543871.523,NULL,Kanzler,diwani,s,rasilmali,mahitaji,maabudu,NA,sdfdsf,1,1,NA,NA,NA,NA,NA,NA,NA,NA,NA,NA,NA,NA,NA,NA,NA,NA,NA,NA,NA
1ea2d,"""Falsch""-Screen",canvas.Screen,5_0_1_0_0_1_2,NA,NA,skipped,NA,543857.3,NA,NA,543854.543,543857.3,2023-11-14T12:34:24Z,543871.523,NULL,Kanzler,diwani,s,rasilmali,mahitaji,maabudu,NA,sdfdsf,NA,1,NA,NA,NA,NA,NA,NA,NA,NA,NA,NA,NA,NA,NA,NA,NA,NA,NA,NA,NA
1ea2d,shallow,flow.Sequence,5_0_1_0_0_1,NA,NA,completion,8194.8999999999,535648,535643.73,535659.643,543854.543,543857.4,2023-11-14T12:34:24Z,543871.523,NULL,Kanzler,diwani,s,rasilmali,mahitaji,maabudu,NA,sdfdsf,NA,1,NA,NA,NA,NA,NA,NA,NA,NA,NA,NA,NA,NA,NA,NA,NA,NA,NA,NA,NA
1ea2d,task,flow.Sequence,5_0_1_0_0,NA,NA,completion,8194.8999999999,535647.7,535643.73,535659.643,543854.543,543857.5,2023-11-14T12:34:24Z,543871.523,NULL,Kanzler,diwani,s,rasilmali,mahitaji,maabudu,NA,sdfdsf,NA,1,NA,NA,NA,NA,NA,NA,NA,NA,NA,NA,NA,NA,NA,NA,NA,NA,NA,NA,NA
1ea2d,Deep Question,html.Page,5_0_1_0_1_0_0,NA,NA,form submission,2381.3769999985,543857.5,543854.543,543871.523,546252.9,546253.2,2023-11-14T12:34:27Z,546270.149,NULL,Wechsel,ugeuzaji,d,NA,NA,NA,l,NA,NA,1,NA,NA,NA,NA,NA,NA,NA,NA,NA,NA,NA,NA,NA,NA,NA,NA,NA,NA,NA
1ea2d,"""Richtig""-Screen",canvas.Screen,5_0_1_0_1_0_1,NA,NA,skipped,NA,546254.3,NA,NA,546252.9,546254.5,2023-11-14T12:34:27Z,546270.149,NULL,Wechsel,ugeuzaji,d,NA,NA,NA,NA,sdfdsf,NA,1,NA,NA,NA,NA,NA,NA,NA,NA,NA,NA,NA,NA,NA,NA,NA,NA,NA,NA,NA
1ea2d,"""Falsch""-Screen",canvas.Screen,5_0_1_0_1_0_2,NA,NA,timeout,4996.949,546255.3,546236.767,546270.149,551250.021,551251.6,2023-11-14T12:34:32Z,551267.098,NULL,Wechsel,ugeuzaji,d,NA,NA,NA,NA,sdfdsf,0,1,NA,NA,NA,NA,NA,NA,NA,NA,NA,NA,NA,NA,NA,NA,NA,NA,NA,NA,NA
1ea2d,deep,flow.Sequence,5_0_1_0_1_0,NA,NA,completion,7378.4979999999,543857.5,543854.543,543871.523,551250.021,551251.7,2023-11-14T12:34:32Z,551267.098,NULL,Wechsel,ugeuzaji,d,NA,NA,NA,NA,sdfdsf,NA,1,NA,NA,NA,NA,NA,NA,NA,NA,NA,NA,NA,NA,NA,NA,NA,NA,NA,NA,NA
1ea2d,shallow,flow.Sequence,5_0_1_0_1_1,NA,NA,skipped,NA,551251.8,NA,NA,551250.021,551251.8,2023-11-14T12:34:32Z,551267.098,NULL,Wechsel,ugeuzaji,d,NA,NA,NA,NA,sdfdsf,NA,1,NA,NA,NA,NA,NA,NA,NA,NA,NA,NA,NA,NA,NA,NA,NA,NA,NA,NA,NA
1ea2d,task,flow.Sequence,5_0_1_0_1,NA,NA,completion,7378.4979999999,543857.5,543854.543,543871.523,551250.021,551251.9,2023-11-14T12:34:32Z,551267.098,NULL,Wechsel,ugeuzaji,d,NA,NA,NA,NA,sdfdsf,NA,1,NA,NA,NA,NA,NA,NA,NA,NA,NA,NA,NA,NA,NA,NA,NA,NA,NA,NA,NA
1ea2d,deep,flow.Sequence,5_0_1_0_2_0,NA,NA,skipped,NA,551251.9,NA,NA,551250.021,551252,2023-11-14T12:34:32Z,551267.098,NULL,Abrechnung,uhasibu,s,kusahihisha,mpambano,mashambulizi,NA,sdfdsf,NA,1,NA,NA,NA,NA,NA,NA,NA,NA,NA,NA,NA,NA,NA,NA,NA,NA,NA,NA,NA
1ea2d,Shallow Question,html.Page,5_0_1_0_2_1_0,NA,NA,form submission,5815.2020000045,551252,551250.021,551267.098,557082.3,557082.5,2023-11-14T12:34:37Z,557096.932,NULL,Abrechnung,uhasibu,s,kusahihisha,mpambano,mashambulizi,uhasibu,NA,NA,1,NA,NA,NA,NA,NA,NA,NA,NA,NA,NA,NA,NA,NA,NA,NA,NA,NA,NA,NA
1ea2d,"""Richtig""-Screen",canvas.Screen,5_0_1_0_2_1_1,NA,NA,timeout,4996.443,557085.7,557080.024,557096.932,562077.036,562077.8,2023-11-14T12:34:42Z,562093.375,NULL,Abrechnung,uhasibu,s,kusahihisha,mpambano,mashambulizi,NA,sdfdsf,1,1,NA,NA,NA,NA,NA,NA,NA,NA,NA,NA,NA,NA,NA,NA,NA,NA,NA,NA,NA
1ea2d,"""Falsch""-Screen",canvas.Screen,5_0_1_0_2_1_2,NA,NA,skipped,NA,562082,NA,NA,562077.036,562082.3,2023-11-14T12:34:42Z,562093.375,NULL,Abrechnung,uhasibu,s,kusahihisha,mpambano,mashambulizi,NA,sdfdsf,NA,1,NA,NA,NA,NA,NA,NA,NA,NA,NA,NA,NA,NA,NA,NA,NA,NA,NA,NA,NA
1ea2d,shallow,flow.Sequence,5_0_1_0_2_1,NA,NA,completion,10809.938,551252,551250.021,551267.098,562077.036,562082.6,2023-11-14T12:34:42Z,562093.375,NULL,Abrechnung,uhasibu,s,kusahihisha,mpambano,mashambulizi,NA,sdfdsf,NA,1,NA,NA,NA,NA,NA,NA,NA,NA,NA,NA,NA,NA,NA,NA,NA,NA,NA,NA,NA
1ea2d,task,flow.Sequence,5_0_1_0_2,NA,NA,completion,10809.938,551251.9,551250.021,551267.098,562077.036,562082.8,2023-11-14T12:34:42Z,562093.375,NULL,Abrechnung,uhasibu,s,kusahihisha,mpambano,mashambulizi,NA,sdfdsf,NA,1,NA,NA,NA,NA,NA,NA,NA,NA,NA,NA,NA,NA,NA,NA,NA,NA,NA,NA,NA
1ea2d,Deep Question,html.Page,5_0_1_0_3_0_0,NA,NA,form submission,7378.0249999985,562083,562077.036,562093.375,569471.4,569471.7,2023-11-14T12:34:50Z,569489.341,NULL,Sänger,mwimbaji,d,NA,NA,NA,mwamiju,NA,NA,1,NA,NA,NA,NA,NA,NA,NA,NA,NA,NA,NA,NA,NA,NA,NA,NA,NA,NA,NA
1ea2d,"""Richtig""-Screen",canvas.Screen,5_0_1_0_3_0_1,NA,NA,skipped,NA,569474.9,NA,NA,569471.4,569475.1,2023-11-14T12:34:50Z,569489.341,NULL,Sänger,mwimbaji,d,NA,NA,NA,NA,sdfdsf,NA,1,NA,NA,NA,NA,NA,NA,NA,NA,NA,NA,NA,NA,NA,NA,NA,NA,NA,NA,NA
1ea2d,"""Falsch""-Screen",canvas.Screen,5_0_1_0_3_0_2,NA,NA,timeout,4996.791,569476,569456.181,569489.341,574469.412,574470.4,2023-11-14T12:34:55Z,574486.132,NULL,Sänger,mwimbaji,d,NA,NA,NA,NA,sdfdsf,0,1,NA,NA,NA,NA,NA,NA,NA,NA,NA,NA,NA,NA,NA,NA,NA,NA,NA,NA,NA
1ea2d,deep,flow.Sequence,5_0_1_0_3_0,NA,NA,completion,12376.037,562082.9,562077.036,562093.375,574469.412,574470.8,2023-11-14T12:34:55Z,574486.132,NULL,Sänger,mwimbaji,d,NA,NA,NA,NA,sdfdsf,NA,1,NA,NA,NA,NA,NA,NA,NA,NA,NA,NA,NA,NA,NA,NA,NA,NA,NA,NA,NA
1ea2d,shallow,flow.Sequence,5_0_1_0_3_1,NA,NA,skipped,NA,574470.9,NA,NA,574469.412,574471.1,2023-11-14T12:34:55Z,574486.132,NULL,Sänger,mwimbaji,d,NA,NA,NA,NA,sdfdsf,NA,1,NA,NA,NA,NA,NA,NA,NA,NA,NA,NA,NA,NA,NA,NA,NA,NA,NA,NA,NA
1ea2d,task,flow.Sequence,5_0_1_0_3,NA,NA,completion,12376.037,562082.9,562077.036,562093.375,574469.412,574471.3,2023-11-14T12:34:55Z,574486.132,NULL,Sänger,mwimbaji,d,NA,NA,NA,NA,sdfdsf,NA,1,NA,NA,NA,NA,NA,NA,NA,NA,NA,NA,NA,NA,NA,NA,NA,NA,NA,NA,NA
1ea2d,deep,flow.Sequence,5_0_1_0_4_0,NA,NA,skipped,NA,574471.5,NA,NA,574469.412,574471.6,2023-11-14T12:34:55Z,574486.132,NULL,Flexibilität,kubadilika,s,enjini,usikilivu,hesabu,NA,sdfdsf,NA,1,NA,NA,NA,NA,NA,NA,NA,NA,NA,NA,NA,NA,NA,NA,NA,NA,NA,NA,NA
1ea2d,Shallow Question,html.Page,5_0_1_0_4_1_0,NA,NA,form submission,5744.4680000015,574471.8,574469.412,574486.132,580230.6,580230.9,2023-11-14T12:35:01Z,580232.332,NULL,Flexibilität,kubadilika,s,enjini,usikilivu,hesabu,kubadilika,NA,NA,1,NA,NA,NA,NA,NA,NA,NA,NA,NA,NA,NA,NA,NA,NA,NA,NA,NA,NA,NA
1ea2d,"""Richtig""-Screen",canvas.Screen,5_0_1_0_4_1_1,NA,NA,timeout,4997.455,580234.2,580215.666,580232.332,585213.062,585214.7,2023-11-14T12:35:06Z,585229.787,NULL,Flexibilität,kubadilika,s,enjini,usikilivu,hesabu,NA,sdfdsf,1,1,NA,NA,NA,NA,NA,NA,NA,NA,NA,NA,NA,NA,NA,NA,NA,NA,NA,NA,NA
1ea2d,"""Falsch""-Screen",canvas.Screen,5_0_1_0_4_1_2,NA,NA,skipped,NA,585216.3,NA,NA,585213.062,585216.4,2023-11-14T12:35:06Z,585229.787,NULL,Flexibilität,kubadilika,s,enjini,usikilivu,hesabu,NA,sdfdsf,NA,1,NA,NA,NA,NA,NA,NA,NA,NA,NA,NA,NA,NA,NA,NA,NA,NA,NA,NA,NA
1ea2d,shallow,flow.Sequence,5_0_1_0_4_1,NA,NA,completion,10726.93,574471.8,574469.412,574486.132,585213.062,585216.4,2023-11-14T12:35:06Z,585229.787,NULL,Flexibilität,kubadilika,s,enjini,usikilivu,hesabu,NA,sdfdsf,NA,1,NA,NA,NA,NA,NA,NA,NA,NA,NA,NA,NA,NA,NA,NA,NA,NA,NA,NA,NA
1ea2d,task,flow.Sequence,5_0_1_0_4,NA,NA,completion,10726.93,574471.4,574469.412,574486.132,585213.062,585216.5,2023-11-14T12:35:06Z,585229.787,NULL,Flexibilität,kubadilika,s,enjini,usikilivu,hesabu,NA,sdfdsf,NA,1,NA,NA,NA,NA,NA,NA,NA,NA,NA,NA,NA,NA,NA,NA,NA,NA,NA,NA,NA
1ea2d,deep,flow.Sequence,5_0_1_0_5_0,NA,NA,skipped,NA,585216.5,NA,NA,585213.062,585216.5,2023-11-14T12:35:06Z,585229.787,NULL,Atmosphäre,angahewa,s,kuteseka,usahihi,kutoamini,NA,sdfdsf,NA,1,NA,NA,NA,NA,NA,NA,NA,NA,NA,NA,NA,NA,NA,NA,NA,NA,NA,NA,NA
1ea2d,Shallow Question,html.Page,5_0_1_0_5_1_0,NA,NA,form submission,4609.1129999985,585216.6,585213.062,585229.787,589838.9,589839.2,2023-11-14T12:35:10Z,589843.14,NULL,Atmosphäre,angahewa,s,kuteseka,usahihi,kutoamini,usahihi,NA,NA,1,NA,NA,NA,NA,NA,NA,NA,NA,NA,NA,NA,NA,NA,NA,NA,NA,NA,NA,NA
1ea2d,"""Richtig""-Screen",canvas.Screen,5_0_1_0_5_1_1,NA,NA,skipped,NA,589842.1,NA,NA,589838.9,589842.4,2023-11-14T12:35:10Z,589843.14,NULL,Atmosphäre,angahewa,s,kuteseka,usahihi,kutoamini,NA,sdfdsf,NA,1,NA,NA,NA,NA,NA,NA,NA,NA,NA,NA,NA,NA,NA,NA,NA,NA,NA,NA,NA
1ea2d,"""Falsch""-Screen",canvas.Screen,5_0_1_0_5_1_2,NA,NA,timeout,4997.298,589843,589826.234,589843.14,594823.636,594825.5,2023-11-14T12:35:15Z,594840.438,NULL,Atmosphäre,angahewa,s,kuteseka,usahihi,kutoamini,NA,sdfdsf,0,1,NA,NA,NA,NA,NA,NA,NA,NA,NA,NA,NA,NA,NA,NA,NA,NA,NA,NA,NA
1ea2d,shallow,flow.Sequence,5_0_1_0_5_1,NA,NA,completion,9593.849,585216.6,585213.062,585229.787,594823.636,594826,2023-11-14T12:35:15Z,594840.438,NULL,Atmosphäre,angahewa,s,kuteseka,usahihi,kutoamini,NA,sdfdsf,NA,1,NA,NA,NA,NA,NA,NA,NA,NA,NA,NA,NA,NA,NA,NA,NA,NA,NA,NA,NA
1ea2d,task,flow.Sequence,5_0_1_0_5,NA,NA,completion,9593.849,585216.5,585213.062,585229.787,594823.636,594826.3,2023-11-14T12:35:15Z,594840.438,NULL,Atmosphäre,angahewa,s,kuteseka,usahihi,kutoamini,NA,sdfdsf,NA,1,NA,NA,NA,NA,NA,NA,NA,NA,NA,NA,NA,NA,NA,NA,NA,NA,NA,NA,NA
1ea2d,Deep Question,html.Page,5_0_1_0_6_0_0,NA,NA,form submission,3886.262000003,594826.5,594823.636,594840.438,598726.7,598726.9,2023-11-14T12:35:19Z,598737.894,NULL,Angreifer,mshambulizi,d,NA,NA,NA,o,NA,NA,1,NA,NA,NA,NA,NA,NA,NA,NA,NA,NA,NA,NA,NA,NA,NA,NA,NA,NA,NA
1ea2d,"""Richtig""-Screen",canvas.Screen,5_0_1_0_6_0_1,NA,NA,skipped,NA,598730.1,NA,NA,598726.7,598730.3,2023-11-14T12:35:19Z,598737.894,NULL,Angreifer,mshambulizi,d,NA,NA,NA,NA,sdfdsf,NA,1,NA,NA,NA,NA,NA,NA,NA,NA,NA,NA,NA,NA,NA,NA,NA,NA,NA,NA,NA
1ea2d,"""Falsch""-Screen",canvas.Screen,5_0_1_0_6_0_2,NA,NA,timeout,4996.873,598730.9,598721.066,598737.894,603718.092,603720.5,2023-11-14T12:35:24Z,603734.767,NULL,Angreifer,mshambulizi,d,NA,NA,NA,NA,sdfdsf,0,1,NA,NA,NA,NA,NA,NA,NA,NA,NA,NA,NA,NA,NA,NA,NA,NA,NA,NA,NA
1ea2d,deep,flow.Sequence,5_0_1_0_6_0,NA,NA,completion,8877.654,594826.4,594823.636,594840.438,603718.092,603720.9,2023-11-14T12:35:24Z,603734.767,NULL,Angreifer,mshambulizi,d,NA,NA,NA,NA,sdfdsf,NA,1,NA,NA,NA,NA,NA,NA,NA,NA,NA,NA,NA,NA,NA,NA,NA,NA,NA,NA,NA
1ea2d,shallow,flow.Sequence,5_0_1_0_6_1,NA,NA,skipped,NA,603721.6,NA,NA,603718.092,603722,2023-11-14T12:35:24Z,603734.767,NULL,Angreifer,mshambulizi,d,NA,NA,NA,NA,sdfdsf,NA,1,NA,NA,NA,NA,NA,NA,NA,NA,NA,NA,NA,NA,NA,NA,NA,NA,NA,NA,NA
1ea2d,task,flow.Sequence,5_0_1_0_6,NA,NA,completion,8877.654,594826.4,594823.636,594840.438,603718.092,603722.5,2023-11-14T12:35:24Z,603734.767,NULL,Angreifer,mshambulizi,d,NA,NA,NA,NA,sdfdsf,NA,1,NA,NA,NA,NA,NA,NA,NA,NA,NA,NA,NA,NA,NA,NA,NA,NA,NA,NA,NA
1ea2d,Deep Question,html.Page,5_0_1_0_7_0_0,NA,NA,form submission,10448.132999999,603722.9,603718.092,603734.767,614182.9,614183,2023-11-14T12:35:35Z,614195.065,NULL,Erneuerung,ukarabati,d,NA,NA,NA,udorabaji,NA,NA,1,NA,NA,NA,NA,NA,NA,NA,NA,NA,NA,NA,NA,NA,NA,NA,NA,NA,NA,NA
1ea2d,"""Richtig""-Screen",canvas.Screen,5_0_1_0_7_0_1,NA,NA,skipped,NA,614185.2,NA,NA,614182.9,614185.2,2023-11-14T12:35:35Z,614195.065,NULL,Erneuerung,ukarabati,d,NA,NA,NA,NA,sdfdsf,NA,1,NA,NA,NA,NA,NA,NA,NA,NA,NA,NA,NA,NA,NA,NA,NA,NA,NA,NA,NA
1ea2d,"""Falsch""-Screen",canvas.Screen,5_0_1_0_7_0_2,NA,NA,timeout,4996.92,614185.7,614172.214,614195.065,619175.66,619176.5,2023-11-14T12:35:40Z,619191.985,NULL,Erneuerung,ukarabati,d,NA,NA,NA,NA,sdfdsf,0,1,NA,NA,NA,NA,NA,NA,NA,NA,NA,NA,NA,NA,NA,NA,NA,NA,NA,NA,NA
1ea2d,deep,flow.Sequence,5_0_1_0_7_0,NA,NA,completion,15440.893,603722.8,603718.092,603734.767,619175.66,619176.8,2023-11-14T12:35:40Z,619191.985,NULL,Erneuerung,ukarabati,d,NA,NA,NA,NA,sdfdsf,NA,1,NA,NA,NA,NA,NA,NA,NA,NA,NA,NA,NA,NA,NA,NA,NA,NA,NA,NA,NA
1ea2d,shallow,flow.Sequence,5_0_1_0_7_1,NA,NA,skipped,NA,619177,NA,NA,619175.66,619177.1,2023-11-14T12:35:40Z,619191.985,NULL,Erneuerung,ukarabati,d,NA,NA,NA,NA,sdfdsf,NA,1,NA,NA,NA,NA,NA,NA,NA,NA,NA,NA,NA,NA,NA,NA,NA,NA,NA,NA,NA
1ea2d,task,flow.Sequence,5_0_1_0_7,NA,NA,completion,15440.893,603722.7,603718.092,603734.767,619175.66,619177.3,2023-11-14T12:35:40Z,619191.985,NULL,Erneuerung,ukarabati,d,NA,NA,NA,NA,sdfdsf,NA,1,NA,NA,NA,NA,NA,NA,NA,NA,NA,NA,NA,NA,NA,NA,NA,NA,NA,NA,NA
1ea2d,block,flow.Loop,5_0_1_0,NA,NA,completion,83516.017,535647.7,535643.73,535659.643,619175.66,619177.5,2023-11-14T12:35:40Z,619191.985,NULL,NA,NA,NA,NA,NA,NA,NA,sdfdsf,NA,1,NA,NA,NA,NA,NA,NA,NA,NA,NA,NA,NA,NA,NA,NA,NA,NA,NA,NA,NA
1ea2d,weiter,canvas.Screen,5_0_1_1,sdf,keypress(Space),response,1633.6150000015,619177.6,619175.66,619191.985,620825.6,620830.4,2023-11-14T12:35:41Z,620857.739,NULL,NA,NA,NA,NA,NA,NA,NA,sdfdsf,NA,1,NA,NA,NA,NA,NA,NA,NA,NA,NA,NA,NA,NA,NA,NA,NA,NA,NA,NA,NA
1ea2d,check continue,flow.Sequence,5_0_1,NA,NA,completion,85165.957000001,535647.7,535643.73,535659.643,620825.6,620830.7,2023-11-14T12:35:41Z,620857.739,NULL,NA,NA,NA,NA,NA,NA,NA,sdfdsf,NA,1,NA,NA,NA,NA,NA,NA,NA,NA,NA,NA,NA,NA,NA,NA,NA,NA,NA,NA,NA
1ea2d,deep,flow.Sequence,5_0_2_0_0_0,NA,NA,skipped,NA,620850.4,NA,NA,620825.6,620850.6,2023-11-14T12:35:41Z,620857.739,NULL,Flexibilität,kubadilika,s,enjini,usikilivu,hesabu,NA,sdf,NA,2,NA,NA,NA,NA,NA,NA,NA,NA,NA,NA,NA,NA,NA,NA,NA,NA,NA,NA,NA
1ea2d,Shallow Question,html.Page,5_0_2_0_0_1_0,NA,NA,form submission,2762.8610000015,620850.6,620846.686,620857.739,623620.6,623620.9,2023-11-14T12:35:44Z,623622.549,NULL,Flexibilität,kubadilika,s,enjini,usikilivu,hesabu,kubadilika,NA,NA,2,NA,NA,NA,NA,NA,NA,NA,NA,NA,NA,NA,NA,NA,NA,NA,NA,NA,NA,NA
1ea2d,"""Richtig""-Screen",canvas.Screen,5_0_2_0_0_1_1,NA,NA,timeout,4996.953,623621.9,623617.745,623622.549,628603.216,628604.2,2023-11-14T12:35:49Z,628619.502,NULL,Flexibilität,kubadilika,s,enjini,usikilivu,hesabu,NA,sdf,1,2,NA,NA,NA,NA,NA,NA,NA,NA,NA,NA,NA,NA,NA,NA,NA,NA,NA,NA,NA
1ea2d,"""Falsch""-Screen",canvas.Screen,5_0_2_0_0_1_2,NA,NA,skipped,NA,628609.1,NA,NA,628603.216,628609.2,2023-11-14T12:35:49Z,628619.502,NULL,Flexibilität,kubadilika,s,enjini,usikilivu,hesabu,NA,sdf,NA,2,NA,NA,NA,NA,NA,NA,NA,NA,NA,NA,NA,NA,NA,NA,NA,NA,NA,NA,NA
