observation,sender,sender_type,sender_id,response,response_action,ended_on,duration,time_run,time_render,time_show,time_end,time_commit,timestamp,time_switch,distractors,german,swahili,enc,distractor1,distractor2,distractor3,response_2,x,correct,x_2,url_vp,url_sess,meta_labjs_version,meta_location,meta_user_agent,meta_platform,meta_language,meta_locale,meta_time_zone,meta_timezone_offset,meta_screen_width,meta_screen_height,meta_scroll_width,meta_scroll_height,meta_window_inner_width,meta_window_inner_height,meta_device_pixel_ratio,meta_labjs_build_flavor,meta_labjs_build_commit
80413,Introduction general,canvas.Screen,0,weiter,keypress(q),response,86201.6,363,359.74,376.4,86578,86596,2023-10-20T08:23:30Z,86598.98,NULL,NA,NA,NA,NA,NA,NA,NA,NA,NA,NA,184,3,20.2.4,https://neurocog.fernuni.ch/studies/vweber/sliechti/encoding_immediate/index.html?vp=184&sess=3,Mozilla/5.0 (Windows NT 10.0; Win64; x64; rv:109.0) Gecko/20100101 Firefox/118.0,Win32,de,de-CH,Europe/Zurich,-120,1280,720,1280,587,1280,587,1.5,production,f5b4a49f956347addd546a832a3327688c2c0fef
80413,Introduction practice,canvas.Screen,1_0,NA,keypress(Space),response,2870.02,86597,86596.5,86598.98,89469,89473,2023-10-20T08:23:33Z,89482.98,NULL,NA,NA,NA,NA,NA,NA,NA,NA,NA,NA,NA,NA,NA,NA,NA,NA,NA,NA,NA,NA,NA,NA,NA,NA,NA,NA,NA,NA,NA
80413,Deep Question,html.Page,1_1_0_0_0,NA,NA,form submission,11484.02,89474,89474.22,89482.98,100967,100967,2023-10-20T08:23:45Z,100980.46,"c(""distractor1"", ""distractor2"", ""distractor3"")",Qualität,mtindo,d,NA,NA,NA,pop,NA,NA,NA,NA,NA,NA,NA,NA,NA,NA,NA,NA,NA,NA,NA,NA,NA,NA,NA,NA,NA,NA
80413,"""Richtig""-Screen",canvas.Screen,1_1_0_0_1,NA,NA,skipped,NA,100975,NA,NA,100967,100975,2023-10-20T08:23:45Z,100980.46,"c(""distractor1"", ""distractor2"", ""distractor3"")",Qualität,mtindo,d,NA,NA,NA,NA,NA,NA,NA,NA,NA,NA,NA,NA,NA,NA,NA,NA,NA,NA,NA,NA,NA,NA,NA,NA,NA,NA
80413,"""Falsch""-Screen",canvas.Screen,1_1_0_0_2,NA,NA,timeout,4999.34,100979,100959.04,100980.46,105963.16,105965,2023-10-20T08:23:50Z,105979.8,"c(""distractor1"", ""distractor2"", ""distractor3"")",Qualität,mtindo,d,NA,NA,NA,NA,NA,0,NA,NA,NA,NA,NA,NA,NA,NA,NA,NA,NA,NA,NA,NA,NA,NA,NA,NA,NA,NA
80413,deep,flow.Sequence,1_1_0_0,NA,NA,completion,16480.18,89473,89474.22,89482.98,105963.16,105966,2023-10-20T08:23:50Z,105979.8,"c(""distractor1"", ""distractor2"", ""distractor3"")",Qualität,mtindo,d,NA,NA,NA,NA,NA,NA,NA,NA,NA,NA,NA,NA,NA,NA,NA,NA,NA,NA,NA,NA,NA,NA,NA,NA,NA,NA
80413,shallow,flow.Sequence,1_1_0_1,NA,NA,skipped,NA,105966,NA,NA,105963.16,105967,2023-10-20T08:23:50Z,105979.8,"c(""distractor1"", ""distractor2"", ""distractor3"")",Qualität,mtindo,d,NA,NA,NA,NA,NA,NA,NA,NA,NA,NA,NA,NA,NA,NA,NA,NA,NA,NA,NA,NA,NA,NA,NA,NA,NA,NA
80413,task,flow.Sequence,1_1_0,NA,NA,completion,16480.18,89473,89474.22,89482.98,105963.16,105968,2023-10-20T08:23:50Z,105979.8,"c(""distractor1"", ""distractor2"", ""distractor3"")",Qualität,mtindo,d,NA,NA,NA,NA,NA,NA,NA,NA,NA,NA,NA,NA,NA,NA,NA,NA,NA,NA,NA,NA,NA,NA,NA,NA,NA,NA
80413,Deep Question,html.Page,1_1_1_0_0,NA,NA,form submission,8664.2,105969,105963.16,105979.8,114644,114644,2023-10-20T08:23:58Z,114645.42,"c(""distractor1"", ""distractor2"", ""distractor3"")",Gesundheit,salama,d,NA,NA,NA,mtindo,NA,NA,NA,NA,NA,NA,NA,NA,NA,NA,NA,NA,NA,NA,NA,NA,NA,NA,NA,NA,NA,NA
80413,"""Richtig""-Screen",canvas.Screen,1_1_1_0_1,NA,NA,skipped,NA,114648,NA,NA,114644,114648,2023-10-20T08:23:58Z,114645.42,"c(""distractor1"", ""distractor2"", ""distractor3"")",Gesundheit,salama,d,NA,NA,NA,NA,NA,NA,NA,NA,NA,NA,NA,NA,NA,NA,NA,NA,NA,NA,NA,NA,NA,NA,NA,NA,NA,NA
80413,"""Falsch""-Screen",canvas.Screen,1_1_1_0_2,NA,NA,timeout,4999.24,114651,114643.4,114645.42,119628.02,119630,2023-10-20T08:24:03Z,119644.66,"c(""distractor1"", ""distractor2"", ""distractor3"")",Gesundheit,salama,d,NA,NA,NA,NA,NA,0,NA,NA,NA,NA,NA,NA,NA,NA,NA,NA,NA,NA,NA,NA,NA,NA,NA,NA,NA,NA
80413,deep,flow.Sequence,1_1_1_0,NA,NA,completion,13648.22,105969,105963.16,105979.8,119628.02,119631,2023-10-20T08:24:03Z,119644.66,"c(""distractor1"", ""distractor2"", ""distractor3"")",Gesundheit,salama,d,NA,NA,NA,NA,NA,NA,NA,NA,NA,NA,NA,NA,NA,NA,NA,NA,NA,NA,NA,NA,NA,NA,NA,NA,NA,NA
80413,shallow,flow.Sequence,1_1_1_1,NA,NA,skipped,NA,119632,NA,NA,119628.02,119632,2023-10-20T08:24:03Z,119644.66,"c(""distractor1"", ""distractor2"", ""distractor3"")",Gesundheit,salama,d,NA,NA,NA,NA,NA,NA,NA,NA,NA,NA,NA,NA,NA,NA,NA,NA,NA,NA,NA,NA,NA,NA,NA,NA,NA,NA
80413,task,flow.Sequence,1_1_1,NA,NA,completion,13648.22,105968,105963.16,105979.8,119628.02,119633,2023-10-20T08:24:03Z,119644.66,"c(""distractor1"", ""distractor2"", ""distractor3"")",Gesundheit,salama,d,NA,NA,NA,NA,NA,NA,NA,NA,NA,NA,NA,NA,NA,NA,NA,NA,NA,NA,NA,NA,NA,NA,NA,NA,NA,NA
80413,deep,flow.Sequence,1_1_2_0,NA,NA,skipped,NA,119633,NA,NA,119628.02,119633,2023-10-20T08:24:03Z,119644.66,"c(""distractor1"", ""distractor2"", ""distractor3"")",Gegenwart,hadhara,s,katiba,jokofu,mikopo,NA,NA,NA,NA,NA,NA,NA,NA,NA,NA,NA,NA,NA,NA,NA,NA,NA,NA,NA,NA,NA,NA,NA
80413,Shallow Question,html.Page,1_1_2_1_0,NA,NA,form submission,7802.34,119634,119628.02,119644.66,127447,127447,2023-10-20T08:24:11Z,127446.06,"c(""distractor1"", ""distractor2"", ""distractor3"")",Gegenwart,hadhara,s,katiba,jokofu,mikopo,hadhara,NA,NA,NA,NA,NA,NA,NA,NA,NA,NA,NA,NA,NA,NA,NA,NA,NA,NA,NA,NA,NA,NA
80413,"""Richtig""-Screen",canvas.Screen,1_1_2_1_1,NA,NA,timeout,4997.08,127450,127445.68,127446.06,132426.48,132428,2023-10-20T08:24:16Z,132443.14,"c(""distractor1"", ""distractor2"", ""distractor3"")",Gegenwart,hadhara,s,katiba,jokofu,mikopo,NA,NA,1,NA,NA,NA,NA,NA,NA,NA,NA,NA,NA,NA,NA,NA,NA,NA,NA,NA,NA,NA,NA
80413,"""Falsch""-Screen",canvas.Screen,1_1_2_1_2,NA,NA,skipped,NA,132436,NA,NA,132426.48,132437,2023-10-20T08:24:16Z,132443.14,"c(""distractor1"", ""distractor2"", ""distractor3"")",Gegenwart,hadhara,s,katiba,jokofu,mikopo,NA,NA,NA,NA,NA,NA,NA,NA,NA,NA,NA,NA,NA,NA,NA,NA,NA,NA,NA,NA,NA,NA,NA
80413,shallow,flow.Sequence,1_1_2_1,NA,NA,completion,12781.82,119634,119628.02,119644.66,132426.48,132437,2023-10-20T08:24:16Z,132443.14,"c(""distractor1"", ""distractor2"", ""distractor3"")",Gegenwart,hadhara,s,katiba,jokofu,mikopo,NA,NA,NA,NA,NA,NA,NA,NA,NA,NA,NA,NA,NA,NA,NA,NA,NA,NA,NA,NA,NA,NA,NA
80413,task,flow.Sequence,1_1_2,NA,NA,completion,12781.82,119633,119628.02,119644.66,132426.48,132438,2023-10-20T08:24:16Z,132443.14,"c(""distractor1"", ""distractor2"", ""distractor3"")",Gegenwart,hadhara,s,katiba,jokofu,mikopo,NA,NA,NA,NA,NA,NA,NA,NA,NA,NA,NA,NA,NA,NA,NA,NA,NA,NA,NA,NA,NA,NA,NA
80413,Deep Question,html.Page,1_1_3_0_0,NA,NA,form submission,5231.86,132438,132426.48,132443.14,137675,137675,2023-10-20T08:24:21Z,137675.84,"c(""distractor1"", ""distractor2"", ""distractor3"")",Schatten,kivuli,d,NA,NA,NA,upo,NA,NA,NA,NA,NA,NA,NA,NA,NA,NA,NA,NA,NA,NA,NA,NA,NA,NA,NA,NA,NA,NA
80413,"""Richtig""-Screen",canvas.Screen,1_1_3_0_1,NA,NA,skipped,NA,137677,NA,NA,137675,137677,2023-10-20T08:24:21Z,137675.84,"c(""distractor1"", ""distractor2"", ""distractor3"")",Schatten,kivuli,d,NA,NA,NA,NA,NA,NA,NA,NA,NA,NA,NA,NA,NA,NA,NA,NA,NA,NA,NA,NA,NA,NA,NA,NA,NA,NA
80413,"""Falsch""-Screen",canvas.Screen,1_1_3_0_2,NA,NA,timeout,4999.34,137680,137672.98,137675.84,142658.52,142659,2023-10-20T08:24:26Z,142675.18,"c(""distractor1"", ""distractor2"", ""distractor3"")",Schatten,kivuli,d,NA,NA,NA,NA,NA,0,NA,NA,NA,NA,NA,NA,NA,NA,NA,NA,NA,NA,NA,NA,NA,NA,NA,NA,NA,NA
80413,deep,flow.Sequence,1_1_3_0,NA,NA,completion,10215.38,132438,132426.48,132443.14,142658.52,142660,2023-10-20T08:24:26Z,142675.18,"c(""distractor1"", ""distractor2"", ""distractor3"")",Schatten,kivuli,d,NA,NA,NA,NA,NA,NA,NA,NA,NA,NA,NA,NA,NA,NA,NA,NA,NA,NA,NA,NA,NA,NA,NA,NA,NA,NA
80413,shallow,flow.Sequence,1_1_3_1,NA,NA,skipped,NA,142660,NA,NA,142658.52,142661,2023-10-20T08:24:26Z,142675.18,"c(""distractor1"", ""distractor2"", ""distractor3"")",Schatten,kivuli,d,NA,NA,NA,NA,NA,NA,NA,NA,NA,NA,NA,NA,NA,NA,NA,NA,NA,NA,NA,NA,NA,NA,NA,NA,NA,NA
80413,task,flow.Sequence,1_1_3,NA,NA,completion,10215.38,132438,132426.48,132443.14,142658.52,142661,2023-10-20T08:24:26Z,142675.18,"c(""distractor1"", ""distractor2"", ""distractor3"")",Schatten,kivuli,d,NA,NA,NA,NA,NA,NA,NA,NA,NA,NA,NA,NA,NA,NA,NA,NA,NA,NA,NA,NA,NA,NA,NA,NA,NA,NA
80413,deep,flow.Sequence,1_1_4_0,NA,NA,skipped,NA,142662,NA,NA,142658.52,142662,2023-10-20T08:24:26Z,142675.18,"c(""distractor1"", ""distractor2"", ""distractor3"")",Kritik,lawama,s,dereva,nafasi,mawazo,NA,NA,NA,NA,NA,NA,NA,NA,NA,NA,NA,NA,NA,NA,NA,NA,NA,NA,NA,NA,NA,NA,NA
80413,Shallow Question,html.Page,1_1_4_1_0,NA,NA,form submission,5439.82,142662,142658.52,142675.18,148115,148115,2023-10-20T08:24:32Z,148124.46,"c(""distractor1"", ""distractor2"", ""distractor3"")",Kritik,lawama,s,dereva,nafasi,mawazo,nafasi,NA,NA,NA,NA,NA,NA,NA,NA,NA,NA,NA,NA,NA,NA,NA,NA,NA,NA,NA,NA,NA,NA
80413,"""Richtig""-Screen",canvas.Screen,1_1_4_1_1,NA,NA,skipped,NA,148118,NA,NA,148115,148119,2023-10-20T08:24:32Z,148124.46,"c(""distractor1"", ""distractor2"", ""distractor3"")",Kritik,lawama,s,dereva,nafasi,mawazo,NA,NA,NA,NA,NA,NA,NA,NA,NA,NA,NA,NA,NA,NA,NA,NA,NA,NA,NA,NA,NA,NA,NA
80413,"""Falsch""-Screen",canvas.Screen,1_1_4_1_2,NA,NA,timeout,4999.32,148122,148113.14,148124.46,153107.12,153108,2023-10-20T08:24:37Z,153123.78,"c(""distractor1"", ""distractor2"", ""distractor3"")",Kritik,lawama,s,dereva,nafasi,mawazo,NA,NA,0,NA,NA,NA,NA,NA,NA,NA,NA,NA,NA,NA,NA,NA,NA,NA,NA,NA,NA,NA,NA
80413,shallow,flow.Sequence,1_1_4_1,NA,NA,completion,10431.94,142662,142658.52,142675.18,153107.12,153108,2023-10-20T08:24:37Z,153123.78,"c(""distractor1"", ""distractor2"", ""distractor3"")",Kritik,lawama,s,dereva,nafasi,mawazo,NA,NA,NA,NA,NA,NA,NA,NA,NA,NA,NA,NA,NA,NA,NA,NA,NA,NA,NA,NA,NA,NA,NA
80413,task,flow.Sequence,1_1_4,NA,NA,completion,10431.94,142661,142658.52,142675.18,153107.12,153108,2023-10-20T08:24:37Z,153123.78,"c(""distractor1"", ""distractor2"", ""distractor3"")",Kritik,lawama,s,dereva,nafasi,mawazo,NA,NA,NA,NA,NA,NA,NA,NA,NA,NA,NA,NA,NA,NA,NA,NA,NA,NA,NA,NA,NA,NA,NA
80413,deep,flow.Sequence,1_1_5_0,NA,NA,skipped,NA,153109,NA,NA,153107.12,153109,2023-10-20T08:24:37Z,153123.78,"c(""distractor1"", ""distractor2"", ""distractor3"")",Rückhalt,msaada,s,muhula,auwali,kiwimbe,NA,NA,NA,NA,NA,NA,NA,NA,NA,NA,NA,NA,NA,NA,NA,NA,NA,NA,NA,NA,NA,NA,NA
80413,Shallow Question,html.Page,1_1_5_1_0,NA,NA,form submission,5906.22,153109,153107.12,153123.78,159030,159030,2023-10-20T08:24:43Z,159029.34,"c(""distractor1"", ""distractor2"", ""distractor3"")",Rückhalt,msaada,s,muhula,auwali,kiwimbe,kiwimbe,NA,NA,NA,NA,NA,NA,NA,NA,NA,NA,NA,NA,NA,NA,NA,NA,NA,NA,NA,NA,NA,NA
80413,"""Richtig""-Screen",canvas.Screen,1_1_5_1_1,NA,NA,skipped,NA,159032,NA,NA,159030,159032,2023-10-20T08:24:43Z,159029.34,"c(""distractor1"", ""distractor2"", ""distractor3"")",Rückhalt,msaada,s,muhula,auwali,kiwimbe,NA,NA,NA,NA,NA,NA,NA,NA,NA,NA,NA,NA,NA,NA,NA,NA,NA,NA,NA,NA,NA,NA,NA
80413,"""Falsch""-Screen",canvas.Screen,1_1_5_1_2,NA,NA,timeout,4993.06,159035,159028.98,159029.34,164005.76,164007,2023-10-20T08:24:48Z,164022.4,"c(""distractor1"", ""distractor2"", ""distractor3"")",Rückhalt,msaada,s,muhula,auwali,kiwimbe,NA,NA,0,NA,NA,NA,NA,NA,NA,NA,NA,NA,NA,NA,NA,NA,NA,NA,NA,NA,NA,NA,NA
80413,shallow,flow.Sequence,1_1_5_1,NA,NA,completion,10881.98,153109,153107.12,153123.78,164005.76,164007,2023-10-20T08:24:48Z,164022.4,"c(""distractor1"", ""distractor2"", ""distractor3"")",Rückhalt,msaada,s,muhula,auwali,kiwimbe,NA,NA,NA,NA,NA,NA,NA,NA,NA,NA,NA,NA,NA,NA,NA,NA,NA,NA,NA,NA,NA,NA,NA
80413,task,flow.Sequence,1_1_5,NA,NA,completion,10881.98,153109,153107.12,153123.78,164005.76,164007,2023-10-20T08:24:48Z,164022.4,"c(""distractor1"", ""distractor2"", ""distractor3"")",Rückhalt,msaada,s,muhula,auwali,kiwimbe,NA,NA,NA,NA,NA,NA,NA,NA,NA,NA,NA,NA,NA,NA,NA,NA,NA,NA,NA,NA,NA,NA,NA
80413,block,flow.Loop,1_1,NA,NA,completion,74522.78,89473,89474.22,89482.98,164005.76,164008,2023-10-20T08:24:48Z,164022.4,"c(""distractor1"", ""distractor2"", ""distractor3"")",NA,NA,NA,NA,NA,NA,NA,NA,NA,NA,NA,NA,NA,NA,NA,NA,NA,NA,NA,NA,NA,NA,NA,NA,NA,NA,NA,NA,NA
80413,Practice,flow.Sequence,1,NA,NA,completion,77406.78,86597,86596.5,86598.98,164005.76,164008,2023-10-20T08:24:48Z,164022.4,NULL,NA,NA,NA,NA,NA,NA,NA,NA,NA,NA,NA,NA,NA,NA,NA,NA,NA,NA,NA,NA,NA,NA,NA,NA,NA,NA,NA,NA,NA
80413,Experiment start,canvas.Screen,2,weiter,keypress(q),response,58493.6,164008,164005.76,164022.4,222516,222529,2023-10-20T08:25:46Z,222622.48,NULL,NA,NA,NA,NA,NA,NA,NA,NA,NA,NA,NA,NA,NA,NA,NA,NA,NA,NA,NA,NA,NA,NA,NA,NA,NA,NA,NA,NA,NA
80413,Deep Question,html.Page,3_0_0_0_0_0_0,NA,NA,form submission,11872.52,222623,222622.18,222622.48,234495,234496,2023-10-20T08:25:58Z,234496.74,NULL,Sänger,mwimbaji,d,NA,NA,NA,lala,NA,NA,0,NA,NA,NA,NA,NA,NA,NA,NA,NA,NA,NA,NA,NA,NA,NA,NA,NA,NA,NA
80413,"""Richtig""-Screen",canvas.Screen,3_0_0_0_0_0_1,NA,NA,skipped,NA,234501,NA,NA,234495,234501,2023-10-20T08:25:58Z,234496.74,NULL,Sänger,mwimbaji,d,NA,NA,NA,NA,sdf,NA,0,NA,NA,NA,NA,NA,NA,NA,NA,NA,NA,NA,NA,NA,NA,NA,NA,NA,NA,NA
80413,"""Falsch""-Screen",canvas.Screen,3_0_0_0_0_0_2,NA,NA,timeout,4999.4,234503,234493.56,234496.74,239479.48,239482,2023-10-20T08:26:03Z,239496.14,NULL,Sänger,mwimbaji,d,NA,NA,NA,NA,sdf,0,0,NA,NA,NA,NA,NA,NA,NA,NA,NA,NA,NA,NA,NA,NA,NA,NA,NA,NA,NA
80413,deep,flow.Sequence,3_0_0_0_0_0,NA,NA,completion,16857,222622,222622.18,222622.48,239479.48,239483,2023-10-20T08:26:03Z,239496.14,NULL,Sänger,mwimbaji,d,NA,NA,NA,NA,sdf,NA,0,NA,NA,NA,NA,NA,NA,NA,NA,NA,NA,NA,NA,NA,NA,NA,NA,NA,NA,NA
80413,shallow,flow.Sequence,3_0_0_0_0_1,NA,NA,skipped,NA,239484,NA,NA,239479.48,239484,2023-10-20T08:26:03Z,239496.14,NULL,Sänger,mwimbaji,d,NA,NA,NA,NA,sdf,NA,0,NA,NA,NA,NA,NA,NA,NA,NA,NA,NA,NA,NA,NA,NA,NA,NA,NA,NA,NA
80413,task,flow.Sequence,3_0_0_0_0,NA,NA,completion,16857,222622,222622.18,222622.48,239479.48,239485,2023-10-20T08:26:03Z,239496.14,NULL,Sänger,mwimbaji,d,NA,NA,NA,NA,sdf,NA,0,NA,NA,NA,NA,NA,NA,NA,NA,NA,NA,NA,NA,NA,NA,NA,NA,NA,NA,NA
80413,deep,flow.Sequence,3_0_0_0_1_0,NA,NA,skipped,NA,239486,NA,NA,239479.48,239486,2023-10-20T08:26:03Z,239496.14,NULL,Abrechnung,uhasibu,s,kusahihisha,mpambano,mashambulizi,NA,sdf,NA,0,NA,NA,NA,NA,NA,NA,NA,NA,NA,NA,NA,NA,NA,NA,NA,NA,NA,NA,NA
80413,Shallow Question,html.Page,3_0_0_0_1_1_0,NA,NA,form submission,23863.86,239487,239479.48,239496.14,263360,263361,2023-10-20T08:26:27Z,263359.76,NULL,Abrechnung,uhasibu,s,kusahihisha,mpambano,mashambulizi,uhasibu,NA,NA,0,NA,NA,NA,NA,NA,NA,NA,NA,NA,NA,NA,NA,NA,NA,NA,NA,NA,NA,NA
80413,"""Richtig""-Screen",canvas.Screen,3_0_0_0_1_1_1,NA,NA,timeout,4999.36,263365,263356.08,263359.76,268342.48,268344,2023-10-20T08:26:32Z,268359.12,NULL,Abrechnung,uhasibu,s,kusahihisha,mpambano,mashambulizi,NA,sdf,1,0,NA,NA,NA,NA,NA,NA,NA,NA,NA,NA,NA,NA,NA,NA,NA,NA,NA,NA,NA
80413,"""Falsch""-Screen",canvas.Screen,3_0_0_0_1_1_2,NA,NA,skipped,NA,268350,NA,NA,268342.48,268351,2023-10-20T08:26:32Z,268359.12,NULL,Abrechnung,uhasibu,s,kusahihisha,mpambano,mashambulizi,NA,sdf,NA,0,NA,NA,NA,NA,NA,NA,NA,NA,NA,NA,NA,NA,NA,NA,NA,NA,NA,NA,NA
80413,shallow,flow.Sequence,3_0_0_0_1_1,NA,NA,completion,28846.34,239487,239479.48,239496.14,268342.48,268351,2023-10-20T08:26:32Z,268359.12,NULL,Abrechnung,uhasibu,s,kusahihisha,mpambano,mashambulizi,NA,sdf,NA,0,NA,NA,NA,NA,NA,NA,NA,NA,NA,NA,NA,NA,NA,NA,NA,NA,NA,NA,NA
80413,task,flow.Sequence,3_0_0_0_1,NA,NA,completion,28846.34,239485,239479.48,239496.14,268342.48,268352,2023-10-20T08:26:32Z,268359.12,NULL,Abrechnung,uhasibu,s,kusahihisha,mpambano,mashambulizi,NA,sdf,NA,0,NA,NA,NA,NA,NA,NA,NA,NA,NA,NA,NA,NA,NA,NA,NA,NA,NA,NA,NA
80413,deep,flow.Sequence,3_0_0_0_2_0,NA,NA,skipped,NA,268352,NA,NA,268342.48,268352,2023-10-20T08:26:32Z,268359.12,NULL,Kanzler,diwani,s,rasilmali,mahitaji,maabudu,NA,sdf,NA,0,NA,NA,NA,NA,NA,NA,NA,NA,NA,NA,NA,NA,NA,NA,NA,NA,NA,NA,NA
80413,Shallow Question,html.Page,3_0_0_0_2_1_0,NA,NA,form submission,16907.88,268353,268342.48,268359.12,285267,285267,2023-10-20T08:26:49Z,285273.52,NULL,Kanzler,diwani,s,rasilmali,mahitaji,maabudu,diwani,NA,NA,0,NA,NA,NA,NA,NA,NA,NA,NA,NA,NA,NA,NA,NA,NA,NA,NA,NA,NA,NA
80413,"""Richtig""-Screen",canvas.Screen,3_0_0_0_2_1_1,NA,NA,timeout,4999.36,285270,285263.64,285273.52,290256.22,290258,2023-10-20T08:26:54Z,290272.88,NULL,Kanzler,diwani,s,rasilmali,mahitaji,maabudu,NA,sdf,1,0,NA,NA,NA,NA,NA,NA,NA,NA,NA,NA,NA,NA,NA,NA,NA,NA,NA,NA,NA
80413,"""Falsch""-Screen",canvas.Screen,3_0_0_0_2_1_2,NA,NA,skipped,NA,290266,NA,NA,290256.22,290266,2023-10-20T08:26:54Z,290272.88,NULL,Kanzler,diwani,s,rasilmali,mahitaji,maabudu,NA,sdf,NA,0,NA,NA,NA,NA,NA,NA,NA,NA,NA,NA,NA,NA,NA,NA,NA,NA,NA,NA,NA
80413,shallow,flow.Sequence,3_0_0_0_2_1,NA,NA,completion,21897.1,268353,268342.48,268359.12,290256.22,290267,2023-10-20T08:26:54Z,290272.88,NULL,Kanzler,diwani,s,rasilmali,mahitaji,maabudu,NA,sdf,NA,0,NA,NA,NA,NA,NA,NA,NA,NA,NA,NA,NA,NA,NA,NA,NA,NA,NA,NA,NA
80413,task,flow.Sequence,3_0_0_0_2,NA,NA,completion,21897.1,268352,268342.48,268359.12,290256.22,290267,2023-10-20T08:26:54Z,290272.88,NULL,Kanzler,diwani,s,rasilmali,mahitaji,maabudu,NA,sdf,NA,0,NA,NA,NA,NA,NA,NA,NA,NA,NA,NA,NA,NA,NA,NA,NA,NA,NA,NA,NA
80413,deep,flow.Sequence,3_0_0_0_3_0,NA,NA,skipped,NA,290268,NA,NA,290256.22,290268,2023-10-20T08:26:54Z,290272.88,NULL,Zufall,kikuti,s,kukosekana,uchoraji,leseni,NA,sdf,NA,0,NA,NA,NA,NA,NA,NA,NA,NA,NA,NA,NA,NA,NA,NA,NA,NA,NA,NA,NA
80413,Shallow Question,html.Page,3_0_0_0_3_1_0,NA,NA,form submission,13283.12,290268,290256.22,290272.88,303556,303557,2023-10-20T08:27:07Z,303571.24,NULL,Zufall,kikuti,s,kukosekana,uchoraji,leseni,kukosekana,NA,NA,0,NA,NA,NA,NA,NA,NA,NA,NA,NA,NA,NA,NA,NA,NA,NA,NA,NA,NA,NA
80413,"""Richtig""-Screen",canvas.Screen,3_0_0_0_3_1_1,NA,NA,skipped,NA,303562,NA,NA,303556,303563,2023-10-20T08:27:07Z,303571.24,NULL,Zufall,kikuti,s,kukosekana,uchoraji,leseni,NA,sdf,NA,0,NA,NA,NA,NA,NA,NA,NA,NA,NA,NA,NA,NA,NA,NA,NA,NA,NA,NA,NA
80413,"""Falsch""-Screen",canvas.Screen,3_0_0_0_3_1_2,NA,NA,timeout,4999.38,303568,303550.46,303571.24,308553.96,308556,2023-10-20T08:27:12Z,308570.62,NULL,Zufall,kikuti,s,kukosekana,uchoraji,leseni,NA,sdf,0,0,NA,NA,NA,NA,NA,NA,NA,NA,NA,NA,NA,NA,NA,NA,NA,NA,NA,NA,NA
80413,shallow,flow.Sequence,3_0_0_0_3_1,NA,NA,completion,18281.08,290268,290256.22,290272.88,308553.96,308556,2023-10-20T08:27:12Z,308570.62,NULL,Zufall,kikuti,s,kukosekana,uchoraji,leseni,NA,sdf,NA,0,NA,NA,NA,NA,NA,NA,NA,NA,NA,NA,NA,NA,NA,NA,NA,NA,NA,NA,NA
80413,task,flow.Sequence,3_0_0_0_3,NA,NA,completion,18281.08,290267,290256.22,290272.88,308553.96,308557,2023-10-20T08:27:12Z,308570.62,NULL,Zufall,kikuti,s,kukosekana,uchoraji,leseni,NA,sdf,NA,0,NA,NA,NA,NA,NA,NA,NA,NA,NA,NA,NA,NA,NA,NA,NA,NA,NA,NA,NA
80413,Deep Question,html.Page,3_0_0_0_4_0_0,NA,NA,form submission,11904.38,308557,308553.96,308570.62,320475,320476,2023-10-20T08:27:24Z,320485.74,NULL,Angreifer,mshambulizi,d,NA,NA,NA,op,NA,NA,0,NA,NA,NA,NA,NA,NA,NA,NA,NA,NA,NA,NA,NA,NA,NA,NA,NA,NA,NA
80413,"""Richtig""-Screen",canvas.Screen,3_0_0_0_4_0_1,NA,NA,skipped,NA,320479,NA,NA,320475,320479,2023-10-20T08:27:24Z,320485.74,NULL,Angreifer,mshambulizi,d,NA,NA,NA,NA,sdf,NA,0,NA,NA,NA,NA,NA,NA,NA,NA,NA,NA,NA,NA,NA,NA,NA,NA,NA,NA,NA
80413,"""Falsch""-Screen",canvas.Screen,3_0_0_0_4_0_2,NA,NA,timeout,4999.38,320482,320469.06,320485.74,325468.46,325471,2023-10-20T08:27:29Z,325485.12,NULL,Angreifer,mshambulizi,d,NA,NA,NA,NA,sdf,0,0,NA,NA,NA,NA,NA,NA,NA,NA,NA,NA,NA,NA,NA,NA,NA,NA,NA,NA,NA
80413,deep,flow.Sequence,3_0_0_0_4_0,NA,NA,completion,16897.84,308557,308553.96,308570.62,325468.46,325471,2023-10-20T08:27:29Z,325485.12,NULL,Angreifer,mshambulizi,d,NA,NA,NA,NA,sdf,NA,0,NA,NA,NA,NA,NA,NA,NA,NA,NA,NA,NA,NA,NA,NA,NA,NA,NA,NA,NA
80413,shallow,flow.Sequence,3_0_0_0_4_1,NA,NA,skipped,NA,325472,NA,NA,325468.46,325472,2023-10-20T08:27:29Z,325485.12,NULL,Angreifer,mshambulizi,d,NA,NA,NA,NA,sdf,NA,0,NA,NA,NA,NA,NA,NA,NA,NA,NA,NA,NA,NA,NA,NA,NA,NA,NA,NA,NA
80413,task,flow.Sequence,3_0_0_0_4,NA,NA,completion,16897.84,308557,308553.96,308570.62,325468.46,325472,2023-10-20T08:27:29Z,325485.12,NULL,Angreifer,mshambulizi,d,NA,NA,NA,NA,sdf,NA,0,NA,NA,NA,NA,NA,NA,NA,NA,NA,NA,NA,NA,NA,NA,NA,NA,NA,NA,NA
80413,Deep Question,html.Page,3_0_0_0_5_0_0,NA,NA,form submission,18937.88,325473,325468.46,325485.12,344423,344423,2023-10-20T08:27:48Z,344432.68,NULL,Wettbewerb,ushindani,d,NA,NA,NA,rez,NA,NA,0,NA,NA,NA,NA,NA,NA,NA,NA,NA,NA,NA,NA,NA,NA,NA,NA,NA,NA,NA
80413,"""Richtig""-Screen",canvas.Screen,3_0_0_0_5_0_1,NA,NA,skipped,NA,344426,NA,NA,344423,344426,2023-10-20T08:27:48Z,344432.68,NULL,Wettbewerb,ushindani,d,NA,NA,NA,NA,sdf,NA,0,NA,NA,NA,NA,NA,NA,NA,NA,NA,NA,NA,NA,NA,NA,NA,NA,NA,NA,NA
80413,"""Falsch""-Screen",canvas.Screen,3_0_0_0_5_0_2,NA,NA,timeout,4999.36,344429,344421.74,344432.68,349415.4,349417,2023-10-20T08:27:53Z,349432.04,NULL,Wettbewerb,ushindani,d,NA,NA,NA,NA,sdf,0,0,NA,NA,NA,NA,NA,NA,NA,NA,NA,NA,NA,NA,NA,NA,NA,NA,NA,NA,NA
80413,deep,flow.Sequence,3_0_0_0_5_0,NA,NA,completion,23930.28,325473,325468.46,325485.12,349415.4,349418,2023-10-20T08:27:53Z,349432.04,NULL,Wettbewerb,ushindani,d,NA,NA,NA,NA,sdf,NA,0,NA,NA,NA,NA,NA,NA,NA,NA,NA,NA,NA,NA,NA,NA,NA,NA,NA,NA,NA
80413,shallow,flow.Sequence,3_0_0_0_5_1,NA,NA,skipped,NA,349418,NA,NA,349415.4,349419,2023-10-20T08:27:53Z,349432.04,NULL,Wettbewerb,ushindani,d,NA,NA,NA,NA,sdf,NA,0,NA,NA,NA,NA,NA,NA,NA,NA,NA,NA,NA,NA,NA,NA,NA,NA,NA,NA,NA
80413,task,flow.Sequence,3_0_0_0_5,NA,NA,completion,23930.28,325473,325468.46,325485.12,349415.4,349419,2023-10-20T08:27:53Z,349432.04,NULL,Wettbewerb,ushindani,d,NA,NA,NA,NA,sdf,NA,0,NA,NA,NA,NA,NA,NA,NA,NA,NA,NA,NA,NA,NA,NA,NA,NA,NA,NA,NA
80413,Deep Question,html.Page,3_0_0_0_6_0_0,NA,NA,form submission,7290.96,349419,349415.4,349432.04,356723,356723,2023-10-20T08:28:00Z,356731.14,NULL,Auftrag,uagizaji,d,NA,NA,NA,tre,NA,NA,0,NA,NA,NA,NA,NA,NA,NA,NA,NA,NA,NA,NA,NA,NA,NA,NA,NA,NA,NA
80413,"""Richtig""-Screen",canvas.Screen,3_0_0_0_6_0_1,NA,NA,skipped,NA,356725,NA,NA,356723,356726,2023-10-20T08:28:00Z,356731.14,NULL,Auftrag,uagizaji,d,NA,NA,NA,NA,sdf,NA,0,NA,NA,NA,NA,NA,NA,NA,NA,NA,NA,NA,NA,NA,NA,NA,NA,NA,NA,NA
80413,"""Falsch""-Screen",canvas.Screen,3_0_0_0_6_0_2,NA,NA,timeout,4999.4,356729,356722.12,356731.14,361713.88,361715,2023-10-20T08:28:05Z,361730.54,NULL,Auftrag,uagizaji,d,NA,NA,NA,NA,sdf,0,0,NA,NA,NA,NA,NA,NA,NA,NA,NA,NA,NA,NA,NA,NA,NA,NA,NA,NA,NA
80413,deep,flow.Sequence,3_0_0_0_6_0,NA,NA,completion,12281.84,349419,349415.4,349432.04,361713.88,361716,2023-10-20T08:28:05Z,361730.54,NULL,Auftrag,uagizaji,d,NA,NA,NA,NA,sdf,NA,0,NA,NA,NA,NA,NA,NA,NA,NA,NA,NA,NA,NA,NA,NA,NA,NA,NA,NA,NA
80413,shallow,flow.Sequence,3_0_0_0_6_1,NA,NA,skipped,NA,361716,NA,NA,361713.88,361716,2023-10-20T08:28:05Z,361730.54,NULL,Auftrag,uagizaji,d,NA,NA,NA,NA,sdf,NA,0,NA,NA,NA,NA,NA,NA,NA,NA,NA,NA,NA,NA,NA,NA,NA,NA,NA,NA,NA
80413,task,flow.Sequence,3_0_0_0_6,NA,NA,completion,12281.84,349419,349415.4,349432.04,361713.88,361716,2023-10-20T08:28:05Z,361730.54,NULL,Auftrag,uagizaji,d,NA,NA,NA,NA,sdf,NA,0,NA,NA,NA,NA,NA,NA,NA,NA,NA,NA,NA,NA,NA,NA,NA,NA,NA,NA,NA
80413,deep,flow.Sequence,3_0_0_0_7_0,NA,NA,skipped,NA,361717,NA,NA,361713.88,361717,2023-10-20T08:28:05Z,361730.54,NULL,Schönheit,kirembo,s,mahojiano,msisimko,jitihadi,NA,sdf,NA,0,NA,NA,NA,NA,NA,NA,NA,NA,NA,NA,NA,NA,NA,NA,NA,NA,NA,NA,NA
80413,Shallow Question,html.Page,3_0_0_0_7_1_0,NA,NA,form submission,8546.46,361717,361713.88,361730.54,370277,370277,2023-10-20T08:28:14Z,370279.44,NULL,Schönheit,kirembo,s,mahojiano,msisimko,jitihadi,kirembo,NA,NA,0,NA,NA,NA,NA,NA,NA,NA,NA,NA,NA,NA,NA,NA,NA,NA,NA,NA,NA,NA
80413,"""Richtig""-Screen",canvas.Screen,3_0_0_0_7_1_1,NA,NA,timeout,4999.26,370279,370273.8,370279.44,375262.06,375263,2023-10-20T08:28:19Z,375278.7,NULL,Schönheit,kirembo,s,mahojiano,msisimko,jitihadi,NA,sdf,1,0,NA,NA,NA,NA,NA,NA,NA,NA,NA,NA,NA,NA,NA,NA,NA,NA,NA,NA,NA
80413,"""Falsch""-Screen",canvas.Screen,3_0_0_0_7_1_2,NA,NA,skipped,NA,375269,NA,NA,375262.06,375270,2023-10-20T08:28:19Z,375278.7,NULL,Schönheit,kirembo,s,mahojiano,msisimko,jitihadi,NA,sdf,NA,0,NA,NA,NA,NA,NA,NA,NA,NA,NA,NA,NA,NA,NA,NA,NA,NA,NA,NA,NA
80413,shallow,flow.Sequence,3_0_0_0_7_1,NA,NA,completion,13531.52,361717,361713.88,361730.54,375262.06,375270,2023-10-20T08:28:19Z,375278.7,NULL,Schönheit,kirembo,s,mahojiano,msisimko,jitihadi,NA,sdf,NA,0,NA,NA,NA,NA,NA,NA,NA,NA,NA,NA,NA,NA,NA,NA,NA,NA,NA,NA,NA
80413,task,flow.Sequence,3_0_0_0_7,NA,NA,completion,13531.52,361716,361713.88,361730.54,375262.06,375271,2023-10-20T08:28:19Z,375278.7,NULL,Schönheit,kirembo,s,mahojiano,msisimko,jitihadi,NA,sdf,NA,0,NA,NA,NA,NA,NA,NA,NA,NA,NA,NA,NA,NA,NA,NA,NA,NA,NA,NA,NA
80413,block,flow.Loop,3_0_0_0,NA,NA,completion,152639.58,222622,222622.18,222622.48,375262.06,375271,2023-10-20T08:28:19Z,375278.7,NULL,NA,NA,NA,NA,NA,NA,NA,sdf,NA,0,NA,NA,NA,NA,NA,NA,NA,NA,NA,NA,NA,NA,NA,NA,NA,NA,NA,NA,NA
80413,weiter,canvas.Screen,3_0_0_1,sdf,keypress(Space),response,2142.3,375271,375262.06,375278.7,377421,377439,2023-10-20T08:28:21Z,377502.12,NULL,NA,NA,NA,NA,NA,NA,NA,sdf,NA,0,NA,NA,NA,NA,NA,NA,NA,NA,NA,NA,NA,NA,NA,NA,NA,NA,NA,NA,NA
80413,check continue,flow.Sequence,3_0_0,NA,NA,completion,154798.52,222622,222622.18,222622.48,377421,377441,2023-10-20T08:28:21Z,377502.12,NULL,NA,NA,NA,NA,NA,NA,NA,sdf,NA,0,NA,NA,NA,NA,NA,NA,NA,NA,NA,NA,NA,NA,NA,NA,NA,NA,NA,NA,NA
80413,deep,flow.Sequence,3_0_1_0_0_0,NA,NA,skipped,NA,377502,NA,NA,377421,377502,2023-10-20T08:28:21Z,377502.12,NULL,Kanzler,diwani,s,rasilmali,mahitaji,maabudu,NA,sdfdsf,NA,1,NA,NA,NA,NA,NA,NA,NA,NA,NA,NA,NA,NA,NA,NA,NA,NA,NA,NA,NA
80413,Shallow Question,html.Page,3_0_1_0_0_1_0,NA,NA,form submission,4298.88,377502,377501.8,377502.12,381801,381802,2023-10-20T08:28:25Z,381811.16,NULL,Kanzler,diwani,s,rasilmali,mahitaji,maabudu,diwani,NA,NA,1,NA,NA,NA,NA,NA,NA,NA,NA,NA,NA,NA,NA,NA,NA,NA,NA,NA,NA,NA
80413,"""Richtig""-Screen",canvas.Screen,3_0_1_0_0_1_1,NA,NA,timeout,4999.4,381805,381798.94,381811.16,386793.9,386795,2023-10-20T08:28:30Z,386810.56,NULL,Kanzler,diwani,s,rasilmali,mahitaji,maabudu,NA,sdfdsf,1,1,NA,NA,NA,NA,NA,NA,NA,NA,NA,NA,NA,NA,NA,NA,NA,NA,NA,NA,NA
80413,"""Falsch""-Screen",canvas.Screen,3_0_1_0_0_1_2,NA,NA,skipped,NA,386799,NA,NA,386793.9,386799,2023-10-20T08:28:30Z,386810.56,NULL,Kanzler,diwani,s,rasilmali,mahitaji,maabudu,NA,sdfdsf,NA,1,NA,NA,NA,NA,NA,NA,NA,NA,NA,NA,NA,NA,NA,NA,NA,NA,NA,NA,NA
80413,shallow,flow.Sequence,3_0_1_0_0_1,NA,NA,completion,9291.78,377502,377501.8,377502.12,386793.9,386799,2023-10-20T08:28:30Z,386810.56,NULL,Kanzler,diwani,s,rasilmali,mahitaji,maabudu,NA,sdfdsf,NA,1,NA,NA,NA,NA,NA,NA,NA,NA,NA,NA,NA,NA,NA,NA,NA,NA,NA,NA,NA
80413,task,flow.Sequence,3_0_1_0_0,NA,NA,completion,9291.78,377502,377501.8,377502.12,386793.9,386800,2023-10-20T08:28:30Z,386810.56,NULL,Kanzler,diwani,s,rasilmali,mahitaji,maabudu,NA,sdfdsf,NA,1,NA,NA,NA,NA,NA,NA,NA,NA,NA,NA,NA,NA,NA,NA,NA,NA,NA,NA,NA
80413,Deep Question,html.Page,3_0_1_0_1_0_0,NA,NA,form submission,17448.44,386800,386793.9,386810.56,404259,404259,2023-10-20T08:28:48Z,404258.34,NULL,Angreifer,mshambulizi,d,NA,NA,NA,mshambuji,NA,NA,1,NA,NA,NA,NA,NA,NA,NA,NA,NA,NA,NA,NA,NA,NA,NA,NA,NA,NA,NA
80413,"""Richtig""-Screen",canvas.Screen,3_0_1_0_1_0_1,NA,NA,skipped,NA,404262,NA,NA,404259,404262,2023-10-20T08:28:48Z,404258.34,NULL,Angreifer,mshambulizi,d,NA,NA,NA,NA,sdfdsf,NA,1,NA,NA,NA,NA,NA,NA,NA,NA,NA,NA,NA,NA,NA,NA,NA,NA,NA,NA,NA
80413,"""Falsch""-Screen",canvas.Screen,3_0_1_0_1_0_2,NA,NA,timeout,4999.4,404265,404257.86,404258.34,409241.1,409243,2023-10-20T08:28:53Z,409257.74,NULL,Angreifer,mshambulizi,d,NA,NA,NA,NA,sdfdsf,0,1,NA,NA,NA,NA,NA,NA,NA,NA,NA,NA,NA,NA,NA,NA,NA,NA,NA,NA,NA
80413,deep,flow.Sequence,3_0_1_0_1_0,NA,NA,completion,22430.54,386800,386793.9,386810.56,409241.1,409245,2023-10-20T08:28:53Z,409257.74,NULL,Angreifer,mshambulizi,d,NA,NA,NA,NA,sdfdsf,NA,1,NA,NA,NA,NA,NA,NA,NA,NA,NA,NA,NA,NA,NA,NA,NA,NA,NA,NA,NA
80413,shallow,flow.Sequence,3_0_1_0_1_1,NA,NA,skipped,NA,409245,NA,NA,409241.1,409245,2023-10-20T08:28:53Z,409257.74,NULL,Angreifer,mshambulizi,d,NA,NA,NA,NA,sdfdsf,NA,1,NA,NA,NA,NA,NA,NA,NA,NA,NA,NA,NA,NA,NA,NA,NA,NA,NA,NA,NA
80413,task,flow.Sequence,3_0_1_0_1,NA,NA,completion,22430.54,386800,386793.9,386810.56,409241.1,409246,2023-10-20T08:28:53Z,409257.74,NULL,Angreifer,mshambulizi,d,NA,NA,NA,NA,sdfdsf,NA,1,NA,NA,NA,NA,NA,NA,NA,NA,NA,NA,NA,NA,NA,NA,NA,NA,NA,NA,NA
80413,Deep Question,html.Page,3_0_1_0_2_0_0,NA,NA,form submission,31436.26,409246,409241.1,409257.74,440694,440695,2023-10-20T08:29:24Z,440703.78,NULL,Auftrag,uagizaji,d,NA,NA,NA,ua,NA,NA,1,NA,NA,NA,NA,NA,NA,NA,NA,NA,NA,NA,NA,NA,NA,NA,NA,NA,NA,NA
80413,"""Richtig""-Screen",canvas.Screen,3_0_1_0_2_0_1,NA,NA,skipped,NA,440703,NA,NA,440694,440703,2023-10-20T08:29:24Z,440703.78,NULL,Auftrag,uagizaji,d,NA,NA,NA,NA,sdfdsf,NA,1,NA,NA,NA,NA,NA,NA,NA,NA,NA,NA,NA,NA,NA,NA,NA,NA,NA,NA,NA
80413,"""Falsch""-Screen",canvas.Screen,3_0_1_0_2_0_2,NA,NA,timeout,4999.3199999999,440706,440692.02,440703.78,445686.46,445688,2023-10-20T08:29:29Z,445703.1,NULL,Auftrag,uagizaji,d,NA,NA,NA,NA,sdfdsf,0,1,NA,NA,NA,NA,NA,NA,NA,NA,NA,NA,NA,NA,NA,NA,NA,NA,NA,NA,NA
80413,deep,flow.Sequence,3_0_1_0_2_0,NA,NA,completion,36428.72,409246,409241.1,409257.74,445686.46,445689,2023-10-20T08:29:29Z,445703.1,NULL,Auftrag,uagizaji,d,NA,NA,NA,NA,sdfdsf,NA,1,NA,NA,NA,NA,NA,NA,NA,NA,NA,NA,NA,NA,NA,NA,NA,NA,NA,NA,NA
80413,shallow,flow.Sequence,3_0_1_0_2_1,NA,NA,skipped,NA,445689,NA,NA,445686.46,445689,2023-10-20T08:29:29Z,445703.1,NULL,Auftrag,uagizaji,d,NA,NA,NA,NA,sdfdsf,NA,1,NA,NA,NA,NA,NA,NA,NA,NA,NA,NA,NA,NA,NA,NA,NA,NA,NA,NA,NA
80413,task,flow.Sequence,3_0_1_0_2,NA,NA,completion,36428.72,409246,409241.1,409257.74,445686.46,445690,2023-10-20T08:29:29Z,445703.1,NULL,Auftrag,uagizaji,d,NA,NA,NA,NA,sdfdsf,NA,1,NA,NA,NA,NA,NA,NA,NA,NA,NA,NA,NA,NA,NA,NA,NA,NA,NA,NA,NA
80413,deep,flow.Sequence,3_0_1_0_3_0,NA,NA,skipped,NA,445690,NA,NA,445686.46,445691,2023-10-20T08:29:29Z,445703.1,NULL,Zufall,kikuti,s,kukosekana,uchoraji,leseni,NA,sdfdsf,NA,1,NA,NA,NA,NA,NA,NA,NA,NA,NA,NA,NA,NA,NA,NA,NA,NA,NA,NA,NA
80413,Shallow Question,html.Page,3_0_1_0_3_1_0,NA,NA,form submission,17385.9,445691,445686.46,445703.1,463089,463089,2023-10-20T08:29:47Z,463088.3,NULL,Zufall,kikuti,s,kukosekana,uchoraji,leseni,kikuti,NA,NA,1,NA,NA,NA,NA,NA,NA,NA,NA,NA,NA,NA,NA,NA,NA,NA,NA,NA,NA,NA
80413,"""Richtig""-Screen",canvas.Screen,3_0_1_0_3_1_1,NA,NA,timeout,4995.24,463092,463087.9,463088.3,468066.9,468069,2023-10-20T08:29:52Z,468083.54,NULL,Zufall,kikuti,s,kukosekana,uchoraji,leseni,NA,sdfdsf,1,1,NA,NA,NA,NA,NA,NA,NA,NA,NA,NA,NA,NA,NA,NA,NA,NA,NA,NA,NA
80413,"""Falsch""-Screen",canvas.Screen,3_0_1_0_3_1_2,NA,NA,skipped,NA,468076,NA,NA,468066.9,468076,2023-10-20T08:29:52Z,468083.54,NULL,Zufall,kikuti,s,kukosekana,uchoraji,leseni,NA,sdfdsf,NA,1,NA,NA,NA,NA,NA,NA,NA,NA,NA,NA,NA,NA,NA,NA,NA,NA,NA,NA,NA
80413,shallow,flow.Sequence,3_0_1_0_3_1,NA,NA,completion,22363.8,445691,445686.46,445703.1,468066.9,468077,2023-10-20T08:29:52Z,468083.54,NULL,Zufall,kikuti,s,kukosekana,uchoraji,leseni,NA,sdfdsf,NA,1,NA,NA,NA,NA,NA,NA,NA,NA,NA,NA,NA,NA,NA,NA,NA,NA,NA,NA,NA
80413,task,flow.Sequence,3_0_1_0_3,NA,NA,completion,22363.8,445690,445686.46,445703.1,468066.9,468078,2023-10-20T08:29:52Z,468083.54,NULL,Zufall,kikuti,s,kukosekana,uchoraji,leseni,NA,sdfdsf,NA,1,NA,NA,NA,NA,NA,NA,NA,NA,NA,NA,NA,NA,NA,NA,NA,NA,NA,NA,NA
80413,deep,flow.Sequence,3_0_1_0_4_0,NA,NA,skipped,NA,468079,NA,NA,468066.9,468079,2023-10-20T08:29:52Z,468083.54,NULL,Abrechnung,uhasibu,s,kusahihisha,mpambano,mashambulizi,NA,sdfdsf,NA,1,NA,NA,NA,NA,NA,NA,NA,NA,NA,NA,NA,NA,NA,NA,NA,NA,NA,NA,NA
80413,Shallow Question,html.Page,3_0_1_0_4_1_0,NA,NA,form submission,22494.46,468079,468066.9,468083.54,490578,490579,2023-10-20T08:30:14Z,490580.76,NULL,Abrechnung,uhasibu,s,kusahihisha,mpambano,mashambulizi,uhasibu,NA,NA,1,NA,NA,NA,NA,NA,NA,NA,NA,NA,NA,NA,NA,NA,NA,NA,NA,NA,NA,NA
80413,"""Richtig""-Screen",canvas.Screen,3_0_1_0_4_1_1,NA,NA,timeout,4999.26,490586,490573.5,490580.76,495563.36,495565,2023-10-20T08:30:19Z,495580.02,NULL,Abrechnung,uhasibu,s,kusahihisha,mpambano,mashambulizi,NA,sdfdsf,1,1,NA,NA,NA,NA,NA,NA,NA,NA,NA,NA,NA,NA,NA,NA,NA,NA,NA,NA,NA
80413,"""Falsch""-Screen",canvas.Screen,3_0_1_0_4_1_2,NA,NA,skipped,NA,495571,NA,NA,495563.36,495572,2023-10-20T08:30:19Z,495580.02,NULL,Abrechnung,uhasibu,s,kusahihisha,mpambano,mashambulizi,NA,sdfdsf,NA,1,NA,NA,NA,NA,NA,NA,NA,NA,NA,NA,NA,NA,NA,NA,NA,NA,NA,NA,NA
80413,shallow,flow.Sequence,3_0_1_0_4_1,NA,NA,completion,27479.82,468079,468066.9,468083.54,495563.36,495573,2023-10-20T08:30:19Z,495580.02,NULL,Abrechnung,uhasibu,s,kusahihisha,mpambano,mashambulizi,NA,sdfdsf,NA,1,NA,NA,NA,NA,NA,NA,NA,NA,NA,NA,NA,NA,NA,NA,NA,NA,NA,NA,NA
80413,task,flow.Sequence,3_0_1_0_4,NA,NA,completion,27479.82,468078,468066.9,468083.54,495563.36,495573,2023-10-20T08:30:19Z,495580.02,NULL,Abrechnung,uhasibu,s,kusahihisha,mpambano,mashambulizi,NA,sdfdsf,NA,1,NA,NA,NA,NA,NA,NA,NA,NA,NA,NA,NA,NA,NA,NA,NA,NA,NA,NA,NA
80413,Deep Question,html.Page,3_0_1_0_5_0_0,NA,NA,form submission,17627.98,495573,495563.36,495580.02,513208,513208,2023-10-20T08:30:37Z,513211.16,NULL,Wettbewerb,ushindani,d,NA,NA,NA,wer,NA,NA,1,NA,NA,NA,NA,NA,NA,NA,NA,NA,NA,NA,NA,NA,NA,NA,NA,NA,NA,NA
80413,"""Richtig""-Screen",canvas.Screen,3_0_1_0_5_0_1,NA,NA,skipped,NA,513211,NA,NA,513208,513211,2023-10-20T08:30:37Z,513211.16,NULL,Wettbewerb,ushindani,d,NA,NA,NA,NA,sdfdsf,NA,1,NA,NA,NA,NA,NA,NA,NA,NA,NA,NA,NA,NA,NA,NA,NA,NA,NA,NA,NA
80413,"""Falsch""-Screen",canvas.Screen,3_0_1_0_5_0_2,NA,NA,timeout,4999.3,513214,513206.8,513211.16,518193.8,518195,2023-10-20T08:30:42Z,518210.46,NULL,Wettbewerb,ushindani,d,NA,NA,NA,NA,sdfdsf,0,1,NA,NA,NA,NA,NA,NA,NA,NA,NA,NA,NA,NA,NA,NA,NA,NA,NA,NA,NA
80413,deep,flow.Sequence,3_0_1_0_5_0,NA,NA,completion,22613.78,495573,495563.36,495580.02,518193.8,518195,2023-10-20T08:30:42Z,518210.46,NULL,Wettbewerb,ushindani,d,NA,NA,NA,NA,sdfdsf,NA,1,NA,NA,NA,NA,NA,NA,NA,NA,NA,NA,NA,NA,NA,NA,NA,NA,NA,NA,NA
80413,shallow,flow.Sequence,3_0_1_0_5_1,NA,NA,skipped,NA,518196,NA,NA,518193.8,518196,2023-10-20T08:30:42Z,518210.46,NULL,Wettbewerb,ushindani,d,NA,NA,NA,NA,sdfdsf,NA,1,NA,NA,NA,NA,NA,NA,NA,NA,NA,NA,NA,NA,NA,NA,NA,NA,NA,NA,NA
80413,task,flow.Sequence,3_0_1_0_5,NA,NA,completion,22613.78,495573,495563.36,495580.02,518193.8,518196,2023-10-20T08:30:42Z,518210.46,NULL,Wettbewerb,ushindani,d,NA,NA,NA,NA,sdfdsf,NA,1,NA,NA,NA,NA,NA,NA,NA,NA,NA,NA,NA,NA,NA,NA,NA,NA,NA,NA,NA
80413,Deep Question,html.Page,3_0_1_0_6_0_0,NA,NA,form submission,13289.54,518197,518193.8,518210.46,531500,531500,2023-10-20T08:30:55Z,531499.64,NULL,Sänger,mwimbaji,d,NA,NA,NA,mwin,NA,NA,1,NA,NA,NA,NA,NA,NA,NA,NA,NA,NA,NA,NA,NA,NA,NA,NA,NA,NA,NA
80413,"""Richtig""-Screen",canvas.Screen,3_0_1_0_6_0_1,NA,NA,skipped,NA,531502,NA,NA,531500,531502,2023-10-20T08:30:55Z,531499.64,NULL,Sänger,mwimbaji,d,NA,NA,NA,NA,sdfdsf,NA,1,NA,NA,NA,NA,NA,NA,NA,NA,NA,NA,NA,NA,NA,NA,NA,NA,NA,NA,NA
80413,"""Falsch""-Screen",canvas.Screen,3_0_1_0_6_0_2,NA,NA,timeout,4991.8199999999,531503,531499.38,531499.64,536474.8,536476,2023-10-20T08:31:00Z,536491.46,NULL,Sänger,mwimbaji,d,NA,NA,NA,NA,sdfdsf,0,1,NA,NA,NA,NA,NA,NA,NA,NA,NA,NA,NA,NA,NA,NA,NA,NA,NA,NA,NA
80413,deep,flow.Sequence,3_0_1_0_6_0,NA,NA,completion,18264.34,518197,518193.8,518210.46,536474.8,536477,2023-10-20T08:31:00Z,536491.46,NULL,Sänger,mwimbaji,d,NA,NA,NA,NA,sdfdsf,NA,1,NA,NA,NA,NA,NA,NA,NA,NA,NA,NA,NA,NA,NA,NA,NA,NA,NA,NA,NA
80413,shallow,flow.Sequence,3_0_1_0_6_1,NA,NA,skipped,NA,536477,NA,NA,536474.8,536477,2023-10-20T08:31:00Z,536491.46,NULL,Sänger,mwimbaji,d,NA,NA,NA,NA,sdfdsf,NA,1,NA,NA,NA,NA,NA,NA,NA,NA,NA,NA,NA,NA,NA,NA,NA,NA,NA,NA,NA
80413,task,flow.Sequence,3_0_1_0_6,NA,NA,completion,18264.34,518197,518193.8,518210.46,536474.8,536478,2023-10-20T08:31:00Z,536491.46,NULL,Sänger,mwimbaji,d,NA,NA,NA,NA,sdfdsf,NA,1,NA,NA,NA,NA,NA,NA,NA,NA,NA,NA,NA,NA,NA,NA,NA,NA,NA,NA,NA
80413,deep,flow.Sequence,3_0_1_0_7_0,NA,NA,skipped,NA,536478,NA,NA,536474.8,536478,2023-10-20T08:31:00Z,536491.46,NULL,Schönheit,kirembo,s,mahojiano,msisimko,jitihadi,NA,sdfdsf,NA,1,NA,NA,NA,NA,NA,NA,NA,NA,NA,NA,NA,NA,NA,NA,NA,NA,NA,NA,NA
80413,Shallow Question,html.Page,3_0_1_0_7_1_0,NA,NA,form submission,7506.54,536479,536474.8,536491.46,543998,543998,2023-10-20T08:31:08Z,543997.26,NULL,Schönheit,kirembo,s,mahojiano,msisimko,jitihadi,kirembo,NA,NA,1,NA,NA,NA,NA,NA,NA,NA,NA,NA,NA,NA,NA,NA,NA,NA,NA,NA,NA,NA
80413,"""Richtig""-Screen",canvas.Screen,3_0_1_0_7_1_1,NA,NA,timeout,4992.54,544001,543996.96,543997.26,548973.16,548974,2023-10-20T08:31:13Z,548989.8,NULL,Schönheit,kirembo,s,mahojiano,msisimko,jitihadi,NA,sdfdsf,1,1,NA,NA,NA,NA,NA,NA,NA,NA,NA,NA,NA,NA,NA,NA,NA,NA,NA,NA,NA
80413,"""Falsch""-Screen",canvas.Screen,3_0_1_0_7_1_2,NA,NA,skipped,NA,548977,NA,NA,548973.16,548978,2023-10-20T08:31:13Z,548989.8,NULL,Schönheit,kirembo,s,mahojiano,msisimko,jitihadi,NA,sdfdsf,NA,1,NA,NA,NA,NA,NA,NA,NA,NA,NA,NA,NA,NA,NA,NA,NA,NA,NA,NA,NA
80413,shallow,flow.Sequence,3_0_1_0_7_1,NA,NA,completion,12481.7,536479,536474.8,536491.46,548973.16,548978,2023-10-20T08:31:13Z,548989.8,NULL,Schönheit,kirembo,s,mahojiano,msisimko,jitihadi,NA,sdfdsf,NA,1,NA,NA,NA,NA,NA,NA,NA,NA,NA,NA,NA,NA,NA,NA,NA,NA,NA,NA,NA
80413,task,flow.Sequence,3_0_1_0_7,NA,NA,completion,12481.7,536478,536474.8,536491.46,548973.16,548978,2023-10-20T08:31:13Z,548989.8,NULL,Schönheit,kirembo,s,mahojiano,msisimko,jitihadi,NA,sdfdsf,NA,1,NA,NA,NA,NA,NA,NA,NA,NA,NA,NA,NA,NA,NA,NA,NA,NA,NA,NA,NA
80413,block,flow.Loop,3_0_1_0,NA,NA,completion,171471.04,377502,377501.8,377502.12,548973.16,548978,2023-10-20T08:31:13Z,548989.8,NULL,NA,NA,NA,NA,NA,NA,NA,sdfdsf,NA,1,NA,NA,NA,NA,NA,NA,NA,NA,NA,NA,NA,NA,NA,NA,NA,NA,NA,NA,NA
80413,weiter,canvas.Screen,3_0_1_1,sdf,keypress(Space),response,3978.2,548978,548973.16,548989.8,552968,552981,2023-10-20T08:31:17Z,553041.08,NULL,NA,NA,NA,NA,NA,NA,NA,sdfdsf,NA,1,NA,NA,NA,NA,NA,NA,NA,NA,NA,NA,NA,NA,NA,NA,NA,NA,NA,NA,NA
80413,check continue,flow.Sequence,3_0_1,NA,NA,completion,175465.88,377502,377501.8,377502.12,552968,552982,2023-10-20T08:31:17Z,553041.08,NULL,NA,NA,NA,NA,NA,NA,NA,sdfdsf,NA,1,NA,NA,NA,NA,NA,NA,NA,NA,NA,NA,NA,NA,NA,NA,NA,NA,NA,NA,NA
80413,deep,flow.Sequence,3_0_2_0_0_0,NA,NA,skipped,NA,553041,NA,NA,552968,553041,2023-10-20T08:31:17Z,553041.08,NULL,Schönheit,kirembo,s,mahojiano,msisimko,jitihadi,NA,sdf,NA,2,NA,NA,NA,NA,NA,NA,NA,NA,NA,NA,NA,NA,NA,NA,NA,NA,NA,NA,NA
80413,Shallow Question,html.Page,3_0_2_0_0_1_0,NA,NA,form submission,2747.92,553041,553040.78,553041.08,555789,555789,2023-10-20T08:31:19Z,555789.02,NULL,Schönheit,kirembo,s,mahojiano,msisimko,jitihadi,kirembo,NA,NA,2,NA,NA,NA,NA,NA,NA,NA,NA,NA,NA,NA,NA,NA,NA,NA,NA,NA,NA,NA
80413,"""Richtig""-Screen",canvas.Screen,3_0_2_0_0_1_1,NA,NA,timeout,4999.2999999999,555792,555788.22,555789.02,560771.68,560773,2023-10-20T08:31:24Z,560788.32,NULL,Schönheit,kirembo,s,mahojiano,msisimko,jitihadi,NA,sdf,1,2,NA,NA,NA,NA,NA,NA,NA,NA,NA,NA,NA,NA,NA,NA,NA,NA,NA,NA,NA
80413,"""Falsch""-Screen",canvas.Screen,3_0_2_0_0_1_2,NA,NA,skipped,NA,560778,NA,NA,560771.68,560778,2023-10-20T08:31:24Z,560788.32,NULL,Schönheit,kirembo,s,mahojiano,msisimko,jitihadi,NA,sdf,NA,2,NA,NA,NA,NA,NA,NA,NA,NA,NA,NA,NA,NA,NA,NA,NA,NA,NA,NA,NA
80413,shallow,flow.Sequence,3_0_2_0_0_1,NA,NA,completion,7730.6000000001,553041,553040.78,553041.08,560771.68,560778,2023-10-20T08:31:24Z,560788.32,NULL,Schönheit,kirembo,s,mahojiano,msisimko,jitihadi,NA,sdf,NA,2,NA,NA,NA,NA,NA,NA,NA,NA,NA,NA,NA,NA,NA,NA,NA,NA,NA,NA,NA
80413,task,flow.Sequence,3_0_2_0_0,NA,NA,completion,7730.6000000001,553041,553040.78,553041.08,560771.68,560778,2023-10-20T08:31:24Z,560788.32,NULL,Schönheit,kirembo,s,mahojiano,msisimko,jitihadi,NA,sdf,NA,2,NA,NA,NA,NA,NA,NA,NA,NA,NA,NA,NA,NA,NA,NA,NA,NA,NA,NA,NA
80413,Deep Question,html.Page,3_0_2_0_1_0_0,NA,NA,form submission,7046.6800000001,560779,560771.68,560788.32,567835,567835,2023-10-20T08:31:31Z,567837.44,NULL,Angreifer,mshambulizi,d,NA,NA,NA,uagizaji,NA,NA,2,NA,NA,NA,NA,NA,NA,NA,NA,NA,NA,NA,NA,NA,NA,NA,NA,NA,NA,NA
80413,"""Richtig""-Screen",canvas.Screen,3_0_2_0_1_0_1,NA,NA,skipped,NA,567836,NA,NA,567835,567836,2023-10-20T08:31:31Z,567837.44,NULL,Angreifer,mshambulizi,d,NA,NA,NA,NA,sdf,NA,2,NA,NA,NA,NA,NA,NA,NA,NA,NA,NA,NA,NA,NA,NA,NA,NA,NA,NA,NA
80413,"""Falsch""-Screen",canvas.Screen,3_0_2_0_1_0_2,NA,NA,timeout,4999.28,567837,567833.94,567837.44,572820.06,572825,2023-10-20T08:31:36Z,572836.72,NULL,Angreifer,mshambulizi,d,NA,NA,NA,NA,sdf,0,2,NA,NA,NA,NA,NA,NA,NA,NA,NA,NA,NA,NA,NA,NA,NA,NA,NA,NA,NA
80413,deep,flow.Sequence,3_0_2_0_1_0,NA,NA,completion,12031.74,560779,560771.68,560788.32,572820.06,572828,2023-10-20T08:31:36Z,572836.72,NULL,Angreifer,mshambulizi,d,NA,NA,NA,NA,sdf,NA,2,NA,NA,NA,NA,NA,NA,NA,NA,NA,NA,NA,NA,NA,NA,NA,NA,NA,NA,NA
80413,shallow,flow.Sequence,3_0_2_0_1_1,NA,NA,skipped,NA,572828,NA,NA,572820.06,572829,2023-10-20T08:31:36Z,572836.72,NULL,Angreifer,mshambulizi,d,NA,NA,NA,NA,sdf,NA,2,NA,NA,NA,NA,NA,NA,NA,NA,NA,NA,NA,NA,NA,NA,NA,NA,NA,NA,NA
80413,task,flow.Sequence,3_0_2_0_1,NA,NA,completion,12031.74,560779,560771.68,560788.32,572820.06,572830,2023-10-20T08:31:36Z,572836.72,NULL,Angreifer,mshambulizi,d,NA,NA,NA,NA,sdf,NA,2,NA,NA,NA,NA,NA,NA,NA,NA,NA,NA,NA,NA,NA,NA,NA,NA,NA,NA,NA
80413,Deep Question,html.Page,3_0_2_0_2_0_0,NA,NA,form submission,17349.28,572830,572820.06,572836.72,590186,590187,2023-10-20T08:31:54Z,590185.1,NULL,Wettbewerb,ushindani,d,NA,NA,NA,ushindani,NA,NA,2,NA,NA,NA,NA,NA,NA,NA,NA,NA,NA,NA,NA,NA,NA,NA,NA,NA,NA,NA
80413,"""Richtig""-Screen",canvas.Screen,3_0_2_0_2_0_1,NA,NA,timeout,4998.84,590193,590184.74,590185.1,595167.3,595169,2023-10-20T08:31:59Z,595183.94,NULL,Wettbewerb,ushindani,d,NA,NA,NA,NA,sdf,1,2,NA,NA,NA,NA,NA,NA,NA,NA,NA,NA,NA,NA,NA,NA,NA,NA,NA,NA,NA
80413,"""Falsch""-Screen",canvas.Screen,3_0_2_0_2_0_2,NA,NA,skipped,NA,595176,NA,NA,595167.3,595177,2023-10-20T08:31:59Z,595183.94,NULL,Wettbewerb,ushindani,d,NA,NA,NA,NA,sdf,NA,2,NA,NA,NA,NA,NA,NA,NA,NA,NA,NA,NA,NA,NA,NA,NA,NA,NA,NA,NA
80413,deep,flow.Sequence,3_0_2_0_2_0,NA,NA,completion,22330.58,572830,572820.06,572836.72,595167.3,595177,2023-10-20T08:31:59Z,595183.94,NULL,Wettbewerb,ushindani,d,NA,NA,NA,NA,sdf,NA,2,NA,NA,NA,NA,NA,NA,NA,NA,NA,NA,NA,NA,NA,NA,NA,NA,NA,NA,NA
80413,shallow,flow.Sequence,3_0_2_0_2_1,NA,NA,skipped,NA,595178,NA,NA,595167.3,595178,2023-10-20T08:31:59Z,595183.94,NULL,Wettbewerb,ushindani,d,NA,NA,NA,NA,sdf,NA,2,NA,NA,NA,NA,NA,NA,NA,NA,NA,NA,NA,NA,NA,NA,NA,NA,NA,NA,NA
80413,task,flow.Sequence,3_0_2_0_2,NA,NA,completion,22330.58,572830,572820.06,572836.72,595167.3,595178,2023-10-20T08:31:59Z,595183.94,NULL,Wettbewerb,ushindani,d,NA,NA,NA,NA,sdf,NA,2,NA,NA,NA,NA,NA,NA,NA,NA,NA,NA,NA,NA,NA,NA,NA,NA,NA,NA,NA
80413,deep,flow.Sequence,3_0_2_0_3_0,NA,NA,skipped,NA,595179,NA,NA,595167.3,595180,2023-10-20T08:31:59Z,595183.94,NULL,Zufall,kikuti,s,kukosekana,uchoraji,leseni,NA,sdf,NA,2,NA,NA,NA,NA,NA,NA,NA,NA,NA,NA,NA,NA,NA,NA,NA,NA,NA,NA,NA
80413,Shallow Question,html.Page,3_0_2_0_3_1_0,NA,NA,form submission,11588.06,595180,595167.3,595183.94,606772,606773,2023-10-20T08:32:10Z,606771.34,NULL,Zufall,kikuti,s,kukosekana,uchoraji,leseni,kikuti,NA,NA,2,NA,NA,NA,NA,NA,NA,NA,NA,NA,NA,NA,NA,NA,NA,NA,NA,NA,NA,NA
80413,"""Richtig""-Screen",canvas.Screen,3_0_2_0_3_1_1,NA,NA,timeout,4993.88,606776,606771.06,606771.34,611748.56,611750,2023-10-20T08:32:15Z,611765.22,NULL,Zufall,kikuti,s,kukosekana,uchoraji,leseni,NA,sdf,1,2,NA,NA,NA,NA,NA,NA,NA,NA,NA,NA,NA,NA,NA,NA,NA,NA,NA,NA,NA
80413,"""Falsch""-Screen",canvas.Screen,3_0_2_0_3_1_2,NA,NA,skipped,NA,611756,NA,NA,611748.56,611756,2023-10-20T08:32:15Z,611765.22,NULL,Zufall,kikuti,s,kukosekana,uchoraji,leseni,NA,sdf,NA,2,NA,NA,NA,NA,NA,NA,NA,NA,NA,NA,NA,NA,NA,NA,NA,NA,NA,NA,NA
80413,shallow,flow.Sequence,3_0_2_0_3_1,NA,NA,completion,16564.62,595180,595167.3,595183.94,611748.56,611757,2023-10-20T08:32:15Z,611765.22,NULL,Zufall,kikuti,s,kukosekana,uchoraji,leseni,NA,sdf,NA,2,NA,NA,NA,NA,NA,NA,NA,NA,NA,NA,NA,NA,NA,NA,NA,NA,NA,NA,NA
80413,task,flow.Sequence,3_0_2_0_3,NA,NA,completion,16564.62,595179,595167.3,595183.94,611748.56,611759,2023-10-20T08:32:15Z,611765.22,NULL,Zufall,kikuti,s,kukosekana,uchoraji,leseni,NA,sdf,NA,2,NA,NA,NA,NA,NA,NA,NA,NA,NA,NA,NA,NA,NA,NA,NA,NA,NA,NA,NA
80413,deep,flow.Sequence,3_0_2_0_4_0,NA,NA,skipped,NA,611759,NA,NA,611748.56,611759,2023-10-20T08:32:15Z,611765.22,NULL,Abrechnung,uhasibu,s,kusahihisha,mpambano,mashambulizi,NA,sdf,NA,2,NA,NA,NA,NA,NA,NA,NA,NA,NA,NA,NA,NA,NA,NA,NA,NA,NA,NA,NA
80413,Shallow Question,html.Page,3_0_2_0_4_1_0,NA,NA,form submission,12497.78,611760,611748.56,611765.22,624263,624263,2023-10-20T08:32:28Z,624263.6,NULL,Abrechnung,uhasibu,s,kusahihisha,mpambano,mashambulizi,uhasibu,NA,NA,2,NA,NA,NA,NA,NA,NA,NA,NA,NA,NA,NA,NA,NA,NA,NA,NA,NA,NA,NA
80413,"""Richtig""-Screen",canvas.Screen,3_0_2_0_4_1_1,NA,NA,timeout,5015.9400000001,624266,624261.98,624263.6,629246.24,629253,2023-10-20T08:32:33Z,629279.54,NULL,Abrechnung,uhasibu,s,kusahihisha,mpambano,mashambulizi,NA,sdf,1,2,NA,NA,NA,NA,NA,NA,NA,NA,NA,NA,NA,NA,NA,NA,NA,NA,NA,NA,NA
80413,"""Falsch""-Screen",canvas.Screen,3_0_2_0_4_1_2,NA,NA,skipped,NA,629273,NA,NA,629246.24,629273,2023-10-20T08:32:33Z,629279.54,NULL,Abrechnung,uhasibu,s,kusahihisha,mpambano,mashambulizi,NA,sdf,NA,2,NA,NA,NA,NA,NA,NA,NA,NA,NA,NA,NA,NA,NA,NA,NA,NA,NA,NA,NA
80413,shallow,flow.Sequence,3_0_2_0_4_1,NA,NA,completion,17481.02,611759,611748.56,611765.22,629246.24,629274,2023-10-20T08:32:33Z,629279.54,NULL,Abrechnung,uhasibu,s,kusahihisha,mpambano,mashambulizi,NA,sdf,NA,2,NA,NA,NA,NA,NA,NA,NA,NA,NA,NA,NA,NA,NA,NA,NA,NA,NA,NA,NA
80413,task,flow.Sequence,3_0_2_0_4,NA,NA,completion,17481.02,611759,611748.56,611765.22,629246.24,629274,2023-10-20T08:32:33Z,629279.54,NULL,Abrechnung,uhasibu,s,kusahihisha,mpambano,mashambulizi,NA,sdf,NA,2,NA,NA,NA,NA,NA,NA,NA,NA,NA,NA,NA,NA,NA,NA,NA,NA,NA,NA,NA
80413,deep,flow.Sequence,3_0_2_0_5_0,NA,NA,skipped,NA,629275,NA,NA,629246.24,629275,2023-10-20T08:32:33Z,629279.54,NULL,Kanzler,diwani,s,rasilmali,mahitaji,maabudu,NA,sdf,NA,2,NA,NA,NA,NA,NA,NA,NA,NA,NA,NA,NA,NA,NA,NA,NA,NA,NA,NA,NA
80413,Shallow Question,html.Page,3_0_2_0_5_1_0,NA,NA,form submission,3339.46,629276,629246.24,629279.54,632619,632619,2023-10-20T08:32:36Z,632617.52,NULL,Kanzler,diwani,s,rasilmali,mahitaji,maabudu,diwani,NA,NA,2,NA,NA,NA,NA,NA,NA,NA,NA,NA,NA,NA,NA,NA,NA,NA,NA,NA,NA,NA
80413,"""Richtig""-Screen",canvas.Screen,3_0_2_0_5_1_1,NA,NA,timeout,4994.28,632621,632616.88,632617.52,637595.14,637596,2023-10-20T08:32:41Z,637611.8,NULL,Kanzler,diwani,s,rasilmali,mahitaji,maabudu,NA,sdf,1,2,NA,NA,NA,NA,NA,NA,NA,NA,NA,NA,NA,NA,NA,NA,NA,NA,NA,NA,NA
80413,"""Falsch""-Screen",canvas.Screen,3_0_2_0_5_1_2,NA,NA,skipped,NA,637600,NA,NA,637595.14,637600,2023-10-20T08:32:41Z,637611.8,NULL,Kanzler,diwani,s,rasilmali,mahitaji,maabudu,NA,sdf,NA,2,NA,NA,NA,NA,NA,NA,NA,NA,NA,NA,NA,NA,NA,NA,NA,NA,NA,NA,NA
80413,shallow,flow.Sequence,3_0_2_0_5_1,NA,NA,completion,8315.6,629276,629246.24,629279.54,637595.14,637600,2023-10-20T08:32:41Z,637611.8,NULL,Kanzler,diwani,s,rasilmali,mahitaji,maabudu,NA,sdf,NA,2,NA,NA,NA,NA,NA,NA,NA,NA,NA,NA,NA,NA,NA,NA,NA,NA,NA,NA,NA
80413,task,flow.Sequence,3_0_2_0_5,NA,NA,completion,8315.6,629275,629246.24,629279.54,637595.14,637600,2023-10-20T08:32:41Z,637611.8,NULL,Kanzler,diwani,s,rasilmali,mahitaji,maabudu,NA,sdf,NA,2,NA,NA,NA,NA,NA,NA,NA,NA,NA,NA,NA,NA,NA,NA,NA,NA,NA,NA,NA
80413,Deep Question,html.Page,3_0_2_0_6_0_0,NA,NA,form submission,10487.2,637600,637595.14,637611.8,648099,648100,2023-10-20T08:32:52Z,648110.5,NULL,Auftrag,uagizaji,d,NA,NA,NA,uagizaji,NA,NA,2,NA,NA,NA,NA,NA,NA,NA,NA,NA,NA,NA,NA,NA,NA,NA,NA,NA,NA,NA
80413,"""Richtig""-Screen",canvas.Screen,3_0_2_0_6_0_1,NA,NA,timeout,4999.4,648102,648098.28,648110.5,653093.3,653094,2023-10-20T08:32:57Z,653109.9,NULL,Auftrag,uagizaji,d,NA,NA,NA,NA,sdf,1,2,NA,NA,NA,NA,NA,NA,NA,NA,NA,NA,NA,NA,NA,NA,NA,NA,NA,NA,NA
80413,"""Falsch""-Screen",canvas.Screen,3_0_2_0_6_0_2,NA,NA,skipped,NA,653101,NA,NA,653093.3,653101,2023-10-20T08:32:57Z,653109.9,NULL,Auftrag,uagizaji,d,NA,NA,NA,NA,sdf,NA,2,NA,NA,NA,NA,NA,NA,NA,NA,NA,NA,NA,NA,NA,NA,NA,NA,NA,NA,NA
80413,deep,flow.Sequence,3_0_2_0_6_0,NA,NA,completion,15481.5,637600,637595.14,637611.8,653093.3,653102,2023-10-20T08:32:57Z,653109.9,NULL,Auftrag,uagizaji,d,NA,NA,NA,NA,sdf,NA,2,NA,NA,NA,NA,NA,NA,NA,NA,NA,NA,NA,NA,NA,NA,NA,NA,NA,NA,NA
80413,shallow,flow.Sequence,3_0_2_0_6_1,NA,NA,skipped,NA,653102,NA,NA,653093.3,653103,2023-10-20T08:32:57Z,653109.9,NULL,Auftrag,uagizaji,d,NA,NA,NA,NA,sdf,NA,2,NA,NA,NA,NA,NA,NA,NA,NA,NA,NA,NA,NA,NA,NA,NA,NA,NA,NA,NA
80413,task,flow.Sequence,3_0_2_0_6,NA,NA,completion,15481.5,637600,637595.14,637611.8,653093.3,653103,2023-10-20T08:32:57Z,653109.9,NULL,Auftrag,uagizaji,d,NA,NA,NA,NA,sdf,NA,2,NA,NA,NA,NA,NA,NA,NA,NA,NA,NA,NA,NA,NA,NA,NA,NA,NA,NA,NA
80413,Deep Question,html.Page,3_0_2_0_7_0_0,NA,NA,form submission,12020.1,653104,653093.3,653109.9,665130,665131,2023-10-20T08:33:09Z,665129.42,NULL,Sänger,mwimbaji,d,NA,NA,NA,mwimbaji,NA,NA,2,NA,NA,NA,NA,NA,NA,NA,NA,NA,NA,NA,NA,NA,NA,NA,NA,NA,NA,NA
80413,"""Richtig""-Screen",canvas.Screen,3_0_2_0_7_0_1,NA,NA,timeout,4994.98,665133,665129.02,665129.42,670107.74,670109,2023-10-20T08:33:14Z,670124.4,NULL,Sänger,mwimbaji,d,NA,NA,NA,NA,sdf,1,2,NA,NA,NA,NA,NA,NA,NA,NA,NA,NA,NA,NA,NA,NA,NA,NA,NA,NA,NA
80413,"""Falsch""-Screen",canvas.Screen,3_0_2_0_7_0_2,NA,NA,skipped,NA,670115,NA,NA,670107.74,670116,2023-10-20T08:33:14Z,670124.4,NULL,Sänger,mwimbaji,d,NA,NA,NA,NA,sdf,NA,2,NA,NA,NA,NA,NA,NA,NA,NA,NA,NA,NA,NA,NA,NA,NA,NA,NA,NA,NA
80413,deep,flow.Sequence,3_0_2_0_7_0,NA,NA,completion,16997.84,653104,653093.3,653109.9,670107.74,670116,2023-10-20T08:33:14Z,670124.4,NULL,Sänger,mwimbaji,d,NA,NA,NA,NA,sdf,NA,2,NA,NA,NA,NA,NA,NA,NA,NA,NA,NA,NA,NA,NA,NA,NA,NA,NA,NA,NA
80413,shallow,flow.Sequence,3_0_2_0_7_1,NA,NA,skipped,NA,670116,NA,NA,670107.74,670117,2023-10-20T08:33:14Z,670124.4,NULL,Sänger,mwimbaji,d,NA,NA,NA,NA,sdf,NA,2,NA,NA,NA,NA,NA,NA,NA,NA,NA,NA,NA,NA,NA,NA,NA,NA,NA,NA,NA
80413,task,flow.Sequence,3_0_2_0_7,NA,NA,completion,16997.84,653103,653093.3,653109.9,670107.74,670117,2023-10-20T08:33:14Z,670124.4,NULL,Sänger,mwimbaji,d,NA,NA,NA,NA,sdf,NA,2,NA,NA,NA,NA,NA,NA,NA,NA,NA,NA,NA,NA,NA,NA,NA,NA,NA,NA,NA
80413,block,flow.Loop,3_0_2_0,NA,NA,completion,117066.66,553041,553040.78,553041.08,670107.74,670118,2023-10-20T08:33:14Z,670124.4,NULL,NA,NA,NA,NA,NA,NA,NA,sdf,NA,2,NA,NA,NA,NA,NA,NA,NA,NA,NA,NA,NA,NA,NA,NA,NA,NA,NA,NA,NA
80413,weiter,canvas.Screen,3_0_2_1,sdf,keypress(Space),response,1156.6,670118,670107.74,670124.4,671281,671296,2023-10-20T08:33:15Z,672037.58,NULL,NA,NA,NA,NA,NA,NA,NA,sdf,NA,2,NA,NA,NA,NA,NA,NA,NA,NA,NA,NA,NA,NA,NA,NA,NA,NA,NA,NA,NA
80413,check continue,flow.Sequence,3_0_2,NA,NA,completion,118239.92,553041,553040.78,553041.08,671281,671297,2023-10-20T08:33:15Z,672037.58,NULL,NA,NA,NA,NA,NA,NA,NA,sdf,NA,2,NA,NA,NA,NA,NA,NA,NA,NA,NA,NA,NA,NA,NA,NA,NA,NA,NA,NA,NA
80413,check continue,flow.Sequence,3_0_3,NA,NA,skipped,NA,671348,NA,NA,671281,671348,2023-10-20T08:33:15Z,672037.58,NULL,NA,NA,NA,NA,NA,NA,NA,qt,NA,3,NA,NA,NA,NA,NA,NA,NA,NA,NA,NA,NA,NA,NA,NA,NA,NA,NA,NA,NA
80413,check continue,flow.Sequence,3_0_4,NA,NA,skipped,NA,671376,NA,NA,671281,671376,2023-10-20T08:33:15Z,672037.58,NULL,NA,NA,NA,NA,NA,NA,NA,sd,NA,4,NA,NA,NA,NA,NA,NA,NA,NA,NA,NA,NA,NA,NA,NA,NA,NA,NA,NA,NA
80413,check continue,flow.Sequence,3_0_5,NA,NA,skipped,NA,671407,NA,NA,671281,671407,2023-10-20T08:33:15Z,672037.58,NULL,NA,NA,NA,NA,NA,NA,NA,sdf,NA,5,NA,NA,NA,NA,NA,NA,NA,NA,NA,NA,NA,NA,NA,NA,NA,NA,NA,NA,NA
80413,check continue,flow.Sequence,3_0_6,NA,NA,skipped,NA,671435,NA,NA,671281,671435,2023-10-20T08:33:15Z,672037.58,NULL,NA,NA,NA,NA,NA,NA,NA,dfs,NA,6,NA,NA,NA,NA,NA,NA,NA,NA,NA,NA,NA,NA,NA,NA,NA,NA,NA,NA,NA
80413,check continue,flow.Sequence,3_0_7,NA,NA,skipped,NA,671465,NA,NA,671281,671465,2023-10-20T08:33:15Z,672037.58,NULL,NA,NA,NA,NA,NA,NA,NA,df,NA,7,NA,NA,NA,NA,NA,NA,NA,NA,NA,NA,NA,NA,NA,NA,NA,NA,NA,NA,NA
80413,check continue,flow.Sequence,3_0_8,NA,NA,skipped,NA,671491,NA,NA,671281,671491,2023-10-20T08:33:15Z,672037.58,NULL,NA,NA,NA,NA,NA,NA,NA,dfs,NA,8,NA,NA,NA,NA,NA,NA,NA,NA,NA,NA,NA,NA,NA,NA,NA,NA,NA,NA,NA
80413,check continue,flow.Sequence,3_0_9,NA,NA,skipped,NA,671519,NA,NA,671281,671519,2023-10-20T08:33:15Z,672037.58,NULL,NA,NA,NA,NA,NA,NA,NA,dsf,NA,9,NA,NA,NA,NA,NA,NA,NA,NA,NA,NA,NA,NA,NA,NA,NA,NA,NA,NA,NA
80413,check continue,flow.Sequence,3_0_10,NA,NA,skipped,NA,671544,NA,NA,671281,671544,2023-10-20T08:33:15Z,672037.58,NULL,NA,NA,NA,NA,NA,NA,NA,df,NA,10,NA,NA,NA,NA,NA,NA,NA,NA,NA,NA,NA,NA,NA,NA,NA,NA,NA,NA,NA
80413,check continue,flow.Sequence,3_0_11,NA,NA,skipped,NA,671574,NA,NA,671281,671574,2023-10-20T08:33:15Z,672037.58,NULL,NA,NA,NA,NA,NA,NA,NA,dfs,NA,11,NA,NA,NA,NA,NA,NA,NA,NA,NA,NA,NA,NA,NA,NA,NA,NA,NA,NA,NA
80413,check continue,flow.Sequence,3_0_12,NA,NA,skipped,NA,671598,NA,NA,671281,671598,2023-10-20T08:33:15Z,672037.58,NULL,NA,NA,NA,NA,NA,NA,NA,dsf,NA,12,NA,NA,NA,NA,NA,NA,NA,NA,NA,NA,NA,NA,NA,NA,NA,NA,NA,NA,NA
80413,check continue,flow.Sequence,3_0_13,NA,NA,skipped,NA,671625,NA,NA,671281,671625,2023-10-20T08:33:15Z,672037.58,NULL,NA,NA,NA,NA,NA,NA,NA,dsf,NA,13,NA,NA,NA,NA,NA,NA,NA,NA,NA,NA,NA,NA,NA,NA,NA,NA,NA,NA,NA
80413,check continue,flow.Sequence,3_0_14,NA,NA,skipped,NA,671653,NA,NA,671281,671653,2023-10-20T08:33:15Z,672037.58,NULL,NA,NA,NA,NA,NA,NA,NA,NA,NA,14,NA,NA,NA,NA,NA,NA,NA,NA,NA,NA,NA,NA,NA,NA,NA,NA,NA,NA,NA
80413,check continue,flow.Sequence,3_0_15,NA,NA,skipped,NA,671677,NA,NA,671281,671677,2023-10-20T08:33:15Z,672037.58,NULL,NA,NA,NA,NA,NA,NA,NA,NA,NA,15,NA,NA,NA,NA,NA,NA,NA,NA,NA,NA,NA,NA,NA,NA,NA,NA,NA,NA,NA
80413,check continue,flow.Sequence,3_0_16,NA,NA,skipped,NA,671701,NA,NA,671281,671701,2023-10-20T08:33:15Z,672037.58,NULL,NA,NA,NA,NA,NA,NA,NA,NA,NA,16,NA,NA,NA,NA,NA,NA,NA,NA,NA,NA,NA,NA,NA,NA,NA,NA,NA,NA,NA
80413,check continue,flow.Sequence,3_0_17,NA,NA,skipped,NA,671730,NA,NA,671281,671730,2023-10-20T08:33:15Z,672037.58,NULL,NA,NA,NA,NA,NA,NA,NA,NA,NA,17,NA,NA,NA,NA,NA,NA,NA,NA,NA,NA,NA,NA,NA,NA,NA,NA,NA,NA,NA
80413,check continue,flow.Sequence,3_0_18,NA,NA,skipped,NA,671755,NA,NA,671281,671755,2023-10-20T08:33:15Z,672037.58,NULL,NA,NA,NA,NA,NA,NA,NA,NA,NA,18,NA,NA,NA,NA,NA,NA,NA,NA,NA,NA,NA,NA,NA,NA,NA,NA,NA,NA,NA
80413,check continue,flow.Sequence,3_0_19,NA,NA,skipped,NA,671779,NA,NA,671281,671779,2023-10-20T08:33:15Z,672037.58,NULL,NA,NA,NA,NA,NA,NA,NA,NA,NA,19,NA,NA,NA,NA,NA,NA,NA,NA,NA,NA,NA,NA,NA,NA,NA,NA,NA,NA,NA
80413,check continue,flow.Sequence,3_0_20,NA,NA,skipped,NA,671808,NA,NA,671281,671808,2023-10-20T08:33:15Z,672037.58,NULL,NA,NA,NA,NA,NA,NA,NA,NA,NA,20,NA,NA,NA,NA,NA,NA,NA,NA,NA,NA,NA,NA,NA,NA,NA,NA,NA,NA,NA
80413,check continue,flow.Sequence,3_0_21,NA,NA,skipped,NA,671833,NA,NA,671281,671833,2023-10-20T08:33:15Z,672037.58,NULL,NA,NA,NA,NA,NA,NA,NA,NA,NA,21,NA,NA,NA,NA,NA,NA,NA,NA,NA,NA,NA,NA,NA,NA,NA,NA,NA,NA,NA
80413,check continue,flow.Sequence,3_0_22,NA,NA,skipped,NA,671856,NA,NA,671281,671856,2023-10-20T08:33:15Z,672037.58,NULL,NA,NA,NA,NA,NA,NA,NA,NA,NA,22,NA,NA,NA,NA,NA,NA,NA,NA,NA,NA,NA,NA,NA,NA,NA,NA,NA,NA,NA
80413,check continue,flow.Sequence,3_0_23,NA,NA,skipped,NA,671884,NA,NA,671281,671884,2023-10-20T08:33:16Z,672037.58,NULL,NA,NA,NA,NA,NA,NA,NA,NA,NA,23,NA,NA,NA,NA,NA,NA,NA,NA,NA,NA,NA,NA,NA,NA,NA,NA,NA,NA,NA
80413,check continue,flow.Sequence,3_0_24,NA,NA,skipped,NA,671908,NA,NA,671281,671908,2023-10-20T08:33:16Z,672037.58,NULL,NA,NA,NA,NA,NA,NA,NA,NA,NA,24,NA,NA,NA,NA,NA,NA,NA,NA,NA,NA,NA,NA,NA,NA,NA,NA,NA,NA,NA
80413,check continue,flow.Sequence,3_0_25,NA,NA,skipped,NA,671934,NA,NA,671281,671934,2023-10-20T08:33:16Z,672037.58,NULL,NA,NA,NA,NA,NA,NA,NA,NA,NA,25,NA,NA,NA,NA,NA,NA,NA,NA,NA,NA,NA,NA,NA,NA,NA,NA,NA,NA,NA
80413,check continue,flow.Sequence,3_0_26,NA,NA,skipped,NA,671957,NA,NA,671281,671958,2023-10-20T08:33:16Z,672037.58,NULL,NA,NA,NA,NA,NA,NA,NA,NA,NA,26,NA,NA,NA,NA,NA,NA,NA,NA,NA,NA,NA,NA,NA,NA,NA,NA,NA,NA,NA
80413,check continue,flow.Sequence,3_0_27,NA,NA,skipped,NA,671980,NA,NA,671281,671980,2023-10-20T08:33:16Z,672037.58,NULL,NA,NA,NA,NA,NA,NA,NA,NA,NA,27,NA,NA,NA,NA,NA,NA,NA,NA,NA,NA,NA,NA,NA,NA,NA,NA,NA,NA,NA
80413,check continue,flow.Sequence,3_0_28,NA,NA,skipped,NA,672010,NA,NA,671281,672010,2023-10-20T08:33:16Z,672037.58,NULL,NA,NA,NA,NA,NA,NA,NA,NA,NA,28,NA,NA,NA,NA,NA,NA,NA,NA,NA,NA,NA,NA,NA,NA,NA,NA,NA,NA,NA
80413,check continue,flow.Sequence,3_0_29,NA,NA,skipped,NA,672034,NA,NA,671281,672034,2023-10-20T08:33:16Z,672037.58,NULL,NA,NA,NA,NA,NA,NA,NA,NA,NA,29,NA,NA,NA,NA,NA,NA,NA,NA,NA,NA,NA,NA,NA,NA,NA,NA,NA,NA,NA
80413,until continue,flow.Loop,3_0,NA,NA,completion,448658.52,222586,222622.18,222622.48,671281,672034,2023-10-20T08:33:16Z,672037.58,NULL,NA,NA,NA,NA,NA,NA,NA,NA,NA,NA,NA,NA,NA,NA,NA,NA,NA,NA,NA,NA,NA,NA,NA,NA,NA,NA,NA,NA,NA
80413,block 1,flow.Sequence,3,NA,NA,completion,448658.52,222586,222622.18,222622.48,671281,672038,2023-10-20T08:33:16Z,672037.58,NULL,NA,NA,NA,NA,NA,NA,NA,NA,NA,NA,NA,NA,NA,NA,NA,NA,NA,NA,NA,NA,NA,NA,NA,NA,NA,NA,NA,NA,NA
80413,1.Part Over,canvas.Screen,4,NA,keypress(Space),response,2447.42,672038,672037.38,672037.58,674485,674490,2023-10-20T08:33:18Z,674567.16,NULL,NA,NA,NA,NA,NA,NA,NA,NA,NA,NA,NA,NA,NA,NA,NA,NA,NA,NA,NA,NA,NA,NA,NA,NA,NA,NA,NA,NA,NA
80413,Deep Question,html.Page,5_0_0_0_0_0_0,NA,NA,form submission,10519.84,674567,674566.86,674567.16,685087,685088,2023-10-20T08:33:29Z,685089.18,NULL,Gelegenheit,wakati,d,NA,NA,NA,uzt,NA,NA,0,NA,NA,NA,NA,NA,NA,NA,NA,NA,NA,NA,NA,NA,NA,NA,NA,NA,NA,NA
80413,"""Richtig""-Screen",canvas.Screen,5_0_0_0_0_0_1,NA,NA,skipped,NA,685090,NA,NA,685087,685090,2023-10-20T08:33:29Z,685089.18,NULL,Gelegenheit,wakati,d,NA,NA,NA,NA,sdf,NA,0,NA,NA,NA,NA,NA,NA,NA,NA,NA,NA,NA,NA,NA,NA,NA,NA,NA,NA,NA
80413,"""Falsch""-Screen",canvas.Screen,5_0_0_0_0_0_2,NA,NA,timeout,4999.2999999999,685093,685086.26,685089.18,690071.84,690073,2023-10-20T08:33:34Z,690088.48,NULL,Gelegenheit,wakati,d,NA,NA,NA,NA,sdf,0,0,NA,NA,NA,NA,NA,NA,NA,NA,NA,NA,NA,NA,NA,NA,NA,NA,NA,NA,NA
80413,deep,flow.Sequence,5_0_0_0_0_0,NA,NA,completion,15504.68,674567,674566.86,674567.16,690071.84,690073,2023-10-20T08:33:34Z,690088.48,NULL,Gelegenheit,wakati,d,NA,NA,NA,NA,sdf,NA,0,NA,NA,NA,NA,NA,NA,NA,NA,NA,NA,NA,NA,NA,NA,NA,NA,NA,NA,NA
80413,shallow,flow.Sequence,5_0_0_0_0_1,NA,NA,skipped,NA,690073,NA,NA,690071.84,690074,2023-10-20T08:33:34Z,690088.48,NULL,Gelegenheit,wakati,d,NA,NA,NA,NA,sdf,NA,0,NA,NA,NA,NA,NA,NA,NA,NA,NA,NA,NA,NA,NA,NA,NA,NA,NA,NA,NA
80413,task,flow.Sequence,5_0_0_0_0,NA,NA,completion,15504.68,674567,674566.86,674567.16,690071.84,690074,2023-10-20T08:33:34Z,690088.48,NULL,Gelegenheit,wakati,d,NA,NA,NA,NA,sdf,NA,0,NA,NA,NA,NA,NA,NA,NA,NA,NA,NA,NA,NA,NA,NA,NA,NA,NA,NA,NA
80413,deep,flow.Sequence,5_0_0_0_1_0,NA,NA,skipped,NA,690074,NA,NA,690071.84,690075,2023-10-20T08:33:34Z,690088.48,NULL,Widerstand,usulubu,s,kusababisha,mwalimu,mwenendo,NA,sdf,NA,0,NA,NA,NA,NA,NA,NA,NA,NA,NA,NA,NA,NA,NA,NA,NA,NA,NA,NA,NA
80413,Shallow Question,html.Page,5_0_0_0_1_1_0,NA,NA,form submission,9803.52,690075,690071.84,690088.48,699892,699892,2023-10-20T08:33:44Z,699891.76,NULL,Widerstand,usulubu,s,kusababisha,mwalimu,mwenendo,mwalimu,NA,NA,0,NA,NA,NA,NA,NA,NA,NA,NA,NA,NA,NA,NA,NA,NA,NA,NA,NA,NA,NA
80413,"""Richtig""-Screen",canvas.Screen,5_0_0_0_1_1_1,NA,NA,skipped,NA,699895,NA,NA,699892,699895,2023-10-20T08:33:44Z,699891.76,NULL,Widerstand,usulubu,s,kusababisha,mwalimu,mwenendo,NA,sdf,NA,0,NA,NA,NA,NA,NA,NA,NA,NA,NA,NA,NA,NA,NA,NA,NA,NA,NA,NA,NA
80413,"""Falsch""-Screen",canvas.Screen,5_0_0_0_1_1_2,NA,NA,timeout,4994.86,699897,699891.34,699891.76,704870,704873,2023-10-20T08:33:49Z,704886.62,NULL,Widerstand,usulubu,s,kusababisha,mwalimu,mwenendo,NA,sdf,0,0,NA,NA,NA,NA,NA,NA,NA,NA,NA,NA,NA,NA,NA,NA,NA,NA,NA,NA,NA
80413,shallow,flow.Sequence,5_0_0_0_1_1,NA,NA,completion,14781.52,690075,690071.84,690088.48,704870,704875,2023-10-20T08:33:49Z,704886.62,NULL,Widerstand,usulubu,s,kusababisha,mwalimu,mwenendo,NA,sdf,NA,0,NA,NA,NA,NA,NA,NA,NA,NA,NA,NA,NA,NA,NA,NA,NA,NA,NA,NA,NA
80413,task,flow.Sequence,5_0_0_0_1,NA,NA,completion,14781.52,690074,690071.84,690088.48,704870,704875,2023-10-20T08:33:49Z,704886.62,NULL,Widerstand,usulubu,s,kusababisha,mwalimu,mwenendo,NA,sdf,NA,0,NA,NA,NA,NA,NA,NA,NA,NA,NA,NA,NA,NA,NA,NA,NA,NA,NA,NA,NA
80413,deep,flow.Sequence,5_0_0_0_2_0,NA,NA,skipped,NA,704876,NA,NA,704870,704877,2023-10-20T08:33:49Z,704886.62,NULL,Verstand,ufahamivu,s,shakawa,hadhari,mhandisi,NA,sdf,NA,0,NA,NA,NA,NA,NA,NA,NA,NA,NA,NA,NA,NA,NA,NA,NA,NA,NA,NA,NA
80413,Shallow Question,html.Page,5_0_0_0_2_1_0,NA,NA,form submission,11331.38,704877,704870,704886.62,716218,716219,2023-10-20T08:34:00Z,716218.62,NULL,Verstand,ufahamivu,s,shakawa,hadhari,mhandisi,mhandisi,NA,NA,0,NA,NA,NA,NA,NA,NA,NA,NA,NA,NA,NA,NA,NA,NA,NA,NA,NA,NA,NA
80413,"""Richtig""-Screen",canvas.Screen,5_0_0_0_2_1_1,NA,NA,skipped,NA,716225,NA,NA,716218,716225,2023-10-20T08:34:00Z,716218.62,NULL,Verstand,ufahamivu,s,shakawa,hadhari,mhandisi,NA,sdf,NA,0,NA,NA,NA,NA,NA,NA,NA,NA,NA,NA,NA,NA,NA,NA,NA,NA,NA,NA,NA
80413,"""Falsch""-Screen",canvas.Screen,5_0_0_0_2_1_2,NA,NA,timeout,4999.26,716229,716216.54,716218.62,721201.26,721203,2023-10-20T08:34:05Z,721217.88,NULL,Verstand,ufahamivu,s,shakawa,hadhari,mhandisi,NA,sdf,0,0,NA,NA,NA,NA,NA,NA,NA,NA,NA,NA,NA,NA,NA,NA,NA,NA,NA,NA,NA
80413,shallow,flow.Sequence,5_0_0_0_2_1,NA,NA,completion,16314.64,704877,704870,704886.62,721201.26,721204,2023-10-20T08:34:05Z,721217.88,NULL,Verstand,ufahamivu,s,shakawa,hadhari,mhandisi,NA,sdf,NA,0,NA,NA,NA,NA,NA,NA,NA,NA,NA,NA,NA,NA,NA,NA,NA,NA,NA,NA,NA
80413,task,flow.Sequence,5_0_0_0_2,NA,NA,completion,16314.64,704876,704870,704886.62,721201.26,721205,2023-10-20T08:34:05Z,721217.88,NULL,Verstand,ufahamivu,s,shakawa,hadhari,mhandisi,NA,sdf,NA,0,NA,NA,NA,NA,NA,NA,NA,NA,NA,NA,NA,NA,NA,NA,NA,NA,NA,NA,NA
80413,Deep Question,html.Page,5_0_0_0_3_0_0,NA,NA,form submission,15134.12,721205,721201.26,721217.88,736352,736352,2023-10-20T08:34:20Z,736350.74,NULL,Kreativität,ubunifu,d,NA,NA,NA,ju,NA,NA,0,NA,NA,NA,NA,NA,NA,NA,NA,NA,NA,NA,NA,NA,NA,NA,NA,NA,NA,NA
80413,"""Richtig""-Screen",canvas.Screen,5_0_0_0_3_0_1,NA,NA,skipped,NA,736355,NA,NA,736352,736355,2023-10-20T08:34:20Z,736350.74,NULL,Kreativität,ubunifu,d,NA,NA,NA,NA,sdf,NA,0,NA,NA,NA,NA,NA,NA,NA,NA,NA,NA,NA,NA,NA,NA,NA,NA,NA,NA,NA
80413,"""Falsch""-Screen",canvas.Screen,5_0_0_0_3_0_2,NA,NA,timeout,4997.86,736358,736350.36,736350.74,741331.96,741334,2023-10-20T08:34:25Z,741348.6,NULL,Kreativität,ubunifu,d,NA,NA,NA,NA,sdf,0,0,NA,NA,NA,NA,NA,NA,NA,NA,NA,NA,NA,NA,NA,NA,NA,NA,NA,NA,NA
80413,deep,flow.Sequence,5_0_0_0_3_0,NA,NA,completion,20114.08,721205,721201.26,721217.88,741331.96,741334,2023-10-20T08:34:25Z,741348.6,NULL,Kreativität,ubunifu,d,NA,NA,NA,NA,sdf,NA,0,NA,NA,NA,NA,NA,NA,NA,NA,NA,NA,NA,NA,NA,NA,NA,NA,NA,NA,NA
80413,shallow,flow.Sequence,5_0_0_0_3_1,NA,NA,skipped,NA,741334,NA,NA,741331.96,741335,2023-10-20T08:34:25Z,741348.6,NULL,Kreativität,ubunifu,d,NA,NA,NA,NA,sdf,NA,0,NA,NA,NA,NA,NA,NA,NA,NA,NA,NA,NA,NA,NA,NA,NA,NA,NA,NA,NA
80413,task,flow.Sequence,5_0_0_0_3,NA,NA,completion,20114.08,721205,721201.26,721217.88,741331.96,741335,2023-10-20T08:34:25Z,741348.6,NULL,Kreativität,ubunifu,d,NA,NA,NA,NA,sdf,NA,0,NA,NA,NA,NA,NA,NA,NA,NA,NA,NA,NA,NA,NA,NA,NA,NA,NA,NA,NA
80413,Deep Question,html.Page,5_0_0_0_4_0_0,NA,NA,form submission,6280.4,741336,741331.96,741348.6,747629,747630,2023-10-20T08:34:31Z,747631.18,NULL,Können,unaweza,d,NA,NA,NA,zr,NA,NA,0,NA,NA,NA,NA,NA,NA,NA,NA,NA,NA,NA,NA,NA,NA,NA,NA,NA,NA,NA
80413,"""Richtig""-Screen",canvas.Screen,5_0_0_0_4_0_1,NA,NA,skipped,NA,747632,NA,NA,747629,747633,2023-10-20T08:34:31Z,747631.18,NULL,Können,unaweza,d,NA,NA,NA,NA,sdf,NA,0,NA,NA,NA,NA,NA,NA,NA,NA,NA,NA,NA,NA,NA,NA,NA,NA,NA,NA,NA
80413,"""Falsch""-Screen",canvas.Screen,5_0_0_0_4_0_2,NA,NA,timeout,4999.2599999999,747636,747627.78,747631.18,752613.78,752616,2023-10-20T08:34:36Z,752630.44,NULL,Können,unaweza,d,NA,NA,NA,NA,sdf,0,0,NA,NA,NA,NA,NA,NA,NA,NA,NA,NA,NA,NA,NA,NA,NA,NA,NA,NA,NA
80413,deep,flow.Sequence,5_0_0_0_4_0,NA,NA,completion,11265.18,741336,741331.96,741348.6,752613.78,752616,2023-10-20T08:34:36Z,752630.44,NULL,Können,unaweza,d,NA,NA,NA,NA,sdf,NA,0,NA,NA,NA,NA,NA,NA,NA,NA,NA,NA,NA,NA,NA,NA,NA,NA,NA,NA,NA
80413,shallow,flow.Sequence,5_0_0_0_4_1,NA,NA,skipped,NA,752616,NA,NA,752613.78,752617,2023-10-20T08:34:36Z,752630.44,NULL,Können,unaweza,d,NA,NA,NA,NA,sdf,NA,0,NA,NA,NA,NA,NA,NA,NA,NA,NA,NA,NA,NA,NA,NA,NA,NA,NA,NA,NA
80413,task,flow.Sequence,5_0_0_0_4,NA,NA,completion,11265.18,741336,741331.96,741348.6,752613.78,752617,2023-10-20T08:34:36Z,752630.44,NULL,Können,unaweza,d,NA,NA,NA,NA,sdf,NA,0,NA,NA,NA,NA,NA,NA,NA,NA,NA,NA,NA,NA,NA,NA,NA,NA,NA,NA,NA
80413,Deep Question,html.Page,5_0_0_0_5_0_0,NA,NA,form submission,6649.5600000001,752618,752613.78,752630.44,759280,759280,2023-10-20T08:34:43Z,759279.68,NULL,Ausschluss,kutengwa,d,NA,NA,NA,ze,NA,NA,0,NA,NA,NA,NA,NA,NA,NA,NA,NA,NA,NA,NA,NA,NA,NA,NA,NA,NA,NA
80413,"""Richtig""-Screen",canvas.Screen,5_0_0_0_5_0_1,NA,NA,skipped,NA,759282,NA,NA,759280,759282,2023-10-20T08:34:43Z,759279.68,NULL,Ausschluss,kutengwa,d,NA,NA,NA,NA,sdf,NA,0,NA,NA,NA,NA,NA,NA,NA,NA,NA,NA,NA,NA,NA,NA,NA,NA,NA,NA,NA
80413,"""Falsch""-Screen",canvas.Screen,5_0_0_0_5_0_2,NA,NA,timeout,4999.36,759285,759278.32,759279.68,764262.4,764266,2023-10-20T08:34:48Z,764279.04,NULL,Ausschluss,kutengwa,d,NA,NA,NA,NA,sdf,0,0,NA,NA,NA,NA,NA,NA,NA,NA,NA,NA,NA,NA,NA,NA,NA,NA,NA,NA,NA
80413,deep,flow.Sequence,5_0_0_0_5_0,NA,NA,completion,11631.96,752618,752613.78,752630.44,764262.4,764268,2023-10-20T08:34:48Z,764279.04,NULL,Ausschluss,kutengwa,d,NA,NA,NA,NA,sdf,NA,0,NA,NA,NA,NA,NA,NA,NA,NA,NA,NA,NA,NA,NA,NA,NA,NA,NA,NA,NA
80413,shallow,flow.Sequence,5_0_0_0_5_1,NA,NA,skipped,NA,764269,NA,NA,764262.4,764269,2023-10-20T08:34:48Z,764279.04,NULL,Ausschluss,kutengwa,d,NA,NA,NA,NA,sdf,NA,0,NA,NA,NA,NA,NA,NA,NA,NA,NA,NA,NA,NA,NA,NA,NA,NA,NA,NA,NA
80413,task,flow.Sequence,5_0_0_0_5,NA,NA,completion,11631.96,752618,752613.78,752630.44,764262.4,764271,2023-10-20T08:34:48Z,764279.04,NULL,Ausschluss,kutengwa,d,NA,NA,NA,NA,sdf,NA,0,NA,NA,NA,NA,NA,NA,NA,NA,NA,NA,NA,NA,NA,NA,NA,NA,NA,NA,NA
80413,deep,flow.Sequence,5_0_0_0_6_0,NA,NA,skipped,NA,764272,NA,NA,764262.4,764272,2023-10-20T08:34:48Z,764279.04,NULL,Kontrolle,kudhibiti,s,mbinguni,kufunga,utegemezi,NA,sdf,NA,0,NA,NA,NA,NA,NA,NA,NA,NA,NA,NA,NA,NA,NA,NA,NA,NA,NA,NA,NA
80413,Shallow Question,html.Page,5_0_0_0_6_1_0,NA,NA,form submission,8347.96,764273,764262.4,764279.04,772627,772628,2023-10-20T08:34:56Z,772627.98,NULL,Kontrolle,kudhibiti,s,mbinguni,kufunga,utegemezi,kufunga,NA,NA,0,NA,NA,NA,NA,NA,NA,NA,NA,NA,NA,NA,NA,NA,NA,NA,NA,NA,NA,NA
80413,"""Richtig""-Screen",canvas.Screen,5_0_0_0_6_1_1,NA,NA,skipped,NA,772635,NA,NA,772627,772636,2023-10-20T08:34:56Z,772627.98,NULL,Kontrolle,kudhibiti,s,mbinguni,kufunga,utegemezi,NA,sdf,NA,0,NA,NA,NA,NA,NA,NA,NA,NA,NA,NA,NA,NA,NA,NA,NA,NA,NA,NA,NA
80413,"""Falsch""-Screen",canvas.Screen,5_0_0_0_6_1_2,NA,NA,timeout,4999.34,772639,772626.6,772627.98,777610.68,777613,2023-10-20T08:35:01Z,777627.32,NULL,Kontrolle,kudhibiti,s,mbinguni,kufunga,utegemezi,NA,sdf,0,0,NA,NA,NA,NA,NA,NA,NA,NA,NA,NA,NA,NA,NA,NA,NA,NA,NA,NA,NA
80413,shallow,flow.Sequence,5_0_0_0_6_1,NA,NA,completion,13331.64,764273,764262.4,764279.04,777610.68,777614,2023-10-20T08:35:01Z,777627.32,NULL,Kontrolle,kudhibiti,s,mbinguni,kufunga,utegemezi,NA,sdf,NA,0,NA,NA,NA,NA,NA,NA,NA,NA,NA,NA,NA,NA,NA,NA,NA,NA,NA,NA,NA
80413,task,flow.Sequence,5_0_0_0_6,NA,NA,completion,13331.64,764272,764262.4,764279.04,777610.68,777614,2023-10-20T08:35:01Z,777627.32,NULL,Kontrolle,kudhibiti,s,mbinguni,kufunga,utegemezi,NA,sdf,NA,0,NA,NA,NA,NA,NA,NA,NA,NA,NA,NA,NA,NA,NA,NA,NA,NA,NA,NA,NA
80413,deep,flow.Sequence,5_0_0_0_7_0,NA,NA,skipped,NA,777615,NA,NA,777610.68,777616,2023-10-20T08:35:01Z,777627.32,NULL,Gefährdung,kuhatarisha,s,uchokozi,udhaifu,makorowezo,NA,sdf,NA,0,NA,NA,NA,NA,NA,NA,NA,NA,NA,NA,NA,NA,NA,NA,NA,NA,NA,NA,NA
80413,Shallow Question,html.Page,5_0_0_0_7_1_0,NA,NA,form submission,8935.6800000001,777617,777610.68,777627.32,786563,786564,2023-10-20T08:35:10Z,786562.92,NULL,Gefährdung,kuhatarisha,s,uchokozi,udhaifu,makorowezo,udhaifu,NA,NA,0,NA,NA,NA,NA,NA,NA,NA,NA,NA,NA,NA,NA,NA,NA,NA,NA,NA,NA,NA
80413,"""Richtig""-Screen",canvas.Screen,5_0_0_0_7_1_1,NA,NA,skipped,NA,786568,NA,NA,786563,786568,2023-10-20T08:35:10Z,786562.92,NULL,Gefährdung,kuhatarisha,s,uchokozi,udhaifu,makorowezo,NA,sdf,NA,0,NA,NA,NA,NA,NA,NA,NA,NA,NA,NA,NA,NA,NA,NA,NA,NA,NA,NA,NA
80413,"""Falsch""-Screen",canvas.Screen,5_0_0_0_7_1_2,NA,NA,timeout,4996,786571,786562.54,786562.92,791542.26,791544,2023-10-20T08:35:15Z,791558.92,NULL,Gefährdung,kuhatarisha,s,uchokozi,udhaifu,makorowezo,NA,sdf,0,0,NA,NA,NA,NA,NA,NA,NA,NA,NA,NA,NA,NA,NA,NA,NA,NA,NA,NA,NA
80413,shallow,flow.Sequence,5_0_0_0_7_1,NA,NA,completion,13914.94,777616,777610.68,777627.32,791542.26,791544,2023-10-20T08:35:15Z,791558.92,NULL,Gefährdung,kuhatarisha,s,uchokozi,udhaifu,makorowezo,NA,sdf,NA,0,NA,NA,NA,NA,NA,NA,NA,NA,NA,NA,NA,NA,NA,NA,NA,NA,NA,NA,NA
80413,task,flow.Sequence,5_0_0_0_7,NA,NA,completion,13914.94,777615,777610.68,777627.32,791542.26,791545,2023-10-20T08:35:15Z,791558.92,NULL,Gefährdung,kuhatarisha,s,uchokozi,udhaifu,makorowezo,NA,sdf,NA,0,NA,NA,NA,NA,NA,NA,NA,NA,NA,NA,NA,NA,NA,NA,NA,NA,NA,NA,NA
80413,block,flow.Loop,5_0_0_0,NA,NA,completion,116975.1,674567,674566.86,674567.16,791542.26,791545,2023-10-20T08:35:15Z,791558.92,NULL,NA,NA,NA,NA,NA,NA,NA,sdf,NA,0,NA,NA,NA,NA,NA,NA,NA,NA,NA,NA,NA,NA,NA,NA,NA,NA,NA,NA,NA
80413,weiter,canvas.Screen,5_0_0_1,sdf,keypress(Space),response,2144.08,791546,791542.26,791558.92,793703,793722,2023-10-20T08:35:17Z,793781.52,NULL,NA,NA,NA,NA,NA,NA,NA,sdf,NA,0,NA,NA,NA,NA,NA,NA,NA,NA,NA,NA,NA,NA,NA,NA,NA,NA,NA,NA,NA
80413,check continue,flow.Sequence,5_0_0,NA,NA,completion,119135.84,674567,674566.86,674567.16,793703,793723,2023-10-20T08:35:17Z,793781.52,NULL,NA,NA,NA,NA,NA,NA,NA,sdf,NA,0,NA,NA,NA,NA,NA,NA,NA,NA,NA,NA,NA,NA,NA,NA,NA,NA,NA,NA,NA
80413,deep,flow.Sequence,5_0_1_0_0_0,NA,NA,skipped,NA,793781,NA,NA,793703,793781,2023-10-20T08:35:17Z,793781.52,NULL,Gefährdung,kuhatarisha,s,uchokozi,udhaifu,makorowezo,NA,sdfdsf,NA,1,NA,NA,NA,NA,NA,NA,NA,NA,NA,NA,NA,NA,NA,NA,NA,NA,NA,NA,NA
80413,Shallow Question,html.Page,5_0_1_0_0_1_0,NA,NA,form submission,4719.48,793781,793781.24,793781.52,798501,798501,2023-10-20T08:35:22Z,798500.96,NULL,Gefährdung,kuhatarisha,s,uchokozi,udhaifu,makorowezo,kuhatarisha,NA,NA,1,NA,NA,NA,NA,NA,NA,NA,NA,NA,NA,NA,NA,NA,NA,NA,NA,NA,NA,NA
80413,"""Richtig""-Screen",canvas.Screen,5_0_1_0_0_1_1,NA,NA,timeout,5006.4,798503,798500.68,798500.96,803490.72,803492,2023-10-20T08:35:27Z,803507.36,NULL,Gefährdung,kuhatarisha,s,uchokozi,udhaifu,makorowezo,NA,sdfdsf,1,1,NA,NA,NA,NA,NA,NA,NA,NA,NA,NA,NA,NA,NA,NA,NA,NA,NA,NA,NA
80413,"""Falsch""-Screen",canvas.Screen,5_0_1_0_0_1_2,NA,NA,skipped,NA,803498,NA,NA,803490.72,803498,2023-10-20T08:35:27Z,803507.36,NULL,Gefährdung,kuhatarisha,s,uchokozi,udhaifu,makorowezo,NA,sdfdsf,NA,1,NA,NA,NA,NA,NA,NA,NA,NA,NA,NA,NA,NA,NA,NA,NA,NA,NA,NA,NA
80413,shallow,flow.Sequence,5_0_1_0_0_1,NA,NA,completion,9709.2,793781,793781.24,793781.52,803490.72,803499,2023-10-20T08:35:27Z,803507.36,NULL,Gefährdung,kuhatarisha,s,uchokozi,udhaifu,makorowezo,NA,sdfdsf,NA,1,NA,NA,NA,NA,NA,NA,NA,NA,NA,NA,NA,NA,NA,NA,NA,NA,NA,NA,NA
80413,task,flow.Sequence,5_0_1_0_0,NA,NA,completion,9709.2,793781,793781.24,793781.52,803490.72,803500,2023-10-20T08:35:27Z,803507.36,NULL,Gefährdung,kuhatarisha,s,uchokozi,udhaifu,makorowezo,NA,sdfdsf,NA,1,NA,NA,NA,NA,NA,NA,NA,NA,NA,NA,NA,NA,NA,NA,NA,NA,NA,NA,NA
80413,Deep Question,html.Page,5_0_1_0_1_0_0,NA,NA,form submission,7805.64,803500,803490.72,803507.36,811313,811314,2023-10-20T08:35:35Z,811322.98,NULL,Ausschluss,kutengwa,d,NA,NA,NA,kutengwa,NA,NA,1,NA,NA,NA,NA,NA,NA,NA,NA,NA,NA,NA,NA,NA,NA,NA,NA,NA,NA,NA
80413,"""Richtig""-Screen",canvas.Screen,5_0_1_0_1_0_1,NA,NA,timeout,4999.4,811316,811312.36,811322.98,816305.74,816307,2023-10-20T08:35:40Z,816322.38,NULL,Ausschluss,kutengwa,d,NA,NA,NA,NA,sdfdsf,1,1,NA,NA,NA,NA,NA,NA,NA,NA,NA,NA,NA,NA,NA,NA,NA,NA,NA,NA,NA
80413,"""Falsch""-Screen",canvas.Screen,5_0_1_0_1_0_2,NA,NA,skipped,NA,816313,NA,NA,816305.74,816313,2023-10-20T08:35:40Z,816322.38,NULL,Ausschluss,kutengwa,d,NA,NA,NA,NA,sdfdsf,NA,1,NA,NA,NA,NA,NA,NA,NA,NA,NA,NA,NA,NA,NA,NA,NA,NA,NA,NA,NA
80413,deep,flow.Sequence,5_0_1_0_1_0,NA,NA,completion,12798.38,803500,803490.72,803507.36,816305.74,816313,2023-10-20T08:35:40Z,816322.38,NULL,Ausschluss,kutengwa,d,NA,NA,NA,NA,sdfdsf,NA,1,NA,NA,NA,NA,NA,NA,NA,NA,NA,NA,NA,NA,NA,NA,NA,NA,NA,NA,NA
80413,shallow,flow.Sequence,5_0_1_0_1_1,NA,NA,skipped,NA,816314,NA,NA,816305.74,816314,2023-10-20T08:35:40Z,816322.38,NULL,Ausschluss,kutengwa,d,NA,NA,NA,NA,sdfdsf,NA,1,NA,NA,NA,NA,NA,NA,NA,NA,NA,NA,NA,NA,NA,NA,NA,NA,NA,NA,NA
80413,task,flow.Sequence,5_0_1_0_1,NA,NA,completion,12798.38,803500,803490.72,803507.36,816305.74,816314,2023-10-20T08:35:40Z,816322.38,NULL,Ausschluss,kutengwa,d,NA,NA,NA,NA,sdfdsf,NA,1,NA,NA,NA,NA,NA,NA,NA,NA,NA,NA,NA,NA,NA,NA,NA,NA,NA,NA,NA
80413,Deep Question,html.Page,5_0_1_0_2_0_0,NA,NA,form submission,7299.62,816315,816305.74,816322.38,823622,823623,2023-10-20T08:35:47Z,823637.64,NULL,Gelegenheit,wakati,d,NA,NA,NA,wakati,NA,NA,1,NA,NA,NA,NA,NA,NA,NA,NA,NA,NA,NA,NA,NA,NA,NA,NA,NA,NA,NA
80413,"""Richtig""-Screen",canvas.Screen,5_0_1_0_2_0_1,NA,NA,timeout,4999.8199999999,823625,823621.3,823637.64,828620.8,828622,2023-10-20T08:35:52Z,828637.46,NULL,Gelegenheit,wakati,d,NA,NA,NA,NA,sdfdsf,1,1,NA,NA,NA,NA,NA,NA,NA,NA,NA,NA,NA,NA,NA,NA,NA,NA,NA,NA,NA
80413,"""Falsch""-Screen",canvas.Screen,5_0_1_0_2_0_2,NA,NA,skipped,NA,828627,NA,NA,828620.8,828628,2023-10-20T08:35:52Z,828637.46,NULL,Gelegenheit,wakati,d,NA,NA,NA,NA,sdfdsf,NA,1,NA,NA,NA,NA,NA,NA,NA,NA,NA,NA,NA,NA,NA,NA,NA,NA,NA,NA,NA
80413,deep,flow.Sequence,5_0_1_0_2_0,NA,NA,completion,12298.42,816314,816305.74,816322.38,828620.8,828629,2023-10-20T08:35:52Z,828637.46,NULL,Gelegenheit,wakati,d,NA,NA,NA,NA,sdfdsf,NA,1,NA,NA,NA,NA,NA,NA,NA,NA,NA,NA,NA,NA,NA,NA,NA,NA,NA,NA,NA
80413,shallow,flow.Sequence,5_0_1_0_2_1,NA,NA,skipped,NA,828629,NA,NA,828620.8,828629,2023-10-20T08:35:52Z,828637.46,NULL,Gelegenheit,wakati,d,NA,NA,NA,NA,sdfdsf,NA,1,NA,NA,NA,NA,NA,NA,NA,NA,NA,NA,NA,NA,NA,NA,NA,NA,NA,NA,NA
80413,task,flow.Sequence,5_0_1_0_2,NA,NA,completion,12298.42,816314,816305.74,816322.38,828620.8,828630,2023-10-20T08:35:52Z,828637.46,NULL,Gelegenheit,wakati,d,NA,NA,NA,NA,sdfdsf,NA,1,NA,NA,NA,NA,NA,NA,NA,NA,NA,NA,NA,NA,NA,NA,NA,NA,NA,NA,NA
80413,Deep Question,html.Page,5_0_1_0_3_0_0,NA,NA,form submission,8927.54,828631,828620.8,828637.46,837565,837565,2023-10-20T08:36:01Z,837569.68,NULL,Können,unaweza,d,NA,NA,NA,unaweza,NA,NA,1,NA,NA,NA,NA,NA,NA,NA,NA,NA,NA,NA,NA,NA,NA,NA,NA,NA,NA,NA
80413,"""Richtig""-Screen",canvas.Screen,5_0_1_0_3_0_1,NA,NA,timeout,4999.2999999999,837568,837564.78,837569.68,842552.32,842556,2023-10-20T08:36:06Z,842568.98,NULL,Können,unaweza,d,NA,NA,NA,NA,sdfdsf,1,1,NA,NA,NA,NA,NA,NA,NA,NA,NA,NA,NA,NA,NA,NA,NA,NA,NA,NA,NA
80413,"""Falsch""-Screen",canvas.Screen,5_0_1_0_3_0_2,NA,NA,skipped,NA,842571,NA,NA,842552.32,842572,2023-10-20T08:36:06Z,842568.98,NULL,Können,unaweza,d,NA,NA,NA,NA,sdfdsf,NA,1,NA,NA,NA,NA,NA,NA,NA,NA,NA,NA,NA,NA,NA,NA,NA,NA,NA,NA,NA
80413,deep,flow.Sequence,5_0_1_0_3_0,NA,NA,completion,13914.86,828630,828620.8,828637.46,842552.32,842572,2023-10-20T08:36:06Z,842568.98,NULL,Können,unaweza,d,NA,NA,NA,NA,sdfdsf,NA,1,NA,NA,NA,NA,NA,NA,NA,NA,NA,NA,NA,NA,NA,NA,NA,NA,NA,NA,NA
80413,shallow,flow.Sequence,5_0_1_0_3_1,NA,NA,skipped,NA,842573,NA,NA,842552.32,842573,2023-10-20T08:36:06Z,842568.98,NULL,Können,unaweza,d,NA,NA,NA,NA,sdfdsf,NA,1,NA,NA,NA,NA,NA,NA,NA,NA,NA,NA,NA,NA,NA,NA,NA,NA,NA,NA,NA
80413,task,flow.Sequence,5_0_1_0_3,NA,NA,completion,13914.86,828630,828620.8,828637.46,842552.32,842574,2023-10-20T08:36:06Z,842568.98,NULL,Können,unaweza,d,NA,NA,NA,NA,sdfdsf,NA,1,NA,NA,NA,NA,NA,NA,NA,NA,NA,NA,NA,NA,NA,NA,NA,NA,NA,NA,NA
80413,deep,flow.Sequence,5_0_1_0_4_0,NA,NA,skipped,NA,842574,NA,NA,842552.32,842574,2023-10-20T08:36:06Z,842568.98,NULL,Widerstand,usulubu,s,kusababisha,mwalimu,mwenendo,NA,sdfdsf,NA,1,NA,NA,NA,NA,NA,NA,NA,NA,NA,NA,NA,NA,NA,NA,NA,NA,NA,NA,NA
80413,Shallow Question,html.Page,5_0_1_0_4_1_0,NA,NA,form submission,5525.02,842575,842552.32,842568.98,848094,848094,2023-10-20T08:36:12Z,848093.02,NULL,Widerstand,usulubu,s,kusababisha,mwalimu,mwenendo,usulubu,NA,NA,1,NA,NA,NA,NA,NA,NA,NA,NA,NA,NA,NA,NA,NA,NA,NA,NA,NA,NA,NA
80413,"""Richtig""-Screen",canvas.Screen,5_0_1_0_4_1_1,NA,NA,timeout,5008,848096,848092.8,848093.02,853084.36,853085,2023-10-20T08:36:17Z,853101.02,NULL,Widerstand,usulubu,s,kusababisha,mwalimu,mwenendo,NA,sdfdsf,1,1,NA,NA,NA,NA,NA,NA,NA,NA,NA,NA,NA,NA,NA,NA,NA,NA,NA,NA,NA
80413,"""Falsch""-Screen",canvas.Screen,5_0_1_0_4_1_2,NA,NA,skipped,NA,853094,NA,NA,853084.36,853094,2023-10-20T08:36:17Z,853101.02,NULL,Widerstand,usulubu,s,kusababisha,mwalimu,mwenendo,NA,sdfdsf,NA,1,NA,NA,NA,NA,NA,NA,NA,NA,NA,NA,NA,NA,NA,NA,NA,NA,NA,NA,NA
80413,shallow,flow.Sequence,5_0_1_0_4_1,NA,NA,completion,10515.38,842574,842552.32,842568.98,853084.36,853095,2023-10-20T08:36:17Z,853101.02,NULL,Widerstand,usulubu,s,kusababisha,mwalimu,mwenendo,NA,sdfdsf,NA,1,NA,NA,NA,NA,NA,NA,NA,NA,NA,NA,NA,NA,NA,NA,NA,NA,NA,NA,NA
80413,task,flow.Sequence,5_0_1_0_4,NA,NA,completion,10515.38,842574,842552.32,842568.98,853084.36,853096,2023-10-20T08:36:17Z,853101.02,NULL,Widerstand,usulubu,s,kusababisha,mwalimu,mwenendo,NA,sdfdsf,NA,1,NA,NA,NA,NA,NA,NA,NA,NA,NA,NA,NA,NA,NA,NA,NA,NA,NA,NA,NA
80413,deep,flow.Sequence,5_0_1_0_5_0,NA,NA,skipped,NA,853097,NA,NA,853084.36,853097,2023-10-20T08:36:17Z,853101.02,NULL,Kontrolle,kudhibiti,s,mbinguni,kufunga,utegemezi,NA,sdfdsf,NA,1,NA,NA,NA,NA,NA,NA,NA,NA,NA,NA,NA,NA,NA,NA,NA,NA,NA,NA,NA
80413,Shallow Question,html.Page,5_0_1_0_5_1_0,NA,NA,form submission,7651.98,853097,853084.36,853101.02,860753,860754,2023-10-20T08:36:24Z,860752.88,NULL,Kontrolle,kudhibiti,s,mbinguni,kufunga,utegemezi,kudhibiti,NA,NA,1,NA,NA,NA,NA,NA,NA,NA,NA,NA,NA,NA,NA,NA,NA,NA,NA,NA,NA,NA
80413,"""Richtig""-Screen",canvas.Screen,5_0_1_0_5_1_1,NA,NA,timeout,4996.5,860755,860752.68,860752.88,865732.72,865734,2023-10-20T08:36:29Z,865749.38,NULL,Kontrolle,kudhibiti,s,mbinguni,kufunga,utegemezi,NA,sdfdsf,1,1,NA,NA,NA,NA,NA,NA,NA,NA,NA,NA,NA,NA,NA,NA,NA,NA,NA,NA,NA
80413,"""Falsch""-Screen",canvas.Screen,5_0_1_0_5_1_2,NA,NA,skipped,NA,865741,NA,NA,865732.72,865741,2023-10-20T08:36:29Z,865749.38,NULL,Kontrolle,kudhibiti,s,mbinguni,kufunga,utegemezi,NA,sdfdsf,NA,1,NA,NA,NA,NA,NA,NA,NA,NA,NA,NA,NA,NA,NA,NA,NA,NA,NA,NA,NA
80413,shallow,flow.Sequence,5_0_1_0_5_1,NA,NA,completion,12631.7,853097,853084.36,853101.02,865732.72,865742,2023-10-20T08:36:29Z,865749.38,NULL,Kontrolle,kudhibiti,s,mbinguni,kufunga,utegemezi,NA,sdfdsf,NA,1,NA,NA,NA,NA,NA,NA,NA,NA,NA,NA,NA,NA,NA,NA,NA,NA,NA,NA,NA
80413,task,flow.Sequence,5_0_1_0_5,NA,NA,completion,12631.7,853096,853084.36,853101.02,865732.72,865742,2023-10-20T08:36:29Z,865749.38,NULL,Kontrolle,kudhibiti,s,mbinguni,kufunga,utegemezi,NA,sdfdsf,NA,1,NA,NA,NA,NA,NA,NA,NA,NA,NA,NA,NA,NA,NA,NA,NA,NA,NA,NA,NA
80413,Deep Question,html.Page,5_0_1_0_6_0_0,NA,NA,form submission,8928.62,865743,865732.72,865749.38,874678,874678,2023-10-20T08:36:38Z,874681.62,NULL,Kreativität,ubunifu,d,NA,NA,NA,ubunifu,NA,NA,1,NA,NA,NA,NA,NA,NA,NA,NA,NA,NA,NA,NA,NA,NA,NA,NA,NA,NA,NA
80413,"""Richtig""-Screen",canvas.Screen,5_0_1_0_6_0_1,NA,NA,timeout,4999.26,874681,874676.94,874681.62,879664.22,879666,2023-10-20T08:36:43Z,879680.88,NULL,Kreativität,ubunifu,d,NA,NA,NA,NA,sdfdsf,1,1,NA,NA,NA,NA,NA,NA,NA,NA,NA,NA,NA,NA,NA,NA,NA,NA,NA,NA,NA
80413,"""Falsch""-Screen",canvas.Screen,5_0_1_0_6_0_2,NA,NA,skipped,NA,879672,NA,NA,879664.22,879672,2023-10-20T08:36:43Z,879680.88,NULL,Kreativität,ubunifu,d,NA,NA,NA,NA,sdfdsf,NA,1,NA,NA,NA,NA,NA,NA,NA,NA,NA,NA,NA,NA,NA,NA,NA,NA,NA,NA,NA
80413,deep,flow.Sequence,5_0_1_0_6_0,NA,NA,completion,13914.84,865743,865732.72,865749.38,879664.22,879672,2023-10-20T08:36:43Z,879680.88,NULL,Kreativität,ubunifu,d,NA,NA,NA,NA,sdfdsf,NA,1,NA,NA,NA,NA,NA,NA,NA,NA,NA,NA,NA,NA,NA,NA,NA,NA,NA,NA,NA
80413,shallow,flow.Sequence,5_0_1_0_6_1,NA,NA,skipped,NA,879672,NA,NA,879664.22,879673,2023-10-20T08:36:43Z,879680.88,NULL,Kreativität,ubunifu,d,NA,NA,NA,NA,sdfdsf,NA,1,NA,NA,NA,NA,NA,NA,NA,NA,NA,NA,NA,NA,NA,NA,NA,NA,NA,NA,NA
80413,task,flow.Sequence,5_0_1_0_6,NA,NA,completion,13914.84,865742,865732.72,865749.38,879664.22,879673,2023-10-20T08:36:43Z,879680.88,NULL,Kreativität,ubunifu,d,NA,NA,NA,NA,sdfdsf,NA,1,NA,NA,NA,NA,NA,NA,NA,NA,NA,NA,NA,NA,NA,NA,NA,NA,NA,NA,NA
80413,deep,flow.Sequence,5_0_1_0_7_0,NA,NA,skipped,NA,879673,NA,NA,879664.22,879673,2023-10-20T08:36:43Z,879680.88,NULL,Verstand,ufahamivu,s,shakawa,hadhari,mhandisi,NA,sdfdsf,NA,1,NA,NA,NA,NA,NA,NA,NA,NA,NA,NA,NA,NA,NA,NA,NA,NA,NA,NA,NA
80413,Shallow Question,html.Page,5_0_1_0_7_1_0,NA,NA,form submission,6523.12,879673,879664.22,879680.88,886204,886204,2023-10-20T08:36:50Z,886203.26,NULL,Verstand,ufahamivu,s,shakawa,hadhari,mhandisi,ufahamivu,NA,NA,1,NA,NA,NA,NA,NA,NA,NA,NA,NA,NA,NA,NA,NA,NA,NA,NA,NA,NA,NA
80413,"""Richtig""-Screen",canvas.Screen,5_0_1_0_7_1_1,NA,NA,timeout,4992.86,886208,886203,886203.26,891179.46,891182,2023-10-20T08:36:55Z,891196.12,NULL,Verstand,ufahamivu,s,shakawa,hadhari,mhandisi,NA,sdfdsf,1,1,NA,NA,NA,NA,NA,NA,NA,NA,NA,NA,NA,NA,NA,NA,NA,NA,NA,NA,NA
80413,"""Falsch""-Screen",canvas.Screen,5_0_1_0_7_1_2,NA,NA,skipped,NA,891190,NA,NA,891179.46,891190,2023-10-20T08:36:55Z,891196.12,NULL,Verstand,ufahamivu,s,shakawa,hadhari,mhandisi,NA,sdfdsf,NA,1,NA,NA,NA,NA,NA,NA,NA,NA,NA,NA,NA,NA,NA,NA,NA,NA,NA,NA,NA
80413,shallow,flow.Sequence,5_0_1_0_7_1,NA,NA,completion,11498.58,879673,879664.22,879680.88,891179.46,891190,2023-10-20T08:36:55Z,891196.12,NULL,Verstand,ufahamivu,s,shakawa,hadhari,mhandisi,NA,sdfdsf,NA,1,NA,NA,NA,NA,NA,NA,NA,NA,NA,NA,NA,NA,NA,NA,NA,NA,NA,NA,NA
80413,task,flow.Sequence,5_0_1_0_7,NA,NA,completion,11498.58,879673,879664.22,879680.88,891179.46,891190,2023-10-20T08:36:55Z,891196.12,NULL,Verstand,ufahamivu,s,shakawa,hadhari,mhandisi,NA,sdfdsf,NA,1,NA,NA,NA,NA,NA,NA,NA,NA,NA,NA,NA,NA,NA,NA,NA,NA,NA,NA,NA
80413,block,flow.Loop,5_0_1_0,NA,NA,completion,97397.94,793781,793781.24,793781.52,891179.46,891191,2023-10-20T08:36:55Z,891196.12,NULL,NA,NA,NA,NA,NA,NA,NA,sdfdsf,NA,1,NA,NA,NA,NA,NA,NA,NA,NA,NA,NA,NA,NA,NA,NA,NA,NA,NA,NA,NA
80413,weiter,canvas.Screen,5_0_1_1,sdf,keypress(Space),response,1131.88,891191,891179.46,891196.12,892328,892332,2023-10-20T08:36:56Z,893099.92,NULL,NA,NA,NA,NA,NA,NA,NA,sdfdsf,NA,1,NA,NA,NA,NA,NA,NA,NA,NA,NA,NA,NA,NA,NA,NA,NA,NA,NA,NA,NA
80413,check continue,flow.Sequence,5_0_1,NA,NA,completion,98546.48,793781,793781.24,793781.52,892328,892333,2023-10-20T08:36:56Z,893099.92,NULL,NA,NA,NA,NA,NA,NA,NA,sdfdsf,NA,1,NA,NA,NA,NA,NA,NA,NA,NA,NA,NA,NA,NA,NA,NA,NA,NA,NA,NA,NA
80413,check continue,flow.Sequence,5_0_2,NA,NA,skipped,NA,892395,NA,NA,892328,892395,2023-10-20T08:36:56Z,893099.92,NULL,NA,NA,NA,NA,NA,NA,NA,sdf,NA,2,NA,NA,NA,NA,NA,NA,NA,NA,NA,NA,NA,NA,NA,NA,NA,NA,NA,NA,NA
80413,check continue,flow.Sequence,5_0_3,NA,NA,skipped,NA,892423,NA,NA,892328,892423,2023-10-20T08:36:56Z,893099.92,NULL,NA,NA,NA,NA,NA,NA,NA,qt,NA,3,NA,NA,NA,NA,NA,NA,NA,NA,NA,NA,NA,NA,NA,NA,NA,NA,NA,NA,NA
80413,check continue,flow.Sequence,5_0_4,NA,NA,skipped,NA,892451,NA,NA,892328,892451,2023-10-20T08:36:56Z,893099.92,NULL,NA,NA,NA,NA,NA,NA,NA,sd,NA,4,NA,NA,NA,NA,NA,NA,NA,NA,NA,NA,NA,NA,NA,NA,NA,NA,NA,NA,NA
80413,check continue,flow.Sequence,5_0_5,NA,NA,skipped,NA,892476,NA,NA,892328,892476,2023-10-20T08:36:56Z,893099.92,NULL,NA,NA,NA,NA,NA,NA,NA,sdf,NA,5,NA,NA,NA,NA,NA,NA,NA,NA,NA,NA,NA,NA,NA,NA,NA,NA,NA,NA,NA
80413,check continue,flow.Sequence,5_0_6,NA,NA,skipped,NA,892505,NA,NA,892328,892505,2023-10-20T08:36:56Z,893099.92,NULL,NA,NA,NA,NA,NA,NA,NA,dfs,NA,6,NA,NA,NA,NA,NA,NA,NA,NA,NA,NA,NA,NA,NA,NA,NA,NA,NA,NA,NA
80413,check continue,flow.Sequence,5_0_7,NA,NA,skipped,NA,892530,NA,NA,892328,892530,2023-10-20T08:36:56Z,893099.92,NULL,NA,NA,NA,NA,NA,NA,NA,df,NA,7,NA,NA,NA,NA,NA,NA,NA,NA,NA,NA,NA,NA,NA,NA,NA,NA,NA,NA,NA
80413,check continue,flow.Sequence,5_0_8,NA,NA,skipped,NA,892556,NA,NA,892328,892557,2023-10-20T08:36:56Z,893099.92,NULL,NA,NA,NA,NA,NA,NA,NA,dfs,NA,8,NA,NA,NA,NA,NA,NA,NA,NA,NA,NA,NA,NA,NA,NA,NA,NA,NA,NA,NA
80413,check continue,flow.Sequence,5_0_9,NA,NA,skipped,NA,892583,NA,NA,892328,892583,2023-10-20T08:36:56Z,893099.92,NULL,NA,NA,NA,NA,NA,NA,NA,dsf,NA,9,NA,NA,NA,NA,NA,NA,NA,NA,NA,NA,NA,NA,NA,NA,NA,NA,NA,NA,NA
80413,check continue,flow.Sequence,5_0_10,NA,NA,skipped,NA,892617,NA,NA,892328,892617,2023-10-20T08:36:56Z,893099.92,NULL,NA,NA,NA,NA,NA,NA,NA,df,NA,10,NA,NA,NA,NA,NA,NA,NA,NA,NA,NA,NA,NA,NA,NA,NA,NA,NA,NA,NA
80413,check continue,flow.Sequence,5_0_11,NA,NA,skipped,NA,892644,NA,NA,892328,892644,2023-10-20T08:36:56Z,893099.92,NULL,NA,NA,NA,NA,NA,NA,NA,dfs,NA,11,NA,NA,NA,NA,NA,NA,NA,NA,NA,NA,NA,NA,NA,NA,NA,NA,NA,NA,NA
80413,check continue,flow.Sequence,5_0_12,NA,NA,skipped,NA,892670,NA,NA,892328,892670,2023-10-20T08:36:56Z,893099.92,NULL,NA,NA,NA,NA,NA,NA,NA,dsf,NA,12,NA,NA,NA,NA,NA,NA,NA,NA,NA,NA,NA,NA,NA,NA,NA,NA,NA,NA,NA
80413,check continue,flow.Sequence,5_0_13,NA,NA,skipped,NA,892698,NA,NA,892328,892698,2023-10-20T08:36:56Z,893099.92,NULL,NA,NA,NA,NA,NA,NA,NA,dsf,NA,13,NA,NA,NA,NA,NA,NA,NA,NA,NA,NA,NA,NA,NA,NA,NA,NA,NA,NA,NA
80413,check continue,flow.Sequence,5_0_14,NA,NA,skipped,NA,892722,NA,NA,892328,892722,2023-10-20T08:36:56Z,893099.92,NULL,NA,NA,NA,NA,NA,NA,NA,NA,NA,14,NA,NA,NA,NA,NA,NA,NA,NA,NA,NA,NA,NA,NA,NA,NA,NA,NA,NA,NA
80413,check continue,flow.Sequence,5_0_15,NA,NA,skipped,NA,892745,NA,NA,892328,892745,2023-10-20T08:36:56Z,893099.92,NULL,NA,NA,NA,NA,NA,NA,NA,NA,NA,15,NA,NA,NA,NA,NA,NA,NA,NA,NA,NA,NA,NA,NA,NA,NA,NA,NA,NA,NA
80413,check continue,flow.Sequence,5_0_16,NA,NA,skipped,NA,892772,NA,NA,892328,892772,2023-10-20T08:36:56Z,893099.92,NULL,NA,NA,NA,NA,NA,NA,NA,NA,NA,16,NA,NA,NA,NA,NA,NA,NA,NA,NA,NA,NA,NA,NA,NA,NA,NA,NA,NA,NA
80413,check continue,flow.Sequence,5_0_17,NA,NA,skipped,NA,892794,NA,NA,892328,892794,2023-10-20T08:36:56Z,893099.92,NULL,NA,NA,NA,NA,NA,NA,NA,NA,NA,17,NA,NA,NA,NA,NA,NA,NA,NA,NA,NA,NA,NA,NA,NA,NA,NA,NA,NA,NA
80413,check continue,flow.Sequence,5_0_18,NA,NA,skipped,NA,892821,NA,NA,892328,892821,2023-10-20T08:36:56Z,893099.92,NULL,NA,NA,NA,NA,NA,NA,NA,NA,NA,18,NA,NA,NA,NA,NA,NA,NA,NA,NA,NA,NA,NA,NA,NA,NA,NA,NA,NA,NA
80413,check continue,flow.Sequence,5_0_19,NA,NA,skipped,NA,892849,NA,NA,892328,892849,2023-10-20T08:36:56Z,893099.92,NULL,NA,NA,NA,NA,NA,NA,NA,NA,NA,19,NA,NA,NA,NA,NA,NA,NA,NA,NA,NA,NA,NA,NA,NA,NA,NA,NA,NA,NA
80413,check continue,flow.Sequence,5_0_20,NA,NA,skipped,NA,892872,NA,NA,892328,892872,2023-10-20T08:36:57Z,893099.92,NULL,NA,NA,NA,NA,NA,NA,NA,NA,NA,20,NA,NA,NA,NA,NA,NA,NA,NA,NA,NA,NA,NA,NA,NA,NA,NA,NA,NA,NA
80413,check continue,flow.Sequence,5_0_21,NA,NA,skipped,NA,892901,NA,NA,892328,892901,2023-10-20T08:36:57Z,893099.92,NULL,NA,NA,NA,NA,NA,NA,NA,NA,NA,21,NA,NA,NA,NA,NA,NA,NA,NA,NA,NA,NA,NA,NA,NA,NA,NA,NA,NA,NA
80413,check continue,flow.Sequence,5_0_22,NA,NA,skipped,NA,892924,NA,NA,892328,892924,2023-10-20T08:36:57Z,893099.92,NULL,NA,NA,NA,NA,NA,NA,NA,NA,NA,22,NA,NA,NA,NA,NA,NA,NA,NA,NA,NA,NA,NA,NA,NA,NA,NA,NA,NA,NA
80413,check continue,flow.Sequence,5_0_23,NA,NA,skipped,NA,892947,NA,NA,892328,892947,2023-10-20T08:36:57Z,893099.92,NULL,NA,NA,NA,NA,NA,NA,NA,NA,NA,23,NA,NA,NA,NA,NA,NA,NA,NA,NA,NA,NA,NA,NA,NA,NA,NA,NA,NA,NA
80413,check continue,flow.Sequence,5_0_24,NA,NA,skipped,NA,892974,NA,NA,892328,892974,2023-10-20T08:36:57Z,893099.92,NULL,NA,NA,NA,NA,NA,NA,NA,NA,NA,24,NA,NA,NA,NA,NA,NA,NA,NA,NA,NA,NA,NA,NA,NA,NA,NA,NA,NA,NA
80413,check continue,flow.Sequence,5_0_25,NA,NA,skipped,NA,893001,NA,NA,892328,893002,2023-10-20T08:36:57Z,893099.92,NULL,NA,NA,NA,NA,NA,NA,NA,NA,NA,25,NA,NA,NA,NA,NA,NA,NA,NA,NA,NA,NA,NA,NA,NA,NA,NA,NA,NA,NA
80413,check continue,flow.Sequence,5_0_26,NA,NA,skipped,NA,893025,NA,NA,892328,893025,2023-10-20T08:36:57Z,893099.92,NULL,NA,NA,NA,NA,NA,NA,NA,NA,NA,26,NA,NA,NA,NA,NA,NA,NA,NA,NA,NA,NA,NA,NA,NA,NA,NA,NA,NA,NA
80413,check continue,flow.Sequence,5_0_27,NA,NA,skipped,NA,893051,NA,NA,892328,893051,2023-10-20T08:36:57Z,893099.92,NULL,NA,NA,NA,NA,NA,NA,NA,NA,NA,27,NA,NA,NA,NA,NA,NA,NA,NA,NA,NA,NA,NA,NA,NA,NA,NA,NA,NA,NA
80413,check continue,flow.Sequence,5_0_28,NA,NA,skipped,NA,893076,NA,NA,892328,893076,2023-10-20T08:36:57Z,893099.92,NULL,NA,NA,NA,NA,NA,NA,NA,NA,NA,28,NA,NA,NA,NA,NA,NA,NA,NA,NA,NA,NA,NA,NA,NA,NA,NA,NA,NA,NA
80413,check continue,flow.Sequence,5_0_29,NA,NA,skipped,NA,893100,NA,NA,892328,893100,2023-10-20T08:36:57Z,893099.92,NULL,NA,NA,NA,NA,NA,NA,NA,NA,NA,29,NA,NA,NA,NA,NA,NA,NA,NA,NA,NA,NA,NA,NA,NA,NA,NA,NA,NA,NA
80413,until continue,flow.Loop,5_0,NA,NA,completion,217760.84,674542,674566.86,674567.16,892328,893100,2023-10-20T08:36:57Z,893099.92,NULL,NA,NA,NA,NA,NA,NA,NA,NA,NA,NA,NA,NA,NA,NA,NA,NA,NA,NA,NA,NA,NA,NA,NA,NA,NA,NA,NA,NA,NA
80413,block 2,flow.Sequence,5,NA,NA,completion,217760.84,674542,674566.86,674567.16,892328,893100,2023-10-20T08:36:57Z,893099.92,NULL,NA,NA,NA,NA,NA,NA,NA,NA,NA,NA,NA,NA,NA,NA,NA,NA,NA,NA,NA,NA,NA,NA,NA,NA,NA,NA,NA,NA,NA
80413,2.Part Over,canvas.Screen,6,NA,keypress(Space),response,2228.08,893100,893099.6,893099.92,895328,895345,2023-10-20T08:36:59Z,895416.82,NULL,NA,NA,NA,NA,NA,NA,NA,NA,NA,NA,NA,NA,NA,NA,NA,NA,NA,NA,NA,NA,NA,NA,NA,NA,NA,NA,NA,NA,NA
80413,Deep Question,html.Page,7_0_0_0_0_0_0,NA,NA,form submission,11336.18,895416,895416.5,895416.82,906753,906755,2023-10-20T08:37:10Z,906760.88,NULL,System,maongozi,d,NA,NA,NA,zr,NA,NA,0,NA,NA,NA,NA,NA,NA,NA,NA,NA,NA,NA,NA,NA,NA,NA,NA,NA,NA,NA
80413,"""Richtig""-Screen",canvas.Screen,7_0_0_0_0_0_1,NA,NA,skipped,NA,906761,NA,NA,906753,906761,2023-10-20T08:37:10Z,906760.88,NULL,System,maongozi,d,NA,NA,NA,NA,sdf,NA,0,NA,NA,NA,NA,NA,NA,NA,NA,NA,NA,NA,NA,NA,NA,NA,NA,NA,NA,NA
80413,"""Falsch""-Screen",canvas.Screen,7_0_0_0_0_0_2,NA,NA,timeout,4999.3,906764,906751.5,906760.88,911743.54,911745,2023-10-20T08:37:15Z,911760.18,NULL,System,maongozi,d,NA,NA,NA,NA,sdf,0,0,NA,NA,NA,NA,NA,NA,NA,NA,NA,NA,NA,NA,NA,NA,NA,NA,NA,NA,NA
80413,deep,flow.Sequence,7_0_0_0_0_0,NA,NA,completion,16326.72,895416,895416.5,895416.82,911743.54,911746,2023-10-20T08:37:15Z,911760.18,NULL,System,maongozi,d,NA,NA,NA,NA,sdf,NA,0,NA,NA,NA,NA,NA,NA,NA,NA,NA,NA,NA,NA,NA,NA,NA,NA,NA,NA,NA
80413,shallow,flow.Sequence,7_0_0_0_0_1,NA,NA,skipped,NA,911746,NA,NA,911743.54,911747,2023-10-20T08:37:15Z,911760.18,NULL,System,maongozi,d,NA,NA,NA,NA,sdf,NA,0,NA,NA,NA,NA,NA,NA,NA,NA,NA,NA,NA,NA,NA,NA,NA,NA,NA,NA,NA
80413,task,flow.Sequence,7_0_0_0_0,NA,NA,completion,16326.72,895416,895416.5,895416.82,911743.54,911747,2023-10-20T08:37:15Z,911760.18,NULL,System,maongozi,d,NA,NA,NA,NA,sdf,NA,0,NA,NA,NA,NA,NA,NA,NA,NA,NA,NA,NA,NA,NA,NA,NA,NA,NA,NA,NA
80413,deep,flow.Sequence,7_0_0_0_1_0,NA,NA,skipped,NA,911748,NA,NA,911743.54,911748,2023-10-20T08:37:15Z,911760.18,NULL,Übersicht,kilindo,s,mgusano,chipukizi,kulinganisha,NA,sdf,NA,0,NA,NA,NA,NA,NA,NA,NA,NA,NA,NA,NA,NA,NA,NA,NA,NA,NA,NA,NA
80413,Shallow Question,html.Page,7_0_0_0_1_1_0,NA,NA,form submission,9825.8199999999,911749,911743.54,911760.18,921586,921586,2023-10-20T08:37:25Z,921584.88,NULL,Übersicht,kilindo,s,mgusano,chipukizi,kulinganisha,kilindo,NA,NA,0,NA,NA,NA,NA,NA,NA,NA,NA,NA,NA,NA,NA,NA,NA,NA,NA,NA,NA,NA
80413,"""Richtig""-Screen",canvas.Screen,7_0_0_0_1_1_1,NA,NA,timeout,5006.7,921589,921584.48,921584.88,926574.92,926577,2023-10-20T08:37:30Z,926591.58,NULL,Übersicht,kilindo,s,mgusano,chipukizi,kulinganisha,NA,sdf,1,0,NA,NA,NA,NA,NA,NA,NA,NA,NA,NA,NA,NA,NA,NA,NA,NA,NA,NA,NA
80413,"""Falsch""-Screen",canvas.Screen,7_0_0_0_1_1_2,NA,NA,skipped,NA,926583,NA,NA,926574.92,926584,2023-10-20T08:37:30Z,926591.58,NULL,Übersicht,kilindo,s,mgusano,chipukizi,kulinganisha,NA,sdf,NA,0,NA,NA,NA,NA,NA,NA,NA,NA,NA,NA,NA,NA,NA,NA,NA,NA,NA,NA,NA
80413,shallow,flow.Sequence,7_0_0_0_1_1,NA,NA,completion,14814.74,911749,911743.54,911760.18,926574.92,926585,2023-10-20T08:37:30Z,926591.58,NULL,Übersicht,kilindo,s,mgusano,chipukizi,kulinganisha,NA,sdf,NA,0,NA,NA,NA,NA,NA,NA,NA,NA,NA,NA,NA,NA,NA,NA,NA,NA,NA,NA,NA
80413,task,flow.Sequence,7_0_0_0_1,NA,NA,completion,14814.74,911748,911743.54,911760.18,926574.92,926585,2023-10-20T08:37:30Z,926591.58,NULL,Übersicht,kilindo,s,mgusano,chipukizi,kulinganisha,NA,sdf,NA,0,NA,NA,NA,NA,NA,NA,NA,NA,NA,NA,NA,NA,NA,NA,NA,NA,NA,NA,NA
80413,deep,flow.Sequence,7_0_0_0_2_0,NA,NA,skipped,NA,926586,NA,NA,926574.92,926587,2023-10-20T08:37:30Z,926591.58,NULL,Zuwachs,nyongeza,s,matilaba,udhibiti,hudhurio,NA,sdf,NA,0,NA,NA,NA,NA,NA,NA,NA,NA,NA,NA,NA,NA,NA,NA,NA,NA,NA,NA,NA
80413,Shallow Question,html.Page,7_0_0_0_2_1_0,NA,NA,form submission,10340.42,926587,926574.92,926591.58,936932,936933,2023-10-20T08:37:41Z,936940.32,NULL,Zuwachs,nyongeza,s,matilaba,udhibiti,hudhurio,matilaba,NA,NA,0,NA,NA,NA,NA,NA,NA,NA,NA,NA,NA,NA,NA,NA,NA,NA,NA,NA,NA,NA
80413,"""Richtig""-Screen",canvas.Screen,7_0_0_0_2_1_1,NA,NA,skipped,NA,936936,NA,NA,936932,936936,2023-10-20T08:37:41Z,936940.32,NULL,Zuwachs,nyongeza,s,matilaba,udhibiti,hudhurio,NA,sdf,NA,0,NA,NA,NA,NA,NA,NA,NA,NA,NA,NA,NA,NA,NA,NA,NA,NA,NA,NA,NA
80413,"""Falsch""-Screen",canvas.Screen,7_0_0_0_2_1_2,NA,NA,timeout,4999.3,936939,936930.46,936940.32,941922.96,941924,2023-10-20T08:37:46Z,941939.62,NULL,Zuwachs,nyongeza,s,matilaba,udhibiti,hudhurio,NA,sdf,0,0,NA,NA,NA,NA,NA,NA,NA,NA,NA,NA,NA,NA,NA,NA,NA,NA,NA,NA,NA
80413,shallow,flow.Sequence,7_0_0_0_2_1,NA,NA,completion,15331.38,926587,926574.92,926591.58,941922.96,941925,2023-10-20T08:37:46Z,941939.62,NULL,Zuwachs,nyongeza,s,matilaba,udhibiti,hudhurio,NA,sdf,NA,0,NA,NA,NA,NA,NA,NA,NA,NA,NA,NA,NA,NA,NA,NA,NA,NA,NA,NA,NA
80413,task,flow.Sequence,7_0_0_0_2,NA,NA,completion,15331.38,926586,926574.92,926591.58,941922.96,941925,2023-10-20T08:37:46Z,941939.62,NULL,Zuwachs,nyongeza,s,matilaba,udhibiti,hudhurio,NA,sdf,NA,0,NA,NA,NA,NA,NA,NA,NA,NA,NA,NA,NA,NA,NA,NA,NA,NA,NA,NA,NA
80413,deep,flow.Sequence,7_0_0_0_3_0,NA,NA,skipped,NA,941926,NA,NA,941922.96,941926,2023-10-20T08:37:46Z,941939.62,NULL,Körper,kiwiliwili,s,mapambano,mpatanishi,kiolezo,NA,sdf,NA,0,NA,NA,NA,NA,NA,NA,NA,NA,NA,NA,NA,NA,NA,NA,NA,NA,NA,NA,NA
80413,Shallow Question,html.Page,7_0_0_0_3_1_0,NA,NA,form submission,7120.38,941927,941922.96,941939.62,949060,949061,2023-10-20T08:37:53Z,949059.88,NULL,Körper,kiwiliwili,s,mapambano,mpatanishi,kiolezo,kiolezo,NA,NA,0,NA,NA,NA,NA,NA,NA,NA,NA,NA,NA,NA,NA,NA,NA,NA,NA,NA,NA,NA
80413,"""Richtig""-Screen",canvas.Screen,7_0_0_0_3_1_1,NA,NA,skipped,NA,949063,NA,NA,949060,949064,2023-10-20T08:37:53Z,949059.88,NULL,Körper,kiwiliwili,s,mapambano,mpatanishi,kiolezo,NA,sdf,NA,0,NA,NA,NA,NA,NA,NA,NA,NA,NA,NA,NA,NA,NA,NA,NA,NA,NA,NA,NA
80413,"""Falsch""-Screen",canvas.Screen,7_0_0_0_3_1_2,NA,NA,timeout,4994.96,949066,949059.6,949059.88,954038.18,954040,2023-10-20T08:37:58Z,954054.84,NULL,Körper,kiwiliwili,s,mapambano,mpatanishi,kiolezo,NA,sdf,0,0,NA,NA,NA,NA,NA,NA,NA,NA,NA,NA,NA,NA,NA,NA,NA,NA,NA,NA,NA
80413,shallow,flow.Sequence,7_0_0_0_3_1,NA,NA,completion,12098.56,941927,941922.96,941939.62,954038.18,954041,2023-10-20T08:37:58Z,954054.84,NULL,Körper,kiwiliwili,s,mapambano,mpatanishi,kiolezo,NA,sdf,NA,0,NA,NA,NA,NA,NA,NA,NA,NA,NA,NA,NA,NA,NA,NA,NA,NA,NA,NA,NA
80413,task,flow.Sequence,7_0_0_0_3,NA,NA,completion,12098.56,941926,941922.96,941939.62,954038.18,954041,2023-10-20T08:37:58Z,954054.84,NULL,Körper,kiwiliwili,s,mapambano,mpatanishi,kiolezo,NA,sdf,NA,0,NA,NA,NA,NA,NA,NA,NA,NA,NA,NA,NA,NA,NA,NA,NA,NA,NA,NA,NA
80413,Deep Question,html.Page,7_0_0_0_4_0_0,NA,NA,form submission,10063.16,954042,954038.18,954054.84,964118,964118,2023-10-20T08:38:08Z,964120.2,NULL,Lawine,banguko,d,NA,NA,NA,ou,NA,NA,0,NA,NA,NA,NA,NA,NA,NA,NA,NA,NA,NA,NA,NA,NA,NA,NA,NA,NA,NA
80413,"""Richtig""-Screen",canvas.Screen,7_0_0_0_4_0_1,NA,NA,skipped,NA,964121,NA,NA,964118,964121,2023-10-20T08:38:08Z,964120.2,NULL,Lawine,banguko,d,NA,NA,NA,NA,sdf,NA,0,NA,NA,NA,NA,NA,NA,NA,NA,NA,NA,NA,NA,NA,NA,NA,NA,NA,NA,NA
80413,"""Falsch""-Screen",canvas.Screen,7_0_0_0_4_0_2,NA,NA,timeout,4999.24,964124,964117.04,964120.2,969102.78,969104,2023-10-20T08:38:13Z,969119.44,NULL,Lawine,banguko,d,NA,NA,NA,NA,sdf,0,0,NA,NA,NA,NA,NA,NA,NA,NA,NA,NA,NA,NA,NA,NA,NA,NA,NA,NA,NA
80413,deep,flow.Sequence,7_0_0_0_4_0,NA,NA,completion,15047.94,954042,954038.18,954054.84,969102.78,969105,2023-10-20T08:38:13Z,969119.44,NULL,Lawine,banguko,d,NA,NA,NA,NA,sdf,NA,0,NA,NA,NA,NA,NA,NA,NA,NA,NA,NA,NA,NA,NA,NA,NA,NA,NA,NA,NA
80413,shallow,flow.Sequence,7_0_0_0_4_1,NA,NA,skipped,NA,969105,NA,NA,969102.78,969106,2023-10-20T08:38:13Z,969119.44,NULL,Lawine,banguko,d,NA,NA,NA,NA,sdf,NA,0,NA,NA,NA,NA,NA,NA,NA,NA,NA,NA,NA,NA,NA,NA,NA,NA,NA,NA,NA
80413,task,flow.Sequence,7_0_0_0_4,NA,NA,completion,15047.94,954042,954038.18,954054.84,969102.78,969106,2023-10-20T08:38:13Z,969119.44,NULL,Lawine,banguko,d,NA,NA,NA,NA,sdf,NA,0,NA,NA,NA,NA,NA,NA,NA,NA,NA,NA,NA,NA,NA,NA,NA,NA,NA,NA,NA
80413,deep,flow.Sequence,7_0_0_0_5_0,NA,NA,skipped,NA,969107,NA,NA,969102.78,969107,2023-10-20T08:38:13Z,969119.44,NULL,Symbol,kielezo,s,kinyume,nderemo,utayari,NA,sdf,NA,0,NA,NA,NA,NA,NA,NA,NA,NA,NA,NA,NA,NA,NA,NA,NA,NA,NA,NA,NA
80413,Shallow Question,html.Page,7_0_0_0_5_1_0,NA,NA,form submission,7528.5600000001,969108,969102.78,969119.44,976648,976648,2023-10-20T08:38:20Z,976652.02,NULL,Symbol,kielezo,s,kinyume,nderemo,utayari,kielezo,NA,NA,0,NA,NA,NA,NA,NA,NA,NA,NA,NA,NA,NA,NA,NA,NA,NA,NA,NA,NA,NA
80413,"""Richtig""-Screen",canvas.Screen,7_0_0_0_5_1_1,NA,NA,timeout,4999.24,976650,976646.5,976652.02,981634.6,981636,2023-10-20T08:38:25Z,981651.26,NULL,Symbol,kielezo,s,kinyume,nderemo,utayari,NA,sdf,1,0,NA,NA,NA,NA,NA,NA,NA,NA,NA,NA,NA,NA,NA,NA,NA,NA,NA,NA,NA
80413,"""Falsch""-Screen",canvas.Screen,7_0_0_0_5_1_2,NA,NA,skipped,NA,981642,NA,NA,981634.6,981642,2023-10-20T08:38:25Z,981651.26,NULL,Symbol,kielezo,s,kinyume,nderemo,utayari,NA,sdf,NA,0,NA,NA,NA,NA,NA,NA,NA,NA,NA,NA,NA,NA,NA,NA,NA,NA,NA,NA,NA
80413,shallow,flow.Sequence,7_0_0_0_5_1,NA,NA,completion,12515.16,969108,969102.78,969119.44,981634.6,981643,2023-10-20T08:38:25Z,981651.26,NULL,Symbol,kielezo,s,kinyume,nderemo,utayari,NA,sdf,NA,0,NA,NA,NA,NA,NA,NA,NA,NA,NA,NA,NA,NA,NA,NA,NA,NA,NA,NA,NA
80413,task,flow.Sequence,7_0_0_0_5,NA,NA,completion,12515.16,969107,969102.78,969119.44,981634.6,981644,2023-10-20T08:38:25Z,981651.26,NULL,Symbol,kielezo,s,kinyume,nderemo,utayari,NA,sdf,NA,0,NA,NA,NA,NA,NA,NA,NA,NA,NA,NA,NA,NA,NA,NA,NA,NA,NA,NA,NA
80413,Deep Question,html.Page,7_0_0_0_6_0_0,NA,NA,form submission,6853.74,981644,981634.6,981651.26,988505,988506,2023-10-20T08:38:32Z,988504.52,NULL,Konkurrent,mshindani,d,NA,NA,NA,ht,NA,NA,0,NA,NA,NA,NA,NA,NA,NA,NA,NA,NA,NA,NA,NA,NA,NA,NA,NA,NA,NA
80413,"""Richtig""-Screen",canvas.Screen,7_0_0_0_6_0_1,NA,NA,skipped,NA,988508,NA,NA,988505,988508,2023-10-20T08:38:32Z,988504.52,NULL,Konkurrent,mshindani,d,NA,NA,NA,NA,sdf,NA,0,NA,NA,NA,NA,NA,NA,NA,NA,NA,NA,NA,NA,NA,NA,NA,NA,NA,NA,NA
80413,"""Falsch""-Screen",canvas.Screen,7_0_0_0_6_0_2,NA,NA,timeout,4995.22,988511,988504.1,988504.52,993483.08,993485,2023-10-20T08:38:37Z,993499.74,NULL,Konkurrent,mshindani,d,NA,NA,NA,NA,sdf,0,0,NA,NA,NA,NA,NA,NA,NA,NA,NA,NA,NA,NA,NA,NA,NA,NA,NA,NA,NA
80413,deep,flow.Sequence,7_0_0_0_6_0,NA,NA,completion,11831.82,981644,981634.6,981651.26,993483.08,993485,2023-10-20T08:38:37Z,993499.74,NULL,Konkurrent,mshindani,d,NA,NA,NA,NA,sdf,NA,0,NA,NA,NA,NA,NA,NA,NA,NA,NA,NA,NA,NA,NA,NA,NA,NA,NA,NA,NA
80413,shallow,flow.Sequence,7_0_0_0_6_1,NA,NA,skipped,NA,993485,NA,NA,993483.08,993485,2023-10-20T08:38:37Z,993499.74,NULL,Konkurrent,mshindani,d,NA,NA,NA,NA,sdf,NA,0,NA,NA,NA,NA,NA,NA,NA,NA,NA,NA,NA,NA,NA,NA,NA,NA,NA,NA,NA
80413,task,flow.Sequence,7_0_0_0_6,NA,NA,completion,11831.82,981644,981634.6,981651.26,993483.08,993486,2023-10-20T08:38:37Z,993499.74,NULL,Konkurrent,mshindani,d,NA,NA,NA,NA,sdf,NA,0,NA,NA,NA,NA,NA,NA,NA,NA,NA,NA,NA,NA,NA,NA,NA,NA,NA,NA,NA
80413,Deep Question,html.Page,7_0_0_0_7_0_0,NA,NA,form submission,6632.26,993486,993483.08,993499.74,1000132,1000132,2023-10-20T08:38:44Z,1000132.28,NULL,Vorsorge,tahadhari,d,NA,NA,NA,zr,NA,NA,0,NA,NA,NA,NA,NA,NA,NA,NA,NA,NA,NA,NA,NA,NA,NA,NA,NA,NA,NA
