observation,sender,sender_type,sender_id,response,response_action,ended_on,duration,time_run,time_render,time_show,time_end,time_commit,timestamp,time_switch,german,swahili,enc,distractor1,distractor2,distractor3,response_2,x,correct,distractors,url_vp,url_sess,meta_labjs_version,meta_location,meta_user_agent,meta_platform,meta_language,meta_locale,meta_time_zone,meta_timezone_offset,meta_screen_width,meta_screen_height,meta_scroll_width,meta_scroll_height,meta_window_inner_width,meta_window_inner_height,meta_device_pixel_ratio,meta_labjs_build_flavor,meta_labjs_build_commit
2c423,Introduction delayed retrieval,canvas.Screen,0,weiter,keypress(Space),response,13066,381,383,408,13449,13461,2023-08-22T18:12:21Z,13490,NA,NA,NA,NA,NA,NA,NA,NA,NA,NULL,176,4,20.2.4,https://neurocog.fernuni.ch/studies/vweber/sliechti/delayed/index.html?vp=176&sess=4,"Mozilla/5.0 (Macintosh; Intel Mac OS X 10_15_7) AppleWebKit/605.1.15 (KHTML, like Gecko) Version/16.6 Safari/605.1.15",MacIntel,de-DE,de-DE,Europe/Zurich,-120,1440,900,1424,66,1440,797,2,production,f5b4a49f956347addd546a832a3327688c2c0fef
2c423,Deep Question,html.Page,1_0_0_0,NA,NA,form submission,14571,13461,13482,13490,28061,28061,2023-08-22T18:12:36Z,28091,Vorsorge,tahadhari,s,ufafanuzi,makini,mashambani,uluweza,NA,NA,NULL,NA,NA,NA,NA,NA,NA,NA,NA,NA,NA,NA,NA,NA,NA,NA,NA,NA,NA,NA
2c423,Save data screen,canvas.Screen,1_0_0_1,NA,NA,timeout,500,28061,28074,28091,28574,28575,2023-08-22T18:12:36Z,28591,Vorsorge,tahadhari,s,ufafanuzi,makini,mashambani,NA,NA,0,NULL,NA,NA,NA,NA,NA,NA,NA,NA,NA,NA,NA,NA,NA,NA,NA,NA,NA,NA,NA
2c423,deep,flow.Sequence,1_0_0,NA,NA,completion,15084,13461,13482,13490,28574,28575,2023-08-22T18:12:36Z,28591,Vorsorge,tahadhari,s,ufafanuzi,makini,mashambani,NA,NA,NA,NULL,NA,NA,NA,NA,NA,NA,NA,NA,NA,NA,NA,NA,NA,NA,NA,NA,NA,NA,NA
2c423,task,flow.Sequence,1_0,NA,NA,completion,15084,13461,13482,13490,28574,28575,2023-08-22T18:12:36Z,28591,Vorsorge,tahadhari,s,ufafanuzi,makini,mashambani,NA,NA,NA,NULL,NA,NA,NA,NA,NA,NA,NA,NA,NA,NA,NA,NA,NA,NA,NA,NA,NA,NA,NA
2c423,Deep Question,html.Page,1_1_0_0,NA,NA,form submission,7389,28575,28574,28591,35980,35980,2023-08-22T18:12:44Z,36008,Beweis,ushahidi,s,marudio,kizuizi,mtendaji,kutami,NA,NA,NULL,NA,NA,NA,NA,NA,NA,NA,NA,NA,NA,NA,NA,NA,NA,NA,NA,NA,NA,NA
2c423,Save data screen,canvas.Screen,1_1_0_1,NA,NA,timeout,500,35981,35991,36008,36491,36495,2023-08-22T18:12:44Z,36508,Beweis,ushahidi,s,marudio,kizuizi,mtendaji,NA,NA,0,NULL,NA,NA,NA,NA,NA,NA,NA,NA,NA,NA,NA,NA,NA,NA,NA,NA,NA,NA,NA
2c423,deep,flow.Sequence,1_1_0,NA,NA,completion,7900,28575,28574,28591,36491,36496,2023-08-22T18:12:44Z,36508,Beweis,ushahidi,s,marudio,kizuizi,mtendaji,NA,NA,NA,NULL,NA,NA,NA,NA,NA,NA,NA,NA,NA,NA,NA,NA,NA,NA,NA,NA,NA,NA,NA
2c423,task,flow.Sequence,1_1,NA,NA,completion,7900,28575,28574,28591,36491,36496,2023-08-22T18:12:44Z,36508,Beweis,ushahidi,s,marudio,kizuizi,mtendaji,NA,NA,NA,NULL,NA,NA,NA,NA,NA,NA,NA,NA,NA,NA,NA,NA,NA,NA,NA,NA,NA,NA,NA
2c423,Deep Question,html.Page,1_2_0_0,NA,NA,form submission,10557,36496,36491,36508,47065,47066,2023-08-22T18:12:55Z,47092,Ausschluss,kutengwa,s,ununuzi,taratibu,madeni,kumuiliana,NA,NA,NULL,NA,NA,NA,NA,NA,NA,NA,NA,NA,NA,NA,NA,NA,NA,NA,NA,NA,NA,NA
2c423,Save data screen,canvas.Screen,1_2_0_1,NA,NA,timeout,500,47067,47075,47092,47575,47576,2023-08-22T18:12:55Z,47592,Ausschluss,kutengwa,s,ununuzi,taratibu,madeni,NA,NA,0,NULL,NA,NA,NA,NA,NA,NA,NA,NA,NA,NA,NA,NA,NA,NA,NA,NA,NA,NA,NA
2c423,deep,flow.Sequence,1_2_0,NA,NA,completion,11067,36496,36491,36508,47575,47577,2023-08-22T18:12:55Z,47592,Ausschluss,kutengwa,s,ununuzi,taratibu,madeni,NA,NA,NA,NULL,NA,NA,NA,NA,NA,NA,NA,NA,NA,NA,NA,NA,NA,NA,NA,NA,NA,NA,NA
2c423,task,flow.Sequence,1_2,NA,NA,completion,11067,36496,36491,36508,47575,47577,2023-08-22T18:12:55Z,47592,Ausschluss,kutengwa,s,ununuzi,taratibu,madeni,NA,NA,NA,NULL,NA,NA,NA,NA,NA,NA,NA,NA,NA,NA,NA,NA,NA,NA,NA,NA,NA,NA,NA
2c423,Deep Question,html.Page,1_3_0_0,NA,NA,form submission,4145,47577,47575,47592,51737,51737,2023-08-22T18:12:59Z,51759,Polizist,msongora,s,simanzi,mandhari,nidhamu,kumuiliana,NA,NA,NULL,NA,NA,NA,NA,NA,NA,NA,NA,NA,NA,NA,NA,NA,NA,NA,NA,NA,NA,NA
2c423,Save data screen,canvas.Screen,1_3_0_1,NA,NA,timeout,500,51738,51742,51759,52242,52243,2023-08-22T18:13:00Z,52259,Polizist,msongora,s,simanzi,mandhari,nidhamu,NA,NA,0,NULL,NA,NA,NA,NA,NA,NA,NA,NA,NA,NA,NA,NA,NA,NA,NA,NA,NA,NA,NA
2c423,deep,flow.Sequence,1_3_0,NA,NA,completion,4650,47577,47575,47592,52242,52243,2023-08-22T18:13:00Z,52259,Polizist,msongora,s,simanzi,mandhari,nidhamu,NA,NA,NA,NULL,NA,NA,NA,NA,NA,NA,NA,NA,NA,NA,NA,NA,NA,NA,NA,NA,NA,NA,NA
2c423,task,flow.Sequence,1_3,NA,NA,completion,4650,47577,47575,47592,52242,52244,2023-08-22T18:13:00Z,52259,Polizist,msongora,s,simanzi,mandhari,nidhamu,NA,NA,NA,NULL,NA,NA,NA,NA,NA,NA,NA,NA,NA,NA,NA,NA,NA,NA,NA,NA,NA,NA,NA
2c423,Deep Question,html.Page,1_4_0_0,NA,NA,form submission,3162,52244,52242,52259,55421,55422,2023-08-22T18:13:03Z,55442,Auftrag,uagizaji,s,ghanima,kuzingatia,msukani,kumuiliana,NA,NA,NULL,NA,NA,NA,NA,NA,NA,NA,NA,NA,NA,NA,NA,NA,NA,NA,NA,NA,NA,NA
2c423,Save data screen,canvas.Screen,1_4_0_1,NA,NA,timeout,500,55422,55425,55442,55926,55927,2023-08-22T18:13:04Z,55942,Auftrag,uagizaji,s,ghanima,kuzingatia,msukani,NA,NA,0,NULL,NA,NA,NA,NA,NA,NA,NA,NA,NA,NA,NA,NA,NA,NA,NA,NA,NA,NA,NA
2c423,deep,flow.Sequence,1_4_0,NA,NA,completion,3667,52244,52242,52259,55926,55928,2023-08-22T18:13:04Z,55942,Auftrag,uagizaji,s,ghanima,kuzingatia,msukani,NA,NA,NA,NULL,NA,NA,NA,NA,NA,NA,NA,NA,NA,NA,NA,NA,NA,NA,NA,NA,NA,NA,NA
2c423,task,flow.Sequence,1_4,NA,NA,completion,3667,52244,52242,52259,55926,55928,2023-08-22T18:13:04Z,55942,Auftrag,uagizaji,s,ghanima,kuzingatia,msukani,NA,NA,NA,NULL,NA,NA,NA,NA,NA,NA,NA,NA,NA,NA,NA,NA,NA,NA,NA,NA,NA,NA,NA
2c423,Deep Question,html.Page,1_5_0_0,NA,NA,form submission,3872,55929,55926,55942,59814,59814,2023-08-22T18:13:08Z,59842,Annäherung,maegesho,d,madahili,kujiamini,mapendekezo,kumuiliana,NA,NA,NULL,NA,NA,NA,NA,NA,NA,NA,NA,NA,NA,NA,NA,NA,NA,NA,NA,NA,NA,NA
2c423,Save data screen,canvas.Screen,1_5_0_1,NA,NA,timeout,500,59816,59826,59842,60326,60327,2023-08-22T18:13:08Z,60342,Annäherung,maegesho,d,madahili,kujiamini,mapendekezo,NA,NA,0,NULL,NA,NA,NA,NA,NA,NA,NA,NA,NA,NA,NA,NA,NA,NA,NA,NA,NA,NA,NA
2c423,deep,flow.Sequence,1_5_0,NA,NA,completion,4384,55929,55926,55942,60326,60327,2023-08-22T18:13:08Z,60342,Annäherung,maegesho,d,madahili,kujiamini,mapendekezo,NA,NA,NA,NULL,NA,NA,NA,NA,NA,NA,NA,NA,NA,NA,NA,NA,NA,NA,NA,NA,NA,NA,NA
2c423,task,flow.Sequence,1_5,NA,NA,completion,4384,55929,55926,55942,60326,60328,2023-08-22T18:13:08Z,60342,Annäherung,maegesho,d,madahili,kujiamini,mapendekezo,NA,NA,NA,NULL,NA,NA,NA,NA,NA,NA,NA,NA,NA,NA,NA,NA,NA,NA,NA,NA,NA,NA,NA
2c423,Deep Question,html.Page,1_6_0_0,NA,NA,form submission,4784,60328,60326,60342,65126,65126,2023-08-22T18:13:13Z,65159,Zuwachs,nyongeza,d,matilaba,udhibiti,hudhurio,kumuiliana,NA,NA,NULL,NA,NA,NA,NA,NA,NA,NA,NA,NA,NA,NA,NA,NA,NA,NA,NA,NA,NA,NA
2c423,Save data screen,canvas.Screen,1_6_0_1,NA,NA,timeout,500,65127,65142,65159,65643,65644,2023-08-22T18:13:13Z,65659,Zuwachs,nyongeza,d,matilaba,udhibiti,hudhurio,NA,NA,0,NULL,NA,NA,NA,NA,NA,NA,NA,NA,NA,NA,NA,NA,NA,NA,NA,NA,NA,NA,NA
2c423,deep,flow.Sequence,1_6_0,NA,NA,completion,5301,60328,60326,60342,65643,65645,2023-08-22T18:13:13Z,65659,Zuwachs,nyongeza,d,matilaba,udhibiti,hudhurio,NA,NA,NA,NULL,NA,NA,NA,NA,NA,NA,NA,NA,NA,NA,NA,NA,NA,NA,NA,NA,NA,NA,NA
2c423,task,flow.Sequence,1_6,NA,NA,completion,5301,60328,60326,60342,65643,65645,2023-08-22T18:13:13Z,65659,Zuwachs,nyongeza,d,matilaba,udhibiti,hudhurio,NA,NA,NA,NULL,NA,NA,NA,NA,NA,NA,NA,NA,NA,NA,NA,NA,NA,NA,NA,NA,NA,NA,NA
2c423,Deep Question,html.Page,1_7_0_0,NA,NA,form submission,4655,65646,65643,65659,70314,70314,2023-08-22T18:13:18Z,70342,Wettbewerb,ushindani,s,mapendezi,kichocheo,ubaguzi,kumuiliana,NA,NA,NULL,NA,NA,NA,NA,NA,NA,NA,NA,NA,NA,NA,NA,NA,NA,NA,NA,NA,NA,NA
2c423,Save data screen,canvas.Screen,1_7_0_1,NA,NA,timeout,501,70315,70326,70342,70826,70827,2023-08-22T18:13:19Z,70843,Wettbewerb,ushindani,s,mapendezi,kichocheo,ubaguzi,NA,NA,0,NULL,NA,NA,NA,NA,NA,NA,NA,NA,NA,NA,NA,NA,NA,NA,NA,NA,NA,NA,NA
2c423,deep,flow.Sequence,1_7_0,NA,NA,completion,5167,65646,65643,65659,70826,70828,2023-08-22T18:13:19Z,70843,Wettbewerb,ushindani,s,mapendezi,kichocheo,ubaguzi,NA,NA,NA,NULL,NA,NA,NA,NA,NA,NA,NA,NA,NA,NA,NA,NA,NA,NA,NA,NA,NA,NA,NA
2c423,task,flow.Sequence,1_7,NA,NA,completion,5167,65646,65643,65659,70826,70828,2023-08-22T18:13:19Z,70843,Wettbewerb,ushindani,s,mapendezi,kichocheo,ubaguzi,NA,NA,NA,NULL,NA,NA,NA,NA,NA,NA,NA,NA,NA,NA,NA,NA,NA,NA,NA,NA,NA,NA,NA
2c423,Deep Question,html.Page,1_8_0_0,NA,NA,form submission,27856,70829,70826,70843,98699,98699,2023-08-22T18:13:46Z,98727,Schönheit,kirembo,d,mahojiano,msisimko,jitihadi,uluweza,NA,NA,NULL,NA,NA,NA,NA,NA,NA,NA,NA,NA,NA,NA,NA,NA,NA,NA,NA,NA,NA,NA
2c423,Save data screen,canvas.Screen,1_8_0_1,NA,NA,timeout,500,98700,98710,98727,99210,99212,2023-08-22T18:13:47Z,99227,Schönheit,kirembo,d,mahojiano,msisimko,jitihadi,NA,NA,0,NULL,NA,NA,NA,NA,NA,NA,NA,NA,NA,NA,NA,NA,NA,NA,NA,NA,NA,NA,NA
2c423,deep,flow.Sequence,1_8_0,NA,NA,completion,28367,70829,70826,70843,99210,99213,2023-08-22T18:13:47Z,99227,Schönheit,kirembo,d,mahojiano,msisimko,jitihadi,NA,NA,NA,NULL,NA,NA,NA,NA,NA,NA,NA,NA,NA,NA,NA,NA,NA,NA,NA,NA,NA,NA,NA
2c423,task,flow.Sequence,1_8,NA,NA,completion,28367,70828,70826,70843,99210,99213,2023-08-22T18:13:47Z,99227,Schönheit,kirembo,d,mahojiano,msisimko,jitihadi,NA,NA,NA,NULL,NA,NA,NA,NA,NA,NA,NA,NA,NA,NA,NA,NA,NA,NA,NA,NA,NA,NA,NA
2c423,Deep Question,html.Page,1_9_0_0,NA,NA,form submission,5007,99214,99210,99227,104234,104234,2023-08-22T18:13:52Z,104260,Verstand,ufahamivu,d,shakawa,hadhari,mhandisi,kumuiliana,NA,NA,NULL,NA,NA,NA,NA,NA,NA,NA,NA,NA,NA,NA,NA,NA,NA,NA,NA,NA,NA,NA
2c423,Save data screen,canvas.Screen,1_9_0_1,NA,NA,timeout,501,104235,104244,104260,104744,104745,2023-08-22T18:13:52Z,104761,Verstand,ufahamivu,d,shakawa,hadhari,mhandisi,NA,NA,0,NULL,NA,NA,NA,NA,NA,NA,NA,NA,NA,NA,NA,NA,NA,NA,NA,NA,NA,NA,NA
2c423,deep,flow.Sequence,1_9_0,NA,NA,completion,5517,99214,99210,99227,104744,104746,2023-08-22T18:13:52Z,104761,Verstand,ufahamivu,d,shakawa,hadhari,mhandisi,NA,NA,NA,NULL,NA,NA,NA,NA,NA,NA,NA,NA,NA,NA,NA,NA,NA,NA,NA,NA,NA,NA,NA
2c423,task,flow.Sequence,1_9,NA,NA,completion,5517,99213,99210,99227,104744,104746,2023-08-22T18:13:52Z,104761,Verstand,ufahamivu,d,shakawa,hadhari,mhandisi,NA,NA,NA,NULL,NA,NA,NA,NA,NA,NA,NA,NA,NA,NA,NA,NA,NA,NA,NA,NA,NA,NA,NA
2c423,Deep Question,html.Page,1_10_0_0,NA,NA,form submission,3124,104747,104744,104761,107885,107885,2023-08-22T18:13:56Z,107911,Zufall,kikuti,d,kukosekana,uchoraji,leseni,kumuiliana,NA,NA,NULL,NA,NA,NA,NA,NA,NA,NA,NA,NA,NA,NA,NA,NA,NA,NA,NA,NA,NA,NA
2c423,Save data screen,canvas.Screen,1_10_0_1,NA,NA,timeout,500,107886,107894,107911,108394,108396,2023-08-22T18:13:56Z,108411,Zufall,kikuti,d,kukosekana,uchoraji,leseni,NA,NA,0,NULL,NA,NA,NA,NA,NA,NA,NA,NA,NA,NA,NA,NA,NA,NA,NA,NA,NA,NA,NA
2c423,deep,flow.Sequence,1_10_0,NA,NA,completion,3633,104747,104744,104761,108394,108397,2023-08-22T18:13:56Z,108411,Zufall,kikuti,d,kukosekana,uchoraji,leseni,NA,NA,NA,NULL,NA,NA,NA,NA,NA,NA,NA,NA,NA,NA,NA,NA,NA,NA,NA,NA,NA,NA,NA
2c423,task,flow.Sequence,1_10,NA,NA,completion,3633,104746,104744,104761,108394,108397,2023-08-22T18:13:56Z,108411,Zufall,kikuti,d,kukosekana,uchoraji,leseni,NA,NA,NA,NULL,NA,NA,NA,NA,NA,NA,NA,NA,NA,NA,NA,NA,NA,NA,NA,NA,NA,NA,NA
2c423,Deep Question,html.Page,1_11_0_0,NA,NA,form submission,12595,108398,108394,108411,121006,121006,2023-08-22T18:14:09Z,121028,Konkurrent,mshindani,s,msemaji,mvutaji,kipukusa,mbenzenga,NA,NA,NULL,NA,NA,NA,NA,NA,NA,NA,NA,NA,NA,NA,NA,NA,NA,NA,NA,NA,NA,NA
2c423,Save data screen,canvas.Screen,1_11_0_1,NA,NA,timeout,500,121006,121011,121028,121511,121512,2023-08-22T18:14:09Z,121528,Konkurrent,mshindani,s,msemaji,mvutaji,kipukusa,NA,NA,0,NULL,NA,NA,NA,NA,NA,NA,NA,NA,NA,NA,NA,NA,NA,NA,NA,NA,NA,NA,NA
2c423,deep,flow.Sequence,1_11_0,NA,NA,completion,13100,108398,108394,108411,121511,121513,2023-08-22T18:14:09Z,121528,Konkurrent,mshindani,s,msemaji,mvutaji,kipukusa,NA,NA,NA,NULL,NA,NA,NA,NA,NA,NA,NA,NA,NA,NA,NA,NA,NA,NA,NA,NA,NA,NA,NA
2c423,task,flow.Sequence,1_11,NA,NA,completion,13100,108397,108394,108411,121511,121513,2023-08-22T18:14:09Z,121528,Konkurrent,mshindani,s,msemaji,mvutaji,kipukusa,NA,NA,NA,NULL,NA,NA,NA,NA,NA,NA,NA,NA,NA,NA,NA,NA,NA,NA,NA,NA,NA,NA,NA
2c423,Deep Question,html.Page,1_12_0_0,NA,NA,form submission,11209,121514,121511,121528,132737,132737,2023-08-22T18:14:20Z,132762,Widerstand,usulubu,d,kusababisha,mwalimu,mwenendo,mbetuko,NA,NA,NULL,NA,NA,NA,NA,NA,NA,NA,NA,NA,NA,NA,NA,NA,NA,NA,NA,NA,NA,NA
2c423,Save data screen,canvas.Screen,1_12_0_1,NA,NA,timeout,500,132738,132745,132762,133245,133247,2023-08-22T18:14:21Z,133262,Widerstand,usulubu,d,kusababisha,mwalimu,mwenendo,NA,NA,0,NULL,NA,NA,NA,NA,NA,NA,NA,NA,NA,NA,NA,NA,NA,NA,NA,NA,NA,NA,NA
2c423,deep,flow.Sequence,1_12_0,NA,NA,completion,11717,121514,121511,121528,133245,133248,2023-08-22T18:14:21Z,133262,Widerstand,usulubu,d,kusababisha,mwalimu,mwenendo,NA,NA,NA,NULL,NA,NA,NA,NA,NA,NA,NA,NA,NA,NA,NA,NA,NA,NA,NA,NA,NA,NA,NA
2c423,task,flow.Sequence,1_12,NA,NA,completion,11717,121513,121511,121528,133245,133248,2023-08-22T18:14:21Z,133262,Widerstand,usulubu,d,kusababisha,mwalimu,mwenendo,NA,NA,NA,NULL,NA,NA,NA,NA,NA,NA,NA,NA,NA,NA,NA,NA,NA,NA,NA,NA,NA,NA,NA
2c423,Deep Question,html.Page,1_13_0_0,NA,NA,form submission,3368,133249,133245,133262,136630,136631,2023-08-22T18:14:24Z,136661,Symbol,kielezo,d,kinyume,nderemo,utayari,mbetuku,NA,NA,NULL,NA,NA,NA,NA,NA,NA,NA,NA,NA,NA,NA,NA,NA,NA,NA,NA,NA,NA,NA
2c423,Save data screen,canvas.Screen,1_13_0_1,NA,NA,timeout,501,136632,136645,136661,137145,137146,2023-08-22T18:14:25Z,137162,Symbol,kielezo,d,kinyume,nderemo,utayari,NA,NA,0,NULL,NA,NA,NA,NA,NA,NA,NA,NA,NA,NA,NA,NA,NA,NA,NA,NA,NA,NA,NA
2c423,deep,flow.Sequence,1_13_0,NA,NA,completion,3883,133249,133245,133262,137145,137147,2023-08-22T18:14:25Z,137162,Symbol,kielezo,d,kinyume,nderemo,utayari,NA,NA,NA,NULL,NA,NA,NA,NA,NA,NA,NA,NA,NA,NA,NA,NA,NA,NA,NA,NA,NA,NA,NA
2c423,task,flow.Sequence,1_13,NA,NA,completion,3883,133248,133245,133262,137145,137147,2023-08-22T18:14:25Z,137162,Symbol,kielezo,d,kinyume,nderemo,utayari,NA,NA,NA,NULL,NA,NA,NA,NA,NA,NA,NA,NA,NA,NA,NA,NA,NA,NA,NA,NA,NA,NA,NA
2c423,Deep Question,html.Page,1_14_0_0,NA,NA,form submission,8695,137148,137145,137162,145857,145857,2023-08-22T18:14:34Z,145879,Gelegenheit,wakati,s,mchanganyiko,kipaumbele,kushuku,kumuiliana,NA,NA,NULL,NA,NA,NA,NA,NA,NA,NA,NA,NA,NA,NA,NA,NA,NA,NA,NA,NA,NA,NA
2c423,Save data screen,canvas.Screen,1_14_0_1,NA,NA,timeout,500,145858,145862,145879,146362,146363,2023-08-22T18:14:34Z,146379,Gelegenheit,wakati,s,mchanganyiko,kipaumbele,kushuku,NA,NA,0,NULL,NA,NA,NA,NA,NA,NA,NA,NA,NA,NA,NA,NA,NA,NA,NA,NA,NA,NA,NA
2c423,deep,flow.Sequence,1_14_0,NA,NA,completion,9200,137147,137145,137162,146362,146365,2023-08-22T18:14:34Z,146379,Gelegenheit,wakati,s,mchanganyiko,kipaumbele,kushuku,NA,NA,NA,NULL,NA,NA,NA,NA,NA,NA,NA,NA,NA,NA,NA,NA,NA,NA,NA,NA,NA,NA,NA
2c423,task,flow.Sequence,1_14,NA,NA,completion,9200,137147,137145,137162,146362,146365,2023-08-22T18:14:34Z,146379,Gelegenheit,wakati,s,mchanganyiko,kipaumbele,kushuku,NA,NA,NA,NULL,NA,NA,NA,NA,NA,NA,NA,NA,NA,NA,NA,NA,NA,NA,NA,NA,NA,NA,NA
2c423,Deep Question,html.Page,1_15_0_0,NA,NA,form submission,2952,146366,146362,146379,149331,149332,2023-08-22T18:14:37Z,149362,Sympathie,mapendano,d,dhamiria,fungamano,maazimio,kumuiliana,NA,NA,NULL,NA,NA,NA,NA,NA,NA,NA,NA,NA,NA,NA,NA,NA,NA,NA,NA,NA,NA,NA
2c423,Save data screen,canvas.Screen,1_15_0_1,NA,NA,timeout,528,149333,149346,149362,149846,149847,2023-08-22T18:14:38Z,149890,Sympathie,mapendano,d,dhamiria,fungamano,maazimio,NA,NA,0,NULL,NA,NA,NA,NA,NA,NA,NA,NA,NA,NA,NA,NA,NA,NA,NA,NA,NA,NA,NA
2c423,deep,flow.Sequence,1_15_0,NA,NA,completion,3467,146366,146362,146379,149846,149847,2023-08-22T18:14:38Z,149890,Sympathie,mapendano,d,dhamiria,fungamano,maazimio,NA,NA,NA,NULL,NA,NA,NA,NA,NA,NA,NA,NA,NA,NA,NA,NA,NA,NA,NA,NA,NA,NA,NA
2c423,task,flow.Sequence,1_15,NA,NA,completion,3467,146365,146362,146379,149846,149847,2023-08-22T18:14:38Z,149890,Sympathie,mapendano,d,dhamiria,fungamano,maazimio,NA,NA,NA,NULL,NA,NA,NA,NA,NA,NA,NA,NA,NA,NA,NA,NA,NA,NA,NA,NA,NA,NA,NA
2c423,retrieval block 1 (cued recall),flow.Loop,1,NA,NA,completion,136356,13461,13482,13490,149846,149848,2023-08-22T18:14:38Z,149890,NA,NA,NA,NA,NA,NA,NA,NA,NA,NULL,NA,NA,NA,NA,NA,NA,NA,NA,NA,NA,NA,NA,NA,NA,NA,NA,NA,NA,NA
2c423,Shallow Question,html.Page,2_0_0_0,NA,NA,form submission,8160,149849,149846,149890,158050,158050,2023-08-22T18:14:46Z,158079,Polizist,msongora,s,simanzi,mandhari,nidhamu,mandhari,NA,NA,"c(""distractor1"", ""distractor2"", ""distractor3"")",NA,NA,NA,NA,NA,NA,NA,NA,NA,NA,NA,NA,NA,NA,NA,NA,NA,NA,NA
2c423,Save data screen,canvas.Screen,2_0_0_1,NA,NA,timeout,500,158051,158063,158079,158563,158564,2023-08-22T18:14:46Z,158579,Polizist,msongora,s,simanzi,mandhari,nidhamu,NA,NA,0,"c(""distractor1"", ""distractor2"", ""distractor3"")",NA,NA,NA,NA,NA,NA,NA,NA,NA,NA,NA,NA,NA,NA,NA,NA,NA,NA,NA
2c423,shallow,flow.Sequence,2_0_0,NA,NA,completion,8673,149849,149846,149890,158563,158565,2023-08-22T18:14:46Z,158579,Polizist,msongora,s,simanzi,mandhari,nidhamu,NA,NA,NA,"c(""distractor1"", ""distractor2"", ""distractor3"")",NA,NA,NA,NA,NA,NA,NA,NA,NA,NA,NA,NA,NA,NA,NA,NA,NA,NA,NA
2c423,task,flow.Sequence,2_0,NA,NA,completion,8673,149849,149846,149890,158563,158565,2023-08-22T18:14:46Z,158579,Polizist,msongora,s,simanzi,mandhari,nidhamu,NA,NA,NA,"c(""distractor1"", ""distractor2"", ""distractor3"")",NA,NA,NA,NA,NA,NA,NA,NA,NA,NA,NA,NA,NA,NA,NA,NA,NA,NA,NA
2c423,Shallow Question,html.Page,2_1_0_0,NA,NA,form submission,11157,158566,158563,158579,169736,169737,2023-08-22T18:14:57Z,169763,Symbol,kielezo,d,kinyume,nderemo,utayari,kielezo,NA,NA,"c(""distractor1"", ""distractor2"", ""distractor3"")",NA,NA,NA,NA,NA,NA,NA,NA,NA,NA,NA,NA,NA,NA,NA,NA,NA,NA,NA
2c423,Save data screen,canvas.Screen,2_1_0_1,NA,NA,timeout,500,169739,169746,169763,170246,170247,2023-08-22T18:14:58Z,170263,Symbol,kielezo,d,kinyume,nderemo,utayari,NA,NA,1,"c(""distractor1"", ""distractor2"", ""distractor3"")",NA,NA,NA,NA,NA,NA,NA,NA,NA,NA,NA,NA,NA,NA,NA,NA,NA,NA,NA
2c423,shallow,flow.Sequence,2_1_0,NA,NA,completion,11667,158566,158563,158579,170246,170248,2023-08-22T18:14:58Z,170263,Symbol,kielezo,d,kinyume,nderemo,utayari,NA,NA,NA,"c(""distractor1"", ""distractor2"", ""distractor3"")",NA,NA,NA,NA,NA,NA,NA,NA,NA,NA,NA,NA,NA,NA,NA,NA,NA,NA,NA
2c423,task,flow.Sequence,2_1,NA,NA,completion,11667,158566,158563,158579,170246,170248,2023-08-22T18:14:58Z,170263,Symbol,kielezo,d,kinyume,nderemo,utayari,NA,NA,NA,"c(""distractor1"", ""distractor2"", ""distractor3"")",NA,NA,NA,NA,NA,NA,NA,NA,NA,NA,NA,NA,NA,NA,NA,NA,NA,NA,NA
2c423,Shallow Question,html.Page,2_2_0_0,NA,NA,form submission,5924,170249,170246,170263,176187,176188,2023-08-22T18:15:04Z,176213,Verstand,ufahamivu,d,shakawa,hadhari,mhandisi,ufahamivu,NA,NA,"c(""distractor1"", ""distractor2"", ""distractor3"")",NA,NA,NA,NA,NA,NA,NA,NA,NA,NA,NA,NA,NA,NA,NA,NA,NA,NA,NA
2c423,Save data screen,canvas.Screen,2_2_0_1,NA,NA,timeout,500,176189,176196,176213,176697,176698,2023-08-22T18:15:04Z,176713,Verstand,ufahamivu,d,shakawa,hadhari,mhandisi,NA,NA,1,"c(""distractor1"", ""distractor2"", ""distractor3"")",NA,NA,NA,NA,NA,NA,NA,NA,NA,NA,NA,NA,NA,NA,NA,NA,NA,NA,NA
2c423,shallow,flow.Sequence,2_2_0,NA,NA,completion,6434,170249,170246,170263,176697,176698,2023-08-22T18:15:04Z,176713,Verstand,ufahamivu,d,shakawa,hadhari,mhandisi,NA,NA,NA,"c(""distractor1"", ""distractor2"", ""distractor3"")",NA,NA,NA,NA,NA,NA,NA,NA,NA,NA,NA,NA,NA,NA,NA,NA,NA,NA,NA
2c423,task,flow.Sequence,2_2,NA,NA,completion,6434,170249,170246,170263,176697,176699,2023-08-22T18:15:04Z,176713,Verstand,ufahamivu,d,shakawa,hadhari,mhandisi,NA,NA,NA,"c(""distractor1"", ""distractor2"", ""distractor3"")",NA,NA,NA,NA,NA,NA,NA,NA,NA,NA,NA,NA,NA,NA,NA,NA,NA,NA,NA
2c423,Shallow Question,html.Page,2_3_0_0,NA,NA,form submission,3590,176699,176697,176713,180303,180304,2023-08-22T18:15:08Z,180330,Zuwachs,nyongeza,d,matilaba,udhibiti,hudhurio,nyongeza,NA,NA,"c(""distractor1"", ""distractor2"", ""distractor3"")",NA,NA,NA,NA,NA,NA,NA,NA,NA,NA,NA,NA,NA,NA,NA,NA,NA,NA,NA
2c423,Save data screen,canvas.Screen,2_3_0_1,NA,NA,timeout,500,180305,180313,180330,180814,180814,2023-08-22T18:15:09Z,180830,Zuwachs,nyongeza,d,matilaba,udhibiti,hudhurio,NA,NA,1,"c(""distractor1"", ""distractor2"", ""distractor3"")",NA,NA,NA,NA,NA,NA,NA,NA,NA,NA,NA,NA,NA,NA,NA,NA,NA,NA,NA
2c423,shallow,flow.Sequence,2_3_0,NA,NA,completion,4101,176699,176697,176713,180814,180815,2023-08-22T18:15:09Z,180830,Zuwachs,nyongeza,d,matilaba,udhibiti,hudhurio,NA,NA,NA,"c(""distractor1"", ""distractor2"", ""distractor3"")",NA,NA,NA,NA,NA,NA,NA,NA,NA,NA,NA,NA,NA,NA,NA,NA,NA,NA,NA
2c423,task,flow.Sequence,2_3,NA,NA,completion,4101,176699,176697,176713,180814,180815,2023-08-22T18:15:09Z,180830,Zuwachs,nyongeza,d,matilaba,udhibiti,hudhurio,NA,NA,NA,"c(""distractor1"", ""distractor2"", ""distractor3"")",NA,NA,NA,NA,NA,NA,NA,NA,NA,NA,NA,NA,NA,NA,NA,NA,NA,NA,NA
2c423,Shallow Question,html.Page,2_4_0_0,NA,NA,form submission,8475,180816,180814,180830,189305,189306,2023-08-22T18:15:17Z,189330,Zufall,kikuti,d,kukosekana,uchoraji,leseni,kikuti,NA,NA,"c(""distractor1"", ""distractor2"", ""distractor3"")",NA,NA,NA,NA,NA,NA,NA,NA,NA,NA,NA,NA,NA,NA,NA,NA,NA,NA,NA
2c423,Save data screen,canvas.Screen,2_4_0_1,NA,NA,timeout,500,189307,189314,189330,189814,189815,2023-08-22T18:15:18Z,189830,Zufall,kikuti,d,kukosekana,uchoraji,leseni,NA,NA,1,"c(""distractor1"", ""distractor2"", ""distractor3"")",NA,NA,NA,NA,NA,NA,NA,NA,NA,NA,NA,NA,NA,NA,NA,NA,NA,NA,NA
2c423,shallow,flow.Sequence,2_4_0,NA,NA,completion,8984,180815,180814,180830,189814,189816,2023-08-22T18:15:18Z,189830,Zufall,kikuti,d,kukosekana,uchoraji,leseni,NA,NA,NA,"c(""distractor1"", ""distractor2"", ""distractor3"")",NA,NA,NA,NA,NA,NA,NA,NA,NA,NA,NA,NA,NA,NA,NA,NA,NA,NA,NA
2c423,task,flow.Sequence,2_4,NA,NA,completion,8984,180815,180814,180830,189814,189816,2023-08-22T18:15:18Z,189830,Zufall,kikuti,d,kukosekana,uchoraji,leseni,NA,NA,NA,"c(""distractor1"", ""distractor2"", ""distractor3"")",NA,NA,NA,NA,NA,NA,NA,NA,NA,NA,NA,NA,NA,NA,NA,NA,NA,NA,NA
2c423,Shallow Question,html.Page,2_5_0_0,NA,NA,form submission,4542,189817,189814,189830,194372,194373,2023-08-22T18:15:22Z,194397,Gelegenheit,wakati,s,mchanganyiko,kipaumbele,kushuku,mchanganyiko,NA,NA,"c(""distractor1"", ""distractor2"", ""distractor3"")",NA,NA,NA,NA,NA,NA,NA,NA,NA,NA,NA,NA,NA,NA,NA,NA,NA,NA,NA
2c423,Save data screen,canvas.Screen,2_5_0_1,NA,NA,timeout,500,194373,194381,194397,194881,194882,2023-08-22T18:15:23Z,194897,Gelegenheit,wakati,s,mchanganyiko,kipaumbele,kushuku,NA,NA,0,"c(""distractor1"", ""distractor2"", ""distractor3"")",NA,NA,NA,NA,NA,NA,NA,NA,NA,NA,NA,NA,NA,NA,NA,NA,NA,NA,NA
2c423,shallow,flow.Sequence,2_5_0,NA,NA,completion,5051,189817,189814,189830,194881,194882,2023-08-22T18:15:23Z,194897,Gelegenheit,wakati,s,mchanganyiko,kipaumbele,kushuku,NA,NA,NA,"c(""distractor1"", ""distractor2"", ""distractor3"")",NA,NA,NA,NA,NA,NA,NA,NA,NA,NA,NA,NA,NA,NA,NA,NA,NA,NA,NA
2c423,task,flow.Sequence,2_5,NA,NA,completion,5051,189817,189814,189830,194881,194882,2023-08-22T18:15:23Z,194897,Gelegenheit,wakati,s,mchanganyiko,kipaumbele,kushuku,NA,NA,NA,"c(""distractor1"", ""distractor2"", ""distractor3"")",NA,NA,NA,NA,NA,NA,NA,NA,NA,NA,NA,NA,NA,NA,NA,NA,NA,NA,NA
2c423,Shallow Question,html.Page,2_6_0_0,NA,NA,form submission,4607,194883,194881,194897,199504,199505,2023-08-22T18:15:27Z,199530,Schönheit,kirembo,d,mahojiano,msisimko,jitihadi,kirembo,NA,NA,"c(""distractor1"", ""distractor2"", ""distractor3"")",NA,NA,NA,NA,NA,NA,NA,NA,NA,NA,NA,NA,NA,NA,NA,NA,NA,NA,NA
2c423,Save data screen,canvas.Screen,2_6_0_1,NA,NA,timeout,501,199506,199514,199530,200014,200016,2023-08-22T18:15:28Z,200031,Schönheit,kirembo,d,mahojiano,msisimko,jitihadi,NA,NA,1,"c(""distractor1"", ""distractor2"", ""distractor3"")",NA,NA,NA,NA,NA,NA,NA,NA,NA,NA,NA,NA,NA,NA,NA,NA,NA,NA,NA
2c423,shallow,flow.Sequence,2_6_0,NA,NA,completion,5117,194883,194881,194897,200014,200017,2023-08-22T18:15:28Z,200031,Schönheit,kirembo,d,mahojiano,msisimko,jitihadi,NA,NA,NA,"c(""distractor1"", ""distractor2"", ""distractor3"")",NA,NA,NA,NA,NA,NA,NA,NA,NA,NA,NA,NA,NA,NA,NA,NA,NA,NA,NA
2c423,task,flow.Sequence,2_6,NA,NA,completion,5117,194883,194881,194897,200014,200017,2023-08-22T18:15:28Z,200031,Schönheit,kirembo,d,mahojiano,msisimko,jitihadi,NA,NA,NA,"c(""distractor1"", ""distractor2"", ""distractor3"")",NA,NA,NA,NA,NA,NA,NA,NA,NA,NA,NA,NA,NA,NA,NA,NA,NA,NA,NA
2c423,Shallow Question,html.Page,2_7_0_0,NA,NA,form submission,6125,200018,200014,200031,206156,206156,2023-08-22T18:15:34Z,206181,Vorsorge,tahadhari,s,ufafanuzi,makini,mashambani,tahadhari,NA,NA,"c(""distractor1"", ""distractor2"", ""distractor3"")",NA,NA,NA,NA,NA,NA,NA,NA,NA,NA,NA,NA,NA,NA,NA,NA,NA,NA,NA
2c423,Save data screen,canvas.Screen,2_7_0_1,NA,NA,timeout,500,206157,206164,206181,206664,206666,2023-08-22T18:15:34Z,206681,Vorsorge,tahadhari,s,ufafanuzi,makini,mashambani,NA,NA,1,"c(""distractor1"", ""distractor2"", ""distractor3"")",NA,NA,NA,NA,NA,NA,NA,NA,NA,NA,NA,NA,NA,NA,NA,NA,NA,NA,NA
2c423,shallow,flow.Sequence,2_7_0,NA,NA,completion,6633,200018,200014,200031,206664,206666,2023-08-22T18:15:34Z,206681,Vorsorge,tahadhari,s,ufafanuzi,makini,mashambani,NA,NA,NA,"c(""distractor1"", ""distractor2"", ""distractor3"")",NA,NA,NA,NA,NA,NA,NA,NA,NA,NA,NA,NA,NA,NA,NA,NA,NA,NA,NA
2c423,task,flow.Sequence,2_7,NA,NA,completion,6633,200018,200014,200031,206664,206666,2023-08-22T18:15:34Z,206681,Vorsorge,tahadhari,s,ufafanuzi,makini,mashambani,NA,NA,NA,"c(""distractor1"", ""distractor2"", ""distractor3"")",NA,NA,NA,NA,NA,NA,NA,NA,NA,NA,NA,NA,NA,NA,NA,NA,NA,NA,NA
2c423,Shallow Question,html.Page,2_8_0_0,NA,NA,form submission,4108,206667,206664,206681,210789,210790,2023-08-22T18:15:38Z,210815,Sympathie,mapendano,d,dhamiria,fungamano,maazimio,dhamiria,NA,NA,"c(""distractor1"", ""distractor2"", ""distractor3"")",NA,NA,NA,NA,NA,NA,NA,NA,NA,NA,NA,NA,NA,NA,NA,NA,NA,NA,NA
2c423,Save data screen,canvas.Screen,2_8_0_1,NA,NA,timeout,500,210791,210798,210815,211298,211299,2023-08-22T18:15:39Z,211315,Sympathie,mapendano,d,dhamiria,fungamano,maazimio,NA,NA,0,"c(""distractor1"", ""distractor2"", ""distractor3"")",NA,NA,NA,NA,NA,NA,NA,NA,NA,NA,NA,NA,NA,NA,NA,NA,NA,NA,NA
2c423,shallow,flow.Sequence,2_8_0,NA,NA,completion,4617,206667,206664,206681,211298,211300,2023-08-22T18:15:39Z,211315,Sympathie,mapendano,d,dhamiria,fungamano,maazimio,NA,NA,NA,"c(""distractor1"", ""distractor2"", ""distractor3"")",NA,NA,NA,NA,NA,NA,NA,NA,NA,NA,NA,NA,NA,NA,NA,NA,NA,NA,NA
2c423,task,flow.Sequence,2_8,NA,NA,completion,4617,206667,206664,206681,211298,211300,2023-08-22T18:15:39Z,211315,Sympathie,mapendano,d,dhamiria,fungamano,maazimio,NA,NA,NA,"c(""distractor1"", ""distractor2"", ""distractor3"")",NA,NA,NA,NA,NA,NA,NA,NA,NA,NA,NA,NA,NA,NA,NA,NA,NA,NA,NA
2c423,Shallow Question,html.Page,2_9_0_0,NA,NA,form submission,9642,211301,211298,211315,220957,220957,2023-08-22T18:15:49Z,220982,Ausschluss,kutengwa,s,ununuzi,taratibu,madeni,ununuzi,NA,NA,"c(""distractor1"", ""distractor2"", ""distractor3"")",NA,NA,NA,NA,NA,NA,NA,NA,NA,NA,NA,NA,NA,NA,NA,NA,NA,NA,NA
2c423,Save data screen,canvas.Screen,2_9_0_1,NA,NA,timeout,500,220958,220965,220982,221465,221469,2023-08-22T18:15:49Z,221482,Ausschluss,kutengwa,s,ununuzi,taratibu,madeni,NA,NA,0,"c(""distractor1"", ""distractor2"", ""distractor3"")",NA,NA,NA,NA,NA,NA,NA,NA,NA,NA,NA,NA,NA,NA,NA,NA,NA,NA,NA
2c423,shallow,flow.Sequence,2_9_0,NA,NA,completion,10150,211301,211298,211315,221465,221470,2023-08-22T18:15:49Z,221482,Ausschluss,kutengwa,s,ununuzi,taratibu,madeni,NA,NA,NA,"c(""distractor1"", ""distractor2"", ""distractor3"")",NA,NA,NA,NA,NA,NA,NA,NA,NA,NA,NA,NA,NA,NA,NA,NA,NA,NA,NA
2c423,task,flow.Sequence,2_9,NA,NA,completion,10150,211300,211298,211315,221465,221470,2023-08-22T18:15:49Z,221482,Ausschluss,kutengwa,s,ununuzi,taratibu,madeni,NA,NA,NA,"c(""distractor1"", ""distractor2"", ""distractor3"")",NA,NA,NA,NA,NA,NA,NA,NA,NA,NA,NA,NA,NA,NA,NA,NA,NA,NA,NA
2c423,Shallow Question,html.Page,2_10_0_0,NA,NA,form submission,3689,221470,221465,221482,225171,225172,2023-08-22T18:15:53Z,225198,Konkurrent,mshindani,s,msemaji,mvutaji,kipukusa,mshindani,NA,NA,"c(""distractor1"", ""distractor2"", ""distractor3"")",NA,NA,NA,NA,NA,NA,NA,NA,NA,NA,NA,NA,NA,NA,NA,NA,NA,NA,NA
2c423,Save data screen,canvas.Screen,2_10_0_1,NA,NA,timeout,500,225174,225182,225198,225682,225684,2023-08-22T18:15:53Z,225698,Konkurrent,mshindani,s,msemaji,mvutaji,kipukusa,NA,NA,1,"c(""distractor1"", ""distractor2"", ""distractor3"")",NA,NA,NA,NA,NA,NA,NA,NA,NA,NA,NA,NA,NA,NA,NA,NA,NA,NA,NA
2c423,shallow,flow.Sequence,2_10_0,NA,NA,completion,4200,221470,221465,221482,225682,225684,2023-08-22T18:15:53Z,225698,Konkurrent,mshindani,s,msemaji,mvutaji,kipukusa,NA,NA,NA,"c(""distractor1"", ""distractor2"", ""distractor3"")",NA,NA,NA,NA,NA,NA,NA,NA,NA,NA,NA,NA,NA,NA,NA,NA,NA,NA,NA
2c423,task,flow.Sequence,2_10,NA,NA,completion,4200,221470,221465,221482,225682,225685,2023-08-22T18:15:53Z,225698,Konkurrent,mshindani,s,msemaji,mvutaji,kipukusa,NA,NA,NA,"c(""distractor1"", ""distractor2"", ""distractor3"")",NA,NA,NA,NA,NA,NA,NA,NA,NA,NA,NA,NA,NA,NA,NA,NA,NA,NA,NA
2c423,Shallow Question,html.Page,2_11_0_0,NA,NA,form submission,4223,225686,225682,225698,229921,229921,2023-08-22T18:15:58Z,229949,Auftrag,uagizaji,s,ghanima,kuzingatia,msukani,uagizaji,NA,NA,"c(""distractor1"", ""distractor2"", ""distractor3"")",NA,NA,NA,NA,NA,NA,NA,NA,NA,NA,NA,NA,NA,NA,NA,NA,NA,NA,NA
2c423,Save data screen,canvas.Screen,2_11_0_1,NA,NA,timeout,500,229922,229932,229949,230432,230433,2023-08-22T18:15:58Z,230449,Auftrag,uagizaji,s,ghanima,kuzingatia,msukani,NA,NA,1,"c(""distractor1"", ""distractor2"", ""distractor3"")",NA,NA,NA,NA,NA,NA,NA,NA,NA,NA,NA,NA,NA,NA,NA,NA,NA,NA,NA
2c423,shallow,flow.Sequence,2_11_0,NA,NA,completion,4734,225686,225682,225698,230432,230434,2023-08-22T18:15:58Z,230449,Auftrag,uagizaji,s,ghanima,kuzingatia,msukani,NA,NA,NA,"c(""distractor1"", ""distractor2"", ""distractor3"")",NA,NA,NA,NA,NA,NA,NA,NA,NA,NA,NA,NA,NA,NA,NA,NA,NA,NA,NA
2c423,task,flow.Sequence,2_11,NA,NA,completion,4734,225685,225682,225698,230432,230434,2023-08-22T18:15:58Z,230449,Auftrag,uagizaji,s,ghanima,kuzingatia,msukani,NA,NA,NA,"c(""distractor1"", ""distractor2"", ""distractor3"")",NA,NA,NA,NA,NA,NA,NA,NA,NA,NA,NA,NA,NA,NA,NA,NA,NA,NA,NA
2c423,Shallow Question,html.Page,2_12_0_0,NA,NA,form submission,5192,230434,230432,230449,235641,235641,2023-08-22T18:16:03Z,235665,Widerstand,usulubu,d,kusababisha,mwalimu,mwenendo,usulubu,NA,NA,"c(""distractor1"", ""distractor2"", ""distractor3"")",NA,NA,NA,NA,NA,NA,NA,NA,NA,NA,NA,NA,NA,NA,NA,NA,NA,NA,NA
2c423,Save data screen,canvas.Screen,2_12_0_1,NA,NA,timeout,500,235642,235649,235665,236149,236150,2023-08-22T18:16:04Z,236165,Widerstand,usulubu,d,kusababisha,mwalimu,mwenendo,NA,NA,1,"c(""distractor1"", ""distractor2"", ""distractor3"")",NA,NA,NA,NA,NA,NA,NA,NA,NA,NA,NA,NA,NA,NA,NA,NA,NA,NA,NA
2c423,shallow,flow.Sequence,2_12_0,NA,NA,completion,5700,230434,230432,230449,236149,236151,2023-08-22T18:16:04Z,236165,Widerstand,usulubu,d,kusababisha,mwalimu,mwenendo,NA,NA,NA,"c(""distractor1"", ""distractor2"", ""distractor3"")",NA,NA,NA,NA,NA,NA,NA,NA,NA,NA,NA,NA,NA,NA,NA,NA,NA,NA,NA
2c423,task,flow.Sequence,2_12,NA,NA,completion,5700,230434,230432,230449,236149,236151,2023-08-22T18:16:04Z,236165,Widerstand,usulubu,d,kusababisha,mwalimu,mwenendo,NA,NA,NA,"c(""distractor1"", ""distractor2"", ""distractor3"")",NA,NA,NA,NA,NA,NA,NA,NA,NA,NA,NA,NA,NA,NA,NA,NA,NA,NA,NA
2c423,Shallow Question,html.Page,2_13_0_0,NA,NA,form submission,8409,236152,236149,236165,244574,244574,2023-08-22T18:16:12Z,244598,Beweis,ushahidi,s,marudio,kizuizi,mtendaji,mtendaji,NA,NA,"c(""distractor1"", ""distractor2"", ""distractor3"")",NA,NA,NA,NA,NA,NA,NA,NA,NA,NA,NA,NA,NA,NA,NA,NA,NA,NA,NA
2c423,Save data screen,canvas.Screen,2_13_0_1,NA,NA,timeout,501,244576,244582,244598,245083,245083,2023-08-22T18:16:13Z,245099,Beweis,ushahidi,s,marudio,kizuizi,mtendaji,NA,NA,0,"c(""distractor1"", ""distractor2"", ""distractor3"")",NA,NA,NA,NA,NA,NA,NA,NA,NA,NA,NA,NA,NA,NA,NA,NA,NA,NA,NA
2c423,shallow,flow.Sequence,2_13_0,NA,NA,completion,8918,236152,236149,236165,245083,245084,2023-08-22T18:16:13Z,245099,Beweis,ushahidi,s,marudio,kizuizi,mtendaji,NA,NA,NA,"c(""distractor1"", ""distractor2"", ""distractor3"")",NA,NA,NA,NA,NA,NA,NA,NA,NA,NA,NA,NA,NA,NA,NA,NA,NA,NA,NA
2c423,task,flow.Sequence,2_13,NA,NA,completion,8918,236151,236149,236165,245083,245084,2023-08-22T18:16:13Z,245099,Beweis,ushahidi,s,marudio,kizuizi,mtendaji,NA,NA,NA,"c(""distractor1"", ""distractor2"", ""distractor3"")",NA,NA,NA,NA,NA,NA,NA,NA,NA,NA,NA,NA,NA,NA,NA,NA,NA,NA,NA
2c423,Shallow Question,html.Page,2_14_0_0,NA,NA,form submission,3675,245085,245083,245099,248774,248775,2023-08-22T18:16:16Z,248799,Annäherung,maegesho,d,madahili,kujiamini,mapendekezo,maegesho,NA,NA,"c(""distractor1"", ""distractor2"", ""distractor3"")",NA,NA,NA,NA,NA,NA,NA,NA,NA,NA,NA,NA,NA,NA,NA,NA,NA,NA,NA
2c423,Save data screen,canvas.Screen,2_14_0_1,NA,NA,timeout,500,248775,248783,248799,249283,249284,2023-08-22T18:16:17Z,249299,Annäherung,maegesho,d,madahili,kujiamini,mapendekezo,NA,NA,1,"c(""distractor1"", ""distractor2"", ""distractor3"")",NA,NA,NA,NA,NA,NA,NA,NA,NA,NA,NA,NA,NA,NA,NA,NA,NA,NA,NA
2c423,shallow,flow.Sequence,2_14_0,NA,NA,completion,4184,245084,245083,245099,249283,249285,2023-08-22T18:16:17Z,249299,Annäherung,maegesho,d,madahili,kujiamini,mapendekezo,NA,NA,NA,"c(""distractor1"", ""distractor2"", ""distractor3"")",NA,NA,NA,NA,NA,NA,NA,NA,NA,NA,NA,NA,NA,NA,NA,NA,NA,NA,NA
2c423,task,flow.Sequence,2_14,NA,NA,completion,4184,245084,245083,245099,249283,249286,2023-08-22T18:16:17Z,249299,Annäherung,maegesho,d,madahili,kujiamini,mapendekezo,NA,NA,NA,"c(""distractor1"", ""distractor2"", ""distractor3"")",NA,NA,NA,NA,NA,NA,NA,NA,NA,NA,NA,NA,NA,NA,NA,NA,NA,NA,NA
2c423,Shallow Question,html.Page,2_15_0_0,NA,NA,form submission,7908,249286,249283,249299,257207,257208,2023-08-22T18:16:25Z,257233,Wettbewerb,ushindani,s,mapendezi,kichocheo,ubaguzi,kichocheo,NA,NA,"c(""distractor1"", ""distractor2"", ""distractor3"")",NA,NA,NA,NA,NA,NA,NA,NA,NA,NA,NA,NA,NA,NA,NA,NA,NA,NA,NA
2c423,Save data screen,canvas.Screen,2_15_0_1,NA,NA,timeout,500,257210,257216,257233,257716,257717,2023-08-22T18:16:25Z,257733,Wettbewerb,ushindani,s,mapendezi,kichocheo,ubaguzi,NA,NA,0,"c(""distractor1"", ""distractor2"", ""distractor3"")",NA,NA,NA,NA,NA,NA,NA,NA,NA,NA,NA,NA,NA,NA,NA,NA,NA,NA,NA
2c423,shallow,flow.Sequence,2_15_0,NA,NA,completion,8417,249286,249283,249299,257716,257718,2023-08-22T18:16:25Z,257733,Wettbewerb,ushindani,s,mapendezi,kichocheo,ubaguzi,NA,NA,NA,"c(""distractor1"", ""distractor2"", ""distractor3"")",NA,NA,NA,NA,NA,NA,NA,NA,NA,NA,NA,NA,NA,NA,NA,NA,NA,NA,NA
2c423,task,flow.Sequence,2_15,NA,NA,completion,8417,249286,249283,249299,257716,257719,2023-08-22T18:16:25Z,257733,Wettbewerb,ushindani,s,mapendezi,kichocheo,ubaguzi,NA,NA,NA,"c(""distractor1"", ""distractor2"", ""distractor3"")",NA,NA,NA,NA,NA,NA,NA,NA,NA,NA,NA,NA,NA,NA,NA,NA,NA,NA,NA
2c423,retrieval block 2 (multiple choice),flow.Loop,2,NA,NA,completion,107826,149849,149846,149890,257716,257719,2023-08-22T18:16:25Z,257733,NA,NA,NA,NA,NA,NA,NA,NA,NA,"c(""distractor1"", ""distractor2"", ""distractor3"")",NA,NA,NA,NA,NA,NA,NA,NA,NA,NA,NA,NA,NA,NA,NA,NA,NA,NA,NA
2c423,End,canvas.Screen,3,NA,keypress(Space),response,964,257719,257716,257733,258680,258679,2023-08-22T18:16:26Z,258716,NA,NA,NA,NA,NA,NA,NA,NA,NA,NULL,NA,NA,NA,NA,NA,NA,NA,NA,NA,NA,NA,NA,NA,NA,NA,NA,NA,NA,NA
2c423,root,flow.Sequence,NA,NA,NA,completion,258272,381,383,408,258680,258680,2023-08-22T18:16:26Z,258716,NA,NA,NA,NA,NA,NA,NA,NA,NA,NULL,NA,NA,NA,NA,NA,NA,NA,NA,NA,NA,NA,NA,NA,NA,NA,NA,NA,NA,NA
