observation,sender,sender_type,sender_id,response,response_action,ended_on,duration,time_run,time_render,time_show,time_end,time_commit,timestamp,time_switch,distractors,german,swahili,enc,distractor1,distractor2,distractor3,response_2,x,correct,x_2,url_vp,url_sess,meta_labjs_version,meta_location,meta_user_agent,meta_platform,meta_language,meta_locale,meta_time_zone,meta_timezone_offset,meta_screen_width,meta_screen_height,meta_scroll_width,meta_scroll_height,meta_window_inner_width,meta_window_inner_height,meta_device_pixel_ratio,meta_labjs_build_flavor,meta_labjs_build_commit
333a0,Introduction general,canvas.Screen,0,weiter,keypress(q),response,1227402.8849999,402.79999995232,243.222,393.215,1227796.0999999,1227802.5,2023-06-04T16:39:41Z,1227855.069,NULL,NA,NA,NA,NA,NA,NA,NA,NA,NA,NA,120,3,20.2.4,https://neurocog.fernuni.ch/studies/vweber/encoding_immediate/index.html?vp=120&sess=3,"Mozilla/5.0 (Windows NT 10.0; Win64; x64) AppleWebKit/537.36 (KHTML, like Gecko) Chrome/113.0.0.0 Safari/537.36",Win32,de-DE,de,America/New_York,240,1366,768,1366,609,1366,657,1,production,f5b4a49f956347addd546a832a3327688c2c0fef
333a0,Introduction practice,canvas.Screen,1_0,NA,keypress(Space),response,5863.2309999524,1227803.3,1227788.316,1227855.069,1233718.3,1233719.5999999,2023-06-04T16:39:47Z,1233737.431,NULL,NA,NA,NA,NA,NA,NA,NA,NA,NA,NA,NA,NA,NA,NA,NA,NA,NA,NA,NA,NA,NA,NA,NA,NA,NA,NA,NA,NA,NA
333a0,Deep Question,html.Page,1_1_0_0_0,NA,NA,form submission,8609.2690000476,1233720.0999999,1233721.122,1233737.431,1242346.7,1242347.0999999,2023-06-04T16:39:56Z,1242353.422,"c(""distractor1"", ""distractor2"", ""distractor3"")",Schatten,kivuli,d,NA,NA,NA,magasha,NA,NA,NA,NA,NA,NA,NA,NA,NA,NA,NA,NA,NA,NA,NA,NA,NA,NA,NA,NA,NA,NA
333a0,"""Richtig""-Screen",canvas.Screen,1_1_0_0_1,NA,NA,skipped,NA,1242348.5999999,NA,NA,1242346.7,1242348.8999999,2023-06-04T16:39:56Z,1242353.422,"c(""distractor1"", ""distractor2"", ""distractor3"")",Schatten,kivuli,d,NA,NA,NA,NA,NA,NA,NA,NA,NA,NA,NA,NA,NA,NA,NA,NA,NA,NA,NA,NA,NA,NA,NA,NA,NA,NA
333a0,"""Falsch""-Screen",canvas.Screen,1_1_0_0_2,NA,NA,timeout,4999.656,1242350.3,1242337.374,1242353.422,1247336.699,1247344.8,2023-06-04T16:40:01Z,1247353.078,"c(""distractor1"", ""distractor2"", ""distractor3"")",Schatten,kivuli,d,NA,NA,NA,NA,NA,0,NA,NA,NA,NA,NA,NA,NA,NA,NA,NA,NA,NA,NA,NA,NA,NA,NA,NA,NA,NA
333a0,deep,flow.Sequence,1_1_0_0,NA,NA,completion,13599.268,1233720.0999999,1233721.122,1233737.431,1247336.699,1247345.5,2023-06-04T16:40:01Z,1247353.078,"c(""distractor1"", ""distractor2"", ""distractor3"")",Schatten,kivuli,d,NA,NA,NA,NA,NA,NA,NA,NA,NA,NA,NA,NA,NA,NA,NA,NA,NA,NA,NA,NA,NA,NA,NA,NA,NA,NA
333a0,shallow,flow.Sequence,1_1_0_1,NA,NA,skipped,NA,1247345.8,NA,NA,1247336.699,1247345.8999999,2023-06-04T16:40:01Z,1247353.078,"c(""distractor1"", ""distractor2"", ""distractor3"")",Schatten,kivuli,d,NA,NA,NA,NA,NA,NA,NA,NA,NA,NA,NA,NA,NA,NA,NA,NA,NA,NA,NA,NA,NA,NA,NA,NA,NA,NA
333a0,task,flow.Sequence,1_1_0,NA,NA,completion,13599.268,1233720.0999999,1233721.122,1233737.431,1247336.699,1247346.3,2023-06-04T16:40:01Z,1247353.078,"c(""distractor1"", ""distractor2"", ""distractor3"")",Schatten,kivuli,d,NA,NA,NA,NA,NA,NA,NA,NA,NA,NA,NA,NA,NA,NA,NA,NA,NA,NA,NA,NA,NA,NA,NA,NA,NA,NA
333a0,Deep Question,html.Page,1_1_1_0_0,NA,NA,form submission,6469.422,1247347.0999999,1247336.699,1247353.078,1253822.5,1253822.8,2023-06-04T16:40:07Z,1253836.134,"c(""distractor1"", ""distractor2"", ""distractor3"")",Qualität,mtindo,d,NA,NA,NA,kivuli,NA,NA,NA,NA,NA,NA,NA,NA,NA,NA,NA,NA,NA,NA,NA,NA,NA,NA,NA,NA,NA,NA
333a0,"""Richtig""-Screen",canvas.Screen,1_1_1_0_1,NA,NA,skipped,NA,1253825.3,NA,NA,1253822.5,1253825.5,2023-06-04T16:40:07Z,1253836.134,"c(""distractor1"", ""distractor2"", ""distractor3"")",Qualität,mtindo,d,NA,NA,NA,NA,NA,NA,NA,NA,NA,NA,NA,NA,NA,NA,NA,NA,NA,NA,NA,NA,NA,NA,NA,NA,NA,NA
333a0,"""Falsch""-Screen",canvas.Screen,1_1_1_0_2,NA,NA,timeout,4999.8359999999,1253826.5,1253819.857,1253836.134,1258819.274,1258820.5,2023-06-04T16:40:12Z,1258835.97,"c(""distractor1"", ""distractor2"", ""distractor3"")",Qualität,mtindo,d,NA,NA,NA,NA,NA,0,NA,NA,NA,NA,NA,NA,NA,NA,NA,NA,NA,NA,NA,NA,NA,NA,NA,NA,NA,NA
333a0,deep,flow.Sequence,1_1_1_0,NA,NA,completion,11466.196,1247346.8,1247336.699,1247353.078,1258819.274,1258821.2,2023-06-04T16:40:12Z,1258835.97,"c(""distractor1"", ""distractor2"", ""distractor3"")",Qualität,mtindo,d,NA,NA,NA,NA,NA,NA,NA,NA,NA,NA,NA,NA,NA,NA,NA,NA,NA,NA,NA,NA,NA,NA,NA,NA,NA,NA
333a0,shallow,flow.Sequence,1_1_1_1,NA,NA,skipped,NA,1258821.3999999,NA,NA,1258819.274,1258821.8,2023-06-04T16:40:12Z,1258835.97,"c(""distractor1"", ""distractor2"", ""distractor3"")",Qualität,mtindo,d,NA,NA,NA,NA,NA,NA,NA,NA,NA,NA,NA,NA,NA,NA,NA,NA,NA,NA,NA,NA,NA,NA,NA,NA,NA,NA
333a0,task,flow.Sequence,1_1_1,NA,NA,completion,11466.196,1247346.5999999,1247336.699,1247353.078,1258819.274,1258822.2,2023-06-04T16:40:12Z,1258835.97,"c(""distractor1"", ""distractor2"", ""distractor3"")",Qualität,mtindo,d,NA,NA,NA,NA,NA,NA,NA,NA,NA,NA,NA,NA,NA,NA,NA,NA,NA,NA,NA,NA,NA,NA,NA,NA,NA,NA
333a0,Deep Question,html.Page,1_1_2_0_0,NA,NA,form submission,4855.7300000477,1258822.8,1258819.274,1258835.97,1263691.7,1263691.8999999,2023-06-04T16:40:17Z,1263702.489,"c(""distractor1"", ""distractor2"", ""distractor3"")",Gesundheit,salama,d,NA,NA,NA,bla,NA,NA,NA,NA,NA,NA,NA,NA,NA,NA,NA,NA,NA,NA,NA,NA,NA,NA,NA,NA,NA,NA
333a0,"""Richtig""-Screen",canvas.Screen,1_1_2_0_1,NA,NA,skipped,NA,1263694.5,NA,NA,1263691.7,1263694.5999999,2023-06-04T16:40:17Z,1263702.489,"c(""distractor1"", ""distractor2"", ""distractor3"")",Gesundheit,salama,d,NA,NA,NA,NA,NA,NA,NA,NA,NA,NA,NA,NA,NA,NA,NA,NA,NA,NA,NA,NA,NA,NA,NA,NA,NA,NA
333a0,"""Falsch""-Screen",canvas.Screen,1_1_2_0_2,NA,NA,timeout,4999.0889999999,1263695.5,1263685.724,1263702.489,1268685.249,1268686.3,2023-06-04T16:40:22Z,1268701.578,"c(""distractor1"", ""distractor2"", ""distractor3"")",Gesundheit,salama,d,NA,NA,NA,NA,NA,0,NA,NA,NA,NA,NA,NA,NA,NA,NA,NA,NA,NA,NA,NA,NA,NA,NA,NA,NA,NA
333a0,deep,flow.Sequence,1_1_2_0,NA,NA,completion,9849.2790000001,1258822.5999999,1258819.274,1258835.97,1268685.249,1268686.8,2023-06-04T16:40:22Z,1268701.578,"c(""distractor1"", ""distractor2"", ""distractor3"")",Gesundheit,salama,d,NA,NA,NA,NA,NA,NA,NA,NA,NA,NA,NA,NA,NA,NA,NA,NA,NA,NA,NA,NA,NA,NA,NA,NA,NA,NA
333a0,shallow,flow.Sequence,1_1_2_1,NA,NA,skipped,NA,1268687,NA,NA,1268685.249,1268687.2,2023-06-04T16:40:22Z,1268701.578,"c(""distractor1"", ""distractor2"", ""distractor3"")",Gesundheit,salama,d,NA,NA,NA,NA,NA,NA,NA,NA,NA,NA,NA,NA,NA,NA,NA,NA,NA,NA,NA,NA,NA,NA,NA,NA,NA,NA
333a0,task,flow.Sequence,1_1_2,NA,NA,completion,9849.2790000001,1258822.5999999,1258819.274,1258835.97,1268685.249,1268687.5,2023-06-04T16:40:22Z,1268701.578,"c(""distractor1"", ""distractor2"", ""distractor3"")",Gesundheit,salama,d,NA,NA,NA,NA,NA,NA,NA,NA,NA,NA,NA,NA,NA,NA,NA,NA,NA,NA,NA,NA,NA,NA,NA,NA,NA,NA
333a0,deep,flow.Sequence,1_1_3_0,NA,NA,skipped,NA,1268687.7,NA,NA,1268685.249,1268687.8,2023-06-04T16:40:22Z,1268701.578,"c(""distractor1"", ""distractor2"", ""distractor3"")",Gegenwart,hadhara,s,katiba,jokofu,mikopo,NA,NA,NA,NA,NA,NA,NA,NA,NA,NA,NA,NA,NA,NA,NA,NA,NA,NA,NA,NA,NA,NA,NA
333a0,Shallow Question,html.Page,1_1_3_1_0,NA,NA,form submission,5804.5219999047,1268688.0999999,1268685.249,1268701.578,1274506.0999999,1274506.3,2023-06-04T16:40:28Z,1274518.304,"c(""distractor1"", ""distractor2"", ""distractor3"")",Gegenwart,hadhara,s,katiba,jokofu,mikopo,jokofu,NA,NA,NA,NA,NA,NA,NA,NA,NA,NA,NA,NA,NA,NA,NA,NA,NA,NA,NA,NA,NA,NA
333a0,"""Richtig""-Screen",canvas.Screen,1_1_3_1_1,NA,NA,skipped,NA,1274508.5999999,NA,NA,1274506.0999999,1274508.7,2023-06-04T16:40:28Z,1274518.304,"c(""distractor1"", ""distractor2"", ""distractor3"")",Gegenwart,hadhara,s,katiba,jokofu,mikopo,NA,NA,NA,NA,NA,NA,NA,NA,NA,NA,NA,NA,NA,NA,NA,NA,NA,NA,NA,NA,NA,NA,NA
333a0,"""Falsch""-Screen",canvas.Screen,1_1_3_1_2,NA,NA,timeout,4999.7150000001,1274509.5999999,1274501.219,1274518.304,1279500.74,1279502.7,2023-06-04T16:40:33Z,1279518.019,"c(""distractor1"", ""distractor2"", ""distractor3"")",Gegenwart,hadhara,s,katiba,jokofu,mikopo,NA,NA,0,NA,NA,NA,NA,NA,NA,NA,NA,NA,NA,NA,NA,NA,NA,NA,NA,NA,NA,NA,NA
333a0,shallow,flow.Sequence,1_1_3_1,NA,NA,completion,10799.162,1268688.0999999,1268685.249,1268701.578,1279500.74,1279502.8,2023-06-04T16:40:33Z,1279518.019,"c(""distractor1"", ""distractor2"", ""distractor3"")",Gegenwart,hadhara,s,katiba,jokofu,mikopo,NA,NA,NA,NA,NA,NA,NA,NA,NA,NA,NA,NA,NA,NA,NA,NA,NA,NA,NA,NA,NA,NA,NA
333a0,task,flow.Sequence,1_1_3,NA,NA,completion,10799.162,1268687.5999999,1268685.249,1268701.578,1279500.74,1279503,2023-06-04T16:40:33Z,1279518.019,"c(""distractor1"", ""distractor2"", ""distractor3"")",Gegenwart,hadhara,s,katiba,jokofu,mikopo,NA,NA,NA,NA,NA,NA,NA,NA,NA,NA,NA,NA,NA,NA,NA,NA,NA,NA,NA,NA,NA,NA,NA
333a0,deep,flow.Sequence,1_1_4_0,NA,NA,skipped,NA,1279503,NA,NA,1279500.74,1279503.2,2023-06-04T16:40:33Z,1279518.019,"c(""distractor1"", ""distractor2"", ""distractor3"")",Rückhalt,msaada,s,muhula,auwali,kiwimbe,NA,NA,NA,NA,NA,NA,NA,NA,NA,NA,NA,NA,NA,NA,NA,NA,NA,NA,NA,NA,NA,NA,NA
333a0,Shallow Question,html.Page,1_1_4_1_0,NA,NA,form submission,8225.7809999522,1279503.2,1279500.74,1279518.019,1287743.8,1287744,2023-06-04T16:40:41Z,1287750.15,"c(""distractor1"", ""distractor2"", ""distractor3"")",Rückhalt,msaada,s,muhula,auwali,kiwimbe,msaada,NA,NA,NA,NA,NA,NA,NA,NA,NA,NA,NA,NA,NA,NA,NA,NA,NA,NA,NA,NA,NA,NA
333a0,"""Richtig""-Screen",canvas.Screen,1_1_4_1_1,NA,NA,timeout,4999.665,1287745.8999999,1287733.951,1287750.15,1292733.704,1292734.8,2023-06-04T16:40:46Z,1292749.815,"c(""distractor1"", ""distractor2"", ""distractor3"")",Rückhalt,msaada,s,muhula,auwali,kiwimbe,NA,NA,1,NA,NA,NA,NA,NA,NA,NA,NA,NA,NA,NA,NA,NA,NA,NA,NA,NA,NA,NA,NA
333a0,"""Falsch""-Screen",canvas.Screen,1_1_4_1_2,NA,NA,skipped,NA,1292740.3,NA,NA,1292733.704,1292740.3999999,2023-06-04T16:40:46Z,1292749.815,"c(""distractor1"", ""distractor2"", ""distractor3"")",Rückhalt,msaada,s,muhula,auwali,kiwimbe,NA,NA,NA,NA,NA,NA,NA,NA,NA,NA,NA,NA,NA,NA,NA,NA,NA,NA,NA,NA,NA,NA,NA
333a0,shallow,flow.Sequence,1_1_4_1,NA,NA,completion,13215.685,1279503.2,1279500.74,1279518.019,1292733.704,1292740.5,2023-06-04T16:40:46Z,1292749.815,"c(""distractor1"", ""distractor2"", ""distractor3"")",Rückhalt,msaada,s,muhula,auwali,kiwimbe,NA,NA,NA,NA,NA,NA,NA,NA,NA,NA,NA,NA,NA,NA,NA,NA,NA,NA,NA,NA,NA,NA,NA
333a0,task,flow.Sequence,1_1_4,NA,NA,completion,13215.685,1279503,1279500.74,1279518.019,1292733.704,1292740.8,2023-06-04T16:40:46Z,1292749.815,"c(""distractor1"", ""distractor2"", ""distractor3"")",Rückhalt,msaada,s,muhula,auwali,kiwimbe,NA,NA,NA,NA,NA,NA,NA,NA,NA,NA,NA,NA,NA,NA,NA,NA,NA,NA,NA,NA,NA,NA,NA
333a0,deep,flow.Sequence,1_1_5_0,NA,NA,skipped,NA,1292740.8,NA,NA,1292733.704,1292740.8999999,2023-06-04T16:40:46Z,1292749.815,"c(""distractor1"", ""distractor2"", ""distractor3"")",Kritik,lawama,s,dereva,nafasi,mawazo,NA,NA,NA,NA,NA,NA,NA,NA,NA,NA,NA,NA,NA,NA,NA,NA,NA,NA,NA,NA,NA,NA,NA
333a0,Shallow Question,html.Page,1_1_5_1_0,NA,NA,form submission,5707.7849999047,1292741,1292733.704,1292749.815,1298457.5999999,1298457.8,2023-06-04T16:40:52Z,1298466.274,"c(""distractor1"", ""distractor2"", ""distractor3"")",Kritik,lawama,s,dereva,nafasi,mawazo,lawama,NA,NA,NA,NA,NA,NA,NA,NA,NA,NA,NA,NA,NA,NA,NA,NA,NA,NA,NA,NA,NA,NA
333a0,"""Richtig""-Screen",canvas.Screen,1_1_5_1_1,NA,NA,timeout,4999.8419999999,1298459.8999999,1298449.701,1298466.274,1303449.329,1303450.5999999,2023-06-04T16:40:57Z,1303466.116,"c(""distractor1"", ""distractor2"", ""distractor3"")",Kritik,lawama,s,dereva,nafasi,mawazo,NA,NA,1,NA,NA,NA,NA,NA,NA,NA,NA,NA,NA,NA,NA,NA,NA,NA,NA,NA,NA,NA,NA
333a0,"""Falsch""-Screen",canvas.Screen,1_1_5_1_2,NA,NA,skipped,NA,1303456.7,NA,NA,1303449.329,1303456.8999999,2023-06-04T16:40:57Z,1303466.116,"c(""distractor1"", ""distractor2"", ""distractor3"")",Kritik,lawama,s,dereva,nafasi,mawazo,NA,NA,NA,NA,NA,NA,NA,NA,NA,NA,NA,NA,NA,NA,NA,NA,NA,NA,NA,NA,NA,NA,NA
333a0,shallow,flow.Sequence,1_1_5_1,NA,NA,completion,10699.514,1292741,1292733.704,1292749.815,1303449.329,1303457,2023-06-04T16:40:57Z,1303466.116,"c(""distractor1"", ""distractor2"", ""distractor3"")",Kritik,lawama,s,dereva,nafasi,mawazo,NA,NA,NA,NA,NA,NA,NA,NA,NA,NA,NA,NA,NA,NA,NA,NA,NA,NA,NA,NA,NA,NA,NA
333a0,task,flow.Sequence,1_1_5,NA,NA,completion,10699.514,1292740.8,1292733.704,1292749.815,1303449.329,1303457.0999999,2023-06-04T16:40:57Z,1303466.116,"c(""distractor1"", ""distractor2"", ""distractor3"")",Kritik,lawama,s,dereva,nafasi,mawazo,NA,NA,NA,NA,NA,NA,NA,NA,NA,NA,NA,NA,NA,NA,NA,NA,NA,NA,NA,NA,NA,NA,NA
333a0,block,flow.Loop,1_1,NA,NA,completion,69711.898,1233720,1233721.122,1233737.431,1303449.329,1303457.3,2023-06-04T16:40:57Z,1303466.116,"c(""distractor1"", ""distractor2"", ""distractor3"")",NA,NA,NA,NA,NA,NA,NA,NA,NA,NA,NA,NA,NA,NA,NA,NA,NA,NA,NA,NA,NA,NA,NA,NA,NA,NA,NA,NA,NA
333a0,Practice,flow.Sequence,1,NA,NA,completion,75594.26,1227803.2,1227788.316,1227855.069,1303449.329,1303457.5,2023-06-04T16:40:57Z,1303466.116,NULL,NA,NA,NA,NA,NA,NA,NA,NA,NA,NA,NA,NA,NA,NA,NA,NA,NA,NA,NA,NA,NA,NA,NA,NA,NA,NA,NA,NA,NA
333a0,Experiment start,canvas.Screen,2,weiter,keypress(q),response,36006.983999905,1303457.5999999,1303449.329,1303466.116,1339473.0999999,1339474.5,2023-06-04T16:41:33Z,1339579.729,NULL,NA,NA,NA,NA,NA,NA,NA,NA,NA,NA,NA,NA,NA,NA,NA,NA,NA,NA,NA,NA,NA,NA,NA,NA,NA,NA,NA,NA,NA
333a0,Deep Question,html.Page,3_0_0_0_0_0_0,NA,NA,form submission,6737.3709999046,1339574.8999999,1339562.344,1339579.729,1346317.0999999,1346317.3,2023-06-04T16:41:40Z,1346329.242,NULL,Wettbewerb,ushindani,d,NA,NA,NA,kivuli,NA,NA,0,NA,NA,NA,NA,NA,NA,NA,NA,NA,NA,NA,NA,NA,NA,NA,NA,NA,NA,NA
333a0,"""Richtig""-Screen",canvas.Screen,3_0_0_0_0_0_1,NA,NA,skipped,NA,1346319.7,NA,NA,1346317.0999999,1346319.8999999,2023-06-04T16:41:40Z,1346329.242,NULL,Wettbewerb,ushindani,d,NA,NA,NA,NA,sdf,NA,0,NA,NA,NA,NA,NA,NA,NA,NA,NA,NA,NA,NA,NA,NA,NA,NA,NA,NA,NA
333a0,"""Falsch""-Screen",canvas.Screen,3_0_0_0_0_0_2,NA,NA,timeout,5000.3019999999,1346320.8,1346312.613,1346329.242,1351312.677,1351313.7,2023-06-04T16:41:45Z,1351329.544,NULL,Wettbewerb,ushindani,d,NA,NA,NA,NA,sdf,0,0,NA,NA,NA,NA,NA,NA,NA,NA,NA,NA,NA,NA,NA,NA,NA,NA,NA,NA,NA
333a0,deep,flow.Sequence,3_0_0_0_0_0,NA,NA,completion,11732.948,1339574.8,1339562.344,1339579.729,1351312.677,1351314.2,2023-06-04T16:41:45Z,1351329.544,NULL,Wettbewerb,ushindani,d,NA,NA,NA,NA,sdf,NA,0,NA,NA,NA,NA,NA,NA,NA,NA,NA,NA,NA,NA,NA,NA,NA,NA,NA,NA,NA
333a0,shallow,flow.Sequence,3_0_0_0_0_1,NA,NA,skipped,NA,1351314.3,NA,NA,1351312.677,1351314.5,2023-06-04T16:41:45Z,1351329.544,NULL,Wettbewerb,ushindani,d,NA,NA,NA,NA,sdf,NA,0,NA,NA,NA,NA,NA,NA,NA,NA,NA,NA,NA,NA,NA,NA,NA,NA,NA,NA,NA
333a0,task,flow.Sequence,3_0_0_0_0,NA,NA,completion,11732.948,1339574.8,1339562.344,1339579.729,1351312.677,1351314.7,2023-06-04T16:41:45Z,1351329.544,NULL,Wettbewerb,ushindani,d,NA,NA,NA,NA,sdf,NA,0,NA,NA,NA,NA,NA,NA,NA,NA,NA,NA,NA,NA,NA,NA,NA,NA,NA,NA,NA
333a0,Deep Question,html.Page,3_0_0_0_1_0_0,NA,NA,form submission,6334.5559999046,1351314.8999999,1351312.677,1351329.544,1357664.0999999,1357664.3,2023-06-04T16:41:51Z,1357679.091,NULL,Auftrag,uagizaji,d,NA,NA,NA,abakaba,NA,NA,0,NA,NA,NA,NA,NA,NA,NA,NA,NA,NA,NA,NA,NA,NA,NA,NA,NA,NA,NA
333a0,"""Richtig""-Screen",canvas.Screen,3_0_0_0_1_0_1,NA,NA,skipped,NA,1357667.3,NA,NA,1357664.0999999,1357667.3999999,2023-06-04T16:41:51Z,1357679.091,NULL,Auftrag,uagizaji,d,NA,NA,NA,NA,sdf,NA,0,NA,NA,NA,NA,NA,NA,NA,NA,NA,NA,NA,NA,NA,NA,NA,NA,NA,NA,NA
333a0,"""Falsch""-Screen",canvas.Screen,3_0_0_0_1_0_2,NA,NA,timeout,4999.618,1357668.2,1357661.897,1357679.091,1362661.745,1362662.8,2023-06-04T16:41:56Z,1362678.709,NULL,Auftrag,uagizaji,d,NA,NA,NA,NA,sdf,0,0,NA,NA,NA,NA,NA,NA,NA,NA,NA,NA,NA,NA,NA,NA,NA,NA,NA,NA,NA
333a0,deep,flow.Sequence,3_0_0_0_1_0,NA,NA,completion,11332.201,1351314.8,1351312.677,1351329.544,1362661.745,1362663.2,2023-06-04T16:41:56Z,1362678.709,NULL,Auftrag,uagizaji,d,NA,NA,NA,NA,sdf,NA,0,NA,NA,NA,NA,NA,NA,NA,NA,NA,NA,NA,NA,NA,NA,NA,NA,NA,NA,NA
333a0,shallow,flow.Sequence,3_0_0_0_1_1,NA,NA,skipped,NA,1362663.3,NA,NA,1362661.745,1362663.5,2023-06-04T16:41:56Z,1362678.709,NULL,Auftrag,uagizaji,d,NA,NA,NA,NA,sdf,NA,0,NA,NA,NA,NA,NA,NA,NA,NA,NA,NA,NA,NA,NA,NA,NA,NA,NA,NA,NA
333a0,task,flow.Sequence,3_0_0_0_1,NA,NA,completion,11332.201,1351314.8,1351312.677,1351329.544,1362661.745,1362663.7,2023-06-04T16:41:56Z,1362678.709,NULL,Auftrag,uagizaji,d,NA,NA,NA,NA,sdf,NA,0,NA,NA,NA,NA,NA,NA,NA,NA,NA,NA,NA,NA,NA,NA,NA,NA,NA,NA,NA
333a0,deep,flow.Sequence,3_0_0_0_2_0,NA,NA,skipped,NA,1362663.8999999,NA,NA,1362661.745,1362664,2023-06-04T16:41:56Z,1362678.709,NULL,Abrechnung,uhasibu,s,kusahihisha,mpambano,mashambulizi,NA,sdf,NA,0,NA,NA,NA,NA,NA,NA,NA,NA,NA,NA,NA,NA,NA,NA,NA,NA,NA,NA,NA
333a0,Shallow Question,html.Page,3_0_0_0_2_1_0,NA,NA,form submission,4967.5909999523,1362664.3,1362661.745,1362678.709,1367646.3,1367646.3999999,2023-06-04T16:42:01Z,1367661.387,NULL,Abrechnung,uhasibu,s,kusahihisha,mpambano,mashambulizi,kusahihisha,NA,NA,0,NA,NA,NA,NA,NA,NA,NA,NA,NA,NA,NA,NA,NA,NA,NA,NA,NA,NA,NA
333a0,"""Richtig""-Screen",canvas.Screen,3_0_0_0_2_1_1,NA,NA,skipped,NA,1367648.5999999,NA,NA,1367646.3,1367648.7,2023-06-04T16:42:01Z,1367661.387,NULL,Abrechnung,uhasibu,s,kusahihisha,mpambano,mashambulizi,NA,sdf,NA,0,NA,NA,NA,NA,NA,NA,NA,NA,NA,NA,NA,NA,NA,NA,NA,NA,NA,NA,NA
333a0,"""Falsch""-Screen",canvas.Screen,3_0_0_0_2_1_2,NA,NA,timeout,4999.4789999998,1367649.3,1367644.613,1367661.387,1372644.621,1372645.7,2023-06-04T16:42:06Z,1372660.866,NULL,Abrechnung,uhasibu,s,kusahihisha,mpambano,mashambulizi,NA,sdf,0,0,NA,NA,NA,NA,NA,NA,NA,NA,NA,NA,NA,NA,NA,NA,NA,NA,NA,NA,NA
333a0,shallow,flow.Sequence,3_0_0_0_2_1,NA,NA,completion,9965.912,1362664.0999999,1362661.745,1362678.709,1372644.621,1372646.0999999,2023-06-04T16:42:06Z,1372660.866,NULL,Abrechnung,uhasibu,s,kusahihisha,mpambano,mashambulizi,NA,sdf,NA,0,NA,NA,NA,NA,NA,NA,NA,NA,NA,NA,NA,NA,NA,NA,NA,NA,NA,NA,NA
333a0,task,flow.Sequence,3_0_0_0_2,NA,NA,completion,9965.912,1362663.8,1362661.745,1362678.709,1372644.621,1372646.3999999,2023-06-04T16:42:06Z,1372660.866,NULL,Abrechnung,uhasibu,s,kusahihisha,mpambano,mashambulizi,NA,sdf,NA,0,NA,NA,NA,NA,NA,NA,NA,NA,NA,NA,NA,NA,NA,NA,NA,NA,NA,NA,NA
333a0,deep,flow.Sequence,3_0_0_0_3_0,NA,NA,skipped,NA,1372646.5999999,NA,NA,1372644.621,1372646.7,2023-06-04T16:42:06Z,1372660.866,NULL,Zufall,kikuti,s,kukosekana,uchoraji,leseni,NA,sdf,NA,0,NA,NA,NA,NA,NA,NA,NA,NA,NA,NA,NA,NA,NA,NA,NA,NA,NA,NA,NA
333a0,Shallow Question,html.Page,3_0_0_0_3_1_0,NA,NA,form submission,4245.1340000001,1372646.8999999,1372644.621,1372660.866,1376906,1376906.0999999,2023-06-04T16:42:11Z,1376910.359,NULL,Zufall,kikuti,s,kukosekana,uchoraji,leseni,leseni,NA,NA,0,NA,NA,NA,NA,NA,NA,NA,NA,NA,NA,NA,NA,NA,NA,NA,NA,NA,NA,NA
333a0,"""Richtig""-Screen",canvas.Screen,3_0_0_0_3_1_1,NA,NA,skipped,NA,1376908.3999999,NA,NA,1376906,1376908.5,2023-06-04T16:42:11Z,1376910.359,NULL,Zufall,kikuti,s,kukosekana,uchoraji,leseni,NA,sdf,NA,0,NA,NA,NA,NA,NA,NA,NA,NA,NA,NA,NA,NA,NA,NA,NA,NA,NA,NA,NA
333a0,"""Falsch""-Screen",canvas.Screen,3_0_0_0_3_1_2,NA,NA,timeout,4999.6980000001,1376909.0999999,1376894.291,1376910.359,1381893.993,1381895.5,2023-06-04T16:42:16Z,1381910.057,NULL,Zufall,kikuti,s,kukosekana,uchoraji,leseni,NA,sdf,0,0,NA,NA,NA,NA,NA,NA,NA,NA,NA,NA,NA,NA,NA,NA,NA,NA,NA,NA,NA
333a0,shallow,flow.Sequence,3_0_0_0_3_1,NA,NA,completion,9233.1270000001,1372646.8,1372644.621,1372660.866,1381893.993,1381896.2,2023-06-04T16:42:16Z,1381910.057,NULL,Zufall,kikuti,s,kukosekana,uchoraji,leseni,NA,sdf,NA,0,NA,NA,NA,NA,NA,NA,NA,NA,NA,NA,NA,NA,NA,NA,NA,NA,NA,NA,NA
333a0,task,flow.Sequence,3_0_0_0_3,NA,NA,completion,9233.1270000001,1372646.5999999,1372644.621,1372660.866,1381893.993,1381896.5999999,2023-06-04T16:42:16Z,1381910.057,NULL,Zufall,kikuti,s,kukosekana,uchoraji,leseni,NA,sdf,NA,0,NA,NA,NA,NA,NA,NA,NA,NA,NA,NA,NA,NA,NA,NA,NA,NA,NA,NA,NA
333a0,deep,flow.Sequence,3_0_0_0_4_0,NA,NA,skipped,NA,1381896.8999999,NA,NA,1381893.993,1381897.2,2023-06-04T16:42:16Z,1381910.057,NULL,Kanzler,diwani,s,rasilmali,mahitaji,maabudu,NA,sdf,NA,0,NA,NA,NA,NA,NA,NA,NA,NA,NA,NA,NA,NA,NA,NA,NA,NA,NA,NA,NA
333a0,Shallow Question,html.Page,3_0_0_0_4_1_0,NA,NA,form submission,5559.7429999523,1381897.5,1381893.993,1381910.057,1387469.8,1387470,2023-06-04T16:42:21Z,1387476.259,NULL,Kanzler,diwani,s,rasilmali,mahitaji,maabudu,mahitaji,NA,NA,0,NA,NA,NA,NA,NA,NA,NA,NA,NA,NA,NA,NA,NA,NA,NA,NA,NA,NA,NA
333a0,"""Richtig""-Screen",canvas.Screen,3_0_0_0_4_1_1,NA,NA,skipped,NA,1387472.2,NA,NA,1387469.8,1387472.3999999,2023-06-04T16:42:21Z,1387476.259,NULL,Kanzler,diwani,s,rasilmali,mahitaji,maabudu,NA,sdf,NA,0,NA,NA,NA,NA,NA,NA,NA,NA,NA,NA,NA,NA,NA,NA,NA,NA,NA,NA,NA
333a0,"""Falsch""-Screen",canvas.Screen,3_0_0_0_4_1_2,NA,NA,timeout,4999.8739999998,1387473,1387459.561,1387476.259,1392459.765,1392460.8999999,2023-06-04T16:42:26Z,1392476.133,NULL,Kanzler,diwani,s,rasilmali,mahitaji,maabudu,NA,sdf,0,0,NA,NA,NA,NA,NA,NA,NA,NA,NA,NA,NA,NA,NA,NA,NA,NA,NA,NA,NA
333a0,shallow,flow.Sequence,3_0_0_0_4_1,NA,NA,completion,10549.708,1381897.3999999,1381893.993,1381910.057,1392459.765,1392461.3,2023-06-04T16:42:26Z,1392476.133,NULL,Kanzler,diwani,s,rasilmali,mahitaji,maabudu,NA,sdf,NA,0,NA,NA,NA,NA,NA,NA,NA,NA,NA,NA,NA,NA,NA,NA,NA,NA,NA,NA,NA
333a0,task,flow.Sequence,3_0_0_0_4,NA,NA,completion,10549.708,1381896.8,1381893.993,1381910.057,1392459.765,1392461.5999999,2023-06-04T16:42:26Z,1392476.133,NULL,Kanzler,diwani,s,rasilmali,mahitaji,maabudu,NA,sdf,NA,0,NA,NA,NA,NA,NA,NA,NA,NA,NA,NA,NA,NA,NA,NA,NA,NA,NA,NA,NA
333a0,Deep Question,html.Page,3_0_0_0_5_0_0,NA,NA,form submission,3448.9669999047,1392461.8,1392459.765,1392476.133,1395925.0999999,1395925.3,2023-06-04T16:42:30Z,1395942.981,NULL,Sänger,mwimbaji,d,NA,NA,NA,x,NA,NA,0,NA,NA,NA,NA,NA,NA,NA,NA,NA,NA,NA,NA,NA,NA,NA,NA,NA,NA,NA
333a0,"""Richtig""-Screen",canvas.Screen,3_0_0_0_5_0_1,NA,NA,skipped,NA,1395927.8,NA,NA,1395925.0999999,1395927.8999999,2023-06-04T16:42:30Z,1395942.981,NULL,Sänger,mwimbaji,d,NA,NA,NA,NA,sdf,NA,0,NA,NA,NA,NA,NA,NA,NA,NA,NA,NA,NA,NA,NA,NA,NA,NA,NA,NA,NA
333a0,"""Falsch""-Screen",canvas.Screen,3_0_0_0_5_0_2,NA,NA,timeout,4999.5430000001,1395928.7,1395909.681,1395942.981,1400925.839,1400927,2023-06-04T16:42:35Z,1400942.524,NULL,Sänger,mwimbaji,d,NA,NA,NA,NA,sdf,0,0,NA,NA,NA,NA,NA,NA,NA,NA,NA,NA,NA,NA,NA,NA,NA,NA,NA,NA,NA
333a0,deep,flow.Sequence,3_0_0_0_5_0,NA,NA,completion,8449.706,1392461.8,1392459.765,1392476.133,1400925.839,1400927.3999999,2023-06-04T16:42:35Z,1400942.524,NULL,Sänger,mwimbaji,d,NA,NA,NA,NA,sdf,NA,0,NA,NA,NA,NA,NA,NA,NA,NA,NA,NA,NA,NA,NA,NA,NA,NA,NA,NA,NA
333a0,shallow,flow.Sequence,3_0_0_0_5_1,NA,NA,skipped,NA,1400927.5999999,NA,NA,1400925.839,1400927.8,2023-06-04T16:42:35Z,1400942.524,NULL,Sänger,mwimbaji,d,NA,NA,NA,NA,sdf,NA,0,NA,NA,NA,NA,NA,NA,NA,NA,NA,NA,NA,NA,NA,NA,NA,NA,NA,NA,NA
333a0,task,flow.Sequence,3_0_0_0_5,NA,NA,completion,8449.706,1392461.7,1392459.765,1392476.133,1400925.839,1400928,2023-06-04T16:42:35Z,1400942.524,NULL,Sänger,mwimbaji,d,NA,NA,NA,NA,sdf,NA,0,NA,NA,NA,NA,NA,NA,NA,NA,NA,NA,NA,NA,NA,NA,NA,NA,NA,NA,NA
333a0,Deep Question,html.Page,3_0_0_0_6_0_0,NA,NA,form submission,2949.7759999523,1400928.3,1400925.839,1400942.524,1403892.3,1403892.5,2023-06-04T16:42:38Z,1403909.07,NULL,Angreifer,mshambulizi,d,NA,NA,NA,x,NA,NA,0,NA,NA,NA,NA,NA,NA,NA,NA,NA,NA,NA,NA,NA,NA,NA,NA,NA,NA,NA
333a0,"""Richtig""-Screen",canvas.Screen,3_0_0_0_6_0_1,NA,NA,skipped,NA,1403894.7,NA,NA,1403892.3,1403894.8999999,2023-06-04T16:42:38Z,1403909.07,NULL,Angreifer,mshambulizi,d,NA,NA,NA,NA,sdf,NA,0,NA,NA,NA,NA,NA,NA,NA,NA,NA,NA,NA,NA,NA,NA,NA,NA,NA,NA,NA
333a0,"""Falsch""-Screen",canvas.Screen,3_0_0_0_6_0_2,NA,NA,timeout,4999.6799999999,1403895.5999999,1403891.939,1403909.07,1408891.793,1408892.8999999,2023-06-04T16:42:43Z,1408908.75,NULL,Angreifer,mshambulizi,d,NA,NA,NA,NA,sdf,0,0,NA,NA,NA,NA,NA,NA,NA,NA,NA,NA,NA,NA,NA,NA,NA,NA,NA,NA,NA
333a0,deep,flow.Sequence,3_0_0_0_6_0,NA,NA,completion,7949.2690000001,1400928.2,1400925.839,1400942.524,1408891.793,1408893.3,2023-06-04T16:42:43Z,1408908.75,NULL,Angreifer,mshambulizi,d,NA,NA,NA,NA,sdf,NA,0,NA,NA,NA,NA,NA,NA,NA,NA,NA,NA,NA,NA,NA,NA,NA,NA,NA,NA,NA
333a0,shallow,flow.Sequence,3_0_0_0_6_1,NA,NA,skipped,NA,1408893.5,NA,NA,1408891.793,1408893.7,2023-06-04T16:42:43Z,1408908.75,NULL,Angreifer,mshambulizi,d,NA,NA,NA,NA,sdf,NA,0,NA,NA,NA,NA,NA,NA,NA,NA,NA,NA,NA,NA,NA,NA,NA,NA,NA,NA,NA
333a0,task,flow.Sequence,3_0_0_0_6,NA,NA,completion,7949.2690000001,1400928.2,1400925.839,1400942.524,1408891.793,1408894,2023-06-04T16:42:43Z,1408908.75,NULL,Angreifer,mshambulizi,d,NA,NA,NA,NA,sdf,NA,0,NA,NA,NA,NA,NA,NA,NA,NA,NA,NA,NA,NA,NA,NA,NA,NA,NA,NA,NA
333a0,deep,flow.Sequence,3_0_0_0_7_0,NA,NA,skipped,NA,1408894.2,NA,NA,1408891.793,1408894.3,2023-06-04T16:42:43Z,1408908.75,NULL,Schönheit,kirembo,s,mahojiano,msisimko,jitihadi,NA,sdf,NA,0,NA,NA,NA,NA,NA,NA,NA,NA,NA,NA,NA,NA,NA,NA,NA,NA,NA,NA,NA
333a0,Shallow Question,html.Page,3_0_0_0_7_1_0,NA,NA,form submission,5269.3499999046,1408894.5,1408891.793,1408908.75,1414178.0999999,1414178.2,2023-06-04T16:42:48Z,1414191.561,NULL,Schönheit,kirembo,s,mahojiano,msisimko,jitihadi,msisimko,NA,NA,0,NA,NA,NA,NA,NA,NA,NA,NA,NA,NA,NA,NA,NA,NA,NA,NA,NA,NA,NA
333a0,"""Richtig""-Screen",canvas.Screen,3_0_0_0_7_1_1,NA,NA,skipped,NA,1414180.5,NA,NA,1414178.0999999,1414180.5999999,2023-06-04T16:42:48Z,1414191.561,NULL,Schönheit,kirembo,s,mahojiano,msisimko,jitihadi,NA,sdf,NA,0,NA,NA,NA,NA,NA,NA,NA,NA,NA,NA,NA,NA,NA,NA,NA,NA,NA,NA,NA
333a0,"""Falsch""-Screen",canvas.Screen,3_0_0_0_7_1_2,NA,NA,timeout,4999.4029999999,1414181.3,1414174.853,1414191.561,1419174.505,1419175.5999999,2023-06-04T16:42:53Z,1419190.964,NULL,Schönheit,kirembo,s,mahojiano,msisimko,jitihadi,NA,sdf,0,0,NA,NA,NA,NA,NA,NA,NA,NA,NA,NA,NA,NA,NA,NA,NA,NA,NA,NA,NA
333a0,shallow,flow.Sequence,3_0_0_0_7_1,NA,NA,completion,10265.755,1408894.5,1408891.793,1408908.75,1419174.505,1419176.0999999,2023-06-04T16:42:53Z,1419190.964,NULL,Schönheit,kirembo,s,mahojiano,msisimko,jitihadi,NA,sdf,NA,0,NA,NA,NA,NA,NA,NA,NA,NA,NA,NA,NA,NA,NA,NA,NA,NA,NA,NA,NA
333a0,task,flow.Sequence,3_0_0_0_7,NA,NA,completion,10265.755,1408894.2,1408891.793,1408908.75,1419174.505,1419176.3,2023-06-04T16:42:53Z,1419190.964,NULL,Schönheit,kirembo,s,mahojiano,msisimko,jitihadi,NA,sdf,NA,0,NA,NA,NA,NA,NA,NA,NA,NA,NA,NA,NA,NA,NA,NA,NA,NA,NA,NA,NA
333a0,block,flow.Loop,3_0_0_0,NA,NA,completion,79594.776,1339574.8,1339562.344,1339579.729,1419174.505,1419176.5999999,2023-06-04T16:42:53Z,1419190.964,NULL,NA,NA,NA,NA,NA,NA,NA,sdf,NA,0,NA,NA,NA,NA,NA,NA,NA,NA,NA,NA,NA,NA,NA,NA,NA,NA,NA,NA,NA
333a0,weiter,canvas.Screen,3_0_0_1,sdf,keypress(Space),response,2006.1359999047,1419176.7,1419174.505,1419190.964,1421197.0999999,1421199.0999999,2023-06-04T16:42:55Z,1421240.521,NULL,NA,NA,NA,NA,NA,NA,NA,sdf,NA,0,NA,NA,NA,NA,NA,NA,NA,NA,NA,NA,NA,NA,NA,NA,NA,NA,NA,NA,NA
333a0,check continue,flow.Sequence,3_0_0,NA,NA,completion,81617.370999905,1339574.7,1339562.344,1339579.729,1421197.0999999,1421199.3999999,2023-06-04T16:42:55Z,1421240.521,NULL,NA,NA,NA,NA,NA,NA,NA,sdf,NA,0,NA,NA,NA,NA,NA,NA,NA,NA,NA,NA,NA,NA,NA,NA,NA,NA,NA,NA,NA
333a0,deep,flow.Sequence,3_0_1_0_0_0,NA,NA,skipped,NA,1421230.3,NA,NA,1421197.0999999,1421230.3999999,2023-06-04T16:42:55Z,1421240.521,NULL,Schönheit,kirembo,s,mahojiano,msisimko,jitihadi,NA,sdfdsf,NA,1,NA,NA,NA,NA,NA,NA,NA,NA,NA,NA,NA,NA,NA,NA,NA,NA,NA,NA,NA
333a0,Shallow Question,html.Page,3_0_1_0_0_1_0,NA,NA,form submission,5370.1790000477,1421230.3999999,1421224.405,1421240.521,1426610.7,1426610.8999999,2023-06-04T16:43:00Z,1426624.134,NULL,Schönheit,kirembo,s,mahojiano,msisimko,jitihadi,kirembo,NA,NA,1,NA,NA,NA,NA,NA,NA,NA,NA,NA,NA,NA,NA,NA,NA,NA,NA,NA,NA,NA
333a0,"""Richtig""-Screen",canvas.Screen,3_0_1_0_0_1_1,NA,NA,timeout,4999.6209999998,1426613.3,1426606.822,1426624.134,1431606.843,1431608,2023-06-04T16:43:05Z,1431623.755,NULL,Schönheit,kirembo,s,mahojiano,msisimko,jitihadi,NA,sdfdsf,1,1,NA,NA,NA,NA,NA,NA,NA,NA,NA,NA,NA,NA,NA,NA,NA,NA,NA,NA,NA
333a0,"""Falsch""-Screen",canvas.Screen,3_0_1_0_0_1_2,NA,NA,skipped,NA,1431613.3,NA,NA,1431606.843,1431613.3,2023-06-04T16:43:05Z,1431623.755,NULL,Schönheit,kirembo,s,mahojiano,msisimko,jitihadi,NA,sdfdsf,NA,1,NA,NA,NA,NA,NA,NA,NA,NA,NA,NA,NA,NA,NA,NA,NA,NA,NA,NA,NA
333a0,shallow,flow.Sequence,3_0_1_0_0_1,NA,NA,completion,10366.322,1421230.3999999,1421224.405,1421240.521,1431606.843,1431613.5,2023-06-04T16:43:05Z,1431623.755,NULL,Schönheit,kirembo,s,mahojiano,msisimko,jitihadi,NA,sdfdsf,NA,1,NA,NA,NA,NA,NA,NA,NA,NA,NA,NA,NA,NA,NA,NA,NA,NA,NA,NA,NA
333a0,task,flow.Sequence,3_0_1_0_0,NA,NA,completion,10366.322,1421230.2,1421224.405,1421240.521,1431606.843,1431613.5999999,2023-06-04T16:43:05Z,1431623.755,NULL,Schönheit,kirembo,s,mahojiano,msisimko,jitihadi,NA,sdfdsf,NA,1,NA,NA,NA,NA,NA,NA,NA,NA,NA,NA,NA,NA,NA,NA,NA,NA,NA,NA,NA
333a0,deep,flow.Sequence,3_0_1_0_1_0,NA,NA,skipped,NA,1431613.7,NA,NA,1431606.843,1431613.7,2023-06-04T16:43:05Z,1431623.755,NULL,Abrechnung,uhasibu,s,kusahihisha,mpambano,mashambulizi,NA,sdfdsf,NA,1,NA,NA,NA,NA,NA,NA,NA,NA,NA,NA,NA,NA,NA,NA,NA,NA,NA,NA,NA
333a0,Shallow Question,html.Page,3_0_1_0_1_1_0,NA,NA,form submission,6407.2450000001,1431613.8,1431606.843,1431623.755,1438031,1438031.2,2023-06-04T16:43:12Z,1438039.307,NULL,Abrechnung,uhasibu,s,kusahihisha,mpambano,mashambulizi,uhasibu,NA,NA,1,NA,NA,NA,NA,NA,NA,NA,NA,NA,NA,NA,NA,NA,NA,NA,NA,NA,NA,NA
333a0,"""Richtig""-Screen",canvas.Screen,3_0_1_0_1_1_1,NA,NA,timeout,4999.628,1438033.5999999,1438023.175,1438039.307,1443022.877,1443023.5,2023-06-04T16:43:17Z,1443038.935,NULL,Abrechnung,uhasibu,s,kusahihisha,mpambano,mashambulizi,NA,sdfdsf,1,1,NA,NA,NA,NA,NA,NA,NA,NA,NA,NA,NA,NA,NA,NA,NA,NA,NA,NA,NA
333a0,"""Falsch""-Screen",canvas.Screen,3_0_1_0_1_1_2,NA,NA,skipped,NA,1443025.7,NA,NA,1443022.877,1443025.8,2023-06-04T16:43:17Z,1443038.935,NULL,Abrechnung,uhasibu,s,kusahihisha,mpambano,mashambulizi,NA,sdfdsf,NA,1,NA,NA,NA,NA,NA,NA,NA,NA,NA,NA,NA,NA,NA,NA,NA,NA,NA,NA,NA
333a0,shallow,flow.Sequence,3_0_1_0_1_1,NA,NA,completion,11399.122,1431613.7,1431606.843,1431623.755,1443022.877,1443026,2023-06-04T16:43:17Z,1443038.935,NULL,Abrechnung,uhasibu,s,kusahihisha,mpambano,mashambulizi,NA,sdfdsf,NA,1,NA,NA,NA,NA,NA,NA,NA,NA,NA,NA,NA,NA,NA,NA,NA,NA,NA,NA,NA
333a0,task,flow.Sequence,3_0_1_0_1,NA,NA,completion,11399.122,1431613.7,1431606.843,1431623.755,1443022.877,1443026.2,2023-06-04T16:43:17Z,1443038.935,NULL,Abrechnung,uhasibu,s,kusahihisha,mpambano,mashambulizi,NA,sdfdsf,NA,1,NA,NA,NA,NA,NA,NA,NA,NA,NA,NA,NA,NA,NA,NA,NA,NA,NA,NA,NA
333a0,Deep Question,html.Page,3_0_1_0_2_0_0,NA,NA,form submission,9830.0649999999,1443026.3999999,1443022.877,1443038.935,1452869,1452869.0999999,2023-06-04T16:43:27Z,1452871.573,NULL,Angreifer,mshambulizi,d,NA,NA,NA,mshabiju,NA,NA,1,NA,NA,NA,NA,NA,NA,NA,NA,NA,NA,NA,NA,NA,NA,NA,NA,NA,NA,NA
333a0,"""Richtig""-Screen",canvas.Screen,3_0_1_0_2_0_1,NA,NA,skipped,NA,1452871.3999999,NA,NA,1452869,1452871.5,2023-06-04T16:43:27Z,1452871.573,NULL,Angreifer,mshambulizi,d,NA,NA,NA,NA,sdfdsf,NA,1,NA,NA,NA,NA,NA,NA,NA,NA,NA,NA,NA,NA,NA,NA,NA,NA,NA,NA,NA
333a0,"""Falsch""-Screen",canvas.Screen,3_0_1_0_2_0_2,NA,NA,timeout,5000.0589999999,1452872.3,1452855.54,1452871.573,1457854.564,1457855.0999999,2023-06-04T16:43:32Z,1457871.632,NULL,Angreifer,mshambulizi,d,NA,NA,NA,NA,sdfdsf,0,1,NA,NA,NA,NA,NA,NA,NA,NA,NA,NA,NA,NA,NA,NA,NA,NA,NA,NA,NA
333a0,deep,flow.Sequence,3_0_1_0_2_0,NA,NA,completion,14815.629,1443026.3999999,1443022.877,1443038.935,1457854.564,1457855.3999999,2023-06-04T16:43:32Z,1457871.632,NULL,Angreifer,mshambulizi,d,NA,NA,NA,NA,sdfdsf,NA,1,NA,NA,NA,NA,NA,NA,NA,NA,NA,NA,NA,NA,NA,NA,NA,NA,NA,NA,NA
333a0,shallow,flow.Sequence,3_0_1_0_2_1,NA,NA,skipped,NA,1457855.3999999,NA,NA,1457854.564,1457855.5,2023-06-04T16:43:32Z,1457871.632,NULL,Angreifer,mshambulizi,d,NA,NA,NA,NA,sdfdsf,NA,1,NA,NA,NA,NA,NA,NA,NA,NA,NA,NA,NA,NA,NA,NA,NA,NA,NA,NA,NA
333a0,task,flow.Sequence,3_0_1_0_2,NA,NA,completion,14815.629,1443026.3,1443022.877,1443038.935,1457854.564,1457855.5,2023-06-04T16:43:32Z,1457871.632,NULL,Angreifer,mshambulizi,d,NA,NA,NA,NA,sdfdsf,NA,1,NA,NA,NA,NA,NA,NA,NA,NA,NA,NA,NA,NA,NA,NA,NA,NA,NA,NA,NA
333a0,Deep Question,html.Page,3_0_1_0_3_0_0,NA,NA,form submission,5331.6679999523,1457855.7,1457854.564,1457871.632,1463203.3,1463203.5999999,2023-06-04T16:43:37Z,1463221.265,NULL,Sänger,mwimbaji,d,NA,NA,NA,ma,NA,NA,1,NA,NA,NA,NA,NA,NA,NA,NA,NA,NA,NA,NA,NA,NA,NA,NA,NA,NA,NA
333a0,"""Richtig""-Screen",canvas.Screen,3_0_1_0_3_0_1,NA,NA,skipped,NA,1463206.0999999,NA,NA,1463203.3,1463206.3,2023-06-04T16:43:37Z,1463221.265,NULL,Sänger,mwimbaji,d,NA,NA,NA,NA,sdfdsf,NA,1,NA,NA,NA,NA,NA,NA,NA,NA,NA,NA,NA,NA,NA,NA,NA,NA,NA,NA,NA
333a0,"""Falsch""-Screen",canvas.Screen,3_0_1_0_3_0_2,NA,NA,timeout,4999.4450000001,1463207.5,1463204.119,1463221.265,1468203.984,1468204.5999999,2023-06-04T16:43:42Z,1468220.71,NULL,Sänger,mwimbaji,d,NA,NA,NA,NA,sdfdsf,0,1,NA,NA,NA,NA,NA,NA,NA,NA,NA,NA,NA,NA,NA,NA,NA,NA,NA,NA,NA
333a0,deep,flow.Sequence,3_0_1_0_3_0,NA,NA,completion,10332.352,1457855.5999999,1457854.564,1457871.632,1468203.984,1468204.7,2023-06-04T16:43:42Z,1468220.71,NULL,Sänger,mwimbaji,d,NA,NA,NA,NA,sdfdsf,NA,1,NA,NA,NA,NA,NA,NA,NA,NA,NA,NA,NA,NA,NA,NA,NA,NA,NA,NA,NA
333a0,shallow,flow.Sequence,3_0_1_0_3_1,NA,NA,skipped,NA,1468204.8999999,NA,NA,1468203.984,1468204.8999999,2023-06-04T16:43:42Z,1468220.71,NULL,Sänger,mwimbaji,d,NA,NA,NA,NA,sdfdsf,NA,1,NA,NA,NA,NA,NA,NA,NA,NA,NA,NA,NA,NA,NA,NA,NA,NA,NA,NA,NA
333a0,task,flow.Sequence,3_0_1_0_3,NA,NA,completion,10332.352,1457855.5999999,1457854.564,1457871.632,1468203.984,1468205,2023-06-04T16:43:42Z,1468220.71,NULL,Sänger,mwimbaji,d,NA,NA,NA,NA,sdfdsf,NA,1,NA,NA,NA,NA,NA,NA,NA,NA,NA,NA,NA,NA,NA,NA,NA,NA,NA,NA,NA
333a0,Deep Question,html.Page,3_0_1_0_4_0_0,NA,NA,form submission,3643.189999857,1468205.0999999,1468203.984,1468220.71,1471863.8999999,1471864.2,2023-06-04T16:43:46Z,1471870.225,NULL,Wettbewerb,ushindani,d,NA,NA,NA,d,NA,NA,1,NA,NA,NA,NA,NA,NA,NA,NA,NA,NA,NA,NA,NA,NA,NA,NA,NA,NA,NA
333a0,"""Richtig""-Screen",canvas.Screen,3_0_1_0_4_0_1,NA,NA,skipped,NA,1471866.3999999,NA,NA,1471863.8999999,1471866.5999999,2023-06-04T16:43:46Z,1471870.225,NULL,Wettbewerb,ushindani,d,NA,NA,NA,NA,sdfdsf,NA,1,NA,NA,NA,NA,NA,NA,NA,NA,NA,NA,NA,NA,NA,NA,NA,NA,NA,NA,NA
333a0,"""Falsch""-Screen",canvas.Screen,3_0_1_0_4_0_2,NA,NA,timeout,4999.9689999998,1471867.2,1471853.654,1471870.225,1476853.598,1476854.7,2023-06-04T16:43:51Z,1476870.194,NULL,Wettbewerb,ushindani,d,NA,NA,NA,NA,sdfdsf,0,1,NA,NA,NA,NA,NA,NA,NA,NA,NA,NA,NA,NA,NA,NA,NA,NA,NA,NA,NA
333a0,deep,flow.Sequence,3_0_1_0_4_0,NA,NA,completion,8632.888,1468205.0999999,1468203.984,1468220.71,1476853.598,1476855.2,2023-06-04T16:43:51Z,1476870.194,NULL,Wettbewerb,ushindani,d,NA,NA,NA,NA,sdfdsf,NA,1,NA,NA,NA,NA,NA,NA,NA,NA,NA,NA,NA,NA,NA,NA,NA,NA,NA,NA,NA
333a0,shallow,flow.Sequence,3_0_1_0_4_1,NA,NA,skipped,NA,1476855.3999999,NA,NA,1476853.598,1476855.5999999,2023-06-04T16:43:51Z,1476870.194,NULL,Wettbewerb,ushindani,d,NA,NA,NA,NA,sdfdsf,NA,1,NA,NA,NA,NA,NA,NA,NA,NA,NA,NA,NA,NA,NA,NA,NA,NA,NA,NA,NA
333a0,task,flow.Sequence,3_0_1_0_4,NA,NA,completion,8632.888,1468205.0999999,1468203.984,1468220.71,1476853.598,1476856,2023-06-04T16:43:51Z,1476870.194,NULL,Wettbewerb,ushindani,d,NA,NA,NA,NA,sdfdsf,NA,1,NA,NA,NA,NA,NA,NA,NA,NA,NA,NA,NA,NA,NA,NA,NA,NA,NA,NA,NA
333a0,deep,flow.Sequence,3_0_1_0_5_0,NA,NA,skipped,NA,1476856.0999999,NA,NA,1476853.598,1476856.3,2023-06-04T16:43:51Z,1476870.194,NULL,Kanzler,diwani,s,rasilmali,mahitaji,maabudu,NA,sdfdsf,NA,1,NA,NA,NA,NA,NA,NA,NA,NA,NA,NA,NA,NA,NA,NA,NA,NA,NA,NA,NA
333a0,Shallow Question,html.Page,3_0_1_0_5_1_0,NA,NA,form submission,4715.0060000478,1476856.5,1476853.598,1476870.194,1481585.2,1481585.5,2023-06-04T16:43:55Z,1481586.159,NULL,Kanzler,diwani,s,rasilmali,mahitaji,maabudu,diwani,NA,NA,1,NA,NA,NA,NA,NA,NA,NA,NA,NA,NA,NA,NA,NA,NA,NA,NA,NA,NA,NA
333a0,"""Richtig""-Screen",canvas.Screen,3_0_1_0_5_1_1,NA,NA,timeout,4999.993,1481587.8999999,1481569.865,1481586.159,1486569.183,1486570.8999999,2023-06-04T16:44:00Z,1486586.152,NULL,Kanzler,diwani,s,rasilmali,mahitaji,maabudu,NA,sdfdsf,1,1,NA,NA,NA,NA,NA,NA,NA,NA,NA,NA,NA,NA,NA,NA,NA,NA,NA,NA,NA
333a0,"""Falsch""-Screen",canvas.Screen,3_0_1_0_5_1_2,NA,NA,skipped,NA,1486575.0999999,NA,NA,1486569.183,1486575.3,2023-06-04T16:44:00Z,1486586.152,NULL,Kanzler,diwani,s,rasilmali,mahitaji,maabudu,NA,sdfdsf,NA,1,NA,NA,NA,NA,NA,NA,NA,NA,NA,NA,NA,NA,NA,NA,NA,NA,NA,NA,NA
333a0,shallow,flow.Sequence,3_0_1_0_5_1,NA,NA,completion,9698.9890000001,1476856.3999999,1476853.598,1476870.194,1486569.183,1486575.3999999,2023-06-04T16:44:00Z,1486586.152,NULL,Kanzler,diwani,s,rasilmali,mahitaji,maabudu,NA,sdfdsf,NA,1,NA,NA,NA,NA,NA,NA,NA,NA,NA,NA,NA,NA,NA,NA,NA,NA,NA,NA,NA
333a0,task,flow.Sequence,3_0_1_0_5,NA,NA,completion,9698.9890000001,1476856.0999999,1476853.598,1476870.194,1486569.183,1486575.3999999,2023-06-04T16:44:00Z,1486586.152,NULL,Kanzler,diwani,s,rasilmali,mahitaji,maabudu,NA,sdfdsf,NA,1,NA,NA,NA,NA,NA,NA,NA,NA,NA,NA,NA,NA,NA,NA,NA,NA,NA,NA,NA
333a0,Deep Question,html.Page,3_0_1_0_6_0_0,NA,NA,form submission,7579.5480000477,1486575.5,1486569.183,1486586.152,1494165.7,1494166,2023-06-04T16:44:08Z,1494168.578,NULL,Auftrag,uagizaji,d,NA,NA,NA,ushimbanij,NA,NA,1,NA,NA,NA,NA,NA,NA,NA,NA,NA,NA,NA,NA,NA,NA,NA,NA,NA,NA,NA
333a0,"""Richtig""-Screen",canvas.Screen,3_0_1_0_6_0_1,NA,NA,skipped,NA,1494168.3,NA,NA,1494165.7,1494168.5,2023-06-04T16:44:08Z,1494168.578,NULL,Auftrag,uagizaji,d,NA,NA,NA,NA,sdfdsf,NA,1,NA,NA,NA,NA,NA,NA,NA,NA,NA,NA,NA,NA,NA,NA,NA,NA,NA,NA,NA
333a0,"""Falsch""-Screen",canvas.Screen,3_0_1_0_6_0_2,NA,NA,timeout,5000.2849999999,1494169.2,1494152.166,1494168.578,1499151.905,1499153,2023-06-04T16:44:13Z,1499168.863,NULL,Auftrag,uagizaji,d,NA,NA,NA,NA,sdfdsf,0,1,NA,NA,NA,NA,NA,NA,NA,NA,NA,NA,NA,NA,NA,NA,NA,NA,NA,NA,NA
333a0,deep,flow.Sequence,3_0_1_0_6_0,NA,NA,completion,12565.753,1486575.5,1486569.183,1486586.152,1499151.905,1499153.3999999,2023-06-04T16:44:13Z,1499168.863,NULL,Auftrag,uagizaji,d,NA,NA,NA,NA,sdfdsf,NA,1,NA,NA,NA,NA,NA,NA,NA,NA,NA,NA,NA,NA,NA,NA,NA,NA,NA,NA,NA
333a0,shallow,flow.Sequence,3_0_1_0_6_1,NA,NA,skipped,NA,1499153.5,NA,NA,1499151.905,1499153.7,2023-06-04T16:44:13Z,1499168.863,NULL,Auftrag,uagizaji,d,NA,NA,NA,NA,sdfdsf,NA,1,NA,NA,NA,NA,NA,NA,NA,NA,NA,NA,NA,NA,NA,NA,NA,NA,NA,NA,NA
333a0,task,flow.Sequence,3_0_1_0_6,NA,NA,completion,12565.753,1486575.5,1486569.183,1486586.152,1499151.905,1499154,2023-06-04T16:44:13Z,1499168.863,NULL,Auftrag,uagizaji,d,NA,NA,NA,NA,sdfdsf,NA,1,NA,NA,NA,NA,NA,NA,NA,NA,NA,NA,NA,NA,NA,NA,NA,NA,NA,NA,NA
333a0,deep,flow.Sequence,3_0_1_0_7_0,NA,NA,skipped,NA,1499154.3,NA,NA,1499151.905,1499154.3999999,2023-06-04T16:44:13Z,1499168.863,NULL,Zufall,kikuti,s,kukosekana,uchoraji,leseni,NA,sdfdsf,NA,1,NA,NA,NA,NA,NA,NA,NA,NA,NA,NA,NA,NA,NA,NA,NA,NA,NA,NA,NA
333a0,Shallow Question,html.Page,3_0_1_0_7_1_0,NA,NA,form submission,9269.8370000478,1499154.5999999,1499151.905,1499168.863,1508438.7,1508438.8999999,2023-06-04T16:44:22Z,1508451.244,NULL,Zufall,kikuti,s,kukosekana,uchoraji,leseni,leseni,NA,NA,1,NA,NA,NA,NA,NA,NA,NA,NA,NA,NA,NA,NA,NA,NA,NA,NA,NA,NA,NA
333a0,"""Richtig""-Screen",canvas.Screen,3_0_1_0_7_1_1,NA,NA,skipped,NA,1508441.0999999,NA,NA,1508438.7,1508441.3,2023-06-04T16:44:22Z,1508451.244,NULL,Zufall,kikuti,s,kukosekana,uchoraji,leseni,NA,sdfdsf,NA,1,NA,NA,NA,NA,NA,NA,NA,NA,NA,NA,NA,NA,NA,NA,NA,NA,NA,NA,NA
333a0,"""Falsch""-Screen",canvas.Screen,3_0_1_0_7_1_2,NA,NA,timeout,4999.345,1508441.8999999,1508434.681,1508451.244,1513433.945,1513434.8999999,2023-06-04T16:44:27Z,1513450.589,NULL,Zufall,kikuti,s,kukosekana,uchoraji,leseni,NA,sdfdsf,0,1,NA,NA,NA,NA,NA,NA,NA,NA,NA,NA,NA,NA,NA,NA,NA,NA,NA,NA,NA
333a0,shallow,flow.Sequence,3_0_1_0_7_1,NA,NA,completion,14265.082,1499154.5,1499151.905,1499168.863,1513433.945,1513435.3,2023-06-04T16:44:27Z,1513450.589,NULL,Zufall,kikuti,s,kukosekana,uchoraji,leseni,NA,sdfdsf,NA,1,NA,NA,NA,NA,NA,NA,NA,NA,NA,NA,NA,NA,NA,NA,NA,NA,NA,NA,NA
333a0,task,flow.Sequence,3_0_1_0_7,NA,NA,completion,14265.082,1499154.2,1499151.905,1499168.863,1513433.945,1513435.5,2023-06-04T16:44:27Z,1513450.589,NULL,Zufall,kikuti,s,kukosekana,uchoraji,leseni,NA,sdfdsf,NA,1,NA,NA,NA,NA,NA,NA,NA,NA,NA,NA,NA,NA,NA,NA,NA,NA,NA,NA,NA
333a0,block,flow.Loop,3_0_1_0,NA,NA,completion,92193.424,1421230.2,1421224.405,1421240.521,1513433.945,1513435.8999999,2023-06-04T16:44:27Z,1513450.589,NULL,NA,NA,NA,NA,NA,NA,NA,sdfdsf,NA,1,NA,NA,NA,NA,NA,NA,NA,NA,NA,NA,NA,NA,NA,NA,NA,NA,NA,NA,NA
333a0,weiter,canvas.Screen,3_0_1_1,sdf,keypress(Space),response,1387.1110000478,1513436,1513433.945,1513450.589,1514837.7,1514838.8999999,2023-06-04T16:44:29Z,1514900.687,NULL,NA,NA,NA,NA,NA,NA,NA,sdfdsf,NA,1,NA,NA,NA,NA,NA,NA,NA,NA,NA,NA,NA,NA,NA,NA,NA,NA,NA,NA,NA
333a0,check continue,flow.Sequence,3_0_1,NA,NA,completion,93597.179000048,1421230.0999999,1421224.405,1421240.521,1514837.7,1514839.3,2023-06-04T16:44:29Z,1514900.687,NULL,NA,NA,NA,NA,NA,NA,NA,sdfdsf,NA,1,NA,NA,NA,NA,NA,NA,NA,NA,NA,NA,NA,NA,NA,NA,NA,NA,NA,NA,NA
333a0,Deep Question,html.Page,3_0_2_0_0_0_0,NA,NA,form submission,8748.4129999047,1514886.3,1514884.173,1514900.687,1523649.0999999,1523649.3999999,2023-06-04T16:44:37Z,1523667.061,NULL,Angreifer,mshambulizi,d,NA,NA,NA,ushangji,NA,NA,2,NA,NA,NA,NA,NA,NA,NA,NA,NA,NA,NA,NA,NA,NA,NA,NA,NA,NA,NA
333a0,"""Richtig""-Screen",canvas.Screen,3_0_2_0_0_0_1,NA,NA,skipped,NA,1523651.7,NA,NA,1523649.0999999,1523651.8999999,2023-06-04T16:44:37Z,1523667.061,NULL,Angreifer,mshambulizi,d,NA,NA,NA,NA,sdf,NA,2,NA,NA,NA,NA,NA,NA,NA,NA,NA,NA,NA,NA,NA,NA,NA,NA,NA,NA,NA
333a0,"""Falsch""-Screen",canvas.Screen,3_0_2_0_0_0_2,NA,NA,timeout,4999.713,1523652.5999999,1523633.726,1523667.061,1528649.764,1528650.8,2023-06-04T16:44:42Z,1528666.774,NULL,Angreifer,mshambulizi,d,NA,NA,NA,NA,sdf,0,2,NA,NA,NA,NA,NA,NA,NA,NA,NA,NA,NA,NA,NA,NA,NA,NA,NA,NA,NA
333a0,deep,flow.Sequence,3_0_2_0_0_0,NA,NA,completion,13749.077,1514886.3,1514884.173,1514900.687,1528649.764,1528651.3,2023-06-04T16:44:42Z,1528666.774,NULL,Angreifer,mshambulizi,d,NA,NA,NA,NA,sdf,NA,2,NA,NA,NA,NA,NA,NA,NA,NA,NA,NA,NA,NA,NA,NA,NA,NA,NA,NA,NA
333a0,shallow,flow.Sequence,3_0_2_0_0_1,NA,NA,skipped,NA,1528651.3999999,NA,NA,1528649.764,1528651.5999999,2023-06-04T16:44:42Z,1528666.774,NULL,Angreifer,mshambulizi,d,NA,NA,NA,NA,sdf,NA,2,NA,NA,NA,NA,NA,NA,NA,NA,NA,NA,NA,NA,NA,NA,NA,NA,NA,NA,NA
333a0,task,flow.Sequence,3_0_2_0_0,NA,NA,completion,13749.077,1514886.2,1514884.173,1514900.687,1528649.764,1528651.8,2023-06-04T16:44:42Z,1528666.774,NULL,Angreifer,mshambulizi,d,NA,NA,NA,NA,sdf,NA,2,NA,NA,NA,NA,NA,NA,NA,NA,NA,NA,NA,NA,NA,NA,NA,NA,NA,NA,NA
333a0,deep,flow.Sequence,3_0_2_0_1_0,NA,NA,skipped,NA,1528652,NA,NA,1528649.764,1528652.0999999,2023-06-04T16:44:42Z,1528666.774,NULL,Abrechnung,uhasibu,s,kusahihisha,mpambano,mashambulizi,NA,sdf,NA,2,NA,NA,NA,NA,NA,NA,NA,NA,NA,NA,NA,NA,NA,NA,NA,NA,NA,NA,NA
333a0,Shallow Question,html.Page,3_0_2_0_1_1_0,NA,NA,form submission,9235.5259999523,1528652.3,1528649.764,1528666.774,1537902.3,1537902.5999999,2023-06-04T16:44:52Z,1537915.786,NULL,Abrechnung,uhasibu,s,kusahihisha,mpambano,mashambulizi,uhasibu,NA,NA,2,NA,NA,NA,NA,NA,NA,NA,NA,NA,NA,NA,NA,NA,NA,NA,NA,NA,NA,NA
333a0,"""Richtig""-Screen",canvas.Screen,3_0_2_0_1_1_1,NA,NA,timeout,4999.287,1537905.3999999,1537898.752,1537915.786,1542898.395,1542898.8999999,2023-06-04T16:44:57Z,1542915.073,NULL,Abrechnung,uhasibu,s,kusahihisha,mpambano,mashambulizi,NA,sdf,1,2,NA,NA,NA,NA,NA,NA,NA,NA,NA,NA,NA,NA,NA,NA,NA,NA,NA,NA,NA
333a0,"""Falsch""-Screen",canvas.Screen,3_0_2_0_1_1_2,NA,NA,skipped,NA,1542900.7,NA,NA,1542898.395,1542900.8,2023-06-04T16:44:57Z,1542915.073,NULL,Abrechnung,uhasibu,s,kusahihisha,mpambano,mashambulizi,NA,sdf,NA,2,NA,NA,NA,NA,NA,NA,NA,NA,NA,NA,NA,NA,NA,NA,NA,NA,NA,NA,NA
333a0,shallow,flow.Sequence,3_0_2_0_1_1,NA,NA,completion,14231.621,1528652.3,1528649.764,1528666.774,1542898.395,1542901,2023-06-04T16:44:57Z,1542915.073,NULL,Abrechnung,uhasibu,s,kusahihisha,mpambano,mashambulizi,NA,sdf,NA,2,NA,NA,NA,NA,NA,NA,NA,NA,NA,NA,NA,NA,NA,NA,NA,NA,NA,NA,NA
333a0,task,flow.Sequence,3_0_2_0_1,NA,NA,completion,14231.621,1528652,1528649.764,1528666.774,1542898.395,1542901.0999999,2023-06-04T16:44:57Z,1542915.073,NULL,Abrechnung,uhasibu,s,kusahihisha,mpambano,mashambulizi,NA,sdf,NA,2,NA,NA,NA,NA,NA,NA,NA,NA,NA,NA,NA,NA,NA,NA,NA,NA,NA,NA,NA
333a0,deep,flow.Sequence,3_0_2_0_2_0,NA,NA,skipped,NA,1542901.0999999,NA,NA,1542898.395,1542901.2,2023-06-04T16:44:57Z,1542915.073,NULL,Kanzler,diwani,s,rasilmali,mahitaji,maabudu,NA,sdf,NA,2,NA,NA,NA,NA,NA,NA,NA,NA,NA,NA,NA,NA,NA,NA,NA,NA,NA,NA,NA
333a0,Shallow Question,html.Page,3_0_2_0_2_1_0,NA,NA,form submission,5372.1270000476,1542901.2,1542898.395,1542915.073,1548287.2,1548287.3999999,2023-06-04T16:45:02Z,1548298.278,NULL,Kanzler,diwani,s,rasilmali,mahitaji,maabudu,diwani,NA,NA,2,NA,NA,NA,NA,NA,NA,NA,NA,NA,NA,NA,NA,NA,NA,NA,NA,NA,NA,NA
333a0,"""Richtig""-Screen",canvas.Screen,3_0_2_0_2_1_1,NA,NA,timeout,4999.453,1548289.7,1548281.778,1548298.278,1553281.065,1553282.3,2023-06-04T16:45:07Z,1553297.731,NULL,Kanzler,diwani,s,rasilmali,mahitaji,maabudu,NA,sdf,1,2,NA,NA,NA,NA,NA,NA,NA,NA,NA,NA,NA,NA,NA,NA,NA,NA,NA,NA,NA
333a0,"""Falsch""-Screen",canvas.Screen,3_0_2_0_2_1_2,NA,NA,skipped,NA,1553287.8999999,NA,NA,1553281.065,1553288.0999999,2023-06-04T16:45:07Z,1553297.731,NULL,Kanzler,diwani,s,rasilmali,mahitaji,maabudu,NA,sdf,NA,2,NA,NA,NA,NA,NA,NA,NA,NA,NA,NA,NA,NA,NA,NA,NA,NA,NA,NA,NA
333a0,shallow,flow.Sequence,3_0_2_0_2_1,NA,NA,completion,10365.992,1542901.2,1542898.395,1542915.073,1553281.065,1553288.3999999,2023-06-04T16:45:07Z,1553297.731,NULL,Kanzler,diwani,s,rasilmali,mahitaji,maabudu,NA,sdf,NA,2,NA,NA,NA,NA,NA,NA,NA,NA,NA,NA,NA,NA,NA,NA,NA,NA,NA,NA,NA
333a0,task,flow.Sequence,3_0_2_0_2,NA,NA,completion,10365.992,1542901.0999999,1542898.395,1542915.073,1553281.065,1553288.7,2023-06-04T16:45:07Z,1553297.731,NULL,Kanzler,diwani,s,rasilmali,mahitaji,maabudu,NA,sdf,NA,2,NA,NA,NA,NA,NA,NA,NA,NA,NA,NA,NA,NA,NA,NA,NA,NA,NA,NA,NA
333a0,Deep Question,html.Page,3_0_2_0_3_0_0,NA,NA,form submission,6671.4690000478,1553289,1553281.065,1553297.731,1559969.2,1559969.3999999,2023-06-04T16:45:14Z,1559980.83,NULL,Wettbewerb,ushindani,d,NA,NA,NA,mshambuji,NA,NA,2,NA,NA,NA,NA,NA,NA,NA,NA,NA,NA,NA,NA,NA,NA,NA,NA,NA,NA,NA
333a0,"""Richtig""-Screen",canvas.Screen,3_0_2_0_3_0_1,NA,NA,skipped,NA,1559971.7,NA,NA,1559969.2,1559971.8999999,2023-06-04T16:45:14Z,1559980.83,NULL,Wettbewerb,ushindani,d,NA,NA,NA,NA,sdf,NA,2,NA,NA,NA,NA,NA,NA,NA,NA,NA,NA,NA,NA,NA,NA,NA,NA,NA,NA,NA
333a0,"""Falsch""-Screen",canvas.Screen,3_0_2_0_3_0_2,NA,NA,timeout,4999.5929999999,1559972.5,1559964.406,1559980.83,1564963.791,1564964.8999999,2023-06-04T16:45:19Z,1564980.423,NULL,Wettbewerb,ushindani,d,NA,NA,NA,NA,sdf,0,2,NA,NA,NA,NA,NA,NA,NA,NA,NA,NA,NA,NA,NA,NA,NA,NA,NA,NA,NA
333a0,deep,flow.Sequence,3_0_2_0_3_0,NA,NA,completion,11666.06,1553288.8999999,1553281.065,1553297.731,1564963.791,1564965.3,2023-06-04T16:45:19Z,1564980.423,NULL,Wettbewerb,ushindani,d,NA,NA,NA,NA,sdf,NA,2,NA,NA,NA,NA,NA,NA,NA,NA,NA,NA,NA,NA,NA,NA,NA,NA,NA,NA,NA
333a0,shallow,flow.Sequence,3_0_2_0_3_1,NA,NA,skipped,NA,1564965.3999999,NA,NA,1564963.791,1564965.7,2023-06-04T16:45:19Z,1564980.423,NULL,Wettbewerb,ushindani,d,NA,NA,NA,NA,sdf,NA,2,NA,NA,NA,NA,NA,NA,NA,NA,NA,NA,NA,NA,NA,NA,NA,NA,NA,NA,NA
333a0,task,flow.Sequence,3_0_2_0_3,NA,NA,completion,11666.06,1553288.7,1553281.065,1553297.731,1564963.791,1564966,2023-06-04T16:45:19Z,1564980.423,NULL,Wettbewerb,ushindani,d,NA,NA,NA,NA,sdf,NA,2,NA,NA,NA,NA,NA,NA,NA,NA,NA,NA,NA,NA,NA,NA,NA,NA,NA,NA,NA
333a0,deep,flow.Sequence,3_0_2_0_4_0,NA,NA,skipped,NA,1564966.0999999,NA,NA,1564963.791,1564966.2,2023-06-04T16:45:19Z,1564980.423,NULL,Zufall,kikuti,s,kukosekana,uchoraji,leseni,NA,sdf,NA,2,NA,NA,NA,NA,NA,NA,NA,NA,NA,NA,NA,NA,NA,NA,NA,NA,NA,NA,NA
333a0,Shallow Question,html.Page,3_0_2_0_4_1_0,NA,NA,form submission,4880.577,1564966.3999999,1564963.791,1564980.423,1569861,1569861.0999999,2023-06-04T16:45:24Z,1569863.105,NULL,Zufall,kikuti,s,kukosekana,uchoraji,leseni,leseni,NA,NA,2,NA,NA,NA,NA,NA,NA,NA,NA,NA,NA,NA,NA,NA,NA,NA,NA,NA,NA,NA
333a0,"""Richtig""-Screen",canvas.Screen,3_0_2_0_4_1_1,NA,NA,skipped,NA,1569863.3999999,NA,NA,1569861,1569863.5,2023-06-04T16:45:24Z,1569863.105,NULL,Zufall,kikuti,s,kukosekana,uchoraji,leseni,NA,sdf,NA,2,NA,NA,NA,NA,NA,NA,NA,NA,NA,NA,NA,NA,NA,NA,NA,NA,NA,NA,NA
333a0,"""Falsch""-Screen",canvas.Screen,3_0_2_0_4_1_2,NA,NA,timeout,5000.2830000001,1569864.0999999,1569846.649,1569863.105,1574846.674,1574847.8,2023-06-04T16:45:29Z,1574863.388,NULL,Zufall,kikuti,s,kukosekana,uchoraji,leseni,NA,sdf,0,2,NA,NA,NA,NA,NA,NA,NA,NA,NA,NA,NA,NA,NA,NA,NA,NA,NA,NA,NA
333a0,shallow,flow.Sequence,3_0_2_0_4_1,NA,NA,completion,9866.2510000002,1564966.3999999,1564963.791,1564980.423,1574846.674,1574848.3,2023-06-04T16:45:29Z,1574863.388,NULL,Zufall,kikuti,s,kukosekana,uchoraji,leseni,NA,sdf,NA,2,NA,NA,NA,NA,NA,NA,NA,NA,NA,NA,NA,NA,NA,NA,NA,NA,NA,NA,NA
333a0,task,flow.Sequence,3_0_2_0_4,NA,NA,completion,9866.2510000002,1564966,1564963.791,1564980.423,1574846.674,1574848.5999999,2023-06-04T16:45:29Z,1574863.388,NULL,Zufall,kikuti,s,kukosekana,uchoraji,leseni,NA,sdf,NA,2,NA,NA,NA,NA,NA,NA,NA,NA,NA,NA,NA,NA,NA,NA,NA,NA,NA,NA,NA
333a0,Deep Question,html.Page,3_0_2_0_5_0_0,NA,NA,form submission,7451.7119999046,1574848.8,1574846.674,1574863.388,1582315.0999999,1582315.3,2023-06-04T16:45:36Z,1582346.139,NULL,Auftrag,uagizaji,d,NA,NA,NA,mshabubaji,NA,NA,2,NA,NA,NA,NA,NA,NA,NA,NA,NA,NA,NA,NA,NA,NA,NA,NA,NA,NA,NA
333a0,"""Richtig""-Screen",canvas.Screen,3_0_2_0_5_0_1,NA,NA,skipped,NA,1582317.5999999,NA,NA,1582315.0999999,1582317.8,2023-06-04T16:45:36Z,1582346.139,NULL,Auftrag,uagizaji,d,NA,NA,NA,NA,sdf,NA,2,NA,NA,NA,NA,NA,NA,NA,NA,NA,NA,NA,NA,NA,NA,NA,NA,NA,NA,NA
333a0,"""Falsch""-Screen",canvas.Screen,3_0_2_0_5_0_2,NA,NA,timeout,4999.2750000001,1582318.3999999,1582329.406,1582346.139,1587328.54,1587329.5999999,2023-06-04T16:45:41Z,1587345.414,NULL,Auftrag,uagizaji,d,NA,NA,NA,NA,sdf,0,2,NA,NA,NA,NA,NA,NA,NA,NA,NA,NA,NA,NA,NA,NA,NA,NA,NA,NA,NA
333a0,deep,flow.Sequence,3_0_2_0_5_0,NA,NA,completion,12465.152,1574848.8,1574846.674,1574863.388,1587328.54,1587330.3999999,2023-06-04T16:45:41Z,1587345.414,NULL,Auftrag,uagizaji,d,NA,NA,NA,NA,sdf,NA,2,NA,NA,NA,NA,NA,NA,NA,NA,NA,NA,NA,NA,NA,NA,NA,NA,NA,NA,NA
333a0,shallow,flow.Sequence,3_0_2_0_5_1,NA,NA,skipped,NA,1587330.5999999,NA,NA,1587328.54,1587330.8999999,2023-06-04T16:45:41Z,1587345.414,NULL,Auftrag,uagizaji,d,NA,NA,NA,NA,sdf,NA,2,NA,NA,NA,NA,NA,NA,NA,NA,NA,NA,NA,NA,NA,NA,NA,NA,NA,NA,NA
333a0,task,flow.Sequence,3_0_2_0_5,NA,NA,completion,12465.152,1574848.7,1574846.674,1574863.388,1587328.54,1587331.3999999,2023-06-04T16:45:41Z,1587345.414,NULL,Auftrag,uagizaji,d,NA,NA,NA,NA,sdf,NA,2,NA,NA,NA,NA,NA,NA,NA,NA,NA,NA,NA,NA,NA,NA,NA,NA,NA,NA,NA
333a0,Deep Question,html.Page,3_0_2_0_6_0_0,NA,NA,form submission,7281.5859999999,1587331.8,1587328.54,1587345.414,1594627,1594627.0999999,2023-06-04T16:45:48Z,1594627.988,NULL,Sänger,mwimbaji,d,NA,NA,NA,mshabuji,NA,NA,2,NA,NA,NA,NA,NA,NA,NA,NA,NA,NA,NA,NA,NA,NA,NA,NA,NA,NA,NA
333a0,"""Richtig""-Screen",canvas.Screen,3_0_2_0_6_0_1,NA,NA,skipped,NA,1594629.7,NA,NA,1594627,1594629.8,2023-06-04T16:45:48Z,1594627.988,NULL,Sänger,mwimbaji,d,NA,NA,NA,NA,sdf,NA,2,NA,NA,NA,NA,NA,NA,NA,NA,NA,NA,NA,NA,NA,NA,NA,NA,NA,NA,NA
333a0,"""Falsch""-Screen",canvas.Screen,3_0_2_0_6_0_2,NA,NA,timeout,4999.645,1594630.5,1594611.739,1594627.988,1599610.964,1599611.3999999,2023-06-04T16:45:53Z,1599627.633,NULL,Sänger,mwimbaji,d,NA,NA,NA,NA,sdf,0,2,NA,NA,NA,NA,NA,NA,NA,NA,NA,NA,NA,NA,NA,NA,NA,NA,NA,NA,NA
333a0,deep,flow.Sequence,3_0_2_0_6_0,NA,NA,completion,12265.55,1587331.8,1587328.54,1587345.414,1599610.964,1599611.5999999,2023-06-04T16:45:53Z,1599627.633,NULL,Sänger,mwimbaji,d,NA,NA,NA,NA,sdf,NA,2,NA,NA,NA,NA,NA,NA,NA,NA,NA,NA,NA,NA,NA,NA,NA,NA,NA,NA,NA
333a0,shallow,flow.Sequence,3_0_2_0_6_1,NA,NA,skipped,NA,1599611.5999999,NA,NA,1599610.964,1599611.7,2023-06-04T16:45:53Z,1599627.633,NULL,Sänger,mwimbaji,d,NA,NA,NA,NA,sdf,NA,2,NA,NA,NA,NA,NA,NA,NA,NA,NA,NA,NA,NA,NA,NA,NA,NA,NA,NA,NA
333a0,task,flow.Sequence,3_0_2_0_6,NA,NA,completion,12265.55,1587331.5999999,1587328.54,1587345.414,1599610.964,1599611.7,2023-06-04T16:45:53Z,1599627.633,NULL,Sänger,mwimbaji,d,NA,NA,NA,NA,sdf,NA,2,NA,NA,NA,NA,NA,NA,NA,NA,NA,NA,NA,NA,NA,NA,NA,NA,NA,NA,NA
333a0,deep,flow.Sequence,3_0_2_0_7_0,NA,NA,skipped,NA,1599611.8,NA,NA,1599610.964,1599611.8,2023-06-04T16:45:53Z,1599627.633,NULL,Schönheit,kirembo,s,mahojiano,msisimko,jitihadi,NA,sdf,NA,2,NA,NA,NA,NA,NA,NA,NA,NA,NA,NA,NA,NA,NA,NA,NA,NA,NA,NA,NA
333a0,Shallow Question,html.Page,3_0_2_0_7_1_0,NA,NA,form submission,6101.766999857,1599611.8999999,1599610.964,1599627.633,1605729.3999999,1605729.5999999,2023-06-04T16:45:59Z,1605744.523,NULL,Schönheit,kirembo,s,mahojiano,msisimko,jitihadi,kirembo,NA,NA,2,NA,NA,NA,NA,NA,NA,NA,NA,NA,NA,NA,NA,NA,NA,NA,NA,NA,NA,NA
333a0,"""Richtig""-Screen",canvas.Screen,3_0_2_0_7_1_1,NA,NA,timeout,4999.5689999999,1605731.7,1605727.165,1605744.523,1610727.223,1610727.8999999,2023-06-04T16:46:04Z,1610744.092,NULL,Schönheit,kirembo,s,mahojiano,msisimko,jitihadi,NA,sdf,1,2,NA,NA,NA,NA,NA,NA,NA,NA,NA,NA,NA,NA,NA,NA,NA,NA,NA,NA,NA
333a0,"""Falsch""-Screen",canvas.Screen,3_0_2_0_7_1_2,NA,NA,skipped,NA,1610729.8999999,NA,NA,1610727.223,1610729.8999999,2023-06-04T16:46:04Z,1610744.092,NULL,Schönheit,kirembo,s,mahojiano,msisimko,jitihadi,NA,sdf,NA,2,NA,NA,NA,NA,NA,NA,NA,NA,NA,NA,NA,NA,NA,NA,NA,NA,NA,NA,NA
333a0,shallow,flow.Sequence,3_0_2_0_7_1,NA,NA,completion,11099.59,1599611.8,1599610.964,1599627.633,1610727.223,1610730.0999999,2023-06-04T16:46:04Z,1610744.092,NULL,Schönheit,kirembo,s,mahojiano,msisimko,jitihadi,NA,sdf,NA,2,NA,NA,NA,NA,NA,NA,NA,NA,NA,NA,NA,NA,NA,NA,NA,NA,NA,NA,NA
333a0,task,flow.Sequence,3_0_2_0_7,NA,NA,completion,11099.59,1599611.7,1599610.964,1599627.633,1610727.223,1610730.0999999,2023-06-04T16:46:04Z,1610744.092,NULL,Schönheit,kirembo,s,mahojiano,msisimko,jitihadi,NA,sdf,NA,2,NA,NA,NA,NA,NA,NA,NA,NA,NA,NA,NA,NA,NA,NA,NA,NA,NA,NA,NA
333a0,block,flow.Loop,3_0_2_0,NA,NA,completion,95826.536,1514886.2,1514884.173,1514900.687,1610727.223,1610730.2,2023-06-04T16:46:04Z,1610744.092,NULL,NA,NA,NA,NA,NA,NA,NA,sdf,NA,2,NA,NA,NA,NA,NA,NA,NA,NA,NA,NA,NA,NA,NA,NA,NA,NA,NA,NA,NA
333a0,weiter,canvas.Screen,3_0_2_1,sdf,keypress(Space),response,978.00799990469,1610730.3,1610727.223,1610744.092,1611722.0999999,1611723.0999999,2023-06-04T16:46:05Z,1611777.401,NULL,NA,NA,NA,NA,NA,NA,NA,sdf,NA,2,NA,NA,NA,NA,NA,NA,NA,NA,NA,NA,NA,NA,NA,NA,NA,NA,NA,NA,NA
333a0,check continue,flow.Sequence,3_0_2,NA,NA,completion,96821.412999905,1514886.0999999,1514884.173,1514900.687,1611722.0999999,1611723.3999999,2023-06-04T16:46:05Z,1611777.401,NULL,NA,NA,NA,NA,NA,NA,NA,sdf,NA,2,NA,NA,NA,NA,NA,NA,NA,NA,NA,NA,NA,NA,NA,NA,NA,NA,NA,NA,NA
333a0,deep,flow.Sequence,3_0_3_0_0_0,NA,NA,skipped,NA,1611761.3999999,NA,NA,1611722.0999999,1611761.5,2023-06-04T16:46:05Z,1611777.401,NULL,Schönheit,kirembo,s,mahojiano,msisimko,jitihadi,NA,qt,NA,3,NA,NA,NA,NA,NA,NA,NA,NA,NA,NA,NA,NA,NA,NA,NA,NA,NA,NA,NA
333a0,Shallow Question,html.Page,3_0_3_0_0_1_0,NA,NA,form submission,4254.1989999046,1611761.7,1611760.33,1611777.401,1616031.5999999,1616031.8999999,2023-06-04T16:46:10Z,1616043.664,NULL,Schönheit,kirembo,s,mahojiano,msisimko,jitihadi,kirembo,NA,NA,3,NA,NA,NA,NA,NA,NA,NA,NA,NA,NA,NA,NA,NA,NA,NA,NA,NA,NA,NA
333a0,"""Richtig""-Screen",canvas.Screen,3_0_3_0_0_1_1,NA,NA,timeout,4999.048,1616035,1616027.014,1616043.664,1621026.677,1621027.7,2023-06-04T16:46:15Z,1621042.712,NULL,Schönheit,kirembo,s,mahojiano,msisimko,jitihadi,NA,qt,1,3,NA,NA,NA,NA,NA,NA,NA,NA,NA,NA,NA,NA,NA,NA,NA,NA,NA,NA,NA
333a0,"""Falsch""-Screen",canvas.Screen,3_0_3_0_0_1_2,NA,NA,skipped,NA,1621033.2,NA,NA,1621026.677,1621033.3,2023-06-04T16:46:15Z,1621042.712,NULL,Schönheit,kirembo,s,mahojiano,msisimko,jitihadi,NA,qt,NA,3,NA,NA,NA,NA,NA,NA,NA,NA,NA,NA,NA,NA,NA,NA,NA,NA,NA,NA,NA
333a0,shallow,flow.Sequence,3_0_3_0_0_1,NA,NA,completion,9249.2759999998,1611761.5999999,1611760.33,1611777.401,1621026.677,1621033.3999999,2023-06-04T16:46:15Z,1621042.712,NULL,Schönheit,kirembo,s,mahojiano,msisimko,jitihadi,NA,qt,NA,3,NA,NA,NA,NA,NA,NA,NA,NA,NA,NA,NA,NA,NA,NA,NA,NA,NA,NA,NA
333a0,task,flow.Sequence,3_0_3_0_0,NA,NA,completion,9249.2759999998,1611761.3999999,1611760.33,1611777.401,1621026.677,1621033.5,2023-06-04T16:46:15Z,1621042.712,NULL,Schönheit,kirembo,s,mahojiano,msisimko,jitihadi,NA,qt,NA,3,NA,NA,NA,NA,NA,NA,NA,NA,NA,NA,NA,NA,NA,NA,NA,NA,NA,NA,NA
333a0,deep,flow.Sequence,3_0_3_0_1_0,NA,NA,skipped,NA,1621033.5999999,NA,NA,1621026.677,1621033.5999999,2023-06-04T16:46:15Z,1621042.712,NULL,Zufall,kikuti,s,kukosekana,uchoraji,leseni,NA,qt,NA,3,NA,NA,NA,NA,NA,NA,NA,NA,NA,NA,NA,NA,NA,NA,NA,NA,NA,NA,NA
333a0,Shallow Question,html.Page,3_0_3_0_1_1_0,NA,NA,form submission,8646.8879999046,1621033.7,1621026.677,1621042.712,1629689.5999999,1629689.8,2023-06-04T16:46:23Z,1629692.108,NULL,Zufall,kikuti,s,kukosekana,uchoraji,leseni,kikuti,NA,NA,3,NA,NA,NA,NA,NA,NA,NA,NA,NA,NA,NA,NA,NA,NA,NA,NA,NA,NA,NA
333a0,"""Richtig""-Screen",canvas.Screen,3_0_3_0_1_1_1,NA,NA,timeout,5000.1629999999,1629692.7,1629675.775,1629692.108,1634675.61,1634676.8,2023-06-04T16:46:28Z,1634692.271,NULL,Zufall,kikuti,s,kukosekana,uchoraji,leseni,NA,qt,1,3,NA,NA,NA,NA,NA,NA,NA,NA,NA,NA,NA,NA,NA,NA,NA,NA,NA,NA,NA
333a0,"""Falsch""-Screen",canvas.Screen,3_0_3_0_1_1_2,NA,NA,skipped,NA,1634681.5,NA,NA,1634675.61,1634681.5999999,2023-06-04T16:46:28Z,1634692.271,NULL,Zufall,kikuti,s,kukosekana,uchoraji,leseni,NA,qt,NA,3,NA,NA,NA,NA,NA,NA,NA,NA,NA,NA,NA,NA,NA,NA,NA,NA,NA,NA,NA
333a0,shallow,flow.Sequence,3_0_3_0_1_1,NA,NA,completion,13632.898,1621033.7,1621026.677,1621042.712,1634675.61,1634681.7,2023-06-04T16:46:28Z,1634692.271,NULL,Zufall,kikuti,s,kukosekana,uchoraji,leseni,NA,qt,NA,3,NA,NA,NA,NA,NA,NA,NA,NA,NA,NA,NA,NA,NA,NA,NA,NA,NA,NA,NA
333a0,task,flow.Sequence,3_0_3_0_1,NA,NA,completion,13632.898,1621033.5,1621026.677,1621042.712,1634675.61,1634681.8,2023-06-04T16:46:28Z,1634692.271,NULL,Zufall,kikuti,s,kukosekana,uchoraji,leseni,NA,qt,NA,3,NA,NA,NA,NA,NA,NA,NA,NA,NA,NA,NA,NA,NA,NA,NA,NA,NA,NA,NA
333a0,Deep Question,html.Page,3_0_3_0_2_0_0,NA,NA,form submission,8510.8289999047,1634681.8999999,1634675.61,1634692.271,1643203.0999999,1643203.3,2023-06-04T16:46:37Z,1643207.774,NULL,Angreifer,mshambulizi,d,NA,NA,NA,mshabuzuji,NA,NA,3,NA,NA,NA,NA,NA,NA,NA,NA,NA,NA,NA,NA,NA,NA,NA,NA,NA,NA,NA
333a0,"""Richtig""-Screen",canvas.Screen,3_0_3_0_2_0_1,NA,NA,skipped,NA,1643205.5,NA,NA,1643203.0999999,1643205.5999999,2023-06-04T16:46:37Z,1643207.774,NULL,Angreifer,mshambulizi,d,NA,NA,NA,NA,qt,NA,3,NA,NA,NA,NA,NA,NA,NA,NA,NA,NA,NA,NA,NA,NA,NA,NA,NA,NA,NA
333a0,"""Falsch""-Screen",canvas.Screen,3_0_3_0_2_0_2,NA,NA,timeout,5000.3049999999,1643206.3999999,1643191.837,1643207.774,1648191.034,1648192,2023-06-04T16:46:42Z,1648208.079,NULL,Angreifer,mshambulizi,d,NA,NA,NA,NA,qt,0,3,NA,NA,NA,NA,NA,NA,NA,NA,NA,NA,NA,NA,NA,NA,NA,NA,NA,NA,NA
333a0,deep,flow.Sequence,3_0_3_0_2_0,NA,NA,completion,13498.763,1634681.8999999,1634675.61,1634692.271,1648191.034,1648192.5,2023-06-04T16:46:42Z,1648208.079,NULL,Angreifer,mshambulizi,d,NA,NA,NA,NA,qt,NA,3,NA,NA,NA,NA,NA,NA,NA,NA,NA,NA,NA,NA,NA,NA,NA,NA,NA,NA,NA
333a0,shallow,flow.Sequence,3_0_3_0_2_1,NA,NA,skipped,NA,1648192.5999999,NA,NA,1648191.034,1648192.8,2023-06-04T16:46:42Z,1648208.079,NULL,Angreifer,mshambulizi,d,NA,NA,NA,NA,qt,NA,3,NA,NA,NA,NA,NA,NA,NA,NA,NA,NA,NA,NA,NA,NA,NA,NA,NA,NA,NA
333a0,task,flow.Sequence,3_0_3_0_2,NA,NA,completion,13498.763,1634681.8999999,1634675.61,1634692.271,1648191.034,1648193,2023-06-04T16:46:42Z,1648208.079,NULL,Angreifer,mshambulizi,d,NA,NA,NA,NA,qt,NA,3,NA,NA,NA,NA,NA,NA,NA,NA,NA,NA,NA,NA,NA,NA,NA,NA,NA,NA,NA
333a0,Deep Question,html.Page,3_0_3_0_3_0_0,NA,NA,form submission,7500.5209999047,1648193.3,1648191.034,1648208.079,1655708.5999999,1655708.7,2023-06-04T16:46:49Z,1655724.193,NULL,Wettbewerb,ushindani,d,NA,NA,NA,mshambulizi,NA,NA,3,NA,NA,NA,NA,NA,NA,NA,NA,NA,NA,NA,NA,NA,NA,NA,NA,NA,NA,NA
333a0,"""Richtig""-Screen",canvas.Screen,3_0_3_0_3_0_1,NA,NA,skipped,NA,1655710.8999999,NA,NA,1655708.5999999,1655711.0999999,2023-06-04T16:46:49Z,1655724.193,NULL,Wettbewerb,ushindani,d,NA,NA,NA,NA,qt,NA,3,NA,NA,NA,NA,NA,NA,NA,NA,NA,NA,NA,NA,NA,NA,NA,NA,NA,NA,NA
333a0,"""Falsch""-Screen",canvas.Screen,3_0_3_0_3_0_2,NA,NA,timeout,4999.6629999999,1655711.8,1655707.277,1655724.193,1660706.885,1660707.8999999,2023-06-04T16:46:54Z,1660723.856,NULL,Wettbewerb,ushindani,d,NA,NA,NA,NA,qt,0,3,NA,NA,NA,NA,NA,NA,NA,NA,NA,NA,NA,NA,NA,NA,NA,NA,NA,NA,NA
333a0,deep,flow.Sequence,3_0_3_0_3_0,NA,NA,completion,12498.806,1648193.2,1648191.034,1648208.079,1660706.885,1660708.3,2023-06-04T16:46:54Z,1660723.856,NULL,Wettbewerb,ushindani,d,NA,NA,NA,NA,qt,NA,3,NA,NA,NA,NA,NA,NA,NA,NA,NA,NA,NA,NA,NA,NA,NA,NA,NA,NA,NA
333a0,shallow,flow.Sequence,3_0_3_0_3_1,NA,NA,skipped,NA,1660708.3999999,NA,NA,1660706.885,1660708.5999999,2023-06-04T16:46:54Z,1660723.856,NULL,Wettbewerb,ushindani,d,NA,NA,NA,NA,qt,NA,3,NA,NA,NA,NA,NA,NA,NA,NA,NA,NA,NA,NA,NA,NA,NA,NA,NA,NA,NA
333a0,task,flow.Sequence,3_0_3_0_3,NA,NA,completion,12498.806,1648193.2,1648191.034,1648208.079,1660706.885,1660708.8999999,2023-06-04T16:46:54Z,1660723.856,NULL,Wettbewerb,ushindani,d,NA,NA,NA,NA,qt,NA,3,NA,NA,NA,NA,NA,NA,NA,NA,NA,NA,NA,NA,NA,NA,NA,NA,NA,NA,NA
333a0,Deep Question,html.Page,3_0_3_0_4_0_0,NA,NA,form submission,6425.3440000478,1660709.2,1660706.885,1660723.856,1667149.2,1667149.3999999,2023-06-04T16:47:01Z,1667156.086,NULL,Auftrag,uagizaji,d,NA,NA,NA,ushindani,NA,NA,3,NA,NA,NA,NA,NA,NA,NA,NA,NA,NA,NA,NA,NA,NA,NA,NA,NA,NA,NA
333a0,"""Richtig""-Screen",canvas.Screen,3_0_3_0_4_0_1,NA,NA,skipped,NA,1667151.5999999,NA,NA,1667149.2,1667151.8,2023-06-04T16:47:01Z,1667156.086,NULL,Auftrag,uagizaji,d,NA,NA,NA,NA,qt,NA,3,NA,NA,NA,NA,NA,NA,NA,NA,NA,NA,NA,NA,NA,NA,NA,NA,NA,NA,NA
333a0,"""Falsch""-Screen",canvas.Screen,3_0_3_0_4_0_2,NA,NA,timeout,4999.9670000002,1667152.3999999,1667139.958,1667156.086,1672139.575,1672140.5999999,2023-06-04T16:47:06Z,1672156.053,NULL,Auftrag,uagizaji,d,NA,NA,NA,NA,qt,0,3,NA,NA,NA,NA,NA,NA,NA,NA,NA,NA,NA,NA,NA,NA,NA,NA,NA,NA,NA
333a0,deep,flow.Sequence,3_0_3_0_4_0,NA,NA,completion,11415.719,1660709.0999999,1660706.885,1660723.856,1672139.575,1672141.0999999,2023-06-04T16:47:06Z,1672156.053,NULL,Auftrag,uagizaji,d,NA,NA,NA,NA,qt,NA,3,NA,NA,NA,NA,NA,NA,NA,NA,NA,NA,NA,NA,NA,NA,NA,NA,NA,NA,NA
333a0,shallow,flow.Sequence,3_0_3_0_4_1,NA,NA,skipped,NA,1672141.2,NA,NA,1672139.575,1672141.3999999,2023-06-04T16:47:06Z,1672156.053,NULL,Auftrag,uagizaji,d,NA,NA,NA,NA,qt,NA,3,NA,NA,NA,NA,NA,NA,NA,NA,NA,NA,NA,NA,NA,NA,NA,NA,NA,NA,NA
333a0,task,flow.Sequence,3_0_3_0_4,NA,NA,completion,11415.719,1660709.0999999,1660706.885,1660723.856,1672139.575,1672141.5999999,2023-06-04T16:47:06Z,1672156.053,NULL,Auftrag,uagizaji,d,NA,NA,NA,NA,qt,NA,3,NA,NA,NA,NA,NA,NA,NA,NA,NA,NA,NA,NA,NA,NA,NA,NA,NA,NA,NA
333a0,deep,flow.Sequence,3_0_3_0_5_0,NA,NA,skipped,NA,1672141.8999999,NA,NA,1672139.575,1672142,2023-06-04T16:47:06Z,1672156.053,NULL,Abrechnung,uhasibu,s,kusahihisha,mpambano,mashambulizi,NA,qt,NA,3,NA,NA,NA,NA,NA,NA,NA,NA,NA,NA,NA,NA,NA,NA,NA,NA,NA,NA,NA
333a0,Shallow Question,html.Page,3_0_3_0_5_1_0,NA,NA,form submission,7123.3469998569,1672142.2,1672139.575,1672156.053,1679279.3999999,1679279.5999999,2023-06-04T16:47:13Z,1679289.1,NULL,Abrechnung,uhasibu,s,kusahihisha,mpambano,mashambulizi,kusahihisha,NA,NA,3,NA,NA,NA,NA,NA,NA,NA,NA,NA,NA,NA,NA,NA,NA,NA,NA,NA,NA,NA
333a0,"""Richtig""-Screen",canvas.Screen,3_0_3_0_5_1_1,NA,NA,skipped,NA,1679282,NA,NA,1679279.3999999,1679282.0999999,2023-06-04T16:47:13Z,1679289.1,NULL,Abrechnung,uhasibu,s,kusahihisha,mpambano,mashambulizi,NA,qt,NA,3,NA,NA,NA,NA,NA,NA,NA,NA,NA,NA,NA,NA,NA,NA,NA,NA,NA,NA,NA
333a0,"""Falsch""-Screen",canvas.Screen,3_0_3_0_5_1_2,NA,NA,timeout,4999.713,1679282.8999999,1679272.024,1679289.1,1684271.916,1684273.0999999,2023-06-04T16:47:18Z,1684288.813,NULL,Abrechnung,uhasibu,s,kusahihisha,mpambano,mashambulizi,NA,qt,0,3,NA,NA,NA,NA,NA,NA,NA,NA,NA,NA,NA,NA,NA,NA,NA,NA,NA,NA,NA
333a0,shallow,flow.Sequence,3_0_3_0_5_1,NA,NA,completion,12115.863,1672142.0999999,1672139.575,1672156.053,1684271.916,1684273.5,2023-06-04T16:47:18Z,1684288.813,NULL,Abrechnung,uhasibu,s,kusahihisha,mpambano,mashambulizi,NA,qt,NA,3,NA,NA,NA,NA,NA,NA,NA,NA,NA,NA,NA,NA,NA,NA,NA,NA,NA,NA,NA
333a0,task,flow.Sequence,3_0_3_0_5,NA,NA,completion,12115.863,1672141.8,1672139.575,1672156.053,1684271.916,1684273.7,2023-06-04T16:47:18Z,1684288.813,NULL,Abrechnung,uhasibu,s,kusahihisha,mpambano,mashambulizi,NA,qt,NA,3,NA,NA,NA,NA,NA,NA,NA,NA,NA,NA,NA,NA,NA,NA,NA,NA,NA,NA,NA
333a0,Deep Question,html.Page,3_0_3_0_6_0_0,NA,NA,form submission,13686.586999857,1684274,1684271.916,1684288.813,1697975.3999999,1697975.7,2023-06-04T16:47:32Z,1697987.306,NULL,Sänger,mwimbaji,d,NA,NA,NA,mshabuzji,NA,NA,3,NA,NA,NA,NA,NA,NA,NA,NA,NA,NA,NA,NA,NA,NA,NA,NA,NA,NA,NA
333a0,"""Richtig""-Screen",canvas.Screen,3_0_3_0_6_0_1,NA,NA,skipped,NA,1697978.5999999,NA,NA,1697975.3999999,1697978.8,2023-06-04T16:47:32Z,1697987.306,NULL,Sänger,mwimbaji,d,NA,NA,NA,NA,qt,NA,3,NA,NA,NA,NA,NA,NA,NA,NA,NA,NA,NA,NA,NA,NA,NA,NA,NA,NA,NA
333a0,"""Falsch""-Screen",canvas.Screen,3_0_3_0_6_0_2,NA,NA,timeout,4999.5529999998,1697980.0999999,1697970.536,1697987.306,1702970.394,1702971.2,2023-06-04T16:47:37Z,1702986.859,NULL,Sänger,mwimbaji,d,NA,NA,NA,NA,qt,0,3,NA,NA,NA,NA,NA,NA,NA,NA,NA,NA,NA,NA,NA,NA,NA,NA,NA,NA,NA
333a0,deep,flow.Sequence,3_0_3_0_6_0,NA,NA,completion,18681.581,1684273.8999999,1684271.916,1684288.813,1702970.394,1702971.5,2023-06-04T16:47:37Z,1702986.859,NULL,Sänger,mwimbaji,d,NA,NA,NA,NA,qt,NA,3,NA,NA,NA,NA,NA,NA,NA,NA,NA,NA,NA,NA,NA,NA,NA,NA,NA,NA,NA
333a0,shallow,flow.Sequence,3_0_3_0_6_1,NA,NA,skipped,NA,1702971.5,NA,NA,1702970.394,1702971.5999999,2023-06-04T16:47:37Z,1702986.859,NULL,Sänger,mwimbaji,d,NA,NA,NA,NA,qt,NA,3,NA,NA,NA,NA,NA,NA,NA,NA,NA,NA,NA,NA,NA,NA,NA,NA,NA,NA,NA
333a0,task,flow.Sequence,3_0_3_0_6,NA,NA,completion,18681.581,1684273.8999999,1684271.916,1684288.813,1702970.394,1702971.8,2023-06-04T16:47:37Z,1702986.859,NULL,Sänger,mwimbaji,d,NA,NA,NA,NA,qt,NA,3,NA,NA,NA,NA,NA,NA,NA,NA,NA,NA,NA,NA,NA,NA,NA,NA,NA,NA,NA
333a0,deep,flow.Sequence,3_0_3_0_7_0,NA,NA,skipped,NA,1702972,NA,NA,1702970.394,1702972,2023-06-04T16:47:37Z,1702986.859,NULL,Kanzler,diwani,s,rasilmali,mahitaji,maabudu,NA,qt,NA,3,NA,NA,NA,NA,NA,NA,NA,NA,NA,NA,NA,NA,NA,NA,NA,NA,NA,NA,NA
333a0,Shallow Question,html.Page,3_0_3_0_7_1_0,NA,NA,form submission,4841.540999857,1702972.0999999,1702970.394,1702986.859,1707828.3999999,1707828.5999999,2023-06-04T16:47:42Z,1707836.679,NULL,Kanzler,diwani,s,rasilmali,mahitaji,maabudu,diwani,NA,NA,3,NA,NA,NA,NA,NA,NA,NA,NA,NA,NA,NA,NA,NA,NA,NA,NA,NA,NA,NA
333a0,"""Richtig""-Screen",canvas.Screen,3_0_3_0_7_1_1,NA,NA,timeout,4999.7830000001,1707831,1707820.15,1707836.679,1712820.053,1712821.2,2023-06-04T16:47:46Z,1712836.462,NULL,Kanzler,diwani,s,rasilmali,mahitaji,maabudu,NA,qt,1,3,NA,NA,NA,NA,NA,NA,NA,NA,NA,NA,NA,NA,NA,NA,NA,NA,NA,NA,NA
333a0,"""Falsch""-Screen",canvas.Screen,3_0_3_0_7_1_2,NA,NA,skipped,NA,1712826.5999999,NA,NA,1712820.053,1712826.7,2023-06-04T16:47:46Z,1712836.462,NULL,Kanzler,diwani,s,rasilmali,mahitaji,maabudu,NA,qt,NA,3,NA,NA,NA,NA,NA,NA,NA,NA,NA,NA,NA,NA,NA,NA,NA,NA,NA,NA,NA
333a0,shallow,flow.Sequence,3_0_3_0_7_1,NA,NA,completion,9833.1940000001,1702972.0999999,1702970.394,1702986.859,1712820.053,1712826.8,2023-06-04T16:47:46Z,1712836.462,NULL,Kanzler,diwani,s,rasilmali,mahitaji,maabudu,NA,qt,NA,3,NA,NA,NA,NA,NA,NA,NA,NA,NA,NA,NA,NA,NA,NA,NA,NA,NA,NA,NA
333a0,task,flow.Sequence,3_0_3_0_7,NA,NA,completion,9833.1940000001,1702972,1702970.394,1702986.859,1712820.053,1712826.8999999,2023-06-04T16:47:46Z,1712836.462,NULL,Kanzler,diwani,s,rasilmali,mahitaji,maabudu,NA,qt,NA,3,NA,NA,NA,NA,NA,NA,NA,NA,NA,NA,NA,NA,NA,NA,NA,NA,NA,NA,NA
333a0,block,flow.Loop,3_0_3_0,NA,NA,completion,101042.652,1611761.3999999,1611760.33,1611777.401,1712820.053,1712827,2023-06-04T16:47:46Z,1712836.462,NULL,NA,NA,NA,NA,NA,NA,NA,qt,NA,3,NA,NA,NA,NA,NA,NA,NA,NA,NA,NA,NA,NA,NA,NA,NA,NA,NA,NA,NA
333a0,weiter,canvas.Screen,3_0_3_1,sdf,keypress(Space),response,1215.6379999046,1712827.0999999,1712820.053,1712836.462,1714052.0999999,1714053.3,2023-06-04T16:47:48Z,1714103.32,NULL,NA,NA,NA,NA,NA,NA,NA,qt,NA,3,NA,NA,NA,NA,NA,NA,NA,NA,NA,NA,NA,NA,NA,NA,NA,NA,NA,NA,NA
333a0,check continue,flow.Sequence,3_0_3,NA,NA,completion,102274.6989999,1611761.3,1611760.33,1611777.401,1714052.0999999,1714053.5999999,2023-06-04T16:47:48Z,1714103.32,NULL,NA,NA,NA,NA,NA,NA,NA,qt,NA,3,NA,NA,NA,NA,NA,NA,NA,NA,NA,NA,NA,NA,NA,NA,NA,NA,NA,NA,NA
333a0,deep,flow.Sequence,3_0_4_0_0_0,NA,NA,skipped,NA,1714090.7,NA,NA,1714052.0999999,1714090.8,2023-06-04T16:47:48Z,1714103.32,NULL,Abrechnung,uhasibu,s,kusahihisha,mpambano,mashambulizi,NA,sd,NA,4,NA,NA,NA,NA,NA,NA,NA,NA,NA,NA,NA,NA,NA,NA,NA,NA,NA,NA,NA
333a0,Shallow Question,html.Page,3_0_4_0_0_1_0,NA,NA,form submission,9068.0799998569,1714091,1714086.612,1714103.32,1723171.3999999,1723171.5999999,2023-06-04T16:47:57Z,1723185.949,NULL,Abrechnung,uhasibu,s,kusahihisha,mpambano,mashambulizi,uhasibu,NA,NA,4,NA,NA,NA,NA,NA,NA,NA,NA,NA,NA,NA,NA,NA,NA,NA,NA,NA,NA,NA
333a0,"""Richtig""-Screen",canvas.Screen,3_0_4_0_0_1_1,NA,NA,timeout,4999.673,1723173.7,1723169.063,1723185.949,1728169.045,1728169.5,2023-06-04T16:48:02Z,1728185.622,NULL,Abrechnung,uhasibu,s,kusahihisha,mpambano,mashambulizi,NA,sd,1,4,NA,NA,NA,NA,NA,NA,NA,NA,NA,NA,NA,NA,NA,NA,NA,NA,NA,NA,NA
333a0,"""Falsch""-Screen",canvas.Screen,3_0_4_0_0_1_2,NA,NA,skipped,NA,1728172.2,NA,NA,1728169.045,1728172.3999999,2023-06-04T16:48:02Z,1728185.622,NULL,Abrechnung,uhasibu,s,kusahihisha,mpambano,mashambulizi,NA,sd,NA,4,NA,NA,NA,NA,NA,NA,NA,NA,NA,NA,NA,NA,NA,NA,NA,NA,NA,NA,NA
333a0,shallow,flow.Sequence,3_0_4_0_0_1,NA,NA,completion,14065.725,1714090.8999999,1714086.612,1714103.32,1728169.045,1728172.5,2023-06-04T16:48:02Z,1728185.622,NULL,Abrechnung,uhasibu,s,kusahihisha,mpambano,mashambulizi,NA,sd,NA,4,NA,NA,NA,NA,NA,NA,NA,NA,NA,NA,NA,NA,NA,NA,NA,NA,NA,NA,NA
333a0,task,flow.Sequence,3_0_4_0_0,NA,NA,completion,14065.725,1714090.7,1714086.612,1714103.32,1728169.045,1728172.5999999,2023-06-04T16:48:02Z,1728185.622,NULL,Abrechnung,uhasibu,s,kusahihisha,mpambano,mashambulizi,NA,sd,NA,4,NA,NA,NA,NA,NA,NA,NA,NA,NA,NA,NA,NA,NA,NA,NA,NA,NA,NA,NA
333a0,Deep Question,html.Page,3_0_4_0_1_0_0,NA,NA,form submission,14064.378,1728172.7,1728169.045,1728185.622,1742250,1742250.2,2023-06-04T16:48:16Z,1742267.949,NULL,Wettbewerb,ushindani,d,NA,NA,NA,mwishabi,NA,NA,4,NA,NA,NA,NA,NA,NA,NA,NA,NA,NA,NA,NA,NA,NA,NA,NA,NA,NA,NA
333a0,"""Richtig""-Screen",canvas.Screen,3_0_4_0_1_0_1,NA,NA,skipped,NA,1742252.3999999,NA,NA,1742250,1742252.7,2023-06-04T16:48:16Z,1742267.949,NULL,Wettbewerb,ushindani,d,NA,NA,NA,NA,sd,NA,4,NA,NA,NA,NA,NA,NA,NA,NA,NA,NA,NA,NA,NA,NA,NA,NA,NA,NA,NA
333a0,"""Falsch""-Screen",canvas.Screen,3_0_4_0_1_0_2,NA,NA,timeout,4999.0219999999,1742253.3999999,1742234.66,1742267.949,1747250.523,1747251.5999999,2023-06-04T16:48:21Z,1747266.971,NULL,Wettbewerb,ushindani,d,NA,NA,NA,NA,sd,0,4,NA,NA,NA,NA,NA,NA,NA,NA,NA,NA,NA,NA,NA,NA,NA,NA,NA,NA,NA
333a0,deep,flow.Sequence,3_0_4_0_1_0,NA,NA,completion,19064.901,1728172.7,1728169.045,1728185.622,1747250.523,1747252,2023-06-04T16:48:21Z,1747266.971,NULL,Wettbewerb,ushindani,d,NA,NA,NA,NA,sd,NA,4,NA,NA,NA,NA,NA,NA,NA,NA,NA,NA,NA,NA,NA,NA,NA,NA,NA,NA,NA
333a0,shallow,flow.Sequence,3_0_4_0_1_1,NA,NA,skipped,NA,1747252.0999999,NA,NA,1747250.523,1747252.3,2023-06-04T16:48:21Z,1747266.971,NULL,Wettbewerb,ushindani,d,NA,NA,NA,NA,sd,NA,4,NA,NA,NA,NA,NA,NA,NA,NA,NA,NA,NA,NA,NA,NA,NA,NA,NA,NA,NA
333a0,task,flow.Sequence,3_0_4_0_1,NA,NA,completion,19064.901,1728172.7,1728169.045,1728185.622,1747250.523,1747252.5,2023-06-04T16:48:21Z,1747266.971,NULL,Wettbewerb,ushindani,d,NA,NA,NA,NA,sd,NA,4,NA,NA,NA,NA,NA,NA,NA,NA,NA,NA,NA,NA,NA,NA,NA,NA,NA,NA,NA
333a0,deep,flow.Sequence,3_0_4_0_2_0,NA,NA,skipped,NA,1747252.7,NA,NA,1747250.523,1747262.5,2023-06-04T16:48:21Z,1747266.971,NULL,Kanzler,diwani,s,rasilmali,mahitaji,maabudu,NA,sd,NA,4,NA,NA,NA,NA,NA,NA,NA,NA,NA,NA,NA,NA,NA,NA,NA,NA,NA,NA,NA
333a0,Shallow Question,html.Page,3_0_4_0_2_1_0,NA,NA,form submission,4584.6289999047,1747262.5999999,1747250.523,1747266.971,1751851.5999999,1751851.8999999,2023-06-04T16:48:26Z,1751867.23,NULL,Kanzler,diwani,s,rasilmali,mahitaji,maabudu,diwani,NA,NA,4,NA,NA,NA,NA,NA,NA,NA,NA,NA,NA,NA,NA,NA,NA,NA,NA,NA,NA,NA
333a0,"""Richtig""-Screen",canvas.Screen,3_0_4_0_2_1_1,NA,NA,timeout,4999.6200000001,1751854.3,1751850.311,1751867.23,1756849.863,1756851,2023-06-04T16:48:31Z,1756866.85,NULL,Kanzler,diwani,s,rasilmali,mahitaji,maabudu,NA,sd,1,4,NA,NA,NA,NA,NA,NA,NA,NA,NA,NA,NA,NA,NA,NA,NA,NA,NA,NA,NA
333a0,"""Falsch""-Screen",canvas.Screen,3_0_4_0_2_1_2,NA,NA,skipped,NA,1756856.3999999,NA,NA,1756849.863,1756856.5999999,2023-06-04T16:48:31Z,1756866.85,NULL,Kanzler,diwani,s,rasilmali,mahitaji,maabudu,NA,sd,NA,4,NA,NA,NA,NA,NA,NA,NA,NA,NA,NA,NA,NA,NA,NA,NA,NA,NA,NA,NA
333a0,shallow,flow.Sequence,3_0_4_0_2_1,NA,NA,completion,9582.892,1747262.5999999,1747250.523,1747266.971,1756849.863,1756856.8999999,2023-06-04T16:48:31Z,1756866.85,NULL,Kanzler,diwani,s,rasilmali,mahitaji,maabudu,NA,sd,NA,4,NA,NA,NA,NA,NA,NA,NA,NA,NA,NA,NA,NA,NA,NA,NA,NA,NA,NA,NA
333a0,task,flow.Sequence,3_0_4_0_2,NA,NA,completion,9582.892,1747252.7,1747250.523,1747266.971,1756849.863,1756856.8999999,2023-06-04T16:48:31Z,1756866.85,NULL,Kanzler,diwani,s,rasilmali,mahitaji,maabudu,NA,sd,NA,4,NA,NA,NA,NA,NA,NA,NA,NA,NA,NA,NA,NA,NA,NA,NA,NA,NA,NA,NA
333a0,Deep Question,html.Page,3_0_4_0_3_0_0,NA,NA,form submission,6344.5499998569,1756857,1756849.863,1756866.85,1763211.3999999,1763211.7,2023-06-04T16:48:37Z,1763215.77,NULL,Sänger,mwimbaji,d,NA,NA,NA,ushindani,NA,NA,4,NA,NA,NA,NA,NA,NA,NA,NA,NA,NA,NA,NA,NA,NA,NA,NA,NA,NA,NA
333a0,"""Richtig""-Screen",canvas.Screen,3_0_4_0_3_0_1,NA,NA,skipped,NA,1763213.8,NA,NA,1763211.3999999,1763214.2,2023-06-04T16:48:37Z,1763215.77,NULL,Sänger,mwimbaji,d,NA,NA,NA,NA,sd,NA,4,NA,NA,NA,NA,NA,NA,NA,NA,NA,NA,NA,NA,NA,NA,NA,NA,NA,NA,NA
333a0,"""Falsch""-Screen",canvas.Screen,3_0_4_0_3_0_2,NA,NA,timeout,4999.6950000001,1763215.2,1763199.35,1763215.77,1768198.793,1768201.2,2023-06-04T16:48:42Z,1768215.465,NULL,Sänger,mwimbaji,d,NA,NA,NA,NA,sd,0,4,NA,NA,NA,NA,NA,NA,NA,NA,NA,NA,NA,NA,NA,NA,NA,NA,NA,NA,NA
333a0,deep,flow.Sequence,3_0_4_0_3_0,NA,NA,completion,11331.943,1756857,1756849.863,1756866.85,1768198.793,1768201.3,2023-06-04T16:48:42Z,1768215.465,NULL,Sänger,mwimbaji,d,NA,NA,NA,NA,sd,NA,4,NA,NA,NA,NA,NA,NA,NA,NA,NA,NA,NA,NA,NA,NA,NA,NA,NA,NA,NA
333a0,shallow,flow.Sequence,3_0_4_0_3_1,NA,NA,skipped,NA,1768201.3,NA,NA,1768198.793,1768201.3999999,2023-06-04T16:48:42Z,1768215.465,NULL,Sänger,mwimbaji,d,NA,NA,NA,NA,sd,NA,4,NA,NA,NA,NA,NA,NA,NA,NA,NA,NA,NA,NA,NA,NA,NA,NA,NA,NA,NA
333a0,task,flow.Sequence,3_0_4_0_3,NA,NA,completion,11331.943,1756857,1756849.863,1756866.85,1768198.793,1768201.5,2023-06-04T16:48:42Z,1768215.465,NULL,Sänger,mwimbaji,d,NA,NA,NA,NA,sd,NA,4,NA,NA,NA,NA,NA,NA,NA,NA,NA,NA,NA,NA,NA,NA,NA,NA,NA,NA,NA
333a0,deep,flow.Sequence,3_0_4_0_4_0,NA,NA,skipped,NA,1768201.5999999,NA,NA,1768198.793,1768201.5999999,2023-06-04T16:48:42Z,1768215.465,NULL,Zufall,kikuti,s,kukosekana,uchoraji,leseni,NA,sd,NA,4,NA,NA,NA,NA,NA,NA,NA,NA,NA,NA,NA,NA,NA,NA,NA,NA,NA,NA,NA
333a0,Shallow Question,html.Page,3_0_4_0_4_1_0,NA,NA,form submission,6120.8349999522,1768201.5999999,1768198.793,1768215.465,1774336.3,1774336.5,2023-06-04T16:48:48Z,1774348.556,NULL,Zufall,kikuti,s,kukosekana,uchoraji,leseni,kikuti,NA,NA,4,NA,NA,NA,NA,NA,NA,NA,NA,NA,NA,NA,NA,NA,NA,NA,NA,NA,NA,NA
333a0,"""Richtig""-Screen",canvas.Screen,3_0_4_0_4_1_1,NA,NA,timeout,5000.0209999999,1774338.7,1774332.2,1774348.556,1779331.553,1779332.5999999,2023-06-04T16:48:53Z,1779348.577,NULL,Zufall,kikuti,s,kukosekana,uchoraji,leseni,NA,sd,1,4,NA,NA,NA,NA,NA,NA,NA,NA,NA,NA,NA,NA,NA,NA,NA,NA,NA,NA,NA
333a0,"""Falsch""-Screen",canvas.Screen,3_0_4_0_4_1_2,NA,NA,skipped,NA,1779337.5,NA,NA,1779331.553,1779337.5999999,2023-06-04T16:48:53Z,1779348.577,NULL,Zufall,kikuti,s,kukosekana,uchoraji,leseni,NA,sd,NA,4,NA,NA,NA,NA,NA,NA,NA,NA,NA,NA,NA,NA,NA,NA,NA,NA,NA,NA,NA
333a0,shallow,flow.Sequence,3_0_4_0_4_1,NA,NA,completion,11116.088,1768201.5999999,1768198.793,1768215.465,1779331.553,1779337.8,2023-06-04T16:48:53Z,1779348.577,NULL,Zufall,kikuti,s,kukosekana,uchoraji,leseni,NA,sd,NA,4,NA,NA,NA,NA,NA,NA,NA,NA,NA,NA,NA,NA,NA,NA,NA,NA,NA,NA,NA
333a0,task,flow.Sequence,3_0_4_0_4,NA,NA,completion,11116.088,1768201.5999999,1768198.793,1768215.465,1779331.553,1779338.5,2023-06-04T16:48:53Z,1779348.577,NULL,Zufall,kikuti,s,kukosekana,uchoraji,leseni,NA,sd,NA,4,NA,NA,NA,NA,NA,NA,NA,NA,NA,NA,NA,NA,NA,NA,NA,NA,NA,NA,NA
333a0,Deep Question,html.Page,3_0_4_0_5_0_0,NA,NA,form submission,15120.822999857,1779338.5999999,1779331.553,1779348.577,1794469.3999999,1794469.5,2023-06-04T16:49:08Z,1794480.271,NULL,Angreifer,mshambulizi,d,NA,NA,NA,mshanzuji,NA,NA,4,NA,NA,NA,NA,NA,NA,NA,NA,NA,NA,NA,NA,NA,NA,NA,NA,NA,NA,NA
333a0,"""Richtig""-Screen",canvas.Screen,3_0_4_0_5_0_1,NA,NA,skipped,NA,1794471.8,NA,NA,1794469.3999999,1794471.8999999,2023-06-04T16:49:08Z,1794480.271,NULL,Angreifer,mshambulizi,d,NA,NA,NA,NA,sd,NA,4,NA,NA,NA,NA,NA,NA,NA,NA,NA,NA,NA,NA,NA,NA,NA,NA,NA,NA,NA
333a0,"""Falsch""-Screen",canvas.Screen,3_0_4_0_5_0_2,NA,NA,timeout,4999.8700000001,1794472.5999999,1794463.627,1794480.271,1799463.518,1799464.5999999,2023-06-04T16:49:13Z,1799480.141,NULL,Angreifer,mshambulizi,d,NA,NA,NA,NA,sd,0,4,NA,NA,NA,NA,NA,NA,NA,NA,NA,NA,NA,NA,NA,NA,NA,NA,NA,NA,NA
333a0,deep,flow.Sequence,3_0_4_0_5_0,NA,NA,completion,20114.941,1779338.5,1779331.553,1779348.577,1799463.518,1799465.0999999,2023-06-04T16:49:13Z,1799480.141,NULL,Angreifer,mshambulizi,d,NA,NA,NA,NA,sd,NA,4,NA,NA,NA,NA,NA,NA,NA,NA,NA,NA,NA,NA,NA,NA,NA,NA,NA,NA,NA
333a0,shallow,flow.Sequence,3_0_4_0_5_1,NA,NA,skipped,NA,1799465.2,NA,NA,1799463.518,1799465.3999999,2023-06-04T16:49:13Z,1799480.141,NULL,Angreifer,mshambulizi,d,NA,NA,NA,NA,sd,NA,4,NA,NA,NA,NA,NA,NA,NA,NA,NA,NA,NA,NA,NA,NA,NA,NA,NA,NA,NA
333a0,task,flow.Sequence,3_0_4_0_5,NA,NA,completion,20114.941,1779338.5,1779331.553,1779348.577,1799463.518,1799465.5999999,2023-06-04T16:49:13Z,1799480.141,NULL,Angreifer,mshambulizi,d,NA,NA,NA,NA,sd,NA,4,NA,NA,NA,NA,NA,NA,NA,NA,NA,NA,NA,NA,NA,NA,NA,NA,NA,NA,NA
333a0,Deep Question,html.Page,3_0_4_0_6_0_0,NA,NA,form submission,11408.958999905,1799465.8,1799463.518,1799480.141,1810889.0999999,1810889.3999999,2023-06-04T16:49:25Z,1810895.69,NULL,Auftrag,uagizaji,d,NA,NA,NA,uzhuguzij,NA,NA,4,NA,NA,NA,NA,NA,NA,NA,NA,NA,NA,NA,NA,NA,NA,NA,NA,NA,NA,NA
333a0,"""Richtig""-Screen",canvas.Screen,3_0_4_0_6_0_1,NA,NA,skipped,NA,1810892,NA,NA,1810889.0999999,1810892.0999999,2023-06-04T16:49:25Z,1810895.69,NULL,Auftrag,uagizaji,d,NA,NA,NA,NA,sd,NA,4,NA,NA,NA,NA,NA,NA,NA,NA,NA,NA,NA,NA,NA,NA,NA,NA,NA,NA,NA
333a0,"""Falsch""-Screen",canvas.Screen,3_0_4_0_6_0_2,NA,NA,timeout,4999.602,1810892.7,1810879.723,1810895.69,1815879.164,1815880.3,2023-06-04T16:49:30Z,1815895.292,NULL,Auftrag,uagizaji,d,NA,NA,NA,NA,sd,0,4,NA,NA,NA,NA,NA,NA,NA,NA,NA,NA,NA,NA,NA,NA,NA,NA,NA,NA,NA
333a0,deep,flow.Sequence,3_0_4_0_6_0,NA,NA,completion,16399.023,1799465.8,1799463.518,1799480.141,1815879.164,1815880.8,2023-06-04T16:49:30Z,1815895.292,NULL,Auftrag,uagizaji,d,NA,NA,NA,NA,sd,NA,4,NA,NA,NA,NA,NA,NA,NA,NA,NA,NA,NA,NA,NA,NA,NA,NA,NA,NA,NA
333a0,shallow,flow.Sequence,3_0_4_0_6_1,NA,NA,skipped,NA,1815880.8999999,NA,NA,1815879.164,1815881.0999999,2023-06-04T16:49:30Z,1815895.292,NULL,Auftrag,uagizaji,d,NA,NA,NA,NA,sd,NA,4,NA,NA,NA,NA,NA,NA,NA,NA,NA,NA,NA,NA,NA,NA,NA,NA,NA,NA,NA
333a0,task,flow.Sequence,3_0_4_0_6,NA,NA,completion,16399.023,1799465.8,1799463.518,1799480.141,1815879.164,1815881.3,2023-06-04T16:49:30Z,1815895.292,NULL,Auftrag,uagizaji,d,NA,NA,NA,NA,sd,NA,4,NA,NA,NA,NA,NA,NA,NA,NA,NA,NA,NA,NA,NA,NA,NA,NA,NA,NA,NA
333a0,deep,flow.Sequence,3_0_4_0_7_0,NA,NA,skipped,NA,1815881.5,NA,NA,1815879.164,1815881.7,2023-06-04T16:49:30Z,1815895.292,NULL,Schönheit,kirembo,s,mahojiano,msisimko,jitihadi,NA,sd,NA,4,NA,NA,NA,NA,NA,NA,NA,NA,NA,NA,NA,NA,NA,NA,NA,NA,NA,NA,NA
333a0,Shallow Question,html.Page,3_0_4_0_7_1_0,NA,NA,form submission,4716.9080000478,1815881.8,1815879.164,1815895.292,1820612.2,1820612.5,2023-06-04T16:49:34Z,1820629.003,NULL,Schönheit,kirembo,s,mahojiano,msisimko,jitihadi,kirembo,NA,NA,4,NA,NA,NA,NA,NA,NA,NA,NA,NA,NA,NA,NA,NA,NA,NA,NA,NA,NA,NA
333a0,"""Richtig""-Screen",canvas.Screen,3_0_4_0_7_1_1,NA,NA,timeout,4999.335,1820614.8999999,1820595.417,1820629.003,1825611.42,1825612.5999999,2023-06-04T16:49:39Z,1825628.338,NULL,Schönheit,kirembo,s,mahojiano,msisimko,jitihadi,NA,sd,1,4,NA,NA,NA,NA,NA,NA,NA,NA,NA,NA,NA,NA,NA,NA,NA,NA,NA,NA,NA
333a0,"""Falsch""-Screen",canvas.Screen,3_0_4_0_7_1_2,NA,NA,skipped,NA,1825618.7,NA,NA,1825611.42,1825619.0999999,2023-06-04T16:49:39Z,1825628.338,NULL,Schönheit,kirembo,s,mahojiano,msisimko,jitihadi,NA,sd,NA,4,NA,NA,NA,NA,NA,NA,NA,NA,NA,NA,NA,NA,NA,NA,NA,NA,NA,NA,NA
333a0,shallow,flow.Sequence,3_0_4_0_7_1,NA,NA,completion,9716.128,1815881.7,1815879.164,1815895.292,1825611.42,1825619.5,2023-06-04T16:49:39Z,1825628.338,NULL,Schönheit,kirembo,s,mahojiano,msisimko,jitihadi,NA,sd,NA,4,NA,NA,NA,NA,NA,NA,NA,NA,NA,NA,NA,NA,NA,NA,NA,NA,NA,NA,NA
333a0,task,flow.Sequence,3_0_4_0_7,NA,NA,completion,9716.128,1815881.5,1815879.164,1815895.292,1825611.42,1825619.7,2023-06-04T16:49:39Z,1825628.338,NULL,Schönheit,kirembo,s,mahojiano,msisimko,jitihadi,NA,sd,NA,4,NA,NA,NA,NA,NA,NA,NA,NA,NA,NA,NA,NA,NA,NA,NA,NA,NA,NA,NA
333a0,block,flow.Loop,3_0_4_0,NA,NA,completion,111508.1,1714090.7,1714086.612,1714103.32,1825611.42,1825620,2023-06-04T16:49:39Z,1825628.338,NULL,NA,NA,NA,NA,NA,NA,NA,sd,NA,4,NA,NA,NA,NA,NA,NA,NA,NA,NA,NA,NA,NA,NA,NA,NA,NA,NA,NA,NA
333a0,weiter,canvas.Screen,3_0_4_1,sdf,keypress(Space),response,1130.4619999523,1825620.2,1825611.42,1825628.338,1826758.8,1826759.8999999,2023-06-04T16:49:40Z,1826811.465,NULL,NA,NA,NA,NA,NA,NA,NA,sd,NA,4,NA,NA,NA,NA,NA,NA,NA,NA,NA,NA,NA,NA,NA,NA,NA,NA,NA,NA,NA
333a0,check continue,flow.Sequence,3_0_4,NA,NA,completion,112655.47999995,1714090.7,1714086.612,1714103.32,1826758.8,1826760.3,2023-06-04T16:49:40Z,1826811.465,NULL,NA,NA,NA,NA,NA,NA,NA,sd,NA,4,NA,NA,NA,NA,NA,NA,NA,NA,NA,NA,NA,NA,NA,NA,NA,NA,NA,NA,NA
333a0,Deep Question,html.Page,3_0_5_0_0_0_0,NA,NA,form submission,12756.934999857,1826797.3,1826794.655,1826811.465,1839568.3999999,1839568.5999999,2023-06-04T16:49:53Z,1839577.208,NULL,Sänger,mwimbaji,d,NA,NA,NA,kukilu,NA,NA,5,NA,NA,NA,NA,NA,NA,NA,NA,NA,NA,NA,NA,NA,NA,NA,NA,NA,NA,NA
333a0,"""Richtig""-Screen",canvas.Screen,3_0_5_0_0_0_1,NA,NA,skipped,NA,1839570.8999999,NA,NA,1839568.3999999,1839571,2023-06-04T16:49:53Z,1839577.208,NULL,Sänger,mwimbaji,d,NA,NA,NA,NA,sdf,NA,5,NA,NA,NA,NA,NA,NA,NA,NA,NA,NA,NA,NA,NA,NA,NA,NA,NA,NA,NA
333a0,"""Falsch""-Screen",canvas.Screen,3_0_5_0_0_0_2,NA,NA,timeout,5000,1839571.5999999,1839560.836,1839577.208,1844560.128,1844561.2,2023-06-04T16:49:58Z,1844577.208,NULL,Sänger,mwimbaji,d,NA,NA,NA,NA,sdf,0,5,NA,NA,NA,NA,NA,NA,NA,NA,NA,NA,NA,NA,NA,NA,NA,NA,NA,NA,NA
333a0,deep,flow.Sequence,3_0_5_0_0_0,NA,NA,completion,17748.663,1826797.3,1826794.655,1826811.465,1844560.128,1844561.7,2023-06-04T16:49:58Z,1844577.208,NULL,Sänger,mwimbaji,d,NA,NA,NA,NA,sdf,NA,5,NA,NA,NA,NA,NA,NA,NA,NA,NA,NA,NA,NA,NA,NA,NA,NA,NA,NA,NA
333a0,shallow,flow.Sequence,3_0_5_0_0_1,NA,NA,skipped,NA,1844561.8,NA,NA,1844560.128,1844562,2023-06-04T16:49:58Z,1844577.208,NULL,Sänger,mwimbaji,d,NA,NA,NA,NA,sdf,NA,5,NA,NA,NA,NA,NA,NA,NA,NA,NA,NA,NA,NA,NA,NA,NA,NA,NA,NA,NA
333a0,task,flow.Sequence,3_0_5_0_0,NA,NA,completion,17748.663,1826797.3,1826794.655,1826811.465,1844560.128,1844562.2,2023-06-04T16:49:58Z,1844577.208,NULL,Sänger,mwimbaji,d,NA,NA,NA,NA,sdf,NA,5,NA,NA,NA,NA,NA,NA,NA,NA,NA,NA,NA,NA,NA,NA,NA,NA,NA,NA,NA
333a0,deep,flow.Sequence,3_0_5_0_1_0,NA,NA,skipped,NA,1844562.3999999,NA,NA,1844560.128,1844562.5,2023-06-04T16:49:58Z,1844577.208,NULL,Zufall,kikuti,s,kukosekana,uchoraji,leseni,NA,sdf,NA,5,NA,NA,NA,NA,NA,NA,NA,NA,NA,NA,NA,NA,NA,NA,NA,NA,NA,NA,NA
333a0,Shallow Question,html.Page,3_0_5_0_1_1_0,NA,NA,form submission,4085.4920000476,1844562.5999999,1844560.128,1844577.208,1848662.7,1848662.8999999,2023-06-04T16:50:02Z,1848676.376,NULL,Zufall,kikuti,s,kukosekana,uchoraji,leseni,leseni,NA,NA,5,NA,NA,NA,NA,NA,NA,NA,NA,NA,NA,NA,NA,NA,NA,NA,NA,NA,NA,NA
333a0,"""Richtig""-Screen",canvas.Screen,3_0_5_0_1_1_1,NA,NA,skipped,NA,1848665,NA,NA,1848662.7,1848665.0999999,2023-06-04T16:50:02Z,1848676.376,NULL,Zufall,kikuti,s,kukosekana,uchoraji,leseni,NA,sdf,NA,5,NA,NA,NA,NA,NA,NA,NA,NA,NA,NA,NA,NA,NA,NA,NA,NA,NA,NA,NA
333a0,"""Falsch""-Screen",canvas.Screen,3_0_5_0_1_1_2,NA,NA,timeout,5000.1430000002,1848665.7,1848660.116,1848676.376,1853659.573,1853660.7,2023-06-04T16:50:07Z,1853676.519,NULL,Zufall,kikuti,s,kukosekana,uchoraji,leseni,NA,sdf,0,5,NA,NA,NA,NA,NA,NA,NA,NA,NA,NA,NA,NA,NA,NA,NA,NA,NA,NA,NA
333a0,shallow,flow.Sequence,3_0_5_0_1_1,NA,NA,completion,9082.365,1844562.5999999,1844560.128,1844577.208,1853659.573,1853661.0999999,2023-06-04T16:50:07Z,1853676.519,NULL,Zufall,kikuti,s,kukosekana,uchoraji,leseni,NA,sdf,NA,5,NA,NA,NA,NA,NA,NA,NA,NA,NA,NA,NA,NA,NA,NA,NA,NA,NA,NA,NA
333a0,task,flow.Sequence,3_0_5_0_1,NA,NA,completion,9082.365,1844562.3,1844560.128,1844577.208,1853659.573,1853661.3,2023-06-04T16:50:07Z,1853676.519,NULL,Zufall,kikuti,s,kukosekana,uchoraji,leseni,NA,sdf,NA,5,NA,NA,NA,NA,NA,NA,NA,NA,NA,NA,NA,NA,NA,NA,NA,NA,NA,NA,NA
333a0,deep,flow.Sequence,3_0_5_0_2_0,NA,NA,skipped,NA,1853661.5,NA,NA,1853659.573,1853661.5999999,2023-06-04T16:50:07Z,1853676.519,NULL,Abrechnung,uhasibu,s,kusahihisha,mpambano,mashambulizi,NA,sdf,NA,5,NA,NA,NA,NA,NA,NA,NA,NA,NA,NA,NA,NA,NA,NA,NA,NA,NA,NA,NA
333a0,Shallow Question,html.Page,3_0_5_0_2_1_0,NA,NA,form submission,11415.981,1853661.8,1853659.573,1853676.519,1865092.5,1865092.5999999,2023-06-04T16:50:19Z,1865109.104,NULL,Abrechnung,uhasibu,s,kusahihisha,mpambano,mashambulizi,kusahihisha,NA,NA,5,NA,NA,NA,NA,NA,NA,NA,NA,NA,NA,NA,NA,NA,NA,NA,NA,NA,NA,NA
333a0,"""Richtig""-Screen",canvas.Screen,3_0_5_0_2_1_1,NA,NA,skipped,NA,1865094.8,NA,NA,1865092.5,1865094.8999999,2023-06-04T16:50:19Z,1865109.104,NULL,Abrechnung,uhasibu,s,kusahihisha,mpambano,mashambulizi,NA,sdf,NA,5,NA,NA,NA,NA,NA,NA,NA,NA,NA,NA,NA,NA,NA,NA,NA,NA,NA,NA,NA
333a0,"""Falsch""-Screen",canvas.Screen,3_0_5_0_2_1_2,NA,NA,timeout,4999.6059999999,1865095.5,1865075.26,1865109.104,1870091.839,1870092.8,2023-06-04T16:50:24Z,1870108.71,NULL,Abrechnung,uhasibu,s,kusahihisha,mpambano,mashambulizi,NA,sdf,0,5,NA,NA,NA,NA,NA,NA,NA,NA,NA,NA,NA,NA,NA,NA,NA,NA,NA,NA,NA
333a0,shallow,flow.Sequence,3_0_5_0_2_1,NA,NA,completion,16415.32,1853661.7,1853659.573,1853676.519,1870091.839,1870093.2,2023-06-04T16:50:24Z,1870108.71,NULL,Abrechnung,uhasibu,s,kusahihisha,mpambano,mashambulizi,NA,sdf,NA,5,NA,NA,NA,NA,NA,NA,NA,NA,NA,NA,NA,NA,NA,NA,NA,NA,NA,NA,NA
333a0,task,flow.Sequence,3_0_5_0_2,NA,NA,completion,16415.32,1853661.3999999,1853659.573,1853676.519,1870091.839,1870093.3999999,2023-06-04T16:50:24Z,1870108.71,NULL,Abrechnung,uhasibu,s,kusahihisha,mpambano,mashambulizi,NA,sdf,NA,5,NA,NA,NA,NA,NA,NA,NA,NA,NA,NA,NA,NA,NA,NA,NA,NA,NA,NA,NA
333a0,Deep Question,html.Page,3_0_5_0_3_0_0,NA,NA,form submission,7914.3899999047,1870093.5999999,1870091.839,1870108.71,1878023.0999999,1878023.3,2023-06-04T16:50:32Z,1878040.907,NULL,Wettbewerb,ushindani,d,NA,NA,NA,ushangaji,NA,NA,5,NA,NA,NA,NA,NA,NA,NA,NA,NA,NA,NA,NA,NA,NA,NA,NA,NA,NA,NA
333a0,"""Richtig""-Screen",canvas.Screen,3_0_5_0_3_0_1,NA,NA,skipped,NA,1878026.3999999,NA,NA,1878023.0999999,1878026.5999999,2023-06-04T16:50:32Z,1878040.907,NULL,Wettbewerb,ushindani,d,NA,NA,NA,NA,sdf,NA,5,NA,NA,NA,NA,NA,NA,NA,NA,NA,NA,NA,NA,NA,NA,NA,NA,NA,NA,NA
333a0,"""Falsch""-Screen",canvas.Screen,3_0_5_0_3_0_2,NA,NA,timeout,4999.5860000001,1878027.3,1878024.177,1878040.907,1883024.402,1883025.3999999,2023-06-04T16:50:37Z,1883040.493,NULL,Wettbewerb,ushindani,d,NA,NA,NA,NA,sdf,0,5,NA,NA,NA,NA,NA,NA,NA,NA,NA,NA,NA,NA,NA,NA,NA,NA,NA,NA,NA
333a0,deep,flow.Sequence,3_0_5_0_3_0,NA,NA,completion,12915.692,1870093.5999999,1870091.839,1870108.71,1883024.402,1883025.8,2023-06-04T16:50:37Z,1883040.493,NULL,Wettbewerb,ushindani,d,NA,NA,NA,NA,sdf,NA,5,NA,NA,NA,NA,NA,NA,NA,NA,NA,NA,NA,NA,NA,NA,NA,NA,NA,NA,NA
333a0,shallow,flow.Sequence,3_0_5_0_3_1,NA,NA,skipped,NA,1883026,NA,NA,1883024.402,1883026.0999999,2023-06-04T16:50:37Z,1883040.493,NULL,Wettbewerb,ushindani,d,NA,NA,NA,NA,sdf,NA,5,NA,NA,NA,NA,NA,NA,NA,NA,NA,NA,NA,NA,NA,NA,NA,NA,NA,NA,NA
333a0,task,flow.Sequence,3_0_5_0_3,NA,NA,completion,12915.692,1870093.5999999,1870091.839,1870108.71,1883024.402,1883026.3999999,2023-06-04T16:50:37Z,1883040.493,NULL,Wettbewerb,ushindani,d,NA,NA,NA,NA,sdf,NA,5,NA,NA,NA,NA,NA,NA,NA,NA,NA,NA,NA,NA,NA,NA,NA,NA,NA,NA,NA
333a0,deep,flow.Sequence,3_0_5_0_4_0,NA,NA,skipped,NA,1883026.5999999,NA,NA,1883024.402,1883026.8999999,2023-06-04T16:50:37Z,1883040.493,NULL,Schönheit,kirembo,s,mahojiano,msisimko,jitihadi,NA,sdf,NA,5,NA,NA,NA,NA,NA,NA,NA,NA,NA,NA,NA,NA,NA,NA,NA,NA,NA,NA,NA
333a0,Shallow Question,html.Page,3_0_5_0_4_1_0,NA,NA,form submission,4079.1069999046,1883027,1883024.402,1883040.493,1887119.5999999,1887119.7,2023-06-04T16:50:41Z,1887123.514,NULL,Schönheit,kirembo,s,mahojiano,msisimko,jitihadi,kirembo,NA,NA,5,NA,NA,NA,NA,NA,NA,NA,NA,NA,NA,NA,NA,NA,NA,NA,NA,NA,NA,NA
333a0,"""Richtig""-Screen",canvas.Screen,3_0_5_0_4_1_1,NA,NA,timeout,4999.6310000001,1887121.8999999,1887107.056,1887123.514,1892106.632,1892107.7,2023-06-04T16:50:46Z,1892123.145,NULL,Schönheit,kirembo,s,mahojiano,msisimko,jitihadi,NA,sdf,1,5,NA,NA,NA,NA,NA,NA,NA,NA,NA,NA,NA,NA,NA,NA,NA,NA,NA,NA,NA
333a0,"""Falsch""-Screen",canvas.Screen,3_0_5_0_4_1_2,NA,NA,skipped,NA,1892113.8999999,NA,NA,1892106.632,1892114.3999999,2023-06-04T16:50:46Z,1892123.145,NULL,Schönheit,kirembo,s,mahojiano,msisimko,jitihadi,NA,sdf,NA,5,NA,NA,NA,NA,NA,NA,NA,NA,NA,NA,NA,NA,NA,NA,NA,NA,NA,NA,NA
333a0,shallow,flow.Sequence,3_0_5_0_4_1,NA,NA,completion,9066.139,1883026.8999999,1883024.402,1883040.493,1892106.632,1892114.7,2023-06-04T16:50:46Z,1892123.145,NULL,Schönheit,kirembo,s,mahojiano,msisimko,jitihadi,NA,sdf,NA,5,NA,NA,NA,NA,NA,NA,NA,NA,NA,NA,NA,NA,NA,NA,NA,NA,NA,NA,NA
333a0,task,flow.Sequence,3_0_5_0_4,NA,NA,completion,9066.139,1883026.5,1883024.402,1883040.493,1892106.632,1892115,2023-06-04T16:50:46Z,1892123.145,NULL,Schönheit,kirembo,s,mahojiano,msisimko,jitihadi,NA,sdf,NA,5,NA,NA,NA,NA,NA,NA,NA,NA,NA,NA,NA,NA,NA,NA,NA,NA,NA,NA,NA
333a0,Deep Question,html.Page,3_0_5_0_5_0_0,NA,NA,form submission,25333.954999905,1892115.2,1892106.632,1892123.145,1917457.0999999,1917457.3,2023-06-04T16:51:11Z,1917471.75,NULL,Angreifer,mshambulizi,d,NA,NA,NA,mshamzuji,NA,NA,5,NA,NA,NA,NA,NA,NA,NA,NA,NA,NA,NA,NA,NA,NA,NA,NA,NA,NA,NA
333a0,"""Richtig""-Screen",canvas.Screen,3_0_5_0_5_0_1,NA,NA,skipped,NA,1917459.5,NA,NA,1917457.0999999,1917459.5999999,2023-06-04T16:51:11Z,1917471.75,NULL,Angreifer,mshambulizi,d,NA,NA,NA,NA,sdf,NA,5,NA,NA,NA,NA,NA,NA,NA,NA,NA,NA,NA,NA,NA,NA,NA,NA,NA,NA,NA
333a0,"""Falsch""-Screen",canvas.Screen,3_0_5_0_5_0_2,NA,NA,timeout,4999.534,1917460.3,1917455.157,1917471.75,1922454.633,1922455.7,2023-06-04T16:51:16Z,1922471.284,NULL,Angreifer,mshambulizi,d,NA,NA,NA,NA,sdf,0,5,NA,NA,NA,NA,NA,NA,NA,NA,NA,NA,NA,NA,NA,NA,NA,NA,NA,NA,NA
333a0,deep,flow.Sequence,3_0_5_0_5_0,NA,NA,completion,30331.488,1892115.0999999,1892106.632,1892123.145,1922454.633,1922456.0999999,2023-06-04T16:51:16Z,1922471.284,NULL,Angreifer,mshambulizi,d,NA,NA,NA,NA,sdf,NA,5,NA,NA,NA,NA,NA,NA,NA,NA,NA,NA,NA,NA,NA,NA,NA,NA,NA,NA,NA
333a0,shallow,flow.Sequence,3_0_5_0_5_1,NA,NA,skipped,NA,1922456.3,NA,NA,1922454.633,1922456.3999999,2023-06-04T16:51:16Z,1922471.284,NULL,Angreifer,mshambulizi,d,NA,NA,NA,NA,sdf,NA,5,NA,NA,NA,NA,NA,NA,NA,NA,NA,NA,NA,NA,NA,NA,NA,NA,NA,NA,NA
333a0,task,flow.Sequence,3_0_5_0_5,NA,NA,completion,30331.488,1892115.0999999,1892106.632,1892123.145,1922454.633,1922456.7,2023-06-04T16:51:16Z,1922471.284,NULL,Angreifer,mshambulizi,d,NA,NA,NA,NA,sdf,NA,5,NA,NA,NA,NA,NA,NA,NA,NA,NA,NA,NA,NA,NA,NA,NA,NA,NA,NA,NA
333a0,Deep Question,html.Page,3_0_5_0_6_0_0,NA,NA,form submission,11561.815999905,1922457,1922454.633,1922471.284,1934033.0999999,1934033.2,2023-06-04T16:51:28Z,1934036.781,NULL,Auftrag,uagizaji,d,NA,NA,NA,ushang,NA,NA,5,NA,NA,NA,NA,NA,NA,NA,NA,NA,NA,NA,NA,NA,NA,NA,NA,NA,NA,NA
333a0,"""Richtig""-Screen",canvas.Screen,3_0_5_0_6_0_1,NA,NA,skipped,NA,1934035.5,NA,NA,1934033.0999999,1934035.5999999,2023-06-04T16:51:28Z,1934036.781,NULL,Auftrag,uagizaji,d,NA,NA,NA,NA,sdf,NA,5,NA,NA,NA,NA,NA,NA,NA,NA,NA,NA,NA,NA,NA,NA,NA,NA,NA,NA,NA
333a0,"""Falsch""-Screen",canvas.Screen,3_0_5_0_6_0_2,NA,NA,timeout,5000.227,1934036.3,1934020.703,1934036.781,1939019.869,1939021,2023-06-04T16:51:33Z,1939037.008,NULL,Auftrag,uagizaji,d,NA,NA,NA,NA,sdf,0,5,NA,NA,NA,NA,NA,NA,NA,NA,NA,NA,NA,NA,NA,NA,NA,NA,NA,NA,NA
333a0,deep,flow.Sequence,3_0_5_0_6_0,NA,NA,completion,16548.585,1922456.8999999,1922454.633,1922471.284,1939019.869,1939021.5,2023-06-04T16:51:33Z,1939037.008,NULL,Auftrag,uagizaji,d,NA,NA,NA,NA,sdf,NA,5,NA,NA,NA,NA,NA,NA,NA,NA,NA,NA,NA,NA,NA,NA,NA,NA,NA,NA,NA
333a0,shallow,flow.Sequence,3_0_5_0_6_1,NA,NA,skipped,NA,1939021.5999999,NA,NA,1939019.869,1939021.8,2023-06-04T16:51:33Z,1939037.008,NULL,Auftrag,uagizaji,d,NA,NA,NA,NA,sdf,NA,5,NA,NA,NA,NA,NA,NA,NA,NA,NA,NA,NA,NA,NA,NA,NA,NA,NA,NA,NA
333a0,task,flow.Sequence,3_0_5_0_6,NA,NA,completion,16548.585,1922456.8,1922454.633,1922471.284,1939019.869,1939022.0999999,2023-06-04T16:51:33Z,1939037.008,NULL,Auftrag,uagizaji,d,NA,NA,NA,NA,sdf,NA,5,NA,NA,NA,NA,NA,NA,NA,NA,NA,NA,NA,NA,NA,NA,NA,NA,NA,NA,NA
333a0,deep,flow.Sequence,3_0_5_0_7_0,NA,NA,skipped,NA,1939022.2,NA,NA,1939019.869,1939022.3999999,2023-06-04T16:51:33Z,1939037.008,NULL,Kanzler,diwani,s,rasilmali,mahitaji,maabudu,NA,sdf,NA,5,NA,NA,NA,NA,NA,NA,NA,NA,NA,NA,NA,NA,NA,NA,NA,NA,NA,NA,NA
333a0,Shallow Question,html.Page,3_0_5_0_7_1_0,NA,NA,form submission,5380.391999857,1939022.5999999,1939019.869,1939037.008,1944417.3999999,1944417.5999999,2023-06-04T16:51:38Z,1944419.375,NULL,Kanzler,diwani,s,rasilmali,mahitaji,maabudu,diwani,NA,NA,5,NA,NA,NA,NA,NA,NA,NA,NA,NA,NA,NA,NA,NA,NA,NA,NA,NA,NA,NA
333a0,"""Richtig""-Screen",canvas.Screen,3_0_5_0_7_1_1,NA,NA,timeout,5000.2879999999,1944419.8,1944403.283,1944419.375,1949402.453,1949403.0999999,2023-06-04T16:51:43Z,1949419.663,NULL,Kanzler,diwani,s,rasilmali,mahitaji,maabudu,NA,sdf,1,5,NA,NA,NA,NA,NA,NA,NA,NA,NA,NA,NA,NA,NA,NA,NA,NA,NA,NA,NA
333a0,"""Falsch""-Screen",canvas.Screen,3_0_5_0_7_1_2,NA,NA,skipped,NA,1949405,NA,NA,1949402.453,1949405.0999999,2023-06-04T16:51:43Z,1949419.663,NULL,Kanzler,diwani,s,rasilmali,mahitaji,maabudu,NA,sdf,NA,5,NA,NA,NA,NA,NA,NA,NA,NA,NA,NA,NA,NA,NA,NA,NA,NA,NA,NA,NA
333a0,shallow,flow.Sequence,3_0_5_0_7_1,NA,NA,completion,10365.445,1939022.3999999,1939019.869,1939037.008,1949402.453,1949405.3,2023-06-04T16:51:43Z,1949419.663,NULL,Kanzler,diwani,s,rasilmali,mahitaji,maabudu,NA,sdf,NA,5,NA,NA,NA,NA,NA,NA,NA,NA,NA,NA,NA,NA,NA,NA,NA,NA,NA,NA,NA
333a0,task,flow.Sequence,3_0_5_0_7,NA,NA,completion,10365.445,1939022.2,1939019.869,1939037.008,1949402.453,1949405.3999999,2023-06-04T16:51:43Z,1949419.663,NULL,Kanzler,diwani,s,rasilmali,mahitaji,maabudu,NA,sdf,NA,5,NA,NA,NA,NA,NA,NA,NA,NA,NA,NA,NA,NA,NA,NA,NA,NA,NA,NA,NA
333a0,block,flow.Loop,3_0_5_0,NA,NA,completion,122590.988,1826797.2,1826794.655,1826811.465,1949402.453,1949405.5,2023-06-04T16:51:43Z,1949419.663,NULL,NA,NA,NA,NA,NA,NA,NA,sdf,NA,5,NA,NA,NA,NA,NA,NA,NA,NA,NA,NA,NA,NA,NA,NA,NA,NA,NA,NA,NA
333a0,weiter,canvas.Screen,3_0_5_1,sdf,keypress(Space),response,1118.6369999524,1949405.5,1949402.453,1949419.663,1950538.3,1950539.3,2023-06-04T16:51:44Z,1950602.345,NULL,NA,NA,NA,NA,NA,NA,NA,sdf,NA,5,NA,NA,NA,NA,NA,NA,NA,NA,NA,NA,NA,NA,NA,NA,NA,NA,NA,NA,NA
333a0,check continue,flow.Sequence,3_0_5,NA,NA,completion,123726.83499995,1826797.2,1826794.655,1826811.465,1950538.3,1950539.5,2023-06-04T16:51:44Z,1950602.345,NULL,NA,NA,NA,NA,NA,NA,NA,sdf,NA,5,NA,NA,NA,NA,NA,NA,NA,NA,NA,NA,NA,NA,NA,NA,NA,NA,NA,NA,NA
333a0,deep,flow.Sequence,3_0_6_0_0_0,NA,NA,skipped,NA,1950594.5,NA,NA,1950538.3,1950594.7,2023-06-04T16:51:44Z,1950602.345,NULL,Abrechnung,uhasibu,s,kusahihisha,mpambano,mashambulizi,NA,dfs,NA,6,NA,NA,NA,NA,NA,NA,NA,NA,NA,NA,NA,NA,NA,NA,NA,NA,NA,NA,NA
333a0,Shallow Question,html.Page,3_0_6_0_0_1_0,NA,NA,form submission,20473.454999952,1950594.7,1950585.54,1950602.345,1971075.8,1971075.8999999,2023-06-04T16:52:05Z,1971084.061,NULL,Abrechnung,uhasibu,s,kusahihisha,mpambano,mashambulizi,uhasibu,NA,NA,6,NA,NA,NA,NA,NA,NA,NA,NA,NA,NA,NA,NA,NA,NA,NA,NA,NA,NA,NA
333a0,"""Richtig""-Screen",canvas.Screen,3_0_6_0_0_1_1,NA,NA,timeout,5000.041,1971078.2,1971067.534,1971084.061,1976067.121,1976068.3,2023-06-04T16:52:10Z,1976084.102,NULL,Abrechnung,uhasibu,s,kusahihisha,mpambano,mashambulizi,NA,dfs,1,6,NA,NA,NA,NA,NA,NA,NA,NA,NA,NA,NA,NA,NA,NA,NA,NA,NA,NA,NA
333a0,"""Falsch""-Screen",canvas.Screen,3_0_6_0_0_1_2,NA,NA,skipped,NA,1976072.8999999,NA,NA,1976067.121,1976073.0999999,2023-06-04T16:52:10Z,1976084.102,NULL,Abrechnung,uhasibu,s,kusahihisha,mpambano,mashambulizi,NA,dfs,NA,6,NA,NA,NA,NA,NA,NA,NA,NA,NA,NA,NA,NA,NA,NA,NA,NA,NA,NA,NA
333a0,shallow,flow.Sequence,3_0_6_0_0_1,NA,NA,completion,25464.776,1950594.7,1950585.54,1950602.345,1976067.121,1976073.2,2023-06-04T16:52:10Z,1976084.102,NULL,Abrechnung,uhasibu,s,kusahihisha,mpambano,mashambulizi,NA,dfs,NA,6,NA,NA,NA,NA,NA,NA,NA,NA,NA,NA,NA,NA,NA,NA,NA,NA,NA,NA,NA
333a0,task,flow.Sequence,3_0_6_0_0,NA,NA,completion,25464.776,1950594.5,1950585.54,1950602.345,1976067.121,1976073.3,2023-06-04T16:52:10Z,1976084.102,NULL,Abrechnung,uhasibu,s,kusahihisha,mpambano,mashambulizi,NA,dfs,NA,6,NA,NA,NA,NA,NA,NA,NA,NA,NA,NA,NA,NA,NA,NA,NA,NA,NA,NA,NA
333a0,deep,flow.Sequence,3_0_6_0_1_0,NA,NA,skipped,NA,1976073.3999999,NA,NA,1976067.121,1976073.3999999,2023-06-04T16:52:10Z,1976084.102,NULL,Zufall,kikuti,s,kukosekana,uchoraji,leseni,NA,dfs,NA,6,NA,NA,NA,NA,NA,NA,NA,NA,NA,NA,NA,NA,NA,NA,NA,NA,NA,NA,NA
333a0,Shallow Question,html.Page,3_0_6_0_1_1_0,NA,NA,form submission,10143.098000048,1976073.5,1976067.121,1976084.102,1986227.2,1986227.3999999,2023-06-04T16:52:20Z,1986232.984,NULL,Zufall,kikuti,s,kukosekana,uchoraji,leseni,kikuti,NA,NA,6,NA,NA,NA,NA,NA,NA,NA,NA,NA,NA,NA,NA,NA,NA,NA,NA,NA,NA,NA
333a0,"""Richtig""-Screen",canvas.Screen,3_0_6_0_1_1_1,NA,NA,timeout,5000.2590000001,1986229.5999999,1986216.842,1986232.984,1991216.574,1991217.7,2023-06-04T16:52:25Z,1991233.243,NULL,Zufall,kikuti,s,kukosekana,uchoraji,leseni,NA,dfs,1,6,NA,NA,NA,NA,NA,NA,NA,NA,NA,NA,NA,NA,NA,NA,NA,NA,NA,NA,NA
333a0,"""Falsch""-Screen",canvas.Screen,3_0_6_0_1_1_2,NA,NA,skipped,NA,1991223.0999999,NA,NA,1991216.574,1991223.2,2023-06-04T16:52:25Z,1991233.243,NULL,Zufall,kikuti,s,kukosekana,uchoraji,leseni,NA,dfs,NA,6,NA,NA,NA,NA,NA,NA,NA,NA,NA,NA,NA,NA,NA,NA,NA,NA,NA,NA,NA
333a0,shallow,flow.Sequence,3_0_6_0_1_1,NA,NA,completion,15132.472,1976073.3999999,1976067.121,1976084.102,1991216.574,1991223.3999999,2023-06-04T16:52:25Z,1991233.243,NULL,Zufall,kikuti,s,kukosekana,uchoraji,leseni,NA,dfs,NA,6,NA,NA,NA,NA,NA,NA,NA,NA,NA,NA,NA,NA,NA,NA,NA,NA,NA,NA,NA
333a0,task,flow.Sequence,3_0_6_0_1,NA,NA,completion,15132.472,1976073.3,1976067.121,1976084.102,1991216.574,1991223.3999999,2023-06-04T16:52:25Z,1991233.243,NULL,Zufall,kikuti,s,kukosekana,uchoraji,leseni,NA,dfs,NA,6,NA,NA,NA,NA,NA,NA,NA,NA,NA,NA,NA,NA,NA,NA,NA,NA,NA,NA,NA
333a0,Deep Question,html.Page,3_0_6_0_2_0_0,NA,NA,form submission,13885.856999905,1991223.5,1991216.574,1991233.243,2005119.0999999,2005119.3,2023-06-04T16:52:39Z,2005131.72,NULL,Auftrag,uagizaji,d,NA,NA,NA,ushagaji,NA,NA,6,NA,NA,NA,NA,NA,NA,NA,NA,NA,NA,NA,NA,NA,NA,NA,NA,NA,NA,NA
