observation,sender,sender_type,sender_id,response,response_action,ended_on,duration,time_run,time_render,time_show,time_end,time_commit,timestamp,time_switch,german,swahili,enc,distractor1,distractor2,distractor3,response_2,x,correct,distractors,url_vp,url_sess,meta_labjs_version,meta_location,meta_user_agent,meta_platform,meta_language,meta_locale,meta_time_zone,meta_timezone_offset,meta_screen_width,meta_screen_height,meta_scroll_width,meta_scroll_height,meta_window_inner_width,meta_window_inner_height,meta_device_pixel_ratio,meta_labjs_build_flavor,meta_labjs_build_commit
56f41,Introduction delayed retrieval,canvas.Screen,0,weiter,keypress(Space),response,46883.228999976,533,406.68,556.671,47439.899999976,47442.299999952,2023-03-28T00:19:52Z,47453.132,NA,NA,NA,NA,NA,NA,NA,NA,NA,NULL,120,2,20.2.4,https://neurocog.fernuni.ch/studies/vweber/delayed%202/index.html?vp=120&sess=2,"Mozilla/5.0 (Windows NT 10.0; Win64; x64) AppleWebKit/537.36 (KHTML, like Gecko) Chrome/111.0.0.0 Safari/537.36",Win32,de-DE,de,America/New_York,240,1366,768,1366,609,1366,657,1,production,f5b4a49f956347addd546a832a3327688c2c0fef
56f41,Deep Question,html.Page,1_0_0_0,NA,NA,form submission,19351.267999976,47442.899999976,47436.079,47453.132,66804.399999976,66804.599999905,2023-03-28T00:20:11Z,66818.354,Notfall,dharura,d,rairai,malalamiko,ahueni,washar,NA,NA,NULL,NA,NA,NA,NA,NA,NA,NA,NA,NA,NA,NA,NA,NA,NA,NA,NA,NA,NA,NA
56f41,Save data screen,canvas.Screen,1_0_0_1,NA,NA,timeout,499.996,66805.699999928,66802.295,66818.354,67301.695,67303.5,2023-03-28T00:20:12Z,67318.35,Notfall,dharura,d,rairai,malalamiko,ahueni,NA,NA,0,NULL,NA,NA,NA,NA,NA,NA,NA,NA,NA,NA,NA,NA,NA,NA,NA,NA,NA,NA,NA
56f41,deep,flow.Sequence,1_0_0,NA,NA,completion,19848.563,47442.899999976,47436.079,47453.132,67301.695,67304.199999928,2023-03-28T00:20:12Z,67318.35,Notfall,dharura,d,rairai,malalamiko,ahueni,NA,NA,NA,NULL,NA,NA,NA,NA,NA,NA,NA,NA,NA,NA,NA,NA,NA,NA,NA,NA,NA,NA,NA
56f41,task,flow.Sequence,1_0,NA,NA,completion,19848.563,47442.799999952,47436.079,47453.132,67301.695,67304.5,2023-03-28T00:20:12Z,67318.35,Notfall,dharura,d,rairai,malalamiko,ahueni,NA,NA,NA,NULL,NA,NA,NA,NA,NA,NA,NA,NA,NA,NA,NA,NA,NA,NA,NA,NA,NA,NA,NA
56f41,Deep Question,html.Page,1_1_0_0,NA,NA,form submission,7446.9499999523,67304.799999952,67301.695,67318.35,74765.299999952,74765.399999976,2023-03-28T00:20:19Z,74767.843,Toleranz,kuvumiliana,s,maombolezo,ujasusi,mchekeshaji,kiki,NA,NA,NULL,NA,NA,NA,NA,NA,NA,NA,NA,NA,NA,NA,NA,NA,NA,NA,NA,NA,NA,NA
56f41,Save data screen,canvas.Screen,1_1_0_1,NA,NA,timeout,500.12700000001,74768.199999928,74751.658,74767.843,75251.144,75252.199999928,2023-03-28T00:20:20Z,75267.97,Toleranz,kuvumiliana,s,maombolezo,ujasusi,mchekeshaji,NA,NA,0,NULL,NA,NA,NA,NA,NA,NA,NA,NA,NA,NA,NA,NA,NA,NA,NA,NA,NA,NA,NA
56f41,deep,flow.Sequence,1_1_0,NA,NA,completion,7932.794,67304.699999928,67301.695,67318.35,75251.144,75252.799999952,2023-03-28T00:20:20Z,75267.97,Toleranz,kuvumiliana,s,maombolezo,ujasusi,mchekeshaji,NA,NA,NA,NULL,NA,NA,NA,NA,NA,NA,NA,NA,NA,NA,NA,NA,NA,NA,NA,NA,NA,NA,NA
56f41,task,flow.Sequence,1_1,NA,NA,completion,7932.794,67304.699999928,67301.695,67318.35,75251.144,75253.199999928,2023-03-28T00:20:20Z,75267.97,Toleranz,kuvumiliana,s,maombolezo,ujasusi,mchekeshaji,NA,NA,NA,NULL,NA,NA,NA,NA,NA,NA,NA,NA,NA,NA,NA,NA,NA,NA,NA,NA,NA,NA,NA
56f41,Deep Question,html.Page,1_2_0_0,NA,NA,form submission,7052.8299999523,75253.899999976,75251.144,75267.97,82320.799999952,82321.099999905,2023-03-28T00:20:27Z,82333.887,Wohlstand,mafanikio,s,chimbuko,kumbuko,mapwaji,x,NA,NA,NULL,NA,NA,NA,NA,NA,NA,NA,NA,NA,NA,NA,NA,NA,NA,NA,NA,NA,NA,NA
56f41,Save data screen,canvas.Screen,1_2_0_1,NA,NA,timeout,500.311,82323.199999928,82317.373,82333.887,82817.238,82818.5,2023-03-28T00:20:27Z,82834.198,Wohlstand,mafanikio,s,chimbuko,kumbuko,mapwaji,NA,NA,0,NULL,NA,NA,NA,NA,NA,NA,NA,NA,NA,NA,NA,NA,NA,NA,NA,NA,NA,NA,NA
56f41,deep,flow.Sequence,1_2_0,NA,NA,completion,7549.268,75253.599999905,75251.144,75267.97,82817.238,82819.099999905,2023-03-28T00:20:27Z,82834.198,Wohlstand,mafanikio,s,chimbuko,kumbuko,mapwaji,NA,NA,NA,NULL,NA,NA,NA,NA,NA,NA,NA,NA,NA,NA,NA,NA,NA,NA,NA,NA,NA,NA,NA
56f41,task,flow.Sequence,1_2,NA,NA,completion,7549.268,75253.599999905,75251.144,75267.97,82817.238,82819.5,2023-03-28T00:20:27Z,82834.198,Wohlstand,mafanikio,s,chimbuko,kumbuko,mapwaji,NA,NA,NA,NULL,NA,NA,NA,NA,NA,NA,NA,NA,NA,NA,NA,NA,NA,NA,NA,NA,NA,NA,NA
56f41,Deep Question,html.Page,1_3_0_0,NA,NA,form submission,19090.601999952,82819.899999976,82817.238,82834.198,101924.79999995,101925,2023-03-28T00:20:46Z,101932.403,Spionage,upelelezi,s,maslahi,utokazo,magangao,ushija,NA,NA,NULL,NA,NA,NA,NA,NA,NA,NA,NA,NA,NA,NA,NA,NA,NA,NA,NA,NA,NA,NA
56f41,Save data screen,canvas.Screen,1_3_0_1,NA,NA,timeout,500.32999999999,101927.29999995,101916.336,101932.403,102415.87,102417,2023-03-28T00:20:47Z,102432.733,Spionage,upelelezi,s,maslahi,utokazo,magangao,NA,NA,0,NULL,NA,NA,NA,NA,NA,NA,NA,NA,NA,NA,NA,NA,NA,NA,NA,NA,NA,NA,NA
56f41,deep,flow.Sequence,1_3_0,NA,NA,completion,19581.672,82819.799999952,82817.238,82834.198,102415.87,102417.5,2023-03-28T00:20:47Z,102432.733,Spionage,upelelezi,s,maslahi,utokazo,magangao,NA,NA,NA,NULL,NA,NA,NA,NA,NA,NA,NA,NA,NA,NA,NA,NA,NA,NA,NA,NA,NA,NA,NA
56f41,task,flow.Sequence,1_3,NA,NA,completion,19581.672,82819.799999952,82817.238,82834.198,102415.87,102417.79999995,2023-03-28T00:20:47Z,102432.733,Spionage,upelelezi,s,maslahi,utokazo,magangao,NA,NA,NA,NULL,NA,NA,NA,NA,NA,NA,NA,NA,NA,NA,NA,NA,NA,NA,NA,NA,NA,NA,NA
56f41,Deep Question,html.Page,1_4_0_0,NA,NA,form submission,18448.866999905,102418.0999999,102415.87,102432.733,120881.5999999,120881.89999998,2023-03-28T00:21:05Z,120914.922,Schlange,foleni,s,uvumilivu,uteuzi,muuzaji,dihjar,NA,NA,NULL,NA,NA,NA,NA,NA,NA,NA,NA,NA,NA,NA,NA,NA,NA,NA,NA,NA,NA,NA
56f41,Save data screen,canvas.Screen,1_4_0_1,NA,NA,timeout,499.912,120884.5,120898.285,120914.922,121397.8,121398.89999998,2023-03-28T00:21:06Z,121414.834,Schlange,foleni,s,uvumilivu,uteuzi,muuzaji,NA,NA,0,NULL,NA,NA,NA,NA,NA,NA,NA,NA,NA,NA,NA,NA,NA,NA,NA,NA,NA,NA,NA
56f41,deep,flow.Sequence,1_4_0,NA,NA,completion,18965.067,102418.0999999,102415.87,102432.733,121397.8,121399.29999995,2023-03-28T00:21:06Z,121414.834,Schlange,foleni,s,uvumilivu,uteuzi,muuzaji,NA,NA,NA,NULL,NA,NA,NA,NA,NA,NA,NA,NA,NA,NA,NA,NA,NA,NA,NA,NA,NA,NA,NA
56f41,task,flow.Sequence,1_4,NA,NA,completion,18965.067,102418,102415.87,102432.733,121397.8,121399.5999999,2023-03-28T00:21:06Z,121414.834,Schlange,foleni,s,uvumilivu,uteuzi,muuzaji,NA,NA,NA,NULL,NA,NA,NA,NA,NA,NA,NA,NA,NA,NA,NA,NA,NA,NA,NA,NA,NA,NA,NA
56f41,Deep Question,html.Page,1_5_0_0,NA,NA,form submission,17337.765999905,121400,121397.8,121414.834,138752.5999999,138752.89999998,2023-03-28T00:21:23Z,138762.963,Schüler,mwanafunzi,d,mwekezaji,matumizi,uaminifu,washmankuku,NA,NA,NULL,NA,NA,NA,NA,NA,NA,NA,NA,NA,NA,NA,NA,NA,NA,NA,NA,NA,NA,NA
56f41,Save data screen,canvas.Screen,1_5_0_1,NA,NA,timeout,500.52000000002,138755.5999999,138746.854,138762.963,139246.856,139247.79999995,2023-03-28T00:21:24Z,139263.483,Schüler,mwanafunzi,d,mwekezaji,matumizi,uaminifu,NA,NA,0,NULL,NA,NA,NA,NA,NA,NA,NA,NA,NA,NA,NA,NA,NA,NA,NA,NA,NA,NA,NA
56f41,deep,flow.Sequence,1_5_0,NA,NA,completion,17832.022,121399.89999998,121397.8,121414.834,139246.856,139248.19999993,2023-03-28T00:21:24Z,139263.483,Schüler,mwanafunzi,d,mwekezaji,matumizi,uaminifu,NA,NA,NA,NULL,NA,NA,NA,NA,NA,NA,NA,NA,NA,NA,NA,NA,NA,NA,NA,NA,NA,NA,NA
56f41,task,flow.Sequence,1_5,NA,NA,completion,17832.022,121399.89999998,121397.8,121414.834,139246.856,139248.5999999,2023-03-28T00:21:24Z,139263.483,Schüler,mwanafunzi,d,mwekezaji,matumizi,uaminifu,NA,NA,NA,NULL,NA,NA,NA,NA,NA,NA,NA,NA,NA,NA,NA,NA,NA,NA,NA,NA,NA,NA,NA
56f41,Deep Question,html.Page,1_6_0_0,NA,NA,form submission,4144.6169999046,139249,139246.856,139263.483,143408.0999999,143408.29999995,2023-03-28T00:21:28Z,143412.65,Inhalt,yaliyomo,d,kishawishi,hifadhi,kutembea,x,NA,NA,NULL,NA,NA,NA,NA,NA,NA,NA,NA,NA,NA,NA,NA,NA,NA,NA,NA,NA,NA,NA
56f41,Save data screen,canvas.Screen,1_6_0_1,NA,NA,timeout,500.435,143410.5999999,143396.513,143412.65,143896.476,143897.39999998,2023-03-28T00:21:28Z,143913.085,Inhalt,yaliyomo,d,kishawishi,hifadhi,kutembea,NA,NA,0,NULL,NA,NA,NA,NA,NA,NA,NA,NA,NA,NA,NA,NA,NA,NA,NA,NA,NA,NA,NA
56f41,deep,flow.Sequence,1_6_0,NA,NA,completion,4632.993,139248.89999998,139246.856,139263.483,143896.476,143897.89999998,2023-03-28T00:21:28Z,143913.085,Inhalt,yaliyomo,d,kishawishi,hifadhi,kutembea,NA,NA,NA,NULL,NA,NA,NA,NA,NA,NA,NA,NA,NA,NA,NA,NA,NA,NA,NA,NA,NA,NA,NA
56f41,task,flow.Sequence,1_6,NA,NA,completion,4632.993,139248.69999993,139246.856,139263.483,143896.476,143898.19999993,2023-03-28T00:21:28Z,143913.085,Inhalt,yaliyomo,d,kishawishi,hifadhi,kutembea,NA,NA,NA,NULL,NA,NA,NA,NA,NA,NA,NA,NA,NA,NA,NA,NA,NA,NA,NA,NA,NA,NA,NA
56f41,Deep Question,html.Page,1_7_0_0,NA,NA,form submission,18214.514999905,143898.5,143896.476,143913.085,162127.5999999,162127.79999995,2023-03-28T00:21:47Z,162149.733,Schock,mshtuko,s,biashara,kukataza,vichekesho,mshaka,NA,NA,NULL,NA,NA,NA,NA,NA,NA,NA,NA,NA,NA,NA,NA,NA,NA,NA,NA,NA,NA,NA
56f41,Save data screen,canvas.Screen,1_7_0_1,NA,NA,timeout,495.12399999998,162130.5,162111.325,162149.733,162628.048,162629.19999993,2023-03-28T00:21:47Z,162644.857,Schock,mshtuko,s,biashara,kukataza,vichekesho,NA,NA,0,NULL,NA,NA,NA,NA,NA,NA,NA,NA,NA,NA,NA,NA,NA,NA,NA,NA,NA,NA,NA
56f41,deep,flow.Sequence,1_7_0,NA,NA,completion,18714.963,143898.5,143896.476,143913.085,162628.048,162629.5999999,2023-03-28T00:21:47Z,162644.857,Schock,mshtuko,s,biashara,kukataza,vichekesho,NA,NA,NA,NULL,NA,NA,NA,NA,NA,NA,NA,NA,NA,NA,NA,NA,NA,NA,NA,NA,NA,NA,NA
56f41,task,flow.Sequence,1_7,NA,NA,completion,18714.963,143898.39999998,143896.476,143913.085,162628.048,162629.89999998,2023-03-28T00:21:47Z,162644.857,Schock,mshtuko,s,biashara,kukataza,vichekesho,NA,NA,NA,NULL,NA,NA,NA,NA,NA,NA,NA,NA,NA,NA,NA,NA,NA,NA,NA,NA,NA,NA,NA
56f41,Deep Question,html.Page,1_8_0_0,NA,NA,form submission,4111.7429999046,162630.19999993,162628.048,162644.857,166756.5999999,166756.79999995,2023-03-28T00:21:51Z,166760.87,Ergänzung,kijalizo,s,ulaghai,mustarehe,matangazo,x,NA,NA,NULL,NA,NA,NA,NA,NA,NA,NA,NA,NA,NA,NA,NA,NA,NA,NA,NA,NA,NA,NA
56f41,Save data screen,canvas.Screen,1_8_0_1,NA,NA,timeout,500.28599999999,166758.89999998,166744.519,166760.87,167244.458,167245.5999999,2023-03-28T00:21:52Z,167261.156,Ergänzung,kijalizo,s,ulaghai,mustarehe,matangazo,NA,NA,0,NULL,NA,NA,NA,NA,NA,NA,NA,NA,NA,NA,NA,NA,NA,NA,NA,NA,NA,NA,NA
56f41,deep,flow.Sequence,1_8_0,NA,NA,completion,4599.601,162630.19999993,162628.048,162644.857,167244.458,167246,2023-03-28T00:21:52Z,167261.156,Ergänzung,kijalizo,s,ulaghai,mustarehe,matangazo,NA,NA,NA,NULL,NA,NA,NA,NA,NA,NA,NA,NA,NA,NA,NA,NA,NA,NA,NA,NA,NA,NA,NA
56f41,task,flow.Sequence,1_8,NA,NA,completion,4599.601,162630,162628.048,162644.857,167244.458,167246.29999995,2023-03-28T00:21:52Z,167261.156,Ergänzung,kijalizo,s,ulaghai,mustarehe,matangazo,NA,NA,NA,NULL,NA,NA,NA,NA,NA,NA,NA,NA,NA,NA,NA,NA,NA,NA,NA,NA,NA,NA,NA
56f41,Deep Question,html.Page,1_9_0_0,NA,NA,form submission,4573.9439999046,167246.69999993,167244.458,167261.156,171835.0999999,171835.39999998,2023-03-28T00:21:56Z,171844.119,Hoffnung,matarajio,d,kutaalamika,uratibu,mvumbuzi,x,NA,NA,NULL,NA,NA,NA,NA,NA,NA,NA,NA,NA,NA,NA,NA,NA,NA,NA,NA,NA,NA,NA
56f41,Save data screen,canvas.Screen,1_9_0_1,NA,NA,timeout,499.75200000001,171837.5999999,171827.715,171844.119,172327.27,172328.39999998,2023-03-28T00:21:57Z,172343.871,Hoffnung,matarajio,d,kutaalamika,uratibu,mvumbuzi,NA,NA,0,NULL,NA,NA,NA,NA,NA,NA,NA,NA,NA,NA,NA,NA,NA,NA,NA,NA,NA,NA,NA
56f41,deep,flow.Sequence,1_9_0,NA,NA,completion,5066.114,167246.69999993,167244.458,167261.156,172327.27,172328.89999998,2023-03-28T00:21:57Z,172343.871,Hoffnung,matarajio,d,kutaalamika,uratibu,mvumbuzi,NA,NA,NA,NULL,NA,NA,NA,NA,NA,NA,NA,NA,NA,NA,NA,NA,NA,NA,NA,NA,NA,NA,NA
56f41,task,flow.Sequence,1_9,NA,NA,completion,5066.114,167246.5,167244.458,167261.156,172327.27,172329.19999993,2023-03-28T00:21:57Z,172343.871,Hoffnung,matarajio,d,kutaalamika,uratibu,mvumbuzi,NA,NA,NA,NULL,NA,NA,NA,NA,NA,NA,NA,NA,NA,NA,NA,NA,NA,NA,NA,NA,NA,NA,NA
56f41,Deep Question,html.Page,1_10_0_0,NA,NA,form submission,2354.0289999761,172329.5,172327.27,172343.871,174697.89999998,174698.19999993,2023-03-28T00:21:59Z,174710.263,Vermutung,udhanifu,d,haramia,tikisho,itifaki,x,NA,NA,NULL,NA,NA,NA,NA,NA,NA,NA,NA,NA,NA,NA,NA,NA,NA,NA,NA,NA,NA,NA
56f41,Save data screen,canvas.Screen,1_10_0_1,NA,NA,timeout,500.05100000001,174700.29999995,174693.764,174710.263,175194.229,175194.89999998,2023-03-28T00:22:00Z,175210.314,Vermutung,udhanifu,d,haramia,tikisho,itifaki,NA,NA,0,NULL,NA,NA,NA,NA,NA,NA,NA,NA,NA,NA,NA,NA,NA,NA,NA,NA,NA,NA,NA
56f41,deep,flow.Sequence,1_10_0,NA,NA,completion,2850.358,172329.5,172327.27,172343.871,175194.229,175195,2023-03-28T00:22:00Z,175210.314,Vermutung,udhanifu,d,haramia,tikisho,itifaki,NA,NA,NA,NULL,NA,NA,NA,NA,NA,NA,NA,NA,NA,NA,NA,NA,NA,NA,NA,NA,NA,NA,NA
56f41,task,flow.Sequence,1_10,NA,NA,completion,2850.358,172329.29999995,172327.27,172343.871,175194.229,175195.19999993,2023-03-28T00:22:00Z,175210.314,Vermutung,udhanifu,d,haramia,tikisho,itifaki,NA,NA,NA,NULL,NA,NA,NA,NA,NA,NA,NA,NA,NA,NA,NA,NA,NA,NA,NA,NA,NA,NA,NA
56f41,Deep Question,html.Page,1_11_0_0,NA,NA,form submission,2621.4859999523,175195.39999998,175194.229,175210.314,177831.79999995,177832,2023-03-28T00:22:02Z,177843.972,Tester,wanaojaribu,d,sherti,sihiri,mlipuko,x,NA,NA,NULL,NA,NA,NA,NA,NA,NA,NA,NA,NA,NA,NA,NA,NA,NA,NA,NA,NA,NA,NA
56f41,Save data screen,canvas.Screen,1_11_0_1,NA,NA,timeout,499.66399999999,177832.5,177827.426,177843.972,178327.01,178327.89999998,2023-03-28T00:22:03Z,178343.636,Tester,wanaojaribu,d,sherti,sihiri,mlipuko,NA,NA,0,NULL,NA,NA,NA,NA,NA,NA,NA,NA,NA,NA,NA,NA,NA,NA,NA,NA,NA,NA,NA
56f41,deep,flow.Sequence,1_11_0,NA,NA,completion,3116.696,175195.29999995,175194.229,175210.314,178327.01,178328.29999995,2023-03-28T00:22:03Z,178343.636,Tester,wanaojaribu,d,sherti,sihiri,mlipuko,NA,NA,NA,NULL,NA,NA,NA,NA,NA,NA,NA,NA,NA,NA,NA,NA,NA,NA,NA,NA,NA,NA,NA
56f41,task,flow.Sequence,1_11,NA,NA,completion,3116.696,175195.29999995,175194.229,175210.314,178327.01,178328.5999999,2023-03-28T00:22:03Z,178343.636,Tester,wanaojaribu,d,sherti,sihiri,mlipuko,NA,NA,NA,NULL,NA,NA,NA,NA,NA,NA,NA,NA,NA,NA,NA,NA,NA,NA,NA,NA,NA,NA,NA
56f41,Deep Question,html.Page,1_12_0_0,NA,NA,form submission,10459.864,178328.89999998,178327.01,178343.636,188803.5,188803.69999993,2023-03-28T00:22:13Z,188809.228,Verpackung,ufungaji,d,uhusiano,upimaji,uchunguzi,x,NA,NA,NULL,NA,NA,NA,NA,NA,NA,NA,NA,NA,NA,NA,NA,NA,NA,NA,NA,NA,NA,NA
56f41,Save data screen,canvas.Screen,1_12_0_1,NA,NA,timeout,500.23699999999,188806,188792.68,188809.228,189292.921,189293.89999998,2023-03-28T00:22:14Z,189309.465,Verpackung,ufungaji,d,uhusiano,upimaji,uchunguzi,NA,NA,0,NULL,NA,NA,NA,NA,NA,NA,NA,NA,NA,NA,NA,NA,NA,NA,NA,NA,NA,NA,NA
56f41,deep,flow.Sequence,1_12_0,NA,NA,completion,10949.285,178328.89999998,178327.01,178343.636,189292.921,189294.29999995,2023-03-28T00:22:14Z,189309.465,Verpackung,ufungaji,d,uhusiano,upimaji,uchunguzi,NA,NA,NA,NULL,NA,NA,NA,NA,NA,NA,NA,NA,NA,NA,NA,NA,NA,NA,NA,NA,NA,NA,NA
56f41,task,flow.Sequence,1_12,NA,NA,completion,10949.285,178328.79999995,178327.01,178343.636,189292.921,189294.5999999,2023-03-28T00:22:14Z,189309.465,Verpackung,ufungaji,d,uhusiano,upimaji,uchunguzi,NA,NA,NA,NULL,NA,NA,NA,NA,NA,NA,NA,NA,NA,NA,NA,NA,NA,NA,NA,NA,NA,NA,NA
56f41,Deep Question,html.Page,1_13_0_0,NA,NA,form submission,18611.934999976,189294.79999995,189292.921,189309.465,207921.39999998,207921.79999995,2023-03-28T00:22:32Z,207924.443,Theorie,nadharia,s,ushungi,mkutano,uwakilishi,x,NA,NA,NULL,NA,NA,NA,NA,NA,NA,NA,NA,NA,NA,NA,NA,NA,NA,NA,NA,NA,NA,NA
56f41,Save data screen,canvas.Screen,1_13_0_1,NA,NA,timeout,499.96299999999,207924.89999998,207907.79,207924.443,208407.732,208408.19999993,2023-03-28T00:22:33Z,208424.406,Theorie,nadharia,s,ushungi,mkutano,uwakilishi,NA,NA,0,NULL,NA,NA,NA,NA,NA,NA,NA,NA,NA,NA,NA,NA,NA,NA,NA,NA,NA,NA,NA
56f41,deep,flow.Sequence,1_13_0,NA,NA,completion,19098.267,189294.79999995,189292.921,189309.465,208407.732,208408.5,2023-03-28T00:22:33Z,208424.406,Theorie,nadharia,s,ushungi,mkutano,uwakilishi,NA,NA,NA,NULL,NA,NA,NA,NA,NA,NA,NA,NA,NA,NA,NA,NA,NA,NA,NA,NA,NA,NA,NA
56f41,task,flow.Sequence,1_13,NA,NA,completion,19098.267,189294.79999995,189292.921,189309.465,208407.732,208408.5999999,2023-03-28T00:22:33Z,208424.406,Theorie,nadharia,s,ushungi,mkutano,uwakilishi,NA,NA,NA,NULL,NA,NA,NA,NA,NA,NA,NA,NA,NA,NA,NA,NA,NA,NA,NA,NA,NA,NA,NA
56f41,Deep Question,html.Page,1_14_0_0,NA,NA,form submission,13052.793999928,208408.69999993,208407.732,208424.406,221477.19999993,221477.5,2023-03-28T00:22:46Z,221490.107,Fenster,dirisha,s,walakini,tasawari,maarifa,dharji,NA,NA,NULL,NA,NA,NA,NA,NA,NA,NA,NA,NA,NA,NA,NA,NA,NA,NA,NA,NA,NA,NA
56f41,Save data screen,canvas.Screen,1_14_0_1,NA,NA,timeout,499.94400000002,221480.29999995,221473.44,221490.107,221973.424,221973.89999998,2023-03-28T00:22:46Z,221990.051,Fenster,dirisha,s,walakini,tasawari,maarifa,NA,NA,0,NULL,NA,NA,NA,NA,NA,NA,NA,NA,NA,NA,NA,NA,NA,NA,NA,NA,NA,NA,NA
56f41,deep,flow.Sequence,1_14_0,NA,NA,completion,13549.018,208408.69999993,208407.732,208424.406,221973.424,221974.0999999,2023-03-28T00:22:46Z,221990.051,Fenster,dirisha,s,walakini,tasawari,maarifa,NA,NA,NA,NULL,NA,NA,NA,NA,NA,NA,NA,NA,NA,NA,NA,NA,NA,NA,NA,NA,NA,NA,NA
56f41,task,flow.Sequence,1_14,NA,NA,completion,13549.018,208408.69999993,208407.732,208424.406,221973.424,221974.29999995,2023-03-28T00:22:46Z,221990.051,Fenster,dirisha,s,walakini,tasawari,maarifa,NA,NA,NA,NULL,NA,NA,NA,NA,NA,NA,NA,NA,NA,NA,NA,NA,NA,NA,NA,NA,NA,NA,NA
56f41,Deep Question,html.Page,1_15_0_0,NA,NA,form submission,6985.449,221974.39999998,221973.424,221990.051,228975.5,228975.79999995,2023-03-28T00:22:53Z,228989.513,Vergnügen,kichekesho,d,dubwana,mpanuko,mtesaji,x,NA,NA,NULL,NA,NA,NA,NA,NA,NA,NA,NA,NA,NA,NA,NA,NA,NA,NA,NA,NA,NA,NA
56f41,Save data screen,canvas.Screen,1_15_0_1,NA,NA,timeout,499.97500000001,228978.5,228972.869,228989.513,229472.818,229473.29999995,2023-03-28T00:22:54Z,229489.488,Vergnügen,kichekesho,d,dubwana,mpanuko,mtesaji,NA,NA,0,NULL,NA,NA,NA,NA,NA,NA,NA,NA,NA,NA,NA,NA,NA,NA,NA,NA,NA,NA,NA
56f41,deep,flow.Sequence,1_15_0,NA,NA,completion,7482.767,221974.39999998,221973.424,221990.051,229472.818,229473.5,2023-03-28T00:22:54Z,229489.488,Vergnügen,kichekesho,d,dubwana,mpanuko,mtesaji,NA,NA,NA,NULL,NA,NA,NA,NA,NA,NA,NA,NA,NA,NA,NA,NA,NA,NA,NA,NA,NA,NA,NA
56f41,task,flow.Sequence,1_15,NA,NA,completion,7482.767,221974.29999995,221973.424,221990.051,229472.818,229473.69999993,2023-03-28T00:22:54Z,229489.488,Vergnügen,kichekesho,d,dubwana,mpanuko,mtesaji,NA,NA,NA,NULL,NA,NA,NA,NA,NA,NA,NA,NA,NA,NA,NA,NA,NA,NA,NA,NA,NA,NA,NA
56f41,retrieval block 1 (cued recall),flow.Loop,1,NA,NA,completion,182019.686,47442.799999952,47436.079,47453.132,229472.818,229473.89999998,2023-03-28T00:22:54Z,229489.488,NA,NA,NA,NA,NA,NA,NA,NA,NA,NULL,NA,NA,NA,NA,NA,NA,NA,NA,NA,NA,NA,NA,NA,NA,NA,NA,NA,NA,NA
56f41,Shallow Question,html.Page,2_0_0_0,NA,NA,form submission,7181.6119999046,229474.0999999,229472.818,229489.488,236671.0999999,236671.39999998,2023-03-28T00:23:01Z,236672.289,Schock,mshtuko,s,biashara,kukataza,vichekesho,mshtuko,NA,NA,"c(""distractor1"", ""distractor2"", ""distractor3"")",NA,NA,NA,NA,NA,NA,NA,NA,NA,NA,NA,NA,NA,NA,NA,NA,NA,NA,NA
56f41,Save data screen,canvas.Screen,2_0_0_1,NA,NA,timeout,499.997,236673.69999993,236655.668,236672.289,237155.627,237156,2023-03-28T00:23:02Z,237172.286,Schock,mshtuko,s,biashara,kukataza,vichekesho,NA,NA,1,"c(""distractor1"", ""distractor2"", ""distractor3"")",NA,NA,NA,NA,NA,NA,NA,NA,NA,NA,NA,NA,NA,NA,NA,NA,NA,NA,NA
56f41,shallow,flow.Sequence,2_0_0,NA,NA,completion,7666.139,229474.0999999,229472.818,229489.488,237155.627,237156.0999999,2023-03-28T00:23:02Z,237172.286,Schock,mshtuko,s,biashara,kukataza,vichekesho,NA,NA,NA,"c(""distractor1"", ""distractor2"", ""distractor3"")",NA,NA,NA,NA,NA,NA,NA,NA,NA,NA,NA,NA,NA,NA,NA,NA,NA,NA,NA
56f41,task,flow.Sequence,2_0,NA,NA,completion,7666.139,229474.0999999,229472.818,229489.488,237155.627,237156.29999995,2023-03-28T00:23:02Z,237172.286,Schock,mshtuko,s,biashara,kukataza,vichekesho,NA,NA,NA,"c(""distractor1"", ""distractor2"", ""distractor3"")",NA,NA,NA,NA,NA,NA,NA,NA,NA,NA,NA,NA,NA,NA,NA,NA,NA,NA,NA
56f41,Shallow Question,html.Page,2_1_0_0,NA,NA,form submission,10445.513999952,237156.39999998,237155.627,237172.286,247617.79999995,247617.89999998,2023-03-28T00:23:12Z,247621.464,Schlange,foleni,s,uvumilivu,uteuzi,muuzaji,foleni,NA,NA,"c(""distractor1"", ""distractor2"", ""distractor3"")",NA,NA,NA,NA,NA,NA,NA,NA,NA,NA,NA,NA,NA,NA,NA,NA,NA,NA,NA
56f41,Save data screen,canvas.Screen,2_1_0_1,NA,NA,timeout,500.285,247620.0999999,247605.088,247621.464,248104.862,248105.79999995,2023-03-28T00:23:13Z,248121.749,Schlange,foleni,s,uvumilivu,uteuzi,muuzaji,NA,NA,1,"c(""distractor1"", ""distractor2"", ""distractor3"")",NA,NA,NA,NA,NA,NA,NA,NA,NA,NA,NA,NA,NA,NA,NA,NA,NA,NA,NA
56f41,shallow,flow.Sequence,2_1_0,NA,NA,completion,10932.576,237156.29999995,237155.627,237172.286,248104.862,248106.29999995,2023-03-28T00:23:13Z,248121.749,Schlange,foleni,s,uvumilivu,uteuzi,muuzaji,NA,NA,NA,"c(""distractor1"", ""distractor2"", ""distractor3"")",NA,NA,NA,NA,NA,NA,NA,NA,NA,NA,NA,NA,NA,NA,NA,NA,NA,NA,NA
56f41,task,flow.Sequence,2_1,NA,NA,completion,10932.576,237156.29999995,237155.627,237172.286,248104.862,248106.5999999,2023-03-28T00:23:13Z,248121.749,Schlange,foleni,s,uvumilivu,uteuzi,muuzaji,NA,NA,NA,"c(""distractor1"", ""distractor2"", ""distractor3"")",NA,NA,NA,NA,NA,NA,NA,NA,NA,NA,NA,NA,NA,NA,NA,NA,NA,NA,NA
56f41,Shallow Question,html.Page,2_2_0_0,NA,NA,form submission,14797.350999905,248106.79999995,248104.862,248121.749,262919.0999999,262919.29999995,2023-03-28T00:23:27Z,262920.326,Toleranz,kuvumiliana,s,maombolezo,ujasusi,mchekeshaji,kuvumiliana,NA,NA,"c(""distractor1"", ""distractor2"", ""distractor3"")",NA,NA,NA,NA,NA,NA,NA,NA,NA,NA,NA,NA,NA,NA,NA,NA,NA,NA,NA
56f41,Save data screen,canvas.Screen,2_2_0_1,NA,NA,timeout,499.98599999998,262921.69999993,262903.626,262920.326,263404.219,263404.5999999,2023-03-28T00:23:28Z,263420.312,Toleranz,kuvumiliana,s,maombolezo,ujasusi,mchekeshaji,NA,NA,1,"c(""distractor1"", ""distractor2"", ""distractor3"")",NA,NA,NA,NA,NA,NA,NA,NA,NA,NA,NA,NA,NA,NA,NA,NA,NA,NA,NA
56f41,shallow,flow.Sequence,2_2_0,NA,NA,completion,15282.47,248106.79999995,248104.862,248121.749,263404.219,263405,2023-03-28T00:23:28Z,263420.312,Toleranz,kuvumiliana,s,maombolezo,ujasusi,mchekeshaji,NA,NA,NA,"c(""distractor1"", ""distractor2"", ""distractor3"")",NA,NA,NA,NA,NA,NA,NA,NA,NA,NA,NA,NA,NA,NA,NA,NA,NA,NA,NA
56f41,task,flow.Sequence,2_2,NA,NA,completion,15282.47,248106.69999993,248104.862,248121.749,263404.219,263405.19999993,2023-03-28T00:23:28Z,263420.312,Toleranz,kuvumiliana,s,maombolezo,ujasusi,mchekeshaji,NA,NA,NA,"c(""distractor1"", ""distractor2"", ""distractor3"")",NA,NA,NA,NA,NA,NA,NA,NA,NA,NA,NA,NA,NA,NA,NA,NA,NA,NA,NA
56f41,Shallow Question,html.Page,2_3_0_0,NA,NA,form submission,16547.887999928,263405.29999995,263404.219,263420.312,279968.19999993,279968.5,2023-03-28T00:23:44Z,279969.076,Vermutung,udhanifu,d,haramia,tikisho,itifaki,udhanifu,NA,NA,"c(""distractor1"", ""distractor2"", ""distractor3"")",NA,NA,NA,NA,NA,NA,NA,NA,NA,NA,NA,NA,NA,NA,NA,NA,NA,NA,NA
56f41,Save data screen,canvas.Screen,2_3_0_1,NA,NA,timeout,500.27899999998,279970.89999998,279952.907,279969.076,280452.945,280454,2023-03-28T00:23:45Z,280469.355,Vermutung,udhanifu,d,haramia,tikisho,itifaki,NA,NA,1,"c(""distractor1"", ""distractor2"", ""distractor3"")",NA,NA,NA,NA,NA,NA,NA,NA,NA,NA,NA,NA,NA,NA,NA,NA,NA,NA,NA
56f41,shallow,flow.Sequence,2_3_0,NA,NA,completion,17032.633,263405.29999995,263404.219,263420.312,280452.945,280454.39999998,2023-03-28T00:23:45Z,280469.355,Vermutung,udhanifu,d,haramia,tikisho,itifaki,NA,NA,NA,"c(""distractor1"", ""distractor2"", ""distractor3"")",NA,NA,NA,NA,NA,NA,NA,NA,NA,NA,NA,NA,NA,NA,NA,NA,NA,NA,NA
56f41,task,flow.Sequence,2_3,NA,NA,completion,17032.633,263405.29999995,263404.219,263420.312,280452.945,280454.79999995,2023-03-28T00:23:45Z,280469.355,Vermutung,udhanifu,d,haramia,tikisho,itifaki,NA,NA,NA,"c(""distractor1"", ""distractor2"", ""distractor3"")",NA,NA,NA,NA,NA,NA,NA,NA,NA,NA,NA,NA,NA,NA,NA,NA,NA,NA,NA
56f41,Shallow Question,html.Page,2_4_0_0,NA,NA,form submission,7198.5449999762,280455.0999999,280452.945,280469.355,287667.89999998,287668.0999999,2023-03-28T00:23:52Z,287668.484,Theorie,nadharia,s,ushungi,mkutano,uwakilishi,nadharia,NA,NA,"c(""distractor1"", ""distractor2"", ""distractor3"")",NA,NA,NA,NA,NA,NA,NA,NA,NA,NA,NA,NA,NA,NA,NA,NA,NA,NA,NA
56f41,Save data screen,canvas.Screen,2_4_0_1,NA,NA,timeout,500.12400000001,287670.19999993,287651.805,287668.484,288151.87,288152.79999995,2023-03-28T00:23:53Z,288168.608,Theorie,nadharia,s,ushungi,mkutano,uwakilishi,NA,NA,1,"c(""distractor1"", ""distractor2"", ""distractor3"")",NA,NA,NA,NA,NA,NA,NA,NA,NA,NA,NA,NA,NA,NA,NA,NA,NA,NA,NA
56f41,shallow,flow.Sequence,2_4_0,NA,NA,completion,7682.515,280455,280452.945,280469.355,288151.87,288153.29999995,2023-03-28T00:23:53Z,288168.608,Theorie,nadharia,s,ushungi,mkutano,uwakilishi,NA,NA,NA,"c(""distractor1"", ""distractor2"", ""distractor3"")",NA,NA,NA,NA,NA,NA,NA,NA,NA,NA,NA,NA,NA,NA,NA,NA,NA,NA,NA
56f41,task,flow.Sequence,2_4,NA,NA,completion,7682.515,280455,280452.945,280469.355,288151.87,288153.5999999,2023-03-28T00:23:53Z,288168.608,Theorie,nadharia,s,ushungi,mkutano,uwakilishi,NA,NA,NA,"c(""distractor1"", ""distractor2"", ""distractor3"")",NA,NA,NA,NA,NA,NA,NA,NA,NA,NA,NA,NA,NA,NA,NA,NA,NA,NA,NA
56f41,Shallow Question,html.Page,2_5_0_0,NA,NA,form submission,14865.291999976,288153.89999998,288151.87,288168.608,303033.89999998,303034.19999993,2023-03-28T00:24:07Z,303057.72,Notfall,dharura,d,rairai,malalamiko,ahueni,malalamiko,NA,NA,"c(""distractor1"", ""distractor2"", ""distractor3"")",NA,NA,NA,NA,NA,NA,NA,NA,NA,NA,NA,NA,NA,NA,NA,NA,NA,NA,NA
56f41,Save data screen,canvas.Screen,2_5_0_1,NA,NA,timeout,493.18300000002,303036.39999998,303017.348,303057.72,303534.028,303534.89999998,2023-03-28T00:24:08Z,303550.903,Notfall,dharura,d,rairai,malalamiko,ahueni,NA,NA,0,"c(""distractor1"", ""distractor2"", ""distractor3"")",NA,NA,NA,NA,NA,NA,NA,NA,NA,NA,NA,NA,NA,NA,NA,NA,NA,NA,NA
56f41,shallow,flow.Sequence,2_5_0,NA,NA,completion,15365.42,288153.79999995,288151.87,288168.608,303534.028,303535.39999998,2023-03-28T00:24:08Z,303550.903,Notfall,dharura,d,rairai,malalamiko,ahueni,NA,NA,NA,"c(""distractor1"", ""distractor2"", ""distractor3"")",NA,NA,NA,NA,NA,NA,NA,NA,NA,NA,NA,NA,NA,NA,NA,NA,NA,NA,NA
56f41,task,flow.Sequence,2_5,NA,NA,completion,15365.42,288153.79999995,288151.87,288168.608,303534.028,303535.69999993,2023-03-28T00:24:08Z,303550.903,Notfall,dharura,d,rairai,malalamiko,ahueni,NA,NA,NA,"c(""distractor1"", ""distractor2"", ""distractor3"")",NA,NA,NA,NA,NA,NA,NA,NA,NA,NA,NA,NA,NA,NA,NA,NA,NA,NA,NA
56f41,Shallow Question,html.Page,2_6_0_0,NA,NA,form submission,12478.896999952,303536,303534.028,303550.903,316029.79999995,316030,2023-03-28T00:24:20Z,316033.026,Inhalt,yaliyomo,d,kishawishi,hifadhi,kutembea,yaliyomo,NA,NA,"c(""distractor1"", ""distractor2"", ""distractor3"")",NA,NA,NA,NA,NA,NA,NA,NA,NA,NA,NA,NA,NA,NA,NA,NA,NA,NA,NA
56f41,Save data screen,canvas.Screen,2_6_0_1,NA,NA,timeout,500.51999999996,316032.0999999,316016.989,316033.026,316516.908,316517.89999998,2023-03-28T00:24:21Z,316533.546,Inhalt,yaliyomo,d,kishawishi,hifadhi,kutembea,NA,NA,1,"c(""distractor1"", ""distractor2"", ""distractor3"")",NA,NA,NA,NA,NA,NA,NA,NA,NA,NA,NA,NA,NA,NA,NA,NA,NA,NA,NA
56f41,shallow,flow.Sequence,2_6_0,NA,NA,completion,12966.005,303535.89999998,303534.028,303550.903,316516.908,316518.29999995,2023-03-28T00:24:21Z,316533.546,Inhalt,yaliyomo,d,kishawishi,hifadhi,kutembea,NA,NA,NA,"c(""distractor1"", ""distractor2"", ""distractor3"")",NA,NA,NA,NA,NA,NA,NA,NA,NA,NA,NA,NA,NA,NA,NA,NA,NA,NA,NA
56f41,task,flow.Sequence,2_6,NA,NA,completion,12966.005,303535.79999995,303534.028,303550.903,316516.908,316518.5999999,2023-03-28T00:24:21Z,316533.546,Inhalt,yaliyomo,d,kishawishi,hifadhi,kutembea,NA,NA,NA,"c(""distractor1"", ""distractor2"", ""distractor3"")",NA,NA,NA,NA,NA,NA,NA,NA,NA,NA,NA,NA,NA,NA,NA,NA,NA,NA,NA
56f41,Shallow Question,html.Page,2_7_0_0,NA,NA,form submission,5407.954,316518.89999998,316516.908,316533.546,321941.5,321941.69999993,2023-03-28T00:24:26Z,321949.272,Verpackung,ufungaji,d,uhusiano,upimaji,uchunguzi,ufungaji,NA,NA,"c(""distractor1"", ""distractor2"", ""distractor3"")",NA,NA,NA,NA,NA,NA,NA,NA,NA,NA,NA,NA,NA,NA,NA,NA,NA,NA,NA
56f41,Save data screen,canvas.Screen,2_7_0_1,NA,NA,timeout,499.98200000002,321943.79999995,321932.999,321949.272,322433.139,322434.0999999,2023-03-28T00:24:27Z,322449.254,Verpackung,ufungaji,d,uhusiano,upimaji,uchunguzi,NA,NA,1,"c(""distractor1"", ""distractor2"", ""distractor3"")",NA,NA,NA,NA,NA,NA,NA,NA,NA,NA,NA,NA,NA,NA,NA,NA,NA,NA,NA
56f41,shallow,flow.Sequence,2_7_0,NA,NA,completion,5899.5930000001,316518.79999995,316516.908,316533.546,322433.139,322434.5,2023-03-28T00:24:27Z,322449.254,Verpackung,ufungaji,d,uhusiano,upimaji,uchunguzi,NA,NA,NA,"c(""distractor1"", ""distractor2"", ""distractor3"")",NA,NA,NA,NA,NA,NA,NA,NA,NA,NA,NA,NA,NA,NA,NA,NA,NA,NA,NA
56f41,task,flow.Sequence,2_7,NA,NA,completion,5899.5930000001,316518.79999995,316516.908,316533.546,322433.139,322435.0999999,2023-03-28T00:24:27Z,322449.254,Verpackung,ufungaji,d,uhusiano,upimaji,uchunguzi,NA,NA,NA,"c(""distractor1"", ""distractor2"", ""distractor3"")",NA,NA,NA,NA,NA,NA,NA,NA,NA,NA,NA,NA,NA,NA,NA,NA,NA,NA,NA
56f41,Shallow Question,html.Page,2_8_0_0,NA,NA,form submission,7856.4459999285,322435.39999998,322433.139,322449.254,330305.69999993,330305.89999998,2023-03-28T00:24:35Z,330315.525,Schüler,mwanafunzi,d,mwekezaji,matumizi,uaminifu,mwanafunzi,NA,NA,"c(""distractor1"", ""distractor2"", ""distractor3"")",NA,NA,NA,NA,NA,NA,NA,NA,NA,NA,NA,NA,NA,NA,NA,NA,NA,NA,NA
56f41,Save data screen,canvas.Screen,2_8_0_1,NA,NA,timeout,500.13799999998,330308.0999999,330298.59,330315.525,330799.182,330800.19999993,2023-03-28T00:24:35Z,330815.663,Schüler,mwanafunzi,d,mwekezaji,matumizi,uaminifu,NA,NA,1,"c(""distractor1"", ""distractor2"", ""distractor3"")",NA,NA,NA,NA,NA,NA,NA,NA,NA,NA,NA,NA,NA,NA,NA,NA,NA,NA,NA
56f41,shallow,flow.Sequence,2_8_0,NA,NA,completion,8349.928,322435.29999995,322433.139,322449.254,330799.182,330800.69999993,2023-03-28T00:24:35Z,330815.663,Schüler,mwanafunzi,d,mwekezaji,matumizi,uaminifu,NA,NA,NA,"c(""distractor1"", ""distractor2"", ""distractor3"")",NA,NA,NA,NA,NA,NA,NA,NA,NA,NA,NA,NA,NA,NA,NA,NA,NA,NA,NA
56f41,task,flow.Sequence,2_8,NA,NA,completion,8349.928,322435.19999993,322433.139,322449.254,330799.182,330801,2023-03-28T00:24:35Z,330815.663,Schüler,mwanafunzi,d,mwekezaji,matumizi,uaminifu,NA,NA,NA,"c(""distractor1"", ""distractor2"", ""distractor3"")",NA,NA,NA,NA,NA,NA,NA,NA,NA,NA,NA,NA,NA,NA,NA,NA,NA,NA,NA
56f41,Shallow Question,html.Page,2_9_0_0,NA,NA,form submission,8455.9369999046,330801.29999995,330799.182,330815.663,339271.5999999,339271.69999993,2023-03-28T00:24:44Z,339281.248,Vergnügen,kichekesho,d,dubwana,mpanuko,mtesaji,kichekesho,NA,NA,"c(""distractor1"", ""distractor2"", ""distractor3"")",NA,NA,NA,NA,NA,NA,NA,NA,NA,NA,NA,NA,NA,NA,NA,NA,NA,NA,NA
56f41,Save data screen,canvas.Screen,2_9_0_1,NA,NA,timeout,500.35699999996,339273.79999995,339264.889,339281.248,339764.974,339766,2023-03-28T00:24:44Z,339781.605,Vergnügen,kichekesho,d,dubwana,mpanuko,mtesaji,NA,NA,1,"c(""distractor1"", ""distractor2"", ""distractor3"")",NA,NA,NA,NA,NA,NA,NA,NA,NA,NA,NA,NA,NA,NA,NA,NA,NA,NA,NA
56f41,shallow,flow.Sequence,2_9_0,NA,NA,completion,8949.311,330801.19999993,330799.182,330815.663,339764.974,339766.39999998,2023-03-28T00:24:44Z,339781.605,Vergnügen,kichekesho,d,dubwana,mpanuko,mtesaji,NA,NA,NA,"c(""distractor1"", ""distractor2"", ""distractor3"")",NA,NA,NA,NA,NA,NA,NA,NA,NA,NA,NA,NA,NA,NA,NA,NA,NA,NA,NA
56f41,task,flow.Sequence,2_9,NA,NA,completion,8949.311,330801.19999993,330799.182,330815.663,339764.974,339766.69999993,2023-03-28T00:24:44Z,339781.605,Vergnügen,kichekesho,d,dubwana,mpanuko,mtesaji,NA,NA,NA,"c(""distractor1"", ""distractor2"", ""distractor3"")",NA,NA,NA,NA,NA,NA,NA,NA,NA,NA,NA,NA,NA,NA,NA,NA,NA,NA,NA
56f41,Shallow Question,html.Page,2_10_0_0,NA,NA,form submission,6649.895,339767,339764.974,339781.605,346431.5,346431.69999993,2023-03-28T00:24:51Z,346448.021,Fenster,dirisha,s,walakini,tasawari,maarifa,dirisha,NA,NA,"c(""distractor1"", ""distractor2"", ""distractor3"")",NA,NA,NA,NA,NA,NA,NA,NA,NA,NA,NA,NA,NA,NA,NA,NA,NA,NA,NA
56f41,Save data screen,canvas.Screen,2_10_0_1,NA,NA,timeout,499.53200000001,346433.79999995,346430.879,346448.021,346930.726,346931.0999999,2023-03-28T00:24:51Z,346947.553,Fenster,dirisha,s,walakini,tasawari,maarifa,NA,NA,1,"c(""distractor1"", ""distractor2"", ""distractor3"")",NA,NA,NA,NA,NA,NA,NA,NA,NA,NA,NA,NA,NA,NA,NA,NA,NA,NA,NA
56f41,shallow,flow.Sequence,2_10_0,NA,NA,completion,7149.121,339766.89999998,339764.974,339781.605,346930.726,346931.29999995,2023-03-28T00:24:51Z,346947.553,Fenster,dirisha,s,walakini,tasawari,maarifa,NA,NA,NA,"c(""distractor1"", ""distractor2"", ""distractor3"")",NA,NA,NA,NA,NA,NA,NA,NA,NA,NA,NA,NA,NA,NA,NA,NA,NA,NA,NA
56f41,task,flow.Sequence,2_10,NA,NA,completion,7149.121,339766.89999998,339764.974,339781.605,346930.726,346931.29999995,2023-03-28T00:24:51Z,346947.553,Fenster,dirisha,s,walakini,tasawari,maarifa,NA,NA,NA,"c(""distractor1"", ""distractor2"", ""distractor3"")",NA,NA,NA,NA,NA,NA,NA,NA,NA,NA,NA,NA,NA,NA,NA,NA,NA,NA,NA
56f41,Shallow Question,html.Page,2_11_0_0,NA,NA,form submission,13161.846999976,346931.5,346930.726,346947.553,360109.39999998,360109.5999999,2023-03-28T00:25:05Z,360113.04,Tester,wanaojaribu,d,sherti,sihiri,mlipuko,wanaojaribu,NA,NA,"c(""distractor1"", ""distractor2"", ""distractor3"")",NA,NA,NA,NA,NA,NA,NA,NA,NA,NA,NA,NA,NA,NA,NA,NA,NA,NA,NA
56f41,Save data screen,canvas.Screen,2_11_0_1,NA,NA,timeout,500.435,360111.79999995,360096.392,360113.04,360596.903,360597.79999995,2023-03-28T00:25:05Z,360613.475,Tester,wanaojaribu,d,sherti,sihiri,mlipuko,NA,NA,1,"c(""distractor1"", ""distractor2"", ""distractor3"")",NA,NA,NA,NA,NA,NA,NA,NA,NA,NA,NA,NA,NA,NA,NA,NA,NA,NA,NA
56f41,shallow,flow.Sequence,2_11_0,NA,NA,completion,13649.35,346931.5,346930.726,346947.553,360596.903,360598.19999993,2023-03-28T00:25:05Z,360613.475,Tester,wanaojaribu,d,sherti,sihiri,mlipuko,NA,NA,NA,"c(""distractor1"", ""distractor2"", ""distractor3"")",NA,NA,NA,NA,NA,NA,NA,NA,NA,NA,NA,NA,NA,NA,NA,NA,NA,NA,NA
56f41,task,flow.Sequence,2_11,NA,NA,completion,13649.35,346931.39999998,346930.726,346947.553,360596.903,360598.5999999,2023-03-28T00:25:05Z,360613.475,Tester,wanaojaribu,d,sherti,sihiri,mlipuko,NA,NA,NA,"c(""distractor1"", ""distractor2"", ""distractor3"")",NA,NA,NA,NA,NA,NA,NA,NA,NA,NA,NA,NA,NA,NA,NA,NA,NA,NA,NA
56f41,Shallow Question,html.Page,2_12_0_0,NA,NA,form submission,14072.824999952,360598.79999995,360596.903,360613.475,374686.29999995,374686.5999999,2023-03-28T00:25:19Z,374695.277,Ergänzung,kijalizo,s,ulaghai,mustarehe,matangazo,ulaghai,NA,NA,"c(""distractor1"", ""distractor2"", ""distractor3"")",NA,NA,NA,NA,NA,NA,NA,NA,NA,NA,NA,NA,NA,NA,NA,NA,NA,NA,NA
56f41,Save data screen,canvas.Screen,2_12_0_1,NA,NA,timeout,500.52500000002,374688.69999993,374678.779,374695.277,375178.708,375179.79999995,2023-03-28T00:25:20Z,375195.802,Ergänzung,kijalizo,s,ulaghai,mustarehe,matangazo,NA,NA,0,"c(""distractor1"", ""distractor2"", ""distractor3"")",NA,NA,NA,NA,NA,NA,NA,NA,NA,NA,NA,NA,NA,NA,NA,NA,NA,NA,NA
56f41,shallow,flow.Sequence,2_12_0,NA,NA,completion,14565.233,360598.79999995,360596.903,360613.475,375178.708,375180.19999993,2023-03-28T00:25:20Z,375195.802,Ergänzung,kijalizo,s,ulaghai,mustarehe,matangazo,NA,NA,NA,"c(""distractor1"", ""distractor2"", ""distractor3"")",NA,NA,NA,NA,NA,NA,NA,NA,NA,NA,NA,NA,NA,NA,NA,NA,NA,NA,NA
56f41,task,flow.Sequence,2_12,NA,NA,completion,14565.233,360598.69999993,360596.903,360613.475,375178.708,375180.5,2023-03-28T00:25:20Z,375195.802,Ergänzung,kijalizo,s,ulaghai,mustarehe,matangazo,NA,NA,NA,"c(""distractor1"", ""distractor2"", ""distractor3"")",NA,NA,NA,NA,NA,NA,NA,NA,NA,NA,NA,NA,NA,NA,NA,NA,NA,NA,NA
56f41,Shallow Question,html.Page,2_13_0_0,NA,NA,form submission,25143.797999905,375180.79999995,375178.708,375195.802,400339.5999999,400339.89999998,2023-03-28T00:25:45Z,400343.355,Hoffnung,matarajio,d,kutaalamika,uratibu,mvumbuzi,matarajio,NA,NA,"c(""distractor1"", ""distractor2"", ""distractor3"")",NA,NA,NA,NA,NA,NA,NA,NA,NA,NA,NA,NA,NA,NA,NA,NA,NA,NA,NA
56f41,Save data screen,canvas.Screen,2_13_0_1,NA,NA,timeout,500.52300000004,400342.0999999,400327.186,400343.355,400827.234,400828.19999993,2023-03-28T00:25:45Z,400843.878,Hoffnung,matarajio,d,kutaalamika,uratibu,mvumbuzi,NA,NA,1,"c(""distractor1"", ""distractor2"", ""distractor3"")",NA,NA,NA,NA,NA,NA,NA,NA,NA,NA,NA,NA,NA,NA,NA,NA,NA,NA,NA
56f41,shallow,flow.Sequence,2_13_0,NA,NA,completion,25631.432,375180.79999995,375178.708,375195.802,400827.234,400828.5999999,2023-03-28T00:25:45Z,400843.878,Hoffnung,matarajio,d,kutaalamika,uratibu,mvumbuzi,NA,NA,NA,"c(""distractor1"", ""distractor2"", ""distractor3"")",NA,NA,NA,NA,NA,NA,NA,NA,NA,NA,NA,NA,NA,NA,NA,NA,NA,NA,NA
56f41,task,flow.Sequence,2_13,NA,NA,completion,25631.432,375180.69999993,375178.708,375195.802,400827.234,400828.89999998,2023-03-28T00:25:45Z,400843.878,Hoffnung,matarajio,d,kutaalamika,uratibu,mvumbuzi,NA,NA,NA,"c(""distractor1"", ""distractor2"", ""distractor3"")",NA,NA,NA,NA,NA,NA,NA,NA,NA,NA,NA,NA,NA,NA,NA,NA,NA,NA,NA
56f41,Shallow Question,html.Page,2_14_0_0,NA,NA,form submission,5818.4219999523,400829.39999998,400827.234,400843.878,406662.29999995,406662.5,2023-03-28T00:25:51Z,406676.595,Spionage,upelelezi,s,maslahi,utokazo,magangao,upelelezi,NA,NA,"c(""distractor1"", ""distractor2"", ""distractor3"")",NA,NA,NA,NA,NA,NA,NA,NA,NA,NA,NA,NA,NA,NA,NA,NA,NA,NA,NA
56f41,Save data screen,canvas.Screen,2_14_0_1,NA,NA,timeout,500.13100000005,406664.5,406659.983,406676.595,407159.758,407161.5999999,2023-03-28T00:25:52Z,407176.726,Spionage,upelelezi,s,maslahi,utokazo,magangao,NA,NA,1,"c(""distractor1"", ""distractor2"", ""distractor3"")",NA,NA,NA,NA,NA,NA,NA,NA,NA,NA,NA,NA,NA,NA,NA,NA,NA,NA,NA
56f41,shallow,flow.Sequence,2_14_0,NA,NA,completion,6315.8799999999,400829.19999993,400827.234,400843.878,407159.758,407162.0999999,2023-03-28T00:25:52Z,407176.726,Spionage,upelelezi,s,maslahi,utokazo,magangao,NA,NA,NA,"c(""distractor1"", ""distractor2"", ""distractor3"")",NA,NA,NA,NA,NA,NA,NA,NA,NA,NA,NA,NA,NA,NA,NA,NA,NA,NA,NA
56f41,task,flow.Sequence,2_14,NA,NA,completion,6315.8799999999,400829.19999993,400827.234,400843.878,407159.758,407162.29999995,2023-03-28T00:25:52Z,407176.726,Spionage,upelelezi,s,maslahi,utokazo,magangao,NA,NA,NA,"c(""distractor1"", ""distractor2"", ""distractor3"")",NA,NA,NA,NA,NA,NA,NA,NA,NA,NA,NA,NA,NA,NA,NA,NA,NA,NA,NA
56f41,Shallow Question,html.Page,2_15_0_0,NA,NA,form submission,10385.473999928,407162.5999999,407159.758,407176.726,417562.19999993,417562.29999995,2023-03-28T00:26:02Z,417576.025,Wohlstand,mafanikio,s,chimbuko,kumbuko,mapwaji,mafanikio,NA,NA,"c(""distractor1"", ""distractor2"", ""distractor3"")",NA,NA,NA,NA,NA,NA,NA,NA,NA,NA,NA,NA,NA,NA,NA,NA,NA,NA,NA
56f41,Save data screen,canvas.Screen,2_15_0_1,NA,NA,timeout,499.90899999999,417564.39999998,417559.338,417576.025,418059.25,418060.19999993,2023-03-28T00:26:03Z,418075.934,Wohlstand,mafanikio,s,chimbuko,kumbuko,mapwaji,NA,NA,1,"c(""distractor1"", ""distractor2"", ""distractor3"")",NA,NA,NA,NA,NA,NA,NA,NA,NA,NA,NA,NA,NA,NA,NA,NA,NA,NA,NA
56f41,shallow,flow.Sequence,2_15_0,NA,NA,completion,10882.524,407162.5,407159.758,407176.726,418059.25,418060.5999999,2023-03-28T00:26:03Z,418075.934,Wohlstand,mafanikio,s,chimbuko,kumbuko,mapwaji,NA,NA,NA,"c(""distractor1"", ""distractor2"", ""distractor3"")",NA,NA,NA,NA,NA,NA,NA,NA,NA,NA,NA,NA,NA,NA,NA,NA,NA,NA,NA
56f41,task,flow.Sequence,2_15,NA,NA,completion,10882.524,407162.5,407159.758,407176.726,418059.25,418060.89999998,2023-03-28T00:26:03Z,418075.934,Wohlstand,mafanikio,s,chimbuko,kumbuko,mapwaji,NA,NA,NA,"c(""distractor1"", ""distractor2"", ""distractor3"")",NA,NA,NA,NA,NA,NA,NA,NA,NA,NA,NA,NA,NA,NA,NA,NA,NA,NA,NA
56f41,retrieval block 2 (multiple choice),flow.Loop,2,NA,NA,completion,188569.762,229474.0999999,229472.818,229489.488,418059.25,418061.29999995,2023-03-28T00:26:03Z,418075.934,NA,NA,NA,NA,NA,NA,NA,NA,NA,"c(""distractor1"", ""distractor2"", ""distractor3"")",NA,NA,NA,NA,NA,NA,NA,NA,NA,NA,NA,NA,NA,NA,NA,NA,NA,NA,NA
56f41,End,canvas.Screen,3,NA,keypress(Space),response,2183.1659999046,418061.5,418059.25,418075.934,420259.0999999,420259.79999995,2023-03-28T00:26:05Z,420275.884,NA,NA,NA,NA,NA,NA,NA,NA,NA,NULL,NA,NA,NA,NA,NA,NA,NA,NA,NA,NA,NA,NA,NA,NA,NA,NA,NA,NA,NA
56f41,root,flow.Sequence,NA,NA,NA,completion,419702.4289999,532.79999995232,406.68,556.671,420259.0999999,420260,2023-03-28T00:26:05Z,420275.884,NA,NA,NA,NA,NA,NA,NA,NA,NA,NULL,NA,NA,NA,NA,NA,NA,NA,NA,NA,NA,NA,NA,NA,NA,NA,NA,NA,NA,NA
