observation,sender,sender_type,sender_id,response,response_action,ended_on,duration,time_run,time_render,time_show,time_end,time_commit,timestamp,time_switch,distractors,german,swahili,enc,distractor1,distractor2,distractor3,response_2,x,correct,x_2,url_vp,url_sess,meta_labjs_version,meta_location,meta_user_agent,meta_platform,meta_language,meta_locale,meta_time_zone,meta_timezone_offset,meta_screen_width,meta_screen_height,meta_scroll_width,meta_scroll_height,meta_window_inner_width,meta_window_inner_height,meta_device_pixel_ratio,meta_labjs_build_flavor,meta_labjs_build_commit
cd538,Introduction general,canvas.Screen,0,weiter,keypress(q),response,1793072.444,321.19999999925,191.528,324.856,1793397.3,1793404.6,2023-02-09T12:37:47Z,1793434.13,NULL,NA,NA,NA,NA,NA,NA,NA,NA,NA,NA,113,1,20.2.4,https://neurocog.fernuni.ch/studies/vweber/encoding_immediate/index.html?vp=113&sess=1,"Mozilla/5.0 (Macintosh; Intel Mac OS X 10_15_7) AppleWebKit/537.36 (KHTML, like Gecko) Chrome/109.0.0.0 Safari/537.36",MacIntel,de-DE,de,Europe/Zurich,-60,1440,900,1440,681,1440,729,2,production,f5b4a49f956347addd546a832a3327688c2c0fef
cd538,Introduction practice,canvas.Screen,1_0,NA,keypress(Space),response,1389.6700000009,1793405.1,1793417.464,1793434.13,1794823.8,1794826.4,2023-02-09T12:37:49Z,1794833.92,NULL,NA,NA,NA,NA,NA,NA,NA,NA,NA,NA,NA,NA,NA,NA,NA,NA,NA,NA,NA,NA,NA,NA,NA,NA,NA,NA,NA,NA,NA
cd538,Deep Question,html.Page,1_1_0_0_0,NA,NA,form submission,7208.2799999993,1794826.8,1794817.254,1794833.92,1802042.2,1802042.6,2023-02-09T12:37:56Z,1802050.298,"c(""distractor1"", ""distractor2"", ""distractor3"")",Schatten,kivuli,d,NA,NA,NA,hzv,NA,NA,NA,NA,NA,NA,NA,NA,NA,NA,NA,NA,NA,NA,NA,NA,NA,NA,NA,NA,NA,NA
cd538,"""Richtig""-Screen",canvas.Screen,1_1_0_0_1,NA,NA,skipped,NA,1802045.1,NA,NA,1802042.2,1802045.2,2023-02-09T12:37:56Z,1802050.298,"c(""distractor1"", ""distractor2"", ""distractor3"")",Schatten,kivuli,d,NA,NA,NA,NA,NA,NA,NA,NA,NA,NA,NA,NA,NA,NA,NA,NA,NA,NA,NA,NA,NA,NA,NA,NA,NA,NA
cd538,"""Falsch""-Screen",canvas.Screen,1_1_0_0_2,NA,NA,timeout,4999.8,1802046.1,1802033.632,1802050.298,1807033.432,1807039.2,2023-02-09T12:38:01Z,1807050.098,"c(""distractor1"", ""distractor2"", ""distractor3"")",Schatten,kivuli,d,NA,NA,NA,NA,NA,0,NA,NA,NA,NA,NA,NA,NA,NA,NA,NA,NA,NA,NA,NA,NA,NA,NA,NA,NA,NA
cd538,deep,flow.Sequence,1_1_0_0,NA,NA,completion,12199.512,1794826.8,1794817.254,1794833.92,1807033.432,1807039.8,2023-02-09T12:38:01Z,1807050.098,"c(""distractor1"", ""distractor2"", ""distractor3"")",Schatten,kivuli,d,NA,NA,NA,NA,NA,NA,NA,NA,NA,NA,NA,NA,NA,NA,NA,NA,NA,NA,NA,NA,NA,NA,NA,NA,NA,NA
cd538,shallow,flow.Sequence,1_1_0_1,NA,NA,skipped,NA,1807040,NA,NA,1807033.432,1807040.2,2023-02-09T12:38:01Z,1807050.098,"c(""distractor1"", ""distractor2"", ""distractor3"")",Schatten,kivuli,d,NA,NA,NA,NA,NA,NA,NA,NA,NA,NA,NA,NA,NA,NA,NA,NA,NA,NA,NA,NA,NA,NA,NA,NA,NA,NA
cd538,task,flow.Sequence,1_1_0,NA,NA,completion,12199.512,1794826.7,1794817.254,1794833.92,1807033.432,1807040.4,2023-02-09T12:38:01Z,1807050.098,"c(""distractor1"", ""distractor2"", ""distractor3"")",Schatten,kivuli,d,NA,NA,NA,NA,NA,NA,NA,NA,NA,NA,NA,NA,NA,NA,NA,NA,NA,NA,NA,NA,NA,NA,NA,NA,NA,NA
cd538,deep,flow.Sequence,1_1_1_0,NA,NA,skipped,NA,1807040.6,NA,NA,1807033.432,1807040.7,2023-02-09T12:38:01Z,1807050.098,"c(""distractor1"", ""distractor2"", ""distractor3"")",Kritik,lawama,s,dereva,nafasi,mawazo,NA,NA,NA,NA,NA,NA,NA,NA,NA,NA,NA,NA,NA,NA,NA,NA,NA,NA,NA,NA,NA,NA,NA
cd538,Shallow Question,html.Page,1_1_1_1_0,NA,NA,form submission,7556.0019999996,1807040.9,1807033.432,1807050.098,1814606.1,1814606.7,2023-02-09T12:38:09Z,1814617.174,"c(""distractor1"", ""distractor2"", ""distractor3"")",Kritik,lawama,s,dereva,nafasi,mawazo,lawama,NA,NA,NA,NA,NA,NA,NA,NA,NA,NA,NA,NA,NA,NA,NA,NA,NA,NA,NA,NA,NA,NA
cd538,"""Richtig""-Screen",canvas.Screen,1_1_1_1_1,NA,NA,timeout,4999.7999999998,1814610.7,1814600.508,1814617.174,1819600.308,1819602.8,2023-02-09T12:38:14Z,1819616.974,"c(""distractor1"", ""distractor2"", ""distractor3"")",Kritik,lawama,s,dereva,nafasi,mawazo,NA,NA,1,NA,NA,NA,NA,NA,NA,NA,NA,NA,NA,NA,NA,NA,NA,NA,NA,NA,NA,NA,NA
cd538,"""Falsch""-Screen",canvas.Screen,1_1_1_1_2,NA,NA,skipped,NA,1819606,NA,NA,1819600.308,1819606.1,2023-02-09T12:38:14Z,1819616.974,"c(""distractor1"", ""distractor2"", ""distractor3"")",Kritik,lawama,s,dereva,nafasi,mawazo,NA,NA,NA,NA,NA,NA,NA,NA,NA,NA,NA,NA,NA,NA,NA,NA,NA,NA,NA,NA,NA,NA,NA
cd538,shallow,flow.Sequence,1_1_1_1,NA,NA,completion,12550.21,1807040.9,1807033.432,1807050.098,1819600.308,1819606.4,2023-02-09T12:38:14Z,1819616.974,"c(""distractor1"", ""distractor2"", ""distractor3"")",Kritik,lawama,s,dereva,nafasi,mawazo,NA,NA,NA,NA,NA,NA,NA,NA,NA,NA,NA,NA,NA,NA,NA,NA,NA,NA,NA,NA,NA,NA,NA
cd538,task,flow.Sequence,1_1_1,NA,NA,completion,12550.21,1807040.6,1807033.432,1807050.098,1819600.308,1819606.6,2023-02-09T12:38:14Z,1819616.974,"c(""distractor1"", ""distractor2"", ""distractor3"")",Kritik,lawama,s,dereva,nafasi,mawazo,NA,NA,NA,NA,NA,NA,NA,NA,NA,NA,NA,NA,NA,NA,NA,NA,NA,NA,NA,NA,NA,NA,NA
cd538,Deep Question,html.Page,1_1_2_0_0,NA,NA,form submission,5787.4260000004,1819606.7,1819600.308,1819616.974,1825404.4,1825405,2023-02-09T12:38:19Z,1825417.31,"c(""distractor1"", ""distractor2"", ""distractor3"")",Qualität,mtindo,d,NA,NA,NA,s,NA,NA,NA,NA,NA,NA,NA,NA,NA,NA,NA,NA,NA,NA,NA,NA,NA,NA,NA,NA,NA,NA
cd538,"""Richtig""-Screen",canvas.Screen,1_1_2_0_1,NA,NA,skipped,NA,1825408.6,NA,NA,1825404.4,1825408.8,2023-02-09T12:38:19Z,1825417.31,"c(""distractor1"", ""distractor2"", ""distractor3"")",Qualität,mtindo,d,NA,NA,NA,NA,NA,NA,NA,NA,NA,NA,NA,NA,NA,NA,NA,NA,NA,NA,NA,NA,NA,NA,NA,NA,NA,NA
cd538,"""Falsch""-Screen",canvas.Screen,1_1_2_0_2,NA,NA,timeout,4999.8,1825409.5,1825400.644,1825417.31,1830400.444,1830403.4,2023-02-09T12:38:24Z,1830417.11,"c(""distractor1"", ""distractor2"", ""distractor3"")",Qualität,mtindo,d,NA,NA,NA,NA,NA,0,NA,NA,NA,NA,NA,NA,NA,NA,NA,NA,NA,NA,NA,NA,NA,NA,NA,NA,NA,NA
cd538,deep,flow.Sequence,1_1_2_0,NA,NA,completion,10783.47,1819606.7,1819600.308,1819616.974,1830400.444,1830403.8,2023-02-09T12:38:24Z,1830417.11,"c(""distractor1"", ""distractor2"", ""distractor3"")",Qualität,mtindo,d,NA,NA,NA,NA,NA,NA,NA,NA,NA,NA,NA,NA,NA,NA,NA,NA,NA,NA,NA,NA,NA,NA,NA,NA,NA,NA
cd538,shallow,flow.Sequence,1_1_2_1,NA,NA,skipped,NA,1830403.8,NA,NA,1830400.444,1830403.9,2023-02-09T12:38:24Z,1830417.11,"c(""distractor1"", ""distractor2"", ""distractor3"")",Qualität,mtindo,d,NA,NA,NA,NA,NA,NA,NA,NA,NA,NA,NA,NA,NA,NA,NA,NA,NA,NA,NA,NA,NA,NA,NA,NA,NA,NA
cd538,task,flow.Sequence,1_1_2,NA,NA,completion,10783.47,1819606.6,1819600.308,1819616.974,1830400.444,1830404.1,2023-02-09T12:38:24Z,1830417.11,"c(""distractor1"", ""distractor2"", ""distractor3"")",Qualität,mtindo,d,NA,NA,NA,NA,NA,NA,NA,NA,NA,NA,NA,NA,NA,NA,NA,NA,NA,NA,NA,NA,NA,NA,NA,NA,NA,NA
cd538,deep,flow.Sequence,1_1_3_0,NA,NA,skipped,NA,1830404.3,NA,NA,1830400.444,1830404.3,2023-02-09T12:38:24Z,1830417.11,"c(""distractor1"", ""distractor2"", ""distractor3"")",Rückhalt,msaada,s,muhula,auwali,kiwimbe,NA,NA,NA,NA,NA,NA,NA,NA,NA,NA,NA,NA,NA,NA,NA,NA,NA,NA,NA,NA,NA,NA,NA
cd538,Shallow Question,html.Page,1_1_3_1_0,NA,NA,form submission,4122.4899999995,1830404.4,1830400.444,1830417.11,1834539.6,1834540,2023-02-09T12:38:29Z,1834550.841,"c(""distractor1"", ""distractor2"", ""distractor3"")",Rückhalt,msaada,s,muhula,auwali,kiwimbe,kiwimbe,NA,NA,NA,NA,NA,NA,NA,NA,NA,NA,NA,NA,NA,NA,NA,NA,NA,NA,NA,NA,NA,NA
cd538,"""Richtig""-Screen",canvas.Screen,1_1_3_1_1,NA,NA,skipped,NA,1834543.3,NA,NA,1834539.6,1834543.4,2023-02-09T12:38:29Z,1834550.841,"c(""distractor1"", ""distractor2"", ""distractor3"")",Rückhalt,msaada,s,muhula,auwali,kiwimbe,NA,NA,NA,NA,NA,NA,NA,NA,NA,NA,NA,NA,NA,NA,NA,NA,NA,NA,NA,NA,NA,NA,NA
cd538,"""Falsch""-Screen",canvas.Screen,1_1_3_1_2,NA,NA,timeout,4999.8,1834544.7,1834534.175,1834550.841,1839533.975,1839535.9,2023-02-09T12:38:34Z,1839550.641,"c(""distractor1"", ""distractor2"", ""distractor3"")",Rückhalt,msaada,s,muhula,auwali,kiwimbe,NA,NA,0,NA,NA,NA,NA,NA,NA,NA,NA,NA,NA,NA,NA,NA,NA,NA,NA,NA,NA,NA,NA
cd538,shallow,flow.Sequence,1_1_3_1,NA,NA,completion,9116.865,1830404.4,1830400.444,1830417.11,1839533.975,1839536.4,2023-02-09T12:38:34Z,1839550.641,"c(""distractor1"", ""distractor2"", ""distractor3"")",Rückhalt,msaada,s,muhula,auwali,kiwimbe,NA,NA,NA,NA,NA,NA,NA,NA,NA,NA,NA,NA,NA,NA,NA,NA,NA,NA,NA,NA,NA,NA,NA
cd538,task,flow.Sequence,1_1_3,NA,NA,completion,9116.865,1830404.2,1830400.444,1830417.11,1839533.975,1839536.6,2023-02-09T12:38:34Z,1839550.641,"c(""distractor1"", ""distractor2"", ""distractor3"")",Rückhalt,msaada,s,muhula,auwali,kiwimbe,NA,NA,NA,NA,NA,NA,NA,NA,NA,NA,NA,NA,NA,NA,NA,NA,NA,NA,NA,NA,NA,NA,NA
cd538,Deep Question,html.Page,1_1_4_0_0,NA,NA,form submission,3103.2590000003,1839536.9,1839533.975,1839550.641,1842653.9,1842654.2,2023-02-09T12:38:37Z,1842667.83,"c(""distractor1"", ""distractor2"", ""distractor3"")",Gesundheit,salama,d,NA,NA,NA,j,NA,NA,NA,NA,NA,NA,NA,NA,NA,NA,NA,NA,NA,NA,NA,NA,NA,NA,NA,NA,NA,NA
cd538,"""Richtig""-Screen",canvas.Screen,1_1_4_0_1,NA,NA,skipped,NA,1842656.9,NA,NA,1842653.9,1842657.1,2023-02-09T12:38:37Z,1842667.83,"c(""distractor1"", ""distractor2"", ""distractor3"")",Gesundheit,salama,d,NA,NA,NA,NA,NA,NA,NA,NA,NA,NA,NA,NA,NA,NA,NA,NA,NA,NA,NA,NA,NA,NA,NA,NA,NA,NA
cd538,"""Falsch""-Screen",canvas.Screen,1_1_4_0_2,NA,NA,timeout,4999.7999999998,1842657.6,1842651.164,1842667.83,1847650.964,1847653.9,2023-02-09T12:38:42Z,1847667.63,"c(""distractor1"", ""distractor2"", ""distractor3"")",Gesundheit,salama,d,NA,NA,NA,NA,NA,0,NA,NA,NA,NA,NA,NA,NA,NA,NA,NA,NA,NA,NA,NA,NA,NA,NA,NA,NA,NA
cd538,deep,flow.Sequence,1_1_4_0,NA,NA,completion,8100.3229999999,1839536.8,1839533.975,1839550.641,1847650.964,1847654.4,2023-02-09T12:38:42Z,1847667.63,"c(""distractor1"", ""distractor2"", ""distractor3"")",Gesundheit,salama,d,NA,NA,NA,NA,NA,NA,NA,NA,NA,NA,NA,NA,NA,NA,NA,NA,NA,NA,NA,NA,NA,NA,NA,NA,NA,NA
cd538,shallow,flow.Sequence,1_1_4_1,NA,NA,skipped,NA,1847654.5,NA,NA,1847650.964,1847654.7,2023-02-09T12:38:42Z,1847667.63,"c(""distractor1"", ""distractor2"", ""distractor3"")",Gesundheit,salama,d,NA,NA,NA,NA,NA,NA,NA,NA,NA,NA,NA,NA,NA,NA,NA,NA,NA,NA,NA,NA,NA,NA,NA,NA,NA,NA
cd538,task,flow.Sequence,1_1_4,NA,NA,completion,8100.3229999999,1839536.8,1839533.975,1839550.641,1847650.964,1847654.9,2023-02-09T12:38:42Z,1847667.63,"c(""distractor1"", ""distractor2"", ""distractor3"")",Gesundheit,salama,d,NA,NA,NA,NA,NA,NA,NA,NA,NA,NA,NA,NA,NA,NA,NA,NA,NA,NA,NA,NA,NA,NA,NA,NA,NA,NA
cd538,deep,flow.Sequence,1_1_5_0,NA,NA,skipped,NA,1847655.1,NA,NA,1847650.964,1847655.2,2023-02-09T12:38:42Z,1847667.63,"c(""distractor1"", ""distractor2"", ""distractor3"")",Gegenwart,hadhara,s,katiba,jokofu,mikopo,NA,NA,NA,NA,NA,NA,NA,NA,NA,NA,NA,NA,NA,NA,NA,NA,NA,NA,NA,NA,NA,NA,NA
cd538,Shallow Question,html.Page,1_1_5_1_0,NA,NA,form submission,2421.6700000009,1847655.4,1847650.964,1847667.63,1850089.3,1850089.8,2023-02-09T12:38:44Z,1850100.866,"c(""distractor1"", ""distractor2"", ""distractor3"")",Gegenwart,hadhara,s,katiba,jokofu,mikopo,jokofu,NA,NA,NA,NA,NA,NA,NA,NA,NA,NA,NA,NA,NA,NA,NA,NA,NA,NA,NA,NA,NA,NA
cd538,"""Richtig""-Screen",canvas.Screen,1_1_5_1_1,NA,NA,skipped,NA,1850092.3,NA,NA,1850089.3,1850092.5,2023-02-09T12:38:44Z,1850100.866,"c(""distractor1"", ""distractor2"", ""distractor3"")",Gegenwart,hadhara,s,katiba,jokofu,mikopo,NA,NA,NA,NA,NA,NA,NA,NA,NA,NA,NA,NA,NA,NA,NA,NA,NA,NA,NA,NA,NA,NA,NA
cd538,"""Falsch""-Screen",canvas.Screen,1_1_5_1_2,NA,NA,timeout,4999.8,1850094,1850084.2,1850100.866,1855084,1855085.9,2023-02-09T12:38:49Z,1855100.666,"c(""distractor1"", ""distractor2"", ""distractor3"")",Gegenwart,hadhara,s,katiba,jokofu,mikopo,NA,NA,0,NA,NA,NA,NA,NA,NA,NA,NA,NA,NA,NA,NA,NA,NA,NA,NA,NA,NA,NA,NA
cd538,shallow,flow.Sequence,1_1_5_1,NA,NA,completion,7416.3700000001,1847655.4,1847650.964,1847667.63,1855084,1855086.2,2023-02-09T12:38:49Z,1855100.666,"c(""distractor1"", ""distractor2"", ""distractor3"")",Gegenwart,hadhara,s,katiba,jokofu,mikopo,NA,NA,NA,NA,NA,NA,NA,NA,NA,NA,NA,NA,NA,NA,NA,NA,NA,NA,NA,NA,NA,NA,NA
cd538,task,flow.Sequence,1_1_5,NA,NA,completion,7416.3700000001,1847655,1847650.964,1847667.63,1855084,1855086.5,2023-02-09T12:38:49Z,1855100.666,"c(""distractor1"", ""distractor2"", ""distractor3"")",Gegenwart,hadhara,s,katiba,jokofu,mikopo,NA,NA,NA,NA,NA,NA,NA,NA,NA,NA,NA,NA,NA,NA,NA,NA,NA,NA,NA,NA,NA,NA,NA
cd538,block,flow.Loop,1_1,NA,NA,completion,60250.08,1794826.7,1794817.254,1794833.92,1855084,1855086.7,2023-02-09T12:38:49Z,1855100.666,"c(""distractor1"", ""distractor2"", ""distractor3"")",NA,NA,NA,NA,NA,NA,NA,NA,NA,NA,NA,NA,NA,NA,NA,NA,NA,NA,NA,NA,NA,NA,NA,NA,NA,NA,NA,NA,NA
cd538,Practice,flow.Sequence,1,NA,NA,completion,61649.87,1793405,1793417.464,1793434.13,1855084,1855087,2023-02-09T12:38:49Z,1855100.666,NULL,NA,NA,NA,NA,NA,NA,NA,NA,NA,NA,NA,NA,NA,NA,NA,NA,NA,NA,NA,NA,NA,NA,NA,NA,NA,NA,NA,NA,NA
cd538,Experiment start,canvas.Screen,2,weiter,keypress(q),response,34424.434,1855087,1855084,1855100.666,1889525.1,1889531.2,2023-02-09T12:39:24Z,1889583.262,NULL,NA,NA,NA,NA,NA,NA,NA,NA,NA,NA,NA,NA,NA,NA,NA,NA,NA,NA,NA,NA,NA,NA,NA,NA,NA,NA,NA,NA,NA
cd538,deep,flow.Sequence,3_0_0_0_0_0,NA,NA,skipped,NA,1889590.4,NA,NA,1889525.1,1889590.4,2023-02-09T12:39:24Z,1889583.262,NULL,Respekt,heshima,s,changamnao,upinzani,ufanisi,NA,sdf,NA,0,NA,NA,NA,NA,NA,NA,NA,NA,NA,NA,NA,NA,NA,NA,NA,NA,NA,NA,NA
cd538,Shallow Question,html.Page,3_0_0_0_0_1_0,NA,NA,form submission,3740.3379999995,1889590.5,1889516.598,1889583.262,1893323.6,1893324.1,2023-02-09T12:39:27Z,1893335.029,NULL,Respekt,heshima,s,changamnao,upinzani,ufanisi,ufanisi,NA,NA,0,NA,NA,NA,NA,NA,NA,NA,NA,NA,NA,NA,NA,NA,NA,NA,NA,NA,NA,NA
cd538,"""Richtig""-Screen",canvas.Screen,3_0_0_0_0_1_1,NA,NA,skipped,NA,1893325.5,NA,NA,1893323.6,1893325.6,2023-02-09T12:39:27Z,1893335.029,NULL,Respekt,heshima,s,changamnao,upinzani,ufanisi,NA,sdf,NA,0,NA,NA,NA,NA,NA,NA,NA,NA,NA,NA,NA,NA,NA,NA,NA,NA,NA,NA,NA
cd538,"""Falsch""-Screen",canvas.Screen,3_0_0_0_0_1_2,NA,NA,timeout,4999.7999999998,1893326.4,1893318.363,1893335.029,1898318.163,1898320.3,2023-02-09T12:39:32Z,1898334.829,NULL,Respekt,heshima,s,changamnao,upinzani,ufanisi,NA,sdf,0,0,NA,NA,NA,NA,NA,NA,NA,NA,NA,NA,NA,NA,NA,NA,NA,NA,NA,NA,NA
cd538,shallow,flow.Sequence,3_0_0_0_0_1,NA,NA,completion,8734.9009999998,1889590.5,1889516.598,1889583.262,1898318.163,1898320.8,2023-02-09T12:39:32Z,1898334.829,NULL,Respekt,heshima,s,changamnao,upinzani,ufanisi,NA,sdf,NA,0,NA,NA,NA,NA,NA,NA,NA,NA,NA,NA,NA,NA,NA,NA,NA,NA,NA,NA,NA
cd538,task,flow.Sequence,3_0_0_0_0,NA,NA,completion,8734.9009999998,1889590.4,1889516.598,1889583.262,1898318.163,1898321.1,2023-02-09T12:39:32Z,1898334.829,NULL,Respekt,heshima,s,changamnao,upinzani,ufanisi,NA,sdf,NA,0,NA,NA,NA,NA,NA,NA,NA,NA,NA,NA,NA,NA,NA,NA,NA,NA,NA,NA,NA
cd538,Deep Question,html.Page,3_0_0_0_1_0_0,NA,NA,form submission,2803.2709999997,1898321.2,1898318.163,1898334.829,1901138.1,1901138.4,2023-02-09T12:39:35Z,1901151.911,NULL,Gefährdung,kuhatarisha,d,NA,NA,NA,kas,NA,NA,0,NA,NA,NA,NA,NA,NA,NA,NA,NA,NA,NA,NA,NA,NA,NA,NA,NA,NA,NA
cd538,"""Richtig""-Screen",canvas.Screen,3_0_0_0_1_0_1,NA,NA,skipped,NA,1901141,NA,NA,1901138.1,1901141.2,2023-02-09T12:39:35Z,1901151.911,NULL,Gefährdung,kuhatarisha,d,NA,NA,NA,NA,sdf,NA,0,NA,NA,NA,NA,NA,NA,NA,NA,NA,NA,NA,NA,NA,NA,NA,NA,NA,NA,NA
cd538,"""Falsch""-Screen",canvas.Screen,3_0_0_0_1_0_2,NA,NA,timeout,4999.7999999998,1901141.7,1901135.245,1901151.911,1906135.045,1906137.2,2023-02-09T12:39:40Z,1906151.711,NULL,Gefährdung,kuhatarisha,d,NA,NA,NA,NA,sdf,0,0,NA,NA,NA,NA,NA,NA,NA,NA,NA,NA,NA,NA,NA,NA,NA,NA,NA,NA,NA
cd538,deep,flow.Sequence,3_0_0_0_1_0,NA,NA,completion,7800.216,1898321.2,1898318.163,1898334.829,1906135.045,1906137.8,2023-02-09T12:39:40Z,1906151.711,NULL,Gefährdung,kuhatarisha,d,NA,NA,NA,NA,sdf,NA,0,NA,NA,NA,NA,NA,NA,NA,NA,NA,NA,NA,NA,NA,NA,NA,NA,NA,NA,NA
cd538,shallow,flow.Sequence,3_0_0_0_1_1,NA,NA,skipped,NA,1906137.9,NA,NA,1906135.045,1906138,2023-02-09T12:39:40Z,1906151.711,NULL,Gefährdung,kuhatarisha,d,NA,NA,NA,NA,sdf,NA,0,NA,NA,NA,NA,NA,NA,NA,NA,NA,NA,NA,NA,NA,NA,NA,NA,NA,NA,NA
cd538,task,flow.Sequence,3_0_0_0_1,NA,NA,completion,7800.216,1898321.2,1898318.163,1898334.829,1906135.045,1906138.2,2023-02-09T12:39:40Z,1906151.711,NULL,Gefährdung,kuhatarisha,d,NA,NA,NA,NA,sdf,NA,0,NA,NA,NA,NA,NA,NA,NA,NA,NA,NA,NA,NA,NA,NA,NA,NA,NA,NA,NA
cd538,Deep Question,html.Page,3_0_0_0_2_0_0,NA,NA,form submission,3086.1890000005,1906138.5,1906135.045,1906151.711,1909237.9,1909238.2,2023-02-09T12:39:43Z,1909251.587,NULL,Kontrolle,kudhibiti,d,NA,NA,NA,sd,NA,NA,0,NA,NA,NA,NA,NA,NA,NA,NA,NA,NA,NA,NA,NA,NA,NA,NA,NA,NA,NA
cd538,"""Richtig""-Screen",canvas.Screen,3_0_0_0_2_0_1,NA,NA,skipped,NA,1909240.9,NA,NA,1909237.9,1909240.9,2023-02-09T12:39:43Z,1909251.587,NULL,Kontrolle,kudhibiti,d,NA,NA,NA,NA,sdf,NA,0,NA,NA,NA,NA,NA,NA,NA,NA,NA,NA,NA,NA,NA,NA,NA,NA,NA,NA,NA
cd538,"""Falsch""-Screen",canvas.Screen,3_0_0_0_2_0_2,NA,NA,timeout,4999.8,1909241.5,1909234.921,1909251.587,1914234.721,1914236.8,2023-02-09T12:39:48Z,1914251.387,NULL,Kontrolle,kudhibiti,d,NA,NA,NA,NA,sdf,0,0,NA,NA,NA,NA,NA,NA,NA,NA,NA,NA,NA,NA,NA,NA,NA,NA,NA,NA,NA
cd538,deep,flow.Sequence,3_0_0_0_2_0,NA,NA,completion,8083.01,1906138.4,1906135.045,1906151.711,1914234.721,1914237.4,2023-02-09T12:39:48Z,1914251.387,NULL,Kontrolle,kudhibiti,d,NA,NA,NA,NA,sdf,NA,0,NA,NA,NA,NA,NA,NA,NA,NA,NA,NA,NA,NA,NA,NA,NA,NA,NA,NA,NA
cd538,shallow,flow.Sequence,3_0_0_0_2_1,NA,NA,skipped,NA,1914237.4,NA,NA,1914234.721,1914237.6,2023-02-09T12:39:48Z,1914251.387,NULL,Kontrolle,kudhibiti,d,NA,NA,NA,NA,sdf,NA,0,NA,NA,NA,NA,NA,NA,NA,NA,NA,NA,NA,NA,NA,NA,NA,NA,NA,NA,NA
cd538,task,flow.Sequence,3_0_0_0_2,NA,NA,completion,8083.01,1906138.3,1906135.045,1906151.711,1914234.721,1914237.8,2023-02-09T12:39:48Z,1914251.387,NULL,Kontrolle,kudhibiti,d,NA,NA,NA,NA,sdf,NA,0,NA,NA,NA,NA,NA,NA,NA,NA,NA,NA,NA,NA,NA,NA,NA,NA,NA,NA,NA
cd538,deep,flow.Sequence,3_0_0_0_3_0,NA,NA,skipped,NA,1914238,NA,NA,1914234.721,1914238.1,2023-02-09T12:39:48Z,1914251.387,NULL,Können,unaweza,s,kiongozi,bustani,mienendo,NA,sdf,NA,0,NA,NA,NA,NA,NA,NA,NA,NA,NA,NA,NA,NA,NA,NA,NA,NA,NA,NA,NA
cd538,Shallow Question,html.Page,3_0_0_0_3_1_0,NA,NA,form submission,3488.8129999992,1914238.3,1914234.721,1914251.387,1917740.2,1917740.8,2023-02-09T12:39:52Z,1917752.011,NULL,Können,unaweza,s,kiongozi,bustani,mienendo,mienendo,NA,NA,0,NA,NA,NA,NA,NA,NA,NA,NA,NA,NA,NA,NA,NA,NA,NA,NA,NA,NA,NA
cd538,"""Richtig""-Screen",canvas.Screen,3_0_0_0_3_1_1,NA,NA,skipped,NA,1917744.7,NA,NA,1917740.2,1917744.9,2023-02-09T12:39:52Z,1917752.011,NULL,Können,unaweza,s,kiongozi,bustani,mienendo,NA,sdf,NA,0,NA,NA,NA,NA,NA,NA,NA,NA,NA,NA,NA,NA,NA,NA,NA,NA,NA,NA,NA
cd538,"""Falsch""-Screen",canvas.Screen,3_0_0_0_3_1_2,NA,NA,timeout,4999.8,1917746,1917735.345,1917752.011,1922735.145,1922737.6,2023-02-09T12:39:57Z,1922751.811,NULL,Können,unaweza,s,kiongozi,bustani,mienendo,NA,sdf,0,0,NA,NA,NA,NA,NA,NA,NA,NA,NA,NA,NA,NA,NA,NA,NA,NA,NA,NA,NA
cd538,shallow,flow.Sequence,3_0_0_0_3_1,NA,NA,completion,8483.7579999999,1914238.1,1914234.721,1914251.387,1922735.145,1922738,2023-02-09T12:39:57Z,1922751.811,NULL,Können,unaweza,s,kiongozi,bustani,mienendo,NA,sdf,NA,0,NA,NA,NA,NA,NA,NA,NA,NA,NA,NA,NA,NA,NA,NA,NA,NA,NA,NA,NA
cd538,task,flow.Sequence,3_0_0_0_3,NA,NA,completion,8483.7579999999,1914237.9,1914234.721,1914251.387,1922735.145,1922738.2,2023-02-09T12:39:57Z,1922751.811,NULL,Können,unaweza,s,kiongozi,bustani,mienendo,NA,sdf,NA,0,NA,NA,NA,NA,NA,NA,NA,NA,NA,NA,NA,NA,NA,NA,NA,NA,NA,NA,NA
cd538,deep,flow.Sequence,3_0_0_0_4_0,NA,NA,skipped,NA,1922738.3,NA,NA,1922735.145,1922738.5,2023-02-09T12:39:57Z,1922751.811,NULL,Orientierung,urekebisho,s,uelekeo,marekebisho,utunzaji,NA,sdf,NA,0,NA,NA,NA,NA,NA,NA,NA,NA,NA,NA,NA,NA,NA,NA,NA,NA,NA,NA,NA
cd538,Shallow Question,html.Page,3_0_0_0_4_1_0,NA,NA,form submission,3321.689,1922738.7,1922735.145,1922751.811,1926073.5,1926074.1,2023-02-09T12:40:00Z,1926085.553,NULL,Orientierung,urekebisho,s,uelekeo,marekebisho,utunzaji,utunzaji,NA,NA,0,NA,NA,NA,NA,NA,NA,NA,NA,NA,NA,NA,NA,NA,NA,NA,NA,NA,NA,NA
cd538,"""Richtig""-Screen",canvas.Screen,3_0_0_0_4_1_1,NA,NA,skipped,NA,1926077,NA,NA,1926073.5,1926077.2,2023-02-09T12:40:00Z,1926085.553,NULL,Orientierung,urekebisho,s,uelekeo,marekebisho,utunzaji,NA,sdf,NA,0,NA,NA,NA,NA,NA,NA,NA,NA,NA,NA,NA,NA,NA,NA,NA,NA,NA,NA,NA
cd538,"""Falsch""-Screen",canvas.Screen,3_0_0_0_4_1_2,NA,NA,timeout,4999.7999999998,1926077.8,1926068.887,1926085.553,1931068.687,1931071.4,2023-02-09T12:40:05Z,1931085.353,NULL,Orientierung,urekebisho,s,uelekeo,marekebisho,utunzaji,NA,sdf,0,0,NA,NA,NA,NA,NA,NA,NA,NA,NA,NA,NA,NA,NA,NA,NA,NA,NA,NA,NA
cd538,shallow,flow.Sequence,3_0_0_0_4_1,NA,NA,completion,8316.8759999999,1922738.6,1922735.145,1922751.811,1931068.687,1931072,2023-02-09T12:40:05Z,1931085.353,NULL,Orientierung,urekebisho,s,uelekeo,marekebisho,utunzaji,NA,sdf,NA,0,NA,NA,NA,NA,NA,NA,NA,NA,NA,NA,NA,NA,NA,NA,NA,NA,NA,NA,NA
cd538,task,flow.Sequence,3_0_0_0_4,NA,NA,completion,8316.8759999999,1922738.3,1922735.145,1922751.811,1931068.687,1931072.2,2023-02-09T12:40:05Z,1931085.353,NULL,Orientierung,urekebisho,s,uelekeo,marekebisho,utunzaji,NA,sdf,NA,0,NA,NA,NA,NA,NA,NA,NA,NA,NA,NA,NA,NA,NA,NA,NA,NA,NA,NA,NA
cd538,deep,flow.Sequence,3_0_0_0_5_0,NA,NA,skipped,NA,1931072.4,NA,NA,1931068.687,1931072.5,2023-02-09T12:40:05Z,1931085.353,NULL,Kreativität,ubunifu,s,mratibu,mwendelezo,makubaliano,NA,sdf,NA,0,NA,NA,NA,NA,NA,NA,NA,NA,NA,NA,NA,NA,NA,NA,NA,NA,NA,NA,NA
cd538,Shallow Question,html.Page,3_0_0_0_5_1_0,NA,NA,form submission,3454.4470000009,1931072.6,1931068.687,1931085.353,1934539.8,1934540.4,2023-02-09T12:40:09Z,1934551.881,NULL,Kreativität,ubunifu,s,mratibu,mwendelezo,makubaliano,makubaliano,NA,NA,0,NA,NA,NA,NA,NA,NA,NA,NA,NA,NA,NA,NA,NA,NA,NA,NA,NA,NA,NA
cd538,"""Richtig""-Screen",canvas.Screen,3_0_0_0_5_1_1,NA,NA,skipped,NA,1934543.6,NA,NA,1934539.8,1934543.8,2023-02-09T12:40:09Z,1934551.881,NULL,Kreativität,ubunifu,s,mratibu,mwendelezo,makubaliano,NA,sdf,NA,0,NA,NA,NA,NA,NA,NA,NA,NA,NA,NA,NA,NA,NA,NA,NA,NA,NA,NA,NA
cd538,"""Falsch""-Screen",canvas.Screen,3_0_0_0_5_1_2,NA,NA,timeout,4999.8,1934545,1934535.215,1934551.881,1939535.015,1939537.9,2023-02-09T12:40:14Z,1939551.681,NULL,Kreativität,ubunifu,s,mratibu,mwendelezo,makubaliano,NA,sdf,0,0,NA,NA,NA,NA,NA,NA,NA,NA,NA,NA,NA,NA,NA,NA,NA,NA,NA,NA,NA
cd538,shallow,flow.Sequence,3_0_0_0_5_1,NA,NA,completion,8449.662,1931072.6,1931068.687,1931085.353,1939535.015,1939538.4,2023-02-09T12:40:14Z,1939551.681,NULL,Kreativität,ubunifu,s,mratibu,mwendelezo,makubaliano,NA,sdf,NA,0,NA,NA,NA,NA,NA,NA,NA,NA,NA,NA,NA,NA,NA,NA,NA,NA,NA,NA,NA
cd538,task,flow.Sequence,3_0_0_0_5,NA,NA,completion,8449.662,1931072.3,1931068.687,1931085.353,1939535.015,1939538.6,2023-02-09T12:40:14Z,1939551.681,NULL,Kreativität,ubunifu,s,mratibu,mwendelezo,makubaliano,NA,sdf,NA,0,NA,NA,NA,NA,NA,NA,NA,NA,NA,NA,NA,NA,NA,NA,NA,NA,NA,NA,NA
cd538,Deep Question,html.Page,3_0_0_0_6_0_0,NA,NA,form submission,2271.1190000006,1939538.9,1939535.015,1939551.681,1941822.8,1941823.2,2023-02-09T12:40:16Z,1941834.923,NULL,Stimmung,kinyongo,d,NA,NA,NA,s,NA,NA,0,NA,NA,NA,NA,NA,NA,NA,NA,NA,NA,NA,NA,NA,NA,NA,NA,NA,NA,NA
cd538,"""Richtig""-Screen",canvas.Screen,3_0_0_0_6_0_1,NA,NA,skipped,NA,1941825.8,NA,NA,1941822.8,1941825.9,2023-02-09T12:40:16Z,1941834.923,NULL,Stimmung,kinyongo,d,NA,NA,NA,NA,sdf,NA,0,NA,NA,NA,NA,NA,NA,NA,NA,NA,NA,NA,NA,NA,NA,NA,NA,NA,NA,NA
cd538,"""Falsch""-Screen",canvas.Screen,3_0_0_0_6_0_2,NA,NA,timeout,4999.8,1941826.5,1941818.257,1941834.923,1946818.057,1946820.7,2023-02-09T12:40:21Z,1946834.723,NULL,Stimmung,kinyongo,d,NA,NA,NA,NA,sdf,0,0,NA,NA,NA,NA,NA,NA,NA,NA,NA,NA,NA,NA,NA,NA,NA,NA,NA,NA,NA
cd538,deep,flow.Sequence,3_0_0_0_6_0,NA,NA,completion,7266.3759999999,1939538.8,1939535.015,1939551.681,1946818.057,1946821.2,2023-02-09T12:40:21Z,1946834.723,NULL,Stimmung,kinyongo,d,NA,NA,NA,NA,sdf,NA,0,NA,NA,NA,NA,NA,NA,NA,NA,NA,NA,NA,NA,NA,NA,NA,NA,NA,NA,NA
cd538,shallow,flow.Sequence,3_0_0_0_6_1,NA,NA,skipped,NA,1946821.3,NA,NA,1946818.057,1946821.5,2023-02-09T12:40:21Z,1946834.723,NULL,Stimmung,kinyongo,d,NA,NA,NA,NA,sdf,NA,0,NA,NA,NA,NA,NA,NA,NA,NA,NA,NA,NA,NA,NA,NA,NA,NA,NA,NA,NA
cd538,task,flow.Sequence,3_0_0_0_6,NA,NA,completion,7266.3759999999,1939538.8,1939535.015,1939551.681,1946818.057,1946821.6,2023-02-09T12:40:21Z,1946834.723,NULL,Stimmung,kinyongo,d,NA,NA,NA,NA,sdf,NA,0,NA,NA,NA,NA,NA,NA,NA,NA,NA,NA,NA,NA,NA,NA,NA,NA,NA,NA,NA
cd538,Deep Question,html.Page,3_0_0_0_7_0_0,NA,NA,form submission,3221.4769999993,1946821.9,1946818.057,1946834.723,1950056.2,1950056.7,2023-02-09T12:40:24Z,1950068.962,NULL,Betrüger,mdanganyifu,d,NA,NA,NA,d,NA,NA,0,NA,NA,NA,NA,NA,NA,NA,NA,NA,NA,NA,NA,NA,NA,NA,NA,NA,NA,NA
cd538,"""Richtig""-Screen",canvas.Screen,3_0_0_0_7_0_1,NA,NA,skipped,NA,1950059.9,NA,NA,1950056.2,1950060.1,2023-02-09T12:40:24Z,1950068.962,NULL,Betrüger,mdanganyifu,d,NA,NA,NA,NA,sdf,NA,0,NA,NA,NA,NA,NA,NA,NA,NA,NA,NA,NA,NA,NA,NA,NA,NA,NA,NA,NA
cd538,"""Falsch""-Screen",canvas.Screen,3_0_0_0_7_0_2,NA,NA,timeout,4999.8,1950060.7,1950052.296,1950068.962,1955052.096,1955054.5,2023-02-09T12:40:29Z,1955068.762,NULL,Betrüger,mdanganyifu,d,NA,NA,NA,NA,sdf,0,0,NA,NA,NA,NA,NA,NA,NA,NA,NA,NA,NA,NA,NA,NA,NA,NA,NA,NA,NA
cd538,deep,flow.Sequence,3_0_0_0_7_0,NA,NA,completion,8217.3729999999,1946821.8,1946818.057,1946834.723,1955052.096,1955055,2023-02-09T12:40:29Z,1955068.762,NULL,Betrüger,mdanganyifu,d,NA,NA,NA,NA,sdf,NA,0,NA,NA,NA,NA,NA,NA,NA,NA,NA,NA,NA,NA,NA,NA,NA,NA,NA,NA,NA
cd538,shallow,flow.Sequence,3_0_0_0_7_1,NA,NA,skipped,NA,1955055.2,NA,NA,1955052.096,1955055.3,2023-02-09T12:40:29Z,1955068.762,NULL,Betrüger,mdanganyifu,d,NA,NA,NA,NA,sdf,NA,0,NA,NA,NA,NA,NA,NA,NA,NA,NA,NA,NA,NA,NA,NA,NA,NA,NA,NA,NA
cd538,task,flow.Sequence,3_0_0_0_7,NA,NA,completion,8217.3729999999,1946821.8,1946818.057,1946834.723,1955052.096,1955055.5,2023-02-09T12:40:29Z,1955068.762,NULL,Betrüger,mdanganyifu,d,NA,NA,NA,NA,sdf,NA,0,NA,NA,NA,NA,NA,NA,NA,NA,NA,NA,NA,NA,NA,NA,NA,NA,NA,NA,NA
cd538,block,flow.Loop,3_0_0_0,NA,NA,completion,65468.834,1889590.4,1889516.598,1889583.262,1955052.096,1955055.7,2023-02-09T12:40:29Z,1955068.762,NULL,NA,NA,NA,NA,NA,NA,NA,sdf,NA,0,NA,NA,NA,NA,NA,NA,NA,NA,NA,NA,NA,NA,NA,NA,NA,NA,NA,NA,NA
cd538,weiter,canvas.Screen,3_0_0_1,sdf,keypress(Space),response,1441.8379999995,1955055.8,1955052.096,1955068.762,1956510.6,1956515.3,2023-02-09T12:40:31Z,1956535.37,NULL,NA,NA,NA,NA,NA,NA,NA,sdf,NA,0,NA,NA,NA,NA,NA,NA,NA,NA,NA,NA,NA,NA,NA,NA,NA,NA,NA,NA,NA
cd538,check continue,flow.Sequence,3_0_0,NA,NA,completion,66927.338,1889590.4,1889516.598,1889583.262,1956510.6,1956515.5,2023-02-09T12:40:31Z,1956535.37,NULL,NA,NA,NA,NA,NA,NA,NA,sdf,NA,0,NA,NA,NA,NA,NA,NA,NA,NA,NA,NA,NA,NA,NA,NA,NA,NA,NA,NA,NA
cd538,Deep Question,html.Page,3_0_1_0_0_0_0,NA,NA,form submission,2754.1299999999,1956543.1,1956502.038,1956535.37,1959289.5,1959289.8,2023-02-09T12:40:33Z,1959302.662,NULL,Gefährdung,kuhatarisha,d,NA,NA,NA,d,NA,NA,1,NA,NA,NA,NA,NA,NA,NA,NA,NA,NA,NA,NA,NA,NA,NA,NA,NA,NA,NA
cd538,"""Richtig""-Screen",canvas.Screen,3_0_1_0_0_0_1,NA,NA,skipped,NA,1959290.7,NA,NA,1959289.5,1959290.7,2023-02-09T12:40:33Z,1959302.662,NULL,Gefährdung,kuhatarisha,d,NA,NA,NA,NA,sdfdsf,NA,1,NA,NA,NA,NA,NA,NA,NA,NA,NA,NA,NA,NA,NA,NA,NA,NA,NA,NA,NA
cd538,"""Falsch""-Screen",canvas.Screen,3_0_1_0_0_0_2,NA,NA,timeout,4999.8,1959291.6,1959285.996,1959302.662,1964285.796,1964288.7,2023-02-09T12:40:38Z,1964302.462,NULL,Gefährdung,kuhatarisha,d,NA,NA,NA,NA,sdfdsf,0,1,NA,NA,NA,NA,NA,NA,NA,NA,NA,NA,NA,NA,NA,NA,NA,NA,NA,NA,NA
cd538,deep,flow.Sequence,3_0_1_0_0_0,NA,NA,completion,7750.426,1956543.1,1956502.038,1956535.37,1964285.796,1964289.1,2023-02-09T12:40:38Z,1964302.462,NULL,Gefährdung,kuhatarisha,d,NA,NA,NA,NA,sdfdsf,NA,1,NA,NA,NA,NA,NA,NA,NA,NA,NA,NA,NA,NA,NA,NA,NA,NA,NA,NA,NA
cd538,shallow,flow.Sequence,3_0_1_0_0_1,NA,NA,skipped,NA,1964289.3,NA,NA,1964285.796,1964289.4,2023-02-09T12:40:38Z,1964302.462,NULL,Gefährdung,kuhatarisha,d,NA,NA,NA,NA,sdfdsf,NA,1,NA,NA,NA,NA,NA,NA,NA,NA,NA,NA,NA,NA,NA,NA,NA,NA,NA,NA,NA
cd538,task,flow.Sequence,3_0_1_0_0,NA,NA,completion,7750.426,1956543.1,1956502.038,1956535.37,1964285.796,1964289.6,2023-02-09T12:40:38Z,1964302.462,NULL,Gefährdung,kuhatarisha,d,NA,NA,NA,NA,sdfdsf,NA,1,NA,NA,NA,NA,NA,NA,NA,NA,NA,NA,NA,NA,NA,NA,NA,NA,NA,NA,NA
cd538,Deep Question,html.Page,3_0_1_0_1_0_0,NA,NA,form submission,6769.4380000003,1964289.8,1964285.796,1964302.462,1971071.9,1971072.1,2023-02-09T12:40:45Z,1971085.524,NULL,Stimmung,kinyongo,d,NA,NA,NA,keb,NA,NA,1,NA,NA,NA,NA,NA,NA,NA,NA,NA,NA,NA,NA,NA,NA,NA,NA,NA,NA,NA
cd538,"""Richtig""-Screen",canvas.Screen,3_0_1_0_1_0_1,NA,NA,skipped,NA,1971074.7,NA,NA,1971071.9,1971074.7,2023-02-09T12:40:45Z,1971085.524,NULL,Stimmung,kinyongo,d,NA,NA,NA,NA,sdfdsf,NA,1,NA,NA,NA,NA,NA,NA,NA,NA,NA,NA,NA,NA,NA,NA,NA,NA,NA,NA,NA
cd538,"""Falsch""-Screen",canvas.Screen,3_0_1_0_1_0_2,NA,NA,timeout,4999.8,1971075.3,1971068.858,1971085.524,1976068.658,1976070.4,2023-02-09T12:40:50Z,1976085.324,NULL,Stimmung,kinyongo,d,NA,NA,NA,NA,sdfdsf,0,1,NA,NA,NA,NA,NA,NA,NA,NA,NA,NA,NA,NA,NA,NA,NA,NA,NA,NA,NA
cd538,deep,flow.Sequence,3_0_1_0_1_0,NA,NA,completion,11766.196,1964289.8,1964285.796,1964302.462,1976068.658,1976070.7,2023-02-09T12:40:50Z,1976085.324,NULL,Stimmung,kinyongo,d,NA,NA,NA,NA,sdfdsf,NA,1,NA,NA,NA,NA,NA,NA,NA,NA,NA,NA,NA,NA,NA,NA,NA,NA,NA,NA,NA
cd538,shallow,flow.Sequence,3_0_1_0_1_1,NA,NA,skipped,NA,1976070.7,NA,NA,1976068.658,1976070.8,2023-02-09T12:40:50Z,1976085.324,NULL,Stimmung,kinyongo,d,NA,NA,NA,NA,sdfdsf,NA,1,NA,NA,NA,NA,NA,NA,NA,NA,NA,NA,NA,NA,NA,NA,NA,NA,NA,NA,NA
cd538,task,flow.Sequence,3_0_1_0_1,NA,NA,completion,11766.196,1964289.7,1964285.796,1964302.462,1976068.658,1976071,2023-02-09T12:40:50Z,1976085.324,NULL,Stimmung,kinyongo,d,NA,NA,NA,NA,sdfdsf,NA,1,NA,NA,NA,NA,NA,NA,NA,NA,NA,NA,NA,NA,NA,NA,NA,NA,NA,NA,NA
cd538,deep,flow.Sequence,3_0_1_0_2_0,NA,NA,skipped,NA,1976071,NA,NA,1976068.658,1976071.1,2023-02-09T12:40:50Z,1976085.324,NULL,Respekt,heshima,s,changamnao,upinzani,ufanisi,NA,sdfdsf,NA,1,NA,NA,NA,NA,NA,NA,NA,NA,NA,NA,NA,NA,NA,NA,NA,NA,NA,NA,NA
cd538,Shallow Question,html.Page,3_0_1_0_2_1_0,NA,NA,form submission,5237.3759999992,1976071.3,1976068.658,1976085.324,1981322.7,1981323.1,2023-02-09T12:40:55Z,1981336.041,NULL,Respekt,heshima,s,changamnao,upinzani,ufanisi,heshima,NA,NA,1,NA,NA,NA,NA,NA,NA,NA,NA,NA,NA,NA,NA,NA,NA,NA,NA,NA,NA,NA
cd538,"""Richtig""-Screen",canvas.Screen,3_0_1_0_2_1_1,NA,NA,timeout,4999.8,1981325.4,1981319.375,1981336.041,1986319.175,1986321.6,2023-02-09T12:41:00Z,1986335.841,NULL,Respekt,heshima,s,changamnao,upinzani,ufanisi,NA,sdfdsf,1,1,NA,NA,NA,NA,NA,NA,NA,NA,NA,NA,NA,NA,NA,NA,NA,NA,NA,NA,NA
cd538,"""Falsch""-Screen",canvas.Screen,3_0_1_0_2_1_2,NA,NA,skipped,NA,1986324.6,NA,NA,1986319.175,1986324.7,2023-02-09T12:41:00Z,1986335.841,NULL,Respekt,heshima,s,changamnao,upinzani,ufanisi,NA,sdfdsf,NA,1,NA,NA,NA,NA,NA,NA,NA,NA,NA,NA,NA,NA,NA,NA,NA,NA,NA,NA,NA
cd538,shallow,flow.Sequence,3_0_1_0_2_1,NA,NA,completion,10233.851,1976071.2,1976068.658,1976085.324,1986319.175,1986324.9,2023-02-09T12:41:00Z,1986335.841,NULL,Respekt,heshima,s,changamnao,upinzani,ufanisi,NA,sdfdsf,NA,1,NA,NA,NA,NA,NA,NA,NA,NA,NA,NA,NA,NA,NA,NA,NA,NA,NA,NA,NA
cd538,task,flow.Sequence,3_0_1_0_2,NA,NA,completion,10233.851,1976071,1976068.658,1976085.324,1986319.175,1986325.1,2023-02-09T12:41:00Z,1986335.841,NULL,Respekt,heshima,s,changamnao,upinzani,ufanisi,NA,sdfdsf,NA,1,NA,NA,NA,NA,NA,NA,NA,NA,NA,NA,NA,NA,NA,NA,NA,NA,NA,NA,NA
cd538,Deep Question,html.Page,3_0_1_0_3_0_0,NA,NA,form submission,4337.0590000004,1986325.2,1986319.175,1986335.841,1990672.9,1990673.4,2023-02-09T12:41:05Z,1990685.667,NULL,Betrüger,mdanganyifu,d,NA,NA,NA,s,NA,NA,1,NA,NA,NA,NA,NA,NA,NA,NA,NA,NA,NA,NA,NA,NA,NA,NA,NA,NA,NA
cd538,"""Richtig""-Screen",canvas.Screen,3_0_1_0_3_0_1,NA,NA,skipped,NA,1990676.2,NA,NA,1990672.9,1990676.3,2023-02-09T12:41:05Z,1990685.667,NULL,Betrüger,mdanganyifu,d,NA,NA,NA,NA,sdfdsf,NA,1,NA,NA,NA,NA,NA,NA,NA,NA,NA,NA,NA,NA,NA,NA,NA,NA,NA,NA,NA
cd538,"""Falsch""-Screen",canvas.Screen,3_0_1_0_3_0_2,NA,NA,timeout,4999.8,1990676.9,1990669.001,1990685.667,1995668.801,1995670.8,2023-02-09T12:41:10Z,1995685.467,NULL,Betrüger,mdanganyifu,d,NA,NA,NA,NA,sdfdsf,0,1,NA,NA,NA,NA,NA,NA,NA,NA,NA,NA,NA,NA,NA,NA,NA,NA,NA,NA,NA
cd538,deep,flow.Sequence,3_0_1_0_3_0,NA,NA,completion,9332.96,1986325.2,1986319.175,1986335.841,1995668.801,1995671.3,2023-02-09T12:41:10Z,1995685.467,NULL,Betrüger,mdanganyifu,d,NA,NA,NA,NA,sdfdsf,NA,1,NA,NA,NA,NA,NA,NA,NA,NA,NA,NA,NA,NA,NA,NA,NA,NA,NA,NA,NA
cd538,shallow,flow.Sequence,3_0_1_0_3_1,NA,NA,skipped,NA,1995671.5,NA,NA,1995668.801,1995671.7,2023-02-09T12:41:10Z,1995685.467,NULL,Betrüger,mdanganyifu,d,NA,NA,NA,NA,sdfdsf,NA,1,NA,NA,NA,NA,NA,NA,NA,NA,NA,NA,NA,NA,NA,NA,NA,NA,NA,NA,NA
cd538,task,flow.Sequence,3_0_1_0_3,NA,NA,completion,9332.96,1986325.1,1986319.175,1986335.841,1995668.801,1995671.9,2023-02-09T12:41:10Z,1995685.467,NULL,Betrüger,mdanganyifu,d,NA,NA,NA,NA,sdfdsf,NA,1,NA,NA,NA,NA,NA,NA,NA,NA,NA,NA,NA,NA,NA,NA,NA,NA,NA,NA,NA
cd538,Deep Question,html.Page,3_0_1_0_4_0_0,NA,NA,form submission,4220.8330000008,1995672,1995668.801,1995685.467,1999906.3,1999906.5,2023-02-09T12:41:14Z,1999919.653,NULL,Kontrolle,kudhibiti,d,NA,NA,NA,f,NA,NA,1,NA,NA,NA,NA,NA,NA,NA,NA,NA,NA,NA,NA,NA,NA,NA,NA,NA,NA,NA
cd538,"""Richtig""-Screen",canvas.Screen,3_0_1_0_4_0_1,NA,NA,skipped,NA,1999909.2,NA,NA,1999906.3,1999909.3,2023-02-09T12:41:14Z,1999919.653,NULL,Kontrolle,kudhibiti,d,NA,NA,NA,NA,sdfdsf,NA,1,NA,NA,NA,NA,NA,NA,NA,NA,NA,NA,NA,NA,NA,NA,NA,NA,NA,NA,NA
cd538,"""Falsch""-Screen",canvas.Screen,3_0_1_0_4_0_2,NA,NA,timeout,4999.8,1999909.9,1999902.987,1999919.653,2004902.787,2004904.7,2023-02-09T12:41:19Z,2004919.453,NULL,Kontrolle,kudhibiti,d,NA,NA,NA,NA,sdfdsf,0,1,NA,NA,NA,NA,NA,NA,NA,NA,NA,NA,NA,NA,NA,NA,NA,NA,NA,NA,NA
cd538,deep,flow.Sequence,3_0_1_0_4_0,NA,NA,completion,9217.3200000001,1995672,1995668.801,1995685.467,2004902.787,2004905.1,2023-02-09T12:41:19Z,2004919.453,NULL,Kontrolle,kudhibiti,d,NA,NA,NA,NA,sdfdsf,NA,1,NA,NA,NA,NA,NA,NA,NA,NA,NA,NA,NA,NA,NA,NA,NA,NA,NA,NA,NA
cd538,shallow,flow.Sequence,3_0_1_0_4_1,NA,NA,skipped,NA,2004905.2,NA,NA,2004902.787,2004905.4,2023-02-09T12:41:19Z,2004919.453,NULL,Kontrolle,kudhibiti,d,NA,NA,NA,NA,sdfdsf,NA,1,NA,NA,NA,NA,NA,NA,NA,NA,NA,NA,NA,NA,NA,NA,NA,NA,NA,NA,NA
cd538,task,flow.Sequence,3_0_1_0_4,NA,NA,completion,9217.3200000001,1995672,1995668.801,1995685.467,2004902.787,2004905.5,2023-02-09T12:41:19Z,2004919.453,NULL,Kontrolle,kudhibiti,d,NA,NA,NA,NA,sdfdsf,NA,1,NA,NA,NA,NA,NA,NA,NA,NA,NA,NA,NA,NA,NA,NA,NA,NA,NA,NA,NA
cd538,deep,flow.Sequence,3_0_1_0_5_0,NA,NA,skipped,NA,2004905.7,NA,NA,2004902.787,2004905.9,2023-02-09T12:41:19Z,2004919.453,NULL,Können,unaweza,s,kiongozi,bustani,mienendo,NA,sdfdsf,NA,1,NA,NA,NA,NA,NA,NA,NA,NA,NA,NA,NA,NA,NA,NA,NA,NA,NA,NA,NA
cd538,Shallow Question,html.Page,3_0_1_0_5_1_0,NA,NA,form submission,4020.7469999993,2004906.1,2004902.787,2004919.453,2008940.2,2008940.9,2023-02-09T12:41:23Z,2008952.625,NULL,Können,unaweza,s,kiongozi,bustani,mienendo,mienendo,NA,NA,1,NA,NA,NA,NA,NA,NA,NA,NA,NA,NA,NA,NA,NA,NA,NA,NA,NA,NA,NA
cd538,"""Richtig""-Screen",canvas.Screen,3_0_1_0_5_1_1,NA,NA,skipped,NA,2008944.5,NA,NA,2008940.2,2008944.8,2023-02-09T12:41:23Z,2008952.625,NULL,Können,unaweza,s,kiongozi,bustani,mienendo,NA,sdfdsf,NA,1,NA,NA,NA,NA,NA,NA,NA,NA,NA,NA,NA,NA,NA,NA,NA,NA,NA,NA,NA
cd538,"""Falsch""-Screen",canvas.Screen,3_0_1_0_5_1_2,NA,NA,timeout,4999.8,2008945.9,2008935.959,2008952.625,2013935.759,2013937.6,2023-02-09T12:41:28Z,2013952.425,NULL,Können,unaweza,s,kiongozi,bustani,mienendo,NA,sdfdsf,0,1,NA,NA,NA,NA,NA,NA,NA,NA,NA,NA,NA,NA,NA,NA,NA,NA,NA,NA,NA
cd538,shallow,flow.Sequence,3_0_1_0_5_1,NA,NA,completion,9016.3060000001,2004906,2004902.787,2004919.453,2013935.759,2013938.2,2023-02-09T12:41:28Z,2013952.425,NULL,Können,unaweza,s,kiongozi,bustani,mienendo,NA,sdfdsf,NA,1,NA,NA,NA,NA,NA,NA,NA,NA,NA,NA,NA,NA,NA,NA,NA,NA,NA,NA,NA
cd538,task,flow.Sequence,3_0_1_0_5,NA,NA,completion,9016.3060000001,2004905.7,2004902.787,2004919.453,2013935.759,2013938.4,2023-02-09T12:41:28Z,2013952.425,NULL,Können,unaweza,s,kiongozi,bustani,mienendo,NA,sdfdsf,NA,1,NA,NA,NA,NA,NA,NA,NA,NA,NA,NA,NA,NA,NA,NA,NA,NA,NA,NA,NA
cd538,deep,flow.Sequence,3_0_1_0_6_0,NA,NA,skipped,NA,2013938.5,NA,NA,2013935.759,2013938.7,2023-02-09T12:41:28Z,2013952.425,NULL,Kreativität,ubunifu,s,mratibu,mwendelezo,makubaliano,NA,sdfdsf,NA,1,NA,NA,NA,NA,NA,NA,NA,NA,NA,NA,NA,NA,NA,NA,NA,NA,NA,NA,NA
cd538,Shallow Question,html.Page,3_0_1_0_6_1_0,NA,NA,form submission,3621.575,2013938.9,2013935.759,2013952.425,2017574,2017574.5,2023-02-09T12:41:32Z,2017586.436,NULL,Kreativität,ubunifu,s,mratibu,mwendelezo,makubaliano,ubunifu,NA,NA,1,NA,NA,NA,NA,NA,NA,NA,NA,NA,NA,NA,NA,NA,NA,NA,NA,NA,NA,NA
cd538,"""Richtig""-Screen",canvas.Screen,3_0_1_0_6_1_1,NA,NA,timeout,4999.8,2017577.8,2017569.77,2017586.436,2022569.57,2022571.4,2023-02-09T12:41:37Z,2022586.236,NULL,Kreativität,ubunifu,s,mratibu,mwendelezo,makubaliano,NA,sdfdsf,1,1,NA,NA,NA,NA,NA,NA,NA,NA,NA,NA,NA,NA,NA,NA,NA,NA,NA,NA,NA
cd538,"""Falsch""-Screen",canvas.Screen,3_0_1_0_6_1_2,NA,NA,skipped,NA,2022575.5,NA,NA,2022569.57,2022575.6,2023-02-09T12:41:37Z,2022586.236,NULL,Kreativität,ubunifu,s,mratibu,mwendelezo,makubaliano,NA,sdfdsf,NA,1,NA,NA,NA,NA,NA,NA,NA,NA,NA,NA,NA,NA,NA,NA,NA,NA,NA,NA,NA
cd538,shallow,flow.Sequence,3_0_1_0_6_1,NA,NA,completion,8617.145,2013938.8,2013935.759,2013952.425,2022569.57,2022575.7,2023-02-09T12:41:37Z,2022586.236,NULL,Kreativität,ubunifu,s,mratibu,mwendelezo,makubaliano,NA,sdfdsf,NA,1,NA,NA,NA,NA,NA,NA,NA,NA,NA,NA,NA,NA,NA,NA,NA,NA,NA,NA,NA
cd538,task,flow.Sequence,3_0_1_0_6,NA,NA,completion,8617.145,2013938.5,2013935.759,2013952.425,2022569.57,2022575.9,2023-02-09T12:41:37Z,2022586.236,NULL,Kreativität,ubunifu,s,mratibu,mwendelezo,makubaliano,NA,sdfdsf,NA,1,NA,NA,NA,NA,NA,NA,NA,NA,NA,NA,NA,NA,NA,NA,NA,NA,NA,NA,NA
cd538,deep,flow.Sequence,3_0_1_0_7_0,NA,NA,skipped,NA,2022576,NA,NA,2022569.57,2022576.1,2023-02-09T12:41:37Z,2022586.236,NULL,Orientierung,urekebisho,s,uelekeo,marekebisho,utunzaji,NA,sdfdsf,NA,1,NA,NA,NA,NA,NA,NA,NA,NA,NA,NA,NA,NA,NA,NA,NA,NA,NA,NA,NA
cd538,Shallow Question,html.Page,3_0_1_0_7_1_0,NA,NA,form submission,4954.4639999992,2022576.1,2022569.57,2022586.236,2027540.7,2027541.3,2023-02-09T12:41:42Z,2027553.111,NULL,Orientierung,urekebisho,s,uelekeo,marekebisho,utunzaji,urekebisho,NA,NA,1,NA,NA,NA,NA,NA,NA,NA,NA,NA,NA,NA,NA,NA,NA,NA,NA,NA,NA,NA
cd538,"""Richtig""-Screen",canvas.Screen,3_0_1_0_7_1_1,NA,NA,timeout,4999.8,2027544,2027536.445,2027553.111,2032536.245,2032538.7,2023-02-09T12:41:47Z,2032552.911,NULL,Orientierung,urekebisho,s,uelekeo,marekebisho,utunzaji,NA,sdfdsf,1,1,NA,NA,NA,NA,NA,NA,NA,NA,NA,NA,NA,NA,NA,NA,NA,NA,NA,NA,NA
cd538,"""Falsch""-Screen",canvas.Screen,3_0_1_0_7_1_2,NA,NA,skipped,NA,2032542.4,NA,NA,2032536.245,2032542.5,2023-02-09T12:41:47Z,2032552.911,NULL,Orientierung,urekebisho,s,uelekeo,marekebisho,utunzaji,NA,sdfdsf,NA,1,NA,NA,NA,NA,NA,NA,NA,NA,NA,NA,NA,NA,NA,NA,NA,NA,NA,NA,NA
cd538,shallow,flow.Sequence,3_0_1_0_7_1,NA,NA,completion,9950.0090000001,2022576.1,2022569.57,2022586.236,2032536.245,2032542.6,2023-02-09T12:41:47Z,2032552.911,NULL,Orientierung,urekebisho,s,uelekeo,marekebisho,utunzaji,NA,sdfdsf,NA,1,NA,NA,NA,NA,NA,NA,NA,NA,NA,NA,NA,NA,NA,NA,NA,NA,NA,NA,NA
cd538,task,flow.Sequence,3_0_1_0_7,NA,NA,completion,9950.0090000001,2022576,2022569.57,2022586.236,2032536.245,2032542.8,2023-02-09T12:41:47Z,2032552.911,NULL,Orientierung,urekebisho,s,uelekeo,marekebisho,utunzaji,NA,sdfdsf,NA,1,NA,NA,NA,NA,NA,NA,NA,NA,NA,NA,NA,NA,NA,NA,NA,NA,NA,NA,NA
cd538,block,flow.Loop,3_0_1_0,NA,NA,completion,76000.875,1956543.1,1956502.038,1956535.37,2032536.245,2032542.8,2023-02-09T12:41:47Z,2032552.911,NULL,NA,NA,NA,NA,NA,NA,NA,sdfdsf,NA,1,NA,NA,NA,NA,NA,NA,NA,NA,NA,NA,NA,NA,NA,NA,NA,NA,NA,NA,NA
cd538,weiter,canvas.Screen,3_0_1_1,sdf,keypress(Space),response,963.08899999992,2032543,2032536.245,2032552.911,2033516,2033518.2,2023-02-09T12:41:48Z,2033536.205,NULL,NA,NA,NA,NA,NA,NA,NA,sdfdsf,NA,1,NA,NA,NA,NA,NA,NA,NA,NA,NA,NA,NA,NA,NA,NA,NA,NA,NA,NA,NA
cd538,check continue,flow.Sequence,3_0_1,NA,NA,completion,76980.63,1956543.1,1956502.038,1956535.37,2033516,2033518.5,2023-02-09T12:41:48Z,2033536.205,NULL,NA,NA,NA,NA,NA,NA,NA,sdfdsf,NA,1,NA,NA,NA,NA,NA,NA,NA,NA,NA,NA,NA,NA,NA,NA,NA,NA,NA,NA,NA
cd538,Deep Question,html.Page,3_0_2_0_0_0_0,NA,NA,form submission,6019.6950000003,2033546.3,2033519.539,2033536.205,2039555.9,2039556.2,2023-02-09T12:41:54Z,2039569.967,NULL,Betrüger,mdanganyifu,d,NA,NA,NA,mdaganifiu,NA,NA,2,NA,NA,NA,NA,NA,NA,NA,NA,NA,NA,NA,NA,NA,NA,NA,NA,NA,NA,NA
cd538,"""Richtig""-Screen",canvas.Screen,3_0_2_0_0_0_1,NA,NA,skipped,NA,2039558.7,NA,NA,2039555.9,2039558.9,2023-02-09T12:41:54Z,2039569.967,NULL,Betrüger,mdanganyifu,d,NA,NA,NA,NA,sdf,NA,2,NA,NA,NA,NA,NA,NA,NA,NA,NA,NA,NA,NA,NA,NA,NA,NA,NA,NA,NA
cd538,"""Falsch""-Screen",canvas.Screen,3_0_2_0_0_0_2,NA,NA,timeout,4999.8,2039559.5,2039553.301,2039569.967,2044553.101,2044554.5,2023-02-09T12:41:59Z,2044569.767,NULL,Betrüger,mdanganyifu,d,NA,NA,NA,NA,sdf,0,2,NA,NA,NA,NA,NA,NA,NA,NA,NA,NA,NA,NA,NA,NA,NA,NA,NA,NA,NA
cd538,deep,flow.Sequence,3_0_2_0_0_0,NA,NA,completion,11016.896,2033546.3,2033519.539,2033536.205,2044553.101,2044555.1,2023-02-09T12:41:59Z,2044569.767,NULL,Betrüger,mdanganyifu,d,NA,NA,NA,NA,sdf,NA,2,NA,NA,NA,NA,NA,NA,NA,NA,NA,NA,NA,NA,NA,NA,NA,NA,NA,NA,NA
cd538,shallow,flow.Sequence,3_0_2_0_0_1,NA,NA,skipped,NA,2044555.2,NA,NA,2044553.101,2044555.3,2023-02-09T12:41:59Z,2044569.767,NULL,Betrüger,mdanganyifu,d,NA,NA,NA,NA,sdf,NA,2,NA,NA,NA,NA,NA,NA,NA,NA,NA,NA,NA,NA,NA,NA,NA,NA,NA,NA,NA
cd538,task,flow.Sequence,3_0_2_0_0,NA,NA,completion,11016.896,2033546.3,2033519.539,2033536.205,2044553.101,2044555.6,2023-02-09T12:41:59Z,2044569.767,NULL,Betrüger,mdanganyifu,d,NA,NA,NA,NA,sdf,NA,2,NA,NA,NA,NA,NA,NA,NA,NA,NA,NA,NA,NA,NA,NA,NA,NA,NA,NA,NA
cd538,deep,flow.Sequence,3_0_2_0_1_0,NA,NA,skipped,NA,2044555.8,NA,NA,2044553.101,2044555.8,2023-02-09T12:41:59Z,2044569.767,NULL,Kreativität,ubunifu,s,mratibu,mwendelezo,makubaliano,NA,sdf,NA,2,NA,NA,NA,NA,NA,NA,NA,NA,NA,NA,NA,NA,NA,NA,NA,NA,NA,NA,NA
cd538,Shallow Question,html.Page,3_0_2_0_1_1_0,NA,NA,form submission,3137.9329999993,2044555.9,2044553.101,2044569.767,2047707.7,2047708.3,2023-02-09T12:42:02Z,2047720.173,NULL,Kreativität,ubunifu,s,mratibu,mwendelezo,makubaliano,ubunifu,NA,NA,2,NA,NA,NA,NA,NA,NA,NA,NA,NA,NA,NA,NA,NA,NA,NA,NA,NA,NA,NA
cd538,"""Richtig""-Screen",canvas.Screen,3_0_2_0_1_1_1,NA,NA,timeout,4999.8,2047711.4,2047703.507,2047720.173,2052703.307,2052705.9,2023-02-09T12:42:07Z,2052719.973,NULL,Kreativität,ubunifu,s,mratibu,mwendelezo,makubaliano,NA,sdf,1,2,NA,NA,NA,NA,NA,NA,NA,NA,NA,NA,NA,NA,NA,NA,NA,NA,NA,NA,NA
cd538,"""Falsch""-Screen",canvas.Screen,3_0_2_0_1_1_2,NA,NA,skipped,NA,2052710.4,NA,NA,2052703.307,2052710.6,2023-02-09T12:42:07Z,2052719.973,NULL,Kreativität,ubunifu,s,mratibu,mwendelezo,makubaliano,NA,sdf,NA,2,NA,NA,NA,NA,NA,NA,NA,NA,NA,NA,NA,NA,NA,NA,NA,NA,NA,NA,NA
cd538,shallow,flow.Sequence,3_0_2_0_1_1,NA,NA,completion,8133.54,2044555.9,2044553.101,2044569.767,2052703.307,2052710.7,2023-02-09T12:42:07Z,2052719.973,NULL,Kreativität,ubunifu,s,mratibu,mwendelezo,makubaliano,NA,sdf,NA,2,NA,NA,NA,NA,NA,NA,NA,NA,NA,NA,NA,NA,NA,NA,NA,NA,NA,NA,NA
cd538,task,flow.Sequence,3_0_2_0_1,NA,NA,completion,8133.54,2044555.7,2044553.101,2044569.767,2052703.307,2052710.8,2023-02-09T12:42:07Z,2052719.973,NULL,Kreativität,ubunifu,s,mratibu,mwendelezo,makubaliano,NA,sdf,NA,2,NA,NA,NA,NA,NA,NA,NA,NA,NA,NA,NA,NA,NA,NA,NA,NA,NA,NA,NA
cd538,Deep Question,html.Page,3_0_2_0_2_0_0,NA,NA,form submission,8919.7269999993,2052711,2052703.307,2052719.973,2061639.7,2061639.9,2023-02-09T12:42:16Z,2061653.533,NULL,Stimmung,kinyongo,d,NA,NA,NA,angan,NA,NA,2,NA,NA,NA,NA,NA,NA,NA,NA,NA,NA,NA,NA,NA,NA,NA,NA,NA,NA,NA
cd538,"""Richtig""-Screen",canvas.Screen,3_0_2_0_2_0_1,NA,NA,skipped,NA,2061643.2,NA,NA,2061639.7,2061643.3,2023-02-09T12:42:16Z,2061653.533,NULL,Stimmung,kinyongo,d,NA,NA,NA,NA,sdf,NA,2,NA,NA,NA,NA,NA,NA,NA,NA,NA,NA,NA,NA,NA,NA,NA,NA,NA,NA,NA
cd538,"""Falsch""-Screen",canvas.Screen,3_0_2_0_2_0_2,NA,NA,timeout,4999.8,2061643.9,2061636.867,2061653.533,2066636.667,2066639.2,2023-02-09T12:42:21Z,2066653.333,NULL,Stimmung,kinyongo,d,NA,NA,NA,NA,sdf,0,2,NA,NA,NA,NA,NA,NA,NA,NA,NA,NA,NA,NA,NA,NA,NA,NA,NA,NA,NA
cd538,deep,flow.Sequence,3_0_2_0_2_0,NA,NA,completion,13916.694,2052710.9,2052703.307,2052719.973,2066636.667,2066639.5,2023-02-09T12:42:21Z,2066653.333,NULL,Stimmung,kinyongo,d,NA,NA,NA,NA,sdf,NA,2,NA,NA,NA,NA,NA,NA,NA,NA,NA,NA,NA,NA,NA,NA,NA,NA,NA,NA,NA
cd538,shallow,flow.Sequence,3_0_2_0_2_1,NA,NA,skipped,NA,2066639.7,NA,NA,2066636.667,2066639.8,2023-02-09T12:42:21Z,2066653.333,NULL,Stimmung,kinyongo,d,NA,NA,NA,NA,sdf,NA,2,NA,NA,NA,NA,NA,NA,NA,NA,NA,NA,NA,NA,NA,NA,NA,NA,NA,NA,NA
cd538,task,flow.Sequence,3_0_2_0_2,NA,NA,completion,13916.694,2052710.9,2052703.307,2052719.973,2066636.667,2066640.1,2023-02-09T12:42:21Z,2066653.333,NULL,Stimmung,kinyongo,d,NA,NA,NA,NA,sdf,NA,2,NA,NA,NA,NA,NA,NA,NA,NA,NA,NA,NA,NA,NA,NA,NA,NA,NA,NA,NA
cd538,deep,flow.Sequence,3_0_2_0_3_0,NA,NA,skipped,NA,2066640.2,NA,NA,2066636.667,2066640.3,2023-02-09T12:42:21Z,2066653.333,NULL,Respekt,heshima,s,changamnao,upinzani,ufanisi,NA,sdf,NA,2,NA,NA,NA,NA,NA,NA,NA,NA,NA,NA,NA,NA,NA,NA,NA,NA,NA,NA,NA
cd538,Shallow Question,html.Page,3_0_2_0_3_1_0,NA,NA,form submission,5871.1669999999,2066640.5,2066636.667,2066653.333,2072524.5,2072524.9,2023-02-09T12:42:27Z,2072536.995,NULL,Respekt,heshima,s,changamnao,upinzani,ufanisi,heshima,NA,NA,2,NA,NA,NA,NA,NA,NA,NA,NA,NA,NA,NA,NA,NA,NA,NA,NA,NA,NA,NA
cd538,"""Richtig""-Screen",canvas.Screen,3_0_2_0_3_1_1,NA,NA,timeout,4999.7999999998,2072528.3,2072520.329,2072536.995,2077520.129,2077521.5,2023-02-09T12:42:32Z,2077536.795,NULL,Respekt,heshima,s,changamnao,upinzani,ufanisi,NA,sdf,1,2,NA,NA,NA,NA,NA,NA,NA,NA,NA,NA,NA,NA,NA,NA,NA,NA,NA,NA,NA
cd538,"""Falsch""-Screen",canvas.Screen,3_0_2_0_3_1_2,NA,NA,skipped,NA,2077526.1,NA,NA,2077520.129,2077526.4,2023-02-09T12:42:32Z,2077536.795,NULL,Respekt,heshima,s,changamnao,upinzani,ufanisi,NA,sdf,NA,2,NA,NA,NA,NA,NA,NA,NA,NA,NA,NA,NA,NA,NA,NA,NA,NA,NA,NA,NA
cd538,shallow,flow.Sequence,3_0_2_0_3_1,NA,NA,completion,10866.796,2066640.4,2066636.667,2066653.333,2077520.129,2077526.7,2023-02-09T12:42:32Z,2077536.795,NULL,Respekt,heshima,s,changamnao,upinzani,ufanisi,NA,sdf,NA,2,NA,NA,NA,NA,NA,NA,NA,NA,NA,NA,NA,NA,NA,NA,NA,NA,NA,NA,NA
cd538,task,flow.Sequence,3_0_2_0_3,NA,NA,completion,10866.796,2066640.1,2066636.667,2066653.333,2077520.129,2077526.8,2023-02-09T12:42:32Z,2077536.795,NULL,Respekt,heshima,s,changamnao,upinzani,ufanisi,NA,sdf,NA,2,NA,NA,NA,NA,NA,NA,NA,NA,NA,NA,NA,NA,NA,NA,NA,NA,NA,NA,NA
cd538,Deep Question,html.Page,3_0_2_0_4_0_0,NA,NA,form submission,11020.904999999,2077526.9,2077520.129,2077536.795,2088557.7,2088558,2023-02-09T12:42:43Z,2088570.783,NULL,Kontrolle,kudhibiti,d,NA,NA,NA,kud,NA,NA,2,NA,NA,NA,NA,NA,NA,NA,NA,NA,NA,NA,NA,NA,NA,NA,NA,NA,NA,NA
cd538,"""Richtig""-Screen",canvas.Screen,3_0_2_0_4_0_1,NA,NA,skipped,NA,2088560.8,NA,NA,2088557.7,2088560.9,2023-02-09T12:42:43Z,2088570.783,NULL,Kontrolle,kudhibiti,d,NA,NA,NA,NA,sdf,NA,2,NA,NA,NA,NA,NA,NA,NA,NA,NA,NA,NA,NA,NA,NA,NA,NA,NA,NA,NA
cd538,"""Falsch""-Screen",canvas.Screen,3_0_2_0_4_0_2,NA,NA,timeout,4999.8,2088561.5,2088554.117,2088570.783,2093553.917,2093556,2023-02-09T12:42:48Z,2093570.583,NULL,Kontrolle,kudhibiti,d,NA,NA,NA,NA,sdf,0,2,NA,NA,NA,NA,NA,NA,NA,NA,NA,NA,NA,NA,NA,NA,NA,NA,NA,NA,NA
cd538,deep,flow.Sequence,3_0_2_0_4_0,NA,NA,completion,16017.122,2077526.9,2077520.129,2077536.795,2093553.917,2093556.5,2023-02-09T12:42:48Z,2093570.583,NULL,Kontrolle,kudhibiti,d,NA,NA,NA,NA,sdf,NA,2,NA,NA,NA,NA,NA,NA,NA,NA,NA,NA,NA,NA,NA,NA,NA,NA,NA,NA,NA
cd538,shallow,flow.Sequence,3_0_2_0_4_1,NA,NA,skipped,NA,2093556.6,NA,NA,2093553.917,2093556.8,2023-02-09T12:42:48Z,2093570.583,NULL,Kontrolle,kudhibiti,d,NA,NA,NA,NA,sdf,NA,2,NA,NA,NA,NA,NA,NA,NA,NA,NA,NA,NA,NA,NA,NA,NA,NA,NA,NA,NA
cd538,task,flow.Sequence,3_0_2_0_4,NA,NA,completion,16017.122,2077526.9,2077520.129,2077536.795,2093553.917,2093557,2023-02-09T12:42:48Z,2093570.583,NULL,Kontrolle,kudhibiti,d,NA,NA,NA,NA,sdf,NA,2,NA,NA,NA,NA,NA,NA,NA,NA,NA,NA,NA,NA,NA,NA,NA,NA,NA,NA,NA
cd538,Deep Question,html.Page,3_0_2_0_5_0_0,NA,NA,form submission,3035.9169999999,2093557.2,2093553.917,2093570.583,2096606.5,2096606.8,2023-02-09T12:42:51Z,2096620.461,NULL,Gefährdung,kuhatarisha,d,NA,NA,NA,kuh,NA,NA,2,NA,NA,NA,NA,NA,NA,NA,NA,NA,NA,NA,NA,NA,NA,NA,NA,NA,NA,NA
cd538,"""Richtig""-Screen",canvas.Screen,3_0_2_0_5_0_1,NA,NA,skipped,NA,2096609.6,NA,NA,2096606.5,2096609.8,2023-02-09T12:42:51Z,2096620.461,NULL,Gefährdung,kuhatarisha,d,NA,NA,NA,NA,sdf,NA,2,NA,NA,NA,NA,NA,NA,NA,NA,NA,NA,NA,NA,NA,NA,NA,NA,NA,NA,NA
cd538,"""Falsch""-Screen",canvas.Screen,3_0_2_0_5_0_2,NA,NA,timeout,4999.8,2096610.3,2096603.795,2096620.461,2101603.595,2101606.1,2023-02-09T12:42:56Z,2101620.261,NULL,Gefährdung,kuhatarisha,d,NA,NA,NA,NA,sdf,0,2,NA,NA,NA,NA,NA,NA,NA,NA,NA,NA,NA,NA,NA,NA,NA,NA,NA,NA,NA
cd538,deep,flow.Sequence,3_0_2_0_5_0,NA,NA,completion,8033.0120000001,2093557.1,2093553.917,2093570.583,2101603.595,2101606.6,2023-02-09T12:42:56Z,2101620.261,NULL,Gefährdung,kuhatarisha,d,NA,NA,NA,NA,sdf,NA,2,NA,NA,NA,NA,NA,NA,NA,NA,NA,NA,NA,NA,NA,NA,NA,NA,NA,NA,NA
cd538,shallow,flow.Sequence,3_0_2_0_5_1,NA,NA,skipped,NA,2101606.7,NA,NA,2101603.595,2101607,2023-02-09T12:42:56Z,2101620.261,NULL,Gefährdung,kuhatarisha,d,NA,NA,NA,NA,sdf,NA,2,NA,NA,NA,NA,NA,NA,NA,NA,NA,NA,NA,NA,NA,NA,NA,NA,NA,NA,NA
cd538,task,flow.Sequence,3_0_2_0_5,NA,NA,completion,8033.0120000001,2093557.1,2093553.917,2093570.583,2101603.595,2101607.1,2023-02-09T12:42:56Z,2101620.261,NULL,Gefährdung,kuhatarisha,d,NA,NA,NA,NA,sdf,NA,2,NA,NA,NA,NA,NA,NA,NA,NA,NA,NA,NA,NA,NA,NA,NA,NA,NA,NA,NA
cd538,deep,flow.Sequence,3_0_2_0_6_0,NA,NA,skipped,NA,2101607.3,NA,NA,2101603.595,2101607.4,2023-02-09T12:42:56Z,2101620.261,NULL,Können,unaweza,s,kiongozi,bustani,mienendo,NA,sdf,NA,2,NA,NA,NA,NA,NA,NA,NA,NA,NA,NA,NA,NA,NA,NA,NA,NA,NA,NA,NA
cd538,Shallow Question,html.Page,3_0_2_0_6_1_0,NA,NA,form submission,5254.6390000004,2101607.5,2101603.595,2101620.261,2106874.9,2106875.4,2023-02-09T12:43:01Z,2106887.449,NULL,Können,unaweza,s,kiongozi,bustani,mienendo,unaweza,NA,NA,2,NA,NA,NA,NA,NA,NA,NA,NA,NA,NA,NA,NA,NA,NA,NA,NA,NA,NA,NA
cd538,"""Richtig""-Screen",canvas.Screen,3_0_2_0_6_1_1,NA,NA,timeout,4999.7999999998,2106878.3,2106870.783,2106887.449,2111870.583,2111872.1,2023-02-09T12:43:06Z,2111887.249,NULL,Können,unaweza,s,kiongozi,bustani,mienendo,NA,sdf,1,2,NA,NA,NA,NA,NA,NA,NA,NA,NA,NA,NA,NA,NA,NA,NA,NA,NA,NA,NA
cd538,"""Falsch""-Screen",canvas.Screen,3_0_2_0_6_1_2,NA,NA,skipped,NA,2111875.8,NA,NA,2111870.583,2111875.9,2023-02-09T12:43:06Z,2111887.249,NULL,Können,unaweza,s,kiongozi,bustani,mienendo,NA,sdf,NA,2,NA,NA,NA,NA,NA,NA,NA,NA,NA,NA,NA,NA,NA,NA,NA,NA,NA,NA,NA
cd538,shallow,flow.Sequence,3_0_2_0_6_1,NA,NA,completion,10250.322,2101607.5,2101603.595,2101620.261,2111870.583,2111876,2023-02-09T12:43:06Z,2111887.249,NULL,Können,unaweza,s,kiongozi,bustani,mienendo,NA,sdf,NA,2,NA,NA,NA,NA,NA,NA,NA,NA,NA,NA,NA,NA,NA,NA,NA,NA,NA,NA,NA
cd538,task,flow.Sequence,3_0_2_0_6,NA,NA,completion,10250.322,2101607.3,2101603.595,2101620.261,2111870.583,2111876.1,2023-02-09T12:43:06Z,2111887.249,NULL,Können,unaweza,s,kiongozi,bustani,mienendo,NA,sdf,NA,2,NA,NA,NA,NA,NA,NA,NA,NA,NA,NA,NA,NA,NA,NA,NA,NA,NA,NA,NA
cd538,deep,flow.Sequence,3_0_2_0_7_0,NA,NA,skipped,NA,2111876.2,NA,NA,2111870.583,2111876.2,2023-02-09T12:43:06Z,2111887.249,NULL,Orientierung,urekebisho,s,uelekeo,marekebisho,utunzaji,NA,sdf,NA,2,NA,NA,NA,NA,NA,NA,NA,NA,NA,NA,NA,NA,NA,NA,NA,NA,NA,NA,NA
cd538,Shallow Question,html.Page,3_0_2_0_7_1_0,NA,NA,form submission,3621.1510000005,2111876.4,2111870.583,2111887.249,2115508.4,2115509,2023-02-09T12:43:10Z,2115520.973,NULL,Orientierung,urekebisho,s,uelekeo,marekebisho,utunzaji,urekebisho,NA,NA,2,NA,NA,NA,NA,NA,NA,NA,NA,NA,NA,NA,NA,NA,NA,NA,NA,NA,NA,NA
cd538,"""Richtig""-Screen",canvas.Screen,3_0_2_0_7_1_1,NA,NA,timeout,4999.7999999998,2115511.6,2115504.307,2115520.973,2120504.107,2120506.4,2023-02-09T12:43:15Z,2120520.773,NULL,Orientierung,urekebisho,s,uelekeo,marekebisho,utunzaji,NA,sdf,1,2,NA,NA,NA,NA,NA,NA,NA,NA,NA,NA,NA,NA,NA,NA,NA,NA,NA,NA,NA
cd538,"""Falsch""-Screen",canvas.Screen,3_0_2_0_7_1_2,NA,NA,skipped,NA,2120510.2,NA,NA,2120504.107,2120510.3,2023-02-09T12:43:15Z,2120520.773,NULL,Orientierung,urekebisho,s,uelekeo,marekebisho,utunzaji,NA,sdf,NA,2,NA,NA,NA,NA,NA,NA,NA,NA,NA,NA,NA,NA,NA,NA,NA,NA,NA,NA,NA
cd538,shallow,flow.Sequence,3_0_2_0_7_1,NA,NA,completion,8616.858,2111876.4,2111870.583,2111887.249,2120504.107,2120510.4,2023-02-09T12:43:15Z,2120520.773,NULL,Orientierung,urekebisho,s,uelekeo,marekebisho,utunzaji,NA,sdf,NA,2,NA,NA,NA,NA,NA,NA,NA,NA,NA,NA,NA,NA,NA,NA,NA,NA,NA,NA,NA
cd538,task,flow.Sequence,3_0_2_0_7,NA,NA,completion,8616.858,2111876.1,2111870.583,2111887.249,2120504.107,2120510.5,2023-02-09T12:43:15Z,2120520.773,NULL,Orientierung,urekebisho,s,uelekeo,marekebisho,utunzaji,NA,sdf,NA,2,NA,NA,NA,NA,NA,NA,NA,NA,NA,NA,NA,NA,NA,NA,NA,NA,NA,NA,NA
cd538,block,flow.Loop,3_0_2_0,NA,NA,completion,86967.902,2033546.3,2033519.539,2033536.205,2120504.107,2120510.7,2023-02-09T12:43:15Z,2120520.773,NULL,NA,NA,NA,NA,NA,NA,NA,sdf,NA,2,NA,NA,NA,NA,NA,NA,NA,NA,NA,NA,NA,NA,NA,NA,NA,NA,NA,NA,NA
cd538,weiter,canvas.Screen,3_0_2_1,sdf,keypress(Space),response,1268.6270000003,2120510.8,2120504.107,2120520.773,2121789.4,2121793.7,2023-02-09T12:43:16Z,2121820.721,NULL,NA,NA,NA,NA,NA,NA,NA,sdf,NA,2,NA,NA,NA,NA,NA,NA,NA,NA,NA,NA,NA,NA,NA,NA,NA,NA,NA,NA,NA
cd538,check continue,flow.Sequence,3_0_2,NA,NA,completion,88253.195,2033546.3,2033519.539,2033536.205,2121789.4,2121794,2023-02-09T12:43:16Z,2121820.721,NULL,NA,NA,NA,NA,NA,NA,NA,sdf,NA,2,NA,NA,NA,NA,NA,NA,NA,NA,NA,NA,NA,NA,NA,NA,NA,NA,NA,NA,NA
cd538,deep,flow.Sequence,3_0_3_0_0_0,NA,NA,skipped,NA,2121820.7,NA,NA,2121789.4,2121820.8,2023-02-09T12:43:16Z,2121820.721,NULL,Können,unaweza,s,kiongozi,bustani,mienendo,NA,qt,NA,3,NA,NA,NA,NA,NA,NA,NA,NA,NA,NA,NA,NA,NA,NA,NA,NA,NA,NA,NA
cd538,Shallow Question,html.Page,3_0_3_0_0_1_0,NA,NA,form submission,3271.1790000005,2121820.9,2121787.389,2121820.721,2125091.9,2125092.5,2023-02-09T12:43:19Z,2125104.486,NULL,Können,unaweza,s,kiongozi,bustani,mienendo,unaweza,NA,NA,3,NA,NA,NA,NA,NA,NA,NA,NA,NA,NA,NA,NA,NA,NA,NA,NA,NA,NA,NA
cd538,"""Richtig""-Screen",canvas.Screen,3_0_3_0_0_1_1,NA,NA,timeout,4999.7999999998,2125096.1,2125087.82,2125104.486,2130087.62,2130090.4,2023-02-09T12:43:24Z,2130104.286,NULL,Können,unaweza,s,kiongozi,bustani,mienendo,NA,qt,1,3,NA,NA,NA,NA,NA,NA,NA,NA,NA,NA,NA,NA,NA,NA,NA,NA,NA,NA,NA
cd538,"""Falsch""-Screen",canvas.Screen,3_0_3_0_0_1_2,NA,NA,skipped,NA,2130094.4,NA,NA,2130087.62,2130094.5,2023-02-09T12:43:24Z,2130104.286,NULL,Können,unaweza,s,kiongozi,bustani,mienendo,NA,qt,NA,3,NA,NA,NA,NA,NA,NA,NA,NA,NA,NA,NA,NA,NA,NA,NA,NA,NA,NA,NA
cd538,shallow,flow.Sequence,3_0_3_0_0_1,NA,NA,completion,8266.8990000002,2121820.8,2121787.389,2121820.721,2130087.62,2130094.6,2023-02-09T12:43:24Z,2130104.286,NULL,Können,unaweza,s,kiongozi,bustani,mienendo,NA,qt,NA,3,NA,NA,NA,NA,NA,NA,NA,NA,NA,NA,NA,NA,NA,NA,NA,NA,NA,NA,NA
cd538,task,flow.Sequence,3_0_3_0_0,NA,NA,completion,8266.8990000002,2121820.7,2121787.389,2121820.721,2130087.62,2130094.8,2023-02-09T12:43:24Z,2130104.286,NULL,Können,unaweza,s,kiongozi,bustani,mienendo,NA,qt,NA,3,NA,NA,NA,NA,NA,NA,NA,NA,NA,NA,NA,NA,NA,NA,NA,NA,NA,NA,NA
cd538,Deep Question,html.Page,3_0_3_0_1_0_0,NA,NA,form submission,7220.0140000009,2130094.9,2130087.62,2130104.286,2137324.3,2137324.5,2023-02-09T12:43:31Z,2137337.757,NULL,Gefährdung,kuhatarisha,d,NA,NA,NA,kuhibitri,NA,NA,3,NA,NA,NA,NA,NA,NA,NA,NA,NA,NA,NA,NA,NA,NA,NA,NA,NA,NA,NA
cd538,"""Richtig""-Screen",canvas.Screen,3_0_3_0_1_0_1,NA,NA,skipped,NA,2137327,NA,NA,2137324.3,2137327.2,2023-02-09T12:43:31Z,2137337.757,NULL,Gefährdung,kuhatarisha,d,NA,NA,NA,NA,qt,NA,3,NA,NA,NA,NA,NA,NA,NA,NA,NA,NA,NA,NA,NA,NA,NA,NA,NA,NA,NA
cd538,"""Falsch""-Screen",canvas.Screen,3_0_3_0_1_0_2,NA,NA,timeout,4999.7999999998,2137327.7,2137321.091,2137337.757,2142320.891,2142322.8,2023-02-09T12:43:36Z,2142337.557,NULL,Gefährdung,kuhatarisha,d,NA,NA,NA,NA,qt,0,3,NA,NA,NA,NA,NA,NA,NA,NA,NA,NA,NA,NA,NA,NA,NA,NA,NA,NA,NA
cd538,deep,flow.Sequence,3_0_3_0_1_0,NA,NA,completion,12216.605,2130094.8,2130087.62,2130104.286,2142320.891,2142323.3,2023-02-09T12:43:36Z,2142337.557,NULL,Gefährdung,kuhatarisha,d,NA,NA,NA,NA,qt,NA,3,NA,NA,NA,NA,NA,NA,NA,NA,NA,NA,NA,NA,NA,NA,NA,NA,NA,NA,NA
cd538,shallow,flow.Sequence,3_0_3_0_1_1,NA,NA,skipped,NA,2142323.3,NA,NA,2142320.891,2142323.5,2023-02-09T12:43:36Z,2142337.557,NULL,Gefährdung,kuhatarisha,d,NA,NA,NA,NA,qt,NA,3,NA,NA,NA,NA,NA,NA,NA,NA,NA,NA,NA,NA,NA,NA,NA,NA,NA,NA,NA
cd538,task,flow.Sequence,3_0_3_0_1,NA,NA,completion,12216.605,2130094.8,2130087.62,2130104.286,2142320.891,2142323.7,2023-02-09T12:43:36Z,2142337.557,NULL,Gefährdung,kuhatarisha,d,NA,NA,NA,NA,qt,NA,3,NA,NA,NA,NA,NA,NA,NA,NA,NA,NA,NA,NA,NA,NA,NA,NA,NA,NA,NA
cd538,deep,flow.Sequence,3_0_3_0_2_0,NA,NA,skipped,NA,2142323.9,NA,NA,2142320.891,2142324,2023-02-09T12:43:36Z,2142337.557,NULL,Kreativität,ubunifu,s,mratibu,mwendelezo,makubaliano,NA,qt,NA,3,NA,NA,NA,NA,NA,NA,NA,NA,NA,NA,NA,NA,NA,NA,NA,NA,NA,NA,NA
cd538,Shallow Question,html.Page,3_0_3_0_2_1_0,NA,NA,form submission,4504.0429999996,2142324.1,2142320.891,2142337.557,2146841.6,2146842,2023-02-09T12:43:41Z,2146854.563,NULL,Kreativität,ubunifu,s,mratibu,mwendelezo,makubaliano,ubunifu,NA,NA,3,NA,NA,NA,NA,NA,NA,NA,NA,NA,NA,NA,NA,NA,NA,NA,NA,NA,NA,NA
cd538,"""Richtig""-Screen",canvas.Screen,3_0_3_0_2_1_1,NA,NA,timeout,4999.7999999998,2146844.7,2146837.897,2146854.563,2151837.697,2151840.4,2023-02-09T12:43:46Z,2151854.363,NULL,Kreativität,ubunifu,s,mratibu,mwendelezo,makubaliano,NA,qt,1,3,NA,NA,NA,NA,NA,NA,NA,NA,NA,NA,NA,NA,NA,NA,NA,NA,NA,NA,NA
cd538,"""Falsch""-Screen",canvas.Screen,3_0_3_0_2_1_2,NA,NA,skipped,NA,2151844.2,NA,NA,2151837.697,2151844.3,2023-02-09T12:43:46Z,2151854.363,NULL,Kreativität,ubunifu,s,mratibu,mwendelezo,makubaliano,NA,qt,NA,3,NA,NA,NA,NA,NA,NA,NA,NA,NA,NA,NA,NA,NA,NA,NA,NA,NA,NA,NA
cd538,shallow,flow.Sequence,3_0_3_0_2_1,NA,NA,completion,9500.1400000001,2142324.1,2142320.891,2142337.557,2151837.697,2151844.4,2023-02-09T12:43:46Z,2151854.363,NULL,Kreativität,ubunifu,s,mratibu,mwendelezo,makubaliano,NA,qt,NA,3,NA,NA,NA,NA,NA,NA,NA,NA,NA,NA,NA,NA,NA,NA,NA,NA,NA,NA,NA
cd538,task,flow.Sequence,3_0_3_0_2,NA,NA,completion,9500.1400000001,2142323.8,2142320.891,2142337.557,2151837.697,2151844.5,2023-02-09T12:43:46Z,2151854.363,NULL,Kreativität,ubunifu,s,mratibu,mwendelezo,makubaliano,NA,qt,NA,3,NA,NA,NA,NA,NA,NA,NA,NA,NA,NA,NA,NA,NA,NA,NA,NA,NA,NA,NA
cd538,Deep Question,html.Page,3_0_3_0_3_0_0,NA,NA,form submission,11937.836999998999,2151844.7,2151837.697,2151854.363,2163792.2,2163792.7,2023-02-09T12:43:58Z,2163805.027,NULL,Kontrolle,kudhibiti,d,NA,NA,NA,kudhatara,NA,NA,3,NA,NA,NA,NA,NA,NA,NA,NA,NA,NA,NA,NA,NA,NA,NA,NA,NA,NA,NA
cd538,"""Richtig""-Screen",canvas.Screen,3_0_3_0_3_0_1,NA,NA,skipped,NA,2163795.1,NA,NA,2163792.2,2163795.2,2023-02-09T12:43:58Z,2163805.027,NULL,Kontrolle,kudhibiti,d,NA,NA,NA,NA,qt,NA,3,NA,NA,NA,NA,NA,NA,NA,NA,NA,NA,NA,NA,NA,NA,NA,NA,NA,NA,NA
cd538,"""Falsch""-Screen",canvas.Screen,3_0_3_0_3_0_2,NA,NA,timeout,4999.8000000003,2163796.3,2163788.361,2163805.027,2168788.161,2168790.6,2023-02-09T12:44:03Z,2168804.827,NULL,Kontrolle,kudhibiti,d,NA,NA,NA,NA,qt,0,3,NA,NA,NA,NA,NA,NA,NA,NA,NA,NA,NA,NA,NA,NA,NA,NA,NA,NA,NA
cd538,deep,flow.Sequence,3_0_3_0_3_0,NA,NA,completion,16933.798,2151844.7,2151837.697,2151854.363,2168788.161,2168791.1,2023-02-09T12:44:03Z,2168804.827,NULL,Kontrolle,kudhibiti,d,NA,NA,NA,NA,qt,NA,3,NA,NA,NA,NA,NA,NA,NA,NA,NA,NA,NA,NA,NA,NA,NA,NA,NA,NA,NA
cd538,shallow,flow.Sequence,3_0_3_0_3_1,NA,NA,skipped,NA,2168791.2,NA,NA,2168788.161,2168791.4,2023-02-09T12:44:03Z,2168804.827,NULL,Kontrolle,kudhibiti,d,NA,NA,NA,NA,qt,NA,3,NA,NA,NA,NA,NA,NA,NA,NA,NA,NA,NA,NA,NA,NA,NA,NA,NA,NA,NA
cd538,task,flow.Sequence,3_0_3_0_3,NA,NA,completion,16933.798,2151844.6,2151837.697,2151854.363,2168788.161,2168791.6,2023-02-09T12:44:03Z,2168804.827,NULL,Kontrolle,kudhibiti,d,NA,NA,NA,NA,qt,NA,3,NA,NA,NA,NA,NA,NA,NA,NA,NA,NA,NA,NA,NA,NA,NA,NA,NA,NA,NA
cd538,deep,flow.Sequence,3_0_3_0_4_0,NA,NA,skipped,NA,2168791.7,NA,NA,2168788.161,2168791.8,2023-02-09T12:44:03Z,2168804.827,NULL,Orientierung,urekebisho,s,uelekeo,marekebisho,utunzaji,NA,qt,NA,3,NA,NA,NA,NA,NA,NA,NA,NA,NA,NA,NA,NA,NA,NA,NA,NA,NA,NA,NA
cd538,Shallow Question,html.Page,3_0_3_0_4_1_0,NA,NA,form submission,4854.0730000003005,2168792,2168788.161,2168804.827,2173658.9,2173659.3,2023-02-09T12:44:08Z,2173671.804,NULL,Orientierung,urekebisho,s,uelekeo,marekebisho,utunzaji,urekebisho,NA,NA,3,NA,NA,NA,NA,NA,NA,NA,NA,NA,NA,NA,NA,NA,NA,NA,NA,NA,NA,NA
cd538,"""Richtig""-Screen",canvas.Screen,3_0_3_0_4_1_1,NA,NA,timeout,4999.7999999998,2173662.3,2173655.138,2173671.804,2178654.938,2178657.2,2023-02-09T12:44:13Z,2178671.604,NULL,Orientierung,urekebisho,s,uelekeo,marekebisho,utunzaji,NA,qt,1,3,NA,NA,NA,NA,NA,NA,NA,NA,NA,NA,NA,NA,NA,NA,NA,NA,NA,NA,NA
cd538,"""Falsch""-Screen",canvas.Screen,3_0_3_0_4_1_2,NA,NA,skipped,NA,2178661.8,NA,NA,2178654.938,2178661.9,2023-02-09T12:44:13Z,2178671.604,NULL,Orientierung,urekebisho,s,uelekeo,marekebisho,utunzaji,NA,qt,NA,3,NA,NA,NA,NA,NA,NA,NA,NA,NA,NA,NA,NA,NA,NA,NA,NA,NA,NA,NA
cd538,shallow,flow.Sequence,3_0_3_0_4_1,NA,NA,completion,9850.111,2168791.9,2168788.161,2168804.827,2178654.938,2178662.1,2023-02-09T12:44:13Z,2178671.604,NULL,Orientierung,urekebisho,s,uelekeo,marekebisho,utunzaji,NA,qt,NA,3,NA,NA,NA,NA,NA,NA,NA,NA,NA,NA,NA,NA,NA,NA,NA,NA,NA,NA,NA
cd538,task,flow.Sequence,3_0_3_0_4,NA,NA,completion,9850.111,2168791.6,2168788.161,2168804.827,2178654.938,2178662.1,2023-02-09T12:44:13Z,2178671.604,NULL,Orientierung,urekebisho,s,uelekeo,marekebisho,utunzaji,NA,qt,NA,3,NA,NA,NA,NA,NA,NA,NA,NA,NA,NA,NA,NA,NA,NA,NA,NA,NA,NA,NA
cd538,deep,flow.Sequence,3_0_3_0_5_0,NA,NA,skipped,NA,2178662.3,NA,NA,2178654.938,2178662.3,2023-02-09T12:44:13Z,2178671.604,NULL,Respekt,heshima,s,changamnao,upinzani,ufanisi,NA,qt,NA,3,NA,NA,NA,NA,NA,NA,NA,NA,NA,NA,NA,NA,NA,NA,NA,NA,NA,NA,NA
cd538,Shallow Question,html.Page,3_0_3_0_5_1_0,NA,NA,form submission,3671.9959999998,2178662.3,2178654.938,2178671.604,2182343.6,2182344,2023-02-09T12:44:16Z,2182354.79,NULL,Respekt,heshima,s,changamnao,upinzani,ufanisi,heshima,NA,NA,3,NA,NA,NA,NA,NA,NA,NA,NA,NA,NA,NA,NA,NA,NA,NA,NA,NA,NA,NA
cd538,"""Richtig""-Screen",canvas.Screen,3_0_3_0_5_1_1,NA,NA,timeout,4999.7999999998,2182346.9,2182338.124,2182354.79,2187337.924,2187339.9,2023-02-09T12:44:21Z,2187354.59,NULL,Respekt,heshima,s,changamnao,upinzani,ufanisi,NA,qt,1,3,NA,NA,NA,NA,NA,NA,NA,NA,NA,NA,NA,NA,NA,NA,NA,NA,NA,NA,NA
cd538,"""Falsch""-Screen",canvas.Screen,3_0_3_0_5_1_2,NA,NA,skipped,NA,2187344.4,NA,NA,2187337.924,2187344.5,2023-02-09T12:44:21Z,2187354.59,NULL,Respekt,heshima,s,changamnao,upinzani,ufanisi,NA,qt,NA,3,NA,NA,NA,NA,NA,NA,NA,NA,NA,NA,NA,NA,NA,NA,NA,NA,NA,NA,NA
cd538,shallow,flow.Sequence,3_0_3_0_5_1,NA,NA,completion,8666.3200000003,2178662.3,2178654.938,2178671.604,2187337.924,2187344.6,2023-02-09T12:44:21Z,2187354.59,NULL,Respekt,heshima,s,changamnao,upinzani,ufanisi,NA,qt,NA,3,NA,NA,NA,NA,NA,NA,NA,NA,NA,NA,NA,NA,NA,NA,NA,NA,NA,NA,NA
cd538,task,flow.Sequence,3_0_3_0_5,NA,NA,completion,8666.3200000003,2178662.2,2178654.938,2178671.604,2187337.924,2187344.8,2023-02-09T12:44:21Z,2187354.59,NULL,Respekt,heshima,s,changamnao,upinzani,ufanisi,NA,qt,NA,3,NA,NA,NA,NA,NA,NA,NA,NA,NA,NA,NA,NA,NA,NA,NA,NA,NA,NA,NA
cd538,Deep Question,html.Page,3_0_3_0_6_0_0,NA,NA,form submission,9029.8100000005,2187344.9,2187337.924,2187354.59,2196384.4,2196385,2023-02-09T12:44:30Z,2196388.35,NULL,Betrüger,mdanganyifu,d,NA,NA,NA,mdanganiyfi,NA,NA,3,NA,NA,NA,NA,NA,NA,NA,NA,NA,NA,NA,NA,NA,NA,NA,NA,NA,NA,NA
cd538,"""Richtig""-Screen",canvas.Screen,3_0_3_0_6_0_1,NA,NA,skipped,NA,2196387.5,NA,NA,2196384.4,2196387.6,2023-02-09T12:44:30Z,2196388.35,NULL,Betrüger,mdanganyifu,d,NA,NA,NA,NA,qt,NA,3,NA,NA,NA,NA,NA,NA,NA,NA,NA,NA,NA,NA,NA,NA,NA,NA,NA,NA,NA
cd538,"""Falsch""-Screen",canvas.Screen,3_0_3_0_6_0_2,NA,NA,timeout,4999.7999999998,2196388.2,2196371.684,2196388.35,2201371.484,2201373.2,2023-02-09T12:44:35Z,2201388.15,NULL,Betrüger,mdanganyifu,d,NA,NA,NA,NA,qt,0,3,NA,NA,NA,NA,NA,NA,NA,NA,NA,NA,NA,NA,NA,NA,NA,NA,NA,NA,NA
cd538,deep,flow.Sequence,3_0_3_0_6_0,NA,NA,completion,14016.894,2187344.9,2187337.924,2187354.59,2201371.484,2201373.8,2023-02-09T12:44:35Z,2201388.15,NULL,Betrüger,mdanganyifu,d,NA,NA,NA,NA,qt,NA,3,NA,NA,NA,NA,NA,NA,NA,NA,NA,NA,NA,NA,NA,NA,NA,NA,NA,NA,NA
cd538,shallow,flow.Sequence,3_0_3_0_6_1,NA,NA,skipped,NA,2201373.9,NA,NA,2201371.484,2201374.1,2023-02-09T12:44:35Z,2201388.15,NULL,Betrüger,mdanganyifu,d,NA,NA,NA,NA,qt,NA,3,NA,NA,NA,NA,NA,NA,NA,NA,NA,NA,NA,NA,NA,NA,NA,NA,NA,NA,NA
cd538,task,flow.Sequence,3_0_3_0_6,NA,NA,completion,14016.894,2187344.8,2187337.924,2187354.59,2201371.484,2201374.3,2023-02-09T12:44:35Z,2201388.15,NULL,Betrüger,mdanganyifu,d,NA,NA,NA,NA,qt,NA,3,NA,NA,NA,NA,NA,NA,NA,NA,NA,NA,NA,NA,NA,NA,NA,NA,NA,NA,NA
cd538,Deep Question,html.Page,3_0_3_0_7_0_0,NA,NA,form submission,10854.049999999,2201374.5,2201371.484,2201388.15,2212242.2,2212242.5,2023-02-09T12:44:46Z,2212255.632,NULL,Stimmung,kinyongo,d,NA,NA,NA,kinyong,NA,NA,3,NA,NA,NA,NA,NA,NA,NA,NA,NA,NA,NA,NA,NA,NA,NA,NA,NA,NA,NA
cd538,"""Richtig""-Screen",canvas.Screen,3_0_3_0_7_0_1,NA,NA,skipped,NA,2212245.2,NA,NA,2212242.2,2212245.2,2023-02-09T12:44:46Z,2212255.632,NULL,Stimmung,kinyongo,d,NA,NA,NA,NA,qt,NA,3,NA,NA,NA,NA,NA,NA,NA,NA,NA,NA,NA,NA,NA,NA,NA,NA,NA,NA,NA
cd538,"""Falsch""-Screen",canvas.Screen,3_0_3_0_7_0_2,NA,NA,timeout,4999.7999999998,2212245.8,2212238.966,2212255.632,2217238.766,2217241.2,2023-02-09T12:44:51Z,2217255.432,NULL,Stimmung,kinyongo,d,NA,NA,NA,NA,qt,0,3,NA,NA,NA,NA,NA,NA,NA,NA,NA,NA,NA,NA,NA,NA,NA,NA,NA,NA,NA
cd538,deep,flow.Sequence,3_0_3_0_7_0,NA,NA,completion,15850.616,2201374.5,2201371.484,2201388.15,2217238.766,2217241.7,2023-02-09T12:44:51Z,2217255.432,NULL,Stimmung,kinyongo,d,NA,NA,NA,NA,qt,NA,3,NA,NA,NA,NA,NA,NA,NA,NA,NA,NA,NA,NA,NA,NA,NA,NA,NA,NA,NA
cd538,shallow,flow.Sequence,3_0_3_0_7_1,NA,NA,skipped,NA,2217241.9,NA,NA,2217238.766,2217242,2023-02-09T12:44:51Z,2217255.432,NULL,Stimmung,kinyongo,d,NA,NA,NA,NA,qt,NA,3,NA,NA,NA,NA,NA,NA,NA,NA,NA,NA,NA,NA,NA,NA,NA,NA,NA,NA,NA
cd538,task,flow.Sequence,3_0_3_0_7,NA,NA,completion,15850.616,2201374.4,2201371.484,2201388.15,2217238.766,2217242.2,2023-02-09T12:44:51Z,2217255.432,NULL,Stimmung,kinyongo,d,NA,NA,NA,NA,qt,NA,3,NA,NA,NA,NA,NA,NA,NA,NA,NA,NA,NA,NA,NA,NA,NA,NA,NA,NA,NA
cd538,block,flow.Loop,3_0_3_0,NA,NA,completion,95418.045,2121820.7,2121787.389,2121820.721,2217238.766,2217242.4,2023-02-09T12:44:51Z,2217255.432,NULL,NA,NA,NA,NA,NA,NA,NA,qt,NA,3,NA,NA,NA,NA,NA,NA,NA,NA,NA,NA,NA,NA,NA,NA,NA,NA,NA,NA,NA
cd538,weiter,canvas.Screen,3_0_3_1,sdf,keypress(Space),response,905.56799999997,2217242.5,2217238.766,2217255.432,2218161,2218166.9,2023-02-09T12:44:52Z,2218188.728,NULL,NA,NA,NA,NA,NA,NA,NA,qt,NA,3,NA,NA,NA,NA,NA,NA,NA,NA,NA,NA,NA,NA,NA,NA,NA,NA,NA,NA,NA
cd538,check continue,flow.Sequence,3_0_3,NA,NA,completion,96340.279,2121820.6,2121787.389,2121820.721,2218161,2218167.3,2023-02-09T12:44:52Z,2218188.728,NULL,NA,NA,NA,NA,NA,NA,NA,qt,NA,3,NA,NA,NA,NA,NA,NA,NA,NA,NA,NA,NA,NA,NA,NA,NA,NA,NA,NA,NA
cd538,Deep Question,html.Page,3_0_4_0_0_0_0,NA,NA,form submission,10820.372,2218193.9,2218155.396,2218188.728,2229009.1,2229009.4,2023-02-09T12:45:03Z,2229022.199,NULL,Kontrolle,kudhibiti,d,NA,NA,NA,kudhibiti,NA,NA,4,NA,NA,NA,NA,NA,NA,NA,NA,NA,NA,NA,NA,NA,NA,NA,NA,NA,NA,NA
cd538,"""Richtig""-Screen",canvas.Screen,3_0_4_0_0_0_1,NA,NA,timeout,4999.7999999998,2229012.1,2229005.533,2229022.199,2234005.333,2234007.4,2023-02-09T12:45:08Z,2234021.999,NULL,Kontrolle,kudhibiti,d,NA,NA,NA,NA,sd,1,4,NA,NA,NA,NA,NA,NA,NA,NA,NA,NA,NA,NA,NA,NA,NA,NA,NA,NA,NA
cd538,"""Falsch""-Screen",canvas.Screen,3_0_4_0_0_0_2,NA,NA,skipped,NA,2234012,NA,NA,2234005.333,2234012.1,2023-02-09T12:45:08Z,2234021.999,NULL,Kontrolle,kudhibiti,d,NA,NA,NA,NA,sd,NA,4,NA,NA,NA,NA,NA,NA,NA,NA,NA,NA,NA,NA,NA,NA,NA,NA,NA,NA,NA
cd538,deep,flow.Sequence,3_0_4_0_0_0,NA,NA,completion,15816.605,2218193.9,2218155.396,2218188.728,2234005.333,2234012.3,2023-02-09T12:45:08Z,2234021.999,NULL,Kontrolle,kudhibiti,d,NA,NA,NA,NA,sd,NA,4,NA,NA,NA,NA,NA,NA,NA,NA,NA,NA,NA,NA,NA,NA,NA,NA,NA,NA,NA
cd538,shallow,flow.Sequence,3_0_4_0_0_1,NA,NA,skipped,NA,2234012.3,NA,NA,2234005.333,2234012.4,2023-02-09T12:45:08Z,2234021.999,NULL,Kontrolle,kudhibiti,d,NA,NA,NA,NA,sd,NA,4,NA,NA,NA,NA,NA,NA,NA,NA,NA,NA,NA,NA,NA,NA,NA,NA,NA,NA,NA
cd538,task,flow.Sequence,3_0_4_0_0,NA,NA,completion,15816.605,2218193.9,2218155.396,2218188.728,2234005.333,2234012.5,2023-02-09T12:45:08Z,2234021.999,NULL,Kontrolle,kudhibiti,d,NA,NA,NA,NA,sd,NA,4,NA,NA,NA,NA,NA,NA,NA,NA,NA,NA,NA,NA,NA,NA,NA,NA,NA,NA,NA
cd538,deep,flow.Sequence,3_0_4_0_1_0,NA,NA,skipped,NA,2234012.6,NA,NA,2234005.333,2234012.7,2023-02-09T12:45:08Z,2234021.999,NULL,Orientierung,urekebisho,s,uelekeo,marekebisho,utunzaji,NA,sd,NA,4,NA,NA,NA,NA,NA,NA,NA,NA,NA,NA,NA,NA,NA,NA,NA,NA,NA,NA,NA
cd538,Shallow Question,html.Page,3_0_4_0_1_1_0,NA,NA,form submission,3504.9010000005,2234012.8,2234005.333,2234021.999,2237526.9,2237527.5,2023-02-09T12:45:12Z,2237539.143,NULL,Orientierung,urekebisho,s,uelekeo,marekebisho,utunzaji,urekebisho,NA,NA,4,NA,NA,NA,NA,NA,NA,NA,NA,NA,NA,NA,NA,NA,NA,NA,NA,NA,NA,NA
cd538,"""Richtig""-Screen",canvas.Screen,3_0_4_0_1_1_1,NA,NA,timeout,4999.7999999998,2237530,2237522.477,2237539.143,2242522.277,2242523.9,2023-02-09T12:45:17Z,2242538.943,NULL,Orientierung,urekebisho,s,uelekeo,marekebisho,utunzaji,NA,sd,1,4,NA,NA,NA,NA,NA,NA,NA,NA,NA,NA,NA,NA,NA,NA,NA,NA,NA,NA,NA
cd538,"""Falsch""-Screen",canvas.Screen,3_0_4_0_1_1_2,NA,NA,skipped,NA,2242526.8,NA,NA,2242522.277,2242526.9,2023-02-09T12:45:17Z,2242538.943,NULL,Orientierung,urekebisho,s,uelekeo,marekebisho,utunzaji,NA,sd,NA,4,NA,NA,NA,NA,NA,NA,NA,NA,NA,NA,NA,NA,NA,NA,NA,NA,NA,NA,NA
cd538,shallow,flow.Sequence,3_0_4_0_1_1,NA,NA,completion,8500.2779999999,2234012.7,2234005.333,2234021.999,2242522.277,2242527,2023-02-09T12:45:17Z,2242538.943,NULL,Orientierung,urekebisho,s,uelekeo,marekebisho,utunzaji,NA,sd,NA,4,NA,NA,NA,NA,NA,NA,NA,NA,NA,NA,NA,NA,NA,NA,NA,NA,NA,NA,NA
cd538,task,flow.Sequence,3_0_4_0_1,NA,NA,completion,8500.2779999999,2234012.6,2234005.333,2234021.999,2242522.277,2242527.1,2023-02-09T12:45:17Z,2242538.943,NULL,Orientierung,urekebisho,s,uelekeo,marekebisho,utunzaji,NA,sd,NA,4,NA,NA,NA,NA,NA,NA,NA,NA,NA,NA,NA,NA,NA,NA,NA,NA,NA,NA,NA
cd538,Deep Question,html.Page,3_0_4_0_2_0_0,NA,NA,form submission,9988.057,2242527.3,2242522.277,2242538.943,2252527,2252527.5,2023-02-09T12:45:27Z,2252538.998,NULL,Betrüger,mdanganyifu,d,NA,NA,NA,mdanganyifu,NA,NA,4,NA,NA,NA,NA,NA,NA,NA,NA,NA,NA,NA,NA,NA,NA,NA,NA,NA,NA,NA
cd538,"""Richtig""-Screen",canvas.Screen,3_0_4_0_2_0_1,NA,NA,timeout,4999.7999999998,2252530.9,2252522.332,2252538.998,2257522.132,2257524.5,2023-02-09T12:45:32Z,2257538.798,NULL,Betrüger,mdanganyifu,d,NA,NA,NA,NA,sd,1,4,NA,NA,NA,NA,NA,NA,NA,NA,NA,NA,NA,NA,NA,NA,NA,NA,NA,NA,NA
cd538,"""Falsch""-Screen",canvas.Screen,3_0_4_0_2_0_2,NA,NA,skipped,NA,2257528.2,NA,NA,2257522.132,2257528.2,2023-02-09T12:45:32Z,2257538.798,NULL,Betrüger,mdanganyifu,d,NA,NA,NA,NA,sd,NA,4,NA,NA,NA,NA,NA,NA,NA,NA,NA,NA,NA,NA,NA,NA,NA,NA,NA,NA,NA
cd538,deep,flow.Sequence,3_0_4_0_2_0,NA,NA,completion,14983.189,2242527.2,2242522.277,2242538.943,2257522.132,2257528.4,2023-02-09T12:45:32Z,2257538.798,NULL,Betrüger,mdanganyifu,d,NA,NA,NA,NA,sd,NA,4,NA,NA,NA,NA,NA,NA,NA,NA,NA,NA,NA,NA,NA,NA,NA,NA,NA,NA,NA
cd538,shallow,flow.Sequence,3_0_4_0_2_1,NA,NA,skipped,NA,2257528.5,NA,NA,2257522.132,2257528.5,2023-02-09T12:45:32Z,2257538.798,NULL,Betrüger,mdanganyifu,d,NA,NA,NA,NA,sd,NA,4,NA,NA,NA,NA,NA,NA,NA,NA,NA,NA,NA,NA,NA,NA,NA,NA,NA,NA,NA
cd538,task,flow.Sequence,3_0_4_0_2,NA,NA,completion,14983.189,2242527.2,2242522.277,2242538.943,2257522.132,2257528.6,2023-02-09T12:45:32Z,2257538.798,NULL,Betrüger,mdanganyifu,d,NA,NA,NA,NA,sd,NA,4,NA,NA,NA,NA,NA,NA,NA,NA,NA,NA,NA,NA,NA,NA,NA,NA,NA,NA,NA
cd538,Deep Question,html.Page,3_0_4_0_3_0_0,NA,NA,form submission,13003.901999999,2257528.8,2257522.132,2257538.798,2270542.7,2270543,2023-02-09T12:45:45Z,2270555.719,NULL,Gefährdung,kuhatarisha,d,NA,NA,NA,kuhadarta,NA,NA,4,NA,NA,NA,NA,NA,NA,NA,NA,NA,NA,NA,NA,NA,NA,NA,NA,NA,NA,NA
cd538,"""Richtig""-Screen",canvas.Screen,3_0_4_0_3_0_1,NA,NA,skipped,NA,2270545.7,NA,NA,2270542.7,2270545.8,2023-02-09T12:45:45Z,2270555.719,NULL,Gefährdung,kuhatarisha,d,NA,NA,NA,NA,sd,NA,4,NA,NA,NA,NA,NA,NA,NA,NA,NA,NA,NA,NA,NA,NA,NA,NA,NA,NA,NA
cd538,"""Falsch""-Screen",canvas.Screen,3_0_4_0_3_0_2,NA,NA,timeout,4999.7999999998,2270546.4,2270539.053,2270555.719,2275538.853,2275540.9,2023-02-09T12:45:50Z,2275555.519,NULL,Gefährdung,kuhatarisha,d,NA,NA,NA,NA,sd,0,4,NA,NA,NA,NA,NA,NA,NA,NA,NA,NA,NA,NA,NA,NA,NA,NA,NA,NA,NA
cd538,deep,flow.Sequence,3_0_4_0_3_0,NA,NA,completion,18000.055,2257528.8,2257522.132,2257538.798,2275538.853,2275541.3,2023-02-09T12:45:50Z,2275555.519,NULL,Gefährdung,kuhatarisha,d,NA,NA,NA,NA,sd,NA,4,NA,NA,NA,NA,NA,NA,NA,NA,NA,NA,NA,NA,NA,NA,NA,NA,NA,NA,NA
cd538,shallow,flow.Sequence,3_0_4_0_3_1,NA,NA,skipped,NA,2275541.4,NA,NA,2275538.853,2275541.5,2023-02-09T12:45:50Z,2275555.519,NULL,Gefährdung,kuhatarisha,d,NA,NA,NA,NA,sd,NA,4,NA,NA,NA,NA,NA,NA,NA,NA,NA,NA,NA,NA,NA,NA,NA,NA,NA,NA,NA
cd538,task,flow.Sequence,3_0_4_0_3,NA,NA,completion,18000.055,2257528.8,2257522.132,2257538.798,2275538.853,2275541.8,2023-02-09T12:45:50Z,2275555.519,NULL,Gefährdung,kuhatarisha,d,NA,NA,NA,NA,sd,NA,4,NA,NA,NA,NA,NA,NA,NA,NA,NA,NA,NA,NA,NA,NA,NA,NA,NA,NA,NA
cd538,Deep Question,html.Page,3_0_4_0_4_0_0,NA,NA,form submission,5053.3810000005,2275542,2275538.853,2275555.519,2280608.9,2280609.2,2023-02-09T12:45:55Z,2280623.051,NULL,Stimmung,kinyongo,d,NA,NA,NA,kinyongo,NA,NA,4,NA,NA,NA,NA,NA,NA,NA,NA,NA,NA,NA,NA,NA,NA,NA,NA,NA,NA,NA
cd538,"""Richtig""-Screen",canvas.Screen,3_0_4_0_4_0_1,NA,NA,timeout,4999.7999999998,2280612,2280606.385,2280623.051,2285606.185,2285608.1,2023-02-09T12:46:00Z,2285622.851,NULL,Stimmung,kinyongo,d,NA,NA,NA,NA,sd,1,4,NA,NA,NA,NA,NA,NA,NA,NA,NA,NA,NA,NA,NA,NA,NA,NA,NA,NA,NA
cd538,"""Falsch""-Screen",canvas.Screen,3_0_4_0_4_0_2,NA,NA,skipped,NA,2285612.7,NA,NA,2285606.185,2285613,2023-02-09T12:46:00Z,2285622.851,NULL,Stimmung,kinyongo,d,NA,NA,NA,NA,sd,NA,4,NA,NA,NA,NA,NA,NA,NA,NA,NA,NA,NA,NA,NA,NA,NA,NA,NA,NA,NA
cd538,deep,flow.Sequence,3_0_4_0_4_0,NA,NA,completion,10050.666,2275541.9,2275538.853,2275555.519,2285606.185,2285613.2,2023-02-09T12:46:00Z,2285622.851,NULL,Stimmung,kinyongo,d,NA,NA,NA,NA,sd,NA,4,NA,NA,NA,NA,NA,NA,NA,NA,NA,NA,NA,NA,NA,NA,NA,NA,NA,NA,NA
cd538,shallow,flow.Sequence,3_0_4_0_4_1,NA,NA,skipped,NA,2285613.2,NA,NA,2285606.185,2285613.3,2023-02-09T12:46:00Z,2285622.851,NULL,Stimmung,kinyongo,d,NA,NA,NA,NA,sd,NA,4,NA,NA,NA,NA,NA,NA,NA,NA,NA,NA,NA,NA,NA,NA,NA,NA,NA,NA,NA
cd538,task,flow.Sequence,3_0_4_0_4,NA,NA,completion,10050.666,2275541.9,2275538.853,2275555.519,2285606.185,2285613.3,2023-02-09T12:46:00Z,2285622.851,NULL,Stimmung,kinyongo,d,NA,NA,NA,NA,sd,NA,4,NA,NA,NA,NA,NA,NA,NA,NA,NA,NA,NA,NA,NA,NA,NA,NA,NA,NA,NA
cd538,deep,flow.Sequence,3_0_4_0_5_0,NA,NA,skipped,NA,2285613.4,NA,NA,2285606.185,2285613.5,2023-02-09T12:46:00Z,2285622.851,NULL,Respekt,heshima,s,changamnao,upinzani,ufanisi,NA,sd,NA,4,NA,NA,NA,NA,NA,NA,NA,NA,NA,NA,NA,NA,NA,NA,NA,NA,NA,NA,NA
cd538,Shallow Question,html.Page,3_0_4_0_5_1_0,NA,NA,form submission,3054.2489999998,2285613.6,2285606.185,2285622.851,2288677.1,2288677.7,2023-02-09T12:46:03Z,2288689.889,NULL,Respekt,heshima,s,changamnao,upinzani,ufanisi,heshima,NA,NA,4,NA,NA,NA,NA,NA,NA,NA,NA,NA,NA,NA,NA,NA,NA,NA,NA,NA,NA,NA
cd538,"""Richtig""-Screen",canvas.Screen,3_0_4_0_5_1_1,NA,NA,timeout,4999.7999999998,2288680.5,2288673.223,2288689.889,2293673.023,2293674.9,2023-02-09T12:46:08Z,2293689.689,NULL,Respekt,heshima,s,changamnao,upinzani,ufanisi,NA,sd,1,4,NA,NA,NA,NA,NA,NA,NA,NA,NA,NA,NA,NA,NA,NA,NA,NA,NA,NA,NA
cd538,"""Falsch""-Screen",canvas.Screen,3_0_4_0_5_1_2,NA,NA,skipped,NA,2293679.5,NA,NA,2293673.023,2293679.6,2023-02-09T12:46:08Z,2293689.689,NULL,Respekt,heshima,s,changamnao,upinzani,ufanisi,NA,sd,NA,4,NA,NA,NA,NA,NA,NA,NA,NA,NA,NA,NA,NA,NA,NA,NA,NA,NA,NA,NA
cd538,shallow,flow.Sequence,3_0_4_0_5_1,NA,NA,completion,8050.1720000003,2285613.6,2285606.185,2285622.851,2293673.023,2293679.8,2023-02-09T12:46:08Z,2293689.689,NULL,Respekt,heshima,s,changamnao,upinzani,ufanisi,NA,sd,NA,4,NA,NA,NA,NA,NA,NA,NA,NA,NA,NA,NA,NA,NA,NA,NA,NA,NA,NA,NA
cd538,task,flow.Sequence,3_0_4_0_5,NA,NA,completion,8050.1720000003,2285613.4,2285606.185,2285622.851,2293673.023,2293679.8,2023-02-09T12:46:08Z,2293689.689,NULL,Respekt,heshima,s,changamnao,upinzani,ufanisi,NA,sd,NA,4,NA,NA,NA,NA,NA,NA,NA,NA,NA,NA,NA,NA,NA,NA,NA,NA,NA,NA,NA
cd538,deep,flow.Sequence,3_0_4_0_6_0,NA,NA,skipped,NA,2293680,NA,NA,2293673.023,2293680,2023-02-09T12:46:08Z,2293689.689,NULL,Können,unaweza,s,kiongozi,bustani,mienendo,NA,sd,NA,4,NA,NA,NA,NA,NA,NA,NA,NA,NA,NA,NA,NA,NA,NA,NA,NA,NA,NA,NA
cd538,Shallow Question,html.Page,3_0_4_0_6_1_0,NA,NA,form submission,2887.2110000006,2293680,2293673.023,2293689.689,2296576.9,2296577.4,2023-02-09T12:46:11Z,2296589.573,NULL,Können,unaweza,s,kiongozi,bustani,mienendo,unaweza,NA,NA,4,NA,NA,NA,NA,NA,NA,NA,NA,NA,NA,NA,NA,NA,NA,NA,NA,NA,NA,NA
cd538,"""Richtig""-Screen",canvas.Screen,3_0_4_0_6_1_1,NA,NA,timeout,4999.8000000003,2296578.8,2296572.907,2296589.573,2301572.707,2301575,2023-02-09T12:46:16Z,2301589.373,NULL,Können,unaweza,s,kiongozi,bustani,mienendo,NA,sd,1,4,NA,NA,NA,NA,NA,NA,NA,NA,NA,NA,NA,NA,NA,NA,NA,NA,NA,NA,NA
cd538,"""Falsch""-Screen",canvas.Screen,3_0_4_0_6_1_2,NA,NA,skipped,NA,2301579.4,NA,NA,2301572.707,2301579.7,2023-02-09T12:46:16Z,2301589.373,NULL,Können,unaweza,s,kiongozi,bustani,mienendo,NA,sd,NA,4,NA,NA,NA,NA,NA,NA,NA,NA,NA,NA,NA,NA,NA,NA,NA,NA,NA,NA,NA
cd538,shallow,flow.Sequence,3_0_4_0_6_1,NA,NA,completion,7883.0180000002,2293680,2293673.023,2293689.689,2301572.707,2301579.8,2023-02-09T12:46:16Z,2301589.373,NULL,Können,unaweza,s,kiongozi,bustani,mienendo,NA,sd,NA,4,NA,NA,NA,NA,NA,NA,NA,NA,NA,NA,NA,NA,NA,NA,NA,NA,NA,NA,NA
cd538,task,flow.Sequence,3_0_4_0_6,NA,NA,completion,7883.0180000002,2293680,2293673.023,2293689.689,2301572.707,2301579.9,2023-02-09T12:46:16Z,2301589.373,NULL,Können,unaweza,s,kiongozi,bustani,mienendo,NA,sd,NA,4,NA,NA,NA,NA,NA,NA,NA,NA,NA,NA,NA,NA,NA,NA,NA,NA,NA,NA,NA
cd538,deep,flow.Sequence,3_0_4_0_7_0,NA,NA,skipped,NA,2301580.1,NA,NA,2301572.707,2301580.1,2023-02-09T12:46:16Z,2301589.373,NULL,Kreativität,ubunifu,s,mratibu,mwendelezo,makubaliano,NA,sd,NA,4,NA,NA,NA,NA,NA,NA,NA,NA,NA,NA,NA,NA,NA,NA,NA,NA,NA,NA,NA
cd538,Shallow Question,html.Page,3_0_4_0_7_1_0,NA,NA,form submission,2538.9270000006,2301580.2,2301572.707,2301589.373,2304128.3,2304128.8,2023-02-09T12:46:18Z,2304139.926,NULL,Kreativität,ubunifu,s,mratibu,mwendelezo,makubaliano,ubunifu,NA,NA,4,NA,NA,NA,NA,NA,NA,NA,NA,NA,NA,NA,NA,NA,NA,NA,NA,NA,NA,NA
cd538,"""Richtig""-Screen",canvas.Screen,3_0_4_0_7_1_1,NA,NA,timeout,4999.7999999998,2304129.9,2304123.26,2304139.926,2309123.06,2309125.1,2023-02-09T12:46:23Z,2309139.726,NULL,Kreativität,ubunifu,s,mratibu,mwendelezo,makubaliano,NA,sd,1,4,NA,NA,NA,NA,NA,NA,NA,NA,NA,NA,NA,NA,NA,NA,NA,NA,NA,NA,NA
cd538,"""Falsch""-Screen",canvas.Screen,3_0_4_0_7_1_2,NA,NA,skipped,NA,2309128.9,NA,NA,2309123.06,2309129.1,2023-02-09T12:46:23Z,2309139.726,NULL,Kreativität,ubunifu,s,mratibu,mwendelezo,makubaliano,NA,sd,NA,4,NA,NA,NA,NA,NA,NA,NA,NA,NA,NA,NA,NA,NA,NA,NA,NA,NA,NA,NA
cd538,shallow,flow.Sequence,3_0_4_0_7_1,NA,NA,completion,7533.6869999999,2301580.2,2301572.707,2301589.373,2309123.06,2309129.2,2023-02-09T12:46:23Z,2309139.726,NULL,Kreativität,ubunifu,s,mratibu,mwendelezo,makubaliano,NA,sd,NA,4,NA,NA,NA,NA,NA,NA,NA,NA,NA,NA,NA,NA,NA,NA,NA,NA,NA,NA,NA
cd538,task,flow.Sequence,3_0_4_0_7,NA,NA,completion,7533.6869999999,2301580.1,2301572.707,2301589.373,2309123.06,2309129.3,2023-02-09T12:46:23Z,2309139.726,NULL,Kreativität,ubunifu,s,mratibu,mwendelezo,makubaliano,NA,sd,NA,4,NA,NA,NA,NA,NA,NA,NA,NA,NA,NA,NA,NA,NA,NA,NA,NA,NA,NA,NA
cd538,block,flow.Loop,3_0_4_0,NA,NA,completion,90934.332,2218193.9,2218155.396,2218188.728,2309123.06,2309129.5,2023-02-09T12:46:23Z,2309139.726,NULL,NA,NA,NA,NA,NA,NA,NA,sd,NA,4,NA,NA,NA,NA,NA,NA,NA,NA,NA,NA,NA,NA,NA,NA,NA,NA,NA,NA,NA
cd538,weiter,canvas.Screen,3_0_4_1,sdf,keypress(Space),response,826.67400000058,2309129.5,2309123.06,2309139.726,2309966.4,2309970.4,2023-02-09T12:46:24Z,2310173.018,NULL,NA,NA,NA,NA,NA,NA,NA,sd,NA,4,NA,NA,NA,NA,NA,NA,NA,NA,NA,NA,NA,NA,NA,NA,NA,NA,NA,NA,NA
cd538,check continue,flow.Sequence,3_0_4,NA,NA,completion,91777.672,2218193.9,2218155.396,2218188.728,2309966.4,2309970.8,2023-02-09T12:46:24Z,2310173.018,NULL,NA,NA,NA,NA,NA,NA,NA,sd,NA,4,NA,NA,NA,NA,NA,NA,NA,NA,NA,NA,NA,NA,NA,NA,NA,NA,NA,NA,NA
cd538,check continue,flow.Sequence,3_0_5,NA,NA,skipped,NA,2309999.4,NA,NA,2309966.4,2309999.5,2023-02-09T12:46:24Z,2310173.018,NULL,NA,NA,NA,NA,NA,NA,NA,sdf,NA,5,NA,NA,NA,NA,NA,NA,NA,NA,NA,NA,NA,NA,NA,NA,NA,NA,NA,NA,NA
cd538,check continue,flow.Sequence,3_0_6,NA,NA,skipped,NA,2310013.9,NA,NA,2309966.4,2310014,2023-02-09T12:46:24Z,2310173.018,NULL,NA,NA,NA,NA,NA,NA,NA,dfs,NA,6,NA,NA,NA,NA,NA,NA,NA,NA,NA,NA,NA,NA,NA,NA,NA,NA,NA,NA,NA
cd538,check continue,flow.Sequence,3_0_7,NA,NA,skipped,NA,2310025.5,NA,NA,2309966.4,2310025.5,2023-02-09T12:46:24Z,2310173.018,NULL,NA,NA,NA,NA,NA,NA,NA,df,NA,7,NA,NA,NA,NA,NA,NA,NA,NA,NA,NA,NA,NA,NA,NA,NA,NA,NA,NA,NA
cd538,check continue,flow.Sequence,3_0_8,NA,NA,skipped,NA,2310035.5,NA,NA,2309966.4,2310035.5,2023-02-09T12:46:24Z,2310173.018,NULL,NA,NA,NA,NA,NA,NA,NA,dfs,NA,8,NA,NA,NA,NA,NA,NA,NA,NA,NA,NA,NA,NA,NA,NA,NA,NA,NA,NA,NA
cd538,check continue,flow.Sequence,3_0_9,NA,NA,skipped,NA,2310044.3,NA,NA,2309966.4,2310044.3,2023-02-09T12:46:24Z,2310173.018,NULL,NA,NA,NA,NA,NA,NA,NA,dsf,NA,9,NA,NA,NA,NA,NA,NA,NA,NA,NA,NA,NA,NA,NA,NA,NA,NA,NA,NA,NA
cd538,check continue,flow.Sequence,3_0_10,NA,NA,skipped,NA,2310052.8,NA,NA,2309966.4,2310052.8,2023-02-09T12:46:24Z,2310173.018,NULL,NA,NA,NA,NA,NA,NA,NA,df,NA,10,NA,NA,NA,NA,NA,NA,NA,NA,NA,NA,NA,NA,NA,NA,NA,NA,NA,NA,NA
cd538,check continue,flow.Sequence,3_0_11,NA,NA,skipped,NA,2310060.2,NA,NA,2309966.4,2310060.3,2023-02-09T12:46:24Z,2310173.018,NULL,NA,NA,NA,NA,NA,NA,NA,dfs,NA,11,NA,NA,NA,NA,NA,NA,NA,NA,NA,NA,NA,NA,NA,NA,NA,NA,NA,NA,NA
cd538,check continue,flow.Sequence,3_0_12,NA,NA,skipped,NA,2310067.8,NA,NA,2309966.4,2310067.8,2023-02-09T12:46:24Z,2310173.018,NULL,NA,NA,NA,NA,NA,NA,NA,dsf,NA,12,NA,NA,NA,NA,NA,NA,NA,NA,NA,NA,NA,NA,NA,NA,NA,NA,NA,NA,NA
cd538,check continue,flow.Sequence,3_0_13,NA,NA,skipped,NA,2310075.1,NA,NA,2309966.4,2310075.1,2023-02-09T12:46:24Z,2310173.018,NULL,NA,NA,NA,NA,NA,NA,NA,dsf,NA,13,NA,NA,NA,NA,NA,NA,NA,NA,NA,NA,NA,NA,NA,NA,NA,NA,NA,NA,NA
cd538,check continue,flow.Sequence,3_0_14,NA,NA,skipped,NA,2310081.6,NA,NA,2309966.4,2310081.7,2023-02-09T12:46:24Z,2310173.018,NULL,NA,NA,NA,NA,NA,NA,NA,NA,NA,14,NA,NA,NA,NA,NA,NA,NA,NA,NA,NA,NA,NA,NA,NA,NA,NA,NA,NA,NA
cd538,check continue,flow.Sequence,3_0_15,NA,NA,skipped,NA,2310088.3,NA,NA,2309966.4,2310088.3,2023-02-09T12:46:24Z,2310173.018,NULL,NA,NA,NA,NA,NA,NA,NA,NA,NA,15,NA,NA,NA,NA,NA,NA,NA,NA,NA,NA,NA,NA,NA,NA,NA,NA,NA,NA,NA
cd538,check continue,flow.Sequence,3_0_16,NA,NA,skipped,NA,2310094.8,NA,NA,2309966.4,2310094.8,2023-02-09T12:46:24Z,2310173.018,NULL,NA,NA,NA,NA,NA,NA,NA,NA,NA,16,NA,NA,NA,NA,NA,NA,NA,NA,NA,NA,NA,NA,NA,NA,NA,NA,NA,NA,NA
cd538,check continue,flow.Sequence,3_0_17,NA,NA,skipped,NA,2310100.8,NA,NA,2309966.4,2310100.8,2023-02-09T12:46:24Z,2310173.018,NULL,NA,NA,NA,NA,NA,NA,NA,NA,NA,17,NA,NA,NA,NA,NA,NA,NA,NA,NA,NA,NA,NA,NA,NA,NA,NA,NA,NA,NA
cd538,check continue,flow.Sequence,3_0_18,NA,NA,skipped,NA,2310107.3,NA,NA,2309966.4,2310107.3,2023-02-09T12:46:24Z,2310173.018,NULL,NA,NA,NA,NA,NA,NA,NA,NA,NA,18,NA,NA,NA,NA,NA,NA,NA,NA,NA,NA,NA,NA,NA,NA,NA,NA,NA,NA,NA
cd538,check continue,flow.Sequence,3_0_19,NA,NA,skipped,NA,2310113.8,NA,NA,2309966.4,2310113.8,2023-02-09T12:46:24Z,2310173.018,NULL,NA,NA,NA,NA,NA,NA,NA,NA,NA,19,NA,NA,NA,NA,NA,NA,NA,NA,NA,NA,NA,NA,NA,NA,NA,NA,NA,NA,NA
cd538,check continue,flow.Sequence,3_0_20,NA,NA,skipped,NA,2310120.3,NA,NA,2309966.4,2310120.3,2023-02-09T12:46:24Z,2310173.018,NULL,NA,NA,NA,NA,NA,NA,NA,NA,NA,20,NA,NA,NA,NA,NA,NA,NA,NA,NA,NA,NA,NA,NA,NA,NA,NA,NA,NA,NA
cd538,check continue,flow.Sequence,3_0_21,NA,NA,skipped,NA,2310126.8,NA,NA,2309966.4,2310126.9,2023-02-09T12:46:24Z,2310173.018,NULL,NA,NA,NA,NA,NA,NA,NA,NA,NA,21,NA,NA,NA,NA,NA,NA,NA,NA,NA,NA,NA,NA,NA,NA,NA,NA,NA,NA,NA
cd538,check continue,flow.Sequence,3_0_22,NA,NA,skipped,NA,2310132.8,NA,NA,2309966.4,2310132.9,2023-02-09T12:46:24Z,2310173.018,NULL,NA,NA,NA,NA,NA,NA,NA,NA,NA,22,NA,NA,NA,NA,NA,NA,NA,NA,NA,NA,NA,NA,NA,NA,NA,NA,NA,NA,NA
cd538,check continue,flow.Sequence,3_0_23,NA,NA,skipped,NA,2310139.2,NA,NA,2309966.4,2310139.2,2023-02-09T12:46:24Z,2310173.018,NULL,NA,NA,NA,NA,NA,NA,NA,NA,NA,23,NA,NA,NA,NA,NA,NA,NA,NA,NA,NA,NA,NA,NA,NA,NA,NA,NA,NA,NA
cd538,check continue,flow.Sequence,3_0_24,NA,NA,skipped,NA,2310145.1,NA,NA,2309966.4,2310145.1,2023-02-09T12:46:24Z,2310173.018,NULL,NA,NA,NA,NA,NA,NA,NA,NA,NA,24,NA,NA,NA,NA,NA,NA,NA,NA,NA,NA,NA,NA,NA,NA,NA,NA,NA,NA,NA
cd538,check continue,flow.Sequence,3_0_25,NA,NA,skipped,NA,2310151.7,NA,NA,2309966.4,2310151.7,2023-02-09T12:46:24Z,2310173.018,NULL,NA,NA,NA,NA,NA,NA,NA,NA,NA,25,NA,NA,NA,NA,NA,NA,NA,NA,NA,NA,NA,NA,NA,NA,NA,NA,NA,NA,NA
cd538,check continue,flow.Sequence,3_0_26,NA,NA,skipped,NA,2310157.7,NA,NA,2309966.4,2310157.7,2023-02-09T12:46:24Z,2310173.018,NULL,NA,NA,NA,NA,NA,NA,NA,NA,NA,26,NA,NA,NA,NA,NA,NA,NA,NA,NA,NA,NA,NA,NA,NA,NA,NA,NA,NA,NA
cd538,check continue,flow.Sequence,3_0_27,NA,NA,skipped,NA,2310164.7,NA,NA,2309966.4,2310164.8,2023-02-09T12:46:24Z,2310173.018,NULL,NA,NA,NA,NA,NA,NA,NA,NA,NA,27,NA,NA,NA,NA,NA,NA,NA,NA,NA,NA,NA,NA,NA,NA,NA,NA,NA,NA,NA
cd538,check continue,flow.Sequence,3_0_28,NA,NA,skipped,NA,2310170.5,NA,NA,2309966.4,2310170.5,2023-02-09T12:46:24Z,2310173.018,NULL,NA,NA,NA,NA,NA,NA,NA,NA,NA,28,NA,NA,NA,NA,NA,NA,NA,NA,NA,NA,NA,NA,NA,NA,NA,NA,NA,NA,NA
cd538,check continue,flow.Sequence,3_0_29,NA,NA,skipped,NA,2310183.6,NA,NA,2309966.4,2310183.6,2023-02-09T12:46:24Z,2310173.018,NULL,NA,NA,NA,NA,NA,NA,NA,NA,NA,29,NA,NA,NA,NA,NA,NA,NA,NA,NA,NA,NA,NA,NA,NA,NA,NA,NA,NA,NA
cd538,until continue,flow.Loop,3_0,NA,NA,completion,420383.138,1889574.7,1889516.598,1889583.262,2309966.4,2310183.6,2023-02-09T12:46:24Z,2310173.018,NULL,NA,NA,NA,NA,NA,NA,NA,NA,NA,NA,NA,NA,NA,NA,NA,NA,NA,NA,NA,NA,NA,NA,NA,NA,NA,NA,NA,NA,NA
cd538,block 1,flow.Sequence,3,NA,NA,completion,420383.138,1889574.7,1889516.598,1889583.262,2309966.4,2310183.6,2023-02-09T12:46:24Z,2310173.018,NULL,NA,NA,NA,NA,NA,NA,NA,NA,NA,NA,NA,NA,NA,NA,NA,NA,NA,NA,NA,NA,NA,NA,NA,NA,NA,NA,NA,NA,NA
cd538,1.Part Over,canvas.Screen,4,NA,keypress(Space),response,1537.4819999998,2310183.7,2309956.36,2310173.018,2311710.5,2311713.7,2023-02-09T12:46:26Z,2311772.954,NULL,NA,NA,NA,NA,NA,NA,NA,NA,NA,NA,NA,NA,NA,NA,NA,NA,NA,NA,NA,NA,NA,NA,NA,NA,NA,NA,NA,NA,NA
cd538,deep,flow.Sequence,5_0_0_0_0_0,NA,NA,skipped,NA,2311762.8,NA,NA,2311710.5,2311762.8,2023-02-09T12:46:26Z,2311772.954,NULL,Niveau,kiwango,s,usimamizi,mwamali,mshairi,NA,sdf,NA,0,NA,NA,NA,NA,NA,NA,NA,NA,NA,NA,NA,NA,NA,NA,NA,NA,NA,NA,NA
cd538,Shallow Question,html.Page,5_0_0_0_0_1_0,NA,NA,form submission,4471.5460000001,2311762.9,2311756.288,2311772.954,2316244.5,2316245,2023-02-09T12:46:30Z,2316256.731,NULL,Niveau,kiwango,s,usimamizi,mwamali,mshairi,mshairi,NA,NA,0,NA,NA,NA,NA,NA,NA,NA,NA,NA,NA,NA,NA,NA,NA,NA,NA,NA,NA,NA
cd538,"""Richtig""-Screen",canvas.Screen,5_0_0_0_0_1_1,NA,NA,skipped,NA,2316247.7,NA,NA,2316244.5,2316247.7,2023-02-09T12:46:30Z,2316256.731,NULL,Niveau,kiwango,s,usimamizi,mwamali,mshairi,NA,sdf,NA,0,NA,NA,NA,NA,NA,NA,NA,NA,NA,NA,NA,NA,NA,NA,NA,NA,NA,NA,NA
cd538,"""Falsch""-Screen",canvas.Screen,5_0_0_0_0_1_2,NA,NA,timeout,4999.7999999998,2316248.4,2316240.065,2316256.731,2321239.865,2321241.8,2023-02-09T12:46:35Z,2321256.531,NULL,Niveau,kiwango,s,usimamizi,mwamali,mshairi,NA,sdf,0,0,NA,NA,NA,NA,NA,NA,NA,NA,NA,NA,NA,NA,NA,NA,NA,NA,NA,NA,NA
cd538,shallow,flow.Sequence,5_0_0_0_0_1,NA,NA,completion,9466.9110000003,2311762.9,2311756.288,2311772.954,2321239.865,2321242.3,2023-02-09T12:46:35Z,2321256.531,NULL,Niveau,kiwango,s,usimamizi,mwamali,mshairi,NA,sdf,NA,0,NA,NA,NA,NA,NA,NA,NA,NA,NA,NA,NA,NA,NA,NA,NA,NA,NA,NA,NA
cd538,task,flow.Sequence,5_0_0_0_0,NA,NA,completion,9466.9110000003,2311762.8,2311756.288,2311772.954,2321239.865,2321242.4,2023-02-09T12:46:35Z,2321256.531,NULL,Niveau,kiwango,s,usimamizi,mwamali,mshairi,NA,sdf,NA,0,NA,NA,NA,NA,NA,NA,NA,NA,NA,NA,NA,NA,NA,NA,NA,NA,NA,NA,NA
cd538,Deep Question,html.Page,5_0_0_0_1_0_0,NA,NA,form submission,3686.0689999997,2321242.7,2321239.865,2321256.531,2324942.6,2324942.8,2023-02-09T12:46:39Z,2324956.96,NULL,Entwicklung,maendeleo,d,NA,NA,NA,d,NA,NA,0,NA,NA,NA,NA,NA,NA,NA,NA,NA,NA,NA,NA,NA,NA,NA,NA,NA,NA,NA
cd538,"""Richtig""-Screen",canvas.Screen,5_0_0_0_1_0_1,NA,NA,skipped,NA,2324945.1,NA,NA,2324942.6,2324945.3,2023-02-09T12:46:39Z,2324956.96,NULL,Entwicklung,maendeleo,d,NA,NA,NA,NA,sdf,NA,0,NA,NA,NA,NA,NA,NA,NA,NA,NA,NA,NA,NA,NA,NA,NA,NA,NA,NA,NA
cd538,"""Falsch""-Screen",canvas.Screen,5_0_0_0_1_0_2,NA,NA,timeout,4999.7999999998,2324945.8,2324940.294,2324956.96,2329940.094,2329942.4,2023-02-09T12:46:44Z,2329956.76,NULL,Entwicklung,maendeleo,d,NA,NA,NA,NA,sdf,0,0,NA,NA,NA,NA,NA,NA,NA,NA,NA,NA,NA,NA,NA,NA,NA,NA,NA,NA,NA
cd538,deep,flow.Sequence,5_0_0_0_1_0,NA,NA,completion,8683.5630000001,2321242.6,2321239.865,2321256.531,2329940.094,2329943,2023-02-09T12:46:44Z,2329956.76,NULL,Entwicklung,maendeleo,d,NA,NA,NA,NA,sdf,NA,0,NA,NA,NA,NA,NA,NA,NA,NA,NA,NA,NA,NA,NA,NA,NA,NA,NA,NA,NA
cd538,shallow,flow.Sequence,5_0_0_0_1_1,NA,NA,skipped,NA,2329943.1,NA,NA,2329940.094,2329943.3,2023-02-09T12:46:44Z,2329956.76,NULL,Entwicklung,maendeleo,d,NA,NA,NA,NA,sdf,NA,0,NA,NA,NA,NA,NA,NA,NA,NA,NA,NA,NA,NA,NA,NA,NA,NA,NA,NA,NA
cd538,task,flow.Sequence,5_0_0_0_1,NA,NA,completion,8683.5630000001,2321242.5,2321239.865,2321256.531,2329940.094,2329943.4,2023-02-09T12:46:44Z,2329956.76,NULL,Entwicklung,maendeleo,d,NA,NA,NA,NA,sdf,NA,0,NA,NA,NA,NA,NA,NA,NA,NA,NA,NA,NA,NA,NA,NA,NA,NA,NA,NA,NA
cd538,deep,flow.Sequence,5_0_0_0_2_0,NA,NA,skipped,NA,2329943.5,NA,NA,2329940.094,2329943.7,2023-02-09T12:46:44Z,2329956.76,NULL,System,maongozi,s,chokochoko,nuksani,mitaani,NA,sdf,NA,0,NA,NA,NA,NA,NA,NA,NA,NA,NA,NA,NA,NA,NA,NA,NA,NA,NA,NA,NA
cd538,Shallow Question,html.Page,5_0_0_0_2_1_0,NA,NA,form submission,3387.540000001,2329943.8,2329940.094,2329956.76,2333344.3,2333344.8,2023-02-09T12:46:47Z,2333357.169,NULL,System,maongozi,s,chokochoko,nuksani,mitaani,chokochoko,NA,NA,0,NA,NA,NA,NA,NA,NA,NA,NA,NA,NA,NA,NA,NA,NA,NA,NA,NA,NA,NA
cd538,"""Richtig""-Screen",canvas.Screen,5_0_0_0_2_1_1,NA,NA,skipped,NA,2333348.6,NA,NA,2333344.3,2333348.8,2023-02-09T12:46:47Z,2333357.169,NULL,System,maongozi,s,chokochoko,nuksani,mitaani,NA,sdf,NA,0,NA,NA,NA,NA,NA,NA,NA,NA,NA,NA,NA,NA,NA,NA,NA,NA,NA,NA,NA
cd538,"""Falsch""-Screen",canvas.Screen,5_0_0_0_2_1_2,NA,NA,timeout,4999.7999999998,2333349.4,2333340.503,2333357.169,2338340.303,2338342.5,2023-02-09T12:46:52Z,2338356.969,NULL,System,maongozi,s,chokochoko,nuksani,mitaani,NA,sdf,0,0,NA,NA,NA,NA,NA,NA,NA,NA,NA,NA,NA,NA,NA,NA,NA,NA,NA,NA,NA
cd538,shallow,flow.Sequence,5_0_0_0_2_1,NA,NA,completion,8383.5430000001,2329943.8,2329940.094,2329956.76,2338340.303,2338343,2023-02-09T12:46:52Z,2338356.969,NULL,System,maongozi,s,chokochoko,nuksani,mitaani,NA,sdf,NA,0,NA,NA,NA,NA,NA,NA,NA,NA,NA,NA,NA,NA,NA,NA,NA,NA,NA,NA,NA
cd538,task,flow.Sequence,5_0_0_0_2,NA,NA,completion,8383.5430000001,2329943.5,2329940.094,2329956.76,2338340.303,2338343.2,2023-02-09T12:46:52Z,2338356.969,NULL,System,maongozi,s,chokochoko,nuksani,mitaani,NA,sdf,NA,0,NA,NA,NA,NA,NA,NA,NA,NA,NA,NA,NA,NA,NA,NA,NA,NA,NA,NA,NA
cd538,Deep Question,html.Page,5_0_0_0_3_0_0,NA,NA,form submission,7521.031,2338343.4,2338340.303,2338356.969,2345878,2345878.7,2023-02-09T12:47:00Z,2345890.534,NULL,Übersicht,kilindo,d,NA,NA,NA,k,NA,NA,0,NA,NA,NA,NA,NA,NA,NA,NA,NA,NA,NA,NA,NA,NA,NA,NA,NA,NA,NA
cd538,"""Richtig""-Screen",canvas.Screen,5_0_0_0_3_0_1,NA,NA,skipped,NA,2345881.9,NA,NA,2345878,2345882,2023-02-09T12:47:00Z,2345890.534,NULL,Übersicht,kilindo,d,NA,NA,NA,NA,sdf,NA,0,NA,NA,NA,NA,NA,NA,NA,NA,NA,NA,NA,NA,NA,NA,NA,NA,NA,NA,NA
cd538,"""Falsch""-Screen",canvas.Screen,5_0_0_0_3_0_2,NA,NA,timeout,4999.7999999998,2345882.9,2345873.868,2345890.534,2350873.668,2350876.2,2023-02-09T12:47:05Z,2350890.334,NULL,Übersicht,kilindo,d,NA,NA,NA,NA,sdf,0,0,NA,NA,NA,NA,NA,NA,NA,NA,NA,NA,NA,NA,NA,NA,NA,NA,NA,NA,NA
cd538,deep,flow.Sequence,5_0_0_0_3_0,NA,NA,completion,12516.699,2338343.4,2338340.303,2338356.969,2350873.668,2350876.7,2023-02-09T12:47:05Z,2350890.334,NULL,Übersicht,kilindo,d,NA,NA,NA,NA,sdf,NA,0,NA,NA,NA,NA,NA,NA,NA,NA,NA,NA,NA,NA,NA,NA,NA,NA,NA,NA,NA
cd538,shallow,flow.Sequence,5_0_0_0_3_1,NA,NA,skipped,NA,2350876.9,NA,NA,2350873.668,2350877.1,2023-02-09T12:47:05Z,2350890.334,NULL,Übersicht,kilindo,d,NA,NA,NA,NA,sdf,NA,0,NA,NA,NA,NA,NA,NA,NA,NA,NA,NA,NA,NA,NA,NA,NA,NA,NA,NA,NA
cd538,task,flow.Sequence,5_0_0_0_3,NA,NA,completion,12516.699,2338343.3,2338340.303,2338356.969,2350873.668,2350877.3,2023-02-09T12:47:05Z,2350890.334,NULL,Übersicht,kilindo,d,NA,NA,NA,NA,sdf,NA,0,NA,NA,NA,NA,NA,NA,NA,NA,NA,NA,NA,NA,NA,NA,NA,NA,NA,NA,NA
cd538,deep,flow.Sequence,5_0_0_0_4_0,NA,NA,skipped,NA,2350877.5,NA,NA,2350873.668,2350877.6,2023-02-09T12:47:05Z,2350890.334,NULL,Lawine,banguko,s,maambukizi,usuluhishi,chekechea,NA,sdf,NA,0,NA,NA,NA,NA,NA,NA,NA,NA,NA,NA,NA,NA,NA,NA,NA,NA,NA,NA,NA
cd538,Shallow Question,html.Page,5_0_0_0_4_1_0,NA,NA,form submission,3587.3659999995,2350877.7,2350873.668,2350890.334,2354477.7,2354478.2,2023-02-09T12:47:09Z,2354490.718,NULL,Lawine,banguko,s,maambukizi,usuluhishi,chekechea,usuluhishi,NA,NA,0,NA,NA,NA,NA,NA,NA,NA,NA,NA,NA,NA,NA,NA,NA,NA,NA,NA,NA,NA
cd538,"""Richtig""-Screen",canvas.Screen,5_0_0_0_4_1_1,NA,NA,skipped,NA,2354481.3,NA,NA,2354477.7,2354481.5,2023-02-09T12:47:09Z,2354490.718,NULL,Lawine,banguko,s,maambukizi,usuluhishi,chekechea,NA,sdf,NA,0,NA,NA,NA,NA,NA,NA,NA,NA,NA,NA,NA,NA,NA,NA,NA,NA,NA,NA,NA
cd538,"""Falsch""-Screen",canvas.Screen,5_0_0_0_4_1_2,NA,NA,timeout,4999.8000000003,2354482.2,2354474.052,2354490.718,2359473.852,2359475.4,2023-02-09T12:47:14Z,2359490.518,NULL,Lawine,banguko,s,maambukizi,usuluhishi,chekechea,NA,sdf,0,0,NA,NA,NA,NA,NA,NA,NA,NA,NA,NA,NA,NA,NA,NA,NA,NA,NA,NA,NA
cd538,shallow,flow.Sequence,5_0_0_0_4_1,NA,NA,completion,8583.5180000002,2350877.6,2350873.668,2350890.334,2359473.852,2359476.1,2023-02-09T12:47:14Z,2359490.518,NULL,Lawine,banguko,s,maambukizi,usuluhishi,chekechea,NA,sdf,NA,0,NA,NA,NA,NA,NA,NA,NA,NA,NA,NA,NA,NA,NA,NA,NA,NA,NA,NA,NA
cd538,task,flow.Sequence,5_0_0_0_4,NA,NA,completion,8583.5180000002,2350877.4,2350873.668,2350890.334,2359473.852,2359476.4,2023-02-09T12:47:14Z,2359490.518,NULL,Lawine,banguko,s,maambukizi,usuluhishi,chekechea,NA,sdf,NA,0,NA,NA,NA,NA,NA,NA,NA,NA,NA,NA,NA,NA,NA,NA,NA,NA,NA,NA,NA
cd538,deep,flow.Sequence,5_0_0_0_5_0,NA,NA,skipped,NA,2359476.5,NA,NA,2359473.852,2359476.7,2023-02-09T12:47:14Z,2359490.518,NULL,Papier,karatasi,s,uchambuzi,usalama,kukataliwa,NA,sdf,NA,0,NA,NA,NA,NA,NA,NA,NA,NA,NA,NA,NA,NA,NA,NA,NA,NA,NA,NA,NA
cd538,Shallow Question,html.Page,5_0_0_0_5_1_0,NA,NA,form submission,2820.8820000002,2359476.8,2359473.852,2359490.518,2362311.4,2362311.9,2023-02-09T12:47:16Z,2362323.738,NULL,Papier,karatasi,s,uchambuzi,usalama,kukataliwa,uchambuzi,NA,NA,0,NA,NA,NA,NA,NA,NA,NA,NA,NA,NA,NA,NA,NA,NA,NA,NA,NA,NA,NA
cd538,"""Richtig""-Screen",canvas.Screen,5_0_0_0_5_1_1,NA,NA,skipped,NA,2362314.8,NA,NA,2362311.4,2362315,2023-02-09T12:47:16Z,2362323.738,NULL,Papier,karatasi,s,uchambuzi,usalama,kukataliwa,NA,sdf,NA,0,NA,NA,NA,NA,NA,NA,NA,NA,NA,NA,NA,NA,NA,NA,NA,NA,NA,NA,NA
cd538,"""Falsch""-Screen",canvas.Screen,5_0_0_0_5_1_2,NA,NA,timeout,4999.8000000003,2362316.1,2362307.072,2362323.738,2367306.872,2367309.1,2023-02-09T12:47:21Z,2367323.538,NULL,Papier,karatasi,s,uchambuzi,usalama,kukataliwa,NA,sdf,0,0,NA,NA,NA,NA,NA,NA,NA,NA,NA,NA,NA,NA,NA,NA,NA,NA,NA,NA,NA
cd538,shallow,flow.Sequence,5_0_0_0_5_1,NA,NA,completion,7816.3539999998,2359476.8,2359473.852,2359490.518,2367306.872,2367309.7,2023-02-09T12:47:21Z,2367323.538,NULL,Papier,karatasi,s,uchambuzi,usalama,kukataliwa,NA,sdf,NA,0,NA,NA,NA,NA,NA,NA,NA,NA,NA,NA,NA,NA,NA,NA,NA,NA,NA,NA,NA
cd538,task,flow.Sequence,5_0_0_0_5,NA,NA,completion,7816.3539999998,2359476.5,2359473.852,2359490.518,2367306.872,2367309.8,2023-02-09T12:47:21Z,2367323.538,NULL,Papier,karatasi,s,uchambuzi,usalama,kukataliwa,NA,sdf,NA,0,NA,NA,NA,NA,NA,NA,NA,NA,NA,NA,NA,NA,NA,NA,NA,NA,NA,NA,NA
cd538,Deep Question,html.Page,5_0_0_0_6_0_0,NA,NA,form submission,2254.3620000002,2367310.1,2367306.872,2367323.538,2369577.9,2369578.4,2023-02-09T12:47:24Z,2369590.83,NULL,Vorwurf,mashtaka,d,NA,NA,NA,k,NA,NA,0,NA,NA,NA,NA,NA,NA,NA,NA,NA,NA,NA,NA,NA,NA,NA,NA,NA,NA,NA
cd538,"""Richtig""-Screen",canvas.Screen,5_0_0_0_6_0_1,NA,NA,skipped,NA,2369581.5,NA,NA,2369577.9,2369581.6,2023-02-09T12:47:24Z,2369590.83,NULL,Vorwurf,mashtaka,d,NA,NA,NA,NA,sdf,NA,0,NA,NA,NA,NA,NA,NA,NA,NA,NA,NA,NA,NA,NA,NA,NA,NA,NA,NA,NA
cd538,"""Falsch""-Screen",canvas.Screen,5_0_0_0_6_0_2,NA,NA,timeout,4999.7999999998,2369582.8,2369574.164,2369590.83,2374573.964,2374576.6,2023-02-09T12:47:29Z,2374590.63,NULL,Vorwurf,mashtaka,d,NA,NA,NA,NA,sdf,0,0,NA,NA,NA,NA,NA,NA,NA,NA,NA,NA,NA,NA,NA,NA,NA,NA,NA,NA,NA
cd538,deep,flow.Sequence,5_0_0_0_6_0,NA,NA,completion,7250.426,2367310,2367306.872,2367323.538,2374573.964,2374577.1,2023-02-09T12:47:29Z,2374590.63,NULL,Vorwurf,mashtaka,d,NA,NA,NA,NA,sdf,NA,0,NA,NA,NA,NA,NA,NA,NA,NA,NA,NA,NA,NA,NA,NA,NA,NA,NA,NA,NA
cd538,shallow,flow.Sequence,5_0_0_0_6_1,NA,NA,skipped,NA,2374577.2,NA,NA,2374573.964,2374577.4,2023-02-09T12:47:29Z,2374590.63,NULL,Vorwurf,mashtaka,d,NA,NA,NA,NA,sdf,NA,0,NA,NA,NA,NA,NA,NA,NA,NA,NA,NA,NA,NA,NA,NA,NA,NA,NA,NA,NA
cd538,task,flow.Sequence,5_0_0_0_6,NA,NA,completion,7250.426,2367309.9,2367306.872,2367323.538,2374573.964,2374577.5,2023-02-09T12:47:29Z,2374590.63,NULL,Vorwurf,mashtaka,d,NA,NA,NA,NA,sdf,NA,0,NA,NA,NA,NA,NA,NA,NA,NA,NA,NA,NA,NA,NA,NA,NA,NA,NA,NA,NA
cd538,Deep Question,html.Page,5_0_0_0_7_0_0,NA,NA,form submission,2654.8700000001,2374577.7,2374573.964,2374590.63,2377245.5,2377246.2,2023-02-09T12:47:31Z,2377257.19,NULL,Körper,kiwiliwili,d,NA,NA,NA,j,NA,NA,0,NA,NA,NA,NA,NA,NA,NA,NA,NA,NA,NA,NA,NA,NA,NA,NA,NA,NA,NA
cd538,"""Richtig""-Screen",canvas.Screen,5_0_0_0_7_0_1,NA,NA,skipped,NA,2377248.8,NA,NA,2377245.5,2377248.9,2023-02-09T12:47:31Z,2377257.19,NULL,Körper,kiwiliwili,d,NA,NA,NA,NA,sdf,NA,0,NA,NA,NA,NA,NA,NA,NA,NA,NA,NA,NA,NA,NA,NA,NA,NA,NA,NA,NA
cd538,"""Falsch""-Screen",canvas.Screen,5_0_0_0_7_0_2,NA,NA,timeout,4999.8000000003,2377249.5,2377240.524,2377257.19,2382240.324,2382242,2023-02-09T12:47:36Z,2382256.99,NULL,Körper,kiwiliwili,d,NA,NA,NA,NA,sdf,0,0,NA,NA,NA,NA,NA,NA,NA,NA,NA,NA,NA,NA,NA,NA,NA,NA,NA,NA,NA
cd538,deep,flow.Sequence,5_0_0_0_7_0,NA,NA,completion,7649.6940000001,2374577.7,2374573.964,2374590.63,2382240.324,2382242.5,2023-02-09T12:47:36Z,2382256.99,NULL,Körper,kiwiliwili,d,NA,NA,NA,NA,sdf,NA,0,NA,NA,NA,NA,NA,NA,NA,NA,NA,NA,NA,NA,NA,NA,NA,NA,NA,NA,NA
cd538,shallow,flow.Sequence,5_0_0_0_7_1,NA,NA,skipped,NA,2382242.6,NA,NA,2382240.324,2382242.8,2023-02-09T12:47:36Z,2382256.99,NULL,Körper,kiwiliwili,d,NA,NA,NA,NA,sdf,NA,0,NA,NA,NA,NA,NA,NA,NA,NA,NA,NA,NA,NA,NA,NA,NA,NA,NA,NA,NA
cd538,task,flow.Sequence,5_0_0_0_7,NA,NA,completion,7649.6940000001,2374577.7,2374573.964,2374590.63,2382240.324,2382243,2023-02-09T12:47:36Z,2382256.99,NULL,Körper,kiwiliwili,d,NA,NA,NA,NA,sdf,NA,0,NA,NA,NA,NA,NA,NA,NA,NA,NA,NA,NA,NA,NA,NA,NA,NA,NA,NA,NA
