observation,sender,sender_type,sender_id,response,response_action,ended_on,duration,time_run,time_render,time_show,time_end,time_commit,timestamp,time_switch,german,swahili,enc,distractor1,distractor2,distractor3,response_2,x,correct,distractors,url_vp,url_sess,meta_labjs_version,meta_location,meta_user_agent,meta_platform,meta_language,meta_locale,meta_time_zone,meta_timezone_offset,meta_screen_width,meta_screen_height,meta_scroll_width,meta_scroll_height,meta_window_inner_width,meta_window_inner_height,meta_device_pixel_ratio,meta_labjs_build_flavor,meta_labjs_build_commit
9b0b4,Introduction delayed retrieval,canvas.Screen,0,weiter,keypress(Space),response,1677.8999999762,634.5,424.8,641.5,2319.3999999762,2321.1999999881,2024-05-28T16:54:55Z,2336.2,NA,NA,NA,NA,NA,NA,NA,NA,NA,NULL,198,2,20.2.4,https://neurocog.fernuni.ch/studies/vweber/aberisha/delayed/index.html?vp=198&sess=2,"Mozilla/5.0 (Windows NT 10.0; Win64; x64) AppleWebKit/537.36 (KHTML, like Gecko) Chrome/125.0.0.0 Safari/537.36 Edg/125.0.0.0",Win32,de,de-CH,Europe/Zurich,-120,1920,1200,1912,1004,1912,1052,1,production,f5b4a49f956347addd546a832a3327688c2c0fef
9b0b4,Deep Question,html.Page,1_0_0_0,NA,NA,form submission,21248.199999976,2321.5,2313.608,2336.2,23584.399999976,23584.800000012,2024-05-28T16:55:16Z,23590.1,Schönheit,kirembo,s,mahojiano,msisimko,jitihadi,kiliminato,NA,NA,NULL,NA,NA,NA,NA,NA,NA,NA,NA,NA,NA,NA,NA,NA,NA,NA,NA,NA,NA,NA
9b0b4,Save data screen,canvas.Screen,1_0_0_1,NA,NA,timeout,502.3,23585.800000012,23582.566,23590.1,24075.6,24077.800000012,2024-05-28T16:55:17Z,24092.4,Schönheit,kirembo,s,mahojiano,msisimko,jitihadi,NA,NA,0,NULL,NA,NA,NA,NA,NA,NA,NA,NA,NA,NA,NA,NA,NA,NA,NA,NA,NA,NA,NA
9b0b4,deep,flow.Sequence,1_0_0,NA,NA,completion,21739.4,2321.5,2313.608,2336.2,24075.6,24078.5,2024-05-28T16:55:17Z,24092.4,Schönheit,kirembo,s,mahojiano,msisimko,jitihadi,NA,NA,NA,NULL,NA,NA,NA,NA,NA,NA,NA,NA,NA,NA,NA,NA,NA,NA,NA,NA,NA,NA,NA
9b0b4,task,flow.Sequence,1_0,NA,NA,completion,21739.4,2321.5,2313.608,2336.2,24075.6,24079,2024-05-28T16:55:17Z,24092.4,Schönheit,kirembo,s,mahojiano,msisimko,jitihadi,NA,NA,NA,NULL,NA,NA,NA,NA,NA,NA,NA,NA,NA,NA,NA,NA,NA,NA,NA,NA,NA,NA,NA
9b0b4,Deep Question,html.Page,1_1_0_0,NA,NA,form submission,16931.199999964,24079.399999976,24075.6,24092.4,41023.599999964,41024.199999988,2024-05-28T16:55:34Z,41038.7,Polizist,msongora,d,simanzi,mandhari,nidhamu,sad,NA,NA,NULL,NA,NA,NA,NA,NA,NA,NA,NA,NA,NA,NA,NA,NA,NA,NA,NA,NA,NA,NA
9b0b4,Save data screen,canvas.Screen,1_1_0_1,NA,NA,timeout,497.3,41026.5,41022.1,41038.7,41519.2,41519.800000012,2024-05-28T16:55:34Z,41536,Polizist,msongora,d,simanzi,mandhari,nidhamu,NA,NA,0,NULL,NA,NA,NA,NA,NA,NA,NA,NA,NA,NA,NA,NA,NA,NA,NA,NA,NA,NA,NA
9b0b4,deep,flow.Sequence,1_1_0,NA,NA,completion,17426.8,24079.300000012,24075.6,24092.4,41519.2,41519.899999976,2024-05-28T16:55:34Z,41536,Polizist,msongora,d,simanzi,mandhari,nidhamu,NA,NA,NA,NULL,NA,NA,NA,NA,NA,NA,NA,NA,NA,NA,NA,NA,NA,NA,NA,NA,NA,NA,NA
9b0b4,task,flow.Sequence,1_1,NA,NA,completion,17426.8,24079.199999988,24075.6,24092.4,41519.2,41520.099999964,2024-05-28T16:55:34Z,41536,Polizist,msongora,d,simanzi,mandhari,nidhamu,NA,NA,NA,NULL,NA,NA,NA,NA,NA,NA,NA,NA,NA,NA,NA,NA,NA,NA,NA,NA,NA,NA,NA
9b0b4,Deep Question,html.Page,1_2_0_0,NA,NA,form submission,11214.5,41520.199999988,41519.2,41536,52750.5,52751.300000012,2024-05-28T16:55:45Z,52766.3,Ausschluss,kutengwa,d,ununuzi,taratibu,madeni,wakanda,NA,NA,NULL,NA,NA,NA,NA,NA,NA,NA,NA,NA,NA,NA,NA,NA,NA,NA,NA,NA,NA,NA
9b0b4,Save data screen,canvas.Screen,1_2_0_1,NA,NA,timeout,491.8,52752.599999964,52747.906,52766.3,53241.5,53243.300000012,2024-05-28T16:55:46Z,53258.1,Ausschluss,kutengwa,d,ununuzi,taratibu,madeni,NA,NA,0,NULL,NA,NA,NA,NA,NA,NA,NA,NA,NA,NA,NA,NA,NA,NA,NA,NA,NA,NA,NA
9b0b4,deep,flow.Sequence,1_2_0,NA,NA,completion,11705.5,41520.199999988,41519.2,41536,53241.5,53243.699999988,2024-05-28T16:55:46Z,53258.1,Ausschluss,kutengwa,d,ununuzi,taratibu,madeni,NA,NA,NA,NULL,NA,NA,NA,NA,NA,NA,NA,NA,NA,NA,NA,NA,NA,NA,NA,NA,NA,NA,NA
9b0b4,task,flow.Sequence,1_2,NA,NA,completion,11705.5,41520.099999964,41519.2,41536,53241.5,53243.899999976,2024-05-28T16:55:46Z,53258.1,Ausschluss,kutengwa,d,ununuzi,taratibu,madeni,NA,NA,NA,NULL,NA,NA,NA,NA,NA,NA,NA,NA,NA,NA,NA,NA,NA,NA,NA,NA,NA,NA,NA
9b0b4,Deep Question,html.Page,1_3_0_0,NA,NA,form submission,10336.9,53244.099999964,53241.5,53258.1,63595,63595.399999976,2024-05-28T16:55:56Z,63631,Widerstand,usulubu,s,kusababisha,mwalimu,mwenendo,hsadsa,NA,NA,NULL,NA,NA,NA,NA,NA,NA,NA,NA,NA,NA,NA,NA,NA,NA,NA,NA,NA,NA,NA
9b0b4,Save data screen,canvas.Screen,1_3_0_1,NA,NA,timeout,494,63598.199999988,63608.336,63631,64108.2,64108.800000012,2024-05-28T16:55:57Z,64125,Widerstand,usulubu,s,kusababisha,mwalimu,mwenendo,NA,NA,0,NULL,NA,NA,NA,NA,NA,NA,NA,NA,NA,NA,NA,NA,NA,NA,NA,NA,NA,NA,NA
9b0b4,deep,flow.Sequence,1_3_0,NA,NA,completion,10850.1,53244.099999964,53241.5,53258.1,64108.2,64109,2024-05-28T16:55:57Z,64125,Widerstand,usulubu,s,kusababisha,mwalimu,mwenendo,NA,NA,NA,NULL,NA,NA,NA,NA,NA,NA,NA,NA,NA,NA,NA,NA,NA,NA,NA,NA,NA,NA,NA
9b0b4,task,flow.Sequence,1_3,NA,NA,completion,10850.1,53244.099999964,53241.5,53258.1,64108.2,64109.099999964,2024-05-28T16:55:57Z,64125,Widerstand,usulubu,s,kusababisha,mwalimu,mwenendo,NA,NA,NA,NULL,NA,NA,NA,NA,NA,NA,NA,NA,NA,NA,NA,NA,NA,NA,NA,NA,NA,NA,NA
9b0b4,Deep Question,html.Page,1_4_0_0,NA,NA,form submission,13860.899999976,64109.199999988,64108.2,64125,77985.899999976,77986.300000012,2024-05-28T16:56:11Z,78001.9,Zufall,kikuti,s,kukosekana,uchoraji,leseni,sadsaddsa,NA,NA,NULL,NA,NA,NA,NA,NA,NA,NA,NA,NA,NA,NA,NA,NA,NA,NA,NA,NA,NA,NA
9b0b4,Save data screen,canvas.Screen,1_4_0_1,NA,NA,timeout,492.40000000001,77989.5,77981.1,78001.9,78477.6,78479.5,2024-05-28T16:56:11Z,78494.3,Zufall,kikuti,s,kukosekana,uchoraji,leseni,NA,NA,0,NULL,NA,NA,NA,NA,NA,NA,NA,NA,NA,NA,NA,NA,NA,NA,NA,NA,NA,NA,NA
9b0b4,deep,flow.Sequence,1_4_0,NA,NA,completion,14352.6,64109.199999988,64108.2,64125,78477.6,78480.300000012,2024-05-28T16:56:11Z,78494.3,Zufall,kikuti,s,kukosekana,uchoraji,leseni,NA,NA,NA,NULL,NA,NA,NA,NA,NA,NA,NA,NA,NA,NA,NA,NA,NA,NA,NA,NA,NA,NA,NA
9b0b4,task,flow.Sequence,1_4,NA,NA,completion,14352.6,64109.199999988,64108.2,64125,78477.6,78480.599999964,2024-05-28T16:56:11Z,78494.3,Zufall,kikuti,s,kukosekana,uchoraji,leseni,NA,NA,NA,NULL,NA,NA,NA,NA,NA,NA,NA,NA,NA,NA,NA,NA,NA,NA,NA,NA,NA,NA,NA
9b0b4,Deep Question,html.Page,1_5_0_0,NA,NA,form submission,13571.299999964,78480.800000012,78477.6,78494.3,92065.599999964,92066.099999964,2024-05-28T16:56:25Z,92081.6,Konkurrent,mshindani,d,msemaji,mvutaji,kipukusa,mshandani,NA,NA,NULL,NA,NA,NA,NA,NA,NA,NA,NA,NA,NA,NA,NA,NA,NA,NA,NA,NA,NA,NA
9b0b4,Save data screen,canvas.Screen,1_5_0_1,NA,NA,timeout,501.39999999999,92070.199999988,92069.884,92081.6,92566.5,92568.399999976,2024-05-28T16:56:25Z,92583,Konkurrent,mshindani,d,msemaji,mvutaji,kipukusa,NA,NA,0,NULL,NA,NA,NA,NA,NA,NA,NA,NA,NA,NA,NA,NA,NA,NA,NA,NA,NA,NA,NA
9b0b4,deep,flow.Sequence,1_5_0,NA,NA,completion,14072.2,78480.800000012,78477.6,78494.3,92566.5,92569,2024-05-28T16:56:25Z,92583,Konkurrent,mshindani,d,msemaji,mvutaji,kipukusa,NA,NA,NA,NULL,NA,NA,NA,NA,NA,NA,NA,NA,NA,NA,NA,NA,NA,NA,NA,NA,NA,NA,NA
9b0b4,task,flow.Sequence,1_5,NA,NA,completion,14072.2,78480.699999988,78477.6,78494.3,92566.5,92569.199999988,2024-05-28T16:56:25Z,92583,Konkurrent,mshindani,d,msemaji,mvutaji,kipukusa,NA,NA,NA,NULL,NA,NA,NA,NA,NA,NA,NA,NA,NA,NA,NA,NA,NA,NA,NA,NA,NA,NA,NA
9b0b4,Deep Question,html.Page,1_6_0_0,NA,NA,form submission,12690.699999988,92569.5,92566.5,92583,105273.69999999,105274.09999996,2024-05-28T16:56:38Z,105289.7,Annäherung,maegesho,s,madahili,kujiamini,mapendekezo,ksjdlsakd,NA,NA,NULL,NA,NA,NA,NA,NA,NA,NA,NA,NA,NA,NA,NA,NA,NA,NA,NA,NA,NA,NA
9b0b4,Save data screen,canvas.Screen,1_6_0_1,NA,NA,timeout,493.7,105277.5,105268.4,105289.7,105767,105768.89999998,2024-05-28T16:56:38Z,105783.4,Annäherung,maegesho,s,madahili,kujiamini,mapendekezo,NA,NA,0,NULL,NA,NA,NA,NA,NA,NA,NA,NA,NA,NA,NA,NA,NA,NA,NA,NA,NA,NA,NA
9b0b4,deep,flow.Sequence,1_6_0,NA,NA,completion,13184,92569.399999976,92566.5,92583,105767,105769.39999998,2024-05-28T16:56:38Z,105783.4,Annäherung,maegesho,s,madahili,kujiamini,mapendekezo,NA,NA,NA,NULL,NA,NA,NA,NA,NA,NA,NA,NA,NA,NA,NA,NA,NA,NA,NA,NA,NA,NA,NA
9b0b4,task,flow.Sequence,1_6,NA,NA,completion,13184,92569.399999976,92566.5,92583,105767,105769.69999999,2024-05-28T16:56:38Z,105783.4,Annäherung,maegesho,s,madahili,kujiamini,mapendekezo,NA,NA,NA,NULL,NA,NA,NA,NA,NA,NA,NA,NA,NA,NA,NA,NA,NA,NA,NA,NA,NA,NA,NA
9b0b4,Deep Question,html.Page,1_7_0_0,NA,NA,form submission,4467.2999999881,105769.89999998,105767,105783.4,110250.69999999,110251.30000001,2024-05-28T16:56:43Z,110266.6,Zuwachs,nyongeza,s,matilaba,udhibiti,hudhurio,sdfdsf,NA,NA,NULL,NA,NA,NA,NA,NA,NA,NA,NA,NA,NA,NA,NA,NA,NA,NA,NA,NA,NA,NA
9b0b4,Save data screen,canvas.Screen,1_7_0_1,NA,NA,timeout,497.09999999999,110255.30000001,110243.2,110266.6,110747.2,110749.30000001,2024-05-28T16:56:43Z,110763.7,Zuwachs,nyongeza,s,matilaba,udhibiti,hudhurio,NA,NA,0,NULL,NA,NA,NA,NA,NA,NA,NA,NA,NA,NA,NA,NA,NA,NA,NA,NA,NA,NA,NA
9b0b4,deep,flow.Sequence,1_7_0,NA,NA,completion,4963.8,105769.89999998,105767,105783.4,110747.2,110749.59999996,2024-05-28T16:56:43Z,110763.7,Zuwachs,nyongeza,s,matilaba,udhibiti,hudhurio,NA,NA,NA,NULL,NA,NA,NA,NA,NA,NA,NA,NA,NA,NA,NA,NA,NA,NA,NA,NA,NA,NA,NA
9b0b4,task,flow.Sequence,1_7,NA,NA,completion,4963.8,105769.69999999,105767,105783.4,110747.2,110749.80000001,2024-05-28T16:56:43Z,110763.7,Zuwachs,nyongeza,s,matilaba,udhibiti,hudhurio,NA,NA,NA,NULL,NA,NA,NA,NA,NA,NA,NA,NA,NA,NA,NA,NA,NA,NA,NA,NA,NA,NA,NA
9b0b4,Deep Question,html.Page,1_8_0_0,NA,NA,form submission,11268.499999988,110750.09999996,110747.2,110763.7,122032.19999999,122032.89999998,2024-05-28T16:56:55Z,122047.9,Wettbewerb,ushindani,d,mapendezi,kichocheo,ubaguzi,mshandani,NA,NA,NULL,NA,NA,NA,NA,NA,NA,NA,NA,NA,NA,NA,NA,NA,NA,NA,NA,NA,NA,NA
9b0b4,Save data screen,canvas.Screen,1_8_0_1,NA,NA,timeout,497.3,122037.69999999,122026.612,122047.9,122528.5,122529.30000001,2024-05-28T16:56:55Z,122545.2,Wettbewerb,ushindani,d,mapendezi,kichocheo,ubaguzi,NA,NA,0,NULL,NA,NA,NA,NA,NA,NA,NA,NA,NA,NA,NA,NA,NA,NA,NA,NA,NA,NA,NA
9b0b4,deep,flow.Sequence,1_8_0,NA,NA,completion,11764.8,110750,110747.2,110763.7,122528.5,122529.5,2024-05-28T16:56:55Z,122545.2,Wettbewerb,ushindani,d,mapendezi,kichocheo,ubaguzi,NA,NA,NA,NULL,NA,NA,NA,NA,NA,NA,NA,NA,NA,NA,NA,NA,NA,NA,NA,NA,NA,NA,NA
9b0b4,task,flow.Sequence,1_8,NA,NA,completion,11764.8,110750,110747.2,110763.7,122528.5,122529.69999999,2024-05-28T16:56:55Z,122545.2,Wettbewerb,ushindani,d,mapendezi,kichocheo,ubaguzi,NA,NA,NA,NULL,NA,NA,NA,NA,NA,NA,NA,NA,NA,NA,NA,NA,NA,NA,NA,NA,NA,NA,NA
9b0b4,Deep Question,html.Page,1_9_0_0,NA,NA,form submission,3771.8,122529.89999998,122528.5,122545.2,126317,126317.5,2024-05-28T16:56:59Z,126332.7,Sympathie,mapendano,s,dhamiria,fungamano,maazimio,oiwhenv,NA,NA,NULL,NA,NA,NA,NA,NA,NA,NA,NA,NA,NA,NA,NA,NA,NA,NA,NA,NA,NA,NA
9b0b4,Save data screen,canvas.Screen,1_9_0_1,NA,NA,timeout,495.8,126321.39999998,126314.614,126332.7,126811.9,126813.19999999,2024-05-28T16:57:00Z,126828.5,Sympathie,mapendano,s,dhamiria,fungamano,maazimio,NA,NA,0,NULL,NA,NA,NA,NA,NA,NA,NA,NA,NA,NA,NA,NA,NA,NA,NA,NA,NA,NA,NA
9b0b4,deep,flow.Sequence,1_9_0,NA,NA,completion,4266.7,122529.89999998,122528.5,122545.2,126811.9,126813.80000001,2024-05-28T16:57:00Z,126828.5,Sympathie,mapendano,s,dhamiria,fungamano,maazimio,NA,NA,NA,NULL,NA,NA,NA,NA,NA,NA,NA,NA,NA,NA,NA,NA,NA,NA,NA,NA,NA,NA,NA
9b0b4,task,flow.Sequence,1_9,NA,NA,completion,4266.7,122529.89999998,122528.5,122545.2,126811.9,126814.09999996,2024-05-28T16:57:00Z,126828.5,Sympathie,mapendano,s,dhamiria,fungamano,maazimio,NA,NA,NA,NULL,NA,NA,NA,NA,NA,NA,NA,NA,NA,NA,NA,NA,NA,NA,NA,NA,NA,NA,NA
9b0b4,Deep Question,html.Page,1_10_0_0,NA,NA,form submission,44376.599999964,126814.80000001,126811.9,126828.5,171205.09999996,171205.39999998,2024-05-28T16:57:44Z,171221.1,Beweis,ushahidi,d,marudio,kizuizi,mtendaji,ushahidi,NA,NA,NULL,NA,NA,NA,NA,NA,NA,NA,NA,NA,NA,NA,NA,NA,NA,NA,NA,NA,NA,NA
9b0b4,Save data screen,canvas.Screen,1_10_0_1,NA,NA,timeout,495.60000000001,171209.19999999,171196.462,171221.1,171699.6,171700.5,2024-05-28T16:57:44Z,171716.7,Beweis,ushahidi,d,marudio,kizuizi,mtendaji,NA,NA,1,NULL,NA,NA,NA,NA,NA,NA,NA,NA,NA,NA,NA,NA,NA,NA,NA,NA,NA,NA,NA
9b0b4,deep,flow.Sequence,1_10_0,NA,NA,completion,44871.1,126814.59999996,126811.9,126828.5,171699.6,171700.80000001,2024-05-28T16:57:44Z,171716.7,Beweis,ushahidi,d,marudio,kizuizi,mtendaji,NA,NA,NA,NULL,NA,NA,NA,NA,NA,NA,NA,NA,NA,NA,NA,NA,NA,NA,NA,NA,NA,NA,NA
9b0b4,task,flow.Sequence,1_10,NA,NA,completion,44871.1,126814.30000001,126811.9,126828.5,171699.6,171701.09999996,2024-05-28T16:57:44Z,171716.7,Beweis,ushahidi,d,marudio,kizuizi,mtendaji,NA,NA,NA,NULL,NA,NA,NA,NA,NA,NA,NA,NA,NA,NA,NA,NA,NA,NA,NA,NA,NA,NA,NA
9b0b4,Deep Question,html.Page,1_11_0_0,NA,NA,form submission,61364.100000012,171701.19999999,171699.6,171716.7,233080.80000001,233081.19999999,2024-05-28T16:58:46Z,233090.1,Vorsorge,tahadhari,d,ufafanuzi,makini,mashambani,tahadhari,NA,NA,NULL,NA,NA,NA,NA,NA,NA,NA,NA,NA,NA,NA,NA,NA,NA,NA,NA,NA,NA,NA
9b0b4,Save data screen,canvas.Screen,1_11_0_1,NA,NA,timeout,494.39999999999,233084.30000001,233083.632,233090.1,233568,233568.80000001,2024-05-28T16:58:46Z,233584.5,Vorsorge,tahadhari,d,ufafanuzi,makini,mashambani,NA,NA,1,NULL,NA,NA,NA,NA,NA,NA,NA,NA,NA,NA,NA,NA,NA,NA,NA,NA,NA,NA,NA
9b0b4,deep,flow.Sequence,1_11_0,NA,NA,completion,61851.3,171701.19999999,171699.6,171716.7,233568,233569.09999996,2024-05-28T16:58:46Z,233584.5,Vorsorge,tahadhari,d,ufafanuzi,makini,mashambani,NA,NA,NA,NULL,NA,NA,NA,NA,NA,NA,NA,NA,NA,NA,NA,NA,NA,NA,NA,NA,NA,NA,NA
9b0b4,task,flow.Sequence,1_11,NA,NA,completion,61851.3,171701.19999999,171699.6,171716.7,233568,233569.30000001,2024-05-28T16:58:46Z,233584.5,Vorsorge,tahadhari,d,ufafanuzi,makini,mashambani,NA,NA,NA,NULL,NA,NA,NA,NA,NA,NA,NA,NA,NA,NA,NA,NA,NA,NA,NA,NA,NA,NA,NA
9b0b4,Deep Question,html.Page,1_12_0_0,NA,NA,form submission,6723.1999999881,233569.5,233568,233584.5,240307.69999999,240308.19999999,2024-05-28T16:58:53Z,240341,Symbol,kielezo,s,kinyume,nderemo,utayari,kielzo,NA,NA,NULL,NA,NA,NA,NA,NA,NA,NA,NA,NA,NA,NA,NA,NA,NA,NA,NA,NA,NA,NA
9b0b4,Save data screen,canvas.Screen,1_12_0_1,NA,NA,timeout,499,240311.89999998,240325.6,240341,240823.6,240825.09999996,2024-05-28T16:58:54Z,240840,Symbol,kielezo,s,kinyume,nderemo,utayari,NA,NA,0,NULL,NA,NA,NA,NA,NA,NA,NA,NA,NA,NA,NA,NA,NA,NA,NA,NA,NA,NA,NA
9b0b4,deep,flow.Sequence,1_12_0,NA,NA,completion,7239.1,233569.39999998,233568,233584.5,240823.6,240825.5,2024-05-28T16:58:54Z,240840,Symbol,kielezo,s,kinyume,nderemo,utayari,NA,NA,NA,NULL,NA,NA,NA,NA,NA,NA,NA,NA,NA,NA,NA,NA,NA,NA,NA,NA,NA,NA,NA
9b0b4,task,flow.Sequence,1_12,NA,NA,completion,7239.1,233569.39999998,233568,233584.5,240823.6,240825.80000001,2024-05-28T16:58:54Z,240840,Symbol,kielezo,s,kinyume,nderemo,utayari,NA,NA,NA,NULL,NA,NA,NA,NA,NA,NA,NA,NA,NA,NA,NA,NA,NA,NA,NA,NA,NA,NA,NA
9b0b4,Deep Question,html.Page,1_13_0_0,NA,NA,form submission,8450.0999999642,240826.09999996,240823.6,240840,249290.09999996,249290.59999996,2024-05-28T16:59:02Z,249306,Auftrag,uagizaji,d,ghanima,kuzingatia,msukani,yxclkn,NA,NA,NULL,NA,NA,NA,NA,NA,NA,NA,NA,NA,NA,NA,NA,NA,NA,NA,NA,NA,NA,NA
9b0b4,Save data screen,canvas.Screen,1_13_0_1,NA,NA,timeout,493.39999999999,249295.39999998,249288.596,249306,249782.9,249784.09999996,2024-05-28T16:59:03Z,249799.4,Auftrag,uagizaji,d,ghanima,kuzingatia,msukani,NA,NA,0,NULL,NA,NA,NA,NA,NA,NA,NA,NA,NA,NA,NA,NA,NA,NA,NA,NA,NA,NA,NA
9b0b4,deep,flow.Sequence,1_13_0,NA,NA,completion,8942.9,240826.09999996,240823.6,240840,249782.9,249784.39999998,2024-05-28T16:59:03Z,249799.4,Auftrag,uagizaji,d,ghanima,kuzingatia,msukani,NA,NA,NA,NULL,NA,NA,NA,NA,NA,NA,NA,NA,NA,NA,NA,NA,NA,NA,NA,NA,NA,NA,NA
9b0b4,task,flow.Sequence,1_13,NA,NA,completion,8942.9,240825.89999998,240823.6,240840,249782.9,249784.5,2024-05-28T16:59:03Z,249799.4,Auftrag,uagizaji,d,ghanima,kuzingatia,msukani,NA,NA,NA,NULL,NA,NA,NA,NA,NA,NA,NA,NA,NA,NA,NA,NA,NA,NA,NA,NA,NA,NA,NA
9b0b4,Deep Question,html.Page,1_14_0_0,NA,NA,form submission,12747.199999964,249784.89999998,249782.9,249799.4,262546.59999996,262547.09999996,2024-05-28T16:59:15Z,262562.9,Verstand,ufahamivu,s,shakawa,hadhari,mhandisi,kein plan,NA,NA,NULL,NA,NA,NA,NA,NA,NA,NA,NA,NA,NA,NA,NA,NA,NA,NA,NA,NA,NA,NA
9b0b4,Save data screen,canvas.Screen,1_14_0_1,NA,NA,timeout,499,262550.19999999,262546,262562.9,263045.4,263047.09999996,2024-05-28T16:59:16Z,263061.9,Verstand,ufahamivu,s,shakawa,hadhari,mhandisi,NA,NA,0,NULL,NA,NA,NA,NA,NA,NA,NA,NA,NA,NA,NA,NA,NA,NA,NA,NA,NA,NA,NA
9b0b4,deep,flow.Sequence,1_14_0,NA,NA,completion,13246,249784.89999998,249782.9,249799.4,263045.4,263047.59999996,2024-05-28T16:59:16Z,263061.9,Verstand,ufahamivu,s,shakawa,hadhari,mhandisi,NA,NA,NA,NULL,NA,NA,NA,NA,NA,NA,NA,NA,NA,NA,NA,NA,NA,NA,NA,NA,NA,NA,NA
9b0b4,task,flow.Sequence,1_14,NA,NA,completion,13246,249784.89999998,249782.9,249799.4,263045.4,263047.80000001,2024-05-28T16:59:16Z,263061.9,Verstand,ufahamivu,s,shakawa,hadhari,mhandisi,NA,NA,NA,NULL,NA,NA,NA,NA,NA,NA,NA,NA,NA,NA,NA,NA,NA,NA,NA,NA,NA,NA,NA
9b0b4,Deep Question,html.Page,1_15_0_0,NA,NA,form submission,25896.799999988,263048.09999996,263045.4,263061.9,288958.69999999,288959,2024-05-28T16:59:42Z,288972.3,Gelegenheit,wakati,d,mchanganyiko,kipaumbele,kushuku,kein plan,NA,NA,NULL,NA,NA,NA,NA,NA,NA,NA,NA,NA,NA,NA,NA,NA,NA,NA,NA,NA,NA,NA
9b0b4,Save data screen,canvas.Screen,1_15_0_1,NA,NA,timeout,505.10000000003,288962.09999996,288953.246,288972.3,289460.8,289462,2024-05-28T16:59:42Z,289477.4,Gelegenheit,wakati,d,mchanganyiko,kipaumbele,kushuku,NA,NA,0,NULL,NA,NA,NA,NA,NA,NA,NA,NA,NA,NA,NA,NA,NA,NA,NA,NA,NA,NA,NA
9b0b4,deep,flow.Sequence,1_15_0,NA,NA,completion,26398.9,263048.09999996,263045.4,263061.9,289460.8,289462.39999998,2024-05-28T16:59:42Z,289477.4,Gelegenheit,wakati,d,mchanganyiko,kipaumbele,kushuku,NA,NA,NA,NULL,NA,NA,NA,NA,NA,NA,NA,NA,NA,NA,NA,NA,NA,NA,NA,NA,NA,NA,NA
9b0b4,task,flow.Sequence,1_15,NA,NA,completion,26398.9,263048,263045.4,263061.9,289460.8,289462.59999996,2024-05-28T16:59:42Z,289477.4,Gelegenheit,wakati,d,mchanganyiko,kipaumbele,kushuku,NA,NA,NA,NULL,NA,NA,NA,NA,NA,NA,NA,NA,NA,NA,NA,NA,NA,NA,NA,NA,NA,NA,NA
9b0b4,retrieval block 1 (cued recall),flow.Loop,1,NA,NA,completion,287124.6,2321.3999999762,2313.608,2336.2,289460.8,289463,2024-05-28T16:59:42Z,289477.4,NA,NA,NA,NA,NA,NA,NA,NA,NA,NULL,NA,NA,NA,NA,NA,NA,NA,NA,NA,NA,NA,NA,NA,NA,NA,NA,NA,NA,NA
9b0b4,Shallow Question,html.Page,2_0_0_0,NA,NA,form submission,24444.299999988,289463.30000001,289460.8,289477.4,313921.69999999,313922.30000001,2024-05-28T17:00:07Z,313937.2,Auftrag,uagizaji,d,ghanima,kuzingatia,msukani,msukani,NA,NA,"c(""distractor1"", ""distractor2"", ""distractor3"")",NA,NA,NA,NA,NA,NA,NA,NA,NA,NA,NA,NA,NA,NA,NA,NA,NA,NA,NA
9b0b4,Save data screen,canvas.Screen,2_0_0_1,NA,NA,timeout,506.79999999999,313926.09999996,313926.812,313937.2,314427.3,314428.30000001,2024-05-28T17:00:07Z,314444,Auftrag,uagizaji,d,ghanima,kuzingatia,msukani,NA,NA,0,"c(""distractor1"", ""distractor2"", ""distractor3"")",NA,NA,NA,NA,NA,NA,NA,NA,NA,NA,NA,NA,NA,NA,NA,NA,NA,NA,NA
9b0b4,shallow,flow.Sequence,2_0_0,NA,NA,completion,24949.9,289463.30000001,289460.8,289477.4,314427.3,314428.69999999,2024-05-28T17:00:07Z,314444,Auftrag,uagizaji,d,ghanima,kuzingatia,msukani,NA,NA,NA,"c(""distractor1"", ""distractor2"", ""distractor3"")",NA,NA,NA,NA,NA,NA,NA,NA,NA,NA,NA,NA,NA,NA,NA,NA,NA,NA,NA
9b0b4,task,flow.Sequence,2_0,NA,NA,completion,24949.9,289463.19999999,289460.8,289477.4,314427.3,314428.80000001,2024-05-28T17:00:07Z,314444,Auftrag,uagizaji,d,ghanima,kuzingatia,msukani,NA,NA,NA,"c(""distractor1"", ""distractor2"", ""distractor3"")",NA,NA,NA,NA,NA,NA,NA,NA,NA,NA,NA,NA,NA,NA,NA,NA,NA,NA,NA
9b0b4,Shallow Question,html.Page,2_1_0_0,NA,NA,form submission,11048.300000012,314429.09999996,314427.3,314444,325492.30000001,325492.80000001,2024-05-28T17:00:18Z,325508.1,Ausschluss,kutengwa,d,ununuzi,taratibu,madeni,kutengwa,NA,NA,"c(""distractor1"", ""distractor2"", ""distractor3"")",NA,NA,NA,NA,NA,NA,NA,NA,NA,NA,NA,NA,NA,NA,NA,NA,NA,NA,NA
9b0b4,Save data screen,canvas.Screen,2_1_0_1,NA,NA,timeout,505.40000000002,325496.69999999,325490.1,325508.1,325996.8,325998.39999998,2024-05-28T17:00:19Z,326013.5,Ausschluss,kutengwa,d,ununuzi,taratibu,madeni,NA,NA,1,"c(""distractor1"", ""distractor2"", ""distractor3"")",NA,NA,NA,NA,NA,NA,NA,NA,NA,NA,NA,NA,NA,NA,NA,NA,NA,NA,NA
9b0b4,shallow,flow.Sequence,2_1_0,NA,NA,completion,11552.8,314429,314427.3,314444,325996.8,325998.80000001,2024-05-28T17:00:19Z,326013.5,Ausschluss,kutengwa,d,ununuzi,taratibu,madeni,NA,NA,NA,"c(""distractor1"", ""distractor2"", ""distractor3"")",NA,NA,NA,NA,NA,NA,NA,NA,NA,NA,NA,NA,NA,NA,NA,NA,NA,NA,NA
9b0b4,task,flow.Sequence,2_1,NA,NA,completion,11552.8,314429,314427.3,314444,325996.8,325999,2024-05-28T17:00:19Z,326013.5,Ausschluss,kutengwa,d,ununuzi,taratibu,madeni,NA,NA,NA,"c(""distractor1"", ""distractor2"", ""distractor3"")",NA,NA,NA,NA,NA,NA,NA,NA,NA,NA,NA,NA,NA,NA,NA,NA,NA,NA,NA
9b0b4,Shallow Question,html.Page,2_2_0_0,NA,NA,form submission,3958.3999999762,325999.19999999,325996.8,326013.5,329971.89999998,329972.30000001,2024-05-28T17:00:23Z,329987.3,Konkurrent,mshindani,d,msemaji,mvutaji,kipukusa,mshindani,NA,NA,"c(""distractor1"", ""distractor2"", ""distractor3"")",NA,NA,NA,NA,NA,NA,NA,NA,NA,NA,NA,NA,NA,NA,NA,NA,NA,NA,NA
9b0b4,Save data screen,canvas.Screen,2_2_0_1,NA,NA,timeout,500.70000000001,329975.09999996,329963.1,329987.3,330471.2,330472.19999999,2024-05-28T17:00:23Z,330488,Konkurrent,mshindani,d,msemaji,mvutaji,kipukusa,NA,NA,1,"c(""distractor1"", ""distractor2"", ""distractor3"")",NA,NA,NA,NA,NA,NA,NA,NA,NA,NA,NA,NA,NA,NA,NA,NA,NA,NA,NA
9b0b4,shallow,flow.Sequence,2_2_0,NA,NA,completion,4457.7,325999.09999996,325996.8,326013.5,330471.2,330472.69999999,2024-05-28T17:00:23Z,330488,Konkurrent,mshindani,d,msemaji,mvutaji,kipukusa,NA,NA,NA,"c(""distractor1"", ""distractor2"", ""distractor3"")",NA,NA,NA,NA,NA,NA,NA,NA,NA,NA,NA,NA,NA,NA,NA,NA,NA,NA,NA
9b0b4,task,flow.Sequence,2_2,NA,NA,completion,4457.7,325999.09999996,325996.8,326013.5,330471.2,330472.89999998,2024-05-28T17:00:23Z,330488,Konkurrent,mshindani,d,msemaji,mvutaji,kipukusa,NA,NA,NA,"c(""distractor1"", ""distractor2"", ""distractor3"")",NA,NA,NA,NA,NA,NA,NA,NA,NA,NA,NA,NA,NA,NA,NA,NA,NA,NA,NA
9b0b4,Shallow Question,html.Page,2_3_0_0,NA,NA,form submission,8783.1999999881,330473,330471.2,330488,339271.19999999,339271.69999999,2024-05-28T17:00:32Z,339286.7,Annäherung,maegesho,s,madahili,kujiamini,mapendekezo,maegesho,NA,NA,"c(""distractor1"", ""distractor2"", ""distractor3"")",NA,NA,NA,NA,NA,NA,NA,NA,NA,NA,NA,NA,NA,NA,NA,NA,NA,NA,NA
9b0b4,Save data screen,canvas.Screen,2_3_0_1,NA,NA,timeout,499.39999999997,339275.5,339274.886,339286.7,339769.6,339771.5,2024-05-28T17:00:33Z,339786.1,Annäherung,maegesho,s,madahili,kujiamini,mapendekezo,NA,NA,1,"c(""distractor1"", ""distractor2"", ""distractor3"")",NA,NA,NA,NA,NA,NA,NA,NA,NA,NA,NA,NA,NA,NA,NA,NA,NA,NA,NA
9b0b4,shallow,flow.Sequence,2_3_0,NA,NA,completion,9281.6,330473,330471.2,330488,339769.6,339771.89999998,2024-05-28T17:00:33Z,339786.1,Annäherung,maegesho,s,madahili,kujiamini,mapendekezo,NA,NA,NA,"c(""distractor1"", ""distractor2"", ""distractor3"")",NA,NA,NA,NA,NA,NA,NA,NA,NA,NA,NA,NA,NA,NA,NA,NA,NA,NA,NA
9b0b4,task,flow.Sequence,2_3,NA,NA,completion,9281.6,330472.89999998,330471.2,330488,339769.6,339772.30000001,2024-05-28T17:00:33Z,339786.1,Annäherung,maegesho,s,madahili,kujiamini,mapendekezo,NA,NA,NA,"c(""distractor1"", ""distractor2"", ""distractor3"")",NA,NA,NA,NA,NA,NA,NA,NA,NA,NA,NA,NA,NA,NA,NA,NA,NA,NA,NA
9b0b4,Shallow Question,html.Page,2_4_0_0,NA,NA,form submission,5369.2000000119,339772.5,339769.6,339786.1,345155.30000001,345155.80000001,2024-05-28T17:00:38Z,345170.8,Vorsorge,tahadhari,d,ufafanuzi,makini,mashambani,tahadhari,NA,NA,"c(""distractor1"", ""distractor2"", ""distractor3"")",NA,NA,NA,NA,NA,NA,NA,NA,NA,NA,NA,NA,NA,NA,NA,NA,NA,NA,NA
9b0b4,Save data screen,canvas.Screen,2_4_0_1,NA,NA,timeout,493.70000000001,345158.5,345152.204,345170.8,345648.1,345650.09999996,2024-05-28T17:00:38Z,345664.5,Vorsorge,tahadhari,d,ufafanuzi,makini,mashambani,NA,NA,1,"c(""distractor1"", ""distractor2"", ""distractor3"")",NA,NA,NA,NA,NA,NA,NA,NA,NA,NA,NA,NA,NA,NA,NA,NA,NA,NA,NA
9b0b4,shallow,flow.Sequence,2_4_0,NA,NA,completion,5862,339772.39999998,339769.6,339786.1,345648.1,345650.59999996,2024-05-28T17:00:38Z,345664.5,Vorsorge,tahadhari,d,ufafanuzi,makini,mashambani,NA,NA,NA,"c(""distractor1"", ""distractor2"", ""distractor3"")",NA,NA,NA,NA,NA,NA,NA,NA,NA,NA,NA,NA,NA,NA,NA,NA,NA,NA,NA
9b0b4,task,flow.Sequence,2_4,NA,NA,completion,5862,339772.39999998,339769.6,339786.1,345648.1,345650.89999998,2024-05-28T17:00:38Z,345664.5,Vorsorge,tahadhari,d,ufafanuzi,makini,mashambani,NA,NA,NA,"c(""distractor1"", ""distractor2"", ""distractor3"")",NA,NA,NA,NA,NA,NA,NA,NA,NA,NA,NA,NA,NA,NA,NA,NA,NA,NA,NA
9b0b4,Shallow Question,html.Page,2_5_0_0,NA,NA,form submission,5952.6999999881,345651.19999999,345648.1,345664.5,351617.19999999,351617.59999996,2024-05-28T17:00:44Z,351632.9,Polizist,msongora,d,simanzi,mandhari,nidhamu,msongora,NA,NA,"c(""distractor1"", ""distractor2"", ""distractor3"")",NA,NA,NA,NA,NA,NA,NA,NA,NA,NA,NA,NA,NA,NA,NA,NA,NA,NA,NA
9b0b4,Save data screen,canvas.Screen,2_5_0_1,NA,NA,timeout,495.39999999997,351621,351607.606,351632.9,352111.5,352112.80000001,2024-05-28T17:00:45Z,352128.3,Polizist,msongora,d,simanzi,mandhari,nidhamu,NA,NA,1,"c(""distractor1"", ""distractor2"", ""distractor3"")",NA,NA,NA,NA,NA,NA,NA,NA,NA,NA,NA,NA,NA,NA,NA,NA,NA,NA,NA
9b0b4,shallow,flow.Sequence,2_5_0,NA,NA,completion,6447,345651.09999996,345648.1,345664.5,352111.5,352113.19999999,2024-05-28T17:00:45Z,352128.3,Polizist,msongora,d,simanzi,mandhari,nidhamu,NA,NA,NA,"c(""distractor1"", ""distractor2"", ""distractor3"")",NA,NA,NA,NA,NA,NA,NA,NA,NA,NA,NA,NA,NA,NA,NA,NA,NA,NA,NA
9b0b4,task,flow.Sequence,2_5,NA,NA,completion,6447,345651,345648.1,345664.5,352111.5,352113.39999998,2024-05-28T17:00:45Z,352128.3,Polizist,msongora,d,simanzi,mandhari,nidhamu,NA,NA,NA,"c(""distractor1"", ""distractor2"", ""distractor3"")",NA,NA,NA,NA,NA,NA,NA,NA,NA,NA,NA,NA,NA,NA,NA,NA,NA,NA,NA
9b0b4,Shallow Question,html.Page,2_6_0_0,NA,NA,form submission,4061.3999999881,352113.69999999,352111.5,352128.3,356189.69999999,356190.30000001,2024-05-28T17:00:49Z,356205.4,Beweis,ushahidi,d,marudio,kizuizi,mtendaji,ushahidi,NA,NA,"c(""distractor1"", ""distractor2"", ""distractor3"")",NA,NA,NA,NA,NA,NA,NA,NA,NA,NA,NA,NA,NA,NA,NA,NA,NA,NA,NA
9b0b4,Save data screen,canvas.Screen,2_6_0_1,NA,NA,timeout,506.19999999995,356194.19999999,356194.718,356205.4,356694.9,356696.30000001,2024-05-28T17:00:49Z,356711.6,Beweis,ushahidi,d,marudio,kizuizi,mtendaji,NA,NA,1,"c(""distractor1"", ""distractor2"", ""distractor3"")",NA,NA,NA,NA,NA,NA,NA,NA,NA,NA,NA,NA,NA,NA,NA,NA,NA,NA,NA
9b0b4,shallow,flow.Sequence,2_6_0,NA,NA,completion,4566.6,352113.69999999,352111.5,352128.3,356694.9,356696.5,2024-05-28T17:00:49Z,356711.6,Beweis,ushahidi,d,marudio,kizuizi,mtendaji,NA,NA,NA,"c(""distractor1"", ""distractor2"", ""distractor3"")",NA,NA,NA,NA,NA,NA,NA,NA,NA,NA,NA,NA,NA,NA,NA,NA,NA,NA,NA
9b0b4,task,flow.Sequence,2_6,NA,NA,completion,4566.6,352113.69999999,352111.5,352128.3,356694.9,356696.69999999,2024-05-28T17:00:49Z,356711.6,Beweis,ushahidi,d,marudio,kizuizi,mtendaji,NA,NA,NA,"c(""distractor1"", ""distractor2"", ""distractor3"")",NA,NA,NA,NA,NA,NA,NA,NA,NA,NA,NA,NA,NA,NA,NA,NA,NA,NA,NA
9b0b4,Shallow Question,html.Page,2_7_0_0,NA,NA,form submission,26959.299999976,356696.89999998,356694.9,356711.6,383670.89999998,383671.19999999,2024-05-28T17:01:16Z,383686.7,Verstand,ufahamivu,s,shakawa,hadhari,mhandisi,ufahamivu,NA,NA,"c(""distractor1"", ""distractor2"", ""distractor3"")",NA,NA,NA,NA,NA,NA,NA,NA,NA,NA,NA,NA,NA,NA,NA,NA,NA,NA,NA
9b0b4,Save data screen,canvas.Screen,2_7_0_1,NA,NA,timeout,495.89999999997,383674.30000001,383674.978,383686.7,384166.1,384168,2024-05-28T17:01:17Z,384182.6,Verstand,ufahamivu,s,shakawa,hadhari,mhandisi,NA,NA,1,"c(""distractor1"", ""distractor2"", ""distractor3"")",NA,NA,NA,NA,NA,NA,NA,NA,NA,NA,NA,NA,NA,NA,NA,NA,NA,NA,NA
9b0b4,shallow,flow.Sequence,2_7_0,NA,NA,completion,27454.5,356696.80000001,356694.9,356711.6,384166.1,384168.5,2024-05-28T17:01:17Z,384182.6,Verstand,ufahamivu,s,shakawa,hadhari,mhandisi,NA,NA,NA,"c(""distractor1"", ""distractor2"", ""distractor3"")",NA,NA,NA,NA,NA,NA,NA,NA,NA,NA,NA,NA,NA,NA,NA,NA,NA,NA,NA
9b0b4,task,flow.Sequence,2_7,NA,NA,completion,27454.5,356696.80000001,356694.9,356711.6,384166.1,384168.80000001,2024-05-28T17:01:17Z,384182.6,Verstand,ufahamivu,s,shakawa,hadhari,mhandisi,NA,NA,NA,"c(""distractor1"", ""distractor2"", ""distractor3"")",NA,NA,NA,NA,NA,NA,NA,NA,NA,NA,NA,NA,NA,NA,NA,NA,NA,NA,NA
9b0b4,Shallow Question,html.Page,2_8_0_0,NA,NA,form submission,9323.7000000119,384169.09999996,384166.1,384182.6,393506.30000001,393506.69999999,2024-05-28T17:01:26Z,393521.8,Widerstand,usulubu,s,kusababisha,mwalimu,mwenendo,usulubu,NA,NA,"c(""distractor1"", ""distractor2"", ""distractor3"")",NA,NA,NA,NA,NA,NA,NA,NA,NA,NA,NA,NA,NA,NA,NA,NA,NA,NA,NA
9b0b4,Save data screen,canvas.Screen,2_8_0_1,NA,NA,timeout,496.79999999999,393509.80000001,393494.592,393521.8,394002.1,394004.5,2024-05-28T17:01:27Z,394018.6,Widerstand,usulubu,s,kusababisha,mwalimu,mwenendo,NA,NA,1,"c(""distractor1"", ""distractor2"", ""distractor3"")",NA,NA,NA,NA,NA,NA,NA,NA,NA,NA,NA,NA,NA,NA,NA,NA,NA,NA,NA
9b0b4,shallow,flow.Sequence,2_8_0,NA,NA,completion,9819.5,384169,384166.1,384182.6,394002.1,394004.89999998,2024-05-28T17:01:27Z,394018.6,Widerstand,usulubu,s,kusababisha,mwalimu,mwenendo,NA,NA,NA,"c(""distractor1"", ""distractor2"", ""distractor3"")",NA,NA,NA,NA,NA,NA,NA,NA,NA,NA,NA,NA,NA,NA,NA,NA,NA,NA,NA
9b0b4,task,flow.Sequence,2_8,NA,NA,completion,9819.5,384169,384166.1,384182.6,394002.1,394005.19999999,2024-05-28T17:01:27Z,394018.6,Widerstand,usulubu,s,kusababisha,mwalimu,mwenendo,NA,NA,NA,"c(""distractor1"", ""distractor2"", ""distractor3"")",NA,NA,NA,NA,NA,NA,NA,NA,NA,NA,NA,NA,NA,NA,NA,NA,NA,NA,NA
9b0b4,Shallow Question,html.Page,2_9_0_0,NA,NA,form submission,7496.4,394005.5,394002.1,394018.6,401515,401515.39999998,2024-05-28T17:01:34Z,401530.5,Gelegenheit,wakati,d,mchanganyiko,kipaumbele,kushuku,wakati,NA,NA,"c(""distractor1"", ""distractor2"", ""distractor3"")",NA,NA,NA,NA,NA,NA,NA,NA,NA,NA,NA,NA,NA,NA,NA,NA,NA,NA,NA
9b0b4,Save data screen,canvas.Screen,2_9_0_1,NA,NA,timeout,506.20000000001,401518.69999999,401504.4,401530.5,402019.9,402020.30000001,2024-05-28T17:01:35Z,402036.7,Gelegenheit,wakati,d,mchanganyiko,kipaumbele,kushuku,NA,NA,1,"c(""distractor1"", ""distractor2"", ""distractor3"")",NA,NA,NA,NA,NA,NA,NA,NA,NA,NA,NA,NA,NA,NA,NA,NA,NA,NA,NA
9b0b4,shallow,flow.Sequence,2_9_0,NA,NA,completion,8001.3,394005.39999998,394002.1,394018.6,402019.9,402020.59999996,2024-05-28T17:01:35Z,402036.7,Gelegenheit,wakati,d,mchanganyiko,kipaumbele,kushuku,NA,NA,NA,"c(""distractor1"", ""distractor2"", ""distractor3"")",NA,NA,NA,NA,NA,NA,NA,NA,NA,NA,NA,NA,NA,NA,NA,NA,NA,NA,NA
9b0b4,task,flow.Sequence,2_9,NA,NA,completion,8001.3,394005.39999998,394002.1,394018.6,402019.9,402020.69999999,2024-05-28T17:01:35Z,402036.7,Gelegenheit,wakati,d,mchanganyiko,kipaumbele,kushuku,NA,NA,NA,"c(""distractor1"", ""distractor2"", ""distractor3"")",NA,NA,NA,NA,NA,NA,NA,NA,NA,NA,NA,NA,NA,NA,NA,NA,NA,NA,NA
9b0b4,Shallow Question,html.Page,2_10_0_0,NA,NA,form submission,14320.100000012,402020.89999998,402019.9,402036.7,416356.80000001,416357.19999999,2024-05-28T17:01:49Z,416372.3,Schönheit,kirembo,s,mahojiano,msisimko,jitihadi,kirembo,NA,NA,"c(""distractor1"", ""distractor2"", ""distractor3"")",NA,NA,NA,NA,NA,NA,NA,NA,NA,NA,NA,NA,NA,NA,NA,NA,NA,NA,NA
9b0b4,Save data screen,canvas.Screen,2_10_0_1,NA,NA,timeout,497,416361.30000001,416359.706,416372.3,416852.7,416854.5,2024-05-28T17:01:50Z,416869.3,Schönheit,kirembo,s,mahojiano,msisimko,jitihadi,NA,NA,1,"c(""distractor1"", ""distractor2"", ""distractor3"")",NA,NA,NA,NA,NA,NA,NA,NA,NA,NA,NA,NA,NA,NA,NA,NA,NA,NA,NA
9b0b4,shallow,flow.Sequence,2_10_0,NA,NA,completion,14816,402020.80000001,402019.9,402036.7,416852.7,416854.80000001,2024-05-28T17:01:50Z,416869.3,Schönheit,kirembo,s,mahojiano,msisimko,jitihadi,NA,NA,NA,"c(""distractor1"", ""distractor2"", ""distractor3"")",NA,NA,NA,NA,NA,NA,NA,NA,NA,NA,NA,NA,NA,NA,NA,NA,NA,NA,NA
9b0b4,task,flow.Sequence,2_10,NA,NA,completion,14816,402020.80000001,402019.9,402036.7,416852.7,416855,2024-05-28T17:01:50Z,416869.3,Schönheit,kirembo,s,mahojiano,msisimko,jitihadi,NA,NA,NA,"c(""distractor1"", ""distractor2"", ""distractor3"")",NA,NA,NA,NA,NA,NA,NA,NA,NA,NA,NA,NA,NA,NA,NA,NA,NA,NA,NA
9b0b4,Shallow Question,html.Page,2_11_0_0,NA,NA,form submission,2492.7999999642,416855.19999999,416852.7,416869.3,419362.09999996,419362.89999998,2024-05-28T17:01:52Z,419376.7,Symbol,kielezo,s,kinyume,nderemo,utayari,kielezo,NA,NA,"c(""distractor1"", ""distractor2"", ""distractor3"")",NA,NA,NA,NA,NA,NA,NA,NA,NA,NA,NA,NA,NA,NA,NA,NA,NA,NA,NA
9b0b4,Save data screen,canvas.Screen,2_11_0_1,NA,NA,timeout,501.29999999999,419364.39999998,419352.534,419376.7,419861.6,419863.59999996,2024-05-28T17:01:53Z,419878,Symbol,kielezo,s,kinyume,nderemo,utayari,NA,NA,1,"c(""distractor1"", ""distractor2"", ""distractor3"")",NA,NA,NA,NA,NA,NA,NA,NA,NA,NA,NA,NA,NA,NA,NA,NA,NA,NA,NA
9b0b4,shallow,flow.Sequence,2_11_0,NA,NA,completion,2992.3,416855.09999996,416852.7,416869.3,419861.6,419864.09999996,2024-05-28T17:01:53Z,419878,Symbol,kielezo,s,kinyume,nderemo,utayari,NA,NA,NA,"c(""distractor1"", ""distractor2"", ""distractor3"")",NA,NA,NA,NA,NA,NA,NA,NA,NA,NA,NA,NA,NA,NA,NA,NA,NA,NA,NA
9b0b4,task,flow.Sequence,2_11,NA,NA,completion,2992.3,416855.09999996,416852.7,416869.3,419861.6,419864.39999998,2024-05-28T17:01:53Z,419878,Symbol,kielezo,s,kinyume,nderemo,utayari,NA,NA,NA,"c(""distractor1"", ""distractor2"", ""distractor3"")",NA,NA,NA,NA,NA,NA,NA,NA,NA,NA,NA,NA,NA,NA,NA,NA,NA,NA,NA
9b0b4,Shallow Question,html.Page,2_12_0_0,NA,NA,form submission,8334.5999999642,419864.59999996,419861.6,419878,428212.59999996,428213,2024-05-28T17:02:01Z,428228.6,Wettbewerb,ushindani,d,mapendezi,kichocheo,ubaguzi,ushindani,NA,NA,"c(""distractor1"", ""distractor2"", ""distractor3"")",NA,NA,NA,NA,NA,NA,NA,NA,NA,NA,NA,NA,NA,NA,NA,NA,NA,NA,NA
9b0b4,Save data screen,canvas.Screen,2_12_0_1,NA,NA,timeout,508.30000000005,428215.80000001,428208,428228.6,428720.1,428721,2024-05-28T17:02:01Z,428736.9,Wettbewerb,ushindani,d,mapendezi,kichocheo,ubaguzi,NA,NA,1,"c(""distractor1"", ""distractor2"", ""distractor3"")",NA,NA,NA,NA,NA,NA,NA,NA,NA,NA,NA,NA,NA,NA,NA,NA,NA,NA,NA
9b0b4,shallow,flow.Sequence,2_12_0,NA,NA,completion,8842.1,419864.59999996,419861.6,419878,428720.1,428721.19999999,2024-05-28T17:02:01Z,428736.9,Wettbewerb,ushindani,d,mapendezi,kichocheo,ubaguzi,NA,NA,NA,"c(""distractor1"", ""distractor2"", ""distractor3"")",NA,NA,NA,NA,NA,NA,NA,NA,NA,NA,NA,NA,NA,NA,NA,NA,NA,NA,NA
9b0b4,task,flow.Sequence,2_12,NA,NA,completion,8842.1,419864.59999996,419861.6,419878,428720.1,428721.39999998,2024-05-28T17:02:01Z,428736.9,Wettbewerb,ushindani,d,mapendezi,kichocheo,ubaguzi,NA,NA,NA,"c(""distractor1"", ""distractor2"", ""distractor3"")",NA,NA,NA,NA,NA,NA,NA,NA,NA,NA,NA,NA,NA,NA,NA,NA,NA,NA,NA
9b0b4,Shallow Question,html.Page,2_13_0_0,NA,NA,form submission,14921.499999976,428721.59999996,428720.1,428736.9,443658.39999998,443658.89999998,2024-05-28T17:02:16Z,443673.5,Zuwachs,nyongeza,s,matilaba,udhibiti,hudhurio,nyongeza,NA,NA,"c(""distractor1"", ""distractor2"", ""distractor3"")",NA,NA,NA,NA,NA,NA,NA,NA,NA,NA,NA,NA,NA,NA,NA,NA,NA,NA,NA
9b0b4,Save data screen,canvas.Screen,2_13_0_1,NA,NA,timeout,500.20000000001,443662.69999999,443659.964,443673.5,444157.2,444159.09999996,2024-05-28T17:02:17Z,444173.7,Zuwachs,nyongeza,s,matilaba,udhibiti,hudhurio,NA,NA,1,"c(""distractor1"", ""distractor2"", ""distractor3"")",NA,NA,NA,NA,NA,NA,NA,NA,NA,NA,NA,NA,NA,NA,NA,NA,NA,NA,NA
9b0b4,shallow,flow.Sequence,2_13_0,NA,NA,completion,15420.3,428721.5,428720.1,428736.9,444157.2,444160,2024-05-28T17:02:17Z,444173.7,Zuwachs,nyongeza,s,matilaba,udhibiti,hudhurio,NA,NA,NA,"c(""distractor1"", ""distractor2"", ""distractor3"")",NA,NA,NA,NA,NA,NA,NA,NA,NA,NA,NA,NA,NA,NA,NA,NA,NA,NA,NA
9b0b4,task,flow.Sequence,2_13,NA,NA,completion,15420.3,428721.5,428720.1,428736.9,444157.2,444160.30000001,2024-05-28T17:02:17Z,444173.7,Zuwachs,nyongeza,s,matilaba,udhibiti,hudhurio,NA,NA,NA,"c(""distractor1"", ""distractor2"", ""distractor3"")",NA,NA,NA,NA,NA,NA,NA,NA,NA,NA,NA,NA,NA,NA,NA,NA,NA,NA,NA
9b0b4,Shallow Question,html.Page,2_14_0_0,NA,NA,form submission,9882.8,444160.5,444157.2,444173.7,454056.5,454056.80000001,2024-05-28T17:02:27Z,454072.6,Sympathie,mapendano,s,dhamiria,fungamano,maazimio,mapendano,NA,NA,"c(""distractor1"", ""distractor2"", ""distractor3"")",NA,NA,NA,NA,NA,NA,NA,NA,NA,NA,NA,NA,NA,NA,NA,NA,NA,NA,NA
9b0b4,Save data screen,canvas.Screen,2_14_0_1,NA,NA,timeout,505.10000000003,454059.80000001,454047.3,454072.6,454560.8,454562,2024-05-28T17:02:27Z,454577.7,Sympathie,mapendano,s,dhamiria,fungamano,maazimio,NA,NA,1,"c(""distractor1"", ""distractor2"", ""distractor3"")",NA,NA,NA,NA,NA,NA,NA,NA,NA,NA,NA,NA,NA,NA,NA,NA,NA,NA,NA
9b0b4,shallow,flow.Sequence,2_14_0,NA,NA,completion,10387.1,444160.5,444157.2,444173.7,454560.8,454562.5,2024-05-28T17:02:27Z,454577.7,Sympathie,mapendano,s,dhamiria,fungamano,maazimio,NA,NA,NA,"c(""distractor1"", ""distractor2"", ""distractor3"")",NA,NA,NA,NA,NA,NA,NA,NA,NA,NA,NA,NA,NA,NA,NA,NA,NA,NA,NA
9b0b4,task,flow.Sequence,2_14,NA,NA,completion,10387.1,444160.39999998,444157.2,444173.7,454560.8,454562.59999996,2024-05-28T17:02:27Z,454577.7,Sympathie,mapendano,s,dhamiria,fungamano,maazimio,NA,NA,NA,"c(""distractor1"", ""distractor2"", ""distractor3"")",NA,NA,NA,NA,NA,NA,NA,NA,NA,NA,NA,NA,NA,NA,NA,NA,NA,NA,NA
9b0b4,Shallow Question,html.Page,2_15_0_0,NA,NA,form submission,11810.699999976,454562.89999998,454560.8,454577.7,466388.39999998,466388.69999999,2024-05-28T17:02:39Z,466403.6,Zufall,kikuti,s,kukosekana,uchoraji,leseni,kikuti,NA,NA,"c(""distractor1"", ""distractor2"", ""distractor3"")",NA,NA,NA,NA,NA,NA,NA,NA,NA,NA,NA,NA,NA,NA,NA,NA,NA,NA,NA
9b0b4,Save data screen,canvas.Screen,2_15_0_1,NA,NA,timeout,496.90000000002,466392.09999996,466388.826,466403.6,466883.9,466885.69999999,2024-05-28T17:02:40Z,466900.5,Zufall,kikuti,s,kukosekana,uchoraji,leseni,NA,NA,1,"c(""distractor1"", ""distractor2"", ""distractor3"")",NA,NA,NA,NA,NA,NA,NA,NA,NA,NA,NA,NA,NA,NA,NA,NA,NA,NA,NA
9b0b4,shallow,flow.Sequence,2_15_0,NA,NA,completion,12306.2,454562.80000001,454560.8,454577.7,466883.9,466886.19999999,2024-05-28T17:02:40Z,466900.5,Zufall,kikuti,s,kukosekana,uchoraji,leseni,NA,NA,NA,"c(""distractor1"", ""distractor2"", ""distractor3"")",NA,NA,NA,NA,NA,NA,NA,NA,NA,NA,NA,NA,NA,NA,NA,NA,NA,NA,NA
9b0b4,task,flow.Sequence,2_15,NA,NA,completion,12306.2,454562.80000001,454560.8,454577.7,466883.9,466886.5,2024-05-28T17:02:40Z,466900.5,Zufall,kikuti,s,kukosekana,uchoraji,leseni,NA,NA,NA,"c(""distractor1"", ""distractor2"", ""distractor3"")",NA,NA,NA,NA,NA,NA,NA,NA,NA,NA,NA,NA,NA,NA,NA,NA,NA,NA,NA
9b0b4,retrieval block 2 (multiple choice),flow.Loop,2,NA,NA,completion,177406.5,289463.09999996,289460.8,289477.4,466883.9,466886.69999999,2024-05-28T17:02:40Z,466900.5,NA,NA,NA,NA,NA,NA,NA,NA,NA,"c(""distractor1"", ""distractor2"", ""distractor3"")",NA,NA,NA,NA,NA,NA,NA,NA,NA,NA,NA,NA,NA,NA,NA,NA,NA,NA,NA
9b0b4,End,canvas.Screen,3,NA,keypress(Space),response,3066,466887,466883.9,466900.5,469966.5,469969.30000001,2024-05-28T17:02:43Z,469988.1,NA,NA,NA,NA,NA,NA,NA,NA,NA,NULL,NA,NA,NA,NA,NA,NA,NA,NA,NA,NA,NA,NA,NA,NA,NA,NA,NA,NA,NA
9b0b4,root,flow.Sequence,NA,NA,NA,completion,469325,634.30000001192,424.8,641.5,469966.5,469970.39999998,2024-05-28T17:02:43Z,469988.1,NA,NA,NA,NA,NA,NA,NA,NA,NA,NULL,NA,NA,NA,NA,NA,NA,NA,NA,NA,NA,NA,NA,NA,NA,NA,NA,NA,NA,NA
