observation,sender,sender_type,sender_id,response,response_action,ended_on,duration,time_run,time_render,time_show,time_end,time_commit,timestamp,time_switch,german,swahili,enc,distractor1,distractor2,distractor3,response_2,x,correct,distractors,url_vp,url_sess,meta_labjs_version,meta_location,meta_user_agent,meta_platform,meta_language,meta_locale,meta_time_zone,meta_timezone_offset,meta_screen_width,meta_screen_height,meta_scroll_width,meta_scroll_height,meta_window_inner_width,meta_window_inner_height,meta_device_pixel_ratio,meta_labjs_build_flavor,meta_labjs_build_commit
e92e9,Introduction delayed retrieval,canvas.Screen,0,weiter,keypress(Space),response,1520.622,805,649.384,799.378,2320,2327.8999999985,2023-10-19T09:04:22Z,2332.65,NA,NA,NA,NA,NA,NA,NA,NA,NA,NULL,131,4,20.2.4,https://neurocog.fernuni.ch/studies/vweber/delayed/index.html?vp=131&sess=4,"Mozilla/5.0 (Macintosh; Intel Mac OS X 10_15_7) AppleWebKit/537.36 (KHTML, like Gecko) Chrome/118.0.0.0 Safari/537.36",MacIntel,de-DE,de,Europe/Zurich,-120,1440,900,1440,561,1440,609,2,production,f5b4a49f956347addd546a832a3327688c2c0fef
e92e9,Deep Question,html.Page,1_0_0_0,NA,NA,form submission,9676.2499999985,2328.3999999985,2315.984,2332.65,12008.899999999,12009.200000003,2023-10-19T09:04:32Z,12016.226,Lawine,banguko,s,maambukizi,usuluhishi,chekechea,karenga,NA,NA,NULL,NA,NA,NA,NA,NA,NA,NA,NA,NA,NA,NA,NA,NA,NA,NA,NA,NA,NA,NA
e92e9,Save data screen,canvas.Screen,1_0_0_1,NA,NA,timeout,499.98,12010.300000004,11999.56,12016.226,12499.54,12505.200000003,2023-10-19T09:04:32Z,12516.206,Lawine,banguko,s,maambukizi,usuluhishi,chekechea,NA,NA,0,NULL,NA,NA,NA,NA,NA,NA,NA,NA,NA,NA,NA,NA,NA,NA,NA,NA,NA,NA,NA
e92e9,deep,flow.Sequence,1_0_0,NA,NA,completion,10166.89,2328.3999999985,2315.984,2332.65,12499.54,12505.700000003,2023-10-19T09:04:32Z,12516.206,Lawine,banguko,s,maambukizi,usuluhishi,chekechea,NA,NA,NA,NULL,NA,NA,NA,NA,NA,NA,NA,NA,NA,NA,NA,NA,NA,NA,NA,NA,NA,NA,NA
e92e9,task,flow.Sequence,1_0,NA,NA,completion,10166.89,2328.3999999985,2315.984,2332.65,12499.54,12505.899999999,2023-10-19T09:04:32Z,12516.206,Lawine,banguko,s,maambukizi,usuluhishi,chekechea,NA,NA,NA,NULL,NA,NA,NA,NA,NA,NA,NA,NA,NA,NA,NA,NA,NA,NA,NA,NA,NA,NA,NA
e92e9,Deep Question,html.Page,1_1_0_0,NA,NA,form submission,15580.094000004,12506.200000003,12499.54,12516.206,28096.300000004,28096.700000003,2023-10-19T09:04:48Z,28099.565,Können,unaweza,s,kiongozi,bustani,mienendo,x,NA,NA,NULL,NA,NA,NA,NA,NA,NA,NA,NA,NA,NA,NA,NA,NA,NA,NA,NA,NA,NA,NA
e92e9,Save data screen,canvas.Screen,1_1_0_1,NA,NA,timeout,499.98,28097.899999999,28082.899,28099.565,28582.879,28586.700000003,2023-10-19T09:04:48Z,28599.545,Können,unaweza,s,kiongozi,bustani,mienendo,NA,NA,0,NULL,NA,NA,NA,NA,NA,NA,NA,NA,NA,NA,NA,NA,NA,NA,NA,NA,NA,NA,NA
e92e9,deep,flow.Sequence,1_1_0,NA,NA,completion,16066.673,12506.200000003,12499.54,12516.206,28582.879,28587,2023-10-19T09:04:48Z,28599.545,Können,unaweza,s,kiongozi,bustani,mienendo,NA,NA,NA,NULL,NA,NA,NA,NA,NA,NA,NA,NA,NA,NA,NA,NA,NA,NA,NA,NA,NA,NA,NA
e92e9,task,flow.Sequence,1_1,NA,NA,completion,16066.673,12506.100000001,12499.54,12516.206,28582.879,28587.399999999,2023-10-19T09:04:48Z,28599.545,Können,unaweza,s,kiongozi,bustani,mienendo,NA,NA,NA,NULL,NA,NA,NA,NA,NA,NA,NA,NA,NA,NA,NA,NA,NA,NA,NA,NA,NA,NA,NA
e92e9,Deep Question,html.Page,1_2_0_0,NA,NA,form submission,3693.2550000045,28587.700000003,28582.879,28599.545,32292.800000004,32293.399999999,2023-10-19T09:04:52Z,32316.728,Abrechnung,uhasibu,d,kusahihisha,mpambano,mashambulizi,x,NA,NA,NULL,NA,NA,NA,NA,NA,NA,NA,NA,NA,NA,NA,NA,NA,NA,NA,NA,NA,NA,NA
e92e9,Save data screen,canvas.Screen,1_2_0_1,NA,NA,timeout,499.98,32294.600000001,32300.062,32316.728,32800.042,32805.200000003,2023-10-19T09:04:53Z,32816.708,Abrechnung,uhasibu,d,kusahihisha,mpambano,mashambulizi,NA,NA,0,NULL,NA,NA,NA,NA,NA,NA,NA,NA,NA,NA,NA,NA,NA,NA,NA,NA,NA,NA,NA
e92e9,deep,flow.Sequence,1_2_0,NA,NA,completion,4200.497,28587.600000001,28582.879,28599.545,32800.042,32805.700000003,2023-10-19T09:04:53Z,32816.708,Abrechnung,uhasibu,d,kusahihisha,mpambano,mashambulizi,NA,NA,NA,NULL,NA,NA,NA,NA,NA,NA,NA,NA,NA,NA,NA,NA,NA,NA,NA,NA,NA,NA,NA
e92e9,task,flow.Sequence,1_2,NA,NA,completion,4200.497,28587.600000001,28582.879,28599.545,32800.042,32805.899999999,2023-10-19T09:04:53Z,32816.708,Abrechnung,uhasibu,d,kusahihisha,mpambano,mashambulizi,NA,NA,NA,NULL,NA,NA,NA,NA,NA,NA,NA,NA,NA,NA,NA,NA,NA,NA,NA,NA,NA,NA,NA
e92e9,Deep Question,html.Page,1_3_0_0,NA,NA,form submission,2565.1919999985,32806.100000001,32800.042,32816.708,35381.899999999,35382.300000004,2023-10-19T09:04:55Z,35383.272,Kontrolle,kudhibiti,d,mbinguni,kufunga,utegemezi,x,NA,NA,NULL,NA,NA,NA,NA,NA,NA,NA,NA,NA,NA,NA,NA,NA,NA,NA,NA,NA,NA,NA
e92e9,Save data screen,canvas.Screen,1_3_0_1,NA,NA,timeout,499.98,35383.200000003,35366.606,35383.272,35866.586,35870.700000003,2023-10-19T09:04:56Z,35883.252,Kontrolle,kudhibiti,d,mbinguni,kufunga,utegemezi,NA,NA,0,NULL,NA,NA,NA,NA,NA,NA,NA,NA,NA,NA,NA,NA,NA,NA,NA,NA,NA,NA,NA
e92e9,deep,flow.Sequence,1_3_0,NA,NA,completion,3049.878,32806.100000001,32800.042,32816.708,35866.586,35870.800000004,2023-10-19T09:04:56Z,35883.252,Kontrolle,kudhibiti,d,mbinguni,kufunga,utegemezi,NA,NA,NA,NULL,NA,NA,NA,NA,NA,NA,NA,NA,NA,NA,NA,NA,NA,NA,NA,NA,NA,NA,NA
e92e9,task,flow.Sequence,1_3,NA,NA,completion,3049.878,32806.100000001,32800.042,32816.708,35866.586,35871,2023-10-19T09:04:56Z,35883.252,Kontrolle,kudhibiti,d,mbinguni,kufunga,utegemezi,NA,NA,NA,NULL,NA,NA,NA,NA,NA,NA,NA,NA,NA,NA,NA,NA,NA,NA,NA,NA,NA,NA,NA
e92e9,Deep Question,html.Page,1_4_0_0,NA,NA,form submission,3778.248,35871.100000001,35866.586,35883.252,39661.5,39661.800000004,2023-10-19T09:05:00Z,39666.434,Kanzler,diwani,d,rasilmali,mahitaji,maabudu,x,NA,NA,NULL,NA,NA,NA,NA,NA,NA,NA,NA,NA,NA,NA,NA,NA,NA,NA,NA,NA,NA,NA
e92e9,Save data screen,canvas.Screen,1_4_0_1,NA,NA,timeout,499.98,39662.5,39649.768,39666.434,40149.748,40153.700000003,2023-10-19T09:05:00Z,40166.414,Kanzler,diwani,d,rasilmali,mahitaji,maabudu,NA,NA,0,NULL,NA,NA,NA,NA,NA,NA,NA,NA,NA,NA,NA,NA,NA,NA,NA,NA,NA,NA,NA
e92e9,deep,flow.Sequence,1_4_0,NA,NA,completion,4266.496,35871,35866.586,35883.252,40149.748,40154.200000003,2023-10-19T09:05:00Z,40166.414,Kanzler,diwani,d,rasilmali,mahitaji,maabudu,NA,NA,NA,NULL,NA,NA,NA,NA,NA,NA,NA,NA,NA,NA,NA,NA,NA,NA,NA,NA,NA,NA,NA
e92e9,task,flow.Sequence,1_4,NA,NA,completion,4266.496,35871,35866.586,35883.252,40149.748,40154.300000004,2023-10-19T09:05:00Z,40166.414,Kanzler,diwani,d,rasilmali,mahitaji,maabudu,NA,NA,NA,NULL,NA,NA,NA,NA,NA,NA,NA,NA,NA,NA,NA,NA,NA,NA,NA,NA,NA,NA,NA
e92e9,Deep Question,html.Page,1_5_0_0,NA,NA,form submission,5926.286000003,40154.600000001,40149.748,40166.414,46092.700000003,46093.200000003,2023-10-19T09:05:06Z,46100.145,Kreativität,ubunifu,s,mratibu,mwendelezo,makubaliano,x,NA,NA,NULL,NA,NA,NA,NA,NA,NA,NA,NA,NA,NA,NA,NA,NA,NA,NA,NA,NA,NA,NA
e92e9,Save data screen,canvas.Screen,1_5_0_1,NA,NA,timeout,499.98,46094.300000004,46083.479,46100.145,46583.459,46587.5,2023-10-19T09:05:06Z,46600.125,Kreativität,ubunifu,s,mratibu,mwendelezo,makubaliano,NA,NA,0,NULL,NA,NA,NA,NA,NA,NA,NA,NA,NA,NA,NA,NA,NA,NA,NA,NA,NA,NA,NA
e92e9,deep,flow.Sequence,1_5_0,NA,NA,completion,6417.045,40154.600000001,40149.748,40166.414,46583.459,46587.800000004,2023-10-19T09:05:06Z,46600.125,Kreativität,ubunifu,s,mratibu,mwendelezo,makubaliano,NA,NA,NA,NULL,NA,NA,NA,NA,NA,NA,NA,NA,NA,NA,NA,NA,NA,NA,NA,NA,NA,NA,NA
e92e9,task,flow.Sequence,1_5,NA,NA,completion,6417.045,40154.399999999,40149.748,40166.414,46583.459,46587.899999999,2023-10-19T09:05:06Z,46600.125,Kreativität,ubunifu,s,mratibu,mwendelezo,makubaliano,NA,NA,NA,NULL,NA,NA,NA,NA,NA,NA,NA,NA,NA,NA,NA,NA,NA,NA,NA,NA,NA,NA,NA
e92e9,Deep Question,html.Page,1_6_0_0,NA,NA,form submission,14358.575000003,46588.200000003,46583.459,46600.125,60958.700000003,60959.100000001,2023-10-19T09:05:21Z,60967.522,Aufstand,ugomaji,s,mazidio,msingi,kujieleza,udosulu,NA,NA,NULL,NA,NA,NA,NA,NA,NA,NA,NA,NA,NA,NA,NA,NA,NA,NA,NA,NA,NA,NA
e92e9,Save data screen,canvas.Screen,1_6_0_1,NA,NA,timeout,499.98,60959.800000004,60950.856,60967.522,61450.836,61456.100000001,2023-10-19T09:05:21Z,61467.502,Aufstand,ugomaji,s,mazidio,msingi,kujieleza,NA,NA,0,NULL,NA,NA,NA,NA,NA,NA,NA,NA,NA,NA,NA,NA,NA,NA,NA,NA,NA,NA,NA
e92e9,deep,flow.Sequence,1_6_0,NA,NA,completion,14850.711,46588.200000003,46583.459,46600.125,61450.836,61456.5,2023-10-19T09:05:21Z,61467.502,Aufstand,ugomaji,s,mazidio,msingi,kujieleza,NA,NA,NA,NULL,NA,NA,NA,NA,NA,NA,NA,NA,NA,NA,NA,NA,NA,NA,NA,NA,NA,NA,NA
e92e9,task,flow.Sequence,1_6,NA,NA,completion,14850.711,46588.100000001,46583.459,46600.125,61450.836,61456.700000003,2023-10-19T09:05:21Z,61467.502,Aufstand,ugomaji,s,mazidio,msingi,kujieleza,NA,NA,NA,NULL,NA,NA,NA,NA,NA,NA,NA,NA,NA,NA,NA,NA,NA,NA,NA,NA,NA,NA,NA
e92e9,Deep Question,html.Page,1_7_0_0,NA,NA,form submission,3805.198000003,61456.899999999,61450.836,61467.502,65272.700000003,65273.100000001,2023-10-19T09:05:25Z,65284.016,System,maongozi,s,chokochoko,nuksani,mitaani,x,NA,NA,NULL,NA,NA,NA,NA,NA,NA,NA,NA,NA,NA,NA,NA,NA,NA,NA,NA,NA,NA,NA
e92e9,Save data screen,canvas.Screen,1_7_0_1,NA,NA,timeout,499.98,65275.700000003,65267.35,65284.016,65767.33,65771,2023-10-19T09:05:26Z,65783.996,System,maongozi,s,chokochoko,nuksani,mitaani,NA,NA,0,NULL,NA,NA,NA,NA,NA,NA,NA,NA,NA,NA,NA,NA,NA,NA,NA,NA,NA,NA,NA
e92e9,deep,flow.Sequence,1_7_0,NA,NA,completion,4299.828,61456.899999999,61450.836,61467.502,65767.33,65771.300000004,2023-10-19T09:05:26Z,65783.996,System,maongozi,s,chokochoko,nuksani,mitaani,NA,NA,NA,NULL,NA,NA,NA,NA,NA,NA,NA,NA,NA,NA,NA,NA,NA,NA,NA,NA,NA,NA,NA
e92e9,task,flow.Sequence,1_7,NA,NA,completion,4299.828,61456.800000004,61450.836,61467.502,65767.33,65771.600000001,2023-10-19T09:05:26Z,65783.996,System,maongozi,s,chokochoko,nuksani,mitaani,NA,NA,NA,NULL,NA,NA,NA,NA,NA,NA,NA,NA,NA,NA,NA,NA,NA,NA,NA,NA,NA,NA,NA
e92e9,Deep Question,html.Page,1_8_0_0,NA,NA,form submission,3323.504,65771.700000003,65767.33,65783.996,69107.5,69108,2023-10-19T09:05:29Z,69117.196,Übersicht,kilindo,d,mgusano,chipukizi,kulinganisha,x,NA,NA,NULL,NA,NA,NA,NA,NA,NA,NA,NA,NA,NA,NA,NA,NA,NA,NA,NA,NA,NA,NA
e92e9,Save data screen,canvas.Screen,1_8_0_1,NA,NA,timeout,499.98000000001,69110.399999999,69100.53,69117.196,69600.51,69605,2023-10-19T09:05:29Z,69617.176,Übersicht,kilindo,d,mgusano,chipukizi,kulinganisha,NA,NA,0,NULL,NA,NA,NA,NA,NA,NA,NA,NA,NA,NA,NA,NA,NA,NA,NA,NA,NA,NA,NA
e92e9,deep,flow.Sequence,1_8_0,NA,NA,completion,3816.514,65771.700000003,65767.33,65783.996,69600.51,69605.5,2023-10-19T09:05:29Z,69617.176,Übersicht,kilindo,d,mgusano,chipukizi,kulinganisha,NA,NA,NA,NULL,NA,NA,NA,NA,NA,NA,NA,NA,NA,NA,NA,NA,NA,NA,NA,NA,NA,NA,NA
e92e9,task,flow.Sequence,1_8,NA,NA,completion,3816.514,65771.600000001,65767.33,65783.996,69600.51,69605.600000001,2023-10-19T09:05:29Z,69617.176,Übersicht,kilindo,d,mgusano,chipukizi,kulinganisha,NA,NA,NA,NULL,NA,NA,NA,NA,NA,NA,NA,NA,NA,NA,NA,NA,NA,NA,NA,NA,NA,NA,NA
e92e9,Deep Question,html.Page,1_9_0_0,NA,NA,form submission,8894.9240000015,69605.899999999,69600.51,69617.176,78512.100000001,78512.5,2023-10-19T09:05:38Z,78517.474,Kultur,utamaduni,d,shetani,gerezani,mazingira,utamaduni,NA,NA,NULL,NA,NA,NA,NA,NA,NA,NA,NA,NA,NA,NA,NA,NA,NA,NA,NA,NA,NA,NA
e92e9,Save data screen,canvas.Screen,1_9_0_1,NA,NA,timeout,499.98,78514.800000004,78500.808,78517.474,79000.788,79003,2023-10-19T09:05:39Z,79017.454,Kultur,utamaduni,d,shetani,gerezani,mazingira,NA,NA,1,NULL,NA,NA,NA,NA,NA,NA,NA,NA,NA,NA,NA,NA,NA,NA,NA,NA,NA,NA,NA
e92e9,deep,flow.Sequence,1_9_0,NA,NA,completion,9383.612,69605.800000004,69600.51,69617.176,79000.788,79003.300000004,2023-10-19T09:05:39Z,79017.454,Kultur,utamaduni,d,shetani,gerezani,mazingira,NA,NA,NA,NULL,NA,NA,NA,NA,NA,NA,NA,NA,NA,NA,NA,NA,NA,NA,NA,NA,NA,NA,NA
e92e9,task,flow.Sequence,1_9,NA,NA,completion,9383.612,69605.800000004,69600.51,69617.176,79000.788,79003.399999999,2023-10-19T09:05:39Z,79017.454,Kultur,utamaduni,d,shetani,gerezani,mazingira,NA,NA,NA,NULL,NA,NA,NA,NA,NA,NA,NA,NA,NA,NA,NA,NA,NA,NA,NA,NA,NA,NA,NA
e92e9,Deep Question,html.Page,1_10_0_0,NA,NA,form submission,4153.546,79003.800000004,79000.788,79017.454,83171,83171.399999999,2023-10-19T09:05:43Z,83184.581,Verzögerung,kuchelewa,d,mwakilishi,mwanauchumi,jaribio,x,NA,NA,NULL,NA,NA,NA,NA,NA,NA,NA,NA,NA,NA,NA,NA,NA,NA,NA,NA,NA,NA,NA
e92e9,Save data screen,canvas.Screen,1_10_0_1,NA,NA,timeout,499.98,83173.700000003,83167.915,83184.581,83667.895,83669.5,2023-10-19T09:05:44Z,83684.561,Verzögerung,kuchelewa,d,mwakilishi,mwanauchumi,jaribio,NA,NA,0,NULL,NA,NA,NA,NA,NA,NA,NA,NA,NA,NA,NA,NA,NA,NA,NA,NA,NA,NA,NA
e92e9,deep,flow.Sequence,1_10_0,NA,NA,completion,4650.441,79003.700000003,79000.788,79017.454,83667.895,83669.800000004,2023-10-19T09:05:44Z,83684.561,Verzögerung,kuchelewa,d,mwakilishi,mwanauchumi,jaribio,NA,NA,NA,NULL,NA,NA,NA,NA,NA,NA,NA,NA,NA,NA,NA,NA,NA,NA,NA,NA,NA,NA,NA
e92e9,task,flow.Sequence,1_10,NA,NA,completion,4650.441,79003.600000001,79000.788,79017.454,83667.895,83670,2023-10-19T09:05:44Z,83684.561,Verzögerung,kuchelewa,d,mwakilishi,mwanauchumi,jaribio,NA,NA,NA,NULL,NA,NA,NA,NA,NA,NA,NA,NA,NA,NA,NA,NA,NA,NA,NA,NA,NA,NA,NA
e92e9,Deep Question,html.Page,1_11_0_0,NA,NA,form submission,2821.2390000045,83670.300000004,83667.895,83684.561,86505.800000004,86506.200000003,2023-10-19T09:05:46Z,86517.781,Sänger,mwimbaji,s,msichana,shughuli,mshirika,x,NA,NA,NULL,NA,NA,NA,NA,NA,NA,NA,NA,NA,NA,NA,NA,NA,NA,NA,NA,NA,NA,NA
e92e9,Save data screen,canvas.Screen,1_11_0_1,NA,NA,timeout,499.98,86507.200000003,86501.115,86517.781,87001.095,87002.5,2023-10-19T09:05:47Z,87017.761,Sänger,mwimbaji,s,msichana,shughuli,mshirika,NA,NA,0,NULL,NA,NA,NA,NA,NA,NA,NA,NA,NA,NA,NA,NA,NA,NA,NA,NA,NA,NA,NA
e92e9,deep,flow.Sequence,1_11_0,NA,NA,completion,3316.534,83670.200000003,83667.895,83684.561,87001.095,87002.899999999,2023-10-19T09:05:47Z,87017.761,Sänger,mwimbaji,s,msichana,shughuli,mshirika,NA,NA,NA,NULL,NA,NA,NA,NA,NA,NA,NA,NA,NA,NA,NA,NA,NA,NA,NA,NA,NA,NA,NA
e92e9,task,flow.Sequence,1_11,NA,NA,completion,3316.534,83670.100000001,83667.895,83684.561,87001.095,87003.100000001,2023-10-19T09:05:47Z,87017.761,Sänger,mwimbaji,s,msichana,shughuli,mshirika,NA,NA,NA,NULL,NA,NA,NA,NA,NA,NA,NA,NA,NA,NA,NA,NA,NA,NA,NA,NA,NA,NA,NA
e92e9,Deep Question,html.Page,1_12_0_0,NA,NA,form submission,6160.0390000045,87003.300000004,87001.095,87017.761,93177.800000004,93178.200000003,2023-10-19T09:05:53Z,93184.891,Angreifer,mshambulizi,s,kitengo,tasinia,usafirishaji,x,NA,NA,NULL,NA,NA,NA,NA,NA,NA,NA,NA,NA,NA,NA,NA,NA,NA,NA,NA,NA,NA,NA
e92e9,Save data screen,canvas.Screen,1_12_0_1,NA,NA,timeout,499.98,93181,93168.225,93184.891,93668.205,93670.300000004,2023-10-19T09:05:54Z,93684.871,Angreifer,mshambulizi,s,kitengo,tasinia,usafirishaji,NA,NA,0,NULL,NA,NA,NA,NA,NA,NA,NA,NA,NA,NA,NA,NA,NA,NA,NA,NA,NA,NA,NA
e92e9,deep,flow.Sequence,1_12_0,NA,NA,completion,6650.444,87003.200000003,87001.095,87017.761,93668.205,93670.5,2023-10-19T09:05:54Z,93684.871,Angreifer,mshambulizi,s,kitengo,tasinia,usafirishaji,NA,NA,NA,NULL,NA,NA,NA,NA,NA,NA,NA,NA,NA,NA,NA,NA,NA,NA,NA,NA,NA,NA,NA
e92e9,task,flow.Sequence,1_12,NA,NA,completion,6650.444,87003.200000003,87001.095,87017.761,93668.205,93670.700000003,2023-10-19T09:05:54Z,93684.871,Angreifer,mshambulizi,s,kitengo,tasinia,usafirishaji,NA,NA,NA,NULL,NA,NA,NA,NA,NA,NA,NA,NA,NA,NA,NA,NA,NA,NA,NA,NA,NA,NA,NA
e92e9,Deep Question,html.Page,1_13_0_0,NA,NA,form submission,2597.5289999985,93671.100000001,93668.205,93684.871,96282.399999999,96282.700000003,2023-10-19T09:05:56Z,96284.767,Gefährdung,kuhatarisha,d,uchokozi,udhaifu,makorowezo,x,NA,NA,NULL,NA,NA,NA,NA,NA,NA,NA,NA,NA,NA,NA,NA,NA,NA,NA,NA,NA,NA,NA
e92e9,Save data screen,canvas.Screen,1_13_0_1,NA,NA,timeout,499.98,96283.700000003,96268.101,96284.767,96768.081,96769.800000004,2023-10-19T09:05:57Z,96784.747,Gefährdung,kuhatarisha,d,uchokozi,udhaifu,makorowezo,NA,NA,0,NULL,NA,NA,NA,NA,NA,NA,NA,NA,NA,NA,NA,NA,NA,NA,NA,NA,NA,NA,NA
e92e9,deep,flow.Sequence,1_13_0,NA,NA,completion,3083.21,93671,93668.205,93684.871,96768.081,96770.300000004,2023-10-19T09:05:57Z,96784.747,Gefährdung,kuhatarisha,d,uchokozi,udhaifu,makorowezo,NA,NA,NA,NULL,NA,NA,NA,NA,NA,NA,NA,NA,NA,NA,NA,NA,NA,NA,NA,NA,NA,NA,NA
e92e9,task,flow.Sequence,1_13,NA,NA,completion,3083.21,93670.899999999,93668.205,93684.871,96768.081,96770.399999999,2023-10-19T09:05:57Z,96784.747,Gefährdung,kuhatarisha,d,uchokozi,udhaifu,makorowezo,NA,NA,NA,NULL,NA,NA,NA,NA,NA,NA,NA,NA,NA,NA,NA,NA,NA,NA,NA,NA,NA,NA,NA
e92e9,Deep Question,html.Page,1_14_0_0,NA,NA,form submission,2684.6529999985,96770.800000004,96768.081,96784.747,99469.399999999,99469.899999999,2023-10-19T09:05:59Z,99484.639,Prüfung,mtihani,s,mkulima,mtizamo,ufumbuzi,x,NA,NA,NULL,NA,NA,NA,NA,NA,NA,NA,NA,NA,NA,NA,NA,NA,NA,NA,NA,NA,NA,NA
e92e9,Save data screen,canvas.Screen,1_14_0_1,NA,NA,timeout,499.98000000001,99472.200000003,99467.973,99484.639,99967.953,99971.800000004,2023-10-19T09:06:00Z,99984.619,Prüfung,mtihani,s,mkulima,mtizamo,ufumbuzi,NA,NA,0,NULL,NA,NA,NA,NA,NA,NA,NA,NA,NA,NA,NA,NA,NA,NA,NA,NA,NA,NA,NA
e92e9,deep,flow.Sequence,1_14_0,NA,NA,completion,3183.206,96770.800000004,96768.081,96784.747,99967.953,99972,2023-10-19T09:06:00Z,99984.619,Prüfung,mtihani,s,mkulima,mtizamo,ufumbuzi,NA,NA,NA,NULL,NA,NA,NA,NA,NA,NA,NA,NA,NA,NA,NA,NA,NA,NA,NA,NA,NA,NA,NA
e92e9,task,flow.Sequence,1_14,NA,NA,completion,3183.206,96770.700000003,96768.081,96784.747,99967.953,99972.200000003,2023-10-19T09:06:00Z,99984.619,Prüfung,mtihani,s,mkulima,mtizamo,ufumbuzi,NA,NA,NA,NULL,NA,NA,NA,NA,NA,NA,NA,NA,NA,NA,NA,NA,NA,NA,NA,NA,NA,NA,NA
e92e9,Deep Question,html.Page,1_15_0_0,NA,NA,form submission,1731.381,99972.600000001,99967.953,99984.619,101716,101716.4,2023-10-19T09:06:02Z,101717.883,Körper,kiwiliwili,d,mapambano,mpatanishi,kiolezo,x,NA,NA,NULL,NA,NA,NA,NA,NA,NA,NA,NA,NA,NA,NA,NA,NA,NA,NA,NA,NA,NA,NA
e92e9,Save data screen,canvas.Screen,1_15_0_1,NA,NA,timeout,500.61500000001,101717.2,101701.217,101717.883,102201.832,102206.5,2023-10-19T09:06:02Z,102218.498,Körper,kiwiliwili,d,mapambano,mpatanishi,kiolezo,NA,NA,0,NULL,NA,NA,NA,NA,NA,NA,NA,NA,NA,NA,NA,NA,NA,NA,NA,NA,NA,NA,NA
e92e9,deep,flow.Sequence,1_15_0,NA,NA,completion,2217.213,99972.5,99967.953,99984.619,102201.832,102206.9,2023-10-19T09:06:02Z,102218.498,Körper,kiwiliwili,d,mapambano,mpatanishi,kiolezo,NA,NA,NA,NULL,NA,NA,NA,NA,NA,NA,NA,NA,NA,NA,NA,NA,NA,NA,NA,NA,NA,NA,NA
e92e9,task,flow.Sequence,1_15,NA,NA,completion,2217.213,99972.5,99967.953,99984.619,102201.832,102207.1,2023-10-19T09:06:02Z,102218.498,Körper,kiwiliwili,d,mapambano,mpatanishi,kiolezo,NA,NA,NA,NULL,NA,NA,NA,NA,NA,NA,NA,NA,NA,NA,NA,NA,NA,NA,NA,NA,NA,NA,NA
e92e9,retrieval block 1 (cued recall),flow.Loop,1,NA,NA,completion,99869.182,2328.3999999985,2315.984,2332.65,102201.832,102207.4,2023-10-19T09:06:02Z,102218.498,NA,NA,NA,NA,NA,NA,NA,NA,NA,NULL,NA,NA,NA,NA,NA,NA,NA,NA,NA,NA,NA,NA,NA,NA,NA,NA,NA,NA,NA
e92e9,Shallow Question,html.Page,2_0_0_0,NA,NA,form submission,6859.702000003,102207.6,102201.832,102218.498,109078.2,109078.6,2023-10-19T09:06:09Z,109084.89,Prüfung,mtihani,s,mkulima,mtizamo,ufumbuzi,mtihani,NA,NA,"c(""distractor1"", ""distractor2"", ""distractor3"")",NA,NA,NA,NA,NA,NA,NA,NA,NA,NA,NA,NA,NA,NA,NA,NA,NA,NA,NA
e92e9,Save data screen,canvas.Screen,2_0_0_1,NA,NA,timeout,499.98,109080.8,109068.224,109084.89,109568.204,109573.1,2023-10-19T09:06:09Z,109584.87,Prüfung,mtihani,s,mkulima,mtizamo,ufumbuzi,NA,NA,1,"c(""distractor1"", ""distractor2"", ""distractor3"")",NA,NA,NA,NA,NA,NA,NA,NA,NA,NA,NA,NA,NA,NA,NA,NA,NA,NA,NA
e92e9,shallow,flow.Sequence,2_0_0,NA,NA,completion,7349.706,102207.6,102201.832,102218.498,109568.204,109573.5,2023-10-19T09:06:09Z,109584.87,Prüfung,mtihani,s,mkulima,mtizamo,ufumbuzi,NA,NA,NA,"c(""distractor1"", ""distractor2"", ""distractor3"")",NA,NA,NA,NA,NA,NA,NA,NA,NA,NA,NA,NA,NA,NA,NA,NA,NA,NA,NA
e92e9,task,flow.Sequence,2_0,NA,NA,completion,7349.706,102207.6,102201.832,102218.498,109568.204,109573.7,2023-10-19T09:06:09Z,109584.87,Prüfung,mtihani,s,mkulima,mtizamo,ufumbuzi,NA,NA,NA,"c(""distractor1"", ""distractor2"", ""distractor3"")",NA,NA,NA,NA,NA,NA,NA,NA,NA,NA,NA,NA,NA,NA,NA,NA,NA,NA,NA
e92e9,Shallow Question,html.Page,2_1_0_0,NA,NA,form submission,4692.9300000045,109573.9,109568.204,109584.87,114277.8,114278.1,2023-10-19T09:06:14Z,114285.334,Körper,kiwiliwili,d,mapambano,mpatanishi,kiolezo,kiwiliwili,NA,NA,"c(""distractor1"", ""distractor2"", ""distractor3"")",NA,NA,NA,NA,NA,NA,NA,NA,NA,NA,NA,NA,NA,NA,NA,NA,NA,NA,NA
e92e9,Save data screen,canvas.Screen,2_1_0_1,NA,NA,timeout,499.98,114280.3,114268.668,114285.334,114768.648,114773.7,2023-10-19T09:06:15Z,114785.314,Körper,kiwiliwili,d,mapambano,mpatanishi,kiolezo,NA,NA,1,"c(""distractor1"", ""distractor2"", ""distractor3"")",NA,NA,NA,NA,NA,NA,NA,NA,NA,NA,NA,NA,NA,NA,NA,NA,NA,NA,NA
e92e9,shallow,flow.Sequence,2_1_0,NA,NA,completion,5183.778,109573.9,109568.204,109584.87,114768.648,114774.1,2023-10-19T09:06:15Z,114785.314,Körper,kiwiliwili,d,mapambano,mpatanishi,kiolezo,NA,NA,NA,"c(""distractor1"", ""distractor2"", ""distractor3"")",NA,NA,NA,NA,NA,NA,NA,NA,NA,NA,NA,NA,NA,NA,NA,NA,NA,NA,NA
e92e9,task,flow.Sequence,2_1,NA,NA,completion,5183.778,109573.8,109568.204,109584.87,114768.648,114774.2,2023-10-19T09:06:15Z,114785.314,Körper,kiwiliwili,d,mapambano,mpatanishi,kiolezo,NA,NA,NA,"c(""distractor1"", ""distractor2"", ""distractor3"")",NA,NA,NA,NA,NA,NA,NA,NA,NA,NA,NA,NA,NA,NA,NA,NA,NA,NA,NA
e92e9,Shallow Question,html.Page,2_2_0_0,NA,NA,form submission,4724.4860000045,114774.3,114768.648,114785.314,119509.8,119510.2,2023-10-19T09:06:19Z,119518.458,Kultur,utamaduni,d,shetani,gerezani,mazingira,utamaduni,NA,NA,"c(""distractor1"", ""distractor2"", ""distractor3"")",NA,NA,NA,NA,NA,NA,NA,NA,NA,NA,NA,NA,NA,NA,NA,NA,NA,NA,NA
e92e9,Save data screen,canvas.Screen,2_2_0_1,NA,NA,timeout,499.98,119512.3,119501.792,119518.458,120001.772,120004.4,2023-10-19T09:06:20Z,120018.438,Kultur,utamaduni,d,shetani,gerezani,mazingira,NA,NA,1,"c(""distractor1"", ""distractor2"", ""distractor3"")",NA,NA,NA,NA,NA,NA,NA,NA,NA,NA,NA,NA,NA,NA,NA,NA,NA,NA,NA
e92e9,shallow,flow.Sequence,2_2_0,NA,NA,completion,5216.458,114774.3,114768.648,114785.314,120001.772,120004.7,2023-10-19T09:06:20Z,120018.438,Kultur,utamaduni,d,shetani,gerezani,mazingira,NA,NA,NA,"c(""distractor1"", ""distractor2"", ""distractor3"")",NA,NA,NA,NA,NA,NA,NA,NA,NA,NA,NA,NA,NA,NA,NA,NA,NA,NA,NA
e92e9,task,flow.Sequence,2_2,NA,NA,completion,5216.458,114774.3,114768.648,114785.314,120001.772,120004.8,2023-10-19T09:06:20Z,120018.438,Kultur,utamaduni,d,shetani,gerezani,mazingira,NA,NA,NA,"c(""distractor1"", ""distractor2"", ""distractor3"")",NA,NA,NA,NA,NA,NA,NA,NA,NA,NA,NA,NA,NA,NA,NA,NA,NA,NA,NA
e92e9,Shallow Question,html.Page,2_3_0_0,NA,NA,form submission,10051.262000003,120005,120001.772,120018.438,130069.7,130070.1,2023-10-19T09:06:30Z,130068.586,Übersicht,kilindo,d,mgusano,chipukizi,kulinganisha,kulinganisha,NA,NA,"c(""distractor1"", ""distractor2"", ""distractor3"")",NA,NA,NA,NA,NA,NA,NA,NA,NA,NA,NA,NA,NA,NA,NA,NA,NA,NA,NA
e92e9,Save data screen,canvas.Screen,2_3_0_1,NA,NA,timeout,499.98000000001,130072.2,130051.92,130068.586,130551.9,130556.2,2023-10-19T09:06:30Z,130568.566,Übersicht,kilindo,d,mgusano,chipukizi,kulinganisha,NA,NA,0,"c(""distractor1"", ""distractor2"", ""distractor3"")",NA,NA,NA,NA,NA,NA,NA,NA,NA,NA,NA,NA,NA,NA,NA,NA,NA,NA,NA
e92e9,shallow,flow.Sequence,2_3_0,NA,NA,completion,10533.462,120005,120001.772,120018.438,130551.9,130556.7,2023-10-19T09:06:30Z,130568.566,Übersicht,kilindo,d,mgusano,chipukizi,kulinganisha,NA,NA,NA,"c(""distractor1"", ""distractor2"", ""distractor3"")",NA,NA,NA,NA,NA,NA,NA,NA,NA,NA,NA,NA,NA,NA,NA,NA,NA,NA,NA
e92e9,task,flow.Sequence,2_3,NA,NA,completion,10533.462,120005,120001.772,120018.438,130551.9,130556.9,2023-10-19T09:06:30Z,130568.566,Übersicht,kilindo,d,mgusano,chipukizi,kulinganisha,NA,NA,NA,"c(""distractor1"", ""distractor2"", ""distractor3"")",NA,NA,NA,NA,NA,NA,NA,NA,NA,NA,NA,NA,NA,NA,NA,NA,NA,NA,NA
e92e9,Shallow Question,html.Page,2_4_0_0,NA,NA,form submission,8941.3339999985,130557.1,130551.9,130568.566,139509.9,139510.3,2023-10-19T09:06:39Z,139535.555,Angreifer,mshambulizi,s,kitengo,tasinia,usafirishaji,usafirishaji,NA,NA,"c(""distractor1"", ""distractor2"", ""distractor3"")",NA,NA,NA,NA,NA,NA,NA,NA,NA,NA,NA,NA,NA,NA,NA,NA,NA,NA,NA
e92e9,Save data screen,canvas.Screen,2_4_0_1,NA,NA,timeout,499.98000000001,139512.8,139518.889,139535.555,140018.869,140021.5,2023-10-19T09:06:40Z,140035.535,Angreifer,mshambulizi,s,kitengo,tasinia,usafirishaji,NA,NA,0,"c(""distractor1"", ""distractor2"", ""distractor3"")",NA,NA,NA,NA,NA,NA,NA,NA,NA,NA,NA,NA,NA,NA,NA,NA,NA,NA,NA
e92e9,shallow,flow.Sequence,2_4_0,NA,NA,completion,9450.303,130557.1,130551.9,130568.566,140018.869,140021.9,2023-10-19T09:06:40Z,140035.535,Angreifer,mshambulizi,s,kitengo,tasinia,usafirishaji,NA,NA,NA,"c(""distractor1"", ""distractor2"", ""distractor3"")",NA,NA,NA,NA,NA,NA,NA,NA,NA,NA,NA,NA,NA,NA,NA,NA,NA,NA,NA
e92e9,task,flow.Sequence,2_4,NA,NA,completion,9450.303,130557,130551.9,130568.566,140018.869,140022,2023-10-19T09:06:40Z,140035.535,Angreifer,mshambulizi,s,kitengo,tasinia,usafirishaji,NA,NA,NA,"c(""distractor1"", ""distractor2"", ""distractor3"")",NA,NA,NA,NA,NA,NA,NA,NA,NA,NA,NA,NA,NA,NA,NA,NA,NA,NA,NA
e92e9,Shallow Question,html.Page,2_5_0_0,NA,NA,form submission,3341.2650000045,140022.2,140018.869,140035.535,143376.8,143377.1,2023-10-19T09:06:43Z,143385.401,Können,unaweza,s,kiongozi,bustani,mienendo,unaweza,NA,NA,"c(""distractor1"", ""distractor2"", ""distractor3"")",NA,NA,NA,NA,NA,NA,NA,NA,NA,NA,NA,NA,NA,NA,NA,NA,NA,NA,NA
e92e9,Save data screen,canvas.Screen,2_5_0_1,NA,NA,timeout,499.97999999998,143377.7,143368.735,143385.401,143868.715,143870.5,2023-10-19T09:06:44Z,143885.381,Können,unaweza,s,kiongozi,bustani,mienendo,NA,NA,1,"c(""distractor1"", ""distractor2"", ""distractor3"")",NA,NA,NA,NA,NA,NA,NA,NA,NA,NA,NA,NA,NA,NA,NA,NA,NA,NA,NA
e92e9,shallow,flow.Sequence,2_5_0,NA,NA,completion,3833.18,140022.2,140018.869,140035.535,143868.715,143870.9,2023-10-19T09:06:44Z,143885.381,Können,unaweza,s,kiongozi,bustani,mienendo,NA,NA,NA,"c(""distractor1"", ""distractor2"", ""distractor3"")",NA,NA,NA,NA,NA,NA,NA,NA,NA,NA,NA,NA,NA,NA,NA,NA,NA,NA,NA
e92e9,task,flow.Sequence,2_5,NA,NA,completion,3833.18,140022.2,140018.869,140035.535,143868.715,143871.1,2023-10-19T09:06:44Z,143885.381,Können,unaweza,s,kiongozi,bustani,mienendo,NA,NA,NA,"c(""distractor1"", ""distractor2"", ""distractor3"")",NA,NA,NA,NA,NA,NA,NA,NA,NA,NA,NA,NA,NA,NA,NA,NA,NA,NA,NA
e92e9,Shallow Question,html.Page,2_6_0_0,NA,NA,form submission,6542.819000003,143871.2,143868.715,143885.381,150428.2,150428.7,2023-10-19T09:06:50Z,150435.979,Kreativität,ubunifu,s,mratibu,mwendelezo,makubaliano,mwendelezo,NA,NA,"c(""distractor1"", ""distractor2"", ""distractor3"")",NA,NA,NA,NA,NA,NA,NA,NA,NA,NA,NA,NA,NA,NA,NA,NA,NA,NA,NA
e92e9,Save data screen,canvas.Screen,2_6_0_1,NA,NA,timeout,499.98000000001,150430.9,150419.313,150435.979,150919.293,150923.4,2023-10-19T09:06:51Z,150935.959,Kreativität,ubunifu,s,mratibu,mwendelezo,makubaliano,NA,NA,0,"c(""distractor1"", ""distractor2"", ""distractor3"")",NA,NA,NA,NA,NA,NA,NA,NA,NA,NA,NA,NA,NA,NA,NA,NA,NA,NA,NA
e92e9,shallow,flow.Sequence,2_6_0,NA,NA,completion,7033.912,143871.2,143868.715,143885.381,150919.293,150923.7,2023-10-19T09:06:51Z,150935.959,Kreativität,ubunifu,s,mratibu,mwendelezo,makubaliano,NA,NA,NA,"c(""distractor1"", ""distractor2"", ""distractor3"")",NA,NA,NA,NA,NA,NA,NA,NA,NA,NA,NA,NA,NA,NA,NA,NA,NA,NA,NA
e92e9,task,flow.Sequence,2_6,NA,NA,completion,7033.912,143871.1,143868.715,143885.381,150919.293,150923.9,2023-10-19T09:06:51Z,150935.959,Kreativität,ubunifu,s,mratibu,mwendelezo,makubaliano,NA,NA,NA,"c(""distractor1"", ""distractor2"", ""distractor3"")",NA,NA,NA,NA,NA,NA,NA,NA,NA,NA,NA,NA,NA,NA,NA,NA,NA,NA,NA
e92e9,Shallow Question,html.Page,2_7_0_0,NA,NA,form submission,7358.6410000015,150924.1,150919.293,150935.959,158294.6,158294.9,2023-10-19T09:06:58Z,158303.011,Kontrolle,kudhibiti,d,mbinguni,kufunga,utegemezi,kudhibiti,NA,NA,"c(""distractor1"", ""distractor2"", ""distractor3"")",NA,NA,NA,NA,NA,NA,NA,NA,NA,NA,NA,NA,NA,NA,NA,NA,NA,NA,NA
e92e9,Save data screen,canvas.Screen,2_7_0_1,NA,NA,timeout,499.98000000001,158297.1,158286.345,158303.011,158786.325,158791.6,2023-10-19T09:06:59Z,158802.991,Kontrolle,kudhibiti,d,mbinguni,kufunga,utegemezi,NA,NA,1,"c(""distractor1"", ""distractor2"", ""distractor3"")",NA,NA,NA,NA,NA,NA,NA,NA,NA,NA,NA,NA,NA,NA,NA,NA,NA,NA,NA
e92e9,shallow,flow.Sequence,2_7_0,NA,NA,completion,7850.366,150924.1,150919.293,150935.959,158786.325,158791.8,2023-10-19T09:06:59Z,158802.991,Kontrolle,kudhibiti,d,mbinguni,kufunga,utegemezi,NA,NA,NA,"c(""distractor1"", ""distractor2"", ""distractor3"")",NA,NA,NA,NA,NA,NA,NA,NA,NA,NA,NA,NA,NA,NA,NA,NA,NA,NA,NA
e92e9,task,flow.Sequence,2_7,NA,NA,completion,7850.366,150924,150919.293,150935.959,158786.325,158792,2023-10-19T09:06:59Z,158802.991,Kontrolle,kudhibiti,d,mbinguni,kufunga,utegemezi,NA,NA,NA,"c(""distractor1"", ""distractor2"", ""distractor3"")",NA,NA,NA,NA,NA,NA,NA,NA,NA,NA,NA,NA,NA,NA,NA,NA,NA,NA,NA
e92e9,Shallow Question,html.Page,2_8_0_0,NA,NA,form submission,6008.009,158792.2,158786.325,158802.991,164811,164811.6,2023-10-19T09:07:05Z,164819.417,Lawine,banguko,s,maambukizi,usuluhishi,chekechea,banguko,NA,NA,"c(""distractor1"", ""distractor2"", ""distractor3"")",NA,NA,NA,NA,NA,NA,NA,NA,NA,NA,NA,NA,NA,NA,NA,NA,NA,NA,NA
e92e9,Save data screen,canvas.Screen,2_8_0_1,NA,NA,timeout,499.98000000001,164814.4,164802.751,164819.417,165302.731,165306.6,2023-10-19T09:07:05Z,165319.397,Lawine,banguko,s,maambukizi,usuluhishi,chekechea,NA,NA,1,"c(""distractor1"", ""distractor2"", ""distractor3"")",NA,NA,NA,NA,NA,NA,NA,NA,NA,NA,NA,NA,NA,NA,NA,NA,NA,NA,NA
e92e9,shallow,flow.Sequence,2_8_0,NA,NA,completion,6499.74,158792.1,158786.325,158802.991,165302.731,165307,2023-10-19T09:07:05Z,165319.397,Lawine,banguko,s,maambukizi,usuluhishi,chekechea,NA,NA,NA,"c(""distractor1"", ""distractor2"", ""distractor3"")",NA,NA,NA,NA,NA,NA,NA,NA,NA,NA,NA,NA,NA,NA,NA,NA,NA,NA,NA
e92e9,task,flow.Sequence,2_8,NA,NA,completion,6499.74,158792,158786.325,158802.991,165302.731,165307.1,2023-10-19T09:07:05Z,165319.397,Lawine,banguko,s,maambukizi,usuluhishi,chekechea,NA,NA,NA,"c(""distractor1"", ""distractor2"", ""distractor3"")",NA,NA,NA,NA,NA,NA,NA,NA,NA,NA,NA,NA,NA,NA,NA,NA,NA,NA,NA
e92e9,Shallow Question,html.Page,2_9_0_0,NA,NA,form submission,7474.303000003,165307.4,165302.731,165319.397,172793.7,172794,2023-10-19T09:07:13Z,172803.064,Sänger,mwimbaji,s,msichana,shughuli,mshirika,mwimbaji,NA,NA,"c(""distractor1"", ""distractor2"", ""distractor3"")",NA,NA,NA,NA,NA,NA,NA,NA,NA,NA,NA,NA,NA,NA,NA,NA,NA,NA,NA
e92e9,Save data screen,canvas.Screen,2_9_0_1,NA,NA,timeout,499.97999999998,172797.1,172786.398,172803.064,173286.378,173290.9,2023-10-19T09:07:13Z,173303.044,Sänger,mwimbaji,s,msichana,shughuli,mshirika,NA,NA,1,"c(""distractor1"", ""distractor2"", ""distractor3"")",NA,NA,NA,NA,NA,NA,NA,NA,NA,NA,NA,NA,NA,NA,NA,NA,NA,NA,NA
e92e9,shallow,flow.Sequence,2_9_0,NA,NA,completion,7966.981,165307.3,165302.731,165319.397,173286.378,173291.1,2023-10-19T09:07:13Z,173303.044,Sänger,mwimbaji,s,msichana,shughuli,mshirika,NA,NA,NA,"c(""distractor1"", ""distractor2"", ""distractor3"")",NA,NA,NA,NA,NA,NA,NA,NA,NA,NA,NA,NA,NA,NA,NA,NA,NA,NA,NA
e92e9,task,flow.Sequence,2_9,NA,NA,completion,7966.981,165307.3,165302.731,165319.397,173286.378,173291.2,2023-10-19T09:07:13Z,173303.044,Sänger,mwimbaji,s,msichana,shughuli,mshirika,NA,NA,NA,"c(""distractor1"", ""distractor2"", ""distractor3"")",NA,NA,NA,NA,NA,NA,NA,NA,NA,NA,NA,NA,NA,NA,NA,NA,NA,NA,NA
e92e9,Shallow Question,html.Page,2_10_0_0,NA,NA,form submission,9107.956,173291.3,173286.378,173303.044,182411,182411.2,2023-10-19T09:07:22Z,182419.898,Gefährdung,kuhatarisha,d,uchokozi,udhaifu,makorowezo,makorowezo,NA,NA,"c(""distractor1"", ""distractor2"", ""distractor3"")",NA,NA,NA,NA,NA,NA,NA,NA,NA,NA,NA,NA,NA,NA,NA,NA,NA,NA,NA
e92e9,Save data screen,canvas.Screen,2_10_0_1,NA,NA,timeout,499.98000000001,182413.1,182403.232,182419.898,182903.212,182907.1,2023-10-19T09:07:23Z,182919.878,Gefährdung,kuhatarisha,d,uchokozi,udhaifu,makorowezo,NA,NA,0,"c(""distractor1"", ""distractor2"", ""distractor3"")",NA,NA,NA,NA,NA,NA,NA,NA,NA,NA,NA,NA,NA,NA,NA,NA,NA,NA,NA
e92e9,shallow,flow.Sequence,2_10_0,NA,NA,completion,9600.168,173291.2,173286.378,173303.044,182903.212,182907.5,2023-10-19T09:07:23Z,182919.878,Gefährdung,kuhatarisha,d,uchokozi,udhaifu,makorowezo,NA,NA,NA,"c(""distractor1"", ""distractor2"", ""distractor3"")",NA,NA,NA,NA,NA,NA,NA,NA,NA,NA,NA,NA,NA,NA,NA,NA,NA,NA,NA
e92e9,task,flow.Sequence,2_10,NA,NA,completion,9600.168,173291.2,173286.378,173303.044,182903.212,182907.7,2023-10-19T09:07:23Z,182919.878,Gefährdung,kuhatarisha,d,uchokozi,udhaifu,makorowezo,NA,NA,NA,"c(""distractor1"", ""distractor2"", ""distractor3"")",NA,NA,NA,NA,NA,NA,NA,NA,NA,NA,NA,NA,NA,NA,NA,NA,NA,NA,NA
e92e9,Shallow Question,html.Page,2_11_0_0,NA,NA,form submission,8891.122,182907.8,182903.212,182919.878,191811,191811.3,2023-10-19T09:07:32Z,191820.434,Abrechnung,uhasibu,d,kusahihisha,mpambano,mashambulizi,uhasibu,NA,NA,"c(""distractor1"", ""distractor2"", ""distractor3"")",NA,NA,NA,NA,NA,NA,NA,NA,NA,NA,NA,NA,NA,NA,NA,NA,NA,NA,NA
e92e9,Save data screen,canvas.Screen,2_11_0_1,NA,NA,timeout,499.97999999998,191813.3,191803.768,191820.434,192303.748,192309.4,2023-10-19T09:07:32Z,192320.414,Abrechnung,uhasibu,d,kusahihisha,mpambano,mashambulizi,NA,NA,1,"c(""distractor1"", ""distractor2"", ""distractor3"")",NA,NA,NA,NA,NA,NA,NA,NA,NA,NA,NA,NA,NA,NA,NA,NA,NA,NA,NA
e92e9,shallow,flow.Sequence,2_11_0,NA,NA,completion,9383.87,182907.8,182903.212,182919.878,192303.748,192309.8,2023-10-19T09:07:32Z,192320.414,Abrechnung,uhasibu,d,kusahihisha,mpambano,mashambulizi,NA,NA,NA,"c(""distractor1"", ""distractor2"", ""distractor3"")",NA,NA,NA,NA,NA,NA,NA,NA,NA,NA,NA,NA,NA,NA,NA,NA,NA,NA,NA
e92e9,task,flow.Sequence,2_11,NA,NA,completion,9383.87,182907.8,182903.212,182919.878,192303.748,192310,2023-10-19T09:07:32Z,192320.414,Abrechnung,uhasibu,d,kusahihisha,mpambano,mashambulizi,NA,NA,NA,"c(""distractor1"", ""distractor2"", ""distractor3"")",NA,NA,NA,NA,NA,NA,NA,NA,NA,NA,NA,NA,NA,NA,NA,NA,NA,NA,NA
e92e9,Shallow Question,html.Page,2_12_0_0,NA,NA,form submission,3290.6860000015,192310.2,192303.748,192320.414,195611.1,195611.5,2023-10-19T09:07:35Z,195620.282,Kanzler,diwani,d,rasilmali,mahitaji,maabudu,diwani,NA,NA,"c(""distractor1"", ""distractor2"", ""distractor3"")",NA,NA,NA,NA,NA,NA,NA,NA,NA,NA,NA,NA,NA,NA,NA,NA,NA,NA,NA
e92e9,Save data screen,canvas.Screen,2_12_0_1,NA,NA,timeout,499.97999999998,195612.4,195603.616,195620.282,196103.596,196106.6,2023-10-19T09:07:36Z,196120.262,Kanzler,diwani,d,rasilmali,mahitaji,maabudu,NA,NA,1,"c(""distractor1"", ""distractor2"", ""distractor3"")",NA,NA,NA,NA,NA,NA,NA,NA,NA,NA,NA,NA,NA,NA,NA,NA,NA,NA,NA
e92e9,shallow,flow.Sequence,2_12_0,NA,NA,completion,3783.182,192310.2,192303.748,192320.414,196103.596,196106.9,2023-10-19T09:07:36Z,196120.262,Kanzler,diwani,d,rasilmali,mahitaji,maabudu,NA,NA,NA,"c(""distractor1"", ""distractor2"", ""distractor3"")",NA,NA,NA,NA,NA,NA,NA,NA,NA,NA,NA,NA,NA,NA,NA,NA,NA,NA,NA
e92e9,task,flow.Sequence,2_12,NA,NA,completion,3783.182,192310.1,192303.748,192320.414,196103.596,196107,2023-10-19T09:07:36Z,196120.262,Kanzler,diwani,d,rasilmali,mahitaji,maabudu,NA,NA,NA,"c(""distractor1"", ""distractor2"", ""distractor3"")",NA,NA,NA,NA,NA,NA,NA,NA,NA,NA,NA,NA,NA,NA,NA,NA,NA,NA,NA
e92e9,Shallow Question,html.Page,2_13_0_0,NA,NA,form submission,5874.5380000045,196107.1,196103.596,196120.262,201994.8,201995,2023-10-19T09:07:42Z,202003.893,System,maongozi,s,chokochoko,nuksani,mitaani,maongozi,NA,NA,"c(""distractor1"", ""distractor2"", ""distractor3"")",NA,NA,NA,NA,NA,NA,NA,NA,NA,NA,NA,NA,NA,NA,NA,NA,NA,NA,NA
e92e9,Save data screen,canvas.Screen,2_13_0_1,NA,NA,timeout,499.97999999998,201996.8,201987.227,202003.893,202487.207,202489.4,2023-10-19T09:07:42Z,202503.873,System,maongozi,s,chokochoko,nuksani,mitaani,NA,NA,1,"c(""distractor1"", ""distractor2"", ""distractor3"")",NA,NA,NA,NA,NA,NA,NA,NA,NA,NA,NA,NA,NA,NA,NA,NA,NA,NA,NA
e92e9,shallow,flow.Sequence,2_13_0,NA,NA,completion,6366.945,196107.1,196103.596,196120.262,202487.207,202489.6,2023-10-19T09:07:42Z,202503.873,System,maongozi,s,chokochoko,nuksani,mitaani,NA,NA,NA,"c(""distractor1"", ""distractor2"", ""distractor3"")",NA,NA,NA,NA,NA,NA,NA,NA,NA,NA,NA,NA,NA,NA,NA,NA,NA,NA,NA
e92e9,task,flow.Sequence,2_13,NA,NA,completion,6366.945,196107,196103.596,196120.262,202487.207,202489.8,2023-10-19T09:07:42Z,202503.873,System,maongozi,s,chokochoko,nuksani,mitaani,NA,NA,NA,"c(""distractor1"", ""distractor2"", ""distractor3"")",NA,NA,NA,NA,NA,NA,NA,NA,NA,NA,NA,NA,NA,NA,NA,NA,NA,NA,NA
e92e9,Shallow Question,html.Page,2_14_0_0,NA,NA,form submission,5960.127,202489.8,202487.207,202503.873,208464,208464.3,2023-10-19T09:07:48Z,208470.301,Aufstand,ugomaji,s,mazidio,msingi,kujieleza,ugomaji,NA,NA,"c(""distractor1"", ""distractor2"", ""distractor3"")",NA,NA,NA,NA,NA,NA,NA,NA,NA,NA,NA,NA,NA,NA,NA,NA,NA,NA,NA
e92e9,Save data screen,canvas.Screen,2_14_0_1,NA,NA,timeout,499.97999999998,208466.1,208453.635,208470.301,208953.615,208959,2023-10-19T09:07:49Z,208970.281,Aufstand,ugomaji,s,mazidio,msingi,kujieleza,NA,NA,1,"c(""distractor1"", ""distractor2"", ""distractor3"")",NA,NA,NA,NA,NA,NA,NA,NA,NA,NA,NA,NA,NA,NA,NA,NA,NA,NA,NA
e92e9,shallow,flow.Sequence,2_14_0,NA,NA,completion,6449.742,202489.8,202487.207,202503.873,208953.615,208959.5,2023-10-19T09:07:49Z,208970.281,Aufstand,ugomaji,s,mazidio,msingi,kujieleza,NA,NA,NA,"c(""distractor1"", ""distractor2"", ""distractor3"")",NA,NA,NA,NA,NA,NA,NA,NA,NA,NA,NA,NA,NA,NA,NA,NA,NA,NA,NA
e92e9,task,flow.Sequence,2_14,NA,NA,completion,6449.742,202489.8,202487.207,202503.873,208953.615,208959.7,2023-10-19T09:07:49Z,208970.281,Aufstand,ugomaji,s,mazidio,msingi,kujieleza,NA,NA,NA,"c(""distractor1"", ""distractor2"", ""distractor3"")",NA,NA,NA,NA,NA,NA,NA,NA,NA,NA,NA,NA,NA,NA,NA,NA,NA,NA,NA
e92e9,Shallow Question,html.Page,2_15_0_0,NA,NA,form submission,6509.719,208959.9,208953.615,208970.281,215480,215480.3,2023-10-19T09:07:55Z,215487.516,Verzögerung,kuchelewa,d,mwakilishi,mwanauchumi,jaribio,kuchelewa,NA,NA,"c(""distractor1"", ""distractor2"", ""distractor3"")",NA,NA,NA,NA,NA,NA,NA,NA,NA,NA,NA,NA,NA,NA,NA,NA,NA,NA,NA
e92e9,Save data screen,canvas.Screen,2_15_0_1,NA,NA,timeout,499.98000000001,215482.4,215470.85,215487.516,215970.83,215973.7,2023-10-19T09:07:56Z,215987.496,Verzögerung,kuchelewa,d,mwakilishi,mwanauchumi,jaribio,NA,NA,1,"c(""distractor1"", ""distractor2"", ""distractor3"")",NA,NA,NA,NA,NA,NA,NA,NA,NA,NA,NA,NA,NA,NA,NA,NA,NA,NA,NA
e92e9,shallow,flow.Sequence,2_15_0,NA,NA,completion,7000.549,208959.7,208953.615,208970.281,215970.83,215974.1,2023-10-19T09:07:56Z,215987.496,Verzögerung,kuchelewa,d,mwakilishi,mwanauchumi,jaribio,NA,NA,NA,"c(""distractor1"", ""distractor2"", ""distractor3"")",NA,NA,NA,NA,NA,NA,NA,NA,NA,NA,NA,NA,NA,NA,NA,NA,NA,NA,NA
e92e9,task,flow.Sequence,2_15,NA,NA,completion,7000.549,208959.7,208953.615,208970.281,215970.83,215974.2,2023-10-19T09:07:56Z,215987.496,Verzögerung,kuchelewa,d,mwakilishi,mwanauchumi,jaribio,NA,NA,NA,"c(""distractor1"", ""distractor2"", ""distractor3"")",NA,NA,NA,NA,NA,NA,NA,NA,NA,NA,NA,NA,NA,NA,NA,NA,NA,NA,NA
e92e9,retrieval block 2 (multiple choice),flow.Loop,2,NA,NA,completion,113752.332,102207.5,102201.832,102218.498,215970.83,215974.4,2023-10-19T09:07:56Z,215987.496,NA,NA,NA,NA,NA,NA,NA,NA,NA,"c(""distractor1"", ""distractor2"", ""distractor3"")",NA,NA,NA,NA,NA,NA,NA,NA,NA,NA,NA,NA,NA,NA,NA,NA,NA,NA,NA
e92e9,End,canvas.Screen,3,NA,keypress(Space),response,1347.004,215974.6,215970.83,215987.496,217334.5,217340.6,2023-10-19T09:07:57Z,217354.108,NA,NA,NA,NA,NA,NA,NA,NA,NA,NULL,NA,NA,NA,NA,NA,NA,NA,NA,NA,NA,NA,NA,NA,NA,NA,NA,NA,NA,NA
e92e9,root,flow.Sequence,NA,NA,NA,completion,216535.122,804.89999999851,649.384,799.378,217334.5,217341.3,2023-10-19T09:07:57Z,217354.108,NA,NA,NA,NA,NA,NA,NA,NA,NA,NULL,NA,NA,NA,NA,NA,NA,NA,NA,NA,NA,NA,NA,NA,NA,NA,NA,NA,NA,NA