observation,sender,sender_type,sender_id,response,response_action,ended_on,duration,time_run,time_render,time_show,time_end,time_commit,timestamp,time_switch,distractors,german,swahili,enc,distractor1,distractor2,distractor3,response_2,x,correct,x_2,url_vp,url_sess,meta_labjs_version,meta_location,meta_user_agent,meta_platform,meta_language,meta_locale,meta_time_zone,meta_timezone_offset,meta_screen_width,meta_screen_height,meta_scroll_width,meta_scroll_height,meta_window_inner_width,meta_window_inner_height,meta_device_pixel_ratio,meta_labjs_build_flavor,meta_labjs_build_commit
fb6b2,Introduction general,canvas.Screen,0,weiter,keypress(q),response,334534.60299998,2521.3999999762,2426.754,2543.297,337077.89999998,337082.69999993,2023-04-15T08:35:12Z,337085.403,NULL,NA,NA,NA,NA,NA,NA,NA,NA,NA,NA,206,3,20.2.4,https://neurocog.fernuni.ch/studies/vweber/sfink/encoding_immediate/index.html?vp=206&sess=3,"Mozilla/5.0 (Windows NT 10.0; Win64; x64) AppleWebKit/537.36 (KHTML, like Gecko) Chrome/111.0.0.0 Safari/537.36",Win32,de-CH,de,Europe/Zurich,-120,1536,864,1536,706,1536,754,1.25,production,f5b4a49f956347addd546a832a3327688c2c0fef
fb6b2,Introduction practice,canvas.Screen,1_0,NA,keypress(Space),response,4725.097,337083.10000002,337066.142,337085.403,341810.5,341811.69999993,2023-04-15T08:35:17Z,341814.819,NULL,NA,NA,NA,NA,NA,NA,NA,NA,NA,NA,NA,NA,NA,NA,NA,NA,NA,NA,NA,NA,NA,NA,NA,NA,NA,NA,NA,NA,NA
fb6b2,Deep Question,html.Page,1_1_0_0_0,NA,NA,form submission,6932.7810000238,341811.89999998,341797.918,341814.819,348747.60000002,348747.79999995,2023-04-15T08:35:23Z,348759.154,"c(""distractor1"", ""distractor2"", ""distractor3"")",Qualität,mtindo,d,NA,NA,NA,zz,NA,NA,NA,NA,NA,NA,NA,NA,NA,NA,NA,NA,NA,NA,NA,NA,NA,NA,NA,NA,NA,NA
fb6b2,"""Richtig""-Screen",canvas.Screen,1_1_0_0_1,NA,NA,skipped,NA,348749,NA,NA,348747.60000002,348749.19999993,2023-04-15T08:35:23Z,348759.154,"c(""distractor1"", ""distractor2"", ""distractor3"")",Qualität,mtindo,d,NA,NA,NA,NA,NA,NA,NA,NA,NA,NA,NA,NA,NA,NA,NA,NA,NA,NA,NA,NA,NA,NA,NA,NA,NA,NA
fb6b2,"""Falsch""-Screen",canvas.Screen,1_1_0_0_2,NA,NA,timeout,4996.643,348750.10000002,348743.355,348759.154,353738.454,353742.79999995,2023-04-15T08:35:28Z,353755.797,"c(""distractor1"", ""distractor2"", ""distractor3"")",Qualität,mtindo,d,NA,NA,NA,NA,NA,0,NA,NA,NA,NA,NA,NA,NA,NA,NA,NA,NA,NA,NA,NA,NA,NA,NA,NA,NA,NA
fb6b2,deep,flow.Sequence,1_1_0_0,NA,NA,completion,11923.635,341811.89999998,341797.918,341814.819,353738.454,353743,2023-04-15T08:35:28Z,353755.797,"c(""distractor1"", ""distractor2"", ""distractor3"")",Qualität,mtindo,d,NA,NA,NA,NA,NA,NA,NA,NA,NA,NA,NA,NA,NA,NA,NA,NA,NA,NA,NA,NA,NA,NA,NA,NA,NA,NA
fb6b2,shallow,flow.Sequence,1_1_0_1,NA,NA,skipped,NA,353743.10000002,NA,NA,353738.454,353743.29999995,2023-04-15T08:35:28Z,353755.797,"c(""distractor1"", ""distractor2"", ""distractor3"")",Qualität,mtindo,d,NA,NA,NA,NA,NA,NA,NA,NA,NA,NA,NA,NA,NA,NA,NA,NA,NA,NA,NA,NA,NA,NA,NA,NA,NA,NA
fb6b2,task,flow.Sequence,1_1_0,NA,NA,completion,11923.635,341811.79999995,341797.918,341814.819,353738.454,353743.5,2023-04-15T08:35:28Z,353755.797,"c(""distractor1"", ""distractor2"", ""distractor3"")",Qualität,mtindo,d,NA,NA,NA,NA,NA,NA,NA,NA,NA,NA,NA,NA,NA,NA,NA,NA,NA,NA,NA,NA,NA,NA,NA,NA,NA,NA
fb6b2,Deep Question,html.Page,1_1_1_0_0,NA,NA,form submission,4089.0029999523,353743.69999993,353738.454,353755.797,357844.79999995,357845,2023-04-15T08:35:33Z,357851.653,"c(""distractor1"", ""distractor2"", ""distractor3"")",Schatten,kivuli,d,NA,NA,NA,hh,NA,NA,NA,NA,NA,NA,NA,NA,NA,NA,NA,NA,NA,NA,NA,NA,NA,NA,NA,NA,NA,NA
fb6b2,"""Richtig""-Screen",canvas.Screen,1_1_1_0_1,NA,NA,skipped,NA,357847.10000002,NA,NA,357844.79999995,357847.29999995,2023-04-15T08:35:33Z,357851.653,"c(""distractor1"", ""distractor2"", ""distractor3"")",Schatten,kivuli,d,NA,NA,NA,NA,NA,NA,NA,NA,NA,NA,NA,NA,NA,NA,NA,NA,NA,NA,NA,NA,NA,NA,NA,NA,NA,NA
fb6b2,"""Falsch""-Screen",canvas.Screen,1_1_1_0_2,NA,NA,timeout,4996.02,357848,357835.582,357851.653,362831.561,362833.10000002,2023-04-15T08:35:38Z,362847.673,"c(""distractor1"", ""distractor2"", ""distractor3"")",Schatten,kivuli,d,NA,NA,NA,NA,NA,0,NA,NA,NA,NA,NA,NA,NA,NA,NA,NA,NA,NA,NA,NA,NA,NA,NA,NA,NA,NA
fb6b2,deep,flow.Sequence,1_1_1_0,NA,NA,completion,9075.764,353743.5,353738.454,353755.797,362831.561,362833.69999993,2023-04-15T08:35:38Z,362847.673,"c(""distractor1"", ""distractor2"", ""distractor3"")",Schatten,kivuli,d,NA,NA,NA,NA,NA,NA,NA,NA,NA,NA,NA,NA,NA,NA,NA,NA,NA,NA,NA,NA,NA,NA,NA,NA,NA,NA
fb6b2,shallow,flow.Sequence,1_1_1_1,NA,NA,skipped,NA,362834,NA,NA,362831.561,362834.19999993,2023-04-15T08:35:38Z,362847.673,"c(""distractor1"", ""distractor2"", ""distractor3"")",Schatten,kivuli,d,NA,NA,NA,NA,NA,NA,NA,NA,NA,NA,NA,NA,NA,NA,NA,NA,NA,NA,NA,NA,NA,NA,NA,NA,NA,NA
fb6b2,task,flow.Sequence,1_1_1,NA,NA,completion,9075.764,353743.5,353738.454,353755.797,362831.561,362834.60000002,2023-04-15T08:35:38Z,362847.673,"c(""distractor1"", ""distractor2"", ""distractor3"")",Schatten,kivuli,d,NA,NA,NA,NA,NA,NA,NA,NA,NA,NA,NA,NA,NA,NA,NA,NA,NA,NA,NA,NA,NA,NA,NA,NA,NA,NA
fb6b2,Deep Question,html.Page,1_1_2_0_0,NA,NA,form submission,4107.327,362835,362831.561,362847.673,366955,366955.39999998,2023-04-15T08:35:42Z,366960.875,"c(""distractor1"", ""distractor2"", ""distractor3"")",Gesundheit,salama,d,NA,NA,NA,gg,NA,NA,NA,NA,NA,NA,NA,NA,NA,NA,NA,NA,NA,NA,NA,NA,NA,NA,NA,NA,NA,NA
fb6b2,"""Richtig""-Screen",canvas.Screen,1_1_2_0_1,NA,NA,skipped,NA,366957.39999998,NA,NA,366955,366957.60000002,2023-04-15T08:35:42Z,366960.875,"c(""distractor1"", ""distractor2"", ""distractor3"")",Gesundheit,salama,d,NA,NA,NA,NA,NA,NA,NA,NA,NA,NA,NA,NA,NA,NA,NA,NA,NA,NA,NA,NA,NA,NA,NA,NA,NA,NA
fb6b2,"""Falsch""-Screen",canvas.Screen,1_1_2_0_2,NA,NA,timeout,4995.95,366958.19999993,366944.342,366960.875,371940.571,371941.69999993,2023-04-15T08:35:47Z,371956.825,"c(""distractor1"", ""distractor2"", ""distractor3"")",Gesundheit,salama,d,NA,NA,NA,NA,NA,0,NA,NA,NA,NA,NA,NA,NA,NA,NA,NA,NA,NA,NA,NA,NA,NA,NA,NA,NA,NA
fb6b2,deep,flow.Sequence,1_1_2_0,NA,NA,completion,9092.898,362834.89999998,362831.561,362847.673,371940.571,371942.10000002,2023-04-15T08:35:47Z,371956.825,"c(""distractor1"", ""distractor2"", ""distractor3"")",Gesundheit,salama,d,NA,NA,NA,NA,NA,NA,NA,NA,NA,NA,NA,NA,NA,NA,NA,NA,NA,NA,NA,NA,NA,NA,NA,NA,NA,NA
fb6b2,shallow,flow.Sequence,1_1_2_1,NA,NA,skipped,NA,371942.19999993,NA,NA,371940.571,371942.39999998,2023-04-15T08:35:47Z,371956.825,"c(""distractor1"", ""distractor2"", ""distractor3"")",Gesundheit,salama,d,NA,NA,NA,NA,NA,NA,NA,NA,NA,NA,NA,NA,NA,NA,NA,NA,NA,NA,NA,NA,NA,NA,NA,NA,NA,NA
fb6b2,task,flow.Sequence,1_1_2,NA,NA,completion,9092.898,362834.79999995,362831.561,362847.673,371940.571,371942.69999993,2023-04-15T08:35:47Z,371956.825,"c(""distractor1"", ""distractor2"", ""distractor3"")",Gesundheit,salama,d,NA,NA,NA,NA,NA,NA,NA,NA,NA,NA,NA,NA,NA,NA,NA,NA,NA,NA,NA,NA,NA,NA,NA,NA,NA,NA
fb6b2,deep,flow.Sequence,1_1_3_0,NA,NA,skipped,NA,371943,NA,NA,371940.571,371943.10000002,2023-04-15T08:35:47Z,371956.825,"c(""distractor1"", ""distractor2"", ""distractor3"")",Rückhalt,msaada,s,muhula,auwali,kiwimbe,NA,NA,NA,NA,NA,NA,NA,NA,NA,NA,NA,NA,NA,NA,NA,NA,NA,NA,NA,NA,NA,NA,NA
fb6b2,Shallow Question,html.Page,1_1_3_1_0,NA,NA,form submission,6000.8749999285,371943.29999995,371940.571,371956.825,377957.69999993,377957.89999998,2023-04-15T08:35:53Z,377968.507,"c(""distractor1"", ""distractor2"", ""distractor3"")",Rückhalt,msaada,s,muhula,auwali,kiwimbe,msaada,NA,NA,NA,NA,NA,NA,NA,NA,NA,NA,NA,NA,NA,NA,NA,NA,NA,NA,NA,NA,NA,NA
fb6b2,"""Richtig""-Screen",canvas.Screen,1_1_3_1_1,NA,NA,timeout,4995.941,377959.89999998,377951.929,377968.507,382947.923,382948.89999998,2023-04-15T08:35:58Z,382964.448,"c(""distractor1"", ""distractor2"", ""distractor3"")",Rückhalt,msaada,s,muhula,auwali,kiwimbe,NA,NA,1,NA,NA,NA,NA,NA,NA,NA,NA,NA,NA,NA,NA,NA,NA,NA,NA,NA,NA,NA,NA
fb6b2,"""Falsch""-Screen",canvas.Screen,1_1_3_1_2,NA,NA,skipped,NA,382954.60000002,NA,NA,382947.923,382955,2023-04-15T08:35:58Z,382964.448,"c(""distractor1"", ""distractor2"", ""distractor3"")",Rückhalt,msaada,s,muhula,auwali,kiwimbe,NA,NA,NA,NA,NA,NA,NA,NA,NA,NA,NA,NA,NA,NA,NA,NA,NA,NA,NA,NA,NA,NA,NA
fb6b2,shallow,flow.Sequence,1_1_3_1,NA,NA,completion,10991.098,371943.19999993,371940.571,371956.825,382947.923,382955.5,2023-04-15T08:35:58Z,382964.448,"c(""distractor1"", ""distractor2"", ""distractor3"")",Rückhalt,msaada,s,muhula,auwali,kiwimbe,NA,NA,NA,NA,NA,NA,NA,NA,NA,NA,NA,NA,NA,NA,NA,NA,NA,NA,NA,NA,NA,NA,NA
fb6b2,task,flow.Sequence,1_1_3,NA,NA,completion,10991.098,371942.89999998,371940.571,371956.825,382947.923,382955.79999995,2023-04-15T08:35:58Z,382964.448,"c(""distractor1"", ""distractor2"", ""distractor3"")",Rückhalt,msaada,s,muhula,auwali,kiwimbe,NA,NA,NA,NA,NA,NA,NA,NA,NA,NA,NA,NA,NA,NA,NA,NA,NA,NA,NA,NA,NA,NA,NA
fb6b2,deep,flow.Sequence,1_1_4_0,NA,NA,skipped,NA,382956,NA,NA,382947.923,382956.19999993,2023-04-15T08:35:58Z,382964.448,"c(""distractor1"", ""distractor2"", ""distractor3"")",Kritik,lawama,s,dereva,nafasi,mawazo,NA,NA,NA,NA,NA,NA,NA,NA,NA,NA,NA,NA,NA,NA,NA,NA,NA,NA,NA,NA,NA,NA,NA
fb6b2,Shallow Question,html.Page,1_1_4_1_0,NA,NA,form submission,4884.3519999523,382956.39999998,382947.923,382964.448,387848.79999995,387849.29999995,2023-04-15T08:36:03Z,387860.606,"c(""distractor1"", ""distractor2"", ""distractor3"")",Kritik,lawama,s,dereva,nafasi,mawazo,dereva,NA,NA,NA,NA,NA,NA,NA,NA,NA,NA,NA,NA,NA,NA,NA,NA,NA,NA,NA,NA,NA,NA
fb6b2,"""Richtig""-Screen",canvas.Screen,1_1_4_1_1,NA,NA,skipped,NA,387852.19999993,NA,NA,387848.79999995,387852.29999995,2023-04-15T08:36:03Z,387860.606,"c(""distractor1"", ""distractor2"", ""distractor3"")",Kritik,lawama,s,dereva,nafasi,mawazo,NA,NA,NA,NA,NA,NA,NA,NA,NA,NA,NA,NA,NA,NA,NA,NA,NA,NA,NA,NA,NA,NA,NA
fb6b2,"""Falsch""-Screen",canvas.Screen,1_1_4_1_2,NA,NA,timeout,4996.083,387853,387844.403,387860.606,392839.792,392841.89999998,2023-04-15T08:36:08Z,392856.689,"c(""distractor1"", ""distractor2"", ""distractor3"")",Kritik,lawama,s,dereva,nafasi,mawazo,NA,NA,0,NA,NA,NA,NA,NA,NA,NA,NA,NA,NA,NA,NA,NA,NA,NA,NA,NA,NA,NA,NA
fb6b2,shallow,flow.Sequence,1_1_4_1,NA,NA,completion,9875.344,382956.39999998,382947.923,382964.448,392839.792,392842.10000002,2023-04-15T08:36:08Z,392856.689,"c(""distractor1"", ""distractor2"", ""distractor3"")",Kritik,lawama,s,dereva,nafasi,mawazo,NA,NA,NA,NA,NA,NA,NA,NA,NA,NA,NA,NA,NA,NA,NA,NA,NA,NA,NA,NA,NA,NA,NA
fb6b2,task,flow.Sequence,1_1_4,NA,NA,completion,9875.344,382956,382947.923,382964.448,392839.792,392842.29999995,2023-04-15T08:36:08Z,392856.689,"c(""distractor1"", ""distractor2"", ""distractor3"")",Kritik,lawama,s,dereva,nafasi,mawazo,NA,NA,NA,NA,NA,NA,NA,NA,NA,NA,NA,NA,NA,NA,NA,NA,NA,NA,NA,NA,NA,NA,NA
fb6b2,deep,flow.Sequence,1_1_5_0,NA,NA,skipped,NA,392842.29999995,NA,NA,392839.792,392842.29999995,2023-04-15T08:36:08Z,392856.689,"c(""distractor1"", ""distractor2"", ""distractor3"")",Gegenwart,hadhara,s,katiba,jokofu,mikopo,NA,NA,NA,NA,NA,NA,NA,NA,NA,NA,NA,NA,NA,NA,NA,NA,NA,NA,NA,NA,NA,NA,NA
fb6b2,Shallow Question,html.Page,1_1_5_1_0,NA,NA,form submission,6143.311,392842.5,392839.792,392856.689,399000,399000.19999993,2023-04-15T08:36:14Z,399001.217,"c(""distractor1"", ""distractor2"", ""distractor3"")",Gegenwart,hadhara,s,katiba,jokofu,mikopo,katiba,NA,NA,NA,NA,NA,NA,NA,NA,NA,NA,NA,NA,NA,NA,NA,NA,NA,NA,NA,NA,NA,NA
fb6b2,"""Richtig""-Screen",canvas.Screen,1_1_5_1_1,NA,NA,skipped,NA,399002.29999995,NA,NA,399000,399002.5,2023-04-15T08:36:14Z,399001.217,"c(""distractor1"", ""distractor2"", ""distractor3"")",Gegenwart,hadhara,s,katiba,jokofu,mikopo,NA,NA,NA,NA,NA,NA,NA,NA,NA,NA,NA,NA,NA,NA,NA,NA,NA,NA,NA,NA,NA,NA,NA
fb6b2,"""Falsch""-Screen",canvas.Screen,1_1_5_1_2,NA,NA,timeout,4996.672,399003.19999993,398984.905,399001.217,403980.948,403981.89999998,2023-04-15T08:36:19Z,403997.889,"c(""distractor1"", ""distractor2"", ""distractor3"")",Gegenwart,hadhara,s,katiba,jokofu,mikopo,NA,NA,0,NA,NA,NA,NA,NA,NA,NA,NA,NA,NA,NA,NA,NA,NA,NA,NA,NA,NA,NA,NA
fb6b2,shallow,flow.Sequence,1_1_5_1,NA,NA,completion,11124.259,392842.5,392839.792,392856.689,403980.948,403982.29999995,2023-04-15T08:36:19Z,403997.889,"c(""distractor1"", ""distractor2"", ""distractor3"")",Gegenwart,hadhara,s,katiba,jokofu,mikopo,NA,NA,NA,NA,NA,NA,NA,NA,NA,NA,NA,NA,NA,NA,NA,NA,NA,NA,NA,NA,NA,NA,NA
fb6b2,task,flow.Sequence,1_1_5,NA,NA,completion,11124.259,392842.29999995,392839.792,392856.689,403980.948,403982.79999995,2023-04-15T08:36:19Z,403997.889,"c(""distractor1"", ""distractor2"", ""distractor3"")",Gegenwart,hadhara,s,katiba,jokofu,mikopo,NA,NA,NA,NA,NA,NA,NA,NA,NA,NA,NA,NA,NA,NA,NA,NA,NA,NA,NA,NA,NA,NA,NA
fb6b2,block,flow.Loop,1_1,NA,NA,completion,62166.129,341811.79999995,341797.918,341814.819,403980.948,403983.10000002,2023-04-15T08:36:19Z,403997.889,"c(""distractor1"", ""distractor2"", ""distractor3"")",NA,NA,NA,NA,NA,NA,NA,NA,NA,NA,NA,NA,NA,NA,NA,NA,NA,NA,NA,NA,NA,NA,NA,NA,NA,NA,NA,NA,NA
fb6b2,Practice,flow.Sequence,1,NA,NA,completion,66895.545,337083,337066.142,337085.403,403980.948,403983.39999998,2023-04-15T08:36:19Z,403997.889,NULL,NA,NA,NA,NA,NA,NA,NA,NA,NA,NA,NA,NA,NA,NA,NA,NA,NA,NA,NA,NA,NA,NA,NA,NA,NA,NA,NA,NA,NA
fb6b2,Experiment start,canvas.Screen,2,weiter,keypress(q),response,6940.111,403983.60000002,403980.948,403997.889,410938,410939.60000002,2023-04-15T08:36:26Z,411024.686,NULL,NA,NA,NA,NA,NA,NA,NA,NA,NA,NA,NA,NA,NA,NA,NA,NA,NA,NA,NA,NA,NA,NA,NA,NA,NA,NA,NA,NA,NA
fb6b2,deep,flow.Sequence,3_0_0_0_0_0,NA,NA,skipped,NA,411036.69999993,NA,NA,410938,411036.79999995,2023-04-15T08:36:26Z,411024.686,NULL,Fleisch,mshakiki,s,kizunguzungu,mshikamano,angusho,NA,sdf,NA,0,NA,NA,NA,NA,NA,NA,NA,NA,NA,NA,NA,NA,NA,NA,NA,NA,NA,NA,NA
fb6b2,Shallow Question,html.Page,3_0_0_0_0_1_0,NA,NA,form submission,9646.6139999523,411037,410924.865,411024.686,420671.29999995,420671.5,2023-04-15T08:36:35Z,420683.843,NULL,Fleisch,mshakiki,s,kizunguzungu,mshikamano,angusho,angusho,NA,NA,0,NA,NA,NA,NA,NA,NA,NA,NA,NA,NA,NA,NA,NA,NA,NA,NA,NA,NA,NA
fb6b2,"""Richtig""-Screen",canvas.Screen,3_0_0_0_0_1_1,NA,NA,skipped,NA,420673.5,NA,NA,420671.29999995,420673.69999993,2023-04-15T08:36:35Z,420683.843,NULL,Fleisch,mshakiki,s,kizunguzungu,mshikamano,angusho,NA,sdf,NA,0,NA,NA,NA,NA,NA,NA,NA,NA,NA,NA,NA,NA,NA,NA,NA,NA,NA,NA,NA
fb6b2,"""Falsch""-Screen",canvas.Screen,3_0_0_0_0_1_2,NA,NA,timeout,4995.835,420674.29999995,420667.292,420683.843,425663.118,425664.10000002,2023-04-15T08:36:40Z,425679.678,NULL,Fleisch,mshakiki,s,kizunguzungu,mshikamano,angusho,NA,sdf,0,0,NA,NA,NA,NA,NA,NA,NA,NA,NA,NA,NA,NA,NA,NA,NA,NA,NA,NA,NA
fb6b2,shallow,flow.Sequence,3_0_0_0_0_1,NA,NA,completion,14638.432,411036.89999998,410924.865,411024.686,425663.118,425664.60000002,2023-04-15T08:36:40Z,425679.678,NULL,Fleisch,mshakiki,s,kizunguzungu,mshikamano,angusho,NA,sdf,NA,0,NA,NA,NA,NA,NA,NA,NA,NA,NA,NA,NA,NA,NA,NA,NA,NA,NA,NA,NA
fb6b2,task,flow.Sequence,3_0_0_0_0,NA,NA,completion,14638.432,411036.69999993,410924.865,411024.686,425663.118,425664.79999995,2023-04-15T08:36:40Z,425679.678,NULL,Fleisch,mshakiki,s,kizunguzungu,mshikamano,angusho,NA,sdf,NA,0,NA,NA,NA,NA,NA,NA,NA,NA,NA,NA,NA,NA,NA,NA,NA,NA,NA,NA,NA
fb6b2,deep,flow.Sequence,3_0_0_0_1_0,NA,NA,skipped,NA,425664.89999998,NA,NA,425663.118,425665.19999993,2023-04-15T08:36:40Z,425679.678,NULL,Prüfung,mtihani,s,mkulima,mtizamo,ufumbuzi,NA,sdf,NA,0,NA,NA,NA,NA,NA,NA,NA,NA,NA,NA,NA,NA,NA,NA,NA,NA,NA,NA,NA
fb6b2,Shallow Question,html.Page,3_0_0_0_1_1_0,NA,NA,form submission,5057.9220000238,425665.39999998,425663.118,425679.678,430737.60000002,430737.79999995,2023-04-15T08:36:45Z,430741.904,NULL,Prüfung,mtihani,s,mkulima,mtizamo,ufumbuzi,mkulima,NA,NA,0,NA,NA,NA,NA,NA,NA,NA,NA,NA,NA,NA,NA,NA,NA,NA,NA,NA,NA,NA
fb6b2,"""Richtig""-Screen",canvas.Screen,3_0_0_0_1_1_1,NA,NA,skipped,NA,430739.89999998,NA,NA,430737.60000002,430740,2023-04-15T08:36:45Z,430741.904,NULL,Prüfung,mtihani,s,mkulima,mtizamo,ufumbuzi,NA,sdf,NA,0,NA,NA,NA,NA,NA,NA,NA,NA,NA,NA,NA,NA,NA,NA,NA,NA,NA,NA,NA
fb6b2,"""Falsch""-Screen",canvas.Screen,3_0_0_0_1_1_2,NA,NA,timeout,4996.412,430740.5,430725.605,430741.904,435721.392,435722.39999998,2023-04-15T08:36:50Z,435738.316,NULL,Prüfung,mtihani,s,mkulima,mtizamo,ufumbuzi,NA,sdf,0,0,NA,NA,NA,NA,NA,NA,NA,NA,NA,NA,NA,NA,NA,NA,NA,NA,NA,NA,NA
fb6b2,shallow,flow.Sequence,3_0_0_0_1_1,NA,NA,completion,10041.714,425665.29999995,425663.118,425679.678,435721.392,435722.79999995,2023-04-15T08:36:50Z,435738.316,NULL,Prüfung,mtihani,s,mkulima,mtizamo,ufumbuzi,NA,sdf,NA,0,NA,NA,NA,NA,NA,NA,NA,NA,NA,NA,NA,NA,NA,NA,NA,NA,NA,NA,NA
fb6b2,task,flow.Sequence,3_0_0_0_1,NA,NA,completion,10041.714,425664.89999998,425663.118,425679.678,435721.392,435723,2023-04-15T08:36:50Z,435738.316,NULL,Prüfung,mtihani,s,mkulima,mtizamo,ufumbuzi,NA,sdf,NA,0,NA,NA,NA,NA,NA,NA,NA,NA,NA,NA,NA,NA,NA,NA,NA,NA,NA,NA,NA
fb6b2,Deep Question,html.Page,3_0_0_0_2_0_0,NA,NA,form submission,4907.684,435723.29999995,435721.392,435738.316,440646,440646.10000002,2023-04-15T08:36:55Z,440650.388,NULL,Verzögerung,kuchelewa,d,NA,NA,NA,uu,NA,NA,0,NA,NA,NA,NA,NA,NA,NA,NA,NA,NA,NA,NA,NA,NA,NA,NA,NA,NA,NA
fb6b2,"""Richtig""-Screen",canvas.Screen,3_0_0_0_2_0_1,NA,NA,skipped,NA,440648,NA,NA,440646,440648.19999993,2023-04-15T08:36:55Z,440650.388,NULL,Verzögerung,kuchelewa,d,NA,NA,NA,NA,sdf,NA,0,NA,NA,NA,NA,NA,NA,NA,NA,NA,NA,NA,NA,NA,NA,NA,NA,NA,NA,NA
fb6b2,"""Falsch""-Screen",canvas.Screen,3_0_0_0_2_0_2,NA,NA,timeout,4995.916,440649.19999993,440634.3,440650.388,445629.647,445631.39999998,2023-04-15T08:37:00Z,445646.304,NULL,Verzögerung,kuchelewa,d,NA,NA,NA,NA,sdf,0,0,NA,NA,NA,NA,NA,NA,NA,NA,NA,NA,NA,NA,NA,NA,NA,NA,NA,NA,NA
fb6b2,deep,flow.Sequence,3_0_0_0_2_0,NA,NA,completion,9891.331,435723.19999993,435721.392,435738.316,445629.647,445631.5,2023-04-15T08:37:00Z,445646.304,NULL,Verzögerung,kuchelewa,d,NA,NA,NA,NA,sdf,NA,0,NA,NA,NA,NA,NA,NA,NA,NA,NA,NA,NA,NA,NA,NA,NA,NA,NA,NA,NA
fb6b2,shallow,flow.Sequence,3_0_0_0_2_1,NA,NA,skipped,NA,445631.5,NA,NA,445629.647,445631.60000002,2023-04-15T08:37:00Z,445646.304,NULL,Verzögerung,kuchelewa,d,NA,NA,NA,NA,sdf,NA,0,NA,NA,NA,NA,NA,NA,NA,NA,NA,NA,NA,NA,NA,NA,NA,NA,NA,NA,NA
fb6b2,task,flow.Sequence,3_0_0_0_2,NA,NA,completion,9891.331,435723.19999993,435721.392,435738.316,445629.647,445631.69999993,2023-04-15T08:37:00Z,445646.304,NULL,Verzögerung,kuchelewa,d,NA,NA,NA,NA,sdf,NA,0,NA,NA,NA,NA,NA,NA,NA,NA,NA,NA,NA,NA,NA,NA,NA,NA,NA,NA,NA
fb6b2,Deep Question,html.Page,3_0_0_0_3_0_0,NA,NA,form submission,4383.3959999285,445631.69999993,445629.647,445646.304,450029.69999993,450029.79999995,2023-04-15T08:37:05Z,450043.424,NULL,Kultur,utamaduni,d,NA,NA,NA,ma,NA,NA,0,NA,NA,NA,NA,NA,NA,NA,NA,NA,NA,NA,NA,NA,NA,NA,NA,NA,NA,NA
fb6b2,"""Richtig""-Screen",canvas.Screen,3_0_0_0_3_0_1,NA,NA,skipped,NA,450031.79999995,NA,NA,450029.69999993,450031.89999998,2023-04-15T08:37:05Z,450043.424,NULL,Kultur,utamaduni,d,NA,NA,NA,NA,sdf,NA,0,NA,NA,NA,NA,NA,NA,NA,NA,NA,NA,NA,NA,NA,NA,NA,NA,NA,NA,NA
fb6b2,"""Falsch""-Screen",canvas.Screen,3_0_0_0_3_0_2,NA,NA,timeout,4995.783,450032.60000002,450026.153,450043.424,455022.471,455023.39999998,2023-04-15T08:37:10Z,455039.207,NULL,Kultur,utamaduni,d,NA,NA,NA,NA,sdf,0,0,NA,NA,NA,NA,NA,NA,NA,NA,NA,NA,NA,NA,NA,NA,NA,NA,NA,NA,NA
fb6b2,deep,flow.Sequence,3_0_0_0_3_0,NA,NA,completion,9376.167,445631.69999993,445629.647,445646.304,455022.471,455023.89999998,2023-04-15T08:37:10Z,455039.207,NULL,Kultur,utamaduni,d,NA,NA,NA,NA,sdf,NA,0,NA,NA,NA,NA,NA,NA,NA,NA,NA,NA,NA,NA,NA,NA,NA,NA,NA,NA,NA
fb6b2,shallow,flow.Sequence,3_0_0_0_3_1,NA,NA,skipped,NA,455024.10000002,NA,NA,455022.471,455024.19999993,2023-04-15T08:37:10Z,455039.207,NULL,Kultur,utamaduni,d,NA,NA,NA,NA,sdf,NA,0,NA,NA,NA,NA,NA,NA,NA,NA,NA,NA,NA,NA,NA,NA,NA,NA,NA,NA,NA
fb6b2,task,flow.Sequence,3_0_0_0_3,NA,NA,completion,9376.167,445631.69999993,445629.647,445646.304,455022.471,455024.5,2023-04-15T08:37:10Z,455039.207,NULL,Kultur,utamaduni,d,NA,NA,NA,NA,sdf,NA,0,NA,NA,NA,NA,NA,NA,NA,NA,NA,NA,NA,NA,NA,NA,NA,NA,NA,NA,NA
fb6b2,Deep Question,html.Page,3_0_0_0_4_0_0,NA,NA,form submission,3957.0929999523,455024.69999993,455022.471,455039.207,458996.29999995,458996.5,2023-04-15T08:37:14Z,459001.969,NULL,Begegnung,kukutana,d,NA,NA,NA,gg,NA,NA,0,NA,NA,NA,NA,NA,NA,NA,NA,NA,NA,NA,NA,NA,NA,NA,NA,NA,NA,NA
fb6b2,"""Richtig""-Screen",canvas.Screen,3_0_0_0_4_0_1,NA,NA,skipped,NA,458999.19999993,NA,NA,458996.29999995,458999.39999998,2023-04-15T08:37:14Z,459001.969,NULL,Begegnung,kukutana,d,NA,NA,NA,NA,sdf,NA,0,NA,NA,NA,NA,NA,NA,NA,NA,NA,NA,NA,NA,NA,NA,NA,NA,NA,NA,NA
fb6b2,"""Falsch""-Screen",canvas.Screen,3_0_0_0_4_0_2,NA,NA,timeout,4996.63,459000.10000002,458985.907,459001.969,463981.798,463982.69999993,2023-04-15T08:37:19Z,463998.599,NULL,Begegnung,kukutana,d,NA,NA,NA,NA,sdf,0,0,NA,NA,NA,NA,NA,NA,NA,NA,NA,NA,NA,NA,NA,NA,NA,NA,NA,NA,NA
fb6b2,deep,flow.Sequence,3_0_0_0_4_0,NA,NA,completion,8942.591,455024.69999993,455022.471,455039.207,463981.798,463983.10000002,2023-04-15T08:37:19Z,463998.599,NULL,Begegnung,kukutana,d,NA,NA,NA,NA,sdf,NA,0,NA,NA,NA,NA,NA,NA,NA,NA,NA,NA,NA,NA,NA,NA,NA,NA,NA,NA,NA
fb6b2,shallow,flow.Sequence,3_0_0_0_4_1,NA,NA,skipped,NA,463983.19999993,NA,NA,463981.798,463983.29999995,2023-04-15T08:37:19Z,463998.599,NULL,Begegnung,kukutana,d,NA,NA,NA,NA,sdf,NA,0,NA,NA,NA,NA,NA,NA,NA,NA,NA,NA,NA,NA,NA,NA,NA,NA,NA,NA,NA
fb6b2,task,flow.Sequence,3_0_0_0_4,NA,NA,completion,8942.591,455024.60000002,455022.471,455039.207,463981.798,463983.5,2023-04-15T08:37:19Z,463998.599,NULL,Begegnung,kukutana,d,NA,NA,NA,NA,sdf,NA,0,NA,NA,NA,NA,NA,NA,NA,NA,NA,NA,NA,NA,NA,NA,NA,NA,NA,NA,NA
fb6b2,deep,flow.Sequence,3_0_0_0_5_0,NA,NA,skipped,NA,463983.69999993,NA,NA,463981.798,463983.79999995,2023-04-15T08:37:19Z,463998.599,NULL,Integrität,uadilifu,s,muungano,mtiririko,upunguaji,NA,sdf,NA,0,NA,NA,NA,NA,NA,NA,NA,NA,NA,NA,NA,NA,NA,NA,NA,NA,NA,NA,NA
fb6b2,Shallow Question,html.Page,3_0_0_0_5_1_0,NA,NA,form submission,7083.6009999285,463983.89999998,463981.798,463998.599,471082.19999993,471082.39999998,2023-04-15T08:37:26Z,471092.373,NULL,Integrität,uadilifu,s,muungano,mtiririko,upunguaji,muungano,NA,NA,0,NA,NA,NA,NA,NA,NA,NA,NA,NA,NA,NA,NA,NA,NA,NA,NA,NA,NA,NA
fb6b2,"""Richtig""-Screen",canvas.Screen,3_0_0_0_5_1_1,NA,NA,skipped,NA,471084.29999995,NA,NA,471082.19999993,471084.5,2023-04-15T08:37:26Z,471092.373,NULL,Integrität,uadilifu,s,muungano,mtiririko,upunguaji,NA,sdf,NA,0,NA,NA,NA,NA,NA,NA,NA,NA,NA,NA,NA,NA,NA,NA,NA,NA,NA,NA,NA
fb6b2,"""Falsch""-Screen",canvas.Screen,3_0_0_0_5_1_2,NA,NA,timeout,4995.983,471085,471075.608,471092.373,476071.597,476072.5,2023-04-15T08:37:31Z,476088.356,NULL,Integrität,uadilifu,s,muungano,mtiririko,upunguaji,NA,sdf,0,0,NA,NA,NA,NA,NA,NA,NA,NA,NA,NA,NA,NA,NA,NA,NA,NA,NA,NA,NA
fb6b2,shallow,flow.Sequence,3_0_0_0_5_1,NA,NA,completion,12072.998,463983.89999998,463981.798,463998.599,476071.597,476072.89999998,2023-04-15T08:37:31Z,476088.356,NULL,Integrität,uadilifu,s,muungano,mtiririko,upunguaji,NA,sdf,NA,0,NA,NA,NA,NA,NA,NA,NA,NA,NA,NA,NA,NA,NA,NA,NA,NA,NA,NA,NA
fb6b2,task,flow.Sequence,3_0_0_0_5,NA,NA,completion,12072.998,463983.69999993,463981.798,463998.599,476071.597,476073.10000002,2023-04-15T08:37:31Z,476088.356,NULL,Integrität,uadilifu,s,muungano,mtiririko,upunguaji,NA,sdf,NA,0,NA,NA,NA,NA,NA,NA,NA,NA,NA,NA,NA,NA,NA,NA,NA,NA,NA,NA,NA
fb6b2,Deep Question,html.Page,3_0_0_0_6_0_0,NA,NA,form submission,4723.144,476073.39999998,476071.597,476088.356,480811.5,480811.79999995,2023-04-15T08:37:36Z,480817.475,NULL,Genehmigung,idhini,d,NA,NA,NA,f,NA,NA,0,NA,NA,NA,NA,NA,NA,NA,NA,NA,NA,NA,NA,NA,NA,NA,NA,NA,NA,NA
fb6b2,"""Richtig""-Screen",canvas.Screen,3_0_0_0_6_0_1,NA,NA,skipped,NA,480813.79999995,NA,NA,480811.5,480814,2023-04-15T08:37:36Z,480817.475,NULL,Genehmigung,idhini,d,NA,NA,NA,NA,sdf,NA,0,NA,NA,NA,NA,NA,NA,NA,NA,NA,NA,NA,NA,NA,NA,NA,NA,NA,NA,NA
fb6b2,"""Falsch""-Screen",canvas.Screen,3_0_0_0_6_0_2,NA,NA,timeout,4995.917,480814.5,480800.738,480817.475,485797.276,485798.39999998,2023-04-15T08:37:41Z,485813.392,NULL,Genehmigung,idhini,d,NA,NA,NA,NA,sdf,0,0,NA,NA,NA,NA,NA,NA,NA,NA,NA,NA,NA,NA,NA,NA,NA,NA,NA,NA,NA
fb6b2,deep,flow.Sequence,3_0_0_0_6_0,NA,NA,completion,9708.92,476073.39999998,476071.597,476088.356,485797.276,485798.69999993,2023-04-15T08:37:41Z,485813.392,NULL,Genehmigung,idhini,d,NA,NA,NA,NA,sdf,NA,0,NA,NA,NA,NA,NA,NA,NA,NA,NA,NA,NA,NA,NA,NA,NA,NA,NA,NA,NA
fb6b2,shallow,flow.Sequence,3_0_0_0_6_1,NA,NA,skipped,NA,485798.89999998,NA,NA,485797.276,485799.10000002,2023-04-15T08:37:41Z,485813.392,NULL,Genehmigung,idhini,d,NA,NA,NA,NA,sdf,NA,0,NA,NA,NA,NA,NA,NA,NA,NA,NA,NA,NA,NA,NA,NA,NA,NA,NA,NA,NA
fb6b2,task,flow.Sequence,3_0_0_0_6,NA,NA,completion,9708.92,476073.39999998,476071.597,476088.356,485797.276,485799.39999998,2023-04-15T08:37:41Z,485813.392,NULL,Genehmigung,idhini,d,NA,NA,NA,NA,sdf,NA,0,NA,NA,NA,NA,NA,NA,NA,NA,NA,NA,NA,NA,NA,NA,NA,NA,NA,NA,NA
fb6b2,deep,flow.Sequence,3_0_0_0_7_0,NA,NA,skipped,NA,485799.69999993,NA,NA,485797.276,485799.79999995,2023-04-15T08:37:41Z,485813.392,NULL,Aufstand,ugomaji,s,mazidio,msingi,kujieleza,NA,sdf,NA,0,NA,NA,NA,NA,NA,NA,NA,NA,NA,NA,NA,NA,NA,NA,NA,NA,NA,NA,NA
fb6b2,Shallow Question,html.Page,3_0_0_0_7_1_0,NA,NA,form submission,8649.8079999285,485800,485797.276,485813.392,494463.19999993,494463.29999995,2023-04-15T08:37:49Z,494473.076,NULL,Aufstand,ugomaji,s,mazidio,msingi,kujieleza,mazidio,NA,NA,0,NA,NA,NA,NA,NA,NA,NA,NA,NA,NA,NA,NA,NA,NA,NA,NA,NA,NA,NA
fb6b2,"""Richtig""-Screen",canvas.Screen,3_0_0_0_7_1_1,NA,NA,skipped,NA,494465.10000002,NA,NA,494463.19999993,494465.39999998,2023-04-15T08:37:49Z,494473.076,NULL,Aufstand,ugomaji,s,mazidio,msingi,kujieleza,NA,sdf,NA,0,NA,NA,NA,NA,NA,NA,NA,NA,NA,NA,NA,NA,NA,NA,NA,NA,NA,NA,NA
fb6b2,"""Falsch""-Screen",canvas.Screen,3_0_0_0_7_1_2,NA,NA,timeout,4995.915,494465.89999998,494456.775,494473.076,499452.36,499453.39999998,2023-04-15T08:37:54Z,499468.991,NULL,Aufstand,ugomaji,s,mazidio,msingi,kujieleza,NA,sdf,0,0,NA,NA,NA,NA,NA,NA,NA,NA,NA,NA,NA,NA,NA,NA,NA,NA,NA,NA,NA
fb6b2,shallow,flow.Sequence,3_0_0_0_7_1,NA,NA,completion,13638.968,485800,485797.276,485813.392,499452.36,499453.69999993,2023-04-15T08:37:54Z,499468.991,NULL,Aufstand,ugomaji,s,mazidio,msingi,kujieleza,NA,sdf,NA,0,NA,NA,NA,NA,NA,NA,NA,NA,NA,NA,NA,NA,NA,NA,NA,NA,NA,NA,NA
fb6b2,task,flow.Sequence,3_0_0_0_7,NA,NA,completion,13638.968,485799.60000002,485797.276,485813.392,499452.36,499454.10000002,2023-04-15T08:37:54Z,499468.991,NULL,Aufstand,ugomaji,s,mazidio,msingi,kujieleza,NA,sdf,NA,0,NA,NA,NA,NA,NA,NA,NA,NA,NA,NA,NA,NA,NA,NA,NA,NA,NA,NA,NA
fb6b2,block,flow.Loop,3_0_0_0,NA,NA,completion,88427.674,411036.69999993,410924.865,411024.686,499452.36,499454.29999995,2023-04-15T08:37:54Z,499468.991,NULL,NA,NA,NA,NA,NA,NA,NA,sdf,NA,0,NA,NA,NA,NA,NA,NA,NA,NA,NA,NA,NA,NA,NA,NA,NA,NA,NA,NA,NA
fb6b2,weiter,canvas.Screen,3_0_0_1,sdf,keypress(Space),response,1089.509,499454.60000002,499452.36,499468.991,500558.5,500559.69999993,2023-04-15T08:37:55Z,500601.494,NULL,NA,NA,NA,NA,NA,NA,NA,sdf,NA,0,NA,NA,NA,NA,NA,NA,NA,NA,NA,NA,NA,NA,NA,NA,NA,NA,NA,NA,NA
fb6b2,check continue,flow.Sequence,3_0_0,NA,NA,completion,89533.814,411036.69999993,410924.865,411024.686,500558.5,500560.10000002,2023-04-15T08:37:55Z,500601.494,NULL,NA,NA,NA,NA,NA,NA,NA,sdf,NA,0,NA,NA,NA,NA,NA,NA,NA,NA,NA,NA,NA,NA,NA,NA,NA,NA,NA,NA,NA
fb6b2,deep,flow.Sequence,3_0_1_0_0_0,NA,NA,skipped,NA,500585.89999998,NA,NA,500558.5,500586,2023-04-15T08:37:55Z,500601.494,NULL,Fleisch,mshakiki,s,kizunguzungu,mshikamano,angusho,NA,sdfdsf,NA,1,NA,NA,NA,NA,NA,NA,NA,NA,NA,NA,NA,NA,NA,NA,NA,NA,NA,NA,NA
fb6b2,Shallow Question,html.Page,3_0_1_0_0_1_0,NA,NA,form submission,4556.3059999523,500586.10000002,500585.03,500601.494,505157.79999995,505158,2023-04-15T08:38:00Z,505164.093,NULL,Fleisch,mshakiki,s,kizunguzungu,mshikamano,angusho,mshakiki,NA,NA,1,NA,NA,NA,NA,NA,NA,NA,NA,NA,NA,NA,NA,NA,NA,NA,NA,NA,NA,NA
fb6b2,"""Richtig""-Screen",canvas.Screen,3_0_1_0_0_1_1,NA,NA,timeout,4995.93,505160,505147.921,505164.093,510143.44,510145.69999993,2023-04-15T08:38:05Z,510160.023,NULL,Fleisch,mshakiki,s,kizunguzungu,mshikamano,angusho,NA,sdfdsf,1,1,NA,NA,NA,NA,NA,NA,NA,NA,NA,NA,NA,NA,NA,NA,NA,NA,NA,NA,NA
fb6b2,"""Falsch""-Screen",canvas.Screen,3_0_1_0_0_1_2,NA,NA,skipped,NA,510151.19999993,NA,NA,510143.44,510151.69999993,2023-04-15T08:38:05Z,510160.023,NULL,Fleisch,mshakiki,s,kizunguzungu,mshikamano,angusho,NA,sdfdsf,NA,1,NA,NA,NA,NA,NA,NA,NA,NA,NA,NA,NA,NA,NA,NA,NA,NA,NA,NA,NA
fb6b2,shallow,flow.Sequence,3_0_1_0_0_1,NA,NA,completion,9541.946,500586,500585.03,500601.494,510143.44,510152,2023-04-15T08:38:05Z,510160.023,NULL,Fleisch,mshakiki,s,kizunguzungu,mshikamano,angusho,NA,sdfdsf,NA,1,NA,NA,NA,NA,NA,NA,NA,NA,NA,NA,NA,NA,NA,NA,NA,NA,NA,NA,NA
fb6b2,task,flow.Sequence,3_0_1_0_0,NA,NA,completion,9541.946,500585.89999998,500585.03,500601.494,510143.44,510152.29999995,2023-04-15T08:38:05Z,510160.023,NULL,Fleisch,mshakiki,s,kizunguzungu,mshikamano,angusho,NA,sdfdsf,NA,1,NA,NA,NA,NA,NA,NA,NA,NA,NA,NA,NA,NA,NA,NA,NA,NA,NA,NA,NA
fb6b2,deep,flow.Sequence,3_0_1_0_1_0,NA,NA,skipped,NA,510152.5,NA,NA,510143.44,510152.69999993,2023-04-15T08:38:05Z,510160.023,NULL,Integrität,uadilifu,s,muungano,mtiririko,upunguaji,NA,sdfdsf,NA,1,NA,NA,NA,NA,NA,NA,NA,NA,NA,NA,NA,NA,NA,NA,NA,NA,NA,NA,NA
fb6b2,Shallow Question,html.Page,3_0_1_0_1_1_0,NA,NA,form submission,14456.376999976,510152.89999998,510143.44,510160.023,524616.39999998,524616.60000002,2023-04-15T08:38:19Z,524632.07,NULL,Integrität,uadilifu,s,muungano,mtiririko,upunguaji,uadilifu,NA,NA,1,NA,NA,NA,NA,NA,NA,NA,NA,NA,NA,NA,NA,NA,NA,NA,NA,NA,NA,NA
fb6b2,"""Richtig""-Screen",canvas.Screen,3_0_1_0_1_1_1,NA,NA,timeout,4996.032,524618.5,524615.307,524632.07,529611.131,529612.10000002,2023-04-15T08:38:24Z,529628.102,NULL,Integrität,uadilifu,s,muungano,mtiririko,upunguaji,NA,sdfdsf,1,1,NA,NA,NA,NA,NA,NA,NA,NA,NA,NA,NA,NA,NA,NA,NA,NA,NA,NA,NA
fb6b2,"""Falsch""-Screen",canvas.Screen,3_0_1_0_1_1_2,NA,NA,skipped,NA,529616.39999998,NA,NA,529611.131,529616.5,2023-04-15T08:38:24Z,529628.102,NULL,Integrität,uadilifu,s,muungano,mtiririko,upunguaji,NA,sdfdsf,NA,1,NA,NA,NA,NA,NA,NA,NA,NA,NA,NA,NA,NA,NA,NA,NA,NA,NA,NA,NA
fb6b2,shallow,flow.Sequence,3_0_1_0_1_1,NA,NA,completion,19451.108,510152.79999995,510143.44,510160.023,529611.131,529616.69999993,2023-04-15T08:38:24Z,529628.102,NULL,Integrität,uadilifu,s,muungano,mtiririko,upunguaji,NA,sdfdsf,NA,1,NA,NA,NA,NA,NA,NA,NA,NA,NA,NA,NA,NA,NA,NA,NA,NA,NA,NA,NA
fb6b2,task,flow.Sequence,3_0_1_0_1,NA,NA,completion,19451.108,510152.39999998,510143.44,510160.023,529611.131,529616.79999995,2023-04-15T08:38:24Z,529628.102,NULL,Integrität,uadilifu,s,muungano,mtiririko,upunguaji,NA,sdfdsf,NA,1,NA,NA,NA,NA,NA,NA,NA,NA,NA,NA,NA,NA,NA,NA,NA,NA,NA,NA,NA
fb6b2,Deep Question,html.Page,3_0_1_0_2_0_0,NA,NA,form submission,11847.097999929,529616.79999995,529611.131,529628.102,541475.19999993,541475.39999998,2023-04-15T08:38:36Z,541484.292,NULL,Kultur,utamaduni,d,NA,NA,NA,uthini,NA,NA,1,NA,NA,NA,NA,NA,NA,NA,NA,NA,NA,NA,NA,NA,NA,NA,NA,NA,NA,NA
fb6b2,"""Richtig""-Screen",canvas.Screen,3_0_1_0_2_0_1,NA,NA,skipped,NA,541477.39999998,NA,NA,541475.19999993,541477.60000002,2023-04-15T08:38:36Z,541484.292,NULL,Kultur,utamaduni,d,NA,NA,NA,NA,sdfdsf,NA,1,NA,NA,NA,NA,NA,NA,NA,NA,NA,NA,NA,NA,NA,NA,NA,NA,NA,NA,NA
fb6b2,"""Falsch""-Screen",canvas.Screen,3_0_1_0_2_0_2,NA,NA,timeout,4996.199,541478.10000002,541467.913,541484.292,546464.096,546465,2023-04-15T08:38:41Z,546480.491,NULL,Kultur,utamaduni,d,NA,NA,NA,NA,sdfdsf,0,1,NA,NA,NA,NA,NA,NA,NA,NA,NA,NA,NA,NA,NA,NA,NA,NA,NA,NA,NA
fb6b2,deep,flow.Sequence,3_0_1_0_2_0,NA,NA,completion,16835.994,529616.79999995,529611.131,529628.102,546464.096,546465.39999998,2023-04-15T08:38:41Z,546480.491,NULL,Kultur,utamaduni,d,NA,NA,NA,NA,sdfdsf,NA,1,NA,NA,NA,NA,NA,NA,NA,NA,NA,NA,NA,NA,NA,NA,NA,NA,NA,NA,NA
fb6b2,shallow,flow.Sequence,3_0_1_0_2_1,NA,NA,skipped,NA,546465.39999998,NA,NA,546464.096,546465.60000002,2023-04-15T08:38:41Z,546480.491,NULL,Kultur,utamaduni,d,NA,NA,NA,NA,sdfdsf,NA,1,NA,NA,NA,NA,NA,NA,NA,NA,NA,NA,NA,NA,NA,NA,NA,NA,NA,NA,NA
fb6b2,task,flow.Sequence,3_0_1_0_2,NA,NA,completion,16835.994,529616.79999995,529611.131,529628.102,546464.096,546465.79999995,2023-04-15T08:38:41Z,546480.491,NULL,Kultur,utamaduni,d,NA,NA,NA,NA,sdfdsf,NA,1,NA,NA,NA,NA,NA,NA,NA,NA,NA,NA,NA,NA,NA,NA,NA,NA,NA,NA,NA
fb6b2,deep,flow.Sequence,3_0_1_0_3_0,NA,NA,skipped,NA,546466,NA,NA,546464.096,546466.10000002,2023-04-15T08:38:41Z,546480.491,NULL,Prüfung,mtihani,s,mkulima,mtizamo,ufumbuzi,NA,sdfdsf,NA,1,NA,NA,NA,NA,NA,NA,NA,NA,NA,NA,NA,NA,NA,NA,NA,NA,NA,NA,NA
fb6b2,Shallow Question,html.Page,3_0_1_0_3_1_0,NA,NA,form submission,6303.7089999284,546466.19999993,546464.096,546480.491,552784.19999993,552784.39999998,2023-04-15T08:38:48Z,552791.868,NULL,Prüfung,mtihani,s,mkulima,mtizamo,ufumbuzi,mtihani,NA,NA,1,NA,NA,NA,NA,NA,NA,NA,NA,NA,NA,NA,NA,NA,NA,NA,NA,NA,NA,NA
fb6b2,"""Richtig""-Screen",canvas.Screen,3_0_1_0_3_1_1,NA,NA,timeout,4995.906,552786.39999998,552775.481,552791.868,557770.959,557773.29999995,2023-04-15T08:38:52Z,557787.774,NULL,Prüfung,mtihani,s,mkulima,mtizamo,ufumbuzi,NA,sdfdsf,1,1,NA,NA,NA,NA,NA,NA,NA,NA,NA,NA,NA,NA,NA,NA,NA,NA,NA,NA,NA
fb6b2,"""Falsch""-Screen",canvas.Screen,3_0_1_0_3_1_2,NA,NA,skipped,NA,557776.10000002,NA,NA,557770.959,557776.29999995,2023-04-15T08:38:52Z,557787.774,NULL,Prüfung,mtihani,s,mkulima,mtizamo,ufumbuzi,NA,sdfdsf,NA,1,NA,NA,NA,NA,NA,NA,NA,NA,NA,NA,NA,NA,NA,NA,NA,NA,NA,NA,NA
fb6b2,shallow,flow.Sequence,3_0_1_0_3_1,NA,NA,completion,11290.468,546466.19999993,546464.096,546480.491,557770.959,557776.5,2023-04-15T08:38:52Z,557787.774,NULL,Prüfung,mtihani,s,mkulima,mtizamo,ufumbuzi,NA,sdfdsf,NA,1,NA,NA,NA,NA,NA,NA,NA,NA,NA,NA,NA,NA,NA,NA,NA,NA,NA,NA,NA
fb6b2,task,flow.Sequence,3_0_1_0_3,NA,NA,completion,11290.468,546466,546464.096,546480.491,557770.959,557776.60000002,2023-04-15T08:38:52Z,557787.774,NULL,Prüfung,mtihani,s,mkulima,mtizamo,ufumbuzi,NA,sdfdsf,NA,1,NA,NA,NA,NA,NA,NA,NA,NA,NA,NA,NA,NA,NA,NA,NA,NA,NA,NA,NA
fb6b2,Deep Question,html.Page,3_0_1_0_4_0_0,NA,NA,form submission,9800.0259999523,557776.69999993,557770.959,557787.774,567587.79999995,567587.89999998,2023-04-15T08:39:02Z,567596.182,NULL,Begegnung,kukutana,d,NA,NA,NA,kukuhani,NA,NA,1,NA,NA,NA,NA,NA,NA,NA,NA,NA,NA,NA,NA,NA,NA,NA,NA,NA,NA,NA
fb6b2,"""Richtig""-Screen",canvas.Screen,3_0_1_0_4_0_1,NA,NA,skipped,NA,567589.89999998,NA,NA,567587.79999995,567590.10000002,2023-04-15T08:39:02Z,567596.182,NULL,Begegnung,kukutana,d,NA,NA,NA,NA,sdfdsf,NA,1,NA,NA,NA,NA,NA,NA,NA,NA,NA,NA,NA,NA,NA,NA,NA,NA,NA,NA,NA
fb6b2,"""Falsch""-Screen",canvas.Screen,3_0_1_0_4_0_2,NA,NA,timeout,4996.596,567590.79999995,567580.107,567596.182,572575.538,572576.69999993,2023-04-15T08:39:07Z,572592.778,NULL,Begegnung,kukutana,d,NA,NA,NA,NA,sdfdsf,0,1,NA,NA,NA,NA,NA,NA,NA,NA,NA,NA,NA,NA,NA,NA,NA,NA,NA,NA,NA
fb6b2,deep,flow.Sequence,3_0_1_0_4_0,NA,NA,completion,14787.764,557776.69999993,557770.959,557787.774,572575.538,572577.10000002,2023-04-15T08:39:07Z,572592.778,NULL,Begegnung,kukutana,d,NA,NA,NA,NA,sdfdsf,NA,1,NA,NA,NA,NA,NA,NA,NA,NA,NA,NA,NA,NA,NA,NA,NA,NA,NA,NA,NA
fb6b2,shallow,flow.Sequence,3_0_1_0_4_1,NA,NA,skipped,NA,572577.19999993,NA,NA,572575.538,572577.39999998,2023-04-15T08:39:07Z,572592.778,NULL,Begegnung,kukutana,d,NA,NA,NA,NA,sdfdsf,NA,1,NA,NA,NA,NA,NA,NA,NA,NA,NA,NA,NA,NA,NA,NA,NA,NA,NA,NA,NA
fb6b2,task,flow.Sequence,3_0_1_0_4,NA,NA,completion,14787.764,557776.69999993,557770.959,557787.774,572575.538,572577.60000002,2023-04-15T08:39:07Z,572592.778,NULL,Begegnung,kukutana,d,NA,NA,NA,NA,sdfdsf,NA,1,NA,NA,NA,NA,NA,NA,NA,NA,NA,NA,NA,NA,NA,NA,NA,NA,NA,NA,NA
fb6b2,Deep Question,html.Page,3_0_1_0_5_0_0,NA,NA,form submission,4961.9219999284,572577.89999998,572575.538,572592.778,577554.69999993,577554.89999998,2023-04-15T08:39:12Z,577575.674,NULL,Genehmigung,idhini,d,NA,NA,NA,idhani,NA,NA,1,NA,NA,NA,NA,NA,NA,NA,NA,NA,NA,NA,NA,NA,NA,NA,NA,NA,NA,NA
fb6b2,"""Richtig""-Screen",canvas.Screen,3_0_1_0_5_0_1,NA,NA,skipped,NA,577557.10000002,NA,NA,577554.69999993,577557.19999993,2023-04-15T08:39:12Z,577575.674,NULL,Genehmigung,idhini,d,NA,NA,NA,NA,sdfdsf,NA,1,NA,NA,NA,NA,NA,NA,NA,NA,NA,NA,NA,NA,NA,NA,NA,NA,NA,NA,NA
fb6b2,"""Falsch""-Screen",canvas.Screen,3_0_1_0_5_0_2,NA,NA,timeout,4992.183,577557.89999998,577538.63,577575.674,582551.031,582551.89999998,2023-04-15T08:39:17Z,582567.857,NULL,Genehmigung,idhini,d,NA,NA,NA,NA,sdfdsf,0,1,NA,NA,NA,NA,NA,NA,NA,NA,NA,NA,NA,NA,NA,NA,NA,NA,NA,NA,NA
fb6b2,deep,flow.Sequence,3_0_1_0_5_0,NA,NA,completion,9958.2529999999,572577.89999998,572575.538,572592.778,582551.031,582552.39999998,2023-04-15T08:39:17Z,582567.857,NULL,Genehmigung,idhini,d,NA,NA,NA,NA,sdfdsf,NA,1,NA,NA,NA,NA,NA,NA,NA,NA,NA,NA,NA,NA,NA,NA,NA,NA,NA,NA,NA
fb6b2,shallow,flow.Sequence,3_0_1_0_5_1,NA,NA,skipped,NA,582552.5,NA,NA,582551.031,582552.69999993,2023-04-15T08:39:17Z,582567.857,NULL,Genehmigung,idhini,d,NA,NA,NA,NA,sdfdsf,NA,1,NA,NA,NA,NA,NA,NA,NA,NA,NA,NA,NA,NA,NA,NA,NA,NA,NA,NA,NA
fb6b2,task,flow.Sequence,3_0_1_0_5,NA,NA,completion,9958.2529999999,572577.79999995,572575.538,572592.778,582551.031,582553,2023-04-15T08:39:17Z,582567.857,NULL,Genehmigung,idhini,d,NA,NA,NA,NA,sdfdsf,NA,1,NA,NA,NA,NA,NA,NA,NA,NA,NA,NA,NA,NA,NA,NA,NA,NA,NA,NA,NA
fb6b2,deep,flow.Sequence,3_0_1_0_6_0,NA,NA,skipped,NA,582553.10000002,NA,NA,582551.031,582553.29999995,2023-04-15T08:39:17Z,582567.857,NULL,Aufstand,ugomaji,s,mazidio,msingi,kujieleza,NA,sdfdsf,NA,1,NA,NA,NA,NA,NA,NA,NA,NA,NA,NA,NA,NA,NA,NA,NA,NA,NA,NA,NA
fb6b2,Shallow Question,html.Page,3_0_1_0_6_1_0,NA,NA,form submission,7697.7430000239,582553.5,582551.031,582567.857,590265.60000002,590265.79999995,2023-04-15T08:39:25Z,590277.54,NULL,Aufstand,ugomaji,s,mazidio,msingi,kujieleza,ugomaji,NA,NA,1,NA,NA,NA,NA,NA,NA,NA,NA,NA,NA,NA,NA,NA,NA,NA,NA,NA,NA,NA
fb6b2,"""Richtig""-Screen",canvas.Screen,3_0_1_0_6_1_1,NA,NA,timeout,4996.059,590267.79999995,590260.996,590277.54,595257.171,595258.19999993,2023-04-15T08:39:30Z,595273.599,NULL,Aufstand,ugomaji,s,mazidio,msingi,kujieleza,NA,sdfdsf,1,1,NA,NA,NA,NA,NA,NA,NA,NA,NA,NA,NA,NA,NA,NA,NA,NA,NA,NA,NA
fb6b2,"""Falsch""-Screen",canvas.Screen,3_0_1_0_6_1_2,NA,NA,skipped,NA,595263.60000002,NA,NA,595257.171,595264,2023-04-15T08:39:30Z,595273.599,NULL,Aufstand,ugomaji,s,mazidio,msingi,kujieleza,NA,sdfdsf,NA,1,NA,NA,NA,NA,NA,NA,NA,NA,NA,NA,NA,NA,NA,NA,NA,NA,NA,NA,NA
fb6b2,shallow,flow.Sequence,3_0_1_0_6_1,NA,NA,completion,12689.314,582553.39999998,582551.031,582567.857,595257.171,595264.39999998,2023-04-15T08:39:30Z,595273.599,NULL,Aufstand,ugomaji,s,mazidio,msingi,kujieleza,NA,sdfdsf,NA,1,NA,NA,NA,NA,NA,NA,NA,NA,NA,NA,NA,NA,NA,NA,NA,NA,NA,NA,NA
fb6b2,task,flow.Sequence,3_0_1_0_6,NA,NA,completion,12689.314,582553.10000002,582551.031,582567.857,595257.171,595264.60000002,2023-04-15T08:39:30Z,595273.599,NULL,Aufstand,ugomaji,s,mazidio,msingi,kujieleza,NA,sdfdsf,NA,1,NA,NA,NA,NA,NA,NA,NA,NA,NA,NA,NA,NA,NA,NA,NA,NA,NA,NA,NA
fb6b2,Deep Question,html.Page,3_0_1_0_7_0_0,NA,NA,form submission,7649.1009999284,595264.89999998,595257.171,595273.599,602922.69999993,602922.89999998,2023-04-15T08:39:38Z,602934.055,NULL,Verzögerung,kuchelewa,d,NA,NA,NA,gg,NA,NA,1,NA,NA,NA,NA,NA,NA,NA,NA,NA,NA,NA,NA,NA,NA,NA,NA,NA,NA,NA
fb6b2,"""Richtig""-Screen",canvas.Screen,3_0_1_0_7_0_1,NA,NA,skipped,NA,602924.79999995,NA,NA,602922.69999993,602924.89999998,2023-04-15T08:39:38Z,602934.055,NULL,Verzögerung,kuchelewa,d,NA,NA,NA,NA,sdfdsf,NA,1,NA,NA,NA,NA,NA,NA,NA,NA,NA,NA,NA,NA,NA,NA,NA,NA,NA,NA,NA
fb6b2,"""Falsch""-Screen",canvas.Screen,3_0_1_0_7_0_2,NA,NA,timeout,4995.8019999999,602925.60000002,602917.306,602934.055,607913.489,607914.5,2023-04-15T08:39:43Z,607929.857,NULL,Verzögerung,kuchelewa,d,NA,NA,NA,NA,sdfdsf,0,1,NA,NA,NA,NA,NA,NA,NA,NA,NA,NA,NA,NA,NA,NA,NA,NA,NA,NA,NA
fb6b2,deep,flow.Sequence,3_0_1_0_7_0,NA,NA,completion,12639.89,595264.89999998,595257.171,595273.599,607913.489,607914.89999998,2023-04-15T08:39:43Z,607929.857,NULL,Verzögerung,kuchelewa,d,NA,NA,NA,NA,sdfdsf,NA,1,NA,NA,NA,NA,NA,NA,NA,NA,NA,NA,NA,NA,NA,NA,NA,NA,NA,NA,NA
fb6b2,shallow,flow.Sequence,3_0_1_0_7_1,NA,NA,skipped,NA,607915,NA,NA,607913.489,607915.19999993,2023-04-15T08:39:43Z,607929.857,NULL,Verzögerung,kuchelewa,d,NA,NA,NA,NA,sdfdsf,NA,1,NA,NA,NA,NA,NA,NA,NA,NA,NA,NA,NA,NA,NA,NA,NA,NA,NA,NA,NA
fb6b2,task,flow.Sequence,3_0_1_0_7,NA,NA,completion,12639.89,595264.79999995,595257.171,595273.599,607913.489,607915.5,2023-04-15T08:39:43Z,607929.857,NULL,Verzögerung,kuchelewa,d,NA,NA,NA,NA,sdfdsf,NA,1,NA,NA,NA,NA,NA,NA,NA,NA,NA,NA,NA,NA,NA,NA,NA,NA,NA,NA,NA
fb6b2,block,flow.Loop,3_0_1_0,NA,NA,completion,107311.995,500585.79999995,500585.03,500601.494,607913.489,607915.69999993,2023-04-15T08:39:43Z,607929.857,NULL,NA,NA,NA,NA,NA,NA,NA,sdfdsf,NA,1,NA,NA,NA,NA,NA,NA,NA,NA,NA,NA,NA,NA,NA,NA,NA,NA,NA,NA,NA
fb6b2,weiter,canvas.Screen,3_0_1_1,sdf,keypress(Space),response,1028.7430000239,607915.89999998,607913.489,607929.857,608958.60000002,608959.19999993,2023-04-15T08:39:44Z,608995.517,NULL,NA,NA,NA,NA,NA,NA,NA,sdfdsf,NA,1,NA,NA,NA,NA,NA,NA,NA,NA,NA,NA,NA,NA,NA,NA,NA,NA,NA,NA,NA
fb6b2,check continue,flow.Sequence,3_0_1,NA,NA,completion,108357.10600002,500585.79999995,500585.03,500601.494,608958.60000002,608959.29999995,2023-04-15T08:39:44Z,608995.517,NULL,NA,NA,NA,NA,NA,NA,NA,sdfdsf,NA,1,NA,NA,NA,NA,NA,NA,NA,NA,NA,NA,NA,NA,NA,NA,NA,NA,NA,NA,NA
fb6b2,deep,flow.Sequence,3_0_2_0_0_0,NA,NA,skipped,NA,608989.5,NA,NA,608958.60000002,608989.5,2023-04-15T08:39:44Z,608995.517,NULL,Aufstand,ugomaji,s,mazidio,msingi,kujieleza,NA,sdf,NA,2,NA,NA,NA,NA,NA,NA,NA,NA,NA,NA,NA,NA,NA,NA,NA,NA,NA,NA,NA
fb6b2,Shallow Question,html.Page,3_0_2_0_0_1_0,NA,NA,form submission,4994.983,608989.60000002,608978.894,608995.517,613990.5,613990.79999995,2023-04-15T08:39:49Z,613991.443,NULL,Aufstand,ugomaji,s,mazidio,msingi,kujieleza,ugomaji,NA,NA,2,NA,NA,NA,NA,NA,NA,NA,NA,NA,NA,NA,NA,NA,NA,NA,NA,NA,NA,NA
fb6b2,"""Richtig""-Screen",canvas.Screen,3_0_2_0_0_1_1,NA,NA,timeout,4996.3910000001,613992.60000002,613974.938,613991.443,618970.838,618972,2023-04-15T08:39:54Z,618987.834,NULL,Aufstand,ugomaji,s,mazidio,msingi,kujieleza,NA,sdf,1,2,NA,NA,NA,NA,NA,NA,NA,NA,NA,NA,NA,NA,NA,NA,NA,NA,NA,NA,NA
fb6b2,"""Falsch""-Screen",canvas.Screen,3_0_2_0_0_1_2,NA,NA,skipped,NA,618976.89999998,NA,NA,618970.838,618977,2023-04-15T08:39:54Z,618987.834,NULL,Aufstand,ugomaji,s,mazidio,msingi,kujieleza,NA,sdf,NA,2,NA,NA,NA,NA,NA,NA,NA,NA,NA,NA,NA,NA,NA,NA,NA,NA,NA,NA,NA
fb6b2,shallow,flow.Sequence,3_0_2_0_0_1,NA,NA,completion,9975.321,608989.60000002,608978.894,608995.517,618970.838,618977.10000002,2023-04-15T08:39:54Z,618987.834,NULL,Aufstand,ugomaji,s,mazidio,msingi,kujieleza,NA,sdf,NA,2,NA,NA,NA,NA,NA,NA,NA,NA,NA,NA,NA,NA,NA,NA,NA,NA,NA,NA,NA
fb6b2,task,flow.Sequence,3_0_2_0_0,NA,NA,completion,9975.321,608989.29999995,608978.894,608995.517,618970.838,618977.29999995,2023-04-15T08:39:54Z,618987.834,NULL,Aufstand,ugomaji,s,mazidio,msingi,kujieleza,NA,sdf,NA,2,NA,NA,NA,NA,NA,NA,NA,NA,NA,NA,NA,NA,NA,NA,NA,NA,NA,NA,NA
fb6b2,Deep Question,html.Page,3_0_2_0_1_0_0,NA,NA,form submission,11276.266000024,618977.29999995,618970.838,618987.834,630264.10000002,630264.19999993,2023-04-15T08:40:05Z,630278.43,NULL,Begegnung,kukutana,d,NA,NA,NA,kukutana,NA,NA,2,NA,NA,NA,NA,NA,NA,NA,NA,NA,NA,NA,NA,NA,NA,NA,NA,NA,NA,NA
fb6b2,"""Richtig""-Screen",canvas.Screen,3_0_2_0_1_0_1,NA,NA,timeout,4996.291,630266.10000002,630261.977,630278.43,635257.377,635259.19999993,2023-04-15T08:40:10Z,635274.721,NULL,Begegnung,kukutana,d,NA,NA,NA,NA,sdf,1,2,NA,NA,NA,NA,NA,NA,NA,NA,NA,NA,NA,NA,NA,NA,NA,NA,NA,NA,NA
fb6b2,"""Falsch""-Screen",canvas.Screen,3_0_2_0_1_0_2,NA,NA,skipped,NA,635261.5,NA,NA,635257.377,635261.60000002,2023-04-15T08:40:10Z,635274.721,NULL,Begegnung,kukutana,d,NA,NA,NA,NA,sdf,NA,2,NA,NA,NA,NA,NA,NA,NA,NA,NA,NA,NA,NA,NA,NA,NA,NA,NA,NA,NA
fb6b2,deep,flow.Sequence,3_0_2_0_1_0,NA,NA,completion,16269.543,618977.29999995,618970.838,618987.834,635257.377,635261.69999993,2023-04-15T08:40:10Z,635274.721,NULL,Begegnung,kukutana,d,NA,NA,NA,NA,sdf,NA,2,NA,NA,NA,NA,NA,NA,NA,NA,NA,NA,NA,NA,NA,NA,NA,NA,NA,NA,NA
fb6b2,shallow,flow.Sequence,3_0_2_0_1_1,NA,NA,skipped,NA,635261.69999993,NA,NA,635257.377,635261.79999995,2023-04-15T08:40:10Z,635274.721,NULL,Begegnung,kukutana,d,NA,NA,NA,NA,sdf,NA,2,NA,NA,NA,NA,NA,NA,NA,NA,NA,NA,NA,NA,NA,NA,NA,NA,NA,NA,NA
fb6b2,task,flow.Sequence,3_0_2_0_1,NA,NA,completion,16269.543,618977.29999995,618970.838,618987.834,635257.377,635261.79999995,2023-04-15T08:40:10Z,635274.721,NULL,Begegnung,kukutana,d,NA,NA,NA,NA,sdf,NA,2,NA,NA,NA,NA,NA,NA,NA,NA,NA,NA,NA,NA,NA,NA,NA,NA,NA,NA,NA
fb6b2,deep,flow.Sequence,3_0_2_0_2_0,NA,NA,skipped,NA,635262,NA,NA,635257.377,635262.10000002,2023-04-15T08:40:10Z,635274.721,NULL,Fleisch,mshakiki,s,kizunguzungu,mshikamano,angusho,NA,sdf,NA,2,NA,NA,NA,NA,NA,NA,NA,NA,NA,NA,NA,NA,NA,NA,NA,NA,NA,NA,NA
fb6b2,Shallow Question,html.Page,3_0_2_0_2_1_0,NA,NA,form submission,4918.5789999523,635262.19999993,635257.377,635274.721,640193.29999995,640193.39999998,2023-04-15T08:40:15Z,640203.535,NULL,Fleisch,mshakiki,s,kizunguzungu,mshikamano,angusho,mshakiki,NA,NA,2,NA,NA,NA,NA,NA,NA,NA,NA,NA,NA,NA,NA,NA,NA,NA,NA,NA,NA,NA
fb6b2,"""Richtig""-Screen",canvas.Screen,3_0_2_0_2_1_1,NA,NA,timeout,4995.735,640195.19999993,640186.589,640203.535,645182.807,645183.79999995,2023-04-15T08:40:20Z,645199.27,NULL,Fleisch,mshakiki,s,kizunguzungu,mshikamano,angusho,NA,sdf,1,2,NA,NA,NA,NA,NA,NA,NA,NA,NA,NA,NA,NA,NA,NA,NA,NA,NA,NA,NA
fb6b2,"""Falsch""-Screen",canvas.Screen,3_0_2_0_2_1_2,NA,NA,skipped,NA,645189.39999998,NA,NA,645182.807,645189.69999993,2023-04-15T08:40:20Z,645199.27,NULL,Fleisch,mshakiki,s,kizunguzungu,mshikamano,angusho,NA,sdf,NA,2,NA,NA,NA,NA,NA,NA,NA,NA,NA,NA,NA,NA,NA,NA,NA,NA,NA,NA,NA
fb6b2,shallow,flow.Sequence,3_0_2_0_2_1,NA,NA,completion,9908.086,635262.10000002,635257.377,635274.721,645182.807,645190.10000002,2023-04-15T08:40:20Z,645199.27,NULL,Fleisch,mshakiki,s,kizunguzungu,mshikamano,angusho,NA,sdf,NA,2,NA,NA,NA,NA,NA,NA,NA,NA,NA,NA,NA,NA,NA,NA,NA,NA,NA,NA,NA
fb6b2,task,flow.Sequence,3_0_2_0_2,NA,NA,completion,9908.086,635262,635257.377,635274.721,645182.807,645190.39999998,2023-04-15T08:40:20Z,645199.27,NULL,Fleisch,mshakiki,s,kizunguzungu,mshikamano,angusho,NA,sdf,NA,2,NA,NA,NA,NA,NA,NA,NA,NA,NA,NA,NA,NA,NA,NA,NA,NA,NA,NA,NA
fb6b2,Deep Question,html.Page,3_0_2_0_3_0_0,NA,NA,form submission,12903.23,645190.69999993,645182.807,645199.27,658102.5,658102.79999995,2023-04-15T08:40:33Z,658105.252,NULL,Kultur,utamaduni,d,NA,NA,NA,utahudani,NA,NA,2,NA,NA,NA,NA,NA,NA,NA,NA,NA,NA,NA,NA,NA,NA,NA,NA,NA,NA,NA
fb6b2,"""Richtig""-Screen",canvas.Screen,3_0_2_0_3_0_1,NA,NA,skipped,NA,658105,NA,NA,658102.5,658105.19999993,2023-04-15T08:40:33Z,658105.252,NULL,Kultur,utamaduni,d,NA,NA,NA,NA,sdf,NA,2,NA,NA,NA,NA,NA,NA,NA,NA,NA,NA,NA,NA,NA,NA,NA,NA,NA,NA,NA
fb6b2,"""Falsch""-Screen",canvas.Screen,3_0_2_0_3_0_2,NA,NA,timeout,4996.0040000001,658105.79999995,658089.279,658105.252,663085.071,663086,2023-04-15T08:40:38Z,663101.256,NULL,Kultur,utamaduni,d,NA,NA,NA,NA,sdf,0,2,NA,NA,NA,NA,NA,NA,NA,NA,NA,NA,NA,NA,NA,NA,NA,NA,NA,NA,NA
fb6b2,deep,flow.Sequence,3_0_2_0_3_0,NA,NA,completion,17885.801,645190.5,645182.807,645199.27,663085.071,663086.60000002,2023-04-15T08:40:38Z,663101.256,NULL,Kultur,utamaduni,d,NA,NA,NA,NA,sdf,NA,2,NA,NA,NA,NA,NA,NA,NA,NA,NA,NA,NA,NA,NA,NA,NA,NA,NA,NA,NA
fb6b2,shallow,flow.Sequence,3_0_2_0_3_1,NA,NA,skipped,NA,663086.69999993,NA,NA,663085.071,663086.89999998,2023-04-15T08:40:38Z,663101.256,NULL,Kultur,utamaduni,d,NA,NA,NA,NA,sdf,NA,2,NA,NA,NA,NA,NA,NA,NA,NA,NA,NA,NA,NA,NA,NA,NA,NA,NA,NA,NA
fb6b2,task,flow.Sequence,3_0_2_0_3,NA,NA,completion,17885.801,645190.5,645182.807,645199.27,663085.071,663087.19999993,2023-04-15T08:40:38Z,663101.256,NULL,Kultur,utamaduni,d,NA,NA,NA,NA,sdf,NA,2,NA,NA,NA,NA,NA,NA,NA,NA,NA,NA,NA,NA,NA,NA,NA,NA,NA,NA,NA
fb6b2,Deep Question,html.Page,3_0_2_0_4_0_0,NA,NA,form submission,14836.543999952,663087.5,663085.071,663101.256,677937.79999995,677938,2023-04-15T08:40:53Z,677938.926,NULL,Verzögerung,kuchelewa,d,NA,NA,NA,kuchelewa,NA,NA,2,NA,NA,NA,NA,NA,NA,NA,NA,NA,NA,NA,NA,NA,NA,NA,NA,NA,NA,NA
fb6b2,"""Richtig""-Screen",canvas.Screen,3_0_2_0_4_0_1,NA,NA,timeout,4996.692,677940.5,677922.563,677938.926,682918.789,682919.60000002,2023-04-15T08:40:58Z,682935.618,NULL,Verzögerung,kuchelewa,d,NA,NA,NA,NA,sdf,1,2,NA,NA,NA,NA,NA,NA,NA,NA,NA,NA,NA,NA,NA,NA,NA,NA,NA,NA,NA
fb6b2,"""Falsch""-Screen",canvas.Screen,3_0_2_0_4_0_2,NA,NA,skipped,NA,682923.69999993,NA,NA,682918.789,682924,2023-04-15T08:40:58Z,682935.618,NULL,Verzögerung,kuchelewa,d,NA,NA,NA,NA,sdf,NA,2,NA,NA,NA,NA,NA,NA,NA,NA,NA,NA,NA,NA,NA,NA,NA,NA,NA,NA,NA
fb6b2,deep,flow.Sequence,3_0_2_0_4_0,NA,NA,completion,19817.533,663087.39999998,663085.071,663101.256,682918.789,682924.39999998,2023-04-15T08:40:58Z,682935.618,NULL,Verzögerung,kuchelewa,d,NA,NA,NA,NA,sdf,NA,2,NA,NA,NA,NA,NA,NA,NA,NA,NA,NA,NA,NA,NA,NA,NA,NA,NA,NA,NA
fb6b2,shallow,flow.Sequence,3_0_2_0_4_1,NA,NA,skipped,NA,682924.5,NA,NA,682918.789,682924.69999993,2023-04-15T08:40:58Z,682935.618,NULL,Verzögerung,kuchelewa,d,NA,NA,NA,NA,sdf,NA,2,NA,NA,NA,NA,NA,NA,NA,NA,NA,NA,NA,NA,NA,NA,NA,NA,NA,NA,NA
fb6b2,task,flow.Sequence,3_0_2_0_4,NA,NA,completion,19817.533,663087.29999995,663085.071,663101.256,682918.789,682924.79999995,2023-04-15T08:40:58Z,682935.618,NULL,Verzögerung,kuchelewa,d,NA,NA,NA,NA,sdf,NA,2,NA,NA,NA,NA,NA,NA,NA,NA,NA,NA,NA,NA,NA,NA,NA,NA,NA,NA,NA
fb6b2,deep,flow.Sequence,3_0_2_0_5_0,NA,NA,skipped,NA,682925,NA,NA,682918.789,682925,2023-04-15T08:40:58Z,682935.618,NULL,Prüfung,mtihani,s,mkulima,mtizamo,ufumbuzi,NA,sdf,NA,2,NA,NA,NA,NA,NA,NA,NA,NA,NA,NA,NA,NA,NA,NA,NA,NA,NA,NA,NA
fb6b2,Shallow Question,html.Page,3_0_2_0_5_1_0,NA,NA,form submission,3638.1819999523,682925,682918.789,682935.618,686573.79999995,686573.89999998,2023-04-15T08:41:01Z,686582.055,NULL,Prüfung,mtihani,s,mkulima,mtizamo,ufumbuzi,mtihani,NA,NA,2,NA,NA,NA,NA,NA,NA,NA,NA,NA,NA,NA,NA,NA,NA,NA,NA,NA,NA,NA
fb6b2,"""Richtig""-Screen",canvas.Screen,3_0_2_0_5_1_1,NA,NA,timeout,4996.2189999999,686575.69999993,686565.781,686582.055,691561.148,691563,2023-04-15T08:41:06Z,691578.274,NULL,Prüfung,mtihani,s,mkulima,mtizamo,ufumbuzi,NA,sdf,1,2,NA,NA,NA,NA,NA,NA,NA,NA,NA,NA,NA,NA,NA,NA,NA,NA,NA,NA,NA
fb6b2,"""Falsch""-Screen",canvas.Screen,3_0_2_0_5_1_2,NA,NA,skipped,NA,691565.89999998,NA,NA,691561.148,691566.10000002,2023-04-15T08:41:06Z,691578.274,NULL,Prüfung,mtihani,s,mkulima,mtizamo,ufumbuzi,NA,sdf,NA,2,NA,NA,NA,NA,NA,NA,NA,NA,NA,NA,NA,NA,NA,NA,NA,NA,NA,NA,NA
fb6b2,shallow,flow.Sequence,3_0_2_0_5_1,NA,NA,completion,8625.53,682925,682918.789,682935.618,691561.148,691566.19999993,2023-04-15T08:41:06Z,691578.274,NULL,Prüfung,mtihani,s,mkulima,mtizamo,ufumbuzi,NA,sdf,NA,2,NA,NA,NA,NA,NA,NA,NA,NA,NA,NA,NA,NA,NA,NA,NA,NA,NA,NA,NA
fb6b2,task,flow.Sequence,3_0_2_0_5,NA,NA,completion,8625.53,682925,682918.789,682935.618,691561.148,691566.39999998,2023-04-15T08:41:06Z,691578.274,NULL,Prüfung,mtihani,s,mkulima,mtizamo,ufumbuzi,NA,sdf,NA,2,NA,NA,NA,NA,NA,NA,NA,NA,NA,NA,NA,NA,NA,NA,NA,NA,NA,NA,NA
fb6b2,Deep Question,html.Page,3_0_2_0_6_0_0,NA,NA,form submission,9392.1259999762,691566.60000002,691561.148,691578.274,700970.39999998,700970.79999995,2023-04-15T08:41:16Z,701003.911,NULL,Genehmigung,idhini,d,NA,NA,NA,idhini,NA,NA,2,NA,NA,NA,NA,NA,NA,NA,NA,NA,NA,NA,NA,NA,NA,NA,NA,NA,NA,NA
fb6b2,"""Richtig""-Screen",canvas.Screen,3_0_2_0_6_0_1,NA,NA,timeout,4995.3500000001,700972.79999995,700987.078,701003.911,705982.722,705983.79999995,2023-04-15T08:41:21Z,705999.261,NULL,Genehmigung,idhini,d,NA,NA,NA,NA,sdf,1,2,NA,NA,NA,NA,NA,NA,NA,NA,NA,NA,NA,NA,NA,NA,NA,NA,NA,NA,NA
fb6b2,"""Falsch""-Screen",canvas.Screen,3_0_2_0_6_0_2,NA,NA,skipped,NA,705989.5,NA,NA,705982.722,705989.79999995,2023-04-15T08:41:21Z,705999.261,NULL,Genehmigung,idhini,d,NA,NA,NA,NA,sdf,NA,2,NA,NA,NA,NA,NA,NA,NA,NA,NA,NA,NA,NA,NA,NA,NA,NA,NA,NA,NA
fb6b2,deep,flow.Sequence,3_0_2_0_6_0,NA,NA,completion,14404.448,691566.5,691561.148,691578.274,705982.722,705990.29999995,2023-04-15T08:41:21Z,705999.261,NULL,Genehmigung,idhini,d,NA,NA,NA,NA,sdf,NA,2,NA,NA,NA,NA,NA,NA,NA,NA,NA,NA,NA,NA,NA,NA,NA,NA,NA,NA,NA
fb6b2,shallow,flow.Sequence,3_0_2_0_6_1,NA,NA,skipped,NA,705990.39999998,NA,NA,705982.722,705990.5,2023-04-15T08:41:21Z,705999.261,NULL,Genehmigung,idhini,d,NA,NA,NA,NA,sdf,NA,2,NA,NA,NA,NA,NA,NA,NA,NA,NA,NA,NA,NA,NA,NA,NA,NA,NA,NA,NA
fb6b2,task,flow.Sequence,3_0_2_0_6,NA,NA,completion,14404.448,691566.5,691561.148,691578.274,705982.722,705990.79999995,2023-04-15T08:41:21Z,705999.261,NULL,Genehmigung,idhini,d,NA,NA,NA,NA,sdf,NA,2,NA,NA,NA,NA,NA,NA,NA,NA,NA,NA,NA,NA,NA,NA,NA,NA,NA,NA,NA
fb6b2,deep,flow.Sequence,3_0_2_0_7_0,NA,NA,skipped,NA,705991,NA,NA,705982.722,705991.10000002,2023-04-15T08:41:21Z,705999.261,NULL,Integrität,uadilifu,s,muungano,mtiririko,upunguaji,NA,sdf,NA,2,NA,NA,NA,NA,NA,NA,NA,NA,NA,NA,NA,NA,NA,NA,NA,NA,NA,NA,NA
fb6b2,Shallow Question,html.Page,3_0_2_0_7_1_0,NA,NA,form submission,12258.038999952,705991.39999998,705982.722,705999.261,718257.29999995,718257.5,2023-04-15T08:41:33Z,718272.87,NULL,Integrität,uadilifu,s,muungano,mtiririko,upunguaji,uadilifu,NA,NA,2,NA,NA,NA,NA,NA,NA,NA,NA,NA,NA,NA,NA,NA,NA,NA,NA,NA,NA,NA
fb6b2,"""Richtig""-Screen",canvas.Screen,3_0_2_0_7_1_1,NA,NA,timeout,4995.873,718259.5,718256.293,718272.87,723252.045,723253.10000002,2023-04-15T08:41:38Z,723268.743,NULL,Integrität,uadilifu,s,muungano,mtiririko,upunguaji,NA,sdf,1,2,NA,NA,NA,NA,NA,NA,NA,NA,NA,NA,NA,NA,NA,NA,NA,NA,NA,NA,NA
fb6b2,"""Falsch""-Screen",canvas.Screen,3_0_2_0_7_1_2,NA,NA,skipped,NA,723258.39999998,NA,NA,723252.045,723258.5,2023-04-15T08:41:38Z,723268.743,NULL,Integrität,uadilifu,s,muungano,mtiririko,upunguaji,NA,sdf,NA,2,NA,NA,NA,NA,NA,NA,NA,NA,NA,NA,NA,NA,NA,NA,NA,NA,NA,NA,NA
fb6b2,shallow,flow.Sequence,3_0_2_0_7_1,NA,NA,completion,17252.784,705991.29999995,705982.722,705999.261,723252.045,723258.60000002,2023-04-15T08:41:38Z,723268.743,NULL,Integrität,uadilifu,s,muungano,mtiririko,upunguaji,NA,sdf,NA,2,NA,NA,NA,NA,NA,NA,NA,NA,NA,NA,NA,NA,NA,NA,NA,NA,NA,NA,NA
fb6b2,task,flow.Sequence,3_0_2_0_7,NA,NA,completion,17252.784,705990.89999998,705982.722,705999.261,723252.045,723258.69999993,2023-04-15T08:41:38Z,723268.743,NULL,Integrität,uadilifu,s,muungano,mtiririko,upunguaji,NA,sdf,NA,2,NA,NA,NA,NA,NA,NA,NA,NA,NA,NA,NA,NA,NA,NA,NA,NA,NA,NA,NA
fb6b2,block,flow.Loop,3_0_2_0,NA,NA,completion,114256.528,608989.29999995,608978.894,608995.517,723252.045,723258.79999995,2023-04-15T08:41:38Z,723268.743,NULL,NA,NA,NA,NA,NA,NA,NA,sdf,NA,2,NA,NA,NA,NA,NA,NA,NA,NA,NA,NA,NA,NA,NA,NA,NA,NA,NA,NA,NA
fb6b2,weiter,canvas.Screen,3_0_2_1,sdf,keypress(Space),response,917.85700002383,723258.79999995,723252.045,723268.743,724186.60000002,724187.60000002,2023-04-15T08:41:39Z,724700.533,NULL,NA,NA,NA,NA,NA,NA,NA,sdf,NA,2,NA,NA,NA,NA,NA,NA,NA,NA,NA,NA,NA,NA,NA,NA,NA,NA,NA,NA,NA
fb6b2,check continue,flow.Sequence,3_0_2,NA,NA,completion,115191.08300002,608989.29999995,608978.894,608995.517,724186.60000002,724188,2023-04-15T08:41:39Z,724700.533,NULL,NA,NA,NA,NA,NA,NA,NA,sdf,NA,2,NA,NA,NA,NA,NA,NA,NA,NA,NA,NA,NA,NA,NA,NA,NA,NA,NA,NA,NA
fb6b2,check continue,flow.Sequence,3_0_3,NA,NA,skipped,NA,724215.89999998,NA,NA,724186.60000002,724216,2023-04-15T08:41:39Z,724700.533,NULL,NA,NA,NA,NA,NA,NA,NA,qt,NA,3,NA,NA,NA,NA,NA,NA,NA,NA,NA,NA,NA,NA,NA,NA,NA,NA,NA,NA,NA
fb6b2,check continue,flow.Sequence,3_0_4,NA,NA,skipped,NA,724239.29999995,NA,NA,724186.60000002,724239.5,2023-04-15T08:41:39Z,724700.533,NULL,NA,NA,NA,NA,NA,NA,NA,sd,NA,4,NA,NA,NA,NA,NA,NA,NA,NA,NA,NA,NA,NA,NA,NA,NA,NA,NA,NA,NA
fb6b2,check continue,flow.Sequence,3_0_5,NA,NA,skipped,NA,724261.5,NA,NA,724186.60000002,724261.60000002,2023-04-15T08:41:39Z,724700.533,NULL,NA,NA,NA,NA,NA,NA,NA,sdf,NA,5,NA,NA,NA,NA,NA,NA,NA,NA,NA,NA,NA,NA,NA,NA,NA,NA,NA,NA,NA
fb6b2,check continue,flow.Sequence,3_0_6,NA,NA,skipped,NA,724278.39999998,NA,NA,724186.60000002,724278.5,2023-04-15T08:41:39Z,724700.533,NULL,NA,NA,NA,NA,NA,NA,NA,dfs,NA,6,NA,NA,NA,NA,NA,NA,NA,NA,NA,NA,NA,NA,NA,NA,NA,NA,NA,NA,NA
fb6b2,check continue,flow.Sequence,3_0_7,NA,NA,skipped,NA,724296.39999998,NA,NA,724186.60000002,724296.5,2023-04-15T08:41:39Z,724700.533,NULL,NA,NA,NA,NA,NA,NA,NA,df,NA,7,NA,NA,NA,NA,NA,NA,NA,NA,NA,NA,NA,NA,NA,NA,NA,NA,NA,NA,NA
fb6b2,check continue,flow.Sequence,3_0_8,NA,NA,skipped,NA,724324.69999993,NA,NA,724186.60000002,724324.79999995,2023-04-15T08:41:39Z,724700.533,NULL,NA,NA,NA,NA,NA,NA,NA,dfs,NA,8,NA,NA,NA,NA,NA,NA,NA,NA,NA,NA,NA,NA,NA,NA,NA,NA,NA,NA,NA
fb6b2,check continue,flow.Sequence,3_0_9,NA,NA,skipped,NA,724344.39999998,NA,NA,724186.60000002,724344.5,2023-04-15T08:41:39Z,724700.533,NULL,NA,NA,NA,NA,NA,NA,NA,dsf,NA,9,NA,NA,NA,NA,NA,NA,NA,NA,NA,NA,NA,NA,NA,NA,NA,NA,NA,NA,NA
fb6b2,check continue,flow.Sequence,3_0_10,NA,NA,skipped,NA,724361.60000002,NA,NA,724186.60000002,724361.60000002,2023-04-15T08:41:39Z,724700.533,NULL,NA,NA,NA,NA,NA,NA,NA,df,NA,10,NA,NA,NA,NA,NA,NA,NA,NA,NA,NA,NA,NA,NA,NA,NA,NA,NA,NA,NA
fb6b2,check continue,flow.Sequence,3_0_11,NA,NA,skipped,NA,724378.79999995,NA,NA,724186.60000002,724378.89999998,2023-04-15T08:41:39Z,724700.533,NULL,NA,NA,NA,NA,NA,NA,NA,dfs,NA,11,NA,NA,NA,NA,NA,NA,NA,NA,NA,NA,NA,NA,NA,NA,NA,NA,NA,NA,NA
fb6b2,check continue,flow.Sequence,3_0_12,NA,NA,skipped,NA,724396.19999993,NA,NA,724186.60000002,724396.29999995,2023-04-15T08:41:39Z,724700.533,NULL,NA,NA,NA,NA,NA,NA,NA,dsf,NA,12,NA,NA,NA,NA,NA,NA,NA,NA,NA,NA,NA,NA,NA,NA,NA,NA,NA,NA,NA
fb6b2,check continue,flow.Sequence,3_0_13,NA,NA,skipped,NA,724413.19999993,NA,NA,724186.60000002,724413.29999995,2023-04-15T08:41:39Z,724700.533,NULL,NA,NA,NA,NA,NA,NA,NA,dsf,NA,13,NA,NA,NA,NA,NA,NA,NA,NA,NA,NA,NA,NA,NA,NA,NA,NA,NA,NA,NA
fb6b2,check continue,flow.Sequence,3_0_14,NA,NA,skipped,NA,724429.5,NA,NA,724186.60000002,724429.69999993,2023-04-15T08:41:39Z,724700.533,NULL,NA,NA,NA,NA,NA,NA,NA,NA,NA,14,NA,NA,NA,NA,NA,NA,NA,NA,NA,NA,NA,NA,NA,NA,NA,NA,NA,NA,NA
fb6b2,check continue,flow.Sequence,3_0_15,NA,NA,skipped,NA,724450.89999998,NA,NA,724186.60000002,724451.10000002,2023-04-15T08:41:39Z,724700.533,NULL,NA,NA,NA,NA,NA,NA,NA,NA,NA,15,NA,NA,NA,NA,NA,NA,NA,NA,NA,NA,NA,NA,NA,NA,NA,NA,NA,NA,NA
fb6b2,check continue,flow.Sequence,3_0_16,NA,NA,skipped,NA,724473,NA,NA,724186.60000002,724473.10000002,2023-04-15T08:41:39Z,724700.533,NULL,NA,NA,NA,NA,NA,NA,NA,NA,NA,16,NA,NA,NA,NA,NA,NA,NA,NA,NA,NA,NA,NA,NA,NA,NA,NA,NA,NA,NA
fb6b2,check continue,flow.Sequence,3_0_17,NA,NA,skipped,NA,724493.39999998,NA,NA,724186.60000002,724493.5,2023-04-15T08:41:39Z,724700.533,NULL,NA,NA,NA,NA,NA,NA,NA,NA,NA,17,NA,NA,NA,NA,NA,NA,NA,NA,NA,NA,NA,NA,NA,NA,NA,NA,NA,NA,NA
fb6b2,check continue,flow.Sequence,3_0_18,NA,NA,skipped,NA,724508.29999995,NA,NA,724186.60000002,724508.39999998,2023-04-15T08:41:39Z,724700.533,NULL,NA,NA,NA,NA,NA,NA,NA,NA,NA,18,NA,NA,NA,NA,NA,NA,NA,NA,NA,NA,NA,NA,NA,NA,NA,NA,NA,NA,NA
fb6b2,check continue,flow.Sequence,3_0_19,NA,NA,skipped,NA,724526.10000002,NA,NA,724186.60000002,724526.19999993,2023-04-15T08:41:39Z,724700.533,NULL,NA,NA,NA,NA,NA,NA,NA,NA,NA,19,NA,NA,NA,NA,NA,NA,NA,NA,NA,NA,NA,NA,NA,NA,NA,NA,NA,NA,NA
fb6b2,check continue,flow.Sequence,3_0_20,NA,NA,skipped,NA,724542.89999998,NA,NA,724186.60000002,724543,2023-04-15T08:41:39Z,724700.533,NULL,NA,NA,NA,NA,NA,NA,NA,NA,NA,20,NA,NA,NA,NA,NA,NA,NA,NA,NA,NA,NA,NA,NA,NA,NA,NA,NA,NA,NA
fb6b2,check continue,flow.Sequence,3_0_21,NA,NA,skipped,NA,724560.19999993,NA,NA,724186.60000002,724560.39999998,2023-04-15T08:41:39Z,724700.533,NULL,NA,NA,NA,NA,NA,NA,NA,NA,NA,21,NA,NA,NA,NA,NA,NA,NA,NA,NA,NA,NA,NA,NA,NA,NA,NA,NA,NA,NA
fb6b2,check continue,flow.Sequence,3_0_22,NA,NA,skipped,NA,724577.60000002,NA,NA,724186.60000002,724577.60000002,2023-04-15T08:41:39Z,724700.533,NULL,NA,NA,NA,NA,NA,NA,NA,NA,NA,22,NA,NA,NA,NA,NA,NA,NA,NA,NA,NA,NA,NA,NA,NA,NA,NA,NA,NA,NA
fb6b2,check continue,flow.Sequence,3_0_23,NA,NA,skipped,NA,724594.29999995,NA,NA,724186.60000002,724594.39999998,2023-04-15T08:41:39Z,724700.533,NULL,NA,NA,NA,NA,NA,NA,NA,NA,NA,23,NA,NA,NA,NA,NA,NA,NA,NA,NA,NA,NA,NA,NA,NA,NA,NA,NA,NA,NA
fb6b2,check continue,flow.Sequence,3_0_24,NA,NA,skipped,NA,724613,NA,NA,724186.60000002,724613.19999993,2023-04-15T08:41:39Z,724700.533,NULL,NA,NA,NA,NA,NA,NA,NA,NA,NA,24,NA,NA,NA,NA,NA,NA,NA,NA,NA,NA,NA,NA,NA,NA,NA,NA,NA,NA,NA
fb6b2,check continue,flow.Sequence,3_0_25,NA,NA,skipped,NA,724627.60000002,NA,NA,724186.60000002,724627.69999993,2023-04-15T08:41:39Z,724700.533,NULL,NA,NA,NA,NA,NA,NA,NA,NA,NA,25,NA,NA,NA,NA,NA,NA,NA,NA,NA,NA,NA,NA,NA,NA,NA,NA,NA,NA,NA
fb6b2,check continue,flow.Sequence,3_0_26,NA,NA,skipped,NA,724644.5,NA,NA,724186.60000002,724644.60000002,2023-04-15T08:41:39Z,724700.533,NULL,NA,NA,NA,NA,NA,NA,NA,NA,NA,26,NA,NA,NA,NA,NA,NA,NA,NA,NA,NA,NA,NA,NA,NA,NA,NA,NA,NA,NA
fb6b2,check continue,flow.Sequence,3_0_27,NA,NA,skipped,NA,724661,NA,NA,724186.60000002,724661.10000002,2023-04-15T08:41:39Z,724700.533,NULL,NA,NA,NA,NA,NA,NA,NA,NA,NA,27,NA,NA,NA,NA,NA,NA,NA,NA,NA,NA,NA,NA,NA,NA,NA,NA,NA,NA,NA
fb6b2,check continue,flow.Sequence,3_0_28,NA,NA,skipped,NA,724678.10000002,NA,NA,724186.60000002,724678.19999993,2023-04-15T08:41:39Z,724700.533,NULL,NA,NA,NA,NA,NA,NA,NA,NA,NA,28,NA,NA,NA,NA,NA,NA,NA,NA,NA,NA,NA,NA,NA,NA,NA,NA,NA,NA,NA
fb6b2,check continue,flow.Sequence,3_0_29,NA,NA,skipped,NA,724696.29999995,NA,NA,724186.60000002,724696.39999998,2023-04-15T08:41:39Z,724700.533,NULL,NA,NA,NA,NA,NA,NA,NA,NA,NA,29,NA,NA,NA,NA,NA,NA,NA,NA,NA,NA,NA,NA,NA,NA,NA,NA,NA,NA,NA
fb6b2,until continue,flow.Loop,3_0,NA,NA,completion,313161.91400002,411006.19999993,410924.865,411024.686,724186.60000002,724696.5,2023-04-15T08:41:39Z,724700.533,NULL,NA,NA,NA,NA,NA,NA,NA,NA,NA,NA,NA,NA,NA,NA,NA,NA,NA,NA,NA,NA,NA,NA,NA,NA,NA,NA,NA,NA,NA
fb6b2,block 1,flow.Sequence,3,NA,NA,completion,313161.91400002,411006.19999993,410924.865,411024.686,724186.60000002,724696.60000002,2023-04-15T08:41:39Z,724700.533,NULL,NA,NA,NA,NA,NA,NA,NA,NA,NA,NA,NA,NA,NA,NA,NA,NA,NA,NA,NA,NA,NA,NA,NA,NA,NA,NA,NA,NA,NA
fb6b2,1.Part Over,canvas.Screen,4,NA,keypress(Space),response,2152.8669999761,724696.69999993,724684.182,724700.533,726853.39999998,726854.29999995,2023-04-15T08:41:42Z,726932.386,NULL,NA,NA,NA,NA,NA,NA,NA,NA,NA,NA,NA,NA,NA,NA,NA,NA,NA,NA,NA,NA,NA,NA,NA,NA,NA,NA,NA,NA,NA
fb6b2,deep,flow.Sequence,5_0_0_0_0_0,NA,NA,skipped,NA,726918.60000002,NA,NA,726853.39999998,726918.79999995,2023-04-15T08:41:42Z,726932.386,NULL,Sänger,mwimbaji,s,msichana,shughuli,mshirika,NA,sdf,NA,0,NA,NA,NA,NA,NA,NA,NA,NA,NA,NA,NA,NA,NA,NA,NA,NA,NA,NA,NA
fb6b2,Shallow Question,html.Page,5_0_0_0_0_1_0,NA,NA,form submission,6715.2140000238,726918.79999995,726915.35,726932.386,733647.60000002,733647.69999993,2023-04-15T08:41:48Z,733659.873,NULL,Sänger,mwimbaji,s,msichana,shughuli,mshirika,mshirika,NA,NA,0,NA,NA,NA,NA,NA,NA,NA,NA,NA,NA,NA,NA,NA,NA,NA,NA,NA,NA,NA
fb6b2,"""Richtig""-Screen",canvas.Screen,5_0_0_0_0_1_1,NA,NA,skipped,NA,733649.5,NA,NA,733647.60000002,733649.60000002,2023-04-15T08:41:48Z,733659.873,NULL,Sänger,mwimbaji,s,msichana,shughuli,mshirika,NA,sdf,NA,0,NA,NA,NA,NA,NA,NA,NA,NA,NA,NA,NA,NA,NA,NA,NA,NA,NA,NA,NA
fb6b2,"""Falsch""-Screen",canvas.Screen,5_0_0_0_0_1_2,NA,NA,timeout,4996.128,733650.19999993,733643.302,733659.873,738639.564,738640.10000002,2023-04-15T08:41:53Z,738656.001,NULL,Sänger,mwimbaji,s,msichana,shughuli,mshirika,NA,sdf,0,0,NA,NA,NA,NA,NA,NA,NA,NA,NA,NA,NA,NA,NA,NA,NA,NA,NA,NA,NA
fb6b2,shallow,flow.Sequence,5_0_0_0_0_1,NA,NA,completion,11707.178,726918.79999995,726915.35,726932.386,738639.564,738640.29999995,2023-04-15T08:41:53Z,738656.001,NULL,Sänger,mwimbaji,s,msichana,shughuli,mshirika,NA,sdf,NA,0,NA,NA,NA,NA,NA,NA,NA,NA,NA,NA,NA,NA,NA,NA,NA,NA,NA,NA,NA
fb6b2,task,flow.Sequence,5_0_0_0_0,NA,NA,completion,11707.178,726918.60000002,726915.35,726932.386,738639.564,738640.5,2023-04-15T08:41:53Z,738656.001,NULL,Sänger,mwimbaji,s,msichana,shughuli,mshirika,NA,sdf,NA,0,NA,NA,NA,NA,NA,NA,NA,NA,NA,NA,NA,NA,NA,NA,NA,NA,NA,NA,NA
fb6b2,Deep Question,html.Page,5_0_0_0_1_0_0,NA,NA,form submission,8398.8989999761,738640.5,738639.564,738656.001,747054.89999998,747055.19999993,2023-04-15T08:42:02Z,747065.562,NULL,Abrechnung,uhasibu,d,NA,NA,NA,tt,NA,NA,0,NA,NA,NA,NA,NA,NA,NA,NA,NA,NA,NA,NA,NA,NA,NA,NA,NA,NA,NA
fb6b2,"""Richtig""-Screen",canvas.Screen,5_0_0_0_1_0_1,NA,NA,skipped,NA,747057.19999993,NA,NA,747054.89999998,747057.29999995,2023-04-15T08:42:02Z,747065.562,NULL,Abrechnung,uhasibu,d,NA,NA,NA,NA,sdf,NA,0,NA,NA,NA,NA,NA,NA,NA,NA,NA,NA,NA,NA,NA,NA,NA,NA,NA,NA,NA
fb6b2,"""Falsch""-Screen",canvas.Screen,5_0_0_0_1_0_2,NA,NA,timeout,4995.865,747058.10000002,747049.456,747065.562,752044.864,752047.10000002,2023-04-15T08:42:07Z,752061.427,NULL,Abrechnung,uhasibu,d,NA,NA,NA,NA,sdf,0,0,NA,NA,NA,NA,NA,NA,NA,NA,NA,NA,NA,NA,NA,NA,NA,NA,NA,NA,NA
fb6b2,deep,flow.Sequence,5_0_0_0_1_0,NA,NA,completion,13388.863,738640.5,738639.564,738656.001,752044.864,752047.19999993,2023-04-15T08:42:07Z,752061.427,NULL,Abrechnung,uhasibu,d,NA,NA,NA,NA,sdf,NA,0,NA,NA,NA,NA,NA,NA,NA,NA,NA,NA,NA,NA,NA,NA,NA,NA,NA,NA,NA
fb6b2,shallow,flow.Sequence,5_0_0_0_1_1,NA,NA,skipped,NA,752047.29999995,NA,NA,752044.864,752047.39999998,2023-04-15T08:42:07Z,752061.427,NULL,Abrechnung,uhasibu,d,NA,NA,NA,NA,sdf,NA,0,NA,NA,NA,NA,NA,NA,NA,NA,NA,NA,NA,NA,NA,NA,NA,NA,NA,NA,NA
fb6b2,task,flow.Sequence,5_0_0_0_1,NA,NA,completion,13388.863,738640.5,738639.564,738656.001,752044.864,752047.5,2023-04-15T08:42:07Z,752061.427,NULL,Abrechnung,uhasibu,d,NA,NA,NA,NA,sdf,NA,0,NA,NA,NA,NA,NA,NA,NA,NA,NA,NA,NA,NA,NA,NA,NA,NA,NA,NA,NA
fb6b2,Deep Question,html.Page,5_0_0_0_2_0_0,NA,NA,form submission,4772.6730000238,752048.10000002,752044.864,752061.427,756834.10000002,756834.29999995,2023-04-15T08:42:12Z,756840.825,NULL,Atmosphäre,angahewa,d,NA,NA,NA,tt,NA,NA,0,NA,NA,NA,NA,NA,NA,NA,NA,NA,NA,NA,NA,NA,NA,NA,NA,NA,NA,NA
fb6b2,"""Richtig""-Screen",canvas.Screen,5_0_0_0_2_0_1,NA,NA,skipped,NA,756836.5,NA,NA,756834.10000002,756836.60000002,2023-04-15T08:42:12Z,756840.825,NULL,Atmosphäre,angahewa,d,NA,NA,NA,NA,sdf,NA,0,NA,NA,NA,NA,NA,NA,NA,NA,NA,NA,NA,NA,NA,NA,NA,NA,NA,NA,NA
fb6b2,"""Falsch""-Screen",canvas.Screen,5_0_0_0_2_0_2,NA,NA,timeout,4996.368,756837.29999995,756824.692,756840.825,761820.386,761821.39999998,2023-04-15T08:42:17Z,761837.193,NULL,Atmosphäre,angahewa,d,NA,NA,NA,NA,sdf,0,0,NA,NA,NA,NA,NA,NA,NA,NA,NA,NA,NA,NA,NA,NA,NA,NA,NA,NA,NA
fb6b2,deep,flow.Sequence,5_0_0_0_2_0,NA,NA,completion,9758.959,752048.10000002,752044.864,752061.427,761820.386,761821.79999995,2023-04-15T08:42:17Z,761837.193,NULL,Atmosphäre,angahewa,d,NA,NA,NA,NA,sdf,NA,0,NA,NA,NA,NA,NA,NA,NA,NA,NA,NA,NA,NA,NA,NA,NA,NA,NA,NA,NA
fb6b2,shallow,flow.Sequence,5_0_0_0_2_1,NA,NA,skipped,NA,761822,NA,NA,761820.386,761822.19999993,2023-04-15T08:42:17Z,761837.193,NULL,Atmosphäre,angahewa,d,NA,NA,NA,NA,sdf,NA,0,NA,NA,NA,NA,NA,NA,NA,NA,NA,NA,NA,NA,NA,NA,NA,NA,NA,NA,NA
fb6b2,task,flow.Sequence,5_0_0_0_2,NA,NA,completion,9758.959,752047.60000002,752044.864,752061.427,761820.386,761822.5,2023-04-15T08:42:17Z,761837.193,NULL,Atmosphäre,angahewa,d,NA,NA,NA,NA,sdf,NA,0,NA,NA,NA,NA,NA,NA,NA,NA,NA,NA,NA,NA,NA,NA,NA,NA,NA,NA,NA
fb6b2,deep,flow.Sequence,5_0_0_0_3_0,NA,NA,skipped,NA,761822.69999993,NA,NA,761820.386,761822.79999995,2023-04-15T08:42:17Z,761837.193,NULL,Erneuerung,ukarabati,s,ushawishi,ukalifu,unyonyaji,NA,sdf,NA,0,NA,NA,NA,NA,NA,NA,NA,NA,NA,NA,NA,NA,NA,NA,NA,NA,NA,NA,NA
fb6b2,Shallow Question,html.Page,5_0_0_0_3_1_0,NA,NA,form submission,4235.0069999285,761822.89999998,761820.386,761837.193,766072.19999993,766072.39999998,2023-04-15T08:42:21Z,766083.237,NULL,Erneuerung,ukarabati,s,ushawishi,ukalifu,unyonyaji,ukarabati,NA,NA,0,NA,NA,NA,NA,NA,NA,NA,NA,NA,NA,NA,NA,NA,NA,NA,NA,NA,NA,NA
fb6b2,"""Richtig""-Screen",canvas.Screen,5_0_0_0_3_1_1,NA,NA,timeout,4996.187,766074.5,766067.028,766083.237,771063.194,771063.60000002,2023-04-15T08:42:26Z,771079.424,NULL,Erneuerung,ukarabati,s,ushawishi,ukalifu,unyonyaji,NA,sdf,1,0,NA,NA,NA,NA,NA,NA,NA,NA,NA,NA,NA,NA,NA,NA,NA,NA,NA,NA,NA
fb6b2,"""Falsch""-Screen",canvas.Screen,5_0_0_0_3_1_2,NA,NA,skipped,NA,771065.69999993,NA,NA,771063.194,771065.89999998,2023-04-15T08:42:26Z,771079.424,NULL,Erneuerung,ukarabati,s,ushawishi,ukalifu,unyonyaji,NA,sdf,NA,0,NA,NA,NA,NA,NA,NA,NA,NA,NA,NA,NA,NA,NA,NA,NA,NA,NA,NA,NA
fb6b2,shallow,flow.Sequence,5_0_0_0_3_1,NA,NA,completion,9226.001,761822.79999995,761820.386,761837.193,771063.194,771066,2023-04-15T08:42:26Z,771079.424,NULL,Erneuerung,ukarabati,s,ushawishi,ukalifu,unyonyaji,NA,sdf,NA,0,NA,NA,NA,NA,NA,NA,NA,NA,NA,NA,NA,NA,NA,NA,NA,NA,NA,NA,NA
fb6b2,task,flow.Sequence,5_0_0_0_3,NA,NA,completion,9226.001,761822.60000002,761820.386,761837.193,771063.194,771066.10000002,2023-04-15T08:42:26Z,771079.424,NULL,Erneuerung,ukarabati,s,ushawishi,ukalifu,unyonyaji,NA,sdf,NA,0,NA,NA,NA,NA,NA,NA,NA,NA,NA,NA,NA,NA,NA,NA,NA,NA,NA,NA,NA
fb6b2,Deep Question,html.Page,5_0_0_0_4_0_0,NA,NA,form submission,3420.7759999285,771066.19999993,771063.194,771079.424,774500.19999993,774500.39999998,2023-04-15T08:42:29Z,774509.705,NULL,Kanzler,diwani,d,NA,NA,NA,rr,NA,NA,0,NA,NA,NA,NA,NA,NA,NA,NA,NA,NA,NA,NA,NA,NA,NA,NA,NA,NA,NA
fb6b2,"""Richtig""-Screen",canvas.Screen,5_0_0_0_4_0_1,NA,NA,skipped,NA,774502.29999995,NA,NA,774500.19999993,774502.39999998,2023-04-15T08:42:29Z,774509.705,NULL,Kanzler,diwani,d,NA,NA,NA,NA,sdf,NA,0,NA,NA,NA,NA,NA,NA,NA,NA,NA,NA,NA,NA,NA,NA,NA,NA,NA,NA,NA
fb6b2,"""Falsch""-Screen",canvas.Screen,5_0_0_0_4_0_2,NA,NA,timeout,4996.459,774503.10000002,774493.424,774509.705,779489.294,779490.29999995,2023-04-15T08:42:34Z,779506.164,NULL,Kanzler,diwani,d,NA,NA,NA,NA,sdf,0,0,NA,NA,NA,NA,NA,NA,NA,NA,NA,NA,NA,NA,NA,NA,NA,NA,NA,NA,NA
fb6b2,deep,flow.Sequence,5_0_0_0_4_0,NA,NA,completion,8409.87,771066.10000002,771063.194,771079.424,779489.294,779490.79999995,2023-04-15T08:42:34Z,779506.164,NULL,Kanzler,diwani,d,NA,NA,NA,NA,sdf,NA,0,NA,NA,NA,NA,NA,NA,NA,NA,NA,NA,NA,NA,NA,NA,NA,NA,NA,NA,NA
fb6b2,shallow,flow.Sequence,5_0_0_0_4_1,NA,NA,skipped,NA,779491.10000002,NA,NA,779489.294,779491.29999995,2023-04-15T08:42:34Z,779506.164,NULL,Kanzler,diwani,d,NA,NA,NA,NA,sdf,NA,0,NA,NA,NA,NA,NA,NA,NA,NA,NA,NA,NA,NA,NA,NA,NA,NA,NA,NA,NA
fb6b2,task,flow.Sequence,5_0_0_0_4,NA,NA,completion,8409.87,771066.10000002,771063.194,771079.424,779489.294,779491.5,2023-04-15T08:42:34Z,779506.164,NULL,Kanzler,diwani,d,NA,NA,NA,NA,sdf,NA,0,NA,NA,NA,NA,NA,NA,NA,NA,NA,NA,NA,NA,NA,NA,NA,NA,NA,NA,NA
fb6b2,deep,flow.Sequence,5_0_0_0_5_0,NA,NA,skipped,NA,779491.69999993,NA,NA,779489.294,779491.79999995,2023-04-15T08:42:34Z,779506.164,NULL,Angreifer,mshambulizi,s,kitengo,tasinia,usafirishaji,NA,sdf,NA,0,NA,NA,NA,NA,NA,NA,NA,NA,NA,NA,NA,NA,NA,NA,NA,NA,NA,NA,NA
fb6b2,Shallow Question,html.Page,5_0_0_0_5_1_0,NA,NA,form submission,4570.336,779492,779489.294,779506.164,784076.5,784076.69999993,2023-04-15T08:42:39Z,784085.348,NULL,Angreifer,mshambulizi,s,kitengo,tasinia,usafirishaji,tasinia,NA,NA,0,NA,NA,NA,NA,NA,NA,NA,NA,NA,NA,NA,NA,NA,NA,NA,NA,NA,NA,NA
fb6b2,"""Richtig""-Screen",canvas.Screen,5_0_0_0_5_1_1,NA,NA,skipped,NA,784078.79999995,NA,NA,784076.5,784078.89999998,2023-04-15T08:42:39Z,784085.348,NULL,Angreifer,mshambulizi,s,kitengo,tasinia,usafirishaji,NA,sdf,NA,0,NA,NA,NA,NA,NA,NA,NA,NA,NA,NA,NA,NA,NA,NA,NA,NA,NA,NA,NA
fb6b2,"""Falsch""-Screen",canvas.Screen,5_0_0_0_5_1_2,NA,NA,timeout,4996.295,784079.5,784068.732,784085.348,789065.033,789065.79999995,2023-04-15T08:42:44Z,789081.643,NULL,Angreifer,mshambulizi,s,kitengo,tasinia,usafirishaji,NA,sdf,0,0,NA,NA,NA,NA,NA,NA,NA,NA,NA,NA,NA,NA,NA,NA,NA,NA,NA,NA,NA
fb6b2,shallow,flow.Sequence,5_0_0_0_5_1,NA,NA,completion,9558.8690000001,779492,779489.294,779506.164,789065.033,789066,2023-04-15T08:42:44Z,789081.643,NULL,Angreifer,mshambulizi,s,kitengo,tasinia,usafirishaji,NA,sdf,NA,0,NA,NA,NA,NA,NA,NA,NA,NA,NA,NA,NA,NA,NA,NA,NA,NA,NA,NA,NA
fb6b2,task,flow.Sequence,5_0_0_0_5,NA,NA,completion,9558.8690000001,779491.60000002,779489.294,779506.164,789065.033,789066.19999993,2023-04-15T08:42:44Z,789081.643,NULL,Angreifer,mshambulizi,s,kitengo,tasinia,usafirishaji,NA,sdf,NA,0,NA,NA,NA,NA,NA,NA,NA,NA,NA,NA,NA,NA,NA,NA,NA,NA,NA,NA,NA
fb6b2,Deep Question,html.Page,5_0_0_0_6_0_0,NA,NA,form submission,4814.357,789066.29999995,789065.033,789081.643,793896,793896.29999995,2023-04-15T08:42:49Z,793910.747,NULL,Flexibilität,kubadilika,d,NA,NA,NA,rrr,NA,NA,0,NA,NA,NA,NA,NA,NA,NA,NA,NA,NA,NA,NA,NA,NA,NA,NA,NA,NA,NA
fb6b2,"""Richtig""-Screen",canvas.Screen,5_0_0_0_6_0_1,NA,NA,skipped,NA,793898.60000002,NA,NA,793896,793898.69999993,2023-04-15T08:42:49Z,793910.747,NULL,Flexibilität,kubadilika,d,NA,NA,NA,NA,sdf,NA,0,NA,NA,NA,NA,NA,NA,NA,NA,NA,NA,NA,NA,NA,NA,NA,NA,NA,NA,NA
fb6b2,"""Falsch""-Screen",canvas.Screen,5_0_0_0_6_0_2,NA,NA,timeout,4995.701,793899.29999995,793893.773,793910.747,798890.105,798890.69999993,2023-04-15T08:42:54Z,798906.448,NULL,Flexibilität,kubadilika,d,NA,NA,NA,NA,sdf,0,0,NA,NA,NA,NA,NA,NA,NA,NA,NA,NA,NA,NA,NA,NA,NA,NA,NA,NA,NA
fb6b2,deep,flow.Sequence,5_0_0_0_6_0,NA,NA,completion,9808.4619999999,789066.29999995,789065.033,789081.643,798890.105,798890.89999998,2023-04-15T08:42:54Z,798906.448,NULL,Flexibilität,kubadilika,d,NA,NA,NA,NA,sdf,NA,0,NA,NA,NA,NA,NA,NA,NA,NA,NA,NA,NA,NA,NA,NA,NA,NA,NA,NA,NA
fb6b2,shallow,flow.Sequence,5_0_0_0_6_1,NA,NA,skipped,NA,798890.89999998,NA,NA,798890.105,798891,2023-04-15T08:42:54Z,798906.448,NULL,Flexibilität,kubadilika,d,NA,NA,NA,NA,sdf,NA,0,NA,NA,NA,NA,NA,NA,NA,NA,NA,NA,NA,NA,NA,NA,NA,NA,NA,NA,NA
fb6b2,task,flow.Sequence,5_0_0_0_6,NA,NA,completion,9808.4619999999,789066.19999993,789065.033,789081.643,798890.105,798891.10000002,2023-04-15T08:42:54Z,798906.448,NULL,Flexibilität,kubadilika,d,NA,NA,NA,NA,sdf,NA,0,NA,NA,NA,NA,NA,NA,NA,NA,NA,NA,NA,NA,NA,NA,NA,NA,NA,NA,NA
fb6b2,deep,flow.Sequence,5_0_0_0_7_0,NA,NA,skipped,NA,798891.19999993,NA,NA,798890.105,798891.19999993,2023-04-15T08:42:54Z,798906.448,NULL,Wechsel,ugeuzaji,s,utambulisho,kujenga,wasiwasi,NA,sdf,NA,0,NA,NA,NA,NA,NA,NA,NA,NA,NA,NA,NA,NA,NA,NA,NA,NA,NA,NA,NA
fb6b2,Shallow Question,html.Page,5_0_0_0_7_1_0,NA,NA,form submission,3674.7519999285,798891.19999993,798890.105,798906.448,802581.19999993,802581.29999995,2023-04-15T08:42:57Z,802586.638,NULL,Wechsel,ugeuzaji,s,utambulisho,kujenga,wasiwasi,kujenga,NA,NA,0,NA,NA,NA,NA,NA,NA,NA,NA,NA,NA,NA,NA,NA,NA,NA,NA,NA,NA,NA
fb6b2,"""Richtig""-Screen",canvas.Screen,5_0_0_0_7_1_1,NA,NA,skipped,NA,802583.5,NA,NA,802581.19999993,802583.60000002,2023-04-15T08:42:57Z,802586.638,NULL,Wechsel,ugeuzaji,s,utambulisho,kujenga,wasiwasi,NA,sdf,NA,0,NA,NA,NA,NA,NA,NA,NA,NA,NA,NA,NA,NA,NA,NA,NA,NA,NA,NA,NA
fb6b2,"""Falsch""-Screen",canvas.Screen,5_0_0_0_7_1_2,NA,NA,timeout,4996.5029999999,802584.19999993,802570.621,802586.638,807566.27,807567.19999993,2023-04-15T08:43:02Z,807583.141,NULL,Wechsel,ugeuzaji,s,utambulisho,kujenga,wasiwasi,NA,sdf,0,0,NA,NA,NA,NA,NA,NA,NA,NA,NA,NA,NA,NA,NA,NA,NA,NA,NA,NA,NA
fb6b2,shallow,flow.Sequence,5_0_0_0_7_1,NA,NA,completion,8659.822,798891.19999993,798890.105,798906.448,807566.27,807567.69999993,2023-04-15T08:43:02Z,807583.141,NULL,Wechsel,ugeuzaji,s,utambulisho,kujenga,wasiwasi,NA,sdf,NA,0,NA,NA,NA,NA,NA,NA,NA,NA,NA,NA,NA,NA,NA,NA,NA,NA,NA,NA,NA
fb6b2,task,flow.Sequence,5_0_0_0_7,NA,NA,completion,8659.822,798891.19999993,798890.105,798906.448,807566.27,807568,2023-04-15T08:43:02Z,807583.141,NULL,Wechsel,ugeuzaji,s,utambulisho,kujenga,wasiwasi,NA,sdf,NA,0,NA,NA,NA,NA,NA,NA,NA,NA,NA,NA,NA,NA,NA,NA,NA,NA,NA,NA,NA
fb6b2,block,flow.Loop,5_0_0_0,NA,NA,completion,80633.884,726918.60000002,726915.35,726932.386,807566.27,807568.29999995,2023-04-15T08:43:02Z,807583.141,NULL,NA,NA,NA,NA,NA,NA,NA,sdf,NA,0,NA,NA,NA,NA,NA,NA,NA,NA,NA,NA,NA,NA,NA,NA,NA,NA,NA,NA,NA
fb6b2,weiter,canvas.Screen,5_0_0_1,sdf,keypress(Space),response,1165.1589999524,807568.39999998,807566.27,807583.141,808748.29999995,808750,2023-04-15T08:43:03Z,808798.2,NULL,NA,NA,NA,NA,NA,NA,NA,sdf,NA,0,NA,NA,NA,NA,NA,NA,NA,NA,NA,NA,NA,NA,NA,NA,NA,NA,NA,NA,NA
fb6b2,check continue,flow.Sequence,5_0_0,NA,NA,completion,81815.913999952,726918.5,726915.35,726932.386,808748.29999995,808750.10000002,2023-04-15T08:43:03Z,808798.2,NULL,NA,NA,NA,NA,NA,NA,NA,sdf,NA,0,NA,NA,NA,NA,NA,NA,NA,NA,NA,NA,NA,NA,NA,NA,NA,NA,NA,NA,NA
fb6b2,deep,flow.Sequence,5_0_1_0_0_0,NA,NA,skipped,NA,808791,NA,NA,808748.29999995,808791.10000002,2023-04-15T08:43:04Z,808798.2,NULL,Angreifer,mshambulizi,s,kitengo,tasinia,usafirishaji,NA,sdfdsf,NA,1,NA,NA,NA,NA,NA,NA,NA,NA,NA,NA,NA,NA,NA,NA,NA,NA,NA,NA,NA
fb6b2,Shallow Question,html.Page,5_0_1_0_0_1_0,NA,NA,form submission,8396.0999999524,808791.19999993,808781.765,808798.2,817194.29999995,817194.5,2023-04-15T08:43:12Z,817208.626,NULL,Angreifer,mshambulizi,s,kitengo,tasinia,usafirishaji,mshambulizi,NA,NA,1,NA,NA,NA,NA,NA,NA,NA,NA,NA,NA,NA,NA,NA,NA,NA,NA,NA,NA,NA
fb6b2,"""Richtig""-Screen",canvas.Screen,5_0_1_0_0_1_1,NA,NA,timeout,4995.2849999999,817196.5,817191.359,817208.626,822187.684,822188.69999993,2023-04-15T08:43:17Z,822203.911,NULL,Angreifer,mshambulizi,s,kitengo,tasinia,usafirishaji,NA,sdfdsf,1,1,NA,NA,NA,NA,NA,NA,NA,NA,NA,NA,NA,NA,NA,NA,NA,NA,NA,NA,NA
fb6b2,"""Falsch""-Screen",canvas.Screen,5_0_1_0_0_1_2,NA,NA,skipped,NA,822194.89999998,NA,NA,822187.684,822195.29999995,2023-04-15T08:43:17Z,822203.911,NULL,Angreifer,mshambulizi,s,kitengo,tasinia,usafirishaji,NA,sdfdsf,NA,1,NA,NA,NA,NA,NA,NA,NA,NA,NA,NA,NA,NA,NA,NA,NA,NA,NA,NA,NA
fb6b2,shallow,flow.Sequence,5_0_1_0_0_1,NA,NA,completion,13389.484,808791.19999993,808781.765,808798.2,822187.684,822195.69999993,2023-04-15T08:43:17Z,822203.911,NULL,Angreifer,mshambulizi,s,kitengo,tasinia,usafirishaji,NA,sdfdsf,NA,1,NA,NA,NA,NA,NA,NA,NA,NA,NA,NA,NA,NA,NA,NA,NA,NA,NA,NA,NA
fb6b2,task,flow.Sequence,5_0_1_0_0,NA,NA,completion,13389.484,808791,808781.765,808798.2,822187.684,822196.10000002,2023-04-15T08:43:17Z,822203.911,NULL,Angreifer,mshambulizi,s,kitengo,tasinia,usafirishaji,NA,sdfdsf,NA,1,NA,NA,NA,NA,NA,NA,NA,NA,NA,NA,NA,NA,NA,NA,NA,NA,NA,NA,NA
fb6b2,Deep Question,html.Page,5_0_1_0_1_0_0,NA,NA,form submission,9002.089,822196.29999995,822187.684,822203.911,831206,831206.19999993,2023-04-15T08:43:26Z,831213.116,NULL,Abrechnung,uhasibu,d,NA,NA,NA,uhasibu,NA,NA,1,NA,NA,NA,NA,NA,NA,NA,NA,NA,NA,NA,NA,NA,NA,NA,NA,NA,NA,NA
fb6b2,"""Richtig""-Screen",canvas.Screen,5_0_1_0_1_0_1,NA,NA,timeout,4995.906,831208.29999995,831197.226,831213.116,836193.011,836193.69999993,2023-04-15T08:43:31Z,836209.022,NULL,Abrechnung,uhasibu,d,NA,NA,NA,NA,sdfdsf,1,1,NA,NA,NA,NA,NA,NA,NA,NA,NA,NA,NA,NA,NA,NA,NA,NA,NA,NA,NA
fb6b2,"""Falsch""-Screen",canvas.Screen,5_0_1_0_1_0_2,NA,NA,skipped,NA,836196.89999998,NA,NA,836193.011,836197,2023-04-15T08:43:31Z,836209.022,NULL,Abrechnung,uhasibu,d,NA,NA,NA,NA,sdfdsf,NA,1,NA,NA,NA,NA,NA,NA,NA,NA,NA,NA,NA,NA,NA,NA,NA,NA,NA,NA,NA
fb6b2,deep,flow.Sequence,5_0_1_0_1_0,NA,NA,completion,13989.1,822196.29999995,822187.684,822203.911,836193.011,836197.19999993,2023-04-15T08:43:31Z,836209.022,NULL,Abrechnung,uhasibu,d,NA,NA,NA,NA,sdfdsf,NA,1,NA,NA,NA,NA,NA,NA,NA,NA,NA,NA,NA,NA,NA,NA,NA,NA,NA,NA,NA
fb6b2,shallow,flow.Sequence,5_0_1_0_1_1,NA,NA,skipped,NA,836197.29999995,NA,NA,836193.011,836197.39999998,2023-04-15T08:43:31Z,836209.022,NULL,Abrechnung,uhasibu,d,NA,NA,NA,NA,sdfdsf,NA,1,NA,NA,NA,NA,NA,NA,NA,NA,NA,NA,NA,NA,NA,NA,NA,NA,NA,NA,NA
fb6b2,task,flow.Sequence,5_0_1_0_1,NA,NA,completion,13989.1,822196.19999993,822187.684,822203.911,836193.011,836197.60000002,2023-04-15T08:43:31Z,836209.022,NULL,Abrechnung,uhasibu,d,NA,NA,NA,NA,sdfdsf,NA,1,NA,NA,NA,NA,NA,NA,NA,NA,NA,NA,NA,NA,NA,NA,NA,NA,NA,NA,NA
fb6b2,deep,flow.Sequence,5_0_1_0_2_0,NA,NA,skipped,NA,836197.60000002,NA,NA,836193.011,836197.69999993,2023-04-15T08:43:31Z,836209.022,NULL,Sänger,mwimbaji,s,msichana,shughuli,mshirika,NA,sdfdsf,NA,1,NA,NA,NA,NA,NA,NA,NA,NA,NA,NA,NA,NA,NA,NA,NA,NA,NA,NA,NA
fb6b2,Shallow Question,html.Page,5_0_1_0_2_1_0,NA,NA,form submission,6828.1779999285,836197.79999995,836193.011,836209.022,843037.19999993,843037.5,2023-04-15T08:43:38Z,843057.172,NULL,Sänger,mwimbaji,s,msichana,shughuli,mshirika,mwimbaji,NA,NA,1,NA,NA,NA,NA,NA,NA,NA,NA,NA,NA,NA,NA,NA,NA,NA,NA,NA,NA,NA
fb6b2,"""Richtig""-Screen",canvas.Screen,5_0_1_0_2_1_1,NA,NA,timeout,4992.485,843039.39999998,843020.306,843057.172,848033.299,848034.39999998,2023-04-15T08:43:43Z,848049.657,NULL,Sänger,mwimbaji,s,msichana,shughuli,mshirika,NA,sdfdsf,1,1,NA,NA,NA,NA,NA,NA,NA,NA,NA,NA,NA,NA,NA,NA,NA,NA,NA,NA,NA
fb6b2,"""Falsch""-Screen",canvas.Screen,5_0_1_0_2_1_2,NA,NA,skipped,NA,848040.10000002,NA,NA,848033.299,848040.19999993,2023-04-15T08:43:43Z,848049.657,NULL,Sänger,mwimbaji,s,msichana,shughuli,mshirika,NA,sdfdsf,NA,1,NA,NA,NA,NA,NA,NA,NA,NA,NA,NA,NA,NA,NA,NA,NA,NA,NA,NA,NA
fb6b2,shallow,flow.Sequence,5_0_1_0_2_1,NA,NA,completion,11824.277,836197.79999995,836193.011,836209.022,848033.299,848040.39999998,2023-04-15T08:43:43Z,848049.657,NULL,Sänger,mwimbaji,s,msichana,shughuli,mshirika,NA,sdfdsf,NA,1,NA,NA,NA,NA,NA,NA,NA,NA,NA,NA,NA,NA,NA,NA,NA,NA,NA,NA,NA
fb6b2,task,flow.Sequence,5_0_1_0_2,NA,NA,completion,11824.277,836197.60000002,836193.011,836209.022,848033.299,848040.5,2023-04-15T08:43:43Z,848049.657,NULL,Sänger,mwimbaji,s,msichana,shughuli,mshirika,NA,sdfdsf,NA,1,NA,NA,NA,NA,NA,NA,NA,NA,NA,NA,NA,NA,NA,NA,NA,NA,NA,NA,NA
fb6b2,Deep Question,html.Page,5_0_1_0_3_0_0,NA,NA,form submission,5978.5429999285,848040.69999993,848033.299,848049.657,854028.19999993,854028.39999998,2023-04-15T08:43:49Z,854045.162,NULL,Flexibilität,kubadilika,d,NA,NA,NA,gg,NA,NA,1,NA,NA,NA,NA,NA,NA,NA,NA,NA,NA,NA,NA,NA,NA,NA,NA,NA,NA,NA
fb6b2,"""Richtig""-Screen",canvas.Screen,5_0_1_0_3_0_1,NA,NA,skipped,NA,854030.79999995,NA,NA,854028.19999993,854030.89999998,2023-04-15T08:43:49Z,854045.162,NULL,Flexibilität,kubadilika,d,NA,NA,NA,NA,sdfdsf,NA,1,NA,NA,NA,NA,NA,NA,NA,NA,NA,NA,NA,NA,NA,NA,NA,NA,NA,NA,NA
fb6b2,"""Falsch""-Screen",canvas.Screen,5_0_1_0_3_0_2,NA,NA,timeout,4995.536,854031.79999995,854011.748,854045.162,859024.263,859024.89999998,2023-04-15T08:43:54Z,859040.698,NULL,Flexibilität,kubadilika,d,NA,NA,NA,NA,sdfdsf,0,1,NA,NA,NA,NA,NA,NA,NA,NA,NA,NA,NA,NA,NA,NA,NA,NA,NA,NA,NA
fb6b2,deep,flow.Sequence,5_0_1_0_3_0,NA,NA,completion,10974.606,848040.69999993,848033.299,848049.657,859024.263,859025.10000002,2023-04-15T08:43:54Z,859040.698,NULL,Flexibilität,kubadilika,d,NA,NA,NA,NA,sdfdsf,NA,1,NA,NA,NA,NA,NA,NA,NA,NA,NA,NA,NA,NA,NA,NA,NA,NA,NA,NA,NA
fb6b2,shallow,flow.Sequence,5_0_1_0_3_1,NA,NA,skipped,NA,859025.19999993,NA,NA,859024.263,859025.39999998,2023-04-15T08:43:54Z,859040.698,NULL,Flexibilität,kubadilika,d,NA,NA,NA,NA,sdfdsf,NA,1,NA,NA,NA,NA,NA,NA,NA,NA,NA,NA,NA,NA,NA,NA,NA,NA,NA,NA,NA
fb6b2,task,flow.Sequence,5_0_1_0_3,NA,NA,completion,10974.606,848040.60000002,848033.299,848049.657,859024.263,859025.5,2023-04-15T08:43:54Z,859040.698,NULL,Flexibilität,kubadilika,d,NA,NA,NA,NA,sdfdsf,NA,1,NA,NA,NA,NA,NA,NA,NA,NA,NA,NA,NA,NA,NA,NA,NA,NA,NA,NA,NA
fb6b2,deep,flow.Sequence,5_0_1_0_4_0,NA,NA,skipped,NA,859025.69999993,NA,NA,859024.263,859025.69999993,2023-04-15T08:43:54Z,859040.698,NULL,Wechsel,ugeuzaji,s,utambulisho,kujenga,wasiwasi,NA,sdfdsf,NA,1,NA,NA,NA,NA,NA,NA,NA,NA,NA,NA,NA,NA,NA,NA,NA,NA,NA,NA,NA
fb6b2,Shallow Question,html.Page,5_0_1_0_4_1_0,NA,NA,form submission,10341.601999952,859025.79999995,859024.263,859040.698,869382.29999995,869382.5,2023-04-15T08:44:04Z,869412.391,NULL,Wechsel,ugeuzaji,s,utambulisho,kujenga,wasiwasi,ugeuzaji,NA,NA,1,NA,NA,NA,NA,NA,NA,NA,NA,NA,NA,NA,NA,NA,NA,NA,NA,NA,NA,NA
fb6b2,"""Richtig""-Screen",canvas.Screen,5_0_1_0_4_1_1,NA,NA,timeout,4999.091,869384.5,869365.524,869412.391,874395.017,874395.60000002,2023-04-15T08:44:09Z,874411.482,NULL,Wechsel,ugeuzaji,s,utambulisho,kujenga,wasiwasi,NA,sdfdsf,1,1,NA,NA,NA,NA,NA,NA,NA,NA,NA,NA,NA,NA,NA,NA,NA,NA,NA,NA,NA
fb6b2,"""Falsch""-Screen",canvas.Screen,5_0_1_0_4_1_2,NA,NA,skipped,NA,874397.79999995,NA,NA,874395.017,874397.89999998,2023-04-15T08:44:09Z,874411.482,NULL,Wechsel,ugeuzaji,s,utambulisho,kujenga,wasiwasi,NA,sdfdsf,NA,1,NA,NA,NA,NA,NA,NA,NA,NA,NA,NA,NA,NA,NA,NA,NA,NA,NA,NA,NA
fb6b2,shallow,flow.Sequence,5_0_1_0_4_1,NA,NA,completion,15354.319,859025.79999995,859024.263,859040.698,874395.017,874398.10000002,2023-04-15T08:44:09Z,874411.482,NULL,Wechsel,ugeuzaji,s,utambulisho,kujenga,wasiwasi,NA,sdfdsf,NA,1,NA,NA,NA,NA,NA,NA,NA,NA,NA,NA,NA,NA,NA,NA,NA,NA,NA,NA,NA
fb6b2,task,flow.Sequence,5_0_1_0_4,NA,NA,completion,15354.319,859025.60000002,859024.263,859040.698,874395.017,874398.19999993,2023-04-15T08:44:09Z,874411.482,NULL,Wechsel,ugeuzaji,s,utambulisho,kujenga,wasiwasi,NA,sdfdsf,NA,1,NA,NA,NA,NA,NA,NA,NA,NA,NA,NA,NA,NA,NA,NA,NA,NA,NA,NA,NA
fb6b2,deep,flow.Sequence,5_0_1_0_5_0,NA,NA,skipped,NA,874398.29999995,NA,NA,874395.017,874398.29999995,2023-04-15T08:44:09Z,874411.482,NULL,Erneuerung,ukarabati,s,ushawishi,ukalifu,unyonyaji,NA,sdfdsf,NA,1,NA,NA,NA,NA,NA,NA,NA,NA,NA,NA,NA,NA,NA,NA,NA,NA,NA,NA,NA
fb6b2,Shallow Question,html.Page,5_0_1_0_5_1_0,NA,NA,form submission,7693.018,874398.39999998,874395.017,874411.482,882104.5,882104.79999995,2023-04-15T08:44:17Z,882104.707,NULL,Erneuerung,ukarabati,s,ushawishi,ukalifu,unyonyaji,ukarabati,NA,NA,1,NA,NA,NA,NA,NA,NA,NA,NA,NA,NA,NA,NA,NA,NA,NA,NA,NA,NA,NA
fb6b2,"""Richtig""-Screen",canvas.Screen,5_0_1_0_5_1_1,NA,NA,timeout,4995.9879999999,882107,882088.61,882104.707,887084.23,887085.29999995,2023-04-15T08:44:22Z,887100.695,NULL,Erneuerung,ukarabati,s,ushawishi,ukalifu,unyonyaji,NA,sdfdsf,1,1,NA,NA,NA,NA,NA,NA,NA,NA,NA,NA,NA,NA,NA,NA,NA,NA,NA,NA,NA
fb6b2,"""Falsch""-Screen",canvas.Screen,5_0_1_0_5_1_2,NA,NA,skipped,NA,887091.29999995,NA,NA,887084.23,887091.79999995,2023-04-15T08:44:22Z,887100.695,NULL,Erneuerung,ukarabati,s,ushawishi,ukalifu,unyonyaji,NA,sdfdsf,NA,1,NA,NA,NA,NA,NA,NA,NA,NA,NA,NA,NA,NA,NA,NA,NA,NA,NA,NA,NA
fb6b2,shallow,flow.Sequence,5_0_1_0_5_1,NA,NA,completion,12672.748,874398.29999995,874395.017,874411.482,887084.23,887092.10000002,2023-04-15T08:44:22Z,887100.695,NULL,Erneuerung,ukarabati,s,ushawishi,ukalifu,unyonyaji,NA,sdfdsf,NA,1,NA,NA,NA,NA,NA,NA,NA,NA,NA,NA,NA,NA,NA,NA,NA,NA,NA,NA,NA
fb6b2,task,flow.Sequence,5_0_1_0_5,NA,NA,completion,12672.748,874398.19999993,874395.017,874411.482,887084.23,887092.39999998,2023-04-15T08:44:22Z,887100.695,NULL,Erneuerung,ukarabati,s,ushawishi,ukalifu,unyonyaji,NA,sdfdsf,NA,1,NA,NA,NA,NA,NA,NA,NA,NA,NA,NA,NA,NA,NA,NA,NA,NA,NA,NA,NA
fb6b2,Deep Question,html.Page,5_0_1_0_6_0_0,NA,NA,form submission,12473.405000024,887092.69999993,887084.23,887100.695,899574.10000002,899574.29999995,2023-04-15T08:44:34Z,899590.801,NULL,Atmosphäre,angahewa,d,NA,NA,NA,mashiki,NA,NA,1,NA,NA,NA,NA,NA,NA,NA,NA,NA,NA,NA,NA,NA,NA,NA,NA,NA,NA,NA
fb6b2,"""Richtig""-Screen",canvas.Screen,5_0_1_0_6_0_1,NA,NA,skipped,NA,899576.19999993,NA,NA,899574.10000002,899576.39999998,2023-04-15T08:44:34Z,899590.801,NULL,Atmosphäre,angahewa,d,NA,NA,NA,NA,sdfdsf,NA,1,NA,NA,NA,NA,NA,NA,NA,NA,NA,NA,NA,NA,NA,NA,NA,NA,NA,NA,NA
fb6b2,"""Falsch""-Screen",canvas.Screen,5_0_1_0_6_0_2,NA,NA,timeout,4995.532,899576.79999995,899557.637,899590.801,904569.643,904571.39999998,2023-04-15T08:44:39Z,904586.333,NULL,Atmosphäre,angahewa,d,NA,NA,NA,NA,sdfdsf,0,1,NA,NA,NA,NA,NA,NA,NA,NA,NA,NA,NA,NA,NA,NA,NA,NA,NA,NA,NA
fb6b2,deep,flow.Sequence,5_0_1_0_6_0,NA,NA,completion,17468.948,887092.60000002,887084.23,887100.695,904569.643,904571.79999995,2023-04-15T08:44:39Z,904586.333,NULL,Atmosphäre,angahewa,d,NA,NA,NA,NA,sdfdsf,NA,1,NA,NA,NA,NA,NA,NA,NA,NA,NA,NA,NA,NA,NA,NA,NA,NA,NA,NA,NA
fb6b2,shallow,flow.Sequence,5_0_1_0_6_1,NA,NA,skipped,NA,904571.89999998,NA,NA,904569.643,904572.10000002,2023-04-15T08:44:39Z,904586.333,NULL,Atmosphäre,angahewa,d,NA,NA,NA,NA,sdfdsf,NA,1,NA,NA,NA,NA,NA,NA,NA,NA,NA,NA,NA,NA,NA,NA,NA,NA,NA,NA,NA
fb6b2,task,flow.Sequence,5_0_1_0_6,NA,NA,completion,17468.948,887092.5,887084.23,887100.695,904569.643,904572.19999993,2023-04-15T08:44:39Z,904586.333,NULL,Atmosphäre,angahewa,d,NA,NA,NA,NA,sdfdsf,NA,1,NA,NA,NA,NA,NA,NA,NA,NA,NA,NA,NA,NA,NA,NA,NA,NA,NA,NA,NA
fb6b2,Deep Question,html.Page,5_0_1_0_7_0_0,NA,NA,form submission,4448.2670000239,904572.29999995,904569.643,904586.333,909034.60000002,909034.89999998,2023-04-15T08:44:44Z,909049.615,NULL,Kanzler,diwani,d,NA,NA,NA,diwan,NA,NA,1,NA,NA,NA,NA,NA,NA,NA,NA,NA,NA,NA,NA,NA,NA,NA,NA,NA,NA,NA
fb6b2,"""Richtig""-Screen",canvas.Screen,5_0_1_0_7_0_1,NA,NA,skipped,NA,909036.89999998,NA,NA,909034.60000002,909037.10000002,2023-04-15T08:44:44Z,909049.615,NULL,Kanzler,diwani,d,NA,NA,NA,NA,sdfdsf,NA,1,NA,NA,NA,NA,NA,NA,NA,NA,NA,NA,NA,NA,NA,NA,NA,NA,NA,NA,NA
fb6b2,"""Falsch""-Screen",canvas.Screen,5_0_1_0_7_0_2,NA,NA,timeout,4996.225,909037.60000002,909032.684,909049.615,914028.669,914029.5,2023-04-15T08:44:49Z,914045.84,NULL,Kanzler,diwani,d,NA,NA,NA,NA,sdfdsf,0,1,NA,NA,NA,NA,NA,NA,NA,NA,NA,NA,NA,NA,NA,NA,NA,NA,NA,NA,NA
fb6b2,deep,flow.Sequence,5_0_1_0_7_0,NA,NA,completion,9442.336,904572.29999995,904569.643,904586.333,914028.669,914029.89999998,2023-04-15T08:44:49Z,914045.84,NULL,Kanzler,diwani,d,NA,NA,NA,NA,sdfdsf,NA,1,NA,NA,NA,NA,NA,NA,NA,NA,NA,NA,NA,NA,NA,NA,NA,NA,NA,NA,NA
fb6b2,shallow,flow.Sequence,5_0_1_0_7_1,NA,NA,skipped,NA,914030.10000002,NA,NA,914028.669,914030.29999995,2023-04-15T08:44:49Z,914045.84,NULL,Kanzler,diwani,d,NA,NA,NA,NA,sdfdsf,NA,1,NA,NA,NA,NA,NA,NA,NA,NA,NA,NA,NA,NA,NA,NA,NA,NA,NA,NA,NA
fb6b2,task,flow.Sequence,5_0_1_0_7,NA,NA,completion,9442.336,904572.19999993,904569.643,904586.333,914028.669,914030.5,2023-04-15T08:44:49Z,914045.84,NULL,Kanzler,diwani,d,NA,NA,NA,NA,sdfdsf,NA,1,NA,NA,NA,NA,NA,NA,NA,NA,NA,NA,NA,NA,NA,NA,NA,NA,NA,NA,NA
fb6b2,block,flow.Loop,5_0_1_0,NA,NA,completion,105230.469,808790.89999998,808781.765,808798.2,914028.669,914030.79999995,2023-04-15T08:44:49Z,914045.84,NULL,NA,NA,NA,NA,NA,NA,NA,sdfdsf,NA,1,NA,NA,NA,NA,NA,NA,NA,NA,NA,NA,NA,NA,NA,NA,NA,NA,NA,NA,NA
fb6b2,weiter,canvas.Screen,5_0_1_1,sdf,keypress(Space),response,870.26000002387,914031,914028.669,914045.84,914916.10000002,914921.10000002,2023-04-15T08:44:50Z,914978.042,NULL,NA,NA,NA,NA,NA,NA,NA,sdfdsf,NA,1,NA,NA,NA,NA,NA,NA,NA,NA,NA,NA,NA,NA,NA,NA,NA,NA,NA,NA,NA
fb6b2,check continue,flow.Sequence,5_0_1,NA,NA,completion,106117.90000002,808790.79999995,808781.765,808798.2,914916.10000002,914921.5,2023-04-15T08:44:50Z,914978.042,NULL,NA,NA,NA,NA,NA,NA,NA,sdfdsf,NA,1,NA,NA,NA,NA,NA,NA,NA,NA,NA,NA,NA,NA,NA,NA,NA,NA,NA,NA,NA
fb6b2,deep,flow.Sequence,5_0_2_0_0_0,NA,NA,skipped,NA,914966.29999995,NA,NA,914916.10000002,914966.5,2023-04-15T08:44:50Z,914978.042,NULL,Angreifer,mshambulizi,s,kitengo,tasinia,usafirishaji,NA,sdf,NA,2,NA,NA,NA,NA,NA,NA,NA,NA,NA,NA,NA,NA,NA,NA,NA,NA,NA,NA,NA
fb6b2,Shallow Question,html.Page,5_0_2_0_0_1_0,NA,NA,form submission,5845.2579999523,914966.60000002,914961.605,914978.042,920823.29999995,920823.39999998,2023-04-15T08:44:56Z,920850.278,NULL,Angreifer,mshambulizi,s,kitengo,tasinia,usafirishaji,mshambulizi,NA,NA,2,NA,NA,NA,NA,NA,NA,NA,NA,NA,NA,NA,NA,NA,NA,NA,NA,NA,NA,NA
fb6b2,"""Richtig""-Screen",canvas.Screen,5_0_2_0_0_1_1,NA,NA,timeout,5001.8899999999,920825.29999995,920806.609,920850.278,925835.603,925836.69999993,2023-04-15T08:45:01Z,925852.168,NULL,Angreifer,mshambulizi,s,kitengo,tasinia,usafirishaji,NA,sdf,1,2,NA,NA,NA,NA,NA,NA,NA,NA,NA,NA,NA,NA,NA,NA,NA,NA,NA,NA,NA
fb6b2,"""Falsch""-Screen",canvas.Screen,5_0_2_0_0_1_2,NA,NA,skipped,NA,925842.5,NA,NA,925835.603,925842.89999998,2023-04-15T08:45:01Z,925852.168,NULL,Angreifer,mshambulizi,s,kitengo,tasinia,usafirishaji,NA,sdf,NA,2,NA,NA,NA,NA,NA,NA,NA,NA,NA,NA,NA,NA,NA,NA,NA,NA,NA,NA,NA
fb6b2,shallow,flow.Sequence,5_0_2_0_0_1,NA,NA,completion,10857.561,914966.60000002,914961.605,914978.042,925835.603,925843.39999998,2023-04-15T08:45:01Z,925852.168,NULL,Angreifer,mshambulizi,s,kitengo,tasinia,usafirishaji,NA,sdf,NA,2,NA,NA,NA,NA,NA,NA,NA,NA,NA,NA,NA,NA,NA,NA,NA,NA,NA,NA,NA
fb6b2,task,flow.Sequence,5_0_2_0_0,NA,NA,completion,10857.561,914966.19999993,914961.605,914978.042,925835.603,925843.60000002,2023-04-15T08:45:01Z,925852.168,NULL,Angreifer,mshambulizi,s,kitengo,tasinia,usafirishaji,NA,sdf,NA,2,NA,NA,NA,NA,NA,NA,NA,NA,NA,NA,NA,NA,NA,NA,NA,NA,NA,NA,NA
fb6b2,Deep Question,html.Page,5_0_2_0_1_0_0,NA,NA,form submission,13930.131999952,925843.89999998,925835.603,925852.168,939782.29999995,939782.39999998,2023-04-15T08:45:15Z,939790.693,NULL,Flexibilität,kubadilika,d,NA,NA,NA,ushadilika,NA,NA,2,NA,NA,NA,NA,NA,NA,NA,NA,NA,NA,NA,NA,NA,NA,NA,NA,NA,NA,NA
fb6b2,"""Richtig""-Screen",canvas.Screen,5_0_2_0_1_0_1,NA,NA,skipped,NA,939784.39999998,NA,NA,939782.29999995,939784.60000002,2023-04-15T08:45:15Z,939790.693,NULL,Flexibilität,kubadilika,d,NA,NA,NA,NA,sdf,NA,2,NA,NA,NA,NA,NA,NA,NA,NA,NA,NA,NA,NA,NA,NA,NA,NA,NA,NA,NA
fb6b2,"""Falsch""-Screen",canvas.Screen,5_0_2_0_1_0_2,NA,NA,timeout,4995.8810000001,939785,939774.524,939790.693,944770.239,944772,2023-04-15T08:45:19Z,944786.574,NULL,Flexibilität,kubadilika,d,NA,NA,NA,NA,sdf,0,2,NA,NA,NA,NA,NA,NA,NA,NA,NA,NA,NA,NA,NA,NA,NA,NA,NA,NA,NA
fb6b2,deep,flow.Sequence,5_0_2_0_1_0,NA,NA,completion,18918.071,925843.89999998,925835.603,925852.168,944770.239,944772.29999995,2023-04-15T08:45:19Z,944786.574,NULL,Flexibilität,kubadilika,d,NA,NA,NA,NA,sdf,NA,2,NA,NA,NA,NA,NA,NA,NA,NA,NA,NA,NA,NA,NA,NA,NA,NA,NA,NA,NA
fb6b2,shallow,flow.Sequence,5_0_2_0_1_1,NA,NA,skipped,NA,944772.29999995,NA,NA,944770.239,944772.5,2023-04-15T08:45:19Z,944786.574,NULL,Flexibilität,kubadilika,d,NA,NA,NA,NA,sdf,NA,2,NA,NA,NA,NA,NA,NA,NA,NA,NA,NA,NA,NA,NA,NA,NA,NA,NA,NA,NA
fb6b2,task,flow.Sequence,5_0_2_0_1,NA,NA,completion,18918.071,925843.79999995,925835.603,925852.168,944770.239,944772.60000002,2023-04-15T08:45:19Z,944786.574,NULL,Flexibilität,kubadilika,d,NA,NA,NA,NA,sdf,NA,2,NA,NA,NA,NA,NA,NA,NA,NA,NA,NA,NA,NA,NA,NA,NA,NA,NA,NA,NA
fb6b2,Deep Question,html.Page,5_0_2_0_2_0_0,NA,NA,form submission,3668.426,944772.79999995,944770.239,944786.574,948455,948455.19999993,2023-04-15T08:45:23Z,948484.191,NULL,Kanzler,diwani,d,NA,NA,NA,iwani,NA,NA,2,NA,NA,NA,NA,NA,NA,NA,NA,NA,NA,NA,NA,NA,NA,NA,NA,NA,NA,NA
fb6b2,"""Richtig""-Screen",canvas.Screen,5_0_2_0_2_0_1,NA,NA,skipped,NA,948457.89999998,NA,NA,948455,948458.10000002,2023-04-15T08:45:23Z,948484.191,NULL,Kanzler,diwani,d,NA,NA,NA,NA,sdf,NA,2,NA,NA,NA,NA,NA,NA,NA,NA,NA,NA,NA,NA,NA,NA,NA,NA,NA,NA,NA
fb6b2,"""Falsch""-Screen",canvas.Screen,5_0_2_0_2_0_2,NA,NA,timeout,4995.7070000001,948459,948467.295,948484.191,953463.143,953464.29999995,2023-04-15T08:45:28Z,953479.898,NULL,Kanzler,diwani,d,NA,NA,NA,NA,sdf,0,2,NA,NA,NA,NA,NA,NA,NA,NA,NA,NA,NA,NA,NA,NA,NA,NA,NA,NA,NA
fb6b2,deep,flow.Sequence,5_0_2_0_2_0,NA,NA,completion,8676.569,944772.79999995,944770.239,944786.574,953463.143,953464.89999998,2023-04-15T08:45:28Z,953479.898,NULL,Kanzler,diwani,d,NA,NA,NA,NA,sdf,NA,2,NA,NA,NA,NA,NA,NA,NA,NA,NA,NA,NA,NA,NA,NA,NA,NA,NA,NA,NA
fb6b2,shallow,flow.Sequence,5_0_2_0_2_1,NA,NA,skipped,NA,953465,NA,NA,953463.143,953465.29999995,2023-04-15T08:45:28Z,953479.898,NULL,Kanzler,diwani,d,NA,NA,NA,NA,sdf,NA,2,NA,NA,NA,NA,NA,NA,NA,NA,NA,NA,NA,NA,NA,NA,NA,NA,NA,NA,NA
fb6b2,task,flow.Sequence,5_0_2_0_2,NA,NA,completion,8676.569,944772.69999993,944770.239,944786.574,953463.143,953465.60000002,2023-04-15T08:45:28Z,953479.898,NULL,Kanzler,diwani,d,NA,NA,NA,NA,sdf,NA,2,NA,NA,NA,NA,NA,NA,NA,NA,NA,NA,NA,NA,NA,NA,NA,NA,NA,NA,NA
fb6b2,deep,flow.Sequence,5_0_2_0_3_0,NA,NA,skipped,NA,953465.69999993,NA,NA,953463.143,953465.89999998,2023-04-15T08:45:28Z,953479.898,NULL,Sänger,mwimbaji,s,msichana,shughuli,mshirika,NA,sdf,NA,2,NA,NA,NA,NA,NA,NA,NA,NA,NA,NA,NA,NA,NA,NA,NA,NA,NA,NA,NA
fb6b2,Shallow Question,html.Page,5_0_2_0_3_1_0,NA,NA,form submission,3857.102,953466,953463.143,953479.898,957337,957337.10000002,2023-04-15T08:45:32Z,957342.979,NULL,Sänger,mwimbaji,s,msichana,shughuli,mshirika,mwimbaji,NA,NA,2,NA,NA,NA,NA,NA,NA,NA,NA,NA,NA,NA,NA,NA,NA,NA,NA,NA,NA,NA
fb6b2,"""Richtig""-Screen",canvas.Screen,5_0_2_0_3_1_1,NA,NA,timeout,4996,957339.19999993,957326.604,957342.979,962322.407,962323.39999998,2023-04-15T08:45:37Z,962338.979,NULL,Sänger,mwimbaji,s,msichana,shughuli,mshirika,NA,sdf,1,2,NA,NA,NA,NA,NA,NA,NA,NA,NA,NA,NA,NA,NA,NA,NA,NA,NA,NA,NA
fb6b2,"""Falsch""-Screen",canvas.Screen,5_0_2_0_3_1_2,NA,NA,skipped,NA,962328.19999993,NA,NA,962322.407,962328.39999998,2023-04-15T08:45:37Z,962338.979,NULL,Sänger,mwimbaji,s,msichana,shughuli,mshirika,NA,sdf,NA,2,NA,NA,NA,NA,NA,NA,NA,NA,NA,NA,NA,NA,NA,NA,NA,NA,NA,NA,NA
fb6b2,shallow,flow.Sequence,5_0_2_0_3_1,NA,NA,completion,8842.509,953466,953463.143,953479.898,962322.407,962328.5,2023-04-15T08:45:37Z,962338.979,NULL,Sänger,mwimbaji,s,msichana,shughuli,mshirika,NA,sdf,NA,2,NA,NA,NA,NA,NA,NA,NA,NA,NA,NA,NA,NA,NA,NA,NA,NA,NA,NA,NA
fb6b2,task,flow.Sequence,5_0_2_0_3,NA,NA,completion,8842.509,953465.69999993,953463.143,953479.898,962322.407,962328.60000002,2023-04-15T08:45:37Z,962338.979,NULL,Sänger,mwimbaji,s,msichana,shughuli,mshirika,NA,sdf,NA,2,NA,NA,NA,NA,NA,NA,NA,NA,NA,NA,NA,NA,NA,NA,NA,NA,NA,NA,NA
fb6b2,Deep Question,html.Page,5_0_2_0_4_0_0,NA,NA,form submission,22839.820999952,962328.60000002,962322.407,962338.979,985178.79999995,985179,2023-04-15T08:46:00Z,985186.755,NULL,Atmosphäre,angahewa,d,NA,NA,NA,kk,NA,NA,2,NA,NA,NA,NA,NA,NA,NA,NA,NA,NA,NA,NA,NA,NA,NA,NA,NA,NA,NA
fb6b2,"""Richtig""-Screen",canvas.Screen,5_0_2_0_4_0_1,NA,NA,skipped,NA,985181.10000002,NA,NA,985178.79999995,985181.29999995,2023-04-15T08:46:00Z,985186.755,NULL,Atmosphäre,angahewa,d,NA,NA,NA,NA,sdf,NA,2,NA,NA,NA,NA,NA,NA,NA,NA,NA,NA,NA,NA,NA,NA,NA,NA,NA,NA,NA
fb6b2,"""Falsch""-Screen",canvas.Screen,5_0_2_0_4_0_2,NA,NA,timeout,4996.2829999999,985182.19999993,985170.428,985186.755,990166.665,990167.19999993,2023-04-15T08:46:05Z,990183.038,NULL,Atmosphäre,angahewa,d,NA,NA,NA,NA,sdf,0,2,NA,NA,NA,NA,NA,NA,NA,NA,NA,NA,NA,NA,NA,NA,NA,NA,NA,NA,NA
fb6b2,deep,flow.Sequence,5_0_2_0_4_0,NA,NA,completion,27827.686,962328.60000002,962322.407,962338.979,990166.665,990167.29999995,2023-04-15T08:46:05Z,990183.038,NULL,Atmosphäre,angahewa,d,NA,NA,NA,NA,sdf,NA,2,NA,NA,NA,NA,NA,NA,NA,NA,NA,NA,NA,NA,NA,NA,NA,NA,NA,NA,NA
fb6b2,shallow,flow.Sequence,5_0_2_0_4_1,NA,NA,skipped,NA,990167.39999998,NA,NA,990166.665,990167.60000002,2023-04-15T08:46:05Z,990183.038,NULL,Atmosphäre,angahewa,d,NA,NA,NA,NA,sdf,NA,2,NA,NA,NA,NA,NA,NA,NA,NA,NA,NA,NA,NA,NA,NA,NA,NA,NA,NA,NA
fb6b2,task,flow.Sequence,5_0_2_0_4,NA,NA,completion,27827.686,962328.60000002,962322.407,962338.979,990166.665,990167.60000002,2023-04-15T08:46:05Z,990183.038,NULL,Atmosphäre,angahewa,d,NA,NA,NA,NA,sdf,NA,2,NA,NA,NA,NA,NA,NA,NA,NA,NA,NA,NA,NA,NA,NA,NA,NA,NA,NA,NA
fb6b2,deep,flow.Sequence,5_0_2_0_5_0,NA,NA,skipped,NA,990167.69999993,NA,NA,990166.665,990167.69999993,2023-04-15T08:46:05Z,990183.038,NULL,Erneuerung,ukarabati,s,ushawishi,ukalifu,unyonyaji,NA,sdf,NA,2,NA,NA,NA,NA,NA,NA,NA,NA,NA,NA,NA,NA,NA,NA,NA,NA,NA,NA,NA
fb6b2,Shallow Question,html.Page,5_0_2_0_5_1_0,NA,NA,form submission,5724.9620000001,990167.79999995,990166.665,990183.038,995908,995908.10000002,2023-04-15T08:46:11Z,995911.305,NULL,Erneuerung,ukarabati,s,ushawishi,ukalifu,unyonyaji,ukarabati,NA,NA,2,NA,NA,NA,NA,NA,NA,NA,NA,NA,NA,NA,NA,NA,NA,NA,NA,NA,NA,NA
fb6b2,"""Richtig""-Screen",canvas.Screen,5_0_2_0_5_1_1,NA,NA,timeout,4995.9079999999,995909.89999998,995894.721,995911.305,1000890.783,1000892,2023-04-15T08:46:16Z,1000907.213,NULL,Erneuerung,ukarabati,s,ushawishi,ukalifu,unyonyaji,NA,sdf,1,2,NA,NA,NA,NA,NA,NA,NA,NA,NA,NA,NA,NA,NA,NA,NA,NA,NA,NA,NA
fb6b2,"""Falsch""-Screen",canvas.Screen,5_0_2_0_5_1_2,NA,NA,skipped,NA,1000897.3,NA,NA,1000890.783,1000897.6999999,2023-04-15T08:46:16Z,1000907.213,NULL,Erneuerung,ukarabati,s,ushawishi,ukalifu,unyonyaji,NA,sdf,NA,2,NA,NA,NA,NA,NA,NA,NA,NA,NA,NA,NA,NA,NA,NA,NA,NA,NA,NA,NA
fb6b2,shallow,flow.Sequence,5_0_2_0_5_1,NA,NA,completion,10707.745,990167.69999993,990166.665,990183.038,1000890.783,1000898.1,2023-04-15T08:46:16Z,1000907.213,NULL,Erneuerung,ukarabati,s,ushawishi,ukalifu,unyonyaji,NA,sdf,NA,2,NA,NA,NA,NA,NA,NA,NA,NA,NA,NA,NA,NA,NA,NA,NA,NA,NA,NA,NA
fb6b2,task,flow.Sequence,5_0_2_0_5,NA,NA,completion,10707.745,990167.60000002,990166.665,990183.038,1000890.783,1000898.3,2023-04-15T08:46:16Z,1000907.213,NULL,Erneuerung,ukarabati,s,ushawishi,ukalifu,unyonyaji,NA,sdf,NA,2,NA,NA,NA,NA,NA,NA,NA,NA,NA,NA,NA,NA,NA,NA,NA,NA,NA,NA,NA
fb6b2,deep,flow.Sequence,5_0_2_0_6_0,NA,NA,skipped,NA,1000898.5,NA,NA,1000890.783,1000898.6999999,2023-04-15T08:46:16Z,1000907.213,NULL,Wechsel,ugeuzaji,s,utambulisho,kujenga,wasiwasi,NA,sdf,NA,2,NA,NA,NA,NA,NA,NA,NA,NA,NA,NA,NA,NA,NA,NA,NA,NA,NA,NA,NA
