observation,sender,sender_type,sender_id,response,response_action,ended_on,duration,time_run,time_render,time_show,time_end,time_commit,timestamp,time_switch,distractors,german,swahili,enc,distractor1,distractor2,distractor3,response_2,x,correct,x_2,url_vp,url_sess,meta_labjs_version,meta_location,meta_user_agent,meta_platform,meta_language,meta_locale,meta_time_zone,meta_timezone_offset,meta_screen_width,meta_screen_height,meta_scroll_width,meta_scroll_height,meta_window_inner_width,meta_window_inner_height,meta_device_pixel_ratio,meta_labjs_build_flavor,meta_labjs_build_commit
ab317,Introduction general,canvas.Screen,0,weiter,keypress(q),response,79082.708,1138.3999999762,1147.998,1181.292,80264,80270.299999952,2023-10-25T12:20:09Z,80266.398,NULL,NA,NA,NA,NA,NA,NA,NA,NA,NA,NA,136,1,20.2.4,https://neurocog.fernuni.ch/studies/vweber/aberisha/encoding_immediate/index.html?vp=136&sess=1,"Mozilla/5.0 (Windows NT 10.0; Win64; x64) AppleWebKit/537.36 (KHTML, like Gecko) Chrome/118.0.0.0 Safari/537.36",Win32,de-DE,de,Europe/Zurich,-120,1739,979,1740,781,1740,829,1.1041666269302,production,f5b4a49f956347addd546a832a3327688c2c0fef
ab317,Introduction practice,canvas.Screen,1_0,NA,keypress(Space),response,10135.001999976,80270.600000024,80264.041,80266.398,90401.399999976,90402.299999952,2023-10-25T12:20:19Z,90410.123,NULL,NA,NA,NA,NA,NA,NA,NA,NA,NA,NA,NA,NA,NA,NA,NA,NA,NA,NA,NA,NA,NA,NA,NA,NA,NA,NA,NA,NA,NA
ab317,Deep Question,html.Page,1_1_0_0_0,NA,NA,form submission,21571.776999976,90402.799999952,90407.156,90410.123,111981.89999998,111982.20000005,2023-10-25T12:20:41Z,111996.965,"c(""distractor1"", ""distractor2"", ""distractor3"")",Gesundheit,salama,d,NA,NA,NA,frvghtb,NA,NA,NA,NA,NA,NA,NA,NA,NA,NA,NA,NA,NA,NA,NA,NA,NA,NA,NA,NA,NA,NA
ab317,"""Richtig""-Screen",canvas.Screen,1_1_0_0_1,NA,NA,skipped,NA,111983.89999998,NA,NA,111981.89999998,111988.10000002,2023-10-25T12:20:41Z,111996.965,"c(""distractor1"", ""distractor2"", ""distractor3"")",Gesundheit,salama,d,NA,NA,NA,NA,NA,NA,NA,NA,NA,NA,NA,NA,NA,NA,NA,NA,NA,NA,NA,NA,NA,NA,NA,NA,NA,NA
ab317,"""Falsch""-Screen",canvas.Screen,1_1_0_0_2,NA,NA,timeout,4997.307,111989.10000002,111966.095,111996.965,116977.347,116982.5,2023-10-25T12:20:46Z,116994.272,"c(""distractor1"", ""distractor2"", ""distractor3"")",Gesundheit,salama,d,NA,NA,NA,NA,NA,0,NA,NA,NA,NA,NA,NA,NA,NA,NA,NA,NA,NA,NA,NA,NA,NA,NA,NA,NA,NA
ab317,deep,flow.Sequence,1_1_0_0,NA,NA,completion,26567.224,90402.700000048,90407.156,90410.123,116977.347,116982.70000005,2023-10-25T12:20:46Z,116994.272,"c(""distractor1"", ""distractor2"", ""distractor3"")",Gesundheit,salama,d,NA,NA,NA,NA,NA,NA,NA,NA,NA,NA,NA,NA,NA,NA,NA,NA,NA,NA,NA,NA,NA,NA,NA,NA,NA,NA
ab317,shallow,flow.Sequence,1_1_0_1,NA,NA,skipped,NA,116982.70000005,NA,NA,116977.347,116982.79999995,2023-10-25T12:20:46Z,116994.272,"c(""distractor1"", ""distractor2"", ""distractor3"")",Gesundheit,salama,d,NA,NA,NA,NA,NA,NA,NA,NA,NA,NA,NA,NA,NA,NA,NA,NA,NA,NA,NA,NA,NA,NA,NA,NA,NA,NA
ab317,task,flow.Sequence,1_1_0,NA,NA,completion,26567.224,90402.700000048,90407.156,90410.123,116977.347,116982.89999998,2023-10-25T12:20:46Z,116994.272,"c(""distractor1"", ""distractor2"", ""distractor3"")",Gesundheit,salama,d,NA,NA,NA,NA,NA,NA,NA,NA,NA,NA,NA,NA,NA,NA,NA,NA,NA,NA,NA,NA,NA,NA,NA,NA,NA,NA
ab317,deep,flow.Sequence,1_1_1_0,NA,NA,skipped,NA,116983.10000002,NA,NA,116977.347,116983.10000002,2023-10-25T12:20:46Z,116994.272,"c(""distractor1"", ""distractor2"", ""distractor3"")",Kritik,lawama,s,dereva,nafasi,mawazo,NA,NA,NA,NA,NA,NA,NA,NA,NA,NA,NA,NA,NA,NA,NA,NA,NA,NA,NA,NA,NA,NA,NA
ab317,Shallow Question,html.Page,1_1_1_1_0,NA,NA,form submission,24147.127999976,116983.20000005,116977.347,116994.272,141141.39999998,141141.60000002,2023-10-25T12:21:10Z,141145.84,"c(""distractor1"", ""distractor2"", ""distractor3"")",Kritik,lawama,s,dereva,nafasi,mawazo,dereva,NA,NA,NA,NA,NA,NA,NA,NA,NA,NA,NA,NA,NA,NA,NA,NA,NA,NA,NA,NA,NA,NA
ab317,"""Richtig""-Screen",canvas.Screen,1_1_1_1_1,NA,NA,skipped,NA,141143.20000005,NA,NA,141141.39999998,141143.29999995,2023-10-25T12:21:10Z,141145.84,"c(""distractor1"", ""distractor2"", ""distractor3"")",Kritik,lawama,s,dereva,nafasi,mawazo,NA,NA,NA,NA,NA,NA,NA,NA,NA,NA,NA,NA,NA,NA,NA,NA,NA,NA,NA,NA,NA,NA,NA
ab317,"""Falsch""-Screen",canvas.Screen,1_1_1_1_2,NA,NA,timeout,4997.291,141143.89999998,141131.412,141145.84,146126.45,146127.89999998,2023-10-25T12:21:15Z,146143.131,"c(""distractor1"", ""distractor2"", ""distractor3"")",Kritik,lawama,s,dereva,nafasi,mawazo,NA,NA,0,NA,NA,NA,NA,NA,NA,NA,NA,NA,NA,NA,NA,NA,NA,NA,NA,NA,NA,NA,NA
ab317,shallow,flow.Sequence,1_1_1_1,NA,NA,completion,29132.178,116983.20000005,116977.347,116994.272,146126.45,146128.39999998,2023-10-25T12:21:15Z,146143.131,"c(""distractor1"", ""distractor2"", ""distractor3"")",Kritik,lawama,s,dereva,nafasi,mawazo,NA,NA,NA,NA,NA,NA,NA,NA,NA,NA,NA,NA,NA,NA,NA,NA,NA,NA,NA,NA,NA,NA,NA
ab317,task,flow.Sequence,1_1_1,NA,NA,completion,29132.178,116983.10000002,116977.347,116994.272,146126.45,146128.70000005,2023-10-25T12:21:15Z,146143.131,"c(""distractor1"", ""distractor2"", ""distractor3"")",Kritik,lawama,s,dereva,nafasi,mawazo,NA,NA,NA,NA,NA,NA,NA,NA,NA,NA,NA,NA,NA,NA,NA,NA,NA,NA,NA,NA,NA,NA,NA
ab317,Deep Question,html.Page,1_1_2_0_0,NA,NA,form submission,10131.469000024,146128.89999998,146126.45,146143.131,156274.60000002,156274.79999995,2023-10-25T12:21:25Z,156286.687,"c(""distractor1"", ""distractor2"", ""distractor3"")",Schatten,kivuli,d,NA,NA,NA,jbjhjbjb,NA,NA,NA,NA,NA,NA,NA,NA,NA,NA,NA,NA,NA,NA,NA,NA,NA,NA,NA,NA,NA,NA
ab317,"""Richtig""-Screen",canvas.Screen,1_1_2_0_1,NA,NA,skipped,NA,156278.10000002,NA,NA,156274.60000002,156278.20000005,2023-10-25T12:21:25Z,156286.687,"c(""distractor1"", ""distractor2"", ""distractor3"")",Schatten,kivuli,d,NA,NA,NA,NA,NA,NA,NA,NA,NA,NA,NA,NA,NA,NA,NA,NA,NA,NA,NA,NA,NA,NA,NA,NA,NA,NA
ab317,"""Falsch""-Screen",canvas.Screen,1_1_2_0_2,NA,NA,timeout,4997.119,156279.60000002,156270.272,156286.687,161267.209,161267.89999998,2023-10-25T12:21:30Z,161283.806,"c(""distractor1"", ""distractor2"", ""distractor3"")",Schatten,kivuli,d,NA,NA,NA,NA,NA,0,NA,NA,NA,NA,NA,NA,NA,NA,NA,NA,NA,NA,NA,NA,NA,NA,NA,NA,NA,NA
ab317,deep,flow.Sequence,1_1_2_0,NA,NA,completion,15124.078,146128.89999998,146126.45,146143.131,161267.209,161268.29999995,2023-10-25T12:21:30Z,161283.806,"c(""distractor1"", ""distractor2"", ""distractor3"")",Schatten,kivuli,d,NA,NA,NA,NA,NA,NA,NA,NA,NA,NA,NA,NA,NA,NA,NA,NA,NA,NA,NA,NA,NA,NA,NA,NA,NA,NA
ab317,shallow,flow.Sequence,1_1_2_1,NA,NA,skipped,NA,161268.29999995,NA,NA,161267.209,161268.5,2023-10-25T12:21:30Z,161283.806,"c(""distractor1"", ""distractor2"", ""distractor3"")",Schatten,kivuli,d,NA,NA,NA,NA,NA,NA,NA,NA,NA,NA,NA,NA,NA,NA,NA,NA,NA,NA,NA,NA,NA,NA,NA,NA,NA,NA
ab317,task,flow.Sequence,1_1_2,NA,NA,completion,15124.078,146128.79999995,146126.45,146143.131,161267.209,161268.60000002,2023-10-25T12:21:30Z,161283.806,"c(""distractor1"", ""distractor2"", ""distractor3"")",Schatten,kivuli,d,NA,NA,NA,NA,NA,NA,NA,NA,NA,NA,NA,NA,NA,NA,NA,NA,NA,NA,NA,NA,NA,NA,NA,NA,NA,NA
ab317,Deep Question,html.Page,1_1_3_0_0,NA,NA,form submission,9154.9939999523,161268.79999995,161267.209,161283.806,170438.79999995,170439,2023-10-25T12:21:39Z,170444.588,"c(""distractor1"", ""distractor2"", ""distractor3"")",Qualität,mtindo,d,NA,NA,NA,jjbbggg,NA,NA,NA,NA,NA,NA,NA,NA,NA,NA,NA,NA,NA,NA,NA,NA,NA,NA,NA,NA,NA,NA
ab317,"""Richtig""-Screen",canvas.Screen,1_1_3_0_1,NA,NA,skipped,NA,170442.29999995,NA,NA,170438.79999995,170442.39999998,2023-10-25T12:21:39Z,170444.588,"c(""distractor1"", ""distractor2"", ""distractor3"")",Qualität,mtindo,d,NA,NA,NA,NA,NA,NA,NA,NA,NA,NA,NA,NA,NA,NA,NA,NA,NA,NA,NA,NA,NA,NA,NA,NA,NA,NA
ab317,"""Falsch""-Screen",canvas.Screen,1_1_3_0_2,NA,NA,timeout,4997.371,170443,170428.5,170444.588,175425.366,175426.39999998,2023-10-25T12:21:44Z,175441.959,"c(""distractor1"", ""distractor2"", ""distractor3"")",Qualität,mtindo,d,NA,NA,NA,NA,NA,0,NA,NA,NA,NA,NA,NA,NA,NA,NA,NA,NA,NA,NA,NA,NA,NA,NA,NA,NA,NA
ab317,deep,flow.Sequence,1_1_3_0,NA,NA,completion,14141.56,161268.70000005,161267.209,161283.806,175425.366,175426.79999995,2023-10-25T12:21:44Z,175441.959,"c(""distractor1"", ""distractor2"", ""distractor3"")",Qualität,mtindo,d,NA,NA,NA,NA,NA,NA,NA,NA,NA,NA,NA,NA,NA,NA,NA,NA,NA,NA,NA,NA,NA,NA,NA,NA,NA,NA
ab317,shallow,flow.Sequence,1_1_3_1,NA,NA,skipped,NA,175427,NA,NA,175425.366,175427.10000002,2023-10-25T12:21:44Z,175441.959,"c(""distractor1"", ""distractor2"", ""distractor3"")",Qualität,mtindo,d,NA,NA,NA,NA,NA,NA,NA,NA,NA,NA,NA,NA,NA,NA,NA,NA,NA,NA,NA,NA,NA,NA,NA,NA,NA,NA
ab317,task,flow.Sequence,1_1_3,NA,NA,completion,14141.56,161268.70000005,161267.209,161283.806,175425.366,175427.39999998,2023-10-25T12:21:44Z,175441.959,"c(""distractor1"", ""distractor2"", ""distractor3"")",Qualität,mtindo,d,NA,NA,NA,NA,NA,NA,NA,NA,NA,NA,NA,NA,NA,NA,NA,NA,NA,NA,NA,NA,NA,NA,NA,NA,NA,NA
ab317,deep,flow.Sequence,1_1_4_0,NA,NA,skipped,NA,175427.60000002,NA,NA,175425.366,175427.70000005,2023-10-25T12:21:44Z,175441.959,"c(""distractor1"", ""distractor2"", ""distractor3"")",Gegenwart,hadhara,s,katiba,jokofu,mikopo,NA,NA,NA,NA,NA,NA,NA,NA,NA,NA,NA,NA,NA,NA,NA,NA,NA,NA,NA,NA,NA,NA,NA
ab317,Shallow Question,html.Page,1_1_4_1_0,NA,NA,form submission,32812.741000048,175427.89999998,175425.366,175441.959,208254.70000005,208254.89999998,2023-10-25T12:22:17Z,208272.001,"c(""distractor1"", ""distractor2"", ""distractor3"")",Gegenwart,hadhara,s,katiba,jokofu,mikopo,hadhara,NA,NA,NA,NA,NA,NA,NA,NA,NA,NA,NA,NA,NA,NA,NA,NA,NA,NA,NA,NA,NA,NA
ab317,"""Richtig""-Screen",canvas.Screen,1_1_4_1_1,NA,NA,timeout,4996.94,208258,208239.881,208272.001,213252.157,213253.20000005,2023-10-25T12:22:22Z,213268.941,"c(""distractor1"", ""distractor2"", ""distractor3"")",Gegenwart,hadhara,s,katiba,jokofu,mikopo,NA,NA,1,NA,NA,NA,NA,NA,NA,NA,NA,NA,NA,NA,NA,NA,NA,NA,NA,NA,NA,NA,NA
ab317,"""Falsch""-Screen",canvas.Screen,1_1_4_1_2,NA,NA,skipped,NA,213258.60000002,NA,NA,213252.157,213258.79999995,2023-10-25T12:22:22Z,213268.941,"c(""distractor1"", ""distractor2"", ""distractor3"")",Gegenwart,hadhara,s,katiba,jokofu,mikopo,NA,NA,NA,NA,NA,NA,NA,NA,NA,NA,NA,NA,NA,NA,NA,NA,NA,NA,NA,NA,NA,NA,NA
ab317,shallow,flow.Sequence,1_1_4_1,NA,NA,completion,37810.198,175427.79999995,175425.366,175441.959,213252.157,213258.79999995,2023-10-25T12:22:22Z,213268.941,"c(""distractor1"", ""distractor2"", ""distractor3"")",Gegenwart,hadhara,s,katiba,jokofu,mikopo,NA,NA,NA,NA,NA,NA,NA,NA,NA,NA,NA,NA,NA,NA,NA,NA,NA,NA,NA,NA,NA,NA,NA
ab317,task,flow.Sequence,1_1_4,NA,NA,completion,37810.198,175427.5,175425.366,175441.959,213252.157,213259.60000002,2023-10-25T12:22:22Z,213268.941,"c(""distractor1"", ""distractor2"", ""distractor3"")",Gegenwart,hadhara,s,katiba,jokofu,mikopo,NA,NA,NA,NA,NA,NA,NA,NA,NA,NA,NA,NA,NA,NA,NA,NA,NA,NA,NA,NA,NA,NA,NA
ab317,deep,flow.Sequence,1_1_5_0,NA,NA,skipped,NA,213259.60000002,NA,NA,213252.157,213259.60000002,2023-10-25T12:22:22Z,213268.941,"c(""distractor1"", ""distractor2"", ""distractor3"")",Rückhalt,msaada,s,muhula,auwali,kiwimbe,NA,NA,NA,NA,NA,NA,NA,NA,NA,NA,NA,NA,NA,NA,NA,NA,NA,NA,NA,NA,NA,NA,NA
ab317,Shallow Question,html.Page,1_1_5_1_0,NA,NA,form submission,8195.059,213259.70000005,213252.157,213268.941,221464,221464.20000005,2023-10-25T12:22:30Z,221480.576,"c(""distractor1"", ""distractor2"", ""distractor3"")",Rückhalt,msaada,s,muhula,auwali,kiwimbe,kiwimbe,NA,NA,NA,NA,NA,NA,NA,NA,NA,NA,NA,NA,NA,NA,NA,NA,NA,NA,NA,NA,NA,NA
ab317,"""Richtig""-Screen",canvas.Screen,1_1_5_1_1,NA,NA,skipped,NA,221467.39999998,NA,NA,221464,221467.60000002,2023-10-25T12:22:30Z,221480.576,"c(""distractor1"", ""distractor2"", ""distractor3"")",Rückhalt,msaada,s,muhula,auwali,kiwimbe,NA,NA,NA,NA,NA,NA,NA,NA,NA,NA,NA,NA,NA,NA,NA,NA,NA,NA,NA,NA,NA,NA,NA
ab317,"""Falsch""-Screen",canvas.Screen,1_1_5_1_2,NA,NA,timeout,4997.029,221468.5,221459.244,221480.576,226460.483,226461.5,2023-10-25T12:22:35Z,226477.605,"c(""distractor1"", ""distractor2"", ""distractor3"")",Rückhalt,msaada,s,muhula,auwali,kiwimbe,NA,NA,0,NA,NA,NA,NA,NA,NA,NA,NA,NA,NA,NA,NA,NA,NA,NA,NA,NA,NA,NA,NA
ab317,shallow,flow.Sequence,1_1_5_1,NA,NA,completion,13191.542,213259.70000005,213252.157,213268.941,226460.483,226461.89999998,2023-10-25T12:22:35Z,226477.605,"c(""distractor1"", ""distractor2"", ""distractor3"")",Rückhalt,msaada,s,muhula,auwali,kiwimbe,NA,NA,NA,NA,NA,NA,NA,NA,NA,NA,NA,NA,NA,NA,NA,NA,NA,NA,NA,NA,NA,NA,NA
ab317,task,flow.Sequence,1_1_5,NA,NA,completion,13191.542,213259.60000002,213252.157,213268.941,226460.483,226461.89999998,2023-10-25T12:22:35Z,226477.605,"c(""distractor1"", ""distractor2"", ""distractor3"")",Rückhalt,msaada,s,muhula,auwali,kiwimbe,NA,NA,NA,NA,NA,NA,NA,NA,NA,NA,NA,NA,NA,NA,NA,NA,NA,NA,NA,NA,NA,NA,NA
ab317,block,flow.Loop,1_1,NA,NA,completion,136050.36,90402.700000048,90407.156,90410.123,226460.483,226462.10000002,2023-10-25T12:22:35Z,226477.605,"c(""distractor1"", ""distractor2"", ""distractor3"")",NA,NA,NA,NA,NA,NA,NA,NA,NA,NA,NA,NA,NA,NA,NA,NA,NA,NA,NA,NA,NA,NA,NA,NA,NA,NA,NA,NA,NA
ab317,Practice,flow.Sequence,1,NA,NA,completion,146194.085,80270.600000024,80264.041,80266.398,226460.483,226462.20000005,2023-10-25T12:22:35Z,226477.605,NULL,NA,NA,NA,NA,NA,NA,NA,NA,NA,NA,NA,NA,NA,NA,NA,NA,NA,NA,NA,NA,NA,NA,NA,NA,NA,NA,NA,NA,NA
ab317,Experiment start,canvas.Screen,2,weiter,keypress(q),response,22449.995000024,226462.20000005,226460.483,226477.605,248927.60000002,248928.70000005,2023-10-25T12:22:57Z,248996.597,NULL,NA,NA,NA,NA,NA,NA,NA,NA,NA,NA,NA,NA,NA,NA,NA,NA,NA,NA,NA,NA,NA,NA,NA,NA,NA,NA,NA,NA,NA
ab317,deep,flow.Sequence,3_0_0_0_0_0,NA,NA,skipped,NA,248993.70000005,NA,NA,248927.60000002,248993.70000005,2023-10-25T12:22:58Z,248996.597,NULL,Schock,mshtuko,s,biashara,kukataza,vichekesho,NA,sdf,NA,0,NA,NA,NA,NA,NA,NA,NA,NA,NA,NA,NA,NA,NA,NA,NA,NA,NA,NA,NA
ab317,Shallow Question,html.Page,3_0_0_0_0_1_0,NA,NA,form submission,16334.802999976,248993.89999998,248990.544,248996.597,265331.39999998,265331.60000002,2023-10-25T12:23:14Z,265336.658,NULL,Schock,mshtuko,s,biashara,kukataza,vichekesho,vichekesho,NA,NA,0,NA,NA,NA,NA,NA,NA,NA,NA,NA,NA,NA,NA,NA,NA,NA,NA,NA,NA,NA
ab317,"""Richtig""-Screen",canvas.Screen,3_0_0_0_0_1_1,NA,NA,skipped,NA,265334.60000002,NA,NA,265331.39999998,265334.70000005,2023-10-25T12:23:14Z,265336.658,NULL,Schock,mshtuko,s,biashara,kukataza,vichekesho,NA,sdf,NA,0,NA,NA,NA,NA,NA,NA,NA,NA,NA,NA,NA,NA,NA,NA,NA,NA,NA,NA,NA
ab317,"""Falsch""-Screen",canvas.Screen,3_0_0_0_0_1_2,NA,NA,timeout,4997.5,265335.10000002,265320.307,265336.658,270317.521,270318.29999995,2023-10-25T12:23:19Z,270334.158,NULL,Schock,mshtuko,s,biashara,kukataza,vichekesho,NA,sdf,0,0,NA,NA,NA,NA,NA,NA,NA,NA,NA,NA,NA,NA,NA,NA,NA,NA,NA,NA,NA
ab317,shallow,flow.Sequence,3_0_0_0_0_1,NA,NA,completion,21320.924,248993.89999998,248990.544,248996.597,270317.521,270318.79999995,2023-10-25T12:23:19Z,270334.158,NULL,Schock,mshtuko,s,biashara,kukataza,vichekesho,NA,sdf,NA,0,NA,NA,NA,NA,NA,NA,NA,NA,NA,NA,NA,NA,NA,NA,NA,NA,NA,NA,NA
ab317,task,flow.Sequence,3_0_0_0_0,NA,NA,completion,21320.924,248993.70000005,248990.544,248996.597,270317.521,270318.89999998,2023-10-25T12:23:19Z,270334.158,NULL,Schock,mshtuko,s,biashara,kukataza,vichekesho,NA,sdf,NA,0,NA,NA,NA,NA,NA,NA,NA,NA,NA,NA,NA,NA,NA,NA,NA,NA,NA,NA,NA
ab317,Deep Question,html.Page,3_0_0_0_1_0_0,NA,NA,form submission,11698.741999976,270319.10000002,270317.521,270334.158,282032.89999998,282033.20000005,2023-10-25T12:23:31Z,282043.056,NULL,Hoffnung,matarajio,d,NA,NA,NA,jhghhggg,NA,NA,0,NA,NA,NA,NA,NA,NA,NA,NA,NA,NA,NA,NA,NA,NA,NA,NA,NA,NA,NA
ab317,"""Richtig""-Screen",canvas.Screen,3_0_0_0_1_0_1,NA,NA,skipped,NA,282037.29999995,NA,NA,282032.89999998,282037.39999998,2023-10-25T12:23:31Z,282043.056,NULL,Hoffnung,matarajio,d,NA,NA,NA,NA,sdf,NA,0,NA,NA,NA,NA,NA,NA,NA,NA,NA,NA,NA,NA,NA,NA,NA,NA,NA,NA,NA
ab317,"""Falsch""-Screen",canvas.Screen,3_0_0_0_1_0_2,NA,NA,timeout,4997.352,282038,282027.006,282043.056,287023.669,287024.70000005,2023-10-25T12:23:36Z,287040.408,NULL,Hoffnung,matarajio,d,NA,NA,NA,NA,sdf,0,0,NA,NA,NA,NA,NA,NA,NA,NA,NA,NA,NA,NA,NA,NA,NA,NA,NA,NA,NA
ab317,deep,flow.Sequence,3_0_0_0_1_0,NA,NA,completion,16689.511,270319.10000002,270317.521,270334.158,287023.669,287025,2023-10-25T12:23:36Z,287040.408,NULL,Hoffnung,matarajio,d,NA,NA,NA,NA,sdf,NA,0,NA,NA,NA,NA,NA,NA,NA,NA,NA,NA,NA,NA,NA,NA,NA,NA,NA,NA,NA
ab317,shallow,flow.Sequence,3_0_0_0_1_1,NA,NA,skipped,NA,287025.10000002,NA,NA,287023.669,287025.29999995,2023-10-25T12:23:36Z,287040.408,NULL,Hoffnung,matarajio,d,NA,NA,NA,NA,sdf,NA,0,NA,NA,NA,NA,NA,NA,NA,NA,NA,NA,NA,NA,NA,NA,NA,NA,NA,NA,NA
ab317,task,flow.Sequence,3_0_0_0_1,NA,NA,completion,16689.511,270319.10000002,270317.521,270334.158,287023.669,287025.5,2023-10-25T12:23:36Z,287040.408,NULL,Hoffnung,matarajio,d,NA,NA,NA,NA,sdf,NA,0,NA,NA,NA,NA,NA,NA,NA,NA,NA,NA,NA,NA,NA,NA,NA,NA,NA,NA,NA
ab317,deep,flow.Sequence,3_0_0_0_2_0,NA,NA,skipped,NA,287025.70000005,NA,NA,287023.669,287025.89999998,2023-10-25T12:23:36Z,287040.408,NULL,Zufall,kikuti,s,kukosekana,uchoraji,leseni,NA,sdf,NA,0,NA,NA,NA,NA,NA,NA,NA,NA,NA,NA,NA,NA,NA,NA,NA,NA,NA,NA,NA
ab317,Shallow Question,html.Page,3_0_0_0_2_1_0,NA,NA,form submission,14120.491999976,287026,287023.669,287040.408,301160.89999998,301161.20000005,2023-10-25T12:23:50Z,301164.808,NULL,Zufall,kikuti,s,kukosekana,uchoraji,leseni,leseni,NA,NA,0,NA,NA,NA,NA,NA,NA,NA,NA,NA,NA,NA,NA,NA,NA,NA,NA,NA,NA,NA
ab317,"""Richtig""-Screen",canvas.Screen,3_0_0_0_2_1_1,NA,NA,skipped,NA,301164.10000002,NA,NA,301160.89999998,301164.29999995,2023-10-25T12:23:50Z,301164.808,NULL,Zufall,kikuti,s,kukosekana,uchoraji,leseni,NA,sdf,NA,0,NA,NA,NA,NA,NA,NA,NA,NA,NA,NA,NA,NA,NA,NA,NA,NA,NA,NA,NA
ab317,"""Falsch""-Screen",canvas.Screen,3_0_0_0_2_1_2,NA,NA,timeout,4997.386,301165.20000005,301149.028,301164.808,306145.107,306146.10000002,2023-10-25T12:23:55Z,306162.194,NULL,Zufall,kikuti,s,kukosekana,uchoraji,leseni,NA,sdf,0,0,NA,NA,NA,NA,NA,NA,NA,NA,NA,NA,NA,NA,NA,NA,NA,NA,NA,NA,NA
ab317,shallow,flow.Sequence,3_0_0_0_2_1,NA,NA,completion,19104.699,287025.89999998,287023.669,287040.408,306145.107,306146.39999998,2023-10-25T12:23:55Z,306162.194,NULL,Zufall,kikuti,s,kukosekana,uchoraji,leseni,NA,sdf,NA,0,NA,NA,NA,NA,NA,NA,NA,NA,NA,NA,NA,NA,NA,NA,NA,NA,NA,NA,NA
ab317,task,flow.Sequence,3_0_0_0_2,NA,NA,completion,19104.699,287025.60000002,287023.669,287040.408,306145.107,306146.70000005,2023-10-25T12:23:55Z,306162.194,NULL,Zufall,kikuti,s,kukosekana,uchoraji,leseni,NA,sdf,NA,0,NA,NA,NA,NA,NA,NA,NA,NA,NA,NA,NA,NA,NA,NA,NA,NA,NA,NA,NA
ab317,deep,flow.Sequence,3_0_0_0_3_0,NA,NA,skipped,NA,306146.89999998,NA,NA,306145.107,306147,2023-10-25T12:23:55Z,306162.194,NULL,Theorie,nadharia,s,ushungi,mkutano,uwakilishi,NA,sdf,NA,0,NA,NA,NA,NA,NA,NA,NA,NA,NA,NA,NA,NA,NA,NA,NA,NA,NA,NA,NA
ab317,Shallow Question,html.Page,3_0_0_0_3_1_0,NA,NA,form submission,16793.605999952,306147.10000002,306145.107,306162.194,322955.79999995,322956,2023-10-25T12:24:11Z,322968.347,NULL,Theorie,nadharia,s,ushungi,mkutano,uwakilishi,ushungi,NA,NA,0,NA,NA,NA,NA,NA,NA,NA,NA,NA,NA,NA,NA,NA,NA,NA,NA,NA,NA,NA
ab317,"""Richtig""-Screen",canvas.Screen,3_0_0_0_3_1_1,NA,NA,skipped,NA,322959.39999998,NA,NA,322955.79999995,322959.5,2023-10-25T12:24:11Z,322968.347,NULL,Theorie,nadharia,s,ushungi,mkutano,uwakilishi,NA,sdf,NA,0,NA,NA,NA,NA,NA,NA,NA,NA,NA,NA,NA,NA,NA,NA,NA,NA,NA,NA,NA
ab317,"""Falsch""-Screen",canvas.Screen,3_0_0_0_3_1_2,NA,NA,timeout,4997.204,322960.29999995,322952.339,322968.347,327949.011,327949.89999998,2023-10-25T12:24:16Z,327965.551,NULL,Theorie,nadharia,s,ushungi,mkutano,uwakilishi,NA,sdf,0,0,NA,NA,NA,NA,NA,NA,NA,NA,NA,NA,NA,NA,NA,NA,NA,NA,NA,NA,NA
ab317,shallow,flow.Sequence,3_0_0_0_3_1,NA,NA,completion,21786.817,306147.10000002,306145.107,306162.194,327949.011,327950.39999998,2023-10-25T12:24:16Z,327965.551,NULL,Theorie,nadharia,s,ushungi,mkutano,uwakilishi,NA,sdf,NA,0,NA,NA,NA,NA,NA,NA,NA,NA,NA,NA,NA,NA,NA,NA,NA,NA,NA,NA,NA
ab317,task,flow.Sequence,3_0_0_0_3,NA,NA,completion,21786.817,306146.79999995,306145.107,306162.194,327949.011,327950.60000002,2023-10-25T12:24:16Z,327965.551,NULL,Theorie,nadharia,s,ushungi,mkutano,uwakilishi,NA,sdf,NA,0,NA,NA,NA,NA,NA,NA,NA,NA,NA,NA,NA,NA,NA,NA,NA,NA,NA,NA,NA
ab317,Deep Question,html.Page,3_0_0_0_4_0_0,NA,NA,form submission,7630.0490000239,327950.89999998,327949.011,327965.551,335595.60000002,335595.89999998,2023-10-25T12:24:24Z,335610.843,NULL,Verpackung,ufungaji,d,NA,NA,NA,jdjdjdhhf,NA,NA,0,NA,NA,NA,NA,NA,NA,NA,NA,NA,NA,NA,NA,NA,NA,NA,NA,NA,NA,NA
ab317,"""Richtig""-Screen",canvas.Screen,3_0_0_0_4_0_1,NA,NA,skipped,NA,335599,NA,NA,335595.60000002,335599.10000002,2023-10-25T12:24:24Z,335610.843,NULL,Verpackung,ufungaji,d,NA,NA,NA,NA,sdf,NA,0,NA,NA,NA,NA,NA,NA,NA,NA,NA,NA,NA,NA,NA,NA,NA,NA,NA,NA,NA
ab317,"""Falsch""-Screen",canvas.Screen,3_0_0_0_4_0_2,NA,NA,timeout,4997.066,335599.89999998,335593.855,335610.843,340590.821,340591.79999995,2023-10-25T12:24:29Z,340607.909,NULL,Verpackung,ufungaji,d,NA,NA,NA,NA,sdf,0,0,NA,NA,NA,NA,NA,NA,NA,NA,NA,NA,NA,NA,NA,NA,NA,NA,NA,NA,NA
ab317,deep,flow.Sequence,3_0_0_0_4_0,NA,NA,completion,12625.27,327950.79999995,327949.011,327965.551,340590.821,340592.20000005,2023-10-25T12:24:29Z,340607.909,NULL,Verpackung,ufungaji,d,NA,NA,NA,NA,sdf,NA,0,NA,NA,NA,NA,NA,NA,NA,NA,NA,NA,NA,NA,NA,NA,NA,NA,NA,NA,NA
ab317,shallow,flow.Sequence,3_0_0_0_4_1,NA,NA,skipped,NA,340592.39999998,NA,NA,340590.821,340592.5,2023-10-25T12:24:29Z,340607.909,NULL,Verpackung,ufungaji,d,NA,NA,NA,NA,sdf,NA,0,NA,NA,NA,NA,NA,NA,NA,NA,NA,NA,NA,NA,NA,NA,NA,NA,NA,NA,NA
ab317,task,flow.Sequence,3_0_0_0_4,NA,NA,completion,12625.27,327950.70000005,327949.011,327965.551,340590.821,340592.79999995,2023-10-25T12:24:29Z,340607.909,NULL,Verpackung,ufungaji,d,NA,NA,NA,NA,sdf,NA,0,NA,NA,NA,NA,NA,NA,NA,NA,NA,NA,NA,NA,NA,NA,NA,NA,NA,NA,NA
ab317,deep,flow.Sequence,3_0_0_0_5_0,NA,NA,skipped,NA,340592.89999998,NA,NA,340590.821,340593.10000002,2023-10-25T12:24:29Z,340607.909,NULL,Schönheit,kirembo,s,mahojiano,msisimko,jitihadi,NA,sdf,NA,0,NA,NA,NA,NA,NA,NA,NA,NA,NA,NA,NA,NA,NA,NA,NA,NA,NA,NA,NA
ab317,Shallow Question,html.Page,3_0_0_0_5_1_0,NA,NA,form submission,10977.591,340593.20000005,340590.821,340607.909,351585.5,351585.70000005,2023-10-25T12:24:40Z,351601.114,NULL,Schönheit,kirembo,s,mahojiano,msisimko,jitihadi,kirembo,NA,NA,0,NA,NA,NA,NA,NA,NA,NA,NA,NA,NA,NA,NA,NA,NA,NA,NA,NA,NA,NA
ab317,"""Richtig""-Screen",canvas.Screen,3_0_0_0_5_1_1,NA,NA,timeout,4996.45,351588.79999995,351584.55,351601.114,356580.945,356581.5,2023-10-25T12:24:45Z,356597.564,NULL,Schönheit,kirembo,s,mahojiano,msisimko,jitihadi,NA,sdf,1,0,NA,NA,NA,NA,NA,NA,NA,NA,NA,NA,NA,NA,NA,NA,NA,NA,NA,NA,NA
ab317,"""Falsch""-Screen",canvas.Screen,3_0_0_0_5_1_2,NA,NA,skipped,NA,356583.10000002,NA,NA,356580.945,356583.20000005,2023-10-25T12:24:45Z,356597.564,NULL,Schönheit,kirembo,s,mahojiano,msisimko,jitihadi,NA,sdf,NA,0,NA,NA,NA,NA,NA,NA,NA,NA,NA,NA,NA,NA,NA,NA,NA,NA,NA,NA,NA
ab317,shallow,flow.Sequence,3_0_0_0_5_1,NA,NA,completion,15973.036,340593.20000005,340590.821,340607.909,356580.945,356583.29999995,2023-10-25T12:24:45Z,356597.564,NULL,Schönheit,kirembo,s,mahojiano,msisimko,jitihadi,NA,sdf,NA,0,NA,NA,NA,NA,NA,NA,NA,NA,NA,NA,NA,NA,NA,NA,NA,NA,NA,NA,NA
ab317,task,flow.Sequence,3_0_0_0_5,NA,NA,completion,15973.036,340592.89999998,340590.821,340607.909,356580.945,356583.5,2023-10-25T12:24:45Z,356597.564,NULL,Schönheit,kirembo,s,mahojiano,msisimko,jitihadi,NA,sdf,NA,0,NA,NA,NA,NA,NA,NA,NA,NA,NA,NA,NA,NA,NA,NA,NA,NA,NA,NA,NA
ab317,Deep Question,html.Page,3_0_0_0_6_0_0,NA,NA,form submission,6362.936,356583.5,356580.945,356597.564,362960.5,362960.79999995,2023-10-25T12:24:51Z,362977.476,NULL,Wettbewerb,ushindani,d,NA,NA,NA,jffjfjffj,NA,NA,0,NA,NA,NA,NA,NA,NA,NA,NA,NA,NA,NA,NA,NA,NA,NA,NA,NA,NA,NA
ab317,"""Richtig""-Screen",canvas.Screen,3_0_0_0_6_0_1,NA,NA,skipped,NA,362964,NA,NA,362960.5,362964.20000005,2023-10-25T12:24:51Z,362977.476,NULL,Wettbewerb,ushindani,d,NA,NA,NA,NA,sdf,NA,0,NA,NA,NA,NA,NA,NA,NA,NA,NA,NA,NA,NA,NA,NA,NA,NA,NA,NA,NA
ab317,"""Falsch""-Screen",canvas.Screen,3_0_0_0_6_0_2,NA,NA,timeout,4997.076,362965,362944.013,362977.476,367957.495,367958.60000002,2023-10-25T12:24:56Z,367974.552,NULL,Wettbewerb,ushindani,d,NA,NA,NA,NA,sdf,0,0,NA,NA,NA,NA,NA,NA,NA,NA,NA,NA,NA,NA,NA,NA,NA,NA,NA,NA,NA
ab317,deep,flow.Sequence,3_0_0_0_6_0,NA,NA,completion,11359.931,356583.5,356580.945,356597.564,367957.495,367958.89999998,2023-10-25T12:24:56Z,367974.552,NULL,Wettbewerb,ushindani,d,NA,NA,NA,NA,sdf,NA,0,NA,NA,NA,NA,NA,NA,NA,NA,NA,NA,NA,NA,NA,NA,NA,NA,NA,NA,NA
ab317,shallow,flow.Sequence,3_0_0_0_6_1,NA,NA,skipped,NA,367959.10000002,NA,NA,367957.495,367959.29999995,2023-10-25T12:24:56Z,367974.552,NULL,Wettbewerb,ushindani,d,NA,NA,NA,NA,sdf,NA,0,NA,NA,NA,NA,NA,NA,NA,NA,NA,NA,NA,NA,NA,NA,NA,NA,NA,NA,NA
ab317,task,flow.Sequence,3_0_0_0_6,NA,NA,completion,11359.931,356583.5,356580.945,356597.564,367957.495,367959.39999998,2023-10-25T12:24:56Z,367974.552,NULL,Wettbewerb,ushindani,d,NA,NA,NA,NA,sdf,NA,0,NA,NA,NA,NA,NA,NA,NA,NA,NA,NA,NA,NA,NA,NA,NA,NA,NA,NA,NA
ab317,Deep Question,html.Page,3_0_0_0_7_0_0,NA,NA,form submission,5486.8479999761,367959.60000002,367957.495,367974.552,373461.39999998,373461.60000002,2023-10-25T12:25:02Z,373470.838,NULL,Auftrag,uagizaji,d,NA,NA,NA,ggffgfgf,NA,NA,0,NA,NA,NA,NA,NA,NA,NA,NA,NA,NA,NA,NA,NA,NA,NA,NA,NA,NA,NA
ab317,"""Richtig""-Screen",canvas.Screen,3_0_0_0_7_0_1,NA,NA,skipped,NA,373464.89999998,NA,NA,373461.39999998,373465,2023-10-25T12:25:02Z,373470.838,NULL,Auftrag,uagizaji,d,NA,NA,NA,NA,sdf,NA,0,NA,NA,NA,NA,NA,NA,NA,NA,NA,NA,NA,NA,NA,NA,NA,NA,NA,NA,NA
ab317,"""Falsch""-Screen",canvas.Screen,3_0_0_0_7_0_2,NA,NA,timeout,4997.273,373465.60000002,373454.096,373470.838,378451.21,378452.20000005,2023-10-25T12:25:07Z,378468.111,NULL,Auftrag,uagizaji,d,NA,NA,NA,NA,sdf,0,0,NA,NA,NA,NA,NA,NA,NA,NA,NA,NA,NA,NA,NA,NA,NA,NA,NA,NA,NA
ab317,deep,flow.Sequence,3_0_0_0_7_0,NA,NA,completion,10476.658,367959.60000002,367957.495,367974.552,378451.21,378452.60000002,2023-10-25T12:25:07Z,378468.111,NULL,Auftrag,uagizaji,d,NA,NA,NA,NA,sdf,NA,0,NA,NA,NA,NA,NA,NA,NA,NA,NA,NA,NA,NA,NA,NA,NA,NA,NA,NA,NA
ab317,shallow,flow.Sequence,3_0_0_0_7_1,NA,NA,skipped,NA,378452.79999995,NA,NA,378451.21,378453,2023-10-25T12:25:07Z,378468.111,NULL,Auftrag,uagizaji,d,NA,NA,NA,NA,sdf,NA,0,NA,NA,NA,NA,NA,NA,NA,NA,NA,NA,NA,NA,NA,NA,NA,NA,NA,NA,NA
ab317,task,flow.Sequence,3_0_0_0_7,NA,NA,completion,10476.658,367959.60000002,367957.495,367974.552,378451.21,378453.20000005,2023-10-25T12:25:07Z,378468.111,NULL,Auftrag,uagizaji,d,NA,NA,NA,NA,sdf,NA,0,NA,NA,NA,NA,NA,NA,NA,NA,NA,NA,NA,NA,NA,NA,NA,NA,NA,NA,NA
ab317,block,flow.Loop,3_0_0_0,NA,NA,completion,129454.613,248993.70000005,248990.544,248996.597,378451.21,378453.39999998,2023-10-25T12:25:07Z,378468.111,NULL,NA,NA,NA,NA,NA,NA,NA,sdf,NA,0,NA,NA,NA,NA,NA,NA,NA,NA,NA,NA,NA,NA,NA,NA,NA,NA,NA,NA,NA
ab317,weiter,canvas.Screen,3_0_0_1,sdf,keypress(Space),response,13773.688999952,378453.60000002,378451.21,378468.111,392241.79999995,392243.20000005,2023-10-25T12:25:21Z,392259.158,NULL,NA,NA,NA,NA,NA,NA,NA,sdf,NA,0,NA,NA,NA,NA,NA,NA,NA,NA,NA,NA,NA,NA,NA,NA,NA,NA,NA,NA,NA
ab317,check continue,flow.Sequence,3_0_0,NA,NA,completion,143245.20299995,248993.60000002,248990.544,248996.597,392241.79999995,392243.5,2023-10-25T12:25:21Z,392259.158,NULL,NA,NA,NA,NA,NA,NA,NA,sdf,NA,0,NA,NA,NA,NA,NA,NA,NA,NA,NA,NA,NA,NA,NA,NA,NA,NA,NA,NA,NA
ab317,deep,flow.Sequence,3_0_1_0_0_0,NA,NA,skipped,NA,392264.29999995,NA,NA,392241.79999995,392264.70000005,2023-10-25T12:25:21Z,392259.158,NULL,Schönheit,kirembo,s,mahojiano,msisimko,jitihadi,NA,sdfdsf,NA,1,NA,NA,NA,NA,NA,NA,NA,NA,NA,NA,NA,NA,NA,NA,NA,NA,NA,NA,NA
ab317,Shallow Question,html.Page,3_0_1_0_0_1_0,NA,NA,form submission,10290.241999976,392264.79999995,392240.102,392259.158,402549.39999998,402549.70000005,2023-10-25T12:25:31Z,402552.898,NULL,Schönheit,kirembo,s,mahojiano,msisimko,jitihadi,kirembo,NA,NA,1,NA,NA,NA,NA,NA,NA,NA,NA,NA,NA,NA,NA,NA,NA,NA,NA,NA,NA,NA
ab317,"""Richtig""-Screen",canvas.Screen,3_0_1_0_0_1_1,NA,NA,timeout,4997.275,402552.70000005,402536.721,402552.898,407533.563,407534.70000005,2023-10-25T12:25:36Z,407550.173,NULL,Schönheit,kirembo,s,mahojiano,msisimko,jitihadi,NA,sdfdsf,1,1,NA,NA,NA,NA,NA,NA,NA,NA,NA,NA,NA,NA,NA,NA,NA,NA,NA,NA,NA
ab317,"""Falsch""-Screen",canvas.Screen,3_0_1_0_0_1_2,NA,NA,skipped,NA,407540,NA,NA,407533.563,407540.20000005,2023-10-25T12:25:36Z,407550.173,NULL,Schönheit,kirembo,s,mahojiano,msisimko,jitihadi,NA,sdfdsf,NA,1,NA,NA,NA,NA,NA,NA,NA,NA,NA,NA,NA,NA,NA,NA,NA,NA,NA,NA,NA
ab317,shallow,flow.Sequence,3_0_1_0_0_1,NA,NA,completion,15274.405,392264.79999995,392240.102,392259.158,407533.563,407540.29999995,2023-10-25T12:25:36Z,407550.173,NULL,Schönheit,kirembo,s,mahojiano,msisimko,jitihadi,NA,sdfdsf,NA,1,NA,NA,NA,NA,NA,NA,NA,NA,NA,NA,NA,NA,NA,NA,NA,NA,NA,NA,NA
ab317,task,flow.Sequence,3_0_1_0_0,NA,NA,completion,15274.405,392264.29999995,392240.102,392259.158,407533.563,407540.39999998,2023-10-25T12:25:36Z,407550.173,NULL,Schönheit,kirembo,s,mahojiano,msisimko,jitihadi,NA,sdfdsf,NA,1,NA,NA,NA,NA,NA,NA,NA,NA,NA,NA,NA,NA,NA,NA,NA,NA,NA,NA,NA
ab317,Deep Question,html.Page,3_0_1_0_1_0_0,NA,NA,form submission,17225.226999976,407540.39999998,407533.563,407550.173,424775.39999998,424775.60000002,2023-10-25T12:25:53Z,424789.689,NULL,Auftrag,uagizaji,d,NA,NA,NA,ishnajagi,NA,NA,1,NA,NA,NA,NA,NA,NA,NA,NA,NA,NA,NA,NA,NA,NA,NA,NA,NA,NA,NA
ab317,"""Richtig""-Screen",canvas.Screen,3_0_1_0_1_0_1,NA,NA,skipped,NA,424778.5,NA,NA,424775.39999998,424778.60000002,2023-10-25T12:25:53Z,424789.689,NULL,Auftrag,uagizaji,d,NA,NA,NA,NA,sdfdsf,NA,1,NA,NA,NA,NA,NA,NA,NA,NA,NA,NA,NA,NA,NA,NA,NA,NA,NA,NA,NA
ab317,"""Falsch""-Screen",canvas.Screen,3_0_1_0_1_0_2,NA,NA,timeout,4996.951,424779.10000002,424772.752,424789.689,429769.619,429771,2023-10-25T12:25:58Z,429786.64,NULL,Auftrag,uagizaji,d,NA,NA,NA,NA,sdfdsf,0,1,NA,NA,NA,NA,NA,NA,NA,NA,NA,NA,NA,NA,NA,NA,NA,NA,NA,NA,NA
ab317,deep,flow.Sequence,3_0_1_0_1_0,NA,NA,completion,22219.446,407540.39999998,407533.563,407550.173,429769.619,429771.29999995,2023-10-25T12:25:58Z,429786.64,NULL,Auftrag,uagizaji,d,NA,NA,NA,NA,sdfdsf,NA,1,NA,NA,NA,NA,NA,NA,NA,NA,NA,NA,NA,NA,NA,NA,NA,NA,NA,NA,NA
ab317,shallow,flow.Sequence,3_0_1_0_1_1,NA,NA,skipped,NA,429771.39999998,NA,NA,429769.619,429771.70000005,2023-10-25T12:25:58Z,429786.64,NULL,Auftrag,uagizaji,d,NA,NA,NA,NA,sdfdsf,NA,1,NA,NA,NA,NA,NA,NA,NA,NA,NA,NA,NA,NA,NA,NA,NA,NA,NA,NA,NA
ab317,task,flow.Sequence,3_0_1_0_1,NA,NA,completion,22219.446,407540.39999998,407533.563,407550.173,429769.619,429771.89999998,2023-10-25T12:25:58Z,429786.64,NULL,Auftrag,uagizaji,d,NA,NA,NA,NA,sdfdsf,NA,1,NA,NA,NA,NA,NA,NA,NA,NA,NA,NA,NA,NA,NA,NA,NA,NA,NA,NA,NA
ab317,deep,flow.Sequence,3_0_1_0_2_0,NA,NA,skipped,NA,429772,NA,NA,429769.619,429772.20000005,2023-10-25T12:25:58Z,429786.64,NULL,Theorie,nadharia,s,ushungi,mkutano,uwakilishi,NA,sdfdsf,NA,1,NA,NA,NA,NA,NA,NA,NA,NA,NA,NA,NA,NA,NA,NA,NA,NA,NA,NA,NA
ab317,Shallow Question,html.Page,3_0_1_0_2_1_0,NA,NA,form submission,5563.0600000477,429772.39999998,429769.619,429786.64,435349.70000005,435349.89999998,2023-10-25T12:26:04Z,435366.768,NULL,Theorie,nadharia,s,ushungi,mkutano,uwakilishi,nadharia,NA,NA,1,NA,NA,NA,NA,NA,NA,NA,NA,NA,NA,NA,NA,NA,NA,NA,NA,NA,NA,NA
ab317,"""Richtig""-Screen",canvas.Screen,3_0_1_0_2_1_1,NA,NA,timeout,4996.843,435353.10000002,435333.141,435366.768,440346.541,440347.89999998,2023-10-25T12:26:09Z,440363.611,NULL,Theorie,nadharia,s,ushungi,mkutano,uwakilishi,NA,sdfdsf,1,1,NA,NA,NA,NA,NA,NA,NA,NA,NA,NA,NA,NA,NA,NA,NA,NA,NA,NA,NA
ab317,"""Falsch""-Screen",canvas.Screen,3_0_1_0_2_1_2,NA,NA,skipped,NA,440352.29999995,NA,NA,440346.541,440352.39999998,2023-10-25T12:26:09Z,440363.611,NULL,Theorie,nadharia,s,ushungi,mkutano,uwakilishi,NA,sdfdsf,NA,1,NA,NA,NA,NA,NA,NA,NA,NA,NA,NA,NA,NA,NA,NA,NA,NA,NA,NA,NA
ab317,shallow,flow.Sequence,3_0_1_0_2_1,NA,NA,completion,10559.901,429772.29999995,429769.619,429786.64,440346.541,440352.60000002,2023-10-25T12:26:09Z,440363.611,NULL,Theorie,nadharia,s,ushungi,mkutano,uwakilishi,NA,sdfdsf,NA,1,NA,NA,NA,NA,NA,NA,NA,NA,NA,NA,NA,NA,NA,NA,NA,NA,NA,NA,NA
ab317,task,flow.Sequence,3_0_1_0_2,NA,NA,completion,10559.901,429772,429769.619,429786.64,440346.541,440352.60000002,2023-10-25T12:26:09Z,440363.611,NULL,Theorie,nadharia,s,ushungi,mkutano,uwakilishi,NA,sdfdsf,NA,1,NA,NA,NA,NA,NA,NA,NA,NA,NA,NA,NA,NA,NA,NA,NA,NA,NA,NA,NA
ab317,Deep Question,html.Page,3_0_1_0_3_0_0,NA,NA,form submission,19304.288999976,440352.70000005,440346.541,440363.611,459667.89999998,459668.20000005,2023-10-25T12:26:28Z,459685.085,NULL,Wettbewerb,ushindani,d,NA,NA,NA,udharnia,NA,NA,1,NA,NA,NA,NA,NA,NA,NA,NA,NA,NA,NA,NA,NA,NA,NA,NA,NA,NA,NA
ab317,"""Richtig""-Screen",canvas.Screen,3_0_1_0_3_0_1,NA,NA,skipped,NA,459671.60000002,NA,NA,459667.89999998,459671.79999995,2023-10-25T12:26:28Z,459685.085,NULL,Wettbewerb,ushindani,d,NA,NA,NA,NA,sdfdsf,NA,1,NA,NA,NA,NA,NA,NA,NA,NA,NA,NA,NA,NA,NA,NA,NA,NA,NA,NA,NA
ab317,"""Falsch""-Screen",canvas.Screen,3_0_1_0_3_0_2,NA,NA,timeout,4996.957,459672.70000005,459651.748,459685.085,464665.053,464666.39999998,2023-10-25T12:26:33Z,464682.042,NULL,Wettbewerb,ushindani,d,NA,NA,NA,NA,sdfdsf,0,1,NA,NA,NA,NA,NA,NA,NA,NA,NA,NA,NA,NA,NA,NA,NA,NA,NA,NA,NA
ab317,deep,flow.Sequence,3_0_1_0_3_0,NA,NA,completion,24301.442,440352.70000005,440346.541,440363.611,464665.053,464666.79999995,2023-10-25T12:26:33Z,464682.042,NULL,Wettbewerb,ushindani,d,NA,NA,NA,NA,sdfdsf,NA,1,NA,NA,NA,NA,NA,NA,NA,NA,NA,NA,NA,NA,NA,NA,NA,NA,NA,NA,NA
ab317,shallow,flow.Sequence,3_0_1_0_3_1,NA,NA,skipped,NA,464666.89999998,NA,NA,464665.053,464667.10000002,2023-10-25T12:26:33Z,464682.042,NULL,Wettbewerb,ushindani,d,NA,NA,NA,NA,sdfdsf,NA,1,NA,NA,NA,NA,NA,NA,NA,NA,NA,NA,NA,NA,NA,NA,NA,NA,NA,NA,NA
ab317,task,flow.Sequence,3_0_1_0_3,NA,NA,completion,24301.442,440352.70000005,440346.541,440363.611,464665.053,464667.39999998,2023-10-25T12:26:33Z,464682.042,NULL,Wettbewerb,ushindani,d,NA,NA,NA,NA,sdfdsf,NA,1,NA,NA,NA,NA,NA,NA,NA,NA,NA,NA,NA,NA,NA,NA,NA,NA,NA,NA,NA
ab317,Deep Question,html.Page,3_0_1_0_4_0_0,NA,NA,form submission,14031.658000048,464667.5,464665.053,464682.042,478713.70000005,478713.89999998,2023-10-25T12:26:47Z,478723.134,NULL,Verpackung,ufungaji,d,NA,NA,NA,ishnagi,NA,NA,1,NA,NA,NA,NA,NA,NA,NA,NA,NA,NA,NA,NA,NA,NA,NA,NA,NA,NA,NA
ab317,"""Richtig""-Screen",canvas.Screen,3_0_1_0_4_0_1,NA,NA,skipped,NA,478717.10000002,NA,NA,478713.70000005,478717.29999995,2023-10-25T12:26:47Z,478723.134,NULL,Verpackung,ufungaji,d,NA,NA,NA,NA,sdfdsf,NA,1,NA,NA,NA,NA,NA,NA,NA,NA,NA,NA,NA,NA,NA,NA,NA,NA,NA,NA,NA
ab317,"""Falsch""-Screen",canvas.Screen,3_0_1_0_4_0_2,NA,NA,timeout,4997.178,478717.89999998,478706.914,478723.134,483703.501,483705,2023-10-25T12:26:52Z,483720.312,NULL,Verpackung,ufungaji,d,NA,NA,NA,NA,sdfdsf,0,1,NA,NA,NA,NA,NA,NA,NA,NA,NA,NA,NA,NA,NA,NA,NA,NA,NA,NA,NA
ab317,deep,flow.Sequence,3_0_1_0_4_0,NA,NA,completion,19021.459,464667.5,464665.053,464682.042,483703.501,483705.5,2023-10-25T12:26:52Z,483720.312,NULL,Verpackung,ufungaji,d,NA,NA,NA,NA,sdfdsf,NA,1,NA,NA,NA,NA,NA,NA,NA,NA,NA,NA,NA,NA,NA,NA,NA,NA,NA,NA,NA
ab317,shallow,flow.Sequence,3_0_1_0_4_1,NA,NA,skipped,NA,483705.70000005,NA,NA,483703.501,483705.79999995,2023-10-25T12:26:52Z,483720.312,NULL,Verpackung,ufungaji,d,NA,NA,NA,NA,sdfdsf,NA,1,NA,NA,NA,NA,NA,NA,NA,NA,NA,NA,NA,NA,NA,NA,NA,NA,NA,NA,NA
ab317,task,flow.Sequence,3_0_1_0_4,NA,NA,completion,19021.459,464667.39999998,464665.053,464682.042,483703.501,483706.10000002,2023-10-25T12:26:52Z,483720.312,NULL,Verpackung,ufungaji,d,NA,NA,NA,NA,sdfdsf,NA,1,NA,NA,NA,NA,NA,NA,NA,NA,NA,NA,NA,NA,NA,NA,NA,NA,NA,NA,NA
ab317,deep,flow.Sequence,3_0_1_0_5_0,NA,NA,skipped,NA,483706.29999995,NA,NA,483703.501,483706.39999998,2023-10-25T12:26:52Z,483720.312,NULL,Zufall,kikuti,s,kukosekana,uchoraji,leseni,NA,sdfdsf,NA,1,NA,NA,NA,NA,NA,NA,NA,NA,NA,NA,NA,NA,NA,NA,NA,NA,NA,NA,NA
ab317,Shallow Question,html.Page,3_0_1_0_5_1_0,NA,NA,form submission,8863.188,483706.5,483703.501,483720.312,492583.5,492583.79999995,2023-10-25T12:27:01Z,492598.246,NULL,Zufall,kikuti,s,kukosekana,uchoraji,leseni,kikuti,NA,NA,1,NA,NA,NA,NA,NA,NA,NA,NA,NA,NA,NA,NA,NA,NA,NA,NA,NA,NA,NA
ab317,"""Richtig""-Screen",canvas.Screen,3_0_1_0_5_1_1,NA,NA,timeout,4996.873,492587.20000005,492581.324,492598.246,497578.204,497579.20000005,2023-10-25T12:27:06Z,497595.119,NULL,Zufall,kikuti,s,kukosekana,uchoraji,leseni,NA,sdfdsf,1,1,NA,NA,NA,NA,NA,NA,NA,NA,NA,NA,NA,NA,NA,NA,NA,NA,NA,NA,NA
ab317,"""Falsch""-Screen",canvas.Screen,3_0_1_0_5_1_2,NA,NA,skipped,NA,497582.79999995,NA,NA,497578.204,497582.89999998,2023-10-25T12:27:06Z,497595.119,NULL,Zufall,kikuti,s,kukosekana,uchoraji,leseni,NA,sdfdsf,NA,1,NA,NA,NA,NA,NA,NA,NA,NA,NA,NA,NA,NA,NA,NA,NA,NA,NA,NA,NA
ab317,shallow,flow.Sequence,3_0_1_0_5_1,NA,NA,completion,13857.892,483706.5,483703.501,483720.312,497578.204,497583.10000002,2023-10-25T12:27:06Z,497595.119,NULL,Zufall,kikuti,s,kukosekana,uchoraji,leseni,NA,sdfdsf,NA,1,NA,NA,NA,NA,NA,NA,NA,NA,NA,NA,NA,NA,NA,NA,NA,NA,NA,NA,NA
ab317,task,flow.Sequence,3_0_1_0_5,NA,NA,completion,13857.892,483706.20000005,483703.501,483720.312,497578.204,497583.29999995,2023-10-25T12:27:06Z,497595.119,NULL,Zufall,kikuti,s,kukosekana,uchoraji,leseni,NA,sdfdsf,NA,1,NA,NA,NA,NA,NA,NA,NA,NA,NA,NA,NA,NA,NA,NA,NA,NA,NA,NA,NA
ab317,Deep Question,html.Page,3_0_1_0_6_0_0,NA,NA,form submission,11982.881,497583.29999995,497578.204,497595.119,509578,509578.20000005,2023-10-25T12:27:18Z,509587.728,NULL,Hoffnung,matarajio,d,NA,NA,NA,isembo,NA,NA,1,NA,NA,NA,NA,NA,NA,NA,NA,NA,NA,NA,NA,NA,NA,NA,NA,NA,NA,NA
ab317,"""Richtig""-Screen",canvas.Screen,3_0_1_0_6_0_1,NA,NA,skipped,NA,509581.29999995,NA,NA,509578,509581.5,2023-10-25T12:27:18Z,509587.728,NULL,Hoffnung,matarajio,d,NA,NA,NA,NA,sdfdsf,NA,1,NA,NA,NA,NA,NA,NA,NA,NA,NA,NA,NA,NA,NA,NA,NA,NA,NA,NA,NA
ab317,"""Falsch""-Screen",canvas.Screen,3_0_1_0_6_0_2,NA,NA,timeout,4996.808,509582,509571.215,509587.728,514567.842,514569.20000005,2023-10-25T12:27:23Z,514584.536,NULL,Hoffnung,matarajio,d,NA,NA,NA,NA,sdfdsf,0,1,NA,NA,NA,NA,NA,NA,NA,NA,NA,NA,NA,NA,NA,NA,NA,NA,NA,NA,NA
ab317,deep,flow.Sequence,3_0_1_0_6_0,NA,NA,completion,16972.723,497583.29999995,497578.204,497595.119,514567.842,514569.5,2023-10-25T12:27:23Z,514584.536,NULL,Hoffnung,matarajio,d,NA,NA,NA,NA,sdfdsf,NA,1,NA,NA,NA,NA,NA,NA,NA,NA,NA,NA,NA,NA,NA,NA,NA,NA,NA,NA,NA
ab317,shallow,flow.Sequence,3_0_1_0_6_1,NA,NA,skipped,NA,514569.70000005,NA,NA,514567.842,514569.89999998,2023-10-25T12:27:23Z,514584.536,NULL,Hoffnung,matarajio,d,NA,NA,NA,NA,sdfdsf,NA,1,NA,NA,NA,NA,NA,NA,NA,NA,NA,NA,NA,NA,NA,NA,NA,NA,NA,NA,NA
ab317,task,flow.Sequence,3_0_1_0_6,NA,NA,completion,16972.723,497583.29999995,497578.204,497595.119,514567.842,514570.10000002,2023-10-25T12:27:23Z,514584.536,NULL,Hoffnung,matarajio,d,NA,NA,NA,NA,sdfdsf,NA,1,NA,NA,NA,NA,NA,NA,NA,NA,NA,NA,NA,NA,NA,NA,NA,NA,NA,NA,NA
ab317,deep,flow.Sequence,3_0_1_0_7_0,NA,NA,skipped,NA,514570.29999995,NA,NA,514567.842,514570.29999995,2023-10-25T12:27:23Z,514584.536,NULL,Schock,mshtuko,s,biashara,kukataza,vichekesho,NA,sdfdsf,NA,1,NA,NA,NA,NA,NA,NA,NA,NA,NA,NA,NA,NA,NA,NA,NA,NA,NA,NA,NA
ab317,Shallow Question,html.Page,3_0_1_0_7_1_0,NA,NA,form submission,10153.064000024,514570.5,514567.842,514584.536,524737.60000002,524737.89999998,2023-10-25T12:27:33Z,524745.137,NULL,Schock,mshtuko,s,biashara,kukataza,vichekesho,mshtuko,NA,NA,1,NA,NA,NA,NA,NA,NA,NA,NA,NA,NA,NA,NA,NA,NA,NA,NA,NA,NA,NA
ab317,"""Richtig""-Screen",canvas.Screen,3_0_1_0_7_1_1,NA,NA,timeout,4997.049,524741.10000002,524728.812,524745.137,529725.43,529726.20000005,2023-10-25T12:27:38Z,529742.186,NULL,Schock,mshtuko,s,biashara,kukataza,vichekesho,NA,sdfdsf,1,1,NA,NA,NA,NA,NA,NA,NA,NA,NA,NA,NA,NA,NA,NA,NA,NA,NA,NA,NA
ab317,"""Falsch""-Screen",canvas.Screen,3_0_1_0_7_1_2,NA,NA,skipped,NA,529729.10000002,NA,NA,529725.43,529729.20000005,2023-10-25T12:27:38Z,529742.186,NULL,Schock,mshtuko,s,biashara,kukataza,vichekesho,NA,sdfdsf,NA,1,NA,NA,NA,NA,NA,NA,NA,NA,NA,NA,NA,NA,NA,NA,NA,NA,NA,NA,NA
ab317,shallow,flow.Sequence,3_0_1_0_7_1,NA,NA,completion,15140.894,514570.5,514567.842,514584.536,529725.43,529729.39999998,2023-10-25T12:27:38Z,529742.186,NULL,Schock,mshtuko,s,biashara,kukataza,vichekesho,NA,sdfdsf,NA,1,NA,NA,NA,NA,NA,NA,NA,NA,NA,NA,NA,NA,NA,NA,NA,NA,NA,NA,NA
ab317,task,flow.Sequence,3_0_1_0_7,NA,NA,completion,15140.894,514570.29999995,514567.842,514584.536,529725.43,529729.5,2023-10-25T12:27:38Z,529742.186,NULL,Schock,mshtuko,s,biashara,kukataza,vichekesho,NA,sdfdsf,NA,1,NA,NA,NA,NA,NA,NA,NA,NA,NA,NA,NA,NA,NA,NA,NA,NA,NA,NA,NA
ab317,block,flow.Loop,3_0_1_0,NA,NA,completion,137466.272,392264.29999995,392240.102,392259.158,529725.43,529729.60000002,2023-10-25T12:27:38Z,529742.186,NULL,NA,NA,NA,NA,NA,NA,NA,sdfdsf,NA,1,NA,NA,NA,NA,NA,NA,NA,NA,NA,NA,NA,NA,NA,NA,NA,NA,NA,NA,NA
ab317,weiter,canvas.Screen,3_0_1_1,sdf,keypress(Space),response,12835.113999952,529729.70000005,529725.43,529742.186,542577.29999995,542578.29999995,2023-10-25T12:27:51Z,542600.665,NULL,NA,NA,NA,NA,NA,NA,NA,sdfdsf,NA,1,NA,NA,NA,NA,NA,NA,NA,NA,NA,NA,NA,NA,NA,NA,NA,NA,NA,NA,NA
ab317,check continue,flow.Sequence,3_0_1,NA,NA,completion,150318.14199995,392264.29999995,392240.102,392259.158,542577.29999995,542578.70000005,2023-10-25T12:27:51Z,542600.665,NULL,NA,NA,NA,NA,NA,NA,NA,sdfdsf,NA,1,NA,NA,NA,NA,NA,NA,NA,NA,NA,NA,NA,NA,NA,NA,NA,NA,NA,NA,NA
ab317,deep,flow.Sequence,3_0_2_0_0_0,NA,NA,skipped,NA,542599.89999998,NA,NA,542577.29999995,542600.10000002,2023-10-25T12:27:51Z,542600.665,NULL,Theorie,nadharia,s,ushungi,mkutano,uwakilishi,NA,sdf,NA,2,NA,NA,NA,NA,NA,NA,NA,NA,NA,NA,NA,NA,NA,NA,NA,NA,NA,NA,NA
ab317,Shallow Question,html.Page,3_0_2_0_0_1_0,NA,NA,form submission,27002.634999952,542600.20000005,542571.217,542600.665,569603.29999995,569603.60000002,2023-10-25T12:28:18Z,569618.004,NULL,Theorie,nadharia,s,ushungi,mkutano,uwakilishi,nadharia,NA,NA,2,NA,NA,NA,NA,NA,NA,NA,NA,NA,NA,NA,NA,NA,NA,NA,NA,NA,NA,NA
ab317,"""Richtig""-Screen",canvas.Screen,3_0_2_0_0_1_1,NA,NA,timeout,4996.596,569606.79999995,569601.271,569618.004,574597.926,574599.5,2023-10-25T12:28:23Z,574614.6,NULL,Theorie,nadharia,s,ushungi,mkutano,uwakilishi,NA,sdf,1,2,NA,NA,NA,NA,NA,NA,NA,NA,NA,NA,NA,NA,NA,NA,NA,NA,NA,NA,NA
ab317,"""Falsch""-Screen",canvas.Screen,3_0_2_0_0_1_2,NA,NA,skipped,NA,574603.60000002,NA,NA,574597.926,574603.70000005,2023-10-25T12:28:23Z,574614.6,NULL,Theorie,nadharia,s,ushungi,mkutano,uwakilishi,NA,sdf,NA,2,NA,NA,NA,NA,NA,NA,NA,NA,NA,NA,NA,NA,NA,NA,NA,NA,NA,NA,NA
ab317,shallow,flow.Sequence,3_0_2_0_0_1,NA,NA,completion,31997.261,542600.10000002,542571.217,542600.665,574597.926,574603.79999995,2023-10-25T12:28:23Z,574614.6,NULL,Theorie,nadharia,s,ushungi,mkutano,uwakilishi,NA,sdf,NA,2,NA,NA,NA,NA,NA,NA,NA,NA,NA,NA,NA,NA,NA,NA,NA,NA,NA,NA,NA
ab317,task,flow.Sequence,3_0_2_0_0,NA,NA,completion,31997.261,542599.89999998,542571.217,542600.665,574597.926,574603.89999998,2023-10-25T12:28:23Z,574614.6,NULL,Theorie,nadharia,s,ushungi,mkutano,uwakilishi,NA,sdf,NA,2,NA,NA,NA,NA,NA,NA,NA,NA,NA,NA,NA,NA,NA,NA,NA,NA,NA,NA,NA
ab317,deep,flow.Sequence,3_0_2_0_1_0,NA,NA,skipped,NA,574603.89999998,NA,NA,574597.926,574603.89999998,2023-10-25T12:28:23Z,574614.6,NULL,Schock,mshtuko,s,biashara,kukataza,vichekesho,NA,sdf,NA,2,NA,NA,NA,NA,NA,NA,NA,NA,NA,NA,NA,NA,NA,NA,NA,NA,NA,NA,NA
ab317,Shallow Question,html.Page,3_0_2_0_1_1_0,NA,NA,form submission,4678.0000000239,574604,574597.926,574614.6,579292.60000002,579292.89999998,2023-10-25T12:28:28Z,579311.956,NULL,Schock,mshtuko,s,biashara,kukataza,vichekesho,mshtuko,NA,NA,2,NA,NA,NA,NA,NA,NA,NA,NA,NA,NA,NA,NA,NA,NA,NA,NA,NA,NA,NA
ab317,"""Richtig""-Screen",canvas.Screen,3_0_2_0_1_1_1,NA,NA,timeout,4996.9669999999,579295.89999998,579294.976,579311.956,584292.126,584293.5,2023-10-25T12:28:33Z,584308.923,NULL,Schock,mshtuko,s,biashara,kukataza,vichekesho,NA,sdf,1,2,NA,NA,NA,NA,NA,NA,NA,NA,NA,NA,NA,NA,NA,NA,NA,NA,NA,NA,NA
ab317,"""Falsch""-Screen",canvas.Screen,3_0_2_0_1_1_2,NA,NA,skipped,NA,584296.29999995,NA,NA,584292.126,584296.39999998,2023-10-25T12:28:33Z,584308.923,NULL,Schock,mshtuko,s,biashara,kukataza,vichekesho,NA,sdf,NA,2,NA,NA,NA,NA,NA,NA,NA,NA,NA,NA,NA,NA,NA,NA,NA,NA,NA,NA,NA
ab317,shallow,flow.Sequence,3_0_2_0_1_1,NA,NA,completion,9677.5260000001,574604,574597.926,574614.6,584292.126,584296.5,2023-10-25T12:28:33Z,584308.923,NULL,Schock,mshtuko,s,biashara,kukataza,vichekesho,NA,sdf,NA,2,NA,NA,NA,NA,NA,NA,NA,NA,NA,NA,NA,NA,NA,NA,NA,NA,NA,NA,NA
ab317,task,flow.Sequence,3_0_2_0_1,NA,NA,completion,9677.5260000001,574603.89999998,574597.926,574614.6,584292.126,584296.60000002,2023-10-25T12:28:33Z,584308.923,NULL,Schock,mshtuko,s,biashara,kukataza,vichekesho,NA,sdf,NA,2,NA,NA,NA,NA,NA,NA,NA,NA,NA,NA,NA,NA,NA,NA,NA,NA,NA,NA,NA
ab317,Deep Question,html.Page,3_0_2_0_2_0_0,NA,NA,form submission,38178.577,584296.60000002,584292.126,584308.923,622487.5,622487.79999995,2023-10-25T12:29:11Z,622502.3,NULL,Wettbewerb,ushindani,d,NA,NA,NA,udhdani,NA,NA,2,NA,NA,NA,NA,NA,NA,NA,NA,NA,NA,NA,NA,NA,NA,NA,NA,NA,NA,NA
ab317,"""Richtig""-Screen",canvas.Screen,3_0_2_0_2_0_1,NA,NA,skipped,NA,622490.89999998,NA,NA,622487.5,622491,2023-10-25T12:29:11Z,622502.3,NULL,Wettbewerb,ushindani,d,NA,NA,NA,NA,sdf,NA,2,NA,NA,NA,NA,NA,NA,NA,NA,NA,NA,NA,NA,NA,NA,NA,NA,NA,NA,NA
ab317,"""Falsch""-Screen",canvas.Screen,3_0_2_0_2_0_2,NA,NA,timeout,4997.0149999999,622491.70000005,622485.894,622502.3,627482.61,627483.60000002,2023-10-25T12:29:16Z,627499.315,NULL,Wettbewerb,ushindani,d,NA,NA,NA,NA,sdf,0,2,NA,NA,NA,NA,NA,NA,NA,NA,NA,NA,NA,NA,NA,NA,NA,NA,NA,NA,NA
ab317,deep,flow.Sequence,3_0_2_0_2_0,NA,NA,completion,43173.687,584296.60000002,584292.126,584308.923,627482.61,627484,2023-10-25T12:29:16Z,627499.315,NULL,Wettbewerb,ushindani,d,NA,NA,NA,NA,sdf,NA,2,NA,NA,NA,NA,NA,NA,NA,NA,NA,NA,NA,NA,NA,NA,NA,NA,NA,NA,NA
ab317,shallow,flow.Sequence,3_0_2_0_2_1,NA,NA,skipped,NA,627484.20000005,NA,NA,627482.61,627484.29999995,2023-10-25T12:29:16Z,627499.315,NULL,Wettbewerb,ushindani,d,NA,NA,NA,NA,sdf,NA,2,NA,NA,NA,NA,NA,NA,NA,NA,NA,NA,NA,NA,NA,NA,NA,NA,NA,NA,NA
ab317,task,flow.Sequence,3_0_2_0_2,NA,NA,completion,43173.687,584296.60000002,584292.126,584308.923,627482.61,627484.5,2023-10-25T12:29:16Z,627499.315,NULL,Wettbewerb,ushindani,d,NA,NA,NA,NA,sdf,NA,2,NA,NA,NA,NA,NA,NA,NA,NA,NA,NA,NA,NA,NA,NA,NA,NA,NA,NA,NA
ab317,deep,flow.Sequence,3_0_2_0_3_0,NA,NA,skipped,NA,627484.70000005,NA,NA,627482.61,627484.79999995,2023-10-25T12:29:16Z,627499.315,NULL,Zufall,kikuti,s,kukosekana,uchoraji,leseni,NA,sdf,NA,2,NA,NA,NA,NA,NA,NA,NA,NA,NA,NA,NA,NA,NA,NA,NA,NA,NA,NA,NA
ab317,Shallow Question,html.Page,3_0_2_0_3_1_0,NA,NA,form submission,5314.9849999524,627484.89999998,627482.61,627499.315,632814.29999995,632814.60000002,2023-10-25T12:29:21Z,632846.161,NULL,Zufall,kikuti,s,kukosekana,uchoraji,leseni,kikuti,NA,NA,2,NA,NA,NA,NA,NA,NA,NA,NA,NA,NA,NA,NA,NA,NA,NA,NA,NA,NA,NA
ab317,"""Richtig""-Screen",canvas.Screen,3_0_2_0_3_1_1,NA,NA,timeout,4996.4080000001,632817.79999995,632829.018,632846.161,637826.374,637827.39999998,2023-10-25T12:29:26Z,637842.569,NULL,Zufall,kikuti,s,kukosekana,uchoraji,leseni,NA,sdf,1,2,NA,NA,NA,NA,NA,NA,NA,NA,NA,NA,NA,NA,NA,NA,NA,NA,NA,NA,NA
ab317,"""Falsch""-Screen",canvas.Screen,3_0_2_0_3_1_2,NA,NA,skipped,NA,637832.79999995,NA,NA,637826.374,637832.89999998,2023-10-25T12:29:26Z,637842.569,NULL,Zufall,kikuti,s,kukosekana,uchoraji,leseni,NA,sdf,NA,2,NA,NA,NA,NA,NA,NA,NA,NA,NA,NA,NA,NA,NA,NA,NA,NA,NA,NA,NA
ab317,shallow,flow.Sequence,3_0_2_0_3_1,NA,NA,completion,10327.059,627484.89999998,627482.61,627499.315,637826.374,637832.89999998,2023-10-25T12:29:26Z,637842.569,NULL,Zufall,kikuti,s,kukosekana,uchoraji,leseni,NA,sdf,NA,2,NA,NA,NA,NA,NA,NA,NA,NA,NA,NA,NA,NA,NA,NA,NA,NA,NA,NA,NA
ab317,task,flow.Sequence,3_0_2_0_3,NA,NA,completion,10327.059,627484.70000005,627482.61,627499.315,637826.374,637833,2023-10-25T12:29:26Z,637842.569,NULL,Zufall,kikuti,s,kukosekana,uchoraji,leseni,NA,sdf,NA,2,NA,NA,NA,NA,NA,NA,NA,NA,NA,NA,NA,NA,NA,NA,NA,NA,NA,NA,NA
ab317,Deep Question,html.Page,3_0_2_0_4_0_0,NA,NA,form submission,9857.431,637833.10000002,637826.374,637842.569,647700,647700.29999995,2023-10-25T12:29:36Z,647703.155,NULL,Verpackung,ufungaji,d,NA,NA,NA,djjfjfjf,NA,NA,2,NA,NA,NA,NA,NA,NA,NA,NA,NA,NA,NA,NA,NA,NA,NA,NA,NA,NA,NA
ab317,"""Richtig""-Screen",canvas.Screen,3_0_2_0_4_0_1,NA,NA,skipped,NA,647701.89999998,NA,NA,647700,647702,2023-10-25T12:29:36Z,647703.155,NULL,Verpackung,ufungaji,d,NA,NA,NA,NA,sdf,NA,2,NA,NA,NA,NA,NA,NA,NA,NA,NA,NA,NA,NA,NA,NA,NA,NA,NA,NA,NA
ab317,"""Falsch""-Screen",canvas.Screen,3_0_2_0_4_0_2,NA,NA,timeout,4997.2829999999,647702.39999998,647686.893,647703.155,652683.548,652684.79999995,2023-10-25T12:29:41Z,652700.438,NULL,Verpackung,ufungaji,d,NA,NA,NA,NA,sdf,0,2,NA,NA,NA,NA,NA,NA,NA,NA,NA,NA,NA,NA,NA,NA,NA,NA,NA,NA,NA
ab317,deep,flow.Sequence,3_0_2_0_4_0,NA,NA,completion,14840.979,637833.10000002,637826.374,637842.569,652683.548,652685.29999995,2023-10-25T12:29:41Z,652700.438,NULL,Verpackung,ufungaji,d,NA,NA,NA,NA,sdf,NA,2,NA,NA,NA,NA,NA,NA,NA,NA,NA,NA,NA,NA,NA,NA,NA,NA,NA,NA,NA
ab317,shallow,flow.Sequence,3_0_2_0_4_1,NA,NA,skipped,NA,652685.39999998,NA,NA,652683.548,652685.60000002,2023-10-25T12:29:41Z,652700.438,NULL,Verpackung,ufungaji,d,NA,NA,NA,NA,sdf,NA,2,NA,NA,NA,NA,NA,NA,NA,NA,NA,NA,NA,NA,NA,NA,NA,NA,NA,NA,NA
ab317,task,flow.Sequence,3_0_2_0_4,NA,NA,completion,14840.979,637833.10000002,637826.374,637842.569,652683.548,652685.79999995,2023-10-25T12:29:41Z,652700.438,NULL,Verpackung,ufungaji,d,NA,NA,NA,NA,sdf,NA,2,NA,NA,NA,NA,NA,NA,NA,NA,NA,NA,NA,NA,NA,NA,NA,NA,NA,NA,NA
ab317,deep,flow.Sequence,3_0_2_0_5_0,NA,NA,skipped,NA,652686,NA,NA,652683.548,652686.10000002,2023-10-25T12:29:41Z,652700.438,NULL,Schönheit,kirembo,s,mahojiano,msisimko,jitihadi,NA,sdf,NA,2,NA,NA,NA,NA,NA,NA,NA,NA,NA,NA,NA,NA,NA,NA,NA,NA,NA,NA,NA
ab317,Shallow Question,html.Page,3_0_2_0_5_1_0,NA,NA,form submission,3762.8619999524,652686.20000005,652683.548,652700.438,656463.29999995,656463.5,2023-10-25T12:29:45Z,656481.143,NULL,Schönheit,kirembo,s,mahojiano,msisimko,jitihadi,kirembo,NA,NA,2,NA,NA,NA,NA,NA,NA,NA,NA,NA,NA,NA,NA,NA,NA,NA,NA,NA,NA,NA
ab317,"""Richtig""-Screen",canvas.Screen,3_0_2_0_5_1_1,NA,NA,timeout,4997.487,656467,656464.511,656481.143,661461.482,661462.5,2023-10-25T12:29:50Z,661478.63,NULL,Schönheit,kirembo,s,mahojiano,msisimko,jitihadi,NA,sdf,1,2,NA,NA,NA,NA,NA,NA,NA,NA,NA,NA,NA,NA,NA,NA,NA,NA,NA,NA,NA
ab317,"""Falsch""-Screen",canvas.Screen,3_0_2_0_5_1_2,NA,NA,skipped,NA,661467.70000005,NA,NA,661461.482,661467.70000005,2023-10-25T12:29:50Z,661478.63,NULL,Schönheit,kirembo,s,mahojiano,msisimko,jitihadi,NA,sdf,NA,2,NA,NA,NA,NA,NA,NA,NA,NA,NA,NA,NA,NA,NA,NA,NA,NA,NA,NA,NA
ab317,shallow,flow.Sequence,3_0_2_0_5_1,NA,NA,completion,8761.044,652686.20000005,652683.548,652700.438,661461.482,661467.79999995,2023-10-25T12:29:50Z,661478.63,NULL,Schönheit,kirembo,s,mahojiano,msisimko,jitihadi,NA,sdf,NA,2,NA,NA,NA,NA,NA,NA,NA,NA,NA,NA,NA,NA,NA,NA,NA,NA,NA,NA,NA
ab317,task,flow.Sequence,3_0_2_0_5,NA,NA,completion,8761.044,652685.89999998,652683.548,652700.438,661461.482,661467.79999995,2023-10-25T12:29:50Z,661478.63,NULL,Schönheit,kirembo,s,mahojiano,msisimko,jitihadi,NA,sdf,NA,2,NA,NA,NA,NA,NA,NA,NA,NA,NA,NA,NA,NA,NA,NA,NA,NA,NA,NA,NA
ab317,Deep Question,html.Page,3_0_2_0_6_0_0,NA,NA,form submission,5942.87,661467.89999998,661461.482,661478.63,667421.5,667421.79999995,2023-10-25T12:29:56Z,667424.509,NULL,Auftrag,uagizaji,d,NA,NA,NA,gfgfg,NA,NA,2,NA,NA,NA,NA,NA,NA,NA,NA,NA,NA,NA,NA,NA,NA,NA,NA,NA,NA,NA
ab317,"""Richtig""-Screen",canvas.Screen,3_0_2_0_6_0_1,NA,NA,skipped,NA,667424.89999998,NA,NA,667421.5,667425.10000002,2023-10-25T12:29:56Z,667424.509,NULL,Auftrag,uagizaji,d,NA,NA,NA,NA,sdf,NA,2,NA,NA,NA,NA,NA,NA,NA,NA,NA,NA,NA,NA,NA,NA,NA,NA,NA,NA,NA
ab317,"""Falsch""-Screen",canvas.Screen,3_0_2_0_6_0_2,NA,NA,timeout,4997.15,667425.89999998,667408.306,667424.509,672404.876,672406.10000002,2023-10-25T12:30:01Z,672421.659,NULL,Auftrag,uagizaji,d,NA,NA,NA,NA,sdf,0,2,NA,NA,NA,NA,NA,NA,NA,NA,NA,NA,NA,NA,NA,NA,NA,NA,NA,NA,NA
ab317,deep,flow.Sequence,3_0_2_0_6_0,NA,NA,completion,10926.246,661467.89999998,661461.482,661478.63,672404.876,672406.5,2023-10-25T12:30:01Z,672421.659,NULL,Auftrag,uagizaji,d,NA,NA,NA,NA,sdf,NA,2,NA,NA,NA,NA,NA,NA,NA,NA,NA,NA,NA,NA,NA,NA,NA,NA,NA,NA,NA
ab317,shallow,flow.Sequence,3_0_2_0_6_1,NA,NA,skipped,NA,672406.60000002,NA,NA,672404.876,672406.79999995,2023-10-25T12:30:01Z,672421.659,NULL,Auftrag,uagizaji,d,NA,NA,NA,NA,sdf,NA,2,NA,NA,NA,NA,NA,NA,NA,NA,NA,NA,NA,NA,NA,NA,NA,NA,NA,NA,NA
ab317,task,flow.Sequence,3_0_2_0_6,NA,NA,completion,10926.246,661467.89999998,661461.482,661478.63,672404.876,672407,2023-10-25T12:30:01Z,672421.659,NULL,Auftrag,uagizaji,d,NA,NA,NA,NA,sdf,NA,2,NA,NA,NA,NA,NA,NA,NA,NA,NA,NA,NA,NA,NA,NA,NA,NA,NA,NA,NA
ab317,Deep Question,html.Page,3_0_2_0_7_0_0,NA,NA,form submission,14173.240999976,672407.29999995,672404.876,672421.659,686594.89999998,686595,2023-10-25T12:30:15Z,686596.116,NULL,Hoffnung,matarajio,d,NA,NA,NA,majarantari,NA,NA,2,NA,NA,NA,NA,NA,NA,NA,NA,NA,NA,NA,NA,NA,NA,NA,NA,NA,NA,NA
ab317,"""Richtig""-Screen",canvas.Screen,3_0_2_0_7_0_1,NA,NA,skipped,NA,686596.70000005,NA,NA,686594.89999998,686596.89999998,2023-10-25T12:30:15Z,686596.116,NULL,Hoffnung,matarajio,d,NA,NA,NA,NA,sdf,NA,2,NA,NA,NA,NA,NA,NA,NA,NA,NA,NA,NA,NA,NA,NA,NA,NA,NA,NA,NA
ab317,"""Falsch""-Screen",canvas.Screen,3_0_2_0_7_0_2,NA,NA,timeout,4997.47,686597.39999998,686579.52,686596.116,691576.78,691577.79999995,2023-10-25T12:30:20Z,691593.586,NULL,Hoffnung,matarajio,d,NA,NA,NA,NA,sdf,0,2,NA,NA,NA,NA,NA,NA,NA,NA,NA,NA,NA,NA,NA,NA,NA,NA,NA,NA,NA
ab317,deep,flow.Sequence,3_0_2_0_7_0,NA,NA,completion,19155.121,672407.29999995,672404.876,672421.659,691576.78,691578.10000002,2023-10-25T12:30:20Z,691593.586,NULL,Hoffnung,matarajio,d,NA,NA,NA,NA,sdf,NA,2,NA,NA,NA,NA,NA,NA,NA,NA,NA,NA,NA,NA,NA,NA,NA,NA,NA,NA,NA
ab317,shallow,flow.Sequence,3_0_2_0_7_1,NA,NA,skipped,NA,691578.29999995,NA,NA,691576.78,691578.39999998,2023-10-25T12:30:20Z,691593.586,NULL,Hoffnung,matarajio,d,NA,NA,NA,NA,sdf,NA,2,NA,NA,NA,NA,NA,NA,NA,NA,NA,NA,NA,NA,NA,NA,NA,NA,NA,NA,NA
ab317,task,flow.Sequence,3_0_2_0_7,NA,NA,completion,19155.121,672407.20000005,672404.876,672421.659,691576.78,691578.70000005,2023-10-25T12:30:20Z,691593.586,NULL,Hoffnung,matarajio,d,NA,NA,NA,NA,sdf,NA,2,NA,NA,NA,NA,NA,NA,NA,NA,NA,NA,NA,NA,NA,NA,NA,NA,NA,NA,NA
ab317,block,flow.Loop,3_0_2_0,NA,NA,completion,148976.115,542599.89999998,542571.217,542600.665,691576.78,691578.89999998,2023-10-25T12:30:20Z,691593.586,NULL,NA,NA,NA,NA,NA,NA,NA,sdf,NA,2,NA,NA,NA,NA,NA,NA,NA,NA,NA,NA,NA,NA,NA,NA,NA,NA,NA,NA,NA
ab317,weiter,canvas.Screen,3_0_2_1,sdf,keypress(Space),response,4004.1140000477,691579.10000002,691576.78,691593.586,695597.70000005,695598.79999995,2023-10-25T12:30:24Z,695607.279,NULL,NA,NA,NA,NA,NA,NA,NA,sdf,NA,2,NA,NA,NA,NA,NA,NA,NA,NA,NA,NA,NA,NA,NA,NA,NA,NA,NA,NA,NA
ab317,check continue,flow.Sequence,3_0_2,NA,NA,completion,152997.03500005,542599.89999998,542571.217,542600.665,695597.70000005,695599.20000005,2023-10-25T12:30:24Z,695607.279,NULL,NA,NA,NA,NA,NA,NA,NA,sdf,NA,2,NA,NA,NA,NA,NA,NA,NA,NA,NA,NA,NA,NA,NA,NA,NA,NA,NA,NA,NA
ab317,deep,flow.Sequence,3_0_3_0_0_0,NA,NA,skipped,NA,695619.60000002,NA,NA,695597.70000005,695619.89999998,2023-10-25T12:30:24Z,695607.279,NULL,Schönheit,kirembo,s,mahojiano,msisimko,jitihadi,NA,qt,NA,3,NA,NA,NA,NA,NA,NA,NA,NA,NA,NA,NA,NA,NA,NA,NA,NA,NA,NA,NA
ab317,Shallow Question,html.Page,3_0_3_0_0_1_0,NA,NA,form submission,4182.3210000239,695620,695591.296,695607.279,699789.60000002,699789.89999998,2023-10-25T12:30:28Z,699805.244,NULL,Schönheit,kirembo,s,mahojiano,msisimko,jitihadi,kirembo,NA,NA,3,NA,NA,NA,NA,NA,NA,NA,NA,NA,NA,NA,NA,NA,NA,NA,NA,NA,NA,NA
ab317,"""Richtig""-Screen",canvas.Screen,3_0_3_0_0_1_1,NA,NA,timeout,4996.903,699792.79999995,699788.037,699805.244,704785.459,704786.5,2023-10-25T12:30:33Z,704802.147,NULL,Schönheit,kirembo,s,mahojiano,msisimko,jitihadi,NA,qt,1,3,NA,NA,NA,NA,NA,NA,NA,NA,NA,NA,NA,NA,NA,NA,NA,NA,NA,NA,NA
ab317,"""Falsch""-Screen",canvas.Screen,3_0_3_0_0_1_2,NA,NA,skipped,NA,704791.79999995,NA,NA,704785.459,704792,2023-10-25T12:30:33Z,704802.147,NULL,Schönheit,kirembo,s,mahojiano,msisimko,jitihadi,NA,qt,NA,3,NA,NA,NA,NA,NA,NA,NA,NA,NA,NA,NA,NA,NA,NA,NA,NA,NA,NA,NA
ab317,shallow,flow.Sequence,3_0_3_0_0_1,NA,NA,completion,9178.1800000001,695620,695591.296,695607.279,704785.459,704792.10000002,2023-10-25T12:30:33Z,704802.147,NULL,Schönheit,kirembo,s,mahojiano,msisimko,jitihadi,NA,qt,NA,3,NA,NA,NA,NA,NA,NA,NA,NA,NA,NA,NA,NA,NA,NA,NA,NA,NA,NA,NA
ab317,task,flow.Sequence,3_0_3_0_0,NA,NA,completion,9178.1800000001,695619.60000002,695591.296,695607.279,704785.459,704792.10000002,2023-10-25T12:30:33Z,704802.147,NULL,Schönheit,kirembo,s,mahojiano,msisimko,jitihadi,NA,qt,NA,3,NA,NA,NA,NA,NA,NA,NA,NA,NA,NA,NA,NA,NA,NA,NA,NA,NA,NA,NA
ab317,Deep Question,html.Page,3_0_3_0_1_0_0,NA,NA,form submission,17603.652999952,704792.10000002,704785.459,704802.147,722405.79999995,722406.10000002,2023-10-25T12:30:51Z,722407.59,NULL,Hoffnung,matarajio,d,NA,NA,NA,matarjani,NA,NA,3,NA,NA,NA,NA,NA,NA,NA,NA,NA,NA,NA,NA,NA,NA,NA,NA,NA,NA,NA
ab317,"""Richtig""-Screen",canvas.Screen,3_0_3_0_1_0_1,NA,NA,skipped,NA,722409.29999995,NA,NA,722405.79999995,722409.5,2023-10-25T12:30:51Z,722407.59,NULL,Hoffnung,matarajio,d,NA,NA,NA,NA,qt,NA,3,NA,NA,NA,NA,NA,NA,NA,NA,NA,NA,NA,NA,NA,NA,NA,NA,NA,NA,NA
ab317,"""Falsch""-Screen",canvas.Screen,3_0_3_0_1_0_2,NA,NA,timeout,4997.1780000001,722410.20000005,722391.528,722407.59,727388.052,727388.5,2023-10-25T12:30:56Z,727404.768,NULL,Hoffnung,matarajio,d,NA,NA,NA,NA,qt,0,3,NA,NA,NA,NA,NA,NA,NA,NA,NA,NA,NA,NA,NA,NA,NA,NA,NA,NA,NA
ab317,deep,flow.Sequence,3_0_3_0_1_0,NA,NA,completion,22585.905,704792.10000002,704785.459,704802.147,727388.052,727388.60000002,2023-10-25T12:30:56Z,727404.768,NULL,Hoffnung,matarajio,d,NA,NA,NA,NA,qt,NA,3,NA,NA,NA,NA,NA,NA,NA,NA,NA,NA,NA,NA,NA,NA,NA,NA,NA,NA,NA
ab317,shallow,flow.Sequence,3_0_3_0_1_1,NA,NA,skipped,NA,727388.70000005,NA,NA,727388.052,727388.70000005,2023-10-25T12:30:56Z,727404.768,NULL,Hoffnung,matarajio,d,NA,NA,NA,NA,qt,NA,3,NA,NA,NA,NA,NA,NA,NA,NA,NA,NA,NA,NA,NA,NA,NA,NA,NA,NA,NA
ab317,task,flow.Sequence,3_0_3_0_1,NA,NA,completion,22585.905,704792.10000002,704785.459,704802.147,727388.052,727388.70000005,2023-10-25T12:30:56Z,727404.768,NULL,Hoffnung,matarajio,d,NA,NA,NA,NA,qt,NA,3,NA,NA,NA,NA,NA,NA,NA,NA,NA,NA,NA,NA,NA,NA,NA,NA,NA,NA,NA
ab317,deep,flow.Sequence,3_0_3_0_2_0,NA,NA,skipped,NA,727388.79999995,NA,NA,727388.052,727388.79999995,2023-10-25T12:30:56Z,727404.768,NULL,Theorie,nadharia,s,ushungi,mkutano,uwakilishi,NA,qt,NA,3,NA,NA,NA,NA,NA,NA,NA,NA,NA,NA,NA,NA,NA,NA,NA,NA,NA,NA,NA
ab317,Shallow Question,html.Page,3_0_3_0_2_1_0,NA,NA,form submission,8183.4320000476,727388.79999995,727388.052,727404.768,735588.20000005,735588.29999995,2023-10-25T12:31:04Z,735599.544,NULL,Theorie,nadharia,s,ushungi,mkutano,uwakilishi,nadharia,NA,NA,3,NA,NA,NA,NA,NA,NA,NA,NA,NA,NA,NA,NA,NA,NA,NA,NA,NA,NA,NA
ab317,"""Richtig""-Screen",canvas.Screen,3_0_3_0_2_1_1,NA,NA,timeout,4997.507,735589.89999998,735583.342,735599.544,740580.173,740580.79999995,2023-10-25T12:31:09Z,740597.051,NULL,Theorie,nadharia,s,ushungi,mkutano,uwakilishi,NA,qt,1,3,NA,NA,NA,NA,NA,NA,NA,NA,NA,NA,NA,NA,NA,NA,NA,NA,NA,NA,NA
ab317,"""Falsch""-Screen",canvas.Screen,3_0_3_0_2_1_2,NA,NA,skipped,NA,740582.79999995,NA,NA,740580.173,740582.89999998,2023-10-25T12:31:09Z,740597.051,NULL,Theorie,nadharia,s,ushungi,mkutano,uwakilishi,NA,qt,NA,3,NA,NA,NA,NA,NA,NA,NA,NA,NA,NA,NA,NA,NA,NA,NA,NA,NA,NA,NA
ab317,shallow,flow.Sequence,3_0_3_0_2_1,NA,NA,completion,13175.405,727388.79999995,727388.052,727404.768,740580.173,740583,2023-10-25T12:31:09Z,740597.051,NULL,Theorie,nadharia,s,ushungi,mkutano,uwakilishi,NA,qt,NA,3,NA,NA,NA,NA,NA,NA,NA,NA,NA,NA,NA,NA,NA,NA,NA,NA,NA,NA,NA
ab317,task,flow.Sequence,3_0_3_0_2,NA,NA,completion,13175.405,727388.79999995,727388.052,727404.768,740580.173,740583,2023-10-25T12:31:09Z,740597.051,NULL,Theorie,nadharia,s,ushungi,mkutano,uwakilishi,NA,qt,NA,3,NA,NA,NA,NA,NA,NA,NA,NA,NA,NA,NA,NA,NA,NA,NA,NA,NA,NA,NA
ab317,deep,flow.Sequence,3_0_3_0_3_0,NA,NA,skipped,NA,740583.10000002,NA,NA,740580.173,740583.20000005,2023-10-25T12:31:09Z,740597.051,NULL,Zufall,kikuti,s,kukosekana,uchoraji,leseni,NA,qt,NA,3,NA,NA,NA,NA,NA,NA,NA,NA,NA,NA,NA,NA,NA,NA,NA,NA,NA,NA,NA
ab317,Shallow Question,html.Page,3_0_3_0_3_1_0,NA,NA,form submission,5016.5490000239,740583.20000005,740580.173,740597.051,745613.60000002,745613.89999998,2023-10-25T12:31:14Z,745627.187,NULL,Zufall,kikuti,s,kukosekana,uchoraji,leseni,kikuti,NA,NA,3,NA,NA,NA,NA,NA,NA,NA,NA,NA,NA,NA,NA,NA,NA,NA,NA,NA,NA,NA
ab317,"""Richtig""-Screen",canvas.Screen,3_0_3_0_3_1_1,NA,NA,timeout,4996.5159999999,745616.79999995,745607.732,745627.187,750607.089,750608.29999995,2023-10-25T12:31:19Z,750623.703,NULL,Zufall,kikuti,s,kukosekana,uchoraji,leseni,NA,qt,1,3,NA,NA,NA,NA,NA,NA,NA,NA,NA,NA,NA,NA,NA,NA,NA,NA,NA,NA,NA
ab317,"""Falsch""-Screen",canvas.Screen,3_0_3_0_3_1_2,NA,NA,skipped,NA,750612.79999995,NA,NA,750607.089,750613,2023-10-25T12:31:19Z,750623.703,NULL,Zufall,kikuti,s,kukosekana,uchoraji,leseni,NA,qt,NA,3,NA,NA,NA,NA,NA,NA,NA,NA,NA,NA,NA,NA,NA,NA,NA,NA,NA,NA,NA
ab317,shallow,flow.Sequence,3_0_3_0_3_1,NA,NA,completion,10010.038,740583.20000005,740580.173,740597.051,750607.089,750613.10000002,2023-10-25T12:31:19Z,750623.703,NULL,Zufall,kikuti,s,kukosekana,uchoraji,leseni,NA,qt,NA,3,NA,NA,NA,NA,NA,NA,NA,NA,NA,NA,NA,NA,NA,NA,NA,NA,NA,NA,NA
ab317,task,flow.Sequence,3_0_3_0_3,NA,NA,completion,10010.038,740583.10000002,740580.173,740597.051,750607.089,750613.10000002,2023-10-25T12:31:19Z,750623.703,NULL,Zufall,kikuti,s,kukosekana,uchoraji,leseni,NA,qt,NA,3,NA,NA,NA,NA,NA,NA,NA,NA,NA,NA,NA,NA,NA,NA,NA,NA,NA,NA,NA
ab317,Deep Question,html.Page,3_0_3_0_4_0_0,NA,NA,form submission,9310.0969999523,750613.20000005,750607.089,750623.703,759933.79999995,759934,2023-10-25T12:31:28Z,759934.652,NULL,Verpackung,ufungaji,d,NA,NA,NA,hhfhf,NA,NA,3,NA,NA,NA,NA,NA,NA,NA,NA,NA,NA,NA,NA,NA,NA,NA,NA,NA,NA,NA
ab317,"""Richtig""-Screen",canvas.Screen,3_0_3_0_4_0_1,NA,NA,skipped,NA,759937.20000005,NA,NA,759933.79999995,759937.29999995,2023-10-25T12:31:28Z,759934.652,NULL,Verpackung,ufungaji,d,NA,NA,NA,NA,qt,NA,3,NA,NA,NA,NA,NA,NA,NA,NA,NA,NA,NA,NA,NA,NA,NA,NA,NA,NA,NA
ab317,"""Falsch""-Screen",canvas.Screen,3_0_3_0_4_0_2,NA,NA,timeout,4997.339,759937.89999998,759932.114,759934.652,764915.341,764916.5,2023-10-25T12:31:33Z,764931.991,NULL,Verpackung,ufungaji,d,NA,NA,NA,NA,qt,0,3,NA,NA,NA,NA,NA,NA,NA,NA,NA,NA,NA,NA,NA,NA,NA,NA,NA,NA,NA
ab317,deep,flow.Sequence,3_0_3_0_4_0,NA,NA,completion,14291.638,750613.20000005,750607.089,750623.703,764915.341,764917,2023-10-25T12:31:33Z,764931.991,NULL,Verpackung,ufungaji,d,NA,NA,NA,NA,qt,NA,3,NA,NA,NA,NA,NA,NA,NA,NA,NA,NA,NA,NA,NA,NA,NA,NA,NA,NA,NA
ab317,shallow,flow.Sequence,3_0_3_0_4_1,NA,NA,skipped,NA,764917.20000005,NA,NA,764915.341,764917.39999998,2023-10-25T12:31:33Z,764931.991,NULL,Verpackung,ufungaji,d,NA,NA,NA,NA,qt,NA,3,NA,NA,NA,NA,NA,NA,NA,NA,NA,NA,NA,NA,NA,NA,NA,NA,NA,NA,NA
ab317,task,flow.Sequence,3_0_3_0_4,NA,NA,completion,14291.638,750613.10000002,750607.089,750623.703,764915.341,764917.60000002,2023-10-25T12:31:33Z,764931.991,NULL,Verpackung,ufungaji,d,NA,NA,NA,NA,qt,NA,3,NA,NA,NA,NA,NA,NA,NA,NA,NA,NA,NA,NA,NA,NA,NA,NA,NA,NA,NA
ab317,Deep Question,html.Page,3_0_3_0_5_0_0,NA,NA,form submission,14026.609000024,764917.79999995,764915.341,764931.991,778958.60000002,778958.79999995,2023-10-25T12:31:47Z,778973.474,NULL,Wettbewerb,ushindani,d,NA,NA,NA,ushindaji,NA,NA,3,NA,NA,NA,NA,NA,NA,NA,NA,NA,NA,NA,NA,NA,NA,NA,NA,NA,NA,NA
ab317,"""Richtig""-Screen",canvas.Screen,3_0_3_0_5_0_1,NA,NA,skipped,NA,778961.79999995,NA,NA,778958.60000002,778962,2023-10-25T12:31:47Z,778973.474,NULL,Wettbewerb,ushindani,d,NA,NA,NA,NA,qt,NA,3,NA,NA,NA,NA,NA,NA,NA,NA,NA,NA,NA,NA,NA,NA,NA,NA,NA,NA,NA
ab317,"""Falsch""-Screen",canvas.Screen,3_0_3_0_5_0_2,NA,NA,timeout,4996.7879999999,778962.5,778956.916,778973.474,783953.494,783954.79999995,2023-10-25T12:31:52Z,783970.262,NULL,Wettbewerb,ushindani,d,NA,NA,NA,NA,qt,0,3,NA,NA,NA,NA,NA,NA,NA,NA,NA,NA,NA,NA,NA,NA,NA,NA,NA,NA,NA
ab317,deep,flow.Sequence,3_0_3_0_5_0,NA,NA,completion,19021.503,764917.70000005,764915.341,764931.991,783953.494,783955.20000005,2023-10-25T12:31:52Z,783970.262,NULL,Wettbewerb,ushindani,d,NA,NA,NA,NA,qt,NA,3,NA,NA,NA,NA,NA,NA,NA,NA,NA,NA,NA,NA,NA,NA,NA,NA,NA,NA,NA
ab317,shallow,flow.Sequence,3_0_3_0_5_1,NA,NA,skipped,NA,783955.39999998,NA,NA,783953.494,783955.60000002,2023-10-25T12:31:52Z,783970.262,NULL,Wettbewerb,ushindani,d,NA,NA,NA,NA,qt,NA,3,NA,NA,NA,NA,NA,NA,NA,NA,NA,NA,NA,NA,NA,NA,NA,NA,NA,NA,NA
ab317,task,flow.Sequence,3_0_3_0_5,NA,NA,completion,19021.503,764917.70000005,764915.341,764931.991,783953.494,783955.70000005,2023-10-25T12:31:52Z,783970.262,NULL,Wettbewerb,ushindani,d,NA,NA,NA,NA,qt,NA,3,NA,NA,NA,NA,NA,NA,NA,NA,NA,NA,NA,NA,NA,NA,NA,NA,NA,NA,NA
ab317,Deep Question,html.Page,3_0_3_0_6_0_0,NA,NA,form submission,7795.738,783955.89999998,783953.494,783970.262,791766,791766.20000005,2023-10-25T12:32:00Z,791782.651,NULL,Auftrag,uagizaji,d,NA,NA,NA,ffddfd,NA,NA,3,NA,NA,NA,NA,NA,NA,NA,NA,NA,NA,NA,NA,NA,NA,NA,NA,NA,NA,NA
ab317,"""Richtig""-Screen",canvas.Screen,3_0_3_0_6_0_1,NA,NA,skipped,NA,791769.39999998,NA,NA,791766,791769.5,2023-10-25T12:32:00Z,791782.651,NULL,Auftrag,uagizaji,d,NA,NA,NA,NA,qt,NA,3,NA,NA,NA,NA,NA,NA,NA,NA,NA,NA,NA,NA,NA,NA,NA,NA,NA,NA,NA
ab317,"""Falsch""-Screen",canvas.Screen,3_0_3_0_6_0_2,NA,NA,timeout,4996.2930000001,791770.10000002,791749.175,791782.651,796762.543,796763.89999998,2023-10-25T12:32:05Z,796778.944,NULL,Auftrag,uagizaji,d,NA,NA,NA,NA,qt,0,3,NA,NA,NA,NA,NA,NA,NA,NA,NA,NA,NA,NA,NA,NA,NA,NA,NA,NA,NA
ab317,deep,flow.Sequence,3_0_3_0_6_0,NA,NA,completion,12792.281,783955.89999998,783953.494,783970.262,796762.543,796764.20000005,2023-10-25T12:32:05Z,796778.944,NULL,Auftrag,uagizaji,d,NA,NA,NA,NA,qt,NA,3,NA,NA,NA,NA,NA,NA,NA,NA,NA,NA,NA,NA,NA,NA,NA,NA,NA,NA,NA
ab317,shallow,flow.Sequence,3_0_3_0_6_1,NA,NA,skipped,NA,796764.39999998,NA,NA,796762.543,796764.5,2023-10-25T12:32:05Z,796778.944,NULL,Auftrag,uagizaji,d,NA,NA,NA,NA,qt,NA,3,NA,NA,NA,NA,NA,NA,NA,NA,NA,NA,NA,NA,NA,NA,NA,NA,NA,NA,NA
ab317,task,flow.Sequence,3_0_3_0_6,NA,NA,completion,12792.281,783955.89999998,783953.494,783970.262,796762.543,796764.70000005,2023-10-25T12:32:05Z,796778.944,NULL,Auftrag,uagizaji,d,NA,NA,NA,NA,qt,NA,3,NA,NA,NA,NA,NA,NA,NA,NA,NA,NA,NA,NA,NA,NA,NA,NA,NA,NA,NA
ab317,deep,flow.Sequence,3_0_3_0_7_0,NA,NA,skipped,NA,796765,NA,NA,796762.543,796765.10000002,2023-10-25T12:32:05Z,796778.944,NULL,Schock,mshtuko,s,biashara,kukataza,vichekesho,NA,qt,NA,3,NA,NA,NA,NA,NA,NA,NA,NA,NA,NA,NA,NA,NA,NA,NA,NA,NA,NA,NA
ab317,Shallow Question,html.Page,3_0_3_0_7_1_0,NA,NA,form submission,4008.7560000477,796765.20000005,796762.543,796778.944,800787.70000005,800788.10000002,2023-10-25T12:32:09Z,800793.004,NULL,Schock,mshtuko,s,biashara,kukataza,vichekesho,mshtuko,NA,NA,3,NA,NA,NA,NA,NA,NA,NA,NA,NA,NA,NA,NA,NA,NA,NA,NA,NA,NA,NA
ab317,"""Richtig""-Screen",canvas.Screen,3_0_3_0_7_1_1,NA,NA,timeout,4997.077,800791,800776.696,800793.004,805773.784,805774.89999998,2023-10-25T12:32:14Z,805790.081,NULL,Schock,mshtuko,s,biashara,kukataza,vichekesho,NA,qt,1,3,NA,NA,NA,NA,NA,NA,NA,NA,NA,NA,NA,NA,NA,NA,NA,NA,NA,NA,NA
ab317,"""Falsch""-Screen",canvas.Screen,3_0_3_0_7_1_2,NA,NA,skipped,NA,805780.10000002,NA,NA,805773.784,805780.20000005,2023-10-25T12:32:14Z,805790.081,NULL,Schock,mshtuko,s,biashara,kukataza,vichekesho,NA,qt,NA,3,NA,NA,NA,NA,NA,NA,NA,NA,NA,NA,NA,NA,NA,NA,NA,NA,NA,NA,NA
ab317,shallow,flow.Sequence,3_0_3_0_7_1,NA,NA,completion,8994.84,796765.20000005,796762.543,796778.944,805773.784,805780.39999998,2023-10-25T12:32:14Z,805790.081,NULL,Schock,mshtuko,s,biashara,kukataza,vichekesho,NA,qt,NA,3,NA,NA,NA,NA,NA,NA,NA,NA,NA,NA,NA,NA,NA,NA,NA,NA,NA,NA,NA
ab317,task,flow.Sequence,3_0_3_0_7,NA,NA,completion,8994.84,796764.89999998,796762.543,796778.944,805773.784,805780.39999998,2023-10-25T12:32:14Z,805790.081,NULL,Schock,mshtuko,s,biashara,kukataza,vichekesho,NA,qt,NA,3,NA,NA,NA,NA,NA,NA,NA,NA,NA,NA,NA,NA,NA,NA,NA,NA,NA,NA,NA
ab317,block,flow.Loop,3_0_3_0,NA,NA,completion,110166.505,695619.20000005,695591.296,695607.279,805773.784,805780.39999998,2023-10-25T12:32:14Z,805790.081,NULL,NA,NA,NA,NA,NA,NA,NA,qt,NA,3,NA,NA,NA,NA,NA,NA,NA,NA,NA,NA,NA,NA,NA,NA,NA,NA,NA,NA,NA
ab317,weiter,canvas.Screen,3_0_3_1,sdf,keypress(Space),response,1649.919,805780.39999998,805773.784,805790.081,807440,807441,2023-10-25T12:32:16Z,807455.665,NULL,NA,NA,NA,NA,NA,NA,NA,qt,NA,3,NA,NA,NA,NA,NA,NA,NA,NA,NA,NA,NA,NA,NA,NA,NA,NA,NA,NA,NA
ab317,check continue,flow.Sequence,3_0_3,NA,NA,completion,111832.721,695619.20000005,695591.296,695607.279,807440,807441.29999995,2023-10-25T12:32:16Z,807455.665,NULL,NA,NA,NA,NA,NA,NA,NA,qt,NA,3,NA,NA,NA,NA,NA,NA,NA,NA,NA,NA,NA,NA,NA,NA,NA,NA,NA,NA,NA
ab317,Deep Question,html.Page,3_0_4_0_0_0_0,NA,NA,form submission,19028.134999952,807461.20000005,807439.565,807455.665,826483.79999995,826484,2023-10-25T12:32:35Z,826494.529,NULL,Wettbewerb,ushindani,d,NA,NA,NA,matarijani,NA,NA,4,NA,NA,NA,NA,NA,NA,NA,NA,NA,NA,NA,NA,NA,NA,NA,NA,NA,NA,NA
ab317,"""Richtig""-Screen",canvas.Screen,3_0_4_0_0_0_1,NA,NA,skipped,NA,826487.29999995,NA,NA,826483.79999995,826487.5,2023-10-25T12:32:35Z,826494.529,NULL,Wettbewerb,ushindani,d,NA,NA,NA,NA,sd,NA,4,NA,NA,NA,NA,NA,NA,NA,NA,NA,NA,NA,NA,NA,NA,NA,NA,NA,NA,NA
ab317,"""Falsch""-Screen",canvas.Screen,3_0_4_0_0_0_2,NA,NA,timeout,4996.7390000001,826488.10000002,826477.751,826494.529,831474.406,831475.70000005,2023-10-25T12:32:40Z,831491.268,NULL,Wettbewerb,ushindani,d,NA,NA,NA,NA,sd,0,4,NA,NA,NA,NA,NA,NA,NA,NA,NA,NA,NA,NA,NA,NA,NA,NA,NA,NA,NA
ab317,deep,flow.Sequence,3_0_4_0_0_0,NA,NA,completion,24018.741,807461.20000005,807439.565,807455.665,831474.406,831476.10000002,2023-10-25T12:32:40Z,831491.268,NULL,Wettbewerb,ushindani,d,NA,NA,NA,NA,sd,NA,4,NA,NA,NA,NA,NA,NA,NA,NA,NA,NA,NA,NA,NA,NA,NA,NA,NA,NA,NA
ab317,shallow,flow.Sequence,3_0_4_0_0_1,NA,NA,skipped,NA,831476.29999995,NA,NA,831474.406,831476.39999998,2023-10-25T12:32:40Z,831491.268,NULL,Wettbewerb,ushindani,d,NA,NA,NA,NA,sd,NA,4,NA,NA,NA,NA,NA,NA,NA,NA,NA,NA,NA,NA,NA,NA,NA,NA,NA,NA,NA
ab317,task,flow.Sequence,3_0_4_0_0,NA,NA,completion,24018.741,807461.20000005,807439.565,807455.665,831474.406,831476.60000002,2023-10-25T12:32:40Z,831491.268,NULL,Wettbewerb,ushindani,d,NA,NA,NA,NA,sd,NA,4,NA,NA,NA,NA,NA,NA,NA,NA,NA,NA,NA,NA,NA,NA,NA,NA,NA,NA,NA
ab317,deep,flow.Sequence,3_0_4_0_1_0,NA,NA,skipped,NA,831476.79999995,NA,NA,831474.406,831476.89999998,2023-10-25T12:32:40Z,831491.268,NULL,Theorie,nadharia,s,ushungi,mkutano,uwakilishi,NA,sd,NA,4,NA,NA,NA,NA,NA,NA,NA,NA,NA,NA,NA,NA,NA,NA,NA,NA,NA,NA,NA
ab317,Shallow Question,html.Page,3_0_4_0_1_1_0,NA,NA,form submission,4562.1319999761,831477,831474.406,831491.268,836053.39999998,836053.60000002,2023-10-25T12:32:45Z,836054.865,NULL,Theorie,nadharia,s,ushungi,mkutano,uwakilishi,nadharia,NA,NA,4,NA,NA,NA,NA,NA,NA,NA,NA,NA,NA,NA,NA,NA,NA,NA,NA,NA,NA,NA
ab317,"""Richtig""-Screen",canvas.Screen,3_0_4_0_1_1_1,NA,NA,timeout,4996.921,836056.70000005,836038.557,836054.865,841035.651,841037,2023-10-25T12:32:50Z,841051.786,NULL,Theorie,nadharia,s,ushungi,mkutano,uwakilishi,NA,sd,1,4,NA,NA,NA,NA,NA,NA,NA,NA,NA,NA,NA,NA,NA,NA,NA,NA,NA,NA,NA
ab317,"""Falsch""-Screen",canvas.Screen,3_0_4_0_1_1_2,NA,NA,skipped,NA,841042.20000005,NA,NA,841035.651,841042.29999995,2023-10-25T12:32:50Z,841051.786,NULL,Theorie,nadharia,s,ushungi,mkutano,uwakilishi,NA,sd,NA,4,NA,NA,NA,NA,NA,NA,NA,NA,NA,NA,NA,NA,NA,NA,NA,NA,NA,NA,NA
ab317,shallow,flow.Sequence,3_0_4_0_1_1,NA,NA,completion,9544.3829999999,831476.89999998,831474.406,831491.268,841035.651,841042.39999998,2023-10-25T12:32:50Z,841051.786,NULL,Theorie,nadharia,s,ushungi,mkutano,uwakilishi,NA,sd,NA,4,NA,NA,NA,NA,NA,NA,NA,NA,NA,NA,NA,NA,NA,NA,NA,NA,NA,NA,NA
ab317,task,flow.Sequence,3_0_4_0_1,NA,NA,completion,9544.3829999999,831476.79999995,831474.406,831491.268,841035.651,841042.5,2023-10-25T12:32:50Z,841051.786,NULL,Theorie,nadharia,s,ushungi,mkutano,uwakilishi,NA,sd,NA,4,NA,NA,NA,NA,NA,NA,NA,NA,NA,NA,NA,NA,NA,NA,NA,NA,NA,NA,NA
ab317,Deep Question,html.Page,3_0_4_0_2_0_0,NA,NA,form submission,14702.013999952,841042.5,841035.651,841051.786,855753.79999995,855754.10000002,2023-10-25T12:33:04Z,855759.483,NULL,Verpackung,ufungaji,d,NA,NA,NA,uagizaji,NA,NA,4,NA,NA,NA,NA,NA,NA,NA,NA,NA,NA,NA,NA,NA,NA,NA,NA,NA,NA,NA
ab317,"""Richtig""-Screen",canvas.Screen,3_0_4_0_2_0_1,NA,NA,skipped,NA,855757.29999995,NA,NA,855753.79999995,855757.5,2023-10-25T12:33:04Z,855759.483,NULL,Verpackung,ufungaji,d,NA,NA,NA,NA,sd,NA,4,NA,NA,NA,NA,NA,NA,NA,NA,NA,NA,NA,NA,NA,NA,NA,NA,NA,NA,NA
ab317,"""Falsch""-Screen",canvas.Screen,3_0_4_0_2_0_2,NA,NA,timeout,4997.291,855758.10000002,855743.317,855759.483,860739.815,860741.20000005,2023-10-25T12:33:09Z,860756.774,NULL,Verpackung,ufungaji,d,NA,NA,NA,NA,sd,0,4,NA,NA,NA,NA,NA,NA,NA,NA,NA,NA,NA,NA,NA,NA,NA,NA,NA,NA,NA
ab317,deep,flow.Sequence,3_0_4_0_2_0,NA,NA,completion,19688.029,841042.5,841035.651,841051.786,860739.815,860741.60000002,2023-10-25T12:33:09Z,860756.774,NULL,Verpackung,ufungaji,d,NA,NA,NA,NA,sd,NA,4,NA,NA,NA,NA,NA,NA,NA,NA,NA,NA,NA,NA,NA,NA,NA,NA,NA,NA,NA
ab317,shallow,flow.Sequence,3_0_4_0_2_1,NA,NA,skipped,NA,860741.79999995,NA,NA,860739.815,860742,2023-10-25T12:33:09Z,860756.774,NULL,Verpackung,ufungaji,d,NA,NA,NA,NA,sd,NA,4,NA,NA,NA,NA,NA,NA,NA,NA,NA,NA,NA,NA,NA,NA,NA,NA,NA,NA,NA
ab317,task,flow.Sequence,3_0_4_0_2,NA,NA,completion,19688.029,841042.5,841035.651,841051.786,860739.815,860742.20000005,2023-10-25T12:33:09Z,860756.774,NULL,Verpackung,ufungaji,d,NA,NA,NA,NA,sd,NA,4,NA,NA,NA,NA,NA,NA,NA,NA,NA,NA,NA,NA,NA,NA,NA,NA,NA,NA,NA
ab317,deep,flow.Sequence,3_0_4_0_3_0,NA,NA,skipped,NA,860742.39999998,NA,NA,860739.815,860742.5,2023-10-25T12:33:09Z,860756.774,NULL,Schönheit,kirembo,s,mahojiano,msisimko,jitihadi,NA,sd,NA,4,NA,NA,NA,NA,NA,NA,NA,NA,NA,NA,NA,NA,NA,NA,NA,NA,NA,NA,NA
ab317,Shallow Question,html.Page,3_0_4_0_3_1_0,NA,NA,form submission,3650.8260000239,860742.79999995,860739.815,860756.774,864407.60000002,864407.89999998,2023-10-25T12:33:13Z,864421.347,NULL,Schönheit,kirembo,s,mahojiano,msisimko,jitihadi,kirembo,NA,NA,4,NA,NA,NA,NA,NA,NA,NA,NA,NA,NA,NA,NA,NA,NA,NA,NA,NA,NA,NA
ab317,"""Richtig""-Screen",canvas.Screen,3_0_4_0_3_1_1,NA,NA,timeout,4996.988,864410.89999998,864404.52,864421.347,869401.178,869402.29999995,2023-10-25T12:33:18Z,869418.335,NULL,Schönheit,kirembo,s,mahojiano,msisimko,jitihadi,NA,sd,1,4,NA,NA,NA,NA,NA,NA,NA,NA,NA,NA,NA,NA,NA,NA,NA,NA,NA,NA,NA
ab317,"""Falsch""-Screen",canvas.Screen,3_0_4_0_3_1_2,NA,NA,skipped,NA,869407.10000002,NA,NA,869401.178,869407.20000005,2023-10-25T12:33:18Z,869418.335,NULL,Schönheit,kirembo,s,mahojiano,msisimko,jitihadi,NA,sd,NA,4,NA,NA,NA,NA,NA,NA,NA,NA,NA,NA,NA,NA,NA,NA,NA,NA,NA,NA,NA
ab317,shallow,flow.Sequence,3_0_4_0_3_1,NA,NA,completion,8644.404,860742.79999995,860739.815,860756.774,869401.178,869407.79999995,2023-10-25T12:33:18Z,869418.335,NULL,Schönheit,kirembo,s,mahojiano,msisimko,jitihadi,NA,sd,NA,4,NA,NA,NA,NA,NA,NA,NA,NA,NA,NA,NA,NA,NA,NA,NA,NA,NA,NA,NA
ab317,task,flow.Sequence,3_0_4_0_3,NA,NA,completion,8644.404,860742.29999995,860739.815,860756.774,869401.178,869408,2023-10-25T12:33:18Z,869418.335,NULL,Schönheit,kirembo,s,mahojiano,msisimko,jitihadi,NA,sd,NA,4,NA,NA,NA,NA,NA,NA,NA,NA,NA,NA,NA,NA,NA,NA,NA,NA,NA,NA,NA
ab317,deep,flow.Sequence,3_0_4_0_4_0,NA,NA,skipped,NA,869408,NA,NA,869401.178,869408.10000002,2023-10-25T12:33:18Z,869418.335,NULL,Zufall,kikuti,s,kukosekana,uchoraji,leseni,NA,sd,NA,4,NA,NA,NA,NA,NA,NA,NA,NA,NA,NA,NA,NA,NA,NA,NA,NA,NA,NA,NA
ab317,Shallow Question,html.Page,3_0_4_0_4_1_0,NA,NA,form submission,3055.5649999762,869408.10000002,869401.178,869418.335,872473.89999998,872474.20000005,2023-10-25T12:33:21Z,872499.287,NULL,Zufall,kikuti,s,kukosekana,uchoraji,leseni,kikuti,NA,NA,4,NA,NA,NA,NA,NA,NA,NA,NA,NA,NA,NA,NA,NA,NA,NA,NA,NA,NA,NA
ab317,"""Richtig""-Screen",canvas.Screen,3_0_4_0_4_1_1,NA,NA,timeout,4997.324,872477.10000002,872483.092,872499.287,877479.602,877480.89999998,2023-10-25T12:33:26Z,877496.611,NULL,Zufall,kikuti,s,kukosekana,uchoraji,leseni,NA,sd,1,4,NA,NA,NA,NA,NA,NA,NA,NA,NA,NA,NA,NA,NA,NA,NA,NA,NA,NA,NA
ab317,"""Falsch""-Screen",canvas.Screen,3_0_4_0_4_1_2,NA,NA,skipped,NA,877485.79999995,NA,NA,877479.602,877486,2023-10-25T12:33:26Z,877496.611,NULL,Zufall,kikuti,s,kukosekana,uchoraji,leseni,NA,sd,NA,4,NA,NA,NA,NA,NA,NA,NA,NA,NA,NA,NA,NA,NA,NA,NA,NA,NA,NA,NA
ab317,shallow,flow.Sequence,3_0_4_0_4_1,NA,NA,completion,8061.267,869408.10000002,869401.178,869418.335,877479.602,877486.10000002,2023-10-25T12:33:26Z,877496.611,NULL,Zufall,kikuti,s,kukosekana,uchoraji,leseni,NA,sd,NA,4,NA,NA,NA,NA,NA,NA,NA,NA,NA,NA,NA,NA,NA,NA,NA,NA,NA,NA,NA
ab317,task,flow.Sequence,3_0_4_0_4,NA,NA,completion,8061.267,869408,869401.178,869418.335,877479.602,877486.10000002,2023-10-25T12:33:26Z,877496.611,NULL,Zufall,kikuti,s,kukosekana,uchoraji,leseni,NA,sd,NA,4,NA,NA,NA,NA,NA,NA,NA,NA,NA,NA,NA,NA,NA,NA,NA,NA,NA,NA,NA
ab317,deep,flow.Sequence,3_0_4_0_5_0,NA,NA,skipped,NA,877486.10000002,NA,NA,877479.602,877486.20000005,2023-10-25T12:33:26Z,877496.611,NULL,Schock,mshtuko,s,biashara,kukataza,vichekesho,NA,sd,NA,4,NA,NA,NA,NA,NA,NA,NA,NA,NA,NA,NA,NA,NA,NA,NA,NA,NA,NA,NA
ab317,Shallow Question,html.Page,3_0_4_0_5_1_0,NA,NA,form submission,4261.0890000477,877486.29999995,877479.602,877496.611,881757.70000005,881758,2023-10-25T12:33:30Z,881760.3,NULL,Schock,mshtuko,s,biashara,kukataza,vichekesho,mshtuko,NA,NA,4,NA,NA,NA,NA,NA,NA,NA,NA,NA,NA,NA,NA,NA,NA,NA,NA,NA,NA,NA
ab317,"""Richtig""-Screen",canvas.Screen,3_0_4_0_5_1_1,NA,NA,timeout,4997.4469999999,881761.10000002,881743.406,881760.3,886740.581,886741.10000002,2023-10-25T12:33:35Z,886757.747,NULL,Schock,mshtuko,s,biashara,kukataza,vichekesho,NA,sd,1,4,NA,NA,NA,NA,NA,NA,NA,NA,NA,NA,NA,NA,NA,NA,NA,NA,NA,NA,NA
ab317,"""Falsch""-Screen",canvas.Screen,3_0_4_0_5_1_2,NA,NA,skipped,NA,886742.5,NA,NA,886740.581,886742.60000002,2023-10-25T12:33:35Z,886757.747,NULL,Schock,mshtuko,s,biashara,kukataza,vichekesho,NA,sd,NA,4,NA,NA,NA,NA,NA,NA,NA,NA,NA,NA,NA,NA,NA,NA,NA,NA,NA,NA,NA
ab317,shallow,flow.Sequence,3_0_4_0_5_1,NA,NA,completion,9243.97,877486.29999995,877479.602,877496.611,886740.581,886742.70000005,2023-10-25T12:33:35Z,886757.747,NULL,Schock,mshtuko,s,biashara,kukataza,vichekesho,NA,sd,NA,4,NA,NA,NA,NA,NA,NA,NA,NA,NA,NA,NA,NA,NA,NA,NA,NA,NA,NA,NA
ab317,task,flow.Sequence,3_0_4_0_5,NA,NA,completion,9243.97,877486.10000002,877479.602,877496.611,886740.581,886742.79999995,2023-10-25T12:33:35Z,886757.747,NULL,Schock,mshtuko,s,biashara,kukataza,vichekesho,NA,sd,NA,4,NA,NA,NA,NA,NA,NA,NA,NA,NA,NA,NA,NA,NA,NA,NA,NA,NA,NA,NA
ab317,Deep Question,html.Page,3_0_4_0_6_0_0,NA,NA,form submission,22760.253,886742.79999995,886740.581,886757.747,909518,909518.20000005,2023-10-25T12:33:58Z,909526.858,NULL,Auftrag,uagizaji,d,NA,NA,NA,uagizaji,NA,NA,4,NA,NA,NA,NA,NA,NA,NA,NA,NA,NA,NA,NA,NA,NA,NA,NA,NA,NA,NA
ab317,"""Richtig""-Screen",canvas.Screen,3_0_4_0_6_0_1,NA,NA,timeout,4997.079,909521.5,909510.48,909526.858,914507.207,914508,2023-10-25T12:34:03Z,914523.937,NULL,Auftrag,uagizaji,d,NA,NA,NA,NA,sd,1,4,NA,NA,NA,NA,NA,NA,NA,NA,NA,NA,NA,NA,NA,NA,NA,NA,NA,NA,NA
ab317,"""Falsch""-Screen",canvas.Screen,3_0_4_0_6_0_2,NA,NA,skipped,NA,914512.79999995,NA,NA,914507.207,914512.89999998,2023-10-25T12:34:03Z,914523.937,NULL,Auftrag,uagizaji,d,NA,NA,NA,NA,sd,NA,4,NA,NA,NA,NA,NA,NA,NA,NA,NA,NA,NA,NA,NA,NA,NA,NA,NA,NA,NA
ab317,deep,flow.Sequence,3_0_4_0_6_0,NA,NA,completion,27749.46,886742.79999995,886740.581,886757.747,914507.207,914513.10000002,2023-10-25T12:34:03Z,914523.937,NULL,Auftrag,uagizaji,d,NA,NA,NA,NA,sd,NA,4,NA,NA,NA,NA,NA,NA,NA,NA,NA,NA,NA,NA,NA,NA,NA,NA,NA,NA,NA
ab317,shallow,flow.Sequence,3_0_4_0_6_1,NA,NA,skipped,NA,914513.10000002,NA,NA,914507.207,914513.10000002,2023-10-25T12:34:03Z,914523.937,NULL,Auftrag,uagizaji,d,NA,NA,NA,NA,sd,NA,4,NA,NA,NA,NA,NA,NA,NA,NA,NA,NA,NA,NA,NA,NA,NA,NA,NA,NA,NA
ab317,task,flow.Sequence,3_0_4_0_6,NA,NA,completion,27749.46,886742.79999995,886740.581,886757.747,914507.207,914513.29999995,2023-10-25T12:34:03Z,914523.937,NULL,Auftrag,uagizaji,d,NA,NA,NA,NA,sd,NA,4,NA,NA,NA,NA,NA,NA,NA,NA,NA,NA,NA,NA,NA,NA,NA,NA,NA,NA,NA
ab317,Deep Question,html.Page,3_0_4_0_7_0_0,NA,NA,form submission,9331.4629999761,914513.89999998,914507.207,914523.937,923855.39999998,923855.60000002,2023-10-25T12:34:12Z,923868.132,NULL,Hoffnung,matarajio,d,NA,NA,NA,matarijani,NA,NA,4,NA,NA,NA,NA,NA,NA,NA,NA,NA,NA,NA,NA,NA,NA,NA,NA,NA,NA,NA
ab317,"""Richtig""-Screen",canvas.Screen,3_0_4_0_7_0_1,NA,NA,skipped,NA,923858.60000002,NA,NA,923855.39999998,923858.79999995,2023-10-25T12:34:12Z,923868.132,NULL,Hoffnung,matarajio,d,NA,NA,NA,NA,sd,NA,4,NA,NA,NA,NA,NA,NA,NA,NA,NA,NA,NA,NA,NA,NA,NA,NA,NA,NA,NA
ab317,"""Falsch""-Screen",canvas.Screen,3_0_4_0_7_0_2,NA,NA,timeout,4997.072,923859.70000005,923851.567,923868.132,928848.279,928849.70000005,2023-10-25T12:34:17Z,928865.204,NULL,Hoffnung,matarajio,d,NA,NA,NA,NA,sd,0,4,NA,NA,NA,NA,NA,NA,NA,NA,NA,NA,NA,NA,NA,NA,NA,NA,NA,NA,NA
ab317,deep,flow.Sequence,3_0_4_0_7_0,NA,NA,completion,14324.342,914513.89999998,914507.207,914523.937,928848.279,928850.20000005,2023-10-25T12:34:17Z,928865.204,NULL,Hoffnung,matarajio,d,NA,NA,NA,NA,sd,NA,4,NA,NA,NA,NA,NA,NA,NA,NA,NA,NA,NA,NA,NA,NA,NA,NA,NA,NA,NA
ab317,shallow,flow.Sequence,3_0_4_0_7_1,NA,NA,skipped,NA,928850.5,NA,NA,928848.279,928850.70000005,2023-10-25T12:34:17Z,928865.204,NULL,Hoffnung,matarajio,d,NA,NA,NA,NA,sd,NA,4,NA,NA,NA,NA,NA,NA,NA,NA,NA,NA,NA,NA,NA,NA,NA,NA,NA,NA,NA
ab317,task,flow.Sequence,3_0_4_0_7,NA,NA,completion,14324.342,914513.89999998,914507.207,914523.937,928848.279,928850.89999998,2023-10-25T12:34:17Z,928865.204,NULL,Hoffnung,matarajio,d,NA,NA,NA,NA,sd,NA,4,NA,NA,NA,NA,NA,NA,NA,NA,NA,NA,NA,NA,NA,NA,NA,NA,NA,NA,NA
ab317,block,flow.Loop,3_0_4_0,NA,NA,completion,121392.614,807461.10000002,807439.565,807455.665,928848.279,928851.10000002,2023-10-25T12:34:17Z,928865.204,NULL,NA,NA,NA,NA,NA,NA,NA,sd,NA,4,NA,NA,NA,NA,NA,NA,NA,NA,NA,NA,NA,NA,NA,NA,NA,NA,NA,NA,NA
ab317,weiter,canvas.Screen,3_0_4_1,sdf,keypress(Space),response,9872.796,928851.29999995,928848.279,928865.204,938738,938739.20000005,2023-10-25T12:34:27Z,938758.804,NULL,NA,NA,NA,NA,NA,NA,NA,sd,NA,4,NA,NA,NA,NA,NA,NA,NA,NA,NA,NA,NA,NA,NA,NA,NA,NA,NA,NA,NA
ab317,check continue,flow.Sequence,3_0_4,NA,NA,completion,131282.335,807461.10000002,807439.565,807455.665,938738,938739.60000002,2023-10-25T12:34:27Z,938758.804,NULL,NA,NA,NA,NA,NA,NA,NA,sd,NA,4,NA,NA,NA,NA,NA,NA,NA,NA,NA,NA,NA,NA,NA,NA,NA,NA,NA,NA,NA
ab317,Deep Question,html.Page,3_0_5_0_0_0_0,NA,NA,form submission,8875.0959999762,938760.60000002,938742.156,938758.804,947633.89999998,947634.20000005,2023-10-25T12:34:36Z,947636.706,NULL,Auftrag,uagizaji,d,NA,NA,NA,uagizaji,NA,NA,5,NA,NA,NA,NA,NA,NA,NA,NA,NA,NA,NA,NA,NA,NA,NA,NA,NA,NA,NA
ab317,"""Richtig""-Screen",canvas.Screen,3_0_5_0_0_0_1,NA,NA,timeout,4997.029,947636.20000005,947620.357,947636.706,952617.344,952618.70000005,2023-10-25T12:34:41Z,952633.735,NULL,Auftrag,uagizaji,d,NA,NA,NA,NA,sdf,1,5,NA,NA,NA,NA,NA,NA,NA,NA,NA,NA,NA,NA,NA,NA,NA,NA,NA,NA,NA
ab317,"""Falsch""-Screen",canvas.Screen,3_0_5_0_0_0_2,NA,NA,skipped,NA,952624.10000002,NA,NA,952617.344,952624.29999995,2023-10-25T12:34:41Z,952633.735,NULL,Auftrag,uagizaji,d,NA,NA,NA,NA,sdf,NA,5,NA,NA,NA,NA,NA,NA,NA,NA,NA,NA,NA,NA,NA,NA,NA,NA,NA,NA,NA
ab317,deep,flow.Sequence,3_0_5_0_0_0,NA,NA,completion,13858.54,938760.60000002,938742.156,938758.804,952617.344,952624.60000002,2023-10-25T12:34:41Z,952633.735,NULL,Auftrag,uagizaji,d,NA,NA,NA,NA,sdf,NA,5,NA,NA,NA,NA,NA,NA,NA,NA,NA,NA,NA,NA,NA,NA,NA,NA,NA,NA,NA
ab317,shallow,flow.Sequence,3_0_5_0_0_1,NA,NA,skipped,NA,952624.79999995,NA,NA,952617.344,952624.79999995,2023-10-25T12:34:41Z,952633.735,NULL,Auftrag,uagizaji,d,NA,NA,NA,NA,sdf,NA,5,NA,NA,NA,NA,NA,NA,NA,NA,NA,NA,NA,NA,NA,NA,NA,NA,NA,NA,NA
ab317,task,flow.Sequence,3_0_5_0_0,NA,NA,completion,13858.54,938760.60000002,938742.156,938758.804,952617.344,952625.10000002,2023-10-25T12:34:41Z,952633.735,NULL,Auftrag,uagizaji,d,NA,NA,NA,NA,sdf,NA,5,NA,NA,NA,NA,NA,NA,NA,NA,NA,NA,NA,NA,NA,NA,NA,NA,NA,NA,NA
ab317,deep,flow.Sequence,3_0_5_0_1_0,NA,NA,skipped,NA,952625.20000005,NA,NA,952617.344,952625.29999995,2023-10-25T12:34:41Z,952633.735,NULL,Theorie,nadharia,s,ushungi,mkutano,uwakilishi,NA,sdf,NA,5,NA,NA,NA,NA,NA,NA,NA,NA,NA,NA,NA,NA,NA,NA,NA,NA,NA,NA,NA
ab317,Shallow Question,html.Page,3_0_5_0_1_1_0,NA,NA,form submission,3450.1649999762,952625.5,952617.344,952633.735,956083.89999998,956084.10000002,2023-10-25T12:34:45Z,956098.776,NULL,Theorie,nadharia,s,ushungi,mkutano,uwakilishi,nadharia,NA,NA,5,NA,NA,NA,NA,NA,NA,NA,NA,NA,NA,NA,NA,NA,NA,NA,NA,NA,NA,NA
ab317,"""Richtig""-Screen",canvas.Screen,3_0_5_0_1_1_1,NA,NA,timeout,4996.4670000001,956087,956082.266,956098.776,961078.663,961080.10000002,2023-10-25T12:34:50Z,961095.243,NULL,Theorie,nadharia,s,ushungi,mkutano,uwakilishi,NA,sdf,1,5,NA,NA,NA,NA,NA,NA,NA,NA,NA,NA,NA,NA,NA,NA,NA,NA,NA,NA,NA
ab317,"""Falsch""-Screen",canvas.Screen,3_0_5_0_1_1_2,NA,NA,skipped,NA,961085.79999995,NA,NA,961078.663,961086.10000002,2023-10-25T12:34:50Z,961095.243,NULL,Theorie,nadharia,s,ushungi,mkutano,uwakilishi,NA,sdf,NA,5,NA,NA,NA,NA,NA,NA,NA,NA,NA,NA,NA,NA,NA,NA,NA,NA,NA,NA,NA
ab317,shallow,flow.Sequence,3_0_5_0_1_1,NA,NA,completion,8444.928,952625.39999998,952617.344,952633.735,961078.663,961086.39999998,2023-10-25T12:34:50Z,961095.243,NULL,Theorie,nadharia,s,ushungi,mkutano,uwakilishi,NA,sdf,NA,5,NA,NA,NA,NA,NA,NA,NA,NA,NA,NA,NA,NA,NA,NA,NA,NA,NA,NA,NA
ab317,task,flow.Sequence,3_0_5_0_1,NA,NA,completion,8444.928,952625.20000005,952617.344,952633.735,961078.663,961086.60000002,2023-10-25T12:34:50Z,961095.243,NULL,Theorie,nadharia,s,ushungi,mkutano,uwakilishi,NA,sdf,NA,5,NA,NA,NA,NA,NA,NA,NA,NA,NA,NA,NA,NA,NA,NA,NA,NA,NA,NA,NA
ab317,Deep Question,html.Page,3_0_5_0_2_0_0,NA,NA,form submission,9524.3570000238,961086.89999998,961078.663,961095.243,970619.60000002,970619.89999998,2023-10-25T12:34:59Z,970622.653,NULL,Hoffnung,matarajio,d,NA,NA,NA,matarjio,NA,NA,5,NA,NA,NA,NA,NA,NA,NA,NA,NA,NA,NA,NA,NA,NA,NA,NA,NA,NA,NA
ab317,"""Richtig""-Screen",canvas.Screen,3_0_5_0_2_0_1,NA,NA,skipped,NA,970623,NA,NA,970619.60000002,970623.20000005,2023-10-25T12:34:59Z,970622.653,NULL,Hoffnung,matarajio,d,NA,NA,NA,NA,sdf,NA,5,NA,NA,NA,NA,NA,NA,NA,NA,NA,NA,NA,NA,NA,NA,NA,NA,NA,NA,NA
ab317,"""Falsch""-Screen",canvas.Screen,3_0_5_0_2_0_2,NA,NA,timeout,4997.071,970624,970606.115,970622.653,975603.041,975604.20000005,2023-10-25T12:35:04Z,975619.724,NULL,Hoffnung,matarajio,d,NA,NA,NA,NA,sdf,0,5,NA,NA,NA,NA,NA,NA,NA,NA,NA,NA,NA,NA,NA,NA,NA,NA,NA,NA,NA
ab317,deep,flow.Sequence,3_0_5_0_2_0,NA,NA,completion,14507.798,961086.89999998,961078.663,961095.243,975603.041,975604.5,2023-10-25T12:35:04Z,975619.724,NULL,Hoffnung,matarajio,d,NA,NA,NA,NA,sdf,NA,5,NA,NA,NA,NA,NA,NA,NA,NA,NA,NA,NA,NA,NA,NA,NA,NA,NA,NA,NA
ab317,shallow,flow.Sequence,3_0_5_0_2_1,NA,NA,skipped,NA,975604.60000002,NA,NA,975603.041,975604.79999995,2023-10-25T12:35:04Z,975619.724,NULL,Hoffnung,matarajio,d,NA,NA,NA,NA,sdf,NA,5,NA,NA,NA,NA,NA,NA,NA,NA,NA,NA,NA,NA,NA,NA,NA,NA,NA,NA,NA
ab317,task,flow.Sequence,3_0_5_0_2,NA,NA,completion,14507.798,961086.79999995,961078.663,961095.243,975603.041,975604.89999998,2023-10-25T12:35:04Z,975619.724,NULL,Hoffnung,matarajio,d,NA,NA,NA,NA,sdf,NA,5,NA,NA,NA,NA,NA,NA,NA,NA,NA,NA,NA,NA,NA,NA,NA,NA,NA,NA,NA
ab317,Deep Question,html.Page,3_0_5_0_3_0_0,NA,NA,form submission,9820.0759999523,975605.20000005,975603.041,975619.724,985439.79999995,985440,2023-10-25T12:35:14Z,985446.976,NULL,Wettbewerb,ushindani,d,NA,NA,NA,ushandani,NA,NA,5,NA,NA,NA,NA,NA,NA,NA,NA,NA,NA,NA,NA,NA,NA,NA,NA,NA,NA,NA
ab317,"""Richtig""-Screen",canvas.Screen,3_0_5_0_3_0_1,NA,NA,skipped,NA,985443.20000005,NA,NA,985439.79999995,985443.29999995,2023-10-25T12:35:14Z,985446.976,NULL,Wettbewerb,ushindani,d,NA,NA,NA,NA,sdf,NA,5,NA,NA,NA,NA,NA,NA,NA,NA,NA,NA,NA,NA,NA,NA,NA,NA,NA,NA,NA
ab317,"""Falsch""-Screen",canvas.Screen,3_0_5_0_3_0_2,NA,NA,timeout,4997.3169999999,985444.29999995,985430.709,985446.976,990427.425,990428.39999998,2023-10-25T12:35:19Z,990444.293,NULL,Wettbewerb,ushindani,d,NA,NA,NA,NA,sdf,0,5,NA,NA,NA,NA,NA,NA,NA,NA,NA,NA,NA,NA,NA,NA,NA,NA,NA,NA,NA
ab317,deep,flow.Sequence,3_0_5_0_3_0,NA,NA,completion,14807.701,975605.20000005,975603.041,975619.724,990427.425,990428.89999998,2023-10-25T12:35:19Z,990444.293,NULL,Wettbewerb,ushindani,d,NA,NA,NA,NA,sdf,NA,5,NA,NA,NA,NA,NA,NA,NA,NA,NA,NA,NA,NA,NA,NA,NA,NA,NA,NA,NA
ab317,shallow,flow.Sequence,3_0_5_0_3_1,NA,NA,skipped,NA,990429,NA,NA,990427.425,990429.10000002,2023-10-25T12:35:19Z,990444.293,NULL,Wettbewerb,ushindani,d,NA,NA,NA,NA,sdf,NA,5,NA,NA,NA,NA,NA,NA,NA,NA,NA,NA,NA,NA,NA,NA,NA,NA,NA,NA,NA
ab317,task,flow.Sequence,3_0_5_0_3,NA,NA,completion,14807.701,975605.10000002,975603.041,975619.724,990427.425,990429.29999995,2023-10-25T12:35:19Z,990444.293,NULL,Wettbewerb,ushindani,d,NA,NA,NA,NA,sdf,NA,5,NA,NA,NA,NA,NA,NA,NA,NA,NA,NA,NA,NA,NA,NA,NA,NA,NA,NA,NA
ab317,deep,flow.Sequence,3_0_5_0_4_0,NA,NA,skipped,NA,990429.60000002,NA,NA,990427.425,990429.60000002,2023-10-25T12:35:19Z,990444.293,NULL,Schönheit,kirembo,s,mahojiano,msisimko,jitihadi,NA,sdf,NA,5,NA,NA,NA,NA,NA,NA,NA,NA,NA,NA,NA,NA,NA,NA,NA,NA,NA,NA,NA
ab317,Shallow Question,html.Page,3_0_5_0_4_1_0,NA,NA,form submission,3039.5069999524,990429.79999995,990427.425,990444.293,993483.79999995,993484,2023-10-25T12:35:22Z,993492.243,NULL,Schönheit,kirembo,s,mahojiano,msisimko,jitihadi,kirembo,NA,NA,5,NA,NA,NA,NA,NA,NA,NA,NA,NA,NA,NA,NA,NA,NA,NA,NA,NA,NA,NA
ab317,"""Richtig""-Screen",canvas.Screen,3_0_5_0_4_1_1,NA,NA,timeout,4997.28,993487.10000002,993475.52,993492.243,998472.74,998473.89999998,2023-10-25T12:35:27Z,998489.523,NULL,Schönheit,kirembo,s,mahojiano,msisimko,jitihadi,NA,sdf,1,5,NA,NA,NA,NA,NA,NA,NA,NA,NA,NA,NA,NA,NA,NA,NA,NA,NA,NA,NA
ab317,"""Falsch""-Screen",canvas.Screen,3_0_5_0_4_1_2,NA,NA,skipped,NA,998478.79999995,NA,NA,998472.74,998478.89999998,2023-10-25T12:35:27Z,998489.523,NULL,Schönheit,kirembo,s,mahojiano,msisimko,jitihadi,NA,sdf,NA,5,NA,NA,NA,NA,NA,NA,NA,NA,NA,NA,NA,NA,NA,NA,NA,NA,NA,NA,NA
ab317,shallow,flow.Sequence,3_0_5_0_4_1,NA,NA,completion,8028.447,990429.79999995,990427.425,990444.293,998472.74,998479,2023-10-25T12:35:27Z,998489.523,NULL,Schönheit,kirembo,s,mahojiano,msisimko,jitihadi,NA,sdf,NA,5,NA,NA,NA,NA,NA,NA,NA,NA,NA,NA,NA,NA,NA,NA,NA,NA,NA,NA,NA
ab317,task,flow.Sequence,3_0_5_0_4,NA,NA,completion,8028.447,990429.5,990427.425,990444.293,998472.74,998479.10000002,2023-10-25T12:35:27Z,998489.523,NULL,Schönheit,kirembo,s,mahojiano,msisimko,jitihadi,NA,sdf,NA,5,NA,NA,NA,NA,NA,NA,NA,NA,NA,NA,NA,NA,NA,NA,NA,NA,NA,NA,NA
ab317,deep,flow.Sequence,3_0_5_0_5_0,NA,NA,skipped,NA,998479.20000005,NA,NA,998472.74,998479.20000005,2023-10-25T12:35:27Z,998489.523,NULL,Schock,mshtuko,s,biashara,kukataza,vichekesho,NA,sdf,NA,5,NA,NA,NA,NA,NA,NA,NA,NA,NA,NA,NA,NA,NA,NA,NA,NA,NA,NA,NA
ab317,Shallow Question,html.Page,3_0_5_0_5_1_0,NA,NA,form submission,3974.3769999761,998479.29999995,998472.74,998489.523,1002463.9,1002464.1,2023-10-25T12:35:31Z,1002469.866,NULL,Schock,mshtuko,s,biashara,kukataza,vichekesho,mshtuko,NA,NA,5,NA,NA,NA,NA,NA,NA,NA,NA,NA,NA,NA,NA,NA,NA,NA,NA,NA,NA,NA
ab317,"""Richtig""-Screen",canvas.Screen,3_0_5_0_5_1_1,NA,NA,timeout,4997.402,1002467.1,1002453.429,1002469.866,1007450.462,1007451.5,2023-10-25T12:35:36Z,1007467.268,NULL,Schock,mshtuko,s,biashara,kukataza,vichekesho,NA,sdf,1,5,NA,NA,NA,NA,NA,NA,NA,NA,NA,NA,NA,NA,NA,NA,NA,NA,NA,NA,NA
ab317,"""Falsch""-Screen",canvas.Screen,3_0_5_0_5_1_2,NA,NA,skipped,NA,1007456.3,NA,NA,1007450.462,1007456.5,2023-10-25T12:35:36Z,1007467.268,NULL,Schock,mshtuko,s,biashara,kukataza,vichekesho,NA,sdf,NA,5,NA,NA,NA,NA,NA,NA,NA,NA,NA,NA,NA,NA,NA,NA,NA,NA,NA,NA,NA
ab317,shallow,flow.Sequence,3_0_5_0_5_1,NA,NA,completion,8960.939,998479.20000005,998472.74,998489.523,1007450.462,1007456.8,2023-10-25T12:35:36Z,1007467.268,NULL,Schock,mshtuko,s,biashara,kukataza,vichekesho,NA,sdf,NA,5,NA,NA,NA,NA,NA,NA,NA,NA,NA,NA,NA,NA,NA,NA,NA,NA,NA,NA,NA
ab317,task,flow.Sequence,3_0_5_0_5,NA,NA,completion,8960.939,998479.10000002,998472.74,998489.523,1007450.462,1007456.9,2023-10-25T12:35:36Z,1007467.268,NULL,Schock,mshtuko,s,biashara,kukataza,vichekesho,NA,sdf,NA,5,NA,NA,NA,NA,NA,NA,NA,NA,NA,NA,NA,NA,NA,NA,NA,NA,NA,NA,NA
ab317,deep,flow.Sequence,3_0_5_0_6_0,NA,NA,skipped,NA,1007456.9,NA,NA,1007450.462,1007457,2023-10-25T12:35:36Z,1007467.268,NULL,Zufall,kikuti,s,kukosekana,uchoraji,leseni,NA,sdf,NA,5,NA,NA,NA,NA,NA,NA,NA,NA,NA,NA,NA,NA,NA,NA,NA,NA,NA,NA,NA
ab317,Shallow Question,html.Page,3_0_5_0_6_1_0,NA,NA,form submission,2532.1319999761,1007457,1007450.462,1007467.268,1009999.4,1009999.6,2023-10-25T12:35:39Z,1010015.925,NULL,Zufall,kikuti,s,kukosekana,uchoraji,leseni,kikuti,NA,NA,5,NA,NA,NA,NA,NA,NA,NA,NA,NA,NA,NA,NA,NA,NA,NA,NA,NA,NA,NA
ab317,"""Richtig""-Screen",canvas.Screen,3_0_5_0_6_1_1,NA,NA,timeout,4996.8199999999,1010002.6,1009982.44,1010015.925,1014995.859,1014997,2023-10-25T12:35:44Z,1015012.745,NULL,Zufall,kikuti,s,kukosekana,uchoraji,leseni,NA,sdf,1,5,NA,NA,NA,NA,NA,NA,NA,NA,NA,NA,NA,NA,NA,NA,NA,NA,NA,NA,NA
ab317,"""Falsch""-Screen",canvas.Screen,3_0_5_0_6_1_2,NA,NA,skipped,NA,1015001.8,NA,NA,1014995.859,1015002,2023-10-25T12:35:44Z,1015012.745,NULL,Zufall,kikuti,s,kukosekana,uchoraji,leseni,NA,sdf,NA,5,NA,NA,NA,NA,NA,NA,NA,NA,NA,NA,NA,NA,NA,NA,NA,NA,NA,NA,NA
ab317,shallow,flow.Sequence,3_0_5_0_6_1,NA,NA,completion,7528.591,1007457,1007450.462,1007467.268,1014995.859,1015002.1,2023-10-25T12:35:44Z,1015012.745,NULL,Zufall,kikuti,s,kukosekana,uchoraji,leseni,NA,sdf,NA,5,NA,NA,NA,NA,NA,NA,NA,NA,NA,NA,NA,NA,NA,NA,NA,NA,NA,NA,NA
ab317,task,flow.Sequence,3_0_5_0_6,NA,NA,completion,7528.591,1007456.9,1007450.462,1007467.268,1014995.859,1015002.1,2023-10-25T12:35:44Z,1015012.745,NULL,Zufall,kikuti,s,kukosekana,uchoraji,leseni,NA,sdf,NA,5,NA,NA,NA,NA,NA,NA,NA,NA,NA,NA,NA,NA,NA,NA,NA,NA,NA,NA,NA
ab317,Deep Question,html.Page,3_0_5_0_7_0_0,NA,NA,form submission,10612.755,1015002.2,1014995.859,1015012.745,1025625.5,1025625.7,2023-10-25T12:35:54Z,1025639.571,NULL,Verpackung,ufungaji,d,NA,NA,NA,uussu,NA,NA,5,NA,NA,NA,NA,NA,NA,NA,NA,NA,NA,NA,NA,NA,NA,NA,NA,NA,NA,NA
ab317,"""Richtig""-Screen",canvas.Screen,3_0_5_0_7_0_1,NA,NA,skipped,NA,1025628.9,NA,NA,1025625.5,1025629,2023-10-25T12:35:54Z,1025639.571,NULL,Verpackung,ufungaji,d,NA,NA,NA,NA,sdf,NA,5,NA,NA,NA,NA,NA,NA,NA,NA,NA,NA,NA,NA,NA,NA,NA,NA,NA,NA,NA
ab317,"""Falsch""-Screen",canvas.Screen,3_0_5_0_7_0_2,NA,NA,timeout,4996.85,1025629.4,1025622.893,1025639.571,1030619.484,1030620.8,2023-10-25T12:35:59Z,1030636.421,NULL,Verpackung,ufungaji,d,NA,NA,NA,NA,sdf,0,5,NA,NA,NA,NA,NA,NA,NA,NA,NA,NA,NA,NA,NA,NA,NA,NA,NA,NA,NA
ab317,deep,flow.Sequence,3_0_5_0_7_0,NA,NA,completion,15606.739,1015002.2,1014995.859,1015012.745,1030619.484,1030621.3,2023-10-25T12:35:59Z,1030636.421,NULL,Verpackung,ufungaji,d,NA,NA,NA,NA,sdf,NA,5,NA,NA,NA,NA,NA,NA,NA,NA,NA,NA,NA,NA,NA,NA,NA,NA,NA,NA,NA
ab317,shallow,flow.Sequence,3_0_5_0_7_1,NA,NA,skipped,NA,1030621.5,NA,NA,1030619.484,1030621.6,2023-10-25T12:35:59Z,1030636.421,NULL,Verpackung,ufungaji,d,NA,NA,NA,NA,sdf,NA,5,NA,NA,NA,NA,NA,NA,NA,NA,NA,NA,NA,NA,NA,NA,NA,NA,NA,NA,NA
ab317,task,flow.Sequence,3_0_5_0_7,NA,NA,completion,15606.739,1015002.2,1014995.859,1015012.745,1030619.484,1030621.9,2023-10-25T12:35:59Z,1030636.421,NULL,Verpackung,ufungaji,d,NA,NA,NA,NA,sdf,NA,5,NA,NA,NA,NA,NA,NA,NA,NA,NA,NA,NA,NA,NA,NA,NA,NA,NA,NA,NA
ab317,block,flow.Loop,3_0_5_0,NA,NA,completion,91860.68,938760.60000002,938742.156,938758.804,1030619.484,1030622.2,2023-10-25T12:35:59Z,1030636.421,NULL,NA,NA,NA,NA,NA,NA,NA,sdf,NA,5,NA,NA,NA,NA,NA,NA,NA,NA,NA,NA,NA,NA,NA,NA,NA,NA,NA,NA,NA
ab317,weiter,canvas.Screen,3_0_5_1,sdf,keypress(Space),response,981.37899995234,1030622.3,1030619.484,1030636.421,1031617.8,1031618.8,2023-10-25T12:36:00Z,1031652.095,NULL,NA,NA,NA,NA,NA,NA,NA,sdf,NA,5,NA,NA,NA,NA,NA,NA,NA,NA,NA,NA,NA,NA,NA,NA,NA,NA,NA,NA,NA
ab317,check continue,flow.Sequence,3_0_5,NA,NA,completion,92858.995999952,938760.60000002,938742.156,938758.804,1031617.8,1031619.1,2023-10-25T12:36:00Z,1031652.095,NULL,NA,NA,NA,NA,NA,NA,NA,sdf,NA,5,NA,NA,NA,NA,NA,NA,NA,NA,NA,NA,NA,NA,NA,NA,NA,NA,NA,NA,NA
ab317,Deep Question,html.Page,3_0_6_0_0_0_0,NA,NA,form submission,6035.8049999762,1031657.6,1031602.619,1031652.095,1037687.9,1037688.1,2023-10-25T12:36:06Z,1037698.426,NULL,Auftrag,uagizaji,d,NA,NA,NA,uagizaji,NA,NA,6,NA,NA,NA,NA,NA,NA,NA,NA,NA,NA,NA,NA,NA,NA,NA,NA,NA,NA,NA
ab317,"""Richtig""-Screen",canvas.Screen,3_0_6_0_0_0_1,NA,NA,timeout,4996.862,1037691.2,1037684.485,1037698.426,1042678.653,1042680,2023-10-25T12:36:11Z,1042695.288,NULL,Auftrag,uagizaji,d,NA,NA,NA,NA,dfs,1,6,NA,NA,NA,NA,NA,NA,NA,NA,NA,NA,NA,NA,NA,NA,NA,NA,NA,NA,NA
ab317,"""Falsch""-Screen",canvas.Screen,3_0_6_0_0_0_2,NA,NA,skipped,NA,1042682,NA,NA,1042678.653,1042682.2,2023-10-25T12:36:11Z,1042695.288,NULL,Auftrag,uagizaji,d,NA,NA,NA,NA,dfs,NA,6,NA,NA,NA,NA,NA,NA,NA,NA,NA,NA,NA,NA,NA,NA,NA,NA,NA,NA,NA
ab317,deep,flow.Sequence,3_0_6_0_0_0,NA,NA,completion,11026.558,1031657.5,1031602.619,1031652.095,1042678.653,1042682.3,2023-10-25T12:36:11Z,1042695.288,NULL,Auftrag,uagizaji,d,NA,NA,NA,NA,dfs,NA,6,NA,NA,NA,NA,NA,NA,NA,NA,NA,NA,NA,NA,NA,NA,NA,NA,NA,NA,NA
ab317,shallow,flow.Sequence,3_0_6_0_0_1,NA,NA,skipped,NA,1042682.3,NA,NA,1042678.653,1042682.4,2023-10-25T12:36:11Z,1042695.288,NULL,Auftrag,uagizaji,d,NA,NA,NA,NA,dfs,NA,6,NA,NA,NA,NA,NA,NA,NA,NA,NA,NA,NA,NA,NA,NA,NA,NA,NA,NA,NA
ab317,task,flow.Sequence,3_0_6_0_0,NA,NA,completion,11026.558,1031657.5,1031602.619,1031652.095,1042678.653,1042682.5,2023-10-25T12:36:11Z,1042695.288,NULL,Auftrag,uagizaji,d,NA,NA,NA,NA,dfs,NA,6,NA,NA,NA,NA,NA,NA,NA,NA,NA,NA,NA,NA,NA,NA,NA,NA,NA,NA,NA
ab317,Deep Question,html.Page,3_0_6_0_1_0_0,NA,NA,form submission,7912.7120000001,1042682.5,1042678.653,1042695.288,1050608,1050608.2,2023-10-25T12:36:19Z,1050624.402,NULL,Verpackung,ufungaji,d,NA,NA,NA,ufungaji,NA,NA,6,NA,NA,NA,NA,NA,NA,NA,NA,NA,NA,NA,NA,NA,NA,NA,NA,NA,NA,NA
ab317,"""Richtig""-Screen",canvas.Screen,3_0_6_0_1_0_1,NA,NA,timeout,4996.852,1050612.6,1050591.069,1050624.402,1055604.216,1055605.3,2023-10-25T12:36:24Z,1055621.254,NULL,Verpackung,ufungaji,d,NA,NA,NA,NA,dfs,1,6,NA,NA,NA,NA,NA,NA,NA,NA,NA,NA,NA,NA,NA,NA,NA,NA,NA,NA,NA
ab317,"""Falsch""-Screen",canvas.Screen,3_0_6_0_1_0_2,NA,NA,skipped,NA,1055610,NA,NA,1055604.216,1055610.1,2023-10-25T12:36:24Z,1055621.254,NULL,Verpackung,ufungaji,d,NA,NA,NA,NA,dfs,NA,6,NA,NA,NA,NA,NA,NA,NA,NA,NA,NA,NA,NA,NA,NA,NA,NA,NA,NA,NA
ab317,deep,flow.Sequence,3_0_6_0_1_0,NA,NA,completion,12908.928,1042682.5,1042678.653,1042695.288,1055604.216,1055610.2,2023-10-25T12:36:24Z,1055621.254,NULL,Verpackung,ufungaji,d,NA,NA,NA,NA,dfs,NA,6,NA,NA,NA,NA,NA,NA,NA,NA,NA,NA,NA,NA,NA,NA,NA,NA,NA,NA,NA
ab317,shallow,flow.Sequence,3_0_6_0_1_1,NA,NA,skipped,NA,1055610.2,NA,NA,1055604.216,1055610.2,2023-10-25T12:36:24Z,1055621.254,NULL,Verpackung,ufungaji,d,NA,NA,NA,NA,dfs,NA,6,NA,NA,NA,NA,NA,NA,NA,NA,NA,NA,NA,NA,NA,NA,NA,NA,NA,NA,NA
ab317,task,flow.Sequence,3_0_6_0_1,NA,NA,completion,12908.928,1042682.5,1042678.653,1042695.288,1055604.216,1055610.3,2023-10-25T12:36:24Z,1055621.254,NULL,Verpackung,ufungaji,d,NA,NA,NA,NA,dfs,NA,6,NA,NA,NA,NA,NA,NA,NA,NA,NA,NA,NA,NA,NA,NA,NA,NA,NA,NA,NA
ab317,deep,flow.Sequence,3_0_6_0_2_0,NA,NA,skipped,NA,1055610.4,NA,NA,1055604.216,1055610.4,2023-10-25T12:36:24Z,1055621.254,NULL,Theorie,nadharia,s,ushungi,mkutano,uwakilishi,NA,dfs,NA,6,NA,NA,NA,NA,NA,NA,NA,NA,NA,NA,NA,NA,NA,NA,NA,NA,NA,NA,NA
ab317,Shallow Question,html.Page,3_0_6_0_2_1_0,NA,NA,form submission,3192.246,1055610.4,1055604.216,1055621.254,1058813.5,1058813.8,2023-10-25T12:36:27Z,1058818.836,NULL,Theorie,nadharia,s,ushungi,mkutano,uwakilishi,nadharia,NA,NA,6,NA,NA,NA,NA,NA,NA,NA,NA,NA,NA,NA,NA,NA,NA,NA,NA,NA,NA,NA
