observation,sender,sender_type,sender_id,response,response_action,ended_on,duration,time_run,time_render,time_show,time_end,time_commit,timestamp,time_switch,distractors,german,swahili,enc,distractor1,distractor2,distractor3,response_2,x,correct,x_2,url_vp,url_sess,meta_labjs_version,meta_location,meta_user_agent,meta_platform,meta_language,meta_locale,meta_time_zone,meta_timezone_offset,meta_screen_width,meta_screen_height,meta_scroll_width,meta_scroll_height,meta_window_inner_width,meta_window_inner_height,meta_device_pixel_ratio,meta_labjs_build_flavor,meta_labjs_build_commit
1d6ae,Introduction general,canvas.Screen,0,weiter,keypress(q),response,97744.844,1096.2999999998,1028.762,1128.756,98873.6,98877.5,2023-04-10T07:36:29Z,98879.045,NULL,NA,NA,NA,NA,NA,NA,NA,NA,NA,NA,204,3,20.2.4,https://neurocog.fernuni.ch/studies/vweber/sfink/encoding_immediate/index.html?vp=204&sess=3,"Mozilla/5.0 (Windows NT 10.0; Win64; x64) AppleWebKit/537.36 (KHTML, like Gecko) Chrome/112.0.0.0 Safari/537.36 Edg/112.0.1722.34",Win32,de,de-CH,Europe/Zurich,-120,1536,864,1479,666,1479,714,1.25,production,f5b4a49f956347addd546a832a3327688c2c0fef
1d6ae,Introduction practice,canvas.Screen,1_0,NA,keypress(Space),response,16588.355,98877.7,98874.158,98879.045,115467.4,115468.8,2023-04-10T07:36:46Z,115490.323,NULL,NA,NA,NA,NA,NA,NA,NA,NA,NA,NA,NA,NA,NA,NA,NA,NA,NA,NA,NA,NA,NA,NA,NA,NA,NA,NA,NA,NA,NA
1d6ae,deep,flow.Sequence,1_1_0_0,NA,NA,skipped,NA,115469.3,NA,NA,115467.4,115472.8,2023-04-10T07:36:46Z,115490.323,"c(""distractor1"", ""distractor2"", ""distractor3"")",Gegenwart,hadhara,s,katiba,jokofu,mikopo,NA,NA,NA,NA,NA,NA,NA,NA,NA,NA,NA,NA,NA,NA,NA,NA,NA,NA,NA,NA,NA,NA,NA
1d6ae,Shallow Question,html.Page,1_1_0_1_0,NA,NA,form submission,6708.177,115473,115457.901,115490.323,122198.5,122198.7,2023-04-10T07:36:53Z,122204.543,"c(""distractor1"", ""distractor2"", ""distractor3"")",Gegenwart,hadhara,s,katiba,jokofu,mikopo,hadhara,NA,NA,NA,NA,NA,NA,NA,NA,NA,NA,NA,NA,NA,NA,NA,NA,NA,NA,NA,NA,NA,NA
1d6ae,"""Richtig""-Screen",canvas.Screen,1_1_0_1_1,NA,NA,timeout,4998.403,122199.9,122187.883,122204.543,127186.432,127190,2023-04-10T07:36:58Z,127202.946,"c(""distractor1"", ""distractor2"", ""distractor3"")",Gegenwart,hadhara,s,katiba,jokofu,mikopo,NA,NA,1,NA,NA,NA,NA,NA,NA,NA,NA,NA,NA,NA,NA,NA,NA,NA,NA,NA,NA,NA,NA
1d6ae,"""Falsch""-Screen",canvas.Screen,1_1_0_1_2,NA,NA,skipped,NA,127192.5,NA,NA,127186.432,127192.8,2023-04-10T07:36:58Z,127202.946,"c(""distractor1"", ""distractor2"", ""distractor3"")",Gegenwart,hadhara,s,katiba,jokofu,mikopo,NA,NA,NA,NA,NA,NA,NA,NA,NA,NA,NA,NA,NA,NA,NA,NA,NA,NA,NA,NA,NA,NA,NA
1d6ae,shallow,flow.Sequence,1_1_0_1,NA,NA,completion,11696.109,115473,115457.901,115490.323,127186.432,127193.2,2023-04-10T07:36:58Z,127202.946,"c(""distractor1"", ""distractor2"", ""distractor3"")",Gegenwart,hadhara,s,katiba,jokofu,mikopo,NA,NA,NA,NA,NA,NA,NA,NA,NA,NA,NA,NA,NA,NA,NA,NA,NA,NA,NA,NA,NA,NA,NA
1d6ae,task,flow.Sequence,1_1_0,NA,NA,completion,11696.109,115469.2,115457.901,115490.323,127186.432,127193.3,2023-04-10T07:36:58Z,127202.946,"c(""distractor1"", ""distractor2"", ""distractor3"")",Gegenwart,hadhara,s,katiba,jokofu,mikopo,NA,NA,NA,NA,NA,NA,NA,NA,NA,NA,NA,NA,NA,NA,NA,NA,NA,NA,NA,NA,NA,NA,NA
1d6ae,deep,flow.Sequence,1_1_1_0,NA,NA,skipped,NA,127193.5,NA,NA,127186.432,127193.7,2023-04-10T07:36:58Z,127202.946,"c(""distractor1"", ""distractor2"", ""distractor3"")",Kritik,lawama,s,dereva,nafasi,mawazo,NA,NA,NA,NA,NA,NA,NA,NA,NA,NA,NA,NA,NA,NA,NA,NA,NA,NA,NA,NA,NA,NA,NA
1d6ae,Shallow Question,html.Page,1_1_1_1_0,NA,NA,form submission,8370.754,127193.8,127186.432,127202.946,135573.7,135573.8,2023-04-10T07:37:06Z,135583.359,"c(""distractor1"", ""distractor2"", ""distractor3"")",Kritik,lawama,s,dereva,nafasi,mawazo,nafasi,NA,NA,NA,NA,NA,NA,NA,NA,NA,NA,NA,NA,NA,NA,NA,NA,NA,NA,NA,NA,NA,NA
1d6ae,"""Richtig""-Screen",canvas.Screen,1_1_1_1_1,NA,NA,skipped,NA,135576.2,NA,NA,135573.7,135576.4,2023-04-10T07:37:06Z,135583.359,"c(""distractor1"", ""distractor2"", ""distractor3"")",Kritik,lawama,s,dereva,nafasi,mawazo,NA,NA,NA,NA,NA,NA,NA,NA,NA,NA,NA,NA,NA,NA,NA,NA,NA,NA,NA,NA,NA,NA,NA
1d6ae,"""Falsch""-Screen",canvas.Screen,1_1_1_1_2,NA,NA,timeout,4998.484,135577.1,135566.939,135583.359,140565.282,140566.2,2023-04-10T07:37:11Z,140581.843,"c(""distractor1"", ""distractor2"", ""distractor3"")",Kritik,lawama,s,dereva,nafasi,mawazo,NA,NA,0,NA,NA,NA,NA,NA,NA,NA,NA,NA,NA,NA,NA,NA,NA,NA,NA,NA,NA,NA,NA
1d6ae,shallow,flow.Sequence,1_1_1_1,NA,NA,completion,13362.336,127193.8,127186.432,127202.946,140565.282,140566.5,2023-04-10T07:37:11Z,140581.843,"c(""distractor1"", ""distractor2"", ""distractor3"")",Kritik,lawama,s,dereva,nafasi,mawazo,NA,NA,NA,NA,NA,NA,NA,NA,NA,NA,NA,NA,NA,NA,NA,NA,NA,NA,NA,NA,NA,NA,NA
1d6ae,task,flow.Sequence,1_1_1,NA,NA,completion,13362.336,127193.4,127186.432,127202.946,140565.282,140566.7,2023-04-10T07:37:11Z,140581.843,"c(""distractor1"", ""distractor2"", ""distractor3"")",Kritik,lawama,s,dereva,nafasi,mawazo,NA,NA,NA,NA,NA,NA,NA,NA,NA,NA,NA,NA,NA,NA,NA,NA,NA,NA,NA,NA,NA,NA,NA
1d6ae,Deep Question,html.Page,1_1_2_0_0,NA,NA,form submission,8184.0569999999,140567,140565.282,140581.843,148765.9,148766,2023-04-10T07:37:19Z,148779.016,"c(""distractor1"", ""distractor2"", ""distractor3"")",Schatten,kivuli,d,NA,NA,NA,duzomi,NA,NA,NA,NA,NA,NA,NA,NA,NA,NA,NA,NA,NA,NA,NA,NA,NA,NA,NA,NA,NA,NA
1d6ae,"""Richtig""-Screen",canvas.Screen,1_1_2_0_1,NA,NA,skipped,NA,148768.9,NA,NA,148765.9,148769,2023-04-10T07:37:19Z,148779.016,"c(""distractor1"", ""distractor2"", ""distractor3"")",Schatten,kivuli,d,NA,NA,NA,NA,NA,NA,NA,NA,NA,NA,NA,NA,NA,NA,NA,NA,NA,NA,NA,NA,NA,NA,NA,NA,NA,NA
1d6ae,"""Falsch""-Screen",canvas.Screen,1_1_2_0_2,NA,NA,timeout,4998.23,148770.1,148762.469,148779.016,153760.796,153762,2023-04-10T07:37:24Z,153777.246,"c(""distractor1"", ""distractor2"", ""distractor3"")",Schatten,kivuli,d,NA,NA,NA,NA,NA,0,NA,NA,NA,NA,NA,NA,NA,NA,NA,NA,NA,NA,NA,NA,NA,NA,NA,NA,NA,NA
1d6ae,deep,flow.Sequence,1_1_2_0,NA,NA,completion,13178.953,140566.8,140565.282,140581.843,153760.796,153762.3,2023-04-10T07:37:24Z,153777.246,"c(""distractor1"", ""distractor2"", ""distractor3"")",Schatten,kivuli,d,NA,NA,NA,NA,NA,NA,NA,NA,NA,NA,NA,NA,NA,NA,NA,NA,NA,NA,NA,NA,NA,NA,NA,NA,NA,NA
1d6ae,shallow,flow.Sequence,1_1_2_1,NA,NA,skipped,NA,153762.4,NA,NA,153760.796,153762.5,2023-04-10T07:37:24Z,153777.246,"c(""distractor1"", ""distractor2"", ""distractor3"")",Schatten,kivuli,d,NA,NA,NA,NA,NA,NA,NA,NA,NA,NA,NA,NA,NA,NA,NA,NA,NA,NA,NA,NA,NA,NA,NA,NA,NA,NA
1d6ae,task,flow.Sequence,1_1_2,NA,NA,completion,13178.953,140566.8,140565.282,140581.843,153760.796,153762.6,2023-04-10T07:37:24Z,153777.246,"c(""distractor1"", ""distractor2"", ""distractor3"")",Schatten,kivuli,d,NA,NA,NA,NA,NA,NA,NA,NA,NA,NA,NA,NA,NA,NA,NA,NA,NA,NA,NA,NA,NA,NA,NA,NA,NA,NA
1d6ae,Deep Question,html.Page,1_1_3_0_0,NA,NA,form submission,9145.254,153762.8,153760.796,153777.246,162922.5,162922.8,2023-04-10T07:37:34Z,162924.139,"c(""distractor1"", ""distractor2"", ""distractor3"")",Gesundheit,salama,d,NA,NA,NA,humari,NA,NA,NA,NA,NA,NA,NA,NA,NA,NA,NA,NA,NA,NA,NA,NA,NA,NA,NA,NA,NA,NA
1d6ae,"""Richtig""-Screen",canvas.Screen,1_1_3_0_1,NA,NA,skipped,NA,162925,NA,NA,162922.5,162925.1,2023-04-10T07:37:34Z,162924.139,"c(""distractor1"", ""distractor2"", ""distractor3"")",Gesundheit,salama,d,NA,NA,NA,NA,NA,NA,NA,NA,NA,NA,NA,NA,NA,NA,NA,NA,NA,NA,NA,NA,NA,NA,NA,NA,NA,NA
1d6ae,"""Falsch""-Screen",canvas.Screen,1_1_3_0_2,NA,NA,timeout,4998.325,162925.9,162907.902,162924.139,167905.775,167906.6,2023-04-10T07:37:39Z,167922.464,"c(""distractor1"", ""distractor2"", ""distractor3"")",Gesundheit,salama,d,NA,NA,NA,NA,NA,0,NA,NA,NA,NA,NA,NA,NA,NA,NA,NA,NA,NA,NA,NA,NA,NA,NA,NA,NA,NA
1d6ae,deep,flow.Sequence,1_1_3_0,NA,NA,completion,14128.529,153762.7,153760.796,153777.246,167905.775,167906.9,2023-04-10T07:37:39Z,167922.464,"c(""distractor1"", ""distractor2"", ""distractor3"")",Gesundheit,salama,d,NA,NA,NA,NA,NA,NA,NA,NA,NA,NA,NA,NA,NA,NA,NA,NA,NA,NA,NA,NA,NA,NA,NA,NA,NA,NA
1d6ae,shallow,flow.Sequence,1_1_3_1,NA,NA,skipped,NA,167907,NA,NA,167905.775,167907.2,2023-04-10T07:37:39Z,167922.464,"c(""distractor1"", ""distractor2"", ""distractor3"")",Gesundheit,salama,d,NA,NA,NA,NA,NA,NA,NA,NA,NA,NA,NA,NA,NA,NA,NA,NA,NA,NA,NA,NA,NA,NA,NA,NA,NA,NA
1d6ae,task,flow.Sequence,1_1_3,NA,NA,completion,14128.529,153762.7,153760.796,153777.246,167905.775,167907.3,2023-04-10T07:37:39Z,167922.464,"c(""distractor1"", ""distractor2"", ""distractor3"")",Gesundheit,salama,d,NA,NA,NA,NA,NA,NA,NA,NA,NA,NA,NA,NA,NA,NA,NA,NA,NA,NA,NA,NA,NA,NA,NA,NA,NA,NA
1d6ae,Deep Question,html.Page,1_1_4_0_0,NA,NA,form submission,8590.9359999999,167907.5,167905.775,167922.464,176513.4,176513.5,2023-04-10T07:37:47Z,176519.619,"c(""distractor1"", ""distractor2"", ""distractor3"")",Qualität,mtindo,d,NA,NA,NA,gnmati,NA,NA,NA,NA,NA,NA,NA,NA,NA,NA,NA,NA,NA,NA,NA,NA,NA,NA,NA,NA,NA,NA
1d6ae,"""Richtig""-Screen",canvas.Screen,1_1_4_0_1,NA,NA,skipped,NA,176515.7,NA,NA,176513.4,176515.8,2023-04-10T07:37:47Z,176519.619,"c(""distractor1"", ""distractor2"", ""distractor3"")",Qualität,mtindo,d,NA,NA,NA,NA,NA,NA,NA,NA,NA,NA,NA,NA,NA,NA,NA,NA,NA,NA,NA,NA,NA,NA,NA,NA,NA,NA
1d6ae,"""Falsch""-Screen",canvas.Screen,1_1_4_0_2,NA,NA,timeout,4998.398,176516.3,176503.187,176519.619,181501.337,181502.2,2023-04-10T07:37:52Z,181518.017,"c(""distractor1"", ""distractor2"", ""distractor3"")",Qualität,mtindo,d,NA,NA,NA,NA,NA,0,NA,NA,NA,NA,NA,NA,NA,NA,NA,NA,NA,NA,NA,NA,NA,NA,NA,NA,NA,NA
1d6ae,deep,flow.Sequence,1_1_4_0,NA,NA,completion,13578.873,167907.4,167905.775,167922.464,181501.337,181502.4,2023-04-10T07:37:52Z,181518.017,"c(""distractor1"", ""distractor2"", ""distractor3"")",Qualität,mtindo,d,NA,NA,NA,NA,NA,NA,NA,NA,NA,NA,NA,NA,NA,NA,NA,NA,NA,NA,NA,NA,NA,NA,NA,NA,NA,NA
1d6ae,shallow,flow.Sequence,1_1_4_1,NA,NA,skipped,NA,181502.5,NA,NA,181501.337,181502.6,2023-04-10T07:37:52Z,181518.017,"c(""distractor1"", ""distractor2"", ""distractor3"")",Qualität,mtindo,d,NA,NA,NA,NA,NA,NA,NA,NA,NA,NA,NA,NA,NA,NA,NA,NA,NA,NA,NA,NA,NA,NA,NA,NA,NA,NA
1d6ae,task,flow.Sequence,1_1_4,NA,NA,completion,13578.873,167907.4,167905.775,167922.464,181501.337,181502.7,2023-04-10T07:37:52Z,181518.017,"c(""distractor1"", ""distractor2"", ""distractor3"")",Qualität,mtindo,d,NA,NA,NA,NA,NA,NA,NA,NA,NA,NA,NA,NA,NA,NA,NA,NA,NA,NA,NA,NA,NA,NA,NA,NA,NA,NA
1d6ae,deep,flow.Sequence,1_1_5_0,NA,NA,skipped,NA,181502.8,NA,NA,181501.337,181502.8,2023-04-10T07:37:52Z,181518.017,"c(""distractor1"", ""distractor2"", ""distractor3"")",Rückhalt,msaada,s,muhula,auwali,kiwimbe,NA,NA,NA,NA,NA,NA,NA,NA,NA,NA,NA,NA,NA,NA,NA,NA,NA,NA,NA,NA,NA,NA,NA
1d6ae,Shallow Question,html.Page,1_1_5_1_0,NA,NA,form submission,9032.7829999998,181502.9,181501.337,181518.017,190550.8,190550.9,2023-04-10T07:38:01Z,190565.154,"c(""distractor1"", ""distractor2"", ""distractor3"")",Rückhalt,msaada,s,muhula,auwali,kiwimbe,kiwimbe,NA,NA,NA,NA,NA,NA,NA,NA,NA,NA,NA,NA,NA,NA,NA,NA,NA,NA,NA,NA,NA,NA
1d6ae,"""Richtig""-Screen",canvas.Screen,1_1_5_1_1,NA,NA,skipped,NA,190553,NA,NA,190550.8,190553.1,2023-04-10T07:38:01Z,190565.154,"c(""distractor1"", ""distractor2"", ""distractor3"")",Rückhalt,msaada,s,muhula,auwali,kiwimbe,NA,NA,NA,NA,NA,NA,NA,NA,NA,NA,NA,NA,NA,NA,NA,NA,NA,NA,NA,NA,NA,NA,NA
1d6ae,"""Falsch""-Screen",canvas.Screen,1_1_5_1_2,NA,NA,timeout,4998.185,190553.5,190548.546,190565.154,195546.766,195547.8,2023-04-10T07:38:06Z,195563.339,"c(""distractor1"", ""distractor2"", ""distractor3"")",Rückhalt,msaada,s,muhula,auwali,kiwimbe,NA,NA,0,NA,NA,NA,NA,NA,NA,NA,NA,NA,NA,NA,NA,NA,NA,NA,NA,NA,NA,NA,NA
1d6ae,shallow,flow.Sequence,1_1_5_1,NA,NA,completion,14028.749,181502.9,181501.337,181518.017,195546.766,195548.2,2023-04-10T07:38:06Z,195563.339,"c(""distractor1"", ""distractor2"", ""distractor3"")",Rückhalt,msaada,s,muhula,auwali,kiwimbe,NA,NA,NA,NA,NA,NA,NA,NA,NA,NA,NA,NA,NA,NA,NA,NA,NA,NA,NA,NA,NA,NA,NA
1d6ae,task,flow.Sequence,1_1_5,NA,NA,completion,14028.749,181502.8,181501.337,181518.017,195546.766,195548.5,2023-04-10T07:38:06Z,195563.339,"c(""distractor1"", ""distractor2"", ""distractor3"")",Rückhalt,msaada,s,muhula,auwali,kiwimbe,NA,NA,NA,NA,NA,NA,NA,NA,NA,NA,NA,NA,NA,NA,NA,NA,NA,NA,NA,NA,NA,NA,NA
1d6ae,block,flow.Loop,1_1,NA,NA,completion,80056.443,115469.1,115457.901,115490.323,195546.766,195548.8,2023-04-10T07:38:06Z,195563.339,"c(""distractor1"", ""distractor2"", ""distractor3"")",NA,NA,NA,NA,NA,NA,NA,NA,NA,NA,NA,NA,NA,NA,NA,NA,NA,NA,NA,NA,NA,NA,NA,NA,NA,NA,NA,NA,NA
1d6ae,Practice,flow.Sequence,1,NA,NA,completion,96667.721,98877.7,98874.158,98879.045,195546.766,195549,2023-04-10T07:38:06Z,195563.339,NULL,NA,NA,NA,NA,NA,NA,NA,NA,NA,NA,NA,NA,NA,NA,NA,NA,NA,NA,NA,NA,NA,NA,NA,NA,NA,NA,NA,NA,NA
1d6ae,Experiment start,canvas.Screen,2,weiter,keypress(q),response,6302.7610000001,195549.2,195546.766,195563.339,201866.1,201867.3,2023-04-10T07:38:12Z,201944.539,NULL,NA,NA,NA,NA,NA,NA,NA,NA,NA,NA,NA,NA,NA,NA,NA,NA,NA,NA,NA,NA,NA,NA,NA,NA,NA,NA,NA,NA,NA
1d6ae,Deep Question,html.Page,3_0_0_0_0_0_0,NA,NA,form submission,9973.6609999997,201934.1,201924.847,201944.539,211918.2,211918.5,2023-04-10T07:38:23Z,211924.28,NULL,Lawine,banguko,d,NA,NA,NA,mdongo,NA,NA,0,NA,NA,NA,NA,NA,NA,NA,NA,NA,NA,NA,NA,NA,NA,NA,NA,NA,NA,NA
1d6ae,"""Richtig""-Screen",canvas.Screen,3_0_0_0_0_0_1,NA,NA,skipped,NA,211921.1,NA,NA,211918.2,211921.2,2023-04-10T07:38:23Z,211924.28,NULL,Lawine,banguko,d,NA,NA,NA,NA,sdf,NA,0,NA,NA,NA,NA,NA,NA,NA,NA,NA,NA,NA,NA,NA,NA,NA,NA,NA,NA,NA
1d6ae,"""Falsch""-Screen",canvas.Screen,3_0_0_0_0_0_2,NA,NA,timeout,4998.431,211921.9,211907.817,211924.28,216905.938,216907.4,2023-04-10T07:38:28Z,216922.711,NULL,Lawine,banguko,d,NA,NA,NA,NA,sdf,0,0,NA,NA,NA,NA,NA,NA,NA,NA,NA,NA,NA,NA,NA,NA,NA,NA,NA,NA,NA
1d6ae,deep,flow.Sequence,3_0_0_0_0_0,NA,NA,completion,14961.399,201934.1,201924.847,201944.539,216905.938,216907.7,2023-04-10T07:38:28Z,216922.711,NULL,Lawine,banguko,d,NA,NA,NA,NA,sdf,NA,0,NA,NA,NA,NA,NA,NA,NA,NA,NA,NA,NA,NA,NA,NA,NA,NA,NA,NA,NA
1d6ae,shallow,flow.Sequence,3_0_0_0_0_1,NA,NA,skipped,NA,216907.7,NA,NA,216905.938,216907.8,2023-04-10T07:38:28Z,216922.711,NULL,Lawine,banguko,d,NA,NA,NA,NA,sdf,NA,0,NA,NA,NA,NA,NA,NA,NA,NA,NA,NA,NA,NA,NA,NA,NA,NA,NA,NA,NA
1d6ae,task,flow.Sequence,3_0_0_0_0,NA,NA,completion,14961.399,201934.1,201924.847,201944.539,216905.938,216908,2023-04-10T07:38:28Z,216922.711,NULL,Lawine,banguko,d,NA,NA,NA,NA,sdf,NA,0,NA,NA,NA,NA,NA,NA,NA,NA,NA,NA,NA,NA,NA,NA,NA,NA,NA,NA,NA
1d6ae,Deep Question,html.Page,3_0_0_0_1_0_0,NA,NA,form submission,8636.0889999998,216908.1,216905.938,216922.711,225558.8,225559.1,2023-04-10T07:38:36Z,225569.621,NULL,Niveau,kiwango,d,NA,NA,NA,podo,NA,NA,0,NA,NA,NA,NA,NA,NA,NA,NA,NA,NA,NA,NA,NA,NA,NA,NA,NA,NA,NA
1d6ae,"""Richtig""-Screen",canvas.Screen,3_0_0_0_1_0_1,NA,NA,skipped,NA,225561.2,NA,NA,225558.8,225561.4,2023-04-10T07:38:36Z,225569.621,NULL,Niveau,kiwango,d,NA,NA,NA,NA,sdf,NA,0,NA,NA,NA,NA,NA,NA,NA,NA,NA,NA,NA,NA,NA,NA,NA,NA,NA,NA,NA
1d6ae,"""Falsch""-Screen",canvas.Screen,3_0_0_0_1_0_2,NA,NA,timeout,4998.501,225562,225553.283,225569.621,230551.431,230552.3,2023-04-10T07:38:41Z,230568.122,NULL,Niveau,kiwango,d,NA,NA,NA,NA,sdf,0,0,NA,NA,NA,NA,NA,NA,NA,NA,NA,NA,NA,NA,NA,NA,NA,NA,NA,NA,NA
1d6ae,deep,flow.Sequence,3_0_0_0_1_0,NA,NA,completion,13628.72,216908,216905.938,216922.711,230551.431,230552.6,2023-04-10T07:38:41Z,230568.122,NULL,Niveau,kiwango,d,NA,NA,NA,NA,sdf,NA,0,NA,NA,NA,NA,NA,NA,NA,NA,NA,NA,NA,NA,NA,NA,NA,NA,NA,NA,NA
1d6ae,shallow,flow.Sequence,3_0_0_0_1_1,NA,NA,skipped,NA,230552.7,NA,NA,230551.431,230552.9,2023-04-10T07:38:41Z,230568.122,NULL,Niveau,kiwango,d,NA,NA,NA,NA,sdf,NA,0,NA,NA,NA,NA,NA,NA,NA,NA,NA,NA,NA,NA,NA,NA,NA,NA,NA,NA,NA
1d6ae,task,flow.Sequence,3_0_0_0_1,NA,NA,completion,13628.72,216908,216905.938,216922.711,230551.431,230553,2023-04-10T07:38:41Z,230568.122,NULL,Niveau,kiwango,d,NA,NA,NA,NA,sdf,NA,0,NA,NA,NA,NA,NA,NA,NA,NA,NA,NA,NA,NA,NA,NA,NA,NA,NA,NA,NA
1d6ae,Deep Question,html.Page,3_0_0_0_2_0_0,NA,NA,form submission,3953.0779999997,230553.1,230551.431,230568.122,234521.2,234521.4,2023-04-10T07:38:45Z,234533.532,NULL,System,maongozi,d,NA,NA,NA,dud,NA,NA,0,NA,NA,NA,NA,NA,NA,NA,NA,NA,NA,NA,NA,NA,NA,NA,NA,NA,NA,NA
1d6ae,"""Richtig""-Screen",canvas.Screen,3_0_0_0_2_0_1,NA,NA,skipped,NA,234523.6,NA,NA,234521.2,234523.7,2023-04-10T07:38:45Z,234533.532,NULL,System,maongozi,d,NA,NA,NA,NA,sdf,NA,0,NA,NA,NA,NA,NA,NA,NA,NA,NA,NA,NA,NA,NA,NA,NA,NA,NA,NA,NA
1d6ae,"""Falsch""-Screen",canvas.Screen,3_0_0_0_2_0_2,NA,NA,timeout,4998.345,234524.3,234516.994,234533.532,239515.213,239516.1,2023-04-10T07:38:50Z,239531.877,NULL,System,maongozi,d,NA,NA,NA,NA,sdf,0,0,NA,NA,NA,NA,NA,NA,NA,NA,NA,NA,NA,NA,NA,NA,NA,NA,NA,NA,NA
1d6ae,deep,flow.Sequence,3_0_0_0_2_0,NA,NA,completion,8947.091,230553.1,230551.431,230568.122,239515.213,239516.4,2023-04-10T07:38:50Z,239531.877,NULL,System,maongozi,d,NA,NA,NA,NA,sdf,NA,0,NA,NA,NA,NA,NA,NA,NA,NA,NA,NA,NA,NA,NA,NA,NA,NA,NA,NA,NA
1d6ae,shallow,flow.Sequence,3_0_0_0_2_1,NA,NA,skipped,NA,239516.4,NA,NA,239515.213,239516.5,2023-04-10T07:38:50Z,239531.877,NULL,System,maongozi,d,NA,NA,NA,NA,sdf,NA,0,NA,NA,NA,NA,NA,NA,NA,NA,NA,NA,NA,NA,NA,NA,NA,NA,NA,NA,NA
1d6ae,task,flow.Sequence,3_0_0_0_2,NA,NA,completion,8947.091,230553,230551.431,230568.122,239515.213,239516.7,2023-04-10T07:38:50Z,239531.877,NULL,System,maongozi,d,NA,NA,NA,NA,sdf,NA,0,NA,NA,NA,NA,NA,NA,NA,NA,NA,NA,NA,NA,NA,NA,NA,NA,NA,NA,NA
1d6ae,deep,flow.Sequence,3_0_0_0_3_0,NA,NA,skipped,NA,239516.8,NA,NA,239515.213,239516.9,2023-04-10T07:38:50Z,239531.877,NULL,Übersicht,kilindo,s,mgusano,chipukizi,kulinganisha,NA,sdf,NA,0,NA,NA,NA,NA,NA,NA,NA,NA,NA,NA,NA,NA,NA,NA,NA,NA,NA,NA,NA
1d6ae,Shallow Question,html.Page,3_0_0_0_3_1_0,NA,NA,form submission,7039.8229999997,239517,239515.213,239531.877,246571.7,246571.9,2023-04-10T07:38:57Z,246579.266,NULL,Übersicht,kilindo,s,mgusano,chipukizi,kulinganisha,chipukizi,NA,NA,0,NA,NA,NA,NA,NA,NA,NA,NA,NA,NA,NA,NA,NA,NA,NA,NA,NA,NA,NA
1d6ae,"""Richtig""-Screen",canvas.Screen,3_0_0_0_3_1_1,NA,NA,skipped,NA,246573.8,NA,NA,246571.7,246573.8,2023-04-10T07:38:57Z,246579.266,NULL,Übersicht,kilindo,s,mgusano,chipukizi,kulinganisha,NA,sdf,NA,0,NA,NA,NA,NA,NA,NA,NA,NA,NA,NA,NA,NA,NA,NA,NA,NA,NA,NA,NA
1d6ae,"""Falsch""-Screen",canvas.Screen,3_0_0_0_3_1_2,NA,NA,timeout,4998.253,246574.2,246562.823,246579.266,251560.875,251561.7,2023-04-10T07:39:02Z,251577.519,NULL,Übersicht,kilindo,s,mgusano,chipukizi,kulinganisha,NA,sdf,0,0,NA,NA,NA,NA,NA,NA,NA,NA,NA,NA,NA,NA,NA,NA,NA,NA,NA,NA,NA
1d6ae,shallow,flow.Sequence,3_0_0_0_3_1,NA,NA,completion,12028.998,239516.9,239515.213,239531.877,251560.875,251562,2023-04-10T07:39:02Z,251577.519,NULL,Übersicht,kilindo,s,mgusano,chipukizi,kulinganisha,NA,sdf,NA,0,NA,NA,NA,NA,NA,NA,NA,NA,NA,NA,NA,NA,NA,NA,NA,NA,NA,NA,NA
1d6ae,task,flow.Sequence,3_0_0_0_3,NA,NA,completion,12028.998,239516.8,239515.213,239531.877,251560.875,251562.1,2023-04-10T07:39:02Z,251577.519,NULL,Übersicht,kilindo,s,mgusano,chipukizi,kulinganisha,NA,sdf,NA,0,NA,NA,NA,NA,NA,NA,NA,NA,NA,NA,NA,NA,NA,NA,NA,NA,NA,NA,NA
1d6ae,deep,flow.Sequence,3_0_0_0_4_0,NA,NA,skipped,NA,251562.2,NA,NA,251560.875,251562.4,2023-04-10T07:39:02Z,251577.519,NULL,Entwicklung,maendeleo,s,uangavu,mshindwa,badiliko,NA,sdf,NA,0,NA,NA,NA,NA,NA,NA,NA,NA,NA,NA,NA,NA,NA,NA,NA,NA,NA,NA,NA
1d6ae,Shallow Question,html.Page,3_0_0_0_4_1_0,NA,NA,form submission,8291.481,251562.5,251560.875,251577.519,259869,259869.2,2023-04-10T07:39:10Z,259874.671,NULL,Entwicklung,maendeleo,s,uangavu,mshindwa,badiliko,badiliko,NA,NA,0,NA,NA,NA,NA,NA,NA,NA,NA,NA,NA,NA,NA,NA,NA,NA,NA,NA,NA,NA
1d6ae,"""Richtig""-Screen",canvas.Screen,3_0_0_0_4_1_1,NA,NA,skipped,NA,259871.3,NA,NA,259869,259871.4,2023-04-10T07:39:10Z,259874.671,NULL,Entwicklung,maendeleo,s,uangavu,mshindwa,badiliko,NA,sdf,NA,0,NA,NA,NA,NA,NA,NA,NA,NA,NA,NA,NA,NA,NA,NA,NA,NA,NA,NA,NA
1d6ae,"""Falsch""-Screen",canvas.Screen,3_0_0_0_4_1_2,NA,NA,timeout,4998.66,259872,259858.601,259874.671,264856.606,264857.1,2023-04-10T07:39:15Z,264873.331,NULL,Entwicklung,maendeleo,s,uangavu,mshindwa,badiliko,NA,sdf,0,0,NA,NA,NA,NA,NA,NA,NA,NA,NA,NA,NA,NA,NA,NA,NA,NA,NA,NA,NA
1d6ae,shallow,flow.Sequence,3_0_0_0_4_1,NA,NA,completion,13279.087,251562.4,251560.875,251577.519,264856.606,264857.2,2023-04-10T07:39:15Z,264873.331,NULL,Entwicklung,maendeleo,s,uangavu,mshindwa,badiliko,NA,sdf,NA,0,NA,NA,NA,NA,NA,NA,NA,NA,NA,NA,NA,NA,NA,NA,NA,NA,NA,NA,NA
1d6ae,task,flow.Sequence,3_0_0_0_4,NA,NA,completion,13279.087,251562.2,251560.875,251577.519,264856.606,264857.2,2023-04-10T07:39:15Z,264873.331,NULL,Entwicklung,maendeleo,s,uangavu,mshindwa,badiliko,NA,sdf,NA,0,NA,NA,NA,NA,NA,NA,NA,NA,NA,NA,NA,NA,NA,NA,NA,NA,NA,NA,NA
1d6ae,deep,flow.Sequence,3_0_0_0_5_0,NA,NA,skipped,NA,264857.3,NA,NA,264856.606,264857.3,2023-04-10T07:39:15Z,264873.331,NULL,Vorwurf,mashtaka,s,msukumo,mtangulizi,uenyekiti,NA,sdf,NA,0,NA,NA,NA,NA,NA,NA,NA,NA,NA,NA,NA,NA,NA,NA,NA,NA,NA,NA,NA
1d6ae,Shallow Question,html.Page,3_0_0_0_5_1_0,NA,NA,form submission,4683.9689999998,264857.4,264856.606,264873.331,269557.3,269557.5,2023-04-10T07:39:20Z,269571.698,NULL,Vorwurf,mashtaka,s,msukumo,mtangulizi,uenyekiti,mashtaka,NA,NA,0,NA,NA,NA,NA,NA,NA,NA,NA,NA,NA,NA,NA,NA,NA,NA,NA,NA,NA,NA
1d6ae,"""Richtig""-Screen",canvas.Screen,3_0_0_0_5_1_1,NA,NA,timeout,4998.124,269559.5,269555.217,269571.698,274553.393,274554.3,2023-04-10T07:39:25Z,274569.822,NULL,Vorwurf,mashtaka,s,msukumo,mtangulizi,uenyekiti,NA,sdf,1,0,NA,NA,NA,NA,NA,NA,NA,NA,NA,NA,NA,NA,NA,NA,NA,NA,NA,NA,NA
1d6ae,"""Falsch""-Screen",canvas.Screen,3_0_0_0_5_1_2,NA,NA,skipped,NA,274558.1,NA,NA,274553.393,274558.4,2023-04-10T07:39:25Z,274569.822,NULL,Vorwurf,mashtaka,s,msukumo,mtangulizi,uenyekiti,NA,sdf,NA,0,NA,NA,NA,NA,NA,NA,NA,NA,NA,NA,NA,NA,NA,NA,NA,NA,NA,NA,NA
1d6ae,shallow,flow.Sequence,3_0_0_0_5_1,NA,NA,completion,9680.062,264857.4,264856.606,264873.331,274553.393,274558.6,2023-04-10T07:39:25Z,274569.822,NULL,Vorwurf,mashtaka,s,msukumo,mtangulizi,uenyekiti,NA,sdf,NA,0,NA,NA,NA,NA,NA,NA,NA,NA,NA,NA,NA,NA,NA,NA,NA,NA,NA,NA,NA
1d6ae,task,flow.Sequence,3_0_0_0_5,NA,NA,completion,9680.062,264857.3,264856.606,264873.331,274553.393,274558.6,2023-04-10T07:39:25Z,274569.822,NULL,Vorwurf,mashtaka,s,msukumo,mtangulizi,uenyekiti,NA,sdf,NA,0,NA,NA,NA,NA,NA,NA,NA,NA,NA,NA,NA,NA,NA,NA,NA,NA,NA,NA,NA
1d6ae,deep,flow.Sequence,3_0_0_0_6_0,NA,NA,skipped,NA,274558.9,NA,NA,274553.393,274558.9,2023-04-10T07:39:25Z,274569.822,NULL,Körper,kiwiliwili,s,mapambano,mpatanishi,kiolezo,NA,sdf,NA,0,NA,NA,NA,NA,NA,NA,NA,NA,NA,NA,NA,NA,NA,NA,NA,NA,NA,NA,NA
1d6ae,Shallow Question,html.Page,3_0_0_0_6_1_0,NA,NA,form submission,8430.8779999997,274558.9,274553.393,274569.822,283000.7,283001,2023-04-10T07:39:34Z,283017.144,NULL,Körper,kiwiliwili,s,mapambano,mpatanishi,kiolezo,kiolezo,NA,NA,0,NA,NA,NA,NA,NA,NA,NA,NA,NA,NA,NA,NA,NA,NA,NA,NA,NA,NA,NA
1d6ae,"""Richtig""-Screen",canvas.Screen,3_0_0_0_6_1_1,NA,NA,skipped,NA,283002.9,NA,NA,283000.7,283002.9,2023-04-10T07:39:34Z,283017.144,NULL,Körper,kiwiliwili,s,mapambano,mpatanishi,kiolezo,NA,sdf,NA,0,NA,NA,NA,NA,NA,NA,NA,NA,NA,NA,NA,NA,NA,NA,NA,NA,NA,NA,NA
1d6ae,"""Falsch""-Screen",canvas.Screen,3_0_0_0_6_1_2,NA,NA,timeout,4998.384,283003.5,282983.805,283017.144,287998.85,287999.9,2023-04-10T07:39:39Z,288015.528,NULL,Körper,kiwiliwili,s,mapambano,mpatanishi,kiolezo,NA,sdf,0,0,NA,NA,NA,NA,NA,NA,NA,NA,NA,NA,NA,NA,NA,NA,NA,NA,NA,NA,NA
1d6ae,shallow,flow.Sequence,3_0_0_0_6_1,NA,NA,completion,13429.028,274558.9,274553.393,274569.822,287998.85,288000.3,2023-04-10T07:39:39Z,288015.528,NULL,Körper,kiwiliwili,s,mapambano,mpatanishi,kiolezo,NA,sdf,NA,0,NA,NA,NA,NA,NA,NA,NA,NA,NA,NA,NA,NA,NA,NA,NA,NA,NA,NA,NA
1d6ae,task,flow.Sequence,3_0_0_0_6,NA,NA,completion,13429.028,274558.8,274553.393,274569.822,287998.85,288000.5,2023-04-10T07:39:39Z,288015.528,NULL,Körper,kiwiliwili,s,mapambano,mpatanishi,kiolezo,NA,sdf,NA,0,NA,NA,NA,NA,NA,NA,NA,NA,NA,NA,NA,NA,NA,NA,NA,NA,NA,NA,NA
1d6ae,Deep Question,html.Page,3_0_0_0_7_0_0,NA,NA,form submission,3973.1719999997,288000.8,287998.85,288015.528,291988.7,291988.8,2023-04-10T07:39:43Z,291997.238,NULL,Papier,karatasi,d,NA,NA,NA,pdpd,NA,NA,0,NA,NA,NA,NA,NA,NA,NA,NA,NA,NA,NA,NA,NA,NA,NA,NA,NA,NA,NA
1d6ae,"""Richtig""-Screen",canvas.Screen,3_0_0_0_7_0_1,NA,NA,skipped,NA,291991.1,NA,NA,291988.7,291991.1,2023-04-10T07:39:43Z,291997.238,NULL,Papier,karatasi,d,NA,NA,NA,NA,sdf,NA,0,NA,NA,NA,NA,NA,NA,NA,NA,NA,NA,NA,NA,NA,NA,NA,NA,NA,NA,NA
1d6ae,"""Falsch""-Screen",canvas.Screen,3_0_0_0_7_0_2,NA,NA,timeout,4998.586,291991.7,291980.822,291997.238,296979.177,296980.1,2023-04-10T07:39:48Z,296995.824,NULL,Papier,karatasi,d,NA,NA,NA,NA,sdf,0,0,NA,NA,NA,NA,NA,NA,NA,NA,NA,NA,NA,NA,NA,NA,NA,NA,NA,NA,NA
1d6ae,deep,flow.Sequence,3_0_0_0_7_0,NA,NA,completion,8963.649,288000.8,287998.85,288015.528,296979.177,296980.4,2023-04-10T07:39:48Z,296995.824,NULL,Papier,karatasi,d,NA,NA,NA,NA,sdf,NA,0,NA,NA,NA,NA,NA,NA,NA,NA,NA,NA,NA,NA,NA,NA,NA,NA,NA,NA,NA
1d6ae,shallow,flow.Sequence,3_0_0_0_7_1,NA,NA,skipped,NA,296980.5,NA,NA,296979.177,296980.6,2023-04-10T07:39:48Z,296995.824,NULL,Papier,karatasi,d,NA,NA,NA,NA,sdf,NA,0,NA,NA,NA,NA,NA,NA,NA,NA,NA,NA,NA,NA,NA,NA,NA,NA,NA,NA,NA
1d6ae,task,flow.Sequence,3_0_0_0_7,NA,NA,completion,8963.649,288000.7,287998.85,288015.528,296979.177,296980.8,2023-04-10T07:39:48Z,296995.824,NULL,Papier,karatasi,d,NA,NA,NA,NA,sdf,NA,0,NA,NA,NA,NA,NA,NA,NA,NA,NA,NA,NA,NA,NA,NA,NA,NA,NA,NA,NA
1d6ae,block,flow.Loop,3_0_0_0,NA,NA,completion,95034.638,201934.1,201924.847,201944.539,296979.177,296980.9,2023-04-10T07:39:48Z,296995.824,NULL,NA,NA,NA,NA,NA,NA,NA,sdf,NA,0,NA,NA,NA,NA,NA,NA,NA,NA,NA,NA,NA,NA,NA,NA,NA,NA,NA,NA,NA
1d6ae,weiter,canvas.Screen,3_0_0_1,sdf,keypress(Space),response,1754.176,296981,296979.177,296995.824,298750,298751,2023-04-10T07:39:49Z,298778.256,NULL,NA,NA,NA,NA,NA,NA,NA,sdf,NA,0,NA,NA,NA,NA,NA,NA,NA,NA,NA,NA,NA,NA,NA,NA,NA,NA,NA,NA,NA
1d6ae,check continue,flow.Sequence,3_0_0,NA,NA,completion,96805.461,201934.1,201924.847,201944.539,298750,298751.2,2023-04-10T07:39:49Z,298778.256,NULL,NA,NA,NA,NA,NA,NA,NA,sdf,NA,0,NA,NA,NA,NA,NA,NA,NA,NA,NA,NA,NA,NA,NA,NA,NA,NA,NA,NA,NA
1d6ae,deep,flow.Sequence,3_0_1_0_0_0,NA,NA,skipped,NA,298772,NA,NA,298750,298772.1,2023-04-10T07:39:49Z,298778.256,NULL,Körper,kiwiliwili,s,mapambano,mpatanishi,kiolezo,NA,sdfdsf,NA,1,NA,NA,NA,NA,NA,NA,NA,NA,NA,NA,NA,NA,NA,NA,NA,NA,NA,NA,NA
1d6ae,Shallow Question,html.Page,3_0_1_0_0_1_0,NA,NA,form submission,8825.244,298772.2,298761.769,298778.256,307603.5,307603.6,2023-04-10T07:39:58Z,307610.812,NULL,Körper,kiwiliwili,s,mapambano,mpatanishi,kiolezo,kiwiliwili,NA,NA,1,NA,NA,NA,NA,NA,NA,NA,NA,NA,NA,NA,NA,NA,NA,NA,NA,NA,NA,NA
1d6ae,"""Richtig""-Screen",canvas.Screen,3_0_1_0_0_1_1,NA,NA,timeout,4996.369,307605.6,307591.706,307610.812,312590.523,312591.6,2023-04-10T07:40:03Z,312607.181,NULL,Körper,kiwiliwili,s,mapambano,mpatanishi,kiolezo,NA,sdfdsf,1,1,NA,NA,NA,NA,NA,NA,NA,NA,NA,NA,NA,NA,NA,NA,NA,NA,NA,NA,NA
1d6ae,"""Falsch""-Screen",canvas.Screen,3_0_1_0_0_1_2,NA,NA,skipped,NA,312595.8,NA,NA,312590.523,312596.1,2023-04-10T07:40:03Z,312607.181,NULL,Körper,kiwiliwili,s,mapambano,mpatanishi,kiolezo,NA,sdfdsf,NA,1,NA,NA,NA,NA,NA,NA,NA,NA,NA,NA,NA,NA,NA,NA,NA,NA,NA,NA,NA
1d6ae,shallow,flow.Sequence,3_0_1_0_0_1,NA,NA,completion,13812.267,298772.2,298761.769,298778.256,312590.523,312596.2,2023-04-10T07:40:03Z,312607.181,NULL,Körper,kiwiliwili,s,mapambano,mpatanishi,kiolezo,NA,sdfdsf,NA,1,NA,NA,NA,NA,NA,NA,NA,NA,NA,NA,NA,NA,NA,NA,NA,NA,NA,NA,NA
1d6ae,task,flow.Sequence,3_0_1_0_0,NA,NA,completion,13812.267,298772,298761.769,298778.256,312590.523,312596.4,2023-04-10T07:40:03Z,312607.181,NULL,Körper,kiwiliwili,s,mapambano,mpatanishi,kiolezo,NA,sdfdsf,NA,1,NA,NA,NA,NA,NA,NA,NA,NA,NA,NA,NA,NA,NA,NA,NA,NA,NA,NA,NA
1d6ae,deep,flow.Sequence,3_0_1_0_1_0,NA,NA,skipped,NA,312596.5,NA,NA,312590.523,312596.6,2023-04-10T07:40:03Z,312607.181,NULL,Vorwurf,mashtaka,s,msukumo,mtangulizi,uenyekiti,NA,sdfdsf,NA,1,NA,NA,NA,NA,NA,NA,NA,NA,NA,NA,NA,NA,NA,NA,NA,NA,NA,NA,NA
1d6ae,Shallow Question,html.Page,3_0_1_0_1_1_0,NA,NA,form submission,7095.7189999999,312596.7,312590.523,312607.181,319702.9,319703.1,2023-04-10T07:40:10Z,319704.529,NULL,Vorwurf,mashtaka,s,msukumo,mtangulizi,uenyekiti,mashtaka,NA,NA,1,NA,NA,NA,NA,NA,NA,NA,NA,NA,NA,NA,NA,NA,NA,NA,NA,NA,NA,NA
1d6ae,"""Richtig""-Screen",canvas.Screen,3_0_1_0_1_1_1,NA,NA,timeout,4998.53,319705.1,319689.938,319704.529,324686.292,324687.1,2023-04-10T07:40:15Z,324703.059,NULL,Vorwurf,mashtaka,s,msukumo,mtangulizi,uenyekiti,NA,sdfdsf,1,1,NA,NA,NA,NA,NA,NA,NA,NA,NA,NA,NA,NA,NA,NA,NA,NA,NA,NA,NA
1d6ae,"""Falsch""-Screen",canvas.Screen,3_0_1_0_1_1_2,NA,NA,skipped,NA,324690.4,NA,NA,324686.292,324690.5,2023-04-10T07:40:15Z,324703.059,NULL,Vorwurf,mashtaka,s,msukumo,mtangulizi,uenyekiti,NA,sdfdsf,NA,1,NA,NA,NA,NA,NA,NA,NA,NA,NA,NA,NA,NA,NA,NA,NA,NA,NA,NA,NA
1d6ae,shallow,flow.Sequence,3_0_1_0_1_1,NA,NA,completion,12079.111,312596.7,312590.523,312607.181,324686.292,324690.6,2023-04-10T07:40:15Z,324703.059,NULL,Vorwurf,mashtaka,s,msukumo,mtangulizi,uenyekiti,NA,sdfdsf,NA,1,NA,NA,NA,NA,NA,NA,NA,NA,NA,NA,NA,NA,NA,NA,NA,NA,NA,NA,NA
1d6ae,task,flow.Sequence,3_0_1_0_1,NA,NA,completion,12079.111,312596.5,312590.523,312607.181,324686.292,324690.6,2023-04-10T07:40:15Z,324703.059,NULL,Vorwurf,mashtaka,s,msukumo,mtangulizi,uenyekiti,NA,sdfdsf,NA,1,NA,NA,NA,NA,NA,NA,NA,NA,NA,NA,NA,NA,NA,NA,NA,NA,NA,NA,NA
1d6ae,Deep Question,html.Page,3_0_1_0_2_0_0,NA,NA,form submission,4871.1409999997,324690.7,324686.292,324703.059,329574.2,329574.4,2023-04-10T07:40:20Z,329584.528,NULL,Papier,karatasi,d,NA,NA,NA,p,NA,NA,1,NA,NA,NA,NA,NA,NA,NA,NA,NA,NA,NA,NA,NA,NA,NA,NA,NA,NA,NA
1d6ae,"""Richtig""-Screen",canvas.Screen,3_0_1_0_2_0_1,NA,NA,skipped,NA,329576.4,NA,NA,329574.2,329576.6,2023-04-10T07:40:20Z,329584.528,NULL,Papier,karatasi,d,NA,NA,NA,NA,sdfdsf,NA,1,NA,NA,NA,NA,NA,NA,NA,NA,NA,NA,NA,NA,NA,NA,NA,NA,NA,NA,NA
1d6ae,"""Falsch""-Screen",canvas.Screen,3_0_1_0_2_0_2,NA,NA,timeout,4998.529,329577.3,329568.269,329584.528,334566.44,334567.3,2023-04-10T07:40:25Z,334583.057,NULL,Papier,karatasi,d,NA,NA,NA,NA,sdfdsf,0,1,NA,NA,NA,NA,NA,NA,NA,NA,NA,NA,NA,NA,NA,NA,NA,NA,NA,NA,NA
1d6ae,deep,flow.Sequence,3_0_1_0_2_0,NA,NA,completion,9863.381,324690.7,324686.292,324703.059,334566.44,334567.6,2023-04-10T07:40:25Z,334583.057,NULL,Papier,karatasi,d,NA,NA,NA,NA,sdfdsf,NA,1,NA,NA,NA,NA,NA,NA,NA,NA,NA,NA,NA,NA,NA,NA,NA,NA,NA,NA,NA
1d6ae,shallow,flow.Sequence,3_0_1_0_2_1,NA,NA,skipped,NA,334567.7,NA,NA,334566.44,334567.8,2023-04-10T07:40:25Z,334583.057,NULL,Papier,karatasi,d,NA,NA,NA,NA,sdfdsf,NA,1,NA,NA,NA,NA,NA,NA,NA,NA,NA,NA,NA,NA,NA,NA,NA,NA,NA,NA,NA
1d6ae,task,flow.Sequence,3_0_1_0_2,NA,NA,completion,9863.381,324690.7,324686.292,324703.059,334566.44,334567.8,2023-04-10T07:40:25Z,334583.057,NULL,Papier,karatasi,d,NA,NA,NA,NA,sdfdsf,NA,1,NA,NA,NA,NA,NA,NA,NA,NA,NA,NA,NA,NA,NA,NA,NA,NA,NA,NA,NA
1d6ae,Deep Question,html.Page,3_0_1_0_3_0_0,NA,NA,form submission,7933.443,334568,334566.44,334583.057,342516.5,342516.6,2023-04-10T07:40:33Z,342530.443,NULL,Niveau,kiwango,d,NA,NA,NA,p,NA,NA,1,NA,NA,NA,NA,NA,NA,NA,NA,NA,NA,NA,NA,NA,NA,NA,NA,NA,NA,NA
1d6ae,"""Richtig""-Screen",canvas.Screen,3_0_1_0_3_0_1,NA,NA,skipped,NA,342518.7,NA,NA,342516.5,342518.8,2023-04-10T07:40:33Z,342530.443,NULL,Niveau,kiwango,d,NA,NA,NA,NA,sdfdsf,NA,1,NA,NA,NA,NA,NA,NA,NA,NA,NA,NA,NA,NA,NA,NA,NA,NA,NA,NA,NA
1d6ae,"""Falsch""-Screen",canvas.Screen,3_0_1_0_3_0_2,NA,NA,timeout,4998.1409999999,342519.4,342513.853,342530.443,347512.192,347513.4,2023-04-10T07:40:38Z,347528.584,NULL,Niveau,kiwango,d,NA,NA,NA,NA,sdfdsf,0,1,NA,NA,NA,NA,NA,NA,NA,NA,NA,NA,NA,NA,NA,NA,NA,NA,NA,NA,NA
1d6ae,deep,flow.Sequence,3_0_1_0_3_0,NA,NA,completion,12929.135,334568,334566.44,334583.057,347512.192,347513.7,2023-04-10T07:40:38Z,347528.584,NULL,Niveau,kiwango,d,NA,NA,NA,NA,sdfdsf,NA,1,NA,NA,NA,NA,NA,NA,NA,NA,NA,NA,NA,NA,NA,NA,NA,NA,NA,NA,NA
1d6ae,shallow,flow.Sequence,3_0_1_0_3_1,NA,NA,skipped,NA,347513.9,NA,NA,347512.192,347514,2023-04-10T07:40:38Z,347528.584,NULL,Niveau,kiwango,d,NA,NA,NA,NA,sdfdsf,NA,1,NA,NA,NA,NA,NA,NA,NA,NA,NA,NA,NA,NA,NA,NA,NA,NA,NA,NA,NA
1d6ae,task,flow.Sequence,3_0_1_0_3,NA,NA,completion,12929.135,334567.9,334566.44,334583.057,347512.192,347514.1,2023-04-10T07:40:38Z,347528.584,NULL,Niveau,kiwango,d,NA,NA,NA,NA,sdfdsf,NA,1,NA,NA,NA,NA,NA,NA,NA,NA,NA,NA,NA,NA,NA,NA,NA,NA,NA,NA,NA
1d6ae,deep,flow.Sequence,3_0_1_0_4_0,NA,NA,skipped,NA,347514.2,NA,NA,347512.192,347514.3,2023-04-10T07:40:38Z,347528.584,NULL,Entwicklung,maendeleo,s,uangavu,mshindwa,badiliko,NA,sdfdsf,NA,1,NA,NA,NA,NA,NA,NA,NA,NA,NA,NA,NA,NA,NA,NA,NA,NA,NA,NA,NA
1d6ae,Shallow Question,html.Page,3_0_1_0_4_1_0,NA,NA,form submission,15007.416,347514.4,347512.192,347528.584,362536,362536.3,2023-04-10T07:40:53Z,362540.016,NULL,Entwicklung,maendeleo,s,uangavu,mshindwa,badiliko,maendeleo,NA,NA,1,NA,NA,NA,NA,NA,NA,NA,NA,NA,NA,NA,NA,NA,NA,NA,NA,NA,NA,NA
1d6ae,"""Richtig""-Screen",canvas.Screen,3_0_1_0_4_1_1,NA,NA,timeout,4998.475,362538.5,362523.297,362540.016,367521.973,367523.2,2023-04-10T07:40:58Z,367538.491,NULL,Entwicklung,maendeleo,s,uangavu,mshindwa,badiliko,NA,sdfdsf,1,1,NA,NA,NA,NA,NA,NA,NA,NA,NA,NA,NA,NA,NA,NA,NA,NA,NA,NA,NA
1d6ae,"""Falsch""-Screen",canvas.Screen,3_0_1_0_4_1_2,NA,NA,skipped,NA,367526.9,NA,NA,367521.973,367527,2023-04-10T07:40:58Z,367538.491,NULL,Entwicklung,maendeleo,s,uangavu,mshindwa,badiliko,NA,sdfdsf,NA,1,NA,NA,NA,NA,NA,NA,NA,NA,NA,NA,NA,NA,NA,NA,NA,NA,NA,NA,NA
1d6ae,shallow,flow.Sequence,3_0_1_0_4_1,NA,NA,completion,19993.389,347514.4,347512.192,347528.584,367521.973,367527.1,2023-04-10T07:40:58Z,367538.491,NULL,Entwicklung,maendeleo,s,uangavu,mshindwa,badiliko,NA,sdfdsf,NA,1,NA,NA,NA,NA,NA,NA,NA,NA,NA,NA,NA,NA,NA,NA,NA,NA,NA,NA,NA
1d6ae,task,flow.Sequence,3_0_1_0_4,NA,NA,completion,19993.389,347514.2,347512.192,347528.584,367521.973,367527.2,2023-04-10T07:40:58Z,367538.491,NULL,Entwicklung,maendeleo,s,uangavu,mshindwa,badiliko,NA,sdfdsf,NA,1,NA,NA,NA,NA,NA,NA,NA,NA,NA,NA,NA,NA,NA,NA,NA,NA,NA,NA,NA
1d6ae,Deep Question,html.Page,3_0_1_0_5_0_0,NA,NA,form submission,4640.1090000001,367527.2,367521.973,367538.491,372178.6,372178.9,2023-04-10T07:41:03Z,372186.895,NULL,System,maongozi,d,NA,NA,NA,p,NA,NA,1,NA,NA,NA,NA,NA,NA,NA,NA,NA,NA,NA,NA,NA,NA,NA,NA,NA,NA,NA
1d6ae,"""Richtig""-Screen",canvas.Screen,3_0_1_0_5_0_1,NA,NA,skipped,NA,372181,NA,NA,372178.6,372181.2,2023-04-10T07:41:03Z,372186.895,NULL,System,maongozi,d,NA,NA,NA,NA,sdfdsf,NA,1,NA,NA,NA,NA,NA,NA,NA,NA,NA,NA,NA,NA,NA,NA,NA,NA,NA,NA,NA
1d6ae,"""Falsch""-Screen",canvas.Screen,3_0_1_0_5_0_2,NA,NA,timeout,4998.499,372181.7,372170.305,372186.895,377168.706,377169.6,2023-04-10T07:41:08Z,377185.394,NULL,System,maongozi,d,NA,NA,NA,NA,sdfdsf,0,1,NA,NA,NA,NA,NA,NA,NA,NA,NA,NA,NA,NA,NA,NA,NA,NA,NA,NA,NA
1d6ae,deep,flow.Sequence,3_0_1_0_5_0,NA,NA,completion,9630.215,367527.2,367521.973,367538.491,377168.706,377169.8,2023-04-10T07:41:08Z,377185.394,NULL,System,maongozi,d,NA,NA,NA,NA,sdfdsf,NA,1,NA,NA,NA,NA,NA,NA,NA,NA,NA,NA,NA,NA,NA,NA,NA,NA,NA,NA,NA
1d6ae,shallow,flow.Sequence,3_0_1_0_5_1,NA,NA,skipped,NA,377170,NA,NA,377168.706,377170,2023-04-10T07:41:08Z,377185.394,NULL,System,maongozi,d,NA,NA,NA,NA,sdfdsf,NA,1,NA,NA,NA,NA,NA,NA,NA,NA,NA,NA,NA,NA,NA,NA,NA,NA,NA,NA,NA
1d6ae,task,flow.Sequence,3_0_1_0_5,NA,NA,completion,9630.215,367527.2,367521.973,367538.491,377168.706,377170.2,2023-04-10T07:41:08Z,377185.394,NULL,System,maongozi,d,NA,NA,NA,NA,sdfdsf,NA,1,NA,NA,NA,NA,NA,NA,NA,NA,NA,NA,NA,NA,NA,NA,NA,NA,NA,NA,NA
1d6ae,deep,flow.Sequence,3_0_1_0_6_0,NA,NA,skipped,NA,377170.3,NA,NA,377168.706,377170.3,2023-04-10T07:41:08Z,377185.394,NULL,Übersicht,kilindo,s,mgusano,chipukizi,kulinganisha,NA,sdfdsf,NA,1,NA,NA,NA,NA,NA,NA,NA,NA,NA,NA,NA,NA,NA,NA,NA,NA,NA,NA,NA
1d6ae,Shallow Question,html.Page,3_0_1_0_6_1_0,NA,NA,form submission,9371.0059999999,377170.4,377168.706,377185.394,386556.4,386556.6,2023-04-10T07:41:17Z,386565.242,NULL,Übersicht,kilindo,s,mgusano,chipukizi,kulinganisha,kilindo,NA,NA,1,NA,NA,NA,NA,NA,NA,NA,NA,NA,NA,NA,NA,NA,NA,NA,NA,NA,NA,NA
1d6ae,"""Richtig""-Screen",canvas.Screen,3_0_1_0_6_1_1,NA,NA,timeout,4998.575,386558.5,386546.273,386565.242,391547.186,391548.1,2023-04-10T07:41:22Z,391563.817,NULL,Übersicht,kilindo,s,mgusano,chipukizi,kulinganisha,NA,sdfdsf,1,1,NA,NA,NA,NA,NA,NA,NA,NA,NA,NA,NA,NA,NA,NA,NA,NA,NA,NA,NA
1d6ae,"""Falsch""-Screen",canvas.Screen,3_0_1_0_6_1_2,NA,NA,skipped,NA,391551.7,NA,NA,391547.186,391551.9,2023-04-10T07:41:22Z,391563.817,NULL,Übersicht,kilindo,s,mgusano,chipukizi,kulinganisha,NA,sdfdsf,NA,1,NA,NA,NA,NA,NA,NA,NA,NA,NA,NA,NA,NA,NA,NA,NA,NA,NA,NA,NA
1d6ae,shallow,flow.Sequence,3_0_1_0_6_1,NA,NA,completion,14361.792,377170.4,377168.706,377185.394,391547.186,391552.2,2023-04-10T07:41:22Z,391563.817,NULL,Übersicht,kilindo,s,mgusano,chipukizi,kulinganisha,NA,sdfdsf,NA,1,NA,NA,NA,NA,NA,NA,NA,NA,NA,NA,NA,NA,NA,NA,NA,NA,NA,NA,NA
1d6ae,task,flow.Sequence,3_0_1_0_6,NA,NA,completion,14361.792,377170.3,377168.706,377185.394,391547.186,391552.3,2023-04-10T07:41:22Z,391563.817,NULL,Übersicht,kilindo,s,mgusano,chipukizi,kulinganisha,NA,sdfdsf,NA,1,NA,NA,NA,NA,NA,NA,NA,NA,NA,NA,NA,NA,NA,NA,NA,NA,NA,NA,NA
1d6ae,Deep Question,html.Page,3_0_1_0_7_0_0,NA,NA,form submission,3040.0829999999,391552.5,391547.186,391563.817,394603.9,394604.2,2023-04-10T07:41:25Z,394612.747,NULL,Lawine,banguko,d,NA,NA,NA,p,NA,NA,1,NA,NA,NA,NA,NA,NA,NA,NA,NA,NA,NA,NA,NA,NA,NA,NA,NA,NA,NA
1d6ae,"""Richtig""-Screen",canvas.Screen,3_0_1_0_7_0_1,NA,NA,skipped,NA,394606.4,NA,NA,394603.9,394606.5,2023-04-10T07:41:25Z,394612.747,NULL,Lawine,banguko,d,NA,NA,NA,NA,sdfdsf,NA,1,NA,NA,NA,NA,NA,NA,NA,NA,NA,NA,NA,NA,NA,NA,NA,NA,NA,NA,NA
1d6ae,"""Falsch""-Screen",canvas.Screen,3_0_1_0_7_0_2,NA,NA,timeout,4998.261,394607.1,394596.153,394612.747,399594.337,399595.1,2023-04-10T07:41:30Z,399611.008,NULL,Lawine,banguko,d,NA,NA,NA,NA,sdfdsf,0,1,NA,NA,NA,NA,NA,NA,NA,NA,NA,NA,NA,NA,NA,NA,NA,NA,NA,NA,NA
1d6ae,deep,flow.Sequence,3_0_1_0_7_0,NA,NA,completion,8030.52,391552.4,391547.186,391563.817,399594.337,399595.3,2023-04-10T07:41:30Z,399611.008,NULL,Lawine,banguko,d,NA,NA,NA,NA,sdfdsf,NA,1,NA,NA,NA,NA,NA,NA,NA,NA,NA,NA,NA,NA,NA,NA,NA,NA,NA,NA,NA
1d6ae,shallow,flow.Sequence,3_0_1_0_7_1,NA,NA,skipped,NA,399595.4,NA,NA,399594.337,399595.5,2023-04-10T07:41:30Z,399611.008,NULL,Lawine,banguko,d,NA,NA,NA,NA,sdfdsf,NA,1,NA,NA,NA,NA,NA,NA,NA,NA,NA,NA,NA,NA,NA,NA,NA,NA,NA,NA,NA
1d6ae,task,flow.Sequence,3_0_1_0_7,NA,NA,completion,8030.52,391552.4,391547.186,391563.817,399594.337,399595.7,2023-04-10T07:41:30Z,399611.008,NULL,Lawine,banguko,d,NA,NA,NA,NA,sdfdsf,NA,1,NA,NA,NA,NA,NA,NA,NA,NA,NA,NA,NA,NA,NA,NA,NA,NA,NA,NA,NA
1d6ae,block,flow.Loop,3_0_1_0,NA,NA,completion,100816.081,298772,298761.769,298778.256,399594.337,399595.9,2023-04-10T07:41:30Z,399611.008,NULL,NA,NA,NA,NA,NA,NA,NA,sdfdsf,NA,1,NA,NA,NA,NA,NA,NA,NA,NA,NA,NA,NA,NA,NA,NA,NA,NA,NA,NA,NA
1d6ae,weiter,canvas.Screen,3_0_1_1,sdf,keypress(Space),response,1493.5920000001,399595.9,399594.337,399611.008,401104.6,401106.2,2023-04-10T07:41:32Z,401143.86,NULL,NA,NA,NA,NA,NA,NA,NA,sdfdsf,NA,1,NA,NA,NA,NA,NA,NA,NA,NA,NA,NA,NA,NA,NA,NA,NA,NA,NA,NA,NA
1d6ae,check continue,flow.Sequence,3_0_1,NA,NA,completion,102326.344,298772,298761.769,298778.256,401104.6,401106.4,2023-04-10T07:41:32Z,401143.86,NULL,NA,NA,NA,NA,NA,NA,NA,sdfdsf,NA,1,NA,NA,NA,NA,NA,NA,NA,NA,NA,NA,NA,NA,NA,NA,NA,NA,NA,NA,NA
1d6ae,deep,flow.Sequence,3_0_2_0_0_0,NA,NA,skipped,NA,401130.3,NA,NA,401104.6,401130.3,2023-04-10T07:41:32Z,401143.86,NULL,Vorwurf,mashtaka,s,msukumo,mtangulizi,uenyekiti,NA,sdf,NA,2,NA,NA,NA,NA,NA,NA,NA,NA,NA,NA,NA,NA,NA,NA,NA,NA,NA,NA,NA
1d6ae,Shallow Question,html.Page,3_0_2_0_0_1_0,NA,NA,form submission,14698.34,401130.4,401128.185,401143.86,415842.2,415842.5,2023-04-10T07:41:46Z,415855.4,NULL,Vorwurf,mashtaka,s,msukumo,mtangulizi,uenyekiti,mashtaka,NA,NA,2,NA,NA,NA,NA,NA,NA,NA,NA,NA,NA,NA,NA,NA,NA,NA,NA,NA,NA,NA
1d6ae,"""Richtig""-Screen",canvas.Screen,3_0_2_0_0_1_1,NA,NA,timeout,4998.462,415844.9,415829.903,415855.4,420837.298,420838.2,2023-04-10T07:41:51Z,420853.862,NULL,Vorwurf,mashtaka,s,msukumo,mtangulizi,uenyekiti,NA,sdf,1,2,NA,NA,NA,NA,NA,NA,NA,NA,NA,NA,NA,NA,NA,NA,NA,NA,NA,NA,NA
1d6ae,"""Falsch""-Screen",canvas.Screen,3_0_2_0_0_1_2,NA,NA,skipped,NA,420842.1,NA,NA,420837.298,420842.3,2023-04-10T07:41:51Z,420853.862,NULL,Vorwurf,mashtaka,s,msukumo,mtangulizi,uenyekiti,NA,sdf,NA,2,NA,NA,NA,NA,NA,NA,NA,NA,NA,NA,NA,NA,NA,NA,NA,NA,NA,NA,NA
1d6ae,shallow,flow.Sequence,3_0_2_0_0_1,NA,NA,completion,19693.438,401130.4,401128.185,401143.86,420837.298,420842.6,2023-04-10T07:41:51Z,420853.862,NULL,Vorwurf,mashtaka,s,msukumo,mtangulizi,uenyekiti,NA,sdf,NA,2,NA,NA,NA,NA,NA,NA,NA,NA,NA,NA,NA,NA,NA,NA,NA,NA,NA,NA,NA
1d6ae,task,flow.Sequence,3_0_2_0_0,NA,NA,completion,19693.438,401130.3,401128.185,401143.86,420837.298,420842.7,2023-04-10T07:41:51Z,420853.862,NULL,Vorwurf,mashtaka,s,msukumo,mtangulizi,uenyekiti,NA,sdf,NA,2,NA,NA,NA,NA,NA,NA,NA,NA,NA,NA,NA,NA,NA,NA,NA,NA,NA,NA,NA
1d6ae,Deep Question,html.Page,3_0_2_0_1_0_0,NA,NA,form submission,10638.438,420842.9,420837.298,420853.862,431492.3,431492.6,2023-04-10T07:42:02Z,431500.124,NULL,System,maongozi,d,NA,NA,NA,p,NA,NA,2,NA,NA,NA,NA,NA,NA,NA,NA,NA,NA,NA,NA,NA,NA,NA,NA,NA,NA,NA
1d6ae,"""Richtig""-Screen",canvas.Screen,3_0_2_0_1_0_1,NA,NA,skipped,NA,431494.9,NA,NA,431492.3,431495,2023-04-10T07:42:02Z,431500.124,NULL,System,maongozi,d,NA,NA,NA,NA,sdf,NA,2,NA,NA,NA,NA,NA,NA,NA,NA,NA,NA,NA,NA,NA,NA,NA,NA,NA,NA,NA
1d6ae,"""Falsch""-Screen",canvas.Screen,3_0_2_0_1_0_2,NA,NA,timeout,4998.561,431495.6,431483.547,431500.124,436482.02,436482.8,2023-04-10T07:42:07Z,436498.685,NULL,System,maongozi,d,NA,NA,NA,NA,sdf,0,2,NA,NA,NA,NA,NA,NA,NA,NA,NA,NA,NA,NA,NA,NA,NA,NA,NA,NA,NA
1d6ae,deep,flow.Sequence,3_0_2_0_1_0,NA,NA,completion,15628.158,420842.8,420837.298,420853.862,436482.02,436483.1,2023-04-10T07:42:07Z,436498.685,NULL,System,maongozi,d,NA,NA,NA,NA,sdf,NA,2,NA,NA,NA,NA,NA,NA,NA,NA,NA,NA,NA,NA,NA,NA,NA,NA,NA,NA,NA
1d6ae,shallow,flow.Sequence,3_0_2_0_1_1,NA,NA,skipped,NA,436483.2,NA,NA,436482.02,436483.3,2023-04-10T07:42:07Z,436498.685,NULL,System,maongozi,d,NA,NA,NA,NA,sdf,NA,2,NA,NA,NA,NA,NA,NA,NA,NA,NA,NA,NA,NA,NA,NA,NA,NA,NA,NA,NA
1d6ae,task,flow.Sequence,3_0_2_0_1,NA,NA,completion,15628.158,420842.8,420837.298,420853.862,436482.02,436483.3,2023-04-10T07:42:07Z,436498.685,NULL,System,maongozi,d,NA,NA,NA,NA,sdf,NA,2,NA,NA,NA,NA,NA,NA,NA,NA,NA,NA,NA,NA,NA,NA,NA,NA,NA,NA,NA
1d6ae,deep,flow.Sequence,3_0_2_0_2_0,NA,NA,skipped,NA,436483.4,NA,NA,436482.02,436483.5,2023-04-10T07:42:07Z,436498.685,NULL,Übersicht,kilindo,s,mgusano,chipukizi,kulinganisha,NA,sdf,NA,2,NA,NA,NA,NA,NA,NA,NA,NA,NA,NA,NA,NA,NA,NA,NA,NA,NA,NA,NA
1d6ae,Shallow Question,html.Page,3_0_2_0_2_1_0,NA,NA,form submission,7836.7149999999,436483.6,436482.02,436498.685,444335.4,444335.6,2023-04-10T07:42:15Z,444345.79,NULL,Übersicht,kilindo,s,mgusano,chipukizi,kulinganisha,kilindo,NA,NA,2,NA,NA,NA,NA,NA,NA,NA,NA,NA,NA,NA,NA,NA,NA,NA,NA,NA,NA,NA
1d6ae,"""Richtig""-Screen",canvas.Screen,3_0_2_0_2_1_1,NA,NA,timeout,4998.543,444337.6,444329.588,444345.79,449327.706,449328.6,2023-04-10T07:42:20Z,449344.333,NULL,Übersicht,kilindo,s,mgusano,chipukizi,kulinganisha,NA,sdf,1,2,NA,NA,NA,NA,NA,NA,NA,NA,NA,NA,NA,NA,NA,NA,NA,NA,NA,NA,NA
1d6ae,"""Falsch""-Screen",canvas.Screen,3_0_2_0_2_1_2,NA,NA,skipped,NA,449331.5,NA,NA,449327.706,449331.6,2023-04-10T07:42:20Z,449344.333,NULL,Übersicht,kilindo,s,mgusano,chipukizi,kulinganisha,NA,sdf,NA,2,NA,NA,NA,NA,NA,NA,NA,NA,NA,NA,NA,NA,NA,NA,NA,NA,NA,NA,NA
1d6ae,shallow,flow.Sequence,3_0_2_0_2_1,NA,NA,completion,12829.021,436483.6,436482.02,436498.685,449327.706,449331.7,2023-04-10T07:42:20Z,449344.333,NULL,Übersicht,kilindo,s,mgusano,chipukizi,kulinganisha,NA,sdf,NA,2,NA,NA,NA,NA,NA,NA,NA,NA,NA,NA,NA,NA,NA,NA,NA,NA,NA,NA,NA
1d6ae,task,flow.Sequence,3_0_2_0_2,NA,NA,completion,12829.021,436483.4,436482.02,436498.685,449327.706,449331.7,2023-04-10T07:42:20Z,449344.333,NULL,Übersicht,kilindo,s,mgusano,chipukizi,kulinganisha,NA,sdf,NA,2,NA,NA,NA,NA,NA,NA,NA,NA,NA,NA,NA,NA,NA,NA,NA,NA,NA,NA,NA
1d6ae,Deep Question,html.Page,3_0_2_0_3_0_0,NA,NA,form submission,4797.667,449331.8,449327.706,449344.333,454142,454142.1,2023-04-10T07:42:25Z,454162.828,NULL,Lawine,banguko,d,NA,NA,NA,banguko,NA,NA,2,NA,NA,NA,NA,NA,NA,NA,NA,NA,NA,NA,NA,NA,NA,NA,NA,NA,NA,NA
1d6ae,"""Richtig""-Screen",canvas.Screen,3_0_2_0_3_0_1,NA,NA,timeout,4994.896,454144.2,454126.027,454162.828,459141.03,459142,2023-04-10T07:42:30Z,459157.724,NULL,Lawine,banguko,d,NA,NA,NA,NA,sdf,1,2,NA,NA,NA,NA,NA,NA,NA,NA,NA,NA,NA,NA,NA,NA,NA,NA,NA,NA,NA
1d6ae,"""Falsch""-Screen",canvas.Screen,3_0_2_0_3_0_2,NA,NA,skipped,NA,459146.1,NA,NA,459141.03,459146.2,2023-04-10T07:42:30Z,459157.724,NULL,Lawine,banguko,d,NA,NA,NA,NA,sdf,NA,2,NA,NA,NA,NA,NA,NA,NA,NA,NA,NA,NA,NA,NA,NA,NA,NA,NA,NA,NA
1d6ae,deep,flow.Sequence,3_0_2_0_3_0,NA,NA,completion,9796.697,449331.8,449327.706,449344.333,459141.03,459146.3,2023-04-10T07:42:30Z,459157.724,NULL,Lawine,banguko,d,NA,NA,NA,NA,sdf,NA,2,NA,NA,NA,NA,NA,NA,NA,NA,NA,NA,NA,NA,NA,NA,NA,NA,NA,NA,NA
1d6ae,shallow,flow.Sequence,3_0_2_0_3_1,NA,NA,skipped,NA,459146.3,NA,NA,459141.03,459146.3,2023-04-10T07:42:30Z,459157.724,NULL,Lawine,banguko,d,NA,NA,NA,NA,sdf,NA,2,NA,NA,NA,NA,NA,NA,NA,NA,NA,NA,NA,NA,NA,NA,NA,NA,NA,NA,NA
1d6ae,task,flow.Sequence,3_0_2_0_3,NA,NA,completion,9796.697,449331.7,449327.706,449344.333,459141.03,459146.3,2023-04-10T07:42:30Z,459157.724,NULL,Lawine,banguko,d,NA,NA,NA,NA,sdf,NA,2,NA,NA,NA,NA,NA,NA,NA,NA,NA,NA,NA,NA,NA,NA,NA,NA,NA,NA,NA
1d6ae,deep,flow.Sequence,3_0_2_0_4_0,NA,NA,skipped,NA,459146.5,NA,NA,459141.03,459146.5,2023-04-10T07:42:30Z,459157.724,NULL,Entwicklung,maendeleo,s,uangavu,mshindwa,badiliko,NA,sdf,NA,2,NA,NA,NA,NA,NA,NA,NA,NA,NA,NA,NA,NA,NA,NA,NA,NA,NA,NA,NA
1d6ae,Shallow Question,html.Page,3_0_2_0_4_1_0,NA,NA,form submission,9770.5759999998,459146.5,459141.03,459157.724,468928.3,468928.5,2023-04-10T07:42:40Z,468937.494,NULL,Entwicklung,maendeleo,s,uangavu,mshindwa,badiliko,maendeleo,NA,NA,2,NA,NA,NA,NA,NA,NA,NA,NA,NA,NA,NA,NA,NA,NA,NA,NA,NA,NA,NA
1d6ae,"""Richtig""-Screen",canvas.Screen,3_0_2_0_4_1_1,NA,NA,timeout,4998.568,468930.4,468923.249,468937.494,473919.369,473920.3,2023-04-10T07:42:45Z,473936.062,NULL,Entwicklung,maendeleo,s,uangavu,mshindwa,badiliko,NA,sdf,1,2,NA,NA,NA,NA,NA,NA,NA,NA,NA,NA,NA,NA,NA,NA,NA,NA,NA,NA,NA
1d6ae,"""Falsch""-Screen",canvas.Screen,3_0_2_0_4_1_2,NA,NA,skipped,NA,473922.9,NA,NA,473919.369,473922.9,2023-04-10T07:42:45Z,473936.062,NULL,Entwicklung,maendeleo,s,uangavu,mshindwa,badiliko,NA,sdf,NA,2,NA,NA,NA,NA,NA,NA,NA,NA,NA,NA,NA,NA,NA,NA,NA,NA,NA,NA,NA
1d6ae,shallow,flow.Sequence,3_0_2_0_4_1,NA,NA,completion,14761.645,459146.5,459141.03,459157.724,473919.369,473923,2023-04-10T07:42:45Z,473936.062,NULL,Entwicklung,maendeleo,s,uangavu,mshindwa,badiliko,NA,sdf,NA,2,NA,NA,NA,NA,NA,NA,NA,NA,NA,NA,NA,NA,NA,NA,NA,NA,NA,NA,NA
1d6ae,task,flow.Sequence,3_0_2_0_4,NA,NA,completion,14761.645,459146.4,459141.03,459157.724,473919.369,473923.1,2023-04-10T07:42:45Z,473936.062,NULL,Entwicklung,maendeleo,s,uangavu,mshindwa,badiliko,NA,sdf,NA,2,NA,NA,NA,NA,NA,NA,NA,NA,NA,NA,NA,NA,NA,NA,NA,NA,NA,NA,NA
1d6ae,deep,flow.Sequence,3_0_2_0_5_0,NA,NA,skipped,NA,473923.1,NA,NA,473919.369,473923.2,2023-04-10T07:42:45Z,473936.062,NULL,Körper,kiwiliwili,s,mapambano,mpatanishi,kiolezo,NA,sdf,NA,2,NA,NA,NA,NA,NA,NA,NA,NA,NA,NA,NA,NA,NA,NA,NA,NA,NA,NA,NA
1d6ae,Shallow Question,html.Page,3_0_2_0_5_1_0,NA,NA,form submission,5151.0380000001,473923.2,473919.369,473936.062,479087.1,479087.3,2023-04-10T07:42:50Z,479100.934,NULL,Körper,kiwiliwili,s,mapambano,mpatanishi,kiolezo,kiwiliwili,NA,NA,2,NA,NA,NA,NA,NA,NA,NA,NA,NA,NA,NA,NA,NA,NA,NA,NA,NA,NA,NA
1d6ae,"""Richtig""-Screen",canvas.Screen,3_0_2_0_5_1_1,NA,NA,timeout,4998.182,479089.2,479083.89,479100.934,484082.45,484083.3,2023-04-10T07:42:55Z,484099.116,NULL,Körper,kiwiliwili,s,mapambano,mpatanishi,kiolezo,NA,sdf,1,2,NA,NA,NA,NA,NA,NA,NA,NA,NA,NA,NA,NA,NA,NA,NA,NA,NA,NA,NA
1d6ae,"""Falsch""-Screen",canvas.Screen,3_0_2_0_5_1_2,NA,NA,skipped,NA,484087,NA,NA,484082.45,484087.2,2023-04-10T07:42:55Z,484099.116,NULL,Körper,kiwiliwili,s,mapambano,mpatanishi,kiolezo,NA,sdf,NA,2,NA,NA,NA,NA,NA,NA,NA,NA,NA,NA,NA,NA,NA,NA,NA,NA,NA,NA,NA
1d6ae,shallow,flow.Sequence,3_0_2_0_5_1,NA,NA,completion,10146.388,473923.2,473919.369,473936.062,484082.45,484087.5,2023-04-10T07:42:55Z,484099.116,NULL,Körper,kiwiliwili,s,mapambano,mpatanishi,kiolezo,NA,sdf,NA,2,NA,NA,NA,NA,NA,NA,NA,NA,NA,NA,NA,NA,NA,NA,NA,NA,NA,NA,NA
1d6ae,task,flow.Sequence,3_0_2_0_5,NA,NA,completion,10146.388,473923.1,473919.369,473936.062,484082.45,484087.6,2023-04-10T07:42:55Z,484099.116,NULL,Körper,kiwiliwili,s,mapambano,mpatanishi,kiolezo,NA,sdf,NA,2,NA,NA,NA,NA,NA,NA,NA,NA,NA,NA,NA,NA,NA,NA,NA,NA,NA,NA,NA
1d6ae,Deep Question,html.Page,3_0_2_0_6_0_0,NA,NA,form submission,16275.584,484087.8,484082.45,484099.116,500374.7,500375,2023-04-10T07:43:11Z,500376.837,NULL,Niveau,kiwango,d,NA,NA,NA,kiwanga,NA,NA,2,NA,NA,NA,NA,NA,NA,NA,NA,NA,NA,NA,NA,NA,NA,NA,NA,NA,NA,NA
1d6ae,"""Richtig""-Screen",canvas.Screen,3_0_2_0_6_0_1,NA,NA,skipped,NA,500377.2,NA,NA,500374.7,500377.4,2023-04-10T07:43:11Z,500376.837,NULL,Niveau,kiwango,d,NA,NA,NA,NA,sdf,NA,2,NA,NA,NA,NA,NA,NA,NA,NA,NA,NA,NA,NA,NA,NA,NA,NA,NA,NA,NA
1d6ae,"""Falsch""-Screen",canvas.Screen,3_0_2_0_6_0_2,NA,NA,timeout,4998.289,500378,500360.464,500376.837,505358.786,505359.6,2023-04-10T07:43:16Z,505375.126,NULL,Niveau,kiwango,d,NA,NA,NA,NA,sdf,0,2,NA,NA,NA,NA,NA,NA,NA,NA,NA,NA,NA,NA,NA,NA,NA,NA,NA,NA,NA
1d6ae,deep,flow.Sequence,3_0_2_0_6_0,NA,NA,completion,21259.67,484087.7,484082.45,484099.116,505358.786,505360,2023-04-10T07:43:16Z,505375.126,NULL,Niveau,kiwango,d,NA,NA,NA,NA,sdf,NA,2,NA,NA,NA,NA,NA,NA,NA,NA,NA,NA,NA,NA,NA,NA,NA,NA,NA,NA,NA
1d6ae,shallow,flow.Sequence,3_0_2_0_6_1,NA,NA,skipped,NA,505360.1,NA,NA,505358.786,505360.2,2023-04-10T07:43:16Z,505375.126,NULL,Niveau,kiwango,d,NA,NA,NA,NA,sdf,NA,2,NA,NA,NA,NA,NA,NA,NA,NA,NA,NA,NA,NA,NA,NA,NA,NA,NA,NA,NA
1d6ae,task,flow.Sequence,3_0_2_0_6,NA,NA,completion,21259.67,484087.7,484082.45,484099.116,505358.786,505360.2,2023-04-10T07:43:16Z,505375.126,NULL,Niveau,kiwango,d,NA,NA,NA,NA,sdf,NA,2,NA,NA,NA,NA,NA,NA,NA,NA,NA,NA,NA,NA,NA,NA,NA,NA,NA,NA,NA
1d6ae,Deep Question,html.Page,3_0_2_0_7_0_0,NA,NA,form submission,14847.474,505360.4,505358.786,505375.126,520222.6,520223,2023-04-10T07:43:31Z,520237.098,NULL,Papier,karatasi,d,NA,NA,NA,p,NA,NA,2,NA,NA,NA,NA,NA,NA,NA,NA,NA,NA,NA,NA,NA,NA,NA,NA,NA,NA,NA
1d6ae,"""Richtig""-Screen",canvas.Screen,3_0_2_0_7_0_1,NA,NA,skipped,NA,520225.8,NA,NA,520222.6,520225.9,2023-04-10T07:43:31Z,520237.098,NULL,Papier,karatasi,d,NA,NA,NA,NA,sdf,NA,2,NA,NA,NA,NA,NA,NA,NA,NA,NA,NA,NA,NA,NA,NA,NA,NA,NA,NA,NA
1d6ae,"""Falsch""-Screen",canvas.Screen,3_0_2_0_7_0_2,NA,NA,timeout,4998.291,520226.6,520220.486,520237.098,525218.706,525219.6,2023-04-10T07:43:36Z,525235.389,NULL,Papier,karatasi,d,NA,NA,NA,NA,sdf,0,2,NA,NA,NA,NA,NA,NA,NA,NA,NA,NA,NA,NA,NA,NA,NA,NA,NA,NA,NA
1d6ae,deep,flow.Sequence,3_0_2_0_7_0,NA,NA,completion,19843.58,505360.4,505358.786,505375.126,525218.706,525219.8,2023-04-10T07:43:36Z,525235.389,NULL,Papier,karatasi,d,NA,NA,NA,NA,sdf,NA,2,NA,NA,NA,NA,NA,NA,NA,NA,NA,NA,NA,NA,NA,NA,NA,NA,NA,NA,NA
1d6ae,shallow,flow.Sequence,3_0_2_0_7_1,NA,NA,skipped,NA,525219.9,NA,NA,525218.706,525220,2023-04-10T07:43:36Z,525235.389,NULL,Papier,karatasi,d,NA,NA,NA,NA,sdf,NA,2,NA,NA,NA,NA,NA,NA,NA,NA,NA,NA,NA,NA,NA,NA,NA,NA,NA,NA,NA
1d6ae,task,flow.Sequence,3_0_2_0_7,NA,NA,completion,19843.58,505360.3,505358.786,505375.126,525218.706,525220.1,2023-04-10T07:43:36Z,525235.389,NULL,Papier,karatasi,d,NA,NA,NA,NA,sdf,NA,2,NA,NA,NA,NA,NA,NA,NA,NA,NA,NA,NA,NA,NA,NA,NA,NA,NA,NA,NA
1d6ae,block,flow.Loop,3_0_2_0,NA,NA,completion,124074.846,401130.3,401128.185,401143.86,525218.706,525220.3,2023-04-10T07:43:36Z,525235.389,NULL,NA,NA,NA,NA,NA,NA,NA,sdf,NA,2,NA,NA,NA,NA,NA,NA,NA,NA,NA,NA,NA,NA,NA,NA,NA,NA,NA,NA,NA
1d6ae,weiter,canvas.Screen,3_0_2_1,sdf,keypress(Space),response,4453.611,525220.4,525218.706,525235.389,529689,529690,2023-04-10T07:43:40Z,529716.874,NULL,NA,NA,NA,NA,NA,NA,NA,sdf,NA,2,NA,NA,NA,NA,NA,NA,NA,NA,NA,NA,NA,NA,NA,NA,NA,NA,NA,NA,NA
1d6ae,check continue,flow.Sequence,3_0_2,NA,NA,completion,128545.14,401130.3,401128.185,401143.86,529689,529690.3,2023-04-10T07:43:40Z,529716.874,NULL,NA,NA,NA,NA,NA,NA,NA,sdf,NA,2,NA,NA,NA,NA,NA,NA,NA,NA,NA,NA,NA,NA,NA,NA,NA,NA,NA,NA,NA
1d6ae,Deep Question,html.Page,3_0_3_0_0_0_0,NA,NA,form submission,8216.626,529713.5,529700.525,529716.874,537933.5,537933.7,2023-04-10T07:43:49Z,537947.456,NULL,System,maongozi,d,NA,NA,NA,p,NA,NA,3,NA,NA,NA,NA,NA,NA,NA,NA,NA,NA,NA,NA,NA,NA,NA,NA,NA,NA,NA
1d6ae,"""Richtig""-Screen",canvas.Screen,3_0_3_0_0_0_1,NA,NA,skipped,NA,537935.8,NA,NA,537933.5,537935.9,2023-04-10T07:43:49Z,537947.456,NULL,System,maongozi,d,NA,NA,NA,NA,qt,NA,3,NA,NA,NA,NA,NA,NA,NA,NA,NA,NA,NA,NA,NA,NA,NA,NA,NA,NA,NA
1d6ae,"""Falsch""-Screen",canvas.Screen,3_0_3_0_0_0_2,NA,NA,timeout,4998.645,537936.5,537930.969,537947.456,542929.175,542929.9,2023-04-10T07:43:54Z,542946.101,NULL,System,maongozi,d,NA,NA,NA,NA,qt,0,3,NA,NA,NA,NA,NA,NA,NA,NA,NA,NA,NA,NA,NA,NA,NA,NA,NA,NA,NA
1d6ae,deep,flow.Sequence,3_0_3_0_0_0,NA,NA,completion,13212.301,529713.5,529700.525,529716.874,542929.175,542930.2,2023-04-10T07:43:54Z,542946.101,NULL,System,maongozi,d,NA,NA,NA,NA,qt,NA,3,NA,NA,NA,NA,NA,NA,NA,NA,NA,NA,NA,NA,NA,NA,NA,NA,NA,NA,NA
1d6ae,shallow,flow.Sequence,3_0_3_0_0_1,NA,NA,skipped,NA,542930.3,NA,NA,542929.175,542930.4,2023-04-10T07:43:54Z,542946.101,NULL,System,maongozi,d,NA,NA,NA,NA,qt,NA,3,NA,NA,NA,NA,NA,NA,NA,NA,NA,NA,NA,NA,NA,NA,NA,NA,NA,NA,NA
1d6ae,task,flow.Sequence,3_0_3_0_0,NA,NA,completion,13212.301,529713.4,529700.525,529716.874,542929.175,542930.5,2023-04-10T07:43:54Z,542946.101,NULL,System,maongozi,d,NA,NA,NA,NA,qt,NA,3,NA,NA,NA,NA,NA,NA,NA,NA,NA,NA,NA,NA,NA,NA,NA,NA,NA,NA,NA
1d6ae,deep,flow.Sequence,3_0_3_0_1_0,NA,NA,skipped,NA,542930.7,NA,NA,542929.175,542930.7,2023-04-10T07:43:54Z,542946.101,NULL,Übersicht,kilindo,s,mgusano,chipukizi,kulinganisha,NA,qt,NA,3,NA,NA,NA,NA,NA,NA,NA,NA,NA,NA,NA,NA,NA,NA,NA,NA,NA,NA,NA
1d6ae,Shallow Question,html.Page,3_0_3_0_1_1_0,NA,NA,form submission,5584.899,542930.8,542929.175,542946.101,548531,548531.1,2023-04-10T07:43:59Z,548544.207,NULL,Übersicht,kilindo,s,mgusano,chipukizi,kulinganisha,kilindo,NA,NA,3,NA,NA,NA,NA,NA,NA,NA,NA,NA,NA,NA,NA,NA,NA,NA,NA,NA,NA,NA
1d6ae,"""Richtig""-Screen",canvas.Screen,3_0_3_0_1_1_1,NA,NA,timeout,4998.267,548533.1,548527.686,548544.207,553525.685,553526.6,2023-04-10T07:44:04Z,553542.474,NULL,Übersicht,kilindo,s,mgusano,chipukizi,kulinganisha,NA,qt,1,3,NA,NA,NA,NA,NA,NA,NA,NA,NA,NA,NA,NA,NA,NA,NA,NA,NA,NA,NA
1d6ae,"""Falsch""-Screen",canvas.Screen,3_0_3_0_1_1_2,NA,NA,skipped,NA,553530.2,NA,NA,553525.685,553530.5,2023-04-10T07:44:04Z,553542.474,NULL,Übersicht,kilindo,s,mgusano,chipukizi,kulinganisha,NA,qt,NA,3,NA,NA,NA,NA,NA,NA,NA,NA,NA,NA,NA,NA,NA,NA,NA,NA,NA,NA,NA
1d6ae,shallow,flow.Sequence,3_0_3_0_1_1,NA,NA,completion,10579.584,542930.8,542929.175,542946.101,553525.685,553530.7,2023-04-10T07:44:04Z,553542.474,NULL,Übersicht,kilindo,s,mgusano,chipukizi,kulinganisha,NA,qt,NA,3,NA,NA,NA,NA,NA,NA,NA,NA,NA,NA,NA,NA,NA,NA,NA,NA,NA,NA,NA
1d6ae,task,flow.Sequence,3_0_3_0_1,NA,NA,completion,10579.584,542930.6,542929.175,542946.101,553525.685,553530.8,2023-04-10T07:44:04Z,553542.474,NULL,Übersicht,kilindo,s,mgusano,chipukizi,kulinganisha,NA,qt,NA,3,NA,NA,NA,NA,NA,NA,NA,NA,NA,NA,NA,NA,NA,NA,NA,NA,NA,NA,NA
1d6ae,deep,flow.Sequence,3_0_3_0_2_0,NA,NA,skipped,NA,553531,NA,NA,553525.685,553531,2023-04-10T07:44:04Z,553542.474,NULL,Körper,kiwiliwili,s,mapambano,mpatanishi,kiolezo,NA,qt,NA,3,NA,NA,NA,NA,NA,NA,NA,NA,NA,NA,NA,NA,NA,NA,NA,NA,NA,NA,NA
1d6ae,Shallow Question,html.Page,3_0_3_0_2_1_0,NA,NA,form submission,3665.9259999999,553531,553525.685,553542.474,557208.4,557208.6,2023-04-10T07:44:08Z,557224.519,NULL,Körper,kiwiliwili,s,mapambano,mpatanishi,kiolezo,kiwiliwili,NA,NA,3,NA,NA,NA,NA,NA,NA,NA,NA,NA,NA,NA,NA,NA,NA,NA,NA,NA,NA,NA
1d6ae,"""Richtig""-Screen",canvas.Screen,3_0_3_0_2_1_1,NA,NA,timeout,4998.236,557210.5,557191.8,557224.519,562206.254,562207.1,2023-04-10T07:44:13Z,562222.755,NULL,Körper,kiwiliwili,s,mapambano,mpatanishi,kiolezo,NA,qt,1,3,NA,NA,NA,NA,NA,NA,NA,NA,NA,NA,NA,NA,NA,NA,NA,NA,NA,NA,NA
1d6ae,"""Falsch""-Screen",canvas.Screen,3_0_3_0_2_1_2,NA,NA,skipped,NA,562211.1,NA,NA,562206.254,562211.3,2023-04-10T07:44:13Z,562222.755,NULL,Körper,kiwiliwili,s,mapambano,mpatanishi,kiolezo,NA,qt,NA,3,NA,NA,NA,NA,NA,NA,NA,NA,NA,NA,NA,NA,NA,NA,NA,NA,NA,NA,NA
1d6ae,shallow,flow.Sequence,3_0_3_0_2_1,NA,NA,completion,8663.7799999999,553531,553525.685,553542.474,562206.254,562211.5,2023-04-10T07:44:13Z,562222.755,NULL,Körper,kiwiliwili,s,mapambano,mpatanishi,kiolezo,NA,qt,NA,3,NA,NA,NA,NA,NA,NA,NA,NA,NA,NA,NA,NA,NA,NA,NA,NA,NA,NA,NA
1d6ae,task,flow.Sequence,3_0_3_0_2,NA,NA,completion,8663.7799999999,553530.8,553525.685,553542.474,562206.254,562211.6,2023-04-10T07:44:13Z,562222.755,NULL,Körper,kiwiliwili,s,mapambano,mpatanishi,kiolezo,NA,qt,NA,3,NA,NA,NA,NA,NA,NA,NA,NA,NA,NA,NA,NA,NA,NA,NA,NA,NA,NA,NA
1d6ae,Deep Question,html.Page,3_0_3_0_3_0_0,NA,NA,form submission,8933.0449999998,562211.8,562206.254,562222.755,571155.8,571156,2023-04-10T07:44:22Z,571169.899,NULL,Niveau,kiwango,d,NA,NA,NA,kiwango,NA,NA,3,NA,NA,NA,NA,NA,NA,NA,NA,NA,NA,NA,NA,NA,NA,NA,NA,NA,NA,NA
1d6ae,"""Richtig""-Screen",canvas.Screen,3_0_3_0_3_0_1,NA,NA,timeout,4998.282,571158.2,571153.121,571169.899,576151.509,576152.4,2023-04-10T07:44:27Z,576168.181,NULL,Niveau,kiwango,d,NA,NA,NA,NA,qt,1,3,NA,NA,NA,NA,NA,NA,NA,NA,NA,NA,NA,NA,NA,NA,NA,NA,NA,NA,NA
1d6ae,"""Falsch""-Screen",canvas.Screen,3_0_3_0_3_0_2,NA,NA,skipped,NA,576156,NA,NA,576151.509,576156,2023-04-10T07:44:27Z,576168.181,NULL,Niveau,kiwango,d,NA,NA,NA,NA,qt,NA,3,NA,NA,NA,NA,NA,NA,NA,NA,NA,NA,NA,NA,NA,NA,NA,NA,NA,NA,NA
1d6ae,deep,flow.Sequence,3_0_3_0_3_0,NA,NA,completion,13928.754,562211.7,562206.254,562222.755,576151.509,576156.1,2023-04-10T07:44:27Z,576168.181,NULL,Niveau,kiwango,d,NA,NA,NA,NA,qt,NA,3,NA,NA,NA,NA,NA,NA,NA,NA,NA,NA,NA,NA,NA,NA,NA,NA,NA,NA,NA
1d6ae,shallow,flow.Sequence,3_0_3_0_3_1,NA,NA,skipped,NA,576156.1,NA,NA,576151.509,576156.1,2023-04-10T07:44:27Z,576168.181,NULL,Niveau,kiwango,d,NA,NA,NA,NA,qt,NA,3,NA,NA,NA,NA,NA,NA,NA,NA,NA,NA,NA,NA,NA,NA,NA,NA,NA,NA,NA
1d6ae,task,flow.Sequence,3_0_3_0_3,NA,NA,completion,13928.754,562211.7,562206.254,562222.755,576151.509,576156.1,2023-04-10T07:44:27Z,576168.181,NULL,Niveau,kiwango,d,NA,NA,NA,NA,qt,NA,3,NA,NA,NA,NA,NA,NA,NA,NA,NA,NA,NA,NA,NA,NA,NA,NA,NA,NA,NA
1d6ae,Deep Question,html.Page,3_0_3_0_4_0_0,NA,NA,form submission,4389.6189999998,576156.2,576151.509,576168.181,580557.8,580557.9,2023-04-10T07:44:31Z,580566.457,NULL,Papier,karatasi,d,NA,NA,NA,karatasi,NA,NA,3,NA,NA,NA,NA,NA,NA,NA,NA,NA,NA,NA,NA,NA,NA,NA,NA,NA,NA,NA
1d6ae,"""Richtig""-Screen",canvas.Screen,3_0_3_0_4_0_1,NA,NA,timeout,4998.4049999999,580560.1,580549.831,580566.457,585548.12,585549.1,2023-04-10T07:44:36Z,585564.862,NULL,Papier,karatasi,d,NA,NA,NA,NA,qt,1,3,NA,NA,NA,NA,NA,NA,NA,NA,NA,NA,NA,NA,NA,NA,NA,NA,NA,NA,NA
1d6ae,"""Falsch""-Screen",canvas.Screen,3_0_3_0_4_0_2,NA,NA,skipped,NA,585551.7,NA,NA,585548.12,585551.9,2023-04-10T07:44:36Z,585564.862,NULL,Papier,karatasi,d,NA,NA,NA,NA,qt,NA,3,NA,NA,NA,NA,NA,NA,NA,NA,NA,NA,NA,NA,NA,NA,NA,NA,NA,NA,NA
1d6ae,deep,flow.Sequence,3_0_3_0_4_0,NA,NA,completion,9379.939,576156.2,576151.509,576168.181,585548.12,585552,2023-04-10T07:44:36Z,585564.862,NULL,Papier,karatasi,d,NA,NA,NA,NA,qt,NA,3,NA,NA,NA,NA,NA,NA,NA,NA,NA,NA,NA,NA,NA,NA,NA,NA,NA,NA,NA
1d6ae,shallow,flow.Sequence,3_0_3_0_4_1,NA,NA,skipped,NA,585552,NA,NA,585548.12,585552,2023-04-10T07:44:36Z,585564.862,NULL,Papier,karatasi,d,NA,NA,NA,NA,qt,NA,3,NA,NA,NA,NA,NA,NA,NA,NA,NA,NA,NA,NA,NA,NA,NA,NA,NA,NA,NA
1d6ae,task,flow.Sequence,3_0_3_0_4,NA,NA,completion,9379.939,576156.2,576151.509,576168.181,585548.12,585552,2023-04-10T07:44:36Z,585564.862,NULL,Papier,karatasi,d,NA,NA,NA,NA,qt,NA,3,NA,NA,NA,NA,NA,NA,NA,NA,NA,NA,NA,NA,NA,NA,NA,NA,NA,NA,NA
1d6ae,Deep Question,html.Page,3_0_3_0_5_0_0,NA,NA,form submission,17821.538,585552.1,585548.12,585564.862,603386.4,603386.7,2023-04-10T07:44:54Z,603391.991,NULL,Lawine,banguko,d,NA,NA,NA,banguka,NA,NA,3,NA,NA,NA,NA,NA,NA,NA,NA,NA,NA,NA,NA,NA,NA,NA,NA,NA,NA,NA
1d6ae,"""Richtig""-Screen",canvas.Screen,3_0_3_0_5_0_1,NA,NA,skipped,NA,603388.9,NA,NA,603386.4,603389.1,2023-04-10T07:44:54Z,603391.991,NULL,Lawine,banguko,d,NA,NA,NA,NA,qt,NA,3,NA,NA,NA,NA,NA,NA,NA,NA,NA,NA,NA,NA,NA,NA,NA,NA,NA,NA,NA
1d6ae,"""Falsch""-Screen",canvas.Screen,3_0_3_0_5_0_2,NA,NA,timeout,4998.6649999999,603389.9,603375.582,603391.991,608373.815,608374.7,2023-04-10T07:44:59Z,608390.656,NULL,Lawine,banguko,d,NA,NA,NA,NA,qt,0,3,NA,NA,NA,NA,NA,NA,NA,NA,NA,NA,NA,NA,NA,NA,NA,NA,NA,NA,NA
1d6ae,deep,flow.Sequence,3_0_3_0_5_0,NA,NA,completion,22808.953,585552,585548.12,585564.862,608373.815,608374.9,2023-04-10T07:44:59Z,608390.656,NULL,Lawine,banguko,d,NA,NA,NA,NA,qt,NA,3,NA,NA,NA,NA,NA,NA,NA,NA,NA,NA,NA,NA,NA,NA,NA,NA,NA,NA,NA
1d6ae,shallow,flow.Sequence,3_0_3_0_5_1,NA,NA,skipped,NA,608375,NA,NA,608373.815,608375.1,2023-04-10T07:44:59Z,608390.656,NULL,Lawine,banguko,d,NA,NA,NA,NA,qt,NA,3,NA,NA,NA,NA,NA,NA,NA,NA,NA,NA,NA,NA,NA,NA,NA,NA,NA,NA,NA
1d6ae,task,flow.Sequence,3_0_3_0_5,NA,NA,completion,22808.953,585552,585548.12,585564.862,608373.815,608375.2,2023-04-10T07:44:59Z,608390.656,NULL,Lawine,banguko,d,NA,NA,NA,NA,qt,NA,3,NA,NA,NA,NA,NA,NA,NA,NA,NA,NA,NA,NA,NA,NA,NA,NA,NA,NA,NA
1d6ae,deep,flow.Sequence,3_0_3_0_6_0,NA,NA,skipped,NA,608375.4,NA,NA,608373.815,608375.4,2023-04-10T07:44:59Z,608390.656,NULL,Vorwurf,mashtaka,s,msukumo,mtangulizi,uenyekiti,NA,qt,NA,3,NA,NA,NA,NA,NA,NA,NA,NA,NA,NA,NA,NA,NA,NA,NA,NA,NA,NA,NA
1d6ae,Shallow Question,html.Page,3_0_3_0_6_1_0,NA,NA,form submission,4352.4440000001,608375.5,608373.815,608390.656,612743.1,612743.4,2023-04-10T07:45:03Z,612755.873,NULL,Vorwurf,mashtaka,s,msukumo,mtangulizi,uenyekiti,mashtaka,NA,NA,3,NA,NA,NA,NA,NA,NA,NA,NA,NA,NA,NA,NA,NA,NA,NA,NA,NA,NA,NA
1d6ae,"""Richtig""-Screen",canvas.Screen,3_0_3_0_6_1_1,NA,NA,timeout,4998.236,612745.3,612739.681,612755.873,617737.32,617738.2,2023-04-10T07:45:08Z,617754.109,NULL,Vorwurf,mashtaka,s,msukumo,mtangulizi,uenyekiti,NA,qt,1,3,NA,NA,NA,NA,NA,NA,NA,NA,NA,NA,NA,NA,NA,NA,NA,NA,NA,NA,NA
1d6ae,"""Falsch""-Screen",canvas.Screen,3_0_3_0_6_1_2,NA,NA,skipped,NA,617741.9,NA,NA,617737.32,617742.2,2023-04-10T07:45:08Z,617754.109,NULL,Vorwurf,mashtaka,s,msukumo,mtangulizi,uenyekiti,NA,qt,NA,3,NA,NA,NA,NA,NA,NA,NA,NA,NA,NA,NA,NA,NA,NA,NA,NA,NA,NA,NA
1d6ae,shallow,flow.Sequence,3_0_3_0_6_1,NA,NA,completion,9346.664,608375.4,608373.815,608390.656,617737.32,617742.4,2023-04-10T07:45:08Z,617754.109,NULL,Vorwurf,mashtaka,s,msukumo,mtangulizi,uenyekiti,NA,qt,NA,3,NA,NA,NA,NA,NA,NA,NA,NA,NA,NA,NA,NA,NA,NA,NA,NA,NA,NA,NA
1d6ae,task,flow.Sequence,3_0_3_0_6,NA,NA,completion,9346.664,608375.3,608373.815,608390.656,617737.32,617742.4,2023-04-10T07:45:08Z,617754.109,NULL,Vorwurf,mashtaka,s,msukumo,mtangulizi,uenyekiti,NA,qt,NA,3,NA,NA,NA,NA,NA,NA,NA,NA,NA,NA,NA,NA,NA,NA,NA,NA,NA,NA,NA
1d6ae,deep,flow.Sequence,3_0_3_0_7_0,NA,NA,skipped,NA,617742.5,NA,NA,617737.32,617742.5,2023-04-10T07:45:08Z,617754.109,NULL,Entwicklung,maendeleo,s,uangavu,mshindwa,badiliko,NA,qt,NA,3,NA,NA,NA,NA,NA,NA,NA,NA,NA,NA,NA,NA,NA,NA,NA,NA,NA,NA,NA
1d6ae,Shallow Question,html.Page,3_0_3_0_7_1_0,NA,NA,form submission,9387.6909999998,617742.5,617737.32,617754.109,627141.8,627142,2023-04-10T07:45:18Z,627150.602,NULL,Entwicklung,maendeleo,s,uangavu,mshindwa,badiliko,maendeleo,NA,NA,3,NA,NA,NA,NA,NA,NA,NA,NA,NA,NA,NA,NA,NA,NA,NA,NA,NA,NA,NA
1d6ae,"""Richtig""-Screen",canvas.Screen,3_0_3_0_7_1_1,NA,NA,timeout,4998.662,627143.9,627135.197,627150.602,632132.606,632133.5,2023-04-10T07:45:23Z,632149.264,NULL,Entwicklung,maendeleo,s,uangavu,mshindwa,badiliko,NA,qt,1,3,NA,NA,NA,NA,NA,NA,NA,NA,NA,NA,NA,NA,NA,NA,NA,NA,NA,NA,NA
1d6ae,"""Falsch""-Screen",canvas.Screen,3_0_3_0_7_1_2,NA,NA,skipped,NA,632137.3,NA,NA,632132.606,632137.7,2023-04-10T07:45:23Z,632149.264,NULL,Entwicklung,maendeleo,s,uangavu,mshindwa,badiliko,NA,qt,NA,3,NA,NA,NA,NA,NA,NA,NA,NA,NA,NA,NA,NA,NA,NA,NA,NA,NA,NA,NA
1d6ae,shallow,flow.Sequence,3_0_3_0_7_1,NA,NA,completion,14378.497,617742.5,617737.32,617754.109,632132.606,632137.8,2023-04-10T07:45:23Z,632149.264,NULL,Entwicklung,maendeleo,s,uangavu,mshindwa,badiliko,NA,qt,NA,3,NA,NA,NA,NA,NA,NA,NA,NA,NA,NA,NA,NA,NA,NA,NA,NA,NA,NA,NA
1d6ae,task,flow.Sequence,3_0_3_0_7,NA,NA,completion,14378.497,617742.5,617737.32,617754.109,632132.606,632137.9,2023-04-10T07:45:23Z,632149.264,NULL,Entwicklung,maendeleo,s,uangavu,mshindwa,badiliko,NA,qt,NA,3,NA,NA,NA,NA,NA,NA,NA,NA,NA,NA,NA,NA,NA,NA,NA,NA,NA,NA,NA
1d6ae,block,flow.Loop,3_0_3_0,NA,NA,completion,102415.732,529713.4,529700.525,529716.874,632132.606,632138.1,2023-04-10T07:45:23Z,632149.264,NULL,NA,NA,NA,NA,NA,NA,NA,qt,NA,3,NA,NA,NA,NA,NA,NA,NA,NA,NA,NA,NA,NA,NA,NA,NA,NA,NA,NA,NA
1d6ae,weiter,canvas.Screen,3_0_3_1,sdf,keypress(Space),response,930.93599999975,632138.2,632132.606,632149.264,633080.2,633081.6,2023-04-10T07:45:24Z,633398.551,NULL,NA,NA,NA,NA,NA,NA,NA,qt,NA,3,NA,NA,NA,NA,NA,NA,NA,NA,NA,NA,NA,NA,NA,NA,NA,NA,NA,NA,NA
1d6ae,check continue,flow.Sequence,3_0_3,NA,NA,completion,103363.326,529713.4,529700.525,529716.874,633080.2,633081.7,2023-04-10T07:45:24Z,633398.551,NULL,NA,NA,NA,NA,NA,NA,NA,qt,NA,3,NA,NA,NA,NA,NA,NA,NA,NA,NA,NA,NA,NA,NA,NA,NA,NA,NA,NA,NA
1d6ae,check continue,flow.Sequence,3_0_4,NA,NA,skipped,NA,633104.6,NA,NA,633080.2,633104.6,2023-04-10T07:45:24Z,633398.551,NULL,NA,NA,NA,NA,NA,NA,NA,sd,NA,4,NA,NA,NA,NA,NA,NA,NA,NA,NA,NA,NA,NA,NA,NA,NA,NA,NA,NA,NA
1d6ae,check continue,flow.Sequence,3_0_5,NA,NA,skipped,NA,633118.1,NA,NA,633080.2,633118.3,2023-04-10T07:45:24Z,633398.551,NULL,NA,NA,NA,NA,NA,NA,NA,sdf,NA,5,NA,NA,NA,NA,NA,NA,NA,NA,NA,NA,NA,NA,NA,NA,NA,NA,NA,NA,NA
1d6ae,check continue,flow.Sequence,3_0_6,NA,NA,skipped,NA,633130.1,NA,NA,633080.2,633130.1,2023-04-10T07:45:24Z,633398.551,NULL,NA,NA,NA,NA,NA,NA,NA,dfs,NA,6,NA,NA,NA,NA,NA,NA,NA,NA,NA,NA,NA,NA,NA,NA,NA,NA,NA,NA,NA
1d6ae,check continue,flow.Sequence,3_0_7,NA,NA,skipped,NA,633146.9,NA,NA,633080.2,633147,2023-04-10T07:45:24Z,633398.551,NULL,NA,NA,NA,NA,NA,NA,NA,df,NA,7,NA,NA,NA,NA,NA,NA,NA,NA,NA,NA,NA,NA,NA,NA,NA,NA,NA,NA,NA
1d6ae,check continue,flow.Sequence,3_0_8,NA,NA,skipped,NA,633159.6,NA,NA,633080.2,633159.8,2023-04-10T07:45:24Z,633398.551,NULL,NA,NA,NA,NA,NA,NA,NA,dfs,NA,8,NA,NA,NA,NA,NA,NA,NA,NA,NA,NA,NA,NA,NA,NA,NA,NA,NA,NA,NA
1d6ae,check continue,flow.Sequence,3_0_9,NA,NA,skipped,NA,633169.8,NA,NA,633080.2,633170,2023-04-10T07:45:24Z,633398.551,NULL,NA,NA,NA,NA,NA,NA,NA,dsf,NA,9,NA,NA,NA,NA,NA,NA,NA,NA,NA,NA,NA,NA,NA,NA,NA,NA,NA,NA,NA
1d6ae,check continue,flow.Sequence,3_0_10,NA,NA,skipped,NA,633184.8,NA,NA,633080.2,633184.8,2023-04-10T07:45:24Z,633398.551,NULL,NA,NA,NA,NA,NA,NA,NA,df,NA,10,NA,NA,NA,NA,NA,NA,NA,NA,NA,NA,NA,NA,NA,NA,NA,NA,NA,NA,NA
1d6ae,check continue,flow.Sequence,3_0_11,NA,NA,skipped,NA,633194.7,NA,NA,633080.2,633194.8,2023-04-10T07:45:24Z,633398.551,NULL,NA,NA,NA,NA,NA,NA,NA,dfs,NA,11,NA,NA,NA,NA,NA,NA,NA,NA,NA,NA,NA,NA,NA,NA,NA,NA,NA,NA,NA
1d6ae,check continue,flow.Sequence,3_0_12,NA,NA,skipped,NA,633205.5,NA,NA,633080.2,633205.7,2023-04-10T07:45:24Z,633398.551,NULL,NA,NA,NA,NA,NA,NA,NA,dsf,NA,12,NA,NA,NA,NA,NA,NA,NA,NA,NA,NA,NA,NA,NA,NA,NA,NA,NA,NA,NA
1d6ae,check continue,flow.Sequence,3_0_13,NA,NA,skipped,NA,633216.9,NA,NA,633080.2,633216.9,2023-04-10T07:45:24Z,633398.551,NULL,NA,NA,NA,NA,NA,NA,NA,dsf,NA,13,NA,NA,NA,NA,NA,NA,NA,NA,NA,NA,NA,NA,NA,NA,NA,NA,NA,NA,NA
1d6ae,check continue,flow.Sequence,3_0_14,NA,NA,skipped,NA,633227.6,NA,NA,633080.2,633227.6,2023-04-10T07:45:24Z,633398.551,NULL,NA,NA,NA,NA,NA,NA,NA,NA,NA,14,NA,NA,NA,NA,NA,NA,NA,NA,NA,NA,NA,NA,NA,NA,NA,NA,NA,NA,NA
1d6ae,check continue,flow.Sequence,3_0_15,NA,NA,skipped,NA,633238.6,NA,NA,633080.2,633238.7,2023-04-10T07:45:24Z,633398.551,NULL,NA,NA,NA,NA,NA,NA,NA,NA,NA,15,NA,NA,NA,NA,NA,NA,NA,NA,NA,NA,NA,NA,NA,NA,NA,NA,NA,NA,NA
1d6ae,check continue,flow.Sequence,3_0_16,NA,NA,skipped,NA,633250,NA,NA,633080.2,633250,2023-04-10T07:45:24Z,633398.551,NULL,NA,NA,NA,NA,NA,NA,NA,NA,NA,16,NA,NA,NA,NA,NA,NA,NA,NA,NA,NA,NA,NA,NA,NA,NA,NA,NA,NA,NA
1d6ae,check continue,flow.Sequence,3_0_17,NA,NA,skipped,NA,633260.3,NA,NA,633080.2,633260.4,2023-04-10T07:45:24Z,633398.551,NULL,NA,NA,NA,NA,NA,NA,NA,NA,NA,17,NA,NA,NA,NA,NA,NA,NA,NA,NA,NA,NA,NA,NA,NA,NA,NA,NA,NA,NA
1d6ae,check continue,flow.Sequence,3_0_18,NA,NA,skipped,NA,633270.5,NA,NA,633080.2,633270.7,2023-04-10T07:45:24Z,633398.551,NULL,NA,NA,NA,NA,NA,NA,NA,NA,NA,18,NA,NA,NA,NA,NA,NA,NA,NA,NA,NA,NA,NA,NA,NA,NA,NA,NA,NA,NA
1d6ae,check continue,flow.Sequence,3_0_19,NA,NA,skipped,NA,633280.5,NA,NA,633080.2,633280.6,2023-04-10T07:45:24Z,633398.551,NULL,NA,NA,NA,NA,NA,NA,NA,NA,NA,19,NA,NA,NA,NA,NA,NA,NA,NA,NA,NA,NA,NA,NA,NA,NA,NA,NA,NA,NA
1d6ae,check continue,flow.Sequence,3_0_20,NA,NA,skipped,NA,633291,NA,NA,633080.2,633291,2023-04-10T07:45:24Z,633398.551,NULL,NA,NA,NA,NA,NA,NA,NA,NA,NA,20,NA,NA,NA,NA,NA,NA,NA,NA,NA,NA,NA,NA,NA,NA,NA,NA,NA,NA,NA
1d6ae,check continue,flow.Sequence,3_0_21,NA,NA,skipped,NA,633301.5,NA,NA,633080.2,633301.7,2023-04-10T07:45:24Z,633398.551,NULL,NA,NA,NA,NA,NA,NA,NA,NA,NA,21,NA,NA,NA,NA,NA,NA,NA,NA,NA,NA,NA,NA,NA,NA,NA,NA,NA,NA,NA
1d6ae,check continue,flow.Sequence,3_0_22,NA,NA,skipped,NA,633312.2,NA,NA,633080.2,633312.2,2023-04-10T07:45:24Z,633398.551,NULL,NA,NA,NA,NA,NA,NA,NA,NA,NA,22,NA,NA,NA,NA,NA,NA,NA,NA,NA,NA,NA,NA,NA,NA,NA,NA,NA,NA,NA
1d6ae,check continue,flow.Sequence,3_0_23,NA,NA,skipped,NA,633322.3,NA,NA,633080.2,633322.4,2023-04-10T07:45:24Z,633398.551,NULL,NA,NA,NA,NA,NA,NA,NA,NA,NA,23,NA,NA,NA,NA,NA,NA,NA,NA,NA,NA,NA,NA,NA,NA,NA,NA,NA,NA,NA
1d6ae,check continue,flow.Sequence,3_0_24,NA,NA,skipped,NA,633334,NA,NA,633080.2,633334.1,2023-04-10T07:45:24Z,633398.551,NULL,NA,NA,NA,NA,NA,NA,NA,NA,NA,24,NA,NA,NA,NA,NA,NA,NA,NA,NA,NA,NA,NA,NA,NA,NA,NA,NA,NA,NA
1d6ae,check continue,flow.Sequence,3_0_25,NA,NA,skipped,NA,633344.9,NA,NA,633080.2,633344.9,2023-04-10T07:45:24Z,633398.551,NULL,NA,NA,NA,NA,NA,NA,NA,NA,NA,25,NA,NA,NA,NA,NA,NA,NA,NA,NA,NA,NA,NA,NA,NA,NA,NA,NA,NA,NA
1d6ae,check continue,flow.Sequence,3_0_26,NA,NA,skipped,NA,633354.3,NA,NA,633080.2,633354.4,2023-04-10T07:45:24Z,633398.551,NULL,NA,NA,NA,NA,NA,NA,NA,NA,NA,26,NA,NA,NA,NA,NA,NA,NA,NA,NA,NA,NA,NA,NA,NA,NA,NA,NA,NA,NA
1d6ae,check continue,flow.Sequence,3_0_27,NA,NA,skipped,NA,633364.9,NA,NA,633080.2,633365,2023-04-10T07:45:24Z,633398.551,NULL,NA,NA,NA,NA,NA,NA,NA,NA,NA,27,NA,NA,NA,NA,NA,NA,NA,NA,NA,NA,NA,NA,NA,NA,NA,NA,NA,NA,NA
1d6ae,check continue,flow.Sequence,3_0_28,NA,NA,skipped,NA,633373.7,NA,NA,633080.2,633373.8,2023-04-10T07:45:24Z,633398.551,NULL,NA,NA,NA,NA,NA,NA,NA,NA,NA,28,NA,NA,NA,NA,NA,NA,NA,NA,NA,NA,NA,NA,NA,NA,NA,NA,NA,NA,NA
1d6ae,check continue,flow.Sequence,3_0_29,NA,NA,skipped,NA,633384.8,NA,NA,633080.2,633384.9,2023-04-10T07:45:24Z,633398.551,NULL,NA,NA,NA,NA,NA,NA,NA,NA,NA,29,NA,NA,NA,NA,NA,NA,NA,NA,NA,NA,NA,NA,NA,NA,NA,NA,NA,NA,NA
1d6ae,until continue,flow.Loop,3_0,NA,NA,completion,431135.661,201911.3,201924.847,201944.539,633080.2,633384.9,2023-04-10T07:45:24Z,633398.551,NULL,NA,NA,NA,NA,NA,NA,NA,NA,NA,NA,NA,NA,NA,NA,NA,NA,NA,NA,NA,NA,NA,NA,NA,NA,NA,NA,NA,NA,NA
1d6ae,block 1,flow.Sequence,3,NA,NA,completion,431135.661,201911.2,201924.847,201944.539,633080.2,633384.9,2023-04-10T07:45:24Z,633398.551,NULL,NA,NA,NA,NA,NA,NA,NA,NA,NA,NA,NA,NA,NA,NA,NA,NA,NA,NA,NA,NA,NA,NA,NA,NA,NA,NA,NA,NA,NA
1d6ae,1.Part Over,canvas.Screen,4,NA,keypress(Space),response,6461.949,633384.9,633382.422,633398.551,639860.5,639862.1,2023-04-10T07:45:30Z,639929.943,NULL,NA,NA,NA,NA,NA,NA,NA,NA,NA,NA,NA,NA,NA,NA,NA,NA,NA,NA,NA,NA,NA,NA,NA,NA,NA,NA,NA,NA,NA
1d6ae,deep,flow.Sequence,5_0_0_0_0_0,NA,NA,skipped,NA,639913.9,NA,NA,639860.5,639914,2023-04-10T07:45:31Z,639929.943,NULL,Kultur,utamaduni,s,shetani,gerezani,mazingira,NA,sdf,NA,0,NA,NA,NA,NA,NA,NA,NA,NA,NA,NA,NA,NA,NA,NA,NA,NA,NA,NA,NA
1d6ae,Shallow Question,html.Page,5_0_0_0_0_1_0,NA,NA,form submission,4595.2569999998,639914,639913.523,639929.943,644525.2,644525.4,2023-04-10T07:45:35Z,644528.151,NULL,Kultur,utamaduni,s,shetani,gerezani,mazingira,shetani,NA,NA,0,NA,NA,NA,NA,NA,NA,NA,NA,NA,NA,NA,NA,NA,NA,NA,NA,NA,NA,NA
1d6ae,"""Richtig""-Screen",canvas.Screen,5_0_0_0_0_1_1,NA,NA,skipped,NA,644527.5,NA,NA,644525.2,644527.5,2023-04-10T07:45:35Z,644528.151,NULL,Kultur,utamaduni,s,shetani,gerezani,mazingira,NA,sdf,NA,0,NA,NA,NA,NA,NA,NA,NA,NA,NA,NA,NA,NA,NA,NA,NA,NA,NA,NA,NA
1d6ae,"""Falsch""-Screen",canvas.Screen,5_0_0_0_0_1_2,NA,NA,timeout,4998.2540000001,644528.1,644511.564,644528.151,649510.057,649511,2023-04-10T07:45:40Z,649526.405,NULL,Kultur,utamaduni,s,shetani,gerezani,mazingira,NA,sdf,0,0,NA,NA,NA,NA,NA,NA,NA,NA,NA,NA,NA,NA,NA,NA,NA,NA,NA,NA,NA
1d6ae,shallow,flow.Sequence,5_0_0_0_0_1,NA,NA,completion,9580.1140000001,639914,639913.523,639929.943,649510.057,649511.4,2023-04-10T07:45:40Z,649526.405,NULL,Kultur,utamaduni,s,shetani,gerezani,mazingira,NA,sdf,NA,0,NA,NA,NA,NA,NA,NA,NA,NA,NA,NA,NA,NA,NA,NA,NA,NA,NA,NA,NA
1d6ae,task,flow.Sequence,5_0_0_0_0,NA,NA,completion,9580.1140000001,639913.8,639913.523,639929.943,649510.057,649511.6,2023-04-10T07:45:40Z,649526.405,NULL,Kultur,utamaduni,s,shetani,gerezani,mazingira,NA,sdf,NA,0,NA,NA,NA,NA,NA,NA,NA,NA,NA,NA,NA,NA,NA,NA,NA,NA,NA,NA,NA
1d6ae,Deep Question,html.Page,5_0_0_0_1_0_0,NA,NA,form submission,2377.1950000001,649511.9,649510.057,649526.405,651903.6,651903.9,2023-04-10T07:45:43Z,651908.97,NULL,Prüfung,mtihani,d,NA,NA,NA,f,NA,NA,0,NA,NA,NA,NA,NA,NA,NA,NA,NA,NA,NA,NA,NA,NA,NA,NA,NA,NA,NA
1d6ae,"""Richtig""-Screen",canvas.Screen,5_0_0_0_1_0_1,NA,NA,skipped,NA,651906.1,NA,NA,651903.6,651906.2,2023-04-10T07:45:43Z,651908.97,NULL,Prüfung,mtihani,d,NA,NA,NA,NA,sdf,NA,0,NA,NA,NA,NA,NA,NA,NA,NA,NA,NA,NA,NA,NA,NA,NA,NA,NA,NA,NA
1d6ae,"""Falsch""-Screen",canvas.Screen,5_0_0_0_1_0_2,NA,NA,timeout,4998.831,651906.9,651892.599,651908.97,656890.896,656891.8,2023-04-10T07:45:47Z,656907.801,NULL,Prüfung,mtihani,d,NA,NA,NA,NA,sdf,0,0,NA,NA,NA,NA,NA,NA,NA,NA,NA,NA,NA,NA,NA,NA,NA,NA,NA,NA,NA
1d6ae,deep,flow.Sequence,5_0_0_0_1_0,NA,NA,completion,7364.4909999999,649511.8,649510.057,649526.405,656890.896,656892.1,2023-04-10T07:45:47Z,656907.801,NULL,Prüfung,mtihani,d,NA,NA,NA,NA,sdf,NA,0,NA,NA,NA,NA,NA,NA,NA,NA,NA,NA,NA,NA,NA,NA,NA,NA,NA,NA,NA
1d6ae,shallow,flow.Sequence,5_0_0_0_1_1,NA,NA,skipped,NA,656892.2,NA,NA,656890.896,656892.3,2023-04-10T07:45:47Z,656907.801,NULL,Prüfung,mtihani,d,NA,NA,NA,NA,sdf,NA,0,NA,NA,NA,NA,NA,NA,NA,NA,NA,NA,NA,NA,NA,NA,NA,NA,NA,NA,NA
1d6ae,task,flow.Sequence,5_0_0_0_1,NA,NA,completion,7364.4909999999,649511.7,649510.057,649526.405,656890.896,656892.5,2023-04-10T07:45:47Z,656907.801,NULL,Prüfung,mtihani,d,NA,NA,NA,NA,sdf,NA,0,NA,NA,NA,NA,NA,NA,NA,NA,NA,NA,NA,NA,NA,NA,NA,NA,NA,NA,NA
1d6ae,Deep Question,html.Page,5_0_0_0_2_0_0,NA,NA,form submission,2457.7990000001,656892.6,656890.896,656907.801,659365.6,659365.8,2023-04-10T07:45:50Z,659377.74,NULL,Aufstand,ugomaji,d,NA,NA,NA,f,NA,NA,0,NA,NA,NA,NA,NA,NA,NA,NA,NA,NA,NA,NA,NA,NA,NA,NA,NA,NA,NA
1d6ae,"""Richtig""-Screen",canvas.Screen,5_0_0_0_2_0_1,NA,NA,skipped,NA,659367.9,NA,NA,659365.6,659368,2023-04-10T07:45:50Z,659377.74,NULL,Aufstand,ugomaji,d,NA,NA,NA,NA,sdf,NA,0,NA,NA,NA,NA,NA,NA,NA,NA,NA,NA,NA,NA,NA,NA,NA,NA,NA,NA,NA
1d6ae,"""Falsch""-Screen",canvas.Screen,5_0_0_0_2_0_2,NA,NA,timeout,4994.004,659368.7,659356.755,659377.74,664354.945,664355.9,2023-04-10T07:45:55Z,664371.744,NULL,Aufstand,ugomaji,d,NA,NA,NA,NA,sdf,0,0,NA,NA,NA,NA,NA,NA,NA,NA,NA,NA,NA,NA,NA,NA,NA,NA,NA,NA,NA
1d6ae,deep,flow.Sequence,5_0_0_0_2_0,NA,NA,completion,7447.144,656892.6,656890.896,656907.801,664354.945,664356.1,2023-04-10T07:45:55Z,664371.744,NULL,Aufstand,ugomaji,d,NA,NA,NA,NA,sdf,NA,0,NA,NA,NA,NA,NA,NA,NA,NA,NA,NA,NA,NA,NA,NA,NA,NA,NA,NA,NA
1d6ae,shallow,flow.Sequence,5_0_0_0_2_1,NA,NA,skipped,NA,664356.2,NA,NA,664354.945,664356.4,2023-04-10T07:45:55Z,664371.744,NULL,Aufstand,ugomaji,d,NA,NA,NA,NA,sdf,NA,0,NA,NA,NA,NA,NA,NA,NA,NA,NA,NA,NA,NA,NA,NA,NA,NA,NA,NA,NA
1d6ae,task,flow.Sequence,5_0_0_0_2,NA,NA,completion,7447.144,656892.5,656890.896,656907.801,664354.945,664356.4,2023-04-10T07:45:55Z,664371.744,NULL,Aufstand,ugomaji,d,NA,NA,NA,NA,sdf,NA,0,NA,NA,NA,NA,NA,NA,NA,NA,NA,NA,NA,NA,NA,NA,NA,NA,NA,NA,NA
1d6ae,deep,flow.Sequence,5_0_0_0_3_0,NA,NA,skipped,NA,664356.5,NA,NA,664354.945,664356.6,2023-04-10T07:45:55Z,664371.744,NULL,Begegnung,kukutana,s,mmasihiya,mpiganaji,husiano,NA,sdf,NA,0,NA,NA,NA,NA,NA,NA,NA,NA,NA,NA,NA,NA,NA,NA,NA,NA,NA,NA,NA
1d6ae,Shallow Question,html.Page,5_0_0_0_3_1_0,NA,NA,form submission,3276.4559999998,664356.8,664354.945,664371.744,667648.2,667648.5,2023-04-10T07:45:58Z,667653.637,NULL,Begegnung,kukutana,s,mmasihiya,mpiganaji,husiano,kukutana,NA,NA,0,NA,NA,NA,NA,NA,NA,NA,NA,NA,NA,NA,NA,NA,NA,NA,NA,NA,NA,NA
1d6ae,"""Richtig""-Screen",canvas.Screen,5_0_0_0_3_1_1,NA,NA,timeout,4998.4080000001,667650.4,667638.022,667653.637,672635.607,672636.7,2023-04-10T07:46:03Z,672652.045,NULL,Begegnung,kukutana,s,mmasihiya,mpiganaji,husiano,NA,sdf,1,0,NA,NA,NA,NA,NA,NA,NA,NA,NA,NA,NA,NA,NA,NA,NA,NA,NA,NA,NA
1d6ae,"""Falsch""-Screen",canvas.Screen,5_0_0_0_3_1_2,NA,NA,skipped,NA,672640.6,NA,NA,672635.607,672640.9,2023-04-10T07:46:03Z,672652.045,NULL,Begegnung,kukutana,s,mmasihiya,mpiganaji,husiano,NA,sdf,NA,0,NA,NA,NA,NA,NA,NA,NA,NA,NA,NA,NA,NA,NA,NA,NA,NA,NA,NA,NA
1d6ae,shallow,flow.Sequence,5_0_0_0_3_1,NA,NA,completion,8263.863,664356.7,664354.945,664371.744,672635.607,672641,2023-04-10T07:46:03Z,672652.045,NULL,Begegnung,kukutana,s,mmasihiya,mpiganaji,husiano,NA,sdf,NA,0,NA,NA,NA,NA,NA,NA,NA,NA,NA,NA,NA,NA,NA,NA,NA,NA,NA,NA,NA
1d6ae,task,flow.Sequence,5_0_0_0_3,NA,NA,completion,8263.863,664356.5,664354.945,664371.744,672635.607,672641.1,2023-04-10T07:46:03Z,672652.045,NULL,Begegnung,kukutana,s,mmasihiya,mpiganaji,husiano,NA,sdf,NA,0,NA,NA,NA,NA,NA,NA,NA,NA,NA,NA,NA,NA,NA,NA,NA,NA,NA,NA,NA
1d6ae,Deep Question,html.Page,5_0_0_0_4_0_0,NA,NA,form submission,5758.6549999997,672641.2,672635.607,672652.045,678410.7,678410.8,2023-04-10T07:46:09Z,678416.648,NULL,Fleisch,mshakiki,d,NA,NA,NA,f,NA,NA,0,NA,NA,NA,NA,NA,NA,NA,NA,NA,NA,NA,NA,NA,NA,NA,NA,NA,NA,NA
1d6ae,"""Richtig""-Screen",canvas.Screen,5_0_0_0_4_0_1,NA,NA,skipped,NA,678412.9,NA,NA,678410.7,678413,2023-04-10T07:46:09Z,678416.648,NULL,Fleisch,mshakiki,d,NA,NA,NA,NA,sdf,NA,0,NA,NA,NA,NA,NA,NA,NA,NA,NA,NA,NA,NA,NA,NA,NA,NA,NA,NA,NA
1d6ae,"""Falsch""-Screen",canvas.Screen,5_0_0_0_4_0_2,NA,NA,timeout,4998.651,678413.4,678400.536,678416.648,683398.668,683400.3,2023-04-10T07:46:14Z,683415.299,NULL,Fleisch,mshakiki,d,NA,NA,NA,NA,sdf,0,0,NA,NA,NA,NA,NA,NA,NA,NA,NA,NA,NA,NA,NA,NA,NA,NA,NA,NA,NA
1d6ae,deep,flow.Sequence,5_0_0_0_4_0,NA,NA,completion,10746.623,672641.2,672635.607,672652.045,683398.668,683400.8,2023-04-10T07:46:14Z,683415.299,NULL,Fleisch,mshakiki,d,NA,NA,NA,NA,sdf,NA,0,NA,NA,NA,NA,NA,NA,NA,NA,NA,NA,NA,NA,NA,NA,NA,NA,NA,NA,NA
1d6ae,shallow,flow.Sequence,5_0_0_0_4_1,NA,NA,skipped,NA,683400.9,NA,NA,683398.668,683401.2,2023-04-10T07:46:14Z,683415.299,NULL,Fleisch,mshakiki,d,NA,NA,NA,NA,sdf,NA,0,NA,NA,NA,NA,NA,NA,NA,NA,NA,NA,NA,NA,NA,NA,NA,NA,NA,NA,NA
1d6ae,task,flow.Sequence,5_0_0_0_4,NA,NA,completion,10746.623,672641.2,672635.607,672652.045,683398.668,683401.5,2023-04-10T07:46:14Z,683415.299,NULL,Fleisch,mshakiki,d,NA,NA,NA,NA,sdf,NA,0,NA,NA,NA,NA,NA,NA,NA,NA,NA,NA,NA,NA,NA,NA,NA,NA,NA,NA,NA
1d6ae,Deep Question,html.Page,5_0_0_0_5_0_0,NA,NA,form submission,4214.5009999998,683401.7,683398.668,683415.299,687629.8,687630,2023-04-10T07:46:18Z,687650.178,NULL,Integrität,uadilifu,d,NA,NA,NA,r,NA,NA,0,NA,NA,NA,NA,NA,NA,NA,NA,NA,NA,NA,NA,NA,NA,NA,NA,NA,NA,NA
1d6ae,"""Richtig""-Screen",canvas.Screen,5_0_0_0_5_0_1,NA,NA,skipped,NA,687632.3,NA,NA,687629.8,687632.4,2023-04-10T07:46:18Z,687650.178,NULL,Integrität,uadilifu,d,NA,NA,NA,NA,sdf,NA,0,NA,NA,NA,NA,NA,NA,NA,NA,NA,NA,NA,NA,NA,NA,NA,NA,NA,NA,NA
1d6ae,"""Falsch""-Screen",canvas.Screen,5_0_0_0_5_0_2,NA,NA,timeout,4995.182,687632.9,687613.995,687650.178,692628.832,692629.8,2023-04-10T07:46:23Z,692645.36,NULL,Integrität,uadilifu,d,NA,NA,NA,NA,sdf,0,0,NA,NA,NA,NA,NA,NA,NA,NA,NA,NA,NA,NA,NA,NA,NA,NA,NA,NA,NA
1d6ae,deep,flow.Sequence,5_0_0_0_5_0,NA,NA,completion,9213.5330000001,683401.6,683398.668,683415.299,692628.832,692630,2023-04-10T07:46:23Z,692645.36,NULL,Integrität,uadilifu,d,NA,NA,NA,NA,sdf,NA,0,NA,NA,NA,NA,NA,NA,NA,NA,NA,NA,NA,NA,NA,NA,NA,NA,NA,NA,NA
1d6ae,shallow,flow.Sequence,5_0_0_0_5_1,NA,NA,skipped,NA,692630.1,NA,NA,692628.832,692630.2,2023-04-10T07:46:23Z,692645.36,NULL,Integrität,uadilifu,d,NA,NA,NA,NA,sdf,NA,0,NA,NA,NA,NA,NA,NA,NA,NA,NA,NA,NA,NA,NA,NA,NA,NA,NA,NA,NA
1d6ae,task,flow.Sequence,5_0_0_0_5,NA,NA,completion,9213.5330000001,683401.5,683398.668,683415.299,692628.832,692630.3,2023-04-10T07:46:23Z,692645.36,NULL,Integrität,uadilifu,d,NA,NA,NA,NA,sdf,NA,0,NA,NA,NA,NA,NA,NA,NA,NA,NA,NA,NA,NA,NA,NA,NA,NA,NA,NA,NA
1d6ae,deep,flow.Sequence,5_0_0_0_6_0,NA,NA,skipped,NA,692630.5,NA,NA,692628.832,692630.5,2023-04-10T07:46:23Z,692645.36,NULL,Verzögerung,kuchelewa,s,mwakilishi,mwanauchumi,jaribio,NA,sdf,NA,0,NA,NA,NA,NA,NA,NA,NA,NA,NA,NA,NA,NA,NA,NA,NA,NA,NA,NA,NA
1d6ae,Shallow Question,html.Page,5_0_0_0_6_1_0,NA,NA,form submission,3427.2400000001,692630.6,692628.832,692645.36,696072.6,696072.8,2023-04-10T07:46:27Z,696077.365,NULL,Verzögerung,kuchelewa,s,mwakilishi,mwanauchumi,jaribio,jaribio,NA,NA,0,NA,NA,NA,NA,NA,NA,NA,NA,NA,NA,NA,NA,NA,NA,NA,NA,NA,NA,NA
1d6ae,"""Richtig""-Screen",canvas.Screen,5_0_0_0_6_1_1,NA,NA,skipped,NA,696074.7,NA,NA,696072.6,696074.8,2023-04-10T07:46:27Z,696077.365,NULL,Verzögerung,kuchelewa,s,mwakilishi,mwanauchumi,jaribio,NA,sdf,NA,0,NA,NA,NA,NA,NA,NA,NA,NA,NA,NA,NA,NA,NA,NA,NA,NA,NA,NA,NA
1d6ae,"""Falsch""-Screen",canvas.Screen,5_0_0_0_6_1_2,NA,NA,timeout,4998.662,696075.4,696061.589,696077.365,701059.315,701060.2,2023-04-10T07:46:32Z,701076.027,NULL,Verzögerung,kuchelewa,s,mwakilishi,mwanauchumi,jaribio,NA,sdf,0,0,NA,NA,NA,NA,NA,NA,NA,NA,NA,NA,NA,NA,NA,NA,NA,NA,NA,NA,NA
1d6ae,shallow,flow.Sequence,5_0_0_0_6_1,NA,NA,completion,8413.955,692630.6,692628.832,692645.36,701059.315,701060.5,2023-04-10T07:46:32Z,701076.027,NULL,Verzögerung,kuchelewa,s,mwakilishi,mwanauchumi,jaribio,NA,sdf,NA,0,NA,NA,NA,NA,NA,NA,NA,NA,NA,NA,NA,NA,NA,NA,NA,NA,NA,NA,NA
1d6ae,task,flow.Sequence,5_0_0_0_6,NA,NA,completion,8413.955,692630.5,692628.832,692645.36,701059.315,701060.8,2023-04-10T07:46:32Z,701076.027,NULL,Verzögerung,kuchelewa,s,mwakilishi,mwanauchumi,jaribio,NA,sdf,NA,0,NA,NA,NA,NA,NA,NA,NA,NA,NA,NA,NA,NA,NA,NA,NA,NA,NA,NA,NA
1d6ae,deep,flow.Sequence,5_0_0_0_7_0,NA,NA,skipped,NA,701060.9,NA,NA,701059.315,701061,2023-04-10T07:46:32Z,701076.027,NULL,Genehmigung,idhini,s,mwanamke,itikadi,fedheha,NA,sdf,NA,0,NA,NA,NA,NA,NA,NA,NA,NA,NA,NA,NA,NA,NA,NA,NA,NA,NA,NA,NA
1d6ae,Shallow Question,html.Page,5_0_0_0_7_1_0,NA,NA,form submission,4079.973,701061,701059.315,701076.027,705156,705156.2,2023-04-10T07:46:36Z,705157.672,NULL,Genehmigung,idhini,s,mwanamke,itikadi,fedheha,mwanamke,NA,NA,0,NA,NA,NA,NA,NA,NA,NA,NA,NA,NA,NA,NA,NA,NA,NA,NA,NA,NA,NA
1d6ae,"""Richtig""-Screen",canvas.Screen,5_0_0_0_7_1_1,NA,NA,skipped,NA,705158.4,NA,NA,705156,705158.4,2023-04-10T07:46:36Z,705157.672,NULL,Genehmigung,idhini,s,mwanamke,itikadi,fedheha,NA,sdf,NA,0,NA,NA,NA,NA,NA,NA,NA,NA,NA,NA,NA,NA,NA,NA,NA,NA,NA,NA,NA
1d6ae,"""Falsch""-Screen",canvas.Screen,5_0_0_0_7_1_2,NA,NA,timeout,4998.584,705159,705140.96,705157.672,710139.577,710140.4,2023-04-10T07:46:41Z,710156.256,NULL,Genehmigung,idhini,s,mwanamke,itikadi,fedheha,NA,sdf,0,0,NA,NA,NA,NA,NA,NA,NA,NA,NA,NA,NA,NA,NA,NA,NA,NA,NA,NA,NA
1d6ae,shallow,flow.Sequence,5_0_0_0_7_1,NA,NA,completion,9063.55,701061,701059.315,701076.027,710139.577,710140.7,2023-04-10T07:46:41Z,710156.256,NULL,Genehmigung,idhini,s,mwanamke,itikadi,fedheha,NA,sdf,NA,0,NA,NA,NA,NA,NA,NA,NA,NA,NA,NA,NA,NA,NA,NA,NA,NA,NA,NA,NA
1d6ae,task,flow.Sequence,5_0_0_0_7,NA,NA,completion,9063.55,701060.8,701059.315,701076.027,710139.577,710140.9,2023-04-10T07:46:41Z,710156.256,NULL,Genehmigung,idhini,s,mwanamke,itikadi,fedheha,NA,sdf,NA,0,NA,NA,NA,NA,NA,NA,NA,NA,NA,NA,NA,NA,NA,NA,NA,NA,NA,NA,NA
1d6ae,block,flow.Loop,5_0_0_0,NA,NA,completion,70209.634,639913.8,639913.523,639929.943,710139.577,710141,2023-04-10T07:46:41Z,710156.256,NULL,NA,NA,NA,NA,NA,NA,NA,sdf,NA,0,NA,NA,NA,NA,NA,NA,NA,NA,NA,NA,NA,NA,NA,NA,NA,NA,NA,NA,NA
1d6ae,weiter,canvas.Screen,5_0_0_1,sdf,keypress(Space),response,1301.4439999997,710141.1,710139.577,710156.256,711457.7,711462.1,2023-04-10T07:46:42Z,711505.447,NULL,NA,NA,NA,NA,NA,NA,NA,sdf,NA,0,NA,NA,NA,NA,NA,NA,NA,NA,NA,NA,NA,NA,NA,NA,NA,NA,NA,NA,NA
1d6ae,check continue,flow.Sequence,5_0_0,NA,NA,completion,71527.757,639913.8,639913.523,639929.943,711457.7,711462.4,2023-04-10T07:46:42Z,711505.447,NULL,NA,NA,NA,NA,NA,NA,NA,sdf,NA,0,NA,NA,NA,NA,NA,NA,NA,NA,NA,NA,NA,NA,NA,NA,NA,NA,NA,NA,NA
1d6ae,Deep Question,html.Page,5_0_1_0_0_0_0,NA,NA,form submission,3354.4529999999,711501.9,711489.702,711505.447,714859.9,714860.1,2023-04-10T07:46:45Z,714871.236,NULL,Prüfung,mtihani,d,NA,NA,NA,p,NA,NA,1,NA,NA,NA,NA,NA,NA,NA,NA,NA,NA,NA,NA,NA,NA,NA,NA,NA,NA,NA
1d6ae,"""Richtig""-Screen",canvas.Screen,5_0_1_0_0_0_1,NA,NA,skipped,NA,714861,NA,NA,714859.9,714861.1,2023-04-10T07:46:45Z,714871.236,NULL,Prüfung,mtihani,d,NA,NA,NA,NA,sdfdsf,NA,1,NA,NA,NA,NA,NA,NA,NA,NA,NA,NA,NA,NA,NA,NA,NA,NA,NA,NA,NA
1d6ae,"""Falsch""-Screen",canvas.Screen,5_0_1_0_0_0_2,NA,NA,timeout,4998.4129999999,714861.7,714854.624,714871.236,719852.971,719853.9,2023-04-10T07:46:50Z,719869.649,NULL,Prüfung,mtihani,d,NA,NA,NA,NA,sdfdsf,0,1,NA,NA,NA,NA,NA,NA,NA,NA,NA,NA,NA,NA,NA,NA,NA,NA,NA,NA,NA
1d6ae,deep,flow.Sequence,5_0_1_0_0_0,NA,NA,completion,8347.524,711501.9,711489.702,711505.447,719852.971,719854.2,2023-04-10T07:46:50Z,719869.649,NULL,Prüfung,mtihani,d,NA,NA,NA,NA,sdfdsf,NA,1,NA,NA,NA,NA,NA,NA,NA,NA,NA,NA,NA,NA,NA,NA,NA,NA,NA,NA,NA
1d6ae,shallow,flow.Sequence,5_0_1_0_0_1,NA,NA,skipped,NA,719854.3,NA,NA,719852.971,719854.3,2023-04-10T07:46:50Z,719869.649,NULL,Prüfung,mtihani,d,NA,NA,NA,NA,sdfdsf,NA,1,NA,NA,NA,NA,NA,NA,NA,NA,NA,NA,NA,NA,NA,NA,NA,NA,NA,NA,NA
1d6ae,task,flow.Sequence,5_0_1_0_0,NA,NA,completion,8347.524,711501.9,711489.702,711505.447,719852.971,719854.5,2023-04-10T07:46:50Z,719869.649,NULL,Prüfung,mtihani,d,NA,NA,NA,NA,sdfdsf,NA,1,NA,NA,NA,NA,NA,NA,NA,NA,NA,NA,NA,NA,NA,NA,NA,NA,NA,NA,NA
1d6ae,deep,flow.Sequence,5_0_1_0_1_0,NA,NA,skipped,NA,719854.6,NA,NA,719852.971,719854.7,2023-04-10T07:46:50Z,719869.649,NULL,Verzögerung,kuchelewa,s,mwakilishi,mwanauchumi,jaribio,NA,sdfdsf,NA,1,NA,NA,NA,NA,NA,NA,NA,NA,NA,NA,NA,NA,NA,NA,NA,NA,NA,NA,NA
1d6ae,Shallow Question,html.Page,5_0_1_0_1_1_0,NA,NA,form submission,8716.7509999999,719854.7,719852.971,719869.649,728586.4,728586.7,2023-04-10T07:46:59Z,728599.944,NULL,Verzögerung,kuchelewa,s,mwakilishi,mwanauchumi,jaribio,kuchelewa,NA,NA,1,NA,NA,NA,NA,NA,NA,NA,NA,NA,NA,NA,NA,NA,NA,NA,NA,NA,NA,NA
1d6ae,"""Richtig""-Screen",canvas.Screen,5_0_1_0_1_1_1,NA,NA,timeout,4998.0429999999,728589,728583.325,728599.944,733581.528,733582.4,2023-04-10T07:47:04Z,733597.987,NULL,Verzögerung,kuchelewa,s,mwakilishi,mwanauchumi,jaribio,NA,sdfdsf,1,1,NA,NA,NA,NA,NA,NA,NA,NA,NA,NA,NA,NA,NA,NA,NA,NA,NA,NA,NA
1d6ae,"""Falsch""-Screen",canvas.Screen,5_0_1_0_1_1_2,NA,NA,skipped,NA,733586.1,NA,NA,733581.528,733586.5,2023-04-10T07:47:04Z,733597.987,NULL,Verzögerung,kuchelewa,s,mwakilishi,mwanauchumi,jaribio,NA,sdfdsf,NA,1,NA,NA,NA,NA,NA,NA,NA,NA,NA,NA,NA,NA,NA,NA,NA,NA,NA,NA,NA
1d6ae,shallow,flow.Sequence,5_0_1_0_1_1,NA,NA,completion,13711.879,719854.7,719852.971,719869.649,733581.528,733586.8,2023-04-10T07:47:04Z,733597.987,NULL,Verzögerung,kuchelewa,s,mwakilishi,mwanauchumi,jaribio,NA,sdfdsf,NA,1,NA,NA,NA,NA,NA,NA,NA,NA,NA,NA,NA,NA,NA,NA,NA,NA,NA,NA,NA
1d6ae,task,flow.Sequence,5_0_1_0_1,NA,NA,completion,13711.879,719854.5,719852.971,719869.649,733581.528,733586.8,2023-04-10T07:47:04Z,733597.987,NULL,Verzögerung,kuchelewa,s,mwakilishi,mwanauchumi,jaribio,NA,sdfdsf,NA,1,NA,NA,NA,NA,NA,NA,NA,NA,NA,NA,NA,NA,NA,NA,NA,NA,NA,NA,NA
1d6ae,Deep Question,html.Page,5_0_1_0_2_0_0,NA,NA,form submission,3073.7129999998,733586.8,733581.528,733597.987,736671.7,736672,2023-04-10T07:47:07Z,736680.502,NULL,Aufstand,ugomaji,d,NA,NA,NA,l,NA,NA,1,NA,NA,NA,NA,NA,NA,NA,NA,NA,NA,NA,NA,NA,NA,NA,NA,NA,NA,NA
1d6ae,"""Richtig""-Screen",canvas.Screen,5_0_1_0_2_0_1,NA,NA,skipped,NA,736674.3,NA,NA,736671.7,736674.4,2023-04-10T07:47:07Z,736680.502,NULL,Aufstand,ugomaji,d,NA,NA,NA,NA,sdfdsf,NA,1,NA,NA,NA,NA,NA,NA,NA,NA,NA,NA,NA,NA,NA,NA,NA,NA,NA,NA,NA
1d6ae,"""Falsch""-Screen",canvas.Screen,5_0_1_0_2_0_2,NA,NA,timeout,4998.4330000001,736674.9,736663.911,736680.502,741662.268,741663.1,2023-04-10T07:47:12Z,741678.935,NULL,Aufstand,ugomaji,d,NA,NA,NA,NA,sdfdsf,0,1,NA,NA,NA,NA,NA,NA,NA,NA,NA,NA,NA,NA,NA,NA,NA,NA,NA,NA,NA
1d6ae,deep,flow.Sequence,5_0_1_0_2_0,NA,NA,completion,8064.2810000001,733586.8,733581.528,733597.987,741662.268,741663.4,2023-04-10T07:47:12Z,741678.935,NULL,Aufstand,ugomaji,d,NA,NA,NA,NA,sdfdsf,NA,1,NA,NA,NA,NA,NA,NA,NA,NA,NA,NA,NA,NA,NA,NA,NA,NA,NA,NA,NA
1d6ae,shallow,flow.Sequence,5_0_1_0_2_1,NA,NA,skipped,NA,741663.4,NA,NA,741662.268,741663.5,2023-04-10T07:47:12Z,741678.935,NULL,Aufstand,ugomaji,d,NA,NA,NA,NA,sdfdsf,NA,1,NA,NA,NA,NA,NA,NA,NA,NA,NA,NA,NA,NA,NA,NA,NA,NA,NA,NA,NA
1d6ae,task,flow.Sequence,5_0_1_0_2,NA,NA,completion,8064.2810000001,733586.8,733581.528,733597.987,741662.268,741663.6,2023-04-10T07:47:12Z,741678.935,NULL,Aufstand,ugomaji,d,NA,NA,NA,NA,sdfdsf,NA,1,NA,NA,NA,NA,NA,NA,NA,NA,NA,NA,NA,NA,NA,NA,NA,NA,NA,NA,NA
1d6ae,deep,flow.Sequence,5_0_1_0_3_0,NA,NA,skipped,NA,741663.7,NA,NA,741662.268,741663.8,2023-04-10T07:47:12Z,741678.935,NULL,Genehmigung,idhini,s,mwanamke,itikadi,fedheha,NA,sdfdsf,NA,1,NA,NA,NA,NA,NA,NA,NA,NA,NA,NA,NA,NA,NA,NA,NA,NA,NA,NA,NA
1d6ae,Shallow Question,html.Page,5_0_1_0_3_1_0,NA,NA,form submission,8305.165,741663.9,741662.268,741678.935,749984.1,749984.3,2023-04-10T07:47:21Z,749992.476,NULL,Genehmigung,idhini,s,mwanamke,itikadi,fedheha,idhini,NA,NA,1,NA,NA,NA,NA,NA,NA,NA,NA,NA,NA,NA,NA,NA,NA,NA,NA,NA,NA,NA
1d6ae,"""Richtig""-Screen",canvas.Screen,5_0_1_0_3_1_1,NA,NA,timeout,4998.6139999999,749986.5,749975.942,749992.476,754974.464,754975.4,2023-04-10T07:47:26Z,754991.09,NULL,Genehmigung,idhini,s,mwanamke,itikadi,fedheha,NA,sdfdsf,1,1,NA,NA,NA,NA,NA,NA,NA,NA,NA,NA,NA,NA,NA,NA,NA,NA,NA,NA,NA
1d6ae,"""Falsch""-Screen",canvas.Screen,5_0_1_0_3_1_2,NA,NA,skipped,NA,754979.2,NA,NA,754974.464,754979.2,2023-04-10T07:47:26Z,754991.09,NULL,Genehmigung,idhini,s,mwanamke,itikadi,fedheha,NA,sdfdsf,NA,1,NA,NA,NA,NA,NA,NA,NA,NA,NA,NA,NA,NA,NA,NA,NA,NA,NA,NA,NA
1d6ae,shallow,flow.Sequence,5_0_1_0_3_1,NA,NA,completion,13295.529,741663.9,741662.268,741678.935,754974.464,754979.3,2023-04-10T07:47:26Z,754991.09,NULL,Genehmigung,idhini,s,mwanamke,itikadi,fedheha,NA,sdfdsf,NA,1,NA,NA,NA,NA,NA,NA,NA,NA,NA,NA,NA,NA,NA,NA,NA,NA,NA,NA,NA
1d6ae,task,flow.Sequence,5_0_1_0_3,NA,NA,completion,13295.529,741663.7,741662.268,741678.935,754974.464,754979.3,2023-04-10T07:47:26Z,754991.09,NULL,Genehmigung,idhini,s,mwanamke,itikadi,fedheha,NA,sdfdsf,NA,1,NA,NA,NA,NA,NA,NA,NA,NA,NA,NA,NA,NA,NA,NA,NA,NA,NA,NA,NA
1d6ae,Deep Question,html.Page,5_0_1_0_4_0_0,NA,NA,form submission,9389.1099999998,754979.4,754974.464,754991.09,764380.2,764380.4,2023-04-10T07:47:35Z,764387.636,NULL,Fleisch,mshakiki,d,NA,NA,NA,mshakiki,NA,NA,1,NA,NA,NA,NA,NA,NA,NA,NA,NA,NA,NA,NA,NA,NA,NA,NA,NA,NA,NA
1d6ae,"""Richtig""-Screen",canvas.Screen,5_0_1_0_4_0_1,NA,NA,timeout,4998.3199999999,764382.4,764371.277,764387.636,769369.572,769375.8,2023-04-10T07:47:40Z,769385.956,NULL,Fleisch,mshakiki,d,NA,NA,NA,NA,sdfdsf,1,1,NA,NA,NA,NA,NA,NA,NA,NA,NA,NA,NA,NA,NA,NA,NA,NA,NA,NA,NA
1d6ae,"""Falsch""-Screen",canvas.Screen,5_0_1_0_4_0_2,NA,NA,skipped,NA,769379.5,NA,NA,769369.572,769379.8,2023-04-10T07:47:40Z,769385.956,NULL,Fleisch,mshakiki,d,NA,NA,NA,NA,sdfdsf,NA,1,NA,NA,NA,NA,NA,NA,NA,NA,NA,NA,NA,NA,NA,NA,NA,NA,NA,NA,NA
1d6ae,deep,flow.Sequence,5_0_1_0_4_0,NA,NA,completion,14378.482,754979.4,754974.464,754991.09,769369.572,769380,2023-04-10T07:47:40Z,769385.956,NULL,Fleisch,mshakiki,d,NA,NA,NA,NA,sdfdsf,NA,1,NA,NA,NA,NA,NA,NA,NA,NA,NA,NA,NA,NA,NA,NA,NA,NA,NA,NA,NA
1d6ae,shallow,flow.Sequence,5_0_1_0_4_1,NA,NA,skipped,NA,769380.1,NA,NA,769369.572,769380.2,2023-04-10T07:47:40Z,769385.956,NULL,Fleisch,mshakiki,d,NA,NA,NA,NA,sdfdsf,NA,1,NA,NA,NA,NA,NA,NA,NA,NA,NA,NA,NA,NA,NA,NA,NA,NA,NA,NA,NA
1d6ae,task,flow.Sequence,5_0_1_0_4,NA,NA,completion,14378.482,754979.4,754974.464,754991.09,769369.572,769380.3,2023-04-10T07:47:40Z,769385.956,NULL,Fleisch,mshakiki,d,NA,NA,NA,NA,sdfdsf,NA,1,NA,NA,NA,NA,NA,NA,NA,NA,NA,NA,NA,NA,NA,NA,NA,NA,NA,NA,NA
1d6ae,deep,flow.Sequence,5_0_1_0_5_0,NA,NA,skipped,NA,769380.4,NA,NA,769369.572,769380.5,2023-04-10T07:47:40Z,769385.956,NULL,Begegnung,kukutana,s,mmasihiya,mpiganaji,husiano,NA,sdfdsf,NA,1,NA,NA,NA,NA,NA,NA,NA,NA,NA,NA,NA,NA,NA,NA,NA,NA,NA,NA,NA
1d6ae,Shallow Question,html.Page,5_0_1_0_5_1_0,NA,NA,form submission,6679.1440000001,769380.6,769369.572,769385.956,776065.1,776065.3,2023-04-10T07:47:47Z,776067.051,NULL,Begegnung,kukutana,s,mmasihiya,mpiganaji,husiano,kukutana,NA,NA,1,NA,NA,NA,NA,NA,NA,NA,NA,NA,NA,NA,NA,NA,NA,NA,NA,NA,NA,NA
1d6ae,"""Richtig""-Screen",canvas.Screen,5_0_1_0_5_1_1,NA,NA,timeout,4998.581,776067.4,776051.71,776067.051,781048.972,781050,2023-04-10T07:47:52Z,781065.632,NULL,Begegnung,kukutana,s,mmasihiya,mpiganaji,husiano,NA,sdfdsf,1,1,NA,NA,NA,NA,NA,NA,NA,NA,NA,NA,NA,NA,NA,NA,NA,NA,NA,NA,NA
1d6ae,"""Falsch""-Screen",canvas.Screen,5_0_1_0_5_1_2,NA,NA,skipped,NA,781054.1,NA,NA,781048.972,781054.4,2023-04-10T07:47:52Z,781065.632,NULL,Begegnung,kukutana,s,mmasihiya,mpiganaji,husiano,NA,sdfdsf,NA,1,NA,NA,NA,NA,NA,NA,NA,NA,NA,NA,NA,NA,NA,NA,NA,NA,NA,NA,NA
1d6ae,shallow,flow.Sequence,5_0_1_0_5_1,NA,NA,completion,11663.016,769380.5,769369.572,769385.956,781048.972,781054.6,2023-04-10T07:47:52Z,781065.632,NULL,Begegnung,kukutana,s,mmasihiya,mpiganaji,husiano,NA,sdfdsf,NA,1,NA,NA,NA,NA,NA,NA,NA,NA,NA,NA,NA,NA,NA,NA,NA,NA,NA,NA,NA
1d6ae,task,flow.Sequence,5_0_1_0_5,NA,NA,completion,11663.016,769380.4,769369.572,769385.956,781048.972,781054.7,2023-04-10T07:47:52Z,781065.632,NULL,Begegnung,kukutana,s,mmasihiya,mpiganaji,husiano,NA,sdfdsf,NA,1,NA,NA,NA,NA,NA,NA,NA,NA,NA,NA,NA,NA,NA,NA,NA,NA,NA,NA,NA
1d6ae,Deep Question,html.Page,5_0_1_0_6_0_0,NA,NA,form submission,7729.1679999998,781054.9,781048.972,781065.632,788794.8,788795,2023-04-10T07:47:59Z,788796.014,NULL,Integrität,uadilifu,d,NA,NA,NA,l,NA,NA,1,NA,NA,NA,NA,NA,NA,NA,NA,NA,NA,NA,NA,NA,NA,NA,NA,NA,NA,NA
1d6ae,"""Richtig""-Screen",canvas.Screen,5_0_1_0_6_0_1,NA,NA,skipped,NA,788797.2,NA,NA,788794.8,788797.4,2023-04-10T07:47:59Z,788796.014,NULL,Integrität,uadilifu,d,NA,NA,NA,NA,sdfdsf,NA,1,NA,NA,NA,NA,NA,NA,NA,NA,NA,NA,NA,NA,NA,NA,NA,NA,NA,NA,NA
1d6ae,"""Falsch""-Screen",canvas.Screen,5_0_1_0_6_0_2,NA,NA,timeout,4998.615,788797.9,788779.71,788796.014,793777.996,793778.9,2023-04-10T07:48:04Z,793794.629,NULL,Integrität,uadilifu,d,NA,NA,NA,NA,sdfdsf,0,1,NA,NA,NA,NA,NA,NA,NA,NA,NA,NA,NA,NA,NA,NA,NA,NA,NA,NA,NA
1d6ae,deep,flow.Sequence,5_0_1_0_6_0,NA,NA,completion,12712.364,781054.8,781048.972,781065.632,793777.996,793779,2023-04-10T07:48:04Z,793794.629,NULL,Integrität,uadilifu,d,NA,NA,NA,NA,sdfdsf,NA,1,NA,NA,NA,NA,NA,NA,NA,NA,NA,NA,NA,NA,NA,NA,NA,NA,NA,NA,NA
1d6ae,shallow,flow.Sequence,5_0_1_0_6_1,NA,NA,skipped,NA,793779.2,NA,NA,793777.996,793779.2,2023-04-10T07:48:04Z,793794.629,NULL,Integrität,uadilifu,d,NA,NA,NA,NA,sdfdsf,NA,1,NA,NA,NA,NA,NA,NA,NA,NA,NA,NA,NA,NA,NA,NA,NA,NA,NA,NA,NA
1d6ae,task,flow.Sequence,5_0_1_0_6,NA,NA,completion,12712.364,781054.7,781048.972,781065.632,793777.996,793779.4,2023-04-10T07:48:04Z,793794.629,NULL,Integrität,uadilifu,d,NA,NA,NA,NA,sdfdsf,NA,1,NA,NA,NA,NA,NA,NA,NA,NA,NA,NA,NA,NA,NA,NA,NA,NA,NA,NA,NA
1d6ae,deep,flow.Sequence,5_0_1_0_7_0,NA,NA,skipped,NA,793779.5,NA,NA,793777.996,793779.5,2023-04-10T07:48:04Z,793794.629,NULL,Kultur,utamaduni,s,shetani,gerezani,mazingira,NA,sdfdsf,NA,1,NA,NA,NA,NA,NA,NA,NA,NA,NA,NA,NA,NA,NA,NA,NA,NA,NA,NA,NA
1d6ae,Shallow Question,html.Page,5_0_1_0_7_1_0,NA,NA,form submission,4643.871,793779.6,793777.996,793794.629,798438.5,798438.7,2023-04-10T07:48:09Z,798442.755,NULL,Kultur,utamaduni,s,shetani,gerezani,mazingira,shetani,NA,NA,1,NA,NA,NA,NA,NA,NA,NA,NA,NA,NA,NA,NA,NA,NA,NA,NA,NA,NA,NA
1d6ae,"""Richtig""-Screen",canvas.Screen,5_0_1_0_7_1_1,NA,NA,skipped,NA,798440.8,NA,NA,798438.5,798440.9,2023-04-10T07:48:09Z,798442.755,NULL,Kultur,utamaduni,s,shetani,gerezani,mazingira,NA,sdfdsf,NA,1,NA,NA,NA,NA,NA,NA,NA,NA,NA,NA,NA,NA,NA,NA,NA,NA,NA,NA,NA
1d6ae,"""Falsch""-Screen",canvas.Screen,5_0_1_0_7_1_2,NA,NA,timeout,4998.669,798441.5,798426.373,798442.755,803424.744,803425.6,2023-04-10T07:48:14Z,803441.424,NULL,Kultur,utamaduni,s,shetani,gerezani,mazingira,NA,sdfdsf,0,1,NA,NA,NA,NA,NA,NA,NA,NA,NA,NA,NA,NA,NA,NA,NA,NA,NA,NA,NA
1d6ae,shallow,flow.Sequence,5_0_1_0_7_1,NA,NA,completion,9630.115,793779.6,793777.996,793794.629,803424.744,803425.9,2023-04-10T07:48:14Z,803441.424,NULL,Kultur,utamaduni,s,shetani,gerezani,mazingira,NA,sdfdsf,NA,1,NA,NA,NA,NA,NA,NA,NA,NA,NA,NA,NA,NA,NA,NA,NA,NA,NA,NA,NA
1d6ae,task,flow.Sequence,5_0_1_0_7,NA,NA,completion,9630.115,793779.4,793777.996,793794.629,803424.744,803426.1,2023-04-10T07:48:14Z,803441.424,NULL,Kultur,utamaduni,s,shetani,gerezani,mazingira,NA,sdfdsf,NA,1,NA,NA,NA,NA,NA,NA,NA,NA,NA,NA,NA,NA,NA,NA,NA,NA,NA,NA,NA
1d6ae,block,flow.Loop,5_0_1_0,NA,NA,completion,91919.297,711501.9,711489.702,711505.447,803424.744,803426.2,2023-04-10T07:48:14Z,803441.424,NULL,NA,NA,NA,NA,NA,NA,NA,sdfdsf,NA,1,NA,NA,NA,NA,NA,NA,NA,NA,NA,NA,NA,NA,NA,NA,NA,NA,NA,NA,NA
1d6ae,weiter,canvas.Screen,5_0_1_1,sdf,keypress(Space),response,971.67600000009,803426.3,803424.744,803441.424,804413.1,804417.3,2023-04-10T07:48:15Z,804457.405,NULL,NA,NA,NA,NA,NA,NA,NA,sdfdsf,NA,1,NA,NA,NA,NA,NA,NA,NA,NA,NA,NA,NA,NA,NA,NA,NA,NA,NA,NA,NA
1d6ae,check continue,flow.Sequence,5_0_1,NA,NA,completion,92907.653,711501.9,711489.702,711505.447,804413.1,804417.5,2023-04-10T07:48:15Z,804457.405,NULL,NA,NA,NA,NA,NA,NA,NA,sdfdsf,NA,1,NA,NA,NA,NA,NA,NA,NA,NA,NA,NA,NA,NA,NA,NA,NA,NA,NA,NA,NA
1d6ae,Deep Question,html.Page,5_0_2_0_0_0_0,NA,NA,form submission,21711.295,804450.5,804441.414,804457.405,826168.7,826169,2023-04-10T07:48:37Z,826183.576,NULL,Prüfung,mtihani,d,NA,NA,NA,mtitana,NA,NA,2,NA,NA,NA,NA,NA,NA,NA,NA,NA,NA,NA,NA,NA,NA,NA,NA,NA,NA,NA
1d6ae,"""Richtig""-Screen",canvas.Screen,5_0_2_0_0_0_1,NA,NA,skipped,NA,826171.3,NA,NA,826168.7,826171.4,2023-04-10T07:48:37Z,826183.576,NULL,Prüfung,mtihani,d,NA,NA,NA,NA,sdf,NA,2,NA,NA,NA,NA,NA,NA,NA,NA,NA,NA,NA,NA,NA,NA,NA,NA,NA,NA,NA
1d6ae,"""Falsch""-Screen",canvas.Screen,5_0_2_0_0_0_2,NA,NA,timeout,4998.4449999999,826171.9,826166.895,826183.576,831165.359,831166.3,2023-04-10T07:48:42Z,831182.021,NULL,Prüfung,mtihani,d,NA,NA,NA,NA,sdf,0,2,NA,NA,NA,NA,NA,NA,NA,NA,NA,NA,NA,NA,NA,NA,NA,NA,NA,NA,NA
1d6ae,deep,flow.Sequence,5_0_2_0_0_0,NA,NA,completion,26707.954,804450.5,804441.414,804457.405,831165.359,831166.5,2023-04-10T07:48:42Z,831182.021,NULL,Prüfung,mtihani,d,NA,NA,NA,NA,sdf,NA,2,NA,NA,NA,NA,NA,NA,NA,NA,NA,NA,NA,NA,NA,NA,NA,NA,NA,NA,NA
1d6ae,shallow,flow.Sequence,5_0_2_0_0_1,NA,NA,skipped,NA,831166.7,NA,NA,831165.359,831166.8,2023-04-10T07:48:42Z,831182.021,NULL,Prüfung,mtihani,d,NA,NA,NA,NA,sdf,NA,2,NA,NA,NA,NA,NA,NA,NA,NA,NA,NA,NA,NA,NA,NA,NA,NA,NA,NA,NA
1d6ae,task,flow.Sequence,5_0_2_0_0,NA,NA,completion,26707.954,804450.5,804441.414,804457.405,831165.359,831166.9,2023-04-10T07:48:42Z,831182.021,NULL,Prüfung,mtihani,d,NA,NA,NA,NA,sdf,NA,2,NA,NA,NA,NA,NA,NA,NA,NA,NA,NA,NA,NA,NA,NA,NA,NA,NA,NA,NA
1d6ae,Deep Question,html.Page,5_0_2_0_1_0_0,NA,NA,form submission,2399.5790000001,831167,831165.359,831182.021,833581.6,833581.8,2023-04-10T07:48:44Z,833614.627,NULL,Aufstand,ugomaji,d,NA,NA,NA,f,NA,NA,2,NA,NA,NA,NA,NA,NA,NA,NA,NA,NA,NA,NA,NA,NA,NA,NA,NA,NA,NA
