observation,sender,sender_type,sender_id,response,response_action,ended_on,duration,time_run,time_render,time_show,time_end,time_commit,timestamp,time_switch,distractors,german,swahili,enc,distractor1,distractor2,distractor3,response_2,x,correct,x_2,url_vp,url_sess,meta_labjs_version,meta_location,meta_user_agent,meta_platform,meta_language,meta_locale,meta_time_zone,meta_timezone_offset,meta_screen_width,meta_screen_height,meta_scroll_width,meta_scroll_height,meta_window_inner_width,meta_window_inner_height,meta_device_pixel_ratio,meta_labjs_build_flavor,meta_labjs_build_commit
30bd8,Introduction general,canvas.Screen,0,weiter,keypress(q),response,111704.74,358,362.6,379.26,112084,112112,2023-10-17T15:24:42Z,112114.34,NULL,NA,NA,NA,NA,NA,NA,NA,NA,NA,NA,187,1,20.2.4,https://neurocog.fernuni.ch/studies/vweber/sliechti/encoding_immediate/index.html?vp=187&sess=1,Mozilla/5.0 (Windows NT 10.0; Win64; x64; rv:109.0) Gecko/20100101 Firefox/118.0,Win32,de,de-CH,Europe/Zurich,-120,1280,720,1280,587,1280,587,1.5,production,f5b4a49f956347addd546a832a3327688c2c0fef
30bd8,Introduction practice,canvas.Screen,1_0,NA,keypress(Space),response,4344.66,112113,112113.86,112114.34,116459,116474,2023-10-17T15:24:47Z,116474.56,NULL,NA,NA,NA,NA,NA,NA,NA,NA,NA,NA,NA,NA,NA,NA,NA,NA,NA,NA,NA,NA,NA,NA,NA,NA,NA,NA,NA,NA,NA
30bd8,Deep Question,html.Page,1_1_0_0_0,NA,NA,form submission,6582.44,116474,116474.02,116474.56,123057,123057,2023-10-17T15:24:53Z,123063.42,"c(""distractor1"", ""distractor2"", ""distractor3"")",Qualität,mtindo,d,NA,NA,NA,abc,NA,NA,NA,NA,NA,NA,NA,NA,NA,NA,NA,NA,NA,NA,NA,NA,NA,NA,NA,NA,NA,NA
30bd8,"""Richtig""-Screen",canvas.Screen,1_1_0_0_1,NA,NA,skipped,NA,123067,NA,NA,123057,123067,2023-10-17T15:24:53Z,123063.42,"c(""distractor1"", ""distractor2"", ""distractor3"")",Qualität,mtindo,d,NA,NA,NA,NA,NA,NA,NA,NA,NA,NA,NA,NA,NA,NA,NA,NA,NA,NA,NA,NA,NA,NA,NA,NA,NA,NA
30bd8,"""Falsch""-Screen",canvas.Screen,1_1_0_0_2,NA,NA,timeout,4999.74,123070,123054.88,123063.42,128046.5,128049,2023-10-17T15:24:58Z,128063.16,"c(""distractor1"", ""distractor2"", ""distractor3"")",Qualität,mtindo,d,NA,NA,NA,NA,NA,0,NA,NA,NA,NA,NA,NA,NA,NA,NA,NA,NA,NA,NA,NA,NA,NA,NA,NA,NA,NA
30bd8,deep,flow.Sequence,1_1_0_0,NA,NA,completion,11571.94,116474,116474.02,116474.56,128046.5,128049,2023-10-17T15:24:58Z,128063.16,"c(""distractor1"", ""distractor2"", ""distractor3"")",Qualität,mtindo,d,NA,NA,NA,NA,NA,NA,NA,NA,NA,NA,NA,NA,NA,NA,NA,NA,NA,NA,NA,NA,NA,NA,NA,NA,NA,NA
30bd8,shallow,flow.Sequence,1_1_0_1,NA,NA,skipped,NA,128050,NA,NA,128046.5,128050,2023-10-17T15:24:58Z,128063.16,"c(""distractor1"", ""distractor2"", ""distractor3"")",Qualität,mtindo,d,NA,NA,NA,NA,NA,NA,NA,NA,NA,NA,NA,NA,NA,NA,NA,NA,NA,NA,NA,NA,NA,NA,NA,NA,NA,NA
30bd8,task,flow.Sequence,1_1_0,NA,NA,completion,11571.94,116474,116474.02,116474.56,128046.5,128051,2023-10-17T15:24:58Z,128063.16,"c(""distractor1"", ""distractor2"", ""distractor3"")",Qualität,mtindo,d,NA,NA,NA,NA,NA,NA,NA,NA,NA,NA,NA,NA,NA,NA,NA,NA,NA,NA,NA,NA,NA,NA,NA,NA,NA,NA
30bd8,Deep Question,html.Page,1_1_1_0_0,NA,NA,form submission,5660.84,128052,128046.5,128063.16,133724,133724,2023-10-17T15:25:04Z,133728.84,"c(""distractor1"", ""distractor2"", ""distractor3"")",Gesundheit,salama,d,NA,NA,NA,abc,NA,NA,NA,NA,NA,NA,NA,NA,NA,NA,NA,NA,NA,NA,NA,NA,NA,NA,NA,NA,NA,NA
30bd8,"""Richtig""-Screen",canvas.Screen,1_1_1_0_1,NA,NA,skipped,NA,133728,NA,NA,133724,133728,2023-10-17T15:25:04Z,133728.84,"c(""distractor1"", ""distractor2"", ""distractor3"")",Gesundheit,salama,d,NA,NA,NA,NA,NA,NA,NA,NA,NA,NA,NA,NA,NA,NA,NA,NA,NA,NA,NA,NA,NA,NA,NA,NA,NA,NA
30bd8,"""Falsch""-Screen",canvas.Screen,1_1_1_0_2,NA,NA,timeout,4999.54,133731,133722.96,133728.84,138711.72,138713,2023-10-17T15:25:09Z,138728.38,"c(""distractor1"", ""distractor2"", ""distractor3"")",Gesundheit,salama,d,NA,NA,NA,NA,NA,0,NA,NA,NA,NA,NA,NA,NA,NA,NA,NA,NA,NA,NA,NA,NA,NA,NA,NA,NA,NA
30bd8,deep,flow.Sequence,1_1_1_0,NA,NA,completion,10648.56,128052,128046.5,128063.16,138711.72,138713,2023-10-17T15:25:09Z,138728.38,"c(""distractor1"", ""distractor2"", ""distractor3"")",Gesundheit,salama,d,NA,NA,NA,NA,NA,NA,NA,NA,NA,NA,NA,NA,NA,NA,NA,NA,NA,NA,NA,NA,NA,NA,NA,NA,NA,NA
30bd8,shallow,flow.Sequence,1_1_1_1,NA,NA,skipped,NA,138714,NA,NA,138711.72,138714,2023-10-17T15:25:09Z,138728.38,"c(""distractor1"", ""distractor2"", ""distractor3"")",Gesundheit,salama,d,NA,NA,NA,NA,NA,NA,NA,NA,NA,NA,NA,NA,NA,NA,NA,NA,NA,NA,NA,NA,NA,NA,NA,NA,NA,NA
30bd8,task,flow.Sequence,1_1_1,NA,NA,completion,10648.56,128052,128046.5,128063.16,138711.72,138714,2023-10-17T15:25:09Z,138728.38,"c(""distractor1"", ""distractor2"", ""distractor3"")",Gesundheit,salama,d,NA,NA,NA,NA,NA,NA,NA,NA,NA,NA,NA,NA,NA,NA,NA,NA,NA,NA,NA,NA,NA,NA,NA,NA,NA,NA
30bd8,deep,flow.Sequence,1_1_2_0,NA,NA,skipped,NA,138714,NA,NA,138711.72,138714,2023-10-17T15:25:09Z,138728.38,"c(""distractor1"", ""distractor2"", ""distractor3"")",Gegenwart,hadhara,s,katiba,jokofu,mikopo,NA,NA,NA,NA,NA,NA,NA,NA,NA,NA,NA,NA,NA,NA,NA,NA,NA,NA,NA,NA,NA,NA,NA
30bd8,Shallow Question,html.Page,1_1_2_1_0,NA,NA,form submission,6083.62,138715,138711.72,138728.38,144812,144812,2023-10-17T15:25:15Z,144810.94,"c(""distractor1"", ""distractor2"", ""distractor3"")",Gegenwart,hadhara,s,katiba,jokofu,mikopo,hadhara,NA,NA,NA,NA,NA,NA,NA,NA,NA,NA,NA,NA,NA,NA,NA,NA,NA,NA,NA,NA,NA,NA
30bd8,"""Richtig""-Screen",canvas.Screen,1_1_2_1_1,NA,NA,timeout,4999.44,144815,144808.56,144810.94,149793.72,149796,2023-10-17T15:25:20Z,149810.38,"c(""distractor1"", ""distractor2"", ""distractor3"")",Gegenwart,hadhara,s,katiba,jokofu,mikopo,NA,NA,1,NA,NA,NA,NA,NA,NA,NA,NA,NA,NA,NA,NA,NA,NA,NA,NA,NA,NA,NA,NA
30bd8,"""Falsch""-Screen",canvas.Screen,1_1_2_1_2,NA,NA,skipped,NA,149804,NA,NA,149793.72,149804,2023-10-17T15:25:20Z,149810.38,"c(""distractor1"", ""distractor2"", ""distractor3"")",Gegenwart,hadhara,s,katiba,jokofu,mikopo,NA,NA,NA,NA,NA,NA,NA,NA,NA,NA,NA,NA,NA,NA,NA,NA,NA,NA,NA,NA,NA,NA,NA
30bd8,shallow,flow.Sequence,1_1_2_1,NA,NA,completion,11065.34,138714,138711.72,138728.38,149793.72,149805,2023-10-17T15:25:20Z,149810.38,"c(""distractor1"", ""distractor2"", ""distractor3"")",Gegenwart,hadhara,s,katiba,jokofu,mikopo,NA,NA,NA,NA,NA,NA,NA,NA,NA,NA,NA,NA,NA,NA,NA,NA,NA,NA,NA,NA,NA,NA,NA
30bd8,task,flow.Sequence,1_1_2,NA,NA,completion,11065.34,138714,138711.72,138728.38,149793.72,149805,2023-10-17T15:25:20Z,149810.38,"c(""distractor1"", ""distractor2"", ""distractor3"")",Gegenwart,hadhara,s,katiba,jokofu,mikopo,NA,NA,NA,NA,NA,NA,NA,NA,NA,NA,NA,NA,NA,NA,NA,NA,NA,NA,NA,NA,NA,NA,NA
30bd8,Deep Question,html.Page,1_1_3_0_0,NA,NA,form submission,8107.62,149806,149793.72,149810.38,157918,157918,2023-10-17T15:25:28Z,157925.96,"c(""distractor1"", ""distractor2"", ""distractor3"")",Schatten,kivuli,d,NA,NA,NA,ajj,NA,NA,NA,NA,NA,NA,NA,NA,NA,NA,NA,NA,NA,NA,NA,NA,NA,NA,NA,NA,NA,NA
30bd8,"""Richtig""-Screen",canvas.Screen,1_1_3_0_1,NA,NA,skipped,NA,157921,NA,NA,157918,157921,2023-10-17T15:25:28Z,157925.96,"c(""distractor1"", ""distractor2"", ""distractor3"")",Schatten,kivuli,d,NA,NA,NA,NA,NA,NA,NA,NA,NA,NA,NA,NA,NA,NA,NA,NA,NA,NA,NA,NA,NA,NA,NA,NA,NA,NA
30bd8,"""Falsch""-Screen",canvas.Screen,1_1_3_0_2,NA,NA,timeout,4999.42,157922,157916.84,157925.96,162908.72,162910,2023-10-17T15:25:33Z,162925.38,"c(""distractor1"", ""distractor2"", ""distractor3"")",Schatten,kivuli,d,NA,NA,NA,NA,NA,0,NA,NA,NA,NA,NA,NA,NA,NA,NA,NA,NA,NA,NA,NA,NA,NA,NA,NA,NA,NA
30bd8,deep,flow.Sequence,1_1_3_0,NA,NA,completion,13098.34,149806,149793.72,149810.38,162908.72,162911,2023-10-17T15:25:33Z,162925.38,"c(""distractor1"", ""distractor2"", ""distractor3"")",Schatten,kivuli,d,NA,NA,NA,NA,NA,NA,NA,NA,NA,NA,NA,NA,NA,NA,NA,NA,NA,NA,NA,NA,NA,NA,NA,NA,NA,NA
30bd8,shallow,flow.Sequence,1_1_3_1,NA,NA,skipped,NA,162912,NA,NA,162908.72,162912,2023-10-17T15:25:33Z,162925.38,"c(""distractor1"", ""distractor2"", ""distractor3"")",Schatten,kivuli,d,NA,NA,NA,NA,NA,NA,NA,NA,NA,NA,NA,NA,NA,NA,NA,NA,NA,NA,NA,NA,NA,NA,NA,NA,NA,NA
30bd8,task,flow.Sequence,1_1_3,NA,NA,completion,13098.34,149806,149793.72,149810.38,162908.72,162912,2023-10-17T15:25:33Z,162925.38,"c(""distractor1"", ""distractor2"", ""distractor3"")",Schatten,kivuli,d,NA,NA,NA,NA,NA,NA,NA,NA,NA,NA,NA,NA,NA,NA,NA,NA,NA,NA,NA,NA,NA,NA,NA,NA,NA,NA
30bd8,deep,flow.Sequence,1_1_4_0,NA,NA,skipped,NA,162913,NA,NA,162908.72,162913,2023-10-17T15:25:33Z,162925.38,"c(""distractor1"", ""distractor2"", ""distractor3"")",Kritik,lawama,s,dereva,nafasi,mawazo,NA,NA,NA,NA,NA,NA,NA,NA,NA,NA,NA,NA,NA,NA,NA,NA,NA,NA,NA,NA,NA,NA,NA
30bd8,Shallow Question,html.Page,1_1_4_1_0,NA,NA,form submission,8405.62,162913,162908.72,162925.38,171331,171332,2023-10-17T15:25:41Z,171340.86,"c(""distractor1"", ""distractor2"", ""distractor3"")",Kritik,lawama,s,dereva,nafasi,mawazo,dereva,NA,NA,NA,NA,NA,NA,NA,NA,NA,NA,NA,NA,NA,NA,NA,NA,NA,NA,NA,NA,NA,NA
30bd8,"""Richtig""-Screen",canvas.Screen,1_1_4_1_1,NA,NA,skipped,NA,171336,NA,NA,171331,171336,2023-10-17T15:25:41Z,171340.86,"c(""distractor1"", ""distractor2"", ""distractor3"")",Kritik,lawama,s,dereva,nafasi,mawazo,NA,NA,NA,NA,NA,NA,NA,NA,NA,NA,NA,NA,NA,NA,NA,NA,NA,NA,NA,NA,NA,NA,NA
30bd8,"""Falsch""-Screen",canvas.Screen,1_1_4_1_2,NA,NA,timeout,4999.46,171341,171327.08,171340.86,176323.68,176325,2023-10-17T15:25:46Z,176340.32,"c(""distractor1"", ""distractor2"", ""distractor3"")",Kritik,lawama,s,dereva,nafasi,mawazo,NA,NA,0,NA,NA,NA,NA,NA,NA,NA,NA,NA,NA,NA,NA,NA,NA,NA,NA,NA,NA,NA,NA
30bd8,shallow,flow.Sequence,1_1_4_1,NA,NA,completion,13398.3,162913,162908.72,162925.38,176323.68,176326,2023-10-17T15:25:46Z,176340.32,"c(""distractor1"", ""distractor2"", ""distractor3"")",Kritik,lawama,s,dereva,nafasi,mawazo,NA,NA,NA,NA,NA,NA,NA,NA,NA,NA,NA,NA,NA,NA,NA,NA,NA,NA,NA,NA,NA,NA,NA
30bd8,task,flow.Sequence,1_1_4,NA,NA,completion,13398.3,162913,162908.72,162925.38,176323.68,176326,2023-10-17T15:25:46Z,176340.32,"c(""distractor1"", ""distractor2"", ""distractor3"")",Kritik,lawama,s,dereva,nafasi,mawazo,NA,NA,NA,NA,NA,NA,NA,NA,NA,NA,NA,NA,NA,NA,NA,NA,NA,NA,NA,NA,NA,NA,NA
30bd8,deep,flow.Sequence,1_1_5_0,NA,NA,skipped,NA,176327,NA,NA,176323.68,176327,2023-10-17T15:25:46Z,176340.32,"c(""distractor1"", ""distractor2"", ""distractor3"")",Rückhalt,msaada,s,muhula,auwali,kiwimbe,NA,NA,NA,NA,NA,NA,NA,NA,NA,NA,NA,NA,NA,NA,NA,NA,NA,NA,NA,NA,NA,NA,NA
30bd8,Shallow Question,html.Page,1_1_5_1_0,NA,NA,form submission,4357.68,176328,176323.68,176340.32,180698,180698,2023-10-17T15:25:51Z,180697.58,"c(""distractor1"", ""distractor2"", ""distractor3"")",Rückhalt,msaada,s,muhula,auwali,kiwimbe,msaada,NA,NA,NA,NA,NA,NA,NA,NA,NA,NA,NA,NA,NA,NA,NA,NA,NA,NA,NA,NA,NA,NA
30bd8,"""Richtig""-Screen",canvas.Screen,1_1_5_1_1,NA,NA,timeout,5008.16,180700,180697.24,180697.58,185689.1,185690,2023-10-17T15:25:56Z,185705.74,"c(""distractor1"", ""distractor2"", ""distractor3"")",Rückhalt,msaada,s,muhula,auwali,kiwimbe,NA,NA,1,NA,NA,NA,NA,NA,NA,NA,NA,NA,NA,NA,NA,NA,NA,NA,NA,NA,NA,NA,NA
30bd8,"""Falsch""-Screen",canvas.Screen,1_1_5_1_2,NA,NA,skipped,NA,185693,NA,NA,185689.1,185693,2023-10-17T15:25:56Z,185705.74,"c(""distractor1"", ""distractor2"", ""distractor3"")",Rückhalt,msaada,s,muhula,auwali,kiwimbe,NA,NA,NA,NA,NA,NA,NA,NA,NA,NA,NA,NA,NA,NA,NA,NA,NA,NA,NA,NA,NA,NA,NA
30bd8,shallow,flow.Sequence,1_1_5_1,NA,NA,completion,9348.78,176328,176323.68,176340.32,185689.1,185693,2023-10-17T15:25:56Z,185705.74,"c(""distractor1"", ""distractor2"", ""distractor3"")",Rückhalt,msaada,s,muhula,auwali,kiwimbe,NA,NA,NA,NA,NA,NA,NA,NA,NA,NA,NA,NA,NA,NA,NA,NA,NA,NA,NA,NA,NA,NA,NA
30bd8,task,flow.Sequence,1_1_5,NA,NA,completion,9348.78,176327,176323.68,176340.32,185689.1,185693,2023-10-17T15:25:56Z,185705.74,"c(""distractor1"", ""distractor2"", ""distractor3"")",Rückhalt,msaada,s,muhula,auwali,kiwimbe,NA,NA,NA,NA,NA,NA,NA,NA,NA,NA,NA,NA,NA,NA,NA,NA,NA,NA,NA,NA,NA,NA,NA
30bd8,block,flow.Loop,1_1,NA,NA,completion,69214.54,116474,116474.02,116474.56,185689.1,185694,2023-10-17T15:25:56Z,185705.74,"c(""distractor1"", ""distractor2"", ""distractor3"")",NA,NA,NA,NA,NA,NA,NA,NA,NA,NA,NA,NA,NA,NA,NA,NA,NA,NA,NA,NA,NA,NA,NA,NA,NA,NA,NA,NA,NA
30bd8,Practice,flow.Sequence,1,NA,NA,completion,73574.76,112113,112113.86,112114.34,185689.1,185694,2023-10-17T15:25:56Z,185705.74,NULL,NA,NA,NA,NA,NA,NA,NA,NA,NA,NA,NA,NA,NA,NA,NA,NA,NA,NA,NA,NA,NA,NA,NA,NA,NA,NA,NA,NA,NA
30bd8,Experiment start,canvas.Screen,2,weiter,keypress(q),response,51503.26,185694,185689.1,185705.74,237209,237232,2023-10-17T15:26:47Z,237324.5,NULL,NA,NA,NA,NA,NA,NA,NA,NA,NA,NA,NA,NA,NA,NA,NA,NA,NA,NA,NA,NA,NA,NA,NA,NA,NA,NA,NA,NA,NA
30bd8,deep,flow.Sequence,3_0_0_0_0_0,NA,NA,skipped,NA,237324,NA,NA,237209,237324,2023-10-17T15:26:47Z,237324.5,NULL,Fenster,dirisha,s,walakini,tasawari,maarifa,NA,sdf,NA,0,NA,NA,NA,NA,NA,NA,NA,NA,NA,NA,NA,NA,NA,NA,NA,NA,NA,NA,NA
30bd8,Shallow Question,html.Page,3_0_0_0_0_1_0,NA,NA,form submission,12582.5,237324,237324.14,237324.5,249907,249911,2023-10-17T15:27:00Z,249914.16,NULL,Fenster,dirisha,s,walakini,tasawari,maarifa,tasawari,NA,NA,0,NA,NA,NA,NA,NA,NA,NA,NA,NA,NA,NA,NA,NA,NA,NA,NA,NA,NA,NA
30bd8,"""Richtig""-Screen",canvas.Screen,3_0_0_0_0_1_1,NA,NA,skipped,NA,249922,NA,NA,249907,249922,2023-10-17T15:27:00Z,249914.16,NULL,Fenster,dirisha,s,walakini,tasawari,maarifa,NA,sdf,NA,0,NA,NA,NA,NA,NA,NA,NA,NA,NA,NA,NA,NA,NA,NA,NA,NA,NA,NA,NA
30bd8,"""Falsch""-Screen",canvas.Screen,3_0_0_0_0_1_2,NA,NA,timeout,4999.44,249925,249897.74,249914.16,254896.96,254898,2023-10-17T15:27:05Z,254913.6,NULL,Fenster,dirisha,s,walakini,tasawari,maarifa,NA,sdf,0,0,NA,NA,NA,NA,NA,NA,NA,NA,NA,NA,NA,NA,NA,NA,NA,NA,NA,NA,NA
30bd8,shallow,flow.Sequence,3_0_0_0_0_1,NA,NA,completion,17572.46,237324,237324.14,237324.5,254896.96,254898,2023-10-17T15:27:05Z,254913.6,NULL,Fenster,dirisha,s,walakini,tasawari,maarifa,NA,sdf,NA,0,NA,NA,NA,NA,NA,NA,NA,NA,NA,NA,NA,NA,NA,NA,NA,NA,NA,NA,NA
30bd8,task,flow.Sequence,3_0_0_0_0,NA,NA,completion,17572.46,237324,237324.14,237324.5,254896.96,254899,2023-10-17T15:27:05Z,254913.6,NULL,Fenster,dirisha,s,walakini,tasawari,maarifa,NA,sdf,NA,0,NA,NA,NA,NA,NA,NA,NA,NA,NA,NA,NA,NA,NA,NA,NA,NA,NA,NA,NA
30bd8,deep,flow.Sequence,3_0_0_0_1_0,NA,NA,skipped,NA,254899,NA,NA,254896.96,254899,2023-10-17T15:27:05Z,254913.6,NULL,Entwicklung,maendeleo,s,uangavu,mshindwa,badiliko,NA,sdf,NA,0,NA,NA,NA,NA,NA,NA,NA,NA,NA,NA,NA,NA,NA,NA,NA,NA,NA,NA,NA
30bd8,Shallow Question,html.Page,3_0_0_0_1_1_0,NA,NA,form submission,4857.4,254899,254896.96,254913.6,259771,259772,2023-10-17T15:27:10Z,259779.56,NULL,Entwicklung,maendeleo,s,uangavu,mshindwa,badiliko,uangavu,NA,NA,0,NA,NA,NA,NA,NA,NA,NA,NA,NA,NA,NA,NA,NA,NA,NA,NA,NA,NA,NA
30bd8,"""Richtig""-Screen",canvas.Screen,3_0_0_0_1_1_1,NA,NA,skipped,NA,259776,NA,NA,259771,259777,2023-10-17T15:27:10Z,259779.56,NULL,Entwicklung,maendeleo,s,uangavu,mshindwa,badiliko,NA,sdf,NA,0,NA,NA,NA,NA,NA,NA,NA,NA,NA,NA,NA,NA,NA,NA,NA,NA,NA,NA,NA
30bd8,"""Falsch""-Screen",canvas.Screen,3_0_0_0_1_1_2,NA,NA,timeout,4999.46,259781,259766.66,259779.56,264762.38,264764,2023-10-17T15:27:15Z,264779.02,NULL,Entwicklung,maendeleo,s,uangavu,mshindwa,badiliko,NA,sdf,0,0,NA,NA,NA,NA,NA,NA,NA,NA,NA,NA,NA,NA,NA,NA,NA,NA,NA,NA,NA
30bd8,shallow,flow.Sequence,3_0_0_0_1_1,NA,NA,completion,9848.78,254899,254896.96,254913.6,264762.38,264764,2023-10-17T15:27:15Z,264779.02,NULL,Entwicklung,maendeleo,s,uangavu,mshindwa,badiliko,NA,sdf,NA,0,NA,NA,NA,NA,NA,NA,NA,NA,NA,NA,NA,NA,NA,NA,NA,NA,NA,NA,NA
30bd8,task,flow.Sequence,3_0_0_0_1,NA,NA,completion,9848.78,254899,254896.96,254913.6,264762.38,264765,2023-10-17T15:27:15Z,264779.02,NULL,Entwicklung,maendeleo,s,uangavu,mshindwa,badiliko,NA,sdf,NA,0,NA,NA,NA,NA,NA,NA,NA,NA,NA,NA,NA,NA,NA,NA,NA,NA,NA,NA,NA
30bd8,Deep Question,html.Page,3_0_0_0_2_0_0,NA,NA,form submission,4332.98,264765,264762.38,264779.02,269112,269112,2023-10-17T15:27:19Z,269111.26,NULL,Schüler,mwanafunzi,d,NA,NA,NA,sueler,NA,NA,0,NA,NA,NA,NA,NA,NA,NA,NA,NA,NA,NA,NA,NA,NA,NA,NA,NA,NA,NA
30bd8,"""Richtig""-Screen",canvas.Screen,3_0_0_0_2_0_1,NA,NA,skipped,NA,269116,NA,NA,269112,269116,2023-10-17T15:27:19Z,269111.26,NULL,Schüler,mwanafunzi,d,NA,NA,NA,NA,sdf,NA,0,NA,NA,NA,NA,NA,NA,NA,NA,NA,NA,NA,NA,NA,NA,NA,NA,NA,NA,NA
30bd8,"""Falsch""-Screen",canvas.Screen,3_0_0_0_2_0_2,NA,NA,timeout,4999.86,269119,269111.08,269111.26,274094.46,274096,2023-10-17T15:27:24Z,274111.12,NULL,Schüler,mwanafunzi,d,NA,NA,NA,NA,sdf,0,0,NA,NA,NA,NA,NA,NA,NA,NA,NA,NA,NA,NA,NA,NA,NA,NA,NA,NA,NA
30bd8,deep,flow.Sequence,3_0_0_0_2_0,NA,NA,completion,9315.44,264765,264762.38,264779.02,274094.46,274097,2023-10-17T15:27:24Z,274111.12,NULL,Schüler,mwanafunzi,d,NA,NA,NA,NA,sdf,NA,0,NA,NA,NA,NA,NA,NA,NA,NA,NA,NA,NA,NA,NA,NA,NA,NA,NA,NA,NA
30bd8,shallow,flow.Sequence,3_0_0_0_2_1,NA,NA,skipped,NA,274097,NA,NA,274094.46,274097,2023-10-17T15:27:24Z,274111.12,NULL,Schüler,mwanafunzi,d,NA,NA,NA,NA,sdf,NA,0,NA,NA,NA,NA,NA,NA,NA,NA,NA,NA,NA,NA,NA,NA,NA,NA,NA,NA,NA
30bd8,task,flow.Sequence,3_0_0_0_2,NA,NA,completion,9315.44,264765,264762.38,264779.02,274094.46,274097,2023-10-17T15:27:24Z,274111.12,NULL,Schüler,mwanafunzi,d,NA,NA,NA,NA,sdf,NA,0,NA,NA,NA,NA,NA,NA,NA,NA,NA,NA,NA,NA,NA,NA,NA,NA,NA,NA,NA
30bd8,Deep Question,html.Page,3_0_0_0_3_0_0,NA,NA,form submission,6241.88,274098,274094.46,274111.12,280353,280353,2023-10-17T15:27:30Z,280360.24,NULL,Papier,karatasi,d,NA,NA,NA,papier,NA,NA,0,NA,NA,NA,NA,NA,NA,NA,NA,NA,NA,NA,NA,NA,NA,NA,NA,NA,NA,NA
30bd8,"""Richtig""-Screen",canvas.Screen,3_0_0_0_3_0_1,NA,NA,skipped,NA,280355,NA,NA,280353,280356,2023-10-17T15:27:30Z,280360.24,NULL,Papier,karatasi,d,NA,NA,NA,NA,sdf,NA,0,NA,NA,NA,NA,NA,NA,NA,NA,NA,NA,NA,NA,NA,NA,NA,NA,NA,NA,NA
30bd8,"""Falsch""-Screen",canvas.Screen,3_0_0_0_3_0_2,NA,NA,timeout,4999.38,280358,280351.96,280360.24,285342.96,285344,2023-10-17T15:27:35Z,285359.62,NULL,Papier,karatasi,d,NA,NA,NA,NA,sdf,0,0,NA,NA,NA,NA,NA,NA,NA,NA,NA,NA,NA,NA,NA,NA,NA,NA,NA,NA,NA
30bd8,deep,flow.Sequence,3_0_0_0_3_0,NA,NA,completion,11231.84,274097,274094.46,274111.12,285342.96,285344,2023-10-17T15:27:35Z,285359.62,NULL,Papier,karatasi,d,NA,NA,NA,NA,sdf,NA,0,NA,NA,NA,NA,NA,NA,NA,NA,NA,NA,NA,NA,NA,NA,NA,NA,NA,NA,NA
30bd8,shallow,flow.Sequence,3_0_0_0_3_1,NA,NA,skipped,NA,285344,NA,NA,285342.96,285344,2023-10-17T15:27:35Z,285359.62,NULL,Papier,karatasi,d,NA,NA,NA,NA,sdf,NA,0,NA,NA,NA,NA,NA,NA,NA,NA,NA,NA,NA,NA,NA,NA,NA,NA,NA,NA,NA
30bd8,task,flow.Sequence,3_0_0_0_3,NA,NA,completion,11231.84,274097,274094.46,274111.12,285342.96,285344,2023-10-17T15:27:35Z,285359.62,NULL,Papier,karatasi,d,NA,NA,NA,NA,sdf,NA,0,NA,NA,NA,NA,NA,NA,NA,NA,NA,NA,NA,NA,NA,NA,NA,NA,NA,NA,NA
30bd8,deep,flow.Sequence,3_0_0_0_4_0,NA,NA,skipped,NA,285345,NA,NA,285342.96,285345,2023-10-17T15:27:35Z,285359.62,NULL,Spionage,upelelezi,s,maslahi,utokazo,magangao,NA,sdf,NA,0,NA,NA,NA,NA,NA,NA,NA,NA,NA,NA,NA,NA,NA,NA,NA,NA,NA,NA,NA
30bd8,Shallow Question,html.Page,3_0_0_0_4_1_0,NA,NA,form submission,8175.38,285345,285342.96,285359.62,293535,293536,2023-10-17T15:27:44Z,293542.02,NULL,Spionage,upelelezi,s,maslahi,utokazo,magangao,utokazo,NA,NA,0,NA,NA,NA,NA,NA,NA,NA,NA,NA,NA,NA,NA,NA,NA,NA,NA,NA,NA,NA
30bd8,"""Richtig""-Screen",canvas.Screen,3_0_0_0_4_1_1,NA,NA,skipped,NA,293539,NA,NA,293535,293539,2023-10-17T15:27:44Z,293542.02,NULL,Spionage,upelelezi,s,maslahi,utokazo,magangao,NA,sdf,NA,0,NA,NA,NA,NA,NA,NA,NA,NA,NA,NA,NA,NA,NA,NA,NA,NA,NA,NA,NA
30bd8,"""Falsch""-Screen",canvas.Screen,3_0_0_0_4_1_2,NA,NA,timeout,4999.36,293542,293528.74,293542.02,298524.72,298527,2023-10-17T15:27:49Z,298541.38,NULL,Spionage,upelelezi,s,maslahi,utokazo,magangao,NA,sdf,0,0,NA,NA,NA,NA,NA,NA,NA,NA,NA,NA,NA,NA,NA,NA,NA,NA,NA,NA,NA
30bd8,shallow,flow.Sequence,3_0_0_0_4_1,NA,NA,completion,13165.1,285345,285342.96,285359.62,298524.72,298527,2023-10-17T15:27:49Z,298541.38,NULL,Spionage,upelelezi,s,maslahi,utokazo,magangao,NA,sdf,NA,0,NA,NA,NA,NA,NA,NA,NA,NA,NA,NA,NA,NA,NA,NA,NA,NA,NA,NA,NA
30bd8,task,flow.Sequence,3_0_0_0_4,NA,NA,completion,13165.1,285344,285342.96,285359.62,298524.72,298528,2023-10-17T15:27:49Z,298541.38,NULL,Spionage,upelelezi,s,maslahi,utokazo,magangao,NA,sdf,NA,0,NA,NA,NA,NA,NA,NA,NA,NA,NA,NA,NA,NA,NA,NA,NA,NA,NA,NA,NA
30bd8,Deep Question,html.Page,3_0_0_0_5_0_0,NA,NA,form submission,3639.62,298528,298524.72,298541.38,302181,302181,2023-10-17T15:27:52Z,302190.78,NULL,Tester,wanaojaribu,d,NA,NA,NA,zue,NA,NA,0,NA,NA,NA,NA,NA,NA,NA,NA,NA,NA,NA,NA,NA,NA,NA,NA,NA,NA,NA
30bd8,"""Richtig""-Screen",canvas.Screen,3_0_0_0_5_0_1,NA,NA,skipped,NA,302183,NA,NA,302181,302184,2023-10-17T15:27:52Z,302190.78,NULL,Tester,wanaojaribu,d,NA,NA,NA,NA,sdf,NA,0,NA,NA,NA,NA,NA,NA,NA,NA,NA,NA,NA,NA,NA,NA,NA,NA,NA,NA,NA
30bd8,"""Falsch""-Screen",canvas.Screen,3_0_0_0_5_0_2,NA,NA,timeout,4999.48,302186,302179.9,302190.78,307173.6,307180,2023-10-17T15:27:57Z,307190.26,NULL,Tester,wanaojaribu,d,NA,NA,NA,NA,sdf,0,0,NA,NA,NA,NA,NA,NA,NA,NA,NA,NA,NA,NA,NA,NA,NA,NA,NA,NA,NA
30bd8,deep,flow.Sequence,3_0_0_0_5_0,NA,NA,completion,8632.22,298528,298524.72,298541.38,307173.6,307183,2023-10-17T15:27:57Z,307190.26,NULL,Tester,wanaojaribu,d,NA,NA,NA,NA,sdf,NA,0,NA,NA,NA,NA,NA,NA,NA,NA,NA,NA,NA,NA,NA,NA,NA,NA,NA,NA,NA
30bd8,shallow,flow.Sequence,3_0_0_0_5_1,NA,NA,skipped,NA,307183,NA,NA,307173.6,307184,2023-10-17T15:27:57Z,307190.26,NULL,Tester,wanaojaribu,d,NA,NA,NA,NA,sdf,NA,0,NA,NA,NA,NA,NA,NA,NA,NA,NA,NA,NA,NA,NA,NA,NA,NA,NA,NA,NA
30bd8,task,flow.Sequence,3_0_0_0_5,NA,NA,completion,8632.22,298528,298524.72,298541.38,307173.6,307184,2023-10-17T15:27:57Z,307190.26,NULL,Tester,wanaojaribu,d,NA,NA,NA,NA,sdf,NA,0,NA,NA,NA,NA,NA,NA,NA,NA,NA,NA,NA,NA,NA,NA,NA,NA,NA,NA,NA
30bd8,deep,flow.Sequence,3_0_0_0_6_0,NA,NA,skipped,NA,307185,NA,NA,307173.6,307185,2023-10-17T15:27:57Z,307190.26,NULL,Vorwurf,mashtaka,s,msukumo,mtangulizi,uenyekiti,NA,sdf,NA,0,NA,NA,NA,NA,NA,NA,NA,NA,NA,NA,NA,NA,NA,NA,NA,NA,NA,NA,NA
30bd8,Shallow Question,html.Page,3_0_0_0_6_1_0,NA,NA,form submission,4261.74,307185,307173.6,307190.26,311452,311452,2023-10-17T15:28:02Z,311456.28,NULL,Vorwurf,mashtaka,s,msukumo,mtangulizi,uenyekiti,mtangulizi,NA,NA,0,NA,NA,NA,NA,NA,NA,NA,NA,NA,NA,NA,NA,NA,NA,NA,NA,NA,NA,NA
30bd8,"""Richtig""-Screen",canvas.Screen,3_0_0_0_6_1_1,NA,NA,skipped,NA,311462,NA,NA,311452,311462,2023-10-17T15:28:02Z,311456.28,NULL,Vorwurf,mashtaka,s,msukumo,mtangulizi,uenyekiti,NA,sdf,NA,0,NA,NA,NA,NA,NA,NA,NA,NA,NA,NA,NA,NA,NA,NA,NA,NA,NA,NA,NA
30bd8,"""Falsch""-Screen",canvas.Screen,3_0_0_0_6_1_2,NA,NA,timeout,4999.26,311467,311446,311456.28,316438.88,316441,2023-10-17T15:28:07Z,316455.54,NULL,Vorwurf,mashtaka,s,msukumo,mtangulizi,uenyekiti,NA,sdf,0,0,NA,NA,NA,NA,NA,NA,NA,NA,NA,NA,NA,NA,NA,NA,NA,NA,NA,NA,NA
30bd8,shallow,flow.Sequence,3_0_0_0_6_1,NA,NA,completion,9248.62,307185,307173.6,307190.26,316438.88,316442,2023-10-17T15:28:07Z,316455.54,NULL,Vorwurf,mashtaka,s,msukumo,mtangulizi,uenyekiti,NA,sdf,NA,0,NA,NA,NA,NA,NA,NA,NA,NA,NA,NA,NA,NA,NA,NA,NA,NA,NA,NA,NA
30bd8,task,flow.Sequence,3_0_0_0_6,NA,NA,completion,9248.62,307184,307173.6,307190.26,316438.88,316443,2023-10-17T15:28:07Z,316455.54,NULL,Vorwurf,mashtaka,s,msukumo,mtangulizi,uenyekiti,NA,sdf,NA,0,NA,NA,NA,NA,NA,NA,NA,NA,NA,NA,NA,NA,NA,NA,NA,NA,NA,NA,NA
30bd8,Deep Question,html.Page,3_0_0_0_7_0_0,NA,NA,form submission,3836.46,316444,316438.88,316455.54,320292,320292,2023-10-17T15:28:10Z,320305.12,NULL,Niveau,kiwango,d,NA,NA,NA,uhama,NA,NA,0,NA,NA,NA,NA,NA,NA,NA,NA,NA,NA,NA,NA,NA,NA,NA,NA,NA,NA,NA
30bd8,"""Richtig""-Screen",canvas.Screen,3_0_0_0_7_0_1,NA,NA,skipped,NA,320295,NA,NA,320292,320296,2023-10-17T15:28:10Z,320305.12,NULL,Niveau,kiwango,d,NA,NA,NA,NA,sdf,NA,0,NA,NA,NA,NA,NA,NA,NA,NA,NA,NA,NA,NA,NA,NA,NA,NA,NA,NA,NA
30bd8,"""Falsch""-Screen",canvas.Screen,3_0_0_0_7_0_2,NA,NA,timeout,4999.12,320299,320288.48,320305.12,325287.58,325289,2023-10-17T15:28:15Z,325304.24,NULL,Niveau,kiwango,d,NA,NA,NA,NA,sdf,0,0,NA,NA,NA,NA,NA,NA,NA,NA,NA,NA,NA,NA,NA,NA,NA,NA,NA,NA,NA
30bd8,deep,flow.Sequence,3_0_0_0_7_0,NA,NA,completion,8832.04,316444,316438.88,316455.54,325287.58,325289,2023-10-17T15:28:15Z,325304.24,NULL,Niveau,kiwango,d,NA,NA,NA,NA,sdf,NA,0,NA,NA,NA,NA,NA,NA,NA,NA,NA,NA,NA,NA,NA,NA,NA,NA,NA,NA,NA
30bd8,shallow,flow.Sequence,3_0_0_0_7_1,NA,NA,skipped,NA,325290,NA,NA,325287.58,325290,2023-10-17T15:28:15Z,325304.24,NULL,Niveau,kiwango,d,NA,NA,NA,NA,sdf,NA,0,NA,NA,NA,NA,NA,NA,NA,NA,NA,NA,NA,NA,NA,NA,NA,NA,NA,NA,NA
30bd8,task,flow.Sequence,3_0_0_0_7,NA,NA,completion,8832.04,316443,316438.88,316455.54,325287.58,325290,2023-10-17T15:28:15Z,325304.24,NULL,Niveau,kiwango,d,NA,NA,NA,NA,sdf,NA,0,NA,NA,NA,NA,NA,NA,NA,NA,NA,NA,NA,NA,NA,NA,NA,NA,NA,NA,NA
30bd8,block,flow.Loop,3_0_0_0,NA,NA,completion,87963.08,237324,237324.14,237324.5,325287.58,325291,2023-10-17T15:28:15Z,325304.24,NULL,NA,NA,NA,NA,NA,NA,NA,sdf,NA,0,NA,NA,NA,NA,NA,NA,NA,NA,NA,NA,NA,NA,NA,NA,NA,NA,NA,NA,NA
30bd8,weiter,canvas.Screen,3_0_0_1,sdf,keypress(Space),response,1311.76,325291,325287.58,325304.24,326616,326635,2023-10-17T15:28:17Z,326685.96,NULL,NA,NA,NA,NA,NA,NA,NA,sdf,NA,0,NA,NA,NA,NA,NA,NA,NA,NA,NA,NA,NA,NA,NA,NA,NA,NA,NA,NA,NA
30bd8,check continue,flow.Sequence,3_0_0,NA,NA,completion,89291.5,237324,237324.14,237324.5,326616,326636,2023-10-17T15:28:17Z,326685.96,NULL,NA,NA,NA,NA,NA,NA,NA,sdf,NA,0,NA,NA,NA,NA,NA,NA,NA,NA,NA,NA,NA,NA,NA,NA,NA,NA,NA,NA,NA
30bd8,Deep Question,html.Page,3_0_1_0_0_0_0,NA,NA,form submission,4984.04,326685,326685.6,326685.96,331670,331671,2023-10-17T15:28:22Z,331670.4,NULL,Schüler,mwanafunzi,d,NA,NA,NA,abc,NA,NA,1,NA,NA,NA,NA,NA,NA,NA,NA,NA,NA,NA,NA,NA,NA,NA,NA,NA,NA,NA
30bd8,"""Richtig""-Screen",canvas.Screen,3_0_1_0_0_0_1,NA,NA,skipped,NA,331676,NA,NA,331670,331677,2023-10-17T15:28:22Z,331670.4,NULL,Schüler,mwanafunzi,d,NA,NA,NA,NA,sdfdsf,NA,1,NA,NA,NA,NA,NA,NA,NA,NA,NA,NA,NA,NA,NA,NA,NA,NA,NA,NA,NA
30bd8,"""Falsch""-Screen",canvas.Screen,3_0_1_0_0_0_2,NA,NA,timeout,4999.42,331680,331663.28,331670.4,336653.16,336655,2023-10-17T15:28:27Z,336669.82,NULL,Schüler,mwanafunzi,d,NA,NA,NA,NA,sdfdsf,0,1,NA,NA,NA,NA,NA,NA,NA,NA,NA,NA,NA,NA,NA,NA,NA,NA,NA,NA,NA
30bd8,deep,flow.Sequence,3_0_1_0_0_0,NA,NA,completion,9967.2,326685,326685.6,326685.96,336653.16,336655,2023-10-17T15:28:27Z,336669.82,NULL,Schüler,mwanafunzi,d,NA,NA,NA,NA,sdfdsf,NA,1,NA,NA,NA,NA,NA,NA,NA,NA,NA,NA,NA,NA,NA,NA,NA,NA,NA,NA,NA
30bd8,shallow,flow.Sequence,3_0_1_0_0_1,NA,NA,skipped,NA,336655,NA,NA,336653.16,336655,2023-10-17T15:28:27Z,336669.82,NULL,Schüler,mwanafunzi,d,NA,NA,NA,NA,sdfdsf,NA,1,NA,NA,NA,NA,NA,NA,NA,NA,NA,NA,NA,NA,NA,NA,NA,NA,NA,NA,NA
30bd8,task,flow.Sequence,3_0_1_0_0,NA,NA,completion,9967.2,326685,326685.6,326685.96,336653.16,336656,2023-10-17T15:28:27Z,336669.82,NULL,Schüler,mwanafunzi,d,NA,NA,NA,NA,sdfdsf,NA,1,NA,NA,NA,NA,NA,NA,NA,NA,NA,NA,NA,NA,NA,NA,NA,NA,NA,NA,NA
30bd8,Deep Question,html.Page,3_0_1_0_1_0_0,NA,NA,form submission,3812.18,336656,336653.16,336669.82,340482,340482,2023-10-17T15:28:31Z,340502.5,NULL,Papier,karatasi,d,NA,NA,NA,katngo,NA,NA,1,NA,NA,NA,NA,NA,NA,NA,NA,NA,NA,NA,NA,NA,NA,NA,NA,NA,NA,NA
30bd8,"""Richtig""-Screen",canvas.Screen,3_0_1_0_1_0_1,NA,NA,skipped,NA,340485,NA,NA,340482,340485,2023-10-17T15:28:31Z,340502.5,NULL,Papier,karatasi,d,NA,NA,NA,NA,sdfdsf,NA,1,NA,NA,NA,NA,NA,NA,NA,NA,NA,NA,NA,NA,NA,NA,NA,NA,NA,NA,NA
30bd8,"""Falsch""-Screen",canvas.Screen,3_0_1_0_1_0_2,NA,NA,timeout,4999.5,340487,340485.84,340502.5,345485.34,345488,2023-10-17T15:28:36Z,345502,NULL,Papier,karatasi,d,NA,NA,NA,NA,sdfdsf,0,1,NA,NA,NA,NA,NA,NA,NA,NA,NA,NA,NA,NA,NA,NA,NA,NA,NA,NA,NA
30bd8,deep,flow.Sequence,3_0_1_0_1_0,NA,NA,completion,8815.52,336656,336653.16,336669.82,345485.34,345488,2023-10-17T15:28:36Z,345502,NULL,Papier,karatasi,d,NA,NA,NA,NA,sdfdsf,NA,1,NA,NA,NA,NA,NA,NA,NA,NA,NA,NA,NA,NA,NA,NA,NA,NA,NA,NA,NA
30bd8,shallow,flow.Sequence,3_0_1_0_1_1,NA,NA,skipped,NA,345489,NA,NA,345485.34,345489,2023-10-17T15:28:36Z,345502,NULL,Papier,karatasi,d,NA,NA,NA,NA,sdfdsf,NA,1,NA,NA,NA,NA,NA,NA,NA,NA,NA,NA,NA,NA,NA,NA,NA,NA,NA,NA,NA
30bd8,task,flow.Sequence,3_0_1_0_1,NA,NA,completion,8815.52,336656,336653.16,336669.82,345485.34,345489,2023-10-17T15:28:36Z,345502,NULL,Papier,karatasi,d,NA,NA,NA,NA,sdfdsf,NA,1,NA,NA,NA,NA,NA,NA,NA,NA,NA,NA,NA,NA,NA,NA,NA,NA,NA,NA,NA
30bd8,deep,flow.Sequence,3_0_1_0_2_0,NA,NA,skipped,NA,345489,NA,NA,345485.34,345490,2023-10-17T15:28:36Z,345502,NULL,Entwicklung,maendeleo,s,uangavu,mshindwa,badiliko,NA,sdfdsf,NA,1,NA,NA,NA,NA,NA,NA,NA,NA,NA,NA,NA,NA,NA,NA,NA,NA,NA,NA,NA
30bd8,Shallow Question,html.Page,3_0_1_0_2_1_0,NA,NA,form submission,5560,345490,345485.34,345502,351062,351062,2023-10-17T15:28:41Z,351067.96,NULL,Entwicklung,maendeleo,s,uangavu,mshindwa,badiliko,maendeleo,NA,NA,1,NA,NA,NA,NA,NA,NA,NA,NA,NA,NA,NA,NA,NA,NA,NA,NA,NA,NA,NA
30bd8,"""Richtig""-Screen",canvas.Screen,3_0_1_0_2_1_1,NA,NA,timeout,4999.32,351067,351057.7,351067.96,356050.62,356052,2023-10-17T15:28:46Z,356067.28,NULL,Entwicklung,maendeleo,s,uangavu,mshindwa,badiliko,NA,sdfdsf,1,1,NA,NA,NA,NA,NA,NA,NA,NA,NA,NA,NA,NA,NA,NA,NA,NA,NA,NA,NA
30bd8,"""Falsch""-Screen",canvas.Screen,3_0_1_0_2_1_2,NA,NA,skipped,NA,356060,NA,NA,356050.62,356060,2023-10-17T15:28:46Z,356067.28,NULL,Entwicklung,maendeleo,s,uangavu,mshindwa,badiliko,NA,sdfdsf,NA,1,NA,NA,NA,NA,NA,NA,NA,NA,NA,NA,NA,NA,NA,NA,NA,NA,NA,NA,NA
30bd8,shallow,flow.Sequence,3_0_1_0_2_1,NA,NA,completion,10548.62,345490,345485.34,345502,356050.62,356061,2023-10-17T15:28:46Z,356067.28,NULL,Entwicklung,maendeleo,s,uangavu,mshindwa,badiliko,NA,sdfdsf,NA,1,NA,NA,NA,NA,NA,NA,NA,NA,NA,NA,NA,NA,NA,NA,NA,NA,NA,NA,NA
30bd8,task,flow.Sequence,3_0_1_0_2,NA,NA,completion,10548.62,345489,345485.34,345502,356050.62,356061,2023-10-17T15:28:46Z,356067.28,NULL,Entwicklung,maendeleo,s,uangavu,mshindwa,badiliko,NA,sdfdsf,NA,1,NA,NA,NA,NA,NA,NA,NA,NA,NA,NA,NA,NA,NA,NA,NA,NA,NA,NA,NA
30bd8,deep,flow.Sequence,3_0_1_0_3_0,NA,NA,skipped,NA,356062,NA,NA,356050.62,356062,2023-10-17T15:28:46Z,356067.28,NULL,Vorwurf,mashtaka,s,msukumo,mtangulizi,uenyekiti,NA,sdfdsf,NA,1,NA,NA,NA,NA,NA,NA,NA,NA,NA,NA,NA,NA,NA,NA,NA,NA,NA,NA,NA
30bd8,Shallow Question,html.Page,3_0_1_0_3_1_0,NA,NA,form submission,5997.72,356062,356050.62,356067.28,362065,362065,2023-10-17T15:28:52Z,362066.56,NULL,Vorwurf,mashtaka,s,msukumo,mtangulizi,uenyekiti,mtangulizi,NA,NA,1,NA,NA,NA,NA,NA,NA,NA,NA,NA,NA,NA,NA,NA,NA,NA,NA,NA,NA,NA
30bd8,"""Richtig""-Screen",canvas.Screen,3_0_1_0_3_1_1,NA,NA,skipped,NA,362068,NA,NA,362065,362068,2023-10-17T15:28:52Z,362066.56,NULL,Vorwurf,mashtaka,s,msukumo,mtangulizi,uenyekiti,NA,sdfdsf,NA,1,NA,NA,NA,NA,NA,NA,NA,NA,NA,NA,NA,NA,NA,NA,NA,NA,NA,NA,NA
30bd8,"""Falsch""-Screen",canvas.Screen,3_0_1_0_3_1_2,NA,NA,timeout,4999.36,362071,362059.7,362066.56,367049.28,367050,2023-10-17T15:28:57Z,367065.92,NULL,Vorwurf,mashtaka,s,msukumo,mtangulizi,uenyekiti,NA,sdfdsf,0,1,NA,NA,NA,NA,NA,NA,NA,NA,NA,NA,NA,NA,NA,NA,NA,NA,NA,NA,NA
30bd8,shallow,flow.Sequence,3_0_1_0_3_1,NA,NA,completion,10982,356062,356050.62,356067.28,367049.28,367050,2023-10-17T15:28:57Z,367065.92,NULL,Vorwurf,mashtaka,s,msukumo,mtangulizi,uenyekiti,NA,sdfdsf,NA,1,NA,NA,NA,NA,NA,NA,NA,NA,NA,NA,NA,NA,NA,NA,NA,NA,NA,NA,NA
30bd8,task,flow.Sequence,3_0_1_0_3,NA,NA,completion,10982,356062,356050.62,356067.28,367049.28,367052,2023-10-17T15:28:57Z,367065.92,NULL,Vorwurf,mashtaka,s,msukumo,mtangulizi,uenyekiti,NA,sdfdsf,NA,1,NA,NA,NA,NA,NA,NA,NA,NA,NA,NA,NA,NA,NA,NA,NA,NA,NA,NA,NA
30bd8,deep,flow.Sequence,3_0_1_0_4_0,NA,NA,skipped,NA,367053,NA,NA,367049.28,367053,2023-10-17T15:28:57Z,367065.92,NULL,Spionage,upelelezi,s,maslahi,utokazo,magangao,NA,sdfdsf,NA,1,NA,NA,NA,NA,NA,NA,NA,NA,NA,NA,NA,NA,NA,NA,NA,NA,NA,NA,NA
30bd8,Shallow Question,html.Page,3_0_1_0_4_1_0,NA,NA,form submission,6510.08,367053,367049.28,367065.92,373576,373576,2023-10-17T15:29:04Z,373581.6,NULL,Spionage,upelelezi,s,maslahi,utokazo,magangao,upelelezi,NA,NA,1,NA,NA,NA,NA,NA,NA,NA,NA,NA,NA,NA,NA,NA,NA,NA,NA,NA,NA,NA
30bd8,"""Richtig""-Screen",canvas.Screen,3_0_1_0_4_1_1,NA,NA,timeout,4999.46,373579,373572.9,373581.6,378564.42,378566,2023-10-17T15:29:09Z,378581.06,NULL,Spionage,upelelezi,s,maslahi,utokazo,magangao,NA,sdfdsf,1,1,NA,NA,NA,NA,NA,NA,NA,NA,NA,NA,NA,NA,NA,NA,NA,NA,NA,NA,NA
30bd8,"""Falsch""-Screen",canvas.Screen,3_0_1_0_4_1_2,NA,NA,skipped,NA,378572,NA,NA,378564.42,378573,2023-10-17T15:29:09Z,378581.06,NULL,Spionage,upelelezi,s,maslahi,utokazo,magangao,NA,sdfdsf,NA,1,NA,NA,NA,NA,NA,NA,NA,NA,NA,NA,NA,NA,NA,NA,NA,NA,NA,NA,NA
30bd8,shallow,flow.Sequence,3_0_1_0_4_1,NA,NA,completion,11498.5,367053,367049.28,367065.92,378564.42,378573,2023-10-17T15:29:09Z,378581.06,NULL,Spionage,upelelezi,s,maslahi,utokazo,magangao,NA,sdfdsf,NA,1,NA,NA,NA,NA,NA,NA,NA,NA,NA,NA,NA,NA,NA,NA,NA,NA,NA,NA,NA
30bd8,task,flow.Sequence,3_0_1_0_4,NA,NA,completion,11498.5,367053,367049.28,367065.92,378564.42,378574,2023-10-17T15:29:09Z,378581.06,NULL,Spionage,upelelezi,s,maslahi,utokazo,magangao,NA,sdfdsf,NA,1,NA,NA,NA,NA,NA,NA,NA,NA,NA,NA,NA,NA,NA,NA,NA,NA,NA,NA,NA
30bd8,Deep Question,html.Page,3_0_1_0_5_0_0,NA,NA,form submission,4212.94,378574,378564.42,378581.06,382794,382794,2023-10-17T15:29:13Z,382797.04,NULL,Tester,wanaojaribu,d,NA,NA,NA,hhh,NA,NA,1,NA,NA,NA,NA,NA,NA,NA,NA,NA,NA,NA,NA,NA,NA,NA,NA,NA,NA,NA
30bd8,"""Richtig""-Screen",canvas.Screen,3_0_1_0_5_0_1,NA,NA,skipped,NA,382795,NA,NA,382794,382795,2023-10-17T15:29:13Z,382797.04,NULL,Tester,wanaojaribu,d,NA,NA,NA,NA,sdfdsf,NA,1,NA,NA,NA,NA,NA,NA,NA,NA,NA,NA,NA,NA,NA,NA,NA,NA,NA,NA,NA
30bd8,"""Falsch""-Screen",canvas.Screen,3_0_1_0_5_0_2,NA,NA,timeout,4999.64,382797,382792.6,382797.04,387780.02,387782,2023-10-17T15:29:18Z,387796.68,NULL,Tester,wanaojaribu,d,NA,NA,NA,NA,sdfdsf,0,1,NA,NA,NA,NA,NA,NA,NA,NA,NA,NA,NA,NA,NA,NA,NA,NA,NA,NA,NA
30bd8,deep,flow.Sequence,3_0_1_0_5_0,NA,NA,completion,9198.96,378574,378564.42,378581.06,387780.02,387782,2023-10-17T15:29:18Z,387796.68,NULL,Tester,wanaojaribu,d,NA,NA,NA,NA,sdfdsf,NA,1,NA,NA,NA,NA,NA,NA,NA,NA,NA,NA,NA,NA,NA,NA,NA,NA,NA,NA,NA
30bd8,shallow,flow.Sequence,3_0_1_0_5_1,NA,NA,skipped,NA,387783,NA,NA,387780.02,387783,2023-10-17T15:29:18Z,387796.68,NULL,Tester,wanaojaribu,d,NA,NA,NA,NA,sdfdsf,NA,1,NA,NA,NA,NA,NA,NA,NA,NA,NA,NA,NA,NA,NA,NA,NA,NA,NA,NA,NA
30bd8,task,flow.Sequence,3_0_1_0_5,NA,NA,completion,9198.96,378574,378564.42,378581.06,387780.02,387784,2023-10-17T15:29:18Z,387796.68,NULL,Tester,wanaojaribu,d,NA,NA,NA,NA,sdfdsf,NA,1,NA,NA,NA,NA,NA,NA,NA,NA,NA,NA,NA,NA,NA,NA,NA,NA,NA,NA,NA
30bd8,Deep Question,html.Page,3_0_1_0_6_0_0,NA,NA,form submission,4207.32,387784,387780.02,387796.68,392004,392004,2023-10-17T15:29:22Z,392012.44,NULL,Niveau,kiwango,d,NA,NA,NA,jj,NA,NA,1,NA,NA,NA,NA,NA,NA,NA,NA,NA,NA,NA,NA,NA,NA,NA,NA,NA,NA,NA
30bd8,"""Richtig""-Screen",canvas.Screen,3_0_1_0_6_0_1,NA,NA,skipped,NA,392010,NA,NA,392004,392010,2023-10-17T15:29:22Z,392012.44,NULL,Niveau,kiwango,d,NA,NA,NA,NA,sdfdsf,NA,1,NA,NA,NA,NA,NA,NA,NA,NA,NA,NA,NA,NA,NA,NA,NA,NA,NA,NA,NA
30bd8,"""Falsch""-Screen",canvas.Screen,3_0_1_0_6_0_2,NA,NA,timeout,4999.56,392016,391998.48,392012.44,396995.34,396997,2023-10-17T15:29:27Z,397012,NULL,Niveau,kiwango,d,NA,NA,NA,NA,sdfdsf,0,1,NA,NA,NA,NA,NA,NA,NA,NA,NA,NA,NA,NA,NA,NA,NA,NA,NA,NA,NA
30bd8,deep,flow.Sequence,3_0_1_0_6_0,NA,NA,completion,9198.66,387784,387780.02,387796.68,396995.34,396998,2023-10-17T15:29:27Z,397012,NULL,Niveau,kiwango,d,NA,NA,NA,NA,sdfdsf,NA,1,NA,NA,NA,NA,NA,NA,NA,NA,NA,NA,NA,NA,NA,NA,NA,NA,NA,NA,NA
30bd8,shallow,flow.Sequence,3_0_1_0_6_1,NA,NA,skipped,NA,396998,NA,NA,396995.34,396998,2023-10-17T15:29:27Z,397012,NULL,Niveau,kiwango,d,NA,NA,NA,NA,sdfdsf,NA,1,NA,NA,NA,NA,NA,NA,NA,NA,NA,NA,NA,NA,NA,NA,NA,NA,NA,NA,NA
30bd8,task,flow.Sequence,3_0_1_0_6,NA,NA,completion,9198.66,387784,387780.02,387796.68,396995.34,396998,2023-10-17T15:29:27Z,397012,NULL,Niveau,kiwango,d,NA,NA,NA,NA,sdfdsf,NA,1,NA,NA,NA,NA,NA,NA,NA,NA,NA,NA,NA,NA,NA,NA,NA,NA,NA,NA,NA
30bd8,deep,flow.Sequence,3_0_1_0_7_0,NA,NA,skipped,NA,396998,NA,NA,396995.34,396998,2023-10-17T15:29:27Z,397012,NULL,Fenster,dirisha,s,walakini,tasawari,maarifa,NA,sdfdsf,NA,1,NA,NA,NA,NA,NA,NA,NA,NA,NA,NA,NA,NA,NA,NA,NA,NA,NA,NA,NA
30bd8,Shallow Question,html.Page,3_0_1_0_7_1_0,NA,NA,form submission,6143,396998,396995.34,397012,403155,403156,2023-10-17T15:29:33Z,403161.24,NULL,Fenster,dirisha,s,walakini,tasawari,maarifa,dirisha,NA,NA,1,NA,NA,NA,NA,NA,NA,NA,NA,NA,NA,NA,NA,NA,NA,NA,NA,NA,NA,NA
30bd8,"""Richtig""-Screen",canvas.Screen,3_0_1_0_7_1_1,NA,NA,timeout,4999.44,403158,403153.44,403161.24,408144.12,408145,2023-10-17T15:29:38Z,408160.68,NULL,Fenster,dirisha,s,walakini,tasawari,maarifa,NA,sdfdsf,1,1,NA,NA,NA,NA,NA,NA,NA,NA,NA,NA,NA,NA,NA,NA,NA,NA,NA,NA,NA
30bd8,"""Falsch""-Screen",canvas.Screen,3_0_1_0_7_1_2,NA,NA,skipped,NA,408152,NA,NA,408144.12,408153,2023-10-17T15:29:38Z,408160.68,NULL,Fenster,dirisha,s,walakini,tasawari,maarifa,NA,sdfdsf,NA,1,NA,NA,NA,NA,NA,NA,NA,NA,NA,NA,NA,NA,NA,NA,NA,NA,NA,NA,NA
30bd8,shallow,flow.Sequence,3_0_1_0_7_1,NA,NA,completion,11132.12,396998,396995.34,397012,408144.12,408153,2023-10-17T15:29:38Z,408160.68,NULL,Fenster,dirisha,s,walakini,tasawari,maarifa,NA,sdfdsf,NA,1,NA,NA,NA,NA,NA,NA,NA,NA,NA,NA,NA,NA,NA,NA,NA,NA,NA,NA,NA
30bd8,task,flow.Sequence,3_0_1_0_7,NA,NA,completion,11132.12,396998,396995.34,397012,408144.12,408153,2023-10-17T15:29:38Z,408160.68,NULL,Fenster,dirisha,s,walakini,tasawari,maarifa,NA,sdfdsf,NA,1,NA,NA,NA,NA,NA,NA,NA,NA,NA,NA,NA,NA,NA,NA,NA,NA,NA,NA,NA
30bd8,block,flow.Loop,3_0_1_0,NA,NA,completion,81458.16,326685,326685.6,326685.96,408144.12,408154,2023-10-17T15:29:38Z,408160.68,NULL,NA,NA,NA,NA,NA,NA,NA,sdfdsf,NA,1,NA,NA,NA,NA,NA,NA,NA,NA,NA,NA,NA,NA,NA,NA,NA,NA,NA,NA,NA
30bd8,weiter,canvas.Screen,3_0_1_1,sdf,keypress(Space),response,1330.32,408154,408144.12,408160.68,409491,409504,2023-10-17T15:29:40Z,409568.26,NULL,NA,NA,NA,NA,NA,NA,NA,sdfdsf,NA,1,NA,NA,NA,NA,NA,NA,NA,NA,NA,NA,NA,NA,NA,NA,NA,NA,NA,NA,NA
30bd8,check continue,flow.Sequence,3_0_1,NA,NA,completion,82805.04,326685,326685.6,326685.96,409491,409504,2023-10-17T15:29:40Z,409568.26,NULL,NA,NA,NA,NA,NA,NA,NA,sdfdsf,NA,1,NA,NA,NA,NA,NA,NA,NA,NA,NA,NA,NA,NA,NA,NA,NA,NA,NA,NA,NA
30bd8,Deep Question,html.Page,3_0_2_0_0_0_0,NA,NA,form submission,4783.74,409568,409567.94,409568.26,414352,414352,2023-10-17T15:29:44Z,414359.88,NULL,Papier,karatasi,d,NA,NA,NA,sarafasi,NA,NA,2,NA,NA,NA,NA,NA,NA,NA,NA,NA,NA,NA,NA,NA,NA,NA,NA,NA,NA,NA
30bd8,"""Richtig""-Screen",canvas.Screen,3_0_2_0_0_0_1,NA,NA,skipped,NA,414355,NA,NA,414352,414355,2023-10-17T15:29:44Z,414359.88,NULL,Papier,karatasi,d,NA,NA,NA,NA,sdf,NA,2,NA,NA,NA,NA,NA,NA,NA,NA,NA,NA,NA,NA,NA,NA,NA,NA,NA,NA,NA
30bd8,"""Falsch""-Screen",canvas.Screen,3_0_2_0_0_0_2,NA,NA,timeout,4999.4,414358,414351,414359.88,419342.62,419345,2023-10-17T15:29:49Z,419359.28,NULL,Papier,karatasi,d,NA,NA,NA,NA,sdf,0,2,NA,NA,NA,NA,NA,NA,NA,NA,NA,NA,NA,NA,NA,NA,NA,NA,NA,NA,NA
30bd8,deep,flow.Sequence,3_0_2_0_0_0,NA,NA,completion,9774.36,409568,409567.94,409568.26,419342.62,419345,2023-10-17T15:29:49Z,419359.28,NULL,Papier,karatasi,d,NA,NA,NA,NA,sdf,NA,2,NA,NA,NA,NA,NA,NA,NA,NA,NA,NA,NA,NA,NA,NA,NA,NA,NA,NA,NA
30bd8,shallow,flow.Sequence,3_0_2_0_0_1,NA,NA,skipped,NA,419345,NA,NA,419342.62,419346,2023-10-17T15:29:49Z,419359.28,NULL,Papier,karatasi,d,NA,NA,NA,NA,sdf,NA,2,NA,NA,NA,NA,NA,NA,NA,NA,NA,NA,NA,NA,NA,NA,NA,NA,NA,NA,NA
30bd8,task,flow.Sequence,3_0_2_0_0,NA,NA,completion,9774.36,409567,409567.94,409568.26,419342.62,419346,2023-10-17T15:29:49Z,419359.28,NULL,Papier,karatasi,d,NA,NA,NA,NA,sdf,NA,2,NA,NA,NA,NA,NA,NA,NA,NA,NA,NA,NA,NA,NA,NA,NA,NA,NA,NA,NA
30bd8,Deep Question,html.Page,3_0_2_0_1_0_0,NA,NA,form submission,2653.72,419346,419342.62,419359.28,422013,422013,2023-10-17T15:29:52Z,422025.4,NULL,Tester,wanaojaribu,d,NA,NA,NA,jjj,NA,NA,2,NA,NA,NA,NA,NA,NA,NA,NA,NA,NA,NA,NA,NA,NA,NA,NA,NA,NA,NA
30bd8,"""Richtig""-Screen",canvas.Screen,3_0_2_0_1_0_1,NA,NA,skipped,NA,422013,NA,NA,422013,422013,2023-10-17T15:29:52Z,422025.4,NULL,Tester,wanaojaribu,d,NA,NA,NA,NA,sdf,NA,2,NA,NA,NA,NA,NA,NA,NA,NA,NA,NA,NA,NA,NA,NA,NA,NA,NA,NA,NA
30bd8,"""Falsch""-Screen",canvas.Screen,3_0_2_0_1_0_2,NA,NA,timeout,4999.48,422015,422011.54,422025.4,427008.22,427011,2023-10-17T15:29:57Z,427024.88,NULL,Tester,wanaojaribu,d,NA,NA,NA,NA,sdf,0,2,NA,NA,NA,NA,NA,NA,NA,NA,NA,NA,NA,NA,NA,NA,NA,NA,NA,NA,NA
30bd8,deep,flow.Sequence,3_0_2_0_1_0,NA,NA,completion,7648.9399999999,419346,419342.62,419359.28,427008.22,427011,2023-10-17T15:29:57Z,427024.88,NULL,Tester,wanaojaribu,d,NA,NA,NA,NA,sdf,NA,2,NA,NA,NA,NA,NA,NA,NA,NA,NA,NA,NA,NA,NA,NA,NA,NA,NA,NA,NA
30bd8,shallow,flow.Sequence,3_0_2_0_1_1,NA,NA,skipped,NA,427012,NA,NA,427008.22,427012,2023-10-17T15:29:57Z,427024.88,NULL,Tester,wanaojaribu,d,NA,NA,NA,NA,sdf,NA,2,NA,NA,NA,NA,NA,NA,NA,NA,NA,NA,NA,NA,NA,NA,NA,NA,NA,NA,NA
30bd8,task,flow.Sequence,3_0_2_0_1,NA,NA,completion,7648.9399999999,419346,419342.62,419359.28,427008.22,427012,2023-10-17T15:29:57Z,427024.88,NULL,Tester,wanaojaribu,d,NA,NA,NA,NA,sdf,NA,2,NA,NA,NA,NA,NA,NA,NA,NA,NA,NA,NA,NA,NA,NA,NA,NA,NA,NA,NA
30bd8,deep,flow.Sequence,3_0_2_0_2_0,NA,NA,skipped,NA,427012,NA,NA,427008.22,427013,2023-10-17T15:29:57Z,427024.88,NULL,Spionage,upelelezi,s,maslahi,utokazo,magangao,NA,sdf,NA,2,NA,NA,NA,NA,NA,NA,NA,NA,NA,NA,NA,NA,NA,NA,NA,NA,NA,NA,NA
30bd8,Shallow Question,html.Page,3_0_2_0_2_1_0,NA,NA,form submission,4679.12,427013,427008.22,427024.88,431704,431708,2023-10-17T15:30:02Z,431707.62,NULL,Spionage,upelelezi,s,maslahi,utokazo,magangao,upelelezi,NA,NA,2,NA,NA,NA,NA,NA,NA,NA,NA,NA,NA,NA,NA,NA,NA,NA,NA,NA,NA,NA
30bd8,"""Richtig""-Screen",canvas.Screen,3_0_2_0_2_1_1,NA,NA,timeout,4999.4,431718,431689.66,431707.62,436690.36,436692,2023-10-17T15:30:07Z,436707.02,NULL,Spionage,upelelezi,s,maslahi,utokazo,magangao,NA,sdf,1,2,NA,NA,NA,NA,NA,NA,NA,NA,NA,NA,NA,NA,NA,NA,NA,NA,NA,NA,NA
30bd8,"""Falsch""-Screen",canvas.Screen,3_0_2_0_2_1_2,NA,NA,skipped,NA,436698,NA,NA,436690.36,436698,2023-10-17T15:30:07Z,436707.02,NULL,Spionage,upelelezi,s,maslahi,utokazo,magangao,NA,sdf,NA,2,NA,NA,NA,NA,NA,NA,NA,NA,NA,NA,NA,NA,NA,NA,NA,NA,NA,NA,NA
30bd8,shallow,flow.Sequence,3_0_2_0_2_1,NA,NA,completion,9665.48,427013,427008.22,427024.88,436690.36,436698,2023-10-17T15:30:07Z,436707.02,NULL,Spionage,upelelezi,s,maslahi,utokazo,magangao,NA,sdf,NA,2,NA,NA,NA,NA,NA,NA,NA,NA,NA,NA,NA,NA,NA,NA,NA,NA,NA,NA,NA
30bd8,task,flow.Sequence,3_0_2_0_2,NA,NA,completion,9665.48,427012,427008.22,427024.88,436690.36,436699,2023-10-17T15:30:07Z,436707.02,NULL,Spionage,upelelezi,s,maslahi,utokazo,magangao,NA,sdf,NA,2,NA,NA,NA,NA,NA,NA,NA,NA,NA,NA,NA,NA,NA,NA,NA,NA,NA,NA,NA
30bd8,deep,flow.Sequence,3_0_2_0_3_0,NA,NA,skipped,NA,436699,NA,NA,436690.36,436699,2023-10-17T15:30:07Z,436707.02,NULL,Entwicklung,maendeleo,s,uangavu,mshindwa,badiliko,NA,sdf,NA,2,NA,NA,NA,NA,NA,NA,NA,NA,NA,NA,NA,NA,NA,NA,NA,NA,NA,NA,NA
30bd8,Shallow Question,html.Page,3_0_2_0_3_1_0,NA,NA,form submission,9374.98,436699,436690.36,436707.02,446082,446082,2023-10-17T15:30:16Z,446089.14,NULL,Entwicklung,maendeleo,s,uangavu,mshindwa,badiliko,maendeleo,NA,NA,2,NA,NA,NA,NA,NA,NA,NA,NA,NA,NA,NA,NA,NA,NA,NA,NA,NA,NA,NA
30bd8,"""Richtig""-Screen",canvas.Screen,3_0_2_0_3_1_1,NA,NA,timeout,4999.36,446084,446080.2,446089.14,451071.88,451073,2023-10-17T15:30:21Z,451088.5,NULL,Entwicklung,maendeleo,s,uangavu,mshindwa,badiliko,NA,sdf,1,2,NA,NA,NA,NA,NA,NA,NA,NA,NA,NA,NA,NA,NA,NA,NA,NA,NA,NA,NA
30bd8,"""Falsch""-Screen",canvas.Screen,3_0_2_0_3_1_2,NA,NA,skipped,NA,451078,NA,NA,451071.88,451078,2023-10-17T15:30:21Z,451088.5,NULL,Entwicklung,maendeleo,s,uangavu,mshindwa,badiliko,NA,sdf,NA,2,NA,NA,NA,NA,NA,NA,NA,NA,NA,NA,NA,NA,NA,NA,NA,NA,NA,NA,NA
30bd8,shallow,flow.Sequence,3_0_2_0_3_1,NA,NA,completion,14364.86,436699,436690.36,436707.02,451071.88,451079,2023-10-17T15:30:21Z,451088.5,NULL,Entwicklung,maendeleo,s,uangavu,mshindwa,badiliko,NA,sdf,NA,2,NA,NA,NA,NA,NA,NA,NA,NA,NA,NA,NA,NA,NA,NA,NA,NA,NA,NA,NA
30bd8,task,flow.Sequence,3_0_2_0_3,NA,NA,completion,14364.86,436699,436690.36,436707.02,451071.88,451079,2023-10-17T15:30:21Z,451088.5,NULL,Entwicklung,maendeleo,s,uangavu,mshindwa,badiliko,NA,sdf,NA,2,NA,NA,NA,NA,NA,NA,NA,NA,NA,NA,NA,NA,NA,NA,NA,NA,NA,NA,NA
30bd8,Deep Question,html.Page,3_0_2_0_4_0_0,NA,NA,form submission,4625.5,451080,451071.88,451088.5,455714,455715,2023-10-17T15:30:26Z,455721,NULL,Niveau,kiwango,d,NA,NA,NA,karatango,NA,NA,2,NA,NA,NA,NA,NA,NA,NA,NA,NA,NA,NA,NA,NA,NA,NA,NA,NA,NA,NA
30bd8,"""Richtig""-Screen",canvas.Screen,3_0_2_0_4_0_1,NA,NA,skipped,NA,455718,NA,NA,455714,455718,2023-10-17T15:30:26Z,455721,NULL,Niveau,kiwango,d,NA,NA,NA,NA,sdf,NA,2,NA,NA,NA,NA,NA,NA,NA,NA,NA,NA,NA,NA,NA,NA,NA,NA,NA,NA,NA
30bd8,"""Falsch""-Screen",canvas.Screen,3_0_2_0_4_0_2,NA,NA,timeout,4999.66,455721,455712.96,455721,460704,460705,2023-10-17T15:30:31Z,460720.66,NULL,Niveau,kiwango,d,NA,NA,NA,NA,sdf,0,2,NA,NA,NA,NA,NA,NA,NA,NA,NA,NA,NA,NA,NA,NA,NA,NA,NA,NA,NA
30bd8,deep,flow.Sequence,3_0_2_0_4_0,NA,NA,completion,9615.5,451080,451071.88,451088.5,460704,460706,2023-10-17T15:30:31Z,460720.66,NULL,Niveau,kiwango,d,NA,NA,NA,NA,sdf,NA,2,NA,NA,NA,NA,NA,NA,NA,NA,NA,NA,NA,NA,NA,NA,NA,NA,NA,NA,NA
30bd8,shallow,flow.Sequence,3_0_2_0_4_1,NA,NA,skipped,NA,460706,NA,NA,460704,460706,2023-10-17T15:30:31Z,460720.66,NULL,Niveau,kiwango,d,NA,NA,NA,NA,sdf,NA,2,NA,NA,NA,NA,NA,NA,NA,NA,NA,NA,NA,NA,NA,NA,NA,NA,NA,NA,NA
30bd8,task,flow.Sequence,3_0_2_0_4,NA,NA,completion,9615.5,451080,451071.88,451088.5,460704,460708,2023-10-17T15:30:31Z,460720.66,NULL,Niveau,kiwango,d,NA,NA,NA,NA,sdf,NA,2,NA,NA,NA,NA,NA,NA,NA,NA,NA,NA,NA,NA,NA,NA,NA,NA,NA,NA,NA
30bd8,deep,flow.Sequence,3_0_2_0_5_0,NA,NA,skipped,NA,460708,NA,NA,460704,460708,2023-10-17T15:30:31Z,460720.66,NULL,Fenster,dirisha,s,walakini,tasawari,maarifa,NA,sdf,NA,2,NA,NA,NA,NA,NA,NA,NA,NA,NA,NA,NA,NA,NA,NA,NA,NA,NA,NA,NA
30bd8,Shallow Question,html.Page,3_0_2_0_5_1_0,NA,NA,form submission,2786.34,460708,460704,460720.66,463507,463507,2023-10-17T15:30:34Z,463506.62,NULL,Fenster,dirisha,s,walakini,tasawari,maarifa,dirisha,NA,NA,2,NA,NA,NA,NA,NA,NA,NA,NA,NA,NA,NA,NA,NA,NA,NA,NA,NA,NA,NA
30bd8,"""Richtig""-Screen",canvas.Screen,3_0_2_0_5_1_1,NA,NA,timeout,4996.42,463510,463506.24,463506.62,468486.38,468488,2023-10-17T15:30:39Z,468503.04,NULL,Fenster,dirisha,s,walakini,tasawari,maarifa,NA,sdf,1,2,NA,NA,NA,NA,NA,NA,NA,NA,NA,NA,NA,NA,NA,NA,NA,NA,NA,NA,NA
30bd8,"""Falsch""-Screen",canvas.Screen,3_0_2_0_5_1_2,NA,NA,skipped,NA,468496,NA,NA,468486.38,468496,2023-10-17T15:30:39Z,468503.04,NULL,Fenster,dirisha,s,walakini,tasawari,maarifa,NA,sdf,NA,2,NA,NA,NA,NA,NA,NA,NA,NA,NA,NA,NA,NA,NA,NA,NA,NA,NA,NA,NA
30bd8,shallow,flow.Sequence,3_0_2_0_5_1,NA,NA,completion,7765.72,460708,460704,460720.66,468486.38,468496,2023-10-17T15:30:39Z,468503.04,NULL,Fenster,dirisha,s,walakini,tasawari,maarifa,NA,sdf,NA,2,NA,NA,NA,NA,NA,NA,NA,NA,NA,NA,NA,NA,NA,NA,NA,NA,NA,NA,NA
30bd8,task,flow.Sequence,3_0_2_0_5,NA,NA,completion,7765.72,460708,460704,460720.66,468486.38,468497,2023-10-17T15:30:39Z,468503.04,NULL,Fenster,dirisha,s,walakini,tasawari,maarifa,NA,sdf,NA,2,NA,NA,NA,NA,NA,NA,NA,NA,NA,NA,NA,NA,NA,NA,NA,NA,NA,NA,NA
30bd8,deep,flow.Sequence,3_0_2_0_6_0,NA,NA,skipped,NA,468497,NA,NA,468486.38,468498,2023-10-17T15:30:39Z,468503.04,NULL,Vorwurf,mashtaka,s,msukumo,mtangulizi,uenyekiti,NA,sdf,NA,2,NA,NA,NA,NA,NA,NA,NA,NA,NA,NA,NA,NA,NA,NA,NA,NA,NA,NA,NA
30bd8,Shallow Question,html.Page,3_0_2_0_6_1_0,NA,NA,form submission,4318.96,468498,468486.38,468503.04,472822,472823,2023-10-17T15:30:43Z,472821.3,NULL,Vorwurf,mashtaka,s,msukumo,mtangulizi,uenyekiti,mtangulizi,NA,NA,2,NA,NA,NA,NA,NA,NA,NA,NA,NA,NA,NA,NA,NA,NA,NA,NA,NA,NA,NA
30bd8,"""Richtig""-Screen",canvas.Screen,3_0_2_0_6_1_1,NA,NA,skipped,NA,472825,NA,NA,472822,472825,2023-10-17T15:30:43Z,472821.3,NULL,Vorwurf,mashtaka,s,msukumo,mtangulizi,uenyekiti,NA,sdf,NA,2,NA,NA,NA,NA,NA,NA,NA,NA,NA,NA,NA,NA,NA,NA,NA,NA,NA,NA,NA
30bd8,"""Falsch""-Screen",canvas.Screen,3_0_2_0_6_1_2,NA,NA,timeout,4997.16,472828,472821.04,472821.3,477801.8,477804,2023-10-17T15:30:48Z,477818.46,NULL,Vorwurf,mashtaka,s,msukumo,mtangulizi,uenyekiti,NA,sdf,0,2,NA,NA,NA,NA,NA,NA,NA,NA,NA,NA,NA,NA,NA,NA,NA,NA,NA,NA,NA
30bd8,shallow,flow.Sequence,3_0_2_0_6_1,NA,NA,completion,9298.76,468498,468486.38,468503.04,477801.8,477805,2023-10-17T15:30:48Z,477818.46,NULL,Vorwurf,mashtaka,s,msukumo,mtangulizi,uenyekiti,NA,sdf,NA,2,NA,NA,NA,NA,NA,NA,NA,NA,NA,NA,NA,NA,NA,NA,NA,NA,NA,NA,NA
30bd8,task,flow.Sequence,3_0_2_0_6,NA,NA,completion,9298.76,468497,468486.38,468503.04,477801.8,477805,2023-10-17T15:30:48Z,477818.46,NULL,Vorwurf,mashtaka,s,msukumo,mtangulizi,uenyekiti,NA,sdf,NA,2,NA,NA,NA,NA,NA,NA,NA,NA,NA,NA,NA,NA,NA,NA,NA,NA,NA,NA,NA
30bd8,Deep Question,html.Page,3_0_2_0_7_0_0,NA,NA,form submission,4369.54,477805,477801.8,477818.46,482188,482188,2023-10-17T15:30:52Z,482200.94,NULL,Schüler,mwanafunzi,d,NA,NA,NA,kk,NA,NA,2,NA,NA,NA,NA,NA,NA,NA,NA,NA,NA,NA,NA,NA,NA,NA,NA,NA,NA,NA
30bd8,"""Richtig""-Screen",canvas.Screen,3_0_2_0_7_0_1,NA,NA,skipped,NA,482189,NA,NA,482188,482189,2023-10-17T15:30:52Z,482200.94,NULL,Schüler,mwanafunzi,d,NA,NA,NA,NA,sdf,NA,2,NA,NA,NA,NA,NA,NA,NA,NA,NA,NA,NA,NA,NA,NA,NA,NA,NA,NA,NA
30bd8,"""Falsch""-Screen",canvas.Screen,3_0_2_0_7_0_2,NA,NA,timeout,4999.66,482191,482186.14,482200.94,487183.94,487185,2023-10-17T15:30:57Z,487200.6,NULL,Schüler,mwanafunzi,d,NA,NA,NA,NA,sdf,0,2,NA,NA,NA,NA,NA,NA,NA,NA,NA,NA,NA,NA,NA,NA,NA,NA,NA,NA,NA
30bd8,deep,flow.Sequence,3_0_2_0_7_0,NA,NA,completion,9365.48,477805,477801.8,477818.46,487183.94,487186,2023-10-17T15:30:57Z,487200.6,NULL,Schüler,mwanafunzi,d,NA,NA,NA,NA,sdf,NA,2,NA,NA,NA,NA,NA,NA,NA,NA,NA,NA,NA,NA,NA,NA,NA,NA,NA,NA,NA
30bd8,shallow,flow.Sequence,3_0_2_0_7_1,NA,NA,skipped,NA,487186,NA,NA,487183.94,487186,2023-10-17T15:30:57Z,487200.6,NULL,Schüler,mwanafunzi,d,NA,NA,NA,NA,sdf,NA,2,NA,NA,NA,NA,NA,NA,NA,NA,NA,NA,NA,NA,NA,NA,NA,NA,NA,NA,NA
30bd8,task,flow.Sequence,3_0_2_0_7,NA,NA,completion,9365.48,477805,477801.8,477818.46,487183.94,487187,2023-10-17T15:30:57Z,487200.6,NULL,Schüler,mwanafunzi,d,NA,NA,NA,NA,sdf,NA,2,NA,NA,NA,NA,NA,NA,NA,NA,NA,NA,NA,NA,NA,NA,NA,NA,NA,NA,NA
30bd8,block,flow.Loop,3_0_2_0,NA,NA,completion,77615.68,409567,409567.94,409568.26,487183.94,487187,2023-10-17T15:30:57Z,487200.6,NULL,NA,NA,NA,NA,NA,NA,NA,sdf,NA,2,NA,NA,NA,NA,NA,NA,NA,NA,NA,NA,NA,NA,NA,NA,NA,NA,NA,NA,NA
30bd8,weiter,canvas.Screen,3_0_2_1,sdf,keypress(Space),response,1181.4,487188,487183.94,487200.6,488382,488390,2023-10-17T15:30:58Z,488445.9,NULL,NA,NA,NA,NA,NA,NA,NA,sdf,NA,2,NA,NA,NA,NA,NA,NA,NA,NA,NA,NA,NA,NA,NA,NA,NA,NA,NA,NA,NA
30bd8,check continue,flow.Sequence,3_0_2,NA,NA,completion,78813.74,409567,409567.94,409568.26,488382,488391,2023-10-17T15:30:58Z,488445.9,NULL,NA,NA,NA,NA,NA,NA,NA,sdf,NA,2,NA,NA,NA,NA,NA,NA,NA,NA,NA,NA,NA,NA,NA,NA,NA,NA,NA,NA,NA
30bd8,deep,flow.Sequence,3_0_3_0_0_0,NA,NA,skipped,NA,488446,NA,NA,488382,488446,2023-10-17T15:30:59Z,488445.9,NULL,Vorwurf,mashtaka,s,msukumo,mtangulizi,uenyekiti,NA,qt,NA,3,NA,NA,NA,NA,NA,NA,NA,NA,NA,NA,NA,NA,NA,NA,NA,NA,NA,NA,NA
30bd8,Shallow Question,html.Page,3_0_3_0_0_1_0,NA,NA,form submission,6269.1,488446,488445.56,488445.9,494715,494717,2023-10-17T15:31:05Z,494716.34,NULL,Vorwurf,mashtaka,s,msukumo,mtangulizi,uenyekiti,mtangulizi,NA,NA,3,NA,NA,NA,NA,NA,NA,NA,NA,NA,NA,NA,NA,NA,NA,NA,NA,NA,NA,NA
30bd8,"""Richtig""-Screen",canvas.Screen,3_0_3_0_0_1_1,NA,NA,skipped,NA,494725,NA,NA,494715,494725,2023-10-17T15:31:05Z,494716.34,NULL,Vorwurf,mashtaka,s,msukumo,mtangulizi,uenyekiti,NA,qt,NA,3,NA,NA,NA,NA,NA,NA,NA,NA,NA,NA,NA,NA,NA,NA,NA,NA,NA,NA,NA
30bd8,"""Falsch""-Screen",canvas.Screen,3_0_3_0_0_1_2,NA,NA,timeout,4999.28,494728,494713.04,494716.34,499698.96,499700,2023-10-17T15:31:10Z,499715.62,NULL,Vorwurf,mashtaka,s,msukumo,mtangulizi,uenyekiti,NA,qt,0,3,NA,NA,NA,NA,NA,NA,NA,NA,NA,NA,NA,NA,NA,NA,NA,NA,NA,NA,NA
30bd8,shallow,flow.Sequence,3_0_3_0_0_1,NA,NA,completion,11253.06,488446,488445.56,488445.9,499698.96,499701,2023-10-17T15:31:10Z,499715.62,NULL,Vorwurf,mashtaka,s,msukumo,mtangulizi,uenyekiti,NA,qt,NA,3,NA,NA,NA,NA,NA,NA,NA,NA,NA,NA,NA,NA,NA,NA,NA,NA,NA,NA,NA
30bd8,task,flow.Sequence,3_0_3_0_0,NA,NA,completion,11253.06,488446,488445.56,488445.9,499698.96,499701,2023-10-17T15:31:10Z,499715.62,NULL,Vorwurf,mashtaka,s,msukumo,mtangulizi,uenyekiti,NA,qt,NA,3,NA,NA,NA,NA,NA,NA,NA,NA,NA,NA,NA,NA,NA,NA,NA,NA,NA,NA,NA
30bd8,deep,flow.Sequence,3_0_3_0_1_0,NA,NA,skipped,NA,499701,NA,NA,499698.96,499702,2023-10-17T15:31:10Z,499715.62,NULL,Entwicklung,maendeleo,s,uangavu,mshindwa,badiliko,NA,qt,NA,3,NA,NA,NA,NA,NA,NA,NA,NA,NA,NA,NA,NA,NA,NA,NA,NA,NA,NA,NA
30bd8,Shallow Question,html.Page,3_0_3_0_1_1_0,NA,NA,form submission,4423.38,499702,499698.96,499715.62,504139,504139,2023-10-17T15:31:14Z,504138.52,NULL,Entwicklung,maendeleo,s,uangavu,mshindwa,badiliko,maendeleo,NA,NA,3,NA,NA,NA,NA,NA,NA,NA,NA,NA,NA,NA,NA,NA,NA,NA,NA,NA,NA,NA
30bd8,"""Richtig""-Screen",canvas.Screen,3_0_3_0_1_1_1,NA,NA,timeout,4992.52,504142,504138.12,504138.52,509114.38,509116,2023-10-17T15:31:19Z,509131.04,NULL,Entwicklung,maendeleo,s,uangavu,mshindwa,badiliko,NA,qt,1,3,NA,NA,NA,NA,NA,NA,NA,NA,NA,NA,NA,NA,NA,NA,NA,NA,NA,NA,NA
30bd8,"""Falsch""-Screen",canvas.Screen,3_0_3_0_1_1_2,NA,NA,skipped,NA,509124,NA,NA,509114.38,509125,2023-10-17T15:31:19Z,509131.04,NULL,Entwicklung,maendeleo,s,uangavu,mshindwa,badiliko,NA,qt,NA,3,NA,NA,NA,NA,NA,NA,NA,NA,NA,NA,NA,NA,NA,NA,NA,NA,NA,NA,NA
30bd8,shallow,flow.Sequence,3_0_3_0_1_1,NA,NA,completion,9398.76,499702,499698.96,499715.62,509114.38,509126,2023-10-17T15:31:19Z,509131.04,NULL,Entwicklung,maendeleo,s,uangavu,mshindwa,badiliko,NA,qt,NA,3,NA,NA,NA,NA,NA,NA,NA,NA,NA,NA,NA,NA,NA,NA,NA,NA,NA,NA,NA
30bd8,task,flow.Sequence,3_0_3_0_1,NA,NA,completion,9398.76,499701,499698.96,499715.62,509114.38,509126,2023-10-17T15:31:19Z,509131.04,NULL,Entwicklung,maendeleo,s,uangavu,mshindwa,badiliko,NA,qt,NA,3,NA,NA,NA,NA,NA,NA,NA,NA,NA,NA,NA,NA,NA,NA,NA,NA,NA,NA,NA
30bd8,Deep Question,html.Page,3_0_3_0_2_0_0,NA,NA,form submission,5965.96,509127,509114.38,509131.04,515097,515097,2023-10-17T15:31:25Z,515097.02,NULL,Papier,karatasi,d,NA,NA,NA,karatasi,NA,NA,3,NA,NA,NA,NA,NA,NA,NA,NA,NA,NA,NA,NA,NA,NA,NA,NA,NA,NA,NA
30bd8,"""Richtig""-Screen",canvas.Screen,3_0_3_0_2_0_1,NA,NA,timeout,4999.4,515100,515094.88,515097.02,520079.8,520082,2023-10-17T15:31:30Z,520096.42,NULL,Papier,karatasi,d,NA,NA,NA,NA,qt,1,3,NA,NA,NA,NA,NA,NA,NA,NA,NA,NA,NA,NA,NA,NA,NA,NA,NA,NA,NA
30bd8,"""Falsch""-Screen",canvas.Screen,3_0_3_0_2_0_2,NA,NA,skipped,NA,520090,NA,NA,520079.8,520090,2023-10-17T15:31:30Z,520096.42,NULL,Papier,karatasi,d,NA,NA,NA,NA,qt,NA,3,NA,NA,NA,NA,NA,NA,NA,NA,NA,NA,NA,NA,NA,NA,NA,NA,NA,NA,NA
30bd8,deep,flow.Sequence,3_0_3_0_2_0,NA,NA,completion,10948.76,509127,509114.38,509131.04,520079.8,520091,2023-10-17T15:31:30Z,520096.42,NULL,Papier,karatasi,d,NA,NA,NA,NA,qt,NA,3,NA,NA,NA,NA,NA,NA,NA,NA,NA,NA,NA,NA,NA,NA,NA,NA,NA,NA,NA
30bd8,shallow,flow.Sequence,3_0_3_0_2_1,NA,NA,skipped,NA,520091,NA,NA,520079.8,520092,2023-10-17T15:31:30Z,520096.42,NULL,Papier,karatasi,d,NA,NA,NA,NA,qt,NA,3,NA,NA,NA,NA,NA,NA,NA,NA,NA,NA,NA,NA,NA,NA,NA,NA,NA,NA,NA
30bd8,task,flow.Sequence,3_0_3_0_2,NA,NA,completion,10948.76,509127,509114.38,509131.04,520079.8,520093,2023-10-17T15:31:30Z,520096.42,NULL,Papier,karatasi,d,NA,NA,NA,NA,qt,NA,3,NA,NA,NA,NA,NA,NA,NA,NA,NA,NA,NA,NA,NA,NA,NA,NA,NA,NA,NA
30bd8,Deep Question,html.Page,3_0_3_0_3_0_0,NA,NA,form submission,6059.58,520094,520079.8,520096.42,526156,526156,2023-10-17T15:31:36Z,526162.32,NULL,Niveau,kiwango,d,NA,NA,NA,karafaso,NA,NA,3,NA,NA,NA,NA,NA,NA,NA,NA,NA,NA,NA,NA,NA,NA,NA,NA,NA,NA,NA
30bd8,"""Richtig""-Screen",canvas.Screen,3_0_3_0_3_0_1,NA,NA,skipped,NA,526159,NA,NA,526156,526159,2023-10-17T15:31:36Z,526162.32,NULL,Niveau,kiwango,d,NA,NA,NA,NA,qt,NA,3,NA,NA,NA,NA,NA,NA,NA,NA,NA,NA,NA,NA,NA,NA,NA,NA,NA,NA,NA
30bd8,"""Falsch""-Screen",canvas.Screen,3_0_3_0_3_0_2,NA,NA,timeout,4999.28,526163,526154.36,526162.32,531144.94,531147,2023-10-17T15:31:41Z,531161.6,NULL,Niveau,kiwango,d,NA,NA,NA,NA,qt,0,3,NA,NA,NA,NA,NA,NA,NA,NA,NA,NA,NA,NA,NA,NA,NA,NA,NA,NA,NA
30bd8,deep,flow.Sequence,3_0_3_0_3_0,NA,NA,completion,11048.52,520094,520079.8,520096.42,531144.94,531148,2023-10-17T15:31:41Z,531161.6,NULL,Niveau,kiwango,d,NA,NA,NA,NA,qt,NA,3,NA,NA,NA,NA,NA,NA,NA,NA,NA,NA,NA,NA,NA,NA,NA,NA,NA,NA,NA
30bd8,shallow,flow.Sequence,3_0_3_0_3_1,NA,NA,skipped,NA,531148,NA,NA,531144.94,531149,2023-10-17T15:31:41Z,531161.6,NULL,Niveau,kiwango,d,NA,NA,NA,NA,qt,NA,3,NA,NA,NA,NA,NA,NA,NA,NA,NA,NA,NA,NA,NA,NA,NA,NA,NA,NA,NA
30bd8,task,flow.Sequence,3_0_3_0_3,NA,NA,completion,11048.52,520093,520079.8,520096.42,531144.94,531149,2023-10-17T15:31:41Z,531161.6,NULL,Niveau,kiwango,d,NA,NA,NA,NA,qt,NA,3,NA,NA,NA,NA,NA,NA,NA,NA,NA,NA,NA,NA,NA,NA,NA,NA,NA,NA,NA
30bd8,deep,flow.Sequence,3_0_3_0_4_0,NA,NA,skipped,NA,531150,NA,NA,531144.94,531150,2023-10-17T15:31:41Z,531161.6,NULL,Spionage,upelelezi,s,maslahi,utokazo,magangao,NA,qt,NA,3,NA,NA,NA,NA,NA,NA,NA,NA,NA,NA,NA,NA,NA,NA,NA,NA,NA,NA,NA
30bd8,Shallow Question,html.Page,3_0_3_0_4_1_0,NA,NA,form submission,3662.4,531150,531144.94,531161.6,534824,534825,2023-10-17T15:31:45Z,534827.72,NULL,Spionage,upelelezi,s,maslahi,utokazo,magangao,upelelezi,NA,NA,3,NA,NA,NA,NA,NA,NA,NA,NA,NA,NA,NA,NA,NA,NA,NA,NA,NA,NA,NA
30bd8,"""Richtig""-Screen",canvas.Screen,3_0_3_0_4_1_1,NA,NA,timeout,4999.4600000001,534830,534818.26,534827.72,539810.52,539812,2023-10-17T15:31:50Z,539827.18,NULL,Spionage,upelelezi,s,maslahi,utokazo,magangao,NA,qt,1,3,NA,NA,NA,NA,NA,NA,NA,NA,NA,NA,NA,NA,NA,NA,NA,NA,NA,NA,NA
30bd8,"""Falsch""-Screen",canvas.Screen,3_0_3_0_4_1_2,NA,NA,skipped,NA,539816,NA,NA,539810.52,539816,2023-10-17T15:31:50Z,539827.18,NULL,Spionage,upelelezi,s,maslahi,utokazo,magangao,NA,qt,NA,3,NA,NA,NA,NA,NA,NA,NA,NA,NA,NA,NA,NA,NA,NA,NA,NA,NA,NA,NA
30bd8,shallow,flow.Sequence,3_0_3_0_4_1,NA,NA,completion,8648.92,531150,531144.94,531161.6,539810.52,539816,2023-10-17T15:31:50Z,539827.18,NULL,Spionage,upelelezi,s,maslahi,utokazo,magangao,NA,qt,NA,3,NA,NA,NA,NA,NA,NA,NA,NA,NA,NA,NA,NA,NA,NA,NA,NA,NA,NA,NA
30bd8,task,flow.Sequence,3_0_3_0_4,NA,NA,completion,8648.92,531149,531144.94,531161.6,539810.52,539817,2023-10-17T15:31:50Z,539827.18,NULL,Spionage,upelelezi,s,maslahi,utokazo,magangao,NA,qt,NA,3,NA,NA,NA,NA,NA,NA,NA,NA,NA,NA,NA,NA,NA,NA,NA,NA,NA,NA,NA
30bd8,deep,flow.Sequence,3_0_3_0_5_0,NA,NA,skipped,NA,539817,NA,NA,539810.52,539817,2023-10-17T15:31:50Z,539827.18,NULL,Fenster,dirisha,s,walakini,tasawari,maarifa,NA,qt,NA,3,NA,NA,NA,NA,NA,NA,NA,NA,NA,NA,NA,NA,NA,NA,NA,NA,NA,NA,NA
30bd8,Shallow Question,html.Page,3_0_3_0_5_1_0,NA,NA,form submission,2476.8199999999,539817,539810.52,539827.18,542304,542305,2023-10-17T15:31:52Z,542303.42,NULL,Fenster,dirisha,s,walakini,tasawari,maarifa,dirisha,NA,NA,3,NA,NA,NA,NA,NA,NA,NA,NA,NA,NA,NA,NA,NA,NA,NA,NA,NA,NA,NA
30bd8,"""Richtig""-Screen",canvas.Screen,3_0_3_0_5_1_1,NA,NA,timeout,5006.14,542307,542303.06,542303.42,547292.92,547295,2023-10-17T15:31:57Z,547309.56,NULL,Fenster,dirisha,s,walakini,tasawari,maarifa,NA,qt,1,3,NA,NA,NA,NA,NA,NA,NA,NA,NA,NA,NA,NA,NA,NA,NA,NA,NA,NA,NA
30bd8,"""Falsch""-Screen",canvas.Screen,3_0_3_0_5_1_2,NA,NA,skipped,NA,547300,NA,NA,547292.92,547300,2023-10-17T15:31:57Z,547309.56,NULL,Fenster,dirisha,s,walakini,tasawari,maarifa,NA,qt,NA,3,NA,NA,NA,NA,NA,NA,NA,NA,NA,NA,NA,NA,NA,NA,NA,NA,NA,NA,NA
30bd8,shallow,flow.Sequence,3_0_3_0_5_1,NA,NA,completion,7465.74,539817,539810.52,539827.18,547292.92,547300,2023-10-17T15:31:57Z,547309.56,NULL,Fenster,dirisha,s,walakini,tasawari,maarifa,NA,qt,NA,3,NA,NA,NA,NA,NA,NA,NA,NA,NA,NA,NA,NA,NA,NA,NA,NA,NA,NA,NA
30bd8,task,flow.Sequence,3_0_3_0_5,NA,NA,completion,7465.74,539817,539810.52,539827.18,547292.92,547301,2023-10-17T15:31:57Z,547309.56,NULL,Fenster,dirisha,s,walakini,tasawari,maarifa,NA,qt,NA,3,NA,NA,NA,NA,NA,NA,NA,NA,NA,NA,NA,NA,NA,NA,NA,NA,NA,NA,NA
30bd8,Deep Question,html.Page,3_0_3_0_6_0_0,NA,NA,form submission,3601.4399999999,547301,547292.92,547309.56,550911,550912,2023-10-17T15:32:01Z,550925.56,NULL,Tester,wanaojaribu,d,NA,NA,NA,kk,NA,NA,3,NA,NA,NA,NA,NA,NA,NA,NA,NA,NA,NA,NA,NA,NA,NA,NA,NA,NA,NA
30bd8,"""Richtig""-Screen",canvas.Screen,3_0_3_0_6_0_1,NA,NA,skipped,NA,550914,NA,NA,550911,550914,2023-10-17T15:32:01Z,550925.56,NULL,Tester,wanaojaribu,d,NA,NA,NA,NA,qt,NA,3,NA,NA,NA,NA,NA,NA,NA,NA,NA,NA,NA,NA,NA,NA,NA,NA,NA,NA,NA
30bd8,"""Falsch""-Screen",canvas.Screen,3_0_3_0_6_0_2,NA,NA,timeout,4999.5199999999,550917,550910.02,550925.56,555908.42,555910,2023-10-17T15:32:06Z,555925.08,NULL,Tester,wanaojaribu,d,NA,NA,NA,NA,qt,0,3,NA,NA,NA,NA,NA,NA,NA,NA,NA,NA,NA,NA,NA,NA,NA,NA,NA,NA,NA
30bd8,deep,flow.Sequence,3_0_3_0_6_0,NA,NA,completion,8598.86,547301,547292.92,547309.56,555908.42,555911,2023-10-17T15:32:06Z,555925.08,NULL,Tester,wanaojaribu,d,NA,NA,NA,NA,qt,NA,3,NA,NA,NA,NA,NA,NA,NA,NA,NA,NA,NA,NA,NA,NA,NA,NA,NA,NA,NA
30bd8,shallow,flow.Sequence,3_0_3_0_6_1,NA,NA,skipped,NA,555911,NA,NA,555908.42,555911,2023-10-17T15:32:06Z,555925.08,NULL,Tester,wanaojaribu,d,NA,NA,NA,NA,qt,NA,3,NA,NA,NA,NA,NA,NA,NA,NA,NA,NA,NA,NA,NA,NA,NA,NA,NA,NA,NA
30bd8,task,flow.Sequence,3_0_3_0_6,NA,NA,completion,8598.86,547301,547292.92,547309.56,555908.42,555912,2023-10-17T15:32:06Z,555925.08,NULL,Tester,wanaojaribu,d,NA,NA,NA,NA,qt,NA,3,NA,NA,NA,NA,NA,NA,NA,NA,NA,NA,NA,NA,NA,NA,NA,NA,NA,NA,NA
30bd8,Deep Question,html.Page,3_0_3_0_7_0_0,NA,NA,form submission,4740.92,555913,555908.42,555925.08,560666,560667,2023-10-17T15:32:11Z,560674.2,NULL,Schüler,mwanafunzi,d,NA,NA,NA,mwafunzi,NA,NA,3,NA,NA,NA,NA,NA,NA,NA,NA,NA,NA,NA,NA,NA,NA,NA,NA,NA,NA,NA
30bd8,"""Richtig""-Screen",canvas.Screen,3_0_3_0_7_0_1,NA,NA,skipped,NA,560669,NA,NA,560666,560669,2023-10-17T15:32:11Z,560674.2,NULL,Schüler,mwanafunzi,d,NA,NA,NA,NA,qt,NA,3,NA,NA,NA,NA,NA,NA,NA,NA,NA,NA,NA,NA,NA,NA,NA,NA,NA,NA,NA
30bd8,"""Falsch""-Screen",canvas.Screen,3_0_3_0_7_0_2,NA,NA,timeout,4999.7200000001,560672,560665.32,560674.2,565657.28,565659,2023-10-17T15:32:16Z,565673.92,NULL,Schüler,mwanafunzi,d,NA,NA,NA,NA,qt,0,3,NA,NA,NA,NA,NA,NA,NA,NA,NA,NA,NA,NA,NA,NA,NA,NA,NA,NA,NA
30bd8,deep,flow.Sequence,3_0_3_0_7_0,NA,NA,completion,9732.2000000001,555913,555908.42,555925.08,565657.28,565660,2023-10-17T15:32:16Z,565673.92,NULL,Schüler,mwanafunzi,d,NA,NA,NA,NA,qt,NA,3,NA,NA,NA,NA,NA,NA,NA,NA,NA,NA,NA,NA,NA,NA,NA,NA,NA,NA,NA
30bd8,shallow,flow.Sequence,3_0_3_0_7_1,NA,NA,skipped,NA,565661,NA,NA,565657.28,565661,2023-10-17T15:32:16Z,565673.92,NULL,Schüler,mwanafunzi,d,NA,NA,NA,NA,qt,NA,3,NA,NA,NA,NA,NA,NA,NA,NA,NA,NA,NA,NA,NA,NA,NA,NA,NA,NA,NA
30bd8,task,flow.Sequence,3_0_3_0_7,NA,NA,completion,9732.2000000001,555913,555908.42,555925.08,565657.28,565662,2023-10-17T15:32:16Z,565673.92,NULL,Schüler,mwanafunzi,d,NA,NA,NA,NA,qt,NA,3,NA,NA,NA,NA,NA,NA,NA,NA,NA,NA,NA,NA,NA,NA,NA,NA,NA,NA,NA
30bd8,block,flow.Loop,3_0_3_0,NA,NA,completion,77211.38,488446,488445.56,488445.9,565657.28,565663,2023-10-17T15:32:16Z,565673.92,NULL,NA,NA,NA,NA,NA,NA,NA,qt,NA,3,NA,NA,NA,NA,NA,NA,NA,NA,NA,NA,NA,NA,NA,NA,NA,NA,NA,NA,NA
30bd8,weiter,canvas.Screen,3_0_3_1,sdf,keypress(Space),response,1193.08,565664,565657.28,565673.92,566867,566879,2023-10-17T15:32:17Z,566930.62,NULL,NA,NA,NA,NA,NA,NA,NA,qt,NA,3,NA,NA,NA,NA,NA,NA,NA,NA,NA,NA,NA,NA,NA,NA,NA,NA,NA,NA,NA
30bd8,check continue,flow.Sequence,3_0_3,NA,NA,completion,78421.1,488446,488445.56,488445.9,566867,566880,2023-10-17T15:32:17Z,566930.62,NULL,NA,NA,NA,NA,NA,NA,NA,qt,NA,3,NA,NA,NA,NA,NA,NA,NA,NA,NA,NA,NA,NA,NA,NA,NA,NA,NA,NA,NA
30bd8,Deep Question,html.Page,3_0_4_0_0_0_0,NA,NA,form submission,20603.38,566931,566930.28,566930.62,587534,587534,2023-10-17T15:32:38Z,587537.94,NULL,Niveau,kiwango,d,NA,NA,NA,kiwango,NA,NA,4,NA,NA,NA,NA,NA,NA,NA,NA,NA,NA,NA,NA,NA,NA,NA,NA,NA,NA,NA
30bd8,"""Richtig""-Screen",canvas.Screen,3_0_4_0_0_0_1,NA,NA,timeout,4999.1800000001,587536,587532.66,587537.94,592520.46,592523,2023-10-17T15:32:43Z,592537.12,NULL,Niveau,kiwango,d,NA,NA,NA,NA,sd,1,4,NA,NA,NA,NA,NA,NA,NA,NA,NA,NA,NA,NA,NA,NA,NA,NA,NA,NA,NA
30bd8,"""Falsch""-Screen",canvas.Screen,3_0_4_0_0_0_2,NA,NA,skipped,NA,592529,NA,NA,592520.46,592529,2023-10-17T15:32:43Z,592537.12,NULL,Niveau,kiwango,d,NA,NA,NA,NA,sd,NA,4,NA,NA,NA,NA,NA,NA,NA,NA,NA,NA,NA,NA,NA,NA,NA,NA,NA,NA,NA
30bd8,deep,flow.Sequence,3_0_4_0_0_0,NA,NA,completion,25589.84,566931,566930.28,566930.62,592520.46,592530,2023-10-17T15:32:43Z,592537.12,NULL,Niveau,kiwango,d,NA,NA,NA,NA,sd,NA,4,NA,NA,NA,NA,NA,NA,NA,NA,NA,NA,NA,NA,NA,NA,NA,NA,NA,NA,NA
30bd8,shallow,flow.Sequence,3_0_4_0_0_1,NA,NA,skipped,NA,592531,NA,NA,592520.46,592531,2023-10-17T15:32:43Z,592537.12,NULL,Niveau,kiwango,d,NA,NA,NA,NA,sd,NA,4,NA,NA,NA,NA,NA,NA,NA,NA,NA,NA,NA,NA,NA,NA,NA,NA,NA,NA,NA
30bd8,task,flow.Sequence,3_0_4_0_0,NA,NA,completion,25589.84,566931,566930.28,566930.62,592520.46,592531,2023-10-17T15:32:43Z,592537.12,NULL,Niveau,kiwango,d,NA,NA,NA,NA,sd,NA,4,NA,NA,NA,NA,NA,NA,NA,NA,NA,NA,NA,NA,NA,NA,NA,NA,NA,NA,NA
30bd8,deep,flow.Sequence,3_0_4_0_1_0,NA,NA,skipped,NA,592532,NA,NA,592520.46,592532,2023-10-17T15:32:43Z,592537.12,NULL,Entwicklung,maendeleo,s,uangavu,mshindwa,badiliko,NA,sd,NA,4,NA,NA,NA,NA,NA,NA,NA,NA,NA,NA,NA,NA,NA,NA,NA,NA,NA,NA,NA
30bd8,Shallow Question,html.Page,3_0_4_0_1_1_0,NA,NA,form submission,4833.88,592533,592520.46,592537.12,597371,597371,2023-10-17T15:32:47Z,597369.78,NULL,Entwicklung,maendeleo,s,uangavu,mshindwa,badiliko,maendeleo,NA,NA,4,NA,NA,NA,NA,NA,NA,NA,NA,NA,NA,NA,NA,NA,NA,NA,NA,NA,NA,NA
30bd8,"""Richtig""-Screen",canvas.Screen,3_0_4_0_1_1_1,NA,NA,timeout,4999.4,597373,597369.16,597369.78,602352.54,602354,2023-10-17T15:32:52Z,602369.18,NULL,Entwicklung,maendeleo,s,uangavu,mshindwa,badiliko,NA,sd,1,4,NA,NA,NA,NA,NA,NA,NA,NA,NA,NA,NA,NA,NA,NA,NA,NA,NA,NA,NA
30bd8,"""Falsch""-Screen",canvas.Screen,3_0_4_0_1_1_2,NA,NA,skipped,NA,602361,NA,NA,602352.54,602361,2023-10-17T15:32:52Z,602369.18,NULL,Entwicklung,maendeleo,s,uangavu,mshindwa,badiliko,NA,sd,NA,4,NA,NA,NA,NA,NA,NA,NA,NA,NA,NA,NA,NA,NA,NA,NA,NA,NA,NA,NA
30bd8,shallow,flow.Sequence,3_0_4_0_1_1,NA,NA,completion,9815.42,592532,592520.46,592537.12,602352.54,602362,2023-10-17T15:32:52Z,602369.18,NULL,Entwicklung,maendeleo,s,uangavu,mshindwa,badiliko,NA,sd,NA,4,NA,NA,NA,NA,NA,NA,NA,NA,NA,NA,NA,NA,NA,NA,NA,NA,NA,NA,NA
30bd8,task,flow.Sequence,3_0_4_0_1,NA,NA,completion,9815.42,592532,592520.46,592537.12,602352.54,602362,2023-10-17T15:32:52Z,602369.18,NULL,Entwicklung,maendeleo,s,uangavu,mshindwa,badiliko,NA,sd,NA,4,NA,NA,NA,NA,NA,NA,NA,NA,NA,NA,NA,NA,NA,NA,NA,NA,NA,NA,NA
30bd8,Deep Question,html.Page,3_0_4_0_2_0_0,NA,NA,form submission,3892.8199999999,602363,602352.54,602369.18,606262,606262,2023-10-17T15:32:56Z,606268.6,NULL,Papier,karatasi,d,NA,NA,NA,karafasi,NA,NA,4,NA,NA,NA,NA,NA,NA,NA,NA,NA,NA,NA,NA,NA,NA,NA,NA,NA,NA,NA
30bd8,"""Richtig""-Screen",canvas.Screen,3_0_4_0_2_0_1,NA,NA,skipped,NA,606264,NA,NA,606262,606264,2023-10-17T15:32:56Z,606268.6,NULL,Papier,karatasi,d,NA,NA,NA,NA,sd,NA,4,NA,NA,NA,NA,NA,NA,NA,NA,NA,NA,NA,NA,NA,NA,NA,NA,NA,NA,NA
30bd8,"""Falsch""-Screen",canvas.Screen,3_0_4_0_2_0_2,NA,NA,timeout,4999.4400000001,606268,606260.68,606268.6,611251.4,611253,2023-10-17T15:33:01Z,611268.04,NULL,Papier,karatasi,d,NA,NA,NA,NA,sd,0,4,NA,NA,NA,NA,NA,NA,NA,NA,NA,NA,NA,NA,NA,NA,NA,NA,NA,NA,NA
30bd8,deep,flow.Sequence,3_0_4_0_2_0,NA,NA,completion,8882.22,602363,602352.54,602369.18,611251.4,611253,2023-10-17T15:33:01Z,611268.04,NULL,Papier,karatasi,d,NA,NA,NA,NA,sd,NA,4,NA,NA,NA,NA,NA,NA,NA,NA,NA,NA,NA,NA,NA,NA,NA,NA,NA,NA,NA
30bd8,shallow,flow.Sequence,3_0_4_0_2_1,NA,NA,skipped,NA,611254,NA,NA,611251.4,611255,2023-10-17T15:33:01Z,611268.04,NULL,Papier,karatasi,d,NA,NA,NA,NA,sd,NA,4,NA,NA,NA,NA,NA,NA,NA,NA,NA,NA,NA,NA,NA,NA,NA,NA,NA,NA,NA
30bd8,task,flow.Sequence,3_0_4_0_2,NA,NA,completion,8882.22,602363,602352.54,602369.18,611251.4,611255,2023-10-17T15:33:01Z,611268.04,NULL,Papier,karatasi,d,NA,NA,NA,NA,sd,NA,4,NA,NA,NA,NA,NA,NA,NA,NA,NA,NA,NA,NA,NA,NA,NA,NA,NA,NA,NA
30bd8,deep,flow.Sequence,3_0_4_0_3_0,NA,NA,skipped,NA,611255,NA,NA,611251.4,611255,2023-10-17T15:33:01Z,611268.04,NULL,Vorwurf,mashtaka,s,msukumo,mtangulizi,uenyekiti,NA,sd,NA,4,NA,NA,NA,NA,NA,NA,NA,NA,NA,NA,NA,NA,NA,NA,NA,NA,NA,NA,NA
30bd8,Shallow Question,html.Page,3_0_4_0_3_1_0,NA,NA,form submission,7137.96,611255,611251.4,611268.04,618406,618406,2023-10-17T15:33:08Z,618404.84,NULL,Vorwurf,mashtaka,s,msukumo,mtangulizi,uenyekiti,mashtaka,NA,NA,4,NA,NA,NA,NA,NA,NA,NA,NA,NA,NA,NA,NA,NA,NA,NA,NA,NA,NA,NA
30bd8,"""Richtig""-Screen",canvas.Screen,3_0_4_0_3_1_1,NA,NA,timeout,4994.92,618408,618404.54,618404.84,623383.1,623385,2023-10-17T15:33:13Z,623399.76,NULL,Vorwurf,mashtaka,s,msukumo,mtangulizi,uenyekiti,NA,sd,1,4,NA,NA,NA,NA,NA,NA,NA,NA,NA,NA,NA,NA,NA,NA,NA,NA,NA,NA,NA
30bd8,"""Falsch""-Screen",canvas.Screen,3_0_4_0_3_1_2,NA,NA,skipped,NA,623393,NA,NA,623383.1,623394,2023-10-17T15:33:13Z,623399.76,NULL,Vorwurf,mashtaka,s,msukumo,mtangulizi,uenyekiti,NA,sd,NA,4,NA,NA,NA,NA,NA,NA,NA,NA,NA,NA,NA,NA,NA,NA,NA,NA,NA,NA,NA
30bd8,shallow,flow.Sequence,3_0_4_0_3_1,NA,NA,completion,12115.06,611255,611251.4,611268.04,623383.1,623394,2023-10-17T15:33:13Z,623399.76,NULL,Vorwurf,mashtaka,s,msukumo,mtangulizi,uenyekiti,NA,sd,NA,4,NA,NA,NA,NA,NA,NA,NA,NA,NA,NA,NA,NA,NA,NA,NA,NA,NA,NA,NA
30bd8,task,flow.Sequence,3_0_4_0_3,NA,NA,completion,12115.06,611255,611251.4,611268.04,623383.1,623395,2023-10-17T15:33:13Z,623399.76,NULL,Vorwurf,mashtaka,s,msukumo,mtangulizi,uenyekiti,NA,sd,NA,4,NA,NA,NA,NA,NA,NA,NA,NA,NA,NA,NA,NA,NA,NA,NA,NA,NA,NA,NA
30bd8,Deep Question,html.Page,3_0_4_0_4_0_0,NA,NA,form submission,5177.24,623396,623383.1,623399.76,628577,628579,2023-10-17T15:33:19Z,628582.58,NULL,Schüler,mwanafunzi,d,NA,NA,NA,mwanafunzi,NA,NA,4,NA,NA,NA,NA,NA,NA,NA,NA,NA,NA,NA,NA,NA,NA,NA,NA,NA,NA,NA
30bd8,"""Richtig""-Screen",canvas.Screen,3_0_4_0_4_0_1,NA,NA,timeout,4999.24,628587,628575.58,628582.58,633565.2,633567,2023-10-17T15:33:24Z,633581.82,NULL,Schüler,mwanafunzi,d,NA,NA,NA,NA,sd,1,4,NA,NA,NA,NA,NA,NA,NA,NA,NA,NA,NA,NA,NA,NA,NA,NA,NA,NA,NA
30bd8,"""Falsch""-Screen",canvas.Screen,3_0_4_0_4_0_2,NA,NA,skipped,NA,633573,NA,NA,633565.2,633573,2023-10-17T15:33:24Z,633581.82,NULL,Schüler,mwanafunzi,d,NA,NA,NA,NA,sd,NA,4,NA,NA,NA,NA,NA,NA,NA,NA,NA,NA,NA,NA,NA,NA,NA,NA,NA,NA,NA
30bd8,deep,flow.Sequence,3_0_4_0_4_0,NA,NA,completion,10165.44,623395,623383.1,623399.76,633565.2,633573,2023-10-17T15:33:24Z,633581.82,NULL,Schüler,mwanafunzi,d,NA,NA,NA,NA,sd,NA,4,NA,NA,NA,NA,NA,NA,NA,NA,NA,NA,NA,NA,NA,NA,NA,NA,NA,NA,NA
30bd8,shallow,flow.Sequence,3_0_4_0_4_1,NA,NA,skipped,NA,633573,NA,NA,633565.2,633573,2023-10-17T15:33:24Z,633581.82,NULL,Schüler,mwanafunzi,d,NA,NA,NA,NA,sd,NA,4,NA,NA,NA,NA,NA,NA,NA,NA,NA,NA,NA,NA,NA,NA,NA,NA,NA,NA,NA
30bd8,task,flow.Sequence,3_0_4_0_4,NA,NA,completion,10165.44,623395,623383.1,623399.76,633565.2,633574,2023-10-17T15:33:24Z,633581.82,NULL,Schüler,mwanafunzi,d,NA,NA,NA,NA,sd,NA,4,NA,NA,NA,NA,NA,NA,NA,NA,NA,NA,NA,NA,NA,NA,NA,NA,NA,NA,NA
30bd8,Deep Question,html.Page,3_0_4_0_5_0_0,NA,NA,form submission,2223.1800000001,633575,633565.2,633581.82,635805,635806,2023-10-17T15:33:26Z,635814.8,NULL,Tester,wanaojaribu,d,NA,NA,NA,j,NA,NA,4,NA,NA,NA,NA,NA,NA,NA,NA,NA,NA,NA,NA,NA,NA,NA,NA,NA,NA,NA
30bd8,"""Richtig""-Screen",canvas.Screen,3_0_4_0_5_0_1,NA,NA,skipped,NA,635810,NA,NA,635805,635810,2023-10-17T15:33:26Z,635814.8,NULL,Tester,wanaojaribu,d,NA,NA,NA,NA,sd,NA,4,NA,NA,NA,NA,NA,NA,NA,NA,NA,NA,NA,NA,NA,NA,NA,NA,NA,NA,NA
30bd8,"""Falsch""-Screen",canvas.Screen,3_0_4_0_5_0_2,NA,NA,timeout,4999.5199999999,635813,635804.44,635814.8,640797.66,640800,2023-10-17T15:33:31Z,640814.32,NULL,Tester,wanaojaribu,d,NA,NA,NA,NA,sd,0,4,NA,NA,NA,NA,NA,NA,NA,NA,NA,NA,NA,NA,NA,NA,NA,NA,NA,NA,NA
30bd8,deep,flow.Sequence,3_0_4_0_5_0,NA,NA,completion,7215.8400000001,633574,633565.2,633581.82,640797.66,640801,2023-10-17T15:33:31Z,640814.32,NULL,Tester,wanaojaribu,d,NA,NA,NA,NA,sd,NA,4,NA,NA,NA,NA,NA,NA,NA,NA,NA,NA,NA,NA,NA,NA,NA,NA,NA,NA,NA
30bd8,shallow,flow.Sequence,3_0_4_0_5_1,NA,NA,skipped,NA,640801,NA,NA,640797.66,640802,2023-10-17T15:33:31Z,640814.32,NULL,Tester,wanaojaribu,d,NA,NA,NA,NA,sd,NA,4,NA,NA,NA,NA,NA,NA,NA,NA,NA,NA,NA,NA,NA,NA,NA,NA,NA,NA,NA
30bd8,task,flow.Sequence,3_0_4_0_5,NA,NA,completion,7215.8400000001,633574,633565.2,633581.82,640797.66,640803,2023-10-17T15:33:31Z,640814.32,NULL,Tester,wanaojaribu,d,NA,NA,NA,NA,sd,NA,4,NA,NA,NA,NA,NA,NA,NA,NA,NA,NA,NA,NA,NA,NA,NA,NA,NA,NA,NA
30bd8,deep,flow.Sequence,3_0_4_0_6_0,NA,NA,skipped,NA,640804,NA,NA,640797.66,640805,2023-10-17T15:33:31Z,640814.32,NULL,Fenster,dirisha,s,walakini,tasawari,maarifa,NA,sd,NA,4,NA,NA,NA,NA,NA,NA,NA,NA,NA,NA,NA,NA,NA,NA,NA,NA,NA,NA,NA
30bd8,Shallow Question,html.Page,3_0_4_0_6_1_0,NA,NA,form submission,2186.6800000001,640805,640797.66,640814.32,643001,643001,2023-10-17T15:33:33Z,643000.4,NULL,Fenster,dirisha,s,walakini,tasawari,maarifa,dirisha,NA,NA,4,NA,NA,NA,NA,NA,NA,NA,NA,NA,NA,NA,NA,NA,NA,NA,NA,NA,NA,NA
30bd8,"""Richtig""-Screen",canvas.Screen,3_0_4_0_6_1_1,NA,NA,timeout,4996.26,643005,643000,643000.4,647980.08,647982,2023-10-17T15:33:38Z,647996.66,NULL,Fenster,dirisha,s,walakini,tasawari,maarifa,NA,sd,1,4,NA,NA,NA,NA,NA,NA,NA,NA,NA,NA,NA,NA,NA,NA,NA,NA,NA,NA,NA
30bd8,"""Falsch""-Screen",canvas.Screen,3_0_4_0_6_1_2,NA,NA,skipped,NA,647990,NA,NA,647980.08,647991,2023-10-17T15:33:38Z,647996.66,NULL,Fenster,dirisha,s,walakini,tasawari,maarifa,NA,sd,NA,4,NA,NA,NA,NA,NA,NA,NA,NA,NA,NA,NA,NA,NA,NA,NA,NA,NA,NA,NA
30bd8,shallow,flow.Sequence,3_0_4_0_6_1,NA,NA,completion,7165.76,640805,640797.66,640814.32,647980.08,647991,2023-10-17T15:33:38Z,647996.66,NULL,Fenster,dirisha,s,walakini,tasawari,maarifa,NA,sd,NA,4,NA,NA,NA,NA,NA,NA,NA,NA,NA,NA,NA,NA,NA,NA,NA,NA,NA,NA,NA
30bd8,task,flow.Sequence,3_0_4_0_6,NA,NA,completion,7165.76,640804,640797.66,640814.32,647980.08,647991,2023-10-17T15:33:38Z,647996.66,NULL,Fenster,dirisha,s,walakini,tasawari,maarifa,NA,sd,NA,4,NA,NA,NA,NA,NA,NA,NA,NA,NA,NA,NA,NA,NA,NA,NA,NA,NA,NA,NA
30bd8,deep,flow.Sequence,3_0_4_0_7_0,NA,NA,skipped,NA,647992,NA,NA,647980.08,647992,2023-10-17T15:33:38Z,647996.66,NULL,Spionage,upelelezi,s,maslahi,utokazo,magangao,NA,sd,NA,4,NA,NA,NA,NA,NA,NA,NA,NA,NA,NA,NA,NA,NA,NA,NA,NA,NA,NA,NA
30bd8,Shallow Question,html.Page,3_0_4_0_7_1_0,NA,NA,form submission,3150.34,647992,647980.08,647996.66,651147,651147,2023-10-17T15:33:41Z,651146.56,NULL,Spionage,upelelezi,s,maslahi,utokazo,magangao,upelelezi,NA,NA,4,NA,NA,NA,NA,NA,NA,NA,NA,NA,NA,NA,NA,NA,NA,NA,NA,NA,NA,NA
30bd8,"""Richtig""-Screen",canvas.Screen,3_0_4_0_7_1_1,NA,NA,timeout,4999.0599999999,651150,651146.36,651146.56,656128.96,656130,2023-10-17T15:33:46Z,656145.62,NULL,Spionage,upelelezi,s,maslahi,utokazo,magangao,NA,sd,1,4,NA,NA,NA,NA,NA,NA,NA,NA,NA,NA,NA,NA,NA,NA,NA,NA,NA,NA,NA
30bd8,"""Falsch""-Screen",canvas.Screen,3_0_4_0_7_1_2,NA,NA,skipped,NA,656137,NA,NA,656128.96,656137,2023-10-17T15:33:46Z,656145.62,NULL,Spionage,upelelezi,s,maslahi,utokazo,magangao,NA,sd,NA,4,NA,NA,NA,NA,NA,NA,NA,NA,NA,NA,NA,NA,NA,NA,NA,NA,NA,NA,NA
30bd8,shallow,flow.Sequence,3_0_4_0_7_1,NA,NA,completion,8132.2999999999,647992,647980.08,647996.66,656128.96,656138,2023-10-17T15:33:46Z,656145.62,NULL,Spionage,upelelezi,s,maslahi,utokazo,magangao,NA,sd,NA,4,NA,NA,NA,NA,NA,NA,NA,NA,NA,NA,NA,NA,NA,NA,NA,NA,NA,NA,NA
30bd8,task,flow.Sequence,3_0_4_0_7,NA,NA,completion,8132.2999999999,647992,647980.08,647996.66,656128.96,656138,2023-10-17T15:33:46Z,656145.62,NULL,Spionage,upelelezi,s,maslahi,utokazo,magangao,NA,sd,NA,4,NA,NA,NA,NA,NA,NA,NA,NA,NA,NA,NA,NA,NA,NA,NA,NA,NA,NA,NA
30bd8,block,flow.Loop,3_0_4_0,NA,NA,completion,89198.34,566931,566930.28,566930.62,656128.96,656138,2023-10-17T15:33:46Z,656145.62,NULL,NA,NA,NA,NA,NA,NA,NA,sd,NA,4,NA,NA,NA,NA,NA,NA,NA,NA,NA,NA,NA,NA,NA,NA,NA,NA,NA,NA,NA
30bd8,weiter,canvas.Screen,3_0_4_1,sdf,keypress(Space),response,1221.38,656138,656128.96,656145.62,657367,657385,2023-10-17T15:33:47Z,658104.04,NULL,NA,NA,NA,NA,NA,NA,NA,sd,NA,4,NA,NA,NA,NA,NA,NA,NA,NA,NA,NA,NA,NA,NA,NA,NA,NA,NA,NA,NA
30bd8,check continue,flow.Sequence,3_0_4,NA,NA,completion,90436.38,566931,566930.28,566930.62,657367,657385,2023-10-17T15:33:47Z,658104.04,NULL,NA,NA,NA,NA,NA,NA,NA,sd,NA,4,NA,NA,NA,NA,NA,NA,NA,NA,NA,NA,NA,NA,NA,NA,NA,NA,NA,NA,NA
30bd8,check continue,flow.Sequence,3_0_5,NA,NA,skipped,NA,657442,NA,NA,657367,657442,2023-10-17T15:33:48Z,658104.04,NULL,NA,NA,NA,NA,NA,NA,NA,sdf,NA,5,NA,NA,NA,NA,NA,NA,NA,NA,NA,NA,NA,NA,NA,NA,NA,NA,NA,NA,NA
30bd8,check continue,flow.Sequence,3_0_6,NA,NA,skipped,NA,657472,NA,NA,657367,657472,2023-10-17T15:33:48Z,658104.04,NULL,NA,NA,NA,NA,NA,NA,NA,dfs,NA,6,NA,NA,NA,NA,NA,NA,NA,NA,NA,NA,NA,NA,NA,NA,NA,NA,NA,NA,NA
30bd8,check continue,flow.Sequence,3_0_7,NA,NA,skipped,NA,657501,NA,NA,657367,657501,2023-10-17T15:33:48Z,658104.04,NULL,NA,NA,NA,NA,NA,NA,NA,df,NA,7,NA,NA,NA,NA,NA,NA,NA,NA,NA,NA,NA,NA,NA,NA,NA,NA,NA,NA,NA
30bd8,check continue,flow.Sequence,3_0_8,NA,NA,skipped,NA,657530,NA,NA,657367,657531,2023-10-17T15:33:48Z,658104.04,NULL,NA,NA,NA,NA,NA,NA,NA,dfs,NA,8,NA,NA,NA,NA,NA,NA,NA,NA,NA,NA,NA,NA,NA,NA,NA,NA,NA,NA,NA
30bd8,check continue,flow.Sequence,3_0_9,NA,NA,skipped,NA,657567,NA,NA,657367,657567,2023-10-17T15:33:48Z,658104.04,NULL,NA,NA,NA,NA,NA,NA,NA,dsf,NA,9,NA,NA,NA,NA,NA,NA,NA,NA,NA,NA,NA,NA,NA,NA,NA,NA,NA,NA,NA
30bd8,check continue,flow.Sequence,3_0_10,NA,NA,skipped,NA,657594,NA,NA,657367,657594,2023-10-17T15:33:48Z,658104.04,NULL,NA,NA,NA,NA,NA,NA,NA,df,NA,10,NA,NA,NA,NA,NA,NA,NA,NA,NA,NA,NA,NA,NA,NA,NA,NA,NA,NA,NA
30bd8,check continue,flow.Sequence,3_0_11,NA,NA,skipped,NA,657622,NA,NA,657367,657622,2023-10-17T15:33:48Z,658104.04,NULL,NA,NA,NA,NA,NA,NA,NA,dfs,NA,11,NA,NA,NA,NA,NA,NA,NA,NA,NA,NA,NA,NA,NA,NA,NA,NA,NA,NA,NA
30bd8,check continue,flow.Sequence,3_0_12,NA,NA,skipped,NA,657649,NA,NA,657367,657649,2023-10-17T15:33:48Z,658104.04,NULL,NA,NA,NA,NA,NA,NA,NA,dsf,NA,12,NA,NA,NA,NA,NA,NA,NA,NA,NA,NA,NA,NA,NA,NA,NA,NA,NA,NA,NA
30bd8,check continue,flow.Sequence,3_0_13,NA,NA,skipped,NA,657681,NA,NA,657367,657681,2023-10-17T15:33:48Z,658104.04,NULL,NA,NA,NA,NA,NA,NA,NA,dsf,NA,13,NA,NA,NA,NA,NA,NA,NA,NA,NA,NA,NA,NA,NA,NA,NA,NA,NA,NA,NA
30bd8,check continue,flow.Sequence,3_0_14,NA,NA,skipped,NA,657708,NA,NA,657367,657708,2023-10-17T15:33:48Z,658104.04,NULL,NA,NA,NA,NA,NA,NA,NA,NA,NA,14,NA,NA,NA,NA,NA,NA,NA,NA,NA,NA,NA,NA,NA,NA,NA,NA,NA,NA,NA
30bd8,check continue,flow.Sequence,3_0_15,NA,NA,skipped,NA,657734,NA,NA,657367,657735,2023-10-17T15:33:48Z,658104.04,NULL,NA,NA,NA,NA,NA,NA,NA,NA,NA,15,NA,NA,NA,NA,NA,NA,NA,NA,NA,NA,NA,NA,NA,NA,NA,NA,NA,NA,NA
30bd8,check continue,flow.Sequence,3_0_16,NA,NA,skipped,NA,657763,NA,NA,657367,657763,2023-10-17T15:33:48Z,658104.04,NULL,NA,NA,NA,NA,NA,NA,NA,NA,NA,16,NA,NA,NA,NA,NA,NA,NA,NA,NA,NA,NA,NA,NA,NA,NA,NA,NA,NA,NA
30bd8,check continue,flow.Sequence,3_0_17,NA,NA,skipped,NA,657788,NA,NA,657367,657788,2023-10-17T15:33:48Z,658104.04,NULL,NA,NA,NA,NA,NA,NA,NA,NA,NA,17,NA,NA,NA,NA,NA,NA,NA,NA,NA,NA,NA,NA,NA,NA,NA,NA,NA,NA,NA
30bd8,check continue,flow.Sequence,3_0_18,NA,NA,skipped,NA,657814,NA,NA,657367,657814,2023-10-17T15:33:48Z,658104.04,NULL,NA,NA,NA,NA,NA,NA,NA,NA,NA,18,NA,NA,NA,NA,NA,NA,NA,NA,NA,NA,NA,NA,NA,NA,NA,NA,NA,NA,NA
30bd8,check continue,flow.Sequence,3_0_19,NA,NA,skipped,NA,657841,NA,NA,657367,657841,2023-10-17T15:33:48Z,658104.04,NULL,NA,NA,NA,NA,NA,NA,NA,NA,NA,19,NA,NA,NA,NA,NA,NA,NA,NA,NA,NA,NA,NA,NA,NA,NA,NA,NA,NA,NA
30bd8,check continue,flow.Sequence,3_0_20,NA,NA,skipped,NA,657870,NA,NA,657367,657870,2023-10-17T15:33:48Z,658104.04,NULL,NA,NA,NA,NA,NA,NA,NA,NA,NA,20,NA,NA,NA,NA,NA,NA,NA,NA,NA,NA,NA,NA,NA,NA,NA,NA,NA,NA,NA
30bd8,check continue,flow.Sequence,3_0_21,NA,NA,skipped,NA,657897,NA,NA,657367,657897,2023-10-17T15:33:48Z,658104.04,NULL,NA,NA,NA,NA,NA,NA,NA,NA,NA,21,NA,NA,NA,NA,NA,NA,NA,NA,NA,NA,NA,NA,NA,NA,NA,NA,NA,NA,NA
30bd8,check continue,flow.Sequence,3_0_22,NA,NA,skipped,NA,657925,NA,NA,657367,657925,2023-10-17T15:33:48Z,658104.04,NULL,NA,NA,NA,NA,NA,NA,NA,NA,NA,22,NA,NA,NA,NA,NA,NA,NA,NA,NA,NA,NA,NA,NA,NA,NA,NA,NA,NA,NA
30bd8,check continue,flow.Sequence,3_0_23,NA,NA,skipped,NA,657950,NA,NA,657367,657950,2023-10-17T15:33:48Z,658104.04,NULL,NA,NA,NA,NA,NA,NA,NA,NA,NA,23,NA,NA,NA,NA,NA,NA,NA,NA,NA,NA,NA,NA,NA,NA,NA,NA,NA,NA,NA
30bd8,check continue,flow.Sequence,3_0_24,NA,NA,skipped,NA,657977,NA,NA,657367,657977,2023-10-17T15:33:48Z,658104.04,NULL,NA,NA,NA,NA,NA,NA,NA,NA,NA,24,NA,NA,NA,NA,NA,NA,NA,NA,NA,NA,NA,NA,NA,NA,NA,NA,NA,NA,NA
30bd8,check continue,flow.Sequence,3_0_25,NA,NA,skipped,NA,658003,NA,NA,657367,658003,2023-10-17T15:33:48Z,658104.04,NULL,NA,NA,NA,NA,NA,NA,NA,NA,NA,25,NA,NA,NA,NA,NA,NA,NA,NA,NA,NA,NA,NA,NA,NA,NA,NA,NA,NA,NA
30bd8,check continue,flow.Sequence,3_0_26,NA,NA,skipped,NA,658027,NA,NA,657367,658027,2023-10-17T15:33:48Z,658104.04,NULL,NA,NA,NA,NA,NA,NA,NA,NA,NA,26,NA,NA,NA,NA,NA,NA,NA,NA,NA,NA,NA,NA,NA,NA,NA,NA,NA,NA,NA
30bd8,check continue,flow.Sequence,3_0_27,NA,NA,skipped,NA,658053,NA,NA,657367,658053,2023-10-17T15:33:48Z,658104.04,NULL,NA,NA,NA,NA,NA,NA,NA,NA,NA,27,NA,NA,NA,NA,NA,NA,NA,NA,NA,NA,NA,NA,NA,NA,NA,NA,NA,NA,NA
30bd8,check continue,flow.Sequence,3_0_28,NA,NA,skipped,NA,658080,NA,NA,657367,658080,2023-10-17T15:33:48Z,658104.04,NULL,NA,NA,NA,NA,NA,NA,NA,NA,NA,28,NA,NA,NA,NA,NA,NA,NA,NA,NA,NA,NA,NA,NA,NA,NA,NA,NA,NA,NA
30bd8,check continue,flow.Sequence,3_0_29,NA,NA,skipped,NA,658103,NA,NA,657367,658103,2023-10-17T15:33:48Z,658104.04,NULL,NA,NA,NA,NA,NA,NA,NA,NA,NA,29,NA,NA,NA,NA,NA,NA,NA,NA,NA,NA,NA,NA,NA,NA,NA,NA,NA,NA,NA
30bd8,until continue,flow.Loop,3_0,NA,NA,completion,420042.5,237287,237324.14,237324.5,657367,658104,2023-10-17T15:33:48Z,658104.04,NULL,NA,NA,NA,NA,NA,NA,NA,NA,NA,NA,NA,NA,NA,NA,NA,NA,NA,NA,NA,NA,NA,NA,NA,NA,NA,NA,NA,NA,NA
30bd8,block 1,flow.Sequence,3,NA,NA,completion,420042.5,237287,237324.14,237324.5,657367,658104,2023-10-17T15:33:48Z,658104.04,NULL,NA,NA,NA,NA,NA,NA,NA,NA,NA,NA,NA,NA,NA,NA,NA,NA,NA,NA,NA,NA,NA,NA,NA,NA,NA,NA,NA,NA,NA
30bd8,1.Part Over,canvas.Screen,4,NA,keypress(Space),response,2229.96,658104,658103.68,658104.04,660334,660346,2023-10-17T15:33:50Z,660407.3,NULL,NA,NA,NA,NA,NA,NA,NA,NA,NA,NA,NA,NA,NA,NA,NA,NA,NA,NA,NA,NA,NA,NA,NA,NA,NA,NA,NA,NA,NA
30bd8,Deep Question,html.Page,5_0_0_0_0_0_0,NA,NA,form submission,2650.7,660407,660406.98,660407.3,663058,663058,2023-10-17T15:33:53Z,663061.16,NULL,Inhalt,yaliyomo,d,NA,NA,NA,uina,NA,NA,0,NA,NA,NA,NA,NA,NA,NA,NA,NA,NA,NA,NA,NA,NA,NA,NA,NA,NA,NA
30bd8,"""Richtig""-Screen",canvas.Screen,5_0_0_0_0_0_1,NA,NA,skipped,NA,663060,NA,NA,663058,663060,2023-10-17T15:33:53Z,663061.16,NULL,Inhalt,yaliyomo,d,NA,NA,NA,NA,sdf,NA,0,NA,NA,NA,NA,NA,NA,NA,NA,NA,NA,NA,NA,NA,NA,NA,NA,NA,NA,NA
30bd8,"""Falsch""-Screen",canvas.Screen,5_0_0_0_0_0_2,NA,NA,timeout,4999.64,663063,663056.34,663061.16,668044.14,668045,2023-10-17T15:33:58Z,668060.8,NULL,Inhalt,yaliyomo,d,NA,NA,NA,NA,sdf,0,0,NA,NA,NA,NA,NA,NA,NA,NA,NA,NA,NA,NA,NA,NA,NA,NA,NA,NA,NA
30bd8,deep,flow.Sequence,5_0_0_0_0_0,NA,NA,completion,7636.84,660407,660406.98,660407.3,668044.14,668045,2023-10-17T15:33:58Z,668060.8,NULL,Inhalt,yaliyomo,d,NA,NA,NA,NA,sdf,NA,0,NA,NA,NA,NA,NA,NA,NA,NA,NA,NA,NA,NA,NA,NA,NA,NA,NA,NA,NA
30bd8,shallow,flow.Sequence,5_0_0_0_0_1,NA,NA,skipped,NA,668045,NA,NA,668044.14,668046,2023-10-17T15:33:58Z,668060.8,NULL,Inhalt,yaliyomo,d,NA,NA,NA,NA,sdf,NA,0,NA,NA,NA,NA,NA,NA,NA,NA,NA,NA,NA,NA,NA,NA,NA,NA,NA,NA,NA
30bd8,task,flow.Sequence,5_0_0_0_0,NA,NA,completion,7636.84,660407,660406.98,660407.3,668044.14,668046,2023-10-17T15:33:58Z,668060.8,NULL,Inhalt,yaliyomo,d,NA,NA,NA,NA,sdf,NA,0,NA,NA,NA,NA,NA,NA,NA,NA,NA,NA,NA,NA,NA,NA,NA,NA,NA,NA,NA
30bd8,deep,flow.Sequence,5_0_0_0_1_0,NA,NA,skipped,NA,668046,NA,NA,668044.14,668046,2023-10-17T15:33:58Z,668060.8,NULL,Genehmigung,idhini,s,mwanamke,itikadi,fedheha,NA,sdf,NA,0,NA,NA,NA,NA,NA,NA,NA,NA,NA,NA,NA,NA,NA,NA,NA,NA,NA,NA,NA
30bd8,Shallow Question,html.Page,5_0_0_0_1_1_0,NA,NA,form submission,3193.2,668046,668044.14,668060.8,671254,671254,2023-10-17T15:34:01Z,671260.38,NULL,Genehmigung,idhini,s,mwanamke,itikadi,fedheha,itikadi,NA,NA,0,NA,NA,NA,NA,NA,NA,NA,NA,NA,NA,NA,NA,NA,NA,NA,NA,NA,NA,NA
30bd8,"""Richtig""-Screen",canvas.Screen,5_0_0_0_1_1_1,NA,NA,skipped,NA,671256,NA,NA,671254,671257,2023-10-17T15:34:01Z,671260.38,NULL,Genehmigung,idhini,s,mwanamke,itikadi,fedheha,NA,sdf,NA,0,NA,NA,NA,NA,NA,NA,NA,NA,NA,NA,NA,NA,NA,NA,NA,NA,NA,NA,NA
30bd8,"""Falsch""-Screen",canvas.Screen,5_0_0_0_1_1_2,NA,NA,timeout,4999.42,671259,671253.08,671260.38,676243.14,676246,2023-10-17T15:34:06Z,676259.8,NULL,Genehmigung,idhini,s,mwanamke,itikadi,fedheha,NA,sdf,0,0,NA,NA,NA,NA,NA,NA,NA,NA,NA,NA,NA,NA,NA,NA,NA,NA,NA,NA,NA
30bd8,shallow,flow.Sequence,5_0_0_0_1_1,NA,NA,completion,8182.34,668046,668044.14,668060.8,676243.14,676248,2023-10-17T15:34:06Z,676259.8,NULL,Genehmigung,idhini,s,mwanamke,itikadi,fedheha,NA,sdf,NA,0,NA,NA,NA,NA,NA,NA,NA,NA,NA,NA,NA,NA,NA,NA,NA,NA,NA,NA,NA
30bd8,task,flow.Sequence,5_0_0_0_1,NA,NA,completion,8182.34,668046,668044.14,668060.8,676243.14,676249,2023-10-17T15:34:06Z,676259.8,NULL,Genehmigung,idhini,s,mwanamke,itikadi,fedheha,NA,sdf,NA,0,NA,NA,NA,NA,NA,NA,NA,NA,NA,NA,NA,NA,NA,NA,NA,NA,NA,NA,NA
30bd8,Deep Question,html.Page,5_0_0_0_2_0_0,NA,NA,form submission,3735.2,676251,676243.14,676259.8,679995,679996,2023-10-17T15:34:10Z,680009.2,NULL,Vermutung,udhanifu,d,NA,NA,NA,yalamodo,NA,NA,0,NA,NA,NA,NA,NA,NA,NA,NA,NA,NA,NA,NA,NA,NA,NA,NA,NA,NA,NA
30bd8,"""Richtig""-Screen",canvas.Screen,5_0_0_0_2_0_1,NA,NA,skipped,NA,680001,NA,NA,679995,680001,2023-10-17T15:34:10Z,680009.2,NULL,Vermutung,udhanifu,d,NA,NA,NA,NA,sdf,NA,0,NA,NA,NA,NA,NA,NA,NA,NA,NA,NA,NA,NA,NA,NA,NA,NA,NA,NA,NA
30bd8,"""Falsch""-Screen",canvas.Screen,5_0_0_0_2_0_2,NA,NA,timeout,4999.4400000001,680003,679992.54,680009.2,684992.04,684994,2023-10-17T15:34:15Z,685008.64,NULL,Vermutung,udhanifu,d,NA,NA,NA,NA,sdf,0,0,NA,NA,NA,NA,NA,NA,NA,NA,NA,NA,NA,NA,NA,NA,NA,NA,NA,NA,NA
30bd8,deep,flow.Sequence,5_0_0_0_2_0,NA,NA,completion,8732.24,676251,676243.14,676259.8,684992.04,684995,2023-10-17T15:34:15Z,685008.64,NULL,Vermutung,udhanifu,d,NA,NA,NA,NA,sdf,NA,0,NA,NA,NA,NA,NA,NA,NA,NA,NA,NA,NA,NA,NA,NA,NA,NA,NA,NA,NA
30bd8,shallow,flow.Sequence,5_0_0_0_2_1,NA,NA,skipped,NA,684995,NA,NA,684992.04,684995,2023-10-17T15:34:15Z,685008.64,NULL,Vermutung,udhanifu,d,NA,NA,NA,NA,sdf,NA,0,NA,NA,NA,NA,NA,NA,NA,NA,NA,NA,NA,NA,NA,NA,NA,NA,NA,NA,NA
30bd8,task,flow.Sequence,5_0_0_0_2,NA,NA,completion,8732.24,676249,676243.14,676259.8,684992.04,684996,2023-10-17T15:34:15Z,685008.64,NULL,Vermutung,udhanifu,d,NA,NA,NA,NA,sdf,NA,0,NA,NA,NA,NA,NA,NA,NA,NA,NA,NA,NA,NA,NA,NA,NA,NA,NA,NA,NA
30bd8,deep,flow.Sequence,5_0_0_0_3_0,NA,NA,skipped,NA,684996,NA,NA,684992.04,684997,2023-10-17T15:34:15Z,685008.64,NULL,Toleranz,kuvumiliana,s,maombolezo,ujasusi,mchekeshaji,NA,sdf,NA,0,NA,NA,NA,NA,NA,NA,NA,NA,NA,NA,NA,NA,NA,NA,NA,NA,NA,NA,NA
30bd8,Shallow Question,html.Page,5_0_0_0_3_1_0,NA,NA,form submission,4245.36,684998,684992.04,685008.64,689254,689255,2023-10-17T15:34:19Z,689258.12,NULL,Toleranz,kuvumiliana,s,maombolezo,ujasusi,mchekeshaji,maombolezo,NA,NA,0,NA,NA,NA,NA,NA,NA,NA,NA,NA,NA,NA,NA,NA,NA,NA,NA,NA,NA,NA
30bd8,"""Richtig""-Screen",canvas.Screen,5_0_0_0_3_1_1,NA,NA,skipped,NA,689258,NA,NA,689254,689259,2023-10-17T15:34:19Z,689258.12,NULL,Toleranz,kuvumiliana,s,maombolezo,ujasusi,mchekeshaji,NA,sdf,NA,0,NA,NA,NA,NA,NA,NA,NA,NA,NA,NA,NA,NA,NA,NA,NA,NA,NA,NA,NA
30bd8,"""Falsch""-Screen",canvas.Screen,5_0_0_0_3_1_2,NA,NA,timeout,4999.28,689262,689253.48,689258.12,694240.74,694242,2023-10-17T15:34:24Z,694257.4,NULL,Toleranz,kuvumiliana,s,maombolezo,ujasusi,mchekeshaji,NA,sdf,0,0,NA,NA,NA,NA,NA,NA,NA,NA,NA,NA,NA,NA,NA,NA,NA,NA,NA,NA,NA
30bd8,shallow,flow.Sequence,5_0_0_0_3_1,NA,NA,completion,9232.1,684998,684992.04,685008.64,694240.74,694242,2023-10-17T15:34:24Z,694257.4,NULL,Toleranz,kuvumiliana,s,maombolezo,ujasusi,mchekeshaji,NA,sdf,NA,0,NA,NA,NA,NA,NA,NA,NA,NA,NA,NA,NA,NA,NA,NA,NA,NA,NA,NA,NA
30bd8,task,flow.Sequence,5_0_0_0_3,NA,NA,completion,9232.1,684996,684992.04,685008.64,694240.74,694242,2023-10-17T15:34:24Z,694257.4,NULL,Toleranz,kuvumiliana,s,maombolezo,ujasusi,mchekeshaji,NA,sdf,NA,0,NA,NA,NA,NA,NA,NA,NA,NA,NA,NA,NA,NA,NA,NA,NA,NA,NA,NA,NA
30bd8,deep,flow.Sequence,5_0_0_0_4_0,NA,NA,skipped,NA,694243,NA,NA,694240.74,694243,2023-10-17T15:34:24Z,694257.4,NULL,Schlange,foleni,s,uvumilivu,uteuzi,muuzaji,NA,sdf,NA,0,NA,NA,NA,NA,NA,NA,NA,NA,NA,NA,NA,NA,NA,NA,NA,NA,NA,NA,NA
30bd8,Shallow Question,html.Page,5_0_0_0_4_1_0,NA,NA,form submission,4296.6,694243,694240.74,694257.4,698554,698554,2023-10-17T15:34:29Z,698556.92,NULL,Schlange,foleni,s,uvumilivu,uteuzi,muuzaji,muuzaji,NA,NA,0,NA,NA,NA,NA,NA,NA,NA,NA,NA,NA,NA,NA,NA,NA,NA,NA,NA,NA,NA
30bd8,"""Richtig""-Screen",canvas.Screen,5_0_0_0_4_1_1,NA,NA,skipped,NA,698557,NA,NA,698554,698557,2023-10-17T15:34:29Z,698556.92,NULL,Schlange,foleni,s,uvumilivu,uteuzi,muuzaji,NA,sdf,NA,0,NA,NA,NA,NA,NA,NA,NA,NA,NA,NA,NA,NA,NA,NA,NA,NA,NA,NA,NA
30bd8,"""Falsch""-Screen",canvas.Screen,5_0_0_0_4_1_2,NA,NA,timeout,4999.3199999999,698561,698552.4,698556.92,703539.62,703542,2023-10-17T15:34:34Z,703556.24,NULL,Schlange,foleni,s,uvumilivu,uteuzi,muuzaji,NA,sdf,0,0,NA,NA,NA,NA,NA,NA,NA,NA,NA,NA,NA,NA,NA,NA,NA,NA,NA,NA,NA
30bd8,shallow,flow.Sequence,5_0_0_0_4_1,NA,NA,completion,9282.22,694243,694240.74,694257.4,703539.62,703543,2023-10-17T15:34:34Z,703556.24,NULL,Schlange,foleni,s,uvumilivu,uteuzi,muuzaji,NA,sdf,NA,0,NA,NA,NA,NA,NA,NA,NA,NA,NA,NA,NA,NA,NA,NA,NA,NA,NA,NA,NA
30bd8,task,flow.Sequence,5_0_0_0_4,NA,NA,completion,9282.22,694243,694240.74,694257.4,703539.62,703544,2023-10-17T15:34:34Z,703556.24,NULL,Schlange,foleni,s,uvumilivu,uteuzi,muuzaji,NA,sdf,NA,0,NA,NA,NA,NA,NA,NA,NA,NA,NA,NA,NA,NA,NA,NA,NA,NA,NA,NA,NA
30bd8,Deep Question,html.Page,5_0_0_0_5_0_0,NA,NA,form submission,3471.76,703545,703539.62,703556.24,707028,707028,2023-10-17T15:34:37Z,707027.58,NULL,Integrität,uadilifu,d,NA,NA,NA,uzawinga,NA,NA,0,NA,NA,NA,NA,NA,NA,NA,NA,NA,NA,NA,NA,NA,NA,NA,NA,NA,NA,NA
30bd8,"""Richtig""-Screen",canvas.Screen,5_0_0_0_5_0_1,NA,NA,skipped,NA,707031,NA,NA,707028,707031,2023-10-17T15:34:37Z,707027.58,NULL,Integrität,uadilifu,d,NA,NA,NA,NA,sdf,NA,0,NA,NA,NA,NA,NA,NA,NA,NA,NA,NA,NA,NA,NA,NA,NA,NA,NA,NA,NA
30bd8,"""Falsch""-Screen",canvas.Screen,5_0_0_0_5_0_2,NA,NA,timeout,4994.26,707034,707027.22,707027.58,712005.24,712007,2023-10-17T15:34:42Z,712021.84,NULL,Integrität,uadilifu,d,NA,NA,NA,NA,sdf,0,0,NA,NA,NA,NA,NA,NA,NA,NA,NA,NA,NA,NA,NA,NA,NA,NA,NA,NA,NA
30bd8,deep,flow.Sequence,5_0_0_0_5_0,NA,NA,completion,8449,703545,703539.62,703556.24,712005.24,712007,2023-10-17T15:34:42Z,712021.84,NULL,Integrität,uadilifu,d,NA,NA,NA,NA,sdf,NA,0,NA,NA,NA,NA,NA,NA,NA,NA,NA,NA,NA,NA,NA,NA,NA,NA,NA,NA,NA
30bd8,shallow,flow.Sequence,5_0_0_0_5_1,NA,NA,skipped,NA,712008,NA,NA,712005.24,712008,2023-10-17T15:34:42Z,712021.84,NULL,Integrität,uadilifu,d,NA,NA,NA,NA,sdf,NA,0,NA,NA,NA,NA,NA,NA,NA,NA,NA,NA,NA,NA,NA,NA,NA,NA,NA,NA,NA
30bd8,task,flow.Sequence,5_0_0_0_5,NA,NA,completion,8449,703545,703539.62,703556.24,712005.24,712008,2023-10-17T15:34:42Z,712021.84,NULL,Integrität,uadilifu,d,NA,NA,NA,NA,sdf,NA,0,NA,NA,NA,NA,NA,NA,NA,NA,NA,NA,NA,NA,NA,NA,NA,NA,NA,NA,NA
30bd8,deep,flow.Sequence,5_0_0_0_6_0,NA,NA,skipped,NA,712008,NA,NA,712005.24,712008,2023-10-17T15:34:42Z,712021.84,NULL,Begegnung,kukutana,s,mmasihiya,mpiganaji,husiano,NA,sdf,NA,0,NA,NA,NA,NA,NA,NA,NA,NA,NA,NA,NA,NA,NA,NA,NA,NA,NA,NA,NA
30bd8,Shallow Question,html.Page,5_0_0_0_6_1_0,NA,NA,form submission,4112.16,712009,712005.24,712021.84,716134,716134,2023-10-17T15:34:46Z,716138.04,NULL,Begegnung,kukutana,s,mmasihiya,mpiganaji,husiano,husiano,NA,NA,0,NA,NA,NA,NA,NA,NA,NA,NA,NA,NA,NA,NA,NA,NA,NA,NA,NA,NA,NA
30bd8,"""Richtig""-Screen",canvas.Screen,5_0_0_0_6_1_1,NA,NA,skipped,NA,716136,NA,NA,716134,716137,2023-10-17T15:34:46Z,716138.04,NULL,Begegnung,kukutana,s,mmasihiya,mpiganaji,husiano,NA,sdf,NA,0,NA,NA,NA,NA,NA,NA,NA,NA,NA,NA,NA,NA,NA,NA,NA,NA,NA,NA,NA
30bd8,"""Falsch""-Screen",canvas.Screen,5_0_0_0_6_1_2,NA,NA,timeout,4999.2799999999,716140,716132.7,716138.04,721120.66,721122,2023-10-17T15:34:51Z,721137.32,NULL,Begegnung,kukutana,s,mmasihiya,mpiganaji,husiano,NA,sdf,0,0,NA,NA,NA,NA,NA,NA,NA,NA,NA,NA,NA,NA,NA,NA,NA,NA,NA,NA,NA
30bd8,shallow,flow.Sequence,5_0_0_0_6_1,NA,NA,completion,9098.8200000001,712009,712005.24,712021.84,721120.66,721122,2023-10-17T15:34:51Z,721137.32,NULL,Begegnung,kukutana,s,mmasihiya,mpiganaji,husiano,NA,sdf,NA,0,NA,NA,NA,NA,NA,NA,NA,NA,NA,NA,NA,NA,NA,NA,NA,NA,NA,NA,NA
30bd8,task,flow.Sequence,5_0_0_0_6,NA,NA,completion,9098.8200000001,712008,712005.24,712021.84,721120.66,721123,2023-10-17T15:34:51Z,721137.32,NULL,Begegnung,kukutana,s,mmasihiya,mpiganaji,husiano,NA,sdf,NA,0,NA,NA,NA,NA,NA,NA,NA,NA,NA,NA,NA,NA,NA,NA,NA,NA,NA,NA,NA
30bd8,Deep Question,html.Page,5_0_0_0_7_0_0,NA,NA,form submission,3017.6800000001,721123,721120.66,721137.32,724155,724155,2023-10-17T15:34:54Z,724153.88,NULL,Fleisch,mshakiki,d,NA,NA,NA,uza,NA,NA,0,NA,NA,NA,NA,NA,NA,NA,NA,NA,NA,NA,NA,NA,NA,NA,NA,NA,NA,NA
30bd8,"""Richtig""-Screen",canvas.Screen,5_0_0_0_7_0_1,NA,NA,skipped,NA,724158,NA,NA,724155,724158,2023-10-17T15:34:54Z,724153.88,NULL,Fleisch,mshakiki,d,NA,NA,NA,NA,sdf,NA,0,NA,NA,NA,NA,NA,NA,NA,NA,NA,NA,NA,NA,NA,NA,NA,NA,NA,NA,NA
30bd8,"""Falsch""-Screen",canvas.Screen,5_0_0_0_7_0_2,NA,NA,timeout,4999.12,724161,724153.6,724153.88,729136.4,729138,2023-10-17T15:34:59Z,729153,NULL,Fleisch,mshakiki,d,NA,NA,NA,NA,sdf,0,0,NA,NA,NA,NA,NA,NA,NA,NA,NA,NA,NA,NA,NA,NA,NA,NA,NA,NA,NA
30bd8,deep,flow.Sequence,5_0_0_0_7_0,NA,NA,completion,7999.0800000001,721123,721120.66,721137.32,729136.4,729138,2023-10-17T15:34:59Z,729153,NULL,Fleisch,mshakiki,d,NA,NA,NA,NA,sdf,NA,0,NA,NA,NA,NA,NA,NA,NA,NA,NA,NA,NA,NA,NA,NA,NA,NA,NA,NA,NA
30bd8,shallow,flow.Sequence,5_0_0_0_7_1,NA,NA,skipped,NA,729139,NA,NA,729136.4,729139,2023-10-17T15:34:59Z,729153,NULL,Fleisch,mshakiki,d,NA,NA,NA,NA,sdf,NA,0,NA,NA,NA,NA,NA,NA,NA,NA,NA,NA,NA,NA,NA,NA,NA,NA,NA,NA,NA
30bd8,task,flow.Sequence,5_0_0_0_7,NA,NA,completion,7999.0800000001,721123,721120.66,721137.32,729136.4,729139,2023-10-17T15:34:59Z,729153,NULL,Fleisch,mshakiki,d,NA,NA,NA,NA,sdf,NA,0,NA,NA,NA,NA,NA,NA,NA,NA,NA,NA,NA,NA,NA,NA,NA,NA,NA,NA,NA
30bd8,block,flow.Loop,5_0_0_0,NA,NA,completion,68729.1,660407,660406.98,660407.3,729136.4,729140,2023-10-17T15:34:59Z,729153,NULL,NA,NA,NA,NA,NA,NA,NA,sdf,NA,0,NA,NA,NA,NA,NA,NA,NA,NA,NA,NA,NA,NA,NA,NA,NA,NA,NA,NA,NA
30bd8,weiter,canvas.Screen,5_0_0_1,sdf,keypress(Space),response,1135,729140,729136.4,729153,730288,730304,2023-10-17T15:35:00Z,730358.64,NULL,NA,NA,NA,NA,NA,NA,NA,sdf,NA,0,NA,NA,NA,NA,NA,NA,NA,NA,NA,NA,NA,NA,NA,NA,NA,NA,NA,NA,NA
30bd8,check continue,flow.Sequence,5_0_0,NA,NA,completion,69880.7,660407,660406.98,660407.3,730288,730305,2023-10-17T15:35:00Z,730358.64,NULL,NA,NA,NA,NA,NA,NA,NA,sdf,NA,0,NA,NA,NA,NA,NA,NA,NA,NA,NA,NA,NA,NA,NA,NA,NA,NA,NA,NA,NA
30bd8,Deep Question,html.Page,5_0_1_0_0_0_0,NA,NA,form submission,4382.36,730354,730354.14,730358.64,734741,734742,2023-10-17T15:35:05Z,734752.26,NULL,Inhalt,yaliyomo,d,NA,NA,NA,k,NA,NA,1,NA,NA,NA,NA,NA,NA,NA,NA,NA,NA,NA,NA,NA,NA,NA,NA,NA,NA,NA
30bd8,"""Richtig""-Screen",canvas.Screen,5_0_1_0_0_0_1,NA,NA,skipped,NA,734749,NA,NA,734741,734749,2023-10-17T15:35:05Z,734752.26,NULL,Inhalt,yaliyomo,d,NA,NA,NA,NA,sdfdsf,NA,1,NA,NA,NA,NA,NA,NA,NA,NA,NA,NA,NA,NA,NA,NA,NA,NA,NA,NA,NA
30bd8,"""Falsch""-Screen",canvas.Screen,5_0_1_0_0_0_2,NA,NA,timeout,4999.36,734753,734735.62,734752.26,739734.96,739737,2023-10-17T15:35:10Z,739751.62,NULL,Inhalt,yaliyomo,d,NA,NA,NA,NA,sdfdsf,0,1,NA,NA,NA,NA,NA,NA,NA,NA,NA,NA,NA,NA,NA,NA,NA,NA,NA,NA,NA
30bd8,deep,flow.Sequence,5_0_1_0_0_0,NA,NA,completion,9376.3199999999,730354,730354.14,730358.64,739734.96,739738,2023-10-17T15:35:10Z,739751.62,NULL,Inhalt,yaliyomo,d,NA,NA,NA,NA,sdfdsf,NA,1,NA,NA,NA,NA,NA,NA,NA,NA,NA,NA,NA,NA,NA,NA,NA,NA,NA,NA,NA
30bd8,shallow,flow.Sequence,5_0_1_0_0_1,NA,NA,skipped,NA,739738,NA,NA,739734.96,739738,2023-10-17T15:35:10Z,739751.62,NULL,Inhalt,yaliyomo,d,NA,NA,NA,NA,sdfdsf,NA,1,NA,NA,NA,NA,NA,NA,NA,NA,NA,NA,NA,NA,NA,NA,NA,NA,NA,NA,NA
30bd8,task,flow.Sequence,5_0_1_0_0,NA,NA,completion,9376.3199999999,730354,730354.14,730358.64,739734.96,739740,2023-10-17T15:35:10Z,739751.62,NULL,Inhalt,yaliyomo,d,NA,NA,NA,NA,sdfdsf,NA,1,NA,NA,NA,NA,NA,NA,NA,NA,NA,NA,NA,NA,NA,NA,NA,NA,NA,NA,NA
30bd8,deep,flow.Sequence,5_0_1_0_1_0,NA,NA,skipped,NA,739740,NA,NA,739734.96,739741,2023-10-17T15:35:10Z,739751.62,NULL,Toleranz,kuvumiliana,s,maombolezo,ujasusi,mchekeshaji,NA,sdfdsf,NA,1,NA,NA,NA,NA,NA,NA,NA,NA,NA,NA,NA,NA,NA,NA,NA,NA,NA,NA,NA
30bd8,Shallow Question,html.Page,5_0_1_0_1_1_0,NA,NA,form submission,6936.38,739741,739734.96,739751.62,746688,746689,2023-10-17T15:35:17Z,746687.94,NULL,Toleranz,kuvumiliana,s,maombolezo,ujasusi,mchekeshaji,ujasusi,NA,NA,1,NA,NA,NA,NA,NA,NA,NA,NA,NA,NA,NA,NA,NA,NA,NA,NA,NA,NA,NA
30bd8,"""Richtig""-Screen",canvas.Screen,5_0_1_0_1_1_1,NA,NA,skipped,NA,746693,NA,NA,746688,746693,2023-10-17T15:35:17Z,746687.94,NULL,Toleranz,kuvumiliana,s,maombolezo,ujasusi,mchekeshaji,NA,sdfdsf,NA,1,NA,NA,NA,NA,NA,NA,NA,NA,NA,NA,NA,NA,NA,NA,NA,NA,NA,NA,NA
30bd8,"""Falsch""-Screen",canvas.Screen,5_0_1_0_1_1_2,NA,NA,timeout,4995.54,746696,746687.58,746687.94,751666.86,751668,2023-10-17T15:35:22Z,751683.48,NULL,Toleranz,kuvumiliana,s,maombolezo,ujasusi,mchekeshaji,NA,sdfdsf,0,1,NA,NA,NA,NA,NA,NA,NA,NA,NA,NA,NA,NA,NA,NA,NA,NA,NA,NA,NA
30bd8,shallow,flow.Sequence,5_0_1_0_1_1,NA,NA,completion,11915.24,739741,739734.96,739751.62,751666.86,751670,2023-10-17T15:35:22Z,751683.48,NULL,Toleranz,kuvumiliana,s,maombolezo,ujasusi,mchekeshaji,NA,sdfdsf,NA,1,NA,NA,NA,NA,NA,NA,NA,NA,NA,NA,NA,NA,NA,NA,NA,NA,NA,NA,NA
30bd8,task,flow.Sequence,5_0_1_0_1,NA,NA,completion,11915.24,739740,739734.96,739751.62,751666.86,751671,2023-10-17T15:35:22Z,751683.48,NULL,Toleranz,kuvumiliana,s,maombolezo,ujasusi,mchekeshaji,NA,sdfdsf,NA,1,NA,NA,NA,NA,NA,NA,NA,NA,NA,NA,NA,NA,NA,NA,NA,NA,NA,NA,NA
30bd8,deep,flow.Sequence,5_0_1_0_2_0,NA,NA,skipped,NA,751672,NA,NA,751666.86,751672,2023-10-17T15:35:22Z,751683.48,NULL,Schlange,foleni,s,uvumilivu,uteuzi,muuzaji,NA,sdfdsf,NA,1,NA,NA,NA,NA,NA,NA,NA,NA,NA,NA,NA,NA,NA,NA,NA,NA,NA,NA,NA
30bd8,Shallow Question,html.Page,5_0_1_0_2_1_0,NA,NA,form submission,4384.52,751673,751666.86,751683.48,756068,756069,2023-10-17T15:35:26Z,756066.68,NULL,Schlange,foleni,s,uvumilivu,uteuzi,muuzaji,foleni,NA,NA,1,NA,NA,NA,NA,NA,NA,NA,NA,NA,NA,NA,NA,NA,NA,NA,NA,NA,NA,NA
30bd8,"""Richtig""-Screen",canvas.Screen,5_0_1_0_2_1_1,NA,NA,timeout,4998.88,756072,756066.42,756066.68,761048.9,761051,2023-10-17T15:35:31Z,761065.56,NULL,Schlange,foleni,s,uvumilivu,uteuzi,muuzaji,NA,sdfdsf,1,1,NA,NA,NA,NA,NA,NA,NA,NA,NA,NA,NA,NA,NA,NA,NA,NA,NA,NA,NA
30bd8,"""Falsch""-Screen",canvas.Screen,5_0_1_0_2_1_2,NA,NA,skipped,NA,761060,NA,NA,761048.9,761060,2023-10-17T15:35:31Z,761065.56,NULL,Schlange,foleni,s,uvumilivu,uteuzi,muuzaji,NA,sdfdsf,NA,1,NA,NA,NA,NA,NA,NA,NA,NA,NA,NA,NA,NA,NA,NA,NA,NA,NA,NA,NA
30bd8,shallow,flow.Sequence,5_0_1_0_2_1,NA,NA,completion,9365.42,751673,751666.86,751683.48,761048.9,761061,2023-10-17T15:35:31Z,761065.56,NULL,Schlange,foleni,s,uvumilivu,uteuzi,muuzaji,NA,sdfdsf,NA,1,NA,NA,NA,NA,NA,NA,NA,NA,NA,NA,NA,NA,NA,NA,NA,NA,NA,NA,NA
30bd8,task,flow.Sequence,5_0_1_0_2,NA,NA,completion,9365.42,751671,751666.86,751683.48,761048.9,761062,2023-10-17T15:35:31Z,761065.56,NULL,Schlange,foleni,s,uvumilivu,uteuzi,muuzaji,NA,sdfdsf,NA,1,NA,NA,NA,NA,NA,NA,NA,NA,NA,NA,NA,NA,NA,NA,NA,NA,NA,NA,NA
30bd8,Deep Question,html.Page,5_0_1_0_3_0_0,NA,NA,form submission,2769.4399999999,761062,761048.9,761065.56,763835,763835,2023-10-17T15:35:34Z,763848.5,NULL,Vermutung,udhanifu,d,NA,NA,NA,oo,NA,NA,1,NA,NA,NA,NA,NA,NA,NA,NA,NA,NA,NA,NA,NA,NA,NA,NA,NA,NA,NA
30bd8,"""Richtig""-Screen",canvas.Screen,5_0_1_0_3_0_1,NA,NA,skipped,NA,763838,NA,NA,763835,763839,2023-10-17T15:35:34Z,763848.5,NULL,Vermutung,udhanifu,d,NA,NA,NA,NA,sdfdsf,NA,1,NA,NA,NA,NA,NA,NA,NA,NA,NA,NA,NA,NA,NA,NA,NA,NA,NA,NA,NA
30bd8,"""Falsch""-Screen",canvas.Screen,5_0_1_0_3_0_2,NA,NA,timeout,4999.4,763841,763833.86,763848.5,768831.24,768833,2023-10-17T15:35:39Z,768847.9,NULL,Vermutung,udhanifu,d,NA,NA,NA,NA,sdfdsf,0,1,NA,NA,NA,NA,NA,NA,NA,NA,NA,NA,NA,NA,NA,NA,NA,NA,NA,NA,NA
30bd8,deep,flow.Sequence,5_0_1_0_3_0,NA,NA,completion,7765.6799999999,761062,761048.9,761065.56,768831.24,768833,2023-10-17T15:35:39Z,768847.9,NULL,Vermutung,udhanifu,d,NA,NA,NA,NA,sdfdsf,NA,1,NA,NA,NA,NA,NA,NA,NA,NA,NA,NA,NA,NA,NA,NA,NA,NA,NA,NA,NA
30bd8,shallow,flow.Sequence,5_0_1_0_3_1,NA,NA,skipped,NA,768834,NA,NA,768831.24,768834,2023-10-17T15:35:39Z,768847.9,NULL,Vermutung,udhanifu,d,NA,NA,NA,NA,sdfdsf,NA,1,NA,NA,NA,NA,NA,NA,NA,NA,NA,NA,NA,NA,NA,NA,NA,NA,NA,NA,NA
