observation,sender,sender_type,sender_id,response,response_action,ended_on,duration,time_run,time_render,time_show,time_end,time_commit,timestamp,time_switch,distractors,german,swahili,enc,distractor1,distractor2,distractor3,response_2,x,correct,x_2,url_vp,url_sess,meta_labjs_version,meta_location,meta_user_agent,meta_platform,meta_language,meta_locale,meta_time_zone,meta_timezone_offset,meta_screen_width,meta_screen_height,meta_scroll_width,meta_scroll_height,meta_window_inner_width,meta_window_inner_height,meta_device_pixel_ratio,meta_labjs_build_flavor,meta_labjs_build_commit
4f714,Introduction general,canvas.Screen,0,weiter,keypress(q),response,4773.44,390,386.86,403.56,5177,5192,2023-11-28T15:58:11Z,5193.18,NULL,NA,NA,NA,NA,NA,NA,NA,NA,NA,NA,187,3,20.2.4,https://neurocog.fernuni.ch/studies/vweber/sliechti/encoding_immediate/index.html?vp=187&sess=3,Mozilla/5.0 (Windows NT 10.0; Win64; x64; rv:120.0) Gecko/20100101 Firefox/120.0,Win32,de,de-CH,Europe/Zurich,-60,1280,720,1280,587,1280,587,1.5,production,f5b4a49f956347addd546a832a3327688c2c0fef
4f714,Introduction practice,canvas.Screen,1_0,NA,keypress(Space),response,5218.82,5193,5192.94,5193.18,10412,10417,2023-11-28T15:58:16Z,10418.38,NULL,NA,NA,NA,NA,NA,NA,NA,NA,NA,NA,NA,NA,NA,NA,NA,NA,NA,NA,NA,NA,NA,NA,NA,NA,NA,NA,NA,NA,NA
4f714,Deep Question,html.Page,1_1_0_0_0,NA,NA,form submission,6928.62,10418,10418.22,10418.38,17347,17347,2023-11-28T15:58:23Z,17351.44,"c(""distractor1"", ""distractor2"", ""distractor3"")",Gesundheit,salama,d,NA,NA,NA,a,NA,NA,NA,NA,NA,NA,NA,NA,NA,NA,NA,NA,NA,NA,NA,NA,NA,NA,NA,NA,NA,NA
4f714,"""Richtig""-Screen",canvas.Screen,1_1_0_0_1,NA,NA,skipped,NA,17351,NA,NA,17347,17351,2023-11-28T15:58:23Z,17351.44,"c(""distractor1"", ""distractor2"", ""distractor3"")",Gesundheit,salama,d,NA,NA,NA,NA,NA,NA,NA,NA,NA,NA,NA,NA,NA,NA,NA,NA,NA,NA,NA,NA,NA,NA,NA,NA,NA,NA
4f714,"""Falsch""-Screen",canvas.Screen,1_1_0_0_2,NA,NA,timeout,4999.46,17352,17346.2,17351.44,22334.1,22335,2023-11-28T15:58:28Z,22350.9,"c(""distractor1"", ""distractor2"", ""distractor3"")",Gesundheit,salama,d,NA,NA,NA,NA,NA,0,NA,NA,NA,NA,NA,NA,NA,NA,NA,NA,NA,NA,NA,NA,NA,NA,NA,NA,NA,NA
4f714,deep,flow.Sequence,1_1_0_0,NA,NA,completion,11915.72,10418,10418.22,10418.38,22334.1,22335,2023-11-28T15:58:28Z,22350.9,"c(""distractor1"", ""distractor2"", ""distractor3"")",Gesundheit,salama,d,NA,NA,NA,NA,NA,NA,NA,NA,NA,NA,NA,NA,NA,NA,NA,NA,NA,NA,NA,NA,NA,NA,NA,NA,NA,NA
4f714,shallow,flow.Sequence,1_1_0_1,NA,NA,skipped,NA,22335,NA,NA,22334.1,22335,2023-11-28T15:58:28Z,22350.9,"c(""distractor1"", ""distractor2"", ""distractor3"")",Gesundheit,salama,d,NA,NA,NA,NA,NA,NA,NA,NA,NA,NA,NA,NA,NA,NA,NA,NA,NA,NA,NA,NA,NA,NA,NA,NA,NA,NA
4f714,task,flow.Sequence,1_1_0,NA,NA,completion,11915.72,10418,10418.22,10418.38,22334.1,22336,2023-11-28T15:58:28Z,22350.9,"c(""distractor1"", ""distractor2"", ""distractor3"")",Gesundheit,salama,d,NA,NA,NA,NA,NA,NA,NA,NA,NA,NA,NA,NA,NA,NA,NA,NA,NA,NA,NA,NA,NA,NA,NA,NA,NA,NA
4f714,deep,flow.Sequence,1_1_1_0,NA,NA,skipped,NA,22336,NA,NA,22334.1,22336,2023-11-28T15:58:28Z,22350.9,"c(""distractor1"", ""distractor2"", ""distractor3"")",Gegenwart,hadhara,s,katiba,jokofu,mikopo,NA,NA,NA,NA,NA,NA,NA,NA,NA,NA,NA,NA,NA,NA,NA,NA,NA,NA,NA,NA,NA,NA,NA
4f714,Shallow Question,html.Page,1_1_1_1_0,NA,NA,form submission,7087.1,22336,22334.1,22350.9,29438,29439,2023-11-28T15:58:35Z,29438.18,"c(""distractor1"", ""distractor2"", ""distractor3"")",Gegenwart,hadhara,s,katiba,jokofu,mikopo,hadhara,NA,NA,NA,NA,NA,NA,NA,NA,NA,NA,NA,NA,NA,NA,NA,NA,NA,NA,NA,NA,NA,NA
4f714,"""Richtig""-Screen",canvas.Screen,1_1_1_1_1,NA,NA,timeout,4994.46,29440,29437.9,29438.18,34416.24,34418,2023-11-28T15:58:40Z,34432.64,"c(""distractor1"", ""distractor2"", ""distractor3"")",Gegenwart,hadhara,s,katiba,jokofu,mikopo,NA,NA,1,NA,NA,NA,NA,NA,NA,NA,NA,NA,NA,NA,NA,NA,NA,NA,NA,NA,NA,NA,NA
4f714,"""Falsch""-Screen",canvas.Screen,1_1_1_1_2,NA,NA,skipped,NA,34419,NA,NA,34416.24,34419,2023-11-28T15:58:40Z,34432.64,"c(""distractor1"", ""distractor2"", ""distractor3"")",Gegenwart,hadhara,s,katiba,jokofu,mikopo,NA,NA,NA,NA,NA,NA,NA,NA,NA,NA,NA,NA,NA,NA,NA,NA,NA,NA,NA,NA,NA,NA,NA
4f714,shallow,flow.Sequence,1_1_1_1,NA,NA,completion,12065.34,22336,22334.1,22350.9,34416.24,34420,2023-11-28T15:58:40Z,34432.64,"c(""distractor1"", ""distractor2"", ""distractor3"")",Gegenwart,hadhara,s,katiba,jokofu,mikopo,NA,NA,NA,NA,NA,NA,NA,NA,NA,NA,NA,NA,NA,NA,NA,NA,NA,NA,NA,NA,NA,NA,NA
4f714,task,flow.Sequence,1_1_1,NA,NA,completion,12065.34,22336,22334.1,22350.9,34416.24,34420,2023-11-28T15:58:40Z,34432.64,"c(""distractor1"", ""distractor2"", ""distractor3"")",Gegenwart,hadhara,s,katiba,jokofu,mikopo,NA,NA,NA,NA,NA,NA,NA,NA,NA,NA,NA,NA,NA,NA,NA,NA,NA,NA,NA,NA,NA,NA,NA
4f714,Deep Question,html.Page,1_1_2_0_0,NA,NA,form submission,2463.36,34420,34416.24,34432.64,36896,36896,2023-11-28T15:58:43Z,36898.92,"c(""distractor1"", ""distractor2"", ""distractor3"")",Schatten,kivuli,d,NA,NA,NA,a,NA,NA,NA,NA,NA,NA,NA,NA,NA,NA,NA,NA,NA,NA,NA,NA,NA,NA,NA,NA,NA,NA
4f714,"""Richtig""-Screen",canvas.Screen,1_1_2_0_1,NA,NA,skipped,NA,36897,NA,NA,36896,36897,2023-11-28T15:58:43Z,36898.92,"c(""distractor1"", ""distractor2"", ""distractor3"")",Schatten,kivuli,d,NA,NA,NA,NA,NA,NA,NA,NA,NA,NA,NA,NA,NA,NA,NA,NA,NA,NA,NA,NA,NA,NA,NA,NA,NA,NA
4f714,"""Falsch""-Screen",canvas.Screen,1_1_2_0_2,NA,NA,timeout,4999.38,36899,36895.3,36898.92,41882.14,41883,2023-11-28T15:58:48Z,41898.3,"c(""distractor1"", ""distractor2"", ""distractor3"")",Schatten,kivuli,d,NA,NA,NA,NA,NA,0,NA,NA,NA,NA,NA,NA,NA,NA,NA,NA,NA,NA,NA,NA,NA,NA,NA,NA,NA,NA
4f714,deep,flow.Sequence,1_1_2_0,NA,NA,completion,7449.5,34420,34416.24,34432.64,41882.14,41883,2023-11-28T15:58:48Z,41898.3,"c(""distractor1"", ""distractor2"", ""distractor3"")",Schatten,kivuli,d,NA,NA,NA,NA,NA,NA,NA,NA,NA,NA,NA,NA,NA,NA,NA,NA,NA,NA,NA,NA,NA,NA,NA,NA,NA,NA
4f714,shallow,flow.Sequence,1_1_2_1,NA,NA,skipped,NA,41883,NA,NA,41882.14,41883,2023-11-28T15:58:48Z,41898.3,"c(""distractor1"", ""distractor2"", ""distractor3"")",Schatten,kivuli,d,NA,NA,NA,NA,NA,NA,NA,NA,NA,NA,NA,NA,NA,NA,NA,NA,NA,NA,NA,NA,NA,NA,NA,NA,NA,NA
4f714,task,flow.Sequence,1_1_2,NA,NA,completion,7449.5,34420,34416.24,34432.64,41882.14,41883,2023-11-28T15:58:48Z,41898.3,"c(""distractor1"", ""distractor2"", ""distractor3"")",Schatten,kivuli,d,NA,NA,NA,NA,NA,NA,NA,NA,NA,NA,NA,NA,NA,NA,NA,NA,NA,NA,NA,NA,NA,NA,NA,NA,NA,NA
4f714,deep,flow.Sequence,1_1_3_0,NA,NA,skipped,NA,41884,NA,NA,41882.14,41884,2023-11-28T15:58:48Z,41898.3,"c(""distractor1"", ""distractor2"", ""distractor3"")",Rückhalt,msaada,s,muhula,auwali,kiwimbe,NA,NA,NA,NA,NA,NA,NA,NA,NA,NA,NA,NA,NA,NA,NA,NA,NA,NA,NA,NA,NA,NA,NA
4f714,Shallow Question,html.Page,1_1_3_1_0,NA,NA,form submission,4310.7,41884,41882.14,41898.3,46209,46210,2023-11-28T15:58:52Z,46208.74,"c(""distractor1"", ""distractor2"", ""distractor3"")",Rückhalt,msaada,s,muhula,auwali,kiwimbe,kiwimbe,NA,NA,NA,NA,NA,NA,NA,NA,NA,NA,NA,NA,NA,NA,NA,NA,NA,NA,NA,NA,NA,NA
4f714,"""Richtig""-Screen",canvas.Screen,1_1_3_1_1,NA,NA,skipped,NA,46211,NA,NA,46209,46211,2023-11-28T15:58:52Z,46208.74,"c(""distractor1"", ""distractor2"", ""distractor3"")",Rückhalt,msaada,s,muhula,auwali,kiwimbe,NA,NA,NA,NA,NA,NA,NA,NA,NA,NA,NA,NA,NA,NA,NA,NA,NA,NA,NA,NA,NA,NA,NA
4f714,"""Falsch""-Screen",canvas.Screen,1_1_3_1_2,NA,NA,timeout,5005.38,46212,46208.52,46208.74,51197.34,51198,2023-11-28T15:58:57Z,51214.12,"c(""distractor1"", ""distractor2"", ""distractor3"")",Rückhalt,msaada,s,muhula,auwali,kiwimbe,NA,NA,0,NA,NA,NA,NA,NA,NA,NA,NA,NA,NA,NA,NA,NA,NA,NA,NA,NA,NA,NA,NA
4f714,shallow,flow.Sequence,1_1_3_1,NA,NA,completion,9299.04,41884,41882.14,41898.3,51197.34,51199,2023-11-28T15:58:57Z,51214.12,"c(""distractor1"", ""distractor2"", ""distractor3"")",Rückhalt,msaada,s,muhula,auwali,kiwimbe,NA,NA,NA,NA,NA,NA,NA,NA,NA,NA,NA,NA,NA,NA,NA,NA,NA,NA,NA,NA,NA,NA,NA
4f714,task,flow.Sequence,1_1_3,NA,NA,completion,9299.04,41884,41882.14,41898.3,51197.34,51199,2023-11-28T15:58:57Z,51214.12,"c(""distractor1"", ""distractor2"", ""distractor3"")",Rückhalt,msaada,s,muhula,auwali,kiwimbe,NA,NA,NA,NA,NA,NA,NA,NA,NA,NA,NA,NA,NA,NA,NA,NA,NA,NA,NA,NA,NA,NA,NA
4f714,Deep Question,html.Page,1_1_4_0_0,NA,NA,form submission,2173.88,51199,51197.34,51214.12,53388,53388,2023-11-28T15:58:59Z,53387.14,"c(""distractor1"", ""distractor2"", ""distractor3"")",Qualität,mtindo,d,NA,NA,NA,ak,NA,NA,NA,NA,NA,NA,NA,NA,NA,NA,NA,NA,NA,NA,NA,NA,NA,NA,NA,NA,NA,NA
4f714,"""Richtig""-Screen",canvas.Screen,1_1_4_0_1,NA,NA,skipped,NA,53389,NA,NA,53388,53389,2023-11-28T15:58:59Z,53387.14,"c(""distractor1"", ""distractor2"", ""distractor3"")",Qualität,mtindo,d,NA,NA,NA,NA,NA,NA,NA,NA,NA,NA,NA,NA,NA,NA,NA,NA,NA,NA,NA,NA,NA,NA,NA,NA,NA,NA
4f714,"""Falsch""-Screen",canvas.Screen,1_1_4_0_2,NA,NA,timeout,4992.86,53390,53386.98,53387.14,58362.94,58363,2023-11-28T15:59:04Z,58380,"c(""distractor1"", ""distractor2"", ""distractor3"")",Qualität,mtindo,d,NA,NA,NA,NA,NA,0,NA,NA,NA,NA,NA,NA,NA,NA,NA,NA,NA,NA,NA,NA,NA,NA,NA,NA,NA,NA
4f714,deep,flow.Sequence,1_1_4_0,NA,NA,completion,7148.82,51199,51197.34,51214.12,58362.94,58364,2023-11-28T15:59:04Z,58380,"c(""distractor1"", ""distractor2"", ""distractor3"")",Qualität,mtindo,d,NA,NA,NA,NA,NA,NA,NA,NA,NA,NA,NA,NA,NA,NA,NA,NA,NA,NA,NA,NA,NA,NA,NA,NA,NA,NA
4f714,shallow,flow.Sequence,1_1_4_1,NA,NA,skipped,NA,58364,NA,NA,58362.94,58364,2023-11-28T15:59:04Z,58380,"c(""distractor1"", ""distractor2"", ""distractor3"")",Qualität,mtindo,d,NA,NA,NA,NA,NA,NA,NA,NA,NA,NA,NA,NA,NA,NA,NA,NA,NA,NA,NA,NA,NA,NA,NA,NA,NA,NA
4f714,task,flow.Sequence,1_1_4,NA,NA,completion,7148.82,51199,51197.34,51214.12,58362.94,58364,2023-11-28T15:59:04Z,58380,"c(""distractor1"", ""distractor2"", ""distractor3"")",Qualität,mtindo,d,NA,NA,NA,NA,NA,NA,NA,NA,NA,NA,NA,NA,NA,NA,NA,NA,NA,NA,NA,NA,NA,NA,NA,NA,NA,NA
4f714,deep,flow.Sequence,1_1_5_0,NA,NA,skipped,NA,58364,NA,NA,58362.94,58364,2023-11-28T15:59:04Z,58380,"c(""distractor1"", ""distractor2"", ""distractor3"")",Kritik,lawama,s,dereva,nafasi,mawazo,NA,NA,NA,NA,NA,NA,NA,NA,NA,NA,NA,NA,NA,NA,NA,NA,NA,NA,NA,NA,NA,NA,NA
4f714,Shallow Question,html.Page,1_1_5_1_0,NA,NA,form submission,2124,58364,58362.94,58380,60504,60504,2023-11-28T15:59:06Z,60503.4,"c(""distractor1"", ""distractor2"", ""distractor3"")",Kritik,lawama,s,dereva,nafasi,mawazo,nafasi,NA,NA,NA,NA,NA,NA,NA,NA,NA,NA,NA,NA,NA,NA,NA,NA,NA,NA,NA,NA,NA,NA
4f714,"""Richtig""-Screen",canvas.Screen,1_1_5_1_1,NA,NA,skipped,NA,60505,NA,NA,60504,60505,2023-11-28T15:59:06Z,60503.4,"c(""distractor1"", ""distractor2"", ""distractor3"")",Kritik,lawama,s,dereva,nafasi,mawazo,NA,NA,NA,NA,NA,NA,NA,NA,NA,NA,NA,NA,NA,NA,NA,NA,NA,NA,NA,NA,NA,NA,NA
4f714,"""Falsch""-Screen",canvas.Screen,1_1_5_1_2,NA,NA,timeout,4992.16,60506,60503.16,60503.4,65479.18,65480,2023-11-28T15:59:11Z,65495.56,"c(""distractor1"", ""distractor2"", ""distractor3"")",Kritik,lawama,s,dereva,nafasi,mawazo,NA,NA,0,NA,NA,NA,NA,NA,NA,NA,NA,NA,NA,NA,NA,NA,NA,NA,NA,NA,NA,NA,NA
4f714,shallow,flow.Sequence,1_1_5_1,NA,NA,completion,7099.18,58364,58362.94,58380,65479.18,65480,2023-11-28T15:59:11Z,65495.56,"c(""distractor1"", ""distractor2"", ""distractor3"")",Kritik,lawama,s,dereva,nafasi,mawazo,NA,NA,NA,NA,NA,NA,NA,NA,NA,NA,NA,NA,NA,NA,NA,NA,NA,NA,NA,NA,NA,NA,NA
4f714,task,flow.Sequence,1_1_5,NA,NA,completion,7099.18,58364,58362.94,58380,65479.18,65480,2023-11-28T15:59:11Z,65495.56,"c(""distractor1"", ""distractor2"", ""distractor3"")",Kritik,lawama,s,dereva,nafasi,mawazo,NA,NA,NA,NA,NA,NA,NA,NA,NA,NA,NA,NA,NA,NA,NA,NA,NA,NA,NA,NA,NA,NA,NA
4f714,block,flow.Loop,1_1,NA,NA,completion,55060.8,10418,10418.22,10418.38,65479.18,65480,2023-11-28T15:59:11Z,65495.56,"c(""distractor1"", ""distractor2"", ""distractor3"")",NA,NA,NA,NA,NA,NA,NA,NA,NA,NA,NA,NA,NA,NA,NA,NA,NA,NA,NA,NA,NA,NA,NA,NA,NA,NA,NA,NA,NA
4f714,Practice,flow.Sequence,1,NA,NA,completion,60286,5193,5192.94,5193.18,65479.18,65481,2023-11-28T15:59:11Z,65495.56,NULL,NA,NA,NA,NA,NA,NA,NA,NA,NA,NA,NA,NA,NA,NA,NA,NA,NA,NA,NA,NA,NA,NA,NA,NA,NA,NA,NA,NA,NA
4f714,Experiment start,canvas.Screen,2,weiter,keypress(q),response,22275.44,65481,65479.18,65495.56,87771,87784,2023-11-28T15:59:34Z,87871.84,NULL,NA,NA,NA,NA,NA,NA,NA,NA,NA,NA,NA,NA,NA,NA,NA,NA,NA,NA,NA,NA,NA,NA,NA,NA,NA,NA,NA,NA,NA
4f714,Deep Question,html.Page,3_0_0_0_0_0_0,NA,NA,form submission,16055.16,87872,87871.54,87871.84,103927,103927,2023-11-28T15:59:50Z,103926.04,NULL,Vorsorge,tahadhari,d,NA,NA,NA,al,NA,NA,0,NA,NA,NA,NA,NA,NA,NA,NA,NA,NA,NA,NA,NA,NA,NA,NA,NA,NA,NA
4f714,"""Richtig""-Screen",canvas.Screen,3_0_0_0_0_0_1,NA,NA,skipped,NA,103930,NA,NA,103927,103930,2023-11-28T15:59:50Z,103926.04,NULL,Vorsorge,tahadhari,d,NA,NA,NA,NA,sdf,NA,0,NA,NA,NA,NA,NA,NA,NA,NA,NA,NA,NA,NA,NA,NA,NA,NA,NA,NA,NA
4f714,"""Falsch""-Screen",canvas.Screen,3_0_0_0_0_0_2,NA,NA,timeout,4997.04,103932,103925.66,103926.04,108906.74,108908,2023-11-28T15:59:55Z,108923.08,NULL,Vorsorge,tahadhari,d,NA,NA,NA,NA,sdf,0,0,NA,NA,NA,NA,NA,NA,NA,NA,NA,NA,NA,NA,NA,NA,NA,NA,NA,NA,NA
4f714,deep,flow.Sequence,3_0_0_0_0_0,NA,NA,completion,21034.9,87872,87871.54,87871.84,108906.74,108909,2023-11-28T15:59:55Z,108923.08,NULL,Vorsorge,tahadhari,d,NA,NA,NA,NA,sdf,NA,0,NA,NA,NA,NA,NA,NA,NA,NA,NA,NA,NA,NA,NA,NA,NA,NA,NA,NA,NA
4f714,shallow,flow.Sequence,3_0_0_0_0_1,NA,NA,skipped,NA,108910,NA,NA,108906.74,108910,2023-11-28T15:59:55Z,108923.08,NULL,Vorsorge,tahadhari,d,NA,NA,NA,NA,sdf,NA,0,NA,NA,NA,NA,NA,NA,NA,NA,NA,NA,NA,NA,NA,NA,NA,NA,NA,NA,NA
4f714,task,flow.Sequence,3_0_0_0_0,NA,NA,completion,21034.9,87872,87871.54,87871.84,108906.74,108910,2023-11-28T15:59:55Z,108923.08,NULL,Vorsorge,tahadhari,d,NA,NA,NA,NA,sdf,NA,0,NA,NA,NA,NA,NA,NA,NA,NA,NA,NA,NA,NA,NA,NA,NA,NA,NA,NA,NA
4f714,deep,flow.Sequence,3_0_0_0_1_0,NA,NA,skipped,NA,108911,NA,NA,108906.74,108911,2023-11-28T15:59:55Z,108923.08,NULL,Körper,kiwiliwili,s,mapambano,mpatanishi,kiolezo,NA,sdf,NA,0,NA,NA,NA,NA,NA,NA,NA,NA,NA,NA,NA,NA,NA,NA,NA,NA,NA,NA,NA
4f714,Shallow Question,html.Page,3_0_0_0_1_1_0,NA,NA,form submission,6983.92,108911,108906.74,108923.08,115907,115907,2023-11-28T16:00:02Z,115906.4,NULL,Körper,kiwiliwili,s,mapambano,mpatanishi,kiolezo,kiwiliwili,NA,NA,0,NA,NA,NA,NA,NA,NA,NA,NA,NA,NA,NA,NA,NA,NA,NA,NA,NA,NA,NA
4f714,"""Richtig""-Screen",canvas.Screen,3_0_0_0_1_1_1,NA,NA,timeout,4998.5,115910,115906.04,115906.4,120888.5,120890,2023-11-28T16:00:07Z,120904.9,NULL,Körper,kiwiliwili,s,mapambano,mpatanishi,kiolezo,NA,sdf,1,0,NA,NA,NA,NA,NA,NA,NA,NA,NA,NA,NA,NA,NA,NA,NA,NA,NA,NA,NA
4f714,"""Falsch""-Screen",canvas.Screen,3_0_0_0_1_1_2,NA,NA,skipped,NA,120893,NA,NA,120888.5,120894,2023-11-28T16:00:07Z,120904.9,NULL,Körper,kiwiliwili,s,mapambano,mpatanishi,kiolezo,NA,sdf,NA,0,NA,NA,NA,NA,NA,NA,NA,NA,NA,NA,NA,NA,NA,NA,NA,NA,NA,NA,NA
4f714,shallow,flow.Sequence,3_0_0_0_1_1,NA,NA,completion,11965.42,108911,108906.74,108923.08,120888.5,120894,2023-11-28T16:00:07Z,120904.9,NULL,Körper,kiwiliwili,s,mapambano,mpatanishi,kiolezo,NA,sdf,NA,0,NA,NA,NA,NA,NA,NA,NA,NA,NA,NA,NA,NA,NA,NA,NA,NA,NA,NA,NA
4f714,task,flow.Sequence,3_0_0_0_1,NA,NA,completion,11965.42,108910,108906.74,108923.08,120888.5,120895,2023-11-28T16:00:07Z,120904.9,NULL,Körper,kiwiliwili,s,mapambano,mpatanishi,kiolezo,NA,sdf,NA,0,NA,NA,NA,NA,NA,NA,NA,NA,NA,NA,NA,NA,NA,NA,NA,NA,NA,NA,NA
4f714,Deep Question,html.Page,3_0_0_0_2_0_0,NA,NA,form submission,3113.1,120895,120888.5,120904.9,124018,124018,2023-11-28T16:00:10Z,124021.1,NULL,Konkurrent,mshindani,d,NA,NA,NA,kk,NA,NA,0,NA,NA,NA,NA,NA,NA,NA,NA,NA,NA,NA,NA,NA,NA,NA,NA,NA,NA,NA
4f714,"""Richtig""-Screen",canvas.Screen,3_0_0_0_2_0_1,NA,NA,skipped,NA,124020,NA,NA,124018,124020,2023-11-28T16:00:10Z,124021.1,NULL,Konkurrent,mshindani,d,NA,NA,NA,NA,sdf,NA,0,NA,NA,NA,NA,NA,NA,NA,NA,NA,NA,NA,NA,NA,NA,NA,NA,NA,NA,NA
4f714,"""Falsch""-Screen",canvas.Screen,3_0_0_0_2_0_2,NA,NA,timeout,4999.5,124024,124016.72,124021.1,129004.1,129006,2023-11-28T16:00:15Z,129020.6,NULL,Konkurrent,mshindani,d,NA,NA,NA,NA,sdf,0,0,NA,NA,NA,NA,NA,NA,NA,NA,NA,NA,NA,NA,NA,NA,NA,NA,NA,NA,NA
4f714,deep,flow.Sequence,3_0_0_0_2_0,NA,NA,completion,8099.2,120895,120888.5,120904.9,129004.1,129007,2023-11-28T16:00:15Z,129020.6,NULL,Konkurrent,mshindani,d,NA,NA,NA,NA,sdf,NA,0,NA,NA,NA,NA,NA,NA,NA,NA,NA,NA,NA,NA,NA,NA,NA,NA,NA,NA,NA
4f714,shallow,flow.Sequence,3_0_0_0_2_1,NA,NA,skipped,NA,129007,NA,NA,129004.1,129008,2023-11-28T16:00:15Z,129020.6,NULL,Konkurrent,mshindani,d,NA,NA,NA,NA,sdf,NA,0,NA,NA,NA,NA,NA,NA,NA,NA,NA,NA,NA,NA,NA,NA,NA,NA,NA,NA,NA
4f714,task,flow.Sequence,3_0_0_0_2,NA,NA,completion,8099.2,120895,120888.5,120904.9,129004.1,129008,2023-11-28T16:00:15Z,129020.6,NULL,Konkurrent,mshindani,d,NA,NA,NA,NA,sdf,NA,0,NA,NA,NA,NA,NA,NA,NA,NA,NA,NA,NA,NA,NA,NA,NA,NA,NA,NA,NA
4f714,deep,flow.Sequence,3_0_0_0_3_0,NA,NA,skipped,NA,129008,NA,NA,129004.1,129008,2023-11-28T16:00:15Z,129020.6,NULL,Symbol,kielezo,s,kinyume,nderemo,utayari,NA,sdf,NA,0,NA,NA,NA,NA,NA,NA,NA,NA,NA,NA,NA,NA,NA,NA,NA,NA,NA,NA,NA
4f714,Shallow Question,html.Page,3_0_0_0_3_1_0,NA,NA,form submission,8275.4,129009,129004.1,129020.6,137296,137297,2023-11-28T16:00:23Z,137302.86,NULL,Symbol,kielezo,s,kinyume,nderemo,utayari,utayari,NA,NA,0,NA,NA,NA,NA,NA,NA,NA,NA,NA,NA,NA,NA,NA,NA,NA,NA,NA,NA,NA
4f714,"""Richtig""-Screen",canvas.Screen,3_0_0_0_3_1_1,NA,NA,skipped,NA,137299,NA,NA,137296,137299,2023-11-28T16:00:23Z,137302.86,NULL,Symbol,kielezo,s,kinyume,nderemo,utayari,NA,sdf,NA,0,NA,NA,NA,NA,NA,NA,NA,NA,NA,NA,NA,NA,NA,NA,NA,NA,NA,NA,NA
4f714,"""Falsch""-Screen",canvas.Screen,3_0_0_0_3_1_2,NA,NA,timeout,4999.34,137302,137295.02,137302.86,142285.52,142287,2023-11-28T16:00:28Z,142302.2,NULL,Symbol,kielezo,s,kinyume,nderemo,utayari,NA,sdf,0,0,NA,NA,NA,NA,NA,NA,NA,NA,NA,NA,NA,NA,NA,NA,NA,NA,NA,NA,NA
4f714,shallow,flow.Sequence,3_0_0_0_3_1,NA,NA,completion,13264.92,129009,129004.1,129020.6,142285.52,142287,2023-11-28T16:00:28Z,142302.2,NULL,Symbol,kielezo,s,kinyume,nderemo,utayari,NA,sdf,NA,0,NA,NA,NA,NA,NA,NA,NA,NA,NA,NA,NA,NA,NA,NA,NA,NA,NA,NA,NA
4f714,task,flow.Sequence,3_0_0_0_3,NA,NA,completion,13264.92,129008,129004.1,129020.6,142285.52,142287,2023-11-28T16:00:28Z,142302.2,NULL,Symbol,kielezo,s,kinyume,nderemo,utayari,NA,sdf,NA,0,NA,NA,NA,NA,NA,NA,NA,NA,NA,NA,NA,NA,NA,NA,NA,NA,NA,NA,NA
4f714,Deep Question,html.Page,3_0_0_0_4_0_0,NA,NA,form submission,2281.8,142288,142285.52,142302.2,144584,144584,2023-11-28T16:00:30Z,144585.18,NULL,Lawine,banguko,d,NA,NA,NA,k,NA,NA,0,NA,NA,NA,NA,NA,NA,NA,NA,NA,NA,NA,NA,NA,NA,NA,NA,NA,NA,NA
4f714,"""Richtig""-Screen",canvas.Screen,3_0_0_0_4_0_1,NA,NA,skipped,NA,144587,NA,NA,144584,144587,2023-11-28T16:00:30Z,144585.18,NULL,Lawine,banguko,d,NA,NA,NA,NA,sdf,NA,0,NA,NA,NA,NA,NA,NA,NA,NA,NA,NA,NA,NA,NA,NA,NA,NA,NA,NA,NA
4f714,"""Falsch""-Screen",canvas.Screen,3_0_0_0_4_0_2,NA,NA,timeout,4999.42,144589,144582.44,144585.18,149568.26,149570,2023-11-28T16:00:35Z,149584.6,NULL,Lawine,banguko,d,NA,NA,NA,NA,sdf,0,0,NA,NA,NA,NA,NA,NA,NA,NA,NA,NA,NA,NA,NA,NA,NA,NA,NA,NA,NA
4f714,deep,flow.Sequence,3_0_0_0_4_0,NA,NA,completion,7266.06,142288,142285.52,142302.2,149568.26,149570,2023-11-28T16:00:35Z,149584.6,NULL,Lawine,banguko,d,NA,NA,NA,NA,sdf,NA,0,NA,NA,NA,NA,NA,NA,NA,NA,NA,NA,NA,NA,NA,NA,NA,NA,NA,NA,NA
4f714,shallow,flow.Sequence,3_0_0_0_4_1,NA,NA,skipped,NA,149570,NA,NA,149568.26,149570,2023-11-28T16:00:35Z,149584.6,NULL,Lawine,banguko,d,NA,NA,NA,NA,sdf,NA,0,NA,NA,NA,NA,NA,NA,NA,NA,NA,NA,NA,NA,NA,NA,NA,NA,NA,NA,NA
4f714,task,flow.Sequence,3_0_0_0_4,NA,NA,completion,7266.06,142288,142285.52,142302.2,149568.26,149570,2023-11-28T16:00:35Z,149584.6,NULL,Lawine,banguko,d,NA,NA,NA,NA,sdf,NA,0,NA,NA,NA,NA,NA,NA,NA,NA,NA,NA,NA,NA,NA,NA,NA,NA,NA,NA,NA
4f714,deep,flow.Sequence,3_0_0_0_5_0,NA,NA,skipped,NA,149571,NA,NA,149568.26,149571,2023-11-28T16:00:35Z,149584.6,NULL,Übersicht,kilindo,s,mgusano,chipukizi,kulinganisha,NA,sdf,NA,0,NA,NA,NA,NA,NA,NA,NA,NA,NA,NA,NA,NA,NA,NA,NA,NA,NA,NA,NA
4f714,Shallow Question,html.Page,3_0_0_0_5_1_0,NA,NA,form submission,6135.4,149571,149568.26,149584.6,155720,155720,2023-11-28T16:00:42Z,155718.58,NULL,Übersicht,kilindo,s,mgusano,chipukizi,kulinganisha,chipukizi,NA,NA,0,NA,NA,NA,NA,NA,NA,NA,NA,NA,NA,NA,NA,NA,NA,NA,NA,NA,NA,NA
4f714,"""Richtig""-Screen",canvas.Screen,3_0_0_0_5_1_1,NA,NA,skipped,NA,155722,NA,NA,155720,155722,2023-11-28T16:00:42Z,155718.58,NULL,Übersicht,kilindo,s,mgusano,chipukizi,kulinganisha,NA,sdf,NA,0,NA,NA,NA,NA,NA,NA,NA,NA,NA,NA,NA,NA,NA,NA,NA,NA,NA,NA,NA
4f714,"""Falsch""-Screen",canvas.Screen,3_0_0_0_5_1_2,NA,NA,timeout,4997.94,155725,155718.16,155718.58,160700.34,160701,2023-11-28T16:00:46Z,160716.52,NULL,Übersicht,kilindo,s,mgusano,chipukizi,kulinganisha,NA,sdf,0,0,NA,NA,NA,NA,NA,NA,NA,NA,NA,NA,NA,NA,NA,NA,NA,NA,NA,NA,NA
4f714,shallow,flow.Sequence,3_0_0_0_5_1,NA,NA,completion,11115.74,149571,149568.26,149584.6,160700.34,160702,2023-11-28T16:00:46Z,160716.52,NULL,Übersicht,kilindo,s,mgusano,chipukizi,kulinganisha,NA,sdf,NA,0,NA,NA,NA,NA,NA,NA,NA,NA,NA,NA,NA,NA,NA,NA,NA,NA,NA,NA,NA
4f714,task,flow.Sequence,3_0_0_0_5,NA,NA,completion,11115.74,149570,149568.26,149584.6,160700.34,160703,2023-11-28T16:00:46Z,160716.52,NULL,Übersicht,kilindo,s,mgusano,chipukizi,kulinganisha,NA,sdf,NA,0,NA,NA,NA,NA,NA,NA,NA,NA,NA,NA,NA,NA,NA,NA,NA,NA,NA,NA,NA
4f714,Deep Question,html.Page,3_0_0_0_6_0_0,NA,NA,form submission,2435.48,160703,160700.34,160716.52,163152,163153,2023-11-28T16:00:49Z,163149.48,NULL,System,maongozi,d,NA,NA,NA,a,NA,NA,0,NA,NA,NA,NA,NA,NA,NA,NA,NA,NA,NA,NA,NA,NA,NA,NA,NA,NA,NA
4f714,"""Richtig""-Screen",canvas.Screen,3_0_0_0_6_0_1,NA,NA,skipped,NA,163155,NA,NA,163152,163155,2023-11-28T16:00:49Z,163149.48,NULL,System,maongozi,d,NA,NA,NA,NA,sdf,NA,0,NA,NA,NA,NA,NA,NA,NA,NA,NA,NA,NA,NA,NA,NA,NA,NA,NA,NA,NA
4f714,"""Falsch""-Screen",canvas.Screen,3_0_0_0_6_0_2,NA,NA,timeout,4999.46,163157,163149.48,163149.48,168132.6,168134,2023-11-28T16:00:54Z,168148.94,NULL,System,maongozi,d,NA,NA,NA,NA,sdf,0,0,NA,NA,NA,NA,NA,NA,NA,NA,NA,NA,NA,NA,NA,NA,NA,NA,NA,NA,NA
4f714,deep,flow.Sequence,3_0_0_0_6_0,NA,NA,completion,7416.08,160703,160700.34,160716.52,168132.6,168134,2023-11-28T16:00:54Z,168148.94,NULL,System,maongozi,d,NA,NA,NA,NA,sdf,NA,0,NA,NA,NA,NA,NA,NA,NA,NA,NA,NA,NA,NA,NA,NA,NA,NA,NA,NA,NA
4f714,shallow,flow.Sequence,3_0_0_0_6_1,NA,NA,skipped,NA,168134,NA,NA,168132.6,168134,2023-11-28T16:00:54Z,168148.94,NULL,System,maongozi,d,NA,NA,NA,NA,sdf,NA,0,NA,NA,NA,NA,NA,NA,NA,NA,NA,NA,NA,NA,NA,NA,NA,NA,NA,NA,NA
4f714,task,flow.Sequence,3_0_0_0_6,NA,NA,completion,7416.08,160703,160700.34,160716.52,168132.6,168135,2023-11-28T16:00:54Z,168148.94,NULL,System,maongozi,d,NA,NA,NA,NA,sdf,NA,0,NA,NA,NA,NA,NA,NA,NA,NA,NA,NA,NA,NA,NA,NA,NA,NA,NA,NA,NA
4f714,deep,flow.Sequence,3_0_0_0_7_0,NA,NA,skipped,NA,168135,NA,NA,168132.6,168135,2023-11-28T16:00:54Z,168148.94,NULL,Zuwachs,nyongeza,s,matilaba,udhibiti,hudhurio,NA,sdf,NA,0,NA,NA,NA,NA,NA,NA,NA,NA,NA,NA,NA,NA,NA,NA,NA,NA,NA,NA,NA
4f714,Shallow Question,html.Page,3_0_0_0_7_1_0,NA,NA,form submission,3473.06,168135,168132.6,168148.94,171622,171622,2023-11-28T16:00:57Z,171621.52,NULL,Zuwachs,nyongeza,s,matilaba,udhibiti,hudhurio,udhibiti,NA,NA,0,NA,NA,NA,NA,NA,NA,NA,NA,NA,NA,NA,NA,NA,NA,NA,NA,NA,NA,NA
4f714,"""Richtig""-Screen",canvas.Screen,3_0_0_0_7_1_1,NA,NA,skipped,NA,171625,NA,NA,171622,171625,2023-11-28T16:00:57Z,171621.52,NULL,Zuwachs,nyongeza,s,matilaba,udhibiti,hudhurio,NA,sdf,NA,0,NA,NA,NA,NA,NA,NA,NA,NA,NA,NA,NA,NA,NA,NA,NA,NA,NA,NA,NA
4f714,"""Falsch""-Screen",canvas.Screen,3_0_0_0_7_1_2,NA,NA,timeout,4992.94,171628,171621.2,171621.52,176598.24,176603,2023-11-28T16:01:02Z,176614.46,NULL,Zuwachs,nyongeza,s,matilaba,udhibiti,hudhurio,NA,sdf,0,0,NA,NA,NA,NA,NA,NA,NA,NA,NA,NA,NA,NA,NA,NA,NA,NA,NA,NA,NA
4f714,shallow,flow.Sequence,3_0_0_0_7_1,NA,NA,completion,8449.3,168135,168132.6,168148.94,176598.24,176606,2023-11-28T16:01:02Z,176614.46,NULL,Zuwachs,nyongeza,s,matilaba,udhibiti,hudhurio,NA,sdf,NA,0,NA,NA,NA,NA,NA,NA,NA,NA,NA,NA,NA,NA,NA,NA,NA,NA,NA,NA,NA
4f714,task,flow.Sequence,3_0_0_0_7,NA,NA,completion,8449.3,168135,168132.6,168148.94,176598.24,176607,2023-11-28T16:01:02Z,176614.46,NULL,Zuwachs,nyongeza,s,matilaba,udhibiti,hudhurio,NA,sdf,NA,0,NA,NA,NA,NA,NA,NA,NA,NA,NA,NA,NA,NA,NA,NA,NA,NA,NA,NA,NA
4f714,block,flow.Loop,3_0_0_0,NA,NA,completion,88726.4,87872,87871.54,87871.84,176598.24,176608,2023-11-28T16:01:02Z,176614.46,NULL,NA,NA,NA,NA,NA,NA,NA,sdf,NA,0,NA,NA,NA,NA,NA,NA,NA,NA,NA,NA,NA,NA,NA,NA,NA,NA,NA,NA,NA
4f714,weiter,canvas.Screen,3_0_0_1,sdf,keypress(Space),response,1297.54,176608,176598.24,176614.46,177912,177929,2023-11-28T16:01:04Z,177993.72,NULL,NA,NA,NA,NA,NA,NA,NA,sdf,NA,0,NA,NA,NA,NA,NA,NA,NA,NA,NA,NA,NA,NA,NA,NA,NA,NA,NA,NA,NA
4f714,check continue,flow.Sequence,3_0_0,NA,NA,completion,90040.16,87872,87871.54,87871.84,177912,177930,2023-11-28T16:01:04Z,177993.72,NULL,NA,NA,NA,NA,NA,NA,NA,sdf,NA,0,NA,NA,NA,NA,NA,NA,NA,NA,NA,NA,NA,NA,NA,NA,NA,NA,NA,NA,NA
4f714,Deep Question,html.Page,3_0_1_0_0_0_0,NA,NA,form submission,6071.28,177993,177993.24,177993.72,184065,184066,2023-11-28T16:01:10Z,184080.1,NULL,Lawine,banguko,d,NA,NA,NA,kindali,NA,NA,1,NA,NA,NA,NA,NA,NA,NA,NA,NA,NA,NA,NA,NA,NA,NA,NA,NA,NA,NA
4f714,"""Richtig""-Screen",canvas.Screen,3_0_1_0_0_0_1,NA,NA,skipped,NA,184069,NA,NA,184065,184069,2023-11-28T16:01:10Z,184080.1,NULL,Lawine,banguko,d,NA,NA,NA,NA,sdfdsf,NA,1,NA,NA,NA,NA,NA,NA,NA,NA,NA,NA,NA,NA,NA,NA,NA,NA,NA,NA,NA
4f714,"""Falsch""-Screen",canvas.Screen,3_0_1_0_0_0_2,NA,NA,timeout,4999.38,184071,184064.28,184080.1,189062.9,189064,2023-11-28T16:01:15Z,189079.48,NULL,Lawine,banguko,d,NA,NA,NA,NA,sdfdsf,0,1,NA,NA,NA,NA,NA,NA,NA,NA,NA,NA,NA,NA,NA,NA,NA,NA,NA,NA,NA
4f714,deep,flow.Sequence,3_0_1_0_0_0,NA,NA,completion,11069.18,177993,177993.24,177993.72,189062.9,189064,2023-11-28T16:01:15Z,189079.48,NULL,Lawine,banguko,d,NA,NA,NA,NA,sdfdsf,NA,1,NA,NA,NA,NA,NA,NA,NA,NA,NA,NA,NA,NA,NA,NA,NA,NA,NA,NA,NA
4f714,shallow,flow.Sequence,3_0_1_0_0_1,NA,NA,skipped,NA,189064,NA,NA,189062.9,189065,2023-11-28T16:01:15Z,189079.48,NULL,Lawine,banguko,d,NA,NA,NA,NA,sdfdsf,NA,1,NA,NA,NA,NA,NA,NA,NA,NA,NA,NA,NA,NA,NA,NA,NA,NA,NA,NA,NA
4f714,task,flow.Sequence,3_0_1_0_0,NA,NA,completion,11069.18,177993,177993.24,177993.72,189062.9,189066,2023-11-28T16:01:15Z,189079.48,NULL,Lawine,banguko,d,NA,NA,NA,NA,sdfdsf,NA,1,NA,NA,NA,NA,NA,NA,NA,NA,NA,NA,NA,NA,NA,NA,NA,NA,NA,NA,NA
4f714,deep,flow.Sequence,3_0_1_0_1_0,NA,NA,skipped,NA,189066,NA,NA,189062.9,189066,2023-11-28T16:01:15Z,189079.48,NULL,Zuwachs,nyongeza,s,matilaba,udhibiti,hudhurio,NA,sdfdsf,NA,1,NA,NA,NA,NA,NA,NA,NA,NA,NA,NA,NA,NA,NA,NA,NA,NA,NA,NA,NA
4f714,Shallow Question,html.Page,3_0_1_0_1_1_0,NA,NA,form submission,7897.52,189066,189062.9,189079.48,196977,196977,2023-11-28T16:01:23Z,196978.5,NULL,Zuwachs,nyongeza,s,matilaba,udhibiti,hudhurio,nyongeza,NA,NA,1,NA,NA,NA,NA,NA,NA,NA,NA,NA,NA,NA,NA,NA,NA,NA,NA,NA,NA,NA
4f714,"""Richtig""-Screen",canvas.Screen,3_0_1_0_1_1_1,NA,NA,timeout,4999.34,196980,196975.7,196978.5,201961.58,201963,2023-11-28T16:01:28Z,201977.84,NULL,Zuwachs,nyongeza,s,matilaba,udhibiti,hudhurio,NA,sdfdsf,1,1,NA,NA,NA,NA,NA,NA,NA,NA,NA,NA,NA,NA,NA,NA,NA,NA,NA,NA,NA
4f714,"""Falsch""-Screen",canvas.Screen,3_0_1_0_1_1_2,NA,NA,skipped,NA,201969,NA,NA,201961.58,201970,2023-11-28T16:01:28Z,201977.84,NULL,Zuwachs,nyongeza,s,matilaba,udhibiti,hudhurio,NA,sdfdsf,NA,1,NA,NA,NA,NA,NA,NA,NA,NA,NA,NA,NA,NA,NA,NA,NA,NA,NA,NA,NA
4f714,shallow,flow.Sequence,3_0_1_0_1_1,NA,NA,completion,12882.1,189066,189062.9,189079.48,201961.58,201970,2023-11-28T16:01:28Z,201977.84,NULL,Zuwachs,nyongeza,s,matilaba,udhibiti,hudhurio,NA,sdfdsf,NA,1,NA,NA,NA,NA,NA,NA,NA,NA,NA,NA,NA,NA,NA,NA,NA,NA,NA,NA,NA
4f714,task,flow.Sequence,3_0_1_0_1,NA,NA,completion,12882.1,189066,189062.9,189079.48,201961.58,201970,2023-11-28T16:01:28Z,201977.84,NULL,Zuwachs,nyongeza,s,matilaba,udhibiti,hudhurio,NA,sdfdsf,NA,1,NA,NA,NA,NA,NA,NA,NA,NA,NA,NA,NA,NA,NA,NA,NA,NA,NA,NA,NA
4f714,Deep Question,html.Page,3_0_1_0_2_0_0,NA,NA,form submission,6110.16,201971,201961.58,201977.84,208088,208089,2023-11-28T16:01:34Z,208093.74,NULL,Konkurrent,mshindani,d,NA,NA,NA,mshidua,NA,NA,1,NA,NA,NA,NA,NA,NA,NA,NA,NA,NA,NA,NA,NA,NA,NA,NA,NA,NA,NA
4f714,"""Richtig""-Screen",canvas.Screen,3_0_1_0_2_0_1,NA,NA,skipped,NA,208091,NA,NA,208088,208091,2023-11-28T16:01:34Z,208093.74,NULL,Konkurrent,mshindani,d,NA,NA,NA,NA,sdfdsf,NA,1,NA,NA,NA,NA,NA,NA,NA,NA,NA,NA,NA,NA,NA,NA,NA,NA,NA,NA,NA
4f714,"""Falsch""-Screen",canvas.Screen,3_0_1_0_2_0_2,NA,NA,timeout,4999.44,208093,208093.74,208093.74,213076.5,213077,2023-11-28T16:01:39Z,213093.18,NULL,Konkurrent,mshindani,d,NA,NA,NA,NA,sdfdsf,0,1,NA,NA,NA,NA,NA,NA,NA,NA,NA,NA,NA,NA,NA,NA,NA,NA,NA,NA,NA
4f714,deep,flow.Sequence,3_0_1_0_2_0,NA,NA,completion,11098.66,201971,201961.58,201977.84,213076.5,213077,2023-11-28T16:01:39Z,213093.18,NULL,Konkurrent,mshindani,d,NA,NA,NA,NA,sdfdsf,NA,1,NA,NA,NA,NA,NA,NA,NA,NA,NA,NA,NA,NA,NA,NA,NA,NA,NA,NA,NA
4f714,shallow,flow.Sequence,3_0_1_0_2_1,NA,NA,skipped,NA,213078,NA,NA,213076.5,213078,2023-11-28T16:01:39Z,213093.18,NULL,Konkurrent,mshindani,d,NA,NA,NA,NA,sdfdsf,NA,1,NA,NA,NA,NA,NA,NA,NA,NA,NA,NA,NA,NA,NA,NA,NA,NA,NA,NA,NA
4f714,task,flow.Sequence,3_0_1_0_2,NA,NA,completion,11098.66,201971,201961.58,201977.84,213076.5,213078,2023-11-28T16:01:39Z,213093.18,NULL,Konkurrent,mshindani,d,NA,NA,NA,NA,sdfdsf,NA,1,NA,NA,NA,NA,NA,NA,NA,NA,NA,NA,NA,NA,NA,NA,NA,NA,NA,NA,NA
4f714,deep,flow.Sequence,3_0_1_0_3_0,NA,NA,skipped,NA,213078,NA,NA,213076.5,213079,2023-11-28T16:01:39Z,213093.18,NULL,Symbol,kielezo,s,kinyume,nderemo,utayari,NA,sdfdsf,NA,1,NA,NA,NA,NA,NA,NA,NA,NA,NA,NA,NA,NA,NA,NA,NA,NA,NA,NA,NA
4f714,Shallow Question,html.Page,3_0_1_0_3_1_0,NA,NA,form submission,8056.82,213079,213076.5,213093.18,221150,221150,2023-11-28T16:01:47Z,221149.36,NULL,Symbol,kielezo,s,kinyume,nderemo,utayari,kielezo,NA,NA,1,NA,NA,NA,NA,NA,NA,NA,NA,NA,NA,NA,NA,NA,NA,NA,NA,NA,NA,NA
4f714,"""Richtig""-Screen",canvas.Screen,3_0_1_0_3_1_1,NA,NA,timeout,4992.12,221153,221149.02,221149.36,226124.86,226126,2023-11-28T16:01:52Z,226141.48,NULL,Symbol,kielezo,s,kinyume,nderemo,utayari,NA,sdfdsf,1,1,NA,NA,NA,NA,NA,NA,NA,NA,NA,NA,NA,NA,NA,NA,NA,NA,NA,NA,NA
4f714,"""Falsch""-Screen",canvas.Screen,3_0_1_0_3_1_2,NA,NA,skipped,NA,226132,NA,NA,226124.86,226132,2023-11-28T16:01:52Z,226141.48,NULL,Symbol,kielezo,s,kinyume,nderemo,utayari,NA,sdfdsf,NA,1,NA,NA,NA,NA,NA,NA,NA,NA,NA,NA,NA,NA,NA,NA,NA,NA,NA,NA,NA
4f714,shallow,flow.Sequence,3_0_1_0_3_1,NA,NA,completion,13031.68,213079,213076.5,213093.18,226124.86,226133,2023-11-28T16:01:52Z,226141.48,NULL,Symbol,kielezo,s,kinyume,nderemo,utayari,NA,sdfdsf,NA,1,NA,NA,NA,NA,NA,NA,NA,NA,NA,NA,NA,NA,NA,NA,NA,NA,NA,NA,NA
4f714,task,flow.Sequence,3_0_1_0_3,NA,NA,completion,13031.68,213078,213076.5,213093.18,226124.86,226133,2023-11-28T16:01:52Z,226141.48,NULL,Symbol,kielezo,s,kinyume,nderemo,utayari,NA,sdfdsf,NA,1,NA,NA,NA,NA,NA,NA,NA,NA,NA,NA,NA,NA,NA,NA,NA,NA,NA,NA,NA
4f714,Deep Question,html.Page,3_0_1_0_4_0_0,NA,NA,form submission,5054.52,226133,226124.86,226141.48,231196,231196,2023-11-28T16:01:57Z,231195.38,NULL,Vorsorge,tahadhari,d,NA,NA,NA,tahadhai,NA,NA,1,NA,NA,NA,NA,NA,NA,NA,NA,NA,NA,NA,NA,NA,NA,NA,NA,NA,NA,NA
4f714,"""Richtig""-Screen",canvas.Screen,3_0_1_0_4_0_1,NA,NA,skipped,NA,231199,NA,NA,231196,231199,2023-11-28T16:01:57Z,231195.38,NULL,Vorsorge,tahadhari,d,NA,NA,NA,NA,sdfdsf,NA,1,NA,NA,NA,NA,NA,NA,NA,NA,NA,NA,NA,NA,NA,NA,NA,NA,NA,NA,NA
4f714,"""Falsch""-Screen",canvas.Screen,3_0_1_0_4_0_2,NA,NA,timeout,4994.76,231201,231195.06,231195.38,236173.6,236176,2023-11-28T16:02:02Z,236190.14,NULL,Vorsorge,tahadhari,d,NA,NA,NA,NA,sdfdsf,0,1,NA,NA,NA,NA,NA,NA,NA,NA,NA,NA,NA,NA,NA,NA,NA,NA,NA,NA,NA
4f714,deep,flow.Sequence,3_0_1_0_4_0,NA,NA,completion,10032.12,226133,226124.86,226141.48,236173.6,236178,2023-11-28T16:02:02Z,236190.14,NULL,Vorsorge,tahadhari,d,NA,NA,NA,NA,sdfdsf,NA,1,NA,NA,NA,NA,NA,NA,NA,NA,NA,NA,NA,NA,NA,NA,NA,NA,NA,NA,NA
4f714,shallow,flow.Sequence,3_0_1_0_4_1,NA,NA,skipped,NA,236178,NA,NA,236173.6,236178,2023-11-28T16:02:02Z,236190.14,NULL,Vorsorge,tahadhari,d,NA,NA,NA,NA,sdfdsf,NA,1,NA,NA,NA,NA,NA,NA,NA,NA,NA,NA,NA,NA,NA,NA,NA,NA,NA,NA,NA
4f714,task,flow.Sequence,3_0_1_0_4,NA,NA,completion,10032.12,226133,226124.86,226141.48,236173.6,236179,2023-11-28T16:02:02Z,236190.14,NULL,Vorsorge,tahadhari,d,NA,NA,NA,NA,sdfdsf,NA,1,NA,NA,NA,NA,NA,NA,NA,NA,NA,NA,NA,NA,NA,NA,NA,NA,NA,NA,NA
4f714,deep,flow.Sequence,3_0_1_0_5_0,NA,NA,skipped,NA,236180,NA,NA,236173.6,236181,2023-11-28T16:02:02Z,236190.14,NULL,Übersicht,kilindo,s,mgusano,chipukizi,kulinganisha,NA,sdfdsf,NA,1,NA,NA,NA,NA,NA,NA,NA,NA,NA,NA,NA,NA,NA,NA,NA,NA,NA,NA,NA
4f714,Shallow Question,html.Page,3_0_1_0_5_1_0,NA,NA,form submission,8865.86,236181,236173.6,236190.14,245056,245057,2023-11-28T16:02:11Z,245056.84,NULL,Übersicht,kilindo,s,mgusano,chipukizi,kulinganisha,kilindo,NA,NA,1,NA,NA,NA,NA,NA,NA,NA,NA,NA,NA,NA,NA,NA,NA,NA,NA,NA,NA,NA
4f714,"""Richtig""-Screen",canvas.Screen,3_0_1_0_5_1_1,NA,NA,timeout,4998.22,245064,245054.8,245056.84,250038.44,250040,2023-11-28T16:02:16Z,250055.06,NULL,Übersicht,kilindo,s,mgusano,chipukizi,kulinganisha,NA,sdfdsf,1,1,NA,NA,NA,NA,NA,NA,NA,NA,NA,NA,NA,NA,NA,NA,NA,NA,NA,NA,NA
4f714,"""Falsch""-Screen",canvas.Screen,3_0_1_0_5_1_2,NA,NA,skipped,NA,250047,NA,NA,250038.44,250048,2023-11-28T16:02:16Z,250055.06,NULL,Übersicht,kilindo,s,mgusano,chipukizi,kulinganisha,NA,sdfdsf,NA,1,NA,NA,NA,NA,NA,NA,NA,NA,NA,NA,NA,NA,NA,NA,NA,NA,NA,NA,NA
4f714,shallow,flow.Sequence,3_0_1_0_5_1,NA,NA,completion,13848.3,236181,236173.6,236190.14,250038.44,250049,2023-11-28T16:02:16Z,250055.06,NULL,Übersicht,kilindo,s,mgusano,chipukizi,kulinganisha,NA,sdfdsf,NA,1,NA,NA,NA,NA,NA,NA,NA,NA,NA,NA,NA,NA,NA,NA,NA,NA,NA,NA,NA
4f714,task,flow.Sequence,3_0_1_0_5,NA,NA,completion,13848.3,236179,236173.6,236190.14,250038.44,250049,2023-11-28T16:02:16Z,250055.06,NULL,Übersicht,kilindo,s,mgusano,chipukizi,kulinganisha,NA,sdfdsf,NA,1,NA,NA,NA,NA,NA,NA,NA,NA,NA,NA,NA,NA,NA,NA,NA,NA,NA,NA,NA
4f714,deep,flow.Sequence,3_0_1_0_6_0,NA,NA,skipped,NA,250050,NA,NA,250038.44,250051,2023-11-28T16:02:16Z,250055.06,NULL,Körper,kiwiliwili,s,mapambano,mpatanishi,kiolezo,NA,sdfdsf,NA,1,NA,NA,NA,NA,NA,NA,NA,NA,NA,NA,NA,NA,NA,NA,NA,NA,NA,NA,NA
4f714,Shallow Question,html.Page,3_0_1_0_6_1_0,NA,NA,form submission,3424.94,250052,250038.44,250055.06,253480,253481,2023-11-28T16:02:19Z,253480.06,NULL,Körper,kiwiliwili,s,mapambano,mpatanishi,kiolezo,kiwiliwili,NA,NA,1,NA,NA,NA,NA,NA,NA,NA,NA,NA,NA,NA,NA,NA,NA,NA,NA,NA,NA,NA
4f714,"""Richtig""-Screen",canvas.Screen,3_0_1_0_6_1_1,NA,NA,timeout,5007.26,253484,253479.74,253480.06,258471.04,258472,2023-11-28T16:02:24Z,258487.32,NULL,Körper,kiwiliwili,s,mapambano,mpatanishi,kiolezo,NA,sdfdsf,1,1,NA,NA,NA,NA,NA,NA,NA,NA,NA,NA,NA,NA,NA,NA,NA,NA,NA,NA,NA
4f714,"""Falsch""-Screen",canvas.Screen,3_0_1_0_6_1_2,NA,NA,skipped,NA,258479,NA,NA,258471.04,258479,2023-11-28T16:02:24Z,258487.32,NULL,Körper,kiwiliwili,s,mapambano,mpatanishi,kiolezo,NA,sdfdsf,NA,1,NA,NA,NA,NA,NA,NA,NA,NA,NA,NA,NA,NA,NA,NA,NA,NA,NA,NA,NA
4f714,shallow,flow.Sequence,3_0_1_0_6_1,NA,NA,completion,8415.98,250051,250038.44,250055.06,258471.04,258480,2023-11-28T16:02:24Z,258487.32,NULL,Körper,kiwiliwili,s,mapambano,mpatanishi,kiolezo,NA,sdfdsf,NA,1,NA,NA,NA,NA,NA,NA,NA,NA,NA,NA,NA,NA,NA,NA,NA,NA,NA,NA,NA
4f714,task,flow.Sequence,3_0_1_0_6,NA,NA,completion,8415.98,250050,250038.44,250055.06,258471.04,258480,2023-11-28T16:02:24Z,258487.32,NULL,Körper,kiwiliwili,s,mapambano,mpatanishi,kiolezo,NA,sdfdsf,NA,1,NA,NA,NA,NA,NA,NA,NA,NA,NA,NA,NA,NA,NA,NA,NA,NA,NA,NA,NA
4f714,Deep Question,html.Page,3_0_1_0_7_0_0,NA,NA,form submission,4400.68,258482,258471.04,258487.32,262888,262888,2023-11-28T16:02:29Z,262886.78,NULL,System,maongozi,d,NA,NA,NA,j,NA,NA,1,NA,NA,NA,NA,NA,NA,NA,NA,NA,NA,NA,NA,NA,NA,NA,NA,NA,NA,NA
4f714,"""Richtig""-Screen",canvas.Screen,3_0_1_0_7_0_1,NA,NA,skipped,NA,262891,NA,NA,262888,262892,2023-11-28T16:02:29Z,262886.78,NULL,System,maongozi,d,NA,NA,NA,NA,sdfdsf,NA,1,NA,NA,NA,NA,NA,NA,NA,NA,NA,NA,NA,NA,NA,NA,NA,NA,NA,NA,NA
4f714,"""Falsch""-Screen",canvas.Screen,3_0_1_0_7_0_2,NA,NA,timeout,4999.3,262895,262886.52,262886.78,267869.54,267871,2023-11-28T16:02:34Z,267886.08,NULL,System,maongozi,d,NA,NA,NA,NA,sdfdsf,0,1,NA,NA,NA,NA,NA,NA,NA,NA,NA,NA,NA,NA,NA,NA,NA,NA,NA,NA,NA
4f714,deep,flow.Sequence,3_0_1_0_7_0,NA,NA,completion,9382.22,258482,258471.04,258487.32,267869.54,267871,2023-11-28T16:02:34Z,267886.08,NULL,System,maongozi,d,NA,NA,NA,NA,sdfdsf,NA,1,NA,NA,NA,NA,NA,NA,NA,NA,NA,NA,NA,NA,NA,NA,NA,NA,NA,NA,NA
4f714,shallow,flow.Sequence,3_0_1_0_7_1,NA,NA,skipped,NA,267871,NA,NA,267869.54,267872,2023-11-28T16:02:34Z,267886.08,NULL,System,maongozi,d,NA,NA,NA,NA,sdfdsf,NA,1,NA,NA,NA,NA,NA,NA,NA,NA,NA,NA,NA,NA,NA,NA,NA,NA,NA,NA,NA
4f714,task,flow.Sequence,3_0_1_0_7,NA,NA,completion,9382.22,258481,258471.04,258487.32,267869.54,267872,2023-11-28T16:02:34Z,267886.08,NULL,System,maongozi,d,NA,NA,NA,NA,sdfdsf,NA,1,NA,NA,NA,NA,NA,NA,NA,NA,NA,NA,NA,NA,NA,NA,NA,NA,NA,NA,NA
4f714,block,flow.Loop,3_0_1_0,NA,NA,completion,89875.82,177993,177993.24,177993.72,267869.54,267873,2023-11-28T16:02:34Z,267886.08,NULL,NA,NA,NA,NA,NA,NA,NA,sdfdsf,NA,1,NA,NA,NA,NA,NA,NA,NA,NA,NA,NA,NA,NA,NA,NA,NA,NA,NA,NA,NA
4f714,weiter,canvas.Screen,3_0_1_1,sdf,keypress(Space),response,931.91999999998,267873,267869.54,267886.08,268818,268830,2023-11-28T16:02:35Z,268897.72,NULL,NA,NA,NA,NA,NA,NA,NA,sdfdsf,NA,1,NA,NA,NA,NA,NA,NA,NA,NA,NA,NA,NA,NA,NA,NA,NA,NA,NA,NA,NA
4f714,check continue,flow.Sequence,3_0_1,NA,NA,completion,90824.28,177992,177993.24,177993.72,268818,268831,2023-11-28T16:02:35Z,268897.72,NULL,NA,NA,NA,NA,NA,NA,NA,sdfdsf,NA,1,NA,NA,NA,NA,NA,NA,NA,NA,NA,NA,NA,NA,NA,NA,NA,NA,NA,NA,NA
4f714,deep,flow.Sequence,3_0_2_0_0_0,NA,NA,skipped,NA,268897,NA,NA,268818,268897,2023-11-28T16:02:35Z,268897.72,NULL,Symbol,kielezo,s,kinyume,nderemo,utayari,NA,sdf,NA,2,NA,NA,NA,NA,NA,NA,NA,NA,NA,NA,NA,NA,NA,NA,NA,NA,NA,NA,NA
4f714,Shallow Question,html.Page,3_0_2_0_0_1_0,NA,NA,form submission,2160.28,268897,268897.4,268897.72,271058,271058,2023-11-28T16:02:37Z,271057.48,NULL,Symbol,kielezo,s,kinyume,nderemo,utayari,kielezo,NA,NA,2,NA,NA,NA,NA,NA,NA,NA,NA,NA,NA,NA,NA,NA,NA,NA,NA,NA,NA,NA
4f714,"""Richtig""-Screen",canvas.Screen,3_0_2_0_0_1_1,NA,NA,timeout,4994.32,271061,271057.12,271057.48,276035.14,276036,2023-11-28T16:02:42Z,276051.8,NULL,Symbol,kielezo,s,kinyume,nderemo,utayari,NA,sdf,1,2,NA,NA,NA,NA,NA,NA,NA,NA,NA,NA,NA,NA,NA,NA,NA,NA,NA,NA,NA
4f714,"""Falsch""-Screen",canvas.Screen,3_0_2_0_0_1_2,NA,NA,skipped,NA,276042,NA,NA,276035.14,276043,2023-11-28T16:02:42Z,276051.8,NULL,Symbol,kielezo,s,kinyume,nderemo,utayari,NA,sdf,NA,2,NA,NA,NA,NA,NA,NA,NA,NA,NA,NA,NA,NA,NA,NA,NA,NA,NA,NA,NA
4f714,shallow,flow.Sequence,3_0_2_0_0_1,NA,NA,completion,7137.42,268897,268897.4,268897.72,276035.14,276043,2023-11-28T16:02:42Z,276051.8,NULL,Symbol,kielezo,s,kinyume,nderemo,utayari,NA,sdf,NA,2,NA,NA,NA,NA,NA,NA,NA,NA,NA,NA,NA,NA,NA,NA,NA,NA,NA,NA,NA
4f714,task,flow.Sequence,3_0_2_0_0,NA,NA,completion,7137.42,268897,268897.4,268897.72,276035.14,276044,2023-11-28T16:02:42Z,276051.8,NULL,Symbol,kielezo,s,kinyume,nderemo,utayari,NA,sdf,NA,2,NA,NA,NA,NA,NA,NA,NA,NA,NA,NA,NA,NA,NA,NA,NA,NA,NA,NA,NA
4f714,deep,flow.Sequence,3_0_2_0_1_0,NA,NA,skipped,NA,276044,NA,NA,276035.14,276044,2023-11-28T16:02:42Z,276051.8,NULL,Zuwachs,nyongeza,s,matilaba,udhibiti,hudhurio,NA,sdf,NA,2,NA,NA,NA,NA,NA,NA,NA,NA,NA,NA,NA,NA,NA,NA,NA,NA,NA,NA,NA
4f714,Shallow Question,html.Page,3_0_2_0_1_1_0,NA,NA,form submission,2653.2,276045,276035.14,276051.8,278705,278705,2023-11-28T16:02:44Z,278703.86,NULL,Zuwachs,nyongeza,s,matilaba,udhibiti,hudhurio,nyongeza,NA,NA,2,NA,NA,NA,NA,NA,NA,NA,NA,NA,NA,NA,NA,NA,NA,NA,NA,NA,NA,NA
4f714,"""Richtig""-Screen",canvas.Screen,3_0_2_0_1_1_1,NA,NA,timeout,4996.94,278708,278703.6,278703.86,283684.28,283686,2023-11-28T16:02:49Z,283700.8,NULL,Zuwachs,nyongeza,s,matilaba,udhibiti,hudhurio,NA,sdf,1,2,NA,NA,NA,NA,NA,NA,NA,NA,NA,NA,NA,NA,NA,NA,NA,NA,NA,NA,NA
4f714,"""Falsch""-Screen",canvas.Screen,3_0_2_0_1_1_2,NA,NA,skipped,NA,283693,NA,NA,283684.28,283693,2023-11-28T16:02:49Z,283700.8,NULL,Zuwachs,nyongeza,s,matilaba,udhibiti,hudhurio,NA,sdf,NA,2,NA,NA,NA,NA,NA,NA,NA,NA,NA,NA,NA,NA,NA,NA,NA,NA,NA,NA,NA
4f714,shallow,flow.Sequence,3_0_2_0_1_1,NA,NA,completion,7632.48,276045,276035.14,276051.8,283684.28,283694,2023-11-28T16:02:49Z,283700.8,NULL,Zuwachs,nyongeza,s,matilaba,udhibiti,hudhurio,NA,sdf,NA,2,NA,NA,NA,NA,NA,NA,NA,NA,NA,NA,NA,NA,NA,NA,NA,NA,NA,NA,NA
4f714,task,flow.Sequence,3_0_2_0_1,NA,NA,completion,7632.48,276044,276035.14,276051.8,283684.28,283694,2023-11-28T16:02:49Z,283700.8,NULL,Zuwachs,nyongeza,s,matilaba,udhibiti,hudhurio,NA,sdf,NA,2,NA,NA,NA,NA,NA,NA,NA,NA,NA,NA,NA,NA,NA,NA,NA,NA,NA,NA,NA
4f714,deep,flow.Sequence,3_0_2_0_2_0,NA,NA,skipped,NA,283694,NA,NA,283684.28,283694,2023-11-28T16:02:49Z,283700.8,NULL,Körper,kiwiliwili,s,mapambano,mpatanishi,kiolezo,NA,sdf,NA,2,NA,NA,NA,NA,NA,NA,NA,NA,NA,NA,NA,NA,NA,NA,NA,NA,NA,NA,NA
4f714,Shallow Question,html.Page,3_0_2_0_2_1_0,NA,NA,form submission,2226.2,283695,283684.28,283700.8,285927,285927,2023-11-28T16:02:52Z,285925.78,NULL,Körper,kiwiliwili,s,mapambano,mpatanishi,kiolezo,kiwiliwili,NA,NA,2,NA,NA,NA,NA,NA,NA,NA,NA,NA,NA,NA,NA,NA,NA,NA,NA,NA,NA,NA
4f714,"""Richtig""-Screen",canvas.Screen,3_0_2_0_2_1_1,NA,NA,timeout,5007.36,285929,285925.54,285925.78,290916.54,290917,2023-11-28T16:02:57Z,290933.14,NULL,Körper,kiwiliwili,s,mapambano,mpatanishi,kiolezo,NA,sdf,1,2,NA,NA,NA,NA,NA,NA,NA,NA,NA,NA,NA,NA,NA,NA,NA,NA,NA,NA,NA
4f714,"""Falsch""-Screen",canvas.Screen,3_0_2_0_2_1_2,NA,NA,skipped,NA,290921,NA,NA,290916.54,290922,2023-11-28T16:02:57Z,290933.14,NULL,Körper,kiwiliwili,s,mapambano,mpatanishi,kiolezo,NA,sdf,NA,2,NA,NA,NA,NA,NA,NA,NA,NA,NA,NA,NA,NA,NA,NA,NA,NA,NA,NA,NA
4f714,shallow,flow.Sequence,3_0_2_0_2_1,NA,NA,completion,7215.74,283695,283684.28,283700.8,290916.54,290922,2023-11-28T16:02:57Z,290933.14,NULL,Körper,kiwiliwili,s,mapambano,mpatanishi,kiolezo,NA,sdf,NA,2,NA,NA,NA,NA,NA,NA,NA,NA,NA,NA,NA,NA,NA,NA,NA,NA,NA,NA,NA
4f714,task,flow.Sequence,3_0_2_0_2,NA,NA,completion,7215.74,283694,283684.28,283700.8,290916.54,290922,2023-11-28T16:02:57Z,290933.14,NULL,Körper,kiwiliwili,s,mapambano,mpatanishi,kiolezo,NA,sdf,NA,2,NA,NA,NA,NA,NA,NA,NA,NA,NA,NA,NA,NA,NA,NA,NA,NA,NA,NA,NA
4f714,Deep Question,html.Page,3_0_2_0_3_0_0,NA,NA,form submission,6515.86,290923,290916.54,290933.14,297449,297449,2023-11-28T16:03:03Z,297449,NULL,Lawine,banguko,d,NA,NA,NA,banguso,NA,NA,2,NA,NA,NA,NA,NA,NA,NA,NA,NA,NA,NA,NA,NA,NA,NA,NA,NA,NA,NA
4f714,"""Richtig""-Screen",canvas.Screen,3_0_2_0_3_0_1,NA,NA,skipped,NA,297449,NA,NA,297449,297449,2023-11-28T16:03:03Z,297449,NULL,Lawine,banguko,d,NA,NA,NA,NA,sdf,NA,2,NA,NA,NA,NA,NA,NA,NA,NA,NA,NA,NA,NA,NA,NA,NA,NA,NA,NA,NA
4f714,"""Falsch""-Screen",canvas.Screen,3_0_2_0_3_0_2,NA,NA,timeout,4999.44,297450,297447.52,297449,302432.14,302435,2023-11-28T16:03:08Z,302448.44,NULL,Lawine,banguko,d,NA,NA,NA,NA,sdf,0,2,NA,NA,NA,NA,NA,NA,NA,NA,NA,NA,NA,NA,NA,NA,NA,NA,NA,NA,NA
4f714,deep,flow.Sequence,3_0_2_0_3_0,NA,NA,completion,11499,290923,290916.54,290933.14,302432.14,302437,2023-11-28T16:03:08Z,302448.44,NULL,Lawine,banguko,d,NA,NA,NA,NA,sdf,NA,2,NA,NA,NA,NA,NA,NA,NA,NA,NA,NA,NA,NA,NA,NA,NA,NA,NA,NA,NA
4f714,shallow,flow.Sequence,3_0_2_0_3_1,NA,NA,skipped,NA,302439,NA,NA,302432.14,302439,2023-11-28T16:03:08Z,302448.44,NULL,Lawine,banguko,d,NA,NA,NA,NA,sdf,NA,2,NA,NA,NA,NA,NA,NA,NA,NA,NA,NA,NA,NA,NA,NA,NA,NA,NA,NA,NA
4f714,task,flow.Sequence,3_0_2_0_3,NA,NA,completion,11499,290923,290916.54,290933.14,302432.14,302440,2023-11-28T16:03:08Z,302448.44,NULL,Lawine,banguko,d,NA,NA,NA,NA,sdf,NA,2,NA,NA,NA,NA,NA,NA,NA,NA,NA,NA,NA,NA,NA,NA,NA,NA,NA,NA,NA
4f714,Deep Question,html.Page,3_0_2_0_4_0_0,NA,NA,form submission,6975.56,302441,302432.14,302448.44,309424,309425,2023-11-28T16:03:15Z,309447.5,NULL,Konkurrent,mshindani,d,NA,NA,NA,mshindani,NA,NA,2,NA,NA,NA,NA,NA,NA,NA,NA,NA,NA,NA,NA,NA,NA,NA,NA,NA,NA,NA
4f714,"""Richtig""-Screen",canvas.Screen,3_0_2_0_4_0_1,NA,NA,timeout,4999.38,309432,309430.86,309447.5,314430.48,314432,2023-11-28T16:03:20Z,314446.88,NULL,Konkurrent,mshindani,d,NA,NA,NA,NA,sdf,1,2,NA,NA,NA,NA,NA,NA,NA,NA,NA,NA,NA,NA,NA,NA,NA,NA,NA,NA,NA
4f714,"""Falsch""-Screen",canvas.Screen,3_0_2_0_4_0_2,NA,NA,skipped,NA,314440,NA,NA,314430.48,314441,2023-11-28T16:03:20Z,314446.88,NULL,Konkurrent,mshindani,d,NA,NA,NA,NA,sdf,NA,2,NA,NA,NA,NA,NA,NA,NA,NA,NA,NA,NA,NA,NA,NA,NA,NA,NA,NA,NA
4f714,deep,flow.Sequence,3_0_2_0_4_0,NA,NA,completion,11982.04,302441,302432.14,302448.44,314430.48,314442,2023-11-28T16:03:20Z,314446.88,NULL,Konkurrent,mshindani,d,NA,NA,NA,NA,sdf,NA,2,NA,NA,NA,NA,NA,NA,NA,NA,NA,NA,NA,NA,NA,NA,NA,NA,NA,NA,NA
4f714,shallow,flow.Sequence,3_0_2_0_4_1,NA,NA,skipped,NA,314442,NA,NA,314430.48,314442,2023-11-28T16:03:20Z,314446.88,NULL,Konkurrent,mshindani,d,NA,NA,NA,NA,sdf,NA,2,NA,NA,NA,NA,NA,NA,NA,NA,NA,NA,NA,NA,NA,NA,NA,NA,NA,NA,NA
4f714,task,flow.Sequence,3_0_2_0_4,NA,NA,completion,11982.04,302441,302432.14,302448.44,314430.48,314443,2023-11-28T16:03:20Z,314446.88,NULL,Konkurrent,mshindani,d,NA,NA,NA,NA,sdf,NA,2,NA,NA,NA,NA,NA,NA,NA,NA,NA,NA,NA,NA,NA,NA,NA,NA,NA,NA,NA
4f714,Deep Question,html.Page,3_0_2_0_5_0_0,NA,NA,form submission,4446.12,314444,314430.48,314446.88,318893,318894,2023-11-28T16:03:25Z,318913.16,NULL,System,maongozi,d,NA,NA,NA,k,NA,NA,2,NA,NA,NA,NA,NA,NA,NA,NA,NA,NA,NA,NA,NA,NA,NA,NA,NA,NA,NA
4f714,"""Richtig""-Screen",canvas.Screen,3_0_2_0_5_0_1,NA,NA,skipped,NA,318898,NA,NA,318893,318898,2023-11-28T16:03:25Z,318913.16,NULL,System,maongozi,d,NA,NA,NA,NA,sdf,NA,2,NA,NA,NA,NA,NA,NA,NA,NA,NA,NA,NA,NA,NA,NA,NA,NA,NA,NA,NA
4f714,"""Falsch""-Screen",canvas.Screen,3_0_2_0_5_0_2,NA,NA,timeout,4999.34,318900,318896.26,318913.16,323895.68,323897,2023-11-28T16:03:30Z,323912.5,NULL,System,maongozi,d,NA,NA,NA,NA,sdf,0,2,NA,NA,NA,NA,NA,NA,NA,NA,NA,NA,NA,NA,NA,NA,NA,NA,NA,NA,NA
4f714,deep,flow.Sequence,3_0_2_0_5_0,NA,NA,completion,9448.8,314443,314430.48,314446.88,323895.68,323897,2023-11-28T16:03:30Z,323912.5,NULL,System,maongozi,d,NA,NA,NA,NA,sdf,NA,2,NA,NA,NA,NA,NA,NA,NA,NA,NA,NA,NA,NA,NA,NA,NA,NA,NA,NA,NA
4f714,shallow,flow.Sequence,3_0_2_0_5_1,NA,NA,skipped,NA,323897,NA,NA,323895.68,323897,2023-11-28T16:03:30Z,323912.5,NULL,System,maongozi,d,NA,NA,NA,NA,sdf,NA,2,NA,NA,NA,NA,NA,NA,NA,NA,NA,NA,NA,NA,NA,NA,NA,NA,NA,NA,NA
4f714,task,flow.Sequence,3_0_2_0_5,NA,NA,completion,9448.8,314443,314430.48,314446.88,323895.68,323897,2023-11-28T16:03:30Z,323912.5,NULL,System,maongozi,d,NA,NA,NA,NA,sdf,NA,2,NA,NA,NA,NA,NA,NA,NA,NA,NA,NA,NA,NA,NA,NA,NA,NA,NA,NA,NA
4f714,Deep Question,html.Page,3_0_2_0_6_0_0,NA,NA,form submission,7881.5,323898,323895.68,323912.5,331794,331794,2023-11-28T16:03:38Z,331794.64,NULL,Vorsorge,tahadhari,d,NA,NA,NA,tahadhari,NA,NA,2,NA,NA,NA,NA,NA,NA,NA,NA,NA,NA,NA,NA,NA,NA,NA,NA,NA,NA,NA
4f714,"""Richtig""-Screen",canvas.Screen,3_0_2_0_6_0_1,NA,NA,timeout,4999.44,331796,331793.62,331794.64,336777.38,336779,2023-11-28T16:03:43Z,336794.08,NULL,Vorsorge,tahadhari,d,NA,NA,NA,NA,sdf,1,2,NA,NA,NA,NA,NA,NA,NA,NA,NA,NA,NA,NA,NA,NA,NA,NA,NA,NA,NA
4f714,"""Falsch""-Screen",canvas.Screen,3_0_2_0_6_0_2,NA,NA,skipped,NA,336783,NA,NA,336777.38,336783,2023-11-28T16:03:43Z,336794.08,NULL,Vorsorge,tahadhari,d,NA,NA,NA,NA,sdf,NA,2,NA,NA,NA,NA,NA,NA,NA,NA,NA,NA,NA,NA,NA,NA,NA,NA,NA,NA,NA
4f714,deep,flow.Sequence,3_0_2_0_6_0,NA,NA,completion,12864.88,323897,323895.68,323912.5,336777.38,336784,2023-11-28T16:03:43Z,336794.08,NULL,Vorsorge,tahadhari,d,NA,NA,NA,NA,sdf,NA,2,NA,NA,NA,NA,NA,NA,NA,NA,NA,NA,NA,NA,NA,NA,NA,NA,NA,NA,NA
4f714,shallow,flow.Sequence,3_0_2_0_6_1,NA,NA,skipped,NA,336784,NA,NA,336777.38,336784,2023-11-28T16:03:43Z,336794.08,NULL,Vorsorge,tahadhari,d,NA,NA,NA,NA,sdf,NA,2,NA,NA,NA,NA,NA,NA,NA,NA,NA,NA,NA,NA,NA,NA,NA,NA,NA,NA,NA
4f714,task,flow.Sequence,3_0_2_0_6,NA,NA,completion,12864.88,323897,323895.68,323912.5,336777.38,336785,2023-11-28T16:03:43Z,336794.08,NULL,Vorsorge,tahadhari,d,NA,NA,NA,NA,sdf,NA,2,NA,NA,NA,NA,NA,NA,NA,NA,NA,NA,NA,NA,NA,NA,NA,NA,NA,NA,NA
4f714,deep,flow.Sequence,3_0_2_0_7_0,NA,NA,skipped,NA,336786,NA,NA,336777.38,336786,2023-11-28T16:03:43Z,336794.08,NULL,Übersicht,kilindo,s,mgusano,chipukizi,kulinganisha,NA,sdf,NA,2,NA,NA,NA,NA,NA,NA,NA,NA,NA,NA,NA,NA,NA,NA,NA,NA,NA,NA,NA
4f714,Shallow Question,html.Page,3_0_2_0_7_1_0,NA,NA,form submission,4063.92,336786,336777.38,336794.08,340858,340859,2023-11-28T16:03:47Z,340860.08,NULL,Übersicht,kilindo,s,mgusano,chipukizi,kulinganisha,kilindo,NA,NA,2,NA,NA,NA,NA,NA,NA,NA,NA,NA,NA,NA,NA,NA,NA,NA,NA,NA,NA,NA
4f714,"""Richtig""-Screen",canvas.Screen,3_0_2_0_7_1_1,NA,NA,timeout,4999.4,340862,340857.3,340860.08,345843.22,345845,2023-11-28T16:03:52Z,345859.48,NULL,Übersicht,kilindo,s,mgusano,chipukizi,kulinganisha,NA,sdf,1,2,NA,NA,NA,NA,NA,NA,NA,NA,NA,NA,NA,NA,NA,NA,NA,NA,NA,NA,NA
4f714,"""Falsch""-Screen",canvas.Screen,3_0_2_0_7_1_2,NA,NA,skipped,NA,345852,NA,NA,345843.22,345852,2023-11-28T16:03:52Z,345859.48,NULL,Übersicht,kilindo,s,mgusano,chipukizi,kulinganisha,NA,sdf,NA,2,NA,NA,NA,NA,NA,NA,NA,NA,NA,NA,NA,NA,NA,NA,NA,NA,NA,NA,NA
4f714,shallow,flow.Sequence,3_0_2_0_7_1,NA,NA,completion,9049.14,336786,336777.38,336794.08,345843.22,345853,2023-11-28T16:03:52Z,345859.48,NULL,Übersicht,kilindo,s,mgusano,chipukizi,kulinganisha,NA,sdf,NA,2,NA,NA,NA,NA,NA,NA,NA,NA,NA,NA,NA,NA,NA,NA,NA,NA,NA,NA,NA
4f714,task,flow.Sequence,3_0_2_0_7,NA,NA,completion,9049.14,336785,336777.38,336794.08,345843.22,345853,2023-11-28T16:03:52Z,345859.48,NULL,Übersicht,kilindo,s,mgusano,chipukizi,kulinganisha,NA,sdf,NA,2,NA,NA,NA,NA,NA,NA,NA,NA,NA,NA,NA,NA,NA,NA,NA,NA,NA,NA,NA
4f714,block,flow.Loop,3_0_2_0,NA,NA,completion,76945.5,268897,268897.4,268897.72,345843.22,345854,2023-11-28T16:03:52Z,345859.48,NULL,NA,NA,NA,NA,NA,NA,NA,sdf,NA,2,NA,NA,NA,NA,NA,NA,NA,NA,NA,NA,NA,NA,NA,NA,NA,NA,NA,NA,NA
4f714,weiter,canvas.Screen,3_0_2_1,sdf,keypress(Space),response,1051.52,345854,345843.22,345859.48,346911,346927,2023-11-28T16:03:53Z,346980.88,NULL,NA,NA,NA,NA,NA,NA,NA,sdf,NA,2,NA,NA,NA,NA,NA,NA,NA,NA,NA,NA,NA,NA,NA,NA,NA,NA,NA,NA,NA
4f714,check continue,flow.Sequence,3_0_2,NA,NA,completion,78013.28,268897,268897.4,268897.72,346911,346929,2023-11-28T16:03:53Z,346980.88,NULL,NA,NA,NA,NA,NA,NA,NA,sdf,NA,2,NA,NA,NA,NA,NA,NA,NA,NA,NA,NA,NA,NA,NA,NA,NA,NA,NA,NA,NA
4f714,deep,flow.Sequence,3_0_3_0_0_0,NA,NA,skipped,NA,346980,NA,NA,346911,346980,2023-11-28T16:03:53Z,346980.88,NULL,Übersicht,kilindo,s,mgusano,chipukizi,kulinganisha,NA,qt,NA,3,NA,NA,NA,NA,NA,NA,NA,NA,NA,NA,NA,NA,NA,NA,NA,NA,NA,NA,NA
4f714,Shallow Question,html.Page,3_0_3_0_0_1_0,NA,NA,form submission,3569.12,346980,346980.54,346980.88,350550,350550,2023-11-28T16:03:56Z,350549.64,NULL,Übersicht,kilindo,s,mgusano,chipukizi,kulinganisha,kilindo,NA,NA,3,NA,NA,NA,NA,NA,NA,NA,NA,NA,NA,NA,NA,NA,NA,NA,NA,NA,NA,NA
4f714,"""Richtig""-Screen",canvas.Screen,3_0_3_0_0_1_1,NA,NA,timeout,4992.22,350551,350549.4,350549.64,355524.86,355525,2023-11-28T16:04:01Z,355541.86,NULL,Übersicht,kilindo,s,mgusano,chipukizi,kulinganisha,NA,qt,1,3,NA,NA,NA,NA,NA,NA,NA,NA,NA,NA,NA,NA,NA,NA,NA,NA,NA,NA,NA
4f714,"""Falsch""-Screen",canvas.Screen,3_0_3_0_0_1_2,NA,NA,skipped,NA,355527,NA,NA,355524.86,355527,2023-11-28T16:04:01Z,355541.86,NULL,Übersicht,kilindo,s,mgusano,chipukizi,kulinganisha,NA,qt,NA,3,NA,NA,NA,NA,NA,NA,NA,NA,NA,NA,NA,NA,NA,NA,NA,NA,NA,NA,NA
4f714,shallow,flow.Sequence,3_0_3_0_0_1,NA,NA,completion,8543.98,346980,346980.54,346980.88,355524.86,355528,2023-11-28T16:04:01Z,355541.86,NULL,Übersicht,kilindo,s,mgusano,chipukizi,kulinganisha,NA,qt,NA,3,NA,NA,NA,NA,NA,NA,NA,NA,NA,NA,NA,NA,NA,NA,NA,NA,NA,NA,NA
4f714,task,flow.Sequence,3_0_3_0_0,NA,NA,completion,8543.98,346980,346980.54,346980.88,355524.86,355528,2023-11-28T16:04:01Z,355541.86,NULL,Übersicht,kilindo,s,mgusano,chipukizi,kulinganisha,NA,qt,NA,3,NA,NA,NA,NA,NA,NA,NA,NA,NA,NA,NA,NA,NA,NA,NA,NA,NA,NA,NA
4f714,deep,flow.Sequence,3_0_3_0_1_0,NA,NA,skipped,NA,355528,NA,NA,355524.86,355528,2023-11-28T16:04:01Z,355541.86,NULL,Symbol,kielezo,s,kinyume,nderemo,utayari,NA,qt,NA,3,NA,NA,NA,NA,NA,NA,NA,NA,NA,NA,NA,NA,NA,NA,NA,NA,NA,NA,NA
4f714,Shallow Question,html.Page,3_0_3_0_1_1_0,NA,NA,form submission,2206.14,355528,355524.86,355541.86,357748,357751,2023-11-28T16:04:04Z,357757.96,NULL,Symbol,kielezo,s,kinyume,nderemo,utayari,kielezo,NA,NA,3,NA,NA,NA,NA,NA,NA,NA,NA,NA,NA,NA,NA,NA,NA,NA,NA,NA,NA,NA
4f714,"""Richtig""-Screen",canvas.Screen,3_0_3_0_1_1_1,NA,NA,timeout,4999.42,357759,357746.38,357757.96,362741.22,362743,2023-11-28T16:04:09Z,362757.38,NULL,Symbol,kielezo,s,kinyume,nderemo,utayari,NA,qt,1,3,NA,NA,NA,NA,NA,NA,NA,NA,NA,NA,NA,NA,NA,NA,NA,NA,NA,NA,NA
4f714,"""Falsch""-Screen",canvas.Screen,3_0_3_0_1_1_2,NA,NA,skipped,NA,362750,NA,NA,362741.22,362751,2023-11-28T16:04:09Z,362757.38,NULL,Symbol,kielezo,s,kinyume,nderemo,utayari,NA,qt,NA,3,NA,NA,NA,NA,NA,NA,NA,NA,NA,NA,NA,NA,NA,NA,NA,NA,NA,NA,NA
4f714,shallow,flow.Sequence,3_0_3_0_1_1,NA,NA,completion,7199.36,355528,355524.86,355541.86,362741.22,362751,2023-11-28T16:04:09Z,362757.38,NULL,Symbol,kielezo,s,kinyume,nderemo,utayari,NA,qt,NA,3,NA,NA,NA,NA,NA,NA,NA,NA,NA,NA,NA,NA,NA,NA,NA,NA,NA,NA,NA
4f714,task,flow.Sequence,3_0_3_0_1,NA,NA,completion,7199.36,355528,355524.86,355541.86,362741.22,362752,2023-11-28T16:04:09Z,362757.38,NULL,Symbol,kielezo,s,kinyume,nderemo,utayari,NA,qt,NA,3,NA,NA,NA,NA,NA,NA,NA,NA,NA,NA,NA,NA,NA,NA,NA,NA,NA,NA,NA
4f714,Deep Question,html.Page,3_0_3_0_2_0_0,NA,NA,form submission,6261.62,362753,362741.22,362757.38,369019,369019,2023-11-28T16:04:15Z,369023.22,NULL,Vorsorge,tahadhari,d,NA,NA,NA,tahadhari,NA,NA,3,NA,NA,NA,NA,NA,NA,NA,NA,NA,NA,NA,NA,NA,NA,NA,NA,NA,NA,NA
4f714,"""Richtig""-Screen",canvas.Screen,3_0_3_0_2_0_1,NA,NA,timeout,4999.4,369022,369017.94,369023.22,374006.02,374008,2023-11-28T16:04:20Z,374022.62,NULL,Vorsorge,tahadhari,d,NA,NA,NA,NA,qt,1,3,NA,NA,NA,NA,NA,NA,NA,NA,NA,NA,NA,NA,NA,NA,NA,NA,NA,NA,NA
4f714,"""Falsch""-Screen",canvas.Screen,3_0_3_0_2_0_2,NA,NA,skipped,NA,374014,NA,NA,374006.02,374014,2023-11-28T16:04:20Z,374022.62,NULL,Vorsorge,tahadhari,d,NA,NA,NA,NA,qt,NA,3,NA,NA,NA,NA,NA,NA,NA,NA,NA,NA,NA,NA,NA,NA,NA,NA,NA,NA,NA
4f714,deep,flow.Sequence,3_0_3_0_2_0,NA,NA,completion,11248.64,362753,362741.22,362757.38,374006.02,374015,2023-11-28T16:04:20Z,374022.62,NULL,Vorsorge,tahadhari,d,NA,NA,NA,NA,qt,NA,3,NA,NA,NA,NA,NA,NA,NA,NA,NA,NA,NA,NA,NA,NA,NA,NA,NA,NA,NA
4f714,shallow,flow.Sequence,3_0_3_0_2_1,NA,NA,skipped,NA,374016,NA,NA,374006.02,374016,2023-11-28T16:04:20Z,374022.62,NULL,Vorsorge,tahadhari,d,NA,NA,NA,NA,qt,NA,3,NA,NA,NA,NA,NA,NA,NA,NA,NA,NA,NA,NA,NA,NA,NA,NA,NA,NA,NA
4f714,task,flow.Sequence,3_0_3_0_2,NA,NA,completion,11248.64,362752,362741.22,362757.38,374006.02,374017,2023-11-28T16:04:20Z,374022.62,NULL,Vorsorge,tahadhari,d,NA,NA,NA,NA,qt,NA,3,NA,NA,NA,NA,NA,NA,NA,NA,NA,NA,NA,NA,NA,NA,NA,NA,NA,NA,NA
4f714,deep,flow.Sequence,3_0_3_0_3_0,NA,NA,skipped,NA,374018,NA,NA,374006.02,374018,2023-11-28T16:04:20Z,374022.62,NULL,Körper,kiwiliwili,s,mapambano,mpatanishi,kiolezo,NA,qt,NA,3,NA,NA,NA,NA,NA,NA,NA,NA,NA,NA,NA,NA,NA,NA,NA,NA,NA,NA,NA
4f714,Shallow Question,html.Page,3_0_3_0_3_1_0,NA,NA,form submission,6088.38,374019,374006.02,374022.62,380111,380111,2023-11-28T16:04:26Z,380110.34,NULL,Körper,kiwiliwili,s,mapambano,mpatanishi,kiolezo,kiwiliwili,NA,NA,3,NA,NA,NA,NA,NA,NA,NA,NA,NA,NA,NA,NA,NA,NA,NA,NA,NA,NA,NA
4f714,"""Richtig""-Screen",canvas.Screen,3_0_3_0_3_1_1,NA,NA,timeout,4994.12,380114,380109.46,380110.34,385087.86,385089,2023-11-28T16:04:31Z,385104.46,NULL,Körper,kiwiliwili,s,mapambano,mpatanishi,kiolezo,NA,qt,1,3,NA,NA,NA,NA,NA,NA,NA,NA,NA,NA,NA,NA,NA,NA,NA,NA,NA,NA,NA
4f714,"""Falsch""-Screen",canvas.Screen,3_0_3_0_3_1_2,NA,NA,skipped,NA,385094,NA,NA,385087.86,385094,2023-11-28T16:04:31Z,385104.46,NULL,Körper,kiwiliwili,s,mapambano,mpatanishi,kiolezo,NA,qt,NA,3,NA,NA,NA,NA,NA,NA,NA,NA,NA,NA,NA,NA,NA,NA,NA,NA,NA,NA,NA
4f714,shallow,flow.Sequence,3_0_3_0_3_1,NA,NA,completion,11065.24,374019,374006.02,374022.62,385087.86,385094,2023-11-28T16:04:31Z,385104.46,NULL,Körper,kiwiliwili,s,mapambano,mpatanishi,kiolezo,NA,qt,NA,3,NA,NA,NA,NA,NA,NA,NA,NA,NA,NA,NA,NA,NA,NA,NA,NA,NA,NA,NA
4f714,task,flow.Sequence,3_0_3_0_3,NA,NA,completion,11065.24,374018,374006.02,374022.62,385087.86,385095,2023-11-28T16:04:31Z,385104.46,NULL,Körper,kiwiliwili,s,mapambano,mpatanishi,kiolezo,NA,qt,NA,3,NA,NA,NA,NA,NA,NA,NA,NA,NA,NA,NA,NA,NA,NA,NA,NA,NA,NA,NA
4f714,Deep Question,html.Page,3_0_3_0_4_0_0,NA,NA,form submission,5231.54,385095,385087.86,385104.46,390336,390336,2023-11-28T16:04:36Z,390337.14,NULL,System,maongozi,d,NA,NA,NA,manguzo,NA,NA,3,NA,NA,NA,NA,NA,NA,NA,NA,NA,NA,NA,NA,NA,NA,NA,NA,NA,NA,NA
4f714,"""Richtig""-Screen",canvas.Screen,3_0_3_0_4_0_1,NA,NA,skipped,NA,390339,NA,NA,390336,390339,2023-11-28T16:04:36Z,390337.14,NULL,System,maongozi,d,NA,NA,NA,NA,qt,NA,3,NA,NA,NA,NA,NA,NA,NA,NA,NA,NA,NA,NA,NA,NA,NA,NA,NA,NA,NA
4f714,"""Falsch""-Screen",canvas.Screen,3_0_3_0_4_0_2,NA,NA,timeout,4999.4,390343,390334.52,390337.14,395320.12,395321,2023-11-28T16:04:41Z,395336.54,NULL,System,maongozi,d,NA,NA,NA,NA,qt,0,3,NA,NA,NA,NA,NA,NA,NA,NA,NA,NA,NA,NA,NA,NA,NA,NA,NA,NA,NA
4f714,deep,flow.Sequence,3_0_3_0_4_0,NA,NA,completion,10215.66,385095,385087.86,385104.46,395320.12,395322,2023-11-28T16:04:41Z,395336.54,NULL,System,maongozi,d,NA,NA,NA,NA,qt,NA,3,NA,NA,NA,NA,NA,NA,NA,NA,NA,NA,NA,NA,NA,NA,NA,NA,NA,NA,NA
4f714,shallow,flow.Sequence,3_0_3_0_4_1,NA,NA,skipped,NA,395322,NA,NA,395320.12,395323,2023-11-28T16:04:41Z,395336.54,NULL,System,maongozi,d,NA,NA,NA,NA,qt,NA,3,NA,NA,NA,NA,NA,NA,NA,NA,NA,NA,NA,NA,NA,NA,NA,NA,NA,NA,NA
4f714,task,flow.Sequence,3_0_3_0_4,NA,NA,completion,10215.66,385095,385087.86,385104.46,395320.12,395323,2023-11-28T16:04:41Z,395336.54,NULL,System,maongozi,d,NA,NA,NA,NA,qt,NA,3,NA,NA,NA,NA,NA,NA,NA,NA,NA,NA,NA,NA,NA,NA,NA,NA,NA,NA,NA
4f714,deep,flow.Sequence,3_0_3_0_5_0,NA,NA,skipped,NA,395323,NA,NA,395320.12,395323,2023-11-28T16:04:41Z,395336.54,NULL,Zuwachs,nyongeza,s,matilaba,udhibiti,hudhurio,NA,qt,NA,3,NA,NA,NA,NA,NA,NA,NA,NA,NA,NA,NA,NA,NA,NA,NA,NA,NA,NA,NA
4f714,Shallow Question,html.Page,3_0_3_0_5_1_0,NA,NA,form submission,4824.46,395324,395320.12,395336.54,400161,400161,2023-11-28T16:04:46Z,400160.22,NULL,Zuwachs,nyongeza,s,matilaba,udhibiti,hudhurio,nyongeza,NA,NA,3,NA,NA,NA,NA,NA,NA,NA,NA,NA,NA,NA,NA,NA,NA,NA,NA,NA,NA,NA
4f714,"""Richtig""-Screen",canvas.Screen,3_0_3_0_5_1_1,NA,NA,timeout,5008.34,400164,400159.86,400160.22,405152.4,405154,2023-11-28T16:04:51Z,405168.56,NULL,Zuwachs,nyongeza,s,matilaba,udhibiti,hudhurio,NA,qt,1,3,NA,NA,NA,NA,NA,NA,NA,NA,NA,NA,NA,NA,NA,NA,NA,NA,NA,NA,NA
4f714,"""Falsch""-Screen",canvas.Screen,3_0_3_0_5_1_2,NA,NA,skipped,NA,405160,NA,NA,405152.4,405160,2023-11-28T16:04:51Z,405168.56,NULL,Zuwachs,nyongeza,s,matilaba,udhibiti,hudhurio,NA,qt,NA,3,NA,NA,NA,NA,NA,NA,NA,NA,NA,NA,NA,NA,NA,NA,NA,NA,NA,NA,NA
4f714,shallow,flow.Sequence,3_0_3_0_5_1,NA,NA,completion,9815.86,395324,395320.12,395336.54,405152.4,405161,2023-11-28T16:04:51Z,405168.56,NULL,Zuwachs,nyongeza,s,matilaba,udhibiti,hudhurio,NA,qt,NA,3,NA,NA,NA,NA,NA,NA,NA,NA,NA,NA,NA,NA,NA,NA,NA,NA,NA,NA,NA
4f714,task,flow.Sequence,3_0_3_0_5,NA,NA,completion,9815.86,395323,395320.12,395336.54,405152.4,405161,2023-11-28T16:04:51Z,405168.56,NULL,Zuwachs,nyongeza,s,matilaba,udhibiti,hudhurio,NA,qt,NA,3,NA,NA,NA,NA,NA,NA,NA,NA,NA,NA,NA,NA,NA,NA,NA,NA,NA,NA,NA
4f714,Deep Question,html.Page,3_0_3_0_6_0_0,NA,NA,form submission,6953.44,405162,405152.4,405168.56,412122,412122,2023-11-28T16:04:58Z,412121.46,NULL,Konkurrent,mshindani,d,NA,NA,NA,mshindani,NA,NA,3,NA,NA,NA,NA,NA,NA,NA,NA,NA,NA,NA,NA,NA,NA,NA,NA,NA,NA,NA
4f714,"""Richtig""-Screen",canvas.Screen,3_0_3_0_6_0_1,NA,NA,timeout,4995.62,412125,412121.16,412121.46,417100.48,417102,2023-11-28T16:05:03Z,417117.08,NULL,Konkurrent,mshindani,d,NA,NA,NA,NA,qt,1,3,NA,NA,NA,NA,NA,NA,NA,NA,NA,NA,NA,NA,NA,NA,NA,NA,NA,NA,NA
4f714,"""Falsch""-Screen",canvas.Screen,3_0_3_0_6_0_2,NA,NA,skipped,NA,417106,NA,NA,417100.48,417106,2023-11-28T16:05:03Z,417117.08,NULL,Konkurrent,mshindani,d,NA,NA,NA,NA,qt,NA,3,NA,NA,NA,NA,NA,NA,NA,NA,NA,NA,NA,NA,NA,NA,NA,NA,NA,NA,NA
4f714,deep,flow.Sequence,3_0_3_0_6_0,NA,NA,completion,11931.92,405162,405152.4,405168.56,417100.48,417107,2023-11-28T16:05:03Z,417117.08,NULL,Konkurrent,mshindani,d,NA,NA,NA,NA,qt,NA,3,NA,NA,NA,NA,NA,NA,NA,NA,NA,NA,NA,NA,NA,NA,NA,NA,NA,NA,NA
4f714,shallow,flow.Sequence,3_0_3_0_6_1,NA,NA,skipped,NA,417107,NA,NA,417100.48,417107,2023-11-28T16:05:03Z,417117.08,NULL,Konkurrent,mshindani,d,NA,NA,NA,NA,qt,NA,3,NA,NA,NA,NA,NA,NA,NA,NA,NA,NA,NA,NA,NA,NA,NA,NA,NA,NA,NA
4f714,task,flow.Sequence,3_0_3_0_6,NA,NA,completion,11931.92,405161,405152.4,405168.56,417100.48,417107,2023-11-28T16:05:03Z,417117.08,NULL,Konkurrent,mshindani,d,NA,NA,NA,NA,qt,NA,3,NA,NA,NA,NA,NA,NA,NA,NA,NA,NA,NA,NA,NA,NA,NA,NA,NA,NA,NA
4f714,Deep Question,html.Page,3_0_3_0_7_0_0,NA,NA,form submission,5409.92,417108,417100.48,417117.08,422527,422528,2023-11-28T16:05:08Z,422532.98,NULL,Lawine,banguko,d,NA,NA,NA,banguko,NA,NA,3,NA,NA,NA,NA,NA,NA,NA,NA,NA,NA,NA,NA,NA,NA,NA,NA,NA,NA,NA
4f714,"""Richtig""-Screen",canvas.Screen,3_0_3_0_7_0_1,NA,NA,timeout,4999.52,422531,422526.08,422532.98,427515.76,427516,2023-11-28T16:05:13Z,427532.5,NULL,Lawine,banguko,d,NA,NA,NA,NA,qt,1,3,NA,NA,NA,NA,NA,NA,NA,NA,NA,NA,NA,NA,NA,NA,NA,NA,NA,NA,NA
4f714,"""Falsch""-Screen",canvas.Screen,3_0_3_0_7_0_2,NA,NA,skipped,NA,427522,NA,NA,427515.76,427523,2023-11-28T16:05:13Z,427532.5,NULL,Lawine,banguko,d,NA,NA,NA,NA,qt,NA,3,NA,NA,NA,NA,NA,NA,NA,NA,NA,NA,NA,NA,NA,NA,NA,NA,NA,NA,NA
4f714,deep,flow.Sequence,3_0_3_0_7_0,NA,NA,completion,10398.68,417108,417100.48,417117.08,427515.76,427523,2023-11-28T16:05:13Z,427532.5,NULL,Lawine,banguko,d,NA,NA,NA,NA,qt,NA,3,NA,NA,NA,NA,NA,NA,NA,NA,NA,NA,NA,NA,NA,NA,NA,NA,NA,NA,NA
4f714,shallow,flow.Sequence,3_0_3_0_7_1,NA,NA,skipped,NA,427524,NA,NA,427515.76,427524,2023-11-28T16:05:13Z,427532.5,NULL,Lawine,banguko,d,NA,NA,NA,NA,qt,NA,3,NA,NA,NA,NA,NA,NA,NA,NA,NA,NA,NA,NA,NA,NA,NA,NA,NA,NA,NA
4f714,task,flow.Sequence,3_0_3_0_7,NA,NA,completion,10398.68,417108,417100.48,417117.08,427515.76,427524,2023-11-28T16:05:13Z,427532.5,NULL,Lawine,banguko,d,NA,NA,NA,NA,qt,NA,3,NA,NA,NA,NA,NA,NA,NA,NA,NA,NA,NA,NA,NA,NA,NA,NA,NA,NA,NA
4f714,block,flow.Loop,3_0_3_0,NA,NA,completion,80534.88,346980,346980.54,346980.88,427515.76,427526,2023-11-28T16:05:13Z,427532.5,NULL,NA,NA,NA,NA,NA,NA,NA,qt,NA,3,NA,NA,NA,NA,NA,NA,NA,NA,NA,NA,NA,NA,NA,NA,NA,NA,NA,NA,NA
4f714,weiter,canvas.Screen,3_0_3_1,sdf,keypress(Space),response,1440.5,427526,427515.76,427532.5,428973,428985,2023-11-28T16:05:15Z,429710.26,NULL,NA,NA,NA,NA,NA,NA,NA,qt,NA,3,NA,NA,NA,NA,NA,NA,NA,NA,NA,NA,NA,NA,NA,NA,NA,NA,NA,NA,NA
4f714,check continue,flow.Sequence,3_0_3,NA,NA,completion,81992.12,346980,346980.54,346980.88,428973,428986,2023-11-28T16:05:15Z,429710.26,NULL,NA,NA,NA,NA,NA,NA,NA,qt,NA,3,NA,NA,NA,NA,NA,NA,NA,NA,NA,NA,NA,NA,NA,NA,NA,NA,NA,NA,NA
4f714,check continue,flow.Sequence,3_0_4,NA,NA,skipped,NA,429043,NA,NA,428973,429043,2023-11-28T16:05:15Z,429710.26,NULL,NA,NA,NA,NA,NA,NA,NA,sd,NA,4,NA,NA,NA,NA,NA,NA,NA,NA,NA,NA,NA,NA,NA,NA,NA,NA,NA,NA,NA
4f714,check continue,flow.Sequence,3_0_5,NA,NA,skipped,NA,429071,NA,NA,428973,429071,2023-11-28T16:05:15Z,429710.26,NULL,NA,NA,NA,NA,NA,NA,NA,sdf,NA,5,NA,NA,NA,NA,NA,NA,NA,NA,NA,NA,NA,NA,NA,NA,NA,NA,NA,NA,NA
4f714,check continue,flow.Sequence,3_0_6,NA,NA,skipped,NA,429099,NA,NA,428973,429099,2023-11-28T16:05:15Z,429710.26,NULL,NA,NA,NA,NA,NA,NA,NA,dfs,NA,6,NA,NA,NA,NA,NA,NA,NA,NA,NA,NA,NA,NA,NA,NA,NA,NA,NA,NA,NA
4f714,check continue,flow.Sequence,3_0_7,NA,NA,skipped,NA,429128,NA,NA,428973,429128,2023-11-28T16:05:15Z,429710.26,NULL,NA,NA,NA,NA,NA,NA,NA,df,NA,7,NA,NA,NA,NA,NA,NA,NA,NA,NA,NA,NA,NA,NA,NA,NA,NA,NA,NA,NA
4f714,check continue,flow.Sequence,3_0_8,NA,NA,skipped,NA,429159,NA,NA,428973,429159,2023-11-28T16:05:15Z,429710.26,NULL,NA,NA,NA,NA,NA,NA,NA,dfs,NA,8,NA,NA,NA,NA,NA,NA,NA,NA,NA,NA,NA,NA,NA,NA,NA,NA,NA,NA,NA
4f714,check continue,flow.Sequence,3_0_9,NA,NA,skipped,NA,429185,NA,NA,428973,429185,2023-11-28T16:05:15Z,429710.26,NULL,NA,NA,NA,NA,NA,NA,NA,dsf,NA,9,NA,NA,NA,NA,NA,NA,NA,NA,NA,NA,NA,NA,NA,NA,NA,NA,NA,NA,NA
4f714,check continue,flow.Sequence,3_0_10,NA,NA,skipped,NA,429211,NA,NA,428973,429211,2023-11-28T16:05:15Z,429710.26,NULL,NA,NA,NA,NA,NA,NA,NA,df,NA,10,NA,NA,NA,NA,NA,NA,NA,NA,NA,NA,NA,NA,NA,NA,NA,NA,NA,NA,NA
4f714,check continue,flow.Sequence,3_0_11,NA,NA,skipped,NA,429237,NA,NA,428973,429237,2023-11-28T16:05:15Z,429710.26,NULL,NA,NA,NA,NA,NA,NA,NA,dfs,NA,11,NA,NA,NA,NA,NA,NA,NA,NA,NA,NA,NA,NA,NA,NA,NA,NA,NA,NA,NA
4f714,check continue,flow.Sequence,3_0_12,NA,NA,skipped,NA,429264,NA,NA,428973,429264,2023-11-28T16:05:15Z,429710.26,NULL,NA,NA,NA,NA,NA,NA,NA,dsf,NA,12,NA,NA,NA,NA,NA,NA,NA,NA,NA,NA,NA,NA,NA,NA,NA,NA,NA,NA,NA
4f714,check continue,flow.Sequence,3_0_13,NA,NA,skipped,NA,429290,NA,NA,428973,429290,2023-11-28T16:05:15Z,429710.26,NULL,NA,NA,NA,NA,NA,NA,NA,dsf,NA,13,NA,NA,NA,NA,NA,NA,NA,NA,NA,NA,NA,NA,NA,NA,NA,NA,NA,NA,NA
4f714,check continue,flow.Sequence,3_0_14,NA,NA,skipped,NA,429313,NA,NA,428973,429313,2023-11-28T16:05:15Z,429710.26,NULL,NA,NA,NA,NA,NA,NA,NA,NA,NA,14,NA,NA,NA,NA,NA,NA,NA,NA,NA,NA,NA,NA,NA,NA,NA,NA,NA,NA,NA
4f714,check continue,flow.Sequence,3_0_15,NA,NA,skipped,NA,429340,NA,NA,428973,429340,2023-11-28T16:05:15Z,429710.26,NULL,NA,NA,NA,NA,NA,NA,NA,NA,NA,15,NA,NA,NA,NA,NA,NA,NA,NA,NA,NA,NA,NA,NA,NA,NA,NA,NA,NA,NA
4f714,check continue,flow.Sequence,3_0_16,NA,NA,skipped,NA,429367,NA,NA,428973,429368,2023-11-28T16:05:15Z,429710.26,NULL,NA,NA,NA,NA,NA,NA,NA,NA,NA,16,NA,NA,NA,NA,NA,NA,NA,NA,NA,NA,NA,NA,NA,NA,NA,NA,NA,NA,NA
4f714,check continue,flow.Sequence,3_0_17,NA,NA,skipped,NA,429390,NA,NA,428973,429390,2023-11-28T16:05:15Z,429710.26,NULL,NA,NA,NA,NA,NA,NA,NA,NA,NA,17,NA,NA,NA,NA,NA,NA,NA,NA,NA,NA,NA,NA,NA,NA,NA,NA,NA,NA,NA
4f714,check continue,flow.Sequence,3_0_18,NA,NA,skipped,NA,429417,NA,NA,428973,429417,2023-11-28T16:05:15Z,429710.26,NULL,NA,NA,NA,NA,NA,NA,NA,NA,NA,18,NA,NA,NA,NA,NA,NA,NA,NA,NA,NA,NA,NA,NA,NA,NA,NA,NA,NA,NA
4f714,check continue,flow.Sequence,3_0_19,NA,NA,skipped,NA,429441,NA,NA,428973,429441,2023-11-28T16:05:15Z,429710.26,NULL,NA,NA,NA,NA,NA,NA,NA,NA,NA,19,NA,NA,NA,NA,NA,NA,NA,NA,NA,NA,NA,NA,NA,NA,NA,NA,NA,NA,NA
4f714,check continue,flow.Sequence,3_0_20,NA,NA,skipped,NA,429465,NA,NA,428973,429465,2023-11-28T16:05:15Z,429710.26,NULL,NA,NA,NA,NA,NA,NA,NA,NA,NA,20,NA,NA,NA,NA,NA,NA,NA,NA,NA,NA,NA,NA,NA,NA,NA,NA,NA,NA,NA
4f714,check continue,flow.Sequence,3_0_21,NA,NA,skipped,NA,429492,NA,NA,428973,429492,2023-11-28T16:05:15Z,429710.26,NULL,NA,NA,NA,NA,NA,NA,NA,NA,NA,21,NA,NA,NA,NA,NA,NA,NA,NA,NA,NA,NA,NA,NA,NA,NA,NA,NA,NA,NA
4f714,check continue,flow.Sequence,3_0_22,NA,NA,skipped,NA,429516,NA,NA,428973,429516,2023-11-28T16:05:15Z,429710.26,NULL,NA,NA,NA,NA,NA,NA,NA,NA,NA,22,NA,NA,NA,NA,NA,NA,NA,NA,NA,NA,NA,NA,NA,NA,NA,NA,NA,NA,NA
4f714,check continue,flow.Sequence,3_0_23,NA,NA,skipped,NA,429542,NA,NA,428973,429542,2023-11-28T16:05:15Z,429710.26,NULL,NA,NA,NA,NA,NA,NA,NA,NA,NA,23,NA,NA,NA,NA,NA,NA,NA,NA,NA,NA,NA,NA,NA,NA,NA,NA,NA,NA,NA
4f714,check continue,flow.Sequence,3_0_24,NA,NA,skipped,NA,429572,NA,NA,428973,429572,2023-11-28T16:05:15Z,429710.26,NULL,NA,NA,NA,NA,NA,NA,NA,NA,NA,24,NA,NA,NA,NA,NA,NA,NA,NA,NA,NA,NA,NA,NA,NA,NA,NA,NA,NA,NA
4f714,check continue,flow.Sequence,3_0_25,NA,NA,skipped,NA,429595,NA,NA,428973,429595,2023-11-28T16:05:15Z,429710.26,NULL,NA,NA,NA,NA,NA,NA,NA,NA,NA,25,NA,NA,NA,NA,NA,NA,NA,NA,NA,NA,NA,NA,NA,NA,NA,NA,NA,NA,NA
4f714,check continue,flow.Sequence,3_0_26,NA,NA,skipped,NA,429630,NA,NA,428973,429631,2023-11-28T16:05:15Z,429710.26,NULL,NA,NA,NA,NA,NA,NA,NA,NA,NA,26,NA,NA,NA,NA,NA,NA,NA,NA,NA,NA,NA,NA,NA,NA,NA,NA,NA,NA,NA
4f714,check continue,flow.Sequence,3_0_27,NA,NA,skipped,NA,429654,NA,NA,428973,429654,2023-11-28T16:05:15Z,429710.26,NULL,NA,NA,NA,NA,NA,NA,NA,NA,NA,27,NA,NA,NA,NA,NA,NA,NA,NA,NA,NA,NA,NA,NA,NA,NA,NA,NA,NA,NA
4f714,check continue,flow.Sequence,3_0_28,NA,NA,skipped,NA,429677,NA,NA,428973,429677,2023-11-28T16:05:15Z,429710.26,NULL,NA,NA,NA,NA,NA,NA,NA,NA,NA,28,NA,NA,NA,NA,NA,NA,NA,NA,NA,NA,NA,NA,NA,NA,NA,NA,NA,NA,NA
4f714,check continue,flow.Sequence,3_0_29,NA,NA,skipped,NA,429709,NA,NA,428973,429709,2023-11-28T16:05:16Z,429710.26,NULL,NA,NA,NA,NA,NA,NA,NA,NA,NA,29,NA,NA,NA,NA,NA,NA,NA,NA,NA,NA,NA,NA,NA,NA,NA,NA,NA,NA,NA
4f714,until continue,flow.Loop,3_0,NA,NA,completion,341101.16,87837,87871.54,87871.84,428973,429709,2023-11-28T16:05:16Z,429710.26,NULL,NA,NA,NA,NA,NA,NA,NA,NA,NA,NA,NA,NA,NA,NA,NA,NA,NA,NA,NA,NA,NA,NA,NA,NA,NA,NA,NA,NA,NA
4f714,block 1,flow.Sequence,3,NA,NA,completion,341101.16,87837,87871.54,87871.84,428973,429709,2023-11-28T16:05:16Z,429710.26,NULL,NA,NA,NA,NA,NA,NA,NA,NA,NA,NA,NA,NA,NA,NA,NA,NA,NA,NA,NA,NA,NA,NA,NA,NA,NA,NA,NA,NA,NA
4f714,1.Part Over,canvas.Screen,4,NA,keypress(Space),response,2918.74,429709,429709.96,429710.26,432629,432639,2023-11-28T16:05:18Z,432719.36,NULL,NA,NA,NA,NA,NA,NA,NA,NA,NA,NA,NA,NA,NA,NA,NA,NA,NA,NA,NA,NA,NA,NA,NA,NA,NA,NA,NA,NA,NA
4f714,deep,flow.Sequence,5_0_0_0_0_0,NA,NA,skipped,NA,432719,NA,NA,432629,432719,2023-11-28T16:05:19Z,432719.36,NULL,Sympathie,mapendano,s,dhamiria,fungamano,maazimio,NA,sdf,NA,0,NA,NA,NA,NA,NA,NA,NA,NA,NA,NA,NA,NA,NA,NA,NA,NA,NA,NA,NA
4f714,Shallow Question,html.Page,5_0_0_0_0_1_0,NA,NA,form submission,6720.64,432719,432719.02,432719.36,439440,439442,2023-11-28T16:05:25Z,439447.52,NULL,Sympathie,mapendano,s,dhamiria,fungamano,maazimio,dhamiria,NA,NA,0,NA,NA,NA,NA,NA,NA,NA,NA,NA,NA,NA,NA,NA,NA,NA,NA,NA,NA,NA
4f714,"""Richtig""-Screen",canvas.Screen,5_0_0_0_0_1_1,NA,NA,skipped,NA,439448,NA,NA,439440,439449,2023-11-28T16:05:25Z,439447.52,NULL,Sympathie,mapendano,s,dhamiria,fungamano,maazimio,NA,sdf,NA,0,NA,NA,NA,NA,NA,NA,NA,NA,NA,NA,NA,NA,NA,NA,NA,NA,NA,NA,NA
4f714,"""Falsch""-Screen",canvas.Screen,5_0_0_0_0_1_2,NA,NA,timeout,4999.4,439452,439438.84,439447.52,444430.34,444432,2023-11-28T16:05:30Z,444446.92,NULL,Sympathie,mapendano,s,dhamiria,fungamano,maazimio,NA,sdf,0,0,NA,NA,NA,NA,NA,NA,NA,NA,NA,NA,NA,NA,NA,NA,NA,NA,NA,NA,NA
4f714,shallow,flow.Sequence,5_0_0_0_0_1,NA,NA,completion,11710.98,432719,432719.02,432719.36,444430.34,444433,2023-11-28T16:05:30Z,444446.92,NULL,Sympathie,mapendano,s,dhamiria,fungamano,maazimio,NA,sdf,NA,0,NA,NA,NA,NA,NA,NA,NA,NA,NA,NA,NA,NA,NA,NA,NA,NA,NA,NA,NA
4f714,task,flow.Sequence,5_0_0_0_0,NA,NA,completion,11710.98,432719,432719.02,432719.36,444430.34,444433,2023-11-28T16:05:30Z,444446.92,NULL,Sympathie,mapendano,s,dhamiria,fungamano,maazimio,NA,sdf,NA,0,NA,NA,NA,NA,NA,NA,NA,NA,NA,NA,NA,NA,NA,NA,NA,NA,NA,NA,NA
4f714,Deep Question,html.Page,5_0_0_0_1_0_0,NA,NA,form submission,2021.08,444434,444430.34,444446.92,446468,446468,2023-11-28T16:05:32Z,446479.96,NULL,Beweis,ushahidi,d,NA,NA,NA,a,NA,NA,0,NA,NA,NA,NA,NA,NA,NA,NA,NA,NA,NA,NA,NA,NA,NA,NA,NA,NA,NA
4f714,"""Richtig""-Screen",canvas.Screen,5_0_0_0_1_0_1,NA,NA,skipped,NA,446471,NA,NA,446468,446471,2023-11-28T16:05:32Z,446479.96,NULL,Beweis,ushahidi,d,NA,NA,NA,NA,sdf,NA,0,NA,NA,NA,NA,NA,NA,NA,NA,NA,NA,NA,NA,NA,NA,NA,NA,NA,NA,NA
4f714,"""Falsch""-Screen",canvas.Screen,5_0_0_0_1_0_2,NA,NA,timeout,4999.4,446474,446466.42,446479.96,451463.16,451464,2023-11-28T16:05:37Z,451479.36,NULL,Beweis,ushahidi,d,NA,NA,NA,NA,sdf,0,0,NA,NA,NA,NA,NA,NA,NA,NA,NA,NA,NA,NA,NA,NA,NA,NA,NA,NA,NA
4f714,deep,flow.Sequence,5_0_0_0_1_0,NA,NA,completion,7016.24,444434,444430.34,444446.92,451463.16,451465,2023-11-28T16:05:37Z,451479.36,NULL,Beweis,ushahidi,d,NA,NA,NA,NA,sdf,NA,0,NA,NA,NA,NA,NA,NA,NA,NA,NA,NA,NA,NA,NA,NA,NA,NA,NA,NA,NA
4f714,shallow,flow.Sequence,5_0_0_0_1_1,NA,NA,skipped,NA,451466,NA,NA,451463.16,451466,2023-11-28T16:05:37Z,451479.36,NULL,Beweis,ushahidi,d,NA,NA,NA,NA,sdf,NA,0,NA,NA,NA,NA,NA,NA,NA,NA,NA,NA,NA,NA,NA,NA,NA,NA,NA,NA,NA
4f714,task,flow.Sequence,5_0_0_0_1,NA,NA,completion,7016.24,444433,444430.34,444446.92,451463.16,451467,2023-11-28T16:05:37Z,451479.36,NULL,Beweis,ushahidi,d,NA,NA,NA,NA,sdf,NA,0,NA,NA,NA,NA,NA,NA,NA,NA,NA,NA,NA,NA,NA,NA,NA,NA,NA,NA,NA
4f714,deep,flow.Sequence,5_0_0_0_2_0,NA,NA,skipped,NA,451468,NA,NA,451463.16,451468,2023-11-28T16:05:37Z,451479.36,NULL,Verzögerung,kuchelewa,s,mwakilishi,mwanauchumi,jaribio,NA,sdf,NA,0,NA,NA,NA,NA,NA,NA,NA,NA,NA,NA,NA,NA,NA,NA,NA,NA,NA,NA,NA
4f714,Shallow Question,html.Page,5_0_0_0_2_1_0,NA,NA,form submission,3945.64,451469,451463.16,451479.36,455425,455426,2023-11-28T16:05:41Z,455428.82,NULL,Verzögerung,kuchelewa,s,mwakilishi,mwanauchumi,jaribio,jaribio,NA,NA,0,NA,NA,NA,NA,NA,NA,NA,NA,NA,NA,NA,NA,NA,NA,NA,NA,NA,NA,NA
4f714,"""Richtig""-Screen",canvas.Screen,5_0_0_0_2_1_1,NA,NA,skipped,NA,455428,NA,NA,455425,455428,2023-11-28T16:05:41Z,455428.82,NULL,Verzögerung,kuchelewa,s,mwakilishi,mwanauchumi,jaribio,NA,sdf,NA,0,NA,NA,NA,NA,NA,NA,NA,NA,NA,NA,NA,NA,NA,NA,NA,NA,NA,NA,NA
4f714,"""Falsch""-Screen",canvas.Screen,5_0_0_0_2_1_2,NA,NA,timeout,4999.42,455432,455423.48,455428.82,460412.06,460414,2023-11-28T16:05:46Z,460428.24,NULL,Verzögerung,kuchelewa,s,mwakilishi,mwanauchumi,jaribio,NA,sdf,0,0,NA,NA,NA,NA,NA,NA,NA,NA,NA,NA,NA,NA,NA,NA,NA,NA,NA,NA,NA
4f714,shallow,flow.Sequence,5_0_0_0_2_1,NA,NA,completion,8932.7,451469,451463.16,451479.36,460412.06,460414,2023-11-28T16:05:46Z,460428.24,NULL,Verzögerung,kuchelewa,s,mwakilishi,mwanauchumi,jaribio,NA,sdf,NA,0,NA,NA,NA,NA,NA,NA,NA,NA,NA,NA,NA,NA,NA,NA,NA,NA,NA,NA,NA
4f714,task,flow.Sequence,5_0_0_0_2,NA,NA,completion,8932.7,451468,451463.16,451479.36,460412.06,460414,2023-11-28T16:05:46Z,460428.24,NULL,Verzögerung,kuchelewa,s,mwakilishi,mwanauchumi,jaribio,NA,sdf,NA,0,NA,NA,NA,NA,NA,NA,NA,NA,NA,NA,NA,NA,NA,NA,NA,NA,NA,NA,NA
4f714,deep,flow.Sequence,5_0_0_0_3_0,NA,NA,skipped,NA,460415,NA,NA,460412.06,460416,2023-11-28T16:05:46Z,460428.24,NULL,Annäherung,maegesho,s,madahili,kujiamini,mapendekezo,NA,sdf,NA,0,NA,NA,NA,NA,NA,NA,NA,NA,NA,NA,NA,NA,NA,NA,NA,NA,NA,NA,NA
4f714,Shallow Question,html.Page,5_0_0_0_3_1_0,NA,NA,form submission,8073.76,460416,460412.06,460428.24,468502,468503,2023-11-28T16:05:54Z,468510.48,NULL,Annäherung,maegesho,s,madahili,kujiamini,mapendekezo,madahili,NA,NA,0,NA,NA,NA,NA,NA,NA,NA,NA,NA,NA,NA,NA,NA,NA,NA,NA,NA,NA,NA
4f714,"""Richtig""-Screen",canvas.Screen,5_0_0_0_3_1_1,NA,NA,skipped,NA,468506,NA,NA,468502,468506,2023-11-28T16:05:54Z,468510.48,NULL,Annäherung,maegesho,s,madahili,kujiamini,mapendekezo,NA,sdf,NA,0,NA,NA,NA,NA,NA,NA,NA,NA,NA,NA,NA,NA,NA,NA,NA,NA,NA,NA,NA
4f714,"""Falsch""-Screen",canvas.Screen,5_0_0_0_3_1_2,NA,NA,timeout,4999.7,468510,468501.7,468510.48,473493.18,473494,2023-11-28T16:05:59Z,473510.18,NULL,Annäherung,maegesho,s,madahili,kujiamini,mapendekezo,NA,sdf,0,0,NA,NA,NA,NA,NA,NA,NA,NA,NA,NA,NA,NA,NA,NA,NA,NA,NA,NA,NA
4f714,shallow,flow.Sequence,5_0_0_0_3_1,NA,NA,completion,13064.94,460416,460412.06,460428.24,473493.18,473494,2023-11-28T16:05:59Z,473510.18,NULL,Annäherung,maegesho,s,madahili,kujiamini,mapendekezo,NA,sdf,NA,0,NA,NA,NA,NA,NA,NA,NA,NA,NA,NA,NA,NA,NA,NA,NA,NA,NA,NA,NA
4f714,task,flow.Sequence,5_0_0_0_3,NA,NA,completion,13064.94,460415,460412.06,460428.24,473493.18,473494,2023-11-28T16:05:59Z,473510.18,NULL,Annäherung,maegesho,s,madahili,kujiamini,mapendekezo,NA,sdf,NA,0,NA,NA,NA,NA,NA,NA,NA,NA,NA,NA,NA,NA,NA,NA,NA,NA,NA,NA,NA
4f714,Deep Question,html.Page,5_0_0_0_4_0_0,NA,NA,form submission,2085.82,473495,473493.18,473510.18,475596,475596,2023-11-28T16:06:01Z,475594.72,NULL,Aufstand,ugomaji,d,NA,NA,NA,a,NA,NA,0,NA,NA,NA,NA,NA,NA,NA,NA,NA,NA,NA,NA,NA,NA,NA,NA,NA,NA,NA
4f714,"""Richtig""-Screen",canvas.Screen,5_0_0_0_4_0_1,NA,NA,skipped,NA,475599,NA,NA,475596,475599,2023-11-28T16:06:01Z,475594.72,NULL,Aufstand,ugomaji,d,NA,NA,NA,NA,sdf,NA,0,NA,NA,NA,NA,NA,NA,NA,NA,NA,NA,NA,NA,NA,NA,NA,NA,NA,NA,NA
4f714,"""Falsch""-Screen",canvas.Screen,5_0_0_0_4_0_2,NA,NA,timeout,4997.6200000001,475601,475594.38,475594.72,480575.64,480577,2023-11-28T16:06:06Z,480592.34,NULL,Aufstand,ugomaji,d,NA,NA,NA,NA,sdf,0,0,NA,NA,NA,NA,NA,NA,NA,NA,NA,NA,NA,NA,NA,NA,NA,NA,NA,NA,NA
4f714,deep,flow.Sequence,5_0_0_0_4_0,NA,NA,completion,7065.46,473495,473493.18,473510.18,480575.64,480577,2023-11-28T16:06:06Z,480592.34,NULL,Aufstand,ugomaji,d,NA,NA,NA,NA,sdf,NA,0,NA,NA,NA,NA,NA,NA,NA,NA,NA,NA,NA,NA,NA,NA,NA,NA,NA,NA,NA
4f714,shallow,flow.Sequence,5_0_0_0_4_1,NA,NA,skipped,NA,480578,NA,NA,480575.64,480578,2023-11-28T16:06:06Z,480592.34,NULL,Aufstand,ugomaji,d,NA,NA,NA,NA,sdf,NA,0,NA,NA,NA,NA,NA,NA,NA,NA,NA,NA,NA,NA,NA,NA,NA,NA,NA,NA,NA
4f714,task,flow.Sequence,5_0_0_0_4,NA,NA,completion,7065.46,473494,473493.18,473510.18,480575.64,480578,2023-11-28T16:06:06Z,480592.34,NULL,Aufstand,ugomaji,d,NA,NA,NA,NA,sdf,NA,0,NA,NA,NA,NA,NA,NA,NA,NA,NA,NA,NA,NA,NA,NA,NA,NA,NA,NA,NA
4f714,Deep Question,html.Page,5_0_0_0_5_0_0,NA,NA,form submission,8420.66,480579,480575.64,480592.34,489013,489013,2023-11-28T16:06:15Z,489024.52,NULL,Prüfung,mtihani,d,NA,NA,NA,k,NA,NA,0,NA,NA,NA,NA,NA,NA,NA,NA,NA,NA,NA,NA,NA,NA,NA,NA,NA,NA,NA
4f714,"""Richtig""-Screen",canvas.Screen,5_0_0_0_5_0_1,NA,NA,skipped,NA,489015,NA,NA,489013,489015,2023-11-28T16:06:15Z,489024.52,NULL,Prüfung,mtihani,d,NA,NA,NA,NA,sdf,NA,0,NA,NA,NA,NA,NA,NA,NA,NA,NA,NA,NA,NA,NA,NA,NA,NA,NA,NA,NA
4f714,"""Falsch""-Screen",canvas.Screen,5_0_0_0_5_0_2,NA,NA,timeout,4999.4,489018,489011.12,489024.52,494007.58,494011,2023-11-28T16:06:20Z,494023.92,NULL,Prüfung,mtihani,d,NA,NA,NA,NA,sdf,0,0,NA,NA,NA,NA,NA,NA,NA,NA,NA,NA,NA,NA,NA,NA,NA,NA,NA,NA,NA
4f714,deep,flow.Sequence,5_0_0_0_5_0,NA,NA,completion,13415.24,480579,480575.64,480592.34,494007.58,494013,2023-11-28T16:06:20Z,494023.92,NULL,Prüfung,mtihani,d,NA,NA,NA,NA,sdf,NA,0,NA,NA,NA,NA,NA,NA,NA,NA,NA,NA,NA,NA,NA,NA,NA,NA,NA,NA,NA
4f714,shallow,flow.Sequence,5_0_0_0_5_1,NA,NA,skipped,NA,494013,NA,NA,494007.58,494014,2023-11-28T16:06:20Z,494023.92,NULL,Prüfung,mtihani,d,NA,NA,NA,NA,sdf,NA,0,NA,NA,NA,NA,NA,NA,NA,NA,NA,NA,NA,NA,NA,NA,NA,NA,NA,NA,NA
4f714,task,flow.Sequence,5_0_0_0_5,NA,NA,completion,13415.24,480579,480575.64,480592.34,494007.58,494016,2023-11-28T16:06:20Z,494023.92,NULL,Prüfung,mtihani,d,NA,NA,NA,NA,sdf,NA,0,NA,NA,NA,NA,NA,NA,NA,NA,NA,NA,NA,NA,NA,NA,NA,NA,NA,NA,NA
4f714,Deep Question,html.Page,5_0_0_0_6_0_0,NA,NA,form submission,2356.08,494017,494007.58,494023.92,496380,496381,2023-11-28T16:06:22Z,496390.24,NULL,Polizist,msongora,d,NA,NA,NA,a,NA,NA,0,NA,NA,NA,NA,NA,NA,NA,NA,NA,NA,NA,NA,NA,NA,NA,NA,NA,NA,NA
4f714,"""Richtig""-Screen",canvas.Screen,5_0_0_0_6_0_1,NA,NA,skipped,NA,496389,NA,NA,496380,496389,2023-11-28T16:06:22Z,496390.24,NULL,Polizist,msongora,d,NA,NA,NA,NA,sdf,NA,0,NA,NA,NA,NA,NA,NA,NA,NA,NA,NA,NA,NA,NA,NA,NA,NA,NA,NA,NA
4f714,"""Falsch""-Screen",canvas.Screen,5_0_0_0_6_0_2,NA,NA,timeout,4999.4,496393,496379.7,496390.24,501373.26,501374,2023-11-28T16:06:27Z,501389.64,NULL,Polizist,msongora,d,NA,NA,NA,NA,sdf,0,0,NA,NA,NA,NA,NA,NA,NA,NA,NA,NA,NA,NA,NA,NA,NA,NA,NA,NA,NA
4f714,deep,flow.Sequence,5_0_0_0_6_0,NA,NA,completion,7349.34,494017,494007.58,494023.92,501373.26,501375,2023-11-28T16:06:27Z,501389.64,NULL,Polizist,msongora,d,NA,NA,NA,NA,sdf,NA,0,NA,NA,NA,NA,NA,NA,NA,NA,NA,NA,NA,NA,NA,NA,NA,NA,NA,NA,NA
4f714,shallow,flow.Sequence,5_0_0_0_6_1,NA,NA,skipped,NA,501376,NA,NA,501373.26,501376,2023-11-28T16:06:27Z,501389.64,NULL,Polizist,msongora,d,NA,NA,NA,NA,sdf,NA,0,NA,NA,NA,NA,NA,NA,NA,NA,NA,NA,NA,NA,NA,NA,NA,NA,NA,NA,NA
4f714,task,flow.Sequence,5_0_0_0_6,NA,NA,completion,7349.34,494016,494007.58,494023.92,501373.26,501377,2023-11-28T16:06:27Z,501389.64,NULL,Polizist,msongora,d,NA,NA,NA,NA,sdf,NA,0,NA,NA,NA,NA,NA,NA,NA,NA,NA,NA,NA,NA,NA,NA,NA,NA,NA,NA,NA
4f714,deep,flow.Sequence,5_0_0_0_7_0,NA,NA,skipped,NA,501378,NA,NA,501373.26,501378,2023-11-28T16:06:27Z,501389.64,NULL,Kultur,utamaduni,s,shetani,gerezani,mazingira,NA,sdf,NA,0,NA,NA,NA,NA,NA,NA,NA,NA,NA,NA,NA,NA,NA,NA,NA,NA,NA,NA,NA
4f714,Shallow Question,html.Page,5_0_0_0_7_1_0,NA,NA,form submission,4272.36,501379,501373.26,501389.64,505662,505663,2023-11-28T16:06:31Z,505672.4,NULL,Kultur,utamaduni,s,shetani,gerezani,mazingira,shetani,NA,NA,0,NA,NA,NA,NA,NA,NA,NA,NA,NA,NA,NA,NA,NA,NA,NA,NA,NA,NA,NA
4f714,"""Richtig""-Screen",canvas.Screen,5_0_0_0_7_1_1,NA,NA,skipped,NA,505666,NA,NA,505662,505667,2023-11-28T16:06:31Z,505672.4,NULL,Kultur,utamaduni,s,shetani,gerezani,mazingira,NA,sdf,NA,0,NA,NA,NA,NA,NA,NA,NA,NA,NA,NA,NA,NA,NA,NA,NA,NA,NA,NA,NA
4f714,"""Falsch""-Screen",canvas.Screen,5_0_0_0_7_1_2,NA,NA,timeout,4999.46,505670,505661.1,505672.4,510655.24,510657,2023-11-28T16:06:36Z,510671.86,NULL,Kultur,utamaduni,s,shetani,gerezani,mazingira,NA,sdf,0,0,NA,NA,NA,NA,NA,NA,NA,NA,NA,NA,NA,NA,NA,NA,NA,NA,NA,NA,NA
4f714,shallow,flow.Sequence,5_0_0_0_7_1,NA,NA,completion,9265.6,501379,501373.26,501389.64,510655.24,510657,2023-11-28T16:06:36Z,510671.86,NULL,Kultur,utamaduni,s,shetani,gerezani,mazingira,NA,sdf,NA,0,NA,NA,NA,NA,NA,NA,NA,NA,NA,NA,NA,NA,NA,NA,NA,NA,NA,NA,NA
4f714,task,flow.Sequence,5_0_0_0_7,NA,NA,completion,9265.6,501377,501373.26,501389.64,510655.24,510658,2023-11-28T16:06:36Z,510671.86,NULL,Kultur,utamaduni,s,shetani,gerezani,mazingira,NA,sdf,NA,0,NA,NA,NA,NA,NA,NA,NA,NA,NA,NA,NA,NA,NA,NA,NA,NA,NA,NA,NA
4f714,block,flow.Loop,5_0_0_0,NA,NA,completion,77935.88,432719,432719.02,432719.36,510655.24,510658,2023-11-28T16:06:36Z,510671.86,NULL,NA,NA,NA,NA,NA,NA,NA,sdf,NA,0,NA,NA,NA,NA,NA,NA,NA,NA,NA,NA,NA,NA,NA,NA,NA,NA,NA,NA,NA
4f714,weiter,canvas.Screen,5_0_0_1,sdf,keypress(Space),response,1021.14,510659,510655.24,510671.86,511693,511697,2023-11-28T16:06:37Z,511766,NULL,NA,NA,NA,NA,NA,NA,NA,sdf,NA,0,NA,NA,NA,NA,NA,NA,NA,NA,NA,NA,NA,NA,NA,NA,NA,NA,NA,NA,NA
4f714,check continue,flow.Sequence,5_0_0,NA,NA,completion,78973.64,432719,432719.02,432719.36,511693,511698,2023-11-28T16:06:37Z,511766,NULL,NA,NA,NA,NA,NA,NA,NA,sdf,NA,0,NA,NA,NA,NA,NA,NA,NA,NA,NA,NA,NA,NA,NA,NA,NA,NA,NA,NA,NA
4f714,deep,flow.Sequence,5_0_1_0_0_0,NA,NA,skipped,NA,511765,NA,NA,511693,511765,2023-11-28T16:06:38Z,511766,NULL,Verzögerung,kuchelewa,s,mwakilishi,mwanauchumi,jaribio,NA,sdfdsf,NA,1,NA,NA,NA,NA,NA,NA,NA,NA,NA,NA,NA,NA,NA,NA,NA,NA,NA,NA,NA
4f714,Shallow Question,html.Page,5_0_1_0_0_1_0,NA,NA,form submission,2973,511766,511765.66,511766,514739,514739,2023-11-28T16:06:41Z,514737.9,NULL,Verzögerung,kuchelewa,s,mwakilishi,mwanauchumi,jaribio,kuchelewa,NA,NA,1,NA,NA,NA,NA,NA,NA,NA,NA,NA,NA,NA,NA,NA,NA,NA,NA,NA,NA,NA
4f714,"""Richtig""-Screen",canvas.Screen,5_0_1_0_0_1_1,NA,NA,timeout,4999.34,514742,514737.58,514737.9,519720.62,519721,2023-11-28T16:06:46Z,519737.24,NULL,Verzögerung,kuchelewa,s,mwakilishi,mwanauchumi,jaribio,NA,sdfdsf,1,1,NA,NA,NA,NA,NA,NA,NA,NA,NA,NA,NA,NA,NA,NA,NA,NA,NA,NA,NA
4f714,"""Falsch""-Screen",canvas.Screen,5_0_1_0_0_1_2,NA,NA,skipped,NA,519725,NA,NA,519720.62,519725,2023-11-28T16:06:46Z,519737.24,NULL,Verzögerung,kuchelewa,s,mwakilishi,mwanauchumi,jaribio,NA,sdfdsf,NA,1,NA,NA,NA,NA,NA,NA,NA,NA,NA,NA,NA,NA,NA,NA,NA,NA,NA,NA,NA
4f714,shallow,flow.Sequence,5_0_1_0_0_1,NA,NA,completion,7954.62,511765,511765.66,511766,519720.62,519725,2023-11-28T16:06:46Z,519737.24,NULL,Verzögerung,kuchelewa,s,mwakilishi,mwanauchumi,jaribio,NA,sdfdsf,NA,1,NA,NA,NA,NA,NA,NA,NA,NA,NA,NA,NA,NA,NA,NA,NA,NA,NA,NA,NA
4f714,task,flow.Sequence,5_0_1_0_0,NA,NA,completion,7954.62,511765,511765.66,511766,519720.62,519725,2023-11-28T16:06:46Z,519737.24,NULL,Verzögerung,kuchelewa,s,mwakilishi,mwanauchumi,jaribio,NA,sdfdsf,NA,1,NA,NA,NA,NA,NA,NA,NA,NA,NA,NA,NA,NA,NA,NA,NA,NA,NA,NA,NA
4f714,Deep Question,html.Page,5_0_1_0_1_0_0,NA,NA,form submission,3344.76,519725,519720.62,519737.24,523082,523083,2023-11-28T16:06:49Z,523086.84,NULL,Prüfung,mtihani,d,NA,NA,NA,l,NA,NA,1,NA,NA,NA,NA,NA,NA,NA,NA,NA,NA,NA,NA,NA,NA,NA,NA,NA,NA,NA
4f714,"""Richtig""-Screen",canvas.Screen,5_0_1_0_1_0_1,NA,NA,skipped,NA,523085,NA,NA,523082,523085,2023-11-28T16:06:49Z,523086.84,NULL,Prüfung,mtihani,d,NA,NA,NA,NA,sdfdsf,NA,1,NA,NA,NA,NA,NA,NA,NA,NA,NA,NA,NA,NA,NA,NA,NA,NA,NA,NA,NA
4f714,"""Falsch""-Screen",canvas.Screen,5_0_1_0_1_0_2,NA,NA,timeout,4999.34,523088,523081.08,523086.84,528069.68,528071,2023-11-28T16:06:54Z,528086.18,NULL,Prüfung,mtihani,d,NA,NA,NA,NA,sdfdsf,0,1,NA,NA,NA,NA,NA,NA,NA,NA,NA,NA,NA,NA,NA,NA,NA,NA,NA,NA,NA
4f714,deep,flow.Sequence,5_0_1_0_1_0,NA,NA,completion,8332.4400000001,519725,519720.62,519737.24,528069.68,528071,2023-11-28T16:06:54Z,528086.18,NULL,Prüfung,mtihani,d,NA,NA,NA,NA,sdfdsf,NA,1,NA,NA,NA,NA,NA,NA,NA,NA,NA,NA,NA,NA,NA,NA,NA,NA,NA,NA,NA
4f714,shallow,flow.Sequence,5_0_1_0_1_1,NA,NA,skipped,NA,528071,NA,NA,528069.68,528072,2023-11-28T16:06:54Z,528086.18,NULL,Prüfung,mtihani,d,NA,NA,NA,NA,sdfdsf,NA,1,NA,NA,NA,NA,NA,NA,NA,NA,NA,NA,NA,NA,NA,NA,NA,NA,NA,NA,NA
4f714,task,flow.Sequence,5_0_1_0_1,NA,NA,completion,8332.4400000001,519725,519720.62,519737.24,528069.68,528072,2023-11-28T16:06:54Z,528086.18,NULL,Prüfung,mtihani,d,NA,NA,NA,NA,sdfdsf,NA,1,NA,NA,NA,NA,NA,NA,NA,NA,NA,NA,NA,NA,NA,NA,NA,NA,NA,NA,NA
4f714,deep,flow.Sequence,5_0_1_0_2_0,NA,NA,skipped,NA,528072,NA,NA,528069.68,528073,2023-11-28T16:06:54Z,528086.18,NULL,Annäherung,maegesho,s,madahili,kujiamini,mapendekezo,NA,sdfdsf,NA,1,NA,NA,NA,NA,NA,NA,NA,NA,NA,NA,NA,NA,NA,NA,NA,NA,NA,NA,NA
4f714,Shallow Question,html.Page,5_0_1_0_2_1_0,NA,NA,form submission,7473.8199999999,528073,528069.68,528086.18,535560,535560,2023-11-28T16:07:01Z,535559.2,NULL,Annäherung,maegesho,s,madahili,kujiamini,mapendekezo,maegesho,NA,NA,1,NA,NA,NA,NA,NA,NA,NA,NA,NA,NA,NA,NA,NA,NA,NA,NA,NA,NA,NA
4f714,"""Richtig""-Screen",canvas.Screen,5_0_1_0_2_1_1,NA,NA,timeout,4992.1800000001,535563,535558.88,535559.2,540534.68,540536,2023-11-28T16:07:06Z,540551.38,NULL,Annäherung,maegesho,s,madahili,kujiamini,mapendekezo,NA,sdfdsf,1,1,NA,NA,NA,NA,NA,NA,NA,NA,NA,NA,NA,NA,NA,NA,NA,NA,NA,NA,NA
4f714,"""Falsch""-Screen",canvas.Screen,5_0_1_0_2_1_2,NA,NA,skipped,NA,540540,NA,NA,540534.68,540540,2023-11-28T16:07:06Z,540551.38,NULL,Annäherung,maegesho,s,madahili,kujiamini,mapendekezo,NA,sdfdsf,NA,1,NA,NA,NA,NA,NA,NA,NA,NA,NA,NA,NA,NA,NA,NA,NA,NA,NA,NA,NA
4f714,shallow,flow.Sequence,5_0_1_0_2_1,NA,NA,completion,12448.5,528073,528069.68,528086.18,540534.68,540540,2023-11-28T16:07:06Z,540551.38,NULL,Annäherung,maegesho,s,madahili,kujiamini,mapendekezo,NA,sdfdsf,NA,1,NA,NA,NA,NA,NA,NA,NA,NA,NA,NA,NA,NA,NA,NA,NA,NA,NA,NA,NA
4f714,task,flow.Sequence,5_0_1_0_2,NA,NA,completion,12448.5,528072,528069.68,528086.18,540534.68,540541,2023-11-28T16:07:06Z,540551.38,NULL,Annäherung,maegesho,s,madahili,kujiamini,mapendekezo,NA,sdfdsf,NA,1,NA,NA,NA,NA,NA,NA,NA,NA,NA,NA,NA,NA,NA,NA,NA,NA,NA,NA,NA
4f714,Deep Question,html.Page,5_0_1_0_3_0_0,NA,NA,form submission,2596.62,540541,540534.68,540551.38,543148,543148,2023-11-28T16:07:09Z,543150.96,NULL,Aufstand,ugomaji,d,NA,NA,NA,k,NA,NA,1,NA,NA,NA,NA,NA,NA,NA,NA,NA,NA,NA,NA,NA,NA,NA,NA,NA,NA,NA
4f714,"""Richtig""-Screen",canvas.Screen,5_0_1_0_3_0_1,NA,NA,skipped,NA,543150,NA,NA,543148,543151,2023-11-28T16:07:09Z,543150.96,NULL,Aufstand,ugomaji,d,NA,NA,NA,NA,sdfdsf,NA,1,NA,NA,NA,NA,NA,NA,NA,NA,NA,NA,NA,NA,NA,NA,NA,NA,NA,NA,NA
4f714,"""Falsch""-Screen",canvas.Screen,5_0_1_0_3_0_2,NA,NA,timeout,4999.42,543154,543146.8,543150.96,548133.78,548136,2023-11-28T16:07:14Z,548150.38,NULL,Aufstand,ugomaji,d,NA,NA,NA,NA,sdfdsf,0,1,NA,NA,NA,NA,NA,NA,NA,NA,NA,NA,NA,NA,NA,NA,NA,NA,NA,NA,NA
4f714,deep,flow.Sequence,5_0_1_0_3_0,NA,NA,completion,7582.4,540541,540534.68,540551.38,548133.78,548139,2023-11-28T16:07:14Z,548150.38,NULL,Aufstand,ugomaji,d,NA,NA,NA,NA,sdfdsf,NA,1,NA,NA,NA,NA,NA,NA,NA,NA,NA,NA,NA,NA,NA,NA,NA,NA,NA,NA,NA
4f714,shallow,flow.Sequence,5_0_1_0_3_1,NA,NA,skipped,NA,548140,NA,NA,548133.78,548140,2023-11-28T16:07:14Z,548150.38,NULL,Aufstand,ugomaji,d,NA,NA,NA,NA,sdfdsf,NA,1,NA,NA,NA,NA,NA,NA,NA,NA,NA,NA,NA,NA,NA,NA,NA,NA,NA,NA,NA
4f714,task,flow.Sequence,5_0_1_0_3,NA,NA,completion,7582.4,540541,540534.68,540551.38,548133.78,548140,2023-11-28T16:07:14Z,548150.38,NULL,Aufstand,ugomaji,d,NA,NA,NA,NA,sdfdsf,NA,1,NA,NA,NA,NA,NA,NA,NA,NA,NA,NA,NA,NA,NA,NA,NA,NA,NA,NA,NA
4f714,Deep Question,html.Page,5_0_1_0_4_0_0,NA,NA,form submission,3897.62,548142,548133.78,548150.38,552048,552048,2023-11-28T16:07:18Z,552049.74,NULL,Polizist,msongora,d,NA,NA,NA,k,NA,NA,1,NA,NA,NA,NA,NA,NA,NA,NA,NA,NA,NA,NA,NA,NA,NA,NA,NA,NA,NA
4f714,"""Richtig""-Screen",canvas.Screen,5_0_1_0_4_0_1,NA,NA,skipped,NA,552054,NA,NA,552048,552055,2023-11-28T16:07:18Z,552049.74,NULL,Polizist,msongora,d,NA,NA,NA,NA,sdfdsf,NA,1,NA,NA,NA,NA,NA,NA,NA,NA,NA,NA,NA,NA,NA,NA,NA,NA,NA,NA,NA
4f714,"""Falsch""-Screen",canvas.Screen,5_0_1_0_4_0_2,NA,NA,timeout,4999.58,552057,552045.94,552049.74,557033,557034,2023-11-28T16:07:23Z,557049.32,NULL,Polizist,msongora,d,NA,NA,NA,NA,sdfdsf,0,1,NA,NA,NA,NA,NA,NA,NA,NA,NA,NA,NA,NA,NA,NA,NA,NA,NA,NA,NA
4f714,deep,flow.Sequence,5_0_1_0_4_0,NA,NA,completion,8882.62,548141,548133.78,548150.38,557033,557035,2023-11-28T16:07:23Z,557049.32,NULL,Polizist,msongora,d,NA,NA,NA,NA,sdfdsf,NA,1,NA,NA,NA,NA,NA,NA,NA,NA,NA,NA,NA,NA,NA,NA,NA,NA,NA,NA,NA
4f714,shallow,flow.Sequence,5_0_1_0_4_1,NA,NA,skipped,NA,557036,NA,NA,557033,557036,2023-11-28T16:07:23Z,557049.32,NULL,Polizist,msongora,d,NA,NA,NA,NA,sdfdsf,NA,1,NA,NA,NA,NA,NA,NA,NA,NA,NA,NA,NA,NA,NA,NA,NA,NA,NA,NA,NA
4f714,task,flow.Sequence,5_0_1_0_4,NA,NA,completion,8882.62,548141,548133.78,548150.38,557033,557037,2023-11-28T16:07:23Z,557049.32,NULL,Polizist,msongora,d,NA,NA,NA,NA,sdfdsf,NA,1,NA,NA,NA,NA,NA,NA,NA,NA,NA,NA,NA,NA,NA,NA,NA,NA,NA,NA,NA
4f714,Deep Question,html.Page,5_0_1_0_5_0_0,NA,NA,form submission,2830.6800000001,557037,557033,557049.32,559880,559881,2023-11-28T16:07:26Z,559882.16,NULL,Beweis,ushahidi,d,NA,NA,NA,a,NA,NA,1,NA,NA,NA,NA,NA,NA,NA,NA,NA,NA,NA,NA,NA,NA,NA,NA,NA,NA,NA
4f714,"""Richtig""-Screen",canvas.Screen,5_0_1_0_5_0_1,NA,NA,skipped,NA,559884,NA,NA,559880,559884,2023-11-28T16:07:26Z,559882.16,NULL,Beweis,ushahidi,d,NA,NA,NA,NA,sdfdsf,NA,1,NA,NA,NA,NA,NA,NA,NA,NA,NA,NA,NA,NA,NA,NA,NA,NA,NA,NA,NA
4f714,"""Falsch""-Screen",canvas.Screen,5_0_1_0_5_0_2,NA,NA,timeout,4999.36,559887,559874.14,559882.16,564864.92,564866,2023-11-28T16:07:31Z,564881.52,NULL,Beweis,ushahidi,d,NA,NA,NA,NA,sdfdsf,0,1,NA,NA,NA,NA,NA,NA,NA,NA,NA,NA,NA,NA,NA,NA,NA,NA,NA,NA,NA
4f714,deep,flow.Sequence,5_0_1_0_5_0,NA,NA,completion,7815.6000000001,557037,557033,557049.32,564864.92,564867,2023-11-28T16:07:31Z,564881.52,NULL,Beweis,ushahidi,d,NA,NA,NA,NA,sdfdsf,NA,1,NA,NA,NA,NA,NA,NA,NA,NA,NA,NA,NA,NA,NA,NA,NA,NA,NA,NA,NA
4f714,shallow,flow.Sequence,5_0_1_0_5_1,NA,NA,skipped,NA,564867,NA,NA,564864.92,564868,2023-11-28T16:07:31Z,564881.52,NULL,Beweis,ushahidi,d,NA,NA,NA,NA,sdfdsf,NA,1,NA,NA,NA,NA,NA,NA,NA,NA,NA,NA,NA,NA,NA,NA,NA,NA,NA,NA,NA
4f714,task,flow.Sequence,5_0_1_0_5,NA,NA,completion,7815.6000000001,557037,557033,557049.32,564864.92,564868,2023-11-28T16:07:31Z,564881.52,NULL,Beweis,ushahidi,d,NA,NA,NA,NA,sdfdsf,NA,1,NA,NA,NA,NA,NA,NA,NA,NA,NA,NA,NA,NA,NA,NA,NA,NA,NA,NA,NA
4f714,deep,flow.Sequence,5_0_1_0_6_0,NA,NA,skipped,NA,564868,NA,NA,564864.92,564869,2023-11-28T16:07:31Z,564881.52,NULL,Kultur,utamaduni,s,shetani,gerezani,mazingira,NA,sdfdsf,NA,1,NA,NA,NA,NA,NA,NA,NA,NA,NA,NA,NA,NA,NA,NA,NA,NA,NA,NA,NA
4f714,Shallow Question,html.Page,5_0_1_0_6_1_0,NA,NA,form submission,9150.48,564869,564864.92,564881.52,574032,574032,2023-11-28T16:07:40Z,574030.66,NULL,Kultur,utamaduni,s,shetani,gerezani,mazingira,utamaduni,NA,NA,1,NA,NA,NA,NA,NA,NA,NA,NA,NA,NA,NA,NA,NA,NA,NA,NA,NA,NA,NA
4f714,"""Richtig""-Screen",canvas.Screen,5_0_1_0_6_1_1,NA,NA,timeout,4999.1,574036,574030.3,574030.66,579013.16,579014,2023-11-28T16:07:45Z,579029.76,NULL,Kultur,utamaduni,s,shetani,gerezani,mazingira,NA,sdfdsf,1,1,NA,NA,NA,NA,NA,NA,NA,NA,NA,NA,NA,NA,NA,NA,NA,NA,NA,NA,NA
4f714,"""Falsch""-Screen",canvas.Screen,5_0_1_0_6_1_2,NA,NA,skipped,NA,579020,NA,NA,579013.16,579020,2023-11-28T16:07:45Z,579029.76,NULL,Kultur,utamaduni,s,shetani,gerezani,mazingira,NA,sdfdsf,NA,1,NA,NA,NA,NA,NA,NA,NA,NA,NA,NA,NA,NA,NA,NA,NA,NA,NA,NA,NA
4f714,shallow,flow.Sequence,5_0_1_0_6_1,NA,NA,completion,14131.64,564869,564864.92,564881.52,579013.16,579021,2023-11-28T16:07:45Z,579029.76,NULL,Kultur,utamaduni,s,shetani,gerezani,mazingira,NA,sdfdsf,NA,1,NA,NA,NA,NA,NA,NA,NA,NA,NA,NA,NA,NA,NA,NA,NA,NA,NA,NA,NA
4f714,task,flow.Sequence,5_0_1_0_6,NA,NA,completion,14131.64,564868,564864.92,564881.52,579013.16,579021,2023-11-28T16:07:45Z,579029.76,NULL,Kultur,utamaduni,s,shetani,gerezani,mazingira,NA,sdfdsf,NA,1,NA,NA,NA,NA,NA,NA,NA,NA,NA,NA,NA,NA,NA,NA,NA,NA,NA,NA,NA
4f714,deep,flow.Sequence,5_0_1_0_7_0,NA,NA,skipped,NA,579022,NA,NA,579013.16,579022,2023-11-28T16:07:45Z,579029.76,NULL,Sympathie,mapendano,s,dhamiria,fungamano,maazimio,NA,sdfdsf,NA,1,NA,NA,NA,NA,NA,NA,NA,NA,NA,NA,NA,NA,NA,NA,NA,NA,NA,NA,NA
4f714,Shallow Question,html.Page,5_0_1_0_7_1_0,NA,NA,form submission,4211.24,579022,579013.16,579029.76,583241,583241,2023-11-28T16:07:49Z,583245.82,NULL,Sympathie,mapendano,s,dhamiria,fungamano,maazimio,mapendano,NA,NA,1,NA,NA,NA,NA,NA,NA,NA,NA,NA,NA,NA,NA,NA,NA,NA,NA,NA,NA,NA
4f714,"""Richtig""-Screen",canvas.Screen,5_0_1_0_7_1_1,NA,NA,timeout,4999.4,583244,583239.94,583245.82,588228.98,588231,2023-11-28T16:07:54Z,588245.22,NULL,Sympathie,mapendano,s,dhamiria,fungamano,maazimio,NA,sdfdsf,1,1,NA,NA,NA,NA,NA,NA,NA,NA,NA,NA,NA,NA,NA,NA,NA,NA,NA,NA,NA
4f714,"""Falsch""-Screen",canvas.Screen,5_0_1_0_7_1_2,NA,NA,skipped,NA,588237,NA,NA,588228.98,588237,2023-11-28T16:07:54Z,588245.22,NULL,Sympathie,mapendano,s,dhamiria,fungamano,maazimio,NA,sdfdsf,NA,1,NA,NA,NA,NA,NA,NA,NA,NA,NA,NA,NA,NA,NA,NA,NA,NA,NA,NA,NA
4f714,shallow,flow.Sequence,5_0_1_0_7_1,NA,NA,completion,9199.22,579022,579013.16,579029.76,588228.98,588238,2023-11-28T16:07:54Z,588245.22,NULL,Sympathie,mapendano,s,dhamiria,fungamano,maazimio,NA,sdfdsf,NA,1,NA,NA,NA,NA,NA,NA,NA,NA,NA,NA,NA,NA,NA,NA,NA,NA,NA,NA,NA
4f714,task,flow.Sequence,5_0_1_0_7,NA,NA,completion,9199.22,579022,579013.16,579029.76,588228.98,588238,2023-11-28T16:07:54Z,588245.22,NULL,Sympathie,mapendano,s,dhamiria,fungamano,maazimio,NA,sdfdsf,NA,1,NA,NA,NA,NA,NA,NA,NA,NA,NA,NA,NA,NA,NA,NA,NA,NA,NA,NA,NA
4f714,block,flow.Loop,5_0_1_0,NA,NA,completion,76462.98,511765,511765.66,511766,588228.98,588240,2023-11-28T16:07:54Z,588245.22,NULL,NA,NA,NA,NA,NA,NA,NA,sdfdsf,NA,1,NA,NA,NA,NA,NA,NA,NA,NA,NA,NA,NA,NA,NA,NA,NA,NA,NA,NA,NA
4f714,weiter,canvas.Screen,5_0_1_1,sdf,keypress(Space),response,1603.78,588240,588228.98,588245.22,589849,589856,2023-11-28T16:07:56Z,589913.62,NULL,NA,NA,NA,NA,NA,NA,NA,sdfdsf,NA,1,NA,NA,NA,NA,NA,NA,NA,NA,NA,NA,NA,NA,NA,NA,NA,NA,NA,NA,NA
4f714,check continue,flow.Sequence,5_0_1,NA,NA,completion,78083,511765,511765.66,511766,589849,589856,2023-11-28T16:07:56Z,589913.62,NULL,NA,NA,NA,NA,NA,NA,NA,sdfdsf,NA,1,NA,NA,NA,NA,NA,NA,NA,NA,NA,NA,NA,NA,NA,NA,NA,NA,NA,NA,NA
4f714,deep,flow.Sequence,5_0_2_0_0_0,NA,NA,skipped,NA,589913,NA,NA,589849,589913,2023-11-28T16:07:56Z,589913.62,NULL,Annäherung,maegesho,s,madahili,kujiamini,mapendekezo,NA,sdf,NA,2,NA,NA,NA,NA,NA,NA,NA,NA,NA,NA,NA,NA,NA,NA,NA,NA,NA,NA,NA
4f714,Shallow Question,html.Page,5_0_2_0_0_1_0,NA,NA,form submission,4170.38,589913,589913.28,589913.62,594084,594084,2023-11-28T16:08:00Z,594082.9,NULL,Annäherung,maegesho,s,madahili,kujiamini,mapendekezo,maegesho,NA,NA,2,NA,NA,NA,NA,NA,NA,NA,NA,NA,NA,NA,NA,NA,NA,NA,NA,NA,NA,NA
4f714,"""Richtig""-Screen",canvas.Screen,5_0_2_0_0_1_1,NA,NA,timeout,4994.24,594086,594082.52,594082.9,599060.56,599062,2023-11-28T16:08:05Z,599077.14,NULL,Annäherung,maegesho,s,madahili,kujiamini,mapendekezo,NA,sdf,1,2,NA,NA,NA,NA,NA,NA,NA,NA,NA,NA,NA,NA,NA,NA,NA,NA,NA,NA,NA
4f714,"""Falsch""-Screen",canvas.Screen,5_0_2_0_0_1_2,NA,NA,skipped,NA,599068,NA,NA,599060.56,599069,2023-11-28T16:08:05Z,599077.14,NULL,Annäherung,maegesho,s,madahili,kujiamini,mapendekezo,NA,sdf,NA,2,NA,NA,NA,NA,NA,NA,NA,NA,NA,NA,NA,NA,NA,NA,NA,NA,NA,NA,NA
4f714,shallow,flow.Sequence,5_0_2_0_0_1,NA,NA,completion,9146.9400000001,589913,589913.28,589913.62,599060.56,599069,2023-11-28T16:08:05Z,599077.14,NULL,Annäherung,maegesho,s,madahili,kujiamini,mapendekezo,NA,sdf,NA,2,NA,NA,NA,NA,NA,NA,NA,NA,NA,NA,NA,NA,NA,NA,NA,NA,NA,NA,NA
4f714,task,flow.Sequence,5_0_2_0_0,NA,NA,completion,9146.9400000001,589913,589913.28,589913.62,599060.56,599070,2023-11-28T16:08:05Z,599077.14,NULL,Annäherung,maegesho,s,madahili,kujiamini,mapendekezo,NA,sdf,NA,2,NA,NA,NA,NA,NA,NA,NA,NA,NA,NA,NA,NA,NA,NA,NA,NA,NA,NA,NA
4f714,Deep Question,html.Page,5_0_2_0_1_0_0,NA,NA,form submission,6120.86,599070,599060.56,599077.14,605198,605201,2023-11-28T16:08:11Z,605209.74,NULL,Aufstand,ugomaji,d,NA,NA,NA,udomaji,NA,NA,2,NA,NA,NA,NA,NA,NA,NA,NA,NA,NA,NA,NA,NA,NA,NA,NA,NA,NA,NA
4f714,"""Richtig""-Screen",canvas.Screen,5_0_2_0_1_0_1,NA,NA,skipped,NA,605208,NA,NA,605198,605208,2023-11-28T16:08:11Z,605209.74,NULL,Aufstand,ugomaji,d,NA,NA,NA,NA,sdf,NA,2,NA,NA,NA,NA,NA,NA,NA,NA,NA,NA,NA,NA,NA,NA,NA,NA,NA,NA,NA
4f714,"""Falsch""-Screen",canvas.Screen,5_0_2_0_1_0_2,NA,NA,timeout,4999.42,605211,605197.18,605209.74,610192.9,610194,2023-11-28T16:08:16Z,610209.16,NULL,Aufstand,ugomaji,d,NA,NA,NA,NA,sdf,0,2,NA,NA,NA,NA,NA,NA,NA,NA,NA,NA,NA,NA,NA,NA,NA,NA,NA,NA,NA
4f714,deep,flow.Sequence,5_0_2_0_1_0,NA,NA,completion,11115.76,599070,599060.56,599077.14,610192.9,610195,2023-11-28T16:08:16Z,610209.16,NULL,Aufstand,ugomaji,d,NA,NA,NA,NA,sdf,NA,2,NA,NA,NA,NA,NA,NA,NA,NA,NA,NA,NA,NA,NA,NA,NA,NA,NA,NA,NA
4f714,shallow,flow.Sequence,5_0_2_0_1_1,NA,NA,skipped,NA,610196,NA,NA,610192.9,610196,2023-11-28T16:08:16Z,610209.16,NULL,Aufstand,ugomaji,d,NA,NA,NA,NA,sdf,NA,2,NA,NA,NA,NA,NA,NA,NA,NA,NA,NA,NA,NA,NA,NA,NA,NA,NA,NA,NA
4f714,task,flow.Sequence,5_0_2_0_1,NA,NA,completion,11115.76,599070,599060.56,599077.14,610192.9,610197,2023-11-28T16:08:16Z,610209.16,NULL,Aufstand,ugomaji,d,NA,NA,NA,NA,sdf,NA,2,NA,NA,NA,NA,NA,NA,NA,NA,NA,NA,NA,NA,NA,NA,NA,NA,NA,NA,NA
4f714,deep,flow.Sequence,5_0_2_0_2_0,NA,NA,skipped,NA,610197,NA,NA,610192.9,610198,2023-11-28T16:08:16Z,610209.16,NULL,Kultur,utamaduni,s,shetani,gerezani,mazingira,NA,sdf,NA,2,NA,NA,NA,NA,NA,NA,NA,NA,NA,NA,NA,NA,NA,NA,NA,NA,NA,NA,NA
4f714,Shallow Question,html.Page,5_0_2_0_2_1_0,NA,NA,form submission,4746.84,610198,610192.9,610209.16,614956,614956,2023-11-28T16:08:21Z,614958.56,NULL,Kultur,utamaduni,s,shetani,gerezani,mazingira,utamaduni,NA,NA,2,NA,NA,NA,NA,NA,NA,NA,NA,NA,NA,NA,NA,NA,NA,NA,NA,NA,NA,NA
4f714,"""Richtig""-Screen",canvas.Screen,5_0_2_0_2_1_1,NA,NA,timeout,4999.2999999999,614959,614954.58,614958.56,619941.22,619942,2023-11-28T16:08:26Z,619957.86,NULL,Kultur,utamaduni,s,shetani,gerezani,mazingira,NA,sdf,1,2,NA,NA,NA,NA,NA,NA,NA,NA,NA,NA,NA,NA,NA,NA,NA,NA,NA,NA,NA
4f714,"""Falsch""-Screen",canvas.Screen,5_0_2_0_2_1_2,NA,NA,skipped,NA,619947,NA,NA,619941.22,619948,2023-11-28T16:08:26Z,619957.86,NULL,Kultur,utamaduni,s,shetani,gerezani,mazingira,NA,sdf,NA,2,NA,NA,NA,NA,NA,NA,NA,NA,NA,NA,NA,NA,NA,NA,NA,NA,NA,NA,NA
4f714,shallow,flow.Sequence,5_0_2_0_2_1,NA,NA,completion,9732.0599999999,610198,610192.9,610209.16,619941.22,619949,2023-11-28T16:08:26Z,619957.86,NULL,Kultur,utamaduni,s,shetani,gerezani,mazingira,NA,sdf,NA,2,NA,NA,NA,NA,NA,NA,NA,NA,NA,NA,NA,NA,NA,NA,NA,NA,NA,NA,NA
4f714,task,flow.Sequence,5_0_2_0_2,NA,NA,completion,9732.0599999999,610197,610192.9,610209.16,619941.22,619949,2023-11-28T16:08:26Z,619957.86,NULL,Kultur,utamaduni,s,shetani,gerezani,mazingira,NA,sdf,NA,2,NA,NA,NA,NA,NA,NA,NA,NA,NA,NA,NA,NA,NA,NA,NA,NA,NA,NA,NA
4f714,Deep Question,html.Page,5_0_2_0_3_0_0,NA,NA,form submission,6534.14,619950,619941.22,619957.86,626492,626493,2023-11-28T16:08:32Z,626491.8,NULL,Beweis,ushahidi,d,NA,NA,NA,k,NA,NA,2,NA,NA,NA,NA,NA,NA,NA,NA,NA,NA,NA,NA,NA,NA,NA,NA,NA,NA,NA
4f714,"""Richtig""-Screen",canvas.Screen,5_0_2_0_3_0_1,NA,NA,skipped,NA,626496,NA,NA,626492,626496,2023-11-28T16:08:32Z,626491.8,NULL,Beweis,ushahidi,d,NA,NA,NA,NA,sdf,NA,2,NA,NA,NA,NA,NA,NA,NA,NA,NA,NA,NA,NA,NA,NA,NA,NA,NA,NA,NA
4f714,"""Falsch""-Screen",canvas.Screen,5_0_2_0_3_0_2,NA,NA,timeout,4997.9199999999,626499,626491.44,626491.8,631473.38,631475,2023-11-28T16:08:37Z,631489.72,NULL,Beweis,ushahidi,d,NA,NA,NA,NA,sdf,0,2,NA,NA,NA,NA,NA,NA,NA,NA,NA,NA,NA,NA,NA,NA,NA,NA,NA,NA,NA
4f714,deep,flow.Sequence,5_0_2_0_3_0,NA,NA,completion,11515.52,619950,619941.22,619957.86,631473.38,631475,2023-11-28T16:08:37Z,631489.72,NULL,Beweis,ushahidi,d,NA,NA,NA,NA,sdf,NA,2,NA,NA,NA,NA,NA,NA,NA,NA,NA,NA,NA,NA,NA,NA,NA,NA,NA,NA,NA
