observation,sender,sender_type,sender_id,response,response_action,ended_on,duration,time_run,time_render,time_show,time_end,time_commit,timestamp,time_switch,german,swahili,enc,distractor1,distractor2,distractor3,response_2,x,correct,distractors,url_vp,url_sess,meta_labjs_version,meta_location,meta_user_agent,meta_platform,meta_language,meta_locale,meta_time_zone,meta_timezone_offset,meta_screen_width,meta_screen_height,meta_scroll_width,meta_scroll_height,meta_window_inner_width,meta_window_inner_height,meta_device_pixel_ratio,meta_labjs_build_flavor,meta_labjs_build_commit
48cb2,Introduction delayed retrieval,canvas.Screen,0,weiter,keypress(Space),response,24881.098000006,659.5,401.151,667.802,25548.900000006,25552.900000006,2023-04-13T18:15:39Z,25552.583,NA,NA,NA,NA,NA,NA,NA,NA,NA,NULL,209,2,20.2.4,https://neurocog.fernuni.ch/studies/vweber/sfink/delayed/index.html?vp=209&sess=2,"Mozilla/5.0 (Windows NT 10.0; Win64; x64) AppleWebKit/537.36 (KHTML, like Gecko) Chrome/111.0.0.0 Safari/537.36",Win32,de-DE,de,Europe/Zurich,-120,1536,864,1536,698,1536,746,1.25,production,f5b4a49f956347addd546a832a3327688c2c0fef
48cb2,Deep Question,html.Page,1_0_0_0,NA,NA,form submission,4335.516999994,25553.700000018,25549.328,25552.583,29888.099999994,29888.5,2023-04-13T18:15:43Z,29902.725,Zuwachs,nyongeza,d,matilaba,udhibiti,hudhurio,h,NA,NA,NULL,NA,NA,NA,NA,NA,NA,NA,NA,NA,NA,NA,NA,NA,NA,NA,NA,NA,NA,NA
48cb2,Save data screen,canvas.Screen,1_0_0_1,NA,NA,timeout,500.09,29889.400000006,29886.2,29902.725,30386.267,30387.900000006,2023-04-13T18:15:44Z,30402.815,Zuwachs,nyongeza,d,matilaba,udhibiti,hudhurio,NA,NA,0,NULL,NA,NA,NA,NA,NA,NA,NA,NA,NA,NA,NA,NA,NA,NA,NA,NA,NA,NA,NA
48cb2,deep,flow.Sequence,1_0_0,NA,NA,completion,4833.684,25553.700000018,25549.328,25552.583,30386.267,30388.5,2023-04-13T18:15:44Z,30402.815,Zuwachs,nyongeza,d,matilaba,udhibiti,hudhurio,NA,NA,NA,NULL,NA,NA,NA,NA,NA,NA,NA,NA,NA,NA,NA,NA,NA,NA,NA,NA,NA,NA,NA
48cb2,task,flow.Sequence,1_0,NA,NA,completion,4833.684,25553.599999994,25549.328,25552.583,30386.267,30389,2023-04-13T18:15:44Z,30402.815,Zuwachs,nyongeza,d,matilaba,udhibiti,hudhurio,NA,NA,NA,NULL,NA,NA,NA,NA,NA,NA,NA,NA,NA,NA,NA,NA,NA,NA,NA,NA,NA,NA,NA
48cb2,Deep Question,html.Page,1_1_0_0,NA,NA,form submission,3082.8850000179,30389.300000012,30386.267,30402.815,33485.700000018,33485.900000006,2023-04-13T18:15:47Z,33517.698,Schönheit,kirembo,d,mahojiano,msisimko,jitihadi,h,NA,NA,NULL,NA,NA,NA,NA,NA,NA,NA,NA,NA,NA,NA,NA,NA,NA,NA,NA,NA,NA,NA
48cb2,Save data screen,canvas.Screen,1_1_0_1,NA,NA,timeout,502.097,33487,33469.62,33517.698,34003.04,34004.200000018,2023-04-13T18:15:48Z,34019.795,Schönheit,kirembo,d,mahojiano,msisimko,jitihadi,NA,NA,0,NULL,NA,NA,NA,NA,NA,NA,NA,NA,NA,NA,NA,NA,NA,NA,NA,NA,NA,NA,NA
48cb2,deep,flow.Sequence,1_1_0,NA,NA,completion,3600.225,30389.099999994,30386.267,30402.815,34003.04,34004.700000018,2023-04-13T18:15:48Z,34019.795,Schönheit,kirembo,d,mahojiano,msisimko,jitihadi,NA,NA,NA,NULL,NA,NA,NA,NA,NA,NA,NA,NA,NA,NA,NA,NA,NA,NA,NA,NA,NA,NA,NA
48cb2,task,flow.Sequence,1_1,NA,NA,completion,3600.225,30389.099999994,30386.267,30402.815,34003.04,34005.099999994,2023-04-13T18:15:48Z,34019.795,Schönheit,kirembo,d,mahojiano,msisimko,jitihadi,NA,NA,NA,NULL,NA,NA,NA,NA,NA,NA,NA,NA,NA,NA,NA,NA,NA,NA,NA,NA,NA,NA,NA
48cb2,Deep Question,html.Page,1_2_0_0,NA,NA,form submission,2993.4050000179,34005.5,34003.04,34019.795,37013.200000018,37013.5,2023-04-13T18:15:51Z,37019.855,Verstand,ufahamivu,d,shakawa,hadhari,mhandisi,h,NA,NA,NULL,NA,NA,NA,NA,NA,NA,NA,NA,NA,NA,NA,NA,NA,NA,NA,NA,NA,NA,NA
48cb2,Save data screen,canvas.Screen,1_2_0_1,NA,NA,timeout,500.12899999999,37014.200000018,37003.341,37019.855,37503.232,37504.400000006,2023-04-13T18:15:51Z,37519.984,Verstand,ufahamivu,d,shakawa,hadhari,mhandisi,NA,NA,0,NULL,NA,NA,NA,NA,NA,NA,NA,NA,NA,NA,NA,NA,NA,NA,NA,NA,NA,NA,NA
48cb2,deep,flow.Sequence,1_2_0,NA,NA,completion,3483.437,34005.400000006,34003.04,34019.795,37503.232,37504.900000006,2023-04-13T18:15:51Z,37519.984,Verstand,ufahamivu,d,shakawa,hadhari,mhandisi,NA,NA,NA,NULL,NA,NA,NA,NA,NA,NA,NA,NA,NA,NA,NA,NA,NA,NA,NA,NA,NA,NA,NA
48cb2,task,flow.Sequence,1_2,NA,NA,completion,3483.437,34005.300000012,34003.04,34019.795,37503.232,37505.300000012,2023-04-13T18:15:51Z,37519.984,Verstand,ufahamivu,d,shakawa,hadhari,mhandisi,NA,NA,NA,NULL,NA,NA,NA,NA,NA,NA,NA,NA,NA,NA,NA,NA,NA,NA,NA,NA,NA,NA,NA
48cb2,Deep Question,html.Page,1_3_0_0,NA,NA,form submission,2983.416000006,37505.599999994,37503.232,37519.984,40503.400000006,40503.900000006,2023-04-13T18:15:54Z,40520.081,Sympathie,mapendano,d,dhamiria,fungamano,maazimio,h,NA,NA,NULL,NA,NA,NA,NA,NA,NA,NA,NA,NA,NA,NA,NA,NA,NA,NA,NA,NA,NA,NA
48cb2,Save data screen,canvas.Screen,1_3_0_1,NA,NA,timeout,500.237,40504.800000012,40486.778,40520.081,41003.468,41004.599999994,2023-04-13T18:15:55Z,41020.318,Sympathie,mapendano,d,dhamiria,fungamano,maazimio,NA,NA,0,NULL,NA,NA,NA,NA,NA,NA,NA,NA,NA,NA,NA,NA,NA,NA,NA,NA,NA,NA,NA
48cb2,deep,flow.Sequence,1_3_0,NA,NA,completion,3483.484,37505.599999994,37503.232,37519.984,41003.468,41005.099999994,2023-04-13T18:15:55Z,41020.318,Sympathie,mapendano,d,dhamiria,fungamano,maazimio,NA,NA,NA,NULL,NA,NA,NA,NA,NA,NA,NA,NA,NA,NA,NA,NA,NA,NA,NA,NA,NA,NA,NA
48cb2,task,flow.Sequence,1_3,NA,NA,completion,3483.484,37505.5,37503.232,37519.984,41003.468,41005.400000006,2023-04-13T18:15:55Z,41020.318,Sympathie,mapendano,d,dhamiria,fungamano,maazimio,NA,NA,NA,NULL,NA,NA,NA,NA,NA,NA,NA,NA,NA,NA,NA,NA,NA,NA,NA,NA,NA,NA,NA
48cb2,Deep Question,html.Page,1_4_0_0,NA,NA,form submission,2808.082000006,41005.800000012,41003.468,41020.318,43828.400000006,43828.700000018,2023-04-13T18:15:57Z,43836.933,Vorsorge,tahadhari,s,ufafanuzi,makini,mashambani,h,NA,NA,NULL,NA,NA,NA,NA,NA,NA,NA,NA,NA,NA,NA,NA,NA,NA,NA,NA,NA,NA,NA
48cb2,Save data screen,canvas.Screen,1_4_0_1,NA,NA,timeout,500.101,43829.5,43820.365,43836.933,44320.337,44321.700000018,2023-04-13T18:15:58Z,44337.034,Vorsorge,tahadhari,s,ufafanuzi,makini,mashambani,NA,NA,0,NULL,NA,NA,NA,NA,NA,NA,NA,NA,NA,NA,NA,NA,NA,NA,NA,NA,NA,NA,NA
48cb2,deep,flow.Sequence,1_4_0,NA,NA,completion,3300.019,41005.599999994,41003.468,41020.318,44320.337,44322.099999994,2023-04-13T18:15:58Z,44337.034,Vorsorge,tahadhari,s,ufafanuzi,makini,mashambani,NA,NA,NA,NULL,NA,NA,NA,NA,NA,NA,NA,NA,NA,NA,NA,NA,NA,NA,NA,NA,NA,NA,NA
48cb2,task,flow.Sequence,1_4,NA,NA,completion,3300.019,41005.599999994,41003.468,41020.318,44320.337,44322.5,2023-04-13T18:15:58Z,44337.034,Vorsorge,tahadhari,s,ufafanuzi,makini,mashambani,NA,NA,NA,NULL,NA,NA,NA,NA,NA,NA,NA,NA,NA,NA,NA,NA,NA,NA,NA,NA,NA,NA,NA
48cb2,Deep Question,html.Page,1_5_0_0,NA,NA,form submission,2434.1660000179,44322.900000006,44320.337,44337.034,46771.200000018,46771.400000006,2023-04-13T18:16:00Z,46787.101,Symbol,kielezo,d,kinyume,nderemo,utayari,h,NA,NA,NULL,NA,NA,NA,NA,NA,NA,NA,NA,NA,NA,NA,NA,NA,NA,NA,NA,NA,NA,NA
48cb2,Save data screen,canvas.Screen,1_5_0_1,NA,NA,timeout,500.09,46772.400000006,46770.406,46787.101,47270.544,47271.800000012,2023-04-13T18:16:01Z,47287.191,Symbol,kielezo,d,kinyume,nderemo,utayari,NA,NA,0,NULL,NA,NA,NA,NA,NA,NA,NA,NA,NA,NA,NA,NA,NA,NA,NA,NA,NA,NA,NA
48cb2,deep,flow.Sequence,1_5_0,NA,NA,completion,2933.51,44322.800000012,44320.337,44337.034,47270.544,47272.099999994,2023-04-13T18:16:01Z,47287.191,Symbol,kielezo,d,kinyume,nderemo,utayari,NA,NA,NA,NULL,NA,NA,NA,NA,NA,NA,NA,NA,NA,NA,NA,NA,NA,NA,NA,NA,NA,NA,NA
48cb2,task,flow.Sequence,1_5,NA,NA,completion,2933.51,44322.700000018,44320.337,44337.034,47270.544,47272.5,2023-04-13T18:16:01Z,47287.191,Symbol,kielezo,d,kinyume,nderemo,utayari,NA,NA,NA,NULL,NA,NA,NA,NA,NA,NA,NA,NA,NA,NA,NA,NA,NA,NA,NA,NA,NA,NA,NA
48cb2,Deep Question,html.Page,1_6_0_0,NA,NA,form submission,2930.209000006,47272.800000012,47270.544,47287.191,50217.400000006,50217.599999994,2023-04-13T18:16:04Z,50220.492,Gelegenheit,wakati,s,mchanganyiko,kipaumbele,kushuku,h,NA,NA,NULL,NA,NA,NA,NA,NA,NA,NA,NA,NA,NA,NA,NA,NA,NA,NA,NA,NA,NA,NA
48cb2,Save data screen,canvas.Screen,1_6_0_1,NA,NA,timeout,500.17,50218.400000006,50203.962,50220.492,50704.017,50705.300000012,2023-04-13T18:16:04Z,50720.662,Gelegenheit,wakati,s,mchanganyiko,kipaumbele,kushuku,NA,NA,0,NULL,NA,NA,NA,NA,NA,NA,NA,NA,NA,NA,NA,NA,NA,NA,NA,NA,NA,NA,NA
48cb2,deep,flow.Sequence,1_6_0,NA,NA,completion,3416.826,47272.700000018,47270.544,47287.191,50704.017,50705.800000012,2023-04-13T18:16:04Z,50720.662,Gelegenheit,wakati,s,mchanganyiko,kipaumbele,kushuku,NA,NA,NA,NULL,NA,NA,NA,NA,NA,NA,NA,NA,NA,NA,NA,NA,NA,NA,NA,NA,NA,NA,NA
48cb2,task,flow.Sequence,1_6,NA,NA,completion,3416.826,47272.599999994,47270.544,47287.191,50704.017,50706.200000018,2023-04-13T18:16:04Z,50720.662,Gelegenheit,wakati,s,mchanganyiko,kipaumbele,kushuku,NA,NA,NA,NULL,NA,NA,NA,NA,NA,NA,NA,NA,NA,NA,NA,NA,NA,NA,NA,NA,NA,NA,NA
48cb2,Deep Question,html.Page,1_7_0_0,NA,NA,form submission,2801.338,50706.599999994,50704.017,50720.662,53522,53522.200000018,2023-04-13T18:16:07Z,53537.486,Polizist,msongora,s,simanzi,mandhari,nidhamu,h,NA,NA,NULL,NA,NA,NA,NA,NA,NA,NA,NA,NA,NA,NA,NA,NA,NA,NA,NA,NA,NA,NA
48cb2,Save data screen,canvas.Screen,1_7_0_1,NA,NA,timeout,500.091,53523.200000018,53520.836,53537.486,54020.863,54022.099999994,2023-04-13T18:16:08Z,54037.577,Polizist,msongora,s,simanzi,mandhari,nidhamu,NA,NA,0,NULL,NA,NA,NA,NA,NA,NA,NA,NA,NA,NA,NA,NA,NA,NA,NA,NA,NA,NA,NA
48cb2,deep,flow.Sequence,1_7_0,NA,NA,completion,3300.201,50706.599999994,50704.017,50720.662,54020.863,54022.5,2023-04-13T18:16:08Z,54037.577,Polizist,msongora,s,simanzi,mandhari,nidhamu,NA,NA,NA,NULL,NA,NA,NA,NA,NA,NA,NA,NA,NA,NA,NA,NA,NA,NA,NA,NA,NA,NA,NA
48cb2,task,flow.Sequence,1_7,NA,NA,completion,3300.201,50706.400000006,50704.017,50720.662,54020.863,54022.900000006,2023-04-13T18:16:08Z,54037.577,Polizist,msongora,s,simanzi,mandhari,nidhamu,NA,NA,NA,NULL,NA,NA,NA,NA,NA,NA,NA,NA,NA,NA,NA,NA,NA,NA,NA,NA,NA,NA,NA
48cb2,Deep Question,html.Page,1_8_0_0,NA,NA,form submission,1737.1230000179,54023.099999994,54020.863,54037.577,55774.700000018,55775,2023-04-13T18:16:09Z,55787.608,Wettbewerb,ushindani,s,mapendezi,kichocheo,ubaguzi,h,NA,NA,NULL,NA,NA,NA,NA,NA,NA,NA,NA,NA,NA,NA,NA,NA,NA,NA,NA,NA,NA,NA
48cb2,Save data screen,canvas.Screen,1_8_0_1,NA,NA,timeout,500.084,55775.700000018,55771.127,55787.608,56270.994,56272.200000018,2023-04-13T18:16:10Z,56287.692,Wettbewerb,ushindani,s,mapendezi,kichocheo,ubaguzi,NA,NA,0,NULL,NA,NA,NA,NA,NA,NA,NA,NA,NA,NA,NA,NA,NA,NA,NA,NA,NA,NA,NA
48cb2,deep,flow.Sequence,1_8_0,NA,NA,completion,2233.417,54023.099999994,54020.863,54037.577,56270.994,56272.700000018,2023-04-13T18:16:10Z,56287.692,Wettbewerb,ushindani,s,mapendezi,kichocheo,ubaguzi,NA,NA,NA,NULL,NA,NA,NA,NA,NA,NA,NA,NA,NA,NA,NA,NA,NA,NA,NA,NA,NA,NA,NA
48cb2,task,flow.Sequence,1_8,NA,NA,completion,2233.417,54023,54020.863,54037.577,56270.994,56273.099999994,2023-04-13T18:16:10Z,56287.692,Wettbewerb,ushindani,s,mapendezi,kichocheo,ubaguzi,NA,NA,NA,NULL,NA,NA,NA,NA,NA,NA,NA,NA,NA,NA,NA,NA,NA,NA,NA,NA,NA,NA,NA
48cb2,Deep Question,html.Page,1_9_0_0,NA,NA,form submission,7364.407999994,56273.5,56270.994,56287.692,63652.099999994,63652.400000006,2023-04-13T18:16:17Z,63654.604,Zufall,kikuti,d,kukosekana,uchoraji,leseni,tutuki,NA,NA,NULL,NA,NA,NA,NA,NA,NA,NA,NA,NA,NA,NA,NA,NA,NA,NA,NA,NA,NA,NA
48cb2,Save data screen,canvas.Screen,1_9_0_1,NA,NA,timeout,500.083,63655.200000018,63638.027,63654.604,64138.105,64139.300000012,2023-04-13T18:16:18Z,64154.687,Zufall,kikuti,d,kukosekana,uchoraji,leseni,NA,NA,0,NULL,NA,NA,NA,NA,NA,NA,NA,NA,NA,NA,NA,NA,NA,NA,NA,NA,NA,NA,NA
48cb2,deep,flow.Sequence,1_9_0,NA,NA,completion,7850.413,56273.400000006,56270.994,56287.692,64138.105,64139.800000012,2023-04-13T18:16:18Z,64154.687,Zufall,kikuti,d,kukosekana,uchoraji,leseni,NA,NA,NA,NULL,NA,NA,NA,NA,NA,NA,NA,NA,NA,NA,NA,NA,NA,NA,NA,NA,NA,NA,NA
48cb2,task,flow.Sequence,1_9,NA,NA,completion,7850.413,56273.400000006,56270.994,56287.692,64138.105,64140.099999994,2023-04-13T18:16:18Z,64154.687,Zufall,kikuti,d,kukosekana,uchoraji,leseni,NA,NA,NA,NULL,NA,NA,NA,NA,NA,NA,NA,NA,NA,NA,NA,NA,NA,NA,NA,NA,NA,NA,NA
48cb2,Deep Question,html.Page,1_10_0_0,NA,NA,form submission,3727.912999994,64140.400000006,64138.105,64154.687,67882.599999994,67882.900000006,2023-04-13T18:16:21Z,67888.27,Beweis,ushahidi,s,marudio,kizuizi,mtendaji,h,NA,NA,NULL,NA,NA,NA,NA,NA,NA,NA,NA,NA,NA,NA,NA,NA,NA,NA,NA,NA,NA,NA
48cb2,Save data screen,canvas.Screen,1_10_0_1,NA,NA,timeout,500.034,67885.599999994,67871.604,67888.27,68371.594,68372.800000012,2023-04-13T18:16:22Z,68388.304,Beweis,ushahidi,s,marudio,kizuizi,mtendaji,NA,NA,0,NULL,NA,NA,NA,NA,NA,NA,NA,NA,NA,NA,NA,NA,NA,NA,NA,NA,NA,NA,NA
48cb2,deep,flow.Sequence,1_10_0,NA,NA,completion,4216.907,64140.400000006,64138.105,64154.687,68371.594,68373.300000012,2023-04-13T18:16:22Z,68388.304,Beweis,ushahidi,s,marudio,kizuizi,mtendaji,NA,NA,NA,NULL,NA,NA,NA,NA,NA,NA,NA,NA,NA,NA,NA,NA,NA,NA,NA,NA,NA,NA,NA
48cb2,task,flow.Sequence,1_10,NA,NA,completion,4216.907,64140.300000012,64138.105,64154.687,68371.594,68373.599999994,2023-04-13T18:16:22Z,68388.304,Beweis,ushahidi,s,marudio,kizuizi,mtendaji,NA,NA,NA,NULL,NA,NA,NA,NA,NA,NA,NA,NA,NA,NA,NA,NA,NA,NA,NA,NA,NA,NA,NA
48cb2,Deep Question,html.Page,1_11_0_0,NA,NA,form submission,2093.4960000119,68373.900000006,68371.594,68388.304,70481.800000012,70482.099999994,2023-04-13T18:16:24Z,70488.306,Konkurrent,mshindani,s,msemaji,mvutaji,kipukusa,h,NA,NA,NULL,NA,NA,NA,NA,NA,NA,NA,NA,NA,NA,NA,NA,NA,NA,NA,NA,NA,NA,NA
48cb2,Save data screen,canvas.Screen,1_11_0_1,NA,NA,timeout,500.19500000001,70484.599999994,70471.762,70488.306,70971.762,70972.900000006,2023-04-13T18:16:24Z,70988.501,Konkurrent,mshindani,s,msemaji,mvutaji,kipukusa,NA,NA,0,NULL,NA,NA,NA,NA,NA,NA,NA,NA,NA,NA,NA,NA,NA,NA,NA,NA,NA,NA,NA
48cb2,deep,flow.Sequence,1_11_0,NA,NA,completion,2583.458,68373.800000012,68371.594,68388.304,70971.762,70973.300000012,2023-04-13T18:16:24Z,70988.501,Konkurrent,mshindani,s,msemaji,mvutaji,kipukusa,NA,NA,NA,NULL,NA,NA,NA,NA,NA,NA,NA,NA,NA,NA,NA,NA,NA,NA,NA,NA,NA,NA,NA
48cb2,task,flow.Sequence,1_11,NA,NA,completion,2583.458,68373.700000018,68371.594,68388.304,70971.762,70973.599999994,2023-04-13T18:16:24Z,70988.501,Konkurrent,mshindani,s,msemaji,mvutaji,kipukusa,NA,NA,NA,NULL,NA,NA,NA,NA,NA,NA,NA,NA,NA,NA,NA,NA,NA,NA,NA,NA,NA,NA,NA
48cb2,Deep Question,html.Page,1_12_0_0,NA,NA,form submission,2016.098999994,70973.900000006,70971.762,70988.501,73004.599999994,73004.800000012,2023-04-13T18:16:27Z,73031.276,Ausschluss,kutengwa,s,ununuzi,taratibu,madeni,h,NA,NA,NULL,NA,NA,NA,NA,NA,NA,NA,NA,NA,NA,NA,NA,NA,NA,NA,NA,NA,NA,NA
48cb2,Save data screen,canvas.Screen,1_12_0_1,NA,NA,timeout,507.36,73005.5,72988.708,73031.276,73521.877,73523,2023-04-13T18:16:27Z,73538.636,Ausschluss,kutengwa,s,ununuzi,taratibu,madeni,NA,NA,0,NULL,NA,NA,NA,NA,NA,NA,NA,NA,NA,NA,NA,NA,NA,NA,NA,NA,NA,NA,NA
48cb2,deep,flow.Sequence,1_12_0,NA,NA,completion,2533.376,70973.900000006,70971.762,70988.501,73521.877,73523.400000006,2023-04-13T18:16:27Z,73538.636,Ausschluss,kutengwa,s,ununuzi,taratibu,madeni,NA,NA,NA,NULL,NA,NA,NA,NA,NA,NA,NA,NA,NA,NA,NA,NA,NA,NA,NA,NA,NA,NA,NA
48cb2,task,flow.Sequence,1_12,NA,NA,completion,2533.376,70973.800000012,70971.762,70988.501,73521.877,73523.700000018,2023-04-13T18:16:27Z,73538.636,Ausschluss,kutengwa,s,ununuzi,taratibu,madeni,NA,NA,NA,NULL,NA,NA,NA,NA,NA,NA,NA,NA,NA,NA,NA,NA,NA,NA,NA,NA,NA,NA,NA
48cb2,Deep Question,html.Page,1_13_0_0,NA,NA,form submission,2372.764000006,73524,73521.877,73538.636,75911.400000006,75911.599999994,2023-04-13T18:16:29Z,75921.997,Annäherung,maegesho,d,madahili,kujiamini,mapendekezo,h,NA,NA,NULL,NA,NA,NA,NA,NA,NA,NA,NA,NA,NA,NA,NA,NA,NA,NA,NA,NA,NA,NA
48cb2,Save data screen,canvas.Screen,1_13_0_1,NA,NA,timeout,500.15399999999,75912.400000006,75905.387,75921.997,76405.481,76406.700000018,2023-04-13T18:16:30Z,76422.151,Annäherung,maegesho,d,madahili,kujiamini,mapendekezo,NA,NA,0,NULL,NA,NA,NA,NA,NA,NA,NA,NA,NA,NA,NA,NA,NA,NA,NA,NA,NA,NA,NA
48cb2,deep,flow.Sequence,1_13_0,NA,NA,completion,2866.845,73523.900000006,73521.877,73538.636,76405.481,76407.200000018,2023-04-13T18:16:30Z,76422.151,Annäherung,maegesho,d,madahili,kujiamini,mapendekezo,NA,NA,NA,NULL,NA,NA,NA,NA,NA,NA,NA,NA,NA,NA,NA,NA,NA,NA,NA,NA,NA,NA,NA
48cb2,task,flow.Sequence,1_13,NA,NA,completion,2866.845,73523.800000012,73521.877,73538.636,76405.481,76407.599999994,2023-04-13T18:16:30Z,76422.151,Annäherung,maegesho,d,madahili,kujiamini,mapendekezo,NA,NA,NA,NULL,NA,NA,NA,NA,NA,NA,NA,NA,NA,NA,NA,NA,NA,NA,NA,NA,NA,NA,NA
48cb2,Deep Question,html.Page,1_14_0_0,NA,NA,form submission,1852.249000006,76407.800000012,76405.481,76422.151,78274.400000006,78274.599999994,2023-04-13T18:16:32Z,78288.828,Auftrag,uagizaji,s,ghanima,kuzingatia,msukani,h,NA,NA,NULL,NA,NA,NA,NA,NA,NA,NA,NA,NA,NA,NA,NA,NA,NA,NA,NA,NA,NA,NA
48cb2,Save data screen,canvas.Screen,1_14_0_1,NA,NA,timeout,499.99000000001,78275.5,78272.188,78288.828,78772.288,78773.400000006,2023-04-13T18:16:32Z,78788.818,Auftrag,uagizaji,s,ghanima,kuzingatia,msukani,NA,NA,0,NULL,NA,NA,NA,NA,NA,NA,NA,NA,NA,NA,NA,NA,NA,NA,NA,NA,NA,NA,NA
48cb2,deep,flow.Sequence,1_14_0,NA,NA,completion,2350.137,76407.800000012,76405.481,76422.151,78772.288,78773.800000012,2023-04-13T18:16:32Z,78788.818,Auftrag,uagizaji,s,ghanima,kuzingatia,msukani,NA,NA,NA,NULL,NA,NA,NA,NA,NA,NA,NA,NA,NA,NA,NA,NA,NA,NA,NA,NA,NA,NA,NA
48cb2,task,flow.Sequence,1_14,NA,NA,completion,2350.137,76407.700000018,76405.481,76422.151,78772.288,78774.099999994,2023-04-13T18:16:32Z,78788.818,Auftrag,uagizaji,s,ghanima,kuzingatia,msukani,NA,NA,NA,NULL,NA,NA,NA,NA,NA,NA,NA,NA,NA,NA,NA,NA,NA,NA,NA,NA,NA,NA,NA
48cb2,Deep Question,html.Page,1_15_0_0,NA,NA,form submission,2433.4820000119,78774.300000012,78772.288,78788.818,81222.300000012,81222.700000018,2023-04-13T18:16:35Z,81238.891,Widerstand,usulubu,d,kusababisha,mwalimu,mwenendo,h,NA,NA,NULL,NA,NA,NA,NA,NA,NA,NA,NA,NA,NA,NA,NA,NA,NA,NA,NA,NA,NA,NA
48cb2,Save data screen,canvas.Screen,1_15_0_1,NA,NA,timeout,500.341,81225.099999994,81205.816,81238.891,81722.376,81723.599999994,2023-04-13T18:16:35Z,81739.232,Widerstand,usulubu,d,kusababisha,mwalimu,mwenendo,NA,NA,0,NULL,NA,NA,NA,NA,NA,NA,NA,NA,NA,NA,NA,NA,NA,NA,NA,NA,NA,NA,NA
48cb2,deep,flow.Sequence,1_15_0,NA,NA,completion,2933.558,78774.300000012,78772.288,78788.818,81722.376,81724,2023-04-13T18:16:35Z,81739.232,Widerstand,usulubu,d,kusababisha,mwalimu,mwenendo,NA,NA,NA,NULL,NA,NA,NA,NA,NA,NA,NA,NA,NA,NA,NA,NA,NA,NA,NA,NA,NA,NA,NA
48cb2,task,flow.Sequence,1_15,NA,NA,completion,2933.558,78774.200000018,78772.288,78788.818,81722.376,81724.200000018,2023-04-13T18:16:35Z,81739.232,Widerstand,usulubu,d,kusababisha,mwalimu,mwenendo,NA,NA,NA,NULL,NA,NA,NA,NA,NA,NA,NA,NA,NA,NA,NA,NA,NA,NA,NA,NA,NA,NA,NA
48cb2,retrieval block 1 (cued recall),flow.Loop,1,NA,NA,completion,56169.793,25553.5,25549.328,25552.583,81722.376,81724.5,2023-04-13T18:16:35Z,81739.232,NA,NA,NA,NA,NA,NA,NA,NA,NA,NULL,NA,NA,NA,NA,NA,NA,NA,NA,NA,NA,NA,NA,NA,NA,NA,NA,NA,NA,NA
48cb2,Shallow Question,html.Page,2_0_0_0,NA,NA,form submission,20903.268,81724.900000006,81722.376,81739.232,102642.5,102642.90000001,2023-04-13T18:16:56Z,102656.836,Sympathie,mapendano,d,dhamiria,fungamano,maazimio,dhamiria,NA,NA,"c(""distractor1"", ""distractor2"", ""distractor3"")",NA,NA,NA,NA,NA,NA,NA,NA,NA,NA,NA,NA,NA,NA,NA,NA,NA,NA,NA
48cb2,Save data screen,canvas.Screen,2_0_0_1,NA,NA,timeout,500.023,102645.5,102640.462,102656.836,103140.146,103141.20000002,2023-04-13T18:16:57Z,103156.859,Sympathie,mapendano,d,dhamiria,fungamano,maazimio,NA,NA,0,"c(""distractor1"", ""distractor2"", ""distractor3"")",NA,NA,NA,NA,NA,NA,NA,NA,NA,NA,NA,NA,NA,NA,NA,NA,NA,NA,NA
48cb2,shallow,flow.Sequence,2_0_0,NA,NA,completion,21400.914,81724.800000012,81722.376,81739.232,103140.146,103141.70000002,2023-04-13T18:16:57Z,103156.859,Sympathie,mapendano,d,dhamiria,fungamano,maazimio,NA,NA,NA,"c(""distractor1"", ""distractor2"", ""distractor3"")",NA,NA,NA,NA,NA,NA,NA,NA,NA,NA,NA,NA,NA,NA,NA,NA,NA,NA,NA
48cb2,task,flow.Sequence,2_0,NA,NA,completion,21400.914,81724.800000012,81722.376,81739.232,103140.146,103141.90000001,2023-04-13T18:16:57Z,103156.859,Sympathie,mapendano,d,dhamiria,fungamano,maazimio,NA,NA,NA,"c(""distractor1"", ""distractor2"", ""distractor3"")",NA,NA,NA,NA,NA,NA,NA,NA,NA,NA,NA,NA,NA,NA,NA,NA,NA,NA,NA
48cb2,Shallow Question,html.Page,2_1_0_0,NA,NA,form submission,12731.041000006,103142.20000002,103140.146,103156.859,115887.90000001,115888.20000002,2023-04-13T18:17:09Z,115890.844,Gelegenheit,wakati,s,mchanganyiko,kipaumbele,kushuku,kushuku,NA,NA,"c(""distractor1"", ""distractor2"", ""distractor3"")",NA,NA,NA,NA,NA,NA,NA,NA,NA,NA,NA,NA,NA,NA,NA,NA,NA,NA,NA
48cb2,Save data screen,canvas.Screen,2_1_0_1,NA,NA,timeout,500.126,115890.80000001,115873.889,115890.844,116374.268,116375.5,2023-04-13T18:17:10Z,116390.97,Gelegenheit,wakati,s,mchanganyiko,kipaumbele,kushuku,NA,NA,0,"c(""distractor1"", ""distractor2"", ""distractor3"")",NA,NA,NA,NA,NA,NA,NA,NA,NA,NA,NA,NA,NA,NA,NA,NA,NA,NA,NA
48cb2,shallow,flow.Sequence,2_1_0,NA,NA,completion,13217.409,103142.20000002,103140.146,103156.859,116374.268,116375.80000001,2023-04-13T18:17:10Z,116390.97,Gelegenheit,wakati,s,mchanganyiko,kipaumbele,kushuku,NA,NA,NA,"c(""distractor1"", ""distractor2"", ""distractor3"")",NA,NA,NA,NA,NA,NA,NA,NA,NA,NA,NA,NA,NA,NA,NA,NA,NA,NA,NA
48cb2,task,flow.Sequence,2_1,NA,NA,completion,13217.409,103142.20000002,103140.146,103156.859,116374.268,116376.09999999,2023-04-13T18:17:10Z,116390.97,Gelegenheit,wakati,s,mchanganyiko,kipaumbele,kushuku,NA,NA,NA,"c(""distractor1"", ""distractor2"", ""distractor3"")",NA,NA,NA,NA,NA,NA,NA,NA,NA,NA,NA,NA,NA,NA,NA,NA,NA,NA,NA
48cb2,Shallow Question,html.Page,2_2_0_0,NA,NA,form submission,11108.629999994,116376.40000001,116374.268,116390.97,127499.59999999,127499.90000001,2023-04-13T18:17:21Z,127508.126,Verstand,ufahamivu,d,shakawa,hadhari,mhandisi,ufahamivu,NA,NA,"c(""distractor1"", ""distractor2"", ""distractor3"")",NA,NA,NA,NA,NA,NA,NA,NA,NA,NA,NA,NA,NA,NA,NA,NA,NA,NA,NA
48cb2,Save data screen,canvas.Screen,2_2_0_1,NA,NA,timeout,500.14599999999,127502.40000001,127491.752,127508.126,127991.613,127992.80000001,2023-04-13T18:17:22Z,128008.272,Verstand,ufahamivu,d,shakawa,hadhari,mhandisi,NA,NA,1,"c(""distractor1"", ""distractor2"", ""distractor3"")",NA,NA,NA,NA,NA,NA,NA,NA,NA,NA,NA,NA,NA,NA,NA,NA,NA,NA,NA
48cb2,shallow,flow.Sequence,2_2_0,NA,NA,completion,11600.643,116376.30000001,116374.268,116390.97,127991.613,127993.20000002,2023-04-13T18:17:22Z,128008.272,Verstand,ufahamivu,d,shakawa,hadhari,mhandisi,NA,NA,NA,"c(""distractor1"", ""distractor2"", ""distractor3"")",NA,NA,NA,NA,NA,NA,NA,NA,NA,NA,NA,NA,NA,NA,NA,NA,NA,NA,NA
48cb2,task,flow.Sequence,2_2,NA,NA,completion,11600.643,116376.30000001,116374.268,116390.97,127991.613,127993.5,2023-04-13T18:17:22Z,128008.272,Verstand,ufahamivu,d,shakawa,hadhari,mhandisi,NA,NA,NA,"c(""distractor1"", ""distractor2"", ""distractor3"")",NA,NA,NA,NA,NA,NA,NA,NA,NA,NA,NA,NA,NA,NA,NA,NA,NA,NA,NA
48cb2,Shallow Question,html.Page,2_3_0_0,NA,NA,form submission,7779.327999994,127993.70000002,127991.613,128008.272,135787.59999999,135787.80000001,2023-04-13T18:17:29Z,135791.89,Ausschluss,kutengwa,s,ununuzi,taratibu,madeni,kutengwa,NA,NA,"c(""distractor1"", ""distractor2"", ""distractor3"")",NA,NA,NA,NA,NA,NA,NA,NA,NA,NA,NA,NA,NA,NA,NA,NA,NA,NA,NA
48cb2,Save data screen,canvas.Screen,2_3_0_1,NA,NA,timeout,500.02799999999,135790.30000001,135775.377,135791.89,136275.377,136276.40000001,2023-04-13T18:17:30Z,136291.918,Ausschluss,kutengwa,s,ununuzi,taratibu,madeni,NA,NA,1,"c(""distractor1"", ""distractor2"", ""distractor3"")",NA,NA,NA,NA,NA,NA,NA,NA,NA,NA,NA,NA,NA,NA,NA,NA,NA,NA,NA
48cb2,shallow,flow.Sequence,2_3_0,NA,NA,completion,8267.105,127993.70000002,127991.613,128008.272,136275.377,136276.59999999,2023-04-13T18:17:30Z,136291.918,Ausschluss,kutengwa,s,ununuzi,taratibu,madeni,NA,NA,NA,"c(""distractor1"", ""distractor2"", ""distractor3"")",NA,NA,NA,NA,NA,NA,NA,NA,NA,NA,NA,NA,NA,NA,NA,NA,NA,NA,NA
48cb2,task,flow.Sequence,2_3,NA,NA,completion,8267.105,127993.70000002,127991.613,128008.272,136275.377,136276.70000002,2023-04-13T18:17:30Z,136291.918,Ausschluss,kutengwa,s,ununuzi,taratibu,madeni,NA,NA,NA,"c(""distractor1"", ""distractor2"", ""distractor3"")",NA,NA,NA,NA,NA,NA,NA,NA,NA,NA,NA,NA,NA,NA,NA,NA,NA,NA,NA
48cb2,Shallow Question,html.Page,2_4_0_0,NA,NA,form submission,4652.7820000179,136276.90000001,136275.377,136291.918,140944.70000002,140944.90000001,2023-04-13T18:17:34Z,140958.96,Beweis,ushahidi,s,marudio,kizuizi,mtendaji,ushahidi,NA,NA,"c(""distractor1"", ""distractor2"", ""distractor3"")",NA,NA,NA,NA,NA,NA,NA,NA,NA,NA,NA,NA,NA,NA,NA,NA,NA,NA,NA
48cb2,Save data screen,canvas.Screen,2_4_0_1,NA,NA,timeout,500.073,140947.5,140942.494,140958.96,141442.373,141443.59999999,2023-04-13T18:17:35Z,141459.033,Beweis,ushahidi,s,marudio,kizuizi,mtendaji,NA,NA,1,"c(""distractor1"", ""distractor2"", ""distractor3"")",NA,NA,NA,NA,NA,NA,NA,NA,NA,NA,NA,NA,NA,NA,NA,NA,NA,NA,NA
48cb2,shallow,flow.Sequence,2_4_0,NA,NA,completion,5150.455,136276.90000001,136275.377,136291.918,141442.373,141444,2023-04-13T18:17:35Z,141459.033,Beweis,ushahidi,s,marudio,kizuizi,mtendaji,NA,NA,NA,"c(""distractor1"", ""distractor2"", ""distractor3"")",NA,NA,NA,NA,NA,NA,NA,NA,NA,NA,NA,NA,NA,NA,NA,NA,NA,NA,NA
48cb2,task,flow.Sequence,2_4,NA,NA,completion,5150.455,136276.80000001,136275.377,136291.918,141442.373,141444.40000001,2023-04-13T18:17:35Z,141459.033,Beweis,ushahidi,s,marudio,kizuizi,mtendaji,NA,NA,NA,"c(""distractor1"", ""distractor2"", ""distractor3"")",NA,NA,NA,NA,NA,NA,NA,NA,NA,NA,NA,NA,NA,NA,NA,NA,NA,NA,NA
48cb2,Shallow Question,html.Page,2_5_0_0,NA,NA,form submission,17885.566999994,141444.59999999,141442.373,141459.033,159344.59999999,159345,2023-04-13T18:17:53Z,159359.972,Schönheit,kirembo,d,mahojiano,msisimko,jitihadi,kirembo,NA,NA,"c(""distractor1"", ""distractor2"", ""distractor3"")",NA,NA,NA,NA,NA,NA,NA,NA,NA,NA,NA,NA,NA,NA,NA,NA,NA,NA,NA
48cb2,Save data screen,canvas.Screen,2_5_0_1,NA,NA,timeout,499.946,159347.5,159343.313,159359.972,159843.416,159844.5,2023-04-13T18:17:53Z,159859.918,Schönheit,kirembo,d,mahojiano,msisimko,jitihadi,NA,NA,1,"c(""distractor1"", ""distractor2"", ""distractor3"")",NA,NA,NA,NA,NA,NA,NA,NA,NA,NA,NA,NA,NA,NA,NA,NA,NA,NA,NA
48cb2,shallow,flow.Sequence,2_5_0,NA,NA,completion,18384.383,141444.59999999,141442.373,141459.033,159843.416,159845,2023-04-13T18:17:53Z,159859.918,Schönheit,kirembo,d,mahojiano,msisimko,jitihadi,NA,NA,NA,"c(""distractor1"", ""distractor2"", ""distractor3"")",NA,NA,NA,NA,NA,NA,NA,NA,NA,NA,NA,NA,NA,NA,NA,NA,NA,NA,NA
48cb2,task,flow.Sequence,2_5,NA,NA,completion,18384.383,141444.5,141442.373,141459.033,159843.416,159845.30000001,2023-04-13T18:17:53Z,159859.918,Schönheit,kirembo,d,mahojiano,msisimko,jitihadi,NA,NA,NA,"c(""distractor1"", ""distractor2"", ""distractor3"")",NA,NA,NA,NA,NA,NA,NA,NA,NA,NA,NA,NA,NA,NA,NA,NA,NA,NA,NA
48cb2,Shallow Question,html.Page,2_6_0_0,NA,NA,form submission,5758.082,159845.59999999,159843.416,159859.918,165618,165618.30000001,2023-04-13T18:17:59Z,165626.848,Wettbewerb,ushindani,s,mapendezi,kichocheo,ubaguzi,ushindani,NA,NA,"c(""distractor1"", ""distractor2"", ""distractor3"")",NA,NA,NA,NA,NA,NA,NA,NA,NA,NA,NA,NA,NA,NA,NA,NA,NA,NA,NA
48cb2,Save data screen,canvas.Screen,2_6_0_1,NA,NA,timeout,500.19200000001,165620.80000001,165610.204,165626.848,166110.277,166111.20000002,2023-04-13T18:18:00Z,166127.04,Wettbewerb,ushindani,s,mapendezi,kichocheo,ubaguzi,NA,NA,1,"c(""distractor1"", ""distractor2"", ""distractor3"")",NA,NA,NA,NA,NA,NA,NA,NA,NA,NA,NA,NA,NA,NA,NA,NA,NA,NA,NA
48cb2,shallow,flow.Sequence,2_6_0,NA,NA,completion,6250.359,159845.5,159843.416,159859.918,166110.277,166111.59999999,2023-04-13T18:18:00Z,166127.04,Wettbewerb,ushindani,s,mapendezi,kichocheo,ubaguzi,NA,NA,NA,"c(""distractor1"", ""distractor2"", ""distractor3"")",NA,NA,NA,NA,NA,NA,NA,NA,NA,NA,NA,NA,NA,NA,NA,NA,NA,NA,NA
48cb2,task,flow.Sequence,2_6,NA,NA,completion,6250.359,159845.5,159843.416,159859.918,166110.277,166111.90000001,2023-04-13T18:18:00Z,166127.04,Wettbewerb,ushindani,s,mapendezi,kichocheo,ubaguzi,NA,NA,NA,"c(""distractor1"", ""distractor2"", ""distractor3"")",NA,NA,NA,NA,NA,NA,NA,NA,NA,NA,NA,NA,NA,NA,NA,NA,NA,NA,NA
48cb2,Shallow Question,html.Page,2_7_0_0,NA,NA,form submission,3899.559999994,166112.09999999,166110.277,166127.04,170026.59999999,170026.70000002,2023-04-13T18:18:04Z,170049.575,Symbol,kielezo,d,kinyume,nderemo,utayari,kielezo,NA,NA,"c(""distractor1"", ""distractor2"", ""distractor3"")",NA,NA,NA,NA,NA,NA,NA,NA,NA,NA,NA,NA,NA,NA,NA,NA,NA,NA,NA
48cb2,Save data screen,canvas.Screen,2_7_0_1,NA,NA,timeout,494.71099999998,170028.20000002,170010.541,170049.575,170527.253,170528.5,2023-04-13T18:18:04Z,170544.286,Symbol,kielezo,d,kinyume,nderemo,utayari,NA,NA,1,"c(""distractor1"", ""distractor2"", ""distractor3"")",NA,NA,NA,NA,NA,NA,NA,NA,NA,NA,NA,NA,NA,NA,NA,NA,NA,NA,NA
48cb2,shallow,flow.Sequence,2_7_0,NA,NA,completion,4400.213,166112,166110.277,166127.04,170527.253,170529,2023-04-13T18:18:04Z,170544.286,Symbol,kielezo,d,kinyume,nderemo,utayari,NA,NA,NA,"c(""distractor1"", ""distractor2"", ""distractor3"")",NA,NA,NA,NA,NA,NA,NA,NA,NA,NA,NA,NA,NA,NA,NA,NA,NA,NA,NA
48cb2,task,flow.Sequence,2_7,NA,NA,completion,4400.213,166112,166110.277,166127.04,170527.253,170529.5,2023-04-13T18:18:04Z,170544.286,Symbol,kielezo,d,kinyume,nderemo,utayari,NA,NA,NA,"c(""distractor1"", ""distractor2"", ""distractor3"")",NA,NA,NA,NA,NA,NA,NA,NA,NA,NA,NA,NA,NA,NA,NA,NA,NA,NA,NA
48cb2,Shallow Question,html.Page,2_8_0_0,NA,NA,form submission,4738.214,170530,170527.253,170544.286,175282.5,175282.70000002,2023-04-13T18:18:09Z,175294.022,Polizist,msongora,s,simanzi,mandhari,nidhamu,msongora,NA,NA,"c(""distractor1"", ""distractor2"", ""distractor3"")",NA,NA,NA,NA,NA,NA,NA,NA,NA,NA,NA,NA,NA,NA,NA,NA,NA,NA,NA
48cb2,Save data screen,canvas.Screen,2_8_0_1,NA,NA,timeout,500.17800000001,175285.09999999,175277.505,175294.022,175777.574,175778.70000002,2023-04-13T18:18:09Z,175794.2,Polizist,msongora,s,simanzi,mandhari,nidhamu,NA,NA,1,"c(""distractor1"", ""distractor2"", ""distractor3"")",NA,NA,NA,NA,NA,NA,NA,NA,NA,NA,NA,NA,NA,NA,NA,NA,NA,NA,NA
48cb2,shallow,flow.Sequence,2_8_0,NA,NA,completion,5233.288,170529.90000001,170527.253,170544.286,175777.574,175779.20000002,2023-04-13T18:18:09Z,175794.2,Polizist,msongora,s,simanzi,mandhari,nidhamu,NA,NA,NA,"c(""distractor1"", ""distractor2"", ""distractor3"")",NA,NA,NA,NA,NA,NA,NA,NA,NA,NA,NA,NA,NA,NA,NA,NA,NA,NA,NA
48cb2,task,flow.Sequence,2_8,NA,NA,completion,5233.288,170529.80000001,170527.253,170544.286,175777.574,175779.40000001,2023-04-13T18:18:09Z,175794.2,Polizist,msongora,s,simanzi,mandhari,nidhamu,NA,NA,NA,"c(""distractor1"", ""distractor2"", ""distractor3"")",NA,NA,NA,NA,NA,NA,NA,NA,NA,NA,NA,NA,NA,NA,NA,NA,NA,NA,NA
48cb2,Shallow Question,html.Page,2_9_0_0,NA,NA,form submission,7970.1000000119,175779.80000001,175777.574,175794.2,183764.30000001,183764.5,2023-04-13T18:18:17Z,183777.964,Vorsorge,tahadhari,s,ufafanuzi,makini,mashambani,tahadhari,NA,NA,"c(""distractor1"", ""distractor2"", ""distractor3"")",NA,NA,NA,NA,NA,NA,NA,NA,NA,NA,NA,NA,NA,NA,NA,NA,NA,NA,NA
48cb2,Save data screen,canvas.Screen,2_9_0_1,NA,NA,timeout,500.22899999999,183767.09999999,183761.338,183777.964,184261.238,184262.5,2023-04-13T18:18:18Z,184278.193,Vorsorge,tahadhari,s,ufafanuzi,makini,mashambani,NA,NA,1,"c(""distractor1"", ""distractor2"", ""distractor3"")",NA,NA,NA,NA,NA,NA,NA,NA,NA,NA,NA,NA,NA,NA,NA,NA,NA,NA,NA
48cb2,shallow,flow.Sequence,2_9_0,NA,NA,completion,8467.038,175779.70000002,175777.574,175794.2,184261.238,184262.90000001,2023-04-13T18:18:18Z,184278.193,Vorsorge,tahadhari,s,ufafanuzi,makini,mashambani,NA,NA,NA,"c(""distractor1"", ""distractor2"", ""distractor3"")",NA,NA,NA,NA,NA,NA,NA,NA,NA,NA,NA,NA,NA,NA,NA,NA,NA,NA,NA
48cb2,task,flow.Sequence,2_9,NA,NA,completion,8467.038,175779.70000002,175777.574,175794.2,184261.238,184263.20000002,2023-04-13T18:18:18Z,184278.193,Vorsorge,tahadhari,s,ufafanuzi,makini,mashambani,NA,NA,NA,"c(""distractor1"", ""distractor2"", ""distractor3"")",NA,NA,NA,NA,NA,NA,NA,NA,NA,NA,NA,NA,NA,NA,NA,NA,NA,NA,NA
48cb2,Shallow Question,html.Page,2_10_0_0,NA,NA,form submission,3839.1070000119,184263.59999999,184261.238,184278.193,188117.30000001,188117.5,2023-04-13T18:18:22Z,188128.091,Zuwachs,nyongeza,d,matilaba,udhibiti,hudhurio,nyongeza,NA,NA,"c(""distractor1"", ""distractor2"", ""distractor3"")",NA,NA,NA,NA,NA,NA,NA,NA,NA,NA,NA,NA,NA,NA,NA,NA,NA,NA,NA
48cb2,Save data screen,canvas.Screen,2_10_0_1,NA,NA,timeout,500.17400000003,188120,188111.658,188128.091,188611.57,188612.40000001,2023-04-13T18:18:22Z,188628.265,Zuwachs,nyongeza,d,matilaba,udhibiti,hudhurio,NA,NA,1,"c(""distractor1"", ""distractor2"", ""distractor3"")",NA,NA,NA,NA,NA,NA,NA,NA,NA,NA,NA,NA,NA,NA,NA,NA,NA,NA,NA
48cb2,shallow,flow.Sequence,2_10_0,NA,NA,completion,4333.377,184263.5,184261.238,184278.193,188611.57,188612.70000002,2023-04-13T18:18:22Z,188628.265,Zuwachs,nyongeza,d,matilaba,udhibiti,hudhurio,NA,NA,NA,"c(""distractor1"", ""distractor2"", ""distractor3"")",NA,NA,NA,NA,NA,NA,NA,NA,NA,NA,NA,NA,NA,NA,NA,NA,NA,NA,NA
48cb2,task,flow.Sequence,2_10,NA,NA,completion,4333.377,184263.40000001,184261.238,184278.193,188611.57,188612.80000001,2023-04-13T18:18:22Z,188628.265,Zuwachs,nyongeza,d,matilaba,udhibiti,hudhurio,NA,NA,NA,"c(""distractor1"", ""distractor2"", ""distractor3"")",NA,NA,NA,NA,NA,NA,NA,NA,NA,NA,NA,NA,NA,NA,NA,NA,NA,NA,NA
48cb2,Shallow Question,html.Page,2_11_0_0,NA,NA,form submission,6480.1350000059,188612.90000001,188611.57,188628.265,195108.40000001,195108.59999999,2023-04-13T18:18:29Z,195111.853,Widerstand,usulubu,d,kusababisha,mwalimu,mwenendo,usulubu,NA,NA,"c(""distractor1"", ""distractor2"", ""distractor3"")",NA,NA,NA,NA,NA,NA,NA,NA,NA,NA,NA,NA,NA,NA,NA,NA,NA,NA,NA
48cb2,Save data screen,canvas.Screen,2_11_0_1,NA,NA,timeout,500.117,195111,195095.204,195111.853,195595.349,195596.5,2023-04-13T18:18:29Z,195611.97,Widerstand,usulubu,d,kusababisha,mwalimu,mwenendo,NA,NA,1,"c(""distractor1"", ""distractor2"", ""distractor3"")",NA,NA,NA,NA,NA,NA,NA,NA,NA,NA,NA,NA,NA,NA,NA,NA,NA,NA,NA
48cb2,shallow,flow.Sequence,2_11_0,NA,NA,completion,6967.084,188612.90000001,188611.57,188628.265,195595.349,195597,2023-04-13T18:18:29Z,195611.97,Widerstand,usulubu,d,kusababisha,mwalimu,mwenendo,NA,NA,NA,"c(""distractor1"", ""distractor2"", ""distractor3"")",NA,NA,NA,NA,NA,NA,NA,NA,NA,NA,NA,NA,NA,NA,NA,NA,NA,NA,NA
48cb2,task,flow.Sequence,2_11,NA,NA,completion,6967.084,188612.90000001,188611.57,188628.265,195595.349,195597.30000001,2023-04-13T18:18:29Z,195611.97,Widerstand,usulubu,d,kusababisha,mwalimu,mwenendo,NA,NA,NA,"c(""distractor1"", ""distractor2"", ""distractor3"")",NA,NA,NA,NA,NA,NA,NA,NA,NA,NA,NA,NA,NA,NA,NA,NA,NA,NA,NA
48cb2,Shallow Question,html.Page,2_12_0_0,NA,NA,form submission,6570.03,195597.59999999,195595.349,195611.97,202182,202182.20000002,2023-04-13T18:18:36Z,202195.718,Konkurrent,mshindani,s,msemaji,mvutaji,kipukusa,mshindani,NA,NA,"c(""distractor1"", ""distractor2"", ""distractor3"")",NA,NA,NA,NA,NA,NA,NA,NA,NA,NA,NA,NA,NA,NA,NA,NA,NA,NA,NA
48cb2,Save data screen,canvas.Screen,2_12_0_1,NA,NA,timeout,499.976,202184.70000002,202178.953,202195.718,202679.015,202680.20000002,2023-04-13T18:18:36Z,202695.694,Konkurrent,mshindani,s,msemaji,mvutaji,kipukusa,NA,NA,1,"c(""distractor1"", ""distractor2"", ""distractor3"")",NA,NA,NA,NA,NA,NA,NA,NA,NA,NA,NA,NA,NA,NA,NA,NA,NA,NA,NA
48cb2,shallow,flow.Sequence,2_12_0,NA,NA,completion,7067.045,195597.5,195595.349,195611.97,202679.015,202680.59999999,2023-04-13T18:18:36Z,202695.694,Konkurrent,mshindani,s,msemaji,mvutaji,kipukusa,NA,NA,NA,"c(""distractor1"", ""distractor2"", ""distractor3"")",NA,NA,NA,NA,NA,NA,NA,NA,NA,NA,NA,NA,NA,NA,NA,NA,NA,NA,NA
48cb2,task,flow.Sequence,2_12,NA,NA,completion,7067.045,195597.5,195595.349,195611.97,202679.015,202680.90000001,2023-04-13T18:18:36Z,202695.694,Konkurrent,mshindani,s,msemaji,mvutaji,kipukusa,NA,NA,NA,"c(""distractor1"", ""distractor2"", ""distractor3"")",NA,NA,NA,NA,NA,NA,NA,NA,NA,NA,NA,NA,NA,NA,NA,NA,NA,NA,NA
48cb2,Shallow Question,html.Page,2_13_0_0,NA,NA,form submission,7210.9059999941,202681.20000002,202679.015,202695.694,209906.59999999,209906.80000001,2023-04-13T18:18:43Z,209912.78,Annäherung,maegesho,d,madahili,kujiamini,mapendekezo,maegesho,NA,NA,"c(""distractor1"", ""distractor2"", ""distractor3"")",NA,NA,NA,NA,NA,NA,NA,NA,NA,NA,NA,NA,NA,NA,NA,NA,NA,NA,NA
48cb2,Save data screen,canvas.Screen,2_13_0_1,NA,NA,timeout,500.052,209909.30000001,209895.987,209912.78,210396.103,210397.30000001,2023-04-13T18:18:44Z,210412.832,Annäherung,maegesho,d,madahili,kujiamini,mapendekezo,NA,NA,1,"c(""distractor1"", ""distractor2"", ""distractor3"")",NA,NA,NA,NA,NA,NA,NA,NA,NA,NA,NA,NA,NA,NA,NA,NA,NA,NA,NA
48cb2,shallow,flow.Sequence,2_13_0,NA,NA,completion,7700.409,202681.20000002,202679.015,202695.694,210396.103,210397.80000001,2023-04-13T18:18:44Z,210412.832,Annäherung,maegesho,d,madahili,kujiamini,mapendekezo,NA,NA,NA,"c(""distractor1"", ""distractor2"", ""distractor3"")",NA,NA,NA,NA,NA,NA,NA,NA,NA,NA,NA,NA,NA,NA,NA,NA,NA,NA,NA
48cb2,task,flow.Sequence,2_13,NA,NA,completion,7700.409,202681.09999999,202679.015,202695.694,210396.103,210398.09999999,2023-04-13T18:18:44Z,210412.832,Annäherung,maegesho,d,madahili,kujiamini,mapendekezo,NA,NA,NA,"c(""distractor1"", ""distractor2"", ""distractor3"")",NA,NA,NA,NA,NA,NA,NA,NA,NA,NA,NA,NA,NA,NA,NA,NA,NA,NA,NA
48cb2,Shallow Question,html.Page,2_14_0_0,NA,NA,form submission,3773.068000006,210398.5,210396.103,210412.832,214185.90000001,214186,2023-04-13T18:18:48Z,214196.309,Zufall,kikuti,d,kukosekana,uchoraji,leseni,kikuti,NA,NA,"c(""distractor1"", ""distractor2"", ""distractor3"")",NA,NA,NA,NA,NA,NA,NA,NA,NA,NA,NA,NA,NA,NA,NA,NA,NA,NA,NA
48cb2,Save data screen,canvas.Screen,2_14_0_1,NA,NA,timeout,500.05499999999,214188.5,214179.769,214196.309,214679.688,214680.80000001,2023-04-13T18:18:48Z,214696.364,Zufall,kikuti,d,kukosekana,uchoraji,leseni,NA,NA,1,"c(""distractor1"", ""distractor2"", ""distractor3"")",NA,NA,NA,NA,NA,NA,NA,NA,NA,NA,NA,NA,NA,NA,NA,NA,NA,NA,NA
48cb2,shallow,flow.Sequence,2_14_0,NA,NA,completion,4266.856,210398.40000001,210396.103,210412.832,214679.688,214681.40000001,2023-04-13T18:18:48Z,214696.364,Zufall,kikuti,d,kukosekana,uchoraji,leseni,NA,NA,NA,"c(""distractor1"", ""distractor2"", ""distractor3"")",NA,NA,NA,NA,NA,NA,NA,NA,NA,NA,NA,NA,NA,NA,NA,NA,NA,NA,NA
48cb2,task,flow.Sequence,2_14,NA,NA,completion,4266.856,210398.30000001,210396.103,210412.832,214679.688,214681.70000002,2023-04-13T18:18:48Z,214696.364,Zufall,kikuti,d,kukosekana,uchoraji,leseni,NA,NA,NA,"c(""distractor1"", ""distractor2"", ""distractor3"")",NA,NA,NA,NA,NA,NA,NA,NA,NA,NA,NA,NA,NA,NA,NA,NA,NA,NA,NA
48cb2,Shallow Question,html.Page,2_15_0_0,NA,NA,form submission,7637.136,214682,214679.688,214696.364,222333.5,222333.70000002,2023-04-13T18:18:56Z,222346.758,Auftrag,uagizaji,s,ghanima,kuzingatia,msukani,uagizaji,NA,NA,"c(""distractor1"", ""distractor2"", ""distractor3"")",NA,NA,NA,NA,NA,NA,NA,NA,NA,NA,NA,NA,NA,NA,NA,NA,NA,NA,NA
48cb2,Save data screen,canvas.Screen,2_15_0_1,NA,NA,timeout,500.019,222336.30000001,222329.888,222346.758,222830.138,222831.20000002,2023-04-13T18:18:56Z,222846.777,Auftrag,uagizaji,s,ghanima,kuzingatia,msukani,NA,NA,1,"c(""distractor1"", ""distractor2"", ""distractor3"")",NA,NA,NA,NA,NA,NA,NA,NA,NA,NA,NA,NA,NA,NA,NA,NA,NA,NA,NA
48cb2,shallow,flow.Sequence,2_15_0,NA,NA,completion,8133.774,214682,214679.688,214696.364,222830.138,222831.59999999,2023-04-13T18:18:56Z,222846.777,Auftrag,uagizaji,s,ghanima,kuzingatia,msukani,NA,NA,NA,"c(""distractor1"", ""distractor2"", ""distractor3"")",NA,NA,NA,NA,NA,NA,NA,NA,NA,NA,NA,NA,NA,NA,NA,NA,NA,NA,NA
48cb2,task,flow.Sequence,2_15,NA,NA,completion,8133.774,214681.90000001,214679.688,214696.364,222830.138,222831.90000001,2023-04-13T18:18:56Z,222846.777,Auftrag,uagizaji,s,ghanima,kuzingatia,msukani,NA,NA,NA,"c(""distractor1"", ""distractor2"", ""distractor3"")",NA,NA,NA,NA,NA,NA,NA,NA,NA,NA,NA,NA,NA,NA,NA,NA,NA,NA,NA
48cb2,retrieval block 2 (multiple choice),flow.Loop,2,NA,NA,completion,141090.906,81724.700000018,81722.376,81739.232,222830.138,222832.20000002,2023-04-13T18:18:56Z,222846.777,NA,NA,NA,NA,NA,NA,NA,NA,NA,"c(""distractor1"", ""distractor2"", ""distractor3"")",NA,NA,NA,NA,NA,NA,NA,NA,NA,NA,NA,NA,NA,NA,NA,NA,NA,NA,NA
48cb2,End,canvas.Screen,3,NA,keypress(Space),response,1776.623000006,222832.30000001,222830.138,222846.777,224623.40000001,224624.80000001,2023-04-13T18:18:58Z,224630.194,NA,NA,NA,NA,NA,NA,NA,NA,NA,NULL,NA,NA,NA,NA,NA,NA,NA,NA,NA,NA,NA,NA,NA,NA,NA,NA,NA,NA,NA
48cb2,root,flow.Sequence,NA,NA,NA,completion,223955.59800001,659.40000000596,401.151,667.802,224623.40000001,224625.5,2023-04-13T18:18:58Z,224630.194,NA,NA,NA,NA,NA,NA,NA,NA,NA,NULL,NA,NA,NA,NA,NA,NA,NA,NA,NA,NA,NA,NA,NA,NA,NA,NA,NA,NA,NA
