observation,sender,sender_type,sender_id,response,response_action,ended_on,duration,time_run,time_render,time_show,time_end,time_commit,timestamp,time_switch,distractors,german,swahili,enc,distractor1,distractor2,distractor3,response_2,x,correct,x_2,url_vp,url_sess,meta_labjs_version,meta_location,meta_user_agent,meta_platform,meta_language,meta_locale,meta_time_zone,meta_timezone_offset,meta_screen_width,meta_screen_height,meta_scroll_width,meta_scroll_height,meta_window_inner_width,meta_window_inner_height,meta_device_pixel_ratio,meta_labjs_build_flavor,meta_labjs_build_commit
ca4b0,Introduction general,canvas.Screen,0,weiter,keypress(q),response,1445681.414,5298,4202.398,5368.186,1451049.6,1451059.9,2023-04-11T16:01:47Z,1451057.397,NULL,NA,NA,NA,NA,NA,NA,NA,NA,NA,NA,209,1,20.2.4,https://neurocog.fernuni.ch/studies/vweber/sfink/encoding_immediate/index.html?vp=209&sess=1,"Mozilla/5.0 (Windows NT 10.0; Win64; x64) AppleWebKit/537.36 (KHTML, like Gecko) Chrome/111.0.0.0 Safari/537.36",Win32,de-CH,de,Europe/Zurich,-120,1536,864,1536,706,1536,754,1.25,production,f5b4a49f956347addd546a832a3327688c2c0fef
ca4b0,Introduction practice,canvas.Screen,1_0,NA,keypress(Space),response,10983.803000048,1451061.1,1451041.177,1451057.397,1462041.2,1462042.6,2023-04-11T16:01:58Z,1462065.023,NULL,NA,NA,NA,NA,NA,NA,NA,NA,NA,NA,NA,NA,NA,NA,NA,NA,NA,NA,NA,NA,NA,NA,NA,NA,NA,NA,NA,NA,NA
ca4b0,Deep Question,html.Page,1_1_0_0_0,NA,NA,form submission,3667.6770000476,1462043.1,1462047.71,1462065.023,1465732.7,1465732.9,2023-04-11T16:02:01Z,1465745.309,"c(""distractor1"", ""distractor2"", ""distractor3"")",Gesundheit,salama,d,NA,NA,NA,h,NA,NA,NA,NA,NA,NA,NA,NA,NA,NA,NA,NA,NA,NA,NA,NA,NA,NA,NA,NA,NA,NA
ca4b0,"""Richtig""-Screen",canvas.Screen,1_1_0_0_1,NA,NA,skipped,NA,1465734,NA,NA,1465732.7,1465734.1,2023-04-11T16:02:01Z,1465745.309,"c(""distractor1"", ""distractor2"", ""distractor3"")",Gesundheit,salama,d,NA,NA,NA,NA,NA,NA,NA,NA,NA,NA,NA,NA,NA,NA,NA,NA,NA,NA,NA,NA,NA,NA,NA,NA,NA,NA
ca4b0,"""Falsch""-Screen",canvas.Screen,1_1_0_0_2,NA,NA,timeout,4995.9850000001,1465735.2,1465729.237,1465745.309,1470725.115,1470730,2023-04-11T16:02:06Z,1470741.294,"c(""distractor1"", ""distractor2"", ""distractor3"")",Gesundheit,salama,d,NA,NA,NA,NA,NA,0,NA,NA,NA,NA,NA,NA,NA,NA,NA,NA,NA,NA,NA,NA,NA,NA,NA,NA,NA,NA
ca4b0,deep,flow.Sequence,1_1_0_0,NA,NA,completion,8660.0919999999,1462043.1,1462047.71,1462065.023,1470725.115,1470730.6,2023-04-11T16:02:06Z,1470741.294,"c(""distractor1"", ""distractor2"", ""distractor3"")",Gesundheit,salama,d,NA,NA,NA,NA,NA,NA,NA,NA,NA,NA,NA,NA,NA,NA,NA,NA,NA,NA,NA,NA,NA,NA,NA,NA,NA,NA
ca4b0,shallow,flow.Sequence,1_1_0_1,NA,NA,skipped,NA,1470730.9,NA,NA,1470725.115,1470731,2023-04-11T16:02:06Z,1470741.294,"c(""distractor1"", ""distractor2"", ""distractor3"")",Gesundheit,salama,d,NA,NA,NA,NA,NA,NA,NA,NA,NA,NA,NA,NA,NA,NA,NA,NA,NA,NA,NA,NA,NA,NA,NA,NA,NA,NA
ca4b0,task,flow.Sequence,1_1_0,NA,NA,completion,8660.0919999999,1462043.1,1462047.71,1462065.023,1470725.115,1470731.3,2023-04-11T16:02:06Z,1470741.294,"c(""distractor1"", ""distractor2"", ""distractor3"")",Gesundheit,salama,d,NA,NA,NA,NA,NA,NA,NA,NA,NA,NA,NA,NA,NA,NA,NA,NA,NA,NA,NA,NA,NA,NA,NA,NA,NA,NA
ca4b0,deep,flow.Sequence,1_1_1_0,NA,NA,skipped,NA,1470731.6,NA,NA,1470725.115,1470731.8,2023-04-11T16:02:06Z,1470741.294,"c(""distractor1"", ""distractor2"", ""distractor3"")",Rückhalt,msaada,s,muhula,auwali,kiwimbe,NA,NA,NA,NA,NA,NA,NA,NA,NA,NA,NA,NA,NA,NA,NA,NA,NA,NA,NA,NA,NA,NA,NA
ca4b0,Shallow Question,html.Page,1_1_1_1_0,NA,NA,form submission,5380.1060000358,1470732.1,1470725.115,1470741.294,1476121.4,1476121.7,2023-04-11T16:02:12Z,1476136.736,"c(""distractor1"", ""distractor2"", ""distractor3"")",Rückhalt,msaada,s,muhula,auwali,kiwimbe,auwali,NA,NA,NA,NA,NA,NA,NA,NA,NA,NA,NA,NA,NA,NA,NA,NA,NA,NA,NA,NA,NA,NA
ca4b0,"""Richtig""-Screen",canvas.Screen,1_1_1_1_1,NA,NA,skipped,NA,1476124.9,NA,NA,1476121.4,1476130.8,2023-04-11T16:02:12Z,1476136.736,"c(""distractor1"", ""distractor2"", ""distractor3"")",Rückhalt,msaada,s,muhula,auwali,kiwimbe,NA,NA,NA,NA,NA,NA,NA,NA,NA,NA,NA,NA,NA,NA,NA,NA,NA,NA,NA,NA,NA,NA,NA
ca4b0,"""Falsch""-Screen",canvas.Screen,1_1_1_1_2,NA,NA,timeout,4995.996,1476132,1476120.248,1476136.736,1481116.093,1481117,2023-04-11T16:02:17Z,1481132.732,"c(""distractor1"", ""distractor2"", ""distractor3"")",Rückhalt,msaada,s,muhula,auwali,kiwimbe,NA,NA,0,NA,NA,NA,NA,NA,NA,NA,NA,NA,NA,NA,NA,NA,NA,NA,NA,NA,NA,NA,NA
ca4b0,shallow,flow.Sequence,1_1_1_1,NA,NA,completion,10374.799,1470732,1470725.115,1470741.294,1481116.093,1481117.5,2023-04-11T16:02:17Z,1481132.732,"c(""distractor1"", ""distractor2"", ""distractor3"")",Rückhalt,msaada,s,muhula,auwali,kiwimbe,NA,NA,NA,NA,NA,NA,NA,NA,NA,NA,NA,NA,NA,NA,NA,NA,NA,NA,NA,NA,NA,NA,NA
ca4b0,task,flow.Sequence,1_1_1,NA,NA,completion,10374.799,1470731.5,1470725.115,1470741.294,1481116.093,1481117.9,2023-04-11T16:02:17Z,1481132.732,"c(""distractor1"", ""distractor2"", ""distractor3"")",Rückhalt,msaada,s,muhula,auwali,kiwimbe,NA,NA,NA,NA,NA,NA,NA,NA,NA,NA,NA,NA,NA,NA,NA,NA,NA,NA,NA,NA,NA,NA,NA
ca4b0,Deep Question,html.Page,1_1_2_0_0,NA,NA,form submission,6511.1680000357,1481118.6,1481116.093,1481132.732,1487643.9,1487644.1,2023-04-11T16:02:23Z,1487674.961,"c(""distractor1"", ""distractor2"", ""distractor3"")",Qualität,mtindo,d,NA,NA,NA,h,NA,NA,NA,NA,NA,NA,NA,NA,NA,NA,NA,NA,NA,NA,NA,NA,NA,NA,NA,NA,NA,NA
ca4b0,"""Richtig""-Screen",canvas.Screen,1_1_2_0_1,NA,NA,skipped,NA,1487646.7,NA,NA,1487643.9,1487646.8,2023-04-11T16:02:23Z,1487674.961,"c(""distractor1"", ""distractor2"", ""distractor3"")",Qualität,mtindo,d,NA,NA,NA,NA,NA,NA,NA,NA,NA,NA,NA,NA,NA,NA,NA,NA,NA,NA,NA,NA,NA,NA,NA,NA,NA,NA
ca4b0,"""Falsch""-Screen",canvas.Screen,1_1_2_0_2,NA,NA,timeout,4998.331,1487647.6,1487627.915,1487674.961,1492657.12,1492658.1,2023-04-11T16:02:28Z,1492673.292,"c(""distractor1"", ""distractor2"", ""distractor3"")",Qualität,mtindo,d,NA,NA,NA,NA,NA,0,NA,NA,NA,NA,NA,NA,NA,NA,NA,NA,NA,NA,NA,NA,NA,NA,NA,NA,NA,NA
ca4b0,deep,flow.Sequence,1_1_2_0,NA,NA,completion,11524.388,1481118.5,1481116.093,1481132.732,1492657.12,1492658.6,2023-04-11T16:02:28Z,1492673.292,"c(""distractor1"", ""distractor2"", ""distractor3"")",Qualität,mtindo,d,NA,NA,NA,NA,NA,NA,NA,NA,NA,NA,NA,NA,NA,NA,NA,NA,NA,NA,NA,NA,NA,NA,NA,NA,NA,NA
ca4b0,shallow,flow.Sequence,1_1_2_1,NA,NA,skipped,NA,1492658.7,NA,NA,1492657.12,1492658.9,2023-04-11T16:02:28Z,1492673.292,"c(""distractor1"", ""distractor2"", ""distractor3"")",Qualität,mtindo,d,NA,NA,NA,NA,NA,NA,NA,NA,NA,NA,NA,NA,NA,NA,NA,NA,NA,NA,NA,NA,NA,NA,NA,NA,NA,NA
ca4b0,task,flow.Sequence,1_1_2,NA,NA,completion,11524.388,1481118.4,1481116.093,1481132.732,1492657.12,1492659.3,2023-04-11T16:02:28Z,1492673.292,"c(""distractor1"", ""distractor2"", ""distractor3"")",Qualität,mtindo,d,NA,NA,NA,NA,NA,NA,NA,NA,NA,NA,NA,NA,NA,NA,NA,NA,NA,NA,NA,NA,NA,NA,NA,NA,NA,NA
ca4b0,Deep Question,html.Page,1_1_3_0_0,NA,NA,form submission,3273.6080000359,1492659.6,1492657.12,1492673.292,1495946.9,1495947.1,2023-04-11T16:02:32Z,1495953.804,"c(""distractor1"", ""distractor2"", ""distractor3"")",Schatten,kivuli,d,NA,NA,NA,h,NA,NA,NA,NA,NA,NA,NA,NA,NA,NA,NA,NA,NA,NA,NA,NA,NA,NA,NA,NA,NA,NA
ca4b0,"""Richtig""-Screen",canvas.Screen,1_1_3_0_1,NA,NA,skipped,NA,1495949,NA,NA,1495946.9,1495949.1,2023-04-11T16:02:32Z,1495953.804,"c(""distractor1"", ""distractor2"", ""distractor3"")",Schatten,kivuli,d,NA,NA,NA,NA,NA,NA,NA,NA,NA,NA,NA,NA,NA,NA,NA,NA,NA,NA,NA,NA,NA,NA,NA,NA,NA,NA
ca4b0,"""Falsch""-Screen",canvas.Screen,1_1_3_0_2,NA,NA,timeout,4995.993,1495949.8,1495937.758,1495953.804,1500933.584,1500934.5,2023-04-11T16:02:37Z,1500949.797,"c(""distractor1"", ""distractor2"", ""distractor3"")",Schatten,kivuli,d,NA,NA,NA,NA,NA,0,NA,NA,NA,NA,NA,NA,NA,NA,NA,NA,NA,NA,NA,NA,NA,NA,NA,NA,NA,NA
ca4b0,deep,flow.Sequence,1_1_3_0,NA,NA,completion,8260.2920000001,1492659.5,1492657.12,1492673.292,1500933.584,1500935,2023-04-11T16:02:37Z,1500949.797,"c(""distractor1"", ""distractor2"", ""distractor3"")",Schatten,kivuli,d,NA,NA,NA,NA,NA,NA,NA,NA,NA,NA,NA,NA,NA,NA,NA,NA,NA,NA,NA,NA,NA,NA,NA,NA,NA,NA
ca4b0,shallow,flow.Sequence,1_1_3_1,NA,NA,skipped,NA,1500935.1,NA,NA,1500933.584,1500935.3,2023-04-11T16:02:37Z,1500949.797,"c(""distractor1"", ""distractor2"", ""distractor3"")",Schatten,kivuli,d,NA,NA,NA,NA,NA,NA,NA,NA,NA,NA,NA,NA,NA,NA,NA,NA,NA,NA,NA,NA,NA,NA,NA,NA,NA,NA
ca4b0,task,flow.Sequence,1_1_3,NA,NA,completion,8260.2920000001,1492659.4,1492657.12,1492673.292,1500933.584,1500935.6,2023-04-11T16:02:37Z,1500949.797,"c(""distractor1"", ""distractor2"", ""distractor3"")",Schatten,kivuli,d,NA,NA,NA,NA,NA,NA,NA,NA,NA,NA,NA,NA,NA,NA,NA,NA,NA,NA,NA,NA,NA,NA,NA,NA,NA,NA
ca4b0,deep,flow.Sequence,1_1_4_0,NA,NA,skipped,NA,1500935.9,NA,NA,1500933.584,1500935.9,2023-04-11T16:02:37Z,1500949.797,"c(""distractor1"", ""distractor2"", ""distractor3"")",Kritik,lawama,s,dereva,nafasi,mawazo,NA,NA,NA,NA,NA,NA,NA,NA,NA,NA,NA,NA,NA,NA,NA,NA,NA,NA,NA,NA,NA,NA,NA
ca4b0,Shallow Question,html.Page,1_1_4_1_0,NA,NA,form submission,4333.8030000238,1500936.2,1500933.584,1500949.797,1505283.6,1505283.8,2023-04-11T16:02:41Z,1505296.649,"c(""distractor1"", ""distractor2"", ""distractor3"")",Kritik,lawama,s,dereva,nafasi,mawazo,nafasi,NA,NA,NA,NA,NA,NA,NA,NA,NA,NA,NA,NA,NA,NA,NA,NA,NA,NA,NA,NA,NA,NA
ca4b0,"""Richtig""-Screen",canvas.Screen,1_1_4_1_1,NA,NA,skipped,NA,1505285.9,NA,NA,1505283.6,1505286.1,2023-04-11T16:02:41Z,1505296.649,"c(""distractor1"", ""distractor2"", ""distractor3"")",Kritik,lawama,s,dereva,nafasi,mawazo,NA,NA,NA,NA,NA,NA,NA,NA,NA,NA,NA,NA,NA,NA,NA,NA,NA,NA,NA,NA,NA,NA,NA
ca4b0,"""Falsch""-Screen",canvas.Screen,1_1_4_1_2,NA,NA,timeout,4995.5970000001,1505286.8,1505280.068,1505296.649,1510276.009,1510277,2023-04-11T16:02:46Z,1510292.246,"c(""distractor1"", ""distractor2"", ""distractor3"")",Kritik,lawama,s,dereva,nafasi,mawazo,NA,NA,0,NA,NA,NA,NA,NA,NA,NA,NA,NA,NA,NA,NA,NA,NA,NA,NA,NA,NA,NA,NA
ca4b0,shallow,flow.Sequence,1_1_4_1,NA,NA,completion,9326.2120000001,1500936.1,1500933.584,1500949.797,1510276.009,1510277.5,2023-04-11T16:02:46Z,1510292.246,"c(""distractor1"", ""distractor2"", ""distractor3"")",Kritik,lawama,s,dereva,nafasi,mawazo,NA,NA,NA,NA,NA,NA,NA,NA,NA,NA,NA,NA,NA,NA,NA,NA,NA,NA,NA,NA,NA,NA,NA
ca4b0,task,flow.Sequence,1_1_4,NA,NA,completion,9326.2120000001,1500935.7,1500933.584,1500949.797,1510276.009,1510277.8,2023-04-11T16:02:46Z,1510292.246,"c(""distractor1"", ""distractor2"", ""distractor3"")",Kritik,lawama,s,dereva,nafasi,mawazo,NA,NA,NA,NA,NA,NA,NA,NA,NA,NA,NA,NA,NA,NA,NA,NA,NA,NA,NA,NA,NA,NA,NA
ca4b0,deep,flow.Sequence,1_1_5_0,NA,NA,skipped,NA,1510277.9,NA,NA,1510276.009,1510278.2,2023-04-11T16:02:46Z,1510292.246,"c(""distractor1"", ""distractor2"", ""distractor3"")",Gegenwart,hadhara,s,katiba,jokofu,mikopo,NA,NA,NA,NA,NA,NA,NA,NA,NA,NA,NA,NA,NA,NA,NA,NA,NA,NA,NA,NA,NA,NA,NA
ca4b0,Shallow Question,html.Page,1_1_5_1_0,NA,NA,form submission,4511.754,1510278.3,1510276.009,1510292.246,1514804,1514804.2,2023-04-11T16:02:50Z,1514805.046,"c(""distractor1"", ""distractor2"", ""distractor3"")",Gegenwart,hadhara,s,katiba,jokofu,mikopo,katiba,NA,NA,NA,NA,NA,NA,NA,NA,NA,NA,NA,NA,NA,NA,NA,NA,NA,NA,NA,NA,NA,NA
ca4b0,"""Richtig""-Screen",canvas.Screen,1_1_5_1_1,NA,NA,skipped,NA,1514806.2,NA,NA,1514804,1514806.3,2023-04-11T16:02:50Z,1514805.046,"c(""distractor1"", ""distractor2"", ""distractor3"")",Gegenwart,hadhara,s,katiba,jokofu,mikopo,NA,NA,NA,NA,NA,NA,NA,NA,NA,NA,NA,NA,NA,NA,NA,NA,NA,NA,NA,NA,NA,NA,NA
ca4b0,"""Falsch""-Screen",canvas.Screen,1_1_5_1_2,NA,NA,timeout,4995.9689999998,1514807,1514788.535,1514805.046,1519784.851,1519785.7,2023-04-11T16:02:55Z,1519801.015,"c(""distractor1"", ""distractor2"", ""distractor3"")",Gegenwart,hadhara,s,katiba,jokofu,mikopo,NA,NA,0,NA,NA,NA,NA,NA,NA,NA,NA,NA,NA,NA,NA,NA,NA,NA,NA,NA,NA,NA,NA
ca4b0,shallow,flow.Sequence,1_1_5_1,NA,NA,completion,9492.605,1510278.3,1510276.009,1510292.246,1519784.851,1519786.2,2023-04-11T16:02:55Z,1519801.015,"c(""distractor1"", ""distractor2"", ""distractor3"")",Gegenwart,hadhara,s,katiba,jokofu,mikopo,NA,NA,NA,NA,NA,NA,NA,NA,NA,NA,NA,NA,NA,NA,NA,NA,NA,NA,NA,NA,NA,NA,NA
ca4b0,task,flow.Sequence,1_1_5,NA,NA,completion,9492.605,1510277.9,1510276.009,1510292.246,1519784.851,1519786.5,2023-04-11T16:02:55Z,1519801.015,"c(""distractor1"", ""distractor2"", ""distractor3"")",Gegenwart,hadhara,s,katiba,jokofu,mikopo,NA,NA,NA,NA,NA,NA,NA,NA,NA,NA,NA,NA,NA,NA,NA,NA,NA,NA,NA,NA,NA,NA,NA
ca4b0,block,flow.Loop,1_1,NA,NA,completion,57719.828,1462043,1462047.71,1462065.023,1519784.851,1519786.9,2023-04-11T16:02:55Z,1519801.015,"c(""distractor1"", ""distractor2"", ""distractor3"")",NA,NA,NA,NA,NA,NA,NA,NA,NA,NA,NA,NA,NA,NA,NA,NA,NA,NA,NA,NA,NA,NA,NA,NA,NA,NA,NA,NA,NA
ca4b0,Practice,flow.Sequence,1,NA,NA,completion,68727.454,1451061,1451041.177,1451057.397,1519784.851,1519787.3,2023-04-11T16:02:55Z,1519801.015,NULL,NA,NA,NA,NA,NA,NA,NA,NA,NA,NA,NA,NA,NA,NA,NA,NA,NA,NA,NA,NA,NA,NA,NA,NA,NA,NA,NA,NA,NA
ca4b0,Experiment start,canvas.Screen,2,weiter,keypress(q),response,27000.985,1519787.4,1519784.851,1519801.015,1546802,1546803.5,2023-04-11T16:03:22Z,1546978.643,NULL,NA,NA,NA,NA,NA,NA,NA,NA,NA,NA,NA,NA,NA,NA,NA,NA,NA,NA,NA,NA,NA,NA,NA,NA,NA,NA,NA,NA,NA
ca4b0,Deep Question,html.Page,3_0_0_0_0_0_0,NA,NA,form submission,4332.157000012,1546977.1,1546977.462,1546978.643,1551310.8,1551311,2023-04-11T16:03:27Z,1551325.163,NULL,Ergänzung,kijalizo,d,NA,NA,NA,h,NA,NA,0,NA,NA,NA,NA,NA,NA,NA,NA,NA,NA,NA,NA,NA,NA,NA,NA,NA,NA,NA
ca4b0,"""Richtig""-Screen",canvas.Screen,3_0_0_0_0_0_1,NA,NA,skipped,NA,1551312.9,NA,NA,1551310.8,1551313.1,2023-04-11T16:03:27Z,1551325.163,NULL,Ergänzung,kijalizo,d,NA,NA,NA,NA,sdf,NA,0,NA,NA,NA,NA,NA,NA,NA,NA,NA,NA,NA,NA,NA,NA,NA,NA,NA,NA,NA
ca4b0,"""Falsch""-Screen",canvas.Screen,3_0_0_0_0_0_2,NA,NA,timeout,4995.923,1551313.6,1551308.971,1551325.163,1556304.875,1556306,2023-04-11T16:03:32Z,1556321.086,NULL,Ergänzung,kijalizo,d,NA,NA,NA,NA,sdf,0,0,NA,NA,NA,NA,NA,NA,NA,NA,NA,NA,NA,NA,NA,NA,NA,NA,NA,NA,NA
ca4b0,deep,flow.Sequence,3_0_0_0_0_0,NA,NA,completion,9326.2320000001,1546977,1546977.462,1546978.643,1556304.875,1556306.4,2023-04-11T16:03:32Z,1556321.086,NULL,Ergänzung,kijalizo,d,NA,NA,NA,NA,sdf,NA,0,NA,NA,NA,NA,NA,NA,NA,NA,NA,NA,NA,NA,NA,NA,NA,NA,NA,NA,NA
ca4b0,shallow,flow.Sequence,3_0_0_0_0_1,NA,NA,skipped,NA,1556306.5,NA,NA,1556304.875,1556306.7,2023-04-11T16:03:32Z,1556321.086,NULL,Ergänzung,kijalizo,d,NA,NA,NA,NA,sdf,NA,0,NA,NA,NA,NA,NA,NA,NA,NA,NA,NA,NA,NA,NA,NA,NA,NA,NA,NA,NA
ca4b0,task,flow.Sequence,3_0_0_0_0,NA,NA,completion,9326.2320000001,1546977,1546977.462,1546978.643,1556304.875,1556307,2023-04-11T16:03:32Z,1556321.086,NULL,Ergänzung,kijalizo,d,NA,NA,NA,NA,sdf,NA,0,NA,NA,NA,NA,NA,NA,NA,NA,NA,NA,NA,NA,NA,NA,NA,NA,NA,NA,NA
ca4b0,deep,flow.Sequence,3_0_0_0_1_0,NA,NA,skipped,NA,1556307.1,NA,NA,1556304.875,1556307.2,2023-04-11T16:03:32Z,1556321.086,NULL,Vergnügen,kichekesho,s,dubwana,mpanuko,mtesaji,NA,sdf,NA,0,NA,NA,NA,NA,NA,NA,NA,NA,NA,NA,NA,NA,NA,NA,NA,NA,NA,NA,NA
ca4b0,Shallow Question,html.Page,3_0_0_0_1_1_0,NA,NA,form submission,6392.3140000359,1556307.4,1556304.875,1556321.086,1562713.4,1562713.6,2023-04-11T16:03:38Z,1562715.675,NULL,Vergnügen,kichekesho,s,dubwana,mpanuko,mtesaji,dubwana,NA,NA,0,NA,NA,NA,NA,NA,NA,NA,NA,NA,NA,NA,NA,NA,NA,NA,NA,NA,NA,NA
ca4b0,"""Richtig""-Screen",canvas.Screen,3_0_0_0_1_1_1,NA,NA,skipped,NA,1562715.4,NA,NA,1562713.4,1562715.6,2023-04-11T16:03:38Z,1562715.675,NULL,Vergnügen,kichekesho,s,dubwana,mpanuko,mtesaji,NA,sdf,NA,0,NA,NA,NA,NA,NA,NA,NA,NA,NA,NA,NA,NA,NA,NA,NA,NA,NA,NA,NA
ca4b0,"""Falsch""-Screen",canvas.Screen,3_0_0_0_1_1_2,NA,NA,timeout,4996.2349999999,1562716.4,1562699.137,1562715.675,1567695.462,1567696.3,2023-04-11T16:03:43Z,1567711.91,NULL,Vergnügen,kichekesho,s,dubwana,mpanuko,mtesaji,NA,sdf,0,0,NA,NA,NA,NA,NA,NA,NA,NA,NA,NA,NA,NA,NA,NA,NA,NA,NA,NA,NA
ca4b0,shallow,flow.Sequence,3_0_0_0_1_1,NA,NA,completion,11374.376,1556307.3,1556304.875,1556321.086,1567695.462,1567696.8,2023-04-11T16:03:43Z,1567711.91,NULL,Vergnügen,kichekesho,s,dubwana,mpanuko,mtesaji,NA,sdf,NA,0,NA,NA,NA,NA,NA,NA,NA,NA,NA,NA,NA,NA,NA,NA,NA,NA,NA,NA,NA
ca4b0,task,flow.Sequence,3_0_0_0_1,NA,NA,completion,11374.376,1556307.1,1556304.875,1556321.086,1567695.462,1567697.1,2023-04-11T16:03:43Z,1567711.91,NULL,Vergnügen,kichekesho,s,dubwana,mpanuko,mtesaji,NA,sdf,NA,0,NA,NA,NA,NA,NA,NA,NA,NA,NA,NA,NA,NA,NA,NA,NA,NA,NA,NA,NA
ca4b0,deep,flow.Sequence,3_0_0_0_2_0,NA,NA,skipped,NA,1567697.3,NA,NA,1567695.462,1567697.4,2023-04-11T16:03:43Z,1567711.91,NULL,Notfall,dharura,s,rairai,malalamiko,ahueni,NA,sdf,NA,0,NA,NA,NA,NA,NA,NA,NA,NA,NA,NA,NA,NA,NA,NA,NA,NA,NA,NA,NA
ca4b0,Shallow Question,html.Page,3_0_0_0_2_1_0,NA,NA,form submission,4953.390000012,1567697.5,1567695.462,1567711.91,1572665.3,1572665.4,2023-04-11T16:03:48Z,1572674.317,NULL,Notfall,dharura,s,rairai,malalamiko,ahueni,rairai,NA,NA,0,NA,NA,NA,NA,NA,NA,NA,NA,NA,NA,NA,NA,NA,NA,NA,NA,NA,NA,NA
ca4b0,"""Richtig""-Screen",canvas.Screen,3_0_0_0_2_1_1,NA,NA,skipped,NA,1572667.4,NA,NA,1572665.3,1572667.5,2023-04-11T16:03:48Z,1572674.317,NULL,Notfall,dharura,s,rairai,malalamiko,ahueni,NA,sdf,NA,0,NA,NA,NA,NA,NA,NA,NA,NA,NA,NA,NA,NA,NA,NA,NA,NA,NA,NA,NA
ca4b0,"""Falsch""-Screen",canvas.Screen,3_0_0_0_2_1_2,NA,NA,timeout,4995.8289999999,1572668.1,1572657.863,1572674.317,1577654.03,1577655,2023-04-11T16:03:53Z,1577670.146,NULL,Notfall,dharura,s,rairai,malalamiko,ahueni,NA,sdf,0,0,NA,NA,NA,NA,NA,NA,NA,NA,NA,NA,NA,NA,NA,NA,NA,NA,NA,NA,NA
ca4b0,shallow,flow.Sequence,3_0_0_0_2_1,NA,NA,completion,9942.1200000001,1567697.5,1567695.462,1567711.91,1577654.03,1577655.3,2023-04-11T16:03:53Z,1577670.146,NULL,Notfall,dharura,s,rairai,malalamiko,ahueni,NA,sdf,NA,0,NA,NA,NA,NA,NA,NA,NA,NA,NA,NA,NA,NA,NA,NA,NA,NA,NA,NA,NA
ca4b0,task,flow.Sequence,3_0_0_0_2,NA,NA,completion,9942.1200000001,1567697.1,1567695.462,1567711.91,1577654.03,1577655.7,2023-04-11T16:03:53Z,1577670.146,NULL,Notfall,dharura,s,rairai,malalamiko,ahueni,NA,sdf,NA,0,NA,NA,NA,NA,NA,NA,NA,NA,NA,NA,NA,NA,NA,NA,NA,NA,NA,NA,NA
ca4b0,deep,flow.Sequence,3_0_0_0_3_0,NA,NA,skipped,NA,1577655.9,NA,NA,1577654.03,1577656,2023-04-11T16:03:53Z,1577670.146,NULL,Gelegenheit,wakati,s,mchanganyiko,kipaumbele,kushuku,NA,sdf,NA,0,NA,NA,NA,NA,NA,NA,NA,NA,NA,NA,NA,NA,NA,NA,NA,NA,NA,NA,NA
ca4b0,Shallow Question,html.Page,3_0_0_0_3_1_0,NA,NA,form submission,6953.9540000239,1577656.1,1577654.03,1577670.146,1584624.1,1584624.3,2023-04-11T16:04:00Z,1584631.01,NULL,Gelegenheit,wakati,s,mchanganyiko,kipaumbele,kushuku,kipaumbele,NA,NA,0,NA,NA,NA,NA,NA,NA,NA,NA,NA,NA,NA,NA,NA,NA,NA,NA,NA,NA,NA
ca4b0,"""Richtig""-Screen",canvas.Screen,3_0_0_0_3_1_1,NA,NA,skipped,NA,1584626.3,NA,NA,1584624.1,1584626.4,2023-04-11T16:04:00Z,1584631.01,NULL,Gelegenheit,wakati,s,mchanganyiko,kipaumbele,kushuku,NA,sdf,NA,0,NA,NA,NA,NA,NA,NA,NA,NA,NA,NA,NA,NA,NA,NA,NA,NA,NA,NA,NA
ca4b0,"""Falsch""-Screen",canvas.Screen,3_0_0_0_3_1_2,NA,NA,timeout,4996.5430000001,1584626.9,1584614.848,1584631.01,1589610.886,1589611.8,2023-04-11T16:04:05Z,1589627.553,NULL,Gelegenheit,wakati,s,mchanganyiko,kipaumbele,kushuku,NA,sdf,0,0,NA,NA,NA,NA,NA,NA,NA,NA,NA,NA,NA,NA,NA,NA,NA,NA,NA,NA,NA
ca4b0,shallow,flow.Sequence,3_0_0_0_3_1,NA,NA,completion,11940.74,1577656.1,1577654.03,1577670.146,1589610.886,1589612.2,2023-04-11T16:04:05Z,1589627.553,NULL,Gelegenheit,wakati,s,mchanganyiko,kipaumbele,kushuku,NA,sdf,NA,0,NA,NA,NA,NA,NA,NA,NA,NA,NA,NA,NA,NA,NA,NA,NA,NA,NA,NA,NA
ca4b0,task,flow.Sequence,3_0_0_0_3,NA,NA,completion,11940.74,1577655.7,1577654.03,1577670.146,1589610.886,1589612.5,2023-04-11T16:04:05Z,1589627.553,NULL,Gelegenheit,wakati,s,mchanganyiko,kipaumbele,kushuku,NA,sdf,NA,0,NA,NA,NA,NA,NA,NA,NA,NA,NA,NA,NA,NA,NA,NA,NA,NA,NA,NA,NA
ca4b0,Deep Question,html.Page,3_0_0_0_4_0_0,NA,NA,form submission,3397.2470000118,1589612.7,1589610.886,1589627.553,1593024.8,1593025,2023-04-11T16:04:09Z,1593040.852,NULL,Wohlstand,mafanikio,d,NA,NA,NA,h,NA,NA,0,NA,NA,NA,NA,NA,NA,NA,NA,NA,NA,NA,NA,NA,NA,NA,NA,NA,NA,NA
ca4b0,"""Richtig""-Screen",canvas.Screen,3_0_0_0_4_0_1,NA,NA,skipped,NA,1593027.6,NA,NA,1593024.8,1593027.8,2023-04-11T16:04:09Z,1593040.852,NULL,Wohlstand,mafanikio,d,NA,NA,NA,NA,sdf,NA,0,NA,NA,NA,NA,NA,NA,NA,NA,NA,NA,NA,NA,NA,NA,NA,NA,NA,NA,NA
ca4b0,"""Falsch""-Screen",canvas.Screen,3_0_0_0_4_0_2,NA,NA,timeout,4996.4580000001,1593028.7,1593008.129,1593040.852,1598020.558,1598021.4,2023-04-11T16:04:14Z,1598037.31,NULL,Wohlstand,mafanikio,d,NA,NA,NA,NA,sdf,0,0,NA,NA,NA,NA,NA,NA,NA,NA,NA,NA,NA,NA,NA,NA,NA,NA,NA,NA,NA
ca4b0,deep,flow.Sequence,3_0_0_0_4_0,NA,NA,completion,8393.0049999999,1589612.7,1589610.886,1589627.553,1598020.558,1598021.8,2023-04-11T16:04:14Z,1598037.31,NULL,Wohlstand,mafanikio,d,NA,NA,NA,NA,sdf,NA,0,NA,NA,NA,NA,NA,NA,NA,NA,NA,NA,NA,NA,NA,NA,NA,NA,NA,NA,NA
ca4b0,shallow,flow.Sequence,3_0_0_0_4_1,NA,NA,skipped,NA,1598021.9,NA,NA,1598020.558,1598022.1,2023-04-11T16:04:14Z,1598037.31,NULL,Wohlstand,mafanikio,d,NA,NA,NA,NA,sdf,NA,0,NA,NA,NA,NA,NA,NA,NA,NA,NA,NA,NA,NA,NA,NA,NA,NA,NA,NA,NA
ca4b0,task,flow.Sequence,3_0_0_0_4,NA,NA,completion,8393.0049999999,1589612.6,1589610.886,1589627.553,1598020.558,1598022.4,2023-04-11T16:04:14Z,1598037.31,NULL,Wohlstand,mafanikio,d,NA,NA,NA,NA,sdf,NA,0,NA,NA,NA,NA,NA,NA,NA,NA,NA,NA,NA,NA,NA,NA,NA,NA,NA,NA,NA
ca4b0,Deep Question,html.Page,3_0_0_0_5_0_0,NA,NA,form submission,2702.1899999999,1598022.6,1598020.558,1598037.31,1600739.5,1600739.6,2023-04-11T16:04:16Z,1600751.517,NULL,Widerstand,usulubu,d,NA,NA,NA,h,NA,NA,0,NA,NA,NA,NA,NA,NA,NA,NA,NA,NA,NA,NA,NA,NA,NA,NA,NA,NA,NA
ca4b0,"""Richtig""-Screen",canvas.Screen,3_0_0_0_5_0_1,NA,NA,skipped,NA,1600741.4,NA,NA,1600739.5,1600741.5,2023-04-11T16:04:16Z,1600751.517,NULL,Widerstand,usulubu,d,NA,NA,NA,NA,sdf,NA,0,NA,NA,NA,NA,NA,NA,NA,NA,NA,NA,NA,NA,NA,NA,NA,NA,NA,NA,NA
ca4b0,"""Falsch""-Screen",canvas.Screen,3_0_0_0_5_0_2,NA,NA,timeout,4995.7420000001,1600742,1600735.097,1600751.517,1605730.985,1605731.9,2023-04-11T16:04:21Z,1605747.259,NULL,Widerstand,usulubu,d,NA,NA,NA,NA,sdf,0,0,NA,NA,NA,NA,NA,NA,NA,NA,NA,NA,NA,NA,NA,NA,NA,NA,NA,NA,NA
ca4b0,deep,flow.Sequence,3_0_0_0_5_0,NA,NA,completion,7693.675,1598022.5,1598020.558,1598037.31,1605730.985,1605732.3,2023-04-11T16:04:21Z,1605747.259,NULL,Widerstand,usulubu,d,NA,NA,NA,NA,sdf,NA,0,NA,NA,NA,NA,NA,NA,NA,NA,NA,NA,NA,NA,NA,NA,NA,NA,NA,NA,NA
ca4b0,shallow,flow.Sequence,3_0_0_0_5_1,NA,NA,skipped,NA,1605732.5,NA,NA,1605730.985,1605732.7,2023-04-11T16:04:21Z,1605747.259,NULL,Widerstand,usulubu,d,NA,NA,NA,NA,sdf,NA,0,NA,NA,NA,NA,NA,NA,NA,NA,NA,NA,NA,NA,NA,NA,NA,NA,NA,NA,NA
ca4b0,task,flow.Sequence,3_0_0_0_5,NA,NA,completion,7693.675,1598022.5,1598020.558,1598037.31,1605730.985,1605733,2023-04-11T16:04:21Z,1605747.259,NULL,Widerstand,usulubu,d,NA,NA,NA,NA,sdf,NA,0,NA,NA,NA,NA,NA,NA,NA,NA,NA,NA,NA,NA,NA,NA,NA,NA,NA,NA,NA
ca4b0,deep,flow.Sequence,3_0_0_0_6_0,NA,NA,skipped,NA,1605733.1,NA,NA,1605730.985,1605733.2,2023-04-11T16:04:21Z,1605747.259,NULL,Ausschluss,kutengwa,s,ununuzi,taratibu,madeni,NA,sdf,NA,0,NA,NA,NA,NA,NA,NA,NA,NA,NA,NA,NA,NA,NA,NA,NA,NA,NA,NA,NA
ca4b0,Shallow Question,html.Page,3_0_0_0_6_1_0,NA,NA,form submission,4820.7409999999,1605733.4,1605730.985,1605747.259,1610568,1610568.2,2023-04-11T16:04:26Z,1610576.522,NULL,Ausschluss,kutengwa,s,ununuzi,taratibu,madeni,taratibu,NA,NA,0,NA,NA,NA,NA,NA,NA,NA,NA,NA,NA,NA,NA,NA,NA,NA,NA,NA,NA,NA
ca4b0,"""Richtig""-Screen",canvas.Screen,3_0_0_0_6_1_1,NA,NA,skipped,NA,1610570.2,NA,NA,1610568,1610570.3,2023-04-11T16:04:26Z,1610576.522,NULL,Ausschluss,kutengwa,s,ununuzi,taratibu,madeni,NA,sdf,NA,0,NA,NA,NA,NA,NA,NA,NA,NA,NA,NA,NA,NA,NA,NA,NA,NA,NA,NA,NA
ca4b0,"""Falsch""-Screen",canvas.Screen,3_0_0_0_6_1_2,NA,NA,timeout,4996.392,1610570.9,1610560.324,1610576.522,1615556.354,1615557.3,2023-04-11T16:04:31Z,1615572.914,NULL,Ausschluss,kutengwa,s,ununuzi,taratibu,madeni,NA,sdf,0,0,NA,NA,NA,NA,NA,NA,NA,NA,NA,NA,NA,NA,NA,NA,NA,NA,NA,NA,NA
ca4b0,shallow,flow.Sequence,3_0_0_0_6_1,NA,NA,completion,9809.095,1605733.4,1605730.985,1605747.259,1615556.354,1615557.8,2023-04-11T16:04:31Z,1615572.914,NULL,Ausschluss,kutengwa,s,ununuzi,taratibu,madeni,NA,sdf,NA,0,NA,NA,NA,NA,NA,NA,NA,NA,NA,NA,NA,NA,NA,NA,NA,NA,NA,NA,NA
ca4b0,task,flow.Sequence,3_0_0_0_6,NA,NA,completion,9809.095,1605733.1,1605730.985,1605747.259,1615556.354,1615558.1,2023-04-11T16:04:31Z,1615572.914,NULL,Ausschluss,kutengwa,s,ununuzi,taratibu,madeni,NA,sdf,NA,0,NA,NA,NA,NA,NA,NA,NA,NA,NA,NA,NA,NA,NA,NA,NA,NA,NA,NA,NA
ca4b0,Deep Question,html.Page,3_0_0_0_7_0_0,NA,NA,form submission,4193.6860000237,1615558.3,1615556.354,1615572.914,1619766.6,1619766.7,2023-04-11T16:04:35Z,1619768.878,NULL,Verstand,ufahamivu,d,NA,NA,NA,h,NA,NA,0,NA,NA,NA,NA,NA,NA,NA,NA,NA,NA,NA,NA,NA,NA,NA,NA,NA,NA,NA
ca4b0,"""Richtig""-Screen",canvas.Screen,3_0_0_0_7_0_1,NA,NA,skipped,NA,1619769.4,NA,NA,1619766.6,1619769.6,2023-04-11T16:04:35Z,1619768.878,NULL,Verstand,ufahamivu,d,NA,NA,NA,NA,sdf,NA,0,NA,NA,NA,NA,NA,NA,NA,NA,NA,NA,NA,NA,NA,NA,NA,NA,NA,NA,NA
ca4b0,"""Falsch""-Screen",canvas.Screen,3_0_0_0_7_0_2,NA,NA,timeout,4995.9509999999,1619770.1,1619752.819,1619768.878,1624748.707,1624749.5,2023-04-11T16:04:40Z,1624764.829,NULL,Verstand,ufahamivu,d,NA,NA,NA,NA,sdf,0,0,NA,NA,NA,NA,NA,NA,NA,NA,NA,NA,NA,NA,NA,NA,NA,NA,NA,NA,NA
ca4b0,deep,flow.Sequence,3_0_0_0_7_0,NA,NA,completion,9175.7929999998,1615558.2,1615556.354,1615572.914,1624748.707,1624750,2023-04-11T16:04:40Z,1624764.829,NULL,Verstand,ufahamivu,d,NA,NA,NA,NA,sdf,NA,0,NA,NA,NA,NA,NA,NA,NA,NA,NA,NA,NA,NA,NA,NA,NA,NA,NA,NA,NA
ca4b0,shallow,flow.Sequence,3_0_0_0_7_1,NA,NA,skipped,NA,1624750.2,NA,NA,1624748.707,1624750.4,2023-04-11T16:04:40Z,1624764.829,NULL,Verstand,ufahamivu,d,NA,NA,NA,NA,sdf,NA,0,NA,NA,NA,NA,NA,NA,NA,NA,NA,NA,NA,NA,NA,NA,NA,NA,NA,NA,NA
ca4b0,task,flow.Sequence,3_0_0_0_7,NA,NA,completion,9175.7929999998,1615558.1,1615556.354,1615572.914,1624748.707,1624750.6,2023-04-11T16:04:40Z,1624764.829,NULL,Verstand,ufahamivu,d,NA,NA,NA,NA,sdf,NA,0,NA,NA,NA,NA,NA,NA,NA,NA,NA,NA,NA,NA,NA,NA,NA,NA,NA,NA,NA
ca4b0,block,flow.Loop,3_0_0_0,NA,NA,completion,77770.064,1546977,1546977.462,1546978.643,1624748.707,1624750.9,2023-04-11T16:04:40Z,1624764.829,NULL,NA,NA,NA,NA,NA,NA,NA,sdf,NA,0,NA,NA,NA,NA,NA,NA,NA,NA,NA,NA,NA,NA,NA,NA,NA,NA,NA,NA,NA
ca4b0,weiter,canvas.Screen,3_0_0_1,sdf,keypress(Space),response,1479.6710000001,1624751.1,1624748.707,1624764.829,1626244.5,1626245.6,2023-04-11T16:04:42Z,1626346.859,NULL,NA,NA,NA,NA,NA,NA,NA,sdf,NA,0,NA,NA,NA,NA,NA,NA,NA,NA,NA,NA,NA,NA,NA,NA,NA,NA,NA,NA,NA
ca4b0,check continue,flow.Sequence,3_0_0,NA,NA,completion,79265.857,1546977,1546977.462,1546978.643,1626244.5,1626246,2023-04-11T16:04:42Z,1626346.859,NULL,NA,NA,NA,NA,NA,NA,NA,sdf,NA,0,NA,NA,NA,NA,NA,NA,NA,NA,NA,NA,NA,NA,NA,NA,NA,NA,NA,NA,NA
ca4b0,Deep Question,html.Page,3_0_1_0_0_0_0,NA,NA,form submission,4231.441000012,1626339.2,1626330.47,1626346.859,1630578.3,1630578.5,2023-04-11T16:04:46Z,1630593.306,NULL,Ergänzung,kijalizo,d,NA,NA,NA,h,NA,NA,1,NA,NA,NA,NA,NA,NA,NA,NA,NA,NA,NA,NA,NA,NA,NA,NA,NA,NA,NA
ca4b0,"""Richtig""-Screen",canvas.Screen,3_0_1_0_0_0_1,NA,NA,skipped,NA,1630580.9,NA,NA,1630578.3,1630581.1,2023-04-11T16:04:46Z,1630593.306,NULL,Ergänzung,kijalizo,d,NA,NA,NA,NA,sdfdsf,NA,1,NA,NA,NA,NA,NA,NA,NA,NA,NA,NA,NA,NA,NA,NA,NA,NA,NA,NA,NA
ca4b0,"""Falsch""-Screen",canvas.Screen,3_0_1_0_0_0_2,NA,NA,timeout,4996.321,1630581.9,1630576.767,1630593.306,1635573.162,1635574.2,2023-04-11T16:04:51Z,1635589.627,NULL,Ergänzung,kijalizo,d,NA,NA,NA,NA,sdfdsf,0,1,NA,NA,NA,NA,NA,NA,NA,NA,NA,NA,NA,NA,NA,NA,NA,NA,NA,NA,NA
ca4b0,deep,flow.Sequence,3_0_1_0_0_0,NA,NA,completion,9226.3030000001,1626339.2,1626330.47,1626346.859,1635573.162,1635574.7,2023-04-11T16:04:51Z,1635589.627,NULL,Ergänzung,kijalizo,d,NA,NA,NA,NA,sdfdsf,NA,1,NA,NA,NA,NA,NA,NA,NA,NA,NA,NA,NA,NA,NA,NA,NA,NA,NA,NA,NA
ca4b0,shallow,flow.Sequence,3_0_1_0_0_1,NA,NA,skipped,NA,1635574.9,NA,NA,1635573.162,1635575.1,2023-04-11T16:04:51Z,1635589.627,NULL,Ergänzung,kijalizo,d,NA,NA,NA,NA,sdfdsf,NA,1,NA,NA,NA,NA,NA,NA,NA,NA,NA,NA,NA,NA,NA,NA,NA,NA,NA,NA,NA
ca4b0,task,flow.Sequence,3_0_1_0_0,NA,NA,completion,9226.3030000001,1626339.2,1626330.47,1626346.859,1635573.162,1635575.3,2023-04-11T16:04:51Z,1635589.627,NULL,Ergänzung,kijalizo,d,NA,NA,NA,NA,sdfdsf,NA,1,NA,NA,NA,NA,NA,NA,NA,NA,NA,NA,NA,NA,NA,NA,NA,NA,NA,NA,NA
ca4b0,deep,flow.Sequence,3_0_1_0_1_0,NA,NA,skipped,NA,1635575.6,NA,NA,1635573.162,1635575.7,2023-04-11T16:04:51Z,1635589.627,NULL,Vergnügen,kichekesho,s,dubwana,mpanuko,mtesaji,NA,sdfdsf,NA,1,NA,NA,NA,NA,NA,NA,NA,NA,NA,NA,NA,NA,NA,NA,NA,NA,NA,NA,NA
ca4b0,Shallow Question,html.Page,3_0_1_0_1_1_0,NA,NA,form submission,7642.3729999999,1635575.9,1635573.162,1635589.627,1643232,1643232.2,2023-04-11T16:04:59Z,1643232.96,NULL,Vergnügen,kichekesho,s,dubwana,mpanuko,mtesaji,kichekesho,NA,NA,1,NA,NA,NA,NA,NA,NA,NA,NA,NA,NA,NA,NA,NA,NA,NA,NA,NA,NA,NA
ca4b0,"""Richtig""-Screen",canvas.Screen,3_0_1_0_1_1_1,NA,NA,timeout,4995.956,1643234.1,1643216.281,1643232.96,1648212.743,1648213.7,2023-04-11T16:05:04Z,1648228.916,NULL,Vergnügen,kichekesho,s,dubwana,mpanuko,mtesaji,NA,sdfdsf,1,1,NA,NA,NA,NA,NA,NA,NA,NA,NA,NA,NA,NA,NA,NA,NA,NA,NA,NA,NA
ca4b0,"""Falsch""-Screen",canvas.Screen,3_0_1_0_1_1_2,NA,NA,skipped,NA,1648219.1,NA,NA,1648212.743,1648219.4,2023-04-11T16:05:04Z,1648228.916,NULL,Vergnügen,kichekesho,s,dubwana,mpanuko,mtesaji,NA,sdfdsf,NA,1,NA,NA,NA,NA,NA,NA,NA,NA,NA,NA,NA,NA,NA,NA,NA,NA,NA,NA,NA
ca4b0,shallow,flow.Sequence,3_0_1_0_1_1,NA,NA,completion,12623.116,1635575.8,1635573.162,1635589.627,1648212.743,1648219.8,2023-04-11T16:05:04Z,1648228.916,NULL,Vergnügen,kichekesho,s,dubwana,mpanuko,mtesaji,NA,sdfdsf,NA,1,NA,NA,NA,NA,NA,NA,NA,NA,NA,NA,NA,NA,NA,NA,NA,NA,NA,NA,NA
ca4b0,task,flow.Sequence,3_0_1_0_1,NA,NA,completion,12623.116,1635575.5,1635573.162,1635589.627,1648212.743,1648220,2023-04-11T16:05:04Z,1648228.916,NULL,Vergnügen,kichekesho,s,dubwana,mpanuko,mtesaji,NA,sdfdsf,NA,1,NA,NA,NA,NA,NA,NA,NA,NA,NA,NA,NA,NA,NA,NA,NA,NA,NA,NA,NA
ca4b0,Deep Question,html.Page,3_0_1_0_2_0_0,NA,NA,form submission,3481.6840000239,1648220.4,1648212.743,1648228.916,1651710.6,1651710.8,2023-04-11T16:05:07Z,1651726.558,NULL,Widerstand,usulubu,d,NA,NA,NA,h,NA,NA,1,NA,NA,NA,NA,NA,NA,NA,NA,NA,NA,NA,NA,NA,NA,NA,NA,NA,NA,NA
ca4b0,"""Richtig""-Screen",canvas.Screen,3_0_1_0_2_0_1,NA,NA,skipped,NA,1651712.9,NA,NA,1651710.6,1651713,2023-04-11T16:05:07Z,1651726.558,NULL,Widerstand,usulubu,d,NA,NA,NA,NA,sdfdsf,NA,1,NA,NA,NA,NA,NA,NA,NA,NA,NA,NA,NA,NA,NA,NA,NA,NA,NA,NA,NA
ca4b0,"""Falsch""-Screen",canvas.Screen,3_0_1_0_2_0_2,NA,NA,timeout,4995.4129999999,1651713.5,1651709.896,1651726.558,1656705.304,1656706.3,2023-04-11T16:05:12Z,1656721.971,NULL,Widerstand,usulubu,d,NA,NA,NA,NA,sdfdsf,0,1,NA,NA,NA,NA,NA,NA,NA,NA,NA,NA,NA,NA,NA,NA,NA,NA,NA,NA,NA
ca4b0,deep,flow.Sequence,3_0_1_0_2_0,NA,NA,completion,8476.388,1648220.3,1648212.743,1648228.916,1656705.304,1656706.8,2023-04-11T16:05:12Z,1656721.971,NULL,Widerstand,usulubu,d,NA,NA,NA,NA,sdfdsf,NA,1,NA,NA,NA,NA,NA,NA,NA,NA,NA,NA,NA,NA,NA,NA,NA,NA,NA,NA,NA
ca4b0,shallow,flow.Sequence,3_0_1_0_2_1,NA,NA,skipped,NA,1656707,NA,NA,1656705.304,1656707.2,2023-04-11T16:05:12Z,1656721.971,NULL,Widerstand,usulubu,d,NA,NA,NA,NA,sdfdsf,NA,1,NA,NA,NA,NA,NA,NA,NA,NA,NA,NA,NA,NA,NA,NA,NA,NA,NA,NA,NA
ca4b0,task,flow.Sequence,3_0_1_0_2,NA,NA,completion,8476.388,1648220.3,1648212.743,1648228.916,1656705.304,1656707.6,2023-04-11T16:05:12Z,1656721.971,NULL,Widerstand,usulubu,d,NA,NA,NA,NA,sdfdsf,NA,1,NA,NA,NA,NA,NA,NA,NA,NA,NA,NA,NA,NA,NA,NA,NA,NA,NA,NA,NA
ca4b0,deep,flow.Sequence,3_0_1_0_3_0,NA,NA,skipped,NA,1656707.8,NA,NA,1656705.304,1656708.1,2023-04-11T16:05:12Z,1656721.971,NULL,Gelegenheit,wakati,s,mchanganyiko,kipaumbele,kushuku,NA,sdfdsf,NA,1,NA,NA,NA,NA,NA,NA,NA,NA,NA,NA,NA,NA,NA,NA,NA,NA,NA,NA,NA
ca4b0,Shallow Question,html.Page,3_0_1_0_3_1_0,NA,NA,form submission,6840.2290000478,1656708.4,1656705.304,1656721.971,1663562.2,1663562.3,2023-04-11T16:05:19Z,1663566.268,NULL,Gelegenheit,wakati,s,mchanganyiko,kipaumbele,kushuku,kushuku,NA,NA,1,NA,NA,NA,NA,NA,NA,NA,NA,NA,NA,NA,NA,NA,NA,NA,NA,NA,NA,NA
ca4b0,"""Richtig""-Screen",canvas.Screen,3_0_1_0_3_1_1,NA,NA,skipped,NA,1663564.3,NA,NA,1663562.2,1663564.4,2023-04-11T16:05:19Z,1663566.268,NULL,Gelegenheit,wakati,s,mchanganyiko,kipaumbele,kushuku,NA,sdfdsf,NA,1,NA,NA,NA,NA,NA,NA,NA,NA,NA,NA,NA,NA,NA,NA,NA,NA,NA,NA,NA
ca4b0,"""Falsch""-Screen",canvas.Screen,3_0_1_0_3_1_2,NA,NA,timeout,4996.0550000002,1663564.9,1663549.801,1663566.268,1668546.082,1668547.1,2023-04-11T16:05:24Z,1668562.323,NULL,Gelegenheit,wakati,s,mchanganyiko,kipaumbele,kushuku,NA,sdfdsf,0,1,NA,NA,NA,NA,NA,NA,NA,NA,NA,NA,NA,NA,NA,NA,NA,NA,NA,NA,NA
ca4b0,shallow,flow.Sequence,3_0_1_0_3_1,NA,NA,completion,11824.111,1656708.2,1656705.304,1656721.971,1668546.082,1668547.6,2023-04-11T16:05:24Z,1668562.323,NULL,Gelegenheit,wakati,s,mchanganyiko,kipaumbele,kushuku,NA,sdfdsf,NA,1,NA,NA,NA,NA,NA,NA,NA,NA,NA,NA,NA,NA,NA,NA,NA,NA,NA,NA,NA
ca4b0,task,flow.Sequence,3_0_1_0_3,NA,NA,completion,11824.111,1656707.7,1656705.304,1656721.971,1668546.082,1668547.9,2023-04-11T16:05:24Z,1668562.323,NULL,Gelegenheit,wakati,s,mchanganyiko,kipaumbele,kushuku,NA,sdfdsf,NA,1,NA,NA,NA,NA,NA,NA,NA,NA,NA,NA,NA,NA,NA,NA,NA,NA,NA,NA,NA
ca4b0,deep,flow.Sequence,3_0_1_0_4_0,NA,NA,skipped,NA,1668548,NA,NA,1668546.082,1668548.2,2023-04-11T16:05:24Z,1668562.323,NULL,Ausschluss,kutengwa,s,ununuzi,taratibu,madeni,NA,sdfdsf,NA,1,NA,NA,NA,NA,NA,NA,NA,NA,NA,NA,NA,NA,NA,NA,NA,NA,NA,NA,NA
ca4b0,Shallow Question,html.Page,3_0_1_0_4_1_0,NA,NA,form submission,8430.1769999999,1668548.4,1668546.082,1668562.323,1676992.5,1676992.7,2023-04-11T16:05:33Z,1677005.755,NULL,Ausschluss,kutengwa,s,ununuzi,taratibu,madeni,kutengwa,NA,NA,1,NA,NA,NA,NA,NA,NA,NA,NA,NA,NA,NA,NA,NA,NA,NA,NA,NA,NA,NA
ca4b0,"""Richtig""-Screen",canvas.Screen,3_0_1_0_4_1_1,NA,NA,timeout,4995.388,1676994.6,1676988.864,1677005.755,1681984.975,1681985.9,2023-04-11T16:05:38Z,1682001.143,NULL,Ausschluss,kutengwa,s,ununuzi,taratibu,madeni,NA,sdfdsf,1,1,NA,NA,NA,NA,NA,NA,NA,NA,NA,NA,NA,NA,NA,NA,NA,NA,NA,NA,NA
ca4b0,"""Falsch""-Screen",canvas.Screen,3_0_1_0_4_1_2,NA,NA,skipped,NA,1681991.2,NA,NA,1681984.975,1681991.6,2023-04-11T16:05:38Z,1682001.143,NULL,Ausschluss,kutengwa,s,ununuzi,taratibu,madeni,NA,sdfdsf,NA,1,NA,NA,NA,NA,NA,NA,NA,NA,NA,NA,NA,NA,NA,NA,NA,NA,NA,NA,NA
ca4b0,shallow,flow.Sequence,3_0_1_0_4_1,NA,NA,completion,13422.652,1668548.3,1668546.082,1668562.323,1681984.975,1681992,2023-04-11T16:05:38Z,1682001.143,NULL,Ausschluss,kutengwa,s,ununuzi,taratibu,madeni,NA,sdfdsf,NA,1,NA,NA,NA,NA,NA,NA,NA,NA,NA,NA,NA,NA,NA,NA,NA,NA,NA,NA,NA
ca4b0,task,flow.Sequence,3_0_1_0_4,NA,NA,completion,13422.652,1668548,1668546.082,1668562.323,1681984.975,1681992.3,2023-04-11T16:05:38Z,1682001.143,NULL,Ausschluss,kutengwa,s,ununuzi,taratibu,madeni,NA,sdfdsf,NA,1,NA,NA,NA,NA,NA,NA,NA,NA,NA,NA,NA,NA,NA,NA,NA,NA,NA,NA,NA
ca4b0,deep,flow.Sequence,3_0_1_0_5_0,NA,NA,skipped,NA,1681992.5,NA,NA,1681984.975,1681992.6,2023-04-11T16:05:38Z,1682001.143,NULL,Notfall,dharura,s,rairai,malalamiko,ahueni,NA,sdfdsf,NA,1,NA,NA,NA,NA,NA,NA,NA,NA,NA,NA,NA,NA,NA,NA,NA,NA,NA,NA,NA
ca4b0,Shallow Question,html.Page,3_0_1_0_5_1_0,NA,NA,form submission,7462.7570000358,1681992.9,1681984.975,1682001.143,1689463.9,1689464.2,2023-04-11T16:05:45Z,1689478.905,NULL,Notfall,dharura,s,rairai,malalamiko,ahueni,dharura,NA,NA,1,NA,NA,NA,NA,NA,NA,NA,NA,NA,NA,NA,NA,NA,NA,NA,NA,NA,NA,NA
ca4b0,"""Richtig""-Screen",canvas.Screen,3_0_1_0_5_1_1,NA,NA,timeout,4995.3810000001,1689466,1689461.747,1689478.905,1694457.794,1694458.7,2023-04-11T16:05:50Z,1694474.286,NULL,Notfall,dharura,s,rairai,malalamiko,ahueni,NA,sdfdsf,1,1,NA,NA,NA,NA,NA,NA,NA,NA,NA,NA,NA,NA,NA,NA,NA,NA,NA,NA,NA
ca4b0,"""Falsch""-Screen",canvas.Screen,3_0_1_0_5_1_2,NA,NA,skipped,NA,1694463.7,NA,NA,1694457.794,1694464,2023-04-11T16:05:50Z,1694474.286,NULL,Notfall,dharura,s,rairai,malalamiko,ahueni,NA,sdfdsf,NA,1,NA,NA,NA,NA,NA,NA,NA,NA,NA,NA,NA,NA,NA,NA,NA,NA,NA,NA,NA
ca4b0,shallow,flow.Sequence,3_0_1_0_5_1,NA,NA,completion,12456.651,1681992.8,1681984.975,1682001.143,1694457.794,1694464.5,2023-04-11T16:05:50Z,1694474.286,NULL,Notfall,dharura,s,rairai,malalamiko,ahueni,NA,sdfdsf,NA,1,NA,NA,NA,NA,NA,NA,NA,NA,NA,NA,NA,NA,NA,NA,NA,NA,NA,NA,NA
ca4b0,task,flow.Sequence,3_0_1_0_5,NA,NA,completion,12456.651,1681992.4,1681984.975,1682001.143,1694457.794,1694464.7,2023-04-11T16:05:50Z,1694474.286,NULL,Notfall,dharura,s,rairai,malalamiko,ahueni,NA,sdfdsf,NA,1,NA,NA,NA,NA,NA,NA,NA,NA,NA,NA,NA,NA,NA,NA,NA,NA,NA,NA,NA
ca4b0,Deep Question,html.Page,3_0_1_0_6_0_0,NA,NA,form submission,3624.3140000238,1694465,1694457.794,1694474.286,1698098.6,1698098.7,2023-04-11T16:05:54Z,1698104.548,NULL,Verstand,ufahamivu,d,NA,NA,NA,h,NA,NA,1,NA,NA,NA,NA,NA,NA,NA,NA,NA,NA,NA,NA,NA,NA,NA,NA,NA,NA,NA
ca4b0,"""Richtig""-Screen",canvas.Screen,3_0_1_0_6_0_1,NA,NA,skipped,NA,1698101.3,NA,NA,1698098.6,1698101.4,2023-04-11T16:05:54Z,1698104.548,NULL,Verstand,ufahamivu,d,NA,NA,NA,NA,sdfdsf,NA,1,NA,NA,NA,NA,NA,NA,NA,NA,NA,NA,NA,NA,NA,NA,NA,NA,NA,NA,NA
ca4b0,"""Falsch""-Screen",canvas.Screen,3_0_1_0_6_0_2,NA,NA,timeout,4996.513,1698102.4,1698088.006,1698104.548,1703084.314,1703085.2,2023-04-11T16:05:59Z,1703101.061,NULL,Verstand,ufahamivu,d,NA,NA,NA,NA,sdfdsf,0,1,NA,NA,NA,NA,NA,NA,NA,NA,NA,NA,NA,NA,NA,NA,NA,NA,NA,NA,NA
ca4b0,deep,flow.Sequence,3_0_1_0_6_0,NA,NA,completion,8610.0279999999,1694464.8,1694457.794,1694474.286,1703084.314,1703085.6,2023-04-11T16:05:59Z,1703101.061,NULL,Verstand,ufahamivu,d,NA,NA,NA,NA,sdfdsf,NA,1,NA,NA,NA,NA,NA,NA,NA,NA,NA,NA,NA,NA,NA,NA,NA,NA,NA,NA,NA
ca4b0,shallow,flow.Sequence,3_0_1_0_6_1,NA,NA,skipped,NA,1703085.8,NA,NA,1703084.314,1703085.9,2023-04-11T16:05:59Z,1703101.061,NULL,Verstand,ufahamivu,d,NA,NA,NA,NA,sdfdsf,NA,1,NA,NA,NA,NA,NA,NA,NA,NA,NA,NA,NA,NA,NA,NA,NA,NA,NA,NA,NA
ca4b0,task,flow.Sequence,3_0_1_0_6,NA,NA,completion,8610.0279999999,1694464.8,1694457.794,1694474.286,1703084.314,1703086.2,2023-04-11T16:05:59Z,1703101.061,NULL,Verstand,ufahamivu,d,NA,NA,NA,NA,sdfdsf,NA,1,NA,NA,NA,NA,NA,NA,NA,NA,NA,NA,NA,NA,NA,NA,NA,NA,NA,NA,NA
ca4b0,Deep Question,html.Page,3_0_1_0_7_0_0,NA,NA,form submission,2562.1390000477,1703086.5,1703084.314,1703101.061,1705663.2,1705663.3,2023-04-11T16:06:01Z,1705665.042,NULL,Wohlstand,mafanikio,d,NA,NA,NA,h,NA,NA,1,NA,NA,NA,NA,NA,NA,NA,NA,NA,NA,NA,NA,NA,NA,NA,NA,NA,NA,NA
ca4b0,"""Richtig""-Screen",canvas.Screen,3_0_1_0_7_0_1,NA,NA,skipped,NA,1705666,NA,NA,1705663.2,1705666.2,2023-04-11T16:06:01Z,1705665.042,NULL,Wohlstand,mafanikio,d,NA,NA,NA,NA,sdfdsf,NA,1,NA,NA,NA,NA,NA,NA,NA,NA,NA,NA,NA,NA,NA,NA,NA,NA,NA,NA,NA
ca4b0,"""Falsch""-Screen",canvas.Screen,3_0_1_0_7_0_2,NA,NA,timeout,4996.4130000002,1705666.7,1705648.982,1705665.042,1710644.864,1710645.8,2023-04-11T16:06:06Z,1710661.455,NULL,Wohlstand,mafanikio,d,NA,NA,NA,NA,sdfdsf,0,1,NA,NA,NA,NA,NA,NA,NA,NA,NA,NA,NA,NA,NA,NA,NA,NA,NA,NA,NA
ca4b0,deep,flow.Sequence,3_0_1_0_7_0,NA,NA,completion,7543.8030000001,1703086.4,1703084.314,1703101.061,1710644.864,1710646.3,2023-04-11T16:06:06Z,1710661.455,NULL,Wohlstand,mafanikio,d,NA,NA,NA,NA,sdfdsf,NA,1,NA,NA,NA,NA,NA,NA,NA,NA,NA,NA,NA,NA,NA,NA,NA,NA,NA,NA,NA
ca4b0,shallow,flow.Sequence,3_0_1_0_7_1,NA,NA,skipped,NA,1710646.5,NA,NA,1710644.864,1710646.7,2023-04-11T16:06:06Z,1710661.455,NULL,Wohlstand,mafanikio,d,NA,NA,NA,NA,sdfdsf,NA,1,NA,NA,NA,NA,NA,NA,NA,NA,NA,NA,NA,NA,NA,NA,NA,NA,NA,NA,NA
ca4b0,task,flow.Sequence,3_0_1_0_7,NA,NA,completion,7543.8030000001,1703086.3,1703084.314,1703101.061,1710644.864,1710646.9,2023-04-11T16:06:06Z,1710661.455,NULL,Wohlstand,mafanikio,d,NA,NA,NA,NA,sdfdsf,NA,1,NA,NA,NA,NA,NA,NA,NA,NA,NA,NA,NA,NA,NA,NA,NA,NA,NA,NA,NA
ca4b0,block,flow.Loop,3_0_1_0,NA,NA,completion,84298.005,1626339.2,1626330.47,1626346.859,1710644.864,1710647.2,2023-04-11T16:06:06Z,1710661.455,NULL,NA,NA,NA,NA,NA,NA,NA,sdfdsf,NA,1,NA,NA,NA,NA,NA,NA,NA,NA,NA,NA,NA,NA,NA,NA,NA,NA,NA,NA,NA
ca4b0,weiter,canvas.Screen,3_0_1_1,sdf,keypress(Space),response,1028.4450000357,1710647.3,1710644.864,1710661.455,1711689.9,1711691.1,2023-04-11T16:06:07Z,1711793.446,NULL,NA,NA,NA,NA,NA,NA,NA,sdfdsf,NA,1,NA,NA,NA,NA,NA,NA,NA,NA,NA,NA,NA,NA,NA,NA,NA,NA,NA,NA,NA
ca4b0,check continue,flow.Sequence,3_0_1,NA,NA,completion,85343.041000036,1626339.1,1626330.47,1626346.859,1711689.9,1711691.5,2023-04-11T16:06:07Z,1711793.446,NULL,NA,NA,NA,NA,NA,NA,NA,sdfdsf,NA,1,NA,NA,NA,NA,NA,NA,NA,NA,NA,NA,NA,NA,NA,NA,NA,NA,NA,NA,NA
ca4b0,deep,flow.Sequence,3_0_2_0_0_0,NA,NA,skipped,NA,1711783.7,NA,NA,1711689.9,1711784,2023-04-11T16:06:07Z,1711793.446,NULL,Notfall,dharura,s,rairai,malalamiko,ahueni,NA,sdf,NA,2,NA,NA,NA,NA,NA,NA,NA,NA,NA,NA,NA,NA,NA,NA,NA,NA,NA,NA,NA
ca4b0,Shallow Question,html.Page,3_0_2_0_0_1_0,NA,NA,form submission,14383.354000012,1711784.2,1711777.193,1711793.446,1726176.8,1726177,2023-04-11T16:06:22Z,1726181.53,NULL,Notfall,dharura,s,rairai,malalamiko,ahueni,dharura,NA,NA,2,NA,NA,NA,NA,NA,NA,NA,NA,NA,NA,NA,NA,NA,NA,NA,NA,NA,NA,NA
ca4b0,"""Richtig""-Screen",canvas.Screen,3_0_2_0_0_1_1,NA,NA,timeout,4995.9439999999,1726178.9,1726164.777,1726181.53,1731160.85,1731165,2023-04-11T16:06:27Z,1731177.474,NULL,Notfall,dharura,s,rairai,malalamiko,ahueni,NA,sdf,1,2,NA,NA,NA,NA,NA,NA,NA,NA,NA,NA,NA,NA,NA,NA,NA,NA,NA,NA,NA
ca4b0,"""Falsch""-Screen",canvas.Screen,3_0_2_0_0_1_2,NA,NA,skipped,NA,1731172.9,NA,NA,1731160.85,1731173.4,2023-04-11T16:06:27Z,1731177.474,NULL,Notfall,dharura,s,rairai,malalamiko,ahueni,NA,sdf,NA,2,NA,NA,NA,NA,NA,NA,NA,NA,NA,NA,NA,NA,NA,NA,NA,NA,NA,NA,NA
ca4b0,shallow,flow.Sequence,3_0_2_0_0_1,NA,NA,completion,19367.404,1711784.2,1711777.193,1711793.446,1731160.85,1731173.8,2023-04-11T16:06:27Z,1731177.474,NULL,Notfall,dharura,s,rairai,malalamiko,ahueni,NA,sdf,NA,2,NA,NA,NA,NA,NA,NA,NA,NA,NA,NA,NA,NA,NA,NA,NA,NA,NA,NA,NA
ca4b0,task,flow.Sequence,3_0_2_0_0,NA,NA,completion,19367.404,1711783.6,1711777.193,1711793.446,1731160.85,1731174,2023-04-11T16:06:27Z,1731177.474,NULL,Notfall,dharura,s,rairai,malalamiko,ahueni,NA,sdf,NA,2,NA,NA,NA,NA,NA,NA,NA,NA,NA,NA,NA,NA,NA,NA,NA,NA,NA,NA,NA
ca4b0,Deep Question,html.Page,3_0_2_0_1_0_0,NA,NA,form submission,3370.9260000358,1731174.4,1731160.85,1731177.474,1734548.4,1734548.6,2023-04-11T16:06:30Z,1734558.002,NULL,Wohlstand,mafanikio,d,NA,NA,NA,h,NA,NA,2,NA,NA,NA,NA,NA,NA,NA,NA,NA,NA,NA,NA,NA,NA,NA,NA,NA,NA,NA
ca4b0,"""Richtig""-Screen",canvas.Screen,3_0_2_0_1_0_1,NA,NA,skipped,NA,1734551.2,NA,NA,1734548.4,1734551.3,2023-04-11T16:06:30Z,1734558.002,NULL,Wohlstand,mafanikio,d,NA,NA,NA,NA,sdf,NA,2,NA,NA,NA,NA,NA,NA,NA,NA,NA,NA,NA,NA,NA,NA,NA,NA,NA,NA,NA
ca4b0,"""Falsch""-Screen",canvas.Screen,3_0_2_0_1_0_2,NA,NA,timeout,4996.4049999998,1734552.4,1734541.95,1734558.002,1739537.842,1739538.7,2023-04-11T16:06:35Z,1739554.407,NULL,Wohlstand,mafanikio,d,NA,NA,NA,NA,sdf,0,2,NA,NA,NA,NA,NA,NA,NA,NA,NA,NA,NA,NA,NA,NA,NA,NA,NA,NA,NA
ca4b0,deep,flow.Sequence,3_0_2_0_1_0,NA,NA,completion,8360.368,1731174.3,1731160.85,1731177.474,1739537.842,1739539.2,2023-04-11T16:06:35Z,1739554.407,NULL,Wohlstand,mafanikio,d,NA,NA,NA,NA,sdf,NA,2,NA,NA,NA,NA,NA,NA,NA,NA,NA,NA,NA,NA,NA,NA,NA,NA,NA,NA,NA
ca4b0,shallow,flow.Sequence,3_0_2_0_1_1,NA,NA,skipped,NA,1739539.4,NA,NA,1739537.842,1739539.5,2023-04-11T16:06:35Z,1739554.407,NULL,Wohlstand,mafanikio,d,NA,NA,NA,NA,sdf,NA,2,NA,NA,NA,NA,NA,NA,NA,NA,NA,NA,NA,NA,NA,NA,NA,NA,NA,NA,NA
ca4b0,task,flow.Sequence,3_0_2_0_1,NA,NA,completion,8360.368,1731174.2,1731160.85,1731177.474,1739537.842,1739539.7,2023-04-11T16:06:35Z,1739554.407,NULL,Wohlstand,mafanikio,d,NA,NA,NA,NA,sdf,NA,2,NA,NA,NA,NA,NA,NA,NA,NA,NA,NA,NA,NA,NA,NA,NA,NA,NA,NA,NA
ca4b0,Deep Question,html.Page,3_0_2_0_2_0_0,NA,NA,form submission,5194.0930000001,1739540,1739537.842,1739554.407,1744748.5,1744748.6,2023-04-11T16:06:40Z,1744749.64,NULL,Widerstand,usulubu,d,NA,NA,NA,h,NA,NA,2,NA,NA,NA,NA,NA,NA,NA,NA,NA,NA,NA,NA,NA,NA,NA,NA,NA,NA,NA
ca4b0,"""Richtig""-Screen",canvas.Screen,3_0_2_0_2_0_1,NA,NA,skipped,NA,1744751.1,NA,NA,1744748.5,1744751.2,2023-04-11T16:06:40Z,1744749.64,NULL,Widerstand,usulubu,d,NA,NA,NA,NA,sdf,NA,2,NA,NA,NA,NA,NA,NA,NA,NA,NA,NA,NA,NA,NA,NA,NA,NA,NA,NA,NA
ca4b0,"""Falsch""-Screen",canvas.Screen,3_0_2_0_2_0_2,NA,NA,timeout,4996.3830000001,1744751.8,1744733.56,1744749.64,1749729.377,1749730.2,2023-04-11T16:06:45Z,1749746.023,NULL,Widerstand,usulubu,d,NA,NA,NA,NA,sdf,0,2,NA,NA,NA,NA,NA,NA,NA,NA,NA,NA,NA,NA,NA,NA,NA,NA,NA,NA,NA
ca4b0,deep,flow.Sequence,3_0_2_0_2_0,NA,NA,completion,10174.97,1739539.9,1739537.842,1739554.407,1749729.377,1749730.5,2023-04-11T16:06:45Z,1749746.023,NULL,Widerstand,usulubu,d,NA,NA,NA,NA,sdf,NA,2,NA,NA,NA,NA,NA,NA,NA,NA,NA,NA,NA,NA,NA,NA,NA,NA,NA,NA,NA
ca4b0,shallow,flow.Sequence,3_0_2_0_2_1,NA,NA,skipped,NA,1749730.8,NA,NA,1749729.377,1749730.9,2023-04-11T16:06:45Z,1749746.023,NULL,Widerstand,usulubu,d,NA,NA,NA,NA,sdf,NA,2,NA,NA,NA,NA,NA,NA,NA,NA,NA,NA,NA,NA,NA,NA,NA,NA,NA,NA,NA
ca4b0,task,flow.Sequence,3_0_2_0_2,NA,NA,completion,10174.97,1739539.8,1739537.842,1739554.407,1749729.377,1749731.1,2023-04-11T16:06:45Z,1749746.023,NULL,Widerstand,usulubu,d,NA,NA,NA,NA,sdf,NA,2,NA,NA,NA,NA,NA,NA,NA,NA,NA,NA,NA,NA,NA,NA,NA,NA,NA,NA,NA
ca4b0,deep,flow.Sequence,3_0_2_0_3_0,NA,NA,skipped,NA,1749731.2,NA,NA,1749729.377,1749731.4,2023-04-11T16:06:45Z,1749746.023,NULL,Vergnügen,kichekesho,s,dubwana,mpanuko,mtesaji,NA,sdf,NA,2,NA,NA,NA,NA,NA,NA,NA,NA,NA,NA,NA,NA,NA,NA,NA,NA,NA,NA,NA
ca4b0,Shallow Question,html.Page,3_0_2_0_3_1_0,NA,NA,form submission,5674.2770000119,1749731.6,1749729.377,1749746.023,1755420.3,1755420.4,2023-04-11T16:06:51Z,1755424.165,NULL,Vergnügen,kichekesho,s,dubwana,mpanuko,mtesaji,kichekesho,NA,NA,2,NA,NA,NA,NA,NA,NA,NA,NA,NA,NA,NA,NA,NA,NA,NA,NA,NA,NA,NA
ca4b0,"""Richtig""-Screen",canvas.Screen,3_0_2_0_3_1_1,NA,NA,timeout,4996.0430000001,1755422.3,1755408.122,1755424.165,1760404.03,1760405,2023-04-11T16:06:56Z,1760420.208,NULL,Vergnügen,kichekesho,s,dubwana,mpanuko,mtesaji,NA,sdf,1,2,NA,NA,NA,NA,NA,NA,NA,NA,NA,NA,NA,NA,NA,NA,NA,NA,NA,NA,NA
ca4b0,"""Falsch""-Screen",canvas.Screen,3_0_2_0_3_1_2,NA,NA,skipped,NA,1760410.3,NA,NA,1760404.03,1760410.6,2023-04-11T16:06:56Z,1760420.208,NULL,Vergnügen,kichekesho,s,dubwana,mpanuko,mtesaji,NA,sdf,NA,2,NA,NA,NA,NA,NA,NA,NA,NA,NA,NA,NA,NA,NA,NA,NA,NA,NA,NA,NA
ca4b0,shallow,flow.Sequence,3_0_2_0_3_1,NA,NA,completion,10658.007,1749731.5,1749729.377,1749746.023,1760404.03,1760411.1,2023-04-11T16:06:56Z,1760420.208,NULL,Vergnügen,kichekesho,s,dubwana,mpanuko,mtesaji,NA,sdf,NA,2,NA,NA,NA,NA,NA,NA,NA,NA,NA,NA,NA,NA,NA,NA,NA,NA,NA,NA,NA
ca4b0,task,flow.Sequence,3_0_2_0_3,NA,NA,completion,10658.007,1749731.2,1749729.377,1749746.023,1760404.03,1760411.3,2023-04-11T16:06:56Z,1760420.208,NULL,Vergnügen,kichekesho,s,dubwana,mpanuko,mtesaji,NA,sdf,NA,2,NA,NA,NA,NA,NA,NA,NA,NA,NA,NA,NA,NA,NA,NA,NA,NA,NA,NA,NA
ca4b0,Deep Question,html.Page,3_0_2_0_4_0_0,NA,NA,form submission,5121.7919999999,1760411.6,1760404.03,1760420.208,1765542,1765542.2,2023-04-11T16:07:01Z,1765549.181,NULL,Verstand,ufahamivu,d,NA,NA,NA,h,NA,NA,2,NA,NA,NA,NA,NA,NA,NA,NA,NA,NA,NA,NA,NA,NA,NA,NA,NA,NA,NA
ca4b0,"""Richtig""-Screen",canvas.Screen,3_0_2_0_4_0_1,NA,NA,skipped,NA,1765544.2,NA,NA,1765542,1765544.4,2023-04-11T16:07:01Z,1765549.181,NULL,Verstand,ufahamivu,d,NA,NA,NA,NA,sdf,NA,2,NA,NA,NA,NA,NA,NA,NA,NA,NA,NA,NA,NA,NA,NA,NA,NA,NA,NA,NA
ca4b0,"""Falsch""-Screen",canvas.Screen,3_0_2_0_4_0_2,NA,NA,timeout,4996.0349999999,1765545,1765533.044,1765549.181,1770528.963,1770529.9,2023-04-11T16:07:06Z,1770545.216,NULL,Verstand,ufahamivu,d,NA,NA,NA,NA,sdf,0,2,NA,NA,NA,NA,NA,NA,NA,NA,NA,NA,NA,NA,NA,NA,NA,NA,NA,NA,NA
ca4b0,deep,flow.Sequence,3_0_2_0_4_0,NA,NA,completion,10108.755,1760411.6,1760404.03,1760420.208,1770528.963,1770530.3,2023-04-11T16:07:06Z,1770545.216,NULL,Verstand,ufahamivu,d,NA,NA,NA,NA,sdf,NA,2,NA,NA,NA,NA,NA,NA,NA,NA,NA,NA,NA,NA,NA,NA,NA,NA,NA,NA,NA
ca4b0,shallow,flow.Sequence,3_0_2_0_4_1,NA,NA,skipped,NA,1770530.4,NA,NA,1770528.963,1770530.6,2023-04-11T16:07:06Z,1770545.216,NULL,Verstand,ufahamivu,d,NA,NA,NA,NA,sdf,NA,2,NA,NA,NA,NA,NA,NA,NA,NA,NA,NA,NA,NA,NA,NA,NA,NA,NA,NA,NA
ca4b0,task,flow.Sequence,3_0_2_0_4,NA,NA,completion,10108.755,1760411.5,1760404.03,1760420.208,1770528.963,1770530.9,2023-04-11T16:07:06Z,1770545.216,NULL,Verstand,ufahamivu,d,NA,NA,NA,NA,sdf,NA,2,NA,NA,NA,NA,NA,NA,NA,NA,NA,NA,NA,NA,NA,NA,NA,NA,NA,NA,NA
ca4b0,deep,flow.Sequence,3_0_2_0_5_0,NA,NA,skipped,NA,1770531.1,NA,NA,1770528.963,1770531.2,2023-04-11T16:07:06Z,1770545.216,NULL,Gelegenheit,wakati,s,mchanganyiko,kipaumbele,kushuku,NA,sdf,NA,2,NA,NA,NA,NA,NA,NA,NA,NA,NA,NA,NA,NA,NA,NA,NA,NA,NA,NA,NA
ca4b0,Shallow Question,html.Page,3_0_2_0_5_1_0,NA,NA,form submission,6740.284,1770531.4,1770528.963,1770545.216,1777285.5,1777285.6,2023-04-11T16:07:13Z,1777289.587,NULL,Gelegenheit,wakati,s,mchanganyiko,kipaumbele,kushuku,kushuku,NA,NA,2,NA,NA,NA,NA,NA,NA,NA,NA,NA,NA,NA,NA,NA,NA,NA,NA,NA,NA,NA
ca4b0,"""Richtig""-Screen",canvas.Screen,3_0_2_0_5_1_1,NA,NA,skipped,NA,1777287.5,NA,NA,1777285.5,1777287.7,2023-04-11T16:07:13Z,1777289.587,NULL,Gelegenheit,wakati,s,mchanganyiko,kipaumbele,kushuku,NA,sdf,NA,2,NA,NA,NA,NA,NA,NA,NA,NA,NA,NA,NA,NA,NA,NA,NA,NA,NA,NA,NA
ca4b0,"""Falsch""-Screen",canvas.Screen,3_0_2_0_5_1_2,NA,NA,timeout,4996.496,1777288.2,1777273.496,1777289.587,1782269.344,1782270.4,2023-04-11T16:07:18Z,1782286.083,NULL,Gelegenheit,wakati,s,mchanganyiko,kipaumbele,kushuku,NA,sdf,0,2,NA,NA,NA,NA,NA,NA,NA,NA,NA,NA,NA,NA,NA,NA,NA,NA,NA,NA,NA
ca4b0,shallow,flow.Sequence,3_0_2_0_5_1,NA,NA,completion,11724.128,1770531.3,1770528.963,1770545.216,1782269.344,1782270.8,2023-04-11T16:07:18Z,1782286.083,NULL,Gelegenheit,wakati,s,mchanganyiko,kipaumbele,kushuku,NA,sdf,NA,2,NA,NA,NA,NA,NA,NA,NA,NA,NA,NA,NA,NA,NA,NA,NA,NA,NA,NA,NA
ca4b0,task,flow.Sequence,3_0_2_0_5,NA,NA,completion,11724.128,1770531.1,1770528.963,1770545.216,1782269.344,1782271.1,2023-04-11T16:07:18Z,1782286.083,NULL,Gelegenheit,wakati,s,mchanganyiko,kipaumbele,kushuku,NA,sdf,NA,2,NA,NA,NA,NA,NA,NA,NA,NA,NA,NA,NA,NA,NA,NA,NA,NA,NA,NA,NA
ca4b0,Deep Question,html.Page,3_0_2_0_6_0_0,NA,NA,form submission,2553.7170000118,1782271.4,1782269.344,1782286.083,1784839.8,1784839.9,2023-04-11T16:07:21Z,1784850.025,NULL,Ergänzung,kijalizo,d,NA,NA,NA,h,NA,NA,2,NA,NA,NA,NA,NA,NA,NA,NA,NA,NA,NA,NA,NA,NA,NA,NA,NA,NA,NA
ca4b0,"""Richtig""-Screen",canvas.Screen,3_0_2_0_6_0_1,NA,NA,skipped,NA,1784841.7,NA,NA,1784839.8,1784841.9,2023-04-11T16:07:21Z,1784850.025,NULL,Ergänzung,kijalizo,d,NA,NA,NA,NA,sdf,NA,2,NA,NA,NA,NA,NA,NA,NA,NA,NA,NA,NA,NA,NA,NA,NA,NA,NA,NA,NA
ca4b0,"""Falsch""-Screen",canvas.Screen,3_0_2_0_6_0_2,NA,NA,timeout,4996.2180000001,1784842.4,1784833.981,1784850.025,1789829.876,1789830.9,2023-04-11T16:07:26Z,1789846.243,NULL,Ergänzung,kijalizo,d,NA,NA,NA,NA,sdf,0,2,NA,NA,NA,NA,NA,NA,NA,NA,NA,NA,NA,NA,NA,NA,NA,NA,NA,NA,NA
ca4b0,deep,flow.Sequence,3_0_2_0_6_0,NA,NA,completion,7543.7929999998,1782271.3,1782269.344,1782286.083,1789829.876,1789831.3,2023-04-11T16:07:26Z,1789846.243,NULL,Ergänzung,kijalizo,d,NA,NA,NA,NA,sdf,NA,2,NA,NA,NA,NA,NA,NA,NA,NA,NA,NA,NA,NA,NA,NA,NA,NA,NA,NA,NA
ca4b0,shallow,flow.Sequence,3_0_2_0_6_1,NA,NA,skipped,NA,1789831.6,NA,NA,1789829.876,1789831.8,2023-04-11T16:07:26Z,1789846.243,NULL,Ergänzung,kijalizo,d,NA,NA,NA,NA,sdf,NA,2,NA,NA,NA,NA,NA,NA,NA,NA,NA,NA,NA,NA,NA,NA,NA,NA,NA,NA,NA
ca4b0,task,flow.Sequence,3_0_2_0_6,NA,NA,completion,7543.7929999998,1782271.2,1782269.344,1782286.083,1789829.876,1789832.1,2023-04-11T16:07:26Z,1789846.243,NULL,Ergänzung,kijalizo,d,NA,NA,NA,NA,sdf,NA,2,NA,NA,NA,NA,NA,NA,NA,NA,NA,NA,NA,NA,NA,NA,NA,NA,NA,NA,NA
ca4b0,deep,flow.Sequence,3_0_2_0_7_0,NA,NA,skipped,NA,1789832.3,NA,NA,1789829.876,1789832.4,2023-04-11T16:07:26Z,1789846.243,NULL,Ausschluss,kutengwa,s,ununuzi,taratibu,madeni,NA,sdf,NA,2,NA,NA,NA,NA,NA,NA,NA,NA,NA,NA,NA,NA,NA,NA,NA,NA,NA,NA,NA
ca4b0,Shallow Question,html.Page,3_0_2_0_7_1_0,NA,NA,form submission,11874.857000024,1789832.5,1789829.876,1789846.243,1801721.1,1801721.4,2023-04-11T16:07:37Z,1801736.74,NULL,Ausschluss,kutengwa,s,ununuzi,taratibu,madeni,kutengwa,NA,NA,2,NA,NA,NA,NA,NA,NA,NA,NA,NA,NA,NA,NA,NA,NA,NA,NA,NA,NA,NA
ca4b0,"""Richtig""-Screen",canvas.Screen,3_0_2_0_7_1_1,NA,NA,timeout,4995.3829999999,1801723.3,1801720.111,1801736.74,1806716.008,1806717,2023-04-11T16:07:42Z,1806732.123,NULL,Ausschluss,kutengwa,s,ununuzi,taratibu,madeni,NA,sdf,1,2,NA,NA,NA,NA,NA,NA,NA,NA,NA,NA,NA,NA,NA,NA,NA,NA,NA,NA,NA
ca4b0,"""Falsch""-Screen",canvas.Screen,3_0_2_0_7_1_2,NA,NA,skipped,NA,1806722.2,NA,NA,1806716.008,1806722.6,2023-04-11T16:07:42Z,1806732.123,NULL,Ausschluss,kutengwa,s,ununuzi,taratibu,madeni,NA,sdf,NA,2,NA,NA,NA,NA,NA,NA,NA,NA,NA,NA,NA,NA,NA,NA,NA,NA,NA,NA,NA
ca4b0,shallow,flow.Sequence,3_0_2_0_7_1,NA,NA,completion,16869.765,1789832.5,1789829.876,1789846.243,1806716.008,1806722.9,2023-04-11T16:07:42Z,1806732.123,NULL,Ausschluss,kutengwa,s,ununuzi,taratibu,madeni,NA,sdf,NA,2,NA,NA,NA,NA,NA,NA,NA,NA,NA,NA,NA,NA,NA,NA,NA,NA,NA,NA,NA
ca4b0,task,flow.Sequence,3_0_2_0_7,NA,NA,completion,16869.765,1789832.1,1789829.876,1789846.243,1806716.008,1806723.2,2023-04-11T16:07:42Z,1806732.123,NULL,Ausschluss,kutengwa,s,ununuzi,taratibu,madeni,NA,sdf,NA,2,NA,NA,NA,NA,NA,NA,NA,NA,NA,NA,NA,NA,NA,NA,NA,NA,NA,NA,NA
ca4b0,block,flow.Loop,3_0_2_0,NA,NA,completion,94922.562,1711783.6,1711777.193,1711793.446,1806716.008,1806723.5,2023-04-11T16:07:42Z,1806732.123,NULL,NA,NA,NA,NA,NA,NA,NA,sdf,NA,2,NA,NA,NA,NA,NA,NA,NA,NA,NA,NA,NA,NA,NA,NA,NA,NA,NA,NA,NA
ca4b0,weiter,canvas.Screen,3_0_2_1,sdf,keypress(Space),response,1295.4770000239,1806723.6,1806716.008,1806732.123,1808027.6,1808028.6,2023-04-11T16:07:44Z,1808130.975,NULL,NA,NA,NA,NA,NA,NA,NA,sdf,NA,2,NA,NA,NA,NA,NA,NA,NA,NA,NA,NA,NA,NA,NA,NA,NA,NA,NA,NA,NA
ca4b0,check continue,flow.Sequence,3_0_2,NA,NA,completion,96234.154000024,1711783.5,1711777.193,1711793.446,1808027.6,1808029,2023-04-11T16:07:44Z,1808130.975,NULL,NA,NA,NA,NA,NA,NA,NA,sdf,NA,2,NA,NA,NA,NA,NA,NA,NA,NA,NA,NA,NA,NA,NA,NA,NA,NA,NA,NA,NA
ca4b0,deep,flow.Sequence,3_0_3_0_0_0,NA,NA,skipped,NA,1808122.6,NA,NA,1808027.6,1808122.8,2023-04-11T16:07:44Z,1808130.975,NULL,Gelegenheit,wakati,s,mchanganyiko,kipaumbele,kushuku,NA,qt,NA,3,NA,NA,NA,NA,NA,NA,NA,NA,NA,NA,NA,NA,NA,NA,NA,NA,NA,NA,NA
ca4b0,Shallow Question,html.Page,3_0_3_0_0_1_0,NA,NA,form submission,9737.2250000476,1808123,1808114.837,1808130.975,1817868.2,1817868.3,2023-04-11T16:07:54Z,1817872.913,NULL,Gelegenheit,wakati,s,mchanganyiko,kipaumbele,kushuku,wakati,NA,NA,3,NA,NA,NA,NA,NA,NA,NA,NA,NA,NA,NA,NA,NA,NA,NA,NA,NA,NA,NA
ca4b0,"""Richtig""-Screen",canvas.Screen,3_0_3_0_0_1_1,NA,NA,timeout,4995.959,1817870.3,1817856.871,1817872.913,1822852.613,1822853.6,2023-04-11T16:07:59Z,1822868.872,NULL,Gelegenheit,wakati,s,mchanganyiko,kipaumbele,kushuku,NA,qt,1,3,NA,NA,NA,NA,NA,NA,NA,NA,NA,NA,NA,NA,NA,NA,NA,NA,NA,NA,NA
ca4b0,"""Falsch""-Screen",canvas.Screen,3_0_3_0_0_1_2,NA,NA,skipped,NA,1822859,NA,NA,1822852.613,1822859.3,2023-04-11T16:07:59Z,1822868.872,NULL,Gelegenheit,wakati,s,mchanganyiko,kipaumbele,kushuku,NA,qt,NA,3,NA,NA,NA,NA,NA,NA,NA,NA,NA,NA,NA,NA,NA,NA,NA,NA,NA,NA,NA
ca4b0,shallow,flow.Sequence,3_0_3_0_0_1,NA,NA,completion,14721.638,1808122.9,1808114.837,1808130.975,1822852.613,1822859.6,2023-04-11T16:07:59Z,1822868.872,NULL,Gelegenheit,wakati,s,mchanganyiko,kipaumbele,kushuku,NA,qt,NA,3,NA,NA,NA,NA,NA,NA,NA,NA,NA,NA,NA,NA,NA,NA,NA,NA,NA,NA,NA
ca4b0,task,flow.Sequence,3_0_3_0_0,NA,NA,completion,14721.638,1808122.5,1808114.837,1808130.975,1822852.613,1822859.9,2023-04-11T16:07:59Z,1822868.872,NULL,Gelegenheit,wakati,s,mchanganyiko,kipaumbele,kushuku,NA,qt,NA,3,NA,NA,NA,NA,NA,NA,NA,NA,NA,NA,NA,NA,NA,NA,NA,NA,NA,NA,NA
ca4b0,deep,flow.Sequence,3_0_3_0_1_0,NA,NA,skipped,NA,1822860,NA,NA,1822852.613,1822860.2,2023-04-11T16:07:59Z,1822868.872,NULL,Notfall,dharura,s,rairai,malalamiko,ahueni,NA,qt,NA,3,NA,NA,NA,NA,NA,NA,NA,NA,NA,NA,NA,NA,NA,NA,NA,NA,NA,NA,NA
ca4b0,Shallow Question,html.Page,3_0_3_0_1_1_0,NA,NA,form submission,7546.2280000239,1822860.3,1822852.613,1822868.872,1830415.1,1830415.3,2023-04-11T16:08:06Z,1830429.866,NULL,Notfall,dharura,s,rairai,malalamiko,ahueni,dharura,NA,NA,3,NA,NA,NA,NA,NA,NA,NA,NA,NA,NA,NA,NA,NA,NA,NA,NA,NA,NA,NA
ca4b0,"""Richtig""-Screen",canvas.Screen,3_0_3_0_1_1_1,NA,NA,timeout,4995.368,1830417.2,1830413.196,1830429.866,1835409.058,1835410.1,2023-04-11T16:08:11Z,1835425.234,NULL,Notfall,dharura,s,rairai,malalamiko,ahueni,NA,qt,1,3,NA,NA,NA,NA,NA,NA,NA,NA,NA,NA,NA,NA,NA,NA,NA,NA,NA,NA,NA
ca4b0,"""Falsch""-Screen",canvas.Screen,3_0_3_0_1_1_2,NA,NA,skipped,NA,1835415.4,NA,NA,1835409.058,1835415.7,2023-04-11T16:08:11Z,1835425.234,NULL,Notfall,dharura,s,rairai,malalamiko,ahueni,NA,qt,NA,3,NA,NA,NA,NA,NA,NA,NA,NA,NA,NA,NA,NA,NA,NA,NA,NA,NA,NA,NA
ca4b0,shallow,flow.Sequence,3_0_3_0_1_1,NA,NA,completion,12540.186,1822860.3,1822852.613,1822868.872,1835409.058,1835416.2,2023-04-11T16:08:11Z,1835425.234,NULL,Notfall,dharura,s,rairai,malalamiko,ahueni,NA,qt,NA,3,NA,NA,NA,NA,NA,NA,NA,NA,NA,NA,NA,NA,NA,NA,NA,NA,NA,NA,NA
ca4b0,task,flow.Sequence,3_0_3_0_1,NA,NA,completion,12540.186,1822860,1822852.613,1822868.872,1835409.058,1835416.4,2023-04-11T16:08:11Z,1835425.234,NULL,Notfall,dharura,s,rairai,malalamiko,ahueni,NA,qt,NA,3,NA,NA,NA,NA,NA,NA,NA,NA,NA,NA,NA,NA,NA,NA,NA,NA,NA,NA,NA
ca4b0,Deep Question,html.Page,3_0_3_0_2_0_0,NA,NA,form submission,4358.7660000001,1835416.7,1835409.058,1835425.234,1839784,1839784.3,2023-04-11T16:08:15Z,1839788.256,NULL,Ergänzung,kijalizo,d,NA,NA,NA,h,NA,NA,3,NA,NA,NA,NA,NA,NA,NA,NA,NA,NA,NA,NA,NA,NA,NA,NA,NA,NA,NA
ca4b0,"""Richtig""-Screen",canvas.Screen,3_0_3_0_2_0_1,NA,NA,skipped,NA,1839786.7,NA,NA,1839784,1839786.8,2023-04-11T16:08:15Z,1839788.256,NULL,Ergänzung,kijalizo,d,NA,NA,NA,NA,qt,NA,3,NA,NA,NA,NA,NA,NA,NA,NA,NA,NA,NA,NA,NA,NA,NA,NA,NA,NA,NA
ca4b0,"""Falsch""-Screen",canvas.Screen,3_0_3_0_2_0_2,NA,NA,timeout,4996.5019999999,1839787.7,1839772.241,1839788.256,1844767.937,1844768.8,2023-04-11T16:08:20Z,1844784.758,NULL,Ergänzung,kijalizo,d,NA,NA,NA,NA,qt,0,3,NA,NA,NA,NA,NA,NA,NA,NA,NA,NA,NA,NA,NA,NA,NA,NA,NA,NA,NA
ca4b0,deep,flow.Sequence,3_0_3_0_2_0,NA,NA,completion,9342.703,1835416.7,1835409.058,1835425.234,1844767.937,1844769.3,2023-04-11T16:08:20Z,1844784.758,NULL,Ergänzung,kijalizo,d,NA,NA,NA,NA,qt,NA,3,NA,NA,NA,NA,NA,NA,NA,NA,NA,NA,NA,NA,NA,NA,NA,NA,NA,NA,NA
ca4b0,shallow,flow.Sequence,3_0_3_0_2_1,NA,NA,skipped,NA,1844769.4,NA,NA,1844767.937,1844769.6,2023-04-11T16:08:20Z,1844784.758,NULL,Ergänzung,kijalizo,d,NA,NA,NA,NA,qt,NA,3,NA,NA,NA,NA,NA,NA,NA,NA,NA,NA,NA,NA,NA,NA,NA,NA,NA,NA,NA
ca4b0,task,flow.Sequence,3_0_3_0_2,NA,NA,completion,9342.703,1835416.6,1835409.058,1835425.234,1844767.937,1844769.9,2023-04-11T16:08:20Z,1844784.758,NULL,Ergänzung,kijalizo,d,NA,NA,NA,NA,qt,NA,3,NA,NA,NA,NA,NA,NA,NA,NA,NA,NA,NA,NA,NA,NA,NA,NA,NA,NA,NA
ca4b0,Deep Question,html.Page,3_0_3_0_3_0_0,NA,NA,form submission,3944.4420000478,1844770.1,1844767.937,1844784.758,1848729.2,1848729.4,2023-04-11T16:08:24Z,1848730.914,NULL,Widerstand,usulubu,d,NA,NA,NA,h,NA,NA,3,NA,NA,NA,NA,NA,NA,NA,NA,NA,NA,NA,NA,NA,NA,NA,NA,NA,NA,NA
ca4b0,"""Richtig""-Screen",canvas.Screen,3_0_3_0_3_0_1,NA,NA,skipped,NA,1848731.7,NA,NA,1848729.2,1848731.9,2023-04-11T16:08:24Z,1848730.914,NULL,Widerstand,usulubu,d,NA,NA,NA,NA,qt,NA,3,NA,NA,NA,NA,NA,NA,NA,NA,NA,NA,NA,NA,NA,NA,NA,NA,NA,NA,NA
ca4b0,"""Falsch""-Screen",canvas.Screen,3_0_3_0_3_0_2,NA,NA,timeout,4996.524,1848732.5,1848714.919,1848730.914,1853710.716,1853711.6,2023-04-11T16:08:29Z,1853727.438,NULL,Widerstand,usulubu,d,NA,NA,NA,NA,qt,0,3,NA,NA,NA,NA,NA,NA,NA,NA,NA,NA,NA,NA,NA,NA,NA,NA,NA,NA,NA
ca4b0,deep,flow.Sequence,3_0_3_0_3_0,NA,NA,completion,8925.9580000001,1844770,1844767.937,1844784.758,1853710.716,1853712,2023-04-11T16:08:29Z,1853727.438,NULL,Widerstand,usulubu,d,NA,NA,NA,NA,qt,NA,3,NA,NA,NA,NA,NA,NA,NA,NA,NA,NA,NA,NA,NA,NA,NA,NA,NA,NA,NA
ca4b0,shallow,flow.Sequence,3_0_3_0_3_1,NA,NA,skipped,NA,1853712.2,NA,NA,1853710.716,1853712.4,2023-04-11T16:08:29Z,1853727.438,NULL,Widerstand,usulubu,d,NA,NA,NA,NA,qt,NA,3,NA,NA,NA,NA,NA,NA,NA,NA,NA,NA,NA,NA,NA,NA,NA,NA,NA,NA,NA
ca4b0,task,flow.Sequence,3_0_3_0_3,NA,NA,completion,8925.9580000001,1844769.9,1844767.937,1844784.758,1853710.716,1853712.6,2023-04-11T16:08:29Z,1853727.438,NULL,Widerstand,usulubu,d,NA,NA,NA,NA,qt,NA,3,NA,NA,NA,NA,NA,NA,NA,NA,NA,NA,NA,NA,NA,NA,NA,NA,NA,NA,NA
ca4b0,Deep Question,html.Page,3_0_3_0_4_0_0,NA,NA,form submission,6677.3620000118,1853712.8,1853710.716,1853727.438,1860404.8,1860405,2023-04-11T16:08:36Z,1860426.949,NULL,Wohlstand,mafanikio,d,NA,NA,NA,h,NA,NA,3,NA,NA,NA,NA,NA,NA,NA,NA,NA,NA,NA,NA,NA,NA,NA,NA,NA,NA,NA
ca4b0,"""Richtig""-Screen",canvas.Screen,3_0_3_0_4_0_1,NA,NA,skipped,NA,1860407.2,NA,NA,1860404.8,1860407.4,2023-04-11T16:08:36Z,1860426.949,NULL,Wohlstand,mafanikio,d,NA,NA,NA,NA,qt,NA,3,NA,NA,NA,NA,NA,NA,NA,NA,NA,NA,NA,NA,NA,NA,NA,NA,NA,NA,NA
ca4b0,"""Falsch""-Screen",canvas.Screen,3_0_3_0_4_0_2,NA,NA,timeout,5007.0319999999,1860408.3,1860388.13,1860426.949,1865417.95,1865418.9,2023-04-11T16:08:41Z,1865433.981,NULL,Wohlstand,mafanikio,d,NA,NA,NA,NA,qt,0,3,NA,NA,NA,NA,NA,NA,NA,NA,NA,NA,NA,NA,NA,NA,NA,NA,NA,NA,NA
ca4b0,deep,flow.Sequence,3_0_3_0_4_0,NA,NA,completion,11690.512,1853712.8,1853710.716,1853727.438,1865417.95,1865419.4,2023-04-11T16:08:41Z,1865433.981,NULL,Wohlstand,mafanikio,d,NA,NA,NA,NA,qt,NA,3,NA,NA,NA,NA,NA,NA,NA,NA,NA,NA,NA,NA,NA,NA,NA,NA,NA,NA,NA
ca4b0,shallow,flow.Sequence,3_0_3_0_4_1,NA,NA,skipped,NA,1865419.6,NA,NA,1865417.95,1865419.7,2023-04-11T16:08:41Z,1865433.981,NULL,Wohlstand,mafanikio,d,NA,NA,NA,NA,qt,NA,3,NA,NA,NA,NA,NA,NA,NA,NA,NA,NA,NA,NA,NA,NA,NA,NA,NA,NA,NA
ca4b0,task,flow.Sequence,3_0_3_0_4,NA,NA,completion,11690.512,1853712.6,1853710.716,1853727.438,1865417.95,1865420,2023-04-11T16:08:41Z,1865433.981,NULL,Wohlstand,mafanikio,d,NA,NA,NA,NA,qt,NA,3,NA,NA,NA,NA,NA,NA,NA,NA,NA,NA,NA,NA,NA,NA,NA,NA,NA,NA,NA
ca4b0,deep,flow.Sequence,3_0_3_0_5_0,NA,NA,skipped,NA,1865420.1,NA,NA,1865417.95,1865420.3,2023-04-11T16:08:41Z,1865433.981,NULL,Vergnügen,kichekesho,s,dubwana,mpanuko,mtesaji,NA,qt,NA,3,NA,NA,NA,NA,NA,NA,NA,NA,NA,NA,NA,NA,NA,NA,NA,NA,NA,NA,NA
ca4b0,Shallow Question,html.Page,3_0_3_0_5_1_0,NA,NA,form submission,6595.319000012,1865420.5,1865417.95,1865433.981,1872029.3,1872029.5,2023-04-11T16:08:48Z,1872045.418,NULL,Vergnügen,kichekesho,s,dubwana,mpanuko,mtesaji,kichekesho,NA,NA,3,NA,NA,NA,NA,NA,NA,NA,NA,NA,NA,NA,NA,NA,NA,NA,NA,NA,NA,NA
ca4b0,"""Richtig""-Screen",canvas.Screen,3_0_3_0_5_1_1,NA,NA,timeout,4995.7009999999,1872031.6,1872012.338,1872045.418,1877024.8,1877025.7,2023-04-11T16:08:53Z,1877041.119,NULL,Vergnügen,kichekesho,s,dubwana,mpanuko,mtesaji,NA,qt,1,3,NA,NA,NA,NA,NA,NA,NA,NA,NA,NA,NA,NA,NA,NA,NA,NA,NA,NA,NA
ca4b0,"""Falsch""-Screen",canvas.Screen,3_0_3_0_5_1_2,NA,NA,skipped,NA,1877027.4,NA,NA,1877024.8,1877027.7,2023-04-11T16:08:53Z,1877041.119,NULL,Vergnügen,kichekesho,s,dubwana,mpanuko,mtesaji,NA,qt,NA,3,NA,NA,NA,NA,NA,NA,NA,NA,NA,NA,NA,NA,NA,NA,NA,NA,NA,NA,NA
ca4b0,shallow,flow.Sequence,3_0_3_0_5_1,NA,NA,completion,11590.819,1865420.4,1865417.95,1865433.981,1877024.8,1877028,2023-04-11T16:08:53Z,1877041.119,NULL,Vergnügen,kichekesho,s,dubwana,mpanuko,mtesaji,NA,qt,NA,3,NA,NA,NA,NA,NA,NA,NA,NA,NA,NA,NA,NA,NA,NA,NA,NA,NA,NA,NA
ca4b0,task,flow.Sequence,3_0_3_0_5,NA,NA,completion,11590.819,1865420.1,1865417.95,1865433.981,1877024.8,1877028.2,2023-04-11T16:08:53Z,1877041.119,NULL,Vergnügen,kichekesho,s,dubwana,mpanuko,mtesaji,NA,qt,NA,3,NA,NA,NA,NA,NA,NA,NA,NA,NA,NA,NA,NA,NA,NA,NA,NA,NA,NA,NA
ca4b0,Deep Question,html.Page,3_0_3_0_6_0_0,NA,NA,form submission,5027.7810000358,1877028.5,1877024.8,1877041.119,1882068.9,1882069.2,2023-04-11T16:08:58Z,1882070.226,NULL,Verstand,ufahamivu,d,NA,NA,NA,h,NA,NA,3,NA,NA,NA,NA,NA,NA,NA,NA,NA,NA,NA,NA,NA,NA,NA,NA,NA,NA,NA
ca4b0,"""Richtig""-Screen",canvas.Screen,3_0_3_0_6_0_1,NA,NA,skipped,NA,1882071.7,NA,NA,1882068.9,1882071.9,2023-04-11T16:08:58Z,1882070.226,NULL,Verstand,ufahamivu,d,NA,NA,NA,NA,qt,NA,3,NA,NA,NA,NA,NA,NA,NA,NA,NA,NA,NA,NA,NA,NA,NA,NA,NA,NA,NA
ca4b0,"""Falsch""-Screen",canvas.Screen,3_0_3_0_6_0_2,NA,NA,timeout,4995.936,1882072.9,1882053.688,1882070.226,1887049.81,1887050.4,2023-04-11T16:09:03Z,1887066.162,NULL,Verstand,ufahamivu,d,NA,NA,NA,NA,qt,0,3,NA,NA,NA,NA,NA,NA,NA,NA,NA,NA,NA,NA,NA,NA,NA,NA,NA,NA,NA
ca4b0,deep,flow.Sequence,3_0_3_0_6_0,NA,NA,completion,10008.691,1877028.5,1877024.8,1877041.119,1887049.81,1887050.7,2023-04-11T16:09:03Z,1887066.162,NULL,Verstand,ufahamivu,d,NA,NA,NA,NA,qt,NA,3,NA,NA,NA,NA,NA,NA,NA,NA,NA,NA,NA,NA,NA,NA,NA,NA,NA,NA,NA
ca4b0,shallow,flow.Sequence,3_0_3_0_6_1,NA,NA,skipped,NA,1887050.8,NA,NA,1887049.81,1887051.1,2023-04-11T16:09:03Z,1887066.162,NULL,Verstand,ufahamivu,d,NA,NA,NA,NA,qt,NA,3,NA,NA,NA,NA,NA,NA,NA,NA,NA,NA,NA,NA,NA,NA,NA,NA,NA,NA,NA
ca4b0,task,flow.Sequence,3_0_3_0_6,NA,NA,completion,10008.691,1877028.4,1877024.8,1877041.119,1887049.81,1887051.3,2023-04-11T16:09:03Z,1887066.162,NULL,Verstand,ufahamivu,d,NA,NA,NA,NA,qt,NA,3,NA,NA,NA,NA,NA,NA,NA,NA,NA,NA,NA,NA,NA,NA,NA,NA,NA,NA,NA
ca4b0,deep,flow.Sequence,3_0_3_0_7_0,NA,NA,skipped,NA,1887051.4,NA,NA,1887049.81,1887051.6,2023-04-11T16:09:03Z,1887066.162,NULL,Ausschluss,kutengwa,s,ununuzi,taratibu,madeni,NA,qt,NA,3,NA,NA,NA,NA,NA,NA,NA,NA,NA,NA,NA,NA,NA,NA,NA,NA,NA,NA,NA
ca4b0,Shallow Question,html.Page,3_0_3_0_7_1_0,NA,NA,form submission,7781.7380000358,1887051.7,1887049.81,1887066.162,1894847.9,1894848.1,2023-04-11T16:09:11Z,1894860.137,NULL,Ausschluss,kutengwa,s,ununuzi,taratibu,madeni,kutengwa,NA,NA,3,NA,NA,NA,NA,NA,NA,NA,NA,NA,NA,NA,NA,NA,NA,NA,NA,NA,NA,NA
ca4b0,"""Richtig""-Screen",canvas.Screen,3_0_3_0_7_1_1,NA,NA,timeout,4995.605,1894850.1,1894843.679,1894860.137,1899839.509,1899840.6,2023-04-11T16:09:16Z,1899855.742,NULL,Ausschluss,kutengwa,s,ununuzi,taratibu,madeni,NA,qt,1,3,NA,NA,NA,NA,NA,NA,NA,NA,NA,NA,NA,NA,NA,NA,NA,NA,NA,NA,NA
ca4b0,"""Falsch""-Screen",canvas.Screen,3_0_3_0_7_1_2,NA,NA,skipped,NA,1899845.9,NA,NA,1899839.509,1899846.3,2023-04-11T16:09:16Z,1899855.742,NULL,Ausschluss,kutengwa,s,ununuzi,taratibu,madeni,NA,qt,NA,3,NA,NA,NA,NA,NA,NA,NA,NA,NA,NA,NA,NA,NA,NA,NA,NA,NA,NA,NA
ca4b0,shallow,flow.Sequence,3_0_3_0_7_1,NA,NA,completion,12773.347,1887051.6,1887049.81,1887066.162,1899839.509,1899846.7,2023-04-11T16:09:16Z,1899855.742,NULL,Ausschluss,kutengwa,s,ununuzi,taratibu,madeni,NA,qt,NA,3,NA,NA,NA,NA,NA,NA,NA,NA,NA,NA,NA,NA,NA,NA,NA,NA,NA,NA,NA
ca4b0,task,flow.Sequence,3_0_3_0_7,NA,NA,completion,12773.347,1887051.4,1887049.81,1887066.162,1899839.509,1899847,2023-04-11T16:09:16Z,1899855.742,NULL,Ausschluss,kutengwa,s,ununuzi,taratibu,madeni,NA,qt,NA,3,NA,NA,NA,NA,NA,NA,NA,NA,NA,NA,NA,NA,NA,NA,NA,NA,NA,NA,NA
ca4b0,block,flow.Loop,3_0_3_0,NA,NA,completion,91708.534,1808122.4,1808114.837,1808130.975,1899839.509,1899847.3,2023-04-11T16:09:16Z,1899855.742,NULL,NA,NA,NA,NA,NA,NA,NA,qt,NA,3,NA,NA,NA,NA,NA,NA,NA,NA,NA,NA,NA,NA,NA,NA,NA,NA,NA,NA,NA
ca4b0,weiter,canvas.Screen,3_0_3_1,sdf,keypress(Space),response,1064.0580000118,1899847.5,1899839.509,1899855.742,1900919.8,1900921,2023-04-11T16:09:17Z,1901004.788,NULL,NA,NA,NA,NA,NA,NA,NA,qt,NA,3,NA,NA,NA,NA,NA,NA,NA,NA,NA,NA,NA,NA,NA,NA,NA,NA,NA,NA,NA
ca4b0,check continue,flow.Sequence,3_0_3,NA,NA,completion,92788.825000012,1808122.4,1808114.837,1808130.975,1900919.8,1900921.4,2023-04-11T16:09:17Z,1901004.788,NULL,NA,NA,NA,NA,NA,NA,NA,qt,NA,3,NA,NA,NA,NA,NA,NA,NA,NA,NA,NA,NA,NA,NA,NA,NA,NA,NA,NA,NA
ca4b0,deep,flow.Sequence,3_0_4_0_0_0,NA,NA,skipped,NA,1900999.1,NA,NA,1900919.8,1900999.4,2023-04-11T16:09:17Z,1901004.788,NULL,Notfall,dharura,s,rairai,malalamiko,ahueni,NA,sd,NA,4,NA,NA,NA,NA,NA,NA,NA,NA,NA,NA,NA,NA,NA,NA,NA,NA,NA,NA,NA
ca4b0,Shallow Question,html.Page,3_0_4_0_0_1_0,NA,NA,form submission,5101.7120000001,1900999.6,1900988.541,1901004.788,1906106.5,1906106.6,2023-04-11T16:09:22Z,1906117.475,NULL,Notfall,dharura,s,rairai,malalamiko,ahueni,dharura,NA,NA,4,NA,NA,NA,NA,NA,NA,NA,NA,NA,NA,NA,NA,NA,NA,NA,NA,NA,NA,NA
ca4b0,"""Richtig""-Screen",canvas.Screen,3_0_4_0_0_1_1,NA,NA,timeout,4995.6839999999,1906108.4,1906100.989,1906117.475,1911096.995,1911098,2023-04-11T16:09:27Z,1911113.159,NULL,Notfall,dharura,s,rairai,malalamiko,ahueni,NA,sd,1,4,NA,NA,NA,NA,NA,NA,NA,NA,NA,NA,NA,NA,NA,NA,NA,NA,NA,NA,NA
ca4b0,"""Falsch""-Screen",canvas.Screen,3_0_4_0_0_1_2,NA,NA,skipped,NA,1911103.2,NA,NA,1911096.995,1911103.6,2023-04-11T16:09:27Z,1911113.159,NULL,Notfall,dharura,s,rairai,malalamiko,ahueni,NA,sd,NA,4,NA,NA,NA,NA,NA,NA,NA,NA,NA,NA,NA,NA,NA,NA,NA,NA,NA,NA,NA
ca4b0,shallow,flow.Sequence,3_0_4_0_0_1,NA,NA,completion,10092.207,1900999.5,1900988.541,1901004.788,1911096.995,1911104,2023-04-11T16:09:27Z,1911113.159,NULL,Notfall,dharura,s,rairai,malalamiko,ahueni,NA,sd,NA,4,NA,NA,NA,NA,NA,NA,NA,NA,NA,NA,NA,NA,NA,NA,NA,NA,NA,NA,NA
ca4b0,task,flow.Sequence,3_0_4_0_0,NA,NA,completion,10092.207,1900999.1,1900988.541,1901004.788,1911096.995,1911104.3,2023-04-11T16:09:27Z,1911113.159,NULL,Notfall,dharura,s,rairai,malalamiko,ahueni,NA,sd,NA,4,NA,NA,NA,NA,NA,NA,NA,NA,NA,NA,NA,NA,NA,NA,NA,NA,NA,NA,NA
ca4b0,Deep Question,html.Page,3_0_4_0_1_0_0,NA,NA,form submission,7912.9410000239,1911104.5,1911096.995,1911113.159,1919026.1,1919026.3,2023-04-11T16:09:35Z,1919040.48,NULL,Wohlstand,mafanikio,d,NA,NA,NA,h,NA,NA,4,NA,NA,NA,NA,NA,NA,NA,NA,NA,NA,NA,NA,NA,NA,NA,NA,NA,NA,NA
ca4b0,"""Richtig""-Screen",canvas.Screen,3_0_4_0_1_0_1,NA,NA,skipped,NA,1919028.5,NA,NA,1919026.1,1919028.8,2023-04-11T16:09:35Z,1919040.48,NULL,Wohlstand,mafanikio,d,NA,NA,NA,NA,sd,NA,4,NA,NA,NA,NA,NA,NA,NA,NA,NA,NA,NA,NA,NA,NA,NA,NA,NA,NA,NA
ca4b0,"""Falsch""-Screen",canvas.Screen,3_0_4_0_1_0_2,NA,NA,timeout,4995.9080000001,1919029.3,1919023.839,1919040.48,1924019.223,1924020,2023-04-11T16:09:40Z,1924036.388,NULL,Wohlstand,mafanikio,d,NA,NA,NA,NA,sd,0,4,NA,NA,NA,NA,NA,NA,NA,NA,NA,NA,NA,NA,NA,NA,NA,NA,NA,NA,NA
ca4b0,deep,flow.Sequence,3_0_4_0_1_0,NA,NA,completion,12906.064,1911104.5,1911096.995,1911113.159,1924019.223,1924020.4,2023-04-11T16:09:40Z,1924036.388,NULL,Wohlstand,mafanikio,d,NA,NA,NA,NA,sd,NA,4,NA,NA,NA,NA,NA,NA,NA,NA,NA,NA,NA,NA,NA,NA,NA,NA,NA,NA,NA
ca4b0,shallow,flow.Sequence,3_0_4_0_1_1,NA,NA,skipped,NA,1924020.6,NA,NA,1924019.223,1924020.8,2023-04-11T16:09:40Z,1924036.388,NULL,Wohlstand,mafanikio,d,NA,NA,NA,NA,sd,NA,4,NA,NA,NA,NA,NA,NA,NA,NA,NA,NA,NA,NA,NA,NA,NA,NA,NA,NA,NA
ca4b0,task,flow.Sequence,3_0_4_0_1,NA,NA,completion,12906.064,1911104.4,1911096.995,1911113.159,1924019.223,1924021,2023-04-11T16:09:40Z,1924036.388,NULL,Wohlstand,mafanikio,d,NA,NA,NA,NA,sd,NA,4,NA,NA,NA,NA,NA,NA,NA,NA,NA,NA,NA,NA,NA,NA,NA,NA,NA,NA,NA
ca4b0,Deep Question,html.Page,3_0_4_0_2_0_0,NA,NA,form submission,5109.2120000238,1924021.3,1924019.223,1924036.388,1929145.6,1929145.8,2023-04-11T16:09:45Z,1929148.29,NULL,Widerstand,usulubu,d,NA,NA,NA,ulu,NA,NA,4,NA,NA,NA,NA,NA,NA,NA,NA,NA,NA,NA,NA,NA,NA,NA,NA,NA,NA,NA
ca4b0,"""Richtig""-Screen",canvas.Screen,3_0_4_0_2_0_1,NA,NA,skipped,NA,1929148.5,NA,NA,1929145.6,1929148.6,2023-04-11T16:09:45Z,1929148.29,NULL,Widerstand,usulubu,d,NA,NA,NA,NA,sd,NA,4,NA,NA,NA,NA,NA,NA,NA,NA,NA,NA,NA,NA,NA,NA,NA,NA,NA,NA,NA
ca4b0,"""Falsch""-Screen",canvas.Screen,3_0_4_0_2_0_2,NA,NA,timeout,4996.176,1929149.2,1929132.229,1929148.29,1934128.189,1934129.2,2023-04-11T16:09:50Z,1934144.466,NULL,Widerstand,usulubu,d,NA,NA,NA,NA,sd,0,4,NA,NA,NA,NA,NA,NA,NA,NA,NA,NA,NA,NA,NA,NA,NA,NA,NA,NA,NA
ca4b0,deep,flow.Sequence,3_0_4_0_2_0,NA,NA,completion,10091.801,1924021.2,1924019.223,1924036.388,1934128.189,1934129.6,2023-04-11T16:09:50Z,1934144.466,NULL,Widerstand,usulubu,d,NA,NA,NA,NA,sd,NA,4,NA,NA,NA,NA,NA,NA,NA,NA,NA,NA,NA,NA,NA,NA,NA,NA,NA,NA,NA
ca4b0,shallow,flow.Sequence,3_0_4_0_2_1,NA,NA,skipped,NA,1934129.8,NA,NA,1934128.189,1934130,2023-04-11T16:09:50Z,1934144.466,NULL,Widerstand,usulubu,d,NA,NA,NA,NA,sd,NA,4,NA,NA,NA,NA,NA,NA,NA,NA,NA,NA,NA,NA,NA,NA,NA,NA,NA,NA,NA
ca4b0,task,flow.Sequence,3_0_4_0_2,NA,NA,completion,10091.801,1924021.1,1924019.223,1924036.388,1934128.189,1934130.1,2023-04-11T16:09:50Z,1934144.466,NULL,Widerstand,usulubu,d,NA,NA,NA,NA,sd,NA,4,NA,NA,NA,NA,NA,NA,NA,NA,NA,NA,NA,NA,NA,NA,NA,NA,NA,NA,NA
ca4b0,deep,flow.Sequence,3_0_4_0_3_0,NA,NA,skipped,NA,1934130.3,NA,NA,1934128.189,1934130.5,2023-04-11T16:09:50Z,1934144.466,NULL,Vergnügen,kichekesho,s,dubwana,mpanuko,mtesaji,NA,sd,NA,4,NA,NA,NA,NA,NA,NA,NA,NA,NA,NA,NA,NA,NA,NA,NA,NA,NA,NA,NA
ca4b0,Shallow Question,html.Page,3_0_4_0_3_1_0,NA,NA,form submission,4835.6340000238,1934130.7,1934128.189,1934144.466,1938980.1,1938980.3,2023-04-11T16:09:55Z,1938990.535,NULL,Vergnügen,kichekesho,s,dubwana,mpanuko,mtesaji,kichekesho,NA,NA,4,NA,NA,NA,NA,NA,NA,NA,NA,NA,NA,NA,NA,NA,NA,NA,NA,NA,NA,NA
ca4b0,"""Richtig""-Screen",canvas.Screen,3_0_4_0_3_1_1,NA,NA,timeout,4995.5730000001,1938982.2,1938974.131,1938990.535,1943970.017,1943971,2023-04-11T16:10:00Z,1943986.108,NULL,Vergnügen,kichekesho,s,dubwana,mpanuko,mtesaji,NA,sd,1,4,NA,NA,NA,NA,NA,NA,NA,NA,NA,NA,NA,NA,NA,NA,NA,NA,NA,NA,NA
ca4b0,"""Falsch""-Screen",canvas.Screen,3_0_4_0_3_1_2,NA,NA,skipped,NA,1943976.4,NA,NA,1943970.017,1943976.7,2023-04-11T16:10:00Z,1943986.108,NULL,Vergnügen,kichekesho,s,dubwana,mpanuko,mtesaji,NA,sd,NA,4,NA,NA,NA,NA,NA,NA,NA,NA,NA,NA,NA,NA,NA,NA,NA,NA,NA,NA,NA
ca4b0,shallow,flow.Sequence,3_0_4_0_3_1,NA,NA,completion,9825.551,1934130.6,1934128.189,1934144.466,1943970.017,1943977.1,2023-04-11T16:10:00Z,1943986.108,NULL,Vergnügen,kichekesho,s,dubwana,mpanuko,mtesaji,NA,sd,NA,4,NA,NA,NA,NA,NA,NA,NA,NA,NA,NA,NA,NA,NA,NA,NA,NA,NA,NA,NA
ca4b0,task,flow.Sequence,3_0_4_0_3,NA,NA,completion,9825.551,1934130.3,1934128.189,1934144.466,1943970.017,1943977.4,2023-04-11T16:10:00Z,1943986.108,NULL,Vergnügen,kichekesho,s,dubwana,mpanuko,mtesaji,NA,sd,NA,4,NA,NA,NA,NA,NA,NA,NA,NA,NA,NA,NA,NA,NA,NA,NA,NA,NA,NA,NA
ca4b0,Deep Question,html.Page,3_0_4_0_4_0_0,NA,NA,form submission,3837.7920000358,1943977.7,1943970.017,1943986.108,1947823.9,1947824.2,2023-04-11T16:10:03Z,1947832.945,NULL,Verstand,ufahamivu,d,NA,NA,NA,h,NA,NA,4,NA,NA,NA,NA,NA,NA,NA,NA,NA,NA,NA,NA,NA,NA,NA,NA,NA,NA,NA
ca4b0,"""Richtig""-Screen",canvas.Screen,3_0_4_0_4_0_1,NA,NA,skipped,NA,1947826,NA,NA,1947823.9,1947826.2,2023-04-11T16:10:03Z,1947832.945,NULL,Verstand,ufahamivu,d,NA,NA,NA,NA,sd,NA,4,NA,NA,NA,NA,NA,NA,NA,NA,NA,NA,NA,NA,NA,NA,NA,NA,NA,NA,NA
ca4b0,"""Falsch""-Screen",canvas.Screen,3_0_4_0_4_0_2,NA,NA,timeout,4996.2959999999,1947826.8,1947816.875,1947832.945,1952812.749,1952813.6,2023-04-11T16:10:08Z,1952829.241,NULL,Verstand,ufahamivu,d,NA,NA,NA,NA,sd,0,4,NA,NA,NA,NA,NA,NA,NA,NA,NA,NA,NA,NA,NA,NA,NA,NA,NA,NA,NA
ca4b0,deep,flow.Sequence,3_0_4_0_4_0,NA,NA,completion,8826.6410000001,1943977.6,1943970.017,1943986.108,1952812.749,1952813.9,2023-04-11T16:10:08Z,1952829.241,NULL,Verstand,ufahamivu,d,NA,NA,NA,NA,sd,NA,4,NA,NA,NA,NA,NA,NA,NA,NA,NA,NA,NA,NA,NA,NA,NA,NA,NA,NA,NA
ca4b0,shallow,flow.Sequence,3_0_4_0_4_1,NA,NA,skipped,NA,1952814.2,NA,NA,1952812.749,1952814.3,2023-04-11T16:10:08Z,1952829.241,NULL,Verstand,ufahamivu,d,NA,NA,NA,NA,sd,NA,4,NA,NA,NA,NA,NA,NA,NA,NA,NA,NA,NA,NA,NA,NA,NA,NA,NA,NA,NA
ca4b0,task,flow.Sequence,3_0_4_0_4,NA,NA,completion,8826.6410000001,1943977.5,1943970.017,1943986.108,1952812.749,1952814.6,2023-04-11T16:10:08Z,1952829.241,NULL,Verstand,ufahamivu,d,NA,NA,NA,NA,sd,NA,4,NA,NA,NA,NA,NA,NA,NA,NA,NA,NA,NA,NA,NA,NA,NA,NA,NA,NA,NA
ca4b0,deep,flow.Sequence,3_0_4_0_5_0,NA,NA,skipped,NA,1952814.7,NA,NA,1952812.749,1952814.9,2023-04-11T16:10:08Z,1952829.241,NULL,Gelegenheit,wakati,s,mchanganyiko,kipaumbele,kushuku,NA,sd,NA,4,NA,NA,NA,NA,NA,NA,NA,NA,NA,NA,NA,NA,NA,NA,NA,NA,NA,NA,NA
ca4b0,Shallow Question,html.Page,3_0_4_0_5_1_0,NA,NA,form submission,5155.1590000358,1952815,1952812.749,1952829.241,1957984.4,1957984.6,2023-04-11T16:10:14Z,1957991.424,NULL,Gelegenheit,wakati,s,mchanganyiko,kipaumbele,kushuku,wakati,NA,NA,4,NA,NA,NA,NA,NA,NA,NA,NA,NA,NA,NA,NA,NA,NA,NA,NA,NA,NA,NA
ca4b0,"""Richtig""-Screen",canvas.Screen,3_0_4_0_5_1_1,NA,NA,timeout,4995.7759999998,1957986.4,1957975.177,1957991.424,1962971.022,1962971.9,2023-04-11T16:10:19Z,1962987.2,NULL,Gelegenheit,wakati,s,mchanganyiko,kipaumbele,kushuku,NA,sd,1,4,NA,NA,NA,NA,NA,NA,NA,NA,NA,NA,NA,NA,NA,NA,NA,NA,NA,NA,NA
ca4b0,"""Falsch""-Screen",canvas.Screen,3_0_4_0_5_1_2,NA,NA,skipped,NA,1962977.3,NA,NA,1962971.022,1962977.7,2023-04-11T16:10:19Z,1962987.2,NULL,Gelegenheit,wakati,s,mchanganyiko,kipaumbele,kushuku,NA,sd,NA,4,NA,NA,NA,NA,NA,NA,NA,NA,NA,NA,NA,NA,NA,NA,NA,NA,NA,NA,NA
ca4b0,shallow,flow.Sequence,3_0_4_0_5_1,NA,NA,completion,10141.781,1952814.9,1952812.749,1952829.241,1962971.022,1962978,2023-04-11T16:10:19Z,1962987.2,NULL,Gelegenheit,wakati,s,mchanganyiko,kipaumbele,kushuku,NA,sd,NA,4,NA,NA,NA,NA,NA,NA,NA,NA,NA,NA,NA,NA,NA,NA,NA,NA,NA,NA,NA
ca4b0,task,flow.Sequence,3_0_4_0_5,NA,NA,completion,10141.781,1952814.6,1952812.749,1952829.241,1962971.022,1962978.3,2023-04-11T16:10:19Z,1962987.2,NULL,Gelegenheit,wakati,s,mchanganyiko,kipaumbele,kushuku,NA,sd,NA,4,NA,NA,NA,NA,NA,NA,NA,NA,NA,NA,NA,NA,NA,NA,NA,NA,NA,NA,NA
ca4b0,deep,flow.Sequence,3_0_4_0_6_0,NA,NA,skipped,NA,1962978.5,NA,NA,1962971.022,1962978.7,2023-04-11T16:10:19Z,1962987.2,NULL,Ausschluss,kutengwa,s,ununuzi,taratibu,madeni,NA,sd,NA,4,NA,NA,NA,NA,NA,NA,NA,NA,NA,NA,NA,NA,NA,NA,NA,NA,NA,NA,NA
ca4b0,Shallow Question,html.Page,3_0_4_0_6_1_0,NA,NA,form submission,5311.3,1962978.8,1962971.022,1962987.2,1968298.5,1968298.7,2023-04-11T16:10:24Z,1968299.478,NULL,Ausschluss,kutengwa,s,ununuzi,taratibu,madeni,kutengwa,NA,NA,4,NA,NA,NA,NA,NA,NA,NA,NA,NA,NA,NA,NA,NA,NA,NA,NA,NA,NA,NA
ca4b0,"""Richtig""-Screen",canvas.Screen,3_0_4_0_6_1_1,NA,NA,timeout,4995.9670000002,1968300.7,1968283.376,1968299.478,1973279.398,1973280.5,2023-04-11T16:10:29Z,1973295.445,NULL,Ausschluss,kutengwa,s,ununuzi,taratibu,madeni,NA,sd,1,4,NA,NA,NA,NA,NA,NA,NA,NA,NA,NA,NA,NA,NA,NA,NA,NA,NA,NA,NA
ca4b0,"""Falsch""-Screen",canvas.Screen,3_0_4_0_6_1_2,NA,NA,skipped,NA,1973285.6,NA,NA,1973279.398,1973286,2023-04-11T16:10:29Z,1973295.445,NULL,Ausschluss,kutengwa,s,ununuzi,taratibu,madeni,NA,sd,NA,4,NA,NA,NA,NA,NA,NA,NA,NA,NA,NA,NA,NA,NA,NA,NA,NA,NA,NA,NA
ca4b0,shallow,flow.Sequence,3_0_4_0_6_1,NA,NA,completion,10292.198,1962978.8,1962971.022,1962987.2,1973279.398,1973286.3,2023-04-11T16:10:29Z,1973295.445,NULL,Ausschluss,kutengwa,s,ununuzi,taratibu,madeni,NA,sd,NA,4,NA,NA,NA,NA,NA,NA,NA,NA,NA,NA,NA,NA,NA,NA,NA,NA,NA,NA,NA
ca4b0,task,flow.Sequence,3_0_4_0_6,NA,NA,completion,10292.198,1962978.5,1962971.022,1962987.2,1973279.398,1973286.5,2023-04-11T16:10:29Z,1973295.445,NULL,Ausschluss,kutengwa,s,ununuzi,taratibu,madeni,NA,sd,NA,4,NA,NA,NA,NA,NA,NA,NA,NA,NA,NA,NA,NA,NA,NA,NA,NA,NA,NA,NA
ca4b0,Deep Question,html.Page,3_0_4_0_7_0_0,NA,NA,form submission,3244.3550000119,1973286.8,1973279.398,1973295.445,1976539.8,1976540.1,2023-04-11T16:10:32Z,1976542.674,NULL,Ergänzung,kijalizo,d,NA,NA,NA,h,NA,NA,4,NA,NA,NA,NA,NA,NA,NA,NA,NA,NA,NA,NA,NA,NA,NA,NA,NA,NA,NA
ca4b0,"""Richtig""-Screen",canvas.Screen,3_0_4_0_7_0_1,NA,NA,skipped,NA,1976542.2,NA,NA,1976539.8,1976542.3,2023-04-11T16:10:32Z,1976542.674,NULL,Ergänzung,kijalizo,d,NA,NA,NA,NA,sd,NA,4,NA,NA,NA,NA,NA,NA,NA,NA,NA,NA,NA,NA,NA,NA,NA,NA,NA,NA,NA
ca4b0,"""Falsch""-Screen",canvas.Screen,3_0_4_0_7_0_2,NA,NA,timeout,4996.0399999998,1976543,1976526.655,1976542.674,1981522.023,1981526.4,2023-04-11T16:10:37Z,1981538.714,NULL,Ergänzung,kijalizo,d,NA,NA,NA,NA,sd,0,4,NA,NA,NA,NA,NA,NA,NA,NA,NA,NA,NA,NA,NA,NA,NA,NA,NA,NA,NA
ca4b0,deep,flow.Sequence,3_0_4_0_7_0,NA,NA,completion,8226.578,1973286.8,1973279.398,1973295.445,1981522.023,1981526.9,2023-04-11T16:10:37Z,1981538.714,NULL,Ergänzung,kijalizo,d,NA,NA,NA,NA,sd,NA,4,NA,NA,NA,NA,NA,NA,NA,NA,NA,NA,NA,NA,NA,NA,NA,NA,NA,NA,NA
ca4b0,shallow,flow.Sequence,3_0_4_0_7_1,NA,NA,skipped,NA,1981527,NA,NA,1981522.023,1981527.2,2023-04-11T16:10:37Z,1981538.714,NULL,Ergänzung,kijalizo,d,NA,NA,NA,NA,sd,NA,4,NA,NA,NA,NA,NA,NA,NA,NA,NA,NA,NA,NA,NA,NA,NA,NA,NA,NA,NA
ca4b0,task,flow.Sequence,3_0_4_0_7,NA,NA,completion,8226.578,1973286.6,1973279.398,1973295.445,1981522.023,1981527.4,2023-04-11T16:10:37Z,1981538.714,NULL,Ergänzung,kijalizo,d,NA,NA,NA,NA,sd,NA,4,NA,NA,NA,NA,NA,NA,NA,NA,NA,NA,NA,NA,NA,NA,NA,NA,NA,NA,NA
ca4b0,block,flow.Loop,3_0_4_0,NA,NA,completion,80517.235,1900999,1900988.541,1901004.788,1981522.023,1981527.7,2023-04-11T16:10:37Z,1981538.714,NULL,NA,NA,NA,NA,NA,NA,NA,sd,NA,4,NA,NA,NA,NA,NA,NA,NA,NA,NA,NA,NA,NA,NA,NA,NA,NA,NA,NA,NA
ca4b0,weiter,canvas.Screen,3_0_4_1,sdf,keypress(Space),response,1117.2860000001,1981527.9,1981522.023,1981538.714,1982656,1982657.4,2023-04-11T16:10:38Z,1982737.692,NULL,NA,NA,NA,NA,NA,NA,NA,sd,NA,4,NA,NA,NA,NA,NA,NA,NA,NA,NA,NA,NA,NA,NA,NA,NA,NA,NA,NA,NA
ca4b0,check continue,flow.Sequence,3_0_4,NA,NA,completion,81651.212,1900998.9,1900988.541,1901004.788,1982656,1982657.9,2023-04-11T16:10:38Z,1982737.692,NULL,NA,NA,NA,NA,NA,NA,NA,sd,NA,4,NA,NA,NA,NA,NA,NA,NA,NA,NA,NA,NA,NA,NA,NA,NA,NA,NA,NA,NA
ca4b0,deep,flow.Sequence,3_0_5_0_0_0,NA,NA,skipped,NA,1982733.6,NA,NA,1982656,1982733.9,2023-04-11T16:10:38Z,1982737.692,NULL,Ausschluss,kutengwa,s,ununuzi,taratibu,madeni,NA,sdf,NA,5,NA,NA,NA,NA,NA,NA,NA,NA,NA,NA,NA,NA,NA,NA,NA,NA,NA,NA,NA
ca4b0,Shallow Question,html.Page,3_0_5_0_0_1_0,NA,NA,form submission,5980.808,1982734.1,1982721.513,1982737.692,1988718.5,1988718.6,2023-04-11T16:10:44Z,1988733.228,NULL,Ausschluss,kutengwa,s,ununuzi,taratibu,madeni,kutengwa,NA,NA,5,NA,NA,NA,NA,NA,NA,NA,NA,NA,NA,NA,NA,NA,NA,NA,NA,NA,NA,NA
ca4b0,"""Richtig""-Screen",canvas.Screen,3_0_5_0_0_1_1,NA,NA,timeout,4995.3970000001,1988720.5,1988716.613,1988733.228,1993712.021,1993712.7,2023-04-11T16:10:49Z,1993728.625,NULL,Ausschluss,kutengwa,s,ununuzi,taratibu,madeni,NA,sdf,1,5,NA,NA,NA,NA,NA,NA,NA,NA,NA,NA,NA,NA,NA,NA,NA,NA,NA,NA,NA
ca4b0,"""Falsch""-Screen",canvas.Screen,3_0_5_0_0_1_2,NA,NA,skipped,NA,1993717.9,NA,NA,1993712.021,1993718.1,2023-04-11T16:10:49Z,1993728.625,NULL,Ausschluss,kutengwa,s,ununuzi,taratibu,madeni,NA,sdf,NA,5,NA,NA,NA,NA,NA,NA,NA,NA,NA,NA,NA,NA,NA,NA,NA,NA,NA,NA,NA
ca4b0,shallow,flow.Sequence,3_0_5_0_0_1,NA,NA,completion,10974.329,1982734.1,1982721.513,1982737.692,1993712.021,1993718.5,2023-04-11T16:10:49Z,1993728.625,NULL,Ausschluss,kutengwa,s,ununuzi,taratibu,madeni,NA,sdf,NA,5,NA,NA,NA,NA,NA,NA,NA,NA,NA,NA,NA,NA,NA,NA,NA,NA,NA,NA,NA
ca4b0,task,flow.Sequence,3_0_5_0_0,NA,NA,completion,10974.329,1982733.6,1982721.513,1982737.692,1993712.021,1993718.8,2023-04-11T16:10:49Z,1993728.625,NULL,Ausschluss,kutengwa,s,ununuzi,taratibu,madeni,NA,sdf,NA,5,NA,NA,NA,NA,NA,NA,NA,NA,NA,NA,NA,NA,NA,NA,NA,NA,NA,NA,NA
ca4b0,deep,flow.Sequence,3_0_5_0_1_0,NA,NA,skipped,NA,1993719,NA,NA,1993712.021,1993719.2,2023-04-11T16:10:49Z,1993728.625,NULL,Notfall,dharura,s,rairai,malalamiko,ahueni,NA,sdf,NA,5,NA,NA,NA,NA,NA,NA,NA,NA,NA,NA,NA,NA,NA,NA,NA,NA,NA,NA,NA
ca4b0,Shallow Question,html.Page,3_0_5_0_1_1_0,NA,NA,form submission,5959.2750000358,1993719.3,1993712.021,1993728.625,1999687.9,1999688.2,2023-04-11T16:10:55Z,1999690.377,NULL,Notfall,dharura,s,rairai,malalamiko,ahueni,dharura,NA,NA,5,NA,NA,NA,NA,NA,NA,NA,NA,NA,NA,NA,NA,NA,NA,NA,NA,NA,NA,NA
ca4b0,"""Richtig""-Screen",canvas.Screen,3_0_5_0_1_1_1,NA,NA,timeout,4995.9199999999,1999691.1,1999673.685,1999690.377,2004669.638,2004670.1,2023-04-11T16:11:00Z,2004686.297,NULL,Notfall,dharura,s,rairai,malalamiko,ahueni,NA,sdf,1,5,NA,NA,NA,NA,NA,NA,NA,NA,NA,NA,NA,NA,NA,NA,NA,NA,NA,NA,NA
ca4b0,"""Falsch""-Screen",canvas.Screen,3_0_5_0_1_1_2,NA,NA,skipped,NA,2004673.4,NA,NA,2004669.638,2004673.7,2023-04-11T16:11:00Z,2004686.297,NULL,Notfall,dharura,s,rairai,malalamiko,ahueni,NA,sdf,NA,5,NA,NA,NA,NA,NA,NA,NA,NA,NA,NA,NA,NA,NA,NA,NA,NA,NA,NA,NA
ca4b0,shallow,flow.Sequence,3_0_5_0_1_1,NA,NA,completion,10941.013,1993719.3,1993712.021,1993728.625,2004669.638,2004674,2023-04-11T16:11:00Z,2004686.297,NULL,Notfall,dharura,s,rairai,malalamiko,ahueni,NA,sdf,NA,5,NA,NA,NA,NA,NA,NA,NA,NA,NA,NA,NA,NA,NA,NA,NA,NA,NA,NA,NA
ca4b0,task,flow.Sequence,3_0_5_0_1,NA,NA,completion,10941.013,1993718.9,1993712.021,1993728.625,2004669.638,2004674.1,2023-04-11T16:11:00Z,2004686.297,NULL,Notfall,dharura,s,rairai,malalamiko,ahueni,NA,sdf,NA,5,NA,NA,NA,NA,NA,NA,NA,NA,NA,NA,NA,NA,NA,NA,NA,NA,NA,NA,NA
ca4b0,Deep Question,html.Page,3_0_5_0_2_0_0,NA,NA,form submission,9191.703,2004674.3,2004669.638,2004686.297,2013878,2013878.1,2023-04-11T16:11:10Z,2013878.722,NULL,Verstand,ufahamivu,d,NA,NA,NA,h,NA,NA,5,NA,NA,NA,NA,NA,NA,NA,NA,NA,NA,NA,NA,NA,NA,NA,NA,NA,NA,NA
ca4b0,"""Richtig""-Screen",canvas.Screen,3_0_5_0_2_0_1,NA,NA,skipped,NA,2013880.7,NA,NA,2013878,2013880.8,2023-04-11T16:11:10Z,2013878.722,NULL,Verstand,ufahamivu,d,NA,NA,NA,NA,sdf,NA,5,NA,NA,NA,NA,NA,NA,NA,NA,NA,NA,NA,NA,NA,NA,NA,NA,NA,NA,NA
ca4b0,"""Falsch""-Screen",canvas.Screen,3_0_5_0_2_0_2,NA,NA,timeout,4996.4939999999,2013881.8,2013862.774,2013878.722,2018858.544,2018859.4,2023-04-11T16:11:15Z,2018875.216,NULL,Verstand,ufahamivu,d,NA,NA,NA,NA,sdf,0,5,NA,NA,NA,NA,NA,NA,NA,NA,NA,NA,NA,NA,NA,NA,NA,NA,NA,NA,NA
ca4b0,deep,flow.Sequence,3_0_5_0_2_0,NA,NA,completion,14172.247,2004674.3,2004669.638,2004686.297,2018858.544,2018859.9,2023-04-11T16:11:15Z,2018875.216,NULL,Verstand,ufahamivu,d,NA,NA,NA,NA,sdf,NA,5,NA,NA,NA,NA,NA,NA,NA,NA,NA,NA,NA,NA,NA,NA,NA,NA,NA,NA,NA
ca4b0,shallow,flow.Sequence,3_0_5_0_2_1,NA,NA,skipped,NA,2018860,NA,NA,2018858.544,2018860.2,2023-04-11T16:11:15Z,2018875.216,NULL,Verstand,ufahamivu,d,NA,NA,NA,NA,sdf,NA,5,NA,NA,NA,NA,NA,NA,NA,NA,NA,NA,NA,NA,NA,NA,NA,NA,NA,NA,NA
ca4b0,task,flow.Sequence,3_0_5_0_2,NA,NA,completion,14172.247,2004674.3,2004669.638,2004686.297,2018858.544,2018860.5,2023-04-11T16:11:15Z,2018875.216,NULL,Verstand,ufahamivu,d,NA,NA,NA,NA,sdf,NA,5,NA,NA,NA,NA,NA,NA,NA,NA,NA,NA,NA,NA,NA,NA,NA,NA,NA,NA,NA
ca4b0,Deep Question,html.Page,3_0_5_0_3_0_0,NA,NA,form submission,12988.284,2018860.7,2018858.544,2018875.216,2031863.5,2031863.7,2023-04-11T16:11:28Z,2031863.97,NULL,Wohlstand,mafanikio,d,NA,NA,NA,mafakiko,NA,NA,5,NA,NA,NA,NA,NA,NA,NA,NA,NA,NA,NA,NA,NA,NA,NA,NA,NA,NA,NA
ca4b0,"""Richtig""-Screen",canvas.Screen,3_0_5_0_3_0_1,NA,NA,skipped,NA,2031866.9,NA,NA,2031863.5,2031867.1,2023-04-11T16:11:28Z,2031863.97,NULL,Wohlstand,mafanikio,d,NA,NA,NA,NA,sdf,NA,5,NA,NA,NA,NA,NA,NA,NA,NA,NA,NA,NA,NA,NA,NA,NA,NA,NA,NA,NA
ca4b0,"""Falsch""-Screen",canvas.Screen,3_0_5_0_3_0_2,NA,NA,timeout,4995.9369999999,2031867.9,2031847.353,2031863.97,2036843.543,2036844.4,2023-04-11T16:11:33Z,2036859.907,NULL,Wohlstand,mafanikio,d,NA,NA,NA,NA,sdf,0,5,NA,NA,NA,NA,NA,NA,NA,NA,NA,NA,NA,NA,NA,NA,NA,NA,NA,NA,NA
ca4b0,deep,flow.Sequence,3_0_5_0_3_0,NA,NA,completion,17968.327,2018860.6,2018858.544,2018875.216,2036843.543,2036844.8,2023-04-11T16:11:33Z,2036859.907,NULL,Wohlstand,mafanikio,d,NA,NA,NA,NA,sdf,NA,5,NA,NA,NA,NA,NA,NA,NA,NA,NA,NA,NA,NA,NA,NA,NA,NA,NA,NA,NA
ca4b0,shallow,flow.Sequence,3_0_5_0_3_1,NA,NA,skipped,NA,2036845,NA,NA,2036843.543,2036845.2,2023-04-11T16:11:33Z,2036859.907,NULL,Wohlstand,mafanikio,d,NA,NA,NA,NA,sdf,NA,5,NA,NA,NA,NA,NA,NA,NA,NA,NA,NA,NA,NA,NA,NA,NA,NA,NA,NA,NA
ca4b0,task,flow.Sequence,3_0_5_0_3,NA,NA,completion,17968.327,2018860.6,2018858.544,2018875.216,2036843.543,2036845.4,2023-04-11T16:11:33Z,2036859.907,NULL,Wohlstand,mafanikio,d,NA,NA,NA,NA,sdf,NA,5,NA,NA,NA,NA,NA,NA,NA,NA,NA,NA,NA,NA,NA,NA,NA,NA,NA,NA,NA
ca4b0,deep,flow.Sequence,3_0_5_0_4_0,NA,NA,skipped,NA,2036845.6,NA,NA,2036843.543,2036845.7,2023-04-11T16:11:33Z,2036859.907,NULL,Gelegenheit,wakati,s,mchanganyiko,kipaumbele,kushuku,NA,sdf,NA,5,NA,NA,NA,NA,NA,NA,NA,NA,NA,NA,NA,NA,NA,NA,NA,NA,NA,NA,NA
ca4b0,Shallow Question,html.Page,3_0_5_0_4_1_0,NA,NA,form submission,5683.9930000359,2036845.8,2036843.543,2036859.907,2042543.9,2042544,2023-04-11T16:11:38Z,2042555.449,NULL,Gelegenheit,wakati,s,mchanganyiko,kipaumbele,kushuku,wakati,NA,NA,5,NA,NA,NA,NA,NA,NA,NA,NA,NA,NA,NA,NA,NA,NA,NA,NA,NA,NA,NA
ca4b0,"""Richtig""-Screen",canvas.Screen,3_0_5_0_4_1_1,NA,NA,timeout,4995.7619999999,2042546,2042539.082,2042555.449,2047535.113,2047536.1,2023-04-11T16:11:43Z,2047551.211,NULL,Gelegenheit,wakati,s,mchanganyiko,kipaumbele,kushuku,NA,sdf,1,5,NA,NA,NA,NA,NA,NA,NA,NA,NA,NA,NA,NA,NA,NA,NA,NA,NA,NA,NA
ca4b0,"""Falsch""-Screen",canvas.Screen,3_0_5_0_4_1_2,NA,NA,skipped,NA,2047541.4,NA,NA,2047535.113,2047541.9,2023-04-11T16:11:43Z,2047551.211,NULL,Gelegenheit,wakati,s,mchanganyiko,kipaumbele,kushuku,NA,sdf,NA,5,NA,NA,NA,NA,NA,NA,NA,NA,NA,NA,NA,NA,NA,NA,NA,NA,NA,NA,NA
ca4b0,shallow,flow.Sequence,3_0_5_0_4_1,NA,NA,completion,10675.206,2036845.8,2036843.543,2036859.907,2047535.113,2047542.2,2023-04-11T16:11:43Z,2047551.211,NULL,Gelegenheit,wakati,s,mchanganyiko,kipaumbele,kushuku,NA,sdf,NA,5,NA,NA,NA,NA,NA,NA,NA,NA,NA,NA,NA,NA,NA,NA,NA,NA,NA,NA,NA
ca4b0,task,flow.Sequence,3_0_5_0_4,NA,NA,completion,10675.206,2036845.6,2036843.543,2036859.907,2047535.113,2047542.4,2023-04-11T16:11:43Z,2047551.211,NULL,Gelegenheit,wakati,s,mchanganyiko,kipaumbele,kushuku,NA,sdf,NA,5,NA,NA,NA,NA,NA,NA,NA,NA,NA,NA,NA,NA,NA,NA,NA,NA,NA,NA,NA
ca4b0,Deep Question,html.Page,3_0_5_0_5_0_0,NA,NA,form submission,5838.3890000239,2047542.7,2047535.113,2047551.211,2053389.6,2053389.8,2023-04-11T16:11:49Z,2053396.256,NULL,Ergänzung,kijalizo,d,NA,NA,NA,kji,NA,NA,5,NA,NA,NA,NA,NA,NA,NA,NA,NA,NA,NA,NA,NA,NA,NA,NA,NA,NA,NA
ca4b0,"""Richtig""-Screen",canvas.Screen,3_0_5_0_5_0_1,NA,NA,skipped,NA,2053391.5,NA,NA,2053389.6,2053391.8,2023-04-11T16:11:49Z,2053396.256,NULL,Ergänzung,kijalizo,d,NA,NA,NA,NA,sdf,NA,5,NA,NA,NA,NA,NA,NA,NA,NA,NA,NA,NA,NA,NA,NA,NA,NA,NA,NA,NA
ca4b0,"""Falsch""-Screen",canvas.Screen,3_0_5_0_5_0_2,NA,NA,timeout,4996.513,2053392.7,2053380.229,2053396.256,2058376.124,2058377.1,2023-04-11T16:11:54Z,2058392.769,NULL,Ergänzung,kijalizo,d,NA,NA,NA,NA,sdf,0,5,NA,NA,NA,NA,NA,NA,NA,NA,NA,NA,NA,NA,NA,NA,NA,NA,NA,NA,NA
ca4b0,deep,flow.Sequence,3_0_5_0_5_0,NA,NA,completion,10824.913,2047542.7,2047535.113,2047551.211,2058376.124,2058377.5,2023-04-11T16:11:54Z,2058392.769,NULL,Ergänzung,kijalizo,d,NA,NA,NA,NA,sdf,NA,5,NA,NA,NA,NA,NA,NA,NA,NA,NA,NA,NA,NA,NA,NA,NA,NA,NA,NA,NA
ca4b0,shallow,flow.Sequence,3_0_5_0_5_1,NA,NA,skipped,NA,2058377.6,NA,NA,2058376.124,2058377.8,2023-04-11T16:11:54Z,2058392.769,NULL,Ergänzung,kijalizo,d,NA,NA,NA,NA,sdf,NA,5,NA,NA,NA,NA,NA,NA,NA,NA,NA,NA,NA,NA,NA,NA,NA,NA,NA,NA,NA
ca4b0,task,flow.Sequence,3_0_5_0_5,NA,NA,completion,10824.913,2047542.6,2047535.113,2047551.211,2058376.124,2058378.1,2023-04-11T16:11:54Z,2058392.769,NULL,Ergänzung,kijalizo,d,NA,NA,NA,NA,sdf,NA,5,NA,NA,NA,NA,NA,NA,NA,NA,NA,NA,NA,NA,NA,NA,NA,NA,NA,NA,NA
ca4b0,Deep Question,html.Page,3_0_5_0_6_0_0,NA,NA,form submission,9472.8310000238,2058378.3,2058376.124,2058392.769,2067865.6,2067865.8,2023-04-11T16:12:04Z,2067867.719,NULL,Widerstand,usulubu,d,NA,NA,NA,unulu,NA,NA,5,NA,NA,NA,NA,NA,NA,NA,NA,NA,NA,NA,NA,NA,NA,NA,NA,NA,NA,NA
ca4b0,"""Richtig""-Screen",canvas.Screen,3_0_5_0_6_0_1,NA,NA,skipped,NA,2067867.9,NA,NA,2067865.6,2067868.1,2023-04-11T16:12:04Z,2067867.719,NULL,Widerstand,usulubu,d,NA,NA,NA,NA,sdf,NA,5,NA,NA,NA,NA,NA,NA,NA,NA,NA,NA,NA,NA,NA,NA,NA,NA,NA,NA,NA
ca4b0,"""Falsch""-Screen",canvas.Screen,3_0_5_0_6_0_2,NA,NA,timeout,4995.9720000001,2067869,2067851.682,2067867.719,2072847.574,2072848.4,2023-04-11T16:12:09Z,2072863.691,NULL,Widerstand,usulubu,d,NA,NA,NA,NA,sdf,0,5,NA,NA,NA,NA,NA,NA,NA,NA,NA,NA,NA,NA,NA,NA,NA,NA,NA,NA,NA
ca4b0,deep,flow.Sequence,3_0_5_0_6_0,NA,NA,completion,14454.805,2058378.3,2058376.124,2058392.769,2072847.574,2072848.9,2023-04-11T16:12:09Z,2072863.691,NULL,Widerstand,usulubu,d,NA,NA,NA,NA,sdf,NA,5,NA,NA,NA,NA,NA,NA,NA,NA,NA,NA,NA,NA,NA,NA,NA,NA,NA,NA,NA
ca4b0,shallow,flow.Sequence,3_0_5_0_6_1,NA,NA,skipped,NA,2072849,NA,NA,2072847.574,2072849.3,2023-04-11T16:12:09Z,2072863.691,NULL,Widerstand,usulubu,d,NA,NA,NA,NA,sdf,NA,5,NA,NA,NA,NA,NA,NA,NA,NA,NA,NA,NA,NA,NA,NA,NA,NA,NA,NA,NA
ca4b0,task,flow.Sequence,3_0_5_0_6,NA,NA,completion,14454.805,2058378.2,2058376.124,2058392.769,2072847.574,2072849.5,2023-04-11T16:12:09Z,2072863.691,NULL,Widerstand,usulubu,d,NA,NA,NA,NA,sdf,NA,5,NA,NA,NA,NA,NA,NA,NA,NA,NA,NA,NA,NA,NA,NA,NA,NA,NA,NA,NA
ca4b0,deep,flow.Sequence,3_0_5_0_7_0,NA,NA,skipped,NA,2072849.7,NA,NA,2072847.574,2072849.8,2023-04-11T16:12:09Z,2072863.691,NULL,Vergnügen,kichekesho,s,dubwana,mpanuko,mtesaji,NA,sdf,NA,5,NA,NA,NA,NA,NA,NA,NA,NA,NA,NA,NA,NA,NA,NA,NA,NA,NA,NA,NA
ca4b0,Shallow Question,html.Page,3_0_5_0_7_1_0,NA,NA,form submission,4471.7090000357,2072850,2072847.574,2072863.691,2077335.4,2077335.5,2023-04-11T16:12:13Z,2077343.457,NULL,Vergnügen,kichekesho,s,dubwana,mpanuko,mtesaji,kichekesho,NA,NA,5,NA,NA,NA,NA,NA,NA,NA,NA,NA,NA,NA,NA,NA,NA,NA,NA,NA,NA,NA
ca4b0,"""Richtig""-Screen",canvas.Screen,3_0_5_0_7_1_1,NA,NA,timeout,4995.7860000001,2077337.5,2077327.295,2077343.457,2082323.134,2082324.1,2023-04-11T16:12:18Z,2082339.243,NULL,Vergnügen,kichekesho,s,dubwana,mpanuko,mtesaji,NA,sdf,1,5,NA,NA,NA,NA,NA,NA,NA,NA,NA,NA,NA,NA,NA,NA,NA,NA,NA,NA,NA
ca4b0,"""Falsch""-Screen",canvas.Screen,3_0_5_0_7_1_2,NA,NA,skipped,NA,2082329.5,NA,NA,2082323.134,2082329.8,2023-04-11T16:12:18Z,2082339.243,NULL,Vergnügen,kichekesho,s,dubwana,mpanuko,mtesaji,NA,sdf,NA,5,NA,NA,NA,NA,NA,NA,NA,NA,NA,NA,NA,NA,NA,NA,NA,NA,NA,NA,NA
ca4b0,shallow,flow.Sequence,3_0_5_0_7_1,NA,NA,completion,9459.443,2072850,2072847.574,2072863.691,2082323.134,2082330.3,2023-04-11T16:12:18Z,2082339.243,NULL,Vergnügen,kichekesho,s,dubwana,mpanuko,mtesaji,NA,sdf,NA,5,NA,NA,NA,NA,NA,NA,NA,NA,NA,NA,NA,NA,NA,NA,NA,NA,NA,NA,NA
ca4b0,task,flow.Sequence,3_0_5_0_7,NA,NA,completion,9459.443,2072849.6,2072847.574,2072863.691,2082323.134,2082330.5,2023-04-11T16:12:18Z,2082339.243,NULL,Vergnügen,kichekesho,s,dubwana,mpanuko,mtesaji,NA,sdf,NA,5,NA,NA,NA,NA,NA,NA,NA,NA,NA,NA,NA,NA,NA,NA,NA,NA,NA,NA,NA
ca4b0,block,flow.Loop,3_0_5_0,NA,NA,completion,99585.442,1982733.6,1982721.513,1982737.692,2082323.134,2082330.8,2023-04-11T16:12:18Z,2082339.243,NULL,NA,NA,NA,NA,NA,NA,NA,sdf,NA,5,NA,NA,NA,NA,NA,NA,NA,NA,NA,NA,NA,NA,NA,NA,NA,NA,NA,NA,NA
ca4b0,weiter,canvas.Screen,3_0_5_1,sdf,keypress(Space),response,1378.5570000119,2082330.9,2082323.134,2082339.243,2083717.8,2083719.1,2023-04-11T16:12:19Z,2083838.101,NULL,NA,NA,NA,NA,NA,NA,NA,sdf,NA,5,NA,NA,NA,NA,NA,NA,NA,NA,NA,NA,NA,NA,NA,NA,NA,NA,NA,NA,NA
ca4b0,check continue,flow.Sequence,3_0_5,NA,NA,completion,100980.10800001,1982733.5,1982721.513,1982737.692,2083717.8,2083719.6,2023-04-11T16:12:19Z,2083838.101,NULL,NA,NA,NA,NA,NA,NA,NA,sdf,NA,5,NA,NA,NA,NA,NA,NA,NA,NA,NA,NA,NA,NA,NA,NA,NA,NA,NA,NA,NA
ca4b0,Deep Question,html.Page,3_0_6_0_0_0_0,NA,NA,form submission,8670.399,2083821.6,2083821.472,2083838.101,2092508.5,2092508.6,2023-04-11T16:12:28Z,2092514.181,NULL,Widerstand,usulubu,d,NA,NA,NA,usulubu,NA,NA,6,NA,NA,NA,NA,NA,NA,NA,NA,NA,NA,NA,NA,NA,NA,NA,NA,NA,NA,NA
ca4b0,"""Richtig""-Screen",canvas.Screen,3_0_6_0_0_0_1,NA,NA,timeout,4995.9280000001,2092511.4,2092498.182,2092514.181,2097494.011,2097495,2023-04-11T16:12:33Z,2097510.109,NULL,Widerstand,usulubu,d,NA,NA,NA,NA,dfs,1,6,NA,NA,NA,NA,NA,NA,NA,NA,NA,NA,NA,NA,NA,NA,NA,NA,NA,NA,NA
ca4b0,"""Falsch""-Screen",canvas.Screen,3_0_6_0_0_0_2,NA,NA,skipped,NA,2097500.5,NA,NA,2097494.011,2097500.8,2023-04-11T16:12:33Z,2097510.109,NULL,Widerstand,usulubu,d,NA,NA,NA,NA,dfs,NA,6,NA,NA,NA,NA,NA,NA,NA,NA,NA,NA,NA,NA,NA,NA,NA,NA,NA,NA,NA
ca4b0,deep,flow.Sequence,3_0_6_0_0_0,NA,NA,completion,13655.91,2083821.6,2083821.472,2083838.101,2097494.011,2097501.2,2023-04-11T16:12:33Z,2097510.109,NULL,Widerstand,usulubu,d,NA,NA,NA,NA,dfs,NA,6,NA,NA,NA,NA,NA,NA,NA,NA,NA,NA,NA,NA,NA,NA,NA,NA,NA,NA,NA
ca4b0,shallow,flow.Sequence,3_0_6_0_0_1,NA,NA,skipped,NA,2097501.4,NA,NA,2097494.011,2097501.6,2023-04-11T16:12:33Z,2097510.109,NULL,Widerstand,usulubu,d,NA,NA,NA,NA,dfs,NA,6,NA,NA,NA,NA,NA,NA,NA,NA,NA,NA,NA,NA,NA,NA,NA,NA,NA,NA,NA
ca4b0,task,flow.Sequence,3_0_6_0_0,NA,NA,completion,13655.91,2083821.6,2083821.472,2083838.101,2097494.011,2097501.7,2023-04-11T16:12:33Z,2097510.109,NULL,Widerstand,usulubu,d,NA,NA,NA,NA,dfs,NA,6,NA,NA,NA,NA,NA,NA,NA,NA,NA,NA,NA,NA,NA,NA,NA,NA,NA,NA,NA
ca4b0,Deep Question,html.Page,3_0_6_0_1_0_0,NA,NA,form submission,5235.8909999998,2097502,2097494.011,2097510.109,2102746,2102746.2,2023-04-11T16:12:38Z,2102755.809,NULL,Verstand,ufahamivu,d,NA,NA,NA,m,NA,NA,6,NA,NA,NA,NA,NA,NA,NA,NA,NA,NA,NA,NA,NA,NA,NA,NA,NA,NA,NA
ca4b0,"""Richtig""-Screen",canvas.Screen,3_0_6_0_1_0_1,NA,NA,skipped,NA,2102748.1,NA,NA,2102746,2102748.2,2023-04-11T16:12:38Z,2102755.809,NULL,Verstand,ufahamivu,d,NA,NA,NA,NA,dfs,NA,6,NA,NA,NA,NA,NA,NA,NA,NA,NA,NA,NA,NA,NA,NA,NA,NA,NA,NA,NA
ca4b0,"""Falsch""-Screen",canvas.Screen,3_0_6_0_1_0_2,NA,NA,timeout,4996.2460000003,2102748.7,2102739.714,2102755.809,2107735.596,2107736.5,2023-04-11T16:12:43Z,2107752.055,NULL,Verstand,ufahamivu,d,NA,NA,NA,NA,dfs,0,6,NA,NA,NA,NA,NA,NA,NA,NA,NA,NA,NA,NA,NA,NA,NA,NA,NA,NA,NA
ca4b0,deep,flow.Sequence,3_0_6_0_1_0,NA,NA,completion,10225.487,2097501.9,2097494.011,2097510.109,2107735.596,2107736.9,2023-04-11T16:12:43Z,2107752.055,NULL,Verstand,ufahamivu,d,NA,NA,NA,NA,dfs,NA,6,NA,NA,NA,NA,NA,NA,NA,NA,NA,NA,NA,NA,NA,NA,NA,NA,NA,NA,NA
ca4b0,shallow,flow.Sequence,3_0_6_0_1_1,NA,NA,skipped,NA,2107737.1,NA,NA,2107735.596,2107737.2,2023-04-11T16:12:43Z,2107752.055,NULL,Verstand,ufahamivu,d,NA,NA,NA,NA,dfs,NA,6,NA,NA,NA,NA,NA,NA,NA,NA,NA,NA,NA,NA,NA,NA,NA,NA,NA,NA,NA
ca4b0,task,flow.Sequence,3_0_6_0_1,NA,NA,completion,10225.487,2097501.9,2097494.011,2097510.109,2107735.596,2107737.5,2023-04-11T16:12:43Z,2107752.055,NULL,Verstand,ufahamivu,d,NA,NA,NA,NA,dfs,NA,6,NA,NA,NA,NA,NA,NA,NA,NA,NA,NA,NA,NA,NA,NA,NA,NA,NA,NA,NA
ca4b0,deep,flow.Sequence,3_0_6_0_2_0,NA,NA,skipped,NA,2107737.6,NA,NA,2107735.596,2107737.8,2023-04-11T16:12:43Z,2107752.055,NULL,Gelegenheit,wakati,s,mchanganyiko,kipaumbele,kushuku,NA,dfs,NA,6,NA,NA,NA,NA,NA,NA,NA,NA,NA,NA,NA,NA,NA,NA,NA,NA,NA,NA,NA
ca4b0,Shallow Question,html.Page,3_0_6_0_2_1_0,NA,NA,form submission,6098.5450000237,2107737.9,2107735.596,2107752.055,2113850.6,2113850.8,2023-04-11T16:12:50Z,2113863.889,NULL,Gelegenheit,wakati,s,mchanganyiko,kipaumbele,kushuku,wakati,NA,NA,6,NA,NA,NA,NA,NA,NA,NA,NA,NA,NA,NA,NA,NA,NA,NA,NA,NA,NA,NA
ca4b0,"""Richtig""-Screen",canvas.Screen,3_0_6_0_2_1_1,NA,NA,timeout,4995.3879999998,2113852.6,2113847.237,2113863.889,2118843.156,2118844,2023-04-11T16:12:55Z,2118859.277,NULL,Gelegenheit,wakati,s,mchanganyiko,kipaumbele,kushuku,NA,dfs,1,6,NA,NA,NA,NA,NA,NA,NA,NA,NA,NA,NA,NA,NA,NA,NA,NA,NA,NA,NA
ca4b0,"""Falsch""-Screen",canvas.Screen,3_0_6_0_2_1_2,NA,NA,skipped,NA,2118849.3,NA,NA,2118843.156,2118849.7,2023-04-11T16:12:55Z,2118859.277,NULL,Gelegenheit,wakati,s,mchanganyiko,kipaumbele,kushuku,NA,dfs,NA,6,NA,NA,NA,NA,NA,NA,NA,NA,NA,NA,NA,NA,NA,NA,NA,NA,NA,NA,NA
ca4b0,shallow,flow.Sequence,3_0_6_0_2_1,NA,NA,completion,11091.101,2107737.9,2107735.596,2107752.055,2118843.156,2118850.1,2023-04-11T16:12:55Z,2118859.277,NULL,Gelegenheit,wakati,s,mchanganyiko,kipaumbele,kushuku,NA,dfs,NA,6,NA,NA,NA,NA,NA,NA,NA,NA,NA,NA,NA,NA,NA,NA,NA,NA,NA,NA,NA
ca4b0,task,flow.Sequence,3_0_6_0_2,NA,NA,completion,11091.101,2107737.6,2107735.596,2107752.055,2118843.156,2118850.4,2023-04-11T16:12:55Z,2118859.277,NULL,Gelegenheit,wakati,s,mchanganyiko,kipaumbele,kushuku,NA,dfs,NA,6,NA,NA,NA,NA,NA,NA,NA,NA,NA,NA,NA,NA,NA,NA,NA,NA,NA,NA,NA
ca4b0,deep,flow.Sequence,3_0_6_0_3_0,NA,NA,skipped,NA,2118850.5,NA,NA,2118843.156,2118850.6,2023-04-11T16:12:55Z,2118859.277,NULL,Notfall,dharura,s,rairai,malalamiko,ahueni,NA,dfs,NA,6,NA,NA,NA,NA,NA,NA,NA,NA,NA,NA,NA,NA,NA,NA,NA,NA,NA,NA,NA
ca4b0,Shallow Question,html.Page,3_0_6_0_3_1_0,NA,NA,form submission,5651.5230000122,2118850.8,2118843.156,2118859.277,2124510.8,2124511,2023-04-11T16:13:00Z,2124521.333,NULL,Notfall,dharura,s,rairai,malalamiko,ahueni,dharura,NA,NA,6,NA,NA,NA,NA,NA,NA,NA,NA,NA,NA,NA,NA,NA,NA,NA,NA,NA,NA,NA
ca4b0,"""Richtig""-Screen",canvas.Screen,3_0_6_0_3_1_1,NA,NA,timeout,4995.8759999997,2124512.8,2124505.057,2124521.333,2129501.074,2129502,2023-04-11T16:13:05Z,2129517.209,NULL,Notfall,dharura,s,rairai,malalamiko,ahueni,NA,dfs,1,6,NA,NA,NA,NA,NA,NA,NA,NA,NA,NA,NA,NA,NA,NA,NA,NA,NA,NA,NA
ca4b0,"""Falsch""-Screen",canvas.Screen,3_0_6_0_3_1_2,NA,NA,skipped,NA,2129507.4,NA,NA,2129501.074,2129507.7,2023-04-11T16:13:05Z,2129517.209,NULL,Notfall,dharura,s,rairai,malalamiko,ahueni,NA,dfs,NA,6,NA,NA,NA,NA,NA,NA,NA,NA,NA,NA,NA,NA,NA,NA,NA,NA,NA,NA,NA
