observation,sender,sender_type,sender_id,response,response_action,ended_on,duration,time_run,time_render,time_show,time_end,time_commit,timestamp,time_switch,german,swahili,enc,distractor1,distractor2,distractor3,response_2,x,correct,distractors,url_vp,url_sess,meta_labjs_version,meta_location,meta_user_agent,meta_platform,meta_language,meta_locale,meta_time_zone,meta_timezone_offset,meta_screen_width,meta_screen_height,meta_scroll_width,meta_scroll_height,meta_window_inner_width,meta_window_inner_height,meta_device_pixel_ratio,meta_labjs_build_flavor,meta_labjs_build_commit
e9456,Introduction delayed retrieval,canvas.Screen,0,weiter,keypress(Space),response,2394,303,317,334,2711,2715,2023-09-20T19:39:32Z,2739,NA,NA,NA,NA,NA,NA,NA,NA,NA,NULL,181,2,20.2.4,https://neurocog.fernuni.ch/studies/vweber/sliechti/delayed/index.html?vp=181&sess=2,"Mozilla/5.0 (Macintosh; Intel Mac OS X 10_15_7) AppleWebKit/605.1.15 (KHTML, like Gecko) Version/16.1 Safari/605.1.15",MacIntel,de-DE,de-DE,Europe/Zurich,-120,1440,900,574,752,574,752,2,production,f5b4a49f956347addd546a832a3327688c2c0fef
e9456,Deep Question,html.Page,1_0_0_0,NA,NA,form submission,2199258,2716,2723,2739,2201997,2201998,2023-09-20T20:16:11Z,2202026,Spionage,upelelezi,s,maslahi,utokazo,magangao,jkwjc,NA,NA,NULL,NA,NA,NA,NA,NA,NA,NA,NA,NA,NA,NA,NA,NA,NA,NA,NA,NA,NA,NA
e9456,Save data screen,canvas.Screen,1_0_0_1,NA,NA,timeout,500,2201999,2202009,2202026,2202510,2202511,2023-09-20T20:16:11Z,2202526,Spionage,upelelezi,s,maslahi,utokazo,magangao,NA,NA,0,NULL,NA,NA,NA,NA,NA,NA,NA,NA,NA,NA,NA,NA,NA,NA,NA,NA,NA,NA,NA
e9456,deep,flow.Sequence,1_0_0,NA,NA,completion,2199771,2716,2723,2739,2202510,2202512,2023-09-20T20:16:11Z,2202526,Spionage,upelelezi,s,maslahi,utokazo,magangao,NA,NA,NA,NULL,NA,NA,NA,NA,NA,NA,NA,NA,NA,NA,NA,NA,NA,NA,NA,NA,NA,NA,NA
e9456,task,flow.Sequence,1_0,NA,NA,completion,2199771,2716,2723,2739,2202510,2202513,2023-09-20T20:16:11Z,2202526,Spionage,upelelezi,s,maslahi,utokazo,magangao,NA,NA,NA,NULL,NA,NA,NA,NA,NA,NA,NA,NA,NA,NA,NA,NA,NA,NA,NA,NA,NA,NA,NA
e9456,Deep Question,html.Page,1_1_0_0,NA,NA,form submission,2367,2202513,2202510,2202526,2204893,2204893,2023-09-20T20:16:14Z,2204926,Ergänzung,kijalizo,s,ulaghai,mustarehe,matangazo,fndskv,NA,NA,NULL,NA,NA,NA,NA,NA,NA,NA,NA,NA,NA,NA,NA,NA,NA,NA,NA,NA,NA,NA
e9456,Save data screen,canvas.Screen,1_1_0_1,NA,NA,timeout,501,2204894,2204910,2204926,2205410,2205411,2023-09-20T20:16:14Z,2205427,Ergänzung,kijalizo,s,ulaghai,mustarehe,matangazo,NA,NA,0,NULL,NA,NA,NA,NA,NA,NA,NA,NA,NA,NA,NA,NA,NA,NA,NA,NA,NA,NA,NA
e9456,deep,flow.Sequence,1_1_0,NA,NA,completion,2884,2202513,2202510,2202526,2205410,2205412,2023-09-20T20:16:14Z,2205427,Ergänzung,kijalizo,s,ulaghai,mustarehe,matangazo,NA,NA,NA,NULL,NA,NA,NA,NA,NA,NA,NA,NA,NA,NA,NA,NA,NA,NA,NA,NA,NA,NA,NA
e9456,task,flow.Sequence,1_1,NA,NA,completion,2884,2202513,2202510,2202526,2205410,2205412,2023-09-20T20:16:14Z,2205427,Ergänzung,kijalizo,s,ulaghai,mustarehe,matangazo,NA,NA,NA,NULL,NA,NA,NA,NA,NA,NA,NA,NA,NA,NA,NA,NA,NA,NA,NA,NA,NA,NA,NA
e9456,Deep Question,html.Page,1_2_0_0,NA,NA,form submission,3525,2205413,2205410,2205427,2208952,2208952,2023-09-20T20:16:18Z,2208977,Verpackung,ufungaji,d,uhusiano,upimaji,uchunguzi,vknsvs,NA,NA,NULL,NA,NA,NA,NA,NA,NA,NA,NA,NA,NA,NA,NA,NA,NA,NA,NA,NA,NA,NA
e9456,Save data screen,canvas.Screen,1_2_0_1,NA,NA,timeout,500,2208953,2208960,2208977,2209460,2209461,2023-09-20T20:16:18Z,2209477,Verpackung,ufungaji,d,uhusiano,upimaji,uchunguzi,NA,NA,0,NULL,NA,NA,NA,NA,NA,NA,NA,NA,NA,NA,NA,NA,NA,NA,NA,NA,NA,NA,NA
e9456,deep,flow.Sequence,1_2_0,NA,NA,completion,4033,2205413,2205410,2205427,2209460,2209462,2023-09-20T20:16:18Z,2209477,Verpackung,ufungaji,d,uhusiano,upimaji,uchunguzi,NA,NA,NA,NULL,NA,NA,NA,NA,NA,NA,NA,NA,NA,NA,NA,NA,NA,NA,NA,NA,NA,NA,NA
e9456,task,flow.Sequence,1_2,NA,NA,completion,4033,2205412,2205410,2205427,2209460,2209462,2023-09-20T20:16:18Z,2209477,Verpackung,ufungaji,d,uhusiano,upimaji,uchunguzi,NA,NA,NA,NULL,NA,NA,NA,NA,NA,NA,NA,NA,NA,NA,NA,NA,NA,NA,NA,NA,NA,NA,NA
e9456,Deep Question,html.Page,1_3_0_0,NA,NA,form submission,1420,2209462,2209460,2209477,2210897,2210897,2023-09-20T20:16:20Z,2210926,Notfall,dharura,d,rairai,malalamiko,ahueni,vsdjvjas,NA,NA,NULL,NA,NA,NA,NA,NA,NA,NA,NA,NA,NA,NA,NA,NA,NA,NA,NA,NA,NA,NA
e9456,Save data screen,canvas.Screen,1_3_0_1,NA,NA,timeout,501,2210898,2210910,2210926,2211410,2211412,2023-09-20T20:16:20Z,2211427,Notfall,dharura,d,rairai,malalamiko,ahueni,NA,NA,0,NULL,NA,NA,NA,NA,NA,NA,NA,NA,NA,NA,NA,NA,NA,NA,NA,NA,NA,NA,NA
e9456,deep,flow.Sequence,1_3_0,NA,NA,completion,1933,2209462,2209460,2209477,2211410,2211412,2023-09-20T20:16:20Z,2211427,Notfall,dharura,d,rairai,malalamiko,ahueni,NA,NA,NA,NULL,NA,NA,NA,NA,NA,NA,NA,NA,NA,NA,NA,NA,NA,NA,NA,NA,NA,NA,NA
e9456,task,flow.Sequence,1_3,NA,NA,completion,1933,2209462,2209460,2209477,2211410,2211413,2023-09-20T20:16:20Z,2211427,Notfall,dharura,d,rairai,malalamiko,ahueni,NA,NA,NA,NULL,NA,NA,NA,NA,NA,NA,NA,NA,NA,NA,NA,NA,NA,NA,NA,NA,NA,NA,NA
e9456,Deep Question,html.Page,1_4_0_0,NA,NA,form submission,3051,2211413,2211410,2211427,2214478,2214478,2023-09-20T20:16:23Z,2214510,Schüler,mwanafunzi,d,mwekezaji,matumizi,uaminifu,kinasfoc,NA,NA,NULL,NA,NA,NA,NA,NA,NA,NA,NA,NA,NA,NA,NA,NA,NA,NA,NA,NA,NA,NA
e9456,Save data screen,canvas.Screen,1_4_0_1,NA,NA,timeout,500,2214478,2214494,2214510,2214994,2214995,2023-09-20T20:16:24Z,2215010,Schüler,mwanafunzi,d,mwekezaji,matumizi,uaminifu,NA,NA,0,NULL,NA,NA,NA,NA,NA,NA,NA,NA,NA,NA,NA,NA,NA,NA,NA,NA,NA,NA,NA
e9456,deep,flow.Sequence,1_4_0,NA,NA,completion,3567,2211413,2211410,2211427,2214994,2214995,2023-09-20T20:16:24Z,2215010,Schüler,mwanafunzi,d,mwekezaji,matumizi,uaminifu,NA,NA,NA,NULL,NA,NA,NA,NA,NA,NA,NA,NA,NA,NA,NA,NA,NA,NA,NA,NA,NA,NA,NA
e9456,task,flow.Sequence,1_4,NA,NA,completion,3567,2211413,2211410,2211427,2214994,2214995,2023-09-20T20:16:24Z,2215010,Schüler,mwanafunzi,d,mwekezaji,matumizi,uaminifu,NA,NA,NA,NULL,NA,NA,NA,NA,NA,NA,NA,NA,NA,NA,NA,NA,NA,NA,NA,NA,NA,NA,NA
e9456,Deep Question,html.Page,1_5_0_0,NA,NA,form submission,2146,2214996,2214994,2215010,2217156,2217157,2023-09-20T20:16:26Z,2217177,Fenster,dirisha,s,walakini,tasawari,maarifa,finek,NA,NA,NULL,NA,NA,NA,NA,NA,NA,NA,NA,NA,NA,NA,NA,NA,NA,NA,NA,NA,NA,NA
e9456,Save data screen,canvas.Screen,1_5_0_1,NA,NA,timeout,500,2217157,2217160,2217177,2217660,2217661,2023-09-20T20:16:26Z,2217677,Fenster,dirisha,s,walakini,tasawari,maarifa,NA,NA,0,NULL,NA,NA,NA,NA,NA,NA,NA,NA,NA,NA,NA,NA,NA,NA,NA,NA,NA,NA,NA
e9456,deep,flow.Sequence,1_5_0,NA,NA,completion,2650,2214996,2214994,2215010,2217660,2217662,2023-09-20T20:16:26Z,2217677,Fenster,dirisha,s,walakini,tasawari,maarifa,NA,NA,NA,NULL,NA,NA,NA,NA,NA,NA,NA,NA,NA,NA,NA,NA,NA,NA,NA,NA,NA,NA,NA
e9456,task,flow.Sequence,1_5,NA,NA,completion,2650,2214996,2214994,2215010,2217660,2217663,2023-09-20T20:16:27Z,2217677,Fenster,dirisha,s,walakini,tasawari,maarifa,NA,NA,NA,NULL,NA,NA,NA,NA,NA,NA,NA,NA,NA,NA,NA,NA,NA,NA,NA,NA,NA,NA,NA
e9456,Deep Question,html.Page,1_6_0_0,NA,NA,form submission,2291,2217663,2217660,2217677,2219968,2219968,2023-09-20T20:16:29Z,2219993,Vermutung,udhanifu,d,haramia,tikisho,itifaki,fsdlkfjk,NA,NA,NULL,NA,NA,NA,NA,NA,NA,NA,NA,NA,NA,NA,NA,NA,NA,NA,NA,NA,NA,NA
e9456,Save data screen,canvas.Screen,1_6_0_1,NA,NA,timeout,501,2219970,2219977,2219993,2220477,2220478,2023-09-20T20:16:29Z,2220494,Vermutung,udhanifu,d,haramia,tikisho,itifaki,NA,NA,0,NULL,NA,NA,NA,NA,NA,NA,NA,NA,NA,NA,NA,NA,NA,NA,NA,NA,NA,NA,NA
e9456,deep,flow.Sequence,1_6_0,NA,NA,completion,2800,2217663,2217660,2217677,2220477,2220480,2023-09-20T20:16:29Z,2220494,Vermutung,udhanifu,d,haramia,tikisho,itifaki,NA,NA,NA,NULL,NA,NA,NA,NA,NA,NA,NA,NA,NA,NA,NA,NA,NA,NA,NA,NA,NA,NA,NA
e9456,task,flow.Sequence,1_6,NA,NA,completion,2800,2217663,2217660,2217677,2220477,2220480,2023-09-20T20:16:29Z,2220494,Vermutung,udhanifu,d,haramia,tikisho,itifaki,NA,NA,NA,NULL,NA,NA,NA,NA,NA,NA,NA,NA,NA,NA,NA,NA,NA,NA,NA,NA,NA,NA,NA
e9456,Deep Question,html.Page,1_7_0_0,NA,NA,form submission,1613,2220481,2220477,2220494,2222107,2222108,2023-09-20T20:16:31Z,2222127,Schock,mshtuko,s,biashara,kukataza,vichekesho,sdkkksf,NA,NA,NULL,NA,NA,NA,NA,NA,NA,NA,NA,NA,NA,NA,NA,NA,NA,NA,NA,NA,NA,NA
e9456,Save data screen,canvas.Screen,1_7_0_1,NA,NA,timeout,500,2222109,2222111,2222127,2222611,2222612,2023-09-20T20:16:31Z,2222627,Schock,mshtuko,s,biashara,kukataza,vichekesho,NA,NA,0,NULL,NA,NA,NA,NA,NA,NA,NA,NA,NA,NA,NA,NA,NA,NA,NA,NA,NA,NA,NA
e9456,deep,flow.Sequence,1_7_0,NA,NA,completion,2117,2220481,2220477,2220494,2222611,2222613,2023-09-20T20:16:31Z,2222627,Schock,mshtuko,s,biashara,kukataza,vichekesho,NA,NA,NA,NULL,NA,NA,NA,NA,NA,NA,NA,NA,NA,NA,NA,NA,NA,NA,NA,NA,NA,NA,NA
e9456,task,flow.Sequence,1_7,NA,NA,completion,2117,2220481,2220477,2220494,2222611,2222613,2023-09-20T20:16:31Z,2222627,Schock,mshtuko,s,biashara,kukataza,vichekesho,NA,NA,NA,NULL,NA,NA,NA,NA,NA,NA,NA,NA,NA,NA,NA,NA,NA,NA,NA,NA,NA,NA,NA
e9456,Deep Question,html.Page,1_8_0_0,NA,NA,form submission,3840,2222614,2222611,2222627,2226467,2226468,2023-09-20T20:16:35Z,2226494,Theorie,nadharia,s,ushungi,mkutano,uwakilishi,smsdmklcn,NA,NA,NULL,NA,NA,NA,NA,NA,NA,NA,NA,NA,NA,NA,NA,NA,NA,NA,NA,NA,NA,NA
e9456,Save data screen,canvas.Screen,1_8_0_1,NA,NA,timeout,500,2226469,2226477,2226494,2226977,2226978,2023-09-20T20:16:36Z,2226994,Theorie,nadharia,s,ushungi,mkutano,uwakilishi,NA,NA,0,NULL,NA,NA,NA,NA,NA,NA,NA,NA,NA,NA,NA,NA,NA,NA,NA,NA,NA,NA,NA
e9456,deep,flow.Sequence,1_8_0,NA,NA,completion,4350,2222614,2222611,2222627,2226977,2226979,2023-09-20T20:16:36Z,2226994,Theorie,nadharia,s,ushungi,mkutano,uwakilishi,NA,NA,NA,NULL,NA,NA,NA,NA,NA,NA,NA,NA,NA,NA,NA,NA,NA,NA,NA,NA,NA,NA,NA
e9456,task,flow.Sequence,1_8,NA,NA,completion,4350,2222614,2222611,2222627,2226977,2226980,2023-09-20T20:16:36Z,2226994,Theorie,nadharia,s,ushungi,mkutano,uwakilishi,NA,NA,NA,NULL,NA,NA,NA,NA,NA,NA,NA,NA,NA,NA,NA,NA,NA,NA,NA,NA,NA,NA,NA
e9456,Deep Question,html.Page,1_9_0_0,NA,NA,form submission,11521,2226980,2226977,2226994,2238515,2238515,2023-09-20T20:16:47Z,2238544,Schlange,foleni,s,uvumilivu,uteuzi,muuzaji,dvnjkdscnx,NA,NA,NULL,NA,NA,NA,NA,NA,NA,NA,NA,NA,NA,NA,NA,NA,NA,NA,NA,NA,NA,NA
e9456,Save data screen,canvas.Screen,1_9_0_1,NA,NA,timeout,500,2238517,2238528,2238544,2239028,2239030,2023-09-20T20:16:48Z,2239044,Schlange,foleni,s,uvumilivu,uteuzi,muuzaji,NA,NA,0,NULL,NA,NA,NA,NA,NA,NA,NA,NA,NA,NA,NA,NA,NA,NA,NA,NA,NA,NA,NA
e9456,deep,flow.Sequence,1_9_0,NA,NA,completion,12034,2226980,2226977,2226994,2239028,2239031,2023-09-20T20:16:48Z,2239044,Schlange,foleni,s,uvumilivu,uteuzi,muuzaji,NA,NA,NA,NULL,NA,NA,NA,NA,NA,NA,NA,NA,NA,NA,NA,NA,NA,NA,NA,NA,NA,NA,NA
e9456,task,flow.Sequence,1_9,NA,NA,completion,12034,2226980,2226977,2226994,2239028,2239032,2023-09-20T20:16:48Z,2239044,Schlange,foleni,s,uvumilivu,uteuzi,muuzaji,NA,NA,NA,NULL,NA,NA,NA,NA,NA,NA,NA,NA,NA,NA,NA,NA,NA,NA,NA,NA,NA,NA,NA
e9456,Deep Question,html.Page,1_10_0_0,NA,NA,form submission,2526,2239033,2239028,2239044,2241570,2241570,2023-09-20T20:16:50Z,2241594,Tester,wanaojaribu,d,sherti,sihiri,mlipuko,kvnd,NA,NA,NULL,NA,NA,NA,NA,NA,NA,NA,NA,NA,NA,NA,NA,NA,NA,NA,NA,NA,NA,NA
e9456,Save data screen,canvas.Screen,1_10_0_1,NA,NA,timeout,501,2241571,2241578,2241594,2242078,2242084,2023-09-20T20:16:51Z,2242095,Tester,wanaojaribu,d,sherti,sihiri,mlipuko,NA,NA,0,NULL,NA,NA,NA,NA,NA,NA,NA,NA,NA,NA,NA,NA,NA,NA,NA,NA,NA,NA,NA
e9456,deep,flow.Sequence,1_10_0,NA,NA,completion,3034,2239032,2239028,2239044,2242078,2242085,2023-09-20T20:16:51Z,2242095,Tester,wanaojaribu,d,sherti,sihiri,mlipuko,NA,NA,NA,NULL,NA,NA,NA,NA,NA,NA,NA,NA,NA,NA,NA,NA,NA,NA,NA,NA,NA,NA,NA
e9456,task,flow.Sequence,1_10,NA,NA,completion,3034,2239032,2239028,2239044,2242078,2242085,2023-09-20T20:16:51Z,2242095,Tester,wanaojaribu,d,sherti,sihiri,mlipuko,NA,NA,NA,NULL,NA,NA,NA,NA,NA,NA,NA,NA,NA,NA,NA,NA,NA,NA,NA,NA,NA,NA,NA
e9456,Deep Question,html.Page,1_11_0_0,NA,NA,form submission,2135,2242085,2242078,2242095,2244230,2244230,2023-09-20T20:16:53Z,2244261,Vergnügen,kichekesho,d,dubwana,mpanuko,mtesaji,vdfmvléfd,NA,NA,NULL,NA,NA,NA,NA,NA,NA,NA,NA,NA,NA,NA,NA,NA,NA,NA,NA,NA,NA,NA
e9456,Save data screen,canvas.Screen,1_11_0_1,NA,NA,timeout,500,2244231,2244245,2244261,2244745,2244746,2023-09-20T20:16:54Z,2244761,Vergnügen,kichekesho,d,dubwana,mpanuko,mtesaji,NA,NA,0,NULL,NA,NA,NA,NA,NA,NA,NA,NA,NA,NA,NA,NA,NA,NA,NA,NA,NA,NA,NA
e9456,deep,flow.Sequence,1_11_0,NA,NA,completion,2650,2242085,2242078,2242095,2244745,2244747,2023-09-20T20:16:54Z,2244761,Vergnügen,kichekesho,d,dubwana,mpanuko,mtesaji,NA,NA,NA,NULL,NA,NA,NA,NA,NA,NA,NA,NA,NA,NA,NA,NA,NA,NA,NA,NA,NA,NA,NA
e9456,task,flow.Sequence,1_11,NA,NA,completion,2650,2242085,2242078,2242095,2244745,2244747,2023-09-20T20:16:54Z,2244761,Vergnügen,kichekesho,d,dubwana,mpanuko,mtesaji,NA,NA,NA,NULL,NA,NA,NA,NA,NA,NA,NA,NA,NA,NA,NA,NA,NA,NA,NA,NA,NA,NA,NA
e9456,Deep Question,html.Page,1_12_0_0,NA,NA,form submission,1451,2244748,2244745,2244761,2246212,2246213,2023-09-20T20:16:55Z,2246245,Toleranz,kuvumiliana,s,maombolezo,ujasusi,mchekeshaji,fvfdg,NA,NA,NULL,NA,NA,NA,NA,NA,NA,NA,NA,NA,NA,NA,NA,NA,NA,NA,NA,NA,NA,NA
e9456,Save data screen,canvas.Screen,1_12_0_1,NA,NA,timeout,500,2246214,2246228,2246245,2246728,2246729,2023-09-20T20:16:56Z,2246745,Toleranz,kuvumiliana,s,maombolezo,ujasusi,mchekeshaji,NA,NA,0,NULL,NA,NA,NA,NA,NA,NA,NA,NA,NA,NA,NA,NA,NA,NA,NA,NA,NA,NA,NA
e9456,deep,flow.Sequence,1_12_0,NA,NA,completion,1967,2244748,2244745,2244761,2246728,2246730,2023-09-20T20:16:56Z,2246745,Toleranz,kuvumiliana,s,maombolezo,ujasusi,mchekeshaji,NA,NA,NA,NULL,NA,NA,NA,NA,NA,NA,NA,NA,NA,NA,NA,NA,NA,NA,NA,NA,NA,NA,NA
e9456,task,flow.Sequence,1_12,NA,NA,completion,1967,2244747,2244745,2244761,2246728,2246730,2023-09-20T20:16:56Z,2246745,Toleranz,kuvumiliana,s,maombolezo,ujasusi,mchekeshaji,NA,NA,NA,NULL,NA,NA,NA,NA,NA,NA,NA,NA,NA,NA,NA,NA,NA,NA,NA,NA,NA,NA,NA
e9456,Deep Question,html.Page,1_13_0_0,NA,NA,form submission,1308,2246730,2246728,2246745,2248053,2248054,2023-09-20T20:16:57Z,2248078,Wohlstand,mafanikio,s,chimbuko,kumbuko,mapwaji,bvdfbsd,NA,NA,NULL,NA,NA,NA,NA,NA,NA,NA,NA,NA,NA,NA,NA,NA,NA,NA,NA,NA,NA,NA
e9456,Save data screen,canvas.Screen,1_13_0_1,NA,NA,timeout,500,2248055,2248061,2248078,2248562,2248563,2023-09-20T20:16:57Z,2248578,Wohlstand,mafanikio,s,chimbuko,kumbuko,mapwaji,NA,NA,0,NULL,NA,NA,NA,NA,NA,NA,NA,NA,NA,NA,NA,NA,NA,NA,NA,NA,NA,NA,NA
e9456,deep,flow.Sequence,1_13_0,NA,NA,completion,1817,2246730,2246728,2246745,2248562,2248563,2023-09-20T20:16:57Z,2248578,Wohlstand,mafanikio,s,chimbuko,kumbuko,mapwaji,NA,NA,NA,NULL,NA,NA,NA,NA,NA,NA,NA,NA,NA,NA,NA,NA,NA,NA,NA,NA,NA,NA,NA
e9456,task,flow.Sequence,1_13,NA,NA,completion,1817,2246730,2246728,2246745,2248562,2248564,2023-09-20T20:16:57Z,2248578,Wohlstand,mafanikio,s,chimbuko,kumbuko,mapwaji,NA,NA,NA,NULL,NA,NA,NA,NA,NA,NA,NA,NA,NA,NA,NA,NA,NA,NA,NA,NA,NA,NA,NA
e9456,Deep Question,html.Page,1_14_0_0,NA,NA,form submission,2162.0000000005,2248564,2248562,2248578,2250740,2250740,2023-09-20T20:17:00Z,2250762,Inhalt,yaliyomo,d,kishawishi,hifadhi,kutembea,gfdsvg,NA,NA,NULL,NA,NA,NA,NA,NA,NA,NA,NA,NA,NA,NA,NA,NA,NA,NA,NA,NA,NA,NA
e9456,Save data screen,canvas.Screen,1_14_0_1,NA,NA,timeout,499,2250742,2250745,2250762,2251245,2251246,2023-09-20T20:17:00Z,2251261,Inhalt,yaliyomo,d,kishawishi,hifadhi,kutembea,NA,NA,0,NULL,NA,NA,NA,NA,NA,NA,NA,NA,NA,NA,NA,NA,NA,NA,NA,NA,NA,NA,NA
e9456,deep,flow.Sequence,1_14_0,NA,NA,completion,2667,2248564,2248562,2248578,2251245,2251246,2023-09-20T20:17:00Z,2251261,Inhalt,yaliyomo,d,kishawishi,hifadhi,kutembea,NA,NA,NA,NULL,NA,NA,NA,NA,NA,NA,NA,NA,NA,NA,NA,NA,NA,NA,NA,NA,NA,NA,NA
e9456,task,flow.Sequence,1_14,NA,NA,completion,2667,2248564,2248562,2248578,2251245,2251247,2023-09-20T20:17:00Z,2251261,Inhalt,yaliyomo,d,kishawishi,hifadhi,kutembea,NA,NA,NA,NULL,NA,NA,NA,NA,NA,NA,NA,NA,NA,NA,NA,NA,NA,NA,NA,NA,NA,NA,NA
e9456,Deep Question,html.Page,1_15_0_0,NA,NA,form submission,1700.0000000005,2251247,2251245,2251261,2252961,2252961,2023-09-20T20:17:02Z,2252995,Hoffnung,matarajio,d,kutaalamika,uratibu,mvumbuzi,fgfdg,NA,NA,NULL,NA,NA,NA,NA,NA,NA,NA,NA,NA,NA,NA,NA,NA,NA,NA,NA,NA,NA,NA
e9456,Save data screen,canvas.Screen,1_15_0_1,NA,NA,timeout,519,2252962,2252978,2252995,2253478,2253479,2023-09-20T20:17:02Z,2253514,Hoffnung,matarajio,d,kutaalamika,uratibu,mvumbuzi,NA,NA,0,NULL,NA,NA,NA,NA,NA,NA,NA,NA,NA,NA,NA,NA,NA,NA,NA,NA,NA,NA,NA
e9456,deep,flow.Sequence,1_15_0,NA,NA,completion,2217,2251247,2251245,2251261,2253478,2253480,2023-09-20T20:17:02Z,2253514,Hoffnung,matarajio,d,kutaalamika,uratibu,mvumbuzi,NA,NA,NA,NULL,NA,NA,NA,NA,NA,NA,NA,NA,NA,NA,NA,NA,NA,NA,NA,NA,NA,NA,NA
e9456,task,flow.Sequence,1_15,NA,NA,completion,2217,2251247,2251245,2251261,2253478,2253480,2023-09-20T20:17:02Z,2253514,Hoffnung,matarajio,d,kutaalamika,uratibu,mvumbuzi,NA,NA,NA,NULL,NA,NA,NA,NA,NA,NA,NA,NA,NA,NA,NA,NA,NA,NA,NA,NA,NA,NA,NA
e9456,retrieval block 1 (cued recall),flow.Loop,1,NA,NA,completion,2250739,2715,2723,2739,2253478,2253481,2023-09-20T20:17:02Z,2253514,NA,NA,NA,NA,NA,NA,NA,NA,NA,NULL,NA,NA,NA,NA,NA,NA,NA,NA,NA,NA,NA,NA,NA,NA,NA,NA,NA,NA,NA
e9456,Shallow Question,html.Page,2_0_0_0,NA,NA,form submission,65008,2253481,2253478,2253514,2318522,2318523,2023-09-20T20:18:07Z,2318547,Toleranz,kuvumiliana,s,maombolezo,ujasusi,mchekeshaji,ujasusi,NA,NA,"c(""distractor1"", ""distractor2"", ""distractor3"")",NA,NA,NA,NA,NA,NA,NA,NA,NA,NA,NA,NA,NA,NA,NA,NA,NA,NA,NA
e9456,Save data screen,canvas.Screen,2_0_0_1,NA,NA,timeout,500,2318524,2318531,2318547,2319031,2319032,2023-09-20T20:18:08Z,2319047,Toleranz,kuvumiliana,s,maombolezo,ujasusi,mchekeshaji,NA,NA,0,"c(""distractor1"", ""distractor2"", ""distractor3"")",NA,NA,NA,NA,NA,NA,NA,NA,NA,NA,NA,NA,NA,NA,NA,NA,NA,NA,NA
e9456,shallow,flow.Sequence,2_0_0,NA,NA,completion,65517,2253481,2253478,2253514,2319031,2319032,2023-09-20T20:18:08Z,2319047,Toleranz,kuvumiliana,s,maombolezo,ujasusi,mchekeshaji,NA,NA,NA,"c(""distractor1"", ""distractor2"", ""distractor3"")",NA,NA,NA,NA,NA,NA,NA,NA,NA,NA,NA,NA,NA,NA,NA,NA,NA,NA,NA
e9456,task,flow.Sequence,2_0,NA,NA,completion,65517,2253481,2253478,2253514,2319031,2319033,2023-09-20T20:18:08Z,2319047,Toleranz,kuvumiliana,s,maombolezo,ujasusi,mchekeshaji,NA,NA,NA,"c(""distractor1"", ""distractor2"", ""distractor3"")",NA,NA,NA,NA,NA,NA,NA,NA,NA,NA,NA,NA,NA,NA,NA,NA,NA,NA,NA
e9456,Shallow Question,html.Page,2_1_0_0,NA,NA,form submission,2407,2319033,2319031,2319047,2321454,2321454,2023-09-20T20:18:10Z,2321481,Ergänzung,kijalizo,s,ulaghai,mustarehe,matangazo,mustarehe,NA,NA,"c(""distractor1"", ""distractor2"", ""distractor3"")",NA,NA,NA,NA,NA,NA,NA,NA,NA,NA,NA,NA,NA,NA,NA,NA,NA,NA,NA
e9456,Save data screen,canvas.Screen,2_1_0_1,NA,NA,timeout,500,2321458,2321464,2321481,2321964,2321966,2023-09-20T20:18:11Z,2321981,Ergänzung,kijalizo,s,ulaghai,mustarehe,matangazo,NA,NA,0,"c(""distractor1"", ""distractor2"", ""distractor3"")",NA,NA,NA,NA,NA,NA,NA,NA,NA,NA,NA,NA,NA,NA,NA,NA,NA,NA,NA
e9456,shallow,flow.Sequence,2_1_0,NA,NA,completion,2917,2319033,2319031,2319047,2321964,2321966,2023-09-20T20:18:11Z,2321981,Ergänzung,kijalizo,s,ulaghai,mustarehe,matangazo,NA,NA,NA,"c(""distractor1"", ""distractor2"", ""distractor3"")",NA,NA,NA,NA,NA,NA,NA,NA,NA,NA,NA,NA,NA,NA,NA,NA,NA,NA,NA
e9456,task,flow.Sequence,2_1,NA,NA,completion,2917,2319033,2319031,2319047,2321964,2321967,2023-09-20T20:18:11Z,2321981,Ergänzung,kijalizo,s,ulaghai,mustarehe,matangazo,NA,NA,NA,"c(""distractor1"", ""distractor2"", ""distractor3"")",NA,NA,NA,NA,NA,NA,NA,NA,NA,NA,NA,NA,NA,NA,NA,NA,NA,NA,NA
e9456,Shallow Question,html.Page,2_2_0_0,NA,NA,form submission,2724,2321967,2321964,2321981,2324705,2324706,2023-09-20T20:18:14Z,2324731,Vermutung,udhanifu,d,haramia,tikisho,itifaki,tikisho,NA,NA,"c(""distractor1"", ""distractor2"", ""distractor3"")",NA,NA,NA,NA,NA,NA,NA,NA,NA,NA,NA,NA,NA,NA,NA,NA,NA,NA,NA
e9456,Save data screen,canvas.Screen,2_2_0_1,NA,NA,timeout,499,2324707,2324714,2324731,2325214,2325216,2023-09-20T20:18:14Z,2325230,Vermutung,udhanifu,d,haramia,tikisho,itifaki,NA,NA,0,"c(""distractor1"", ""distractor2"", ""distractor3"")",NA,NA,NA,NA,NA,NA,NA,NA,NA,NA,NA,NA,NA,NA,NA,NA,NA,NA,NA
e9456,shallow,flow.Sequence,2_2_0,NA,NA,completion,3233,2321967,2321964,2321981,2325214,2325217,2023-09-20T20:18:14Z,2325230,Vermutung,udhanifu,d,haramia,tikisho,itifaki,NA,NA,NA,"c(""distractor1"", ""distractor2"", ""distractor3"")",NA,NA,NA,NA,NA,NA,NA,NA,NA,NA,NA,NA,NA,NA,NA,NA,NA,NA,NA
e9456,task,flow.Sequence,2_2,NA,NA,completion,3233,2321967,2321964,2321981,2325214,2325217,2023-09-20T20:18:14Z,2325230,Vermutung,udhanifu,d,haramia,tikisho,itifaki,NA,NA,NA,"c(""distractor1"", ""distractor2"", ""distractor3"")",NA,NA,NA,NA,NA,NA,NA,NA,NA,NA,NA,NA,NA,NA,NA,NA,NA,NA,NA
e9456,Shallow Question,html.Page,2_3_0_0,NA,NA,form submission,3791,2325218,2325214,2325230,2329021,2329022,2023-09-20T20:18:18Z,2329048,Hoffnung,matarajio,d,kutaalamika,uratibu,mvumbuzi,matarajio,NA,NA,"c(""distractor1"", ""distractor2"", ""distractor3"")",NA,NA,NA,NA,NA,NA,NA,NA,NA,NA,NA,NA,NA,NA,NA,NA,NA,NA,NA
e9456,Save data screen,canvas.Screen,2_3_0_1,NA,NA,timeout,499,2329022,2329031,2329048,2329531,2329532,2023-09-20T20:18:18Z,2329547,Hoffnung,matarajio,d,kutaalamika,uratibu,mvumbuzi,NA,NA,1,"c(""distractor1"", ""distractor2"", ""distractor3"")",NA,NA,NA,NA,NA,NA,NA,NA,NA,NA,NA,NA,NA,NA,NA,NA,NA,NA,NA
e9456,shallow,flow.Sequence,2_3_0,NA,NA,completion,4301,2325218,2325214,2325230,2329531,2329533,2023-09-20T20:18:18Z,2329547,Hoffnung,matarajio,d,kutaalamika,uratibu,mvumbuzi,NA,NA,NA,"c(""distractor1"", ""distractor2"", ""distractor3"")",NA,NA,NA,NA,NA,NA,NA,NA,NA,NA,NA,NA,NA,NA,NA,NA,NA,NA,NA
e9456,task,flow.Sequence,2_3,NA,NA,completion,4301,2325217,2325214,2325230,2329531,2329533,2023-09-20T20:18:18Z,2329547,Hoffnung,matarajio,d,kutaalamika,uratibu,mvumbuzi,NA,NA,NA,"c(""distractor1"", ""distractor2"", ""distractor3"")",NA,NA,NA,NA,NA,NA,NA,NA,NA,NA,NA,NA,NA,NA,NA,NA,NA,NA,NA
e9456,Shallow Question,html.Page,2_4_0_0,NA,NA,form submission,4723,2329534,2329531,2329547,2334270,2334271,2023-09-20T20:18:23Z,2334298,Schlange,foleni,s,uvumilivu,uteuzi,muuzaji,foleni,NA,NA,"c(""distractor1"", ""distractor2"", ""distractor3"")",NA,NA,NA,NA,NA,NA,NA,NA,NA,NA,NA,NA,NA,NA,NA,NA,NA,NA,NA
e9456,Save data screen,canvas.Screen,2_4_0_1,NA,NA,timeout,500,2334272,2334281,2334298,2334781,2334782,2023-09-20T20:18:24Z,2334798,Schlange,foleni,s,uvumilivu,uteuzi,muuzaji,NA,NA,1,"c(""distractor1"", ""distractor2"", ""distractor3"")",NA,NA,NA,NA,NA,NA,NA,NA,NA,NA,NA,NA,NA,NA,NA,NA,NA,NA,NA
e9456,shallow,flow.Sequence,2_4_0,NA,NA,completion,5234,2329533,2329531,2329547,2334781,2334782,2023-09-20T20:18:24Z,2334798,Schlange,foleni,s,uvumilivu,uteuzi,muuzaji,NA,NA,NA,"c(""distractor1"", ""distractor2"", ""distractor3"")",NA,NA,NA,NA,NA,NA,NA,NA,NA,NA,NA,NA,NA,NA,NA,NA,NA,NA,NA
e9456,task,flow.Sequence,2_4,NA,NA,completion,5234,2329533,2329531,2329547,2334781,2334783,2023-09-20T20:18:24Z,2334798,Schlange,foleni,s,uvumilivu,uteuzi,muuzaji,NA,NA,NA,"c(""distractor1"", ""distractor2"", ""distractor3"")",NA,NA,NA,NA,NA,NA,NA,NA,NA,NA,NA,NA,NA,NA,NA,NA,NA,NA,NA
e9456,Shallow Question,html.Page,2_5_0_0,NA,NA,form submission,4771,2334783,2334781,2334798,2339569,2339570,2023-09-20T20:18:28Z,2339597,Verpackung,ufungaji,d,uhusiano,upimaji,uchunguzi,upimaji,NA,NA,"c(""distractor1"", ""distractor2"", ""distractor3"")",NA,NA,NA,NA,NA,NA,NA,NA,NA,NA,NA,NA,NA,NA,NA,NA,NA,NA,NA
e9456,Save data screen,canvas.Screen,2_5_0_1,NA,NA,timeout,501,2339571,2339580,2339597,2340081,2340082,2023-09-20T20:18:29Z,2340098,Verpackung,ufungaji,d,uhusiano,upimaji,uchunguzi,NA,NA,0,"c(""distractor1"", ""distractor2"", ""distractor3"")",NA,NA,NA,NA,NA,NA,NA,NA,NA,NA,NA,NA,NA,NA,NA,NA,NA,NA,NA
e9456,shallow,flow.Sequence,2_5_0,NA,NA,completion,5283,2334783,2334781,2334798,2340081,2340083,2023-09-20T20:18:29Z,2340098,Verpackung,ufungaji,d,uhusiano,upimaji,uchunguzi,NA,NA,NA,"c(""distractor1"", ""distractor2"", ""distractor3"")",NA,NA,NA,NA,NA,NA,NA,NA,NA,NA,NA,NA,NA,NA,NA,NA,NA,NA,NA
e9456,task,flow.Sequence,2_5,NA,NA,completion,5283,2334783,2334781,2334798,2340081,2340083,2023-09-20T20:18:29Z,2340098,Verpackung,ufungaji,d,uhusiano,upimaji,uchunguzi,NA,NA,NA,"c(""distractor1"", ""distractor2"", ""distractor3"")",NA,NA,NA,NA,NA,NA,NA,NA,NA,NA,NA,NA,NA,NA,NA,NA,NA,NA,NA
e9456,Shallow Question,html.Page,2_6_0_0,NA,NA,form submission,4775,2340084,2340081,2340098,2344873,2344873,2023-09-20T20:18:34Z,2344898,Theorie,nadharia,s,ushungi,mkutano,uwakilishi,mkutano,NA,NA,"c(""distractor1"", ""distractor2"", ""distractor3"")",NA,NA,NA,NA,NA,NA,NA,NA,NA,NA,NA,NA,NA,NA,NA,NA,NA,NA,NA
e9456,Save data screen,canvas.Screen,2_6_0_1,NA,NA,timeout,500,2344874,2344881,2344898,2345381,2345383,2023-09-20T20:18:34Z,2345398,Theorie,nadharia,s,ushungi,mkutano,uwakilishi,NA,NA,0,"c(""distractor1"", ""distractor2"", ""distractor3"")",NA,NA,NA,NA,NA,NA,NA,NA,NA,NA,NA,NA,NA,NA,NA,NA,NA,NA,NA
e9456,shallow,flow.Sequence,2_6_0,NA,NA,completion,5283,2340083,2340081,2340098,2345381,2345384,2023-09-20T20:18:34Z,2345398,Theorie,nadharia,s,ushungi,mkutano,uwakilishi,NA,NA,NA,"c(""distractor1"", ""distractor2"", ""distractor3"")",NA,NA,NA,NA,NA,NA,NA,NA,NA,NA,NA,NA,NA,NA,NA,NA,NA,NA,NA
e9456,task,flow.Sequence,2_6,NA,NA,completion,5283,2340083,2340081,2340098,2345381,2345384,2023-09-20T20:18:34Z,2345398,Theorie,nadharia,s,ushungi,mkutano,uwakilishi,NA,NA,NA,"c(""distractor1"", ""distractor2"", ""distractor3"")",NA,NA,NA,NA,NA,NA,NA,NA,NA,NA,NA,NA,NA,NA,NA,NA,NA,NA,NA
e9456,Shallow Question,html.Page,2_7_0_0,NA,NA,form submission,2206.0000000005,2345385,2345381,2345398,2347604,2347605,2023-09-20T20:18:36Z,2347632,Inhalt,yaliyomo,d,kishawishi,hifadhi,kutembea,hifadhi,NA,NA,"c(""distractor1"", ""distractor2"", ""distractor3"")",NA,NA,NA,NA,NA,NA,NA,NA,NA,NA,NA,NA,NA,NA,NA,NA,NA,NA,NA
e9456,Save data screen,canvas.Screen,2_7_0_1,NA,NA,timeout,500,2347608,2347614,2347632,2348115,2348116,2023-09-20T20:18:37Z,2348132,Inhalt,yaliyomo,d,kishawishi,hifadhi,kutembea,NA,NA,0,"c(""distractor1"", ""distractor2"", ""distractor3"")",NA,NA,NA,NA,NA,NA,NA,NA,NA,NA,NA,NA,NA,NA,NA,NA,NA,NA,NA
e9456,shallow,flow.Sequence,2_7_0,NA,NA,completion,2717,2345385,2345381,2345398,2348115,2348116,2023-09-20T20:18:37Z,2348132,Inhalt,yaliyomo,d,kishawishi,hifadhi,kutembea,NA,NA,NA,"c(""distractor1"", ""distractor2"", ""distractor3"")",NA,NA,NA,NA,NA,NA,NA,NA,NA,NA,NA,NA,NA,NA,NA,NA,NA,NA,NA
e9456,task,flow.Sequence,2_7,NA,NA,completion,2717,2345384,2345381,2345398,2348115,2348117,2023-09-20T20:18:37Z,2348132,Inhalt,yaliyomo,d,kishawishi,hifadhi,kutembea,NA,NA,NA,"c(""distractor1"", ""distractor2"", ""distractor3"")",NA,NA,NA,NA,NA,NA,NA,NA,NA,NA,NA,NA,NA,NA,NA,NA,NA,NA,NA
e9456,Shallow Question,html.Page,2_8_0_0,NA,NA,form submission,4223,2348117,2348115,2348132,2352355,2352356,2023-09-20T20:18:41Z,2352382,Fenster,dirisha,s,walakini,tasawari,maarifa,tasawari,NA,NA,"c(""distractor1"", ""distractor2"", ""distractor3"")",NA,NA,NA,NA,NA,NA,NA,NA,NA,NA,NA,NA,NA,NA,NA,NA,NA,NA,NA
e9456,Save data screen,canvas.Screen,2_8_0_1,NA,NA,timeout,500,2352357,2352365,2352382,2352865,2352867,2023-09-20T20:18:42Z,2352882,Fenster,dirisha,s,walakini,tasawari,maarifa,NA,NA,0,"c(""distractor1"", ""distractor2"", ""distractor3"")",NA,NA,NA,NA,NA,NA,NA,NA,NA,NA,NA,NA,NA,NA,NA,NA,NA,NA,NA
e9456,shallow,flow.Sequence,2_8_0,NA,NA,completion,4733,2348117,2348115,2348132,2352865,2352868,2023-09-20T20:18:42Z,2352882,Fenster,dirisha,s,walakini,tasawari,maarifa,NA,NA,NA,"c(""distractor1"", ""distractor2"", ""distractor3"")",NA,NA,NA,NA,NA,NA,NA,NA,NA,NA,NA,NA,NA,NA,NA,NA,NA,NA,NA
e9456,task,flow.Sequence,2_8,NA,NA,completion,4733,2348117,2348115,2348132,2352865,2352869,2023-09-20T20:18:42Z,2352882,Fenster,dirisha,s,walakini,tasawari,maarifa,NA,NA,NA,"c(""distractor1"", ""distractor2"", ""distractor3"")",NA,NA,NA,NA,NA,NA,NA,NA,NA,NA,NA,NA,NA,NA,NA,NA,NA,NA,NA
e9456,Shallow Question,html.Page,2_9_0_0,NA,NA,form submission,2538,2352869,2352865,2352882,2355420,2355420,2023-09-20T20:18:44Z,2355448,Tester,wanaojaribu,d,sherti,sihiri,mlipuko,sherti,NA,NA,"c(""distractor1"", ""distractor2"", ""distractor3"")",NA,NA,NA,NA,NA,NA,NA,NA,NA,NA,NA,NA,NA,NA,NA,NA,NA,NA,NA
e9456,Save data screen,canvas.Screen,2_9_0_1,NA,NA,timeout,500,2355421,2355432,2355448,2355932,2355933,2023-09-20T20:18:45Z,2355948,Tester,wanaojaribu,d,sherti,sihiri,mlipuko,NA,NA,0,"c(""distractor1"", ""distractor2"", ""distractor3"")",NA,NA,NA,NA,NA,NA,NA,NA,NA,NA,NA,NA,NA,NA,NA,NA,NA,NA,NA
e9456,shallow,flow.Sequence,2_9_0,NA,NA,completion,3050,2352869,2352865,2352882,2355932,2355934,2023-09-20T20:18:45Z,2355948,Tester,wanaojaribu,d,sherti,sihiri,mlipuko,NA,NA,NA,"c(""distractor1"", ""distractor2"", ""distractor3"")",NA,NA,NA,NA,NA,NA,NA,NA,NA,NA,NA,NA,NA,NA,NA,NA,NA,NA,NA
e9456,task,flow.Sequence,2_9,NA,NA,completion,3050,2352869,2352865,2352882,2355932,2355934,2023-09-20T20:18:45Z,2355948,Tester,wanaojaribu,d,sherti,sihiri,mlipuko,NA,NA,NA,"c(""distractor1"", ""distractor2"", ""distractor3"")",NA,NA,NA,NA,NA,NA,NA,NA,NA,NA,NA,NA,NA,NA,NA,NA,NA,NA,NA
e9456,Shallow Question,html.Page,2_10_0_0,NA,NA,form submission,2441,2355934,2355932,2355948,2358389,2358389,2023-09-20T20:18:47Z,2358415,Schüler,mwanafunzi,d,mwekezaji,matumizi,uaminifu,matumizi,NA,NA,"c(""distractor1"", ""distractor2"", ""distractor3"")",NA,NA,NA,NA,NA,NA,NA,NA,NA,NA,NA,NA,NA,NA,NA,NA,NA,NA,NA
e9456,Save data screen,canvas.Screen,2_10_0_1,NA,NA,timeout,500,2358392,2358398,2358415,2358899,2358899,2023-09-20T20:18:48Z,2358915,Schüler,mwanafunzi,d,mwekezaji,matumizi,uaminifu,NA,NA,0,"c(""distractor1"", ""distractor2"", ""distractor3"")",NA,NA,NA,NA,NA,NA,NA,NA,NA,NA,NA,NA,NA,NA,NA,NA,NA,NA,NA
e9456,shallow,flow.Sequence,2_10_0,NA,NA,completion,2951,2355934,2355932,2355948,2358899,2358900,2023-09-20T20:18:48Z,2358915,Schüler,mwanafunzi,d,mwekezaji,matumizi,uaminifu,NA,NA,NA,"c(""distractor1"", ""distractor2"", ""distractor3"")",NA,NA,NA,NA,NA,NA,NA,NA,NA,NA,NA,NA,NA,NA,NA,NA,NA,NA,NA
e9456,task,flow.Sequence,2_10,NA,NA,completion,2951,2355934,2355932,2355948,2358899,2358900,2023-09-20T20:18:48Z,2358915,Schüler,mwanafunzi,d,mwekezaji,matumizi,uaminifu,NA,NA,NA,"c(""distractor1"", ""distractor2"", ""distractor3"")",NA,NA,NA,NA,NA,NA,NA,NA,NA,NA,NA,NA,NA,NA,NA,NA,NA,NA,NA
e9456,Shallow Question,html.Page,2_11_0_0,NA,NA,form submission,3356,2358900,2358899,2358915,2362271,2362271,2023-09-20T20:18:51Z,2362299,Notfall,dharura,d,rairai,malalamiko,ahueni,dharura,NA,NA,"c(""distractor1"", ""distractor2"", ""distractor3"")",NA,NA,NA,NA,NA,NA,NA,NA,NA,NA,NA,NA,NA,NA,NA,NA,NA,NA,NA
e9456,Save data screen,canvas.Screen,2_11_0_1,NA,NA,timeout,500,2362272,2362282,2362299,2362782,2362782,2023-09-20T20:18:52Z,2362799,Notfall,dharura,d,rairai,malalamiko,ahueni,NA,NA,1,"c(""distractor1"", ""distractor2"", ""distractor3"")",NA,NA,NA,NA,NA,NA,NA,NA,NA,NA,NA,NA,NA,NA,NA,NA,NA,NA,NA
e9456,shallow,flow.Sequence,2_11_0,NA,NA,completion,3867,2358900,2358899,2358915,2362782,2362783,2023-09-20T20:18:52Z,2362799,Notfall,dharura,d,rairai,malalamiko,ahueni,NA,NA,NA,"c(""distractor1"", ""distractor2"", ""distractor3"")",NA,NA,NA,NA,NA,NA,NA,NA,NA,NA,NA,NA,NA,NA,NA,NA,NA,NA,NA
e9456,task,flow.Sequence,2_11,NA,NA,completion,3867,2358900,2358899,2358915,2362782,2362783,2023-09-20T20:18:52Z,2362799,Notfall,dharura,d,rairai,malalamiko,ahueni,NA,NA,NA,"c(""distractor1"", ""distractor2"", ""distractor3"")",NA,NA,NA,NA,NA,NA,NA,NA,NA,NA,NA,NA,NA,NA,NA,NA,NA,NA,NA
e9456,Shallow Question,html.Page,2_12_0_0,NA,NA,form submission,2489,2362784,2362782,2362799,2365288,2365288,2023-09-20T20:18:54Z,2365316,Spionage,upelelezi,s,maslahi,utokazo,magangao,maslahi,NA,NA,"c(""distractor1"", ""distractor2"", ""distractor3"")",NA,NA,NA,NA,NA,NA,NA,NA,NA,NA,NA,NA,NA,NA,NA,NA,NA,NA,NA
e9456,Save data screen,canvas.Screen,2_12_0_1,NA,NA,timeout,500,2365289,2365298,2365316,2365799,2365801,2023-09-20T20:18:55Z,2365816,Spionage,upelelezi,s,maslahi,utokazo,magangao,NA,NA,0,"c(""distractor1"", ""distractor2"", ""distractor3"")",NA,NA,NA,NA,NA,NA,NA,NA,NA,NA,NA,NA,NA,NA,NA,NA,NA,NA,NA
e9456,shallow,flow.Sequence,2_12_0,NA,NA,completion,3000,2362784,2362782,2362799,2365799,2365802,2023-09-20T20:18:55Z,2365816,Spionage,upelelezi,s,maslahi,utokazo,magangao,NA,NA,NA,"c(""distractor1"", ""distractor2"", ""distractor3"")",NA,NA,NA,NA,NA,NA,NA,NA,NA,NA,NA,NA,NA,NA,NA,NA,NA,NA,NA
e9456,task,flow.Sequence,2_12,NA,NA,completion,3000,2362783,2362782,2362799,2365799,2365802,2023-09-20T20:18:55Z,2365816,Spionage,upelelezi,s,maslahi,utokazo,magangao,NA,NA,NA,"c(""distractor1"", ""distractor2"", ""distractor3"")",NA,NA,NA,NA,NA,NA,NA,NA,NA,NA,NA,NA,NA,NA,NA,NA,NA,NA,NA
e9456,Shallow Question,html.Page,2_13_0_0,NA,NA,form submission,2573,2365802,2365799,2365816,2368389,2368389,2023-09-20T20:18:57Z,2368416,Wohlstand,mafanikio,s,chimbuko,kumbuko,mapwaji,chimbuko,NA,NA,"c(""distractor1"", ""distractor2"", ""distractor3"")",NA,NA,NA,NA,NA,NA,NA,NA,NA,NA,NA,NA,NA,NA,NA,NA,NA,NA,NA
e9456,Save data screen,canvas.Screen,2_13_0_1,NA,NA,timeout,500,2368391,2368399,2368416,2368899,2368900,2023-09-20T20:18:58Z,2368916,Wohlstand,mafanikio,s,chimbuko,kumbuko,mapwaji,NA,NA,0,"c(""distractor1"", ""distractor2"", ""distractor3"")",NA,NA,NA,NA,NA,NA,NA,NA,NA,NA,NA,NA,NA,NA,NA,NA,NA,NA,NA
e9456,shallow,flow.Sequence,2_13_0,NA,NA,completion,3083,2365802,2365799,2365816,2368899,2368900,2023-09-20T20:18:58Z,2368916,Wohlstand,mafanikio,s,chimbuko,kumbuko,mapwaji,NA,NA,NA,"c(""distractor1"", ""distractor2"", ""distractor3"")",NA,NA,NA,NA,NA,NA,NA,NA,NA,NA,NA,NA,NA,NA,NA,NA,NA,NA,NA
e9456,task,flow.Sequence,2_13,NA,NA,completion,3083,2365802,2365799,2365816,2368899,2368901,2023-09-20T20:18:58Z,2368916,Wohlstand,mafanikio,s,chimbuko,kumbuko,mapwaji,NA,NA,NA,"c(""distractor1"", ""distractor2"", ""distractor3"")",NA,NA,NA,NA,NA,NA,NA,NA,NA,NA,NA,NA,NA,NA,NA,NA,NA,NA,NA
e9456,Shallow Question,html.Page,2_14_0_0,NA,NA,form submission,2423,2368901,2368899,2368916,2371339,2371339,2023-09-20T20:19:00Z,2371365,Schock,mshtuko,s,biashara,kukataza,vichekesho,kukataza,NA,NA,"c(""distractor1"", ""distractor2"", ""distractor3"")",NA,NA,NA,NA,NA,NA,NA,NA,NA,NA,NA,NA,NA,NA,NA,NA,NA,NA,NA
e9456,Save data screen,canvas.Screen,2_14_0_1,NA,NA,timeout,501,2371341,2371349,2371365,2371849,2371850,2023-09-20T20:19:01Z,2371866,Schock,mshtuko,s,biashara,kukataza,vichekesho,NA,NA,0,"c(""distractor1"", ""distractor2"", ""distractor3"")",NA,NA,NA,NA,NA,NA,NA,NA,NA,NA,NA,NA,NA,NA,NA,NA,NA,NA,NA
e9456,shallow,flow.Sequence,2_14_0,NA,NA,completion,2933,2368901,2368899,2368916,2371849,2371852,2023-09-20T20:19:01Z,2371866,Schock,mshtuko,s,biashara,kukataza,vichekesho,NA,NA,NA,"c(""distractor1"", ""distractor2"", ""distractor3"")",NA,NA,NA,NA,NA,NA,NA,NA,NA,NA,NA,NA,NA,NA,NA,NA,NA,NA,NA
e9456,task,flow.Sequence,2_14,NA,NA,completion,2933,2368901,2368899,2368916,2371849,2371852,2023-09-20T20:19:01Z,2371866,Schock,mshtuko,s,biashara,kukataza,vichekesho,NA,NA,NA,"c(""distractor1"", ""distractor2"", ""distractor3"")",NA,NA,NA,NA,NA,NA,NA,NA,NA,NA,NA,NA,NA,NA,NA,NA,NA,NA,NA
e9456,Shallow Question,html.Page,2_15_0_0,NA,NA,form submission,3039,2371853,2371849,2371866,2374905,2374905,2023-09-20T20:19:04Z,2374932,Vergnügen,kichekesho,d,dubwana,mpanuko,mtesaji,mpanuko,NA,NA,"c(""distractor1"", ""distractor2"", ""distractor3"")",NA,NA,NA,NA,NA,NA,NA,NA,NA,NA,NA,NA,NA,NA,NA,NA,NA,NA,NA
e9456,Save data screen,canvas.Screen,2_15_0_1,NA,NA,timeout,501,2374907,2374916,2374932,2375416,2375416,2023-09-20T20:19:04Z,2375433,Vergnügen,kichekesho,d,dubwana,mpanuko,mtesaji,NA,NA,0,"c(""distractor1"", ""distractor2"", ""distractor3"")",NA,NA,NA,NA,NA,NA,NA,NA,NA,NA,NA,NA,NA,NA,NA,NA,NA,NA,NA
e9456,shallow,flow.Sequence,2_15_0,NA,NA,completion,3550,2371852,2371849,2371866,2375416,2375420,2023-09-20T20:19:04Z,2375433,Vergnügen,kichekesho,d,dubwana,mpanuko,mtesaji,NA,NA,NA,"c(""distractor1"", ""distractor2"", ""distractor3"")",NA,NA,NA,NA,NA,NA,NA,NA,NA,NA,NA,NA,NA,NA,NA,NA,NA,NA,NA
e9456,task,flow.Sequence,2_15,NA,NA,completion,3550,2371852,2371849,2371866,2375416,2375421,2023-09-20T20:19:04Z,2375433,Vergnügen,kichekesho,d,dubwana,mpanuko,mtesaji,NA,NA,NA,"c(""distractor1"", ""distractor2"", ""distractor3"")",NA,NA,NA,NA,NA,NA,NA,NA,NA,NA,NA,NA,NA,NA,NA,NA,NA,NA,NA
e9456,retrieval block 2 (multiple choice),flow.Loop,2,NA,NA,completion,121902,2253481,2253478,2253514,2375416,2375421,2023-09-20T20:19:04Z,2375433,NA,NA,NA,NA,NA,NA,NA,NA,NA,"c(""distractor1"", ""distractor2"", ""distractor3"")",NA,NA,NA,NA,NA,NA,NA,NA,NA,NA,NA,NA,NA,NA,NA,NA,NA,NA,NA
e9456,End,canvas.Screen,3,NA,keypress(Space),response,2219,2375421,2375416,2375433,2377635,2377537,2023-09-20T20:19:06Z,2377566,NA,NA,NA,NA,NA,NA,NA,NA,NA,NULL,NA,NA,NA,NA,NA,NA,NA,NA,NA,NA,NA,NA,NA,NA,NA,NA,NA,NA,NA
e9456,root,flow.Sequence,NA,NA,NA,completion,2377301,302,317,334,2377635,2377539,2023-09-20T20:19:06Z,2377566,NA,NA,NA,NA,NA,NA,NA,NA,NA,NULL,NA,NA,NA,NA,NA,NA,NA,NA,NA,NA,NA,NA,NA,NA,NA,NA,NA,NA,NA
