observation,sender,sender_type,sender_id,response,response_action,ended_on,duration,time_run,time_render,time_show,time_end,time_commit,timestamp,time_switch,distractors,german,swahili,enc,distractor1,distractor2,distractor3,response_2,x,correct,x_2,url_vp,url_sess,meta_labjs_version,meta_location,meta_user_agent,meta_platform,meta_language,meta_locale,meta_time_zone,meta_timezone_offset,meta_screen_width,meta_screen_height,meta_scroll_width,meta_scroll_height,meta_window_inner_width,meta_window_inner_height,meta_device_pixel_ratio,meta_labjs_build_flavor,meta_labjs_build_commit
e3492,Introduction general,canvas.Screen,0,weiter,keypress(q),response,54685.58,665,658.76,675.42,55361,55379,2023-09-16T17:19:09Z,55380.14,NULL,NA,NA,NA,NA,NA,NA,NA,NA,NA,NA,145,3,20.2.4,https://neurocog.fernuni.ch/studies/vweber/jbaenninger/encoding_immediate/index.html?vp=145&sess=3,Mozilla/5.0 (Windows NT 10.0; Win64; x64; rv:109.0) Gecko/20100101 Firefox/117.0,Win32,de,de-CH,Europe/Zurich,-120,1500,1000,1500,827,1500,875,2,production,f5b4a49f956347addd546a832a3327688c2c0fef
e3492,Introduction practice,canvas.Screen,1_0,NA,keypress(Space),response,3276.86,55380,55379.98,55380.14,58657,58669,2023-09-16T17:19:12Z,58673.2,NULL,NA,NA,NA,NA,NA,NA,NA,NA,NA,NA,NA,NA,NA,NA,NA,NA,NA,NA,NA,NA,NA,NA,NA,NA,NA,NA,NA,NA,NA
e3492,Deep Question,html.Page,1_1_0_0_0,NA,NA,form submission,13294.8,58670,58670.16,58673.2,71968,71969,2023-09-16T17:19:25Z,71976.46,"c(""distractor1"", ""distractor2"", ""distractor3"")",Gesundheit,salama,d,NA,NA,NA,fmnkldshglkd,NA,NA,NA,NA,NA,NA,NA,NA,NA,NA,NA,NA,NA,NA,NA,NA,NA,NA,NA,NA,NA,NA
e3492,"""Richtig""-Screen",canvas.Screen,1_1_0_0_1,NA,NA,skipped,NA,71973,NA,NA,71968,71973,2023-09-16T17:19:25Z,71976.46,"c(""distractor1"", ""distractor2"", ""distractor3"")",Gesundheit,salama,d,NA,NA,NA,NA,NA,NA,NA,NA,NA,NA,NA,NA,NA,NA,NA,NA,NA,NA,NA,NA,NA,NA,NA,NA,NA,NA
e3492,"""Falsch""-Screen",canvas.Screen,1_1_0_0_2,NA,NA,timeout,5001.26,71976,71964.56,71976.46,76961.06,76968,2023-09-16T17:19:30Z,76977.72,"c(""distractor1"", ""distractor2"", ""distractor3"")",Gesundheit,salama,d,NA,NA,NA,NA,NA,0,NA,NA,NA,NA,NA,NA,NA,NA,NA,NA,NA,NA,NA,NA,NA,NA,NA,NA,NA,NA
e3492,deep,flow.Sequence,1_1_0_0,NA,NA,completion,18287.86,58670,58670.16,58673.2,76961.06,76973,2023-09-16T17:19:30Z,76977.72,"c(""distractor1"", ""distractor2"", ""distractor3"")",Gesundheit,salama,d,NA,NA,NA,NA,NA,NA,NA,NA,NA,NA,NA,NA,NA,NA,NA,NA,NA,NA,NA,NA,NA,NA,NA,NA,NA,NA
e3492,shallow,flow.Sequence,1_1_0_1,NA,NA,skipped,NA,76974,NA,NA,76961.06,76974,2023-09-16T17:19:30Z,76977.72,"c(""distractor1"", ""distractor2"", ""distractor3"")",Gesundheit,salama,d,NA,NA,NA,NA,NA,NA,NA,NA,NA,NA,NA,NA,NA,NA,NA,NA,NA,NA,NA,NA,NA,NA,NA,NA,NA,NA
e3492,task,flow.Sequence,1_1_0,NA,NA,completion,18287.86,58670,58670.16,58673.2,76961.06,76975,2023-09-16T17:19:30Z,76977.72,"c(""distractor1"", ""distractor2"", ""distractor3"")",Gesundheit,salama,d,NA,NA,NA,NA,NA,NA,NA,NA,NA,NA,NA,NA,NA,NA,NA,NA,NA,NA,NA,NA,NA,NA,NA,NA,NA,NA
e3492,deep,flow.Sequence,1_1_1_0,NA,NA,skipped,NA,76976,NA,NA,76961.06,76977,2023-09-16T17:19:30Z,76977.72,"c(""distractor1"", ""distractor2"", ""distractor3"")",Kritik,lawama,s,dereva,nafasi,mawazo,NA,NA,NA,NA,NA,NA,NA,NA,NA,NA,NA,NA,NA,NA,NA,NA,NA,NA,NA,NA,NA,NA,NA
e3492,Shallow Question,html.Page,1_1_1_1_0,NA,NA,form submission,8334.28,76979,76961.06,76977.72,85312,85312,2023-09-16T17:19:39Z,85313.16,"c(""distractor1"", ""distractor2"", ""distractor3"")",Kritik,lawama,s,dereva,nafasi,mawazo,mawazo,NA,NA,NA,NA,NA,NA,NA,NA,NA,NA,NA,NA,NA,NA,NA,NA,NA,NA,NA,NA,NA,NA
e3492,"""Richtig""-Screen",canvas.Screen,1_1_1_1_1,NA,NA,skipped,NA,85317,NA,NA,85312,85318,2023-09-16T17:19:39Z,85313.16,"c(""distractor1"", ""distractor2"", ""distractor3"")",Kritik,lawama,s,dereva,nafasi,mawazo,NA,NA,NA,NA,NA,NA,NA,NA,NA,NA,NA,NA,NA,NA,NA,NA,NA,NA,NA,NA,NA,NA,NA
e3492,"""Falsch""-Screen",canvas.Screen,1_1_1_1_2,NA,NA,timeout,5001.24,85321,85309.86,85313.16,90297.74,90299,2023-09-16T17:19:44Z,90314.4,"c(""distractor1"", ""distractor2"", ""distractor3"")",Kritik,lawama,s,dereva,nafasi,mawazo,NA,NA,0,NA,NA,NA,NA,NA,NA,NA,NA,NA,NA,NA,NA,NA,NA,NA,NA,NA,NA,NA,NA
e3492,shallow,flow.Sequence,1_1_1_1,NA,NA,completion,13320.02,76979,76961.06,76977.72,90297.74,90301,2023-09-16T17:19:44Z,90314.4,"c(""distractor1"", ""distractor2"", ""distractor3"")",Kritik,lawama,s,dereva,nafasi,mawazo,NA,NA,NA,NA,NA,NA,NA,NA,NA,NA,NA,NA,NA,NA,NA,NA,NA,NA,NA,NA,NA,NA,NA
e3492,task,flow.Sequence,1_1_1,NA,NA,completion,13320.02,76976,76961.06,76977.72,90297.74,90302,2023-09-16T17:19:44Z,90314.4,"c(""distractor1"", ""distractor2"", ""distractor3"")",Kritik,lawama,s,dereva,nafasi,mawazo,NA,NA,NA,NA,NA,NA,NA,NA,NA,NA,NA,NA,NA,NA,NA,NA,NA,NA,NA,NA,NA,NA,NA
e3492,Deep Question,html.Page,1_1_2_0_0,NA,NA,form submission,4561.6,90303,90297.74,90314.4,94876,94877,2023-09-16T17:19:48Z,94882.18,"c(""distractor1"", ""distractor2"", ""distractor3"")",Qualität,mtindo,d,NA,NA,NA,fgnfh,NA,NA,NA,NA,NA,NA,NA,NA,NA,NA,NA,NA,NA,NA,NA,NA,NA,NA,NA,NA,NA,NA
e3492,"""Richtig""-Screen",canvas.Screen,1_1_2_0_1,NA,NA,skipped,NA,94879,NA,NA,94876,94880,2023-09-16T17:19:48Z,94882.18,"c(""distractor1"", ""distractor2"", ""distractor3"")",Qualität,mtindo,d,NA,NA,NA,NA,NA,NA,NA,NA,NA,NA,NA,NA,NA,NA,NA,NA,NA,NA,NA,NA,NA,NA,NA,NA,NA,NA
e3492,"""Falsch""-Screen",canvas.Screen,1_1_2_0_2,NA,NA,timeout,5001.36,94881,94874.96,94882.18,99866.86,99868,2023-09-16T17:19:53Z,99883.54,"c(""distractor1"", ""distractor2"", ""distractor3"")",Qualität,mtindo,d,NA,NA,NA,NA,NA,0,NA,NA,NA,NA,NA,NA,NA,NA,NA,NA,NA,NA,NA,NA,NA,NA,NA,NA,NA,NA
e3492,deep,flow.Sequence,1_1_2_0,NA,NA,completion,9552.46,90303,90297.74,90314.4,99866.86,99870,2023-09-16T17:19:53Z,99883.54,"c(""distractor1"", ""distractor2"", ""distractor3"")",Qualität,mtindo,d,NA,NA,NA,NA,NA,NA,NA,NA,NA,NA,NA,NA,NA,NA,NA,NA,NA,NA,NA,NA,NA,NA,NA,NA,NA,NA
e3492,shallow,flow.Sequence,1_1_2_1,NA,NA,skipped,NA,99871,NA,NA,99866.86,99871,2023-09-16T17:19:53Z,99883.54,"c(""distractor1"", ""distractor2"", ""distractor3"")",Qualität,mtindo,d,NA,NA,NA,NA,NA,NA,NA,NA,NA,NA,NA,NA,NA,NA,NA,NA,NA,NA,NA,NA,NA,NA,NA,NA,NA,NA
e3492,task,flow.Sequence,1_1_2,NA,NA,completion,9552.46,90303,90297.74,90314.4,99866.86,99872,2023-09-16T17:19:53Z,99883.54,"c(""distractor1"", ""distractor2"", ""distractor3"")",Qualität,mtindo,d,NA,NA,NA,NA,NA,NA,NA,NA,NA,NA,NA,NA,NA,NA,NA,NA,NA,NA,NA,NA,NA,NA,NA,NA,NA,NA
e3492,deep,flow.Sequence,1_1_3_0,NA,NA,skipped,NA,99873,NA,NA,99866.86,99874,2023-09-16T17:19:53Z,99883.54,"c(""distractor1"", ""distractor2"", ""distractor3"")",Rückhalt,msaada,s,muhula,auwali,kiwimbe,NA,NA,NA,NA,NA,NA,NA,NA,NA,NA,NA,NA,NA,NA,NA,NA,NA,NA,NA,NA,NA,NA,NA
e3492,Shallow Question,html.Page,1_1_3_1_0,NA,NA,form submission,8657.46,99874,99866.86,99883.54,108541,108542,2023-09-16T17:20:02Z,108552.2,"c(""distractor1"", ""distractor2"", ""distractor3"")",Rückhalt,msaada,s,muhula,auwali,kiwimbe,auwali,NA,NA,NA,NA,NA,NA,NA,NA,NA,NA,NA,NA,NA,NA,NA,NA,NA,NA,NA,NA,NA,NA
e3492,"""Richtig""-Screen",canvas.Screen,1_1_3_1_1,NA,NA,skipped,NA,108544,NA,NA,108541,108544,2023-09-16T17:20:02Z,108552.2,"c(""distractor1"", ""distractor2"", ""distractor3"")",Rückhalt,msaada,s,muhula,auwali,kiwimbe,NA,NA,NA,NA,NA,NA,NA,NA,NA,NA,NA,NA,NA,NA,NA,NA,NA,NA,NA,NA,NA,NA,NA
e3492,"""Falsch""-Screen",canvas.Screen,1_1_3_1_2,NA,NA,timeout,5001.38,108547,108540.6,108552.2,113536.98,113543,2023-09-16T17:20:07Z,113553.58,"c(""distractor1"", ""distractor2"", ""distractor3"")",Rückhalt,msaada,s,muhula,auwali,kiwimbe,NA,NA,0,NA,NA,NA,NA,NA,NA,NA,NA,NA,NA,NA,NA,NA,NA,NA,NA,NA,NA,NA,NA
e3492,shallow,flow.Sequence,1_1_3_1,NA,NA,completion,13653.44,99874,99866.86,99883.54,113536.98,113550,2023-09-16T17:20:07Z,113553.58,"c(""distractor1"", ""distractor2"", ""distractor3"")",Rückhalt,msaada,s,muhula,auwali,kiwimbe,NA,NA,NA,NA,NA,NA,NA,NA,NA,NA,NA,NA,NA,NA,NA,NA,NA,NA,NA,NA,NA,NA,NA
e3492,task,flow.Sequence,1_1_3,NA,NA,completion,13653.44,99873,99866.86,99883.54,113536.98,113553,2023-09-16T17:20:07Z,113553.58,"c(""distractor1"", ""distractor2"", ""distractor3"")",Rückhalt,msaada,s,muhula,auwali,kiwimbe,NA,NA,NA,NA,NA,NA,NA,NA,NA,NA,NA,NA,NA,NA,NA,NA,NA,NA,NA,NA,NA,NA,NA
e3492,deep,flow.Sequence,1_1_4_0,NA,NA,skipped,NA,113556,NA,NA,113536.98,113557,2023-09-16T17:20:07Z,113553.58,"c(""distractor1"", ""distractor2"", ""distractor3"")",Gegenwart,hadhara,s,katiba,jokofu,mikopo,NA,NA,NA,NA,NA,NA,NA,NA,NA,NA,NA,NA,NA,NA,NA,NA,NA,NA,NA,NA,NA,NA,NA
e3492,Shallow Question,html.Page,1_1_4_1_0,NA,NA,form submission,9316.42,113558,113536.98,113553.58,122870,122870,2023-09-16T17:20:16Z,122872.46,"c(""distractor1"", ""distractor2"", ""distractor3"")",Gegenwart,hadhara,s,katiba,jokofu,mikopo,hadhara,NA,NA,NA,NA,NA,NA,NA,NA,NA,NA,NA,NA,NA,NA,NA,NA,NA,NA,NA,NA,NA,NA
e3492,"""Richtig""-Screen",canvas.Screen,1_1_4_1_1,NA,NA,timeout,5001.24,122876,122867.9,122872.46,127857.04,127859,2023-09-16T17:20:21Z,127873.7,"c(""distractor1"", ""distractor2"", ""distractor3"")",Gegenwart,hadhara,s,katiba,jokofu,mikopo,NA,NA,1,NA,NA,NA,NA,NA,NA,NA,NA,NA,NA,NA,NA,NA,NA,NA,NA,NA,NA,NA,NA
e3492,"""Falsch""-Screen",canvas.Screen,1_1_4_1_2,NA,NA,skipped,NA,127868,NA,NA,127857.04,127868,2023-09-16T17:20:21Z,127873.7,"c(""distractor1"", ""distractor2"", ""distractor3"")",Gegenwart,hadhara,s,katiba,jokofu,mikopo,NA,NA,NA,NA,NA,NA,NA,NA,NA,NA,NA,NA,NA,NA,NA,NA,NA,NA,NA,NA,NA,NA,NA
e3492,shallow,flow.Sequence,1_1_4_1,NA,NA,completion,14303.46,113557,113536.98,113553.58,127857.04,127870,2023-09-16T17:20:21Z,127873.7,"c(""distractor1"", ""distractor2"", ""distractor3"")",Gegenwart,hadhara,s,katiba,jokofu,mikopo,NA,NA,NA,NA,NA,NA,NA,NA,NA,NA,NA,NA,NA,NA,NA,NA,NA,NA,NA,NA,NA,NA,NA
e3492,task,flow.Sequence,1_1_4,NA,NA,completion,14303.46,113555,113536.98,113553.58,127857.04,127872,2023-09-16T17:20:21Z,127873.7,"c(""distractor1"", ""distractor2"", ""distractor3"")",Gegenwart,hadhara,s,katiba,jokofu,mikopo,NA,NA,NA,NA,NA,NA,NA,NA,NA,NA,NA,NA,NA,NA,NA,NA,NA,NA,NA,NA,NA,NA,NA
e3492,Deep Question,html.Page,1_1_5_0_0,NA,NA,form submission,3411.3,127874,127857.04,127873.7,131285,131286,2023-09-16T17:20:24Z,131291.22,"c(""distractor1"", ""distractor2"", ""distractor3"")",Schatten,kivuli,d,NA,NA,NA,fgjgkgh,NA,NA,NA,NA,NA,NA,NA,NA,NA,NA,NA,NA,NA,NA,NA,NA,NA,NA,NA,NA,NA,NA
e3492,"""Richtig""-Screen",canvas.Screen,1_1_5_0_1,NA,NA,skipped,NA,131288,NA,NA,131285,131288,2023-09-16T17:20:25Z,131291.22,"c(""distractor1"", ""distractor2"", ""distractor3"")",Schatten,kivuli,d,NA,NA,NA,NA,NA,NA,NA,NA,NA,NA,NA,NA,NA,NA,NA,NA,NA,NA,NA,NA,NA,NA,NA,NA,NA,NA
e3492,"""Falsch""-Screen",canvas.Screen,1_1_5_0_2,NA,NA,timeout,5001.28,131290,131283.82,131291.22,136275.82,136278,2023-09-16T17:20:29Z,136292.5,"c(""distractor1"", ""distractor2"", ""distractor3"")",Schatten,kivuli,d,NA,NA,NA,NA,NA,0,NA,NA,NA,NA,NA,NA,NA,NA,NA,NA,NA,NA,NA,NA,NA,NA,NA,NA,NA,NA
e3492,deep,flow.Sequence,1_1_5_0,NA,NA,completion,8402.12,127874,127857.04,127873.7,136275.82,136280,2023-09-16T17:20:29Z,136292.5,"c(""distractor1"", ""distractor2"", ""distractor3"")",Schatten,kivuli,d,NA,NA,NA,NA,NA,NA,NA,NA,NA,NA,NA,NA,NA,NA,NA,NA,NA,NA,NA,NA,NA,NA,NA,NA,NA,NA
e3492,shallow,flow.Sequence,1_1_5_1,NA,NA,skipped,NA,136280,NA,NA,136275.82,136281,2023-09-16T17:20:29Z,136292.5,"c(""distractor1"", ""distractor2"", ""distractor3"")",Schatten,kivuli,d,NA,NA,NA,NA,NA,NA,NA,NA,NA,NA,NA,NA,NA,NA,NA,NA,NA,NA,NA,NA,NA,NA,NA,NA,NA,NA
e3492,task,flow.Sequence,1_1_5,NA,NA,completion,8402.12,127874,127857.04,127873.7,136275.82,136282,2023-09-16T17:20:29Z,136292.5,"c(""distractor1"", ""distractor2"", ""distractor3"")",Schatten,kivuli,d,NA,NA,NA,NA,NA,NA,NA,NA,NA,NA,NA,NA,NA,NA,NA,NA,NA,NA,NA,NA,NA,NA,NA,NA,NA,NA
e3492,block,flow.Loop,1_1,NA,NA,completion,77602.62,58670,58670.16,58673.2,136275.82,136283,2023-09-16T17:20:29Z,136292.5,"c(""distractor1"", ""distractor2"", ""distractor3"")",NA,NA,NA,NA,NA,NA,NA,NA,NA,NA,NA,NA,NA,NA,NA,NA,NA,NA,NA,NA,NA,NA,NA,NA,NA,NA,NA,NA,NA
e3492,Practice,flow.Sequence,1,NA,NA,completion,80895.68,55380,55379.98,55380.14,136275.82,136283,2023-09-16T17:20:29Z,136292.5,NULL,NA,NA,NA,NA,NA,NA,NA,NA,NA,NA,NA,NA,NA,NA,NA,NA,NA,NA,NA,NA,NA,NA,NA,NA,NA,NA,NA,NA,NA
e3492,Experiment start,canvas.Screen,2,weiter,keypress(q),response,20271.5,136283,136275.82,136292.5,156564,156573,2023-09-16T17:20:50Z,156682.48,NULL,NA,NA,NA,NA,NA,NA,NA,NA,NA,NA,NA,NA,NA,NA,NA,NA,NA,NA,NA,NA,NA,NA,NA,NA,NA,NA,NA,NA,NA
e3492,deep,flow.Sequence,3_0_0_0_0_0,NA,NA,skipped,NA,156681,NA,NA,156564,156682,2023-09-16T17:20:50Z,156682.48,NULL,Können,unaweza,s,kiongozi,bustani,mienendo,NA,sdf,NA,0,NA,NA,NA,NA,NA,NA,NA,NA,NA,NA,NA,NA,NA,NA,NA,NA,NA,NA,NA
e3492,Shallow Question,html.Page,3_0_0_0_0_1_0,NA,NA,form submission,8815.52,156682,156682.2,156682.48,165498,165498,2023-09-16T17:20:59Z,165499.7,NULL,Können,unaweza,s,kiongozi,bustani,mienendo,kiongozi,NA,NA,0,NA,NA,NA,NA,NA,NA,NA,NA,NA,NA,NA,NA,NA,NA,NA,NA,NA,NA,NA
e3492,"""Richtig""-Screen",canvas.Screen,3_0_0_0_0_1_1,NA,NA,skipped,NA,165500,NA,NA,165498,165500,2023-09-16T17:20:59Z,165499.7,NULL,Können,unaweza,s,kiongozi,bustani,mienendo,NA,sdf,NA,0,NA,NA,NA,NA,NA,NA,NA,NA,NA,NA,NA,NA,NA,NA,NA,NA,NA,NA,NA
e3492,"""Falsch""-Screen",canvas.Screen,3_0_0_0_0_1_2,NA,NA,timeout,5001.38,165503,165499.7,165499.7,170484.4,170491,2023-09-16T17:21:04Z,170501.08,NULL,Können,unaweza,s,kiongozi,bustani,mienendo,NA,sdf,0,0,NA,NA,NA,NA,NA,NA,NA,NA,NA,NA,NA,NA,NA,NA,NA,NA,NA,NA,NA
e3492,shallow,flow.Sequence,3_0_0_0_0_1,NA,NA,completion,13801.92,156682,156682.2,156682.48,170484.4,170493,2023-09-16T17:21:04Z,170501.08,NULL,Können,unaweza,s,kiongozi,bustani,mienendo,NA,sdf,NA,0,NA,NA,NA,NA,NA,NA,NA,NA,NA,NA,NA,NA,NA,NA,NA,NA,NA,NA,NA
e3492,task,flow.Sequence,3_0_0_0_0,NA,NA,completion,13801.92,156681,156682.2,156682.48,170484.4,170494,2023-09-16T17:21:04Z,170501.08,NULL,Können,unaweza,s,kiongozi,bustani,mienendo,NA,sdf,NA,0,NA,NA,NA,NA,NA,NA,NA,NA,NA,NA,NA,NA,NA,NA,NA,NA,NA,NA,NA
e3492,deep,flow.Sequence,3_0_0_0_1_0,NA,NA,skipped,NA,170494,NA,NA,170484.4,170494,2023-09-16T17:21:04Z,170501.08,NULL,Respekt,heshima,s,changamnao,upinzani,ufanisi,NA,sdf,NA,0,NA,NA,NA,NA,NA,NA,NA,NA,NA,NA,NA,NA,NA,NA,NA,NA,NA,NA,NA
e3492,Shallow Question,html.Page,3_0_0_0_1_1_0,NA,NA,form submission,8107.92,170495,170484.4,170501.08,178609,178609,2023-09-16T17:21:12Z,178619.62,NULL,Respekt,heshima,s,changamnao,upinzani,ufanisi,heshima,NA,NA,0,NA,NA,NA,NA,NA,NA,NA,NA,NA,NA,NA,NA,NA,NA,NA,NA,NA,NA,NA
e3492,"""Richtig""-Screen",canvas.Screen,3_0_0_0_1_1_1,NA,NA,timeout,5001.36,178614,178607,178619.62,183604.32,183607,2023-09-16T17:21:17Z,183620.98,NULL,Respekt,heshima,s,changamnao,upinzani,ufanisi,NA,sdf,1,0,NA,NA,NA,NA,NA,NA,NA,NA,NA,NA,NA,NA,NA,NA,NA,NA,NA,NA,NA
e3492,"""Falsch""-Screen",canvas.Screen,3_0_0_0_1_1_2,NA,NA,skipped,NA,183620,NA,NA,183604.32,183623,2023-09-16T17:21:17Z,183620.98,NULL,Respekt,heshima,s,changamnao,upinzani,ufanisi,NA,sdf,NA,0,NA,NA,NA,NA,NA,NA,NA,NA,NA,NA,NA,NA,NA,NA,NA,NA,NA,NA,NA
e3492,shallow,flow.Sequence,3_0_0_0_1_1,NA,NA,completion,13103.24,170494,170484.4,170501.08,183604.32,183626,2023-09-16T17:21:17Z,183620.98,NULL,Respekt,heshima,s,changamnao,upinzani,ufanisi,NA,sdf,NA,0,NA,NA,NA,NA,NA,NA,NA,NA,NA,NA,NA,NA,NA,NA,NA,NA,NA,NA,NA
e3492,task,flow.Sequence,3_0_0_0_1,NA,NA,completion,13103.24,170494,170484.4,170501.08,183604.32,183627,2023-09-16T17:21:17Z,183620.98,NULL,Respekt,heshima,s,changamnao,upinzani,ufanisi,NA,sdf,NA,0,NA,NA,NA,NA,NA,NA,NA,NA,NA,NA,NA,NA,NA,NA,NA,NA,NA,NA,NA
e3492,deep,flow.Sequence,3_0_0_0_2_0,NA,NA,skipped,NA,183628,NA,NA,183604.32,183629,2023-09-16T17:21:17Z,183620.98,NULL,Kreativität,ubunifu,s,mratibu,mwendelezo,makubaliano,NA,sdf,NA,0,NA,NA,NA,NA,NA,NA,NA,NA,NA,NA,NA,NA,NA,NA,NA,NA,NA,NA,NA
e3492,Shallow Question,html.Page,3_0_0_0_2_1_0,NA,NA,form submission,10480.02,183630,183604.32,183620.98,194101,194101,2023-09-16T17:21:27Z,194106.8,NULL,Kreativität,ubunifu,s,mratibu,mwendelezo,makubaliano,makubaliano,NA,NA,0,NA,NA,NA,NA,NA,NA,NA,NA,NA,NA,NA,NA,NA,NA,NA,NA,NA,NA,NA
e3492,"""Richtig""-Screen",canvas.Screen,3_0_0_0_2_1_1,NA,NA,skipped,NA,194103,NA,NA,194101,194103,2023-09-16T17:21:27Z,194106.8,NULL,Kreativität,ubunifu,s,mratibu,mwendelezo,makubaliano,NA,sdf,NA,0,NA,NA,NA,NA,NA,NA,NA,NA,NA,NA,NA,NA,NA,NA,NA,NA,NA,NA,NA
e3492,"""Falsch""-Screen",canvas.Screen,3_0_0_0_2_1_2,NA,NA,timeout,5001.36,194106,194099.36,194106.8,199091.48,199093,2023-09-16T17:21:32Z,199108.16,NULL,Kreativität,ubunifu,s,mratibu,mwendelezo,makubaliano,NA,sdf,0,0,NA,NA,NA,NA,NA,NA,NA,NA,NA,NA,NA,NA,NA,NA,NA,NA,NA,NA,NA
e3492,shallow,flow.Sequence,3_0_0_0_2_1,NA,NA,completion,15470.5,183629,183604.32,183620.98,199091.48,199096,2023-09-16T17:21:32Z,199108.16,NULL,Kreativität,ubunifu,s,mratibu,mwendelezo,makubaliano,NA,sdf,NA,0,NA,NA,NA,NA,NA,NA,NA,NA,NA,NA,NA,NA,NA,NA,NA,NA,NA,NA,NA
e3492,task,flow.Sequence,3_0_0_0_2,NA,NA,completion,15470.5,183628,183604.32,183620.98,199091.48,199096,2023-09-16T17:21:32Z,199108.16,NULL,Kreativität,ubunifu,s,mratibu,mwendelezo,makubaliano,NA,sdf,NA,0,NA,NA,NA,NA,NA,NA,NA,NA,NA,NA,NA,NA,NA,NA,NA,NA,NA,NA,NA
e3492,Deep Question,html.Page,3_0_0_0_3_0_0,NA,NA,form submission,3534.84,199099,199091.48,199108.16,202643,202644,2023-09-16T17:21:36Z,202658.94,NULL,Kontrolle,kudhibiti,d,NA,NA,NA,jvgtzjgzu,NA,NA,0,NA,NA,NA,NA,NA,NA,NA,NA,NA,NA,NA,NA,NA,NA,NA,NA,NA,NA,NA
e3492,"""Richtig""-Screen",canvas.Screen,3_0_0_0_3_0_1,NA,NA,skipped,NA,202646,NA,NA,202643,202646,2023-09-16T17:21:36Z,202658.94,NULL,Kontrolle,kudhibiti,d,NA,NA,NA,NA,sdf,NA,0,NA,NA,NA,NA,NA,NA,NA,NA,NA,NA,NA,NA,NA,NA,NA,NA,NA,NA,NA
e3492,"""Falsch""-Screen",canvas.Screen,3_0_0_0_3_0_2,NA,NA,timeout,5001.18,202649,202642.36,202658.94,207643.66,207650,2023-09-16T17:21:41Z,207660.12,NULL,Kontrolle,kudhibiti,d,NA,NA,NA,NA,sdf,0,0,NA,NA,NA,NA,NA,NA,NA,NA,NA,NA,NA,NA,NA,NA,NA,NA,NA,NA,NA
e3492,deep,flow.Sequence,3_0_0_0_3_0,NA,NA,completion,8535.5,199099,199091.48,199108.16,207643.66,207655,2023-09-16T17:21:41Z,207660.12,NULL,Kontrolle,kudhibiti,d,NA,NA,NA,NA,sdf,NA,0,NA,NA,NA,NA,NA,NA,NA,NA,NA,NA,NA,NA,NA,NA,NA,NA,NA,NA,NA
e3492,shallow,flow.Sequence,3_0_0_0_3_1,NA,NA,skipped,NA,207657,NA,NA,207643.66,207658,2023-09-16T17:21:41Z,207660.12,NULL,Kontrolle,kudhibiti,d,NA,NA,NA,NA,sdf,NA,0,NA,NA,NA,NA,NA,NA,NA,NA,NA,NA,NA,NA,NA,NA,NA,NA,NA,NA,NA
e3492,task,flow.Sequence,3_0_0_0_3,NA,NA,completion,8535.5,199098,199091.48,199108.16,207643.66,207660,2023-09-16T17:21:41Z,207660.12,NULL,Kontrolle,kudhibiti,d,NA,NA,NA,NA,sdf,NA,0,NA,NA,NA,NA,NA,NA,NA,NA,NA,NA,NA,NA,NA,NA,NA,NA,NA,NA,NA
e3492,Deep Question,html.Page,3_0_0_0_4_0_0,NA,NA,form submission,3963.88,207662,207643.66,207660.12,211624,211624,2023-09-16T17:21:45Z,211627.82,NULL,Betrüger,mdanganyifu,d,NA,NA,NA,bfdhrdh,NA,NA,0,NA,NA,NA,NA,NA,NA,NA,NA,NA,NA,NA,NA,NA,NA,NA,NA,NA,NA,NA
e3492,"""Richtig""-Screen",canvas.Screen,3_0_0_0_4_0_1,NA,NA,skipped,NA,211630,NA,NA,211624,211630,2023-09-16T17:21:45Z,211627.82,NULL,Betrüger,mdanganyifu,d,NA,NA,NA,NA,sdf,NA,0,NA,NA,NA,NA,NA,NA,NA,NA,NA,NA,NA,NA,NA,NA,NA,NA,NA,NA,NA
e3492,"""Falsch""-Screen",canvas.Screen,3_0_0_0_4_0_2,NA,NA,timeout,5001.3,211632,211621.92,211627.82,216612.44,216615,2023-09-16T17:21:50Z,216629.12,NULL,Betrüger,mdanganyifu,d,NA,NA,NA,NA,sdf,0,0,NA,NA,NA,NA,NA,NA,NA,NA,NA,NA,NA,NA,NA,NA,NA,NA,NA,NA,NA
e3492,deep,flow.Sequence,3_0_0_0_4_0,NA,NA,completion,8952.32,207662,207643.66,207660.12,216612.44,216616,2023-09-16T17:21:50Z,216629.12,NULL,Betrüger,mdanganyifu,d,NA,NA,NA,NA,sdf,NA,0,NA,NA,NA,NA,NA,NA,NA,NA,NA,NA,NA,NA,NA,NA,NA,NA,NA,NA,NA
e3492,shallow,flow.Sequence,3_0_0_0_4_1,NA,NA,skipped,NA,216617,NA,NA,216612.44,216618,2023-09-16T17:21:50Z,216629.12,NULL,Betrüger,mdanganyifu,d,NA,NA,NA,NA,sdf,NA,0,NA,NA,NA,NA,NA,NA,NA,NA,NA,NA,NA,NA,NA,NA,NA,NA,NA,NA,NA
e3492,task,flow.Sequence,3_0_0_0_4,NA,NA,completion,8952.32,207661,207643.66,207660.12,216612.44,216620,2023-09-16T17:21:50Z,216629.12,NULL,Betrüger,mdanganyifu,d,NA,NA,NA,NA,sdf,NA,0,NA,NA,NA,NA,NA,NA,NA,NA,NA,NA,NA,NA,NA,NA,NA,NA,NA,NA,NA
e3492,Deep Question,html.Page,3_0_0_0_5_0_0,NA,NA,form submission,5163.88,216622,216612.44,216629.12,221793,221793,2023-09-16T17:21:55Z,221797.04,NULL,Gefährdung,kuhatarisha,d,NA,NA,NA,brdhrthz,NA,NA,0,NA,NA,NA,NA,NA,NA,NA,NA,NA,NA,NA,NA,NA,NA,NA,NA,NA,NA,NA
e3492,"""Richtig""-Screen",canvas.Screen,3_0_0_0_5_0_1,NA,NA,skipped,NA,221796,NA,NA,221793,221796,2023-09-16T17:21:55Z,221797.04,NULL,Gefährdung,kuhatarisha,d,NA,NA,NA,NA,sdf,NA,0,NA,NA,NA,NA,NA,NA,NA,NA,NA,NA,NA,NA,NA,NA,NA,NA,NA,NA,NA
e3492,"""Falsch""-Screen",canvas.Screen,3_0_0_0_5_0_2,NA,NA,timeout,5001.24,221799,221791.66,221797.04,226781.6,226784,2023-09-16T17:22:00Z,226798.28,NULL,Gefährdung,kuhatarisha,d,NA,NA,NA,NA,sdf,0,0,NA,NA,NA,NA,NA,NA,NA,NA,NA,NA,NA,NA,NA,NA,NA,NA,NA,NA,NA
e3492,deep,flow.Sequence,3_0_0_0_5_0,NA,NA,completion,10152.48,216622,216612.44,216629.12,226781.6,226787,2023-09-16T17:22:00Z,226798.28,NULL,Gefährdung,kuhatarisha,d,NA,NA,NA,NA,sdf,NA,0,NA,NA,NA,NA,NA,NA,NA,NA,NA,NA,NA,NA,NA,NA,NA,NA,NA,NA,NA
e3492,shallow,flow.Sequence,3_0_0_0_5_1,NA,NA,skipped,NA,226787,NA,NA,226781.6,226788,2023-09-16T17:22:00Z,226798.28,NULL,Gefährdung,kuhatarisha,d,NA,NA,NA,NA,sdf,NA,0,NA,NA,NA,NA,NA,NA,NA,NA,NA,NA,NA,NA,NA,NA,NA,NA,NA,NA,NA
e3492,task,flow.Sequence,3_0_0_0_5,NA,NA,completion,10152.48,216621,216612.44,216629.12,226781.6,226788,2023-09-16T17:22:00Z,226798.28,NULL,Gefährdung,kuhatarisha,d,NA,NA,NA,NA,sdf,NA,0,NA,NA,NA,NA,NA,NA,NA,NA,NA,NA,NA,NA,NA,NA,NA,NA,NA,NA,NA
e3492,deep,flow.Sequence,3_0_0_0_6_0,NA,NA,skipped,NA,226789,NA,NA,226781.6,226789,2023-09-16T17:22:00Z,226798.28,NULL,Orientierung,urekebisho,s,uelekeo,marekebisho,utunzaji,NA,sdf,NA,0,NA,NA,NA,NA,NA,NA,NA,NA,NA,NA,NA,NA,NA,NA,NA,NA,NA,NA,NA
e3492,Shallow Question,html.Page,3_0_0_0_6_1_0,NA,NA,form submission,7328.72,226791,226781.6,226798.28,234127,234127,2023-09-16T17:22:07Z,234133.4,NULL,Orientierung,urekebisho,s,uelekeo,marekebisho,utunzaji,uelekeo,NA,NA,0,NA,NA,NA,NA,NA,NA,NA,NA,NA,NA,NA,NA,NA,NA,NA,NA,NA,NA,NA
e3492,"""Richtig""-Screen",canvas.Screen,3_0_0_0_6_1_1,NA,NA,skipped,NA,234129,NA,NA,234127,234129,2023-09-16T17:22:07Z,234133.4,NULL,Orientierung,urekebisho,s,uelekeo,marekebisho,utunzaji,NA,sdf,NA,0,NA,NA,NA,NA,NA,NA,NA,NA,NA,NA,NA,NA,NA,NA,NA,NA,NA,NA,NA
e3492,"""Falsch""-Screen",canvas.Screen,3_0_0_0_6_1_2,NA,NA,timeout,5001.32,234132,234125.54,234133.4,239118.1,239119,2023-09-16T17:22:12Z,239134.72,NULL,Orientierung,urekebisho,s,uelekeo,marekebisho,utunzaji,NA,sdf,0,0,NA,NA,NA,NA,NA,NA,NA,NA,NA,NA,NA,NA,NA,NA,NA,NA,NA,NA,NA
e3492,shallow,flow.Sequence,3_0_0_0_6_1,NA,NA,completion,12319.82,226790,226781.6,226798.28,239118.1,239120,2023-09-16T17:22:12Z,239134.72,NULL,Orientierung,urekebisho,s,uelekeo,marekebisho,utunzaji,NA,sdf,NA,0,NA,NA,NA,NA,NA,NA,NA,NA,NA,NA,NA,NA,NA,NA,NA,NA,NA,NA,NA
e3492,task,flow.Sequence,3_0_0_0_6,NA,NA,completion,12319.82,226789,226781.6,226798.28,239118.1,239120,2023-09-16T17:22:12Z,239134.72,NULL,Orientierung,urekebisho,s,uelekeo,marekebisho,utunzaji,NA,sdf,NA,0,NA,NA,NA,NA,NA,NA,NA,NA,NA,NA,NA,NA,NA,NA,NA,NA,NA,NA,NA
e3492,Deep Question,html.Page,3_0_0_0_7_0_0,NA,NA,form submission,5597.28,239121,239118.1,239134.72,244732,244732,2023-09-16T17:22:18Z,244736.04,NULL,Stimmung,kinyongo,d,NA,NA,NA,gjkfkfj,NA,NA,0,NA,NA,NA,NA,NA,NA,NA,NA,NA,NA,NA,NA,NA,NA,NA,NA,NA,NA,NA
e3492,"""Richtig""-Screen",canvas.Screen,3_0_0_0_7_0_1,NA,NA,skipped,NA,244735,NA,NA,244732,244735,2023-09-16T17:22:18Z,244736.04,NULL,Stimmung,kinyongo,d,NA,NA,NA,NA,sdf,NA,0,NA,NA,NA,NA,NA,NA,NA,NA,NA,NA,NA,NA,NA,NA,NA,NA,NA,NA,NA
e3492,"""Falsch""-Screen",canvas.Screen,3_0_0_0_7_0_2,NA,NA,timeout,5001.24,244737,244730.76,244736.04,249720.62,249722,2023-09-16T17:22:23Z,249737.28,NULL,Stimmung,kinyongo,d,NA,NA,NA,NA,sdf,0,0,NA,NA,NA,NA,NA,NA,NA,NA,NA,NA,NA,NA,NA,NA,NA,NA,NA,NA,NA
e3492,deep,flow.Sequence,3_0_0_0_7_0,NA,NA,completion,10585.9,239121,239118.1,239134.72,249720.62,249723,2023-09-16T17:22:23Z,249737.28,NULL,Stimmung,kinyongo,d,NA,NA,NA,NA,sdf,NA,0,NA,NA,NA,NA,NA,NA,NA,NA,NA,NA,NA,NA,NA,NA,NA,NA,NA,NA,NA
e3492,shallow,flow.Sequence,3_0_0_0_7_1,NA,NA,skipped,NA,249724,NA,NA,249720.62,249724,2023-09-16T17:22:23Z,249737.28,NULL,Stimmung,kinyongo,d,NA,NA,NA,NA,sdf,NA,0,NA,NA,NA,NA,NA,NA,NA,NA,NA,NA,NA,NA,NA,NA,NA,NA,NA,NA,NA
e3492,task,flow.Sequence,3_0_0_0_7,NA,NA,completion,10585.9,239121,239118.1,239134.72,249720.62,249725,2023-09-16T17:22:23Z,249737.28,NULL,Stimmung,kinyongo,d,NA,NA,NA,NA,sdf,NA,0,NA,NA,NA,NA,NA,NA,NA,NA,NA,NA,NA,NA,NA,NA,NA,NA,NA,NA,NA
e3492,block,flow.Loop,3_0_0_0,NA,NA,completion,93038.14,156681,156682.2,156682.48,249720.62,249725,2023-09-16T17:22:23Z,249737.28,NULL,NA,NA,NA,NA,NA,NA,NA,sdf,NA,0,NA,NA,NA,NA,NA,NA,NA,NA,NA,NA,NA,NA,NA,NA,NA,NA,NA,NA,NA
e3492,weiter,canvas.Screen,3_0_0_1,sdf,keypress(Space),response,1155.72,249725,249720.62,249737.28,250893,250899,2023-09-16T17:22:24Z,250954.28,NULL,NA,NA,NA,NA,NA,NA,NA,sdf,NA,0,NA,NA,NA,NA,NA,NA,NA,NA,NA,NA,NA,NA,NA,NA,NA,NA,NA,NA,NA
e3492,check continue,flow.Sequence,3_0_0,NA,NA,completion,94210.52,156681,156682.2,156682.48,250893,250899,2023-09-16T17:22:24Z,250954.28,NULL,NA,NA,NA,NA,NA,NA,NA,sdf,NA,0,NA,NA,NA,NA,NA,NA,NA,NA,NA,NA,NA,NA,NA,NA,NA,NA,NA,NA,NA
e3492,deep,flow.Sequence,3_0_1_0_0_0,NA,NA,skipped,NA,250953,NA,NA,250893,250953,2023-09-16T17:22:24Z,250954.28,NULL,Respekt,heshima,s,changamnao,upinzani,ufanisi,NA,sdfdsf,NA,1,NA,NA,NA,NA,NA,NA,NA,NA,NA,NA,NA,NA,NA,NA,NA,NA,NA,NA,NA
e3492,Shallow Question,html.Page,3_0_1_0_0_1_0,NA,NA,form submission,9837.72,250953,250952.56,250954.28,260792,260792,2023-09-16T17:22:34Z,260806.68,NULL,Respekt,heshima,s,changamnao,upinzani,ufanisi,heshima,NA,NA,1,NA,NA,NA,NA,NA,NA,NA,NA,NA,NA,NA,NA,NA,NA,NA,NA,NA,NA,NA
e3492,"""Richtig""-Screen",canvas.Screen,3_0_1_0_0_1_1,NA,NA,timeout,5001.22,260794,260790.76,260806.68,265791.24,265794,2023-09-16T17:22:39Z,265807.9,NULL,Respekt,heshima,s,changamnao,upinzani,ufanisi,NA,sdfdsf,1,1,NA,NA,NA,NA,NA,NA,NA,NA,NA,NA,NA,NA,NA,NA,NA,NA,NA,NA,NA
e3492,"""Falsch""-Screen",canvas.Screen,3_0_1_0_0_1_2,NA,NA,skipped,NA,265803,NA,NA,265791.24,265803,2023-09-16T17:22:39Z,265807.9,NULL,Respekt,heshima,s,changamnao,upinzani,ufanisi,NA,sdfdsf,NA,1,NA,NA,NA,NA,NA,NA,NA,NA,NA,NA,NA,NA,NA,NA,NA,NA,NA,NA,NA
e3492,shallow,flow.Sequence,3_0_1_0_0_1,NA,NA,completion,14836.96,250953,250952.56,250954.28,265791.24,265803,2023-09-16T17:22:39Z,265807.9,NULL,Respekt,heshima,s,changamnao,upinzani,ufanisi,NA,sdfdsf,NA,1,NA,NA,NA,NA,NA,NA,NA,NA,NA,NA,NA,NA,NA,NA,NA,NA,NA,NA,NA
e3492,task,flow.Sequence,3_0_1_0_0,NA,NA,completion,14836.96,250953,250952.56,250954.28,265791.24,265803,2023-09-16T17:22:39Z,265807.9,NULL,Respekt,heshima,s,changamnao,upinzani,ufanisi,NA,sdfdsf,NA,1,NA,NA,NA,NA,NA,NA,NA,NA,NA,NA,NA,NA,NA,NA,NA,NA,NA,NA,NA
e3492,deep,flow.Sequence,3_0_1_0_1_0,NA,NA,skipped,NA,265804,NA,NA,265791.24,265804,2023-09-16T17:22:39Z,265807.9,NULL,Können,unaweza,s,kiongozi,bustani,mienendo,NA,sdfdsf,NA,1,NA,NA,NA,NA,NA,NA,NA,NA,NA,NA,NA,NA,NA,NA,NA,NA,NA,NA,NA
e3492,Shallow Question,html.Page,3_0_1_0_1_1_0,NA,NA,form submission,6259.1,265804,265791.24,265807.9,272067,272067,2023-09-16T17:22:45Z,272076.12,NULL,Können,unaweza,s,kiongozi,bustani,mienendo,unaweza,NA,NA,1,NA,NA,NA,NA,NA,NA,NA,NA,NA,NA,NA,NA,NA,NA,NA,NA,NA,NA,NA
e3492,"""Richtig""-Screen",canvas.Screen,3_0_1_0_1_1_1,NA,NA,timeout,5001.3,272069,272064.54,272076.12,277060.74,277063,2023-09-16T17:22:50Z,277077.42,NULL,Können,unaweza,s,kiongozi,bustani,mienendo,NA,sdfdsf,1,1,NA,NA,NA,NA,NA,NA,NA,NA,NA,NA,NA,NA,NA,NA,NA,NA,NA,NA,NA
e3492,"""Falsch""-Screen",canvas.Screen,3_0_1_0_1_1_2,NA,NA,skipped,NA,277080,NA,NA,277060.74,277083,2023-09-16T17:22:50Z,277077.42,NULL,Können,unaweza,s,kiongozi,bustani,mienendo,NA,sdfdsf,NA,1,NA,NA,NA,NA,NA,NA,NA,NA,NA,NA,NA,NA,NA,NA,NA,NA,NA,NA,NA
e3492,shallow,flow.Sequence,3_0_1_0_1_1,NA,NA,completion,11252.84,265804,265791.24,265807.9,277060.74,277083,2023-09-16T17:22:50Z,277077.42,NULL,Können,unaweza,s,kiongozi,bustani,mienendo,NA,sdfdsf,NA,1,NA,NA,NA,NA,NA,NA,NA,NA,NA,NA,NA,NA,NA,NA,NA,NA,NA,NA,NA
e3492,task,flow.Sequence,3_0_1_0_1,NA,NA,completion,11252.84,265803,265791.24,265807.9,277060.74,277083,2023-09-16T17:22:50Z,277077.42,NULL,Können,unaweza,s,kiongozi,bustani,mienendo,NA,sdfdsf,NA,1,NA,NA,NA,NA,NA,NA,NA,NA,NA,NA,NA,NA,NA,NA,NA,NA,NA,NA,NA
e3492,Deep Question,html.Page,3_0_1_0_2_0_0,NA,NA,form submission,4620.58,277084,277060.74,277077.42,281698,281698,2023-09-16T17:22:55Z,281711.9,NULL,Stimmung,kinyongo,d,NA,NA,NA,ghfghkii,NA,NA,1,NA,NA,NA,NA,NA,NA,NA,NA,NA,NA,NA,NA,NA,NA,NA,NA,NA,NA,NA
e3492,"""Richtig""-Screen",canvas.Screen,3_0_1_0_2_0_1,NA,NA,skipped,NA,281700,NA,NA,281698,281700,2023-09-16T17:22:55Z,281711.9,NULL,Stimmung,kinyongo,d,NA,NA,NA,NA,sdfdsf,NA,1,NA,NA,NA,NA,NA,NA,NA,NA,NA,NA,NA,NA,NA,NA,NA,NA,NA,NA,NA
e3492,"""Falsch""-Screen",canvas.Screen,3_0_1_0_2_0_2,NA,NA,timeout,5001.24,281702,281696.14,281711.9,286696.46,286698,2023-09-16T17:23:00Z,286713.14,NULL,Stimmung,kinyongo,d,NA,NA,NA,NA,sdfdsf,0,1,NA,NA,NA,NA,NA,NA,NA,NA,NA,NA,NA,NA,NA,NA,NA,NA,NA,NA,NA
e3492,deep,flow.Sequence,3_0_1_0_2_0,NA,NA,completion,9619.04,277084,277060.74,277077.42,286696.46,286700,2023-09-16T17:23:00Z,286713.14,NULL,Stimmung,kinyongo,d,NA,NA,NA,NA,sdfdsf,NA,1,NA,NA,NA,NA,NA,NA,NA,NA,NA,NA,NA,NA,NA,NA,NA,NA,NA,NA,NA
e3492,shallow,flow.Sequence,3_0_1_0_2_1,NA,NA,skipped,NA,286700,NA,NA,286696.46,286700,2023-09-16T17:23:00Z,286713.14,NULL,Stimmung,kinyongo,d,NA,NA,NA,NA,sdfdsf,NA,1,NA,NA,NA,NA,NA,NA,NA,NA,NA,NA,NA,NA,NA,NA,NA,NA,NA,NA,NA
e3492,task,flow.Sequence,3_0_1_0_2,NA,NA,completion,9619.04,277084,277060.74,277077.42,286696.46,286701,2023-09-16T17:23:00Z,286713.14,NULL,Stimmung,kinyongo,d,NA,NA,NA,NA,sdfdsf,NA,1,NA,NA,NA,NA,NA,NA,NA,NA,NA,NA,NA,NA,NA,NA,NA,NA,NA,NA,NA
e3492,deep,flow.Sequence,3_0_1_0_3_0,NA,NA,skipped,NA,286701,NA,NA,286696.46,286701,2023-09-16T17:23:00Z,286713.14,NULL,Kreativität,ubunifu,s,mratibu,mwendelezo,makubaliano,NA,sdfdsf,NA,1,NA,NA,NA,NA,NA,NA,NA,NA,NA,NA,NA,NA,NA,NA,NA,NA,NA,NA,NA
e3492,Shallow Question,html.Page,3_0_1_0_3_1_0,NA,NA,form submission,9057.86,286703,286696.46,286713.14,295771,295771,2023-09-16T17:23:09Z,295782.06,NULL,Kreativität,ubunifu,s,mratibu,mwendelezo,makubaliano,makubaliano,NA,NA,1,NA,NA,NA,NA,NA,NA,NA,NA,NA,NA,NA,NA,NA,NA,NA,NA,NA,NA,NA
e3492,"""Richtig""-Screen",canvas.Screen,3_0_1_0_3_1_1,NA,NA,skipped,NA,295774,NA,NA,295771,295774,2023-09-16T17:23:09Z,295782.06,NULL,Kreativität,ubunifu,s,mratibu,mwendelezo,makubaliano,NA,sdfdsf,NA,1,NA,NA,NA,NA,NA,NA,NA,NA,NA,NA,NA,NA,NA,NA,NA,NA,NA,NA,NA
e3492,"""Falsch""-Screen",canvas.Screen,3_0_1_0_3_1_2,NA,NA,timeout,5001.24,295776,295769.72,295782.06,300766.62,300773,2023-09-16T17:23:14Z,300783.3,NULL,Kreativität,ubunifu,s,mratibu,mwendelezo,makubaliano,NA,sdfdsf,0,1,NA,NA,NA,NA,NA,NA,NA,NA,NA,NA,NA,NA,NA,NA,NA,NA,NA,NA,NA
e3492,shallow,flow.Sequence,3_0_1_0_3_1,NA,NA,completion,14053.48,286703,286696.46,286713.14,300766.62,300777,2023-09-16T17:23:14Z,300783.3,NULL,Kreativität,ubunifu,s,mratibu,mwendelezo,makubaliano,NA,sdfdsf,NA,1,NA,NA,NA,NA,NA,NA,NA,NA,NA,NA,NA,NA,NA,NA,NA,NA,NA,NA,NA
e3492,task,flow.Sequence,3_0_1_0_3,NA,NA,completion,14053.48,286701,286696.46,286713.14,300766.62,300779,2023-09-16T17:23:14Z,300783.3,NULL,Kreativität,ubunifu,s,mratibu,mwendelezo,makubaliano,NA,sdfdsf,NA,1,NA,NA,NA,NA,NA,NA,NA,NA,NA,NA,NA,NA,NA,NA,NA,NA,NA,NA,NA
e3492,Deep Question,html.Page,3_0_1_0_4_0_0,NA,NA,form submission,6164.7,300783,300766.62,300783.3,306948,306948,2023-09-16T17:23:20Z,306951.48,NULL,Kontrolle,kudhibiti,d,NA,NA,NA,ffutfiriuz,NA,NA,1,NA,NA,NA,NA,NA,NA,NA,NA,NA,NA,NA,NA,NA,NA,NA,NA,NA,NA,NA
e3492,"""Richtig""-Screen",canvas.Screen,3_0_1_0_4_0_1,NA,NA,skipped,NA,306954,NA,NA,306948,306954,2023-09-16T17:23:20Z,306951.48,NULL,Kontrolle,kudhibiti,d,NA,NA,NA,NA,sdfdsf,NA,1,NA,NA,NA,NA,NA,NA,NA,NA,NA,NA,NA,NA,NA,NA,NA,NA,NA,NA,NA
e3492,"""Falsch""-Screen",canvas.Screen,3_0_1_0_4_0_2,NA,NA,timeout,5001.34,306957,306946.62,306951.48,311936.04,311938,2023-09-16T17:23:25Z,311952.82,NULL,Kontrolle,kudhibiti,d,NA,NA,NA,NA,sdfdsf,0,1,NA,NA,NA,NA,NA,NA,NA,NA,NA,NA,NA,NA,NA,NA,NA,NA,NA,NA,NA
e3492,deep,flow.Sequence,3_0_1_0_4_0,NA,NA,completion,11152.74,300783,300766.62,300783.3,311936.04,311940,2023-09-16T17:23:25Z,311952.82,NULL,Kontrolle,kudhibiti,d,NA,NA,NA,NA,sdfdsf,NA,1,NA,NA,NA,NA,NA,NA,NA,NA,NA,NA,NA,NA,NA,NA,NA,NA,NA,NA,NA
e3492,shallow,flow.Sequence,3_0_1_0_4_1,NA,NA,skipped,NA,311941,NA,NA,311936.04,311941,2023-09-16T17:23:25Z,311952.82,NULL,Kontrolle,kudhibiti,d,NA,NA,NA,NA,sdfdsf,NA,1,NA,NA,NA,NA,NA,NA,NA,NA,NA,NA,NA,NA,NA,NA,NA,NA,NA,NA,NA
e3492,task,flow.Sequence,3_0_1_0_4,NA,NA,completion,11152.74,300782,300766.62,300783.3,311936.04,311942,2023-09-16T17:23:25Z,311952.82,NULL,Kontrolle,kudhibiti,d,NA,NA,NA,NA,sdfdsf,NA,1,NA,NA,NA,NA,NA,NA,NA,NA,NA,NA,NA,NA,NA,NA,NA,NA,NA,NA,NA
e3492,Deep Question,html.Page,3_0_1_0_5_0_0,NA,NA,form submission,6379.18,311943,311936.04,311952.82,318332,318332,2023-09-16T17:23:32Z,318337.66,NULL,Gefährdung,kuhatarisha,d,NA,NA,NA,sgwkrghkjrt,NA,NA,1,NA,NA,NA,NA,NA,NA,NA,NA,NA,NA,NA,NA,NA,NA,NA,NA,NA,NA,NA
e3492,"""Richtig""-Screen",canvas.Screen,3_0_1_0_5_0_1,NA,NA,skipped,NA,318335,NA,NA,318332,318335,2023-09-16T17:23:32Z,318337.66,NULL,Gefährdung,kuhatarisha,d,NA,NA,NA,NA,sdfdsf,NA,1,NA,NA,NA,NA,NA,NA,NA,NA,NA,NA,NA,NA,NA,NA,NA,NA,NA,NA,NA
e3492,"""Falsch""-Screen",canvas.Screen,3_0_1_0_5_0_2,NA,NA,timeout,5001.3,318337,318330.5,318337.66,323322.22,323325,2023-09-16T17:23:37Z,323338.96,NULL,Gefährdung,kuhatarisha,d,NA,NA,NA,NA,sdfdsf,0,1,NA,NA,NA,NA,NA,NA,NA,NA,NA,NA,NA,NA,NA,NA,NA,NA,NA,NA,NA
e3492,deep,flow.Sequence,3_0_1_0_5_0,NA,NA,completion,11369.4,311943,311936.04,311952.82,323322.22,323326,2023-09-16T17:23:37Z,323338.96,NULL,Gefährdung,kuhatarisha,d,NA,NA,NA,NA,sdfdsf,NA,1,NA,NA,NA,NA,NA,NA,NA,NA,NA,NA,NA,NA,NA,NA,NA,NA,NA,NA,NA
e3492,shallow,flow.Sequence,3_0_1_0_5_1,NA,NA,skipped,NA,323327,NA,NA,323322.22,323327,2023-09-16T17:23:37Z,323338.96,NULL,Gefährdung,kuhatarisha,d,NA,NA,NA,NA,sdfdsf,NA,1,NA,NA,NA,NA,NA,NA,NA,NA,NA,NA,NA,NA,NA,NA,NA,NA,NA,NA,NA
e3492,task,flow.Sequence,3_0_1_0_5,NA,NA,completion,11369.4,311943,311936.04,311952.82,323322.22,323328,2023-09-16T17:23:37Z,323338.96,NULL,Gefährdung,kuhatarisha,d,NA,NA,NA,NA,sdfdsf,NA,1,NA,NA,NA,NA,NA,NA,NA,NA,NA,NA,NA,NA,NA,NA,NA,NA,NA,NA,NA
e3492,Deep Question,html.Page,3_0_1_0_6_0_0,NA,NA,form submission,3013.04,323328,323322.22,323338.96,326352,326352,2023-09-16T17:23:40Z,326356.34,NULL,Betrüger,mdanganyifu,d,NA,NA,NA,gfngzjt,NA,NA,1,NA,NA,NA,NA,NA,NA,NA,NA,NA,NA,NA,NA,NA,NA,NA,NA,NA,NA,NA
e3492,"""Richtig""-Screen",canvas.Screen,3_0_1_0_6_0_1,NA,NA,skipped,NA,326354,NA,NA,326352,326354,2023-09-16T17:23:40Z,326356.34,NULL,Betrüger,mdanganyifu,d,NA,NA,NA,NA,sdfdsf,NA,1,NA,NA,NA,NA,NA,NA,NA,NA,NA,NA,NA,NA,NA,NA,NA,NA,NA,NA,NA
e3492,"""Falsch""-Screen",canvas.Screen,3_0_1_0_6_0_2,NA,NA,timeout,5001.22,326357,326350.68,326356.34,331340.9,331342,2023-09-16T17:23:45Z,331357.56,NULL,Betrüger,mdanganyifu,d,NA,NA,NA,NA,sdfdsf,0,1,NA,NA,NA,NA,NA,NA,NA,NA,NA,NA,NA,NA,NA,NA,NA,NA,NA,NA,NA
e3492,deep,flow.Sequence,3_0_1_0_6_0,NA,NA,completion,8001.94,323328,323322.22,323338.96,331340.9,331344,2023-09-16T17:23:45Z,331357.56,NULL,Betrüger,mdanganyifu,d,NA,NA,NA,NA,sdfdsf,NA,1,NA,NA,NA,NA,NA,NA,NA,NA,NA,NA,NA,NA,NA,NA,NA,NA,NA,NA,NA
e3492,shallow,flow.Sequence,3_0_1_0_6_1,NA,NA,skipped,NA,331344,NA,NA,331340.9,331344,2023-09-16T17:23:45Z,331357.56,NULL,Betrüger,mdanganyifu,d,NA,NA,NA,NA,sdfdsf,NA,1,NA,NA,NA,NA,NA,NA,NA,NA,NA,NA,NA,NA,NA,NA,NA,NA,NA,NA,NA
e3492,task,flow.Sequence,3_0_1_0_6,NA,NA,completion,8001.94,323328,323322.22,323338.96,331340.9,331345,2023-09-16T17:23:45Z,331357.56,NULL,Betrüger,mdanganyifu,d,NA,NA,NA,NA,sdfdsf,NA,1,NA,NA,NA,NA,NA,NA,NA,NA,NA,NA,NA,NA,NA,NA,NA,NA,NA,NA,NA
e3492,deep,flow.Sequence,3_0_1_0_7_0,NA,NA,skipped,NA,331345,NA,NA,331340.9,331345,2023-09-16T17:23:45Z,331357.56,NULL,Orientierung,urekebisho,s,uelekeo,marekebisho,utunzaji,NA,sdfdsf,NA,1,NA,NA,NA,NA,NA,NA,NA,NA,NA,NA,NA,NA,NA,NA,NA,NA,NA,NA,NA
e3492,Shallow Question,html.Page,3_0_1_0_7_1_0,NA,NA,form submission,10656.44,331346,331340.9,331357.56,342014,342014,2023-09-16T17:23:55Z,342026.86,NULL,Orientierung,urekebisho,s,uelekeo,marekebisho,utunzaji,utunzaji,NA,NA,1,NA,NA,NA,NA,NA,NA,NA,NA,NA,NA,NA,NA,NA,NA,NA,NA,NA,NA,NA
e3492,"""Richtig""-Screen",canvas.Screen,3_0_1_0_7_1_1,NA,NA,skipped,NA,342016,NA,NA,342014,342016,2023-09-16T17:23:55Z,342026.86,NULL,Orientierung,urekebisho,s,uelekeo,marekebisho,utunzaji,NA,sdfdsf,NA,1,NA,NA,NA,NA,NA,NA,NA,NA,NA,NA,NA,NA,NA,NA,NA,NA,NA,NA,NA
e3492,"""Falsch""-Screen",canvas.Screen,3_0_1_0_7_1_2,NA,NA,timeout,5001.22,342018,342012.16,342026.86,347011.42,347014,2023-09-16T17:24:00Z,347028.08,NULL,Orientierung,urekebisho,s,uelekeo,marekebisho,utunzaji,NA,sdfdsf,0,1,NA,NA,NA,NA,NA,NA,NA,NA,NA,NA,NA,NA,NA,NA,NA,NA,NA,NA,NA
e3492,shallow,flow.Sequence,3_0_1_0_7_1,NA,NA,completion,15653.86,331346,331340.9,331357.56,347011.42,347015,2023-09-16T17:24:00Z,347028.08,NULL,Orientierung,urekebisho,s,uelekeo,marekebisho,utunzaji,NA,sdfdsf,NA,1,NA,NA,NA,NA,NA,NA,NA,NA,NA,NA,NA,NA,NA,NA,NA,NA,NA,NA,NA
e3492,task,flow.Sequence,3_0_1_0_7,NA,NA,completion,15653.86,331345,331340.9,331357.56,347011.42,347016,2023-09-16T17:24:00Z,347028.08,NULL,Orientierung,urekebisho,s,uelekeo,marekebisho,utunzaji,NA,sdfdsf,NA,1,NA,NA,NA,NA,NA,NA,NA,NA,NA,NA,NA,NA,NA,NA,NA,NA,NA,NA,NA
e3492,block,flow.Loop,3_0_1_0,NA,NA,completion,96057.14,250953,250952.56,250954.28,347011.42,347017,2023-09-16T17:24:00Z,347028.08,NULL,NA,NA,NA,NA,NA,NA,NA,sdfdsf,NA,1,NA,NA,NA,NA,NA,NA,NA,NA,NA,NA,NA,NA,NA,NA,NA,NA,NA,NA,NA
e3492,weiter,canvas.Screen,3_0_1_1,sdf,keypress(Space),response,1098.92,347018,347011.42,347028.08,348127,348139,2023-09-16T17:24:01Z,348228.38,NULL,NA,NA,NA,NA,NA,NA,NA,sdfdsf,NA,1,NA,NA,NA,NA,NA,NA,NA,NA,NA,NA,NA,NA,NA,NA,NA,NA,NA,NA,NA
e3492,check continue,flow.Sequence,3_0_1,NA,NA,completion,97172.72,250953,250952.56,250954.28,348127,348140,2023-09-16T17:24:01Z,348228.38,NULL,NA,NA,NA,NA,NA,NA,NA,sdfdsf,NA,1,NA,NA,NA,NA,NA,NA,NA,NA,NA,NA,NA,NA,NA,NA,NA,NA,NA,NA,NA
e3492,deep,flow.Sequence,3_0_2_0_0_0,NA,NA,skipped,NA,348215,NA,NA,348127,348215,2023-09-16T17:24:01Z,348228.38,NULL,Orientierung,urekebisho,s,uelekeo,marekebisho,utunzaji,NA,sdf,NA,2,NA,NA,NA,NA,NA,NA,NA,NA,NA,NA,NA,NA,NA,NA,NA,NA,NA,NA,NA
e3492,Shallow Question,html.Page,3_0_2_0_0_1_0,NA,NA,form submission,4624.62,348215,348214.84,348228.38,352853,352854,2023-09-16T17:24:06Z,352862.9,NULL,Orientierung,urekebisho,s,uelekeo,marekebisho,utunzaji,urekebisho,NA,NA,2,NA,NA,NA,NA,NA,NA,NA,NA,NA,NA,NA,NA,NA,NA,NA,NA,NA,NA,NA
e3492,"""Richtig""-Screen",canvas.Screen,3_0_2_0_0_1_1,NA,NA,timeout,5001.22,352855,352851.98,352862.9,357847.46,357854,2023-09-16T17:24:11Z,357864.12,NULL,Orientierung,urekebisho,s,uelekeo,marekebisho,utunzaji,NA,sdf,1,2,NA,NA,NA,NA,NA,NA,NA,NA,NA,NA,NA,NA,NA,NA,NA,NA,NA,NA,NA
e3492,"""Falsch""-Screen",canvas.Screen,3_0_2_0_0_1_2,NA,NA,skipped,NA,357875,NA,NA,357847.46,357875,2023-09-16T17:24:11Z,357864.12,NULL,Orientierung,urekebisho,s,uelekeo,marekebisho,utunzaji,NA,sdf,NA,2,NA,NA,NA,NA,NA,NA,NA,NA,NA,NA,NA,NA,NA,NA,NA,NA,NA,NA,NA
e3492,shallow,flow.Sequence,3_0_2_0_0_1,NA,NA,completion,9619.08,348215,348214.84,348228.38,357847.46,357875,2023-09-16T17:24:11Z,357864.12,NULL,Orientierung,urekebisho,s,uelekeo,marekebisho,utunzaji,NA,sdf,NA,2,NA,NA,NA,NA,NA,NA,NA,NA,NA,NA,NA,NA,NA,NA,NA,NA,NA,NA,NA
e3492,task,flow.Sequence,3_0_2_0_0,NA,NA,completion,9619.08,348215,348214.84,348228.38,357847.46,357876,2023-09-16T17:24:11Z,357864.12,NULL,Orientierung,urekebisho,s,uelekeo,marekebisho,utunzaji,NA,sdf,NA,2,NA,NA,NA,NA,NA,NA,NA,NA,NA,NA,NA,NA,NA,NA,NA,NA,NA,NA,NA
e3492,Deep Question,html.Page,3_0_2_0_1_0_0,NA,NA,form submission,3653.88,357876,357847.46,357864.12,361518,361519,2023-09-16T17:24:15Z,361531.74,NULL,Stimmung,kinyongo,d,NA,NA,NA,rthrtzjrtjz,NA,NA,2,NA,NA,NA,NA,NA,NA,NA,NA,NA,NA,NA,NA,NA,NA,NA,NA,NA,NA,NA
e3492,"""Richtig""-Screen",canvas.Screen,3_0_2_0_1_0_1,NA,NA,skipped,NA,361525,NA,NA,361518,361525,2023-09-16T17:24:15Z,361531.74,NULL,Stimmung,kinyongo,d,NA,NA,NA,NA,sdf,NA,2,NA,NA,NA,NA,NA,NA,NA,NA,NA,NA,NA,NA,NA,NA,NA,NA,NA,NA,NA
e3492,"""Falsch""-Screen",canvas.Screen,3_0_2_0_1_0_2,NA,NA,timeout,5001.22,361527,361516.04,361531.74,366516.3,366518,2023-09-16T17:24:20Z,366532.96,NULL,Stimmung,kinyongo,d,NA,NA,NA,NA,sdf,0,2,NA,NA,NA,NA,NA,NA,NA,NA,NA,NA,NA,NA,NA,NA,NA,NA,NA,NA,NA
e3492,deep,flow.Sequence,3_0_2_0_1_0,NA,NA,completion,8652.18,357876,357847.46,357864.12,366516.3,366520,2023-09-16T17:24:20Z,366532.96,NULL,Stimmung,kinyongo,d,NA,NA,NA,NA,sdf,NA,2,NA,NA,NA,NA,NA,NA,NA,NA,NA,NA,NA,NA,NA,NA,NA,NA,NA,NA,NA
e3492,shallow,flow.Sequence,3_0_2_0_1_1,NA,NA,skipped,NA,366520,NA,NA,366516.3,366520,2023-09-16T17:24:20Z,366532.96,NULL,Stimmung,kinyongo,d,NA,NA,NA,NA,sdf,NA,2,NA,NA,NA,NA,NA,NA,NA,NA,NA,NA,NA,NA,NA,NA,NA,NA,NA,NA,NA
e3492,task,flow.Sequence,3_0_2_0_1,NA,NA,completion,8652.18,357876,357847.46,357864.12,366516.3,366522,2023-09-16T17:24:20Z,366532.96,NULL,Stimmung,kinyongo,d,NA,NA,NA,NA,sdf,NA,2,NA,NA,NA,NA,NA,NA,NA,NA,NA,NA,NA,NA,NA,NA,NA,NA,NA,NA,NA
e3492,deep,flow.Sequence,3_0_2_0_2_0,NA,NA,skipped,NA,366523,NA,NA,366516.3,366523,2023-09-16T17:24:20Z,366532.96,NULL,Kreativität,ubunifu,s,mratibu,mwendelezo,makubaliano,NA,sdf,NA,2,NA,NA,NA,NA,NA,NA,NA,NA,NA,NA,NA,NA,NA,NA,NA,NA,NA,NA,NA
e3492,Shallow Question,html.Page,3_0_2_0_2_1_0,NA,NA,form submission,8089.04,366524,366516.3,366532.96,374622,374622,2023-09-16T17:24:28Z,374634.98,NULL,Kreativität,ubunifu,s,mratibu,mwendelezo,makubaliano,ubunifu,NA,NA,2,NA,NA,NA,NA,NA,NA,NA,NA,NA,NA,NA,NA,NA,NA,NA,NA,NA,NA,NA
e3492,"""Richtig""-Screen",canvas.Screen,3_0_2_0_2_1_1,NA,NA,timeout,5001.24,374624,374620.36,374634.98,379619.54,379622,2023-09-16T17:24:33Z,379636.22,NULL,Kreativität,ubunifu,s,mratibu,mwendelezo,makubaliano,NA,sdf,1,2,NA,NA,NA,NA,NA,NA,NA,NA,NA,NA,NA,NA,NA,NA,NA,NA,NA,NA,NA
e3492,"""Falsch""-Screen",canvas.Screen,3_0_2_0_2_1_2,NA,NA,skipped,NA,379632,NA,NA,379619.54,379632,2023-09-16T17:24:33Z,379636.22,NULL,Kreativität,ubunifu,s,mratibu,mwendelezo,makubaliano,NA,sdf,NA,2,NA,NA,NA,NA,NA,NA,NA,NA,NA,NA,NA,NA,NA,NA,NA,NA,NA,NA,NA
e3492,shallow,flow.Sequence,3_0_2_0_2_1,NA,NA,completion,13086.58,366524,366516.3,366532.96,379619.54,379633,2023-09-16T17:24:33Z,379636.22,NULL,Kreativität,ubunifu,s,mratibu,mwendelezo,makubaliano,NA,sdf,NA,2,NA,NA,NA,NA,NA,NA,NA,NA,NA,NA,NA,NA,NA,NA,NA,NA,NA,NA,NA
e3492,task,flow.Sequence,3_0_2_0_2,NA,NA,completion,13086.58,366523,366516.3,366532.96,379619.54,379634,2023-09-16T17:24:33Z,379636.22,NULL,Kreativität,ubunifu,s,mratibu,mwendelezo,makubaliano,NA,sdf,NA,2,NA,NA,NA,NA,NA,NA,NA,NA,NA,NA,NA,NA,NA,NA,NA,NA,NA,NA,NA
e3492,deep,flow.Sequence,3_0_2_0_3_0,NA,NA,skipped,NA,379635,NA,NA,379619.54,379636,2023-09-16T17:24:33Z,379636.22,NULL,Können,unaweza,s,kiongozi,bustani,mienendo,NA,sdf,NA,2,NA,NA,NA,NA,NA,NA,NA,NA,NA,NA,NA,NA,NA,NA,NA,NA,NA,NA,NA
e3492,Shallow Question,html.Page,3_0_2_0_3_1_0,NA,NA,form submission,6732.78,379638,379619.54,379636.22,386369,386369,2023-09-16T17:24:40Z,386371.2,NULL,Können,unaweza,s,kiongozi,bustani,mienendo,unaweza,NA,NA,2,NA,NA,NA,NA,NA,NA,NA,NA,NA,NA,NA,NA,NA,NA,NA,NA,NA,NA,NA
e3492,"""Richtig""-Screen",canvas.Screen,3_0_2_0_3_1_1,NA,NA,timeout,5001.24,386371,386367.7,386371.2,391355.76,391358,2023-09-16T17:24:45Z,391372.44,NULL,Können,unaweza,s,kiongozi,bustani,mienendo,NA,sdf,1,2,NA,NA,NA,NA,NA,NA,NA,NA,NA,NA,NA,NA,NA,NA,NA,NA,NA,NA,NA
e3492,"""Falsch""-Screen",canvas.Screen,3_0_2_0_3_1_2,NA,NA,skipped,NA,391371,NA,NA,391355.76,391372,2023-09-16T17:24:45Z,391372.44,NULL,Können,unaweza,s,kiongozi,bustani,mienendo,NA,sdf,NA,2,NA,NA,NA,NA,NA,NA,NA,NA,NA,NA,NA,NA,NA,NA,NA,NA,NA,NA,NA
e3492,shallow,flow.Sequence,3_0_2_0_3_1,NA,NA,completion,11719.54,379636,379619.54,379636.22,391355.76,391376,2023-09-16T17:24:45Z,391372.44,NULL,Können,unaweza,s,kiongozi,bustani,mienendo,NA,sdf,NA,2,NA,NA,NA,NA,NA,NA,NA,NA,NA,NA,NA,NA,NA,NA,NA,NA,NA,NA,NA
e3492,task,flow.Sequence,3_0_2_0_3,NA,NA,completion,11719.54,379635,379619.54,379636.22,391355.76,391379,2023-09-16T17:24:45Z,391372.44,NULL,Können,unaweza,s,kiongozi,bustani,mienendo,NA,sdf,NA,2,NA,NA,NA,NA,NA,NA,NA,NA,NA,NA,NA,NA,NA,NA,NA,NA,NA,NA,NA
e3492,Deep Question,html.Page,3_0_2_0_4_0_0,NA,NA,form submission,3907.56,391380,391355.76,391372.44,395280,395280,2023-09-16T17:24:48Z,395290.06,NULL,Betrüger,mdanganyifu,d,NA,NA,NA,gjrtjrz,NA,NA,2,NA,NA,NA,NA,NA,NA,NA,NA,NA,NA,NA,NA,NA,NA,NA,NA,NA,NA,NA
e3492,"""Richtig""-Screen",canvas.Screen,3_0_2_0_4_0_1,NA,NA,skipped,NA,395282,NA,NA,395280,395282,2023-09-16T17:24:48Z,395290.06,NULL,Betrüger,mdanganyifu,d,NA,NA,NA,NA,sdf,NA,2,NA,NA,NA,NA,NA,NA,NA,NA,NA,NA,NA,NA,NA,NA,NA,NA,NA,NA,NA
e3492,"""Falsch""-Screen",canvas.Screen,3_0_2_0_4_0_2,NA,NA,timeout,5001.24,395285,395278.46,395290.06,400274.62,400279,2023-09-16T17:24:53Z,400291.3,NULL,Betrüger,mdanganyifu,d,NA,NA,NA,NA,sdf,0,2,NA,NA,NA,NA,NA,NA,NA,NA,NA,NA,NA,NA,NA,NA,NA,NA,NA,NA,NA
e3492,deep,flow.Sequence,3_0_2_0_4_0,NA,NA,completion,8902.18,391380,391355.76,391372.44,400274.62,400283,2023-09-16T17:24:53Z,400291.3,NULL,Betrüger,mdanganyifu,d,NA,NA,NA,NA,sdf,NA,2,NA,NA,NA,NA,NA,NA,NA,NA,NA,NA,NA,NA,NA,NA,NA,NA,NA,NA,NA
e3492,shallow,flow.Sequence,3_0_2_0_4_1,NA,NA,skipped,NA,400284,NA,NA,400274.62,400285,2023-09-16T17:24:53Z,400291.3,NULL,Betrüger,mdanganyifu,d,NA,NA,NA,NA,sdf,NA,2,NA,NA,NA,NA,NA,NA,NA,NA,NA,NA,NA,NA,NA,NA,NA,NA,NA,NA,NA
e3492,task,flow.Sequence,3_0_2_0_4,NA,NA,completion,8902.18,391379,391355.76,391372.44,400274.62,400287,2023-09-16T17:24:54Z,400291.3,NULL,Betrüger,mdanganyifu,d,NA,NA,NA,NA,sdf,NA,2,NA,NA,NA,NA,NA,NA,NA,NA,NA,NA,NA,NA,NA,NA,NA,NA,NA,NA,NA
e3492,Deep Question,html.Page,3_0_2_0_5_0_0,NA,NA,form submission,2730.7,400288,400274.62,400291.3,403022,403022,2023-09-16T17:24:56Z,403025.3,NULL,Kontrolle,kudhibiti,d,NA,NA,NA,rtjrtjrzjrz,NA,NA,2,NA,NA,NA,NA,NA,NA,NA,NA,NA,NA,NA,NA,NA,NA,NA,NA,NA,NA,NA
e3492,"""Richtig""-Screen",canvas.Screen,3_0_2_0_5_0_1,NA,NA,skipped,NA,403027,NA,NA,403022,403027,2023-09-16T17:24:56Z,403025.3,NULL,Kontrolle,kudhibiti,d,NA,NA,NA,NA,sdf,NA,2,NA,NA,NA,NA,NA,NA,NA,NA,NA,NA,NA,NA,NA,NA,NA,NA,NA,NA,NA
e3492,"""Falsch""-Screen",canvas.Screen,3_0_2_0_5_0_2,NA,NA,timeout,5001.22,403030,403019.06,403025.3,408009.86,408012,2023-09-16T17:25:01Z,408026.52,NULL,Kontrolle,kudhibiti,d,NA,NA,NA,NA,sdf,0,2,NA,NA,NA,NA,NA,NA,NA,NA,NA,NA,NA,NA,NA,NA,NA,NA,NA,NA,NA
e3492,deep,flow.Sequence,3_0_2_0_5_0,NA,NA,completion,7718.56,400287,400274.62,400291.3,408009.86,408013,2023-09-16T17:25:01Z,408026.52,NULL,Kontrolle,kudhibiti,d,NA,NA,NA,NA,sdf,NA,2,NA,NA,NA,NA,NA,NA,NA,NA,NA,NA,NA,NA,NA,NA,NA,NA,NA,NA,NA
e3492,shallow,flow.Sequence,3_0_2_0_5_1,NA,NA,skipped,NA,408014,NA,NA,408009.86,408014,2023-09-16T17:25:01Z,408026.52,NULL,Kontrolle,kudhibiti,d,NA,NA,NA,NA,sdf,NA,2,NA,NA,NA,NA,NA,NA,NA,NA,NA,NA,NA,NA,NA,NA,NA,NA,NA,NA,NA
e3492,task,flow.Sequence,3_0_2_0_5,NA,NA,completion,7718.56,400287,400274.62,400291.3,408009.86,408015,2023-09-16T17:25:01Z,408026.52,NULL,Kontrolle,kudhibiti,d,NA,NA,NA,NA,sdf,NA,2,NA,NA,NA,NA,NA,NA,NA,NA,NA,NA,NA,NA,NA,NA,NA,NA,NA,NA,NA
e3492,deep,flow.Sequence,3_0_2_0_6_0,NA,NA,skipped,NA,408016,NA,NA,408009.86,408017,2023-09-16T17:25:01Z,408026.52,NULL,Respekt,heshima,s,changamnao,upinzani,ufanisi,NA,sdf,NA,2,NA,NA,NA,NA,NA,NA,NA,NA,NA,NA,NA,NA,NA,NA,NA,NA,NA,NA,NA
e3492,Shallow Question,html.Page,3_0_2_0_6_1_0,NA,NA,form submission,10807.48,408017,408009.86,408026.52,418834,418835,2023-09-16T17:25:12Z,418845.98,NULL,Respekt,heshima,s,changamnao,upinzani,ufanisi,heshima,NA,NA,2,NA,NA,NA,NA,NA,NA,NA,NA,NA,NA,NA,NA,NA,NA,NA,NA,NA,NA,NA
e3492,"""Richtig""-Screen",canvas.Screen,3_0_2_0_6_1_1,NA,NA,timeout,5017.9,418837,418831.36,418845.98,423830.54,423836,2023-09-16T17:25:17Z,423863.88,NULL,Respekt,heshima,s,changamnao,upinzani,ufanisi,NA,sdf,1,2,NA,NA,NA,NA,NA,NA,NA,NA,NA,NA,NA,NA,NA,NA,NA,NA,NA,NA,NA
e3492,"""Falsch""-Screen",canvas.Screen,3_0_2_0_6_1_2,NA,NA,skipped,NA,423862,NA,NA,423830.54,423862,2023-09-16T17:25:17Z,423863.88,NULL,Respekt,heshima,s,changamnao,upinzani,ufanisi,NA,sdf,NA,2,NA,NA,NA,NA,NA,NA,NA,NA,NA,NA,NA,NA,NA,NA,NA,NA,NA,NA,NA
e3492,shallow,flow.Sequence,3_0_2_0_6_1,NA,NA,completion,15804.02,408017,408009.86,408026.52,423830.54,423863,2023-09-16T17:25:17Z,423863.88,NULL,Respekt,heshima,s,changamnao,upinzani,ufanisi,NA,sdf,NA,2,NA,NA,NA,NA,NA,NA,NA,NA,NA,NA,NA,NA,NA,NA,NA,NA,NA,NA,NA
e3492,task,flow.Sequence,3_0_2_0_6,NA,NA,completion,15804.02,408015,408009.86,408026.52,423830.54,423863,2023-09-16T17:25:17Z,423863.88,NULL,Respekt,heshima,s,changamnao,upinzani,ufanisi,NA,sdf,NA,2,NA,NA,NA,NA,NA,NA,NA,NA,NA,NA,NA,NA,NA,NA,NA,NA,NA,NA,NA
e3492,Deep Question,html.Page,3_0_2_0_7_0_0,NA,NA,form submission,4408.12,423864,423830.54,423863.88,428272,428272,2023-09-16T17:25:21Z,428281.56,NULL,Gefährdung,kuhatarisha,d,NA,NA,NA,lkhguk,NA,NA,2,NA,NA,NA,NA,NA,NA,NA,NA,NA,NA,NA,NA,NA,NA,NA,NA,NA,NA,NA
e3492,"""Richtig""-Screen",canvas.Screen,3_0_2_0_7_0_1,NA,NA,skipped,NA,428275,NA,NA,428272,428275,2023-09-16T17:25:21Z,428281.56,NULL,Gefährdung,kuhatarisha,d,NA,NA,NA,NA,sdf,NA,2,NA,NA,NA,NA,NA,NA,NA,NA,NA,NA,NA,NA,NA,NA,NA,NA,NA,NA,NA
e3492,"""Falsch""-Screen",canvas.Screen,3_0_2_0_7_0_2,NA,NA,timeout,5001.22,428278,428268.88,428281.56,433266.12,433269,2023-09-16T17:25:26Z,433282.78,NULL,Gefährdung,kuhatarisha,d,NA,NA,NA,NA,sdf,0,2,NA,NA,NA,NA,NA,NA,NA,NA,NA,NA,NA,NA,NA,NA,NA,NA,NA,NA,NA
e3492,deep,flow.Sequence,3_0_2_0_7_0,NA,NA,completion,9402.24,423864,423830.54,423863.88,433266.12,433271,2023-09-16T17:25:26Z,433282.78,NULL,Gefährdung,kuhatarisha,d,NA,NA,NA,NA,sdf,NA,2,NA,NA,NA,NA,NA,NA,NA,NA,NA,NA,NA,NA,NA,NA,NA,NA,NA,NA,NA
e3492,shallow,flow.Sequence,3_0_2_0_7_1,NA,NA,skipped,NA,433272,NA,NA,433266.12,433273,2023-09-16T17:25:26Z,433282.78,NULL,Gefährdung,kuhatarisha,d,NA,NA,NA,NA,sdf,NA,2,NA,NA,NA,NA,NA,NA,NA,NA,NA,NA,NA,NA,NA,NA,NA,NA,NA,NA,NA
e3492,task,flow.Sequence,3_0_2_0_7,NA,NA,completion,9402.24,423864,423830.54,423863.88,433266.12,433274,2023-09-16T17:25:26Z,433282.78,NULL,Gefährdung,kuhatarisha,d,NA,NA,NA,NA,sdf,NA,2,NA,NA,NA,NA,NA,NA,NA,NA,NA,NA,NA,NA,NA,NA,NA,NA,NA,NA,NA
e3492,block,flow.Loop,3_0_2_0,NA,NA,completion,85037.74,348215,348214.84,348228.38,433266.12,433276,2023-09-16T17:25:26Z,433282.78,NULL,NA,NA,NA,NA,NA,NA,NA,sdf,NA,2,NA,NA,NA,NA,NA,NA,NA,NA,NA,NA,NA,NA,NA,NA,NA,NA,NA,NA,NA
e3492,weiter,canvas.Screen,3_0_2_1,sdf,keypress(Space),response,1125.22,433277,433266.12,433282.78,434408,434421,2023-09-16T17:25:28Z,434499.74,NULL,NA,NA,NA,NA,NA,NA,NA,sdf,NA,2,NA,NA,NA,NA,NA,NA,NA,NA,NA,NA,NA,NA,NA,NA,NA,NA,NA,NA,NA
e3492,check continue,flow.Sequence,3_0_2,NA,NA,completion,86179.62,348215,348214.84,348228.38,434408,434421,2023-09-16T17:25:28Z,434499.74,NULL,NA,NA,NA,NA,NA,NA,NA,sdf,NA,2,NA,NA,NA,NA,NA,NA,NA,NA,NA,NA,NA,NA,NA,NA,NA,NA,NA,NA,NA
e3492,Deep Question,html.Page,3_0_3_0_0_0_0,NA,NA,form submission,9694.26,434490,434489.3,434499.74,444194,444194,2023-09-16T17:25:37Z,444202.14,NULL,Gefährdung,kuhatarisha,d,NA,NA,NA,kuhatarischa,NA,NA,3,NA,NA,NA,NA,NA,NA,NA,NA,NA,NA,NA,NA,NA,NA,NA,NA,NA,NA,NA
e3492,"""Richtig""-Screen",canvas.Screen,3_0_3_0_0_0_1,NA,NA,skipped,NA,444196,NA,NA,444194,444196,2023-09-16T17:25:37Z,444202.14,NULL,Gefährdung,kuhatarisha,d,NA,NA,NA,NA,qt,NA,3,NA,NA,NA,NA,NA,NA,NA,NA,NA,NA,NA,NA,NA,NA,NA,NA,NA,NA,NA
e3492,"""Falsch""-Screen",canvas.Screen,3_0_3_0_0_0_2,NA,NA,timeout,5001.22,444198,444192.94,444202.14,449186.7,449189,2023-09-16T17:25:42Z,449203.36,NULL,Gefährdung,kuhatarisha,d,NA,NA,NA,NA,qt,0,3,NA,NA,NA,NA,NA,NA,NA,NA,NA,NA,NA,NA,NA,NA,NA,NA,NA,NA,NA
e3492,deep,flow.Sequence,3_0_3_0_0_0,NA,NA,completion,14686.96,434490,434489.3,434499.74,449186.7,449191,2023-09-16T17:25:42Z,449203.36,NULL,Gefährdung,kuhatarisha,d,NA,NA,NA,NA,qt,NA,3,NA,NA,NA,NA,NA,NA,NA,NA,NA,NA,NA,NA,NA,NA,NA,NA,NA,NA,NA
e3492,shallow,flow.Sequence,3_0_3_0_0_1,NA,NA,skipped,NA,449191,NA,NA,449186.7,449192,2023-09-16T17:25:42Z,449203.36,NULL,Gefährdung,kuhatarisha,d,NA,NA,NA,NA,qt,NA,3,NA,NA,NA,NA,NA,NA,NA,NA,NA,NA,NA,NA,NA,NA,NA,NA,NA,NA,NA
e3492,task,flow.Sequence,3_0_3_0_0,NA,NA,completion,14686.96,434490,434489.3,434499.74,449186.7,449193,2023-09-16T17:25:42Z,449203.36,NULL,Gefährdung,kuhatarisha,d,NA,NA,NA,NA,qt,NA,3,NA,NA,NA,NA,NA,NA,NA,NA,NA,NA,NA,NA,NA,NA,NA,NA,NA,NA,NA
e3492,Deep Question,html.Page,3_0_3_0_1_0_0,NA,NA,form submission,3362.64,449194,449186.7,449203.36,452566,452566,2023-09-16T17:25:46Z,452570.86,NULL,Betrüger,mdanganyifu,d,NA,NA,NA,bdffhrh,NA,NA,3,NA,NA,NA,NA,NA,NA,NA,NA,NA,NA,NA,NA,NA,NA,NA,NA,NA,NA,NA
e3492,"""Richtig""-Screen",canvas.Screen,3_0_3_0_1_0_1,NA,NA,skipped,NA,452568,NA,NA,452566,452568,2023-09-16T17:25:46Z,452570.86,NULL,Betrüger,mdanganyifu,d,NA,NA,NA,NA,qt,NA,3,NA,NA,NA,NA,NA,NA,NA,NA,NA,NA,NA,NA,NA,NA,NA,NA,NA,NA,NA
e3492,"""Falsch""-Screen",canvas.Screen,3_0_3_0_1_0_2,NA,NA,timeout,5001.24,452570,452563.38,452570.86,457555.42,457557,2023-09-16T17:25:51Z,457572.1,NULL,Betrüger,mdanganyifu,d,NA,NA,NA,NA,qt,0,3,NA,NA,NA,NA,NA,NA,NA,NA,NA,NA,NA,NA,NA,NA,NA,NA,NA,NA,NA
e3492,deep,flow.Sequence,3_0_3_0_1_0,NA,NA,completion,8352.06,449193,449186.7,449203.36,457555.42,457558,2023-09-16T17:25:51Z,457572.1,NULL,Betrüger,mdanganyifu,d,NA,NA,NA,NA,qt,NA,3,NA,NA,NA,NA,NA,NA,NA,NA,NA,NA,NA,NA,NA,NA,NA,NA,NA,NA,NA
e3492,shallow,flow.Sequence,3_0_3_0_1_1,NA,NA,skipped,NA,457558,NA,NA,457555.42,457559,2023-09-16T17:25:51Z,457572.1,NULL,Betrüger,mdanganyifu,d,NA,NA,NA,NA,qt,NA,3,NA,NA,NA,NA,NA,NA,NA,NA,NA,NA,NA,NA,NA,NA,NA,NA,NA,NA,NA
e3492,task,flow.Sequence,3_0_3_0_1,NA,NA,completion,8352.06,449193,449186.7,449203.36,457555.42,457559,2023-09-16T17:25:51Z,457572.1,NULL,Betrüger,mdanganyifu,d,NA,NA,NA,NA,qt,NA,3,NA,NA,NA,NA,NA,NA,NA,NA,NA,NA,NA,NA,NA,NA,NA,NA,NA,NA,NA
e3492,deep,flow.Sequence,3_0_3_0_2_0,NA,NA,skipped,NA,457560,NA,NA,457555.42,457561,2023-09-16T17:25:51Z,457572.1,NULL,Können,unaweza,s,kiongozi,bustani,mienendo,NA,qt,NA,3,NA,NA,NA,NA,NA,NA,NA,NA,NA,NA,NA,NA,NA,NA,NA,NA,NA,NA,NA
e3492,Shallow Question,html.Page,3_0_3_0_2_1_0,NA,NA,form submission,4016.9,457561,457555.42,457572.1,461589,461589,2023-09-16T17:25:55Z,461589.94,NULL,Können,unaweza,s,kiongozi,bustani,mienendo,unaweza,NA,NA,3,NA,NA,NA,NA,NA,NA,NA,NA,NA,NA,NA,NA,NA,NA,NA,NA,NA,NA,NA
e3492,"""Richtig""-Screen",canvas.Screen,3_0_3_0_2_1_1,NA,NA,timeout,5001.2,461591,461588.22,461589.94,466574.48,466576,2023-09-16T17:26:00Z,466591.14,NULL,Können,unaweza,s,kiongozi,bustani,mienendo,NA,qt,1,3,NA,NA,NA,NA,NA,NA,NA,NA,NA,NA,NA,NA,NA,NA,NA,NA,NA,NA,NA
e3492,"""Falsch""-Screen",canvas.Screen,3_0_3_0_2_1_2,NA,NA,skipped,NA,466586,NA,NA,466574.48,466586,2023-09-16T17:26:00Z,466591.14,NULL,Können,unaweza,s,kiongozi,bustani,mienendo,NA,qt,NA,3,NA,NA,NA,NA,NA,NA,NA,NA,NA,NA,NA,NA,NA,NA,NA,NA,NA,NA,NA
e3492,shallow,flow.Sequence,3_0_3_0_2_1,NA,NA,completion,9002.38,457561,457555.42,457572.1,466574.48,466587,2023-09-16T17:26:00Z,466591.14,NULL,Können,unaweza,s,kiongozi,bustani,mienendo,NA,qt,NA,3,NA,NA,NA,NA,NA,NA,NA,NA,NA,NA,NA,NA,NA,NA,NA,NA,NA,NA,NA
e3492,task,flow.Sequence,3_0_3_0_2,NA,NA,completion,9002.38,457560,457555.42,457572.1,466574.48,466588,2023-09-16T17:26:00Z,466591.14,NULL,Können,unaweza,s,kiongozi,bustani,mienendo,NA,qt,NA,3,NA,NA,NA,NA,NA,NA,NA,NA,NA,NA,NA,NA,NA,NA,NA,NA,NA,NA,NA
e3492,deep,flow.Sequence,3_0_3_0_3_0,NA,NA,skipped,NA,466589,NA,NA,466574.48,466589,2023-09-16T17:26:00Z,466591.14,NULL,Kreativität,ubunifu,s,mratibu,mwendelezo,makubaliano,NA,qt,NA,3,NA,NA,NA,NA,NA,NA,NA,NA,NA,NA,NA,NA,NA,NA,NA,NA,NA,NA,NA
e3492,Shallow Question,html.Page,3_0_3_0_3_1_0,NA,NA,form submission,3797.86,466590,466574.48,466591.14,470389,470389,2023-09-16T17:26:04Z,470392.08,NULL,Kreativität,ubunifu,s,mratibu,mwendelezo,makubaliano,ubunifu,NA,NA,3,NA,NA,NA,NA,NA,NA,NA,NA,NA,NA,NA,NA,NA,NA,NA,NA,NA,NA,NA
e3492,"""Richtig""-Screen",canvas.Screen,3_0_3_0_3_1_1,NA,NA,timeout,5001.22,470391,470387.6,470392.08,475376.64,475378,2023-09-16T17:26:09Z,475393.3,NULL,Kreativität,ubunifu,s,mratibu,mwendelezo,makubaliano,NA,qt,1,3,NA,NA,NA,NA,NA,NA,NA,NA,NA,NA,NA,NA,NA,NA,NA,NA,NA,NA,NA
e3492,"""Falsch""-Screen",canvas.Screen,3_0_3_0_3_1_2,NA,NA,skipped,NA,475384,NA,NA,475376.64,475384,2023-09-16T17:26:09Z,475393.3,NULL,Kreativität,ubunifu,s,mratibu,mwendelezo,makubaliano,NA,qt,NA,3,NA,NA,NA,NA,NA,NA,NA,NA,NA,NA,NA,NA,NA,NA,NA,NA,NA,NA,NA
e3492,shallow,flow.Sequence,3_0_3_0_3_1,NA,NA,completion,8785.5,466589,466574.48,466591.14,475376.64,475384,2023-09-16T17:26:09Z,475393.3,NULL,Kreativität,ubunifu,s,mratibu,mwendelezo,makubaliano,NA,qt,NA,3,NA,NA,NA,NA,NA,NA,NA,NA,NA,NA,NA,NA,NA,NA,NA,NA,NA,NA,NA
e3492,task,flow.Sequence,3_0_3_0_3,NA,NA,completion,8785.5,466589,466574.48,466591.14,475376.64,475384,2023-09-16T17:26:09Z,475393.3,NULL,Kreativität,ubunifu,s,mratibu,mwendelezo,makubaliano,NA,qt,NA,3,NA,NA,NA,NA,NA,NA,NA,NA,NA,NA,NA,NA,NA,NA,NA,NA,NA,NA,NA
e3492,Deep Question,html.Page,3_0_3_0_4_0_0,NA,NA,form submission,3732.7,475384,475376.64,475393.3,479126,479126,2023-09-16T17:26:12Z,479127.56,NULL,Kontrolle,kudhibiti,d,NA,NA,NA,ehehhzt,NA,NA,3,NA,NA,NA,NA,NA,NA,NA,NA,NA,NA,NA,NA,NA,NA,NA,NA,NA,NA,NA
e3492,"""Richtig""-Screen",canvas.Screen,3_0_3_0_4_0_1,NA,NA,skipped,NA,479128,NA,NA,479126,479128,2023-09-16T17:26:12Z,479127.56,NULL,Kontrolle,kudhibiti,d,NA,NA,NA,NA,qt,NA,3,NA,NA,NA,NA,NA,NA,NA,NA,NA,NA,NA,NA,NA,NA,NA,NA,NA,NA,NA
e3492,"""Falsch""-Screen",canvas.Screen,3_0_3_0_4_0_2,NA,NA,timeout,5001.24,479130,479127.56,479127.56,484112.12,484114,2023-09-16T17:26:17Z,484128.8,NULL,Kontrolle,kudhibiti,d,NA,NA,NA,NA,qt,0,3,NA,NA,NA,NA,NA,NA,NA,NA,NA,NA,NA,NA,NA,NA,NA,NA,NA,NA,NA
e3492,deep,flow.Sequence,3_0_3_0_4_0,NA,NA,completion,8718.82,475384,475376.64,475393.3,484112.12,484115,2023-09-16T17:26:17Z,484128.8,NULL,Kontrolle,kudhibiti,d,NA,NA,NA,NA,qt,NA,3,NA,NA,NA,NA,NA,NA,NA,NA,NA,NA,NA,NA,NA,NA,NA,NA,NA,NA,NA
e3492,shallow,flow.Sequence,3_0_3_0_4_1,NA,NA,skipped,NA,484117,NA,NA,484112.12,484117,2023-09-16T17:26:17Z,484128.8,NULL,Kontrolle,kudhibiti,d,NA,NA,NA,NA,qt,NA,3,NA,NA,NA,NA,NA,NA,NA,NA,NA,NA,NA,NA,NA,NA,NA,NA,NA,NA,NA
e3492,task,flow.Sequence,3_0_3_0_4,NA,NA,completion,8718.82,475384,475376.64,475393.3,484112.12,484118,2023-09-16T17:26:17Z,484128.8,NULL,Kontrolle,kudhibiti,d,NA,NA,NA,NA,qt,NA,3,NA,NA,NA,NA,NA,NA,NA,NA,NA,NA,NA,NA,NA,NA,NA,NA,NA,NA,NA
e3492,deep,flow.Sequence,3_0_3_0_5_0,NA,NA,skipped,NA,484119,NA,NA,484112.12,484119,2023-09-16T17:26:17Z,484128.8,NULL,Respekt,heshima,s,changamnao,upinzani,ufanisi,NA,qt,NA,3,NA,NA,NA,NA,NA,NA,NA,NA,NA,NA,NA,NA,NA,NA,NA,NA,NA,NA,NA
e3492,Shallow Question,html.Page,3_0_3_0_5_1_0,NA,NA,form submission,7412.2,484121,484112.12,484128.8,491541,491542,2023-09-16T17:26:25Z,491547.28,NULL,Respekt,heshima,s,changamnao,upinzani,ufanisi,heshima,NA,NA,3,NA,NA,NA,NA,NA,NA,NA,NA,NA,NA,NA,NA,NA,NA,NA,NA,NA,NA,NA
e3492,"""Richtig""-Screen",canvas.Screen,3_0_3_0_5_1_1,NA,NA,timeout,5001.3199999999,491543,491540.42,491547.28,496531.92,496535,2023-09-16T17:26:30Z,496548.6,NULL,Respekt,heshima,s,changamnao,upinzani,ufanisi,NA,qt,1,3,NA,NA,NA,NA,NA,NA,NA,NA,NA,NA,NA,NA,NA,NA,NA,NA,NA,NA,NA
e3492,"""Falsch""-Screen",canvas.Screen,3_0_3_0_5_1_2,NA,NA,skipped,NA,496543,NA,NA,496531.92,496544,2023-09-16T17:26:30Z,496548.6,NULL,Respekt,heshima,s,changamnao,upinzani,ufanisi,NA,qt,NA,3,NA,NA,NA,NA,NA,NA,NA,NA,NA,NA,NA,NA,NA,NA,NA,NA,NA,NA,NA
e3492,shallow,flow.Sequence,3_0_3_0_5_1,NA,NA,completion,12403.12,484120,484112.12,484128.8,496531.92,496544,2023-09-16T17:26:30Z,496548.6,NULL,Respekt,heshima,s,changamnao,upinzani,ufanisi,NA,qt,NA,3,NA,NA,NA,NA,NA,NA,NA,NA,NA,NA,NA,NA,NA,NA,NA,NA,NA,NA,NA
e3492,task,flow.Sequence,3_0_3_0_5,NA,NA,completion,12403.12,484119,484112.12,484128.8,496531.92,496545,2023-09-16T17:26:30Z,496548.6,NULL,Respekt,heshima,s,changamnao,upinzani,ufanisi,NA,qt,NA,3,NA,NA,NA,NA,NA,NA,NA,NA,NA,NA,NA,NA,NA,NA,NA,NA,NA,NA,NA
e3492,deep,flow.Sequence,3_0_3_0_6_0,NA,NA,skipped,NA,496545,NA,NA,496531.92,496546,2023-09-16T17:26:30Z,496548.6,NULL,Orientierung,urekebisho,s,uelekeo,marekebisho,utunzaji,NA,qt,NA,3,NA,NA,NA,NA,NA,NA,NA,NA,NA,NA,NA,NA,NA,NA,NA,NA,NA,NA,NA
e3492,Shallow Question,html.Page,3_0_3_0_6_1_0,NA,NA,form submission,7054.4,496546,496531.92,496548.6,503603,503603,2023-09-16T17:26:37Z,503617.04,NULL,Orientierung,urekebisho,s,uelekeo,marekebisho,utunzaji,utunzaji,NA,NA,3,NA,NA,NA,NA,NA,NA,NA,NA,NA,NA,NA,NA,NA,NA,NA,NA,NA,NA,NA
e3492,"""Richtig""-Screen",canvas.Screen,3_0_3_0_6_1_1,NA,NA,skipped,NA,503604,NA,NA,503603,503604,2023-09-16T17:26:37Z,503617.04,NULL,Orientierung,urekebisho,s,uelekeo,marekebisho,utunzaji,NA,qt,NA,3,NA,NA,NA,NA,NA,NA,NA,NA,NA,NA,NA,NA,NA,NA,NA,NA,NA,NA,NA
e3492,"""Falsch""-Screen",canvas.Screen,3_0_3_0_6_1_2,NA,NA,timeout,5001.22,503606,503601.44,503617.04,508601.58,508606,2023-09-16T17:26:42Z,508618.26,NULL,Orientierung,urekebisho,s,uelekeo,marekebisho,utunzaji,NA,qt,0,3,NA,NA,NA,NA,NA,NA,NA,NA,NA,NA,NA,NA,NA,NA,NA,NA,NA,NA,NA
e3492,shallow,flow.Sequence,3_0_3_0_6_1,NA,NA,completion,12052.98,496546,496531.92,496548.6,508601.58,508609,2023-09-16T17:26:42Z,508618.26,NULL,Orientierung,urekebisho,s,uelekeo,marekebisho,utunzaji,NA,qt,NA,3,NA,NA,NA,NA,NA,NA,NA,NA,NA,NA,NA,NA,NA,NA,NA,NA,NA,NA,NA
e3492,task,flow.Sequence,3_0_3_0_6,NA,NA,completion,12052.98,496545,496531.92,496548.6,508601.58,508610,2023-09-16T17:26:42Z,508618.26,NULL,Orientierung,urekebisho,s,uelekeo,marekebisho,utunzaji,NA,qt,NA,3,NA,NA,NA,NA,NA,NA,NA,NA,NA,NA,NA,NA,NA,NA,NA,NA,NA,NA,NA
e3492,Deep Question,html.Page,3_0_3_0_7_0_0,NA,NA,form submission,3514.74,508615,508601.58,508618.26,512133,512133,2023-09-16T17:26:45Z,512135.78,NULL,Stimmung,kinyongo,d,NA,NA,NA,ndgnjrje,NA,NA,3,NA,NA,NA,NA,NA,NA,NA,NA,NA,NA,NA,NA,NA,NA,NA,NA,NA,NA,NA
e3492,"""Richtig""-Screen",canvas.Screen,3_0_3_0_7_0_1,NA,NA,skipped,NA,512138,NA,NA,512133,512138,2023-09-16T17:26:45Z,512135.78,NULL,Stimmung,kinyongo,d,NA,NA,NA,NA,qt,NA,3,NA,NA,NA,NA,NA,NA,NA,NA,NA,NA,NA,NA,NA,NA,NA,NA,NA,NA,NA
e3492,"""Falsch""-Screen",canvas.Screen,3_0_3_0_7_0_2,NA,NA,timeout,5001.3,512141,512130.18,512135.78,517120.34,517122,2023-09-16T17:26:50Z,517137.08,NULL,Stimmung,kinyongo,d,NA,NA,NA,NA,qt,0,3,NA,NA,NA,NA,NA,NA,NA,NA,NA,NA,NA,NA,NA,NA,NA,NA,NA,NA,NA
e3492,deep,flow.Sequence,3_0_3_0_7_0,NA,NA,completion,8502.08,508611,508601.58,508618.26,517120.34,517124,2023-09-16T17:26:50Z,517137.08,NULL,Stimmung,kinyongo,d,NA,NA,NA,NA,qt,NA,3,NA,NA,NA,NA,NA,NA,NA,NA,NA,NA,NA,NA,NA,NA,NA,NA,NA,NA,NA
e3492,shallow,flow.Sequence,3_0_3_0_7_1,NA,NA,skipped,NA,517124,NA,NA,517120.34,517124,2023-09-16T17:26:50Z,517137.08,NULL,Stimmung,kinyongo,d,NA,NA,NA,NA,qt,NA,3,NA,NA,NA,NA,NA,NA,NA,NA,NA,NA,NA,NA,NA,NA,NA,NA,NA,NA,NA
e3492,task,flow.Sequence,3_0_3_0_7,NA,NA,completion,8502.08,508611,508601.58,508618.26,517120.34,517125,2023-09-16T17:26:50Z,517137.08,NULL,Stimmung,kinyongo,d,NA,NA,NA,NA,qt,NA,3,NA,NA,NA,NA,NA,NA,NA,NA,NA,NA,NA,NA,NA,NA,NA,NA,NA,NA,NA
e3492,block,flow.Loop,3_0_3_0,NA,NA,completion,82620.6,434489,434489.3,434499.74,517120.34,517126,2023-09-16T17:26:50Z,517137.08,NULL,NA,NA,NA,NA,NA,NA,NA,qt,NA,3,NA,NA,NA,NA,NA,NA,NA,NA,NA,NA,NA,NA,NA,NA,NA,NA,NA,NA,NA
e3492,weiter,canvas.Screen,3_0_3_1,sdf,keypress(Space),response,1082.92,517127,517120.34,517137.08,518220,518234,2023-09-16T17:26:51Z,518320.64,NULL,NA,NA,NA,NA,NA,NA,NA,qt,NA,3,NA,NA,NA,NA,NA,NA,NA,NA,NA,NA,NA,NA,NA,NA,NA,NA,NA,NA,NA
e3492,check continue,flow.Sequence,3_0_3,NA,NA,completion,83720.26,434489,434489.3,434499.74,518220,518235,2023-09-16T17:26:51Z,518320.64,NULL,NA,NA,NA,NA,NA,NA,NA,qt,NA,3,NA,NA,NA,NA,NA,NA,NA,NA,NA,NA,NA,NA,NA,NA,NA,NA,NA,NA,NA
e3492,Deep Question,html.Page,3_0_4_0_0_0_0,NA,NA,form submission,5625.36,518306,518306.38,518320.64,523946,523946,2023-09-16T17:26:57Z,523955.36,NULL,Kontrolle,kudhibiti,d,NA,NA,NA,brhrhtr,NA,NA,4,NA,NA,NA,NA,NA,NA,NA,NA,NA,NA,NA,NA,NA,NA,NA,NA,NA,NA,NA
e3492,"""Richtig""-Screen",canvas.Screen,3_0_4_0_0_0_1,NA,NA,skipped,NA,523948,NA,NA,523946,523948,2023-09-16T17:26:57Z,523955.36,NULL,Kontrolle,kudhibiti,d,NA,NA,NA,NA,sd,NA,4,NA,NA,NA,NA,NA,NA,NA,NA,NA,NA,NA,NA,NA,NA,NA,NA,NA,NA,NA
e3492,"""Falsch""-Screen",canvas.Screen,3_0_4_0_0_0_2,NA,NA,timeout,5001.24,523950,523944.56,523955.36,528939.92,528942,2023-09-16T17:27:02Z,528956.6,NULL,Kontrolle,kudhibiti,d,NA,NA,NA,NA,sd,0,4,NA,NA,NA,NA,NA,NA,NA,NA,NA,NA,NA,NA,NA,NA,NA,NA,NA,NA,NA
e3492,deep,flow.Sequence,3_0_4_0_0_0,NA,NA,completion,10619.28,518306,518306.38,518320.64,528939.92,528943,2023-09-16T17:27:02Z,528956.6,NULL,Kontrolle,kudhibiti,d,NA,NA,NA,NA,sd,NA,4,NA,NA,NA,NA,NA,NA,NA,NA,NA,NA,NA,NA,NA,NA,NA,NA,NA,NA,NA
e3492,shallow,flow.Sequence,3_0_4_0_0_1,NA,NA,skipped,NA,528943,NA,NA,528939.92,528943,2023-09-16T17:27:02Z,528956.6,NULL,Kontrolle,kudhibiti,d,NA,NA,NA,NA,sd,NA,4,NA,NA,NA,NA,NA,NA,NA,NA,NA,NA,NA,NA,NA,NA,NA,NA,NA,NA,NA
e3492,task,flow.Sequence,3_0_4_0_0,NA,NA,completion,10619.28,518306,518306.38,518320.64,528939.92,528944,2023-09-16T17:27:02Z,528956.6,NULL,Kontrolle,kudhibiti,d,NA,NA,NA,NA,sd,NA,4,NA,NA,NA,NA,NA,NA,NA,NA,NA,NA,NA,NA,NA,NA,NA,NA,NA,NA,NA
e3492,deep,flow.Sequence,3_0_4_0_1_0,NA,NA,skipped,NA,528944,NA,NA,528939.92,528944,2023-09-16T17:27:02Z,528956.6,NULL,Orientierung,urekebisho,s,uelekeo,marekebisho,utunzaji,NA,sd,NA,4,NA,NA,NA,NA,NA,NA,NA,NA,NA,NA,NA,NA,NA,NA,NA,NA,NA,NA,NA
e3492,Shallow Question,html.Page,3_0_4_0_1_1_0,NA,NA,form submission,11035.4,528944,528939.92,528956.6,539992,539992,2023-09-16T17:27:13Z,540009.34,NULL,Orientierung,urekebisho,s,uelekeo,marekebisho,utunzaji,utunzaji,NA,NA,4,NA,NA,NA,NA,NA,NA,NA,NA,NA,NA,NA,NA,NA,NA,NA,NA,NA,NA,NA
e3492,"""Richtig""-Screen",canvas.Screen,3_0_4_0_1_1_1,NA,NA,skipped,NA,539994,NA,NA,539992,539994,2023-09-16T17:27:13Z,540009.34,NULL,Orientierung,urekebisho,s,uelekeo,marekebisho,utunzaji,NA,sd,NA,4,NA,NA,NA,NA,NA,NA,NA,NA,NA,NA,NA,NA,NA,NA,NA,NA,NA,NA,NA
e3492,"""Falsch""-Screen",canvas.Screen,3_0_4_0_1_1_2,NA,NA,timeout,5001.3,539997,539992.66,540009.34,544993.96,544996,2023-09-16T17:27:18Z,545010.64,NULL,Orientierung,urekebisho,s,uelekeo,marekebisho,utunzaji,NA,sd,0,4,NA,NA,NA,NA,NA,NA,NA,NA,NA,NA,NA,NA,NA,NA,NA,NA,NA,NA,NA
e3492,shallow,flow.Sequence,3_0_4_0_1_1,NA,NA,completion,16037.36,528944,528939.92,528956.6,544993.96,544997,2023-09-16T17:27:18Z,545010.64,NULL,Orientierung,urekebisho,s,uelekeo,marekebisho,utunzaji,NA,sd,NA,4,NA,NA,NA,NA,NA,NA,NA,NA,NA,NA,NA,NA,NA,NA,NA,NA,NA,NA,NA
e3492,task,flow.Sequence,3_0_4_0_1,NA,NA,completion,16037.36,528944,528939.92,528956.6,544993.96,544997,2023-09-16T17:27:18Z,545010.64,NULL,Orientierung,urekebisho,s,uelekeo,marekebisho,utunzaji,NA,sd,NA,4,NA,NA,NA,NA,NA,NA,NA,NA,NA,NA,NA,NA,NA,NA,NA,NA,NA,NA,NA
e3492,deep,flow.Sequence,3_0_4_0_2_0,NA,NA,skipped,NA,544998,NA,NA,544993.96,544998,2023-09-16T17:27:18Z,545010.64,NULL,Können,unaweza,s,kiongozi,bustani,mienendo,NA,sd,NA,4,NA,NA,NA,NA,NA,NA,NA,NA,NA,NA,NA,NA,NA,NA,NA,NA,NA,NA,NA
e3492,Shallow Question,html.Page,3_0_4_0_2_1_0,NA,NA,form submission,3921.36,544999,544993.96,545010.64,548932,548932,2023-09-16T17:27:22Z,548944.96,NULL,Können,unaweza,s,kiongozi,bustani,mienendo,unaweza,NA,NA,4,NA,NA,NA,NA,NA,NA,NA,NA,NA,NA,NA,NA,NA,NA,NA,NA,NA,NA,NA
e3492,"""Richtig""-Screen",canvas.Screen,3_0_4_0_2_1_1,NA,NA,timeout,5001.26,548934,548930.58,548944.96,553929.56,553931,2023-09-16T17:27:27Z,553946.22,NULL,Können,unaweza,s,kiongozi,bustani,mienendo,NA,sd,1,4,NA,NA,NA,NA,NA,NA,NA,NA,NA,NA,NA,NA,NA,NA,NA,NA,NA,NA,NA
e3492,"""Falsch""-Screen",canvas.Screen,3_0_4_0_2_1_2,NA,NA,skipped,NA,553938,NA,NA,553929.56,553938,2023-09-16T17:27:27Z,553946.22,NULL,Können,unaweza,s,kiongozi,bustani,mienendo,NA,sd,NA,4,NA,NA,NA,NA,NA,NA,NA,NA,NA,NA,NA,NA,NA,NA,NA,NA,NA,NA,NA
e3492,shallow,flow.Sequence,3_0_4_0_2_1,NA,NA,completion,8918.92,544999,544993.96,545010.64,553929.56,553939,2023-09-16T17:27:27Z,553946.22,NULL,Können,unaweza,s,kiongozi,bustani,mienendo,NA,sd,NA,4,NA,NA,NA,NA,NA,NA,NA,NA,NA,NA,NA,NA,NA,NA,NA,NA,NA,NA,NA
e3492,task,flow.Sequence,3_0_4_0_2,NA,NA,completion,8918.92,544997,544993.96,545010.64,553929.56,553939,2023-09-16T17:27:27Z,553946.22,NULL,Können,unaweza,s,kiongozi,bustani,mienendo,NA,sd,NA,4,NA,NA,NA,NA,NA,NA,NA,NA,NA,NA,NA,NA,NA,NA,NA,NA,NA,NA,NA
e3492,Deep Question,html.Page,3_0_4_0_3_0_0,NA,NA,form submission,4068.78,553940,553929.56,553946.22,558015,558016,2023-09-16T17:27:31Z,558030.34,NULL,Stimmung,kinyongo,d,NA,NA,NA,rgertgegget,NA,NA,4,NA,NA,NA,NA,NA,NA,NA,NA,NA,NA,NA,NA,NA,NA,NA,NA,NA,NA,NA
e3492,"""Richtig""-Screen",canvas.Screen,3_0_4_0_3_0_1,NA,NA,skipped,NA,558017,NA,NA,558015,558017,2023-09-16T17:27:31Z,558030.34,NULL,Stimmung,kinyongo,d,NA,NA,NA,NA,sd,NA,4,NA,NA,NA,NA,NA,NA,NA,NA,NA,NA,NA,NA,NA,NA,NA,NA,NA,NA,NA
e3492,"""Falsch""-Screen",canvas.Screen,3_0_4_0_3_0_2,NA,NA,timeout,5001.2200000001,558019,558014.54,558030.34,563014.9,563017,2023-09-16T17:27:36Z,563031.56,NULL,Stimmung,kinyongo,d,NA,NA,NA,NA,sd,0,4,NA,NA,NA,NA,NA,NA,NA,NA,NA,NA,NA,NA,NA,NA,NA,NA,NA,NA,NA
e3492,deep,flow.Sequence,3_0_4_0_3_0,NA,NA,completion,9068.6800000001,553940,553929.56,553946.22,563014.9,563017,2023-09-16T17:27:36Z,563031.56,NULL,Stimmung,kinyongo,d,NA,NA,NA,NA,sd,NA,4,NA,NA,NA,NA,NA,NA,NA,NA,NA,NA,NA,NA,NA,NA,NA,NA,NA,NA,NA
e3492,shallow,flow.Sequence,3_0_4_0_3_1,NA,NA,skipped,NA,563018,NA,NA,563014.9,563018,2023-09-16T17:27:36Z,563031.56,NULL,Stimmung,kinyongo,d,NA,NA,NA,NA,sd,NA,4,NA,NA,NA,NA,NA,NA,NA,NA,NA,NA,NA,NA,NA,NA,NA,NA,NA,NA,NA
e3492,task,flow.Sequence,3_0_4_0_3,NA,NA,completion,9068.6800000001,553940,553929.56,553946.22,563014.9,563018,2023-09-16T17:27:36Z,563031.56,NULL,Stimmung,kinyongo,d,NA,NA,NA,NA,sd,NA,4,NA,NA,NA,NA,NA,NA,NA,NA,NA,NA,NA,NA,NA,NA,NA,NA,NA,NA,NA
e3492,Deep Question,html.Page,3_0_4_0_4_0_0,NA,NA,form submission,11547.44,563019,563014.9,563031.56,574579,574579,2023-09-16T17:27:48Z,574584.4,NULL,Gefährdung,kuhatarisha,d,NA,NA,NA,kuhatarisha,NA,NA,4,NA,NA,NA,NA,NA,NA,NA,NA,NA,NA,NA,NA,NA,NA,NA,NA,NA,NA,NA
e3492,"""Richtig""-Screen",canvas.Screen,3_0_4_0_4_0_1,NA,NA,timeout,5034.58,574581,574577.46,574584.4,579568.96,579579,2023-09-16T17:27:53Z,579618.98,NULL,Gefährdung,kuhatarisha,d,NA,NA,NA,NA,sd,1,4,NA,NA,NA,NA,NA,NA,NA,NA,NA,NA,NA,NA,NA,NA,NA,NA,NA,NA,NA
e3492,"""Falsch""-Screen",canvas.Screen,3_0_4_0_4_0_2,NA,NA,skipped,NA,579610,NA,NA,579568.96,579611,2023-09-16T17:27:53Z,579618.98,NULL,Gefährdung,kuhatarisha,d,NA,NA,NA,NA,sd,NA,4,NA,NA,NA,NA,NA,NA,NA,NA,NA,NA,NA,NA,NA,NA,NA,NA,NA,NA,NA
e3492,deep,flow.Sequence,3_0_4_0_4_0,NA,NA,completion,16537.4,563019,563014.9,563031.56,579568.96,579612,2023-09-16T17:27:53Z,579618.98,NULL,Gefährdung,kuhatarisha,d,NA,NA,NA,NA,sd,NA,4,NA,NA,NA,NA,NA,NA,NA,NA,NA,NA,NA,NA,NA,NA,NA,NA,NA,NA,NA
e3492,shallow,flow.Sequence,3_0_4_0_4_1,NA,NA,skipped,NA,579613,NA,NA,579568.96,579613,2023-09-16T17:27:53Z,579618.98,NULL,Gefährdung,kuhatarisha,d,NA,NA,NA,NA,sd,NA,4,NA,NA,NA,NA,NA,NA,NA,NA,NA,NA,NA,NA,NA,NA,NA,NA,NA,NA,NA
e3492,task,flow.Sequence,3_0_4_0_4,NA,NA,completion,16537.4,563018,563014.9,563031.56,579568.96,579614,2023-09-16T17:27:53Z,579618.98,NULL,Gefährdung,kuhatarisha,d,NA,NA,NA,NA,sd,NA,4,NA,NA,NA,NA,NA,NA,NA,NA,NA,NA,NA,NA,NA,NA,NA,NA,NA,NA,NA
e3492,deep,flow.Sequence,3_0_4_0_5_0,NA,NA,skipped,NA,579615,NA,NA,579568.96,579615,2023-09-16T17:27:53Z,579618.98,NULL,Respekt,heshima,s,changamnao,upinzani,ufanisi,NA,sd,NA,4,NA,NA,NA,NA,NA,NA,NA,NA,NA,NA,NA,NA,NA,NA,NA,NA,NA,NA,NA
e3492,Shallow Question,html.Page,3_0_4_0_5_1_0,NA,NA,form submission,4982.02,579616,579568.96,579618.98,584601,584601,2023-09-16T17:27:58Z,584603.82,NULL,Respekt,heshima,s,changamnao,upinzani,ufanisi,heshima,NA,NA,4,NA,NA,NA,NA,NA,NA,NA,NA,NA,NA,NA,NA,NA,NA,NA,NA,NA,NA,NA
e3492,"""Richtig""-Screen",canvas.Screen,3_0_4_0_5_1_1,NA,NA,timeout,5001.2200000001,584604,584598.7,584603.82,589588.38,589591,2023-09-16T17:28:03Z,589605.04,NULL,Respekt,heshima,s,changamnao,upinzani,ufanisi,NA,sd,1,4,NA,NA,NA,NA,NA,NA,NA,NA,NA,NA,NA,NA,NA,NA,NA,NA,NA,NA,NA
e3492,"""Falsch""-Screen",canvas.Screen,3_0_4_0_5_1_2,NA,NA,skipped,NA,589602,NA,NA,589588.38,589604,2023-09-16T17:28:03Z,589605.04,NULL,Respekt,heshima,s,changamnao,upinzani,ufanisi,NA,sd,NA,4,NA,NA,NA,NA,NA,NA,NA,NA,NA,NA,NA,NA,NA,NA,NA,NA,NA,NA,NA
e3492,shallow,flow.Sequence,3_0_4_0_5_1,NA,NA,completion,9969.4,579616,579568.96,579618.98,589588.38,589607,2023-09-16T17:28:03Z,589605.04,NULL,Respekt,heshima,s,changamnao,upinzani,ufanisi,NA,sd,NA,4,NA,NA,NA,NA,NA,NA,NA,NA,NA,NA,NA,NA,NA,NA,NA,NA,NA,NA,NA
e3492,task,flow.Sequence,3_0_4_0_5,NA,NA,completion,9969.4,579615,579568.96,579618.98,589588.38,589610,2023-09-16T17:28:03Z,589605.04,NULL,Respekt,heshima,s,changamnao,upinzani,ufanisi,NA,sd,NA,4,NA,NA,NA,NA,NA,NA,NA,NA,NA,NA,NA,NA,NA,NA,NA,NA,NA,NA,NA
e3492,deep,flow.Sequence,3_0_4_0_6_0,NA,NA,skipped,NA,589611,NA,NA,589588.38,589611,2023-09-16T17:28:03Z,589605.04,NULL,Kreativität,ubunifu,s,mratibu,mwendelezo,makubaliano,NA,sd,NA,4,NA,NA,NA,NA,NA,NA,NA,NA,NA,NA,NA,NA,NA,NA,NA,NA,NA,NA,NA
e3492,Shallow Question,html.Page,3_0_4_0_6_1_0,NA,NA,form submission,5122.96,589612,589588.38,589605.04,594728,594728,2023-09-16T17:28:08Z,594739.64,NULL,Kreativität,ubunifu,s,mratibu,mwendelezo,makubaliano,ubunifu,NA,NA,4,NA,NA,NA,NA,NA,NA,NA,NA,NA,NA,NA,NA,NA,NA,NA,NA,NA,NA,NA
e3492,"""Richtig""-Screen",canvas.Screen,3_0_4_0_6_1_1,NA,NA,timeout,5001.24,594730,594726.6,594739.64,599724.2,599725,2023-09-16T17:28:13Z,599740.88,NULL,Kreativität,ubunifu,s,mratibu,mwendelezo,makubaliano,NA,sd,1,4,NA,NA,NA,NA,NA,NA,NA,NA,NA,NA,NA,NA,NA,NA,NA,NA,NA,NA,NA
e3492,"""Falsch""-Screen",canvas.Screen,3_0_4_0_6_1_2,NA,NA,skipped,NA,599728,NA,NA,599724.2,599728,2023-09-16T17:28:13Z,599740.88,NULL,Kreativität,ubunifu,s,mratibu,mwendelezo,makubaliano,NA,sd,NA,4,NA,NA,NA,NA,NA,NA,NA,NA,NA,NA,NA,NA,NA,NA,NA,NA,NA,NA,NA
e3492,shallow,flow.Sequence,3_0_4_0_6_1,NA,NA,completion,10119.16,589612,589588.38,589605.04,599724.2,599728,2023-09-16T17:28:13Z,599740.88,NULL,Kreativität,ubunifu,s,mratibu,mwendelezo,makubaliano,NA,sd,NA,4,NA,NA,NA,NA,NA,NA,NA,NA,NA,NA,NA,NA,NA,NA,NA,NA,NA,NA,NA
e3492,task,flow.Sequence,3_0_4_0_6,NA,NA,completion,10119.16,589611,589588.38,589605.04,599724.2,599728,2023-09-16T17:28:13Z,599740.88,NULL,Kreativität,ubunifu,s,mratibu,mwendelezo,makubaliano,NA,sd,NA,4,NA,NA,NA,NA,NA,NA,NA,NA,NA,NA,NA,NA,NA,NA,NA,NA,NA,NA,NA
e3492,Deep Question,html.Page,3_0_4_0_7_0_0,NA,NA,form submission,3327.12,599728,599724.2,599740.88,603068,603068,2023-09-16T17:28:16Z,603075,NULL,Betrüger,mdanganyifu,d,NA,NA,NA,nfghjmgjkfz,NA,NA,4,NA,NA,NA,NA,NA,NA,NA,NA,NA,NA,NA,NA,NA,NA,NA,NA,NA,NA,NA
e3492,"""Richtig""-Screen",canvas.Screen,3_0_4_0_7_0_1,NA,NA,skipped,NA,603071,NA,NA,603068,603071,2023-09-16T17:28:16Z,603075,NULL,Betrüger,mdanganyifu,d,NA,NA,NA,NA,sd,NA,4,NA,NA,NA,NA,NA,NA,NA,NA,NA,NA,NA,NA,NA,NA,NA,NA,NA,NA,NA
e3492,"""Falsch""-Screen",canvas.Screen,3_0_4_0_7_0_2,NA,NA,timeout,5001.22,603073,603066.3,603075,608059.56,608065,2023-09-16T17:28:21Z,608076.22,NULL,Betrüger,mdanganyifu,d,NA,NA,NA,NA,sd,0,4,NA,NA,NA,NA,NA,NA,NA,NA,NA,NA,NA,NA,NA,NA,NA,NA,NA,NA,NA
e3492,deep,flow.Sequence,3_0_4_0_7_0,NA,NA,completion,8318.6800000001,599728,599724.2,599740.88,608059.56,608066,2023-09-16T17:28:21Z,608076.22,NULL,Betrüger,mdanganyifu,d,NA,NA,NA,NA,sd,NA,4,NA,NA,NA,NA,NA,NA,NA,NA,NA,NA,NA,NA,NA,NA,NA,NA,NA,NA,NA
e3492,shallow,flow.Sequence,3_0_4_0_7_1,NA,NA,skipped,NA,608067,NA,NA,608059.56,608068,2023-09-16T17:28:21Z,608076.22,NULL,Betrüger,mdanganyifu,d,NA,NA,NA,NA,sd,NA,4,NA,NA,NA,NA,NA,NA,NA,NA,NA,NA,NA,NA,NA,NA,NA,NA,NA,NA,NA
e3492,task,flow.Sequence,3_0_4_0_7,NA,NA,completion,8318.6800000001,599728,599724.2,599740.88,608059.56,608068,2023-09-16T17:28:21Z,608076.22,NULL,Betrüger,mdanganyifu,d,NA,NA,NA,NA,sd,NA,4,NA,NA,NA,NA,NA,NA,NA,NA,NA,NA,NA,NA,NA,NA,NA,NA,NA,NA,NA
e3492,block,flow.Loop,3_0_4_0,NA,NA,completion,89738.92,518306,518306.38,518320.64,608059.56,608070,2023-09-16T17:28:21Z,608076.22,NULL,NA,NA,NA,NA,NA,NA,NA,sd,NA,4,NA,NA,NA,NA,NA,NA,NA,NA,NA,NA,NA,NA,NA,NA,NA,NA,NA,NA,NA
e3492,weiter,canvas.Screen,3_0_4_1,sdf,keypress(Space),response,1096.78,608070,608059.56,608076.22,609173,609183,2023-09-16T17:28:22Z,609293.3,NULL,NA,NA,NA,NA,NA,NA,NA,sd,NA,4,NA,NA,NA,NA,NA,NA,NA,NA,NA,NA,NA,NA,NA,NA,NA,NA,NA,NA,NA
e3492,check continue,flow.Sequence,3_0_4,NA,NA,completion,90852.36,518306,518306.38,518320.64,609173,609184,2023-09-16T17:28:22Z,609293.3,NULL,NA,NA,NA,NA,NA,NA,NA,sd,NA,4,NA,NA,NA,NA,NA,NA,NA,NA,NA,NA,NA,NA,NA,NA,NA,NA,NA,NA,NA
e3492,Deep Question,html.Page,3_0_5_0_0_0_0,NA,NA,form submission,10479.7,609291,609290.58,609293.3,619773,619773,2023-09-16T17:28:33Z,619779.16,NULL,Stimmung,kinyongo,d,NA,NA,NA,kuhatarisha,NA,NA,5,NA,NA,NA,NA,NA,NA,NA,NA,NA,NA,NA,NA,NA,NA,NA,NA,NA,NA,NA
e3492,"""Richtig""-Screen",canvas.Screen,3_0_5_0_0_0_1,NA,NA,skipped,NA,619775,NA,NA,619773,619775,2023-09-16T17:28:33Z,619779.16,NULL,Stimmung,kinyongo,d,NA,NA,NA,NA,sdf,NA,5,NA,NA,NA,NA,NA,NA,NA,NA,NA,NA,NA,NA,NA,NA,NA,NA,NA,NA,NA
e3492,"""Falsch""-Screen",canvas.Screen,3_0_5_0_0_0_2,NA,NA,timeout,5001.2799999999,619777,619771.24,619779.16,624763.76,624766,2023-09-16T17:28:38Z,624780.44,NULL,Stimmung,kinyongo,d,NA,NA,NA,NA,sdf,0,5,NA,NA,NA,NA,NA,NA,NA,NA,NA,NA,NA,NA,NA,NA,NA,NA,NA,NA,NA
e3492,deep,flow.Sequence,3_0_5_0_0_0,NA,NA,completion,15470.46,609291,609290.58,609293.3,624763.76,624766,2023-09-16T17:28:38Z,624780.44,NULL,Stimmung,kinyongo,d,NA,NA,NA,NA,sdf,NA,5,NA,NA,NA,NA,NA,NA,NA,NA,NA,NA,NA,NA,NA,NA,NA,NA,NA,NA,NA
e3492,shallow,flow.Sequence,3_0_5_0_0_1,NA,NA,skipped,NA,624767,NA,NA,624763.76,624767,2023-09-16T17:28:38Z,624780.44,NULL,Stimmung,kinyongo,d,NA,NA,NA,NA,sdf,NA,5,NA,NA,NA,NA,NA,NA,NA,NA,NA,NA,NA,NA,NA,NA,NA,NA,NA,NA,NA
e3492,task,flow.Sequence,3_0_5_0_0,NA,NA,completion,15470.46,609291,609290.58,609293.3,624763.76,624768,2023-09-16T17:28:38Z,624780.44,NULL,Stimmung,kinyongo,d,NA,NA,NA,NA,sdf,NA,5,NA,NA,NA,NA,NA,NA,NA,NA,NA,NA,NA,NA,NA,NA,NA,NA,NA,NA,NA
e3492,deep,flow.Sequence,3_0_5_0_1_0,NA,NA,skipped,NA,624769,NA,NA,624763.76,624769,2023-09-16T17:28:38Z,624780.44,NULL,Orientierung,urekebisho,s,uelekeo,marekebisho,utunzaji,NA,sdf,NA,5,NA,NA,NA,NA,NA,NA,NA,NA,NA,NA,NA,NA,NA,NA,NA,NA,NA,NA,NA
e3492,Shallow Question,html.Page,3_0_5_0_1_1_0,NA,NA,form submission,7384.5600000001,624769,624763.76,624780.44,632165,632165,2023-09-16T17:28:45Z,632165.62,NULL,Orientierung,urekebisho,s,uelekeo,marekebisho,utunzaji,urekebisho,NA,NA,5,NA,NA,NA,NA,NA,NA,NA,NA,NA,NA,NA,NA,NA,NA,NA,NA,NA,NA,NA
e3492,"""Richtig""-Screen",canvas.Screen,3_0_5_0_1_1_1,NA,NA,timeout,5001.22,632168,632163.5,632165.62,637150.18,637152,2023-09-16T17:28:50Z,637166.84,NULL,Orientierung,urekebisho,s,uelekeo,marekebisho,utunzaji,NA,sdf,1,5,NA,NA,NA,NA,NA,NA,NA,NA,NA,NA,NA,NA,NA,NA,NA,NA,NA,NA,NA
e3492,"""Falsch""-Screen",canvas.Screen,3_0_5_0_1_1_2,NA,NA,skipped,NA,637158,NA,NA,637150.18,637158,2023-09-16T17:28:50Z,637166.84,NULL,Orientierung,urekebisho,s,uelekeo,marekebisho,utunzaji,NA,sdf,NA,5,NA,NA,NA,NA,NA,NA,NA,NA,NA,NA,NA,NA,NA,NA,NA,NA,NA,NA,NA
e3492,shallow,flow.Sequence,3_0_5_0_1_1,NA,NA,completion,12369.74,624769,624763.76,624780.44,637150.18,637159,2023-09-16T17:28:50Z,637166.84,NULL,Orientierung,urekebisho,s,uelekeo,marekebisho,utunzaji,NA,sdf,NA,5,NA,NA,NA,NA,NA,NA,NA,NA,NA,NA,NA,NA,NA,NA,NA,NA,NA,NA,NA
e3492,task,flow.Sequence,3_0_5_0_1,NA,NA,completion,12369.74,624768,624763.76,624780.44,637150.18,637159,2023-09-16T17:28:50Z,637166.84,NULL,Orientierung,urekebisho,s,uelekeo,marekebisho,utunzaji,NA,sdf,NA,5,NA,NA,NA,NA,NA,NA,NA,NA,NA,NA,NA,NA,NA,NA,NA,NA,NA,NA,NA
e3492,deep,flow.Sequence,3_0_5_0_2_0,NA,NA,skipped,NA,637159,NA,NA,637150.18,637160,2023-09-16T17:28:50Z,637166.84,NULL,Können,unaweza,s,kiongozi,bustani,mienendo,NA,sdf,NA,5,NA,NA,NA,NA,NA,NA,NA,NA,NA,NA,NA,NA,NA,NA,NA,NA,NA,NA,NA
e3492,Shallow Question,html.Page,3_0_5_0_2_1_0,NA,NA,form submission,6113.16,637160,637150.18,637166.84,643280,643280,2023-09-16T17:28:56Z,643285.06,NULL,Können,unaweza,s,kiongozi,bustani,mienendo,unaweza,NA,NA,5,NA,NA,NA,NA,NA,NA,NA,NA,NA,NA,NA,NA,NA,NA,NA,NA,NA,NA,NA
e3492,"""Richtig""-Screen",canvas.Screen,3_0_5_0_2_1_1,NA,NA,timeout,5001.22,643282,643279.02,643285.06,648269.62,648272,2023-09-16T17:29:01Z,648286.28,NULL,Können,unaweza,s,kiongozi,bustani,mienendo,NA,sdf,1,5,NA,NA,NA,NA,NA,NA,NA,NA,NA,NA,NA,NA,NA,NA,NA,NA,NA,NA,NA
e3492,"""Falsch""-Screen",canvas.Screen,3_0_5_0_2_1_2,NA,NA,skipped,NA,648281,NA,NA,648269.62,648281,2023-09-16T17:29:01Z,648286.28,NULL,Können,unaweza,s,kiongozi,bustani,mienendo,NA,sdf,NA,5,NA,NA,NA,NA,NA,NA,NA,NA,NA,NA,NA,NA,NA,NA,NA,NA,NA,NA,NA
e3492,shallow,flow.Sequence,3_0_5_0_2_1,NA,NA,completion,11102.78,637160,637150.18,637166.84,648269.62,648282,2023-09-16T17:29:01Z,648286.28,NULL,Können,unaweza,s,kiongozi,bustani,mienendo,NA,sdf,NA,5,NA,NA,NA,NA,NA,NA,NA,NA,NA,NA,NA,NA,NA,NA,NA,NA,NA,NA,NA
e3492,task,flow.Sequence,3_0_5_0_2,NA,NA,completion,11102.78,637159,637150.18,637166.84,648269.62,648282,2023-09-16T17:29:01Z,648286.28,NULL,Können,unaweza,s,kiongozi,bustani,mienendo,NA,sdf,NA,5,NA,NA,NA,NA,NA,NA,NA,NA,NA,NA,NA,NA,NA,NA,NA,NA,NA,NA,NA
e3492,Deep Question,html.Page,3_0_5_0_3_0_0,NA,NA,form submission,6223.72,648283,648269.62,648286.28,654510,654510,2023-09-16T17:29:08Z,654521.18,NULL,Betrüger,mdanganyifu,d,NA,NA,NA,kuhatarisha,NA,NA,5,NA,NA,NA,NA,NA,NA,NA,NA,NA,NA,NA,NA,NA,NA,NA,NA,NA,NA,NA
e3492,"""Richtig""-Screen",canvas.Screen,3_0_5_0_3_0_1,NA,NA,skipped,NA,654512,NA,NA,654510,654513,2023-09-16T17:29:08Z,654521.18,NULL,Betrüger,mdanganyifu,d,NA,NA,NA,NA,sdf,NA,5,NA,NA,NA,NA,NA,NA,NA,NA,NA,NA,NA,NA,NA,NA,NA,NA,NA,NA,NA
e3492,"""Falsch""-Screen",canvas.Screen,3_0_5_0_3_0_2,NA,NA,timeout,5001.22,654514,654508.12,654521.18,659505.72,659506,2023-09-16T17:29:13Z,659522.4,NULL,Betrüger,mdanganyifu,d,NA,NA,NA,NA,sdf,0,5,NA,NA,NA,NA,NA,NA,NA,NA,NA,NA,NA,NA,NA,NA,NA,NA,NA,NA,NA
e3492,deep,flow.Sequence,3_0_5_0_3_0,NA,NA,completion,11219.44,648283,648269.62,648286.28,659505.72,659506,2023-09-16T17:29:13Z,659522.4,NULL,Betrüger,mdanganyifu,d,NA,NA,NA,NA,sdf,NA,5,NA,NA,NA,NA,NA,NA,NA,NA,NA,NA,NA,NA,NA,NA,NA,NA,NA,NA,NA
e3492,shallow,flow.Sequence,3_0_5_0_3_1,NA,NA,skipped,NA,659506,NA,NA,659505.72,659506,2023-09-16T17:29:13Z,659522.4,NULL,Betrüger,mdanganyifu,d,NA,NA,NA,NA,sdf,NA,5,NA,NA,NA,NA,NA,NA,NA,NA,NA,NA,NA,NA,NA,NA,NA,NA,NA,NA,NA
e3492,task,flow.Sequence,3_0_5_0_3,NA,NA,completion,11219.44,648283,648269.62,648286.28,659505.72,659506,2023-09-16T17:29:13Z,659522.4,NULL,Betrüger,mdanganyifu,d,NA,NA,NA,NA,sdf,NA,5,NA,NA,NA,NA,NA,NA,NA,NA,NA,NA,NA,NA,NA,NA,NA,NA,NA,NA,NA
e3492,Deep Question,html.Page,3_0_5_0_4_0_0,NA,NA,form submission,7215.6,659507,659505.72,659522.4,666738,666740,2023-09-16T17:29:20Z,666740.84,NULL,Kontrolle,kudhibiti,d,NA,NA,NA,kuhatarisha,NA,NA,5,NA,NA,NA,NA,NA,NA,NA,NA,NA,NA,NA,NA,NA,NA,NA,NA,NA,NA,NA
e3492,"""Richtig""-Screen",canvas.Screen,3_0_5_0_4_0_1,NA,NA,skipped,NA,666746,NA,NA,666738,666746,2023-09-16T17:29:20Z,666740.84,NULL,Kontrolle,kudhibiti,d,NA,NA,NA,NA,sdf,NA,5,NA,NA,NA,NA,NA,NA,NA,NA,NA,NA,NA,NA,NA,NA,NA,NA,NA,NA,NA
e3492,"""Falsch""-Screen",canvas.Screen,3_0_5_0_4_0_2,NA,NA,timeout,5001.26,666749,666735.78,666740.84,671725.44,671727,2023-09-16T17:29:25Z,671742.1,NULL,Kontrolle,kudhibiti,d,NA,NA,NA,NA,sdf,0,5,NA,NA,NA,NA,NA,NA,NA,NA,NA,NA,NA,NA,NA,NA,NA,NA,NA,NA,NA
e3492,deep,flow.Sequence,3_0_5_0_4_0,NA,NA,completion,12203.04,659507,659505.72,659522.4,671725.44,671729,2023-09-16T17:29:25Z,671742.1,NULL,Kontrolle,kudhibiti,d,NA,NA,NA,NA,sdf,NA,5,NA,NA,NA,NA,NA,NA,NA,NA,NA,NA,NA,NA,NA,NA,NA,NA,NA,NA,NA
e3492,shallow,flow.Sequence,3_0_5_0_4_1,NA,NA,skipped,NA,671729,NA,NA,671725.44,671730,2023-09-16T17:29:25Z,671742.1,NULL,Kontrolle,kudhibiti,d,NA,NA,NA,NA,sdf,NA,5,NA,NA,NA,NA,NA,NA,NA,NA,NA,NA,NA,NA,NA,NA,NA,NA,NA,NA,NA
e3492,task,flow.Sequence,3_0_5_0_4,NA,NA,completion,12203.04,659507,659505.72,659522.4,671725.44,671731,2023-09-16T17:29:25Z,671742.1,NULL,Kontrolle,kudhibiti,d,NA,NA,NA,NA,sdf,NA,5,NA,NA,NA,NA,NA,NA,NA,NA,NA,NA,NA,NA,NA,NA,NA,NA,NA,NA,NA
e3492,Deep Question,html.Page,3_0_5_0_5_0_0,NA,NA,form submission,7995.9,671732,671725.44,671742.1,679738,679738,2023-09-16T17:29:33Z,679744.08,NULL,Gefährdung,kuhatarisha,d,NA,NA,NA,kuhatarisha,NA,NA,5,NA,NA,NA,NA,NA,NA,NA,NA,NA,NA,NA,NA,NA,NA,NA,NA,NA,NA,NA
e3492,"""Richtig""-Screen",canvas.Screen,3_0_5_0_5_0_1,NA,NA,timeout,5001.2200000001,679740,679735.8,679744.08,684728.64,684729,2023-09-16T17:29:38Z,684745.3,NULL,Gefährdung,kuhatarisha,d,NA,NA,NA,NA,sdf,1,5,NA,NA,NA,NA,NA,NA,NA,NA,NA,NA,NA,NA,NA,NA,NA,NA,NA,NA,NA
e3492,"""Falsch""-Screen",canvas.Screen,3_0_5_0_5_0_2,NA,NA,skipped,NA,684732,NA,NA,684728.64,684732,2023-09-16T17:29:38Z,684745.3,NULL,Gefährdung,kuhatarisha,d,NA,NA,NA,NA,sdf,NA,5,NA,NA,NA,NA,NA,NA,NA,NA,NA,NA,NA,NA,NA,NA,NA,NA,NA,NA,NA
e3492,deep,flow.Sequence,3_0_5_0_5_0,NA,NA,completion,12986.54,671732,671725.44,671742.1,684728.64,684732,2023-09-16T17:29:38Z,684745.3,NULL,Gefährdung,kuhatarisha,d,NA,NA,NA,NA,sdf,NA,5,NA,NA,NA,NA,NA,NA,NA,NA,NA,NA,NA,NA,NA,NA,NA,NA,NA,NA,NA
e3492,shallow,flow.Sequence,3_0_5_0_5_1,NA,NA,skipped,NA,684733,NA,NA,684728.64,684733,2023-09-16T17:29:38Z,684745.3,NULL,Gefährdung,kuhatarisha,d,NA,NA,NA,NA,sdf,NA,5,NA,NA,NA,NA,NA,NA,NA,NA,NA,NA,NA,NA,NA,NA,NA,NA,NA,NA,NA
e3492,task,flow.Sequence,3_0_5_0_5,NA,NA,completion,12986.54,671731,671725.44,671742.1,684728.64,684733,2023-09-16T17:29:38Z,684745.3,NULL,Gefährdung,kuhatarisha,d,NA,NA,NA,NA,sdf,NA,5,NA,NA,NA,NA,NA,NA,NA,NA,NA,NA,NA,NA,NA,NA,NA,NA,NA,NA,NA
e3492,deep,flow.Sequence,3_0_5_0_6_0,NA,NA,skipped,NA,684734,NA,NA,684728.64,684734,2023-09-16T17:29:38Z,684745.3,NULL,Kreativität,ubunifu,s,mratibu,mwendelezo,makubaliano,NA,sdf,NA,5,NA,NA,NA,NA,NA,NA,NA,NA,NA,NA,NA,NA,NA,NA,NA,NA,NA,NA,NA
e3492,Shallow Question,html.Page,3_0_5_0_6_1_0,NA,NA,form submission,7525.7,684735,684728.64,684745.3,692271,692271,2023-09-16T17:29:45Z,692280.5,NULL,Kreativität,ubunifu,s,mratibu,mwendelezo,makubaliano,ubunifu,NA,NA,5,NA,NA,NA,NA,NA,NA,NA,NA,NA,NA,NA,NA,NA,NA,NA,NA,NA,NA,NA
e3492,"""Richtig""-Screen",canvas.Screen,3_0_5_0_6_1_1,NA,NA,timeout,5001.22,692273,692269.1,692280.5,697265.06,697268,2023-09-16T17:29:50Z,697281.72,NULL,Kreativität,ubunifu,s,mratibu,mwendelezo,makubaliano,NA,sdf,1,5,NA,NA,NA,NA,NA,NA,NA,NA,NA,NA,NA,NA,NA,NA,NA,NA,NA,NA,NA
e3492,"""Falsch""-Screen",canvas.Screen,3_0_5_0_6_1_2,NA,NA,skipped,NA,697288,NA,NA,697265.06,697289,2023-09-16T17:29:51Z,697281.72,NULL,Kreativität,ubunifu,s,mratibu,mwendelezo,makubaliano,NA,sdf,NA,5,NA,NA,NA,NA,NA,NA,NA,NA,NA,NA,NA,NA,NA,NA,NA,NA,NA,NA,NA
e3492,shallow,flow.Sequence,3_0_5_0_6_1,NA,NA,completion,12519.76,684735,684728.64,684745.3,697265.06,697289,2023-09-16T17:29:51Z,697281.72,NULL,Kreativität,ubunifu,s,mratibu,mwendelezo,makubaliano,NA,sdf,NA,5,NA,NA,NA,NA,NA,NA,NA,NA,NA,NA,NA,NA,NA,NA,NA,NA,NA,NA,NA
e3492,task,flow.Sequence,3_0_5_0_6,NA,NA,completion,12519.76,684733,684728.64,684745.3,697265.06,697290,2023-09-16T17:29:51Z,697281.72,NULL,Kreativität,ubunifu,s,mratibu,mwendelezo,makubaliano,NA,sdf,NA,5,NA,NA,NA,NA,NA,NA,NA,NA,NA,NA,NA,NA,NA,NA,NA,NA,NA,NA,NA
e3492,deep,flow.Sequence,3_0_5_0_7_0,NA,NA,skipped,NA,697292,NA,NA,697265.06,697293,2023-09-16T17:29:51Z,697281.72,NULL,Respekt,heshima,s,changamnao,upinzani,ufanisi,NA,sdf,NA,5,NA,NA,NA,NA,NA,NA,NA,NA,NA,NA,NA,NA,NA,NA,NA,NA,NA,NA,NA
e3492,Shallow Question,html.Page,3_0_5_0_7_1_0,NA,NA,form submission,4201.28,697294,697265.06,697281.72,701483,701483,2023-09-16T17:29:55Z,701482.76,NULL,Respekt,heshima,s,changamnao,upinzani,ufanisi,heshima,NA,NA,5,NA,NA,NA,NA,NA,NA,NA,NA,NA,NA,NA,NA,NA,NA,NA,NA,NA,NA,NA
e3492,"""Richtig""-Screen",canvas.Screen,3_0_5_0_7_1_1,NA,NA,timeout,5001.22,701486,701480.72,701482.76,706467.32,706470,2023-09-16T17:30:00Z,706483.98,NULL,Respekt,heshima,s,changamnao,upinzani,ufanisi,NA,sdf,1,5,NA,NA,NA,NA,NA,NA,NA,NA,NA,NA,NA,NA,NA,NA,NA,NA,NA,NA,NA
e3492,"""Falsch""-Screen",canvas.Screen,3_0_5_0_7_1_2,NA,NA,skipped,NA,706478,NA,NA,706467.32,706478,2023-09-16T17:30:00Z,706483.98,NULL,Respekt,heshima,s,changamnao,upinzani,ufanisi,NA,sdf,NA,5,NA,NA,NA,NA,NA,NA,NA,NA,NA,NA,NA,NA,NA,NA,NA,NA,NA,NA,NA
e3492,shallow,flow.Sequence,3_0_5_0_7_1,NA,NA,completion,9185.6,697293,697265.06,697281.72,706467.32,706479,2023-09-16T17:30:00Z,706483.98,NULL,Respekt,heshima,s,changamnao,upinzani,ufanisi,NA,sdf,NA,5,NA,NA,NA,NA,NA,NA,NA,NA,NA,NA,NA,NA,NA,NA,NA,NA,NA,NA,NA
e3492,task,flow.Sequence,3_0_5_0_7,NA,NA,completion,9185.6,697291,697265.06,697281.72,706467.32,706480,2023-09-16T17:30:00Z,706483.98,NULL,Respekt,heshima,s,changamnao,upinzani,ufanisi,NA,sdf,NA,5,NA,NA,NA,NA,NA,NA,NA,NA,NA,NA,NA,NA,NA,NA,NA,NA,NA,NA,NA
e3492,block,flow.Loop,3_0_5_0,NA,NA,completion,97174.02,609291,609290.58,609293.3,706467.32,706480,2023-09-16T17:30:00Z,706483.98,NULL,NA,NA,NA,NA,NA,NA,NA,sdf,NA,5,NA,NA,NA,NA,NA,NA,NA,NA,NA,NA,NA,NA,NA,NA,NA,NA,NA,NA,NA
e3492,weiter,canvas.Screen,3_0_5_1,sdf,keypress(Space),response,1095.02,706481,706467.32,706483.98,707579,707589,2023-09-16T17:30:01Z,707667.62,NULL,NA,NA,NA,NA,NA,NA,NA,sdf,NA,5,NA,NA,NA,NA,NA,NA,NA,NA,NA,NA,NA,NA,NA,NA,NA,NA,NA,NA,NA
e3492,check continue,flow.Sequence,3_0_5,NA,NA,completion,98285.7,609291,609290.58,609293.3,707579,707591,2023-09-16T17:30:01Z,707667.62,NULL,NA,NA,NA,NA,NA,NA,NA,sdf,NA,5,NA,NA,NA,NA,NA,NA,NA,NA,NA,NA,NA,NA,NA,NA,NA,NA,NA,NA,NA
e3492,Deep Question,html.Page,3_0_6_0_0_0_0,NA,NA,form submission,5696.38,707664,707663.46,707667.62,713364,713365,2023-09-16T17:30:07Z,713369.08,NULL,Gefährdung,kuhatarisha,d,NA,NA,NA,kuhatarisha,NA,NA,6,NA,NA,NA,NA,NA,NA,NA,NA,NA,NA,NA,NA,NA,NA,NA,NA,NA,NA,NA
e3492,"""Richtig""-Screen",canvas.Screen,3_0_6_0_0_0_1,NA,NA,timeout,5001.24,713367,713364.12,713369.08,718353.64,718356,2023-09-16T17:30:12Z,718370.32,NULL,Gefährdung,kuhatarisha,d,NA,NA,NA,NA,dfs,1,6,NA,NA,NA,NA,NA,NA,NA,NA,NA,NA,NA,NA,NA,NA,NA,NA,NA,NA,NA
e3492,"""Falsch""-Screen",canvas.Screen,3_0_6_0_0_0_2,NA,NA,skipped,NA,718363,NA,NA,718353.64,718363,2023-09-16T17:30:12Z,718370.32,NULL,Gefährdung,kuhatarisha,d,NA,NA,NA,NA,dfs,NA,6,NA,NA,NA,NA,NA,NA,NA,NA,NA,NA,NA,NA,NA,NA,NA,NA,NA,NA,NA
e3492,deep,flow.Sequence,3_0_6_0_0_0,NA,NA,completion,10686.02,707664,707663.46,707667.62,718353.64,718364,2023-09-16T17:30:12Z,718370.32,NULL,Gefährdung,kuhatarisha,d,NA,NA,NA,NA,dfs,NA,6,NA,NA,NA,NA,NA,NA,NA,NA,NA,NA,NA,NA,NA,NA,NA,NA,NA,NA,NA
e3492,shallow,flow.Sequence,3_0_6_0_0_1,NA,NA,skipped,NA,718364,NA,NA,718353.64,718364,2023-09-16T17:30:12Z,718370.32,NULL,Gefährdung,kuhatarisha,d,NA,NA,NA,NA,dfs,NA,6,NA,NA,NA,NA,NA,NA,NA,NA,NA,NA,NA,NA,NA,NA,NA,NA,NA,NA,NA
e3492,task,flow.Sequence,3_0_6_0_0,NA,NA,completion,10686.02,707664,707663.46,707667.62,718353.64,718365,2023-09-16T17:30:12Z,718370.32,NULL,Gefährdung,kuhatarisha,d,NA,NA,NA,NA,dfs,NA,6,NA,NA,NA,NA,NA,NA,NA,NA,NA,NA,NA,NA,NA,NA,NA,NA,NA,NA,NA
e3492,deep,flow.Sequence,3_0_6_0_1_0,NA,NA,skipped,NA,718365,NA,NA,718353.64,718366,2023-09-16T17:30:12Z,718370.32,NULL,Kreativität,ubunifu,s,mratibu,mwendelezo,makubaliano,NA,dfs,NA,6,NA,NA,NA,NA,NA,NA,NA,NA,NA,NA,NA,NA,NA,NA,NA,NA,NA,NA,NA
e3492,Shallow Question,html.Page,3_0_6_0_1_1_0,NA,NA,form submission,8894.6800000001,718366,718353.64,718370.32,727265,727267,2023-09-16T17:30:20Z,727272.5,NULL,Kreativität,ubunifu,s,mratibu,mwendelezo,makubaliano,ubunifu,NA,NA,6,NA,NA,NA,NA,NA,NA,NA,NA,NA,NA,NA,NA,NA,NA,NA,NA,NA,NA,NA
e3492,"""Richtig""-Screen",canvas.Screen,3_0_6_0_1_1_1,NA,NA,timeout,5017.9,727273,727262.4,727272.5,732257.06,732260,2023-09-16T17:30:25Z,732290.4,NULL,Kreativität,ubunifu,s,mratibu,mwendelezo,makubaliano,NA,dfs,1,6,NA,NA,NA,NA,NA,NA,NA,NA,NA,NA,NA,NA,NA,NA,NA,NA,NA,NA,NA
e3492,"""Falsch""-Screen",canvas.Screen,3_0_6_0_1_1_2,NA,NA,skipped,NA,732276,NA,NA,732257.06,732278,2023-09-16T17:30:25Z,732290.4,NULL,Kreativität,ubunifu,s,mratibu,mwendelezo,makubaliano,NA,dfs,NA,6,NA,NA,NA,NA,NA,NA,NA,NA,NA,NA,NA,NA,NA,NA,NA,NA,NA,NA,NA
e3492,shallow,flow.Sequence,3_0_6_0_1_1,NA,NA,completion,13886.74,718366,718353.64,718370.32,732257.06,732282,2023-09-16T17:30:25Z,732290.4,NULL,Kreativität,ubunifu,s,mratibu,mwendelezo,makubaliano,NA,dfs,NA,6,NA,NA,NA,NA,NA,NA,NA,NA,NA,NA,NA,NA,NA,NA,NA,NA,NA,NA,NA
e3492,task,flow.Sequence,3_0_6_0_1,NA,NA,completion,13886.74,718365,718353.64,718370.32,732257.06,732283,2023-09-16T17:30:25Z,732290.4,NULL,Kreativität,ubunifu,s,mratibu,mwendelezo,makubaliano,NA,dfs,NA,6,NA,NA,NA,NA,NA,NA,NA,NA,NA,NA,NA,NA,NA,NA,NA,NA,NA,NA,NA
e3492,deep,flow.Sequence,3_0_6_0_2_0,NA,NA,skipped,NA,732284,NA,NA,732257.06,732284,2023-09-16T17:30:25Z,732290.4,NULL,Können,unaweza,s,kiongozi,bustani,mienendo,NA,dfs,NA,6,NA,NA,NA,NA,NA,NA,NA,NA,NA,NA,NA,NA,NA,NA,NA,NA,NA,NA,NA
e3492,Shallow Question,html.Page,3_0_6_0_2_1_0,NA,NA,form submission,3952.6,732286,732257.06,732290.4,736243,736243,2023-09-16T17:30:29Z,736241.38,NULL,Können,unaweza,s,kiongozi,bustani,mienendo,unaweza,NA,NA,6,NA,NA,NA,NA,NA,NA,NA,NA,NA,NA,NA,NA,NA,NA,NA,NA,NA,NA,NA
e3492,"""Richtig""-Screen",canvas.Screen,3_0_6_0_2_1_1,NA,NA,timeout,5001.22,736245,736240.76,736241.38,741225.94,741228,2023-09-16T17:30:34Z,741242.6,NULL,Können,unaweza,s,kiongozi,bustani,mienendo,NA,dfs,1,6,NA,NA,NA,NA,NA,NA,NA,NA,NA,NA,NA,NA,NA,NA,NA,NA,NA,NA,NA
e3492,"""Falsch""-Screen",canvas.Screen,3_0_6_0_2_1_2,NA,NA,skipped,NA,741237,NA,NA,741225.94,741238,2023-09-16T17:30:34Z,741242.6,NULL,Können,unaweza,s,kiongozi,bustani,mienendo,NA,dfs,NA,6,NA,NA,NA,NA,NA,NA,NA,NA,NA,NA,NA,NA,NA,NA,NA,NA,NA,NA,NA
e3492,shallow,flow.Sequence,3_0_6_0_2_1,NA,NA,completion,8935.5399999999,732284,732257.06,732290.4,741225.94,741240,2023-09-16T17:30:34Z,741242.6,NULL,Können,unaweza,s,kiongozi,bustani,mienendo,NA,dfs,NA,6,NA,NA,NA,NA,NA,NA,NA,NA,NA,NA,NA,NA,NA,NA,NA,NA,NA,NA,NA
e3492,task,flow.Sequence,3_0_6_0_2,NA,NA,completion,8935.5399999999,732284,732257.06,732290.4,741225.94,741242,2023-09-16T17:30:34Z,741242.6,NULL,Können,unaweza,s,kiongozi,bustani,mienendo,NA,dfs,NA,6,NA,NA,NA,NA,NA,NA,NA,NA,NA,NA,NA,NA,NA,NA,NA,NA,NA,NA,NA
e3492,Deep Question,html.Page,3_0_6_0_3_0_0,NA,NA,form submission,7984.4,741244,741225.94,741242.6,749227,749228,2023-09-16T17:30:42Z,749227.9,NULL,Betrüger,mdanganyifu,d,NA,NA,NA,kuhatarisha,NA,NA,6,NA,NA,NA,NA,NA,NA,NA,NA,NA,NA,NA,NA,NA,NA,NA,NA,NA,NA,NA
e3492,"""Richtig""-Screen",canvas.Screen,3_0_6_0_3_0_1,NA,NA,skipped,NA,749230,NA,NA,749227,749231,2023-09-16T17:30:42Z,749227.9,NULL,Betrüger,mdanganyifu,d,NA,NA,NA,NA,dfs,NA,6,NA,NA,NA,NA,NA,NA,NA,NA,NA,NA,NA,NA,NA,NA,NA,NA,NA,NA,NA
e3492,"""Falsch""-Screen",canvas.Screen,3_0_6_0_3_0_2,NA,NA,timeout,5001.24,749233,749225.52,749227.9,754212.46,754214,2023-09-16T17:30:47Z,754229.14,NULL,Betrüger,mdanganyifu,d,NA,NA,NA,NA,dfs,0,6,NA,NA,NA,NA,NA,NA,NA,NA,NA,NA,NA,NA,NA,NA,NA,NA,NA,NA,NA
e3492,deep,flow.Sequence,3_0_6_0_3_0,NA,NA,completion,12969.86,741243,741225.94,741242.6,754212.46,754216,2023-09-16T17:30:47Z,754229.14,NULL,Betrüger,mdanganyifu,d,NA,NA,NA,NA,dfs,NA,6,NA,NA,NA,NA,NA,NA,NA,NA,NA,NA,NA,NA,NA,NA,NA,NA,NA,NA,NA
e3492,shallow,flow.Sequence,3_0_6_0_3_1,NA,NA,skipped,NA,754217,NA,NA,754212.46,754217,2023-09-16T17:30:47Z,754229.14,NULL,Betrüger,mdanganyifu,d,NA,NA,NA,NA,dfs,NA,6,NA,NA,NA,NA,NA,NA,NA,NA,NA,NA,NA,NA,NA,NA,NA,NA,NA,NA,NA
e3492,task,flow.Sequence,3_0_6_0_3,NA,NA,completion,12969.86,741242,741225.94,741242.6,754212.46,754218,2023-09-16T17:30:47Z,754229.14,NULL,Betrüger,mdanganyifu,d,NA,NA,NA,NA,dfs,NA,6,NA,NA,NA,NA,NA,NA,NA,NA,NA,NA,NA,NA,NA,NA,NA,NA,NA,NA,NA
e3492,Deep Question,html.Page,3_0_6_0_4_0_0,NA,NA,form submission,5135.86,754220,754212.46,754229.14,759365,759365,2023-09-16T17:30:53Z,759380.46,NULL,Kontrolle,kudhibiti,d,NA,NA,NA,kuhatarisha,NA,NA,6,NA,NA,NA,NA,NA,NA,NA,NA,NA,NA,NA,NA,NA,NA,NA,NA,NA,NA,NA
e3492,"""Richtig""-Screen",canvas.Screen,3_0_6_0_4_0_1,NA,NA,skipped,NA,759369,NA,NA,759365,759369,2023-09-16T17:30:53Z,759380.46,NULL,Kontrolle,kudhibiti,d,NA,NA,NA,NA,dfs,NA,6,NA,NA,NA,NA,NA,NA,NA,NA,NA,NA,NA,NA,NA,NA,NA,NA,NA,NA,NA
e3492,"""Falsch""-Screen",canvas.Screen,3_0_6_0_4_0_2,NA,NA,timeout,5001.2200000001,759371,759364.94,759380.46,764365.02,764368,2023-09-16T17:30:58Z,764381.68,NULL,Kontrolle,kudhibiti,d,NA,NA,NA,NA,dfs,0,6,NA,NA,NA,NA,NA,NA,NA,NA,NA,NA,NA,NA,NA,NA,NA,NA,NA,NA,NA
e3492,deep,flow.Sequence,3_0_6_0_4_0,NA,NA,completion,10135.88,754220,754212.46,754229.14,764365.02,764369,2023-09-16T17:30:58Z,764381.68,NULL,Kontrolle,kudhibiti,d,NA,NA,NA,NA,dfs,NA,6,NA,NA,NA,NA,NA,NA,NA,NA,NA,NA,NA,NA,NA,NA,NA,NA,NA,NA,NA
e3492,shallow,flow.Sequence,3_0_6_0_4_1,NA,NA,skipped,NA,764370,NA,NA,764365.02,764370,2023-09-16T17:30:58Z,764381.68,NULL,Kontrolle,kudhibiti,d,NA,NA,NA,NA,dfs,NA,6,NA,NA,NA,NA,NA,NA,NA,NA,NA,NA,NA,NA,NA,NA,NA,NA,NA,NA,NA
e3492,task,flow.Sequence,3_0_6_0_4,NA,NA,completion,10135.88,754220,754212.46,754229.14,764365.02,764371,2023-09-16T17:30:58Z,764381.68,NULL,Kontrolle,kudhibiti,d,NA,NA,NA,NA,dfs,NA,6,NA,NA,NA,NA,NA,NA,NA,NA,NA,NA,NA,NA,NA,NA,NA,NA,NA,NA,NA
e3492,deep,flow.Sequence,3_0_6_0_5_0,NA,NA,skipped,NA,764372,NA,NA,764365.02,764372,2023-09-16T17:30:58Z,764381.68,NULL,Respekt,heshima,s,changamnao,upinzani,ufanisi,NA,dfs,NA,6,NA,NA,NA,NA,NA,NA,NA,NA,NA,NA,NA,NA,NA,NA,NA,NA,NA,NA,NA
e3492,Shallow Question,html.Page,3_0_6_0_5_1_0,NA,NA,form submission,4002.3199999999,764373,764365.02,764381.68,768384,768385,2023-09-16T17:31:02Z,768399.3,NULL,Respekt,heshima,s,changamnao,upinzani,ufanisi,heshima,NA,NA,6,NA,NA,NA,NA,NA,NA,NA,NA,NA,NA,NA,NA,NA,NA,NA,NA,NA,NA,NA
e3492,"""Richtig""-Screen",canvas.Screen,3_0_6_0_5_1_1,NA,NA,timeout,5001.24,768387,768383.7,768399.3,773383.86,773386,2023-09-16T17:31:07Z,773400.54,NULL,Respekt,heshima,s,changamnao,upinzani,ufanisi,NA,dfs,1,6,NA,NA,NA,NA,NA,NA,NA,NA,NA,NA,NA,NA,NA,NA,NA,NA,NA,NA,NA
e3492,"""Falsch""-Screen",canvas.Screen,3_0_6_0_5_1_2,NA,NA,skipped,NA,773399,NA,NA,773383.86,773399,2023-09-16T17:31:07Z,773400.54,NULL,Respekt,heshima,s,changamnao,upinzani,ufanisi,NA,dfs,NA,6,NA,NA,NA,NA,NA,NA,NA,NA,NA,NA,NA,NA,NA,NA,NA,NA,NA,NA,NA
e3492,shallow,flow.Sequence,3_0_6_0_5_1,NA,NA,completion,9002.1799999999,764373,764365.02,764381.68,773383.86,773401,2023-09-16T17:31:07Z,773400.54,NULL,Respekt,heshima,s,changamnao,upinzani,ufanisi,NA,dfs,NA,6,NA,NA,NA,NA,NA,NA,NA,NA,NA,NA,NA,NA,NA,NA,NA,NA,NA,NA,NA
e3492,task,flow.Sequence,3_0_6_0_5,NA,NA,completion,9002.1799999999,764371,764365.02,764381.68,773383.86,773402,2023-09-16T17:31:07Z,773400.54,NULL,Respekt,heshima,s,changamnao,upinzani,ufanisi,NA,dfs,NA,6,NA,NA,NA,NA,NA,NA,NA,NA,NA,NA,NA,NA,NA,NA,NA,NA,NA,NA,NA
e3492,Deep Question,html.Page,3_0_6_0_6_0_0,NA,NA,form submission,3972.46,773402,773383.86,773400.54,777373,777373,2023-09-16T17:31:11Z,777385,NULL,Stimmung,kinyongo,d,NA,NA,NA,uhatarisha,NA,NA,6,NA,NA,NA,NA,NA,NA,NA,NA,NA,NA,NA,NA,NA,NA,NA,NA,NA,NA,NA
e3492,"""Richtig""-Screen",canvas.Screen,3_0_6_0_6_0_1,NA,NA,skipped,NA,777375,NA,NA,777373,777375,2023-09-16T17:31:11Z,777385,NULL,Stimmung,kinyongo,d,NA,NA,NA,NA,dfs,NA,6,NA,NA,NA,NA,NA,NA,NA,NA,NA,NA,NA,NA,NA,NA,NA,NA,NA,NA,NA
e3492,"""Falsch""-Screen",canvas.Screen,3_0_6_0_6_0_2,NA,NA,timeout,5001.24,777377,777373.06,777385,782369.56,782372,2023-09-16T17:31:16Z,782386.24,NULL,Stimmung,kinyongo,d,NA,NA,NA,NA,dfs,0,6,NA,NA,NA,NA,NA,NA,NA,NA,NA,NA,NA,NA,NA,NA,NA,NA,NA,NA,NA
e3492,deep,flow.Sequence,3_0_6_0_6_0,NA,NA,completion,8969.02,773402,773383.86,773400.54,782369.56,782373,2023-09-16T17:31:16Z,782386.24,NULL,Stimmung,kinyongo,d,NA,NA,NA,NA,dfs,NA,6,NA,NA,NA,NA,NA,NA,NA,NA,NA,NA,NA,NA,NA,NA,NA,NA,NA,NA,NA
e3492,shallow,flow.Sequence,3_0_6_0_6_1,NA,NA,skipped,NA,782374,NA,NA,782369.56,782374,2023-09-16T17:31:16Z,782386.24,NULL,Stimmung,kinyongo,d,NA,NA,NA,NA,dfs,NA,6,NA,NA,NA,NA,NA,NA,NA,NA,NA,NA,NA,NA,NA,NA,NA,NA,NA,NA,NA
e3492,task,flow.Sequence,3_0_6_0_6,NA,NA,completion,8969.02,773402,773383.86,773400.54,782369.56,782375,2023-09-16T17:31:16Z,782386.24,NULL,Stimmung,kinyongo,d,NA,NA,NA,NA,dfs,NA,6,NA,NA,NA,NA,NA,NA,NA,NA,NA,NA,NA,NA,NA,NA,NA,NA,NA,NA,NA
e3492,deep,flow.Sequence,3_0_6_0_7_0,NA,NA,skipped,NA,782376,NA,NA,782369.56,782376,2023-09-16T17:31:16Z,782386.24,NULL,Orientierung,urekebisho,s,uelekeo,marekebisho,utunzaji,NA,dfs,NA,6,NA,NA,NA,NA,NA,NA,NA,NA,NA,NA,NA,NA,NA,NA,NA,NA,NA,NA,NA
e3492,Shallow Question,html.Page,3_0_6_0_7_1_0,NA,NA,form submission,8459.76,782377,782369.56,782386.24,790846,790847,2023-09-16T17:31:24Z,790854.98,NULL,Orientierung,urekebisho,s,uelekeo,marekebisho,utunzaji,urekebisho,NA,NA,6,NA,NA,NA,NA,NA,NA,NA,NA,NA,NA,NA,NA,NA,NA,NA,NA,NA,NA,NA
