observation,sender,sender_type,sender_id,response,response_action,ended_on,duration,time_run,time_render,time_show,time_end,time_commit,timestamp,time_switch,german,swahili,enc,distractor1,distractor2,distractor3,response_2,x,correct,distractors,url_vp,url_sess,meta_labjs_version,meta_location,meta_user_agent,meta_platform,meta_language,meta_locale,meta_time_zone,meta_timezone_offset,meta_screen_width,meta_screen_height,meta_scroll_width,meta_scroll_height,meta_window_inner_width,meta_window_inner_height,meta_device_pixel_ratio,meta_labjs_build_flavor,meta_labjs_build_commit
cfe38,Introduction delayed retrieval,canvas.Screen,0,weiter,keypress(Space),response,29994.574,1387.8999999762,858.45,1441.926,31436.5,31442.599999994,2023-09-18T18:34:03Z,31449.419,NA,NA,NA,NA,NA,NA,NA,NA,NA,NULL,145,4,20.2.4,https://neurocog.fernuni.ch/studies/vweber/jbaenninger/delayed/index.html?vp=145&sess=4,"Mozilla/5.0 (Windows NT 10.0; Win64; x64) AppleWebKit/537.36 (KHTML, like Gecko) Chrome/116.0.0.0 Safari/537.36 Edg/116.0.1938.81",Win32,de,de-CH,Europe/Zurich,-120,1500,1000,1445,841,1445,889,2,production,f5b4a49f956347addd546a832a3327688c2c0fef
cfe38,Deep Question,html.Page,1_0_0_0,NA,NA,form submission,9126.081,31443.799999982,31431.395,31449.419,40575.5,40575.899999976,2023-09-18T18:34:12Z,40584.974,Flexibilität,kubadilika,d,enjini,usikilivu,hesabu,kiwiliwili,NA,NA,NULL,NA,NA,NA,NA,NA,NA,NA,NA,NA,NA,NA,NA,NA,NA,NA,NA,NA,NA,NA
cfe38,Save data screen,canvas.Screen,1_0_0_1,NA,NA,timeout,500.145,40577.599999994,40568.566,40584.974,41068.447,41069.599999994,2023-09-18T18:34:12Z,41085.119,Flexibilität,kubadilika,d,enjini,usikilivu,hesabu,NA,NA,0,NULL,NA,NA,NA,NA,NA,NA,NA,NA,NA,NA,NA,NA,NA,NA,NA,NA,NA,NA,NA
cfe38,deep,flow.Sequence,1_0_0,NA,NA,completion,9619.028,31443.599999994,31431.395,31449.419,41068.447,41070,2023-09-18T18:34:12Z,41085.119,Flexibilität,kubadilika,d,enjini,usikilivu,hesabu,NA,NA,NA,NULL,NA,NA,NA,NA,NA,NA,NA,NA,NA,NA,NA,NA,NA,NA,NA,NA,NA,NA,NA
cfe38,task,flow.Sequence,1_0,NA,NA,completion,9619.028,31443.599999994,31431.395,31449.419,41068.447,41070.5,2023-09-18T18:34:12Z,41085.119,Flexibilität,kubadilika,d,enjini,usikilivu,hesabu,NA,NA,NA,NULL,NA,NA,NA,NA,NA,NA,NA,NA,NA,NA,NA,NA,NA,NA,NA,NA,NA,NA,NA
cfe38,Deep Question,html.Page,1_1_0_0,NA,NA,form submission,5099.6809999821,41070.799999982,41068.447,41085.119,46184.799999982,46185.099999994,2023-09-18T18:34:18Z,46186.357,Betrüger,mdanganyifu,d,mwanamuziki,wastani,mahakama,kiwiliwili,NA,NA,NULL,NA,NA,NA,NA,NA,NA,NA,NA,NA,NA,NA,NA,NA,NA,NA,NA,NA,NA,NA
cfe38,Save data screen,canvas.Screen,1_1_0_1,NA,NA,timeout,500.11199999999,46186.699999988,46169.682,46186.357,46669.808,46670.399999976,2023-09-18T18:34:18Z,46686.469,Betrüger,mdanganyifu,d,mwanamuziki,wastani,mahakama,NA,NA,0,NULL,NA,NA,NA,NA,NA,NA,NA,NA,NA,NA,NA,NA,NA,NA,NA,NA,NA,NA,NA
cfe38,deep,flow.Sequence,1_1_0,NA,NA,completion,5584.689,41070.699999988,41068.447,41085.119,46669.808,46670.599999994,2023-09-18T18:34:18Z,46686.469,Betrüger,mdanganyifu,d,mwanamuziki,wastani,mahakama,NA,NA,NA,NULL,NA,NA,NA,NA,NA,NA,NA,NA,NA,NA,NA,NA,NA,NA,NA,NA,NA,NA,NA
cfe38,task,flow.Sequence,1_1,NA,NA,completion,5584.689,41070.699999988,41068.447,41085.119,46669.808,46670.899999976,2023-09-18T18:34:18Z,46686.469,Betrüger,mdanganyifu,d,mwanamuziki,wastani,mahakama,NA,NA,NA,NULL,NA,NA,NA,NA,NA,NA,NA,NA,NA,NA,NA,NA,NA,NA,NA,NA,NA,NA,NA
cfe38,Deep Question,html.Page,1_2_0_0,NA,NA,form submission,8348.031,46675.399999976,46669.808,46686.469,55034.5,55034.799999982,2023-09-18T18:34:26Z,55038.55,Integrität,uadilifu,s,muungano,mtiririko,upunguaji,kiwiliwili,NA,NA,NULL,NA,NA,NA,NA,NA,NA,NA,NA,NA,NA,NA,NA,NA,NA,NA,NA,NA,NA,NA
cfe38,Save data screen,canvas.Screen,1_2_0_1,NA,NA,timeout,500.132,55036.099999994,55021.866,55038.55,55522.065,55523.099999994,2023-09-18T18:34:27Z,55538.682,Integrität,uadilifu,s,muungano,mtiririko,upunguaji,NA,NA,0,NULL,NA,NA,NA,NA,NA,NA,NA,NA,NA,NA,NA,NA,NA,NA,NA,NA,NA,NA,NA
cfe38,deep,flow.Sequence,1_2_0,NA,NA,completion,8835.596,46675.399999976,46669.808,46686.469,55522.065,55523.599999994,2023-09-18T18:34:27Z,55538.682,Integrität,uadilifu,s,muungano,mtiririko,upunguaji,NA,NA,NA,NULL,NA,NA,NA,NA,NA,NA,NA,NA,NA,NA,NA,NA,NA,NA,NA,NA,NA,NA,NA
cfe38,task,flow.Sequence,1_2,NA,NA,completion,8835.596,46675.199999988,46669.808,46686.469,55522.065,55524.099999994,2023-09-18T18:34:27Z,55538.682,Integrität,uadilifu,s,muungano,mtiririko,upunguaji,NA,NA,NA,NULL,NA,NA,NA,NA,NA,NA,NA,NA,NA,NA,NA,NA,NA,NA,NA,NA,NA,NA,NA
cfe38,Deep Question,html.Page,1_3_0_0,NA,NA,form submission,8436.0179999881,55524.5,55522.065,55538.682,63974.699999988,63975.099999994,2023-09-18T18:34:35Z,63991.612,Fleisch,mshakiki,s,kizunguzungu,mshikamano,angusho,kiwiliwiöi,NA,NA,NULL,NA,NA,NA,NA,NA,NA,NA,NA,NA,NA,NA,NA,NA,NA,NA,NA,NA,NA,NA
cfe38,Save data screen,canvas.Screen,1_3_0_1,NA,NA,timeout,499.318,63978.399999976,63957.469,63991.612,64474.245,64475,2023-09-18T18:34:36Z,64490.93,Fleisch,mshakiki,s,kizunguzungu,mshikamano,angusho,NA,NA,0,NULL,NA,NA,NA,NA,NA,NA,NA,NA,NA,NA,NA,NA,NA,NA,NA,NA,NA,NA,NA
cfe38,deep,flow.Sequence,1_3_0,NA,NA,completion,8935.563,55524.399999976,55522.065,55538.682,64474.245,64475.399999976,2023-09-18T18:34:36Z,64490.93,Fleisch,mshakiki,s,kizunguzungu,mshikamano,angusho,NA,NA,NA,NULL,NA,NA,NA,NA,NA,NA,NA,NA,NA,NA,NA,NA,NA,NA,NA,NA,NA,NA,NA
cfe38,task,flow.Sequence,1_3,NA,NA,completion,8935.563,55524.299999982,55522.065,55538.682,64474.245,64475.5,2023-09-18T18:34:36Z,64490.93,Fleisch,mshakiki,s,kizunguzungu,mshikamano,angusho,NA,NA,NA,NULL,NA,NA,NA,NA,NA,NA,NA,NA,NA,NA,NA,NA,NA,NA,NA,NA,NA,NA,NA
cfe38,Deep Question,html.Page,1_4_0_0,NA,NA,form submission,4263.7699999881,64475.699999988,64474.245,64490.93,68754.699999988,68755.099999994,2023-09-18T18:34:40Z,68758.625,Papier,karatasi,s,uchambuzi,usalama,kukataliwa,kiwiliwili,NA,NA,NULL,NA,NA,NA,NA,NA,NA,NA,NA,NA,NA,NA,NA,NA,NA,NA,NA,NA,NA,NA
cfe38,Save data screen,canvas.Screen,1_4_0_1,NA,NA,timeout,500.163,68756.199999988,68741.991,68758.625,69242.111,69242.799999982,2023-09-18T18:34:41Z,69258.788,Papier,karatasi,s,uchambuzi,usalama,kukataliwa,NA,NA,0,NULL,NA,NA,NA,NA,NA,NA,NA,NA,NA,NA,NA,NA,NA,NA,NA,NA,NA,NA,NA
cfe38,deep,flow.Sequence,1_4_0,NA,NA,completion,4751.181,64475.699999988,64474.245,64490.93,69242.111,69243.299999982,2023-09-18T18:34:41Z,69258.788,Papier,karatasi,s,uchambuzi,usalama,kukataliwa,NA,NA,NA,NULL,NA,NA,NA,NA,NA,NA,NA,NA,NA,NA,NA,NA,NA,NA,NA,NA,NA,NA,NA
cfe38,task,flow.Sequence,1_4,NA,NA,completion,4751.181,64475.699999988,64474.245,64490.93,69242.111,69243.599999994,2023-09-18T18:34:41Z,69258.788,Papier,karatasi,s,uchambuzi,usalama,kukataliwa,NA,NA,NA,NULL,NA,NA,NA,NA,NA,NA,NA,NA,NA,NA,NA,NA,NA,NA,NA,NA,NA,NA,NA
cfe38,Deep Question,html.Page,1_5_0_0,NA,NA,form submission,5735.712,69243.699999988,69242.111,69258.788,74994.5,74994.799999982,2023-09-18T18:34:46Z,75010.314,Wechsel,ugeuzaji,s,utambulisho,kujenga,wasiwasi,kiwiliwili,NA,NA,NULL,NA,NA,NA,NA,NA,NA,NA,NA,NA,NA,NA,NA,NA,NA,NA,NA,NA,NA,NA
cfe38,Save data screen,canvas.Screen,1_5_0_1,NA,NA,timeout,500.019,74997.5,74993.545,75010.314,75493.659,75494.5,2023-09-18T18:34:47Z,75510.333,Wechsel,ugeuzaji,s,utambulisho,kujenga,wasiwasi,NA,NA,0,NULL,NA,NA,NA,NA,NA,NA,NA,NA,NA,NA,NA,NA,NA,NA,NA,NA,NA,NA,NA
cfe38,deep,flow.Sequence,1_5_0,NA,NA,completion,6234.871,69243.699999988,69242.111,69258.788,75493.659,75494.799999982,2023-09-18T18:34:47Z,75510.333,Wechsel,ugeuzaji,s,utambulisho,kujenga,wasiwasi,NA,NA,NA,NULL,NA,NA,NA,NA,NA,NA,NA,NA,NA,NA,NA,NA,NA,NA,NA,NA,NA,NA,NA
cfe38,task,flow.Sequence,1_5,NA,NA,completion,6234.871,69243.699999988,69242.111,69258.788,75493.659,75495.099999994,2023-09-18T18:34:47Z,75510.333,Wechsel,ugeuzaji,s,utambulisho,kujenga,wasiwasi,NA,NA,NA,NULL,NA,NA,NA,NA,NA,NA,NA,NA,NA,NA,NA,NA,NA,NA,NA,NA,NA,NA,NA
cfe38,Deep Question,html.Page,1_6_0_0,NA,NA,form submission,3733.0669999762,75495.299999982,75493.659,75510.333,79243.399999976,79243.699999988,2023-09-18T18:34:51Z,79244.561,Begegnung,kukutana,d,mmasihiya,mpiganaji,husiano,kiwiliwili,NA,NA,NULL,NA,NA,NA,NA,NA,NA,NA,NA,NA,NA,NA,NA,NA,NA,NA,NA,NA,NA,NA
cfe38,Save data screen,canvas.Screen,1_6_0_1,NA,NA,timeout,500.17599999999,79245.099999994,79227.892,79244.561,79728.048,79728.699999988,2023-09-18T18:34:51Z,79744.737,Begegnung,kukutana,d,mmasihiya,mpiganaji,husiano,NA,NA,0,NULL,NA,NA,NA,NA,NA,NA,NA,NA,NA,NA,NA,NA,NA,NA,NA,NA,NA,NA,NA
cfe38,deep,flow.Sequence,1_6_0,NA,NA,completion,4217.715,75495.299999982,75493.659,75510.333,79728.048,79729.099999994,2023-09-18T18:34:51Z,79744.737,Begegnung,kukutana,d,mmasihiya,mpiganaji,husiano,NA,NA,NA,NULL,NA,NA,NA,NA,NA,NA,NA,NA,NA,NA,NA,NA,NA,NA,NA,NA,NA,NA,NA
cfe38,task,flow.Sequence,1_6,NA,NA,completion,4217.715,75495.199999988,75493.659,75510.333,79728.048,79729.299999982,2023-09-18T18:34:51Z,79744.737,Begegnung,kukutana,d,mmasihiya,mpiganaji,husiano,NA,NA,NA,NULL,NA,NA,NA,NA,NA,NA,NA,NA,NA,NA,NA,NA,NA,NA,NA,NA,NA,NA,NA
cfe38,Deep Question,html.Page,1_7_0_0,NA,NA,form submission,4678.763,79729.5,79728.048,79744.737,84423.5,84423.899999976,2023-09-18T18:34:56Z,84429.189,Stimmung,kinyongo,d,kilekile,kisambo,madhehebu,kiwiliwili,NA,NA,NULL,NA,NA,NA,NA,NA,NA,NA,NA,NA,NA,NA,NA,NA,NA,NA,NA,NA,NA,NA
cfe38,Save data screen,canvas.Screen,1_7_0_1,NA,NA,timeout,500.15399999999,84425,84412.532,84429.189,84912.675,84913.399999976,2023-09-18T18:34:56Z,84929.343,Stimmung,kinyongo,d,kilekile,kisambo,madhehebu,NA,NA,0,NULL,NA,NA,NA,NA,NA,NA,NA,NA,NA,NA,NA,NA,NA,NA,NA,NA,NA,NA,NA
cfe38,deep,flow.Sequence,1_7_0,NA,NA,completion,5167.938,79729.5,79728.048,79744.737,84912.675,84913.699999988,2023-09-18T18:34:56Z,84929.343,Stimmung,kinyongo,d,kilekile,kisambo,madhehebu,NA,NA,NA,NULL,NA,NA,NA,NA,NA,NA,NA,NA,NA,NA,NA,NA,NA,NA,NA,NA,NA,NA,NA
cfe38,task,flow.Sequence,1_7,NA,NA,completion,5167.938,79729.399999976,79728.048,79744.737,84912.675,84914,2023-09-18T18:34:56Z,84929.343,Stimmung,kinyongo,d,kilekile,kisambo,madhehebu,NA,NA,NA,NULL,NA,NA,NA,NA,NA,NA,NA,NA,NA,NA,NA,NA,NA,NA,NA,NA,NA,NA,NA
cfe38,Deep Question,html.Page,1_8_0_0,NA,NA,form submission,3714.0569999762,84914.299999982,84912.675,84929.343,88643.399999976,88643.699999988,2023-09-18T18:35:00Z,88646.895,Vorwurf,mashtaka,d,msukumo,mtangulizi,uenyekiti,kiwiliwili,NA,NA,NULL,NA,NA,NA,NA,NA,NA,NA,NA,NA,NA,NA,NA,NA,NA,NA,NA,NA,NA,NA
cfe38,Save data screen,canvas.Screen,1_8_0_1,NA,NA,timeout,500.129,88644.799999982,88630.266,88646.895,89130.387,89131.199999988,2023-09-18T18:35:00Z,89147.024,Vorwurf,mashtaka,d,msukumo,mtangulizi,uenyekiti,NA,NA,0,NULL,NA,NA,NA,NA,NA,NA,NA,NA,NA,NA,NA,NA,NA,NA,NA,NA,NA,NA,NA
cfe38,deep,flow.Sequence,1_8_0,NA,NA,completion,4201.044,84914.199999988,84912.675,84929.343,89130.387,89131.399999976,2023-09-18T18:35:00Z,89147.024,Vorwurf,mashtaka,d,msukumo,mtangulizi,uenyekiti,NA,NA,NA,NULL,NA,NA,NA,NA,NA,NA,NA,NA,NA,NA,NA,NA,NA,NA,NA,NA,NA,NA,NA
cfe38,task,flow.Sequence,1_8,NA,NA,completion,4201.044,84914.099999994,84912.675,84929.343,89130.387,89131.699999988,2023-09-18T18:35:00Z,89147.024,Vorwurf,mashtaka,d,msukumo,mtangulizi,uenyekiti,NA,NA,NA,NULL,NA,NA,NA,NA,NA,NA,NA,NA,NA,NA,NA,NA,NA,NA,NA,NA,NA,NA,NA
cfe38,Deep Question,html.Page,1_9_0_0,NA,NA,form submission,2936.1759999881,89131.899999976,89130.387,89147.024,92083.199999988,92083.5,2023-09-18T18:35:03Z,92097.842,Orientierung,urekebisho,s,uelekeo,marekebisho,utunzaji,kiwivdslvn,NA,NA,NULL,NA,NA,NA,NA,NA,NA,NA,NA,NA,NA,NA,NA,NA,NA,NA,NA,NA,NA,NA
cfe38,Save data screen,canvas.Screen,1_9_0_1,NA,NA,timeout,500.065,92084.399999976,92081.078,92097.842,92581.247,92582,2023-09-18T18:35:04Z,92597.907,Orientierung,urekebisho,s,uelekeo,marekebisho,utunzaji,NA,NA,0,NULL,NA,NA,NA,NA,NA,NA,NA,NA,NA,NA,NA,NA,NA,NA,NA,NA,NA,NA,NA
cfe38,deep,flow.Sequence,1_9_0,NA,NA,completion,3434.223,89131.799999982,89130.387,89147.024,92581.247,92582.299999982,2023-09-18T18:35:04Z,92597.907,Orientierung,urekebisho,s,uelekeo,marekebisho,utunzaji,NA,NA,NA,NULL,NA,NA,NA,NA,NA,NA,NA,NA,NA,NA,NA,NA,NA,NA,NA,NA,NA,NA,NA
cfe38,task,flow.Sequence,1_9,NA,NA,completion,3434.223,89131.799999982,89130.387,89147.024,92581.247,92582.5,2023-09-18T18:35:04Z,92597.907,Orientierung,urekebisho,s,uelekeo,marekebisho,utunzaji,NA,NA,NA,NULL,NA,NA,NA,NA,NA,NA,NA,NA,NA,NA,NA,NA,NA,NA,NA,NA,NA,NA,NA
cfe38,Deep Question,html.Page,1_10_0_0,NA,NA,form submission,4826.2929999881,92582.699999988,92581.247,92597.907,97424.199999988,97424.399999976,2023-09-18T18:35:09Z,97432.42,Genehmigung,idhini,d,mwanamke,itikadi,fedheha,kiwiliwnv,NA,NA,NULL,NA,NA,NA,NA,NA,NA,NA,NA,NA,NA,NA,NA,NA,NA,NA,NA,NA,NA,NA
cfe38,Save data screen,canvas.Screen,1_10_0_1,NA,NA,timeout,500.17200000001,97425.599999994,97415.78,97432.42,97915.909,97916.699999988,2023-09-18T18:35:09Z,97932.592,Genehmigung,idhini,d,mwanamke,itikadi,fedheha,NA,NA,0,NULL,NA,NA,NA,NA,NA,NA,NA,NA,NA,NA,NA,NA,NA,NA,NA,NA,NA,NA,NA
cfe38,deep,flow.Sequence,1_10_0,NA,NA,completion,5318.002,92582.599999994,92581.247,92597.907,97915.909,97917.099999994,2023-09-18T18:35:09Z,97932.592,Genehmigung,idhini,d,mwanamke,itikadi,fedheha,NA,NA,NA,NULL,NA,NA,NA,NA,NA,NA,NA,NA,NA,NA,NA,NA,NA,NA,NA,NA,NA,NA,NA
cfe38,task,flow.Sequence,1_10,NA,NA,completion,5318.002,92582.599999994,92581.247,92597.907,97915.909,97917.299999982,2023-09-18T18:35:09Z,97932.592,Genehmigung,idhini,d,mwanamke,itikadi,fedheha,NA,NA,NA,NULL,NA,NA,NA,NA,NA,NA,NA,NA,NA,NA,NA,NA,NA,NA,NA,NA,NA,NA,NA
cfe38,Deep Question,html.Page,1_11_0_0,NA,NA,form submission,2221.1079999881,97917.5,97915.909,97932.592,100153.69999999,100154,2023-09-18T18:35:12Z,100166.463,Entwicklung,maendeleo,d,uangavu,mshindwa,badiliko,khdfka,NA,NA,NULL,NA,NA,NA,NA,NA,NA,NA,NA,NA,NA,NA,NA,NA,NA,NA,NA,NA,NA,NA
cfe38,Save data screen,canvas.Screen,1_11_0_1,NA,NA,timeout,500.11899999999,100155.09999999,100149.795,100166.463,100649.925,100650.59999999,2023-09-18T18:35:12Z,100666.582,Entwicklung,maendeleo,d,uangavu,mshindwa,badiliko,NA,NA,0,NULL,NA,NA,NA,NA,NA,NA,NA,NA,NA,NA,NA,NA,NA,NA,NA,NA,NA,NA,NA
cfe38,deep,flow.Sequence,1_11_0,NA,NA,completion,2717.333,97917.5,97915.909,97932.592,100649.925,100650.89999998,2023-09-18T18:35:12Z,100666.582,Entwicklung,maendeleo,d,uangavu,mshindwa,badiliko,NA,NA,NA,NULL,NA,NA,NA,NA,NA,NA,NA,NA,NA,NA,NA,NA,NA,NA,NA,NA,NA,NA,NA
cfe38,task,flow.Sequence,1_11,NA,NA,completion,2717.333,97917.399999976,97915.909,97932.592,100649.925,100651.19999999,2023-09-18T18:35:12Z,100666.582,Entwicklung,maendeleo,d,uangavu,mshindwa,badiliko,NA,NA,NA,NULL,NA,NA,NA,NA,NA,NA,NA,NA,NA,NA,NA,NA,NA,NA,NA,NA,NA,NA,NA
cfe38,Deep Question,html.Page,1_12_0_0,NA,NA,form submission,4056.918,100651.39999998,100649.925,100666.582,104723.5,104723.69999999,2023-09-18T18:35:16Z,104734.254,Erneuerung,ukarabati,s,ushawishi,ukalifu,unyonyaji,vdjvavj,NA,NA,NULL,NA,NA,NA,NA,NA,NA,NA,NA,NA,NA,NA,NA,NA,NA,NA,NA,NA,NA,NA
cfe38,Save data screen,canvas.Screen,1_12_0_1,NA,NA,timeout,500.129,104724.89999998,104717.591,104734.254,105217.716,105218.39999998,2023-09-18T18:35:17Z,105234.383,Erneuerung,ukarabati,s,ushawishi,ukalifu,unyonyaji,NA,NA,0,NULL,NA,NA,NA,NA,NA,NA,NA,NA,NA,NA,NA,NA,NA,NA,NA,NA,NA,NA,NA
cfe38,deep,flow.Sequence,1_12_0,NA,NA,completion,4551.134,100651.39999998,100649.925,100666.582,105217.716,105218.79999998,2023-09-18T18:35:17Z,105234.383,Erneuerung,ukarabati,s,ushawishi,ukalifu,unyonyaji,NA,NA,NA,NULL,NA,NA,NA,NA,NA,NA,NA,NA,NA,NA,NA,NA,NA,NA,NA,NA,NA,NA,NA
cfe38,task,flow.Sequence,1_12,NA,NA,completion,4551.134,100651.39999998,100649.925,100666.582,105217.716,105219,2023-09-18T18:35:17Z,105234.383,Erneuerung,ukarabati,s,ushawishi,ukalifu,unyonyaji,NA,NA,NA,NULL,NA,NA,NA,NA,NA,NA,NA,NA,NA,NA,NA,NA,NA,NA,NA,NA,NA,NA,NA
cfe38,Deep Question,html.Page,1_13_0_0,NA,NA,form submission,5989.3169999881,105219.19999999,105217.716,105234.383,111223.69999999,111224,2023-09-18T18:35:23Z,111235.914,Niveau,kiwango,s,usimamizi,mwamali,mshairi,knfsuiu,NA,NA,NULL,NA,NA,NA,NA,NA,NA,NA,NA,NA,NA,NA,NA,NA,NA,NA,NA,NA,NA,NA
cfe38,Save data screen,canvas.Screen,1_13_0_1,NA,NA,timeout,500.071,111227.09999999,111219.183,111235.914,111719.305,111720,2023-09-18T18:35:23Z,111735.985,Niveau,kiwango,s,usimamizi,mwamali,mshairi,NA,NA,0,NULL,NA,NA,NA,NA,NA,NA,NA,NA,NA,NA,NA,NA,NA,NA,NA,NA,NA,NA,NA
cfe38,deep,flow.Sequence,1_13_0,NA,NA,completion,6484.922,105219.19999999,105217.716,105234.383,111719.305,111720.29999998,2023-09-18T18:35:23Z,111735.985,Niveau,kiwango,s,usimamizi,mwamali,mshairi,NA,NA,NA,NULL,NA,NA,NA,NA,NA,NA,NA,NA,NA,NA,NA,NA,NA,NA,NA,NA,NA,NA,NA
cfe38,task,flow.Sequence,1_13,NA,NA,completion,6484.922,105219.09999999,105217.716,105234.383,111719.305,111720.5,2023-09-18T18:35:23Z,111735.985,Niveau,kiwango,s,usimamizi,mwamali,mshairi,NA,NA,NA,NULL,NA,NA,NA,NA,NA,NA,NA,NA,NA,NA,NA,NA,NA,NA,NA,NA,NA,NA,NA
cfe38,Deep Question,html.Page,1_14_0_0,NA,NA,form submission,4157.515,111720.69999999,111719.305,111735.985,115893.5,115893.79999998,2023-09-18T18:35:27Z,115903.651,Respekt,heshima,s,changamnao,upinzani,ufanisi,kiwiliwlil,NA,NA,NULL,NA,NA,NA,NA,NA,NA,NA,NA,NA,NA,NA,NA,NA,NA,NA,NA,NA,NA,NA
cfe38,Save data screen,canvas.Screen,1_14_0_1,NA,NA,timeout,500.14200000001,115894.79999998,115887.01,115903.651,116387.15,116387.89999998,2023-09-18T18:35:28Z,116403.793,Respekt,heshima,s,changamnao,upinzani,ufanisi,NA,NA,0,NULL,NA,NA,NA,NA,NA,NA,NA,NA,NA,NA,NA,NA,NA,NA,NA,NA,NA,NA,NA
cfe38,deep,flow.Sequence,1_14_0,NA,NA,completion,4651.165,111720.69999999,111719.305,111735.985,116387.15,116388.19999999,2023-09-18T18:35:28Z,116403.793,Respekt,heshima,s,changamnao,upinzani,ufanisi,NA,NA,NA,NULL,NA,NA,NA,NA,NA,NA,NA,NA,NA,NA,NA,NA,NA,NA,NA,NA,NA,NA,NA
cfe38,task,flow.Sequence,1_14,NA,NA,completion,4651.165,111720.59999999,111719.305,111735.985,116387.15,116388.5,2023-09-18T18:35:28Z,116403.793,Respekt,heshima,s,changamnao,upinzani,ufanisi,NA,NA,NA,NULL,NA,NA,NA,NA,NA,NA,NA,NA,NA,NA,NA,NA,NA,NA,NA,NA,NA,NA,NA
cfe38,Deep Question,html.Page,1_15_0_0,NA,NA,form submission,4828.707,116388.69999999,116387.15,116403.793,121232.5,121232.79999998,2023-09-18T18:35:33Z,121238.334,Atmosphäre,angahewa,d,kuteseka,usahihi,kutoamini,kiwiliwili,NA,NA,NULL,NA,NA,NA,NA,NA,NA,NA,NA,NA,NA,NA,NA,NA,NA,NA,NA,NA,NA,NA
cfe38,Save data screen,canvas.Screen,1_15_0_1,NA,NA,timeout,500.14599999999,121234.09999999,121221.686,121238.334,121721.809,121722.39999998,2023-09-18T18:35:33Z,121738.48,Atmosphäre,angahewa,d,kuteseka,usahihi,kutoamini,NA,NA,0,NULL,NA,NA,NA,NA,NA,NA,NA,NA,NA,NA,NA,NA,NA,NA,NA,NA,NA,NA,NA
cfe38,deep,flow.Sequence,1_15_0,NA,NA,completion,5318.016,116388.59999999,116387.15,116403.793,121721.809,121722.59999999,2023-09-18T18:35:33Z,121738.48,Atmosphäre,angahewa,d,kuteseka,usahihi,kutoamini,NA,NA,NA,NULL,NA,NA,NA,NA,NA,NA,NA,NA,NA,NA,NA,NA,NA,NA,NA,NA,NA,NA,NA
cfe38,task,flow.Sequence,1_15,NA,NA,completion,5318.016,116388.5,116387.15,116403.793,121721.809,121722.69999999,2023-09-18T18:35:33Z,121738.48,Atmosphäre,angahewa,d,kuteseka,usahihi,kutoamini,NA,NA,NA,NULL,NA,NA,NA,NA,NA,NA,NA,NA,NA,NA,NA,NA,NA,NA,NA,NA,NA,NA,NA
cfe38,retrieval block 1 (cued recall),flow.Loop,1,NA,NA,completion,90272.39,31443.399999976,31431.395,31449.419,121721.809,121723,2023-09-18T18:35:33Z,121738.48,NA,NA,NA,NA,NA,NA,NA,NA,NA,NULL,NA,NA,NA,NA,NA,NA,NA,NA,NA,NA,NA,NA,NA,NA,NA,NA,NA,NA,NA
cfe38,Shallow Question,html.Page,2_0_0_0,NA,NA,form submission,17161.719999988,121723.09999999,121721.809,121738.48,138900.19999999,138900.5,2023-09-18T18:35:50Z,138909.381,Begegnung,kukutana,d,mmasihiya,mpiganaji,husiano,mpiganaji,NA,NA,"c(""distractor1"", ""distractor2"", ""distractor3"")",NA,NA,NA,NA,NA,NA,NA,NA,NA,NA,NA,NA,NA,NA,NA,NA,NA,NA,NA
cfe38,Save data screen,canvas.Screen,2_0_0_1,NA,NA,timeout,500.16500000001,138904.5,138892.74,138909.381,139392.868,139393.69999999,2023-09-18T18:35:51Z,139409.546,Begegnung,kukutana,d,mmasihiya,mpiganaji,husiano,NA,NA,0,"c(""distractor1"", ""distractor2"", ""distractor3"")",NA,NA,NA,NA,NA,NA,NA,NA,NA,NA,NA,NA,NA,NA,NA,NA,NA,NA,NA
cfe38,shallow,flow.Sequence,2_0_0,NA,NA,completion,17654.388,121723.09999999,121721.809,121738.48,139392.868,139394,2023-09-18T18:35:51Z,139409.546,Begegnung,kukutana,d,mmasihiya,mpiganaji,husiano,NA,NA,NA,"c(""distractor1"", ""distractor2"", ""distractor3"")",NA,NA,NA,NA,NA,NA,NA,NA,NA,NA,NA,NA,NA,NA,NA,NA,NA,NA,NA
cfe38,task,flow.Sequence,2_0,NA,NA,completion,17654.388,121723,121721.809,121738.48,139392.868,139394.39999998,2023-09-18T18:35:51Z,139409.546,Begegnung,kukutana,d,mmasihiya,mpiganaji,husiano,NA,NA,NA,"c(""distractor1"", ""distractor2"", ""distractor3"")",NA,NA,NA,NA,NA,NA,NA,NA,NA,NA,NA,NA,NA,NA,NA,NA,NA,NA,NA
cfe38,Shallow Question,html.Page,2_1_0_0,NA,NA,form submission,10817.954,139394.5,139392.868,139409.546,150227.5,150227.79999998,2023-09-18T18:36:02Z,150228.878,Entwicklung,maendeleo,d,uangavu,mshindwa,badiliko,mshindwa,NA,NA,"c(""distractor1"", ""distractor2"", ""distractor3"")",NA,NA,NA,NA,NA,NA,NA,NA,NA,NA,NA,NA,NA,NA,NA,NA,NA,NA,NA
cfe38,Save data screen,canvas.Screen,2_1_0_1,NA,NA,timeout,500.114,150231.5,150212.233,150228.878,150712.313,150713,2023-09-18T18:36:02Z,150728.992,Entwicklung,maendeleo,d,uangavu,mshindwa,badiliko,NA,NA,0,"c(""distractor1"", ""distractor2"", ""distractor3"")",NA,NA,NA,NA,NA,NA,NA,NA,NA,NA,NA,NA,NA,NA,NA,NA,NA,NA,NA
cfe38,shallow,flow.Sequence,2_1_0,NA,NA,completion,11302.767,139394.5,139392.868,139409.546,150712.313,150714.09999999,2023-09-18T18:36:02Z,150728.992,Entwicklung,maendeleo,d,uangavu,mshindwa,badiliko,NA,NA,NA,"c(""distractor1"", ""distractor2"", ""distractor3"")",NA,NA,NA,NA,NA,NA,NA,NA,NA,NA,NA,NA,NA,NA,NA,NA,NA,NA,NA
cfe38,task,flow.Sequence,2_1,NA,NA,completion,11302.767,139394.5,139392.868,139409.546,150712.313,150714.39999998,2023-09-18T18:36:02Z,150728.992,Entwicklung,maendeleo,d,uangavu,mshindwa,badiliko,NA,NA,NA,"c(""distractor1"", ""distractor2"", ""distractor3"")",NA,NA,NA,NA,NA,NA,NA,NA,NA,NA,NA,NA,NA,NA,NA,NA,NA,NA,NA
cfe38,Shallow Question,html.Page,2_2_0_0,NA,NA,form submission,10178.107999994,150714.69999999,150712.313,150728.992,160907.09999999,160907.39999998,2023-09-18T18:36:12Z,160914.847,Wechsel,ugeuzaji,s,utambulisho,kujenga,wasiwasi,ugeuzaji,NA,NA,"c(""distractor1"", ""distractor2"", ""distractor3"")",NA,NA,NA,NA,NA,NA,NA,NA,NA,NA,NA,NA,NA,NA,NA,NA,NA,NA,NA
cfe38,Save data screen,canvas.Screen,2_2_0_1,NA,NA,timeout,500.14299999998,160910.5,160898.187,160914.847,161398.317,161398.89999998,2023-09-18T18:36:13Z,161414.99,Wechsel,ugeuzaji,s,utambulisho,kujenga,wasiwasi,NA,NA,1,"c(""distractor1"", ""distractor2"", ""distractor3"")",NA,NA,NA,NA,NA,NA,NA,NA,NA,NA,NA,NA,NA,NA,NA,NA,NA,NA,NA
cfe38,shallow,flow.Sequence,2_2_0,NA,NA,completion,10669.325,150714.69999999,150712.313,150728.992,161398.317,161399.19999999,2023-09-18T18:36:13Z,161414.99,Wechsel,ugeuzaji,s,utambulisho,kujenga,wasiwasi,NA,NA,NA,"c(""distractor1"", ""distractor2"", ""distractor3"")",NA,NA,NA,NA,NA,NA,NA,NA,NA,NA,NA,NA,NA,NA,NA,NA,NA,NA,NA
cfe38,task,flow.Sequence,2_2,NA,NA,completion,10669.325,150714.59999999,150712.313,150728.992,161398.317,161399.29999998,2023-09-18T18:36:13Z,161414.99,Wechsel,ugeuzaji,s,utambulisho,kujenga,wasiwasi,NA,NA,NA,"c(""distractor1"", ""distractor2"", ""distractor3"")",NA,NA,NA,NA,NA,NA,NA,NA,NA,NA,NA,NA,NA,NA,NA,NA,NA,NA,NA
cfe38,Shallow Question,html.Page,2_3_0_0,NA,NA,form submission,8038.9099999762,161399.5,161398.317,161414.99,169453.89999998,169454.19999999,2023-09-18T18:36:21Z,169467.011,Stimmung,kinyongo,d,kilekile,kisambo,madhehebu,kinyongo,NA,NA,"c(""distractor1"", ""distractor2"", ""distractor3"")",NA,NA,NA,NA,NA,NA,NA,NA,NA,NA,NA,NA,NA,NA,NA,NA,NA,NA,NA
cfe38,Save data screen,canvas.Screen,2_3_0_1,NA,NA,timeout,500.08499999999,169456.69999999,169450.303,169467.011,169950.433,169951.19999999,2023-09-18T18:36:21Z,169967.096,Stimmung,kinyongo,d,kilekile,kisambo,madhehebu,NA,NA,1,"c(""distractor1"", ""distractor2"", ""distractor3"")",NA,NA,NA,NA,NA,NA,NA,NA,NA,NA,NA,NA,NA,NA,NA,NA,NA,NA,NA
cfe38,shallow,flow.Sequence,2_3_0,NA,NA,completion,8535.443,161399.5,161398.317,161414.99,169950.433,169951.39999998,2023-09-18T18:36:21Z,169967.096,Stimmung,kinyongo,d,kilekile,kisambo,madhehebu,NA,NA,NA,"c(""distractor1"", ""distractor2"", ""distractor3"")",NA,NA,NA,NA,NA,NA,NA,NA,NA,NA,NA,NA,NA,NA,NA,NA,NA,NA,NA
cfe38,task,flow.Sequence,2_3,NA,NA,completion,8535.443,161399.5,161398.317,161414.99,169950.433,169951.69999999,2023-09-18T18:36:21Z,169967.096,Stimmung,kinyongo,d,kilekile,kisambo,madhehebu,NA,NA,NA,"c(""distractor1"", ""distractor2"", ""distractor3"")",NA,NA,NA,NA,NA,NA,NA,NA,NA,NA,NA,NA,NA,NA,NA,NA,NA,NA,NA
cfe38,Shallow Question,html.Page,2_4_0_0,NA,NA,form submission,13730.404,169951.89999998,169950.433,169967.096,183697.5,183697.79999998,2023-09-18T18:36:35Z,183703.84,Papier,karatasi,s,uchambuzi,usalama,kukataliwa,karatasi,NA,NA,"c(""distractor1"", ""distractor2"", ""distractor3"")",NA,NA,NA,NA,NA,NA,NA,NA,NA,NA,NA,NA,NA,NA,NA,NA,NA,NA,NA
cfe38,Save data screen,canvas.Screen,2_4_0_1,NA,NA,timeout,500.15299999999,183700.5,183687.222,183703.84,184187.346,184188,2023-09-18T18:36:36Z,184203.993,Papier,karatasi,s,uchambuzi,usalama,kukataliwa,NA,NA,1,"c(""distractor1"", ""distractor2"", ""distractor3"")",NA,NA,NA,NA,NA,NA,NA,NA,NA,NA,NA,NA,NA,NA,NA,NA,NA,NA,NA
cfe38,shallow,flow.Sequence,2_4_0,NA,NA,completion,14220.25,169951.89999998,169950.433,169967.096,184187.346,184188.5,2023-09-18T18:36:36Z,184203.993,Papier,karatasi,s,uchambuzi,usalama,kukataliwa,NA,NA,NA,"c(""distractor1"", ""distractor2"", ""distractor3"")",NA,NA,NA,NA,NA,NA,NA,NA,NA,NA,NA,NA,NA,NA,NA,NA,NA,NA,NA
cfe38,task,flow.Sequence,2_4,NA,NA,completion,14220.25,169951.79999998,169950.433,169967.096,184187.346,184188.69999999,2023-09-18T18:36:36Z,184203.993,Papier,karatasi,s,uchambuzi,usalama,kukataliwa,NA,NA,NA,"c(""distractor1"", ""distractor2"", ""distractor3"")",NA,NA,NA,NA,NA,NA,NA,NA,NA,NA,NA,NA,NA,NA,NA,NA,NA,NA,NA
cfe38,Shallow Question,html.Page,2_5_0_0,NA,NA,form submission,9618.8069999821,184189,184187.346,184203.993,193822.79999998,193823.19999999,2023-09-18T18:36:45Z,193823.036,Respekt,heshima,s,changamnao,upinzani,ufanisi,heshima,NA,NA,"c(""distractor1"", ""distractor2"", ""distractor3"")",NA,NA,NA,NA,NA,NA,NA,NA,NA,NA,NA,NA,NA,NA,NA,NA,NA,NA,NA
cfe38,Save data screen,canvas.Screen,2_5_0_1,NA,NA,timeout,500.106,193827.09999999,193806.395,193823.036,194306.475,194307.19999999,2023-09-18T18:36:46Z,194323.142,Respekt,heshima,s,changamnao,upinzani,ufanisi,NA,NA,1,"c(""distractor1"", ""distractor2"", ""distractor3"")",NA,NA,NA,NA,NA,NA,NA,NA,NA,NA,NA,NA,NA,NA,NA,NA,NA,NA,NA
cfe38,shallow,flow.Sequence,2_5_0,NA,NA,completion,10102.482,184188.89999998,184187.346,184203.993,194306.475,194307.39999998,2023-09-18T18:36:46Z,194323.142,Respekt,heshima,s,changamnao,upinzani,ufanisi,NA,NA,NA,"c(""distractor1"", ""distractor2"", ""distractor3"")",NA,NA,NA,NA,NA,NA,NA,NA,NA,NA,NA,NA,NA,NA,NA,NA,NA,NA,NA
cfe38,task,flow.Sequence,2_5,NA,NA,completion,10102.482,184188.89999998,184187.346,184203.993,194306.475,194307.59999999,2023-09-18T18:36:46Z,194323.142,Respekt,heshima,s,changamnao,upinzani,ufanisi,NA,NA,NA,"c(""distractor1"", ""distractor2"", ""distractor3"")",NA,NA,NA,NA,NA,NA,NA,NA,NA,NA,NA,NA,NA,NA,NA,NA,NA,NA,NA
cfe38,Shallow Question,html.Page,2_6_0_0,NA,NA,form submission,11806.757999976,194307.79999998,194306.475,194323.142,206129.89999998,206130.29999998,2023-09-18T18:36:57Z,206142.751,Atmosphäre,angahewa,d,kuteseka,usahihi,kutoamini,angahewa,NA,NA,"c(""distractor1"", ""distractor2"", ""distractor3"")",NA,NA,NA,NA,NA,NA,NA,NA,NA,NA,NA,NA,NA,NA,NA,NA,NA,NA,NA
cfe38,Save data screen,canvas.Screen,2_6_0_1,NA,NA,timeout,500.149,206134.89999998,206126.115,206142.751,206626.23,206626.89999998,2023-09-18T18:36:58Z,206642.9,Atmosphäre,angahewa,d,kuteseka,usahihi,kutoamini,NA,NA,1,"c(""distractor1"", ""distractor2"", ""distractor3"")",NA,NA,NA,NA,NA,NA,NA,NA,NA,NA,NA,NA,NA,NA,NA,NA,NA,NA,NA
cfe38,shallow,flow.Sequence,2_6_0,NA,NA,completion,12303.088,194307.69999999,194306.475,194323.142,206626.23,206627.19999999,2023-09-18T18:36:58Z,206642.9,Atmosphäre,angahewa,d,kuteseka,usahihi,kutoamini,NA,NA,NA,"c(""distractor1"", ""distractor2"", ""distractor3"")",NA,NA,NA,NA,NA,NA,NA,NA,NA,NA,NA,NA,NA,NA,NA,NA,NA,NA,NA
cfe38,task,flow.Sequence,2_6,NA,NA,completion,12303.088,194307.69999999,194306.475,194323.142,206626.23,206627.39999998,2023-09-18T18:36:58Z,206642.9,Atmosphäre,angahewa,d,kuteseka,usahihi,kutoamini,NA,NA,NA,"c(""distractor1"", ""distractor2"", ""distractor3"")",NA,NA,NA,NA,NA,NA,NA,NA,NA,NA,NA,NA,NA,NA,NA,NA,NA,NA,NA
cfe38,Shallow Question,html.Page,2_7_0_0,NA,NA,form submission,11206.299999988,206627.59999999,206626.23,206642.9,217849.19999999,217849.5,2023-09-18T18:37:09Z,217862.335,Fleisch,mshakiki,s,kizunguzungu,mshikamano,angusho,mshakiki,NA,NA,"c(""distractor1"", ""distractor2"", ""distractor3"")",NA,NA,NA,NA,NA,NA,NA,NA,NA,NA,NA,NA,NA,NA,NA,NA,NA,NA,NA
cfe38,Save data screen,canvas.Screen,2_7_0_1,NA,NA,timeout,500.12900000002,217853.59999999,217845.686,217862.335,218345.823,218346.59999999,2023-09-18T18:37:10Z,218362.464,Fleisch,mshakiki,s,kizunguzungu,mshikamano,angusho,NA,NA,1,"c(""distractor1"", ""distractor2"", ""distractor3"")",NA,NA,NA,NA,NA,NA,NA,NA,NA,NA,NA,NA,NA,NA,NA,NA,NA,NA,NA
cfe38,shallow,flow.Sequence,2_7_0,NA,NA,completion,11702.923,206627.59999999,206626.23,206642.9,218345.823,218347,2023-09-18T18:37:10Z,218362.464,Fleisch,mshakiki,s,kizunguzungu,mshikamano,angusho,NA,NA,NA,"c(""distractor1"", ""distractor2"", ""distractor3"")",NA,NA,NA,NA,NA,NA,NA,NA,NA,NA,NA,NA,NA,NA,NA,NA,NA,NA,NA
cfe38,task,flow.Sequence,2_7,NA,NA,completion,11702.923,206627.59999999,206626.23,206642.9,218345.823,218347.29999998,2023-09-18T18:37:10Z,218362.464,Fleisch,mshakiki,s,kizunguzungu,mshikamano,angusho,NA,NA,NA,"c(""distractor1"", ""distractor2"", ""distractor3"")",NA,NA,NA,NA,NA,NA,NA,NA,NA,NA,NA,NA,NA,NA,NA,NA,NA,NA,NA
cfe38,Shallow Question,html.Page,2_8_0_0,NA,NA,form submission,7292.036,218347.5,218345.823,218362.464,225654.5,225654.89999998,2023-09-18T18:37:17Z,225664.289,Niveau,kiwango,s,usimamizi,mwamali,mshairi,kiwango,NA,NA,"c(""distractor1"", ""distractor2"", ""distractor3"")",NA,NA,NA,NA,NA,NA,NA,NA,NA,NA,NA,NA,NA,NA,NA,NA,NA,NA,NA
cfe38,Save data screen,canvas.Screen,2_8_0_1,NA,NA,timeout,500.163,225658.5,225647.632,225664.289,226147.776,226148.59999999,2023-09-18T18:37:18Z,226164.452,Niveau,kiwango,s,usimamizi,mwamali,mshairi,NA,NA,1,"c(""distractor1"", ""distractor2"", ""distractor3"")",NA,NA,NA,NA,NA,NA,NA,NA,NA,NA,NA,NA,NA,NA,NA,NA,NA,NA,NA
cfe38,shallow,flow.Sequence,2_8_0,NA,NA,completion,7785.312,218347.39999998,218345.823,218362.464,226147.776,226149.09999999,2023-09-18T18:37:18Z,226164.452,Niveau,kiwango,s,usimamizi,mwamali,mshairi,NA,NA,NA,"c(""distractor1"", ""distractor2"", ""distractor3"")",NA,NA,NA,NA,NA,NA,NA,NA,NA,NA,NA,NA,NA,NA,NA,NA,NA,NA,NA
cfe38,task,flow.Sequence,2_8,NA,NA,completion,7785.312,218347.29999998,218345.823,218362.464,226147.776,226149.29999998,2023-09-18T18:37:18Z,226164.452,Niveau,kiwango,s,usimamizi,mwamali,mshairi,NA,NA,NA,"c(""distractor1"", ""distractor2"", ""distractor3"")",NA,NA,NA,NA,NA,NA,NA,NA,NA,NA,NA,NA,NA,NA,NA,NA,NA,NA,NA
cfe38,Shallow Question,html.Page,2_9_0_0,NA,NA,form submission,11644.947999976,226149.69999999,226147.776,226164.452,237809.39999998,237809.69999999,2023-09-18T18:37:29Z,237817.298,Vorwurf,mashtaka,d,msukumo,mtangulizi,uenyekiti,uenyekiti,NA,NA,"c(""distractor1"", ""distractor2"", ""distractor3"")",NA,NA,NA,NA,NA,NA,NA,NA,NA,NA,NA,NA,NA,NA,NA,NA,NA,NA,NA
cfe38,Save data screen,canvas.Screen,2_9_0_1,NA,NA,timeout,500.212,237813.5,237800.65,237817.298,238300.76,238301.59999999,2023-09-18T18:37:30Z,238317.51,Vorwurf,mashtaka,d,msukumo,mtangulizi,uenyekiti,NA,NA,0,"c(""distractor1"", ""distractor2"", ""distractor3"")",NA,NA,NA,NA,NA,NA,NA,NA,NA,NA,NA,NA,NA,NA,NA,NA,NA,NA,NA
cfe38,shallow,flow.Sequence,2_9_0,NA,NA,completion,12136.308,226149.59999999,226147.776,226164.452,238300.76,238301.89999998,2023-09-18T18:37:30Z,238317.51,Vorwurf,mashtaka,d,msukumo,mtangulizi,uenyekiti,NA,NA,NA,"c(""distractor1"", ""distractor2"", ""distractor3"")",NA,NA,NA,NA,NA,NA,NA,NA,NA,NA,NA,NA,NA,NA,NA,NA,NA,NA,NA
cfe38,task,flow.Sequence,2_9,NA,NA,completion,12136.308,226149.5,226147.776,226164.452,238300.76,238302,2023-09-18T18:37:30Z,238317.51,Vorwurf,mashtaka,d,msukumo,mtangulizi,uenyekiti,NA,NA,NA,"c(""distractor1"", ""distractor2"", ""distractor3"")",NA,NA,NA,NA,NA,NA,NA,NA,NA,NA,NA,NA,NA,NA,NA,NA,NA,NA,NA
cfe38,Shallow Question,html.Page,2_10_0_0,NA,NA,form submission,14576.589999994,238302.19999999,238300.76,238317.51,252894.09999999,252894.5,2023-09-18T18:37:44Z,252904.387,Flexibilität,kubadilika,d,enjini,usikilivu,hesabu,hesabu,NA,NA,"c(""distractor1"", ""distractor2"", ""distractor3"")",NA,NA,NA,NA,NA,NA,NA,NA,NA,NA,NA,NA,NA,NA,NA,NA,NA,NA,NA
cfe38,Save data screen,canvas.Screen,2_10_0_1,NA,NA,timeout,500.15400000001,252899.19999999,252887.738,252904.387,253387.857,253388.69999999,2023-09-18T18:37:45Z,253404.541,Flexibilität,kubadilika,d,enjini,usikilivu,hesabu,NA,NA,0,"c(""distractor1"", ""distractor2"", ""distractor3"")",NA,NA,NA,NA,NA,NA,NA,NA,NA,NA,NA,NA,NA,NA,NA,NA,NA,NA,NA
cfe38,shallow,flow.Sequence,2_10_0,NA,NA,completion,15070.347,238302.19999999,238300.76,238317.51,253387.857,253389,2023-09-18T18:37:45Z,253404.541,Flexibilität,kubadilika,d,enjini,usikilivu,hesabu,NA,NA,NA,"c(""distractor1"", ""distractor2"", ""distractor3"")",NA,NA,NA,NA,NA,NA,NA,NA,NA,NA,NA,NA,NA,NA,NA,NA,NA,NA,NA
cfe38,task,flow.Sequence,2_10,NA,NA,completion,15070.347,238302.19999999,238300.76,238317.51,253387.857,253389.19999999,2023-09-18T18:37:45Z,253404.541,Flexibilität,kubadilika,d,enjini,usikilivu,hesabu,NA,NA,NA,"c(""distractor1"", ""distractor2"", ""distractor3"")",NA,NA,NA,NA,NA,NA,NA,NA,NA,NA,NA,NA,NA,NA,NA,NA,NA,NA,NA
cfe38,Shallow Question,html.Page,2_11_0_0,NA,NA,form submission,14479.358999976,253389.29999998,253387.857,253404.541,267883.89999998,267884.19999999,2023-09-18T18:37:59Z,267891.432,Erneuerung,ukarabati,s,ushawishi,ukalifu,unyonyaji,ukalifu,NA,NA,"c(""distractor1"", ""distractor2"", ""distractor3"")",NA,NA,NA,NA,NA,NA,NA,NA,NA,NA,NA,NA,NA,NA,NA,NA,NA,NA,NA
cfe38,Save data screen,canvas.Screen,2_11_0_1,NA,NA,timeout,500.20400000003,267888.09999999,267874.775,267891.432,268374.881,268375.59999999,2023-09-18T18:38:00Z,268391.636,Erneuerung,ukarabati,s,ushawishi,ukalifu,unyonyaji,NA,NA,0,"c(""distractor1"", ""distractor2"", ""distractor3"")",NA,NA,NA,NA,NA,NA,NA,NA,NA,NA,NA,NA,NA,NA,NA,NA,NA,NA,NA
cfe38,shallow,flow.Sequence,2_11_0,NA,NA,completion,14970.34,253389.29999998,253387.857,253404.541,268374.881,268376,2023-09-18T18:38:00Z,268391.636,Erneuerung,ukarabati,s,ushawishi,ukalifu,unyonyaji,NA,NA,NA,"c(""distractor1"", ""distractor2"", ""distractor3"")",NA,NA,NA,NA,NA,NA,NA,NA,NA,NA,NA,NA,NA,NA,NA,NA,NA,NA,NA
cfe38,task,flow.Sequence,2_11,NA,NA,completion,14970.34,253389.19999999,253387.857,253404.541,268374.881,268376.19999999,2023-09-18T18:38:00Z,268391.636,Erneuerung,ukarabati,s,ushawishi,ukalifu,unyonyaji,NA,NA,NA,"c(""distractor1"", ""distractor2"", ""distractor3"")",NA,NA,NA,NA,NA,NA,NA,NA,NA,NA,NA,NA,NA,NA,NA,NA,NA,NA,NA
cfe38,Shallow Question,html.Page,2_12_0_0,NA,NA,form submission,7843.6639999821,268376.39999998,268374.881,268391.636,276235.29999998,276235.69999999,2023-09-18T18:38:08Z,276243.514,Orientierung,urekebisho,s,uelekeo,marekebisho,utunzaji,utunzaji,NA,NA,"c(""distractor1"", ""distractor2"", ""distractor3"")",NA,NA,NA,NA,NA,NA,NA,NA,NA,NA,NA,NA,NA,NA,NA,NA,NA,NA,NA
cfe38,Save data screen,canvas.Screen,2_12_0_1,NA,NA,timeout,500.29699999996,276239.39999998,276226.861,276243.514,276726.971,276727.79999998,2023-09-18T18:38:08Z,276743.811,Orientierung,urekebisho,s,uelekeo,marekebisho,utunzaji,NA,NA,0,"c(""distractor1"", ""distractor2"", ""distractor3"")",NA,NA,NA,NA,NA,NA,NA,NA,NA,NA,NA,NA,NA,NA,NA,NA,NA,NA,NA
cfe38,shallow,flow.Sequence,2_12_0,NA,NA,completion,8335.335,268376.39999998,268374.881,268391.636,276726.971,276728.19999999,2023-09-18T18:38:08Z,276743.811,Orientierung,urekebisho,s,uelekeo,marekebisho,utunzaji,NA,NA,NA,"c(""distractor1"", ""distractor2"", ""distractor3"")",NA,NA,NA,NA,NA,NA,NA,NA,NA,NA,NA,NA,NA,NA,NA,NA,NA,NA,NA
cfe38,task,flow.Sequence,2_12,NA,NA,completion,8335.335,268376.29999998,268374.881,268391.636,276726.971,276728.59999999,2023-09-18T18:38:08Z,276743.811,Orientierung,urekebisho,s,uelekeo,marekebisho,utunzaji,NA,NA,NA,"c(""distractor1"", ""distractor2"", ""distractor3"")",NA,NA,NA,NA,NA,NA,NA,NA,NA,NA,NA,NA,NA,NA,NA,NA,NA,NA,NA
cfe38,Shallow Question,html.Page,2_13_0_0,NA,NA,form submission,21998.189,276728.89999998,276726.971,276743.811,298742,298742.5,2023-09-18T18:38:30Z,298749.11,Betrüger,mdanganyifu,d,mwanamuziki,wastani,mahakama,mdanganyifu,NA,NA,"c(""distractor1"", ""distractor2"", ""distractor3"")",NA,NA,NA,NA,NA,NA,NA,NA,NA,NA,NA,NA,NA,NA,NA,NA,NA,NA,NA
cfe38,Save data screen,canvas.Screen,2_13_0_1,NA,NA,timeout,500.14500000002,298746.59999999,298732.436,298749.11,299232.581,299233.5,2023-09-18T18:38:31Z,299249.255,Betrüger,mdanganyifu,d,mwanamuziki,wastani,mahakama,NA,NA,1,"c(""distractor1"", ""distractor2"", ""distractor3"")",NA,NA,NA,NA,NA,NA,NA,NA,NA,NA,NA,NA,NA,NA,NA,NA,NA,NA,NA
cfe38,shallow,flow.Sequence,2_13_0,NA,NA,completion,22488.77,276728.79999998,276726.971,276743.811,299232.581,299234,2023-09-18T18:38:31Z,299249.255,Betrüger,mdanganyifu,d,mwanamuziki,wastani,mahakama,NA,NA,NA,"c(""distractor1"", ""distractor2"", ""distractor3"")",NA,NA,NA,NA,NA,NA,NA,NA,NA,NA,NA,NA,NA,NA,NA,NA,NA,NA,NA
cfe38,task,flow.Sequence,2_13,NA,NA,completion,22488.77,276728.69999999,276726.971,276743.811,299232.581,299234.19999999,2023-09-18T18:38:31Z,299249.255,Betrüger,mdanganyifu,d,mwanamuziki,wastani,mahakama,NA,NA,NA,"c(""distractor1"", ""distractor2"", ""distractor3"")",NA,NA,NA,NA,NA,NA,NA,NA,NA,NA,NA,NA,NA,NA,NA,NA,NA,NA,NA
cfe38,Shallow Question,html.Page,2_14_0_0,NA,NA,form submission,9441.245,299234.59999999,299232.581,299249.255,308690.5,308690.79999998,2023-09-18T18:38:40Z,308701.552,Genehmigung,idhini,d,mwanamke,itikadi,fedheha,idhini,NA,NA,"c(""distractor1"", ""distractor2"", ""distractor3"")",NA,NA,NA,NA,NA,NA,NA,NA,NA,NA,NA,NA,NA,NA,NA,NA,NA,NA,NA
cfe38,Save data screen,canvas.Screen,2_14_0_1,NA,NA,timeout,500.14599999995,308694.09999999,308684.904,308701.552,309185.036,309186,2023-09-18T18:38:41Z,309201.698,Genehmigung,idhini,d,mwanamke,itikadi,fedheha,NA,NA,1,"c(""distractor1"", ""distractor2"", ""distractor3"")",NA,NA,NA,NA,NA,NA,NA,NA,NA,NA,NA,NA,NA,NA,NA,NA,NA,NA,NA
cfe38,shallow,flow.Sequence,2_14_0,NA,NA,completion,9935.781,299234.5,299232.581,299249.255,309185.036,309186.5,2023-09-18T18:38:41Z,309201.698,Genehmigung,idhini,d,mwanamke,itikadi,fedheha,NA,NA,NA,"c(""distractor1"", ""distractor2"", ""distractor3"")",NA,NA,NA,NA,NA,NA,NA,NA,NA,NA,NA,NA,NA,NA,NA,NA,NA,NA,NA
cfe38,task,flow.Sequence,2_14,NA,NA,completion,9935.781,299234.39999998,299232.581,299249.255,309185.036,309186.79999998,2023-09-18T18:38:41Z,309201.698,Genehmigung,idhini,d,mwanamke,itikadi,fedheha,NA,NA,NA,"c(""distractor1"", ""distractor2"", ""distractor3"")",NA,NA,NA,NA,NA,NA,NA,NA,NA,NA,NA,NA,NA,NA,NA,NA,NA,NA,NA
cfe38,Shallow Question,html.Page,2_15_0_0,NA,NA,form submission,12141.901999994,309187.29999998,309185.036,309201.698,321343.59999999,321344.09999999,2023-09-18T18:38:53Z,321354.754,Integrität,uadilifu,s,muungano,mtiririko,upunguaji,uadilifu,NA,NA,"c(""distractor1"", ""distractor2"", ""distractor3"")",NA,NA,NA,NA,NA,NA,NA,NA,NA,NA,NA,NA,NA,NA,NA,NA,NA,NA,NA
cfe38,Save data screen,canvas.Screen,2_15_0_1,NA,NA,timeout,500.20299999998,321350.09999999,321338.284,321354.754,321838.425,321840.09999999,2023-09-18T18:38:53Z,321854.957,Integrität,uadilifu,s,muungano,mtiririko,upunguaji,NA,NA,1,"c(""distractor1"", ""distractor2"", ""distractor3"")",NA,NA,NA,NA,NA,NA,NA,NA,NA,NA,NA,NA,NA,NA,NA,NA,NA,NA,NA
cfe38,shallow,flow.Sequence,2_15_0,NA,NA,completion,12636.727,309187.19999999,309185.036,309201.698,321838.425,321840.59999999,2023-09-18T18:38:53Z,321854.957,Integrität,uadilifu,s,muungano,mtiririko,upunguaji,NA,NA,NA,"c(""distractor1"", ""distractor2"", ""distractor3"")",NA,NA,NA,NA,NA,NA,NA,NA,NA,NA,NA,NA,NA,NA,NA,NA,NA,NA,NA
cfe38,task,flow.Sequence,2_15,NA,NA,completion,12636.727,309187.09999999,309185.036,309201.698,321838.425,321840.89999998,2023-09-18T18:38:53Z,321854.957,Integrität,uadilifu,s,muungano,mtiririko,upunguaji,NA,NA,NA,"c(""distractor1"", ""distractor2"", ""distractor3"")",NA,NA,NA,NA,NA,NA,NA,NA,NA,NA,NA,NA,NA,NA,NA,NA,NA,NA,NA
cfe38,retrieval block 2 (multiple choice),flow.Loop,2,NA,NA,completion,200099.945,121723,121721.809,121738.48,321838.425,321841.19999999,2023-09-18T18:38:53Z,321854.957,NA,NA,NA,NA,NA,NA,NA,NA,NA,"c(""distractor1"", ""distractor2"", ""distractor3"")",NA,NA,NA,NA,NA,NA,NA,NA,NA,NA,NA,NA,NA,NA,NA,NA,NA,NA,NA
cfe38,End,canvas.Screen,3,NA,keypress(Space),response,3012.142999994,321841.39999998,321838.425,321854.957,324867.09999999,324869.09999999,2023-09-18T18:38:56Z,324872.31,NA,NA,NA,NA,NA,NA,NA,NA,NA,NULL,NA,NA,NA,NA,NA,NA,NA,NA,NA,NA,NA,NA,NA,NA,NA,NA,NA,NA,NA
cfe38,root,flow.Sequence,NA,NA,NA,completion,323425.17399999,1387.599999994,858.45,1441.926,324867.09999999,324869.89999998,2023-09-18T18:38:56Z,324872.31,NA,NA,NA,NA,NA,NA,NA,NA,NA,NULL,NA,NA,NA,NA,NA,NA,NA,NA,NA,NA,NA,NA,NA,NA,NA,NA,NA,NA,NA
