observation,sender,sender_type,sender_id,response,response_action,ended_on,duration,time_run,time_render,time_show,time_end,time_commit,timestamp,time_switch,german,swahili,enc,distractor1,distractor2,distractor3,response_2,x,correct,distractors,url_vp,url_sess,meta_labjs_version,meta_location,meta_user_agent,meta_platform,meta_language,meta_locale,meta_time_zone,meta_timezone_offset,meta_screen_width,meta_screen_height,meta_scroll_width,meta_scroll_height,meta_window_inner_width,meta_window_inner_height,meta_device_pixel_ratio,meta_labjs_build_flavor,meta_labjs_build_commit
5beb1,Introduction delayed retrieval,canvas.Screen,0,weiter,keypress(Space),response,4256.76,1045,1044.5,1051.24,5308,5335,2024-05-27T17:27:29Z,5338.24,NA,NA,NA,NA,NA,NA,NA,NA,NA,NULL,161,2,20.2.4,https://neurocog.fernuni.ch/studies/vweber/jbaenninger/delayed%202/index.html?vp=161&sess=2,Mozilla/5.0 (Windows NT 10.0; Win64; x64; rv:126.0) Gecko/20100101 Firefox/126.0,Win32,de,de-CH,Europe/Zurich,-120,1280,800,1280,591,1280,639,1.5,production,f5b4a49f956347addd546a832a3327688c2c0fef
5beb1,Deep Question,html.Page,1_0_0_0,NA,NA,form submission,13387.76,5335,5334.8,5338.24,18726,18727,2024-05-27T17:27:43Z,18732.66,Gefährdung,kuhatarisha,d,uchokozi,udhaifu,makorowezo,dsmfhgksejhrg,NA,NA,NULL,NA,NA,NA,NA,NA,NA,NA,NA,NA,NA,NA,NA,NA,NA,NA,NA,NA,NA,NA
5beb1,Save data screen,canvas.Screen,1_0_0_1,NA,NA,timeout,500.46,18732,18724,18732.66,19216.44,19219,2024-05-27T17:27:43Z,19233.12,Gefährdung,kuhatarisha,d,uchokozi,udhaifu,makorowezo,NA,NA,0,NULL,NA,NA,NA,NA,NA,NA,NA,NA,NA,NA,NA,NA,NA,NA,NA,NA,NA,NA,NA
5beb1,deep,flow.Sequence,1_0_0,NA,NA,completion,13878.2,5335,5334.8,5338.24,19216.44,19220,2024-05-27T17:27:43Z,19233.12,Gefährdung,kuhatarisha,d,uchokozi,udhaifu,makorowezo,NA,NA,NA,NULL,NA,NA,NA,NA,NA,NA,NA,NA,NA,NA,NA,NA,NA,NA,NA,NA,NA,NA,NA
5beb1,task,flow.Sequence,1_0,NA,NA,completion,13878.2,5335,5334.8,5338.24,19216.44,19220,2024-05-27T17:27:43Z,19233.12,Gefährdung,kuhatarisha,d,uchokozi,udhaifu,makorowezo,NA,NA,NA,NULL,NA,NA,NA,NA,NA,NA,NA,NA,NA,NA,NA,NA,NA,NA,NA,NA,NA,NA,NA
5beb1,Deep Question,html.Page,1_1_0_0,NA,NA,form submission,5054.88,19221,19216.44,19233.12,24288,24289,2024-05-27T17:27:48Z,24287.24,Sänger,mwimbaji,s,msichana,shughuli,mshirika,dfkwhfiwe,NA,NA,NULL,NA,NA,NA,NA,NA,NA,NA,NA,NA,NA,NA,NA,NA,NA,NA,NA,NA,NA,NA
5beb1,Save data screen,canvas.Screen,1_1_0_1,NA,NA,timeout,500.48,24290,24284.24,24287.24,24771.04,24773,2024-05-27T17:27:49Z,24787.72,Sänger,mwimbaji,s,msichana,shughuli,mshirika,NA,NA,0,NULL,NA,NA,NA,NA,NA,NA,NA,NA,NA,NA,NA,NA,NA,NA,NA,NA,NA,NA,NA
5beb1,deep,flow.Sequence,1_1_0,NA,NA,completion,5537.92,19221,19216.44,19233.12,24771.04,24773,2024-05-27T17:27:49Z,24787.72,Sänger,mwimbaji,s,msichana,shughuli,mshirika,NA,NA,NA,NULL,NA,NA,NA,NA,NA,NA,NA,NA,NA,NA,NA,NA,NA,NA,NA,NA,NA,NA,NA
5beb1,task,flow.Sequence,1_1,NA,NA,completion,5537.92,19220,19216.44,19233.12,24771.04,24773,2024-05-27T17:27:49Z,24787.72,Sänger,mwimbaji,s,msichana,shughuli,mshirika,NA,NA,NA,NULL,NA,NA,NA,NA,NA,NA,NA,NA,NA,NA,NA,NA,NA,NA,NA,NA,NA,NA,NA
5beb1,Deep Question,html.Page,1_2_0_0,NA,NA,form submission,4780.28,24774,24771.04,24787.72,29568,29568,2024-05-27T17:27:54Z,29575.04,Prüfung,mtihani,s,mkulima,mtizamo,ufumbuzi,ferfwegmj,NA,NA,NULL,NA,NA,NA,NA,NA,NA,NA,NA,NA,NA,NA,NA,NA,NA,NA,NA,NA,NA,NA
5beb1,Save data screen,canvas.Screen,1_2_0_1,NA,NA,timeout,500.5,29569,29563.7,29575.04,30058.86,30060,2024-05-27T17:27:54Z,30075.54,Prüfung,mtihani,s,mkulima,mtizamo,ufumbuzi,NA,NA,0,NULL,NA,NA,NA,NA,NA,NA,NA,NA,NA,NA,NA,NA,NA,NA,NA,NA,NA,NA,NA
5beb1,deep,flow.Sequence,1_2_0,NA,NA,completion,5271.14,24774,24771.04,24787.72,30058.86,30061,2024-05-27T17:27:54Z,30075.54,Prüfung,mtihani,s,mkulima,mtizamo,ufumbuzi,NA,NA,NA,NULL,NA,NA,NA,NA,NA,NA,NA,NA,NA,NA,NA,NA,NA,NA,NA,NA,NA,NA,NA
5beb1,task,flow.Sequence,1_2,NA,NA,completion,5271.14,24774,24771.04,24787.72,30058.86,30061,2024-05-27T17:27:54Z,30075.54,Prüfung,mtihani,s,mkulima,mtizamo,ufumbuzi,NA,NA,NA,NULL,NA,NA,NA,NA,NA,NA,NA,NA,NA,NA,NA,NA,NA,NA,NA,NA,NA,NA,NA
5beb1,Deep Question,html.Page,1_3_0_0,NA,NA,form submission,4546.46,30061,30058.86,30075.54,34622,34623,2024-05-27T17:27:59Z,34629.14,Angreifer,mshambulizi,s,kitengo,tasinia,usafirishaji,ffhkwehf,NA,NA,NULL,NA,NA,NA,NA,NA,NA,NA,NA,NA,NA,NA,NA,NA,NA,NA,NA,NA,NA,NA
5beb1,Save data screen,canvas.Screen,1_3_0_1,NA,NA,timeout,500.54,34624,34617.6,34629.14,35113,35115,2024-05-27T17:27:59Z,35129.68,Angreifer,mshambulizi,s,kitengo,tasinia,usafirishaji,NA,NA,0,NULL,NA,NA,NA,NA,NA,NA,NA,NA,NA,NA,NA,NA,NA,NA,NA,NA,NA,NA,NA
5beb1,deep,flow.Sequence,1_3_0,NA,NA,completion,5037.46,30061,30058.86,30075.54,35113,35115,2024-05-27T17:27:59Z,35129.68,Angreifer,mshambulizi,s,kitengo,tasinia,usafirishaji,NA,NA,NA,NULL,NA,NA,NA,NA,NA,NA,NA,NA,NA,NA,NA,NA,NA,NA,NA,NA,NA,NA,NA
5beb1,task,flow.Sequence,1_3,NA,NA,completion,5037.46,30061,30058.86,30075.54,35113,35115,2024-05-27T17:27:59Z,35129.68,Angreifer,mshambulizi,s,kitengo,tasinia,usafirishaji,NA,NA,NA,NULL,NA,NA,NA,NA,NA,NA,NA,NA,NA,NA,NA,NA,NA,NA,NA,NA,NA,NA,NA
5beb1,Deep Question,html.Page,1_4_0_0,NA,NA,form submission,8346.32,35115,35113,35129.68,43476,43477,2024-05-27T17:28:07Z,43486.8,Körper,kiwiliwili,d,mapambano,mpatanishi,kiolezo,kiwiliwili,NA,NA,NULL,NA,NA,NA,NA,NA,NA,NA,NA,NA,NA,NA,NA,NA,NA,NA,NA,NA,NA,NA
5beb1,Save data screen,canvas.Screen,1_4_0_1,NA,NA,timeout,500.16,43478,43472.34,43486.8,43970.28,43972,2024-05-27T17:28:08Z,43986.96,Körper,kiwiliwili,d,mapambano,mpatanishi,kiolezo,NA,NA,1,NULL,NA,NA,NA,NA,NA,NA,NA,NA,NA,NA,NA,NA,NA,NA,NA,NA,NA,NA,NA
5beb1,deep,flow.Sequence,1_4_0,NA,NA,completion,8840.6,35115,35113,35129.68,43970.28,43972,2024-05-27T17:28:08Z,43986.96,Körper,kiwiliwili,d,mapambano,mpatanishi,kiolezo,NA,NA,NA,NULL,NA,NA,NA,NA,NA,NA,NA,NA,NA,NA,NA,NA,NA,NA,NA,NA,NA,NA,NA
5beb1,task,flow.Sequence,1_4,NA,NA,completion,8840.6,35115,35113,35129.68,43970.28,43972,2024-05-27T17:28:08Z,43986.96,Körper,kiwiliwili,d,mapambano,mpatanishi,kiolezo,NA,NA,NA,NULL,NA,NA,NA,NA,NA,NA,NA,NA,NA,NA,NA,NA,NA,NA,NA,NA,NA,NA,NA
5beb1,Deep Question,html.Page,1_5_0_0,NA,NA,form submission,4268.04,43972,43970.28,43986.96,48255,48255,2024-05-27T17:28:12Z,48257.12,Abrechnung,uhasibu,d,kusahihisha,mpambano,mashambulizi,nbjwgfwk,NA,NA,NULL,NA,NA,NA,NA,NA,NA,NA,NA,NA,NA,NA,NA,NA,NA,NA,NA,NA,NA,NA
5beb1,Save data screen,canvas.Screen,1_5_0_1,NA,NA,timeout,500.5,48256,48250.88,48257.12,48740.94,48742,2024-05-27T17:28:13Z,48757.62,Abrechnung,uhasibu,d,kusahihisha,mpambano,mashambulizi,NA,NA,0,NULL,NA,NA,NA,NA,NA,NA,NA,NA,NA,NA,NA,NA,NA,NA,NA,NA,NA,NA,NA
5beb1,deep,flow.Sequence,1_5_0,NA,NA,completion,4753.98,43972,43970.28,43986.96,48740.94,48743,2024-05-27T17:28:13Z,48757.62,Abrechnung,uhasibu,d,kusahihisha,mpambano,mashambulizi,NA,NA,NA,NULL,NA,NA,NA,NA,NA,NA,NA,NA,NA,NA,NA,NA,NA,NA,NA,NA,NA,NA,NA
5beb1,task,flow.Sequence,1_5,NA,NA,completion,4753.98,43972,43970.28,43986.96,48740.94,48743,2024-05-27T17:28:13Z,48757.62,Abrechnung,uhasibu,d,kusahihisha,mpambano,mashambulizi,NA,NA,NA,NULL,NA,NA,NA,NA,NA,NA,NA,NA,NA,NA,NA,NA,NA,NA,NA,NA,NA,NA,NA
5beb1,Deep Question,html.Page,1_6_0_0,NA,NA,form submission,4441.38,48743,48740.94,48757.62,53199,53200,2024-05-27T17:28:17Z,53211.34,Übersicht,kilindo,d,mgusano,chipukizi,kulinganisha,ergfkjweg,NA,NA,NULL,NA,NA,NA,NA,NA,NA,NA,NA,NA,NA,NA,NA,NA,NA,NA,NA,NA,NA,NA
5beb1,Save data screen,canvas.Screen,1_6_0_1,NA,NA,timeout,500.34,53201,53195.32,53211.34,53695,53696,2024-05-27T17:28:18Z,53711.68,Übersicht,kilindo,d,mgusano,chipukizi,kulinganisha,NA,NA,0,NULL,NA,NA,NA,NA,NA,NA,NA,NA,NA,NA,NA,NA,NA,NA,NA,NA,NA,NA,NA
5beb1,deep,flow.Sequence,1_6_0,NA,NA,completion,4937.38,48743,48740.94,48757.62,53695,53696,2024-05-27T17:28:18Z,53711.68,Übersicht,kilindo,d,mgusano,chipukizi,kulinganisha,NA,NA,NA,NULL,NA,NA,NA,NA,NA,NA,NA,NA,NA,NA,NA,NA,NA,NA,NA,NA,NA,NA,NA
5beb1,task,flow.Sequence,1_6,NA,NA,completion,4937.38,48743,48740.94,48757.62,53695,53697,2024-05-27T17:28:18Z,53711.68,Übersicht,kilindo,d,mgusano,chipukizi,kulinganisha,NA,NA,NA,NULL,NA,NA,NA,NA,NA,NA,NA,NA,NA,NA,NA,NA,NA,NA,NA,NA,NA,NA,NA
5beb1,Deep Question,html.Page,1_7_0_0,NA,NA,form submission,4030.32,53697,53695,53711.68,57742,57742,2024-05-27T17:28:22Z,57748.42,Lawine,banguko,s,maambukizi,usuluhishi,chekechea,dnshfkwe,NA,NA,NULL,NA,NA,NA,NA,NA,NA,NA,NA,NA,NA,NA,NA,NA,NA,NA,NA,NA,NA,NA
5beb1,Save data screen,canvas.Screen,1_7_0_1,NA,NA,timeout,500.32,57744,57739.04,57748.42,58232.06,58233,2024-05-27T17:28:22Z,58248.74,Lawine,banguko,s,maambukizi,usuluhishi,chekechea,NA,NA,0,NULL,NA,NA,NA,NA,NA,NA,NA,NA,NA,NA,NA,NA,NA,NA,NA,NA,NA,NA,NA
5beb1,deep,flow.Sequence,1_7_0,NA,NA,completion,4520.38,53697,53695,53711.68,58232.06,58233,2024-05-27T17:28:22Z,58248.74,Lawine,banguko,s,maambukizi,usuluhishi,chekechea,NA,NA,NA,NULL,NA,NA,NA,NA,NA,NA,NA,NA,NA,NA,NA,NA,NA,NA,NA,NA,NA,NA,NA
5beb1,task,flow.Sequence,1_7,NA,NA,completion,4520.38,53697,53695,53711.68,58232.06,58233,2024-05-27T17:28:22Z,58248.74,Lawine,banguko,s,maambukizi,usuluhishi,chekechea,NA,NA,NA,NULL,NA,NA,NA,NA,NA,NA,NA,NA,NA,NA,NA,NA,NA,NA,NA,NA,NA,NA,NA
5beb1,Deep Question,html.Page,1_8_0_0,NA,NA,form submission,3943.26,58233,58232.06,58248.74,62192,62192,2024-05-27T17:28:26Z,62201.92,Verzögerung,kuchelewa,d,mwakilishi,mwanauchumi,jaribio,vfjgvfwkjgeej,NA,NA,NULL,NA,NA,NA,NA,NA,NA,NA,NA,NA,NA,NA,NA,NA,NA,NA,NA,NA,NA,NA
5beb1,Save data screen,canvas.Screen,1_8_0_1,NA,NA,timeout,500.64,62193,62188.96,62201.92,62685.88,62688,2024-05-27T17:28:27Z,62702.56,Verzögerung,kuchelewa,d,mwakilishi,mwanauchumi,jaribio,NA,NA,0,NULL,NA,NA,NA,NA,NA,NA,NA,NA,NA,NA,NA,NA,NA,NA,NA,NA,NA,NA,NA
5beb1,deep,flow.Sequence,1_8_0,NA,NA,completion,4437.14,58233,58232.06,58248.74,62685.88,62689,2024-05-27T17:28:27Z,62702.56,Verzögerung,kuchelewa,d,mwakilishi,mwanauchumi,jaribio,NA,NA,NA,NULL,NA,NA,NA,NA,NA,NA,NA,NA,NA,NA,NA,NA,NA,NA,NA,NA,NA,NA,NA
5beb1,task,flow.Sequence,1_8,NA,NA,completion,4437.14,58233,58232.06,58248.74,62685.88,62690,2024-05-27T17:28:27Z,62702.56,Verzögerung,kuchelewa,d,mwakilishi,mwanauchumi,jaribio,NA,NA,NA,NULL,NA,NA,NA,NA,NA,NA,NA,NA,NA,NA,NA,NA,NA,NA,NA,NA,NA,NA,NA
5beb1,Deep Question,html.Page,1_9_0_0,NA,NA,form submission,4173.44,62690,62685.88,62702.56,66876,66877,2024-05-27T17:28:31Z,66872.64,Kontrolle,kudhibiti,d,mbinguni,kufunga,utegemezi,bfjkgfwkgu,NA,NA,NULL,NA,NA,NA,NA,NA,NA,NA,NA,NA,NA,NA,NA,NA,NA,NA,NA,NA,NA,NA
5beb1,Save data screen,canvas.Screen,1_9_0_1,NA,NA,timeout,500.38,66883,66868.78,66872.64,67356.34,67358,2024-05-27T17:28:31Z,67373.02,Kontrolle,kudhibiti,d,mbinguni,kufunga,utegemezi,NA,NA,0,NULL,NA,NA,NA,NA,NA,NA,NA,NA,NA,NA,NA,NA,NA,NA,NA,NA,NA,NA,NA
5beb1,deep,flow.Sequence,1_9_0,NA,NA,completion,4653.78,62690,62685.88,62702.56,67356.34,67359,2024-05-27T17:28:31Z,67373.02,Kontrolle,kudhibiti,d,mbinguni,kufunga,utegemezi,NA,NA,NA,NULL,NA,NA,NA,NA,NA,NA,NA,NA,NA,NA,NA,NA,NA,NA,NA,NA,NA,NA,NA
5beb1,task,flow.Sequence,1_9,NA,NA,completion,4653.78,62690,62685.88,62702.56,67356.34,67360,2024-05-27T17:28:31Z,67373.02,Kontrolle,kudhibiti,d,mbinguni,kufunga,utegemezi,NA,NA,NA,NULL,NA,NA,NA,NA,NA,NA,NA,NA,NA,NA,NA,NA,NA,NA,NA,NA,NA,NA,NA
5beb1,Deep Question,html.Page,1_10_0_0,NA,NA,form submission,4878.98,67360,67356.34,67373.02,72252,72253,2024-05-27T17:28:36Z,72260.26,Kanzler,diwani,d,rasilmali,mahitaji,maabudu,bjvcgksjgf,NA,NA,NULL,NA,NA,NA,NA,NA,NA,NA,NA,NA,NA,NA,NA,NA,NA,NA,NA,NA,NA,NA
5beb1,Save data screen,canvas.Screen,1_10_0_1,NA,NA,timeout,500.5,72253,72248.28,72260.26,72744.08,72745,2024-05-27T17:28:37Z,72760.76,Kanzler,diwani,d,rasilmali,mahitaji,maabudu,NA,NA,0,NULL,NA,NA,NA,NA,NA,NA,NA,NA,NA,NA,NA,NA,NA,NA,NA,NA,NA,NA,NA
5beb1,deep,flow.Sequence,1_10_0,NA,NA,completion,5371.06,67360,67356.34,67373.02,72744.08,72745,2024-05-27T17:28:37Z,72760.76,Kanzler,diwani,d,rasilmali,mahitaji,maabudu,NA,NA,NA,NULL,NA,NA,NA,NA,NA,NA,NA,NA,NA,NA,NA,NA,NA,NA,NA,NA,NA,NA,NA
5beb1,task,flow.Sequence,1_10,NA,NA,completion,5371.06,67360,67356.34,67373.02,72744.08,72746,2024-05-27T17:28:37Z,72760.76,Kanzler,diwani,d,rasilmali,mahitaji,maabudu,NA,NA,NA,NULL,NA,NA,NA,NA,NA,NA,NA,NA,NA,NA,NA,NA,NA,NA,NA,NA,NA,NA,NA
5beb1,Deep Question,html.Page,1_11_0_0,NA,NA,form submission,4040.24,72746,72744.08,72760.76,76801,76801,2024-05-27T17:28:41Z,76797.58,Aufstand,ugomaji,s,mazidio,msingi,kujieleza,fndkjahsfk,NA,NA,NULL,NA,NA,NA,NA,NA,NA,NA,NA,NA,NA,NA,NA,NA,NA,NA,NA,NA,NA,NA
5beb1,Save data screen,canvas.Screen,1_11_0_1,NA,NA,timeout,500.31999999999,76803,76795.1,76797.58,77281.22,77282,2024-05-27T17:28:41Z,77297.9,Aufstand,ugomaji,s,mazidio,msingi,kujieleza,NA,NA,0,NULL,NA,NA,NA,NA,NA,NA,NA,NA,NA,NA,NA,NA,NA,NA,NA,NA,NA,NA,NA
5beb1,deep,flow.Sequence,1_11_0,NA,NA,completion,4520.46,72746,72744.08,72760.76,77281.22,77283,2024-05-27T17:28:41Z,77297.9,Aufstand,ugomaji,s,mazidio,msingi,kujieleza,NA,NA,NA,NULL,NA,NA,NA,NA,NA,NA,NA,NA,NA,NA,NA,NA,NA,NA,NA,NA,NA,NA,NA
5beb1,task,flow.Sequence,1_11,NA,NA,completion,4520.46,72746,72744.08,72760.76,77281.22,77283,2024-05-27T17:28:41Z,77297.9,Aufstand,ugomaji,s,mazidio,msingi,kujieleza,NA,NA,NA,NULL,NA,NA,NA,NA,NA,NA,NA,NA,NA,NA,NA,NA,NA,NA,NA,NA,NA,NA,NA
5beb1,Deep Question,html.Page,1_12_0_0,NA,NA,form submission,5802.1,77284,77281.22,77297.9,83100,83100,2024-05-27T17:28:47Z,83102.68,Kultur,utamaduni,d,shetani,gerezani,mazingira,hejrnvsfdh,NA,NA,NULL,NA,NA,NA,NA,NA,NA,NA,NA,NA,NA,NA,NA,NA,NA,NA,NA,NA,NA,NA
5beb1,Save data screen,canvas.Screen,1_12_0_1,NA,NA,timeout,500.34000000001,83102,83096.06,83102.68,83586.56,83589,2024-05-27T17:28:48Z,83603.02,Kultur,utamaduni,d,shetani,gerezani,mazingira,NA,NA,0,NULL,NA,NA,NA,NA,NA,NA,NA,NA,NA,NA,NA,NA,NA,NA,NA,NA,NA,NA,NA
5beb1,deep,flow.Sequence,1_12_0,NA,NA,completion,6288.66,77284,77281.22,77297.9,83586.56,83590,2024-05-27T17:28:48Z,83603.02,Kultur,utamaduni,d,shetani,gerezani,mazingira,NA,NA,NA,NULL,NA,NA,NA,NA,NA,NA,NA,NA,NA,NA,NA,NA,NA,NA,NA,NA,NA,NA,NA
5beb1,task,flow.Sequence,1_12,NA,NA,completion,6288.66,77283,77281.22,77297.9,83586.56,83590,2024-05-27T17:28:48Z,83603.02,Kultur,utamaduni,d,shetani,gerezani,mazingira,NA,NA,NA,NULL,NA,NA,NA,NA,NA,NA,NA,NA,NA,NA,NA,NA,NA,NA,NA,NA,NA,NA,NA
5beb1,Deep Question,html.Page,1_13_0_0,NA,NA,form submission,4077.98,83590,83586.56,83603.02,87681,87681,2024-05-27T17:28:52Z,87689.78,System,maongozi,s,chokochoko,nuksani,mitaani,vdsjgfr,NA,NA,NULL,NA,NA,NA,NA,NA,NA,NA,NA,NA,NA,NA,NA,NA,NA,NA,NA,NA,NA,NA
5beb1,Save data screen,canvas.Screen,1_13_0_1,NA,NA,timeout,500.56,87683,87677.42,87689.78,88173.66,88175,2024-05-27T17:28:52Z,88190.34,System,maongozi,s,chokochoko,nuksani,mitaani,NA,NA,0,NULL,NA,NA,NA,NA,NA,NA,NA,NA,NA,NA,NA,NA,NA,NA,NA,NA,NA,NA,NA
5beb1,deep,flow.Sequence,1_13_0,NA,NA,completion,4570.64,83590,83586.56,83603.02,88173.66,88175,2024-05-27T17:28:52Z,88190.34,System,maongozi,s,chokochoko,nuksani,mitaani,NA,NA,NA,NULL,NA,NA,NA,NA,NA,NA,NA,NA,NA,NA,NA,NA,NA,NA,NA,NA,NA,NA,NA
5beb1,task,flow.Sequence,1_13,NA,NA,completion,4570.64,83590,83586.56,83603.02,88173.66,88176,2024-05-27T17:28:52Z,88190.34,System,maongozi,s,chokochoko,nuksani,mitaani,NA,NA,NA,NULL,NA,NA,NA,NA,NA,NA,NA,NA,NA,NA,NA,NA,NA,NA,NA,NA,NA,NA,NA
5beb1,Deep Question,html.Page,1_14_0_0,NA,NA,form submission,3972.66,88176,88173.66,88190.34,92163,92163,2024-05-27T17:28:56Z,92160.24,Kreativität,ubunifu,s,mratibu,mwendelezo,makubaliano,cnksdhwhl,NA,NA,NULL,NA,NA,NA,NA,NA,NA,NA,NA,NA,NA,NA,NA,NA,NA,NA,NA,NA,NA,NA
5beb1,Save data screen,canvas.Screen,1_14_0_1,NA,NA,timeout,500.42,92164,92159.26,92160.24,92643.98,92645,2024-05-27T17:28:57Z,92660.66,Kreativität,ubunifu,s,mratibu,mwendelezo,makubaliano,NA,NA,0,NULL,NA,NA,NA,NA,NA,NA,NA,NA,NA,NA,NA,NA,NA,NA,NA,NA,NA,NA,NA
5beb1,deep,flow.Sequence,1_14_0,NA,NA,completion,4453.64,88176,88173.66,88190.34,92643.98,92646,2024-05-27T17:28:57Z,92660.66,Kreativität,ubunifu,s,mratibu,mwendelezo,makubaliano,NA,NA,NA,NULL,NA,NA,NA,NA,NA,NA,NA,NA,NA,NA,NA,NA,NA,NA,NA,NA,NA,NA,NA
5beb1,task,flow.Sequence,1_14,NA,NA,completion,4453.64,88176,88173.66,88190.34,92643.98,92646,2024-05-27T17:28:57Z,92660.66,Kreativität,ubunifu,s,mratibu,mwendelezo,makubaliano,NA,NA,NA,NULL,NA,NA,NA,NA,NA,NA,NA,NA,NA,NA,NA,NA,NA,NA,NA,NA,NA,NA,NA
5beb1,Deep Question,html.Page,1_15_0_0,NA,NA,form submission,7857.34,92646,92643.98,92660.66,100518,100518,2024-05-27T17:29:04Z,100517.06,Können,unaweza,s,kiongozi,bustani,mienendo,vbjsgfkje,NA,NA,NULL,NA,NA,NA,NA,NA,NA,NA,NA,NA,NA,NA,NA,NA,NA,NA,NA,NA,NA,NA
5beb1,Save data screen,canvas.Screen,1_15_0_1,NA,NA,timeout,500.5,100520,100513.82,100517.06,101000.88,101002,2024-05-27T17:29:05Z,101017.56,Können,unaweza,s,kiongozi,bustani,mienendo,NA,NA,0,NULL,NA,NA,NA,NA,NA,NA,NA,NA,NA,NA,NA,NA,NA,NA,NA,NA,NA,NA,NA
5beb1,deep,flow.Sequence,1_15_0,NA,NA,completion,8340.22,92646,92643.98,92660.66,101000.88,101003,2024-05-27T17:29:05Z,101017.56,Können,unaweza,s,kiongozi,bustani,mienendo,NA,NA,NA,NULL,NA,NA,NA,NA,NA,NA,NA,NA,NA,NA,NA,NA,NA,NA,NA,NA,NA,NA,NA
5beb1,task,flow.Sequence,1_15,NA,NA,completion,8340.22,92646,92643.98,92660.66,101000.88,101003,2024-05-27T17:29:05Z,101017.56,Können,unaweza,s,kiongozi,bustani,mienendo,NA,NA,NA,NULL,NA,NA,NA,NA,NA,NA,NA,NA,NA,NA,NA,NA,NA,NA,NA,NA,NA,NA,NA
5beb1,retrieval block 1 (cued recall),flow.Loop,1,NA,NA,completion,95662.64,5335,5334.8,5338.24,101000.88,101003,2024-05-27T17:29:05Z,101017.56,NA,NA,NA,NA,NA,NA,NA,NA,NA,NULL,NA,NA,NA,NA,NA,NA,NA,NA,NA,NA,NA,NA,NA,NA,NA,NA,NA,NA,NA
5beb1,Shallow Question,html.Page,2_0_0_0,NA,NA,form submission,8496.44,101003,101000.88,101017.56,109514,109514,2024-05-27T17:29:13Z,109522.9,Können,unaweza,s,kiongozi,bustani,mienendo,unaweza,NA,NA,"c(""distractor1"", ""distractor2"", ""distractor3"")",NA,NA,NA,NA,NA,NA,NA,NA,NA,NA,NA,NA,NA,NA,NA,NA,NA,NA,NA
5beb1,Save data screen,canvas.Screen,2_0_0_1,NA,NA,timeout,502.06000000001,109515,109509.84,109522.9,110008.28,110010,2024-05-27T17:29:14Z,110024.96,Können,unaweza,s,kiongozi,bustani,mienendo,NA,NA,1,"c(""distractor1"", ""distractor2"", ""distractor3"")",NA,NA,NA,NA,NA,NA,NA,NA,NA,NA,NA,NA,NA,NA,NA,NA,NA,NA,NA
5beb1,shallow,flow.Sequence,2_0_0,NA,NA,completion,8990.72,101003,101000.88,101017.56,110008.28,110010,2024-05-27T17:29:14Z,110024.96,Können,unaweza,s,kiongozi,bustani,mienendo,NA,NA,NA,"c(""distractor1"", ""distractor2"", ""distractor3"")",NA,NA,NA,NA,NA,NA,NA,NA,NA,NA,NA,NA,NA,NA,NA,NA,NA,NA,NA
5beb1,task,flow.Sequence,2_0,NA,NA,completion,8990.72,101003,101000.88,101017.56,110008.28,110010,2024-05-27T17:29:14Z,110024.96,Können,unaweza,s,kiongozi,bustani,mienendo,NA,NA,NA,"c(""distractor1"", ""distractor2"", ""distractor3"")",NA,NA,NA,NA,NA,NA,NA,NA,NA,NA,NA,NA,NA,NA,NA,NA,NA,NA,NA
5beb1,Shallow Question,html.Page,2_1_0_0,NA,NA,form submission,7283.04,110011,110008.28,110024.96,117308,117308,2024-05-27T17:29:21Z,117314.3,System,maongozi,s,chokochoko,nuksani,mitaani,maongozi,NA,NA,"c(""distractor1"", ""distractor2"", ""distractor3"")",NA,NA,NA,NA,NA,NA,NA,NA,NA,NA,NA,NA,NA,NA,NA,NA,NA,NA,NA
5beb1,Save data screen,canvas.Screen,2_1_0_1,NA,NA,timeout,500.58,117309,117304.54,117314.3,117798.2,117799,2024-05-27T17:29:22Z,117814.88,System,maongozi,s,chokochoko,nuksani,mitaani,NA,NA,1,"c(""distractor1"", ""distractor2"", ""distractor3"")",NA,NA,NA,NA,NA,NA,NA,NA,NA,NA,NA,NA,NA,NA,NA,NA,NA,NA,NA
5beb1,shallow,flow.Sequence,2_1_0,NA,NA,completion,7773.24,110010,110008.28,110024.96,117798.2,117799,2024-05-27T17:29:22Z,117814.88,System,maongozi,s,chokochoko,nuksani,mitaani,NA,NA,NA,"c(""distractor1"", ""distractor2"", ""distractor3"")",NA,NA,NA,NA,NA,NA,NA,NA,NA,NA,NA,NA,NA,NA,NA,NA,NA,NA,NA
5beb1,task,flow.Sequence,2_1,NA,NA,completion,7773.24,110010,110008.28,110024.96,117798.2,117800,2024-05-27T17:29:22Z,117814.88,System,maongozi,s,chokochoko,nuksani,mitaani,NA,NA,NA,"c(""distractor1"", ""distractor2"", ""distractor3"")",NA,NA,NA,NA,NA,NA,NA,NA,NA,NA,NA,NA,NA,NA,NA,NA,NA,NA,NA
5beb1,Shallow Question,html.Page,2_2_0_0,NA,NA,form submission,8884.12,117800,117798.2,117814.88,126699,126699,2024-05-27T17:29:31Z,126705.58,Übersicht,kilindo,d,mgusano,chipukizi,kulinganisha,kilindo,NA,NA,"c(""distractor1"", ""distractor2"", ""distractor3"")",NA,NA,NA,NA,NA,NA,NA,NA,NA,NA,NA,NA,NA,NA,NA,NA,NA,NA,NA
5beb1,Save data screen,canvas.Screen,2_2_0_1,NA,NA,timeout,500.44,126700,126695.26,126705.58,127189.34,127190,2024-05-27T17:29:31Z,127206.02,Übersicht,kilindo,d,mgusano,chipukizi,kulinganisha,NA,NA,1,"c(""distractor1"", ""distractor2"", ""distractor3"")",NA,NA,NA,NA,NA,NA,NA,NA,NA,NA,NA,NA,NA,NA,NA,NA,NA,NA,NA
5beb1,shallow,flow.Sequence,2_2_0,NA,NA,completion,9374.46,117800,117798.2,117814.88,127189.34,127191,2024-05-27T17:29:31Z,127206.02,Übersicht,kilindo,d,mgusano,chipukizi,kulinganisha,NA,NA,NA,"c(""distractor1"", ""distractor2"", ""distractor3"")",NA,NA,NA,NA,NA,NA,NA,NA,NA,NA,NA,NA,NA,NA,NA,NA,NA,NA,NA
5beb1,task,flow.Sequence,2_2,NA,NA,completion,9374.46,117800,117798.2,117814.88,127189.34,127191,2024-05-27T17:29:31Z,127206.02,Übersicht,kilindo,d,mgusano,chipukizi,kulinganisha,NA,NA,NA,"c(""distractor1"", ""distractor2"", ""distractor3"")",NA,NA,NA,NA,NA,NA,NA,NA,NA,NA,NA,NA,NA,NA,NA,NA,NA,NA,NA
5beb1,Shallow Question,html.Page,2_3_0_0,NA,NA,form submission,5900.98,127191,127189.34,127206.02,133107,133107,2024-05-27T17:29:37Z,133110.7,Aufstand,ugomaji,s,mazidio,msingi,kujieleza,ugomaji,NA,NA,"c(""distractor1"", ""distractor2"", ""distractor3"")",NA,NA,NA,NA,NA,NA,NA,NA,NA,NA,NA,NA,NA,NA,NA,NA,NA,NA,NA
5beb1,Save data screen,canvas.Screen,2_3_0_1,NA,NA,timeout,500.57999999999,133109,133103.54,133110.7,133594.6,133597,2024-05-27T17:29:38Z,133611.28,Aufstand,ugomaji,s,mazidio,msingi,kujieleza,NA,NA,1,"c(""distractor1"", ""distractor2"", ""distractor3"")",NA,NA,NA,NA,NA,NA,NA,NA,NA,NA,NA,NA,NA,NA,NA,NA,NA,NA,NA
5beb1,shallow,flow.Sequence,2_3_0,NA,NA,completion,6388.58,127191,127189.34,127206.02,133594.6,133599,2024-05-27T17:29:38Z,133611.28,Aufstand,ugomaji,s,mazidio,msingi,kujieleza,NA,NA,NA,"c(""distractor1"", ""distractor2"", ""distractor3"")",NA,NA,NA,NA,NA,NA,NA,NA,NA,NA,NA,NA,NA,NA,NA,NA,NA,NA,NA
5beb1,task,flow.Sequence,2_3,NA,NA,completion,6388.58,127191,127189.34,127206.02,133594.6,133599,2024-05-27T17:29:38Z,133611.28,Aufstand,ugomaji,s,mazidio,msingi,kujieleza,NA,NA,NA,"c(""distractor1"", ""distractor2"", ""distractor3"")",NA,NA,NA,NA,NA,NA,NA,NA,NA,NA,NA,NA,NA,NA,NA,NA,NA,NA,NA
5beb1,Shallow Question,html.Page,2_4_0_0,NA,NA,form submission,8463.72,133599,133594.6,133611.28,142075,142078,2024-05-27T17:29:46Z,142084.92,Kultur,utamaduni,d,shetani,gerezani,mazingira,utamaduni,NA,NA,"c(""distractor1"", ""distractor2"", ""distractor3"")",NA,NA,NA,NA,NA,NA,NA,NA,NA,NA,NA,NA,NA,NA,NA,NA,NA,NA,NA
5beb1,Save data screen,canvas.Screen,2_4_0_1,NA,NA,timeout,500.43999999997,142082,142071.2,142084.92,142568.68,142570,2024-05-27T17:29:47Z,142585.36,Kultur,utamaduni,d,shetani,gerezani,mazingira,NA,NA,1,"c(""distractor1"", ""distractor2"", ""distractor3"")",NA,NA,NA,NA,NA,NA,NA,NA,NA,NA,NA,NA,NA,NA,NA,NA,NA,NA,NA
5beb1,shallow,flow.Sequence,2_4_0,NA,NA,completion,8957.4,133599,133594.6,133611.28,142568.68,142570,2024-05-27T17:29:47Z,142585.36,Kultur,utamaduni,d,shetani,gerezani,mazingira,NA,NA,NA,"c(""distractor1"", ""distractor2"", ""distractor3"")",NA,NA,NA,NA,NA,NA,NA,NA,NA,NA,NA,NA,NA,NA,NA,NA,NA,NA,NA
5beb1,task,flow.Sequence,2_4,NA,NA,completion,8957.4,133599,133594.6,133611.28,142568.68,142570,2024-05-27T17:29:47Z,142585.36,Kultur,utamaduni,d,shetani,gerezani,mazingira,NA,NA,NA,"c(""distractor1"", ""distractor2"", ""distractor3"")",NA,NA,NA,NA,NA,NA,NA,NA,NA,NA,NA,NA,NA,NA,NA,NA,NA,NA,NA
5beb1,Shallow Question,html.Page,2_5_0_0,NA,NA,form submission,8966.64,142570,142568.68,142585.36,151552,151552,2024-05-27T17:29:56Z,151559.36,Sänger,mwimbaji,s,msichana,shughuli,mshirika,mwimbaji,NA,NA,"c(""distractor1"", ""distractor2"", ""distractor3"")",NA,NA,NA,NA,NA,NA,NA,NA,NA,NA,NA,NA,NA,NA,NA,NA,NA,NA,NA
5beb1,Save data screen,canvas.Screen,2_5_0_1,NA,NA,timeout,500.5,151553,151547.78,151559.36,152043.18,152045,2024-05-27T17:29:56Z,152059.86,Sänger,mwimbaji,s,msichana,shughuli,mshirika,NA,NA,1,"c(""distractor1"", ""distractor2"", ""distractor3"")",NA,NA,NA,NA,NA,NA,NA,NA,NA,NA,NA,NA,NA,NA,NA,NA,NA,NA,NA
5beb1,shallow,flow.Sequence,2_5_0,NA,NA,completion,9457.82,142570,142568.68,142585.36,152043.18,152045,2024-05-27T17:29:56Z,152059.86,Sänger,mwimbaji,s,msichana,shughuli,mshirika,NA,NA,NA,"c(""distractor1"", ""distractor2"", ""distractor3"")",NA,NA,NA,NA,NA,NA,NA,NA,NA,NA,NA,NA,NA,NA,NA,NA,NA,NA,NA
5beb1,task,flow.Sequence,2_5,NA,NA,completion,9457.82,142570,142568.68,142585.36,152043.18,152045,2024-05-27T17:29:56Z,152059.86,Sänger,mwimbaji,s,msichana,shughuli,mshirika,NA,NA,NA,"c(""distractor1"", ""distractor2"", ""distractor3"")",NA,NA,NA,NA,NA,NA,NA,NA,NA,NA,NA,NA,NA,NA,NA,NA,NA,NA,NA
5beb1,Shallow Question,html.Page,2_6_0_0,NA,NA,form submission,5432.14,152046,152043.18,152059.86,157492,157492,2024-05-27T17:30:01Z,157514.42,Kanzler,diwani,d,rasilmali,mahitaji,maabudu,diwani,NA,NA,"c(""distractor1"", ""distractor2"", ""distractor3"")",NA,NA,NA,NA,NA,NA,NA,NA,NA,NA,NA,NA,NA,NA,NA,NA,NA,NA,NA
5beb1,Save data screen,canvas.Screen,2_6_0_1,NA,NA,timeout,500.43999999997,157493,157489.24,157514.42,157998.18,157999,2024-05-27T17:30:02Z,158014.86,Kanzler,diwani,d,rasilmali,mahitaji,maabudu,NA,NA,1,"c(""distractor1"", ""distractor2"", ""distractor3"")",NA,NA,NA,NA,NA,NA,NA,NA,NA,NA,NA,NA,NA,NA,NA,NA,NA,NA,NA
5beb1,shallow,flow.Sequence,2_6_0,NA,NA,completion,5938.32,152046,152043.18,152059.86,157998.18,157999,2024-05-27T17:30:02Z,158014.86,Kanzler,diwani,d,rasilmali,mahitaji,maabudu,NA,NA,NA,"c(""distractor1"", ""distractor2"", ""distractor3"")",NA,NA,NA,NA,NA,NA,NA,NA,NA,NA,NA,NA,NA,NA,NA,NA,NA,NA,NA
5beb1,task,flow.Sequence,2_6,NA,NA,completion,5938.32,152046,152043.18,152059.86,157998.18,157999,2024-05-27T17:30:02Z,158014.86,Kanzler,diwani,d,rasilmali,mahitaji,maabudu,NA,NA,NA,"c(""distractor1"", ""distractor2"", ""distractor3"")",NA,NA,NA,NA,NA,NA,NA,NA,NA,NA,NA,NA,NA,NA,NA,NA,NA,NA,NA
5beb1,Shallow Question,html.Page,2_7_0_0,NA,NA,form submission,5283.14,157999,157998.18,158014.86,163298,163298,2024-05-27T17:30:07Z,163302.38,Lawine,banguko,s,maambukizi,usuluhishi,chekechea,banguko,NA,NA,"c(""distractor1"", ""distractor2"", ""distractor3"")",NA,NA,NA,NA,NA,NA,NA,NA,NA,NA,NA,NA,NA,NA,NA,NA,NA,NA,NA
5beb1,Save data screen,canvas.Screen,2_7_0_1,NA,NA,timeout,500.45999999999,163300,163294.46,163302.38,163786.32,163788,2024-05-27T17:30:08Z,163802.84,Lawine,banguko,s,maambukizi,usuluhishi,chekechea,NA,NA,1,"c(""distractor1"", ""distractor2"", ""distractor3"")",NA,NA,NA,NA,NA,NA,NA,NA,NA,NA,NA,NA,NA,NA,NA,NA,NA,NA,NA
5beb1,shallow,flow.Sequence,2_7_0,NA,NA,completion,5771.46,157999,157998.18,158014.86,163786.32,163788,2024-05-27T17:30:08Z,163802.84,Lawine,banguko,s,maambukizi,usuluhishi,chekechea,NA,NA,NA,"c(""distractor1"", ""distractor2"", ""distractor3"")",NA,NA,NA,NA,NA,NA,NA,NA,NA,NA,NA,NA,NA,NA,NA,NA,NA,NA,NA
5beb1,task,flow.Sequence,2_7,NA,NA,completion,5771.46,157999,157998.18,158014.86,163786.32,163788,2024-05-27T17:30:08Z,163802.84,Lawine,banguko,s,maambukizi,usuluhishi,chekechea,NA,NA,NA,"c(""distractor1"", ""distractor2"", ""distractor3"")",NA,NA,NA,NA,NA,NA,NA,NA,NA,NA,NA,NA,NA,NA,NA,NA,NA,NA,NA
5beb1,Shallow Question,html.Page,2_8_0_0,NA,NA,form submission,11750.16,163788,163786.32,163802.84,175553,175553,2024-05-27T17:30:20Z,175562.54,Prüfung,mtihani,s,mkulima,mtizamo,ufumbuzi,ufumbuzi,NA,NA,"c(""distractor1"", ""distractor2"", ""distractor3"")",NA,NA,NA,NA,NA,NA,NA,NA,NA,NA,NA,NA,NA,NA,NA,NA,NA,NA,NA
5beb1,Save data screen,canvas.Screen,2_8_0_1,NA,NA,timeout,500.53999999998,175554,175548.7,175562.54,176046.4,176048,2024-05-27T17:30:20Z,176063.08,Prüfung,mtihani,s,mkulima,mtizamo,ufumbuzi,NA,NA,0,"c(""distractor1"", ""distractor2"", ""distractor3"")",NA,NA,NA,NA,NA,NA,NA,NA,NA,NA,NA,NA,NA,NA,NA,NA,NA,NA,NA
5beb1,shallow,flow.Sequence,2_8_0,NA,NA,completion,12243.56,163788,163786.32,163802.84,176046.4,176049,2024-05-27T17:30:20Z,176063.08,Prüfung,mtihani,s,mkulima,mtizamo,ufumbuzi,NA,NA,NA,"c(""distractor1"", ""distractor2"", ""distractor3"")",NA,NA,NA,NA,NA,NA,NA,NA,NA,NA,NA,NA,NA,NA,NA,NA,NA,NA,NA
5beb1,task,flow.Sequence,2_8,NA,NA,completion,12243.56,163788,163786.32,163802.84,176046.4,176049,2024-05-27T17:30:20Z,176063.08,Prüfung,mtihani,s,mkulima,mtizamo,ufumbuzi,NA,NA,NA,"c(""distractor1"", ""distractor2"", ""distractor3"")",NA,NA,NA,NA,NA,NA,NA,NA,NA,NA,NA,NA,NA,NA,NA,NA,NA,NA,NA
5beb1,Shallow Question,html.Page,2_9_0_0,NA,NA,form submission,9146.92,176049,176046.4,176063.08,185210,185210,2024-05-27T17:30:29Z,185220.54,Kreativität,ubunifu,s,mratibu,mwendelezo,makubaliano,ubunifu,NA,NA,"c(""distractor1"", ""distractor2"", ""distractor3"")",NA,NA,NA,NA,NA,NA,NA,NA,NA,NA,NA,NA,NA,NA,NA,NA,NA,NA,NA
5beb1,Save data screen,canvas.Screen,2_9_0_1,NA,NA,timeout,500.56,185212,185206.42,185220.54,185704.42,185706,2024-05-27T17:30:30Z,185721.1,Kreativität,ubunifu,s,mratibu,mwendelezo,makubaliano,NA,NA,1,"c(""distractor1"", ""distractor2"", ""distractor3"")",NA,NA,NA,NA,NA,NA,NA,NA,NA,NA,NA,NA,NA,NA,NA,NA,NA,NA,NA
5beb1,shallow,flow.Sequence,2_9_0,NA,NA,completion,9641.34,176049,176046.4,176063.08,185704.42,185707,2024-05-27T17:30:30Z,185721.1,Kreativität,ubunifu,s,mratibu,mwendelezo,makubaliano,NA,NA,NA,"c(""distractor1"", ""distractor2"", ""distractor3"")",NA,NA,NA,NA,NA,NA,NA,NA,NA,NA,NA,NA,NA,NA,NA,NA,NA,NA,NA
5beb1,task,flow.Sequence,2_9,NA,NA,completion,9641.34,176049,176046.4,176063.08,185704.42,185707,2024-05-27T17:30:30Z,185721.1,Kreativität,ubunifu,s,mratibu,mwendelezo,makubaliano,NA,NA,NA,"c(""distractor1"", ""distractor2"", ""distractor3"")",NA,NA,NA,NA,NA,NA,NA,NA,NA,NA,NA,NA,NA,NA,NA,NA,NA,NA,NA
5beb1,Shallow Question,html.Page,2_10_0_0,NA,NA,form submission,22915.9,185708,185704.42,185721.1,208637,208639,2024-05-27T17:30:53Z,208640,Verzögerung,kuchelewa,d,mwakilishi,mwanauchumi,jaribio,mwakilishi,NA,NA,"c(""distractor1"", ""distractor2"", ""distractor3"")",NA,NA,NA,NA,NA,NA,NA,NA,NA,NA,NA,NA,NA,NA,NA,NA,NA,NA,NA
5beb1,Save data screen,canvas.Screen,2_10_0_1,NA,NA,timeout,500.42000000001,208644,208631.58,208640,209123.74,209125,2024-05-27T17:30:53Z,209140.42,Verzögerung,kuchelewa,d,mwakilishi,mwanauchumi,jaribio,NA,NA,0,"c(""distractor1"", ""distractor2"", ""distractor3"")",NA,NA,NA,NA,NA,NA,NA,NA,NA,NA,NA,NA,NA,NA,NA,NA,NA,NA,NA
5beb1,shallow,flow.Sequence,2_10_0,NA,NA,completion,23402.64,185708,185704.42,185721.1,209123.74,209126,2024-05-27T17:30:53Z,209140.42,Verzögerung,kuchelewa,d,mwakilishi,mwanauchumi,jaribio,NA,NA,NA,"c(""distractor1"", ""distractor2"", ""distractor3"")",NA,NA,NA,NA,NA,NA,NA,NA,NA,NA,NA,NA,NA,NA,NA,NA,NA,NA,NA
5beb1,task,flow.Sequence,2_10,NA,NA,completion,23402.64,185707,185704.42,185721.1,209123.74,209126,2024-05-27T17:30:53Z,209140.42,Verzögerung,kuchelewa,d,mwakilishi,mwanauchumi,jaribio,NA,NA,NA,"c(""distractor1"", ""distractor2"", ""distractor3"")",NA,NA,NA,NA,NA,NA,NA,NA,NA,NA,NA,NA,NA,NA,NA,NA,NA,NA,NA
5beb1,Shallow Question,html.Page,2_11_0_0,NA,NA,form submission,8847.58,209127,209123.74,209140.42,217988,217989,2024-05-27T17:31:02Z,217997.82,Körper,kiwiliwili,d,mapambano,mpatanishi,kiolezo,kiwiliwili,NA,NA,"c(""distractor1"", ""distractor2"", ""distractor3"")",NA,NA,NA,NA,NA,NA,NA,NA,NA,NA,NA,NA,NA,NA,NA,NA,NA,NA,NA
5beb1,Save data screen,canvas.Screen,2_11_0_1,NA,NA,timeout,500.34,217990,217984.78,217997.82,218481.48,218483,2024-05-27T17:31:02Z,218498.16,Körper,kiwiliwili,d,mapambano,mpatanishi,kiolezo,NA,NA,1,"c(""distractor1"", ""distractor2"", ""distractor3"")",NA,NA,NA,NA,NA,NA,NA,NA,NA,NA,NA,NA,NA,NA,NA,NA,NA,NA,NA
5beb1,shallow,flow.Sequence,2_11_0,NA,NA,completion,9341.06,209126,209123.74,209140.42,218481.48,218483,2024-05-27T17:31:02Z,218498.16,Körper,kiwiliwili,d,mapambano,mpatanishi,kiolezo,NA,NA,NA,"c(""distractor1"", ""distractor2"", ""distractor3"")",NA,NA,NA,NA,NA,NA,NA,NA,NA,NA,NA,NA,NA,NA,NA,NA,NA,NA,NA
5beb1,task,flow.Sequence,2_11,NA,NA,completion,9341.06,209126,209123.74,209140.42,218481.48,218483,2024-05-27T17:31:02Z,218498.16,Körper,kiwiliwili,d,mapambano,mpatanishi,kiolezo,NA,NA,NA,"c(""distractor1"", ""distractor2"", ""distractor3"")",NA,NA,NA,NA,NA,NA,NA,NA,NA,NA,NA,NA,NA,NA,NA,NA,NA,NA,NA
5beb1,Shallow Question,html.Page,2_12_0_0,NA,NA,form submission,8805.84,218483,218481.48,218498.16,227304,227304,2024-05-27T17:31:11Z,227340.78,Angreifer,mshambulizi,s,kitengo,tasinia,usafirishaji,kitengo,NA,NA,"c(""distractor1"", ""distractor2"", ""distractor3"")",NA,NA,NA,NA,NA,NA,NA,NA,NA,NA,NA,NA,NA,NA,NA,NA,NA,NA,NA
5beb1,Save data screen,canvas.Screen,2_12_0_1,NA,NA,timeout,498.45999999999,227305,227301.34,227340.78,227822.56,227824,2024-05-27T17:31:12Z,227839.24,Angreifer,mshambulizi,s,kitengo,tasinia,usafirishaji,NA,NA,0,"c(""distractor1"", ""distractor2"", ""distractor3"")",NA,NA,NA,NA,NA,NA,NA,NA,NA,NA,NA,NA,NA,NA,NA,NA,NA,NA,NA
5beb1,shallow,flow.Sequence,2_12_0,NA,NA,completion,9324.4,218483,218481.48,218498.16,227822.56,227824,2024-05-27T17:31:12Z,227839.24,Angreifer,mshambulizi,s,kitengo,tasinia,usafirishaji,NA,NA,NA,"c(""distractor1"", ""distractor2"", ""distractor3"")",NA,NA,NA,NA,NA,NA,NA,NA,NA,NA,NA,NA,NA,NA,NA,NA,NA,NA,NA
5beb1,task,flow.Sequence,2_12,NA,NA,completion,9324.4,218483,218481.48,218498.16,227822.56,227825,2024-05-27T17:31:12Z,227839.24,Angreifer,mshambulizi,s,kitengo,tasinia,usafirishaji,NA,NA,NA,"c(""distractor1"", ""distractor2"", ""distractor3"")",NA,NA,NA,NA,NA,NA,NA,NA,NA,NA,NA,NA,NA,NA,NA,NA,NA,NA,NA
5beb1,Shallow Question,html.Page,2_13_0_0,NA,NA,form submission,13457.76,227825,227822.56,227839.24,241297,241298,2024-05-27T17:31:25Z,241300.48,Kontrolle,kudhibiti,d,mbinguni,kufunga,utegemezi,utegemezi,NA,NA,"c(""distractor1"", ""distractor2"", ""distractor3"")",NA,NA,NA,NA,NA,NA,NA,NA,NA,NA,NA,NA,NA,NA,NA,NA,NA,NA,NA
5beb1,Save data screen,canvas.Screen,2_13_0_1,NA,NA,timeout,500.44,241299,241294.26,241300.48,241784.24,241786,2024-05-27T17:31:26Z,241800.92,Kontrolle,kudhibiti,d,mbinguni,kufunga,utegemezi,NA,NA,0,"c(""distractor1"", ""distractor2"", ""distractor3"")",NA,NA,NA,NA,NA,NA,NA,NA,NA,NA,NA,NA,NA,NA,NA,NA,NA,NA,NA
5beb1,shallow,flow.Sequence,2_13_0,NA,NA,completion,13945,227825,227822.56,227839.24,241784.24,241786,2024-05-27T17:31:26Z,241800.92,Kontrolle,kudhibiti,d,mbinguni,kufunga,utegemezi,NA,NA,NA,"c(""distractor1"", ""distractor2"", ""distractor3"")",NA,NA,NA,NA,NA,NA,NA,NA,NA,NA,NA,NA,NA,NA,NA,NA,NA,NA,NA
5beb1,task,flow.Sequence,2_13,NA,NA,completion,13945,227825,227822.56,227839.24,241784.24,241786,2024-05-27T17:31:26Z,241800.92,Kontrolle,kudhibiti,d,mbinguni,kufunga,utegemezi,NA,NA,NA,"c(""distractor1"", ""distractor2"", ""distractor3"")",NA,NA,NA,NA,NA,NA,NA,NA,NA,NA,NA,NA,NA,NA,NA,NA,NA,NA,NA
5beb1,Shallow Question,html.Page,2_14_0_0,NA,NA,form submission,7167.08,241787,241784.24,241800.92,248968,248969,2024-05-27T17:31:33Z,248973.52,Gefährdung,kuhatarisha,d,uchokozi,udhaifu,makorowezo,kuhatarisha,NA,NA,"c(""distractor1"", ""distractor2"", ""distractor3"")",NA,NA,NA,NA,NA,NA,NA,NA,NA,NA,NA,NA,NA,NA,NA,NA,NA,NA,NA
5beb1,Save data screen,canvas.Screen,2_14_0_1,NA,NA,timeout,500.36000000002,248970,248964.8,248973.52,249457.2,249458,2024-05-27T17:31:33Z,249473.88,Gefährdung,kuhatarisha,d,uchokozi,udhaifu,makorowezo,NA,NA,1,"c(""distractor1"", ""distractor2"", ""distractor3"")",NA,NA,NA,NA,NA,NA,NA,NA,NA,NA,NA,NA,NA,NA,NA,NA,NA,NA,NA
5beb1,shallow,flow.Sequence,2_14_0,NA,NA,completion,7656.28,241787,241784.24,241800.92,249457.2,249458,2024-05-27T17:31:33Z,249473.88,Gefährdung,kuhatarisha,d,uchokozi,udhaifu,makorowezo,NA,NA,NA,"c(""distractor1"", ""distractor2"", ""distractor3"")",NA,NA,NA,NA,NA,NA,NA,NA,NA,NA,NA,NA,NA,NA,NA,NA,NA,NA,NA
5beb1,task,flow.Sequence,2_14,NA,NA,completion,7656.28,241787,241784.24,241800.92,249457.2,249458,2024-05-27T17:31:33Z,249473.88,Gefährdung,kuhatarisha,d,uchokozi,udhaifu,makorowezo,NA,NA,NA,"c(""distractor1"", ""distractor2"", ""distractor3"")",NA,NA,NA,NA,NA,NA,NA,NA,NA,NA,NA,NA,NA,NA,NA,NA,NA,NA,NA
5beb1,Shallow Question,html.Page,2_15_0_0,NA,NA,form submission,9154.12,249460,249457.2,249473.88,258628,258630,2024-05-27T17:31:43Z,258631.6,Abrechnung,uhasibu,d,kusahihisha,mpambano,mashambulizi,mashambulizi,NA,NA,"c(""distractor1"", ""distractor2"", ""distractor3"")",NA,NA,NA,NA,NA,NA,NA,NA,NA,NA,NA,NA,NA,NA,NA,NA,NA,NA,NA
5beb1,Save data screen,canvas.Screen,2_15_0_1,NA,NA,timeout,500.29999999999,258637,258621.2,258631.6,259115.22,259117,2024-05-27T17:31:43Z,259131.9,Abrechnung,uhasibu,d,kusahihisha,mpambano,mashambulizi,NA,NA,0,"c(""distractor1"", ""distractor2"", ""distractor3"")",NA,NA,NA,NA,NA,NA,NA,NA,NA,NA,NA,NA,NA,NA,NA,NA,NA,NA,NA
5beb1,shallow,flow.Sequence,2_15_0,NA,NA,completion,9641.34,249460,249457.2,249473.88,259115.22,259117,2024-05-27T17:31:43Z,259131.9,Abrechnung,uhasibu,d,kusahihisha,mpambano,mashambulizi,NA,NA,NA,"c(""distractor1"", ""distractor2"", ""distractor3"")",NA,NA,NA,NA,NA,NA,NA,NA,NA,NA,NA,NA,NA,NA,NA,NA,NA,NA,NA
5beb1,task,flow.Sequence,2_15,NA,NA,completion,9641.34,249460,249457.2,249473.88,259115.22,259119,2024-05-27T17:31:43Z,259131.9,Abrechnung,uhasibu,d,kusahihisha,mpambano,mashambulizi,NA,NA,NA,"c(""distractor1"", ""distractor2"", ""distractor3"")",NA,NA,NA,NA,NA,NA,NA,NA,NA,NA,NA,NA,NA,NA,NA,NA,NA,NA,NA
5beb1,retrieval block 2 (multiple choice),flow.Loop,2,NA,NA,completion,158097.66,101003,101000.88,101017.56,259115.22,259119,2024-05-27T17:31:43Z,259131.9,NA,NA,NA,NA,NA,NA,NA,NA,NA,"c(""distractor1"", ""distractor2"", ""distractor3"")",NA,NA,NA,NA,NA,NA,NA,NA,NA,NA,NA,NA,NA,NA,NA,NA,NA,NA,NA
5beb1,End,canvas.Screen,3,NA,keypress(Space),response,5704.1,259119,259115.22,259131.9,264836,264852,2024-05-27T17:31:49Z,264853.24,NA,NA,NA,NA,NA,NA,NA,NA,NA,NULL,NA,NA,NA,NA,NA,NA,NA,NA,NA,NA,NA,NA,NA,NA,NA,NA,NA,NA,NA
5beb1,root,flow.Sequence,NA,NA,NA,completion,263784.76,1044,1044.5,1051.24,264836,264853,2024-05-27T17:31:49Z,264853.24,NA,NA,NA,NA,NA,NA,NA,NA,NA,NULL,NA,NA,NA,NA,NA,NA,NA,NA,NA,NA,NA,NA,NA,NA,NA,NA,NA,NA,NA
