observation,sender,sender_type,sender_id,response,response_action,ended_on,duration,time_run,time_render,time_show,time_end,time_commit,timestamp,time_switch,german,swahili,enc,distractor1,distractor2,distractor3,response_2,x,correct,distractors,url_vp,url_sess,meta_labjs_version,meta_location,meta_user_agent,meta_platform,meta_language,meta_locale,meta_time_zone,meta_timezone_offset,meta_screen_width,meta_screen_height,meta_scroll_width,meta_scroll_height,meta_window_inner_width,meta_window_inner_height,meta_device_pixel_ratio,meta_labjs_build_flavor,meta_labjs_build_commit
45017,Introduction delayed retrieval,canvas.Screen,0,weiter,keypress(Space),response,12665.8,801.89999999999,806.8,840.1,13505.9,13511.3,2024-04-17T17:47:18Z,13540.1,NA,NA,NA,NA,NA,NA,NA,NA,NA,NULL,141,4,20.2.4,https://neurocog.fernuni.ch/studies/vweber/aberisha/delayed/index.html?vp=141&sess=4,"Mozilla/5.0 (Macintosh; Intel Mac OS X 10_15_7) AppleWebKit/537.36 (KHTML, like Gecko) Chrome/123.0.0.0 Safari/537.36",MacIntel,en-US,de,Europe/Zurich,-120,1710,1107,1599,801,1599,849,2,production,f5b4a49f956347addd546a832a3327688c2c0fef
45017,Deep Question,html.Page,1_0_0_0,NA,NA,form submission,10642.2,13511.6,13506.4,13540.1,24182.3,24182.8,2024-04-17T17:47:29Z,24206.8,Wechsel,ugeuzaji,s,utambulisho,kujenga,wasiwasi,kudhana,NA,NA,NULL,NA,NA,NA,NA,NA,NA,NA,NA,NA,NA,NA,NA,NA,NA,NA,NA,NA,NA,NA
45017,Save data screen,canvas.Screen,1_0_0_1,NA,NA,timeout,500.1,24184,24173.6,24206.8,24673.6,24674.8,2024-04-17T17:47:29Z,24706.9,Wechsel,ugeuzaji,s,utambulisho,kujenga,wasiwasi,NA,NA,0,NULL,NA,NA,NA,NA,NA,NA,NA,NA,NA,NA,NA,NA,NA,NA,NA,NA,NA,NA,NA
45017,deep,flow.Sequence,1_0_0,NA,NA,completion,11133.5,13511.6,13506.4,13540.1,24673.6,24675.3,2024-04-17T17:47:29Z,24706.9,Wechsel,ugeuzaji,s,utambulisho,kujenga,wasiwasi,NA,NA,NA,NULL,NA,NA,NA,NA,NA,NA,NA,NA,NA,NA,NA,NA,NA,NA,NA,NA,NA,NA,NA
45017,task,flow.Sequence,1_0,NA,NA,completion,11133.5,13511.5,13506.4,13540.1,24673.6,24675.5,2024-04-17T17:47:29Z,24706.9,Wechsel,ugeuzaji,s,utambulisho,kujenga,wasiwasi,NA,NA,NA,NULL,NA,NA,NA,NA,NA,NA,NA,NA,NA,NA,NA,NA,NA,NA,NA,NA,NA,NA,NA
45017,Deep Question,html.Page,1_1_0_0,NA,NA,form submission,17031.9,24675.7,24673.6,24706.9,41738.8,41739.3,2024-04-17T17:47:46Z,41757,Vorwurf,mashtaka,d,msukumo,mtangulizi,uenyekiti,kashtenga,NA,NA,NULL,NA,NA,NA,NA,NA,NA,NA,NA,NA,NA,NA,NA,NA,NA,NA,NA,NA,NA,NA
45017,Save data screen,canvas.Screen,1_1_0_1,NA,NA,timeout,500,41740.8,41740.346,41757,42223.7,42224.6,2024-04-17T17:47:47Z,42257,Vorwurf,mashtaka,d,msukumo,mtangulizi,uenyekiti,NA,NA,0,NULL,NA,NA,NA,NA,NA,NA,NA,NA,NA,NA,NA,NA,NA,NA,NA,NA,NA,NA,NA
45017,deep,flow.Sequence,1_1_0,NA,NA,completion,17516.8,24675.7,24673.6,24706.9,42223.7,42225,2024-04-17T17:47:47Z,42257,Vorwurf,mashtaka,d,msukumo,mtangulizi,uenyekiti,NA,NA,NA,NULL,NA,NA,NA,NA,NA,NA,NA,NA,NA,NA,NA,NA,NA,NA,NA,NA,NA,NA,NA
45017,task,flow.Sequence,1_1,NA,NA,completion,17516.8,24675.6,24673.6,24706.9,42223.7,42225.3,2024-04-17T17:47:47Z,42257,Vorwurf,mashtaka,d,msukumo,mtangulizi,uenyekiti,NA,NA,NA,NULL,NA,NA,NA,NA,NA,NA,NA,NA,NA,NA,NA,NA,NA,NA,NA,NA,NA,NA,NA
45017,Deep Question,html.Page,1_2_0_0,NA,NA,form submission,9364.2,42225.6,42223.7,42257,51621.2,51621.6,2024-04-17T17:47:56Z,51657,Begegnung,kukutana,d,mmasihiya,mpiganaji,husiano,?,NA,NA,NULL,NA,NA,NA,NA,NA,NA,NA,NA,NA,NA,NA,NA,NA,NA,NA,NA,NA,NA,NA
45017,Save data screen,canvas.Screen,1_2_0_1,NA,NA,timeout,500,51622.5,51623.776,51657,52123.7,52124.6,2024-04-17T17:47:57Z,52157,Begegnung,kukutana,d,mmasihiya,mpiganaji,husiano,NA,NA,0,NULL,NA,NA,NA,NA,NA,NA,NA,NA,NA,NA,NA,NA,NA,NA,NA,NA,NA,NA,NA
45017,deep,flow.Sequence,1_2_0,NA,NA,completion,9866.7,42225.5,42223.7,42257,52123.7,52125.1,2024-04-17T17:47:57Z,52157,Begegnung,kukutana,d,mmasihiya,mpiganaji,husiano,NA,NA,NA,NULL,NA,NA,NA,NA,NA,NA,NA,NA,NA,NA,NA,NA,NA,NA,NA,NA,NA,NA,NA
45017,task,flow.Sequence,1_2,NA,NA,completion,9866.7,42225.4,42223.7,42257,52123.7,52125.3,2024-04-17T17:47:57Z,52157,Begegnung,kukutana,d,mmasihiya,mpiganaji,husiano,NA,NA,NA,NULL,NA,NA,NA,NA,NA,NA,NA,NA,NA,NA,NA,NA,NA,NA,NA,NA,NA,NA,NA
45017,Deep Question,html.Page,1_3_0_0,NA,NA,form submission,9853.6,52125.4,52123.7,52157,62010.6,62011,2024-04-17T17:48:07Z,62040.5,Erneuerung,ukarabati,s,ushawishi,ukalifu,unyonyaji,makeha,NA,NA,NULL,NA,NA,NA,NA,NA,NA,NA,NA,NA,NA,NA,NA,NA,NA,NA,NA,NA,NA,NA
45017,Save data screen,canvas.Screen,1_3_0_1,NA,NA,timeout,499.9,62012.2,62007.114,62040.5,62507.1,62507.8,2024-04-17T17:48:07Z,62540.4,Erneuerung,ukarabati,s,ushawishi,ukalifu,unyonyaji,NA,NA,0,NULL,NA,NA,NA,NA,NA,NA,NA,NA,NA,NA,NA,NA,NA,NA,NA,NA,NA,NA,NA
45017,deep,flow.Sequence,1_3_0,NA,NA,completion,10350.1,52125.4,52123.7,52157,62507.1,62508.2,2024-04-17T17:48:07Z,62540.4,Erneuerung,ukarabati,s,ushawishi,ukalifu,unyonyaji,NA,NA,NA,NULL,NA,NA,NA,NA,NA,NA,NA,NA,NA,NA,NA,NA,NA,NA,NA,NA,NA,NA,NA
45017,task,flow.Sequence,1_3,NA,NA,completion,10350.1,52125.4,52123.7,52157,62507.1,62508.4,2024-04-17T17:48:07Z,62540.4,Erneuerung,ukarabati,s,ushawishi,ukalifu,unyonyaji,NA,NA,NA,NULL,NA,NA,NA,NA,NA,NA,NA,NA,NA,NA,NA,NA,NA,NA,NA,NA,NA,NA,NA
45017,Deep Question,html.Page,1_4_0_0,NA,NA,form submission,5717.6,62508.6,62507.1,62540.4,68258,68258.2,2024-04-17T17:48:13Z,68290.4,Genehmigung,idhini,d,mwanamke,itikadi,fedheha,tekeda,NA,NA,NULL,NA,NA,NA,NA,NA,NA,NA,NA,NA,NA,NA,NA,NA,NA,NA,NA,NA,NA,NA
45017,Save data screen,canvas.Screen,1_4_0_1,NA,NA,timeout,500,68260.3,68257.102,68290.4,68757.1,68757.7,2024-04-17T17:48:13Z,68790.4,Genehmigung,idhini,d,mwanamke,itikadi,fedheha,NA,NA,0,NULL,NA,NA,NA,NA,NA,NA,NA,NA,NA,NA,NA,NA,NA,NA,NA,NA,NA,NA,NA
45017,deep,flow.Sequence,1_4_0,NA,NA,completion,6216.7,62508.5,62507.1,62540.4,68757.1,68758.1,2024-04-17T17:48:13Z,68790.4,Genehmigung,idhini,d,mwanamke,itikadi,fedheha,NA,NA,NA,NULL,NA,NA,NA,NA,NA,NA,NA,NA,NA,NA,NA,NA,NA,NA,NA,NA,NA,NA,NA
45017,task,flow.Sequence,1_4,NA,NA,completion,6216.7,62508.4,62507.1,62540.4,68757.1,68758.2,2024-04-17T17:48:13Z,68790.4,Genehmigung,idhini,d,mwanamke,itikadi,fedheha,NA,NA,NA,NULL,NA,NA,NA,NA,NA,NA,NA,NA,NA,NA,NA,NA,NA,NA,NA,NA,NA,NA,NA
45017,Deep Question,html.Page,1_5_0_0,NA,NA,form submission,6837.9,68758.4,68757.1,68790.4,75628.3,75628.6,2024-04-17T17:48:20Z,75657.2,Betrüger,mdanganyifu,d,mwanamuziki,wastani,mahakama,mushinzi,NA,NA,NULL,NA,NA,NA,NA,NA,NA,NA,NA,NA,NA,NA,NA,NA,NA,NA,NA,NA,NA,NA
45017,Save data screen,canvas.Screen,1_5_0_1,NA,NA,timeout,500,75630.8,75623.884,75657.2,76123.8,76124.4,2024-04-17T17:48:21Z,76157.2,Betrüger,mdanganyifu,d,mwanamuziki,wastani,mahakama,NA,NA,0,NULL,NA,NA,NA,NA,NA,NA,NA,NA,NA,NA,NA,NA,NA,NA,NA,NA,NA,NA,NA
45017,deep,flow.Sequence,1_5_0,NA,NA,completion,7333.4,68758.4,68757.1,68790.4,76123.8,76124.7,2024-04-17T17:48:21Z,76157.2,Betrüger,mdanganyifu,d,mwanamuziki,wastani,mahakama,NA,NA,NA,NULL,NA,NA,NA,NA,NA,NA,NA,NA,NA,NA,NA,NA,NA,NA,NA,NA,NA,NA,NA
45017,task,flow.Sequence,1_5,NA,NA,completion,7333.4,68758.3,68757.1,68790.4,76123.8,76124.9,2024-04-17T17:48:21Z,76157.2,Betrüger,mdanganyifu,d,mwanamuziki,wastani,mahakama,NA,NA,NA,NULL,NA,NA,NA,NA,NA,NA,NA,NA,NA,NA,NA,NA,NA,NA,NA,NA,NA,NA,NA
45017,Deep Question,html.Page,1_6_0_0,NA,NA,form submission,4311.8,76125.1,76123.8,76157.2,80469,80469.5,2024-04-17T17:48:25Z,80490.5,Niveau,kiwango,s,usimamizi,mwamali,mshairi,kuwura,NA,NA,NULL,NA,NA,NA,NA,NA,NA,NA,NA,NA,NA,NA,NA,NA,NA,NA,NA,NA,NA,NA
45017,Save data screen,canvas.Screen,1_6_0_1,NA,NA,timeout,500.10000000001,80471.7,80457.2,80490.5,80957.2,80957.9,2024-04-17T17:48:26Z,80990.6,Niveau,kiwango,s,usimamizi,mwamali,mshairi,NA,NA,0,NULL,NA,NA,NA,NA,NA,NA,NA,NA,NA,NA,NA,NA,NA,NA,NA,NA,NA,NA,NA
45017,deep,flow.Sequence,1_6_0,NA,NA,completion,4800,76125,76123.8,76157.2,80957.2,80958.1,2024-04-17T17:48:26Z,80990.6,Niveau,kiwango,s,usimamizi,mwamali,mshairi,NA,NA,NA,NULL,NA,NA,NA,NA,NA,NA,NA,NA,NA,NA,NA,NA,NA,NA,NA,NA,NA,NA,NA
45017,task,flow.Sequence,1_6,NA,NA,completion,4800,76124.9,76123.8,76157.2,80957.2,80958.3,2024-04-17T17:48:26Z,80990.6,Niveau,kiwango,s,usimamizi,mwamali,mshairi,NA,NA,NA,NULL,NA,NA,NA,NA,NA,NA,NA,NA,NA,NA,NA,NA,NA,NA,NA,NA,NA,NA,NA
45017,Deep Question,html.Page,1_7_0_0,NA,NA,form submission,12889.2,80958.5,80957.2,80990.6,93879.8,93880,2024-04-17T17:48:39Z,93907.3,Atmosphäre,angahewa,d,kuteseka,usahihi,kutoamini,angalewa,NA,NA,NULL,NA,NA,NA,NA,NA,NA,NA,NA,NA,NA,NA,NA,NA,NA,NA,NA,NA,NA,NA
45017,Save data screen,canvas.Screen,1_7_0_1,NA,NA,timeout,500,93880.8,93873.962,93907.3,94373.9,94374.5,2024-04-17T17:48:39Z,94407.3,Atmosphäre,angahewa,d,kuteseka,usahihi,kutoamini,NA,NA,0,NULL,NA,NA,NA,NA,NA,NA,NA,NA,NA,NA,NA,NA,NA,NA,NA,NA,NA,NA,NA
45017,deep,flow.Sequence,1_7_0,NA,NA,completion,13383.3,80958.5,80957.2,80990.6,94373.9,94374.9,2024-04-17T17:48:39Z,94407.3,Atmosphäre,angahewa,d,kuteseka,usahihi,kutoamini,NA,NA,NA,NULL,NA,NA,NA,NA,NA,NA,NA,NA,NA,NA,NA,NA,NA,NA,NA,NA,NA,NA,NA
45017,task,flow.Sequence,1_7,NA,NA,completion,13383.3,80958.5,80957.2,80990.6,94373.9,94375,2024-04-17T17:48:39Z,94407.3,Atmosphäre,angahewa,d,kuteseka,usahihi,kutoamini,NA,NA,NA,NULL,NA,NA,NA,NA,NA,NA,NA,NA,NA,NA,NA,NA,NA,NA,NA,NA,NA,NA,NA
45017,Deep Question,html.Page,1_8_0_0,NA,NA,form submission,3050.4,94375.1,94373.9,94407.3,97457.7,97457.9,2024-04-17T17:48:42Z,97490.6,Papier,karatasi,s,uchambuzi,usalama,kukataliwa,nbiti,NA,NA,NULL,NA,NA,NA,NA,NA,NA,NA,NA,NA,NA,NA,NA,NA,NA,NA,NA,NA,NA,NA
45017,Save data screen,canvas.Screen,1_8_0_1,NA,NA,timeout,500.09999999999,97458.4,97457.34,97490.6,97957.3,97958,2024-04-17T17:48:43Z,97990.7,Papier,karatasi,s,uchambuzi,usalama,kukataliwa,NA,NA,0,NULL,NA,NA,NA,NA,NA,NA,NA,NA,NA,NA,NA,NA,NA,NA,NA,NA,NA,NA,NA
45017,deep,flow.Sequence,1_8_0,NA,NA,completion,3550,94375.1,94373.9,94407.3,97957.3,97958.3,2024-04-17T17:48:43Z,97990.7,Papier,karatasi,s,uchambuzi,usalama,kukataliwa,NA,NA,NA,NULL,NA,NA,NA,NA,NA,NA,NA,NA,NA,NA,NA,NA,NA,NA,NA,NA,NA,NA,NA
45017,task,flow.Sequence,1_8,NA,NA,completion,3550,94375.1,94373.9,94407.3,97957.3,97958.5,2024-04-17T17:48:43Z,97990.7,Papier,karatasi,s,uchambuzi,usalama,kukataliwa,NA,NA,NA,NULL,NA,NA,NA,NA,NA,NA,NA,NA,NA,NA,NA,NA,NA,NA,NA,NA,NA,NA,NA
45017,Deep Question,html.Page,1_9_0_0,NA,NA,form submission,12352.3,97958.7,97957.3,97990.7,110343,110343.4,2024-04-17T17:48:55Z,110374,Entwicklung,maendeleo,d,uangavu,mshindwa,badiliko,khutama,NA,NA,NULL,NA,NA,NA,NA,NA,NA,NA,NA,NA,NA,NA,NA,NA,NA,NA,NA,NA,NA,NA
45017,Save data screen,canvas.Screen,1_9_0_1,NA,NA,timeout,500.10000000001,110345.6,110340.744,110374,110840.7,110841.5,2024-04-17T17:48:56Z,110874.1,Entwicklung,maendeleo,d,uangavu,mshindwa,badiliko,NA,NA,0,NULL,NA,NA,NA,NA,NA,NA,NA,NA,NA,NA,NA,NA,NA,NA,NA,NA,NA,NA,NA
45017,deep,flow.Sequence,1_9_0,NA,NA,completion,12850,97958.6,97957.3,97990.7,110840.7,110841.8,2024-04-17T17:48:56Z,110874.1,Entwicklung,maendeleo,d,uangavu,mshindwa,badiliko,NA,NA,NA,NULL,NA,NA,NA,NA,NA,NA,NA,NA,NA,NA,NA,NA,NA,NA,NA,NA,NA,NA,NA
45017,task,flow.Sequence,1_9,NA,NA,completion,12850,97958.6,97957.3,97990.7,110840.7,110842,2024-04-17T17:48:56Z,110874.1,Entwicklung,maendeleo,d,uangavu,mshindwa,badiliko,NA,NA,NA,NULL,NA,NA,NA,NA,NA,NA,NA,NA,NA,NA,NA,NA,NA,NA,NA,NA,NA,NA,NA
45017,Deep Question,html.Page,1_10_0_0,NA,NA,form submission,15257.1,110842.3,110840.7,110874.1,126131.2,126131.6,2024-04-17T17:49:11Z,126157.4,Flexibilität,kubadilika,d,enjini,usikilivu,hesabu,kengena,NA,NA,NULL,NA,NA,NA,NA,NA,NA,NA,NA,NA,NA,NA,NA,NA,NA,NA,NA,NA,NA,NA
45017,Save data screen,canvas.Screen,1_10_0_1,NA,NA,timeout,499.60000000001,126133.8,126124.2,126157.4,126624.1,126624.7,2024-04-17T17:49:11Z,126657,Flexibilität,kubadilika,d,enjini,usikilivu,hesabu,NA,NA,0,NULL,NA,NA,NA,NA,NA,NA,NA,NA,NA,NA,NA,NA,NA,NA,NA,NA,NA,NA,NA
45017,deep,flow.Sequence,1_10_0,NA,NA,completion,15750,110842.3,110840.7,110874.1,126624.1,126625,2024-04-17T17:49:11Z,126657,Flexibilität,kubadilika,d,enjini,usikilivu,hesabu,NA,NA,NA,NULL,NA,NA,NA,NA,NA,NA,NA,NA,NA,NA,NA,NA,NA,NA,NA,NA,NA,NA,NA
45017,task,flow.Sequence,1_10,NA,NA,completion,15750,110842.1,110840.7,110874.1,126624.1,126625.2,2024-04-17T17:49:11Z,126657,Flexibilität,kubadilika,d,enjini,usikilivu,hesabu,NA,NA,NA,NULL,NA,NA,NA,NA,NA,NA,NA,NA,NA,NA,NA,NA,NA,NA,NA,NA,NA,NA,NA
45017,Deep Question,html.Page,1_11_0_0,NA,NA,form submission,4782.5,126625.3,126624.1,126657,131439.5,131440,2024-04-17T17:49:16Z,131457.5,Fleisch,mshakiki,s,kizunguzungu,mshikamano,angusho,mzhuri,NA,NA,NULL,NA,NA,NA,NA,NA,NA,NA,NA,NA,NA,NA,NA,NA,NA,NA,NA,NA,NA,NA
45017,Save data screen,canvas.Screen,1_11_0_1,NA,NA,timeout,500,131442.2,131440.834,131457.5,131924.1,131924.8,2024-04-17T17:49:17Z,131957.5,Fleisch,mshakiki,s,kizunguzungu,mshikamano,angusho,NA,NA,0,NULL,NA,NA,NA,NA,NA,NA,NA,NA,NA,NA,NA,NA,NA,NA,NA,NA,NA,NA,NA
45017,deep,flow.Sequence,1_11_0,NA,NA,completion,5267.1,126625.3,126624.1,126657,131924.1,131925.1,2024-04-17T17:49:17Z,131957.5,Fleisch,mshakiki,s,kizunguzungu,mshikamano,angusho,NA,NA,NA,NULL,NA,NA,NA,NA,NA,NA,NA,NA,NA,NA,NA,NA,NA,NA,NA,NA,NA,NA,NA
45017,task,flow.Sequence,1_11,NA,NA,completion,5267.1,126625.3,126624.1,126657,131924.1,131925.2,2024-04-17T17:49:17Z,131957.5,Fleisch,mshakiki,s,kizunguzungu,mshikamano,angusho,NA,NA,NA,NULL,NA,NA,NA,NA,NA,NA,NA,NA,NA,NA,NA,NA,NA,NA,NA,NA,NA,NA,NA
45017,Deep Question,html.Page,1_12_0_0,NA,NA,form submission,8528.4,131925.4,131924.1,131957.5,140485.9,140486.3,2024-04-17T17:49:25Z,140524.2,Stimmung,kinyongo,d,kilekile,kisambo,madhehebu,kangawena,NA,NA,NULL,NA,NA,NA,NA,NA,NA,NA,NA,NA,NA,NA,NA,NA,NA,NA,NA,NA,NA,NA
45017,Save data screen,canvas.Screen,1_12_0_1,NA,NA,timeout,500,140488.4,140490.9,140524.2,140990.8,140991.5,2024-04-17T17:49:26Z,141024.2,Stimmung,kinyongo,d,kilekile,kisambo,madhehebu,NA,NA,0,NULL,NA,NA,NA,NA,NA,NA,NA,NA,NA,NA,NA,NA,NA,NA,NA,NA,NA,NA,NA
45017,deep,flow.Sequence,1_12_0,NA,NA,completion,9033.3,131925.4,131924.1,131957.5,140990.8,140991.8,2024-04-17T17:49:26Z,141024.2,Stimmung,kinyongo,d,kilekile,kisambo,madhehebu,NA,NA,NA,NULL,NA,NA,NA,NA,NA,NA,NA,NA,NA,NA,NA,NA,NA,NA,NA,NA,NA,NA,NA
45017,task,flow.Sequence,1_12,NA,NA,completion,9033.3,131925.4,131924.1,131957.5,140990.8,140992,2024-04-17T17:49:26Z,141024.2,Stimmung,kinyongo,d,kilekile,kisambo,madhehebu,NA,NA,NA,NULL,NA,NA,NA,NA,NA,NA,NA,NA,NA,NA,NA,NA,NA,NA,NA,NA,NA,NA,NA
45017,Deep Question,html.Page,1_13_0_0,NA,NA,form submission,6334,140992.2,140990.8,141024.2,147358.2,147358.6,2024-04-17T17:49:32Z,147390.9,Orientierung,urekebisho,s,uelekeo,marekebisho,utunzaji,kohili,NA,NA,NULL,NA,NA,NA,NA,NA,NA,NA,NA,NA,NA,NA,NA,NA,NA,NA,NA,NA,NA,NA
45017,Save data screen,canvas.Screen,1_13_0_1,NA,NA,timeout,500,147360.7,147357.6,147390.9,147857.6,147858.2,2024-04-17T17:49:33Z,147890.9,Orientierung,urekebisho,s,uelekeo,marekebisho,utunzaji,NA,NA,0,NULL,NA,NA,NA,NA,NA,NA,NA,NA,NA,NA,NA,NA,NA,NA,NA,NA,NA,NA,NA
45017,deep,flow.Sequence,1_13_0,NA,NA,completion,6833.4,140992.2,140990.8,141024.2,147857.6,147858.6,2024-04-17T17:49:33Z,147890.9,Orientierung,urekebisho,s,uelekeo,marekebisho,utunzaji,NA,NA,NA,NULL,NA,NA,NA,NA,NA,NA,NA,NA,NA,NA,NA,NA,NA,NA,NA,NA,NA,NA,NA
45017,task,flow.Sequence,1_13,NA,NA,completion,6833.4,140992,140990.8,141024.2,147857.6,147858.7,2024-04-17T17:49:33Z,147890.9,Orientierung,urekebisho,s,uelekeo,marekebisho,utunzaji,NA,NA,NA,NULL,NA,NA,NA,NA,NA,NA,NA,NA,NA,NA,NA,NA,NA,NA,NA,NA,NA,NA,NA
45017,Deep Question,html.Page,1_14_0_0,NA,NA,form submission,9923,147858.9,147857.6,147890.9,157813.9,157814.3,2024-04-17T17:49:42Z,157841,Respekt,heshima,s,changamnao,upinzani,ufanisi,ehkwea,NA,NA,NULL,NA,NA,NA,NA,NA,NA,NA,NA,NA,NA,NA,NA,NA,NA,NA,NA,NA,NA,NA
45017,Save data screen,canvas.Screen,1_14_0_1,NA,NA,timeout,500,157816.4,157807.622,157841,158307.7,158308.2,2024-04-17T17:49:43Z,158341,Respekt,heshima,s,changamnao,upinzani,ufanisi,NA,NA,0,NULL,NA,NA,NA,NA,NA,NA,NA,NA,NA,NA,NA,NA,NA,NA,NA,NA,NA,NA,NA
45017,deep,flow.Sequence,1_14_0,NA,NA,completion,10416.8,147858.9,147857.6,147890.9,158307.7,158308.6,2024-04-17T17:49:43Z,158341,Respekt,heshima,s,changamnao,upinzani,ufanisi,NA,NA,NA,NULL,NA,NA,NA,NA,NA,NA,NA,NA,NA,NA,NA,NA,NA,NA,NA,NA,NA,NA,NA
45017,task,flow.Sequence,1_14,NA,NA,completion,10416.8,147858.9,147857.6,147890.9,158307.7,158308.8,2024-04-17T17:49:43Z,158341,Respekt,heshima,s,changamnao,upinzani,ufanisi,NA,NA,NA,NULL,NA,NA,NA,NA,NA,NA,NA,NA,NA,NA,NA,NA,NA,NA,NA,NA,NA,NA,NA
45017,Deep Question,html.Page,1_15_0_0,NA,NA,form submission,3595.8,158308.9,158307.7,158341,161936.8,161937.2,2024-04-17T17:49:47Z,161957.7,Integrität,uadilifu,s,muungano,mtiririko,upunguaji,mushtanga,NA,NA,NULL,NA,NA,NA,NA,NA,NA,NA,NA,NA,NA,NA,NA,NA,NA,NA,NA,NA,NA,NA
45017,Save data screen,canvas.Screen,1_15_0_1,NA,NA,timeout,500,161939.4,161924.352,161957.7,162424.4,162425,2024-04-17T17:49:47Z,162457.7,Integrität,uadilifu,s,muungano,mtiririko,upunguaji,NA,NA,0,NULL,NA,NA,NA,NA,NA,NA,NA,NA,NA,NA,NA,NA,NA,NA,NA,NA,NA,NA,NA
45017,deep,flow.Sequence,1_15_0,NA,NA,completion,4083.4,158308.9,158307.7,158341,162424.4,162425.3,2024-04-17T17:49:47Z,162457.7,Integrität,uadilifu,s,muungano,mtiririko,upunguaji,NA,NA,NA,NULL,NA,NA,NA,NA,NA,NA,NA,NA,NA,NA,NA,NA,NA,NA,NA,NA,NA,NA,NA
45017,task,flow.Sequence,1_15,NA,NA,completion,4083.4,158308.9,158307.7,158341,162424.4,162425.4,2024-04-17T17:49:47Z,162457.7,Integrität,uadilifu,s,muungano,mtiririko,upunguaji,NA,NA,NA,NULL,NA,NA,NA,NA,NA,NA,NA,NA,NA,NA,NA,NA,NA,NA,NA,NA,NA,NA,NA
45017,retrieval block 1 (cued recall),flow.Loop,1,NA,NA,completion,148884.3,13511.5,13506.4,13540.1,162424.4,162425.8,2024-04-17T17:49:47Z,162457.7,NA,NA,NA,NA,NA,NA,NA,NA,NA,NULL,NA,NA,NA,NA,NA,NA,NA,NA,NA,NA,NA,NA,NA,NA,NA,NA,NA,NA,NA
45017,Shallow Question,html.Page,2_0_0_0,NA,NA,form submission,5197.8,162426.1,162424.4,162457.7,167655.5,167655.9,2024-04-17T17:49:52Z,167691,Respekt,heshima,s,changamnao,upinzani,ufanisi,heshima,NA,NA,"c(""distractor1"", ""distractor2"", ""distractor3"")",NA,NA,NA,NA,NA,NA,NA,NA,NA,NA,NA,NA,NA,NA,NA,NA,NA,NA,NA
45017,Save data screen,canvas.Screen,2_0_0_1,NA,NA,timeout,499,167658.1,167657.75,167691,168157.7,168158.3,2024-04-17T17:49:53Z,168190,Respekt,heshima,s,changamnao,upinzani,ufanisi,NA,NA,1,"c(""distractor1"", ""distractor2"", ""distractor3"")",NA,NA,NA,NA,NA,NA,NA,NA,NA,NA,NA,NA,NA,NA,NA,NA,NA,NA,NA
45017,shallow,flow.Sequence,2_0_0,NA,NA,completion,5700,162426.1,162424.4,162457.7,168157.7,168158.7,2024-04-17T17:49:53Z,168190,Respekt,heshima,s,changamnao,upinzani,ufanisi,NA,NA,NA,"c(""distractor1"", ""distractor2"", ""distractor3"")",NA,NA,NA,NA,NA,NA,NA,NA,NA,NA,NA,NA,NA,NA,NA,NA,NA,NA,NA
45017,task,flow.Sequence,2_0,NA,NA,completion,5700,162426,162424.4,162457.7,168157.7,168158.9,2024-04-17T17:49:53Z,168190,Respekt,heshima,s,changamnao,upinzani,ufanisi,NA,NA,NA,"c(""distractor1"", ""distractor2"", ""distractor3"")",NA,NA,NA,NA,NA,NA,NA,NA,NA,NA,NA,NA,NA,NA,NA,NA,NA,NA,NA
45017,Shallow Question,html.Page,2_1_0_0,NA,NA,form submission,5933.4,168159.1,168157.7,168190,174123.4,174123.7,2024-04-17T17:49:59Z,174156.7,Orientierung,urekebisho,s,uelekeo,marekebisho,utunzaji,urekebisho,NA,NA,"c(""distractor1"", ""distractor2"", ""distractor3"")",NA,NA,NA,NA,NA,NA,NA,NA,NA,NA,NA,NA,NA,NA,NA,NA,NA,NA,NA
45017,Save data screen,canvas.Screen,2_1_0_1,NA,NA,timeout,501.09999999998,174126,174124.42,174156.7,174624.3,174625,2024-04-17T17:49:59Z,174657.8,Orientierung,urekebisho,s,uelekeo,marekebisho,utunzaji,NA,NA,1,"c(""distractor1"", ""distractor2"", ""distractor3"")",NA,NA,NA,NA,NA,NA,NA,NA,NA,NA,NA,NA,NA,NA,NA,NA,NA,NA,NA
45017,shallow,flow.Sequence,2_1_0,NA,NA,completion,6434.3,168159,168157.7,168190,174624.3,174625.4,2024-04-17T17:49:59Z,174657.8,Orientierung,urekebisho,s,uelekeo,marekebisho,utunzaji,NA,NA,NA,"c(""distractor1"", ""distractor2"", ""distractor3"")",NA,NA,NA,NA,NA,NA,NA,NA,NA,NA,NA,NA,NA,NA,NA,NA,NA,NA,NA
45017,task,flow.Sequence,2_1,NA,NA,completion,6434.3,168159,168157.7,168190,174624.3,174625.6,2024-04-17T17:49:59Z,174657.8,Orientierung,urekebisho,s,uelekeo,marekebisho,utunzaji,NA,NA,NA,"c(""distractor1"", ""distractor2"", ""distractor3"")",NA,NA,NA,NA,NA,NA,NA,NA,NA,NA,NA,NA,NA,NA,NA,NA,NA,NA,NA
45017,Shallow Question,html.Page,2_2_0_0,NA,NA,form submission,8031.4,174625.7,174624.3,174657.8,182689.2,182689.5,2024-04-17T17:50:07Z,182724.4,Stimmung,kinyongo,d,kilekile,kisambo,madhehebu,kinyongo,NA,NA,"c(""distractor1"", ""distractor2"", ""distractor3"")",NA,NA,NA,NA,NA,NA,NA,NA,NA,NA,NA,NA,NA,NA,NA,NA,NA,NA,NA
45017,Save data screen,canvas.Screen,2_2_0_1,NA,NA,timeout,500,182691.9,182691.154,182724.4,183191.1,183191.7,2024-04-17T17:50:08Z,183224.4,Stimmung,kinyongo,d,kilekile,kisambo,madhehebu,NA,NA,1,"c(""distractor1"", ""distractor2"", ""distractor3"")",NA,NA,NA,NA,NA,NA,NA,NA,NA,NA,NA,NA,NA,NA,NA,NA,NA,NA,NA
45017,shallow,flow.Sequence,2_2_0,NA,NA,completion,8533.3,174625.7,174624.3,174657.8,183191.1,183192,2024-04-17T17:50:08Z,183224.4,Stimmung,kinyongo,d,kilekile,kisambo,madhehebu,NA,NA,NA,"c(""distractor1"", ""distractor2"", ""distractor3"")",NA,NA,NA,NA,NA,NA,NA,NA,NA,NA,NA,NA,NA,NA,NA,NA,NA,NA,NA
45017,task,flow.Sequence,2_2,NA,NA,completion,8533.3,174625.7,174624.3,174657.8,183191.1,183192.2,2024-04-17T17:50:08Z,183224.4,Stimmung,kinyongo,d,kilekile,kisambo,madhehebu,NA,NA,NA,"c(""distractor1"", ""distractor2"", ""distractor3"")",NA,NA,NA,NA,NA,NA,NA,NA,NA,NA,NA,NA,NA,NA,NA,NA,NA,NA,NA
45017,Shallow Question,html.Page,2_3_0_0,NA,NA,form submission,5230.6,183192.4,183191.1,183224.4,188455,188455.3,2024-04-17T17:50:13Z,188491.1,Fleisch,mshakiki,s,kizunguzungu,mshikamano,angusho,mshakiki,NA,NA,"c(""distractor1"", ""distractor2"", ""distractor3"")",NA,NA,NA,NA,NA,NA,NA,NA,NA,NA,NA,NA,NA,NA,NA,NA,NA,NA,NA
45017,Save data screen,canvas.Screen,2_3_0_1,NA,NA,timeout,499.10000000001,188457.4,188457.82,188491.1,188957.8,188958.3,2024-04-17T17:50:14Z,188990.2,Fleisch,mshakiki,s,kizunguzungu,mshikamano,angusho,NA,NA,1,"c(""distractor1"", ""distractor2"", ""distractor3"")",NA,NA,NA,NA,NA,NA,NA,NA,NA,NA,NA,NA,NA,NA,NA,NA,NA,NA,NA
45017,shallow,flow.Sequence,2_3_0,NA,NA,completion,5733.4,183192.4,183191.1,183224.4,188957.8,188958.6,2024-04-17T17:50:14Z,188990.2,Fleisch,mshakiki,s,kizunguzungu,mshikamano,angusho,NA,NA,NA,"c(""distractor1"", ""distractor2"", ""distractor3"")",NA,NA,NA,NA,NA,NA,NA,NA,NA,NA,NA,NA,NA,NA,NA,NA,NA,NA,NA
45017,task,flow.Sequence,2_3,NA,NA,completion,5733.4,183192.3,183191.1,183224.4,188957.8,188958.8,2024-04-17T17:50:14Z,188990.2,Fleisch,mshakiki,s,kizunguzungu,mshikamano,angusho,NA,NA,NA,"c(""distractor1"", ""distractor2"", ""distractor3"")",NA,NA,NA,NA,NA,NA,NA,NA,NA,NA,NA,NA,NA,NA,NA,NA,NA,NA,NA
45017,Shallow Question,html.Page,2_4_0_0,NA,NA,form submission,5265.8,188959,188957.8,188990.2,194256,194256.2,2024-04-17T17:50:19Z,194291.1,Begegnung,kukutana,d,mmasihiya,mpiganaji,husiano,kukutana,NA,NA,"c(""distractor1"", ""distractor2"", ""distractor3"")",NA,NA,NA,NA,NA,NA,NA,NA,NA,NA,NA,NA,NA,NA,NA,NA,NA,NA,NA
45017,Save data screen,canvas.Screen,2_4_0_1,NA,NA,timeout,499,194258.4,194257.886,194291.1,194757.8,194758.4,2024-04-17T17:50:19Z,194790.1,Begegnung,kukutana,d,mmasihiya,mpiganaji,husiano,NA,NA,1,"c(""distractor1"", ""distractor2"", ""distractor3"")",NA,NA,NA,NA,NA,NA,NA,NA,NA,NA,NA,NA,NA,NA,NA,NA,NA,NA,NA
45017,shallow,flow.Sequence,2_4_0,NA,NA,completion,5767.6,188958.9,188957.8,188990.2,194757.8,194758.8,2024-04-17T17:50:19Z,194790.1,Begegnung,kukutana,d,mmasihiya,mpiganaji,husiano,NA,NA,NA,"c(""distractor1"", ""distractor2"", ""distractor3"")",NA,NA,NA,NA,NA,NA,NA,NA,NA,NA,NA,NA,NA,NA,NA,NA,NA,NA,NA
45017,task,flow.Sequence,2_4,NA,NA,completion,5767.6,188958.9,188957.8,188990.2,194757.8,194758.9,2024-04-17T17:50:19Z,194790.1,Begegnung,kukutana,d,mmasihiya,mpiganaji,husiano,NA,NA,NA,"c(""distractor1"", ""distractor2"", ""distractor3"")",NA,NA,NA,NA,NA,NA,NA,NA,NA,NA,NA,NA,NA,NA,NA,NA,NA,NA,NA
45017,Shallow Question,html.Page,2_5_0_0,NA,NA,form submission,5966.7,194759.1,194757.8,194790.1,200756.8,200757.2,2024-04-17T17:50:25Z,200791.2,Integrität,uadilifu,s,muungano,mtiririko,upunguaji,uadilifu,NA,NA,"c(""distractor1"", ""distractor2"", ""distractor3"")",NA,NA,NA,NA,NA,NA,NA,NA,NA,NA,NA,NA,NA,NA,NA,NA,NA,NA,NA
45017,Save data screen,canvas.Screen,2_5_0_1,NA,NA,timeout,499.89999999999,200759.3,200757.9,200791.2,201256.9,201258.9,2024-04-17T17:50:26Z,201291.1,Integrität,uadilifu,s,muungano,mtiririko,upunguaji,NA,NA,1,"c(""distractor1"", ""distractor2"", ""distractor3"")",NA,NA,NA,NA,NA,NA,NA,NA,NA,NA,NA,NA,NA,NA,NA,NA,NA,NA,NA
45017,shallow,flow.Sequence,2_5_0,NA,NA,completion,6466.8,194759,194757.8,194790.1,201256.9,201259.2,2024-04-17T17:50:26Z,201291.1,Integrität,uadilifu,s,muungano,mtiririko,upunguaji,NA,NA,NA,"c(""distractor1"", ""distractor2"", ""distractor3"")",NA,NA,NA,NA,NA,NA,NA,NA,NA,NA,NA,NA,NA,NA,NA,NA,NA,NA,NA
45017,task,flow.Sequence,2_5,NA,NA,completion,6466.8,194759,194757.8,194790.1,201256.9,201259.3,2024-04-17T17:50:26Z,201291.1,Integrität,uadilifu,s,muungano,mtiririko,upunguaji,NA,NA,NA,"c(""distractor1"", ""distractor2"", ""distractor3"")",NA,NA,NA,NA,NA,NA,NA,NA,NA,NA,NA,NA,NA,NA,NA,NA,NA,NA,NA
45017,Shallow Question,html.Page,2_6_0_0,NA,NA,form submission,6382.3,201259.5,201256.9,201291.1,207673.4,207673.7,2024-04-17T17:50:32Z,207691.1,Niveau,kiwango,s,usimamizi,mwamali,mshairi,kiwango,NA,NA,"c(""distractor1"", ""distractor2"", ""distractor3"")",NA,NA,NA,NA,NA,NA,NA,NA,NA,NA,NA,NA,NA,NA,NA,NA,NA,NA,NA
45017,Save data screen,canvas.Screen,2_6_0_1,NA,NA,timeout,500.10000000001,207675.9,207674.624,207691.1,208157.9,208158.5,2024-04-17T17:50:33Z,208191.2,Niveau,kiwango,s,usimamizi,mwamali,mshairi,NA,NA,1,"c(""distractor1"", ""distractor2"", ""distractor3"")",NA,NA,NA,NA,NA,NA,NA,NA,NA,NA,NA,NA,NA,NA,NA,NA,NA,NA,NA
45017,shallow,flow.Sequence,2_6_0,NA,NA,completion,6866.8,201259.5,201256.9,201291.1,208157.9,208158.8,2024-04-17T17:50:33Z,208191.2,Niveau,kiwango,s,usimamizi,mwamali,mshairi,NA,NA,NA,"c(""distractor1"", ""distractor2"", ""distractor3"")",NA,NA,NA,NA,NA,NA,NA,NA,NA,NA,NA,NA,NA,NA,NA,NA,NA,NA,NA
45017,task,flow.Sequence,2_6,NA,NA,completion,6866.8,201259.5,201256.9,201291.1,208157.9,208159.1,2024-04-17T17:50:33Z,208191.2,Niveau,kiwango,s,usimamizi,mwamali,mshairi,NA,NA,NA,"c(""distractor1"", ""distractor2"", ""distractor3"")",NA,NA,NA,NA,NA,NA,NA,NA,NA,NA,NA,NA,NA,NA,NA,NA,NA,NA,NA
45017,Shallow Question,html.Page,2_7_0_0,NA,NA,form submission,8748.6,208159.2,208157.9,208191.2,216939.8,216940.2,2024-04-17T17:50:42Z,216974.6,Erneuerung,ukarabati,s,ushawishi,ukalifu,unyonyaji,ukalifu,NA,NA,"c(""distractor1"", ""distractor2"", ""distractor3"")",NA,NA,NA,NA,NA,NA,NA,NA,NA,NA,NA,NA,NA,NA,NA,NA,NA,NA,NA
45017,Save data screen,canvas.Screen,2_7_0_1,NA,NA,timeout,500,216942.7,216941.286,216974.6,217441.2,217441.9,2024-04-17T17:50:42Z,217474.6,Erneuerung,ukarabati,s,ushawishi,ukalifu,unyonyaji,NA,NA,0,"c(""distractor1"", ""distractor2"", ""distractor3"")",NA,NA,NA,NA,NA,NA,NA,NA,NA,NA,NA,NA,NA,NA,NA,NA,NA,NA,NA
45017,shallow,flow.Sequence,2_7_0,NA,NA,completion,9250,208159.1,208157.9,208191.2,217441.2,217442.2,2024-04-17T17:50:42Z,217474.6,Erneuerung,ukarabati,s,ushawishi,ukalifu,unyonyaji,NA,NA,NA,"c(""distractor1"", ""distractor2"", ""distractor3"")",NA,NA,NA,NA,NA,NA,NA,NA,NA,NA,NA,NA,NA,NA,NA,NA,NA,NA,NA
45017,task,flow.Sequence,2_7,NA,NA,completion,9250,208159.1,208157.9,208191.2,217441.2,217442.4,2024-04-17T17:50:42Z,217474.6,Erneuerung,ukarabati,s,ushawishi,ukalifu,unyonyaji,NA,NA,NA,"c(""distractor1"", ""distractor2"", ""distractor3"")",NA,NA,NA,NA,NA,NA,NA,NA,NA,NA,NA,NA,NA,NA,NA,NA,NA,NA,NA
45017,Shallow Question,html.Page,2_8_0_0,NA,NA,form submission,4181.9,217442.5,217441.2,217474.6,221656.5,221656.9,2024-04-17T17:50:46Z,221673.6,Atmosphäre,angahewa,d,kuteseka,usahihi,kutoamini,angahewa,NA,NA,"c(""distractor1"", ""distractor2"", ""distractor3"")",NA,NA,NA,NA,NA,NA,NA,NA,NA,NA,NA,NA,NA,NA,NA,NA,NA,NA,NA
45017,Save data screen,canvas.Screen,2_8_0_1,NA,NA,timeout,501.10000000001,221659,221658.014,221673.6,222141.3,222142,2024-04-17T17:50:47Z,222174.7,Atmosphäre,angahewa,d,kuteseka,usahihi,kutoamini,NA,NA,1,"c(""distractor1"", ""distractor2"", ""distractor3"")",NA,NA,NA,NA,NA,NA,NA,NA,NA,NA,NA,NA,NA,NA,NA,NA,NA,NA,NA
45017,shallow,flow.Sequence,2_8_0,NA,NA,completion,4666.7,217442.5,217441.2,217474.6,222141.3,222142.2,2024-04-17T17:50:47Z,222174.7,Atmosphäre,angahewa,d,kuteseka,usahihi,kutoamini,NA,NA,NA,"c(""distractor1"", ""distractor2"", ""distractor3"")",NA,NA,NA,NA,NA,NA,NA,NA,NA,NA,NA,NA,NA,NA,NA,NA,NA,NA,NA
45017,task,flow.Sequence,2_8,NA,NA,completion,4666.7,217442.5,217441.2,217474.6,222141.3,222142.4,2024-04-17T17:50:47Z,222174.7,Atmosphäre,angahewa,d,kuteseka,usahihi,kutoamini,NA,NA,NA,"c(""distractor1"", ""distractor2"", ""distractor3"")",NA,NA,NA,NA,NA,NA,NA,NA,NA,NA,NA,NA,NA,NA,NA,NA,NA,NA,NA
45017,Shallow Question,html.Page,2_9_0_0,NA,NA,form submission,5917.2,222142.6,222141.3,222174.7,228091.9,228092.3,2024-04-17T17:50:53Z,228124.7,Betrüger,mdanganyifu,d,mwanamuziki,wastani,mahakama,mwanamuziki,NA,NA,"c(""distractor1"", ""distractor2"", ""distractor3"")",NA,NA,NA,NA,NA,NA,NA,NA,NA,NA,NA,NA,NA,NA,NA,NA,NA,NA,NA
45017,Save data screen,canvas.Screen,2_9_0_1,NA,NA,timeout,499,228094.4,228091.232,228124.7,228591.3,228591.8,2024-04-17T17:50:53Z,228623.7,Betrüger,mdanganyifu,d,mwanamuziki,wastani,mahakama,NA,NA,0,"c(""distractor1"", ""distractor2"", ""distractor3"")",NA,NA,NA,NA,NA,NA,NA,NA,NA,NA,NA,NA,NA,NA,NA,NA,NA,NA,NA
45017,shallow,flow.Sequence,2_9_0,NA,NA,completion,6416.6,222142.6,222141.3,222174.7,228591.3,228592.1,2024-04-17T17:50:53Z,228623.7,Betrüger,mdanganyifu,d,mwanamuziki,wastani,mahakama,NA,NA,NA,"c(""distractor1"", ""distractor2"", ""distractor3"")",NA,NA,NA,NA,NA,NA,NA,NA,NA,NA,NA,NA,NA,NA,NA,NA,NA,NA,NA
45017,task,flow.Sequence,2_9,NA,NA,completion,6416.6,222142.6,222141.3,222174.7,228591.3,228592.2,2024-04-17T17:50:53Z,228623.7,Betrüger,mdanganyifu,d,mwanamuziki,wastani,mahakama,NA,NA,NA,"c(""distractor1"", ""distractor2"", ""distractor3"")",NA,NA,NA,NA,NA,NA,NA,NA,NA,NA,NA,NA,NA,NA,NA,NA,NA,NA,NA
45017,Shallow Question,html.Page,2_10_0_0,NA,NA,form submission,3915.4,228592.3,228591.3,228623.7,232539.1,232539.4,2024-04-17T17:50:57Z,232574.7,Papier,karatasi,s,uchambuzi,usalama,kukataliwa,karatasi,NA,NA,"c(""distractor1"", ""distractor2"", ""distractor3"")",NA,NA,NA,NA,NA,NA,NA,NA,NA,NA,NA,NA,NA,NA,NA,NA,NA,NA,NA
45017,Save data screen,canvas.Screen,2_10_0_1,NA,NA,timeout,499.39999999999,232541.4,232541.422,232574.7,233041.4,233042.2,2024-04-17T17:50:58Z,233074.1,Papier,karatasi,s,uchambuzi,usalama,kukataliwa,NA,NA,1,"c(""distractor1"", ""distractor2"", ""distractor3"")",NA,NA,NA,NA,NA,NA,NA,NA,NA,NA,NA,NA,NA,NA,NA,NA,NA,NA,NA
45017,shallow,flow.Sequence,2_10_0,NA,NA,completion,4417.7,228592.3,228591.3,228623.7,233041.4,233042.6,2024-04-17T17:50:58Z,233074.1,Papier,karatasi,s,uchambuzi,usalama,kukataliwa,NA,NA,NA,"c(""distractor1"", ""distractor2"", ""distractor3"")",NA,NA,NA,NA,NA,NA,NA,NA,NA,NA,NA,NA,NA,NA,NA,NA,NA,NA,NA
45017,task,flow.Sequence,2_10,NA,NA,completion,4417.7,228592.3,228591.3,228623.7,233041.4,233042.7,2024-04-17T17:50:58Z,233074.1,Papier,karatasi,s,uchambuzi,usalama,kukataliwa,NA,NA,NA,"c(""distractor1"", ""distractor2"", ""distractor3"")",NA,NA,NA,NA,NA,NA,NA,NA,NA,NA,NA,NA,NA,NA,NA,NA,NA,NA,NA
45017,Shallow Question,html.Page,2_11_0_0,NA,NA,form submission,5598.8,233042.9,233041.4,233074.1,238672.9,238673.3,2024-04-17T17:51:03Z,238691.4,Genehmigung,idhini,d,mwanamke,itikadi,fedheha,idhini,NA,NA,"c(""distractor1"", ""distractor2"", ""distractor3"")",NA,NA,NA,NA,NA,NA,NA,NA,NA,NA,NA,NA,NA,NA,NA,NA,NA,NA,NA
45017,Save data screen,canvas.Screen,2_11_0_1,NA,NA,timeout,500,238675.5,238674.784,238691.4,239158,239158.8,2024-04-17T17:51:04Z,239191.4,Genehmigung,idhini,d,mwanamke,itikadi,fedheha,NA,NA,1,"c(""distractor1"", ""distractor2"", ""distractor3"")",NA,NA,NA,NA,NA,NA,NA,NA,NA,NA,NA,NA,NA,NA,NA,NA,NA,NA,NA
45017,shallow,flow.Sequence,2_11_0,NA,NA,completion,6083.9,233042.9,233041.4,233074.1,239158,239159.1,2024-04-17T17:51:04Z,239191.4,Genehmigung,idhini,d,mwanamke,itikadi,fedheha,NA,NA,NA,"c(""distractor1"", ""distractor2"", ""distractor3"")",NA,NA,NA,NA,NA,NA,NA,NA,NA,NA,NA,NA,NA,NA,NA,NA,NA,NA,NA
45017,task,flow.Sequence,2_11,NA,NA,completion,6083.9,233042.9,233041.4,233074.1,239158,239159.2,2024-04-17T17:51:04Z,239191.4,Genehmigung,idhini,d,mwanamke,itikadi,fedheha,NA,NA,NA,"c(""distractor1"", ""distractor2"", ""distractor3"")",NA,NA,NA,NA,NA,NA,NA,NA,NA,NA,NA,NA,NA,NA,NA,NA,NA,NA,NA
45017,Shallow Question,html.Page,2_12_0_0,NA,NA,form submission,5431.3,239159.5,239158,239191.4,244622.7,244623.1,2024-04-17T17:51:09Z,244657.1,Vorwurf,mashtaka,d,msukumo,mtangulizi,uenyekiti,mashtaka,NA,NA,"c(""distractor1"", ""distractor2"", ""distractor3"")",NA,NA,NA,NA,NA,NA,NA,NA,NA,NA,NA,NA,NA,NA,NA,NA,NA,NA,NA
45017,Save data screen,canvas.Screen,2_12_0_1,NA,NA,timeout,501,244625.5,244624.79,244657.1,245124.7,245125.5,2024-04-17T17:51:10Z,245158.1,Vorwurf,mashtaka,d,msukumo,mtangulizi,uenyekiti,NA,NA,1,"c(""distractor1"", ""distractor2"", ""distractor3"")",NA,NA,NA,NA,NA,NA,NA,NA,NA,NA,NA,NA,NA,NA,NA,NA,NA,NA,NA
45017,shallow,flow.Sequence,2_12_0,NA,NA,completion,5933.3,239159.4,239158,239191.4,245124.7,245125.8,2024-04-17T17:51:10Z,245158.1,Vorwurf,mashtaka,d,msukumo,mtangulizi,uenyekiti,NA,NA,NA,"c(""distractor1"", ""distractor2"", ""distractor3"")",NA,NA,NA,NA,NA,NA,NA,NA,NA,NA,NA,NA,NA,NA,NA,NA,NA,NA,NA
45017,task,flow.Sequence,2_12,NA,NA,completion,5933.3,239159.4,239158,239191.4,245124.7,245126,2024-04-17T17:51:10Z,245158.1,Vorwurf,mashtaka,d,msukumo,mtangulizi,uenyekiti,NA,NA,NA,"c(""distractor1"", ""distractor2"", ""distractor3"")",NA,NA,NA,NA,NA,NA,NA,NA,NA,NA,NA,NA,NA,NA,NA,NA,NA,NA,NA
45017,Shallow Question,html.Page,2_13_0_0,NA,NA,form submission,7597.3,245126.2,245124.7,245158.1,252755.4,252755.8,2024-04-17T17:51:17Z,252790.5,Flexibilität,kubadilika,d,enjini,usikilivu,hesabu,usikilivu,NA,NA,"c(""distractor1"", ""distractor2"", ""distractor3"")",NA,NA,NA,NA,NA,NA,NA,NA,NA,NA,NA,NA,NA,NA,NA,NA,NA,NA,NA
45017,Save data screen,canvas.Screen,2_13_0_1,NA,NA,timeout,500,252758.5,252758.032,252790.5,253258.1,253258.6,2024-04-17T17:51:18Z,253290.5,Flexibilität,kubadilika,d,enjini,usikilivu,hesabu,NA,NA,0,"c(""distractor1"", ""distractor2"", ""distractor3"")",NA,NA,NA,NA,NA,NA,NA,NA,NA,NA,NA,NA,NA,NA,NA,NA,NA,NA,NA
45017,shallow,flow.Sequence,2_13_0,NA,NA,completion,8100,245126.1,245124.7,245158.1,253258.1,253258.9,2024-04-17T17:51:18Z,253290.5,Flexibilität,kubadilika,d,enjini,usikilivu,hesabu,NA,NA,NA,"c(""distractor1"", ""distractor2"", ""distractor3"")",NA,NA,NA,NA,NA,NA,NA,NA,NA,NA,NA,NA,NA,NA,NA,NA,NA,NA,NA
45017,task,flow.Sequence,2_13,NA,NA,completion,8100,245126.1,245124.7,245158.1,253258.1,253259.1,2024-04-17T17:51:18Z,253290.5,Flexibilität,kubadilika,d,enjini,usikilivu,hesabu,NA,NA,NA,"c(""distractor1"", ""distractor2"", ""distractor3"")",NA,NA,NA,NA,NA,NA,NA,NA,NA,NA,NA,NA,NA,NA,NA,NA,NA,NA,NA
45017,Shallow Question,html.Page,2_14_0_0,NA,NA,form submission,9116.8,253259.2,253258.1,253290.5,262407.3,262407.7,2024-04-17T17:51:27Z,262424.8,Wechsel,ugeuzaji,s,utambulisho,kujenga,wasiwasi,utambulisho,NA,NA,"c(""distractor1"", ""distractor2"", ""distractor3"")",NA,NA,NA,NA,NA,NA,NA,NA,NA,NA,NA,NA,NA,NA,NA,NA,NA,NA,NA
45017,Save data screen,canvas.Screen,2_14_0_1,NA,NA,timeout,499,262409.7,262408.104,262424.8,262891.5,262892.1,2024-04-17T17:51:28Z,262923.8,Wechsel,ugeuzaji,s,utambulisho,kujenga,wasiwasi,NA,NA,0,"c(""distractor1"", ""distractor2"", ""distractor3"")",NA,NA,NA,NA,NA,NA,NA,NA,NA,NA,NA,NA,NA,NA,NA,NA,NA,NA,NA
45017,shallow,flow.Sequence,2_14_0,NA,NA,completion,9601,253259.2,253258.1,253290.5,262891.5,262892.4,2024-04-17T17:51:28Z,262923.8,Wechsel,ugeuzaji,s,utambulisho,kujenga,wasiwasi,NA,NA,NA,"c(""distractor1"", ""distractor2"", ""distractor3"")",NA,NA,NA,NA,NA,NA,NA,NA,NA,NA,NA,NA,NA,NA,NA,NA,NA,NA,NA
45017,task,flow.Sequence,2_14,NA,NA,completion,9601,253259.1,253258.1,253290.5,262891.5,262892.6,2024-04-17T17:51:28Z,262923.8,Wechsel,ugeuzaji,s,utambulisho,kujenga,wasiwasi,NA,NA,NA,"c(""distractor1"", ""distractor2"", ""distractor3"")",NA,NA,NA,NA,NA,NA,NA,NA,NA,NA,NA,NA,NA,NA,NA,NA,NA,NA,NA
45017,Shallow Question,html.Page,2_15_0_0,NA,NA,form submission,4449.9,262892.8,262891.5,262923.8,267373.7,267374,2024-04-17T17:51:32Z,267391.5,Entwicklung,maendeleo,d,uangavu,mshindwa,badiliko,mshindwa,NA,NA,"c(""distractor1"", ""distractor2"", ""distractor3"")",NA,NA,NA,NA,NA,NA,NA,NA,NA,NA,NA,NA,NA,NA,NA,NA,NA,NA,NA
45017,Save data screen,canvas.Screen,2_15_0_1,NA,NA,timeout,500,267376.1,267374.946,267391.5,267858.2,267859,2024-04-17T17:51:33Z,267891.5,Entwicklung,maendeleo,d,uangavu,mshindwa,badiliko,NA,NA,0,"c(""distractor1"", ""distractor2"", ""distractor3"")",NA,NA,NA,NA,NA,NA,NA,NA,NA,NA,NA,NA,NA,NA,NA,NA,NA,NA,NA
45017,shallow,flow.Sequence,2_15_0,NA,NA,completion,4934.4,262892.7,262891.5,262923.8,267858.2,267859.3,2024-04-17T17:51:33Z,267891.5,Entwicklung,maendeleo,d,uangavu,mshindwa,badiliko,NA,NA,NA,"c(""distractor1"", ""distractor2"", ""distractor3"")",NA,NA,NA,NA,NA,NA,NA,NA,NA,NA,NA,NA,NA,NA,NA,NA,NA,NA,NA
45017,task,flow.Sequence,2_15,NA,NA,completion,4934.4,262892.7,262891.5,262923.8,267858.2,267859.5,2024-04-17T17:51:33Z,267891.5,Entwicklung,maendeleo,d,uangavu,mshindwa,badiliko,NA,NA,NA,"c(""distractor1"", ""distractor2"", ""distractor3"")",NA,NA,NA,NA,NA,NA,NA,NA,NA,NA,NA,NA,NA,NA,NA,NA,NA,NA,NA
45017,retrieval block 2 (multiple choice),flow.Loop,2,NA,NA,completion,105400.5,162426,162424.4,162457.7,267858.2,267859.6,2024-04-17T17:51:33Z,267891.5,NA,NA,NA,NA,NA,NA,NA,NA,NA,"c(""distractor1"", ""distractor2"", ""distractor3"")",NA,NA,NA,NA,NA,NA,NA,NA,NA,NA,NA,NA,NA,NA,NA,NA,NA,NA,NA
45017,End,canvas.Screen,3,NA,keypress(Space),response,1362.5,267859.8,267858.2,267891.5,269254,269257.4,2024-04-17T17:51:34Z,269274.9,NA,NA,NA,NA,NA,NA,NA,NA,NA,NULL,NA,NA,NA,NA,NA,NA,NA,NA,NA,NA,NA,NA,NA,NA,NA,NA,NA,NA,NA
45017,root,flow.Sequence,NA,NA,NA,completion,268413.9,801.79999999999,806.8,840.1,269254,269257.9,2024-04-17T17:51:34Z,269274.9,NA,NA,NA,NA,NA,NA,NA,NA,NA,NULL,NA,NA,NA,NA,NA,NA,NA,NA,NA,NA,NA,NA,NA,NA,NA,NA,NA,NA,NA
