observation,sender,sender_type,sender_id,response,response_action,ended_on,duration,time_run,time_render,time_show,time_end,time_commit,timestamp,time_switch,distractors,german,swahili,enc,distractor1,distractor2,distractor3,response_2,x,correct,x_2,url_vp,url_sess,meta_labjs_version,meta_location,meta_user_agent,meta_platform,meta_language,meta_locale,meta_time_zone,meta_timezone_offset,meta_screen_width,meta_screen_height,meta_scroll_width,meta_scroll_height,meta_window_inner_width,meta_window_inner_height,meta_device_pixel_ratio,meta_labjs_build_flavor,meta_labjs_build_commit
50374,Introduction general,canvas.Screen,0,weiter,keypress(q),response,750064.723,155.60000000149,113.645,146.977,750211.7,750223,2023-08-08T11:56:33Z,750233.627,NULL,NA,NA,NA,NA,NA,NA,NA,NA,NA,NA,130,1,20.2.4,https://neurocog.fernuni.ch/studies/vweber/encoding_immediate/index.html?vp=130&sess=1,"Mozilla/5.0 (Macintosh; Intel Mac OS X 10_15_7) AppleWebKit/537.36 (KHTML, like Gecko) Chrome/115.0.0.0 Safari/537.36",MacIntel,de-DE,de,Europe/Zurich,-120,1440,900,1347,654,1347,702,2,production,f5b4a49f956347addd546a832a3327688c2c0fef
50374,Introduction practice,canvas.Screen,1_0,NA,keypress(Space),response,5368.1730000008,750223.2,750216.961,750233.627,755601.8,755604.7,2023-08-08T11:56:38Z,755618.172,NULL,NA,NA,NA,NA,NA,NA,NA,NA,NA,NA,NA,NA,NA,NA,NA,NA,NA,NA,NA,NA,NA,NA,NA,NA,NA,NA,NA,NA,NA
50374,Deep Question,html.Page,1_1_0_0_0,NA,NA,form submission,8061.2280000022,755605.3,755601.506,755618.172,763679.4,763679.8,2023-08-08T11:56:46Z,763685.054,"c(""distractor1"", ""distractor2"", ""distractor3"")",Gesundheit,salama,d,NA,NA,NA,jfskla,NA,NA,NA,NA,NA,NA,NA,NA,NA,NA,NA,NA,NA,NA,NA,NA,NA,NA,NA,NA,NA,NA
50374,"""Richtig""-Screen",canvas.Screen,1_1_0_0_1,NA,NA,skipped,NA,763681.5,NA,NA,763679.4,763681.6,2023-08-08T11:56:46Z,763685.054,"c(""distractor1"", ""distractor2"", ""distractor3"")",Gesundheit,salama,d,NA,NA,NA,NA,NA,NA,NA,NA,NA,NA,NA,NA,NA,NA,NA,NA,NA,NA,NA,NA,NA,NA,NA,NA,NA,NA
50374,"""Falsch""-Screen",canvas.Screen,1_1_0_0_2,NA,NA,timeout,4999.8,763682.5,763668.388,763685.054,768668.188,768675.5,2023-08-08T11:56:51Z,768684.854,"c(""distractor1"", ""distractor2"", ""distractor3"")",Gesundheit,salama,d,NA,NA,NA,NA,NA,0,NA,NA,NA,NA,NA,NA,NA,NA,NA,NA,NA,NA,NA,NA,NA,NA,NA,NA,NA,NA
50374,deep,flow.Sequence,1_1_0_0,NA,NA,completion,13050.016,755605.2,755601.506,755618.172,768668.188,768676.1,2023-08-08T11:56:51Z,768684.854,"c(""distractor1"", ""distractor2"", ""distractor3"")",Gesundheit,salama,d,NA,NA,NA,NA,NA,NA,NA,NA,NA,NA,NA,NA,NA,NA,NA,NA,NA,NA,NA,NA,NA,NA,NA,NA,NA,NA
50374,shallow,flow.Sequence,1_1_0_1,NA,NA,skipped,NA,768676.3,NA,NA,768668.188,768676.5,2023-08-08T11:56:51Z,768684.854,"c(""distractor1"", ""distractor2"", ""distractor3"")",Gesundheit,salama,d,NA,NA,NA,NA,NA,NA,NA,NA,NA,NA,NA,NA,NA,NA,NA,NA,NA,NA,NA,NA,NA,NA,NA,NA,NA,NA
50374,task,flow.Sequence,1_1_0,NA,NA,completion,13050.016,755605.2,755601.506,755618.172,768668.188,768676.7,2023-08-08T11:56:51Z,768684.854,"c(""distractor1"", ""distractor2"", ""distractor3"")",Gesundheit,salama,d,NA,NA,NA,NA,NA,NA,NA,NA,NA,NA,NA,NA,NA,NA,NA,NA,NA,NA,NA,NA,NA,NA,NA,NA,NA,NA
50374,deep,flow.Sequence,1_1_1_0,NA,NA,skipped,NA,768676.9,NA,NA,768668.188,768677.2,2023-08-08T11:56:51Z,768684.854,"c(""distractor1"", ""distractor2"", ""distractor3"")",Kritik,lawama,s,dereva,nafasi,mawazo,NA,NA,NA,NA,NA,NA,NA,NA,NA,NA,NA,NA,NA,NA,NA,NA,NA,NA,NA,NA,NA,NA,NA
50374,Shallow Question,html.Page,1_1_1_1_0,NA,NA,form submission,5575.2460000014,768677.6,768668.188,768684.854,774260.1,774260.7,2023-08-08T11:56:57Z,774268.468,"c(""distractor1"", ""distractor2"", ""distractor3"")",Kritik,lawama,s,dereva,nafasi,mawazo,mawazo,NA,NA,NA,NA,NA,NA,NA,NA,NA,NA,NA,NA,NA,NA,NA,NA,NA,NA,NA,NA,NA,NA
50374,"""Richtig""-Screen",canvas.Screen,1_1_1_1_1,NA,NA,skipped,NA,774263.4,NA,NA,774260.1,774263.5,2023-08-08T11:56:57Z,774268.468,"c(""distractor1"", ""distractor2"", ""distractor3"")",Kritik,lawama,s,dereva,nafasi,mawazo,NA,NA,NA,NA,NA,NA,NA,NA,NA,NA,NA,NA,NA,NA,NA,NA,NA,NA,NA,NA,NA,NA,NA
50374,"""Falsch""-Screen",canvas.Screen,1_1_1_1_2,NA,NA,timeout,4999.8,774265,774251.802,774268.468,779251.602,779256.1,2023-08-08T11:57:02Z,779268.268,"c(""distractor1"", ""distractor2"", ""distractor3"")",Kritik,lawama,s,dereva,nafasi,mawazo,NA,NA,0,NA,NA,NA,NA,NA,NA,NA,NA,NA,NA,NA,NA,NA,NA,NA,NA,NA,NA,NA,NA
50374,shallow,flow.Sequence,1_1_1_1,NA,NA,completion,10566.748,768677.5,768668.188,768684.854,779251.602,779256.6,2023-08-08T11:57:02Z,779268.268,"c(""distractor1"", ""distractor2"", ""distractor3"")",Kritik,lawama,s,dereva,nafasi,mawazo,NA,NA,NA,NA,NA,NA,NA,NA,NA,NA,NA,NA,NA,NA,NA,NA,NA,NA,NA,NA,NA,NA,NA
50374,task,flow.Sequence,1_1_1,NA,NA,completion,10566.748,768676.8,768668.188,768684.854,779251.602,779256.9,2023-08-08T11:57:02Z,779268.268,"c(""distractor1"", ""distractor2"", ""distractor3"")",Kritik,lawama,s,dereva,nafasi,mawazo,NA,NA,NA,NA,NA,NA,NA,NA,NA,NA,NA,NA,NA,NA,NA,NA,NA,NA,NA,NA,NA,NA,NA
50374,Deep Question,html.Page,1_1_2_0_0,NA,NA,form submission,4725.8320000015,779257.2,779251.602,779268.268,783994.1,783994.5,2023-08-08T11:57:07Z,784001.947,"c(""distractor1"", ""distractor2"", ""distractor3"")",Schatten,kivuli,d,NA,NA,NA,sdlfjasdl,NA,NA,NA,NA,NA,NA,NA,NA,NA,NA,NA,NA,NA,NA,NA,NA,NA,NA,NA,NA,NA,NA
50374,"""Richtig""-Screen",canvas.Screen,1_1_2_0_1,NA,NA,skipped,NA,783998.1,NA,NA,783994.1,783998.3,2023-08-08T11:57:07Z,784001.947,"c(""distractor1"", ""distractor2"", ""distractor3"")",Schatten,kivuli,d,NA,NA,NA,NA,NA,NA,NA,NA,NA,NA,NA,NA,NA,NA,NA,NA,NA,NA,NA,NA,NA,NA,NA,NA,NA,NA
50374,"""Falsch""-Screen",canvas.Screen,1_1_2_0_2,NA,NA,timeout,4999.7999999999,783999.5,783985.281,784001.947,788985.081,788988.9,2023-08-08T11:57:12Z,789001.747,"c(""distractor1"", ""distractor2"", ""distractor3"")",Schatten,kivuli,d,NA,NA,NA,NA,NA,0,NA,NA,NA,NA,NA,NA,NA,NA,NA,NA,NA,NA,NA,NA,NA,NA,NA,NA,NA,NA
50374,deep,flow.Sequence,1_1_2_0,NA,NA,completion,9716.813,779257.2,779251.602,779268.268,788985.081,788989.3,2023-08-08T11:57:12Z,789001.747,"c(""distractor1"", ""distractor2"", ""distractor3"")",Schatten,kivuli,d,NA,NA,NA,NA,NA,NA,NA,NA,NA,NA,NA,NA,NA,NA,NA,NA,NA,NA,NA,NA,NA,NA,NA,NA,NA,NA
50374,shallow,flow.Sequence,1_1_2_1,NA,NA,skipped,NA,788989.5,NA,NA,788985.081,788989.7,2023-08-08T11:57:12Z,789001.747,"c(""distractor1"", ""distractor2"", ""distractor3"")",Schatten,kivuli,d,NA,NA,NA,NA,NA,NA,NA,NA,NA,NA,NA,NA,NA,NA,NA,NA,NA,NA,NA,NA,NA,NA,NA,NA,NA,NA
50374,task,flow.Sequence,1_1_2,NA,NA,completion,9716.813,779257.2,779251.602,779268.268,788985.081,788989.9,2023-08-08T11:57:12Z,789001.747,"c(""distractor1"", ""distractor2"", ""distractor3"")",Schatten,kivuli,d,NA,NA,NA,NA,NA,NA,NA,NA,NA,NA,NA,NA,NA,NA,NA,NA,NA,NA,NA,NA,NA,NA,NA,NA,NA,NA
50374,deep,flow.Sequence,1_1_3_0,NA,NA,skipped,NA,788990,NA,NA,788985.081,788990.2,2023-08-08T11:57:12Z,789001.747,"c(""distractor1"", ""distractor2"", ""distractor3"")",Gegenwart,hadhara,s,katiba,jokofu,mikopo,NA,NA,NA,NA,NA,NA,NA,NA,NA,NA,NA,NA,NA,NA,NA,NA,NA,NA,NA,NA,NA,NA,NA
50374,Shallow Question,html.Page,1_1_3_1_0,NA,NA,form submission,4107.8530000015,788990.3,788985.081,789001.747,793109.6,793110,2023-08-08T11:57:16Z,793118.77,"c(""distractor1"", ""distractor2"", ""distractor3"")",Gegenwart,hadhara,s,katiba,jokofu,mikopo,katiba,NA,NA,NA,NA,NA,NA,NA,NA,NA,NA,NA,NA,NA,NA,NA,NA,NA,NA,NA,NA,NA,NA
50374,"""Richtig""-Screen",canvas.Screen,1_1_3_1_1,NA,NA,skipped,NA,793112.9,NA,NA,793109.6,793113,2023-08-08T11:57:16Z,793118.77,"c(""distractor1"", ""distractor2"", ""distractor3"")",Gegenwart,hadhara,s,katiba,jokofu,mikopo,NA,NA,NA,NA,NA,NA,NA,NA,NA,NA,NA,NA,NA,NA,NA,NA,NA,NA,NA,NA,NA,NA,NA
50374,"""Falsch""-Screen",canvas.Screen,1_1_3_1_2,NA,NA,timeout,4999.7999999999,793113.9,793102.104,793118.77,798101.904,798107.3,2023-08-08T11:57:21Z,798118.57,"c(""distractor1"", ""distractor2"", ""distractor3"")",Gegenwart,hadhara,s,katiba,jokofu,mikopo,NA,NA,0,NA,NA,NA,NA,NA,NA,NA,NA,NA,NA,NA,NA,NA,NA,NA,NA,NA,NA,NA,NA
50374,shallow,flow.Sequence,1_1_3_1,NA,NA,completion,9100.157,788990.2,788985.081,789001.747,798101.904,798107.8,2023-08-08T11:57:21Z,798118.57,"c(""distractor1"", ""distractor2"", ""distractor3"")",Gegenwart,hadhara,s,katiba,jokofu,mikopo,NA,NA,NA,NA,NA,NA,NA,NA,NA,NA,NA,NA,NA,NA,NA,NA,NA,NA,NA,NA,NA,NA,NA
50374,task,flow.Sequence,1_1_3,NA,NA,completion,9100.157,788990,788985.081,789001.747,798101.904,798107.9,2023-08-08T11:57:21Z,798118.57,"c(""distractor1"", ""distractor2"", ""distractor3"")",Gegenwart,hadhara,s,katiba,jokofu,mikopo,NA,NA,NA,NA,NA,NA,NA,NA,NA,NA,NA,NA,NA,NA,NA,NA,NA,NA,NA,NA,NA,NA,NA
50374,Deep Question,html.Page,1_1_4_0_0,NA,NA,form submission,4774.7300000008,798108.2,798101.904,798118.57,802893.3,802893.7,2023-08-08T11:57:26Z,802902.235,"c(""distractor1"", ""distractor2"", ""distractor3"")",Qualität,mtindo,d,NA,NA,NA,djasklfjlwe,NA,NA,NA,NA,NA,NA,NA,NA,NA,NA,NA,NA,NA,NA,NA,NA,NA,NA,NA,NA,NA,NA
50374,"""Richtig""-Screen",canvas.Screen,1_1_4_0_1,NA,NA,skipped,NA,802896.8,NA,NA,802893.3,802897.1,2023-08-08T11:57:26Z,802902.235,"c(""distractor1"", ""distractor2"", ""distractor3"")",Qualität,mtindo,d,NA,NA,NA,NA,NA,NA,NA,NA,NA,NA,NA,NA,NA,NA,NA,NA,NA,NA,NA,NA,NA,NA,NA,NA,NA,NA
50374,"""Falsch""-Screen",canvas.Screen,1_1_4_0_2,NA,NA,timeout,4999.8,802898,802885.569,802902.235,807885.369,807890.4,2023-08-08T11:57:31Z,807902.035,"c(""distractor1"", ""distractor2"", ""distractor3"")",Qualität,mtindo,d,NA,NA,NA,NA,NA,0,NA,NA,NA,NA,NA,NA,NA,NA,NA,NA,NA,NA,NA,NA,NA,NA,NA,NA,NA,NA
50374,deep,flow.Sequence,1_1_4_0,NA,NA,completion,9766.799,798108.1,798101.904,798118.57,807885.369,807890.7,2023-08-08T11:57:31Z,807902.035,"c(""distractor1"", ""distractor2"", ""distractor3"")",Qualität,mtindo,d,NA,NA,NA,NA,NA,NA,NA,NA,NA,NA,NA,NA,NA,NA,NA,NA,NA,NA,NA,NA,NA,NA,NA,NA,NA,NA
50374,shallow,flow.Sequence,1_1_4_1,NA,NA,skipped,NA,807890.9,NA,NA,807885.369,807891,2023-08-08T11:57:31Z,807902.035,"c(""distractor1"", ""distractor2"", ""distractor3"")",Qualität,mtindo,d,NA,NA,NA,NA,NA,NA,NA,NA,NA,NA,NA,NA,NA,NA,NA,NA,NA,NA,NA,NA,NA,NA,NA,NA,NA,NA
50374,task,flow.Sequence,1_1_4,NA,NA,completion,9766.799,798108,798101.904,798118.57,807885.369,807891.2,2023-08-08T11:57:31Z,807902.035,"c(""distractor1"", ""distractor2"", ""distractor3"")",Qualität,mtindo,d,NA,NA,NA,NA,NA,NA,NA,NA,NA,NA,NA,NA,NA,NA,NA,NA,NA,NA,NA,NA,NA,NA,NA,NA,NA,NA
50374,deep,flow.Sequence,1_1_5_0,NA,NA,skipped,NA,807891.3,NA,NA,807885.369,807891.3,2023-08-08T11:57:31Z,807902.035,"c(""distractor1"", ""distractor2"", ""distractor3"")",Rückhalt,msaada,s,muhula,auwali,kiwimbe,NA,NA,NA,NA,NA,NA,NA,NA,NA,NA,NA,NA,NA,NA,NA,NA,NA,NA,NA,NA,NA,NA,NA
50374,Shallow Question,html.Page,1_1_5_1_0,NA,NA,form submission,4658.3650000022,807891.5,807885.369,807902.035,812560.4,812560.8,2023-08-08T11:57:35Z,812569.023,"c(""distractor1"", ""distractor2"", ""distractor3"")",Rückhalt,msaada,s,muhula,auwali,kiwimbe,auwali,NA,NA,NA,NA,NA,NA,NA,NA,NA,NA,NA,NA,NA,NA,NA,NA,NA,NA,NA,NA,NA,NA
50374,"""Richtig""-Screen",canvas.Screen,1_1_5_1_1,NA,NA,skipped,NA,812563.7,NA,NA,812560.4,812563.8,2023-08-08T11:57:35Z,812569.023,"c(""distractor1"", ""distractor2"", ""distractor3"")",Rückhalt,msaada,s,muhula,auwali,kiwimbe,NA,NA,NA,NA,NA,NA,NA,NA,NA,NA,NA,NA,NA,NA,NA,NA,NA,NA,NA,NA,NA,NA,NA
50374,"""Falsch""-Screen",canvas.Screen,1_1_5_1_2,NA,NA,timeout,4999.7999999999,812565,812552.357,812569.023,817552.157,817557.2,2023-08-08T11:57:40Z,817568.823,"c(""distractor1"", ""distractor2"", ""distractor3"")",Rückhalt,msaada,s,muhula,auwali,kiwimbe,NA,NA,0,NA,NA,NA,NA,NA,NA,NA,NA,NA,NA,NA,NA,NA,NA,NA,NA,NA,NA,NA,NA
50374,shallow,flow.Sequence,1_1_5_1,NA,NA,completion,9650.122,807891.5,807885.369,807902.035,817552.157,817557.6,2023-08-08T11:57:40Z,817568.823,"c(""distractor1"", ""distractor2"", ""distractor3"")",Rückhalt,msaada,s,muhula,auwali,kiwimbe,NA,NA,NA,NA,NA,NA,NA,NA,NA,NA,NA,NA,NA,NA,NA,NA,NA,NA,NA,NA,NA,NA,NA
50374,task,flow.Sequence,1_1_5,NA,NA,completion,9650.122,807891.2,807885.369,807902.035,817552.157,817557.8,2023-08-08T11:57:40Z,817568.823,"c(""distractor1"", ""distractor2"", ""distractor3"")",Rückhalt,msaada,s,muhula,auwali,kiwimbe,NA,NA,NA,NA,NA,NA,NA,NA,NA,NA,NA,NA,NA,NA,NA,NA,NA,NA,NA,NA,NA,NA,NA
50374,block,flow.Loop,1_1,NA,NA,completion,61933.985,755605.1,755601.506,755618.172,817552.157,817558.1,2023-08-08T11:57:40Z,817568.823,"c(""distractor1"", ""distractor2"", ""distractor3"")",NA,NA,NA,NA,NA,NA,NA,NA,NA,NA,NA,NA,NA,NA,NA,NA,NA,NA,NA,NA,NA,NA,NA,NA,NA,NA,NA,NA,NA
50374,Practice,flow.Sequence,1,NA,NA,completion,67318.53,750223.1,750216.961,750233.627,817552.157,817558.2,2023-08-08T11:57:40Z,817568.823,NULL,NA,NA,NA,NA,NA,NA,NA,NA,NA,NA,NA,NA,NA,NA,NA,NA,NA,NA,NA,NA,NA,NA,NA,NA,NA,NA,NA,NA,NA
50374,Experiment start,canvas.Screen,2,weiter,keypress(q),response,21831.777000002,817558.4,817552.157,817568.823,839400.6,839407.1,2023-08-08T11:58:02Z,839468.301,NULL,NA,NA,NA,NA,NA,NA,NA,NA,NA,NA,NA,NA,NA,NA,NA,NA,NA,NA,NA,NA,NA,NA,NA,NA,NA,NA,NA,NA,NA
50374,deep,flow.Sequence,3_0_0_0_0_0,NA,NA,skipped,NA,839459,NA,NA,839400.6,839459.1,2023-08-08T11:58:02Z,839468.301,NULL,Vergnügen,kichekesho,s,dubwana,mpanuko,mtesaji,NA,sdf,NA,0,NA,NA,NA,NA,NA,NA,NA,NA,NA,NA,NA,NA,NA,NA,NA,NA,NA,NA,NA
50374,Shallow Question,html.Page,3_0_0_0_0_1_0,NA,NA,form submission,9207.8989999993,839459.2,839451.635,839468.301,848676.2,848676.6,2023-08-08T11:58:11Z,848685.569,NULL,Vergnügen,kichekesho,s,dubwana,mpanuko,mtesaji,kichekesho,NA,NA,0,NA,NA,NA,NA,NA,NA,NA,NA,NA,NA,NA,NA,NA,NA,NA,NA,NA,NA,NA
50374,"""Richtig""-Screen",canvas.Screen,3_0_0_0_0_1_1,NA,NA,timeout,5000.4449999999,848679.7,848668.903,848685.569,853669.348,853673.8,2023-08-08T11:58:16Z,853686.014,NULL,Vergnügen,kichekesho,s,dubwana,mpanuko,mtesaji,NA,sdf,1,0,NA,NA,NA,NA,NA,NA,NA,NA,NA,NA,NA,NA,NA,NA,NA,NA,NA,NA,NA
50374,"""Falsch""-Screen",canvas.Screen,3_0_0_0_0_1_2,NA,NA,skipped,NA,853675.7,NA,NA,853669.348,853675.8,2023-08-08T11:58:16Z,853686.014,NULL,Vergnügen,kichekesho,s,dubwana,mpanuko,mtesaji,NA,sdf,NA,0,NA,NA,NA,NA,NA,NA,NA,NA,NA,NA,NA,NA,NA,NA,NA,NA,NA,NA,NA
50374,shallow,flow.Sequence,3_0_0_0_0_1,NA,NA,completion,14201.047,839459.2,839451.635,839468.301,853669.348,853675.9,2023-08-08T11:58:16Z,853686.014,NULL,Vergnügen,kichekesho,s,dubwana,mpanuko,mtesaji,NA,sdf,NA,0,NA,NA,NA,NA,NA,NA,NA,NA,NA,NA,NA,NA,NA,NA,NA,NA,NA,NA,NA
50374,task,flow.Sequence,3_0_0_0_0,NA,NA,completion,14201.047,839459,839451.635,839468.301,853669.348,853676,2023-08-08T11:58:16Z,853686.014,NULL,Vergnügen,kichekesho,s,dubwana,mpanuko,mtesaji,NA,sdf,NA,0,NA,NA,NA,NA,NA,NA,NA,NA,NA,NA,NA,NA,NA,NA,NA,NA,NA,NA,NA
50374,deep,flow.Sequence,3_0_0_0_1_0,NA,NA,skipped,NA,853676.1,NA,NA,853669.348,853676.1,2023-08-08T11:58:16Z,853686.014,NULL,Notfall,dharura,s,rairai,malalamiko,ahueni,NA,sdf,NA,0,NA,NA,NA,NA,NA,NA,NA,NA,NA,NA,NA,NA,NA,NA,NA,NA,NA,NA,NA
50374,Shallow Question,html.Page,3_0_0_0_1_1_0,NA,NA,form submission,7074.3860000023,853676.1,853669.348,853686.014,860760.4,860760.9,2023-08-08T11:58:23Z,860769.064,NULL,Notfall,dharura,s,rairai,malalamiko,ahueni,rairai,NA,NA,0,NA,NA,NA,NA,NA,NA,NA,NA,NA,NA,NA,NA,NA,NA,NA,NA,NA,NA,NA
50374,"""Richtig""-Screen",canvas.Screen,3_0_0_0_1_1_1,NA,NA,skipped,NA,860764.6,NA,NA,860760.4,860764.8,2023-08-08T11:58:23Z,860769.064,NULL,Notfall,dharura,s,rairai,malalamiko,ahueni,NA,sdf,NA,0,NA,NA,NA,NA,NA,NA,NA,NA,NA,NA,NA,NA,NA,NA,NA,NA,NA,NA,NA
50374,"""Falsch""-Screen",canvas.Screen,3_0_0_0_1_1_2,NA,NA,timeout,5000.424,860765.7,860752.398,860769.064,865752.822,865757.6,2023-08-08T11:58:28Z,865769.488,NULL,Notfall,dharura,s,rairai,malalamiko,ahueni,NA,sdf,0,0,NA,NA,NA,NA,NA,NA,NA,NA,NA,NA,NA,NA,NA,NA,NA,NA,NA,NA,NA
50374,shallow,flow.Sequence,3_0_0_0_1_1,NA,NA,completion,12066.808,853676.1,853669.348,853686.014,865752.822,865758,2023-08-08T11:58:28Z,865769.488,NULL,Notfall,dharura,s,rairai,malalamiko,ahueni,NA,sdf,NA,0,NA,NA,NA,NA,NA,NA,NA,NA,NA,NA,NA,NA,NA,NA,NA,NA,NA,NA,NA
50374,task,flow.Sequence,3_0_0_0_1,NA,NA,completion,12066.808,853676.1,853669.348,853686.014,865752.822,865758.2,2023-08-08T11:58:28Z,865769.488,NULL,Notfall,dharura,s,rairai,malalamiko,ahueni,NA,sdf,NA,0,NA,NA,NA,NA,NA,NA,NA,NA,NA,NA,NA,NA,NA,NA,NA,NA,NA,NA,NA
50374,deep,flow.Sequence,3_0_0_0_2_0,NA,NA,skipped,NA,865758.4,NA,NA,865752.822,865758.5,2023-08-08T11:58:28Z,865769.488,NULL,Respekt,heshima,s,changamnao,upinzani,ufanisi,NA,sdf,NA,0,NA,NA,NA,NA,NA,NA,NA,NA,NA,NA,NA,NA,NA,NA,NA,NA,NA,NA,NA
50374,Shallow Question,html.Page,3_0_0_0_2_1_0,NA,NA,form submission,4957.4120000022,865758.6,865752.822,865769.488,870726.9,870727.4,2023-08-08T11:58:33Z,870735.956,NULL,Respekt,heshima,s,changamnao,upinzani,ufanisi,upinzani,NA,NA,0,NA,NA,NA,NA,NA,NA,NA,NA,NA,NA,NA,NA,NA,NA,NA,NA,NA,NA,NA
50374,"""Richtig""-Screen",canvas.Screen,3_0_0_0_2_1_1,NA,NA,skipped,NA,870730.2,NA,NA,870726.9,870730.4,2023-08-08T11:58:33Z,870735.956,NULL,Respekt,heshima,s,changamnao,upinzani,ufanisi,NA,sdf,NA,0,NA,NA,NA,NA,NA,NA,NA,NA,NA,NA,NA,NA,NA,NA,NA,NA,NA,NA,NA
50374,"""Falsch""-Screen",canvas.Screen,3_0_0_0_2_1_2,NA,NA,timeout,5000.3149999999,870731.1,870719.29,870735.956,875719.605,875723.6,2023-08-08T11:58:38Z,875736.271,NULL,Respekt,heshima,s,changamnao,upinzani,ufanisi,NA,sdf,0,0,NA,NA,NA,NA,NA,NA,NA,NA,NA,NA,NA,NA,NA,NA,NA,NA,NA,NA,NA
50374,shallow,flow.Sequence,3_0_0_0_2_1,NA,NA,completion,9950.117,865758.6,865752.822,865769.488,875719.605,875723.9,2023-08-08T11:58:38Z,875736.271,NULL,Respekt,heshima,s,changamnao,upinzani,ufanisi,NA,sdf,NA,0,NA,NA,NA,NA,NA,NA,NA,NA,NA,NA,NA,NA,NA,NA,NA,NA,NA,NA,NA
50374,task,flow.Sequence,3_0_0_0_2,NA,NA,completion,9950.117,865758.3,865752.822,865769.488,875719.605,875724.1,2023-08-08T11:58:38Z,875736.271,NULL,Respekt,heshima,s,changamnao,upinzani,ufanisi,NA,sdf,NA,0,NA,NA,NA,NA,NA,NA,NA,NA,NA,NA,NA,NA,NA,NA,NA,NA,NA,NA,NA
50374,Deep Question,html.Page,3_0_0_0_3_0_0,NA,NA,form submission,4723.8290000015,875724.4,875719.605,875736.271,880460.1,880460.4,2023-08-08T11:58:43Z,880469.415,NULL,Wohlstand,mafanikio,d,NA,NA,NA,jfalsdkf,NA,NA,0,NA,NA,NA,NA,NA,NA,NA,NA,NA,NA,NA,NA,NA,NA,NA,NA,NA,NA,NA
50374,"""Richtig""-Screen",canvas.Screen,3_0_0_0_3_0_1,NA,NA,skipped,NA,880463,NA,NA,880460.1,880463.2,2023-08-08T11:58:43Z,880469.415,NULL,Wohlstand,mafanikio,d,NA,NA,NA,NA,sdf,NA,0,NA,NA,NA,NA,NA,NA,NA,NA,NA,NA,NA,NA,NA,NA,NA,NA,NA,NA,NA
50374,"""Falsch""-Screen",canvas.Screen,3_0_0_0_3_0_2,NA,NA,timeout,5000.3019999999,880464.2,880452.749,880469.415,885453.051,885457.5,2023-08-08T11:58:48Z,885469.717,NULL,Wohlstand,mafanikio,d,NA,NA,NA,NA,sdf,0,0,NA,NA,NA,NA,NA,NA,NA,NA,NA,NA,NA,NA,NA,NA,NA,NA,NA,NA,NA
50374,deep,flow.Sequence,3_0_0_0_3_0,NA,NA,completion,9716.78,875724.3,875719.605,875736.271,885453.051,885457.9,2023-08-08T11:58:48Z,885469.717,NULL,Wohlstand,mafanikio,d,NA,NA,NA,NA,sdf,NA,0,NA,NA,NA,NA,NA,NA,NA,NA,NA,NA,NA,NA,NA,NA,NA,NA,NA,NA,NA
50374,shallow,flow.Sequence,3_0_0_0_3_1,NA,NA,skipped,NA,885458,NA,NA,885453.051,885458.1,2023-08-08T11:58:48Z,885469.717,NULL,Wohlstand,mafanikio,d,NA,NA,NA,NA,sdf,NA,0,NA,NA,NA,NA,NA,NA,NA,NA,NA,NA,NA,NA,NA,NA,NA,NA,NA,NA,NA
50374,task,flow.Sequence,3_0_0_0_3,NA,NA,completion,9716.78,875724.3,875719.605,875736.271,885453.051,885458.4,2023-08-08T11:58:48Z,885469.717,NULL,Wohlstand,mafanikio,d,NA,NA,NA,NA,sdf,NA,0,NA,NA,NA,NA,NA,NA,NA,NA,NA,NA,NA,NA,NA,NA,NA,NA,NA,NA,NA
50374,Deep Question,html.Page,3_0_0_0_4_0_0,NA,NA,form submission,6240.6830000023,885458.5,885453.051,885469.717,891710.4,891710.8,2023-08-08T11:58:54Z,891720.037,NULL,Stimmung,kinyongo,d,NA,NA,NA,msladkf,NA,NA,0,NA,NA,NA,NA,NA,NA,NA,NA,NA,NA,NA,NA,NA,NA,NA,NA,NA,NA,NA
50374,"""Richtig""-Screen",canvas.Screen,3_0_0_0_4_0_1,NA,NA,skipped,NA,891713.5,NA,NA,891710.4,891713.7,2023-08-08T11:58:54Z,891720.037,NULL,Stimmung,kinyongo,d,NA,NA,NA,NA,sdf,NA,0,NA,NA,NA,NA,NA,NA,NA,NA,NA,NA,NA,NA,NA,NA,NA,NA,NA,NA,NA
50374,"""Falsch""-Screen",canvas.Screen,3_0_0_0_4_0_2,NA,NA,timeout,4999.8,891714.2,891703.371,891720.037,896703.171,896706.8,2023-08-08T11:58:59Z,896719.837,NULL,Stimmung,kinyongo,d,NA,NA,NA,NA,sdf,0,0,NA,NA,NA,NA,NA,NA,NA,NA,NA,NA,NA,NA,NA,NA,NA,NA,NA,NA,NA
50374,deep,flow.Sequence,3_0_0_0_4_0,NA,NA,completion,11233.454,885458.5,885453.051,885469.717,896703.171,896707.1,2023-08-08T11:58:59Z,896719.837,NULL,Stimmung,kinyongo,d,NA,NA,NA,NA,sdf,NA,0,NA,NA,NA,NA,NA,NA,NA,NA,NA,NA,NA,NA,NA,NA,NA,NA,NA,NA,NA
50374,shallow,flow.Sequence,3_0_0_0_4_1,NA,NA,skipped,NA,896707.2,NA,NA,896703.171,896707.4,2023-08-08T11:58:59Z,896719.837,NULL,Stimmung,kinyongo,d,NA,NA,NA,NA,sdf,NA,0,NA,NA,NA,NA,NA,NA,NA,NA,NA,NA,NA,NA,NA,NA,NA,NA,NA,NA,NA
50374,task,flow.Sequence,3_0_0_0_4,NA,NA,completion,11233.454,885458.5,885453.051,885469.717,896703.171,896707.4,2023-08-08T11:58:59Z,896719.837,NULL,Stimmung,kinyongo,d,NA,NA,NA,NA,sdf,NA,0,NA,NA,NA,NA,NA,NA,NA,NA,NA,NA,NA,NA,NA,NA,NA,NA,NA,NA,NA
50374,deep,flow.Sequence,3_0_0_0_5_0,NA,NA,skipped,NA,896707.5,NA,NA,896703.171,896707.6,2023-08-08T11:58:59Z,896719.837,NULL,Orientierung,urekebisho,s,uelekeo,marekebisho,utunzaji,NA,sdf,NA,0,NA,NA,NA,NA,NA,NA,NA,NA,NA,NA,NA,NA,NA,NA,NA,NA,NA,NA,NA
50374,Shallow Question,html.Page,3_0_0_0_5_1_0,NA,NA,form submission,6674.5630000022,896707.6,896703.171,896719.837,903394.4,903395,2023-08-08T11:59:06Z,903403.402,NULL,Orientierung,urekebisho,s,uelekeo,marekebisho,utunzaji,urekebisho,NA,NA,0,NA,NA,NA,NA,NA,NA,NA,NA,NA,NA,NA,NA,NA,NA,NA,NA,NA,NA,NA
50374,"""Richtig""-Screen",canvas.Screen,3_0_0_0_5_1_1,NA,NA,timeout,4999.8,903397.5,903386.736,903403.402,908386.536,908390.6,2023-08-08T11:59:11Z,908403.202,NULL,Orientierung,urekebisho,s,uelekeo,marekebisho,utunzaji,NA,sdf,1,0,NA,NA,NA,NA,NA,NA,NA,NA,NA,NA,NA,NA,NA,NA,NA,NA,NA,NA,NA
50374,"""Falsch""-Screen",canvas.Screen,3_0_0_0_5_1_2,NA,NA,skipped,NA,908394.5,NA,NA,908386.536,908394.7,2023-08-08T11:59:11Z,908403.202,NULL,Orientierung,urekebisho,s,uelekeo,marekebisho,utunzaji,NA,sdf,NA,0,NA,NA,NA,NA,NA,NA,NA,NA,NA,NA,NA,NA,NA,NA,NA,NA,NA,NA,NA
50374,shallow,flow.Sequence,3_0_0_0_5_1,NA,NA,completion,11666.699,896707.6,896703.171,896719.837,908386.536,908394.9,2023-08-08T11:59:11Z,908403.202,NULL,Orientierung,urekebisho,s,uelekeo,marekebisho,utunzaji,NA,sdf,NA,0,NA,NA,NA,NA,NA,NA,NA,NA,NA,NA,NA,NA,NA,NA,NA,NA,NA,NA,NA
50374,task,flow.Sequence,3_0_0_0_5,NA,NA,completion,11666.699,896707.4,896703.171,896719.837,908386.536,908395.2,2023-08-08T11:59:11Z,908403.202,NULL,Orientierung,urekebisho,s,uelekeo,marekebisho,utunzaji,NA,sdf,NA,0,NA,NA,NA,NA,NA,NA,NA,NA,NA,NA,NA,NA,NA,NA,NA,NA,NA,NA,NA
50374,Deep Question,html.Page,3_0_0_0_6_0_0,NA,NA,form submission,7990.4979999992,908395.3,908386.536,908403.202,916393.7,916394.2,2023-08-08T11:59:19Z,916403.407,NULL,Betrüger,mdanganyifu,d,NA,NA,NA,fjsldkfn,NA,NA,0,NA,NA,NA,NA,NA,NA,NA,NA,NA,NA,NA,NA,NA,NA,NA,NA,NA,NA,NA
50374,"""Richtig""-Screen",canvas.Screen,3_0_0_0_6_0_1,NA,NA,skipped,NA,916396.8,NA,NA,916393.7,916396.9,2023-08-08T11:59:19Z,916403.407,NULL,Betrüger,mdanganyifu,d,NA,NA,NA,NA,sdf,NA,0,NA,NA,NA,NA,NA,NA,NA,NA,NA,NA,NA,NA,NA,NA,NA,NA,NA,NA,NA
50374,"""Falsch""-Screen",canvas.Screen,3_0_0_0_6_0_2,NA,NA,timeout,4999.8,916397.7,916386.741,916403.407,921386.541,921387.2,2023-08-08T11:59:24Z,921403.207,NULL,Betrüger,mdanganyifu,d,NA,NA,NA,NA,sdf,0,0,NA,NA,NA,NA,NA,NA,NA,NA,NA,NA,NA,NA,NA,NA,NA,NA,NA,NA,NA
50374,deep,flow.Sequence,3_0_0_0_6_0,NA,NA,completion,12983.339,908395.3,908386.536,908403.202,921386.541,921387.3,2023-08-08T11:59:24Z,921403.207,NULL,Betrüger,mdanganyifu,d,NA,NA,NA,NA,sdf,NA,0,NA,NA,NA,NA,NA,NA,NA,NA,NA,NA,NA,NA,NA,NA,NA,NA,NA,NA,NA
50374,shallow,flow.Sequence,3_0_0_0_6_1,NA,NA,skipped,NA,921387.3,NA,NA,921386.541,921387.4,2023-08-08T11:59:24Z,921403.207,NULL,Betrüger,mdanganyifu,d,NA,NA,NA,NA,sdf,NA,0,NA,NA,NA,NA,NA,NA,NA,NA,NA,NA,NA,NA,NA,NA,NA,NA,NA,NA,NA
50374,task,flow.Sequence,3_0_0_0_6,NA,NA,completion,12983.339,908395.3,908386.536,908403.202,921386.541,921387.4,2023-08-08T11:59:24Z,921403.207,NULL,Betrüger,mdanganyifu,d,NA,NA,NA,NA,sdf,NA,0,NA,NA,NA,NA,NA,NA,NA,NA,NA,NA,NA,NA,NA,NA,NA,NA,NA,NA,NA
50374,Deep Question,html.Page,3_0_0_0_7_0_0,NA,NA,form submission,3727.6930000022,921387.4,921386.541,921403.207,925130.9,925131.4,2023-08-08T11:59:28Z,925136.9,NULL,Ergänzung,kijalizo,d,NA,NA,NA,ermfasldf,NA,NA,0,NA,NA,NA,NA,NA,NA,NA,NA,NA,NA,NA,NA,NA,NA,NA,NA,NA,NA,NA
50374,"""Richtig""-Screen",canvas.Screen,3_0_0_0_7_0_1,NA,NA,skipped,NA,925134.1,NA,NA,925130.9,925134.3,2023-08-08T11:59:28Z,925136.9,NULL,Ergänzung,kijalizo,d,NA,NA,NA,NA,sdf,NA,0,NA,NA,NA,NA,NA,NA,NA,NA,NA,NA,NA,NA,NA,NA,NA,NA,NA,NA,NA
50374,"""Falsch""-Screen",canvas.Screen,3_0_0_0_7_0_2,NA,NA,timeout,4999.7999999999,925134.8,925120.234,925136.9,930120.034,930124.9,2023-08-08T11:59:33Z,930136.7,NULL,Ergänzung,kijalizo,d,NA,NA,NA,NA,sdf,0,0,NA,NA,NA,NA,NA,NA,NA,NA,NA,NA,NA,NA,NA,NA,NA,NA,NA,NA,NA
50374,deep,flow.Sequence,3_0_0_0_7_0,NA,NA,completion,8716.8269999999,921387.4,921386.541,921403.207,930120.034,930125.3,2023-08-08T11:59:33Z,930136.7,NULL,Ergänzung,kijalizo,d,NA,NA,NA,NA,sdf,NA,0,NA,NA,NA,NA,NA,NA,NA,NA,NA,NA,NA,NA,NA,NA,NA,NA,NA,NA,NA
50374,shallow,flow.Sequence,3_0_0_0_7_1,NA,NA,skipped,NA,930125.5,NA,NA,930120.034,930125.6,2023-08-08T11:59:33Z,930136.7,NULL,Ergänzung,kijalizo,d,NA,NA,NA,NA,sdf,NA,0,NA,NA,NA,NA,NA,NA,NA,NA,NA,NA,NA,NA,NA,NA,NA,NA,NA,NA,NA
50374,task,flow.Sequence,3_0_0_0_7,NA,NA,completion,8716.8269999999,921387.4,921386.541,921403.207,930120.034,930125.8,2023-08-08T11:59:33Z,930136.7,NULL,Ergänzung,kijalizo,d,NA,NA,NA,NA,sdf,NA,0,NA,NA,NA,NA,NA,NA,NA,NA,NA,NA,NA,NA,NA,NA,NA,NA,NA,NA,NA
50374,block,flow.Loop,3_0_0_0,NA,NA,completion,90651.733,839459,839451.635,839468.301,930120.034,930126,2023-08-08T11:59:33Z,930136.7,NULL,NA,NA,NA,NA,NA,NA,NA,sdf,NA,0,NA,NA,NA,NA,NA,NA,NA,NA,NA,NA,NA,NA,NA,NA,NA,NA,NA,NA,NA
50374,weiter,canvas.Screen,3_0_0_1,sdf,keypress(Space),response,1464.8,930126.1,930120.034,930136.7,931601.5,931606.9,2023-08-08T11:59:34Z,931653.306,NULL,NA,NA,NA,NA,NA,NA,NA,sdf,NA,0,NA,NA,NA,NA,NA,NA,NA,NA,NA,NA,NA,NA,NA,NA,NA,NA,NA,NA,NA
50374,check continue,flow.Sequence,3_0_0,NA,NA,completion,92133.199,839459,839451.635,839468.301,931601.5,931607.2,2023-08-08T11:59:34Z,931653.306,NULL,NA,NA,NA,NA,NA,NA,NA,sdf,NA,0,NA,NA,NA,NA,NA,NA,NA,NA,NA,NA,NA,NA,NA,NA,NA,NA,NA,NA,NA
50374,deep,flow.Sequence,3_0_1_0_0_0,NA,NA,skipped,NA,931632.9,NA,NA,931601.5,931632.9,2023-08-08T11:59:34Z,931653.306,NULL,Respekt,heshima,s,changamnao,upinzani,ufanisi,NA,sdfdsf,NA,1,NA,NA,NA,NA,NA,NA,NA,NA,NA,NA,NA,NA,NA,NA,NA,NA,NA,NA,NA
50374,Shallow Question,html.Page,3_0_1_0_0_1_0,NA,NA,form submission,7374.9940000008,931633,931636.64,931653.306,939028.3,939028.9,2023-08-08T11:59:42Z,939036.877,NULL,Respekt,heshima,s,changamnao,upinzani,ufanisi,heshima,NA,NA,1,NA,NA,NA,NA,NA,NA,NA,NA,NA,NA,NA,NA,NA,NA,NA,NA,NA,NA,NA
50374,"""Richtig""-Screen",canvas.Screen,3_0_1_0_0_1_1,NA,NA,timeout,5000.1830000001,939031.5,939020.211,939036.877,944020.394,944024.5,2023-08-08T11:59:47Z,944037.06,NULL,Respekt,heshima,s,changamnao,upinzani,ufanisi,NA,sdfdsf,1,1,NA,NA,NA,NA,NA,NA,NA,NA,NA,NA,NA,NA,NA,NA,NA,NA,NA,NA,NA
50374,"""Falsch""-Screen",canvas.Screen,3_0_1_0_0_1_2,NA,NA,skipped,NA,944028.2,NA,NA,944020.394,944028.3,2023-08-08T11:59:47Z,944037.06,NULL,Respekt,heshima,s,changamnao,upinzani,ufanisi,NA,sdfdsf,NA,1,NA,NA,NA,NA,NA,NA,NA,NA,NA,NA,NA,NA,NA,NA,NA,NA,NA,NA,NA
50374,shallow,flow.Sequence,3_0_1_0_0_1,NA,NA,completion,12367.088,931633,931636.64,931653.306,944020.394,944028.4,2023-08-08T11:59:47Z,944037.06,NULL,Respekt,heshima,s,changamnao,upinzani,ufanisi,NA,sdfdsf,NA,1,NA,NA,NA,NA,NA,NA,NA,NA,NA,NA,NA,NA,NA,NA,NA,NA,NA,NA,NA
50374,task,flow.Sequence,3_0_1_0_0,NA,NA,completion,12367.088,931632.9,931636.64,931653.306,944020.394,944028.5,2023-08-08T11:59:47Z,944037.06,NULL,Respekt,heshima,s,changamnao,upinzani,ufanisi,NA,sdfdsf,NA,1,NA,NA,NA,NA,NA,NA,NA,NA,NA,NA,NA,NA,NA,NA,NA,NA,NA,NA,NA
50374,deep,flow.Sequence,3_0_1_0_1_0,NA,NA,skipped,NA,944028.6,NA,NA,944020.394,944028.7,2023-08-08T11:59:47Z,944037.06,NULL,Vergnügen,kichekesho,s,dubwana,mpanuko,mtesaji,NA,sdfdsf,NA,1,NA,NA,NA,NA,NA,NA,NA,NA,NA,NA,NA,NA,NA,NA,NA,NA,NA,NA,NA
50374,Shallow Question,html.Page,3_0_1_0_1_1_0,NA,NA,form submission,5507.4399999999,944028.8,944020.394,944037.06,949544.5,949544.9,2023-08-08T11:59:52Z,949553.506,NULL,Vergnügen,kichekesho,s,dubwana,mpanuko,mtesaji,kichekesho,NA,NA,1,NA,NA,NA,NA,NA,NA,NA,NA,NA,NA,NA,NA,NA,NA,NA,NA,NA,NA,NA
50374,"""Richtig""-Screen",canvas.Screen,3_0_1_0_1_1_1,NA,NA,timeout,5000.3419999999,949547.5,949536.84,949553.506,954537.182,954539.6,2023-08-08T11:59:57Z,954553.848,NULL,Vergnügen,kichekesho,s,dubwana,mpanuko,mtesaji,NA,sdfdsf,1,1,NA,NA,NA,NA,NA,NA,NA,NA,NA,NA,NA,NA,NA,NA,NA,NA,NA,NA,NA
50374,"""Falsch""-Screen",canvas.Screen,3_0_1_0_1_1_2,NA,NA,skipped,NA,954544,NA,NA,954537.182,954544.2,2023-08-08T11:59:57Z,954553.848,NULL,Vergnügen,kichekesho,s,dubwana,mpanuko,mtesaji,NA,sdfdsf,NA,1,NA,NA,NA,NA,NA,NA,NA,NA,NA,NA,NA,NA,NA,NA,NA,NA,NA,NA,NA
50374,shallow,flow.Sequence,3_0_1_0_1_1,NA,NA,completion,10500.122,944028.7,944020.394,944037.06,954537.182,954544.4,2023-08-08T11:59:57Z,954553.848,NULL,Vergnügen,kichekesho,s,dubwana,mpanuko,mtesaji,NA,sdfdsf,NA,1,NA,NA,NA,NA,NA,NA,NA,NA,NA,NA,NA,NA,NA,NA,NA,NA,NA,NA,NA
50374,task,flow.Sequence,3_0_1_0_1,NA,NA,completion,10500.122,944028.6,944020.394,944037.06,954537.182,954544.5,2023-08-08T11:59:57Z,954553.848,NULL,Vergnügen,kichekesho,s,dubwana,mpanuko,mtesaji,NA,sdfdsf,NA,1,NA,NA,NA,NA,NA,NA,NA,NA,NA,NA,NA,NA,NA,NA,NA,NA,NA,NA,NA
50374,Deep Question,html.Page,3_0_1_0_2_0_0,NA,NA,form submission,5908.152,954544.6,954537.182,954553.848,960462,960462.4,2023-08-08T12:00:03Z,960470.278,NULL,Ergänzung,kijalizo,d,NA,NA,NA,daklsfjeilw,NA,NA,1,NA,NA,NA,NA,NA,NA,NA,NA,NA,NA,NA,NA,NA,NA,NA,NA,NA,NA,NA
50374,"""Richtig""-Screen",canvas.Screen,3_0_1_0_2_0_1,NA,NA,skipped,NA,960464.9,NA,NA,960462,960465,2023-08-08T12:00:03Z,960470.278,NULL,Ergänzung,kijalizo,d,NA,NA,NA,NA,sdfdsf,NA,1,NA,NA,NA,NA,NA,NA,NA,NA,NA,NA,NA,NA,NA,NA,NA,NA,NA,NA,NA
50374,"""Falsch""-Screen",canvas.Screen,3_0_1_0_2_0_2,NA,NA,timeout,5000.362,960465.7,960453.612,960470.278,965453.974,965458.4,2023-08-08T12:00:08Z,965470.64,NULL,Ergänzung,kijalizo,d,NA,NA,NA,NA,sdfdsf,0,1,NA,NA,NA,NA,NA,NA,NA,NA,NA,NA,NA,NA,NA,NA,NA,NA,NA,NA,NA
50374,deep,flow.Sequence,3_0_1_0_2_0,NA,NA,completion,10900.126,954544.6,954537.182,954553.848,965453.974,965458.8,2023-08-08T12:00:08Z,965470.64,NULL,Ergänzung,kijalizo,d,NA,NA,NA,NA,sdfdsf,NA,1,NA,NA,NA,NA,NA,NA,NA,NA,NA,NA,NA,NA,NA,NA,NA,NA,NA,NA,NA
50374,shallow,flow.Sequence,3_0_1_0_2_1,NA,NA,skipped,NA,965459,NA,NA,965453.974,965459.1,2023-08-08T12:00:08Z,965470.64,NULL,Ergänzung,kijalizo,d,NA,NA,NA,NA,sdfdsf,NA,1,NA,NA,NA,NA,NA,NA,NA,NA,NA,NA,NA,NA,NA,NA,NA,NA,NA,NA,NA
50374,task,flow.Sequence,3_0_1_0_2,NA,NA,completion,10900.126,954544.6,954537.182,954553.848,965453.974,965459.3,2023-08-08T12:00:08Z,965470.64,NULL,Ergänzung,kijalizo,d,NA,NA,NA,NA,sdfdsf,NA,1,NA,NA,NA,NA,NA,NA,NA,NA,NA,NA,NA,NA,NA,NA,NA,NA,NA,NA,NA
50374,Deep Question,html.Page,3_0_1_0_3_0_0,NA,NA,form submission,4356.9600000015,965459.5,965453.974,965470.64,969827.6,969828,2023-08-08T12:00:13Z,969837.132,NULL,Wohlstand,mafanikio,d,NA,NA,NA,smfwlkaek,NA,NA,1,NA,NA,NA,NA,NA,NA,NA,NA,NA,NA,NA,NA,NA,NA,NA,NA,NA,NA,NA
50374,"""Richtig""-Screen",canvas.Screen,3_0_1_0_3_0_1,NA,NA,skipped,NA,969830.4,NA,NA,969827.6,969830.5,2023-08-08T12:00:13Z,969837.132,NULL,Wohlstand,mafanikio,d,NA,NA,NA,NA,sdfdsf,NA,1,NA,NA,NA,NA,NA,NA,NA,NA,NA,NA,NA,NA,NA,NA,NA,NA,NA,NA,NA
50374,"""Falsch""-Screen",canvas.Screen,3_0_1_0_3_0_2,NA,NA,timeout,4999.8,969831.1,969820.466,969837.132,974820.266,974824.7,2023-08-08T12:00:18Z,974836.932,NULL,Wohlstand,mafanikio,d,NA,NA,NA,NA,sdfdsf,0,1,NA,NA,NA,NA,NA,NA,NA,NA,NA,NA,NA,NA,NA,NA,NA,NA,NA,NA,NA
50374,deep,flow.Sequence,3_0_1_0_3_0,NA,NA,completion,9349.6259999999,965459.5,965453.974,965470.64,974820.266,974825.1,2023-08-08T12:00:18Z,974836.932,NULL,Wohlstand,mafanikio,d,NA,NA,NA,NA,sdfdsf,NA,1,NA,NA,NA,NA,NA,NA,NA,NA,NA,NA,NA,NA,NA,NA,NA,NA,NA,NA,NA
50374,shallow,flow.Sequence,3_0_1_0_3_1,NA,NA,skipped,NA,974825.3,NA,NA,974820.266,974825.4,2023-08-08T12:00:18Z,974836.932,NULL,Wohlstand,mafanikio,d,NA,NA,NA,NA,sdfdsf,NA,1,NA,NA,NA,NA,NA,NA,NA,NA,NA,NA,NA,NA,NA,NA,NA,NA,NA,NA,NA
50374,task,flow.Sequence,3_0_1_0_3,NA,NA,completion,9349.6259999999,965459.4,965453.974,965470.64,974820.266,974825.6,2023-08-08T12:00:18Z,974836.932,NULL,Wohlstand,mafanikio,d,NA,NA,NA,NA,sdfdsf,NA,1,NA,NA,NA,NA,NA,NA,NA,NA,NA,NA,NA,NA,NA,NA,NA,NA,NA,NA,NA
50374,deep,flow.Sequence,3_0_1_0_4_0,NA,NA,skipped,NA,974825.7,NA,NA,974820.266,974825.8,2023-08-08T12:00:18Z,974836.932,NULL,Orientierung,urekebisho,s,uelekeo,marekebisho,utunzaji,NA,sdfdsf,NA,1,NA,NA,NA,NA,NA,NA,NA,NA,NA,NA,NA,NA,NA,NA,NA,NA,NA,NA,NA
50374,Shallow Question,html.Page,3_0_1_0_4_1_0,NA,NA,form submission,9975.6680000015,974826,974820.266,974836.932,984812.6,984813,2023-08-08T12:00:28Z,984820.597,NULL,Orientierung,urekebisho,s,uelekeo,marekebisho,utunzaji,urekebisho,NA,NA,1,NA,NA,NA,NA,NA,NA,NA,NA,NA,NA,NA,NA,NA,NA,NA,NA,NA,NA,NA
50374,"""Richtig""-Screen",canvas.Screen,3_0_1_0_4_1_1,NA,NA,timeout,5000.322,984816,984803.931,984820.597,989804.253,989809.2,2023-08-08T12:00:33Z,989820.919,NULL,Orientierung,urekebisho,s,uelekeo,marekebisho,utunzaji,NA,sdfdsf,1,1,NA,NA,NA,NA,NA,NA,NA,NA,NA,NA,NA,NA,NA,NA,NA,NA,NA,NA,NA
50374,"""Falsch""-Screen",canvas.Screen,3_0_1_0_4_1_2,NA,NA,skipped,NA,989813.3,NA,NA,989804.253,989813.4,2023-08-08T12:00:33Z,989820.919,NULL,Orientierung,urekebisho,s,uelekeo,marekebisho,utunzaji,NA,sdfdsf,NA,1,NA,NA,NA,NA,NA,NA,NA,NA,NA,NA,NA,NA,NA,NA,NA,NA,NA,NA,NA
50374,shallow,flow.Sequence,3_0_1_0_4_1,NA,NA,completion,14967.321,974825.9,974820.266,974836.932,989804.253,989813.7,2023-08-08T12:00:33Z,989820.919,NULL,Orientierung,urekebisho,s,uelekeo,marekebisho,utunzaji,NA,sdfdsf,NA,1,NA,NA,NA,NA,NA,NA,NA,NA,NA,NA,NA,NA,NA,NA,NA,NA,NA,NA,NA
50374,task,flow.Sequence,3_0_1_0_4,NA,NA,completion,14967.321,974825.7,974820.266,974836.932,989804.253,989813.8,2023-08-08T12:00:33Z,989820.919,NULL,Orientierung,urekebisho,s,uelekeo,marekebisho,utunzaji,NA,sdfdsf,NA,1,NA,NA,NA,NA,NA,NA,NA,NA,NA,NA,NA,NA,NA,NA,NA,NA,NA,NA,NA
50374,deep,flow.Sequence,3_0_1_0_5_0,NA,NA,skipped,NA,989813.8,NA,NA,989804.253,989813.9,2023-08-08T12:00:33Z,989820.919,NULL,Notfall,dharura,s,rairai,malalamiko,ahueni,NA,sdfdsf,NA,1,NA,NA,NA,NA,NA,NA,NA,NA,NA,NA,NA,NA,NA,NA,NA,NA,NA,NA,NA
50374,Shallow Question,html.Page,3_0_1_0_5_1_0,NA,NA,form submission,7340.8810000008,989814,989804.253,989820.919,997161.8,997162.3,2023-08-08T12:00:40Z,997171.177,NULL,Notfall,dharura,s,rairai,malalamiko,ahueni,dharura,NA,NA,1,NA,NA,NA,NA,NA,NA,NA,NA,NA,NA,NA,NA,NA,NA,NA,NA,NA,NA,NA
50374,"""Richtig""-Screen",canvas.Screen,3_0_1_0_5_1_1,NA,NA,timeout,4999.7999999999,997164.8,997154.511,997171.177,1002154.311,1002158.9,2023-08-08T12:00:45Z,1002170.977,NULL,Notfall,dharura,s,rairai,malalamiko,ahueni,NA,sdfdsf,1,1,NA,NA,NA,NA,NA,NA,NA,NA,NA,NA,NA,NA,NA,NA,NA,NA,NA,NA,NA
50374,"""Falsch""-Screen",canvas.Screen,3_0_1_0_5_1_2,NA,NA,skipped,NA,1002162.4,NA,NA,1002154.311,1002162.5,2023-08-08T12:00:45Z,1002170.977,NULL,Notfall,dharura,s,rairai,malalamiko,ahueni,NA,sdfdsf,NA,1,NA,NA,NA,NA,NA,NA,NA,NA,NA,NA,NA,NA,NA,NA,NA,NA,NA,NA,NA
50374,shallow,flow.Sequence,3_0_1_0_5_1,NA,NA,completion,12333.392,989814,989804.253,989820.919,1002154.311,1002162.7,2023-08-08T12:00:45Z,1002170.977,NULL,Notfall,dharura,s,rairai,malalamiko,ahueni,NA,sdfdsf,NA,1,NA,NA,NA,NA,NA,NA,NA,NA,NA,NA,NA,NA,NA,NA,NA,NA,NA,NA,NA
50374,task,flow.Sequence,3_0_1_0_5,NA,NA,completion,12333.392,989813.8,989804.253,989820.919,1002154.311,1002162.8,2023-08-08T12:00:45Z,1002170.977,NULL,Notfall,dharura,s,rairai,malalamiko,ahueni,NA,sdfdsf,NA,1,NA,NA,NA,NA,NA,NA,NA,NA,NA,NA,NA,NA,NA,NA,NA,NA,NA,NA,NA
50374,Deep Question,html.Page,3_0_1_0_6_0_0,NA,NA,form submission,4224.9230000023,1002162.9,1002154.311,1002170.977,1006395.9,1006396.5,2023-08-08T12:00:49Z,1006404.669,NULL,Betrüger,mdanganyifu,d,NA,NA,NA,mklskflwed,NA,NA,1,NA,NA,NA,NA,NA,NA,NA,NA,NA,NA,NA,NA,NA,NA,NA,NA,NA,NA,NA
50374,"""Richtig""-Screen",canvas.Screen,3_0_1_0_6_0_1,NA,NA,skipped,NA,1006398.8,NA,NA,1006395.9,1006399.1,2023-08-08T12:00:49Z,1006404.669,NULL,Betrüger,mdanganyifu,d,NA,NA,NA,NA,sdfdsf,NA,1,NA,NA,NA,NA,NA,NA,NA,NA,NA,NA,NA,NA,NA,NA,NA,NA,NA,NA,NA
50374,"""Falsch""-Screen",canvas.Screen,3_0_1_0_6_0_2,NA,NA,timeout,4999.8,1006399.6,1006388.003,1006404.669,1011387.803,1011392.2,2023-08-08T12:00:54Z,1011404.469,NULL,Betrüger,mdanganyifu,d,NA,NA,NA,NA,sdfdsf,0,1,NA,NA,NA,NA,NA,NA,NA,NA,NA,NA,NA,NA,NA,NA,NA,NA,NA,NA,NA
50374,deep,flow.Sequence,3_0_1_0_6_0,NA,NA,completion,9216.826,1002162.8,1002154.311,1002170.977,1011387.803,1011392.7,2023-08-08T12:00:54Z,1011404.469,NULL,Betrüger,mdanganyifu,d,NA,NA,NA,NA,sdfdsf,NA,1,NA,NA,NA,NA,NA,NA,NA,NA,NA,NA,NA,NA,NA,NA,NA,NA,NA,NA,NA
50374,shallow,flow.Sequence,3_0_1_0_6_1,NA,NA,skipped,NA,1011392.9,NA,NA,1011387.803,1011393,2023-08-08T12:00:54Z,1011404.469,NULL,Betrüger,mdanganyifu,d,NA,NA,NA,NA,sdfdsf,NA,1,NA,NA,NA,NA,NA,NA,NA,NA,NA,NA,NA,NA,NA,NA,NA,NA,NA,NA,NA
50374,task,flow.Sequence,3_0_1_0_6,NA,NA,completion,9216.826,1002162.8,1002154.311,1002170.977,1011387.803,1011393.1,2023-08-08T12:00:54Z,1011404.469,NULL,Betrüger,mdanganyifu,d,NA,NA,NA,NA,sdfdsf,NA,1,NA,NA,NA,NA,NA,NA,NA,NA,NA,NA,NA,NA,NA,NA,NA,NA,NA,NA,NA
50374,Deep Question,html.Page,3_0_1_0_7_0_0,NA,NA,form submission,7657.8310000007,1011393.3,1011387.803,1011404.469,1019062.3,1019062.8,2023-08-08T12:01:02Z,1019071.323,NULL,Stimmung,kinyongo,d,NA,NA,NA,dalwsefe,NA,NA,1,NA,NA,NA,NA,NA,NA,NA,NA,NA,NA,NA,NA,NA,NA,NA,NA,NA,NA,NA
50374,"""Richtig""-Screen",canvas.Screen,3_0_1_0_7_0_1,NA,NA,skipped,NA,1019065.9,NA,NA,1019062.3,1019066.2,2023-08-08T12:01:02Z,1019071.323,NULL,Stimmung,kinyongo,d,NA,NA,NA,NA,sdfdsf,NA,1,NA,NA,NA,NA,NA,NA,NA,NA,NA,NA,NA,NA,NA,NA,NA,NA,NA,NA,NA
50374,"""Falsch""-Screen",canvas.Screen,3_0_1_0_7_0_2,NA,NA,timeout,4999.8,1019067.4,1019054.657,1019071.323,1024054.457,1024059.6,2023-08-08T12:01:07Z,1024071.123,NULL,Stimmung,kinyongo,d,NA,NA,NA,NA,sdfdsf,0,1,NA,NA,NA,NA,NA,NA,NA,NA,NA,NA,NA,NA,NA,NA,NA,NA,NA,NA,NA
50374,deep,flow.Sequence,3_0_1_0_7_0,NA,NA,completion,12649.988,1011393.2,1011387.803,1011404.469,1024054.457,1024060,2023-08-08T12:01:07Z,1024071.123,NULL,Stimmung,kinyongo,d,NA,NA,NA,NA,sdfdsf,NA,1,NA,NA,NA,NA,NA,NA,NA,NA,NA,NA,NA,NA,NA,NA,NA,NA,NA,NA,NA
50374,shallow,flow.Sequence,3_0_1_0_7_1,NA,NA,skipped,NA,1024060.1,NA,NA,1024054.457,1024060.3,2023-08-08T12:01:07Z,1024071.123,NULL,Stimmung,kinyongo,d,NA,NA,NA,NA,sdfdsf,NA,1,NA,NA,NA,NA,NA,NA,NA,NA,NA,NA,NA,NA,NA,NA,NA,NA,NA,NA,NA
50374,task,flow.Sequence,3_0_1_0_7,NA,NA,completion,12649.988,1011393.2,1011387.803,1011404.469,1024054.457,1024060.4,2023-08-08T12:01:07Z,1024071.123,NULL,Stimmung,kinyongo,d,NA,NA,NA,NA,sdfdsf,NA,1,NA,NA,NA,NA,NA,NA,NA,NA,NA,NA,NA,NA,NA,NA,NA,NA,NA,NA,NA
50374,block,flow.Loop,3_0_1_0,NA,NA,completion,92401.151,931632.9,931636.64,931653.306,1024054.457,1024060.7,2023-08-08T12:01:07Z,1024071.123,NULL,NA,NA,NA,NA,NA,NA,NA,sdfdsf,NA,1,NA,NA,NA,NA,NA,NA,NA,NA,NA,NA,NA,NA,NA,NA,NA,NA,NA,NA,NA
50374,weiter,canvas.Screen,3_0_1_1,sdf,keypress(Space),response,1272.877,1024060.8,1024054.457,1024071.123,1025344,1025349.7,2023-08-08T12:01:08Z,1025371.071,NULL,NA,NA,NA,NA,NA,NA,NA,sdfdsf,NA,1,NA,NA,NA,NA,NA,NA,NA,NA,NA,NA,NA,NA,NA,NA,NA,NA,NA,NA,NA
50374,check continue,flow.Sequence,3_0_1,NA,NA,completion,93690.694,931632.9,931636.64,931653.306,1025344,1025350.1,2023-08-08T12:01:08Z,1025371.071,NULL,NA,NA,NA,NA,NA,NA,NA,sdfdsf,NA,1,NA,NA,NA,NA,NA,NA,NA,NA,NA,NA,NA,NA,NA,NA,NA,NA,NA,NA,NA
50374,Deep Question,html.Page,3_0_2_0_0_0_0,NA,NA,form submission,3941.1289999993,1025377.2,1025337.739,1025371.071,1029312.2,1029312.8,2023-08-08T12:01:12Z,1029321.452,NULL,Ergänzung,kijalizo,d,NA,NA,NA,smfleawefr,NA,NA,2,NA,NA,NA,NA,NA,NA,NA,NA,NA,NA,NA,NA,NA,NA,NA,NA,NA,NA,NA
50374,"""Richtig""-Screen",canvas.Screen,3_0_2_0_0_0_1,NA,NA,skipped,NA,1029315.8,NA,NA,1029312.2,1029316,2023-08-08T12:01:12Z,1029321.452,NULL,Ergänzung,kijalizo,d,NA,NA,NA,NA,sdf,NA,2,NA,NA,NA,NA,NA,NA,NA,NA,NA,NA,NA,NA,NA,NA,NA,NA,NA,NA,NA
50374,"""Falsch""-Screen",canvas.Screen,3_0_2_0_0_0_2,NA,NA,timeout,4999.7999999999,1029316.7,1029304.786,1029321.452,1034304.586,1034309.6,2023-08-08T12:01:17Z,1034321.252,NULL,Ergänzung,kijalizo,d,NA,NA,NA,NA,sdf,0,2,NA,NA,NA,NA,NA,NA,NA,NA,NA,NA,NA,NA,NA,NA,NA,NA,NA,NA,NA
50374,deep,flow.Sequence,3_0_2_0_0_0,NA,NA,completion,8933.515,1025377.2,1025337.739,1025371.071,1034304.586,1034310.1,2023-08-08T12:01:17Z,1034321.252,NULL,Ergänzung,kijalizo,d,NA,NA,NA,NA,sdf,NA,2,NA,NA,NA,NA,NA,NA,NA,NA,NA,NA,NA,NA,NA,NA,NA,NA,NA,NA,NA
50374,shallow,flow.Sequence,3_0_2_0_0_1,NA,NA,skipped,NA,1034310.3,NA,NA,1034304.586,1034310.4,2023-08-08T12:01:17Z,1034321.252,NULL,Ergänzung,kijalizo,d,NA,NA,NA,NA,sdf,NA,2,NA,NA,NA,NA,NA,NA,NA,NA,NA,NA,NA,NA,NA,NA,NA,NA,NA,NA,NA
50374,task,flow.Sequence,3_0_2_0_0,NA,NA,completion,8933.515,1025377.2,1025337.739,1025371.071,1034304.586,1034310.5,2023-08-08T12:01:17Z,1034321.252,NULL,Ergänzung,kijalizo,d,NA,NA,NA,NA,sdf,NA,2,NA,NA,NA,NA,NA,NA,NA,NA,NA,NA,NA,NA,NA,NA,NA,NA,NA,NA,NA
50374,Deep Question,html.Page,3_0_2_0_1_0_0,NA,NA,form submission,4983.6480000023,1034310.7,1034304.586,1034321.252,1039304.9,1039305.5,2023-08-08T12:01:22Z,1039304.914,NULL,Stimmung,kinyongo,d,NA,NA,NA,kizioso,NA,NA,2,NA,NA,NA,NA,NA,NA,NA,NA,NA,NA,NA,NA,NA,NA,NA,NA,NA,NA,NA
50374,"""Richtig""-Screen",canvas.Screen,3_0_2_0_1_0_1,NA,NA,skipped,NA,1039308.3,NA,NA,1039304.9,1039308.6,2023-08-08T12:01:22Z,1039304.914,NULL,Stimmung,kinyongo,d,NA,NA,NA,NA,sdf,NA,2,NA,NA,NA,NA,NA,NA,NA,NA,NA,NA,NA,NA,NA,NA,NA,NA,NA,NA,NA
50374,"""Falsch""-Screen",canvas.Screen,3_0_2_0_1_0_2,NA,NA,timeout,4999.8,1039309.7,1039288.248,1039304.914,1044288.048,1044293.3,2023-08-08T12:01:27Z,1044304.714,NULL,Stimmung,kinyongo,d,NA,NA,NA,NA,sdf,0,2,NA,NA,NA,NA,NA,NA,NA,NA,NA,NA,NA,NA,NA,NA,NA,NA,NA,NA,NA
50374,deep,flow.Sequence,3_0_2_0_1_0,NA,NA,completion,9966.796,1034310.7,1034304.586,1034321.252,1044288.048,1044293.7,2023-08-08T12:01:27Z,1044304.714,NULL,Stimmung,kinyongo,d,NA,NA,NA,NA,sdf,NA,2,NA,NA,NA,NA,NA,NA,NA,NA,NA,NA,NA,NA,NA,NA,NA,NA,NA,NA,NA
50374,shallow,flow.Sequence,3_0_2_0_1_1,NA,NA,skipped,NA,1044293.9,NA,NA,1044288.048,1044294,2023-08-08T12:01:27Z,1044304.714,NULL,Stimmung,kinyongo,d,NA,NA,NA,NA,sdf,NA,2,NA,NA,NA,NA,NA,NA,NA,NA,NA,NA,NA,NA,NA,NA,NA,NA,NA,NA,NA
50374,task,flow.Sequence,3_0_2_0_1,NA,NA,completion,9966.796,1034310.6,1034304.586,1034321.252,1044288.048,1044294.2,2023-08-08T12:01:27Z,1044304.714,NULL,Stimmung,kinyongo,d,NA,NA,NA,NA,sdf,NA,2,NA,NA,NA,NA,NA,NA,NA,NA,NA,NA,NA,NA,NA,NA,NA,NA,NA,NA,NA
50374,deep,flow.Sequence,3_0_2_0_2_0,NA,NA,skipped,NA,1044294.4,NA,NA,1044288.048,1044294.5,2023-08-08T12:01:27Z,1044304.714,NULL,Vergnügen,kichekesho,s,dubwana,mpanuko,mtesaji,NA,sdf,NA,2,NA,NA,NA,NA,NA,NA,NA,NA,NA,NA,NA,NA,NA,NA,NA,NA,NA,NA,NA
50374,Shallow Question,html.Page,3_0_2_0_2_1_0,NA,NA,form submission,5424.5860000007,1044294.7,1044288.048,1044304.714,1049729.3,1049729.7,2023-08-08T12:01:32Z,1049738.325,NULL,Vergnügen,kichekesho,s,dubwana,mpanuko,mtesaji,kichekesho,NA,NA,2,NA,NA,NA,NA,NA,NA,NA,NA,NA,NA,NA,NA,NA,NA,NA,NA,NA,NA,NA
50374,"""Richtig""-Screen",canvas.Screen,3_0_2_0_2_1_1,NA,NA,timeout,4999.8,1049732.4,1049721.659,1049738.325,1054721.459,1054725.3,2023-08-08T12:01:37Z,1054738.125,NULL,Vergnügen,kichekesho,s,dubwana,mpanuko,mtesaji,NA,sdf,1,2,NA,NA,NA,NA,NA,NA,NA,NA,NA,NA,NA,NA,NA,NA,NA,NA,NA,NA,NA
50374,"""Falsch""-Screen",canvas.Screen,3_0_2_0_2_1_2,NA,NA,skipped,NA,1054728.8,NA,NA,1054721.459,1054729,2023-08-08T12:01:37Z,1054738.125,NULL,Vergnügen,kichekesho,s,dubwana,mpanuko,mtesaji,NA,sdf,NA,2,NA,NA,NA,NA,NA,NA,NA,NA,NA,NA,NA,NA,NA,NA,NA,NA,NA,NA,NA
50374,shallow,flow.Sequence,3_0_2_0_2_1,NA,NA,completion,10416.745,1044294.6,1044288.048,1044304.714,1054721.459,1054729.2,2023-08-08T12:01:37Z,1054738.125,NULL,Vergnügen,kichekesho,s,dubwana,mpanuko,mtesaji,NA,sdf,NA,2,NA,NA,NA,NA,NA,NA,NA,NA,NA,NA,NA,NA,NA,NA,NA,NA,NA,NA,NA
50374,task,flow.Sequence,3_0_2_0_2,NA,NA,completion,10416.745,1044294.4,1044288.048,1044304.714,1054721.459,1054729.4,2023-08-08T12:01:37Z,1054738.125,NULL,Vergnügen,kichekesho,s,dubwana,mpanuko,mtesaji,NA,sdf,NA,2,NA,NA,NA,NA,NA,NA,NA,NA,NA,NA,NA,NA,NA,NA,NA,NA,NA,NA,NA
50374,Deep Question,html.Page,3_0_2_0_3_0_0,NA,NA,form submission,3641.4750000015,1054729.5,1054721.459,1054738.125,1058379.6,1058380,2023-08-08T12:01:41Z,1058388.531,NULL,Wohlstand,mafanikio,d,NA,NA,NA,sfeawe,NA,NA,2,NA,NA,NA,NA,NA,NA,NA,NA,NA,NA,NA,NA,NA,NA,NA,NA,NA,NA,NA
50374,"""Richtig""-Screen",canvas.Screen,3_0_2_0_3_0_1,NA,NA,skipped,NA,1058382.6,NA,NA,1058379.6,1058382.8,2023-08-08T12:01:41Z,1058388.531,NULL,Wohlstand,mafanikio,d,NA,NA,NA,NA,sdf,NA,2,NA,NA,NA,NA,NA,NA,NA,NA,NA,NA,NA,NA,NA,NA,NA,NA,NA,NA,NA
50374,"""Falsch""-Screen",canvas.Screen,3_0_2_0_3_0_2,NA,NA,timeout,4999.8,1058383.4,1058371.865,1058388.531,1063371.665,1063372.9,2023-08-08T12:01:46Z,1063388.331,NULL,Wohlstand,mafanikio,d,NA,NA,NA,NA,sdf,0,2,NA,NA,NA,NA,NA,NA,NA,NA,NA,NA,NA,NA,NA,NA,NA,NA,NA,NA,NA
50374,deep,flow.Sequence,3_0_2_0_3_0,NA,NA,completion,8633.54,1054729.5,1054721.459,1054738.125,1063371.665,1063373.2,2023-08-08T12:01:46Z,1063388.331,NULL,Wohlstand,mafanikio,d,NA,NA,NA,NA,sdf,NA,2,NA,NA,NA,NA,NA,NA,NA,NA,NA,NA,NA,NA,NA,NA,NA,NA,NA,NA,NA
50374,shallow,flow.Sequence,3_0_2_0_3_1,NA,NA,skipped,NA,1063373.3,NA,NA,1063371.665,1063373.5,2023-08-08T12:01:46Z,1063388.331,NULL,Wohlstand,mafanikio,d,NA,NA,NA,NA,sdf,NA,2,NA,NA,NA,NA,NA,NA,NA,NA,NA,NA,NA,NA,NA,NA,NA,NA,NA,NA,NA
50374,task,flow.Sequence,3_0_2_0_3,NA,NA,completion,8633.54,1054729.4,1054721.459,1054738.125,1063371.665,1063373.5,2023-08-08T12:01:46Z,1063388.331,NULL,Wohlstand,mafanikio,d,NA,NA,NA,NA,sdf,NA,2,NA,NA,NA,NA,NA,NA,NA,NA,NA,NA,NA,NA,NA,NA,NA,NA,NA,NA,NA
50374,deep,flow.Sequence,3_0_2_0_4_0,NA,NA,skipped,NA,1063373.6,NA,NA,1063371.665,1063373.7,2023-08-08T12:01:46Z,1063388.331,NULL,Orientierung,urekebisho,s,uelekeo,marekebisho,utunzaji,NA,sdf,NA,2,NA,NA,NA,NA,NA,NA,NA,NA,NA,NA,NA,NA,NA,NA,NA,NA,NA,NA,NA
50374,Shallow Question,html.Page,3_0_2_0_4_1_0,NA,NA,form submission,6057.9690000007,1063373.8,1063371.665,1063388.331,1069446.3,1069446.7,2023-08-08T12:01:52Z,1069455.162,NULL,Orientierung,urekebisho,s,uelekeo,marekebisho,utunzaji,urekebisho,NA,NA,2,NA,NA,NA,NA,NA,NA,NA,NA,NA,NA,NA,NA,NA,NA,NA,NA,NA,NA,NA
50374,"""Richtig""-Screen",canvas.Screen,3_0_2_0_4_1_1,NA,NA,timeout,4999.8,1069450.8,1069438.496,1069455.162,1074438.296,1074443.3,2023-08-08T12:01:57Z,1074454.962,NULL,Orientierung,urekebisho,s,uelekeo,marekebisho,utunzaji,NA,sdf,1,2,NA,NA,NA,NA,NA,NA,NA,NA,NA,NA,NA,NA,NA,NA,NA,NA,NA,NA,NA
50374,"""Falsch""-Screen",canvas.Screen,3_0_2_0_4_1_2,NA,NA,skipped,NA,1074447.7,NA,NA,1074438.296,1074447.9,2023-08-08T12:01:57Z,1074454.962,NULL,Orientierung,urekebisho,s,uelekeo,marekebisho,utunzaji,NA,sdf,NA,2,NA,NA,NA,NA,NA,NA,NA,NA,NA,NA,NA,NA,NA,NA,NA,NA,NA,NA,NA
50374,shallow,flow.Sequence,3_0_2_0_4_1,NA,NA,completion,11049.965,1063373.8,1063371.665,1063388.331,1074438.296,1074448.2,2023-08-08T12:01:57Z,1074454.962,NULL,Orientierung,urekebisho,s,uelekeo,marekebisho,utunzaji,NA,sdf,NA,2,NA,NA,NA,NA,NA,NA,NA,NA,NA,NA,NA,NA,NA,NA,NA,NA,NA,NA,NA
50374,task,flow.Sequence,3_0_2_0_4,NA,NA,completion,11049.965,1063373.6,1063371.665,1063388.331,1074438.296,1074448.2,2023-08-08T12:01:57Z,1074454.962,NULL,Orientierung,urekebisho,s,uelekeo,marekebisho,utunzaji,NA,sdf,NA,2,NA,NA,NA,NA,NA,NA,NA,NA,NA,NA,NA,NA,NA,NA,NA,NA,NA,NA,NA
50374,deep,flow.Sequence,3_0_2_0_5_0,NA,NA,skipped,NA,1074448.4,NA,NA,1074438.296,1074448.5,2023-08-08T12:01:57Z,1074454.962,NULL,Notfall,dharura,s,rairai,malalamiko,ahueni,NA,sdf,NA,2,NA,NA,NA,NA,NA,NA,NA,NA,NA,NA,NA,NA,NA,NA,NA,NA,NA,NA,NA
50374,Shallow Question,html.Page,3_0_2_0_5_1_0,NA,NA,form submission,8857.1380000014,1074448.6,1074438.296,1074454.962,1083312.1,1083312.4,2023-08-08T12:02:06Z,1083321.895,NULL,Notfall,dharura,s,rairai,malalamiko,ahueni,dharura,NA,NA,2,NA,NA,NA,NA,NA,NA,NA,NA,NA,NA,NA,NA,NA,NA,NA,NA,NA,NA,NA
50374,"""Richtig""-Screen",canvas.Screen,3_0_2_0_5_1_1,NA,NA,timeout,5000.1340000001,1083315,1083305.229,1083321.895,1088305.363,1088309.4,2023-08-08T12:02:11Z,1088322.029,NULL,Notfall,dharura,s,rairai,malalamiko,ahueni,NA,sdf,1,2,NA,NA,NA,NA,NA,NA,NA,NA,NA,NA,NA,NA,NA,NA,NA,NA,NA,NA,NA
50374,"""Falsch""-Screen",canvas.Screen,3_0_2_0_5_1_2,NA,NA,skipped,NA,1088313.6,NA,NA,1088305.363,1088313.7,2023-08-08T12:02:11Z,1088322.029,NULL,Notfall,dharura,s,rairai,malalamiko,ahueni,NA,sdf,NA,2,NA,NA,NA,NA,NA,NA,NA,NA,NA,NA,NA,NA,NA,NA,NA,NA,NA,NA,NA
50374,shallow,flow.Sequence,3_0_2_0_5_1,NA,NA,completion,13850.401,1074448.6,1074438.296,1074454.962,1088305.363,1088314,2023-08-08T12:02:11Z,1088322.029,NULL,Notfall,dharura,s,rairai,malalamiko,ahueni,NA,sdf,NA,2,NA,NA,NA,NA,NA,NA,NA,NA,NA,NA,NA,NA,NA,NA,NA,NA,NA,NA,NA
50374,task,flow.Sequence,3_0_2_0_5,NA,NA,completion,13850.401,1074448.4,1074438.296,1074454.962,1088305.363,1088314.1,2023-08-08T12:02:11Z,1088322.029,NULL,Notfall,dharura,s,rairai,malalamiko,ahueni,NA,sdf,NA,2,NA,NA,NA,NA,NA,NA,NA,NA,NA,NA,NA,NA,NA,NA,NA,NA,NA,NA,NA
50374,Deep Question,html.Page,3_0_2_0_6_0_0,NA,NA,form submission,3474.3710000021,1088314.1,1088305.363,1088322.029,1091796.4,1091796.9,2023-08-08T12:02:15Z,1091805.223,NULL,Betrüger,mdanganyifu,d,NA,NA,NA,asfew,NA,NA,2,NA,NA,NA,NA,NA,NA,NA,NA,NA,NA,NA,NA,NA,NA,NA,NA,NA,NA,NA
50374,"""Richtig""-Screen",canvas.Screen,3_0_2_0_6_0_1,NA,NA,skipped,NA,1091799.4,NA,NA,1091796.4,1091799.6,2023-08-08T12:02:15Z,1091805.223,NULL,Betrüger,mdanganyifu,d,NA,NA,NA,NA,sdf,NA,2,NA,NA,NA,NA,NA,NA,NA,NA,NA,NA,NA,NA,NA,NA,NA,NA,NA,NA,NA
50374,"""Falsch""-Screen",canvas.Screen,3_0_2_0_6_0_2,NA,NA,timeout,4999.8,1091800.1,1091788.557,1091805.223,1096788.357,1096792.2,2023-08-08T12:02:20Z,1096805.023,NULL,Betrüger,mdanganyifu,d,NA,NA,NA,NA,sdf,0,2,NA,NA,NA,NA,NA,NA,NA,NA,NA,NA,NA,NA,NA,NA,NA,NA,NA,NA,NA
50374,deep,flow.Sequence,3_0_2_0_6_0,NA,NA,completion,8466.328,1088314.1,1088305.363,1088322.029,1096788.357,1096792.6,2023-08-08T12:02:20Z,1096805.023,NULL,Betrüger,mdanganyifu,d,NA,NA,NA,NA,sdf,NA,2,NA,NA,NA,NA,NA,NA,NA,NA,NA,NA,NA,NA,NA,NA,NA,NA,NA,NA,NA
50374,shallow,flow.Sequence,3_0_2_0_6_1,NA,NA,skipped,NA,1096792.7,NA,NA,1096788.357,1096792.8,2023-08-08T12:02:20Z,1096805.023,NULL,Betrüger,mdanganyifu,d,NA,NA,NA,NA,sdf,NA,2,NA,NA,NA,NA,NA,NA,NA,NA,NA,NA,NA,NA,NA,NA,NA,NA,NA,NA,NA
50374,task,flow.Sequence,3_0_2_0_6,NA,NA,completion,8466.328,1088314.1,1088305.363,1088322.029,1096788.357,1096793,2023-08-08T12:02:20Z,1096805.023,NULL,Betrüger,mdanganyifu,d,NA,NA,NA,NA,sdf,NA,2,NA,NA,NA,NA,NA,NA,NA,NA,NA,NA,NA,NA,NA,NA,NA,NA,NA,NA,NA
50374,deep,flow.Sequence,3_0_2_0_7_0,NA,NA,skipped,NA,1096793.2,NA,NA,1096788.357,1096793.3,2023-08-08T12:02:20Z,1096805.023,NULL,Respekt,heshima,s,changamnao,upinzani,ufanisi,NA,sdf,NA,2,NA,NA,NA,NA,NA,NA,NA,NA,NA,NA,NA,NA,NA,NA,NA,NA,NA,NA,NA
50374,Shallow Question,html.Page,3_0_2_0_7_1_0,NA,NA,form submission,5308.1769999992,1096793.3,1096788.357,1096805.023,1102113.2,1102113.7,2023-08-08T12:02:25Z,1102122.237,NULL,Respekt,heshima,s,changamnao,upinzani,ufanisi,heshima,NA,NA,2,NA,NA,NA,NA,NA,NA,NA,NA,NA,NA,NA,NA,NA,NA,NA,NA,NA,NA,NA
50374,"""Richtig""-Screen",canvas.Screen,3_0_2_0_7_1_1,NA,NA,timeout,4999.8,1102116.7,1102105.571,1102122.237,1107105.371,1107109.5,2023-08-08T12:02:30Z,1107122.037,NULL,Respekt,heshima,s,changamnao,upinzani,ufanisi,NA,sdf,1,2,NA,NA,NA,NA,NA,NA,NA,NA,NA,NA,NA,NA,NA,NA,NA,NA,NA,NA,NA
50374,"""Falsch""-Screen",canvas.Screen,3_0_2_0_7_1_2,NA,NA,skipped,NA,1107113.4,NA,NA,1107105.371,1107113.4,2023-08-08T12:02:30Z,1107122.037,NULL,Respekt,heshima,s,changamnao,upinzani,ufanisi,NA,sdf,NA,2,NA,NA,NA,NA,NA,NA,NA,NA,NA,NA,NA,NA,NA,NA,NA,NA,NA,NA,NA
50374,shallow,flow.Sequence,3_0_2_0_7_1,NA,NA,completion,10300.348,1096793.3,1096788.357,1096805.023,1107105.371,1107113.6,2023-08-08T12:02:30Z,1107122.037,NULL,Respekt,heshima,s,changamnao,upinzani,ufanisi,NA,sdf,NA,2,NA,NA,NA,NA,NA,NA,NA,NA,NA,NA,NA,NA,NA,NA,NA,NA,NA,NA,NA
50374,task,flow.Sequence,3_0_2_0_7,NA,NA,completion,10300.348,1096793.1,1096788.357,1096805.023,1107105.371,1107113.7,2023-08-08T12:02:30Z,1107122.037,NULL,Respekt,heshima,s,changamnao,upinzani,ufanisi,NA,sdf,NA,2,NA,NA,NA,NA,NA,NA,NA,NA,NA,NA,NA,NA,NA,NA,NA,NA,NA,NA,NA
50374,block,flow.Loop,3_0_2_0,NA,NA,completion,81734.3,1025377.1,1025337.739,1025371.071,1107105.371,1107113.8,2023-08-08T12:02:30Z,1107122.037,NULL,NA,NA,NA,NA,NA,NA,NA,sdf,NA,2,NA,NA,NA,NA,NA,NA,NA,NA,NA,NA,NA,NA,NA,NA,NA,NA,NA,NA,NA
50374,weiter,canvas.Screen,3_0_2_1,sdf,keypress(Space),response,1026.6629999992,1107113.9,1107105.371,1107122.037,1108148.7,1108152.3,2023-08-08T12:02:31Z,1108171.995,NULL,NA,NA,NA,NA,NA,NA,NA,sdf,NA,2,NA,NA,NA,NA,NA,NA,NA,NA,NA,NA,NA,NA,NA,NA,NA,NA,NA,NA,NA
50374,check continue,flow.Sequence,3_0_2,NA,NA,completion,82777.628999999,1025377.1,1025337.739,1025371.071,1108148.7,1108152.5,2023-08-08T12:02:31Z,1108171.995,NULL,NA,NA,NA,NA,NA,NA,NA,sdf,NA,2,NA,NA,NA,NA,NA,NA,NA,NA,NA,NA,NA,NA,NA,NA,NA,NA,NA,NA,NA
50374,deep,flow.Sequence,3_0_3_0_0_0,NA,NA,skipped,NA,1108179.2,NA,NA,1108148.7,1108179.3,2023-08-08T12:02:31Z,1108171.995,NULL,Notfall,dharura,s,rairai,malalamiko,ahueni,NA,qt,NA,3,NA,NA,NA,NA,NA,NA,NA,NA,NA,NA,NA,NA,NA,NA,NA,NA,NA,NA,NA
50374,Shallow Question,html.Page,3_0_3_0_0_1_0,NA,NA,form submission,5491.6050000014,1108179.4,1108138.663,1108171.995,1113663.6,1113664,2023-08-08T12:02:36Z,1113672.287,NULL,Notfall,dharura,s,rairai,malalamiko,ahueni,dharura,NA,NA,3,NA,NA,NA,NA,NA,NA,NA,NA,NA,NA,NA,NA,NA,NA,NA,NA,NA,NA,NA
50374,"""Richtig""-Screen",canvas.Screen,3_0_3_0_0_1_1,NA,NA,timeout,4999.8,1113666.5,1113655.621,1113672.287,1118655.421,1118660.4,2023-08-08T12:02:41Z,1118672.087,NULL,Notfall,dharura,s,rairai,malalamiko,ahueni,NA,qt,1,3,NA,NA,NA,NA,NA,NA,NA,NA,NA,NA,NA,NA,NA,NA,NA,NA,NA,NA,NA
50374,"""Falsch""-Screen",canvas.Screen,3_0_3_0_0_1_2,NA,NA,skipped,NA,1118663.9,NA,NA,1118655.421,1118664,2023-08-08T12:02:41Z,1118672.087,NULL,Notfall,dharura,s,rairai,malalamiko,ahueni,NA,qt,NA,3,NA,NA,NA,NA,NA,NA,NA,NA,NA,NA,NA,NA,NA,NA,NA,NA,NA,NA,NA
50374,shallow,flow.Sequence,3_0_3_0_0_1,NA,NA,completion,10483.426,1108179.4,1108138.663,1108171.995,1118655.421,1118664.2,2023-08-08T12:02:41Z,1118672.087,NULL,Notfall,dharura,s,rairai,malalamiko,ahueni,NA,qt,NA,3,NA,NA,NA,NA,NA,NA,NA,NA,NA,NA,NA,NA,NA,NA,NA,NA,NA,NA,NA
50374,task,flow.Sequence,3_0_3_0_0,NA,NA,completion,10483.426,1108179.2,1108138.663,1108171.995,1118655.421,1118664.3,2023-08-08T12:02:41Z,1118672.087,NULL,Notfall,dharura,s,rairai,malalamiko,ahueni,NA,qt,NA,3,NA,NA,NA,NA,NA,NA,NA,NA,NA,NA,NA,NA,NA,NA,NA,NA,NA,NA,NA
50374,Deep Question,html.Page,3_0_3_0_1_0_0,NA,NA,form submission,9891.9129999999,1118664.4,1118655.421,1118672.087,1128564,1128564.3,2023-08-08T12:02:51Z,1128572.223,NULL,Stimmung,kinyongo,d,NA,NA,NA,kikioya,NA,NA,3,NA,NA,NA,NA,NA,NA,NA,NA,NA,NA,NA,NA,NA,NA,NA,NA,NA,NA,NA
50374,"""Richtig""-Screen",canvas.Screen,3_0_3_0_1_0_1,NA,NA,skipped,NA,1128566.6,NA,NA,1128564,1128566.7,2023-08-08T12:02:51Z,1128572.223,NULL,Stimmung,kinyongo,d,NA,NA,NA,NA,qt,NA,3,NA,NA,NA,NA,NA,NA,NA,NA,NA,NA,NA,NA,NA,NA,NA,NA,NA,NA,NA
50374,"""Falsch""-Screen",canvas.Screen,3_0_3_0_1_0_2,NA,NA,timeout,5000.3119999999,1128567.3,1128555.557,1128572.223,1133555.869,1133558.2,2023-08-08T12:02:56Z,1133572.535,NULL,Stimmung,kinyongo,d,NA,NA,NA,NA,qt,0,3,NA,NA,NA,NA,NA,NA,NA,NA,NA,NA,NA,NA,NA,NA,NA,NA,NA,NA,NA
50374,deep,flow.Sequence,3_0_3_0_1_0,NA,NA,completion,14883.782,1118664.4,1118655.421,1118672.087,1133555.869,1133558.7,2023-08-08T12:02:56Z,1133572.535,NULL,Stimmung,kinyongo,d,NA,NA,NA,NA,qt,NA,3,NA,NA,NA,NA,NA,NA,NA,NA,NA,NA,NA,NA,NA,NA,NA,NA,NA,NA,NA
50374,shallow,flow.Sequence,3_0_3_0_1_1,NA,NA,skipped,NA,1133558.8,NA,NA,1133555.869,1133558.9,2023-08-08T12:02:56Z,1133572.535,NULL,Stimmung,kinyongo,d,NA,NA,NA,NA,qt,NA,3,NA,NA,NA,NA,NA,NA,NA,NA,NA,NA,NA,NA,NA,NA,NA,NA,NA,NA,NA
50374,task,flow.Sequence,3_0_3_0_1,NA,NA,completion,14883.782,1118664.3,1118655.421,1118672.087,1133555.869,1133559.1,2023-08-08T12:02:56Z,1133572.535,NULL,Stimmung,kinyongo,d,NA,NA,NA,NA,qt,NA,3,NA,NA,NA,NA,NA,NA,NA,NA,NA,NA,NA,NA,NA,NA,NA,NA,NA,NA,NA
50374,deep,flow.Sequence,3_0_3_0_2_0,NA,NA,skipped,NA,1133559.3,NA,NA,1133555.869,1133559.4,2023-08-08T12:02:56Z,1133572.535,NULL,Respekt,heshima,s,changamnao,upinzani,ufanisi,NA,qt,NA,3,NA,NA,NA,NA,NA,NA,NA,NA,NA,NA,NA,NA,NA,NA,NA,NA,NA,NA,NA
50374,Shallow Question,html.Page,3_0_3_0_2_1_0,NA,NA,form submission,5224.3650000023,1133559.5,1133555.869,1133572.535,1138796.9,1138797.3,2023-08-08T12:03:02Z,1138805.659,NULL,Respekt,heshima,s,changamnao,upinzani,ufanisi,heshima,NA,NA,3,NA,NA,NA,NA,NA,NA,NA,NA,NA,NA,NA,NA,NA,NA,NA,NA,NA,NA,NA
50374,"""Richtig""-Screen",canvas.Screen,3_0_3_0_2_1_1,NA,NA,timeout,5000.3230000001,1138800,1138788.993,1138805.659,1143789.316,1143793.4,2023-08-08T12:03:07Z,1143805.982,NULL,Respekt,heshima,s,changamnao,upinzani,ufanisi,NA,qt,1,3,NA,NA,NA,NA,NA,NA,NA,NA,NA,NA,NA,NA,NA,NA,NA,NA,NA,NA,NA
50374,"""Falsch""-Screen",canvas.Screen,3_0_3_0_2_1_2,NA,NA,skipped,NA,1143797.6,NA,NA,1143789.316,1143797.7,2023-08-08T12:03:07Z,1143805.982,NULL,Respekt,heshima,s,changamnao,upinzani,ufanisi,NA,qt,NA,3,NA,NA,NA,NA,NA,NA,NA,NA,NA,NA,NA,NA,NA,NA,NA,NA,NA,NA,NA
50374,shallow,flow.Sequence,3_0_3_0_2_1,NA,NA,completion,10216.781,1133559.5,1133555.869,1133572.535,1143789.316,1143797.8,2023-08-08T12:03:07Z,1143805.982,NULL,Respekt,heshima,s,changamnao,upinzani,ufanisi,NA,qt,NA,3,NA,NA,NA,NA,NA,NA,NA,NA,NA,NA,NA,NA,NA,NA,NA,NA,NA,NA,NA
50374,task,flow.Sequence,3_0_3_0_2,NA,NA,completion,10216.781,1133559.2,1133555.869,1133572.535,1143789.316,1143797.9,2023-08-08T12:03:07Z,1143805.982,NULL,Respekt,heshima,s,changamnao,upinzani,ufanisi,NA,qt,NA,3,NA,NA,NA,NA,NA,NA,NA,NA,NA,NA,NA,NA,NA,NA,NA,NA,NA,NA,NA
50374,Deep Question,html.Page,3_0_3_0_3_0_0,NA,NA,form submission,4674.9180000022,1143798,1143789.316,1143805.982,1148480.9,1148481.4,2023-08-08T12:03:11Z,1148489.128,NULL,Betrüger,mdanganyifu,d,NA,NA,NA,skdlfjawle,NA,NA,3,NA,NA,NA,NA,NA,NA,NA,NA,NA,NA,NA,NA,NA,NA,NA,NA,NA,NA,NA
50374,"""Richtig""-Screen",canvas.Screen,3_0_3_0_3_0_1,NA,NA,skipped,NA,1148484.3,NA,NA,1148480.9,1148484.3,2023-08-08T12:03:11Z,1148489.128,NULL,Betrüger,mdanganyifu,d,NA,NA,NA,NA,qt,NA,3,NA,NA,NA,NA,NA,NA,NA,NA,NA,NA,NA,NA,NA,NA,NA,NA,NA,NA,NA
50374,"""Falsch""-Screen",canvas.Screen,3_0_3_0_3_0_2,NA,NA,timeout,4999.8,1148484.9,1148472.462,1148489.128,1153472.262,1153476.7,2023-08-08T12:03:16Z,1153488.928,NULL,Betrüger,mdanganyifu,d,NA,NA,NA,NA,qt,0,3,NA,NA,NA,NA,NA,NA,NA,NA,NA,NA,NA,NA,NA,NA,NA,NA,NA,NA,NA
50374,deep,flow.Sequence,3_0_3_0_3_0,NA,NA,completion,9666.28,1143798,1143789.316,1143805.982,1153472.262,1153477,2023-08-08T12:03:16Z,1153488.928,NULL,Betrüger,mdanganyifu,d,NA,NA,NA,NA,qt,NA,3,NA,NA,NA,NA,NA,NA,NA,NA,NA,NA,NA,NA,NA,NA,NA,NA,NA,NA,NA
50374,shallow,flow.Sequence,3_0_3_0_3_1,NA,NA,skipped,NA,1153477.1,NA,NA,1153472.262,1153477.2,2023-08-08T12:03:16Z,1153488.928,NULL,Betrüger,mdanganyifu,d,NA,NA,NA,NA,qt,NA,3,NA,NA,NA,NA,NA,NA,NA,NA,NA,NA,NA,NA,NA,NA,NA,NA,NA,NA,NA
50374,task,flow.Sequence,3_0_3_0_3,NA,NA,completion,9666.28,1143797.9,1143789.316,1143805.982,1153472.262,1153477.4,2023-08-08T12:03:16Z,1153488.928,NULL,Betrüger,mdanganyifu,d,NA,NA,NA,NA,qt,NA,3,NA,NA,NA,NA,NA,NA,NA,NA,NA,NA,NA,NA,NA,NA,NA,NA,NA,NA,NA
50374,deep,flow.Sequence,3_0_3_0_4_0,NA,NA,skipped,NA,1153477.6,NA,NA,1153472.262,1153477.7,2023-08-08T12:03:16Z,1153488.928,NULL,Vergnügen,kichekesho,s,dubwana,mpanuko,mtesaji,NA,qt,NA,3,NA,NA,NA,NA,NA,NA,NA,NA,NA,NA,NA,NA,NA,NA,NA,NA,NA,NA,NA
50374,Shallow Question,html.Page,3_0_3_0_4_1_0,NA,NA,form submission,4024.5719999999,1153477.9,1153472.262,1153488.928,1157513.5,1157513.9,2023-08-08T12:03:20Z,1157522.845,NULL,Vergnügen,kichekesho,s,dubwana,mpanuko,mtesaji,kichekesho,NA,NA,3,NA,NA,NA,NA,NA,NA,NA,NA,NA,NA,NA,NA,NA,NA,NA,NA,NA,NA,NA
50374,"""Richtig""-Screen",canvas.Screen,3_0_3_0_4_1_1,NA,NA,timeout,4999.8,1157516.6,1157506.179,1157522.845,1162505.979,1162510.8,2023-08-08T12:03:25Z,1162522.645,NULL,Vergnügen,kichekesho,s,dubwana,mpanuko,mtesaji,NA,qt,1,3,NA,NA,NA,NA,NA,NA,NA,NA,NA,NA,NA,NA,NA,NA,NA,NA,NA,NA,NA
50374,"""Falsch""-Screen",canvas.Screen,3_0_3_0_4_1_2,NA,NA,skipped,NA,1162514.9,NA,NA,1162505.979,1162515.1,2023-08-08T12:03:25Z,1162522.645,NULL,Vergnügen,kichekesho,s,dubwana,mpanuko,mtesaji,NA,qt,NA,3,NA,NA,NA,NA,NA,NA,NA,NA,NA,NA,NA,NA,NA,NA,NA,NA,NA,NA,NA
50374,shallow,flow.Sequence,3_0_3_0_4_1,NA,NA,completion,9017.051,1153477.8,1153472.262,1153488.928,1162505.979,1162515.3,2023-08-08T12:03:25Z,1162522.645,NULL,Vergnügen,kichekesho,s,dubwana,mpanuko,mtesaji,NA,qt,NA,3,NA,NA,NA,NA,NA,NA,NA,NA,NA,NA,NA,NA,NA,NA,NA,NA,NA,NA,NA
50374,task,flow.Sequence,3_0_3_0_4,NA,NA,completion,9017.051,1153477.6,1153472.262,1153488.928,1162505.979,1162515.4,2023-08-08T12:03:25Z,1162522.645,NULL,Vergnügen,kichekesho,s,dubwana,mpanuko,mtesaji,NA,qt,NA,3,NA,NA,NA,NA,NA,NA,NA,NA,NA,NA,NA,NA,NA,NA,NA,NA,NA,NA,NA
50374,Deep Question,html.Page,3_0_3_0_5_0_0,NA,NA,form submission,4957.2550000022,1162515.5,1162505.979,1162522.645,1167479.9,1167480.2,2023-08-08T12:03:30Z,1167489.67,NULL,Ergänzung,kijalizo,d,NA,NA,NA,aelkkelw,NA,NA,3,NA,NA,NA,NA,NA,NA,NA,NA,NA,NA,NA,NA,NA,NA,NA,NA,NA,NA,NA
50374,"""Richtig""-Screen",canvas.Screen,3_0_3_0_5_0_1,NA,NA,skipped,NA,1167482.1,NA,NA,1167479.9,1167482.1,2023-08-08T12:03:30Z,1167489.67,NULL,Ergänzung,kijalizo,d,NA,NA,NA,NA,qt,NA,3,NA,NA,NA,NA,NA,NA,NA,NA,NA,NA,NA,NA,NA,NA,NA,NA,NA,NA,NA
50374,"""Falsch""-Screen",canvas.Screen,3_0_3_0_5_0_2,NA,NA,timeout,4999.8,1167482.7,1167473.004,1167489.67,1172472.804,1172475.4,2023-08-08T12:03:35Z,1172489.47,NULL,Ergänzung,kijalizo,d,NA,NA,NA,NA,qt,0,3,NA,NA,NA,NA,NA,NA,NA,NA,NA,NA,NA,NA,NA,NA,NA,NA,NA,NA,NA
50374,deep,flow.Sequence,3_0_3_0_5_0,NA,NA,completion,9950.159,1162515.5,1162505.979,1162522.645,1172472.804,1172475.8,2023-08-08T12:03:35Z,1172489.47,NULL,Ergänzung,kijalizo,d,NA,NA,NA,NA,qt,NA,3,NA,NA,NA,NA,NA,NA,NA,NA,NA,NA,NA,NA,NA,NA,NA,NA,NA,NA,NA
50374,shallow,flow.Sequence,3_0_3_0_5_1,NA,NA,skipped,NA,1172475.9,NA,NA,1172472.804,1172476,2023-08-08T12:03:35Z,1172489.47,NULL,Ergänzung,kijalizo,d,NA,NA,NA,NA,qt,NA,3,NA,NA,NA,NA,NA,NA,NA,NA,NA,NA,NA,NA,NA,NA,NA,NA,NA,NA,NA
50374,task,flow.Sequence,3_0_3_0_5,NA,NA,completion,9950.159,1162515.4,1162505.979,1162522.645,1172472.804,1172476.1,2023-08-08T12:03:35Z,1172489.47,NULL,Ergänzung,kijalizo,d,NA,NA,NA,NA,qt,NA,3,NA,NA,NA,NA,NA,NA,NA,NA,NA,NA,NA,NA,NA,NA,NA,NA,NA,NA,NA
50374,Deep Question,html.Page,3_0_3_0_6_0_0,NA,NA,form submission,4941.2299999993,1172476.4,1172472.804,1172489.47,1177430.7,1177431.3,2023-08-08T12:03:40Z,1177439.685,NULL,Wohlstand,mafanikio,d,NA,NA,NA,safeawfwel,NA,NA,3,NA,NA,NA,NA,NA,NA,NA,NA,NA,NA,NA,NA,NA,NA,NA,NA,NA,NA,NA
50374,"""Richtig""-Screen",canvas.Screen,3_0_3_0_6_0_1,NA,NA,skipped,NA,1177434,NA,NA,1177430.7,1177434.2,2023-08-08T12:03:40Z,1177439.685,NULL,Wohlstand,mafanikio,d,NA,NA,NA,NA,qt,NA,3,NA,NA,NA,NA,NA,NA,NA,NA,NA,NA,NA,NA,NA,NA,NA,NA,NA,NA,NA
50374,"""Falsch""-Screen",canvas.Screen,3_0_3_0_6_0_2,NA,NA,timeout,4999.8,1177435.2,1177423.019,1177439.685,1182422.819,1182424.1,2023-08-08T12:03:45Z,1182439.485,NULL,Wohlstand,mafanikio,d,NA,NA,NA,NA,qt,0,3,NA,NA,NA,NA,NA,NA,NA,NA,NA,NA,NA,NA,NA,NA,NA,NA,NA,NA,NA
50374,deep,flow.Sequence,3_0_3_0_6_0,NA,NA,completion,9933.3489999999,1172476.3,1172472.804,1172489.47,1182422.819,1182424.5,2023-08-08T12:03:45Z,1182439.485,NULL,Wohlstand,mafanikio,d,NA,NA,NA,NA,qt,NA,3,NA,NA,NA,NA,NA,NA,NA,NA,NA,NA,NA,NA,NA,NA,NA,NA,NA,NA,NA
50374,shallow,flow.Sequence,3_0_3_0_6_1,NA,NA,skipped,NA,1182424.7,NA,NA,1182422.819,1182424.9,2023-08-08T12:03:45Z,1182439.485,NULL,Wohlstand,mafanikio,d,NA,NA,NA,NA,qt,NA,3,NA,NA,NA,NA,NA,NA,NA,NA,NA,NA,NA,NA,NA,NA,NA,NA,NA,NA,NA
50374,task,flow.Sequence,3_0_3_0_6,NA,NA,completion,9933.3489999999,1172476.3,1172472.804,1172489.47,1182422.819,1182425,2023-08-08T12:03:45Z,1182439.485,NULL,Wohlstand,mafanikio,d,NA,NA,NA,NA,qt,NA,3,NA,NA,NA,NA,NA,NA,NA,NA,NA,NA,NA,NA,NA,NA,NA,NA,NA,NA,NA
50374,deep,flow.Sequence,3_0_3_0_7_0,NA,NA,skipped,NA,1182425.1,NA,NA,1182422.819,1182425.3,2023-08-08T12:03:45Z,1182439.485,NULL,Orientierung,urekebisho,s,uelekeo,marekebisho,utunzaji,NA,qt,NA,3,NA,NA,NA,NA,NA,NA,NA,NA,NA,NA,NA,NA,NA,NA,NA,NA,NA,NA,NA
50374,Shallow Question,html.Page,3_0_3_0_7_1_0,NA,NA,form submission,11274.214999999,1182425.3,1182422.819,1182439.485,1193713.7,1193714.2,2023-08-08T12:03:56Z,1193722.962,NULL,Orientierung,urekebisho,s,uelekeo,marekebisho,utunzaji,marekebisho,NA,NA,3,NA,NA,NA,NA,NA,NA,NA,NA,NA,NA,NA,NA,NA,NA,NA,NA,NA,NA,NA
50374,"""Richtig""-Screen",canvas.Screen,3_0_3_0_7_1_1,NA,NA,skipped,NA,1193717.2,NA,NA,1193713.7,1193717.3,2023-08-08T12:03:56Z,1193722.962,NULL,Orientierung,urekebisho,s,uelekeo,marekebisho,utunzaji,NA,qt,NA,3,NA,NA,NA,NA,NA,NA,NA,NA,NA,NA,NA,NA,NA,NA,NA,NA,NA,NA,NA
50374,"""Falsch""-Screen",canvas.Screen,3_0_3_0_7_1_2,NA,NA,timeout,5000.2959999999,1193718,1193706.296,1193722.962,1198706.592,1198710.1,2023-08-08T12:04:01Z,1198723.258,NULL,Orientierung,urekebisho,s,uelekeo,marekebisho,utunzaji,NA,qt,0,3,NA,NA,NA,NA,NA,NA,NA,NA,NA,NA,NA,NA,NA,NA,NA,NA,NA,NA,NA
50374,shallow,flow.Sequence,3_0_3_0_7_1,NA,NA,completion,16267.107,1182425.3,1182422.819,1182439.485,1198706.592,1198710.3,2023-08-08T12:04:01Z,1198723.258,NULL,Orientierung,urekebisho,s,uelekeo,marekebisho,utunzaji,NA,qt,NA,3,NA,NA,NA,NA,NA,NA,NA,NA,NA,NA,NA,NA,NA,NA,NA,NA,NA,NA,NA
50374,task,flow.Sequence,3_0_3_0_7,NA,NA,completion,16267.107,1182425.1,1182422.819,1182439.485,1198706.592,1198710.5,2023-08-08T12:04:01Z,1198723.258,NULL,Orientierung,urekebisho,s,uelekeo,marekebisho,utunzaji,NA,qt,NA,3,NA,NA,NA,NA,NA,NA,NA,NA,NA,NA,NA,NA,NA,NA,NA,NA,NA,NA,NA
50374,block,flow.Loop,3_0_3_0,NA,NA,completion,90534.597,1108179.1,1108138.663,1108171.995,1198706.592,1198710.6,2023-08-08T12:04:01Z,1198723.258,NULL,NA,NA,NA,NA,NA,NA,NA,qt,NA,3,NA,NA,NA,NA,NA,NA,NA,NA,NA,NA,NA,NA,NA,NA,NA,NA,NA,NA,NA
50374,weiter,canvas.Screen,3_0_3_1,sdf,keypress(Space),response,1095.9419999993,1198710.7,1198706.592,1198723.258,1199819.2,1199824.8,2023-08-08T12:04:03Z,1199839.88,NULL,NA,NA,NA,NA,NA,NA,NA,qt,NA,3,NA,NA,NA,NA,NA,NA,NA,NA,NA,NA,NA,NA,NA,NA,NA,NA,NA,NA,NA
50374,check continue,flow.Sequence,3_0_3,NA,NA,completion,91647.204999999,1108179.1,1108138.663,1108171.995,1199819.2,1199825.2,2023-08-08T12:04:03Z,1199839.88,NULL,NA,NA,NA,NA,NA,NA,NA,qt,NA,3,NA,NA,NA,NA,NA,NA,NA,NA,NA,NA,NA,NA,NA,NA,NA,NA,NA,NA,NA
50374,deep,flow.Sequence,3_0_4_0_0_0,NA,NA,skipped,NA,1199849.7,NA,NA,1199819.2,1199849.7,2023-08-08T12:04:03Z,1199839.88,NULL,Vergnügen,kichekesho,s,dubwana,mpanuko,mtesaji,NA,sd,NA,4,NA,NA,NA,NA,NA,NA,NA,NA,NA,NA,NA,NA,NA,NA,NA,NA,NA,NA,NA
50374,Shallow Question,html.Page,3_0_4_0_0_1_0,NA,NA,form submission,5508.0200000023,1199849.8,1199806.548,1199839.88,1205347.9,1205348.4,2023-08-08T12:04:08Z,1205356.326,NULL,Vergnügen,kichekesho,s,dubwana,mpanuko,mtesaji,kichekesho,NA,NA,4,NA,NA,NA,NA,NA,NA,NA,NA,NA,NA,NA,NA,NA,NA,NA,NA,NA,NA,NA
50374,"""Richtig""-Screen",canvas.Screen,3_0_4_0_0_1_1,NA,NA,timeout,5000.3940000001,1205350.7,1205339.66,1205356.326,1210340.054,1210342.2,2023-08-08T12:04:13Z,1210356.72,NULL,Vergnügen,kichekesho,s,dubwana,mpanuko,mtesaji,NA,sd,1,4,NA,NA,NA,NA,NA,NA,NA,NA,NA,NA,NA,NA,NA,NA,NA,NA,NA,NA,NA
50374,"""Falsch""-Screen",canvas.Screen,3_0_4_0_0_1_2,NA,NA,skipped,NA,1210346.5,NA,NA,1210340.054,1210346.6,2023-08-08T12:04:13Z,1210356.72,NULL,Vergnügen,kichekesho,s,dubwana,mpanuko,mtesaji,NA,sd,NA,4,NA,NA,NA,NA,NA,NA,NA,NA,NA,NA,NA,NA,NA,NA,NA,NA,NA,NA,NA
50374,shallow,flow.Sequence,3_0_4_0_0_1,NA,NA,completion,10500.174,1199849.8,1199806.548,1199839.88,1210340.054,1210346.8,2023-08-08T12:04:13Z,1210356.72,NULL,Vergnügen,kichekesho,s,dubwana,mpanuko,mtesaji,NA,sd,NA,4,NA,NA,NA,NA,NA,NA,NA,NA,NA,NA,NA,NA,NA,NA,NA,NA,NA,NA,NA
50374,task,flow.Sequence,3_0_4_0_0,NA,NA,completion,10500.174,1199849.7,1199806.548,1199839.88,1210340.054,1210347,2023-08-08T12:04:13Z,1210356.72,NULL,Vergnügen,kichekesho,s,dubwana,mpanuko,mtesaji,NA,sd,NA,4,NA,NA,NA,NA,NA,NA,NA,NA,NA,NA,NA,NA,NA,NA,NA,NA,NA,NA,NA
50374,Deep Question,html.Page,3_0_4_0_1_0_0,NA,NA,form submission,4741.4799999993,1210347.2,1210340.054,1210356.72,1215098.2,1215098.7,2023-08-08T12:04:18Z,1215106.53,NULL,Ergänzung,kijalizo,d,NA,NA,NA,sjflewe,NA,NA,4,NA,NA,NA,NA,NA,NA,NA,NA,NA,NA,NA,NA,NA,NA,NA,NA,NA,NA,NA
50374,"""Richtig""-Screen",canvas.Screen,3_0_4_0_1_0_1,NA,NA,skipped,NA,1215101.1,NA,NA,1215098.2,1215101.2,2023-08-08T12:04:18Z,1215106.53,NULL,Ergänzung,kijalizo,d,NA,NA,NA,NA,sd,NA,4,NA,NA,NA,NA,NA,NA,NA,NA,NA,NA,NA,NA,NA,NA,NA,NA,NA,NA,NA
50374,"""Falsch""-Screen",canvas.Screen,3_0_4_0_1_0_2,NA,NA,timeout,5000.298,1215101.9,1215089.864,1215106.53,1220090.162,1220092.6,2023-08-08T12:04:23Z,1220106.828,NULL,Ergänzung,kijalizo,d,NA,NA,NA,NA,sd,0,4,NA,NA,NA,NA,NA,NA,NA,NA,NA,NA,NA,NA,NA,NA,NA,NA,NA,NA,NA
50374,deep,flow.Sequence,3_0_4_0_1_0,NA,NA,completion,9733.442,1210347.2,1210340.054,1210356.72,1220090.162,1220092.9,2023-08-08T12:04:23Z,1220106.828,NULL,Ergänzung,kijalizo,d,NA,NA,NA,NA,sd,NA,4,NA,NA,NA,NA,NA,NA,NA,NA,NA,NA,NA,NA,NA,NA,NA,NA,NA,NA,NA
50374,shallow,flow.Sequence,3_0_4_0_1_1,NA,NA,skipped,NA,1220093,NA,NA,1220090.162,1220093.2,2023-08-08T12:04:23Z,1220106.828,NULL,Ergänzung,kijalizo,d,NA,NA,NA,NA,sd,NA,4,NA,NA,NA,NA,NA,NA,NA,NA,NA,NA,NA,NA,NA,NA,NA,NA,NA,NA,NA
50374,task,flow.Sequence,3_0_4_0_1,NA,NA,completion,9733.442,1210347.1,1210340.054,1210356.72,1220090.162,1220093.3,2023-08-08T12:04:23Z,1220106.828,NULL,Ergänzung,kijalizo,d,NA,NA,NA,NA,sd,NA,4,NA,NA,NA,NA,NA,NA,NA,NA,NA,NA,NA,NA,NA,NA,NA,NA,NA,NA,NA
50374,Deep Question,html.Page,3_0_4_0_2_0_0,NA,NA,form submission,4774.672,1220093.5,1220090.162,1220106.828,1224881.5,1224882.1,2023-08-08T12:04:28Z,1224889.97,NULL,Betrüger,mdanganyifu,d,NA,NA,NA,sakflejl,NA,NA,4,NA,NA,NA,NA,NA,NA,NA,NA,NA,NA,NA,NA,NA,NA,NA,NA,NA,NA,NA
50374,"""Richtig""-Screen",canvas.Screen,3_0_4_0_2_0_1,NA,NA,skipped,NA,1224885.2,NA,NA,1224881.5,1224885.3,2023-08-08T12:04:28Z,1224889.97,NULL,Betrüger,mdanganyifu,d,NA,NA,NA,NA,sd,NA,4,NA,NA,NA,NA,NA,NA,NA,NA,NA,NA,NA,NA,NA,NA,NA,NA,NA,NA,NA
50374,"""Falsch""-Screen",canvas.Screen,3_0_4_0_2_0_2,NA,NA,timeout,5000.2990000001,1224886,1224873.304,1224889.97,1229873.603,1229877.9,2023-08-08T12:04:33Z,1229890.269,NULL,Betrüger,mdanganyifu,d,NA,NA,NA,NA,sd,0,4,NA,NA,NA,NA,NA,NA,NA,NA,NA,NA,NA,NA,NA,NA,NA,NA,NA,NA,NA
50374,deep,flow.Sequence,3_0_4_0_2_0,NA,NA,completion,9766.7749999999,1220093.5,1220090.162,1220106.828,1229873.603,1229878.3,2023-08-08T12:04:33Z,1229890.269,NULL,Betrüger,mdanganyifu,d,NA,NA,NA,NA,sd,NA,4,NA,NA,NA,NA,NA,NA,NA,NA,NA,NA,NA,NA,NA,NA,NA,NA,NA,NA,NA
50374,shallow,flow.Sequence,3_0_4_0_2_1,NA,NA,skipped,NA,1229878.4,NA,NA,1229873.603,1229878.6,2023-08-08T12:04:33Z,1229890.269,NULL,Betrüger,mdanganyifu,d,NA,NA,NA,NA,sd,NA,4,NA,NA,NA,NA,NA,NA,NA,NA,NA,NA,NA,NA,NA,NA,NA,NA,NA,NA,NA
50374,task,flow.Sequence,3_0_4_0_2,NA,NA,completion,9766.7749999999,1220093.4,1220090.162,1220106.828,1229873.603,1229878.7,2023-08-08T12:04:33Z,1229890.269,NULL,Betrüger,mdanganyifu,d,NA,NA,NA,NA,sd,NA,4,NA,NA,NA,NA,NA,NA,NA,NA,NA,NA,NA,NA,NA,NA,NA,NA,NA,NA,NA
50374,deep,flow.Sequence,3_0_4_0_3_0,NA,NA,skipped,NA,1229878.9,NA,NA,1229873.603,1229879,2023-08-08T12:04:33Z,1229890.269,NULL,Orientierung,urekebisho,s,uelekeo,marekebisho,utunzaji,NA,sd,NA,4,NA,NA,NA,NA,NA,NA,NA,NA,NA,NA,NA,NA,NA,NA,NA,NA,NA,NA,NA
50374,Shallow Question,html.Page,3_0_4_0_3_1_0,NA,NA,form submission,5557.8310000014,1229879.1,1229873.603,1229890.269,1235448.1,1235448.6,2023-08-08T12:04:38Z,1235456.713,NULL,Orientierung,urekebisho,s,uelekeo,marekebisho,utunzaji,urekebisho,NA,NA,4,NA,NA,NA,NA,NA,NA,NA,NA,NA,NA,NA,NA,NA,NA,NA,NA,NA,NA,NA
50374,"""Richtig""-Screen",canvas.Screen,3_0_4_0_3_1_1,NA,NA,timeout,5000.3400000001,1235451.1,1235440.047,1235456.713,1240440.387,1240444.4,2023-08-08T12:04:43Z,1240457.053,NULL,Orientierung,urekebisho,s,uelekeo,marekebisho,utunzaji,NA,sd,1,4,NA,NA,NA,NA,NA,NA,NA,NA,NA,NA,NA,NA,NA,NA,NA,NA,NA,NA,NA
50374,"""Falsch""-Screen",canvas.Screen,3_0_4_0_3_1_2,NA,NA,skipped,NA,1240448.7,NA,NA,1240440.387,1240448.8,2023-08-08T12:04:43Z,1240457.053,NULL,Orientierung,urekebisho,s,uelekeo,marekebisho,utunzaji,NA,sd,NA,4,NA,NA,NA,NA,NA,NA,NA,NA,NA,NA,NA,NA,NA,NA,NA,NA,NA,NA,NA
50374,shallow,flow.Sequence,3_0_4_0_3_1,NA,NA,completion,10550.118,1229879,1229873.603,1229890.269,1240440.387,1240449,2023-08-08T12:04:43Z,1240457.053,NULL,Orientierung,urekebisho,s,uelekeo,marekebisho,utunzaji,NA,sd,NA,4,NA,NA,NA,NA,NA,NA,NA,NA,NA,NA,NA,NA,NA,NA,NA,NA,NA,NA,NA
50374,task,flow.Sequence,3_0_4_0_3,NA,NA,completion,10550.118,1229878.8,1229873.603,1229890.269,1240440.387,1240449.2,2023-08-08T12:04:43Z,1240457.053,NULL,Orientierung,urekebisho,s,uelekeo,marekebisho,utunzaji,NA,sd,NA,4,NA,NA,NA,NA,NA,NA,NA,NA,NA,NA,NA,NA,NA,NA,NA,NA,NA,NA,NA
50374,deep,flow.Sequence,3_0_4_0_4_0,NA,NA,skipped,NA,1240449.4,NA,NA,1240440.387,1240449.5,2023-08-08T12:04:43Z,1240457.053,NULL,Notfall,dharura,s,rairai,malalamiko,ahueni,NA,sd,NA,4,NA,NA,NA,NA,NA,NA,NA,NA,NA,NA,NA,NA,NA,NA,NA,NA,NA,NA,NA
50374,Shallow Question,html.Page,3_0_4_0_4_1_0,NA,NA,form submission,4524.6469999992,1240449.6,1240440.387,1240457.053,1244981.7,1244982.2,2023-08-08T12:04:48Z,1244990.205,NULL,Notfall,dharura,s,rairai,malalamiko,ahueni,dharura,NA,NA,4,NA,NA,NA,NA,NA,NA,NA,NA,NA,NA,NA,NA,NA,NA,NA,NA,NA,NA,NA
50374,"""Richtig""-Screen",canvas.Screen,3_0_4_0_4_1_1,NA,NA,timeout,4999.7999999998,1244984.6,1244973.539,1244990.205,1249973.339,1249975.8,2023-08-08T12:04:53Z,1249990.005,NULL,Notfall,dharura,s,rairai,malalamiko,ahueni,NA,sd,1,4,NA,NA,NA,NA,NA,NA,NA,NA,NA,NA,NA,NA,NA,NA,NA,NA,NA,NA,NA
50374,"""Falsch""-Screen",canvas.Screen,3_0_4_0_4_1_2,NA,NA,skipped,NA,1249980,NA,NA,1249973.339,1249980.1,2023-08-08T12:04:53Z,1249990.005,NULL,Notfall,dharura,s,rairai,malalamiko,ahueni,NA,sd,NA,4,NA,NA,NA,NA,NA,NA,NA,NA,NA,NA,NA,NA,NA,NA,NA,NA,NA,NA,NA
50374,shallow,flow.Sequence,3_0_4_0_4_1,NA,NA,completion,9516.2859999998,1240449.6,1240440.387,1240457.053,1249973.339,1249980.4,2023-08-08T12:04:53Z,1249990.005,NULL,Notfall,dharura,s,rairai,malalamiko,ahueni,NA,sd,NA,4,NA,NA,NA,NA,NA,NA,NA,NA,NA,NA,NA,NA,NA,NA,NA,NA,NA,NA,NA
50374,task,flow.Sequence,3_0_4_0_4,NA,NA,completion,9516.2859999998,1240449.3,1240440.387,1240457.053,1249973.339,1249980.6,2023-08-08T12:04:53Z,1249990.005,NULL,Notfall,dharura,s,rairai,malalamiko,ahueni,NA,sd,NA,4,NA,NA,NA,NA,NA,NA,NA,NA,NA,NA,NA,NA,NA,NA,NA,NA,NA,NA,NA
50374,deep,flow.Sequence,3_0_4_0_5_0,NA,NA,skipped,NA,1249980.7,NA,NA,1249973.339,1249980.7,2023-08-08T12:04:53Z,1249990.005,NULL,Respekt,heshima,s,changamnao,upinzani,ufanisi,NA,sd,NA,4,NA,NA,NA,NA,NA,NA,NA,NA,NA,NA,NA,NA,NA,NA,NA,NA,NA,NA,NA
50374,Shallow Question,html.Page,3_0_4_0_5_1_0,NA,NA,form submission,4425.1949999994,1249980.9,1249973.339,1249990.005,1254415.2,1254415.7,2023-08-08T12:04:57Z,1254423.897,NULL,Respekt,heshima,s,changamnao,upinzani,ufanisi,heshima,NA,NA,4,NA,NA,NA,NA,NA,NA,NA,NA,NA,NA,NA,NA,NA,NA,NA,NA,NA,NA,NA
50374,"""Richtig""-Screen",canvas.Screen,3_0_4_0_5_1_1,NA,NA,timeout,4999.7999999998,1254418.4,1254407.231,1254423.897,1259407.031,1259411.8,2023-08-08T12:05:02Z,1259423.697,NULL,Respekt,heshima,s,changamnao,upinzani,ufanisi,NA,sd,1,4,NA,NA,NA,NA,NA,NA,NA,NA,NA,NA,NA,NA,NA,NA,NA,NA,NA,NA,NA
50374,"""Falsch""-Screen",canvas.Screen,3_0_4_0_5_1_2,NA,NA,skipped,NA,1259415.4,NA,NA,1259407.031,1259415.5,2023-08-08T12:05:02Z,1259423.697,NULL,Respekt,heshima,s,changamnao,upinzani,ufanisi,NA,sd,NA,4,NA,NA,NA,NA,NA,NA,NA,NA,NA,NA,NA,NA,NA,NA,NA,NA,NA,NA,NA
50374,shallow,flow.Sequence,3_0_4_0_5_1,NA,NA,completion,9417.0260000001,1249980.8,1249973.339,1249990.005,1259407.031,1259415.6,2023-08-08T12:05:02Z,1259423.697,NULL,Respekt,heshima,s,changamnao,upinzani,ufanisi,NA,sd,NA,4,NA,NA,NA,NA,NA,NA,NA,NA,NA,NA,NA,NA,NA,NA,NA,NA,NA,NA,NA
50374,task,flow.Sequence,3_0_4_0_5,NA,NA,completion,9417.0260000001,1249980.7,1249973.339,1249990.005,1259407.031,1259415.7,2023-08-08T12:05:02Z,1259423.697,NULL,Respekt,heshima,s,changamnao,upinzani,ufanisi,NA,sd,NA,4,NA,NA,NA,NA,NA,NA,NA,NA,NA,NA,NA,NA,NA,NA,NA,NA,NA,NA,NA
50374,Deep Question,html.Page,3_0_4_0_6_0_0,NA,NA,form submission,5374.9030000016,1259415.8,1259407.031,1259423.697,1264798.6,1264799.1,2023-08-08T12:05:08Z,1264807.35,NULL,Wohlstand,mafanikio,d,NA,NA,NA,marakeso,NA,NA,4,NA,NA,NA,NA,NA,NA,NA,NA,NA,NA,NA,NA,NA,NA,NA,NA,NA,NA,NA
50374,"""Richtig""-Screen",canvas.Screen,3_0_4_0_6_0_1,NA,NA,skipped,NA,1264802.4,NA,NA,1264798.6,1264802.4,2023-08-08T12:05:08Z,1264807.35,NULL,Wohlstand,mafanikio,d,NA,NA,NA,NA,sd,NA,4,NA,NA,NA,NA,NA,NA,NA,NA,NA,NA,NA,NA,NA,NA,NA,NA,NA,NA,NA
50374,"""Falsch""-Screen",canvas.Screen,3_0_4_0_6_0_2,NA,NA,timeout,4999.7999999998,1264803,1264790.684,1264807.35,1269790.484,1269795.4,2023-08-08T12:05:13Z,1269807.15,NULL,Wohlstand,mafanikio,d,NA,NA,NA,NA,sd,0,4,NA,NA,NA,NA,NA,NA,NA,NA,NA,NA,NA,NA,NA,NA,NA,NA,NA,NA,NA
50374,deep,flow.Sequence,3_0_4_0_6_0,NA,NA,completion,10366.787,1259415.8,1259407.031,1259423.697,1269790.484,1269795.8,2023-08-08T12:05:13Z,1269807.15,NULL,Wohlstand,mafanikio,d,NA,NA,NA,NA,sd,NA,4,NA,NA,NA,NA,NA,NA,NA,NA,NA,NA,NA,NA,NA,NA,NA,NA,NA,NA,NA
50374,shallow,flow.Sequence,3_0_4_0_6_1,NA,NA,skipped,NA,1269796,NA,NA,1269790.484,1269796.1,2023-08-08T12:05:13Z,1269807.15,NULL,Wohlstand,mafanikio,d,NA,NA,NA,NA,sd,NA,4,NA,NA,NA,NA,NA,NA,NA,NA,NA,NA,NA,NA,NA,NA,NA,NA,NA,NA,NA
50374,task,flow.Sequence,3_0_4_0_6,NA,NA,completion,10366.787,1259415.7,1259407.031,1259423.697,1269790.484,1269796.3,2023-08-08T12:05:13Z,1269807.15,NULL,Wohlstand,mafanikio,d,NA,NA,NA,NA,sd,NA,4,NA,NA,NA,NA,NA,NA,NA,NA,NA,NA,NA,NA,NA,NA,NA,NA,NA,NA,NA
50374,Deep Question,html.Page,3_0_4_0_7_0_0,NA,NA,form submission,6123.8500000001,1269796.5,1269790.484,1269807.15,1275931,1275931.5,2023-08-08T12:05:19Z,1275940.716,NULL,Stimmung,kinyongo,d,NA,NA,NA,karayoko,NA,NA,4,NA,NA,NA,NA,NA,NA,NA,NA,NA,NA,NA,NA,NA,NA,NA,NA,NA,NA,NA
50374,"""Richtig""-Screen",canvas.Screen,3_0_4_0_7_0_1,NA,NA,skipped,NA,1275934.2,NA,NA,1275931,1275934.3,2023-08-08T12:05:19Z,1275940.716,NULL,Stimmung,kinyongo,d,NA,NA,NA,NA,sd,NA,4,NA,NA,NA,NA,NA,NA,NA,NA,NA,NA,NA,NA,NA,NA,NA,NA,NA,NA,NA
50374,"""Falsch""-Screen",canvas.Screen,3_0_4_0_7_0_2,NA,NA,timeout,5000.1170000001,1275934.9,1275924.05,1275940.716,1280924.167,1280928.4,2023-08-08T12:05:24Z,1280940.833,NULL,Stimmung,kinyongo,d,NA,NA,NA,NA,sd,0,4,NA,NA,NA,NA,NA,NA,NA,NA,NA,NA,NA,NA,NA,NA,NA,NA,NA,NA,NA
50374,deep,flow.Sequence,3_0_4_0_7_0,NA,NA,completion,11117.017,1269796.4,1269790.484,1269807.15,1280924.167,1280928.9,2023-08-08T12:05:24Z,1280940.833,NULL,Stimmung,kinyongo,d,NA,NA,NA,NA,sd,NA,4,NA,NA,NA,NA,NA,NA,NA,NA,NA,NA,NA,NA,NA,NA,NA,NA,NA,NA,NA
50374,shallow,flow.Sequence,3_0_4_0_7_1,NA,NA,skipped,NA,1280929,NA,NA,1280924.167,1280929.1,2023-08-08T12:05:24Z,1280940.833,NULL,Stimmung,kinyongo,d,NA,NA,NA,NA,sd,NA,4,NA,NA,NA,NA,NA,NA,NA,NA,NA,NA,NA,NA,NA,NA,NA,NA,NA,NA,NA
50374,task,flow.Sequence,3_0_4_0_7,NA,NA,completion,11117.017,1269796.3,1269790.484,1269807.15,1280924.167,1280929.2,2023-08-08T12:05:24Z,1280940.833,NULL,Stimmung,kinyongo,d,NA,NA,NA,NA,sd,NA,4,NA,NA,NA,NA,NA,NA,NA,NA,NA,NA,NA,NA,NA,NA,NA,NA,NA,NA,NA
50374,block,flow.Loop,3_0_4_0,NA,NA,completion,81084.287,1199849.7,1199806.548,1199839.88,1280924.167,1280929.5,2023-08-08T12:05:24Z,1280940.833,NULL,NA,NA,NA,NA,NA,NA,NA,sd,NA,4,NA,NA,NA,NA,NA,NA,NA,NA,NA,NA,NA,NA,NA,NA,NA,NA,NA,NA,NA
50374,weiter,canvas.Screen,3_0_4_1,sdf,keypress(Space),response,1067.8669999992,1280929.6,1280924.167,1280940.833,1282008.7,1282014.1,2023-08-08T12:05:25Z,1282040.789,NULL,NA,NA,NA,NA,NA,NA,NA,sd,NA,4,NA,NA,NA,NA,NA,NA,NA,NA,NA,NA,NA,NA,NA,NA,NA,NA,NA,NA,NA
50374,check continue,flow.Sequence,3_0_4,NA,NA,completion,82168.819999999,1199849.6,1199806.548,1199839.88,1282008.7,1282014.3,2023-08-08T12:05:25Z,1282040.789,NULL,NA,NA,NA,NA,NA,NA,NA,sd,NA,4,NA,NA,NA,NA,NA,NA,NA,NA,NA,NA,NA,NA,NA,NA,NA,NA,NA,NA,NA
50374,Deep Question,html.Page,3_0_5_0_0_0_0,NA,NA,form submission,8741.5110000006,1282038.4,1282024.123,1282040.789,1290782.3,1290782.8,2023-08-08T12:05:33Z,1290790.439,NULL,Stimmung,kinyongo,d,NA,NA,NA,kinyongo,NA,NA,5,NA,NA,NA,NA,NA,NA,NA,NA,NA,NA,NA,NA,NA,NA,NA,NA,NA,NA,NA
50374,"""Richtig""-Screen",canvas.Screen,3_0_5_0_0_0_1,NA,NA,timeout,5000.557,1290786.2,1290773.773,1290790.439,1295774.33,1295778.8,2023-08-08T12:05:38Z,1295790.996,NULL,Stimmung,kinyongo,d,NA,NA,NA,NA,sdf,1,5,NA,NA,NA,NA,NA,NA,NA,NA,NA,NA,NA,NA,NA,NA,NA,NA,NA,NA,NA
50374,"""Falsch""-Screen",canvas.Screen,3_0_5_0_0_0_2,NA,NA,skipped,NA,1295782.5,NA,NA,1295774.33,1295782.6,2023-08-08T12:05:38Z,1295790.996,NULL,Stimmung,kinyongo,d,NA,NA,NA,NA,sdf,NA,5,NA,NA,NA,NA,NA,NA,NA,NA,NA,NA,NA,NA,NA,NA,NA,NA,NA,NA,NA
50374,deep,flow.Sequence,3_0_5_0_0_0,NA,NA,completion,13733.541,1282038.4,1282024.123,1282040.789,1295774.33,1295782.7,2023-08-08T12:05:38Z,1295790.996,NULL,Stimmung,kinyongo,d,NA,NA,NA,NA,sdf,NA,5,NA,NA,NA,NA,NA,NA,NA,NA,NA,NA,NA,NA,NA,NA,NA,NA,NA,NA,NA
50374,shallow,flow.Sequence,3_0_5_0_0_1,NA,NA,skipped,NA,1295782.8,NA,NA,1295774.33,1295782.9,2023-08-08T12:05:38Z,1295790.996,NULL,Stimmung,kinyongo,d,NA,NA,NA,NA,sdf,NA,5,NA,NA,NA,NA,NA,NA,NA,NA,NA,NA,NA,NA,NA,NA,NA,NA,NA,NA,NA
50374,task,flow.Sequence,3_0_5_0_0,NA,NA,completion,13733.541,1282038.4,1282024.123,1282040.789,1295774.33,1295782.9,2023-08-08T12:05:38Z,1295790.996,NULL,Stimmung,kinyongo,d,NA,NA,NA,NA,sdf,NA,5,NA,NA,NA,NA,NA,NA,NA,NA,NA,NA,NA,NA,NA,NA,NA,NA,NA,NA,NA
50374,Deep Question,html.Page,3_0_5_0_1_0_0,NA,NA,form submission,7008.2039999992,1295783,1295774.33,1295790.996,1302799.2,1302799.7,2023-08-08T12:05:46Z,1302807.912,NULL,Betrüger,mdanganyifu,d,NA,NA,NA,kasodfe,NA,NA,5,NA,NA,NA,NA,NA,NA,NA,NA,NA,NA,NA,NA,NA,NA,NA,NA,NA,NA,NA
50374,"""Richtig""-Screen",canvas.Screen,3_0_5_0_1_0_1,NA,NA,skipped,NA,1302802.1,NA,NA,1302799.2,1302802.2,2023-08-08T12:05:46Z,1302807.912,NULL,Betrüger,mdanganyifu,d,NA,NA,NA,NA,sdf,NA,5,NA,NA,NA,NA,NA,NA,NA,NA,NA,NA,NA,NA,NA,NA,NA,NA,NA,NA,NA
50374,"""Falsch""-Screen",canvas.Screen,3_0_5_0_1_0_2,NA,NA,timeout,4999.8,1302802.7,1302791.246,1302807.912,1307791.046,1307796.1,2023-08-08T12:05:51Z,1307807.712,NULL,Betrüger,mdanganyifu,d,NA,NA,NA,NA,sdf,0,5,NA,NA,NA,NA,NA,NA,NA,NA,NA,NA,NA,NA,NA,NA,NA,NA,NA,NA,NA
50374,deep,flow.Sequence,3_0_5_0_1_0,NA,NA,completion,12000.05,1295783,1295774.33,1295790.996,1307791.046,1307796.5,2023-08-08T12:05:51Z,1307807.712,NULL,Betrüger,mdanganyifu,d,NA,NA,NA,NA,sdf,NA,5,NA,NA,NA,NA,NA,NA,NA,NA,NA,NA,NA,NA,NA,NA,NA,NA,NA,NA,NA
50374,shallow,flow.Sequence,3_0_5_0_1_1,NA,NA,skipped,NA,1307796.7,NA,NA,1307791.046,1307796.8,2023-08-08T12:05:51Z,1307807.712,NULL,Betrüger,mdanganyifu,d,NA,NA,NA,NA,sdf,NA,5,NA,NA,NA,NA,NA,NA,NA,NA,NA,NA,NA,NA,NA,NA,NA,NA,NA,NA,NA
50374,task,flow.Sequence,3_0_5_0_1,NA,NA,completion,12000.05,1295782.9,1295774.33,1295790.996,1307791.046,1307796.9,2023-08-08T12:05:51Z,1307807.712,NULL,Betrüger,mdanganyifu,d,NA,NA,NA,NA,sdf,NA,5,NA,NA,NA,NA,NA,NA,NA,NA,NA,NA,NA,NA,NA,NA,NA,NA,NA,NA,NA
50374,deep,flow.Sequence,3_0_5_0_2_0,NA,NA,skipped,NA,1307797.1,NA,NA,1307791.046,1307797.2,2023-08-08T12:05:51Z,1307807.712,NULL,Vergnügen,kichekesho,s,dubwana,mpanuko,mtesaji,NA,sdf,NA,5,NA,NA,NA,NA,NA,NA,NA,NA,NA,NA,NA,NA,NA,NA,NA,NA,NA,NA,NA
50374,Shallow Question,html.Page,3_0_5_0_2_1_0,NA,NA,form submission,4457.8880000014,1307797.4,1307791.046,1307807.712,1312265.6,1312266.1,2023-08-08T12:05:55Z,1312274.695,NULL,Vergnügen,kichekesho,s,dubwana,mpanuko,mtesaji,kichekesho,NA,NA,5,NA,NA,NA,NA,NA,NA,NA,NA,NA,NA,NA,NA,NA,NA,NA,NA,NA,NA,NA
50374,"""Richtig""-Screen",canvas.Screen,3_0_5_0_2_1_1,NA,NA,timeout,4999.8,1312269.2,1312258.029,1312274.695,1317257.829,1317262.7,2023-08-08T12:06:00Z,1317274.495,NULL,Vergnügen,kichekesho,s,dubwana,mpanuko,mtesaji,NA,sdf,1,5,NA,NA,NA,NA,NA,NA,NA,NA,NA,NA,NA,NA,NA,NA,NA,NA,NA,NA,NA
50374,"""Falsch""-Screen",canvas.Screen,3_0_5_0_2_1_2,NA,NA,skipped,NA,1317267.2,NA,NA,1317257.829,1317267.3,2023-08-08T12:06:00Z,1317274.495,NULL,Vergnügen,kichekesho,s,dubwana,mpanuko,mtesaji,NA,sdf,NA,5,NA,NA,NA,NA,NA,NA,NA,NA,NA,NA,NA,NA,NA,NA,NA,NA,NA,NA,NA
50374,shallow,flow.Sequence,3_0_5_0_2_1,NA,NA,completion,9450.1169999999,1307797.3,1307791.046,1307807.712,1317257.829,1317267.4,2023-08-08T12:06:00Z,1317274.495,NULL,Vergnügen,kichekesho,s,dubwana,mpanuko,mtesaji,NA,sdf,NA,5,NA,NA,NA,NA,NA,NA,NA,NA,NA,NA,NA,NA,NA,NA,NA,NA,NA,NA,NA
50374,task,flow.Sequence,3_0_5_0_2,NA,NA,completion,9450.1169999999,1307797,1307791.046,1307807.712,1317257.829,1317267.6,2023-08-08T12:06:00Z,1317274.495,NULL,Vergnügen,kichekesho,s,dubwana,mpanuko,mtesaji,NA,sdf,NA,5,NA,NA,NA,NA,NA,NA,NA,NA,NA,NA,NA,NA,NA,NA,NA,NA,NA,NA,NA
50374,deep,flow.Sequence,3_0_5_0_3_0,NA,NA,skipped,NA,1317267.8,NA,NA,1317257.829,1317267.8,2023-08-08T12:06:00Z,1317274.495,NULL,Respekt,heshima,s,changamnao,upinzani,ufanisi,NA,sdf,NA,5,NA,NA,NA,NA,NA,NA,NA,NA,NA,NA,NA,NA,NA,NA,NA,NA,NA,NA,NA
50374,Shallow Question,html.Page,3_0_5_0_3_1_0,NA,NA,form submission,4491.2049999991,1317267.9,1317257.829,1317274.495,1321765.7,1321766.3,2023-08-08T12:06:04Z,1321774.843,NULL,Respekt,heshima,s,changamnao,upinzani,ufanisi,heshima,NA,NA,5,NA,NA,NA,NA,NA,NA,NA,NA,NA,NA,NA,NA,NA,NA,NA,NA,NA,NA,NA
50374,"""Richtig""-Screen",canvas.Screen,3_0_5_0_3_1_1,NA,NA,timeout,4999.7999999998,1321769,1321758.177,1321774.843,1326757.977,1326762.2,2023-08-08T12:06:09Z,1326774.643,NULL,Respekt,heshima,s,changamnao,upinzani,ufanisi,NA,sdf,1,5,NA,NA,NA,NA,NA,NA,NA,NA,NA,NA,NA,NA,NA,NA,NA,NA,NA,NA,NA
50374,"""Falsch""-Screen",canvas.Screen,3_0_5_0_3_1_2,NA,NA,skipped,NA,1326766,NA,NA,1326757.977,1326766.1,2023-08-08T12:06:09Z,1326774.643,NULL,Respekt,heshima,s,changamnao,upinzani,ufanisi,NA,sdf,NA,5,NA,NA,NA,NA,NA,NA,NA,NA,NA,NA,NA,NA,NA,NA,NA,NA,NA,NA,NA
50374,shallow,flow.Sequence,3_0_5_0_3_1,NA,NA,completion,9483.4819999998,1317267.8,1317257.829,1317274.495,1326757.977,1326766.2,2023-08-08T12:06:09Z,1326774.643,NULL,Respekt,heshima,s,changamnao,upinzani,ufanisi,NA,sdf,NA,5,NA,NA,NA,NA,NA,NA,NA,NA,NA,NA,NA,NA,NA,NA,NA,NA,NA,NA,NA
50374,task,flow.Sequence,3_0_5_0_3,NA,NA,completion,9483.4819999998,1317267.7,1317257.829,1317274.495,1326757.977,1326766.2,2023-08-08T12:06:09Z,1326774.643,NULL,Respekt,heshima,s,changamnao,upinzani,ufanisi,NA,sdf,NA,5,NA,NA,NA,NA,NA,NA,NA,NA,NA,NA,NA,NA,NA,NA,NA,NA,NA,NA,NA
50374,Deep Question,html.Page,3_0_5_0_4_0_0,NA,NA,form submission,11925.157000001,1326766.3,1326757.977,1326774.643,1338699.8,1338700.1,2023-08-08T12:06:21Z,1338708.019,NULL,Wohlstand,mafanikio,d,NA,NA,NA,mafakso,NA,NA,5,NA,NA,NA,NA,NA,NA,NA,NA,NA,NA,NA,NA,NA,NA,NA,NA,NA,NA,NA
50374,"""Richtig""-Screen",canvas.Screen,3_0_5_0_4_0_1,NA,NA,skipped,NA,1338702.6,NA,NA,1338699.8,1338702.7,2023-08-08T12:06:21Z,1338708.019,NULL,Wohlstand,mafanikio,d,NA,NA,NA,NA,sdf,NA,5,NA,NA,NA,NA,NA,NA,NA,NA,NA,NA,NA,NA,NA,NA,NA,NA,NA,NA,NA
50374,"""Falsch""-Screen",canvas.Screen,3_0_5_0_4_0_2,NA,NA,timeout,5000.172,1338703.3,1338691.353,1338708.019,1343691.525,1343696.8,2023-08-08T12:06:26Z,1343708.191,NULL,Wohlstand,mafanikio,d,NA,NA,NA,NA,sdf,0,5,NA,NA,NA,NA,NA,NA,NA,NA,NA,NA,NA,NA,NA,NA,NA,NA,NA,NA,NA
50374,deep,flow.Sequence,3_0_5_0_4_0,NA,NA,completion,16916.882,1326766.3,1326757.977,1326774.643,1343691.525,1343697.2,2023-08-08T12:06:26Z,1343708.191,NULL,Wohlstand,mafanikio,d,NA,NA,NA,NA,sdf,NA,5,NA,NA,NA,NA,NA,NA,NA,NA,NA,NA,NA,NA,NA,NA,NA,NA,NA,NA,NA
50374,shallow,flow.Sequence,3_0_5_0_4_1,NA,NA,skipped,NA,1343697.3,NA,NA,1343691.525,1343697.4,2023-08-08T12:06:26Z,1343708.191,NULL,Wohlstand,mafanikio,d,NA,NA,NA,NA,sdf,NA,5,NA,NA,NA,NA,NA,NA,NA,NA,NA,NA,NA,NA,NA,NA,NA,NA,NA,NA,NA
50374,task,flow.Sequence,3_0_5_0_4,NA,NA,completion,16916.882,1326766.3,1326757.977,1326774.643,1343691.525,1343697.5,2023-08-08T12:06:26Z,1343708.191,NULL,Wohlstand,mafanikio,d,NA,NA,NA,NA,sdf,NA,5,NA,NA,NA,NA,NA,NA,NA,NA,NA,NA,NA,NA,NA,NA,NA,NA,NA,NA,NA
50374,deep,flow.Sequence,3_0_5_0_5_0,NA,NA,skipped,NA,1343697.6,NA,NA,1343691.525,1343697.7,2023-08-08T12:06:26Z,1343708.191,NULL,Orientierung,urekebisho,s,uelekeo,marekebisho,utunzaji,NA,sdf,NA,5,NA,NA,NA,NA,NA,NA,NA,NA,NA,NA,NA,NA,NA,NA,NA,NA,NA,NA,NA
50374,Shallow Question,html.Page,3_0_5_0_5_1_0,NA,NA,form submission,7724.9090000014,1343697.7,1343691.525,1343708.191,1351433.1,1351433.7,2023-08-08T12:06:34Z,1351441.215,NULL,Orientierung,urekebisho,s,uelekeo,marekebisho,utunzaji,urekebisho,NA,NA,5,NA,NA,NA,NA,NA,NA,NA,NA,NA,NA,NA,NA,NA,NA,NA,NA,NA,NA,NA
50374,"""Richtig""-Screen",canvas.Screen,3_0_5_0_5_1_1,NA,NA,timeout,5000.45,1351437.4,1351424.549,1351441.215,1356424.999,1356429.8,2023-08-08T12:06:39Z,1356441.665,NULL,Orientierung,urekebisho,s,uelekeo,marekebisho,utunzaji,NA,sdf,1,5,NA,NA,NA,NA,NA,NA,NA,NA,NA,NA,NA,NA,NA,NA,NA,NA,NA,NA,NA
50374,"""Falsch""-Screen",canvas.Screen,3_0_5_0_5_1_2,NA,NA,skipped,NA,1356433.3,NA,NA,1356424.999,1356433.4,2023-08-08T12:06:39Z,1356441.665,NULL,Orientierung,urekebisho,s,uelekeo,marekebisho,utunzaji,NA,sdf,NA,5,NA,NA,NA,NA,NA,NA,NA,NA,NA,NA,NA,NA,NA,NA,NA,NA,NA,NA,NA
50374,shallow,flow.Sequence,3_0_5_0_5_1,NA,NA,completion,12716.808,1343697.7,1343691.525,1343708.191,1356424.999,1356433.6,2023-08-08T12:06:39Z,1356441.665,NULL,Orientierung,urekebisho,s,uelekeo,marekebisho,utunzaji,NA,sdf,NA,5,NA,NA,NA,NA,NA,NA,NA,NA,NA,NA,NA,NA,NA,NA,NA,NA,NA,NA,NA
50374,task,flow.Sequence,3_0_5_0_5,NA,NA,completion,12716.808,1343697.6,1343691.525,1343708.191,1356424.999,1356433.6,2023-08-08T12:06:39Z,1356441.665,NULL,Orientierung,urekebisho,s,uelekeo,marekebisho,utunzaji,NA,sdf,NA,5,NA,NA,NA,NA,NA,NA,NA,NA,NA,NA,NA,NA,NA,NA,NA,NA,NA,NA,NA
50374,Deep Question,html.Page,3_0_5_0_6_0_0,NA,NA,form submission,3624.6350000007,1356433.7,1356424.999,1356441.665,1360066.3,1360066.8,2023-08-08T12:06:43Z,1360074.853,NULL,Ergänzung,kijalizo,d,NA,NA,NA,lfajwsfeae,NA,NA,5,NA,NA,NA,NA,NA,NA,NA,NA,NA,NA,NA,NA,NA,NA,NA,NA,NA,NA,NA
50374,"""Richtig""-Screen",canvas.Screen,3_0_5_0_6_0_1,NA,NA,skipped,NA,1360069.5,NA,NA,1360066.3,1360069.6,2023-08-08T12:06:43Z,1360074.853,NULL,Ergänzung,kijalizo,d,NA,NA,NA,NA,sdf,NA,5,NA,NA,NA,NA,NA,NA,NA,NA,NA,NA,NA,NA,NA,NA,NA,NA,NA,NA,NA
50374,"""Falsch""-Screen",canvas.Screen,3_0_5_0_6_0_2,NA,NA,timeout,4999.8,1360070.3,1360058.187,1360074.853,1365057.987,1365063.2,2023-08-08T12:06:48Z,1365074.653,NULL,Ergänzung,kijalizo,d,NA,NA,NA,NA,sdf,0,5,NA,NA,NA,NA,NA,NA,NA,NA,NA,NA,NA,NA,NA,NA,NA,NA,NA,NA,NA
50374,deep,flow.Sequence,3_0_5_0_6_0,NA,NA,completion,8616.3219999999,1356433.7,1356424.999,1356441.665,1365057.987,1365063.8,2023-08-08T12:06:48Z,1365074.653,NULL,Ergänzung,kijalizo,d,NA,NA,NA,NA,sdf,NA,5,NA,NA,NA,NA,NA,NA,NA,NA,NA,NA,NA,NA,NA,NA,NA,NA,NA,NA,NA
50374,shallow,flow.Sequence,3_0_5_0_6_1,NA,NA,skipped,NA,1365063.8,NA,NA,1365057.987,1365064,2023-08-08T12:06:48Z,1365074.653,NULL,Ergänzung,kijalizo,d,NA,NA,NA,NA,sdf,NA,5,NA,NA,NA,NA,NA,NA,NA,NA,NA,NA,NA,NA,NA,NA,NA,NA,NA,NA,NA
50374,task,flow.Sequence,3_0_5_0_6,NA,NA,completion,8616.3219999999,1356433.7,1356424.999,1356441.665,1365057.987,1365064.1,2023-08-08T12:06:48Z,1365074.653,NULL,Ergänzung,kijalizo,d,NA,NA,NA,NA,sdf,NA,5,NA,NA,NA,NA,NA,NA,NA,NA,NA,NA,NA,NA,NA,NA,NA,NA,NA,NA,NA
50374,deep,flow.Sequence,3_0_5_0_7_0,NA,NA,skipped,NA,1365064.3,NA,NA,1365057.987,1365064.4,2023-08-08T12:06:48Z,1365074.653,NULL,Notfall,dharura,s,rairai,malalamiko,ahueni,NA,sdf,NA,5,NA,NA,NA,NA,NA,NA,NA,NA,NA,NA,NA,NA,NA,NA,NA,NA,NA,NA,NA
50374,Shallow Question,html.Page,3_0_5_0_7_1_0,NA,NA,form submission,4008.4470000016,1365064.6,1365057.987,1365074.653,1369083.1,1369083.7,2023-08-08T12:06:52Z,1369091.886,NULL,Notfall,dharura,s,rairai,malalamiko,ahueni,dharura,NA,NA,5,NA,NA,NA,NA,NA,NA,NA,NA,NA,NA,NA,NA,NA,NA,NA,NA,NA,NA,NA
50374,"""Richtig""-Screen",canvas.Screen,3_0_5_0_7_1_1,NA,NA,timeout,4999.8,1369086.7,1369075.22,1369091.886,1374075.02,1374079.4,2023-08-08T12:06:57Z,1374091.686,NULL,Notfall,dharura,s,rairai,malalamiko,ahueni,NA,sdf,1,5,NA,NA,NA,NA,NA,NA,NA,NA,NA,NA,NA,NA,NA,NA,NA,NA,NA,NA,NA
50374,"""Falsch""-Screen",canvas.Screen,3_0_5_0_7_1_2,NA,NA,skipped,NA,1374083.3,NA,NA,1374075.02,1374083.5,2023-08-08T12:06:57Z,1374091.686,NULL,Notfall,dharura,s,rairai,malalamiko,ahueni,NA,sdf,NA,5,NA,NA,NA,NA,NA,NA,NA,NA,NA,NA,NA,NA,NA,NA,NA,NA,NA,NA,NA
50374,shallow,flow.Sequence,3_0_5_0_7_1,NA,NA,completion,9000.3670000001,1365064.5,1365057.987,1365074.653,1374075.02,1374083.6,2023-08-08T12:06:57Z,1374091.686,NULL,Notfall,dharura,s,rairai,malalamiko,ahueni,NA,sdf,NA,5,NA,NA,NA,NA,NA,NA,NA,NA,NA,NA,NA,NA,NA,NA,NA,NA,NA,NA,NA
50374,task,flow.Sequence,3_0_5_0_7,NA,NA,completion,9000.3670000001,1365064.3,1365057.987,1365074.653,1374075.02,1374083.7,2023-08-08T12:06:57Z,1374091.686,NULL,Notfall,dharura,s,rairai,malalamiko,ahueni,NA,sdf,NA,5,NA,NA,NA,NA,NA,NA,NA,NA,NA,NA,NA,NA,NA,NA,NA,NA,NA,NA,NA
50374,block,flow.Loop,3_0_5_0,NA,NA,completion,92034.231,1282038.4,1282024.123,1282040.789,1374075.02,1374083.9,2023-08-08T12:06:57Z,1374091.686,NULL,NA,NA,NA,NA,NA,NA,NA,sdf,NA,5,NA,NA,NA,NA,NA,NA,NA,NA,NA,NA,NA,NA,NA,NA,NA,NA,NA,NA,NA
50374,weiter,canvas.Screen,3_0_5_1,sdf,keypress(Space),response,1238.1140000008,1374084,1374075.02,1374091.686,1375329.8,1375333.3,2023-08-08T12:06:58Z,1375358.302,NULL,NA,NA,NA,NA,NA,NA,NA,sdf,NA,5,NA,NA,NA,NA,NA,NA,NA,NA,NA,NA,NA,NA,NA,NA,NA,NA,NA,NA,NA
50374,check continue,flow.Sequence,3_0_5,NA,NA,completion,93289.011000001,1282038.4,1282024.123,1282040.789,1375329.8,1375333.7,2023-08-08T12:06:58Z,1375358.302,NULL,NA,NA,NA,NA,NA,NA,NA,sdf,NA,5,NA,NA,NA,NA,NA,NA,NA,NA,NA,NA,NA,NA,NA,NA,NA,NA,NA,NA,NA
50374,Deep Question,html.Page,3_0_6_0_0_0_0,NA,NA,form submission,3675.1980000001,1375357.5,1375324.97,1375358.302,1379033.5,1379033.9,2023-08-08T12:07:02Z,1379041.979,NULL,Ergänzung,kijalizo,d,NA,NA,NA,sefawel,NA,NA,6,NA,NA,NA,NA,NA,NA,NA,NA,NA,NA,NA,NA,NA,NA,NA,NA,NA,NA,NA
50374,"""Richtig""-Screen",canvas.Screen,3_0_6_0_0_0_1,NA,NA,skipped,NA,1379035,NA,NA,1379033.5,1379035.1,2023-08-08T12:07:02Z,1379041.979,NULL,Ergänzung,kijalizo,d,NA,NA,NA,NA,dfs,NA,6,NA,NA,NA,NA,NA,NA,NA,NA,NA,NA,NA,NA,NA,NA,NA,NA,NA,NA,NA
50374,"""Falsch""-Screen",canvas.Screen,3_0_6_0_0_0_2,NA,NA,timeout,4999.8,1379035.7,1379025.313,1379041.979,1384025.113,1384027.5,2023-08-08T12:07:07Z,1384041.779,NULL,Ergänzung,kijalizo,d,NA,NA,NA,NA,dfs,0,6,NA,NA,NA,NA,NA,NA,NA,NA,NA,NA,NA,NA,NA,NA,NA,NA,NA,NA,NA
50374,deep,flow.Sequence,3_0_6_0_0_0,NA,NA,completion,8666.811,1375357.5,1375324.97,1375358.302,1384025.113,1384028,2023-08-08T12:07:07Z,1384041.779,NULL,Ergänzung,kijalizo,d,NA,NA,NA,NA,dfs,NA,6,NA,NA,NA,NA,NA,NA,NA,NA,NA,NA,NA,NA,NA,NA,NA,NA,NA,NA,NA
50374,shallow,flow.Sequence,3_0_6_0_0_1,NA,NA,skipped,NA,1384028.1,NA,NA,1384025.113,1384028.2,2023-08-08T12:07:07Z,1384041.779,NULL,Ergänzung,kijalizo,d,NA,NA,NA,NA,dfs,NA,6,NA,NA,NA,NA,NA,NA,NA,NA,NA,NA,NA,NA,NA,NA,NA,NA,NA,NA,NA
50374,task,flow.Sequence,3_0_6_0_0,NA,NA,completion,8666.811,1375357.5,1375324.97,1375358.302,1384025.113,1384028.4,2023-08-08T12:07:07Z,1384041.779,NULL,Ergänzung,kijalizo,d,NA,NA,NA,NA,dfs,NA,6,NA,NA,NA,NA,NA,NA,NA,NA,NA,NA,NA,NA,NA,NA,NA,NA,NA,NA,NA
50374,deep,flow.Sequence,3_0_6_0_1_0,NA,NA,skipped,NA,1384028.5,NA,NA,1384025.113,1384028.6,2023-08-08T12:07:07Z,1384041.779,NULL,Orientierung,urekebisho,s,uelekeo,marekebisho,utunzaji,NA,dfs,NA,6,NA,NA,NA,NA,NA,NA,NA,NA,NA,NA,NA,NA,NA,NA,NA,NA,NA,NA,NA
50374,Shallow Question,html.Page,3_0_6_0_1_1_0,NA,NA,form submission,4341.7209999999,1384028.8,1384025.113,1384041.779,1388383.5,1388384,2023-08-08T12:07:11Z,1388392.149,NULL,Orientierung,urekebisho,s,uelekeo,marekebisho,utunzaji,urekebisho,NA,NA,6,NA,NA,NA,NA,NA,NA,NA,NA,NA,NA,NA,NA,NA,NA,NA,NA,NA,NA,NA
50374,"""Richtig""-Screen",canvas.Screen,3_0_6_0_1_1_1,NA,NA,timeout,4999.8,1388386.8,1388375.483,1388392.149,1393375.283,1393379.8,2023-08-08T12:07:16Z,1393391.949,NULL,Orientierung,urekebisho,s,uelekeo,marekebisho,utunzaji,NA,dfs,1,6,NA,NA,NA,NA,NA,NA,NA,NA,NA,NA,NA,NA,NA,NA,NA,NA,NA,NA,NA
50374,"""Falsch""-Screen",canvas.Screen,3_0_6_0_1_1_2,NA,NA,skipped,NA,1393383.4,NA,NA,1393375.283,1393383.5,2023-08-08T12:07:16Z,1393391.949,NULL,Orientierung,urekebisho,s,uelekeo,marekebisho,utunzaji,NA,dfs,NA,6,NA,NA,NA,NA,NA,NA,NA,NA,NA,NA,NA,NA,NA,NA,NA,NA,NA,NA,NA
50374,shallow,flow.Sequence,3_0_6_0_1_1,NA,NA,completion,9333.504,1384028.7,1384025.113,1384041.779,1393375.283,1393383.6,2023-08-08T12:07:16Z,1393391.949,NULL,Orientierung,urekebisho,s,uelekeo,marekebisho,utunzaji,NA,dfs,NA,6,NA,NA,NA,NA,NA,NA,NA,NA,NA,NA,NA,NA,NA,NA,NA,NA,NA,NA,NA
50374,task,flow.Sequence,3_0_6_0_1,NA,NA,completion,9333.504,1384028.5,1384025.113,1384041.779,1393375.283,1393383.7,2023-08-08T12:07:16Z,1393391.949,NULL,Orientierung,urekebisho,s,uelekeo,marekebisho,utunzaji,NA,dfs,NA,6,NA,NA,NA,NA,NA,NA,NA,NA,NA,NA,NA,NA,NA,NA,NA,NA,NA,NA,NA
50374,Deep Question,html.Page,3_0_6_0_2_0_0,NA,NA,form submission,7624.2509999992,1393383.9,1393375.283,1393391.949,1401016.2,1401016.5,2023-08-08T12:07:24Z,1401025.501,NULL,Wohlstand,mafanikio,d,NA,NA,NA,mafakinio,NA,NA,6,NA,NA,NA,NA,NA,NA,NA,NA,NA,NA,NA,NA,NA,NA,NA,NA,NA,NA,NA
50374,"""Richtig""-Screen",canvas.Screen,3_0_6_0_2_0_1,NA,NA,skipped,NA,1401019,NA,NA,1401016.2,1401019.1,2023-08-08T12:07:24Z,1401025.501,NULL,Wohlstand,mafanikio,d,NA,NA,NA,NA,dfs,NA,6,NA,NA,NA,NA,NA,NA,NA,NA,NA,NA,NA,NA,NA,NA,NA,NA,NA,NA,NA
50374,"""Falsch""-Screen",canvas.Screen,3_0_6_0_2_0_2,NA,NA,timeout,4999.8,1401019.7,1401008.835,1401025.501,1406008.635,1406013.8,2023-08-08T12:07:29Z,1406025.301,NULL,Wohlstand,mafanikio,d,NA,NA,NA,NA,dfs,0,6,NA,NA,NA,NA,NA,NA,NA,NA,NA,NA,NA,NA,NA,NA,NA,NA,NA,NA,NA
50374,deep,flow.Sequence,3_0_6_0_2_0,NA,NA,completion,12616.686,1393383.9,1393375.283,1393391.949,1406008.635,1406014.2,2023-08-08T12:07:29Z,1406025.301,NULL,Wohlstand,mafanikio,d,NA,NA,NA,NA,dfs,NA,6,NA,NA,NA,NA,NA,NA,NA,NA,NA,NA,NA,NA,NA,NA,NA,NA,NA,NA,NA
50374,shallow,flow.Sequence,3_0_6_0_2_1,NA,NA,skipped,NA,1406014.4,NA,NA,1406008.635,1406014.5,2023-08-08T12:07:29Z,1406025.301,NULL,Wohlstand,mafanikio,d,NA,NA,NA,NA,dfs,NA,6,NA,NA,NA,NA,NA,NA,NA,NA,NA,NA,NA,NA,NA,NA,NA,NA,NA,NA,NA
50374,task,flow.Sequence,3_0_6_0_2,NA,NA,completion,12616.686,1393383.9,1393375.283,1393391.949,1406008.635,1406014.8,2023-08-08T12:07:29Z,1406025.301,NULL,Wohlstand,mafanikio,d,NA,NA,NA,NA,dfs,NA,6,NA,NA,NA,NA,NA,NA,NA,NA,NA,NA,NA,NA,NA,NA,NA,NA,NA,NA,NA
50374,deep,flow.Sequence,3_0_6_0_3_0,NA,NA,skipped,NA,1406014.8,NA,NA,1406008.635,1406015,2023-08-08T12:07:29Z,1406025.301,NULL,Respekt,heshima,s,changamnao,upinzani,ufanisi,NA,dfs,NA,6,NA,NA,NA,NA,NA,NA,NA,NA,NA,NA,NA,NA,NA,NA,NA,NA,NA,NA,NA
50374,Shallow Question,html.Page,3_0_6_0_3_1_0,NA,NA,form submission,4108.2990000015,1406015.1,1406008.635,1406025.301,1410133.6,1410134.1,2023-08-08T12:07:33Z,1410142.294,NULL,Respekt,heshima,s,changamnao,upinzani,ufanisi,heshima,NA,NA,6,NA,NA,NA,NA,NA,NA,NA,NA,NA,NA,NA,NA,NA,NA,NA,NA,NA,NA,NA
50374,"""Richtig""-Screen",canvas.Screen,3_0_6_0_3_1_1,NA,NA,timeout,4999.8,1410136.9,1410125.628,1410142.294,1415125.428,1415130.8,2023-08-08T12:07:38Z,1415142.094,NULL,Respekt,heshima,s,changamnao,upinzani,ufanisi,NA,dfs,1,6,NA,NA,NA,NA,NA,NA,NA,NA,NA,NA,NA,NA,NA,NA,NA,NA,NA,NA,NA
50374,"""Falsch""-Screen",canvas.Screen,3_0_6_0_3_1_2,NA,NA,skipped,NA,1415134.3,NA,NA,1415125.428,1415134.4,2023-08-08T12:07:38Z,1415142.094,NULL,Respekt,heshima,s,changamnao,upinzani,ufanisi,NA,dfs,NA,6,NA,NA,NA,NA,NA,NA,NA,NA,NA,NA,NA,NA,NA,NA,NA,NA,NA,NA,NA
50374,shallow,flow.Sequence,3_0_6_0_3_1,NA,NA,completion,9100.1270000001,1406015.1,1406008.635,1406025.301,1415125.428,1415134.5,2023-08-08T12:07:38Z,1415142.094,NULL,Respekt,heshima,s,changamnao,upinzani,ufanisi,NA,dfs,NA,6,NA,NA,NA,NA,NA,NA,NA,NA,NA,NA,NA,NA,NA,NA,NA,NA,NA,NA,NA
50374,task,flow.Sequence,3_0_6_0_3,NA,NA,completion,9100.1270000001,1406014.8,1406008.635,1406025.301,1415125.428,1415134.6,2023-08-08T12:07:38Z,1415142.094,NULL,Respekt,heshima,s,changamnao,upinzani,ufanisi,NA,dfs,NA,6,NA,NA,NA,NA,NA,NA,NA,NA,NA,NA,NA,NA,NA,NA,NA,NA,NA,NA,NA
