observation,sender,sender_type,sender_id,response,response_action,ended_on,duration,time_run,time_render,time_show,time_end,time_commit,timestamp,time_switch,german,swahili,enc,distractor1,distractor2,distractor3,response_2,x,correct,distractors,url_vp,url_sess,meta_labjs_version,meta_location,meta_user_agent,meta_platform,meta_language,meta_locale,meta_time_zone,meta_timezone_offset,meta_screen_width,meta_screen_height,meta_scroll_width,meta_scroll_height,meta_window_inner_width,meta_window_inner_height,meta_device_pixel_ratio,meta_labjs_build_flavor,meta_labjs_build_commit
39ac2,Introduction delayed retrieval,canvas.Screen,0,weiter,keypress(Space),response,6351.7480000477,569.20000004768,209.623,592.952,6944.7000000477,6947.4000000358,2023-08-24T08:33:23Z,6951.468,NA,NA,NA,NA,NA,NA,NA,NA,NA,NULL,130,4,20.2.4,https://neurocog.fernuni.ch/studies/vweber/delayed/index.html?vp=130&sess=4,"Mozilla/5.0 (Windows NT 10.0; Win64; x64) AppleWebKit/537.36 (KHTML, like Gecko) Chrome/116.0.0.0 Safari/537.36 Edg/116.0.1938.54",Win32,de,de-CH,Europe/Zurich,-120,1280,800,1225,641,1225,689,3,production,f5b4a49f956347addd546a832a3327688c2c0fef
39ac2,Deep Question,html.Page,1_0_0_0,NA,NA,form submission,5413.2320000477,6947.8000000119,6933.476,6951.468,12364.700000048,12365.100000024,2023-08-24T08:33:29Z,12367.056,Aufstand,ugomaji,s,mazidio,msingi,kujieleza,jserlge,NA,NA,NULL,NA,NA,NA,NA,NA,NA,NA,NA,NA,NA,NA,NA,NA,NA,NA,NA,NA,NA,NA
39ac2,Save data screen,canvas.Screen,1_0_0_1,NA,NA,timeout,506.777,12366.200000048,12350.031,12367.056,12857.173,12857.900000036,2023-08-24T08:33:29Z,12873.833,Aufstand,ugomaji,s,mazidio,msingi,kujieleza,NA,NA,0,NULL,NA,NA,NA,NA,NA,NA,NA,NA,NA,NA,NA,NA,NA,NA,NA,NA,NA,NA,NA
39ac2,deep,flow.Sequence,1_0_0,NA,NA,completion,5905.705,6947.8000000119,6933.476,6951.468,12857.173,12858.300000012,2023-08-24T08:33:29Z,12873.833,Aufstand,ugomaji,s,mazidio,msingi,kujieleza,NA,NA,NA,NULL,NA,NA,NA,NA,NA,NA,NA,NA,NA,NA,NA,NA,NA,NA,NA,NA,NA,NA,NA
39ac2,task,flow.Sequence,1_0,NA,NA,completion,5905.705,6947.8000000119,6933.476,6951.468,12857.173,12858.400000036,2023-08-24T08:33:29Z,12873.833,Aufstand,ugomaji,s,mazidio,msingi,kujieleza,NA,NA,NA,NULL,NA,NA,NA,NA,NA,NA,NA,NA,NA,NA,NA,NA,NA,NA,NA,NA,NA,NA,NA
39ac2,Deep Question,html.Page,1_1_0_0,NA,NA,form submission,5421.7670000238,12858.600000024,12857.173,12873.833,18295.600000024,18296.100000024,2023-08-24T08:33:35Z,18298.868,Prüfung,mtihani,s,mkulima,mtizamo,ufumbuzi,jfawld,NA,NA,NULL,NA,NA,NA,NA,NA,NA,NA,NA,NA,NA,NA,NA,NA,NA,NA,NA,NA,NA,NA
39ac2,Save data screen,canvas.Screen,1_1_0_1,NA,NA,timeout,503.822,18297.5,18280.982,18298.868,18786.024,18787.300000012,2023-08-24T08:33:35Z,18802.69,Prüfung,mtihani,s,mkulima,mtizamo,ufumbuzi,NA,NA,0,NULL,NA,NA,NA,NA,NA,NA,NA,NA,NA,NA,NA,NA,NA,NA,NA,NA,NA,NA,NA
39ac2,deep,flow.Sequence,1_1_0,NA,NA,completion,5912.191,12858.600000024,12857.173,12873.833,18786.024,18787.600000024,2023-08-24T08:33:35Z,18802.69,Prüfung,mtihani,s,mkulima,mtizamo,ufumbuzi,NA,NA,NA,NULL,NA,NA,NA,NA,NA,NA,NA,NA,NA,NA,NA,NA,NA,NA,NA,NA,NA,NA,NA
39ac2,task,flow.Sequence,1_1,NA,NA,completion,5912.191,12858.5,12857.173,12873.833,18786.024,18787.800000012,2023-08-24T08:33:35Z,18802.69,Prüfung,mtihani,s,mkulima,mtizamo,ufumbuzi,NA,NA,NA,NULL,NA,NA,NA,NA,NA,NA,NA,NA,NA,NA,NA,NA,NA,NA,NA,NA,NA,NA,NA
39ac2,Deep Question,html.Page,1_2_0_0,NA,NA,form submission,7002.5100000477,18788.100000024,18786.024,18802.69,25805.200000048,25805.600000024,2023-08-24T08:33:42Z,25810.525,Können,unaweza,s,kiongozi,bustani,mienendo,ajsfle,NA,NA,NULL,NA,NA,NA,NA,NA,NA,NA,NA,NA,NA,NA,NA,NA,NA,NA,NA,NA,NA,NA
39ac2,Save data screen,canvas.Screen,1_2_0_1,NA,NA,timeout,492.975,25806.600000024,25792.823,25810.525,26286.975,26288,2023-08-24T08:33:43Z,26303.5,Können,unaweza,s,kiongozi,bustani,mienendo,NA,NA,0,NULL,NA,NA,NA,NA,NA,NA,NA,NA,NA,NA,NA,NA,NA,NA,NA,NA,NA,NA,NA
39ac2,deep,flow.Sequence,1_2_0,NA,NA,completion,7484.285,18788.100000024,18786.024,18802.69,26286.975,26288.300000012,2023-08-24T08:33:43Z,26303.5,Können,unaweza,s,kiongozi,bustani,mienendo,NA,NA,NA,NULL,NA,NA,NA,NA,NA,NA,NA,NA,NA,NA,NA,NA,NA,NA,NA,NA,NA,NA,NA
39ac2,task,flow.Sequence,1_2,NA,NA,completion,7484.285,18788,18786.024,18802.69,26286.975,26288.5,2023-08-24T08:33:43Z,26303.5,Können,unaweza,s,kiongozi,bustani,mienendo,NA,NA,NA,NULL,NA,NA,NA,NA,NA,NA,NA,NA,NA,NA,NA,NA,NA,NA,NA,NA,NA,NA,NA
39ac2,Deep Question,html.Page,1_3_0_0,NA,NA,form submission,3875.2000000477,26288.700000048,26286.975,26303.5,30178.700000048,30179,2023-08-24T08:33:47Z,30182.412,Lawine,banguko,s,maambukizi,usuluhishi,chekechea,dajfwle,NA,NA,NULL,NA,NA,NA,NA,NA,NA,NA,NA,NA,NA,NA,NA,NA,NA,NA,NA,NA,NA,NA
39ac2,Save data screen,canvas.Screen,1_3_0_1,NA,NA,timeout,499.69,30179.800000012,30176.408,30182.412,30665.264,30666.600000024,2023-08-24T08:33:47Z,30682.102,Lawine,banguko,s,maambukizi,usuluhishi,chekechea,NA,NA,0,NULL,NA,NA,NA,NA,NA,NA,NA,NA,NA,NA,NA,NA,NA,NA,NA,NA,NA,NA,NA
39ac2,deep,flow.Sequence,1_3_0,NA,NA,completion,4361.764,26288.700000048,26286.975,26303.5,30665.264,30667,2023-08-24T08:33:47Z,30682.102,Lawine,banguko,s,maambukizi,usuluhishi,chekechea,NA,NA,NA,NULL,NA,NA,NA,NA,NA,NA,NA,NA,NA,NA,NA,NA,NA,NA,NA,NA,NA,NA,NA
39ac2,task,flow.Sequence,1_3,NA,NA,completion,4361.764,26288.600000024,26286.975,26303.5,30665.264,30667.200000048,2023-08-24T08:33:47Z,30682.102,Lawine,banguko,s,maambukizi,usuluhishi,chekechea,NA,NA,NA,NULL,NA,NA,NA,NA,NA,NA,NA,NA,NA,NA,NA,NA,NA,NA,NA,NA,NA,NA,NA
39ac2,Deep Question,html.Page,1_4_0_0,NA,NA,form submission,5271.4980000238,30667.400000036,30665.264,30682.102,35953.600000024,35953.900000036,2023-08-24T08:33:53Z,35957.179,Abrechnung,uhasibu,d,kusahihisha,mpambano,mashambulizi,dafelww,NA,NA,NULL,NA,NA,NA,NA,NA,NA,NA,NA,NA,NA,NA,NA,NA,NA,NA,NA,NA,NA,NA
39ac2,Save data screen,canvas.Screen,1_4_0_1,NA,NA,timeout,493.95,35954.900000036,35941.877,35957.179,36434.441,36435.300000012,2023-08-24T08:33:53Z,36451.129,Abrechnung,uhasibu,d,kusahihisha,mpambano,mashambulizi,NA,NA,0,NULL,NA,NA,NA,NA,NA,NA,NA,NA,NA,NA,NA,NA,NA,NA,NA,NA,NA,NA,NA
39ac2,deep,flow.Sequence,1_4_0,NA,NA,completion,5752.339,30667.400000036,30665.264,30682.102,36434.441,36435.5,2023-08-24T08:33:53Z,36451.129,Abrechnung,uhasibu,d,kusahihisha,mpambano,mashambulizi,NA,NA,NA,NULL,NA,NA,NA,NA,NA,NA,NA,NA,NA,NA,NA,NA,NA,NA,NA,NA,NA,NA,NA
39ac2,task,flow.Sequence,1_4,NA,NA,completion,5752.339,30667.400000036,30665.264,30682.102,36434.441,36435.700000048,2023-08-24T08:33:53Z,36451.129,Abrechnung,uhasibu,d,kusahihisha,mpambano,mashambulizi,NA,NA,NA,NULL,NA,NA,NA,NA,NA,NA,NA,NA,NA,NA,NA,NA,NA,NA,NA,NA,NA,NA,NA
39ac2,Deep Question,html.Page,1_5_0_0,NA,NA,form submission,7680.6710000119,36435.900000036,36434.441,36451.129,44131.800000012,44132.100000024,2023-08-24T08:34:01Z,44135.412,Kultur,utamaduni,d,shetani,gerezani,mazingira,kiwagi,NA,NA,NULL,NA,NA,NA,NA,NA,NA,NA,NA,NA,NA,NA,NA,NA,NA,NA,NA,NA,NA,NA
39ac2,Save data screen,canvas.Screen,1_5_0_1,NA,NA,timeout,502.75700000001,44133.200000048,44122.72,44135.412,44621.483,44623,2023-08-24T08:34:01Z,44638.169,Kultur,utamaduni,d,shetani,gerezani,mazingira,NA,NA,0,NULL,NA,NA,NA,NA,NA,NA,NA,NA,NA,NA,NA,NA,NA,NA,NA,NA,NA,NA,NA
39ac2,deep,flow.Sequence,1_5_0,NA,NA,completion,8170.354,36435.800000012,36434.441,36451.129,44621.483,44623.200000048,2023-08-24T08:34:01Z,44638.169,Kultur,utamaduni,d,shetani,gerezani,mazingira,NA,NA,NA,NULL,NA,NA,NA,NA,NA,NA,NA,NA,NA,NA,NA,NA,NA,NA,NA,NA,NA,NA,NA
39ac2,task,flow.Sequence,1_5,NA,NA,completion,8170.354,36435.800000012,36434.441,36451.129,44621.483,44623.300000012,2023-08-24T08:34:01Z,44638.169,Kultur,utamaduni,d,shetani,gerezani,mazingira,NA,NA,NA,NULL,NA,NA,NA,NA,NA,NA,NA,NA,NA,NA,NA,NA,NA,NA,NA,NA,NA,NA,NA
39ac2,Deep Question,html.Page,1_6_0_0,NA,NA,form submission,5722.5310000477,44623.5,44621.483,44638.169,50360.700000048,50361,2023-08-24T08:34:07Z,50385.139,Übersicht,kilindo,d,mgusano,chipukizi,kulinganisha,awewa,NA,NA,NULL,NA,NA,NA,NA,NA,NA,NA,NA,NA,NA,NA,NA,NA,NA,NA,NA,NA,NA,NA
39ac2,Save data screen,canvas.Screen,1_6_0_1,NA,NA,timeout,507.09,50361.800000012,50344.389,50385.139,50875.584,50876.800000012,2023-08-24T08:34:07Z,50892.229,Übersicht,kilindo,d,mgusano,chipukizi,kulinganisha,NA,NA,0,NULL,NA,NA,NA,NA,NA,NA,NA,NA,NA,NA,NA,NA,NA,NA,NA,NA,NA,NA,NA
39ac2,deep,flow.Sequence,1_6_0,NA,NA,completion,6237.415,44623.400000036,44621.483,44638.169,50875.584,50877.100000024,2023-08-24T08:34:07Z,50892.229,Übersicht,kilindo,d,mgusano,chipukizi,kulinganisha,NA,NA,NA,NULL,NA,NA,NA,NA,NA,NA,NA,NA,NA,NA,NA,NA,NA,NA,NA,NA,NA,NA,NA
39ac2,task,flow.Sequence,1_6,NA,NA,completion,6237.415,44623.400000036,44621.483,44638.169,50875.584,50877.400000036,2023-08-24T08:34:07Z,50892.229,Übersicht,kilindo,d,mgusano,chipukizi,kulinganisha,NA,NA,NA,NULL,NA,NA,NA,NA,NA,NA,NA,NA,NA,NA,NA,NA,NA,NA,NA,NA,NA,NA,NA
39ac2,Deep Question,html.Page,1_7_0_0,NA,NA,form submission,7368.9710000477,50877.700000048,50875.584,50892.229,58261.200000048,58261.400000036,2023-08-24T08:34:15Z,58265.093,Körper,kiwiliwili,d,mapambano,mpatanishi,kiolezo,kiwiliwili,NA,NA,NULL,NA,NA,NA,NA,NA,NA,NA,NA,NA,NA,NA,NA,NA,NA,NA,NA,NA,NA,NA
39ac2,Save data screen,canvas.Screen,1_7_0_1,NA,NA,timeout,498.465,58262.100000024,58244.587,58265.093,58746.994,58748,2023-08-24T08:34:15Z,58763.558,Körper,kiwiliwili,d,mapambano,mpatanishi,kiolezo,NA,NA,1,NULL,NA,NA,NA,NA,NA,NA,NA,NA,NA,NA,NA,NA,NA,NA,NA,NA,NA,NA,NA
39ac2,deep,flow.Sequence,1_7_0,NA,NA,completion,7854.765,50877.700000048,50875.584,50892.229,58746.994,58748.200000048,2023-08-24T08:34:15Z,58763.558,Körper,kiwiliwili,d,mapambano,mpatanishi,kiolezo,NA,NA,NA,NULL,NA,NA,NA,NA,NA,NA,NA,NA,NA,NA,NA,NA,NA,NA,NA,NA,NA,NA,NA
39ac2,task,flow.Sequence,1_7,NA,NA,completion,7854.765,50877.5,50875.584,50892.229,58746.994,58748.400000036,2023-08-24T08:34:15Z,58763.558,Körper,kiwiliwili,d,mapambano,mpatanishi,kiolezo,NA,NA,NA,NULL,NA,NA,NA,NA,NA,NA,NA,NA,NA,NA,NA,NA,NA,NA,NA,NA,NA,NA,NA
39ac2,Deep Question,html.Page,1_8_0_0,NA,NA,form submission,6878.942,58748.5,58746.994,58763.558,65642.5,65642.800000012,2023-08-24T08:34:22Z,65645.889,Angreifer,mshambulizi,s,kitengo,tasinia,usafirishaji,jfwaoe,NA,NA,NULL,NA,NA,NA,NA,NA,NA,NA,NA,NA,NA,NA,NA,NA,NA,NA,NA,NA,NA,NA
39ac2,Save data screen,canvas.Screen,1_8_0_1,NA,NA,timeout,507.83900000001,65645.700000048,65637.343,65645.889,66137.064,66139,2023-08-24T08:34:23Z,66153.728,Angreifer,mshambulizi,s,kitengo,tasinia,usafirishaji,NA,NA,0,NULL,NA,NA,NA,NA,NA,NA,NA,NA,NA,NA,NA,NA,NA,NA,NA,NA,NA,NA,NA
39ac2,deep,flow.Sequence,1_8_0,NA,NA,completion,7373.506,58748.400000036,58746.994,58763.558,66137.064,66139.100000024,2023-08-24T08:34:23Z,66153.728,Angreifer,mshambulizi,s,kitengo,tasinia,usafirishaji,NA,NA,NA,NULL,NA,NA,NA,NA,NA,NA,NA,NA,NA,NA,NA,NA,NA,NA,NA,NA,NA,NA,NA
39ac2,task,flow.Sequence,1_8,NA,NA,completion,7373.506,58748.400000036,58746.994,58763.558,66137.064,66139.200000048,2023-08-24T08:34:23Z,66153.728,Angreifer,mshambulizi,s,kitengo,tasinia,usafirishaji,NA,NA,NA,NULL,NA,NA,NA,NA,NA,NA,NA,NA,NA,NA,NA,NA,NA,NA,NA,NA,NA,NA,NA
39ac2,Deep Question,html.Page,1_9_0_0,NA,NA,form submission,5048.6720000358,66139.200000048,66137.064,66153.728,71202.400000036,71202.600000024,2023-08-24T08:34:28Z,71206.4,Verzögerung,kuchelewa,d,mwakilishi,mwanauchumi,jaribio,ajfwlewa,NA,NA,NULL,NA,NA,NA,NA,NA,NA,NA,NA,NA,NA,NA,NA,NA,NA,NA,NA,NA,NA,NA
39ac2,Save data screen,canvas.Screen,1_9_0_1,NA,NA,timeout,501.60000000001,71203.200000048,71190.567,71206.4,71691.287,71692.700000048,2023-08-24T08:34:28Z,71708,Verzögerung,kuchelewa,d,mwakilishi,mwanauchumi,jaribio,NA,NA,0,NULL,NA,NA,NA,NA,NA,NA,NA,NA,NA,NA,NA,NA,NA,NA,NA,NA,NA,NA,NA
39ac2,deep,flow.Sequence,1_9_0,NA,NA,completion,5537.559,66139.200000048,66137.064,66153.728,71691.287,71693.100000024,2023-08-24T08:34:28Z,71708,Verzögerung,kuchelewa,d,mwakilishi,mwanauchumi,jaribio,NA,NA,NA,NULL,NA,NA,NA,NA,NA,NA,NA,NA,NA,NA,NA,NA,NA,NA,NA,NA,NA,NA,NA
39ac2,task,flow.Sequence,1_9,NA,NA,completion,5537.559,66139.200000048,66137.064,66153.728,71691.287,71693.300000012,2023-08-24T08:34:28Z,71708,Verzögerung,kuchelewa,d,mwakilishi,mwanauchumi,jaribio,NA,NA,NA,NULL,NA,NA,NA,NA,NA,NA,NA,NA,NA,NA,NA,NA,NA,NA,NA,NA,NA,NA,NA
39ac2,Deep Question,html.Page,1_10_0_0,NA,NA,form submission,12022.700000048,71693.600000024,71691.287,71708,83730.700000048,83730.800000012,2023-08-24T08:34:40Z,83734.067,System,maongozi,s,chokochoko,nuksani,mitaani,awelmfaw,NA,NA,NULL,NA,NA,NA,NA,NA,NA,NA,NA,NA,NA,NA,NA,NA,NA,NA,NA,NA,NA,NA
39ac2,Save data screen,canvas.Screen,1_10_0_1,NA,NA,timeout,501.19,83734.400000036,83714.123,83734.067,84218.652,84220.300000012,2023-08-24T08:34:41Z,84235.257,System,maongozi,s,chokochoko,nuksani,mitaani,NA,NA,0,NULL,NA,NA,NA,NA,NA,NA,NA,NA,NA,NA,NA,NA,NA,NA,NA,NA,NA,NA,NA
39ac2,deep,flow.Sequence,1_10_0,NA,NA,completion,12510.652,71693.5,71691.287,71708,84218.652,84220.700000048,2023-08-24T08:34:41Z,84235.257,System,maongozi,s,chokochoko,nuksani,mitaani,NA,NA,NA,NULL,NA,NA,NA,NA,NA,NA,NA,NA,NA,NA,NA,NA,NA,NA,NA,NA,NA,NA,NA
39ac2,task,flow.Sequence,1_10,NA,NA,completion,12510.652,71693.400000036,71691.287,71708,84218.652,84221.100000024,2023-08-24T08:34:41Z,84235.257,System,maongozi,s,chokochoko,nuksani,mitaani,NA,NA,NA,NULL,NA,NA,NA,NA,NA,NA,NA,NA,NA,NA,NA,NA,NA,NA,NA,NA,NA,NA,NA
39ac2,Deep Question,html.Page,1_11_0_0,NA,NA,form submission,5012.8430000238,84221.200000048,84218.652,84235.257,89248.100000024,89248.300000012,2023-08-24T08:34:46Z,89251.481,Sänger,mwimbaji,s,msichana,shughuli,mshirika,fjwoaefw,NA,NA,NULL,NA,NA,NA,NA,NA,NA,NA,NA,NA,NA,NA,NA,NA,NA,NA,NA,NA,NA,NA
39ac2,Save data screen,canvas.Screen,1_11_0_1,NA,NA,timeout,495.204,89249.300000012,89241.19,89251.481,89729.982,89731.100000024,2023-08-24T08:34:46Z,89746.685,Sänger,mwimbaji,s,msichana,shughuli,mshirika,NA,NA,0,NULL,NA,NA,NA,NA,NA,NA,NA,NA,NA,NA,NA,NA,NA,NA,NA,NA,NA,NA,NA
39ac2,deep,flow.Sequence,1_11_0,NA,NA,completion,5494.725,84221.200000048,84218.652,84235.257,89729.982,89731.300000012,2023-08-24T08:34:46Z,89746.685,Sänger,mwimbaji,s,msichana,shughuli,mshirika,NA,NA,NA,NULL,NA,NA,NA,NA,NA,NA,NA,NA,NA,NA,NA,NA,NA,NA,NA,NA,NA,NA,NA
39ac2,task,flow.Sequence,1_11,NA,NA,completion,5494.725,84221.100000024,84218.652,84235.257,89729.982,89731.400000036,2023-08-24T08:34:46Z,89746.685,Sänger,mwimbaji,s,msichana,shughuli,mshirika,NA,NA,NA,NULL,NA,NA,NA,NA,NA,NA,NA,NA,NA,NA,NA,NA,NA,NA,NA,NA,NA,NA,NA
39ac2,Deep Question,html.Page,1_12_0_0,NA,NA,form submission,4648.6150000119,89731.5,89729.982,89746.685,94395.300000012,94395.5,2023-08-24T08:34:51Z,94398.84,Kanzler,diwani,d,rasilmali,mahitaji,maabudu,dwoew,NA,NA,NULL,NA,NA,NA,NA,NA,NA,NA,NA,NA,NA,NA,NA,NA,NA,NA,NA,NA,NA,NA
39ac2,Save data screen,canvas.Screen,1_12_0_1,NA,NA,timeout,499.986,94396.400000036,94381.231,94398.84,94882.154,94882.600000024,2023-08-24T08:34:51Z,94898.826,Kanzler,diwani,d,rasilmali,mahitaji,maabudu,NA,NA,0,NULL,NA,NA,NA,NA,NA,NA,NA,NA,NA,NA,NA,NA,NA,NA,NA,NA,NA,NA,NA
39ac2,deep,flow.Sequence,1_12_0,NA,NA,completion,5135.469,89731.5,89729.982,89746.685,94882.154,94882.800000012,2023-08-24T08:34:51Z,94898.826,Kanzler,diwani,d,rasilmali,mahitaji,maabudu,NA,NA,NA,NULL,NA,NA,NA,NA,NA,NA,NA,NA,NA,NA,NA,NA,NA,NA,NA,NA,NA,NA,NA
39ac2,task,flow.Sequence,1_12,NA,NA,completion,5135.469,89731.5,89729.982,89746.685,94882.154,94882.800000012,2023-08-24T08:34:51Z,94898.826,Kanzler,diwani,d,rasilmali,mahitaji,maabudu,NA,NA,NA,NULL,NA,NA,NA,NA,NA,NA,NA,NA,NA,NA,NA,NA,NA,NA,NA,NA,NA,NA,NA
39ac2,Deep Question,html.Page,1_13_0_0,NA,NA,form submission,4480.4740000119,94882.900000036,94882.154,94898.826,99379.300000012,99379.400000036,2023-08-24T08:34:56Z,99382.831,Gefährdung,kuhatarisha,d,uchokozi,udhaifu,makorowezo,fmwlew,NA,NA,NULL,NA,NA,NA,NA,NA,NA,NA,NA,NA,NA,NA,NA,NA,NA,NA,NA,NA,NA,NA
39ac2,Save data screen,canvas.Screen,1_13_0_1,NA,NA,timeout,505.374,99380,99367.088,99382.831,99871.618,99872.600000024,2023-08-24T08:34:56Z,99888.205,Gefährdung,kuhatarisha,d,uchokozi,udhaifu,makorowezo,NA,NA,0,NULL,NA,NA,NA,NA,NA,NA,NA,NA,NA,NA,NA,NA,NA,NA,NA,NA,NA,NA,NA
39ac2,deep,flow.Sequence,1_13_0,NA,NA,completion,4972.792,94882.900000036,94882.154,94898.826,99871.618,99873.100000024,2023-08-24T08:34:56Z,99888.205,Gefährdung,kuhatarisha,d,uchokozi,udhaifu,makorowezo,NA,NA,NA,NULL,NA,NA,NA,NA,NA,NA,NA,NA,NA,NA,NA,NA,NA,NA,NA,NA,NA,NA,NA
39ac2,task,flow.Sequence,1_13,NA,NA,completion,4972.792,94882.900000036,94882.154,94898.826,99871.618,99873.300000012,2023-08-24T08:34:56Z,99888.205,Gefährdung,kuhatarisha,d,uchokozi,udhaifu,makorowezo,NA,NA,NA,NULL,NA,NA,NA,NA,NA,NA,NA,NA,NA,NA,NA,NA,NA,NA,NA,NA,NA,NA,NA
39ac2,Deep Question,html.Page,1_14_0_0,NA,NA,form submission,4111.8950000238,99873.5,99871.618,99888.205,104000.10000002,104000.20000005,2023-08-24T08:35:01Z,104003.935,Kontrolle,kudhibiti,d,mbinguni,kufunga,utegemezi,dafwoe,NA,NA,NULL,NA,NA,NA,NA,NA,NA,NA,NA,NA,NA,NA,NA,NA,NA,NA,NA,NA,NA,NA
39ac2,Save data screen,canvas.Screen,1_14_0_1,NA,NA,timeout,505.49800000001,104001.20000005,103990.812,104003.935,104492.798,104493.80000001,2023-08-24T08:35:01Z,104509.433,Kontrolle,kudhibiti,d,mbinguni,kufunga,utegemezi,NA,NA,0,NULL,NA,NA,NA,NA,NA,NA,NA,NA,NA,NA,NA,NA,NA,NA,NA,NA,NA,NA,NA
39ac2,deep,flow.Sequence,1_14_0,NA,NA,completion,4604.593,99873.5,99871.618,99888.205,104492.798,104494,2023-08-24T08:35:01Z,104509.433,Kontrolle,kudhibiti,d,mbinguni,kufunga,utegemezi,NA,NA,NA,NULL,NA,NA,NA,NA,NA,NA,NA,NA,NA,NA,NA,NA,NA,NA,NA,NA,NA,NA,NA
39ac2,task,flow.Sequence,1_14,NA,NA,completion,4604.593,99873.400000036,99871.618,99888.205,104492.798,104494.20000005,2023-08-24T08:35:01Z,104509.433,Kontrolle,kudhibiti,d,mbinguni,kufunga,utegemezi,NA,NA,NA,NULL,NA,NA,NA,NA,NA,NA,NA,NA,NA,NA,NA,NA,NA,NA,NA,NA,NA,NA,NA
39ac2,Deep Question,html.Page,1_15_0_0,NA,NA,form submission,8399.1670000238,104494.40000004,104492.798,104509.433,112908.60000002,112908.70000005,2023-08-24T08:35:09Z,112912.504,Kreativität,ubunifu,s,mratibu,mwendelezo,makubaliano,awefowa,NA,NA,NULL,NA,NA,NA,NA,NA,NA,NA,NA,NA,NA,NA,NA,NA,NA,NA,NA,NA,NA,NA
39ac2,Save data screen,canvas.Screen,1_15_0_1,NA,NA,timeout,505.238,112910.90000004,112898.151,112912.504,113401.075,113402,2023-08-24T08:35:10Z,113417.742,Kreativität,ubunifu,s,mratibu,mwendelezo,makubaliano,NA,NA,0,NULL,NA,NA,NA,NA,NA,NA,NA,NA,NA,NA,NA,NA,NA,NA,NA,NA,NA,NA,NA
39ac2,deep,flow.Sequence,1_15_0,NA,NA,completion,8891.642,104494.30000001,104492.798,104509.433,113401.075,113402.40000004,2023-08-24T08:35:10Z,113417.742,Kreativität,ubunifu,s,mratibu,mwendelezo,makubaliano,NA,NA,NA,NULL,NA,NA,NA,NA,NA,NA,NA,NA,NA,NA,NA,NA,NA,NA,NA,NA,NA,NA,NA
39ac2,task,flow.Sequence,1_15,NA,NA,completion,8891.642,104494.30000001,104492.798,104509.433,113401.075,113402.5,2023-08-24T08:35:10Z,113417.742,Kreativität,ubunifu,s,mratibu,mwendelezo,makubaliano,NA,NA,NA,NULL,NA,NA,NA,NA,NA,NA,NA,NA,NA,NA,NA,NA,NA,NA,NA,NA,NA,NA,NA
39ac2,retrieval block 1 (cued recall),flow.Loop,1,NA,NA,completion,106449.607,6947.7000000477,6933.476,6951.468,113401.075,113402.70000005,2023-08-24T08:35:10Z,113417.742,NA,NA,NA,NA,NA,NA,NA,NA,NA,NULL,NA,NA,NA,NA,NA,NA,NA,NA,NA,NA,NA,NA,NA,NA,NA,NA,NA,NA,NA
39ac2,Shallow Question,html.Page,2_0_0_0,NA,NA,form submission,8242.8580000238,113403,113401.075,113417.742,121660.60000002,121661,2023-08-24T08:35:18Z,121667.097,Lawine,banguko,s,maambukizi,usuluhishi,chekechea,banguko,NA,NA,"c(""distractor1"", ""distractor2"", ""distractor3"")",NA,NA,NA,NA,NA,NA,NA,NA,NA,NA,NA,NA,NA,NA,NA,NA,NA,NA,NA
39ac2,Save data screen,canvas.Screen,2_0_0_1,NA,NA,timeout,507.80900000001,121664,121650.533,121667.097,122158.266,122159.30000001,2023-08-24T08:35:19Z,122174.906,Lawine,banguko,s,maambukizi,usuluhishi,chekechea,NA,NA,1,"c(""distractor1"", ""distractor2"", ""distractor3"")",NA,NA,NA,NA,NA,NA,NA,NA,NA,NA,NA,NA,NA,NA,NA,NA,NA,NA,NA
39ac2,shallow,flow.Sequence,2_0_0,NA,NA,completion,8740.524,113402.90000004,113401.075,113417.742,122158.266,122159.60000002,2023-08-24T08:35:19Z,122174.906,Lawine,banguko,s,maambukizi,usuluhishi,chekechea,NA,NA,NA,"c(""distractor1"", ""distractor2"", ""distractor3"")",NA,NA,NA,NA,NA,NA,NA,NA,NA,NA,NA,NA,NA,NA,NA,NA,NA,NA,NA
39ac2,task,flow.Sequence,2_0,NA,NA,completion,8740.524,113402.90000004,113401.075,113417.742,122158.266,122159.80000001,2023-08-24T08:35:19Z,122174.906,Lawine,banguko,s,maambukizi,usuluhishi,chekechea,NA,NA,NA,"c(""distractor1"", ""distractor2"", ""distractor3"")",NA,NA,NA,NA,NA,NA,NA,NA,NA,NA,NA,NA,NA,NA,NA,NA,NA,NA,NA
39ac2,Shallow Question,html.Page,2_1_0_0,NA,NA,form submission,6594.1940000238,122159.90000004,122158.266,122174.906,128769.10000002,128769.40000004,2023-08-24T08:35:25Z,128774.048,Sänger,mwimbaji,s,msichana,shughuli,mshirika,mwimbaji,NA,NA,"c(""distractor1"", ""distractor2"", ""distractor3"")",NA,NA,NA,NA,NA,NA,NA,NA,NA,NA,NA,NA,NA,NA,NA,NA,NA,NA,NA
39ac2,Save data screen,canvas.Screen,2_1_0_1,NA,NA,timeout,497.06700000001,128771.5,128757.004,128774.048,129254.507,129255.80000001,2023-08-24T08:35:26Z,129271.115,Sänger,mwimbaji,s,msichana,shughuli,mshirika,NA,NA,1,"c(""distractor1"", ""distractor2"", ""distractor3"")",NA,NA,NA,NA,NA,NA,NA,NA,NA,NA,NA,NA,NA,NA,NA,NA,NA,NA,NA
39ac2,shallow,flow.Sequence,2_1_0,NA,NA,completion,7079.601,122159.90000004,122158.266,122174.906,129254.507,129256.10000002,2023-08-24T08:35:26Z,129271.115,Sänger,mwimbaji,s,msichana,shughuli,mshirika,NA,NA,NA,"c(""distractor1"", ""distractor2"", ""distractor3"")",NA,NA,NA,NA,NA,NA,NA,NA,NA,NA,NA,NA,NA,NA,NA,NA,NA,NA,NA
39ac2,task,flow.Sequence,2_1,NA,NA,completion,7079.601,122159.90000004,122158.266,122174.906,129254.507,129256.30000001,2023-08-24T08:35:26Z,129271.115,Sänger,mwimbaji,s,msichana,shughuli,mshirika,NA,NA,NA,"c(""distractor1"", ""distractor2"", ""distractor3"")",NA,NA,NA,NA,NA,NA,NA,NA,NA,NA,NA,NA,NA,NA,NA,NA,NA,NA,NA
39ac2,Shallow Question,html.Page,2_2_0_0,NA,NA,form submission,12573.385,129256.40000004,129254.507,129271.115,141844.5,141844.70000005,2023-08-24T08:35:38Z,141848.043,Gefährdung,kuhatarisha,d,uchokozi,udhaifu,makorowezo,udhaifu,NA,NA,"c(""distractor1"", ""distractor2"", ""distractor3"")",NA,NA,NA,NA,NA,NA,NA,NA,NA,NA,NA,NA,NA,NA,NA,NA,NA,NA,NA
39ac2,Save data screen,canvas.Screen,2_2_0_1,NA,NA,timeout,500.948,141847.80000001,141842.803,141848.043,142332.454,142334.10000002,2023-08-24T08:35:39Z,142348.991,Gefährdung,kuhatarisha,d,uchokozi,udhaifu,makorowezo,NA,NA,0,"c(""distractor1"", ""distractor2"", ""distractor3"")",NA,NA,NA,NA,NA,NA,NA,NA,NA,NA,NA,NA,NA,NA,NA,NA,NA,NA,NA
39ac2,shallow,flow.Sequence,2_2_0,NA,NA,completion,13061.339,129256.40000004,129254.507,129271.115,142332.454,142334.40000004,2023-08-24T08:35:39Z,142348.991,Gefährdung,kuhatarisha,d,uchokozi,udhaifu,makorowezo,NA,NA,NA,"c(""distractor1"", ""distractor2"", ""distractor3"")",NA,NA,NA,NA,NA,NA,NA,NA,NA,NA,NA,NA,NA,NA,NA,NA,NA,NA,NA
39ac2,task,flow.Sequence,2_2,NA,NA,completion,13061.339,129256.40000004,129254.507,129271.115,142332.454,142334.60000002,2023-08-24T08:35:39Z,142348.991,Gefährdung,kuhatarisha,d,uchokozi,udhaifu,makorowezo,NA,NA,NA,"c(""distractor1"", ""distractor2"", ""distractor3"")",NA,NA,NA,NA,NA,NA,NA,NA,NA,NA,NA,NA,NA,NA,NA,NA,NA,NA,NA
39ac2,Shallow Question,html.Page,2_3_0_0,NA,NA,form submission,7727.3090000119,142334.70000005,142332.454,142348.991,150076.30000001,150076.5,2023-08-24T08:35:47Z,150079.449,Körper,kiwiliwili,d,mapambano,mpatanishi,kiolezo,kiwiliwili,NA,NA,"c(""distractor1"", ""distractor2"", ""distractor3"")",NA,NA,NA,NA,NA,NA,NA,NA,NA,NA,NA,NA,NA,NA,NA,NA,NA,NA,NA
39ac2,Save data screen,canvas.Screen,2_3_0_1,NA,NA,timeout,491.08500000002,150079.70000005,150070.105,150079.449,150554.265,150555.5,2023-08-24T08:35:47Z,150570.534,Körper,kiwiliwili,d,mapambano,mpatanishi,kiolezo,NA,NA,1,"c(""distractor1"", ""distractor2"", ""distractor3"")",NA,NA,NA,NA,NA,NA,NA,NA,NA,NA,NA,NA,NA,NA,NA,NA,NA,NA,NA
39ac2,shallow,flow.Sequence,2_3_0,NA,NA,completion,8205.274,142334.70000005,142332.454,142348.991,150554.265,150555.70000005,2023-08-24T08:35:47Z,150570.534,Körper,kiwiliwili,d,mapambano,mpatanishi,kiolezo,NA,NA,NA,"c(""distractor1"", ""distractor2"", ""distractor3"")",NA,NA,NA,NA,NA,NA,NA,NA,NA,NA,NA,NA,NA,NA,NA,NA,NA,NA,NA
39ac2,task,flow.Sequence,2_3,NA,NA,completion,8205.274,142334.70000005,142332.454,142348.991,150554.265,150555.90000004,2023-08-24T08:35:47Z,150570.534,Körper,kiwiliwili,d,mapambano,mpatanishi,kiolezo,NA,NA,NA,"c(""distractor1"", ""distractor2"", ""distractor3"")",NA,NA,NA,NA,NA,NA,NA,NA,NA,NA,NA,NA,NA,NA,NA,NA,NA,NA,NA
39ac2,Shallow Question,html.Page,2_4_0_0,NA,NA,form submission,16948.466,150556.10000002,150554.265,150570.534,167519,167519.30000001,2023-08-24T08:36:04Z,167522.625,Kontrolle,kudhibiti,d,mbinguni,kufunga,utegemezi,mbinguni,NA,NA,"c(""distractor1"", ""distractor2"", ""distractor3"")",NA,NA,NA,NA,NA,NA,NA,NA,NA,NA,NA,NA,NA,NA,NA,NA,NA,NA,NA
39ac2,Save data screen,canvas.Screen,2_4_0_1,NA,NA,timeout,492.742,167522.60000002,167503.781,167522.625,167998.052,167999.80000001,2023-08-24T08:36:05Z,168015.367,Kontrolle,kudhibiti,d,mbinguni,kufunga,utegemezi,NA,NA,0,"c(""distractor1"", ""distractor2"", ""distractor3"")",NA,NA,NA,NA,NA,NA,NA,NA,NA,NA,NA,NA,NA,NA,NA,NA,NA,NA,NA
39ac2,shallow,flow.Sequence,2_4_0,NA,NA,completion,17427.518,150556.10000002,150554.265,150570.534,167998.052,168000,2023-08-24T08:36:05Z,168015.367,Kontrolle,kudhibiti,d,mbinguni,kufunga,utegemezi,NA,NA,NA,"c(""distractor1"", ""distractor2"", ""distractor3"")",NA,NA,NA,NA,NA,NA,NA,NA,NA,NA,NA,NA,NA,NA,NA,NA,NA,NA,NA
39ac2,task,flow.Sequence,2_4,NA,NA,completion,17427.518,150556.10000002,150554.265,150570.534,167998.052,168000.10000002,2023-08-24T08:36:05Z,168015.367,Kontrolle,kudhibiti,d,mbinguni,kufunga,utegemezi,NA,NA,NA,"c(""distractor1"", ""distractor2"", ""distractor3"")",NA,NA,NA,NA,NA,NA,NA,NA,NA,NA,NA,NA,NA,NA,NA,NA,NA,NA,NA
39ac2,Shallow Question,html.Page,2_5_0_0,NA,NA,form submission,12223.833000048,168000.40000004,167998.052,168015.367,180239.20000005,180239.5,2023-08-24T08:36:17Z,180242.744,Verzögerung,kuchelewa,d,mwakilishi,mwanauchumi,jaribio,kuchelewa,NA,NA,"c(""distractor1"", ""distractor2"", ""distractor3"")",NA,NA,NA,NA,NA,NA,NA,NA,NA,NA,NA,NA,NA,NA,NA,NA,NA,NA,NA
39ac2,Save data screen,canvas.Screen,2_5_0_1,NA,NA,timeout,506.13199999998,180242.70000005,180236.225,180242.744,180732.311,180734.5,2023-08-24T08:36:17Z,180748.876,Verzögerung,kuchelewa,d,mwakilishi,mwanauchumi,jaribio,NA,NA,1,"c(""distractor1"", ""distractor2"", ""distractor3"")",NA,NA,NA,NA,NA,NA,NA,NA,NA,NA,NA,NA,NA,NA,NA,NA,NA,NA,NA
39ac2,shallow,flow.Sequence,2_5_0,NA,NA,completion,12716.944,168000.30000001,167998.052,168015.367,180732.311,180734.80000001,2023-08-24T08:36:17Z,180748.876,Verzögerung,kuchelewa,d,mwakilishi,mwanauchumi,jaribio,NA,NA,NA,"c(""distractor1"", ""distractor2"", ""distractor3"")",NA,NA,NA,NA,NA,NA,NA,NA,NA,NA,NA,NA,NA,NA,NA,NA,NA,NA,NA
39ac2,task,flow.Sequence,2_5,NA,NA,completion,12716.944,168000.30000001,167998.052,168015.367,180732.311,180734.90000004,2023-08-24T08:36:17Z,180748.876,Verzögerung,kuchelewa,d,mwakilishi,mwanauchumi,jaribio,NA,NA,NA,"c(""distractor1"", ""distractor2"", ""distractor3"")",NA,NA,NA,NA,NA,NA,NA,NA,NA,NA,NA,NA,NA,NA,NA,NA,NA,NA,NA
39ac2,Shallow Question,html.Page,2_6_0_0,NA,NA,form submission,8869.7240000239,180735.10000002,180732.311,180748.876,189618.60000002,189618.80000001,2023-08-24T08:36:26Z,189624.896,Prüfung,mtihani,s,mkulima,mtizamo,ufumbuzi,mtihani,NA,NA,"c(""distractor1"", ""distractor2"", ""distractor3"")",NA,NA,NA,NA,NA,NA,NA,NA,NA,NA,NA,NA,NA,NA,NA,NA,NA,NA,NA
39ac2,Save data screen,canvas.Screen,2_6_0_1,NA,NA,timeout,496.08100000001,189622,189608.228,189624.896,190104.548,190106.20000005,2023-08-24T08:36:27Z,190120.977,Prüfung,mtihani,s,mkulima,mtizamo,ufumbuzi,NA,NA,1,"c(""distractor1"", ""distractor2"", ""distractor3"")",NA,NA,NA,NA,NA,NA,NA,NA,NA,NA,NA,NA,NA,NA,NA,NA,NA,NA,NA
39ac2,shallow,flow.Sequence,2_6_0,NA,NA,completion,9355.672,180735,180732.311,180748.876,190104.548,190106.5,2023-08-24T08:36:27Z,190120.977,Prüfung,mtihani,s,mkulima,mtizamo,ufumbuzi,NA,NA,NA,"c(""distractor1"", ""distractor2"", ""distractor3"")",NA,NA,NA,NA,NA,NA,NA,NA,NA,NA,NA,NA,NA,NA,NA,NA,NA,NA,NA
39ac2,task,flow.Sequence,2_6,NA,NA,completion,9355.672,180735,180732.311,180748.876,190104.548,190106.70000005,2023-08-24T08:36:27Z,190120.977,Prüfung,mtihani,s,mkulima,mtizamo,ufumbuzi,NA,NA,NA,"c(""distractor1"", ""distractor2"", ""distractor3"")",NA,NA,NA,NA,NA,NA,NA,NA,NA,NA,NA,NA,NA,NA,NA,NA,NA,NA,NA
39ac2,Shallow Question,html.Page,2_7_0_0,NA,NA,form submission,10770.823000012,190106.80000001,190104.548,190120.977,200891.80000001,200892.10000002,2023-08-24T08:36:37Z,200895.885,Kreativität,ubunifu,s,mratibu,mwendelezo,makubaliano,ubunifu,NA,NA,"c(""distractor1"", ""distractor2"", ""distractor3"")",NA,NA,NA,NA,NA,NA,NA,NA,NA,NA,NA,NA,NA,NA,NA,NA,NA,NA,NA
39ac2,Save data screen,canvas.Screen,2_7_0_1,NA,NA,timeout,502.78199999998,200895.20000005,200879.182,200895.885,201382.02,201383.20000005,2023-08-24T08:36:38Z,201398.667,Kreativität,ubunifu,s,mratibu,mwendelezo,makubaliano,NA,NA,1,"c(""distractor1"", ""distractor2"", ""distractor3"")",NA,NA,NA,NA,NA,NA,NA,NA,NA,NA,NA,NA,NA,NA,NA,NA,NA,NA,NA
39ac2,shallow,flow.Sequence,2_7_0,NA,NA,completion,11261.043,190106.70000005,190104.548,190120.977,201382.02,201383.5,2023-08-24T08:36:38Z,201398.667,Kreativität,ubunifu,s,mratibu,mwendelezo,makubaliano,NA,NA,NA,"c(""distractor1"", ""distractor2"", ""distractor3"")",NA,NA,NA,NA,NA,NA,NA,NA,NA,NA,NA,NA,NA,NA,NA,NA,NA,NA,NA
39ac2,task,flow.Sequence,2_7,NA,NA,completion,11261.043,190106.70000005,190104.548,190120.977,201382.02,201383.80000001,2023-08-24T08:36:38Z,201398.667,Kreativität,ubunifu,s,mratibu,mwendelezo,makubaliano,NA,NA,NA,"c(""distractor1"", ""distractor2"", ""distractor3"")",NA,NA,NA,NA,NA,NA,NA,NA,NA,NA,NA,NA,NA,NA,NA,NA,NA,NA,NA
39ac2,Shallow Question,html.Page,2_8_0_0,NA,NA,form submission,12900.933000024,201383.90000004,201382.02,201398.667,214299.60000002,214299.90000004,2023-08-24T08:36:51Z,214303.181,Aufstand,ugomaji,s,mazidio,msingi,kujieleza,ugomaji,NA,NA,"c(""distractor1"", ""distractor2"", ""distractor3"")",NA,NA,NA,NA,NA,NA,NA,NA,NA,NA,NA,NA,NA,NA,NA,NA,NA,NA,NA
39ac2,Save data screen,canvas.Screen,2_8_0_1,NA,NA,timeout,502.58499999999,214303.20000005,214288.111,214303.181,214788.982,214790.40000004,2023-08-24T08:36:51Z,214805.766,Aufstand,ugomaji,s,mazidio,msingi,kujieleza,NA,NA,1,"c(""distractor1"", ""distractor2"", ""distractor3"")",NA,NA,NA,NA,NA,NA,NA,NA,NA,NA,NA,NA,NA,NA,NA,NA,NA,NA,NA
39ac2,shallow,flow.Sequence,2_8_0,NA,NA,completion,13390.315,201383.90000004,201382.02,201398.667,214788.982,214790.70000005,2023-08-24T08:36:51Z,214805.766,Aufstand,ugomaji,s,mazidio,msingi,kujieleza,NA,NA,NA,"c(""distractor1"", ""distractor2"", ""distractor3"")",NA,NA,NA,NA,NA,NA,NA,NA,NA,NA,NA,NA,NA,NA,NA,NA,NA,NA,NA
39ac2,task,flow.Sequence,2_8,NA,NA,completion,13390.315,201383.90000004,201382.02,201398.667,214788.982,214790.80000001,2023-08-24T08:36:51Z,214805.766,Aufstand,ugomaji,s,mazidio,msingi,kujieleza,NA,NA,NA,"c(""distractor1"", ""distractor2"", ""distractor3"")",NA,NA,NA,NA,NA,NA,NA,NA,NA,NA,NA,NA,NA,NA,NA,NA,NA,NA,NA
39ac2,Shallow Question,html.Page,2_9_0_0,NA,NA,form submission,14767.134000036,214791,214788.982,214805.766,229572.90000004,229573.20000005,2023-08-24T08:37:06Z,229577.214,System,maongozi,s,chokochoko,nuksani,mitaani,maongozi,NA,NA,"c(""distractor1"", ""distractor2"", ""distractor3"")",NA,NA,NA,NA,NA,NA,NA,NA,NA,NA,NA,NA,NA,NA,NA,NA,NA,NA,NA
39ac2,Save data screen,canvas.Screen,2_9_0_1,NA,NA,timeout,500.508,229576.5,229561.002,229577.214,230061.044,230062.10000002,2023-08-24T08:37:07Z,230077.722,System,maongozi,s,chokochoko,nuksani,mitaani,NA,NA,1,"c(""distractor1"", ""distractor2"", ""distractor3"")",NA,NA,NA,NA,NA,NA,NA,NA,NA,NA,NA,NA,NA,NA,NA,NA,NA,NA,NA
39ac2,shallow,flow.Sequence,2_9_0,NA,NA,completion,15255.278,214790.90000004,214788.982,214805.766,230061.044,230062.30000001,2023-08-24T08:37:07Z,230077.722,System,maongozi,s,chokochoko,nuksani,mitaani,NA,NA,NA,"c(""distractor1"", ""distractor2"", ""distractor3"")",NA,NA,NA,NA,NA,NA,NA,NA,NA,NA,NA,NA,NA,NA,NA,NA,NA,NA,NA
39ac2,task,flow.Sequence,2_9,NA,NA,completion,15255.278,214790.90000004,214788.982,214805.766,230061.044,230062.5,2023-08-24T08:37:07Z,230077.722,System,maongozi,s,chokochoko,nuksani,mitaani,NA,NA,NA,"c(""distractor1"", ""distractor2"", ""distractor3"")",NA,NA,NA,NA,NA,NA,NA,NA,NA,NA,NA,NA,NA,NA,NA,NA,NA,NA,NA
39ac2,Shallow Question,html.Page,2_10_0_0,NA,NA,form submission,10090.878000024,230062.70000005,230061.044,230077.722,240168.60000002,240168.90000004,2023-08-24T08:37:17Z,240172.235,Kultur,utamaduni,d,shetani,gerezani,mazingira,utamaduni,NA,NA,"c(""distractor1"", ""distractor2"", ""distractor3"")",NA,NA,NA,NA,NA,NA,NA,NA,NA,NA,NA,NA,NA,NA,NA,NA,NA,NA,NA
39ac2,Save data screen,canvas.Screen,2_10_0_1,NA,NA,timeout,492.524,240172.10000002,240157.094,240172.235,240648.004,240649.5,2023-08-24T08:37:17Z,240664.759,Kultur,utamaduni,d,shetani,gerezani,mazingira,NA,NA,1,"c(""distractor1"", ""distractor2"", ""distractor3"")",NA,NA,NA,NA,NA,NA,NA,NA,NA,NA,NA,NA,NA,NA,NA,NA,NA,NA,NA
39ac2,shallow,flow.Sequence,2_10_0,NA,NA,completion,10570.282,230062.70000005,230061.044,230077.722,240648.004,240649.80000001,2023-08-24T08:37:17Z,240664.759,Kultur,utamaduni,d,shetani,gerezani,mazingira,NA,NA,NA,"c(""distractor1"", ""distractor2"", ""distractor3"")",NA,NA,NA,NA,NA,NA,NA,NA,NA,NA,NA,NA,NA,NA,NA,NA,NA,NA,NA
39ac2,task,flow.Sequence,2_10,NA,NA,completion,10570.282,230062.70000005,230061.044,230077.722,240648.004,240650,2023-08-24T08:37:17Z,240664.759,Kultur,utamaduni,d,shetani,gerezani,mazingira,NA,NA,NA,"c(""distractor1"", ""distractor2"", ""distractor3"")",NA,NA,NA,NA,NA,NA,NA,NA,NA,NA,NA,NA,NA,NA,NA,NA,NA,NA,NA
39ac2,Shallow Question,html.Page,2_11_0_0,NA,NA,form submission,5533.0410000119,240650.10000002,240648.004,240664.759,246197.80000001,246198,2023-08-24T08:37:23Z,246200.957,Können,unaweza,s,kiongozi,bustani,mienendo,unaweza,NA,NA,"c(""distractor1"", ""distractor2"", ""distractor3"")",NA,NA,NA,NA,NA,NA,NA,NA,NA,NA,NA,NA,NA,NA,NA,NA,NA,NA,NA
39ac2,Save data screen,canvas.Screen,2_11_0_1,NA,NA,timeout,493.87,246198.90000004,246193.049,246200.957,246678.019,246679.20000005,2023-08-24T08:37:23Z,246694.827,Können,unaweza,s,kiongozi,bustani,mienendo,NA,NA,1,"c(""distractor1"", ""distractor2"", ""distractor3"")",NA,NA,NA,NA,NA,NA,NA,NA,NA,NA,NA,NA,NA,NA,NA,NA,NA,NA,NA
39ac2,shallow,flow.Sequence,2_11_0,NA,NA,completion,6013.26,240650.10000002,240648.004,240664.759,246678.019,246679.5,2023-08-24T08:37:23Z,246694.827,Können,unaweza,s,kiongozi,bustani,mienendo,NA,NA,NA,"c(""distractor1"", ""distractor2"", ""distractor3"")",NA,NA,NA,NA,NA,NA,NA,NA,NA,NA,NA,NA,NA,NA,NA,NA,NA,NA,NA
39ac2,task,flow.Sequence,2_11,NA,NA,completion,6013.26,240650.10000002,240648.004,240664.759,246678.019,246679.70000005,2023-08-24T08:37:23Z,246694.827,Können,unaweza,s,kiongozi,bustani,mienendo,NA,NA,NA,"c(""distractor1"", ""distractor2"", ""distractor3"")",NA,NA,NA,NA,NA,NA,NA,NA,NA,NA,NA,NA,NA,NA,NA,NA,NA,NA,NA
39ac2,Shallow Question,html.Page,2_12_0_0,NA,NA,form submission,9101.9730000119,246679.80000001,246678.019,246694.827,255796.80000001,255797,2023-08-24T08:37:32Z,255800.302,Angreifer,mshambulizi,s,kitengo,tasinia,usafirishaji,mshambulizi,NA,NA,"c(""distractor1"", ""distractor2"", ""distractor3"")",NA,NA,NA,NA,NA,NA,NA,NA,NA,NA,NA,NA,NA,NA,NA,NA,NA,NA,NA
39ac2,Save data screen,canvas.Screen,2_12_0_1,NA,NA,timeout,500.068,255799.20000005,255780.174,255800.302,256283.695,256284.60000002,2023-08-24T08:37:33Z,256300.37,Angreifer,mshambulizi,s,kitengo,tasinia,usafirishaji,NA,NA,1,"c(""distractor1"", ""distractor2"", ""distractor3"")",NA,NA,NA,NA,NA,NA,NA,NA,NA,NA,NA,NA,NA,NA,NA,NA,NA,NA,NA
39ac2,shallow,flow.Sequence,2_12_0,NA,NA,completion,9588.868,246679.80000001,246678.019,246694.827,256283.695,256284.80000001,2023-08-24T08:37:33Z,256300.37,Angreifer,mshambulizi,s,kitengo,tasinia,usafirishaji,NA,NA,NA,"c(""distractor1"", ""distractor2"", ""distractor3"")",NA,NA,NA,NA,NA,NA,NA,NA,NA,NA,NA,NA,NA,NA,NA,NA,NA,NA,NA
39ac2,task,flow.Sequence,2_12,NA,NA,completion,9588.868,246679.80000001,246678.019,246694.827,256283.695,256285,2023-08-24T08:37:33Z,256300.37,Angreifer,mshambulizi,s,kitengo,tasinia,usafirishaji,NA,NA,NA,"c(""distractor1"", ""distractor2"", ""distractor3"")",NA,NA,NA,NA,NA,NA,NA,NA,NA,NA,NA,NA,NA,NA,NA,NA,NA,NA,NA
39ac2,Shallow Question,html.Page,2_13_0_0,NA,NA,form submission,11056.830000048,256285.10000002,256283.695,256300.37,267357.20000005,267357.40000004,2023-08-24T08:37:44Z,267360.034,Übersicht,kilindo,d,mgusano,chipukizi,kulinganisha,mgusano,NA,NA,"c(""distractor1"", ""distractor2"", ""distractor3"")",NA,NA,NA,NA,NA,NA,NA,NA,NA,NA,NA,NA,NA,NA,NA,NA,NA,NA,NA
39ac2,Save data screen,canvas.Screen,2_13_0_1,NA,NA,timeout,494.68700000003,267360.80000001,267343.404,267360.034,267837.871,267839.20000005,2023-08-24T08:37:44Z,267854.721,Übersicht,kilindo,d,mgusano,chipukizi,kulinganisha,NA,NA,0,"c(""distractor1"", ""distractor2"", ""distractor3"")",NA,NA,NA,NA,NA,NA,NA,NA,NA,NA,NA,NA,NA,NA,NA,NA,NA,NA,NA
39ac2,shallow,flow.Sequence,2_13_0,NA,NA,completion,11537.501,256285,256283.695,256300.37,267837.871,267839.5,2023-08-24T08:37:44Z,267854.721,Übersicht,kilindo,d,mgusano,chipukizi,kulinganisha,NA,NA,NA,"c(""distractor1"", ""distractor2"", ""distractor3"")",NA,NA,NA,NA,NA,NA,NA,NA,NA,NA,NA,NA,NA,NA,NA,NA,NA,NA,NA
39ac2,task,flow.Sequence,2_13,NA,NA,completion,11537.501,256285,256283.695,256300.37,267837.871,267839.70000005,2023-08-24T08:37:44Z,267854.721,Übersicht,kilindo,d,mgusano,chipukizi,kulinganisha,NA,NA,NA,"c(""distractor1"", ""distractor2"", ""distractor3"")",NA,NA,NA,NA,NA,NA,NA,NA,NA,NA,NA,NA,NA,NA,NA,NA,NA,NA,NA
39ac2,Shallow Question,html.Page,2_14_0_0,NA,NA,form submission,7691.779,267839.90000004,267837.871,267854.721,275546.5,275546.70000005,2023-08-24T08:37:52Z,275547.706,Kanzler,diwani,d,rasilmali,mahitaji,maabudu,diwani,NA,NA,"c(""distractor1"", ""distractor2"", ""distractor3"")",NA,NA,NA,NA,NA,NA,NA,NA,NA,NA,NA,NA,NA,NA,NA,NA,NA,NA,NA
39ac2,Save data screen,canvas.Screen,2_14_0_1,NA,NA,timeout,507.70600000001,275550.20000005,275531.66,275547.706,276038.965,276040,2023-08-24T08:37:53Z,276055.412,Kanzler,diwani,d,rasilmali,mahitaji,maabudu,NA,NA,1,"c(""distractor1"", ""distractor2"", ""distractor3"")",NA,NA,NA,NA,NA,NA,NA,NA,NA,NA,NA,NA,NA,NA,NA,NA,NA,NA,NA
39ac2,shallow,flow.Sequence,2_14_0,NA,NA,completion,8184.244,267839.80000001,267837.871,267854.721,276038.965,276040.30000001,2023-08-24T08:37:53Z,276055.412,Kanzler,diwani,d,rasilmali,mahitaji,maabudu,NA,NA,NA,"c(""distractor1"", ""distractor2"", ""distractor3"")",NA,NA,NA,NA,NA,NA,NA,NA,NA,NA,NA,NA,NA,NA,NA,NA,NA,NA,NA
39ac2,task,flow.Sequence,2_14,NA,NA,completion,8184.244,267839.80000001,267837.871,267854.721,276038.965,276040.5,2023-08-24T08:37:53Z,276055.412,Kanzler,diwani,d,rasilmali,mahitaji,maabudu,NA,NA,NA,"c(""distractor1"", ""distractor2"", ""distractor3"")",NA,NA,NA,NA,NA,NA,NA,NA,NA,NA,NA,NA,NA,NA,NA,NA,NA,NA,NA
39ac2,Shallow Question,html.Page,2_15_0_0,NA,NA,form submission,21288.988000036,276040.60000002,276038.965,276055.412,297344.40000004,297344.70000005,2023-08-24T08:38:14Z,297347.645,Abrechnung,uhasibu,d,kusahihisha,mpambano,mashambulizi,uhasibu,NA,NA,"c(""distractor1"", ""distractor2"", ""distractor3"")",NA,NA,NA,NA,NA,NA,NA,NA,NA,NA,NA,NA,NA,NA,NA,NA,NA,NA,NA
39ac2,Save data screen,canvas.Screen,2_15_0_1,NA,NA,timeout,506.56,297348.10000002,297329.824,297347.645,297837.907,297840,2023-08-24T08:38:14Z,297854.205,Abrechnung,uhasibu,d,kusahihisha,mpambano,mashambulizi,NA,NA,1,"c(""distractor1"", ""distractor2"", ""distractor3"")",NA,NA,NA,NA,NA,NA,NA,NA,NA,NA,NA,NA,NA,NA,NA,NA,NA,NA,NA
39ac2,shallow,flow.Sequence,2_15_0,NA,NA,completion,21782.495,276040.60000002,276038.965,276055.412,297837.907,297840.30000001,2023-08-24T08:38:14Z,297854.205,Abrechnung,uhasibu,d,kusahihisha,mpambano,mashambulizi,NA,NA,NA,"c(""distractor1"", ""distractor2"", ""distractor3"")",NA,NA,NA,NA,NA,NA,NA,NA,NA,NA,NA,NA,NA,NA,NA,NA,NA,NA,NA
39ac2,task,flow.Sequence,2_15,NA,NA,completion,21782.495,276040.5,276038.965,276055.412,297837.907,297840.5,2023-08-24T08:38:14Z,297854.205,Abrechnung,uhasibu,d,kusahihisha,mpambano,mashambulizi,NA,NA,NA,"c(""distractor1"", ""distractor2"", ""distractor3"")",NA,NA,NA,NA,NA,NA,NA,NA,NA,NA,NA,NA,NA,NA,NA,NA,NA,NA,NA
39ac2,retrieval block 2 (multiple choice),flow.Loop,2,NA,NA,completion,184420.165,113402.80000001,113401.075,113417.742,297837.907,297840.70000005,2023-08-24T08:38:14Z,297854.205,NA,NA,NA,NA,NA,NA,NA,NA,NA,"c(""distractor1"", ""distractor2"", ""distractor3"")",NA,NA,NA,NA,NA,NA,NA,NA,NA,NA,NA,NA,NA,NA,NA,NA,NA,NA,NA
39ac2,End,canvas.Screen,3,NA,keypress(Space),response,1490.295,297840.70000005,297837.907,297854.205,299344.5,299346.10000002,2023-08-24T08:38:16Z,299352.058,NA,NA,NA,NA,NA,NA,NA,NA,NA,NULL,NA,NA,NA,NA,NA,NA,NA,NA,NA,NA,NA,NA,NA,NA,NA,NA,NA,NA,NA
39ac2,root,flow.Sequence,NA,NA,NA,completion,298751.548,568.90000003576,209.623,592.952,299344.5,299346.60000002,2023-08-24T08:38:16Z,299352.058,NA,NA,NA,NA,NA,NA,NA,NA,NA,NULL,NA,NA,NA,NA,NA,NA,NA,NA,NA,NA,NA,NA,NA,NA,NA,NA,NA,NA,NA
