observation,sender,sender_type,sender_id,response,response_action,ended_on,duration,time_run,time_render,time_show,time_end,time_commit,timestamp,time_switch,german,swahili,enc,distractor1,distractor2,distractor3,response_2,x,correct,distractors,url_vp,url_sess,meta_labjs_version,meta_location,meta_user_agent,meta_platform,meta_language,meta_locale,meta_time_zone,meta_timezone_offset,meta_screen_width,meta_screen_height,meta_scroll_width,meta_scroll_height,meta_window_inner_width,meta_window_inner_height,meta_device_pixel_ratio,meta_labjs_build_flavor,meta_labjs_build_commit
3265e,Introduction delayed retrieval,canvas.Screen,0,weiter,keypress(Space),response,9698.975000003,855.29999999702,477.883,911.225,10610.200000003,10656.900000006,2023-08-12T10:19:31Z,10661.943,NA,NA,NA,NA,NA,NA,NA,NA,NA,NULL,129,4,20.2.4,https://neurocog.fernuni.ch/studies/vweber/delayed/index.html?vp=129&sess=4,"Mozilla/5.0 (Macintosh; Intel Mac OS X 10_15_7) AppleWebKit/537.36 (KHTML, like Gecko) Chrome/115.0.0.0 Safari/537.36",MacIntel,de-DE,de,Europe/Zurich,-120,1440,900,1440,640,1440,688,1,production,f5b4a49f956347addd546a832a3327688c2c0fef
3265e,Deep Question,html.Page,1_0_0_0,NA,NA,form submission,8900.356999997,10657.5,10628.609,10661.943,19562.299999997,19563.200000003,2023-08-12T10:19:40Z,19562.703,Abrechnung,uhasibu,d,kusahihisha,mpambano,mashambulizi,kundini,NA,NA,NULL,NA,NA,NA,NA,NA,NA,NA,NA,NA,NA,NA,NA,NA,NA,NA,NA,NA,NA,NA
3265e,Save data screen,canvas.Screen,1_0_0_1,NA,NA,timeout,500.01,19564.700000003,19546.036,19562.703,20046.046,20052.299999997,2023-08-12T10:19:40Z,20062.713,Abrechnung,uhasibu,d,kusahihisha,mpambano,mashambulizi,NA,NA,0,NULL,NA,NA,NA,NA,NA,NA,NA,NA,NA,NA,NA,NA,NA,NA,NA,NA,NA,NA,NA
3265e,deep,flow.Sequence,1_0_0,NA,NA,completion,9384.103,10657.400000006,10628.609,10661.943,20046.046,20052.700000003,2023-08-12T10:19:40Z,20062.713,Abrechnung,uhasibu,d,kusahihisha,mpambano,mashambulizi,NA,NA,NA,NULL,NA,NA,NA,NA,NA,NA,NA,NA,NA,NA,NA,NA,NA,NA,NA,NA,NA,NA,NA
3265e,task,flow.Sequence,1_0,NA,NA,completion,9384.103,10657.400000006,10628.609,10661.943,20046.046,20052.900000006,2023-08-12T10:19:40Z,20062.713,Abrechnung,uhasibu,d,kusahihisha,mpambano,mashambulizi,NA,NA,NA,NULL,NA,NA,NA,NA,NA,NA,NA,NA,NA,NA,NA,NA,NA,NA,NA,NA,NA,NA,NA
3265e,Deep Question,html.Page,1_1_0_0,NA,NA,form submission,13125.787,20053.200000003,20046.046,20062.713,33188.5,33188.900000006,2023-08-12T10:19:53Z,33196.786,Kultur,utamaduni,d,shetani,gerezani,mazingira,maengwo,NA,NA,NULL,NA,NA,NA,NA,NA,NA,NA,NA,NA,NA,NA,NA,NA,NA,NA,NA,NA,NA,NA
3265e,Save data screen,canvas.Screen,1_1_0_1,NA,NA,timeout,500.01,33190.700000003,33180.119,33196.786,33680.129,33681.600000009,2023-08-12T10:19:54Z,33696.796,Kultur,utamaduni,d,shetani,gerezani,mazingira,NA,NA,0,NULL,NA,NA,NA,NA,NA,NA,NA,NA,NA,NA,NA,NA,NA,NA,NA,NA,NA,NA,NA
3265e,deep,flow.Sequence,1_1_0,NA,NA,completion,13617.416,20053.100000009,20046.046,20062.713,33680.129,33681.900000006,2023-08-12T10:19:54Z,33696.796,Kultur,utamaduni,d,shetani,gerezani,mazingira,NA,NA,NA,NULL,NA,NA,NA,NA,NA,NA,NA,NA,NA,NA,NA,NA,NA,NA,NA,NA,NA,NA,NA
3265e,task,flow.Sequence,1_1,NA,NA,completion,13617.416,20053,20046.046,20062.713,33680.129,33682.200000003,2023-08-12T10:19:54Z,33696.796,Kultur,utamaduni,d,shetani,gerezani,mazingira,NA,NA,NA,NULL,NA,NA,NA,NA,NA,NA,NA,NA,NA,NA,NA,NA,NA,NA,NA,NA,NA,NA,NA
3265e,Deep Question,html.Page,1_2_0_0,NA,NA,form submission,6941.904000003,33682.700000003,33680.129,33696.796,40638.700000003,40639.400000006,2023-08-12T10:20:01Z,40647.347,Kreativität,ubunifu,s,mratibu,mwendelezo,makubaliano,adharta,NA,NA,NULL,NA,NA,NA,NA,NA,NA,NA,NA,NA,NA,NA,NA,NA,NA,NA,NA,NA,NA,NA
3265e,Save data screen,canvas.Screen,1_2_0_1,NA,NA,timeout,500.01,40641.100000009,40630.68,40647.347,41130.69,41135.5,2023-08-12T10:20:01Z,41147.357,Kreativität,ubunifu,s,mratibu,mwendelezo,makubaliano,NA,NA,0,NULL,NA,NA,NA,NA,NA,NA,NA,NA,NA,NA,NA,NA,NA,NA,NA,NA,NA,NA,NA
3265e,deep,flow.Sequence,1_2_0,NA,NA,completion,7433.894,33682.5,33680.129,33696.796,41130.69,41135.799999997,2023-08-12T10:20:01Z,41147.357,Kreativität,ubunifu,s,mratibu,mwendelezo,makubaliano,NA,NA,NA,NULL,NA,NA,NA,NA,NA,NA,NA,NA,NA,NA,NA,NA,NA,NA,NA,NA,NA,NA,NA
3265e,task,flow.Sequence,1_2,NA,NA,completion,7433.894,33682.400000006,33680.129,33696.796,41130.69,41136.200000003,2023-08-12T10:20:01Z,41147.357,Kreativität,ubunifu,s,mratibu,mwendelezo,makubaliano,NA,NA,NA,NULL,NA,NA,NA,NA,NA,NA,NA,NA,NA,NA,NA,NA,NA,NA,NA,NA,NA,NA,NA
3265e,Deep Question,html.Page,1_3_0_0,NA,NA,form submission,108415.443,41136.400000006,41130.69,41147.357,149562.8,149563.3,2023-08-12T10:21:50Z,149571.815,Kanzler,diwani,d,rasilmali,mahitaji,maabudu,deswondo,NA,NA,NULL,NA,NA,NA,NA,NA,NA,NA,NA,NA,NA,NA,NA,NA,NA,NA,NA,NA,NA,NA
3265e,Save data screen,canvas.Screen,1_3_0_1,NA,NA,timeout,500.01000000001,149568.7,149555.148,149571.815,150055.158,150059.10000001,2023-08-12T10:21:50Z,150071.825,Kanzler,diwani,d,rasilmali,mahitaji,maabudu,NA,NA,0,NULL,NA,NA,NA,NA,NA,NA,NA,NA,NA,NA,NA,NA,NA,NA,NA,NA,NA,NA,NA
3265e,deep,flow.Sequence,1_3_0,NA,NA,completion,108907.801,41136.299999997,41130.69,41147.357,150055.158,150059.40000001,2023-08-12T10:21:50Z,150071.825,Kanzler,diwani,d,rasilmali,mahitaji,maabudu,NA,NA,NA,NULL,NA,NA,NA,NA,NA,NA,NA,NA,NA,NA,NA,NA,NA,NA,NA,NA,NA,NA,NA
3265e,task,flow.Sequence,1_3,NA,NA,completion,108907.801,41136.299999997,41130.69,41147.357,150055.158,150059.7,2023-08-12T10:21:50Z,150071.825,Kanzler,diwani,d,rasilmali,mahitaji,maabudu,NA,NA,NA,NULL,NA,NA,NA,NA,NA,NA,NA,NA,NA,NA,NA,NA,NA,NA,NA,NA,NA,NA,NA
3265e,Deep Question,html.Page,1_4_0_0,NA,NA,form submission,5258.0750000059,150059.8,150055.158,150071.825,155329.90000001,155330.2,2023-08-12T10:21:56Z,155338.597,Verzögerung,kuchelewa,d,mwakilishi,mwanauchumi,jaribio,prekiri,NA,NA,NULL,NA,NA,NA,NA,NA,NA,NA,NA,NA,NA,NA,NA,NA,NA,NA,NA,NA,NA,NA
3265e,Save data screen,canvas.Screen,1_4_0_1,NA,NA,timeout,500.00999999998,155333.10000001,155321.93,155338.597,155821.94,155825.5,2023-08-12T10:21:56Z,155838.607,Verzögerung,kuchelewa,d,mwakilishi,mwanauchumi,jaribio,NA,NA,0,NULL,NA,NA,NA,NA,NA,NA,NA,NA,NA,NA,NA,NA,NA,NA,NA,NA,NA,NA,NA
3265e,deep,flow.Sequence,1_4_0,NA,NA,completion,5750.115,150059.8,150055.158,150071.825,155821.94,155825.8,2023-08-12T10:21:56Z,155838.607,Verzögerung,kuchelewa,d,mwakilishi,mwanauchumi,jaribio,NA,NA,NA,NULL,NA,NA,NA,NA,NA,NA,NA,NA,NA,NA,NA,NA,NA,NA,NA,NA,NA,NA,NA
3265e,task,flow.Sequence,1_4,NA,NA,completion,5750.115,150059.8,150055.158,150071.825,155821.94,155826.10000001,2023-08-12T10:21:56Z,155838.607,Verzögerung,kuchelewa,d,mwakilishi,mwanauchumi,jaribio,NA,NA,NA,NULL,NA,NA,NA,NA,NA,NA,NA,NA,NA,NA,NA,NA,NA,NA,NA,NA,NA,NA,NA
3265e,Deep Question,html.Page,1_5_0_0,NA,NA,form submission,5825.093000003,155826.2,155821.94,155838.607,161663.7,161664.10000001,2023-08-12T10:22:02Z,161672.576,Kontrolle,kudhibiti,d,mbinguni,kufunga,utegemezi,ughisi,NA,NA,NULL,NA,NA,NA,NA,NA,NA,NA,NA,NA,NA,NA,NA,NA,NA,NA,NA,NA,NA,NA
3265e,Save data screen,canvas.Screen,1_5_0_1,NA,NA,timeout,500.01000000001,161667.90000001,161655.909,161672.576,162155.919,162158.8,2023-08-12T10:22:02Z,162172.586,Kontrolle,kudhibiti,d,mbinguni,kufunga,utegemezi,NA,NA,0,NULL,NA,NA,NA,NA,NA,NA,NA,NA,NA,NA,NA,NA,NA,NA,NA,NA,NA,NA,NA
3265e,deep,flow.Sequence,1_5_0,NA,NA,completion,6317.312,155826.2,155821.94,155838.607,162155.919,162159.10000001,2023-08-12T10:22:02Z,162172.586,Kontrolle,kudhibiti,d,mbinguni,kufunga,utegemezi,NA,NA,NA,NULL,NA,NA,NA,NA,NA,NA,NA,NA,NA,NA,NA,NA,NA,NA,NA,NA,NA,NA,NA
3265e,task,flow.Sequence,1_5,NA,NA,completion,6317.312,155826.10000001,155821.94,155838.607,162155.919,162159.3,2023-08-12T10:22:02Z,162172.586,Kontrolle,kudhibiti,d,mbinguni,kufunga,utegemezi,NA,NA,NA,NULL,NA,NA,NA,NA,NA,NA,NA,NA,NA,NA,NA,NA,NA,NA,NA,NA,NA,NA,NA
3265e,Deep Question,html.Page,1_6_0_0,NA,NA,form submission,4458.814000006,162159.5,162155.919,162172.586,166631.40000001,166631.8,2023-08-12T10:22:07Z,166639.342,Angreifer,mshambulizi,s,kitengo,tasinia,usafirishaji,athaka,NA,NA,NULL,NA,NA,NA,NA,NA,NA,NA,NA,NA,NA,NA,NA,NA,NA,NA,NA,NA,NA,NA
3265e,Save data screen,canvas.Screen,1_6_0_1,NA,NA,timeout,500.01000000001,166634.8,166622.675,166639.342,167122.685,167127.10000001,2023-08-12T10:22:07Z,167139.352,Angreifer,mshambulizi,s,kitengo,tasinia,usafirishaji,NA,NA,0,NULL,NA,NA,NA,NA,NA,NA,NA,NA,NA,NA,NA,NA,NA,NA,NA,NA,NA,NA,NA
3265e,deep,flow.Sequence,1_6_0,NA,NA,completion,4950.099,162159.40000001,162155.919,162172.586,167122.685,167127.3,2023-08-12T10:22:07Z,167139.352,Angreifer,mshambulizi,s,kitengo,tasinia,usafirishaji,NA,NA,NA,NULL,NA,NA,NA,NA,NA,NA,NA,NA,NA,NA,NA,NA,NA,NA,NA,NA,NA,NA,NA
3265e,task,flow.Sequence,1_6,NA,NA,completion,4950.099,162159.40000001,162155.919,162172.586,167122.685,167127.5,2023-08-12T10:22:07Z,167139.352,Angreifer,mshambulizi,s,kitengo,tasinia,usafirishaji,NA,NA,NA,NULL,NA,NA,NA,NA,NA,NA,NA,NA,NA,NA,NA,NA,NA,NA,NA,NA,NA,NA,NA
3265e,Deep Question,html.Page,1_7_0_0,NA,NA,form submission,5741.7480000089,167127.7,167122.685,167139.352,172881.10000001,172881.5,2023-08-12T10:22:13Z,172889.854,Gefährdung,kuhatarisha,d,uchokozi,udhaifu,makorowezo,dangero,NA,NA,NULL,NA,NA,NA,NA,NA,NA,NA,NA,NA,NA,NA,NA,NA,NA,NA,NA,NA,NA,NA
3265e,Save data screen,canvas.Screen,1_7_0_1,NA,NA,timeout,500.01000000001,172884.5,172873.187,172889.854,173373.197,173377,2023-08-12T10:22:14Z,173389.864,Gefährdung,kuhatarisha,d,uchokozi,udhaifu,makorowezo,NA,NA,0,NULL,NA,NA,NA,NA,NA,NA,NA,NA,NA,NA,NA,NA,NA,NA,NA,NA,NA,NA,NA
3265e,deep,flow.Sequence,1_7_0,NA,NA,completion,6233.845,167127.7,167122.685,167139.352,173373.197,173377.3,2023-08-12T10:22:14Z,173389.864,Gefährdung,kuhatarisha,d,uchokozi,udhaifu,makorowezo,NA,NA,NA,NULL,NA,NA,NA,NA,NA,NA,NA,NA,NA,NA,NA,NA,NA,NA,NA,NA,NA,NA,NA
3265e,task,flow.Sequence,1_7,NA,NA,completion,6233.845,167127.60000001,167122.685,167139.352,173373.197,173377.40000001,2023-08-12T10:22:14Z,173389.864,Gefährdung,kuhatarisha,d,uchokozi,udhaifu,makorowezo,NA,NA,NA,NULL,NA,NA,NA,NA,NA,NA,NA,NA,NA,NA,NA,NA,NA,NA,NA,NA,NA,NA,NA
3265e,Deep Question,html.Page,1_8_0_0,NA,NA,form submission,10892.036000006,173377.7,173373.197,173389.864,184281.90000001,184282.3,2023-08-12T10:22:25Z,184290.691,Prüfung,mtihani,s,mkulima,mtizamo,ufumbuzi,bwembo,NA,NA,NULL,NA,NA,NA,NA,NA,NA,NA,NA,NA,NA,NA,NA,NA,NA,NA,NA,NA,NA,NA
3265e,Save data screen,canvas.Screen,1_8_0_1,NA,NA,timeout,500.01000000001,184285.3,184274.024,184290.691,184774.034,184778.7,2023-08-12T10:22:25Z,184790.701,Prüfung,mtihani,s,mkulima,mtizamo,ufumbuzi,NA,NA,0,NULL,NA,NA,NA,NA,NA,NA,NA,NA,NA,NA,NA,NA,NA,NA,NA,NA,NA,NA,NA
3265e,deep,flow.Sequence,1_8_0,NA,NA,completion,11384.17,173377.60000001,173373.197,173389.864,184774.034,184779.10000001,2023-08-12T10:22:25Z,184790.701,Prüfung,mtihani,s,mkulima,mtizamo,ufumbuzi,NA,NA,NA,NULL,NA,NA,NA,NA,NA,NA,NA,NA,NA,NA,NA,NA,NA,NA,NA,NA,NA,NA,NA
3265e,task,flow.Sequence,1_8,NA,NA,completion,11384.17,173377.5,173373.197,173389.864,184774.034,184779.2,2023-08-12T10:22:25Z,184790.701,Prüfung,mtihani,s,mkulima,mtizamo,ufumbuzi,NA,NA,NA,NULL,NA,NA,NA,NA,NA,NA,NA,NA,NA,NA,NA,NA,NA,NA,NA,NA,NA,NA,NA
3265e,Deep Question,html.Page,1_9_0_0,NA,NA,form submission,10275.399000009,184779.5,184774.034,184790.701,195066.10000001,195066.90000001,2023-08-12T10:22:35Z,195074.71,Können,unaweza,s,kiongozi,bustani,mienendo,makiki,NA,NA,NULL,NA,NA,NA,NA,NA,NA,NA,NA,NA,NA,NA,NA,NA,NA,NA,NA,NA,NA,NA
3265e,Save data screen,canvas.Screen,1_9_0_1,NA,NA,timeout,500.01000000001,195070.7,195058.043,195074.71,195558.053,195560.60000001,2023-08-12T10:22:36Z,195574.72,Können,unaweza,s,kiongozi,bustani,mienendo,NA,NA,0,NULL,NA,NA,NA,NA,NA,NA,NA,NA,NA,NA,NA,NA,NA,NA,NA,NA,NA,NA,NA
3265e,deep,flow.Sequence,1_9_0,NA,NA,completion,10767.352,184779.40000001,184774.034,184790.701,195558.053,195561,2023-08-12T10:22:36Z,195574.72,Können,unaweza,s,kiongozi,bustani,mienendo,NA,NA,NA,NULL,NA,NA,NA,NA,NA,NA,NA,NA,NA,NA,NA,NA,NA,NA,NA,NA,NA,NA,NA
3265e,task,flow.Sequence,1_9,NA,NA,completion,10767.352,184779.40000001,184774.034,184790.701,195558.053,195561.10000001,2023-08-12T10:22:36Z,195574.72,Können,unaweza,s,kiongozi,bustani,mienendo,NA,NA,NA,NULL,NA,NA,NA,NA,NA,NA,NA,NA,NA,NA,NA,NA,NA,NA,NA,NA,NA,NA,NA
3265e,Deep Question,html.Page,1_10_0_0,NA,NA,form submission,13059.28,195561.3,195558.053,195574.72,208634,208634.3,2023-08-12T10:22:49Z,208642.162,Körper,kiwiliwili,d,mapambano,mpatanishi,kiolezo,dhala,NA,NA,NULL,NA,NA,NA,NA,NA,NA,NA,NA,NA,NA,NA,NA,NA,NA,NA,NA,NA,NA,NA
3265e,Save data screen,canvas.Screen,1_10_0_1,NA,NA,timeout,500.00999999998,208637.5,208625.495,208642.162,209125.505,209126.90000001,2023-08-12T10:22:49Z,209142.172,Körper,kiwiliwili,d,mapambano,mpatanishi,kiolezo,NA,NA,0,NULL,NA,NA,NA,NA,NA,NA,NA,NA,NA,NA,NA,NA,NA,NA,NA,NA,NA,NA,NA
3265e,deep,flow.Sequence,1_10_0,NA,NA,completion,13550.785,195561.2,195558.053,195574.72,209125.505,209127.2,2023-08-12T10:22:49Z,209142.172,Körper,kiwiliwili,d,mapambano,mpatanishi,kiolezo,NA,NA,NA,NULL,NA,NA,NA,NA,NA,NA,NA,NA,NA,NA,NA,NA,NA,NA,NA,NA,NA,NA,NA
3265e,task,flow.Sequence,1_10,NA,NA,completion,13550.785,195561.2,195558.053,195574.72,209125.505,209127.40000001,2023-08-12T10:22:49Z,209142.172,Körper,kiwiliwili,d,mapambano,mpatanishi,kiolezo,NA,NA,NA,NULL,NA,NA,NA,NA,NA,NA,NA,NA,NA,NA,NA,NA,NA,NA,NA,NA,NA,NA,NA
3265e,Deep Question,html.Page,1_11_0_0,NA,NA,form submission,10425.627999997,209127.60000001,209125.505,209142.172,219567.8,219568,2023-08-12T10:23:00Z,219576.202,Sänger,mwimbaji,s,msichana,shughuli,mshirika,ahimi,NA,NA,NULL,NA,NA,NA,NA,NA,NA,NA,NA,NA,NA,NA,NA,NA,NA,NA,NA,NA,NA,NA
3265e,Save data screen,canvas.Screen,1_11_0_1,NA,NA,timeout,500.01000000001,219571.10000001,219559.535,219576.202,220059.545,220063.5,2023-08-12T10:23:00Z,220076.212,Sänger,mwimbaji,s,msichana,shughuli,mshirika,NA,NA,0,NULL,NA,NA,NA,NA,NA,NA,NA,NA,NA,NA,NA,NA,NA,NA,NA,NA,NA,NA,NA
3265e,deep,flow.Sequence,1_11_0,NA,NA,completion,10917.373,209127.60000001,209125.505,209142.172,220059.545,220063.8,2023-08-12T10:23:00Z,220076.212,Sänger,mwimbaji,s,msichana,shughuli,mshirika,NA,NA,NA,NULL,NA,NA,NA,NA,NA,NA,NA,NA,NA,NA,NA,NA,NA,NA,NA,NA,NA,NA,NA
3265e,task,flow.Sequence,1_11,NA,NA,completion,10917.373,209127.60000001,209125.505,209142.172,220059.545,220063.90000001,2023-08-12T10:23:00Z,220076.212,Sänger,mwimbaji,s,msichana,shughuli,mshirika,NA,NA,NA,NULL,NA,NA,NA,NA,NA,NA,NA,NA,NA,NA,NA,NA,NA,NA,NA,NA,NA,NA,NA
3265e,Deep Question,html.Page,1_12_0_0,NA,NA,form submission,5325.188000006,220064.10000001,220059.545,220076.212,225401.40000001,225401.7,2023-08-12T10:23:06Z,225410.165,Übersicht,kilindo,d,mgusano,chipukizi,kulinganisha,obermo,NA,NA,NULL,NA,NA,NA,NA,NA,NA,NA,NA,NA,NA,NA,NA,NA,NA,NA,NA,NA,NA,NA
3265e,Save data screen,canvas.Screen,1_12_0_1,NA,NA,timeout,500.00999999998,225405.10000001,225393.498,225410.165,225893.508,225897.60000001,2023-08-12T10:23:06Z,225910.175,Übersicht,kilindo,d,mgusano,chipukizi,kulinganisha,NA,NA,0,NULL,NA,NA,NA,NA,NA,NA,NA,NA,NA,NA,NA,NA,NA,NA,NA,NA,NA,NA,NA
3265e,deep,flow.Sequence,1_12_0,NA,NA,completion,5817.296,220064.10000001,220059.545,220076.212,225893.508,225897.8,2023-08-12T10:23:06Z,225910.175,Übersicht,kilindo,d,mgusano,chipukizi,kulinganisha,NA,NA,NA,NULL,NA,NA,NA,NA,NA,NA,NA,NA,NA,NA,NA,NA,NA,NA,NA,NA,NA,NA,NA
3265e,task,flow.Sequence,1_12,NA,NA,completion,5817.296,220064.10000001,220059.545,220076.212,225893.508,225897.90000001,2023-08-12T10:23:06Z,225910.175,Übersicht,kilindo,d,mgusano,chipukizi,kulinganisha,NA,NA,NA,NULL,NA,NA,NA,NA,NA,NA,NA,NA,NA,NA,NA,NA,NA,NA,NA,NA,NA,NA,NA
3265e,Deep Question,html.Page,1_13_0_0,NA,NA,form submission,29593.425000009,225898.2,225893.508,225910.175,255503.60000001,255504.60000001,2023-08-12T10:23:36Z,255512.189,System,maongozi,s,chokochoko,nuksani,mitaani,wakatiki,NA,NA,NULL,NA,NA,NA,NA,NA,NA,NA,NA,NA,NA,NA,NA,NA,NA,NA,NA,NA,NA,NA
3265e,Save data screen,canvas.Screen,1_13_0_1,NA,NA,timeout,500.00999999998,255507.8,255495.522,255512.189,255995.532,256000.40000001,2023-08-12T10:23:36Z,256012.199,System,maongozi,s,chokochoko,nuksani,mitaani,NA,NA,0,NULL,NA,NA,NA,NA,NA,NA,NA,NA,NA,NA,NA,NA,NA,NA,NA,NA,NA,NA,NA
3265e,deep,flow.Sequence,1_13_0,NA,NA,completion,30085.357,225898.10000001,225893.508,225910.175,255995.532,256000.7,2023-08-12T10:23:36Z,256012.199,System,maongozi,s,chokochoko,nuksani,mitaani,NA,NA,NA,NULL,NA,NA,NA,NA,NA,NA,NA,NA,NA,NA,NA,NA,NA,NA,NA,NA,NA,NA,NA
3265e,task,flow.Sequence,1_13,NA,NA,completion,30085.357,225898.10000001,225893.508,225910.175,255995.532,256000.90000001,2023-08-12T10:23:36Z,256012.199,System,maongozi,s,chokochoko,nuksani,mitaani,NA,NA,NA,NULL,NA,NA,NA,NA,NA,NA,NA,NA,NA,NA,NA,NA,NA,NA,NA,NA,NA,NA,NA
3265e,Deep Question,html.Page,1_14_0_0,NA,NA,form submission,4908.501000003,256001.10000001,255995.532,256012.199,260920.7,260920.90000001,2023-08-12T10:23:41Z,260928.964,Lawine,banguko,s,maambukizi,usuluhishi,chekechea,ombwela,NA,NA,NULL,NA,NA,NA,NA,NA,NA,NA,NA,NA,NA,NA,NA,NA,NA,NA,NA,NA,NA,NA
3265e,Save data screen,canvas.Screen,1_14_0_1,NA,NA,timeout,500.00999999998,260923.90000001,260912.297,260928.964,261412.307,261417.10000001,2023-08-12T10:23:42Z,261428.974,Lawine,banguko,s,maambukizi,usuluhishi,chekechea,NA,NA,0,NULL,NA,NA,NA,NA,NA,NA,NA,NA,NA,NA,NA,NA,NA,NA,NA,NA,NA,NA,NA
3265e,deep,flow.Sequence,1_14_0,NA,NA,completion,5400.108,256001,255995.532,256012.199,261412.307,261417.40000001,2023-08-12T10:23:42Z,261428.974,Lawine,banguko,s,maambukizi,usuluhishi,chekechea,NA,NA,NA,NULL,NA,NA,NA,NA,NA,NA,NA,NA,NA,NA,NA,NA,NA,NA,NA,NA,NA,NA,NA
3265e,task,flow.Sequence,1_14,NA,NA,completion,5400.108,256001,255995.532,256012.199,261412.307,261417.60000001,2023-08-12T10:23:42Z,261428.974,Lawine,banguko,s,maambukizi,usuluhishi,chekechea,NA,NA,NA,NULL,NA,NA,NA,NA,NA,NA,NA,NA,NA,NA,NA,NA,NA,NA,NA,NA,NA,NA,NA
3265e,Deep Question,html.Page,1_15_0_0,NA,NA,form submission,7141.825999997,261417.8,261412.307,261428.974,268570.8,268571.2,2023-08-12T10:23:49Z,268579.704,Aufstand,ugomaji,s,mazidio,msingi,kujieleza,irihhio,NA,NA,NULL,NA,NA,NA,NA,NA,NA,NA,NA,NA,NA,NA,NA,NA,NA,NA,NA,NA,NA,NA
3265e,Save data screen,canvas.Screen,1_15_0_1,NA,NA,timeout,500.00999999995,268574.3,268563.037,268579.704,269063.047,269067.8,2023-08-12T10:23:49Z,269079.714,Aufstand,ugomaji,s,mazidio,msingi,kujieleza,NA,NA,0,NULL,NA,NA,NA,NA,NA,NA,NA,NA,NA,NA,NA,NA,NA,NA,NA,NA,NA,NA,NA
3265e,deep,flow.Sequence,1_15_0,NA,NA,completion,7634.073,261417.7,261412.307,261428.974,269063.047,269068.10000001,2023-08-12T10:23:49Z,269079.714,Aufstand,ugomaji,s,mazidio,msingi,kujieleza,NA,NA,NA,NULL,NA,NA,NA,NA,NA,NA,NA,NA,NA,NA,NA,NA,NA,NA,NA,NA,NA,NA,NA
3265e,task,flow.Sequence,1_15,NA,NA,completion,7634.073,261417.7,261412.307,261428.974,269063.047,269068.3,2023-08-12T10:23:49Z,269079.714,Aufstand,ugomaji,s,mazidio,msingi,kujieleza,NA,NA,NA,NULL,NA,NA,NA,NA,NA,NA,NA,NA,NA,NA,NA,NA,NA,NA,NA,NA,NA,NA,NA
3265e,retrieval block 1 (cued recall),flow.Loop,1,NA,NA,completion,258401.104,10657.299999997,10628.609,10661.943,269063.047,269068.60000001,2023-08-12T10:23:49Z,269079.714,NA,NA,NA,NA,NA,NA,NA,NA,NA,NULL,NA,NA,NA,NA,NA,NA,NA,NA,NA,NA,NA,NA,NA,NA,NA,NA,NA,NA,NA
3265e,Shallow Question,html.Page,2_0_0_0,NA,NA,form submission,13008.786,269068.90000001,269063.047,269079.714,282088.5,282088.8,2023-08-12T10:24:02Z,282097.095,System,maongozi,s,chokochoko,nuksani,mitaani,maongozi,NA,NA,"c(""distractor1"", ""distractor2"", ""distractor3"")",NA,NA,NA,NA,NA,NA,NA,NA,NA,NA,NA,NA,NA,NA,NA,NA,NA,NA,NA
3265e,Save data screen,canvas.Screen,2_0_0_1,NA,NA,timeout,500.467,282091.7,282080.428,282097.095,282580.895,282583.3,2023-08-12T10:24:03Z,282597.562,System,maongozi,s,chokochoko,nuksani,mitaani,NA,NA,1,"c(""distractor1"", ""distractor2"", ""distractor3"")",NA,NA,NA,NA,NA,NA,NA,NA,NA,NA,NA,NA,NA,NA,NA,NA,NA,NA,NA
3265e,shallow,flow.Sequence,2_0_0,NA,NA,completion,13501.181,269068.8,269063.047,269079.714,282580.895,282583.60000001,2023-08-12T10:24:03Z,282597.562,System,maongozi,s,chokochoko,nuksani,mitaani,NA,NA,NA,"c(""distractor1"", ""distractor2"", ""distractor3"")",NA,NA,NA,NA,NA,NA,NA,NA,NA,NA,NA,NA,NA,NA,NA,NA,NA,NA,NA
3265e,task,flow.Sequence,2_0,NA,NA,completion,13501.181,269068.8,269063.047,269079.714,282580.895,282583.8,2023-08-12T10:24:03Z,282597.562,System,maongozi,s,chokochoko,nuksani,mitaani,NA,NA,NA,"c(""distractor1"", ""distractor2"", ""distractor3"")",NA,NA,NA,NA,NA,NA,NA,NA,NA,NA,NA,NA,NA,NA,NA,NA,NA,NA,NA
3265e,Shallow Question,html.Page,2_1_0_0,NA,NA,form submission,19942.438,282584,282580.895,282597.562,302540,302540.40000001,2023-08-12T10:24:23Z,302548.947,Angreifer,mshambulizi,s,kitengo,tasinia,usafirishaji,mshambulizi,NA,NA,"c(""distractor1"", ""distractor2"", ""distractor3"")",NA,NA,NA,NA,NA,NA,NA,NA,NA,NA,NA,NA,NA,NA,NA,NA,NA,NA,NA
3265e,Save data screen,canvas.Screen,2_1_0_1,NA,NA,timeout,500.01000000001,302543.2,302532.28,302548.947,303032.29,303034.3,2023-08-12T10:24:23Z,303048.957,Angreifer,mshambulizi,s,kitengo,tasinia,usafirishaji,NA,NA,1,"c(""distractor1"", ""distractor2"", ""distractor3"")",NA,NA,NA,NA,NA,NA,NA,NA,NA,NA,NA,NA,NA,NA,NA,NA,NA,NA,NA
3265e,shallow,flow.Sequence,2_1_0,NA,NA,completion,20434.728,282584,282580.895,282597.562,303032.29,303034.5,2023-08-12T10:24:23Z,303048.957,Angreifer,mshambulizi,s,kitengo,tasinia,usafirishaji,NA,NA,NA,"c(""distractor1"", ""distractor2"", ""distractor3"")",NA,NA,NA,NA,NA,NA,NA,NA,NA,NA,NA,NA,NA,NA,NA,NA,NA,NA,NA
3265e,task,flow.Sequence,2_1,NA,NA,completion,20434.728,282583.90000001,282580.895,282597.562,303032.29,303034.8,2023-08-12T10:24:23Z,303048.957,Angreifer,mshambulizi,s,kitengo,tasinia,usafirishaji,NA,NA,NA,"c(""distractor1"", ""distractor2"", ""distractor3"")",NA,NA,NA,NA,NA,NA,NA,NA,NA,NA,NA,NA,NA,NA,NA,NA,NA,NA,NA
3265e,Shallow Question,html.Page,2_2_0_0,NA,NA,form submission,11925.643000009,303034.90000001,303032.29,303048.957,314974.60000001,314975,2023-08-12T10:24:35Z,314983.036,Körper,kiwiliwili,d,mapambano,mpatanishi,kiolezo,mpatanishi,NA,NA,"c(""distractor1"", ""distractor2"", ""distractor3"")",NA,NA,NA,NA,NA,NA,NA,NA,NA,NA,NA,NA,NA,NA,NA,NA,NA,NA,NA
3265e,Save data screen,canvas.Screen,2_2_0_1,NA,NA,timeout,500.00999999995,314978.2,314966.369,314983.036,315466.379,315468.60000001,2023-08-12T10:24:36Z,315483.046,Körper,kiwiliwili,d,mapambano,mpatanishi,kiolezo,NA,NA,0,"c(""distractor1"", ""distractor2"", ""distractor3"")",NA,NA,NA,NA,NA,NA,NA,NA,NA,NA,NA,NA,NA,NA,NA,NA,NA,NA,NA
3265e,shallow,flow.Sequence,2_2_0,NA,NA,completion,12417.422,303034.90000001,303032.29,303048.957,315466.379,315468.8,2023-08-12T10:24:36Z,315483.046,Körper,kiwiliwili,d,mapambano,mpatanishi,kiolezo,NA,NA,NA,"c(""distractor1"", ""distractor2"", ""distractor3"")",NA,NA,NA,NA,NA,NA,NA,NA,NA,NA,NA,NA,NA,NA,NA,NA,NA,NA,NA
3265e,task,flow.Sequence,2_2,NA,NA,completion,12417.422,303034.8,303032.29,303048.957,315466.379,315469.10000001,2023-08-12T10:24:36Z,315483.046,Körper,kiwiliwili,d,mapambano,mpatanishi,kiolezo,NA,NA,NA,"c(""distractor1"", ""distractor2"", ""distractor3"")",NA,NA,NA,NA,NA,NA,NA,NA,NA,NA,NA,NA,NA,NA,NA,NA,NA,NA,NA
3265e,Shallow Question,html.Page,2_3_0_0,NA,NA,form submission,7474.854000006,315469.2,315466.379,315483.046,322957.90000001,322958.2,2023-08-12T10:24:43Z,322967.069,Aufstand,ugomaji,s,mazidio,msingi,kujieleza,ugomaji,NA,NA,"c(""distractor1"", ""distractor2"", ""distractor3"")",NA,NA,NA,NA,NA,NA,NA,NA,NA,NA,NA,NA,NA,NA,NA,NA,NA,NA,NA
3265e,Save data screen,canvas.Screen,2_3_0_1,NA,NA,timeout,500.01000000001,322961.10000001,322950.402,322967.069,323450.412,323455.2,2023-08-12T10:24:44Z,323467.079,Aufstand,ugomaji,s,mazidio,msingi,kujieleza,NA,NA,1,"c(""distractor1"", ""distractor2"", ""distractor3"")",NA,NA,NA,NA,NA,NA,NA,NA,NA,NA,NA,NA,NA,NA,NA,NA,NA,NA,NA
3265e,shallow,flow.Sequence,2_3_0,NA,NA,completion,7967.366,315469.2,315466.379,315483.046,323450.412,323455.60000001,2023-08-12T10:24:44Z,323467.079,Aufstand,ugomaji,s,mazidio,msingi,kujieleza,NA,NA,NA,"c(""distractor1"", ""distractor2"", ""distractor3"")",NA,NA,NA,NA,NA,NA,NA,NA,NA,NA,NA,NA,NA,NA,NA,NA,NA,NA,NA
3265e,task,flow.Sequence,2_3,NA,NA,completion,7967.366,315469.2,315466.379,315483.046,323450.412,323455.8,2023-08-12T10:24:44Z,323467.079,Aufstand,ugomaji,s,mazidio,msingi,kujieleza,NA,NA,NA,"c(""distractor1"", ""distractor2"", ""distractor3"")",NA,NA,NA,NA,NA,NA,NA,NA,NA,NA,NA,NA,NA,NA,NA,NA,NA,NA,NA
3265e,Shallow Question,html.Page,2_4_0_0,NA,NA,form submission,5508.8210000059,323456,323450.412,323467.079,328975.90000001,328976.2,2023-08-12T10:24:49Z,328983.856,Kultur,utamaduni,d,shetani,gerezani,mazingira,utamaduni,NA,NA,"c(""distractor1"", ""distractor2"", ""distractor3"")",NA,NA,NA,NA,NA,NA,NA,NA,NA,NA,NA,NA,NA,NA,NA,NA,NA,NA,NA
3265e,Save data screen,canvas.Screen,2_4_0_1,NA,NA,timeout,500.00999999995,328979.3,328967.189,328983.856,329467.199,329472.2,2023-08-12T10:24:50Z,329483.866,Kultur,utamaduni,d,shetani,gerezani,mazingira,NA,NA,1,"c(""distractor1"", ""distractor2"", ""distractor3"")",NA,NA,NA,NA,NA,NA,NA,NA,NA,NA,NA,NA,NA,NA,NA,NA,NA,NA,NA
3265e,shallow,flow.Sequence,2_4_0,NA,NA,completion,6000.12,323455.90000001,323450.412,323467.079,329467.199,329472.40000001,2023-08-12T10:24:50Z,329483.866,Kultur,utamaduni,d,shetani,gerezani,mazingira,NA,NA,NA,"c(""distractor1"", ""distractor2"", ""distractor3"")",NA,NA,NA,NA,NA,NA,NA,NA,NA,NA,NA,NA,NA,NA,NA,NA,NA,NA,NA
3265e,task,flow.Sequence,2_4,NA,NA,completion,6000.12,323455.90000001,323450.412,323467.079,329467.199,329472.60000001,2023-08-12T10:24:50Z,329483.866,Kultur,utamaduni,d,shetani,gerezani,mazingira,NA,NA,NA,"c(""distractor1"", ""distractor2"", ""distractor3"")",NA,NA,NA,NA,NA,NA,NA,NA,NA,NA,NA,NA,NA,NA,NA,NA,NA,NA,NA
3265e,Shallow Question,html.Page,2_5_0_0,NA,NA,form submission,6292.134,329472.8,329467.199,329483.866,335776,335776.3,2023-08-12T10:24:56Z,335784.548,Können,unaweza,s,kiongozi,bustani,mienendo,unaweza,NA,NA,"c(""distractor1"", ""distractor2"", ""distractor3"")",NA,NA,NA,NA,NA,NA,NA,NA,NA,NA,NA,NA,NA,NA,NA,NA,NA,NA,NA
3265e,Save data screen,canvas.Screen,2_5_0_1,NA,NA,timeout,500.01000000001,335779.40000001,335767.881,335784.548,336267.891,336272.60000001,2023-08-12T10:24:57Z,336284.558,Können,unaweza,s,kiongozi,bustani,mienendo,NA,NA,1,"c(""distractor1"", ""distractor2"", ""distractor3"")",NA,NA,NA,NA,NA,NA,NA,NA,NA,NA,NA,NA,NA,NA,NA,NA,NA,NA,NA
3265e,shallow,flow.Sequence,2_5_0,NA,NA,completion,6784.025,329472.8,329467.199,329483.866,336267.891,336272.90000001,2023-08-12T10:24:57Z,336284.558,Können,unaweza,s,kiongozi,bustani,mienendo,NA,NA,NA,"c(""distractor1"", ""distractor2"", ""distractor3"")",NA,NA,NA,NA,NA,NA,NA,NA,NA,NA,NA,NA,NA,NA,NA,NA,NA,NA,NA
3265e,task,flow.Sequence,2_5,NA,NA,completion,6784.025,329472.7,329467.199,329483.866,336267.891,336273.10000001,2023-08-12T10:24:57Z,336284.558,Können,unaweza,s,kiongozi,bustani,mienendo,NA,NA,NA,"c(""distractor1"", ""distractor2"", ""distractor3"")",NA,NA,NA,NA,NA,NA,NA,NA,NA,NA,NA,NA,NA,NA,NA,NA,NA,NA,NA
3265e,Shallow Question,html.Page,2_6_0_0,NA,NA,form submission,18975.442,336273.3,336267.891,336284.558,355260,355260.3,2023-08-12T10:25:16Z,355268.875,Übersicht,kilindo,d,mgusano,chipukizi,kulinganisha,kulinganisha,NA,NA,"c(""distractor1"", ""distractor2"", ""distractor3"")",NA,NA,NA,NA,NA,NA,NA,NA,NA,NA,NA,NA,NA,NA,NA,NA,NA,NA,NA
3265e,Save data screen,canvas.Screen,2_6_0_1,NA,NA,timeout,500.01000000001,355263.2,355252.208,355268.875,355752.218,355755.10000001,2023-08-12T10:25:16Z,355768.885,Übersicht,kilindo,d,mgusano,chipukizi,kulinganisha,NA,NA,0,"c(""distractor1"", ""distractor2"", ""distractor3"")",NA,NA,NA,NA,NA,NA,NA,NA,NA,NA,NA,NA,NA,NA,NA,NA,NA,NA,NA
3265e,shallow,flow.Sequence,2_6_0,NA,NA,completion,19467.66,336273.2,336267.891,336284.558,355752.218,355755.40000001,2023-08-12T10:25:16Z,355768.885,Übersicht,kilindo,d,mgusano,chipukizi,kulinganisha,NA,NA,NA,"c(""distractor1"", ""distractor2"", ""distractor3"")",NA,NA,NA,NA,NA,NA,NA,NA,NA,NA,NA,NA,NA,NA,NA,NA,NA,NA,NA
3265e,task,flow.Sequence,2_6,NA,NA,completion,19467.66,336273.2,336267.891,336284.558,355752.218,355755.60000001,2023-08-12T10:25:16Z,355768.885,Übersicht,kilindo,d,mgusano,chipukizi,kulinganisha,NA,NA,NA,"c(""distractor1"", ""distractor2"", ""distractor3"")",NA,NA,NA,NA,NA,NA,NA,NA,NA,NA,NA,NA,NA,NA,NA,NA,NA,NA,NA
3265e,Shallow Question,html.Page,2_7_0_0,NA,NA,form submission,7925.914999997,355755.90000001,355752.218,355768.885,363694.8,363695.10000001,2023-08-12T10:25:24Z,363702.811,Gefährdung,kuhatarisha,d,uchokozi,udhaifu,makorowezo,udhaifu,NA,NA,"c(""distractor1"", ""distractor2"", ""distractor3"")",NA,NA,NA,NA,NA,NA,NA,NA,NA,NA,NA,NA,NA,NA,NA,NA,NA,NA,NA
3265e,Save data screen,canvas.Screen,2_7_0_1,NA,NA,timeout,500.01000000001,363698,363686.144,363702.811,364186.154,364189.8,2023-08-12T10:25:24Z,364202.821,Gefährdung,kuhatarisha,d,uchokozi,udhaifu,makorowezo,NA,NA,0,"c(""distractor1"", ""distractor2"", ""distractor3"")",NA,NA,NA,NA,NA,NA,NA,NA,NA,NA,NA,NA,NA,NA,NA,NA,NA,NA,NA
3265e,shallow,flow.Sequence,2_7_0,NA,NA,completion,8417.269,355755.8,355752.218,355768.885,364186.154,364190.10000001,2023-08-12T10:25:24Z,364202.821,Gefährdung,kuhatarisha,d,uchokozi,udhaifu,makorowezo,NA,NA,NA,"c(""distractor1"", ""distractor2"", ""distractor3"")",NA,NA,NA,NA,NA,NA,NA,NA,NA,NA,NA,NA,NA,NA,NA,NA,NA,NA,NA
3265e,task,flow.Sequence,2_7,NA,NA,completion,8417.269,355755.7,355752.218,355768.885,364186.154,364190.3,2023-08-12T10:25:24Z,364202.821,Gefährdung,kuhatarisha,d,uchokozi,udhaifu,makorowezo,NA,NA,NA,"c(""distractor1"", ""distractor2"", ""distractor3"")",NA,NA,NA,NA,NA,NA,NA,NA,NA,NA,NA,NA,NA,NA,NA,NA,NA,NA,NA
3265e,Shallow Question,html.Page,2_8_0_0,NA,NA,form submission,7458.679,364190.5,364186.154,364202.821,371661.5,371661.90000001,2023-08-12T10:25:32Z,371670.236,Kontrolle,kudhibiti,d,mbinguni,kufunga,utegemezi,kudhibiti,NA,NA,"c(""distractor1"", ""distractor2"", ""distractor3"")",NA,NA,NA,NA,NA,NA,NA,NA,NA,NA,NA,NA,NA,NA,NA,NA,NA,NA,NA
3265e,Save data screen,canvas.Screen,2_8_0_1,NA,NA,timeout,500.01000000001,371664.90000001,371653.569,371670.236,372153.579,372158.2,2023-08-12T10:25:32Z,372170.246,Kontrolle,kudhibiti,d,mbinguni,kufunga,utegemezi,NA,NA,1,"c(""distractor1"", ""distractor2"", ""distractor3"")",NA,NA,NA,NA,NA,NA,NA,NA,NA,NA,NA,NA,NA,NA,NA,NA,NA,NA,NA
3265e,shallow,flow.Sequence,2_8_0,NA,NA,completion,7950.758,364190.5,364186.154,364202.821,372153.579,372158.5,2023-08-12T10:25:32Z,372170.246,Kontrolle,kudhibiti,d,mbinguni,kufunga,utegemezi,NA,NA,NA,"c(""distractor1"", ""distractor2"", ""distractor3"")",NA,NA,NA,NA,NA,NA,NA,NA,NA,NA,NA,NA,NA,NA,NA,NA,NA,NA,NA
3265e,task,flow.Sequence,2_8,NA,NA,completion,7950.758,364190.40000001,364186.154,364202.821,372153.579,372158.7,2023-08-12T10:25:32Z,372170.246,Kontrolle,kudhibiti,d,mbinguni,kufunga,utegemezi,NA,NA,NA,"c(""distractor1"", ""distractor2"", ""distractor3"")",NA,NA,NA,NA,NA,NA,NA,NA,NA,NA,NA,NA,NA,NA,NA,NA,NA,NA,NA
3265e,Shallow Question,html.Page,2_9_0_0,NA,NA,form submission,6575.254,372158.90000001,372153.579,372170.246,378745.5,378745.8,2023-08-12T10:25:39Z,378754.185,Sänger,mwimbaji,s,msichana,shughuli,mshirika,mshirika,NA,NA,"c(""distractor1"", ""distractor2"", ""distractor3"")",NA,NA,NA,NA,NA,NA,NA,NA,NA,NA,NA,NA,NA,NA,NA,NA,NA,NA,NA
3265e,Save data screen,canvas.Screen,2_9_0_1,NA,NA,timeout,500.01000000001,378748.90000001,378737.518,378754.185,379237.528,379241.40000001,2023-08-12T10:25:40Z,379254.195,Sänger,mwimbaji,s,msichana,shughuli,mshirika,NA,NA,0,"c(""distractor1"", ""distractor2"", ""distractor3"")",NA,NA,NA,NA,NA,NA,NA,NA,NA,NA,NA,NA,NA,NA,NA,NA,NA,NA,NA
3265e,shallow,flow.Sequence,2_9_0,NA,NA,completion,7067.282,372158.90000001,372153.579,372170.246,379237.528,379241.60000001,2023-08-12T10:25:40Z,379254.195,Sänger,mwimbaji,s,msichana,shughuli,mshirika,NA,NA,NA,"c(""distractor1"", ""distractor2"", ""distractor3"")",NA,NA,NA,NA,NA,NA,NA,NA,NA,NA,NA,NA,NA,NA,NA,NA,NA,NA,NA
3265e,task,flow.Sequence,2_9,NA,NA,completion,7067.282,372158.8,372153.579,372170.246,379237.528,379241.90000001,2023-08-12T10:25:40Z,379254.195,Sänger,mwimbaji,s,msichana,shughuli,mshirika,NA,NA,NA,"c(""distractor1"", ""distractor2"", ""distractor3"")",NA,NA,NA,NA,NA,NA,NA,NA,NA,NA,NA,NA,NA,NA,NA,NA,NA,NA,NA
3265e,Shallow Question,html.Page,2_10_0_0,NA,NA,form submission,4346.104999997,379242.10000001,379237.528,379254.195,383600.3,383600.8,2023-08-12T10:25:44Z,383604.282,Kanzler,diwani,d,rasilmali,mahitaji,maabudu,diwani,NA,NA,"c(""distractor1"", ""distractor2"", ""distractor3"")",NA,NA,NA,NA,NA,NA,NA,NA,NA,NA,NA,NA,NA,NA,NA,NA,NA,NA,NA
3265e,Save data screen,canvas.Screen,2_10_0_1,NA,NA,timeout,500.01000000001,383602.8,383587.615,383604.282,384087.625,384088.5,2023-08-12T10:25:44Z,384104.292,Kanzler,diwani,d,rasilmali,mahitaji,maabudu,NA,NA,1,"c(""distractor1"", ""distractor2"", ""distractor3"")",NA,NA,NA,NA,NA,NA,NA,NA,NA,NA,NA,NA,NA,NA,NA,NA,NA,NA,NA
3265e,shallow,flow.Sequence,2_10_0,NA,NA,completion,4833.43,379242,379237.528,379254.195,384087.625,384088.8,2023-08-12T10:25:44Z,384104.292,Kanzler,diwani,d,rasilmali,mahitaji,maabudu,NA,NA,NA,"c(""distractor1"", ""distractor2"", ""distractor3"")",NA,NA,NA,NA,NA,NA,NA,NA,NA,NA,NA,NA,NA,NA,NA,NA,NA,NA,NA
3265e,task,flow.Sequence,2_10,NA,NA,completion,4833.43,379242,379237.528,379254.195,384087.625,384089,2023-08-12T10:25:44Z,384104.292,Kanzler,diwani,d,rasilmali,mahitaji,maabudu,NA,NA,NA,"c(""distractor1"", ""distractor2"", ""distractor3"")",NA,NA,NA,NA,NA,NA,NA,NA,NA,NA,NA,NA,NA,NA,NA,NA,NA,NA,NA
3265e,Shallow Question,html.Page,2_11_0_0,NA,NA,form submission,5225.3080000089,384089.40000001,384087.625,384104.292,389329.60000001,389330,2023-08-12T10:25:50Z,389338.189,Verzögerung,kuchelewa,d,mwakilishi,mwanauchumi,jaribio,kuchelewa,NA,NA,"c(""distractor1"", ""distractor2"", ""distractor3"")",NA,NA,NA,NA,NA,NA,NA,NA,NA,NA,NA,NA,NA,NA,NA,NA,NA,NA,NA
3265e,Save data screen,canvas.Screen,2_11_0_1,NA,NA,timeout,500.01000000001,389332.7,389321.522,389338.189,389821.532,389824.5,2023-08-12T10:25:50Z,389838.199,Verzögerung,kuchelewa,d,mwakilishi,mwanauchumi,jaribio,NA,NA,1,"c(""distractor1"", ""distractor2"", ""distractor3"")",NA,NA,NA,NA,NA,NA,NA,NA,NA,NA,NA,NA,NA,NA,NA,NA,NA,NA,NA
3265e,shallow,flow.Sequence,2_11_0,NA,NA,completion,5717.24,384089.3,384087.625,384104.292,389821.532,389824.8,2023-08-12T10:25:50Z,389838.199,Verzögerung,kuchelewa,d,mwakilishi,mwanauchumi,jaribio,NA,NA,NA,"c(""distractor1"", ""distractor2"", ""distractor3"")",NA,NA,NA,NA,NA,NA,NA,NA,NA,NA,NA,NA,NA,NA,NA,NA,NA,NA,NA
3265e,task,flow.Sequence,2_11,NA,NA,completion,5717.24,384089.2,384087.625,384104.292,389821.532,389825,2023-08-12T10:25:50Z,389838.199,Verzögerung,kuchelewa,d,mwakilishi,mwanauchumi,jaribio,NA,NA,NA,"c(""distractor1"", ""distractor2"", ""distractor3"")",NA,NA,NA,NA,NA,NA,NA,NA,NA,NA,NA,NA,NA,NA,NA,NA,NA,NA,NA
3265e,Shallow Question,html.Page,2_12_0_0,NA,NA,form submission,9042.2010000059,389825.3,389821.532,389838.199,398880.40000001,398880.7,2023-08-12T10:25:59Z,398888.915,Prüfung,mtihani,s,mkulima,mtizamo,ufumbuzi,mtihani,NA,NA,"c(""distractor1"", ""distractor2"", ""distractor3"")",NA,NA,NA,NA,NA,NA,NA,NA,NA,NA,NA,NA,NA,NA,NA,NA,NA,NA,NA
3265e,Save data screen,canvas.Screen,2_12_0_1,NA,NA,timeout,500.01000000001,398883.60000001,398872.248,398888.915,399372.258,399373.8,2023-08-12T10:26:00Z,399388.925,Prüfung,mtihani,s,mkulima,mtizamo,ufumbuzi,NA,NA,1,"c(""distractor1"", ""distractor2"", ""distractor3"")",NA,NA,NA,NA,NA,NA,NA,NA,NA,NA,NA,NA,NA,NA,NA,NA,NA,NA,NA
3265e,shallow,flow.Sequence,2_12_0,NA,NA,completion,9534.059,389825.2,389821.532,389838.199,399372.258,399374.10000001,2023-08-12T10:26:00Z,399388.925,Prüfung,mtihani,s,mkulima,mtizamo,ufumbuzi,NA,NA,NA,"c(""distractor1"", ""distractor2"", ""distractor3"")",NA,NA,NA,NA,NA,NA,NA,NA,NA,NA,NA,NA,NA,NA,NA,NA,NA,NA,NA
3265e,task,flow.Sequence,2_12,NA,NA,completion,9534.059,389825.2,389821.532,389838.199,399372.258,399374.40000001,2023-08-12T10:26:00Z,399388.925,Prüfung,mtihani,s,mkulima,mtizamo,ufumbuzi,NA,NA,NA,"c(""distractor1"", ""distractor2"", ""distractor3"")",NA,NA,NA,NA,NA,NA,NA,NA,NA,NA,NA,NA,NA,NA,NA,NA,NA,NA,NA
3265e,Shallow Question,html.Page,2_13_0_0,NA,NA,form submission,6674.975000006,399374.60000001,399372.258,399388.925,406063.90000001,406064.2,2023-08-12T10:26:06Z,406072.392,Lawine,banguko,s,maambukizi,usuluhishi,chekechea,banguko,NA,NA,"c(""distractor1"", ""distractor2"", ""distractor3"")",NA,NA,NA,NA,NA,NA,NA,NA,NA,NA,NA,NA,NA,NA,NA,NA,NA,NA,NA
3265e,Save data screen,canvas.Screen,2_13_0_1,NA,NA,timeout,500.01000000001,406067.10000001,406055.725,406072.392,406555.735,406559.8,2023-08-12T10:26:07Z,406572.402,Lawine,banguko,s,maambukizi,usuluhishi,chekechea,NA,NA,1,"c(""distractor1"", ""distractor2"", ""distractor3"")",NA,NA,NA,NA,NA,NA,NA,NA,NA,NA,NA,NA,NA,NA,NA,NA,NA,NA,NA
3265e,shallow,flow.Sequence,2_13_0,NA,NA,completion,7166.81,399374.5,399372.258,399388.925,406555.735,406560.2,2023-08-12T10:26:07Z,406572.402,Lawine,banguko,s,maambukizi,usuluhishi,chekechea,NA,NA,NA,"c(""distractor1"", ""distractor2"", ""distractor3"")",NA,NA,NA,NA,NA,NA,NA,NA,NA,NA,NA,NA,NA,NA,NA,NA,NA,NA,NA
3265e,task,flow.Sequence,2_13,NA,NA,completion,7166.81,399374.5,399372.258,399388.925,406555.735,406560.3,2023-08-12T10:26:07Z,406572.402,Lawine,banguko,s,maambukizi,usuluhishi,chekechea,NA,NA,NA,"c(""distractor1"", ""distractor2"", ""distractor3"")",NA,NA,NA,NA,NA,NA,NA,NA,NA,NA,NA,NA,NA,NA,NA,NA,NA,NA,NA
3265e,Shallow Question,html.Page,2_14_0_0,NA,NA,form submission,11490.998000006,406560.5,406555.735,406572.402,418063.40000001,418063.5,2023-08-12T10:26:18Z,418073.546,Abrechnung,uhasibu,d,kusahihisha,mpambano,mashambulizi,mashambulizi,NA,NA,"c(""distractor1"", ""distractor2"", ""distractor3"")",NA,NA,NA,NA,NA,NA,NA,NA,NA,NA,NA,NA,NA,NA,NA,NA,NA,NA,NA
3265e,Save data screen,canvas.Screen,2_14_0_1,NA,NA,timeout,500.01000000001,418065.5,418056.879,418073.546,418556.889,418559.3,2023-08-12T10:26:19Z,418573.556,Abrechnung,uhasibu,d,kusahihisha,mpambano,mashambulizi,NA,NA,0,"c(""distractor1"", ""distractor2"", ""distractor3"")",NA,NA,NA,NA,NA,NA,NA,NA,NA,NA,NA,NA,NA,NA,NA,NA,NA,NA,NA
3265e,shallow,flow.Sequence,2_14_0,NA,NA,completion,11984.487,406560.5,406555.735,406572.402,418556.889,418559.60000001,2023-08-12T10:26:19Z,418573.556,Abrechnung,uhasibu,d,kusahihisha,mpambano,mashambulizi,NA,NA,NA,"c(""distractor1"", ""distractor2"", ""distractor3"")",NA,NA,NA,NA,NA,NA,NA,NA,NA,NA,NA,NA,NA,NA,NA,NA,NA,NA,NA
3265e,task,flow.Sequence,2_14,NA,NA,completion,11984.487,406560.5,406555.735,406572.402,418556.889,418559.8,2023-08-12T10:26:19Z,418573.556,Abrechnung,uhasibu,d,kusahihisha,mpambano,mashambulizi,NA,NA,NA,"c(""distractor1"", ""distractor2"", ""distractor3"")",NA,NA,NA,NA,NA,NA,NA,NA,NA,NA,NA,NA,NA,NA,NA,NA,NA,NA,NA
3265e,Shallow Question,html.Page,2_15_0_0,NA,NA,form submission,7158.644000003,418560,418556.889,418573.556,425732.2,425732.5,2023-08-12T10:26:26Z,425740.366,Kreativität,ubunifu,s,mratibu,mwendelezo,makubaliano,ubunifu,NA,NA,"c(""distractor1"", ""distractor2"", ""distractor3"")",NA,NA,NA,NA,NA,NA,NA,NA,NA,NA,NA,NA,NA,NA,NA,NA,NA,NA,NA
3265e,Save data screen,canvas.Screen,2_15_0_1,NA,NA,timeout,500.01000000001,425735.40000001,425723.699,425740.366,426223.709,426227.7,2023-08-12T10:26:26Z,426240.376,Kreativität,ubunifu,s,mratibu,mwendelezo,makubaliano,NA,NA,1,"c(""distractor1"", ""distractor2"", ""distractor3"")",NA,NA,NA,NA,NA,NA,NA,NA,NA,NA,NA,NA,NA,NA,NA,NA,NA,NA,NA
3265e,shallow,flow.Sequence,2_15_0,NA,NA,completion,7650.153,418560,418556.889,418573.556,426223.709,426228.10000001,2023-08-12T10:26:26Z,426240.376,Kreativität,ubunifu,s,mratibu,mwendelezo,makubaliano,NA,NA,NA,"c(""distractor1"", ""distractor2"", ""distractor3"")",NA,NA,NA,NA,NA,NA,NA,NA,NA,NA,NA,NA,NA,NA,NA,NA,NA,NA,NA
3265e,task,flow.Sequence,2_15,NA,NA,completion,7650.153,418559.90000001,418556.889,418573.556,426223.709,426228.40000001,2023-08-12T10:26:26Z,426240.376,Kreativität,ubunifu,s,mratibu,mwendelezo,makubaliano,NA,NA,NA,"c(""distractor1"", ""distractor2"", ""distractor3"")",NA,NA,NA,NA,NA,NA,NA,NA,NA,NA,NA,NA,NA,NA,NA,NA,NA,NA,NA
3265e,retrieval block 2 (multiple choice),flow.Loop,2,NA,NA,completion,157143.995,269068.8,269063.047,269079.714,426223.709,426228.60000001,2023-08-12T10:26:26Z,426240.376,NA,NA,NA,NA,NA,NA,NA,NA,NA,"c(""distractor1"", ""distractor2"", ""distractor3"")",NA,NA,NA,NA,NA,NA,NA,NA,NA,NA,NA,NA,NA,NA,NA,NA,NA,NA,NA
3265e,End,canvas.Screen,3,NA,keypress(Space),response,1420.923999997,426228.8,426223.709,426240.376,427661.3,427668.7,2023-08-12T10:26:28Z,427674.334,NA,NA,NA,NA,NA,NA,NA,NA,NA,NULL,NA,NA,NA,NA,NA,NA,NA,NA,NA,NA,NA,NA,NA,NA,NA,NA,NA,NA,NA
3265e,root,flow.Sequence,NA,NA,NA,completion,426750.075,854.90000000596,477.883,911.225,427661.3,427669.2,2023-08-12T10:26:28Z,427674.334,NA,NA,NA,NA,NA,NA,NA,NA,NA,NULL,NA,NA,NA,NA,NA,NA,NA,NA,NA,NA,NA,NA,NA,NA,NA,NA,NA,NA,NA