observation,sender,sender_type,sender_id,response,response_action,ended_on,duration,time_run,time_render,time_show,time_end,time_commit,timestamp,time_switch,distractors,german,swahili,enc,distractor1,distractor2,distractor3,response_2,x,correct,x_2,url_vp,url_sess,meta_labjs_version,meta_location,meta_user_agent,meta_platform,meta_language,meta_locale,meta_time_zone,meta_timezone_offset,meta_screen_width,meta_screen_height,meta_scroll_width,meta_scroll_height,meta_window_inner_width,meta_window_inner_height,meta_device_pixel_ratio,meta_labjs_build_flavor,meta_labjs_build_commit
c83d1,Introduction general,canvas.Screen,0,weiter,keypress(q),response,98294.200000191,759.80000019073,758.858,775.6,99069.800000191,99075,2024-02-17T08:37:36Z,99075.5,NULL,NA,NA,NA,NA,NA,NA,NA,NA,NA,NA,152,1,20.2.4,https://neurocog.fernuni.ch/studies/vweber/jbaenninger/encoding_immediate/index.html?vp=152&sess=1,"Mozilla/5.0 (Windows NT 10.0; Win64; x64) AppleWebKit/537.36 (KHTML, like Gecko) Chrome/121.0.0.0 Safari/537.36 Edg/121.0.0.0",Win32,de,de-CH,Europe/Zurich,-60,1920,1080,1872,910,1872,958,1,production,f5b4a49f956347addd546a832a3327688c2c0fef
c83d1,Introduction practice,canvas.Screen,1_0,NA,keypress(Space),response,9494.5999999046,99075.599999905,99075.474,99075.5,108570.0999999,108571,2024-02-17T08:37:46Z,108592.1,NULL,NA,NA,NA,NA,NA,NA,NA,NA,NA,NA,NA,NA,NA,NA,NA,NA,NA,NA,NA,NA,NA,NA,NA,NA,NA,NA,NA,NA,NA
c83d1,Deep Question,html.Page,1_1_0_0_0,NA,NA,form submission,29567.700000191,108571.30000019001,108571.9,108592.1,138159.80000019,138160.0999999,2024-02-17T08:38:15Z,138158.976,"c(""distractor1"", ""distractor2"", ""distractor3"")",Gesundheit,salama,d,NA,NA,NA,fari,NA,NA,NA,NA,NA,NA,NA,NA,NA,NA,NA,NA,NA,NA,NA,NA,NA,NA,NA,NA,NA,NA
c83d1,"""Richtig""-Screen",canvas.Screen,1_1_0_0_1,NA,NA,skipped,NA,138161.5999999,NA,NA,138159.80000019,138161.69999981,2024-02-17T08:38:15Z,138158.976,"c(""distractor1"", ""distractor2"", ""distractor3"")",Gesundheit,salama,d,NA,NA,NA,NA,NA,NA,NA,NA,NA,NA,NA,NA,NA,NA,NA,NA,NA,NA,NA,NA,NA,NA,NA,NA,NA,NA
c83d1,"""Falsch""-Screen",canvas.Screen,1_1_0_0_2,NA,NA,timeout,4999.824,138162.5999999,138158.976,138158.976,143142.2,143145.9000001,2024-02-17T08:38:20Z,143158.8,"c(""distractor1"", ""distractor2"", ""distractor3"")",Gesundheit,salama,d,NA,NA,NA,NA,NA,0,NA,NA,NA,NA,NA,NA,NA,NA,NA,NA,NA,NA,NA,NA,NA,NA,NA,NA,NA,NA
c83d1,deep,flow.Sequence,1_1_0_0,NA,NA,completion,34550.1,108571.30000019001,108571.9,108592.1,143142.2,143146.30000019,2024-02-17T08:38:20Z,143158.8,"c(""distractor1"", ""distractor2"", ""distractor3"")",Gesundheit,salama,d,NA,NA,NA,NA,NA,NA,NA,NA,NA,NA,NA,NA,NA,NA,NA,NA,NA,NA,NA,NA,NA,NA,NA,NA,NA,NA
c83d1,shallow,flow.Sequence,1_1_0_1,NA,NA,skipped,NA,143146.5,NA,NA,143142.2,143146.5999999,2024-02-17T08:38:20Z,143158.8,"c(""distractor1"", ""distractor2"", ""distractor3"")",Gesundheit,salama,d,NA,NA,NA,NA,NA,NA,NA,NA,NA,NA,NA,NA,NA,NA,NA,NA,NA,NA,NA,NA,NA,NA,NA,NA,NA,NA
c83d1,task,flow.Sequence,1_1_0,NA,NA,completion,34550.1,108571.19999981,108571.9,108592.1,143142.2,143146.80000019,2024-02-17T08:38:20Z,143158.8,"c(""distractor1"", ""distractor2"", ""distractor3"")",Gesundheit,salama,d,NA,NA,NA,NA,NA,NA,NA,NA,NA,NA,NA,NA,NA,NA,NA,NA,NA,NA,NA,NA,NA,NA,NA,NA,NA,NA
c83d1,deep,flow.Sequence,1_1_1_0,NA,NA,skipped,NA,143147,NA,NA,143142.2,143147.19999981,2024-02-17T08:38:20Z,143158.8,"c(""distractor1"", ""distractor2"", ""distractor3"")",Kritik,lawama,s,dereva,nafasi,mawazo,NA,NA,NA,NA,NA,NA,NA,NA,NA,NA,NA,NA,NA,NA,NA,NA,NA,NA,NA,NA,NA,NA,NA
c83d1,Shallow Question,html.Page,1_1_1_1_0,NA,NA,form submission,14829.000000191,143147.4000001,143142.2,143158.8,157987.80000019,157988.0999999,2024-02-17T08:38:35Z,157992.318,"c(""distractor1"", ""distractor2"", ""distractor3"")",Kritik,lawama,s,dereva,nafasi,mawazo,mawazo,NA,NA,NA,NA,NA,NA,NA,NA,NA,NA,NA,NA,NA,NA,NA,NA,NA,NA,NA,NA,NA,NA
c83d1,"""Richtig""-Screen",canvas.Screen,1_1_1_1_1,NA,NA,skipped,NA,157990,NA,NA,157987.80000019,157990.30000019,2024-02-17T08:38:35Z,157992.318,"c(""distractor1"", ""distractor2"", ""distractor3"")",Kritik,lawama,s,dereva,nafasi,mawazo,NA,NA,NA,NA,NA,NA,NA,NA,NA,NA,NA,NA,NA,NA,NA,NA,NA,NA,NA,NA,NA,NA,NA
c83d1,"""Falsch""-Screen",canvas.Screen,1_1_1_1_2,NA,NA,timeout,4999.982,157991,157992.318,157992.318,162975.5,162976.4000001,2024-02-17T08:38:40Z,162992.3,"c(""distractor1"", ""distractor2"", ""distractor3"")",Kritik,lawama,s,dereva,nafasi,mawazo,NA,NA,0,NA,NA,NA,NA,NA,NA,NA,NA,NA,NA,NA,NA,NA,NA,NA,NA,NA,NA,NA,NA
c83d1,shallow,flow.Sequence,1_1_1_1,NA,NA,completion,19816.7,143147.30000019,143142.2,143158.8,162975.5,162976.80000019,2024-02-17T08:38:40Z,162992.3,"c(""distractor1"", ""distractor2"", ""distractor3"")",Kritik,lawama,s,dereva,nafasi,mawazo,NA,NA,NA,NA,NA,NA,NA,NA,NA,NA,NA,NA,NA,NA,NA,NA,NA,NA,NA,NA,NA,NA,NA
c83d1,task,flow.Sequence,1_1_1,NA,NA,completion,19816.7,143147,143142.2,143158.8,162975.5,162977,2024-02-17T08:38:40Z,162992.3,"c(""distractor1"", ""distractor2"", ""distractor3"")",Kritik,lawama,s,dereva,nafasi,mawazo,NA,NA,NA,NA,NA,NA,NA,NA,NA,NA,NA,NA,NA,NA,NA,NA,NA,NA,NA,NA,NA,NA,NA
c83d1,Deep Question,html.Page,1_1_2_0_0,NA,NA,form submission,27513.500000191,162977.30000019,162975.5,162992.3,190505.80000019,190505.9000001,2024-02-17T08:39:08Z,190509.292,"c(""distractor1"", ""distractor2"", ""distractor3"")",Schatten,kivuli,d,NA,NA,NA,kalami,NA,NA,NA,NA,NA,NA,NA,NA,NA,NA,NA,NA,NA,NA,NA,NA,NA,NA,NA,NA,NA,NA
c83d1,"""Richtig""-Screen",canvas.Screen,1_1_2_0_1,NA,NA,skipped,NA,190507.9000001,NA,NA,190505.80000019,190508,2024-02-17T08:39:08Z,190509.292,"c(""distractor1"", ""distractor2"", ""distractor3"")",Schatten,kivuli,d,NA,NA,NA,NA,NA,NA,NA,NA,NA,NA,NA,NA,NA,NA,NA,NA,NA,NA,NA,NA,NA,NA,NA,NA,NA,NA
c83d1,"""Falsch""-Screen",canvas.Screen,1_1_2_0_2,NA,NA,timeout,4999.508,190508.80000019,190509.292,190509.292,195492.2,195492.9000001,2024-02-17T08:39:13Z,195508.8,"c(""distractor1"", ""distractor2"", ""distractor3"")",Schatten,kivuli,d,NA,NA,NA,NA,NA,0,NA,NA,NA,NA,NA,NA,NA,NA,NA,NA,NA,NA,NA,NA,NA,NA,NA,NA,NA,NA
c83d1,deep,flow.Sequence,1_1_2_0,NA,NA,completion,32499.9,162977.30000019,162975.5,162992.3,195492.2,195493.19999981,2024-02-17T08:39:13Z,195508.8,"c(""distractor1"", ""distractor2"", ""distractor3"")",Schatten,kivuli,d,NA,NA,NA,NA,NA,NA,NA,NA,NA,NA,NA,NA,NA,NA,NA,NA,NA,NA,NA,NA,NA,NA,NA,NA,NA,NA
c83d1,shallow,flow.Sequence,1_1_2_1,NA,NA,skipped,NA,195493.30000019,NA,NA,195492.2,195493.4000001,2024-02-17T08:39:13Z,195508.8,"c(""distractor1"", ""distractor2"", ""distractor3"")",Schatten,kivuli,d,NA,NA,NA,NA,NA,NA,NA,NA,NA,NA,NA,NA,NA,NA,NA,NA,NA,NA,NA,NA,NA,NA,NA,NA,NA,NA
c83d1,task,flow.Sequence,1_1_2,NA,NA,completion,32499.9,162977.19999981,162975.5,162992.3,195492.2,195493.69999981,2024-02-17T08:39:13Z,195508.8,"c(""distractor1"", ""distractor2"", ""distractor3"")",Schatten,kivuli,d,NA,NA,NA,NA,NA,NA,NA,NA,NA,NA,NA,NA,NA,NA,NA,NA,NA,NA,NA,NA,NA,NA,NA,NA,NA,NA
c83d1,deep,flow.Sequence,1_1_3_0,NA,NA,skipped,NA,195493.80000019,NA,NA,195492.2,195493.9000001,2024-02-17T08:39:13Z,195508.8,"c(""distractor1"", ""distractor2"", ""distractor3"")",Rückhalt,msaada,s,muhula,auwali,kiwimbe,NA,NA,NA,NA,NA,NA,NA,NA,NA,NA,NA,NA,NA,NA,NA,NA,NA,NA,NA,NA,NA,NA,NA
c83d1,Shallow Question,html.Page,1_1_3_1_0,NA,NA,form submission,10355.899999809,195494,195492.2,195508.8,205864.69999981,205865,2024-02-17T08:39:23Z,205875.4,"c(""distractor1"", ""distractor2"", ""distractor3"")",Rückhalt,msaada,s,muhula,auwali,kiwimbe,kiwimbe,NA,NA,NA,NA,NA,NA,NA,NA,NA,NA,NA,NA,NA,NA,NA,NA,NA,NA,NA,NA,NA,NA
c83d1,"""Richtig""-Screen",canvas.Screen,1_1_3_1_1,NA,NA,skipped,NA,205866.69999981,NA,NA,205864.69999981,205866.80000019,2024-02-17T08:39:23Z,205875.4,"c(""distractor1"", ""distractor2"", ""distractor3"")",Rückhalt,msaada,s,muhula,auwali,kiwimbe,NA,NA,NA,NA,NA,NA,NA,NA,NA,NA,NA,NA,NA,NA,NA,NA,NA,NA,NA,NA,NA,NA,NA
c83d1,"""Falsch""-Screen",canvas.Screen,1_1_3_1_2,NA,NA,timeout,5000.2,205867.5999999,205858.976,205875.4,210858.9,210859.9000001,2024-02-17T08:39:28Z,210875.6,"c(""distractor1"", ""distractor2"", ""distractor3"")",Rückhalt,msaada,s,muhula,auwali,kiwimbe,NA,NA,0,NA,NA,NA,NA,NA,NA,NA,NA,NA,NA,NA,NA,NA,NA,NA,NA,NA,NA,NA,NA
c83d1,shallow,flow.Sequence,1_1_3_1,NA,NA,completion,15350.1,195494,195492.2,195508.8,210858.9,210860.19999981,2024-02-17T08:39:28Z,210875.6,"c(""distractor1"", ""distractor2"", ""distractor3"")",Rückhalt,msaada,s,muhula,auwali,kiwimbe,NA,NA,NA,NA,NA,NA,NA,NA,NA,NA,NA,NA,NA,NA,NA,NA,NA,NA,NA,NA,NA,NA,NA
c83d1,task,flow.Sequence,1_1_3,NA,NA,completion,15350.1,195493.80000019,195492.2,195508.8,210858.9,210860.30000019,2024-02-17T08:39:28Z,210875.6,"c(""distractor1"", ""distractor2"", ""distractor3"")",Rückhalt,msaada,s,muhula,auwali,kiwimbe,NA,NA,NA,NA,NA,NA,NA,NA,NA,NA,NA,NA,NA,NA,NA,NA,NA,NA,NA,NA,NA,NA,NA
c83d1,Deep Question,html.Page,1_1_4_0_0,NA,NA,form submission,21151.200000191,210860.5999999,210858.9,210875.6,232026.80000019,232027.0999999,2024-02-17T08:39:49Z,232042.2,"c(""distractor1"", ""distractor2"", ""distractor3"")",Qualität,mtindo,d,NA,NA,NA,waabi,NA,NA,NA,NA,NA,NA,NA,NA,NA,NA,NA,NA,NA,NA,NA,NA,NA,NA,NA,NA,NA,NA
c83d1,"""Richtig""-Screen",canvas.Screen,1_1_4_0_1,NA,NA,skipped,NA,232029.19999981,NA,NA,232026.80000019,232029.4000001,2024-02-17T08:39:49Z,232042.2,"c(""distractor1"", ""distractor2"", ""distractor3"")",Qualität,mtindo,d,NA,NA,NA,NA,NA,NA,NA,NA,NA,NA,NA,NA,NA,NA,NA,NA,NA,NA,NA,NA,NA,NA,NA,NA,NA,NA
c83d1,"""Falsch""-Screen",canvas.Screen,1_1_4_0_2,NA,NA,timeout,4999.9,232030,232025.962,232042.2,237025.4,237026.19999981,2024-02-17T08:39:54Z,237042.1,"c(""distractor1"", ""distractor2"", ""distractor3"")",Qualität,mtindo,d,NA,NA,NA,NA,NA,0,NA,NA,NA,NA,NA,NA,NA,NA,NA,NA,NA,NA,NA,NA,NA,NA,NA,NA,NA,NA
c83d1,deep,flow.Sequence,1_1_4_0,NA,NA,completion,26149.8,210860.5,210858.9,210875.6,237025.4,237026.5,2024-02-17T08:39:54Z,237042.1,"c(""distractor1"", ""distractor2"", ""distractor3"")",Qualität,mtindo,d,NA,NA,NA,NA,NA,NA,NA,NA,NA,NA,NA,NA,NA,NA,NA,NA,NA,NA,NA,NA,NA,NA,NA,NA,NA,NA
c83d1,shallow,flow.Sequence,1_1_4_1,NA,NA,skipped,NA,237026.5999999,NA,NA,237025.4,237026.69999981,2024-02-17T08:39:54Z,237042.1,"c(""distractor1"", ""distractor2"", ""distractor3"")",Qualität,mtindo,d,NA,NA,NA,NA,NA,NA,NA,NA,NA,NA,NA,NA,NA,NA,NA,NA,NA,NA,NA,NA,NA,NA,NA,NA,NA,NA
c83d1,task,flow.Sequence,1_1_4,NA,NA,completion,26149.8,210860.4000001,210858.9,210875.6,237025.4,237026.9000001,2024-02-17T08:39:54Z,237042.1,"c(""distractor1"", ""distractor2"", ""distractor3"")",Qualität,mtindo,d,NA,NA,NA,NA,NA,NA,NA,NA,NA,NA,NA,NA,NA,NA,NA,NA,NA,NA,NA,NA,NA,NA,NA,NA,NA,NA
c83d1,deep,flow.Sequence,1_1_5_0,NA,NA,skipped,NA,237027.0999999,NA,NA,237025.4,237027.19999981,2024-02-17T08:39:54Z,237042.1,"c(""distractor1"", ""distractor2"", ""distractor3"")",Gegenwart,hadhara,s,katiba,jokofu,mikopo,NA,NA,NA,NA,NA,NA,NA,NA,NA,NA,NA,NA,NA,NA,NA,NA,NA,NA,NA,NA,NA,NA,NA
c83d1,Shallow Question,html.Page,1_1_5_1_0,NA,NA,form submission,11162.499999905,237027.30000019,237025.4,237042.1,248204.5999999,248204.9000001,2024-02-17T08:40:05Z,248208.7,"c(""distractor1"", ""distractor2"", ""distractor3"")",Gegenwart,hadhara,s,katiba,jokofu,mikopo,katiba,NA,NA,NA,NA,NA,NA,NA,NA,NA,NA,NA,NA,NA,NA,NA,NA,NA,NA,NA,NA,NA,NA
c83d1,"""Richtig""-Screen",canvas.Screen,1_1_5_1_1,NA,NA,skipped,NA,248206.5999999,NA,NA,248204.5999999,248206.69999981,2024-02-17T08:40:05Z,248208.7,"c(""distractor1"", ""distractor2"", ""distractor3"")",Gegenwart,hadhara,s,katiba,jokofu,mikopo,NA,NA,NA,NA,NA,NA,NA,NA,NA,NA,NA,NA,NA,NA,NA,NA,NA,NA,NA,NA,NA,NA,NA
c83d1,"""Falsch""-Screen",canvas.Screen,1_1_5_1_2,NA,NA,timeout,5000.1,248207.0999999,248192.346,248208.7,253192.2,253192.80000019,2024-02-17T08:40:10Z,253208.8,"c(""distractor1"", ""distractor2"", ""distractor3"")",Gegenwart,hadhara,s,katiba,jokofu,mikopo,NA,NA,0,NA,NA,NA,NA,NA,NA,NA,NA,NA,NA,NA,NA,NA,NA,NA,NA,NA,NA,NA,NA
c83d1,shallow,flow.Sequence,1_1_5_1,NA,NA,completion,16150.1,237027.19999981,237025.4,237042.1,253192.2,253193.0999999,2024-02-17T08:40:10Z,253208.8,"c(""distractor1"", ""distractor2"", ""distractor3"")",Gegenwart,hadhara,s,katiba,jokofu,mikopo,NA,NA,NA,NA,NA,NA,NA,NA,NA,NA,NA,NA,NA,NA,NA,NA,NA,NA,NA,NA,NA,NA,NA
c83d1,task,flow.Sequence,1_1_5,NA,NA,completion,16150.1,237027,237025.4,237042.1,253192.2,253193.30000019,2024-02-17T08:40:10Z,253208.8,"c(""distractor1"", ""distractor2"", ""distractor3"")",Gegenwart,hadhara,s,katiba,jokofu,mikopo,NA,NA,NA,NA,NA,NA,NA,NA,NA,NA,NA,NA,NA,NA,NA,NA,NA,NA,NA,NA,NA,NA,NA
c83d1,block,flow.Loop,1_1,NA,NA,completion,144600.1,108571.19999981,108571.9,108592.1,253192.2,253193.5999999,2024-02-17T08:40:10Z,253208.8,"c(""distractor1"", ""distractor2"", ""distractor3"")",NA,NA,NA,NA,NA,NA,NA,NA,NA,NA,NA,NA,NA,NA,NA,NA,NA,NA,NA,NA,NA,NA,NA,NA,NA,NA,NA,NA,NA
c83d1,Practice,flow.Sequence,1,NA,NA,completion,154116.7,99075.5,99075.474,99075.5,253192.2,253193.69999981,2024-02-17T08:40:10Z,253208.8,NULL,NA,NA,NA,NA,NA,NA,NA,NA,NA,NA,NA,NA,NA,NA,NA,NA,NA,NA,NA,NA,NA,NA,NA,NA,NA,NA,NA,NA,NA
c83d1,Experiment start,canvas.Screen,2,weiter,keypress(q),response,70872.399999809,253193.80000019,253192.2,253208.8,324081.19999981,324082.0999999,2024-02-17T08:41:21Z,324175.45,NULL,NA,NA,NA,NA,NA,NA,NA,NA,NA,NA,NA,NA,NA,NA,NA,NA,NA,NA,NA,NA,NA,NA,NA,NA,NA,NA,NA,NA,NA
c83d1,deep,flow.Sequence,3_0_0_0_0_0,NA,NA,skipped,NA,324181.30000019,NA,NA,324081.19999981,324181.5,2024-02-17T08:41:21Z,324175.45,NULL,Zufall,kikuti,s,kukosekana,uchoraji,leseni,NA,sdf,NA,0,NA,NA,NA,NA,NA,NA,NA,NA,NA,NA,NA,NA,NA,NA,NA,NA,NA,NA,NA
c83d1,Shallow Question,html.Page,3_0_0_0_0_1_0,NA,NA,form submission,12370.249999809,324181.5,324175.45,324175.45,336545.69999981,336545.9000001,2024-02-17T08:41:34Z,336558.8,NULL,Zufall,kikuti,s,kukosekana,uchoraji,leseni,uchoraji,NA,NA,0,NA,NA,NA,NA,NA,NA,NA,NA,NA,NA,NA,NA,NA,NA,NA,NA,NA,NA,NA
c83d1,"""Richtig""-Screen",canvas.Screen,3_0_0_0_0_1_1,NA,NA,skipped,NA,336547.5999999,NA,NA,336545.69999981,336547.80000019,2024-02-17T08:41:34Z,336558.8,NULL,Zufall,kikuti,s,kukosekana,uchoraji,leseni,NA,sdf,NA,0,NA,NA,NA,NA,NA,NA,NA,NA,NA,NA,NA,NA,NA,NA,NA,NA,NA,NA,NA
c83d1,"""Falsch""-Screen",canvas.Screen,3_0_0_0_0_1_2,NA,NA,timeout,5000,336548.30000019,336542.196,336558.8,341542,341542.80000019,2024-02-17T08:41:39Z,341558.8,NULL,Zufall,kikuti,s,kukosekana,uchoraji,leseni,NA,sdf,0,0,NA,NA,NA,NA,NA,NA,NA,NA,NA,NA,NA,NA,NA,NA,NA,NA,NA,NA,NA
c83d1,shallow,flow.Sequence,3_0_0_0_0_1,NA,NA,completion,17366.55,324181.5,324175.45,324175.45,341542,341543.19999981,2024-02-17T08:41:39Z,341558.8,NULL,Zufall,kikuti,s,kukosekana,uchoraji,leseni,NA,sdf,NA,0,NA,NA,NA,NA,NA,NA,NA,NA,NA,NA,NA,NA,NA,NA,NA,NA,NA,NA,NA
c83d1,task,flow.Sequence,3_0_0_0_0,NA,NA,completion,17366.55,324181.30000019,324175.45,324175.45,341542,341543.30000019,2024-02-17T08:41:39Z,341558.8,NULL,Zufall,kikuti,s,kukosekana,uchoraji,leseni,NA,sdf,NA,0,NA,NA,NA,NA,NA,NA,NA,NA,NA,NA,NA,NA,NA,NA,NA,NA,NA,NA,NA
c83d1,Deep Question,html.Page,3_0_0_0_1_0_0,NA,NA,form submission,29807.600000095,341543.4000001,341542,341558.8,371366.4000001,371366.5999999,2024-02-17T08:42:09Z,371375.2,NULL,Sänger,mwimbaji,d,NA,NA,NA,kiwori,NA,NA,0,NA,NA,NA,NA,NA,NA,NA,NA,NA,NA,NA,NA,NA,NA,NA,NA,NA,NA,NA
c83d1,"""Richtig""-Screen",canvas.Screen,3_0_0_0_1_0_1,NA,NA,skipped,NA,371368.4000001,NA,NA,371366.4000001,371368.5,2024-02-17T08:42:09Z,371375.2,NULL,Sänger,mwimbaji,d,NA,NA,NA,NA,sdf,NA,0,NA,NA,NA,NA,NA,NA,NA,NA,NA,NA,NA,NA,NA,NA,NA,NA,NA,NA,NA
c83d1,"""Falsch""-Screen",canvas.Screen,3_0_0_0_1_0_2,NA,NA,timeout,5000.2,371369,371358.776,371375.2,376358.7,376359.5,2024-02-17T08:42:14Z,376375.4,NULL,Sänger,mwimbaji,d,NA,NA,NA,NA,sdf,0,0,NA,NA,NA,NA,NA,NA,NA,NA,NA,NA,NA,NA,NA,NA,NA,NA,NA,NA,NA
c83d1,deep,flow.Sequence,3_0_0_0_1_0,NA,NA,completion,34799.9,341543.4000001,341542,341558.8,376358.7,376359.80000019,2024-02-17T08:42:14Z,376375.4,NULL,Sänger,mwimbaji,d,NA,NA,NA,NA,sdf,NA,0,NA,NA,NA,NA,NA,NA,NA,NA,NA,NA,NA,NA,NA,NA,NA,NA,NA,NA,NA
c83d1,shallow,flow.Sequence,3_0_0_0_1_1,NA,NA,skipped,NA,376359.9000001,NA,NA,376358.7,376360,2024-02-17T08:42:14Z,376375.4,NULL,Sänger,mwimbaji,d,NA,NA,NA,NA,sdf,NA,0,NA,NA,NA,NA,NA,NA,NA,NA,NA,NA,NA,NA,NA,NA,NA,NA,NA,NA,NA
c83d1,task,flow.Sequence,3_0_0_0_1,NA,NA,completion,34799.9,341543.4000001,341542,341558.8,376358.7,376360.0999999,2024-02-17T08:42:14Z,376375.4,NULL,Sänger,mwimbaji,d,NA,NA,NA,NA,sdf,NA,0,NA,NA,NA,NA,NA,NA,NA,NA,NA,NA,NA,NA,NA,NA,NA,NA,NA,NA,NA
c83d1,Deep Question,html.Page,3_0_0_0_2_0_0,NA,NA,form submission,29727.1,376360.30000019,376358.7,376375.4,406102.5,406102.69999981,2024-02-17T08:42:43Z,406108.6,NULL,Auftrag,uagizaji,d,NA,NA,NA,zimbo,NA,NA,0,NA,NA,NA,NA,NA,NA,NA,NA,NA,NA,NA,NA,NA,NA,NA,NA,NA,NA,NA
c83d1,"""Richtig""-Screen",canvas.Screen,3_0_0_0_2_0_1,NA,NA,skipped,NA,406104.5,NA,NA,406102.5,406104.5999999,2024-02-17T08:42:43Z,406108.6,NULL,Auftrag,uagizaji,d,NA,NA,NA,NA,sdf,NA,0,NA,NA,NA,NA,NA,NA,NA,NA,NA,NA,NA,NA,NA,NA,NA,NA,NA,NA,NA
c83d1,"""Falsch""-Screen",canvas.Screen,3_0_0_0_2_0_2,NA,NA,timeout,5000.1,406105.19999981,406096.194,406108.6,411092,411092.69999981,2024-02-17T08:42:48Z,411108.7,NULL,Auftrag,uagizaji,d,NA,NA,NA,NA,sdf,0,0,NA,NA,NA,NA,NA,NA,NA,NA,NA,NA,NA,NA,NA,NA,NA,NA,NA,NA,NA
c83d1,deep,flow.Sequence,3_0_0_0_2_0,NA,NA,completion,34716.6,376360.30000019,376358.7,376375.4,411092,411093.0999999,2024-02-17T08:42:48Z,411108.7,NULL,Auftrag,uagizaji,d,NA,NA,NA,NA,sdf,NA,0,NA,NA,NA,NA,NA,NA,NA,NA,NA,NA,NA,NA,NA,NA,NA,NA,NA,NA,NA
c83d1,shallow,flow.Sequence,3_0_0_0_2_1,NA,NA,skipped,NA,411093.0999999,NA,NA,411092,411093.19999981,2024-02-17T08:42:48Z,411108.7,NULL,Auftrag,uagizaji,d,NA,NA,NA,NA,sdf,NA,0,NA,NA,NA,NA,NA,NA,NA,NA,NA,NA,NA,NA,NA,NA,NA,NA,NA,NA,NA
c83d1,task,flow.Sequence,3_0_0_0_2,NA,NA,completion,34716.6,376360.30000019,376358.7,376375.4,411092,411093.4000001,2024-02-17T08:42:48Z,411108.7,NULL,Auftrag,uagizaji,d,NA,NA,NA,NA,sdf,NA,0,NA,NA,NA,NA,NA,NA,NA,NA,NA,NA,NA,NA,NA,NA,NA,NA,NA,NA,NA
c83d1,deep,flow.Sequence,3_0_0_0_3_0,NA,NA,skipped,NA,411093.5,NA,NA,411092,411093.5999999,2024-02-17T08:42:48Z,411108.7,NULL,Abrechnung,uhasibu,s,kusahihisha,mpambano,mashambulizi,NA,sdf,NA,0,NA,NA,NA,NA,NA,NA,NA,NA,NA,NA,NA,NA,NA,NA,NA,NA,NA,NA,NA
c83d1,Shallow Question,html.Page,3_0_0_0_3_1_0,NA,NA,form submission,12882.8,411093.69999981,411092,411108.7,423991.5,423991.69999981,2024-02-17T08:43:01Z,423992.862,NULL,Abrechnung,uhasibu,s,kusahihisha,mpambano,mashambulizi,mpambano,NA,NA,0,NA,NA,NA,NA,NA,NA,NA,NA,NA,NA,NA,NA,NA,NA,NA,NA,NA,NA,NA
c83d1,"""Richtig""-Screen",canvas.Screen,3_0_0_0_3_1_1,NA,NA,skipped,NA,423993.5,NA,NA,423991.5,423993.5999999,2024-02-17T08:43:01Z,423992.862,NULL,Abrechnung,uhasibu,s,kusahihisha,mpambano,mashambulizi,NA,sdf,NA,0,NA,NA,NA,NA,NA,NA,NA,NA,NA,NA,NA,NA,NA,NA,NA,NA,NA,NA,NA
c83d1,"""Falsch""-Screen",canvas.Screen,3_0_0_0_3_1_2,NA,NA,timeout,4999.138,423994.0999999,423992.862,423992.862,428975.3,428976.0999999,2024-02-17T08:43:06Z,428992,NULL,Abrechnung,uhasibu,s,kusahihisha,mpambano,mashambulizi,NA,sdf,0,0,NA,NA,NA,NA,NA,NA,NA,NA,NA,NA,NA,NA,NA,NA,NA,NA,NA,NA,NA
c83d1,shallow,flow.Sequence,3_0_0_0_3_1,NA,NA,completion,17866.6,411093.5999999,411092,411108.7,428975.3,428976.5,2024-02-17T08:43:06Z,428992,NULL,Abrechnung,uhasibu,s,kusahihisha,mpambano,mashambulizi,NA,sdf,NA,0,NA,NA,NA,NA,NA,NA,NA,NA,NA,NA,NA,NA,NA,NA,NA,NA,NA,NA,NA
c83d1,task,flow.Sequence,3_0_0_0_3,NA,NA,completion,17866.6,411093.4000001,411092,411108.7,428975.3,428976.69999981,2024-02-17T08:43:06Z,428992,NULL,Abrechnung,uhasibu,s,kusahihisha,mpambano,mashambulizi,NA,sdf,NA,0,NA,NA,NA,NA,NA,NA,NA,NA,NA,NA,NA,NA,NA,NA,NA,NA,NA,NA,NA
c83d1,Deep Question,html.Page,3_0_0_0_4_0_0,NA,NA,form submission,44108.5,428976.80000019,428975.3,428992,473100.5,473100.80000019,2024-02-17T08:43:50Z,473108.5,NULL,Angreifer,mshambulizi,d,NA,NA,NA,zimbike,NA,NA,0,NA,NA,NA,NA,NA,NA,NA,NA,NA,NA,NA,NA,NA,NA,NA,NA,NA,NA,NA
c83d1,"""Richtig""-Screen",canvas.Screen,3_0_0_0_4_0_1,NA,NA,skipped,NA,473102.5,NA,NA,473100.5,473102.69999981,2024-02-17T08:43:50Z,473108.5,NULL,Angreifer,mshambulizi,d,NA,NA,NA,NA,sdf,NA,0,NA,NA,NA,NA,NA,NA,NA,NA,NA,NA,NA,NA,NA,NA,NA,NA,NA,NA,NA
c83d1,"""Falsch""-Screen",canvas.Screen,3_0_0_0_4_0_2,NA,NA,timeout,5000.2,473103.19999981,473092.1,473108.5,478091.9,478092.69999981,2024-02-17T08:43:55Z,478108.7,NULL,Angreifer,mshambulizi,d,NA,NA,NA,NA,sdf,0,0,NA,NA,NA,NA,NA,NA,NA,NA,NA,NA,NA,NA,NA,NA,NA,NA,NA,NA,NA
c83d1,deep,flow.Sequence,3_0_0_0_4_0,NA,NA,completion,49099.9,428976.80000019,428975.3,428992,478091.9,478093,2024-02-17T08:43:55Z,478108.7,NULL,Angreifer,mshambulizi,d,NA,NA,NA,NA,sdf,NA,0,NA,NA,NA,NA,NA,NA,NA,NA,NA,NA,NA,NA,NA,NA,NA,NA,NA,NA,NA
c83d1,shallow,flow.Sequence,3_0_0_0_4_1,NA,NA,skipped,NA,478093.0999999,NA,NA,478091.9,478093.19999981,2024-02-17T08:43:55Z,478108.7,NULL,Angreifer,mshambulizi,d,NA,NA,NA,NA,sdf,NA,0,NA,NA,NA,NA,NA,NA,NA,NA,NA,NA,NA,NA,NA,NA,NA,NA,NA,NA,NA
c83d1,task,flow.Sequence,3_0_0_0_4,NA,NA,completion,49099.9,428976.80000019,428975.3,428992,478091.9,478093.30000019,2024-02-17T08:43:55Z,478108.7,NULL,Angreifer,mshambulizi,d,NA,NA,NA,NA,sdf,NA,0,NA,NA,NA,NA,NA,NA,NA,NA,NA,NA,NA,NA,NA,NA,NA,NA,NA,NA,NA
c83d1,deep,flow.Sequence,3_0_0_0_5_0,NA,NA,skipped,NA,478093.5,NA,NA,478091.9,478093.5999999,2024-02-17T08:43:55Z,478108.7,NULL,Schönheit,kirembo,s,mahojiano,msisimko,jitihadi,NA,sdf,NA,0,NA,NA,NA,NA,NA,NA,NA,NA,NA,NA,NA,NA,NA,NA,NA,NA,NA,NA,NA
c83d1,Shallow Question,html.Page,3_0_0_0_5_1_0,NA,NA,form submission,6893.7000000954,478093.80000019,478091.9,478108.7,485002.4000001,485002.69999981,2024-02-17T08:44:02Z,485008.5,NULL,Schönheit,kirembo,s,mahojiano,msisimko,jitihadi,mahojiano,NA,NA,0,NA,NA,NA,NA,NA,NA,NA,NA,NA,NA,NA,NA,NA,NA,NA,NA,NA,NA,NA
c83d1,"""Richtig""-Screen",canvas.Screen,3_0_0_0_5_1_1,NA,NA,skipped,NA,485004.4000001,NA,NA,485002.4000001,485004.5999999,2024-02-17T08:44:02Z,485008.5,NULL,Schönheit,kirembo,s,mahojiano,msisimko,jitihadi,NA,sdf,NA,0,NA,NA,NA,NA,NA,NA,NA,NA,NA,NA,NA,NA,NA,NA,NA,NA,NA,NA,NA
c83d1,"""Falsch""-Screen",canvas.Screen,3_0_0_0_5_1_2,NA,NA,timeout,5000.2,485005.19999981,484992.056,485008.5,489992,489992.69999981,2024-02-17T08:44:07Z,490008.7,NULL,Schönheit,kirembo,s,mahojiano,msisimko,jitihadi,NA,sdf,0,0,NA,NA,NA,NA,NA,NA,NA,NA,NA,NA,NA,NA,NA,NA,NA,NA,NA,NA,NA
c83d1,shallow,flow.Sequence,3_0_0_0_5_1,NA,NA,completion,11883.3,478093.69999981,478091.9,478108.7,489992,489993,2024-02-17T08:44:07Z,490008.7,NULL,Schönheit,kirembo,s,mahojiano,msisimko,jitihadi,NA,sdf,NA,0,NA,NA,NA,NA,NA,NA,NA,NA,NA,NA,NA,NA,NA,NA,NA,NA,NA,NA,NA
c83d1,task,flow.Sequence,3_0_0_0_5,NA,NA,completion,11883.3,478093.5,478091.9,478108.7,489992,489993.0999999,2024-02-17T08:44:07Z,490008.7,NULL,Schönheit,kirembo,s,mahojiano,msisimko,jitihadi,NA,sdf,NA,0,NA,NA,NA,NA,NA,NA,NA,NA,NA,NA,NA,NA,NA,NA,NA,NA,NA,NA,NA
c83d1,Deep Question,html.Page,3_0_0_0_6_0_0,NA,NA,form submission,46937.700000095,489993.30000019,489992,490008.7,536946.4000001,536946.5999999,2024-02-17T08:44:54Z,536958.7,NULL,Wettbewerb,ushindani,d,NA,NA,NA,wasabi,NA,NA,0,NA,NA,NA,NA,NA,NA,NA,NA,NA,NA,NA,NA,NA,NA,NA,NA,NA,NA,NA
c83d1,"""Richtig""-Screen",canvas.Screen,3_0_0_0_6_0_1,NA,NA,skipped,NA,536948.69999981,NA,NA,536946.4000001,536948.80000019,2024-02-17T08:44:54Z,536958.7,NULL,Wettbewerb,ushindani,d,NA,NA,NA,NA,sdf,NA,0,NA,NA,NA,NA,NA,NA,NA,NA,NA,NA,NA,NA,NA,NA,NA,NA,NA,NA,NA
c83d1,"""Falsch""-Screen",canvas.Screen,3_0_0_0_6_0_2,NA,NA,timeout,4999.9,536949.4000001,536942.084,536958.7,541942,541942.69999981,2024-02-17T08:44:59Z,541958.6,NULL,Wettbewerb,ushindani,d,NA,NA,NA,NA,sdf,0,0,NA,NA,NA,NA,NA,NA,NA,NA,NA,NA,NA,NA,NA,NA,NA,NA,NA,NA,NA
c83d1,deep,flow.Sequence,3_0_0_0_6_0,NA,NA,completion,51933.3,489993.30000019,489992,490008.7,541942,541943,2024-02-17T08:44:59Z,541958.6,NULL,Wettbewerb,ushindani,d,NA,NA,NA,NA,sdf,NA,0,NA,NA,NA,NA,NA,NA,NA,NA,NA,NA,NA,NA,NA,NA,NA,NA,NA,NA,NA
c83d1,shallow,flow.Sequence,3_0_0_0_6_1,NA,NA,skipped,NA,541943.19999981,NA,NA,541942,541943.19999981,2024-02-17T08:44:59Z,541958.6,NULL,Wettbewerb,ushindani,d,NA,NA,NA,NA,sdf,NA,0,NA,NA,NA,NA,NA,NA,NA,NA,NA,NA,NA,NA,NA,NA,NA,NA,NA,NA,NA
c83d1,task,flow.Sequence,3_0_0_0_6,NA,NA,completion,51933.3,489993.19999981,489992,490008.7,541942,541943.5,2024-02-17T08:44:59Z,541958.6,NULL,Wettbewerb,ushindani,d,NA,NA,NA,NA,sdf,NA,0,NA,NA,NA,NA,NA,NA,NA,NA,NA,NA,NA,NA,NA,NA,NA,NA,NA,NA,NA
c83d1,deep,flow.Sequence,3_0_0_0_7_0,NA,NA,skipped,NA,541943.5,NA,NA,541942,541943.5999999,2024-02-17T08:44:59Z,541958.6,NULL,Kanzler,diwani,s,rasilmali,mahitaji,maabudu,NA,sdf,NA,0,NA,NA,NA,NA,NA,NA,NA,NA,NA,NA,NA,NA,NA,NA,NA,NA,NA,NA,NA
c83d1,Shallow Question,html.Page,3_0_0_0_7_1_0,NA,NA,form submission,7639.7000001908,541943.69999981,541942,541958.6,549598.30000019,549598.5,2024-02-17T08:45:07Z,549608.5,NULL,Kanzler,diwani,s,rasilmali,mahitaji,maabudu,maabudu,NA,NA,0,NA,NA,NA,NA,NA,NA,NA,NA,NA,NA,NA,NA,NA,NA,NA,NA,NA,NA,NA
c83d1,"""Richtig""-Screen",canvas.Screen,3_0_0_0_7_1_1,NA,NA,skipped,NA,549600.19999981,NA,NA,549598.30000019,549600.30000019,2024-02-17T08:45:07Z,549608.5,NULL,Kanzler,diwani,s,rasilmali,mahitaji,maabudu,NA,sdf,NA,0,NA,NA,NA,NA,NA,NA,NA,NA,NA,NA,NA,NA,NA,NA,NA,NA,NA,NA,NA
c83d1,"""Falsch""-Screen",canvas.Screen,3_0_0_0_7_1_2,NA,NA,timeout,5000,549600.9000001,549591.992,549608.5,554592,554592.80000019,2024-02-17T08:45:12Z,554608.5,NULL,Kanzler,diwani,s,rasilmali,mahitaji,maabudu,NA,sdf,0,0,NA,NA,NA,NA,NA,NA,NA,NA,NA,NA,NA,NA,NA,NA,NA,NA,NA,NA,NA
c83d1,shallow,flow.Sequence,3_0_0_0_7_1,NA,NA,completion,12633.4,541943.69999981,541942,541958.6,554592,554593.19999981,2024-02-17T08:45:12Z,554608.5,NULL,Kanzler,diwani,s,rasilmali,mahitaji,maabudu,NA,sdf,NA,0,NA,NA,NA,NA,NA,NA,NA,NA,NA,NA,NA,NA,NA,NA,NA,NA,NA,NA,NA
c83d1,task,flow.Sequence,3_0_0_0_7,NA,NA,completion,12633.4,541943.5,541942,541958.6,554592,554593.30000019,2024-02-17T08:45:12Z,554608.5,NULL,Kanzler,diwani,s,rasilmali,mahitaji,maabudu,NA,sdf,NA,0,NA,NA,NA,NA,NA,NA,NA,NA,NA,NA,NA,NA,NA,NA,NA,NA,NA,NA,NA
c83d1,block,flow.Loop,3_0_0_0,NA,NA,completion,230416.55,324181.30000019,324175.45,324175.45,554592,554593.5,2024-02-17T08:45:12Z,554608.5,NULL,NA,NA,NA,NA,NA,NA,NA,sdf,NA,0,NA,NA,NA,NA,NA,NA,NA,NA,NA,NA,NA,NA,NA,NA,NA,NA,NA,NA,NA
c83d1,weiter,canvas.Screen,3_0_0_1,sdf,keypress(Space),response,3852.5999999046,554593.5999999,554592,554608.5,558461.0999999,558461.9000001,2024-02-17T08:45:16Z,558508.6,NULL,NA,NA,NA,NA,NA,NA,NA,sdf,NA,0,NA,NA,NA,NA,NA,NA,NA,NA,NA,NA,NA,NA,NA,NA,NA,NA,NA,NA,NA
c83d1,check continue,flow.Sequence,3_0_0,NA,NA,completion,234285.6499999,324181.30000019,324175.45,324175.45,558461.0999999,558462.19999981,2024-02-17T08:45:16Z,558508.6,NULL,NA,NA,NA,NA,NA,NA,NA,sdf,NA,0,NA,NA,NA,NA,NA,NA,NA,NA,NA,NA,NA,NA,NA,NA,NA,NA,NA,NA,NA
c83d1,Deep Question,html.Page,3_0_1_0_0_0_0,NA,NA,form submission,24811.499999905,558515.4000001,558508.344,558508.6,583320.0999999,583320.4000001,2024-02-17T08:45:41Z,583325.2,NULL,Angreifer,mshambulizi,d,NA,NA,NA,kimbori,NA,NA,1,NA,NA,NA,NA,NA,NA,NA,NA,NA,NA,NA,NA,NA,NA,NA,NA,NA,NA,NA
c83d1,"""Richtig""-Screen",canvas.Screen,3_0_1_0_0_0_1,NA,NA,skipped,NA,583322.19999981,NA,NA,583320.0999999,583322.30000019,2024-02-17T08:45:41Z,583325.2,NULL,Angreifer,mshambulizi,d,NA,NA,NA,NA,sdfdsf,NA,1,NA,NA,NA,NA,NA,NA,NA,NA,NA,NA,NA,NA,NA,NA,NA,NA,NA,NA,NA
c83d1,"""Falsch""-Screen",canvas.Screen,3_0_1_0_0_0_2,NA,NA,timeout,5000,583323,583308.656,583325.2,588308.6,588309.19999981,2024-02-17T08:45:46Z,588325.2,NULL,Angreifer,mshambulizi,d,NA,NA,NA,NA,sdfdsf,0,1,NA,NA,NA,NA,NA,NA,NA,NA,NA,NA,NA,NA,NA,NA,NA,NA,NA,NA,NA
c83d1,deep,flow.Sequence,3_0_1_0_0_0,NA,NA,completion,29800,558515.4000001,558508.344,558508.6,588308.6,588309.5999999,2024-02-17T08:45:46Z,588325.2,NULL,Angreifer,mshambulizi,d,NA,NA,NA,NA,sdfdsf,NA,1,NA,NA,NA,NA,NA,NA,NA,NA,NA,NA,NA,NA,NA,NA,NA,NA,NA,NA,NA
c83d1,shallow,flow.Sequence,3_0_1_0_0_1,NA,NA,skipped,NA,588309.69999981,NA,NA,588308.6,588309.80000019,2024-02-17T08:45:46Z,588325.2,NULL,Angreifer,mshambulizi,d,NA,NA,NA,NA,sdfdsf,NA,1,NA,NA,NA,NA,NA,NA,NA,NA,NA,NA,NA,NA,NA,NA,NA,NA,NA,NA,NA
c83d1,task,flow.Sequence,3_0_1_0_0,NA,NA,completion,29800,558515.4000001,558508.344,558508.6,588308.6,588309.9000001,2024-02-17T08:45:46Z,588325.2,NULL,Angreifer,mshambulizi,d,NA,NA,NA,NA,sdfdsf,NA,1,NA,NA,NA,NA,NA,NA,NA,NA,NA,NA,NA,NA,NA,NA,NA,NA,NA,NA,NA
c83d1,deep,flow.Sequence,3_0_1_0_1_0,NA,NA,skipped,NA,588310.0999999,NA,NA,588308.6,588310.0999999,2024-02-17T08:45:46Z,588325.2,NULL,Zufall,kikuti,s,kukosekana,uchoraji,leseni,NA,sdfdsf,NA,1,NA,NA,NA,NA,NA,NA,NA,NA,NA,NA,NA,NA,NA,NA,NA,NA,NA,NA,NA
c83d1,Shallow Question,html.Page,3_0_1_0_1_1_0,NA,NA,form submission,8063.9999998093,588310.19999981,588308.6,588325.2,596389.19999981,596389.5,2024-02-17T08:45:54Z,596391.988,NULL,Zufall,kikuti,s,kukosekana,uchoraji,leseni,uchoraji,NA,NA,1,NA,NA,NA,NA,NA,NA,NA,NA,NA,NA,NA,NA,NA,NA,NA,NA,NA,NA,NA
c83d1,"""Richtig""-Screen",canvas.Screen,3_0_1_0_1_1_1,NA,NA,skipped,NA,596391.19999981,NA,NA,596389.19999981,596391.30000019,2024-02-17T08:45:54Z,596391.988,NULL,Zufall,kikuti,s,kukosekana,uchoraji,leseni,NA,sdfdsf,NA,1,NA,NA,NA,NA,NA,NA,NA,NA,NA,NA,NA,NA,NA,NA,NA,NA,NA,NA,NA
c83d1,"""Falsch""-Screen",canvas.Screen,3_0_1_0_1_1_2,NA,NA,timeout,4999.912,596391.9000001,596391.988,596391.988,601375.2,601376,2024-02-17T08:45:59Z,601391.9,NULL,Zufall,kikuti,s,kukosekana,uchoraji,leseni,NA,sdfdsf,0,1,NA,NA,NA,NA,NA,NA,NA,NA,NA,NA,NA,NA,NA,NA,NA,NA,NA,NA,NA
c83d1,shallow,flow.Sequence,3_0_1_0_1_1,NA,NA,completion,13050,588310.19999981,588308.6,588325.2,601375.2,601376.19999981,2024-02-17T08:45:59Z,601391.9,NULL,Zufall,kikuti,s,kukosekana,uchoraji,leseni,NA,sdfdsf,NA,1,NA,NA,NA,NA,NA,NA,NA,NA,NA,NA,NA,NA,NA,NA,NA,NA,NA,NA,NA
c83d1,task,flow.Sequence,3_0_1_0_1,NA,NA,completion,13050,588310,588308.6,588325.2,601375.2,601376.4000001,2024-02-17T08:45:59Z,601391.9,NULL,Zufall,kikuti,s,kukosekana,uchoraji,leseni,NA,sdfdsf,NA,1,NA,NA,NA,NA,NA,NA,NA,NA,NA,NA,NA,NA,NA,NA,NA,NA,NA,NA,NA
c83d1,Deep Question,html.Page,3_0_1_0_2_0_0,NA,NA,form submission,17966.6,601376.5,601375.2,601391.9,619358.5,619358.69999981,2024-02-17T08:46:17Z,619375.4,NULL,Sänger,mwimbaji,d,NA,NA,NA,karimi,NA,NA,1,NA,NA,NA,NA,NA,NA,NA,NA,NA,NA,NA,NA,NA,NA,NA,NA,NA,NA,NA
c83d1,"""Richtig""-Screen",canvas.Screen,3_0_1_0_2_0_1,NA,NA,skipped,NA,619360.4000001,NA,NA,619358.5,619360.5999999,2024-02-17T08:46:17Z,619375.4,NULL,Sänger,mwimbaji,d,NA,NA,NA,NA,sdfdsf,NA,1,NA,NA,NA,NA,NA,NA,NA,NA,NA,NA,NA,NA,NA,NA,NA,NA,NA,NA,NA
c83d1,"""Falsch""-Screen",canvas.Screen,3_0_1_0_2_0_2,NA,NA,timeout,4999.7999999999,619361.19999981,619358.582,619375.4,624358.6,624359.30000019,2024-02-17T08:46:22Z,624375.2,NULL,Sänger,mwimbaji,d,NA,NA,NA,NA,sdfdsf,0,1,NA,NA,NA,NA,NA,NA,NA,NA,NA,NA,NA,NA,NA,NA,NA,NA,NA,NA,NA
c83d1,deep,flow.Sequence,3_0_1_0_2_0,NA,NA,completion,22966.7,601376.5,601375.2,601391.9,624358.6,624359.69999981,2024-02-17T08:46:22Z,624375.2,NULL,Sänger,mwimbaji,d,NA,NA,NA,NA,sdfdsf,NA,1,NA,NA,NA,NA,NA,NA,NA,NA,NA,NA,NA,NA,NA,NA,NA,NA,NA,NA,NA
c83d1,shallow,flow.Sequence,3_0_1_0_2_1,NA,NA,skipped,NA,624359.80000019,NA,NA,624358.6,624359.9000001,2024-02-17T08:46:22Z,624375.2,NULL,Sänger,mwimbaji,d,NA,NA,NA,NA,sdfdsf,NA,1,NA,NA,NA,NA,NA,NA,NA,NA,NA,NA,NA,NA,NA,NA,NA,NA,NA,NA,NA
c83d1,task,flow.Sequence,3_0_1_0_2,NA,NA,completion,22966.7,601376.5,601375.2,601391.9,624358.6,624360.0999999,2024-02-17T08:46:22Z,624375.2,NULL,Sänger,mwimbaji,d,NA,NA,NA,NA,sdfdsf,NA,1,NA,NA,NA,NA,NA,NA,NA,NA,NA,NA,NA,NA,NA,NA,NA,NA,NA,NA,NA
c83d1,Deep Question,html.Page,3_0_1_0_3_0_0,NA,NA,form submission,48667.999999809,624360.19999981,624358.6,624375.2,673043.19999981,673043.4000001,2024-02-17T08:47:10Z,673058.5,NULL,Auftrag,uagizaji,d,NA,NA,NA,matipi,NA,NA,1,NA,NA,NA,NA,NA,NA,NA,NA,NA,NA,NA,NA,NA,NA,NA,NA,NA,NA,NA
c83d1,"""Richtig""-Screen",canvas.Screen,3_0_1_0_3_0_1,NA,NA,skipped,NA,673045.0999999,NA,NA,673043.19999981,673045.30000019,2024-02-17T08:47:10Z,673058.5,NULL,Auftrag,uagizaji,d,NA,NA,NA,NA,sdfdsf,NA,1,NA,NA,NA,NA,NA,NA,NA,NA,NA,NA,NA,NA,NA,NA,NA,NA,NA,NA,NA
c83d1,"""Falsch""-Screen",canvas.Screen,3_0_1_0_3_0_2,NA,NA,timeout,4999.9,673045.80000019,673043.63,673058.5,678041.8,678042.5999999,2024-02-17T08:47:15Z,678058.4,NULL,Auftrag,uagizaji,d,NA,NA,NA,NA,sdfdsf,0,1,NA,NA,NA,NA,NA,NA,NA,NA,NA,NA,NA,NA,NA,NA,NA,NA,NA,NA,NA
c83d1,deep,flow.Sequence,3_0_1_0_3_0,NA,NA,completion,53666.6,624360.19999981,624358.6,624375.2,678041.8,678042.9000001,2024-02-17T08:47:15Z,678058.4,NULL,Auftrag,uagizaji,d,NA,NA,NA,NA,sdfdsf,NA,1,NA,NA,NA,NA,NA,NA,NA,NA,NA,NA,NA,NA,NA,NA,NA,NA,NA,NA,NA
c83d1,shallow,flow.Sequence,3_0_1_0_3_1,NA,NA,skipped,NA,678043,NA,NA,678041.8,678043.0999999,2024-02-17T08:47:15Z,678058.4,NULL,Auftrag,uagizaji,d,NA,NA,NA,NA,sdfdsf,NA,1,NA,NA,NA,NA,NA,NA,NA,NA,NA,NA,NA,NA,NA,NA,NA,NA,NA,NA,NA
c83d1,task,flow.Sequence,3_0_1_0_3,NA,NA,completion,53666.6,624360.0999999,624358.6,624375.2,678041.8,678043.19999981,2024-02-17T08:47:15Z,678058.4,NULL,Auftrag,uagizaji,d,NA,NA,NA,NA,sdfdsf,NA,1,NA,NA,NA,NA,NA,NA,NA,NA,NA,NA,NA,NA,NA,NA,NA,NA,NA,NA,NA
c83d1,deep,flow.Sequence,3_0_1_0_4_0,NA,NA,skipped,NA,678043.4000001,NA,NA,678041.8,678043.5,2024-02-17T08:47:15Z,678058.4,NULL,Abrechnung,uhasibu,s,kusahihisha,mpambano,mashambulizi,NA,sdfdsf,NA,1,NA,NA,NA,NA,NA,NA,NA,NA,NA,NA,NA,NA,NA,NA,NA,NA,NA,NA,NA
c83d1,Shallow Question,html.Page,3_0_1_0_4_1_0,NA,NA,form submission,8811.6999999046,678043.5999999,678041.8,678058.4,686870.0999999,686870.30000019,2024-02-17T08:47:24Z,686875,NULL,Abrechnung,uhasibu,s,kusahihisha,mpambano,mashambulizi,mpambano,NA,NA,1,NA,NA,NA,NA,NA,NA,NA,NA,NA,NA,NA,NA,NA,NA,NA,NA,NA,NA,NA
c83d1,"""Richtig""-Screen",canvas.Screen,3_0_1_0_4_1_1,NA,NA,skipped,NA,686872,NA,NA,686870.0999999,686872.0999999,2024-02-17T08:47:24Z,686875,NULL,Abrechnung,uhasibu,s,kusahihisha,mpambano,mashambulizi,NA,sdfdsf,NA,1,NA,NA,NA,NA,NA,NA,NA,NA,NA,NA,NA,NA,NA,NA,NA,NA,NA,NA,NA
c83d1,"""Falsch""-Screen",canvas.Screen,3_0_1_0_4_1_2,NA,NA,timeout,5000,686872.69999981,686858.5,686875,691858.5,691859.19999981,2024-02-17T08:47:29Z,691875,NULL,Abrechnung,uhasibu,s,kusahihisha,mpambano,mashambulizi,NA,sdfdsf,0,1,NA,NA,NA,NA,NA,NA,NA,NA,NA,NA,NA,NA,NA,NA,NA,NA,NA,NA,NA
c83d1,shallow,flow.Sequence,3_0_1_0_4_1,NA,NA,completion,13800.1,678043.5,678041.8,678058.4,691858.5,691859.69999981,2024-02-17T08:47:29Z,691875,NULL,Abrechnung,uhasibu,s,kusahihisha,mpambano,mashambulizi,NA,sdfdsf,NA,1,NA,NA,NA,NA,NA,NA,NA,NA,NA,NA,NA,NA,NA,NA,NA,NA,NA,NA,NA
c83d1,task,flow.Sequence,3_0_1_0_4,NA,NA,completion,13800.1,678043.4000001,678041.8,678058.4,691858.5,691859.80000019,2024-02-17T08:47:29Z,691875,NULL,Abrechnung,uhasibu,s,kusahihisha,mpambano,mashambulizi,NA,sdfdsf,NA,1,NA,NA,NA,NA,NA,NA,NA,NA,NA,NA,NA,NA,NA,NA,NA,NA,NA,NA,NA
c83d1,deep,flow.Sequence,3_0_1_0_5_0,NA,NA,skipped,NA,691860,NA,NA,691858.5,691860,2024-02-17T08:47:29Z,691875,NULL,Kanzler,diwani,s,rasilmali,mahitaji,maabudu,NA,sdfdsf,NA,1,NA,NA,NA,NA,NA,NA,NA,NA,NA,NA,NA,NA,NA,NA,NA,NA,NA,NA,NA
c83d1,Shallow Question,html.Page,3_0_1_0_5_1_0,NA,NA,form submission,9117,691860.19999981,691858.5,691875,700992,700992.19999981,2024-02-17T08:47:38Z,701009.6,NULL,Kanzler,diwani,s,rasilmali,mahitaji,maabudu,diwani,NA,NA,1,NA,NA,NA,NA,NA,NA,NA,NA,NA,NA,NA,NA,NA,NA,NA,NA,NA,NA,NA
c83d1,"""Richtig""-Screen",canvas.Screen,3_0_1_0_5_1_1,NA,NA,timeout,4998.8,700994.19999981,700991.984,701009.6,705991.8,705992.5999999,2024-02-17T08:47:43Z,706008.4,NULL,Kanzler,diwani,s,rasilmali,mahitaji,maabudu,NA,sdfdsf,1,1,NA,NA,NA,NA,NA,NA,NA,NA,NA,NA,NA,NA,NA,NA,NA,NA,NA,NA,NA
c83d1,"""Falsch""-Screen",canvas.Screen,3_0_1_0_5_1_2,NA,NA,skipped,NA,705996.5,NA,NA,705991.8,705996.80000019,2024-02-17T08:47:43Z,706008.4,NULL,Kanzler,diwani,s,rasilmali,mahitaji,maabudu,NA,sdfdsf,NA,1,NA,NA,NA,NA,NA,NA,NA,NA,NA,NA,NA,NA,NA,NA,NA,NA,NA,NA,NA
c83d1,shallow,flow.Sequence,3_0_1_0_5_1,NA,NA,completion,14116.8,691860.0999999,691858.5,691875,705991.8,705997,2024-02-17T08:47:43Z,706008.4,NULL,Kanzler,diwani,s,rasilmali,mahitaji,maabudu,NA,sdfdsf,NA,1,NA,NA,NA,NA,NA,NA,NA,NA,NA,NA,NA,NA,NA,NA,NA,NA,NA,NA,NA
c83d1,task,flow.Sequence,3_0_1_0_5,NA,NA,completion,14116.8,691859.9000001,691858.5,691875,705991.8,705997.0999999,2024-02-17T08:47:43Z,706008.4,NULL,Kanzler,diwani,s,rasilmali,mahitaji,maabudu,NA,sdfdsf,NA,1,NA,NA,NA,NA,NA,NA,NA,NA,NA,NA,NA,NA,NA,NA,NA,NA,NA,NA,NA
c83d1,Deep Question,html.Page,3_0_1_0_6_0_0,NA,NA,form submission,95161.500000095,705997.4000001,705991.8,706008.4,801169.9000001,801170.0999999,2024-02-17T08:49:18Z,801191.7,NULL,Wettbewerb,ushindani,d,NA,NA,NA,wasabi,NA,NA,1,NA,NA,NA,NA,NA,NA,NA,NA,NA,NA,NA,NA,NA,NA,NA,NA,NA,NA,NA
c83d1,"""Richtig""-Screen",canvas.Screen,3_0_1_0_6_0_1,NA,NA,skipped,NA,801172,NA,NA,801169.9000001,801172.19999981,2024-02-17T08:49:18Z,801191.7,NULL,Wettbewerb,ushindani,d,NA,NA,NA,NA,sdfdsf,NA,1,NA,NA,NA,NA,NA,NA,NA,NA,NA,NA,NA,NA,NA,NA,NA,NA,NA,NA,NA
c83d1,"""Falsch""-Screen",canvas.Screen,3_0_1_0_6_0_2,NA,NA,timeout,4999.9,801172.80000019,801177.7,801191.7,806174.9,806176,2024-02-17T08:49:23Z,806191.6,NULL,Wettbewerb,ushindani,d,NA,NA,NA,NA,sdfdsf,0,1,NA,NA,NA,NA,NA,NA,NA,NA,NA,NA,NA,NA,NA,NA,NA,NA,NA,NA,NA
c83d1,deep,flow.Sequence,3_0_1_0_6_0,NA,NA,completion,100166.5,705997.4000001,705991.8,706008.4,806174.9,806176.19999981,2024-02-17T08:49:23Z,806191.6,NULL,Wettbewerb,ushindani,d,NA,NA,NA,NA,sdfdsf,NA,1,NA,NA,NA,NA,NA,NA,NA,NA,NA,NA,NA,NA,NA,NA,NA,NA,NA,NA,NA
c83d1,shallow,flow.Sequence,3_0_1_0_6_1,NA,NA,skipped,NA,806176.4000001,NA,NA,806174.9,806176.5,2024-02-17T08:49:23Z,806191.6,NULL,Wettbewerb,ushindani,d,NA,NA,NA,NA,sdfdsf,NA,1,NA,NA,NA,NA,NA,NA,NA,NA,NA,NA,NA,NA,NA,NA,NA,NA,NA,NA,NA
c83d1,task,flow.Sequence,3_0_1_0_6,NA,NA,completion,100166.5,705997.30000019,705991.8,706008.4,806174.9,806176.69999981,2024-02-17T08:49:23Z,806191.6,NULL,Wettbewerb,ushindani,d,NA,NA,NA,NA,sdfdsf,NA,1,NA,NA,NA,NA,NA,NA,NA,NA,NA,NA,NA,NA,NA,NA,NA,NA,NA,NA,NA
c83d1,deep,flow.Sequence,3_0_1_0_7_0,NA,NA,skipped,NA,806176.80000019,NA,NA,806174.9,806176.9000001,2024-02-17T08:49:23Z,806191.6,NULL,Schönheit,kirembo,s,mahojiano,msisimko,jitihadi,NA,sdfdsf,NA,1,NA,NA,NA,NA,NA,NA,NA,NA,NA,NA,NA,NA,NA,NA,NA,NA,NA,NA,NA
c83d1,Shallow Question,html.Page,3_0_1_0_7_1_0,NA,NA,form submission,11691.4,806177,806174.9,806191.6,817883,817883.19999981,2024-02-17T08:49:35Z,817891.7,NULL,Schönheit,kirembo,s,mahojiano,msisimko,jitihadi,jitihadi,NA,NA,1,NA,NA,NA,NA,NA,NA,NA,NA,NA,NA,NA,NA,NA,NA,NA,NA,NA,NA,NA
c83d1,"""Richtig""-Screen",canvas.Screen,3_0_1_0_7_1_1,NA,NA,skipped,NA,817885,NA,NA,817883,817885.0999999,2024-02-17T08:49:35Z,817891.7,NULL,Schönheit,kirembo,s,mahojiano,msisimko,jitihadi,NA,sdfdsf,NA,1,NA,NA,NA,NA,NA,NA,NA,NA,NA,NA,NA,NA,NA,NA,NA,NA,NA,NA,NA
c83d1,"""Falsch""-Screen",canvas.Screen,3_0_1_0_7_1_2,NA,NA,timeout,5000,817885.69999981,817875.896,817891.7,822875,822875.80000019,2024-02-17T08:49:40Z,822891.7,NULL,Schönheit,kirembo,s,mahojiano,msisimko,jitihadi,NA,sdfdsf,0,1,NA,NA,NA,NA,NA,NA,NA,NA,NA,NA,NA,NA,NA,NA,NA,NA,NA,NA,NA
c83d1,shallow,flow.Sequence,3_0_1_0_7_1,NA,NA,completion,16683.4,806177,806174.9,806191.6,822875,822876.0999999,2024-02-17T08:49:40Z,822891.7,NULL,Schönheit,kirembo,s,mahojiano,msisimko,jitihadi,NA,sdfdsf,NA,1,NA,NA,NA,NA,NA,NA,NA,NA,NA,NA,NA,NA,NA,NA,NA,NA,NA,NA,NA
c83d1,task,flow.Sequence,3_0_1_0_7,NA,NA,completion,16683.4,806176.69999981,806174.9,806191.6,822875,822876.19999981,2024-02-17T08:49:40Z,822891.7,NULL,Schönheit,kirembo,s,mahojiano,msisimko,jitihadi,NA,sdfdsf,NA,1,NA,NA,NA,NA,NA,NA,NA,NA,NA,NA,NA,NA,NA,NA,NA,NA,NA,NA,NA
c83d1,block,flow.Loop,3_0_1_0,NA,NA,completion,264366.4,558515.30000019,558508.344,558508.6,822875,822876.4000001,2024-02-17T08:49:40Z,822891.7,NULL,NA,NA,NA,NA,NA,NA,NA,sdfdsf,NA,1,NA,NA,NA,NA,NA,NA,NA,NA,NA,NA,NA,NA,NA,NA,NA,NA,NA,NA,NA
c83d1,weiter,canvas.Screen,3_0_1_1,sdf,keypress(Space),response,1607.3999999047,822876.5,822875,822891.7,824499.0999999,824500,2024-02-17T08:49:42Z,824541.6,NULL,NA,NA,NA,NA,NA,NA,NA,sdfdsf,NA,1,NA,NA,NA,NA,NA,NA,NA,NA,NA,NA,NA,NA,NA,NA,NA,NA,NA,NA,NA
c83d1,check continue,flow.Sequence,3_0_1,NA,NA,completion,265990.4999999,558515.30000019,558508.344,558508.6,824499.0999999,824500.30000019,2024-02-17T08:49:42Z,824541.6,NULL,NA,NA,NA,NA,NA,NA,NA,sdfdsf,NA,1,NA,NA,NA,NA,NA,NA,NA,NA,NA,NA,NA,NA,NA,NA,NA,NA,NA,NA,NA
c83d1,Deep Question,html.Page,3_0_2_0_0_0_0,NA,NA,form submission,41872.4,824540.5,824525.076,824541.6,866414,866414.19999981,2024-02-17T08:50:24Z,866424.9,NULL,Angreifer,mshambulizi,d,NA,NA,NA,mahjsoki,NA,NA,2,NA,NA,NA,NA,NA,NA,NA,NA,NA,NA,NA,NA,NA,NA,NA,NA,NA,NA,NA
c83d1,"""Richtig""-Screen",canvas.Screen,3_0_2_0_0_0_1,NA,NA,skipped,NA,866416.0999999,NA,NA,866414,866416.19999981,2024-02-17T08:50:24Z,866424.9,NULL,Angreifer,mshambulizi,d,NA,NA,NA,NA,sdf,NA,2,NA,NA,NA,NA,NA,NA,NA,NA,NA,NA,NA,NA,NA,NA,NA,NA,NA,NA,NA
c83d1,"""Falsch""-Screen",canvas.Screen,3_0_2_0_0_0_2,NA,NA,timeout,5000.1,866416.80000019,866409.262,866424.9,871408.3,871409.0999999,2024-02-17T08:50:29Z,871425,NULL,Angreifer,mshambulizi,d,NA,NA,NA,NA,sdf,0,2,NA,NA,NA,NA,NA,NA,NA,NA,NA,NA,NA,NA,NA,NA,NA,NA,NA,NA,NA
c83d1,deep,flow.Sequence,3_0_2_0_0_0,NA,NA,completion,46866.7,824540.5,824525.076,824541.6,871408.3,871409.4000001,2024-02-17T08:50:29Z,871425,NULL,Angreifer,mshambulizi,d,NA,NA,NA,NA,sdf,NA,2,NA,NA,NA,NA,NA,NA,NA,NA,NA,NA,NA,NA,NA,NA,NA,NA,NA,NA,NA
c83d1,shallow,flow.Sequence,3_0_2_0_0_1,NA,NA,skipped,NA,871409.5,NA,NA,871408.3,871409.5999999,2024-02-17T08:50:29Z,871425,NULL,Angreifer,mshambulizi,d,NA,NA,NA,NA,sdf,NA,2,NA,NA,NA,NA,NA,NA,NA,NA,NA,NA,NA,NA,NA,NA,NA,NA,NA,NA,NA
c83d1,task,flow.Sequence,3_0_2_0_0,NA,NA,completion,46866.7,824540.5,824525.076,824541.6,871408.3,871409.69999981,2024-02-17T08:50:29Z,871425,NULL,Angreifer,mshambulizi,d,NA,NA,NA,NA,sdf,NA,2,NA,NA,NA,NA,NA,NA,NA,NA,NA,NA,NA,NA,NA,NA,NA,NA,NA,NA,NA
c83d1,Deep Question,html.Page,3_0_2_0_1_0_0,NA,NA,form submission,19682,871409.9000001,871408.3,871425,891107,891107.19999981,2024-02-17T08:50:48Z,891108.424,NULL,Sänger,mwimbaji,d,NA,NA,NA,kantari,NA,NA,2,NA,NA,NA,NA,NA,NA,NA,NA,NA,NA,NA,NA,NA,NA,NA,NA,NA,NA,NA
c83d1,"""Richtig""-Screen",canvas.Screen,3_0_2_0_1_0_1,NA,NA,skipped,NA,891108.9000001,NA,NA,891107,891109.0999999,2024-02-17T08:50:48Z,891108.424,NULL,Sänger,mwimbaji,d,NA,NA,NA,NA,sdf,NA,2,NA,NA,NA,NA,NA,NA,NA,NA,NA,NA,NA,NA,NA,NA,NA,NA,NA,NA,NA
c83d1,"""Falsch""-Screen",canvas.Screen,3_0_2_0_1_0_2,NA,NA,timeout,4999.876,891109.69999981,891108.424,891108.424,896091.6,896092.5,2024-02-17T08:50:53Z,896108.3,NULL,Sänger,mwimbaji,d,NA,NA,NA,NA,sdf,0,2,NA,NA,NA,NA,NA,NA,NA,NA,NA,NA,NA,NA,NA,NA,NA,NA,NA,NA,NA
c83d1,deep,flow.Sequence,3_0_2_0_1_0,NA,NA,completion,24666.6,871409.80000019,871408.3,871425,896091.6,896092.80000019,2024-02-17T08:50:53Z,896108.3,NULL,Sänger,mwimbaji,d,NA,NA,NA,NA,sdf,NA,2,NA,NA,NA,NA,NA,NA,NA,NA,NA,NA,NA,NA,NA,NA,NA,NA,NA,NA,NA
c83d1,shallow,flow.Sequence,3_0_2_0_1_1,NA,NA,skipped,NA,896092.9000001,NA,NA,896091.6,896093.0999999,2024-02-17T08:50:53Z,896108.3,NULL,Sänger,mwimbaji,d,NA,NA,NA,NA,sdf,NA,2,NA,NA,NA,NA,NA,NA,NA,NA,NA,NA,NA,NA,NA,NA,NA,NA,NA,NA,NA
c83d1,task,flow.Sequence,3_0_2_0_1,NA,NA,completion,24666.6,871409.80000019,871408.3,871425,896091.6,896093.30000019,2024-02-17T08:50:53Z,896108.3,NULL,Sänger,mwimbaji,d,NA,NA,NA,NA,sdf,NA,2,NA,NA,NA,NA,NA,NA,NA,NA,NA,NA,NA,NA,NA,NA,NA,NA,NA,NA,NA
c83d1,deep,flow.Sequence,3_0_2_0_2_0,NA,NA,skipped,NA,896093.4000001,NA,NA,896091.6,896093.5,2024-02-17T08:50:53Z,896108.3,NULL,Schönheit,kirembo,s,mahojiano,msisimko,jitihadi,NA,sdf,NA,2,NA,NA,NA,NA,NA,NA,NA,NA,NA,NA,NA,NA,NA,NA,NA,NA,NA,NA,NA
c83d1,Shallow Question,html.Page,3_0_2_0_2_1_0,NA,NA,form submission,9137.6000000953,896093.5999999,896091.6,896108.3,905245.9000001,905246.0999999,2024-02-17T08:51:02Z,905258.3,NULL,Schönheit,kirembo,s,mahojiano,msisimko,jitihadi,kirembo,NA,NA,2,NA,NA,NA,NA,NA,NA,NA,NA,NA,NA,NA,NA,NA,NA,NA,NA,NA,NA,NA
c83d1,"""Richtig""-Screen",canvas.Screen,3_0_2_0_2_1_1,NA,NA,timeout,4999.8999999999,905247.9000001,905241.776,905258.3,910241.5,910242.30000019,2024-02-17T08:51:07Z,910258.2,NULL,Schönheit,kirembo,s,mahojiano,msisimko,jitihadi,NA,sdf,1,2,NA,NA,NA,NA,NA,NA,NA,NA,NA,NA,NA,NA,NA,NA,NA,NA,NA,NA,NA
c83d1,"""Falsch""-Screen",canvas.Screen,3_0_2_0_2_1_2,NA,NA,skipped,NA,910246.5999999,NA,NA,910241.5,910246.80000019,2024-02-17T08:51:07Z,910258.2,NULL,Schönheit,kirembo,s,mahojiano,msisimko,jitihadi,NA,sdf,NA,2,NA,NA,NA,NA,NA,NA,NA,NA,NA,NA,NA,NA,NA,NA,NA,NA,NA,NA,NA
c83d1,shallow,flow.Sequence,3_0_2_0_2_1,NA,NA,completion,14133.2,896093.5,896091.6,896108.3,910241.5,910247.0999999,2024-02-17T08:51:07Z,910258.2,NULL,Schönheit,kirembo,s,mahojiano,msisimko,jitihadi,NA,sdf,NA,2,NA,NA,NA,NA,NA,NA,NA,NA,NA,NA,NA,NA,NA,NA,NA,NA,NA,NA,NA
c83d1,task,flow.Sequence,3_0_2_0_2,NA,NA,completion,14133.2,896093.4000001,896091.6,896108.3,910241.5,910247.19999981,2024-02-17T08:51:07Z,910258.2,NULL,Schönheit,kirembo,s,mahojiano,msisimko,jitihadi,NA,sdf,NA,2,NA,NA,NA,NA,NA,NA,NA,NA,NA,NA,NA,NA,NA,NA,NA,NA,NA,NA,NA
c83d1,Deep Question,html.Page,3_0_2_0_3_0_0,NA,NA,form submission,40833.499999809,910247.4000001,910241.5,910258.2,951091.69999981,951092,2024-02-17T08:51:48Z,951108.3,NULL,Wettbewerb,ushindani,d,NA,NA,NA,uaschizu,NA,NA,2,NA,NA,NA,NA,NA,NA,NA,NA,NA,NA,NA,NA,NA,NA,NA,NA,NA,NA,NA
c83d1,"""Richtig""-Screen",canvas.Screen,3_0_2_0_3_0_1,NA,NA,skipped,NA,951093.5999999,NA,NA,951091.69999981,951093.80000019,2024-02-17T08:51:48Z,951108.3,NULL,Wettbewerb,ushindani,d,NA,NA,NA,NA,sdf,NA,2,NA,NA,NA,NA,NA,NA,NA,NA,NA,NA,NA,NA,NA,NA,NA,NA,NA,NA,NA
c83d1,"""Falsch""-Screen",canvas.Screen,3_0_2_0_3_0_2,NA,NA,timeout,5000,951094.30000019,951091.696,951108.3,956091.6,956092.30000019,2024-02-17T08:51:53Z,956108.3,NULL,Wettbewerb,ushindani,d,NA,NA,NA,NA,sdf,0,2,NA,NA,NA,NA,NA,NA,NA,NA,NA,NA,NA,NA,NA,NA,NA,NA,NA,NA,NA
c83d1,deep,flow.Sequence,3_0_2_0_3_0,NA,NA,completion,45833.4,910247.4000001,910241.5,910258.2,956091.6,956092.5999999,2024-02-17T08:51:53Z,956108.3,NULL,Wettbewerb,ushindani,d,NA,NA,NA,NA,sdf,NA,2,NA,NA,NA,NA,NA,NA,NA,NA,NA,NA,NA,NA,NA,NA,NA,NA,NA,NA,NA
c83d1,shallow,flow.Sequence,3_0_2_0_3_1,NA,NA,skipped,NA,956092.80000019,NA,NA,956091.6,956092.9000001,2024-02-17T08:51:53Z,956108.3,NULL,Wettbewerb,ushindani,d,NA,NA,NA,NA,sdf,NA,2,NA,NA,NA,NA,NA,NA,NA,NA,NA,NA,NA,NA,NA,NA,NA,NA,NA,NA,NA
c83d1,task,flow.Sequence,3_0_2_0_3,NA,NA,completion,45833.4,910247.30000019,910241.5,910258.2,956091.6,956093,2024-02-17T08:51:53Z,956108.3,NULL,Wettbewerb,ushindani,d,NA,NA,NA,NA,sdf,NA,2,NA,NA,NA,NA,NA,NA,NA,NA,NA,NA,NA,NA,NA,NA,NA,NA,NA,NA,NA
c83d1,deep,flow.Sequence,3_0_2_0_4_0,NA,NA,skipped,NA,956093.0999999,NA,NA,956091.6,956093.30000019,2024-02-17T08:51:53Z,956108.3,NULL,Abrechnung,uhasibu,s,kusahihisha,mpambano,mashambulizi,NA,sdf,NA,2,NA,NA,NA,NA,NA,NA,NA,NA,NA,NA,NA,NA,NA,NA,NA,NA,NA,NA,NA
c83d1,Shallow Question,html.Page,3_0_2_0_4_1_0,NA,NA,form submission,8167.3999998092,956093.4000001,956091.6,956108.3,964275.69999981,964275.9000001,2024-02-17T08:52:02Z,964291.6,NULL,Abrechnung,uhasibu,s,kusahihisha,mpambano,mashambulizi,mashambulizi,NA,NA,2,NA,NA,NA,NA,NA,NA,NA,NA,NA,NA,NA,NA,NA,NA,NA,NA,NA,NA,NA
c83d1,"""Richtig""-Screen",canvas.Screen,3_0_2_0_4_1_1,NA,NA,skipped,NA,964277.69999981,NA,NA,964275.69999981,964277.80000019,2024-02-17T08:52:02Z,964291.6,NULL,Abrechnung,uhasibu,s,kusahihisha,mpambano,mashambulizi,NA,sdf,NA,2,NA,NA,NA,NA,NA,NA,NA,NA,NA,NA,NA,NA,NA,NA,NA,NA,NA,NA,NA
c83d1,"""Falsch""-Screen",canvas.Screen,3_0_2_0_4_1_2,NA,NA,timeout,5000,964278.30000019,964275.096,964291.6,969274.9,969275.69999981,2024-02-17T08:52:07Z,969291.6,NULL,Abrechnung,uhasibu,s,kusahihisha,mpambano,mashambulizi,NA,sdf,0,2,NA,NA,NA,NA,NA,NA,NA,NA,NA,NA,NA,NA,NA,NA,NA,NA,NA,NA,NA
c83d1,shallow,flow.Sequence,3_0_2_0_4_1,NA,NA,completion,13166.6,956093.30000019,956091.6,956108.3,969274.9,969276,2024-02-17T08:52:07Z,969291.6,NULL,Abrechnung,uhasibu,s,kusahihisha,mpambano,mashambulizi,NA,sdf,NA,2,NA,NA,NA,NA,NA,NA,NA,NA,NA,NA,NA,NA,NA,NA,NA,NA,NA,NA,NA
c83d1,task,flow.Sequence,3_0_2_0_4,NA,NA,completion,13166.6,956093.0999999,956091.6,956108.3,969274.9,969276.0999999,2024-02-17T08:52:07Z,969291.6,NULL,Abrechnung,uhasibu,s,kusahihisha,mpambano,mashambulizi,NA,sdf,NA,2,NA,NA,NA,NA,NA,NA,NA,NA,NA,NA,NA,NA,NA,NA,NA,NA,NA,NA,NA
c83d1,deep,flow.Sequence,3_0_2_0_5_0,NA,NA,skipped,NA,969276.19999981,NA,NA,969274.9,969276.4000001,2024-02-17T08:52:07Z,969291.6,NULL,Zufall,kikuti,s,kukosekana,uchoraji,leseni,NA,sdf,NA,2,NA,NA,NA,NA,NA,NA,NA,NA,NA,NA,NA,NA,NA,NA,NA,NA,NA,NA,NA
c83d1,Shallow Question,html.Page,3_0_2_0_5_1_0,NA,NA,form submission,4399.2000001908,969276.5,969274.9,969291.6,973690.80000019,973691,2024-02-17T08:52:11Z,973691.628,NULL,Zufall,kikuti,s,kukosekana,uchoraji,leseni,kikuti,NA,NA,2,NA,NA,NA,NA,NA,NA,NA,NA,NA,NA,NA,NA,NA,NA,NA,NA,NA,NA,NA
c83d1,"""Richtig""-Screen",canvas.Screen,3_0_2_0_5_1_1,NA,NA,timeout,4999.872,973692.80000019,973691.628,973691.628,978674.9,978675.80000019,2024-02-17T08:52:16Z,978691.5,NULL,Zufall,kikuti,s,kukosekana,uchoraji,leseni,NA,sdf,1,2,NA,NA,NA,NA,NA,NA,NA,NA,NA,NA,NA,NA,NA,NA,NA,NA,NA,NA,NA
c83d1,"""Falsch""-Screen",canvas.Screen,3_0_2_0_5_1_2,NA,NA,skipped,NA,978680,NA,NA,978674.9,978680.19999981,2024-02-17T08:52:16Z,978691.5,NULL,Zufall,kikuti,s,kukosekana,uchoraji,leseni,NA,sdf,NA,2,NA,NA,NA,NA,NA,NA,NA,NA,NA,NA,NA,NA,NA,NA,NA,NA,NA,NA,NA
c83d1,shallow,flow.Sequence,3_0_2_0_5_1,NA,NA,completion,9383.3,969276.4000001,969274.9,969291.6,978674.9,978680.4000001,2024-02-17T08:52:16Z,978691.5,NULL,Zufall,kikuti,s,kukosekana,uchoraji,leseni,NA,sdf,NA,2,NA,NA,NA,NA,NA,NA,NA,NA,NA,NA,NA,NA,NA,NA,NA,NA,NA,NA,NA
c83d1,task,flow.Sequence,3_0_2_0_5,NA,NA,completion,9383.3,969276.19999981,969274.9,969291.6,978674.9,978680.5999999,2024-02-17T08:52:16Z,978691.5,NULL,Zufall,kikuti,s,kukosekana,uchoraji,leseni,NA,sdf,NA,2,NA,NA,NA,NA,NA,NA,NA,NA,NA,NA,NA,NA,NA,NA,NA,NA,NA,NA,NA
c83d1,Deep Question,html.Page,3_0_2_0_6_0_0,NA,NA,form submission,36686.400000095004,978680.69999981,978674.9,978691.5,1015377.9000001,1015378.0999999,2024-02-17T08:52:53Z,1015391.6,NULL,Auftrag,uagizaji,d,NA,NA,NA,mbani,NA,NA,2,NA,NA,NA,NA,NA,NA,NA,NA,NA,NA,NA,NA,NA,NA,NA,NA,NA,NA,NA
c83d1,"""Richtig""-Screen",canvas.Screen,3_0_2_0_6_0_1,NA,NA,skipped,NA,1015379.8000002,NA,NA,1015377.9000001,1015379.9000001,2024-02-17T08:52:53Z,1015391.6,NULL,Auftrag,uagizaji,d,NA,NA,NA,NA,sdf,NA,2,NA,NA,NA,NA,NA,NA,NA,NA,NA,NA,NA,NA,NA,NA,NA,NA,NA,NA,NA
c83d1,"""Falsch""-Screen",canvas.Screen,3_0_2_0_6_0_2,NA,NA,timeout,4999.9,1015380.5999999,1015374.988,1015391.6,1020374.8,1020375.5,2024-02-17T08:52:58Z,1020391.5,NULL,Auftrag,uagizaji,d,NA,NA,NA,NA,sdf,0,2,NA,NA,NA,NA,NA,NA,NA,NA,NA,NA,NA,NA,NA,NA,NA,NA,NA,NA,NA
c83d1,deep,flow.Sequence,3_0_2_0_6_0,NA,NA,completion,41683.3,978680.5999999,978674.9,978691.5,1020374.8,1020375.9000001,2024-02-17T08:52:58Z,1020391.5,NULL,Auftrag,uagizaji,d,NA,NA,NA,NA,sdf,NA,2,NA,NA,NA,NA,NA,NA,NA,NA,NA,NA,NA,NA,NA,NA,NA,NA,NA,NA,NA
c83d1,shallow,flow.Sequence,3_0_2_0_6_1,NA,NA,skipped,NA,1020375.9000001,NA,NA,1020374.8,1020376,2024-02-17T08:52:58Z,1020391.5,NULL,Auftrag,uagizaji,d,NA,NA,NA,NA,sdf,NA,2,NA,NA,NA,NA,NA,NA,NA,NA,NA,NA,NA,NA,NA,NA,NA,NA,NA,NA,NA
c83d1,task,flow.Sequence,3_0_2_0_6,NA,NA,completion,41683.3,978680.5999999,978674.9,978691.5,1020374.8,1020376.0999999,2024-02-17T08:52:58Z,1020391.5,NULL,Auftrag,uagizaji,d,NA,NA,NA,NA,sdf,NA,2,NA,NA,NA,NA,NA,NA,NA,NA,NA,NA,NA,NA,NA,NA,NA,NA,NA,NA,NA
c83d1,deep,flow.Sequence,3_0_2_0_7_0,NA,NA,skipped,NA,1020376.3000002,NA,NA,1020374.8,1020376.4000001,2024-02-17T08:52:58Z,1020391.5,NULL,Kanzler,diwani,s,rasilmali,mahitaji,maabudu,NA,sdf,NA,2,NA,NA,NA,NA,NA,NA,NA,NA,NA,NA,NA,NA,NA,NA,NA,NA,NA,NA,NA
c83d1,Shallow Question,html.Page,3_0_2_0_7_1_0,NA,NA,form submission,5314.4000000954,1020376.5,1020374.8,1020391.5,1025705.9000001,1025706.0999999,2024-02-17T08:53:03Z,1025708.344,NULL,Kanzler,diwani,s,rasilmali,mahitaji,maabudu,diwani,NA,NA,2,NA,NA,NA,NA,NA,NA,NA,NA,NA,NA,NA,NA,NA,NA,NA,NA,NA,NA,NA
c83d1,"""Richtig""-Screen",canvas.Screen,3_0_2_0_7_1_1,NA,NA,timeout,4999.7559999999,1025707.8000002,1025708.344,1025708.344,1030691.5,1030692.3000002,2024-02-17T08:53:08Z,1030708.1,NULL,Kanzler,diwani,s,rasilmali,mahitaji,maabudu,NA,sdf,1,2,NA,NA,NA,NA,NA,NA,NA,NA,NA,NA,NA,NA,NA,NA,NA,NA,NA,NA,NA
c83d1,"""Falsch""-Screen",canvas.Screen,3_0_2_0_7_1_2,NA,NA,skipped,NA,1030696.3000002,NA,NA,1030691.5,1030696.5,2024-02-17T08:53:08Z,1030708.1,NULL,Kanzler,diwani,s,rasilmali,mahitaji,maabudu,NA,sdf,NA,2,NA,NA,NA,NA,NA,NA,NA,NA,NA,NA,NA,NA,NA,NA,NA,NA,NA,NA,NA
c83d1,shallow,flow.Sequence,3_0_2_0_7_1,NA,NA,completion,10300,1020376.5,1020374.8,1020391.5,1030691.5,1030696.6999998,2024-02-17T08:53:08Z,1030708.1,NULL,Kanzler,diwani,s,rasilmali,mahitaji,maabudu,NA,sdf,NA,2,NA,NA,NA,NA,NA,NA,NA,NA,NA,NA,NA,NA,NA,NA,NA,NA,NA,NA,NA
c83d1,task,flow.Sequence,3_0_2_0_7,NA,NA,completion,10300,1020376.3000002,1020374.8,1020391.5,1030691.5,1030696.9000001,2024-02-17T08:53:08Z,1030708.1,NULL,Kanzler,diwani,s,rasilmali,mahitaji,maabudu,NA,sdf,NA,2,NA,NA,NA,NA,NA,NA,NA,NA,NA,NA,NA,NA,NA,NA,NA,NA,NA,NA,NA
c83d1,block,flow.Loop,3_0_2_0,NA,NA,completion,206149.9,824540.5,824525.076,824541.6,1030691.5,1030697.0999999,2024-02-17T08:53:08Z,1030708.1,NULL,NA,NA,NA,NA,NA,NA,NA,sdf,NA,2,NA,NA,NA,NA,NA,NA,NA,NA,NA,NA,NA,NA,NA,NA,NA,NA,NA,NA,NA
c83d1,weiter,canvas.Screen,3_0_2_1,sdf,keypress(Space),response,1434.7000001908,1030697.1999998,1030691.5,1030708.1,1032142.8000002,1032143.6999998,2024-02-17T08:53:09Z,1032191.5,NULL,NA,NA,NA,NA,NA,NA,NA,sdf,NA,2,NA,NA,NA,NA,NA,NA,NA,NA,NA,NA,NA,NA,NA,NA,NA,NA,NA,NA,NA
c83d1,check continue,flow.Sequence,3_0_2,NA,NA,completion,207601.20000019,824540.5,824525.076,824541.6,1032142.8000002,1032143.9000001,2024-02-17T08:53:09Z,1032191.5,NULL,NA,NA,NA,NA,NA,NA,NA,sdf,NA,2,NA,NA,NA,NA,NA,NA,NA,NA,NA,NA,NA,NA,NA,NA,NA,NA,NA,NA,NA
c83d1,Deep Question,html.Page,3_0_3_0_0_0_0,NA,NA,form submission,19649.199999809,1032203,1032191.374,1032191.5,1051840.6999998,1051841,2024-02-17T08:53:29Z,1051841.68,NULL,Sänger,mwimbaji,d,NA,NA,NA,kikuti,NA,NA,3,NA,NA,NA,NA,NA,NA,NA,NA,NA,NA,NA,NA,NA,NA,NA,NA,NA,NA,NA
c83d1,"""Richtig""-Screen",canvas.Screen,3_0_3_0_0_0_1,NA,NA,skipped,NA,1051843,NA,NA,1051840.6999998,1051843.1999998,2024-02-17T08:53:29Z,1051841.68,NULL,Sänger,mwimbaji,d,NA,NA,NA,NA,qt,NA,3,NA,NA,NA,NA,NA,NA,NA,NA,NA,NA,NA,NA,NA,NA,NA,NA,NA,NA,NA
c83d1,"""Falsch""-Screen",canvas.Screen,3_0_3_0_0_0_2,NA,NA,timeout,4999.72,1051844,1051841.68,1051841.68,1056824.9,1056825.5,2024-02-17T08:53:34Z,1056841.4,NULL,Sänger,mwimbaji,d,NA,NA,NA,NA,qt,0,3,NA,NA,NA,NA,NA,NA,NA,NA,NA,NA,NA,NA,NA,NA,NA,NA,NA,NA,NA
c83d1,deep,flow.Sequence,3_0_3_0_0_0,NA,NA,completion,24633.4,1032203,1032191.374,1032191.5,1056824.9,1056825.9000001,2024-02-17T08:53:34Z,1056841.4,NULL,Sänger,mwimbaji,d,NA,NA,NA,NA,qt,NA,3,NA,NA,NA,NA,NA,NA,NA,NA,NA,NA,NA,NA,NA,NA,NA,NA,NA,NA,NA
c83d1,shallow,flow.Sequence,3_0_3_0_0_1,NA,NA,skipped,NA,1056825.9000001,NA,NA,1056824.9,1056826.0999999,2024-02-17T08:53:34Z,1056841.4,NULL,Sänger,mwimbaji,d,NA,NA,NA,NA,qt,NA,3,NA,NA,NA,NA,NA,NA,NA,NA,NA,NA,NA,NA,NA,NA,NA,NA,NA,NA,NA
c83d1,task,flow.Sequence,3_0_3_0_0,NA,NA,completion,24633.4,1032203,1032191.374,1032191.5,1056824.9,1056826.1999998,2024-02-17T08:53:34Z,1056841.4,NULL,Sänger,mwimbaji,d,NA,NA,NA,NA,qt,NA,3,NA,NA,NA,NA,NA,NA,NA,NA,NA,NA,NA,NA,NA,NA,NA,NA,NA,NA,NA
c83d1,Deep Question,html.Page,3_0_3_0_1_0_0,NA,NA,form submission,22545.199999905,1056826.4000001,1056824.9,1056841.4,1079386.5999999,1079386.8000002,2024-02-17T08:53:57Z,1079391.4,NULL,Auftrag,uagizaji,d,NA,NA,NA,kusapi,NA,NA,3,NA,NA,NA,NA,NA,NA,NA,NA,NA,NA,NA,NA,NA,NA,NA,NA,NA,NA,NA
c83d1,"""Richtig""-Screen",canvas.Screen,3_0_3_0_1_0_1,NA,NA,skipped,NA,1079388.5,NA,NA,1079386.5999999,1079388.6999998,2024-02-17T08:53:57Z,1079391.4,NULL,Auftrag,uagizaji,d,NA,NA,NA,NA,qt,NA,3,NA,NA,NA,NA,NA,NA,NA,NA,NA,NA,NA,NA,NA,NA,NA,NA,NA,NA,NA
c83d1,"""Falsch""-Screen",canvas.Screen,3_0_3_0_1_0_2,NA,NA,timeout,5000.1000000001,1079389.0999999,1079374.956,1079391.4,1084374.9,1084375.5999999,2024-02-17T08:54:02Z,1084391.5,NULL,Auftrag,uagizaji,d,NA,NA,NA,NA,qt,0,3,NA,NA,NA,NA,NA,NA,NA,NA,NA,NA,NA,NA,NA,NA,NA,NA,NA,NA,NA
c83d1,deep,flow.Sequence,3_0_3_0_1_0,NA,NA,completion,27533.5,1056826.3000002,1056824.9,1056841.4,1084374.9,1084375.9000001,2024-02-17T08:54:02Z,1084391.5,NULL,Auftrag,uagizaji,d,NA,NA,NA,NA,qt,NA,3,NA,NA,NA,NA,NA,NA,NA,NA,NA,NA,NA,NA,NA,NA,NA,NA,NA,NA,NA
c83d1,shallow,flow.Sequence,3_0_3_0_1_1,NA,NA,skipped,NA,1084376,NA,NA,1084374.9,1084376,2024-02-17T08:54:02Z,1084391.5,NULL,Auftrag,uagizaji,d,NA,NA,NA,NA,qt,NA,3,NA,NA,NA,NA,NA,NA,NA,NA,NA,NA,NA,NA,NA,NA,NA,NA,NA,NA,NA
c83d1,task,flow.Sequence,3_0_3_0_1,NA,NA,completion,27533.5,1056826.3000002,1056824.9,1056841.4,1084374.9,1084376.1999998,2024-02-17T08:54:02Z,1084391.5,NULL,Auftrag,uagizaji,d,NA,NA,NA,NA,qt,NA,3,NA,NA,NA,NA,NA,NA,NA,NA,NA,NA,NA,NA,NA,NA,NA,NA,NA,NA,NA
c83d1,deep,flow.Sequence,3_0_3_0_2_0,NA,NA,skipped,NA,1084376.3000002,NA,NA,1084374.9,1084376.3000002,2024-02-17T08:54:02Z,1084391.5,NULL,Schönheit,kirembo,s,mahojiano,msisimko,jitihadi,NA,qt,NA,3,NA,NA,NA,NA,NA,NA,NA,NA,NA,NA,NA,NA,NA,NA,NA,NA,NA,NA,NA
c83d1,Shallow Question,html.Page,3_0_3_0_2_1_0,NA,NA,form submission,5971.3000001907,1084376.5,1084374.9,1084391.5,1090362.8000002,1090363,2024-02-17T08:54:08Z,1090374.7,NULL,Schönheit,kirembo,s,mahojiano,msisimko,jitihadi,kirembo,NA,NA,3,NA,NA,NA,NA,NA,NA,NA,NA,NA,NA,NA,NA,NA,NA,NA,NA,NA,NA,NA
c83d1,"""Richtig""-Screen",canvas.Screen,3_0_3_0_2_1_1,NA,NA,timeout,5000.2,1090364.6999998,1090358.234,1090374.7,1095358,1095359.0999999,2024-02-17T08:54:13Z,1095374.9,NULL,Schönheit,kirembo,s,mahojiano,msisimko,jitihadi,NA,qt,1,3,NA,NA,NA,NA,NA,NA,NA,NA,NA,NA,NA,NA,NA,NA,NA,NA,NA,NA,NA
c83d1,"""Falsch""-Screen",canvas.Screen,3_0_3_0_2_1_2,NA,NA,skipped,NA,1095363,NA,NA,1095358,1095363.1999998,2024-02-17T08:54:13Z,1095374.9,NULL,Schönheit,kirembo,s,mahojiano,msisimko,jitihadi,NA,qt,NA,3,NA,NA,NA,NA,NA,NA,NA,NA,NA,NA,NA,NA,NA,NA,NA,NA,NA,NA,NA
c83d1,shallow,flow.Sequence,3_0_3_0_2_1,NA,NA,completion,10966.5,1084376.4000001,1084374.9,1084391.5,1095358,1095363.4000001,2024-02-17T08:54:13Z,1095374.9,NULL,Schönheit,kirembo,s,mahojiano,msisimko,jitihadi,NA,qt,NA,3,NA,NA,NA,NA,NA,NA,NA,NA,NA,NA,NA,NA,NA,NA,NA,NA,NA,NA,NA
c83d1,task,flow.Sequence,3_0_3_0_2,NA,NA,completion,10966.5,1084376.3000002,1084374.9,1084391.5,1095358,1095363.5,2024-02-17T08:54:13Z,1095374.9,NULL,Schönheit,kirembo,s,mahojiano,msisimko,jitihadi,NA,qt,NA,3,NA,NA,NA,NA,NA,NA,NA,NA,NA,NA,NA,NA,NA,NA,NA,NA,NA,NA,NA
c83d1,deep,flow.Sequence,3_0_3_0_3_0,NA,NA,skipped,NA,1095363.6999998,NA,NA,1095358,1095363.8000002,2024-02-17T08:54:13Z,1095374.9,NULL,Kanzler,diwani,s,rasilmali,mahitaji,maabudu,NA,qt,NA,3,NA,NA,NA,NA,NA,NA,NA,NA,NA,NA,NA,NA,NA,NA,NA,NA,NA,NA,NA
c83d1,Shallow Question,html.Page,3_0_3_0_3_1_0,NA,NA,form submission,9900.6000000001,1095363.9000001,1095358,1095374.9,1105275.5,1105275.8000002,2024-02-17T08:54:23Z,1105308.2,NULL,Kanzler,diwani,s,rasilmali,mahitaji,maabudu,diwani,NA,NA,3,NA,NA,NA,NA,NA,NA,NA,NA,NA,NA,NA,NA,NA,NA,NA,NA,NA,NA,NA
c83d1,"""Richtig""-Screen",canvas.Screen,3_0_3_0_3_1_1,NA,NA,timeout,4999.9000000001,1105277.5,1105291.6,1105308.2,1110291.5,1110292.3000002,2024-02-17T08:54:28Z,1110308.1,NULL,Kanzler,diwani,s,rasilmali,mahitaji,maabudu,NA,qt,1,3,NA,NA,NA,NA,NA,NA,NA,NA,NA,NA,NA,NA,NA,NA,NA,NA,NA,NA,NA
c83d1,"""Falsch""-Screen",canvas.Screen,3_0_3_0_3_1_2,NA,NA,skipped,NA,1110296.4000001,NA,NA,1110291.5,1110296.5999999,2024-02-17T08:54:28Z,1110308.1,NULL,Kanzler,diwani,s,rasilmali,mahitaji,maabudu,NA,qt,NA,3,NA,NA,NA,NA,NA,NA,NA,NA,NA,NA,NA,NA,NA,NA,NA,NA,NA,NA,NA
c83d1,shallow,flow.Sequence,3_0_3_0_3_1,NA,NA,completion,14916.6,1095363.8000002,1095358,1095374.9,1110291.5,1110296.8000002,2024-02-17T08:54:28Z,1110308.1,NULL,Kanzler,diwani,s,rasilmali,mahitaji,maabudu,NA,qt,NA,3,NA,NA,NA,NA,NA,NA,NA,NA,NA,NA,NA,NA,NA,NA,NA,NA,NA,NA,NA
c83d1,task,flow.Sequence,3_0_3_0_3,NA,NA,completion,14916.6,1095363.6999998,1095358,1095374.9,1110291.5,1110297,2024-02-17T08:54:28Z,1110308.1,NULL,Kanzler,diwani,s,rasilmali,mahitaji,maabudu,NA,qt,NA,3,NA,NA,NA,NA,NA,NA,NA,NA,NA,NA,NA,NA,NA,NA,NA,NA,NA,NA,NA
c83d1,deep,flow.Sequence,3_0_3_0_4_0,NA,NA,skipped,NA,1110297.0999999,NA,NA,1110291.5,1110297.1999998,2024-02-17T08:54:28Z,1110308.1,NULL,Abrechnung,uhasibu,s,kusahihisha,mpambano,mashambulizi,NA,qt,NA,3,NA,NA,NA,NA,NA,NA,NA,NA,NA,NA,NA,NA,NA,NA,NA,NA,NA,NA,NA
c83d1,Shallow Question,html.Page,3_0_3_0_4_1_0,NA,NA,form submission,7572.4999999045,1110297.4000001,1110291.5,1110308.1,1117880.5999999,1117880.8000002,2024-02-17T08:54:35Z,1117891.4,NULL,Abrechnung,uhasibu,s,kusahihisha,mpambano,mashambulizi,uhasibu,NA,NA,3,NA,NA,NA,NA,NA,NA,NA,NA,NA,NA,NA,NA,NA,NA,NA,NA,NA,NA,NA
c83d1,"""Richtig""-Screen",canvas.Screen,3_0_3_0_4_1_1,NA,NA,timeout,5000.1000000001,1117882.5999999,1117874.962,1117891.4,1122874.8,1122875.5999999,2024-02-17T08:54:40Z,1122891.5,NULL,Abrechnung,uhasibu,s,kusahihisha,mpambano,mashambulizi,NA,qt,1,3,NA,NA,NA,NA,NA,NA,NA,NA,NA,NA,NA,NA,NA,NA,NA,NA,NA,NA,NA
c83d1,"""Falsch""-Screen",canvas.Screen,3_0_3_0_4_1_2,NA,NA,skipped,NA,1122879.8000002,NA,NA,1122874.8,1122880,2024-02-17T08:54:40Z,1122891.5,NULL,Abrechnung,uhasibu,s,kusahihisha,mpambano,mashambulizi,NA,qt,NA,3,NA,NA,NA,NA,NA,NA,NA,NA,NA,NA,NA,NA,NA,NA,NA,NA,NA,NA,NA
c83d1,shallow,flow.Sequence,3_0_3_0_4_1,NA,NA,completion,12566.7,1110297.3000002,1110291.5,1110308.1,1122874.8,1122880.1999998,2024-02-17T08:54:40Z,1122891.5,NULL,Abrechnung,uhasibu,s,kusahihisha,mpambano,mashambulizi,NA,qt,NA,3,NA,NA,NA,NA,NA,NA,NA,NA,NA,NA,NA,NA,NA,NA,NA,NA,NA,NA,NA
c83d1,task,flow.Sequence,3_0_3_0_4,NA,NA,completion,12566.7,1110297.0999999,1110291.5,1110308.1,1122874.8,1122880.3000002,2024-02-17T08:54:40Z,1122891.5,NULL,Abrechnung,uhasibu,s,kusahihisha,mpambano,mashambulizi,NA,qt,NA,3,NA,NA,NA,NA,NA,NA,NA,NA,NA,NA,NA,NA,NA,NA,NA,NA,NA,NA,NA
c83d1,deep,flow.Sequence,3_0_3_0_5_0,NA,NA,skipped,NA,1122880.5,NA,NA,1122874.8,1122880.5999999,2024-02-17T08:54:40Z,1122891.5,NULL,Zufall,kikuti,s,kukosekana,uchoraji,leseni,NA,qt,NA,3,NA,NA,NA,NA,NA,NA,NA,NA,NA,NA,NA,NA,NA,NA,NA,NA,NA,NA,NA
c83d1,Shallow Question,html.Page,3_0_3_0_5_1_0,NA,NA,form submission,7845.0999999046,1122880.6999998,1122874.8,1122891.5,1130736.5999999,1130736.8000002,2024-02-17T08:54:48Z,1130741.4,NULL,Zufall,kikuti,s,kukosekana,uchoraji,leseni,kikuti,NA,NA,3,NA,NA,NA,NA,NA,NA,NA,NA,NA,NA,NA,NA,NA,NA,NA,NA,NA,NA,NA
c83d1,"""Richtig""-Screen",canvas.Screen,3_0_3_0_5_1_1,NA,NA,timeout,5000.1000000001,1130738.6999998,1130727.728,1130741.4,1135724.9,1135725.9000001,2024-02-17T08:54:53Z,1135741.5,NULL,Zufall,kikuti,s,kukosekana,uchoraji,leseni,NA,qt,1,3,NA,NA,NA,NA,NA,NA,NA,NA,NA,NA,NA,NA,NA,NA,NA,NA,NA,NA,NA
c83d1,"""Falsch""-Screen",canvas.Screen,3_0_3_0_5_1_2,NA,NA,skipped,NA,1135729.8000002,NA,NA,1135724.9,1135730,2024-02-17T08:54:53Z,1135741.5,NULL,Zufall,kikuti,s,kukosekana,uchoraji,leseni,NA,qt,NA,3,NA,NA,NA,NA,NA,NA,NA,NA,NA,NA,NA,NA,NA,NA,NA,NA,NA,NA,NA
c83d1,shallow,flow.Sequence,3_0_3_0_5_1,NA,NA,completion,12833.4,1122880.5999999,1122874.8,1122891.5,1135724.9,1135730.1999998,2024-02-17T08:54:53Z,1135741.5,NULL,Zufall,kikuti,s,kukosekana,uchoraji,leseni,NA,qt,NA,3,NA,NA,NA,NA,NA,NA,NA,NA,NA,NA,NA,NA,NA,NA,NA,NA,NA,NA,NA
c83d1,task,flow.Sequence,3_0_3_0_5,NA,NA,completion,12833.4,1122880.5,1122874.8,1122891.5,1135724.9,1135730.4000001,2024-02-17T08:54:53Z,1135741.5,NULL,Zufall,kikuti,s,kukosekana,uchoraji,leseni,NA,qt,NA,3,NA,NA,NA,NA,NA,NA,NA,NA,NA,NA,NA,NA,NA,NA,NA,NA,NA,NA,NA
c83d1,Deep Question,html.Page,3_0_3_0_6_0_0,NA,NA,form submission,40853,1135730.5,1135724.9,1135741.5,1176594.5,1176594.6999998,2024-02-17T08:55:34Z,1176608.1,NULL,Angreifer,mshambulizi,d,NA,NA,NA,leseni,NA,NA,3,NA,NA,NA,NA,NA,NA,NA,NA,NA,NA,NA,NA,NA,NA,NA,NA,NA,NA,NA
c83d1,"""Richtig""-Screen",canvas.Screen,3_0_3_0_6_0_1,NA,NA,skipped,NA,1176596.3000002,NA,NA,1176594.5,1176596.4000001,2024-02-17T08:55:34Z,1176608.1,NULL,Angreifer,mshambulizi,d,NA,NA,NA,NA,qt,NA,3,NA,NA,NA,NA,NA,NA,NA,NA,NA,NA,NA,NA,NA,NA,NA,NA,NA,NA,NA
c83d1,"""Falsch""-Screen",canvas.Screen,3_0_3_0_6_0_2,NA,NA,timeout,4999.8999999999,1176597,1176591.524,1176608.1,1181591.5,1181592.1999998,2024-02-17T08:55:39Z,1181608,NULL,Angreifer,mshambulizi,d,NA,NA,NA,NA,qt,0,3,NA,NA,NA,NA,NA,NA,NA,NA,NA,NA,NA,NA,NA,NA,NA,NA,NA,NA,NA
c83d1,deep,flow.Sequence,3_0_3_0_6_0,NA,NA,completion,45850,1135730.5,1135724.9,1135741.5,1181591.5,1181592.5,2024-02-17T08:55:39Z,1181608,NULL,Angreifer,mshambulizi,d,NA,NA,NA,NA,qt,NA,3,NA,NA,NA,NA,NA,NA,NA,NA,NA,NA,NA,NA,NA,NA,NA,NA,NA,NA,NA
c83d1,shallow,flow.Sequence,3_0_3_0_6_1,NA,NA,skipped,NA,1181592.5999999,NA,NA,1181591.5,1181592.6999998,2024-02-17T08:55:39Z,1181608,NULL,Angreifer,mshambulizi,d,NA,NA,NA,NA,qt,NA,3,NA,NA,NA,NA,NA,NA,NA,NA,NA,NA,NA,NA,NA,NA,NA,NA,NA,NA,NA
c83d1,task,flow.Sequence,3_0_3_0_6,NA,NA,completion,45850,1135730.5,1135724.9,1135741.5,1181591.5,1181592.9000001,2024-02-17T08:55:39Z,1181608,NULL,Angreifer,mshambulizi,d,NA,NA,NA,NA,qt,NA,3,NA,NA,NA,NA,NA,NA,NA,NA,NA,NA,NA,NA,NA,NA,NA,NA,NA,NA,NA
c83d1,Deep Question,html.Page,3_0_3_0_7_0_0,NA,NA,form submission,36947.300000191,1181593.0999999,1181591.5,1181608,1218555.3000002,1218555.5999999,2024-02-17T08:56:16Z,1218574.8,NULL,Wettbewerb,ushindani,d,NA,NA,NA,juwiki,NA,NA,3,NA,NA,NA,NA,NA,NA,NA,NA,NA,NA,NA,NA,NA,NA,NA,NA,NA,NA,NA
c83d1,"""Richtig""-Screen",canvas.Screen,3_0_3_0_7_0_1,NA,NA,skipped,NA,1218557.4000001,NA,NA,1218555.3000002,1218557.5999999,2024-02-17T08:56:16Z,1218574.8,NULL,Wettbewerb,ushindani,d,NA,NA,NA,NA,qt,NA,3,NA,NA,NA,NA,NA,NA,NA,NA,NA,NA,NA,NA,NA,NA,NA,NA,NA,NA,NA
c83d1,"""Falsch""-Screen",canvas.Screen,3_0_3_0_7_0_2,NA,NA,timeout,4999.8999999999,1218558.1999998,1218559.106,1218574.8,1223558,1223558.9000001,2024-02-17T08:56:21Z,1223574.7,NULL,Wettbewerb,ushindani,d,NA,NA,NA,NA,qt,0,3,NA,NA,NA,NA,NA,NA,NA,NA,NA,NA,NA,NA,NA,NA,NA,NA,NA,NA,NA
c83d1,deep,flow.Sequence,3_0_3_0_7_0,NA,NA,completion,41950,1181593,1181591.5,1181608,1223558,1223559.0999999,2024-02-17T08:56:21Z,1223574.7,NULL,Wettbewerb,ushindani,d,NA,NA,NA,NA,qt,NA,3,NA,NA,NA,NA,NA,NA,NA,NA,NA,NA,NA,NA,NA,NA,NA,NA,NA,NA,NA
c83d1,shallow,flow.Sequence,3_0_3_0_7_1,NA,NA,skipped,NA,1223559.3000002,NA,NA,1223558,1223559.4000001,2024-02-17T08:56:21Z,1223574.7,NULL,Wettbewerb,ushindani,d,NA,NA,NA,NA,qt,NA,3,NA,NA,NA,NA,NA,NA,NA,NA,NA,NA,NA,NA,NA,NA,NA,NA,NA,NA,NA
c83d1,task,flow.Sequence,3_0_3_0_7,NA,NA,completion,41950,1181593,1181591.5,1181608,1223558,1223559.5,2024-02-17T08:56:21Z,1223574.7,NULL,Wettbewerb,ushindani,d,NA,NA,NA,NA,qt,NA,3,NA,NA,NA,NA,NA,NA,NA,NA,NA,NA,NA,NA,NA,NA,NA,NA,NA,NA,NA
c83d1,block,flow.Loop,3_0_3_0,NA,NA,completion,191366.5,1032203,1032191.374,1032191.5,1223558,1223559.6999998,2024-02-17T08:56:21Z,1223574.7,NULL,NA,NA,NA,NA,NA,NA,NA,qt,NA,3,NA,NA,NA,NA,NA,NA,NA,NA,NA,NA,NA,NA,NA,NA,NA,NA,NA,NA,NA
c83d1,weiter,canvas.Screen,3_0_3_1,sdf,keypress(Space),response,1154.4999998093,1223559.8000002,1223558,1223574.7,1224729.1999998,1224730.1999998,2024-02-17T08:56:22Z,1224758,NULL,NA,NA,NA,NA,NA,NA,NA,qt,NA,3,NA,NA,NA,NA,NA,NA,NA,NA,NA,NA,NA,NA,NA,NA,NA,NA,NA,NA,NA
c83d1,check continue,flow.Sequence,3_0_3,NA,NA,completion,192537.69999981,1032202.9000001,1032191.374,1032191.5,1224729.1999998,1224730.4000001,2024-02-17T08:56:22Z,1224758,NULL,NA,NA,NA,NA,NA,NA,NA,qt,NA,3,NA,NA,NA,NA,NA,NA,NA,NA,NA,NA,NA,NA,NA,NA,NA,NA,NA,NA,NA
c83d1,deep,flow.Sequence,3_0_4_0_0_0,NA,NA,skipped,NA,1224769.8000002,NA,NA,1224729.1999998,1224770,2024-02-17T08:56:22Z,1224758,NULL,Schönheit,kirembo,s,mahojiano,msisimko,jitihadi,NA,sd,NA,4,NA,NA,NA,NA,NA,NA,NA,NA,NA,NA,NA,NA,NA,NA,NA,NA,NA,NA,NA
c83d1,Shallow Question,html.Page,3_0_4_0_0_1_0,NA,NA,form submission,5865.4000000954,1224770.0999999,1224757.986,1224758,1230623.4000001,1230623.5999999,2024-02-17T08:56:28Z,1230624.996,NULL,Schönheit,kirembo,s,mahojiano,msisimko,jitihadi,kirembo,NA,NA,4,NA,NA,NA,NA,NA,NA,NA,NA,NA,NA,NA,NA,NA,NA,NA,NA,NA,NA,NA
c83d1,"""Richtig""-Screen",canvas.Screen,3_0_4_0_0_1_1,NA,NA,timeout,4999.7039999999,1230625.3000002,1230624.996,1230624.996,1235608.1,1235608.6999998,2024-02-17T08:56:33Z,1235624.7,NULL,Schönheit,kirembo,s,mahojiano,msisimko,jitihadi,NA,sd,1,4,NA,NA,NA,NA,NA,NA,NA,NA,NA,NA,NA,NA,NA,NA,NA,NA,NA,NA,NA
c83d1,"""Falsch""-Screen",canvas.Screen,3_0_4_0_0_1_2,NA,NA,skipped,NA,1235612.5999999,NA,NA,1235608.1,1235612.9000001,2024-02-17T08:56:33Z,1235624.7,NULL,Schönheit,kirembo,s,mahojiano,msisimko,jitihadi,NA,sd,NA,4,NA,NA,NA,NA,NA,NA,NA,NA,NA,NA,NA,NA,NA,NA,NA,NA,NA,NA,NA
c83d1,shallow,flow.Sequence,3_0_4_0_0_1,NA,NA,completion,10850.1,1224770.0999999,1224757.986,1224758,1235608.1,1235613.0999999,2024-02-17T08:56:33Z,1235624.7,NULL,Schönheit,kirembo,s,mahojiano,msisimko,jitihadi,NA,sd,NA,4,NA,NA,NA,NA,NA,NA,NA,NA,NA,NA,NA,NA,NA,NA,NA,NA,NA,NA,NA
c83d1,task,flow.Sequence,3_0_4_0_0,NA,NA,completion,10850.1,1224769.6999998,1224757.986,1224758,1235608.1,1235613.1999998,2024-02-17T08:56:33Z,1235624.7,NULL,Schönheit,kirembo,s,mahojiano,msisimko,jitihadi,NA,sd,NA,4,NA,NA,NA,NA,NA,NA,NA,NA,NA,NA,NA,NA,NA,NA,NA,NA,NA,NA,NA
c83d1,deep,flow.Sequence,3_0_4_0_1_0,NA,NA,skipped,NA,1235613.4000001,NA,NA,1235608.1,1235613.5,2024-02-17T08:56:33Z,1235624.7,NULL,Zufall,kikuti,s,kukosekana,uchoraji,leseni,NA,sd,NA,4,NA,NA,NA,NA,NA,NA,NA,NA,NA,NA,NA,NA,NA,NA,NA,NA,NA,NA,NA
c83d1,Shallow Question,html.Page,3_0_4_0_1_1_0,NA,NA,form submission,5508.8,1235613.5999999,1235608.1,1235624.7,1241133.5,1241133.6999998,2024-02-17T08:56:38Z,1241141.3,NULL,Zufall,kikuti,s,kukosekana,uchoraji,leseni,kikuti,NA,NA,4,NA,NA,NA,NA,NA,NA,NA,NA,NA,NA,NA,NA,NA,NA,NA,NA,NA,NA,NA
c83d1,"""Richtig""-Screen",canvas.Screen,3_0_4_0_1_1_1,NA,NA,timeout,5000.0999999999,1241135.3000002,1241124.802,1241141.3,1246124.7,1246125.5,2024-02-17T08:56:43Z,1246141.4,NULL,Zufall,kikuti,s,kukosekana,uchoraji,leseni,NA,sd,1,4,NA,NA,NA,NA,NA,NA,NA,NA,NA,NA,NA,NA,NA,NA,NA,NA,NA,NA,NA
c83d1,"""Falsch""-Screen",canvas.Screen,3_0_4_0_1_1_2,NA,NA,skipped,NA,1246129.5,NA,NA,1246124.7,1246129.6999998,2024-02-17T08:56:43Z,1246141.4,NULL,Zufall,kikuti,s,kukosekana,uchoraji,leseni,NA,sd,NA,4,NA,NA,NA,NA,NA,NA,NA,NA,NA,NA,NA,NA,NA,NA,NA,NA,NA,NA,NA
c83d1,shallow,flow.Sequence,3_0_4_0_1_1,NA,NA,completion,10500,1235613.5,1235608.1,1235624.7,1246124.7,1246130,2024-02-17T08:56:43Z,1246141.4,NULL,Zufall,kikuti,s,kukosekana,uchoraji,leseni,NA,sd,NA,4,NA,NA,NA,NA,NA,NA,NA,NA,NA,NA,NA,NA,NA,NA,NA,NA,NA,NA,NA
c83d1,task,flow.Sequence,3_0_4_0_1,NA,NA,completion,10500,1235613.4000001,1235608.1,1235624.7,1246124.7,1246130.0999999,2024-02-17T08:56:43Z,1246141.4,NULL,Zufall,kikuti,s,kukosekana,uchoraji,leseni,NA,sd,NA,4,NA,NA,NA,NA,NA,NA,NA,NA,NA,NA,NA,NA,NA,NA,NA,NA,NA,NA,NA
c83d1,Deep Question,html.Page,3_0_4_0_2_0_0,NA,NA,form submission,39217.000000095,1246130.3000002,1246124.7,1246141.4,1285358.4000001,1285358.5999999,2024-02-17T08:57:23Z,1285374.9,NULL,Sänger,mwimbaji,d,NA,NA,NA,schambulizi,NA,NA,4,NA,NA,NA,NA,NA,NA,NA,NA,NA,NA,NA,NA,NA,NA,NA,NA,NA,NA,NA
c83d1,"""Richtig""-Screen",canvas.Screen,3_0_4_0_2_0_1,NA,NA,skipped,NA,1285360.3000002,NA,NA,1285358.4000001,1285360.4000001,2024-02-17T08:57:23Z,1285374.9,NULL,Sänger,mwimbaji,d,NA,NA,NA,NA,sd,NA,4,NA,NA,NA,NA,NA,NA,NA,NA,NA,NA,NA,NA,NA,NA,NA,NA,NA,NA,NA
c83d1,"""Falsch""-Screen",canvas.Screen,3_0_4_0_2_0_2,NA,NA,timeout,4999.9000000001,1285360.9000001,1285358.06,1285374.9,1290358,1290358.6999998,2024-02-17T08:57:28Z,1290374.8,NULL,Sänger,mwimbaji,d,NA,NA,NA,NA,sd,0,4,NA,NA,NA,NA,NA,NA,NA,NA,NA,NA,NA,NA,NA,NA,NA,NA,NA,NA,NA
c83d1,deep,flow.Sequence,3_0_4_0_2_0,NA,NA,completion,44216.6,1246130.1999998,1246124.7,1246141.4,1290358,1290359,2024-02-17T08:57:28Z,1290374.8,NULL,Sänger,mwimbaji,d,NA,NA,NA,NA,sd,NA,4,NA,NA,NA,NA,NA,NA,NA,NA,NA,NA,NA,NA,NA,NA,NA,NA,NA,NA,NA
c83d1,shallow,flow.Sequence,3_0_4_0_2_1,NA,NA,skipped,NA,1290359.1999998,NA,NA,1290358,1290359.3000002,2024-02-17T08:57:28Z,1290374.8,NULL,Sänger,mwimbaji,d,NA,NA,NA,NA,sd,NA,4,NA,NA,NA,NA,NA,NA,NA,NA,NA,NA,NA,NA,NA,NA,NA,NA,NA,NA,NA
c83d1,task,flow.Sequence,3_0_4_0_2,NA,NA,completion,44216.6,1246130.1999998,1246124.7,1246141.4,1290358,1290359.3000002,2024-02-17T08:57:28Z,1290374.8,NULL,Sänger,mwimbaji,d,NA,NA,NA,NA,sd,NA,4,NA,NA,NA,NA,NA,NA,NA,NA,NA,NA,NA,NA,NA,NA,NA,NA,NA,NA,NA
c83d1,Deep Question,html.Page,3_0_4_0_3_0_0,NA,NA,form submission,42673.600000095,1290359.5,1290358,1290374.8,1333048.4000001,1333048.5999999,2024-02-17T08:58:10Z,1333057.9,NULL,Wettbewerb,ushindani,d,NA,NA,NA,mshambulizi,NA,NA,4,NA,NA,NA,NA,NA,NA,NA,NA,NA,NA,NA,NA,NA,NA,NA,NA,NA,NA,NA
c83d1,"""Richtig""-Screen",canvas.Screen,3_0_4_0_3_0_1,NA,NA,skipped,NA,1333050.3000002,NA,NA,1333048.4000001,1333050.4000001,2024-02-17T08:58:10Z,1333057.9,NULL,Wettbewerb,ushindani,d,NA,NA,NA,NA,sd,NA,4,NA,NA,NA,NA,NA,NA,NA,NA,NA,NA,NA,NA,NA,NA,NA,NA,NA,NA,NA
c83d1,"""Falsch""-Screen",canvas.Screen,3_0_4_0_3_0_2,NA,NA,timeout,5000.2000000002,1333050.9000001,1333041.386,1333057.9,1338041.3,1338042.1999998,2024-02-17T08:58:15Z,1338058.1,NULL,Wettbewerb,ushindani,d,NA,NA,NA,NA,sd,0,4,NA,NA,NA,NA,NA,NA,NA,NA,NA,NA,NA,NA,NA,NA,NA,NA,NA,NA,NA
c83d1,deep,flow.Sequence,3_0_4_0_3_0,NA,NA,completion,47666.5,1290359.4000001,1290358,1290374.8,1338041.3,1338042.5999999,2024-02-17T08:58:15Z,1338058.1,NULL,Wettbewerb,ushindani,d,NA,NA,NA,NA,sd,NA,4,NA,NA,NA,NA,NA,NA,NA,NA,NA,NA,NA,NA,NA,NA,NA,NA,NA,NA,NA
c83d1,shallow,flow.Sequence,3_0_4_0_3_1,NA,NA,skipped,NA,1338042.6999998,NA,NA,1338041.3,1338042.6999998,2024-02-17T08:58:15Z,1338058.1,NULL,Wettbewerb,ushindani,d,NA,NA,NA,NA,sd,NA,4,NA,NA,NA,NA,NA,NA,NA,NA,NA,NA,NA,NA,NA,NA,NA,NA,NA,NA,NA
c83d1,task,flow.Sequence,3_0_4_0_3,NA,NA,completion,47666.5,1290359.4000001,1290358,1290374.8,1338041.3,1338042.9000001,2024-02-17T08:58:15Z,1338058.1,NULL,Wettbewerb,ushindani,d,NA,NA,NA,NA,sd,NA,4,NA,NA,NA,NA,NA,NA,NA,NA,NA,NA,NA,NA,NA,NA,NA,NA,NA,NA,NA
c83d1,deep,flow.Sequence,3_0_4_0_4_0,NA,NA,skipped,NA,1338043,NA,NA,1338041.3,1338043.0999999,2024-02-17T08:58:15Z,1338058.1,NULL,Kanzler,diwani,s,rasilmali,mahitaji,maabudu,NA,sd,NA,4,NA,NA,NA,NA,NA,NA,NA,NA,NA,NA,NA,NA,NA,NA,NA,NA,NA,NA,NA
c83d1,Shallow Question,html.Page,3_0_4_0_4_1_0,NA,NA,form submission,5246.3000000953,1338043.3000002,1338041.3,1338058.1,1343304.4000001,1343304.5999999,2024-02-17T08:58:21Z,1343307.9,NULL,Kanzler,diwani,s,rasilmali,mahitaji,maabudu,diwani,NA,NA,4,NA,NA,NA,NA,NA,NA,NA,NA,NA,NA,NA,NA,NA,NA,NA,NA,NA,NA,NA
c83d1,"""Richtig""-Screen",canvas.Screen,3_0_4_0_4_1_1,NA,NA,timeout,5000.1000000001,1343306.4000001,1343291.446,1343307.9,1348291.4,1348292,2024-02-17T08:58:26Z,1348308,NULL,Kanzler,diwani,s,rasilmali,mahitaji,maabudu,NA,sd,1,4,NA,NA,NA,NA,NA,NA,NA,NA,NA,NA,NA,NA,NA,NA,NA,NA,NA,NA,NA
c83d1,"""Falsch""-Screen",canvas.Screen,3_0_4_0_4_1_2,NA,NA,skipped,NA,1348296,NA,NA,1348291.4,1348296.1999998,2024-02-17T08:58:26Z,1348308,NULL,Kanzler,diwani,s,rasilmali,mahitaji,maabudu,NA,sd,NA,4,NA,NA,NA,NA,NA,NA,NA,NA,NA,NA,NA,NA,NA,NA,NA,NA,NA,NA,NA
c83d1,shallow,flow.Sequence,3_0_4_0_4_1,NA,NA,completion,10233.3,1338043.1999998,1338041.3,1338058.1,1348291.4,1348296.5,2024-02-17T08:58:26Z,1348308,NULL,Kanzler,diwani,s,rasilmali,mahitaji,maabudu,NA,sd,NA,4,NA,NA,NA,NA,NA,NA,NA,NA,NA,NA,NA,NA,NA,NA,NA,NA,NA,NA,NA
c83d1,task,flow.Sequence,3_0_4_0_4,NA,NA,completion,10233.3,1338043,1338041.3,1338058.1,1348291.4,1348296.6999998,2024-02-17T08:58:26Z,1348308,NULL,Kanzler,diwani,s,rasilmali,mahitaji,maabudu,NA,sd,NA,4,NA,NA,NA,NA,NA,NA,NA,NA,NA,NA,NA,NA,NA,NA,NA,NA,NA,NA,NA
c83d1,deep,flow.Sequence,3_0_4_0_5_0,NA,NA,skipped,NA,1348296.8000002,NA,NA,1348291.4,1348296.9000001,2024-02-17T08:58:26Z,1348308,NULL,Abrechnung,uhasibu,s,kusahihisha,mpambano,mashambulizi,NA,sd,NA,4,NA,NA,NA,NA,NA,NA,NA,NA,NA,NA,NA,NA,NA,NA,NA,NA,NA,NA,NA
c83d1,Shallow Question,html.Page,3_0_4_0_5_1_0,NA,NA,form submission,9734.1999998093,1348297,1348291.4,1348308,1358042.1999998,1358042.5999999,2024-02-17T08:58:35Z,1358058,NULL,Abrechnung,uhasibu,s,kusahihisha,mpambano,mashambulizi,mashambulizi,NA,NA,4,NA,NA,NA,NA,NA,NA,NA,NA,NA,NA,NA,NA,NA,NA,NA,NA,NA,NA,NA
c83d1,"""Richtig""-Screen",canvas.Screen,3_0_4_0_5_1_1,NA,NA,skipped,NA,1358044.3000002,NA,NA,1358042.1999998,1358044.4000001,2024-02-17T08:58:35Z,1358058,NULL,Abrechnung,uhasibu,s,kusahihisha,mpambano,mashambulizi,NA,sd,NA,4,NA,NA,NA,NA,NA,NA,NA,NA,NA,NA,NA,NA,NA,NA,NA,NA,NA,NA,NA
c83d1,"""Falsch""-Screen",canvas.Screen,3_0_4_0_5_1_2,NA,NA,timeout,5000,1358045,1358041.5,1358058,1363041.3,1363042,2024-02-17T08:58:40Z,1363058,NULL,Abrechnung,uhasibu,s,kusahihisha,mpambano,mashambulizi,NA,sd,0,4,NA,NA,NA,NA,NA,NA,NA,NA,NA,NA,NA,NA,NA,NA,NA,NA,NA,NA,NA
c83d1,shallow,flow.Sequence,3_0_4_0_5_1,NA,NA,completion,14733.3,1348296.9000001,1348291.4,1348308,1363041.3,1363042.3000002,2024-02-17T08:58:40Z,1363058,NULL,Abrechnung,uhasibu,s,kusahihisha,mpambano,mashambulizi,NA,sd,NA,4,NA,NA,NA,NA,NA,NA,NA,NA,NA,NA,NA,NA,NA,NA,NA,NA,NA,NA,NA
c83d1,task,flow.Sequence,3_0_4_0_5,NA,NA,completion,14733.3,1348296.6999998,1348291.4,1348308,1363041.3,1363042.5,2024-02-17T08:58:40Z,1363058,NULL,Abrechnung,uhasibu,s,kusahihisha,mpambano,mashambulizi,NA,sd,NA,4,NA,NA,NA,NA,NA,NA,NA,NA,NA,NA,NA,NA,NA,NA,NA,NA,NA,NA,NA
c83d1,Deep Question,html.Page,3_0_4_0_6_0_0,NA,NA,form submission,20444.300000191,1363042.6999998,1363041.3,1363058,1383502.3000002,1383502.5999999,2024-02-17T08:59:01Z,1383524.5,NULL,Angreifer,mshambulizi,d,NA,NA,NA,mashambulizi,NA,NA,4,NA,NA,NA,NA,NA,NA,NA,NA,NA,NA,NA,NA,NA,NA,NA,NA,NA,NA,NA
c83d1,"""Richtig""-Screen",canvas.Screen,3_0_4_0_6_0_1,NA,NA,skipped,NA,1383504.4000001,NA,NA,1383502.3000002,1383504.5999999,2024-02-17T08:59:01Z,1383524.5,NULL,Angreifer,mshambulizi,d,NA,NA,NA,NA,sd,NA,4,NA,NA,NA,NA,NA,NA,NA,NA,NA,NA,NA,NA,NA,NA,NA,NA,NA,NA,NA
c83d1,"""Falsch""-Screen",canvas.Screen,3_0_4_0_6_0_2,NA,NA,timeout,5000.1000000001,1383505.0999999,1383508.104,1383524.5,1388507.9,1388508.6999998,2024-02-17T08:59:06Z,1388524.6,NULL,Angreifer,mshambulizi,d,NA,NA,NA,NA,sd,0,4,NA,NA,NA,NA,NA,NA,NA,NA,NA,NA,NA,NA,NA,NA,NA,NA,NA,NA,NA
c83d1,deep,flow.Sequence,3_0_4_0_6_0,NA,NA,completion,25449.9,1363042.6999998,1363041.3,1363058,1388507.9,1388509,2024-02-17T08:59:06Z,1388524.6,NULL,Angreifer,mshambulizi,d,NA,NA,NA,NA,sd,NA,4,NA,NA,NA,NA,NA,NA,NA,NA,NA,NA,NA,NA,NA,NA,NA,NA,NA,NA,NA
c83d1,shallow,flow.Sequence,3_0_4_0_6_1,NA,NA,skipped,NA,1388509.0999999,NA,NA,1388507.9,1388509.1999998,2024-02-17T08:59:06Z,1388524.6,NULL,Angreifer,mshambulizi,d,NA,NA,NA,NA,sd,NA,4,NA,NA,NA,NA,NA,NA,NA,NA,NA,NA,NA,NA,NA,NA,NA,NA,NA,NA,NA
c83d1,task,flow.Sequence,3_0_4_0_6,NA,NA,completion,25449.9,1363042.5999999,1363041.3,1363058,1388507.9,1388509.4000001,2024-02-17T08:59:06Z,1388524.6,NULL,Angreifer,mshambulizi,d,NA,NA,NA,NA,sd,NA,4,NA,NA,NA,NA,NA,NA,NA,NA,NA,NA,NA,NA,NA,NA,NA,NA,NA,NA,NA
c83d1,Deep Question,html.Page,3_0_4_0_7_0_0,NA,NA,form submission,27577.599999809,1388509.5,1388507.9,1388524.6,1416102.1999998,1416102.4000001,2024-02-17T08:59:33Z,1416108.22,NULL,Auftrag,uagizaji,d,NA,NA,NA,mshambulizi,NA,NA,4,NA,NA,NA,NA,NA,NA,NA,NA,NA,NA,NA,NA,NA,NA,NA,NA,NA,NA,NA
c83d1,"""Richtig""-Screen",canvas.Screen,3_0_4_0_7_0_1,NA,NA,skipped,NA,1416104,NA,NA,1416102.1999998,1416104.1999998,2024-02-17T08:59:33Z,1416108.22,NULL,Auftrag,uagizaji,d,NA,NA,NA,NA,sd,NA,4,NA,NA,NA,NA,NA,NA,NA,NA,NA,NA,NA,NA,NA,NA,NA,NA,NA,NA,NA
c83d1,"""Falsch""-Screen",canvas.Screen,3_0_4_0_7_0_2,NA,NA,timeout,4999.78,1416104.8000002,1416108.22,1416108.22,1421091.2,1421092,2024-02-17T08:59:38Z,1421108,NULL,Auftrag,uagizaji,d,NA,NA,NA,NA,sd,0,4,NA,NA,NA,NA,NA,NA,NA,NA,NA,NA,NA,NA,NA,NA,NA,NA,NA,NA,NA
c83d1,deep,flow.Sequence,3_0_4_0_7_0,NA,NA,completion,32566.6,1388509.5,1388507.9,1388524.6,1421091.2,1421092.4000001,2024-02-17T08:59:38Z,1421108,NULL,Auftrag,uagizaji,d,NA,NA,NA,NA,sd,NA,4,NA,NA,NA,NA,NA,NA,NA,NA,NA,NA,NA,NA,NA,NA,NA,NA,NA,NA,NA
c83d1,shallow,flow.Sequence,3_0_4_0_7_1,NA,NA,skipped,NA,1421092.5,NA,NA,1421091.2,1421092.5,2024-02-17T08:59:38Z,1421108,NULL,Auftrag,uagizaji,d,NA,NA,NA,NA,sd,NA,4,NA,NA,NA,NA,NA,NA,NA,NA,NA,NA,NA,NA,NA,NA,NA,NA,NA,NA,NA
c83d1,task,flow.Sequence,3_0_4_0_7,NA,NA,completion,32566.6,1388509.4000001,1388507.9,1388524.6,1421091.2,1421092.8000002,2024-02-17T08:59:38Z,1421108,NULL,Auftrag,uagizaji,d,NA,NA,NA,NA,sd,NA,4,NA,NA,NA,NA,NA,NA,NA,NA,NA,NA,NA,NA,NA,NA,NA,NA,NA,NA,NA
c83d1,block,flow.Loop,3_0_4_0,NA,NA,completion,196333.2,1224769.6999998,1224757.986,1224758,1421091.2,1421093,2024-02-17T08:59:38Z,1421108,NULL,NA,NA,NA,NA,NA,NA,NA,sd,NA,4,NA,NA,NA,NA,NA,NA,NA,NA,NA,NA,NA,NA,NA,NA,NA,NA,NA,NA,NA
c83d1,weiter,canvas.Screen,3_0_4_1,sdf,keypress(Space),response,1098.1999998093,1421093,1421091.2,1421108,1422206.1999998,1422207,2024-02-17T08:59:39Z,1422258.012,NULL,NA,NA,NA,NA,NA,NA,NA,sd,NA,4,NA,NA,NA,NA,NA,NA,NA,NA,NA,NA,NA,NA,NA,NA,NA,NA,NA,NA,NA
c83d1,check continue,flow.Sequence,3_0_4,NA,NA,completion,197448.19999981,1224769.6999998,1224757.986,1224758,1422206.1999998,1422207.1999998,2024-02-17T08:59:39Z,1422258.012,NULL,NA,NA,NA,NA,NA,NA,NA,sd,NA,4,NA,NA,NA,NA,NA,NA,NA,NA,NA,NA,NA,NA,NA,NA,NA,NA,NA,NA,NA
c83d1,Deep Question,html.Page,3_0_5_0_0_0_0,NA,NA,form submission,17743.187999809,1422267.8000002,1422258.012,1422258.012,1440001.1999998,1440001.4000001,2024-02-17T08:59:57Z,1440007.7,NULL,Auftrag,uagizaji,d,NA,NA,NA,mshambulizi,NA,NA,5,NA,NA,NA,NA,NA,NA,NA,NA,NA,NA,NA,NA,NA,NA,NA,NA,NA,NA,NA
c83d1,"""Richtig""-Screen",canvas.Screen,3_0_5_0_0_0_1,NA,NA,skipped,NA,1440003.1999998,NA,NA,1440001.1999998,1440003.3000002,2024-02-17T08:59:57Z,1440007.7,NULL,Auftrag,uagizaji,d,NA,NA,NA,NA,sdf,NA,5,NA,NA,NA,NA,NA,NA,NA,NA,NA,NA,NA,NA,NA,NA,NA,NA,NA,NA,NA
c83d1,"""Falsch""-Screen",canvas.Screen,3_0_5_0_0_0_2,NA,NA,timeout,5000.3,1440003.9000001,1439991.464,1440007.7,1444991.2,1444992.1999998,2024-02-17T09:00:02Z,1445008,NULL,Auftrag,uagizaji,d,NA,NA,NA,NA,sdf,0,5,NA,NA,NA,NA,NA,NA,NA,NA,NA,NA,NA,NA,NA,NA,NA,NA,NA,NA,NA
c83d1,deep,flow.Sequence,3_0_5_0_0_0,NA,NA,completion,22733.188,1422267.6999998,1422258.012,1422258.012,1444991.2,1444992.5,2024-02-17T09:00:02Z,1445008,NULL,Auftrag,uagizaji,d,NA,NA,NA,NA,sdf,NA,5,NA,NA,NA,NA,NA,NA,NA,NA,NA,NA,NA,NA,NA,NA,NA,NA,NA,NA,NA
c83d1,shallow,flow.Sequence,3_0_5_0_0_1,NA,NA,skipped,NA,1444992.5999999,NA,NA,1444991.2,1444992.6999998,2024-02-17T09:00:02Z,1445008,NULL,Auftrag,uagizaji,d,NA,NA,NA,NA,sdf,NA,5,NA,NA,NA,NA,NA,NA,NA,NA,NA,NA,NA,NA,NA,NA,NA,NA,NA,NA,NA
c83d1,task,flow.Sequence,3_0_5_0_0,NA,NA,completion,22733.188,1422267.6999998,1422258.012,1422258.012,1444991.2,1444992.9000001,2024-02-17T09:00:02Z,1445008,NULL,Auftrag,uagizaji,d,NA,NA,NA,NA,sdf,NA,5,NA,NA,NA,NA,NA,NA,NA,NA,NA,NA,NA,NA,NA,NA,NA,NA,NA,NA,NA
c83d1,deep,flow.Sequence,3_0_5_0_1_0,NA,NA,skipped,NA,1444993,NA,NA,1444991.2,1444993.0999999,2024-02-17T09:00:02Z,1445008,NULL,Zufall,kikuti,s,kukosekana,uchoraji,leseni,NA,sdf,NA,5,NA,NA,NA,NA,NA,NA,NA,NA,NA,NA,NA,NA,NA,NA,NA,NA,NA,NA,NA
c83d1,Shallow Question,html.Page,3_0_5_0_1_1_0,NA,NA,form submission,4525.0999999046,1444993.1999998,1444991.2,1445008,1449533.0999999,1449533.4000001,2024-02-17T09:00:07Z,1449541.3,NULL,Zufall,kikuti,s,kukosekana,uchoraji,leseni,kikuti,NA,NA,5,NA,NA,NA,NA,NA,NA,NA,NA,NA,NA,NA,NA,NA,NA,NA,NA,NA,NA,NA
c83d1,"""Richtig""-Screen",canvas.Screen,3_0_5_0_1_1_1,NA,NA,timeout,4999.8,1449535,1449524.63,1449541.3,1454524.5,1454525.4000001,2024-02-17T09:00:12Z,1454541.1,NULL,Zufall,kikuti,s,kukosekana,uchoraji,leseni,NA,sdf,1,5,NA,NA,NA,NA,NA,NA,NA,NA,NA,NA,NA,NA,NA,NA,NA,NA,NA,NA,NA
c83d1,"""Falsch""-Screen",canvas.Screen,3_0_5_0_1_1_2,NA,NA,skipped,NA,1454529.4000001,NA,NA,1454524.5,1454529.5999999,2024-02-17T09:00:12Z,1454541.1,NULL,Zufall,kikuti,s,kukosekana,uchoraji,leseni,NA,sdf,NA,5,NA,NA,NA,NA,NA,NA,NA,NA,NA,NA,NA,NA,NA,NA,NA,NA,NA,NA,NA
c83d1,shallow,flow.Sequence,3_0_5_0_1_1,NA,NA,completion,9516.5,1444993.0999999,1444991.2,1445008,1454524.5,1454529.8000002,2024-02-17T09:00:12Z,1454541.1,NULL,Zufall,kikuti,s,kukosekana,uchoraji,leseni,NA,sdf,NA,5,NA,NA,NA,NA,NA,NA,NA,NA,NA,NA,NA,NA,NA,NA,NA,NA,NA,NA,NA
c83d1,task,flow.Sequence,3_0_5_0_1,NA,NA,completion,9516.5,1444992.9000001,1444991.2,1445008,1454524.5,1454529.9000001,2024-02-17T09:00:12Z,1454541.1,NULL,Zufall,kikuti,s,kukosekana,uchoraji,leseni,NA,sdf,NA,5,NA,NA,NA,NA,NA,NA,NA,NA,NA,NA,NA,NA,NA,NA,NA,NA,NA,NA,NA
c83d1,deep,flow.Sequence,3_0_5_0_2_0,NA,NA,skipped,NA,1454530,NA,NA,1454524.5,1454530.0999999,2024-02-17T09:00:12Z,1454541.1,NULL,Kanzler,diwani,s,rasilmali,mahitaji,maabudu,NA,sdf,NA,5,NA,NA,NA,NA,NA,NA,NA,NA,NA,NA,NA,NA,NA,NA,NA,NA,NA,NA,NA
c83d1,Shallow Question,html.Page,3_0_5_0_2_1_0,NA,NA,form submission,3645.9999999045,1454530.3000002,1454524.5,1454541.1,1458187.0999999,1458187.3000002,2024-02-17T09:00:15Z,1458191.1,NULL,Kanzler,diwani,s,rasilmali,mahitaji,maabudu,diwani,NA,NA,5,NA,NA,NA,NA,NA,NA,NA,NA,NA,NA,NA,NA,NA,NA,NA,NA,NA,NA,NA
c83d1,"""Richtig""-Screen",canvas.Screen,3_0_5_0_2_1_1,NA,NA,timeout,5000,1458188.9000001,1458174.67,1458191.1,1463174.6,1463175.1999998,2024-02-17T09:00:20Z,1463191.1,NULL,Kanzler,diwani,s,rasilmali,mahitaji,maabudu,NA,sdf,1,5,NA,NA,NA,NA,NA,NA,NA,NA,NA,NA,NA,NA,NA,NA,NA,NA,NA,NA,NA
c83d1,"""Falsch""-Screen",canvas.Screen,3_0_5_0_2_1_2,NA,NA,skipped,NA,1463179.1999998,NA,NA,1463174.6,1463179.5,2024-02-17T09:00:20Z,1463191.1,NULL,Kanzler,diwani,s,rasilmali,mahitaji,maabudu,NA,sdf,NA,5,NA,NA,NA,NA,NA,NA,NA,NA,NA,NA,NA,NA,NA,NA,NA,NA,NA,NA,NA
c83d1,shallow,flow.Sequence,3_0_5_0_2_1,NA,NA,completion,8633.5,1454530.3000002,1454524.5,1454541.1,1463174.6,1463179.5999999,2024-02-17T09:00:20Z,1463191.1,NULL,Kanzler,diwani,s,rasilmali,mahitaji,maabudu,NA,sdf,NA,5,NA,NA,NA,NA,NA,NA,NA,NA,NA,NA,NA,NA,NA,NA,NA,NA,NA,NA,NA
c83d1,task,flow.Sequence,3_0_5_0_2,NA,NA,completion,8633.5,1454530,1454524.5,1454541.1,1463174.6,1463179.8000002,2024-02-17T09:00:20Z,1463191.1,NULL,Kanzler,diwani,s,rasilmali,mahitaji,maabudu,NA,sdf,NA,5,NA,NA,NA,NA,NA,NA,NA,NA,NA,NA,NA,NA,NA,NA,NA,NA,NA,NA,NA
c83d1,deep,flow.Sequence,3_0_5_0_3_0,NA,NA,skipped,NA,1463179.9000001,NA,NA,1463174.6,1463180,2024-02-17T09:00:20Z,1463191.1,NULL,Schönheit,kirembo,s,mahojiano,msisimko,jitihadi,NA,sdf,NA,5,NA,NA,NA,NA,NA,NA,NA,NA,NA,NA,NA,NA,NA,NA,NA,NA,NA,NA,NA
c83d1,Shallow Question,html.Page,3_0_5_0_3_1_0,NA,NA,form submission,4354.9999999045,1463180.1999998,1463174.6,1463191.1,1467546.0999999,1467546.4000001,2024-02-17T09:00:25Z,1467557.8,NULL,Schönheit,kirembo,s,mahojiano,msisimko,jitihadi,kirembo,NA,NA,5,NA,NA,NA,NA,NA,NA,NA,NA,NA,NA,NA,NA,NA,NA,NA,NA,NA,NA,NA
c83d1,"""Richtig""-Screen",canvas.Screen,3_0_5_0_3_1_1,NA,NA,timeout,5000.0999999999,1467548,1467541.554,1467557.8,1472541.2,1472542,2024-02-17T09:00:30Z,1472557.9,NULL,Schönheit,kirembo,s,mahojiano,msisimko,jitihadi,NA,sdf,1,5,NA,NA,NA,NA,NA,NA,NA,NA,NA,NA,NA,NA,NA,NA,NA,NA,NA,NA,NA
c83d1,"""Falsch""-Screen",canvas.Screen,3_0_5_0_3_1_2,NA,NA,skipped,NA,1472546.3000002,NA,NA,1472541.2,1472546.5,2024-02-17T09:00:30Z,1472557.9,NULL,Schönheit,kirembo,s,mahojiano,msisimko,jitihadi,NA,sdf,NA,5,NA,NA,NA,NA,NA,NA,NA,NA,NA,NA,NA,NA,NA,NA,NA,NA,NA,NA,NA
c83d1,shallow,flow.Sequence,3_0_5_0_3_1,NA,NA,completion,9350.0999999999,1463180.0999999,1463174.6,1463191.1,1472541.2,1472546.8000002,2024-02-17T09:00:30Z,1472557.9,NULL,Schönheit,kirembo,s,mahojiano,msisimko,jitihadi,NA,sdf,NA,5,NA,NA,NA,NA,NA,NA,NA,NA,NA,NA,NA,NA,NA,NA,NA,NA,NA,NA,NA
c83d1,task,flow.Sequence,3_0_5_0_3,NA,NA,completion,9350.0999999999,1463179.9000001,1463174.6,1463191.1,1472541.2,1472546.9000001,2024-02-17T09:00:30Z,1472557.9,NULL,Schönheit,kirembo,s,mahojiano,msisimko,jitihadi,NA,sdf,NA,5,NA,NA,NA,NA,NA,NA,NA,NA,NA,NA,NA,NA,NA,NA,NA,NA,NA,NA,NA
c83d1,Deep Question,html.Page,3_0_5_0_4_0_0,NA,NA,form submission,18569.199999905,1472547.0999999,1472541.2,1472557.9,1491127.0999999,1491127.4000001,2024-02-17T09:00:48Z,1491141.3,NULL,Wettbewerb,ushindani,d,NA,NA,NA,mshambulizi,NA,NA,5,NA,NA,NA,NA,NA,NA,NA,NA,NA,NA,NA,NA,NA,NA,NA,NA,NA,NA,NA
c83d1,"""Richtig""-Screen",canvas.Screen,3_0_5_0_4_0_1,NA,NA,skipped,NA,1491129,NA,NA,1491127.0999999,1491129.1999998,2024-02-17T09:00:48Z,1491141.3,NULL,Wettbewerb,ushindani,d,NA,NA,NA,NA,sdf,NA,5,NA,NA,NA,NA,NA,NA,NA,NA,NA,NA,NA,NA,NA,NA,NA,NA,NA,NA,NA
c83d1,"""Falsch""-Screen",canvas.Screen,3_0_5_0_4_0_2,NA,NA,timeout,4999.8999999999,1491129.8000002,1491124.618,1491141.3,1496124.5,1496125.3000002,2024-02-17T09:00:53Z,1496141.2,NULL,Wettbewerb,ushindani,d,NA,NA,NA,NA,sdf,0,5,NA,NA,NA,NA,NA,NA,NA,NA,NA,NA,NA,NA,NA,NA,NA,NA,NA,NA,NA
c83d1,deep,flow.Sequence,3_0_5_0_4_0,NA,NA,completion,23566.6,1472547,1472541.2,1472557.9,1496124.5,1496125.5999999,2024-02-17T09:00:53Z,1496141.2,NULL,Wettbewerb,ushindani,d,NA,NA,NA,NA,sdf,NA,5,NA,NA,NA,NA,NA,NA,NA,NA,NA,NA,NA,NA,NA,NA,NA,NA,NA,NA,NA
c83d1,shallow,flow.Sequence,3_0_5_0_4_1,NA,NA,skipped,NA,1496125.5999999,NA,NA,1496124.5,1496125.8000002,2024-02-17T09:00:53Z,1496141.2,NULL,Wettbewerb,ushindani,d,NA,NA,NA,NA,sdf,NA,5,NA,NA,NA,NA,NA,NA,NA,NA,NA,NA,NA,NA,NA,NA,NA,NA,NA,NA,NA
c83d1,task,flow.Sequence,3_0_5_0_4,NA,NA,completion,23566.6,1472547,1472541.2,1472557.9,1496124.5,1496125.9000001,2024-02-17T09:00:53Z,1496141.2,NULL,Wettbewerb,ushindani,d,NA,NA,NA,NA,sdf,NA,5,NA,NA,NA,NA,NA,NA,NA,NA,NA,NA,NA,NA,NA,NA,NA,NA,NA,NA,NA
c83d1,Deep Question,html.Page,3_0_5_0_5_0_0,NA,NA,form submission,13136.100000191,1496126.0999999,1496124.5,1496141.2,1509277.3000002,1509277.5999999,2024-02-17T09:01:07Z,1509291.2,NULL,Sänger,mwimbaji,d,NA,NA,NA,mshambulizi,NA,NA,5,NA,NA,NA,NA,NA,NA,NA,NA,NA,NA,NA,NA,NA,NA,NA,NA,NA,NA,NA
c83d1,"""Richtig""-Screen",canvas.Screen,3_0_5_0_5_0_1,NA,NA,skipped,NA,1509279.1999998,NA,NA,1509277.3000002,1509279.4000001,2024-02-17T09:01:07Z,1509291.2,NULL,Sänger,mwimbaji,d,NA,NA,NA,NA,sdf,NA,5,NA,NA,NA,NA,NA,NA,NA,NA,NA,NA,NA,NA,NA,NA,NA,NA,NA,NA,NA
c83d1,"""Falsch""-Screen",canvas.Screen,3_0_5_0_5_0_2,NA,NA,timeout,5000,1509279.9000001,1509274.706,1509291.2,1514274.6,1514275.3000002,2024-02-17T09:01:12Z,1514291.2,NULL,Sänger,mwimbaji,d,NA,NA,NA,NA,sdf,0,5,NA,NA,NA,NA,NA,NA,NA,NA,NA,NA,NA,NA,NA,NA,NA,NA,NA,NA,NA
c83d1,deep,flow.Sequence,3_0_5_0_5_0,NA,NA,completion,18133.4,1496126,1496124.5,1496141.2,1514274.6,1514275.5,2024-02-17T09:01:12Z,1514291.2,NULL,Sänger,mwimbaji,d,NA,NA,NA,NA,sdf,NA,5,NA,NA,NA,NA,NA,NA,NA,NA,NA,NA,NA,NA,NA,NA,NA,NA,NA,NA,NA
c83d1,shallow,flow.Sequence,3_0_5_0_5_1,NA,NA,skipped,NA,1514275.5999999,NA,NA,1514274.6,1514275.8000002,2024-02-17T09:01:12Z,1514291.2,NULL,Sänger,mwimbaji,d,NA,NA,NA,NA,sdf,NA,5,NA,NA,NA,NA,NA,NA,NA,NA,NA,NA,NA,NA,NA,NA,NA,NA,NA,NA,NA
c83d1,task,flow.Sequence,3_0_5_0_5,NA,NA,completion,18133.4,1496126,1496124.5,1496141.2,1514274.6,1514275.9000001,2024-02-17T09:01:12Z,1514291.2,NULL,Sänger,mwimbaji,d,NA,NA,NA,NA,sdf,NA,5,NA,NA,NA,NA,NA,NA,NA,NA,NA,NA,NA,NA,NA,NA,NA,NA,NA,NA,NA
c83d1,Deep Question,html.Page,3_0_5_0_6_0_0,NA,NA,form submission,10720.700000095,1514276.0999999,1514274.6,1514291.2,1525011.9000001,1525012.0999999,2024-02-17T09:01:22Z,1525024.5,NULL,Angreifer,mshambulizi,d,NA,NA,NA,mshambulizi,NA,NA,5,NA,NA,NA,NA,NA,NA,NA,NA,NA,NA,NA,NA,NA,NA,NA,NA,NA,NA,NA
c83d1,"""Richtig""-Screen",canvas.Screen,3_0_5_0_6_0_1,NA,NA,timeout,5000,1525013.8000002,1525007.954,1525024.5,1530007.8,1530008.5999999,2024-02-17T09:01:27Z,1530024.5,NULL,Angreifer,mshambulizi,d,NA,NA,NA,NA,sdf,1,5,NA,NA,NA,NA,NA,NA,NA,NA,NA,NA,NA,NA,NA,NA,NA,NA,NA,NA,NA
c83d1,"""Falsch""-Screen",canvas.Screen,3_0_5_0_6_0_2,NA,NA,skipped,NA,1530012.5,NA,NA,1530007.8,1530012.8000002,2024-02-17T09:01:27Z,1530024.5,NULL,Angreifer,mshambulizi,d,NA,NA,NA,NA,sdf,NA,5,NA,NA,NA,NA,NA,NA,NA,NA,NA,NA,NA,NA,NA,NA,NA,NA,NA,NA,NA
c83d1,deep,flow.Sequence,3_0_5_0_6_0,NA,NA,completion,15716.6,1514276.0999999,1514274.6,1514291.2,1530007.8,1530013,2024-02-17T09:01:27Z,1530024.5,NULL,Angreifer,mshambulizi,d,NA,NA,NA,NA,sdf,NA,5,NA,NA,NA,NA,NA,NA,NA,NA,NA,NA,NA,NA,NA,NA,NA,NA,NA,NA,NA
c83d1,shallow,flow.Sequence,3_0_5_0_6_1,NA,NA,skipped,NA,1530013.0999999,NA,NA,1530007.8,1530013.1999998,2024-02-17T09:01:27Z,1530024.5,NULL,Angreifer,mshambulizi,d,NA,NA,NA,NA,sdf,NA,5,NA,NA,NA,NA,NA,NA,NA,NA,NA,NA,NA,NA,NA,NA,NA,NA,NA,NA,NA
c83d1,task,flow.Sequence,3_0_5_0_6,NA,NA,completion,15716.6,1514275.9000001,1514274.6,1514291.2,1530007.8,1530013.3000002,2024-02-17T09:01:27Z,1530024.5,NULL,Angreifer,mshambulizi,d,NA,NA,NA,NA,sdf,NA,5,NA,NA,NA,NA,NA,NA,NA,NA,NA,NA,NA,NA,NA,NA,NA,NA,NA,NA,NA
c83d1,deep,flow.Sequence,3_0_5_0_7_0,NA,NA,skipped,NA,1530013.5,NA,NA,1530007.8,1530013.5999999,2024-02-17T09:01:27Z,1530024.5,NULL,Abrechnung,uhasibu,s,kusahihisha,mpambano,mashambulizi,NA,sdf,NA,5,NA,NA,NA,NA,NA,NA,NA,NA,NA,NA,NA,NA,NA,NA,NA,NA,NA,NA,NA
c83d1,Shallow Question,html.Page,3_0_5_0_7_1_0,NA,NA,form submission,9206.5999999046,1530013.6999998,1530007.8,1530024.5,1539231.0999999,1539231.3000002,2024-02-17T09:01:36Z,1539241.1,NULL,Abrechnung,uhasibu,s,kusahihisha,mpambano,mashambulizi,uhasibu,NA,NA,5,NA,NA,NA,NA,NA,NA,NA,NA,NA,NA,NA,NA,NA,NA,NA,NA,NA,NA,NA
c83d1,"""Richtig""-Screen",canvas.Screen,3_0_5_0_7_1_1,NA,NA,timeout,5000.0999999999,1539233,1539224.6,1539241.1,1544224.5,1544225.3000002,2024-02-17T09:01:41Z,1544241.2,NULL,Abrechnung,uhasibu,s,kusahihisha,mpambano,mashambulizi,NA,sdf,1,5,NA,NA,NA,NA,NA,NA,NA,NA,NA,NA,NA,NA,NA,NA,NA,NA,NA,NA,NA
c83d1,"""Falsch""-Screen",canvas.Screen,3_0_5_0_7_1_2,NA,NA,skipped,NA,1544229.4000001,NA,NA,1544224.5,1544229.8000002,2024-02-17T09:01:41Z,1544241.2,NULL,Abrechnung,uhasibu,s,kusahihisha,mpambano,mashambulizi,NA,sdf,NA,5,NA,NA,NA,NA,NA,NA,NA,NA,NA,NA,NA,NA,NA,NA,NA,NA,NA,NA,NA
c83d1,shallow,flow.Sequence,3_0_5_0_7_1,NA,NA,completion,14200,1530013.5999999,1530007.8,1530024.5,1544224.5,1544229.9000001,2024-02-17T09:01:41Z,1544241.2,NULL,Abrechnung,uhasibu,s,kusahihisha,mpambano,mashambulizi,NA,sdf,NA,5,NA,NA,NA,NA,NA,NA,NA,NA,NA,NA,NA,NA,NA,NA,NA,NA,NA,NA,NA
c83d1,task,flow.Sequence,3_0_5_0_7,NA,NA,completion,14200,1530013.5,1530007.8,1530024.5,1544224.5,1544230.0999999,2024-02-17T09:01:41Z,1544241.2,NULL,Abrechnung,uhasibu,s,kusahihisha,mpambano,mashambulizi,NA,sdf,NA,5,NA,NA,NA,NA,NA,NA,NA,NA,NA,NA,NA,NA,NA,NA,NA,NA,NA,NA,NA
c83d1,block,flow.Loop,3_0_5_0,NA,NA,completion,121966.488,1422267.6999998,1422258.012,1422258.012,1544224.5,1544230.3000002,2024-02-17T09:01:41Z,1544241.2,NULL,NA,NA,NA,NA,NA,NA,NA,sdf,NA,5,NA,NA,NA,NA,NA,NA,NA,NA,NA,NA,NA,NA,NA,NA,NA,NA,NA,NA,NA
c83d1,weiter,canvas.Screen,3_0_5_1,sdf,keypress(Space),response,1091.3999999047,1544230.4000001,1544224.5,1544241.2,1545332.5999999,1545333.5,2024-02-17T09:01:43Z,1545374.4,NULL,NA,NA,NA,NA,NA,NA,NA,sdf,NA,5,NA,NA,NA,NA,NA,NA,NA,NA,NA,NA,NA,NA,NA,NA,NA,NA,NA,NA,NA
c83d1,check continue,flow.Sequence,3_0_5,NA,NA,completion,123074.5879999,1422267.5999999,1422258.012,1422258.012,1545332.5999999,1545333.8000002,2024-02-17T09:01:43Z,1545374.4,NULL,NA,NA,NA,NA,NA,NA,NA,sdf,NA,5,NA,NA,NA,NA,NA,NA,NA,NA,NA,NA,NA,NA,NA,NA,NA,NA,NA,NA,NA
c83d1,Deep Question,html.Page,3_0_6_0_0_0_0,NA,NA,form submission,16613.500000095,1545372.8000002,1545357.92,1545374.4,1561987.9000001,1561988.1999998,2024-02-17T09:01:59Z,1561991.204,NULL,Angreifer,mshambulizi,d,NA,NA,NA,kirembo,NA,NA,6,NA,NA,NA,NA,NA,NA,NA,NA,NA,NA,NA,NA,NA,NA,NA,NA,NA,NA,NA
c83d1,"""Richtig""-Screen",canvas.Screen,3_0_6_0_0_0_1,NA,NA,skipped,NA,1561990,NA,NA,1561987.9000001,1561990.0999999,2024-02-17T09:01:59Z,1561991.204,NULL,Angreifer,mshambulizi,d,NA,NA,NA,NA,dfs,NA,6,NA,NA,NA,NA,NA,NA,NA,NA,NA,NA,NA,NA,NA,NA,NA,NA,NA,NA,NA
c83d1,"""Falsch""-Screen",canvas.Screen,3_0_6_0_0_0_2,NA,NA,timeout,4999.996,1561990.6999998,1561991.204,1561991.204,1566974.5,1566975.4000001,2024-02-17T09:02:04Z,1566991.2,NULL,Angreifer,mshambulizi,d,NA,NA,NA,NA,dfs,0,6,NA,NA,NA,NA,NA,NA,NA,NA,NA,NA,NA,NA,NA,NA,NA,NA,NA,NA,NA
c83d1,deep,flow.Sequence,3_0_6_0_0_0,NA,NA,completion,21600.1,1545372.8000002,1545357.92,1545374.4,1566974.5,1566975.6999998,2024-02-17T09:02:04Z,1566991.2,NULL,Angreifer,mshambulizi,d,NA,NA,NA,NA,dfs,NA,6,NA,NA,NA,NA,NA,NA,NA,NA,NA,NA,NA,NA,NA,NA,NA,NA,NA,NA,NA
c83d1,shallow,flow.Sequence,3_0_6_0_0_1,NA,NA,skipped,NA,1566975.8000002,NA,NA,1566974.5,1566975.9000001,2024-02-17T09:02:04Z,1566991.2,NULL,Angreifer,mshambulizi,d,NA,NA,NA,NA,dfs,NA,6,NA,NA,NA,NA,NA,NA,NA,NA,NA,NA,NA,NA,NA,NA,NA,NA,NA,NA,NA
c83d1,task,flow.Sequence,3_0_6_0_0,NA,NA,completion,21600.1,1545372.8000002,1545357.92,1545374.4,1566974.5,1566976.0999999,2024-02-17T09:02:04Z,1566991.2,NULL,Angreifer,mshambulizi,d,NA,NA,NA,NA,dfs,NA,6,NA,NA,NA,NA,NA,NA,NA,NA,NA,NA,NA,NA,NA,NA,NA,NA,NA,NA,NA
c83d1,deep,flow.Sequence,3_0_6_0_1_0,NA,NA,skipped,NA,1566976.0999999,NA,NA,1566974.5,1566976.3000002,2024-02-17T09:02:04Z,1566991.2,NULL,Zufall,kikuti,s,kukosekana,uchoraji,leseni,NA,dfs,NA,6,NA,NA,NA,NA,NA,NA,NA,NA,NA,NA,NA,NA,NA,NA,NA,NA,NA,NA,NA
c83d1,Shallow Question,html.Page,3_0_6_0_1_1_0,NA,NA,form submission,3922.8,1566976.5,1566974.5,1566991.2,1570914,1570914.1999998,2024-02-17T09:02:08Z,1570924.5,NULL,Zufall,kikuti,s,kukosekana,uchoraji,leseni,kikuti,NA,NA,6,NA,NA,NA,NA,NA,NA,NA,NA,NA,NA,NA,NA,NA,NA,NA,NA,NA,NA,NA
c83d1,"""Richtig""-Screen",canvas.Screen,3_0_6_0_1_1_1,NA,NA,timeout,5000,1570916,1570907.906,1570924.5,1575907.9,1575908.8000002,2024-02-17T09:02:13Z,1575924.5,NULL,Zufall,kikuti,s,kukosekana,uchoraji,leseni,NA,dfs,1,6,NA,NA,NA,NA,NA,NA,NA,NA,NA,NA,NA,NA,NA,NA,NA,NA,NA,NA,NA
c83d1,"""Falsch""-Screen",canvas.Screen,3_0_6_0_1_1_2,NA,NA,skipped,NA,1575912.6999998,NA,NA,1575907.9,1575913,2024-02-17T09:02:13Z,1575924.5,NULL,Zufall,kikuti,s,kukosekana,uchoraji,leseni,NA,dfs,NA,6,NA,NA,NA,NA,NA,NA,NA,NA,NA,NA,NA,NA,NA,NA,NA,NA,NA,NA,NA
c83d1,shallow,flow.Sequence,3_0_6_0_1_1,NA,NA,completion,8916.7,1566976.4000001,1566974.5,1566991.2,1575907.9,1575913.1999998,2024-02-17T09:02:13Z,1575924.5,NULL,Zufall,kikuti,s,kukosekana,uchoraji,leseni,NA,dfs,NA,6,NA,NA,NA,NA,NA,NA,NA,NA,NA,NA,NA,NA,NA,NA,NA,NA,NA,NA,NA
c83d1,task,flow.Sequence,3_0_6_0_1,NA,NA,completion,8916.7,1566976.0999999,1566974.5,1566991.2,1575907.9,1575913.3000002,2024-02-17T09:02:13Z,1575924.5,NULL,Zufall,kikuti,s,kukosekana,uchoraji,leseni,NA,dfs,NA,6,NA,NA,NA,NA,NA,NA,NA,NA,NA,NA,NA,NA,NA,NA,NA,NA,NA,NA,NA
c83d1,deep,flow.Sequence,3_0_6_0_2_0,NA,NA,skipped,NA,1575913.5,NA,NA,1575907.9,1575913.5,2024-02-17T09:02:13Z,1575924.5,NULL,Kanzler,diwani,s,rasilmali,mahitaji,maabudu,NA,dfs,NA,6,NA,NA,NA,NA,NA,NA,NA,NA,NA,NA,NA,NA,NA,NA,NA,NA,NA,NA,NA
c83d1,Shallow Question,html.Page,3_0_6_0_2_1_0,NA,NA,form submission,6860.4000000954,1575913.6999998,1575907.9,1575924.5,1582784.9000001,1582785.1999998,2024-02-17T09:02:20Z,1582791.23,NULL,Kanzler,diwani,s,rasilmali,mahitaji,maabudu,diwani,NA,NA,6,NA,NA,NA,NA,NA,NA,NA,NA,NA,NA,NA,NA,NA,NA,NA,NA,NA,NA,NA
c83d1,"""Richtig""-Screen",canvas.Screen,3_0_6_0_2_1_1,NA,NA,timeout,4999.8700000001,1582786.6999998,1582791.23,1582791.23,1587774.4,1587774.9000001,2024-02-17T09:02:25Z,1587791.1,NULL,Kanzler,diwani,s,rasilmali,mahitaji,maabudu,NA,dfs,1,6,NA,NA,NA,NA,NA,NA,NA,NA,NA,NA,NA,NA,NA,NA,NA,NA,NA,NA,NA
c83d1,"""Falsch""-Screen",canvas.Screen,3_0_6_0_2_1_2,NA,NA,skipped,NA,1587779.0999999,NA,NA,1587774.4,1587779.3000002,2024-02-17T09:02:25Z,1587791.1,NULL,Kanzler,diwani,s,rasilmali,mahitaji,maabudu,NA,dfs,NA,6,NA,NA,NA,NA,NA,NA,NA,NA,NA,NA,NA,NA,NA,NA,NA,NA,NA,NA,NA
c83d1,shallow,flow.Sequence,3_0_6_0_2_1,NA,NA,completion,11849.9,1575913.5999999,1575907.9,1575924.5,1587774.4,1587779.5999999,2024-02-17T09:02:25Z,1587791.1,NULL,Kanzler,diwani,s,rasilmali,mahitaji,maabudu,NA,dfs,NA,6,NA,NA,NA,NA,NA,NA,NA,NA,NA,NA,NA,NA,NA,NA,NA,NA,NA,NA,NA
c83d1,task,flow.Sequence,3_0_6_0_2,NA,NA,completion,11849.9,1575913.4000001,1575907.9,1575924.5,1587774.4,1587779.8000002,2024-02-17T09:02:25Z,1587791.1,NULL,Kanzler,diwani,s,rasilmali,mahitaji,maabudu,NA,dfs,NA,6,NA,NA,NA,NA,NA,NA,NA,NA,NA,NA,NA,NA,NA,NA,NA,NA,NA,NA,NA
c83d1,deep,flow.Sequence,3_0_6_0_3_0,NA,NA,skipped,NA,1587780,NA,NA,1587774.4,1587780.0999999,2024-02-17T09:02:25Z,1587791.1,NULL,Schönheit,kirembo,s,mahojiano,msisimko,jitihadi,NA,dfs,NA,6,NA,NA,NA,NA,NA,NA,NA,NA,NA,NA,NA,NA,NA,NA,NA,NA,NA,NA,NA
c83d1,Shallow Question,html.Page,3_0_6_0_3_1_0,NA,NA,form submission,7983.8999999999,1587780.3000002,1587774.4,1587791.1,1595775,1595775.3000002,2024-02-17T09:02:33Z,1595791.1,NULL,Schönheit,kirembo,s,mahojiano,msisimko,jitihadi,kirembo,NA,NA,6,NA,NA,NA,NA,NA,NA,NA,NA,NA,NA,NA,NA,NA,NA,NA,NA,NA,NA,NA
