observation,sender,sender_type,sender_id,response,response_action,ended_on,duration,time_run,time_render,time_show,time_end,time_commit,timestamp,time_switch,distractors,german,swahili,enc,distractor1,distractor2,distractor3,response_2,x,correct,x_2,url_vp,url_sess,meta_labjs_version,meta_location,meta_user_agent,meta_platform,meta_language,meta_locale,meta_time_zone,meta_timezone_offset,meta_screen_width,meta_screen_height,meta_scroll_width,meta_scroll_height,meta_window_inner_width,meta_window_inner_height,meta_device_pixel_ratio,meta_labjs_build_flavor,meta_labjs_build_commit
4f360,Introduction general,canvas.Screen,0,weiter,keypress(q),response,230589.407,233.40000000037,98.565,231.893,230821.3,230831.1,2023-03-30T11:48:12Z,230832.517,NULL,NA,NA,NA,NA,NA,NA,NA,NA,NA,NA,119,3,20.2.4,https://neurocog.fernuni.ch/studies/vweber/encoding_immediate/index.html?vp=119&sess=3,"Mozilla/5.0 (Macintosh; Intel Mac OS X 10_15_7) AppleWebKit/537.36 (KHTML, like Gecko) Chrome/111.0.0.0 Safari/537.36",MacIntel,de-DE,de,Europe/Zurich,-120,1440,900,1360,660,1360,708,2,production,f5b4a49f956347addd546a832a3327688c2c0fef
4f360,Introduction practice,canvas.Screen,1_0,NA,keypress(Space),response,1551.1830000011,230831.5,230815.851,230832.517,232383.7,232386.8,2023-03-30T11:48:13Z,232401.435,NULL,NA,NA,NA,NA,NA,NA,NA,NA,NA,NA,NA,NA,NA,NA,NA,NA,NA,NA,NA,NA,NA,NA,NA,NA,NA,NA,NA,NA,NA
4f360,Deep Question,html.Page,1_1_0_0_0,NA,NA,form submission,12024.565,232387.2,232384.769,232401.435,244426,244426.2,2023-03-30T11:48:26Z,244434.83,"c(""distractor1"", ""distractor2"", ""distractor3"")",Schatten,kivuli,d,NA,NA,NA,v,NA,NA,NA,NA,NA,NA,NA,NA,NA,NA,NA,NA,NA,NA,NA,NA,NA,NA,NA,NA,NA,NA
4f360,"""Richtig""-Screen",canvas.Screen,1_1_0_0_1,NA,NA,skipped,NA,244427.2,NA,NA,244426,244427.3,2023-03-30T11:48:26Z,244434.83,"c(""distractor1"", ""distractor2"", ""distractor3"")",Schatten,kivuli,d,NA,NA,NA,NA,NA,NA,NA,NA,NA,NA,NA,NA,NA,NA,NA,NA,NA,NA,NA,NA,NA,NA,NA,NA,NA,NA
4f360,"""Falsch""-Screen",canvas.Screen,1_1_0_0_2,NA,NA,timeout,4999.8,244427.8,244418.164,244434.83,249417.964,249426.7,2023-03-30T11:48:31Z,249434.63,"c(""distractor1"", ""distractor2"", ""distractor3"")",Schatten,kivuli,d,NA,NA,NA,NA,NA,0,NA,NA,NA,NA,NA,NA,NA,NA,NA,NA,NA,NA,NA,NA,NA,NA,NA,NA,NA,NA
4f360,deep,flow.Sequence,1_1_0_0,NA,NA,completion,17016.529,232387.2,232384.769,232401.435,249417.964,249427.1,2023-03-30T11:48:31Z,249434.63,"c(""distractor1"", ""distractor2"", ""distractor3"")",Schatten,kivuli,d,NA,NA,NA,NA,NA,NA,NA,NA,NA,NA,NA,NA,NA,NA,NA,NA,NA,NA,NA,NA,NA,NA,NA,NA,NA,NA
4f360,shallow,flow.Sequence,1_1_0_1,NA,NA,skipped,NA,249427.2,NA,NA,249417.964,249427.2,2023-03-30T11:48:31Z,249434.63,"c(""distractor1"", ""distractor2"", ""distractor3"")",Schatten,kivuli,d,NA,NA,NA,NA,NA,NA,NA,NA,NA,NA,NA,NA,NA,NA,NA,NA,NA,NA,NA,NA,NA,NA,NA,NA,NA,NA
4f360,task,flow.Sequence,1_1_0,NA,NA,completion,17016.529,232387.2,232384.769,232401.435,249417.964,249427.4,2023-03-30T11:48:31Z,249434.63,"c(""distractor1"", ""distractor2"", ""distractor3"")",Schatten,kivuli,d,NA,NA,NA,NA,NA,NA,NA,NA,NA,NA,NA,NA,NA,NA,NA,NA,NA,NA,NA,NA,NA,NA,NA,NA,NA,NA
4f360,deep,flow.Sequence,1_1_1_0,NA,NA,skipped,NA,249427.5,NA,NA,249417.964,249427.6,2023-03-30T11:48:31Z,249434.63,"c(""distractor1"", ""distractor2"", ""distractor3"")",Gegenwart,hadhara,s,katiba,jokofu,mikopo,NA,NA,NA,NA,NA,NA,NA,NA,NA,NA,NA,NA,NA,NA,NA,NA,NA,NA,NA,NA,NA,NA,NA
4f360,Shallow Question,html.Page,1_1_1_1_0,NA,NA,form submission,9723.9700000015,249427.7,249417.964,249434.63,259158.6,259158.9,2023-03-30T11:48:40Z,259168.247,"c(""distractor1"", ""distractor2"", ""distractor3"")",Gegenwart,hadhara,s,katiba,jokofu,mikopo,mikopo,NA,NA,NA,NA,NA,NA,NA,NA,NA,NA,NA,NA,NA,NA,NA,NA,NA,NA,NA,NA,NA,NA
4f360,"""Richtig""-Screen",canvas.Screen,1_1_1_1_1,NA,NA,skipped,NA,259161.5,NA,NA,259158.6,259161.6,2023-03-30T11:48:40Z,259168.247,"c(""distractor1"", ""distractor2"", ""distractor3"")",Gegenwart,hadhara,s,katiba,jokofu,mikopo,NA,NA,NA,NA,NA,NA,NA,NA,NA,NA,NA,NA,NA,NA,NA,NA,NA,NA,NA,NA,NA,NA,NA
4f360,"""Falsch""-Screen",canvas.Screen,1_1_1_1_2,NA,NA,timeout,4999.8,259162.6,259151.581,259168.247,264151.381,264154.2,2023-03-30T11:48:45Z,264168.047,"c(""distractor1"", ""distractor2"", ""distractor3"")",Gegenwart,hadhara,s,katiba,jokofu,mikopo,NA,NA,0,NA,NA,NA,NA,NA,NA,NA,NA,NA,NA,NA,NA,NA,NA,NA,NA,NA,NA,NA,NA
4f360,shallow,flow.Sequence,1_1_1_1,NA,NA,completion,14716.751,249427.6,249417.964,249434.63,264151.381,264154.7,2023-03-30T11:48:45Z,264168.047,"c(""distractor1"", ""distractor2"", ""distractor3"")",Gegenwart,hadhara,s,katiba,jokofu,mikopo,NA,NA,NA,NA,NA,NA,NA,NA,NA,NA,NA,NA,NA,NA,NA,NA,NA,NA,NA,NA,NA,NA,NA
4f360,task,flow.Sequence,1_1_1,NA,NA,completion,14716.751,249427.4,249417.964,249434.63,264151.381,264155,2023-03-30T11:48:45Z,264168.047,"c(""distractor1"", ""distractor2"", ""distractor3"")",Gegenwart,hadhara,s,katiba,jokofu,mikopo,NA,NA,NA,NA,NA,NA,NA,NA,NA,NA,NA,NA,NA,NA,NA,NA,NA,NA,NA,NA,NA,NA,NA
4f360,deep,flow.Sequence,1_1_2_0,NA,NA,skipped,NA,264155.3,NA,NA,264151.381,264155.5,2023-03-30T11:48:45Z,264168.047,"c(""distractor1"", ""distractor2"", ""distractor3"")",Kritik,lawama,s,dereva,nafasi,mawazo,NA,NA,NA,NA,NA,NA,NA,NA,NA,NA,NA,NA,NA,NA,NA,NA,NA,NA,NA,NA,NA,NA,NA
4f360,Shallow Question,html.Page,1_1_2_1_0,NA,NA,form submission,7455.953,264155.7,264151.381,264168.047,271624,271624.8,2023-03-30T11:48:53Z,271635.071,"c(""distractor1"", ""distractor2"", ""distractor3"")",Kritik,lawama,s,dereva,nafasi,mawazo,nafasi,NA,NA,NA,NA,NA,NA,NA,NA,NA,NA,NA,NA,NA,NA,NA,NA,NA,NA,NA,NA,NA,NA
4f360,"""Richtig""-Screen",canvas.Screen,1_1_2_1_1,NA,NA,skipped,NA,271627.3,NA,NA,271624,271627.5,2023-03-30T11:48:53Z,271635.071,"c(""distractor1"", ""distractor2"", ""distractor3"")",Kritik,lawama,s,dereva,nafasi,mawazo,NA,NA,NA,NA,NA,NA,NA,NA,NA,NA,NA,NA,NA,NA,NA,NA,NA,NA,NA,NA,NA,NA,NA
4f360,"""Falsch""-Screen",canvas.Screen,1_1_2_1_2,NA,NA,timeout,4999.8,271628.6,271618.405,271635.071,276618.205,276620.8,2023-03-30T11:48:58Z,276634.871,"c(""distractor1"", ""distractor2"", ""distractor3"")",Kritik,lawama,s,dereva,nafasi,mawazo,NA,NA,0,NA,NA,NA,NA,NA,NA,NA,NA,NA,NA,NA,NA,NA,NA,NA,NA,NA,NA,NA,NA
4f360,shallow,flow.Sequence,1_1_2_1,NA,NA,completion,12450.158,264155.6,264151.381,264168.047,276618.205,276621.2,2023-03-30T11:48:58Z,276634.871,"c(""distractor1"", ""distractor2"", ""distractor3"")",Kritik,lawama,s,dereva,nafasi,mawazo,NA,NA,NA,NA,NA,NA,NA,NA,NA,NA,NA,NA,NA,NA,NA,NA,NA,NA,NA,NA,NA,NA,NA
4f360,task,flow.Sequence,1_1_2,NA,NA,completion,12450.158,264155.2,264151.381,264168.047,276618.205,276621.4,2023-03-30T11:48:58Z,276634.871,"c(""distractor1"", ""distractor2"", ""distractor3"")",Kritik,lawama,s,dereva,nafasi,mawazo,NA,NA,NA,NA,NA,NA,NA,NA,NA,NA,NA,NA,NA,NA,NA,NA,NA,NA,NA,NA,NA,NA,NA
4f360,deep,flow.Sequence,1_1_3_0,NA,NA,skipped,NA,276621.5,NA,NA,276618.205,276621.6,2023-03-30T11:48:58Z,276634.871,"c(""distractor1"", ""distractor2"", ""distractor3"")",Rückhalt,msaada,s,muhula,auwali,kiwimbe,NA,NA,NA,NA,NA,NA,NA,NA,NA,NA,NA,NA,NA,NA,NA,NA,NA,NA,NA,NA,NA,NA,NA
4f360,Shallow Question,html.Page,1_1_3_1_0,NA,NA,form submission,5723.8290000011,276621.8,276618.205,276634.871,282358.7,282359.1,2023-03-30T11:49:03Z,282368.554,"c(""distractor1"", ""distractor2"", ""distractor3"")",Rückhalt,msaada,s,muhula,auwali,kiwimbe,msaada,NA,NA,NA,NA,NA,NA,NA,NA,NA,NA,NA,NA,NA,NA,NA,NA,NA,NA,NA,NA,NA,NA
4f360,"""Richtig""-Screen",canvas.Screen,1_1_3_1_1,NA,NA,timeout,4999.8,282363,282351.888,282368.554,287351.688,287356,2023-03-30T11:49:08Z,287368.354,"c(""distractor1"", ""distractor2"", ""distractor3"")",Rückhalt,msaada,s,muhula,auwali,kiwimbe,NA,NA,1,NA,NA,NA,NA,NA,NA,NA,NA,NA,NA,NA,NA,NA,NA,NA,NA,NA,NA,NA,NA
4f360,"""Falsch""-Screen",canvas.Screen,1_1_3_1_2,NA,NA,skipped,NA,287360.7,NA,NA,287351.688,287360.8,2023-03-30T11:49:08Z,287368.354,"c(""distractor1"", ""distractor2"", ""distractor3"")",Rückhalt,msaada,s,muhula,auwali,kiwimbe,NA,NA,NA,NA,NA,NA,NA,NA,NA,NA,NA,NA,NA,NA,NA,NA,NA,NA,NA,NA,NA,NA,NA
4f360,shallow,flow.Sequence,1_1_3_1,NA,NA,completion,10716.817,276621.7,276618.205,276634.871,287351.688,287361.1,2023-03-30T11:49:08Z,287368.354,"c(""distractor1"", ""distractor2"", ""distractor3"")",Rückhalt,msaada,s,muhula,auwali,kiwimbe,NA,NA,NA,NA,NA,NA,NA,NA,NA,NA,NA,NA,NA,NA,NA,NA,NA,NA,NA,NA,NA,NA,NA
4f360,task,flow.Sequence,1_1_3,NA,NA,completion,10716.817,276621.5,276618.205,276634.871,287351.688,287361.3,2023-03-30T11:49:08Z,287368.354,"c(""distractor1"", ""distractor2"", ""distractor3"")",Rückhalt,msaada,s,muhula,auwali,kiwimbe,NA,NA,NA,NA,NA,NA,NA,NA,NA,NA,NA,NA,NA,NA,NA,NA,NA,NA,NA,NA,NA,NA,NA
4f360,Deep Question,html.Page,1_1_4_0_0,NA,NA,form submission,6237.5460000004005,287361.5,287351.688,287368.354,293605.9,293606.2,2023-03-30T11:49:15Z,293618.65,"c(""distractor1"", ""distractor2"", ""distractor3"")",Gesundheit,salama,d,NA,NA,NA,m,NA,NA,NA,NA,NA,NA,NA,NA,NA,NA,NA,NA,NA,NA,NA,NA,NA,NA,NA,NA,NA,NA
4f360,"""Richtig""-Screen",canvas.Screen,1_1_4_0_1,NA,NA,skipped,NA,293608.1,NA,NA,293605.9,293608.2,2023-03-30T11:49:15Z,293618.65,"c(""distractor1"", ""distractor2"", ""distractor3"")",Gesundheit,salama,d,NA,NA,NA,NA,NA,NA,NA,NA,NA,NA,NA,NA,NA,NA,NA,NA,NA,NA,NA,NA,NA,NA,NA,NA,NA,NA
4f360,"""Falsch""-Screen",canvas.Screen,1_1_4_0_2,NA,NA,timeout,4999.8,293608.7,293601.984,293618.65,298601.784,298607.3,2023-03-30T11:49:20Z,298618.45,"c(""distractor1"", ""distractor2"", ""distractor3"")",Gesundheit,salama,d,NA,NA,NA,NA,NA,0,NA,NA,NA,NA,NA,NA,NA,NA,NA,NA,NA,NA,NA,NA,NA,NA,NA,NA,NA,NA
4f360,deep,flow.Sequence,1_1_4_0,NA,NA,completion,11233.43,287361.5,287351.688,287368.354,298601.784,298607.7,2023-03-30T11:49:20Z,298618.45,"c(""distractor1"", ""distractor2"", ""distractor3"")",Gesundheit,salama,d,NA,NA,NA,NA,NA,NA,NA,NA,NA,NA,NA,NA,NA,NA,NA,NA,NA,NA,NA,NA,NA,NA,NA,NA,NA,NA
4f360,shallow,flow.Sequence,1_1_4_1,NA,NA,skipped,NA,298607.9,NA,NA,298601.784,298608,2023-03-30T11:49:20Z,298618.45,"c(""distractor1"", ""distractor2"", ""distractor3"")",Gesundheit,salama,d,NA,NA,NA,NA,NA,NA,NA,NA,NA,NA,NA,NA,NA,NA,NA,NA,NA,NA,NA,NA,NA,NA,NA,NA,NA,NA
4f360,task,flow.Sequence,1_1_4,NA,NA,completion,11233.43,287361.4,287351.688,287368.354,298601.784,298608.2,2023-03-30T11:49:20Z,298618.45,"c(""distractor1"", ""distractor2"", ""distractor3"")",Gesundheit,salama,d,NA,NA,NA,NA,NA,NA,NA,NA,NA,NA,NA,NA,NA,NA,NA,NA,NA,NA,NA,NA,NA,NA,NA,NA,NA,NA
4f360,Deep Question,html.Page,1_1_5_0_0,NA,NA,form submission,4653.2500000011,298608.4,298601.784,298618.45,303271.7,303271.8,2023-03-30T11:49:24Z,303285.479,"c(""distractor1"", ""distractor2"", ""distractor3"")",Qualität,mtindo,d,NA,NA,NA,z,NA,NA,NA,NA,NA,NA,NA,NA,NA,NA,NA,NA,NA,NA,NA,NA,NA,NA,NA,NA,NA,NA
4f360,"""Richtig""-Screen",canvas.Screen,1_1_5_0_1,NA,NA,skipped,NA,303273.9,NA,NA,303271.7,303274,2023-03-30T11:49:24Z,303285.479,"c(""distractor1"", ""distractor2"", ""distractor3"")",Qualität,mtindo,d,NA,NA,NA,NA,NA,NA,NA,NA,NA,NA,NA,NA,NA,NA,NA,NA,NA,NA,NA,NA,NA,NA,NA,NA,NA,NA
4f360,"""Falsch""-Screen",canvas.Screen,1_1_5_0_2,NA,NA,timeout,4999.8,303274.5,303268.813,303285.479,308268.613,308273.2,2023-03-30T11:49:29Z,308285.279,"c(""distractor1"", ""distractor2"", ""distractor3"")",Qualität,mtindo,d,NA,NA,NA,NA,NA,0,NA,NA,NA,NA,NA,NA,NA,NA,NA,NA,NA,NA,NA,NA,NA,NA,NA,NA,NA,NA
4f360,deep,flow.Sequence,1_1_5_0,NA,NA,completion,9650.163,298608.4,298601.784,298618.45,308268.613,308273.7,2023-03-30T11:49:29Z,308285.279,"c(""distractor1"", ""distractor2"", ""distractor3"")",Qualität,mtindo,d,NA,NA,NA,NA,NA,NA,NA,NA,NA,NA,NA,NA,NA,NA,NA,NA,NA,NA,NA,NA,NA,NA,NA,NA,NA,NA
4f360,shallow,flow.Sequence,1_1_5_1,NA,NA,skipped,NA,308273.8,NA,NA,308268.613,308274,2023-03-30T11:49:29Z,308285.279,"c(""distractor1"", ""distractor2"", ""distractor3"")",Qualität,mtindo,d,NA,NA,NA,NA,NA,NA,NA,NA,NA,NA,NA,NA,NA,NA,NA,NA,NA,NA,NA,NA,NA,NA,NA,NA,NA,NA
4f360,task,flow.Sequence,1_1_5,NA,NA,completion,9650.163,298608.3,298601.784,298618.45,308268.613,308274.2,2023-03-30T11:49:29Z,308285.279,"c(""distractor1"", ""distractor2"", ""distractor3"")",Qualität,mtindo,d,NA,NA,NA,NA,NA,NA,NA,NA,NA,NA,NA,NA,NA,NA,NA,NA,NA,NA,NA,NA,NA,NA,NA,NA,NA,NA
4f360,block,flow.Loop,1_1,NA,NA,completion,75867.178,232387.1,232384.769,232401.435,308268.613,308274.5,2023-03-30T11:49:29Z,308285.279,"c(""distractor1"", ""distractor2"", ""distractor3"")",NA,NA,NA,NA,NA,NA,NA,NA,NA,NA,NA,NA,NA,NA,NA,NA,NA,NA,NA,NA,NA,NA,NA,NA,NA,NA,NA,NA,NA
4f360,Practice,flow.Sequence,1,NA,NA,completion,77436.096,230831.5,230815.851,230832.517,308268.613,308274.7,2023-03-30T11:49:29Z,308285.279,NULL,NA,NA,NA,NA,NA,NA,NA,NA,NA,NA,NA,NA,NA,NA,NA,NA,NA,NA,NA,NA,NA,NA,NA,NA,NA,NA,NA,NA,NA
4f360,Experiment start,canvas.Screen,2,weiter,keypress(q),response,14867.721,308274.9,308268.613,308285.279,323153,323159.2,2023-03-30T11:49:44Z,323201.349,NULL,NA,NA,NA,NA,NA,NA,NA,NA,NA,NA,NA,NA,NA,NA,NA,NA,NA,NA,NA,NA,NA,NA,NA,NA,NA,NA,NA,NA,NA
4f360,Deep Question,html.Page,3_0_0_0_0_0_0,NA,NA,form submission,10071.251000002,323216.1,323151.351,323201.349,333272.6,333272.8,2023-03-30T11:49:54Z,333285.525,NULL,Sänger,mwimbaji,d,NA,NA,NA,s,NA,NA,0,NA,NA,NA,NA,NA,NA,NA,NA,NA,NA,NA,NA,NA,NA,NA,NA,NA,NA,NA
4f360,"""Richtig""-Screen",canvas.Screen,3_0_0_0_0_0_1,NA,NA,skipped,NA,333274.8,NA,NA,333272.6,333274.9,2023-03-30T11:49:54Z,333285.525,NULL,Sänger,mwimbaji,d,NA,NA,NA,NA,sdf,NA,0,NA,NA,NA,NA,NA,NA,NA,NA,NA,NA,NA,NA,NA,NA,NA,NA,NA,NA,NA
4f360,"""Falsch""-Screen",canvas.Screen,3_0_0_0_0_0_2,NA,NA,timeout,5000.36,333275.2,333268.859,333285.525,338269.219,338274.1,2023-03-30T11:49:59Z,338285.885,NULL,Sänger,mwimbaji,d,NA,NA,NA,NA,sdf,0,0,NA,NA,NA,NA,NA,NA,NA,NA,NA,NA,NA,NA,NA,NA,NA,NA,NA,NA,NA
4f360,deep,flow.Sequence,3_0_0_0_0_0,NA,NA,completion,15067.87,323216.1,323151.351,323201.349,338269.219,338274.5,2023-03-30T11:49:59Z,338285.885,NULL,Sänger,mwimbaji,d,NA,NA,NA,NA,sdf,NA,0,NA,NA,NA,NA,NA,NA,NA,NA,NA,NA,NA,NA,NA,NA,NA,NA,NA,NA,NA
4f360,shallow,flow.Sequence,3_0_0_0_0_1,NA,NA,skipped,NA,338274.7,NA,NA,338269.219,338274.8,2023-03-30T11:49:59Z,338285.885,NULL,Sänger,mwimbaji,d,NA,NA,NA,NA,sdf,NA,0,NA,NA,NA,NA,NA,NA,NA,NA,NA,NA,NA,NA,NA,NA,NA,NA,NA,NA,NA
4f360,task,flow.Sequence,3_0_0_0_0,NA,NA,completion,15067.87,323216.1,323151.351,323201.349,338269.219,338275,2023-03-30T11:49:59Z,338285.885,NULL,Sänger,mwimbaji,d,NA,NA,NA,NA,sdf,NA,0,NA,NA,NA,NA,NA,NA,NA,NA,NA,NA,NA,NA,NA,NA,NA,NA,NA,NA,NA
4f360,deep,flow.Sequence,3_0_0_0_1_0,NA,NA,skipped,NA,338275.1,NA,NA,338269.219,338275.2,2023-03-30T11:49:59Z,338285.885,NULL,Schönheit,kirembo,s,mahojiano,msisimko,jitihadi,NA,sdf,NA,0,NA,NA,NA,NA,NA,NA,NA,NA,NA,NA,NA,NA,NA,NA,NA,NA,NA,NA,NA
4f360,Shallow Question,html.Page,3_0_0_0_1_1_0,NA,NA,form submission,10490.615,338275.3,338269.219,338285.885,348776.5,348776.8,2023-03-30T11:50:10Z,348786.111,NULL,Schönheit,kirembo,s,mahojiano,msisimko,jitihadi,msisimko,NA,NA,0,NA,NA,NA,NA,NA,NA,NA,NA,NA,NA,NA,NA,NA,NA,NA,NA,NA,NA,NA
4f360,"""Richtig""-Screen",canvas.Screen,3_0_0_0_1_1_1,NA,NA,skipped,NA,348779.1,NA,NA,348776.5,348779.3,2023-03-30T11:50:10Z,348786.111,NULL,Schönheit,kirembo,s,mahojiano,msisimko,jitihadi,NA,sdf,NA,0,NA,NA,NA,NA,NA,NA,NA,NA,NA,NA,NA,NA,NA,NA,NA,NA,NA,NA,NA
4f360,"""Falsch""-Screen",canvas.Screen,3_0_0_0_1_1_2,NA,NA,timeout,4999.8,348780,348769.445,348786.111,353769.245,353772.4,2023-03-30T11:50:15Z,353785.911,NULL,Schönheit,kirembo,s,mahojiano,msisimko,jitihadi,NA,sdf,0,0,NA,NA,NA,NA,NA,NA,NA,NA,NA,NA,NA,NA,NA,NA,NA,NA,NA,NA,NA
4f360,shallow,flow.Sequence,3_0_0_0_1_1,NA,NA,completion,15483.36,338275.3,338269.219,338285.885,353769.245,353773,2023-03-30T11:50:15Z,353785.911,NULL,Schönheit,kirembo,s,mahojiano,msisimko,jitihadi,NA,sdf,NA,0,NA,NA,NA,NA,NA,NA,NA,NA,NA,NA,NA,NA,NA,NA,NA,NA,NA,NA,NA
4f360,task,flow.Sequence,3_0_0_0_1,NA,NA,completion,15483.36,338275.1,338269.219,338285.885,353769.245,353773.2,2023-03-30T11:50:15Z,353785.911,NULL,Schönheit,kirembo,s,mahojiano,msisimko,jitihadi,NA,sdf,NA,0,NA,NA,NA,NA,NA,NA,NA,NA,NA,NA,NA,NA,NA,NA,NA,NA,NA,NA,NA
4f360,Deep Question,html.Page,3_0_0_0_2_0_0,NA,NA,form submission,5404.1890000015,353773.4,353769.245,353785.911,359190.1,359190.3,2023-03-30T11:50:20Z,359202.904,NULL,Auftrag,uagizaji,d,NA,NA,NA,z,NA,NA,0,NA,NA,NA,NA,NA,NA,NA,NA,NA,NA,NA,NA,NA,NA,NA,NA,NA,NA,NA
4f360,"""Richtig""-Screen",canvas.Screen,3_0_0_0_2_0_1,NA,NA,skipped,NA,359192.3,NA,NA,359190.1,359192.4,2023-03-30T11:50:20Z,359202.904,NULL,Auftrag,uagizaji,d,NA,NA,NA,NA,sdf,NA,0,NA,NA,NA,NA,NA,NA,NA,NA,NA,NA,NA,NA,NA,NA,NA,NA,NA,NA,NA
4f360,"""Falsch""-Screen",canvas.Screen,3_0_0_0_2_0_2,NA,NA,timeout,4999.8,359192.8,359186.238,359202.904,364186.038,364191,2023-03-30T11:50:25Z,364202.704,NULL,Auftrag,uagizaji,d,NA,NA,NA,NA,sdf,0,0,NA,NA,NA,NA,NA,NA,NA,NA,NA,NA,NA,NA,NA,NA,NA,NA,NA,NA,NA
4f360,deep,flow.Sequence,3_0_0_0_2_0,NA,NA,completion,10400.127,353773.4,353769.245,353785.911,364186.038,364191.4,2023-03-30T11:50:25Z,364202.704,NULL,Auftrag,uagizaji,d,NA,NA,NA,NA,sdf,NA,0,NA,NA,NA,NA,NA,NA,NA,NA,NA,NA,NA,NA,NA,NA,NA,NA,NA,NA,NA
4f360,shallow,flow.Sequence,3_0_0_0_2_1,NA,NA,skipped,NA,364191.5,NA,NA,364186.038,364191.6,2023-03-30T11:50:25Z,364202.704,NULL,Auftrag,uagizaji,d,NA,NA,NA,NA,sdf,NA,0,NA,NA,NA,NA,NA,NA,NA,NA,NA,NA,NA,NA,NA,NA,NA,NA,NA,NA,NA
4f360,task,flow.Sequence,3_0_0_0_2,NA,NA,completion,10400.127,353773.3,353769.245,353785.911,364186.038,364191.8,2023-03-30T11:50:25Z,364202.704,NULL,Auftrag,uagizaji,d,NA,NA,NA,NA,sdf,NA,0,NA,NA,NA,NA,NA,NA,NA,NA,NA,NA,NA,NA,NA,NA,NA,NA,NA,NA,NA
4f360,Deep Question,html.Page,3_0_0_0_3_0_0,NA,NA,form submission,6321.1960000003,364192,364186.038,364202.704,370523.9,370524.1,2023-03-30T11:50:32Z,370536.355,NULL,Angreifer,mshambulizi,d,NA,NA,NA,j,NA,NA,0,NA,NA,NA,NA,NA,NA,NA,NA,NA,NA,NA,NA,NA,NA,NA,NA,NA,NA,NA
4f360,"""Richtig""-Screen",canvas.Screen,3_0_0_0_3_0_1,NA,NA,skipped,NA,370526.1,NA,NA,370523.9,370526.2,2023-03-30T11:50:32Z,370536.355,NULL,Angreifer,mshambulizi,d,NA,NA,NA,NA,sdf,NA,0,NA,NA,NA,NA,NA,NA,NA,NA,NA,NA,NA,NA,NA,NA,NA,NA,NA,NA,NA
4f360,"""Falsch""-Screen",canvas.Screen,3_0_0_0_3_0_2,NA,NA,timeout,4999.8,370526.6,370519.689,370536.355,375519.489,375520.9,2023-03-30T11:50:37Z,375536.155,NULL,Angreifer,mshambulizi,d,NA,NA,NA,NA,sdf,0,0,NA,NA,NA,NA,NA,NA,NA,NA,NA,NA,NA,NA,NA,NA,NA,NA,NA,NA,NA
4f360,deep,flow.Sequence,3_0_0_0_3_0,NA,NA,completion,11316.785,364192,364186.038,364202.704,375519.489,375521.2,2023-03-30T11:50:37Z,375536.155,NULL,Angreifer,mshambulizi,d,NA,NA,NA,NA,sdf,NA,0,NA,NA,NA,NA,NA,NA,NA,NA,NA,NA,NA,NA,NA,NA,NA,NA,NA,NA,NA
4f360,shallow,flow.Sequence,3_0_0_0_3_1,NA,NA,skipped,NA,375521.3,NA,NA,375519.489,375521.4,2023-03-30T11:50:37Z,375536.155,NULL,Angreifer,mshambulizi,d,NA,NA,NA,NA,sdf,NA,0,NA,NA,NA,NA,NA,NA,NA,NA,NA,NA,NA,NA,NA,NA,NA,NA,NA,NA,NA
4f360,task,flow.Sequence,3_0_0_0_3,NA,NA,completion,11316.785,364192,364186.038,364202.704,375519.489,375521.6,2023-03-30T11:50:37Z,375536.155,NULL,Angreifer,mshambulizi,d,NA,NA,NA,NA,sdf,NA,0,NA,NA,NA,NA,NA,NA,NA,NA,NA,NA,NA,NA,NA,NA,NA,NA,NA,NA,NA
4f360,deep,flow.Sequence,3_0_0_0_4_0,NA,NA,skipped,NA,375521.7,NA,NA,375519.489,375521.8,2023-03-30T11:50:37Z,375536.155,NULL,Kanzler,diwani,s,rasilmali,mahitaji,maabudu,NA,sdf,NA,0,NA,NA,NA,NA,NA,NA,NA,NA,NA,NA,NA,NA,NA,NA,NA,NA,NA,NA,NA
4f360,Shallow Question,html.Page,3_0_0_0_4_1_0,NA,NA,form submission,6372.345,375521.9,375519.489,375536.155,381908.5,381909,2023-03-30T11:50:43Z,381919.772,NULL,Kanzler,diwani,s,rasilmali,mahitaji,maabudu,maabudu,NA,NA,0,NA,NA,NA,NA,NA,NA,NA,NA,NA,NA,NA,NA,NA,NA,NA,NA,NA,NA,NA
4f360,"""Richtig""-Screen",canvas.Screen,3_0_0_0_4_1_1,NA,NA,skipped,NA,381913.1,NA,NA,381908.5,381913.3,2023-03-30T11:50:43Z,381919.772,NULL,Kanzler,diwani,s,rasilmali,mahitaji,maabudu,NA,sdf,NA,0,NA,NA,NA,NA,NA,NA,NA,NA,NA,NA,NA,NA,NA,NA,NA,NA,NA,NA,NA
4f360,"""Falsch""-Screen",canvas.Screen,3_0_0_0_4_1_2,NA,NA,timeout,4999.8,381914,381903.106,381919.772,386902.906,386906.6,2023-03-30T11:50:48Z,386919.572,NULL,Kanzler,diwani,s,rasilmali,mahitaji,maabudu,NA,sdf,0,0,NA,NA,NA,NA,NA,NA,NA,NA,NA,NA,NA,NA,NA,NA,NA,NA,NA,NA,NA
4f360,shallow,flow.Sequence,3_0_0_0_4_1,NA,NA,completion,11366.751,375521.8,375519.489,375536.155,386902.906,386907.1,2023-03-30T11:50:48Z,386919.572,NULL,Kanzler,diwani,s,rasilmali,mahitaji,maabudu,NA,sdf,NA,0,NA,NA,NA,NA,NA,NA,NA,NA,NA,NA,NA,NA,NA,NA,NA,NA,NA,NA,NA
4f360,task,flow.Sequence,3_0_0_0_4,NA,NA,completion,11366.751,375521.7,375519.489,375536.155,386902.906,386907.2,2023-03-30T11:50:48Z,386919.572,NULL,Kanzler,diwani,s,rasilmali,mahitaji,maabudu,NA,sdf,NA,0,NA,NA,NA,NA,NA,NA,NA,NA,NA,NA,NA,NA,NA,NA,NA,NA,NA,NA,NA
4f360,Deep Question,html.Page,3_0_0_0_5_0_0,NA,NA,form submission,7855.2280000008,386907.5,386902.906,386919.572,394774.8,394775,2023-03-30T11:50:56Z,394786.454,NULL,Wettbewerb,ushindani,d,NA,NA,NA,u,NA,NA,0,NA,NA,NA,NA,NA,NA,NA,NA,NA,NA,NA,NA,NA,NA,NA,NA,NA,NA,NA
4f360,"""Richtig""-Screen",canvas.Screen,3_0_0_0_5_0_1,NA,NA,skipped,NA,394777.5,NA,NA,394774.8,394777.6,2023-03-30T11:50:56Z,394786.454,NULL,Wettbewerb,ushindani,d,NA,NA,NA,NA,sdf,NA,0,NA,NA,NA,NA,NA,NA,NA,NA,NA,NA,NA,NA,NA,NA,NA,NA,NA,NA,NA
4f360,"""Falsch""-Screen",canvas.Screen,3_0_0_0_5_0_2,NA,NA,timeout,4999.8,394778.2,394769.788,394786.454,399769.588,399771.4,2023-03-30T11:51:01Z,399786.254,NULL,Wettbewerb,ushindani,d,NA,NA,NA,NA,sdf,0,0,NA,NA,NA,NA,NA,NA,NA,NA,NA,NA,NA,NA,NA,NA,NA,NA,NA,NA,NA
4f360,deep,flow.Sequence,3_0_0_0_5_0,NA,NA,completion,12850.016,386907.4,386902.906,386919.572,399769.588,399771.9,2023-03-30T11:51:01Z,399786.254,NULL,Wettbewerb,ushindani,d,NA,NA,NA,NA,sdf,NA,0,NA,NA,NA,NA,NA,NA,NA,NA,NA,NA,NA,NA,NA,NA,NA,NA,NA,NA,NA
4f360,shallow,flow.Sequence,3_0_0_0_5_1,NA,NA,skipped,NA,399772,NA,NA,399769.588,399772.1,2023-03-30T11:51:01Z,399786.254,NULL,Wettbewerb,ushindani,d,NA,NA,NA,NA,sdf,NA,0,NA,NA,NA,NA,NA,NA,NA,NA,NA,NA,NA,NA,NA,NA,NA,NA,NA,NA,NA
4f360,task,flow.Sequence,3_0_0_0_5,NA,NA,completion,12850.016,386907.3,386902.906,386919.572,399769.588,399772.3,2023-03-30T11:51:01Z,399786.254,NULL,Wettbewerb,ushindani,d,NA,NA,NA,NA,sdf,NA,0,NA,NA,NA,NA,NA,NA,NA,NA,NA,NA,NA,NA,NA,NA,NA,NA,NA,NA,NA
4f360,deep,flow.Sequence,3_0_0_0_6_0,NA,NA,skipped,NA,399772.5,NA,NA,399769.588,399772.5,2023-03-30T11:51:01Z,399786.254,NULL,Abrechnung,uhasibu,s,kusahihisha,mpambano,mashambulizi,NA,sdf,NA,0,NA,NA,NA,NA,NA,NA,NA,NA,NA,NA,NA,NA,NA,NA,NA,NA,NA,NA,NA
4f360,Shallow Question,html.Page,3_0_0_0_6_1_0,NA,NA,form submission,7790.1460000004,399772.8,399769.588,399786.254,407576.4,407576.9,2023-03-30T11:51:09Z,407586.582,NULL,Abrechnung,uhasibu,s,kusahihisha,mpambano,mashambulizi,mpambano,NA,NA,0,NA,NA,NA,NA,NA,NA,NA,NA,NA,NA,NA,NA,NA,NA,NA,NA,NA,NA,NA
4f360,"""Richtig""-Screen",canvas.Screen,3_0_0_0_6_1_1,NA,NA,skipped,NA,407581.1,NA,NA,407576.4,407581.3,2023-03-30T11:51:09Z,407586.582,NULL,Abrechnung,uhasibu,s,kusahihisha,mpambano,mashambulizi,NA,sdf,NA,0,NA,NA,NA,NA,NA,NA,NA,NA,NA,NA,NA,NA,NA,NA,NA,NA,NA,NA,NA
4f360,"""Falsch""-Screen",canvas.Screen,3_0_0_0_6_1_2,NA,NA,timeout,4999.8,407582,407569.916,407586.582,412569.716,412574.9,2023-03-30T11:51:14Z,412586.382,NULL,Abrechnung,uhasibu,s,kusahihisha,mpambano,mashambulizi,NA,sdf,0,0,NA,NA,NA,NA,NA,NA,NA,NA,NA,NA,NA,NA,NA,NA,NA,NA,NA,NA,NA
4f360,shallow,flow.Sequence,3_0_0_0_6_1,NA,NA,completion,12783.462,399772.7,399769.588,399786.254,412569.716,412575.4,2023-03-30T11:51:14Z,412586.382,NULL,Abrechnung,uhasibu,s,kusahihisha,mpambano,mashambulizi,NA,sdf,NA,0,NA,NA,NA,NA,NA,NA,NA,NA,NA,NA,NA,NA,NA,NA,NA,NA,NA,NA,NA
4f360,task,flow.Sequence,3_0_0_0_6,NA,NA,completion,12783.462,399772.4,399769.588,399786.254,412569.716,412575.5,2023-03-30T11:51:14Z,412586.382,NULL,Abrechnung,uhasibu,s,kusahihisha,mpambano,mashambulizi,NA,sdf,NA,0,NA,NA,NA,NA,NA,NA,NA,NA,NA,NA,NA,NA,NA,NA,NA,NA,NA,NA,NA
4f360,deep,flow.Sequence,3_0_0_0_7_0,NA,NA,skipped,NA,412575.7,NA,NA,412569.716,412575.9,2023-03-30T11:51:14Z,412586.382,NULL,Zufall,kikuti,s,kukosekana,uchoraji,leseni,NA,sdf,NA,0,NA,NA,NA,NA,NA,NA,NA,NA,NA,NA,NA,NA,NA,NA,NA,NA,NA,NA,NA
4f360,Shallow Question,html.Page,3_0_0_0_7_1_0,NA,NA,form submission,5756.8180000011,412576.1,412569.716,412586.382,418343.2,418343.4,2023-03-30T11:51:19Z,418353.489,NULL,Zufall,kikuti,s,kukosekana,uchoraji,leseni,kikuti,NA,NA,0,NA,NA,NA,NA,NA,NA,NA,NA,NA,NA,NA,NA,NA,NA,NA,NA,NA,NA,NA
4f360,"""Richtig""-Screen",canvas.Screen,3_0_0_0_7_1_1,NA,NA,timeout,4999.8,418345.6,418336.823,418353.489,423336.623,423340.8,2023-03-30T11:51:24Z,423353.289,NULL,Zufall,kikuti,s,kukosekana,uchoraji,leseni,NA,sdf,1,0,NA,NA,NA,NA,NA,NA,NA,NA,NA,NA,NA,NA,NA,NA,NA,NA,NA,NA,NA
4f360,"""Falsch""-Screen",canvas.Screen,3_0_0_0_7_1_2,NA,NA,skipped,NA,423344.9,NA,NA,423336.623,423345,2023-03-30T11:51:24Z,423353.289,NULL,Zufall,kikuti,s,kukosekana,uchoraji,leseni,NA,sdf,NA,0,NA,NA,NA,NA,NA,NA,NA,NA,NA,NA,NA,NA,NA,NA,NA,NA,NA,NA,NA
4f360,shallow,flow.Sequence,3_0_0_0_7_1,NA,NA,completion,10750.241,412576,412569.716,412586.382,423336.623,423345.2,2023-03-30T11:51:24Z,423353.289,NULL,Zufall,kikuti,s,kukosekana,uchoraji,leseni,NA,sdf,NA,0,NA,NA,NA,NA,NA,NA,NA,NA,NA,NA,NA,NA,NA,NA,NA,NA,NA,NA,NA
4f360,task,flow.Sequence,3_0_0_0_7,NA,NA,completion,10750.241,412575.7,412569.716,412586.382,423336.623,423345.2,2023-03-30T11:51:24Z,423353.289,NULL,Zufall,kikuti,s,kukosekana,uchoraji,leseni,NA,sdf,NA,0,NA,NA,NA,NA,NA,NA,NA,NA,NA,NA,NA,NA,NA,NA,NA,NA,NA,NA,NA
4f360,block,flow.Loop,3_0_0_0,NA,NA,completion,100135.274,323216.1,323151.351,323201.349,423336.623,423345.3,2023-03-30T11:51:24Z,423353.289,NULL,NA,NA,NA,NA,NA,NA,NA,sdf,NA,0,NA,NA,NA,NA,NA,NA,NA,NA,NA,NA,NA,NA,NA,NA,NA,NA,NA,NA,NA
4f360,weiter,canvas.Screen,3_0_0_1,sdf,keypress(Space),response,10486.811000002,423345.4,423336.623,423353.289,433840.1,433846.7,2023-03-30T11:51:35Z,433870.149,NULL,NA,NA,NA,NA,NA,NA,NA,sdf,NA,0,NA,NA,NA,NA,NA,NA,NA,NA,NA,NA,NA,NA,NA,NA,NA,NA,NA,NA,NA
4f360,check continue,flow.Sequence,3_0_0,NA,NA,completion,110638.751,323216.1,323151.351,323201.349,433840.1,433847,2023-03-30T11:51:35Z,433870.149,NULL,NA,NA,NA,NA,NA,NA,NA,sdf,NA,0,NA,NA,NA,NA,NA,NA,NA,NA,NA,NA,NA,NA,NA,NA,NA,NA,NA,NA,NA
4f360,deep,flow.Sequence,3_0_1_0_0_0,NA,NA,skipped,NA,433874.2,NA,NA,433840.1,433874.4,2023-03-30T11:51:35Z,433870.149,NULL,Abrechnung,uhasibu,s,kusahihisha,mpambano,mashambulizi,NA,sdfdsf,NA,1,NA,NA,NA,NA,NA,NA,NA,NA,NA,NA,NA,NA,NA,NA,NA,NA,NA,NA,NA
4f360,Shallow Question,html.Page,3_0_1_0_0_1_0,NA,NA,form submission,6589.351,433874.4,433836.817,433870.149,440459.5,440460.1,2023-03-30T11:51:42Z,440470.414,NULL,Abrechnung,uhasibu,s,kusahihisha,mpambano,mashambulizi,uhasibu,NA,NA,1,NA,NA,NA,NA,NA,NA,NA,NA,NA,NA,NA,NA,NA,NA,NA,NA,NA,NA,NA
4f360,"""Richtig""-Screen",canvas.Screen,3_0_1_0_0_1_1,NA,NA,timeout,4999.8,440463.9,440453.748,440470.414,445453.548,445458.2,2023-03-30T11:51:47Z,445470.214,NULL,Abrechnung,uhasibu,s,kusahihisha,mpambano,mashambulizi,NA,sdfdsf,1,1,NA,NA,NA,NA,NA,NA,NA,NA,NA,NA,NA,NA,NA,NA,NA,NA,NA,NA,NA
4f360,"""Falsch""-Screen",canvas.Screen,3_0_1_0_0_1_2,NA,NA,skipped,NA,445462.4,NA,NA,445453.548,445462.6,2023-03-30T11:51:47Z,445470.214,NULL,Abrechnung,uhasibu,s,kusahihisha,mpambano,mashambulizi,NA,sdfdsf,NA,1,NA,NA,NA,NA,NA,NA,NA,NA,NA,NA,NA,NA,NA,NA,NA,NA,NA,NA,NA
4f360,shallow,flow.Sequence,3_0_1_0_0_1,NA,NA,completion,11583.399,433874.4,433836.817,433870.149,445453.548,445462.8,2023-03-30T11:51:47Z,445470.214,NULL,Abrechnung,uhasibu,s,kusahihisha,mpambano,mashambulizi,NA,sdfdsf,NA,1,NA,NA,NA,NA,NA,NA,NA,NA,NA,NA,NA,NA,NA,NA,NA,NA,NA,NA,NA
4f360,task,flow.Sequence,3_0_1_0_0,NA,NA,completion,11583.399,433874.2,433836.817,433870.149,445453.548,445463,2023-03-30T11:51:47Z,445470.214,NULL,Abrechnung,uhasibu,s,kusahihisha,mpambano,mashambulizi,NA,sdfdsf,NA,1,NA,NA,NA,NA,NA,NA,NA,NA,NA,NA,NA,NA,NA,NA,NA,NA,NA,NA,NA
4f360,Deep Question,html.Page,3_0_1_0_1_0_0,NA,NA,form submission,10156.186,445463.2,445453.548,445470.214,455626.4,455626.8,2023-03-30T11:51:57Z,455637.095,NULL,Auftrag,uagizaji,d,NA,NA,NA,diwani,NA,NA,1,NA,NA,NA,NA,NA,NA,NA,NA,NA,NA,NA,NA,NA,NA,NA,NA,NA,NA,NA
4f360,"""Richtig""-Screen",canvas.Screen,3_0_1_0_1_0_1,NA,NA,skipped,NA,455629.2,NA,NA,455626.4,455629.4,2023-03-30T11:51:57Z,455637.095,NULL,Auftrag,uagizaji,d,NA,NA,NA,NA,sdfdsf,NA,1,NA,NA,NA,NA,NA,NA,NA,NA,NA,NA,NA,NA,NA,NA,NA,NA,NA,NA,NA
4f360,"""Falsch""-Screen",canvas.Screen,3_0_1_0_1_0_2,NA,NA,timeout,5000.3,455630.2,455620.429,455637.095,460620.729,460625,2023-03-30T11:52:02Z,460637.395,NULL,Auftrag,uagizaji,d,NA,NA,NA,NA,sdfdsf,0,1,NA,NA,NA,NA,NA,NA,NA,NA,NA,NA,NA,NA,NA,NA,NA,NA,NA,NA,NA
4f360,deep,flow.Sequence,3_0_1_0_1_0,NA,NA,completion,15150.515,445463.2,445453.548,445470.214,460620.729,460625.3,2023-03-30T11:52:02Z,460637.395,NULL,Auftrag,uagizaji,d,NA,NA,NA,NA,sdfdsf,NA,1,NA,NA,NA,NA,NA,NA,NA,NA,NA,NA,NA,NA,NA,NA,NA,NA,NA,NA,NA
4f360,shallow,flow.Sequence,3_0_1_0_1_1,NA,NA,skipped,NA,460625.3,NA,NA,460620.729,460625.5,2023-03-30T11:52:02Z,460637.395,NULL,Auftrag,uagizaji,d,NA,NA,NA,NA,sdfdsf,NA,1,NA,NA,NA,NA,NA,NA,NA,NA,NA,NA,NA,NA,NA,NA,NA,NA,NA,NA,NA
4f360,task,flow.Sequence,3_0_1_0_1,NA,NA,completion,15150.515,445463.1,445453.548,445470.214,460620.729,460625.6,2023-03-30T11:52:02Z,460637.395,NULL,Auftrag,uagizaji,d,NA,NA,NA,NA,sdfdsf,NA,1,NA,NA,NA,NA,NA,NA,NA,NA,NA,NA,NA,NA,NA,NA,NA,NA,NA,NA,NA
4f360,Deep Question,html.Page,3_0_1_0_2_0_0,NA,NA,form submission,7005.8050000011,460625.8,460620.729,460637.395,467643.2,467643.8,2023-03-30T11:52:09Z,467654.303,NULL,Angreifer,mshambulizi,d,NA,NA,NA,n,NA,NA,1,NA,NA,NA,NA,NA,NA,NA,NA,NA,NA,NA,NA,NA,NA,NA,NA,NA,NA,NA
4f360,"""Richtig""-Screen",canvas.Screen,3_0_1_0_2_0_1,NA,NA,skipped,NA,467647,NA,NA,467643.2,467647.1,2023-03-30T11:52:09Z,467654.303,NULL,Angreifer,mshambulizi,d,NA,NA,NA,NA,sdfdsf,NA,1,NA,NA,NA,NA,NA,NA,NA,NA,NA,NA,NA,NA,NA,NA,NA,NA,NA,NA,NA
4f360,"""Falsch""-Screen",canvas.Screen,3_0_1_0_2_0_2,NA,NA,timeout,4999.8,467647.9,467637.637,467654.303,472637.437,472641.1,2023-03-30T11:52:14Z,472654.103,NULL,Angreifer,mshambulizi,d,NA,NA,NA,NA,sdfdsf,0,1,NA,NA,NA,NA,NA,NA,NA,NA,NA,NA,NA,NA,NA,NA,NA,NA,NA,NA,NA
4f360,deep,flow.Sequence,3_0_1_0_2_0,NA,NA,completion,12000.042,460625.7,460620.729,460637.395,472637.437,472641.6,2023-03-30T11:52:14Z,472654.103,NULL,Angreifer,mshambulizi,d,NA,NA,NA,NA,sdfdsf,NA,1,NA,NA,NA,NA,NA,NA,NA,NA,NA,NA,NA,NA,NA,NA,NA,NA,NA,NA,NA
4f360,shallow,flow.Sequence,3_0_1_0_2_1,NA,NA,skipped,NA,472641.7,NA,NA,472637.437,472641.9,2023-03-30T11:52:14Z,472654.103,NULL,Angreifer,mshambulizi,d,NA,NA,NA,NA,sdfdsf,NA,1,NA,NA,NA,NA,NA,NA,NA,NA,NA,NA,NA,NA,NA,NA,NA,NA,NA,NA,NA
4f360,task,flow.Sequence,3_0_1_0_2,NA,NA,completion,12000.042,460625.6,460620.729,460637.395,472637.437,472642,2023-03-30T11:52:14Z,472654.103,NULL,Angreifer,mshambulizi,d,NA,NA,NA,NA,sdfdsf,NA,1,NA,NA,NA,NA,NA,NA,NA,NA,NA,NA,NA,NA,NA,NA,NA,NA,NA,NA,NA
4f360,deep,flow.Sequence,3_0_1_0_3_0,NA,NA,skipped,NA,472642.2,NA,NA,472637.437,472642.4,2023-03-30T11:52:14Z,472654.103,NULL,Kanzler,diwani,s,rasilmali,mahitaji,maabudu,NA,sdfdsf,NA,1,NA,NA,NA,NA,NA,NA,NA,NA,NA,NA,NA,NA,NA,NA,NA,NA,NA,NA,NA
4f360,Shallow Question,html.Page,3_0_1_0_3_1_0,NA,NA,form submission,7138.9970000015,472642.6,472637.437,472654.103,479793.1,479793.6,2023-03-30T11:52:21Z,479804.459,NULL,Kanzler,diwani,s,rasilmali,mahitaji,maabudu,diwani,NA,NA,1,NA,NA,NA,NA,NA,NA,NA,NA,NA,NA,NA,NA,NA,NA,NA,NA,NA,NA,NA
4f360,"""Richtig""-Screen",canvas.Screen,3_0_1_0_3_1_1,NA,NA,timeout,4999.8,479796.1,479787.793,479804.459,484787.593,484790.4,2023-03-30T11:52:26Z,484804.259,NULL,Kanzler,diwani,s,rasilmali,mahitaji,maabudu,NA,sdfdsf,1,1,NA,NA,NA,NA,NA,NA,NA,NA,NA,NA,NA,NA,NA,NA,NA,NA,NA,NA,NA
4f360,"""Falsch""-Screen",canvas.Screen,3_0_1_0_3_1_2,NA,NA,skipped,NA,484794.9,NA,NA,484787.593,484795.1,2023-03-30T11:52:26Z,484804.259,NULL,Kanzler,diwani,s,rasilmali,mahitaji,maabudu,NA,sdfdsf,NA,1,NA,NA,NA,NA,NA,NA,NA,NA,NA,NA,NA,NA,NA,NA,NA,NA,NA,NA,NA
4f360,shallow,flow.Sequence,3_0_1_0_3_1,NA,NA,completion,12133.49,472642.5,472637.437,472654.103,484787.593,484795.3,2023-03-30T11:52:26Z,484804.259,NULL,Kanzler,diwani,s,rasilmali,mahitaji,maabudu,NA,sdfdsf,NA,1,NA,NA,NA,NA,NA,NA,NA,NA,NA,NA,NA,NA,NA,NA,NA,NA,NA,NA,NA
4f360,task,flow.Sequence,3_0_1_0_3,NA,NA,completion,12133.49,472642.2,472637.437,472654.103,484787.593,484795.4,2023-03-30T11:52:26Z,484804.259,NULL,Kanzler,diwani,s,rasilmali,mahitaji,maabudu,NA,sdfdsf,NA,1,NA,NA,NA,NA,NA,NA,NA,NA,NA,NA,NA,NA,NA,NA,NA,NA,NA,NA,NA
4f360,Deep Question,html.Page,3_0_1_0_4_0_0,NA,NA,form submission,6790.0410000007,484795.5,484787.593,484804.259,491594.3,491594.7,2023-03-30T11:52:33Z,491604.536,NULL,Wettbewerb,ushindani,d,NA,NA,NA,m,NA,NA,1,NA,NA,NA,NA,NA,NA,NA,NA,NA,NA,NA,NA,NA,NA,NA,NA,NA,NA,NA
4f360,"""Richtig""-Screen",canvas.Screen,3_0_1_0_4_0_1,NA,NA,skipped,NA,491597.1,NA,NA,491594.3,491597.4,2023-03-30T11:52:33Z,491604.536,NULL,Wettbewerb,ushindani,d,NA,NA,NA,NA,sdfdsf,NA,1,NA,NA,NA,NA,NA,NA,NA,NA,NA,NA,NA,NA,NA,NA,NA,NA,NA,NA,NA
4f360,"""Falsch""-Screen",canvas.Screen,3_0_1_0_4_0_2,NA,NA,timeout,4999.8,491598.3,491587.87,491604.536,496587.67,496591.7,2023-03-30T11:52:38Z,496604.336,NULL,Wettbewerb,ushindani,d,NA,NA,NA,NA,sdfdsf,0,1,NA,NA,NA,NA,NA,NA,NA,NA,NA,NA,NA,NA,NA,NA,NA,NA,NA,NA,NA
4f360,deep,flow.Sequence,3_0_1_0_4_0,NA,NA,completion,11783.411,484795.4,484787.593,484804.259,496587.67,496592.1,2023-03-30T11:52:38Z,496604.336,NULL,Wettbewerb,ushindani,d,NA,NA,NA,NA,sdfdsf,NA,1,NA,NA,NA,NA,NA,NA,NA,NA,NA,NA,NA,NA,NA,NA,NA,NA,NA,NA,NA
4f360,shallow,flow.Sequence,3_0_1_0_4_1,NA,NA,skipped,NA,496592.2,NA,NA,496587.67,496592.4,2023-03-30T11:52:38Z,496604.336,NULL,Wettbewerb,ushindani,d,NA,NA,NA,NA,sdfdsf,NA,1,NA,NA,NA,NA,NA,NA,NA,NA,NA,NA,NA,NA,NA,NA,NA,NA,NA,NA,NA
4f360,task,flow.Sequence,3_0_1_0_4,NA,NA,completion,11783.411,484795.4,484787.593,484804.259,496587.67,496592.5,2023-03-30T11:52:38Z,496604.336,NULL,Wettbewerb,ushindani,d,NA,NA,NA,NA,sdfdsf,NA,1,NA,NA,NA,NA,NA,NA,NA,NA,NA,NA,NA,NA,NA,NA,NA,NA,NA,NA,NA
4f360,deep,flow.Sequence,3_0_1_0_5_0,NA,NA,skipped,NA,496592.8,NA,NA,496587.67,496592.8,2023-03-30T11:52:38Z,496604.336,NULL,Schönheit,kirembo,s,mahojiano,msisimko,jitihadi,NA,sdfdsf,NA,1,NA,NA,NA,NA,NA,NA,NA,NA,NA,NA,NA,NA,NA,NA,NA,NA,NA,NA,NA
4f360,Shallow Question,html.Page,3_0_1_0_5_1_0,NA,NA,form submission,21622.964000001,496593.1,496587.67,496604.336,518227.3,518227.8,2023-03-30T11:52:59Z,518237.88,NULL,Schönheit,kirembo,s,mahojiano,msisimko,jitihadi,kirembo,NA,NA,1,NA,NA,NA,NA,NA,NA,NA,NA,NA,NA,NA,NA,NA,NA,NA,NA,NA,NA,NA
4f360,"""Richtig""-Screen",canvas.Screen,3_0_1_0_5_1_1,NA,NA,timeout,5000.343,518231.7,518221.214,518237.88,523221.557,523226.1,2023-03-30T11:53:04Z,523238.223,NULL,Schönheit,kirembo,s,mahojiano,msisimko,jitihadi,NA,sdfdsf,1,1,NA,NA,NA,NA,NA,NA,NA,NA,NA,NA,NA,NA,NA,NA,NA,NA,NA,NA,NA
4f360,"""Falsch""-Screen",canvas.Screen,3_0_1_0_5_1_2,NA,NA,skipped,NA,523229.7,NA,NA,523221.557,523229.9,2023-03-30T11:53:04Z,523238.223,NULL,Schönheit,kirembo,s,mahojiano,msisimko,jitihadi,NA,sdfdsf,NA,1,NA,NA,NA,NA,NA,NA,NA,NA,NA,NA,NA,NA,NA,NA,NA,NA,NA,NA,NA
4f360,shallow,flow.Sequence,3_0_1_0_5_1,NA,NA,completion,26617.221,496593,496587.67,496604.336,523221.557,523230,2023-03-30T11:53:04Z,523238.223,NULL,Schönheit,kirembo,s,mahojiano,msisimko,jitihadi,NA,sdfdsf,NA,1,NA,NA,NA,NA,NA,NA,NA,NA,NA,NA,NA,NA,NA,NA,NA,NA,NA,NA,NA
4f360,task,flow.Sequence,3_0_1_0_5,NA,NA,completion,26617.221,496592.7,496587.67,496604.336,523221.557,523230,2023-03-30T11:53:04Z,523238.223,NULL,Schönheit,kirembo,s,mahojiano,msisimko,jitihadi,NA,sdfdsf,NA,1,NA,NA,NA,NA,NA,NA,NA,NA,NA,NA,NA,NA,NA,NA,NA,NA,NA,NA,NA
4f360,Deep Question,html.Page,3_0_1_0_6_0_0,NA,NA,form submission,8322.9770000011,523230.2,523221.557,523238.223,531561.2,531561.6,2023-03-30T11:53:13Z,531571.699,NULL,Sänger,mwimbaji,d,NA,NA,NA,h,NA,NA,1,NA,NA,NA,NA,NA,NA,NA,NA,NA,NA,NA,NA,NA,NA,NA,NA,NA,NA,NA
4f360,"""Richtig""-Screen",canvas.Screen,3_0_1_0_6_0_1,NA,NA,skipped,NA,531564.9,NA,NA,531561.2,531565.1,2023-03-30T11:53:13Z,531571.699,NULL,Sänger,mwimbaji,d,NA,NA,NA,NA,sdfdsf,NA,1,NA,NA,NA,NA,NA,NA,NA,NA,NA,NA,NA,NA,NA,NA,NA,NA,NA,NA,NA
4f360,"""Falsch""-Screen",canvas.Screen,3_0_1_0_6_0_2,NA,NA,timeout,4999.7999999999,531566,531555.033,531571.699,536554.833,536557,2023-03-30T11:53:18Z,536571.499,NULL,Sänger,mwimbaji,d,NA,NA,NA,NA,sdfdsf,0,1,NA,NA,NA,NA,NA,NA,NA,NA,NA,NA,NA,NA,NA,NA,NA,NA,NA,NA,NA
4f360,deep,flow.Sequence,3_0_1_0_6_0,NA,NA,completion,13316.61,523230.2,523221.557,523238.223,536554.833,536557.4,2023-03-30T11:53:18Z,536571.499,NULL,Sänger,mwimbaji,d,NA,NA,NA,NA,sdfdsf,NA,1,NA,NA,NA,NA,NA,NA,NA,NA,NA,NA,NA,NA,NA,NA,NA,NA,NA,NA,NA
4f360,shallow,flow.Sequence,3_0_1_0_6_1,NA,NA,skipped,NA,536557.6,NA,NA,536554.833,536557.7,2023-03-30T11:53:18Z,536571.499,NULL,Sänger,mwimbaji,d,NA,NA,NA,NA,sdfdsf,NA,1,NA,NA,NA,NA,NA,NA,NA,NA,NA,NA,NA,NA,NA,NA,NA,NA,NA,NA,NA
4f360,task,flow.Sequence,3_0_1_0_6,NA,NA,completion,13316.61,523230.1,523221.557,523238.223,536554.833,536557.8,2023-03-30T11:53:18Z,536571.499,NULL,Sänger,mwimbaji,d,NA,NA,NA,NA,sdfdsf,NA,1,NA,NA,NA,NA,NA,NA,NA,NA,NA,NA,NA,NA,NA,NA,NA,NA,NA,NA,NA
4f360,deep,flow.Sequence,3_0_1_0_7_0,NA,NA,skipped,NA,536558.1,NA,NA,536554.833,536558.2,2023-03-30T11:53:18Z,536571.499,NULL,Zufall,kikuti,s,kukosekana,uchoraji,leseni,NA,sdfdsf,NA,1,NA,NA,NA,NA,NA,NA,NA,NA,NA,NA,NA,NA,NA,NA,NA,NA,NA,NA,NA
4f360,Shallow Question,html.Page,3_0_1_0_7_1_0,NA,NA,form submission,5689.2010000012,536558.3,536554.833,536571.499,542260.7,542261.2,2023-03-30T11:53:23Z,542271.885,NULL,Zufall,kikuti,s,kukosekana,uchoraji,leseni,kikuti,NA,NA,1,NA,NA,NA,NA,NA,NA,NA,NA,NA,NA,NA,NA,NA,NA,NA,NA,NA,NA,NA
4f360,"""Richtig""-Screen",canvas.Screen,3_0_1_0_7_1_1,NA,NA,timeout,4999.8,542264,542255.219,542271.885,547255.019,547258.8,2023-03-30T11:53:28Z,547271.685,NULL,Zufall,kikuti,s,kukosekana,uchoraji,leseni,NA,sdfdsf,1,1,NA,NA,NA,NA,NA,NA,NA,NA,NA,NA,NA,NA,NA,NA,NA,NA,NA,NA,NA
4f360,"""Falsch""-Screen",canvas.Screen,3_0_1_0_7_1_2,NA,NA,skipped,NA,547263.4,NA,NA,547255.019,547263.6,2023-03-30T11:53:28Z,547271.685,NULL,Zufall,kikuti,s,kukosekana,uchoraji,leseni,NA,sdfdsf,NA,1,NA,NA,NA,NA,NA,NA,NA,NA,NA,NA,NA,NA,NA,NA,NA,NA,NA,NA,NA
4f360,shallow,flow.Sequence,3_0_1_0_7_1,NA,NA,completion,10683.52,536558.2,536554.833,536571.499,547255.019,547263.9,2023-03-30T11:53:28Z,547271.685,NULL,Zufall,kikuti,s,kukosekana,uchoraji,leseni,NA,sdfdsf,NA,1,NA,NA,NA,NA,NA,NA,NA,NA,NA,NA,NA,NA,NA,NA,NA,NA,NA,NA,NA
4f360,task,flow.Sequence,3_0_1_0_7,NA,NA,completion,10683.52,536558,536554.833,536571.499,547255.019,547264,2023-03-30T11:53:28Z,547271.685,NULL,Zufall,kikuti,s,kukosekana,uchoraji,leseni,NA,sdfdsf,NA,1,NA,NA,NA,NA,NA,NA,NA,NA,NA,NA,NA,NA,NA,NA,NA,NA,NA,NA,NA
4f360,block,flow.Loop,3_0_1_0,NA,NA,completion,113384.87,433874.2,433836.817,433870.149,547255.019,547264.1,2023-03-30T11:53:28Z,547271.685,NULL,NA,NA,NA,NA,NA,NA,NA,sdfdsf,NA,1,NA,NA,NA,NA,NA,NA,NA,NA,NA,NA,NA,NA,NA,NA,NA,NA,NA,NA,NA
4f360,weiter,canvas.Screen,3_0_1_1,sdf,keypress(Space),response,10604.015000001,547264.2,547255.019,547271.685,557875.7,557880.2,2023-03-30T11:53:39Z,557904.593,NULL,NA,NA,NA,NA,NA,NA,NA,sdfdsf,NA,1,NA,NA,NA,NA,NA,NA,NA,NA,NA,NA,NA,NA,NA,NA,NA,NA,NA,NA,NA
4f360,check continue,flow.Sequence,3_0_1,NA,NA,completion,124005.551,433874.2,433836.817,433870.149,557875.7,557880.5,2023-03-30T11:53:39Z,557904.593,NULL,NA,NA,NA,NA,NA,NA,NA,sdfdsf,NA,1,NA,NA,NA,NA,NA,NA,NA,NA,NA,NA,NA,NA,NA,NA,NA,NA,NA,NA,NA
4f360,Deep Question,html.Page,3_0_2_0_0_0_0,NA,NA,form submission,15355.007000001,557907.5,557871.261,557904.593,573259.6,573259.9,2023-03-30T11:53:54Z,573271.546,NULL,Auftrag,uagizaji,d,NA,NA,NA,uagjiazi,NA,NA,2,NA,NA,NA,NA,NA,NA,NA,NA,NA,NA,NA,NA,NA,NA,NA,NA,NA,NA,NA
4f360,"""Richtig""-Screen",canvas.Screen,3_0_2_0_0_0_1,NA,NA,skipped,NA,573261.7,NA,NA,573259.6,573261.8,2023-03-30T11:53:54Z,573271.546,NULL,Auftrag,uagizaji,d,NA,NA,NA,NA,sdf,NA,2,NA,NA,NA,NA,NA,NA,NA,NA,NA,NA,NA,NA,NA,NA,NA,NA,NA,NA,NA
4f360,"""Falsch""-Screen",canvas.Screen,3_0_2_0_0_0_2,NA,NA,timeout,4999.8,573262.2,573254.88,573271.546,578254.68,578257.6,2023-03-30T11:53:59Z,578271.346,NULL,Auftrag,uagizaji,d,NA,NA,NA,NA,sdf,0,2,NA,NA,NA,NA,NA,NA,NA,NA,NA,NA,NA,NA,NA,NA,NA,NA,NA,NA,NA
4f360,deep,flow.Sequence,3_0_2_0_0_0,NA,NA,completion,20350.087,557907.5,557871.261,557904.593,578254.68,578258,2023-03-30T11:53:59Z,578271.346,NULL,Auftrag,uagizaji,d,NA,NA,NA,NA,sdf,NA,2,NA,NA,NA,NA,NA,NA,NA,NA,NA,NA,NA,NA,NA,NA,NA,NA,NA,NA,NA
4f360,shallow,flow.Sequence,3_0_2_0_0_1,NA,NA,skipped,NA,578258.2,NA,NA,578254.68,578258.2,2023-03-30T11:53:59Z,578271.346,NULL,Auftrag,uagizaji,d,NA,NA,NA,NA,sdf,NA,2,NA,NA,NA,NA,NA,NA,NA,NA,NA,NA,NA,NA,NA,NA,NA,NA,NA,NA,NA
4f360,task,flow.Sequence,3_0_2_0_0,NA,NA,completion,20350.087,557907.5,557871.261,557904.593,578254.68,578258.4,2023-03-30T11:53:59Z,578271.346,NULL,Auftrag,uagizaji,d,NA,NA,NA,NA,sdf,NA,2,NA,NA,NA,NA,NA,NA,NA,NA,NA,NA,NA,NA,NA,NA,NA,NA,NA,NA,NA
4f360,deep,flow.Sequence,3_0_2_0_1_0,NA,NA,skipped,NA,578258.6,NA,NA,578254.68,578258.7,2023-03-30T11:53:59Z,578271.346,NULL,Zufall,kikuti,s,kukosekana,uchoraji,leseni,NA,sdf,NA,2,NA,NA,NA,NA,NA,NA,NA,NA,NA,NA,NA,NA,NA,NA,NA,NA,NA,NA,NA
4f360,Shallow Question,html.Page,3_0_2_0_1_1_0,NA,NA,form submission,4956.5540000004,578258.8,578254.68,578271.346,583227.9,583228.4,2023-03-30T11:54:04Z,583238.962,NULL,Zufall,kikuti,s,kukosekana,uchoraji,leseni,kikuti,NA,NA,2,NA,NA,NA,NA,NA,NA,NA,NA,NA,NA,NA,NA,NA,NA,NA,NA,NA,NA,NA
4f360,"""Richtig""-Screen",canvas.Screen,3_0_2_0_1_1_1,NA,NA,timeout,4999.7999999999,583231,583222.296,583238.962,588222.096,588225.4,2023-03-30T11:54:09Z,588238.762,NULL,Zufall,kikuti,s,kukosekana,uchoraji,leseni,NA,sdf,1,2,NA,NA,NA,NA,NA,NA,NA,NA,NA,NA,NA,NA,NA,NA,NA,NA,NA,NA,NA
4f360,"""Falsch""-Screen",canvas.Screen,3_0_2_0_1_1_2,NA,NA,skipped,NA,588229.1,NA,NA,588222.096,588229.2,2023-03-30T11:54:09Z,588238.762,NULL,Zufall,kikuti,s,kukosekana,uchoraji,leseni,NA,sdf,NA,2,NA,NA,NA,NA,NA,NA,NA,NA,NA,NA,NA,NA,NA,NA,NA,NA,NA,NA,NA
4f360,shallow,flow.Sequence,3_0_2_0_1_1,NA,NA,completion,9950.75,578258.8,578254.68,578271.346,588222.096,588229.3,2023-03-30T11:54:09Z,588238.762,NULL,Zufall,kikuti,s,kukosekana,uchoraji,leseni,NA,sdf,NA,2,NA,NA,NA,NA,NA,NA,NA,NA,NA,NA,NA,NA,NA,NA,NA,NA,NA,NA,NA
4f360,task,flow.Sequence,3_0_2_0_1,NA,NA,completion,9950.75,578258.6,578254.68,578271.346,588222.096,588229.5,2023-03-30T11:54:09Z,588238.762,NULL,Zufall,kikuti,s,kukosekana,uchoraji,leseni,NA,sdf,NA,2,NA,NA,NA,NA,NA,NA,NA,NA,NA,NA,NA,NA,NA,NA,NA,NA,NA,NA,NA
4f360,deep,flow.Sequence,3_0_2_0_2_0,NA,NA,skipped,NA,588229.7,NA,NA,588222.096,588229.7,2023-03-30T11:54:09Z,588238.762,NULL,Abrechnung,uhasibu,s,kusahihisha,mpambano,mashambulizi,NA,sdf,NA,2,NA,NA,NA,NA,NA,NA,NA,NA,NA,NA,NA,NA,NA,NA,NA,NA,NA,NA,NA
4f360,Shallow Question,html.Page,3_0_2_0_2_1_0,NA,NA,form submission,8489.9380000011,588229.8,588222.096,588238.762,596728.7,596729.1,2023-03-30T11:54:18Z,596739.012,NULL,Abrechnung,uhasibu,s,kusahihisha,mpambano,mashambulizi,mashambulizi,NA,NA,2,NA,NA,NA,NA,NA,NA,NA,NA,NA,NA,NA,NA,NA,NA,NA,NA,NA,NA,NA
4f360,"""Richtig""-Screen",canvas.Screen,3_0_2_0_2_1_1,NA,NA,skipped,NA,596731.6,NA,NA,596728.7,596731.7,2023-03-30T11:54:18Z,596739.012,NULL,Abrechnung,uhasibu,s,kusahihisha,mpambano,mashambulizi,NA,sdf,NA,2,NA,NA,NA,NA,NA,NA,NA,NA,NA,NA,NA,NA,NA,NA,NA,NA,NA,NA,NA
4f360,"""Falsch""-Screen",canvas.Screen,3_0_2_0_2_1_2,NA,NA,timeout,4999.8,596732.3,596722.346,596739.012,601722.146,601724.1,2023-03-30T11:54:23Z,601738.812,NULL,Abrechnung,uhasibu,s,kusahihisha,mpambano,mashambulizi,NA,sdf,0,2,NA,NA,NA,NA,NA,NA,NA,NA,NA,NA,NA,NA,NA,NA,NA,NA,NA,NA,NA
4f360,shallow,flow.Sequence,3_0_2_0_2_1,NA,NA,completion,13483.384,588229.7,588222.096,588238.762,601722.146,601724.4,2023-03-30T11:54:23Z,601738.812,NULL,Abrechnung,uhasibu,s,kusahihisha,mpambano,mashambulizi,NA,sdf,NA,2,NA,NA,NA,NA,NA,NA,NA,NA,NA,NA,NA,NA,NA,NA,NA,NA,NA,NA,NA
4f360,task,flow.Sequence,3_0_2_0_2,NA,NA,completion,13483.384,588229.6,588222.096,588238.762,601722.146,601724.7,2023-03-30T11:54:23Z,601738.812,NULL,Abrechnung,uhasibu,s,kusahihisha,mpambano,mashambulizi,NA,sdf,NA,2,NA,NA,NA,NA,NA,NA,NA,NA,NA,NA,NA,NA,NA,NA,NA,NA,NA,NA,NA
4f360,Deep Question,html.Page,3_0_2_0_3_0_0,NA,NA,form submission,17058.288000001,601724.9,601722.146,601738.812,618797.1,618797.6,2023-03-30T11:54:40Z,618805.993,NULL,Angreifer,mshambulizi,d,NA,NA,NA,mbambuliza,NA,NA,2,NA,NA,NA,NA,NA,NA,NA,NA,NA,NA,NA,NA,NA,NA,NA,NA,NA,NA,NA
4f360,"""Richtig""-Screen",canvas.Screen,3_0_2_0_3_0_1,NA,NA,skipped,NA,618801.6,NA,NA,618797.1,618801.8,2023-03-30T11:54:40Z,618805.993,NULL,Angreifer,mshambulizi,d,NA,NA,NA,NA,sdf,NA,2,NA,NA,NA,NA,NA,NA,NA,NA,NA,NA,NA,NA,NA,NA,NA,NA,NA,NA,NA
4f360,"""Falsch""-Screen",canvas.Screen,3_0_2_0_3_0_2,NA,NA,timeout,4999.7999999999,618802.4,618789.327,618805.993,623789.127,623793.9,2023-03-30T11:54:45Z,623805.793,NULL,Angreifer,mshambulizi,d,NA,NA,NA,NA,sdf,0,2,NA,NA,NA,NA,NA,NA,NA,NA,NA,NA,NA,NA,NA,NA,NA,NA,NA,NA,NA
4f360,deep,flow.Sequence,3_0_2_0_3_0,NA,NA,completion,22050.315,601724.9,601722.146,601738.812,623789.127,623794.4,2023-03-30T11:54:45Z,623805.793,NULL,Angreifer,mshambulizi,d,NA,NA,NA,NA,sdf,NA,2,NA,NA,NA,NA,NA,NA,NA,NA,NA,NA,NA,NA,NA,NA,NA,NA,NA,NA,NA
4f360,shallow,flow.Sequence,3_0_2_0_3_1,NA,NA,skipped,NA,623794.5,NA,NA,623789.127,623794.7,2023-03-30T11:54:45Z,623805.793,NULL,Angreifer,mshambulizi,d,NA,NA,NA,NA,sdf,NA,2,NA,NA,NA,NA,NA,NA,NA,NA,NA,NA,NA,NA,NA,NA,NA,NA,NA,NA,NA
4f360,task,flow.Sequence,3_0_2_0_3,NA,NA,completion,22050.315,601724.9,601722.146,601738.812,623789.127,623794.9,2023-03-30T11:54:45Z,623805.793,NULL,Angreifer,mshambulizi,d,NA,NA,NA,NA,sdf,NA,2,NA,NA,NA,NA,NA,NA,NA,NA,NA,NA,NA,NA,NA,NA,NA,NA,NA,NA,NA
4f360,Deep Question,html.Page,3_0_2_0_4_0_0,NA,NA,form submission,40973.707,623795.1,623789.127,623805.793,664779.5,664779.9,2023-03-30T11:55:26Z,664790.229,NULL,Sänger,mwimbaji,d,NA,NA,NA,mshiwm,NA,NA,2,NA,NA,NA,NA,NA,NA,NA,NA,NA,NA,NA,NA,NA,NA,NA,NA,NA,NA,NA
4f360,"""Richtig""-Screen",canvas.Screen,3_0_2_0_4_0_1,NA,NA,skipped,NA,664783.5,NA,NA,664779.5,664783.6,2023-03-30T11:55:26Z,664790.229,NULL,Sänger,mwimbaji,d,NA,NA,NA,NA,sdf,NA,2,NA,NA,NA,NA,NA,NA,NA,NA,NA,NA,NA,NA,NA,NA,NA,NA,NA,NA,NA
4f360,"""Falsch""-Screen",canvas.Screen,3_0_2_0_4_0_2,NA,NA,timeout,4999.7999999999,664784.2,664773.563,664790.229,669773.363,669779.2,2023-03-30T11:55:31Z,669790.029,NULL,Sänger,mwimbaji,d,NA,NA,NA,NA,sdf,0,2,NA,NA,NA,NA,NA,NA,NA,NA,NA,NA,NA,NA,NA,NA,NA,NA,NA,NA,NA
4f360,deep,flow.Sequence,3_0_2_0_4_0,NA,NA,completion,45967.57,623795,623789.127,623805.793,669773.363,669779.6,2023-03-30T11:55:31Z,669790.029,NULL,Sänger,mwimbaji,d,NA,NA,NA,NA,sdf,NA,2,NA,NA,NA,NA,NA,NA,NA,NA,NA,NA,NA,NA,NA,NA,NA,NA,NA,NA,NA
4f360,shallow,flow.Sequence,3_0_2_0_4_1,NA,NA,skipped,NA,669779.8,NA,NA,669773.363,669779.9,2023-03-30T11:55:31Z,669790.029,NULL,Sänger,mwimbaji,d,NA,NA,NA,NA,sdf,NA,2,NA,NA,NA,NA,NA,NA,NA,NA,NA,NA,NA,NA,NA,NA,NA,NA,NA,NA,NA
4f360,task,flow.Sequence,3_0_2_0_4,NA,NA,completion,45967.57,623795,623789.127,623805.793,669773.363,669780.1,2023-03-30T11:55:31Z,669790.029,NULL,Sänger,mwimbaji,d,NA,NA,NA,NA,sdf,NA,2,NA,NA,NA,NA,NA,NA,NA,NA,NA,NA,NA,NA,NA,NA,NA,NA,NA,NA,NA
4f360,deep,flow.Sequence,3_0_2_0_5_0,NA,NA,skipped,NA,669780.3,NA,NA,669773.363,669780.3,2023-03-30T11:55:31Z,669790.029,NULL,Kanzler,diwani,s,rasilmali,mahitaji,maabudu,NA,sdf,NA,2,NA,NA,NA,NA,NA,NA,NA,NA,NA,NA,NA,NA,NA,NA,NA,NA,NA,NA,NA
4f360,Shallow Question,html.Page,3_0_2_0_5_1_0,NA,NA,form submission,6106.0710000015,669780.5,669773.363,669790.029,675896.1,675896.5,2023-03-30T11:55:37Z,675907.018,NULL,Kanzler,diwani,s,rasilmali,mahitaji,maabudu,diwani,NA,NA,2,NA,NA,NA,NA,NA,NA,NA,NA,NA,NA,NA,NA,NA,NA,NA,NA,NA,NA,NA
4f360,"""Richtig""-Screen",canvas.Screen,3_0_2_0_5_1_1,NA,NA,timeout,4999.7999999999,675898.8,675890.352,675907.018,680890.152,680895,2023-03-30T11:55:42Z,680906.818,NULL,Kanzler,diwani,s,rasilmali,mahitaji,maabudu,NA,sdf,1,2,NA,NA,NA,NA,NA,NA,NA,NA,NA,NA,NA,NA,NA,NA,NA,NA,NA,NA,NA
4f360,"""Falsch""-Screen",canvas.Screen,3_0_2_0_5_1_2,NA,NA,skipped,NA,680899.3,NA,NA,680890.152,680899.5,2023-03-30T11:55:42Z,680906.818,NULL,Kanzler,diwani,s,rasilmali,mahitaji,maabudu,NA,sdf,NA,2,NA,NA,NA,NA,NA,NA,NA,NA,NA,NA,NA,NA,NA,NA,NA,NA,NA,NA,NA
4f360,shallow,flow.Sequence,3_0_2_0_5_1,NA,NA,completion,11100.123,669780.5,669773.363,669790.029,680890.152,680899.7,2023-03-30T11:55:42Z,680906.818,NULL,Kanzler,diwani,s,rasilmali,mahitaji,maabudu,NA,sdf,NA,2,NA,NA,NA,NA,NA,NA,NA,NA,NA,NA,NA,NA,NA,NA,NA,NA,NA,NA,NA
4f360,task,flow.Sequence,3_0_2_0_5,NA,NA,completion,11100.123,669780.2,669773.363,669790.029,680890.152,680899.9,2023-03-30T11:55:42Z,680906.818,NULL,Kanzler,diwani,s,rasilmali,mahitaji,maabudu,NA,sdf,NA,2,NA,NA,NA,NA,NA,NA,NA,NA,NA,NA,NA,NA,NA,NA,NA,NA,NA,NA,NA
4f360,deep,flow.Sequence,3_0_2_0_6_0,NA,NA,skipped,NA,680900,NA,NA,680890.152,680900,2023-03-30T11:55:42Z,680906.818,NULL,Schönheit,kirembo,s,mahojiano,msisimko,jitihadi,NA,sdf,NA,2,NA,NA,NA,NA,NA,NA,NA,NA,NA,NA,NA,NA,NA,NA,NA,NA,NA,NA,NA
4f360,Shallow Question,html.Page,3_0_2_0_6_1_0,NA,NA,form submission,5173.4820000008,680900.1,680890.152,680906.818,686080.3,686080.6,2023-03-30T11:55:47Z,686090.478,NULL,Schönheit,kirembo,s,mahojiano,msisimko,jitihadi,kirembo,NA,NA,2,NA,NA,NA,NA,NA,NA,NA,NA,NA,NA,NA,NA,NA,NA,NA,NA,NA,NA,NA
4f360,"""Richtig""-Screen",canvas.Screen,3_0_2_0_6_1_1,NA,NA,timeout,4999.8,686083,686073.812,686090.478,691073.612,691078.8,2023-03-30T11:55:52Z,691090.278,NULL,Schönheit,kirembo,s,mahojiano,msisimko,jitihadi,NA,sdf,1,2,NA,NA,NA,NA,NA,NA,NA,NA,NA,NA,NA,NA,NA,NA,NA,NA,NA,NA,NA
4f360,"""Falsch""-Screen",canvas.Screen,3_0_2_0_6_1_2,NA,NA,skipped,NA,691083.4,NA,NA,691073.612,691083.6,2023-03-30T11:55:52Z,691090.278,NULL,Schönheit,kirembo,s,mahojiano,msisimko,jitihadi,NA,sdf,NA,2,NA,NA,NA,NA,NA,NA,NA,NA,NA,NA,NA,NA,NA,NA,NA,NA,NA,NA,NA
4f360,shallow,flow.Sequence,3_0_2_0_6_1,NA,NA,completion,10166.794,680900,680890.152,680906.818,691073.612,691083.8,2023-03-30T11:55:52Z,691090.278,NULL,Schönheit,kirembo,s,mahojiano,msisimko,jitihadi,NA,sdf,NA,2,NA,NA,NA,NA,NA,NA,NA,NA,NA,NA,NA,NA,NA,NA,NA,NA,NA,NA,NA
4f360,task,flow.Sequence,3_0_2_0_6,NA,NA,completion,10166.794,680899.9,680890.152,680906.818,691073.612,691083.8,2023-03-30T11:55:52Z,691090.278,NULL,Schönheit,kirembo,s,mahojiano,msisimko,jitihadi,NA,sdf,NA,2,NA,NA,NA,NA,NA,NA,NA,NA,NA,NA,NA,NA,NA,NA,NA,NA,NA,NA,NA
4f360,Deep Question,html.Page,3_0_2_0_7_0_0,NA,NA,form submission,9572.8220000014,691083.9,691073.612,691090.278,700663.1,700663.6,2023-03-30T11:56:02Z,700673.78,NULL,Wettbewerb,ushindani,d,NA,NA,NA,uahasi,NA,NA,2,NA,NA,NA,NA,NA,NA,NA,NA,NA,NA,NA,NA,NA,NA,NA,NA,NA,NA,NA
4f360,"""Richtig""-Screen",canvas.Screen,3_0_2_0_7_0_1,NA,NA,skipped,NA,700666.6,NA,NA,700663.1,700666.9,2023-03-30T11:56:02Z,700673.78,NULL,Wettbewerb,ushindani,d,NA,NA,NA,NA,sdf,NA,2,NA,NA,NA,NA,NA,NA,NA,NA,NA,NA,NA,NA,NA,NA,NA,NA,NA,NA,NA
4f360,"""Falsch""-Screen",canvas.Screen,3_0_2_0_7_0_2,NA,NA,timeout,4999.7999999999,700667.7,700657.114,700673.78,705656.914,705660.2,2023-03-30T11:56:07Z,705673.58,NULL,Wettbewerb,ushindani,d,NA,NA,NA,NA,sdf,0,2,NA,NA,NA,NA,NA,NA,NA,NA,NA,NA,NA,NA,NA,NA,NA,NA,NA,NA,NA
4f360,deep,flow.Sequence,3_0_2_0_7_0,NA,NA,completion,14566.636,691083.9,691073.612,691090.278,705656.914,705660.6,2023-03-30T11:56:07Z,705673.58,NULL,Wettbewerb,ushindani,d,NA,NA,NA,NA,sdf,NA,2,NA,NA,NA,NA,NA,NA,NA,NA,NA,NA,NA,NA,NA,NA,NA,NA,NA,NA,NA
4f360,shallow,flow.Sequence,3_0_2_0_7_1,NA,NA,skipped,NA,705660.7,NA,NA,705656.914,705660.9,2023-03-30T11:56:07Z,705673.58,NULL,Wettbewerb,ushindani,d,NA,NA,NA,NA,sdf,NA,2,NA,NA,NA,NA,NA,NA,NA,NA,NA,NA,NA,NA,NA,NA,NA,NA,NA,NA,NA
4f360,task,flow.Sequence,3_0_2_0_7,NA,NA,completion,14566.636,691083.9,691073.612,691090.278,705656.914,705661.1,2023-03-30T11:56:07Z,705673.58,NULL,Wettbewerb,ushindani,d,NA,NA,NA,NA,sdf,NA,2,NA,NA,NA,NA,NA,NA,NA,NA,NA,NA,NA,NA,NA,NA,NA,NA,NA,NA,NA
4f360,block,flow.Loop,3_0_2_0,NA,NA,completion,147752.321,557907.5,557871.261,557904.593,705656.914,705661.3,2023-03-30T11:56:07Z,705673.58,NULL,NA,NA,NA,NA,NA,NA,NA,sdf,NA,2,NA,NA,NA,NA,NA,NA,NA,NA,NA,NA,NA,NA,NA,NA,NA,NA,NA,NA,NA
4f360,weiter,canvas.Screen,3_0_2_1,sdf,keypress(Space),response,18267.220000001,705661.5,705656.914,705673.58,723940.8,723946.6,2023-03-30T11:56:25Z,723972.848,NULL,NA,NA,NA,NA,NA,NA,NA,sdf,NA,2,NA,NA,NA,NA,NA,NA,NA,NA,NA,NA,NA,NA,NA,NA,NA,NA,NA,NA,NA
4f360,check continue,flow.Sequence,3_0_2,NA,NA,completion,166036.207,557907.5,557871.261,557904.593,723940.8,723947,2023-03-30T11:56:25Z,723972.848,NULL,NA,NA,NA,NA,NA,NA,NA,sdf,NA,2,NA,NA,NA,NA,NA,NA,NA,NA,NA,NA,NA,NA,NA,NA,NA,NA,NA,NA,NA
4f360,deep,flow.Sequence,3_0_3_0_0_0,NA,NA,skipped,NA,723973,NA,NA,723940.8,723973.2,2023-03-30T11:56:25Z,723972.848,NULL,Schönheit,kirembo,s,mahojiano,msisimko,jitihadi,NA,qt,NA,3,NA,NA,NA,NA,NA,NA,NA,NA,NA,NA,NA,NA,NA,NA,NA,NA,NA,NA,NA
4f360,Shallow Question,html.Page,3_0_3_0_0_1_0,NA,NA,form submission,6055.652,723973.2,723939.516,723972.848,730028.5,730028.8,2023-03-30T11:56:31Z,730040.603,NULL,Schönheit,kirembo,s,mahojiano,msisimko,jitihadi,kirembo,NA,NA,3,NA,NA,NA,NA,NA,NA,NA,NA,NA,NA,NA,NA,NA,NA,NA,NA,NA,NA,NA
4f360,"""Richtig""-Screen",canvas.Screen,3_0_3_0_0_1_1,NA,NA,timeout,4999.8,730031.2,730023.937,730040.603,735023.737,735024.8,2023-03-30T11:56:36Z,735040.403,NULL,Schönheit,kirembo,s,mahojiano,msisimko,jitihadi,NA,qt,1,3,NA,NA,NA,NA,NA,NA,NA,NA,NA,NA,NA,NA,NA,NA,NA,NA,NA,NA,NA
4f360,"""Falsch""-Screen",canvas.Screen,3_0_3_0_0_1_2,NA,NA,skipped,NA,735028.8,NA,NA,735023.737,735028.8,2023-03-30T11:56:36Z,735040.403,NULL,Schönheit,kirembo,s,mahojiano,msisimko,jitihadi,NA,qt,NA,3,NA,NA,NA,NA,NA,NA,NA,NA,NA,NA,NA,NA,NA,NA,NA,NA,NA,NA,NA
4f360,shallow,flow.Sequence,3_0_3_0_0_1,NA,NA,completion,11050.889,723973.2,723939.516,723972.848,735023.737,735028.9,2023-03-30T11:56:36Z,735040.403,NULL,Schönheit,kirembo,s,mahojiano,msisimko,jitihadi,NA,qt,NA,3,NA,NA,NA,NA,NA,NA,NA,NA,NA,NA,NA,NA,NA,NA,NA,NA,NA,NA,NA
4f360,task,flow.Sequence,3_0_3_0_0,NA,NA,completion,11050.889,723973,723939.516,723972.848,735023.737,735029,2023-03-30T11:56:36Z,735040.403,NULL,Schönheit,kirembo,s,mahojiano,msisimko,jitihadi,NA,qt,NA,3,NA,NA,NA,NA,NA,NA,NA,NA,NA,NA,NA,NA,NA,NA,NA,NA,NA,NA,NA
4f360,Deep Question,html.Page,3_0_3_0_1_0_0,NA,NA,form submission,15437.697000001,735029.1,735023.737,735040.403,750478.1,750478.2,2023-03-30T11:56:52Z,750490.944,NULL,Sänger,mwimbaji,d,NA,NA,NA,mwimbaji,NA,NA,3,NA,NA,NA,NA,NA,NA,NA,NA,NA,NA,NA,NA,NA,NA,NA,NA,NA,NA,NA
4f360,"""Richtig""-Screen",canvas.Screen,3_0_3_0_1_0_1,NA,NA,timeout,4999.7999999999,750480.3,750474.278,750490.944,755474.078,755479.1,2023-03-30T11:56:57Z,755490.744,NULL,Sänger,mwimbaji,d,NA,NA,NA,NA,qt,1,3,NA,NA,NA,NA,NA,NA,NA,NA,NA,NA,NA,NA,NA,NA,NA,NA,NA,NA,NA
4f360,"""Falsch""-Screen",canvas.Screen,3_0_3_0_1_0_2,NA,NA,skipped,NA,755483.4,NA,NA,755474.078,755483.7,2023-03-30T11:56:57Z,755490.744,NULL,Sänger,mwimbaji,d,NA,NA,NA,NA,qt,NA,3,NA,NA,NA,NA,NA,NA,NA,NA,NA,NA,NA,NA,NA,NA,NA,NA,NA,NA,NA
4f360,deep,flow.Sequence,3_0_3_0_1_0,NA,NA,completion,20433.675,735029.1,735023.737,735040.403,755474.078,755483.8,2023-03-30T11:56:57Z,755490.744,NULL,Sänger,mwimbaji,d,NA,NA,NA,NA,qt,NA,3,NA,NA,NA,NA,NA,NA,NA,NA,NA,NA,NA,NA,NA,NA,NA,NA,NA,NA,NA
4f360,shallow,flow.Sequence,3_0_3_0_1_1,NA,NA,skipped,NA,755484,NA,NA,755474.078,755484,2023-03-30T11:56:57Z,755490.744,NULL,Sänger,mwimbaji,d,NA,NA,NA,NA,qt,NA,3,NA,NA,NA,NA,NA,NA,NA,NA,NA,NA,NA,NA,NA,NA,NA,NA,NA,NA,NA
4f360,task,flow.Sequence,3_0_3_0_1,NA,NA,completion,20433.675,735029.1,735023.737,735040.403,755474.078,755484.1,2023-03-30T11:56:57Z,755490.744,NULL,Sänger,mwimbaji,d,NA,NA,NA,NA,qt,NA,3,NA,NA,NA,NA,NA,NA,NA,NA,NA,NA,NA,NA,NA,NA,NA,NA,NA,NA,NA
4f360,Deep Question,html.Page,3_0_3_0_2_0_0,NA,NA,form submission,37406.656,755484.3,755474.078,755490.744,792897.4,792897.9,2023-03-30T11:57:34Z,792908.058,NULL,Wettbewerb,ushindani,d,NA,NA,NA,i,NA,NA,3,NA,NA,NA,NA,NA,NA,NA,NA,NA,NA,NA,NA,NA,NA,NA,NA,NA,NA,NA
4f360,"""Richtig""-Screen",canvas.Screen,3_0_3_0_2_0_1,NA,NA,skipped,NA,792900.5,NA,NA,792897.4,792900.8,2023-03-30T11:57:34Z,792908.058,NULL,Wettbewerb,ushindani,d,NA,NA,NA,NA,qt,NA,3,NA,NA,NA,NA,NA,NA,NA,NA,NA,NA,NA,NA,NA,NA,NA,NA,NA,NA,NA
4f360,"""Falsch""-Screen",canvas.Screen,3_0_3_0_2_0_2,NA,NA,timeout,4999.8,792901.9,792891.392,792908.058,797891.192,797893.3,2023-03-30T11:57:39Z,797907.858,NULL,Wettbewerb,ushindani,d,NA,NA,NA,NA,qt,0,3,NA,NA,NA,NA,NA,NA,NA,NA,NA,NA,NA,NA,NA,NA,NA,NA,NA,NA,NA
4f360,deep,flow.Sequence,3_0_3_0_2_0,NA,NA,completion,42400.448,755484.3,755474.078,755490.744,797891.192,797893.7,2023-03-30T11:57:39Z,797907.858,NULL,Wettbewerb,ushindani,d,NA,NA,NA,NA,qt,NA,3,NA,NA,NA,NA,NA,NA,NA,NA,NA,NA,NA,NA,NA,NA,NA,NA,NA,NA,NA
4f360,shallow,flow.Sequence,3_0_3_0_2_1,NA,NA,skipped,NA,797893.8,NA,NA,797891.192,797893.9,2023-03-30T11:57:39Z,797907.858,NULL,Wettbewerb,ushindani,d,NA,NA,NA,NA,qt,NA,3,NA,NA,NA,NA,NA,NA,NA,NA,NA,NA,NA,NA,NA,NA,NA,NA,NA,NA,NA
4f360,task,flow.Sequence,3_0_3_0_2,NA,NA,completion,42400.448,755484.3,755474.078,755490.744,797891.192,797894.2,2023-03-30T11:57:39Z,797907.858,NULL,Wettbewerb,ushindani,d,NA,NA,NA,NA,qt,NA,3,NA,NA,NA,NA,NA,NA,NA,NA,NA,NA,NA,NA,NA,NA,NA,NA,NA,NA,NA
4f360,deep,flow.Sequence,3_0_3_0_3_0,NA,NA,skipped,NA,797894.3,NA,NA,797891.192,797894.4,2023-03-30T11:57:39Z,797907.858,NULL,Kanzler,diwani,s,rasilmali,mahitaji,maabudu,NA,qt,NA,3,NA,NA,NA,NA,NA,NA,NA,NA,NA,NA,NA,NA,NA,NA,NA,NA,NA,NA,NA
4f360,Shallow Question,html.Page,3_0_3_0_3_1_0,NA,NA,form submission,7457.642,797894.6,797891.192,797907.858,805365.5,805365.9,2023-03-30T11:57:46Z,805374.954,NULL,Kanzler,diwani,s,rasilmali,mahitaji,maabudu,diwani,NA,NA,3,NA,NA,NA,NA,NA,NA,NA,NA,NA,NA,NA,NA,NA,NA,NA,NA,NA,NA,NA
4f360,"""Richtig""-Screen",canvas.Screen,3_0_3_0_3_1_1,NA,NA,timeout,4999.7999999999,805369,805358.288,805374.954,810358.088,810363,2023-03-30T11:57:51Z,810374.754,NULL,Kanzler,diwani,s,rasilmali,mahitaji,maabudu,NA,qt,1,3,NA,NA,NA,NA,NA,NA,NA,NA,NA,NA,NA,NA,NA,NA,NA,NA,NA,NA,NA
4f360,"""Falsch""-Screen",canvas.Screen,3_0_3_0_3_1_2,NA,NA,skipped,NA,810366.8,NA,NA,810358.088,810367,2023-03-30T11:57:51Z,810374.754,NULL,Kanzler,diwani,s,rasilmali,mahitaji,maabudu,NA,qt,NA,3,NA,NA,NA,NA,NA,NA,NA,NA,NA,NA,NA,NA,NA,NA,NA,NA,NA,NA,NA
4f360,shallow,flow.Sequence,3_0_3_0_3_1,NA,NA,completion,12450.23,797894.5,797891.192,797907.858,810358.088,810367.1,2023-03-30T11:57:51Z,810374.754,NULL,Kanzler,diwani,s,rasilmali,mahitaji,maabudu,NA,qt,NA,3,NA,NA,NA,NA,NA,NA,NA,NA,NA,NA,NA,NA,NA,NA,NA,NA,NA,NA,NA
4f360,task,flow.Sequence,3_0_3_0_3,NA,NA,completion,12450.23,797894.2,797891.192,797907.858,810358.088,810367.2,2023-03-30T11:57:51Z,810374.754,NULL,Kanzler,diwani,s,rasilmali,mahitaji,maabudu,NA,qt,NA,3,NA,NA,NA,NA,NA,NA,NA,NA,NA,NA,NA,NA,NA,NA,NA,NA,NA,NA,NA
4f360,Deep Question,html.Page,3_0_3_0_4_0_0,NA,NA,form submission,21788.746,810367.3,810358.088,810374.754,832163.5,832163.7,2023-03-30T11:58:13Z,832192.088,NULL,Angreifer,mshambulizi,d,NA,NA,NA,uahgajzi,NA,NA,3,NA,NA,NA,NA,NA,NA,NA,NA,NA,NA,NA,NA,NA,NA,NA,NA,NA,NA,NA
4f360,"""Richtig""-Screen",canvas.Screen,3_0_3_0_4_0_1,NA,NA,skipped,NA,832165.8,NA,NA,832163.5,832165.9,2023-03-30T11:58:13Z,832192.088,NULL,Angreifer,mshambulizi,d,NA,NA,NA,NA,qt,NA,3,NA,NA,NA,NA,NA,NA,NA,NA,NA,NA,NA,NA,NA,NA,NA,NA,NA,NA,NA
4f360,"""Falsch""-Screen",canvas.Screen,3_0_3_0_4_0_2,NA,NA,timeout,4999.8,832166.3,832175.422,832192.088,837175.222,837180.1,2023-03-30T11:58:18Z,837191.888,NULL,Angreifer,mshambulizi,d,NA,NA,NA,NA,qt,0,3,NA,NA,NA,NA,NA,NA,NA,NA,NA,NA,NA,NA,NA,NA,NA,NA,NA,NA,NA
4f360,deep,flow.Sequence,3_0_3_0_4_0,NA,NA,completion,26800.468,810367.3,810358.088,810374.754,837175.222,837180.5,2023-03-30T11:58:18Z,837191.888,NULL,Angreifer,mshambulizi,d,NA,NA,NA,NA,qt,NA,3,NA,NA,NA,NA,NA,NA,NA,NA,NA,NA,NA,NA,NA,NA,NA,NA,NA,NA,NA
4f360,shallow,flow.Sequence,3_0_3_0_4_1,NA,NA,skipped,NA,837180.6,NA,NA,837175.222,837180.7,2023-03-30T11:58:18Z,837191.888,NULL,Angreifer,mshambulizi,d,NA,NA,NA,NA,qt,NA,3,NA,NA,NA,NA,NA,NA,NA,NA,NA,NA,NA,NA,NA,NA,NA,NA,NA,NA,NA
4f360,task,flow.Sequence,3_0_3_0_4,NA,NA,completion,26800.468,810367.3,810358.088,810374.754,837175.222,837180.9,2023-03-30T11:58:18Z,837191.888,NULL,Angreifer,mshambulizi,d,NA,NA,NA,NA,qt,NA,3,NA,NA,NA,NA,NA,NA,NA,NA,NA,NA,NA,NA,NA,NA,NA,NA,NA,NA,NA
4f360,deep,flow.Sequence,3_0_3_0_5_0,NA,NA,skipped,NA,837181,NA,NA,837175.222,837181.2,2023-03-30T11:58:18Z,837191.888,NULL,Abrechnung,uhasibu,s,kusahihisha,mpambano,mashambulizi,NA,qt,NA,3,NA,NA,NA,NA,NA,NA,NA,NA,NA,NA,NA,NA,NA,NA,NA,NA,NA,NA,NA
4f360,Shallow Question,html.Page,3_0_3_0_5_1_0,NA,NA,form submission,9740.8120000011,837181.3,837175.222,837191.888,846932.7,846933,2023-03-30T11:58:28Z,846942.176,NULL,Abrechnung,uhasibu,s,kusahihisha,mpambano,mashambulizi,uhasibu,NA,NA,3,NA,NA,NA,NA,NA,NA,NA,NA,NA,NA,NA,NA,NA,NA,NA,NA,NA,NA,NA
4f360,"""Richtig""-Screen",canvas.Screen,3_0_3_0_5_1_1,NA,NA,timeout,4999.8,846935.6,846925.51,846942.176,851925.31,851929.7,2023-03-30T11:58:33Z,851941.976,NULL,Abrechnung,uhasibu,s,kusahihisha,mpambano,mashambulizi,NA,qt,1,3,NA,NA,NA,NA,NA,NA,NA,NA,NA,NA,NA,NA,NA,NA,NA,NA,NA,NA,NA
4f360,"""Falsch""-Screen",canvas.Screen,3_0_3_0_5_1_2,NA,NA,skipped,NA,851933.3,NA,NA,851925.31,851933.4,2023-03-30T11:58:33Z,851941.976,NULL,Abrechnung,uhasibu,s,kusahihisha,mpambano,mashambulizi,NA,qt,NA,3,NA,NA,NA,NA,NA,NA,NA,NA,NA,NA,NA,NA,NA,NA,NA,NA,NA,NA,NA
4f360,shallow,flow.Sequence,3_0_3_0_5_1,NA,NA,completion,14733.422,837181.3,837175.222,837191.888,851925.31,851933.5,2023-03-30T11:58:33Z,851941.976,NULL,Abrechnung,uhasibu,s,kusahihisha,mpambano,mashambulizi,NA,qt,NA,3,NA,NA,NA,NA,NA,NA,NA,NA,NA,NA,NA,NA,NA,NA,NA,NA,NA,NA,NA
4f360,task,flow.Sequence,3_0_3_0_5,NA,NA,completion,14733.422,837181,837175.222,837191.888,851925.31,851933.7,2023-03-30T11:58:33Z,851941.976,NULL,Abrechnung,uhasibu,s,kusahihisha,mpambano,mashambulizi,NA,qt,NA,3,NA,NA,NA,NA,NA,NA,NA,NA,NA,NA,NA,NA,NA,NA,NA,NA,NA,NA,NA
4f360,Deep Question,html.Page,3_0_3_0_6_0_0,NA,NA,form submission,31006.824000001,851933.8,851925.31,851941.976,882948.8,882949.4,2023-03-30T11:59:04Z,882959.046,NULL,Auftrag,uagizaji,d,NA,NA,NA,uaghjazi,NA,NA,3,NA,NA,NA,NA,NA,NA,NA,NA,NA,NA,NA,NA,NA,NA,NA,NA,NA,NA,NA
4f360,"""Richtig""-Screen",canvas.Screen,3_0_3_0_6_0_1,NA,NA,skipped,NA,882953.1,NA,NA,882948.8,882953.3,2023-03-30T11:59:04Z,882959.046,NULL,Auftrag,uagizaji,d,NA,NA,NA,NA,qt,NA,3,NA,NA,NA,NA,NA,NA,NA,NA,NA,NA,NA,NA,NA,NA,NA,NA,NA,NA,NA
4f360,"""Falsch""-Screen",canvas.Screen,3_0_3_0_6_0_2,NA,NA,timeout,4999.8,882953.9,882942.38,882959.046,887942.18,887946.4,2023-03-30T11:59:09Z,887958.846,NULL,Auftrag,uagizaji,d,NA,NA,NA,NA,qt,0,3,NA,NA,NA,NA,NA,NA,NA,NA,NA,NA,NA,NA,NA,NA,NA,NA,NA,NA,NA
4f360,deep,flow.Sequence,3_0_3_0_6_0,NA,NA,completion,36000.204,851933.8,851925.31,851941.976,887942.18,887946.7,2023-03-30T11:59:09Z,887958.846,NULL,Auftrag,uagizaji,d,NA,NA,NA,NA,qt,NA,3,NA,NA,NA,NA,NA,NA,NA,NA,NA,NA,NA,NA,NA,NA,NA,NA,NA,NA,NA
4f360,shallow,flow.Sequence,3_0_3_0_6_1,NA,NA,skipped,NA,887946.9,NA,NA,887942.18,887947,2023-03-30T11:59:09Z,887958.846,NULL,Auftrag,uagizaji,d,NA,NA,NA,NA,qt,NA,3,NA,NA,NA,NA,NA,NA,NA,NA,NA,NA,NA,NA,NA,NA,NA,NA,NA,NA,NA
4f360,task,flow.Sequence,3_0_3_0_6,NA,NA,completion,36000.204,851933.7,851925.31,851941.976,887942.18,887947.3,2023-03-30T11:59:09Z,887958.846,NULL,Auftrag,uagizaji,d,NA,NA,NA,NA,qt,NA,3,NA,NA,NA,NA,NA,NA,NA,NA,NA,NA,NA,NA,NA,NA,NA,NA,NA,NA,NA
4f360,deep,flow.Sequence,3_0_3_0_7_0,NA,NA,skipped,NA,887947.4,NA,NA,887942.18,887947.5,2023-03-30T11:59:09Z,887958.846,NULL,Zufall,kikuti,s,kukosekana,uchoraji,leseni,NA,qt,NA,3,NA,NA,NA,NA,NA,NA,NA,NA,NA,NA,NA,NA,NA,NA,NA,NA,NA,NA,NA
4f360,Shallow Question,html.Page,3_0_3_0_7_1_0,NA,NA,form submission,5106.2540000015,887947.7,887942.18,887958.846,893065.1,893065.5,2023-03-30T11:59:14Z,893075.967,NULL,Zufall,kikuti,s,kukosekana,uchoraji,leseni,kikuti,NA,NA,3,NA,NA,NA,NA,NA,NA,NA,NA,NA,NA,NA,NA,NA,NA,NA,NA,NA,NA,NA
4f360,"""Richtig""-Screen",canvas.Screen,3_0_3_0_7_1_1,NA,NA,timeout,4999.8,893068.5,893059.301,893075.967,898059.101,898064.1,2023-03-30T11:59:19Z,898075.767,NULL,Zufall,kikuti,s,kukosekana,uchoraji,leseni,NA,qt,1,3,NA,NA,NA,NA,NA,NA,NA,NA,NA,NA,NA,NA,NA,NA,NA,NA,NA,NA,NA
4f360,"""Falsch""-Screen",canvas.Screen,3_0_3_0_7_1_2,NA,NA,skipped,NA,898068.4,NA,NA,898059.101,898068.6,2023-03-30T11:59:19Z,898075.767,NULL,Zufall,kikuti,s,kukosekana,uchoraji,leseni,NA,qt,NA,3,NA,NA,NA,NA,NA,NA,NA,NA,NA,NA,NA,NA,NA,NA,NA,NA,NA,NA,NA
4f360,shallow,flow.Sequence,3_0_3_0_7_1,NA,NA,completion,10100.255,887947.6,887942.18,887958.846,898059.101,898068.9,2023-03-30T11:59:19Z,898075.767,NULL,Zufall,kikuti,s,kukosekana,uchoraji,leseni,NA,qt,NA,3,NA,NA,NA,NA,NA,NA,NA,NA,NA,NA,NA,NA,NA,NA,NA,NA,NA,NA,NA
4f360,task,flow.Sequence,3_0_3_0_7,NA,NA,completion,10100.255,887947.4,887942.18,887958.846,898059.101,898069,2023-03-30T11:59:19Z,898075.767,NULL,Zufall,kikuti,s,kukosekana,uchoraji,leseni,NA,qt,NA,3,NA,NA,NA,NA,NA,NA,NA,NA,NA,NA,NA,NA,NA,NA,NA,NA,NA,NA,NA
4f360,block,flow.Loop,3_0_3_0,NA,NA,completion,174086.253,723972.6,723939.516,723972.848,898059.101,898069.1,2023-03-30T11:59:19Z,898075.767,NULL,NA,NA,NA,NA,NA,NA,NA,qt,NA,3,NA,NA,NA,NA,NA,NA,NA,NA,NA,NA,NA,NA,NA,NA,NA,NA,NA,NA,NA
4f360,weiter,canvas.Screen,3_0_3_1,sdf,keypress(Space),response,15407.533000001,898069.2,898059.101,898075.767,913483.3,913489.4,2023-03-30T11:59:35Z,913508.989,NULL,NA,NA,NA,NA,NA,NA,NA,qt,NA,3,NA,NA,NA,NA,NA,NA,NA,NA,NA,NA,NA,NA,NA,NA,NA,NA,NA,NA,NA
4f360,check continue,flow.Sequence,3_0_3,NA,NA,completion,189510.452,723972.5,723939.516,723972.848,913483.3,913489.7,2023-03-30T11:59:35Z,913508.989,NULL,NA,NA,NA,NA,NA,NA,NA,qt,NA,3,NA,NA,NA,NA,NA,NA,NA,NA,NA,NA,NA,NA,NA,NA,NA,NA,NA,NA,NA
4f360,deep,flow.Sequence,3_0_4_0_0_0,NA,NA,skipped,NA,913515.6,NA,NA,913483.3,913515.7,2023-03-30T11:59:35Z,913508.989,NULL,Schönheit,kirembo,s,mahojiano,msisimko,jitihadi,NA,sd,NA,4,NA,NA,NA,NA,NA,NA,NA,NA,NA,NA,NA,NA,NA,NA,NA,NA,NA,NA,NA
4f360,Shallow Question,html.Page,3_0_4_0_0_1_0,NA,NA,form submission,13306.711000001,913515.8,913475.657,913508.989,926815.7,926816,2023-03-30T11:59:48Z,926826.403,NULL,Schönheit,kirembo,s,mahojiano,msisimko,jitihadi,kirembo,NA,NA,4,NA,NA,NA,NA,NA,NA,NA,NA,NA,NA,NA,NA,NA,NA,NA,NA,NA,NA,NA
4f360,"""Richtig""-Screen",canvas.Screen,3_0_4_0_0_1_1,NA,NA,timeout,4999.7999999999,926818.2,926809.737,926826.403,931809.537,931813.3,2023-03-30T11:59:53Z,931826.203,NULL,Schönheit,kirembo,s,mahojiano,msisimko,jitihadi,NA,sd,1,4,NA,NA,NA,NA,NA,NA,NA,NA,NA,NA,NA,NA,NA,NA,NA,NA,NA,NA,NA
4f360,"""Falsch""-Screen",canvas.Screen,3_0_4_0_0_1_2,NA,NA,skipped,NA,931817.3,NA,NA,931809.537,931817.4,2023-03-30T11:59:53Z,931826.203,NULL,Schönheit,kirembo,s,mahojiano,msisimko,jitihadi,NA,sd,NA,4,NA,NA,NA,NA,NA,NA,NA,NA,NA,NA,NA,NA,NA,NA,NA,NA,NA,NA,NA
4f360,shallow,flow.Sequence,3_0_4_0_0_1,NA,NA,completion,18300.548,913515.8,913475.657,913508.989,931809.537,931817.5,2023-03-30T11:59:53Z,931826.203,NULL,Schönheit,kirembo,s,mahojiano,msisimko,jitihadi,NA,sd,NA,4,NA,NA,NA,NA,NA,NA,NA,NA,NA,NA,NA,NA,NA,NA,NA,NA,NA,NA,NA
4f360,task,flow.Sequence,3_0_4_0_0,NA,NA,completion,18300.548,913515.5,913475.657,913508.989,931809.537,931817.6,2023-03-30T11:59:53Z,931826.203,NULL,Schönheit,kirembo,s,mahojiano,msisimko,jitihadi,NA,sd,NA,4,NA,NA,NA,NA,NA,NA,NA,NA,NA,NA,NA,NA,NA,NA,NA,NA,NA,NA,NA
4f360,Deep Question,html.Page,3_0_4_0_1_0_0,NA,NA,form submission,45287.197,931817.7,931809.537,931826.203,977113.4,977113.6,2023-03-30T12:00:38Z,977126.806,NULL,Wettbewerb,ushindani,d,NA,NA,NA,ushin,NA,NA,4,NA,NA,NA,NA,NA,NA,NA,NA,NA,NA,NA,NA,NA,NA,NA,NA,NA,NA,NA
4f360,"""Richtig""-Screen",canvas.Screen,3_0_4_0_1_0_1,NA,NA,skipped,NA,977115.7,NA,NA,977113.4,977115.7,2023-03-30T12:00:38Z,977126.806,NULL,Wettbewerb,ushindani,d,NA,NA,NA,NA,sd,NA,4,NA,NA,NA,NA,NA,NA,NA,NA,NA,NA,NA,NA,NA,NA,NA,NA,NA,NA,NA
4f360,"""Falsch""-Screen",canvas.Screen,3_0_4_0_1_0_2,NA,NA,timeout,4999.8,977116.1,977110.14,977126.806,982109.94,982114,2023-03-30T12:00:43Z,982126.606,NULL,Wettbewerb,ushindani,d,NA,NA,NA,NA,sd,0,4,NA,NA,NA,NA,NA,NA,NA,NA,NA,NA,NA,NA,NA,NA,NA,NA,NA,NA,NA
4f360,deep,flow.Sequence,3_0_4_0_1_0,NA,NA,completion,50283.737,931817.7,931809.537,931826.203,982109.94,982114.4,2023-03-30T12:00:43Z,982126.606,NULL,Wettbewerb,ushindani,d,NA,NA,NA,NA,sd,NA,4,NA,NA,NA,NA,NA,NA,NA,NA,NA,NA,NA,NA,NA,NA,NA,NA,NA,NA,NA
4f360,shallow,flow.Sequence,3_0_4_0_1_1,NA,NA,skipped,NA,982114.5,NA,NA,982109.94,982114.7,2023-03-30T12:00:43Z,982126.606,NULL,Wettbewerb,ushindani,d,NA,NA,NA,NA,sd,NA,4,NA,NA,NA,NA,NA,NA,NA,NA,NA,NA,NA,NA,NA,NA,NA,NA,NA,NA,NA
4f360,task,flow.Sequence,3_0_4_0_1,NA,NA,completion,50283.737,931817.6,931809.537,931826.203,982109.94,982114.9,2023-03-30T12:00:43Z,982126.606,NULL,Wettbewerb,ushindani,d,NA,NA,NA,NA,sd,NA,4,NA,NA,NA,NA,NA,NA,NA,NA,NA,NA,NA,NA,NA,NA,NA,NA,NA,NA,NA
4f360,Deep Question,html.Page,3_0_4_0_2_0_0,NA,NA,form submission,74640.894,982115,982109.94,982126.606,1056767.5,1056768,2023-03-30T12:01:58Z,1056777.359,NULL,Angreifer,mshambulizi,d,NA,NA,NA,usham,NA,NA,4,NA,NA,NA,NA,NA,NA,NA,NA,NA,NA,NA,NA,NA,NA,NA,NA,NA,NA,NA
4f360,"""Richtig""-Screen",canvas.Screen,3_0_4_0_2_0_1,NA,NA,skipped,NA,1056770.5,NA,NA,1056767.5,1056770.6,2023-03-30T12:01:58Z,1056777.359,NULL,Angreifer,mshambulizi,d,NA,NA,NA,NA,sd,NA,4,NA,NA,NA,NA,NA,NA,NA,NA,NA,NA,NA,NA,NA,NA,NA,NA,NA,NA,NA
4f360,"""Falsch""-Screen",canvas.Screen,3_0_4_0_2_0_2,NA,NA,timeout,4999.8,1056771.7,1056760.693,1056777.359,1061760.493,1061765.8,2023-03-30T12:02:03Z,1061777.159,NULL,Angreifer,mshambulizi,d,NA,NA,NA,NA,sd,0,4,NA,NA,NA,NA,NA,NA,NA,NA,NA,NA,NA,NA,NA,NA,NA,NA,NA,NA,NA
4f360,deep,flow.Sequence,3_0_4_0_2_0,NA,NA,completion,79633.887,982115,982109.94,982126.606,1061760.493,1061766.2,2023-03-30T12:02:03Z,1061777.159,NULL,Angreifer,mshambulizi,d,NA,NA,NA,NA,sd,NA,4,NA,NA,NA,NA,NA,NA,NA,NA,NA,NA,NA,NA,NA,NA,NA,NA,NA,NA,NA
4f360,shallow,flow.Sequence,3_0_4_0_2_1,NA,NA,skipped,NA,1061766.3,NA,NA,1061760.493,1061766.5,2023-03-30T12:02:03Z,1061777.159,NULL,Angreifer,mshambulizi,d,NA,NA,NA,NA,sd,NA,4,NA,NA,NA,NA,NA,NA,NA,NA,NA,NA,NA,NA,NA,NA,NA,NA,NA,NA,NA
4f360,task,flow.Sequence,3_0_4_0_2,NA,NA,completion,79633.887,982114.9,982109.94,982126.606,1061760.493,1061766.7,2023-03-30T12:02:03Z,1061777.159,NULL,Angreifer,mshambulizi,d,NA,NA,NA,NA,sd,NA,4,NA,NA,NA,NA,NA,NA,NA,NA,NA,NA,NA,NA,NA,NA,NA,NA,NA,NA,NA
4f360,deep,flow.Sequence,3_0_4_0_3_0,NA,NA,skipped,NA,1061766.8,NA,NA,1061760.493,1061766.9,2023-03-30T12:02:03Z,1061777.159,NULL,Abrechnung,uhasibu,s,kusahihisha,mpambano,mashambulizi,NA,sd,NA,4,NA,NA,NA,NA,NA,NA,NA,NA,NA,NA,NA,NA,NA,NA,NA,NA,NA,NA,NA
4f360,Shallow Question,html.Page,3_0_4_0_3_1_0,NA,NA,form submission,10838.741,1061767.1,1061760.493,1061777.159,1072615.9,1072616.3,2023-03-30T12:02:14Z,1072628.444,NULL,Abrechnung,uhasibu,s,kusahihisha,mpambano,mashambulizi,uhasibu,NA,NA,4,NA,NA,NA,NA,NA,NA,NA,NA,NA,NA,NA,NA,NA,NA,NA,NA,NA,NA,NA
4f360,"""Richtig""-Screen",canvas.Screen,3_0_4_0_3_1_1,NA,NA,timeout,4999.8,1072619,1072611.778,1072628.444,1077611.578,1077616.6,2023-03-30T12:02:19Z,1077628.244,NULL,Abrechnung,uhasibu,s,kusahihisha,mpambano,mashambulizi,NA,sd,1,4,NA,NA,NA,NA,NA,NA,NA,NA,NA,NA,NA,NA,NA,NA,NA,NA,NA,NA,NA
4f360,"""Falsch""-Screen",canvas.Screen,3_0_4_0_3_1_2,NA,NA,skipped,NA,1077619.8,NA,NA,1077611.578,1077619.9,2023-03-30T12:02:19Z,1077628.244,NULL,Abrechnung,uhasibu,s,kusahihisha,mpambano,mashambulizi,NA,sd,NA,4,NA,NA,NA,NA,NA,NA,NA,NA,NA,NA,NA,NA,NA,NA,NA,NA,NA,NA,NA
4f360,shallow,flow.Sequence,3_0_4_0_3_1,NA,NA,completion,15834.419,1061767.1,1061760.493,1061777.159,1077611.578,1077620,2023-03-30T12:02:19Z,1077628.244,NULL,Abrechnung,uhasibu,s,kusahihisha,mpambano,mashambulizi,NA,sd,NA,4,NA,NA,NA,NA,NA,NA,NA,NA,NA,NA,NA,NA,NA,NA,NA,NA,NA,NA,NA
4f360,task,flow.Sequence,3_0_4_0_3,NA,NA,completion,15834.419,1061766.8,1061760.493,1061777.159,1077611.578,1077620.2,2023-03-30T12:02:19Z,1077628.244,NULL,Abrechnung,uhasibu,s,kusahihisha,mpambano,mashambulizi,NA,sd,NA,4,NA,NA,NA,NA,NA,NA,NA,NA,NA,NA,NA,NA,NA,NA,NA,NA,NA,NA,NA
4f360,Deep Question,html.Page,3_0_4_0_4_0_0,NA,NA,form submission,37889.256,1077620.3,1077611.578,1077628.244,1115517.5,1115517.9,2023-03-30T12:02:57Z,1115528.866,NULL,Auftrag,uagizaji,d,NA,NA,NA,uagazali,NA,NA,4,NA,NA,NA,NA,NA,NA,NA,NA,NA,NA,NA,NA,NA,NA,NA,NA,NA,NA,NA
4f360,"""Richtig""-Screen",canvas.Screen,3_0_4_0_4_0_1,NA,NA,skipped,NA,1115520.9,NA,NA,1115517.5,1115521.2,2023-03-30T12:02:57Z,1115528.866,NULL,Auftrag,uagizaji,d,NA,NA,NA,NA,sd,NA,4,NA,NA,NA,NA,NA,NA,NA,NA,NA,NA,NA,NA,NA,NA,NA,NA,NA,NA,NA
4f360,"""Falsch""-Screen",canvas.Screen,3_0_4_0_4_0_2,NA,NA,timeout,4999.8,1115522.1,1115512.2,1115528.866,1120512,1120513.5,2023-03-30T12:03:02Z,1120528.666,NULL,Auftrag,uagizaji,d,NA,NA,NA,NA,sd,0,4,NA,NA,NA,NA,NA,NA,NA,NA,NA,NA,NA,NA,NA,NA,NA,NA,NA,NA,NA
4f360,deep,flow.Sequence,3_0_4_0_4_0,NA,NA,completion,42883.756,1077620.3,1077611.578,1077628.244,1120512,1120514,2023-03-30T12:03:02Z,1120528.666,NULL,Auftrag,uagizaji,d,NA,NA,NA,NA,sd,NA,4,NA,NA,NA,NA,NA,NA,NA,NA,NA,NA,NA,NA,NA,NA,NA,NA,NA,NA,NA
4f360,shallow,flow.Sequence,3_0_4_0_4_1,NA,NA,skipped,NA,1120514.2,NA,NA,1120512,1120514.3,2023-03-30T12:03:02Z,1120528.666,NULL,Auftrag,uagizaji,d,NA,NA,NA,NA,sd,NA,4,NA,NA,NA,NA,NA,NA,NA,NA,NA,NA,NA,NA,NA,NA,NA,NA,NA,NA,NA
4f360,task,flow.Sequence,3_0_4_0_4,NA,NA,completion,42883.756,1077620.3,1077611.578,1077628.244,1120512,1120514.5,2023-03-30T12:03:02Z,1120528.666,NULL,Auftrag,uagizaji,d,NA,NA,NA,NA,sd,NA,4,NA,NA,NA,NA,NA,NA,NA,NA,NA,NA,NA,NA,NA,NA,NA,NA,NA,NA,NA
4f360,deep,flow.Sequence,3_0_4_0_5_0,NA,NA,skipped,NA,1120514.7,NA,NA,1120512,1120514.7,2023-03-30T12:03:02Z,1120528.666,NULL,Zufall,kikuti,s,kukosekana,uchoraji,leseni,NA,sd,NA,4,NA,NA,NA,NA,NA,NA,NA,NA,NA,NA,NA,NA,NA,NA,NA,NA,NA,NA,NA
4f360,Shallow Question,html.Page,3_0_4_0_5_1_0,NA,NA,form submission,5539.5340000011,1120514.9,1120512,1120528.666,1126068.2,1126068.7,2023-03-30T12:03:07Z,1126078.444,NULL,Zufall,kikuti,s,kukosekana,uchoraji,leseni,kikuti,NA,NA,4,NA,NA,NA,NA,NA,NA,NA,NA,NA,NA,NA,NA,NA,NA,NA,NA,NA,NA,NA
4f360,"""Richtig""-Screen",canvas.Screen,3_0_4_0_5_1_1,NA,NA,timeout,4999.8,1126071.3,1126061.778,1126078.444,1131061.578,1131065.3,2023-03-30T12:03:12Z,1131078.244,NULL,Zufall,kikuti,s,kukosekana,uchoraji,leseni,NA,sd,1,4,NA,NA,NA,NA,NA,NA,NA,NA,NA,NA,NA,NA,NA,NA,NA,NA,NA,NA,NA
4f360,"""Falsch""-Screen",canvas.Screen,3_0_4_0_5_1_2,NA,NA,skipped,NA,1131069,NA,NA,1131061.578,1131069.2,2023-03-30T12:03:12Z,1131078.244,NULL,Zufall,kikuti,s,kukosekana,uchoraji,leseni,NA,sd,NA,4,NA,NA,NA,NA,NA,NA,NA,NA,NA,NA,NA,NA,NA,NA,NA,NA,NA,NA,NA
4f360,shallow,flow.Sequence,3_0_4_0_5_1,NA,NA,completion,10532.912,1120514.9,1120512,1120528.666,1131061.578,1131069.3,2023-03-30T12:03:12Z,1131078.244,NULL,Zufall,kikuti,s,kukosekana,uchoraji,leseni,NA,sd,NA,4,NA,NA,NA,NA,NA,NA,NA,NA,NA,NA,NA,NA,NA,NA,NA,NA,NA,NA,NA
4f360,task,flow.Sequence,3_0_4_0_5,NA,NA,completion,10532.912,1120514.6,1120512,1120528.666,1131061.578,1131069.4,2023-03-30T12:03:12Z,1131078.244,NULL,Zufall,kikuti,s,kukosekana,uchoraji,leseni,NA,sd,NA,4,NA,NA,NA,NA,NA,NA,NA,NA,NA,NA,NA,NA,NA,NA,NA,NA,NA,NA,NA
4f360,Deep Question,html.Page,3_0_4_0_6_0_0,NA,NA,form submission,30422.256,1131069.5,1131061.578,1131078.244,1161500.5,1161500.8,2023-03-30T12:03:43Z,1161529.155,NULL,Sänger,mwimbaji,d,NA,NA,NA,mwimbihi,NA,NA,4,NA,NA,NA,NA,NA,NA,NA,NA,NA,NA,NA,NA,NA,NA,NA,NA,NA,NA,NA
4f360,"""Richtig""-Screen",canvas.Screen,3_0_4_0_6_0_1,NA,NA,skipped,NA,1161502.6,NA,NA,1161500.5,1161502.7,2023-03-30T12:03:43Z,1161529.155,NULL,Sänger,mwimbaji,d,NA,NA,NA,NA,sd,NA,4,NA,NA,NA,NA,NA,NA,NA,NA,NA,NA,NA,NA,NA,NA,NA,NA,NA,NA,NA
4f360,"""Falsch""-Screen",canvas.Screen,3_0_4_0_6_0_2,NA,NA,timeout,4999.8,1161503,1161512.489,1161529.155,1166512.289,1166516.2,2023-03-30T12:03:48Z,1166528.955,NULL,Sänger,mwimbaji,d,NA,NA,NA,NA,sd,0,4,NA,NA,NA,NA,NA,NA,NA,NA,NA,NA,NA,NA,NA,NA,NA,NA,NA,NA,NA
4f360,deep,flow.Sequence,3_0_4_0_6_0,NA,NA,completion,35434.045,1131069.5,1131061.578,1131078.244,1166512.289,1166516.7,2023-03-30T12:03:48Z,1166528.955,NULL,Sänger,mwimbaji,d,NA,NA,NA,NA,sd,NA,4,NA,NA,NA,NA,NA,NA,NA,NA,NA,NA,NA,NA,NA,NA,NA,NA,NA,NA,NA
4f360,shallow,flow.Sequence,3_0_4_0_6_1,NA,NA,skipped,NA,1166516.8,NA,NA,1166512.289,1166517,2023-03-30T12:03:48Z,1166528.955,NULL,Sänger,mwimbaji,d,NA,NA,NA,NA,sd,NA,4,NA,NA,NA,NA,NA,NA,NA,NA,NA,NA,NA,NA,NA,NA,NA,NA,NA,NA,NA
4f360,task,flow.Sequence,3_0_4_0_6,NA,NA,completion,35434.045,1131069.5,1131061.578,1131078.244,1166512.289,1166517.2,2023-03-30T12:03:48Z,1166528.955,NULL,Sänger,mwimbaji,d,NA,NA,NA,NA,sd,NA,4,NA,NA,NA,NA,NA,NA,NA,NA,NA,NA,NA,NA,NA,NA,NA,NA,NA,NA,NA
4f360,deep,flow.Sequence,3_0_4_0_7_0,NA,NA,skipped,NA,1166517.3,NA,NA,1166512.289,1166517.4,2023-03-30T12:03:48Z,1166528.955,NULL,Kanzler,diwani,s,rasilmali,mahitaji,maabudu,NA,sd,NA,4,NA,NA,NA,NA,NA,NA,NA,NA,NA,NA,NA,NA,NA,NA,NA,NA,NA,NA,NA
4f360,Shallow Question,html.Page,3_0_4_0_7_1_0,NA,NA,form submission,10705.945,1166517.5,1166512.289,1166528.955,1177234.9,1177235.4,2023-03-30T12:03:58Z,1177245.718,NULL,Kanzler,diwani,s,rasilmali,mahitaji,maabudu,diwani,NA,NA,4,NA,NA,NA,NA,NA,NA,NA,NA,NA,NA,NA,NA,NA,NA,NA,NA,NA,NA,NA
4f360,"""Richtig""-Screen",canvas.Screen,3_0_4_0_7_1_1,NA,NA,timeout,5000.4689999998,1177238.8,1177229.052,1177245.718,1182229.521,1182230.6,2023-03-30T12:04:03Z,1182246.187,NULL,Kanzler,diwani,s,rasilmali,mahitaji,maabudu,NA,sd,1,4,NA,NA,NA,NA,NA,NA,NA,NA,NA,NA,NA,NA,NA,NA,NA,NA,NA,NA,NA
4f360,"""Falsch""-Screen",canvas.Screen,3_0_4_0_7_1_2,NA,NA,skipped,NA,1182234.8,NA,NA,1182229.521,1182235,2023-03-30T12:04:03Z,1182246.187,NULL,Kanzler,diwani,s,rasilmali,mahitaji,maabudu,NA,sd,NA,4,NA,NA,NA,NA,NA,NA,NA,NA,NA,NA,NA,NA,NA,NA,NA,NA,NA,NA,NA
4f360,shallow,flow.Sequence,3_0_4_0_7_1,NA,NA,completion,15700.566,1166517.5,1166512.289,1166528.955,1182229.521,1182235.2,2023-03-30T12:04:03Z,1182246.187,NULL,Kanzler,diwani,s,rasilmali,mahitaji,maabudu,NA,sd,NA,4,NA,NA,NA,NA,NA,NA,NA,NA,NA,NA,NA,NA,NA,NA,NA,NA,NA,NA,NA
4f360,task,flow.Sequence,3_0_4_0_7,NA,NA,completion,15700.566,1166517.3,1166512.289,1166528.955,1182229.521,1182235.4,2023-03-30T12:04:03Z,1182246.187,NULL,Kanzler,diwani,s,rasilmali,mahitaji,maabudu,NA,sd,NA,4,NA,NA,NA,NA,NA,NA,NA,NA,NA,NA,NA,NA,NA,NA,NA,NA,NA,NA,NA
4f360,block,flow.Loop,3_0_4_0,NA,NA,completion,268720.532,913515.5,913475.657,913508.989,1182229.521,1182235.5,2023-03-30T12:04:03Z,1182246.187,NULL,NA,NA,NA,NA,NA,NA,NA,sd,NA,4,NA,NA,NA,NA,NA,NA,NA,NA,NA,NA,NA,NA,NA,NA,NA,NA,NA,NA,NA
4f360,weiter,canvas.Screen,3_0_4_1,sdf,keypress(Space),response,14186.413000002,1182235.6,1182229.521,1182246.187,1196432.6,1196439,2023-03-30T12:04:18Z,1196462.285,NULL,NA,NA,NA,NA,NA,NA,NA,sd,NA,4,NA,NA,NA,NA,NA,NA,NA,NA,NA,NA,NA,NA,NA,NA,NA,NA,NA,NA,NA
4f360,check continue,flow.Sequence,3_0_4,NA,NA,completion,282923.611,913515.5,913475.657,913508.989,1196432.6,1196439.3,2023-03-30T12:04:18Z,1196462.285,NULL,NA,NA,NA,NA,NA,NA,NA,sd,NA,4,NA,NA,NA,NA,NA,NA,NA,NA,NA,NA,NA,NA,NA,NA,NA,NA,NA,NA,NA
4f360,deep,flow.Sequence,3_0_5_0_0_0,NA,NA,skipped,NA,1196465.1,NA,NA,1196432.6,1196465.1,2023-03-30T12:04:18Z,1196462.285,NULL,Abrechnung,uhasibu,s,kusahihisha,mpambano,mashambulizi,NA,sdf,NA,5,NA,NA,NA,NA,NA,NA,NA,NA,NA,NA,NA,NA,NA,NA,NA,NA,NA,NA,NA
4f360,Shallow Question,html.Page,3_0_5_0_0_1_0,NA,NA,form submission,7007.3150000016,1196465.3,1196428.953,1196462.285,1203469.6,1203470,2023-03-30T12:04:25Z,1203479.66,NULL,Abrechnung,uhasibu,s,kusahihisha,mpambano,mashambulizi,uhasibu,NA,NA,5,NA,NA,NA,NA,NA,NA,NA,NA,NA,NA,NA,NA,NA,NA,NA,NA,NA,NA,NA
4f360,"""Richtig""-Screen",canvas.Screen,3_0_5_0_0_1_1,NA,NA,timeout,4999.8,1203471.9,1203462.994,1203479.66,1208462.794,1208465.2,2023-03-30T12:04:30Z,1208479.46,NULL,Abrechnung,uhasibu,s,kusahihisha,mpambano,mashambulizi,NA,sdf,1,5,NA,NA,NA,NA,NA,NA,NA,NA,NA,NA,NA,NA,NA,NA,NA,NA,NA,NA,NA
4f360,"""Falsch""-Screen",canvas.Screen,3_0_5_0_0_1_2,NA,NA,skipped,NA,1208469.5,NA,NA,1208462.794,1208469.7,2023-03-30T12:04:30Z,1208479.46,NULL,Abrechnung,uhasibu,s,kusahihisha,mpambano,mashambulizi,NA,sdf,NA,5,NA,NA,NA,NA,NA,NA,NA,NA,NA,NA,NA,NA,NA,NA,NA,NA,NA,NA,NA
4f360,shallow,flow.Sequence,3_0_5_0_0_1,NA,NA,completion,12000.509,1196465.3,1196428.953,1196462.285,1208462.794,1208469.9,2023-03-30T12:04:30Z,1208479.46,NULL,Abrechnung,uhasibu,s,kusahihisha,mpambano,mashambulizi,NA,sdf,NA,5,NA,NA,NA,NA,NA,NA,NA,NA,NA,NA,NA,NA,NA,NA,NA,NA,NA,NA,NA
4f360,task,flow.Sequence,3_0_5_0_0,NA,NA,completion,12000.509,1196465,1196428.953,1196462.285,1208462.794,1208470.1,2023-03-30T12:04:30Z,1208479.46,NULL,Abrechnung,uhasibu,s,kusahihisha,mpambano,mashambulizi,NA,sdf,NA,5,NA,NA,NA,NA,NA,NA,NA,NA,NA,NA,NA,NA,NA,NA,NA,NA,NA,NA,NA
4f360,deep,flow.Sequence,3_0_5_0_1_0,NA,NA,skipped,NA,1208470.1,NA,NA,1208462.794,1208470.2,2023-03-30T12:04:30Z,1208479.46,NULL,Zufall,kikuti,s,kukosekana,uchoraji,leseni,NA,sdf,NA,5,NA,NA,NA,NA,NA,NA,NA,NA,NA,NA,NA,NA,NA,NA,NA,NA,NA,NA,NA
4f360,Shallow Question,html.Page,3_0_5_0_1_1_0,NA,NA,form submission,6555.7400000012,1208470.3,1208462.794,1208479.46,1215035.2,1215035.7,2023-03-30T12:04:36Z,1215046.436,NULL,Zufall,kikuti,s,kukosekana,uchoraji,leseni,kikuti,NA,NA,5,NA,NA,NA,NA,NA,NA,NA,NA,NA,NA,NA,NA,NA,NA,NA,NA,NA,NA,NA
4f360,"""Richtig""-Screen",canvas.Screen,3_0_5_0_1_1_1,NA,NA,timeout,4999.8,1215038.6,1215029.77,1215046.436,1220029.57,1220033.4,2023-03-30T12:04:41Z,1220046.236,NULL,Zufall,kikuti,s,kukosekana,uchoraji,leseni,NA,sdf,1,5,NA,NA,NA,NA,NA,NA,NA,NA,NA,NA,NA,NA,NA,NA,NA,NA,NA,NA,NA
4f360,"""Falsch""-Screen",canvas.Screen,3_0_5_0_1_1_2,NA,NA,skipped,NA,1220037.9,NA,NA,1220029.57,1220038.1,2023-03-30T12:04:41Z,1220046.236,NULL,Zufall,kikuti,s,kukosekana,uchoraji,leseni,NA,sdf,NA,5,NA,NA,NA,NA,NA,NA,NA,NA,NA,NA,NA,NA,NA,NA,NA,NA,NA,NA,NA
4f360,shallow,flow.Sequence,3_0_5_0_1_1,NA,NA,completion,11550.11,1208470.3,1208462.794,1208479.46,1220029.57,1220038.3,2023-03-30T12:04:41Z,1220046.236,NULL,Zufall,kikuti,s,kukosekana,uchoraji,leseni,NA,sdf,NA,5,NA,NA,NA,NA,NA,NA,NA,NA,NA,NA,NA,NA,NA,NA,NA,NA,NA,NA,NA
4f360,task,flow.Sequence,3_0_5_0_1,NA,NA,completion,11550.11,1208470.1,1208462.794,1208479.46,1220029.57,1220038.4,2023-03-30T12:04:41Z,1220046.236,NULL,Zufall,kikuti,s,kukosekana,uchoraji,leseni,NA,sdf,NA,5,NA,NA,NA,NA,NA,NA,NA,NA,NA,NA,NA,NA,NA,NA,NA,NA,NA,NA,NA
4f360,deep,flow.Sequence,3_0_5_0_2_0,NA,NA,skipped,NA,1220038.5,NA,NA,1220029.57,1220038.6,2023-03-30T12:04:41Z,1220046.236,NULL,Kanzler,diwani,s,rasilmali,mahitaji,maabudu,NA,sdf,NA,5,NA,NA,NA,NA,NA,NA,NA,NA,NA,NA,NA,NA,NA,NA,NA,NA,NA,NA,NA
4f360,Shallow Question,html.Page,3_0_5_0_2_1_0,NA,NA,form submission,4373.9640000011,1220038.7,1220029.57,1220046.236,1224420.2,1224420.5,2023-03-30T12:04:46Z,1224429.972,NULL,Kanzler,diwani,s,rasilmali,mahitaji,maabudu,diwani,NA,NA,5,NA,NA,NA,NA,NA,NA,NA,NA,NA,NA,NA,NA,NA,NA,NA,NA,NA,NA,NA
4f360,"""Richtig""-Screen",canvas.Screen,3_0_5_0_2_1_1,NA,NA,timeout,4999.8,1224423.2,1224413.306,1224429.972,1229413.106,1229414.6,2023-03-30T12:04:50Z,1229429.772,NULL,Kanzler,diwani,s,rasilmali,mahitaji,maabudu,NA,sdf,1,5,NA,NA,NA,NA,NA,NA,NA,NA,NA,NA,NA,NA,NA,NA,NA,NA,NA,NA,NA
4f360,"""Falsch""-Screen",canvas.Screen,3_0_5_0_2_1_2,NA,NA,skipped,NA,1229418.8,NA,NA,1229413.106,1229418.9,2023-03-30T12:04:51Z,1229429.772,NULL,Kanzler,diwani,s,rasilmali,mahitaji,maabudu,NA,sdf,NA,5,NA,NA,NA,NA,NA,NA,NA,NA,NA,NA,NA,NA,NA,NA,NA,NA,NA,NA,NA
4f360,shallow,flow.Sequence,3_0_5_0_2_1,NA,NA,completion,9366.8699999999,1220038.7,1220029.57,1220046.236,1229413.106,1229419.1,2023-03-30T12:04:51Z,1229429.772,NULL,Kanzler,diwani,s,rasilmali,mahitaji,maabudu,NA,sdf,NA,5,NA,NA,NA,NA,NA,NA,NA,NA,NA,NA,NA,NA,NA,NA,NA,NA,NA,NA,NA
4f360,task,flow.Sequence,3_0_5_0_2,NA,NA,completion,9366.8699999999,1220038.5,1220029.57,1220046.236,1229413.106,1229419.3,2023-03-30T12:04:51Z,1229429.772,NULL,Kanzler,diwani,s,rasilmali,mahitaji,maabudu,NA,sdf,NA,5,NA,NA,NA,NA,NA,NA,NA,NA,NA,NA,NA,NA,NA,NA,NA,NA,NA,NA,NA
4f360,Deep Question,html.Page,3_0_5_0_3_0_0,NA,NA,form submission,40855.328000001,1229419.5,1229413.106,1229429.772,1270285.1,1270285.3,2023-03-30T12:05:31Z,1270313.783,NULL,Angreifer,mshambulizi,d,NA,NA,NA,ushambulizi,NA,NA,5,NA,NA,NA,NA,NA,NA,NA,NA,NA,NA,NA,NA,NA,NA,NA,NA,NA,NA,NA
4f360,"""Richtig""-Screen",canvas.Screen,3_0_5_0_3_0_1,NA,NA,skipped,NA,1270287.3,NA,NA,1270285.1,1270287.3,2023-03-30T12:05:31Z,1270313.783,NULL,Angreifer,mshambulizi,d,NA,NA,NA,NA,sdf,NA,5,NA,NA,NA,NA,NA,NA,NA,NA,NA,NA,NA,NA,NA,NA,NA,NA,NA,NA,NA
4f360,"""Falsch""-Screen",canvas.Screen,3_0_5_0_3_0_2,NA,NA,timeout,4999.8,1270287.8,1270297.117,1270313.783,1275296.917,1275301,2023-03-30T12:05:36Z,1275313.583,NULL,Angreifer,mshambulizi,d,NA,NA,NA,NA,sdf,0,5,NA,NA,NA,NA,NA,NA,NA,NA,NA,NA,NA,NA,NA,NA,NA,NA,NA,NA,NA
4f360,deep,flow.Sequence,3_0_5_0_3_0,NA,NA,completion,45867.145,1229419.5,1229413.106,1229429.772,1275296.917,1275301.3,2023-03-30T12:05:36Z,1275313.583,NULL,Angreifer,mshambulizi,d,NA,NA,NA,NA,sdf,NA,5,NA,NA,NA,NA,NA,NA,NA,NA,NA,NA,NA,NA,NA,NA,NA,NA,NA,NA,NA
4f360,shallow,flow.Sequence,3_0_5_0_3_1,NA,NA,skipped,NA,1275301.5,NA,NA,1275296.917,1275301.6,2023-03-30T12:05:36Z,1275313.583,NULL,Angreifer,mshambulizi,d,NA,NA,NA,NA,sdf,NA,5,NA,NA,NA,NA,NA,NA,NA,NA,NA,NA,NA,NA,NA,NA,NA,NA,NA,NA,NA
4f360,task,flow.Sequence,3_0_5_0_3,NA,NA,completion,45867.145,1229419.5,1229413.106,1229429.772,1275296.917,1275301.8,2023-03-30T12:05:36Z,1275313.583,NULL,Angreifer,mshambulizi,d,NA,NA,NA,NA,sdf,NA,5,NA,NA,NA,NA,NA,NA,NA,NA,NA,NA,NA,NA,NA,NA,NA,NA,NA,NA,NA
4f360,Deep Question,html.Page,3_0_5_0_4_0_0,NA,NA,form submission,88455.217000001,1275302.1,1275296.917,1275313.583,1363768.8,1363769,2023-03-30T12:07:05Z,1363781.666,NULL,Wettbewerb,ushindani,d,NA,NA,NA,uaghazaji,NA,NA,5,NA,NA,NA,NA,NA,NA,NA,NA,NA,NA,NA,NA,NA,NA,NA,NA,NA,NA,NA
4f360,"""Richtig""-Screen",canvas.Screen,3_0_5_0_4_0_1,NA,NA,skipped,NA,1363770.9,NA,NA,1363768.8,1363771,2023-03-30T12:07:05Z,1363781.666,NULL,Wettbewerb,ushindani,d,NA,NA,NA,NA,sdf,NA,5,NA,NA,NA,NA,NA,NA,NA,NA,NA,NA,NA,NA,NA,NA,NA,NA,NA,NA,NA
4f360,"""Falsch""-Screen",canvas.Screen,3_0_5_0_4_0_2,NA,NA,timeout,4999.8,1363771.4,1363765,1363781.666,1368764.8,1368769.8,2023-03-30T12:07:10Z,1368781.466,NULL,Wettbewerb,ushindani,d,NA,NA,NA,NA,sdf,0,5,NA,NA,NA,NA,NA,NA,NA,NA,NA,NA,NA,NA,NA,NA,NA,NA,NA,NA,NA
4f360,deep,flow.Sequence,3_0_5_0_4_0,NA,NA,completion,93451.217,1275302,1275296.917,1275313.583,1368764.8,1368770.3,2023-03-30T12:07:10Z,1368781.466,NULL,Wettbewerb,ushindani,d,NA,NA,NA,NA,sdf,NA,5,NA,NA,NA,NA,NA,NA,NA,NA,NA,NA,NA,NA,NA,NA,NA,NA,NA,NA,NA
4f360,shallow,flow.Sequence,3_0_5_0_4_1,NA,NA,skipped,NA,1368770.4,NA,NA,1368764.8,1368770.5,2023-03-30T12:07:10Z,1368781.466,NULL,Wettbewerb,ushindani,d,NA,NA,NA,NA,sdf,NA,5,NA,NA,NA,NA,NA,NA,NA,NA,NA,NA,NA,NA,NA,NA,NA,NA,NA,NA,NA
4f360,task,flow.Sequence,3_0_5_0_4,NA,NA,completion,93451.217,1275301.9,1275296.917,1275313.583,1368764.8,1368770.7,2023-03-30T12:07:10Z,1368781.466,NULL,Wettbewerb,ushindani,d,NA,NA,NA,NA,sdf,NA,5,NA,NA,NA,NA,NA,NA,NA,NA,NA,NA,NA,NA,NA,NA,NA,NA,NA,NA,NA
4f360,Deep Question,html.Page,3_0_5_0_5_0_0,NA,NA,form submission,34137.634000001,1368771,1368764.8,1368781.466,1402919.1,1402919.3,2023-03-30T12:07:44Z,1402948.988,NULL,Sänger,mwimbaji,d,NA,NA,NA,mwinbihi,NA,NA,5,NA,NA,NA,NA,NA,NA,NA,NA,NA,NA,NA,NA,NA,NA,NA,NA,NA,NA,NA
4f360,"""Richtig""-Screen",canvas.Screen,3_0_5_0_5_0_1,NA,NA,skipped,NA,1402921.3,NA,NA,1402919.1,1402921.4,2023-03-30T12:07:44Z,1402948.988,NULL,Sänger,mwimbaji,d,NA,NA,NA,NA,sdf,NA,5,NA,NA,NA,NA,NA,NA,NA,NA,NA,NA,NA,NA,NA,NA,NA,NA,NA,NA,NA
4f360,"""Falsch""-Screen",canvas.Screen,3_0_5_0_5_0_2,NA,NA,timeout,4999.8,1402921.7,1402932.322,1402948.988,1407932.122,1407935.8,2023-03-30T12:07:49Z,1407948.788,NULL,Sänger,mwimbaji,d,NA,NA,NA,NA,sdf,0,5,NA,NA,NA,NA,NA,NA,NA,NA,NA,NA,NA,NA,NA,NA,NA,NA,NA,NA,NA
4f360,deep,flow.Sequence,3_0_5_0_5_0,NA,NA,completion,39150.656,1368770.9,1368764.8,1368781.466,1407932.122,1407936.3,2023-03-30T12:07:49Z,1407948.788,NULL,Sänger,mwimbaji,d,NA,NA,NA,NA,sdf,NA,5,NA,NA,NA,NA,NA,NA,NA,NA,NA,NA,NA,NA,NA,NA,NA,NA,NA,NA,NA
4f360,shallow,flow.Sequence,3_0_5_0_5_1,NA,NA,skipped,NA,1407936.5,NA,NA,1407932.122,1407936.6,2023-03-30T12:07:49Z,1407948.788,NULL,Sänger,mwimbaji,d,NA,NA,NA,NA,sdf,NA,5,NA,NA,NA,NA,NA,NA,NA,NA,NA,NA,NA,NA,NA,NA,NA,NA,NA,NA,NA
4f360,task,flow.Sequence,3_0_5_0_5,NA,NA,completion,39150.656,1368770.9,1368764.8,1368781.466,1407932.122,1407936.7,2023-03-30T12:07:49Z,1407948.788,NULL,Sänger,mwimbaji,d,NA,NA,NA,NA,sdf,NA,5,NA,NA,NA,NA,NA,NA,NA,NA,NA,NA,NA,NA,NA,NA,NA,NA,NA,NA,NA
4f360,Deep Question,html.Page,3_0_5_0_6_0_0,NA,NA,form submission,25156.512000001,1407936.9,1407932.122,1407948.788,1433105.3,1433105.7,2023-03-30T12:08:14Z,1433116.075,NULL,Auftrag,uagizaji,d,NA,NA,NA,uaghazaji,NA,NA,5,NA,NA,NA,NA,NA,NA,NA,NA,NA,NA,NA,NA,NA,NA,NA,NA,NA,NA,NA
4f360,"""Richtig""-Screen",canvas.Screen,3_0_5_0_6_0_1,NA,NA,skipped,NA,1433108.2,NA,NA,1433105.3,1433108.3,2023-03-30T12:08:14Z,1433116.075,NULL,Auftrag,uagizaji,d,NA,NA,NA,NA,sdf,NA,5,NA,NA,NA,NA,NA,NA,NA,NA,NA,NA,NA,NA,NA,NA,NA,NA,NA,NA,NA
4f360,"""Falsch""-Screen",canvas.Screen,3_0_5_0_6_0_2,NA,NA,timeout,4999.8,1433108.8,1433099.409,1433116.075,1438099.209,1438102.7,2023-03-30T12:08:19Z,1438115.875,NULL,Auftrag,uagizaji,d,NA,NA,NA,NA,sdf,0,5,NA,NA,NA,NA,NA,NA,NA,NA,NA,NA,NA,NA,NA,NA,NA,NA,NA,NA,NA
4f360,deep,flow.Sequence,3_0_5_0_6_0,NA,NA,completion,30150.421,1407936.9,1407932.122,1407948.788,1438099.209,1438103.1,2023-03-30T12:08:19Z,1438115.875,NULL,Auftrag,uagizaji,d,NA,NA,NA,NA,sdf,NA,5,NA,NA,NA,NA,NA,NA,NA,NA,NA,NA,NA,NA,NA,NA,NA,NA,NA,NA,NA
4f360,shallow,flow.Sequence,3_0_5_0_6_1,NA,NA,skipped,NA,1438103.4,NA,NA,1438099.209,1438103.4,2023-03-30T12:08:19Z,1438115.875,NULL,Auftrag,uagizaji,d,NA,NA,NA,NA,sdf,NA,5,NA,NA,NA,NA,NA,NA,NA,NA,NA,NA,NA,NA,NA,NA,NA,NA,NA,NA,NA
4f360,task,flow.Sequence,3_0_5_0_6,NA,NA,completion,30150.421,1407936.9,1407932.122,1407948.788,1438099.209,1438103.6,2023-03-30T12:08:19Z,1438115.875,NULL,Auftrag,uagizaji,d,NA,NA,NA,NA,sdf,NA,5,NA,NA,NA,NA,NA,NA,NA,NA,NA,NA,NA,NA,NA,NA,NA,NA,NA,NA,NA
4f360,deep,flow.Sequence,3_0_5_0_7_0,NA,NA,skipped,NA,1438103.8,NA,NA,1438099.209,1438103.9,2023-03-30T12:08:19Z,1438115.875,NULL,Schönheit,kirembo,s,mahojiano,msisimko,jitihadi,NA,sdf,NA,5,NA,NA,NA,NA,NA,NA,NA,NA,NA,NA,NA,NA,NA,NA,NA,NA,NA,NA,NA
4f360,Shallow Question,html.Page,3_0_5_0_7_1_0,NA,NA,form submission,5671.625,1438104.1,1438099.209,1438115.875,1443787.5,1443788,2023-03-30T12:08:25Z,1443799.469,NULL,Schönheit,kirembo,s,mahojiano,msisimko,jitihadi,kirembo,NA,NA,5,NA,NA,NA,NA,NA,NA,NA,NA,NA,NA,NA,NA,NA,NA,NA,NA,NA,NA,NA
4f360,"""Richtig""-Screen",canvas.Screen,3_0_5_0_7_1_1,NA,NA,timeout,4999.8,1443790.4,1443782.803,1443799.469,1448782.603,1448787.2,2023-03-30T12:08:30Z,1448799.269,NULL,Schönheit,kirembo,s,mahojiano,msisimko,jitihadi,NA,sdf,1,5,NA,NA,NA,NA,NA,NA,NA,NA,NA,NA,NA,NA,NA,NA,NA,NA,NA,NA,NA
4f360,"""Falsch""-Screen",canvas.Screen,3_0_5_0_7_1_2,NA,NA,skipped,NA,1448791.2,NA,NA,1448782.603,1448791.4,2023-03-30T12:08:30Z,1448799.269,NULL,Schönheit,kirembo,s,mahojiano,msisimko,jitihadi,NA,sdf,NA,5,NA,NA,NA,NA,NA,NA,NA,NA,NA,NA,NA,NA,NA,NA,NA,NA,NA,NA,NA
4f360,shallow,flow.Sequence,3_0_5_0_7_1,NA,NA,completion,10666.728,1438104,1438099.209,1438115.875,1448782.603,1448791.6,2023-03-30T12:08:30Z,1448799.269,NULL,Schönheit,kirembo,s,mahojiano,msisimko,jitihadi,NA,sdf,NA,5,NA,NA,NA,NA,NA,NA,NA,NA,NA,NA,NA,NA,NA,NA,NA,NA,NA,NA,NA
4f360,task,flow.Sequence,3_0_5_0_7,NA,NA,completion,10666.728,1438103.8,1438099.209,1438115.875,1448782.603,1448791.8,2023-03-30T12:08:30Z,1448799.269,NULL,Schönheit,kirembo,s,mahojiano,msisimko,jitihadi,NA,sdf,NA,5,NA,NA,NA,NA,NA,NA,NA,NA,NA,NA,NA,NA,NA,NA,NA,NA,NA,NA,NA
4f360,block,flow.Loop,3_0_5_0,NA,NA,completion,252320.318,1196464.7,1196428.953,1196462.285,1448782.603,1448792,2023-03-30T12:08:30Z,1448799.269,NULL,NA,NA,NA,NA,NA,NA,NA,sdf,NA,5,NA,NA,NA,NA,NA,NA,NA,NA,NA,NA,NA,NA,NA,NA,NA,NA,NA,NA,NA
4f360,weiter,canvas.Screen,3_0_5_1,sdf,keypress(Space),response,7651.931000001,1448792.1,1448782.603,1448799.269,1456451.2,1456457.7,2023-03-30T12:08:38Z,1456482.295,NULL,NA,NA,NA,NA,NA,NA,NA,sdf,NA,5,NA,NA,NA,NA,NA,NA,NA,NA,NA,NA,NA,NA,NA,NA,NA,NA,NA,NA,NA
4f360,check continue,flow.Sequence,3_0_5,NA,NA,completion,259988.915,1196464.6,1196428.953,1196462.285,1456451.2,1456457.9,2023-03-30T12:08:38Z,1456482.295,NULL,NA,NA,NA,NA,NA,NA,NA,sdf,NA,5,NA,NA,NA,NA,NA,NA,NA,NA,NA,NA,NA,NA,NA,NA,NA,NA,NA,NA,NA
4f360,Deep Question,html.Page,3_0_6_0_0_0_0,NA,NA,form submission,37872.805000002,1456483.4,1456448.963,1456482.295,1494355.1,1494355.5,2023-03-30T12:09:15Z,1494366.549,NULL,Angreifer,mshambulizi,d,NA,NA,NA,mshambulizi,NA,NA,6,NA,NA,NA,NA,NA,NA,NA,NA,NA,NA,NA,NA,NA,NA,NA,NA,NA,NA,NA
4f360,"""Richtig""-Screen",canvas.Screen,3_0_6_0_0_0_1,NA,NA,timeout,4999.7999999998,1494358.1,1494349.883,1494366.549,1499349.683,1499350.7,2023-03-30T12:09:20Z,1499366.349,NULL,Angreifer,mshambulizi,d,NA,NA,NA,NA,dfs,1,6,NA,NA,NA,NA,NA,NA,NA,NA,NA,NA,NA,NA,NA,NA,NA,NA,NA,NA,NA
4f360,"""Falsch""-Screen",canvas.Screen,3_0_6_0_0_0_2,NA,NA,skipped,NA,1499354.9,NA,NA,1499349.683,1499355.1,2023-03-30T12:09:20Z,1499366.349,NULL,Angreifer,mshambulizi,d,NA,NA,NA,NA,dfs,NA,6,NA,NA,NA,NA,NA,NA,NA,NA,NA,NA,NA,NA,NA,NA,NA,NA,NA,NA,NA
4f360,deep,flow.Sequence,3_0_6_0_0_0,NA,NA,completion,42867.388,1456483.4,1456448.963,1456482.295,1499349.683,1499355.4,2023-03-30T12:09:20Z,1499366.349,NULL,Angreifer,mshambulizi,d,NA,NA,NA,NA,dfs,NA,6,NA,NA,NA,NA,NA,NA,NA,NA,NA,NA,NA,NA,NA,NA,NA,NA,NA,NA,NA
4f360,shallow,flow.Sequence,3_0_6_0_0_1,NA,NA,skipped,NA,1499355.4,NA,NA,1499349.683,1499355.4,2023-03-30T12:09:20Z,1499366.349,NULL,Angreifer,mshambulizi,d,NA,NA,NA,NA,dfs,NA,6,NA,NA,NA,NA,NA,NA,NA,NA,NA,NA,NA,NA,NA,NA,NA,NA,NA,NA,NA
4f360,task,flow.Sequence,3_0_6_0_0,NA,NA,completion,42867.388,1456483.4,1456448.963,1456482.295,1499349.683,1499355.6,2023-03-30T12:09:20Z,1499366.349,NULL,Angreifer,mshambulizi,d,NA,NA,NA,NA,dfs,NA,6,NA,NA,NA,NA,NA,NA,NA,NA,NA,NA,NA,NA,NA,NA,NA,NA,NA,NA,NA
4f360,Deep Question,html.Page,3_0_6_0_1_0_0,NA,NA,form submission,12423.451000001,1499355.7,1499349.683,1499366.349,1511789.8,1511790.3,2023-03-30T12:09:33Z,1511800.335,NULL,Wettbewerb,ushindani,d,NA,NA,NA,ushindani,NA,NA,6,NA,NA,NA,NA,NA,NA,NA,NA,NA,NA,NA,NA,NA,NA,NA,NA,NA,NA,NA
4f360,"""Richtig""-Screen",canvas.Screen,3_0_6_0_1_0_1,NA,NA,timeout,4999.8,1511793.2,1511783.669,1511800.335,1516783.469,1516785.4,2023-03-30T12:09:38Z,1516800.135,NULL,Wettbewerb,ushindani,d,NA,NA,NA,NA,dfs,1,6,NA,NA,NA,NA,NA,NA,NA,NA,NA,NA,NA,NA,NA,NA,NA,NA,NA,NA,NA
4f360,"""Falsch""-Screen",canvas.Screen,3_0_6_0_1_0_2,NA,NA,skipped,NA,1516788.6,NA,NA,1516783.469,1516788.7,2023-03-30T12:09:38Z,1516800.135,NULL,Wettbewerb,ushindani,d,NA,NA,NA,NA,dfs,NA,6,NA,NA,NA,NA,NA,NA,NA,NA,NA,NA,NA,NA,NA,NA,NA,NA,NA,NA,NA
4f360,deep,flow.Sequence,3_0_6_0_1_0,NA,NA,completion,17417.12,1499355.7,1499349.683,1499366.349,1516783.469,1516788.8,2023-03-30T12:09:38Z,1516800.135,NULL,Wettbewerb,ushindani,d,NA,NA,NA,NA,dfs,NA,6,NA,NA,NA,NA,NA,NA,NA,NA,NA,NA,NA,NA,NA,NA,NA,NA,NA,NA,NA
4f360,shallow,flow.Sequence,3_0_6_0_1_1,NA,NA,skipped,NA,1516789,NA,NA,1516783.469,1516789,2023-03-30T12:09:38Z,1516800.135,NULL,Wettbewerb,ushindani,d,NA,NA,NA,NA,dfs,NA,6,NA,NA,NA,NA,NA,NA,NA,NA,NA,NA,NA,NA,NA,NA,NA,NA,NA,NA,NA
4f360,task,flow.Sequence,3_0_6_0_1,NA,NA,completion,17417.12,1499355.6,1499349.683,1499366.349,1516783.469,1516789.1,2023-03-30T12:09:38Z,1516800.135,NULL,Wettbewerb,ushindani,d,NA,NA,NA,NA,dfs,NA,6,NA,NA,NA,NA,NA,NA,NA,NA,NA,NA,NA,NA,NA,NA,NA,NA,NA,NA,NA
4f360,deep,flow.Sequence,3_0_6_0_2_0,NA,NA,skipped,NA,1516789.2,NA,NA,1516783.469,1516789.3,2023-03-30T12:09:38Z,1516800.135,NULL,Zufall,kikuti,s,kukosekana,uchoraji,leseni,NA,dfs,NA,6,NA,NA,NA,NA,NA,NA,NA,NA,NA,NA,NA,NA,NA,NA,NA,NA,NA,NA,NA
4f360,Shallow Question,html.Page,3_0_6_0_2_1_0,NA,NA,form submission,4840.6650000007,1516789.3,1516783.469,1516800.135,1521640.8,1521641.1,2023-03-30T12:09:43Z,1521650.39,NULL,Zufall,kikuti,s,kukosekana,uchoraji,leseni,kikuti,NA,NA,6,NA,NA,NA,NA,NA,NA,NA,NA,NA,NA,NA,NA,NA,NA,NA,NA,NA,NA,NA
4f360,"""Richtig""-Screen",canvas.Screen,3_0_6_0_2_1_1,NA,NA,timeout,4999.8,1521643.5,1521633.724,1521650.39,1526633.524,1526636.6,2023-03-30T12:09:48Z,1526650.19,NULL,Zufall,kikuti,s,kukosekana,uchoraji,leseni,NA,dfs,1,6,NA,NA,NA,NA,NA,NA,NA,NA,NA,NA,NA,NA,NA,NA,NA,NA,NA,NA,NA
4f360,"""Falsch""-Screen",canvas.Screen,3_0_6_0_2_1_2,NA,NA,skipped,NA,1526638.9,NA,NA,1526633.524,1526638.9,2023-03-30T12:09:48Z,1526650.19,NULL,Zufall,kikuti,s,kukosekana,uchoraji,leseni,NA,dfs,NA,6,NA,NA,NA,NA,NA,NA,NA,NA,NA,NA,NA,NA,NA,NA,NA,NA,NA,NA,NA
4f360,shallow,flow.Sequence,3_0_6_0_2_1,NA,NA,completion,9833.389,1516789.3,1516783.469,1516800.135,1526633.524,1526639.1,2023-03-30T12:09:48Z,1526650.19,NULL,Zufall,kikuti,s,kukosekana,uchoraji,leseni,NA,dfs,NA,6,NA,NA,NA,NA,NA,NA,NA,NA,NA,NA,NA,NA,NA,NA,NA,NA,NA,NA,NA
4f360,task,flow.Sequence,3_0_6_0_2,NA,NA,completion,9833.389,1516789.1,1516783.469,1516800.135,1526633.524,1526639.1,2023-03-30T12:09:48Z,1526650.19,NULL,Zufall,kikuti,s,kukosekana,uchoraji,leseni,NA,dfs,NA,6,NA,NA,NA,NA,NA,NA,NA,NA,NA,NA,NA,NA,NA,NA,NA,NA,NA,NA,NA
4f360,deep,flow.Sequence,3_0_6_0_3_0,NA,NA,skipped,NA,1526639.2,NA,NA,1526633.524,1526639.2,2023-03-30T12:09:48Z,1526650.19,NULL,Kanzler,diwani,s,rasilmali,mahitaji,maabudu,NA,dfs,NA,6,NA,NA,NA,NA,NA,NA,NA,NA,NA,NA,NA,NA,NA,NA,NA,NA,NA,NA,NA
4f360,Shallow Question,html.Page,3_0_6_0_3_1_0,NA,NA,form submission,6390.5100000012,1526639.3,1526633.524,1526650.19,1533040.7,1533041.1,2023-03-30T12:09:54Z,1533050.448,NULL,Kanzler,diwani,s,rasilmali,mahitaji,maabudu,diwani,NA,NA,6,NA,NA,NA,NA,NA,NA,NA,NA,NA,NA,NA,NA,NA,NA,NA,NA,NA,NA,NA
4f360,"""Richtig""-Screen",canvas.Screen,3_0_6_0_3_1_1,NA,NA,timeout,4999.7999999998,1533043.2,1533033.782,1533050.448,1538033.582,1538038,2023-03-30T12:09:59Z,1538050.248,NULL,Kanzler,diwani,s,rasilmali,mahitaji,maabudu,NA,dfs,1,6,NA,NA,NA,NA,NA,NA,NA,NA,NA,NA,NA,NA,NA,NA,NA,NA,NA,NA,NA
4f360,"""Falsch""-Screen",canvas.Screen,3_0_6_0_3_1_2,NA,NA,skipped,NA,1538041.5,NA,NA,1538033.582,1538041.6,2023-03-30T12:09:59Z,1538050.248,NULL,Kanzler,diwani,s,rasilmali,mahitaji,maabudu,NA,dfs,NA,6,NA,NA,NA,NA,NA,NA,NA,NA,NA,NA,NA,NA,NA,NA,NA,NA,NA,NA,NA
4f360,shallow,flow.Sequence,3_0_6_0_3_1,NA,NA,completion,11383.392,1526639.3,1526633.524,1526650.19,1538033.582,1538041.7,2023-03-30T12:09:59Z,1538050.248,NULL,Kanzler,diwani,s,rasilmali,mahitaji,maabudu,NA,dfs,NA,6,NA,NA,NA,NA,NA,NA,NA,NA,NA,NA,NA,NA,NA,NA,NA,NA,NA,NA,NA
4f360,task,flow.Sequence,3_0_6_0_3,NA,NA,completion,11383.392,1526639.2,1526633.524,1526650.19,1538033.582,1538041.9,2023-03-30T12:09:59Z,1538050.248,NULL,Kanzler,diwani,s,rasilmali,mahitaji,maabudu,NA,dfs,NA,6,NA,NA,NA,NA,NA,NA,NA,NA,NA,NA,NA,NA,NA,NA,NA,NA,NA,NA,NA
4f360,deep,flow.Sequence,3_0_6_0_4_0,NA,NA,skipped,NA,1538042,NA,NA,1538033.582,1538042,2023-03-30T12:09:59Z,1538050.248,NULL,Schönheit,kirembo,s,mahojiano,msisimko,jitihadi,NA,dfs,NA,6,NA,NA,NA,NA,NA,NA,NA,NA,NA,NA,NA,NA,NA,NA,NA,NA,NA,NA,NA
4f360,Shallow Question,html.Page,3_0_6_0_4_1_0,NA,NA,form submission,4439.0520000008,1538042.1,1538033.582,1538050.248,1542489.3,1542489.7,2023-03-30T12:10:04Z,1542500.583,NULL,Schönheit,kirembo,s,mahojiano,msisimko,jitihadi,kirembo,NA,NA,6,NA,NA,NA,NA,NA,NA,NA,NA,NA,NA,NA,NA,NA,NA,NA,NA,NA,NA,NA
4f360,"""Richtig""-Screen",canvas.Screen,3_0_6_0_4_1_1,NA,NA,timeout,4999.7999999998,1542493.7,1542483.917,1542500.583,1547483.717,1547487.7,2023-03-30T12:10:09Z,1547500.383,NULL,Schönheit,kirembo,s,mahojiano,msisimko,jitihadi,NA,dfs,1,6,NA,NA,NA,NA,NA,NA,NA,NA,NA,NA,NA,NA,NA,NA,NA,NA,NA,NA,NA
4f360,"""Falsch""-Screen",canvas.Screen,3_0_6_0_4_1_2,NA,NA,skipped,NA,1547492.1,NA,NA,1547483.717,1547492.4,2023-03-30T12:10:09Z,1547500.383,NULL,Schönheit,kirembo,s,mahojiano,msisimko,jitihadi,NA,dfs,NA,6,NA,NA,NA,NA,NA,NA,NA,NA,NA,NA,NA,NA,NA,NA,NA,NA,NA,NA,NA
4f360,shallow,flow.Sequence,3_0_6_0_4_1,NA,NA,completion,9433.469,1538042.1,1538033.582,1538050.248,1547483.717,1547492.6,2023-03-30T12:10:09Z,1547500.383,NULL,Schönheit,kirembo,s,mahojiano,msisimko,jitihadi,NA,dfs,NA,6,NA,NA,NA,NA,NA,NA,NA,NA,NA,NA,NA,NA,NA,NA,NA,NA,NA,NA,NA
