observation,sender,sender_type,sender_id,response,response_action,ended_on,duration,time_run,time_render,time_show,time_end,time_commit,timestamp,time_switch,distractors,german,swahili,enc,distractor1,distractor2,distractor3,response_2,x,correct,x_2,url_vp,url_sess,meta_labjs_version,meta_location,meta_user_agent,meta_platform,meta_language,meta_locale,meta_time_zone,meta_timezone_offset,meta_screen_width,meta_screen_height,meta_scroll_width,meta_scroll_height,meta_window_inner_width,meta_window_inner_height,meta_device_pixel_ratio,meta_labjs_build_flavor,meta_labjs_build_commit
c5021,Introduction general,canvas.Screen,0,weiter,keypress(q),response,90887.200000763,507.30000019073,491.892,508.5,91395.700000763,91399.900000572,2024-04-06T09:24:21Z,91408.6,NULL,NA,NA,NA,NA,NA,NA,NA,NA,NA,NA,154,3,20.2.4,https://neurocog.fernuni.ch/studies/vweber/jbaenninger/encoding_immediate/index.html?vp=154&sess=3,"Mozilla/5.0 (Windows NT 10.0; Win64; x64) AppleWebKit/537.36 (KHTML, like Gecko) Chrome/123.0.0.0 Safari/537.36 Edg/123.0.0.0",Win32,de,de-CH,Europe/Zurich,-120,1920,1080,1872,910,1872,958,1,production,f5b4a49f956347addd546a832a3327688c2c0fef
c5021,Introduction practice,canvas.Screen,1_0,NA,keypress(Space),response,5548.4,91400.400000572,91392.1,91408.6,96957,96957.900000572,2024-04-06T09:24:27Z,96975.2,NULL,NA,NA,NA,NA,NA,NA,NA,NA,NA,NA,NA,NA,NA,NA,NA,NA,NA,NA,NA,NA,NA,NA,NA,NA,NA,NA,NA,NA,NA
c5021,deep,flow.Sequence,1_1_0_0,NA,NA,skipped,NA,96958.200000763,NA,NA,96957,96958.5,2024-04-06T09:24:27Z,96975.2,"c(""distractor1"", ""distractor2"", ""distractor3"")",Kritik,lawama,s,dereva,nafasi,mawazo,NA,NA,NA,NA,NA,NA,NA,NA,NA,NA,NA,NA,NA,NA,NA,NA,NA,NA,NA,NA,NA,NA,NA
c5021,Shallow Question,html.Page,1_1_0_1_0,NA,NA,form submission,10582.000000763,96958.800000191,96959.8,96975.2,107557.20000076,107557.5,2024-04-06T09:24:38Z,107558.744,"c(""distractor1"", ""distractor2"", ""distractor3"")",Kritik,lawama,s,dereva,nafasi,mawazo,dereva,NA,NA,NA,NA,NA,NA,NA,NA,NA,NA,NA,NA,NA,NA,NA,NA,NA,NA,NA,NA,NA,NA
c5021,"""Richtig""-Screen",canvas.Screen,1_1_0_1_1,NA,NA,skipped,NA,107558.80000019,NA,NA,107557.20000076,107558.90000057,2024-04-06T09:24:38Z,107558.744,"c(""distractor1"", ""distractor2"", ""distractor3"")",Kritik,lawama,s,dereva,nafasi,mawazo,NA,NA,NA,NA,NA,NA,NA,NA,NA,NA,NA,NA,NA,NA,NA,NA,NA,NA,NA,NA,NA,NA,NA
c5021,"""Falsch""-Screen",canvas.Screen,1_1_0_1_2,NA,NA,timeout,4999.756,107559.70000076,107558.744,107558.744,112542,112545.60000038,2024-04-06T09:24:43Z,112558.5,"c(""distractor1"", ""distractor2"", ""distractor3"")",Kritik,lawama,s,dereva,nafasi,mawazo,NA,NA,0,NA,NA,NA,NA,NA,NA,NA,NA,NA,NA,NA,NA,NA,NA,NA,NA,NA,NA,NA,NA
c5021,shallow,flow.Sequence,1_1_0_1,NA,NA,completion,15566.8,96958.700000763,96959.8,96975.2,112542,112546,2024-04-06T09:24:43Z,112558.5,"c(""distractor1"", ""distractor2"", ""distractor3"")",Kritik,lawama,s,dereva,nafasi,mawazo,NA,NA,NA,NA,NA,NA,NA,NA,NA,NA,NA,NA,NA,NA,NA,NA,NA,NA,NA,NA,NA,NA,NA
c5021,task,flow.Sequence,1_1_0,NA,NA,completion,15566.8,96958.200000763,96959.8,96975.2,112542,112546.20000076,2024-04-06T09:24:43Z,112558.5,"c(""distractor1"", ""distractor2"", ""distractor3"")",Kritik,lawama,s,dereva,nafasi,mawazo,NA,NA,NA,NA,NA,NA,NA,NA,NA,NA,NA,NA,NA,NA,NA,NA,NA,NA,NA,NA,NA,NA,NA
c5021,deep,flow.Sequence,1_1_1_0,NA,NA,skipped,NA,112546.40000057,NA,NA,112542,112546.5,2024-04-06T09:24:43Z,112558.5,"c(""distractor1"", ""distractor2"", ""distractor3"")",Rückhalt,msaada,s,muhula,auwali,kiwimbe,NA,NA,NA,NA,NA,NA,NA,NA,NA,NA,NA,NA,NA,NA,NA,NA,NA,NA,NA,NA,NA,NA,NA
c5021,Shallow Question,html.Page,1_1_1_1_0,NA,NA,form submission,5315,112546.70000076,112542,112558.5,117873.5,117873.70000076,2024-04-06T09:24:48Z,117875.384,"c(""distractor1"", ""distractor2"", ""distractor3"")",Rückhalt,msaada,s,muhula,auwali,kiwimbe,kiwimbe,NA,NA,NA,NA,NA,NA,NA,NA,NA,NA,NA,NA,NA,NA,NA,NA,NA,NA,NA,NA,NA,NA
c5021,"""Richtig""-Screen",canvas.Screen,1_1_1_1_1,NA,NA,skipped,NA,117875.5,NA,NA,117873.5,117875.70000076,2024-04-06T09:24:48Z,117875.384,"c(""distractor1"", ""distractor2"", ""distractor3"")",Rückhalt,msaada,s,muhula,auwali,kiwimbe,NA,NA,NA,NA,NA,NA,NA,NA,NA,NA,NA,NA,NA,NA,NA,NA,NA,NA,NA,NA,NA,NA,NA
c5021,"""Falsch""-Screen",canvas.Screen,1_1_1_1_2,NA,NA,timeout,5000.016,117876.40000057,117875.384,117875.384,122858.6,122859.40000057,2024-04-06T09:24:53Z,122875.4,"c(""distractor1"", ""distractor2"", ""distractor3"")",Rückhalt,msaada,s,muhula,auwali,kiwimbe,NA,NA,0,NA,NA,NA,NA,NA,NA,NA,NA,NA,NA,NA,NA,NA,NA,NA,NA,NA,NA,NA,NA
c5021,shallow,flow.Sequence,1_1_1_1,NA,NA,completion,10300.1,112546.60000038,112542,112558.5,122858.6,122859.80000019,2024-04-06T09:24:53Z,122875.4,"c(""distractor1"", ""distractor2"", ""distractor3"")",Rückhalt,msaada,s,muhula,auwali,kiwimbe,NA,NA,NA,NA,NA,NA,NA,NA,NA,NA,NA,NA,NA,NA,NA,NA,NA,NA,NA,NA,NA,NA,NA
c5021,task,flow.Sequence,1_1_1,NA,NA,completion,10300.1,112546.30000019,112542,112558.5,122858.6,122860,2024-04-06T09:24:53Z,122875.4,"c(""distractor1"", ""distractor2"", ""distractor3"")",Rückhalt,msaada,s,muhula,auwali,kiwimbe,NA,NA,NA,NA,NA,NA,NA,NA,NA,NA,NA,NA,NA,NA,NA,NA,NA,NA,NA,NA,NA,NA,NA
c5021,Deep Question,html.Page,1_1_2_0_0,NA,NA,form submission,10901.200000381,122860.10000038,122858.6,122875.4,133776.60000038,133776.90000057,2024-04-06T09:25:04Z,133791.8,"c(""distractor1"", ""distractor2"", ""distractor3"")",Gesundheit,salama,d,NA,NA,NA,tibiku,NA,NA,NA,NA,NA,NA,NA,NA,NA,NA,NA,NA,NA,NA,NA,NA,NA,NA,NA,NA,NA,NA
c5021,"""Richtig""-Screen",canvas.Screen,1_1_2_0_1,NA,NA,skipped,NA,133778.80000019,NA,NA,133776.60000038,133779,2024-04-06T09:25:04Z,133791.8,"c(""distractor1"", ""distractor2"", ""distractor3"")",Gesundheit,salama,d,NA,NA,NA,NA,NA,NA,NA,NA,NA,NA,NA,NA,NA,NA,NA,NA,NA,NA,NA,NA,NA,NA,NA,NA,NA,NA
c5021,"""Falsch""-Screen",canvas.Screen,1_1_2_0_2,NA,NA,timeout,5000.2,133779.70000076,133775.664,133791.8,138775.3,138776,2024-04-06T09:25:09Z,138792,"c(""distractor1"", ""distractor2"", ""distractor3"")",Gesundheit,salama,d,NA,NA,NA,NA,NA,0,NA,NA,NA,NA,NA,NA,NA,NA,NA,NA,NA,NA,NA,NA,NA,NA,NA,NA,NA,NA
c5021,deep,flow.Sequence,1_1_2_0,NA,NA,completion,15899.9,122860.10000038,122858.6,122875.4,138775.3,138776.30000019,2024-04-06T09:25:09Z,138792,"c(""distractor1"", ""distractor2"", ""distractor3"")",Gesundheit,salama,d,NA,NA,NA,NA,NA,NA,NA,NA,NA,NA,NA,NA,NA,NA,NA,NA,NA,NA,NA,NA,NA,NA,NA,NA,NA,NA
c5021,shallow,flow.Sequence,1_1_2_1,NA,NA,skipped,NA,138776.40000057,NA,NA,138775.3,138776.60000038,2024-04-06T09:25:09Z,138792,"c(""distractor1"", ""distractor2"", ""distractor3"")",Gesundheit,salama,d,NA,NA,NA,NA,NA,NA,NA,NA,NA,NA,NA,NA,NA,NA,NA,NA,NA,NA,NA,NA,NA,NA,NA,NA,NA,NA
c5021,task,flow.Sequence,1_1_2,NA,NA,completion,15899.9,122860.10000038,122858.6,122875.4,138775.3,138776.80000019,2024-04-06T09:25:09Z,138792,"c(""distractor1"", ""distractor2"", ""distractor3"")",Gesundheit,salama,d,NA,NA,NA,NA,NA,NA,NA,NA,NA,NA,NA,NA,NA,NA,NA,NA,NA,NA,NA,NA,NA,NA,NA,NA,NA,NA
c5021,deep,flow.Sequence,1_1_3_0,NA,NA,skipped,NA,138776.80000019,NA,NA,138775.3,138776.90000057,2024-04-06T09:25:09Z,138792,"c(""distractor1"", ""distractor2"", ""distractor3"")",Gegenwart,hadhara,s,katiba,jokofu,mikopo,NA,NA,NA,NA,NA,NA,NA,NA,NA,NA,NA,NA,NA,NA,NA,NA,NA,NA,NA,NA,NA,NA,NA
c5021,Shallow Question,html.Page,1_1_3_1_0,NA,NA,form submission,5690.4000005722,138777,138775.3,138792,144482.40000057,144482.60000038,2024-04-06T09:25:14Z,144491.7,"c(""distractor1"", ""distractor2"", ""distractor3"")",Gegenwart,hadhara,s,katiba,jokofu,mikopo,jokofu,NA,NA,NA,NA,NA,NA,NA,NA,NA,NA,NA,NA,NA,NA,NA,NA,NA,NA,NA,NA,NA,NA
c5021,"""Richtig""-Screen",canvas.Screen,1_1_3_1_1,NA,NA,skipped,NA,144484.40000057,NA,NA,144482.40000057,144484.5,2024-04-06T09:25:14Z,144491.7,"c(""distractor1"", ""distractor2"", ""distractor3"")",Gegenwart,hadhara,s,katiba,jokofu,mikopo,NA,NA,NA,NA,NA,NA,NA,NA,NA,NA,NA,NA,NA,NA,NA,NA,NA,NA,NA,NA,NA,NA,NA
c5021,"""Falsch""-Screen",canvas.Screen,1_1_3_1_2,NA,NA,timeout,5000.3,144485,144475.4,144491.7,149475.2,149476.10000038,2024-04-06T09:25:19Z,149492,"c(""distractor1"", ""distractor2"", ""distractor3"")",Gegenwart,hadhara,s,katiba,jokofu,mikopo,NA,NA,0,NA,NA,NA,NA,NA,NA,NA,NA,NA,NA,NA,NA,NA,NA,NA,NA,NA,NA,NA,NA
c5021,shallow,flow.Sequence,1_1_3_1,NA,NA,completion,10683.2,138777,138775.3,138792,149475.2,149476.40000057,2024-04-06T09:25:19Z,149492,"c(""distractor1"", ""distractor2"", ""distractor3"")",Gegenwart,hadhara,s,katiba,jokofu,mikopo,NA,NA,NA,NA,NA,NA,NA,NA,NA,NA,NA,NA,NA,NA,NA,NA,NA,NA,NA,NA,NA,NA,NA
c5021,task,flow.Sequence,1_1_3,NA,NA,completion,10683.2,138776.80000019,138775.3,138792,149475.2,149476.5,2024-04-06T09:25:19Z,149492,"c(""distractor1"", ""distractor2"", ""distractor3"")",Gegenwart,hadhara,s,katiba,jokofu,mikopo,NA,NA,NA,NA,NA,NA,NA,NA,NA,NA,NA,NA,NA,NA,NA,NA,NA,NA,NA,NA,NA,NA,NA
c5021,Deep Question,html.Page,1_1_4_0_0,NA,NA,form submission,6467.6000003815,149476.70000076,149475.2,149492,155959.60000038,155959.80000019,2024-04-06T09:25:26Z,155975.2,"c(""distractor1"", ""distractor2"", ""distractor3"")",Schatten,kivuli,d,NA,NA,NA,zukiku,NA,NA,NA,NA,NA,NA,NA,NA,NA,NA,NA,NA,NA,NA,NA,NA,NA,NA,NA,NA,NA,NA
c5021,"""Richtig""-Screen",canvas.Screen,1_1_4_0_1,NA,NA,skipped,NA,155961.60000038,NA,NA,155959.60000038,155961.70000076,2024-04-06T09:25:26Z,155975.2,"c(""distractor1"", ""distractor2"", ""distractor3"")",Schatten,kivuli,d,NA,NA,NA,NA,NA,NA,NA,NA,NA,NA,NA,NA,NA,NA,NA,NA,NA,NA,NA,NA,NA,NA,NA,NA,NA,NA
c5021,"""Falsch""-Screen",canvas.Screen,1_1_4_0_2,NA,NA,timeout,5000.1,155962.40000057,155958.876,155975.2,160958.6,160959.30000019,2024-04-06T09:25:31Z,160975.3,"c(""distractor1"", ""distractor2"", ""distractor3"")",Schatten,kivuli,d,NA,NA,NA,NA,NA,0,NA,NA,NA,NA,NA,NA,NA,NA,NA,NA,NA,NA,NA,NA,NA,NA,NA,NA,NA,NA
c5021,deep,flow.Sequence,1_1_4_0,NA,NA,completion,11466.6,149476.70000076,149475.2,149492,160958.6,160959.60000038,2024-04-06T09:25:31Z,160975.3,"c(""distractor1"", ""distractor2"", ""distractor3"")",Schatten,kivuli,d,NA,NA,NA,NA,NA,NA,NA,NA,NA,NA,NA,NA,NA,NA,NA,NA,NA,NA,NA,NA,NA,NA,NA,NA,NA,NA
c5021,shallow,flow.Sequence,1_1_4_1,NA,NA,skipped,NA,160959.60000038,NA,NA,160958.6,160959.70000076,2024-04-06T09:25:31Z,160975.3,"c(""distractor1"", ""distractor2"", ""distractor3"")",Schatten,kivuli,d,NA,NA,NA,NA,NA,NA,NA,NA,NA,NA,NA,NA,NA,NA,NA,NA,NA,NA,NA,NA,NA,NA,NA,NA,NA,NA
c5021,task,flow.Sequence,1_1_4,NA,NA,completion,11466.6,149476.70000076,149475.2,149492,160958.6,160959.90000057,2024-04-06T09:25:31Z,160975.3,"c(""distractor1"", ""distractor2"", ""distractor3"")",Schatten,kivuli,d,NA,NA,NA,NA,NA,NA,NA,NA,NA,NA,NA,NA,NA,NA,NA,NA,NA,NA,NA,NA,NA,NA,NA,NA,NA,NA
c5021,Deep Question,html.Page,1_1_5_0_0,NA,NA,form submission,11962.300000381,160960,160958.6,160975.3,172937.60000038,172937.70000076,2024-04-06T09:25:43Z,172941.9,"c(""distractor1"", ""distractor2"", ""distractor3"")",Qualität,mtindo,d,NA,NA,NA,kufibu,NA,NA,NA,NA,NA,NA,NA,NA,NA,NA,NA,NA,NA,NA,NA,NA,NA,NA,NA,NA,NA,NA
c5021,"""Richtig""-Screen",canvas.Screen,1_1_5_0_1,NA,NA,skipped,NA,172939.40000057,NA,NA,172937.60000038,172939.5,2024-04-06T09:25:43Z,172941.9,"c(""distractor1"", ""distractor2"", ""distractor3"")",Qualität,mtindo,d,NA,NA,NA,NA,NA,NA,NA,NA,NA,NA,NA,NA,NA,NA,NA,NA,NA,NA,NA,NA,NA,NA,NA,NA,NA,NA
c5021,"""Falsch""-Screen",canvas.Screen,1_1_5_0_2,NA,NA,timeout,5000,172940.10000038,172925.526,172941.9,177925.3,177925.90000057,2024-04-06T09:25:48Z,177941.9,"c(""distractor1"", ""distractor2"", ""distractor3"")",Qualität,mtindo,d,NA,NA,NA,NA,NA,0,NA,NA,NA,NA,NA,NA,NA,NA,NA,NA,NA,NA,NA,NA,NA,NA,NA,NA,NA,NA
c5021,deep,flow.Sequence,1_1_5_0,NA,NA,completion,16950,160960,160958.6,160975.3,177925.3,177926.20000076,2024-04-06T09:25:48Z,177941.9,"c(""distractor1"", ""distractor2"", ""distractor3"")",Qualität,mtindo,d,NA,NA,NA,NA,NA,NA,NA,NA,NA,NA,NA,NA,NA,NA,NA,NA,NA,NA,NA,NA,NA,NA,NA,NA,NA,NA
c5021,shallow,flow.Sequence,1_1_5_1,NA,NA,skipped,NA,177926.30000019,NA,NA,177925.3,177926.40000057,2024-04-06T09:25:48Z,177941.9,"c(""distractor1"", ""distractor2"", ""distractor3"")",Qualität,mtindo,d,NA,NA,NA,NA,NA,NA,NA,NA,NA,NA,NA,NA,NA,NA,NA,NA,NA,NA,NA,NA,NA,NA,NA,NA,NA,NA
c5021,task,flow.Sequence,1_1_5,NA,NA,completion,16950,160960,160958.6,160975.3,177925.3,177926.60000038,2024-04-06T09:25:48Z,177941.9,"c(""distractor1"", ""distractor2"", ""distractor3"")",Qualität,mtindo,d,NA,NA,NA,NA,NA,NA,NA,NA,NA,NA,NA,NA,NA,NA,NA,NA,NA,NA,NA,NA,NA,NA,NA,NA,NA,NA
c5021,block,flow.Loop,1_1,NA,NA,completion,80950.1,96958.200000763,96959.8,96975.2,177925.3,177926.70000076,2024-04-06T09:25:48Z,177941.9,"c(""distractor1"", ""distractor2"", ""distractor3"")",NA,NA,NA,NA,NA,NA,NA,NA,NA,NA,NA,NA,NA,NA,NA,NA,NA,NA,NA,NA,NA,NA,NA,NA,NA,NA,NA,NA,NA
c5021,Practice,flow.Sequence,1,NA,NA,completion,86516.7,91400.300000191,91392.1,91408.6,177925.3,177927,2024-04-06T09:25:48Z,177941.9,NULL,NA,NA,NA,NA,NA,NA,NA,NA,NA,NA,NA,NA,NA,NA,NA,NA,NA,NA,NA,NA,NA,NA,NA,NA,NA,NA,NA,NA,NA
c5021,Experiment start,canvas.Screen,2,weiter,keypress(q),response,4679.7000003815,177927.10000038,177925.3,177941.9,182621.60000038,182622.5,2024-04-06T09:25:53Z,182708.5,NULL,NA,NA,NA,NA,NA,NA,NA,NA,NA,NA,NA,NA,NA,NA,NA,NA,NA,NA,NA,NA,NA,NA,NA,NA,NA,NA,NA,NA,NA
c5021,deep,flow.Sequence,3_0_0_0_0_0,NA,NA,skipped,NA,182696,NA,NA,182621.60000038,182696.10000038,2024-04-06T09:25:53Z,182708.5,NULL,Stimmung,kinyongo,s,kilekile,kisambo,madhehebu,NA,sdf,NA,0,NA,NA,NA,NA,NA,NA,NA,NA,NA,NA,NA,NA,NA,NA,NA,NA,NA,NA,NA
c5021,Shallow Question,html.Page,3_0_0_0_0_1_0,NA,NA,form submission,10454,182696.10000038,182692.8,182708.5,193162.5,193162.70000076,2024-04-06T09:26:03Z,193175.2,NULL,Stimmung,kinyongo,s,kilekile,kisambo,madhehebu,kisambo,NA,NA,0,NA,NA,NA,NA,NA,NA,NA,NA,NA,NA,NA,NA,NA,NA,NA,NA,NA,NA,NA
c5021,"""Richtig""-Screen",canvas.Screen,3_0_0_0_0_1_1,NA,NA,skipped,NA,193164.40000057,NA,NA,193162.5,193164.5,2024-04-06T09:26:03Z,193175.2,NULL,Stimmung,kinyongo,s,kilekile,kisambo,madhehebu,NA,sdf,NA,0,NA,NA,NA,NA,NA,NA,NA,NA,NA,NA,NA,NA,NA,NA,NA,NA,NA,NA,NA
c5021,"""Falsch""-Screen",canvas.Screen,3_0_0_0_0_1_2,NA,NA,timeout,5000.1,193165,193158.658,193175.2,198158.5,198159.30000019,2024-04-06T09:26:08Z,198175.3,NULL,Stimmung,kinyongo,s,kilekile,kisambo,madhehebu,NA,sdf,0,0,NA,NA,NA,NA,NA,NA,NA,NA,NA,NA,NA,NA,NA,NA,NA,NA,NA,NA,NA
c5021,shallow,flow.Sequence,3_0_0_0_0_1,NA,NA,completion,15450,182696.10000038,182692.8,182708.5,198158.5,198159.60000038,2024-04-06T09:26:08Z,198175.3,NULL,Stimmung,kinyongo,s,kilekile,kisambo,madhehebu,NA,sdf,NA,0,NA,NA,NA,NA,NA,NA,NA,NA,NA,NA,NA,NA,NA,NA,NA,NA,NA,NA,NA
c5021,task,flow.Sequence,3_0_0_0_0,NA,NA,completion,15450,182696,182692.8,182708.5,198158.5,198159.70000076,2024-04-06T09:26:08Z,198175.3,NULL,Stimmung,kinyongo,s,kilekile,kisambo,madhehebu,NA,sdf,NA,0,NA,NA,NA,NA,NA,NA,NA,NA,NA,NA,NA,NA,NA,NA,NA,NA,NA,NA,NA
c5021,Deep Question,html.Page,3_0_0_0_1_0_0,NA,NA,form submission,7339.2,198159.90000057,198158.5,198175.3,205514.5,205514.80000019,2024-04-06T09:26:15Z,205525.1,NULL,Notfall,dharura,d,NA,NA,NA,kinufi,NA,NA,0,NA,NA,NA,NA,NA,NA,NA,NA,NA,NA,NA,NA,NA,NA,NA,NA,NA,NA,NA
c5021,"""Richtig""-Screen",canvas.Screen,3_0_0_0_1_0_1,NA,NA,skipped,NA,205516.40000057,NA,NA,205514.5,205516.5,2024-04-06T09:26:15Z,205525.1,NULL,Notfall,dharura,d,NA,NA,NA,NA,sdf,NA,0,NA,NA,NA,NA,NA,NA,NA,NA,NA,NA,NA,NA,NA,NA,NA,NA,NA,NA,NA
c5021,"""Falsch""-Screen",canvas.Screen,3_0_0_0_1_0_2,NA,NA,timeout,5000.1,205517.10000038,205508.732,205525.1,210508.6,210509.20000076,2024-04-06T09:26:20Z,210525.2,NULL,Notfall,dharura,d,NA,NA,NA,NA,sdf,0,0,NA,NA,NA,NA,NA,NA,NA,NA,NA,NA,NA,NA,NA,NA,NA,NA,NA,NA,NA
c5021,deep,flow.Sequence,3_0_0_0_1_0,NA,NA,completion,12333.3,198159.80000019,198158.5,198175.3,210508.6,210509.5,2024-04-06T09:26:20Z,210525.2,NULL,Notfall,dharura,d,NA,NA,NA,NA,sdf,NA,0,NA,NA,NA,NA,NA,NA,NA,NA,NA,NA,NA,NA,NA,NA,NA,NA,NA,NA,NA
c5021,shallow,flow.Sequence,3_0_0_0_1_1,NA,NA,skipped,NA,210509.60000038,NA,NA,210508.6,210509.70000076,2024-04-06T09:26:20Z,210525.2,NULL,Notfall,dharura,d,NA,NA,NA,NA,sdf,NA,0,NA,NA,NA,NA,NA,NA,NA,NA,NA,NA,NA,NA,NA,NA,NA,NA,NA,NA,NA
c5021,task,flow.Sequence,3_0_0_0_1,NA,NA,completion,12333.3,198159.80000019,198158.5,198175.3,210508.6,210509.80000019,2024-04-06T09:26:20Z,210525.2,NULL,Notfall,dharura,d,NA,NA,NA,NA,sdf,NA,0,NA,NA,NA,NA,NA,NA,NA,NA,NA,NA,NA,NA,NA,NA,NA,NA,NA,NA,NA
c5021,deep,flow.Sequence,3_0_0_0_2_0,NA,NA,skipped,NA,210509.90000057,NA,NA,210508.6,210509.90000057,2024-04-06T09:26:20Z,210525.2,NULL,Betrüger,mdanganyifu,s,mwanamuziki,wastani,mahakama,NA,sdf,NA,0,NA,NA,NA,NA,NA,NA,NA,NA,NA,NA,NA,NA,NA,NA,NA,NA,NA,NA,NA
c5021,Shallow Question,html.Page,3_0_0_0_2_1_0,NA,NA,form submission,7852.1000001907,210510,210508.6,210525.2,218377.30000019,218377.5,2024-04-06T09:26:28Z,218391.9,NULL,Betrüger,mdanganyifu,s,mwanamuziki,wastani,mahakama,mahakama,NA,NA,0,NA,NA,NA,NA,NA,NA,NA,NA,NA,NA,NA,NA,NA,NA,NA,NA,NA,NA,NA
c5021,"""Richtig""-Screen",canvas.Screen,3_0_0_0_2_1_1,NA,NA,skipped,NA,218379.20000076,NA,NA,218377.30000019,218379.40000057,2024-04-06T09:26:28Z,218391.9,NULL,Betrüger,mdanganyifu,s,mwanamuziki,wastani,mahakama,NA,sdf,NA,0,NA,NA,NA,NA,NA,NA,NA,NA,NA,NA,NA,NA,NA,NA,NA,NA,NA,NA,NA
c5021,"""Falsch""-Screen",canvas.Screen,3_0_0_0_2_1_2,NA,NA,timeout,5000,218380,218375.316,218391.9,223375.2,223376,2024-04-06T09:26:33Z,223391.9,NULL,Betrüger,mdanganyifu,s,mwanamuziki,wastani,mahakama,NA,sdf,0,0,NA,NA,NA,NA,NA,NA,NA,NA,NA,NA,NA,NA,NA,NA,NA,NA,NA,NA,NA
c5021,shallow,flow.Sequence,3_0_0_0_2_1,NA,NA,completion,12850,210510,210508.6,210525.2,223375.2,223376.20000076,2024-04-06T09:26:33Z,223391.9,NULL,Betrüger,mdanganyifu,s,mwanamuziki,wastani,mahakama,NA,sdf,NA,0,NA,NA,NA,NA,NA,NA,NA,NA,NA,NA,NA,NA,NA,NA,NA,NA,NA,NA,NA
c5021,task,flow.Sequence,3_0_0_0_2,NA,NA,completion,12850,210509.90000057,210508.6,210525.2,223375.2,223376.40000057,2024-04-06T09:26:33Z,223391.9,NULL,Betrüger,mdanganyifu,s,mwanamuziki,wastani,mahakama,NA,sdf,NA,0,NA,NA,NA,NA,NA,NA,NA,NA,NA,NA,NA,NA,NA,NA,NA,NA,NA,NA,NA
c5021,deep,flow.Sequence,3_0_0_0_3_0,NA,NA,skipped,NA,223376.40000057,NA,NA,223375.2,223376.60000038,2024-04-06T09:26:33Z,223391.9,NULL,Wohlstand,mafanikio,s,chimbuko,kumbuko,mapwaji,NA,sdf,NA,0,NA,NA,NA,NA,NA,NA,NA,NA,NA,NA,NA,NA,NA,NA,NA,NA,NA,NA,NA
c5021,Shallow Question,html.Page,3_0_0_0_3_1_0,NA,NA,form submission,7768.8000007629,223376.70000076,223375.2,223391.9,231160.70000076,231160.90000057,2024-04-06T09:26:41Z,231175.1,NULL,Wohlstand,mafanikio,s,chimbuko,kumbuko,mapwaji,kumbuko,NA,NA,0,NA,NA,NA,NA,NA,NA,NA,NA,NA,NA,NA,NA,NA,NA,NA,NA,NA,NA,NA
c5021,"""Richtig""-Screen",canvas.Screen,3_0_0_0_3_1_1,NA,NA,skipped,NA,231162.80000019,NA,NA,231160.70000076,231162.90000057,2024-04-06T09:26:41Z,231175.1,NULL,Wohlstand,mafanikio,s,chimbuko,kumbuko,mapwaji,NA,sdf,NA,0,NA,NA,NA,NA,NA,NA,NA,NA,NA,NA,NA,NA,NA,NA,NA,NA,NA,NA,NA
c5021,"""Falsch""-Screen",canvas.Screen,3_0_0_0_3_1_2,NA,NA,timeout,5000.1,231163.40000057,231158.614,231175.1,236158.6,236159.30000019,2024-04-06T09:26:46Z,236175.2,NULL,Wohlstand,mafanikio,s,chimbuko,kumbuko,mapwaji,NA,sdf,0,0,NA,NA,NA,NA,NA,NA,NA,NA,NA,NA,NA,NA,NA,NA,NA,NA,NA,NA,NA
c5021,shallow,flow.Sequence,3_0_0_0_3_1,NA,NA,completion,12766.7,223376.70000076,223375.2,223391.9,236158.6,236159.70000076,2024-04-06T09:26:46Z,236175.2,NULL,Wohlstand,mafanikio,s,chimbuko,kumbuko,mapwaji,NA,sdf,NA,0,NA,NA,NA,NA,NA,NA,NA,NA,NA,NA,NA,NA,NA,NA,NA,NA,NA,NA,NA
c5021,task,flow.Sequence,3_0_0_0_3,NA,NA,completion,12766.7,223376.40000057,223375.2,223391.9,236158.6,236159.70000076,2024-04-06T09:26:46Z,236175.2,NULL,Wohlstand,mafanikio,s,chimbuko,kumbuko,mapwaji,NA,sdf,NA,0,NA,NA,NA,NA,NA,NA,NA,NA,NA,NA,NA,NA,NA,NA,NA,NA,NA,NA,NA
c5021,Deep Question,html.Page,3_0_0_0_4_0_0,NA,NA,form submission,7177.4000003815,236159.90000057,236158.6,236175.2,243352.60000038,243352.80000019,2024-04-06T09:26:53Z,243358.4,NULL,Respekt,heshima,d,NA,NA,NA,ufiki,NA,NA,0,NA,NA,NA,NA,NA,NA,NA,NA,NA,NA,NA,NA,NA,NA,NA,NA,NA,NA,NA
c5021,"""Richtig""-Screen",canvas.Screen,3_0_0_0_4_0_1,NA,NA,skipped,NA,243354.60000038,NA,NA,243352.60000038,243354.70000076,2024-04-06T09:26:53Z,243358.4,NULL,Respekt,heshima,d,NA,NA,NA,NA,sdf,NA,0,NA,NA,NA,NA,NA,NA,NA,NA,NA,NA,NA,NA,NA,NA,NA,NA,NA,NA,NA
c5021,"""Falsch""-Screen",canvas.Screen,3_0_0_0_4_0_2,NA,NA,timeout,5000.1,243355.20000076,243341.982,243358.4,248341.9,248342.5,2024-04-06T09:26:58Z,248358.5,NULL,Respekt,heshima,d,NA,NA,NA,NA,sdf,0,0,NA,NA,NA,NA,NA,NA,NA,NA,NA,NA,NA,NA,NA,NA,NA,NA,NA,NA,NA
c5021,deep,flow.Sequence,3_0_0_0_4_0,NA,NA,completion,12166.7,236159.90000057,236158.6,236175.2,248341.9,248342.90000057,2024-04-06T09:26:58Z,248358.5,NULL,Respekt,heshima,d,NA,NA,NA,NA,sdf,NA,0,NA,NA,NA,NA,NA,NA,NA,NA,NA,NA,NA,NA,NA,NA,NA,NA,NA,NA,NA
c5021,shallow,flow.Sequence,3_0_0_0_4_1,NA,NA,skipped,NA,248343,NA,NA,248341.9,248343.10000038,2024-04-06T09:26:58Z,248358.5,NULL,Respekt,heshima,d,NA,NA,NA,NA,sdf,NA,0,NA,NA,NA,NA,NA,NA,NA,NA,NA,NA,NA,NA,NA,NA,NA,NA,NA,NA,NA
c5021,task,flow.Sequence,3_0_0_0_4,NA,NA,completion,12166.7,236159.90000057,236158.6,236175.2,248341.9,248343.20000076,2024-04-06T09:26:58Z,248358.5,NULL,Respekt,heshima,d,NA,NA,NA,NA,sdf,NA,0,NA,NA,NA,NA,NA,NA,NA,NA,NA,NA,NA,NA,NA,NA,NA,NA,NA,NA,NA
c5021,Deep Question,html.Page,3_0_0_0_5_0_0,NA,NA,form submission,7311,248343.30000019,248341.9,248358.5,255669.5,255669.60000038,2024-04-06T09:27:06Z,255675,NULL,Vergnügen,kichekesho,d,NA,NA,NA,veuji,NA,NA,0,NA,NA,NA,NA,NA,NA,NA,NA,NA,NA,NA,NA,NA,NA,NA,NA,NA,NA,NA
c5021,"""Richtig""-Screen",canvas.Screen,3_0_0_0_5_0_1,NA,NA,skipped,NA,255671.5,NA,NA,255669.5,255671.60000038,2024-04-06T09:27:06Z,255675,NULL,Vergnügen,kichekesho,d,NA,NA,NA,NA,sdf,NA,0,NA,NA,NA,NA,NA,NA,NA,NA,NA,NA,NA,NA,NA,NA,NA,NA,NA,NA,NA
c5021,"""Falsch""-Screen",canvas.Screen,3_0_0_0_5_0_2,NA,NA,timeout,5000.2,255672.30000019,255658.684,255675,260658.6,260659.30000019,2024-04-06T09:27:11Z,260675.2,NULL,Vergnügen,kichekesho,d,NA,NA,NA,NA,sdf,0,0,NA,NA,NA,NA,NA,NA,NA,NA,NA,NA,NA,NA,NA,NA,NA,NA,NA,NA,NA
c5021,deep,flow.Sequence,3_0_0_0_5_0,NA,NA,completion,12300.1,248343.30000019,248341.9,248358.5,260658.6,260659.5,2024-04-06T09:27:11Z,260675.2,NULL,Vergnügen,kichekesho,d,NA,NA,NA,NA,sdf,NA,0,NA,NA,NA,NA,NA,NA,NA,NA,NA,NA,NA,NA,NA,NA,NA,NA,NA,NA,NA
c5021,shallow,flow.Sequence,3_0_0_0_5_1,NA,NA,skipped,NA,260659.70000076,NA,NA,260658.6,260659.80000019,2024-04-06T09:27:11Z,260675.2,NULL,Vergnügen,kichekesho,d,NA,NA,NA,NA,sdf,NA,0,NA,NA,NA,NA,NA,NA,NA,NA,NA,NA,NA,NA,NA,NA,NA,NA,NA,NA,NA
c5021,task,flow.Sequence,3_0_0_0_5,NA,NA,completion,12300.1,248343.30000019,248341.9,248358.5,260658.6,260659.80000019,2024-04-06T09:27:11Z,260675.2,NULL,Vergnügen,kichekesho,d,NA,NA,NA,NA,sdf,NA,0,NA,NA,NA,NA,NA,NA,NA,NA,NA,NA,NA,NA,NA,NA,NA,NA,NA,NA,NA
c5021,deep,flow.Sequence,3_0_0_0_6_0,NA,NA,skipped,NA,260659.90000057,NA,NA,260658.6,260660,2024-04-06T09:27:11Z,260675.2,NULL,Ergänzung,kijalizo,s,ulaghai,mustarehe,matangazo,NA,sdf,NA,0,NA,NA,NA,NA,NA,NA,NA,NA,NA,NA,NA,NA,NA,NA,NA,NA,NA,NA,NA
c5021,Shallow Question,html.Page,3_0_0_0_6_1_0,NA,NA,form submission,8308.9000003815,260660,260658.6,260675.2,268984.10000038,268984.40000057,2024-04-06T09:27:19Z,268991.6,NULL,Ergänzung,kijalizo,s,ulaghai,mustarehe,matangazo,kijalizo,NA,NA,0,NA,NA,NA,NA,NA,NA,NA,NA,NA,NA,NA,NA,NA,NA,NA,NA,NA,NA,NA
c5021,"""Richtig""-Screen",canvas.Screen,3_0_0_0_6_1_1,NA,NA,timeout,5000.3,268986,268975.322,268991.6,273975.2,273975.90000057,2024-04-06T09:27:24Z,273991.9,NULL,Ergänzung,kijalizo,s,ulaghai,mustarehe,matangazo,NA,sdf,1,0,NA,NA,NA,NA,NA,NA,NA,NA,NA,NA,NA,NA,NA,NA,NA,NA,NA,NA,NA
c5021,"""Falsch""-Screen",canvas.Screen,3_0_0_0_6_1_2,NA,NA,skipped,NA,273979.80000019,NA,NA,273975.2,273980,2024-04-06T09:27:24Z,273991.9,NULL,Ergänzung,kijalizo,s,ulaghai,mustarehe,matangazo,NA,sdf,NA,0,NA,NA,NA,NA,NA,NA,NA,NA,NA,NA,NA,NA,NA,NA,NA,NA,NA,NA,NA
c5021,shallow,flow.Sequence,3_0_0_0_6_1,NA,NA,completion,13300,260660,260658.6,260675.2,273975.2,273980.20000076,2024-04-06T09:27:24Z,273991.9,NULL,Ergänzung,kijalizo,s,ulaghai,mustarehe,matangazo,NA,sdf,NA,0,NA,NA,NA,NA,NA,NA,NA,NA,NA,NA,NA,NA,NA,NA,NA,NA,NA,NA,NA
c5021,task,flow.Sequence,3_0_0_0_6,NA,NA,completion,13300,260659.90000057,260658.6,260675.2,273975.2,273980.30000019,2024-04-06T09:27:24Z,273991.9,NULL,Ergänzung,kijalizo,s,ulaghai,mustarehe,matangazo,NA,sdf,NA,0,NA,NA,NA,NA,NA,NA,NA,NA,NA,NA,NA,NA,NA,NA,NA,NA,NA,NA,NA
c5021,Deep Question,html.Page,3_0_0_0_7_0_0,NA,NA,form submission,7687.5000005722,273980.40000057,273975.2,273991.9,281679.40000057,281679.60000038,2024-04-06T09:27:32Z,281691.6,NULL,Orientierung,urekebisho,d,NA,NA,NA,kuijizi,NA,NA,0,NA,NA,NA,NA,NA,NA,NA,NA,NA,NA,NA,NA,NA,NA,NA,NA,NA,NA,NA
c5021,"""Richtig""-Screen",canvas.Screen,3_0_0_0_7_0_1,NA,NA,skipped,NA,281681.40000057,NA,NA,281679.40000057,281681.60000038,2024-04-06T09:27:32Z,281691.6,NULL,Orientierung,urekebisho,d,NA,NA,NA,NA,sdf,NA,0,NA,NA,NA,NA,NA,NA,NA,NA,NA,NA,NA,NA,NA,NA,NA,NA,NA,NA,NA
c5021,"""Falsch""-Screen",canvas.Screen,3_0_0_0_7_0_2,NA,NA,timeout,5000.3,281682.10000038,281675.258,281691.6,286675.1,286675.90000057,2024-04-06T09:27:37Z,286691.9,NULL,Orientierung,urekebisho,d,NA,NA,NA,NA,sdf,0,0,NA,NA,NA,NA,NA,NA,NA,NA,NA,NA,NA,NA,NA,NA,NA,NA,NA,NA,NA
c5021,deep,flow.Sequence,3_0_0_0_7_0,NA,NA,completion,12683.2,273980.40000057,273975.2,273991.9,286675.1,286676.20000076,2024-04-06T09:27:37Z,286691.9,NULL,Orientierung,urekebisho,d,NA,NA,NA,NA,sdf,NA,0,NA,NA,NA,NA,NA,NA,NA,NA,NA,NA,NA,NA,NA,NA,NA,NA,NA,NA,NA
c5021,shallow,flow.Sequence,3_0_0_0_7_1,NA,NA,skipped,NA,286676.40000057,NA,NA,286675.1,286676.40000057,2024-04-06T09:27:37Z,286691.9,NULL,Orientierung,urekebisho,d,NA,NA,NA,NA,sdf,NA,0,NA,NA,NA,NA,NA,NA,NA,NA,NA,NA,NA,NA,NA,NA,NA,NA,NA,NA,NA
c5021,task,flow.Sequence,3_0_0_0_7,NA,NA,completion,12683.2,273980.40000057,273975.2,273991.9,286675.1,286676.5,2024-04-06T09:27:37Z,286691.9,NULL,Orientierung,urekebisho,d,NA,NA,NA,NA,sdf,NA,0,NA,NA,NA,NA,NA,NA,NA,NA,NA,NA,NA,NA,NA,NA,NA,NA,NA,NA,NA
c5021,block,flow.Loop,3_0_0_0,NA,NA,completion,103966.6,182696,182692.8,182708.5,286675.1,286676.70000076,2024-04-06T09:27:37Z,286691.9,NULL,NA,NA,NA,NA,NA,NA,NA,sdf,NA,0,NA,NA,NA,NA,NA,NA,NA,NA,NA,NA,NA,NA,NA,NA,NA,NA,NA,NA,NA
c5021,weiter,canvas.Screen,3_0_0_1,sdf,keypress(Space),response,1586.0000005722,286676.80000019,286675.1,286691.9,288277.90000057,288278.60000038,2024-04-06T09:27:38Z,288325.1,NULL,NA,NA,NA,NA,NA,NA,NA,sdf,NA,0,NA,NA,NA,NA,NA,NA,NA,NA,NA,NA,NA,NA,NA,NA,NA,NA,NA,NA,NA
c5021,check continue,flow.Sequence,3_0_0,NA,NA,completion,105569.40000057001,182696,182692.8,182708.5,288277.90000057,288278.90000057,2024-04-06T09:27:38Z,288325.1,NULL,NA,NA,NA,NA,NA,NA,NA,sdf,NA,0,NA,NA,NA,NA,NA,NA,NA,NA,NA,NA,NA,NA,NA,NA,NA,NA,NA,NA,NA
c5021,Deep Question,html.Page,3_0_1_0_0_0_0,NA,NA,form submission,13925.200000191,288316.30000019,288308.502,288325.1,302250.30000019,302250.60000038,2024-04-06T09:27:52Z,302258.5,NULL,Respekt,heshima,d,NA,NA,NA,fukitishi,NA,NA,1,NA,NA,NA,NA,NA,NA,NA,NA,NA,NA,NA,NA,NA,NA,NA,NA,NA,NA,NA
c5021,"""Richtig""-Screen",canvas.Screen,3_0_1_0_0_0_1,NA,NA,skipped,NA,302252.30000019,NA,NA,302250.30000019,302252.40000057,2024-04-06T09:27:52Z,302258.5,NULL,Respekt,heshima,d,NA,NA,NA,NA,sdfdsf,NA,1,NA,NA,NA,NA,NA,NA,NA,NA,NA,NA,NA,NA,NA,NA,NA,NA,NA,NA,NA
c5021,"""Falsch""-Screen",canvas.Screen,3_0_1_0_0_0_2,NA,NA,timeout,5000.1,302253,302242,302258.5,307241.9,307242.60000038,2024-04-06T09:27:57Z,307258.6,NULL,Respekt,heshima,d,NA,NA,NA,NA,sdfdsf,0,1,NA,NA,NA,NA,NA,NA,NA,NA,NA,NA,NA,NA,NA,NA,NA,NA,NA,NA,NA
c5021,deep,flow.Sequence,3_0_1_0_0_0,NA,NA,completion,18916.8,288316.30000019,288308.502,288325.1,307241.9,307242.90000057,2024-04-06T09:27:57Z,307258.6,NULL,Respekt,heshima,d,NA,NA,NA,NA,sdfdsf,NA,1,NA,NA,NA,NA,NA,NA,NA,NA,NA,NA,NA,NA,NA,NA,NA,NA,NA,NA,NA
c5021,shallow,flow.Sequence,3_0_1_0_0_1,NA,NA,skipped,NA,307242.90000057,NA,NA,307241.9,307243.10000038,2024-04-06T09:27:57Z,307258.6,NULL,Respekt,heshima,d,NA,NA,NA,NA,sdfdsf,NA,1,NA,NA,NA,NA,NA,NA,NA,NA,NA,NA,NA,NA,NA,NA,NA,NA,NA,NA,NA
c5021,task,flow.Sequence,3_0_1_0_0,NA,NA,completion,18916.8,288316.30000019,288308.502,288325.1,307241.9,307243.10000038,2024-04-06T09:27:57Z,307258.6,NULL,Respekt,heshima,d,NA,NA,NA,NA,sdfdsf,NA,1,NA,NA,NA,NA,NA,NA,NA,NA,NA,NA,NA,NA,NA,NA,NA,NA,NA,NA,NA
c5021,Deep Question,html.Page,3_0_1_0_1_0_0,NA,NA,form submission,7861.8000005722,307243.20000076,307241.9,307258.6,315120.40000057,315120.60000038,2024-04-06T09:28:05Z,315125,NULL,Notfall,dharura,d,NA,NA,NA,maguzo,NA,NA,1,NA,NA,NA,NA,NA,NA,NA,NA,NA,NA,NA,NA,NA,NA,NA,NA,NA,NA,NA
c5021,"""Richtig""-Screen",canvas.Screen,3_0_1_0_1_0_1,NA,NA,skipped,NA,315122.5,NA,NA,315120.40000057,315122.5,2024-04-06T09:28:05Z,315125,NULL,Notfall,dharura,d,NA,NA,NA,NA,sdfdsf,NA,1,NA,NA,NA,NA,NA,NA,NA,NA,NA,NA,NA,NA,NA,NA,NA,NA,NA,NA,NA
c5021,"""Falsch""-Screen",canvas.Screen,3_0_1_0_1_0_2,NA,NA,timeout,5000.2,315123.10000038,315108.688,315125,320108.4,320109.30000019,2024-04-06T09:28:10Z,320125.2,NULL,Notfall,dharura,d,NA,NA,NA,NA,sdfdsf,0,1,NA,NA,NA,NA,NA,NA,NA,NA,NA,NA,NA,NA,NA,NA,NA,NA,NA,NA,NA
c5021,deep,flow.Sequence,3_0_1_0_1_0,NA,NA,completion,12849.8,307243.20000076,307241.9,307258.6,320108.4,320109.60000038,2024-04-06T09:28:10Z,320125.2,NULL,Notfall,dharura,d,NA,NA,NA,NA,sdfdsf,NA,1,NA,NA,NA,NA,NA,NA,NA,NA,NA,NA,NA,NA,NA,NA,NA,NA,NA,NA,NA
c5021,shallow,flow.Sequence,3_0_1_0_1_1,NA,NA,skipped,NA,320109.70000076,NA,NA,320108.4,320109.70000076,2024-04-06T09:28:10Z,320125.2,NULL,Notfall,dharura,d,NA,NA,NA,NA,sdfdsf,NA,1,NA,NA,NA,NA,NA,NA,NA,NA,NA,NA,NA,NA,NA,NA,NA,NA,NA,NA,NA
c5021,task,flow.Sequence,3_0_1_0_1,NA,NA,completion,12849.8,307243.20000076,307241.9,307258.6,320108.4,320109.90000057,2024-04-06T09:28:10Z,320125.2,NULL,Notfall,dharura,d,NA,NA,NA,NA,sdfdsf,NA,1,NA,NA,NA,NA,NA,NA,NA,NA,NA,NA,NA,NA,NA,NA,NA,NA,NA,NA,NA
c5021,deep,flow.Sequence,3_0_1_0_2_0,NA,NA,skipped,NA,320109.90000057,NA,NA,320108.4,320110,2024-04-06T09:28:10Z,320125.2,NULL,Wohlstand,mafanikio,s,chimbuko,kumbuko,mapwaji,NA,sdfdsf,NA,1,NA,NA,NA,NA,NA,NA,NA,NA,NA,NA,NA,NA,NA,NA,NA,NA,NA,NA,NA
c5021,Shallow Question,html.Page,3_0_1_0_2_1_0,NA,NA,form submission,6745.1000001907,320110.10000038,320108.4,320125.2,326870.30000019,326870.40000057,2024-04-06T09:28:17Z,326875,NULL,Wohlstand,mafanikio,s,chimbuko,kumbuko,mapwaji,kumbuko,NA,NA,1,NA,NA,NA,NA,NA,NA,NA,NA,NA,NA,NA,NA,NA,NA,NA,NA,NA,NA,NA
c5021,"""Richtig""-Screen",canvas.Screen,3_0_1_0_2_1_1,NA,NA,skipped,NA,326872.20000076,NA,NA,326870.30000019,326872.30000019,2024-04-06T09:28:17Z,326875,NULL,Wohlstand,mafanikio,s,chimbuko,kumbuko,mapwaji,NA,sdfdsf,NA,1,NA,NA,NA,NA,NA,NA,NA,NA,NA,NA,NA,NA,NA,NA,NA,NA,NA,NA,NA
c5021,"""Falsch""-Screen",canvas.Screen,3_0_1_0_2_1_2,NA,NA,timeout,5000.3,326872.90000057,326858.582,326875,331858.5,331859.20000076,2024-04-06T09:28:22Z,331875.3,NULL,Wohlstand,mafanikio,s,chimbuko,kumbuko,mapwaji,NA,sdfdsf,0,1,NA,NA,NA,NA,NA,NA,NA,NA,NA,NA,NA,NA,NA,NA,NA,NA,NA,NA,NA
c5021,shallow,flow.Sequence,3_0_1_0_2_1,NA,NA,completion,11733.3,320110.10000038,320108.4,320125.2,331858.5,331859.60000038,2024-04-06T09:28:22Z,331875.3,NULL,Wohlstand,mafanikio,s,chimbuko,kumbuko,mapwaji,NA,sdfdsf,NA,1,NA,NA,NA,NA,NA,NA,NA,NA,NA,NA,NA,NA,NA,NA,NA,NA,NA,NA,NA
c5021,task,flow.Sequence,3_0_1_0_2,NA,NA,completion,11733.3,320109.90000057,320108.4,320125.2,331858.5,331859.70000076,2024-04-06T09:28:22Z,331875.3,NULL,Wohlstand,mafanikio,s,chimbuko,kumbuko,mapwaji,NA,sdfdsf,NA,1,NA,NA,NA,NA,NA,NA,NA,NA,NA,NA,NA,NA,NA,NA,NA,NA,NA,NA,NA
c5021,deep,flow.Sequence,3_0_1_0_3_0,NA,NA,skipped,NA,331859.80000019,NA,NA,331858.5,331859.90000057,2024-04-06T09:28:22Z,331875.3,NULL,Ergänzung,kijalizo,s,ulaghai,mustarehe,matangazo,NA,sdfdsf,NA,1,NA,NA,NA,NA,NA,NA,NA,NA,NA,NA,NA,NA,NA,NA,NA,NA,NA,NA,NA
c5021,Shallow Question,html.Page,3_0_1_0_3_1_0,NA,NA,form submission,8269.400000763,331860,331858.5,331875.3,340144.70000076,340144.80000019,2024-04-06T09:28:30Z,340158.5,NULL,Ergänzung,kijalizo,s,ulaghai,mustarehe,matangazo,matangazo,NA,NA,1,NA,NA,NA,NA,NA,NA,NA,NA,NA,NA,NA,NA,NA,NA,NA,NA,NA,NA,NA
c5021,"""Richtig""-Screen",canvas.Screen,3_0_1_0_3_1_1,NA,NA,skipped,NA,340146.70000076,NA,NA,340144.70000076,340146.80000019,2024-04-06T09:28:30Z,340158.5,NULL,Ergänzung,kijalizo,s,ulaghai,mustarehe,matangazo,NA,sdfdsf,NA,1,NA,NA,NA,NA,NA,NA,NA,NA,NA,NA,NA,NA,NA,NA,NA,NA,NA,NA,NA
c5021,"""Falsch""-Screen",canvas.Screen,3_0_1_0_3_1_2,NA,NA,timeout,5000.1,340147.30000019,340141.89,340158.5,345141.8,345142.5,2024-04-06T09:28:35Z,345158.6,NULL,Ergänzung,kijalizo,s,ulaghai,mustarehe,matangazo,NA,sdfdsf,0,1,NA,NA,NA,NA,NA,NA,NA,NA,NA,NA,NA,NA,NA,NA,NA,NA,NA,NA,NA
c5021,shallow,flow.Sequence,3_0_1_0_3_1,NA,NA,completion,13266.5,331860,331858.5,331875.3,345141.8,345142.80000019,2024-04-06T09:28:35Z,345158.6,NULL,Ergänzung,kijalizo,s,ulaghai,mustarehe,matangazo,NA,sdfdsf,NA,1,NA,NA,NA,NA,NA,NA,NA,NA,NA,NA,NA,NA,NA,NA,NA,NA,NA,NA,NA
c5021,task,flow.Sequence,3_0_1_0_3,NA,NA,completion,13266.5,331859.80000019,331858.5,331875.3,345141.8,345143,2024-04-06T09:28:35Z,345158.6,NULL,Ergänzung,kijalizo,s,ulaghai,mustarehe,matangazo,NA,sdfdsf,NA,1,NA,NA,NA,NA,NA,NA,NA,NA,NA,NA,NA,NA,NA,NA,NA,NA,NA,NA,NA
c5021,Deep Question,html.Page,3_0_1_0_4_0_0,NA,NA,form submission,6196.8000005722,345143.10000038,345141.8,345158.6,351355.40000057,351355.60000038,2024-04-06T09:28:41Z,351358.572,NULL,Vergnügen,kichekesho,d,NA,NA,NA,kigalizo,NA,NA,1,NA,NA,NA,NA,NA,NA,NA,NA,NA,NA,NA,NA,NA,NA,NA,NA,NA,NA,NA
c5021,"""Richtig""-Screen",canvas.Screen,3_0_1_0_4_0_1,NA,NA,skipped,NA,351357.40000057,NA,NA,351355.40000057,351357.40000057,2024-04-06T09:28:41Z,351358.572,NULL,Vergnügen,kichekesho,d,NA,NA,NA,NA,sdfdsf,NA,1,NA,NA,NA,NA,NA,NA,NA,NA,NA,NA,NA,NA,NA,NA,NA,NA,NA,NA,NA
c5021,"""Falsch""-Screen",canvas.Screen,3_0_1_0_4_0_2,NA,NA,timeout,4999.928,351358.10000038,351358.572,351358.572,356341.8,356342.5,2024-04-06T09:28:46Z,356358.5,NULL,Vergnügen,kichekesho,d,NA,NA,NA,NA,sdfdsf,0,1,NA,NA,NA,NA,NA,NA,NA,NA,NA,NA,NA,NA,NA,NA,NA,NA,NA,NA,NA
c5021,deep,flow.Sequence,3_0_1_0_4_0,NA,NA,completion,11183.2,345143.10000038,345141.8,345158.6,356341.8,356343,2024-04-06T09:28:46Z,356358.5,NULL,Vergnügen,kichekesho,d,NA,NA,NA,NA,sdfdsf,NA,1,NA,NA,NA,NA,NA,NA,NA,NA,NA,NA,NA,NA,NA,NA,NA,NA,NA,NA,NA
c5021,shallow,flow.Sequence,3_0_1_0_4_1,NA,NA,skipped,NA,356343.10000038,NA,NA,356341.8,356343.30000019,2024-04-06T09:28:46Z,356358.5,NULL,Vergnügen,kichekesho,d,NA,NA,NA,NA,sdfdsf,NA,1,NA,NA,NA,NA,NA,NA,NA,NA,NA,NA,NA,NA,NA,NA,NA,NA,NA,NA,NA
c5021,task,flow.Sequence,3_0_1_0_4,NA,NA,completion,11183.2,345143.10000038,345141.8,345158.6,356341.8,356343.40000057,2024-04-06T09:28:46Z,356358.5,NULL,Vergnügen,kichekesho,d,NA,NA,NA,NA,sdfdsf,NA,1,NA,NA,NA,NA,NA,NA,NA,NA,NA,NA,NA,NA,NA,NA,NA,NA,NA,NA,NA
c5021,deep,flow.Sequence,3_0_1_0_5_0,NA,NA,skipped,NA,356343.40000057,NA,NA,356341.8,356343.5,2024-04-06T09:28:46Z,356358.5,NULL,Betrüger,mdanganyifu,s,mwanamuziki,wastani,mahakama,NA,sdfdsf,NA,1,NA,NA,NA,NA,NA,NA,NA,NA,NA,NA,NA,NA,NA,NA,NA,NA,NA,NA,NA
c5021,Shallow Question,html.Page,3_0_1_0_5_1_0,NA,NA,form submission,9952.7000007629,356343.60000038,356341.8,356358.5,366311.20000076,366311.30000019,2024-04-06T09:28:56Z,366325.2,NULL,Betrüger,mdanganyifu,s,mwanamuziki,wastani,mahakama,mdanganyifu,NA,NA,1,NA,NA,NA,NA,NA,NA,NA,NA,NA,NA,NA,NA,NA,NA,NA,NA,NA,NA,NA
c5021,"""Richtig""-Screen",canvas.Screen,3_0_1_0_5_1_1,NA,NA,timeout,4999.8,366313.30000019,366308.558,366325.2,371308.5,371309.20000076,2024-04-06T09:29:01Z,371325,NULL,Betrüger,mdanganyifu,s,mwanamuziki,wastani,mahakama,NA,sdfdsf,1,1,NA,NA,NA,NA,NA,NA,NA,NA,NA,NA,NA,NA,NA,NA,NA,NA,NA,NA,NA
c5021,"""Falsch""-Screen",canvas.Screen,3_0_1_0_5_1_2,NA,NA,skipped,NA,371313.30000019,NA,NA,371308.5,371313.40000057,2024-04-06T09:29:01Z,371325,NULL,Betrüger,mdanganyifu,s,mwanamuziki,wastani,mahakama,NA,sdfdsf,NA,1,NA,NA,NA,NA,NA,NA,NA,NA,NA,NA,NA,NA,NA,NA,NA,NA,NA,NA,NA
c5021,shallow,flow.Sequence,3_0_1_0_5_1,NA,NA,completion,14950,356343.60000038,356341.8,356358.5,371308.5,371313.70000076,2024-04-06T09:29:01Z,371325,NULL,Betrüger,mdanganyifu,s,mwanamuziki,wastani,mahakama,NA,sdfdsf,NA,1,NA,NA,NA,NA,NA,NA,NA,NA,NA,NA,NA,NA,NA,NA,NA,NA,NA,NA,NA
c5021,task,flow.Sequence,3_0_1_0_5,NA,NA,completion,14950,356343.40000057,356341.8,356358.5,371308.5,371313.80000019,2024-04-06T09:29:01Z,371325,NULL,Betrüger,mdanganyifu,s,mwanamuziki,wastani,mahakama,NA,sdfdsf,NA,1,NA,NA,NA,NA,NA,NA,NA,NA,NA,NA,NA,NA,NA,NA,NA,NA,NA,NA,NA
c5021,deep,flow.Sequence,3_0_1_0_6_0,NA,NA,skipped,NA,371313.90000057,NA,NA,371308.5,371314,2024-04-06T09:29:01Z,371325,NULL,Stimmung,kinyongo,s,kilekile,kisambo,madhehebu,NA,sdfdsf,NA,1,NA,NA,NA,NA,NA,NA,NA,NA,NA,NA,NA,NA,NA,NA,NA,NA,NA,NA,NA
c5021,Shallow Question,html.Page,3_0_1_0_6_1_0,NA,NA,form submission,7759.1000003815,371314.10000038,371308.5,371325,379084.10000038,379084.30000019,2024-04-06T09:29:09Z,379091.88,NULL,Stimmung,kinyongo,s,kilekile,kisambo,madhehebu,kisambo,NA,NA,1,NA,NA,NA,NA,NA,NA,NA,NA,NA,NA,NA,NA,NA,NA,NA,NA,NA,NA,NA
c5021,"""Richtig""-Screen",canvas.Screen,3_0_1_0_6_1_1,NA,NA,skipped,NA,379086.20000076,NA,NA,379084.10000038,379086.30000019,2024-04-06T09:29:09Z,379091.88,NULL,Stimmung,kinyongo,s,kilekile,kisambo,madhehebu,NA,sdfdsf,NA,1,NA,NA,NA,NA,NA,NA,NA,NA,NA,NA,NA,NA,NA,NA,NA,NA,NA,NA,NA
c5021,"""Falsch""-Screen",canvas.Screen,3_0_1_0_6_1_2,NA,NA,timeout,4999.92,379086.80000019,379091.88,379091.88,384075.1,384075.80000019,2024-04-06T09:29:14Z,384091.8,NULL,Stimmung,kinyongo,s,kilekile,kisambo,madhehebu,NA,sdfdsf,0,1,NA,NA,NA,NA,NA,NA,NA,NA,NA,NA,NA,NA,NA,NA,NA,NA,NA,NA,NA
c5021,shallow,flow.Sequence,3_0_1_0_6_1,NA,NA,completion,12750.1,371314,371308.5,371325,384075.1,384076.20000076,2024-04-06T09:29:14Z,384091.8,NULL,Stimmung,kinyongo,s,kilekile,kisambo,madhehebu,NA,sdfdsf,NA,1,NA,NA,NA,NA,NA,NA,NA,NA,NA,NA,NA,NA,NA,NA,NA,NA,NA,NA,NA
c5021,task,flow.Sequence,3_0_1_0_6,NA,NA,completion,12750.1,371313.90000057,371308.5,371325,384075.1,384076.30000019,2024-04-06T09:29:14Z,384091.8,NULL,Stimmung,kinyongo,s,kilekile,kisambo,madhehebu,NA,sdfdsf,NA,1,NA,NA,NA,NA,NA,NA,NA,NA,NA,NA,NA,NA,NA,NA,NA,NA,NA,NA,NA
c5021,Deep Question,html.Page,3_0_1_0_7_0_0,NA,NA,form submission,7980.5000001907,384076.5,384075.1,384091.8,392072.30000019,392072.5,2024-04-06T09:29:22Z,392075.272,NULL,Orientierung,urekebisho,d,NA,NA,NA,kinjongo,NA,NA,1,NA,NA,NA,NA,NA,NA,NA,NA,NA,NA,NA,NA,NA,NA,NA,NA,NA,NA,NA
c5021,"""Richtig""-Screen",canvas.Screen,3_0_1_0_7_0_1,NA,NA,skipped,NA,392074.30000019,NA,NA,392072.30000019,392074.40000057,2024-04-06T09:29:22Z,392075.272,NULL,Orientierung,urekebisho,d,NA,NA,NA,NA,sdfdsf,NA,1,NA,NA,NA,NA,NA,NA,NA,NA,NA,NA,NA,NA,NA,NA,NA,NA,NA,NA,NA
c5021,"""Falsch""-Screen",canvas.Screen,3_0_1_0_7_0_2,NA,NA,timeout,4999.928,392074.90000057,392075.272,392075.272,397058.5,397059.20000076,2024-04-06T09:29:27Z,397075.2,NULL,Orientierung,urekebisho,d,NA,NA,NA,NA,sdfdsf,0,1,NA,NA,NA,NA,NA,NA,NA,NA,NA,NA,NA,NA,NA,NA,NA,NA,NA,NA,NA
c5021,deep,flow.Sequence,3_0_1_0_7_0,NA,NA,completion,12966.7,384076.40000057,384075.1,384091.8,397058.5,397059.40000057,2024-04-06T09:29:27Z,397075.2,NULL,Orientierung,urekebisho,d,NA,NA,NA,NA,sdfdsf,NA,1,NA,NA,NA,NA,NA,NA,NA,NA,NA,NA,NA,NA,NA,NA,NA,NA,NA,NA,NA
c5021,shallow,flow.Sequence,3_0_1_0_7_1,NA,NA,skipped,NA,397059.5,NA,NA,397058.5,397059.60000038,2024-04-06T09:29:27Z,397075.2,NULL,Orientierung,urekebisho,d,NA,NA,NA,NA,sdfdsf,NA,1,NA,NA,NA,NA,NA,NA,NA,NA,NA,NA,NA,NA,NA,NA,NA,NA,NA,NA,NA
c5021,task,flow.Sequence,3_0_1_0_7,NA,NA,completion,12966.7,384076.40000057,384075.1,384091.8,397058.5,397059.70000076,2024-04-06T09:29:27Z,397075.2,NULL,Orientierung,urekebisho,d,NA,NA,NA,NA,sdfdsf,NA,1,NA,NA,NA,NA,NA,NA,NA,NA,NA,NA,NA,NA,NA,NA,NA,NA,NA,NA,NA
c5021,block,flow.Loop,3_0_1_0,NA,NA,completion,108733.4,288316.30000019,288308.502,288325.1,397058.5,397059.90000057,2024-04-06T09:29:27Z,397075.2,NULL,NA,NA,NA,NA,NA,NA,NA,sdfdsf,NA,1,NA,NA,NA,NA,NA,NA,NA,NA,NA,NA,NA,NA,NA,NA,NA,NA,NA,NA,NA
c5021,weiter,canvas.Screen,3_0_1_1,sdf,keypress(Space),response,1238.2000005722,397060,397058.5,397075.2,398313.40000057,398314.20000076,2024-04-06T09:29:28Z,398358.3,NULL,NA,NA,NA,NA,NA,NA,NA,sdfdsf,NA,1,NA,NA,NA,NA,NA,NA,NA,NA,NA,NA,NA,NA,NA,NA,NA,NA,NA,NA,NA
c5021,check continue,flow.Sequence,3_0_1,NA,NA,completion,109988.30000057,288316.20000076,288308.502,288325.1,398313.40000057,398314.5,2024-04-06T09:29:28Z,398358.3,NULL,NA,NA,NA,NA,NA,NA,NA,sdfdsf,NA,1,NA,NA,NA,NA,NA,NA,NA,NA,NA,NA,NA,NA,NA,NA,NA,NA,NA,NA,NA
c5021,Deep Question,html.Page,3_0_2_0_0_0_0,NA,NA,form submission,6890.900000763,398352.70000076,398341.84,398358.3,405249.20000076,405249.40000057,2024-04-06T09:29:35Z,405258.5,NULL,Notfall,dharura,d,NA,NA,NA,urekishu,NA,NA,2,NA,NA,NA,NA,NA,NA,NA,NA,NA,NA,NA,NA,NA,NA,NA,NA,NA,NA,NA
c5021,"""Richtig""-Screen",canvas.Screen,3_0_2_0_0_0_1,NA,NA,skipped,NA,405251.10000038,NA,NA,405249.20000076,405251.30000019,2024-04-06T09:29:35Z,405258.5,NULL,Notfall,dharura,d,NA,NA,NA,NA,sdf,NA,2,NA,NA,NA,NA,NA,NA,NA,NA,NA,NA,NA,NA,NA,NA,NA,NA,NA,NA,NA
c5021,"""Falsch""-Screen",canvas.Screen,3_0_2_0_0_0_2,NA,NA,timeout,5000,405251.70000076,405241.91,405258.5,410241.8,410242.5,2024-04-06T09:29:40Z,410258.5,NULL,Notfall,dharura,d,NA,NA,NA,NA,sdf,0,2,NA,NA,NA,NA,NA,NA,NA,NA,NA,NA,NA,NA,NA,NA,NA,NA,NA,NA,NA
c5021,deep,flow.Sequence,3_0_2_0_0_0,NA,NA,completion,11883.5,398352.60000038,398341.84,398358.3,410241.8,410242.80000019,2024-04-06T09:29:40Z,410258.5,NULL,Notfall,dharura,d,NA,NA,NA,NA,sdf,NA,2,NA,NA,NA,NA,NA,NA,NA,NA,NA,NA,NA,NA,NA,NA,NA,NA,NA,NA,NA
c5021,shallow,flow.Sequence,3_0_2_0_0_1,NA,NA,skipped,NA,410242.90000057,NA,NA,410241.8,410242.90000057,2024-04-06T09:29:40Z,410258.5,NULL,Notfall,dharura,d,NA,NA,NA,NA,sdf,NA,2,NA,NA,NA,NA,NA,NA,NA,NA,NA,NA,NA,NA,NA,NA,NA,NA,NA,NA,NA
c5021,task,flow.Sequence,3_0_2_0_0,NA,NA,completion,11883.5,398352.60000038,398341.84,398358.3,410241.8,410243.10000038,2024-04-06T09:29:40Z,410258.5,NULL,Notfall,dharura,d,NA,NA,NA,NA,sdf,NA,2,NA,NA,NA,NA,NA,NA,NA,NA,NA,NA,NA,NA,NA,NA,NA,NA,NA,NA,NA
c5021,Deep Question,html.Page,3_0_2_0_1_0_0,NA,NA,form submission,9859.6000003815,410243.20000076,410241.8,410258.5,420118.10000038,420118.30000019,2024-04-06T09:29:50Z,420124.9,NULL,Orientierung,urekebisho,d,NA,NA,NA,kuyushu,NA,NA,2,NA,NA,NA,NA,NA,NA,NA,NA,NA,NA,NA,NA,NA,NA,NA,NA,NA,NA,NA
c5021,"""Richtig""-Screen",canvas.Screen,3_0_2_0_1_0_1,NA,NA,skipped,NA,420120,NA,NA,420118.10000038,420120.20000076,2024-04-06T09:29:50Z,420124.9,NULL,Orientierung,urekebisho,d,NA,NA,NA,NA,sdf,NA,2,NA,NA,NA,NA,NA,NA,NA,NA,NA,NA,NA,NA,NA,NA,NA,NA,NA,NA,NA
c5021,"""Falsch""-Screen",canvas.Screen,3_0_2_0_1_0_2,NA,NA,timeout,5000.2,420120.60000038,420108.604,420124.9,425108.4,425109.30000019,2024-04-06T09:29:55Z,425125.1,NULL,Orientierung,urekebisho,d,NA,NA,NA,NA,sdf,0,2,NA,NA,NA,NA,NA,NA,NA,NA,NA,NA,NA,NA,NA,NA,NA,NA,NA,NA,NA
c5021,deep,flow.Sequence,3_0_2_0_1_0,NA,NA,completion,14849.9,410243.20000076,410241.8,410258.5,425108.4,425109.60000038,2024-04-06T09:29:55Z,425125.1,NULL,Orientierung,urekebisho,d,NA,NA,NA,NA,sdf,NA,2,NA,NA,NA,NA,NA,NA,NA,NA,NA,NA,NA,NA,NA,NA,NA,NA,NA,NA,NA
c5021,shallow,flow.Sequence,3_0_2_0_1_1,NA,NA,skipped,NA,425109.70000076,NA,NA,425108.4,425109.80000019,2024-04-06T09:29:55Z,425125.1,NULL,Orientierung,urekebisho,d,NA,NA,NA,NA,sdf,NA,2,NA,NA,NA,NA,NA,NA,NA,NA,NA,NA,NA,NA,NA,NA,NA,NA,NA,NA,NA
c5021,task,flow.Sequence,3_0_2_0_1,NA,NA,completion,14849.9,410243.20000076,410241.8,410258.5,425108.4,425109.90000057,2024-04-06T09:29:55Z,425125.1,NULL,Orientierung,urekebisho,d,NA,NA,NA,NA,sdf,NA,2,NA,NA,NA,NA,NA,NA,NA,NA,NA,NA,NA,NA,NA,NA,NA,NA,NA,NA,NA
c5021,deep,flow.Sequence,3_0_2_0_2_0,NA,NA,skipped,NA,425110,NA,NA,425108.4,425110.10000038,2024-04-06T09:29:55Z,425125.1,NULL,Stimmung,kinyongo,s,kilekile,kisambo,madhehebu,NA,sdf,NA,2,NA,NA,NA,NA,NA,NA,NA,NA,NA,NA,NA,NA,NA,NA,NA,NA,NA,NA,NA
c5021,Shallow Question,html.Page,3_0_2_0_2_1_0,NA,NA,form submission,4976.8000005722,425110.10000038,425108.4,425125.1,430101.90000057,430102.10000038,2024-04-06T09:30:00Z,430125.1,NULL,Stimmung,kinyongo,s,kilekile,kisambo,madhehebu,kinyongo,NA,NA,2,NA,NA,NA,NA,NA,NA,NA,NA,NA,NA,NA,NA,NA,NA,NA,NA,NA,NA,NA
c5021,"""Richtig""-Screen",canvas.Screen,3_0_2_0_2_1_1,NA,NA,timeout,5000,430103.90000057,430108.5,430125.1,435108.5,435109,2024-04-06T09:30:05Z,435125.1,NULL,Stimmung,kinyongo,s,kilekile,kisambo,madhehebu,NA,sdf,1,2,NA,NA,NA,NA,NA,NA,NA,NA,NA,NA,NA,NA,NA,NA,NA,NA,NA,NA,NA
c5021,"""Falsch""-Screen",canvas.Screen,3_0_2_0_2_1_2,NA,NA,skipped,NA,435113.30000019,NA,NA,435108.5,435113.60000038,2024-04-06T09:30:05Z,435125.1,NULL,Stimmung,kinyongo,s,kilekile,kisambo,madhehebu,NA,sdf,NA,2,NA,NA,NA,NA,NA,NA,NA,NA,NA,NA,NA,NA,NA,NA,NA,NA,NA,NA,NA
c5021,shallow,flow.Sequence,3_0_2_0_2_1,NA,NA,completion,9983.4,425110.10000038,425108.4,425125.1,435108.5,435113.70000076,2024-04-06T09:30:05Z,435125.1,NULL,Stimmung,kinyongo,s,kilekile,kisambo,madhehebu,NA,sdf,NA,2,NA,NA,NA,NA,NA,NA,NA,NA,NA,NA,NA,NA,NA,NA,NA,NA,NA,NA,NA
c5021,task,flow.Sequence,3_0_2_0_2,NA,NA,completion,9983.4,425110,425108.4,425125.1,435108.5,435113.90000057,2024-04-06T09:30:05Z,435125.1,NULL,Stimmung,kinyongo,s,kilekile,kisambo,madhehebu,NA,sdf,NA,2,NA,NA,NA,NA,NA,NA,NA,NA,NA,NA,NA,NA,NA,NA,NA,NA,NA,NA,NA
c5021,deep,flow.Sequence,3_0_2_0_3_0,NA,NA,skipped,NA,435113.90000057,NA,NA,435108.5,435114,2024-04-06T09:30:05Z,435125.1,NULL,Ergänzung,kijalizo,s,ulaghai,mustarehe,matangazo,NA,sdf,NA,2,NA,NA,NA,NA,NA,NA,NA,NA,NA,NA,NA,NA,NA,NA,NA,NA,NA,NA,NA
c5021,Shallow Question,html.Page,3_0_2_0_3_1_0,NA,NA,form submission,8646.9,435114.10000038,435108.5,435125.1,443772,443772.20000076,2024-04-06T09:30:14Z,443774.9,NULL,Ergänzung,kijalizo,s,ulaghai,mustarehe,matangazo,kijalizo,NA,NA,2,NA,NA,NA,NA,NA,NA,NA,NA,NA,NA,NA,NA,NA,NA,NA,NA,NA,NA,NA
c5021,"""Richtig""-Screen",canvas.Screen,3_0_2_0_3_1_1,NA,NA,timeout,5000.1,443773.80000019,443758.526,443774.9,448758.4,448759,2024-04-06T09:30:19Z,448775,NULL,Ergänzung,kijalizo,s,ulaghai,mustarehe,matangazo,NA,sdf,1,2,NA,NA,NA,NA,NA,NA,NA,NA,NA,NA,NA,NA,NA,NA,NA,NA,NA,NA,NA
c5021,"""Falsch""-Screen",canvas.Screen,3_0_2_0_3_1_2,NA,NA,skipped,NA,448763,NA,NA,448758.4,448763.20000076,2024-04-06T09:30:19Z,448775,NULL,Ergänzung,kijalizo,s,ulaghai,mustarehe,matangazo,NA,sdf,NA,2,NA,NA,NA,NA,NA,NA,NA,NA,NA,NA,NA,NA,NA,NA,NA,NA,NA,NA,NA
c5021,shallow,flow.Sequence,3_0_2_0_3_1,NA,NA,completion,13633.3,435114.10000038,435108.5,435125.1,448758.4,448763.40000057,2024-04-06T09:30:19Z,448775,NULL,Ergänzung,kijalizo,s,ulaghai,mustarehe,matangazo,NA,sdf,NA,2,NA,NA,NA,NA,NA,NA,NA,NA,NA,NA,NA,NA,NA,NA,NA,NA,NA,NA,NA
c5021,task,flow.Sequence,3_0_2_0_3,NA,NA,completion,13633.3,435113.90000057,435108.5,435125.1,448758.4,448763.5,2024-04-06T09:30:19Z,448775,NULL,Ergänzung,kijalizo,s,ulaghai,mustarehe,matangazo,NA,sdf,NA,2,NA,NA,NA,NA,NA,NA,NA,NA,NA,NA,NA,NA,NA,NA,NA,NA,NA,NA,NA
c5021,deep,flow.Sequence,3_0_2_0_4_0,NA,NA,skipped,NA,448763.70000076,NA,NA,448758.4,448763.70000076,2024-04-06T09:30:19Z,448775,NULL,Wohlstand,mafanikio,s,chimbuko,kumbuko,mapwaji,NA,sdf,NA,2,NA,NA,NA,NA,NA,NA,NA,NA,NA,NA,NA,NA,NA,NA,NA,NA,NA,NA,NA
c5021,Shallow Question,html.Page,3_0_2_0_4_1_0,NA,NA,form submission,9940.9000005722,448763.80000019,448758.4,448775,458715.90000057,458716.10000038,2024-04-06T09:30:29Z,458725.1,NULL,Wohlstand,mafanikio,s,chimbuko,kumbuko,mapwaji,kumbuko,NA,NA,2,NA,NA,NA,NA,NA,NA,NA,NA,NA,NA,NA,NA,NA,NA,NA,NA,NA,NA,NA
c5021,"""Richtig""-Screen",canvas.Screen,3_0_2_0_4_1_1,NA,NA,skipped,NA,458717.70000076,NA,NA,458715.90000057,458717.80000019,2024-04-06T09:30:29Z,458725.1,NULL,Wohlstand,mafanikio,s,chimbuko,kumbuko,mapwaji,NA,sdf,NA,2,NA,NA,NA,NA,NA,NA,NA,NA,NA,NA,NA,NA,NA,NA,NA,NA,NA,NA,NA
c5021,"""Falsch""-Screen",canvas.Screen,3_0_2_0_4_1_2,NA,NA,timeout,5000,458718.40000057,458708.46,458725.1,463708.4,463709,2024-04-06T09:30:34Z,463725.1,NULL,Wohlstand,mafanikio,s,chimbuko,kumbuko,mapwaji,NA,sdf,0,2,NA,NA,NA,NA,NA,NA,NA,NA,NA,NA,NA,NA,NA,NA,NA,NA,NA,NA,NA
c5021,shallow,flow.Sequence,3_0_2_0_4_1,NA,NA,completion,14933.4,448763.70000076,448758.4,448775,463708.4,463709.40000057,2024-04-06T09:30:34Z,463725.1,NULL,Wohlstand,mafanikio,s,chimbuko,kumbuko,mapwaji,NA,sdf,NA,2,NA,NA,NA,NA,NA,NA,NA,NA,NA,NA,NA,NA,NA,NA,NA,NA,NA,NA,NA
c5021,task,flow.Sequence,3_0_2_0_4,NA,NA,completion,14933.4,448763.60000038,448758.4,448775,463708.4,463709.5,2024-04-06T09:30:34Z,463725.1,NULL,Wohlstand,mafanikio,s,chimbuko,kumbuko,mapwaji,NA,sdf,NA,2,NA,NA,NA,NA,NA,NA,NA,NA,NA,NA,NA,NA,NA,NA,NA,NA,NA,NA,NA
c5021,Deep Question,html.Page,3_0_2_0_5_0_0,NA,NA,form submission,5630.9,463709.60000038,463708.4,463725.1,469356,469356.20000076,2024-04-06T09:30:39Z,469358.55,NULL,Respekt,heshima,d,NA,NA,NA,mafuki,NA,NA,2,NA,NA,NA,NA,NA,NA,NA,NA,NA,NA,NA,NA,NA,NA,NA,NA,NA,NA,NA
c5021,"""Richtig""-Screen",canvas.Screen,3_0_2_0_5_0_1,NA,NA,skipped,NA,469357.90000057,NA,NA,469356,469358.10000038,2024-04-06T09:30:39Z,469358.55,NULL,Respekt,heshima,d,NA,NA,NA,NA,sdf,NA,2,NA,NA,NA,NA,NA,NA,NA,NA,NA,NA,NA,NA,NA,NA,NA,NA,NA,NA,NA
c5021,"""Falsch""-Screen",canvas.Screen,3_0_2_0_5_0_2,NA,NA,timeout,4999.85,469358.60000038,469358.55,469358.55,474341.7,474342.40000057,2024-04-06T09:30:44Z,474358.4,NULL,Respekt,heshima,d,NA,NA,NA,NA,sdf,0,2,NA,NA,NA,NA,NA,NA,NA,NA,NA,NA,NA,NA,NA,NA,NA,NA,NA,NA,NA
c5021,deep,flow.Sequence,3_0_2_0_5_0,NA,NA,completion,10616.6,463709.60000038,463708.4,463725.1,474341.7,474342.70000076,2024-04-06T09:30:44Z,474358.4,NULL,Respekt,heshima,d,NA,NA,NA,NA,sdf,NA,2,NA,NA,NA,NA,NA,NA,NA,NA,NA,NA,NA,NA,NA,NA,NA,NA,NA,NA,NA
c5021,shallow,flow.Sequence,3_0_2_0_5_1,NA,NA,skipped,NA,474342.80000019,NA,NA,474341.7,474342.90000057,2024-04-06T09:30:44Z,474358.4,NULL,Respekt,heshima,d,NA,NA,NA,NA,sdf,NA,2,NA,NA,NA,NA,NA,NA,NA,NA,NA,NA,NA,NA,NA,NA,NA,NA,NA,NA,NA
c5021,task,flow.Sequence,3_0_2_0_5,NA,NA,completion,10616.6,463709.5,463708.4,463725.1,474341.7,474343.10000038,2024-04-06T09:30:44Z,474358.4,NULL,Respekt,heshima,d,NA,NA,NA,NA,sdf,NA,2,NA,NA,NA,NA,NA,NA,NA,NA,NA,NA,NA,NA,NA,NA,NA,NA,NA,NA,NA
c5021,Deep Question,html.Page,3_0_2_0_6_0_0,NA,NA,form submission,8445.7000003814,474343.20000076,474341.7,474358.4,482804.10000038,482804.30000019,2024-04-06T09:30:53Z,482808.3,NULL,Vergnügen,kichekesho,d,NA,NA,NA,mekumbo,NA,NA,2,NA,NA,NA,NA,NA,NA,NA,NA,NA,NA,NA,NA,NA,NA,NA,NA,NA,NA,NA
c5021,"""Richtig""-Screen",canvas.Screen,3_0_2_0_6_0_1,NA,NA,skipped,NA,482806,NA,NA,482804.10000038,482806.20000076,2024-04-06T09:30:53Z,482808.3,NULL,Vergnügen,kichekesho,d,NA,NA,NA,NA,sdf,NA,2,NA,NA,NA,NA,NA,NA,NA,NA,NA,NA,NA,NA,NA,NA,NA,NA,NA,NA,NA
c5021,"""Falsch""-Screen",canvas.Screen,3_0_2_0_6_0_2,NA,NA,timeout,5000.1,482806.70000076,482791.856,482808.3,487791.8,487792.5,2024-04-06T09:30:58Z,487808.4,NULL,Vergnügen,kichekesho,d,NA,NA,NA,NA,sdf,0,2,NA,NA,NA,NA,NA,NA,NA,NA,NA,NA,NA,NA,NA,NA,NA,NA,NA,NA,NA
c5021,deep,flow.Sequence,3_0_2_0_6_0,NA,NA,completion,13433.4,474343.20000076,474341.7,474358.4,487791.8,487792.70000076,2024-04-06T09:30:58Z,487808.4,NULL,Vergnügen,kichekesho,d,NA,NA,NA,NA,sdf,NA,2,NA,NA,NA,NA,NA,NA,NA,NA,NA,NA,NA,NA,NA,NA,NA,NA,NA,NA,NA
c5021,shallow,flow.Sequence,3_0_2_0_6_1,NA,NA,skipped,NA,487792.80000019,NA,NA,487791.8,487792.90000057,2024-04-06T09:30:58Z,487808.4,NULL,Vergnügen,kichekesho,d,NA,NA,NA,NA,sdf,NA,2,NA,NA,NA,NA,NA,NA,NA,NA,NA,NA,NA,NA,NA,NA,NA,NA,NA,NA,NA
c5021,task,flow.Sequence,3_0_2_0_6,NA,NA,completion,13433.4,474343.10000038,474341.7,474358.4,487791.8,487793,2024-04-06T09:30:58Z,487808.4,NULL,Vergnügen,kichekesho,d,NA,NA,NA,NA,sdf,NA,2,NA,NA,NA,NA,NA,NA,NA,NA,NA,NA,NA,NA,NA,NA,NA,NA,NA,NA,NA
c5021,deep,flow.Sequence,3_0_2_0_7_0,NA,NA,skipped,NA,487793.10000038,NA,NA,487791.8,487793.20000076,2024-04-06T09:30:58Z,487808.4,NULL,Betrüger,mdanganyifu,s,mwanamuziki,wastani,mahakama,NA,sdf,NA,2,NA,NA,NA,NA,NA,NA,NA,NA,NA,NA,NA,NA,NA,NA,NA,NA,NA,NA,NA
c5021,Shallow Question,html.Page,3_0_2_0_7_1_0,NA,NA,form submission,7602.6,487793.30000019,487791.8,487808.4,495411,495411.30000019,2024-04-06T09:31:05Z,495424.9,NULL,Betrüger,mdanganyifu,s,mwanamuziki,wastani,mahakama,mdanganyifu,NA,NA,2,NA,NA,NA,NA,NA,NA,NA,NA,NA,NA,NA,NA,NA,NA,NA,NA,NA,NA,NA
c5021,"""Richtig""-Screen",canvas.Screen,3_0_2_0_7_1_1,NA,NA,timeout,5000.1,495412.90000057,495408.442,495424.9,500408.4,500409,2024-04-06T09:31:10Z,500425,NULL,Betrüger,mdanganyifu,s,mwanamuziki,wastani,mahakama,NA,sdf,1,2,NA,NA,NA,NA,NA,NA,NA,NA,NA,NA,NA,NA,NA,NA,NA,NA,NA,NA,NA
c5021,"""Falsch""-Screen",canvas.Screen,3_0_2_0_7_1_2,NA,NA,skipped,NA,500412.90000057,NA,NA,500408.4,500413.20000076,2024-04-06T09:31:10Z,500425,NULL,Betrüger,mdanganyifu,s,mwanamuziki,wastani,mahakama,NA,sdf,NA,2,NA,NA,NA,NA,NA,NA,NA,NA,NA,NA,NA,NA,NA,NA,NA,NA,NA,NA,NA
c5021,shallow,flow.Sequence,3_0_2_0_7_1,NA,NA,completion,12600,487793.30000019,487791.8,487808.4,500408.4,500413.30000019,2024-04-06T09:31:10Z,500425,NULL,Betrüger,mdanganyifu,s,mwanamuziki,wastani,mahakama,NA,sdf,NA,2,NA,NA,NA,NA,NA,NA,NA,NA,NA,NA,NA,NA,NA,NA,NA,NA,NA,NA,NA
c5021,task,flow.Sequence,3_0_2_0_7,NA,NA,completion,12600,487793,487791.8,487808.4,500408.4,500413.5,2024-04-06T09:31:10Z,500425,NULL,Betrüger,mdanganyifu,s,mwanamuziki,wastani,mahakama,NA,sdf,NA,2,NA,NA,NA,NA,NA,NA,NA,NA,NA,NA,NA,NA,NA,NA,NA,NA,NA,NA,NA
c5021,block,flow.Loop,3_0_2_0,NA,NA,completion,102050.1,398352.60000038,398341.84,398358.3,500408.4,500413.70000076,2024-04-06T09:31:10Z,500425,NULL,NA,NA,NA,NA,NA,NA,NA,sdf,NA,2,NA,NA,NA,NA,NA,NA,NA,NA,NA,NA,NA,NA,NA,NA,NA,NA,NA,NA,NA
c5021,weiter,canvas.Screen,3_0_2_1,sdf,keypress(Space),response,1361,500413.70000076,500408.4,500425,501786,501786.70000076,2024-04-06T09:31:12Z,501808.438,NULL,NA,NA,NA,NA,NA,NA,NA,sdf,NA,2,NA,NA,NA,NA,NA,NA,NA,NA,NA,NA,NA,NA,NA,NA,NA,NA,NA,NA,NA
c5021,check continue,flow.Sequence,3_0_2,NA,NA,completion,103427.7,398352.60000038,398341.84,398358.3,501786,501786.90000057,2024-04-06T09:31:12Z,501808.438,NULL,NA,NA,NA,NA,NA,NA,NA,sdf,NA,2,NA,NA,NA,NA,NA,NA,NA,NA,NA,NA,NA,NA,NA,NA,NA,NA,NA,NA,NA
c5021,Deep Question,html.Page,3_0_3_0_0_0_0,NA,NA,form submission,20489.062,501822.70000076,501808.438,501808.438,522297.5,522297.70000076,2024-04-06T09:31:32Z,522308.2,NULL,Notfall,dharura,d,NA,NA,NA,kufishi,NA,NA,3,NA,NA,NA,NA,NA,NA,NA,NA,NA,NA,NA,NA,NA,NA,NA,NA,NA,NA,NA
c5021,"""Richtig""-Screen",canvas.Screen,3_0_3_0_0_0_1,NA,NA,skipped,NA,522299.40000057,NA,NA,522297.5,522299.60000038,2024-04-06T09:31:32Z,522308.2,NULL,Notfall,dharura,d,NA,NA,NA,NA,qt,NA,3,NA,NA,NA,NA,NA,NA,NA,NA,NA,NA,NA,NA,NA,NA,NA,NA,NA,NA,NA
c5021,"""Falsch""-Screen",canvas.Screen,3_0_3_0_0_0_2,NA,NA,timeout,5000.2,522300.10000038,522291.8,522308.2,527291.7,527292.5,2024-04-06T09:31:37Z,527308.4,NULL,Notfall,dharura,d,NA,NA,NA,NA,qt,0,3,NA,NA,NA,NA,NA,NA,NA,NA,NA,NA,NA,NA,NA,NA,NA,NA,NA,NA,NA
c5021,deep,flow.Sequence,3_0_3_0_0_0,NA,NA,completion,25483.262,501822.70000076,501808.438,501808.438,527291.7,527292.80000019,2024-04-06T09:31:37Z,527308.4,NULL,Notfall,dharura,d,NA,NA,NA,NA,qt,NA,3,NA,NA,NA,NA,NA,NA,NA,NA,NA,NA,NA,NA,NA,NA,NA,NA,NA,NA,NA
c5021,shallow,flow.Sequence,3_0_3_0_0_1,NA,NA,skipped,NA,527292.90000057,NA,NA,527291.7,527293,2024-04-06T09:31:37Z,527308.4,NULL,Notfall,dharura,d,NA,NA,NA,NA,qt,NA,3,NA,NA,NA,NA,NA,NA,NA,NA,NA,NA,NA,NA,NA,NA,NA,NA,NA,NA,NA
c5021,task,flow.Sequence,3_0_3_0_0,NA,NA,completion,25483.262,501822.70000076,501808.438,501808.438,527291.7,527293.10000038,2024-04-06T09:31:37Z,527308.4,NULL,Notfall,dharura,d,NA,NA,NA,NA,qt,NA,3,NA,NA,NA,NA,NA,NA,NA,NA,NA,NA,NA,NA,NA,NA,NA,NA,NA,NA,NA
c5021,deep,flow.Sequence,3_0_3_0_1_0,NA,NA,skipped,NA,527293.20000076,NA,NA,527291.7,527293.30000019,2024-04-06T09:31:37Z,527308.4,NULL,Wohlstand,mafanikio,s,chimbuko,kumbuko,mapwaji,NA,qt,NA,3,NA,NA,NA,NA,NA,NA,NA,NA,NA,NA,NA,NA,NA,NA,NA,NA,NA,NA,NA
c5021,Shallow Question,html.Page,3_0_3_0_1_1_0,NA,NA,form submission,6141.5000005722,527293.30000019,527291.7,527308.4,533449.90000057,533450.20000076,2024-04-06T09:31:43Z,533458.2,NULL,Wohlstand,mafanikio,s,chimbuko,kumbuko,mapwaji,mapwaji,NA,NA,3,NA,NA,NA,NA,NA,NA,NA,NA,NA,NA,NA,NA,NA,NA,NA,NA,NA,NA,NA
c5021,"""Richtig""-Screen",canvas.Screen,3_0_3_0_1_1_1,NA,NA,skipped,NA,533451.80000019,NA,NA,533449.90000057,533452,2024-04-06T09:31:43Z,533458.2,NULL,Wohlstand,mafanikio,s,chimbuko,kumbuko,mapwaji,NA,qt,NA,3,NA,NA,NA,NA,NA,NA,NA,NA,NA,NA,NA,NA,NA,NA,NA,NA,NA,NA,NA
c5021,"""Falsch""-Screen",canvas.Screen,3_0_3_0_1_1_2,NA,NA,timeout,5000.2000000001,533452.5,533441.782,533458.2,538441.7,538442.40000057,2024-04-06T09:31:48Z,538458.4,NULL,Wohlstand,mafanikio,s,chimbuko,kumbuko,mapwaji,NA,qt,0,3,NA,NA,NA,NA,NA,NA,NA,NA,NA,NA,NA,NA,NA,NA,NA,NA,NA,NA,NA
c5021,shallow,flow.Sequence,3_0_3_0_1_1,NA,NA,completion,11133.3,527293.30000019,527291.7,527308.4,538441.7,538442.70000076,2024-04-06T09:31:48Z,538458.4,NULL,Wohlstand,mafanikio,s,chimbuko,kumbuko,mapwaji,NA,qt,NA,3,NA,NA,NA,NA,NA,NA,NA,NA,NA,NA,NA,NA,NA,NA,NA,NA,NA,NA,NA
c5021,task,flow.Sequence,3_0_3_0_1,NA,NA,completion,11133.3,527293.20000076,527291.7,527308.4,538441.7,538442.80000019,2024-04-06T09:31:48Z,538458.4,NULL,Wohlstand,mafanikio,s,chimbuko,kumbuko,mapwaji,NA,qt,NA,3,NA,NA,NA,NA,NA,NA,NA,NA,NA,NA,NA,NA,NA,NA,NA,NA,NA,NA,NA
c5021,Deep Question,html.Page,3_0_3_0_2_0_0,NA,NA,form submission,6082.8000007629,538442.90000057,538441.7,538458.4,544541.20000076,544541.40000057,2024-04-06T09:31:55Z,544558.8,NULL,Vergnügen,kichekesho,d,NA,NA,NA,mafangiki,NA,NA,3,NA,NA,NA,NA,NA,NA,NA,NA,NA,NA,NA,NA,NA,NA,NA,NA,NA,NA,NA
c5021,"""Richtig""-Screen",canvas.Screen,3_0_3_0_2_0_1,NA,NA,skipped,NA,544543.10000038,NA,NA,544541.20000076,544543.20000076,2024-04-06T09:31:55Z,544558.8,NULL,Vergnügen,kichekesho,d,NA,NA,NA,NA,qt,NA,3,NA,NA,NA,NA,NA,NA,NA,NA,NA,NA,NA,NA,NA,NA,NA,NA,NA,NA,NA
c5021,"""Falsch""-Screen",canvas.Screen,3_0_3_0_2_0_2,NA,NA,timeout,4999.5,544543.60000038,544541.824,544558.8,549541.6,549542.30000019,2024-04-06T09:32:00Z,549558.3,NULL,Vergnügen,kichekesho,d,NA,NA,NA,NA,qt,0,3,NA,NA,NA,NA,NA,NA,NA,NA,NA,NA,NA,NA,NA,NA,NA,NA,NA,NA,NA
c5021,deep,flow.Sequence,3_0_3_0_2_0,NA,NA,completion,11083.2,538442.90000057,538441.7,538458.4,549541.6,549542.60000038,2024-04-06T09:32:00Z,549558.3,NULL,Vergnügen,kichekesho,d,NA,NA,NA,NA,qt,NA,3,NA,NA,NA,NA,NA,NA,NA,NA,NA,NA,NA,NA,NA,NA,NA,NA,NA,NA,NA
c5021,shallow,flow.Sequence,3_0_3_0_2_1,NA,NA,skipped,NA,549542.80000019,NA,NA,549541.6,549542.80000019,2024-04-06T09:32:00Z,549558.3,NULL,Vergnügen,kichekesho,d,NA,NA,NA,NA,qt,NA,3,NA,NA,NA,NA,NA,NA,NA,NA,NA,NA,NA,NA,NA,NA,NA,NA,NA,NA,NA
c5021,task,flow.Sequence,3_0_3_0_2,NA,NA,completion,11083.2,538442.90000057,538441.7,538458.4,549541.6,549542.90000057,2024-04-06T09:32:00Z,549558.3,NULL,Vergnügen,kichekesho,d,NA,NA,NA,NA,qt,NA,3,NA,NA,NA,NA,NA,NA,NA,NA,NA,NA,NA,NA,NA,NA,NA,NA,NA,NA,NA
c5021,deep,flow.Sequence,3_0_3_0_3_0,NA,NA,skipped,NA,549543,NA,NA,549541.6,549543.10000038,2024-04-06T09:32:00Z,549558.3,NULL,Stimmung,kinyongo,s,kilekile,kisambo,madhehebu,NA,qt,NA,3,NA,NA,NA,NA,NA,NA,NA,NA,NA,NA,NA,NA,NA,NA,NA,NA,NA,NA,NA
c5021,Shallow Question,html.Page,3_0_3_0_3_1_0,NA,NA,form submission,10033.800000381,549543.20000076,549541.6,549558.3,559592.10000038,559592.30000019,2024-04-06T09:32:10Z,559608.6,NULL,Stimmung,kinyongo,s,kilekile,kisambo,madhehebu,kisambo,NA,NA,3,NA,NA,NA,NA,NA,NA,NA,NA,NA,NA,NA,NA,NA,NA,NA,NA,NA,NA,NA
c5021,"""Richtig""-Screen",canvas.Screen,3_0_3_0_3_1_1,NA,NA,skipped,NA,559593.90000057,NA,NA,559592.10000038,559594,2024-04-06T09:32:10Z,559608.6,NULL,Stimmung,kinyongo,s,kilekile,kisambo,madhehebu,NA,qt,NA,3,NA,NA,NA,NA,NA,NA,NA,NA,NA,NA,NA,NA,NA,NA,NA,NA,NA,NA,NA
c5021,"""Falsch""-Screen",canvas.Screen,3_0_3_0_3_1_2,NA,NA,timeout,4999.8,559594.5,559591.726,559608.6,564591.6,564592.5,2024-04-06T09:32:15Z,564608.4,NULL,Stimmung,kinyongo,s,kilekile,kisambo,madhehebu,NA,qt,0,3,NA,NA,NA,NA,NA,NA,NA,NA,NA,NA,NA,NA,NA,NA,NA,NA,NA,NA,NA
c5021,shallow,flow.Sequence,3_0_3_0_3_1,NA,NA,completion,15033.3,549543.20000076,549541.6,549558.3,564591.6,564592.80000019,2024-04-06T09:32:15Z,564608.4,NULL,Stimmung,kinyongo,s,kilekile,kisambo,madhehebu,NA,qt,NA,3,NA,NA,NA,NA,NA,NA,NA,NA,NA,NA,NA,NA,NA,NA,NA,NA,NA,NA,NA
c5021,task,flow.Sequence,3_0_3_0_3,NA,NA,completion,15033.3,549543,549541.6,549558.3,564591.6,564592.90000057,2024-04-06T09:32:15Z,564608.4,NULL,Stimmung,kinyongo,s,kilekile,kisambo,madhehebu,NA,qt,NA,3,NA,NA,NA,NA,NA,NA,NA,NA,NA,NA,NA,NA,NA,NA,NA,NA,NA,NA,NA
c5021,deep,flow.Sequence,3_0_3_0_4_0,NA,NA,skipped,NA,564592.90000057,NA,NA,564591.6,564593,2024-04-06T09:32:15Z,564608.4,NULL,Ergänzung,kijalizo,s,ulaghai,mustarehe,matangazo,NA,qt,NA,3,NA,NA,NA,NA,NA,NA,NA,NA,NA,NA,NA,NA,NA,NA,NA,NA,NA,NA,NA
c5021,Shallow Question,html.Page,3_0_3_0_4_1_0,NA,NA,form submission,8891.4000001907,564593.10000038,564591.6,564608.4,573499.80000019,573500,2024-04-06T09:32:23Z,573508.1,NULL,Ergänzung,kijalizo,s,ulaghai,mustarehe,matangazo,matangazo,NA,NA,3,NA,NA,NA,NA,NA,NA,NA,NA,NA,NA,NA,NA,NA,NA,NA,NA,NA,NA,NA
c5021,"""Richtig""-Screen",canvas.Screen,3_0_3_0_4_1_1,NA,NA,skipped,NA,573501.60000038,NA,NA,573499.80000019,573501.70000076,2024-04-06T09:32:23Z,573508.1,NULL,Ergänzung,kijalizo,s,ulaghai,mustarehe,matangazo,NA,qt,NA,3,NA,NA,NA,NA,NA,NA,NA,NA,NA,NA,NA,NA,NA,NA,NA,NA,NA,NA,NA
c5021,"""Falsch""-Screen",canvas.Screen,3_0_3_0_4_1_2,NA,NA,timeout,5000.3,573502.20000076,573491.722,573508.1,578491.6,578492.40000057,2024-04-06T09:32:28Z,578508.4,NULL,Ergänzung,kijalizo,s,ulaghai,mustarehe,matangazo,NA,qt,0,3,NA,NA,NA,NA,NA,NA,NA,NA,NA,NA,NA,NA,NA,NA,NA,NA,NA,NA,NA
c5021,shallow,flow.Sequence,3_0_3_0_4_1,NA,NA,completion,13883.2,564593.10000038,564591.6,564608.4,578491.6,578492.70000076,2024-04-06T09:32:28Z,578508.4,NULL,Ergänzung,kijalizo,s,ulaghai,mustarehe,matangazo,NA,qt,NA,3,NA,NA,NA,NA,NA,NA,NA,NA,NA,NA,NA,NA,NA,NA,NA,NA,NA,NA,NA
c5021,task,flow.Sequence,3_0_3_0_4,NA,NA,completion,13883.2,564592.90000057,564591.6,564608.4,578491.6,578493,2024-04-06T09:32:28Z,578508.4,NULL,Ergänzung,kijalizo,s,ulaghai,mustarehe,matangazo,NA,qt,NA,3,NA,NA,NA,NA,NA,NA,NA,NA,NA,NA,NA,NA,NA,NA,NA,NA,NA,NA,NA
c5021,Deep Question,html.Page,3_0_3_0_5_0_0,NA,NA,form submission,13549.700000381,578493.10000038,578491.6,578508.4,592058.10000038,592058.30000019,2024-04-06T09:32:42Z,592075.2,NULL,Orientierung,urekebisho,d,NA,NA,NA,tubiki,NA,NA,3,NA,NA,NA,NA,NA,NA,NA,NA,NA,NA,NA,NA,NA,NA,NA,NA,NA,NA,NA
c5021,"""Richtig""-Screen",canvas.Screen,3_0_3_0_5_0_1,NA,NA,skipped,NA,592060,NA,NA,592058.10000038,592060.10000038,2024-04-06T09:32:42Z,592075.2,NULL,Orientierung,urekebisho,d,NA,NA,NA,NA,qt,NA,3,NA,NA,NA,NA,NA,NA,NA,NA,NA,NA,NA,NA,NA,NA,NA,NA,NA,NA,NA
c5021,"""Falsch""-Screen",canvas.Screen,3_0_3_0_5_0_2,NA,NA,timeout,4999.8,592060.60000038,592058.428,592075.2,597058.3,597059,2024-04-06T09:32:47Z,597075,NULL,Orientierung,urekebisho,d,NA,NA,NA,NA,qt,0,3,NA,NA,NA,NA,NA,NA,NA,NA,NA,NA,NA,NA,NA,NA,NA,NA,NA,NA,NA
c5021,deep,flow.Sequence,3_0_3_0_5_0,NA,NA,completion,18549.9,578493.10000038,578491.6,578508.4,597058.3,597059.30000019,2024-04-06T09:32:47Z,597075,NULL,Orientierung,urekebisho,d,NA,NA,NA,NA,qt,NA,3,NA,NA,NA,NA,NA,NA,NA,NA,NA,NA,NA,NA,NA,NA,NA,NA,NA,NA,NA
c5021,shallow,flow.Sequence,3_0_3_0_5_1,NA,NA,skipped,NA,597059.5,NA,NA,597058.3,597059.5,2024-04-06T09:32:47Z,597075,NULL,Orientierung,urekebisho,d,NA,NA,NA,NA,qt,NA,3,NA,NA,NA,NA,NA,NA,NA,NA,NA,NA,NA,NA,NA,NA,NA,NA,NA,NA,NA
c5021,task,flow.Sequence,3_0_3_0_5,NA,NA,completion,18549.9,578493,578491.6,578508.4,597058.3,597059.60000038,2024-04-06T09:32:47Z,597075,NULL,Orientierung,urekebisho,d,NA,NA,NA,NA,qt,NA,3,NA,NA,NA,NA,NA,NA,NA,NA,NA,NA,NA,NA,NA,NA,NA,NA,NA,NA,NA
c5021,Deep Question,html.Page,3_0_3_0_6_0_0,NA,NA,form submission,6977,597059.80000019,597058.3,597075,604052,604052.10000038,2024-04-06T09:32:54Z,604058.1,NULL,Respekt,heshima,d,NA,NA,NA,bimbuzo,NA,NA,3,NA,NA,NA,NA,NA,NA,NA,NA,NA,NA,NA,NA,NA,NA,NA,NA,NA,NA,NA
c5021,"""Richtig""-Screen",canvas.Screen,3_0_3_0_6_0_1,NA,NA,skipped,NA,604053.90000057,NA,NA,604052,604054,2024-04-06T09:32:54Z,604058.1,NULL,Respekt,heshima,d,NA,NA,NA,NA,qt,NA,3,NA,NA,NA,NA,NA,NA,NA,NA,NA,NA,NA,NA,NA,NA,NA,NA,NA,NA,NA
c5021,"""Falsch""-Screen",canvas.Screen,3_0_3_0_6_0_2,NA,NA,timeout,5000.2000000001,604054.5,604041.66,604058.1,609041.6,609042.5,2024-04-06T09:32:59Z,609058.3,NULL,Respekt,heshima,d,NA,NA,NA,NA,qt,0,3,NA,NA,NA,NA,NA,NA,NA,NA,NA,NA,NA,NA,NA,NA,NA,NA,NA,NA,NA
c5021,deep,flow.Sequence,3_0_3_0_6_0,NA,NA,completion,11966.6,597059.80000019,597058.3,597075,609041.6,609042.70000076,2024-04-06T09:32:59Z,609058.3,NULL,Respekt,heshima,d,NA,NA,NA,NA,qt,NA,3,NA,NA,NA,NA,NA,NA,NA,NA,NA,NA,NA,NA,NA,NA,NA,NA,NA,NA,NA
c5021,shallow,flow.Sequence,3_0_3_0_6_1,NA,NA,skipped,NA,609042.80000019,NA,NA,609041.6,609042.90000057,2024-04-06T09:32:59Z,609058.3,NULL,Respekt,heshima,d,NA,NA,NA,NA,qt,NA,3,NA,NA,NA,NA,NA,NA,NA,NA,NA,NA,NA,NA,NA,NA,NA,NA,NA,NA,NA
c5021,task,flow.Sequence,3_0_3_0_6,NA,NA,completion,11966.6,597059.70000076,597058.3,597075,609041.6,609043,2024-04-06T09:32:59Z,609058.3,NULL,Respekt,heshima,d,NA,NA,NA,NA,qt,NA,3,NA,NA,NA,NA,NA,NA,NA,NA,NA,NA,NA,NA,NA,NA,NA,NA,NA,NA,NA
c5021,deep,flow.Sequence,3_0_3_0_7_0,NA,NA,skipped,NA,609043.10000038,NA,NA,609041.6,609043.10000038,2024-04-06T09:32:59Z,609058.3,NULL,Betrüger,mdanganyifu,s,mwanamuziki,wastani,mahakama,NA,qt,NA,3,NA,NA,NA,NA,NA,NA,NA,NA,NA,NA,NA,NA,NA,NA,NA,NA,NA,NA,NA
c5021,Shallow Question,html.Page,3_0_3_0_7_1_0,NA,NA,form submission,8480.5000001907,609043.20000076,609041.6,609058.3,617538.80000019,617539,2024-04-06T09:33:08Z,617541.702,NULL,Betrüger,mdanganyifu,s,mwanamuziki,wastani,mahakama,mdanganyifu,NA,NA,3,NA,NA,NA,NA,NA,NA,NA,NA,NA,NA,NA,NA,NA,NA,NA,NA,NA,NA,NA
c5021,"""Richtig""-Screen",canvas.Screen,3_0_3_0_7_1_1,NA,NA,timeout,4999.798,617540.70000076,617541.702,617541.702,622525,622525.60000038,2024-04-06T09:33:12Z,622541.5,NULL,Betrüger,mdanganyifu,s,mwanamuziki,wastani,mahakama,NA,qt,1,3,NA,NA,NA,NA,NA,NA,NA,NA,NA,NA,NA,NA,NA,NA,NA,NA,NA,NA,NA
c5021,"""Falsch""-Screen",canvas.Screen,3_0_3_0_7_1_2,NA,NA,skipped,NA,622529.5,NA,NA,622525,622529.80000019,2024-04-06T09:33:12Z,622541.5,NULL,Betrüger,mdanganyifu,s,mwanamuziki,wastani,mahakama,NA,qt,NA,3,NA,NA,NA,NA,NA,NA,NA,NA,NA,NA,NA,NA,NA,NA,NA,NA,NA,NA,NA
c5021,shallow,flow.Sequence,3_0_3_0_7_1,NA,NA,completion,13466.7,609043.20000076,609041.6,609058.3,622525,622530,2024-04-06T09:33:12Z,622541.5,NULL,Betrüger,mdanganyifu,s,mwanamuziki,wastani,mahakama,NA,qt,NA,3,NA,NA,NA,NA,NA,NA,NA,NA,NA,NA,NA,NA,NA,NA,NA,NA,NA,NA,NA
c5021,task,flow.Sequence,3_0_3_0_7,NA,NA,completion,13466.7,609043.10000038,609041.6,609058.3,622525,622530.10000038,2024-04-06T09:33:12Z,622541.5,NULL,Betrüger,mdanganyifu,s,mwanamuziki,wastani,mahakama,NA,qt,NA,3,NA,NA,NA,NA,NA,NA,NA,NA,NA,NA,NA,NA,NA,NA,NA,NA,NA,NA,NA
c5021,block,flow.Loop,3_0_3_0,NA,NA,completion,120716.562,501822.70000076,501808.438,501808.438,622525,622530.30000019,2024-04-06T09:33:12Z,622541.5,NULL,NA,NA,NA,NA,NA,NA,NA,qt,NA,3,NA,NA,NA,NA,NA,NA,NA,NA,NA,NA,NA,NA,NA,NA,NA,NA,NA,NA,NA
c5021,weiter,canvas.Screen,3_0_3_1,sdf,keypress(Space),response,1831,622530.30000019,622525,622541.5,624372.5,624373.30000019,2024-04-06T09:33:14Z,624408.342,NULL,NA,NA,NA,NA,NA,NA,NA,qt,NA,3,NA,NA,NA,NA,NA,NA,NA,NA,NA,NA,NA,NA,NA,NA,NA,NA,NA,NA,NA
c5021,check continue,flow.Sequence,3_0_3,NA,NA,completion,122564.062,501822.70000076,501808.438,501808.438,624372.5,624373.60000038,2024-04-06T09:33:14Z,624408.342,NULL,NA,NA,NA,NA,NA,NA,NA,qt,NA,3,NA,NA,NA,NA,NA,NA,NA,NA,NA,NA,NA,NA,NA,NA,NA,NA,NA,NA,NA
c5021,Deep Question,html.Page,3_0_4_0_0_0_0,NA,NA,form submission,9061.7580003815,624413.60000038,624408.342,624408.342,633470.10000038,633470.30000019,2024-04-06T09:33:23Z,633491.7,NULL,Respekt,heshima,d,NA,NA,NA,kubushu,NA,NA,4,NA,NA,NA,NA,NA,NA,NA,NA,NA,NA,NA,NA,NA,NA,NA,NA,NA,NA,NA
c5021,"""Richtig""-Screen",canvas.Screen,3_0_4_0_0_0_1,NA,NA,skipped,NA,633472,NA,NA,633470.10000038,633472.10000038,2024-04-06T09:33:23Z,633491.7,NULL,Respekt,heshima,d,NA,NA,NA,NA,sd,NA,4,NA,NA,NA,NA,NA,NA,NA,NA,NA,NA,NA,NA,NA,NA,NA,NA,NA,NA,NA
c5021,"""Falsch""-Screen",canvas.Screen,3_0_4_0_0_0_2,NA,NA,timeout,4999.9,633472.60000038,633474.978,633491.7,638475,638475.80000019,2024-04-06T09:33:28Z,638491.6,NULL,Respekt,heshima,d,NA,NA,NA,NA,sd,0,4,NA,NA,NA,NA,NA,NA,NA,NA,NA,NA,NA,NA,NA,NA,NA,NA,NA,NA,NA
c5021,deep,flow.Sequence,3_0_4_0_0_0,NA,NA,completion,14066.658,624413.60000038,624408.342,624408.342,638475,638476.10000038,2024-04-06T09:33:28Z,638491.6,NULL,Respekt,heshima,d,NA,NA,NA,NA,sd,NA,4,NA,NA,NA,NA,NA,NA,NA,NA,NA,NA,NA,NA,NA,NA,NA,NA,NA,NA,NA
c5021,shallow,flow.Sequence,3_0_4_0_0_1,NA,NA,skipped,NA,638476.10000038,NA,NA,638475,638476.30000019,2024-04-06T09:33:28Z,638491.6,NULL,Respekt,heshima,d,NA,NA,NA,NA,sd,NA,4,NA,NA,NA,NA,NA,NA,NA,NA,NA,NA,NA,NA,NA,NA,NA,NA,NA,NA,NA
c5021,task,flow.Sequence,3_0_4_0_0,NA,NA,completion,14066.658,624413.60000038,624408.342,624408.342,638475,638476.40000057,2024-04-06T09:33:28Z,638491.6,NULL,Respekt,heshima,d,NA,NA,NA,NA,sd,NA,4,NA,NA,NA,NA,NA,NA,NA,NA,NA,NA,NA,NA,NA,NA,NA,NA,NA,NA,NA
c5021,Deep Question,html.Page,3_0_4_0_1_0_0,NA,NA,form submission,10239.4,638476.5,638475,638491.6,648731,648731.20000076,2024-04-06T09:33:39Z,648741.5,NULL,Vergnügen,kichekesho,d,NA,NA,NA,kumbushi,NA,NA,4,NA,NA,NA,NA,NA,NA,NA,NA,NA,NA,NA,NA,NA,NA,NA,NA,NA,NA,NA
c5021,"""Richtig""-Screen",canvas.Screen,3_0_4_0_1_0_1,NA,NA,skipped,NA,648732.90000057,NA,NA,648731,648733,2024-04-06T09:33:39Z,648741.5,NULL,Vergnügen,kichekesho,d,NA,NA,NA,NA,sd,NA,4,NA,NA,NA,NA,NA,NA,NA,NA,NA,NA,NA,NA,NA,NA,NA,NA,NA,NA,NA
c5021,"""Falsch""-Screen",canvas.Screen,3_0_4_0_1_0_2,NA,NA,timeout,5000.1,648733.5,648725.002,648741.5,653725,653725.70000076,2024-04-06T09:33:44Z,653741.6,NULL,Vergnügen,kichekesho,d,NA,NA,NA,NA,sd,0,4,NA,NA,NA,NA,NA,NA,NA,NA,NA,NA,NA,NA,NA,NA,NA,NA,NA,NA,NA
c5021,deep,flow.Sequence,3_0_4_0_1_0,NA,NA,completion,15233.4,638476.40000057,638475,638491.6,653725,653726,2024-04-06T09:33:44Z,653741.6,NULL,Vergnügen,kichekesho,d,NA,NA,NA,NA,sd,NA,4,NA,NA,NA,NA,NA,NA,NA,NA,NA,NA,NA,NA,NA,NA,NA,NA,NA,NA,NA
c5021,shallow,flow.Sequence,3_0_4_0_1_1,NA,NA,skipped,NA,653726,NA,NA,653725,653726.10000038,2024-04-06T09:33:44Z,653741.6,NULL,Vergnügen,kichekesho,d,NA,NA,NA,NA,sd,NA,4,NA,NA,NA,NA,NA,NA,NA,NA,NA,NA,NA,NA,NA,NA,NA,NA,NA,NA,NA
c5021,task,flow.Sequence,3_0_4_0_1,NA,NA,completion,15233.4,638476.40000057,638475,638491.6,653725,653726.20000076,2024-04-06T09:33:44Z,653741.6,NULL,Vergnügen,kichekesho,d,NA,NA,NA,NA,sd,NA,4,NA,NA,NA,NA,NA,NA,NA,NA,NA,NA,NA,NA,NA,NA,NA,NA,NA,NA,NA
c5021,deep,flow.Sequence,3_0_4_0_2_0,NA,NA,skipped,NA,653726.40000057,NA,NA,653725,653726.40000057,2024-04-06T09:33:44Z,653741.6,NULL,Stimmung,kinyongo,s,kilekile,kisambo,madhehebu,NA,sd,NA,4,NA,NA,NA,NA,NA,NA,NA,NA,NA,NA,NA,NA,NA,NA,NA,NA,NA,NA,NA
c5021,Shallow Question,html.Page,3_0_4_0_2_1_0,NA,NA,form submission,7427.100000763,653726.5,653725,653741.6,661168.70000076,661168.90000057,2024-04-06T09:33:51Z,661174.8,NULL,Stimmung,kinyongo,s,kilekile,kisambo,madhehebu,kinyongo,NA,NA,4,NA,NA,NA,NA,NA,NA,NA,NA,NA,NA,NA,NA,NA,NA,NA,NA,NA,NA,NA
c5021,"""Richtig""-Screen",canvas.Screen,3_0_4_0_2_1_1,NA,NA,timeout,5000,661170.5,661158.356,661174.8,666158.3,666158.90000057,2024-04-06T09:33:56Z,666174.8,NULL,Stimmung,kinyongo,s,kilekile,kisambo,madhehebu,NA,sd,1,4,NA,NA,NA,NA,NA,NA,NA,NA,NA,NA,NA,NA,NA,NA,NA,NA,NA,NA,NA
c5021,"""Falsch""-Screen",canvas.Screen,3_0_4_0_2_1_2,NA,NA,skipped,NA,666162.80000019,NA,NA,666158.3,666163,2024-04-06T09:33:56Z,666174.8,NULL,Stimmung,kinyongo,s,kilekile,kisambo,madhehebu,NA,sd,NA,4,NA,NA,NA,NA,NA,NA,NA,NA,NA,NA,NA,NA,NA,NA,NA,NA,NA,NA,NA
c5021,shallow,flow.Sequence,3_0_4_0_2_1,NA,NA,completion,12416.7,653726.5,653725,653741.6,666158.3,666163.20000076,2024-04-06T09:33:56Z,666174.8,NULL,Stimmung,kinyongo,s,kilekile,kisambo,madhehebu,NA,sd,NA,4,NA,NA,NA,NA,NA,NA,NA,NA,NA,NA,NA,NA,NA,NA,NA,NA,NA,NA,NA
c5021,task,flow.Sequence,3_0_4_0_2,NA,NA,completion,12416.7,653726.40000057,653725,653741.6,666158.3,666163.40000057,2024-04-06T09:33:56Z,666174.8,NULL,Stimmung,kinyongo,s,kilekile,kisambo,madhehebu,NA,sd,NA,4,NA,NA,NA,NA,NA,NA,NA,NA,NA,NA,NA,NA,NA,NA,NA,NA,NA,NA,NA
c5021,deep,flow.Sequence,3_0_4_0_3_0,NA,NA,skipped,NA,666163.5,NA,NA,666158.3,666163.60000038,2024-04-06T09:33:56Z,666174.8,NULL,Wohlstand,mafanikio,s,chimbuko,kumbuko,mapwaji,NA,sd,NA,4,NA,NA,NA,NA,NA,NA,NA,NA,NA,NA,NA,NA,NA,NA,NA,NA,NA,NA,NA
c5021,Shallow Question,html.Page,3_0_4_0_3_1_0,NA,NA,form submission,9164.7,666163.70000076,666158.3,666174.8,675339.5,675339.70000076,2024-04-06T09:34:05Z,675341.686,NULL,Wohlstand,mafanikio,s,chimbuko,kumbuko,mapwaji,mapwaji,NA,NA,4,NA,NA,NA,NA,NA,NA,NA,NA,NA,NA,NA,NA,NA,NA,NA,NA,NA,NA,NA
c5021,"""Richtig""-Screen",canvas.Screen,3_0_4_0_3_1_1,NA,NA,skipped,NA,675341.30000019,NA,NA,675339.5,675341.40000057,2024-04-06T09:34:05Z,675341.686,NULL,Wohlstand,mafanikio,s,chimbuko,kumbuko,mapwaji,NA,sd,NA,4,NA,NA,NA,NA,NA,NA,NA,NA,NA,NA,NA,NA,NA,NA,NA,NA,NA,NA,NA
c5021,"""Falsch""-Screen",canvas.Screen,3_0_4_0_3_1_2,NA,NA,timeout,4999.814,675341.80000019,675341.686,675341.686,680325,680325.60000038,2024-04-06T09:34:10Z,680341.5,NULL,Wohlstand,mafanikio,s,chimbuko,kumbuko,mapwaji,NA,sd,0,4,NA,NA,NA,NA,NA,NA,NA,NA,NA,NA,NA,NA,NA,NA,NA,NA,NA,NA,NA
c5021,shallow,flow.Sequence,3_0_4_0_3_1,NA,NA,completion,14150.2,666163.60000038,666158.3,666174.8,680325,680326,2024-04-06T09:34:10Z,680341.5,NULL,Wohlstand,mafanikio,s,chimbuko,kumbuko,mapwaji,NA,sd,NA,4,NA,NA,NA,NA,NA,NA,NA,NA,NA,NA,NA,NA,NA,NA,NA,NA,NA,NA,NA
c5021,task,flow.Sequence,3_0_4_0_3,NA,NA,completion,14150.2,666163.40000057,666158.3,666174.8,680325,680326.20000076,2024-04-06T09:34:10Z,680341.5,NULL,Wohlstand,mafanikio,s,chimbuko,kumbuko,mapwaji,NA,sd,NA,4,NA,NA,NA,NA,NA,NA,NA,NA,NA,NA,NA,NA,NA,NA,NA,NA,NA,NA,NA
c5021,Deep Question,html.Page,3_0_4_0_4_0_0,NA,NA,form submission,22130.400000572,680326.30000019,680325,680341.5,702471.90000057,702472.10000038,2024-04-06T09:34:32Z,702491.6,NULL,Notfall,dharura,d,NA,NA,NA,dharura,NA,NA,4,NA,NA,NA,NA,NA,NA,NA,NA,NA,NA,NA,NA,NA,NA,NA,NA,NA,NA,NA
c5021,"""Richtig""-Screen",canvas.Screen,3_0_4_0_4_0_1,NA,NA,timeout,5000,702474,702475.004,702491.6,707474.9,707475.60000038,2024-04-06T09:34:37Z,707491.6,NULL,Notfall,dharura,d,NA,NA,NA,NA,sd,1,4,NA,NA,NA,NA,NA,NA,NA,NA,NA,NA,NA,NA,NA,NA,NA,NA,NA,NA,NA
c5021,"""Falsch""-Screen",canvas.Screen,3_0_4_0_4_0_2,NA,NA,skipped,NA,707479.5,NA,NA,707474.9,707479.80000019,2024-04-06T09:34:37Z,707491.6,NULL,Notfall,dharura,d,NA,NA,NA,NA,sd,NA,4,NA,NA,NA,NA,NA,NA,NA,NA,NA,NA,NA,NA,NA,NA,NA,NA,NA,NA,NA
c5021,deep,flow.Sequence,3_0_4_0_4_0,NA,NA,completion,27133.4,680326.20000076,680325,680341.5,707474.9,707480,2024-04-06T09:34:37Z,707491.6,NULL,Notfall,dharura,d,NA,NA,NA,NA,sd,NA,4,NA,NA,NA,NA,NA,NA,NA,NA,NA,NA,NA,NA,NA,NA,NA,NA,NA,NA,NA
c5021,shallow,flow.Sequence,3_0_4_0_4_1,NA,NA,skipped,NA,707480,NA,NA,707474.9,707480.10000038,2024-04-06T09:34:37Z,707491.6,NULL,Notfall,dharura,d,NA,NA,NA,NA,sd,NA,4,NA,NA,NA,NA,NA,NA,NA,NA,NA,NA,NA,NA,NA,NA,NA,NA,NA,NA,NA
c5021,task,flow.Sequence,3_0_4_0_4,NA,NA,completion,27133.4,680326.20000076,680325,680341.5,707474.9,707480.20000076,2024-04-06T09:34:37Z,707491.6,NULL,Notfall,dharura,d,NA,NA,NA,NA,sd,NA,4,NA,NA,NA,NA,NA,NA,NA,NA,NA,NA,NA,NA,NA,NA,NA,NA,NA,NA,NA
c5021,Deep Question,html.Page,3_0_4_0_5_0_0,NA,NA,form submission,15590.300000572,707480.30000019,707474.9,707491.6,723081.90000057,723082,2024-04-06T09:34:53Z,723091.5,NULL,Orientierung,urekebisho,d,NA,NA,NA,kubishi,NA,NA,4,NA,NA,NA,NA,NA,NA,NA,NA,NA,NA,NA,NA,NA,NA,NA,NA,NA,NA,NA
c5021,"""Richtig""-Screen",canvas.Screen,3_0_4_0_5_0_1,NA,NA,skipped,NA,723083.70000076,NA,NA,723081.90000057,723083.90000057,2024-04-06T09:34:53Z,723091.5,NULL,Orientierung,urekebisho,d,NA,NA,NA,NA,sd,NA,4,NA,NA,NA,NA,NA,NA,NA,NA,NA,NA,NA,NA,NA,NA,NA,NA,NA,NA,NA
c5021,"""Falsch""-Screen",canvas.Screen,3_0_4_0_5_0_2,NA,NA,timeout,5000.1,723084.30000019,723075.026,723091.5,728074.9,728075.60000038,2024-04-06T09:34:58Z,728091.6,NULL,Orientierung,urekebisho,d,NA,NA,NA,NA,sd,0,4,NA,NA,NA,NA,NA,NA,NA,NA,NA,NA,NA,NA,NA,NA,NA,NA,NA,NA,NA
c5021,deep,flow.Sequence,3_0_4_0_5_0,NA,NA,completion,20583.3,707480.30000019,707474.9,707491.6,728074.9,728075.80000019,2024-04-06T09:34:58Z,728091.6,NULL,Orientierung,urekebisho,d,NA,NA,NA,NA,sd,NA,4,NA,NA,NA,NA,NA,NA,NA,NA,NA,NA,NA,NA,NA,NA,NA,NA,NA,NA,NA
c5021,shallow,flow.Sequence,3_0_4_0_5_1,NA,NA,skipped,NA,728075.90000057,NA,NA,728074.9,728076,2024-04-06T09:34:58Z,728091.6,NULL,Orientierung,urekebisho,d,NA,NA,NA,NA,sd,NA,4,NA,NA,NA,NA,NA,NA,NA,NA,NA,NA,NA,NA,NA,NA,NA,NA,NA,NA,NA
c5021,task,flow.Sequence,3_0_4_0_5,NA,NA,completion,20583.3,707480.20000076,707474.9,707491.6,728074.9,728076.10000038,2024-04-06T09:34:58Z,728091.6,NULL,Orientierung,urekebisho,d,NA,NA,NA,NA,sd,NA,4,NA,NA,NA,NA,NA,NA,NA,NA,NA,NA,NA,NA,NA,NA,NA,NA,NA,NA,NA
c5021,deep,flow.Sequence,3_0_4_0_6_0,NA,NA,skipped,NA,728076.20000076,NA,NA,728074.9,728076.30000019,2024-04-06T09:34:58Z,728091.6,NULL,Ergänzung,kijalizo,s,ulaghai,mustarehe,matangazo,NA,sd,NA,4,NA,NA,NA,NA,NA,NA,NA,NA,NA,NA,NA,NA,NA,NA,NA,NA,NA,NA,NA
c5021,Shallow Question,html.Page,3_0_4_0_6_1_0,NA,NA,form submission,14277.100000763,728076.40000057,728074.9,728091.6,742368.70000076,742368.80000019,2024-04-06T09:35:12Z,742374.7,NULL,Ergänzung,kijalizo,s,ulaghai,mustarehe,matangazo,matangazo,NA,NA,4,NA,NA,NA,NA,NA,NA,NA,NA,NA,NA,NA,NA,NA,NA,NA,NA,NA,NA,NA
c5021,"""Richtig""-Screen",canvas.Screen,3_0_4_0_6_1_1,NA,NA,skipped,NA,742370.5,NA,NA,742368.70000076,742370.60000038,2024-04-06T09:35:12Z,742374.7,NULL,Ergänzung,kijalizo,s,ulaghai,mustarehe,matangazo,NA,sd,NA,4,NA,NA,NA,NA,NA,NA,NA,NA,NA,NA,NA,NA,NA,NA,NA,NA,NA,NA,NA
c5021,"""Falsch""-Screen",canvas.Screen,3_0_4_0_6_1_2,NA,NA,timeout,5000.2000000001,742371.20000076,742358.292,742374.7,747358.3,747358.90000057,2024-04-06T09:35:17Z,747374.9,NULL,Ergänzung,kijalizo,s,ulaghai,mustarehe,matangazo,NA,sd,0,4,NA,NA,NA,NA,NA,NA,NA,NA,NA,NA,NA,NA,NA,NA,NA,NA,NA,NA,NA
c5021,shallow,flow.Sequence,3_0_4_0_6_1,NA,NA,completion,19266.7,728076.40000057,728074.9,728091.6,747358.3,747359.20000076,2024-04-06T09:35:17Z,747374.9,NULL,Ergänzung,kijalizo,s,ulaghai,mustarehe,matangazo,NA,sd,NA,4,NA,NA,NA,NA,NA,NA,NA,NA,NA,NA,NA,NA,NA,NA,NA,NA,NA,NA,NA
c5021,task,flow.Sequence,3_0_4_0_6,NA,NA,completion,19266.7,728076.20000076,728074.9,728091.6,747358.3,747359.40000057,2024-04-06T09:35:17Z,747374.9,NULL,Ergänzung,kijalizo,s,ulaghai,mustarehe,matangazo,NA,sd,NA,4,NA,NA,NA,NA,NA,NA,NA,NA,NA,NA,NA,NA,NA,NA,NA,NA,NA,NA,NA
c5021,deep,flow.Sequence,3_0_4_0_7_0,NA,NA,skipped,NA,747359.5,NA,NA,747358.3,747359.60000038,2024-04-06T09:35:17Z,747374.9,NULL,Betrüger,mdanganyifu,s,mwanamuziki,wastani,mahakama,NA,sd,NA,4,NA,NA,NA,NA,NA,NA,NA,NA,NA,NA,NA,NA,NA,NA,NA,NA,NA,NA,NA
c5021,Shallow Question,html.Page,3_0_4_0_7_1_0,NA,NA,form submission,8513.7000003814,747359.60000038,747358.3,747374.9,755888.60000038,755888.80000019,2024-04-06T09:35:26Z,755891.596,NULL,Betrüger,mdanganyifu,s,mwanamuziki,wastani,mahakama,mdanganyifu,NA,NA,4,NA,NA,NA,NA,NA,NA,NA,NA,NA,NA,NA,NA,NA,NA,NA,NA,NA,NA,NA
c5021,"""Richtig""-Screen",canvas.Screen,3_0_4_0_7_1_1,NA,NA,timeout,4999.904,755890.40000057,755891.596,755891.596,760874.9,760875.60000038,2024-04-06T09:35:31Z,760891.5,NULL,Betrüger,mdanganyifu,s,mwanamuziki,wastani,mahakama,NA,sd,1,4,NA,NA,NA,NA,NA,NA,NA,NA,NA,NA,NA,NA,NA,NA,NA,NA,NA,NA,NA
c5021,"""Falsch""-Screen",canvas.Screen,3_0_4_0_7_1_2,NA,NA,skipped,NA,760879.70000076,NA,NA,760874.9,760879.90000057,2024-04-06T09:35:31Z,760891.5,NULL,Betrüger,mdanganyifu,s,mwanamuziki,wastani,mahakama,NA,sd,NA,4,NA,NA,NA,NA,NA,NA,NA,NA,NA,NA,NA,NA,NA,NA,NA,NA,NA,NA,NA
c5021,shallow,flow.Sequence,3_0_4_0_7_1,NA,NA,completion,13500,747359.60000038,747358.3,747374.9,760874.9,760880.10000038,2024-04-06T09:35:31Z,760891.5,NULL,Betrüger,mdanganyifu,s,mwanamuziki,wastani,mahakama,NA,sd,NA,4,NA,NA,NA,NA,NA,NA,NA,NA,NA,NA,NA,NA,NA,NA,NA,NA,NA,NA,NA
c5021,task,flow.Sequence,3_0_4_0_7,NA,NA,completion,13500,747359.40000057,747358.3,747374.9,760874.9,760880.30000019,2024-04-06T09:35:31Z,760891.5,NULL,Betrüger,mdanganyifu,s,mwanamuziki,wastani,mahakama,NA,sd,NA,4,NA,NA,NA,NA,NA,NA,NA,NA,NA,NA,NA,NA,NA,NA,NA,NA,NA,NA,NA
c5021,block,flow.Loop,3_0_4_0,NA,NA,completion,136466.558,624413.60000038,624408.342,624408.342,760874.9,760880.40000057,2024-04-06T09:35:31Z,760891.5,NULL,NA,NA,NA,NA,NA,NA,NA,sd,NA,4,NA,NA,NA,NA,NA,NA,NA,NA,NA,NA,NA,NA,NA,NA,NA,NA,NA,NA,NA
c5021,weiter,canvas.Screen,3_0_4_1,sdf,keypress(Space),response,1621.3000001907,760880.5,760874.9,760891.5,762512.80000019,762513.70000076,2024-04-06T09:35:32Z,762541.656,NULL,NA,NA,NA,NA,NA,NA,NA,sd,NA,4,NA,NA,NA,NA,NA,NA,NA,NA,NA,NA,NA,NA,NA,NA,NA,NA,NA,NA,NA
c5021,check continue,flow.Sequence,3_0_4,NA,NA,completion,138104.45800019,624413.60000038,624408.342,624408.342,762512.80000019,762513.90000057,2024-04-06T09:35:32Z,762541.656,NULL,NA,NA,NA,NA,NA,NA,NA,sd,NA,4,NA,NA,NA,NA,NA,NA,NA,NA,NA,NA,NA,NA,NA,NA,NA,NA,NA,NA,NA
c5021,Deep Question,html.Page,3_0_5_0_0_0_0,NA,NA,form submission,19703.444000382,762555,762541.656,762541.656,782245.10000038,782245.30000019,2024-04-06T09:35:52Z,782258.1,NULL,Notfall,dharura,d,NA,NA,NA,dharura,NA,NA,5,NA,NA,NA,NA,NA,NA,NA,NA,NA,NA,NA,NA,NA,NA,NA,NA,NA,NA,NA
c5021,"""Richtig""-Screen",canvas.Screen,3_0_5_0_0_0_1,NA,NA,timeout,5000.1,782246.90000057,782241.642,782258.1,787241.5,787242.20000076,2024-04-06T09:35:57Z,787258.2,NULL,Notfall,dharura,d,NA,NA,NA,NA,sdf,1,5,NA,NA,NA,NA,NA,NA,NA,NA,NA,NA,NA,NA,NA,NA,NA,NA,NA,NA,NA
c5021,"""Falsch""-Screen",canvas.Screen,3_0_5_0_0_0_2,NA,NA,skipped,NA,787246.10000038,NA,NA,787241.5,787246.40000057,2024-04-06T09:35:57Z,787258.2,NULL,Notfall,dharura,d,NA,NA,NA,NA,sdf,NA,5,NA,NA,NA,NA,NA,NA,NA,NA,NA,NA,NA,NA,NA,NA,NA,NA,NA,NA,NA
c5021,deep,flow.Sequence,3_0_5_0_0_0,NA,NA,completion,24699.844,762555,762541.656,762541.656,787241.5,787246.5,2024-04-06T09:35:57Z,787258.2,NULL,Notfall,dharura,d,NA,NA,NA,NA,sdf,NA,5,NA,NA,NA,NA,NA,NA,NA,NA,NA,NA,NA,NA,NA,NA,NA,NA,NA,NA,NA
c5021,shallow,flow.Sequence,3_0_5_0_0_1,NA,NA,skipped,NA,787246.60000038,NA,NA,787241.5,787246.70000076,2024-04-06T09:35:57Z,787258.2,NULL,Notfall,dharura,d,NA,NA,NA,NA,sdf,NA,5,NA,NA,NA,NA,NA,NA,NA,NA,NA,NA,NA,NA,NA,NA,NA,NA,NA,NA,NA
c5021,task,flow.Sequence,3_0_5_0_0,NA,NA,completion,24699.844,762555,762541.656,762541.656,787241.5,787246.80000019,2024-04-06T09:35:57Z,787258.2,NULL,Notfall,dharura,d,NA,NA,NA,NA,sdf,NA,5,NA,NA,NA,NA,NA,NA,NA,NA,NA,NA,NA,NA,NA,NA,NA,NA,NA,NA,NA
c5021,deep,flow.Sequence,3_0_5_0_1_0,NA,NA,skipped,NA,787246.90000057,NA,NA,787241.5,787247,2024-04-06T09:35:57Z,787258.2,NULL,Wohlstand,mafanikio,s,chimbuko,kumbuko,mapwaji,NA,sdf,NA,5,NA,NA,NA,NA,NA,NA,NA,NA,NA,NA,NA,NA,NA,NA,NA,NA,NA,NA,NA
c5021,Shallow Question,html.Page,3_0_5_0_1_1_0,NA,NA,form submission,11215.700000572,787247.10000038,787241.5,787258.2,798473.90000057,798474,2024-04-06T09:36:08Z,798474.92,NULL,Wohlstand,mafanikio,s,chimbuko,kumbuko,mapwaji,kumbuko,NA,NA,5,NA,NA,NA,NA,NA,NA,NA,NA,NA,NA,NA,NA,NA,NA,NA,NA,NA,NA,NA
c5021,"""Richtig""-Screen",canvas.Screen,3_0_5_0_1_1_1,NA,NA,skipped,NA,798475.70000076,NA,NA,798473.90000057,798475.80000019,2024-04-06T09:36:08Z,798474.92,NULL,Wohlstand,mafanikio,s,chimbuko,kumbuko,mapwaji,NA,sdf,NA,5,NA,NA,NA,NA,NA,NA,NA,NA,NA,NA,NA,NA,NA,NA,NA,NA,NA,NA,NA
c5021,"""Falsch""-Screen",canvas.Screen,3_0_5_0_1_1_2,NA,NA,timeout,4999.98,798476.40000057,798474.92,798474.92,803458.2,803458.80000019,2024-04-06T09:36:13Z,803474.9,NULL,Wohlstand,mafanikio,s,chimbuko,kumbuko,mapwaji,NA,sdf,0,5,NA,NA,NA,NA,NA,NA,NA,NA,NA,NA,NA,NA,NA,NA,NA,NA,NA,NA,NA
c5021,shallow,flow.Sequence,3_0_5_0_1_1,NA,NA,completion,16200,787247,787241.5,787258.2,803458.2,803459.20000076,2024-04-06T09:36:13Z,803474.9,NULL,Wohlstand,mafanikio,s,chimbuko,kumbuko,mapwaji,NA,sdf,NA,5,NA,NA,NA,NA,NA,NA,NA,NA,NA,NA,NA,NA,NA,NA,NA,NA,NA,NA,NA
c5021,task,flow.Sequence,3_0_5_0_1,NA,NA,completion,16200,787246.90000057,787241.5,787258.2,803458.2,803459.30000019,2024-04-06T09:36:13Z,803474.9,NULL,Wohlstand,mafanikio,s,chimbuko,kumbuko,mapwaji,NA,sdf,NA,5,NA,NA,NA,NA,NA,NA,NA,NA,NA,NA,NA,NA,NA,NA,NA,NA,NA,NA,NA
c5021,Deep Question,html.Page,3_0_5_0_2_0_0,NA,NA,form submission,24327.800000763,803459.40000057,803458.2,803474.9,827802.70000076,827802.90000057,2024-04-06T09:36:38Z,827810.4,NULL,Respekt,heshima,d,NA,NA,NA,heshima,NA,NA,5,NA,NA,NA,NA,NA,NA,NA,NA,NA,NA,NA,NA,NA,NA,NA,NA,NA,NA,NA
c5021,"""Richtig""-Screen",canvas.Screen,3_0_5_0_2_0_1,NA,NA,timeout,4997.6,827804.60000038,827791.61,827810.4,832791.4,832792.30000019,2024-04-06T09:36:43Z,832808,NULL,Respekt,heshima,d,NA,NA,NA,NA,sdf,1,5,NA,NA,NA,NA,NA,NA,NA,NA,NA,NA,NA,NA,NA,NA,NA,NA,NA,NA,NA
c5021,"""Falsch""-Screen",canvas.Screen,3_0_5_0_2_0_2,NA,NA,skipped,NA,832796.30000019,NA,NA,832791.4,832796.5,2024-04-06T09:36:43Z,832808,NULL,Respekt,heshima,d,NA,NA,NA,NA,sdf,NA,5,NA,NA,NA,NA,NA,NA,NA,NA,NA,NA,NA,NA,NA,NA,NA,NA,NA,NA,NA
c5021,deep,flow.Sequence,3_0_5_0_2_0,NA,NA,completion,29316.5,803459.40000057,803458.2,803474.9,832791.4,832796.70000076,2024-04-06T09:36:43Z,832808,NULL,Respekt,heshima,d,NA,NA,NA,NA,sdf,NA,5,NA,NA,NA,NA,NA,NA,NA,NA,NA,NA,NA,NA,NA,NA,NA,NA,NA,NA,NA
c5021,shallow,flow.Sequence,3_0_5_0_2_1,NA,NA,skipped,NA,832796.80000019,NA,NA,832791.4,832796.80000019,2024-04-06T09:36:43Z,832808,NULL,Respekt,heshima,d,NA,NA,NA,NA,sdf,NA,5,NA,NA,NA,NA,NA,NA,NA,NA,NA,NA,NA,NA,NA,NA,NA,NA,NA,NA,NA
c5021,task,flow.Sequence,3_0_5_0_2,NA,NA,completion,29316.5,803459.40000057,803458.2,803474.9,832791.4,832797,2024-04-06T09:36:43Z,832808,NULL,Respekt,heshima,d,NA,NA,NA,NA,sdf,NA,5,NA,NA,NA,NA,NA,NA,NA,NA,NA,NA,NA,NA,NA,NA,NA,NA,NA,NA,NA
c5021,deep,flow.Sequence,3_0_5_0_3_0,NA,NA,skipped,NA,832797.10000038,NA,NA,832791.4,832797.20000076,2024-04-06T09:36:43Z,832808,NULL,Betrüger,mdanganyifu,s,mwanamuziki,wastani,mahakama,NA,sdf,NA,5,NA,NA,NA,NA,NA,NA,NA,NA,NA,NA,NA,NA,NA,NA,NA,NA,NA,NA,NA
c5021,Shallow Question,html.Page,3_0_5_0_3_1_0,NA,NA,form submission,5025.6000003815,832797.20000076,832791.4,832808,837833.60000038,837833.80000019,2024-04-06T09:36:48Z,837841.4,NULL,Betrüger,mdanganyifu,s,mwanamuziki,wastani,mahakama,mdanganyifu,NA,NA,5,NA,NA,NA,NA,NA,NA,NA,NA,NA,NA,NA,NA,NA,NA,NA,NA,NA,NA,NA
c5021,"""Richtig""-Screen",canvas.Screen,3_0_5_0_3_1_1,NA,NA,timeout,5000,837835.40000057,837824.878,837841.4,842824.8,842825.5,2024-04-06T09:36:53Z,842841.4,NULL,Betrüger,mdanganyifu,s,mwanamuziki,wastani,mahakama,NA,sdf,1,5,NA,NA,NA,NA,NA,NA,NA,NA,NA,NA,NA,NA,NA,NA,NA,NA,NA,NA,NA
c5021,"""Falsch""-Screen",canvas.Screen,3_0_5_0_3_1_2,NA,NA,skipped,NA,842829.60000038,NA,NA,842824.8,842829.80000019,2024-04-06T09:36:53Z,842841.4,NULL,Betrüger,mdanganyifu,s,mwanamuziki,wastani,mahakama,NA,sdf,NA,5,NA,NA,NA,NA,NA,NA,NA,NA,NA,NA,NA,NA,NA,NA,NA,NA,NA,NA,NA
c5021,shallow,flow.Sequence,3_0_5_0_3_1,NA,NA,completion,10016.8,832797.20000076,832791.4,832808,842824.8,842830,2024-04-06T09:36:53Z,842841.4,NULL,Betrüger,mdanganyifu,s,mwanamuziki,wastani,mahakama,NA,sdf,NA,5,NA,NA,NA,NA,NA,NA,NA,NA,NA,NA,NA,NA,NA,NA,NA,NA,NA,NA,NA
c5021,task,flow.Sequence,3_0_5_0_3,NA,NA,completion,10016.8,832797,832791.4,832808,842824.8,842830.20000076,2024-04-06T09:36:53Z,842841.4,NULL,Betrüger,mdanganyifu,s,mwanamuziki,wastani,mahakama,NA,sdf,NA,5,NA,NA,NA,NA,NA,NA,NA,NA,NA,NA,NA,NA,NA,NA,NA,NA,NA,NA,NA
c5021,deep,flow.Sequence,3_0_5_0_4_0,NA,NA,skipped,NA,842830.20000076,NA,NA,842824.8,842830.30000019,2024-04-06T09:36:53Z,842841.4,NULL,Ergänzung,kijalizo,s,ulaghai,mustarehe,matangazo,NA,sdf,NA,5,NA,NA,NA,NA,NA,NA,NA,NA,NA,NA,NA,NA,NA,NA,NA,NA,NA,NA,NA
c5021,Shallow Question,html.Page,3_0_5_0_4_1_0,NA,NA,form submission,5568.1,842830.40000057,842824.8,842841.4,848409.5,848409.70000076,2024-04-06T09:36:58Z,848424.7,NULL,Ergänzung,kijalizo,s,ulaghai,mustarehe,matangazo,kijalizo,NA,NA,5,NA,NA,NA,NA,NA,NA,NA,NA,NA,NA,NA,NA,NA,NA,NA,NA,NA,NA,NA
c5021,"""Richtig""-Screen",canvas.Screen,3_0_5_0_4_1_1,NA,NA,timeout,5000,848411.40000057,848408.216,848424.7,853408.1,853408.80000019,2024-04-06T09:37:03Z,853424.7,NULL,Ergänzung,kijalizo,s,ulaghai,mustarehe,matangazo,NA,sdf,1,5,NA,NA,NA,NA,NA,NA,NA,NA,NA,NA,NA,NA,NA,NA,NA,NA,NA,NA,NA
c5021,"""Falsch""-Screen",canvas.Screen,3_0_5_0_4_1_2,NA,NA,skipped,NA,853412.80000019,NA,NA,853408.1,853413,2024-04-06T09:37:03Z,853424.7,NULL,Ergänzung,kijalizo,s,ulaghai,mustarehe,matangazo,NA,sdf,NA,5,NA,NA,NA,NA,NA,NA,NA,NA,NA,NA,NA,NA,NA,NA,NA,NA,NA,NA,NA
c5021,shallow,flow.Sequence,3_0_5_0_4_1,NA,NA,completion,10566.7,842830.40000057,842824.8,842841.4,853408.1,853413.20000076,2024-04-06T09:37:03Z,853424.7,NULL,Ergänzung,kijalizo,s,ulaghai,mustarehe,matangazo,NA,sdf,NA,5,NA,NA,NA,NA,NA,NA,NA,NA,NA,NA,NA,NA,NA,NA,NA,NA,NA,NA,NA
c5021,task,flow.Sequence,3_0_5_0_4,NA,NA,completion,10566.7,842830.20000076,842824.8,842841.4,853408.1,853413.30000019,2024-04-06T09:37:03Z,853424.7,NULL,Ergänzung,kijalizo,s,ulaghai,mustarehe,matangazo,NA,sdf,NA,5,NA,NA,NA,NA,NA,NA,NA,NA,NA,NA,NA,NA,NA,NA,NA,NA,NA,NA,NA
c5021,Deep Question,html.Page,3_0_5_0_5_0_0,NA,NA,form submission,17269.100000191,853413.40000057,853408.1,853424.7,870693.80000019,870694,2024-04-06T09:37:21Z,870708,NULL,Vergnügen,kichekesho,d,NA,NA,NA,hishira,NA,NA,5,NA,NA,NA,NA,NA,NA,NA,NA,NA,NA,NA,NA,NA,NA,NA,NA,NA,NA,NA
c5021,"""Richtig""-Screen",canvas.Screen,3_0_5_0_5_0_1,NA,NA,skipped,NA,870695.60000038,NA,NA,870693.80000019,870695.70000076,2024-04-06T09:37:21Z,870708,NULL,Vergnügen,kichekesho,d,NA,NA,NA,NA,sdf,NA,5,NA,NA,NA,NA,NA,NA,NA,NA,NA,NA,NA,NA,NA,NA,NA,NA,NA,NA,NA
c5021,"""Falsch""-Screen",canvas.Screen,3_0_5_0_5_0_2,NA,NA,timeout,5000.1,870696.30000019,870692.022,870708,875691.4,875692.10000038,2024-04-06T09:37:26Z,875708.1,NULL,Vergnügen,kichekesho,d,NA,NA,NA,NA,sdf,0,5,NA,NA,NA,NA,NA,NA,NA,NA,NA,NA,NA,NA,NA,NA,NA,NA,NA,NA,NA
c5021,deep,flow.Sequence,3_0_5_0_5_0,NA,NA,completion,22266.7,853413.40000057,853408.1,853424.7,875691.4,875692.40000057,2024-04-06T09:37:26Z,875708.1,NULL,Vergnügen,kichekesho,d,NA,NA,NA,NA,sdf,NA,5,NA,NA,NA,NA,NA,NA,NA,NA,NA,NA,NA,NA,NA,NA,NA,NA,NA,NA,NA
c5021,shallow,flow.Sequence,3_0_5_0_5_1,NA,NA,skipped,NA,875692.5,NA,NA,875691.4,875692.60000038,2024-04-06T09:37:26Z,875708.1,NULL,Vergnügen,kichekesho,d,NA,NA,NA,NA,sdf,NA,5,NA,NA,NA,NA,NA,NA,NA,NA,NA,NA,NA,NA,NA,NA,NA,NA,NA,NA,NA
c5021,task,flow.Sequence,3_0_5_0_5,NA,NA,completion,22266.7,853413.30000019,853408.1,853424.7,875691.4,875692.70000076,2024-04-06T09:37:26Z,875708.1,NULL,Vergnügen,kichekesho,d,NA,NA,NA,NA,sdf,NA,5,NA,NA,NA,NA,NA,NA,NA,NA,NA,NA,NA,NA,NA,NA,NA,NA,NA,NA,NA
c5021,deep,flow.Sequence,3_0_5_0_6_0,NA,NA,skipped,NA,875692.80000019,NA,NA,875691.4,875692.80000019,2024-04-06T09:37:26Z,875708.1,NULL,Stimmung,kinyongo,s,kilekile,kisambo,madhehebu,NA,sdf,NA,5,NA,NA,NA,NA,NA,NA,NA,NA,NA,NA,NA,NA,NA,NA,NA,NA,NA,NA,NA
c5021,Shallow Question,html.Page,3_0_5_0_6_1_0,NA,NA,form submission,9875.3000005722,875692.90000057,875691.4,875708.1,885583.40000057,885583.60000038,2024-04-06T09:37:36Z,885591.53,NULL,Stimmung,kinyongo,s,kilekile,kisambo,madhehebu,kinyongo,NA,NA,5,NA,NA,NA,NA,NA,NA,NA,NA,NA,NA,NA,NA,NA,NA,NA,NA,NA,NA,NA
c5021,"""Richtig""-Screen",canvas.Screen,3_0_5_0_6_1_1,NA,NA,timeout,4999.87,885585.30000019,885591.53,885591.53,890574.7,890575.30000019,2024-04-06T09:37:41Z,890591.4,NULL,Stimmung,kinyongo,s,kilekile,kisambo,madhehebu,NA,sdf,1,5,NA,NA,NA,NA,NA,NA,NA,NA,NA,NA,NA,NA,NA,NA,NA,NA,NA,NA,NA
c5021,"""Falsch""-Screen",canvas.Screen,3_0_5_0_6_1_2,NA,NA,skipped,NA,890579.5,NA,NA,890574.7,890579.70000076,2024-04-06T09:37:41Z,890591.4,NULL,Stimmung,kinyongo,s,kilekile,kisambo,madhehebu,NA,sdf,NA,5,NA,NA,NA,NA,NA,NA,NA,NA,NA,NA,NA,NA,NA,NA,NA,NA,NA,NA,NA
c5021,shallow,flow.Sequence,3_0_5_0_6_1,NA,NA,completion,14866.6,875692.90000057,875691.4,875708.1,890574.7,890579.90000057,2024-04-06T09:37:41Z,890591.4,NULL,Stimmung,kinyongo,s,kilekile,kisambo,madhehebu,NA,sdf,NA,5,NA,NA,NA,NA,NA,NA,NA,NA,NA,NA,NA,NA,NA,NA,NA,NA,NA,NA,NA
c5021,task,flow.Sequence,3_0_5_0_6,NA,NA,completion,14866.6,875692.70000076,875691.4,875708.1,890574.7,890580,2024-04-06T09:37:41Z,890591.4,NULL,Stimmung,kinyongo,s,kilekile,kisambo,madhehebu,NA,sdf,NA,5,NA,NA,NA,NA,NA,NA,NA,NA,NA,NA,NA,NA,NA,NA,NA,NA,NA,NA,NA
c5021,Deep Question,html.Page,3_0_5_0_7_0_0,NA,NA,form submission,23398.900000191,890580.20000076,890574.7,890591.4,913990.30000019,913990.5,2024-04-06T09:38:04Z,913991.552,NULL,Orientierung,urekebisho,d,NA,NA,NA,hidhura,NA,NA,5,NA,NA,NA,NA,NA,NA,NA,NA,NA,NA,NA,NA,NA,NA,NA,NA,NA,NA,NA
c5021,"""Richtig""-Screen",canvas.Screen,3_0_5_0_7_0_1,NA,NA,skipped,NA,913992.30000019,NA,NA,913990.30000019,913992.40000057,2024-04-06T09:38:04Z,913991.552,NULL,Orientierung,urekebisho,d,NA,NA,NA,NA,sdf,NA,5,NA,NA,NA,NA,NA,NA,NA,NA,NA,NA,NA,NA,NA,NA,NA,NA,NA,NA,NA
c5021,"""Falsch""-Screen",canvas.Screen,3_0_5_0_7_0_2,NA,NA,timeout,4999.948,913992.90000057,913991.552,913991.552,918974.7,918975.5,2024-04-06T09:38:09Z,918991.5,NULL,Orientierung,urekebisho,d,NA,NA,NA,NA,sdf,0,5,NA,NA,NA,NA,NA,NA,NA,NA,NA,NA,NA,NA,NA,NA,NA,NA,NA,NA,NA
c5021,deep,flow.Sequence,3_0_5_0_7_0,NA,NA,completion,28383.3,890580.10000038,890574.7,890591.4,918974.7,918975.70000076,2024-04-06T09:38:09Z,918991.5,NULL,Orientierung,urekebisho,d,NA,NA,NA,NA,sdf,NA,5,NA,NA,NA,NA,NA,NA,NA,NA,NA,NA,NA,NA,NA,NA,NA,NA,NA,NA,NA
c5021,shallow,flow.Sequence,3_0_5_0_7_1,NA,NA,skipped,NA,918975.90000057,NA,NA,918974.7,918975.90000057,2024-04-06T09:38:09Z,918991.5,NULL,Orientierung,urekebisho,d,NA,NA,NA,NA,sdf,NA,5,NA,NA,NA,NA,NA,NA,NA,NA,NA,NA,NA,NA,NA,NA,NA,NA,NA,NA,NA
c5021,task,flow.Sequence,3_0_5_0_7,NA,NA,completion,28383.3,890580.10000038,890574.7,890591.4,918974.7,918976,2024-04-06T09:38:09Z,918991.5,NULL,Orientierung,urekebisho,d,NA,NA,NA,NA,sdf,NA,5,NA,NA,NA,NA,NA,NA,NA,NA,NA,NA,NA,NA,NA,NA,NA,NA,NA,NA,NA
c5021,block,flow.Loop,3_0_5_0,NA,NA,completion,156433.044,762555,762541.656,762541.656,918974.7,918976.20000076,2024-04-06T09:38:09Z,918991.5,NULL,NA,NA,NA,NA,NA,NA,NA,sdf,NA,5,NA,NA,NA,NA,NA,NA,NA,NA,NA,NA,NA,NA,NA,NA,NA,NA,NA,NA,NA
c5021,weiter,canvas.Screen,3_0_5_1,sdf,keypress(Space),response,1137,918976.30000019,918974.7,918991.5,920128.5,920129.40000057,2024-04-06T09:38:10Z,920474.816,NULL,NA,NA,NA,NA,NA,NA,NA,sdf,NA,5,NA,NA,NA,NA,NA,NA,NA,NA,NA,NA,NA,NA,NA,NA,NA,NA,NA,NA,NA
c5021,check continue,flow.Sequence,3_0_5,NA,NA,completion,157586.844,762554.90000057,762541.656,762541.656,920128.5,920129.60000038,2024-04-06T09:38:10Z,920474.816,NULL,NA,NA,NA,NA,NA,NA,NA,sdf,NA,5,NA,NA,NA,NA,NA,NA,NA,NA,NA,NA,NA,NA,NA,NA,NA,NA,NA,NA,NA
c5021,check continue,flow.Sequence,3_0_6,NA,NA,skipped,NA,920182,NA,NA,920128.5,920182.10000038,2024-04-06T09:38:10Z,920474.816,NULL,NA,NA,NA,NA,NA,NA,NA,dfs,NA,6,NA,NA,NA,NA,NA,NA,NA,NA,NA,NA,NA,NA,NA,NA,NA,NA,NA,NA,NA
c5021,check continue,flow.Sequence,3_0_7,NA,NA,skipped,NA,920201.80000019,NA,NA,920128.5,920201.90000057,2024-04-06T09:38:10Z,920474.816,NULL,NA,NA,NA,NA,NA,NA,NA,df,NA,7,NA,NA,NA,NA,NA,NA,NA,NA,NA,NA,NA,NA,NA,NA,NA,NA,NA,NA,NA
c5021,check continue,flow.Sequence,3_0_8,NA,NA,skipped,NA,920216,NA,NA,920128.5,920216,2024-04-06T09:38:10Z,920474.816,NULL,NA,NA,NA,NA,NA,NA,NA,dfs,NA,8,NA,NA,NA,NA,NA,NA,NA,NA,NA,NA,NA,NA,NA,NA,NA,NA,NA,NA,NA
c5021,check continue,flow.Sequence,3_0_9,NA,NA,skipped,NA,920230.70000076,NA,NA,920128.5,920230.80000019,2024-04-06T09:38:10Z,920474.816,NULL,NA,NA,NA,NA,NA,NA,NA,dsf,NA,9,NA,NA,NA,NA,NA,NA,NA,NA,NA,NA,NA,NA,NA,NA,NA,NA,NA,NA,NA
c5021,check continue,flow.Sequence,3_0_10,NA,NA,skipped,NA,920250.70000076,NA,NA,920128.5,920250.80000019,2024-04-06T09:38:10Z,920474.816,NULL,NA,NA,NA,NA,NA,NA,NA,df,NA,10,NA,NA,NA,NA,NA,NA,NA,NA,NA,NA,NA,NA,NA,NA,NA,NA,NA,NA,NA
c5021,check continue,flow.Sequence,3_0_11,NA,NA,skipped,NA,920263.5,NA,NA,920128.5,920263.5,2024-04-06T09:38:10Z,920474.816,NULL,NA,NA,NA,NA,NA,NA,NA,dfs,NA,11,NA,NA,NA,NA,NA,NA,NA,NA,NA,NA,NA,NA,NA,NA,NA,NA,NA,NA,NA
c5021,check continue,flow.Sequence,3_0_12,NA,NA,skipped,NA,920276.60000038,NA,NA,920128.5,920276.80000019,2024-04-06T09:38:10Z,920474.816,NULL,NA,NA,NA,NA,NA,NA,NA,dsf,NA,12,NA,NA,NA,NA,NA,NA,NA,NA,NA,NA,NA,NA,NA,NA,NA,NA,NA,NA,NA
c5021,check continue,flow.Sequence,3_0_13,NA,NA,skipped,NA,920289.90000057,NA,NA,920128.5,920290,2024-04-06T09:38:10Z,920474.816,NULL,NA,NA,NA,NA,NA,NA,NA,dsf,NA,13,NA,NA,NA,NA,NA,NA,NA,NA,NA,NA,NA,NA,NA,NA,NA,NA,NA,NA,NA
c5021,check continue,flow.Sequence,3_0_14,NA,NA,skipped,NA,920308.60000038,NA,NA,920128.5,920308.70000076,2024-04-06T09:38:10Z,920474.816,NULL,NA,NA,NA,NA,NA,NA,NA,NA,NA,14,NA,NA,NA,NA,NA,NA,NA,NA,NA,NA,NA,NA,NA,NA,NA,NA,NA,NA,NA
c5021,check continue,flow.Sequence,3_0_15,NA,NA,skipped,NA,920319.90000057,NA,NA,920128.5,920320,2024-04-06T09:38:10Z,920474.816,NULL,NA,NA,NA,NA,NA,NA,NA,NA,NA,15,NA,NA,NA,NA,NA,NA,NA,NA,NA,NA,NA,NA,NA,NA,NA,NA,NA,NA,NA
c5021,check continue,flow.Sequence,3_0_16,NA,NA,skipped,NA,920329.90000057,NA,NA,920128.5,920330,2024-04-06T09:38:10Z,920474.816,NULL,NA,NA,NA,NA,NA,NA,NA,NA,NA,16,NA,NA,NA,NA,NA,NA,NA,NA,NA,NA,NA,NA,NA,NA,NA,NA,NA,NA,NA
c5021,check continue,flow.Sequence,3_0_17,NA,NA,skipped,NA,920340.60000038,NA,NA,920128.5,920340.70000076,2024-04-06T09:38:10Z,920474.816,NULL,NA,NA,NA,NA,NA,NA,NA,NA,NA,17,NA,NA,NA,NA,NA,NA,NA,NA,NA,NA,NA,NA,NA,NA,NA,NA,NA,NA,NA
c5021,check continue,flow.Sequence,3_0_18,NA,NA,skipped,NA,920351,NA,NA,920128.5,920351.10000038,2024-04-06T09:38:10Z,920474.816,NULL,NA,NA,NA,NA,NA,NA,NA,NA,NA,18,NA,NA,NA,NA,NA,NA,NA,NA,NA,NA,NA,NA,NA,NA,NA,NA,NA,NA,NA
c5021,check continue,flow.Sequence,3_0_19,NA,NA,skipped,NA,920361.5,NA,NA,920128.5,920361.5,2024-04-06T09:38:10Z,920474.816,NULL,NA,NA,NA,NA,NA,NA,NA,NA,NA,19,NA,NA,NA,NA,NA,NA,NA,NA,NA,NA,NA,NA,NA,NA,NA,NA,NA,NA,NA
c5021,check continue,flow.Sequence,3_0_20,NA,NA,skipped,NA,920372,NA,NA,920128.5,920372.10000038,2024-04-06T09:38:10Z,920474.816,NULL,NA,NA,NA,NA,NA,NA,NA,NA,NA,20,NA,NA,NA,NA,NA,NA,NA,NA,NA,NA,NA,NA,NA,NA,NA,NA,NA,NA,NA
c5021,check continue,flow.Sequence,3_0_21,NA,NA,skipped,NA,920383.20000076,NA,NA,920128.5,920383.20000076,2024-04-06T09:38:10Z,920474.816,NULL,NA,NA,NA,NA,NA,NA,NA,NA,NA,21,NA,NA,NA,NA,NA,NA,NA,NA,NA,NA,NA,NA,NA,NA,NA,NA,NA,NA,NA
c5021,check continue,flow.Sequence,3_0_22,NA,NA,skipped,NA,920394,NA,NA,920128.5,920394,2024-04-06T09:38:10Z,920474.816,NULL,NA,NA,NA,NA,NA,NA,NA,NA,NA,22,NA,NA,NA,NA,NA,NA,NA,NA,NA,NA,NA,NA,NA,NA,NA,NA,NA,NA,NA
c5021,check continue,flow.Sequence,3_0_23,NA,NA,skipped,NA,920405.80000019,NA,NA,920128.5,920405.80000019,2024-04-06T09:38:10Z,920474.816,NULL,NA,NA,NA,NA,NA,NA,NA,NA,NA,23,NA,NA,NA,NA,NA,NA,NA,NA,NA,NA,NA,NA,NA,NA,NA,NA,NA,NA,NA
c5021,check continue,flow.Sequence,3_0_24,NA,NA,skipped,NA,920416.10000038,NA,NA,920128.5,920416.20000076,2024-04-06T09:38:10Z,920474.816,NULL,NA,NA,NA,NA,NA,NA,NA,NA,NA,24,NA,NA,NA,NA,NA,NA,NA,NA,NA,NA,NA,NA,NA,NA,NA,NA,NA,NA,NA
c5021,check continue,flow.Sequence,3_0_25,NA,NA,skipped,NA,920428.20000076,NA,NA,920128.5,920428.30000019,2024-04-06T09:38:10Z,920474.816,NULL,NA,NA,NA,NA,NA,NA,NA,NA,NA,25,NA,NA,NA,NA,NA,NA,NA,NA,NA,NA,NA,NA,NA,NA,NA,NA,NA,NA,NA
c5021,check continue,flow.Sequence,3_0_26,NA,NA,skipped,NA,920438.20000076,NA,NA,920128.5,920438.30000019,2024-04-06T09:38:10Z,920474.816,NULL,NA,NA,NA,NA,NA,NA,NA,NA,NA,26,NA,NA,NA,NA,NA,NA,NA,NA,NA,NA,NA,NA,NA,NA,NA,NA,NA,NA,NA
c5021,check continue,flow.Sequence,3_0_27,NA,NA,skipped,NA,920450.30000019,NA,NA,920128.5,920450.40000057,2024-04-06T09:38:10Z,920474.816,NULL,NA,NA,NA,NA,NA,NA,NA,NA,NA,27,NA,NA,NA,NA,NA,NA,NA,NA,NA,NA,NA,NA,NA,NA,NA,NA,NA,NA,NA
c5021,check continue,flow.Sequence,3_0_28,NA,NA,skipped,NA,920460.90000057,NA,NA,920128.5,920461,2024-04-06T09:38:10Z,920474.816,NULL,NA,NA,NA,NA,NA,NA,NA,NA,NA,28,NA,NA,NA,NA,NA,NA,NA,NA,NA,NA,NA,NA,NA,NA,NA,NA,NA,NA,NA
c5021,check continue,flow.Sequence,3_0_29,NA,NA,skipped,NA,920474.90000057,NA,NA,920128.5,920474.90000057,2024-04-06T09:38:10Z,920474.816,NULL,NA,NA,NA,NA,NA,NA,NA,NA,NA,29,NA,NA,NA,NA,NA,NA,NA,NA,NA,NA,NA,NA,NA,NA,NA,NA,NA,NA,NA
