observation,sender,sender_type,sender_id,response,response_action,ended_on,duration,time_run,time_render,time_show,time_end,time_commit,timestamp,time_switch,distractors,german,swahili,enc,distractor1,distractor2,distractor3,response_2,x,correct,x_2,url_vp,url_sess,meta_labjs_version,meta_location,meta_user_agent,meta_platform,meta_language,meta_locale,meta_time_zone,meta_timezone_offset,meta_screen_width,meta_screen_height,meta_scroll_width,meta_scroll_height,meta_window_inner_width,meta_window_inner_height,meta_device_pixel_ratio,meta_labjs_build_flavor,meta_labjs_build_commit
41c36,Introduction general,canvas.Screen,0,weiter,keypress(q),response,153354.52400001,2377.4000000358,1216.974,7334809.276,7488163.8,7488173,2023-05-15T16:10:35Z,7488183.03,NULL,NA,NA,NA,NA,NA,NA,NA,NA,NA,NA,216,1,20.2.4,https://neurocog.fernuni.ch/studies/vweber/sfink/encoding_immediate/index.html?vp=216&sess=1,"Mozilla/5.0 (Windows NT 10.0; Win64; x64) AppleWebKit/537.36 (KHTML, like Gecko) Chrome/113.0.0.0 Safari/537.36",Win32,de-CH,de,Europe/Zurich,-120,1536,864,1536,706,1536,754,1.25,production,f5b4a49f956347addd546a832a3327688c2c0fef
41c36,Introduction practice,canvas.Screen,1_0,NA,keypress(Space),response,11792.570000024,7488174.4,7488166.374,7488183.03,7499975.6,7499976.7,2023-05-15T16:10:47Z,7499989.946,NULL,NA,NA,NA,NA,NA,NA,NA,NA,NA,NA,NA,NA,NA,NA,NA,NA,NA,NA,NA,NA,NA,NA,NA,NA,NA,NA,NA,NA,NA
41c36,deep,flow.Sequence,1_1_0_0,NA,NA,skipped,NA,7499977.2,NA,NA,7499975.6,7499981,2023-05-15T16:10:47Z,7499989.946,"c(""distractor1"", ""distractor2"", ""distractor3"")",Gegenwart,hadhara,s,katiba,jokofu,mikopo,NA,NA,NA,NA,NA,NA,NA,NA,NA,NA,NA,NA,NA,NA,NA,NA,NA,NA,NA,NA,NA,NA,NA
41c36,Shallow Question,html.Page,1_1_0_1_0,NA,NA,form submission,6380.3540000115,7499981.4,7499972.663,7499989.946,7506370.3,7506370.5,2023-05-15T16:10:54Z,7506401.425,"c(""distractor1"", ""distractor2"", ""distractor3"")",Gegenwart,hadhara,s,katiba,jokofu,mikopo,katiba,NA,NA,NA,NA,NA,NA,NA,NA,NA,NA,NA,NA,NA,NA,NA,NA,NA,NA,NA,NA,NA,NA
41c36,"""Richtig""-Screen",canvas.Screen,1_1_0_1_1,NA,NA,skipped,NA,7506372,NA,NA,7506370.3,7506372.1,2023-05-15T16:10:54Z,7506401.425,"c(""distractor1"", ""distractor2"", ""distractor3"")",Gegenwart,hadhara,s,katiba,jokofu,mikopo,NA,NA,NA,NA,NA,NA,NA,NA,NA,NA,NA,NA,NA,NA,NA,NA,NA,NA,NA,NA,NA,NA,NA
41c36,"""Falsch""-Screen",canvas.Screen,1_1_0_1_2,NA,NA,timeout,4995.8150000004,7506373.1,7506384.628,7506401.425,7511381.116,7511386.2,2023-05-15T16:10:59Z,7511397.24,"c(""distractor1"", ""distractor2"", ""distractor3"")",Gegenwart,hadhara,s,katiba,jokofu,mikopo,NA,NA,0,NA,NA,NA,NA,NA,NA,NA,NA,NA,NA,NA,NA,NA,NA,NA,NA,NA,NA,NA,NA
41c36,shallow,flow.Sequence,1_1_0_1,NA,NA,completion,11391.17,7499981.3,7499972.663,7499989.946,7511381.116,7511386.7,2023-05-15T16:10:59Z,7511397.24,"c(""distractor1"", ""distractor2"", ""distractor3"")",Gegenwart,hadhara,s,katiba,jokofu,mikopo,NA,NA,NA,NA,NA,NA,NA,NA,NA,NA,NA,NA,NA,NA,NA,NA,NA,NA,NA,NA,NA,NA,NA
41c36,task,flow.Sequence,1_1_0,NA,NA,completion,11391.17,7499977,7499972.663,7499989.946,7511381.116,7511387.1,2023-05-15T16:10:59Z,7511397.24,"c(""distractor1"", ""distractor2"", ""distractor3"")",Gegenwart,hadhara,s,katiba,jokofu,mikopo,NA,NA,NA,NA,NA,NA,NA,NA,NA,NA,NA,NA,NA,NA,NA,NA,NA,NA,NA,NA,NA,NA,NA
41c36,Deep Question,html.Page,1_1_1_0_0,NA,NA,form submission,11595.060000012,7511387.5,7511381.116,7511397.24,7522992.3,7522992.6,2023-05-15T16:11:10Z,7523004.408,"c(""distractor1"", ""distractor2"", ""distractor3"")",Schatten,kivuli,d,NA,NA,NA,gkjsoifd,NA,NA,NA,NA,NA,NA,NA,NA,NA,NA,NA,NA,NA,NA,NA,NA,NA,NA,NA,NA,NA,NA
41c36,"""Richtig""-Screen",canvas.Screen,1_1_1_0_1,NA,NA,skipped,NA,7522993.6,NA,NA,7522992.3,7522993.7,2023-05-15T16:11:10Z,7523004.408,"c(""distractor1"", ""distractor2"", ""distractor3"")",Schatten,kivuli,d,NA,NA,NA,NA,NA,NA,NA,NA,NA,NA,NA,NA,NA,NA,NA,NA,NA,NA,NA,NA,NA,NA,NA,NA,NA,NA
41c36,"""Falsch""-Screen",canvas.Screen,1_1_1_0_2,NA,NA,timeout,4995.8160000006,7522994.5,7522988.237,7523004.408,7527984.099,7527985.3,2023-05-15T16:11:15Z,7528000.224,"c(""distractor1"", ""distractor2"", ""distractor3"")",Schatten,kivuli,d,NA,NA,NA,NA,NA,0,NA,NA,NA,NA,NA,NA,NA,NA,NA,NA,NA,NA,NA,NA,NA,NA,NA,NA,NA,NA
41c36,deep,flow.Sequence,1_1_1_0,NA,NA,completion,16586.859,7511387.4,7511381.116,7511397.24,7527984.099,7527985.8,2023-05-15T16:11:15Z,7528000.224,"c(""distractor1"", ""distractor2"", ""distractor3"")",Schatten,kivuli,d,NA,NA,NA,NA,NA,NA,NA,NA,NA,NA,NA,NA,NA,NA,NA,NA,NA,NA,NA,NA,NA,NA,NA,NA,NA,NA
41c36,shallow,flow.Sequence,1_1_1_1,NA,NA,skipped,NA,7527986,NA,NA,7527984.099,7527986.2,2023-05-15T16:11:15Z,7528000.224,"c(""distractor1"", ""distractor2"", ""distractor3"")",Schatten,kivuli,d,NA,NA,NA,NA,NA,NA,NA,NA,NA,NA,NA,NA,NA,NA,NA,NA,NA,NA,NA,NA,NA,NA,NA,NA,NA,NA
41c36,task,flow.Sequence,1_1_1,NA,NA,completion,16586.859,7511387.2,7511381.116,7511397.24,7527984.099,7527986.6,2023-05-15T16:11:15Z,7528000.224,"c(""distractor1"", ""distractor2"", ""distractor3"")",Schatten,kivuli,d,NA,NA,NA,NA,NA,NA,NA,NA,NA,NA,NA,NA,NA,NA,NA,NA,NA,NA,NA,NA,NA,NA,NA,NA,NA,NA
41c36,deep,flow.Sequence,1_1_2_0,NA,NA,skipped,NA,7527987,NA,NA,7527984.099,7527987.1,2023-05-15T16:11:15Z,7528000.224,"c(""distractor1"", ""distractor2"", ""distractor3"")",Rückhalt,msaada,s,muhula,auwali,kiwimbe,NA,NA,NA,NA,NA,NA,NA,NA,NA,NA,NA,NA,NA,NA,NA,NA,NA,NA,NA,NA,NA,NA,NA
41c36,Shallow Question,html.Page,1_1_2_1_0,NA,NA,form submission,14293.576000012,7527987.3,7527984.099,7528000.224,7542293.8,7542293.9,2023-05-15T16:11:30Z,7542305.184,"c(""distractor1"", ""distractor2"", ""distractor3"")",Rückhalt,msaada,s,muhula,auwali,kiwimbe,msaada,NA,NA,NA,NA,NA,NA,NA,NA,NA,NA,NA,NA,NA,NA,NA,NA,NA,NA,NA,NA,NA,NA
41c36,"""Richtig""-Screen",canvas.Screen,1_1_2_1_1,NA,NA,timeout,4995.8379999995,7542295.8,7542288.919,7542305.184,7547284.902,7547285.9,2023-05-15T16:11:35Z,7547301.022,"c(""distractor1"", ""distractor2"", ""distractor3"")",Rückhalt,msaada,s,muhula,auwali,kiwimbe,NA,NA,1,NA,NA,NA,NA,NA,NA,NA,NA,NA,NA,NA,NA,NA,NA,NA,NA,NA,NA,NA,NA
41c36,"""Falsch""-Screen",canvas.Screen,1_1_2_1_2,NA,NA,skipped,NA,7547291.4,NA,NA,7547284.902,7547291.9,2023-05-15T16:11:35Z,7547301.022,"c(""distractor1"", ""distractor2"", ""distractor3"")",Rückhalt,msaada,s,muhula,auwali,kiwimbe,NA,NA,NA,NA,NA,NA,NA,NA,NA,NA,NA,NA,NA,NA,NA,NA,NA,NA,NA,NA,NA,NA,NA
41c36,shallow,flow.Sequence,1_1_2_1,NA,NA,completion,19284.677999999,7527987.3,7527984.099,7528000.224,7547284.902,7547292.2,2023-05-15T16:11:35Z,7547301.022,"c(""distractor1"", ""distractor2"", ""distractor3"")",Rückhalt,msaada,s,muhula,auwali,kiwimbe,NA,NA,NA,NA,NA,NA,NA,NA,NA,NA,NA,NA,NA,NA,NA,NA,NA,NA,NA,NA,NA,NA,NA
41c36,task,flow.Sequence,1_1_2,NA,NA,completion,19284.677999999,7527986.8,7527984.099,7528000.224,7547284.902,7547292.5,2023-05-15T16:11:35Z,7547301.022,"c(""distractor1"", ""distractor2"", ""distractor3"")",Rückhalt,msaada,s,muhula,auwali,kiwimbe,NA,NA,NA,NA,NA,NA,NA,NA,NA,NA,NA,NA,NA,NA,NA,NA,NA,NA,NA,NA,NA,NA,NA
41c36,Deep Question,html.Page,1_1_3_0_0,NA,NA,form submission,5059.1779999882,7547292.8,7547284.902,7547301.022,7552360.2,7552360.3,2023-05-15T16:11:40Z,7552363.429,"c(""distractor1"", ""distractor2"", ""distractor3"")",Gesundheit,salama,d,NA,NA,NA,rutksn,NA,NA,NA,NA,NA,NA,NA,NA,NA,NA,NA,NA,NA,NA,NA,NA,NA,NA,NA,NA,NA,NA
41c36,"""Richtig""-Screen",canvas.Screen,1_1_3_0_1,NA,NA,skipped,NA,7552362.2,NA,NA,7552360.2,7552362.3,2023-05-15T16:11:40Z,7552363.429,"c(""distractor1"", ""distractor2"", ""distractor3"")",Gesundheit,salama,d,NA,NA,NA,NA,NA,NA,NA,NA,NA,NA,NA,NA,NA,NA,NA,NA,NA,NA,NA,NA,NA,NA,NA,NA,NA,NA
41c36,"""Falsch""-Screen",canvas.Screen,1_1_3_0_2,NA,NA,timeout,4996.4360000007,7552363.1,7552346.86,7552363.429,7557343.277,7557344.5,2023-05-15T16:11:45Z,7557359.865,"c(""distractor1"", ""distractor2"", ""distractor3"")",Gesundheit,salama,d,NA,NA,NA,NA,NA,0,NA,NA,NA,NA,NA,NA,NA,NA,NA,NA,NA,NA,NA,NA,NA,NA,NA,NA,NA,NA
41c36,deep,flow.Sequence,1_1_3_0,NA,NA,completion,10042.255,7547292.7,7547284.902,7547301.022,7557343.277,7557345,2023-05-15T16:11:45Z,7557359.865,"c(""distractor1"", ""distractor2"", ""distractor3"")",Gesundheit,salama,d,NA,NA,NA,NA,NA,NA,NA,NA,NA,NA,NA,NA,NA,NA,NA,NA,NA,NA,NA,NA,NA,NA,NA,NA,NA,NA
41c36,shallow,flow.Sequence,1_1_3_1,NA,NA,skipped,NA,7557345.1,NA,NA,7557343.277,7557345.3,2023-05-15T16:11:45Z,7557359.865,"c(""distractor1"", ""distractor2"", ""distractor3"")",Gesundheit,salama,d,NA,NA,NA,NA,NA,NA,NA,NA,NA,NA,NA,NA,NA,NA,NA,NA,NA,NA,NA,NA,NA,NA,NA,NA,NA,NA
41c36,task,flow.Sequence,1_1_3,NA,NA,completion,10042.255,7547292.7,7547284.902,7547301.022,7557343.277,7557345.6,2023-05-15T16:11:45Z,7557359.865,"c(""distractor1"", ""distractor2"", ""distractor3"")",Gesundheit,salama,d,NA,NA,NA,NA,NA,NA,NA,NA,NA,NA,NA,NA,NA,NA,NA,NA,NA,NA,NA,NA,NA,NA,NA,NA,NA,NA
41c36,Deep Question,html.Page,1_1_4_0_0,NA,NA,form submission,4522.9350000117,7557345.9,7557343.277,7557359.865,7561882.8,7561883,2023-05-15T16:11:49Z,7561888.923,"c(""distractor1"", ""distractor2"", ""distractor3"")",Qualität,mtindo,d,NA,NA,NA,rtjon,NA,NA,NA,NA,NA,NA,NA,NA,NA,NA,NA,NA,NA,NA,NA,NA,NA,NA,NA,NA,NA,NA
41c36,"""Richtig""-Screen",canvas.Screen,1_1_4_0_1,NA,NA,skipped,NA,7561885.1,NA,NA,7561882.8,7561885.2,2023-05-15T16:11:49Z,7561888.923,"c(""distractor1"", ""distractor2"", ""distractor3"")",Qualität,mtindo,d,NA,NA,NA,NA,NA,NA,NA,NA,NA,NA,NA,NA,NA,NA,NA,NA,NA,NA,NA,NA,NA,NA,NA,NA,NA,NA
41c36,"""Falsch""-Screen",canvas.Screen,1_1_4_0_2,NA,NA,timeout,4996.1059999997,7561885.9,7561872.849,7561888.923,7566868.771,7566869.8,2023-05-15T16:11:54Z,7566885.029,"c(""distractor1"", ""distractor2"", ""distractor3"")",Qualität,mtindo,d,NA,NA,NA,NA,NA,0,NA,NA,NA,NA,NA,NA,NA,NA,NA,NA,NA,NA,NA,NA,NA,NA,NA,NA,NA,NA
41c36,deep,flow.Sequence,1_1_4_0,NA,NA,completion,9508.9059999995,7557345.8,7557343.277,7557359.865,7566868.771,7566870.3,2023-05-15T16:11:54Z,7566885.029,"c(""distractor1"", ""distractor2"", ""distractor3"")",Qualität,mtindo,d,NA,NA,NA,NA,NA,NA,NA,NA,NA,NA,NA,NA,NA,NA,NA,NA,NA,NA,NA,NA,NA,NA,NA,NA,NA,NA
41c36,shallow,flow.Sequence,1_1_4_1,NA,NA,skipped,NA,7566870.4,NA,NA,7566868.771,7566870.6,2023-05-15T16:11:54Z,7566885.029,"c(""distractor1"", ""distractor2"", ""distractor3"")",Qualität,mtindo,d,NA,NA,NA,NA,NA,NA,NA,NA,NA,NA,NA,NA,NA,NA,NA,NA,NA,NA,NA,NA,NA,NA,NA,NA,NA,NA
41c36,task,flow.Sequence,1_1_4,NA,NA,completion,9508.9059999995,7557345.8,7557343.277,7557359.865,7566868.771,7566870.9,2023-05-15T16:11:54Z,7566885.029,"c(""distractor1"", ""distractor2"", ""distractor3"")",Qualität,mtindo,d,NA,NA,NA,NA,NA,NA,NA,NA,NA,NA,NA,NA,NA,NA,NA,NA,NA,NA,NA,NA,NA,NA,NA,NA,NA,NA
41c36,deep,flow.Sequence,1_1_5_0,NA,NA,skipped,NA,7566871.1,NA,NA,7566868.771,7566871.2,2023-05-15T16:11:54Z,7566885.029,"c(""distractor1"", ""distractor2"", ""distractor3"")",Kritik,lawama,s,dereva,nafasi,mawazo,NA,NA,NA,NA,NA,NA,NA,NA,NA,NA,NA,NA,NA,NA,NA,NA,NA,NA,NA,NA,NA,NA,NA
41c36,Shallow Question,html.Page,1_1_5_1_0,NA,NA,form submission,12825.170999988,7566871.3,7566868.771,7566885.029,7579710.2,7579710.3,2023-05-15T16:12:07Z,7579724.724,"c(""distractor1"", ""distractor2"", ""distractor3"")",Kritik,lawama,s,dereva,nafasi,mawazo,lawama,NA,NA,NA,NA,NA,NA,NA,NA,NA,NA,NA,NA,NA,NA,NA,NA,NA,NA,NA,NA,NA,NA
41c36,"""Richtig""-Screen",canvas.Screen,1_1_5_1_1,NA,NA,timeout,4995.5209999997,7579712.2,7579708.056,7579724.724,7584704.017,7584705.2,2023-05-15T16:12:12Z,7584720.245,"c(""distractor1"", ""distractor2"", ""distractor3"")",Kritik,lawama,s,dereva,nafasi,mawazo,NA,NA,1,NA,NA,NA,NA,NA,NA,NA,NA,NA,NA,NA,NA,NA,NA,NA,NA,NA,NA,NA,NA
41c36,"""Falsch""-Screen",canvas.Screen,1_1_5_1_2,NA,NA,skipped,NA,7584710.6,NA,NA,7584704.017,7584711,2023-05-15T16:12:12Z,7584720.245,"c(""distractor1"", ""distractor2"", ""distractor3"")",Kritik,lawama,s,dereva,nafasi,mawazo,NA,NA,NA,NA,NA,NA,NA,NA,NA,NA,NA,NA,NA,NA,NA,NA,NA,NA,NA,NA,NA,NA,NA
41c36,shallow,flow.Sequence,1_1_5_1,NA,NA,completion,17818.988,7566871.3,7566868.771,7566885.029,7584704.017,7584711.5,2023-05-15T16:12:12Z,7584720.245,"c(""distractor1"", ""distractor2"", ""distractor3"")",Kritik,lawama,s,dereva,nafasi,mawazo,NA,NA,NA,NA,NA,NA,NA,NA,NA,NA,NA,NA,NA,NA,NA,NA,NA,NA,NA,NA,NA,NA,NA
41c36,task,flow.Sequence,1_1_5,NA,NA,completion,17818.988,7566871,7566868.771,7566885.029,7584704.017,7584711.7,2023-05-15T16:12:12Z,7584720.245,"c(""distractor1"", ""distractor2"", ""distractor3"")",Kritik,lawama,s,dereva,nafasi,mawazo,NA,NA,NA,NA,NA,NA,NA,NA,NA,NA,NA,NA,NA,NA,NA,NA,NA,NA,NA,NA,NA,NA,NA
41c36,block,flow.Loop,1_1,NA,NA,completion,84714.071,7499977,7499972.663,7499989.946,7584704.017,7584712,2023-05-15T16:12:12Z,7584720.245,"c(""distractor1"", ""distractor2"", ""distractor3"")",NA,NA,NA,NA,NA,NA,NA,NA,NA,NA,NA,NA,NA,NA,NA,NA,NA,NA,NA,NA,NA,NA,NA,NA,NA,NA,NA,NA,NA
41c36,Practice,flow.Sequence,1,NA,NA,completion,96520.987,7488174.3,7488166.374,7488183.03,7584704.017,7584712.5,2023-05-15T16:12:12Z,7584720.245,NULL,NA,NA,NA,NA,NA,NA,NA,NA,NA,NA,NA,NA,NA,NA,NA,NA,NA,NA,NA,NA,NA,NA,NA,NA,NA,NA,NA,NA,NA
41c36,Experiment start,canvas.Screen,2,weiter,keypress(q),response,17304.255,7584712.7,7584704.017,7584720.245,7602024.5,7602025.9,2023-05-15T16:12:29Z,7602288.985,NULL,NA,NA,NA,NA,NA,NA,NA,NA,NA,NA,NA,NA,NA,NA,NA,NA,NA,NA,NA,NA,NA,NA,NA,NA,NA,NA,NA,NA,NA
41c36,deep,flow.Sequence,3_0_0_0_0_0,NA,NA,skipped,NA,7602278.3,NA,NA,7602024.5,7602278.5,2023-05-15T16:12:30Z,7602288.985,NULL,Schönheit,kirembo,s,mahojiano,msisimko,jitihadi,NA,sdf,NA,0,NA,NA,NA,NA,NA,NA,NA,NA,NA,NA,NA,NA,NA,NA,NA,NA,NA,NA,NA
41c36,Shallow Question,html.Page,3_0_0_0_0_1_0,NA,NA,form submission,8529.3150000116,7602278.6,7602271.967,7602288.985,7610818.3,7610819.1,2023-05-15T16:12:38Z,7610832.035,NULL,Schönheit,kirembo,s,mahojiano,msisimko,jitihadi,mahojiano,NA,NA,0,NA,NA,NA,NA,NA,NA,NA,NA,NA,NA,NA,NA,NA,NA,NA,NA,NA,NA,NA
41c36,"""Richtig""-Screen",canvas.Screen,3_0_0_0_0_1_1,NA,NA,skipped,NA,7610828.1,NA,NA,7610818.3,7610828.6,2023-05-15T16:12:38Z,7610832.035,NULL,Schönheit,kirembo,s,mahojiano,msisimko,jitihadi,NA,sdf,NA,0,NA,NA,NA,NA,NA,NA,NA,NA,NA,NA,NA,NA,NA,NA,NA,NA,NA,NA,NA
41c36,"""Falsch""-Screen",canvas.Screen,3_0_0_0_0_1_2,NA,NA,timeout,4995.9079999998,7610831.3,7610815.458,7610832.035,7615811.809,7615812.8,2023-05-15T16:12:43Z,7615827.943,NULL,Schönheit,kirembo,s,mahojiano,msisimko,jitihadi,NA,sdf,0,0,NA,NA,NA,NA,NA,NA,NA,NA,NA,NA,NA,NA,NA,NA,NA,NA,NA,NA,NA
41c36,shallow,flow.Sequence,3_0_0_0_0_1,NA,NA,completion,13522.824,7602278.6,7602271.967,7602288.985,7615811.809,7615813.3,2023-05-15T16:12:43Z,7615827.943,NULL,Schönheit,kirembo,s,mahojiano,msisimko,jitihadi,NA,sdf,NA,0,NA,NA,NA,NA,NA,NA,NA,NA,NA,NA,NA,NA,NA,NA,NA,NA,NA,NA,NA
41c36,task,flow.Sequence,3_0_0_0_0,NA,NA,completion,13522.824,7602278.3,7602271.967,7602288.985,7615811.809,7615813.5,2023-05-15T16:12:43Z,7615827.943,NULL,Schönheit,kirembo,s,mahojiano,msisimko,jitihadi,NA,sdf,NA,0,NA,NA,NA,NA,NA,NA,NA,NA,NA,NA,NA,NA,NA,NA,NA,NA,NA,NA,NA
41c36,deep,flow.Sequence,3_0_0_0_1_0,NA,NA,skipped,NA,7615813.7,NA,NA,7615811.809,7615813.9,2023-05-15T16:12:43Z,7615827.943,NULL,Kanzler,diwani,s,rasilmali,mahitaji,maabudu,NA,sdf,NA,0,NA,NA,NA,NA,NA,NA,NA,NA,NA,NA,NA,NA,NA,NA,NA,NA,NA,NA,NA
41c36,Shallow Question,html.Page,3_0_0_0_1_1_0,NA,NA,form submission,4593.4570000358,7615814,7615811.809,7615827.943,7620421.4,7620421.8,2023-05-15T16:12:48Z,7620424.155,NULL,Kanzler,diwani,s,rasilmali,mahitaji,maabudu,diwani,NA,NA,0,NA,NA,NA,NA,NA,NA,NA,NA,NA,NA,NA,NA,NA,NA,NA,NA,NA,NA,NA
41c36,"""Richtig""-Screen",canvas.Screen,3_0_0_0_1_1_1,NA,NA,timeout,4995.8599999994,7620429.8,7620408.03,7620424.155,7625403.898,7625405,2023-05-15T16:12:53Z,7625420.015,NULL,Kanzler,diwani,s,rasilmali,mahitaji,maabudu,NA,sdf,1,0,NA,NA,NA,NA,NA,NA,NA,NA,NA,NA,NA,NA,NA,NA,NA,NA,NA,NA,NA
41c36,"""Falsch""-Screen",canvas.Screen,3_0_0_0_1_1_2,NA,NA,skipped,NA,7625410.1,NA,NA,7625403.898,7625410.4,2023-05-15T16:12:53Z,7625420.015,NULL,Kanzler,diwani,s,rasilmali,mahitaji,maabudu,NA,sdf,NA,0,NA,NA,NA,NA,NA,NA,NA,NA,NA,NA,NA,NA,NA,NA,NA,NA,NA,NA,NA
41c36,shallow,flow.Sequence,3_0_0_0_1_1,NA,NA,completion,9575.9550000001,7615814,7615811.809,7615827.943,7625403.898,7625410.8,2023-05-15T16:12:53Z,7625420.015,NULL,Kanzler,diwani,s,rasilmali,mahitaji,maabudu,NA,sdf,NA,0,NA,NA,NA,NA,NA,NA,NA,NA,NA,NA,NA,NA,NA,NA,NA,NA,NA,NA,NA
41c36,task,flow.Sequence,3_0_0_0_1,NA,NA,completion,9575.9550000001,7615813.7,7615811.809,7615827.943,7625403.898,7625411.1,2023-05-15T16:12:53Z,7625420.015,NULL,Kanzler,diwani,s,rasilmali,mahitaji,maabudu,NA,sdf,NA,0,NA,NA,NA,NA,NA,NA,NA,NA,NA,NA,NA,NA,NA,NA,NA,NA,NA,NA,NA
41c36,Deep Question,html.Page,3_0_0_0_2_0_0,NA,NA,form submission,3489.6849999884,7625411.3,7625403.898,7625420.015,7628909.7,7628910,2023-05-15T16:12:56Z,7628917.07,NULL,Wettbewerb,ushindani,d,NA,NA,NA,dgf,NA,NA,0,NA,NA,NA,NA,NA,NA,NA,NA,NA,NA,NA,NA,NA,NA,NA,NA,NA,NA,NA
41c36,"""Richtig""-Screen",canvas.Screen,3_0_0_0_2_0_1,NA,NA,skipped,NA,7628912.4,NA,NA,7628909.7,7628912.6,2023-05-15T16:12:56Z,7628917.07,NULL,Wettbewerb,ushindani,d,NA,NA,NA,NA,sdf,NA,0,NA,NA,NA,NA,NA,NA,NA,NA,NA,NA,NA,NA,NA,NA,NA,NA,NA,NA,NA
41c36,"""Falsch""-Screen",canvas.Screen,3_0_0_0_2_0_2,NA,NA,timeout,4995.9679999994,7628913.6,7628900.51,7628917.07,7633896.824,7633897.8,2023-05-15T16:13:01Z,7633913.038,NULL,Wettbewerb,ushindani,d,NA,NA,NA,NA,sdf,0,0,NA,NA,NA,NA,NA,NA,NA,NA,NA,NA,NA,NA,NA,NA,NA,NA,NA,NA,NA
41c36,deep,flow.Sequence,3_0_0_0_2_0,NA,NA,completion,8476.8090000004,7625411.2,7625403.898,7625420.015,7633896.824,7633898.2,2023-05-15T16:13:01Z,7633913.038,NULL,Wettbewerb,ushindani,d,NA,NA,NA,NA,sdf,NA,0,NA,NA,NA,NA,NA,NA,NA,NA,NA,NA,NA,NA,NA,NA,NA,NA,NA,NA,NA
41c36,shallow,flow.Sequence,3_0_0_0_2_1,NA,NA,skipped,NA,7633898.4,NA,NA,7633896.824,7633898.6,2023-05-15T16:13:01Z,7633913.038,NULL,Wettbewerb,ushindani,d,NA,NA,NA,NA,sdf,NA,0,NA,NA,NA,NA,NA,NA,NA,NA,NA,NA,NA,NA,NA,NA,NA,NA,NA,NA,NA
41c36,task,flow.Sequence,3_0_0_0_2,NA,NA,completion,8476.8090000004,7625411.2,7625403.898,7625420.015,7633896.824,7633898.8,2023-05-15T16:13:01Z,7633913.038,NULL,Wettbewerb,ushindani,d,NA,NA,NA,NA,sdf,NA,0,NA,NA,NA,NA,NA,NA,NA,NA,NA,NA,NA,NA,NA,NA,NA,NA,NA,NA,NA
41c36,Deep Question,html.Page,3_0_0_0_3_0_0,NA,NA,form submission,2902.2620000122,7633899,7633896.824,7633913.038,7636815.3,7636815.5,2023-05-15T16:13:04Z,7636827.268,NULL,Angreifer,mshambulizi,d,NA,NA,NA,sf,NA,NA,0,NA,NA,NA,NA,NA,NA,NA,NA,NA,NA,NA,NA,NA,NA,NA,NA,NA,NA,NA
41c36,"""Richtig""-Screen",canvas.Screen,3_0_0_0_3_0_1,NA,NA,skipped,NA,7636818.1,NA,NA,7636815.3,7636818.2,2023-05-15T16:13:04Z,7636827.268,NULL,Angreifer,mshambulizi,d,NA,NA,NA,NA,sdf,NA,0,NA,NA,NA,NA,NA,NA,NA,NA,NA,NA,NA,NA,NA,NA,NA,NA,NA,NA,NA
41c36,"""Falsch""-Screen",canvas.Screen,3_0_0_0_3_0_2,NA,NA,timeout,4996.4589999998,7636819.2,7636811.2,7636827.268,7641807.067,7641808.1,2023-05-15T16:13:09Z,7641823.727,NULL,Angreifer,mshambulizi,d,NA,NA,NA,NA,sdf,0,0,NA,NA,NA,NA,NA,NA,NA,NA,NA,NA,NA,NA,NA,NA,NA,NA,NA,NA,NA
41c36,deep,flow.Sequence,3_0_0_0_3_0,NA,NA,completion,7894.0290000001,7633898.9,7633896.824,7633913.038,7641807.067,7641808.5,2023-05-15T16:13:09Z,7641823.727,NULL,Angreifer,mshambulizi,d,NA,NA,NA,NA,sdf,NA,0,NA,NA,NA,NA,NA,NA,NA,NA,NA,NA,NA,NA,NA,NA,NA,NA,NA,NA,NA
41c36,shallow,flow.Sequence,3_0_0_0_3_1,NA,NA,skipped,NA,7641808.7,NA,NA,7641807.067,7641808.8,2023-05-15T16:13:09Z,7641823.727,NULL,Angreifer,mshambulizi,d,NA,NA,NA,NA,sdf,NA,0,NA,NA,NA,NA,NA,NA,NA,NA,NA,NA,NA,NA,NA,NA,NA,NA,NA,NA,NA
41c36,task,flow.Sequence,3_0_0_0_3,NA,NA,completion,7894.0290000001,7633898.9,7633896.824,7633913.038,7641807.067,7641809.1,2023-05-15T16:13:09Z,7641823.727,NULL,Angreifer,mshambulizi,d,NA,NA,NA,NA,sdf,NA,0,NA,NA,NA,NA,NA,NA,NA,NA,NA,NA,NA,NA,NA,NA,NA,NA,NA,NA,NA
41c36,Deep Question,html.Page,3_0_0_0_4_0_0,NA,NA,form submission,4722.8730000239,7641809.3,7641807.067,7641823.727,7646546.6,7646546.8,2023-05-15T16:13:14Z,7646552.544,NULL,Sänger,mwimbaji,d,NA,NA,NA,sdf,NA,NA,0,NA,NA,NA,NA,NA,NA,NA,NA,NA,NA,NA,NA,NA,NA,NA,NA,NA,NA,NA
41c36,"""Richtig""-Screen",canvas.Screen,3_0_0_0_4_0_1,NA,NA,skipped,NA,7646548.7,NA,NA,7646546.6,7646548.8,2023-05-15T16:13:14Z,7646552.544,NULL,Sänger,mwimbaji,d,NA,NA,NA,NA,sdf,NA,0,NA,NA,NA,NA,NA,NA,NA,NA,NA,NA,NA,NA,NA,NA,NA,NA,NA,NA,NA
41c36,"""Falsch""-Screen",canvas.Screen,3_0_0_0_4_0_2,NA,NA,timeout,4996.5190000003,7646549.3,7646536.544,7646552.544,7651532.381,7651533.4,2023-05-15T16:13:19Z,7651549.063,NULL,Sänger,mwimbaji,d,NA,NA,NA,NA,sdf,0,0,NA,NA,NA,NA,NA,NA,NA,NA,NA,NA,NA,NA,NA,NA,NA,NA,NA,NA,NA
41c36,deep,flow.Sequence,3_0_0_0_4_0,NA,NA,completion,9708.6540000001,7641809.2,7641807.067,7641823.727,7651532.381,7651533.8,2023-05-15T16:13:19Z,7651549.063,NULL,Sänger,mwimbaji,d,NA,NA,NA,NA,sdf,NA,0,NA,NA,NA,NA,NA,NA,NA,NA,NA,NA,NA,NA,NA,NA,NA,NA,NA,NA,NA
41c36,shallow,flow.Sequence,3_0_0_0_4_1,NA,NA,skipped,NA,7651534,NA,NA,7651532.381,7651534.1,2023-05-15T16:13:19Z,7651549.063,NULL,Sänger,mwimbaji,d,NA,NA,NA,NA,sdf,NA,0,NA,NA,NA,NA,NA,NA,NA,NA,NA,NA,NA,NA,NA,NA,NA,NA,NA,NA,NA
41c36,task,flow.Sequence,3_0_0_0_4,NA,NA,completion,9708.6540000001,7641809.1,7641807.067,7641823.727,7651532.381,7651534.4,2023-05-15T16:13:19Z,7651549.063,NULL,Sänger,mwimbaji,d,NA,NA,NA,NA,sdf,NA,0,NA,NA,NA,NA,NA,NA,NA,NA,NA,NA,NA,NA,NA,NA,NA,NA,NA,NA,NA
41c36,Deep Question,html.Page,3_0_0_0_5_0_0,NA,NA,form submission,4720.8370000357,7651534.5,7651532.381,7651549.063,7656269.9,7656270,2023-05-15T16:13:24Z,7656277.88,NULL,Auftrag,uagizaji,d,NA,NA,NA,zt,NA,NA,0,NA,NA,NA,NA,NA,NA,NA,NA,NA,NA,NA,NA,NA,NA,NA,NA,NA,NA,NA
41c36,"""Richtig""-Screen",canvas.Screen,3_0_0_0_5_0_1,NA,NA,skipped,NA,7656272.7,NA,NA,7656269.9,7656272.8,2023-05-15T16:13:24Z,7656277.88,NULL,Auftrag,uagizaji,d,NA,NA,NA,NA,sdf,NA,0,NA,NA,NA,NA,NA,NA,NA,NA,NA,NA,NA,NA,NA,NA,NA,NA,NA,NA,NA
41c36,"""Falsch""-Screen",canvas.Screen,3_0_0_0_5_0_2,NA,NA,timeout,4996.0329999998,7656273.6,7656261.865,7656277.88,7661257.711,7661258.7,2023-05-15T16:13:29Z,7661273.913,NULL,Auftrag,uagizaji,d,NA,NA,NA,NA,sdf,0,0,NA,NA,NA,NA,NA,NA,NA,NA,NA,NA,NA,NA,NA,NA,NA,NA,NA,NA,NA
41c36,deep,flow.Sequence,3_0_0_0_5_0,NA,NA,completion,9708.648,7651534.5,7651532.381,7651549.063,7661257.711,7661259.2,2023-05-15T16:13:29Z,7661273.913,NULL,Auftrag,uagizaji,d,NA,NA,NA,NA,sdf,NA,0,NA,NA,NA,NA,NA,NA,NA,NA,NA,NA,NA,NA,NA,NA,NA,NA,NA,NA,NA
41c36,shallow,flow.Sequence,3_0_0_0_5_1,NA,NA,skipped,NA,7661259.3,NA,NA,7661257.711,7661261,2023-05-15T16:13:29Z,7661273.913,NULL,Auftrag,uagizaji,d,NA,NA,NA,NA,sdf,NA,0,NA,NA,NA,NA,NA,NA,NA,NA,NA,NA,NA,NA,NA,NA,NA,NA,NA,NA,NA
41c36,task,flow.Sequence,3_0_0_0_5,NA,NA,completion,9708.648,7651534.4,7651532.381,7651549.063,7661257.711,7661261.3,2023-05-15T16:13:29Z,7661273.913,NULL,Auftrag,uagizaji,d,NA,NA,NA,NA,sdf,NA,0,NA,NA,NA,NA,NA,NA,NA,NA,NA,NA,NA,NA,NA,NA,NA,NA,NA,NA,NA
41c36,deep,flow.Sequence,3_0_0_0_6_0,NA,NA,skipped,NA,7661261.5,NA,NA,7661257.711,7661261.7,2023-05-15T16:13:29Z,7661273.913,NULL,Zufall,kikuti,s,kukosekana,uchoraji,leseni,NA,sdf,NA,0,NA,NA,NA,NA,NA,NA,NA,NA,NA,NA,NA,NA,NA,NA,NA,NA,NA,NA,NA
41c36,Shallow Question,html.Page,3_0_0_0_6_1_0,NA,NA,form submission,3937.6870000241,7661261.9,7661257.711,7661273.913,7665211.6,7665211.9,2023-05-15T16:13:33Z,7665220.751,NULL,Zufall,kikuti,s,kukosekana,uchoraji,leseni,kikuti,NA,NA,0,NA,NA,NA,NA,NA,NA,NA,NA,NA,NA,NA,NA,NA,NA,NA,NA,NA,NA,NA
41c36,"""Richtig""-Screen",canvas.Screen,3_0_0_0_6_1_1,NA,NA,timeout,4995.7019999996,7665213.9,7665204.483,7665220.751,7670200.187,7670201.3,2023-05-15T16:13:38Z,7670216.453,NULL,Zufall,kikuti,s,kukosekana,uchoraji,leseni,NA,sdf,1,0,NA,NA,NA,NA,NA,NA,NA,NA,NA,NA,NA,NA,NA,NA,NA,NA,NA,NA,NA
41c36,"""Falsch""-Screen",canvas.Screen,3_0_0_0_6_1_2,NA,NA,skipped,NA,7670206.4,NA,NA,7670200.187,7670206.7,2023-05-15T16:13:38Z,7670216.453,NULL,Zufall,kikuti,s,kukosekana,uchoraji,leseni,NA,sdf,NA,0,NA,NA,NA,NA,NA,NA,NA,NA,NA,NA,NA,NA,NA,NA,NA,NA,NA,NA,NA
41c36,shallow,flow.Sequence,3_0_0_0_6_1,NA,NA,completion,8926.2740000002,7661261.8,7661257.711,7661273.913,7670200.187,7670207.2,2023-05-15T16:13:38Z,7670216.453,NULL,Zufall,kikuti,s,kukosekana,uchoraji,leseni,NA,sdf,NA,0,NA,NA,NA,NA,NA,NA,NA,NA,NA,NA,NA,NA,NA,NA,NA,NA,NA,NA,NA
41c36,task,flow.Sequence,3_0_0_0_6,NA,NA,completion,8926.2740000002,7661261.5,7661257.711,7661273.913,7670200.187,7670207.4,2023-05-15T16:13:38Z,7670216.453,NULL,Zufall,kikuti,s,kukosekana,uchoraji,leseni,NA,sdf,NA,0,NA,NA,NA,NA,NA,NA,NA,NA,NA,NA,NA,NA,NA,NA,NA,NA,NA,NA,NA
41c36,deep,flow.Sequence,3_0_0_0_7_0,NA,NA,skipped,NA,7670207.6,NA,NA,7670200.187,7670207.8,2023-05-15T16:13:38Z,7670216.453,NULL,Abrechnung,uhasibu,s,kusahihisha,mpambano,mashambulizi,NA,sdf,NA,0,NA,NA,NA,NA,NA,NA,NA,NA,NA,NA,NA,NA,NA,NA,NA,NA,NA,NA,NA
41c36,Shallow Question,html.Page,3_0_0_0_7_1_0,NA,NA,form submission,7109.3470000122,7670208,7670200.187,7670216.453,7677325.8,7677326,2023-05-15T16:13:45Z,7677327.222,NULL,Abrechnung,uhasibu,s,kusahihisha,mpambano,mashambulizi,mashambulizi,NA,NA,0,NA,NA,NA,NA,NA,NA,NA,NA,NA,NA,NA,NA,NA,NA,NA,NA,NA,NA,NA
41c36,"""Richtig""-Screen",canvas.Screen,3_0_0_0_7_1_1,NA,NA,skipped,NA,7677327.9,NA,NA,7677325.8,7677328.1,2023-05-15T16:13:45Z,7677327.222,NULL,Abrechnung,uhasibu,s,kusahihisha,mpambano,mashambulizi,NA,sdf,NA,0,NA,NA,NA,NA,NA,NA,NA,NA,NA,NA,NA,NA,NA,NA,NA,NA,NA,NA,NA
41c36,"""Falsch""-Screen",canvas.Screen,3_0_0_0_7_1_2,NA,NA,timeout,4996.0099999998,7677328.9,7677311.168,7677327.222,7682306.547,7682307.6,2023-05-15T16:13:50Z,7682323.232,NULL,Abrechnung,uhasibu,s,kusahihisha,mpambano,mashambulizi,NA,sdf,0,0,NA,NA,NA,NA,NA,NA,NA,NA,NA,NA,NA,NA,NA,NA,NA,NA,NA,NA,NA
41c36,shallow,flow.Sequence,3_0_0_0_7_1,NA,NA,completion,12090.094000001,7670207.9,7670200.187,7670216.453,7682306.547,7682308.3,2023-05-15T16:13:50Z,7682323.232,NULL,Abrechnung,uhasibu,s,kusahihisha,mpambano,mashambulizi,NA,sdf,NA,0,NA,NA,NA,NA,NA,NA,NA,NA,NA,NA,NA,NA,NA,NA,NA,NA,NA,NA,NA
41c36,task,flow.Sequence,3_0_0_0_7,NA,NA,completion,12090.094000001,7670207.6,7670200.187,7670216.453,7682306.547,7682308.6,2023-05-15T16:13:50Z,7682323.232,NULL,Abrechnung,uhasibu,s,kusahihisha,mpambano,mashambulizi,NA,sdf,NA,0,NA,NA,NA,NA,NA,NA,NA,NA,NA,NA,NA,NA,NA,NA,NA,NA,NA,NA,NA
41c36,block,flow.Loop,3_0_0_0,NA,NA,completion,80017.562,7602278.3,7602271.967,7602288.985,7682306.547,7682309,2023-05-15T16:13:50Z,7682323.232,NULL,NA,NA,NA,NA,NA,NA,NA,sdf,NA,0,NA,NA,NA,NA,NA,NA,NA,NA,NA,NA,NA,NA,NA,NA,NA,NA,NA,NA,NA
41c36,weiter,canvas.Screen,3_0_0_1,sdf,keypress(Space),response,2480.7680000002,7682309.2,7682306.547,7682323.232,7684804,7684805.5,2023-05-15T16:13:52Z,7684904.38,NULL,NA,NA,NA,NA,NA,NA,NA,sdf,NA,0,NA,NA,NA,NA,NA,NA,NA,NA,NA,NA,NA,NA,NA,NA,NA,NA,NA,NA,NA
41c36,check continue,flow.Sequence,3_0_0,NA,NA,completion,82515.015,7602278.2,7602271.967,7602288.985,7684804,7684805.8,2023-05-15T16:13:52Z,7684904.38,NULL,NA,NA,NA,NA,NA,NA,NA,sdf,NA,0,NA,NA,NA,NA,NA,NA,NA,NA,NA,NA,NA,NA,NA,NA,NA,NA,NA,NA,NA
41c36,deep,flow.Sequence,3_0_1_0_0_0,NA,NA,skipped,NA,7684890,NA,NA,7684804,7684890.3,2023-05-15T16:13:52Z,7684904.38,NULL,Kanzler,diwani,s,rasilmali,mahitaji,maabudu,NA,sdfdsf,NA,1,NA,NA,NA,NA,NA,NA,NA,NA,NA,NA,NA,NA,NA,NA,NA,NA,NA,NA,NA
41c36,Shallow Question,html.Page,3_0_1_0_0_1_0,NA,NA,form submission,4049.1200000001,7684890.5,7684888.128,7684904.38,7688953.5,7688953.7,2023-05-15T16:13:56Z,7688968.215,NULL,Kanzler,diwani,s,rasilmali,mahitaji,maabudu,diwani,NA,NA,1,NA,NA,NA,NA,NA,NA,NA,NA,NA,NA,NA,NA,NA,NA,NA,NA,NA,NA,NA
41c36,"""Richtig""-Screen",canvas.Screen,3_0_1_0_0_1_1,NA,NA,timeout,4995.4699999997,7688955.7,7688951.57,7688968.215,7693947.489,7693948.6,2023-05-15T16:14:01Z,7693963.685,NULL,Kanzler,diwani,s,rasilmali,mahitaji,maabudu,NA,sdfdsf,1,1,NA,NA,NA,NA,NA,NA,NA,NA,NA,NA,NA,NA,NA,NA,NA,NA,NA,NA,NA
41c36,"""Falsch""-Screen",canvas.Screen,3_0_1_0_0_1_2,NA,NA,skipped,NA,7693953.7,NA,NA,7693947.489,7693953.9,2023-05-15T16:14:01Z,7693963.685,NULL,Kanzler,diwani,s,rasilmali,mahitaji,maabudu,NA,sdfdsf,NA,1,NA,NA,NA,NA,NA,NA,NA,NA,NA,NA,NA,NA,NA,NA,NA,NA,NA,NA,NA
41c36,shallow,flow.Sequence,3_0_1_0_0_1,NA,NA,completion,9043.1090000002,7684890.5,7684888.128,7684904.38,7693947.489,7693954.4,2023-05-15T16:14:01Z,7693963.685,NULL,Kanzler,diwani,s,rasilmali,mahitaji,maabudu,NA,sdfdsf,NA,1,NA,NA,NA,NA,NA,NA,NA,NA,NA,NA,NA,NA,NA,NA,NA,NA,NA,NA,NA
41c36,task,flow.Sequence,3_0_1_0_0,NA,NA,completion,9043.1090000002,7684890,7684888.128,7684904.38,7693947.489,7693954.6,2023-05-15T16:14:01Z,7693963.685,NULL,Kanzler,diwani,s,rasilmali,mahitaji,maabudu,NA,sdfdsf,NA,1,NA,NA,NA,NA,NA,NA,NA,NA,NA,NA,NA,NA,NA,NA,NA,NA,NA,NA,NA
41c36,deep,flow.Sequence,3_0_1_0_1_0,NA,NA,skipped,NA,7693954.9,NA,NA,7693947.489,7693955,2023-05-15T16:14:01Z,7693963.685,NULL,Abrechnung,uhasibu,s,kusahihisha,mpambano,mashambulizi,NA,sdfdsf,NA,1,NA,NA,NA,NA,NA,NA,NA,NA,NA,NA,NA,NA,NA,NA,NA,NA,NA,NA,NA
41c36,Shallow Question,html.Page,3_0_1_0_1_1_0,NA,NA,form submission,5677.1150000123,7693955.2,7693947.489,7693963.685,7699640.8,7699641,2023-05-15T16:14:07Z,7699642.22,NULL,Abrechnung,uhasibu,s,kusahihisha,mpambano,mashambulizi,kusahihisha,NA,NA,1,NA,NA,NA,NA,NA,NA,NA,NA,NA,NA,NA,NA,NA,NA,NA,NA,NA,NA,NA
41c36,"""Richtig""-Screen",canvas.Screen,3_0_1_0_1_1_1,NA,NA,skipped,NA,7699643,NA,NA,7699640.8,7699643.1,2023-05-15T16:14:07Z,7699642.22,NULL,Abrechnung,uhasibu,s,kusahihisha,mpambano,mashambulizi,NA,sdfdsf,NA,1,NA,NA,NA,NA,NA,NA,NA,NA,NA,NA,NA,NA,NA,NA,NA,NA,NA,NA,NA
41c36,"""Falsch""-Screen",canvas.Screen,3_0_1_0_1_1_2,NA,NA,timeout,4995.9419999998,7699643.7,7699626.097,7699642.22,7704622.007,7704623,2023-05-15T16:14:12Z,7704638.162,NULL,Abrechnung,uhasibu,s,kusahihisha,mpambano,mashambulizi,NA,sdfdsf,0,1,NA,NA,NA,NA,NA,NA,NA,NA,NA,NA,NA,NA,NA,NA,NA,NA,NA,NA,NA
41c36,shallow,flow.Sequence,3_0_1_0_1_1,NA,NA,completion,10658.322000001,7693955.1,7693947.489,7693963.685,7704622.007,7704623.5,2023-05-15T16:14:12Z,7704638.162,NULL,Abrechnung,uhasibu,s,kusahihisha,mpambano,mashambulizi,NA,sdfdsf,NA,1,NA,NA,NA,NA,NA,NA,NA,NA,NA,NA,NA,NA,NA,NA,NA,NA,NA,NA,NA
41c36,task,flow.Sequence,3_0_1_0_1,NA,NA,completion,10658.322000001,7693954.8,7693947.489,7693963.685,7704622.007,7704623.7,2023-05-15T16:14:12Z,7704638.162,NULL,Abrechnung,uhasibu,s,kusahihisha,mpambano,mashambulizi,NA,sdfdsf,NA,1,NA,NA,NA,NA,NA,NA,NA,NA,NA,NA,NA,NA,NA,NA,NA,NA,NA,NA,NA
41c36,Deep Question,html.Page,3_0_1_0_2_0_0,NA,NA,form submission,6161.1380000124,7704624.1,7704622.007,7704638.162,7710799.3,7710799.4,2023-05-15T16:14:18Z,7710823.595,NULL,Sänger,mwimbaji,d,NA,NA,NA,ji,NA,NA,1,NA,NA,NA,NA,NA,NA,NA,NA,NA,NA,NA,NA,NA,NA,NA,NA,NA,NA,NA
41c36,"""Richtig""-Screen",canvas.Screen,3_0_1_0_2_0_1,NA,NA,skipped,NA,7710801.7,NA,NA,7710799.3,7710801.9,2023-05-15T16:14:18Z,7710823.595,NULL,Sänger,mwimbaji,d,NA,NA,NA,NA,sdfdsf,NA,1,NA,NA,NA,NA,NA,NA,NA,NA,NA,NA,NA,NA,NA,NA,NA,NA,NA,NA,NA
41c36,"""Falsch""-Screen",canvas.Screen,3_0_1_0_2_0_2,NA,NA,timeout,5005.5449999999,7710802.4,7710783.674,7710823.595,7715812.308,7715813.5,2023-05-15T16:14:23Z,7715829.14,NULL,Sänger,mwimbaji,d,NA,NA,NA,NA,sdfdsf,0,1,NA,NA,NA,NA,NA,NA,NA,NA,NA,NA,NA,NA,NA,NA,NA,NA,NA,NA,NA
41c36,deep,flow.Sequence,3_0_1_0_2_0,NA,NA,completion,11174.146000001,7704623.9,7704622.007,7704638.162,7715812.308,7715814.3,2023-05-15T16:14:23Z,7715829.14,NULL,Sänger,mwimbaji,d,NA,NA,NA,NA,sdfdsf,NA,1,NA,NA,NA,NA,NA,NA,NA,NA,NA,NA,NA,NA,NA,NA,NA,NA,NA,NA,NA
41c36,shallow,flow.Sequence,3_0_1_0_2_1,NA,NA,skipped,NA,7715814.5,NA,NA,7715812.308,7715814.8,2023-05-15T16:14:23Z,7715829.14,NULL,Sänger,mwimbaji,d,NA,NA,NA,NA,sdfdsf,NA,1,NA,NA,NA,NA,NA,NA,NA,NA,NA,NA,NA,NA,NA,NA,NA,NA,NA,NA,NA
41c36,task,flow.Sequence,3_0_1_0_2,NA,NA,completion,11174.146000001,7704623.9,7704622.007,7704638.162,7715812.308,7715815,2023-05-15T16:14:23Z,7715829.14,NULL,Sänger,mwimbaji,d,NA,NA,NA,NA,sdfdsf,NA,1,NA,NA,NA,NA,NA,NA,NA,NA,NA,NA,NA,NA,NA,NA,NA,NA,NA,NA,NA
41c36,Deep Question,html.Page,3_0_1_0_3_0_0,NA,NA,form submission,4277.8600000003,7715815.2,7715812.308,7715829.14,7720107,7720107.2,2023-05-15T16:14:27Z,7720108.677,NULL,Angreifer,mshambulizi,d,NA,NA,NA,rte,NA,NA,1,NA,NA,NA,NA,NA,NA,NA,NA,NA,NA,NA,NA,NA,NA,NA,NA,NA,NA,NA
41c36,"""Richtig""-Screen",canvas.Screen,3_0_1_0_3_0_1,NA,NA,skipped,NA,7720109.6,NA,NA,7720107,7720110,2023-05-15T16:14:27Z,7720108.677,NULL,Angreifer,mshambulizi,d,NA,NA,NA,NA,sdfdsf,NA,1,NA,NA,NA,NA,NA,NA,NA,NA,NA,NA,NA,NA,NA,NA,NA,NA,NA,NA,NA
41c36,"""Falsch""-Screen",canvas.Screen,3_0_1_0_3_0_2,NA,NA,timeout,4996.3389999997,7720110.6,7720092.121,7720108.677,7725088.009,7725088.9,2023-05-15T16:14:32Z,7725105.016,NULL,Angreifer,mshambulizi,d,NA,NA,NA,NA,sdfdsf,0,1,NA,NA,NA,NA,NA,NA,NA,NA,NA,NA,NA,NA,NA,NA,NA,NA,NA,NA,NA
41c36,deep,flow.Sequence,3_0_1_0_3_0,NA,NA,completion,9258.8689999999,7715815.2,7715812.308,7715829.14,7725088.009,7725089.5,2023-05-15T16:14:32Z,7725105.016,NULL,Angreifer,mshambulizi,d,NA,NA,NA,NA,sdfdsf,NA,1,NA,NA,NA,NA,NA,NA,NA,NA,NA,NA,NA,NA,NA,NA,NA,NA,NA,NA,NA
41c36,shallow,flow.Sequence,3_0_1_0_3_1,NA,NA,skipped,NA,7725089.9,NA,NA,7725088.009,7725090.1,2023-05-15T16:14:32Z,7725105.016,NULL,Angreifer,mshambulizi,d,NA,NA,NA,NA,sdfdsf,NA,1,NA,NA,NA,NA,NA,NA,NA,NA,NA,NA,NA,NA,NA,NA,NA,NA,NA,NA,NA
41c36,task,flow.Sequence,3_0_1_0_3,NA,NA,completion,9258.8689999999,7715815.2,7715812.308,7715829.14,7725088.009,7725090.5,2023-05-15T16:14:32Z,7725105.016,NULL,Angreifer,mshambulizi,d,NA,NA,NA,NA,sdfdsf,NA,1,NA,NA,NA,NA,NA,NA,NA,NA,NA,NA,NA,NA,NA,NA,NA,NA,NA,NA,NA
41c36,deep,flow.Sequence,3_0_1_0_4_0,NA,NA,skipped,NA,7725090.7,NA,NA,7725088.009,7725090.9,2023-05-15T16:14:32Z,7725105.016,NULL,Zufall,kikuti,s,kukosekana,uchoraji,leseni,NA,sdfdsf,NA,1,NA,NA,NA,NA,NA,NA,NA,NA,NA,NA,NA,NA,NA,NA,NA,NA,NA,NA,NA
41c36,Shallow Question,html.Page,3_0_1_0_4_1_0,NA,NA,form submission,5825.4840000002,7725091.1,7725088.009,7725105.016,7730930.5,7730930.7,2023-05-15T16:14:38Z,7730933.122,NULL,Zufall,kikuti,s,kukosekana,uchoraji,leseni,kikuti,NA,NA,1,NA,NA,NA,NA,NA,NA,NA,NA,NA,NA,NA,NA,NA,NA,NA,NA,NA,NA,NA
41c36,"""Richtig""-Screen",canvas.Screen,3_0_1_0_4_1_1,NA,NA,timeout,4995.8889999995,7730932.4,7730916.79,7730933.122,7735912.935,7735914,2023-05-15T16:14:43Z,7735929.011,NULL,Zufall,kikuti,s,kukosekana,uchoraji,leseni,NA,sdfdsf,1,1,NA,NA,NA,NA,NA,NA,NA,NA,NA,NA,NA,NA,NA,NA,NA,NA,NA,NA,NA
41c36,"""Falsch""-Screen",canvas.Screen,3_0_1_0_4_1_2,NA,NA,skipped,NA,7735919.1,NA,NA,7735912.935,7735919.3,2023-05-15T16:14:43Z,7735929.011,NULL,Zufall,kikuti,s,kukosekana,uchoraji,leseni,NA,sdfdsf,NA,1,NA,NA,NA,NA,NA,NA,NA,NA,NA,NA,NA,NA,NA,NA,NA,NA,NA,NA,NA
41c36,shallow,flow.Sequence,3_0_1_0_4_1,NA,NA,completion,10807.919,7725091.1,7725088.009,7725105.016,7735912.935,7735919.7,2023-05-15T16:14:43Z,7735929.011,NULL,Zufall,kikuti,s,kukosekana,uchoraji,leseni,NA,sdfdsf,NA,1,NA,NA,NA,NA,NA,NA,NA,NA,NA,NA,NA,NA,NA,NA,NA,NA,NA,NA,NA
41c36,task,flow.Sequence,3_0_1_0_4,NA,NA,completion,10807.919,7725090.7,7725088.009,7725105.016,7735912.935,7735920,2023-05-15T16:14:43Z,7735929.011,NULL,Zufall,kikuti,s,kukosekana,uchoraji,leseni,NA,sdfdsf,NA,1,NA,NA,NA,NA,NA,NA,NA,NA,NA,NA,NA,NA,NA,NA,NA,NA,NA,NA,NA
41c36,deep,flow.Sequence,3_0_1_0_5_0,NA,NA,skipped,NA,7735920.1,NA,NA,7735912.935,7735920.3,2023-05-15T16:14:43Z,7735929.011,NULL,Schönheit,kirembo,s,mahojiano,msisimko,jitihadi,NA,sdfdsf,NA,1,NA,NA,NA,NA,NA,NA,NA,NA,NA,NA,NA,NA,NA,NA,NA,NA,NA,NA,NA
41c36,Shallow Question,html.Page,3_0_1_0_5_1_0,NA,NA,form submission,4322.289000012,7735920.4,7735912.935,7735929.011,7740251.3,7740251.6,2023-05-15T16:14:48Z,7740258.881,NULL,Schönheit,kirembo,s,mahojiano,msisimko,jitihadi,kirembo,NA,NA,1,NA,NA,NA,NA,NA,NA,NA,NA,NA,NA,NA,NA,NA,NA,NA,NA,NA,NA,NA
41c36,"""Richtig""-Screen",canvas.Screen,3_0_1_0_5_1_1,NA,NA,timeout,4995.8729999997,7740253.4,7740242.145,7740258.881,7745238.591,7745239.7,2023-05-15T16:14:53Z,7745254.754,NULL,Schönheit,kirembo,s,mahojiano,msisimko,jitihadi,NA,sdfdsf,1,1,NA,NA,NA,NA,NA,NA,NA,NA,NA,NA,NA,NA,NA,NA,NA,NA,NA,NA,NA
41c36,"""Falsch""-Screen",canvas.Screen,3_0_1_0_5_1_2,NA,NA,skipped,NA,7745244.8,NA,NA,7745238.591,7745245.1,2023-05-15T16:14:53Z,7745254.754,NULL,Schönheit,kirembo,s,mahojiano,msisimko,jitihadi,NA,sdfdsf,NA,1,NA,NA,NA,NA,NA,NA,NA,NA,NA,NA,NA,NA,NA,NA,NA,NA,NA,NA,NA
41c36,shallow,flow.Sequence,3_0_1_0_5_1,NA,NA,completion,9309.5800000001,7735920.3,7735912.935,7735929.011,7745238.591,7745245.5,2023-05-15T16:14:53Z,7745254.754,NULL,Schönheit,kirembo,s,mahojiano,msisimko,jitihadi,NA,sdfdsf,NA,1,NA,NA,NA,NA,NA,NA,NA,NA,NA,NA,NA,NA,NA,NA,NA,NA,NA,NA,NA
41c36,task,flow.Sequence,3_0_1_0_5,NA,NA,completion,9309.5800000001,7735920.1,7735912.935,7735929.011,7745238.591,7745245.7,2023-05-15T16:14:53Z,7745254.754,NULL,Schönheit,kirembo,s,mahojiano,msisimko,jitihadi,NA,sdfdsf,NA,1,NA,NA,NA,NA,NA,NA,NA,NA,NA,NA,NA,NA,NA,NA,NA,NA,NA,NA,NA
41c36,Deep Question,html.Page,3_0_1_0_6_0_0,NA,NA,form submission,3879.3460000241,7745246,7745238.591,7745254.754,7749134.1,7749134.3,2023-05-15T16:14:56Z,7749156.948,NULL,Wettbewerb,ushindani,d,NA,NA,NA,dif,NA,NA,1,NA,NA,NA,NA,NA,NA,NA,NA,NA,NA,NA,NA,NA,NA,NA,NA,NA,NA,NA
41c36,"""Richtig""-Screen",canvas.Screen,3_0_1_0_6_0_1,NA,NA,skipped,NA,7749136.4,NA,NA,7749134.1,7749136.6,2023-05-15T16:14:56Z,7749156.948,NULL,Wettbewerb,ushindani,d,NA,NA,NA,NA,sdfdsf,NA,1,NA,NA,NA,NA,NA,NA,NA,NA,NA,NA,NA,NA,NA,NA,NA,NA,NA,NA,NA
41c36,"""Falsch""-Screen",canvas.Screen,3_0_1_0_6_0_2,NA,NA,timeout,5007.4560000002,7749137.1,7749118.728,7749156.948,7754147.94,7754149,2023-05-15T16:15:01Z,7754164.404,NULL,Wettbewerb,ushindani,d,NA,NA,NA,NA,sdfdsf,0,1,NA,NA,NA,NA,NA,NA,NA,NA,NA,NA,NA,NA,NA,NA,NA,NA,NA,NA,NA
41c36,deep,flow.Sequence,3_0_1_0_6_0,NA,NA,completion,8893.1860000007,7745246,7745238.591,7745254.754,7754147.94,7754149.4,2023-05-15T16:15:01Z,7754164.404,NULL,Wettbewerb,ushindani,d,NA,NA,NA,NA,sdfdsf,NA,1,NA,NA,NA,NA,NA,NA,NA,NA,NA,NA,NA,NA,NA,NA,NA,NA,NA,NA,NA
41c36,shallow,flow.Sequence,3_0_1_0_6_1,NA,NA,skipped,NA,7754149.5,NA,NA,7754147.94,7754149.7,2023-05-15T16:15:01Z,7754164.404,NULL,Wettbewerb,ushindani,d,NA,NA,NA,NA,sdfdsf,NA,1,NA,NA,NA,NA,NA,NA,NA,NA,NA,NA,NA,NA,NA,NA,NA,NA,NA,NA,NA
41c36,task,flow.Sequence,3_0_1_0_6,NA,NA,completion,8893.1860000007,7745245.9,7745238.591,7745254.754,7754147.94,7754150,2023-05-15T16:15:01Z,7754164.404,NULL,Wettbewerb,ushindani,d,NA,NA,NA,NA,sdfdsf,NA,1,NA,NA,NA,NA,NA,NA,NA,NA,NA,NA,NA,NA,NA,NA,NA,NA,NA,NA,NA
41c36,Deep Question,html.Page,3_0_1_0_7_0_0,NA,NA,form submission,6663.0959999999,7754150.2,7754147.94,7754164.404,7760827.5,7760827.7,2023-05-15T16:15:08Z,7760842.411,NULL,Auftrag,uagizaji,d,NA,NA,NA,er,NA,NA,1,NA,NA,NA,NA,NA,NA,NA,NA,NA,NA,NA,NA,NA,NA,NA,NA,NA,NA,NA
41c36,"""Richtig""-Screen",canvas.Screen,3_0_1_0_7_0_1,NA,NA,skipped,NA,7760829.6,NA,NA,7760827.5,7760829.7,2023-05-15T16:15:08Z,7760842.411,NULL,Auftrag,uagizaji,d,NA,NA,NA,NA,sdfdsf,NA,1,NA,NA,NA,NA,NA,NA,NA,NA,NA,NA,NA,NA,NA,NA,NA,NA,NA,NA,NA
41c36,"""Falsch""-Screen",canvas.Screen,3_0_1_0_7_0_2,NA,NA,timeout,4995.8810000001,7760830.2,7760825.766,7760842.411,7765821.637,7765822.7,2023-05-15T16:15:13Z,7765838.292,NULL,Auftrag,uagizaji,d,NA,NA,NA,NA,sdfdsf,0,1,NA,NA,NA,NA,NA,NA,NA,NA,NA,NA,NA,NA,NA,NA,NA,NA,NA,NA,NA
41c36,deep,flow.Sequence,3_0_1_0_7_0,NA,NA,completion,11657.233,7754150.1,7754147.94,7754164.404,7765821.637,7765823.1,2023-05-15T16:15:13Z,7765838.292,NULL,Auftrag,uagizaji,d,NA,NA,NA,NA,sdfdsf,NA,1,NA,NA,NA,NA,NA,NA,NA,NA,NA,NA,NA,NA,NA,NA,NA,NA,NA,NA,NA
41c36,shallow,flow.Sequence,3_0_1_0_7_1,NA,NA,skipped,NA,7765823.2,NA,NA,7765821.637,7765823.3,2023-05-15T16:15:13Z,7765838.292,NULL,Auftrag,uagizaji,d,NA,NA,NA,NA,sdfdsf,NA,1,NA,NA,NA,NA,NA,NA,NA,NA,NA,NA,NA,NA,NA,NA,NA,NA,NA,NA,NA
41c36,task,flow.Sequence,3_0_1_0_7,NA,NA,completion,11657.233,7754150,7754147.94,7754164.404,7765821.637,7765823.6,2023-05-15T16:15:13Z,7765838.292,NULL,Auftrag,uagizaji,d,NA,NA,NA,NA,sdfdsf,NA,1,NA,NA,NA,NA,NA,NA,NA,NA,NA,NA,NA,NA,NA,NA,NA,NA,NA,NA,NA
41c36,block,flow.Loop,3_0_1_0,NA,NA,completion,80917.257,7684889.9,7684888.128,7684904.38,7765821.637,7765823.9,2023-05-15T16:15:13Z,7765838.292,NULL,NA,NA,NA,NA,NA,NA,NA,sdfdsf,NA,1,NA,NA,NA,NA,NA,NA,NA,NA,NA,NA,NA,NA,NA,NA,NA,NA,NA,NA,NA
41c36,weiter,canvas.Screen,3_0_1_1,sdf,keypress(Space),response,2148.4079999877,7765824,7765821.637,7765838.292,7767986.7,7767987.9,2023-05-15T16:15:15Z,7768102.529,NULL,NA,NA,NA,NA,NA,NA,NA,sdfdsf,NA,1,NA,NA,NA,NA,NA,NA,NA,NA,NA,NA,NA,NA,NA,NA,NA,NA,NA,NA,NA
41c36,check continue,flow.Sequence,3_0_1,NA,NA,completion,83082.319999988,7684889.8,7684888.128,7684904.38,7767986.7,7767988.3,2023-05-15T16:15:15Z,7768102.529,NULL,NA,NA,NA,NA,NA,NA,NA,sdfdsf,NA,1,NA,NA,NA,NA,NA,NA,NA,NA,NA,NA,NA,NA,NA,NA,NA,NA,NA,NA,NA
41c36,Deep Question,html.Page,3_0_2_0_0_0_0,NA,NA,form submission,7060.170999988,7768095,7768086.317,7768102.529,7775162.7,7775163,2023-05-15T16:15:22Z,7775183.329,NULL,Auftrag,uagizaji,d,NA,NA,NA,f,NA,NA,2,NA,NA,NA,NA,NA,NA,NA,NA,NA,NA,NA,NA,NA,NA,NA,NA,NA,NA,NA
41c36,"""Richtig""-Screen",canvas.Screen,3_0_2_0_0_0_1,NA,NA,skipped,NA,7775165.1,NA,NA,7775162.7,7775165.4,2023-05-15T16:15:22Z,7775183.329,NULL,Auftrag,uagizaji,d,NA,NA,NA,NA,sdf,NA,2,NA,NA,NA,NA,NA,NA,NA,NA,NA,NA,NA,NA,NA,NA,NA,NA,NA,NA,NA
41c36,"""Falsch""-Screen",canvas.Screen,3_0_2_0_0_0_2,NA,NA,timeout,4992.6660000002,7775166,7775147.286,7775183.329,7780159.327,7780166.9,2023-05-15T16:15:27Z,7780175.995,NULL,Auftrag,uagizaji,d,NA,NA,NA,NA,sdf,0,2,NA,NA,NA,NA,NA,NA,NA,NA,NA,NA,NA,NA,NA,NA,NA,NA,NA,NA,NA
41c36,deep,flow.Sequence,3_0_2_0_0_0,NA,NA,completion,12056.797999999,7768095,7768086.317,7768102.529,7780159.327,7780167.6,2023-05-15T16:15:27Z,7780175.995,NULL,Auftrag,uagizaji,d,NA,NA,NA,NA,sdf,NA,2,NA,NA,NA,NA,NA,NA,NA,NA,NA,NA,NA,NA,NA,NA,NA,NA,NA,NA,NA
41c36,shallow,flow.Sequence,3_0_2_0_0_1,NA,NA,skipped,NA,7780167.8,NA,NA,7780159.327,7780168.2,2023-05-15T16:15:27Z,7780175.995,NULL,Auftrag,uagizaji,d,NA,NA,NA,NA,sdf,NA,2,NA,NA,NA,NA,NA,NA,NA,NA,NA,NA,NA,NA,NA,NA,NA,NA,NA,NA,NA
41c36,task,flow.Sequence,3_0_2_0_0,NA,NA,completion,12056.797999999,7768094.9,7768086.317,7768102.529,7780159.327,7780168.5,2023-05-15T16:15:27Z,7780175.995,NULL,Auftrag,uagizaji,d,NA,NA,NA,NA,sdf,NA,2,NA,NA,NA,NA,NA,NA,NA,NA,NA,NA,NA,NA,NA,NA,NA,NA,NA,NA,NA
41c36,Deep Question,html.Page,3_0_2_0_1_0_0,NA,NA,form submission,8845.204999988,7780168.8,7780159.327,7780175.995,7789021.2,7789021.4,2023-05-15T16:15:36Z,7789035.858,NULL,Wettbewerb,ushindani,d,NA,NA,NA,df,NA,NA,2,NA,NA,NA,NA,NA,NA,NA,NA,NA,NA,NA,NA,NA,NA,NA,NA,NA,NA,NA
41c36,"""Richtig""-Screen",canvas.Screen,3_0_2_0_1_0_1,NA,NA,skipped,NA,7789023.6,NA,NA,7789021.2,7789023.7,2023-05-15T16:15:36Z,7789035.858,NULL,Wettbewerb,ushindani,d,NA,NA,NA,NA,sdf,NA,2,NA,NA,NA,NA,NA,NA,NA,NA,NA,NA,NA,NA,NA,NA,NA,NA,NA,NA,NA
41c36,"""Falsch""-Screen",canvas.Screen,3_0_2_0_1_0_2,NA,NA,timeout,4995.9100000001,7789024.2,7789018.715,7789035.858,7794015.088,7794016.1,2023-05-15T16:15:41Z,7794031.768,NULL,Wettbewerb,ushindani,d,NA,NA,NA,NA,sdf,0,2,NA,NA,NA,NA,NA,NA,NA,NA,NA,NA,NA,NA,NA,NA,NA,NA,NA,NA,NA
41c36,deep,flow.Sequence,3_0_2_0_1_0,NA,NA,completion,13839.093,7780168.8,7780159.327,7780175.995,7794015.088,7794016.5,2023-05-15T16:15:41Z,7794031.768,NULL,Wettbewerb,ushindani,d,NA,NA,NA,NA,sdf,NA,2,NA,NA,NA,NA,NA,NA,NA,NA,NA,NA,NA,NA,NA,NA,NA,NA,NA,NA,NA
41c36,shallow,flow.Sequence,3_0_2_0_1_1,NA,NA,skipped,NA,7794016.6,NA,NA,7794015.088,7794016.8,2023-05-15T16:15:41Z,7794031.768,NULL,Wettbewerb,ushindani,d,NA,NA,NA,NA,sdf,NA,2,NA,NA,NA,NA,NA,NA,NA,NA,NA,NA,NA,NA,NA,NA,NA,NA,NA,NA,NA
41c36,task,flow.Sequence,3_0_2_0_1,NA,NA,completion,13839.093,7780168.7,7780159.327,7780175.995,7794015.088,7794017,2023-05-15T16:15:41Z,7794031.768,NULL,Wettbewerb,ushindani,d,NA,NA,NA,NA,sdf,NA,2,NA,NA,NA,NA,NA,NA,NA,NA,NA,NA,NA,NA,NA,NA,NA,NA,NA,NA,NA
41c36,deep,flow.Sequence,3_0_2_0_2_0,NA,NA,skipped,NA,7794017.2,NA,NA,7794015.088,7794017.3,2023-05-15T16:15:41Z,7794031.768,NULL,Zufall,kikuti,s,kukosekana,uchoraji,leseni,NA,sdf,NA,2,NA,NA,NA,NA,NA,NA,NA,NA,NA,NA,NA,NA,NA,NA,NA,NA,NA,NA,NA
41c36,Shallow Question,html.Page,3_0_2_0_2_1_0,NA,NA,form submission,8130.9319999879,7794017.5,7794015.088,7794031.768,7802162.7,7802162.8,2023-05-15T16:15:49Z,7802174.715,NULL,Zufall,kikuti,s,kukosekana,uchoraji,leseni,kikuti,NA,NA,2,NA,NA,NA,NA,NA,NA,NA,NA,NA,NA,NA,NA,NA,NA,NA,NA,NA,NA,NA
41c36,"""Richtig""-Screen",canvas.Screen,3_0_2_0_2_1_1,NA,NA,timeout,4995.7360000005,7802164.6,7802158.286,7802174.715,7807154.139,7807155.2,2023-05-15T16:15:54Z,7807170.451,NULL,Zufall,kikuti,s,kukosekana,uchoraji,leseni,NA,sdf,1,2,NA,NA,NA,NA,NA,NA,NA,NA,NA,NA,NA,NA,NA,NA,NA,NA,NA,NA,NA
41c36,"""Falsch""-Screen",canvas.Screen,3_0_2_0_2_1_2,NA,NA,skipped,NA,7807160.5,NA,NA,7807154.139,7807160.8,2023-05-15T16:15:54Z,7807170.451,NULL,Zufall,kikuti,s,kukosekana,uchoraji,leseni,NA,sdf,NA,2,NA,NA,NA,NA,NA,NA,NA,NA,NA,NA,NA,NA,NA,NA,NA,NA,NA,NA,NA
41c36,shallow,flow.Sequence,3_0_2_0_2_1,NA,NA,completion,13122.371,7794017.5,7794015.088,7794031.768,7807154.139,7807161.3,2023-05-15T16:15:54Z,7807170.451,NULL,Zufall,kikuti,s,kukosekana,uchoraji,leseni,NA,sdf,NA,2,NA,NA,NA,NA,NA,NA,NA,NA,NA,NA,NA,NA,NA,NA,NA,NA,NA,NA,NA
41c36,task,flow.Sequence,3_0_2_0_2,NA,NA,completion,13122.371,7794017.1,7794015.088,7794031.768,7807154.139,7807161.6,2023-05-15T16:15:54Z,7807170.451,NULL,Zufall,kikuti,s,kukosekana,uchoraji,leseni,NA,sdf,NA,2,NA,NA,NA,NA,NA,NA,NA,NA,NA,NA,NA,NA,NA,NA,NA,NA,NA,NA,NA
41c36,Deep Question,html.Page,3_0_2_0_3_0_0,NA,NA,form submission,8211.8490000116,7807161.8,7807154.139,7807170.451,7815382.3,7815382.5,2023-05-15T16:16:03Z,7815397.362,NULL,Angreifer,mshambulizi,d,NA,NA,NA,sf,NA,NA,2,NA,NA,NA,NA,NA,NA,NA,NA,NA,NA,NA,NA,NA,NA,NA,NA,NA,NA,NA
41c36,"""Richtig""-Screen",canvas.Screen,3_0_2_0_3_0_1,NA,NA,skipped,NA,7815385,NA,NA,7815382.3,7815385.1,2023-05-15T16:16:03Z,7815397.362,NULL,Angreifer,mshambulizi,d,NA,NA,NA,NA,sdf,NA,2,NA,NA,NA,NA,NA,NA,NA,NA,NA,NA,NA,NA,NA,NA,NA,NA,NA,NA,NA
41c36,"""Falsch""-Screen",canvas.Screen,3_0_2_0_3_0_2,NA,NA,timeout,4995.8300000001,7815386,7815380.833,7815397.362,7820376.744,7820377.8,2023-05-15T16:16:08Z,7820393.192,NULL,Angreifer,mshambulizi,d,NA,NA,NA,NA,sdf,0,2,NA,NA,NA,NA,NA,NA,NA,NA,NA,NA,NA,NA,NA,NA,NA,NA,NA,NA,NA
41c36,deep,flow.Sequence,3_0_2_0_3_0,NA,NA,completion,13206.293,7807161.8,7807154.139,7807170.451,7820376.744,7820378.3,2023-05-15T16:16:08Z,7820393.192,NULL,Angreifer,mshambulizi,d,NA,NA,NA,NA,sdf,NA,2,NA,NA,NA,NA,NA,NA,NA,NA,NA,NA,NA,NA,NA,NA,NA,NA,NA,NA,NA
41c36,shallow,flow.Sequence,3_0_2_0_3_1,NA,NA,skipped,NA,7820378.4,NA,NA,7820376.744,7820378.7,2023-05-15T16:16:08Z,7820393.192,NULL,Angreifer,mshambulizi,d,NA,NA,NA,NA,sdf,NA,2,NA,NA,NA,NA,NA,NA,NA,NA,NA,NA,NA,NA,NA,NA,NA,NA,NA,NA,NA
41c36,task,flow.Sequence,3_0_2_0_3,NA,NA,completion,13206.293,7807161.7,7807154.139,7807170.451,7820376.744,7820378.9,2023-05-15T16:16:08Z,7820393.192,NULL,Angreifer,mshambulizi,d,NA,NA,NA,NA,sdf,NA,2,NA,NA,NA,NA,NA,NA,NA,NA,NA,NA,NA,NA,NA,NA,NA,NA,NA,NA,NA
41c36,deep,flow.Sequence,3_0_2_0_4_0,NA,NA,skipped,NA,7820379,NA,NA,7820376.744,7820379.2,2023-05-15T16:16:08Z,7820393.192,NULL,Kanzler,diwani,s,rasilmali,mahitaji,maabudu,NA,sdf,NA,2,NA,NA,NA,NA,NA,NA,NA,NA,NA,NA,NA,NA,NA,NA,NA,NA,NA,NA,NA
41c36,Shallow Question,html.Page,3_0_2_0_4_1_0,NA,NA,form submission,3877.5079999883,7820379.3,7820376.744,7820393.192,7824270.7,7824270.8,2023-05-15T16:16:12Z,7824272.919,NULL,Kanzler,diwani,s,rasilmali,mahitaji,maabudu,diwani,NA,NA,2,NA,NA,NA,NA,NA,NA,NA,NA,NA,NA,NA,NA,NA,NA,NA,NA,NA,NA,NA
41c36,"""Richtig""-Screen",canvas.Screen,3_0_2_0_4_1_1,NA,NA,timeout,4995.9780000001,7824272.6,7824256.879,7824272.919,7829252.762,7829253.8,2023-05-15T16:16:17Z,7829268.897,NULL,Kanzler,diwani,s,rasilmali,mahitaji,maabudu,NA,sdf,1,2,NA,NA,NA,NA,NA,NA,NA,NA,NA,NA,NA,NA,NA,NA,NA,NA,NA,NA,NA
41c36,"""Falsch""-Screen",canvas.Screen,3_0_2_0_4_1_2,NA,NA,skipped,NA,7829259,NA,NA,7829252.762,7829259.3,2023-05-15T16:16:17Z,7829268.897,NULL,Kanzler,diwani,s,rasilmali,mahitaji,maabudu,NA,sdf,NA,2,NA,NA,NA,NA,NA,NA,NA,NA,NA,NA,NA,NA,NA,NA,NA,NA,NA,NA,NA
41c36,shallow,flow.Sequence,3_0_2_0_4_1,NA,NA,completion,8859.5700000003,7820379.3,7820376.744,7820393.192,7829252.762,7829259.7,2023-05-15T16:16:17Z,7829268.897,NULL,Kanzler,diwani,s,rasilmali,mahitaji,maabudu,NA,sdf,NA,2,NA,NA,NA,NA,NA,NA,NA,NA,NA,NA,NA,NA,NA,NA,NA,NA,NA,NA,NA
41c36,task,flow.Sequence,3_0_2_0_4,NA,NA,completion,8859.5700000003,7820379,7820376.744,7820393.192,7829252.762,7829259.9,2023-05-15T16:16:17Z,7829268.897,NULL,Kanzler,diwani,s,rasilmali,mahitaji,maabudu,NA,sdf,NA,2,NA,NA,NA,NA,NA,NA,NA,NA,NA,NA,NA,NA,NA,NA,NA,NA,NA,NA,NA
41c36,deep,flow.Sequence,3_0_2_0_5_0,NA,NA,skipped,NA,7829260.1,NA,NA,7829252.762,7829260.3,2023-05-15T16:16:17Z,7829268.897,NULL,Schönheit,kirembo,s,mahojiano,msisimko,jitihadi,NA,sdf,NA,2,NA,NA,NA,NA,NA,NA,NA,NA,NA,NA,NA,NA,NA,NA,NA,NA,NA,NA,NA
41c36,Shallow Question,html.Page,3_0_2_0_5_1_0,NA,NA,form submission,3949.903000012,7829260.5,7829252.762,7829268.897,7833218.8,7833219.3,2023-05-15T16:16:21Z,7833232.278,NULL,Schönheit,kirembo,s,mahojiano,msisimko,jitihadi,kirembo,NA,NA,2,NA,NA,NA,NA,NA,NA,NA,NA,NA,NA,NA,NA,NA,NA,NA,NA,NA,NA,NA
41c36,"""Richtig""-Screen",canvas.Screen,3_0_2_0_5_1_1,NA,NA,timeout,4995.8650000002,7833224.1,7833215.863,7833232.278,7838212.034,7838213.2,2023-05-15T16:16:26Z,7838228.143,NULL,Schönheit,kirembo,s,mahojiano,msisimko,jitihadi,NA,sdf,1,2,NA,NA,NA,NA,NA,NA,NA,NA,NA,NA,NA,NA,NA,NA,NA,NA,NA,NA,NA
41c36,"""Falsch""-Screen",canvas.Screen,3_0_2_0_5_1_2,NA,NA,skipped,NA,7838218.4,NA,NA,7838212.034,7838218.6,2023-05-15T16:16:26Z,7838228.143,NULL,Schönheit,kirembo,s,mahojiano,msisimko,jitihadi,NA,sdf,NA,2,NA,NA,NA,NA,NA,NA,NA,NA,NA,NA,NA,NA,NA,NA,NA,NA,NA,NA,NA
41c36,shallow,flow.Sequence,3_0_2_0_5_1,NA,NA,completion,8943.1370000001,7829260.4,7829252.762,7829268.897,7838212.034,7838219.1,2023-05-15T16:16:26Z,7838228.143,NULL,Schönheit,kirembo,s,mahojiano,msisimko,jitihadi,NA,sdf,NA,2,NA,NA,NA,NA,NA,NA,NA,NA,NA,NA,NA,NA,NA,NA,NA,NA,NA,NA,NA
41c36,task,flow.Sequence,3_0_2_0_5,NA,NA,completion,8943.1370000001,7829260,7829252.762,7829268.897,7838212.034,7838219.4,2023-05-15T16:16:26Z,7838228.143,NULL,Schönheit,kirembo,s,mahojiano,msisimko,jitihadi,NA,sdf,NA,2,NA,NA,NA,NA,NA,NA,NA,NA,NA,NA,NA,NA,NA,NA,NA,NA,NA,NA,NA
41c36,deep,flow.Sequence,3_0_2_0_6_0,NA,NA,skipped,NA,7838219.5,NA,NA,7838212.034,7838219.7,2023-05-15T16:16:26Z,7838228.143,NULL,Abrechnung,uhasibu,s,kusahihisha,mpambano,mashambulizi,NA,sdf,NA,2,NA,NA,NA,NA,NA,NA,NA,NA,NA,NA,NA,NA,NA,NA,NA,NA,NA,NA,NA
41c36,Shallow Question,html.Page,3_0_2_0_6_1_0,NA,NA,form submission,7210.5569999879,7838219.8,7838212.034,7838228.143,7845438.7,7845439.7,2023-05-15T16:16:33Z,7845438.87,NULL,Abrechnung,uhasibu,s,kusahihisha,mpambano,mashambulizi,mashambulizi,NA,NA,2,NA,NA,NA,NA,NA,NA,NA,NA,NA,NA,NA,NA,NA,NA,NA,NA,NA,NA,NA
41c36,"""Richtig""-Screen",canvas.Screen,3_0_2_0_6_1_1,NA,NA,skipped,NA,7845445.1,NA,NA,7845438.7,7845445.3,2023-05-15T16:16:33Z,7845438.87,NULL,Abrechnung,uhasibu,s,kusahihisha,mpambano,mashambulizi,NA,sdf,NA,2,NA,NA,NA,NA,NA,NA,NA,NA,NA,NA,NA,NA,NA,NA,NA,NA,NA,NA,NA
41c36,"""Falsch""-Screen",canvas.Screen,3_0_2_0_6_1_2,NA,NA,timeout,4996.4399999995,7845447.3,7845422.795,7845438.87,7850418.675,7850419.8,2023-05-15T16:16:38Z,7850435.31,NULL,Abrechnung,uhasibu,s,kusahihisha,mpambano,mashambulizi,NA,sdf,0,2,NA,NA,NA,NA,NA,NA,NA,NA,NA,NA,NA,NA,NA,NA,NA,NA,NA,NA,NA
41c36,shallow,flow.Sequence,3_0_2_0_6_1,NA,NA,completion,12190.532,7838219.8,7838212.034,7838228.143,7850418.675,7850420.1,2023-05-15T16:16:38Z,7850435.31,NULL,Abrechnung,uhasibu,s,kusahihisha,mpambano,mashambulizi,NA,sdf,NA,2,NA,NA,NA,NA,NA,NA,NA,NA,NA,NA,NA,NA,NA,NA,NA,NA,NA,NA,NA
41c36,task,flow.Sequence,3_0_2_0_6,NA,NA,completion,12190.532,7838219.5,7838212.034,7838228.143,7850418.675,7850420.4,2023-05-15T16:16:38Z,7850435.31,NULL,Abrechnung,uhasibu,s,kusahihisha,mpambano,mashambulizi,NA,sdf,NA,2,NA,NA,NA,NA,NA,NA,NA,NA,NA,NA,NA,NA,NA,NA,NA,NA,NA,NA,NA
41c36,Deep Question,html.Page,3_0_2_0_7_0_0,NA,NA,form submission,16284.990000012,7850420.7,7850418.675,7850435.31,7866720.3,7866720.6,2023-05-15T16:16:54Z,7866721.332,NULL,Sänger,mwimbaji,d,NA,NA,NA,mwasmji,NA,NA,2,NA,NA,NA,NA,NA,NA,NA,NA,NA,NA,NA,NA,NA,NA,NA,NA,NA,NA,NA
41c36,"""Richtig""-Screen",canvas.Screen,3_0_2_0_7_0_1,NA,NA,skipped,NA,7866723.1,NA,NA,7866720.3,7866723.3,2023-05-15T16:16:54Z,7866721.332,NULL,Sänger,mwimbaji,d,NA,NA,NA,NA,sdf,NA,2,NA,NA,NA,NA,NA,NA,NA,NA,NA,NA,NA,NA,NA,NA,NA,NA,NA,NA,NA
41c36,"""Falsch""-Screen",canvas.Screen,3_0_2_0_7_0_2,NA,NA,timeout,4996.4639999997,7866724.1,7866705.238,7866721.332,7871701.153,7871702.2,2023-05-15T16:16:59Z,7871717.796,NULL,Sänger,mwimbaji,d,NA,NA,NA,NA,sdf,0,2,NA,NA,NA,NA,NA,NA,NA,NA,NA,NA,NA,NA,NA,NA,NA,NA,NA,NA,NA
41c36,deep,flow.Sequence,3_0_2_0_7_0,NA,NA,completion,21265.843,7850420.6,7850418.675,7850435.31,7871701.153,7871702.6,2023-05-15T16:16:59Z,7871717.796,NULL,Sänger,mwimbaji,d,NA,NA,NA,NA,sdf,NA,2,NA,NA,NA,NA,NA,NA,NA,NA,NA,NA,NA,NA,NA,NA,NA,NA,NA,NA,NA
41c36,shallow,flow.Sequence,3_0_2_0_7_1,NA,NA,skipped,NA,7871702.7,NA,NA,7871701.153,7871702.9,2023-05-15T16:16:59Z,7871717.796,NULL,Sänger,mwimbaji,d,NA,NA,NA,NA,sdf,NA,2,NA,NA,NA,NA,NA,NA,NA,NA,NA,NA,NA,NA,NA,NA,NA,NA,NA,NA,NA
41c36,task,flow.Sequence,3_0_2_0_7,NA,NA,completion,21265.843,7850420.5,7850418.675,7850435.31,7871701.153,7871703.1,2023-05-15T16:16:59Z,7871717.796,NULL,Sänger,mwimbaji,d,NA,NA,NA,NA,sdf,NA,2,NA,NA,NA,NA,NA,NA,NA,NA,NA,NA,NA,NA,NA,NA,NA,NA,NA,NA,NA
41c36,block,flow.Loop,3_0_2_0,NA,NA,completion,103598.624,7768094.9,7768086.317,7768102.529,7871701.153,7871703.4,2023-05-15T16:16:59Z,7871717.796,NULL,NA,NA,NA,NA,NA,NA,NA,sdf,NA,2,NA,NA,NA,NA,NA,NA,NA,NA,NA,NA,NA,NA,NA,NA,NA,NA,NA,NA,NA
41c36,weiter,canvas.Screen,3_0_2_1,sdf,keypress(Space),response,3368.403999988,7871703.5,7871701.153,7871717.796,7875086.2,7875087.4,2023-05-15T16:17:02Z,7875197.716,NULL,NA,NA,NA,NA,NA,NA,NA,sdf,NA,2,NA,NA,NA,NA,NA,NA,NA,NA,NA,NA,NA,NA,NA,NA,NA,NA,NA,NA,NA
41c36,check continue,flow.Sequence,3_0_2,NA,NA,completion,106983.67099999,7768094.7,7768086.317,7768102.529,7875086.2,7875087.8,2023-05-15T16:17:02Z,7875197.716,NULL,NA,NA,NA,NA,NA,NA,NA,sdf,NA,2,NA,NA,NA,NA,NA,NA,NA,NA,NA,NA,NA,NA,NA,NA,NA,NA,NA,NA,NA
41c36,deep,flow.Sequence,3_0_3_0_0_0,NA,NA,skipped,NA,7875190.4,NA,NA,7875086.2,7875190.6,2023-05-15T16:17:03Z,7875197.716,NULL,Zufall,kikuti,s,kukosekana,uchoraji,leseni,NA,qt,NA,3,NA,NA,NA,NA,NA,NA,NA,NA,NA,NA,NA,NA,NA,NA,NA,NA,NA,NA,NA
41c36,Shallow Question,html.Page,3_0_3_0_0_1_0,NA,NA,form submission,5265.8840000238,7875190.8,7875181.396,7875197.716,7880463.6,7880463.7,2023-05-15T16:17:08Z,7880476.988,NULL,Zufall,kikuti,s,kukosekana,uchoraji,leseni,kikuti,NA,NA,3,NA,NA,NA,NA,NA,NA,NA,NA,NA,NA,NA,NA,NA,NA,NA,NA,NA,NA,NA
41c36,"""Richtig""-Screen",canvas.Screen,3_0_3_0_0_1_1,NA,NA,timeout,4995.5959999999,7880465.6,7880460.591,7880476.988,7885456.507,7885457.8,2023-05-15T16:17:13Z,7885472.584,NULL,Zufall,kikuti,s,kukosekana,uchoraji,leseni,NA,qt,1,3,NA,NA,NA,NA,NA,NA,NA,NA,NA,NA,NA,NA,NA,NA,NA,NA,NA,NA,NA
41c36,"""Falsch""-Screen",canvas.Screen,3_0_3_0_0_1_2,NA,NA,skipped,NA,7885463.9,NA,NA,7885456.507,7885464.5,2023-05-15T16:17:13Z,7885472.584,NULL,Zufall,kikuti,s,kukosekana,uchoraji,leseni,NA,qt,NA,3,NA,NA,NA,NA,NA,NA,NA,NA,NA,NA,NA,NA,NA,NA,NA,NA,NA,NA,NA
41c36,shallow,flow.Sequence,3_0_3_0_0_1,NA,NA,completion,10258.791,7875190.8,7875181.396,7875197.716,7885456.507,7885465.1,2023-05-15T16:17:13Z,7885472.584,NULL,Zufall,kikuti,s,kukosekana,uchoraji,leseni,NA,qt,NA,3,NA,NA,NA,NA,NA,NA,NA,NA,NA,NA,NA,NA,NA,NA,NA,NA,NA,NA,NA
41c36,task,flow.Sequence,3_0_3_0_0,NA,NA,completion,10258.791,7875190.3,7875181.396,7875197.716,7885456.507,7885465.5,2023-05-15T16:17:13Z,7885472.584,NULL,Zufall,kikuti,s,kukosekana,uchoraji,leseni,NA,qt,NA,3,NA,NA,NA,NA,NA,NA,NA,NA,NA,NA,NA,NA,NA,NA,NA,NA,NA,NA,NA
41c36,Deep Question,html.Page,3_0_3_0_1_0_0,NA,NA,form submission,17815.416,7885466,7885456.507,7885472.584,7903288,7903288.2,2023-05-15T16:17:31Z,7903291.191,NULL,Auftrag,uagizaji,d,NA,NA,NA,aaa,NA,NA,3,NA,NA,NA,NA,NA,NA,NA,NA,NA,NA,NA,NA,NA,NA,NA,NA,NA,NA,NA
41c36,"""Richtig""-Screen",canvas.Screen,3_0_3_0_1_0_1,NA,NA,skipped,NA,7903290.6,NA,NA,7903288,7903290.8,2023-05-15T16:17:31Z,7903291.191,NULL,Auftrag,uagizaji,d,NA,NA,NA,NA,qt,NA,3,NA,NA,NA,NA,NA,NA,NA,NA,NA,NA,NA,NA,NA,NA,NA,NA,NA,NA,NA
41c36,"""Falsch""-Screen",canvas.Screen,3_0_3_0_1_0_2,NA,NA,timeout,4995.9550000001,7903291.7,7903275.174,7903291.191,7908270.666,7908281.7,2023-05-15T16:17:36Z,7908287.146,NULL,Auftrag,uagizaji,d,NA,NA,NA,NA,qt,0,3,NA,NA,NA,NA,NA,NA,NA,NA,NA,NA,NA,NA,NA,NA,NA,NA,NA,NA,NA
41c36,deep,flow.Sequence,3_0_3_0_1_0,NA,NA,completion,22798.082,7885466,7885456.507,7885472.584,7908270.666,7908282.2,2023-05-15T16:17:36Z,7908287.146,NULL,Auftrag,uagizaji,d,NA,NA,NA,NA,qt,NA,3,NA,NA,NA,NA,NA,NA,NA,NA,NA,NA,NA,NA,NA,NA,NA,NA,NA,NA,NA
41c36,shallow,flow.Sequence,3_0_3_0_1_1,NA,NA,skipped,NA,7908282.4,NA,NA,7908270.666,7908282.6,2023-05-15T16:17:36Z,7908287.146,NULL,Auftrag,uagizaji,d,NA,NA,NA,NA,qt,NA,3,NA,NA,NA,NA,NA,NA,NA,NA,NA,NA,NA,NA,NA,NA,NA,NA,NA,NA,NA
41c36,task,flow.Sequence,3_0_3_0_1,NA,NA,completion,22798.082,7885465.8,7885456.507,7885472.584,7908270.666,7908282.8,2023-05-15T16:17:36Z,7908287.146,NULL,Auftrag,uagizaji,d,NA,NA,NA,NA,qt,NA,3,NA,NA,NA,NA,NA,NA,NA,NA,NA,NA,NA,NA,NA,NA,NA,NA,NA,NA,NA
41c36,Deep Question,html.Page,3_0_3_0_2_0_0,NA,NA,form submission,17840.854,7908283,7908270.666,7908287.146,7926128,7926128.2,2023-05-15T16:17:53Z,7926139.067,NULL,Sänger,mwimbaji,d,NA,NA,NA,mwambizaji,NA,NA,3,NA,NA,NA,NA,NA,NA,NA,NA,NA,NA,NA,NA,NA,NA,NA,NA,NA,NA,NA
41c36,"""Richtig""-Screen",canvas.Screen,3_0_3_0_2_0_1,NA,NA,skipped,NA,7926130.6,NA,NA,7926128,7926130.8,2023-05-15T16:17:53Z,7926139.067,NULL,Sänger,mwimbaji,d,NA,NA,NA,NA,qt,NA,3,NA,NA,NA,NA,NA,NA,NA,NA,NA,NA,NA,NA,NA,NA,NA,NA,NA,NA,NA
41c36,"""Falsch""-Screen",canvas.Screen,3_0_3_0_2_0_2,NA,NA,timeout,4995.9230000004,7926131.6,7926123.052,7926139.067,7931118.385,7931125.5,2023-05-15T16:17:58Z,7931134.99,NULL,Sänger,mwimbaji,d,NA,NA,NA,NA,qt,0,3,NA,NA,NA,NA,NA,NA,NA,NA,NA,NA,NA,NA,NA,NA,NA,NA,NA,NA,NA
41c36,deep,flow.Sequence,3_0_3_0_2_0,NA,NA,completion,22831.239,7908283,7908270.666,7908287.146,7931118.385,7931126,2023-05-15T16:17:58Z,7931134.99,NULL,Sänger,mwimbaji,d,NA,NA,NA,NA,qt,NA,3,NA,NA,NA,NA,NA,NA,NA,NA,NA,NA,NA,NA,NA,NA,NA,NA,NA,NA,NA
41c36,shallow,flow.Sequence,3_0_3_0_2_1,NA,NA,skipped,NA,7931126.2,NA,NA,7931118.385,7931126.4,2023-05-15T16:17:58Z,7931134.99,NULL,Sänger,mwimbaji,d,NA,NA,NA,NA,qt,NA,3,NA,NA,NA,NA,NA,NA,NA,NA,NA,NA,NA,NA,NA,NA,NA,NA,NA,NA,NA
41c36,task,flow.Sequence,3_0_3_0_2,NA,NA,completion,22831.239,7908282.9,7908270.666,7908287.146,7931118.385,7931126.5,2023-05-15T16:17:58Z,7931134.99,NULL,Sänger,mwimbaji,d,NA,NA,NA,NA,qt,NA,3,NA,NA,NA,NA,NA,NA,NA,NA,NA,NA,NA,NA,NA,NA,NA,NA,NA,NA,NA
41c36,deep,flow.Sequence,3_0_3_0_3_0,NA,NA,skipped,NA,7931126.8,NA,NA,7931118.385,7931127,2023-05-15T16:17:58Z,7931134.99,NULL,Abrechnung,uhasibu,s,kusahihisha,mpambano,mashambulizi,NA,qt,NA,3,NA,NA,NA,NA,NA,NA,NA,NA,NA,NA,NA,NA,NA,NA,NA,NA,NA,NA,NA
41c36,Shallow Question,html.Page,3_0_3_0_3_1_0,NA,NA,form submission,7451.9100000355,7931127.1,7931118.385,7931134.99,7938586.9,7938587.3,2023-05-15T16:18:06Z,7938595.59,NULL,Abrechnung,uhasibu,s,kusahihisha,mpambano,mashambulizi,uhasibu,NA,NA,3,NA,NA,NA,NA,NA,NA,NA,NA,NA,NA,NA,NA,NA,NA,NA,NA,NA,NA,NA
41c36,"""Richtig""-Screen",canvas.Screen,3_0_3_0_3_1_1,NA,NA,timeout,4995.824,7938592.7,7938579.437,7938595.59,7943575.159,7943576.2,2023-05-15T16:18:11Z,7943591.414,NULL,Abrechnung,uhasibu,s,kusahihisha,mpambano,mashambulizi,NA,qt,1,3,NA,NA,NA,NA,NA,NA,NA,NA,NA,NA,NA,NA,NA,NA,NA,NA,NA,NA,NA
41c36,"""Falsch""-Screen",canvas.Screen,3_0_3_0_3_1_2,NA,NA,skipped,NA,7943581.3,NA,NA,7943575.159,7943581.7,2023-05-15T16:18:11Z,7943591.414,NULL,Abrechnung,uhasibu,s,kusahihisha,mpambano,mashambulizi,NA,qt,NA,3,NA,NA,NA,NA,NA,NA,NA,NA,NA,NA,NA,NA,NA,NA,NA,NA,NA,NA,NA
41c36,shallow,flow.Sequence,3_0_3_0_3_1,NA,NA,completion,12440.169,7931127.1,7931118.385,7931134.99,7943575.159,7943582.1,2023-05-15T16:18:11Z,7943591.414,NULL,Abrechnung,uhasibu,s,kusahihisha,mpambano,mashambulizi,NA,qt,NA,3,NA,NA,NA,NA,NA,NA,NA,NA,NA,NA,NA,NA,NA,NA,NA,NA,NA,NA,NA
41c36,task,flow.Sequence,3_0_3_0_3,NA,NA,completion,12440.169,7931126.7,7931118.385,7931134.99,7943575.159,7943582.2,2023-05-15T16:18:11Z,7943591.414,NULL,Abrechnung,uhasibu,s,kusahihisha,mpambano,mashambulizi,NA,qt,NA,3,NA,NA,NA,NA,NA,NA,NA,NA,NA,NA,NA,NA,NA,NA,NA,NA,NA,NA,NA
41c36,deep,flow.Sequence,3_0_3_0_4_0,NA,NA,skipped,NA,7943582.4,NA,NA,7943575.159,7943582.6,2023-05-15T16:18:11Z,7943591.414,NULL,Schönheit,kirembo,s,mahojiano,msisimko,jitihadi,NA,qt,NA,3,NA,NA,NA,NA,NA,NA,NA,NA,NA,NA,NA,NA,NA,NA,NA,NA,NA,NA,NA
41c36,Shallow Question,html.Page,3_0_3_0_4_1_0,NA,NA,form submission,6393.0860000001,7943582.7,7943575.159,7943591.414,7949984.5,7949985,2023-05-15T16:18:17Z,7949986.186,NULL,Schönheit,kirembo,s,mahojiano,msisimko,jitihadi,kirembo,NA,NA,3,NA,NA,NA,NA,NA,NA,NA,NA,NA,NA,NA,NA,NA,NA,NA,NA,NA,NA,NA
41c36,"""Richtig""-Screen",canvas.Screen,3_0_3_0_4_1_1,NA,NA,timeout,4995.9340000004,7949990.4,7949970.058,7949986.186,7954965.826,7954966.8,2023-05-15T16:18:22Z,7954982.12,NULL,Schönheit,kirembo,s,mahojiano,msisimko,jitihadi,NA,qt,1,3,NA,NA,NA,NA,NA,NA,NA,NA,NA,NA,NA,NA,NA,NA,NA,NA,NA,NA,NA
41c36,"""Falsch""-Screen",canvas.Screen,3_0_3_0_4_1_2,NA,NA,skipped,NA,7954971.9,NA,NA,7954965.826,7954972.3,2023-05-15T16:18:22Z,7954982.12,NULL,Schönheit,kirembo,s,mahojiano,msisimko,jitihadi,NA,qt,NA,3,NA,NA,NA,NA,NA,NA,NA,NA,NA,NA,NA,NA,NA,NA,NA,NA,NA,NA,NA
41c36,shallow,flow.Sequence,3_0_3_0_4_1,NA,NA,completion,11374.412,7943582.7,7943575.159,7943591.414,7954965.826,7954972.6,2023-05-15T16:18:22Z,7954982.12,NULL,Schönheit,kirembo,s,mahojiano,msisimko,jitihadi,NA,qt,NA,3,NA,NA,NA,NA,NA,NA,NA,NA,NA,NA,NA,NA,NA,NA,NA,NA,NA,NA,NA
41c36,task,flow.Sequence,3_0_3_0_4,NA,NA,completion,11374.412,7943582.4,7943575.159,7943591.414,7954965.826,7954972.8,2023-05-15T16:18:22Z,7954982.12,NULL,Schönheit,kirembo,s,mahojiano,msisimko,jitihadi,NA,qt,NA,3,NA,NA,NA,NA,NA,NA,NA,NA,NA,NA,NA,NA,NA,NA,NA,NA,NA,NA,NA
41c36,Deep Question,html.Page,3_0_3_0_5_0_0,NA,NA,form submission,19074.180000012,7954973.1,7954965.826,7954982.12,7974056.3,7974056.5,2023-05-15T16:18:41Z,7974066.298,NULL,Wettbewerb,ushindani,d,NA,NA,NA,uangizaji,NA,NA,3,NA,NA,NA,NA,NA,NA,NA,NA,NA,NA,NA,NA,NA,NA,NA,NA,NA,NA,NA
41c36,"""Richtig""-Screen",canvas.Screen,3_0_3_0_5_0_1,NA,NA,skipped,NA,7974059,NA,NA,7974056.3,7974059.2,2023-05-15T16:18:41Z,7974066.298,NULL,Wettbewerb,ushindani,d,NA,NA,NA,NA,qt,NA,3,NA,NA,NA,NA,NA,NA,NA,NA,NA,NA,NA,NA,NA,NA,NA,NA,NA,NA,NA
41c36,"""Falsch""-Screen",canvas.Screen,3_0_3_0_5_0_2,NA,NA,timeout,4996.4539999999,7974060,7974050.212,7974066.298,7979045.993,7979046.9,2023-05-15T16:18:46Z,7979062.752,NULL,Wettbewerb,ushindani,d,NA,NA,NA,NA,qt,0,3,NA,NA,NA,NA,NA,NA,NA,NA,NA,NA,NA,NA,NA,NA,NA,NA,NA,NA,NA
41c36,deep,flow.Sequence,3_0_3_0_5_0,NA,NA,completion,24063.873,7954973,7954965.826,7954982.12,7979045.993,7979047.4,2023-05-15T16:18:46Z,7979062.752,NULL,Wettbewerb,ushindani,d,NA,NA,NA,NA,qt,NA,3,NA,NA,NA,NA,NA,NA,NA,NA,NA,NA,NA,NA,NA,NA,NA,NA,NA,NA,NA
41c36,shallow,flow.Sequence,3_0_3_0_5_1,NA,NA,skipped,NA,7979047.6,NA,NA,7979045.993,7979047.7,2023-05-15T16:18:46Z,7979062.752,NULL,Wettbewerb,ushindani,d,NA,NA,NA,NA,qt,NA,3,NA,NA,NA,NA,NA,NA,NA,NA,NA,NA,NA,NA,NA,NA,NA,NA,NA,NA,NA
41c36,task,flow.Sequence,3_0_3_0_5,NA,NA,completion,24063.873,7954973,7954965.826,7954982.12,7979045.993,7979048,2023-05-15T16:18:46Z,7979062.752,NULL,Wettbewerb,ushindani,d,NA,NA,NA,NA,qt,NA,3,NA,NA,NA,NA,NA,NA,NA,NA,NA,NA,NA,NA,NA,NA,NA,NA,NA,NA,NA
41c36,Deep Question,html.Page,3_0_3_0_6_0_0,NA,NA,form submission,10683.848000024,7979048.2,7979045.993,7979062.752,7989746.6,7989746.8,2023-05-15T16:18:57Z,7989753.352,NULL,Angreifer,mshambulizi,d,NA,NA,NA,j,NA,NA,3,NA,NA,NA,NA,NA,NA,NA,NA,NA,NA,NA,NA,NA,NA,NA,NA,NA,NA,NA
41c36,"""Richtig""-Screen",canvas.Screen,3_0_3_0_6_0_1,NA,NA,skipped,NA,7989749.3,NA,NA,7989746.6,7989749.5,2023-05-15T16:18:57Z,7989753.352,NULL,Angreifer,mshambulizi,d,NA,NA,NA,NA,qt,NA,3,NA,NA,NA,NA,NA,NA,NA,NA,NA,NA,NA,NA,NA,NA,NA,NA,NA,NA,NA
41c36,"""Falsch""-Screen",canvas.Screen,3_0_3_0_6_0_2,NA,NA,timeout,4996.1430000002,7989750.9,7989737.266,7989753.352,7994733.177,7994734.3,2023-05-15T16:19:02Z,7994749.495,NULL,Angreifer,mshambulizi,d,NA,NA,NA,NA,qt,0,3,NA,NA,NA,NA,NA,NA,NA,NA,NA,NA,NA,NA,NA,NA,NA,NA,NA,NA,NA
41c36,deep,flow.Sequence,3_0_3_0_6_0,NA,NA,completion,15670.425,7979048.2,7979045.993,7979062.752,7994733.177,7994734.7,2023-05-15T16:19:02Z,7994749.495,NULL,Angreifer,mshambulizi,d,NA,NA,NA,NA,qt,NA,3,NA,NA,NA,NA,NA,NA,NA,NA,NA,NA,NA,NA,NA,NA,NA,NA,NA,NA,NA
41c36,shallow,flow.Sequence,3_0_3_0_6_1,NA,NA,skipped,NA,7994734.9,NA,NA,7994733.177,7994735.2,2023-05-15T16:19:02Z,7994749.495,NULL,Angreifer,mshambulizi,d,NA,NA,NA,NA,qt,NA,3,NA,NA,NA,NA,NA,NA,NA,NA,NA,NA,NA,NA,NA,NA,NA,NA,NA,NA,NA
41c36,task,flow.Sequence,3_0_3_0_6,NA,NA,completion,15670.425,7979048.1,7979045.993,7979062.752,7994733.177,7994735.4,2023-05-15T16:19:02Z,7994749.495,NULL,Angreifer,mshambulizi,d,NA,NA,NA,NA,qt,NA,3,NA,NA,NA,NA,NA,NA,NA,NA,NA,NA,NA,NA,NA,NA,NA,NA,NA,NA,NA
41c36,deep,flow.Sequence,3_0_3_0_7_0,NA,NA,skipped,NA,7994735.5,NA,NA,7994733.177,7994735.6,2023-05-15T16:19:02Z,7994749.495,NULL,Kanzler,diwani,s,rasilmali,mahitaji,maabudu,NA,qt,NA,3,NA,NA,NA,NA,NA,NA,NA,NA,NA,NA,NA,NA,NA,NA,NA,NA,NA,NA,NA
41c36,Shallow Question,html.Page,3_0_3_0_7_1_0,NA,NA,form submission,6066.9050000357,7994735.9,7994733.177,7994749.495,8000816.4,8000816.6,2023-05-15T16:19:08Z,8000827.928,NULL,Kanzler,diwani,s,rasilmali,mahitaji,maabudu,diwani,NA,NA,3,NA,NA,NA,NA,NA,NA,NA,NA,NA,NA,NA,NA,NA,NA,NA,NA,NA,NA,NA
41c36,"""Richtig""-Screen",canvas.Screen,3_0_3_0_7_1_1,NA,NA,timeout,4995.625,8000818.6,8000811.491,8000827.928,8005807.394,8005808.6,2023-05-15T16:19:13Z,8005823.553,NULL,Kanzler,diwani,s,rasilmali,mahitaji,maabudu,NA,qt,1,3,NA,NA,NA,NA,NA,NA,NA,NA,NA,NA,NA,NA,NA,NA,NA,NA,NA,NA,NA
41c36,"""Falsch""-Screen",canvas.Screen,3_0_3_0_7_1_2,NA,NA,skipped,NA,8005813.7,NA,NA,8005807.394,8005813.9,2023-05-15T16:19:13Z,8005823.553,NULL,Kanzler,diwani,s,rasilmali,mahitaji,maabudu,NA,qt,NA,3,NA,NA,NA,NA,NA,NA,NA,NA,NA,NA,NA,NA,NA,NA,NA,NA,NA,NA,NA
41c36,shallow,flow.Sequence,3_0_3_0_7_1,NA,NA,completion,11057.899,7994735.8,7994733.177,7994749.495,8005807.394,8005814.2,2023-05-15T16:19:13Z,8005823.553,NULL,Kanzler,diwani,s,rasilmali,mahitaji,maabudu,NA,qt,NA,3,NA,NA,NA,NA,NA,NA,NA,NA,NA,NA,NA,NA,NA,NA,NA,NA,NA,NA,NA
41c36,task,flow.Sequence,3_0_3_0_7,NA,NA,completion,11057.899,7994735.5,7994733.177,7994749.495,8005807.394,8005814.5,2023-05-15T16:19:13Z,8005823.553,NULL,Kanzler,diwani,s,rasilmali,mahitaji,maabudu,NA,qt,NA,3,NA,NA,NA,NA,NA,NA,NA,NA,NA,NA,NA,NA,NA,NA,NA,NA,NA,NA,NA
41c36,block,flow.Loop,3_0_3_0,NA,NA,completion,130609.678,7875190.2,7875181.396,7875197.716,8005807.394,8005814.8,2023-05-15T16:19:13Z,8005823.553,NULL,NA,NA,NA,NA,NA,NA,NA,qt,NA,3,NA,NA,NA,NA,NA,NA,NA,NA,NA,NA,NA,NA,NA,NA,NA,NA,NA,NA,NA
41c36,weiter,canvas.Screen,3_0_3_1,sdf,keypress(Space),response,1197.1469999878,8005814.9,8005807.394,8005823.553,8007020.7,8007021.8,2023-05-15T16:19:14Z,8007155.844,NULL,NA,NA,NA,NA,NA,NA,NA,qt,NA,3,NA,NA,NA,NA,NA,NA,NA,NA,NA,NA,NA,NA,NA,NA,NA,NA,NA,NA,NA
41c36,check continue,flow.Sequence,3_0_3,NA,NA,completion,131822.98399999,7875190.1,7875181.396,7875197.716,8007020.7,8007022.2,2023-05-15T16:19:14Z,8007155.844,NULL,NA,NA,NA,NA,NA,NA,NA,qt,NA,3,NA,NA,NA,NA,NA,NA,NA,NA,NA,NA,NA,NA,NA,NA,NA,NA,NA,NA,NA
41c36,Deep Question,html.Page,3_0_4_0_0_0_0,NA,NA,form submission,7345.9560000123,8007140.2,8007139.111,8007155.844,8014501.8,8014502,2023-05-15T16:19:22Z,8014516.297,NULL,Auftrag,uagizaji,d,NA,NA,NA,ushindani,NA,NA,4,NA,NA,NA,NA,NA,NA,NA,NA,NA,NA,NA,NA,NA,NA,NA,NA,NA,NA,NA
41c36,"""Richtig""-Screen",canvas.Screen,3_0_4_0_0_0_1,NA,NA,skipped,NA,8014504.4,NA,NA,8014501.8,8014504.5,2023-05-15T16:19:22Z,8014516.297,NULL,Auftrag,uagizaji,d,NA,NA,NA,NA,sd,NA,4,NA,NA,NA,NA,NA,NA,NA,NA,NA,NA,NA,NA,NA,NA,NA,NA,NA,NA,NA
41c36,"""Falsch""-Screen",canvas.Screen,3_0_4_0_0_0_2,NA,NA,timeout,4996.4879999999,8014505.4,8014500.241,8014516.297,8019496.049,8019497.2,2023-05-15T16:19:27Z,8019512.785,NULL,Auftrag,uagizaji,d,NA,NA,NA,NA,sd,0,4,NA,NA,NA,NA,NA,NA,NA,NA,NA,NA,NA,NA,NA,NA,NA,NA,NA,NA,NA
41c36,deep,flow.Sequence,3_0_4_0_0_0,NA,NA,completion,12340.205,8007140.1,8007139.111,8007155.844,8019496.049,8019497.6,2023-05-15T16:19:27Z,8019512.785,NULL,Auftrag,uagizaji,d,NA,NA,NA,NA,sd,NA,4,NA,NA,NA,NA,NA,NA,NA,NA,NA,NA,NA,NA,NA,NA,NA,NA,NA,NA,NA
41c36,shallow,flow.Sequence,3_0_4_0_0_1,NA,NA,skipped,NA,8019497.8,NA,NA,8019496.049,8019498,2023-05-15T16:19:27Z,8019512.785,NULL,Auftrag,uagizaji,d,NA,NA,NA,NA,sd,NA,4,NA,NA,NA,NA,NA,NA,NA,NA,NA,NA,NA,NA,NA,NA,NA,NA,NA,NA,NA
41c36,task,flow.Sequence,3_0_4_0_0,NA,NA,completion,12340.205,8007140,8007139.111,8007155.844,8019496.049,8019498.2,2023-05-15T16:19:27Z,8019512.785,NULL,Auftrag,uagizaji,d,NA,NA,NA,NA,sd,NA,4,NA,NA,NA,NA,NA,NA,NA,NA,NA,NA,NA,NA,NA,NA,NA,NA,NA,NA,NA
41c36,Deep Question,html.Page,3_0_4_0_1_0_0,NA,NA,form submission,15847.414999988,8019498.4,8019496.049,8019512.785,8035360.2,8035360.4,2023-05-15T16:19:43Z,8035365.788,NULL,Wettbewerb,ushindani,d,NA,NA,NA,ushindani,NA,NA,4,NA,NA,NA,NA,NA,NA,NA,NA,NA,NA,NA,NA,NA,NA,NA,NA,NA,NA,NA
41c36,"""Richtig""-Screen",canvas.Screen,3_0_4_0_1_0_1,NA,NA,timeout,4995.949,8035363.1,8035349.763,8035365.788,8040345.618,8040346.7,2023-05-15T16:19:48Z,8040361.737,NULL,Wettbewerb,ushindani,d,NA,NA,NA,NA,sd,1,4,NA,NA,NA,NA,NA,NA,NA,NA,NA,NA,NA,NA,NA,NA,NA,NA,NA,NA,NA
41c36,"""Falsch""-Screen",canvas.Screen,3_0_4_0_1_0_2,NA,NA,skipped,NA,8040351.8,NA,NA,8040345.618,8040352.2,2023-05-15T16:19:48Z,8040361.737,NULL,Wettbewerb,ushindani,d,NA,NA,NA,NA,sd,NA,4,NA,NA,NA,NA,NA,NA,NA,NA,NA,NA,NA,NA,NA,NA,NA,NA,NA,NA,NA
41c36,deep,flow.Sequence,3_0_4_0_1_0,NA,NA,completion,20832.833,8019498.3,8019496.049,8019512.785,8040345.618,8040352.5,2023-05-15T16:19:48Z,8040361.737,NULL,Wettbewerb,ushindani,d,NA,NA,NA,NA,sd,NA,4,NA,NA,NA,NA,NA,NA,NA,NA,NA,NA,NA,NA,NA,NA,NA,NA,NA,NA,NA
41c36,shallow,flow.Sequence,3_0_4_0_1_1,NA,NA,skipped,NA,8040352.7,NA,NA,8040345.618,8040352.8,2023-05-15T16:19:48Z,8040361.737,NULL,Wettbewerb,ushindani,d,NA,NA,NA,NA,sd,NA,4,NA,NA,NA,NA,NA,NA,NA,NA,NA,NA,NA,NA,NA,NA,NA,NA,NA,NA,NA
41c36,task,flow.Sequence,3_0_4_0_1,NA,NA,completion,20832.833,8019498.3,8019496.049,8019512.785,8040345.618,8040353,2023-05-15T16:19:48Z,8040361.737,NULL,Wettbewerb,ushindani,d,NA,NA,NA,NA,sd,NA,4,NA,NA,NA,NA,NA,NA,NA,NA,NA,NA,NA,NA,NA,NA,NA,NA,NA,NA,NA
41c36,deep,flow.Sequence,3_0_4_0_2_0,NA,NA,skipped,NA,8040353.2,NA,NA,8040345.618,8040353.4,2023-05-15T16:19:48Z,8040361.737,NULL,Kanzler,diwani,s,rasilmali,mahitaji,maabudu,NA,sd,NA,4,NA,NA,NA,NA,NA,NA,NA,NA,NA,NA,NA,NA,NA,NA,NA,NA,NA,NA,NA
41c36,Shallow Question,html.Page,3_0_4_0_2_1_0,NA,NA,form submission,4354.163000036,8040353.5,8040345.618,8040361.737,8044715.9,8044716.4,2023-05-15T16:19:52Z,8044724.814,NULL,Kanzler,diwani,s,rasilmali,mahitaji,maabudu,diwani,NA,NA,4,NA,NA,NA,NA,NA,NA,NA,NA,NA,NA,NA,NA,NA,NA,NA,NA,NA,NA,NA
41c36,"""Richtig""-Screen",canvas.Screen,3_0_4_0_2_1_1,NA,NA,timeout,4995.8930000002,8044721.7,8044708.21,8044724.814,8049704.47,8049705.6,2023-05-15T16:19:57Z,8049720.707,NULL,Kanzler,diwani,s,rasilmali,mahitaji,maabudu,NA,sd,1,4,NA,NA,NA,NA,NA,NA,NA,NA,NA,NA,NA,NA,NA,NA,NA,NA,NA,NA,NA
41c36,"""Falsch""-Screen",canvas.Screen,3_0_4_0_2_1_2,NA,NA,skipped,NA,8049710.9,NA,NA,8049704.47,8049711.3,2023-05-15T16:19:57Z,8049720.707,NULL,Kanzler,diwani,s,rasilmali,mahitaji,maabudu,NA,sd,NA,4,NA,NA,NA,NA,NA,NA,NA,NA,NA,NA,NA,NA,NA,NA,NA,NA,NA,NA,NA
41c36,shallow,flow.Sequence,3_0_4_0_2_1,NA,NA,completion,9342.733,8040353.5,8040345.618,8040361.737,8049704.47,8049711.7,2023-05-15T16:19:57Z,8049720.707,NULL,Kanzler,diwani,s,rasilmali,mahitaji,maabudu,NA,sd,NA,4,NA,NA,NA,NA,NA,NA,NA,NA,NA,NA,NA,NA,NA,NA,NA,NA,NA,NA,NA
41c36,task,flow.Sequence,3_0_4_0_2,NA,NA,completion,9342.733,8040353.1,8040345.618,8040361.737,8049704.47,8049711.9,2023-05-15T16:19:57Z,8049720.707,NULL,Kanzler,diwani,s,rasilmali,mahitaji,maabudu,NA,sd,NA,4,NA,NA,NA,NA,NA,NA,NA,NA,NA,NA,NA,NA,NA,NA,NA,NA,NA,NA,NA
41c36,deep,flow.Sequence,3_0_4_0_3_0,NA,NA,skipped,NA,8049712.1,NA,NA,8049704.47,8049712.3,2023-05-15T16:19:57Z,8049720.707,NULL,Zufall,kikuti,s,kukosekana,uchoraji,leseni,NA,sd,NA,4,NA,NA,NA,NA,NA,NA,NA,NA,NA,NA,NA,NA,NA,NA,NA,NA,NA,NA,NA
41c36,Shallow Question,html.Page,3_0_4_0_3_1_0,NA,NA,form submission,5016.4929999877,8049712.5,8049704.47,8049720.707,8054737.2,8054737.8,2023-05-15T16:20:02Z,8054749.933,NULL,Zufall,kikuti,s,kukosekana,uchoraji,leseni,kikuti,NA,NA,4,NA,NA,NA,NA,NA,NA,NA,NA,NA,NA,NA,NA,NA,NA,NA,NA,NA,NA,NA
41c36,"""Richtig""-Screen",canvas.Screen,3_0_4_0_3_1_1,NA,NA,timeout,4995.9129999997,8054743.4,8054733.253,8054749.933,8059729.663,8059730.8,2023-05-15T16:20:07Z,8059745.846,NULL,Zufall,kikuti,s,kukosekana,uchoraji,leseni,NA,sd,1,4,NA,NA,NA,NA,NA,NA,NA,NA,NA,NA,NA,NA,NA,NA,NA,NA,NA,NA,NA
41c36,"""Falsch""-Screen",canvas.Screen,3_0_4_0_3_1_2,NA,NA,skipped,NA,8059736.3,NA,NA,8059729.663,8059736.7,2023-05-15T16:20:07Z,8059745.846,NULL,Zufall,kikuti,s,kukosekana,uchoraji,leseni,NA,sd,NA,4,NA,NA,NA,NA,NA,NA,NA,NA,NA,NA,NA,NA,NA,NA,NA,NA,NA,NA,NA
41c36,shallow,flow.Sequence,3_0_4_0_3_1,NA,NA,completion,10008.955999999,8049712.5,8049704.47,8049720.707,8059729.663,8059737.1,2023-05-15T16:20:07Z,8059745.846,NULL,Zufall,kikuti,s,kukosekana,uchoraji,leseni,NA,sd,NA,4,NA,NA,NA,NA,NA,NA,NA,NA,NA,NA,NA,NA,NA,NA,NA,NA,NA,NA,NA
41c36,task,flow.Sequence,3_0_4_0_3,NA,NA,completion,10008.955999999,8049712,8049704.47,8049720.707,8059729.663,8059737.3,2023-05-15T16:20:07Z,8059745.846,NULL,Zufall,kikuti,s,kukosekana,uchoraji,leseni,NA,sd,NA,4,NA,NA,NA,NA,NA,NA,NA,NA,NA,NA,NA,NA,NA,NA,NA,NA,NA,NA,NA
41c36,Deep Question,html.Page,3_0_4_0_4_0_0,NA,NA,form submission,15726.954000012,8059737.6,8059729.663,8059745.846,8075472.8,8075473,2023-05-15T16:20:23Z,8075482.806,NULL,Angreifer,mshambulizi,d,NA,NA,NA,mshambulizi,NA,NA,4,NA,NA,NA,NA,NA,NA,NA,NA,NA,NA,NA,NA,NA,NA,NA,NA,NA,NA,NA
41c36,"""Richtig""-Screen",canvas.Screen,3_0_4_0_4_0_1,NA,NA,timeout,4995.9350000005,8075475.6,8075466.203,8075482.806,8080462.622,8080463.7,2023-05-15T16:20:28Z,8080478.741,NULL,Angreifer,mshambulizi,d,NA,NA,NA,NA,sd,1,4,NA,NA,NA,NA,NA,NA,NA,NA,NA,NA,NA,NA,NA,NA,NA,NA,NA,NA,NA
41c36,"""Falsch""-Screen",canvas.Screen,3_0_4_0_4_0_2,NA,NA,skipped,NA,8080468.9,NA,NA,8080462.622,8080469.4,2023-05-15T16:20:28Z,8080478.741,NULL,Angreifer,mshambulizi,d,NA,NA,NA,NA,sd,NA,4,NA,NA,NA,NA,NA,NA,NA,NA,NA,NA,NA,NA,NA,NA,NA,NA,NA,NA,NA
41c36,deep,flow.Sequence,3_0_4_0_4_0,NA,NA,completion,20716.776000001,8059737.5,8059729.663,8059745.846,8080462.622,8080469.8,2023-05-15T16:20:28Z,8080478.741,NULL,Angreifer,mshambulizi,d,NA,NA,NA,NA,sd,NA,4,NA,NA,NA,NA,NA,NA,NA,NA,NA,NA,NA,NA,NA,NA,NA,NA,NA,NA,NA
41c36,shallow,flow.Sequence,3_0_4_0_4_1,NA,NA,skipped,NA,8080470,NA,NA,8080462.622,8080470.1,2023-05-15T16:20:28Z,8080478.741,NULL,Angreifer,mshambulizi,d,NA,NA,NA,NA,sd,NA,4,NA,NA,NA,NA,NA,NA,NA,NA,NA,NA,NA,NA,NA,NA,NA,NA,NA,NA,NA
41c36,task,flow.Sequence,3_0_4_0_4,NA,NA,completion,20716.776000001,8059737.4,8059729.663,8059745.846,8080462.622,8080470.4,2023-05-15T16:20:28Z,8080478.741,NULL,Angreifer,mshambulizi,d,NA,NA,NA,NA,sd,NA,4,NA,NA,NA,NA,NA,NA,NA,NA,NA,NA,NA,NA,NA,NA,NA,NA,NA,NA,NA
41c36,Deep Question,html.Page,3_0_4_0_5_0_0,NA,NA,form submission,12004.958999988,8080470.6,8080462.622,8080478.741,8092483.7,8092483.9,2023-05-15T16:20:40Z,8092485.438,NULL,Sänger,mwimbaji,d,NA,NA,NA,mwambiji,NA,NA,4,NA,NA,NA,NA,NA,NA,NA,NA,NA,NA,NA,NA,NA,NA,NA,NA,NA,NA,NA
41c36,"""Richtig""-Screen",canvas.Screen,3_0_4_0_5_0_1,NA,NA,skipped,NA,8092485.9,NA,NA,8092483.7,8092486.1,2023-05-15T16:20:40Z,8092485.438,NULL,Sänger,mwimbaji,d,NA,NA,NA,NA,sd,NA,4,NA,NA,NA,NA,NA,NA,NA,NA,NA,NA,NA,NA,NA,NA,NA,NA,NA,NA,NA
41c36,"""Falsch""-Screen",canvas.Screen,3_0_4_0_5_0_2,NA,NA,timeout,4996.2060000002,8092486.7,8092469.397,8092485.438,8097465.27,8097466.4,2023-05-15T16:20:45Z,8097481.644,NULL,Sänger,mwimbaji,d,NA,NA,NA,NA,sd,0,4,NA,NA,NA,NA,NA,NA,NA,NA,NA,NA,NA,NA,NA,NA,NA,NA,NA,NA,NA
41c36,deep,flow.Sequence,3_0_4_0_5_0,NA,NA,completion,16986.528999999,8080470.6,8080462.622,8080478.741,8097465.27,8097466.9,2023-05-15T16:20:45Z,8097481.644,NULL,Sänger,mwimbaji,d,NA,NA,NA,NA,sd,NA,4,NA,NA,NA,NA,NA,NA,NA,NA,NA,NA,NA,NA,NA,NA,NA,NA,NA,NA,NA
41c36,shallow,flow.Sequence,3_0_4_0_5_1,NA,NA,skipped,NA,8097467,NA,NA,8097465.27,8097467.2,2023-05-15T16:20:45Z,8097481.644,NULL,Sänger,mwimbaji,d,NA,NA,NA,NA,sd,NA,4,NA,NA,NA,NA,NA,NA,NA,NA,NA,NA,NA,NA,NA,NA,NA,NA,NA,NA,NA
41c36,task,flow.Sequence,3_0_4_0_5,NA,NA,completion,16986.528999999,8080470.5,8080462.622,8080478.741,8097465.27,8097467.5,2023-05-15T16:20:45Z,8097481.644,NULL,Sänger,mwimbaji,d,NA,NA,NA,NA,sd,NA,4,NA,NA,NA,NA,NA,NA,NA,NA,NA,NA,NA,NA,NA,NA,NA,NA,NA,NA,NA
41c36,deep,flow.Sequence,3_0_4_0_6_0,NA,NA,skipped,NA,8097467.7,NA,NA,8097465.27,8097467.7,2023-05-15T16:20:45Z,8097481.644,NULL,Schönheit,kirembo,s,mahojiano,msisimko,jitihadi,NA,sd,NA,4,NA,NA,NA,NA,NA,NA,NA,NA,NA,NA,NA,NA,NA,NA,NA,NA,NA,NA,NA
41c36,Shallow Question,html.Page,3_0_4_0_6_1_0,NA,NA,form submission,6252.2560000354,8097467.9,8097465.27,8097481.644,8103733.9,8103734.1,2023-05-15T16:20:51Z,8103743.013,NULL,Schönheit,kirembo,s,mahojiano,msisimko,jitihadi,kirembo,NA,NA,4,NA,NA,NA,NA,NA,NA,NA,NA,NA,NA,NA,NA,NA,NA,NA,NA,NA,NA,NA
41c36,"""Richtig""-Screen",canvas.Screen,3_0_4_0_6_1_1,NA,NA,timeout,4995.7489999998,8103736.2,8103726.781,8103743.013,8108722.773,8108723.9,2023-05-15T16:20:56Z,8108738.762,NULL,Schönheit,kirembo,s,mahojiano,msisimko,jitihadi,NA,sd,1,4,NA,NA,NA,NA,NA,NA,NA,NA,NA,NA,NA,NA,NA,NA,NA,NA,NA,NA,NA
41c36,"""Falsch""-Screen",canvas.Screen,3_0_4_0_6_1_2,NA,NA,skipped,NA,8108729.2,NA,NA,8108722.773,8108729.4,2023-05-15T16:20:56Z,8108738.762,NULL,Schönheit,kirembo,s,mahojiano,msisimko,jitihadi,NA,sd,NA,4,NA,NA,NA,NA,NA,NA,NA,NA,NA,NA,NA,NA,NA,NA,NA,NA,NA,NA,NA
41c36,shallow,flow.Sequence,3_0_4_0_6_1,NA,NA,completion,11241.129,8097467.9,8097465.27,8097481.644,8108722.773,8108729.7,2023-05-15T16:20:56Z,8108738.762,NULL,Schönheit,kirembo,s,mahojiano,msisimko,jitihadi,NA,sd,NA,4,NA,NA,NA,NA,NA,NA,NA,NA,NA,NA,NA,NA,NA,NA,NA,NA,NA,NA,NA
41c36,task,flow.Sequence,3_0_4_0_6,NA,NA,completion,11241.129,8097467.6,8097465.27,8097481.644,8108722.773,8108730,2023-05-15T16:20:56Z,8108738.762,NULL,Schönheit,kirembo,s,mahojiano,msisimko,jitihadi,NA,sd,NA,4,NA,NA,NA,NA,NA,NA,NA,NA,NA,NA,NA,NA,NA,NA,NA,NA,NA,NA,NA
41c36,deep,flow.Sequence,3_0_4_0_7_0,NA,NA,skipped,NA,8108730.2,NA,NA,8108722.773,8108730.2,2023-05-15T16:20:56Z,8108738.762,NULL,Abrechnung,uhasibu,s,kusahihisha,mpambano,mashambulizi,NA,sd,NA,4,NA,NA,NA,NA,NA,NA,NA,NA,NA,NA,NA,NA,NA,NA,NA,NA,NA,NA,NA
41c36,Shallow Question,html.Page,3_0_4_0_7_1_0,NA,NA,form submission,7551.8380000237,8108730.5,8108722.773,8108738.762,8116290.6,8116290.9,2023-05-15T16:21:04Z,8116299.296,NULL,Abrechnung,uhasibu,s,kusahihisha,mpambano,mashambulizi,uhasibu,NA,NA,4,NA,NA,NA,NA,NA,NA,NA,NA,NA,NA,NA,NA,NA,NA,NA,NA,NA,NA,NA
41c36,"""Richtig""-Screen",canvas.Screen,3_0_4_0_7_1_1,NA,NA,timeout,4995.8700000001,8116293,8116283.048,8116299.296,8121279.016,8121280.1,2023-05-15T16:21:09Z,8121295.166,NULL,Abrechnung,uhasibu,s,kusahihisha,mpambano,mashambulizi,NA,sd,1,4,NA,NA,NA,NA,NA,NA,NA,NA,NA,NA,NA,NA,NA,NA,NA,NA,NA,NA,NA
41c36,"""Falsch""-Screen",canvas.Screen,3_0_4_0_7_1_2,NA,NA,skipped,NA,8121285.1,NA,NA,8121279.016,8121285.4,2023-05-15T16:21:09Z,8121295.166,NULL,Abrechnung,uhasibu,s,kusahihisha,mpambano,mashambulizi,NA,sd,NA,4,NA,NA,NA,NA,NA,NA,NA,NA,NA,NA,NA,NA,NA,NA,NA,NA,NA,NA,NA
41c36,shallow,flow.Sequence,3_0_4_0_7_1,NA,NA,completion,12540.254,8108730.3,8108722.773,8108738.762,8121279.016,8121285.8,2023-05-15T16:21:09Z,8121295.166,NULL,Abrechnung,uhasibu,s,kusahihisha,mpambano,mashambulizi,NA,sd,NA,4,NA,NA,NA,NA,NA,NA,NA,NA,NA,NA,NA,NA,NA,NA,NA,NA,NA,NA,NA
41c36,task,flow.Sequence,3_0_4_0_7,NA,NA,completion,12540.254,8108730.1,8108722.773,8108738.762,8121279.016,8121286.1,2023-05-15T16:21:09Z,8121295.166,NULL,Abrechnung,uhasibu,s,kusahihisha,mpambano,mashambulizi,NA,sd,NA,4,NA,NA,NA,NA,NA,NA,NA,NA,NA,NA,NA,NA,NA,NA,NA,NA,NA,NA,NA
41c36,block,flow.Loop,3_0_4_0,NA,NA,completion,114123.172,8007140,8007139.111,8007155.844,8121279.016,8121286.3,2023-05-15T16:21:09Z,8121295.166,NULL,NA,NA,NA,NA,NA,NA,NA,sd,NA,4,NA,NA,NA,NA,NA,NA,NA,NA,NA,NA,NA,NA,NA,NA,NA,NA,NA,NA,NA
41c36,weiter,canvas.Screen,3_0_4_1,sdf,keypress(Space),response,706.3339999998,8121286.4,8121279.016,8121295.166,8122001.5,8122002.9,2023-05-15T16:21:09Z,8122129.074,NULL,NA,NA,NA,NA,NA,NA,NA,sd,NA,4,NA,NA,NA,NA,NA,NA,NA,NA,NA,NA,NA,NA,NA,NA,NA,NA,NA,NA,NA
41c36,check continue,flow.Sequence,3_0_4,NA,NA,completion,114845.656,8007139.9,8007139.111,8007155.844,8122001.5,8122003.4,2023-05-15T16:21:09Z,8122129.074,NULL,NA,NA,NA,NA,NA,NA,NA,sd,NA,4,NA,NA,NA,NA,NA,NA,NA,NA,NA,NA,NA,NA,NA,NA,NA,NA,NA,NA,NA
41c36,Deep Question,html.Page,3_0_5_0_0_0_0,NA,NA,form submission,14259.726000012,8122103.3,8122094.992,8122129.074,8136388.8,8136389,2023-05-15T16:21:24Z,8136399.3,NULL,Auftrag,uagizaji,d,NA,NA,NA,uhanbaji,NA,NA,5,NA,NA,NA,NA,NA,NA,NA,NA,NA,NA,NA,NA,NA,NA,NA,NA,NA,NA,NA
41c36,"""Richtig""-Screen",canvas.Screen,3_0_5_0_0_0_1,NA,NA,skipped,NA,8136391.6,NA,NA,8136388.8,8136391.8,2023-05-15T16:21:24Z,8136399.3,NULL,Auftrag,uagizaji,d,NA,NA,NA,NA,sdf,NA,5,NA,NA,NA,NA,NA,NA,NA,NA,NA,NA,NA,NA,NA,NA,NA,NA,NA,NA,NA
41c36,"""Falsch""-Screen",canvas.Screen,3_0_5_0_0_0_2,NA,NA,timeout,4996.3610000005,8136392.7,8136383.253,8136399.3,8141379.11,8141380.2,2023-05-15T16:21:29Z,8141395.661,NULL,Auftrag,uagizaji,d,NA,NA,NA,NA,sdf,0,5,NA,NA,NA,NA,NA,NA,NA,NA,NA,NA,NA,NA,NA,NA,NA,NA,NA,NA,NA
41c36,deep,flow.Sequence,3_0_5_0_0_0,NA,NA,completion,19250.036,8122103.3,8122094.992,8122129.074,8141379.11,8141380.7,2023-05-15T16:21:29Z,8141395.661,NULL,Auftrag,uagizaji,d,NA,NA,NA,NA,sdf,NA,5,NA,NA,NA,NA,NA,NA,NA,NA,NA,NA,NA,NA,NA,NA,NA,NA,NA,NA,NA
41c36,shallow,flow.Sequence,3_0_5_0_0_1,NA,NA,skipped,NA,8141380.8,NA,NA,8141379.11,8141381,2023-05-15T16:21:29Z,8141395.661,NULL,Auftrag,uagizaji,d,NA,NA,NA,NA,sdf,NA,5,NA,NA,NA,NA,NA,NA,NA,NA,NA,NA,NA,NA,NA,NA,NA,NA,NA,NA,NA
41c36,task,flow.Sequence,3_0_5_0_0,NA,NA,completion,19250.036,8122103.3,8122094.992,8122129.074,8141379.11,8141381.3,2023-05-15T16:21:29Z,8141395.661,NULL,Auftrag,uagizaji,d,NA,NA,NA,NA,sdf,NA,5,NA,NA,NA,NA,NA,NA,NA,NA,NA,NA,NA,NA,NA,NA,NA,NA,NA,NA,NA
41c36,deep,flow.Sequence,3_0_5_0_1_0,NA,NA,skipped,NA,8141381.5,NA,NA,8141379.11,8141381.6,2023-05-15T16:21:29Z,8141395.661,NULL,Kanzler,diwani,s,rasilmali,mahitaji,maabudu,NA,sdf,NA,5,NA,NA,NA,NA,NA,NA,NA,NA,NA,NA,NA,NA,NA,NA,NA,NA,NA,NA,NA
41c36,Shallow Question,html.Page,3_0_5_0_1_1_0,NA,NA,form submission,5504.5389999878,8141381.8,8141379.11,8141395.661,8146900.2,8146900.3,2023-05-15T16:21:34Z,8146907.503,NULL,Kanzler,diwani,s,rasilmali,mahitaji,maabudu,diwani,NA,NA,5,NA,NA,NA,NA,NA,NA,NA,NA,NA,NA,NA,NA,NA,NA,NA,NA,NA,NA,NA
41c36,"""Richtig""-Screen",canvas.Screen,3_0_5_0_1_1_1,NA,NA,timeout,4995.7640000004,8146902.3,8146891.261,8146907.503,8151887.025,8151888,2023-05-15T16:21:39Z,8151903.267,NULL,Kanzler,diwani,s,rasilmali,mahitaji,maabudu,NA,sdf,1,5,NA,NA,NA,NA,NA,NA,NA,NA,NA,NA,NA,NA,NA,NA,NA,NA,NA,NA,NA
41c36,"""Falsch""-Screen",canvas.Screen,3_0_5_0_1_1_2,NA,NA,skipped,NA,8151897.2,NA,NA,8151887.025,8151897.6,2023-05-15T16:21:39Z,8151903.267,NULL,Kanzler,diwani,s,rasilmali,mahitaji,maabudu,NA,sdf,NA,5,NA,NA,NA,NA,NA,NA,NA,NA,NA,NA,NA,NA,NA,NA,NA,NA,NA,NA,NA
41c36,shallow,flow.Sequence,3_0_5_0_1_1,NA,NA,completion,10491.364,8141381.8,8141379.11,8141395.661,8151887.025,8151898.1,2023-05-15T16:21:39Z,8151903.267,NULL,Kanzler,diwani,s,rasilmali,mahitaji,maabudu,NA,sdf,NA,5,NA,NA,NA,NA,NA,NA,NA,NA,NA,NA,NA,NA,NA,NA,NA,NA,NA,NA,NA
41c36,task,flow.Sequence,3_0_5_0_1,NA,NA,completion,10491.364,8141381.4,8141379.11,8141395.661,8151887.025,8151898.6,2023-05-15T16:21:39Z,8151903.267,NULL,Kanzler,diwani,s,rasilmali,mahitaji,maabudu,NA,sdf,NA,5,NA,NA,NA,NA,NA,NA,NA,NA,NA,NA,NA,NA,NA,NA,NA,NA,NA,NA,NA
41c36,deep,flow.Sequence,3_0_5_0_2_0,NA,NA,skipped,NA,8151899,NA,NA,8151887.025,8151899.2,2023-05-15T16:21:39Z,8151903.267,NULL,Zufall,kikuti,s,kukosekana,uchoraji,leseni,NA,sdf,NA,5,NA,NA,NA,NA,NA,NA,NA,NA,NA,NA,NA,NA,NA,NA,NA,NA,NA,NA,NA
41c36,Shallow Question,html.Page,3_0_5_0_2_1_0,NA,NA,form submission,2791.9329999881,8151900.3,8151887.025,8151903.267,8154695.2,8154695.4,2023-05-15T16:21:42Z,8154700.882,NULL,Zufall,kikuti,s,kukosekana,uchoraji,leseni,kikuti,NA,NA,5,NA,NA,NA,NA,NA,NA,NA,NA,NA,NA,NA,NA,NA,NA,NA,NA,NA,NA,NA
41c36,"""Richtig""-Screen",canvas.Screen,3_0_5_0_2_1_1,NA,NA,timeout,4996.0139999995,8154695.9,8154684.361,8154700.882,8159680.596,8159681.7,2023-05-15T16:21:47Z,8159696.896,NULL,Zufall,kikuti,s,kukosekana,uchoraji,leseni,NA,sdf,1,5,NA,NA,NA,NA,NA,NA,NA,NA,NA,NA,NA,NA,NA,NA,NA,NA,NA,NA,NA
41c36,"""Falsch""-Screen",canvas.Screen,3_0_5_0_2_1_2,NA,NA,skipped,NA,8159687.3,NA,NA,8159680.596,8159687.6,2023-05-15T16:21:47Z,8159696.896,NULL,Zufall,kikuti,s,kukosekana,uchoraji,leseni,NA,sdf,NA,5,NA,NA,NA,NA,NA,NA,NA,NA,NA,NA,NA,NA,NA,NA,NA,NA,NA,NA,NA
41c36,shallow,flow.Sequence,3_0_5_0_2_1,NA,NA,completion,7777.3289999999,8151900.2,8151887.025,8151903.267,8159680.596,8159688,2023-05-15T16:21:47Z,8159696.896,NULL,Zufall,kikuti,s,kukosekana,uchoraji,leseni,NA,sdf,NA,5,NA,NA,NA,NA,NA,NA,NA,NA,NA,NA,NA,NA,NA,NA,NA,NA,NA,NA,NA
41c36,task,flow.Sequence,3_0_5_0_2,NA,NA,completion,7777.3289999999,8151898.8,8151887.025,8151903.267,8159680.596,8159688.3,2023-05-15T16:21:47Z,8159696.896,NULL,Zufall,kikuti,s,kukosekana,uchoraji,leseni,NA,sdf,NA,5,NA,NA,NA,NA,NA,NA,NA,NA,NA,NA,NA,NA,NA,NA,NA,NA,NA,NA,NA
41c36,Deep Question,html.Page,3_0_5_0_3_0_0,NA,NA,form submission,12612.204000024,8159688.4,8159680.596,8159696.896,8172309.1,8172309.3,2023-05-15T16:22:00Z,8172319.758,NULL,Wettbewerb,ushindani,d,NA,NA,NA,uambizaji,NA,NA,5,NA,NA,NA,NA,NA,NA,NA,NA,NA,NA,NA,NA,NA,NA,NA,NA,NA,NA,NA
41c36,"""Richtig""-Screen",canvas.Screen,3_0_5_0_3_0_1,NA,NA,skipped,NA,8172311.8,NA,NA,8172309.1,8172312,2023-05-15T16:22:00Z,8172319.758,NULL,Wettbewerb,ushindani,d,NA,NA,NA,NA,sdf,NA,5,NA,NA,NA,NA,NA,NA,NA,NA,NA,NA,NA,NA,NA,NA,NA,NA,NA,NA,NA
41c36,"""Falsch""-Screen",canvas.Screen,3_0_5_0_3_0_2,NA,NA,timeout,4995.9329999993,8172312.8,8172303.669,8172319.758,8177299.549,8177300.6,2023-05-15T16:22:05Z,8177315.691,NULL,Wettbewerb,ushindani,d,NA,NA,NA,NA,sdf,0,5,NA,NA,NA,NA,NA,NA,NA,NA,NA,NA,NA,NA,NA,NA,NA,NA,NA,NA,NA
41c36,deep,flow.Sequence,3_0_5_0_3_0,NA,NA,completion,17602.653,8159688.4,8159680.596,8159696.896,8177299.549,8177301,2023-05-15T16:22:05Z,8177315.691,NULL,Wettbewerb,ushindani,d,NA,NA,NA,NA,sdf,NA,5,NA,NA,NA,NA,NA,NA,NA,NA,NA,NA,NA,NA,NA,NA,NA,NA,NA,NA,NA
41c36,shallow,flow.Sequence,3_0_5_0_3_1,NA,NA,skipped,NA,8177301.1,NA,NA,8177299.549,8177301.3,2023-05-15T16:22:05Z,8177315.691,NULL,Wettbewerb,ushindani,d,NA,NA,NA,NA,sdf,NA,5,NA,NA,NA,NA,NA,NA,NA,NA,NA,NA,NA,NA,NA,NA,NA,NA,NA,NA,NA
41c36,task,flow.Sequence,3_0_5_0_3,NA,NA,completion,17602.653,8159688.4,8159680.596,8159696.896,8177299.549,8177301.5,2023-05-15T16:22:05Z,8177315.691,NULL,Wettbewerb,ushindani,d,NA,NA,NA,NA,sdf,NA,5,NA,NA,NA,NA,NA,NA,NA,NA,NA,NA,NA,NA,NA,NA,NA,NA,NA,NA,NA
41c36,Deep Question,html.Page,3_0_5_0_4_0_0,NA,NA,form submission,23606.409000024,8177301.8,8177299.549,8177315.691,8200922.1,8200922.3,2023-05-15T16:22:28Z,8200929.512,NULL,Angreifer,mshambulizi,d,NA,NA,NA,mshambuizi,NA,NA,5,NA,NA,NA,NA,NA,NA,NA,NA,NA,NA,NA,NA,NA,NA,NA,NA,NA,NA,NA
41c36,"""Richtig""-Screen",canvas.Screen,3_0_5_0_4_0_1,NA,NA,skipped,NA,8200924.4,NA,NA,8200922.1,8200924.6,2023-05-15T16:22:28Z,8200929.512,NULL,Angreifer,mshambulizi,d,NA,NA,NA,NA,sdf,NA,5,NA,NA,NA,NA,NA,NA,NA,NA,NA,NA,NA,NA,NA,NA,NA,NA,NA,NA,NA
41c36,"""Falsch""-Screen",canvas.Screen,3_0_5_0_4_0_2,NA,NA,timeout,4996.2649999997,8200925.2,8200913.45,8200929.512,8205909.343,8205910.4,2023-05-15T16:22:33Z,8205925.777,NULL,Angreifer,mshambulizi,d,NA,NA,NA,NA,sdf,0,5,NA,NA,NA,NA,NA,NA,NA,NA,NA,NA,NA,NA,NA,NA,NA,NA,NA,NA,NA
41c36,deep,flow.Sequence,3_0_5_0_4_0,NA,NA,completion,28593.652000001,8177301.7,8177299.549,8177315.691,8205909.343,8205910.8,2023-05-15T16:22:33Z,8205925.777,NULL,Angreifer,mshambulizi,d,NA,NA,NA,NA,sdf,NA,5,NA,NA,NA,NA,NA,NA,NA,NA,NA,NA,NA,NA,NA,NA,NA,NA,NA,NA,NA
41c36,shallow,flow.Sequence,3_0_5_0_4_1,NA,NA,skipped,NA,8205910.9,NA,NA,8205909.343,8205911.2,2023-05-15T16:22:33Z,8205925.777,NULL,Angreifer,mshambulizi,d,NA,NA,NA,NA,sdf,NA,5,NA,NA,NA,NA,NA,NA,NA,NA,NA,NA,NA,NA,NA,NA,NA,NA,NA,NA,NA
41c36,task,flow.Sequence,3_0_5_0_4,NA,NA,completion,28593.652000001,8177301.7,8177299.549,8177315.691,8205909.343,8205911.4,2023-05-15T16:22:33Z,8205925.777,NULL,Angreifer,mshambulizi,d,NA,NA,NA,NA,sdf,NA,5,NA,NA,NA,NA,NA,NA,NA,NA,NA,NA,NA,NA,NA,NA,NA,NA,NA,NA,NA
41c36,deep,flow.Sequence,3_0_5_0_5_0,NA,NA,skipped,NA,8205911.5,NA,NA,8205909.343,8205911.6,2023-05-15T16:22:33Z,8205925.777,NULL,Schönheit,kirembo,s,mahojiano,msisimko,jitihadi,NA,sdf,NA,5,NA,NA,NA,NA,NA,NA,NA,NA,NA,NA,NA,NA,NA,NA,NA,NA,NA,NA,NA
41c36,Shallow Question,html.Page,3_0_5_0_5_1_0,NA,NA,form submission,4154.2230000002,8205911.8,8205909.343,8205925.777,8210080,8210080.1,2023-05-15T16:22:37Z,8210088.749,NULL,Schönheit,kirembo,s,mahojiano,msisimko,jitihadi,kirembo,NA,NA,5,NA,NA,NA,NA,NA,NA,NA,NA,NA,NA,NA,NA,NA,NA,NA,NA,NA,NA,NA
41c36,"""Richtig""-Screen",canvas.Screen,3_0_5_0_5_1_1,NA,NA,timeout,4995.9230000004,8210082,8210072.346,8210088.749,8215068.462,8215069.5,2023-05-15T16:22:42Z,8215084.672,NULL,Schönheit,kirembo,s,mahojiano,msisimko,jitihadi,NA,sdf,1,5,NA,NA,NA,NA,NA,NA,NA,NA,NA,NA,NA,NA,NA,NA,NA,NA,NA,NA,NA
41c36,"""Falsch""-Screen",canvas.Screen,3_0_5_0_5_1_2,NA,NA,skipped,NA,8215074.6,NA,NA,8215068.462,8215075,2023-05-15T16:22:42Z,8215084.672,NULL,Schönheit,kirembo,s,mahojiano,msisimko,jitihadi,NA,sdf,NA,5,NA,NA,NA,NA,NA,NA,NA,NA,NA,NA,NA,NA,NA,NA,NA,NA,NA,NA,NA
41c36,shallow,flow.Sequence,3_0_5_0_5_1,NA,NA,completion,9142.6850000005,8205911.8,8205909.343,8205925.777,8215068.462,8215075.2,2023-05-15T16:22:42Z,8215084.672,NULL,Schönheit,kirembo,s,mahojiano,msisimko,jitihadi,NA,sdf,NA,5,NA,NA,NA,NA,NA,NA,NA,NA,NA,NA,NA,NA,NA,NA,NA,NA,NA,NA,NA
41c36,task,flow.Sequence,3_0_5_0_5,NA,NA,completion,9142.6850000005,8205911.4,8205909.343,8205925.777,8215068.462,8215075.5,2023-05-15T16:22:42Z,8215084.672,NULL,Schönheit,kirembo,s,mahojiano,msisimko,jitihadi,NA,sdf,NA,5,NA,NA,NA,NA,NA,NA,NA,NA,NA,NA,NA,NA,NA,NA,NA,NA,NA,NA,NA
41c36,Deep Question,html.Page,3_0_5_0_6_0_0,NA,NA,form submission,20034.527999988,8215075.6,8215068.462,8215084.672,8235119.2,8235119.4,2023-05-15T16:23:02Z,8235135.246,NULL,Sänger,mwimbaji,d,NA,NA,NA,mwimbiji,NA,NA,5,NA,NA,NA,NA,NA,NA,NA,NA,NA,NA,NA,NA,NA,NA,NA,NA,NA,NA,NA
41c36,"""Richtig""-Screen",canvas.Screen,3_0_5_0_6_0_1,NA,NA,skipped,NA,8235122.1,NA,NA,8235119.2,8235122.3,2023-05-15T16:23:02Z,8235135.246,NULL,Sänger,mwimbaji,d,NA,NA,NA,NA,sdf,NA,5,NA,NA,NA,NA,NA,NA,NA,NA,NA,NA,NA,NA,NA,NA,NA,NA,NA,NA,NA
41c36,"""Falsch""-Screen",canvas.Screen,3_0_5_0_6_0_2,NA,NA,timeout,4995.3590000002,8235123.1,8235118.668,8235135.246,8240114.493,8240115.5,2023-05-15T16:23:07Z,8240130.605,NULL,Sänger,mwimbaji,d,NA,NA,NA,NA,sdf,0,5,NA,NA,NA,NA,NA,NA,NA,NA,NA,NA,NA,NA,NA,NA,NA,NA,NA,NA,NA
41c36,deep,flow.Sequence,3_0_5_0_6_0,NA,NA,completion,25029.821,8215075.6,8215068.462,8215084.672,8240114.493,8240116.1,2023-05-15T16:23:07Z,8240130.605,NULL,Sänger,mwimbaji,d,NA,NA,NA,NA,sdf,NA,5,NA,NA,NA,NA,NA,NA,NA,NA,NA,NA,NA,NA,NA,NA,NA,NA,NA,NA,NA
41c36,shallow,flow.Sequence,3_0_5_0_6_1,NA,NA,skipped,NA,8240116.3,NA,NA,8240114.493,8240116.4,2023-05-15T16:23:07Z,8240130.605,NULL,Sänger,mwimbaji,d,NA,NA,NA,NA,sdf,NA,5,NA,NA,NA,NA,NA,NA,NA,NA,NA,NA,NA,NA,NA,NA,NA,NA,NA,NA,NA
41c36,task,flow.Sequence,3_0_5_0_6,NA,NA,completion,25029.821,8215075.5,8215068.462,8215084.672,8240114.493,8240116.7,2023-05-15T16:23:07Z,8240130.605,NULL,Sänger,mwimbaji,d,NA,NA,NA,NA,sdf,NA,5,NA,NA,NA,NA,NA,NA,NA,NA,NA,NA,NA,NA,NA,NA,NA,NA,NA,NA,NA
41c36,deep,flow.Sequence,3_0_5_0_7_0,NA,NA,skipped,NA,8240116.8,NA,NA,8240114.493,8240117,2023-05-15T16:23:07Z,8240130.605,NULL,Abrechnung,uhasibu,s,kusahihisha,mpambano,mashambulizi,NA,sdf,NA,5,NA,NA,NA,NA,NA,NA,NA,NA,NA,NA,NA,NA,NA,NA,NA,NA,NA,NA,NA
41c36,Shallow Question,html.Page,3_0_5_0_7_1_0,NA,NA,form submission,3299.7950000353,8240117.1,8240114.493,8240130.605,8243430.4,8243430.7,2023-05-15T16:23:11Z,8243444.527,NULL,Abrechnung,uhasibu,s,kusahihisha,mpambano,mashambulizi,uhasibu,NA,NA,5,NA,NA,NA,NA,NA,NA,NA,NA,NA,NA,NA,NA,NA,NA,NA,NA,NA,NA,NA
41c36,"""Richtig""-Screen",canvas.Screen,3_0_5_0_7_1_1,NA,NA,timeout,4995.9190000007,8243432.7,8243428.411,8243444.527,8248424.332,8248425.4,2023-05-15T16:23:16Z,8248440.446,NULL,Abrechnung,uhasibu,s,kusahihisha,mpambano,mashambulizi,NA,sdf,1,5,NA,NA,NA,NA,NA,NA,NA,NA,NA,NA,NA,NA,NA,NA,NA,NA,NA,NA,NA
41c36,"""Falsch""-Screen",canvas.Screen,3_0_5_0_7_1_2,NA,NA,skipped,NA,8248430.9,NA,NA,8248424.332,8248431.3,2023-05-15T16:23:16Z,8248440.446,NULL,Abrechnung,uhasibu,s,kusahihisha,mpambano,mashambulizi,NA,sdf,NA,5,NA,NA,NA,NA,NA,NA,NA,NA,NA,NA,NA,NA,NA,NA,NA,NA,NA,NA,NA
41c36,shallow,flow.Sequence,3_0_5_0_7_1,NA,NA,completion,8293.727,8240117.1,8240114.493,8240130.605,8248424.332,8248431.8,2023-05-15T16:23:16Z,8248440.446,NULL,Abrechnung,uhasibu,s,kusahihisha,mpambano,mashambulizi,NA,sdf,NA,5,NA,NA,NA,NA,NA,NA,NA,NA,NA,NA,NA,NA,NA,NA,NA,NA,NA,NA,NA
41c36,task,flow.Sequence,3_0_5_0_7,NA,NA,completion,8293.727,8240116.7,8240114.493,8240130.605,8248424.332,8248432.3,2023-05-15T16:23:16Z,8248440.446,NULL,Abrechnung,uhasibu,s,kusahihisha,mpambano,mashambulizi,NA,sdf,NA,5,NA,NA,NA,NA,NA,NA,NA,NA,NA,NA,NA,NA,NA,NA,NA,NA,NA,NA,NA
41c36,block,flow.Loop,3_0_5_0,NA,NA,completion,126295.258,8122103.2,8122094.992,8122129.074,8248424.332,8248432.7,2023-05-15T16:23:16Z,8248440.446,NULL,NA,NA,NA,NA,NA,NA,NA,sdf,NA,5,NA,NA,NA,NA,NA,NA,NA,NA,NA,NA,NA,NA,NA,NA,NA,NA,NA,NA,NA
41c36,weiter,canvas.Screen,3_0_5_1,sdf,keypress(Space),response,413.15400002338,8248432.9,8248424.332,8248440.446,8248853.6,8248855.2,2023-05-15T16:23:16Z,8248973.422,NULL,NA,NA,NA,NA,NA,NA,NA,sdf,NA,5,NA,NA,NA,NA,NA,NA,NA,NA,NA,NA,NA,NA,NA,NA,NA,NA,NA,NA,NA
41c36,check continue,flow.Sequence,3_0_5,NA,NA,completion,126724.52600002,8122103.1,8122094.992,8122129.074,8248853.6,8248855.6,2023-05-15T16:23:16Z,8248973.422,NULL,NA,NA,NA,NA,NA,NA,NA,sdf,NA,5,NA,NA,NA,NA,NA,NA,NA,NA,NA,NA,NA,NA,NA,NA,NA,NA,NA,NA,NA
41c36,Deep Question,html.Page,3_0_6_0_0_0_0,NA,NA,form submission,7813.0779999997,8248964.9,8248957.018,8248973.422,8256786.5,8256786.8,2023-05-15T16:23:24Z,8256800.755,NULL,Angreifer,mshambulizi,d,NA,NA,NA,mshambulizi,NA,NA,6,NA,NA,NA,NA,NA,NA,NA,NA,NA,NA,NA,NA,NA,NA,NA,NA,NA,NA,NA
41c36,"""Richtig""-Screen",canvas.Screen,3_0_6_0_0_0_1,NA,NA,timeout,4995.4220000003,8256789,8256784.131,8256800.755,8261779.49,8261780.4,2023-05-15T16:23:29Z,8261796.177,NULL,Angreifer,mshambulizi,d,NA,NA,NA,NA,dfs,1,6,NA,NA,NA,NA,NA,NA,NA,NA,NA,NA,NA,NA,NA,NA,NA,NA,NA,NA,NA
41c36,"""Falsch""-Screen",canvas.Screen,3_0_6_0_0_0_2,NA,NA,skipped,NA,8261785.5,NA,NA,8261779.49,8261785.8,2023-05-15T16:23:29Z,8261796.177,NULL,Angreifer,mshambulizi,d,NA,NA,NA,NA,dfs,NA,6,NA,NA,NA,NA,NA,NA,NA,NA,NA,NA,NA,NA,NA,NA,NA,NA,NA,NA,NA
41c36,deep,flow.Sequence,3_0_6_0_0_0,NA,NA,completion,12806.068,8248964.9,8248957.018,8248973.422,8261779.49,8261786.1,2023-05-15T16:23:29Z,8261796.177,NULL,Angreifer,mshambulizi,d,NA,NA,NA,NA,dfs,NA,6,NA,NA,NA,NA,NA,NA,NA,NA,NA,NA,NA,NA,NA,NA,NA,NA,NA,NA,NA
41c36,shallow,flow.Sequence,3_0_6_0_0_1,NA,NA,skipped,NA,8261786.2,NA,NA,8261779.49,8261786.3,2023-05-15T16:23:29Z,8261796.177,NULL,Angreifer,mshambulizi,d,NA,NA,NA,NA,dfs,NA,6,NA,NA,NA,NA,NA,NA,NA,NA,NA,NA,NA,NA,NA,NA,NA,NA,NA,NA,NA
41c36,task,flow.Sequence,3_0_6_0_0,NA,NA,completion,12806.068,8248964.9,8248957.018,8248973.422,8261779.49,8261786.5,2023-05-15T16:23:29Z,8261796.177,NULL,Angreifer,mshambulizi,d,NA,NA,NA,NA,dfs,NA,6,NA,NA,NA,NA,NA,NA,NA,NA,NA,NA,NA,NA,NA,NA,NA,NA,NA,NA,NA
41c36,deep,flow.Sequence,3_0_6_0_1_0,NA,NA,skipped,NA,8261786.7,NA,NA,8261779.49,8261786.8,2023-05-15T16:23:29Z,8261796.177,NULL,Abrechnung,uhasibu,s,kusahihisha,mpambano,mashambulizi,NA,dfs,NA,6,NA,NA,NA,NA,NA,NA,NA,NA,NA,NA,NA,NA,NA,NA,NA,NA,NA,NA,NA
41c36,Shallow Question,html.Page,3_0_6_0_1_1_0,NA,NA,form submission,4668.5229999879,8261786.9,8261779.49,8261796.177,8266464.7,8266465,2023-05-15T16:23:34Z,8266475.526,NULL,Abrechnung,uhasibu,s,kusahihisha,mpambano,mashambulizi,uhasibu,NA,NA,6,NA,NA,NA,NA,NA,NA,NA,NA,NA,NA,NA,NA,NA,NA,NA,NA,NA,NA,NA
41c36,"""Richtig""-Screen",canvas.Screen,3_0_6_0_1_1_1,NA,NA,timeout,4995.9980000006,8266466.8,8266459.334,8266475.526,8271455.286,8271456.5,2023-05-15T16:23:39Z,8271471.524,NULL,Abrechnung,uhasibu,s,kusahihisha,mpambano,mashambulizi,NA,dfs,1,6,NA,NA,NA,NA,NA,NA,NA,NA,NA,NA,NA,NA,NA,NA,NA,NA,NA,NA,NA
41c36,"""Falsch""-Screen",canvas.Screen,3_0_6_0_1_1_2,NA,NA,skipped,NA,8271461.8,NA,NA,8271455.286,8271462,2023-05-15T16:23:39Z,8271471.524,NULL,Abrechnung,uhasibu,s,kusahihisha,mpambano,mashambulizi,NA,dfs,NA,6,NA,NA,NA,NA,NA,NA,NA,NA,NA,NA,NA,NA,NA,NA,NA,NA,NA,NA,NA
41c36,shallow,flow.Sequence,3_0_6_0_1_1,NA,NA,completion,9659.1090000002,8261786.9,8261779.49,8261796.177,8271455.286,8271462.3,2023-05-15T16:23:39Z,8271471.524,NULL,Abrechnung,uhasibu,s,kusahihisha,mpambano,mashambulizi,NA,dfs,NA,6,NA,NA,NA,NA,NA,NA,NA,NA,NA,NA,NA,NA,NA,NA,NA,NA,NA,NA,NA
41c36,task,flow.Sequence,3_0_6_0_1,NA,NA,completion,9659.1090000002,8261786.6,8261779.49,8261796.177,8271455.286,8271462.7,2023-05-15T16:23:39Z,8271471.524,NULL,Abrechnung,uhasibu,s,kusahihisha,mpambano,mashambulizi,NA,dfs,NA,6,NA,NA,NA,NA,NA,NA,NA,NA,NA,NA,NA,NA,NA,NA,NA,NA,NA,NA,NA
41c36,deep,flow.Sequence,3_0_6_0_2_0,NA,NA,skipped,NA,8271462.8,NA,NA,8271455.286,8271463,2023-05-15T16:23:39Z,8271471.524,NULL,Kanzler,diwani,s,rasilmali,mahitaji,maabudu,NA,dfs,NA,6,NA,NA,NA,NA,NA,NA,NA,NA,NA,NA,NA,NA,NA,NA,NA,NA,NA,NA,NA
41c36,Shallow Question,html.Page,3_0_6_0_2_1_0,NA,NA,form submission,4466.0760000236,8271463.1,8271455.286,8271471.524,8275937.6,8275937.8,2023-05-15T16:23:43Z,8275951.658,NULL,Kanzler,diwani,s,rasilmali,mahitaji,maabudu,diwani,NA,NA,6,NA,NA,NA,NA,NA,NA,NA,NA,NA,NA,NA,NA,NA,NA,NA,NA,NA,NA,NA
41c36,"""Richtig""-Screen",canvas.Screen,3_0_6_0_2_1_1,NA,NA,timeout,4995.3849999998,8275939.5,8275935.004,8275951.658,8280930.892,8280931.8,2023-05-15T16:23:48Z,8280947.043,NULL,Kanzler,diwani,s,rasilmali,mahitaji,maabudu,NA,dfs,1,6,NA,NA,NA,NA,NA,NA,NA,NA,NA,NA,NA,NA,NA,NA,NA,NA,NA,NA,NA
41c36,"""Falsch""-Screen",canvas.Screen,3_0_6_0_2_1_2,NA,NA,skipped,NA,8280937,NA,NA,8280930.892,8280937.3,2023-05-15T16:23:48Z,8280947.043,NULL,Kanzler,diwani,s,rasilmali,mahitaji,maabudu,NA,dfs,NA,6,NA,NA,NA,NA,NA,NA,NA,NA,NA,NA,NA,NA,NA,NA,NA,NA,NA,NA,NA
41c36,shallow,flow.Sequence,3_0_6_0_2_1,NA,NA,completion,9459.3679999998,8271463.1,8271455.286,8271471.524,8280930.892,8280937.5,2023-05-15T16:23:48Z,8280947.043,NULL,Kanzler,diwani,s,rasilmali,mahitaji,maabudu,NA,dfs,NA,6,NA,NA,NA,NA,NA,NA,NA,NA,NA,NA,NA,NA,NA,NA,NA,NA,NA,NA,NA
41c36,task,flow.Sequence,3_0_6_0_2,NA,NA,completion,9459.3679999998,8271462.7,8271455.286,8271471.524,8280930.892,8280937.8,2023-05-15T16:23:48Z,8280947.043,NULL,Kanzler,diwani,s,rasilmali,mahitaji,maabudu,NA,dfs,NA,6,NA,NA,NA,NA,NA,NA,NA,NA,NA,NA,NA,NA,NA,NA,NA,NA,NA,NA,NA
41c36,deep,flow.Sequence,3_0_6_0_3_0,NA,NA,skipped,NA,8280937.9,NA,NA,8280930.892,8280938,2023-05-15T16:23:48Z,8280947.043,NULL,Schönheit,kirembo,s,mahojiano,msisimko,jitihadi,NA,dfs,NA,6,NA,NA,NA,NA,NA,NA,NA,NA,NA,NA,NA,NA,NA,NA,NA,NA,NA,NA,NA
41c36,Shallow Question,html.Page,3_0_6_0_3_1_0,NA,NA,form submission,4267.8570000362,8280938.2,8280930.892,8280947.043,8285214.9,8285215.1,2023-05-15T16:23:53Z,8285226.761,NULL,Schönheit,kirembo,s,mahojiano,msisimko,jitihadi,kirembo,NA,NA,6,NA,NA,NA,NA,NA,NA,NA,NA,NA,NA,NA,NA,NA,NA,NA,NA,NA,NA,NA
