observation,sender,sender_type,sender_id,response,response_action,ended_on,duration,time_run,time_render,time_show,time_end,time_commit,timestamp,time_switch,german,swahili,enc,distractor1,distractor2,distractor3,response_2,x,correct,distractors,url_vp,url_sess,meta_labjs_version,meta_location,meta_user_agent,meta_platform,meta_language,meta_locale,meta_time_zone,meta_timezone_offset,meta_screen_width,meta_screen_height,meta_scroll_width,meta_scroll_height,meta_window_inner_width,meta_window_inner_height,meta_device_pixel_ratio,meta_labjs_build_flavor,meta_labjs_build_commit
8bb4b,Introduction delayed retrieval,canvas.Screen,0,weiter,keypress(Space),response,15878.594,311.19999992847,241.242,307.906,16186.5,16196,2023-10-19T07:07:01Z,16207.949,NA,NA,NA,NA,NA,NA,NA,NA,NA,NULL,132,2,20.2.4,https://neurocog.fernuni.ch/studies/vweber/delayed/index.html?vp=132&sess=2,"Mozilla/5.0 (Macintosh; Intel Mac OS X 10_15_7) AppleWebKit/537.36 (KHTML, like Gecko) Chrome/117.0.0.0 Safari/537.36",MacIntel,de-DE,de,Europe/Zurich,-120,1440,900,1440,636,1440,684,2,production,f5b4a49f956347addd546a832a3327688c2c0fef
8bb4b,Deep Question,html.Page,1_0_0_0,NA,NA,form submission,16365.950999976,16196.5,16191.283,16207.949,32573.899999976,32574.399999976,2023-10-19T07:07:17Z,32575.09,Notfall,dharura,s,rairai,malalamiko,ahueni,u,NA,NA,NULL,NA,NA,NA,NA,NA,NA,NA,NA,NA,NA,NA,NA,NA,NA,NA,NA,NA,NA,NA
8bb4b,Save data screen,canvas.Screen,1_0_0_1,NA,NA,timeout,499.98,32575.799999952,32558.424,32575.09,33058.404,33061.5,2023-10-19T07:07:18Z,33075.07,Notfall,dharura,s,rairai,malalamiko,ahueni,NA,NA,0,NULL,NA,NA,NA,NA,NA,NA,NA,NA,NA,NA,NA,NA,NA,NA,NA,NA,NA,NA,NA
8bb4b,deep,flow.Sequence,1_0_0,NA,NA,completion,16850.455,16196.5,16191.283,16207.949,33058.404,33061.899999976,2023-10-19T07:07:18Z,33075.07,Notfall,dharura,s,rairai,malalamiko,ahueni,NA,NA,NA,NULL,NA,NA,NA,NA,NA,NA,NA,NA,NA,NA,NA,NA,NA,NA,NA,NA,NA,NA,NA
8bb4b,task,flow.Sequence,1_0,NA,NA,completion,16850.455,16196.5,16191.283,16207.949,33058.404,33062.199999928,2023-10-19T07:07:18Z,33075.07,Notfall,dharura,s,rairai,malalamiko,ahueni,NA,NA,NA,NULL,NA,NA,NA,NA,NA,NA,NA,NA,NA,NA,NA,NA,NA,NA,NA,NA,NA,NA,NA
8bb4b,Deep Question,html.Page,1_1_0_0,NA,NA,form submission,8752.7299999523,33062.5,33058.404,33075.07,41827.799999952,41828.299999952,2023-10-19T07:07:27Z,41841.966,Vermutung,udhanifu,s,haramia,tikisho,itifaki,-,NA,NA,NULL,NA,NA,NA,NA,NA,NA,NA,NA,NA,NA,NA,NA,NA,NA,NA,NA,NA,NA,NA
8bb4b,Save data screen,canvas.Screen,1_1_0_1,NA,NA,timeout,499.98,41829.5,41825.3,41841.966,42325.28,42329.5,2023-10-19T07:07:27Z,42341.946,Vermutung,udhanifu,s,haramia,tikisho,itifaki,NA,NA,0,NULL,NA,NA,NA,NA,NA,NA,NA,NA,NA,NA,NA,NA,NA,NA,NA,NA,NA,NA,NA
8bb4b,deep,flow.Sequence,1_1_0,NA,NA,completion,9250.21,33062.299999952,33058.404,33075.07,42325.28,42329.799999952,2023-10-19T07:07:27Z,42341.946,Vermutung,udhanifu,s,haramia,tikisho,itifaki,NA,NA,NA,NULL,NA,NA,NA,NA,NA,NA,NA,NA,NA,NA,NA,NA,NA,NA,NA,NA,NA,NA,NA
8bb4b,task,flow.Sequence,1_1,NA,NA,completion,9250.21,33062.299999952,33058.404,33075.07,42325.28,42330.199999928,2023-10-19T07:07:27Z,42341.946,Vermutung,udhanifu,s,haramia,tikisho,itifaki,NA,NA,NA,NULL,NA,NA,NA,NA,NA,NA,NA,NA,NA,NA,NA,NA,NA,NA,NA,NA,NA,NA,NA
8bb4b,Deep Question,html.Page,1_2_0_0,NA,NA,form submission,4210.8539999523,42330.5,42325.28,42341.946,46552.799999952,46553.5,2023-10-19T07:07:31Z,46558.444,Ergänzung,kijalizo,d,ulaghai,mustarehe,matangazo,-,NA,NA,NULL,NA,NA,NA,NA,NA,NA,NA,NA,NA,NA,NA,NA,NA,NA,NA,NA,NA,NA,NA
8bb4b,Save data screen,canvas.Screen,1_2_0_1,NA,NA,timeout,499.98,46554.5,46541.778,46558.444,47041.758,47046.5,2023-10-19T07:07:32Z,47058.424,Ergänzung,kijalizo,d,ulaghai,mustarehe,matangazo,NA,NA,0,NULL,NA,NA,NA,NA,NA,NA,NA,NA,NA,NA,NA,NA,NA,NA,NA,NA,NA,NA,NA
8bb4b,deep,flow.Sequence,1_2_0,NA,NA,completion,4699.812,42330.399999976,42325.28,42341.946,47041.758,47046.899999976,2023-10-19T07:07:32Z,47058.424,Ergänzung,kijalizo,d,ulaghai,mustarehe,matangazo,NA,NA,NA,NULL,NA,NA,NA,NA,NA,NA,NA,NA,NA,NA,NA,NA,NA,NA,NA,NA,NA,NA,NA
8bb4b,task,flow.Sequence,1_2,NA,NA,completion,4699.812,42330.299999952,42325.28,42341.946,47041.758,47047.199999928,2023-10-19T07:07:32Z,47058.424,Ergänzung,kijalizo,d,ulaghai,mustarehe,matangazo,NA,NA,NA,NULL,NA,NA,NA,NA,NA,NA,NA,NA,NA,NA,NA,NA,NA,NA,NA,NA,NA,NA,NA
8bb4b,Deep Question,html.Page,1_3_0_0,NA,NA,form submission,6134.7759999285,47047.399999976,47041.758,47058.424,53193.199999928,53193.699999928,2023-10-19T07:07:38Z,53208.725,Theorie,nadharia,d,ushungi,mkutano,uwakilishi,-,NA,NA,NULL,NA,NA,NA,NA,NA,NA,NA,NA,NA,NA,NA,NA,NA,NA,NA,NA,NA,NA,NA
8bb4b,Save data screen,canvas.Screen,1_3_0_1,NA,NA,timeout,499.98,53194.799999952,53192.059,53208.725,53692.039,53696,2023-10-19T07:07:38Z,53708.705,Theorie,nadharia,d,ushungi,mkutano,uwakilishi,NA,NA,0,NULL,NA,NA,NA,NA,NA,NA,NA,NA,NA,NA,NA,NA,NA,NA,NA,NA,NA,NA,NA
8bb4b,deep,flow.Sequence,1_3_0,NA,NA,completion,6633.615,47047.399999976,47041.758,47058.424,53692.039,53696.399999976,2023-10-19T07:07:38Z,53708.705,Theorie,nadharia,d,ushungi,mkutano,uwakilishi,NA,NA,NA,NULL,NA,NA,NA,NA,NA,NA,NA,NA,NA,NA,NA,NA,NA,NA,NA,NA,NA,NA,NA
8bb4b,task,flow.Sequence,1_3,NA,NA,completion,6633.615,47047.299999952,47041.758,47058.424,53692.039,53696.600000024,2023-10-19T07:07:38Z,53708.705,Theorie,nadharia,d,ushungi,mkutano,uwakilishi,NA,NA,NA,NULL,NA,NA,NA,NA,NA,NA,NA,NA,NA,NA,NA,NA,NA,NA,NA,NA,NA,NA,NA
8bb4b,Deep Question,html.Page,1_4_0_0,NA,NA,form submission,4619.8950000238,53696.799999952,53692.039,53708.705,58328.600000024,58328.899999976,2023-10-19T07:07:43Z,58341.853,Schlange,foleni,d,uvumilivu,uteuzi,muuzaji,adebi,NA,NA,NULL,NA,NA,NA,NA,NA,NA,NA,NA,NA,NA,NA,NA,NA,NA,NA,NA,NA,NA,NA
8bb4b,Save data screen,canvas.Screen,1_4_0_1,NA,NA,timeout,499.98,58329.5,58325.187,58341.853,58825.167,58828.299999952,2023-10-19T07:07:44Z,58841.833,Schlange,foleni,d,uvumilivu,uteuzi,muuzaji,NA,NA,0,NULL,NA,NA,NA,NA,NA,NA,NA,NA,NA,NA,NA,NA,NA,NA,NA,NA,NA,NA,NA
8bb4b,deep,flow.Sequence,1_4_0,NA,NA,completion,5116.462,53696.799999952,53692.039,53708.705,58825.167,58828.699999928,2023-10-19T07:07:44Z,58841.833,Schlange,foleni,d,uvumilivu,uteuzi,muuzaji,NA,NA,NA,NULL,NA,NA,NA,NA,NA,NA,NA,NA,NA,NA,NA,NA,NA,NA,NA,NA,NA,NA,NA
8bb4b,task,flow.Sequence,1_4,NA,NA,completion,5116.462,53696.699999928,53692.039,53708.705,58825.167,58828.899999976,2023-10-19T07:07:44Z,58841.833,Schlange,foleni,d,uvumilivu,uteuzi,muuzaji,NA,NA,NA,NULL,NA,NA,NA,NA,NA,NA,NA,NA,NA,NA,NA,NA,NA,NA,NA,NA,NA,NA,NA
8bb4b,Deep Question,html.Page,1_5_0_0,NA,NA,form submission,8146.9669999523,58829.199999928,58825.167,58841.833,66988.799999952,66989.299999952,2023-10-19T07:07:52Z,66992.1,Vergnügen,kichekesho,s,dubwana,mpanuko,mtesaji,kukucheti,NA,NA,NULL,NA,NA,NA,NA,NA,NA,NA,NA,NA,NA,NA,NA,NA,NA,NA,NA,NA,NA,NA
8bb4b,Save data screen,canvas.Screen,1_5_0_1,NA,NA,timeout,499.98,66991.899999976,66975.434,66992.1,67475.414,67480.199999928,2023-10-19T07:07:52Z,67492.08,Vergnügen,kichekesho,s,dubwana,mpanuko,mtesaji,NA,NA,0,NULL,NA,NA,NA,NA,NA,NA,NA,NA,NA,NA,NA,NA,NA,NA,NA,NA,NA,NA,NA
8bb4b,deep,flow.Sequence,1_5_0,NA,NA,completion,8633.581,58829.100000024,58825.167,58841.833,67475.414,67480.5,2023-10-19T07:07:52Z,67492.08,Vergnügen,kichekesho,s,dubwana,mpanuko,mtesaji,NA,NA,NA,NULL,NA,NA,NA,NA,NA,NA,NA,NA,NA,NA,NA,NA,NA,NA,NA,NA,NA,NA,NA
8bb4b,task,flow.Sequence,1_5,NA,NA,completion,8633.581,58829,58825.167,58841.833,67475.414,67480.699999928,2023-10-19T07:07:52Z,67492.08,Vergnügen,kichekesho,s,dubwana,mpanuko,mtesaji,NA,NA,NA,NULL,NA,NA,NA,NA,NA,NA,NA,NA,NA,NA,NA,NA,NA,NA,NA,NA,NA,NA,NA
8bb4b,Deep Question,html.Page,1_6_0_0,NA,NA,form submission,4039.6199999285,67481,67475.414,67492.08,71531.699999928,71532.199999928,2023-10-19T07:07:56Z,71541.918,Inhalt,yaliyomo,s,kishawishi,hifadhi,kutembea,-,NA,NA,NULL,NA,NA,NA,NA,NA,NA,NA,NA,NA,NA,NA,NA,NA,NA,NA,NA,NA,NA,NA
8bb4b,Save data screen,canvas.Screen,1_6_0_1,NA,NA,timeout,499.98,71535.299999952,71525.252,71541.918,72025.232,72030.100000024,2023-10-19T07:07:57Z,72041.898,Inhalt,yaliyomo,s,kishawishi,hifadhi,kutembea,NA,NA,0,NULL,NA,NA,NA,NA,NA,NA,NA,NA,NA,NA,NA,NA,NA,NA,NA,NA,NA,NA,NA
8bb4b,deep,flow.Sequence,1_6_0,NA,NA,completion,4533.152,67480.899999976,67475.414,67492.08,72025.232,72030.5,2023-10-19T07:07:57Z,72041.898,Inhalt,yaliyomo,s,kishawishi,hifadhi,kutembea,NA,NA,NA,NULL,NA,NA,NA,NA,NA,NA,NA,NA,NA,NA,NA,NA,NA,NA,NA,NA,NA,NA,NA
8bb4b,task,flow.Sequence,1_6,NA,NA,completion,4533.152,67480.799999952,67475.414,67492.08,72025.232,72030.799999952,2023-10-19T07:07:57Z,72041.898,Inhalt,yaliyomo,s,kishawishi,hifadhi,kutembea,NA,NA,NA,NULL,NA,NA,NA,NA,NA,NA,NA,NA,NA,NA,NA,NA,NA,NA,NA,NA,NA,NA,NA
8bb4b,Deep Question,html.Page,1_7_0_0,NA,NA,form submission,6380.9019999523,72030.899999976,72025.232,72041.898,78422.799999952,78423.299999952,2023-10-19T07:08:03Z,78425.587,Schüler,mwanafunzi,s,mwekezaji,matumizi,uaminifu,-,NA,NA,NULL,NA,NA,NA,NA,NA,NA,NA,NA,NA,NA,NA,NA,NA,NA,NA,NA,NA,NA,NA
8bb4b,Save data screen,canvas.Screen,1_7_0_1,NA,NA,timeout,499.98,78426.5,78408.921,78425.587,78908.901,78912.799999952,2023-10-19T07:08:04Z,78925.567,Schüler,mwanafunzi,s,mwekezaji,matumizi,uaminifu,NA,NA,0,NULL,NA,NA,NA,NA,NA,NA,NA,NA,NA,NA,NA,NA,NA,NA,NA,NA,NA,NA,NA
8bb4b,deep,flow.Sequence,1_7_0,NA,NA,completion,6867.003,72030.899999976,72025.232,72041.898,78908.901,78913.199999928,2023-10-19T07:08:04Z,78925.567,Schüler,mwanafunzi,s,mwekezaji,matumizi,uaminifu,NA,NA,NA,NULL,NA,NA,NA,NA,NA,NA,NA,NA,NA,NA,NA,NA,NA,NA,NA,NA,NA,NA,NA
8bb4b,task,flow.Sequence,1_7,NA,NA,completion,6867.003,72030.799999952,72025.232,72041.898,78908.901,78913.299999952,2023-10-19T07:08:04Z,78925.567,Schüler,mwanafunzi,s,mwekezaji,matumizi,uaminifu,NA,NA,NA,NULL,NA,NA,NA,NA,NA,NA,NA,NA,NA,NA,NA,NA,NA,NA,NA,NA,NA,NA,NA
8bb4b,Deep Question,html.Page,1_8_0_0,NA,NA,form submission,13703.533000024,78913.5,78908.901,78925.567,92629.100000024,92629.600000024,2023-10-19T07:08:17Z,92642.258,Spionage,upelelezi,d,maslahi,utokazo,magangao,ukelele,NA,NA,NULL,NA,NA,NA,NA,NA,NA,NA,NA,NA,NA,NA,NA,NA,NA,NA,NA,NA,NA,NA
8bb4b,Save data screen,canvas.Screen,1_8_0_1,NA,NA,timeout,499.98,92632.699999928,92625.592,92642.258,93125.572,93130.699999928,2023-10-19T07:08:18Z,93142.238,Spionage,upelelezi,d,maslahi,utokazo,magangao,NA,NA,0,NULL,NA,NA,NA,NA,NA,NA,NA,NA,NA,NA,NA,NA,NA,NA,NA,NA,NA,NA,NA
8bb4b,deep,flow.Sequence,1_8_0,NA,NA,completion,14200.005,78913.5,78908.901,78925.567,93125.572,93131,2023-10-19T07:08:18Z,93142.238,Spionage,upelelezi,d,maslahi,utokazo,magangao,NA,NA,NA,NULL,NA,NA,NA,NA,NA,NA,NA,NA,NA,NA,NA,NA,NA,NA,NA,NA,NA,NA,NA
8bb4b,task,flow.Sequence,1_8,NA,NA,completion,14200.005,78913.5,78908.901,78925.567,93125.572,93131.199999928,2023-10-19T07:08:18Z,93142.238,Spionage,upelelezi,d,maslahi,utokazo,magangao,NA,NA,NA,NULL,NA,NA,NA,NA,NA,NA,NA,NA,NA,NA,NA,NA,NA,NA,NA,NA,NA,NA,NA
8bb4b,Deep Question,html.Page,1_9_0_0,NA,NA,form submission,7940.262,93131.5,93125.572,93142.238,101082.5,101082.60000002,2023-10-19T07:08:26Z,101109.162,Tester,wanaojaribu,s,sherti,sihiri,mlipuko,upunshi,NA,NA,NULL,NA,NA,NA,NA,NA,NA,NA,NA,NA,NA,NA,NA,NA,NA,NA,NA,NA,NA,NA
8bb4b,Save data screen,canvas.Screen,1_9_0_1,NA,NA,timeout,499.98000000001,101084,101092.496,101109.162,101592.476,101595.69999993,2023-10-19T07:08:26Z,101609.142,Tester,wanaojaribu,s,sherti,sihiri,mlipuko,NA,NA,0,NULL,NA,NA,NA,NA,NA,NA,NA,NA,NA,NA,NA,NA,NA,NA,NA,NA,NA,NA,NA
8bb4b,deep,flow.Sequence,1_9_0,NA,NA,completion,8450.238,93131.399999976,93125.572,93142.238,101592.476,101595.79999995,2023-10-19T07:08:26Z,101609.142,Tester,wanaojaribu,s,sherti,sihiri,mlipuko,NA,NA,NA,NULL,NA,NA,NA,NA,NA,NA,NA,NA,NA,NA,NA,NA,NA,NA,NA,NA,NA,NA,NA
8bb4b,task,flow.Sequence,1_9,NA,NA,completion,8450.238,93131.299999952,93125.572,93142.238,101592.476,101595.89999998,2023-10-19T07:08:26Z,101609.142,Tester,wanaojaribu,s,sherti,sihiri,mlipuko,NA,NA,NA,NULL,NA,NA,NA,NA,NA,NA,NA,NA,NA,NA,NA,NA,NA,NA,NA,NA,NA,NA,NA
8bb4b,Deep Question,html.Page,1_10_0_0,NA,NA,form submission,3261.358,101595.89999998,101592.476,101609.142,104870.5,104871.10000002,2023-10-19T07:08:30Z,104876.234,Wohlstand,mafanikio,d,chimbuko,kumbuko,mapwaji,-,NA,NA,NULL,NA,NA,NA,NA,NA,NA,NA,NA,NA,NA,NA,NA,NA,NA,NA,NA,NA,NA,NA
8bb4b,Save data screen,canvas.Screen,1_10_0_1,NA,NA,timeout,499.98000000001,104873.29999995,104859.568,104876.234,105359.548,105364.29999995,2023-10-19T07:08:30Z,105376.214,Wohlstand,mafanikio,d,chimbuko,kumbuko,mapwaji,NA,NA,0,NULL,NA,NA,NA,NA,NA,NA,NA,NA,NA,NA,NA,NA,NA,NA,NA,NA,NA,NA,NA
8bb4b,deep,flow.Sequence,1_10_0,NA,NA,completion,3750.406,101595.89999998,101592.476,101609.142,105359.548,105364.69999993,2023-10-19T07:08:30Z,105376.214,Wohlstand,mafanikio,d,chimbuko,kumbuko,mapwaji,NA,NA,NA,NULL,NA,NA,NA,NA,NA,NA,NA,NA,NA,NA,NA,NA,NA,NA,NA,NA,NA,NA,NA
8bb4b,task,flow.Sequence,1_10,NA,NA,completion,3750.406,101595.89999998,101592.476,101609.142,105359.548,105364.89999998,2023-10-19T07:08:30Z,105376.214,Wohlstand,mafanikio,d,chimbuko,kumbuko,mapwaji,NA,NA,NA,NULL,NA,NA,NA,NA,NA,NA,NA,NA,NA,NA,NA,NA,NA,NA,NA,NA,NA,NA,NA
8bb4b,Deep Question,html.Page,1_11_0_0,NA,NA,form submission,10093.085999952,105365.10000002,105359.548,105376.214,115469.29999995,115469.69999993,2023-10-19T07:08:40Z,115493.053,Fenster,dirisha,d,walakini,tasawari,maarifa,dirash,NA,NA,NULL,NA,NA,NA,NA,NA,NA,NA,NA,NA,NA,NA,NA,NA,NA,NA,NA,NA,NA,NA
8bb4b,Save data screen,canvas.Screen,1_11_0_1,NA,NA,timeout,499.98,115472.69999993,115476.387,115493.053,115976.367,115979.89999998,2023-10-19T07:08:41Z,115993.033,Fenster,dirisha,d,walakini,tasawari,maarifa,NA,NA,0,NULL,NA,NA,NA,NA,NA,NA,NA,NA,NA,NA,NA,NA,NA,NA,NA,NA,NA,NA,NA
8bb4b,deep,flow.Sequence,1_11_0,NA,NA,completion,10600.153,105365.10000002,105359.548,105376.214,115976.367,115980.29999995,2023-10-19T07:08:41Z,115993.033,Fenster,dirisha,d,walakini,tasawari,maarifa,NA,NA,NA,NULL,NA,NA,NA,NA,NA,NA,NA,NA,NA,NA,NA,NA,NA,NA,NA,NA,NA,NA,NA
8bb4b,task,flow.Sequence,1_11,NA,NA,completion,10600.153,105364.89999998,105359.548,105376.214,115976.367,115980.39999998,2023-10-19T07:08:41Z,115993.033,Fenster,dirisha,d,walakini,tasawari,maarifa,NA,NA,NA,NULL,NA,NA,NA,NA,NA,NA,NA,NA,NA,NA,NA,NA,NA,NA,NA,NA,NA,NA,NA
8bb4b,Deep Question,html.Page,1_12_0_0,NA,NA,form submission,3361.2669999523,115980.69999993,115976.367,115993.033,119354.29999995,119354.89999998,2023-10-19T07:08:44Z,119359.565,Toleranz,kuvumiliana,d,maombolezo,ujasusi,mchekeshaji,-,NA,NA,NULL,NA,NA,NA,NA,NA,NA,NA,NA,NA,NA,NA,NA,NA,NA,NA,NA,NA,NA,NA
8bb4b,Save data screen,canvas.Screen,1_12_0_1,NA,NA,timeout,499.98,119355.69999993,119342.899,119359.565,119842.879,119847.10000002,2023-10-19T07:08:45Z,119859.545,Toleranz,kuvumiliana,d,maombolezo,ujasusi,mchekeshaji,NA,NA,0,NULL,NA,NA,NA,NA,NA,NA,NA,NA,NA,NA,NA,NA,NA,NA,NA,NA,NA,NA,NA
8bb4b,deep,flow.Sequence,1_12_0,NA,NA,completion,3849.846,115980.60000002,115976.367,115993.033,119842.879,119847.39999998,2023-10-19T07:08:45Z,119859.545,Toleranz,kuvumiliana,d,maombolezo,ujasusi,mchekeshaji,NA,NA,NA,NULL,NA,NA,NA,NA,NA,NA,NA,NA,NA,NA,NA,NA,NA,NA,NA,NA,NA,NA,NA
8bb4b,task,flow.Sequence,1_12,NA,NA,completion,3849.846,115980.60000002,115976.367,115993.033,119842.879,119847.60000002,2023-10-19T07:08:45Z,119859.545,Toleranz,kuvumiliana,d,maombolezo,ujasusi,mchekeshaji,NA,NA,NA,NULL,NA,NA,NA,NA,NA,NA,NA,NA,NA,NA,NA,NA,NA,NA,NA,NA,NA,NA,NA
8bb4b,Deep Question,html.Page,1_13_0_0,NA,NA,form submission,2772.7549999523,119848,119842.879,119859.545,122632.29999995,122632.69999993,2023-10-19T07:08:47Z,122642.767,Schock,mshtuko,d,biashara,kukataza,vichekesho,-,NA,NA,NULL,NA,NA,NA,NA,NA,NA,NA,NA,NA,NA,NA,NA,NA,NA,NA,NA,NA,NA,NA
8bb4b,Save data screen,canvas.Screen,1_13_0_1,NA,NA,timeout,499.98,122635,122626.101,122642.767,123126.081,123128.5,2023-10-19T07:08:48Z,123142.747,Schock,mshtuko,d,biashara,kukataza,vichekesho,NA,NA,0,NULL,NA,NA,NA,NA,NA,NA,NA,NA,NA,NA,NA,NA,NA,NA,NA,NA,NA,NA,NA
8bb4b,deep,flow.Sequence,1_13_0,NA,NA,completion,3266.536,119847.89999998,119842.879,119859.545,123126.081,123129,2023-10-19T07:08:48Z,123142.747,Schock,mshtuko,d,biashara,kukataza,vichekesho,NA,NA,NA,NULL,NA,NA,NA,NA,NA,NA,NA,NA,NA,NA,NA,NA,NA,NA,NA,NA,NA,NA,NA
8bb4b,task,flow.Sequence,1_13,NA,NA,completion,3266.536,119847.79999995,119842.879,119859.545,123126.081,123129.10000002,2023-10-19T07:08:48Z,123142.747,Schock,mshtuko,d,biashara,kukataza,vichekesho,NA,NA,NA,NULL,NA,NA,NA,NA,NA,NA,NA,NA,NA,NA,NA,NA,NA,NA,NA,NA,NA,NA,NA
8bb4b,Deep Question,html.Page,1_14_0_0,NA,NA,form submission,10664.652999976,123129.39999998,123126.081,123142.747,133807.39999998,133807.79999995,2023-10-19T07:08:58Z,133809.545,Hoffnung,matarajio,s,kutaalamika,uratibu,mvumbuzi,mastei,NA,NA,NULL,NA,NA,NA,NA,NA,NA,NA,NA,NA,NA,NA,NA,NA,NA,NA,NA,NA,NA,NA
8bb4b,Save data screen,canvas.Screen,1_14_0_1,NA,NA,timeout,499.97999999998,133810.89999998,133792.879,133809.545,134292.859,134297.10000002,2023-10-19T07:08:59Z,134309.525,Hoffnung,matarajio,s,kutaalamika,uratibu,mvumbuzi,NA,NA,0,NULL,NA,NA,NA,NA,NA,NA,NA,NA,NA,NA,NA,NA,NA,NA,NA,NA,NA,NA,NA
8bb4b,deep,flow.Sequence,1_14_0,NA,NA,completion,11150.112,123129.29999995,123126.081,123142.747,134292.859,134297.60000002,2023-10-19T07:08:59Z,134309.525,Hoffnung,matarajio,s,kutaalamika,uratibu,mvumbuzi,NA,NA,NA,NULL,NA,NA,NA,NA,NA,NA,NA,NA,NA,NA,NA,NA,NA,NA,NA,NA,NA,NA,NA
8bb4b,task,flow.Sequence,1_14,NA,NA,completion,11150.112,123129.19999993,123126.081,123142.747,134292.859,134297.69999993,2023-10-19T07:08:59Z,134309.525,Hoffnung,matarajio,s,kutaalamika,uratibu,mvumbuzi,NA,NA,NA,NULL,NA,NA,NA,NA,NA,NA,NA,NA,NA,NA,NA,NA,NA,NA,NA,NA,NA,NA,NA
8bb4b,Deep Question,html.Page,1_15_0_0,NA,NA,form submission,3896.3749999762,134298,134292.859,134309.525,138205.89999998,138206.29999995,2023-10-19T07:09:03Z,138209.925,Verpackung,ufungaji,s,uhusiano,upimaji,uchunguzi,-,NA,NA,NULL,NA,NA,NA,NA,NA,NA,NA,NA,NA,NA,NA,NA,NA,NA,NA,NA,NA,NA,NA
8bb4b,Save data screen,canvas.Screen,1_15_0_1,NA,NA,timeout,499.98000000001,138208.39999998,138193.259,138209.925,138693.239,138697.89999998,2023-10-19T07:09:03Z,138709.905,Verpackung,ufungaji,s,uhusiano,upimaji,uchunguzi,NA,NA,0,NULL,NA,NA,NA,NA,NA,NA,NA,NA,NA,NA,NA,NA,NA,NA,NA,NA,NA,NA,NA
8bb4b,deep,flow.Sequence,1_15_0,NA,NA,completion,4383.714,134297.89999998,134292.859,134309.525,138693.239,138698.29999995,2023-10-19T07:09:03Z,138709.905,Verpackung,ufungaji,s,uhusiano,upimaji,uchunguzi,NA,NA,NA,NULL,NA,NA,NA,NA,NA,NA,NA,NA,NA,NA,NA,NA,NA,NA,NA,NA,NA,NA,NA
8bb4b,task,flow.Sequence,1_15,NA,NA,completion,4383.714,134297.89999998,134292.859,134309.525,138693.239,138698.39999998,2023-10-19T07:09:03Z,138709.905,Verpackung,ufungaji,s,uhusiano,upimaji,uchunguzi,NA,NA,NA,NULL,NA,NA,NA,NA,NA,NA,NA,NA,NA,NA,NA,NA,NA,NA,NA,NA,NA,NA,NA
8bb4b,retrieval block 1 (cued recall),flow.Loop,1,NA,NA,completion,122485.29,16196.399999976,16191.283,16207.949,138693.239,138698.69999993,2023-10-19T07:09:03Z,138709.905,NA,NA,NA,NA,NA,NA,NA,NA,NA,NULL,NA,NA,NA,NA,NA,NA,NA,NA,NA,NA,NA,NA,NA,NA,NA,NA,NA,NA,NA
8bb4b,Shallow Question,html.Page,2_0_0_0,NA,NA,form submission,5796.8949999523,138699,138693.239,138709.905,144506.79999995,144507.29999995,2023-10-19T07:09:09Z,144509.673,Spionage,upelelezi,d,maslahi,utokazo,magangao,upelelezi,NA,NA,"c(""distractor1"", ""distractor2"", ""distractor3"")",NA,NA,NA,NA,NA,NA,NA,NA,NA,NA,NA,NA,NA,NA,NA,NA,NA,NA,NA
8bb4b,Save data screen,canvas.Screen,2_0_0_1,NA,NA,timeout,499.97999999998,144509.29999995,144493.007,144509.673,144992.987,144997.19999993,2023-10-19T07:09:10Z,145009.653,Spionage,upelelezi,d,maslahi,utokazo,magangao,NA,NA,1,"c(""distractor1"", ""distractor2"", ""distractor3"")",NA,NA,NA,NA,NA,NA,NA,NA,NA,NA,NA,NA,NA,NA,NA,NA,NA,NA,NA
8bb4b,shallow,flow.Sequence,2_0_0,NA,NA,completion,6283.082,138699,138693.239,138709.905,144992.987,144997.69999993,2023-10-19T07:09:10Z,145009.653,Spionage,upelelezi,d,maslahi,utokazo,magangao,NA,NA,NA,"c(""distractor1"", ""distractor2"", ""distractor3"")",NA,NA,NA,NA,NA,NA,NA,NA,NA,NA,NA,NA,NA,NA,NA,NA,NA,NA,NA
8bb4b,task,flow.Sequence,2_0,NA,NA,completion,6283.082,138698.89999998,138693.239,138709.905,144992.987,144997.89999998,2023-10-19T07:09:10Z,145009.653,Spionage,upelelezi,d,maslahi,utokazo,magangao,NA,NA,NA,"c(""distractor1"", ""distractor2"", ""distractor3"")",NA,NA,NA,NA,NA,NA,NA,NA,NA,NA,NA,NA,NA,NA,NA,NA,NA,NA,NA
8bb4b,Shallow Question,html.Page,2_1_0_0,NA,NA,form submission,4832.847,144998.10000002,144992.987,145009.653,149842.5,149843,2023-10-19T07:09:15Z,149843.424,Schüler,mwanafunzi,s,mwekezaji,matumizi,uaminifu,mwanafunzi,NA,NA,"c(""distractor1"", ""distractor2"", ""distractor3"")",NA,NA,NA,NA,NA,NA,NA,NA,NA,NA,NA,NA,NA,NA,NA,NA,NA,NA,NA
8bb4b,Save data screen,canvas.Screen,2_1_0_1,NA,NA,timeout,499.98000000001,149845.29999995,149826.758,149843.424,150326.738,150332.19999993,2023-10-19T07:09:15Z,150343.404,Schüler,mwanafunzi,s,mwekezaji,matumizi,uaminifu,NA,NA,1,"c(""distractor1"", ""distractor2"", ""distractor3"")",NA,NA,NA,NA,NA,NA,NA,NA,NA,NA,NA,NA,NA,NA,NA,NA,NA,NA,NA
8bb4b,shallow,flow.Sequence,2_1_0,NA,NA,completion,5317.085,144998.10000002,144992.987,145009.653,150326.738,150332.69999993,2023-10-19T07:09:15Z,150343.404,Schüler,mwanafunzi,s,mwekezaji,matumizi,uaminifu,NA,NA,NA,"c(""distractor1"", ""distractor2"", ""distractor3"")",NA,NA,NA,NA,NA,NA,NA,NA,NA,NA,NA,NA,NA,NA,NA,NA,NA,NA,NA
8bb4b,task,flow.Sequence,2_1,NA,NA,completion,5317.085,144998,144992.987,145009.653,150326.738,150332.89999998,2023-10-19T07:09:15Z,150343.404,Schüler,mwanafunzi,s,mwekezaji,matumizi,uaminifu,NA,NA,NA,"c(""distractor1"", ""distractor2"", ""distractor3"")",NA,NA,NA,NA,NA,NA,NA,NA,NA,NA,NA,NA,NA,NA,NA,NA,NA,NA,NA
8bb4b,Shallow Question,html.Page,2_2_0_0,NA,NA,form submission,7286.596,150333.10000002,150326.738,150343.404,157630,157630.29999995,2023-10-19T07:09:22Z,157643.112,Theorie,nadharia,d,ushungi,mkutano,uwakilishi,ushungi,NA,NA,"c(""distractor1"", ""distractor2"", ""distractor3"")",NA,NA,NA,NA,NA,NA,NA,NA,NA,NA,NA,NA,NA,NA,NA,NA,NA,NA,NA
8bb4b,Save data screen,canvas.Screen,2_2_0_1,NA,NA,timeout,500.58600000001,157632.29999995,157626.446,157643.112,158127.032,158130.69999993,2023-10-19T07:09:23Z,158143.698,Theorie,nadharia,d,ushungi,mkutano,uwakilishi,NA,NA,0,"c(""distractor1"", ""distractor2"", ""distractor3"")",NA,NA,NA,NA,NA,NA,NA,NA,NA,NA,NA,NA,NA,NA,NA,NA,NA,NA,NA
8bb4b,shallow,flow.Sequence,2_2_0,NA,NA,completion,7783.628,150333.10000002,150326.738,150343.404,158127.032,158131.10000002,2023-10-19T07:09:23Z,158143.698,Theorie,nadharia,d,ushungi,mkutano,uwakilishi,NA,NA,NA,"c(""distractor1"", ""distractor2"", ""distractor3"")",NA,NA,NA,NA,NA,NA,NA,NA,NA,NA,NA,NA,NA,NA,NA,NA,NA,NA,NA
8bb4b,task,flow.Sequence,2_2,NA,NA,completion,7783.628,150333,150326.738,150343.404,158127.032,158131.29999995,2023-10-19T07:09:23Z,158143.698,Theorie,nadharia,d,ushungi,mkutano,uwakilishi,NA,NA,NA,"c(""distractor1"", ""distractor2"", ""distractor3"")",NA,NA,NA,NA,NA,NA,NA,NA,NA,NA,NA,NA,NA,NA,NA,NA,NA,NA,NA
8bb4b,Shallow Question,html.Page,2_3_0_0,NA,NA,form submission,7991.2019999762,158131.60000002,158127.032,158143.698,166134.89999998,166135.39999998,2023-10-19T07:09:31Z,166143.378,Toleranz,kuvumiliana,d,maombolezo,ujasusi,mchekeshaji,maombolezo,NA,NA,"c(""distractor1"", ""distractor2"", ""distractor3"")",NA,NA,NA,NA,NA,NA,NA,NA,NA,NA,NA,NA,NA,NA,NA,NA,NA,NA,NA
8bb4b,Save data screen,canvas.Screen,2_3_0_1,NA,NA,timeout,499.98000000001,166138,166126.712,166143.378,166626.692,166629.60000002,2023-10-19T07:09:31Z,166643.358,Toleranz,kuvumiliana,d,maombolezo,ujasusi,mchekeshaji,NA,NA,0,"c(""distractor1"", ""distractor2"", ""distractor3"")",NA,NA,NA,NA,NA,NA,NA,NA,NA,NA,NA,NA,NA,NA,NA,NA,NA,NA,NA
8bb4b,shallow,flow.Sequence,2_3_0,NA,NA,completion,8482.994,158131.5,158127.032,158143.698,166626.692,166630.10000002,2023-10-19T07:09:31Z,166643.358,Toleranz,kuvumiliana,d,maombolezo,ujasusi,mchekeshaji,NA,NA,NA,"c(""distractor1"", ""distractor2"", ""distractor3"")",NA,NA,NA,NA,NA,NA,NA,NA,NA,NA,NA,NA,NA,NA,NA,NA,NA,NA,NA
8bb4b,task,flow.Sequence,2_3,NA,NA,completion,8482.994,158131.5,158127.032,158143.698,166626.692,166630.19999993,2023-10-19T07:09:31Z,166643.358,Toleranz,kuvumiliana,d,maombolezo,ujasusi,mchekeshaji,NA,NA,NA,"c(""distractor1"", ""distractor2"", ""distractor3"")",NA,NA,NA,NA,NA,NA,NA,NA,NA,NA,NA,NA,NA,NA,NA,NA,NA,NA,NA
8bb4b,Shallow Question,html.Page,2_4_0_0,NA,NA,form submission,4473.0419999762,166630.5,166626.692,166643.358,171116.39999998,171117,2023-10-19T07:09:36Z,171127.187,Vergnügen,kichekesho,s,dubwana,mpanuko,mtesaji,kichekesho,NA,NA,"c(""distractor1"", ""distractor2"", ""distractor3"")",NA,NA,NA,NA,NA,NA,NA,NA,NA,NA,NA,NA,NA,NA,NA,NA,NA,NA,NA
8bb4b,Save data screen,canvas.Screen,2_4_0_1,NA,NA,timeout,499.97999999998,171119.60000002,171110.521,171127.187,171610.501,171615.39999998,2023-10-19T07:09:36Z,171627.167,Vergnügen,kichekesho,s,dubwana,mpanuko,mtesaji,NA,NA,1,"c(""distractor1"", ""distractor2"", ""distractor3"")",NA,NA,NA,NA,NA,NA,NA,NA,NA,NA,NA,NA,NA,NA,NA,NA,NA,NA,NA
8bb4b,shallow,flow.Sequence,2_4_0,NA,NA,completion,4967.143,166630.39999998,166626.692,166643.358,171610.501,171615.79999995,2023-10-19T07:09:36Z,171627.167,Vergnügen,kichekesho,s,dubwana,mpanuko,mtesaji,NA,NA,NA,"c(""distractor1"", ""distractor2"", ""distractor3"")",NA,NA,NA,NA,NA,NA,NA,NA,NA,NA,NA,NA,NA,NA,NA,NA,NA,NA,NA
8bb4b,task,flow.Sequence,2_4,NA,NA,completion,4967.143,166630.39999998,166626.692,166643.358,171610.501,171616.10000002,2023-10-19T07:09:36Z,171627.167,Vergnügen,kichekesho,s,dubwana,mpanuko,mtesaji,NA,NA,NA,"c(""distractor1"", ""distractor2"", ""distractor3"")",NA,NA,NA,NA,NA,NA,NA,NA,NA,NA,NA,NA,NA,NA,NA,NA,NA,NA,NA
8bb4b,Shallow Question,html.Page,2_5_0_0,NA,NA,form submission,5347.2329999762,171616.19999993,171610.501,171627.167,176974.39999998,176975,2023-10-19T07:09:42Z,176976.953,Schock,mshtuko,d,biashara,kukataza,vichekesho,mshtuko,NA,NA,"c(""distractor1"", ""distractor2"", ""distractor3"")",NA,NA,NA,NA,NA,NA,NA,NA,NA,NA,NA,NA,NA,NA,NA,NA,NA,NA,NA
8bb4b,Save data screen,canvas.Screen,2_5_0_1,NA,NA,timeout,499.97999999998,176977.10000002,176960.287,176976.953,177460.267,177463.29999995,2023-10-19T07:09:42Z,177476.933,Schock,mshtuko,d,biashara,kukataza,vichekesho,NA,NA,1,"c(""distractor1"", ""distractor2"", ""distractor3"")",NA,NA,NA,NA,NA,NA,NA,NA,NA,NA,NA,NA,NA,NA,NA,NA,NA,NA,NA
8bb4b,shallow,flow.Sequence,2_5_0,NA,NA,completion,5833.1,171616.19999993,171610.501,171627.167,177460.267,177463.79999995,2023-10-19T07:09:42Z,177476.933,Schock,mshtuko,d,biashara,kukataza,vichekesho,NA,NA,NA,"c(""distractor1"", ""distractor2"", ""distractor3"")",NA,NA,NA,NA,NA,NA,NA,NA,NA,NA,NA,NA,NA,NA,NA,NA,NA,NA,NA
8bb4b,task,flow.Sequence,2_5,NA,NA,completion,5833.1,171616.10000002,171610.501,171627.167,177460.267,177463.89999998,2023-10-19T07:09:42Z,177476.933,Schock,mshtuko,d,biashara,kukataza,vichekesho,NA,NA,NA,"c(""distractor1"", ""distractor2"", ""distractor3"")",NA,NA,NA,NA,NA,NA,NA,NA,NA,NA,NA,NA,NA,NA,NA,NA,NA,NA,NA
8bb4b,Shallow Question,html.Page,2_6_0_0,NA,NA,form submission,4334.6670000239,177464.10000002,177460.267,177476.933,181811.60000002,181812.19999993,2023-10-19T07:09:46Z,181810.659,Verpackung,ufungaji,s,uhusiano,upimaji,uchunguzi,ufungaji,NA,NA,"c(""distractor1"", ""distractor2"", ""distractor3"")",NA,NA,NA,NA,NA,NA,NA,NA,NA,NA,NA,NA,NA,NA,NA,NA,NA,NA,NA
8bb4b,Save data screen,canvas.Screen,2_6_0_1,NA,NA,timeout,499.97999999998,181814.79999995,181793.993,181810.659,182293.973,182298.39999998,2023-10-19T07:09:47Z,182310.639,Verpackung,ufungaji,s,uhusiano,upimaji,uchunguzi,NA,NA,1,"c(""distractor1"", ""distractor2"", ""distractor3"")",NA,NA,NA,NA,NA,NA,NA,NA,NA,NA,NA,NA,NA,NA,NA,NA,NA,NA,NA
8bb4b,shallow,flow.Sequence,2_6_0,NA,NA,completion,4817.04,177464.10000002,177460.267,177476.933,182293.973,182298.79999995,2023-10-19T07:09:47Z,182310.639,Verpackung,ufungaji,s,uhusiano,upimaji,uchunguzi,NA,NA,NA,"c(""distractor1"", ""distractor2"", ""distractor3"")",NA,NA,NA,NA,NA,NA,NA,NA,NA,NA,NA,NA,NA,NA,NA,NA,NA,NA,NA
8bb4b,task,flow.Sequence,2_6,NA,NA,completion,4817.04,177464.10000002,177460.267,177476.933,182293.973,182298.89999998,2023-10-19T07:09:47Z,182310.639,Verpackung,ufungaji,s,uhusiano,upimaji,uchunguzi,NA,NA,NA,"c(""distractor1"", ""distractor2"", ""distractor3"")",NA,NA,NA,NA,NA,NA,NA,NA,NA,NA,NA,NA,NA,NA,NA,NA,NA,NA,NA
8bb4b,Shallow Question,html.Page,2_7_0_0,NA,NA,form submission,3666.361,182299.19999993,182293.973,182310.639,185977,185977.39999998,2023-10-19T07:09:51Z,185977.159,Fenster,dirisha,d,walakini,tasawari,maarifa,dirisha,NA,NA,"c(""distractor1"", ""distractor2"", ""distractor3"")",NA,NA,NA,NA,NA,NA,NA,NA,NA,NA,NA,NA,NA,NA,NA,NA,NA,NA,NA
8bb4b,Save data screen,canvas.Screen,2_7_0_1,NA,NA,timeout,499.97999999998,185979.89999998,185960.493,185977.159,186460.473,186463.19999993,2023-10-19T07:09:51Z,186477.139,Fenster,dirisha,d,walakini,tasawari,maarifa,NA,NA,1,"c(""distractor1"", ""distractor2"", ""distractor3"")",NA,NA,NA,NA,NA,NA,NA,NA,NA,NA,NA,NA,NA,NA,NA,NA,NA,NA,NA
8bb4b,shallow,flow.Sequence,2_7_0,NA,NA,completion,4149.834,182299.19999993,182293.973,182310.639,186460.473,186463.39999998,2023-10-19T07:09:51Z,186477.139,Fenster,dirisha,d,walakini,tasawari,maarifa,NA,NA,NA,"c(""distractor1"", ""distractor2"", ""distractor3"")",NA,NA,NA,NA,NA,NA,NA,NA,NA,NA,NA,NA,NA,NA,NA,NA,NA,NA,NA
8bb4b,task,flow.Sequence,2_7,NA,NA,completion,4149.834,182299.10000002,182293.973,182310.639,186460.473,186463.5,2023-10-19T07:09:51Z,186477.139,Fenster,dirisha,d,walakini,tasawari,maarifa,NA,NA,NA,"c(""distractor1"", ""distractor2"", ""distractor3"")",NA,NA,NA,NA,NA,NA,NA,NA,NA,NA,NA,NA,NA,NA,NA,NA,NA,NA,NA
8bb4b,Shallow Question,html.Page,2_8_0_0,NA,NA,form submission,5440.2609999762,186463.69999993,186460.473,186477.139,191917.39999998,191917.89999998,2023-10-19T07:09:57Z,191927.525,Inhalt,yaliyomo,s,kishawishi,hifadhi,kutembea,hifadhi,NA,NA,"c(""distractor1"", ""distractor2"", ""distractor3"")",NA,NA,NA,NA,NA,NA,NA,NA,NA,NA,NA,NA,NA,NA,NA,NA,NA,NA,NA
8bb4b,Save data screen,canvas.Screen,2_8_0_1,NA,NA,timeout,499.98000000001,191920.19999993,191910.859,191927.525,192410.839,192414.60000002,2023-10-19T07:09:57Z,192427.505,Inhalt,yaliyomo,s,kishawishi,hifadhi,kutembea,NA,NA,0,"c(""distractor1"", ""distractor2"", ""distractor3"")",NA,NA,NA,NA,NA,NA,NA,NA,NA,NA,NA,NA,NA,NA,NA,NA,NA,NA,NA
8bb4b,shallow,flow.Sequence,2_8_0,NA,NA,completion,5933.7,186463.69999993,186460.473,186477.139,192410.839,192415,2023-10-19T07:09:57Z,192427.505,Inhalt,yaliyomo,s,kishawishi,hifadhi,kutembea,NA,NA,NA,"c(""distractor1"", ""distractor2"", ""distractor3"")",NA,NA,NA,NA,NA,NA,NA,NA,NA,NA,NA,NA,NA,NA,NA,NA,NA,NA,NA
8bb4b,task,flow.Sequence,2_8,NA,NA,completion,5933.7,186463.60000002,186460.473,186477.139,192410.839,192415.19999993,2023-10-19T07:09:57Z,192427.505,Inhalt,yaliyomo,s,kishawishi,hifadhi,kutembea,NA,NA,NA,"c(""distractor1"", ""distractor2"", ""distractor3"")",NA,NA,NA,NA,NA,NA,NA,NA,NA,NA,NA,NA,NA,NA,NA,NA,NA,NA,NA
8bb4b,Shallow Question,html.Page,2_9_0_0,NA,NA,form submission,6643.995,192415.39999998,192410.839,192427.505,199071.5,199072.10000002,2023-10-19T07:10:04Z,199077.239,Ergänzung,kijalizo,d,ulaghai,mustarehe,matangazo,ulaghai,NA,NA,"c(""distractor1"", ""distractor2"", ""distractor3"")",NA,NA,NA,NA,NA,NA,NA,NA,NA,NA,NA,NA,NA,NA,NA,NA,NA,NA,NA
8bb4b,Save data screen,canvas.Screen,2_9_0_1,NA,NA,timeout,499.98000000001,199074.69999993,199060.573,199077.239,199560.553,199565.39999998,2023-10-19T07:10:04Z,199577.219,Ergänzung,kijalizo,d,ulaghai,mustarehe,matangazo,NA,NA,0,"c(""distractor1"", ""distractor2"", ""distractor3"")",NA,NA,NA,NA,NA,NA,NA,NA,NA,NA,NA,NA,NA,NA,NA,NA,NA,NA,NA
8bb4b,shallow,flow.Sequence,2_9_0,NA,NA,completion,7133.048,192415.39999998,192410.839,192427.505,199560.553,199565.69999993,2023-10-19T07:10:04Z,199577.219,Ergänzung,kijalizo,d,ulaghai,mustarehe,matangazo,NA,NA,NA,"c(""distractor1"", ""distractor2"", ""distractor3"")",NA,NA,NA,NA,NA,NA,NA,NA,NA,NA,NA,NA,NA,NA,NA,NA,NA,NA,NA
8bb4b,task,flow.Sequence,2_9,NA,NA,completion,7133.048,192415.19999993,192410.839,192427.505,199560.553,199566,2023-10-19T07:10:04Z,199577.219,Ergänzung,kijalizo,d,ulaghai,mustarehe,matangazo,NA,NA,NA,"c(""distractor1"", ""distractor2"", ""distractor3"")",NA,NA,NA,NA,NA,NA,NA,NA,NA,NA,NA,NA,NA,NA,NA,NA,NA,NA,NA
8bb4b,Shallow Question,html.Page,2_10_0_0,NA,NA,form submission,4557.0809999523,199566.19999993,199560.553,199577.219,204134.29999995,204134.89999998,2023-10-19T07:10:09Z,204144.244,Tester,wanaojaribu,s,sherti,sihiri,mlipuko,sherti,NA,NA,"c(""distractor1"", ""distractor2"", ""distractor3"")",NA,NA,NA,NA,NA,NA,NA,NA,NA,NA,NA,NA,NA,NA,NA,NA,NA,NA,NA
8bb4b,Save data screen,canvas.Screen,2_10_0_1,NA,NA,timeout,499.97999999998,204137.19999993,204127.578,204144.244,204627.558,204632.60000002,2023-10-19T07:10:09Z,204644.224,Tester,wanaojaribu,s,sherti,sihiri,mlipuko,NA,NA,0,"c(""distractor1"", ""distractor2"", ""distractor3"")",NA,NA,NA,NA,NA,NA,NA,NA,NA,NA,NA,NA,NA,NA,NA,NA,NA,NA,NA
8bb4b,shallow,flow.Sequence,2_10_0,NA,NA,completion,5050.339,199566.19999993,199560.553,199577.219,204627.558,204633,2023-10-19T07:10:09Z,204644.224,Tester,wanaojaribu,s,sherti,sihiri,mlipuko,NA,NA,NA,"c(""distractor1"", ""distractor2"", ""distractor3"")",NA,NA,NA,NA,NA,NA,NA,NA,NA,NA,NA,NA,NA,NA,NA,NA,NA,NA,NA
8bb4b,task,flow.Sequence,2_10,NA,NA,completion,5050.339,199566.10000002,199560.553,199577.219,204627.558,204633.10000002,2023-10-19T07:10:09Z,204644.224,Tester,wanaojaribu,s,sherti,sihiri,mlipuko,NA,NA,NA,"c(""distractor1"", ""distractor2"", ""distractor3"")",NA,NA,NA,NA,NA,NA,NA,NA,NA,NA,NA,NA,NA,NA,NA,NA,NA,NA,NA
8bb4b,Shallow Question,html.Page,2_11_0_0,NA,NA,form submission,10803.075999952,204633.39999998,204627.558,204644.224,215447.29999995,215447.79999995,2023-10-19T07:10:20Z,215461.12,Vermutung,udhanifu,s,haramia,tikisho,itifaki,itifaki,NA,NA,"c(""distractor1"", ""distractor2"", ""distractor3"")",NA,NA,NA,NA,NA,NA,NA,NA,NA,NA,NA,NA,NA,NA,NA,NA,NA,NA,NA
8bb4b,Save data screen,canvas.Screen,2_11_0_1,NA,NA,timeout,499.98000000001,215450.10000002,215444.454,215461.12,215944.434,215949.10000002,2023-10-19T07:10:21Z,215961.1,Vermutung,udhanifu,s,haramia,tikisho,itifaki,NA,NA,0,"c(""distractor1"", ""distractor2"", ""distractor3"")",NA,NA,NA,NA,NA,NA,NA,NA,NA,NA,NA,NA,NA,NA,NA,NA,NA,NA,NA
8bb4b,shallow,flow.Sequence,2_11_0,NA,NA,completion,11300.21,204633.19999993,204627.558,204644.224,215944.434,215949.5,2023-10-19T07:10:21Z,215961.1,Vermutung,udhanifu,s,haramia,tikisho,itifaki,NA,NA,NA,"c(""distractor1"", ""distractor2"", ""distractor3"")",NA,NA,NA,NA,NA,NA,NA,NA,NA,NA,NA,NA,NA,NA,NA,NA,NA,NA,NA
8bb4b,task,flow.Sequence,2_11,NA,NA,completion,11300.21,204633.19999993,204627.558,204644.224,215944.434,215949.60000002,2023-10-19T07:10:21Z,215961.1,Vermutung,udhanifu,s,haramia,tikisho,itifaki,NA,NA,NA,"c(""distractor1"", ""distractor2"", ""distractor3"")",NA,NA,NA,NA,NA,NA,NA,NA,NA,NA,NA,NA,NA,NA,NA,NA,NA,NA,NA
8bb4b,Shallow Question,html.Page,2_12_0_0,NA,NA,form submission,7597.6999999523,215949.79999995,215944.434,215961.1,223558.79999995,223559.39999998,2023-10-19T07:10:28Z,223560.796,Hoffnung,matarajio,s,kutaalamika,uratibu,mvumbuzi,matarajio,NA,NA,"c(""distractor1"", ""distractor2"", ""distractor3"")",NA,NA,NA,NA,NA,NA,NA,NA,NA,NA,NA,NA,NA,NA,NA,NA,NA,NA,NA
8bb4b,Save data screen,canvas.Screen,2_12_0_1,NA,NA,timeout,500.54499999998,223561.79999995,223544.13,223560.796,224044.675,224049.60000002,2023-10-19T07:10:29Z,224061.341,Hoffnung,matarajio,s,kutaalamika,uratibu,mvumbuzi,NA,NA,1,"c(""distractor1"", ""distractor2"", ""distractor3"")",NA,NA,NA,NA,NA,NA,NA,NA,NA,NA,NA,NA,NA,NA,NA,NA,NA,NA,NA
8bb4b,shallow,flow.Sequence,2_12_0,NA,NA,completion,8083.575,215949.79999995,215944.434,215961.1,224044.675,224050,2023-10-19T07:10:29Z,224061.341,Hoffnung,matarajio,s,kutaalamika,uratibu,mvumbuzi,NA,NA,NA,"c(""distractor1"", ""distractor2"", ""distractor3"")",NA,NA,NA,NA,NA,NA,NA,NA,NA,NA,NA,NA,NA,NA,NA,NA,NA,NA,NA
8bb4b,task,flow.Sequence,2_12,NA,NA,completion,8083.575,215949.79999995,215944.434,215961.1,224044.675,224050.19999993,2023-10-19T07:10:29Z,224061.341,Hoffnung,matarajio,s,kutaalamika,uratibu,mvumbuzi,NA,NA,NA,"c(""distractor1"", ""distractor2"", ""distractor3"")",NA,NA,NA,NA,NA,NA,NA,NA,NA,NA,NA,NA,NA,NA,NA,NA,NA,NA,NA
8bb4b,Shallow Question,html.Page,2_13_0_0,NA,NA,form submission,3367.9589999523,224050.5,224044.675,224061.341,227429.29999995,227429.79999995,2023-10-19T07:10:32Z,227444.539,Notfall,dharura,s,rairai,malalamiko,ahueni,dharura,NA,NA,"c(""distractor1"", ""distractor2"", ""distractor3"")",NA,NA,NA,NA,NA,NA,NA,NA,NA,NA,NA,NA,NA,NA,NA,NA,NA,NA,NA
8bb4b,Save data screen,canvas.Screen,2_13_0_1,NA,NA,timeout,499.98000000001,227430.79999995,227427.873,227444.539,227927.853,227932.39999998,2023-10-19T07:10:33Z,227944.519,Notfall,dharura,s,rairai,malalamiko,ahueni,NA,NA,1,"c(""distractor1"", ""distractor2"", ""distractor3"")",NA,NA,NA,NA,NA,NA,NA,NA,NA,NA,NA,NA,NA,NA,NA,NA,NA,NA,NA
8bb4b,shallow,flow.Sequence,2_13_0,NA,NA,completion,3866.512,224050.39999998,224044.675,224061.341,227927.853,227932.69999993,2023-10-19T07:10:33Z,227944.519,Notfall,dharura,s,rairai,malalamiko,ahueni,NA,NA,NA,"c(""distractor1"", ""distractor2"", ""distractor3"")",NA,NA,NA,NA,NA,NA,NA,NA,NA,NA,NA,NA,NA,NA,NA,NA,NA,NA,NA
8bb4b,task,flow.Sequence,2_13,NA,NA,completion,3866.512,224050.29999995,224044.675,224061.341,227927.853,227932.89999998,2023-10-19T07:10:33Z,227944.519,Notfall,dharura,s,rairai,malalamiko,ahueni,NA,NA,NA,"c(""distractor1"", ""distractor2"", ""distractor3"")",NA,NA,NA,NA,NA,NA,NA,NA,NA,NA,NA,NA,NA,NA,NA,NA,NA,NA,NA
8bb4b,Shallow Question,html.Page,2_14_0_0,NA,NA,form submission,6982.2809999523,227933.19999993,227927.853,227944.519,234926.79999995,234927.29999995,2023-10-19T07:10:40Z,234928.121,Wohlstand,mafanikio,d,chimbuko,kumbuko,mapwaji,mafanikio,NA,NA,"c(""distractor1"", ""distractor2"", ""distractor3"")",NA,NA,NA,NA,NA,NA,NA,NA,NA,NA,NA,NA,NA,NA,NA,NA,NA,NA,NA
8bb4b,Save data screen,canvas.Screen,2_14_0_1,NA,NA,timeout,499.97999999998,234930,234911.455,234928.121,235411.435,235415.69999993,2023-10-19T07:10:40Z,235428.101,Wohlstand,mafanikio,d,chimbuko,kumbuko,mapwaji,NA,NA,1,"c(""distractor1"", ""distractor2"", ""distractor3"")",NA,NA,NA,NA,NA,NA,NA,NA,NA,NA,NA,NA,NA,NA,NA,NA,NA,NA,NA
8bb4b,shallow,flow.Sequence,2_14_0,NA,NA,completion,7466.916,227933.10000002,227927.853,227944.519,235411.435,235416.10000002,2023-10-19T07:10:40Z,235428.101,Wohlstand,mafanikio,d,chimbuko,kumbuko,mapwaji,NA,NA,NA,"c(""distractor1"", ""distractor2"", ""distractor3"")",NA,NA,NA,NA,NA,NA,NA,NA,NA,NA,NA,NA,NA,NA,NA,NA,NA,NA,NA
8bb4b,task,flow.Sequence,2_14,NA,NA,completion,7466.916,227933,227927.853,227944.519,235411.435,235416.29999995,2023-10-19T07:10:40Z,235428.101,Wohlstand,mafanikio,d,chimbuko,kumbuko,mapwaji,NA,NA,NA,"c(""distractor1"", ""distractor2"", ""distractor3"")",NA,NA,NA,NA,NA,NA,NA,NA,NA,NA,NA,NA,NA,NA,NA,NA,NA,NA,NA
8bb4b,Shallow Question,html.Page,2_15_0_0,NA,NA,form submission,3671.5989999285,235416.5,235411.435,235428.101,239099.69999993,239100.19999993,2023-10-19T07:10:44Z,239111.287,Schlange,foleni,d,uvumilivu,uteuzi,muuzaji,foleni,NA,NA,"c(""distractor1"", ""distractor2"", ""distractor3"")",NA,NA,NA,NA,NA,NA,NA,NA,NA,NA,NA,NA,NA,NA,NA,NA,NA,NA,NA
8bb4b,Save data screen,canvas.Screen,2_15_0_1,NA,NA,timeout,499.97999999998,239102.39999998,239094.621,239111.287,239594.601,239597.5,2023-10-19T07:10:44Z,239611.267,Schlange,foleni,d,uvumilivu,uteuzi,muuzaji,NA,NA,1,"c(""distractor1"", ""distractor2"", ""distractor3"")",NA,NA,NA,NA,NA,NA,NA,NA,NA,NA,NA,NA,NA,NA,NA,NA,NA,NA,NA
8bb4b,shallow,flow.Sequence,2_15_0,NA,NA,completion,4166.5,235416.5,235411.435,235428.101,239594.601,239597.79999995,2023-10-19T07:10:44Z,239611.267,Schlange,foleni,d,uvumilivu,uteuzi,muuzaji,NA,NA,NA,"c(""distractor1"", ""distractor2"", ""distractor3"")",NA,NA,NA,NA,NA,NA,NA,NA,NA,NA,NA,NA,NA,NA,NA,NA,NA,NA,NA
8bb4b,task,flow.Sequence,2_15,NA,NA,completion,4166.5,235416.39999998,235411.435,235428.101,239594.601,239598,2023-10-19T07:10:44Z,239611.267,Schlange,foleni,d,uvumilivu,uteuzi,muuzaji,NA,NA,NA,"c(""distractor1"", ""distractor2"", ""distractor3"")",NA,NA,NA,NA,NA,NA,NA,NA,NA,NA,NA,NA,NA,NA,NA,NA,NA,NA,NA
8bb4b,retrieval block 2 (multiple choice),flow.Loop,2,NA,NA,completion,100884.696,138698.79999995,138693.239,138709.905,239594.601,239598.19999993,2023-10-19T07:10:44Z,239611.267,NA,NA,NA,NA,NA,NA,NA,NA,NA,"c(""distractor1"", ""distractor2"", ""distractor3"")",NA,NA,NA,NA,NA,NA,NA,NA,NA,NA,NA,NA,NA,NA,NA,NA,NA,NA,NA
8bb4b,End,canvas.Screen,3,NA,keypress(Space),response,1514.733,239598.39999998,239594.601,239611.267,241126,241132.39999998,2023-10-19T07:10:46Z,241144.539,NA,NA,NA,NA,NA,NA,NA,NA,NA,NULL,NA,NA,NA,NA,NA,NA,NA,NA,NA,NA,NA,NA,NA,NA,NA,NA,NA,NA,NA
8bb4b,root,flow.Sequence,NA,NA,NA,completion,240818.094,311.10000002384,241.242,307.906,241126,241133.10000002,2023-10-19T07:10:46Z,241144.539,NA,NA,NA,NA,NA,NA,NA,NA,NA,NULL,NA,NA,NA,NA,NA,NA,NA,NA,NA,NA,NA,NA,NA,NA,NA,NA,NA,NA,NA