observation,sender,sender_type,sender_id,response,response_action,ended_on,duration,time_run,time_render,time_show,time_end,time_commit,timestamp,time_switch,german,swahili,enc,distractor1,distractor2,distractor3,response_2,x,correct,distractors,url_vp,url_sess,meta_labjs_version,meta_location,meta_user_agent,meta_platform,meta_language,meta_locale,meta_time_zone,meta_timezone_offset,meta_screen_width,meta_screen_height,meta_scroll_width,meta_scroll_height,meta_window_inner_width,meta_window_inner_height,meta_device_pixel_ratio,meta_labjs_build_flavor,meta_labjs_build_commit
341a2,Introduction delayed retrieval,canvas.Screen,0,weiter,keypress(Space),response,13724.270999964,622,293.051,626.329,14350.599999964,14352.199999988,2023-10-15T09:41:37Z,14359.271,NA,NA,NA,NA,NA,NA,NA,NA,NA,NULL,148,2,20.2.4,https://neurocog.fernuni.ch/studies/vweber/jbaenninger/delayed%203/index.html?vp=148&sess=2,"Mozilla/5.0 (Windows NT 10.0; Win64; x64) AppleWebKit/537.36 (KHTML, like Gecko) Chrome/117.0.0.0 Safari/537.36 Edg/117.0.2045.60",Win32,de,de-CH,Etc/GMT-1,-60,1280,720,1232,598,1232,598,1.5,production,f5b4a49f956347addd546a832a3327688c2c0fef
341a2,Deep Question,html.Page,1_0_0_0,NA,NA,form submission,5510.9289999881,14352.399999976,14342.505,14359.271,19870.199999988,19870.399999976,2023-10-15T09:41:42Z,19875.794,Symbol,kielezo,d,kinyume,nderemo,utayari,k,NA,NA,NULL,NA,NA,NA,NA,NA,NA,NA,NA,NA,NA,NA,NA,NA,NA,NA,NA,NA,NA,NA
341a2,Save data screen,canvas.Screen,1_0_0_1,NA,NA,timeout,500.006,19871,19859.169,19875.794,20359.181,20360.099999964,2023-10-15T09:41:43Z,20375.8,Symbol,kielezo,d,kinyume,nderemo,utayari,NA,NA,0,NULL,NA,NA,NA,NA,NA,NA,NA,NA,NA,NA,NA,NA,NA,NA,NA,NA,NA,NA,NA
341a2,deep,flow.Sequence,1_0_0,NA,NA,completion,5999.91,14352.399999976,14342.505,14359.271,20359.181,20360.300000012,2023-10-15T09:41:43Z,20375.8,Symbol,kielezo,d,kinyume,nderemo,utayari,NA,NA,NA,NULL,NA,NA,NA,NA,NA,NA,NA,NA,NA,NA,NA,NA,NA,NA,NA,NA,NA,NA,NA
341a2,task,flow.Sequence,1_0,NA,NA,completion,5999.91,14352.399999976,14342.505,14359.271,20359.181,20360.399999976,2023-10-15T09:41:43Z,20375.8,Symbol,kielezo,d,kinyume,nderemo,utayari,NA,NA,NA,NULL,NA,NA,NA,NA,NA,NA,NA,NA,NA,NA,NA,NA,NA,NA,NA,NA,NA,NA,NA
341a2,Deep Question,html.Page,1_1_0_0,NA,NA,form submission,3600.5000000119,20360.599999964,20359.181,20375.8,23976.300000012,23976.5,2023-10-15T09:41:46Z,23992.453,Ausschluss,kutengwa,s,ununuzi,taratibu,madeni,l,NA,NA,NULL,NA,NA,NA,NA,NA,NA,NA,NA,NA,NA,NA,NA,NA,NA,NA,NA,NA,NA,NA
341a2,Save data screen,canvas.Screen,1_1_0_1,NA,NA,timeout,499.978,23977.199999988,23975.689,23992.453,24475.722,24476.399999976,2023-10-15T09:41:47Z,24492.431,Ausschluss,kutengwa,s,ununuzi,taratibu,madeni,NA,NA,0,NULL,NA,NA,NA,NA,NA,NA,NA,NA,NA,NA,NA,NA,NA,NA,NA,NA,NA,NA,NA
341a2,deep,flow.Sequence,1_1_0,NA,NA,completion,4099.922,20360.5,20359.181,20375.8,24475.722,24476.599999964,2023-10-15T09:41:47Z,24492.431,Ausschluss,kutengwa,s,ununuzi,taratibu,madeni,NA,NA,NA,NULL,NA,NA,NA,NA,NA,NA,NA,NA,NA,NA,NA,NA,NA,NA,NA,NA,NA,NA,NA
341a2,task,flow.Sequence,1_1,NA,NA,completion,4099.922,20360.5,20359.181,20375.8,24475.722,24476.699999988,2023-10-15T09:41:47Z,24492.431,Ausschluss,kutengwa,s,ununuzi,taratibu,madeni,NA,NA,NA,NULL,NA,NA,NA,NA,NA,NA,NA,NA,NA,NA,NA,NA,NA,NA,NA,NA,NA,NA,NA
341a2,Deep Question,html.Page,1_2_0_0,NA,NA,form submission,3650.7689999881,24476.800000012,24475.722,24492.431,28143.199999988,28143.399999976,2023-10-15T09:41:50Z,28158.945,Beweis,ushahidi,s,marudio,kizuizi,mtendaji,l,NA,NA,NULL,NA,NA,NA,NA,NA,NA,NA,NA,NA,NA,NA,NA,NA,NA,NA,NA,NA,NA,NA
341a2,Save data screen,canvas.Screen,1_2_0_1,NA,NA,timeout,500.004,28143.899999976,28142.245,28158.945,28642.322,28643.199999988,2023-10-15T09:41:51Z,28658.949,Beweis,ushahidi,s,marudio,kizuizi,mtendaji,NA,NA,0,NULL,NA,NA,NA,NA,NA,NA,NA,NA,NA,NA,NA,NA,NA,NA,NA,NA,NA,NA,NA
341a2,deep,flow.Sequence,1_2_0,NA,NA,completion,4149.891,24476.699999988,24475.722,24492.431,28642.322,28643.399999976,2023-10-15T09:41:51Z,28658.949,Beweis,ushahidi,s,marudio,kizuizi,mtendaji,NA,NA,NA,NULL,NA,NA,NA,NA,NA,NA,NA,NA,NA,NA,NA,NA,NA,NA,NA,NA,NA,NA,NA
341a2,task,flow.Sequence,1_2,NA,NA,completion,4149.891,24476.699999988,24475.722,24492.431,28642.322,28643.5,2023-10-15T09:41:51Z,28658.949,Beweis,ushahidi,s,marudio,kizuizi,mtendaji,NA,NA,NA,NULL,NA,NA,NA,NA,NA,NA,NA,NA,NA,NA,NA,NA,NA,NA,NA,NA,NA,NA,NA
341a2,Deep Question,html.Page,1_3_0_0,NA,NA,form submission,3251.551,28643.599999964,28642.322,28658.949,31910.5,31910.699999988,2023-10-15T09:41:54Z,31925.512,Sympathie,mapendano,d,dhamiria,fungamano,maazimio,k,NA,NA,NULL,NA,NA,NA,NA,NA,NA,NA,NA,NA,NA,NA,NA,NA,NA,NA,NA,NA,NA,NA
341a2,Save data screen,canvas.Screen,1_3_0_1,NA,NA,timeout,499.96,31911.300000012,31908.808,31925.512,32408.826,32409.5,2023-10-15T09:41:55Z,32425.472,Sympathie,mapendano,d,dhamiria,fungamano,maazimio,NA,NA,0,NULL,NA,NA,NA,NA,NA,NA,NA,NA,NA,NA,NA,NA,NA,NA,NA,NA,NA,NA,NA
341a2,deep,flow.Sequence,1_3_0,NA,NA,completion,3749.877,28643.599999964,28642.322,28658.949,32408.826,32409.599999964,2023-10-15T09:41:55Z,32425.472,Sympathie,mapendano,d,dhamiria,fungamano,maazimio,NA,NA,NA,NULL,NA,NA,NA,NA,NA,NA,NA,NA,NA,NA,NA,NA,NA,NA,NA,NA,NA,NA,NA
341a2,task,flow.Sequence,1_3,NA,NA,completion,3749.877,28643.599999964,28642.322,28658.949,32408.826,32409.699999988,2023-10-15T09:41:55Z,32425.472,Sympathie,mapendano,d,dhamiria,fungamano,maazimio,NA,NA,NA,NULL,NA,NA,NA,NA,NA,NA,NA,NA,NA,NA,NA,NA,NA,NA,NA,NA,NA,NA,NA
341a2,Deep Question,html.Page,1_4_0_0,NA,NA,form submission,2016.3280000119,32409.800000012,32408.826,32425.472,34441.800000012,34441.899999976,2023-10-15T09:41:57Z,34466.321,Verstand,ufahamivu,d,shakawa,hadhari,mhandisi,k,NA,NA,NULL,NA,NA,NA,NA,NA,NA,NA,NA,NA,NA,NA,NA,NA,NA,NA,NA,NA,NA,NA
341a2,Save data screen,canvas.Screen,1_4_0_1,NA,NA,timeout,492.52299999999,34442.399999976,34425.405,34466.321,34942.124,34942.800000012,2023-10-15T09:41:57Z,34958.844,Verstand,ufahamivu,d,shakawa,hadhari,mhandisi,NA,NA,0,NULL,NA,NA,NA,NA,NA,NA,NA,NA,NA,NA,NA,NA,NA,NA,NA,NA,NA,NA,NA
341a2,deep,flow.Sequence,1_4_0,NA,NA,completion,2516.652,32409.800000012,32408.826,32425.472,34942.124,34942.899999976,2023-10-15T09:41:57Z,34958.844,Verstand,ufahamivu,d,shakawa,hadhari,mhandisi,NA,NA,NA,NULL,NA,NA,NA,NA,NA,NA,NA,NA,NA,NA,NA,NA,NA,NA,NA,NA,NA,NA,NA
341a2,task,flow.Sequence,1_4,NA,NA,completion,2516.652,32409.699999988,32408.826,32425.472,34942.124,34942.899999976,2023-10-15T09:41:57Z,34958.844,Verstand,ufahamivu,d,shakawa,hadhari,mhandisi,NA,NA,NA,NULL,NA,NA,NA,NA,NA,NA,NA,NA,NA,NA,NA,NA,NA,NA,NA,NA,NA,NA,NA
341a2,Deep Question,html.Page,1_5_0_0,NA,NA,form submission,1458.4560000119,34942.899999976,34942.124,34958.844,36417.300000012,36417.5,2023-10-15T09:41:59Z,36425.417,Widerstand,usulubu,d,kusababisha,mwalimu,mwenendo,k,NA,NA,NULL,NA,NA,NA,NA,NA,NA,NA,NA,NA,NA,NA,NA,NA,NA,NA,NA,NA,NA,NA
341a2,Save data screen,canvas.Screen,1_5_0_1,NA,NA,timeout,499.94,36418.099999964,36408.735,36425.417,36908.726,36909.599999964,2023-10-15T09:41:59Z,36925.357,Widerstand,usulubu,d,kusababisha,mwalimu,mwenendo,NA,NA,0,NULL,NA,NA,NA,NA,NA,NA,NA,NA,NA,NA,NA,NA,NA,NA,NA,NA,NA,NA,NA
341a2,deep,flow.Sequence,1_5_0,NA,NA,completion,1949.882,34942.899999976,34942.124,34958.844,36908.726,36909.699999988,2023-10-15T09:41:59Z,36925.357,Widerstand,usulubu,d,kusababisha,mwalimu,mwenendo,NA,NA,NA,NULL,NA,NA,NA,NA,NA,NA,NA,NA,NA,NA,NA,NA,NA,NA,NA,NA,NA,NA,NA
341a2,task,flow.Sequence,1_5,NA,NA,completion,1949.882,34942.899999976,34942.124,34958.844,36908.726,36909.800000012,2023-10-15T09:41:59Z,36925.357,Widerstand,usulubu,d,kusababisha,mwalimu,mwenendo,NA,NA,NA,NULL,NA,NA,NA,NA,NA,NA,NA,NA,NA,NA,NA,NA,NA,NA,NA,NA,NA,NA,NA
341a2,Deep Question,html.Page,1_6_0_0,NA,NA,form submission,3087.8429999881,36909.899999976,36908.726,36925.357,40013.199999988,40013.399999976,2023-10-15T09:42:02Z,40025.278,Schönheit,kirembo,d,mahojiano,msisimko,jitihadi,k,NA,NA,NULL,NA,NA,NA,NA,NA,NA,NA,NA,NA,NA,NA,NA,NA,NA,NA,NA,NA,NA,NA
341a2,Save data screen,canvas.Screen,1_6_0_1,NA,NA,timeout,499.963,40013.899999976,40008.773,40025.278,40508.637,40509.399999976,2023-10-15T09:42:03Z,40525.241,Schönheit,kirembo,d,mahojiano,msisimko,jitihadi,NA,NA,0,NULL,NA,NA,NA,NA,NA,NA,NA,NA,NA,NA,NA,NA,NA,NA,NA,NA,NA,NA,NA
341a2,deep,flow.Sequence,1_6_0,NA,NA,completion,3583.28,36909.800000012,36908.726,36925.357,40508.637,40509.5,2023-10-15T09:42:03Z,40525.241,Schönheit,kirembo,d,mahojiano,msisimko,jitihadi,NA,NA,NA,NULL,NA,NA,NA,NA,NA,NA,NA,NA,NA,NA,NA,NA,NA,NA,NA,NA,NA,NA,NA
341a2,task,flow.Sequence,1_6,NA,NA,completion,3583.28,36909.800000012,36908.726,36925.357,40508.637,40509.599999964,2023-10-15T09:42:03Z,40525.241,Schönheit,kirembo,d,mahojiano,msisimko,jitihadi,NA,NA,NA,NULL,NA,NA,NA,NA,NA,NA,NA,NA,NA,NA,NA,NA,NA,NA,NA,NA,NA,NA,NA
341a2,Deep Question,html.Page,1_7_0_0,NA,NA,form submission,5026.6589999762,40509.699999988,40508.637,40525.241,45551.899999976,45552.099999964,2023-10-15T09:42:08Z,45558.437,Polizist,msongora,s,simanzi,mandhari,nidhamu,k,NA,NA,NULL,NA,NA,NA,NA,NA,NA,NA,NA,NA,NA,NA,NA,NA,NA,NA,NA,NA,NA,NA
341a2,Save data screen,canvas.Screen,1_7_0_1,NA,NA,timeout,500.054,45552.699999988,45541.799,45558.437,46041.811,46042.300000012,2023-10-15T09:42:08Z,46058.491,Polizist,msongora,s,simanzi,mandhari,nidhamu,NA,NA,0,NULL,NA,NA,NA,NA,NA,NA,NA,NA,NA,NA,NA,NA,NA,NA,NA,NA,NA,NA,NA
341a2,deep,flow.Sequence,1_7_0,NA,NA,completion,5516.57,40509.699999988,40508.637,40525.241,46041.811,46042.599999964,2023-10-15T09:42:08Z,46058.491,Polizist,msongora,s,simanzi,mandhari,nidhamu,NA,NA,NA,NULL,NA,NA,NA,NA,NA,NA,NA,NA,NA,NA,NA,NA,NA,NA,NA,NA,NA,NA,NA
341a2,task,flow.Sequence,1_7,NA,NA,completion,5516.57,40509.699999988,40508.637,40525.241,46041.811,46042.599999964,2023-10-15T09:42:08Z,46058.491,Polizist,msongora,s,simanzi,mandhari,nidhamu,NA,NA,NA,NULL,NA,NA,NA,NA,NA,NA,NA,NA,NA,NA,NA,NA,NA,NA,NA,NA,NA,NA,NA
341a2,Deep Question,html.Page,1_8_0_0,NA,NA,form submission,2975.1089999642,46042.699999988,46041.811,46058.491,49033.599999964,49033.800000012,2023-10-15T09:42:11Z,49041.79,Zuwachs,nyongeza,d,matilaba,udhibiti,hudhurio,k,NA,NA,NULL,NA,NA,NA,NA,NA,NA,NA,NA,NA,NA,NA,NA,NA,NA,NA,NA,NA,NA,NA
341a2,Save data screen,canvas.Screen,1_8_0_1,NA,NA,timeout,499.931,49034.399999976,49025.072,49041.79,49525.061,49525.699999988,2023-10-15T09:42:12Z,49541.721,Zuwachs,nyongeza,d,matilaba,udhibiti,hudhurio,NA,NA,0,NULL,NA,NA,NA,NA,NA,NA,NA,NA,NA,NA,NA,NA,NA,NA,NA,NA,NA,NA,NA
341a2,deep,flow.Sequence,1_8_0,NA,NA,completion,3466.57,46042.699999988,46041.811,46058.491,49525.061,49525.800000012,2023-10-15T09:42:12Z,49541.721,Zuwachs,nyongeza,d,matilaba,udhibiti,hudhurio,NA,NA,NA,NULL,NA,NA,NA,NA,NA,NA,NA,NA,NA,NA,NA,NA,NA,NA,NA,NA,NA,NA,NA
341a2,task,flow.Sequence,1_8,NA,NA,completion,3466.57,46042.699999988,46041.811,46058.491,49525.061,49525.899999976,2023-10-15T09:42:12Z,49541.721,Zuwachs,nyongeza,d,matilaba,udhibiti,hudhurio,NA,NA,NA,NULL,NA,NA,NA,NA,NA,NA,NA,NA,NA,NA,NA,NA,NA,NA,NA,NA,NA,NA,NA
341a2,Deep Question,html.Page,1_9_0_0,NA,NA,form submission,2118.779,49525.899999976,49525.061,49541.721,51660.5,51660.699999988,2023-10-15T09:42:14Z,51675.026,Vorsorge,tahadhari,s,ufafanuzi,makini,mashambani,k,NA,NA,NULL,NA,NA,NA,NA,NA,NA,NA,NA,NA,NA,NA,NA,NA,NA,NA,NA,NA,NA,NA
341a2,Save data screen,canvas.Screen,1_9_0_1,NA,NA,timeout,499.946,51661.199999988,51658.313,51675.026,52158.413,52159,2023-10-15T09:42:14Z,52174.972,Vorsorge,tahadhari,s,ufafanuzi,makini,mashambani,NA,NA,0,NULL,NA,NA,NA,NA,NA,NA,NA,NA,NA,NA,NA,NA,NA,NA,NA,NA,NA,NA,NA
341a2,deep,flow.Sequence,1_9_0,NA,NA,completion,2616.692,49525.899999976,49525.061,49541.721,52158.413,52159.199999988,2023-10-15T09:42:14Z,52174.972,Vorsorge,tahadhari,s,ufafanuzi,makini,mashambani,NA,NA,NA,NULL,NA,NA,NA,NA,NA,NA,NA,NA,NA,NA,NA,NA,NA,NA,NA,NA,NA,NA,NA
341a2,task,flow.Sequence,1_9,NA,NA,completion,2616.692,49525.899999976,49525.061,49541.721,52158.413,52159.300000012,2023-10-15T09:42:14Z,52174.972,Vorsorge,tahadhari,s,ufafanuzi,makini,mashambani,NA,NA,NA,NULL,NA,NA,NA,NA,NA,NA,NA,NA,NA,NA,NA,NA,NA,NA,NA,NA,NA,NA,NA
341a2,Deep Question,html.Page,1_10_0_0,NA,NA,form submission,1951.8280000119,52159.399999976,52158.413,52174.972,54126.800000012,54127,2023-10-15T09:42:16Z,54141.708,Annäherung,maegesho,d,madahili,kujiamini,mapendekezo,k,NA,NA,NULL,NA,NA,NA,NA,NA,NA,NA,NA,NA,NA,NA,NA,NA,NA,NA,NA,NA,NA,NA
341a2,Save data screen,canvas.Screen,1_10_0_1,NA,NA,timeout,499.902,54127.399999976,54124.941,54141.708,54624.911,54625.399999976,2023-10-15T09:42:17Z,54641.61,Annäherung,maegesho,d,madahili,kujiamini,mapendekezo,NA,NA,0,NULL,NA,NA,NA,NA,NA,NA,NA,NA,NA,NA,NA,NA,NA,NA,NA,NA,NA,NA,NA
341a2,deep,flow.Sequence,1_10_0,NA,NA,completion,2449.939,52159.399999976,52158.413,52174.972,54624.911,54625.599999964,2023-10-15T09:42:17Z,54641.61,Annäherung,maegesho,d,madahili,kujiamini,mapendekezo,NA,NA,NA,NULL,NA,NA,NA,NA,NA,NA,NA,NA,NA,NA,NA,NA,NA,NA,NA,NA,NA,NA,NA
341a2,task,flow.Sequence,1_10,NA,NA,completion,2449.939,52159.300000012,52158.413,52174.972,54624.911,54625.599999964,2023-10-15T09:42:17Z,54641.61,Annäherung,maegesho,d,madahili,kujiamini,mapendekezo,NA,NA,NA,NULL,NA,NA,NA,NA,NA,NA,NA,NA,NA,NA,NA,NA,NA,NA,NA,NA,NA,NA,NA
341a2,Deep Question,html.Page,1_11_0_0,NA,NA,form submission,10315.989999964,54625.699999988,54624.911,54641.61,64957.599999964,64957.800000012,2023-10-15T09:42:27Z,64977.322,Zufall,kikuti,d,kukosekana,uchoraji,leseni,mtuko,NA,NA,NULL,NA,NA,NA,NA,NA,NA,NA,NA,NA,NA,NA,NA,NA,NA,NA,NA,NA,NA,NA
341a2,Save data screen,canvas.Screen,1_11_0_1,NA,NA,timeout,497.302,64959.5,64941.434,64977.322,65457.928,65458.899999976,2023-10-15T09:42:28Z,65474.624,Zufall,kikuti,d,kukosekana,uchoraji,leseni,NA,NA,0,NULL,NA,NA,NA,NA,NA,NA,NA,NA,NA,NA,NA,NA,NA,NA,NA,NA,NA,NA,NA
341a2,deep,flow.Sequence,1_11_0,NA,NA,completion,10816.318,54625.699999988,54624.911,54641.61,65457.928,65459,2023-10-15T09:42:28Z,65474.624,Zufall,kikuti,d,kukosekana,uchoraji,leseni,NA,NA,NA,NULL,NA,NA,NA,NA,NA,NA,NA,NA,NA,NA,NA,NA,NA,NA,NA,NA,NA,NA,NA
341a2,task,flow.Sequence,1_11,NA,NA,completion,10816.318,54625.699999988,54624.911,54641.61,65457.928,65459.099999964,2023-10-15T09:42:28Z,65474.624,Zufall,kikuti,d,kukosekana,uchoraji,leseni,NA,NA,NA,NULL,NA,NA,NA,NA,NA,NA,NA,NA,NA,NA,NA,NA,NA,NA,NA,NA,NA,NA,NA
341a2,Deep Question,html.Page,1_12_0_0,NA,NA,form submission,1717.5759999881,65459.199999988,65457.928,65474.624,67192.199999988,67192.399999976,2023-10-15T09:42:29Z,67208.015,Konkurrent,mshindani,s,msemaji,mvutaji,kipukusa,d,NA,NA,NULL,NA,NA,NA,NA,NA,NA,NA,NA,NA,NA,NA,NA,NA,NA,NA,NA,NA,NA,NA
341a2,Save data screen,canvas.Screen,1_12_0_1,NA,NA,timeout,499.91100000001,67192.800000012,67191.225,67208.015,67691.251,67691.699999988,2023-10-15T09:42:30Z,67707.926,Konkurrent,mshindani,s,msemaji,mvutaji,kipukusa,NA,NA,0,NULL,NA,NA,NA,NA,NA,NA,NA,NA,NA,NA,NA,NA,NA,NA,NA,NA,NA,NA,NA
341a2,deep,flow.Sequence,1_12_0,NA,NA,completion,2216.627,65459.099999964,65457.928,65474.624,67691.251,67691.800000012,2023-10-15T09:42:30Z,67707.926,Konkurrent,mshindani,s,msemaji,mvutaji,kipukusa,NA,NA,NA,NULL,NA,NA,NA,NA,NA,NA,NA,NA,NA,NA,NA,NA,NA,NA,NA,NA,NA,NA,NA
341a2,task,flow.Sequence,1_12,NA,NA,completion,2216.627,65459.099999964,65457.928,65474.624,67691.251,67691.899999976,2023-10-15T09:42:30Z,67707.926,Konkurrent,mshindani,s,msemaji,mvutaji,kipukusa,NA,NA,NA,NULL,NA,NA,NA,NA,NA,NA,NA,NA,NA,NA,NA,NA,NA,NA,NA,NA,NA,NA,NA
341a2,Deep Question,html.Page,1_13_0_0,NA,NA,form submission,1650.7739999881,67692,67691.251,67707.926,69358.699999988,69358.800000012,2023-10-15T09:42:32Z,69374.577,Auftrag,uagizaji,s,ghanima,kuzingatia,msukani,d,NA,NA,NULL,NA,NA,NA,NA,NA,NA,NA,NA,NA,NA,NA,NA,NA,NA,NA,NA,NA,NA,NA
341a2,Save data screen,canvas.Screen,1_13_0_1,NA,NA,timeout,499.939,69359.399999976,69357.811,69374.577,69857.988,69858.599999964,2023-10-15T09:42:32Z,69874.516,Auftrag,uagizaji,s,ghanima,kuzingatia,msukani,NA,NA,0,NULL,NA,NA,NA,NA,NA,NA,NA,NA,NA,NA,NA,NA,NA,NA,NA,NA,NA,NA,NA
341a2,deep,flow.Sequence,1_13_0,NA,NA,completion,2150.062,67692,67691.251,67707.926,69857.988,69858.599999964,2023-10-15T09:42:32Z,69874.516,Auftrag,uagizaji,s,ghanima,kuzingatia,msukani,NA,NA,NA,NULL,NA,NA,NA,NA,NA,NA,NA,NA,NA,NA,NA,NA,NA,NA,NA,NA,NA,NA,NA
341a2,task,flow.Sequence,1_13,NA,NA,completion,2150.062,67691.899999976,67691.251,67707.926,69857.988,69858.699999988,2023-10-15T09:42:32Z,69874.516,Auftrag,uagizaji,s,ghanima,kuzingatia,msukani,NA,NA,NA,NULL,NA,NA,NA,NA,NA,NA,NA,NA,NA,NA,NA,NA,NA,NA,NA,NA,NA,NA,NA
341a2,Deep Question,html.Page,1_14_0_0,NA,NA,form submission,1834.1839999881,69858.800000012,69857.988,69874.516,71708.699999988,71708.899999976,2023-10-15T09:42:34Z,71724.51,Wettbewerb,ushindani,s,mapendezi,kichocheo,ubaguzi,d,NA,NA,NULL,NA,NA,NA,NA,NA,NA,NA,NA,NA,NA,NA,NA,NA,NA,NA,NA,NA,NA,NA
341a2,Save data screen,canvas.Screen,1_14_0_1,NA,NA,timeout,499.96000000001,71709.399999976,71707.82,71724.51,72207.81,72208.399999976,2023-10-15T09:42:34Z,72224.47,Wettbewerb,ushindani,s,mapendezi,kichocheo,ubaguzi,NA,NA,0,NULL,NA,NA,NA,NA,NA,NA,NA,NA,NA,NA,NA,NA,NA,NA,NA,NA,NA,NA,NA
341a2,deep,flow.Sequence,1_14_0,NA,NA,completion,2333.294,69858.800000012,69857.988,69874.516,72207.81,72208.599999964,2023-10-15T09:42:34Z,72224.47,Wettbewerb,ushindani,s,mapendezi,kichocheo,ubaguzi,NA,NA,NA,NULL,NA,NA,NA,NA,NA,NA,NA,NA,NA,NA,NA,NA,NA,NA,NA,NA,NA,NA,NA
341a2,task,flow.Sequence,1_14,NA,NA,completion,2333.294,69858.800000012,69857.988,69874.516,72207.81,72208.599999964,2023-10-15T09:42:34Z,72224.47,Wettbewerb,ushindani,s,mapendezi,kichocheo,ubaguzi,NA,NA,NA,NULL,NA,NA,NA,NA,NA,NA,NA,NA,NA,NA,NA,NA,NA,NA,NA,NA,NA,NA,NA
341a2,Deep Question,html.Page,1_15_0_0,NA,NA,form submission,1149.8300000119,72208.699999988,72207.81,72224.47,73374.300000012,73374.399999976,2023-10-15T09:42:36Z,73396.95,Gelegenheit,wakati,s,mchanganyiko,kipaumbele,kushuku,d,NA,NA,NULL,NA,NA,NA,NA,NA,NA,NA,NA,NA,NA,NA,NA,NA,NA,NA,NA,NA,NA,NA
341a2,Save data screen,canvas.Screen,1_15_0_1,NA,NA,timeout,494.15700000001,73374.899999976,73357.763,73396.95,73874.518,73875.199999988,2023-10-15T09:42:36Z,73891.107,Gelegenheit,wakati,s,mchanganyiko,kipaumbele,kushuku,NA,NA,0,NULL,NA,NA,NA,NA,NA,NA,NA,NA,NA,NA,NA,NA,NA,NA,NA,NA,NA,NA,NA
341a2,deep,flow.Sequence,1_15_0,NA,NA,completion,1650.048,72208.699999988,72207.81,72224.47,73874.518,73875.300000012,2023-10-15T09:42:36Z,73891.107,Gelegenheit,wakati,s,mchanganyiko,kipaumbele,kushuku,NA,NA,NA,NULL,NA,NA,NA,NA,NA,NA,NA,NA,NA,NA,NA,NA,NA,NA,NA,NA,NA,NA,NA
341a2,task,flow.Sequence,1_15,NA,NA,completion,1650.048,72208.699999988,72207.81,72224.47,73874.518,73875.399999976,2023-10-15T09:42:36Z,73891.107,Gelegenheit,wakati,s,mchanganyiko,kipaumbele,kushuku,NA,NA,NA,NULL,NA,NA,NA,NA,NA,NA,NA,NA,NA,NA,NA,NA,NA,NA,NA,NA,NA,NA,NA
341a2,retrieval block 1 (cued recall),flow.Loop,1,NA,NA,completion,59515.247,14352.300000012,14342.505,14359.271,73874.518,73875.399999976,2023-10-15T09:42:36Z,73891.107,NA,NA,NA,NA,NA,NA,NA,NA,NA,NULL,NA,NA,NA,NA,NA,NA,NA,NA,NA,NA,NA,NA,NA,NA,NA,NA,NA,NA,NA
341a2,Shallow Question,html.Page,2_0_0_0,NA,NA,form submission,8198.0929999881,73875.599999964,73874.518,73891.107,82089.199999988,82089.5,2023-10-15T09:42:44Z,82090.827,Schönheit,kirembo,d,mahojiano,msisimko,jitihadi,kirembo,NA,NA,"c(""distractor1"", ""distractor2"", ""distractor3"")",NA,NA,NA,NA,NA,NA,NA,NA,NA,NA,NA,NA,NA,NA,NA,NA,NA,NA,NA
341a2,Save data screen,canvas.Screen,2_0_0_1,NA,NA,timeout,500.00499999999,82091.199999988,82074.335,82090.827,82574.187,82574.699999988,2023-10-15T09:42:45Z,82590.832,Schönheit,kirembo,d,mahojiano,msisimko,jitihadi,NA,NA,1,"c(""distractor1"", ""distractor2"", ""distractor3"")",NA,NA,NA,NA,NA,NA,NA,NA,NA,NA,NA,NA,NA,NA,NA,NA,NA,NA,NA
341a2,shallow,flow.Sequence,2_0_0,NA,NA,completion,8683.08,73875.599999964,73874.518,73891.107,82574.187,82574.899999976,2023-10-15T09:42:45Z,82590.832,Schönheit,kirembo,d,mahojiano,msisimko,jitihadi,NA,NA,NA,"c(""distractor1"", ""distractor2"", ""distractor3"")",NA,NA,NA,NA,NA,NA,NA,NA,NA,NA,NA,NA,NA,NA,NA,NA,NA,NA,NA
341a2,task,flow.Sequence,2_0,NA,NA,completion,8683.08,73875.599999964,73874.518,73891.107,82574.187,82575,2023-10-15T09:42:45Z,82590.832,Schönheit,kirembo,d,mahojiano,msisimko,jitihadi,NA,NA,NA,"c(""distractor1"", ""distractor2"", ""distractor3"")",NA,NA,NA,NA,NA,NA,NA,NA,NA,NA,NA,NA,NA,NA,NA,NA,NA,NA,NA
341a2,Shallow Question,html.Page,2_1_0_0,NA,NA,form submission,7473.5679999762,82575.099999964,82574.187,82590.832,90064.399999976,90064.5,2023-10-15T09:42:52Z,90073.973,Annäherung,maegesho,d,madahili,kujiamini,mapendekezo,maegesho,NA,NA,"c(""distractor1"", ""distractor2"", ""distractor3"")",NA,NA,NA,NA,NA,NA,NA,NA,NA,NA,NA,NA,NA,NA,NA,NA,NA,NA,NA
341a2,Save data screen,canvas.Screen,2_1_0_1,NA,NA,timeout,499.94500000001,90065.800000012,90057.298,90073.973,90557.299,90557.800000012,2023-10-15T09:42:53Z,90573.918,Annäherung,maegesho,d,madahili,kujiamini,mapendekezo,NA,NA,1,"c(""distractor1"", ""distractor2"", ""distractor3"")",NA,NA,NA,NA,NA,NA,NA,NA,NA,NA,NA,NA,NA,NA,NA,NA,NA,NA,NA
341a2,shallow,flow.Sequence,2_1_0,NA,NA,completion,7966.467,82575.099999964,82574.187,82590.832,90557.299,90557.899999976,2023-10-15T09:42:53Z,90573.918,Annäherung,maegesho,d,madahili,kujiamini,mapendekezo,NA,NA,NA,"c(""distractor1"", ""distractor2"", ""distractor3"")",NA,NA,NA,NA,NA,NA,NA,NA,NA,NA,NA,NA,NA,NA,NA,NA,NA,NA,NA
341a2,task,flow.Sequence,2_1,NA,NA,completion,7966.467,82575.099999964,82574.187,82590.832,90557.299,90558,2023-10-15T09:42:53Z,90573.918,Annäherung,maegesho,d,madahili,kujiamini,mapendekezo,NA,NA,NA,"c(""distractor1"", ""distractor2"", ""distractor3"")",NA,NA,NA,NA,NA,NA,NA,NA,NA,NA,NA,NA,NA,NA,NA,NA,NA,NA,NA
341a2,Shallow Question,html.Page,2_2_0_0,NA,NA,form submission,5042.9819999762,90558.099999964,90557.299,90573.918,95616.899999976,95617.099999964,2023-10-15T09:42:58Z,95623.798,Ausschluss,kutengwa,s,ununuzi,taratibu,madeni,kutengwa,NA,NA,"c(""distractor1"", ""distractor2"", ""distractor3"")",NA,NA,NA,NA,NA,NA,NA,NA,NA,NA,NA,NA,NA,NA,NA,NA,NA,NA,NA
341a2,Save data screen,canvas.Screen,2_2_0_1,NA,NA,timeout,500.015,95618.599999964,95607.156,95623.798,96107.126,96107.599999964,2023-10-15T09:42:58Z,96123.813,Ausschluss,kutengwa,s,ununuzi,taratibu,madeni,NA,NA,1,"c(""distractor1"", ""distractor2"", ""distractor3"")",NA,NA,NA,NA,NA,NA,NA,NA,NA,NA,NA,NA,NA,NA,NA,NA,NA,NA,NA
341a2,shallow,flow.Sequence,2_2_0,NA,NA,completion,5533.208,90558,90557.299,90573.918,96107.126,96107.800000012,2023-10-15T09:42:58Z,96123.813,Ausschluss,kutengwa,s,ununuzi,taratibu,madeni,NA,NA,NA,"c(""distractor1"", ""distractor2"", ""distractor3"")",NA,NA,NA,NA,NA,NA,NA,NA,NA,NA,NA,NA,NA,NA,NA,NA,NA,NA,NA
341a2,task,flow.Sequence,2_2,NA,NA,completion,5533.208,90558,90557.299,90573.918,96107.126,96107.899999976,2023-10-15T09:42:58Z,96123.813,Ausschluss,kutengwa,s,ununuzi,taratibu,madeni,NA,NA,NA,"c(""distractor1"", ""distractor2"", ""distractor3"")",NA,NA,NA,NA,NA,NA,NA,NA,NA,NA,NA,NA,NA,NA,NA,NA,NA,NA,NA
341a2,Shallow Question,html.Page,2_3_0_0,NA,NA,form submission,10507.487000012,96108,96107.126,96123.813,106631.30000001,106631.5,2023-10-15T09:43:09Z,106640.276,Konkurrent,mshindani,s,msemaji,mvutaji,kipukusa,mvutaji,NA,NA,"c(""distractor1"", ""distractor2"", ""distractor3"")",NA,NA,NA,NA,NA,NA,NA,NA,NA,NA,NA,NA,NA,NA,NA,NA,NA,NA,NA
341a2,Save data screen,canvas.Screen,2_3_0_1,NA,NA,timeout,499.98700000001,106633.09999996,106623.528,106640.276,107123.494,107124,2023-10-15T09:43:09Z,107140.263,Konkurrent,mshindani,s,msemaji,mvutaji,kipukusa,NA,NA,0,"c(""distractor1"", ""distractor2"", ""distractor3"")",NA,NA,NA,NA,NA,NA,NA,NA,NA,NA,NA,NA,NA,NA,NA,NA,NA,NA,NA
341a2,shallow,flow.Sequence,2_3_0,NA,NA,completion,10999.681,96108,96107.126,96123.813,107123.494,107124.19999999,2023-10-15T09:43:09Z,107140.263,Konkurrent,mshindani,s,msemaji,mvutaji,kipukusa,NA,NA,NA,"c(""distractor1"", ""distractor2"", ""distractor3"")",NA,NA,NA,NA,NA,NA,NA,NA,NA,NA,NA,NA,NA,NA,NA,NA,NA,NA,NA
341a2,task,flow.Sequence,2_3,NA,NA,completion,10999.681,96108,96107.126,96123.813,107123.494,107124.30000001,2023-10-15T09:43:09Z,107140.263,Konkurrent,mshindani,s,msemaji,mvutaji,kipukusa,NA,NA,NA,"c(""distractor1"", ""distractor2"", ""distractor3"")",NA,NA,NA,NA,NA,NA,NA,NA,NA,NA,NA,NA,NA,NA,NA,NA,NA,NA,NA
341a2,Shallow Question,html.Page,2_4_0_0,NA,NA,form submission,8896.3369999642,107124.39999998,107123.494,107140.263,116036.59999996,116036.80000001,2023-10-15T09:43:18Z,116039.933,Polizist,msongora,s,simanzi,mandhari,nidhamu,msongora,NA,NA,"c(""distractor1"", ""distractor2"", ""distractor3"")",NA,NA,NA,NA,NA,NA,NA,NA,NA,NA,NA,NA,NA,NA,NA,NA,NA,NA,NA
341a2,Save data screen,canvas.Screen,2_4_0_1,NA,NA,timeout,500.094,116038.39999998,116023.357,116039.933,116523.31,116523.80000001,2023-10-15T09:43:19Z,116540.027,Polizist,msongora,s,simanzi,mandhari,nidhamu,NA,NA,1,"c(""distractor1"", ""distractor2"", ""distractor3"")",NA,NA,NA,NA,NA,NA,NA,NA,NA,NA,NA,NA,NA,NA,NA,NA,NA,NA,NA
341a2,shallow,flow.Sequence,2_4_0,NA,NA,completion,9383.047,107124.30000001,107123.494,107140.263,116523.31,116524,2023-10-15T09:43:19Z,116540.027,Polizist,msongora,s,simanzi,mandhari,nidhamu,NA,NA,NA,"c(""distractor1"", ""distractor2"", ""distractor3"")",NA,NA,NA,NA,NA,NA,NA,NA,NA,NA,NA,NA,NA,NA,NA,NA,NA,NA,NA
341a2,task,flow.Sequence,2_4,NA,NA,completion,9383.047,107124.30000001,107123.494,107140.263,116523.31,116524.09999996,2023-10-15T09:43:19Z,116540.027,Polizist,msongora,s,simanzi,mandhari,nidhamu,NA,NA,NA,"c(""distractor1"", ""distractor2"", ""distractor3"")",NA,NA,NA,NA,NA,NA,NA,NA,NA,NA,NA,NA,NA,NA,NA,NA,NA,NA,NA
341a2,Shallow Question,html.Page,2_5_0_0,NA,NA,form submission,12603.372999976,116524.19999999,116523.31,116540.027,129143.39999998,129143.5,2023-10-15T09:43:31Z,129156.347,Widerstand,usulubu,d,kusababisha,mwalimu,mwenendo,usulubu,NA,NA,"c(""distractor1"", ""distractor2"", ""distractor3"")",NA,NA,NA,NA,NA,NA,NA,NA,NA,NA,NA,NA,NA,NA,NA,NA,NA,NA,NA
341a2,Save data screen,canvas.Screen,2_5_0_1,NA,NA,timeout,499.899,129145.30000001,129139.694,129156.347,129639.587,129640.69999999,2023-10-15T09:43:32Z,129656.246,Widerstand,usulubu,d,kusababisha,mwalimu,mwenendo,NA,NA,1,"c(""distractor1"", ""distractor2"", ""distractor3"")",NA,NA,NA,NA,NA,NA,NA,NA,NA,NA,NA,NA,NA,NA,NA,NA,NA,NA,NA
341a2,shallow,flow.Sequence,2_5_0,NA,NA,completion,13099.56,116524.19999999,116523.31,116540.027,129639.587,129640.89999998,2023-10-15T09:43:32Z,129656.246,Widerstand,usulubu,d,kusababisha,mwalimu,mwenendo,NA,NA,NA,"c(""distractor1"", ""distractor2"", ""distractor3"")",NA,NA,NA,NA,NA,NA,NA,NA,NA,NA,NA,NA,NA,NA,NA,NA,NA,NA,NA
341a2,task,flow.Sequence,2_5,NA,NA,completion,13099.56,116524.19999999,116523.31,116540.027,129639.587,129641,2023-10-15T09:43:32Z,129656.246,Widerstand,usulubu,d,kusababisha,mwalimu,mwenendo,NA,NA,NA,"c(""distractor1"", ""distractor2"", ""distractor3"")",NA,NA,NA,NA,NA,NA,NA,NA,NA,NA,NA,NA,NA,NA,NA,NA,NA,NA,NA
341a2,Shallow Question,html.Page,2_6_0_0,NA,NA,form submission,10590.754,129641,129639.587,129656.246,140247,140247.09999996,2023-10-15T09:43:42Z,140256.056,Wettbewerb,ushindani,s,mapendezi,kichocheo,ubaguzi,ushindani,NA,NA,"c(""distractor1"", ""distractor2"", ""distractor3"")",NA,NA,NA,NA,NA,NA,NA,NA,NA,NA,NA,NA,NA,NA,NA,NA,NA,NA,NA
341a2,Save data screen,canvas.Screen,2_6_0_1,NA,NA,timeout,499.897,140248.69999999,140239.285,140256.056,140739.326,140739.89999998,2023-10-15T09:43:43Z,140755.953,Wettbewerb,ushindani,s,mapendezi,kichocheo,ubaguzi,NA,NA,1,"c(""distractor1"", ""distractor2"", ""distractor3"")",NA,NA,NA,NA,NA,NA,NA,NA,NA,NA,NA,NA,NA,NA,NA,NA,NA,NA,NA
341a2,shallow,flow.Sequence,2_6_0,NA,NA,completion,11083.08,129641,129639.587,129656.246,140739.326,140739.89999998,2023-10-15T09:43:43Z,140755.953,Wettbewerb,ushindani,s,mapendezi,kichocheo,ubaguzi,NA,NA,NA,"c(""distractor1"", ""distractor2"", ""distractor3"")",NA,NA,NA,NA,NA,NA,NA,NA,NA,NA,NA,NA,NA,NA,NA,NA,NA,NA,NA
341a2,task,flow.Sequence,2_6,NA,NA,completion,11083.08,129641,129639.587,129656.246,140739.326,140740,2023-10-15T09:43:43Z,140755.953,Wettbewerb,ushindani,s,mapendezi,kichocheo,ubaguzi,NA,NA,NA,"c(""distractor1"", ""distractor2"", ""distractor3"")",NA,NA,NA,NA,NA,NA,NA,NA,NA,NA,NA,NA,NA,NA,NA,NA,NA,NA,NA
341a2,Shallow Question,html.Page,2_7_0_0,NA,NA,form submission,13958.547,140740.09999996,140739.326,140755.953,154714.5,154714.69999999,2023-10-15T09:43:57Z,154722.249,Verstand,ufahamivu,d,shakawa,hadhari,mhandisi,hadhari,NA,NA,"c(""distractor1"", ""distractor2"", ""distractor3"")",NA,NA,NA,NA,NA,NA,NA,NA,NA,NA,NA,NA,NA,NA,NA,NA,NA,NA,NA
341a2,Save data screen,canvas.Screen,2_7_0_1,NA,NA,timeout,500.016,154716.39999998,154705.609,154722.249,155205.607,155206.09999996,2023-10-15T09:43:57Z,155222.265,Verstand,ufahamivu,d,shakawa,hadhari,mhandisi,NA,NA,0,"c(""distractor1"", ""distractor2"", ""distractor3"")",NA,NA,NA,NA,NA,NA,NA,NA,NA,NA,NA,NA,NA,NA,NA,NA,NA,NA,NA
341a2,shallow,flow.Sequence,2_7_0,NA,NA,completion,14449.654,140740,140739.326,140755.953,155205.607,155206.19999999,2023-10-15T09:43:57Z,155222.265,Verstand,ufahamivu,d,shakawa,hadhari,mhandisi,NA,NA,NA,"c(""distractor1"", ""distractor2"", ""distractor3"")",NA,NA,NA,NA,NA,NA,NA,NA,NA,NA,NA,NA,NA,NA,NA,NA,NA,NA,NA
341a2,task,flow.Sequence,2_7,NA,NA,completion,14449.654,140740,140739.326,140755.953,155205.607,155206.19999999,2023-10-15T09:43:57Z,155222.265,Verstand,ufahamivu,d,shakawa,hadhari,mhandisi,NA,NA,NA,"c(""distractor1"", ""distractor2"", ""distractor3"")",NA,NA,NA,NA,NA,NA,NA,NA,NA,NA,NA,NA,NA,NA,NA,NA,NA,NA,NA
341a2,Shallow Question,html.Page,2_8_0_0,NA,NA,form submission,5596.9349999881,155206.30000001,155205.607,155222.265,160819.19999999,160819.39999998,2023-10-15T09:44:03Z,160822.038,Beweis,ushahidi,s,marudio,kizuizi,mtendaji,ushahidi,NA,NA,"c(""distractor1"", ""distractor2"", ""distractor3"")",NA,NA,NA,NA,NA,NA,NA,NA,NA,NA,NA,NA,NA,NA,NA,NA,NA,NA,NA
341a2,Save data screen,canvas.Screen,2_8_0_1,NA,NA,timeout,500.003,160820.89999998,160805.459,160822.038,161305.397,161306,2023-10-15T09:44:04Z,161322.041,Beweis,ushahidi,s,marudio,kizuizi,mtendaji,NA,NA,1,"c(""distractor1"", ""distractor2"", ""distractor3"")",NA,NA,NA,NA,NA,NA,NA,NA,NA,NA,NA,NA,NA,NA,NA,NA,NA,NA,NA
341a2,shallow,flow.Sequence,2_8_0,NA,NA,completion,6083.132,155206.30000001,155205.607,155222.265,161305.397,161306.09999996,2023-10-15T09:44:04Z,161322.041,Beweis,ushahidi,s,marudio,kizuizi,mtendaji,NA,NA,NA,"c(""distractor1"", ""distractor2"", ""distractor3"")",NA,NA,NA,NA,NA,NA,NA,NA,NA,NA,NA,NA,NA,NA,NA,NA,NA,NA,NA
341a2,task,flow.Sequence,2_8,NA,NA,completion,6083.132,155206.30000001,155205.607,155222.265,161305.397,161306.19999999,2023-10-15T09:44:04Z,161322.041,Beweis,ushahidi,s,marudio,kizuizi,mtendaji,NA,NA,NA,"c(""distractor1"", ""distractor2"", ""distractor3"")",NA,NA,NA,NA,NA,NA,NA,NA,NA,NA,NA,NA,NA,NA,NA,NA,NA,NA,NA
341a2,Shallow Question,html.Page,2_9_0_0,NA,NA,form submission,5759.459,161306.30000001,161305.397,161322.041,167081.5,167081.69999999,2023-10-15T09:44:09Z,167088.58,Zufall,kikuti,d,kukosekana,uchoraji,leseni,kikuti,NA,NA,"c(""distractor1"", ""distractor2"", ""distractor3"")",NA,NA,NA,NA,NA,NA,NA,NA,NA,NA,NA,NA,NA,NA,NA,NA,NA,NA,NA
341a2,Save data screen,canvas.Screen,2_9_0_1,NA,NA,timeout,500.171,167083.39999998,167071.923,167088.58,167571.921,167572.59999996,2023-10-15T09:44:10Z,167588.751,Zufall,kikuti,d,kukosekana,uchoraji,leseni,NA,NA,1,"c(""distractor1"", ""distractor2"", ""distractor3"")",NA,NA,NA,NA,NA,NA,NA,NA,NA,NA,NA,NA,NA,NA,NA,NA,NA,NA,NA
341a2,shallow,flow.Sequence,2_9_0,NA,NA,completion,6249.88,161306.30000001,161305.397,161322.041,167571.921,167572.80000001,2023-10-15T09:44:10Z,167588.751,Zufall,kikuti,d,kukosekana,uchoraji,leseni,NA,NA,NA,"c(""distractor1"", ""distractor2"", ""distractor3"")",NA,NA,NA,NA,NA,NA,NA,NA,NA,NA,NA,NA,NA,NA,NA,NA,NA,NA,NA
341a2,task,flow.Sequence,2_9,NA,NA,completion,6249.88,161306.30000001,161305.397,161322.041,167571.921,167572.80000001,2023-10-15T09:44:10Z,167588.751,Zufall,kikuti,d,kukosekana,uchoraji,leseni,NA,NA,NA,"c(""distractor1"", ""distractor2"", ""distractor3"")",NA,NA,NA,NA,NA,NA,NA,NA,NA,NA,NA,NA,NA,NA,NA,NA,NA,NA,NA
341a2,Shallow Question,html.Page,2_10_0_0,NA,NA,form submission,6793.3489999642,167572.89999998,167571.921,167588.751,174382.09999996,174382.30000001,2023-10-15T09:44:17Z,174388.374,Sympathie,mapendano,d,dhamiria,fungamano,maazimio,mapendano,NA,NA,"c(""distractor1"", ""distractor2"", ""distractor3"")",NA,NA,NA,NA,NA,NA,NA,NA,NA,NA,NA,NA,NA,NA,NA,NA,NA,NA,NA
341a2,Save data screen,canvas.Screen,2_10_0_1,NA,NA,timeout,499.97499999998,174383.89999998,174371.714,174388.374,174871.706,174872.39999998,2023-10-15T09:44:17Z,174888.349,Sympathie,mapendano,d,dhamiria,fungamano,maazimio,NA,NA,1,"c(""distractor1"", ""distractor2"", ""distractor3"")",NA,NA,NA,NA,NA,NA,NA,NA,NA,NA,NA,NA,NA,NA,NA,NA,NA,NA,NA
341a2,shallow,flow.Sequence,2_10_0,NA,NA,completion,7282.955,167572.89999998,167571.921,167588.751,174871.706,174872.5,2023-10-15T09:44:17Z,174888.349,Sympathie,mapendano,d,dhamiria,fungamano,maazimio,NA,NA,NA,"c(""distractor1"", ""distractor2"", ""distractor3"")",NA,NA,NA,NA,NA,NA,NA,NA,NA,NA,NA,NA,NA,NA,NA,NA,NA,NA,NA
341a2,task,flow.Sequence,2_10,NA,NA,completion,7282.955,167572.80000001,167571.921,167588.751,174871.706,174872.59999996,2023-10-15T09:44:17Z,174888.349,Sympathie,mapendano,d,dhamiria,fungamano,maazimio,NA,NA,NA,"c(""distractor1"", ""distractor2"", ""distractor3"")",NA,NA,NA,NA,NA,NA,NA,NA,NA,NA,NA,NA,NA,NA,NA,NA,NA,NA,NA
341a2,Shallow Question,html.Page,2_11_0_0,NA,NA,form submission,9632.151,174872.59999996,174871.706,174888.349,184520.5,184520.59999996,2023-10-15T09:44:27Z,184521.423,Vorsorge,tahadhari,s,ufafanuzi,makini,mashambani,tahadhari,NA,NA,"c(""distractor1"", ""distractor2"", ""distractor3"")",NA,NA,NA,NA,NA,NA,NA,NA,NA,NA,NA,NA,NA,NA,NA,NA,NA,NA,NA
341a2,Save data screen,canvas.Screen,2_11_0_1,NA,NA,timeout,500.04799999998,184522.39999998,184504.772,184521.423,185004.763,185005.19999999,2023-10-15T09:44:27Z,185021.471,Vorsorge,tahadhari,s,ufafanuzi,makini,mashambani,NA,NA,1,"c(""distractor1"", ""distractor2"", ""distractor3"")",NA,NA,NA,NA,NA,NA,NA,NA,NA,NA,NA,NA,NA,NA,NA,NA,NA,NA,NA
341a2,shallow,flow.Sequence,2_11_0,NA,NA,completion,10116.414,174872.59999996,174871.706,174888.349,185004.763,185005.39999998,2023-10-15T09:44:27Z,185021.471,Vorsorge,tahadhari,s,ufafanuzi,makini,mashambani,NA,NA,NA,"c(""distractor1"", ""distractor2"", ""distractor3"")",NA,NA,NA,NA,NA,NA,NA,NA,NA,NA,NA,NA,NA,NA,NA,NA,NA,NA,NA
341a2,task,flow.Sequence,2_11,NA,NA,completion,10116.414,174872.59999996,174871.706,174888.349,185004.763,185005.39999998,2023-10-15T09:44:27Z,185021.471,Vorsorge,tahadhari,s,ufafanuzi,makini,mashambani,NA,NA,NA,"c(""distractor1"", ""distractor2"", ""distractor3"")",NA,NA,NA,NA,NA,NA,NA,NA,NA,NA,NA,NA,NA,NA,NA,NA,NA,NA,NA
341a2,Shallow Question,html.Page,2_12_0_0,NA,NA,form submission,8791.1289999642,185005.5,185004.763,185021.471,193812.59999996,193812.80000001,2023-10-15T09:44:36Z,193821.223,Gelegenheit,wakati,s,mchanganyiko,kipaumbele,kushuku,wakati,NA,NA,"c(""distractor1"", ""distractor2"", ""distractor3"")",NA,NA,NA,NA,NA,NA,NA,NA,NA,NA,NA,NA,NA,NA,NA,NA,NA,NA,NA
341a2,Save data screen,canvas.Screen,2_12_0_1,NA,NA,timeout,499.984,193814.5,193804.623,193821.223,194304.529,194305.09999996,2023-10-15T09:44:37Z,194321.207,Gelegenheit,wakati,s,mchanganyiko,kipaumbele,kushuku,NA,NA,1,"c(""distractor1"", ""distractor2"", ""distractor3"")",NA,NA,NA,NA,NA,NA,NA,NA,NA,NA,NA,NA,NA,NA,NA,NA,NA,NA,NA
341a2,shallow,flow.Sequence,2_12_0,NA,NA,completion,9283.058,185005.5,185004.763,185021.471,194304.529,194305.30000001,2023-10-15T09:44:37Z,194321.207,Gelegenheit,wakati,s,mchanganyiko,kipaumbele,kushuku,NA,NA,NA,"c(""distractor1"", ""distractor2"", ""distractor3"")",NA,NA,NA,NA,NA,NA,NA,NA,NA,NA,NA,NA,NA,NA,NA,NA,NA,NA,NA
341a2,task,flow.Sequence,2_12,NA,NA,completion,9283.058,185005.5,185004.763,185021.471,194304.529,194305.30000001,2023-10-15T09:44:37Z,194321.207,Gelegenheit,wakati,s,mchanganyiko,kipaumbele,kushuku,NA,NA,NA,"c(""distractor1"", ""distractor2"", ""distractor3"")",NA,NA,NA,NA,NA,NA,NA,NA,NA,NA,NA,NA,NA,NA,NA,NA,NA,NA,NA
341a2,Shallow Question,html.Page,2_13_0_0,NA,NA,form submission,5292.1929999762,194305.39999998,194304.529,194321.207,199613.39999998,199613.59999996,2023-10-15T09:44:42Z,199621.055,Zuwachs,nyongeza,d,matilaba,udhibiti,hudhurio,nyongeza,NA,NA,"c(""distractor1"", ""distractor2"", ""distractor3"")",NA,NA,NA,NA,NA,NA,NA,NA,NA,NA,NA,NA,NA,NA,NA,NA,NA,NA,NA
341a2,Save data screen,canvas.Screen,2_13_0_1,NA,NA,timeout,500.073,199614.89999998,199604.415,199621.055,200104.44,200105.30000001,2023-10-15T09:44:42Z,200121.128,Zuwachs,nyongeza,d,matilaba,udhibiti,hudhurio,NA,NA,1,"c(""distractor1"", ""distractor2"", ""distractor3"")",NA,NA,NA,NA,NA,NA,NA,NA,NA,NA,NA,NA,NA,NA,NA,NA,NA,NA,NA
341a2,shallow,flow.Sequence,2_13_0,NA,NA,completion,5783.233,194305.39999998,194304.529,194321.207,200104.44,200105.39999998,2023-10-15T09:44:42Z,200121.128,Zuwachs,nyongeza,d,matilaba,udhibiti,hudhurio,NA,NA,NA,"c(""distractor1"", ""distractor2"", ""distractor3"")",NA,NA,NA,NA,NA,NA,NA,NA,NA,NA,NA,NA,NA,NA,NA,NA,NA,NA,NA
341a2,task,flow.Sequence,2_13,NA,NA,completion,5783.233,194305.30000001,194304.529,194321.207,200104.44,200105.5,2023-10-15T09:44:42Z,200121.128,Zuwachs,nyongeza,d,matilaba,udhibiti,hudhurio,NA,NA,NA,"c(""distractor1"", ""distractor2"", ""distractor3"")",NA,NA,NA,NA,NA,NA,NA,NA,NA,NA,NA,NA,NA,NA,NA,NA,NA,NA,NA
341a2,Shallow Question,html.Page,2_14_0_0,NA,NA,form submission,6406.9719999642,200105.59999996,200104.44,200121.128,206528.09999996,206528.19999999,2023-10-15T09:44:49Z,206537.563,Auftrag,uagizaji,s,ghanima,kuzingatia,msukani,uagizaji,NA,NA,"c(""distractor1"", ""distractor2"", ""distractor3"")",NA,NA,NA,NA,NA,NA,NA,NA,NA,NA,NA,NA,NA,NA,NA,NA,NA,NA,NA
341a2,Save data screen,canvas.Screen,2_14_0_1,NA,NA,timeout,499.905,206529.89999998,206520.912,206537.563,207020.832,207021.39999998,2023-10-15T09:44:49Z,207037.468,Auftrag,uagizaji,s,ghanima,kuzingatia,msukani,NA,NA,1,"c(""distractor1"", ""distractor2"", ""distractor3"")",NA,NA,NA,NA,NA,NA,NA,NA,NA,NA,NA,NA,NA,NA,NA,NA,NA,NA,NA
341a2,shallow,flow.Sequence,2_14_0,NA,NA,completion,6899.704,200105.59999996,200104.44,200121.128,207020.832,207021.5,2023-10-15T09:44:49Z,207037.468,Auftrag,uagizaji,s,ghanima,kuzingatia,msukani,NA,NA,NA,"c(""distractor1"", ""distractor2"", ""distractor3"")",NA,NA,NA,NA,NA,NA,NA,NA,NA,NA,NA,NA,NA,NA,NA,NA,NA,NA,NA
341a2,task,flow.Sequence,2_14,NA,NA,completion,6899.704,200105.59999996,200104.44,200121.128,207020.832,207021.59999996,2023-10-15T09:44:49Z,207037.468,Auftrag,uagizaji,s,ghanima,kuzingatia,msukani,NA,NA,NA,"c(""distractor1"", ""distractor2"", ""distractor3"")",NA,NA,NA,NA,NA,NA,NA,NA,NA,NA,NA,NA,NA,NA,NA,NA,NA,NA,NA
341a2,Shallow Question,html.Page,2_15_0_0,NA,NA,form submission,10462.931999976,207021.69999999,207020.832,207037.468,217500.39999998,217500.59999996,2023-10-15T09:45:00Z,217503.865,Symbol,kielezo,d,kinyume,nderemo,utayari,kielezo,NA,NA,"c(""distractor1"", ""distractor2"", ""distractor3"")",NA,NA,NA,NA,NA,NA,NA,NA,NA,NA,NA,NA,NA,NA,NA,NA,NA,NA,NA
341a2,Save data screen,canvas.Screen,2_15_0_1,NA,NA,timeout,500.03,217502.09999996,217487.203,217503.865,217987.203,217987.69999999,2023-10-15T09:45:00Z,218003.895,Symbol,kielezo,d,kinyume,nderemo,utayari,NA,NA,1,"c(""distractor1"", ""distractor2"", ""distractor3"")",NA,NA,NA,NA,NA,NA,NA,NA,NA,NA,NA,NA,NA,NA,NA,NA,NA,NA,NA
341a2,shallow,flow.Sequence,2_15_0,NA,NA,completion,10949.735,207021.69999999,207020.832,207037.468,217987.203,217987.89999998,2023-10-15T09:45:00Z,218003.895,Symbol,kielezo,d,kinyume,nderemo,utayari,NA,NA,NA,"c(""distractor1"", ""distractor2"", ""distractor3"")",NA,NA,NA,NA,NA,NA,NA,NA,NA,NA,NA,NA,NA,NA,NA,NA,NA,NA,NA
341a2,task,flow.Sequence,2_15,NA,NA,completion,10949.735,207021.69999999,207020.832,207037.468,217987.203,217987.89999998,2023-10-15T09:45:00Z,218003.895,Symbol,kielezo,d,kinyume,nderemo,utayari,NA,NA,NA,"c(""distractor1"", ""distractor2"", ""distractor3"")",NA,NA,NA,NA,NA,NA,NA,NA,NA,NA,NA,NA,NA,NA,NA,NA,NA,NA,NA
341a2,retrieval block 2 (multiple choice),flow.Loop,2,NA,NA,completion,144096.096,73875.599999964,73874.518,73891.107,217987.203,217988,2023-10-15T09:45:00Z,218003.895,NA,NA,NA,NA,NA,NA,NA,NA,NA,"c(""distractor1"", ""distractor2"", ""distractor3"")",NA,NA,NA,NA,NA,NA,NA,NA,NA,NA,NA,NA,NA,NA,NA,NA,NA,NA,NA
341a2,End,canvas.Screen,3,NA,keypress(Space),response,5736.4050000119,217988,217987.203,218003.895,223740.30000001,223742.09999996,2023-10-15T09:45:06Z,223753.741,NA,NA,NA,NA,NA,NA,NA,NA,NA,NULL,NA,NA,NA,NA,NA,NA,NA,NA,NA,NA,NA,NA,NA,NA,NA,NA,NA,NA,NA
341a2,root,flow.Sequence,NA,NA,NA,completion,223113.97100001,621.89999997616,293.051,626.329,223740.30000001,223742.39999998,2023-10-15T09:45:06Z,223753.741,NA,NA,NA,NA,NA,NA,NA,NA,NA,NULL,NA,NA,NA,NA,NA,NA,NA,NA,NA,NA,NA,NA,NA,NA,NA,NA,NA,NA,NA
