observation,sender,sender_type,sender_id,response,response_action,ended_on,duration,time_run,time_render,time_show,time_end,time_commit,timestamp,time_switch,german,swahili,enc,distractor1,distractor2,distractor3,response_2,x,correct,distractors,url_vp,url_sess,meta_labjs_version,meta_location,meta_user_agent,meta_platform,meta_language,meta_locale,meta_time_zone,meta_timezone_offset,meta_screen_width,meta_screen_height,meta_scroll_width,meta_scroll_height,meta_window_inner_width,meta_window_inner_height,meta_device_pixel_ratio,meta_labjs_build_flavor,meta_labjs_build_commit
8af27,Introduction delayed retrieval,canvas.Screen,0,weiter,keypress(Space),response,6486.3999999881,671.29999995232,664.292,680.8,7167.1999999881,7168.5,2024-05-28T14:59:27Z,7184.1,NA,NA,NA,NA,NA,NA,NA,NA,NA,NULL,199,2,20.2.4,https://neurocog.fernuni.ch/studies/vweber/aberisha/delayed/index.html?vp=199&sess=2,"Mozilla/5.0 (Windows NT 10.0; Win64; x64) AppleWebKit/537.36 (KHTML, like Gecko) Chrome/125.0.0.0 Safari/537.36 Edg/125.0.0.0",Win32,de,de-CH,Europe/Zurich,-120,1920,1200,1912,1004,1912,1052,1,production,f5b4a49f956347addd546a832a3327688c2c0fef
8af27,Deep Question,html.Page,1_0_0_0,NA,NA,form submission,83862.9,7168.7999999523,7157.276,7184.1,91047,91047.699999988,2024-05-28T15:00:50Z,91062.6,Konkurrent,mshindani,d,msemaji,mvutaji,kipukusa,mshindi,NA,NA,NULL,NA,NA,NA,NA,NA,NA,NA,NA,NA,NA,NA,NA,NA,NA,NA,NA,NA,NA,NA
8af27,Save data screen,canvas.Screen,1_0_0_1,NA,NA,timeout,506.7,91050.199999988,91040.4,91062.6,91552.8,91555.199999988,2024-05-28T15:00:51Z,91569.3,Konkurrent,mshindani,d,msemaji,mvutaji,kipukusa,NA,NA,0,NULL,NA,NA,NA,NA,NA,NA,NA,NA,NA,NA,NA,NA,NA,NA,NA,NA,NA,NA,NA
8af27,deep,flow.Sequence,1_0_0,NA,NA,completion,84368.7,7168.7999999523,7157.276,7184.1,91552.8,91556,2024-05-28T15:00:51Z,91569.3,Konkurrent,mshindani,d,msemaji,mvutaji,kipukusa,NA,NA,NA,NULL,NA,NA,NA,NA,NA,NA,NA,NA,NA,NA,NA,NA,NA,NA,NA,NA,NA,NA,NA
8af27,task,flow.Sequence,1_0,NA,NA,completion,84368.7,7168.7999999523,7157.276,7184.1,91552.8,91556.199999988,2024-05-28T15:00:51Z,91569.3,Konkurrent,mshindani,d,msemaji,mvutaji,kipukusa,NA,NA,NA,NULL,NA,NA,NA,NA,NA,NA,NA,NA,NA,NA,NA,NA,NA,NA,NA,NA,NA,NA,NA
8af27,Deep Question,html.Page,1_1_0_0,NA,NA,form submission,77955.799999964,91556.399999976,91552.8,91569.3,169525.09999996,169525.59999996,2024-05-28T15:02:09Z,169527.908,Gelegenheit,wakati,d,mchanganyiko,kipaumbele,kushuku,jfh,NA,NA,NULL,NA,NA,NA,NA,NA,NA,NA,NA,NA,NA,NA,NA,NA,NA,NA,NA,NA,NA,NA
8af27,Save data screen,canvas.Screen,1_1_0_1,NA,NA,timeout,499.79200000002,169529,169527.908,169527.908,170011,170012.09999996,2024-05-28T15:02:09Z,170027.7,Gelegenheit,wakati,d,mchanganyiko,kipaumbele,kushuku,NA,NA,0,NULL,NA,NA,NA,NA,NA,NA,NA,NA,NA,NA,NA,NA,NA,NA,NA,NA,NA,NA,NA
8af27,deep,flow.Sequence,1_1_0,NA,NA,completion,78441.7,91556.399999976,91552.8,91569.3,170011,170012.5,2024-05-28T15:02:09Z,170027.7,Gelegenheit,wakati,d,mchanganyiko,kipaumbele,kushuku,NA,NA,NA,NULL,NA,NA,NA,NA,NA,NA,NA,NA,NA,NA,NA,NA,NA,NA,NA,NA,NA,NA,NA
8af27,task,flow.Sequence,1_1,NA,NA,completion,78441.7,91556.399999976,91552.8,91569.3,170011,170012.79999995,2024-05-28T15:02:09Z,170027.7,Gelegenheit,wakati,d,mchanganyiko,kipaumbele,kushuku,NA,NA,NA,NULL,NA,NA,NA,NA,NA,NA,NA,NA,NA,NA,NA,NA,NA,NA,NA,NA,NA,NA,NA
8af27,Deep Question,html.Page,1_2_0_0,NA,NA,form submission,27444.499999988,170013.09999996,170011,170027.7,197472.19999999,197473,2024-05-28T15:02:37Z,197515.8,Polizist,msongora,d,simanzi,mandhari,nidhamu,msomgora,NA,NA,NULL,NA,NA,NA,NA,NA,NA,NA,NA,NA,NA,NA,NA,NA,NA,NA,NA,NA,NA,NA
8af27,Save data screen,canvas.Screen,1_2_0_1,NA,NA,timeout,493.30000000002,197477.39999998,197470.56,197515.8,197992.7,197995,2024-05-28T15:02:37Z,198009.1,Polizist,msongora,d,simanzi,mandhari,nidhamu,NA,NA,0,NULL,NA,NA,NA,NA,NA,NA,NA,NA,NA,NA,NA,NA,NA,NA,NA,NA,NA,NA,NA
8af27,deep,flow.Sequence,1_2_0,NA,NA,completion,27965,170013.09999996,170011,170027.7,197992.7,197995.59999996,2024-05-28T15:02:37Z,198009.1,Polizist,msongora,d,simanzi,mandhari,nidhamu,NA,NA,NA,NULL,NA,NA,NA,NA,NA,NA,NA,NA,NA,NA,NA,NA,NA,NA,NA,NA,NA,NA,NA
8af27,task,flow.Sequence,1_2,NA,NA,completion,27965,170013,170011,170027.7,197992.7,197995.79999995,2024-05-28T15:02:37Z,198009.1,Polizist,msongora,d,simanzi,mandhari,nidhamu,NA,NA,NA,NULL,NA,NA,NA,NA,NA,NA,NA,NA,NA,NA,NA,NA,NA,NA,NA,NA,NA,NA,NA
8af27,Deep Question,html.Page,1_3_0_0,NA,NA,form submission,19306.699999952,197996,197992.7,198009.1,217315.79999995,217316.29999995,2024-05-28T15:02:57Z,217332.1,Schönheit,kirembo,s,mahojiano,msisimko,jitihadi,kirembo,NA,NA,NULL,NA,NA,NA,NA,NA,NA,NA,NA,NA,NA,NA,NA,NA,NA,NA,NA,NA,NA,NA
8af27,Save data screen,canvas.Screen,1_3_0_1,NA,NA,timeout,501.39999999999,217319.89999998,217315.2,217332.1,217816.7,217817.59999996,2024-05-28T15:02:57Z,217833.5,Schönheit,kirembo,s,mahojiano,msisimko,jitihadi,NA,NA,1,NULL,NA,NA,NA,NA,NA,NA,NA,NA,NA,NA,NA,NA,NA,NA,NA,NA,NA,NA,NA
8af27,deep,flow.Sequence,1_3_0,NA,NA,completion,19807.6,197996,197992.7,198009.1,217816.7,217818.09999996,2024-05-28T15:02:57Z,217833.5,Schönheit,kirembo,s,mahojiano,msisimko,jitihadi,NA,NA,NA,NULL,NA,NA,NA,NA,NA,NA,NA,NA,NA,NA,NA,NA,NA,NA,NA,NA,NA,NA,NA
8af27,task,flow.Sequence,1_3,NA,NA,completion,19807.6,197996,197992.7,198009.1,217816.7,217818.19999999,2024-05-28T15:02:57Z,217833.5,Schönheit,kirembo,s,mahojiano,msisimko,jitihadi,NA,NA,NA,NULL,NA,NA,NA,NA,NA,NA,NA,NA,NA,NA,NA,NA,NA,NA,NA,NA,NA,NA,NA
8af27,Deep Question,html.Page,1_4_0_0,NA,NA,form submission,7073.0999999642,217818.29999995,217816.7,217833.5,224906.59999996,224906.79999995,2024-05-28T15:03:04Z,224922.7,Symbol,kielezo,s,kinyume,nderemo,utayari,jhgk,NA,NA,NULL,NA,NA,NA,NA,NA,NA,NA,NA,NA,NA,NA,NA,NA,NA,NA,NA,NA,NA,NA
8af27,Save data screen,canvas.Screen,1_4_0_1,NA,NA,timeout,507,224909.5,224912.536,224922.7,225413.2,225415,2024-05-28T15:03:05Z,225429.7,Symbol,kielezo,s,kinyume,nderemo,utayari,NA,NA,0,NULL,NA,NA,NA,NA,NA,NA,NA,NA,NA,NA,NA,NA,NA,NA,NA,NA,NA,NA,NA
8af27,deep,flow.Sequence,1_4_0,NA,NA,completion,7579.7,217818.19999999,217816.7,217833.5,225413.2,225415.59999996,2024-05-28T15:03:05Z,225429.7,Symbol,kielezo,s,kinyume,nderemo,utayari,NA,NA,NA,NULL,NA,NA,NA,NA,NA,NA,NA,NA,NA,NA,NA,NA,NA,NA,NA,NA,NA,NA,NA
8af27,task,flow.Sequence,1_4,NA,NA,completion,7579.7,217818.19999999,217816.7,217833.5,225413.2,225416,2024-05-28T15:03:05Z,225429.7,Symbol,kielezo,s,kinyume,nderemo,utayari,NA,NA,NA,NULL,NA,NA,NA,NA,NA,NA,NA,NA,NA,NA,NA,NA,NA,NA,NA,NA,NA,NA,NA
8af27,Deep Question,html.Page,1_5_0_0,NA,NA,form submission,15426.699999976,225416.29999995,225413.2,225429.7,240856.39999998,240857.09999996,2024-05-28T15:03:20Z,240872.1,Wettbewerb,ushindani,d,mapendezi,kichocheo,ubaguzi,ushindani,NA,NA,NULL,NA,NA,NA,NA,NA,NA,NA,NA,NA,NA,NA,NA,NA,NA,NA,NA,NA,NA,NA
8af27,Save data screen,canvas.Screen,1_5_0_1,NA,NA,timeout,493.79999999999,240861.79999995,240862.85,240872.1,241349.2,241350.59999996,2024-05-28T15:03:21Z,241365.9,Wettbewerb,ushindani,d,mapendezi,kichocheo,ubaguzi,NA,NA,1,NULL,NA,NA,NA,NA,NA,NA,NA,NA,NA,NA,NA,NA,NA,NA,NA,NA,NA,NA,NA
8af27,deep,flow.Sequence,1_5_0,NA,NA,completion,15919.5,225416.19999999,225413.2,225429.7,241349.2,241350.89999998,2024-05-28T15:03:21Z,241365.9,Wettbewerb,ushindani,d,mapendezi,kichocheo,ubaguzi,NA,NA,NA,NULL,NA,NA,NA,NA,NA,NA,NA,NA,NA,NA,NA,NA,NA,NA,NA,NA,NA,NA,NA
8af27,task,flow.Sequence,1_5,NA,NA,completion,15919.5,225416.19999999,225413.2,225429.7,241349.2,241351.19999999,2024-05-28T15:03:21Z,241365.9,Wettbewerb,ushindani,d,mapendezi,kichocheo,ubaguzi,NA,NA,NA,NULL,NA,NA,NA,NA,NA,NA,NA,NA,NA,NA,NA,NA,NA,NA,NA,NA,NA,NA,NA
8af27,Deep Question,html.Page,1_6_0_0,NA,NA,form submission,3012.6999999642,241351.39999998,241349.2,241365.9,244378.59999996,244379,2024-05-28T15:03:24Z,244394.8,Widerstand,usulubu,s,kusababisha,mwalimu,mwenendo,jfghfgh,NA,NA,NULL,NA,NA,NA,NA,NA,NA,NA,NA,NA,NA,NA,NA,NA,NA,NA,NA,NA,NA,NA
8af27,Save data screen,canvas.Screen,1_6_0_1,NA,NA,timeout,500.10000000001,244380,244374.7,244394.8,244878.8,244881,2024-05-28T15:03:24Z,244894.9,Widerstand,usulubu,s,kusababisha,mwalimu,mwenendo,NA,NA,0,NULL,NA,NA,NA,NA,NA,NA,NA,NA,NA,NA,NA,NA,NA,NA,NA,NA,NA,NA,NA
8af27,deep,flow.Sequence,1_6_0,NA,NA,completion,3512.9,241351.29999995,241349.2,241365.9,244878.8,244881.39999998,2024-05-28T15:03:24Z,244894.9,Widerstand,usulubu,s,kusababisha,mwalimu,mwenendo,NA,NA,NA,NULL,NA,NA,NA,NA,NA,NA,NA,NA,NA,NA,NA,NA,NA,NA,NA,NA,NA,NA,NA
8af27,task,flow.Sequence,1_6,NA,NA,completion,3512.9,241351.29999995,241349.2,241365.9,244878.8,244881.59999996,2024-05-28T15:03:24Z,244894.9,Widerstand,usulubu,s,kusababisha,mwalimu,mwenendo,NA,NA,NA,NULL,NA,NA,NA,NA,NA,NA,NA,NA,NA,NA,NA,NA,NA,NA,NA,NA,NA,NA,NA
8af27,Deep Question,html.Page,1_7_0_0,NA,NA,form submission,6600.8999999523,244881.89999998,244878.8,244894.9,251495.79999995,251496.29999995,2024-05-28T15:03:31Z,251518.4,Verstand,ufahamivu,s,shakawa,hadhari,mhandisi,jhgkj,NA,NA,NULL,NA,NA,NA,NA,NA,NA,NA,NA,NA,NA,NA,NA,NA,NA,NA,NA,NA,NA,NA
8af27,Save data screen,canvas.Screen,1_7_0_1,NA,NA,timeout,495.80000000002,251500.39999998,251501.7,251518.4,251997.4,251998.39999998,2024-05-28T15:03:31Z,252014.2,Verstand,ufahamivu,s,shakawa,hadhari,mhandisi,NA,NA,0,NULL,NA,NA,NA,NA,NA,NA,NA,NA,NA,NA,NA,NA,NA,NA,NA,NA,NA,NA,NA
8af27,deep,flow.Sequence,1_7_0,NA,NA,completion,7102.5,244881.89999998,244878.8,244894.9,251997.4,251998.69999999,2024-05-28T15:03:31Z,252014.2,Verstand,ufahamivu,s,shakawa,hadhari,mhandisi,NA,NA,NA,NULL,NA,NA,NA,NA,NA,NA,NA,NA,NA,NA,NA,NA,NA,NA,NA,NA,NA,NA,NA
8af27,task,flow.Sequence,1_7,NA,NA,completion,7102.5,244881.79999995,244878.8,244894.9,251997.4,251998.89999998,2024-05-28T15:03:31Z,252014.2,Verstand,ufahamivu,s,shakawa,hadhari,mhandisi,NA,NA,NA,NULL,NA,NA,NA,NA,NA,NA,NA,NA,NA,NA,NA,NA,NA,NA,NA,NA,NA,NA,NA
8af27,Deep Question,html.Page,1_8_0_0,NA,NA,form submission,19836.099999952,251999,251997.4,252014.2,271850.29999995,271850.79999995,2024-05-28T15:03:51Z,271866,Sympathie,mapendano,s,dhamiria,fungamano,maazimio,mapedano,NA,NA,NULL,NA,NA,NA,NA,NA,NA,NA,NA,NA,NA,NA,NA,NA,NA,NA,NA,NA,NA,NA
8af27,Save data screen,canvas.Screen,1_8_0_1,NA,NA,timeout,503.29999999999,271855.09999996,271847.9,271866,272352.5,272353.39999998,2024-05-28T15:03:52Z,272369.3,Sympathie,mapendano,s,dhamiria,fungamano,maazimio,NA,NA,0,NULL,NA,NA,NA,NA,NA,NA,NA,NA,NA,NA,NA,NA,NA,NA,NA,NA,NA,NA,NA
8af27,deep,flow.Sequence,1_8_0,NA,NA,completion,20338.3,251999,251997.4,252014.2,272352.5,272353.59999996,2024-05-28T15:03:52Z,272369.3,Sympathie,mapendano,s,dhamiria,fungamano,maazimio,NA,NA,NA,NULL,NA,NA,NA,NA,NA,NA,NA,NA,NA,NA,NA,NA,NA,NA,NA,NA,NA,NA,NA
8af27,task,flow.Sequence,1_8,NA,NA,completion,20338.3,251998.89999998,251997.4,252014.2,272352.5,272353.79999995,2024-05-28T15:03:52Z,272369.3,Sympathie,mapendano,s,dhamiria,fungamano,maazimio,NA,NA,NA,NULL,NA,NA,NA,NA,NA,NA,NA,NA,NA,NA,NA,NA,NA,NA,NA,NA,NA,NA,NA
8af27,Deep Question,html.Page,1_9_0_0,NA,NA,form submission,4640.5999999762,272353.89999998,272352.5,272369.3,277009.89999998,277010.5,2024-05-28T15:03:56Z,277025.9,Zuwachs,nyongeza,s,matilaba,udhibiti,hudhurio,mjghf,NA,NA,NULL,NA,NA,NA,NA,NA,NA,NA,NA,NA,NA,NA,NA,NA,NA,NA,NA,NA,NA,NA
8af27,Save data screen,canvas.Screen,1_9_0_1,NA,NA,timeout,500.5,277014.39999998,277015.048,277025.9,277509.6,277511.29999995,2024-05-28T15:03:57Z,277526.4,Zuwachs,nyongeza,s,matilaba,udhibiti,hudhurio,NA,NA,0,NULL,NA,NA,NA,NA,NA,NA,NA,NA,NA,NA,NA,NA,NA,NA,NA,NA,NA,NA,NA
8af27,deep,flow.Sequence,1_9_0,NA,NA,completion,5140.3,272353.89999998,272352.5,272369.3,277509.6,277511.69999999,2024-05-28T15:03:57Z,277526.4,Zuwachs,nyongeza,s,matilaba,udhibiti,hudhurio,NA,NA,NA,NULL,NA,NA,NA,NA,NA,NA,NA,NA,NA,NA,NA,NA,NA,NA,NA,NA,NA,NA,NA
8af27,task,flow.Sequence,1_9,NA,NA,completion,5140.3,272353.89999998,272352.5,272369.3,277509.6,277511.89999998,2024-05-28T15:03:57Z,277526.4,Zuwachs,nyongeza,s,matilaba,udhibiti,hudhurio,NA,NA,NA,NULL,NA,NA,NA,NA,NA,NA,NA,NA,NA,NA,NA,NA,NA,NA,NA,NA,NA,NA,NA
8af27,Deep Question,html.Page,1_10_0_0,NA,NA,form submission,7881.3999999523,277512.29999995,277509.6,277526.4,285407.79999995,285408,2024-05-28T15:04:05Z,285423.9,Ausschluss,kutengwa,d,ununuzi,taratibu,madeni,ngdds,NA,NA,NULL,NA,NA,NA,NA,NA,NA,NA,NA,NA,NA,NA,NA,NA,NA,NA,NA,NA,NA,NA
8af27,Save data screen,canvas.Screen,1_10_0_1,NA,NA,timeout,499.69999999995,285410.39999998,285401.6,285423.9,285907.1,285909.09999996,2024-05-28T15:04:05Z,285923.6,Ausschluss,kutengwa,d,ununuzi,taratibu,madeni,NA,NA,0,NULL,NA,NA,NA,NA,NA,NA,NA,NA,NA,NA,NA,NA,NA,NA,NA,NA,NA,NA,NA
8af27,deep,flow.Sequence,1_10_0,NA,NA,completion,8380.7,277512.19999999,277509.6,277526.4,285907.1,285909.59999996,2024-05-28T15:04:05Z,285923.6,Ausschluss,kutengwa,d,ununuzi,taratibu,madeni,NA,NA,NA,NULL,NA,NA,NA,NA,NA,NA,NA,NA,NA,NA,NA,NA,NA,NA,NA,NA,NA,NA,NA
8af27,task,flow.Sequence,1_10,NA,NA,completion,8380.7,277512,277509.6,277526.4,285907.1,285909.89999998,2024-05-28T15:04:05Z,285923.6,Ausschluss,kutengwa,d,ununuzi,taratibu,madeni,NA,NA,NA,NULL,NA,NA,NA,NA,NA,NA,NA,NA,NA,NA,NA,NA,NA,NA,NA,NA,NA,NA,NA
8af27,Deep Question,html.Page,1_11_0_0,NA,NA,form submission,15291.9,285910.09999996,285907.1,285923.6,301215.5,301215.89999998,2024-05-28T15:04:21Z,301231.3,Zufall,kikuti,s,kukosekana,uchoraji,leseni,kikuti,NA,NA,NULL,NA,NA,NA,NA,NA,NA,NA,NA,NA,NA,NA,NA,NA,NA,NA,NA,NA,NA,NA
8af27,Save data screen,canvas.Screen,1_11_0_1,NA,NA,timeout,499.79999999999,301219.79999995,301209.182,301231.3,301714.3,301715.89999998,2024-05-28T15:04:21Z,301731.1,Zufall,kikuti,s,kukosekana,uchoraji,leseni,NA,NA,1,NULL,NA,NA,NA,NA,NA,NA,NA,NA,NA,NA,NA,NA,NA,NA,NA,NA,NA,NA,NA
8af27,deep,flow.Sequence,1_11_0,NA,NA,completion,15790.7,285910.09999996,285907.1,285923.6,301714.3,301716.29999995,2024-05-28T15:04:21Z,301731.1,Zufall,kikuti,s,kukosekana,uchoraji,leseni,NA,NA,NA,NULL,NA,NA,NA,NA,NA,NA,NA,NA,NA,NA,NA,NA,NA,NA,NA,NA,NA,NA,NA
8af27,task,flow.Sequence,1_11,NA,NA,completion,15790.7,285910,285907.1,285923.6,301714.3,301716.5,2024-05-28T15:04:21Z,301731.1,Zufall,kikuti,s,kukosekana,uchoraji,leseni,NA,NA,NA,NULL,NA,NA,NA,NA,NA,NA,NA,NA,NA,NA,NA,NA,NA,NA,NA,NA,NA,NA,NA
8af27,Deep Question,html.Page,1_12_0_0,NA,NA,form submission,35857.099999988,301716.79999995,301714.3,301731.1,337588.19999999,337588.69999999,2024-05-28T15:04:57Z,337604.1,Beweis,ushahidi,d,marudio,kizuizi,mtendaji,ushahidi,NA,NA,NULL,NA,NA,NA,NA,NA,NA,NA,NA,NA,NA,NA,NA,NA,NA,NA,NA,NA,NA,NA
8af27,Save data screen,canvas.Screen,1_12_0_1,NA,NA,timeout,504.70000000001,337592.59999996,337596.352,337604.1,338092.2,338092.89999998,2024-05-28T15:04:58Z,338108.8,Beweis,ushahidi,d,marudio,kizuizi,mtendaji,NA,NA,1,NULL,NA,NA,NA,NA,NA,NA,NA,NA,NA,NA,NA,NA,NA,NA,NA,NA,NA,NA,NA
8af27,deep,flow.Sequence,1_12_0,NA,NA,completion,36361.1,301716.69999999,301714.3,301731.1,338092.2,338093.09999996,2024-05-28T15:04:58Z,338108.8,Beweis,ushahidi,d,marudio,kizuizi,mtendaji,NA,NA,NA,NULL,NA,NA,NA,NA,NA,NA,NA,NA,NA,NA,NA,NA,NA,NA,NA,NA,NA,NA,NA
8af27,task,flow.Sequence,1_12,NA,NA,completion,36361.1,301716.69999999,301714.3,301731.1,338092.2,338093.19999999,2024-05-28T15:04:58Z,338108.8,Beweis,ushahidi,d,marudio,kizuizi,mtendaji,NA,NA,NA,NULL,NA,NA,NA,NA,NA,NA,NA,NA,NA,NA,NA,NA,NA,NA,NA,NA,NA,NA,NA
8af27,Deep Question,html.Page,1_13_0_0,NA,NA,form submission,3985.4999999523,338093.5,338092.2,338108.8,342094.29999995,342094.69999999,2024-05-28T15:05:02Z,342110.2,Auftrag,uagizaji,d,ghanima,kuzingatia,msukani,jvgdsh,NA,NA,NULL,NA,NA,NA,NA,NA,NA,NA,NA,NA,NA,NA,NA,NA,NA,NA,NA,NA,NA,NA
8af27,Save data screen,canvas.Screen,1_13_0_1,NA,NA,timeout,506,342098.79999995,342092.9,342110.2,342599.7,342601.59999996,2024-05-28T15:05:02Z,342616.2,Auftrag,uagizaji,d,ghanima,kuzingatia,msukani,NA,NA,0,NULL,NA,NA,NA,NA,NA,NA,NA,NA,NA,NA,NA,NA,NA,NA,NA,NA,NA,NA,NA
8af27,deep,flow.Sequence,1_13_0,NA,NA,completion,4490.9,338093.39999998,338092.2,338108.8,342599.7,342602.29999995,2024-05-28T15:05:02Z,342616.2,Auftrag,uagizaji,d,ghanima,kuzingatia,msukani,NA,NA,NA,NULL,NA,NA,NA,NA,NA,NA,NA,NA,NA,NA,NA,NA,NA,NA,NA,NA,NA,NA,NA
8af27,task,flow.Sequence,1_13,NA,NA,completion,4490.9,338093.29999995,338092.2,338108.8,342599.7,342602.89999998,2024-05-28T15:05:02Z,342616.2,Auftrag,uagizaji,d,ghanima,kuzingatia,msukani,NA,NA,NA,NULL,NA,NA,NA,NA,NA,NA,NA,NA,NA,NA,NA,NA,NA,NA,NA,NA,NA,NA,NA
8af27,Deep Question,html.Page,1_14_0_0,NA,NA,form submission,8282.9999999881,342603.09999996,342599.7,342616.2,350899.19999999,350899.5,2024-05-28T15:05:10Z,350907.3,Annäherung,maegesho,s,madahili,kujiamini,mapendekezo,magesi,NA,NA,NULL,NA,NA,NA,NA,NA,NA,NA,NA,NA,NA,NA,NA,NA,NA,NA,NA,NA,NA,NA
8af27,Save data screen,canvas.Screen,1_14_0_1,NA,NA,timeout,495.79999999999,350902.5,350896.75,350907.3,351386.5,351388.5,2024-05-28T15:05:11Z,351403.1,Annäherung,maegesho,s,madahili,kujiamini,mapendekezo,NA,NA,0,NULL,NA,NA,NA,NA,NA,NA,NA,NA,NA,NA,NA,NA,NA,NA,NA,NA,NA,NA,NA
8af27,deep,flow.Sequence,1_14_0,NA,NA,completion,8770.3,342603.09999996,342599.7,342616.2,351386.5,351388.89999998,2024-05-28T15:05:11Z,351403.1,Annäherung,maegesho,s,madahili,kujiamini,mapendekezo,NA,NA,NA,NULL,NA,NA,NA,NA,NA,NA,NA,NA,NA,NA,NA,NA,NA,NA,NA,NA,NA,NA,NA
8af27,task,flow.Sequence,1_14,NA,NA,completion,8770.3,342603,342599.7,342616.2,351386.5,351389.19999999,2024-05-28T15:05:11Z,351403.1,Annäherung,maegesho,s,madahili,kujiamini,mapendekezo,NA,NA,NA,NULL,NA,NA,NA,NA,NA,NA,NA,NA,NA,NA,NA,NA,NA,NA,NA,NA,NA,NA,NA
8af27,Deep Question,html.Page,1_15_0_0,NA,NA,form submission,6405.4999999643,351389.5,351386.5,351403.1,357808.59999996,357809.19999999,2024-05-28T15:05:17Z,357825.8,Vorsorge,tahadhari,d,ufafanuzi,makini,mashambani,tahidi,NA,NA,NULL,NA,NA,NA,NA,NA,NA,NA,NA,NA,NA,NA,NA,NA,NA,NA,NA,NA,NA,NA
8af27,Save data screen,canvas.Screen,1_15_0_1,NA,NA,timeout,495.90000000002,357814.39999998,357817.236,357825.8,358305.3,358307.5,2024-05-28T15:05:18Z,358321.7,Vorsorge,tahadhari,d,ufafanuzi,makini,mashambani,NA,NA,0,NULL,NA,NA,NA,NA,NA,NA,NA,NA,NA,NA,NA,NA,NA,NA,NA,NA,NA,NA,NA
8af27,deep,flow.Sequence,1_15_0,NA,NA,completion,6902.2,351389.39999998,351386.5,351403.1,358305.3,358308.19999999,2024-05-28T15:05:18Z,358321.7,Vorsorge,tahadhari,d,ufafanuzi,makini,mashambani,NA,NA,NA,NULL,NA,NA,NA,NA,NA,NA,NA,NA,NA,NA,NA,NA,NA,NA,NA,NA,NA,NA,NA
8af27,task,flow.Sequence,1_15,NA,NA,completion,6902.2,351389.39999998,351386.5,351403.1,358305.3,358308.5,2024-05-28T15:05:18Z,358321.7,Vorsorge,tahadhari,d,ufafanuzi,makini,mashambani,NA,NA,NA,NULL,NA,NA,NA,NA,NA,NA,NA,NA,NA,NA,NA,NA,NA,NA,NA,NA,NA,NA,NA
8af27,retrieval block 1 (cued recall),flow.Loop,1,NA,NA,completion,351121.2,7168.6999999881,7157.276,7184.1,358305.3,358309,2024-05-28T15:05:18Z,358321.7,NA,NA,NA,NA,NA,NA,NA,NA,NA,NULL,NA,NA,NA,NA,NA,NA,NA,NA,NA,NA,NA,NA,NA,NA,NA,NA,NA,NA,NA
8af27,Shallow Question,html.Page,2_0_0_0,NA,NA,form submission,10259.599999952,358309.5,358305.3,358321.7,368581.29999995,368581.79999995,2024-05-28T15:05:28Z,368596.5,Sympathie,mapendano,s,dhamiria,fungamano,maazimio,mapendano,NA,NA,"c(""distractor1"", ""distractor2"", ""distractor3"")",NA,NA,NA,NA,NA,NA,NA,NA,NA,NA,NA,NA,NA,NA,NA,NA,NA,NA,NA
8af27,Save data screen,canvas.Screen,2_0_0_1,NA,NA,timeout,501.20000000001,368585.79999995,368572.344,368596.5,369081.1,369083,2024-05-28T15:05:28Z,369097.7,Sympathie,mapendano,s,dhamiria,fungamano,maazimio,NA,NA,1,"c(""distractor1"", ""distractor2"", ""distractor3"")",NA,NA,NA,NA,NA,NA,NA,NA,NA,NA,NA,NA,NA,NA,NA,NA,NA,NA,NA
8af27,shallow,flow.Sequence,2_0_0,NA,NA,completion,10759.4,358309.39999998,358305.3,358321.7,369081.1,369083.39999998,2024-05-28T15:05:28Z,369097.7,Sympathie,mapendano,s,dhamiria,fungamano,maazimio,NA,NA,NA,"c(""distractor1"", ""distractor2"", ""distractor3"")",NA,NA,NA,NA,NA,NA,NA,NA,NA,NA,NA,NA,NA,NA,NA,NA,NA,NA,NA
8af27,task,flow.Sequence,2_0,NA,NA,completion,10759.4,358309.39999998,358305.3,358321.7,369081.1,369083.69999999,2024-05-28T15:05:28Z,369097.7,Sympathie,mapendano,s,dhamiria,fungamano,maazimio,NA,NA,NA,"c(""distractor1"", ""distractor2"", ""distractor3"")",NA,NA,NA,NA,NA,NA,NA,NA,NA,NA,NA,NA,NA,NA,NA,NA,NA,NA,NA
8af27,Shallow Question,html.Page,2_1_0_0,NA,NA,form submission,19783.599999952,369084,369081.1,369097.7,388881.29999995,388881.69999999,2024-05-28T15:05:48Z,388897.3,Auftrag,uagizaji,d,ghanima,kuzingatia,msukani,kuzingatia,NA,NA,"c(""distractor1"", ""distractor2"", ""distractor3"")",NA,NA,NA,NA,NA,NA,NA,NA,NA,NA,NA,NA,NA,NA,NA,NA,NA,NA,NA
8af27,Save data screen,canvas.Screen,2_1_0_1,NA,NA,timeout,499.79999999999,388884.79999995,388870.754,388897.3,389380.5,389381.59999996,2024-05-28T15:05:49Z,389397.1,Auftrag,uagizaji,d,ghanima,kuzingatia,msukani,NA,NA,0,"c(""distractor1"", ""distractor2"", ""distractor3"")",NA,NA,NA,NA,NA,NA,NA,NA,NA,NA,NA,NA,NA,NA,NA,NA,NA,NA,NA
8af27,shallow,flow.Sequence,2_1_0,NA,NA,completion,20282.8,369084,369081.1,369097.7,389380.5,389381.89999998,2024-05-28T15:05:49Z,389397.1,Auftrag,uagizaji,d,ghanima,kuzingatia,msukani,NA,NA,NA,"c(""distractor1"", ""distractor2"", ""distractor3"")",NA,NA,NA,NA,NA,NA,NA,NA,NA,NA,NA,NA,NA,NA,NA,NA,NA,NA,NA
8af27,task,flow.Sequence,2_1,NA,NA,completion,20282.8,369083.89999998,369081.1,369097.7,389380.5,389382.09999996,2024-05-28T15:05:49Z,389397.1,Auftrag,uagizaji,d,ghanima,kuzingatia,msukani,NA,NA,NA,"c(""distractor1"", ""distractor2"", ""distractor3"")",NA,NA,NA,NA,NA,NA,NA,NA,NA,NA,NA,NA,NA,NA,NA,NA,NA,NA,NA
8af27,Shallow Question,html.Page,2_2_0_0,NA,NA,form submission,9875.1999999523,389382.39999998,389380.5,389397.1,399272.29999995,399273.09999996,2024-05-28T15:05:59Z,399286.2,Schönheit,kirembo,s,mahojiano,msisimko,jitihadi,kirembo,NA,NA,"c(""distractor1"", ""distractor2"", ""distractor3"")",NA,NA,NA,NA,NA,NA,NA,NA,NA,NA,NA,NA,NA,NA,NA,NA,NA,NA,NA
8af27,Save data screen,canvas.Screen,2_2_0_1,NA,NA,timeout,507.5,399277.59999996,399275.376,399286.2,399776.9,399778.29999995,2024-05-28T15:05:59Z,399793.7,Schönheit,kirembo,s,mahojiano,msisimko,jitihadi,NA,NA,1,"c(""distractor1"", ""distractor2"", ""distractor3"")",NA,NA,NA,NA,NA,NA,NA,NA,NA,NA,NA,NA,NA,NA,NA,NA,NA,NA,NA
8af27,shallow,flow.Sequence,2_2_0,NA,NA,completion,10379.8,389382.19999999,389380.5,389397.1,399776.9,399778.69999999,2024-05-28T15:05:59Z,399793.7,Schönheit,kirembo,s,mahojiano,msisimko,jitihadi,NA,NA,NA,"c(""distractor1"", ""distractor2"", ""distractor3"")",NA,NA,NA,NA,NA,NA,NA,NA,NA,NA,NA,NA,NA,NA,NA,NA,NA,NA,NA
8af27,task,flow.Sequence,2_2,NA,NA,completion,10379.8,389382.19999999,389380.5,389397.1,399776.9,399778.89999998,2024-05-28T15:05:59Z,399793.7,Schönheit,kirembo,s,mahojiano,msisimko,jitihadi,NA,NA,NA,"c(""distractor1"", ""distractor2"", ""distractor3"")",NA,NA,NA,NA,NA,NA,NA,NA,NA,NA,NA,NA,NA,NA,NA,NA,NA,NA,NA
8af27,Shallow Question,html.Page,2_3_0_0,NA,NA,form submission,15836.599999952,399779.09999996,399776.9,399793.7,415630.29999995,415630.59999996,2024-05-28T15:06:15Z,415645.9,Konkurrent,mshindani,d,msemaji,mvutaji,kipukusa,mshindani,NA,NA,"c(""distractor1"", ""distractor2"", ""distractor3"")",NA,NA,NA,NA,NA,NA,NA,NA,NA,NA,NA,NA,NA,NA,NA,NA,NA,NA,NA
8af27,Save data screen,canvas.Screen,2_3_0_1,NA,NA,timeout,505.39999999997,415633.79999995,415623.628,415645.9,416134.8,416135.59999996,2024-05-28T15:06:16Z,416151.3,Konkurrent,mshindani,d,msemaji,mvutaji,kipukusa,NA,NA,1,"c(""distractor1"", ""distractor2"", ""distractor3"")",NA,NA,NA,NA,NA,NA,NA,NA,NA,NA,NA,NA,NA,NA,NA,NA,NA,NA,NA
8af27,shallow,flow.Sequence,2_3_0,NA,NA,completion,16341.1,399779,399776.9,399793.7,416134.8,416135.79999995,2024-05-28T15:06:16Z,416151.3,Konkurrent,mshindani,d,msemaji,mvutaji,kipukusa,NA,NA,NA,"c(""distractor1"", ""distractor2"", ""distractor3"")",NA,NA,NA,NA,NA,NA,NA,NA,NA,NA,NA,NA,NA,NA,NA,NA,NA,NA,NA
8af27,task,flow.Sequence,2_3,NA,NA,completion,16341.1,399779,399776.9,399793.7,416134.8,416135.89999998,2024-05-28T15:06:16Z,416151.3,Konkurrent,mshindani,d,msemaji,mvutaji,kipukusa,NA,NA,NA,"c(""distractor1"", ""distractor2"", ""distractor3"")",NA,NA,NA,NA,NA,NA,NA,NA,NA,NA,NA,NA,NA,NA,NA,NA,NA,NA,NA
8af27,Shallow Question,html.Page,2_4_0_0,NA,NA,form submission,5099.9999999523,416135.89999998,416134.8,416151.3,421251.29999995,421251.69999999,2024-05-28T15:06:21Z,421265.8,Zufall,kikuti,s,kukosekana,uchoraji,leseni,kikuti,NA,NA,"c(""distractor1"", ""distractor2"", ""distractor3"")",NA,NA,NA,NA,NA,NA,NA,NA,NA,NA,NA,NA,NA,NA,NA,NA,NA,NA,NA
8af27,Save data screen,canvas.Screen,2_4_0_1,NA,NA,timeout,500.20000000001,421254.89999998,421240.5,421265.8,421749.4,421751.69999999,2024-05-28T15:06:21Z,421766,Zufall,kikuti,s,kukosekana,uchoraji,leseni,NA,NA,1,"c(""distractor1"", ""distractor2"", ""distractor3"")",NA,NA,NA,NA,NA,NA,NA,NA,NA,NA,NA,NA,NA,NA,NA,NA,NA,NA,NA
8af27,shallow,flow.Sequence,2_4_0,NA,NA,completion,5598.1,416135.89999998,416134.8,416151.3,421749.4,421752.19999999,2024-05-28T15:06:21Z,421766,Zufall,kikuti,s,kukosekana,uchoraji,leseni,NA,NA,NA,"c(""distractor1"", ""distractor2"", ""distractor3"")",NA,NA,NA,NA,NA,NA,NA,NA,NA,NA,NA,NA,NA,NA,NA,NA,NA,NA,NA
8af27,task,flow.Sequence,2_4,NA,NA,completion,5598.1,416135.89999998,416134.8,416151.3,421749.4,421752.29999995,2024-05-28T15:06:21Z,421766,Zufall,kikuti,s,kukosekana,uchoraji,leseni,NA,NA,NA,"c(""distractor1"", ""distractor2"", ""distractor3"")",NA,NA,NA,NA,NA,NA,NA,NA,NA,NA,NA,NA,NA,NA,NA,NA,NA,NA,NA
8af27,Shallow Question,html.Page,2_5_0_0,NA,NA,form submission,5321.7999999523,421752.5,421749.4,421766,427087.79999995,427088.39999998,2024-05-28T15:06:27Z,427103.4,Annäherung,maegesho,s,madahili,kujiamini,mapendekezo,maegesho,NA,NA,"c(""distractor1"", ""distractor2"", ""distractor3"")",NA,NA,NA,NA,NA,NA,NA,NA,NA,NA,NA,NA,NA,NA,NA,NA,NA,NA,NA
8af27,Save data screen,canvas.Screen,2_5_0_1,NA,NA,timeout,491.39999999997,427091.79999995,427090.978,427103.4,427578.3,427579.39999998,2024-05-28T15:06:27Z,427594.8,Annäherung,maegesho,s,madahili,kujiamini,mapendekezo,NA,NA,1,"c(""distractor1"", ""distractor2"", ""distractor3"")",NA,NA,NA,NA,NA,NA,NA,NA,NA,NA,NA,NA,NA,NA,NA,NA,NA,NA,NA
8af27,shallow,flow.Sequence,2_5_0,NA,NA,completion,5812.3,421752.5,421749.4,421766,427578.3,427579.5,2024-05-28T15:06:27Z,427594.8,Annäherung,maegesho,s,madahili,kujiamini,mapendekezo,NA,NA,NA,"c(""distractor1"", ""distractor2"", ""distractor3"")",NA,NA,NA,NA,NA,NA,NA,NA,NA,NA,NA,NA,NA,NA,NA,NA,NA,NA,NA
8af27,task,flow.Sequence,2_5,NA,NA,completion,5812.3,421752.5,421749.4,421766,427578.3,427579.59999996,2024-05-28T15:06:27Z,427594.8,Annäherung,maegesho,s,madahili,kujiamini,mapendekezo,NA,NA,NA,"c(""distractor1"", ""distractor2"", ""distractor3"")",NA,NA,NA,NA,NA,NA,NA,NA,NA,NA,NA,NA,NA,NA,NA,NA,NA,NA,NA
8af27,Shallow Question,html.Page,2_6_0_0,NA,NA,form submission,11791.599999976,427579.69999999,427578.3,427594.8,439386.39999998,439386.89999998,2024-05-28T15:06:39Z,439402.4,Zuwachs,nyongeza,s,matilaba,udhibiti,hudhurio,udhibiti,NA,NA,"c(""distractor1"", ""distractor2"", ""distractor3"")",NA,NA,NA,NA,NA,NA,NA,NA,NA,NA,NA,NA,NA,NA,NA,NA,NA,NA,NA
8af27,Save data screen,canvas.Screen,2_6_0_1,NA,NA,timeout,505.79999999999,439390.69999999,439389.146,439402.4,439891.2,439891.89999998,2024-05-28T15:06:39Z,439908.2,Zuwachs,nyongeza,s,matilaba,udhibiti,hudhurio,NA,NA,0,"c(""distractor1"", ""distractor2"", ""distractor3"")",NA,NA,NA,NA,NA,NA,NA,NA,NA,NA,NA,NA,NA,NA,NA,NA,NA,NA,NA
8af27,shallow,flow.Sequence,2_6_0,NA,NA,completion,12296.4,427579.69999999,427578.3,427594.8,439891.2,439892.09999996,2024-05-28T15:06:39Z,439908.2,Zuwachs,nyongeza,s,matilaba,udhibiti,hudhurio,NA,NA,NA,"c(""distractor1"", ""distractor2"", ""distractor3"")",NA,NA,NA,NA,NA,NA,NA,NA,NA,NA,NA,NA,NA,NA,NA,NA,NA,NA,NA
8af27,task,flow.Sequence,2_6,NA,NA,completion,12296.4,427579.69999999,427578.3,427594.8,439891.2,439892.39999998,2024-05-28T15:06:39Z,439908.2,Zuwachs,nyongeza,s,matilaba,udhibiti,hudhurio,NA,NA,NA,"c(""distractor1"", ""distractor2"", ""distractor3"")",NA,NA,NA,NA,NA,NA,NA,NA,NA,NA,NA,NA,NA,NA,NA,NA,NA,NA,NA
8af27,Shallow Question,html.Page,2_7_0_0,NA,NA,form submission,12165.399999964,439892.5,439891.2,439908.2,452073.59999996,452074,2024-05-28T15:06:51Z,452088.9,Gelegenheit,wakati,d,mchanganyiko,kipaumbele,kushuku,wakati,NA,NA,"c(""distractor1"", ""distractor2"", ""distractor3"")",NA,NA,NA,NA,NA,NA,NA,NA,NA,NA,NA,NA,NA,NA,NA,NA,NA,NA,NA
8af27,Save data screen,canvas.Screen,2_7_0_1,NA,NA,timeout,502.29999999999,452078.19999999,452072.05,452088.9,452574.5,452575.59999996,2024-05-28T15:06:52Z,452591.2,Gelegenheit,wakati,d,mchanganyiko,kipaumbele,kushuku,NA,NA,1,"c(""distractor1"", ""distractor2"", ""distractor3"")",NA,NA,NA,NA,NA,NA,NA,NA,NA,NA,NA,NA,NA,NA,NA,NA,NA,NA,NA
8af27,shallow,flow.Sequence,2_7_0,NA,NA,completion,12666.3,439892.5,439891.2,439908.2,452574.5,452576,2024-05-28T15:06:52Z,452591.2,Gelegenheit,wakati,d,mchanganyiko,kipaumbele,kushuku,NA,NA,NA,"c(""distractor1"", ""distractor2"", ""distractor3"")",NA,NA,NA,NA,NA,NA,NA,NA,NA,NA,NA,NA,NA,NA,NA,NA,NA,NA,NA
8af27,task,flow.Sequence,2_7,NA,NA,completion,12666.3,439892.5,439891.2,439908.2,452574.5,452576.09999996,2024-05-28T15:06:52Z,452591.2,Gelegenheit,wakati,d,mchanganyiko,kipaumbele,kushuku,NA,NA,NA,"c(""distractor1"", ""distractor2"", ""distractor3"")",NA,NA,NA,NA,NA,NA,NA,NA,NA,NA,NA,NA,NA,NA,NA,NA,NA,NA,NA
8af27,Shallow Question,html.Page,2_8_0_0,NA,NA,form submission,10729.099999952,452576.29999995,452574.5,452591.2,463320.29999995,463320.69999999,2024-05-28T15:07:03Z,463336.7,Verstand,ufahamivu,s,shakawa,hadhari,mhandisi,mhandisi,NA,NA,"c(""distractor1"", ""distractor2"", ""distractor3"")",NA,NA,NA,NA,NA,NA,NA,NA,NA,NA,NA,NA,NA,NA,NA,NA,NA,NA,NA
8af27,Save data screen,canvas.Screen,2_8_0_1,NA,NA,timeout,499.89999999997,463324,463317.3,463336.7,463820,463821.89999998,2024-05-28T15:07:03Z,463836.6,Verstand,ufahamivu,s,shakawa,hadhari,mhandisi,NA,NA,0,"c(""distractor1"", ""distractor2"", ""distractor3"")",NA,NA,NA,NA,NA,NA,NA,NA,NA,NA,NA,NA,NA,NA,NA,NA,NA,NA,NA
8af27,shallow,flow.Sequence,2_8_0,NA,NA,completion,11228.8,452576.19999999,452574.5,452591.2,463820,463822.5,2024-05-28T15:07:03Z,463836.6,Verstand,ufahamivu,s,shakawa,hadhari,mhandisi,NA,NA,NA,"c(""distractor1"", ""distractor2"", ""distractor3"")",NA,NA,NA,NA,NA,NA,NA,NA,NA,NA,NA,NA,NA,NA,NA,NA,NA,NA,NA
8af27,task,flow.Sequence,2_8,NA,NA,completion,11228.8,452576.19999999,452574.5,452591.2,463820,463822.79999995,2024-05-28T15:07:03Z,463836.6,Verstand,ufahamivu,s,shakawa,hadhari,mhandisi,NA,NA,NA,"c(""distractor1"", ""distractor2"", ""distractor3"")",NA,NA,NA,NA,NA,NA,NA,NA,NA,NA,NA,NA,NA,NA,NA,NA,NA,NA,NA
8af27,Shallow Question,html.Page,2_9_0_0,NA,NA,form submission,8729.5999999881,463823,463820,463836.6,472566.19999999,472566.59999996,2024-05-28T15:07:12Z,472581.8,Vorsorge,tahadhari,d,ufafanuzi,makini,mashambani,tahadhari,NA,NA,"c(""distractor1"", ""distractor2"", ""distractor3"")",NA,NA,NA,NA,NA,NA,NA,NA,NA,NA,NA,NA,NA,NA,NA,NA,NA,NA,NA
8af27,Save data screen,canvas.Screen,2_9_0_1,NA,NA,timeout,507.90000000002,472569.89999998,472556.4,472581.8,473073.1,473075.09999996,2024-05-28T15:07:12Z,473089.7,Vorsorge,tahadhari,d,ufafanuzi,makini,mashambani,NA,NA,1,"c(""distractor1"", ""distractor2"", ""distractor3"")",NA,NA,NA,NA,NA,NA,NA,NA,NA,NA,NA,NA,NA,NA,NA,NA,NA,NA,NA
8af27,shallow,flow.Sequence,2_9_0,NA,NA,completion,9236.5,463822.89999998,463820,463836.6,473073.1,473075.5,2024-05-28T15:07:12Z,473089.7,Vorsorge,tahadhari,d,ufafanuzi,makini,mashambani,NA,NA,NA,"c(""distractor1"", ""distractor2"", ""distractor3"")",NA,NA,NA,NA,NA,NA,NA,NA,NA,NA,NA,NA,NA,NA,NA,NA,NA,NA,NA
8af27,task,flow.Sequence,2_9,NA,NA,completion,9236.5,463822.89999998,463820,463836.6,473073.1,473075.79999995,2024-05-28T15:07:12Z,473089.7,Vorsorge,tahadhari,d,ufafanuzi,makini,mashambani,NA,NA,NA,"c(""distractor1"", ""distractor2"", ""distractor3"")",NA,NA,NA,NA,NA,NA,NA,NA,NA,NA,NA,NA,NA,NA,NA,NA,NA,NA,NA
8af27,Shallow Question,html.Page,2_10_0_0,NA,NA,form submission,17530.499999988,473076.09999996,473073.1,473089.7,490620.19999999,490620.5,2024-05-28T15:07:30Z,490635.8,Wettbewerb,ushindani,d,mapendezi,kichocheo,ubaguzi,ushindani,NA,NA,"c(""distractor1"", ""distractor2"", ""distractor3"")",NA,NA,NA,NA,NA,NA,NA,NA,NA,NA,NA,NA,NA,NA,NA,NA,NA,NA,NA
8af27,Save data screen,canvas.Screen,2_10_0_1,NA,NA,timeout,506,490623.39999998,490618.578,490635.8,491125.3,491127,2024-05-28T15:07:31Z,491141.8,Wettbewerb,ushindani,d,mapendezi,kichocheo,ubaguzi,NA,NA,1,"c(""distractor1"", ""distractor2"", ""distractor3"")",NA,NA,NA,NA,NA,NA,NA,NA,NA,NA,NA,NA,NA,NA,NA,NA,NA,NA,NA
8af27,shallow,flow.Sequence,2_10_0,NA,NA,completion,18035.6,473076,473073.1,473089.7,491125.3,491127.5,2024-05-28T15:07:31Z,491141.8,Wettbewerb,ushindani,d,mapendezi,kichocheo,ubaguzi,NA,NA,NA,"c(""distractor1"", ""distractor2"", ""distractor3"")",NA,NA,NA,NA,NA,NA,NA,NA,NA,NA,NA,NA,NA,NA,NA,NA,NA,NA,NA
8af27,task,flow.Sequence,2_10,NA,NA,completion,18035.6,473076,473073.1,473089.7,491125.3,491127.79999995,2024-05-28T15:07:31Z,491141.8,Wettbewerb,ushindani,d,mapendezi,kichocheo,ubaguzi,NA,NA,NA,"c(""distractor1"", ""distractor2"", ""distractor3"")",NA,NA,NA,NA,NA,NA,NA,NA,NA,NA,NA,NA,NA,NA,NA,NA,NA,NA,NA
8af27,Shallow Question,html.Page,2_11_0_0,NA,NA,form submission,9001.8999999881,491128,491125.3,491141.8,500143.69999999,500144,2024-05-28T15:07:40Z,500159.4,Widerstand,usulubu,s,kusababisha,mwalimu,mwenendo,kusababisha,NA,NA,"c(""distractor1"", ""distractor2"", ""distractor3"")",NA,NA,NA,NA,NA,NA,NA,NA,NA,NA,NA,NA,NA,NA,NA,NA,NA,NA,NA
8af27,Save data screen,canvas.Screen,2_11_0_1,NA,NA,timeout,500.29999999999,500146.69999999,500138.4,500159.4,500643.3,500645.09999996,2024-05-28T15:07:40Z,500659.7,Widerstand,usulubu,s,kusababisha,mwalimu,mwenendo,NA,NA,0,"c(""distractor1"", ""distractor2"", ""distractor3"")",NA,NA,NA,NA,NA,NA,NA,NA,NA,NA,NA,NA,NA,NA,NA,NA,NA,NA,NA
8af27,shallow,flow.Sequence,2_11_0,NA,NA,completion,9501.5,491128,491125.3,491141.8,500643.3,500645.59999996,2024-05-28T15:07:40Z,500659.7,Widerstand,usulubu,s,kusababisha,mwalimu,mwenendo,NA,NA,NA,"c(""distractor1"", ""distractor2"", ""distractor3"")",NA,NA,NA,NA,NA,NA,NA,NA,NA,NA,NA,NA,NA,NA,NA,NA,NA,NA,NA
8af27,task,flow.Sequence,2_11,NA,NA,completion,9501.5,491128,491125.3,491141.8,500643.3,500646,2024-05-28T15:07:40Z,500659.7,Widerstand,usulubu,s,kusababisha,mwalimu,mwenendo,NA,NA,NA,"c(""distractor1"", ""distractor2"", ""distractor3"")",NA,NA,NA,NA,NA,NA,NA,NA,NA,NA,NA,NA,NA,NA,NA,NA,NA,NA,NA
8af27,Shallow Question,html.Page,2_12_0_0,NA,NA,form submission,14862.499999988,500646.19999999,500643.3,500659.7,515522.19999999,515522.59999996,2024-05-28T15:07:55Z,515538.2,Polizist,msongora,d,simanzi,mandhari,nidhamu,msongora,NA,NA,"c(""distractor1"", ""distractor2"", ""distractor3"")",NA,NA,NA,NA,NA,NA,NA,NA,NA,NA,NA,NA,NA,NA,NA,NA,NA,NA,NA
8af27,Save data screen,canvas.Screen,2_12_0_1,NA,NA,timeout,497.09999999998,515525.59999996,515511.4,515538.2,516018.7,516020.29999995,2024-05-28T15:07:55Z,516035.3,Polizist,msongora,d,simanzi,mandhari,nidhamu,NA,NA,1,"c(""distractor1"", ""distractor2"", ""distractor3"")",NA,NA,NA,NA,NA,NA,NA,NA,NA,NA,NA,NA,NA,NA,NA,NA,NA,NA,NA
8af27,shallow,flow.Sequence,2_12_0,NA,NA,completion,15359,500646.09999996,500643.3,500659.7,516018.7,516021.09999996,2024-05-28T15:07:55Z,516035.3,Polizist,msongora,d,simanzi,mandhari,nidhamu,NA,NA,NA,"c(""distractor1"", ""distractor2"", ""distractor3"")",NA,NA,NA,NA,NA,NA,NA,NA,NA,NA,NA,NA,NA,NA,NA,NA,NA,NA,NA
8af27,task,flow.Sequence,2_12,NA,NA,completion,15359,500646,500643.3,500659.7,516018.7,516021.39999998,2024-05-28T15:07:55Z,516035.3,Polizist,msongora,d,simanzi,mandhari,nidhamu,NA,NA,NA,"c(""distractor1"", ""distractor2"", ""distractor3"")",NA,NA,NA,NA,NA,NA,NA,NA,NA,NA,NA,NA,NA,NA,NA,NA,NA,NA,NA
8af27,Shallow Question,html.Page,2_13_0_0,NA,NA,form submission,6646.2,516021.69999999,516018.7,516035.3,522681.5,522682,2024-05-28T15:08:02Z,522696.7,Ausschluss,kutengwa,d,ununuzi,taratibu,madeni,ununuzi,NA,NA,"c(""distractor1"", ""distractor2"", ""distractor3"")",NA,NA,NA,NA,NA,NA,NA,NA,NA,NA,NA,NA,NA,NA,NA,NA,NA,NA,NA
8af27,Save data screen,canvas.Screen,2_13_0_1,NA,NA,timeout,503.59999999998,522685.69999999,522680.482,522696.7,523183.6,523184.39999998,2024-05-28T15:08:03Z,523200.3,Ausschluss,kutengwa,d,ununuzi,taratibu,madeni,NA,NA,0,"c(""distractor1"", ""distractor2"", ""distractor3"")",NA,NA,NA,NA,NA,NA,NA,NA,NA,NA,NA,NA,NA,NA,NA,NA,NA,NA,NA
8af27,shallow,flow.Sequence,2_13_0,NA,NA,completion,7148.3,516021.59999996,516018.7,516035.3,523183.6,523184.5,2024-05-28T15:08:03Z,523200.3,Ausschluss,kutengwa,d,ununuzi,taratibu,madeni,NA,NA,NA,"c(""distractor1"", ""distractor2"", ""distractor3"")",NA,NA,NA,NA,NA,NA,NA,NA,NA,NA,NA,NA,NA,NA,NA,NA,NA,NA,NA
8af27,task,flow.Sequence,2_13,NA,NA,completion,7148.3,516021.59999996,516018.7,516035.3,523183.6,523184.5,2024-05-28T15:08:03Z,523200.3,Ausschluss,kutengwa,d,ununuzi,taratibu,madeni,NA,NA,NA,"c(""distractor1"", ""distractor2"", ""distractor3"")",NA,NA,NA,NA,NA,NA,NA,NA,NA,NA,NA,NA,NA,NA,NA,NA,NA,NA,NA
8af27,Shallow Question,html.Page,2_14_0_0,NA,NA,form submission,8978.7,523184.69999999,523183.6,523200.3,532179,532179.39999998,2024-05-28T15:08:12Z,532194.6,Symbol,kielezo,s,kinyume,nderemo,utayari,kielezo,NA,NA,"c(""distractor1"", ""distractor2"", ""distractor3"")",NA,NA,NA,NA,NA,NA,NA,NA,NA,NA,NA,NA,NA,NA,NA,NA,NA,NA,NA
8af27,Save data screen,canvas.Screen,2_14_0_1,NA,NA,timeout,492.90000000002,532182.29999995,532180.842,532194.6,532671.2,532673.29999995,2024-05-28T15:08:12Z,532687.5,Symbol,kielezo,s,kinyume,nderemo,utayari,NA,NA,1,"c(""distractor1"", ""distractor2"", ""distractor3"")",NA,NA,NA,NA,NA,NA,NA,NA,NA,NA,NA,NA,NA,NA,NA,NA,NA,NA,NA
8af27,shallow,flow.Sequence,2_14_0,NA,NA,completion,9470.9,523184.69999999,523183.6,523200.3,532671.2,532673.79999995,2024-05-28T15:08:12Z,532687.5,Symbol,kielezo,s,kinyume,nderemo,utayari,NA,NA,NA,"c(""distractor1"", ""distractor2"", ""distractor3"")",NA,NA,NA,NA,NA,NA,NA,NA,NA,NA,NA,NA,NA,NA,NA,NA,NA,NA,NA
8af27,task,flow.Sequence,2_14,NA,NA,completion,9470.9,523184.69999999,523183.6,523200.3,532671.2,532674.09999996,2024-05-28T15:08:12Z,532687.5,Symbol,kielezo,s,kinyume,nderemo,utayari,NA,NA,NA,"c(""distractor1"", ""distractor2"", ""distractor3"")",NA,NA,NA,NA,NA,NA,NA,NA,NA,NA,NA,NA,NA,NA,NA,NA,NA,NA,NA
8af27,Shallow Question,html.Page,2_15_0_0,NA,NA,form submission,19313,532674.39999998,532671.2,532687.5,552000.5,552001.39999998,2024-05-28T15:08:31Z,552015.8,Beweis,ushahidi,d,marudio,kizuizi,mtendaji,kizuizi,NA,NA,"c(""distractor1"", ""distractor2"", ""distractor3"")",NA,NA,NA,NA,NA,NA,NA,NA,NA,NA,NA,NA,NA,NA,NA,NA,NA,NA,NA
8af27,Save data screen,canvas.Screen,2_15_0_1,NA,NA,timeout,504.39999999991,552005.79999995,551992.5,552015.8,552503.6,552504.39999998,2024-05-28T15:08:32Z,552520.2,Beweis,ushahidi,d,marudio,kizuizi,mtendaji,NA,NA,0,"c(""distractor1"", ""distractor2"", ""distractor3"")",NA,NA,NA,NA,NA,NA,NA,NA,NA,NA,NA,NA,NA,NA,NA,NA,NA,NA,NA
8af27,shallow,flow.Sequence,2_15_0,NA,NA,completion,19816.1,532674.29999995,532671.2,532687.5,552503.6,552504.5,2024-05-28T15:08:32Z,552520.2,Beweis,ushahidi,d,marudio,kizuizi,mtendaji,NA,NA,NA,"c(""distractor1"", ""distractor2"", ""distractor3"")",NA,NA,NA,NA,NA,NA,NA,NA,NA,NA,NA,NA,NA,NA,NA,NA,NA,NA,NA
8af27,task,flow.Sequence,2_15,NA,NA,completion,19816.1,532674.19999999006,532671.2,532687.5,552503.6,552504.59999996,2024-05-28T15:08:32Z,552520.2,Beweis,ushahidi,d,marudio,kizuizi,mtendaji,NA,NA,NA,"c(""distractor1"", ""distractor2"", ""distractor3"")",NA,NA,NA,NA,NA,NA,NA,NA,NA,NA,NA,NA,NA,NA,NA,NA,NA,NA,NA
8af27,retrieval block 2 (multiple choice),flow.Loop,2,NA,NA,completion,194181.9,358309.19999999,358305.3,358321.7,552503.6,552504.69999999006,2024-05-28T15:08:32Z,552520.2,NA,NA,NA,NA,NA,NA,NA,NA,NA,"c(""distractor1"", ""distractor2"", ""distractor3"")",NA,NA,NA,NA,NA,NA,NA,NA,NA,NA,NA,NA,NA,NA,NA,NA,NA,NA,NA
8af27,End,canvas.Screen,3,NA,keypress(Space),response,40832.099999952,552504.79999995,552503.6,552520.2,593352.29999995,593356.69999999006,2024-05-28T15:09:13Z,593374.5,NA,NA,NA,NA,NA,NA,NA,NA,NA,NULL,NA,NA,NA,NA,NA,NA,NA,NA,NA,NA,NA,NA,NA,NA,NA,NA,NA,NA,NA
8af27,root,flow.Sequence,NA,NA,NA,completion,592671.49999995,671.19999998808,664.292,680.8,593352.29999995,593357.29999995,2024-05-28T15:09:13Z,593374.5,NA,NA,NA,NA,NA,NA,NA,NA,NA,NULL,NA,NA,NA,NA,NA,NA,NA,NA,NA,NA,NA,NA,NA,NA,NA,NA,NA,NA,NA
