observation,sender,sender_type,sender_id,response,response_action,ended_on,duration,time_run,time_render,time_show,time_end,time_commit,timestamp,time_switch,distractors,german,swahili,enc,distractor1,distractor2,distractor3,response_2,x,correct,x_2,url_vp,url_sess,meta_labjs_version,meta_location,meta_user_agent,meta_platform,meta_language,meta_locale,meta_time_zone,meta_timezone_offset,meta_screen_width,meta_screen_height,meta_scroll_width,meta_scroll_height,meta_window_inner_width,meta_window_inner_height,meta_device_pixel_ratio,meta_labjs_build_flavor,meta_labjs_build_commit
6a69c,Introduction general,canvas.Screen,0,weiter,keypress(q),response,9182.9999999762,489.10000002384,489.7,522.9,9705.8999999762,9708.6999999881,2024-06-15T10:27:34Z,9717.6,NULL,NA,NA,NA,NA,NA,NA,NA,NA,NA,NA,199,3,20.2.4,https://neurocog.fernuni.ch/studies/vweber/aberisha/encoding_immediate/index.html?vp=199&sess=3,"Mozilla/5.0 (Windows NT 10.0; Win64; x64) AppleWebKit/537.36 (KHTML, like Gecko) Chrome/125.0.0.0 Safari/537.36",Win32,de-DE,de,Europe/Zurich,-120,1536,864,1536,682,1536,730,1.25,production,f5b4a49f956347addd546a832a3327688c2c0fef
6a69c,Introduction practice,canvas.Screen,1_0,NA,keypress(Space),response,2538.4,9709.1999999881,9704.626,9717.6,12256,12256.800000012,2024-06-15T10:27:37Z,12265.8,NULL,NA,NA,NA,NA,NA,NA,NA,NA,NA,NA,NA,NA,NA,NA,NA,NA,NA,NA,NA,NA,NA,NA,NA,NA,NA,NA,NA,NA,NA
6a69c,deep,flow.Sequence,1_1_0_0,NA,NA,skipped,NA,12257.300000012,NA,NA,12256,12257.600000024,2024-06-15T10:27:37Z,12265.8,"c(""distractor1"", ""distractor2"", ""distractor3"")",Rückhalt,msaada,s,muhula,auwali,kiwimbe,NA,NA,NA,NA,NA,NA,NA,NA,NA,NA,NA,NA,NA,NA,NA,NA,NA,NA,NA,NA,NA,NA,NA
6a69c,Shallow Question,html.Page,1_1_0_1_0,NA,NA,form submission,29684.800000024,12257.899999976,12250.832,12265.8,41950.600000024,41950.899999976,2024-06-15T10:28:06Z,41964.3,"c(""distractor1"", ""distractor2"", ""distractor3"")",Rückhalt,msaada,s,muhula,auwali,kiwimbe,muhula,NA,NA,NA,NA,NA,NA,NA,NA,NA,NA,NA,NA,NA,NA,NA,NA,NA,NA,NA,NA,NA,NA
6a69c,"""Richtig""-Screen",canvas.Screen,1_1_0_1_1,NA,NA,skipped,NA,41952.699999988,NA,NA,41950.600000024,41952.800000012,2024-06-15T10:28:06Z,41964.3,"c(""distractor1"", ""distractor2"", ""distractor3"")",Rückhalt,msaada,s,muhula,auwali,kiwimbe,NA,NA,NA,NA,NA,NA,NA,NA,NA,NA,NA,NA,NA,NA,NA,NA,NA,NA,NA,NA,NA,NA,NA
6a69c,"""Falsch""-Screen",canvas.Screen,1_1_0_1_2,NA,NA,timeout,4997.6,41953.600000024,41948.13,41964.3,46944.7,46946.600000024,2024-06-15T10:28:11Z,46961.9,"c(""distractor1"", ""distractor2"", ""distractor3"")",Rückhalt,msaada,s,muhula,auwali,kiwimbe,NA,NA,0,NA,NA,NA,NA,NA,NA,NA,NA,NA,NA,NA,NA,NA,NA,NA,NA,NA,NA,NA,NA
6a69c,shallow,flow.Sequence,1_1_0_1,NA,NA,completion,34678.9,12257.800000012,12250.832,12265.8,46944.7,46947,2024-06-15T10:28:11Z,46961.9,"c(""distractor1"", ""distractor2"", ""distractor3"")",Rückhalt,msaada,s,muhula,auwali,kiwimbe,NA,NA,NA,NA,NA,NA,NA,NA,NA,NA,NA,NA,NA,NA,NA,NA,NA,NA,NA,NA,NA,NA,NA
6a69c,task,flow.Sequence,1_1_0,NA,NA,completion,34678.9,12257.199999988,12250.832,12265.8,46944.7,46947.300000012,2024-06-15T10:28:11Z,46961.9,"c(""distractor1"", ""distractor2"", ""distractor3"")",Rückhalt,msaada,s,muhula,auwali,kiwimbe,NA,NA,NA,NA,NA,NA,NA,NA,NA,NA,NA,NA,NA,NA,NA,NA,NA,NA,NA,NA,NA,NA,NA
6a69c,deep,flow.Sequence,1_1_1_0,NA,NA,skipped,NA,46947.600000024,NA,NA,46944.7,46947.800000012,2024-06-15T10:28:11Z,46961.9,"c(""distractor1"", ""distractor2"", ""distractor3"")",Kritik,lawama,s,dereva,nafasi,mawazo,NA,NA,NA,NA,NA,NA,NA,NA,NA,NA,NA,NA,NA,NA,NA,NA,NA,NA,NA,NA,NA,NA,NA
6a69c,Shallow Question,html.Page,1_1_1_1_0,NA,NA,form submission,11551.499999976,46948.100000024,46944.7,46961.9,58513.399999976,58513.600000024,2024-06-15T10:28:23Z,58520.9,"c(""distractor1"", ""distractor2"", ""distractor3"")",Kritik,lawama,s,dereva,nafasi,mawazo,nafasi,NA,NA,NA,NA,NA,NA,NA,NA,NA,NA,NA,NA,NA,NA,NA,NA,NA,NA,NA,NA,NA,NA
6a69c,"""Richtig""-Screen",canvas.Screen,1_1_1_1_1,NA,NA,skipped,NA,58514.899999976,NA,NA,58513.399999976,58515.100000024,2024-06-15T10:28:23Z,58520.9,"c(""distractor1"", ""distractor2"", ""distractor3"")",Kritik,lawama,s,dereva,nafasi,mawazo,NA,NA,NA,NA,NA,NA,NA,NA,NA,NA,NA,NA,NA,NA,NA,NA,NA,NA,NA,NA,NA,NA,NA
6a69c,"""Falsch""-Screen",canvas.Screen,1_1_1_1_2,NA,NA,timeout,4997.5,58516.199999988,58505.04,58520.9,63501.7,63502.800000012,2024-06-15T10:28:28Z,63518.4,"c(""distractor1"", ""distractor2"", ""distractor3"")",Kritik,lawama,s,dereva,nafasi,mawazo,NA,NA,0,NA,NA,NA,NA,NA,NA,NA,NA,NA,NA,NA,NA,NA,NA,NA,NA,NA,NA,NA,NA
6a69c,shallow,flow.Sequence,1_1_1_1,NA,NA,completion,16539.8,46948.100000024,46944.7,46961.9,63501.7,63503.300000012,2024-06-15T10:28:28Z,63518.4,"c(""distractor1"", ""distractor2"", ""distractor3"")",Kritik,lawama,s,dereva,nafasi,mawazo,NA,NA,NA,NA,NA,NA,NA,NA,NA,NA,NA,NA,NA,NA,NA,NA,NA,NA,NA,NA,NA,NA,NA
6a69c,task,flow.Sequence,1_1_1,NA,NA,completion,16539.8,46947.600000024,46944.7,46961.9,63501.7,63503.5,2024-06-15T10:28:28Z,63518.4,"c(""distractor1"", ""distractor2"", ""distractor3"")",Kritik,lawama,s,dereva,nafasi,mawazo,NA,NA,NA,NA,NA,NA,NA,NA,NA,NA,NA,NA,NA,NA,NA,NA,NA,NA,NA,NA,NA,NA,NA
6a69c,Deep Question,html.Page,1_1_2_0_0,NA,NA,form submission,6877.4999999762,63503.800000012,63501.7,63518.4,70395.899999976,70396,2024-06-15T10:28:35Z,70398.124,"c(""distractor1"", ""distractor2"", ""distractor3"")",Schatten,kivuli,d,NA,NA,NA,schatten,NA,NA,NA,NA,NA,NA,NA,NA,NA,NA,NA,NA,NA,NA,NA,NA,NA,NA,NA,NA,NA,NA
6a69c,"""Richtig""-Screen",canvas.Screen,1_1_2_0_1,NA,NA,skipped,NA,70399.399999976,NA,NA,70395.899999976,70399.600000024,2024-06-15T10:28:35Z,70398.124,"c(""distractor1"", ""distractor2"", ""distractor3"")",Schatten,kivuli,d,NA,NA,NA,NA,NA,NA,NA,NA,NA,NA,NA,NA,NA,NA,NA,NA,NA,NA,NA,NA,NA,NA,NA,NA,NA,NA
6a69c,"""Falsch""-Screen",canvas.Screen,1_1_2_0_2,NA,NA,timeout,4996.076,70400.699999988,70398.124,70398.124,75377.4,75378.300000012,2024-06-15T10:28:40Z,75394.2,"c(""distractor1"", ""distractor2"", ""distractor3"")",Schatten,kivuli,d,NA,NA,NA,NA,NA,0,NA,NA,NA,NA,NA,NA,NA,NA,NA,NA,NA,NA,NA,NA,NA,NA,NA,NA,NA,NA
6a69c,deep,flow.Sequence,1_1_2_0,NA,NA,completion,11859,63503.699999988,63501.7,63518.4,75377.4,75378.699999988,2024-06-15T10:28:40Z,75394.2,"c(""distractor1"", ""distractor2"", ""distractor3"")",Schatten,kivuli,d,NA,NA,NA,NA,NA,NA,NA,NA,NA,NA,NA,NA,NA,NA,NA,NA,NA,NA,NA,NA,NA,NA,NA,NA,NA,NA
6a69c,shallow,flow.Sequence,1_1_2_1,NA,NA,skipped,NA,75378.899999976,NA,NA,75377.4,75379.100000024,2024-06-15T10:28:40Z,75394.2,"c(""distractor1"", ""distractor2"", ""distractor3"")",Schatten,kivuli,d,NA,NA,NA,NA,NA,NA,NA,NA,NA,NA,NA,NA,NA,NA,NA,NA,NA,NA,NA,NA,NA,NA,NA,NA,NA,NA
6a69c,task,flow.Sequence,1_1_2,NA,NA,completion,11859,63503.699999988,63501.7,63518.4,75377.4,75379.399999976,2024-06-15T10:28:40Z,75394.2,"c(""distractor1"", ""distractor2"", ""distractor3"")",Schatten,kivuli,d,NA,NA,NA,NA,NA,NA,NA,NA,NA,NA,NA,NA,NA,NA,NA,NA,NA,NA,NA,NA,NA,NA,NA,NA,NA,NA
6a69c,Deep Question,html.Page,1_1_3_0_0,NA,NA,form submission,5291.3,75379.600000024,75377.4,75394.2,80685.5,80685.699999988,2024-06-15T10:28:45Z,80692.508,"c(""distractor1"", ""distractor2"", ""distractor3"")",Gesundheit,salama,d,NA,NA,NA,gesundheit,NA,NA,NA,NA,NA,NA,NA,NA,NA,NA,NA,NA,NA,NA,NA,NA,NA,NA,NA,NA,NA,NA
6a69c,"""Richtig""-Screen",canvas.Screen,1_1_3_0_1,NA,NA,skipped,NA,80688.899999976,NA,NA,80685.5,80689,2024-06-15T10:28:45Z,80692.508,"c(""distractor1"", ""distractor2"", ""distractor3"")",Gesundheit,salama,d,NA,NA,NA,NA,NA,NA,NA,NA,NA,NA,NA,NA,NA,NA,NA,NA,NA,NA,NA,NA,NA,NA,NA,NA,NA,NA
6a69c,"""Falsch""-Screen",canvas.Screen,1_1_3_0_2,NA,NA,timeout,4995.592,80690,80692.508,80692.508,85671.4,85672.5,2024-06-15T10:28:50Z,85688.1,"c(""distractor1"", ""distractor2"", ""distractor3"")",Gesundheit,salama,d,NA,NA,NA,NA,NA,0,NA,NA,NA,NA,NA,NA,NA,NA,NA,NA,NA,NA,NA,NA,NA,NA,NA,NA,NA,NA
6a69c,deep,flow.Sequence,1_1_3_0,NA,NA,completion,10277.2,75379.600000024,75377.4,75394.2,85671.4,85673,2024-06-15T10:28:50Z,85688.1,"c(""distractor1"", ""distractor2"", ""distractor3"")",Gesundheit,salama,d,NA,NA,NA,NA,NA,NA,NA,NA,NA,NA,NA,NA,NA,NA,NA,NA,NA,NA,NA,NA,NA,NA,NA,NA,NA,NA
6a69c,shallow,flow.Sequence,1_1_3_1,NA,NA,skipped,NA,85673.199999988,NA,NA,85671.4,85673.300000012,2024-06-15T10:28:50Z,85688.1,"c(""distractor1"", ""distractor2"", ""distractor3"")",Gesundheit,salama,d,NA,NA,NA,NA,NA,NA,NA,NA,NA,NA,NA,NA,NA,NA,NA,NA,NA,NA,NA,NA,NA,NA,NA,NA,NA,NA
6a69c,task,flow.Sequence,1_1_3,NA,NA,completion,10277.2,75379.5,75377.4,75394.2,85671.4,85673.600000024,2024-06-15T10:28:50Z,85688.1,"c(""distractor1"", ""distractor2"", ""distractor3"")",Gesundheit,salama,d,NA,NA,NA,NA,NA,NA,NA,NA,NA,NA,NA,NA,NA,NA,NA,NA,NA,NA,NA,NA,NA,NA,NA,NA,NA,NA
6a69c,deep,flow.Sequence,1_1_4_0,NA,NA,skipped,NA,85673.800000012,NA,NA,85671.4,85673.899999976,2024-06-15T10:28:50Z,85688.1,"c(""distractor1"", ""distractor2"", ""distractor3"")",Gegenwart,hadhara,s,katiba,jokofu,mikopo,NA,NA,NA,NA,NA,NA,NA,NA,NA,NA,NA,NA,NA,NA,NA,NA,NA,NA,NA,NA,NA,NA,NA
6a69c,Shallow Question,html.Page,1_1_4_1_0,NA,NA,form submission,5878.0000000238,85674.100000024,85671.4,85688.1,91566.100000024,91566.300000012,2024-06-15T10:28:56Z,91584.2,"c(""distractor1"", ""distractor2"", ""distractor3"")",Gegenwart,hadhara,s,katiba,jokofu,mikopo,mikopo,NA,NA,NA,NA,NA,NA,NA,NA,NA,NA,NA,NA,NA,NA,NA,NA,NA,NA,NA,NA,NA,NA
6a69c,"""Richtig""-Screen",canvas.Screen,1_1_4_1_1,NA,NA,skipped,NA,91569.5,NA,NA,91566.100000024,91569.600000024,2024-06-15T10:28:56Z,91584.2,"c(""distractor1"", ""distractor2"", ""distractor3"")",Gegenwart,hadhara,s,katiba,jokofu,mikopo,NA,NA,NA,NA,NA,NA,NA,NA,NA,NA,NA,NA,NA,NA,NA,NA,NA,NA,NA,NA,NA,NA,NA
6a69c,"""Falsch""-Screen",canvas.Screen,1_1_4_1_2,NA,NA,timeout,4996.9,91570.5,91567.96,91584.2,96564.3,96566.800000012,2024-06-15T10:29:01Z,96581.1,"c(""distractor1"", ""distractor2"", ""distractor3"")",Gegenwart,hadhara,s,katiba,jokofu,mikopo,NA,NA,0,NA,NA,NA,NA,NA,NA,NA,NA,NA,NA,NA,NA,NA,NA,NA,NA,NA,NA,NA,NA
6a69c,shallow,flow.Sequence,1_1_4_1,NA,NA,completion,10876.2,85674,85671.4,85688.1,96564.3,96567,2024-06-15T10:29:01Z,96581.1,"c(""distractor1"", ""distractor2"", ""distractor3"")",Gegenwart,hadhara,s,katiba,jokofu,mikopo,NA,NA,NA,NA,NA,NA,NA,NA,NA,NA,NA,NA,NA,NA,NA,NA,NA,NA,NA,NA,NA,NA,NA
6a69c,task,flow.Sequence,1_1_4,NA,NA,completion,10876.2,85673.800000012,85671.4,85688.1,96564.3,96567.300000012,2024-06-15T10:29:01Z,96581.1,"c(""distractor1"", ""distractor2"", ""distractor3"")",Gegenwart,hadhara,s,katiba,jokofu,mikopo,NA,NA,NA,NA,NA,NA,NA,NA,NA,NA,NA,NA,NA,NA,NA,NA,NA,NA,NA,NA,NA,NA,NA
6a69c,Deep Question,html.Page,1_1_5_0_0,NA,NA,form submission,3844.9,96567.399999976,96564.3,96581.1,100426,100426.19999999,2024-06-15T10:29:05Z,100430.436,"c(""distractor1"", ""distractor2"", ""distractor3"")",Qualität,mtindo,d,NA,NA,NA,qualität,NA,NA,NA,NA,NA,NA,NA,NA,NA,NA,NA,NA,NA,NA,NA,NA,NA,NA,NA,NA,NA,NA
6a69c,"""Richtig""-Screen",canvas.Screen,1_1_5_0_1,NA,NA,skipped,NA,100429.19999999,NA,NA,100426,100429.39999998,2024-06-15T10:29:05Z,100430.436,"c(""distractor1"", ""distractor2"", ""distractor3"")",Qualität,mtindo,d,NA,NA,NA,NA,NA,NA,NA,NA,NA,NA,NA,NA,NA,NA,NA,NA,NA,NA,NA,NA,NA,NA,NA,NA,NA,NA
6a69c,"""Falsch""-Screen",canvas.Screen,1_1_5_0_2,NA,NA,timeout,4995.464,100430.10000002,100430.436,100430.436,105409.1,105410,2024-06-15T10:29:10Z,105425.9,"c(""distractor1"", ""distractor2"", ""distractor3"")",Qualität,mtindo,d,NA,NA,NA,NA,NA,0,NA,NA,NA,NA,NA,NA,NA,NA,NA,NA,NA,NA,NA,NA,NA,NA,NA,NA,NA,NA
6a69c,deep,flow.Sequence,1_1_5_0,NA,NA,completion,8828,96567.300000012,96564.3,96581.1,105409.1,105410.39999998,2024-06-15T10:29:10Z,105425.9,"c(""distractor1"", ""distractor2"", ""distractor3"")",Qualität,mtindo,d,NA,NA,NA,NA,NA,NA,NA,NA,NA,NA,NA,NA,NA,NA,NA,NA,NA,NA,NA,NA,NA,NA,NA,NA,NA,NA
6a69c,shallow,flow.Sequence,1_1_5_1,NA,NA,skipped,NA,105410.60000002,NA,NA,105409.1,105410.80000001,2024-06-15T10:29:10Z,105425.9,"c(""distractor1"", ""distractor2"", ""distractor3"")",Qualität,mtindo,d,NA,NA,NA,NA,NA,NA,NA,NA,NA,NA,NA,NA,NA,NA,NA,NA,NA,NA,NA,NA,NA,NA,NA,NA,NA,NA
6a69c,task,flow.Sequence,1_1_5,NA,NA,completion,8828,96567.300000012,96564.3,96581.1,105409.1,105411,2024-06-15T10:29:10Z,105425.9,"c(""distractor1"", ""distractor2"", ""distractor3"")",Qualität,mtindo,d,NA,NA,NA,NA,NA,NA,NA,NA,NA,NA,NA,NA,NA,NA,NA,NA,NA,NA,NA,NA,NA,NA,NA,NA,NA,NA
6a69c,block,flow.Loop,1_1,NA,NA,completion,93143.3,12257.199999988,12250.832,12265.8,105409.1,105411.39999998,2024-06-15T10:29:10Z,105425.9,"c(""distractor1"", ""distractor2"", ""distractor3"")",NA,NA,NA,NA,NA,NA,NA,NA,NA,NA,NA,NA,NA,NA,NA,NA,NA,NA,NA,NA,NA,NA,NA,NA,NA,NA,NA,NA,NA
6a69c,Practice,flow.Sequence,1,NA,NA,completion,95691.5,9709.1999999881,9704.626,9717.6,105409.1,105411.69999999,2024-06-15T10:29:10Z,105425.9,NULL,NA,NA,NA,NA,NA,NA,NA,NA,NA,NA,NA,NA,NA,NA,NA,NA,NA,NA,NA,NA,NA,NA,NA,NA,NA,NA,NA,NA,NA
6a69c,Experiment start,canvas.Screen,2,weiter,keypress(q),response,8183.2000000238,105411.80000001,105409.1,105425.9,113609.10000002,113610.10000002,2024-06-15T10:29:18Z,113670.4,NULL,NA,NA,NA,NA,NA,NA,NA,NA,NA,NA,NA,NA,NA,NA,NA,NA,NA,NA,NA,NA,NA,NA,NA,NA,NA,NA,NA,NA,NA
6a69c,Deep Question,html.Page,3_0_0_0_0_0_0,NA,NA,form submission,35136.499999976,113668.60000002,113663.5,113670.4,148806.89999998,148807.10000002,2024-06-15T10:29:53Z,148815.7,NULL,Erneuerung,ukarabati,d,NA,NA,NA,erneuerung,NA,NA,0,NA,NA,NA,NA,NA,NA,NA,NA,NA,NA,NA,NA,NA,NA,NA,NA,NA,NA,NA
6a69c,"""Richtig""-Screen",canvas.Screen,3_0_0_0_0_0_1,NA,NA,skipped,NA,148810.10000002,NA,NA,148806.89999998,148810.30000001,2024-06-15T10:29:53Z,148815.7,NULL,Erneuerung,ukarabati,d,NA,NA,NA,NA,sdf,NA,0,NA,NA,NA,NA,NA,NA,NA,NA,NA,NA,NA,NA,NA,NA,NA,NA,NA,NA,NA
6a69c,"""Falsch""-Screen",canvas.Screen,3_0_0_0_0_0_2,NA,NA,timeout,4997.3,148811.10000002,148799.6,148815.7,153796.3,153797.39999998,2024-06-15T10:29:58Z,153813,NULL,Erneuerung,ukarabati,d,NA,NA,NA,NA,sdf,0,0,NA,NA,NA,NA,NA,NA,NA,NA,NA,NA,NA,NA,NA,NA,NA,NA,NA,NA,NA
6a69c,deep,flow.Sequence,3_0_0_0_0_0,NA,NA,completion,40125.9,113668.5,113663.5,113670.4,153796.3,153797.69999999,2024-06-15T10:29:58Z,153813,NULL,Erneuerung,ukarabati,d,NA,NA,NA,NA,sdf,NA,0,NA,NA,NA,NA,NA,NA,NA,NA,NA,NA,NA,NA,NA,NA,NA,NA,NA,NA,NA
6a69c,shallow,flow.Sequence,3_0_0_0_0_1,NA,NA,skipped,NA,153797.80000001,NA,NA,153796.3,153798,2024-06-15T10:29:58Z,153813,NULL,Erneuerung,ukarabati,d,NA,NA,NA,NA,sdf,NA,0,NA,NA,NA,NA,NA,NA,NA,NA,NA,NA,NA,NA,NA,NA,NA,NA,NA,NA,NA
6a69c,task,flow.Sequence,3_0_0_0_0,NA,NA,completion,40125.9,113668.5,113663.5,113670.4,153796.3,153798.19999999,2024-06-15T10:29:58Z,153813,NULL,Erneuerung,ukarabati,d,NA,NA,NA,NA,sdf,NA,0,NA,NA,NA,NA,NA,NA,NA,NA,NA,NA,NA,NA,NA,NA,NA,NA,NA,NA,NA
6a69c,Deep Question,html.Page,3_0_0_0_1_0_0,NA,NA,form submission,12323.100000024,153798.30000001,153796.3,153813,166136.10000002,166136.39999998,2024-06-15T10:30:10Z,166140.05,NULL,Sänger,mwimbaji,d,NA,NA,NA,sänger,NA,NA,0,NA,NA,NA,NA,NA,NA,NA,NA,NA,NA,NA,NA,NA,NA,NA,NA,NA,NA,NA
6a69c,"""Richtig""-Screen",canvas.Screen,3_0_0_0_1_0_1,NA,NA,skipped,NA,166139.30000001,NA,NA,166136.10000002,166139.5,2024-06-15T10:30:10Z,166140.05,NULL,Sänger,mwimbaji,d,NA,NA,NA,NA,sdf,NA,0,NA,NA,NA,NA,NA,NA,NA,NA,NA,NA,NA,NA,NA,NA,NA,NA,NA,NA,NA
6a69c,"""Falsch""-Screen",canvas.Screen,3_0_0_0_1_0_2,NA,NA,timeout,4995.45,166140.30000001,166140.05,166140.05,171118.9,171120,2024-06-15T10:30:15Z,171135.5,NULL,Sänger,mwimbaji,d,NA,NA,NA,NA,sdf,0,0,NA,NA,NA,NA,NA,NA,NA,NA,NA,NA,NA,NA,NA,NA,NA,NA,NA,NA,NA
6a69c,deep,flow.Sequence,3_0_0_0_1_0,NA,NA,completion,17305.9,153798.30000001,153796.3,153813,171118.9,171120.39999998,2024-06-15T10:30:15Z,171135.5,NULL,Sänger,mwimbaji,d,NA,NA,NA,NA,sdf,NA,0,NA,NA,NA,NA,NA,NA,NA,NA,NA,NA,NA,NA,NA,NA,NA,NA,NA,NA,NA
6a69c,shallow,flow.Sequence,3_0_0_0_1_1,NA,NA,skipped,NA,171120.5,NA,NA,171118.9,171120.69999999,2024-06-15T10:30:15Z,171135.5,NULL,Sänger,mwimbaji,d,NA,NA,NA,NA,sdf,NA,0,NA,NA,NA,NA,NA,NA,NA,NA,NA,NA,NA,NA,NA,NA,NA,NA,NA,NA,NA
6a69c,task,flow.Sequence,3_0_0_0_1,NA,NA,completion,17305.9,153798.30000001,153796.3,153813,171118.9,171120.80000001,2024-06-15T10:30:15Z,171135.5,NULL,Sänger,mwimbaji,d,NA,NA,NA,NA,sdf,NA,0,NA,NA,NA,NA,NA,NA,NA,NA,NA,NA,NA,NA,NA,NA,NA,NA,NA,NA,NA
6a69c,deep,flow.Sequence,3_0_0_0_2_0,NA,NA,skipped,NA,171121,NA,NA,171118.9,171121,2024-06-15T10:30:15Z,171135.5,NULL,Abrechnung,uhasibu,s,kusahihisha,mpambano,mashambulizi,NA,sdf,NA,0,NA,NA,NA,NA,NA,NA,NA,NA,NA,NA,NA,NA,NA,NA,NA,NA,NA,NA,NA
6a69c,Shallow Question,html.Page,3_0_0_0_2_1_0,NA,NA,form submission,7580.6999999881,171121.19999999,171118.9,171135.5,178716.19999999,178716.30000001,2024-06-15T10:30:23Z,178730.9,NULL,Abrechnung,uhasibu,s,kusahihisha,mpambano,mashambulizi,mashambulizi,NA,NA,0,NA,NA,NA,NA,NA,NA,NA,NA,NA,NA,NA,NA,NA,NA,NA,NA,NA,NA,NA
6a69c,"""Richtig""-Screen",canvas.Screen,3_0_0_0_2_1_1,NA,NA,skipped,NA,178719.39999998,NA,NA,178716.19999999,178719.39999998,2024-06-15T10:30:23Z,178730.9,NULL,Abrechnung,uhasibu,s,kusahihisha,mpambano,mashambulizi,NA,sdf,NA,0,NA,NA,NA,NA,NA,NA,NA,NA,NA,NA,NA,NA,NA,NA,NA,NA,NA,NA,NA
6a69c,"""Falsch""-Screen",canvas.Screen,3_0_0_0_2_1_2,NA,NA,timeout,4997.4,178720.19999999,178714.6,178730.9,183711.6,183712.60000002,2024-06-15T10:30:28Z,183728.3,NULL,Abrechnung,uhasibu,s,kusahihisha,mpambano,mashambulizi,NA,sdf,0,0,NA,NA,NA,NA,NA,NA,NA,NA,NA,NA,NA,NA,NA,NA,NA,NA,NA,NA,NA
6a69c,shallow,flow.Sequence,3_0_0_0_2_1,NA,NA,completion,12576.1,171121.10000002,171118.9,171135.5,183711.6,183712.89999998,2024-06-15T10:30:28Z,183728.3,NULL,Abrechnung,uhasibu,s,kusahihisha,mpambano,mashambulizi,NA,sdf,NA,0,NA,NA,NA,NA,NA,NA,NA,NA,NA,NA,NA,NA,NA,NA,NA,NA,NA,NA,NA
6a69c,task,flow.Sequence,3_0_0_0_2,NA,NA,completion,12576.1,171120.89999998,171118.9,171135.5,183711.6,183713.10000002,2024-06-15T10:30:28Z,183728.3,NULL,Abrechnung,uhasibu,s,kusahihisha,mpambano,mashambulizi,NA,sdf,NA,0,NA,NA,NA,NA,NA,NA,NA,NA,NA,NA,NA,NA,NA,NA,NA,NA,NA,NA,NA
6a69c,deep,flow.Sequence,3_0_0_0_3_0,NA,NA,skipped,NA,183713.19999999,NA,NA,183711.6,183713.39999998,2024-06-15T10:30:28Z,183728.3,NULL,Atmosphäre,angahewa,s,kuteseka,usahihi,kutoamini,NA,sdf,NA,0,NA,NA,NA,NA,NA,NA,NA,NA,NA,NA,NA,NA,NA,NA,NA,NA,NA,NA,NA
6a69c,Shallow Question,html.Page,3_0_0_0_3_1_0,NA,NA,form submission,23094.800000024,183713.5,183711.6,183728.3,206823.10000002,206823.19999999,2024-06-15T10:30:51Z,206830.2,NULL,Atmosphäre,angahewa,s,kuteseka,usahihi,kutoamini,angahewa,NA,NA,0,NA,NA,NA,NA,NA,NA,NA,NA,NA,NA,NA,NA,NA,NA,NA,NA,NA,NA,NA
6a69c,"""Richtig""-Screen",canvas.Screen,3_0_0_0_3_1_1,NA,NA,timeout,4997,206826.39999998,206814.794,206830.2,211810.8,211812.30000001,2024-06-15T10:30:56Z,211827.2,NULL,Atmosphäre,angahewa,s,kuteseka,usahihi,kutoamini,NA,sdf,1,0,NA,NA,NA,NA,NA,NA,NA,NA,NA,NA,NA,NA,NA,NA,NA,NA,NA,NA,NA
6a69c,"""Falsch""-Screen",canvas.Screen,3_0_0_0_3_1_2,NA,NA,skipped,NA,211818.10000002,NA,NA,211810.8,211818.39999998,2024-06-15T10:30:56Z,211827.2,NULL,Atmosphäre,angahewa,s,kuteseka,usahihi,kutoamini,NA,sdf,NA,0,NA,NA,NA,NA,NA,NA,NA,NA,NA,NA,NA,NA,NA,NA,NA,NA,NA,NA,NA
6a69c,shallow,flow.Sequence,3_0_0_0_3_1,NA,NA,completion,28082.5,183713.5,183711.6,183728.3,211810.8,211818.60000002,2024-06-15T10:30:56Z,211827.2,NULL,Atmosphäre,angahewa,s,kuteseka,usahihi,kutoamini,NA,sdf,NA,0,NA,NA,NA,NA,NA,NA,NA,NA,NA,NA,NA,NA,NA,NA,NA,NA,NA,NA,NA
6a69c,task,flow.Sequence,3_0_0_0_3,NA,NA,completion,28082.5,183713.19999999,183711.6,183728.3,211810.8,211818.89999998,2024-06-15T10:30:56Z,211827.2,NULL,Atmosphäre,angahewa,s,kuteseka,usahihi,kutoamini,NA,sdf,NA,0,NA,NA,NA,NA,NA,NA,NA,NA,NA,NA,NA,NA,NA,NA,NA,NA,NA,NA,NA
6a69c,Deep Question,html.Page,3_0_0_0_4_0_0,NA,NA,form submission,10372.900000024,211819,211810.8,211827.2,222200.10000002,222200.39999998,2024-06-15T10:31:06Z,222221.2,NULL,Wechsel,ugeuzaji,d,NA,NA,NA,l,NA,NA,0,NA,NA,NA,NA,NA,NA,NA,NA,NA,NA,NA,NA,NA,NA,NA,NA,NA,NA,NA
6a69c,"""Richtig""-Screen",canvas.Screen,3_0_0_0_4_0_1,NA,NA,skipped,NA,222203.5,NA,NA,222200.10000002,222203.69999999,2024-06-15T10:31:06Z,222221.2,NULL,Wechsel,ugeuzaji,d,NA,NA,NA,NA,sdf,NA,0,NA,NA,NA,NA,NA,NA,NA,NA,NA,NA,NA,NA,NA,NA,NA,NA,NA,NA,NA
6a69c,"""Falsch""-Screen",canvas.Screen,3_0_0_0_4_0_2,NA,NA,timeout,4997.2,222204.39999998,222204.2,222221.2,227201.5,227202.39999998,2024-06-15T10:31:11Z,227218.4,NULL,Wechsel,ugeuzaji,d,NA,NA,NA,NA,sdf,0,0,NA,NA,NA,NA,NA,NA,NA,NA,NA,NA,NA,NA,NA,NA,NA,NA,NA,NA,NA
6a69c,deep,flow.Sequence,3_0_0_0_4_0,NA,NA,completion,15374.3,211819,211810.8,211827.2,227201.5,227202.69999999,2024-06-15T10:31:11Z,227218.4,NULL,Wechsel,ugeuzaji,d,NA,NA,NA,NA,sdf,NA,0,NA,NA,NA,NA,NA,NA,NA,NA,NA,NA,NA,NA,NA,NA,NA,NA,NA,NA,NA
6a69c,shallow,flow.Sequence,3_0_0_0_4_1,NA,NA,skipped,NA,227202.80000001,NA,NA,227201.5,227202.89999998,2024-06-15T10:31:11Z,227218.4,NULL,Wechsel,ugeuzaji,d,NA,NA,NA,NA,sdf,NA,0,NA,NA,NA,NA,NA,NA,NA,NA,NA,NA,NA,NA,NA,NA,NA,NA,NA,NA,NA
6a69c,task,flow.Sequence,3_0_0_0_4,NA,NA,completion,15374.3,211818.89999998,211810.8,211827.2,227201.5,227203.10000002,2024-06-15T10:31:11Z,227218.4,NULL,Wechsel,ugeuzaji,d,NA,NA,NA,NA,sdf,NA,0,NA,NA,NA,NA,NA,NA,NA,NA,NA,NA,NA,NA,NA,NA,NA,NA,NA,NA,NA
6a69c,deep,flow.Sequence,3_0_0_0_5_0,NA,NA,skipped,NA,227203.19999999,NA,NA,227201.5,227203.39999998,2024-06-15T10:31:11Z,227218.4,NULL,Flexibilität,kubadilika,s,enjini,usikilivu,hesabu,NA,sdf,NA,0,NA,NA,NA,NA,NA,NA,NA,NA,NA,NA,NA,NA,NA,NA,NA,NA,NA,NA,NA
6a69c,Shallow Question,html.Page,3_0_0_0_5_1_0,NA,NA,form submission,18748.1,227203.39999998,227201.5,227218.4,245966.5,245966.69999999,2024-06-15T10:31:30Z,245973,NULL,Flexibilität,kubadilika,s,enjini,usikilivu,hesabu,hesabu,NA,NA,0,NA,NA,NA,NA,NA,NA,NA,NA,NA,NA,NA,NA,NA,NA,NA,NA,NA,NA,NA
6a69c,"""Richtig""-Screen",canvas.Screen,3_0_0_0_5_1_1,NA,NA,skipped,NA,245969.69999999,NA,NA,245966.5,245969.89999998,2024-06-15T10:31:30Z,245973,NULL,Flexibilität,kubadilika,s,enjini,usikilivu,hesabu,NA,sdf,NA,0,NA,NA,NA,NA,NA,NA,NA,NA,NA,NA,NA,NA,NA,NA,NA,NA,NA,NA,NA
6a69c,"""Falsch""-Screen",canvas.Screen,3_0_0_0_5_1_2,NA,NA,timeout,4997,245970.39999998,245957.116,245973,250953.3,250953.69999999,2024-06-15T10:31:35Z,250970,NULL,Flexibilität,kubadilika,s,enjini,usikilivu,hesabu,NA,sdf,0,0,NA,NA,NA,NA,NA,NA,NA,NA,NA,NA,NA,NA,NA,NA,NA,NA,NA,NA,NA
6a69c,shallow,flow.Sequence,3_0_0_0_5_1,NA,NA,completion,23734.9,227203.39999998,227201.5,227218.4,250953.3,250953.80000001,2024-06-15T10:31:35Z,250970,NULL,Flexibilität,kubadilika,s,enjini,usikilivu,hesabu,NA,sdf,NA,0,NA,NA,NA,NA,NA,NA,NA,NA,NA,NA,NA,NA,NA,NA,NA,NA,NA,NA,NA
6a69c,task,flow.Sequence,3_0_0_0_5,NA,NA,completion,23734.9,227203.19999999,227201.5,227218.4,250953.3,250953.89999998,2024-06-15T10:31:35Z,250970,NULL,Flexibilität,kubadilika,s,enjini,usikilivu,hesabu,NA,sdf,NA,0,NA,NA,NA,NA,NA,NA,NA,NA,NA,NA,NA,NA,NA,NA,NA,NA,NA,NA,NA
6a69c,deep,flow.Sequence,3_0_0_0_6_0,NA,NA,skipped,NA,250953.89999998,NA,NA,250953.3,250953.89999998,2024-06-15T10:31:35Z,250970,NULL,Kanzler,diwani,s,rasilmali,mahitaji,maabudu,NA,sdf,NA,0,NA,NA,NA,NA,NA,NA,NA,NA,NA,NA,NA,NA,NA,NA,NA,NA,NA,NA,NA
6a69c,Shallow Question,html.Page,3_0_0_0_6_1_0,NA,NA,form submission,9989.1000000238,250954,250953.3,250970,260959.10000002,260959.19999999,2024-06-15T10:31:45Z,260980.5,NULL,Kanzler,diwani,s,rasilmali,mahitaji,maabudu,diwani,NA,NA,0,NA,NA,NA,NA,NA,NA,NA,NA,NA,NA,NA,NA,NA,NA,NA,NA,NA,NA,NA
6a69c,"""Richtig""-Screen",canvas.Screen,3_0_0_0_6_1_1,NA,NA,timeout,4997.4,260962.89999998,260963.8,260980.5,265961,265962.30000001,2024-06-15T10:31:50Z,265977.9,NULL,Kanzler,diwani,s,rasilmali,mahitaji,maabudu,NA,sdf,1,0,NA,NA,NA,NA,NA,NA,NA,NA,NA,NA,NA,NA,NA,NA,NA,NA,NA,NA,NA
6a69c,"""Falsch""-Screen",canvas.Screen,3_0_0_0_6_1_2,NA,NA,skipped,NA,265966.80000001,NA,NA,265961,265966.89999998,2024-06-15T10:31:50Z,265977.9,NULL,Kanzler,diwani,s,rasilmali,mahitaji,maabudu,NA,sdf,NA,0,NA,NA,NA,NA,NA,NA,NA,NA,NA,NA,NA,NA,NA,NA,NA,NA,NA,NA,NA
6a69c,shallow,flow.Sequence,3_0_0_0_6_1,NA,NA,completion,14991,250954,250953.3,250970,265961,265967,2024-06-15T10:31:50Z,265977.9,NULL,Kanzler,diwani,s,rasilmali,mahitaji,maabudu,NA,sdf,NA,0,NA,NA,NA,NA,NA,NA,NA,NA,NA,NA,NA,NA,NA,NA,NA,NA,NA,NA,NA
6a69c,task,flow.Sequence,3_0_0_0_6,NA,NA,completion,14991,250953.89999998,250953.3,250970,265961,265967,2024-06-15T10:31:50Z,265977.9,NULL,Kanzler,diwani,s,rasilmali,mahitaji,maabudu,NA,sdf,NA,0,NA,NA,NA,NA,NA,NA,NA,NA,NA,NA,NA,NA,NA,NA,NA,NA,NA,NA,NA
6a69c,Deep Question,html.Page,3_0_0_0_7_0_0,NA,NA,form submission,10313.799999988,265967.10000002,265961,265977.9,276291.69999999,276291.89999998,2024-06-15T10:32:01Z,276304.6,NULL,Angreifer,mshambulizi,d,NA,NA,NA,m,NA,NA,0,NA,NA,NA,NA,NA,NA,NA,NA,NA,NA,NA,NA,NA,NA,NA,NA,NA,NA,NA
6a69c,"""Richtig""-Screen",canvas.Screen,3_0_0_0_7_0_1,NA,NA,skipped,NA,276293.30000001,NA,NA,276291.69999999,276293.39999998,2024-06-15T10:32:01Z,276304.6,NULL,Angreifer,mshambulizi,d,NA,NA,NA,NA,sdf,NA,0,NA,NA,NA,NA,NA,NA,NA,NA,NA,NA,NA,NA,NA,NA,NA,NA,NA,NA,NA
6a69c,"""Falsch""-Screen",canvas.Screen,3_0_0_0_7_0_2,NA,NA,timeout,4997.3,276293.69999999,276288.7,276304.6,281284.9,281285.89999998,2024-06-15T10:32:06Z,281301.9,NULL,Angreifer,mshambulizi,d,NA,NA,NA,NA,sdf,0,0,NA,NA,NA,NA,NA,NA,NA,NA,NA,NA,NA,NA,NA,NA,NA,NA,NA,NA,NA
6a69c,deep,flow.Sequence,3_0_0_0_7_0,NA,NA,completion,15307,265967.10000002,265961,265977.9,281284.9,281286.30000001,2024-06-15T10:32:06Z,281301.9,NULL,Angreifer,mshambulizi,d,NA,NA,NA,NA,sdf,NA,0,NA,NA,NA,NA,NA,NA,NA,NA,NA,NA,NA,NA,NA,NA,NA,NA,NA,NA,NA
6a69c,shallow,flow.Sequence,3_0_0_0_7_1,NA,NA,skipped,NA,281286.5,NA,NA,281284.9,281286.60000002,2024-06-15T10:32:06Z,281301.9,NULL,Angreifer,mshambulizi,d,NA,NA,NA,NA,sdf,NA,0,NA,NA,NA,NA,NA,NA,NA,NA,NA,NA,NA,NA,NA,NA,NA,NA,NA,NA,NA
6a69c,task,flow.Sequence,3_0_0_0_7,NA,NA,completion,15307,265967.10000002,265961,265977.9,281284.9,281286.89999998,2024-06-15T10:32:06Z,281301.9,NULL,Angreifer,mshambulizi,d,NA,NA,NA,NA,sdf,NA,0,NA,NA,NA,NA,NA,NA,NA,NA,NA,NA,NA,NA,NA,NA,NA,NA,NA,NA,NA
6a69c,block,flow.Loop,3_0_0_0,NA,NA,completion,167614.5,113668.5,113663.5,113670.4,281284.9,281287.10000002,2024-06-15T10:32:06Z,281301.9,NULL,NA,NA,NA,NA,NA,NA,NA,sdf,NA,0,NA,NA,NA,NA,NA,NA,NA,NA,NA,NA,NA,NA,NA,NA,NA,NA,NA,NA,NA
6a69c,weiter,canvas.Screen,3_0_0_1,sdf,keypress(Space),response,2556.4999999761,281287.19999999,281284.9,281301.9,283858.39999998,283859.10000002,2024-06-15T10:32:08Z,283868.464,NULL,NA,NA,NA,NA,NA,NA,NA,sdf,NA,0,NA,NA,NA,NA,NA,NA,NA,NA,NA,NA,NA,NA,NA,NA,NA,NA,NA,NA,NA
6a69c,check continue,flow.Sequence,3_0_0,NA,NA,completion,170187.99999998,113668.5,113663.5,113670.4,283858.39999998,283859.39999998,2024-06-15T10:32:08Z,283868.464,NULL,NA,NA,NA,NA,NA,NA,NA,sdf,NA,0,NA,NA,NA,NA,NA,NA,NA,NA,NA,NA,NA,NA,NA,NA,NA,NA,NA,NA,NA
6a69c,Deep Question,html.Page,3_0_1_0_0_0_0,NA,NA,form submission,19764.935999976,283879.19999999,283868.464,283868.464,303633.39999998,303633.60000002,2024-06-15T10:32:28Z,303637.8,NULL,Wechsel,ugeuzaji,d,NA,NA,NA,wechsel,NA,NA,1,NA,NA,NA,NA,NA,NA,NA,NA,NA,NA,NA,NA,NA,NA,NA,NA,NA,NA,NA
6a69c,"""Richtig""-Screen",canvas.Screen,3_0_1_0_0_0_1,NA,NA,skipped,NA,303636.60000002,NA,NA,303633.39999998,303636.69999999,2024-06-15T10:32:28Z,303637.8,NULL,Wechsel,ugeuzaji,d,NA,NA,NA,NA,sdfdsf,NA,1,NA,NA,NA,NA,NA,NA,NA,NA,NA,NA,NA,NA,NA,NA,NA,NA,NA,NA,NA
6a69c,"""Falsch""-Screen",canvas.Screen,3_0_1_0_0_0_2,NA,NA,timeout,4997.2,303637.5,303624.116,303637.8,308618.5,308619.39999998,2024-06-15T10:32:33Z,308635,NULL,Wechsel,ugeuzaji,d,NA,NA,NA,NA,sdfdsf,0,1,NA,NA,NA,NA,NA,NA,NA,NA,NA,NA,NA,NA,NA,NA,NA,NA,NA,NA,NA
6a69c,deep,flow.Sequence,3_0_1_0_0_0,NA,NA,completion,24750.036,283879.19999999,283868.464,283868.464,308618.5,308619.80000001,2024-06-15T10:32:33Z,308635,NULL,Wechsel,ugeuzaji,d,NA,NA,NA,NA,sdfdsf,NA,1,NA,NA,NA,NA,NA,NA,NA,NA,NA,NA,NA,NA,NA,NA,NA,NA,NA,NA,NA
6a69c,shallow,flow.Sequence,3_0_1_0_0_1,NA,NA,skipped,NA,308619.89999998,NA,NA,308618.5,308620,2024-06-15T10:32:33Z,308635,NULL,Wechsel,ugeuzaji,d,NA,NA,NA,NA,sdfdsf,NA,1,NA,NA,NA,NA,NA,NA,NA,NA,NA,NA,NA,NA,NA,NA,NA,NA,NA,NA,NA
6a69c,task,flow.Sequence,3_0_1_0_0,NA,NA,completion,24750.036,283879.19999999,283868.464,283868.464,308618.5,308620.19999999,2024-06-15T10:32:33Z,308635,NULL,Wechsel,ugeuzaji,d,NA,NA,NA,NA,sdfdsf,NA,1,NA,NA,NA,NA,NA,NA,NA,NA,NA,NA,NA,NA,NA,NA,NA,NA,NA,NA,NA
6a69c,Deep Question,html.Page,3_0_1_0_1_0_0,NA,NA,form submission,4734.8999999762,308620.30000001,308618.5,308635,313369.89999998,313370.10000002,2024-06-15T10:32:38Z,313381.8,NULL,Angreifer,mshambulizi,d,NA,NA,NA,https://neurocog.fernuni.ch/studies/vweber/aberisha/encoding_immediate/index.html?vp=199&sess=3mgreifer,NA,NA,1,NA,NA,NA,NA,NA,NA,NA,NA,NA,NA,NA,NA,NA,NA,NA,NA,NA,NA,NA
6a69c,"""Richtig""-Screen",canvas.Screen,3_0_1_0_1_0_1,NA,NA,skipped,NA,313373.19999999,NA,NA,313369.89999998,313373.39999998,2024-06-15T10:32:38Z,313381.8,NULL,Angreifer,mshambulizi,d,NA,NA,NA,NA,sdfdsf,NA,1,NA,NA,NA,NA,NA,NA,NA,NA,NA,NA,NA,NA,NA,NA,NA,NA,NA,NA,NA
6a69c,"""Falsch""-Screen",canvas.Screen,3_0_1_0_1_0_2,NA,NA,timeout,4997,313374.19999999,313369.044,313381.8,318362.1,318363.10000002,2024-06-15T10:32:43Z,318378.8,NULL,Angreifer,mshambulizi,d,NA,NA,NA,NA,sdfdsf,0,1,NA,NA,NA,NA,NA,NA,NA,NA,NA,NA,NA,NA,NA,NA,NA,NA,NA,NA,NA
6a69c,deep,flow.Sequence,3_0_1_0_1_0,NA,NA,completion,9727.1,308620.19999999,308618.5,308635,318362.1,318363.5,2024-06-15T10:32:43Z,318378.8,NULL,Angreifer,mshambulizi,d,NA,NA,NA,NA,sdfdsf,NA,1,NA,NA,NA,NA,NA,NA,NA,NA,NA,NA,NA,NA,NA,NA,NA,NA,NA,NA,NA
6a69c,shallow,flow.Sequence,3_0_1_0_1_1,NA,NA,skipped,NA,318363.60000002,NA,NA,318362.1,318363.80000001,2024-06-15T10:32:43Z,318378.8,NULL,Angreifer,mshambulizi,d,NA,NA,NA,NA,sdfdsf,NA,1,NA,NA,NA,NA,NA,NA,NA,NA,NA,NA,NA,NA,NA,NA,NA,NA,NA,NA,NA
6a69c,task,flow.Sequence,3_0_1_0_1,NA,NA,completion,9727.1,308620.19999999,308618.5,308635,318362.1,318363.89999998,2024-06-15T10:32:43Z,318378.8,NULL,Angreifer,mshambulizi,d,NA,NA,NA,NA,sdfdsf,NA,1,NA,NA,NA,NA,NA,NA,NA,NA,NA,NA,NA,NA,NA,NA,NA,NA,NA,NA,NA
6a69c,deep,flow.Sequence,3_0_1_0_2_0,NA,NA,skipped,NA,318364.10000002,NA,NA,318362.1,318364.19999999,2024-06-15T10:32:43Z,318378.8,NULL,Abrechnung,uhasibu,s,kusahihisha,mpambano,mashambulizi,NA,sdfdsf,NA,1,NA,NA,NA,NA,NA,NA,NA,NA,NA,NA,NA,NA,NA,NA,NA,NA,NA,NA,NA
6a69c,Shallow Question,html.Page,3_0_1_0_2_1_0,NA,NA,form submission,14372.000000012,318364.30000001,318362.1,318378.8,332750.80000001,332751.10000002,2024-06-15T10:32:57Z,332754.004,NULL,Abrechnung,uhasibu,s,kusahihisha,mpambano,mashambulizi,mashambulizi,NA,NA,1,NA,NA,NA,NA,NA,NA,NA,NA,NA,NA,NA,NA,NA,NA,NA,NA,NA,NA,NA
6a69c,"""Richtig""-Screen",canvas.Screen,3_0_1_0_2_1_1,NA,NA,skipped,NA,332754.10000002,NA,NA,332750.80000001,332754.19999999,2024-06-15T10:32:57Z,332754.004,NULL,Abrechnung,uhasibu,s,kusahihisha,mpambano,mashambulizi,NA,sdfdsf,NA,1,NA,NA,NA,NA,NA,NA,NA,NA,NA,NA,NA,NA,NA,NA,NA,NA,NA,NA,NA
6a69c,"""Falsch""-Screen",canvas.Screen,3_0_1_0_2_1_2,NA,NA,timeout,4996.896,332755,332754.004,332754.004,337733.8,337734.89999998,2024-06-15T10:33:02Z,337750.9,NULL,Abrechnung,uhasibu,s,kusahihisha,mpambano,mashambulizi,NA,sdfdsf,0,1,NA,NA,NA,NA,NA,NA,NA,NA,NA,NA,NA,NA,NA,NA,NA,NA,NA,NA,NA
6a69c,shallow,flow.Sequence,3_0_1_0_2_1,NA,NA,completion,19355,318364.30000001,318362.1,318378.8,337733.8,337735.30000001,2024-06-15T10:33:02Z,337750.9,NULL,Abrechnung,uhasibu,s,kusahihisha,mpambano,mashambulizi,NA,sdfdsf,NA,1,NA,NA,NA,NA,NA,NA,NA,NA,NA,NA,NA,NA,NA,NA,NA,NA,NA,NA,NA
6a69c,task,flow.Sequence,3_0_1_0_2,NA,NA,completion,19355,318364.10000002,318362.1,318378.8,337733.8,337735.5,2024-06-15T10:33:02Z,337750.9,NULL,Abrechnung,uhasibu,s,kusahihisha,mpambano,mashambulizi,NA,sdfdsf,NA,1,NA,NA,NA,NA,NA,NA,NA,NA,NA,NA,NA,NA,NA,NA,NA,NA,NA,NA,NA
6a69c,deep,flow.Sequence,3_0_1_0_3_0,NA,NA,skipped,NA,337735.80000001,NA,NA,337733.8,337735.89999998,2024-06-15T10:33:02Z,337750.9,NULL,Atmosphäre,angahewa,s,kuteseka,usahihi,kutoamini,NA,sdfdsf,NA,1,NA,NA,NA,NA,NA,NA,NA,NA,NA,NA,NA,NA,NA,NA,NA,NA,NA,NA,NA
6a69c,Shallow Question,html.Page,3_0_1_0_3_1_0,NA,NA,form submission,9003.2999999881,337736,337733.8,337750.9,346754.19999999,346754.39999998,2024-06-15T10:33:11Z,346761.5,NULL,Atmosphäre,angahewa,s,kuteseka,usahihi,kutoamini,usahihi,NA,NA,1,NA,NA,NA,NA,NA,NA,NA,NA,NA,NA,NA,NA,NA,NA,NA,NA,NA,NA,NA
6a69c,"""Richtig""-Screen",canvas.Screen,3_0_1_0_3_1_1,NA,NA,skipped,NA,346756.89999998,NA,NA,346754.19999999,346756.89999998,2024-06-15T10:33:11Z,346761.5,NULL,Atmosphäre,angahewa,s,kuteseka,usahihi,kutoamini,NA,sdfdsf,NA,1,NA,NA,NA,NA,NA,NA,NA,NA,NA,NA,NA,NA,NA,NA,NA,NA,NA,NA,NA
6a69c,"""Falsch""-Screen",canvas.Screen,3_0_1_0_3_1_2,NA,NA,timeout,4997.2,346757.60000002,346745.534,346761.5,351741.8,351742.80000001,2024-06-15T10:33:16Z,351758.7,NULL,Atmosphäre,angahewa,s,kuteseka,usahihi,kutoamini,NA,sdfdsf,0,1,NA,NA,NA,NA,NA,NA,NA,NA,NA,NA,NA,NA,NA,NA,NA,NA,NA,NA,NA
6a69c,shallow,flow.Sequence,3_0_1_0_3_1,NA,NA,completion,13990.9,337736,337733.8,337750.9,351741.8,351743.10000002,2024-06-15T10:33:16Z,351758.7,NULL,Atmosphäre,angahewa,s,kuteseka,usahihi,kutoamini,NA,sdfdsf,NA,1,NA,NA,NA,NA,NA,NA,NA,NA,NA,NA,NA,NA,NA,NA,NA,NA,NA,NA,NA
6a69c,task,flow.Sequence,3_0_1_0_3,NA,NA,completion,13990.9,337735.80000001,337733.8,337750.9,351741.8,351743.30000001,2024-06-15T10:33:16Z,351758.7,NULL,Atmosphäre,angahewa,s,kuteseka,usahihi,kutoamini,NA,sdfdsf,NA,1,NA,NA,NA,NA,NA,NA,NA,NA,NA,NA,NA,NA,NA,NA,NA,NA,NA,NA,NA
6a69c,deep,flow.Sequence,3_0_1_0_4_0,NA,NA,skipped,NA,351743.60000002,NA,NA,351741.8,351743.69999999,2024-06-15T10:33:16Z,351758.7,NULL,Kanzler,diwani,s,rasilmali,mahitaji,maabudu,NA,sdfdsf,NA,1,NA,NA,NA,NA,NA,NA,NA,NA,NA,NA,NA,NA,NA,NA,NA,NA,NA,NA,NA
6a69c,Shallow Question,html.Page,3_0_1_0_4_1_0,NA,NA,form submission,8664.4999999881,351743.80000001,351741.8,351758.7,360423.19999999,360423.5,2024-06-15T10:33:25Z,360453.1,NULL,Kanzler,diwani,s,rasilmali,mahitaji,maabudu,diwani,NA,NA,1,NA,NA,NA,NA,NA,NA,NA,NA,NA,NA,NA,NA,NA,NA,NA,NA,NA,NA,NA
6a69c,"""Richtig""-Screen",canvas.Screen,3_0_1_0_4_1_1,NA,NA,timeout,4997.3,360426.5,360436.862,360453.1,365433.4,365434.5,2024-06-15T10:33:30Z,365450.4,NULL,Kanzler,diwani,s,rasilmali,mahitaji,maabudu,NA,sdfdsf,1,1,NA,NA,NA,NA,NA,NA,NA,NA,NA,NA,NA,NA,NA,NA,NA,NA,NA,NA,NA
6a69c,"""Falsch""-Screen",canvas.Screen,3_0_1_0_4_1_2,NA,NA,skipped,NA,365439.5,NA,NA,365433.4,365439.69999999,2024-06-15T10:33:30Z,365450.4,NULL,Kanzler,diwani,s,rasilmali,mahitaji,maabudu,NA,sdfdsf,NA,1,NA,NA,NA,NA,NA,NA,NA,NA,NA,NA,NA,NA,NA,NA,NA,NA,NA,NA,NA
6a69c,shallow,flow.Sequence,3_0_1_0_4_1,NA,NA,completion,13674.7,351743.80000001,351741.8,351758.7,365433.4,365439.80000001,2024-06-15T10:33:30Z,365450.4,NULL,Kanzler,diwani,s,rasilmali,mahitaji,maabudu,NA,sdfdsf,NA,1,NA,NA,NA,NA,NA,NA,NA,NA,NA,NA,NA,NA,NA,NA,NA,NA,NA,NA,NA
6a69c,task,flow.Sequence,3_0_1_0_4,NA,NA,completion,13674.7,351743.5,351741.8,351758.7,365433.4,365439.80000001,2024-06-15T10:33:30Z,365450.4,NULL,Kanzler,diwani,s,rasilmali,mahitaji,maabudu,NA,sdfdsf,NA,1,NA,NA,NA,NA,NA,NA,NA,NA,NA,NA,NA,NA,NA,NA,NA,NA,NA,NA,NA
6a69c,deep,flow.Sequence,3_0_1_0_5_0,NA,NA,skipped,NA,365439.80000001,NA,NA,365433.4,365439.89999998,2024-06-15T10:33:30Z,365450.4,NULL,Flexibilität,kubadilika,s,enjini,usikilivu,hesabu,NA,sdfdsf,NA,1,NA,NA,NA,NA,NA,NA,NA,NA,NA,NA,NA,NA,NA,NA,NA,NA,NA,NA,NA
6a69c,Shallow Question,html.Page,3_0_1_0_5_1_0,NA,NA,form submission,6447.9999999761,365439.89999998,365433.4,365450.4,371898.39999998,371898.5,2024-06-15T10:33:36Z,371913.1,NULL,Flexibilität,kubadilika,s,enjini,usikilivu,hesabu,kubadilika,NA,NA,1,NA,NA,NA,NA,NA,NA,NA,NA,NA,NA,NA,NA,NA,NA,NA,NA,NA,NA,NA
6a69c,"""Richtig""-Screen",canvas.Screen,3_0_1_0_5_1_1,NA,NA,timeout,4997,371900,371896.674,371913.1,376893,376894,2024-06-15T10:33:41Z,376910.1,NULL,Flexibilität,kubadilika,s,enjini,usikilivu,hesabu,NA,sdfdsf,1,1,NA,NA,NA,NA,NA,NA,NA,NA,NA,NA,NA,NA,NA,NA,NA,NA,NA,NA,NA
6a69c,"""Falsch""-Screen",canvas.Screen,3_0_1_0_5_1_2,NA,NA,skipped,NA,376898.5,NA,NA,376893,376898.60000002,2024-06-15T10:33:41Z,376910.1,NULL,Flexibilität,kubadilika,s,enjini,usikilivu,hesabu,NA,sdfdsf,NA,1,NA,NA,NA,NA,NA,NA,NA,NA,NA,NA,NA,NA,NA,NA,NA,NA,NA,NA,NA
6a69c,shallow,flow.Sequence,3_0_1_0_5_1,NA,NA,completion,11442.6,365439.89999998,365433.4,365450.4,376893,376898.80000001,2024-06-15T10:33:41Z,376910.1,NULL,Flexibilität,kubadilika,s,enjini,usikilivu,hesabu,NA,sdfdsf,NA,1,NA,NA,NA,NA,NA,NA,NA,NA,NA,NA,NA,NA,NA,NA,NA,NA,NA,NA,NA
6a69c,task,flow.Sequence,3_0_1_0_5,NA,NA,completion,11442.6,365439.80000001,365433.4,365450.4,376893,376898.89999998,2024-06-15T10:33:41Z,376910.1,NULL,Flexibilität,kubadilika,s,enjini,usikilivu,hesabu,NA,sdfdsf,NA,1,NA,NA,NA,NA,NA,NA,NA,NA,NA,NA,NA,NA,NA,NA,NA,NA,NA,NA,NA
6a69c,Deep Question,html.Page,3_0_1_0_6_0_0,NA,NA,form submission,4985.2000000119,376898.89999998,376893,376910.1,381895.30000001,381895.5,2024-06-15T10:33:46Z,381906.6,NULL,Erneuerung,ukarabati,d,NA,NA,NA,erneuerung,NA,NA,1,NA,NA,NA,NA,NA,NA,NA,NA,NA,NA,NA,NA,NA,NA,NA,NA,NA,NA,NA
6a69c,"""Richtig""-Screen",canvas.Screen,3_0_1_0_6_0_1,NA,NA,skipped,NA,381898.69999999,NA,NA,381895.30000001,381898.89999998,2024-06-15T10:33:46Z,381906.6,NULL,Erneuerung,ukarabati,d,NA,NA,NA,NA,sdfdsf,NA,1,NA,NA,NA,NA,NA,NA,NA,NA,NA,NA,NA,NA,NA,NA,NA,NA,NA,NA,NA
6a69c,"""Falsch""-Screen",canvas.Screen,3_0_1_0_6_0_2,NA,NA,timeout,4997.4,381899.60000002,381895.876,381906.6,386887.1,386888.10000002,2024-06-15T10:33:51Z,386904,NULL,Erneuerung,ukarabati,d,NA,NA,NA,NA,sdfdsf,0,1,NA,NA,NA,NA,NA,NA,NA,NA,NA,NA,NA,NA,NA,NA,NA,NA,NA,NA,NA
6a69c,deep,flow.Sequence,3_0_1_0_6_0,NA,NA,completion,9977,376898.89999998,376893,376910.1,386887.1,386888.60000002,2024-06-15T10:33:51Z,386904,NULL,Erneuerung,ukarabati,d,NA,NA,NA,NA,sdfdsf,NA,1,NA,NA,NA,NA,NA,NA,NA,NA,NA,NA,NA,NA,NA,NA,NA,NA,NA,NA,NA
6a69c,shallow,flow.Sequence,3_0_1_0_6_1,NA,NA,skipped,NA,386888.69999999,NA,NA,386887.1,386888.89999998,2024-06-15T10:33:51Z,386904,NULL,Erneuerung,ukarabati,d,NA,NA,NA,NA,sdfdsf,NA,1,NA,NA,NA,NA,NA,NA,NA,NA,NA,NA,NA,NA,NA,NA,NA,NA,NA,NA,NA
6a69c,task,flow.Sequence,3_0_1_0_6,NA,NA,completion,9977,376898.89999998,376893,376910.1,386887.1,386889.10000002,2024-06-15T10:33:51Z,386904,NULL,Erneuerung,ukarabati,d,NA,NA,NA,NA,sdfdsf,NA,1,NA,NA,NA,NA,NA,NA,NA,NA,NA,NA,NA,NA,NA,NA,NA,NA,NA,NA,NA
6a69c,Deep Question,html.Page,3_0_1_0_7_0_0,NA,NA,form submission,4775.3999999762,386889.19999999,386887.1,386904,391679.39999998,391679.60000002,2024-06-15T10:33:56Z,391684,NULL,Sänger,mwimbaji,d,NA,NA,NA,sänger,NA,NA,1,NA,NA,NA,NA,NA,NA,NA,NA,NA,NA,NA,NA,NA,NA,NA,NA,NA,NA,NA
6a69c,"""Richtig""-Screen",canvas.Screen,3_0_1_0_7_0_1,NA,NA,skipped,NA,391682.69999999,NA,NA,391679.39999998,391682.80000001,2024-06-15T10:33:56Z,391684,NULL,Sänger,mwimbaji,d,NA,NA,NA,NA,sdfdsf,NA,1,NA,NA,NA,NA,NA,NA,NA,NA,NA,NA,NA,NA,NA,NA,NA,NA,NA,NA,NA
6a69c,"""Falsch""-Screen",canvas.Screen,3_0_1_0_7_0_2,NA,NA,timeout,4997.3,391683.5,391680.892,391684,396664.4,396665.39999998,2024-06-15T10:34:01Z,396681.3,NULL,Sänger,mwimbaji,d,NA,NA,NA,NA,sdfdsf,0,1,NA,NA,NA,NA,NA,NA,NA,NA,NA,NA,NA,NA,NA,NA,NA,NA,NA,NA,NA
6a69c,deep,flow.Sequence,3_0_1_0_7_0,NA,NA,completion,9760.4,386889.19999999,386887.1,386904,396664.4,396665.69999999,2024-06-15T10:34:01Z,396681.3,NULL,Sänger,mwimbaji,d,NA,NA,NA,NA,sdfdsf,NA,1,NA,NA,NA,NA,NA,NA,NA,NA,NA,NA,NA,NA,NA,NA,NA,NA,NA,NA,NA
6a69c,shallow,flow.Sequence,3_0_1_0_7_1,NA,NA,skipped,NA,396665.80000001,NA,NA,396664.4,396665.89999998,2024-06-15T10:34:01Z,396681.3,NULL,Sänger,mwimbaji,d,NA,NA,NA,NA,sdfdsf,NA,1,NA,NA,NA,NA,NA,NA,NA,NA,NA,NA,NA,NA,NA,NA,NA,NA,NA,NA,NA
6a69c,task,flow.Sequence,3_0_1_0_7,NA,NA,completion,9760.4,386889.10000002,386887.1,386904,396664.4,396666.19999999,2024-06-15T10:34:01Z,396681.3,NULL,Sänger,mwimbaji,d,NA,NA,NA,NA,sdfdsf,NA,1,NA,NA,NA,NA,NA,NA,NA,NA,NA,NA,NA,NA,NA,NA,NA,NA,NA,NA,NA
6a69c,block,flow.Loop,3_0_1_0,NA,NA,completion,112795.936,283878.80000001,283868.464,283868.464,396664.4,396666.39999998,2024-06-15T10:34:01Z,396681.3,NULL,NA,NA,NA,NA,NA,NA,NA,sdfdsf,NA,1,NA,NA,NA,NA,NA,NA,NA,NA,NA,NA,NA,NA,NA,NA,NA,NA,NA,NA,NA
6a69c,weiter,canvas.Screen,3_0_1_1,sdf,keypress(Space),response,1191.3000000239,396666.60000002,396664.4,396681.3,397872.60000002,397873.60000002,2024-06-15T10:34:02Z,397913.9,NULL,NA,NA,NA,NA,NA,NA,NA,sdfdsf,NA,1,NA,NA,NA,NA,NA,NA,NA,NA,NA,NA,NA,NA,NA,NA,NA,NA,NA,NA,NA
6a69c,check continue,flow.Sequence,3_0_1,NA,NA,completion,114004.13600002,283878.80000001,283868.464,283868.464,397872.60000002,397873.80000001,2024-06-15T10:34:02Z,397913.9,NULL,NA,NA,NA,NA,NA,NA,NA,sdfdsf,NA,1,NA,NA,NA,NA,NA,NA,NA,NA,NA,NA,NA,NA,NA,NA,NA,NA,NA,NA,NA
6a69c,Deep Question,html.Page,3_0_2_0_0_0_0,NA,NA,form submission,9159.6,397897.89999998,397897.918,397913.9,407073.5,407073.80000001,2024-06-15T10:34:11Z,407076.152,NULL,Angreifer,mshambulizi,d,NA,NA,NA,angreifer,NA,NA,2,NA,NA,NA,NA,NA,NA,NA,NA,NA,NA,NA,NA,NA,NA,NA,NA,NA,NA,NA
6a69c,"""Richtig""-Screen",canvas.Screen,3_0_2_0_0_0_1,NA,NA,skipped,NA,407076.80000001,NA,NA,407073.5,407077,2024-06-15T10:34:11Z,407076.152,NULL,Angreifer,mshambulizi,d,NA,NA,NA,NA,sdf,NA,2,NA,NA,NA,NA,NA,NA,NA,NA,NA,NA,NA,NA,NA,NA,NA,NA,NA,NA,NA
6a69c,"""Falsch""-Screen",canvas.Screen,3_0_2_0_0_0_2,NA,NA,timeout,4995.848,407077.80000001,407076.152,407076.152,412054.9,412056,2024-06-15T10:34:16Z,412072,NULL,Angreifer,mshambulizi,d,NA,NA,NA,NA,sdf,0,2,NA,NA,NA,NA,NA,NA,NA,NA,NA,NA,NA,NA,NA,NA,NA,NA,NA,NA,NA
6a69c,deep,flow.Sequence,3_0_2_0_0_0,NA,NA,completion,14141,397897.89999998,397897.918,397913.9,412054.9,412056.30000001,2024-06-15T10:34:16Z,412072,NULL,Angreifer,mshambulizi,d,NA,NA,NA,NA,sdf,NA,2,NA,NA,NA,NA,NA,NA,NA,NA,NA,NA,NA,NA,NA,NA,NA,NA,NA,NA,NA
6a69c,shallow,flow.Sequence,3_0_2_0_0_1,NA,NA,skipped,NA,412056.39999998,NA,NA,412054.9,412056.5,2024-06-15T10:34:16Z,412072,NULL,Angreifer,mshambulizi,d,NA,NA,NA,NA,sdf,NA,2,NA,NA,NA,NA,NA,NA,NA,NA,NA,NA,NA,NA,NA,NA,NA,NA,NA,NA,NA
6a69c,task,flow.Sequence,3_0_2_0_0,NA,NA,completion,14141,397897.89999998,397897.918,397913.9,412054.9,412056.69999999,2024-06-15T10:34:16Z,412072,NULL,Angreifer,mshambulizi,d,NA,NA,NA,NA,sdf,NA,2,NA,NA,NA,NA,NA,NA,NA,NA,NA,NA,NA,NA,NA,NA,NA,NA,NA,NA,NA
6a69c,deep,flow.Sequence,3_0_2_0_1_0,NA,NA,skipped,NA,412056.80000001,NA,NA,412054.9,412057,2024-06-15T10:34:16Z,412072,NULL,Flexibilität,kubadilika,s,enjini,usikilivu,hesabu,NA,sdf,NA,2,NA,NA,NA,NA,NA,NA,NA,NA,NA,NA,NA,NA,NA,NA,NA,NA,NA,NA,NA
6a69c,Shallow Question,html.Page,3_0_2_0_1_1_0,NA,NA,form submission,7088.5,412057.10000002,412054.9,412072,419160.5,419160.69999999,2024-06-15T10:34:23Z,419184,NULL,Flexibilität,kubadilika,s,enjini,usikilivu,hesabu,usikilivu,NA,NA,2,NA,NA,NA,NA,NA,NA,NA,NA,NA,NA,NA,NA,NA,NA,NA,NA,NA,NA,NA
6a69c,"""Richtig""-Screen",canvas.Screen,3_0_2_0_1_1_1,NA,NA,skipped,NA,419163.69999999,NA,NA,419160.5,419163.89999998,2024-06-15T10:34:23Z,419184,NULL,Flexibilität,kubadilika,s,enjini,usikilivu,hesabu,NA,sdf,NA,2,NA,NA,NA,NA,NA,NA,NA,NA,NA,NA,NA,NA,NA,NA,NA,NA,NA,NA,NA
6a69c,"""Falsch""-Screen",canvas.Screen,3_0_2_0_1_1_2,NA,NA,timeout,4996.8,419164.69999999,419167.4,419184,424164.2,424165.19999999,2024-06-15T10:34:28Z,424180.8,NULL,Flexibilität,kubadilika,s,enjini,usikilivu,hesabu,NA,sdf,0,2,NA,NA,NA,NA,NA,NA,NA,NA,NA,NA,NA,NA,NA,NA,NA,NA,NA,NA,NA
6a69c,shallow,flow.Sequence,3_0_2_0_1_1,NA,NA,completion,12092.2,412057,412054.9,412072,424164.2,424165.5,2024-06-15T10:34:28Z,424180.8,NULL,Flexibilität,kubadilika,s,enjini,usikilivu,hesabu,NA,sdf,NA,2,NA,NA,NA,NA,NA,NA,NA,NA,NA,NA,NA,NA,NA,NA,NA,NA,NA,NA,NA
6a69c,task,flow.Sequence,3_0_2_0_1,NA,NA,completion,12092.2,412056.80000001,412054.9,412072,424164.2,424165.69999999,2024-06-15T10:34:28Z,424180.8,NULL,Flexibilität,kubadilika,s,enjini,usikilivu,hesabu,NA,sdf,NA,2,NA,NA,NA,NA,NA,NA,NA,NA,NA,NA,NA,NA,NA,NA,NA,NA,NA,NA,NA
6a69c,deep,flow.Sequence,3_0_2_0_2_0,NA,NA,skipped,NA,424165.89999998,NA,NA,424164.2,424166,2024-06-15T10:34:28Z,424180.8,NULL,Kanzler,diwani,s,rasilmali,mahitaji,maabudu,NA,sdf,NA,2,NA,NA,NA,NA,NA,NA,NA,NA,NA,NA,NA,NA,NA,NA,NA,NA,NA,NA,NA
6a69c,Shallow Question,html.Page,3_0_2_0_2_1_0,NA,NA,form submission,5641.7,424166.19999999,424164.2,424180.8,429822.5,429822.60000002,2024-06-15T10:34:34Z,429827.3,NULL,Kanzler,diwani,s,rasilmali,mahitaji,maabudu,diwani,NA,NA,2,NA,NA,NA,NA,NA,NA,NA,NA,NA,NA,NA,NA,NA,NA,NA,NA,NA,NA,NA
6a69c,"""Richtig""-Screen",canvas.Screen,3_0_2_0_2_1_1,NA,NA,timeout,4997.5,429824.69999999,429811.498,429827.3,434807.7,434808.69999999,2024-06-15T10:34:39Z,434824.8,NULL,Kanzler,diwani,s,rasilmali,mahitaji,maabudu,NA,sdf,1,2,NA,NA,NA,NA,NA,NA,NA,NA,NA,NA,NA,NA,NA,NA,NA,NA,NA,NA,NA
6a69c,"""Falsch""-Screen",canvas.Screen,3_0_2_0_2_1_2,NA,NA,skipped,NA,434813.89999998,NA,NA,434807.7,434814.10000002,2024-06-15T10:34:39Z,434824.8,NULL,Kanzler,diwani,s,rasilmali,mahitaji,maabudu,NA,sdf,NA,2,NA,NA,NA,NA,NA,NA,NA,NA,NA,NA,NA,NA,NA,NA,NA,NA,NA,NA,NA
6a69c,shallow,flow.Sequence,3_0_2_0_2_1,NA,NA,completion,10626.9,424166.19999999,424164.2,424180.8,434807.7,434814.19999999,2024-06-15T10:34:39Z,434824.8,NULL,Kanzler,diwani,s,rasilmali,mahitaji,maabudu,NA,sdf,NA,2,NA,NA,NA,NA,NA,NA,NA,NA,NA,NA,NA,NA,NA,NA,NA,NA,NA,NA,NA
6a69c,task,flow.Sequence,3_0_2_0_2,NA,NA,completion,10626.9,424165.80000001,424164.2,424180.8,434807.7,434814.30000001,2024-06-15T10:34:39Z,434824.8,NULL,Kanzler,diwani,s,rasilmali,mahitaji,maabudu,NA,sdf,NA,2,NA,NA,NA,NA,NA,NA,NA,NA,NA,NA,NA,NA,NA,NA,NA,NA,NA,NA,NA
6a69c,Deep Question,html.Page,3_0_2_0_3_0_0,NA,NA,form submission,6105.0000000119,434814.30000001,434807.7,434824.8,440929.80000001,440930,2024-06-15T10:34:45Z,440937.1,NULL,Wechsel,ugeuzaji,d,NA,NA,NA,wechsel,NA,NA,2,NA,NA,NA,NA,NA,NA,NA,NA,NA,NA,NA,NA,NA,NA,NA,NA,NA,NA,NA
6a69c,"""Richtig""-Screen",canvas.Screen,3_0_2_0_3_0_1,NA,NA,skipped,NA,440932.89999998,NA,NA,440929.80000001,440932.89999998,2024-06-15T10:34:45Z,440937.1,NULL,Wechsel,ugeuzaji,d,NA,NA,NA,NA,sdf,NA,2,NA,NA,NA,NA,NA,NA,NA,NA,NA,NA,NA,NA,NA,NA,NA,NA,NA,NA,NA
6a69c,"""Falsch""-Screen",canvas.Screen,3_0_2_0_3_0_2,NA,NA,timeout,4997.4,440933.69999999,440920.788,440937.1,445917.8,445918.80000001,2024-06-15T10:34:50Z,445934.5,NULL,Wechsel,ugeuzaji,d,NA,NA,NA,NA,sdf,0,2,NA,NA,NA,NA,NA,NA,NA,NA,NA,NA,NA,NA,NA,NA,NA,NA,NA,NA,NA
6a69c,deep,flow.Sequence,3_0_2_0_3_0,NA,NA,completion,11093,434814.30000001,434807.7,434824.8,445917.8,445919.19999999,2024-06-15T10:34:50Z,445934.5,NULL,Wechsel,ugeuzaji,d,NA,NA,NA,NA,sdf,NA,2,NA,NA,NA,NA,NA,NA,NA,NA,NA,NA,NA,NA,NA,NA,NA,NA,NA,NA,NA
6a69c,shallow,flow.Sequence,3_0_2_0_3_1,NA,NA,skipped,NA,445919.39999998,NA,NA,445917.8,445919.60000002,2024-06-15T10:34:50Z,445934.5,NULL,Wechsel,ugeuzaji,d,NA,NA,NA,NA,sdf,NA,2,NA,NA,NA,NA,NA,NA,NA,NA,NA,NA,NA,NA,NA,NA,NA,NA,NA,NA,NA
6a69c,task,flow.Sequence,3_0_2_0_3,NA,NA,completion,11093,434814.30000001,434807.7,434824.8,445917.8,445919.80000001,2024-06-15T10:34:50Z,445934.5,NULL,Wechsel,ugeuzaji,d,NA,NA,NA,NA,sdf,NA,2,NA,NA,NA,NA,NA,NA,NA,NA,NA,NA,NA,NA,NA,NA,NA,NA,NA,NA,NA
6a69c,deep,flow.Sequence,3_0_2_0_4_0,NA,NA,skipped,NA,445920,NA,NA,445917.8,445920.10000002,2024-06-15T10:34:50Z,445934.5,NULL,Atmosphäre,angahewa,s,kuteseka,usahihi,kutoamini,NA,sdf,NA,2,NA,NA,NA,NA,NA,NA,NA,NA,NA,NA,NA,NA,NA,NA,NA,NA,NA,NA,NA
6a69c,Shallow Question,html.Page,3_0_2_0_4_1_0,NA,NA,form submission,9936.6999999881,445920.30000001,445917.8,445934.5,455871.19999999,455871.39999998,2024-06-15T10:35:00Z,455878.1,NULL,Atmosphäre,angahewa,s,kuteseka,usahihi,kutoamini,angahewa,NA,NA,2,NA,NA,NA,NA,NA,NA,NA,NA,NA,NA,NA,NA,NA,NA,NA,NA,NA,NA,NA
6a69c,"""Richtig""-Screen",canvas.Screen,3_0_2_0_4_1_1,NA,NA,timeout,4997.3,455874.5,455862.3,455878.1,460858.6,460859.60000002,2024-06-15T10:35:05Z,460875.4,NULL,Atmosphäre,angahewa,s,kuteseka,usahihi,kutoamini,NA,sdf,1,2,NA,NA,NA,NA,NA,NA,NA,NA,NA,NA,NA,NA,NA,NA,NA,NA,NA,NA,NA
6a69c,"""Falsch""-Screen",canvas.Screen,3_0_2_0_4_1_2,NA,NA,skipped,NA,460864.5,NA,NA,460858.6,460864.60000002,2024-06-15T10:35:05Z,460875.4,NULL,Atmosphäre,angahewa,s,kuteseka,usahihi,kutoamini,NA,sdf,NA,2,NA,NA,NA,NA,NA,NA,NA,NA,NA,NA,NA,NA,NA,NA,NA,NA,NA,NA,NA
6a69c,shallow,flow.Sequence,3_0_2_0_4_1,NA,NA,completion,14924.1,445920.10000002,445917.8,445934.5,460858.6,460864.69999999,2024-06-15T10:35:05Z,460875.4,NULL,Atmosphäre,angahewa,s,kuteseka,usahihi,kutoamini,NA,sdf,NA,2,NA,NA,NA,NA,NA,NA,NA,NA,NA,NA,NA,NA,NA,NA,NA,NA,NA,NA,NA
6a69c,task,flow.Sequence,3_0_2_0_4,NA,NA,completion,14924.1,445919.89999998,445917.8,445934.5,460858.6,460864.69999999,2024-06-15T10:35:05Z,460875.4,NULL,Atmosphäre,angahewa,s,kuteseka,usahihi,kutoamini,NA,sdf,NA,2,NA,NA,NA,NA,NA,NA,NA,NA,NA,NA,NA,NA,NA,NA,NA,NA,NA,NA,NA
6a69c,Deep Question,html.Page,3_0_2_0_5_0_0,NA,NA,form submission,13032.700000024,460864.89999998,460858.6,460875.4,473908.10000002,473908.39999998,2024-06-15T10:35:18Z,473917,NULL,Erneuerung,ukarabati,d,NA,NA,NA,ungazifi,NA,NA,2,NA,NA,NA,NA,NA,NA,NA,NA,NA,NA,NA,NA,NA,NA,NA,NA,NA,NA,NA
6a69c,"""Richtig""-Screen",canvas.Screen,3_0_2_0_5_0_1,NA,NA,skipped,NA,473911.60000002,NA,NA,473908.10000002,473911.89999998,2024-06-15T10:35:18Z,473917,NULL,Erneuerung,ukarabati,d,NA,NA,NA,NA,sdf,NA,2,NA,NA,NA,NA,NA,NA,NA,NA,NA,NA,NA,NA,NA,NA,NA,NA,NA,NA,NA
6a69c,"""Falsch""-Screen",canvas.Screen,3_0_2_0_5_0_2,NA,NA,timeout,4997.3,473912.30000001,473903.224,473917,478897.4,478898.30000001,2024-06-15T10:35:23Z,478914.3,NULL,Erneuerung,ukarabati,d,NA,NA,NA,NA,sdf,0,2,NA,NA,NA,NA,NA,NA,NA,NA,NA,NA,NA,NA,NA,NA,NA,NA,NA,NA,NA
6a69c,deep,flow.Sequence,3_0_2_0_5_0,NA,NA,completion,18022,460864.80000001,460858.6,460875.4,478897.4,478898.69999999,2024-06-15T10:35:23Z,478914.3,NULL,Erneuerung,ukarabati,d,NA,NA,NA,NA,sdf,NA,2,NA,NA,NA,NA,NA,NA,NA,NA,NA,NA,NA,NA,NA,NA,NA,NA,NA,NA,NA
6a69c,shallow,flow.Sequence,3_0_2_0_5_1,NA,NA,skipped,NA,478898.80000001,NA,NA,478897.4,478898.89999998,2024-06-15T10:35:23Z,478914.3,NULL,Erneuerung,ukarabati,d,NA,NA,NA,NA,sdf,NA,2,NA,NA,NA,NA,NA,NA,NA,NA,NA,NA,NA,NA,NA,NA,NA,NA,NA,NA,NA
6a69c,task,flow.Sequence,3_0_2_0_5,NA,NA,completion,18022,460864.80000001,460858.6,460875.4,478897.4,478899.19999999,2024-06-15T10:35:23Z,478914.3,NULL,Erneuerung,ukarabati,d,NA,NA,NA,NA,sdf,NA,2,NA,NA,NA,NA,NA,NA,NA,NA,NA,NA,NA,NA,NA,NA,NA,NA,NA,NA,NA
6a69c,deep,flow.Sequence,3_0_2_0_6_0,NA,NA,skipped,NA,478899.30000001,NA,NA,478897.4,478899.39999998,2024-06-15T10:35:23Z,478914.3,NULL,Abrechnung,uhasibu,s,kusahihisha,mpambano,mashambulizi,NA,sdf,NA,2,NA,NA,NA,NA,NA,NA,NA,NA,NA,NA,NA,NA,NA,NA,NA,NA,NA,NA,NA
6a69c,Shallow Question,html.Page,3_0_2_0_6_1_0,NA,NA,form submission,7490.0999999762,478899.60000002,478897.4,478914.3,486404.39999998,486404.60000002,2024-06-15T10:35:31Z,486409.4,NULL,Abrechnung,uhasibu,s,kusahihisha,mpambano,mashambulizi,kusahihisha,NA,NA,2,NA,NA,NA,NA,NA,NA,NA,NA,NA,NA,NA,NA,NA,NA,NA,NA,NA,NA,NA
6a69c,"""Richtig""-Screen",canvas.Screen,3_0_2_0_6_1_1,NA,NA,skipped,NA,486407.60000002,NA,NA,486404.39999998,486407.80000001,2024-06-15T10:35:31Z,486409.4,NULL,Abrechnung,uhasibu,s,kusahihisha,mpambano,mashambulizi,NA,sdf,NA,2,NA,NA,NA,NA,NA,NA,NA,NA,NA,NA,NA,NA,NA,NA,NA,NA,NA,NA,NA
6a69c,"""Falsch""-Screen",canvas.Screen,3_0_2_0_6_1_2,NA,NA,timeout,4997.1,486408.5,486393.294,486409.4,491389.7,491390.69999999,2024-06-15T10:35:36Z,491406.5,NULL,Abrechnung,uhasibu,s,kusahihisha,mpambano,mashambulizi,NA,sdf,0,2,NA,NA,NA,NA,NA,NA,NA,NA,NA,NA,NA,NA,NA,NA,NA,NA,NA,NA,NA
6a69c,shallow,flow.Sequence,3_0_2_0_6_1,NA,NA,completion,12475.4,478899.5,478897.4,478914.3,491389.7,491391.10000002,2024-06-15T10:35:36Z,491406.5,NULL,Abrechnung,uhasibu,s,kusahihisha,mpambano,mashambulizi,NA,sdf,NA,2,NA,NA,NA,NA,NA,NA,NA,NA,NA,NA,NA,NA,NA,NA,NA,NA,NA,NA,NA
6a69c,task,flow.Sequence,3_0_2_0_6,NA,NA,completion,12475.4,478899.19999999,478897.4,478914.3,491389.7,491391.30000001,2024-06-15T10:35:36Z,491406.5,NULL,Abrechnung,uhasibu,s,kusahihisha,mpambano,mashambulizi,NA,sdf,NA,2,NA,NA,NA,NA,NA,NA,NA,NA,NA,NA,NA,NA,NA,NA,NA,NA,NA,NA,NA
6a69c,Deep Question,html.Page,3_0_2_0_7_0_0,NA,NA,form submission,4700.6000000238,491391.5,491389.7,491406.5,496107.10000002,496107.30000001,2024-06-15T10:35:40Z,496120.4,NULL,Sänger,mwimbaji,d,NA,NA,NA,sänger,NA,NA,2,NA,NA,NA,NA,NA,NA,NA,NA,NA,NA,NA,NA,NA,NA,NA,NA,NA,NA,NA
6a69c,"""Richtig""-Screen",canvas.Screen,3_0_2_0_7_0_1,NA,NA,skipped,NA,496110.30000001,NA,NA,496107.10000002,496110.39999998,2024-06-15T10:35:40Z,496120.4,NULL,Sänger,mwimbaji,d,NA,NA,NA,NA,sdf,NA,2,NA,NA,NA,NA,NA,NA,NA,NA,NA,NA,NA,NA,NA,NA,NA,NA,NA,NA,NA
6a69c,"""Falsch""-Screen",canvas.Screen,3_0_2_0_7_0_2,NA,NA,timeout,4996.9,496111.19999999,496103.92,496120.4,501100.9,501101.80000001,2024-06-15T10:35:45Z,501117.3,NULL,Sänger,mwimbaji,d,NA,NA,NA,NA,sdf,0,2,NA,NA,NA,NA,NA,NA,NA,NA,NA,NA,NA,NA,NA,NA,NA,NA,NA,NA,NA
6a69c,deep,flow.Sequence,3_0_2_0_7_0,NA,NA,completion,9694.4,491391.39999998,491389.7,491406.5,501100.9,501102.30000001,2024-06-15T10:35:45Z,501117.3,NULL,Sänger,mwimbaji,d,NA,NA,NA,NA,sdf,NA,2,NA,NA,NA,NA,NA,NA,NA,NA,NA,NA,NA,NA,NA,NA,NA,NA,NA,NA,NA
6a69c,shallow,flow.Sequence,3_0_2_0_7_1,NA,NA,skipped,NA,501102.39999998,NA,NA,501100.9,501102.60000002,2024-06-15T10:35:45Z,501117.3,NULL,Sänger,mwimbaji,d,NA,NA,NA,NA,sdf,NA,2,NA,NA,NA,NA,NA,NA,NA,NA,NA,NA,NA,NA,NA,NA,NA,NA,NA,NA,NA
6a69c,task,flow.Sequence,3_0_2_0_7,NA,NA,completion,9694.4,491391.39999998,491389.7,491406.5,501100.9,501102.80000001,2024-06-15T10:35:45Z,501117.3,NULL,Sänger,mwimbaji,d,NA,NA,NA,NA,sdf,NA,2,NA,NA,NA,NA,NA,NA,NA,NA,NA,NA,NA,NA,NA,NA,NA,NA,NA,NA,NA
6a69c,block,flow.Loop,3_0_2_0,NA,NA,completion,103187,397897.89999998,397897.918,397913.9,501100.9,501103,2024-06-15T10:35:45Z,501117.3,NULL,NA,NA,NA,NA,NA,NA,NA,sdf,NA,2,NA,NA,NA,NA,NA,NA,NA,NA,NA,NA,NA,NA,NA,NA,NA,NA,NA,NA,NA
6a69c,weiter,canvas.Screen,3_0_2_1,sdf,keypress(Space),response,1032.0000000119,501103.10000002,501100.9,501117.3,502149.30000001,502150.19999999,2024-06-15T10:35:46Z,502183.6,NULL,NA,NA,NA,NA,NA,NA,NA,sdf,NA,2,NA,NA,NA,NA,NA,NA,NA,NA,NA,NA,NA,NA,NA,NA,NA,NA,NA,NA,NA
6a69c,check continue,flow.Sequence,3_0_2,NA,NA,completion,104235.40000001,397897.80000001,397897.918,397913.9,502149.30000001,502150.39999998,2024-06-15T10:35:46Z,502183.6,NULL,NA,NA,NA,NA,NA,NA,NA,sdf,NA,2,NA,NA,NA,NA,NA,NA,NA,NA,NA,NA,NA,NA,NA,NA,NA,NA,NA,NA,NA
6a69c,deep,flow.Sequence,3_0_3_0_0_0,NA,NA,skipped,NA,502169.60000002,NA,NA,502149.30000001,502169.60000002,2024-06-15T10:35:46Z,502183.6,NULL,Flexibilität,kubadilika,s,enjini,usikilivu,hesabu,NA,qt,NA,3,NA,NA,NA,NA,NA,NA,NA,NA,NA,NA,NA,NA,NA,NA,NA,NA,NA,NA,NA
6a69c,Shallow Question,html.Page,3_0_3_0_0_1_0,NA,NA,form submission,10419.9,502169.69999999,502167.4,502183.6,512603.5,512603.80000001,2024-06-15T10:35:57Z,512610.1,NULL,Flexibilität,kubadilika,s,enjini,usikilivu,hesabu,kubadilika,NA,NA,3,NA,NA,NA,NA,NA,NA,NA,NA,NA,NA,NA,NA,NA,NA,NA,NA,NA,NA,NA
6a69c,"""Richtig""-Screen",canvas.Screen,3_0_3_0_0_1_1,NA,NA,timeout,4996.9,512606.80000001,512596.93,512610.1,517590.5,517591.5,2024-06-15T10:36:02Z,517607,NULL,Flexibilität,kubadilika,s,enjini,usikilivu,hesabu,NA,qt,1,3,NA,NA,NA,NA,NA,NA,NA,NA,NA,NA,NA,NA,NA,NA,NA,NA,NA,NA,NA
6a69c,"""Falsch""-Screen",canvas.Screen,3_0_3_0_0_1_2,NA,NA,skipped,NA,517596.89999998,NA,NA,517590.5,517597.10000002,2024-06-15T10:36:02Z,517607,NULL,Flexibilität,kubadilika,s,enjini,usikilivu,hesabu,NA,qt,NA,3,NA,NA,NA,NA,NA,NA,NA,NA,NA,NA,NA,NA,NA,NA,NA,NA,NA,NA,NA
6a69c,shallow,flow.Sequence,3_0_3_0_0_1,NA,NA,completion,15406.9,502169.69999999,502167.4,502183.6,517590.5,517597.30000001,2024-06-15T10:36:02Z,517607,NULL,Flexibilität,kubadilika,s,enjini,usikilivu,hesabu,NA,qt,NA,3,NA,NA,NA,NA,NA,NA,NA,NA,NA,NA,NA,NA,NA,NA,NA,NA,NA,NA,NA
6a69c,task,flow.Sequence,3_0_3_0_0,NA,NA,completion,15406.9,502169.60000002,502167.4,502183.6,517590.5,517597.60000002,2024-06-15T10:36:02Z,517607,NULL,Flexibilität,kubadilika,s,enjini,usikilivu,hesabu,NA,qt,NA,3,NA,NA,NA,NA,NA,NA,NA,NA,NA,NA,NA,NA,NA,NA,NA,NA,NA,NA,NA
6a69c,deep,flow.Sequence,3_0_3_0_1_0,NA,NA,skipped,NA,517597.69999999,NA,NA,517590.5,517597.89999998,2024-06-15T10:36:02Z,517607,NULL,Kanzler,diwani,s,rasilmali,mahitaji,maabudu,NA,qt,NA,3,NA,NA,NA,NA,NA,NA,NA,NA,NA,NA,NA,NA,NA,NA,NA,NA,NA,NA,NA
6a69c,Shallow Question,html.Page,3_0_3_0_1_1_0,NA,NA,form submission,6000.6000000238,517598,517590.5,517607,523607.60000002,523607.80000001,2024-06-15T10:36:08Z,523620,NULL,Kanzler,diwani,s,rasilmali,mahitaji,maabudu,diwani,NA,NA,3,NA,NA,NA,NA,NA,NA,NA,NA,NA,NA,NA,NA,NA,NA,NA,NA,NA,NA,NA
6a69c,"""Richtig""-Screen",canvas.Screen,3_0_3_0_1_1_1,NA,NA,timeout,4997,523610.80000001,523604.044,523620,528600.4,528601.5,2024-06-15T10:36:13Z,528617,NULL,Kanzler,diwani,s,rasilmali,mahitaji,maabudu,NA,qt,1,3,NA,NA,NA,NA,NA,NA,NA,NA,NA,NA,NA,NA,NA,NA,NA,NA,NA,NA,NA
6a69c,"""Falsch""-Screen",canvas.Screen,3_0_3_0_1_1_2,NA,NA,skipped,NA,528606.69999999006,NA,NA,528600.4,528606.80000000994,2024-06-15T10:36:13Z,528617,NULL,Kanzler,diwani,s,rasilmali,mahitaji,maabudu,NA,qt,NA,3,NA,NA,NA,NA,NA,NA,NA,NA,NA,NA,NA,NA,NA,NA,NA,NA,NA,NA,NA
6a69c,shallow,flow.Sequence,3_0_3_0_1_1,NA,NA,completion,10993.4,517597.89999998,517590.5,517607,528600.4,528606.89999998,2024-06-15T10:36:13Z,528617,NULL,Kanzler,diwani,s,rasilmali,mahitaji,maabudu,NA,qt,NA,3,NA,NA,NA,NA,NA,NA,NA,NA,NA,NA,NA,NA,NA,NA,NA,NA,NA,NA,NA
6a69c,task,flow.Sequence,3_0_3_0_1,NA,NA,completion,10993.4,517597.60000002,517590.5,517607,528600.4,528607,2024-06-15T10:36:13Z,528617,NULL,Kanzler,diwani,s,rasilmali,mahitaji,maabudu,NA,qt,NA,3,NA,NA,NA,NA,NA,NA,NA,NA,NA,NA,NA,NA,NA,NA,NA,NA,NA,NA,NA
6a69c,Deep Question,html.Page,3_0_3_0_2_0_0,NA,NA,form submission,8558.3000000119,528607.10000002,528600.4,528617,537175.30000000994,537175.60000002,2024-06-15T10:36:21Z,537179.292,NULL,Erneuerung,ukarabati,d,NA,NA,NA,ushakibili,NA,NA,3,NA,NA,NA,NA,NA,NA,NA,NA,NA,NA,NA,NA,NA,NA,NA,NA,NA,NA,NA
6a69c,"""Richtig""-Screen",canvas.Screen,3_0_3_0_2_0_1,NA,NA,skipped,NA,537178.60000002,NA,NA,537175.30000000994,537178.69999999006,2024-06-15T10:36:21Z,537179.292,NULL,Erneuerung,ukarabati,d,NA,NA,NA,NA,qt,NA,3,NA,NA,NA,NA,NA,NA,NA,NA,NA,NA,NA,NA,NA,NA,NA,NA,NA,NA,NA
6a69c,"""Falsch""-Screen",canvas.Screen,3_0_3_0_2_0_2,NA,NA,timeout,4996.4079999999,537179.39999998,537179.292,537179.292,542159,542160,2024-06-15T10:36:26Z,542175.7,NULL,Erneuerung,ukarabati,d,NA,NA,NA,NA,qt,0,3,NA,NA,NA,NA,NA,NA,NA,NA,NA,NA,NA,NA,NA,NA,NA,NA,NA,NA,NA
6a69c,deep,flow.Sequence,3_0_3_0_2_0,NA,NA,completion,13542,528607.10000002,528600.4,528617,542159,542160.5,2024-06-15T10:36:26Z,542175.7,NULL,Erneuerung,ukarabati,d,NA,NA,NA,NA,qt,NA,3,NA,NA,NA,NA,NA,NA,NA,NA,NA,NA,NA,NA,NA,NA,NA,NA,NA,NA,NA
6a69c,shallow,flow.Sequence,3_0_3_0_2_1,NA,NA,skipped,NA,542160.60000002,NA,NA,542159,542160.80000000994,2024-06-15T10:36:26Z,542175.7,NULL,Erneuerung,ukarabati,d,NA,NA,NA,NA,qt,NA,3,NA,NA,NA,NA,NA,NA,NA,NA,NA,NA,NA,NA,NA,NA,NA,NA,NA,NA,NA
6a69c,task,flow.Sequence,3_0_3_0_2,NA,NA,completion,13542,528607.10000002,528600.4,528617,542159,542161,2024-06-15T10:36:26Z,542175.7,NULL,Erneuerung,ukarabati,d,NA,NA,NA,NA,qt,NA,3,NA,NA,NA,NA,NA,NA,NA,NA,NA,NA,NA,NA,NA,NA,NA,NA,NA,NA,NA
6a69c,Deep Question,html.Page,3_0_3_0_3_0_0,NA,NA,form submission,6024.3,542161.19999999006,542159,542175.7,548200,548200.19999999006,2024-06-15T10:36:32Z,548205,NULL,Angreifer,mshambulizi,d,NA,NA,NA,eifer,NA,NA,3,NA,NA,NA,NA,NA,NA,NA,NA,NA,NA,NA,NA,NA,NA,NA,NA,NA,NA,NA
6a69c,"""Richtig""-Screen",canvas.Screen,3_0_3_0_3_0_1,NA,NA,skipped,NA,548202.80000001,NA,NA,548200,548202.89999998,2024-06-15T10:36:32Z,548205,NULL,Angreifer,mshambulizi,d,NA,NA,NA,NA,qt,NA,3,NA,NA,NA,NA,NA,NA,NA,NA,NA,NA,NA,NA,NA,NA,NA,NA,NA,NA,NA
6a69c,"""Falsch""-Screen",canvas.Screen,3_0_3_0_3_0_2,NA,NA,timeout,4997.4,548203.30000001,548189.51,548205,553185.6,553186.69999999006,2024-06-15T10:36:37Z,553202.4,NULL,Angreifer,mshambulizi,d,NA,NA,NA,NA,qt,0,3,NA,NA,NA,NA,NA,NA,NA,NA,NA,NA,NA,NA,NA,NA,NA,NA,NA,NA,NA
6a69c,deep,flow.Sequence,3_0_3_0_3_0,NA,NA,completion,11009.9,542161.19999999006,542159,542175.7,553185.6,553187.10000002,2024-06-15T10:36:37Z,553202.4,NULL,Angreifer,mshambulizi,d,NA,NA,NA,NA,qt,NA,3,NA,NA,NA,NA,NA,NA,NA,NA,NA,NA,NA,NA,NA,NA,NA,NA,NA,NA,NA
6a69c,shallow,flow.Sequence,3_0_3_0_3_1,NA,NA,skipped,NA,553187.19999999006,NA,NA,553185.6,553187.39999998,2024-06-15T10:36:37Z,553202.4,NULL,Angreifer,mshambulizi,d,NA,NA,NA,NA,qt,NA,3,NA,NA,NA,NA,NA,NA,NA,NA,NA,NA,NA,NA,NA,NA,NA,NA,NA,NA,NA
6a69c,task,flow.Sequence,3_0_3_0_3,NA,NA,completion,11009.9,542161.10000002,542159,542175.7,553185.6,553187.5,2024-06-15T10:36:37Z,553202.4,NULL,Angreifer,mshambulizi,d,NA,NA,NA,NA,qt,NA,3,NA,NA,NA,NA,NA,NA,NA,NA,NA,NA,NA,NA,NA,NA,NA,NA,NA,NA,NA
6a69c,deep,flow.Sequence,3_0_3_0_4_0,NA,NA,skipped,NA,553187.69999999006,NA,NA,553185.6,553187.80000000994,2024-06-15T10:36:37Z,553202.4,NULL,Atmosphäre,angahewa,s,kuteseka,usahihi,kutoamini,NA,qt,NA,3,NA,NA,NA,NA,NA,NA,NA,NA,NA,NA,NA,NA,NA,NA,NA,NA,NA,NA,NA
6a69c,Shallow Question,html.Page,3_0_3_0_4_1_0,NA,NA,form submission,8742.4999999761,553187.89999998,553185.6,553202.4,561944.89999998,561945.10000002,2024-06-15T10:36:46Z,561963.4,NULL,Atmosphäre,angahewa,s,kuteseka,usahihi,kutoamini,angahewa,NA,NA,3,NA,NA,NA,NA,NA,NA,NA,NA,NA,NA,NA,NA,NA,NA,NA,NA,NA,NA,NA
6a69c,"""Richtig""-Screen",canvas.Screen,3_0_3_0_4_1_1,NA,NA,timeout,4997.2,561947,561946.6,561963.4,566943.9,566945,2024-06-15T10:36:51Z,566960.6,NULL,Atmosphäre,angahewa,s,kuteseka,usahihi,kutoamini,NA,qt,1,3,NA,NA,NA,NA,NA,NA,NA,NA,NA,NA,NA,NA,NA,NA,NA,NA,NA,NA,NA
6a69c,"""Falsch""-Screen",canvas.Screen,3_0_3_0_4_1_2,NA,NA,skipped,NA,566950,NA,NA,566943.9,566950.10000002,2024-06-15T10:36:51Z,566960.6,NULL,Atmosphäre,angahewa,s,kuteseka,usahihi,kutoamini,NA,qt,NA,3,NA,NA,NA,NA,NA,NA,NA,NA,NA,NA,NA,NA,NA,NA,NA,NA,NA,NA,NA
6a69c,shallow,flow.Sequence,3_0_3_0_4_1,NA,NA,completion,13741.5,553187.89999998,553185.6,553202.4,566943.9,566950.19999999006,2024-06-15T10:36:51Z,566960.6,NULL,Atmosphäre,angahewa,s,kuteseka,usahihi,kutoamini,NA,qt,NA,3,NA,NA,NA,NA,NA,NA,NA,NA,NA,NA,NA,NA,NA,NA,NA,NA,NA,NA,NA
6a69c,task,flow.Sequence,3_0_3_0_4,NA,NA,completion,13741.5,553187.60000002,553185.6,553202.4,566943.9,566950.19999999006,2024-06-15T10:36:51Z,566960.6,NULL,Atmosphäre,angahewa,s,kuteseka,usahihi,kutoamini,NA,qt,NA,3,NA,NA,NA,NA,NA,NA,NA,NA,NA,NA,NA,NA,NA,NA,NA,NA,NA,NA,NA
6a69c,Deep Question,html.Page,3_0_3_0_5_0_0,NA,NA,form submission,4359.5999999881,566950.19999999006,566943.9,566960.6,571320.19999999006,571320.39999998,2024-06-15T10:36:56Z,571324.2,NULL,Sänger,mwimbaji,d,NA,NA,NA,sänger,NA,NA,3,NA,NA,NA,NA,NA,NA,NA,NA,NA,NA,NA,NA,NA,NA,NA,NA,NA,NA,NA
6a69c,"""Richtig""-Screen",canvas.Screen,3_0_3_0_5_0_1,NA,NA,skipped,NA,571323.60000002,NA,NA,571320.19999999006,571323.60000002,2024-06-15T10:36:56Z,571324.2,NULL,Sänger,mwimbaji,d,NA,NA,NA,NA,qt,NA,3,NA,NA,NA,NA,NA,NA,NA,NA,NA,NA,NA,NA,NA,NA,NA,NA,NA,NA,NA
6a69c,"""Falsch""-Screen",canvas.Screen,3_0_3_0_5_0_2,NA,NA,timeout,4997.4,571324.30000001,571309.398,571324.2,576304.8,576305.80000001,2024-06-15T10:37:01Z,576321.6,NULL,Sänger,mwimbaji,d,NA,NA,NA,NA,qt,0,3,NA,NA,NA,NA,NA,NA,NA,NA,NA,NA,NA,NA,NA,NA,NA,NA,NA,NA,NA
6a69c,deep,flow.Sequence,3_0_3_0_5_0,NA,NA,completion,9344.2000000001,566950.19999999006,566943.9,566960.6,576304.8,576306.19999999006,2024-06-15T10:37:01Z,576321.6,NULL,Sänger,mwimbaji,d,NA,NA,NA,NA,qt,NA,3,NA,NA,NA,NA,NA,NA,NA,NA,NA,NA,NA,NA,NA,NA,NA,NA,NA,NA,NA
6a69c,shallow,flow.Sequence,3_0_3_0_5_1,NA,NA,skipped,NA,576306.19999999006,NA,NA,576304.8,576306.39999998,2024-06-15T10:37:01Z,576321.6,NULL,Sänger,mwimbaji,d,NA,NA,NA,NA,qt,NA,3,NA,NA,NA,NA,NA,NA,NA,NA,NA,NA,NA,NA,NA,NA,NA,NA,NA,NA,NA
6a69c,task,flow.Sequence,3_0_3_0_5,NA,NA,completion,9344.2000000001,566950.19999999006,566943.9,566960.6,576304.8,576306.60000002,2024-06-15T10:37:01Z,576321.6,NULL,Sänger,mwimbaji,d,NA,NA,NA,NA,qt,NA,3,NA,NA,NA,NA,NA,NA,NA,NA,NA,NA,NA,NA,NA,NA,NA,NA,NA,NA,NA
6a69c,deep,flow.Sequence,3_0_3_0_6_0,NA,NA,skipped,NA,576306.80000001,NA,NA,576304.8,576307,2024-06-15T10:37:01Z,576321.6,NULL,Abrechnung,uhasibu,s,kusahihisha,mpambano,mashambulizi,NA,qt,NA,3,NA,NA,NA,NA,NA,NA,NA,NA,NA,NA,NA,NA,NA,NA,NA,NA,NA,NA,NA
6a69c,Shallow Question,html.Page,3_0_3_0_6_1_0,NA,NA,form submission,10885.700000012,576307,576304.8,576321.6,587207.30000001,587207.60000002,2024-06-15T10:37:11Z,587214.4,NULL,Abrechnung,uhasibu,s,kusahihisha,mpambano,mashambulizi,uhasibu,NA,NA,3,NA,NA,NA,NA,NA,NA,NA,NA,NA,NA,NA,NA,NA,NA,NA,NA,NA,NA,NA
6a69c,"""Richtig""-Screen",canvas.Screen,3_0_3_0_6_1_1,NA,NA,timeout,4997.4,587210.60000002,587198.452,587214.4,592194.9,592196,2024-06-15T10:37:16Z,592211.8,NULL,Abrechnung,uhasibu,s,kusahihisha,mpambano,mashambulizi,NA,qt,1,3,NA,NA,NA,NA,NA,NA,NA,NA,NA,NA,NA,NA,NA,NA,NA,NA,NA,NA,NA
6a69c,"""Falsch""-Screen",canvas.Screen,3_0_3_0_6_1_2,NA,NA,skipped,NA,592201.10000002,NA,NA,592194.9,592201.19999999006,2024-06-15T10:37:16Z,592211.8,NULL,Abrechnung,uhasibu,s,kusahihisha,mpambano,mashambulizi,NA,qt,NA,3,NA,NA,NA,NA,NA,NA,NA,NA,NA,NA,NA,NA,NA,NA,NA,NA,NA,NA,NA
6a69c,shallow,flow.Sequence,3_0_3_0_6_1,NA,NA,completion,15873.3,576307,576304.8,576321.6,592194.9,592201.30000000994,2024-06-15T10:37:16Z,592211.8,NULL,Abrechnung,uhasibu,s,kusahihisha,mpambano,mashambulizi,NA,qt,NA,3,NA,NA,NA,NA,NA,NA,NA,NA,NA,NA,NA,NA,NA,NA,NA,NA,NA,NA,NA
6a69c,task,flow.Sequence,3_0_3_0_6,NA,NA,completion,15873.3,576306.80000001,576304.8,576321.6,592194.9,592201.5,2024-06-15T10:37:16Z,592211.8,NULL,Abrechnung,uhasibu,s,kusahihisha,mpambano,mashambulizi,NA,qt,NA,3,NA,NA,NA,NA,NA,NA,NA,NA,NA,NA,NA,NA,NA,NA,NA,NA,NA,NA,NA
6a69c,Deep Question,html.Page,3_0_3_0_7_0_0,NA,NA,form submission,4668.8000000238,592201.5,592194.9,592211.8,596880.60000002,596880.69999999006,2024-06-15T10:37:21Z,596892,NULL,Wechsel,ugeuzaji,d,NA,NA,NA,wechsel,NA,NA,3,NA,NA,NA,NA,NA,NA,NA,NA,NA,NA,NA,NA,NA,NA,NA,NA,NA,NA,NA
6a69c,"""Richtig""-Screen",canvas.Screen,3_0_3_0_7_0_1,NA,NA,skipped,NA,596882.5,NA,NA,596880.60000002,596882.5,2024-06-15T10:37:21Z,596892,NULL,Wechsel,ugeuzaji,d,NA,NA,NA,NA,qt,NA,3,NA,NA,NA,NA,NA,NA,NA,NA,NA,NA,NA,NA,NA,NA,NA,NA,NA,NA,NA
6a69c,"""Falsch""-Screen",canvas.Screen,3_0_3_0_7_0_2,NA,NA,timeout,4997.2,596883,596877.462,596892,601872.2,601873.19999999006,2024-06-15T10:37:26Z,601889.2,NULL,Wechsel,ugeuzaji,d,NA,NA,NA,NA,qt,0,3,NA,NA,NA,NA,NA,NA,NA,NA,NA,NA,NA,NA,NA,NA,NA,NA,NA,NA,NA
6a69c,deep,flow.Sequence,3_0_3_0_7_0,NA,NA,completion,9660.3999999999,592201.5,592194.9,592211.8,601872.2,601873.5,2024-06-15T10:37:26Z,601889.2,NULL,Wechsel,ugeuzaji,d,NA,NA,NA,NA,qt,NA,3,NA,NA,NA,NA,NA,NA,NA,NA,NA,NA,NA,NA,NA,NA,NA,NA,NA,NA,NA
6a69c,shallow,flow.Sequence,3_0_3_0_7_1,NA,NA,skipped,NA,601873.60000002,NA,NA,601872.2,601873.80000001,2024-06-15T10:37:26Z,601889.2,NULL,Wechsel,ugeuzaji,d,NA,NA,NA,NA,qt,NA,3,NA,NA,NA,NA,NA,NA,NA,NA,NA,NA,NA,NA,NA,NA,NA,NA,NA,NA,NA
6a69c,task,flow.Sequence,3_0_3_0_7,NA,NA,completion,9660.3999999999,592201.5,592194.9,592211.8,601872.2,601874,2024-06-15T10:37:26Z,601889.2,NULL,Wechsel,ugeuzaji,d,NA,NA,NA,NA,qt,NA,3,NA,NA,NA,NA,NA,NA,NA,NA,NA,NA,NA,NA,NA,NA,NA,NA,NA,NA,NA
6a69c,block,flow.Loop,3_0_3_0,NA,NA,completion,99688.6,502169.60000002,502167.4,502183.6,601872.2,601874.30000000994,2024-06-15T10:37:26Z,601889.2,NULL,NA,NA,NA,NA,NA,NA,NA,qt,NA,3,NA,NA,NA,NA,NA,NA,NA,NA,NA,NA,NA,NA,NA,NA,NA,NA,NA,NA,NA
6a69c,weiter,canvas.Screen,3_0_3_1,sdf,keypress(Space),response,1763.1999999762,601874.39999998,601872.2,601889.2,603652.39999998,603653.30000001,2024-06-15T10:37:28Z,603688.4,NULL,NA,NA,NA,NA,NA,NA,NA,qt,NA,3,NA,NA,NA,NA,NA,NA,NA,NA,NA,NA,NA,NA,NA,NA,NA,NA,NA,NA,NA
6a69c,check continue,flow.Sequence,3_0_3,NA,NA,completion,101468.79999998,502169.5,502167.4,502183.6,603652.39999998,603653.69999999006,2024-06-15T10:37:28Z,603688.4,NULL,NA,NA,NA,NA,NA,NA,NA,qt,NA,3,NA,NA,NA,NA,NA,NA,NA,NA,NA,NA,NA,NA,NA,NA,NA,NA,NA,NA,NA
6a69c,Deep Question,html.Page,3_0_4_0_0_0_0,NA,NA,form submission,33832.499999976,603673,603672.462,603688.4,637520.89999998,637521.10000002,2024-06-15T10:38:02Z,637533.8,NULL,Wechsel,ugeuzaji,d,NA,NA,NA,ukarabti,NA,NA,4,NA,NA,NA,NA,NA,NA,NA,NA,NA,NA,NA,NA,NA,NA,NA,NA,NA,NA,NA
6a69c,"""Richtig""-Screen",canvas.Screen,3_0_4_0_0_0_1,NA,NA,skipped,NA,637525.10000002,NA,NA,637520.89999998,637525.19999999006,2024-06-15T10:38:02Z,637533.8,NULL,Wechsel,ugeuzaji,d,NA,NA,NA,NA,sd,NA,4,NA,NA,NA,NA,NA,NA,NA,NA,NA,NA,NA,NA,NA,NA,NA,NA,NA,NA,NA
6a69c,"""Falsch""-Screen",canvas.Screen,3_0_4_0_0_0_2,NA,NA,timeout,4997.3999999999,637526,637520.314,637533.8,642514.3,642515.30000001,2024-06-15T10:38:07Z,642531.2,NULL,Wechsel,ugeuzaji,d,NA,NA,NA,NA,sd,0,4,NA,NA,NA,NA,NA,NA,NA,NA,NA,NA,NA,NA,NA,NA,NA,NA,NA,NA,NA
6a69c,deep,flow.Sequence,3_0_4_0_0_0,NA,NA,completion,38825.9,603673,603672.462,603688.4,642514.3,642515.69999999006,2024-06-15T10:38:07Z,642531.2,NULL,Wechsel,ugeuzaji,d,NA,NA,NA,NA,sd,NA,4,NA,NA,NA,NA,NA,NA,NA,NA,NA,NA,NA,NA,NA,NA,NA,NA,NA,NA,NA
6a69c,shallow,flow.Sequence,3_0_4_0_0_1,NA,NA,skipped,NA,642515.80000001,NA,NA,642514.3,642515.89999998,2024-06-15T10:38:07Z,642531.2,NULL,Wechsel,ugeuzaji,d,NA,NA,NA,NA,sd,NA,4,NA,NA,NA,NA,NA,NA,NA,NA,NA,NA,NA,NA,NA,NA,NA,NA,NA,NA,NA
6a69c,task,flow.Sequence,3_0_4_0_0,NA,NA,completion,38825.9,603673,603672.462,603688.4,642514.3,642516.19999999006,2024-06-15T10:38:07Z,642531.2,NULL,Wechsel,ugeuzaji,d,NA,NA,NA,NA,sd,NA,4,NA,NA,NA,NA,NA,NA,NA,NA,NA,NA,NA,NA,NA,NA,NA,NA,NA,NA,NA
6a69c,deep,flow.Sequence,3_0_4_0_1_0,NA,NA,skipped,NA,642516.39999998,NA,NA,642514.3,642516.39999998,2024-06-15T10:38:07Z,642531.2,NULL,Abrechnung,uhasibu,s,kusahihisha,mpambano,mashambulizi,NA,sd,NA,4,NA,NA,NA,NA,NA,NA,NA,NA,NA,NA,NA,NA,NA,NA,NA,NA,NA,NA,NA
6a69c,Shallow Question,html.Page,3_0_4_0_1_1_0,NA,NA,form submission,6393.600000012,642516.60000002,642514.3,642531.2,648924.80000001,648925,2024-06-15T10:38:13Z,648926.93,NULL,Abrechnung,uhasibu,s,kusahihisha,mpambano,mashambulizi,uhasibu,NA,NA,4,NA,NA,NA,NA,NA,NA,NA,NA,NA,NA,NA,NA,NA,NA,NA,NA,NA,NA,NA
6a69c,"""Richtig""-Screen",canvas.Screen,3_0_4_0_1_1_1,NA,NA,timeout,4996.87,648928.30000001,648926.93,648926.93,653907.1,653908.10000002,2024-06-15T10:38:18Z,653923.8,NULL,Abrechnung,uhasibu,s,kusahihisha,mpambano,mashambulizi,NA,sd,1,4,NA,NA,NA,NA,NA,NA,NA,NA,NA,NA,NA,NA,NA,NA,NA,NA,NA,NA,NA
6a69c,"""Falsch""-Screen",canvas.Screen,3_0_4_0_1_1_2,NA,NA,skipped,NA,653913.30000001,NA,NA,653907.1,653913.39999998,2024-06-15T10:38:18Z,653923.8,NULL,Abrechnung,uhasibu,s,kusahihisha,mpambano,mashambulizi,NA,sd,NA,4,NA,NA,NA,NA,NA,NA,NA,NA,NA,NA,NA,NA,NA,NA,NA,NA,NA,NA,NA
6a69c,shallow,flow.Sequence,3_0_4_0_1_1,NA,NA,completion,11375.9,642516.5,642514.3,642531.2,653907.1,653913.60000002,2024-06-15T10:38:18Z,653923.8,NULL,Abrechnung,uhasibu,s,kusahihisha,mpambano,mashambulizi,NA,sd,NA,4,NA,NA,NA,NA,NA,NA,NA,NA,NA,NA,NA,NA,NA,NA,NA,NA,NA,NA,NA
6a69c,task,flow.Sequence,3_0_4_0_1,NA,NA,completion,11375.9,642516.19999999006,642514.3,642531.2,653907.1,653913.69999999006,2024-06-15T10:38:18Z,653923.8,NULL,Abrechnung,uhasibu,s,kusahihisha,mpambano,mashambulizi,NA,sd,NA,4,NA,NA,NA,NA,NA,NA,NA,NA,NA,NA,NA,NA,NA,NA,NA,NA,NA,NA,NA
6a69c,deep,flow.Sequence,3_0_4_0_2_0,NA,NA,skipped,NA,653913.69999999006,NA,NA,653907.1,653913.69999999006,2024-06-15T10:38:18Z,653923.8,NULL,Flexibilität,kubadilika,s,enjini,usikilivu,hesabu,NA,sd,NA,4,NA,NA,NA,NA,NA,NA,NA,NA,NA,NA,NA,NA,NA,NA,NA,NA,NA,NA,NA
6a69c,Shallow Question,html.Page,3_0_4_0_2_1_0,NA,NA,form submission,9024.0000000119,653913.69999999006,653907.1,653923.8,662947.80000000994,662948.10000002,2024-06-15T10:38:27Z,662951.5,NULL,Flexibilität,kubadilika,s,enjini,usikilivu,hesabu,kubadilika,NA,NA,4,NA,NA,NA,NA,NA,NA,NA,NA,NA,NA,NA,NA,NA,NA,NA,NA,NA,NA,NA
6a69c,"""Richtig""-Screen",canvas.Screen,3_0_4_0_2_1_1,NA,NA,timeout,4997.4,662949.5,662935.578,662951.5,667932,667933,2024-06-15T10:38:32Z,667948.9,NULL,Flexibilität,kubadilika,s,enjini,usikilivu,hesabu,NA,sd,1,4,NA,NA,NA,NA,NA,NA,NA,NA,NA,NA,NA,NA,NA,NA,NA,NA,NA,NA,NA
6a69c,"""Falsch""-Screen",canvas.Screen,3_0_4_0_2_1_2,NA,NA,skipped,NA,667938.30000000994,NA,NA,667932,667938.39999998,2024-06-15T10:38:32Z,667948.9,NULL,Flexibilität,kubadilika,s,enjini,usikilivu,hesabu,NA,sd,NA,4,NA,NA,NA,NA,NA,NA,NA,NA,NA,NA,NA,NA,NA,NA,NA,NA,NA,NA,NA
6a69c,shallow,flow.Sequence,3_0_4_0_2_1,NA,NA,completion,14008.2,653913.69999999006,653907.1,653923.8,667932,667938.5,2024-06-15T10:38:32Z,667948.9,NULL,Flexibilität,kubadilika,s,enjini,usikilivu,hesabu,NA,sd,NA,4,NA,NA,NA,NA,NA,NA,NA,NA,NA,NA,NA,NA,NA,NA,NA,NA,NA,NA,NA
6a69c,task,flow.Sequence,3_0_4_0_2,NA,NA,completion,14008.2,653913.69999999006,653907.1,653923.8,667932,667938.60000002,2024-06-15T10:38:32Z,667948.9,NULL,Flexibilität,kubadilika,s,enjini,usikilivu,hesabu,NA,sd,NA,4,NA,NA,NA,NA,NA,NA,NA,NA,NA,NA,NA,NA,NA,NA,NA,NA,NA,NA,NA
6a69c,deep,flow.Sequence,3_0_4_0_3_0,NA,NA,skipped,NA,667938.60000002,NA,NA,667932,667938.69999999006,2024-06-15T10:38:32Z,667948.9,NULL,Kanzler,diwani,s,rasilmali,mahitaji,maabudu,NA,sd,NA,4,NA,NA,NA,NA,NA,NA,NA,NA,NA,NA,NA,NA,NA,NA,NA,NA,NA,NA,NA
6a69c,Shallow Question,html.Page,3_0_4_0_3_1_0,NA,NA,form submission,5767.4999999761,667938.69999999006,667932,667948.9,673716.39999998,673716.60000002,2024-06-15T10:38:38Z,673728.6,NULL,Kanzler,diwani,s,rasilmali,mahitaji,maabudu,diwani,NA,NA,4,NA,NA,NA,NA,NA,NA,NA,NA,NA,NA,NA,NA,NA,NA,NA,NA,NA,NA,NA
6a69c,"""Richtig""-Screen",canvas.Screen,3_0_4_0_3_1_1,NA,NA,timeout,4997.1,673719.60000002,673712.718,673728.6,678709,678709.39999998,2024-06-15T10:38:43Z,678725.7,NULL,Kanzler,diwani,s,rasilmali,mahitaji,maabudu,NA,sd,1,4,NA,NA,NA,NA,NA,NA,NA,NA,NA,NA,NA,NA,NA,NA,NA,NA,NA,NA,NA
6a69c,"""Falsch""-Screen",canvas.Screen,3_0_4_0_3_1_2,NA,NA,skipped,NA,678710.89999998,NA,NA,678709,678711,2024-06-15T10:38:43Z,678725.7,NULL,Kanzler,diwani,s,rasilmali,mahitaji,maabudu,NA,sd,NA,4,NA,NA,NA,NA,NA,NA,NA,NA,NA,NA,NA,NA,NA,NA,NA,NA,NA,NA,NA
6a69c,shallow,flow.Sequence,3_0_4_0_3_1,NA,NA,completion,10760.1,667938.69999999006,667932,667948.9,678709,678711,2024-06-15T10:38:43Z,678725.7,NULL,Kanzler,diwani,s,rasilmali,mahitaji,maabudu,NA,sd,NA,4,NA,NA,NA,NA,NA,NA,NA,NA,NA,NA,NA,NA,NA,NA,NA,NA,NA,NA,NA
6a69c,task,flow.Sequence,3_0_4_0_3,NA,NA,completion,10760.1,667938.60000002,667932,667948.9,678709,678711.10000002,2024-06-15T10:38:43Z,678725.7,NULL,Kanzler,diwani,s,rasilmali,mahitaji,maabudu,NA,sd,NA,4,NA,NA,NA,NA,NA,NA,NA,NA,NA,NA,NA,NA,NA,NA,NA,NA,NA,NA,NA
6a69c,Deep Question,html.Page,3_0_4_0_4_0_0,NA,NA,form submission,20937.699999976,678711.10000002,678709,678725.7,699663.39999998,699663.60000002,2024-06-15T10:39:04Z,699679.1,NULL,Erneuerung,ukarabati,d,NA,NA,NA,ukasabti,NA,NA,4,NA,NA,NA,NA,NA,NA,NA,NA,NA,NA,NA,NA,NA,NA,NA,NA,NA,NA,NA
6a69c,"""Richtig""-Screen",canvas.Screen,3_0_4_0_4_0_1,NA,NA,skipped,NA,699666.69999999006,NA,NA,699663.39999998,699666.80000001,2024-06-15T10:39:04Z,699679.1,NULL,Erneuerung,ukarabati,d,NA,NA,NA,NA,sd,NA,4,NA,NA,NA,NA,NA,NA,NA,NA,NA,NA,NA,NA,NA,NA,NA,NA,NA,NA,NA
6a69c,"""Falsch""-Screen",canvas.Screen,3_0_4_0_4_0_2,NA,NA,timeout,4997.3,699667.60000002,699663.428,699679.1,704659.8,704660.80000000994,2024-06-15T10:39:09Z,704676.4,NULL,Erneuerung,ukarabati,d,NA,NA,NA,NA,sd,0,4,NA,NA,NA,NA,NA,NA,NA,NA,NA,NA,NA,NA,NA,NA,NA,NA,NA,NA,NA
6a69c,deep,flow.Sequence,3_0_4_0_4_0,NA,NA,completion,25934.1,678711.10000002,678709,678725.7,704659.8,704661.19999999006,2024-06-15T10:39:09Z,704676.4,NULL,Erneuerung,ukarabati,d,NA,NA,NA,NA,sd,NA,4,NA,NA,NA,NA,NA,NA,NA,NA,NA,NA,NA,NA,NA,NA,NA,NA,NA,NA,NA
6a69c,shallow,flow.Sequence,3_0_4_0_4_1,NA,NA,skipped,NA,704661.30000001,NA,NA,704659.8,704661.5,2024-06-15T10:39:09Z,704676.4,NULL,Erneuerung,ukarabati,d,NA,NA,NA,NA,sd,NA,4,NA,NA,NA,NA,NA,NA,NA,NA,NA,NA,NA,NA,NA,NA,NA,NA,NA,NA,NA
6a69c,task,flow.Sequence,3_0_4_0_4,NA,NA,completion,25934.1,678711.10000002,678709,678725.7,704659.8,704661.69999999006,2024-06-15T10:39:09Z,704676.4,NULL,Erneuerung,ukarabati,d,NA,NA,NA,NA,sd,NA,4,NA,NA,NA,NA,NA,NA,NA,NA,NA,NA,NA,NA,NA,NA,NA,NA,NA,NA,NA
6a69c,Deep Question,html.Page,3_0_4_0_5_0_0,NA,NA,form submission,14920.700000024,704661.80000001,704659.8,704676.4,719597.10000002,719597.39999998,2024-06-15T10:39:24Z,719601.322,NULL,Angreifer,mshambulizi,d,NA,NA,NA,d,NA,NA,4,NA,NA,NA,NA,NA,NA,NA,NA,NA,NA,NA,NA,NA,NA,NA,NA,NA,NA,NA
6a69c,"""Richtig""-Screen",canvas.Screen,3_0_4_0_5_0_1,NA,NA,skipped,NA,719600.5,NA,NA,719597.10000002,719600.69999999006,2024-06-15T10:39:24Z,719601.322,NULL,Angreifer,mshambulizi,d,NA,NA,NA,NA,sd,NA,4,NA,NA,NA,NA,NA,NA,NA,NA,NA,NA,NA,NA,NA,NA,NA,NA,NA,NA,NA
6a69c,"""Falsch""-Screen",canvas.Screen,3_0_4_0_5_0_2,NA,NA,timeout,4996.3779999999,719601.5,719601.322,719601.322,724581,724582,2024-06-15T10:39:29Z,724597.7,NULL,Angreifer,mshambulizi,d,NA,NA,NA,NA,sd,0,4,NA,NA,NA,NA,NA,NA,NA,NA,NA,NA,NA,NA,NA,NA,NA,NA,NA,NA,NA
6a69c,deep,flow.Sequence,3_0_4_0_5_0,NA,NA,completion,19904.6,704661.80000001,704659.8,704676.4,724581,724582.39999998,2024-06-15T10:39:29Z,724597.7,NULL,Angreifer,mshambulizi,d,NA,NA,NA,NA,sd,NA,4,NA,NA,NA,NA,NA,NA,NA,NA,NA,NA,NA,NA,NA,NA,NA,NA,NA,NA,NA
6a69c,shallow,flow.Sequence,3_0_4_0_5_1,NA,NA,skipped,NA,724582.5,NA,NA,724581,724582.69999999006,2024-06-15T10:39:29Z,724597.7,NULL,Angreifer,mshambulizi,d,NA,NA,NA,NA,sd,NA,4,NA,NA,NA,NA,NA,NA,NA,NA,NA,NA,NA,NA,NA,NA,NA,NA,NA,NA,NA
6a69c,task,flow.Sequence,3_0_4_0_5,NA,NA,completion,19904.6,704661.80000001,704659.8,704676.4,724581,724582.89999998,2024-06-15T10:39:29Z,724597.7,NULL,Angreifer,mshambulizi,d,NA,NA,NA,NA,sd,NA,4,NA,NA,NA,NA,NA,NA,NA,NA,NA,NA,NA,NA,NA,NA,NA,NA,NA,NA,NA
6a69c,Deep Question,html.Page,3_0_4_0_6_0_0,NA,NA,form submission,8294.1999999762,724583,724581,724597.7,732891.89999998,732892.10000002,2024-06-15T10:39:37Z,732909.3,NULL,Sänger,mwimbaji,d,NA,NA,NA,f,NA,NA,4,NA,NA,NA,NA,NA,NA,NA,NA,NA,NA,NA,NA,NA,NA,NA,NA,NA,NA,NA
6a69c,"""Richtig""-Screen",canvas.Screen,3_0_4_0_6_0_1,NA,NA,skipped,NA,732895.30000001,NA,NA,732891.89999998,732895.5,2024-06-15T10:39:37Z,732909.3,NULL,Sänger,mwimbaji,d,NA,NA,NA,NA,sd,NA,4,NA,NA,NA,NA,NA,NA,NA,NA,NA,NA,NA,NA,NA,NA,NA,NA,NA,NA,NA
6a69c,"""Falsch""-Screen",canvas.Screen,3_0_4_0_6_0_2,NA,NA,timeout,4996.7999999999,732896.39999998,732893.362,732909.3,737889.1,737890.10000002,2024-06-15T10:39:42Z,737906.1,NULL,Sänger,mwimbaji,d,NA,NA,NA,NA,sd,0,4,NA,NA,NA,NA,NA,NA,NA,NA,NA,NA,NA,NA,NA,NA,NA,NA,NA,NA,NA
6a69c,deep,flow.Sequence,3_0_4_0_6_0,NA,NA,completion,13291.4,724583,724581,724597.7,737889.1,737890.60000002,2024-06-15T10:39:42Z,737906.1,NULL,Sänger,mwimbaji,d,NA,NA,NA,NA,sd,NA,4,NA,NA,NA,NA,NA,NA,NA,NA,NA,NA,NA,NA,NA,NA,NA,NA,NA,NA,NA
6a69c,shallow,flow.Sequence,3_0_4_0_6_1,NA,NA,skipped,NA,737890.69999999006,NA,NA,737889.1,737890.80000001,2024-06-15T10:39:42Z,737906.1,NULL,Sänger,mwimbaji,d,NA,NA,NA,NA,sd,NA,4,NA,NA,NA,NA,NA,NA,NA,NA,NA,NA,NA,NA,NA,NA,NA,NA,NA,NA,NA
6a69c,task,flow.Sequence,3_0_4_0_6,NA,NA,completion,13291.4,724583,724581,724597.7,737889.1,737891.10000002,2024-06-15T10:39:42Z,737906.1,NULL,Sänger,mwimbaji,d,NA,NA,NA,NA,sd,NA,4,NA,NA,NA,NA,NA,NA,NA,NA,NA,NA,NA,NA,NA,NA,NA,NA,NA,NA,NA
6a69c,deep,flow.Sequence,3_0_4_0_7_0,NA,NA,skipped,NA,737891.19999999006,NA,NA,737889.1,737891.30000001,2024-06-15T10:39:42Z,737906.1,NULL,Atmosphäre,angahewa,s,kuteseka,usahihi,kutoamini,NA,sd,NA,4,NA,NA,NA,NA,NA,NA,NA,NA,NA,NA,NA,NA,NA,NA,NA,NA,NA,NA,NA
6a69c,Shallow Question,html.Page,3_0_4_0_7_1_0,NA,NA,form submission,9477.0999999881,737891.5,737889.1,737906.1,747383.19999999006,747383.5,2024-06-15T10:39:52Z,747400.3,NULL,Atmosphäre,angahewa,s,kuteseka,usahihi,kutoamini,angahewa,NA,NA,4,NA,NA,NA,NA,NA,NA,NA,NA,NA,NA,NA,NA,NA,NA,NA,NA,NA,NA,NA
6a69c,"""Richtig""-Screen",canvas.Screen,3_0_4_0_7_1_1,NA,NA,timeout,4996.8999999999,747386.5,747383.724,747400.3,752380.4,752381.30000001,2024-06-15T10:39:57Z,752397.2,NULL,Atmosphäre,angahewa,s,kuteseka,usahihi,kutoamini,NA,sd,1,4,NA,NA,NA,NA,NA,NA,NA,NA,NA,NA,NA,NA,NA,NA,NA,NA,NA,NA,NA
6a69c,"""Falsch""-Screen",canvas.Screen,3_0_4_0_7_1_2,NA,NA,skipped,NA,752386.5,NA,NA,752380.4,752386.69999999006,2024-06-15T10:39:57Z,752397.2,NULL,Atmosphäre,angahewa,s,kuteseka,usahihi,kutoamini,NA,sd,NA,4,NA,NA,NA,NA,NA,NA,NA,NA,NA,NA,NA,NA,NA,NA,NA,NA,NA,NA,NA
6a69c,shallow,flow.Sequence,3_0_4_0_7_1,NA,NA,completion,14474.3,737891.39999998,737889.1,737906.1,752380.4,752386.80000001,2024-06-15T10:39:57Z,752397.2,NULL,Atmosphäre,angahewa,s,kuteseka,usahihi,kutoamini,NA,sd,NA,4,NA,NA,NA,NA,NA,NA,NA,NA,NA,NA,NA,NA,NA,NA,NA,NA,NA,NA,NA
6a69c,task,flow.Sequence,3_0_4_0_7,NA,NA,completion,14474.3,737891.10000002,737889.1,737906.1,752380.4,752386.89999998,2024-06-15T10:39:57Z,752397.2,NULL,Atmosphäre,angahewa,s,kuteseka,usahihi,kutoamini,NA,sd,NA,4,NA,NA,NA,NA,NA,NA,NA,NA,NA,NA,NA,NA,NA,NA,NA,NA,NA,NA,NA
6a69c,block,flow.Loop,3_0_4_0,NA,NA,completion,148692,603673,603672.462,603688.4,752380.4,752386.89999998,2024-06-15T10:39:57Z,752397.2,NULL,NA,NA,NA,NA,NA,NA,NA,sd,NA,4,NA,NA,NA,NA,NA,NA,NA,NA,NA,NA,NA,NA,NA,NA,NA,NA,NA,NA,NA
6a69c,weiter,canvas.Screen,3_0_4_1,sdf,keypress(Space),response,1152.4000000239,752386.89999998,752380.4,752397.2,753549.60000002,753550.19999999006,2024-06-15T10:39:58Z,753563.82,NULL,NA,NA,NA,NA,NA,NA,NA,sd,NA,4,NA,NA,NA,NA,NA,NA,NA,NA,NA,NA,NA,NA,NA,NA,NA,NA,NA,NA,NA
6a69c,check continue,flow.Sequence,3_0_4,NA,NA,completion,149861.20000002,603673,603672.462,603688.4,753549.60000002,753550.19999999006,2024-06-15T10:39:58Z,753563.82,NULL,NA,NA,NA,NA,NA,NA,NA,sd,NA,4,NA,NA,NA,NA,NA,NA,NA,NA,NA,NA,NA,NA,NA,NA,NA,NA,NA,NA,NA
6a69c,deep,flow.Sequence,3_0_5_0_0_0,NA,NA,skipped,NA,753572.69999999006,NA,NA,753549.60000002,753572.89999998,2024-06-15T10:39:58Z,753563.82,NULL,Abrechnung,uhasibu,s,kusahihisha,mpambano,mashambulizi,NA,sdf,NA,5,NA,NA,NA,NA,NA,NA,NA,NA,NA,NA,NA,NA,NA,NA,NA,NA,NA,NA,NA
6a69c,Shallow Question,html.Page,3_0_5_0_0_1_0,NA,NA,form submission,6527.1800000001,753572.89999998,753563.82,753563.82,760091,760091.19999999006,2024-06-15T10:40:04Z,760092.786,NULL,Abrechnung,uhasibu,s,kusahihisha,mpambano,mashambulizi,mashambulizi,NA,NA,5,NA,NA,NA,NA,NA,NA,NA,NA,NA,NA,NA,NA,NA,NA,NA,NA,NA,NA,NA
6a69c,"""Richtig""-Screen",canvas.Screen,3_0_5_0_0_1_1,NA,NA,skipped,NA,760094.39999998,NA,NA,760091,760094.60000002,2024-06-15T10:40:04Z,760092.786,NULL,Abrechnung,uhasibu,s,kusahihisha,mpambano,mashambulizi,NA,sdf,NA,5,NA,NA,NA,NA,NA,NA,NA,NA,NA,NA,NA,NA,NA,NA,NA,NA,NA,NA,NA
6a69c,"""Falsch""-Screen",canvas.Screen,3_0_5_0_0_1_2,NA,NA,timeout,4996.814,760095.30000001,760092.786,760092.786,765073,765074.19999999006,2024-06-15T10:40:09Z,765089.6,NULL,Abrechnung,uhasibu,s,kusahihisha,mpambano,mashambulizi,NA,sdf,0,5,NA,NA,NA,NA,NA,NA,NA,NA,NA,NA,NA,NA,NA,NA,NA,NA,NA,NA,NA
6a69c,shallow,flow.Sequence,3_0_5_0_0_1,NA,NA,completion,11509.18,753572.89999998,753563.82,753563.82,765073,765074.5,2024-06-15T10:40:09Z,765089.6,NULL,Abrechnung,uhasibu,s,kusahihisha,mpambano,mashambulizi,NA,sdf,NA,5,NA,NA,NA,NA,NA,NA,NA,NA,NA,NA,NA,NA,NA,NA,NA,NA,NA,NA,NA
6a69c,task,flow.Sequence,3_0_5_0_0,NA,NA,completion,11509.18,753572.69999999006,753563.82,753563.82,765073,765074.69999999006,2024-06-15T10:40:09Z,765089.6,NULL,Abrechnung,uhasibu,s,kusahihisha,mpambano,mashambulizi,NA,sdf,NA,5,NA,NA,NA,NA,NA,NA,NA,NA,NA,NA,NA,NA,NA,NA,NA,NA,NA,NA,NA
6a69c,Deep Question,html.Page,3_0_5_0_1_0_0,NA,NA,form submission,5667.2999999762,765074.89999998,765073,765089.6,770756.89999998,770757.10000002,2024-06-15T10:40:15Z,770769.3,NULL,Erneuerung,ukarabati,d,NA,NA,NA,ukarabiti,NA,NA,5,NA,NA,NA,NA,NA,NA,NA,NA,NA,NA,NA,NA,NA,NA,NA,NA,NA,NA,NA
6a69c,"""Richtig""-Screen",canvas.Screen,3_0_5_0_1_0_1,NA,NA,skipped,NA,770760.30000000994,NA,NA,770756.89999998,770760.30000000994,2024-06-15T10:40:15Z,770769.3,NULL,Erneuerung,ukarabati,d,NA,NA,NA,NA,sdf,NA,5,NA,NA,NA,NA,NA,NA,NA,NA,NA,NA,NA,NA,NA,NA,NA,NA,NA,NA,NA
6a69c,"""Falsch""-Screen",canvas.Screen,3_0_5_0_1_0_2,NA,NA,timeout,4996.8999999999,770761.10000002,770754.794,770769.3,775749.4,775750.30000000994,2024-06-15T10:40:20Z,775766.2,NULL,Erneuerung,ukarabati,d,NA,NA,NA,NA,sdf,0,5,NA,NA,NA,NA,NA,NA,NA,NA,NA,NA,NA,NA,NA,NA,NA,NA,NA,NA,NA
6a69c,deep,flow.Sequence,3_0_5_0_1_0,NA,NA,completion,10659.8,765074.89999998,765073,765089.6,775749.4,775750.69999999006,2024-06-15T10:40:20Z,775766.2,NULL,Erneuerung,ukarabati,d,NA,NA,NA,NA,sdf,NA,5,NA,NA,NA,NA,NA,NA,NA,NA,NA,NA,NA,NA,NA,NA,NA,NA,NA,NA,NA
6a69c,shallow,flow.Sequence,3_0_5_0_1_1,NA,NA,skipped,NA,775750.80000000994,NA,NA,775749.4,775750.89999998,2024-06-15T10:40:20Z,775766.2,NULL,Erneuerung,ukarabati,d,NA,NA,NA,NA,sdf,NA,5,NA,NA,NA,NA,NA,NA,NA,NA,NA,NA,NA,NA,NA,NA,NA,NA,NA,NA,NA
6a69c,task,flow.Sequence,3_0_5_0_1,NA,NA,completion,10659.8,765074.89999998,765073,765089.6,775749.4,775751,2024-06-15T10:40:20Z,775766.2,NULL,Erneuerung,ukarabati,d,NA,NA,NA,NA,sdf,NA,5,NA,NA,NA,NA,NA,NA,NA,NA,NA,NA,NA,NA,NA,NA,NA,NA,NA,NA,NA
6a69c,Deep Question,html.Page,3_0_5_0_2_0_0,NA,NA,form submission,21339.8,775751.19999999006,775749.4,775766.2,797106,797106.10000002,2024-06-15T10:40:41Z,797119.6,NULL,Sänger,mwimbaji,d,NA,NA,NA,f,NA,NA,5,NA,NA,NA,NA,NA,NA,NA,NA,NA,NA,NA,NA,NA,NA,NA,NA,NA,NA,NA
6a69c,"""Richtig""-Screen",canvas.Screen,3_0_5_0_2_0_1,NA,NA,skipped,NA,797109.19999999006,NA,NA,797106,797109.30000000994,2024-06-15T10:40:41Z,797119.6,NULL,Sänger,mwimbaji,d,NA,NA,NA,NA,sdf,NA,5,NA,NA,NA,NA,NA,NA,NA,NA,NA,NA,NA,NA,NA,NA,NA,NA,NA,NA,NA
6a69c,"""Falsch""-Screen",canvas.Screen,3_0_5_0_2_0_2,NA,NA,timeout,4997.3,797110,797103.514,797119.6,802099.9,802100.89999998,2024-06-15T10:40:46Z,802116.9,NULL,Sänger,mwimbaji,d,NA,NA,NA,NA,sdf,0,5,NA,NA,NA,NA,NA,NA,NA,NA,NA,NA,NA,NA,NA,NA,NA,NA,NA,NA,NA
6a69c,deep,flow.Sequence,3_0_5_0_2_0,NA,NA,completion,26333.7,775751.19999999006,775749.4,775766.2,802099.9,802101.30000001,2024-06-15T10:40:46Z,802116.9,NULL,Sänger,mwimbaji,d,NA,NA,NA,NA,sdf,NA,5,NA,NA,NA,NA,NA,NA,NA,NA,NA,NA,NA,NA,NA,NA,NA,NA,NA,NA,NA
6a69c,shallow,flow.Sequence,3_0_5_0_2_1,NA,NA,skipped,NA,802101.5,NA,NA,802099.9,802101.60000002,2024-06-15T10:40:46Z,802116.9,NULL,Sänger,mwimbaji,d,NA,NA,NA,NA,sdf,NA,5,NA,NA,NA,NA,NA,NA,NA,NA,NA,NA,NA,NA,NA,NA,NA,NA,NA,NA,NA
6a69c,task,flow.Sequence,3_0_5_0_2,NA,NA,completion,26333.7,775751.19999999006,775749.4,775766.2,802099.9,802101.80000001,2024-06-15T10:40:46Z,802116.9,NULL,Sänger,mwimbaji,d,NA,NA,NA,NA,sdf,NA,5,NA,NA,NA,NA,NA,NA,NA,NA,NA,NA,NA,NA,NA,NA,NA,NA,NA,NA,NA
6a69c,deep,flow.Sequence,3_0_5_0_3_0,NA,NA,skipped,NA,802101.89999998,NA,NA,802099.9,802102,2024-06-15T10:40:46Z,802116.9,NULL,Kanzler,diwani,s,rasilmali,mahitaji,maabudu,NA,sdf,NA,5,NA,NA,NA,NA,NA,NA,NA,NA,NA,NA,NA,NA,NA,NA,NA,NA,NA,NA,NA
6a69c,Shallow Question,html.Page,3_0_5_0_3_1_0,NA,NA,form submission,14472.200000024,802102.19999999006,802099.9,802116.9,816589.10000002,816589.19999999006,2024-06-15T10:41:01Z,816591.506,NULL,Kanzler,diwani,s,rasilmali,mahitaji,maabudu,diwani,NA,NA,5,NA,NA,NA,NA,NA,NA,NA,NA,NA,NA,NA,NA,NA,NA,NA,NA,NA,NA,NA
6a69c,"""Richtig""-Screen",canvas.Screen,3_0_5_0_3_1_1,NA,NA,timeout,4996.9939999999,816590.69999999006,816591.506,816591.506,821571.3,821572.39999998,2024-06-15T10:41:06Z,821588.5,NULL,Kanzler,diwani,s,rasilmali,mahitaji,maabudu,NA,sdf,1,5,NA,NA,NA,NA,NA,NA,NA,NA,NA,NA,NA,NA,NA,NA,NA,NA,NA,NA,NA
6a69c,"""Falsch""-Screen",canvas.Screen,3_0_5_0_3_1_2,NA,NA,skipped,NA,821577.60000002,NA,NA,821571.3,821577.69999999006,2024-06-15T10:41:06Z,821588.5,NULL,Kanzler,diwani,s,rasilmali,mahitaji,maabudu,NA,sdf,NA,5,NA,NA,NA,NA,NA,NA,NA,NA,NA,NA,NA,NA,NA,NA,NA,NA,NA,NA,NA
6a69c,shallow,flow.Sequence,3_0_5_0_3_1,NA,NA,completion,19454.4,802102.19999999006,802099.9,802116.9,821571.3,821577.80000001,2024-06-15T10:41:06Z,821588.5,NULL,Kanzler,diwani,s,rasilmali,mahitaji,maabudu,NA,sdf,NA,5,NA,NA,NA,NA,NA,NA,NA,NA,NA,NA,NA,NA,NA,NA,NA,NA,NA,NA,NA
6a69c,task,flow.Sequence,3_0_5_0_3,NA,NA,completion,19454.4,802101.89999998,802099.9,802116.9,821571.3,821577.89999998,2024-06-15T10:41:06Z,821588.5,NULL,Kanzler,diwani,s,rasilmali,mahitaji,maabudu,NA,sdf,NA,5,NA,NA,NA,NA,NA,NA,NA,NA,NA,NA,NA,NA,NA,NA,NA,NA,NA,NA,NA
6a69c,Deep Question,html.Page,3_0_5_0_4_0_0,NA,NA,form submission,7716.1999999881,821578,821571.3,821588.5,829304.69999999006,829304.89999998,2024-06-15T10:41:14Z,829316.6,NULL,Wechsel,ugeuzaji,d,NA,NA,NA,f,NA,NA,5,NA,NA,NA,NA,NA,NA,NA,NA,NA,NA,NA,NA,NA,NA,NA,NA,NA,NA,NA
6a69c,"""Richtig""-Screen",canvas.Screen,3_0_5_0_4_0_1,NA,NA,skipped,NA,829308,NA,NA,829304.69999999006,829308,2024-06-15T10:41:14Z,829316.6,NULL,Wechsel,ugeuzaji,d,NA,NA,NA,NA,sdf,NA,5,NA,NA,NA,NA,NA,NA,NA,NA,NA,NA,NA,NA,NA,NA,NA,NA,NA,NA,NA
6a69c,"""Falsch""-Screen",canvas.Screen,3_0_5_0_4_0_2,NA,NA,timeout,4997.2000000001,829308.89999998,829300.806,829316.6,834297.1,834298,2024-06-15T10:41:19Z,834313.8,NULL,Wechsel,ugeuzaji,d,NA,NA,NA,NA,sdf,0,5,NA,NA,NA,NA,NA,NA,NA,NA,NA,NA,NA,NA,NA,NA,NA,NA,NA,NA,NA
6a69c,deep,flow.Sequence,3_0_5_0_4_0,NA,NA,completion,12708.6,821578,821571.3,821588.5,834297.1,834298.30000001,2024-06-15T10:41:19Z,834313.8,NULL,Wechsel,ugeuzaji,d,NA,NA,NA,NA,sdf,NA,5,NA,NA,NA,NA,NA,NA,NA,NA,NA,NA,NA,NA,NA,NA,NA,NA,NA,NA,NA
6a69c,shallow,flow.Sequence,3_0_5_0_4_1,NA,NA,skipped,NA,834298.39999998,NA,NA,834297.1,834298.60000002,2024-06-15T10:41:19Z,834313.8,NULL,Wechsel,ugeuzaji,d,NA,NA,NA,NA,sdf,NA,5,NA,NA,NA,NA,NA,NA,NA,NA,NA,NA,NA,NA,NA,NA,NA,NA,NA,NA,NA
6a69c,task,flow.Sequence,3_0_5_0_4,NA,NA,completion,12708.6,821578,821571.3,821588.5,834297.1,834298.69999999006,2024-06-15T10:41:19Z,834313.8,NULL,Wechsel,ugeuzaji,d,NA,NA,NA,NA,sdf,NA,5,NA,NA,NA,NA,NA,NA,NA,NA,NA,NA,NA,NA,NA,NA,NA,NA,NA,NA,NA
6a69c,deep,flow.Sequence,3_0_5_0_5_0,NA,NA,skipped,NA,834298.89999998,NA,NA,834297.1,834299,2024-06-15T10:41:19Z,834313.8,NULL,Flexibilität,kubadilika,s,enjini,usikilivu,hesabu,NA,sdf,NA,5,NA,NA,NA,NA,NA,NA,NA,NA,NA,NA,NA,NA,NA,NA,NA,NA,NA,NA,NA
6a69c,Shallow Question,html.Page,3_0_5_0_5_1_0,NA,NA,form submission,20596.2,834299.10000002,834297.1,834313.8,854910,854910.19999999006,2024-06-15T10:41:39Z,854917.6,NULL,Flexibilität,kubadilika,s,enjini,usikilivu,hesabu,usikilivu,NA,NA,5,NA,NA,NA,NA,NA,NA,NA,NA,NA,NA,NA,NA,NA,NA,NA,NA,NA,NA,NA
6a69c,"""Richtig""-Screen",canvas.Screen,3_0_5_0_5_1_1,NA,NA,skipped,NA,854913.19999999006,NA,NA,854910,854913.30000001,2024-06-15T10:41:39Z,854917.6,NULL,Flexibilität,kubadilika,s,enjini,usikilivu,hesabu,NA,sdf,NA,5,NA,NA,NA,NA,NA,NA,NA,NA,NA,NA,NA,NA,NA,NA,NA,NA,NA,NA,NA
6a69c,"""Falsch""-Screen",canvas.Screen,3_0_5_0_5_1_2,NA,NA,timeout,4997.3,854914.39999998,854901.51,854917.6,859898.1,859899.10000002,2024-06-15T10:41:44Z,859914.9,NULL,Flexibilität,kubadilika,s,enjini,usikilivu,hesabu,NA,sdf,0,5,NA,NA,NA,NA,NA,NA,NA,NA,NA,NA,NA,NA,NA,NA,NA,NA,NA,NA,NA
6a69c,shallow,flow.Sequence,3_0_5_0_5_1,NA,NA,completion,25584.3,834299.10000002,834297.1,834313.8,859898.1,859899.39999998,2024-06-15T10:41:44Z,859914.9,NULL,Flexibilität,kubadilika,s,enjini,usikilivu,hesabu,NA,sdf,NA,5,NA,NA,NA,NA,NA,NA,NA,NA,NA,NA,NA,NA,NA,NA,NA,NA,NA,NA,NA
6a69c,task,flow.Sequence,3_0_5_0_5,NA,NA,completion,25584.3,834298.89999998,834297.1,834313.8,859898.1,859899.69999999006,2024-06-15T10:41:44Z,859914.9,NULL,Flexibilität,kubadilika,s,enjini,usikilivu,hesabu,NA,sdf,NA,5,NA,NA,NA,NA,NA,NA,NA,NA,NA,NA,NA,NA,NA,NA,NA,NA,NA,NA,NA
6a69c,deep,flow.Sequence,3_0_5_0_6_0,NA,NA,skipped,NA,859900,NA,NA,859898.1,859900.19999999006,2024-06-15T10:41:44Z,859914.9,NULL,Atmosphäre,angahewa,s,kuteseka,usahihi,kutoamini,NA,sdf,NA,5,NA,NA,NA,NA,NA,NA,NA,NA,NA,NA,NA,NA,NA,NA,NA,NA,NA,NA,NA
6a69c,Shallow Question,html.Page,3_0_5_0_6_1_0,NA,NA,form submission,4861.9000000119,859900.19999999006,859898.1,859914.9,864776.80000000994,864776.89999998,2024-06-15T10:41:49Z,864795.3,NULL,Atmosphäre,angahewa,s,kuteseka,usahihi,kutoamini,angahewa,NA,NA,5,NA,NA,NA,NA,NA,NA,NA,NA,NA,NA,NA,NA,NA,NA,NA,NA,NA,NA,NA
6a69c,"""Richtig""-Screen",canvas.Screen,3_0_5_0_6_1_1,NA,NA,timeout,4996.7999999999,864780.10000002,864779.16,864795.3,869775.5,869776.10000002,2024-06-15T10:41:54Z,869792.1,NULL,Atmosphäre,angahewa,s,kuteseka,usahihi,kutoamini,NA,sdf,1,5,NA,NA,NA,NA,NA,NA,NA,NA,NA,NA,NA,NA,NA,NA,NA,NA,NA,NA,NA
6a69c,"""Falsch""-Screen",canvas.Screen,3_0_5_0_6_1_2,NA,NA,skipped,NA,869777.89999998,NA,NA,869775.5,869778,2024-06-15T10:41:54Z,869792.1,NULL,Atmosphäre,angahewa,s,kuteseka,usahihi,kutoamini,NA,sdf,NA,5,NA,NA,NA,NA,NA,NA,NA,NA,NA,NA,NA,NA,NA,NA,NA,NA,NA,NA,NA
6a69c,shallow,flow.Sequence,3_0_5_0_6_1,NA,NA,completion,9860.6,859900.19999999006,859898.1,859914.9,869775.5,869778.10000002,2024-06-15T10:41:54Z,869792.1,NULL,Atmosphäre,angahewa,s,kuteseka,usahihi,kutoamini,NA,sdf,NA,5,NA,NA,NA,NA,NA,NA,NA,NA,NA,NA,NA,NA,NA,NA,NA,NA,NA,NA,NA
6a69c,task,flow.Sequence,3_0_5_0_6,NA,NA,completion,9860.6,859900,859898.1,859914.9,869775.5,869778.10000002,2024-06-15T10:41:54Z,869792.1,NULL,Atmosphäre,angahewa,s,kuteseka,usahihi,kutoamini,NA,sdf,NA,5,NA,NA,NA,NA,NA,NA,NA,NA,NA,NA,NA,NA,NA,NA,NA,NA,NA,NA,NA
6a69c,Deep Question,html.Page,3_0_5_0_7_0_0,NA,NA,form submission,6068.0999999881,869778.19999999006,869775.5,869792.1,875860.19999999006,875860.30000001,2024-06-15T10:42:00Z,875871.4,NULL,Angreifer,mshambulizi,d,NA,NA,NA,f,NA,NA,5,NA,NA,NA,NA,NA,NA,NA,NA,NA,NA,NA,NA,NA,NA,NA,NA,NA,NA,NA
6a69c,"""Richtig""-Screen",canvas.Screen,3_0_5_0_7_0_1,NA,NA,skipped,NA,875862.60000002,NA,NA,875860.19999999006,875862.60000002,2024-06-15T10:42:00Z,875871.4,NULL,Angreifer,mshambulizi,d,NA,NA,NA,NA,sdf,NA,5,NA,NA,NA,NA,NA,NA,NA,NA,NA,NA,NA,NA,NA,NA,NA,NA,NA,NA,NA
6a69c,"""Falsch""-Screen",canvas.Screen,3_0_5_0_7_0_2,NA,NA,timeout,4997.2999999999,875863.30000001,875857.408,875871.4,880852,880853,2024-06-15T10:42:05Z,880868.7,NULL,Angreifer,mshambulizi,d,NA,NA,NA,NA,sdf,0,5,NA,NA,NA,NA,NA,NA,NA,NA,NA,NA,NA,NA,NA,NA,NA,NA,NA,NA,NA
6a69c,deep,flow.Sequence,3_0_5_0_7_0,NA,NA,completion,11059.9,869778.19999999006,869775.5,869792.1,880852,880853.30000001,2024-06-15T10:42:05Z,880868.7,NULL,Angreifer,mshambulizi,d,NA,NA,NA,NA,sdf,NA,5,NA,NA,NA,NA,NA,NA,NA,NA,NA,NA,NA,NA,NA,NA,NA,NA,NA,NA,NA
6a69c,shallow,flow.Sequence,3_0_5_0_7_1,NA,NA,skipped,NA,880853.39999998,NA,NA,880852,880853.5,2024-06-15T10:42:05Z,880868.7,NULL,Angreifer,mshambulizi,d,NA,NA,NA,NA,sdf,NA,5,NA,NA,NA,NA,NA,NA,NA,NA,NA,NA,NA,NA,NA,NA,NA,NA,NA,NA,NA
6a69c,task,flow.Sequence,3_0_5_0_7,NA,NA,completion,11059.9,869778.19999999006,869775.5,869792.1,880852,880853.80000001,2024-06-15T10:42:05Z,880868.7,NULL,Angreifer,mshambulizi,d,NA,NA,NA,NA,sdf,NA,5,NA,NA,NA,NA,NA,NA,NA,NA,NA,NA,NA,NA,NA,NA,NA,NA,NA,NA,NA
6a69c,block,flow.Loop,3_0_5_0,NA,NA,completion,127288.18,753572.69999999006,753563.82,753563.82,880852,880853.89999998,2024-06-15T10:42:05Z,880868.7,NULL,NA,NA,NA,NA,NA,NA,NA,sdf,NA,5,NA,NA,NA,NA,NA,NA,NA,NA,NA,NA,NA,NA,NA,NA,NA,NA,NA,NA,NA
6a69c,weiter,canvas.Screen,3_0_5_1,sdf,keypress(Space),response,10698.499999988,880854,880852,880868.7,891567.19999999006,891568.10000002,2024-06-15T10:42:16Z,891595.1,NULL,NA,NA,NA,NA,NA,NA,NA,sdf,NA,5,NA,NA,NA,NA,NA,NA,NA,NA,NA,NA,NA,NA,NA,NA,NA,NA,NA,NA,NA
6a69c,check continue,flow.Sequence,3_0_5,NA,NA,completion,138003.37999999,753572.69999999006,753563.82,753563.82,891567.19999999006,891568.30000001,2024-06-15T10:42:16Z,891595.1,NULL,NA,NA,NA,NA,NA,NA,NA,sdf,NA,5,NA,NA,NA,NA,NA,NA,NA,NA,NA,NA,NA,NA,NA,NA,NA,NA,NA,NA,NA
6a69c,deep,flow.Sequence,3_0_6_0_0_0,NA,NA,skipped,NA,891592.19999999006,NA,NA,891567.19999999006,891592.30000001,2024-06-15T10:42:16Z,891595.1,NULL,Atmosphäre,angahewa,s,kuteseka,usahihi,kutoamini,NA,dfs,NA,6,NA,NA,NA,NA,NA,NA,NA,NA,NA,NA,NA,NA,NA,NA,NA,NA,NA,NA,NA
6a69c,Shallow Question,html.Page,3_0_6_0_0_1_0,NA,NA,form submission,6767.0999999881,891592.39999998,891588.8,891595.1,898362.19999999006,898362.39999998,2024-06-15T10:42:23Z,898391,NULL,Atmosphäre,angahewa,s,kuteseka,usahihi,kutoamini,angahewa,NA,NA,6,NA,NA,NA,NA,NA,NA,NA,NA,NA,NA,NA,NA,NA,NA,NA,NA,NA,NA,NA
6a69c,"""Richtig""-Screen",canvas.Screen,3_0_6_0_0_1_1,NA,NA,timeout,4997.3,898365.5,898374.3,898391,903371.4,903372.39999998,2024-06-15T10:42:28Z,903388.3,NULL,Atmosphäre,angahewa,s,kuteseka,usahihi,kutoamini,NA,dfs,1,6,NA,NA,NA,NA,NA,NA,NA,NA,NA,NA,NA,NA,NA,NA,NA,NA,NA,NA,NA
6a69c,"""Falsch""-Screen",canvas.Screen,3_0_6_0_0_1_2,NA,NA,skipped,NA,903377.39999998,NA,NA,903371.4,903377.5,2024-06-15T10:42:28Z,903388.3,NULL,Atmosphäre,angahewa,s,kuteseka,usahihi,kutoamini,NA,dfs,NA,6,NA,NA,NA,NA,NA,NA,NA,NA,NA,NA,NA,NA,NA,NA,NA,NA,NA,NA,NA
6a69c,shallow,flow.Sequence,3_0_6_0_0_1,NA,NA,completion,11776.3,891592.39999998,891588.8,891595.1,903371.4,903377.60000002,2024-06-15T10:42:28Z,903388.3,NULL,Atmosphäre,angahewa,s,kuteseka,usahihi,kutoamini,NA,dfs,NA,6,NA,NA,NA,NA,NA,NA,NA,NA,NA,NA,NA,NA,NA,NA,NA,NA,NA,NA,NA
6a69c,task,flow.Sequence,3_0_6_0_0,NA,NA,completion,11776.3,891592.19999999006,891588.8,891595.1,903371.4,903377.60000002,2024-06-15T10:42:28Z,903388.3,NULL,Atmosphäre,angahewa,s,kuteseka,usahihi,kutoamini,NA,dfs,NA,6,NA,NA,NA,NA,NA,NA,NA,NA,NA,NA,NA,NA,NA,NA,NA,NA,NA,NA,NA
6a69c,deep,flow.Sequence,3_0_6_0_1_0,NA,NA,skipped,NA,903377.60000002,NA,NA,903371.4,903377.69999999006,2024-06-15T10:42:28Z,903388.3,NULL,Flexibilität,kubadilika,s,enjini,usikilivu,hesabu,NA,dfs,NA,6,NA,NA,NA,NA,NA,NA,NA,NA,NA,NA,NA,NA,NA,NA,NA,NA,NA,NA,NA
6a69c,Shallow Question,html.Page,3_0_6_0_1_1_0,NA,NA,form submission,4774.2,903377.80000001,903371.4,903388.3,908162.5,908162.60000002,2024-06-15T10:42:32Z,908168.4,NULL,Flexibilität,kubadilika,s,enjini,usikilivu,hesabu,kubadilika,NA,NA,6,NA,NA,NA,NA,NA,NA,NA,NA,NA,NA,NA,NA,NA,NA,NA,NA,NA,NA,NA
6a69c,"""Richtig""-Screen",canvas.Screen,3_0_6_0_1_1_1,NA,NA,timeout,4997.1,908165.69999999006,908152.348,908168.4,913149,913149.60000002,2024-06-15T10:42:37Z,913165.5,NULL,Flexibilität,kubadilika,s,enjini,usikilivu,hesabu,NA,dfs,1,6,NA,NA,NA,NA,NA,NA,NA,NA,NA,NA,NA,NA,NA,NA,NA,NA,NA,NA,NA
6a69c,"""Falsch""-Screen",canvas.Screen,3_0_6_0_1_1_2,NA,NA,skipped,NA,913152.19999999006,NA,NA,913149,913152.39999998,2024-06-15T10:42:37Z,913165.5,NULL,Flexibilität,kubadilika,s,enjini,usikilivu,hesabu,NA,dfs,NA,6,NA,NA,NA,NA,NA,NA,NA,NA,NA,NA,NA,NA,NA,NA,NA,NA,NA,NA,NA
6a69c,shallow,flow.Sequence,3_0_6_0_1_1,NA,NA,completion,9760.7,903377.69999999006,903371.4,903388.3,913149,913152.5,2024-06-15T10:42:37Z,913165.5,NULL,Flexibilität,kubadilika,s,enjini,usikilivu,hesabu,NA,dfs,NA,6,NA,NA,NA,NA,NA,NA,NA,NA,NA,NA,NA,NA,NA,NA,NA,NA,NA,NA,NA
6a69c,task,flow.Sequence,3_0_6_0_1,NA,NA,completion,9760.7,903377.60000002,903371.4,903388.3,913149,913152.60000002,2024-06-15T10:42:37Z,913165.5,NULL,Flexibilität,kubadilika,s,enjini,usikilivu,hesabu,NA,dfs,NA,6,NA,NA,NA,NA,NA,NA,NA,NA,NA,NA,NA,NA,NA,NA,NA,NA,NA,NA,NA
6a69c,Deep Question,html.Page,3_0_6_0_2_0_0,NA,NA,form submission,7218.1999999881,913152.69999999006,913149,913165.5,920383.69999999006,920384,2024-06-15T10:42:45Z,920394.4,NULL,Angreifer,mshambulizi,d,NA,NA,NA,mashublizi,NA,NA,6,NA,NA,NA,NA,NA,NA,NA,NA,NA,NA,NA,NA,NA,NA,NA,NA,NA,NA,NA
6a69c,"""Richtig""-Screen",canvas.Screen,3_0_6_0_2_0_1,NA,NA,skipped,NA,920387,NA,NA,920383.69999999006,920387.10000002,2024-06-15T10:42:45Z,920394.4,NULL,Angreifer,mshambulizi,d,NA,NA,NA,NA,dfs,NA,6,NA,NA,NA,NA,NA,NA,NA,NA,NA,NA,NA,NA,NA,NA,NA,NA,NA,NA,NA
6a69c,"""Falsch""-Screen",canvas.Screen,3_0_6_0_2_0_2,NA,NA,timeout,4997.1,920387.5,920378.812,920394.4,925374.6,925375.60000002,2024-06-15T10:42:50Z,925391.5,NULL,Angreifer,mshambulizi,d,NA,NA,NA,NA,dfs,0,6,NA,NA,NA,NA,NA,NA,NA,NA,NA,NA,NA,NA,NA,NA,NA,NA,NA,NA,NA
6a69c,deep,flow.Sequence,3_0_6_0_2_0,NA,NA,completion,12209.1,913152.60000002,913149,913165.5,925374.6,925375.89999998,2024-06-15T10:42:50Z,925391.5,NULL,Angreifer,mshambulizi,d,NA,NA,NA,NA,dfs,NA,6,NA,NA,NA,NA,NA,NA,NA,NA,NA,NA,NA,NA,NA,NA,NA,NA,NA,NA,NA
6a69c,shallow,flow.Sequence,3_0_6_0_2_1,NA,NA,skipped,NA,925376,NA,NA,925374.6,925376.30000001,2024-06-15T10:42:50Z,925391.5,NULL,Angreifer,mshambulizi,d,NA,NA,NA,NA,dfs,NA,6,NA,NA,NA,NA,NA,NA,NA,NA,NA,NA,NA,NA,NA,NA,NA,NA,NA,NA,NA
6a69c,task,flow.Sequence,3_0_6_0_2,NA,NA,completion,12209.1,913152.60000002,913149,913165.5,925374.6,925376.5,2024-06-15T10:42:50Z,925391.5,NULL,Angreifer,mshambulizi,d,NA,NA,NA,NA,dfs,NA,6,NA,NA,NA,NA,NA,NA,NA,NA,NA,NA,NA,NA,NA,NA,NA,NA,NA,NA,NA
6a69c,Deep Question,html.Page,3_0_6_0_3_0_0,NA,NA,form submission,18056.800000012,925376.69999999006,925374.6,925391.5,943448.30000001,943448.60000002,2024-06-15T10:43:08Z,943463.6,NULL,Wechsel,ugeuzaji,d,NA,NA,NA,mwimbaji,NA,NA,6,NA,NA,NA,NA,NA,NA,NA,NA,NA,NA,NA,NA,NA,NA,NA,NA,NA,NA,NA
6a69c,"""Richtig""-Screen",canvas.Screen,3_0_6_0_3_0_1,NA,NA,skipped,NA,943451.5,NA,NA,943448.30000001,943451.60000002,2024-06-15T10:43:08Z,943463.6,NULL,Wechsel,ugeuzaji,d,NA,NA,NA,NA,dfs,NA,6,NA,NA,NA,NA,NA,NA,NA,NA,NA,NA,NA,NA,NA,NA,NA,NA,NA,NA,NA
