observation,sender,sender_type,sender_id,response,response_action,ended_on,duration,time_run,time_render,time_show,time_end,time_commit,timestamp,time_switch,distractors,german,swahili,enc,distractor1,distractor2,distractor3,response_2,x,correct,x_2,url_vp,url_sess,meta_labjs_version,meta_location,meta_user_agent,meta_platform,meta_language,meta_locale,meta_time_zone,meta_timezone_offset,meta_screen_width,meta_screen_height,meta_scroll_width,meta_scroll_height,meta_window_inner_width,meta_window_inner_height,meta_device_pixel_ratio,meta_labjs_build_flavor,meta_labjs_build_commit
b6eb3,Introduction general,canvas.Screen,0,weiter,keypress(q),response,36096.7,535,304.9,538.1,36634.8,36637.6,2024-04-15T15:12:09Z,36649.3,NULL,NA,NA,NA,NA,NA,NA,NA,NA,NA,NA,141,3,20.2.4,https://neurocog.fernuni.ch/studies/vweber/aberisha/encoding_immediate/index.html?vp=141&sess=3,"Mozilla/5.0 (Windows NT 10.0; Win64; x64) AppleWebKit/537.36 (KHTML, like Gecko) Chrome/123.0.0.0 Safari/537.36",Win32,de-DE,de,Europe/Zurich,-120,1536,864,1536,682,1536,730,1.25,production,f5b4a49f956347addd546a832a3327688c2c0fef
b6eb3,Introduction practice,canvas.Screen,1_0,NA,keypress(Space),response,3845.3000000001002,36638.4,36634.932,36649.3,40494.6,40495.6,2024-04-15T15:12:12Z,40513.7,NULL,NA,NA,NA,NA,NA,NA,NA,NA,NA,NA,NA,NA,NA,NA,NA,NA,NA,NA,NA,NA,NA,NA,NA,NA,NA,NA,NA,NA,NA
b6eb3,Deep Question,html.Page,1_1_0_0_0,NA,NA,form submission,6408.3,40496.2,40496.8,40513.7,46922,46922.3,2024-04-15T15:12:19Z,46926.556,"c(""distractor1"", ""distractor2"", ""distractor3"")",Schatten,kivuli,d,NA,NA,NA,scjasadf,NA,NA,NA,NA,NA,NA,NA,NA,NA,NA,NA,NA,NA,NA,NA,NA,NA,NA,NA,NA,NA,NA
b6eb3,"""Richtig""-Screen",canvas.Screen,1_1_0_0_1,NA,NA,skipped,NA,46924,NA,NA,46922,46924.2,2024-04-15T15:12:19Z,46926.556,"c(""distractor1"", ""distractor2"", ""distractor3"")",Schatten,kivuli,d,NA,NA,NA,NA,NA,NA,NA,NA,NA,NA,NA,NA,NA,NA,NA,NA,NA,NA,NA,NA,NA,NA,NA,NA,NA,NA
b6eb3,"""Falsch""-Screen",canvas.Screen,1_1_0_0_2,NA,NA,timeout,4996.744,46929.4,46926.556,46926.556,51907,51908.4,2024-04-15T15:12:24Z,51923.3,"c(""distractor1"", ""distractor2"", ""distractor3"")",Schatten,kivuli,d,NA,NA,NA,NA,NA,0,NA,NA,NA,NA,NA,NA,NA,NA,NA,NA,NA,NA,NA,NA,NA,NA,NA,NA,NA,NA
b6eb3,deep,flow.Sequence,1_1_0_0,NA,NA,completion,11393.3,40496.1,40496.8,40513.7,51907,51909.1,2024-04-15T15:12:24Z,51923.3,"c(""distractor1"", ""distractor2"", ""distractor3"")",Schatten,kivuli,d,NA,NA,NA,NA,NA,NA,NA,NA,NA,NA,NA,NA,NA,NA,NA,NA,NA,NA,NA,NA,NA,NA,NA,NA,NA,NA
b6eb3,shallow,flow.Sequence,1_1_0_1,NA,NA,skipped,NA,51909.4,NA,NA,51907,51909.5,2024-04-15T15:12:24Z,51923.3,"c(""distractor1"", ""distractor2"", ""distractor3"")",Schatten,kivuli,d,NA,NA,NA,NA,NA,NA,NA,NA,NA,NA,NA,NA,NA,NA,NA,NA,NA,NA,NA,NA,NA,NA,NA,NA,NA,NA
b6eb3,task,flow.Sequence,1_1_0,NA,NA,completion,11393.3,40496,40496.8,40513.7,51907,51909.9,2024-04-15T15:12:24Z,51923.3,"c(""distractor1"", ""distractor2"", ""distractor3"")",Schatten,kivuli,d,NA,NA,NA,NA,NA,NA,NA,NA,NA,NA,NA,NA,NA,NA,NA,NA,NA,NA,NA,NA,NA,NA,NA,NA,NA,NA
b6eb3,Deep Question,html.Page,1_1_1_0_0,NA,NA,form submission,52485.8,51910.2,51907,51923.3,104409.1,104409.4,2024-04-15T15:13:16Z,104424.6,"c(""distractor1"", ""distractor2"", ""distractor3"")",Gesundheit,salama,d,NA,NA,NA,ghgh,NA,NA,NA,NA,NA,NA,NA,NA,NA,NA,NA,NA,NA,NA,NA,NA,NA,NA,NA,NA,NA,NA
b6eb3,"""Richtig""-Screen",canvas.Screen,1_1_1_0_1,NA,NA,skipped,NA,104413,NA,NA,104409.1,104413.2,2024-04-15T15:13:16Z,104424.6,"c(""distractor1"", ""distractor2"", ""distractor3"")",Gesundheit,salama,d,NA,NA,NA,NA,NA,NA,NA,NA,NA,NA,NA,NA,NA,NA,NA,NA,NA,NA,NA,NA,NA,NA,NA,NA,NA,NA
b6eb3,"""Falsch""-Screen",canvas.Screen,1_1_1_0_2,NA,NA,timeout,4997.2,104413.9,104408.572,104424.6,109405.2,109407,2024-04-15T15:13:21Z,109421.8,"c(""distractor1"", ""distractor2"", ""distractor3"")",Gesundheit,salama,d,NA,NA,NA,NA,NA,0,NA,NA,NA,NA,NA,NA,NA,NA,NA,NA,NA,NA,NA,NA,NA,NA,NA,NA,NA,NA
b6eb3,deep,flow.Sequence,1_1_1_0,NA,NA,completion,57481.9,51910.2,51907,51923.3,109405.2,109407.5,2024-04-15T15:13:21Z,109421.8,"c(""distractor1"", ""distractor2"", ""distractor3"")",Gesundheit,salama,d,NA,NA,NA,NA,NA,NA,NA,NA,NA,NA,NA,NA,NA,NA,NA,NA,NA,NA,NA,NA,NA,NA,NA,NA,NA,NA
b6eb3,shallow,flow.Sequence,1_1_1_1,NA,NA,skipped,NA,109407.8,NA,NA,109405.2,109408,2024-04-15T15:13:21Z,109421.8,"c(""distractor1"", ""distractor2"", ""distractor3"")",Gesundheit,salama,d,NA,NA,NA,NA,NA,NA,NA,NA,NA,NA,NA,NA,NA,NA,NA,NA,NA,NA,NA,NA,NA,NA,NA,NA,NA,NA
b6eb3,task,flow.Sequence,1_1_1,NA,NA,completion,57481.9,51910.1,51907,51923.3,109405.2,109408.2,2024-04-15T15:13:21Z,109421.8,"c(""distractor1"", ""distractor2"", ""distractor3"")",Gesundheit,salama,d,NA,NA,NA,NA,NA,NA,NA,NA,NA,NA,NA,NA,NA,NA,NA,NA,NA,NA,NA,NA,NA,NA,NA,NA,NA,NA
b6eb3,deep,flow.Sequence,1_1_2_0,NA,NA,skipped,NA,109408.4,NA,NA,109405.2,109408.4,2024-04-15T15:13:21Z,109421.8,"c(""distractor1"", ""distractor2"", ""distractor3"")",Rückhalt,msaada,s,muhula,auwali,kiwimbe,NA,NA,NA,NA,NA,NA,NA,NA,NA,NA,NA,NA,NA,NA,NA,NA,NA,NA,NA,NA,NA,NA,NA
b6eb3,Shallow Question,html.Page,1_1_2_1_0,NA,NA,form submission,4591.8000000001,109408.6,109405.2,109421.8,114013.6,114013.9,2024-04-15T15:13:26Z,114019.128,"c(""distractor1"", ""distractor2"", ""distractor3"")",Rückhalt,msaada,s,muhula,auwali,kiwimbe,kiwimbe,NA,NA,NA,NA,NA,NA,NA,NA,NA,NA,NA,NA,NA,NA,NA,NA,NA,NA,NA,NA,NA,NA
b6eb3,"""Richtig""-Screen",canvas.Screen,1_1_2_1_1,NA,NA,skipped,NA,114017.2,NA,NA,114013.6,114017.4,2024-04-15T15:13:26Z,114019.128,"c(""distractor1"", ""distractor2"", ""distractor3"")",Rückhalt,msaada,s,muhula,auwali,kiwimbe,NA,NA,NA,NA,NA,NA,NA,NA,NA,NA,NA,NA,NA,NA,NA,NA,NA,NA,NA,NA,NA,NA,NA
b6eb3,"""Falsch""-Screen",canvas.Screen,1_1_2_1_2,NA,NA,timeout,4996.872,114018.1,114019.128,114019.128,118999.4,118999.7,2024-04-15T15:13:31Z,119016,"c(""distractor1"", ""distractor2"", ""distractor3"")",Rückhalt,msaada,s,muhula,auwali,kiwimbe,NA,NA,0,NA,NA,NA,NA,NA,NA,NA,NA,NA,NA,NA,NA,NA,NA,NA,NA,NA,NA,NA,NA
b6eb3,shallow,flow.Sequence,1_1_2_1,NA,NA,completion,9577.6,109408.6,109405.2,109421.8,118999.4,118999.9,2024-04-15T15:13:31Z,119016,"c(""distractor1"", ""distractor2"", ""distractor3"")",Rückhalt,msaada,s,muhula,auwali,kiwimbe,NA,NA,NA,NA,NA,NA,NA,NA,NA,NA,NA,NA,NA,NA,NA,NA,NA,NA,NA,NA,NA,NA,NA
b6eb3,task,flow.Sequence,1_1_2,NA,NA,completion,9577.6,109408.2,109405.2,109421.8,118999.4,119000,2024-04-15T15:13:31Z,119016,"c(""distractor1"", ""distractor2"", ""distractor3"")",Rückhalt,msaada,s,muhula,auwali,kiwimbe,NA,NA,NA,NA,NA,NA,NA,NA,NA,NA,NA,NA,NA,NA,NA,NA,NA,NA,NA,NA,NA,NA,NA
b6eb3,deep,flow.Sequence,1_1_3_0,NA,NA,skipped,NA,119000,NA,NA,118999.4,119000.1,2024-04-15T15:13:31Z,119016,"c(""distractor1"", ""distractor2"", ""distractor3"")",Kritik,lawama,s,dereva,nafasi,mawazo,NA,NA,NA,NA,NA,NA,NA,NA,NA,NA,NA,NA,NA,NA,NA,NA,NA,NA,NA,NA,NA,NA,NA
b6eb3,Shallow Question,html.Page,1_1_3_1_0,NA,NA,form submission,3075.3999999999,119000.2,118999.4,119016,122091.4,122091.6,2024-04-15T15:13:34Z,122097,"c(""distractor1"", ""distractor2"", ""distractor3"")",Kritik,lawama,s,dereva,nafasi,mawazo,dereva,NA,NA,NA,NA,NA,NA,NA,NA,NA,NA,NA,NA,NA,NA,NA,NA,NA,NA,NA,NA,NA,NA
b6eb3,"""Richtig""-Screen",canvas.Screen,1_1_3_1_1,NA,NA,skipped,NA,122094,NA,NA,122091.4,122094.1,2024-04-15T15:13:34Z,122097,"c(""distractor1"", ""distractor2"", ""distractor3"")",Kritik,lawama,s,dereva,nafasi,mawazo,NA,NA,NA,NA,NA,NA,NA,NA,NA,NA,NA,NA,NA,NA,NA,NA,NA,NA,NA,NA,NA,NA,NA
b6eb3,"""Falsch""-Screen",canvas.Screen,1_1_3_1_2,NA,NA,timeout,4997,122095,122081.6,122097,127077.6,127078.5,2024-04-15T15:13:39Z,127094,"c(""distractor1"", ""distractor2"", ""distractor3"")",Kritik,lawama,s,dereva,nafasi,mawazo,NA,NA,0,NA,NA,NA,NA,NA,NA,NA,NA,NA,NA,NA,NA,NA,NA,NA,NA,NA,NA,NA,NA
b6eb3,shallow,flow.Sequence,1_1_3_1,NA,NA,completion,8061.6,119000.1,118999.4,119016,127077.6,127078.8,2024-04-15T15:13:39Z,127094,"c(""distractor1"", ""distractor2"", ""distractor3"")",Kritik,lawama,s,dereva,nafasi,mawazo,NA,NA,NA,NA,NA,NA,NA,NA,NA,NA,NA,NA,NA,NA,NA,NA,NA,NA,NA,NA,NA,NA,NA
b6eb3,task,flow.Sequence,1_1_3,NA,NA,completion,8061.6,119000,118999.4,119016,127077.6,127079.1,2024-04-15T15:13:39Z,127094,"c(""distractor1"", ""distractor2"", ""distractor3"")",Kritik,lawama,s,dereva,nafasi,mawazo,NA,NA,NA,NA,NA,NA,NA,NA,NA,NA,NA,NA,NA,NA,NA,NA,NA,NA,NA,NA,NA,NA,NA
b6eb3,Deep Question,html.Page,1_1_4_0_0,NA,NA,form submission,2973.8000000003,127079.4,127077.6,127094,130067.8,130068.1,2024-04-15T15:13:42Z,130075.5,"c(""distractor1"", ""distractor2"", ""distractor3"")",Qualität,mtindo,d,NA,NA,NA,ggfh,NA,NA,NA,NA,NA,NA,NA,NA,NA,NA,NA,NA,NA,NA,NA,NA,NA,NA,NA,NA,NA,NA
b6eb3,"""Richtig""-Screen",canvas.Screen,1_1_4_0_1,NA,NA,skipped,NA,130071,NA,NA,130067.8,130071.1,2024-04-15T15:13:42Z,130075.5,"c(""distractor1"", ""distractor2"", ""distractor3"")",Qualität,mtindo,d,NA,NA,NA,NA,NA,NA,NA,NA,NA,NA,NA,NA,NA,NA,NA,NA,NA,NA,NA,NA,NA,NA,NA,NA,NA,NA
b6eb3,"""Falsch""-Screen",canvas.Screen,1_1_4_0_2,NA,NA,timeout,4997.4,130071.7,130061,130075.5,135056.3,135057.3,2024-04-15T15:13:47Z,135072.9,"c(""distractor1"", ""distractor2"", ""distractor3"")",Qualität,mtindo,d,NA,NA,NA,NA,NA,0,NA,NA,NA,NA,NA,NA,NA,NA,NA,NA,NA,NA,NA,NA,NA,NA,NA,NA,NA,NA
b6eb3,deep,flow.Sequence,1_1_4_0,NA,NA,completion,7962.3,127079.3,127077.6,127094,135056.3,135057.6,2024-04-15T15:13:47Z,135072.9,"c(""distractor1"", ""distractor2"", ""distractor3"")",Qualität,mtindo,d,NA,NA,NA,NA,NA,NA,NA,NA,NA,NA,NA,NA,NA,NA,NA,NA,NA,NA,NA,NA,NA,NA,NA,NA,NA,NA
b6eb3,shallow,flow.Sequence,1_1_4_1,NA,NA,skipped,NA,135057.8,NA,NA,135056.3,135057.8,2024-04-15T15:13:47Z,135072.9,"c(""distractor1"", ""distractor2"", ""distractor3"")",Qualität,mtindo,d,NA,NA,NA,NA,NA,NA,NA,NA,NA,NA,NA,NA,NA,NA,NA,NA,NA,NA,NA,NA,NA,NA,NA,NA,NA,NA
b6eb3,task,flow.Sequence,1_1_4,NA,NA,completion,7962.3,127079.3,127077.6,127094,135056.3,135058.1,2024-04-15T15:13:47Z,135072.9,"c(""distractor1"", ""distractor2"", ""distractor3"")",Qualität,mtindo,d,NA,NA,NA,NA,NA,NA,NA,NA,NA,NA,NA,NA,NA,NA,NA,NA,NA,NA,NA,NA,NA,NA,NA,NA,NA,NA
b6eb3,deep,flow.Sequence,1_1_5_0,NA,NA,skipped,NA,135058.3,NA,NA,135056.3,135058.4,2024-04-15T15:13:47Z,135072.9,"c(""distractor1"", ""distractor2"", ""distractor3"")",Gegenwart,hadhara,s,katiba,jokofu,mikopo,NA,NA,NA,NA,NA,NA,NA,NA,NA,NA,NA,NA,NA,NA,NA,NA,NA,NA,NA,NA,NA,NA,NA
b6eb3,Shallow Question,html.Page,1_1_5_1_0,NA,NA,form submission,67892.7,135058.6,135056.3,135072.9,202965.6,202965.8,2024-04-15T15:14:55Z,202981.3,"c(""distractor1"", ""distractor2"", ""distractor3"")",Gegenwart,hadhara,s,katiba,jokofu,mikopo,hadhara,NA,NA,NA,NA,NA,NA,NA,NA,NA,NA,NA,NA,NA,NA,NA,NA,NA,NA,NA,NA,NA,NA
b6eb3,"""Richtig""-Screen",canvas.Screen,1_1_5_1_1,NA,NA,timeout,4996.9,202969,202965.1,202981.3,207961.3,207963.6,2024-04-15T15:15:00Z,207978.2,"c(""distractor1"", ""distractor2"", ""distractor3"")",Gegenwart,hadhara,s,katiba,jokofu,mikopo,NA,NA,1,NA,NA,NA,NA,NA,NA,NA,NA,NA,NA,NA,NA,NA,NA,NA,NA,NA,NA,NA,NA
b6eb3,"""Falsch""-Screen",canvas.Screen,1_1_5_1_2,NA,NA,skipped,NA,207965.1,NA,NA,207961.3,207965.3,2024-04-15T15:15:00Z,207978.2,"c(""distractor1"", ""distractor2"", ""distractor3"")",Gegenwart,hadhara,s,katiba,jokofu,mikopo,NA,NA,NA,NA,NA,NA,NA,NA,NA,NA,NA,NA,NA,NA,NA,NA,NA,NA,NA,NA,NA,NA,NA
b6eb3,shallow,flow.Sequence,1_1_5_1,NA,NA,completion,72888.4,135058.6,135056.3,135072.9,207961.3,207965.3,2024-04-15T15:15:00Z,207978.2,"c(""distractor1"", ""distractor2"", ""distractor3"")",Gegenwart,hadhara,s,katiba,jokofu,mikopo,NA,NA,NA,NA,NA,NA,NA,NA,NA,NA,NA,NA,NA,NA,NA,NA,NA,NA,NA,NA,NA,NA,NA
b6eb3,task,flow.Sequence,1_1_5,NA,NA,completion,72888.4,135058.2,135056.3,135072.9,207961.3,207965.4,2024-04-15T15:15:00Z,207978.2,"c(""distractor1"", ""distractor2"", ""distractor3"")",Gegenwart,hadhara,s,katiba,jokofu,mikopo,NA,NA,NA,NA,NA,NA,NA,NA,NA,NA,NA,NA,NA,NA,NA,NA,NA,NA,NA,NA,NA,NA,NA
b6eb3,block,flow.Loop,1_1,NA,NA,completion,167447.6,40496,40496.8,40513.7,207961.3,207965.4,2024-04-15T15:15:00Z,207978.2,"c(""distractor1"", ""distractor2"", ""distractor3"")",NA,NA,NA,NA,NA,NA,NA,NA,NA,NA,NA,NA,NA,NA,NA,NA,NA,NA,NA,NA,NA,NA,NA,NA,NA,NA,NA,NA,NA
b6eb3,Practice,flow.Sequence,1,NA,NA,completion,171312,36638.3,36634.932,36649.3,207961.3,207965.5,2024-04-15T15:15:00Z,207978.2,NULL,NA,NA,NA,NA,NA,NA,NA,NA,NA,NA,NA,NA,NA,NA,NA,NA,NA,NA,NA,NA,NA,NA,NA,NA,NA,NA,NA,NA,NA
b6eb3,Experiment start,canvas.Screen,2,weiter,keypress(q),response,7320.1000000003,207965.6,207961.3,207978.2,215298.3,215299.2,2024-04-15T15:15:07Z,215356.7,NULL,NA,NA,NA,NA,NA,NA,NA,NA,NA,NA,NA,NA,NA,NA,NA,NA,NA,NA,NA,NA,NA,NA,NA,NA,NA,NA,NA,NA,NA
b6eb3,deep,flow.Sequence,3_0_0_0_0_0,NA,NA,skipped,NA,215352.2,NA,NA,215298.3,215352.3,2024-04-15T15:15:07Z,215356.7,NULL,Aufstand,ugomaji,s,mazidio,msingi,kujieleza,NA,sdf,NA,0,NA,NA,NA,NA,NA,NA,NA,NA,NA,NA,NA,NA,NA,NA,NA,NA,NA,NA,NA
b6eb3,Shallow Question,html.Page,3_0_0_0_0_1_0,NA,NA,form submission,30918.6,215352.3,215349.476,215356.7,246275.3,246275.5,2024-04-15T15:15:38Z,246287.9,NULL,Aufstand,ugomaji,s,mazidio,msingi,kujieleza,mazidio,NA,NA,0,NA,NA,NA,NA,NA,NA,NA,NA,NA,NA,NA,NA,NA,NA,NA,NA,NA,NA,NA
b6eb3,"""Richtig""-Screen",canvas.Screen,3_0_0_0_0_1_1,NA,NA,skipped,NA,246277.9,NA,NA,246275.3,246278,2024-04-15T15:15:38Z,246287.9,NULL,Aufstand,ugomaji,s,mazidio,msingi,kujieleza,NA,sdf,NA,0,NA,NA,NA,NA,NA,NA,NA,NA,NA,NA,NA,NA,NA,NA,NA,NA,NA,NA,NA
b6eb3,"""Falsch""-Screen",canvas.Screen,3_0_0_0_0_1_2,NA,NA,timeout,4997.3,246278.5,246272.8,246287.9,251268.6,251269.4,2024-04-15T15:15:43Z,251285.2,NULL,Aufstand,ugomaji,s,mazidio,msingi,kujieleza,NA,sdf,0,0,NA,NA,NA,NA,NA,NA,NA,NA,NA,NA,NA,NA,NA,NA,NA,NA,NA,NA,NA
b6eb3,shallow,flow.Sequence,3_0_0_0_0_1,NA,NA,completion,35911.9,215352.3,215349.476,215356.7,251268.6,251269.8,2024-04-15T15:15:43Z,251285.2,NULL,Aufstand,ugomaji,s,mazidio,msingi,kujieleza,NA,sdf,NA,0,NA,NA,NA,NA,NA,NA,NA,NA,NA,NA,NA,NA,NA,NA,NA,NA,NA,NA,NA
b6eb3,task,flow.Sequence,3_0_0_0_0,NA,NA,completion,35911.9,215352.2,215349.476,215356.7,251268.6,251270,2024-04-15T15:15:43Z,251285.2,NULL,Aufstand,ugomaji,s,mazidio,msingi,kujieleza,NA,sdf,NA,0,NA,NA,NA,NA,NA,NA,NA,NA,NA,NA,NA,NA,NA,NA,NA,NA,NA,NA,NA
b6eb3,Deep Question,html.Page,3_0_0_0_1_0_0,NA,NA,form submission,4940.6000000003,251270.1,251268.6,251285.2,256225.8,256226.1,2024-04-15T15:15:48Z,256231.7,NULL,Verzögerung,kuchelewa,d,NA,NA,NA,kohl,NA,NA,0,NA,NA,NA,NA,NA,NA,NA,NA,NA,NA,NA,NA,NA,NA,NA,NA,NA,NA,NA
b6eb3,"""Richtig""-Screen",canvas.Screen,3_0_0_0_1_0_1,NA,NA,skipped,NA,256229.1,NA,NA,256225.8,256229.2,2024-04-15T15:15:48Z,256231.7,NULL,Verzögerung,kuchelewa,d,NA,NA,NA,NA,sdf,NA,0,NA,NA,NA,NA,NA,NA,NA,NA,NA,NA,NA,NA,NA,NA,NA,NA,NA,NA,NA
b6eb3,"""Falsch""-Screen",canvas.Screen,3_0_0_0_1_0_2,NA,NA,timeout,4997.5,256230,256215.3,256231.7,261212,261213.8,2024-04-15T15:15:53Z,261229.2,NULL,Verzögerung,kuchelewa,d,NA,NA,NA,NA,sdf,0,0,NA,NA,NA,NA,NA,NA,NA,NA,NA,NA,NA,NA,NA,NA,NA,NA,NA,NA,NA
b6eb3,deep,flow.Sequence,3_0_0_0_1_0,NA,NA,completion,9926.8,251270,251268.6,251285.2,261212,261214,2024-04-15T15:15:53Z,261229.2,NULL,Verzögerung,kuchelewa,d,NA,NA,NA,NA,sdf,NA,0,NA,NA,NA,NA,NA,NA,NA,NA,NA,NA,NA,NA,NA,NA,NA,NA,NA,NA,NA
b6eb3,shallow,flow.Sequence,3_0_0_0_1_1,NA,NA,skipped,NA,261214.2,NA,NA,261212,261214.3,2024-04-15T15:15:53Z,261229.2,NULL,Verzögerung,kuchelewa,d,NA,NA,NA,NA,sdf,NA,0,NA,NA,NA,NA,NA,NA,NA,NA,NA,NA,NA,NA,NA,NA,NA,NA,NA,NA,NA
b6eb3,task,flow.Sequence,3_0_0_0_1,NA,NA,completion,9926.8,251270,251268.6,251285.2,261212,261214.6,2024-04-15T15:15:53Z,261229.2,NULL,Verzögerung,kuchelewa,d,NA,NA,NA,NA,sdf,NA,0,NA,NA,NA,NA,NA,NA,NA,NA,NA,NA,NA,NA,NA,NA,NA,NA,NA,NA,NA
b6eb3,Deep Question,html.Page,3_0_0_0_2_0_0,NA,NA,form submission,5803.6999999999,261214.7,261212,261229.2,267032.9,267033.2,2024-04-15T15:15:59Z,267041.9,NULL,Begegnung,kukutana,d,NA,NA,NA,ert,NA,NA,0,NA,NA,NA,NA,NA,NA,NA,NA,NA,NA,NA,NA,NA,NA,NA,NA,NA,NA,NA
b6eb3,"""Richtig""-Screen",canvas.Screen,3_0_0_0_2_0_1,NA,NA,skipped,NA,267034.9,NA,NA,267032.9,267035,2024-04-15T15:15:59Z,267041.9,NULL,Begegnung,kukutana,d,NA,NA,NA,NA,sdf,NA,0,NA,NA,NA,NA,NA,NA,NA,NA,NA,NA,NA,NA,NA,NA,NA,NA,NA,NA,NA
b6eb3,"""Falsch""-Screen",canvas.Screen,3_0_0_0_2_0_2,NA,NA,timeout,4997.1,267035.4,267025.7,267041.9,272022.3,272024.2,2024-04-15T15:16:04Z,272039,NULL,Begegnung,kukutana,d,NA,NA,NA,NA,sdf,0,0,NA,NA,NA,NA,NA,NA,NA,NA,NA,NA,NA,NA,NA,NA,NA,NA,NA,NA,NA
b6eb3,deep,flow.Sequence,3_0_0_0_2_0,NA,NA,completion,10793.1,261214.7,261212,261229.2,272022.3,272024.5,2024-04-15T15:16:04Z,272039,NULL,Begegnung,kukutana,d,NA,NA,NA,NA,sdf,NA,0,NA,NA,NA,NA,NA,NA,NA,NA,NA,NA,NA,NA,NA,NA,NA,NA,NA,NA,NA
b6eb3,shallow,flow.Sequence,3_0_0_0_2_1,NA,NA,skipped,NA,272024.7,NA,NA,272022.3,272024.8,2024-04-15T15:16:04Z,272039,NULL,Begegnung,kukutana,d,NA,NA,NA,NA,sdf,NA,0,NA,NA,NA,NA,NA,NA,NA,NA,NA,NA,NA,NA,NA,NA,NA,NA,NA,NA,NA
b6eb3,task,flow.Sequence,3_0_0_0_2,NA,NA,completion,10793.1,261214.7,261212,261229.2,272022.3,272025,2024-04-15T15:16:04Z,272039,NULL,Begegnung,kukutana,d,NA,NA,NA,NA,sdf,NA,0,NA,NA,NA,NA,NA,NA,NA,NA,NA,NA,NA,NA,NA,NA,NA,NA,NA,NA,NA
b6eb3,Deep Question,html.Page,3_0_0_0_3_0_0,NA,NA,form submission,4808.8999999999,272025.2,272022.3,272039,276847.9,276848.1,2024-04-15T15:16:09Z,276852.73,NULL,Kultur,utamaduni,d,NA,NA,NA,kobs,NA,NA,0,NA,NA,NA,NA,NA,NA,NA,NA,NA,NA,NA,NA,NA,NA,NA,NA,NA,NA,NA
b6eb3,"""Richtig""-Screen",canvas.Screen,3_0_0_0_3_0_1,NA,NA,skipped,NA,276851.5,NA,NA,276847.9,276851.7,2024-04-15T15:16:09Z,276852.73,NULL,Kultur,utamaduni,d,NA,NA,NA,NA,sdf,NA,0,NA,NA,NA,NA,NA,NA,NA,NA,NA,NA,NA,NA,NA,NA,NA,NA,NA,NA,NA
b6eb3,"""Falsch""-Screen",canvas.Screen,3_0_0_0_3_0_2,NA,NA,timeout,4997.27,276852.3,276852.73,276852.73,281833,281834.1,2024-04-15T15:16:14Z,281850,NULL,Kultur,utamaduni,d,NA,NA,NA,NA,sdf,0,0,NA,NA,NA,NA,NA,NA,NA,NA,NA,NA,NA,NA,NA,NA,NA,NA,NA,NA,NA
b6eb3,deep,flow.Sequence,3_0_0_0_3_0,NA,NA,completion,9794,272025.1,272022.3,272039,281833,281834.4,2024-04-15T15:16:14Z,281850,NULL,Kultur,utamaduni,d,NA,NA,NA,NA,sdf,NA,0,NA,NA,NA,NA,NA,NA,NA,NA,NA,NA,NA,NA,NA,NA,NA,NA,NA,NA,NA
b6eb3,shallow,flow.Sequence,3_0_0_0_3_1,NA,NA,skipped,NA,281834.6,NA,NA,281833,281834.7,2024-04-15T15:16:14Z,281850,NULL,Kultur,utamaduni,d,NA,NA,NA,NA,sdf,NA,0,NA,NA,NA,NA,NA,NA,NA,NA,NA,NA,NA,NA,NA,NA,NA,NA,NA,NA,NA
b6eb3,task,flow.Sequence,3_0_0_0_3,NA,NA,completion,9794,272025.1,272022.3,272039,281833,281834.9,2024-04-15T15:16:14Z,281850,NULL,Kultur,utamaduni,d,NA,NA,NA,NA,sdf,NA,0,NA,NA,NA,NA,NA,NA,NA,NA,NA,NA,NA,NA,NA,NA,NA,NA,NA,NA,NA
b6eb3,Deep Question,html.Page,3_0_0_0_4_0_0,NA,NA,form submission,6362,281835.1,281833,281850,288212,288212.2,2024-04-15T15:16:20Z,288229.5,NULL,Genehmigung,idhini,d,NA,NA,NA,okip,NA,NA,0,NA,NA,NA,NA,NA,NA,NA,NA,NA,NA,NA,NA,NA,NA,NA,NA,NA,NA,NA
b6eb3,"""Richtig""-Screen",canvas.Screen,3_0_0_0_4_0_1,NA,NA,skipped,NA,288215.4,NA,NA,288212,288215.6,2024-04-15T15:16:20Z,288229.5,NULL,Genehmigung,idhini,d,NA,NA,NA,NA,sdf,NA,0,NA,NA,NA,NA,NA,NA,NA,NA,NA,NA,NA,NA,NA,NA,NA,NA,NA,NA,NA
b6eb3,"""Falsch""-Screen",canvas.Screen,3_0_0_0_4_0_2,NA,NA,timeout,4996.4,288216.3,288212.394,288229.5,293209.6,293210.6,2024-04-15T15:16:25Z,293225.9,NULL,Genehmigung,idhini,d,NA,NA,NA,NA,sdf,0,0,NA,NA,NA,NA,NA,NA,NA,NA,NA,NA,NA,NA,NA,NA,NA,NA,NA,NA,NA
b6eb3,deep,flow.Sequence,3_0_0_0_4_0,NA,NA,completion,11359.6,281835,281833,281850,293209.6,293210.9,2024-04-15T15:16:25Z,293225.9,NULL,Genehmigung,idhini,d,NA,NA,NA,NA,sdf,NA,0,NA,NA,NA,NA,NA,NA,NA,NA,NA,NA,NA,NA,NA,NA,NA,NA,NA,NA,NA
b6eb3,shallow,flow.Sequence,3_0_0_0_4_1,NA,NA,skipped,NA,293211,NA,NA,293209.6,293211.2,2024-04-15T15:16:25Z,293225.9,NULL,Genehmigung,idhini,d,NA,NA,NA,NA,sdf,NA,0,NA,NA,NA,NA,NA,NA,NA,NA,NA,NA,NA,NA,NA,NA,NA,NA,NA,NA,NA
b6eb3,task,flow.Sequence,3_0_0_0_4,NA,NA,completion,11359.6,281835,281833,281850,293209.6,293211.3,2024-04-15T15:16:25Z,293225.9,NULL,Genehmigung,idhini,d,NA,NA,NA,NA,sdf,NA,0,NA,NA,NA,NA,NA,NA,NA,NA,NA,NA,NA,NA,NA,NA,NA,NA,NA,NA,NA
b6eb3,deep,flow.Sequence,3_0_0_0_5_0,NA,NA,skipped,NA,293211.5,NA,NA,293209.6,293211.6,2024-04-15T15:16:25Z,293225.9,NULL,Fleisch,mshakiki,s,kizunguzungu,mshikamano,angusho,NA,sdf,NA,0,NA,NA,NA,NA,NA,NA,NA,NA,NA,NA,NA,NA,NA,NA,NA,NA,NA,NA,NA
b6eb3,Shallow Question,html.Page,3_0_0_0_5_1_0,NA,NA,form submission,5251.7000000001,293211.7,293209.6,293225.9,298477.6,298477.8,2024-04-15T15:16:30Z,298489.2,NULL,Fleisch,mshakiki,s,kizunguzungu,mshikamano,angusho,angusho,NA,NA,0,NA,NA,NA,NA,NA,NA,NA,NA,NA,NA,NA,NA,NA,NA,NA,NA,NA,NA,NA
b6eb3,"""Richtig""-Screen",canvas.Screen,3_0_0_0_5_1_1,NA,NA,skipped,NA,298480.9,NA,NA,298477.6,298481,2024-04-15T15:16:30Z,298489.2,NULL,Fleisch,mshakiki,s,kizunguzungu,mshikamano,angusho,NA,sdf,NA,0,NA,NA,NA,NA,NA,NA,NA,NA,NA,NA,NA,NA,NA,NA,NA,NA,NA,NA,NA
b6eb3,"""Falsch""-Screen",canvas.Screen,3_0_0_0_5_1_2,NA,NA,timeout,4997,298481.7,298473.7,298489.2,303470,303470.9,2024-04-15T15:16:35Z,303486.2,NULL,Fleisch,mshakiki,s,kizunguzungu,mshikamano,angusho,NA,sdf,0,0,NA,NA,NA,NA,NA,NA,NA,NA,NA,NA,NA,NA,NA,NA,NA,NA,NA,NA,NA
b6eb3,shallow,flow.Sequence,3_0_0_0_5_1,NA,NA,completion,10244.1,293211.7,293209.6,293225.9,303470,303471.3,2024-04-15T15:16:35Z,303486.2,NULL,Fleisch,mshakiki,s,kizunguzungu,mshikamano,angusho,NA,sdf,NA,0,NA,NA,NA,NA,NA,NA,NA,NA,NA,NA,NA,NA,NA,NA,NA,NA,NA,NA,NA
b6eb3,task,flow.Sequence,3_0_0_0_5,NA,NA,completion,10244.1,293211.5,293209.6,293225.9,303470,303471.5,2024-04-15T15:16:35Z,303486.2,NULL,Fleisch,mshakiki,s,kizunguzungu,mshikamano,angusho,NA,sdf,NA,0,NA,NA,NA,NA,NA,NA,NA,NA,NA,NA,NA,NA,NA,NA,NA,NA,NA,NA,NA
b6eb3,deep,flow.Sequence,3_0_0_0_6_0,NA,NA,skipped,NA,303471.6,NA,NA,303470,303471.8,2024-04-15T15:16:35Z,303486.2,NULL,Prüfung,mtihani,s,mkulima,mtizamo,ufumbuzi,NA,sdf,NA,0,NA,NA,NA,NA,NA,NA,NA,NA,NA,NA,NA,NA,NA,NA,NA,NA,NA,NA,NA
b6eb3,Shallow Question,html.Page,3_0_0_0_6_1_0,NA,NA,form submission,5797.0000000002,303471.9,303470,303486.2,309283.2,309283.4,2024-04-15T15:16:41Z,309299.9,NULL,Prüfung,mtihani,s,mkulima,mtizamo,ufumbuzi,mtihani,NA,NA,0,NA,NA,NA,NA,NA,NA,NA,NA,NA,NA,NA,NA,NA,NA,NA,NA,NA,NA,NA
b6eb3,"""Richtig""-Screen",canvas.Screen,3_0_0_0_6_1_1,NA,NA,timeout,4996.8,309287,309285.28,309299.9,314280,314280.8,2024-04-15T15:16:46Z,314296.7,NULL,Prüfung,mtihani,s,mkulima,mtizamo,ufumbuzi,NA,sdf,1,0,NA,NA,NA,NA,NA,NA,NA,NA,NA,NA,NA,NA,NA,NA,NA,NA,NA,NA,NA
b6eb3,"""Falsch""-Screen",canvas.Screen,3_0_0_0_6_1_2,NA,NA,skipped,NA,314285.9,NA,NA,314280,314286.1,2024-04-15T15:16:46Z,314296.7,NULL,Prüfung,mtihani,s,mkulima,mtizamo,ufumbuzi,NA,sdf,NA,0,NA,NA,NA,NA,NA,NA,NA,NA,NA,NA,NA,NA,NA,NA,NA,NA,NA,NA,NA
b6eb3,shallow,flow.Sequence,3_0_0_0_6_1,NA,NA,completion,10793.8,303471.9,303470,303486.2,314280,314286.2,2024-04-15T15:16:46Z,314296.7,NULL,Prüfung,mtihani,s,mkulima,mtizamo,ufumbuzi,NA,sdf,NA,0,NA,NA,NA,NA,NA,NA,NA,NA,NA,NA,NA,NA,NA,NA,NA,NA,NA,NA,NA
b6eb3,task,flow.Sequence,3_0_0_0_6,NA,NA,completion,10793.8,303471.6,303470,303486.2,314280,314286.3,2024-04-15T15:16:46Z,314296.7,NULL,Prüfung,mtihani,s,mkulima,mtizamo,ufumbuzi,NA,sdf,NA,0,NA,NA,NA,NA,NA,NA,NA,NA,NA,NA,NA,NA,NA,NA,NA,NA,NA,NA,NA
b6eb3,deep,flow.Sequence,3_0_0_0_7_0,NA,NA,skipped,NA,314286.3,NA,NA,314280,314286.4,2024-04-15T15:16:46Z,314296.7,NULL,Integrität,uadilifu,s,muungano,mtiririko,upunguaji,NA,sdf,NA,0,NA,NA,NA,NA,NA,NA,NA,NA,NA,NA,NA,NA,NA,NA,NA,NA,NA,NA,NA
b6eb3,Shallow Question,html.Page,3_0_0_0_7_1_0,NA,NA,form submission,5249.4000000001,314286.4,314280,314296.7,319546.1,319546.4,2024-04-15T15:16:51Z,319559.6,NULL,Integrität,uadilifu,s,muungano,mtiririko,upunguaji,upunguaji,NA,NA,0,NA,NA,NA,NA,NA,NA,NA,NA,NA,NA,NA,NA,NA,NA,NA,NA,NA,NA,NA
b6eb3,"""Richtig""-Screen",canvas.Screen,3_0_0_0_7_1_1,NA,NA,skipped,NA,319549.3,NA,NA,319546.1,319549.4,2024-04-15T15:16:51Z,319559.6,NULL,Integrität,uadilifu,s,muungano,mtiririko,upunguaji,NA,sdf,NA,0,NA,NA,NA,NA,NA,NA,NA,NA,NA,NA,NA,NA,NA,NA,NA,NA,NA,NA,NA
b6eb3,"""Falsch""-Screen",canvas.Screen,3_0_0_0_7_1_2,NA,NA,timeout,4997.1,319550.2,319551.284,319559.6,324540.2,324541.1,2024-04-15T15:16:56Z,324556.7,NULL,Integrität,uadilifu,s,muungano,mtiririko,upunguaji,NA,sdf,0,0,NA,NA,NA,NA,NA,NA,NA,NA,NA,NA,NA,NA,NA,NA,NA,NA,NA,NA,NA
b6eb3,shallow,flow.Sequence,3_0_0_0_7_1,NA,NA,completion,10243.5,314286.4,314280,314296.7,324540.2,324541.5,2024-04-15T15:16:56Z,324556.7,NULL,Integrität,uadilifu,s,muungano,mtiririko,upunguaji,NA,sdf,NA,0,NA,NA,NA,NA,NA,NA,NA,NA,NA,NA,NA,NA,NA,NA,NA,NA,NA,NA,NA
b6eb3,task,flow.Sequence,3_0_0_0_7,NA,NA,completion,10243.5,314286.3,314280,314296.7,324540.2,324541.8,2024-04-15T15:16:56Z,324556.7,NULL,Integrität,uadilifu,s,muungano,mtiririko,upunguaji,NA,sdf,NA,0,NA,NA,NA,NA,NA,NA,NA,NA,NA,NA,NA,NA,NA,NA,NA,NA,NA,NA,NA
b6eb3,block,flow.Loop,3_0_0_0,NA,NA,completion,109183.5,215352.2,215349.476,215356.7,324540.2,324542,2024-04-15T15:16:56Z,324556.7,NULL,NA,NA,NA,NA,NA,NA,NA,sdf,NA,0,NA,NA,NA,NA,NA,NA,NA,NA,NA,NA,NA,NA,NA,NA,NA,NA,NA,NA,NA
b6eb3,weiter,canvas.Screen,3_0_0_1,sdf,keypress(Space),response,1446.6999999999,324542.2,324540.2,324556.7,326003.4,326004.3,2024-04-15T15:16:58Z,326039,NULL,NA,NA,NA,NA,NA,NA,NA,sdf,NA,0,NA,NA,NA,NA,NA,NA,NA,NA,NA,NA,NA,NA,NA,NA,NA,NA,NA,NA,NA
b6eb3,check continue,flow.Sequence,3_0_0,NA,NA,completion,110646.7,215352.1,215349.476,215356.7,326003.4,326004.6,2024-04-15T15:16:58Z,326039,NULL,NA,NA,NA,NA,NA,NA,NA,sdf,NA,0,NA,NA,NA,NA,NA,NA,NA,NA,NA,NA,NA,NA,NA,NA,NA,NA,NA,NA,NA
b6eb3,Deep Question,html.Page,3_0_1_0_0_0_0,NA,NA,form submission,8070.6000000001,326024.6,326024.68,326039,334109.6,334109.9,2024-04-15T15:17:06Z,334117.3,NULL,Genehmigung,idhini,d,NA,NA,NA,utskawa,NA,NA,1,NA,NA,NA,NA,NA,NA,NA,NA,NA,NA,NA,NA,NA,NA,NA,NA,NA,NA,NA
b6eb3,"""Richtig""-Screen",canvas.Screen,3_0_1_0_0_0_1,NA,NA,skipped,NA,334113.2,NA,NA,334109.6,334113.3,2024-04-15T15:17:06Z,334117.3,NULL,Genehmigung,idhini,d,NA,NA,NA,NA,sdfdsf,NA,1,NA,NA,NA,NA,NA,NA,NA,NA,NA,NA,NA,NA,NA,NA,NA,NA,NA,NA,NA
b6eb3,"""Falsch""-Screen",canvas.Screen,3_0_1_0_0_0_2,NA,NA,timeout,4997.5,334114.1,334105.998,334117.3,339098.2,339099.1,2024-04-15T15:17:11Z,339114.8,NULL,Genehmigung,idhini,d,NA,NA,NA,NA,sdfdsf,0,1,NA,NA,NA,NA,NA,NA,NA,NA,NA,NA,NA,NA,NA,NA,NA,NA,NA,NA,NA
b6eb3,deep,flow.Sequence,3_0_1_0_0_0,NA,NA,completion,13059.2,326024.6,326024.68,326039,339098.2,339099.5,2024-04-15T15:17:11Z,339114.8,NULL,Genehmigung,idhini,d,NA,NA,NA,NA,sdfdsf,NA,1,NA,NA,NA,NA,NA,NA,NA,NA,NA,NA,NA,NA,NA,NA,NA,NA,NA,NA,NA
b6eb3,shallow,flow.Sequence,3_0_1_0_0_1,NA,NA,skipped,NA,339099.5,NA,NA,339098.2,339099.7,2024-04-15T15:17:11Z,339114.8,NULL,Genehmigung,idhini,d,NA,NA,NA,NA,sdfdsf,NA,1,NA,NA,NA,NA,NA,NA,NA,NA,NA,NA,NA,NA,NA,NA,NA,NA,NA,NA,NA
b6eb3,task,flow.Sequence,3_0_1_0_0,NA,NA,completion,13059.2,326024.6,326024.68,326039,339098.2,339099.9,2024-04-15T15:17:11Z,339114.8,NULL,Genehmigung,idhini,d,NA,NA,NA,NA,sdfdsf,NA,1,NA,NA,NA,NA,NA,NA,NA,NA,NA,NA,NA,NA,NA,NA,NA,NA,NA,NA,NA
b6eb3,deep,flow.Sequence,3_0_1_0_1_0,NA,NA,skipped,NA,339100.1,NA,NA,339098.2,339100.3,2024-04-15T15:17:11Z,339114.8,NULL,Integrität,uadilifu,s,muungano,mtiririko,upunguaji,NA,sdfdsf,NA,1,NA,NA,NA,NA,NA,NA,NA,NA,NA,NA,NA,NA,NA,NA,NA,NA,NA,NA,NA
b6eb3,Shallow Question,html.Page,3_0_1_0_1_1_0,NA,NA,form submission,10754.4,339100.4,339098.2,339114.8,349869.2,349869.5,2024-04-15T15:17:22Z,349874.4,NULL,Integrität,uadilifu,s,muungano,mtiririko,upunguaji,uadilifu,NA,NA,1,NA,NA,NA,NA,NA,NA,NA,NA,NA,NA,NA,NA,NA,NA,NA,NA,NA,NA,NA
b6eb3,"""Richtig""-Screen",canvas.Screen,3_0_1_0_1_1_1,NA,NA,timeout,4996.9,349872.6,349861.8,349874.4,354855.2,354856,2024-04-15T15:17:27Z,354871.3,NULL,Integrität,uadilifu,s,muungano,mtiririko,upunguaji,NA,sdfdsf,1,1,NA,NA,NA,NA,NA,NA,NA,NA,NA,NA,NA,NA,NA,NA,NA,NA,NA,NA,NA
b6eb3,"""Falsch""-Screen",canvas.Screen,3_0_1_0_1_1_2,NA,NA,skipped,NA,354861.3,NA,NA,354855.2,354861.4,2024-04-15T15:17:27Z,354871.3,NULL,Integrität,uadilifu,s,muungano,mtiririko,upunguaji,NA,sdfdsf,NA,1,NA,NA,NA,NA,NA,NA,NA,NA,NA,NA,NA,NA,NA,NA,NA,NA,NA,NA,NA
b6eb3,shallow,flow.Sequence,3_0_1_0_1_1,NA,NA,completion,15740.4,339100.3,339098.2,339114.8,354855.2,354861.5,2024-04-15T15:17:27Z,354871.3,NULL,Integrität,uadilifu,s,muungano,mtiririko,upunguaji,NA,sdfdsf,NA,1,NA,NA,NA,NA,NA,NA,NA,NA,NA,NA,NA,NA,NA,NA,NA,NA,NA,NA,NA
b6eb3,task,flow.Sequence,3_0_1_0_1,NA,NA,completion,15740.4,339100,339098.2,339114.8,354855.2,354861.5,2024-04-15T15:17:27Z,354871.3,NULL,Integrität,uadilifu,s,muungano,mtiririko,upunguaji,NA,sdfdsf,NA,1,NA,NA,NA,NA,NA,NA,NA,NA,NA,NA,NA,NA,NA,NA,NA,NA,NA,NA,NA
b6eb3,Deep Question,html.Page,3_0_1_0_2_0_0,NA,NA,form submission,6949.7,354861.5,354855.2,354871.3,361821,361821.2,2024-04-15T15:17:34Z,361833.7,NULL,Kultur,utamaduni,d,NA,NA,NA,kol,NA,NA,1,NA,NA,NA,NA,NA,NA,NA,NA,NA,NA,NA,NA,NA,NA,NA,NA,NA,NA,NA
b6eb3,"""Richtig""-Screen",canvas.Screen,3_0_1_0_2_0_1,NA,NA,skipped,NA,361824.2,NA,NA,361821,361824.4,2024-04-15T15:17:34Z,361833.7,NULL,Kultur,utamaduni,d,NA,NA,NA,NA,sdfdsf,NA,1,NA,NA,NA,NA,NA,NA,NA,NA,NA,NA,NA,NA,NA,NA,NA,NA,NA,NA,NA
b6eb3,"""Falsch""-Screen",canvas.Screen,3_0_1_0_2_0_2,NA,NA,timeout,4997.6,361825,361818.666,361833.7,366814.4,366816.3,2024-04-15T15:17:39Z,366831.3,NULL,Kultur,utamaduni,d,NA,NA,NA,NA,sdfdsf,0,1,NA,NA,NA,NA,NA,NA,NA,NA,NA,NA,NA,NA,NA,NA,NA,NA,NA,NA,NA
b6eb3,deep,flow.Sequence,3_0_1_0_2_0,NA,NA,completion,11943.1,354861.5,354855.2,354871.3,366814.4,366816.7,2024-04-15T15:17:39Z,366831.3,NULL,Kultur,utamaduni,d,NA,NA,NA,NA,sdfdsf,NA,1,NA,NA,NA,NA,NA,NA,NA,NA,NA,NA,NA,NA,NA,NA,NA,NA,NA,NA,NA
b6eb3,shallow,flow.Sequence,3_0_1_0_2_1,NA,NA,skipped,NA,366816.9,NA,NA,366814.4,366817.1,2024-04-15T15:17:39Z,366831.3,NULL,Kultur,utamaduni,d,NA,NA,NA,NA,sdfdsf,NA,1,NA,NA,NA,NA,NA,NA,NA,NA,NA,NA,NA,NA,NA,NA,NA,NA,NA,NA,NA
b6eb3,task,flow.Sequence,3_0_1_0_2,NA,NA,completion,11943.1,354861.5,354855.2,354871.3,366814.4,366817.2,2024-04-15T15:17:39Z,366831.3,NULL,Kultur,utamaduni,d,NA,NA,NA,NA,sdfdsf,NA,1,NA,NA,NA,NA,NA,NA,NA,NA,NA,NA,NA,NA,NA,NA,NA,NA,NA,NA,NA
b6eb3,Deep Question,html.Page,3_0_1_0_3_0_0,NA,NA,form submission,6338.4000000002,366817.5,366814.4,366831.3,373169.7,373170,2024-04-15T15:17:45Z,373176.9,NULL,Begegnung,kukutana,d,NA,NA,NA,kol,NA,NA,1,NA,NA,NA,NA,NA,NA,NA,NA,NA,NA,NA,NA,NA,NA,NA,NA,NA,NA,NA
b6eb3,"""Richtig""-Screen",canvas.Screen,3_0_1_0_3_0_1,NA,NA,skipped,NA,373173.2,NA,NA,373169.7,373173.4,2024-04-15T15:17:45Z,373176.9,NULL,Begegnung,kukutana,d,NA,NA,NA,NA,sdfdsf,NA,1,NA,NA,NA,NA,NA,NA,NA,NA,NA,NA,NA,NA,NA,NA,NA,NA,NA,NA,NA
b6eb3,"""Falsch""-Screen",canvas.Screen,3_0_1_0_3_0_2,NA,NA,timeout,4997.2,373174.2,373161.128,373176.9,378157.6,378158.1,2024-04-15T15:17:50Z,378174.1,NULL,Begegnung,kukutana,d,NA,NA,NA,NA,sdfdsf,0,1,NA,NA,NA,NA,NA,NA,NA,NA,NA,NA,NA,NA,NA,NA,NA,NA,NA,NA,NA
b6eb3,deep,flow.Sequence,3_0_1_0_3_0,NA,NA,completion,11326.3,366817.4,366814.4,366831.3,378157.6,378158.3,2024-04-15T15:17:50Z,378174.1,NULL,Begegnung,kukutana,d,NA,NA,NA,NA,sdfdsf,NA,1,NA,NA,NA,NA,NA,NA,NA,NA,NA,NA,NA,NA,NA,NA,NA,NA,NA,NA,NA
b6eb3,shallow,flow.Sequence,3_0_1_0_3_1,NA,NA,skipped,NA,378158.3,NA,NA,378157.6,378158.5,2024-04-15T15:17:50Z,378174.1,NULL,Begegnung,kukutana,d,NA,NA,NA,NA,sdfdsf,NA,1,NA,NA,NA,NA,NA,NA,NA,NA,NA,NA,NA,NA,NA,NA,NA,NA,NA,NA,NA
b6eb3,task,flow.Sequence,3_0_1_0_3,NA,NA,completion,11326.3,366817.3,366814.4,366831.3,378157.6,378158.5,2024-04-15T15:17:50Z,378174.1,NULL,Begegnung,kukutana,d,NA,NA,NA,NA,sdfdsf,NA,1,NA,NA,NA,NA,NA,NA,NA,NA,NA,NA,NA,NA,NA,NA,NA,NA,NA,NA,NA
b6eb3,deep,flow.Sequence,3_0_1_0_4_0,NA,NA,skipped,NA,378158.6,NA,NA,378157.6,378158.6,2024-04-15T15:17:50Z,378174.1,NULL,Prüfung,mtihani,s,mkulima,mtizamo,ufumbuzi,NA,sdfdsf,NA,1,NA,NA,NA,NA,NA,NA,NA,NA,NA,NA,NA,NA,NA,NA,NA,NA,NA,NA,NA
b6eb3,Shallow Question,html.Page,3_0_1_0_4_1_0,NA,NA,form submission,4997.2000000003,378158.7,378157.6,378174.1,383171.3,383171.6,2024-04-15T15:17:55Z,383188.9,NULL,Prüfung,mtihani,s,mkulima,mtizamo,ufumbuzi,mtihani,NA,NA,1,NA,NA,NA,NA,NA,NA,NA,NA,NA,NA,NA,NA,NA,NA,NA,NA,NA,NA,NA
b6eb3,"""Richtig""-Screen",canvas.Screen,3_0_1_0_4_1_1,NA,NA,timeout,4995.4,383174.8,383171.486,383188.9,388167.7,388168,2024-04-15T15:18:00Z,388184.3,NULL,Prüfung,mtihani,s,mkulima,mtizamo,ufumbuzi,NA,sdfdsf,1,1,NA,NA,NA,NA,NA,NA,NA,NA,NA,NA,NA,NA,NA,NA,NA,NA,NA,NA,NA
b6eb3,"""Falsch""-Screen",canvas.Screen,3_0_1_0_4_1_2,NA,NA,skipped,NA,388169.4,NA,NA,388167.7,388169.5,2024-04-15T15:18:00Z,388184.3,NULL,Prüfung,mtihani,s,mkulima,mtizamo,ufumbuzi,NA,sdfdsf,NA,1,NA,NA,NA,NA,NA,NA,NA,NA,NA,NA,NA,NA,NA,NA,NA,NA,NA,NA,NA
b6eb3,shallow,flow.Sequence,3_0_1_0_4_1,NA,NA,completion,9993.6,378158.7,378157.6,378174.1,388167.7,388169.6,2024-04-15T15:18:00Z,388184.3,NULL,Prüfung,mtihani,s,mkulima,mtizamo,ufumbuzi,NA,sdfdsf,NA,1,NA,NA,NA,NA,NA,NA,NA,NA,NA,NA,NA,NA,NA,NA,NA,NA,NA,NA,NA
b6eb3,task,flow.Sequence,3_0_1_0_4,NA,NA,completion,9993.6,378158.5,378157.6,378174.1,388167.7,388169.7,2024-04-15T15:18:00Z,388184.3,NULL,Prüfung,mtihani,s,mkulima,mtizamo,ufumbuzi,NA,sdfdsf,NA,1,NA,NA,NA,NA,NA,NA,NA,NA,NA,NA,NA,NA,NA,NA,NA,NA,NA,NA,NA
b6eb3,deep,flow.Sequence,3_0_1_0_5_0,NA,NA,skipped,NA,388169.7,NA,NA,388167.7,388169.8,2024-04-15T15:18:00Z,388184.3,NULL,Aufstand,ugomaji,s,mazidio,msingi,kujieleza,NA,sdfdsf,NA,1,NA,NA,NA,NA,NA,NA,NA,NA,NA,NA,NA,NA,NA,NA,NA,NA,NA,NA,NA
b6eb3,Shallow Question,html.Page,3_0_1_0_5_1_0,NA,NA,form submission,9074.0000000003,388169.9,388167.7,388184.3,397258.3,397258.6,2024-04-15T15:18:09Z,397263.19,NULL,Aufstand,ugomaji,s,mazidio,msingi,kujieleza,mazidio,NA,NA,1,NA,NA,NA,NA,NA,NA,NA,NA,NA,NA,NA,NA,NA,NA,NA,NA,NA,NA,NA
b6eb3,"""Richtig""-Screen",canvas.Screen,3_0_1_0_5_1_1,NA,NA,skipped,NA,397261.8,NA,NA,397258.3,397262,2024-04-15T15:18:09Z,397263.19,NULL,Aufstand,ugomaji,s,mazidio,msingi,kujieleza,NA,sdfdsf,NA,1,NA,NA,NA,NA,NA,NA,NA,NA,NA,NA,NA,NA,NA,NA,NA,NA,NA,NA,NA
b6eb3,"""Falsch""-Screen",canvas.Screen,3_0_1_0_5_1_2,NA,NA,timeout,4996.51,397262.7,397263.19,397263.19,402242.7,402243.6,2024-04-15T15:18:14Z,402259.7,NULL,Aufstand,ugomaji,s,mazidio,msingi,kujieleza,NA,sdfdsf,0,1,NA,NA,NA,NA,NA,NA,NA,NA,NA,NA,NA,NA,NA,NA,NA,NA,NA,NA,NA
b6eb3,shallow,flow.Sequence,3_0_1_0_5_1,NA,NA,completion,14058.4,388169.8,388167.7,388184.3,402242.7,402244,2024-04-15T15:18:14Z,402259.7,NULL,Aufstand,ugomaji,s,mazidio,msingi,kujieleza,NA,sdfdsf,NA,1,NA,NA,NA,NA,NA,NA,NA,NA,NA,NA,NA,NA,NA,NA,NA,NA,NA,NA,NA
b6eb3,task,flow.Sequence,3_0_1_0_5,NA,NA,completion,14058.4,388169.7,388167.7,388184.3,402242.7,402244.2,2024-04-15T15:18:14Z,402259.7,NULL,Aufstand,ugomaji,s,mazidio,msingi,kujieleza,NA,sdfdsf,NA,1,NA,NA,NA,NA,NA,NA,NA,NA,NA,NA,NA,NA,NA,NA,NA,NA,NA,NA,NA
b6eb3,deep,flow.Sequence,3_0_1_0_6_0,NA,NA,skipped,NA,402244.4,NA,NA,402242.7,402244.5,2024-04-15T15:18:14Z,402259.7,NULL,Fleisch,mshakiki,s,kizunguzungu,mshikamano,angusho,NA,sdfdsf,NA,1,NA,NA,NA,NA,NA,NA,NA,NA,NA,NA,NA,NA,NA,NA,NA,NA,NA,NA,NA
b6eb3,Shallow Question,html.Page,3_0_1_0_6_1_0,NA,NA,form submission,6089.3,402244.7,402242.7,402259.7,408349,408349.2,2024-04-15T15:18:20Z,408372.3,NULL,Fleisch,mshakiki,s,kizunguzungu,mshikamano,angusho,mshakiki,NA,NA,1,NA,NA,NA,NA,NA,NA,NA,NA,NA,NA,NA,NA,NA,NA,NA,NA,NA,NA,NA
b6eb3,"""Richtig""-Screen",canvas.Screen,3_0_1_0_6_1_1,NA,NA,timeout,4997.1,408352.2,408356.24,408372.3,413352.5,413354.2,2024-04-15T15:18:25Z,413369.4,NULL,Fleisch,mshakiki,s,kizunguzungu,mshikamano,angusho,NA,sdfdsf,1,1,NA,NA,NA,NA,NA,NA,NA,NA,NA,NA,NA,NA,NA,NA,NA,NA,NA,NA,NA
b6eb3,"""Falsch""-Screen",canvas.Screen,3_0_1_0_6_1_2,NA,NA,skipped,NA,413359,NA,NA,413352.5,413359,2024-04-15T15:18:25Z,413369.4,NULL,Fleisch,mshakiki,s,kizunguzungu,mshikamano,angusho,NA,sdfdsf,NA,1,NA,NA,NA,NA,NA,NA,NA,NA,NA,NA,NA,NA,NA,NA,NA,NA,NA,NA,NA
b6eb3,shallow,flow.Sequence,3_0_1_0_6_1,NA,NA,completion,11092.8,402244.6,402242.7,402259.7,413352.5,413359.2,2024-04-15T15:18:25Z,413369.4,NULL,Fleisch,mshakiki,s,kizunguzungu,mshikamano,angusho,NA,sdfdsf,NA,1,NA,NA,NA,NA,NA,NA,NA,NA,NA,NA,NA,NA,NA,NA,NA,NA,NA,NA,NA
b6eb3,task,flow.Sequence,3_0_1_0_6,NA,NA,completion,11092.8,402244.4,402242.7,402259.7,413352.5,413359.3,2024-04-15T15:18:25Z,413369.4,NULL,Fleisch,mshakiki,s,kizunguzungu,mshikamano,angusho,NA,sdfdsf,NA,1,NA,NA,NA,NA,NA,NA,NA,NA,NA,NA,NA,NA,NA,NA,NA,NA,NA,NA,NA
b6eb3,Deep Question,html.Page,3_0_1_0_7_0_0,NA,NA,form submission,5551.8000000002,413359.3,413352.5,413369.4,418921.2,418921.5,2024-04-15T15:18:31Z,418932.4,NULL,Verzögerung,kuchelewa,d,NA,NA,NA,utakawa,NA,NA,1,NA,NA,NA,NA,NA,NA,NA,NA,NA,NA,NA,NA,NA,NA,NA,NA,NA,NA,NA
b6eb3,"""Richtig""-Screen",canvas.Screen,3_0_1_0_7_0_1,NA,NA,skipped,NA,418923.5,NA,NA,418921.2,418923.6,2024-04-15T15:18:31Z,418932.4,NULL,Verzögerung,kuchelewa,d,NA,NA,NA,NA,sdfdsf,NA,1,NA,NA,NA,NA,NA,NA,NA,NA,NA,NA,NA,NA,NA,NA,NA,NA,NA,NA,NA
b6eb3,"""Falsch""-Screen",canvas.Screen,3_0_1_0_7_0_2,NA,NA,timeout,4997.2,418924.2,418918.366,418932.4,423912.5,423913.6,2024-04-15T15:18:36Z,423929.6,NULL,Verzögerung,kuchelewa,d,NA,NA,NA,NA,sdfdsf,0,1,NA,NA,NA,NA,NA,NA,NA,NA,NA,NA,NA,NA,NA,NA,NA,NA,NA,NA,NA
b6eb3,deep,flow.Sequence,3_0_1_0_7_0,NA,NA,completion,10543.1,413359.3,413352.5,413369.4,423912.5,423913.9,2024-04-15T15:18:36Z,423929.6,NULL,Verzögerung,kuchelewa,d,NA,NA,NA,NA,sdfdsf,NA,1,NA,NA,NA,NA,NA,NA,NA,NA,NA,NA,NA,NA,NA,NA,NA,NA,NA,NA,NA
b6eb3,shallow,flow.Sequence,3_0_1_0_7_1,NA,NA,skipped,NA,423914.1,NA,NA,423912.5,423914.2,2024-04-15T15:18:36Z,423929.6,NULL,Verzögerung,kuchelewa,d,NA,NA,NA,NA,sdfdsf,NA,1,NA,NA,NA,NA,NA,NA,NA,NA,NA,NA,NA,NA,NA,NA,NA,NA,NA,NA,NA
b6eb3,task,flow.Sequence,3_0_1_0_7,NA,NA,completion,10543.1,413359.3,413352.5,413369.4,423912.5,423914.4,2024-04-15T15:18:36Z,423929.6,NULL,Verzögerung,kuchelewa,d,NA,NA,NA,NA,sdfdsf,NA,1,NA,NA,NA,NA,NA,NA,NA,NA,NA,NA,NA,NA,NA,NA,NA,NA,NA,NA,NA
b6eb3,block,flow.Loop,3_0_1_0,NA,NA,completion,97873.5,326024.6,326024.68,326039,423912.5,423914.6,2024-04-15T15:18:36Z,423929.6,NULL,NA,NA,NA,NA,NA,NA,NA,sdfdsf,NA,1,NA,NA,NA,NA,NA,NA,NA,NA,NA,NA,NA,NA,NA,NA,NA,NA,NA,NA,NA
b6eb3,weiter,canvas.Screen,3_0_1_1,sdf,keypress(Space),response,1418.4,423914.8,423912.5,423929.6,425348,425348.9,2024-04-15T15:18:37Z,425395.4,NULL,NA,NA,NA,NA,NA,NA,NA,sdfdsf,NA,1,NA,NA,NA,NA,NA,NA,NA,NA,NA,NA,NA,NA,NA,NA,NA,NA,NA,NA,NA
b6eb3,check continue,flow.Sequence,3_0_1,NA,NA,completion,99309,326024.6,326024.68,326039,425348,425349.2,2024-04-15T15:18:37Z,425395.4,NULL,NA,NA,NA,NA,NA,NA,NA,sdfdsf,NA,1,NA,NA,NA,NA,NA,NA,NA,NA,NA,NA,NA,NA,NA,NA,NA,NA,NA,NA,NA
b6eb3,deep,flow.Sequence,3_0_2_0_0_0,NA,NA,skipped,NA,425383.4,NA,NA,425348,425383.4,2024-04-15T15:18:37Z,425395.4,NULL,Fleisch,mshakiki,s,kizunguzungu,mshikamano,angusho,NA,sdf,NA,2,NA,NA,NA,NA,NA,NA,NA,NA,NA,NA,NA,NA,NA,NA,NA,NA,NA,NA,NA
b6eb3,Shallow Question,html.Page,3_0_2_0_0_1_0,NA,NA,form submission,4723.8000000002,425383.5,425380.9,425395.4,430119.2,430119.4,2024-04-15T15:18:42Z,430125.3,NULL,Fleisch,mshakiki,s,kizunguzungu,mshikamano,angusho,mshakiki,NA,NA,2,NA,NA,NA,NA,NA,NA,NA,NA,NA,NA,NA,NA,NA,NA,NA,NA,NA,NA,NA
b6eb3,"""Richtig""-Screen",canvas.Screen,3_0_2_0_0_1_1,NA,NA,timeout,4997.3,430122.4,430109.8,430125.3,435106.1,435106.5,2024-04-15T15:18:47Z,435122.6,NULL,Fleisch,mshakiki,s,kizunguzungu,mshikamano,angusho,NA,sdf,1,2,NA,NA,NA,NA,NA,NA,NA,NA,NA,NA,NA,NA,NA,NA,NA,NA,NA,NA,NA
b6eb3,"""Falsch""-Screen",canvas.Screen,3_0_2_0_0_1_2,NA,NA,skipped,NA,435108.3,NA,NA,435106.1,435108.3,2024-04-15T15:18:47Z,435122.6,NULL,Fleisch,mshakiki,s,kizunguzungu,mshikamano,angusho,NA,sdf,NA,2,NA,NA,NA,NA,NA,NA,NA,NA,NA,NA,NA,NA,NA,NA,NA,NA,NA,NA,NA
b6eb3,shallow,flow.Sequence,3_0_2_0_0_1,NA,NA,completion,9710.7,425383.5,425380.9,425395.4,435106.1,435108.5,2024-04-15T15:18:47Z,435122.6,NULL,Fleisch,mshakiki,s,kizunguzungu,mshikamano,angusho,NA,sdf,NA,2,NA,NA,NA,NA,NA,NA,NA,NA,NA,NA,NA,NA,NA,NA,NA,NA,NA,NA,NA
b6eb3,task,flow.Sequence,3_0_2_0_0,NA,NA,completion,9710.7,425383.4,425380.9,425395.4,435106.1,435108.5,2024-04-15T15:18:47Z,435122.6,NULL,Fleisch,mshakiki,s,kizunguzungu,mshikamano,angusho,NA,sdf,NA,2,NA,NA,NA,NA,NA,NA,NA,NA,NA,NA,NA,NA,NA,NA,NA,NA,NA,NA,NA
b6eb3,Deep Question,html.Page,3_0_2_0_1_0_0,NA,NA,form submission,13922.8,435108.6,435106.1,435122.6,449045.4,449045.7,2024-04-15T15:19:01Z,449047.628,NULL,Kultur,utamaduni,d,NA,NA,NA,kukulemu,NA,NA,2,NA,NA,NA,NA,NA,NA,NA,NA,NA,NA,NA,NA,NA,NA,NA,NA,NA,NA,NA
b6eb3,"""Richtig""-Screen",canvas.Screen,3_0_2_0_1_0_1,NA,NA,skipped,NA,449048.7,NA,NA,449045.4,449048.9,2024-04-15T15:19:01Z,449047.628,NULL,Kultur,utamaduni,d,NA,NA,NA,NA,sdf,NA,2,NA,NA,NA,NA,NA,NA,NA,NA,NA,NA,NA,NA,NA,NA,NA,NA,NA,NA,NA
b6eb3,"""Falsch""-Screen",canvas.Screen,3_0_2_0_1_0_2,NA,NA,timeout,4996.872,449049.7,449047.628,449047.628,454027.9,454028.9,2024-04-15T15:19:06Z,454044.5,NULL,Kultur,utamaduni,d,NA,NA,NA,NA,sdf,0,2,NA,NA,NA,NA,NA,NA,NA,NA,NA,NA,NA,NA,NA,NA,NA,NA,NA,NA,NA
b6eb3,deep,flow.Sequence,3_0_2_0_1_0,NA,NA,completion,18905.3,435108.6,435106.1,435122.6,454027.9,454029.3,2024-04-15T15:19:06Z,454044.5,NULL,Kultur,utamaduni,d,NA,NA,NA,NA,sdf,NA,2,NA,NA,NA,NA,NA,NA,NA,NA,NA,NA,NA,NA,NA,NA,NA,NA,NA,NA,NA
b6eb3,shallow,flow.Sequence,3_0_2_0_1_1,NA,NA,skipped,NA,454029.5,NA,NA,454027.9,454029.7,2024-04-15T15:19:06Z,454044.5,NULL,Kultur,utamaduni,d,NA,NA,NA,NA,sdf,NA,2,NA,NA,NA,NA,NA,NA,NA,NA,NA,NA,NA,NA,NA,NA,NA,NA,NA,NA,NA
b6eb3,task,flow.Sequence,3_0_2_0_1,NA,NA,completion,18905.3,435108.6,435106.1,435122.6,454027.9,454029.9,2024-04-15T15:19:06Z,454044.5,NULL,Kultur,utamaduni,d,NA,NA,NA,NA,sdf,NA,2,NA,NA,NA,NA,NA,NA,NA,NA,NA,NA,NA,NA,NA,NA,NA,NA,NA,NA,NA
b6eb3,deep,flow.Sequence,3_0_2_0_2_0,NA,NA,skipped,NA,454030.1,NA,NA,454027.9,454030.2,2024-04-15T15:19:06Z,454044.5,NULL,Prüfung,mtihani,s,mkulima,mtizamo,ufumbuzi,NA,sdf,NA,2,NA,NA,NA,NA,NA,NA,NA,NA,NA,NA,NA,NA,NA,NA,NA,NA,NA,NA,NA
b6eb3,Shallow Question,html.Page,3_0_2_0_2_1_0,NA,NA,form submission,3788.7000000002,454030.3,454027.9,454044.5,457833.2,457833.5,2024-04-15T15:19:10Z,457841.7,NULL,Prüfung,mtihani,s,mkulima,mtizamo,ufumbuzi,mtihani,NA,NA,2,NA,NA,NA,NA,NA,NA,NA,NA,NA,NA,NA,NA,NA,NA,NA,NA,NA,NA,NA
b6eb3,"""Richtig""-Screen",canvas.Screen,3_0_2_0_2_1_1,NA,NA,timeout,4997.6,457836.6,457825.8,457841.7,462822.3,462823.2,2024-04-15T15:19:15Z,462839.3,NULL,Prüfung,mtihani,s,mkulima,mtizamo,ufumbuzi,NA,sdf,1,2,NA,NA,NA,NA,NA,NA,NA,NA,NA,NA,NA,NA,NA,NA,NA,NA,NA,NA,NA
b6eb3,"""Falsch""-Screen",canvas.Screen,3_0_2_0_2_1_2,NA,NA,skipped,NA,462828.5,NA,NA,462822.3,462828.6,2024-04-15T15:19:15Z,462839.3,NULL,Prüfung,mtihani,s,mkulima,mtizamo,ufumbuzi,NA,sdf,NA,2,NA,NA,NA,NA,NA,NA,NA,NA,NA,NA,NA,NA,NA,NA,NA,NA,NA,NA,NA
b6eb3,shallow,flow.Sequence,3_0_2_0_2_1,NA,NA,completion,8777.8,454030.3,454027.9,454044.5,462822.3,462828.7,2024-04-15T15:19:15Z,462839.3,NULL,Prüfung,mtihani,s,mkulima,mtizamo,ufumbuzi,NA,sdf,NA,2,NA,NA,NA,NA,NA,NA,NA,NA,NA,NA,NA,NA,NA,NA,NA,NA,NA,NA,NA
b6eb3,task,flow.Sequence,3_0_2_0_2,NA,NA,completion,8777.8,454030,454027.9,454044.5,462822.3,462828.7,2024-04-15T15:19:15Z,462839.3,NULL,Prüfung,mtihani,s,mkulima,mtizamo,ufumbuzi,NA,sdf,NA,2,NA,NA,NA,NA,NA,NA,NA,NA,NA,NA,NA,NA,NA,NA,NA,NA,NA,NA,NA
b6eb3,deep,flow.Sequence,3_0_2_0_3_0,NA,NA,skipped,NA,462828.8,NA,NA,462822.3,462828.8,2024-04-15T15:19:15Z,462839.3,NULL,Aufstand,ugomaji,s,mazidio,msingi,kujieleza,NA,sdf,NA,2,NA,NA,NA,NA,NA,NA,NA,NA,NA,NA,NA,NA,NA,NA,NA,NA,NA,NA,NA
b6eb3,Shallow Question,html.Page,3_0_2_0_3_1_0,NA,NA,form submission,4365.3000000001,462828.9,462822.3,462839.3,467204.6,467204.7,2024-04-15T15:19:19Z,467236.2,NULL,Aufstand,ugomaji,s,mazidio,msingi,kujieleza,ugomaji,NA,NA,2,NA,NA,NA,NA,NA,NA,NA,NA,NA,NA,NA,NA,NA,NA,NA,NA,NA,NA,NA
b6eb3,"""Richtig""-Screen",canvas.Screen,3_0_2_0_3_1_1,NA,NA,timeout,4997.2,467206.7,467219.9,467236.2,472216.5,472217.5,2024-04-15T15:19:24Z,472233.4,NULL,Aufstand,ugomaji,s,mazidio,msingi,kujieleza,NA,sdf,1,2,NA,NA,NA,NA,NA,NA,NA,NA,NA,NA,NA,NA,NA,NA,NA,NA,NA,NA,NA
b6eb3,"""Falsch""-Screen",canvas.Screen,3_0_2_0_3_1_2,NA,NA,skipped,NA,472222.5,NA,NA,472216.5,472222.7,2024-04-15T15:19:24Z,472233.4,NULL,Aufstand,ugomaji,s,mazidio,msingi,kujieleza,NA,sdf,NA,2,NA,NA,NA,NA,NA,NA,NA,NA,NA,NA,NA,NA,NA,NA,NA,NA,NA,NA,NA
b6eb3,shallow,flow.Sequence,3_0_2_0_3_1,NA,NA,completion,9377.2,462828.9,462822.3,462839.3,472216.5,472222.8,2024-04-15T15:19:24Z,472233.4,NULL,Aufstand,ugomaji,s,mazidio,msingi,kujieleza,NA,sdf,NA,2,NA,NA,NA,NA,NA,NA,NA,NA,NA,NA,NA,NA,NA,NA,NA,NA,NA,NA,NA
b6eb3,task,flow.Sequence,3_0_2_0_3,NA,NA,completion,9377.2,462828.8,462822.3,462839.3,472216.5,472222.9,2024-04-15T15:19:24Z,472233.4,NULL,Aufstand,ugomaji,s,mazidio,msingi,kujieleza,NA,sdf,NA,2,NA,NA,NA,NA,NA,NA,NA,NA,NA,NA,NA,NA,NA,NA,NA,NA,NA,NA,NA
b6eb3,Deep Question,html.Page,3_0_2_0_4_0_0,NA,NA,form submission,14066.4,472222.9,472216.5,472233.4,486299.8,486300.1,2024-04-15T15:19:38Z,486324.4,NULL,Verzögerung,kuchelewa,d,NA,NA,NA,utama,NA,NA,2,NA,NA,NA,NA,NA,NA,NA,NA,NA,NA,NA,NA,NA,NA,NA,NA,NA,NA,NA
b6eb3,"""Richtig""-Screen",canvas.Screen,3_0_2_0_4_0_1,NA,NA,skipped,NA,486303.2,NA,NA,486299.8,486303.3,2024-04-15T15:19:38Z,486324.4,NULL,Verzögerung,kuchelewa,d,NA,NA,NA,NA,sdf,NA,2,NA,NA,NA,NA,NA,NA,NA,NA,NA,NA,NA,NA,NA,NA,NA,NA,NA,NA,NA
b6eb3,"""Falsch""-Screen",canvas.Screen,3_0_2_0_4_0_2,NA,NA,timeout,4997.3,486304.2,486307.7,486324.4,491304.8,491305.7,2024-04-15T15:19:43Z,491321.7,NULL,Verzögerung,kuchelewa,d,NA,NA,NA,NA,sdf,0,2,NA,NA,NA,NA,NA,NA,NA,NA,NA,NA,NA,NA,NA,NA,NA,NA,NA,NA,NA
b6eb3,deep,flow.Sequence,3_0_2_0_4_0,NA,NA,completion,19071.4,472222.9,472216.5,472233.4,491304.8,491306.1,2024-04-15T15:19:43Z,491321.7,NULL,Verzögerung,kuchelewa,d,NA,NA,NA,NA,sdf,NA,2,NA,NA,NA,NA,NA,NA,NA,NA,NA,NA,NA,NA,NA,NA,NA,NA,NA,NA,NA
b6eb3,shallow,flow.Sequence,3_0_2_0_4_1,NA,NA,skipped,NA,491306.2,NA,NA,491304.8,491306.4,2024-04-15T15:19:43Z,491321.7,NULL,Verzögerung,kuchelewa,d,NA,NA,NA,NA,sdf,NA,2,NA,NA,NA,NA,NA,NA,NA,NA,NA,NA,NA,NA,NA,NA,NA,NA,NA,NA,NA
b6eb3,task,flow.Sequence,3_0_2_0_4,NA,NA,completion,19071.4,472222.9,472216.5,472233.4,491304.8,491306.6,2024-04-15T15:19:43Z,491321.7,NULL,Verzögerung,kuchelewa,d,NA,NA,NA,NA,sdf,NA,2,NA,NA,NA,NA,NA,NA,NA,NA,NA,NA,NA,NA,NA,NA,NA,NA,NA,NA,NA
b6eb3,deep,flow.Sequence,3_0_2_0_5_0,NA,NA,skipped,NA,491306.7,NA,NA,491304.8,491306.8,2024-04-15T15:19:43Z,491321.7,NULL,Integrität,uadilifu,s,muungano,mtiririko,upunguaji,NA,sdf,NA,2,NA,NA,NA,NA,NA,NA,NA,NA,NA,NA,NA,NA,NA,NA,NA,NA,NA,NA,NA
b6eb3,Shallow Question,html.Page,3_0_2_0_5_1_0,NA,NA,form submission,5112.8,491306.9,491304.8,491321.7,496434.5,496434.6,2024-04-15T15:19:48Z,496451.6,NULL,Integrität,uadilifu,s,muungano,mtiririko,upunguaji,uadilifu,NA,NA,2,NA,NA,NA,NA,NA,NA,NA,NA,NA,NA,NA,NA,NA,NA,NA,NA,NA,NA,NA
b6eb3,"""Richtig""-Screen",canvas.Screen,3_0_2_0_5_1_1,NA,NA,timeout,4997,496436.1,496435.466,496451.6,501431.8,501433.8,2024-04-15T15:19:53Z,501448.6,NULL,Integrität,uadilifu,s,muungano,mtiririko,upunguaji,NA,sdf,1,2,NA,NA,NA,NA,NA,NA,NA,NA,NA,NA,NA,NA,NA,NA,NA,NA,NA,NA,NA
b6eb3,"""Falsch""-Screen",canvas.Screen,3_0_2_0_5_1_2,NA,NA,skipped,NA,501435.3,NA,NA,501431.8,501435.3,2024-04-15T15:19:53Z,501448.6,NULL,Integrität,uadilifu,s,muungano,mtiririko,upunguaji,NA,sdf,NA,2,NA,NA,NA,NA,NA,NA,NA,NA,NA,NA,NA,NA,NA,NA,NA,NA,NA,NA,NA
b6eb3,shallow,flow.Sequence,3_0_2_0_5_1,NA,NA,completion,10110.1,491306.9,491304.8,491321.7,501431.8,501435.3,2024-04-15T15:19:53Z,501448.6,NULL,Integrität,uadilifu,s,muungano,mtiririko,upunguaji,NA,sdf,NA,2,NA,NA,NA,NA,NA,NA,NA,NA,NA,NA,NA,NA,NA,NA,NA,NA,NA,NA,NA
b6eb3,task,flow.Sequence,3_0_2_0_5,NA,NA,completion,10110.1,491306.6,491304.8,491321.7,501431.8,501435.4,2024-04-15T15:19:53Z,501448.6,NULL,Integrität,uadilifu,s,muungano,mtiririko,upunguaji,NA,sdf,NA,2,NA,NA,NA,NA,NA,NA,NA,NA,NA,NA,NA,NA,NA,NA,NA,NA,NA,NA,NA
b6eb3,Deep Question,html.Page,3_0_2_0_6_0_0,NA,NA,form submission,6044.7000000003,501435.5,501431.8,501448.6,507493.3,507493.5,2024-04-15T15:19:59Z,507512,NULL,Genehmigung,idhini,d,NA,NA,NA,kfgdfg,NA,NA,2,NA,NA,NA,NA,NA,NA,NA,NA,NA,NA,NA,NA,NA,NA,NA,NA,NA,NA,NA
b6eb3,"""Richtig""-Screen",canvas.Screen,3_0_2_0_6_0_1,NA,NA,skipped,NA,507496.5,NA,NA,507493.3,507496.7,2024-04-15T15:19:59Z,507512,NULL,Genehmigung,idhini,d,NA,NA,NA,NA,sdf,NA,2,NA,NA,NA,NA,NA,NA,NA,NA,NA,NA,NA,NA,NA,NA,NA,NA,NA,NA,NA
b6eb3,"""Falsch""-Screen",canvas.Screen,3_0_2_0_6_0_2,NA,NA,timeout,4996.9,507497.6,507494.928,507512,512491.7,512493.3,2024-04-15T15:20:04Z,512508.9,NULL,Genehmigung,idhini,d,NA,NA,NA,NA,sdf,0,2,NA,NA,NA,NA,NA,NA,NA,NA,NA,NA,NA,NA,NA,NA,NA,NA,NA,NA,NA
b6eb3,deep,flow.Sequence,3_0_2_0_6_0,NA,NA,completion,11043.1,501435.5,501431.8,501448.6,512491.7,512493.6,2024-04-15T15:20:04Z,512508.9,NULL,Genehmigung,idhini,d,NA,NA,NA,NA,sdf,NA,2,NA,NA,NA,NA,NA,NA,NA,NA,NA,NA,NA,NA,NA,NA,NA,NA,NA,NA,NA
b6eb3,shallow,flow.Sequence,3_0_2_0_6_1,NA,NA,skipped,NA,512493.7,NA,NA,512491.7,512493.9,2024-04-15T15:20:04Z,512508.9,NULL,Genehmigung,idhini,d,NA,NA,NA,NA,sdf,NA,2,NA,NA,NA,NA,NA,NA,NA,NA,NA,NA,NA,NA,NA,NA,NA,NA,NA,NA,NA
b6eb3,task,flow.Sequence,3_0_2_0_6,NA,NA,completion,11043.1,501435.5,501431.8,501448.6,512491.7,512494.1,2024-04-15T15:20:04Z,512508.9,NULL,Genehmigung,idhini,d,NA,NA,NA,NA,sdf,NA,2,NA,NA,NA,NA,NA,NA,NA,NA,NA,NA,NA,NA,NA,NA,NA,NA,NA,NA,NA
b6eb3,Deep Question,html.Page,3_0_2_0_7_0_0,NA,NA,form submission,8844.8000000002,512494.3,512491.7,512508.9,521353.7,521353.9,2024-04-15T15:20:13Z,521370.2,NULL,Begegnung,kukutana,d,NA,NA,NA,kero,NA,NA,2,NA,NA,NA,NA,NA,NA,NA,NA,NA,NA,NA,NA,NA,NA,NA,NA,NA,NA,NA
b6eb3,"""Richtig""-Screen",canvas.Screen,3_0_2_0_7_0_1,NA,NA,skipped,NA,521357,NA,NA,521353.7,521357.2,2024-04-15T15:20:13Z,521370.2,NULL,Begegnung,kukutana,d,NA,NA,NA,NA,sdf,NA,2,NA,NA,NA,NA,NA,NA,NA,NA,NA,NA,NA,NA,NA,NA,NA,NA,NA,NA,NA
b6eb3,"""Falsch""-Screen",canvas.Screen,3_0_2_0_7_0_2,NA,NA,timeout,4996.9,521357.8,521352.962,521370.2,526350.2,526351.2,2024-04-15T15:20:18Z,526367.1,NULL,Begegnung,kukutana,d,NA,NA,NA,NA,sdf,0,2,NA,NA,NA,NA,NA,NA,NA,NA,NA,NA,NA,NA,NA,NA,NA,NA,NA,NA,NA
b6eb3,deep,flow.Sequence,3_0_2_0_7_0,NA,NA,completion,13841.3,512494.3,512491.7,512508.9,526350.2,526351.5,2024-04-15T15:20:18Z,526367.1,NULL,Begegnung,kukutana,d,NA,NA,NA,NA,sdf,NA,2,NA,NA,NA,NA,NA,NA,NA,NA,NA,NA,NA,NA,NA,NA,NA,NA,NA,NA,NA
b6eb3,shallow,flow.Sequence,3_0_2_0_7_1,NA,NA,skipped,NA,526351.6,NA,NA,526350.2,526351.8,2024-04-15T15:20:18Z,526367.1,NULL,Begegnung,kukutana,d,NA,NA,NA,NA,sdf,NA,2,NA,NA,NA,NA,NA,NA,NA,NA,NA,NA,NA,NA,NA,NA,NA,NA,NA,NA,NA
b6eb3,task,flow.Sequence,3_0_2_0_7,NA,NA,completion,13841.3,512494.2,512491.7,512508.9,526350.2,526352,2024-04-15T15:20:18Z,526367.1,NULL,Begegnung,kukutana,d,NA,NA,NA,NA,sdf,NA,2,NA,NA,NA,NA,NA,NA,NA,NA,NA,NA,NA,NA,NA,NA,NA,NA,NA,NA,NA
b6eb3,block,flow.Loop,3_0_2_0,NA,NA,completion,100954.8,425383.3,425380.9,425395.4,526350.2,526352.3,2024-04-15T15:20:18Z,526367.1,NULL,NA,NA,NA,NA,NA,NA,NA,sdf,NA,2,NA,NA,NA,NA,NA,NA,NA,NA,NA,NA,NA,NA,NA,NA,NA,NA,NA,NA,NA
b6eb3,weiter,canvas.Screen,3_0_2_1,sdf,keypress(Space),response,3257.1000000002,526352.4,526350.2,526367.1,529624.2,529625.3,2024-04-15T15:20:22Z,529634.008,NULL,NA,NA,NA,NA,NA,NA,NA,sdf,NA,2,NA,NA,NA,NA,NA,NA,NA,NA,NA,NA,NA,NA,NA,NA,NA,NA,NA,NA,NA
b6eb3,check continue,flow.Sequence,3_0_2,NA,NA,completion,104228.8,425383.3,425380.9,425395.4,529624.2,529625.6,2024-04-15T15:20:22Z,529634.008,NULL,NA,NA,NA,NA,NA,NA,NA,sdf,NA,2,NA,NA,NA,NA,NA,NA,NA,NA,NA,NA,NA,NA,NA,NA,NA,NA,NA,NA,NA
b6eb3,deep,flow.Sequence,3_0_3_0_0_0,NA,NA,skipped,NA,529642.4,NA,NA,529624.2,529642.6,2024-04-15T15:20:22Z,529634.008,NULL,Fleisch,mshakiki,s,kizunguzungu,mshikamano,angusho,NA,qt,NA,3,NA,NA,NA,NA,NA,NA,NA,NA,NA,NA,NA,NA,NA,NA,NA,NA,NA,NA,NA
b6eb3,Shallow Question,html.Page,3_0_3_0_0_1_0,NA,NA,form submission,3857.1920000002,529642.7,529634.008,529634.008,533491.2,533491.4,2024-04-15T15:20:25Z,533496.18,NULL,Fleisch,mshakiki,s,kizunguzungu,mshikamano,angusho,mshakiki,NA,NA,3,NA,NA,NA,NA,NA,NA,NA,NA,NA,NA,NA,NA,NA,NA,NA,NA,NA,NA,NA
b6eb3,"""Richtig""-Screen",canvas.Screen,3_0_3_0_0_1_1,NA,NA,timeout,4996.3199999999,533492.2,533496.18,533496.18,538476.1,538477.1,2024-04-15T15:20:30Z,538492.5,NULL,Fleisch,mshakiki,s,kizunguzungu,mshikamano,angusho,NA,qt,1,3,NA,NA,NA,NA,NA,NA,NA,NA,NA,NA,NA,NA,NA,NA,NA,NA,NA,NA,NA
b6eb3,"""Falsch""-Screen",canvas.Screen,3_0_3_0_0_1_2,NA,NA,skipped,NA,538481.8,NA,NA,538476.1,538482,2024-04-15T15:20:30Z,538492.5,NULL,Fleisch,mshakiki,s,kizunguzungu,mshikamano,angusho,NA,qt,NA,3,NA,NA,NA,NA,NA,NA,NA,NA,NA,NA,NA,NA,NA,NA,NA,NA,NA,NA,NA
b6eb3,shallow,flow.Sequence,3_0_3_0_0_1,NA,NA,completion,8842.0919999999,529642.6,529634.008,529634.008,538476.1,538482,2024-04-15T15:20:30Z,538492.5,NULL,Fleisch,mshakiki,s,kizunguzungu,mshikamano,angusho,NA,qt,NA,3,NA,NA,NA,NA,NA,NA,NA,NA,NA,NA,NA,NA,NA,NA,NA,NA,NA,NA,NA
b6eb3,task,flow.Sequence,3_0_3_0_0,NA,NA,completion,8842.0919999999,529642.4,529634.008,529634.008,538476.1,538482.1,2024-04-15T15:20:30Z,538492.5,NULL,Fleisch,mshakiki,s,kizunguzungu,mshikamano,angusho,NA,qt,NA,3,NA,NA,NA,NA,NA,NA,NA,NA,NA,NA,NA,NA,NA,NA,NA,NA,NA,NA,NA
b6eb3,deep,flow.Sequence,3_0_3_0_1_0,NA,NA,skipped,NA,538482.2,NA,NA,538476.1,538482.2,2024-04-15T15:20:30Z,538492.5,NULL,Aufstand,ugomaji,s,mazidio,msingi,kujieleza,NA,qt,NA,3,NA,NA,NA,NA,NA,NA,NA,NA,NA,NA,NA,NA,NA,NA,NA,NA,NA,NA,NA
b6eb3,Shallow Question,html.Page,3_0_3_0_1_1_0,NA,NA,form submission,3047,538482.2,538476.1,538492.5,541539.5,541539.7,2024-04-15T15:20:33Z,541541.096,NULL,Aufstand,ugomaji,s,mazidio,msingi,kujieleza,ugomaji,NA,NA,3,NA,NA,NA,NA,NA,NA,NA,NA,NA,NA,NA,NA,NA,NA,NA,NA,NA,NA,NA
b6eb3,"""Richtig""-Screen",canvas.Screen,3_0_3_0_1_1_1,NA,NA,timeout,4997.004,541540.6,541541.096,541541.096,546521.4,546522.2,2024-04-15T15:20:38Z,546538.1,NULL,Aufstand,ugomaji,s,mazidio,msingi,kujieleza,NA,qt,1,3,NA,NA,NA,NA,NA,NA,NA,NA,NA,NA,NA,NA,NA,NA,NA,NA,NA,NA,NA
b6eb3,"""Falsch""-Screen",canvas.Screen,3_0_3_0_1_1_2,NA,NA,skipped,NA,546527.1,NA,NA,546521.4,546527.4,2024-04-15T15:20:38Z,546538.1,NULL,Aufstand,ugomaji,s,mazidio,msingi,kujieleza,NA,qt,NA,3,NA,NA,NA,NA,NA,NA,NA,NA,NA,NA,NA,NA,NA,NA,NA,NA,NA,NA,NA
b6eb3,shallow,flow.Sequence,3_0_3_0_1_1,NA,NA,completion,8028.9,538482.2,538476.1,538492.5,546521.4,546527.5,2024-04-15T15:20:38Z,546538.1,NULL,Aufstand,ugomaji,s,mazidio,msingi,kujieleza,NA,qt,NA,3,NA,NA,NA,NA,NA,NA,NA,NA,NA,NA,NA,NA,NA,NA,NA,NA,NA,NA,NA
b6eb3,task,flow.Sequence,3_0_3_0_1,NA,NA,completion,8028.9,538482.1,538476.1,538492.5,546521.4,546527.7,2024-04-15T15:20:38Z,546538.1,NULL,Aufstand,ugomaji,s,mazidio,msingi,kujieleza,NA,qt,NA,3,NA,NA,NA,NA,NA,NA,NA,NA,NA,NA,NA,NA,NA,NA,NA,NA,NA,NA,NA
b6eb3,Deep Question,html.Page,3_0_3_0_2_0_0,NA,NA,form submission,7293.0000000001,546527.7,546521.4,546538.1,553831.1,553831.4,2024-04-15T15:20:46Z,553850.1,NULL,Kultur,utamaduni,d,NA,NA,NA,kuchewema,NA,NA,3,NA,NA,NA,NA,NA,NA,NA,NA,NA,NA,NA,NA,NA,NA,NA,NA,NA,NA,NA
b6eb3,"""Richtig""-Screen",canvas.Screen,3_0_3_0_2_0_1,NA,NA,skipped,NA,553834.5,NA,NA,553831.1,553834.6,2024-04-15T15:20:46Z,553850.1,NULL,Kultur,utamaduni,d,NA,NA,NA,NA,qt,NA,3,NA,NA,NA,NA,NA,NA,NA,NA,NA,NA,NA,NA,NA,NA,NA,NA,NA,NA,NA
b6eb3,"""Falsch""-Screen",canvas.Screen,3_0_3_0_2_0_2,NA,NA,timeout,4996.8,553835.5,553833.566,553850.1,558830.3,558831.3,2024-04-15T15:20:51Z,558846.9,NULL,Kultur,utamaduni,d,NA,NA,NA,NA,qt,0,3,NA,NA,NA,NA,NA,NA,NA,NA,NA,NA,NA,NA,NA,NA,NA,NA,NA,NA,NA
b6eb3,deep,flow.Sequence,3_0_3_0_2_0,NA,NA,completion,12292.2,546527.7,546521.4,546538.1,558830.3,558831.7,2024-04-15T15:20:51Z,558846.9,NULL,Kultur,utamaduni,d,NA,NA,NA,NA,qt,NA,3,NA,NA,NA,NA,NA,NA,NA,NA,NA,NA,NA,NA,NA,NA,NA,NA,NA,NA,NA
b6eb3,shallow,flow.Sequence,3_0_3_0_2_1,NA,NA,skipped,NA,558831.9,NA,NA,558830.3,558832.1,2024-04-15T15:20:51Z,558846.9,NULL,Kultur,utamaduni,d,NA,NA,NA,NA,qt,NA,3,NA,NA,NA,NA,NA,NA,NA,NA,NA,NA,NA,NA,NA,NA,NA,NA,NA,NA,NA
b6eb3,task,flow.Sequence,3_0_3_0_2,NA,NA,completion,12292.2,546527.7,546521.4,546538.1,558830.3,558832.3,2024-04-15T15:20:51Z,558846.9,NULL,Kultur,utamaduni,d,NA,NA,NA,NA,qt,NA,3,NA,NA,NA,NA,NA,NA,NA,NA,NA,NA,NA,NA,NA,NA,NA,NA,NA,NA,NA
b6eb3,deep,flow.Sequence,3_0_3_0_3_0,NA,NA,skipped,NA,558832.4,NA,NA,558830.3,558832.6,2024-04-15T15:20:51Z,558846.9,NULL,Integrität,uadilifu,s,muungano,mtiririko,upunguaji,NA,qt,NA,3,NA,NA,NA,NA,NA,NA,NA,NA,NA,NA,NA,NA,NA,NA,NA,NA,NA,NA,NA
b6eb3,Shallow Question,html.Page,3_0_3_0_3_1_0,NA,NA,form submission,5780.2000000001,558832.8,558830.3,558846.9,564627.1,564627.3,2024-04-15T15:20:57Z,564643,NULL,Integrität,uadilifu,s,muungano,mtiririko,upunguaji,uadilifu,NA,NA,3,NA,NA,NA,NA,NA,NA,NA,NA,NA,NA,NA,NA,NA,NA,NA,NA,NA,NA,NA
b6eb3,"""Richtig""-Screen",canvas.Screen,3_0_3_0_3_1_1,NA,NA,timeout,4997.5,564630.4,564627.228,564643,569623.9,569624.8,2024-04-15T15:21:02Z,569640.5,NULL,Integrität,uadilifu,s,muungano,mtiririko,upunguaji,NA,qt,1,3,NA,NA,NA,NA,NA,NA,NA,NA,NA,NA,NA,NA,NA,NA,NA,NA,NA,NA,NA
b6eb3,"""Falsch""-Screen",canvas.Screen,3_0_3_0_3_1_2,NA,NA,skipped,NA,569629.8,NA,NA,569623.9,569629.9,2024-04-15T15:21:02Z,569640.5,NULL,Integrität,uadilifu,s,muungano,mtiririko,upunguaji,NA,qt,NA,3,NA,NA,NA,NA,NA,NA,NA,NA,NA,NA,NA,NA,NA,NA,NA,NA,NA,NA,NA
b6eb3,shallow,flow.Sequence,3_0_3_0_3_1,NA,NA,completion,10777,558832.7,558830.3,558846.9,569623.9,569630,2024-04-15T15:21:02Z,569640.5,NULL,Integrität,uadilifu,s,muungano,mtiririko,upunguaji,NA,qt,NA,3,NA,NA,NA,NA,NA,NA,NA,NA,NA,NA,NA,NA,NA,NA,NA,NA,NA,NA,NA
b6eb3,task,flow.Sequence,3_0_3_0_3,NA,NA,completion,10777,558832.4,558830.3,558846.9,569623.9,569630.1,2024-04-15T15:21:02Z,569640.5,NULL,Integrität,uadilifu,s,muungano,mtiririko,upunguaji,NA,qt,NA,3,NA,NA,NA,NA,NA,NA,NA,NA,NA,NA,NA,NA,NA,NA,NA,NA,NA,NA,NA
b6eb3,Deep Question,html.Page,3_0_3_0_4_0_0,NA,NA,form submission,4623.2000000002,569630.1,569623.9,569640.5,574263.7,574264,2024-04-15T15:21:06Z,574270.5,NULL,Begegnung,kukutana,d,NA,NA,NA,kuchewema,NA,NA,3,NA,NA,NA,NA,NA,NA,NA,NA,NA,NA,NA,NA,NA,NA,NA,NA,NA,NA,NA
b6eb3,"""Richtig""-Screen",canvas.Screen,3_0_3_0_4_0_1,NA,NA,skipped,NA,574266.9,NA,NA,574263.7,574267,2024-04-15T15:21:06Z,574270.5,NULL,Begegnung,kukutana,d,NA,NA,NA,NA,qt,NA,3,NA,NA,NA,NA,NA,NA,NA,NA,NA,NA,NA,NA,NA,NA,NA,NA,NA,NA,NA
b6eb3,"""Falsch""-Screen",canvas.Screen,3_0_3_0_4_0_2,NA,NA,timeout,4997.6,574267.7,574255.106,574270.5,579251.1,579252.1,2024-04-15T15:21:11Z,579268.1,NULL,Begegnung,kukutana,d,NA,NA,NA,NA,qt,0,3,NA,NA,NA,NA,NA,NA,NA,NA,NA,NA,NA,NA,NA,NA,NA,NA,NA,NA,NA
b6eb3,deep,flow.Sequence,3_0_3_0_4_0,NA,NA,completion,9610.6,569630.1,569623.9,569640.5,579251.1,579252.5,2024-04-15T15:21:11Z,579268.1,NULL,Begegnung,kukutana,d,NA,NA,NA,NA,qt,NA,3,NA,NA,NA,NA,NA,NA,NA,NA,NA,NA,NA,NA,NA,NA,NA,NA,NA,NA,NA
b6eb3,shallow,flow.Sequence,3_0_3_0_4_1,NA,NA,skipped,NA,579252.6,NA,NA,579251.1,579252.7,2024-04-15T15:21:11Z,579268.1,NULL,Begegnung,kukutana,d,NA,NA,NA,NA,qt,NA,3,NA,NA,NA,NA,NA,NA,NA,NA,NA,NA,NA,NA,NA,NA,NA,NA,NA,NA,NA
b6eb3,task,flow.Sequence,3_0_3_0_4,NA,NA,completion,9610.6,569630.1,569623.9,569640.5,579251.1,579252.9,2024-04-15T15:21:11Z,579268.1,NULL,Begegnung,kukutana,d,NA,NA,NA,NA,qt,NA,3,NA,NA,NA,NA,NA,NA,NA,NA,NA,NA,NA,NA,NA,NA,NA,NA,NA,NA,NA
b6eb3,Deep Question,html.Page,3_0_3_0_5_0_0,NA,NA,form submission,9113.1000000002,579253.1,579251.1,579268.1,588381.2,588381.5,2024-04-15T15:21:20Z,588395.7,NULL,Genehmigung,idhini,d,NA,NA,NA,ert,NA,NA,3,NA,NA,NA,NA,NA,NA,NA,NA,NA,NA,NA,NA,NA,NA,NA,NA,NA,NA,NA
b6eb3,"""Richtig""-Screen",canvas.Screen,3_0_3_0_5_0_1,NA,NA,skipped,NA,588384.8,NA,NA,588381.2,588384.9,2024-04-15T15:21:20Z,588395.7,NULL,Genehmigung,idhini,d,NA,NA,NA,NA,qt,NA,3,NA,NA,NA,NA,NA,NA,NA,NA,NA,NA,NA,NA,NA,NA,NA,NA,NA,NA,NA
b6eb3,"""Falsch""-Screen",canvas.Screen,3_0_3_0_5_0_2,NA,NA,timeout,4996.9,588385.5,588379.196,588395.7,593375.6,593376.4,2024-04-15T15:21:25Z,593392.6,NULL,Genehmigung,idhini,d,NA,NA,NA,NA,qt,0,3,NA,NA,NA,NA,NA,NA,NA,NA,NA,NA,NA,NA,NA,NA,NA,NA,NA,NA,NA
b6eb3,deep,flow.Sequence,3_0_3_0_5_0,NA,NA,completion,14107.5,579253.1,579251.1,579268.1,593375.6,593376.8,2024-04-15T15:21:25Z,593392.6,NULL,Genehmigung,idhini,d,NA,NA,NA,NA,qt,NA,3,NA,NA,NA,NA,NA,NA,NA,NA,NA,NA,NA,NA,NA,NA,NA,NA,NA,NA,NA
b6eb3,shallow,flow.Sequence,3_0_3_0_5_1,NA,NA,skipped,NA,593376.9,NA,NA,593375.6,593377.1,2024-04-15T15:21:25Z,593392.6,NULL,Genehmigung,idhini,d,NA,NA,NA,NA,qt,NA,3,NA,NA,NA,NA,NA,NA,NA,NA,NA,NA,NA,NA,NA,NA,NA,NA,NA,NA,NA
b6eb3,task,flow.Sequence,3_0_3_0_5,NA,NA,completion,14107.5,579253.1,579251.1,579268.1,593375.6,593377.3,2024-04-15T15:21:25Z,593392.6,NULL,Genehmigung,idhini,d,NA,NA,NA,NA,qt,NA,3,NA,NA,NA,NA,NA,NA,NA,NA,NA,NA,NA,NA,NA,NA,NA,NA,NA,NA,NA
b6eb3,Deep Question,html.Page,3_0_3_0_6_0_0,NA,NA,form submission,4635.2000000003,593377.5,593375.6,593392.6,598027.8,598028,2024-04-15T15:21:30Z,598039.3,NULL,Verzögerung,kuchelewa,d,NA,NA,NA,kuchewema,NA,NA,3,NA,NA,NA,NA,NA,NA,NA,NA,NA,NA,NA,NA,NA,NA,NA,NA,NA,NA,NA
b6eb3,"""Richtig""-Screen",canvas.Screen,3_0_3_0_6_0_1,NA,NA,skipped,NA,598031,NA,NA,598027.8,598031.1,2024-04-15T15:21:30Z,598039.3,NULL,Verzögerung,kuchelewa,d,NA,NA,NA,NA,qt,NA,3,NA,NA,NA,NA,NA,NA,NA,NA,NA,NA,NA,NA,NA,NA,NA,NA,NA,NA,NA
b6eb3,"""Falsch""-Screen",canvas.Screen,3_0_3_0_6_0_2,NA,NA,timeout,4997.3999999999,598031.9,598025.3,598039.3,603019.9,603020.8,2024-04-15T15:21:35Z,603036.7,NULL,Verzögerung,kuchelewa,d,NA,NA,NA,NA,qt,0,3,NA,NA,NA,NA,NA,NA,NA,NA,NA,NA,NA,NA,NA,NA,NA,NA,NA,NA,NA
b6eb3,deep,flow.Sequence,3_0_3_0_6_0,NA,NA,completion,9627.3,593377.4,593375.6,593392.6,603019.9,603021.2,2024-04-15T15:21:35Z,603036.7,NULL,Verzögerung,kuchelewa,d,NA,NA,NA,NA,qt,NA,3,NA,NA,NA,NA,NA,NA,NA,NA,NA,NA,NA,NA,NA,NA,NA,NA,NA,NA,NA
b6eb3,shallow,flow.Sequence,3_0_3_0_6_1,NA,NA,skipped,NA,603021.3,NA,NA,603019.9,603021.4,2024-04-15T15:21:35Z,603036.7,NULL,Verzögerung,kuchelewa,d,NA,NA,NA,NA,qt,NA,3,NA,NA,NA,NA,NA,NA,NA,NA,NA,NA,NA,NA,NA,NA,NA,NA,NA,NA,NA
b6eb3,task,flow.Sequence,3_0_3_0_6,NA,NA,completion,9627.3,593377.4,593375.6,593392.6,603019.9,603021.6,2024-04-15T15:21:35Z,603036.7,NULL,Verzögerung,kuchelewa,d,NA,NA,NA,NA,qt,NA,3,NA,NA,NA,NA,NA,NA,NA,NA,NA,NA,NA,NA,NA,NA,NA,NA,NA,NA,NA
b6eb3,deep,flow.Sequence,3_0_3_0_7_0,NA,NA,skipped,NA,603021.8,NA,NA,603019.9,603021.9,2024-04-15T15:21:35Z,603036.7,NULL,Prüfung,mtihani,s,mkulima,mtizamo,ufumbuzi,NA,qt,NA,3,NA,NA,NA,NA,NA,NA,NA,NA,NA,NA,NA,NA,NA,NA,NA,NA,NA,NA,NA
b6eb3,Shallow Question,html.Page,3_0_3_0_7_1_0,NA,NA,form submission,4124.4000000001,603022,603019.9,603036.7,607161.1,607161.4,2024-04-15T15:21:39Z,607167.1,NULL,Prüfung,mtihani,s,mkulima,mtizamo,ufumbuzi,mtihani,NA,NA,3,NA,NA,NA,NA,NA,NA,NA,NA,NA,NA,NA,NA,NA,NA,NA,NA,NA,NA,NA
b6eb3,"""Richtig""-Screen",canvas.Screen,3_0_3_0_7_1_1,NA,NA,timeout,4997.1,607164.2,607151.1,607167.1,612147.9,612148.7,2024-04-15T15:21:44Z,612164.2,NULL,Prüfung,mtihani,s,mkulima,mtizamo,ufumbuzi,NA,qt,1,3,NA,NA,NA,NA,NA,NA,NA,NA,NA,NA,NA,NA,NA,NA,NA,NA,NA,NA,NA
b6eb3,"""Falsch""-Screen",canvas.Screen,3_0_3_0_7_1_2,NA,NA,skipped,NA,612153.5,NA,NA,612147.9,612153.7,2024-04-15T15:21:44Z,612164.2,NULL,Prüfung,mtihani,s,mkulima,mtizamo,ufumbuzi,NA,qt,NA,3,NA,NA,NA,NA,NA,NA,NA,NA,NA,NA,NA,NA,NA,NA,NA,NA,NA,NA,NA
b6eb3,shallow,flow.Sequence,3_0_3_0_7_1,NA,NA,completion,9111.2000000001,603022,603019.9,603036.7,612147.9,612154,2024-04-15T15:21:44Z,612164.2,NULL,Prüfung,mtihani,s,mkulima,mtizamo,ufumbuzi,NA,qt,NA,3,NA,NA,NA,NA,NA,NA,NA,NA,NA,NA,NA,NA,NA,NA,NA,NA,NA,NA,NA
b6eb3,task,flow.Sequence,3_0_3_0_7,NA,NA,completion,9111.2000000001,603021.7,603019.9,603036.7,612147.9,612154.1,2024-04-15T15:21:44Z,612164.2,NULL,Prüfung,mtihani,s,mkulima,mtizamo,ufumbuzi,NA,qt,NA,3,NA,NA,NA,NA,NA,NA,NA,NA,NA,NA,NA,NA,NA,NA,NA,NA,NA,NA,NA
b6eb3,block,flow.Loop,3_0_3_0,NA,NA,completion,82513.892,529642.4,529634.008,529634.008,612147.9,612154.2,2024-04-15T15:21:44Z,612164.2,NULL,NA,NA,NA,NA,NA,NA,NA,qt,NA,3,NA,NA,NA,NA,NA,NA,NA,NA,NA,NA,NA,NA,NA,NA,NA,NA,NA,NA,NA
b6eb3,weiter,canvas.Screen,3_0_3_1,sdf,keypress(Space),response,1504.8,612154.2,612147.9,612164.2,613669,613670.1,2024-04-15T15:21:46Z,613680.636,NULL,NA,NA,NA,NA,NA,NA,NA,qt,NA,3,NA,NA,NA,NA,NA,NA,NA,NA,NA,NA,NA,NA,NA,NA,NA,NA,NA,NA,NA
b6eb3,check continue,flow.Sequence,3_0_3,NA,NA,completion,84034.992,529642.4,529634.008,529634.008,613669,613670.4,2024-04-15T15:21:46Z,613680.636,NULL,NA,NA,NA,NA,NA,NA,NA,qt,NA,3,NA,NA,NA,NA,NA,NA,NA,NA,NA,NA,NA,NA,NA,NA,NA,NA,NA,NA,NA
b6eb3,Deep Question,html.Page,3_0_4_0_0_0_0,NA,NA,form submission,16330.564,613687.6,613680.636,613680.636,630011.2,630011.5,2024-04-15T15:22:02Z,630019.8,NULL,Genehmigung,idhini,d,NA,NA,NA,idhni,NA,NA,4,NA,NA,NA,NA,NA,NA,NA,NA,NA,NA,NA,NA,NA,NA,NA,NA,NA,NA,NA
b6eb3,"""Richtig""-Screen",canvas.Screen,3_0_4_0_0_0_1,NA,NA,skipped,NA,630014.6,NA,NA,630011.2,630014.8,2024-04-15T15:22:02Z,630019.8,NULL,Genehmigung,idhini,d,NA,NA,NA,NA,sd,NA,4,NA,NA,NA,NA,NA,NA,NA,NA,NA,NA,NA,NA,NA,NA,NA,NA,NA,NA,NA
b6eb3,"""Falsch""-Screen",canvas.Screen,3_0_4_0_0_0_2,NA,NA,timeout,4997.5,630015.5,630003.848,630019.8,635000.2,635001,2024-04-15T15:22:07Z,635017.3,NULL,Genehmigung,idhini,d,NA,NA,NA,NA,sd,0,4,NA,NA,NA,NA,NA,NA,NA,NA,NA,NA,NA,NA,NA,NA,NA,NA,NA,NA,NA
b6eb3,deep,flow.Sequence,3_0_4_0_0_0,NA,NA,completion,21319.564,613687.3,613680.636,613680.636,635000.2,635001.3,2024-04-15T15:22:07Z,635017.3,NULL,Genehmigung,idhini,d,NA,NA,NA,NA,sd,NA,4,NA,NA,NA,NA,NA,NA,NA,NA,NA,NA,NA,NA,NA,NA,NA,NA,NA,NA,NA
b6eb3,shallow,flow.Sequence,3_0_4_0_0_1,NA,NA,skipped,NA,635001.4,NA,NA,635000.2,635001.5,2024-04-15T15:22:07Z,635017.3,NULL,Genehmigung,idhini,d,NA,NA,NA,NA,sd,NA,4,NA,NA,NA,NA,NA,NA,NA,NA,NA,NA,NA,NA,NA,NA,NA,NA,NA,NA,NA
b6eb3,task,flow.Sequence,3_0_4_0_0,NA,NA,completion,21319.564,613687.3,613680.636,613680.636,635000.2,635001.7,2024-04-15T15:22:07Z,635017.3,NULL,Genehmigung,idhini,d,NA,NA,NA,NA,sd,NA,4,NA,NA,NA,NA,NA,NA,NA,NA,NA,NA,NA,NA,NA,NA,NA,NA,NA,NA,NA
b6eb3,Deep Question,html.Page,3_0_4_0_1_0_0,NA,NA,form submission,6495.9000000001,635001.9,635000.2,635017.3,641513.2,641513.4,2024-04-15T15:22:13Z,641529.9,NULL,Verzögerung,kuchelewa,d,NA,NA,NA,kuchelewa,NA,NA,4,NA,NA,NA,NA,NA,NA,NA,NA,NA,NA,NA,NA,NA,NA,NA,NA,NA,NA,NA
b6eb3,"""Richtig""-Screen",canvas.Screen,3_0_4_0_1_0_1,NA,NA,timeout,4996.4,641516.5,641513.254,641529.9,646510,646510.4,2024-04-15T15:22:18Z,646526.3,NULL,Verzögerung,kuchelewa,d,NA,NA,NA,NA,sd,1,4,NA,NA,NA,NA,NA,NA,NA,NA,NA,NA,NA,NA,NA,NA,NA,NA,NA,NA,NA
b6eb3,"""Falsch""-Screen",canvas.Screen,3_0_4_0_1_0_2,NA,NA,skipped,NA,646511.7,NA,NA,646510,646511.8,2024-04-15T15:22:18Z,646526.3,NULL,Verzögerung,kuchelewa,d,NA,NA,NA,NA,sd,NA,4,NA,NA,NA,NA,NA,NA,NA,NA,NA,NA,NA,NA,NA,NA,NA,NA,NA,NA,NA
b6eb3,deep,flow.Sequence,3_0_4_0_1_0,NA,NA,completion,11492.7,635001.8,635000.2,635017.3,646510,646511.9,2024-04-15T15:22:18Z,646526.3,NULL,Verzögerung,kuchelewa,d,NA,NA,NA,NA,sd,NA,4,NA,NA,NA,NA,NA,NA,NA,NA,NA,NA,NA,NA,NA,NA,NA,NA,NA,NA,NA
b6eb3,shallow,flow.Sequence,3_0_4_0_1_1,NA,NA,skipped,NA,646511.9,NA,NA,646510,646512,2024-04-15T15:22:18Z,646526.3,NULL,Verzögerung,kuchelewa,d,NA,NA,NA,NA,sd,NA,4,NA,NA,NA,NA,NA,NA,NA,NA,NA,NA,NA,NA,NA,NA,NA,NA,NA,NA,NA
b6eb3,task,flow.Sequence,3_0_4_0_1,NA,NA,completion,11492.7,635001.8,635000.2,635017.3,646510,646512,2024-04-15T15:22:18Z,646526.3,NULL,Verzögerung,kuchelewa,d,NA,NA,NA,NA,sd,NA,4,NA,NA,NA,NA,NA,NA,NA,NA,NA,NA,NA,NA,NA,NA,NA,NA,NA,NA,NA
b6eb3,deep,flow.Sequence,3_0_4_0_2_0,NA,NA,skipped,NA,646512,NA,NA,646510,646512.1,2024-04-15T15:22:18Z,646526.3,NULL,Prüfung,mtihani,s,mkulima,mtizamo,ufumbuzi,NA,sd,NA,4,NA,NA,NA,NA,NA,NA,NA,NA,NA,NA,NA,NA,NA,NA,NA,NA,NA,NA,NA
b6eb3,Shallow Question,html.Page,3_0_4_0_2_1_0,NA,NA,form submission,3349.0000000002,646512.2,646510,646526.3,649875.3,649875.6,2024-04-15T15:22:22Z,649891.5,NULL,Prüfung,mtihani,s,mkulima,mtizamo,ufumbuzi,mtihani,NA,NA,4,NA,NA,NA,NA,NA,NA,NA,NA,NA,NA,NA,NA,NA,NA,NA,NA,NA,NA,NA
b6eb3,"""Richtig""-Screen",canvas.Screen,3_0_4_0_2_1_1,NA,NA,timeout,4996.8,649878.4,649875.122,649891.5,654871.3,654873.1,2024-04-15T15:22:27Z,654888.3,NULL,Prüfung,mtihani,s,mkulima,mtizamo,ufumbuzi,NA,sd,1,4,NA,NA,NA,NA,NA,NA,NA,NA,NA,NA,NA,NA,NA,NA,NA,NA,NA,NA,NA
b6eb3,"""Falsch""-Screen",canvas.Screen,3_0_4_0_2_1_2,NA,NA,skipped,NA,654877.6,NA,NA,654871.3,654877.7,2024-04-15T15:22:27Z,654888.3,NULL,Prüfung,mtihani,s,mkulima,mtizamo,ufumbuzi,NA,sd,NA,4,NA,NA,NA,NA,NA,NA,NA,NA,NA,NA,NA,NA,NA,NA,NA,NA,NA,NA,NA
b6eb3,shallow,flow.Sequence,3_0_4_0_2_1,NA,NA,completion,8345,646512.2,646510,646526.3,654871.3,654877.8,2024-04-15T15:22:27Z,654888.3,NULL,Prüfung,mtihani,s,mkulima,mtizamo,ufumbuzi,NA,sd,NA,4,NA,NA,NA,NA,NA,NA,NA,NA,NA,NA,NA,NA,NA,NA,NA,NA,NA,NA,NA
b6eb3,task,flow.Sequence,3_0_4_0_2,NA,NA,completion,8345,646512,646510,646526.3,654871.3,654877.9,2024-04-15T15:22:27Z,654888.3,NULL,Prüfung,mtihani,s,mkulima,mtizamo,ufumbuzi,NA,sd,NA,4,NA,NA,NA,NA,NA,NA,NA,NA,NA,NA,NA,NA,NA,NA,NA,NA,NA,NA,NA
b6eb3,Deep Question,html.Page,3_0_4_0_3_0_0,NA,NA,form submission,7277.2,654878,654871.3,654888.3,662165.5,662165.7,2024-04-15T15:22:34Z,662167.096,NULL,Begegnung,kukutana,d,NA,NA,NA,kukutana,NA,NA,4,NA,NA,NA,NA,NA,NA,NA,NA,NA,NA,NA,NA,NA,NA,NA,NA,NA,NA,NA
b6eb3,"""Richtig""-Screen",canvas.Screen,3_0_4_0_3_0_1,NA,NA,timeout,4997.1039999999,662168.7,662167.096,662167.096,667147.6,667148.5,2024-04-15T15:22:39Z,667164.2,NULL,Begegnung,kukutana,d,NA,NA,NA,NA,sd,1,4,NA,NA,NA,NA,NA,NA,NA,NA,NA,NA,NA,NA,NA,NA,NA,NA,NA,NA,NA
b6eb3,"""Falsch""-Screen",canvas.Screen,3_0_4_0_3_0_2,NA,NA,skipped,NA,667153.8,NA,NA,667147.6,667154,2024-04-15T15:22:39Z,667164.2,NULL,Begegnung,kukutana,d,NA,NA,NA,NA,sd,NA,4,NA,NA,NA,NA,NA,NA,NA,NA,NA,NA,NA,NA,NA,NA,NA,NA,NA,NA,NA
b6eb3,deep,flow.Sequence,3_0_4_0_3_0,NA,NA,completion,12259.3,654877.9,654871.3,654888.3,667147.6,667154,2024-04-15T15:22:39Z,667164.2,NULL,Begegnung,kukutana,d,NA,NA,NA,NA,sd,NA,4,NA,NA,NA,NA,NA,NA,NA,NA,NA,NA,NA,NA,NA,NA,NA,NA,NA,NA,NA
b6eb3,shallow,flow.Sequence,3_0_4_0_3_1,NA,NA,skipped,NA,667154.1,NA,NA,667147.6,667154.2,2024-04-15T15:22:39Z,667164.2,NULL,Begegnung,kukutana,d,NA,NA,NA,NA,sd,NA,4,NA,NA,NA,NA,NA,NA,NA,NA,NA,NA,NA,NA,NA,NA,NA,NA,NA,NA,NA
b6eb3,task,flow.Sequence,3_0_4_0_3,NA,NA,completion,12259.3,654877.9,654871.3,654888.3,667147.6,667154.2,2024-04-15T15:22:39Z,667164.2,NULL,Begegnung,kukutana,d,NA,NA,NA,NA,sd,NA,4,NA,NA,NA,NA,NA,NA,NA,NA,NA,NA,NA,NA,NA,NA,NA,NA,NA,NA,NA
b6eb3,Deep Question,html.Page,3_0_4_0_4_0_0,NA,NA,form submission,7686.8,667154.2,667147.6,667164.2,674851,674851.2,2024-04-15T15:22:47Z,674859.2,NULL,Kultur,utamaduni,d,NA,NA,NA,kebre,NA,NA,4,NA,NA,NA,NA,NA,NA,NA,NA,NA,NA,NA,NA,NA,NA,NA,NA,NA,NA,NA
b6eb3,"""Richtig""-Screen",canvas.Screen,3_0_4_0_4_0_1,NA,NA,skipped,NA,674854.3,NA,NA,674851,674854.5,2024-04-15T15:22:47Z,674859.2,NULL,Kultur,utamaduni,d,NA,NA,NA,NA,sd,NA,4,NA,NA,NA,NA,NA,NA,NA,NA,NA,NA,NA,NA,NA,NA,NA,NA,NA,NA,NA
b6eb3,"""Falsch""-Screen",canvas.Screen,3_0_4_0_4_0_2,NA,NA,timeout,4997.4,674855.4,674842.696,674859.2,679839.8,679840.7,2024-04-15T15:22:52Z,679856.6,NULL,Kultur,utamaduni,d,NA,NA,NA,NA,sd,0,4,NA,NA,NA,NA,NA,NA,NA,NA,NA,NA,NA,NA,NA,NA,NA,NA,NA,NA,NA
b6eb3,deep,flow.Sequence,3_0_4_0_4_0,NA,NA,completion,12675.6,667154.2,667147.6,667164.2,679839.8,679841.1,2024-04-15T15:22:52Z,679856.6,NULL,Kultur,utamaduni,d,NA,NA,NA,NA,sd,NA,4,NA,NA,NA,NA,NA,NA,NA,NA,NA,NA,NA,NA,NA,NA,NA,NA,NA,NA,NA
b6eb3,shallow,flow.Sequence,3_0_4_0_4_1,NA,NA,skipped,NA,679841.2,NA,NA,679839.8,679841.3,2024-04-15T15:22:52Z,679856.6,NULL,Kultur,utamaduni,d,NA,NA,NA,NA,sd,NA,4,NA,NA,NA,NA,NA,NA,NA,NA,NA,NA,NA,NA,NA,NA,NA,NA,NA,NA,NA
b6eb3,task,flow.Sequence,3_0_4_0_4,NA,NA,completion,12675.6,667154.2,667147.6,667164.2,679839.8,679841.5,2024-04-15T15:22:52Z,679856.6,NULL,Kultur,utamaduni,d,NA,NA,NA,NA,sd,NA,4,NA,NA,NA,NA,NA,NA,NA,NA,NA,NA,NA,NA,NA,NA,NA,NA,NA,NA,NA
b6eb3,deep,flow.Sequence,3_0_4_0_5_0,NA,NA,skipped,NA,679841.7,NA,NA,679839.8,679841.8,2024-04-15T15:22:52Z,679856.6,NULL,Aufstand,ugomaji,s,mazidio,msingi,kujieleza,NA,sd,NA,4,NA,NA,NA,NA,NA,NA,NA,NA,NA,NA,NA,NA,NA,NA,NA,NA,NA,NA,NA
b6eb3,Shallow Question,html.Page,3_0_4_0_5_1_0,NA,NA,form submission,3448.6000000002,679841.9,679839.8,679856.6,683305.2,683305.4,2024-04-15T15:22:55Z,683321.1,NULL,Aufstand,ugomaji,s,mazidio,msingi,kujieleza,ugomaji,NA,NA,4,NA,NA,NA,NA,NA,NA,NA,NA,NA,NA,NA,NA,NA,NA,NA,NA,NA,NA,NA
b6eb3,"""Richtig""-Screen",canvas.Screen,3_0_4_0_5_1_1,NA,NA,timeout,4996.9,683308.5,683304.062,683321.1,688301,688301.9,2024-04-15T15:23:00Z,688318,NULL,Aufstand,ugomaji,s,mazidio,msingi,kujieleza,NA,sd,1,4,NA,NA,NA,NA,NA,NA,NA,NA,NA,NA,NA,NA,NA,NA,NA,NA,NA,NA,NA
b6eb3,"""Falsch""-Screen",canvas.Screen,3_0_4_0_5_1_2,NA,NA,skipped,NA,688307.1,NA,NA,688301,688307.2,2024-04-15T15:23:00Z,688318,NULL,Aufstand,ugomaji,s,mazidio,msingi,kujieleza,NA,sd,NA,4,NA,NA,NA,NA,NA,NA,NA,NA,NA,NA,NA,NA,NA,NA,NA,NA,NA,NA,NA
b6eb3,shallow,flow.Sequence,3_0_4_0_5_1,NA,NA,completion,8444.4,679841.9,679839.8,679856.6,688301,688307.2,2024-04-15T15:23:00Z,688318,NULL,Aufstand,ugomaji,s,mazidio,msingi,kujieleza,NA,sd,NA,4,NA,NA,NA,NA,NA,NA,NA,NA,NA,NA,NA,NA,NA,NA,NA,NA,NA,NA,NA
b6eb3,task,flow.Sequence,3_0_4_0_5,NA,NA,completion,8444.4,679841.6,679839.8,679856.6,688301,688307.3,2024-04-15T15:23:00Z,688318,NULL,Aufstand,ugomaji,s,mazidio,msingi,kujieleza,NA,sd,NA,4,NA,NA,NA,NA,NA,NA,NA,NA,NA,NA,NA,NA,NA,NA,NA,NA,NA,NA,NA
b6eb3,deep,flow.Sequence,3_0_4_0_6_0,NA,NA,skipped,NA,688307.4,NA,NA,688301,688307.4,2024-04-15T15:23:00Z,688318,NULL,Integrität,uadilifu,s,muungano,mtiririko,upunguaji,NA,sd,NA,4,NA,NA,NA,NA,NA,NA,NA,NA,NA,NA,NA,NA,NA,NA,NA,NA,NA,NA,NA
b6eb3,Shallow Question,html.Page,3_0_4_0_6_1_0,NA,NA,form submission,4449.1000000001,688307.4,688301,688318,692767.1,692767.4,2024-04-15T15:23:05Z,692781.4,NULL,Integrität,uadilifu,s,muungano,mtiririko,upunguaji,uadilifu,NA,NA,4,NA,NA,NA,NA,NA,NA,NA,NA,NA,NA,NA,NA,NA,NA,NA,NA,NA,NA,NA
b6eb3,"""Richtig""-Screen",canvas.Screen,3_0_4_0_6_1_1,NA,NA,timeout,4997.5,692770.3,692765.384,692781.4,697761.7,697763,2024-04-15T15:23:10Z,697778.9,NULL,Integrität,uadilifu,s,muungano,mtiririko,upunguaji,NA,sd,1,4,NA,NA,NA,NA,NA,NA,NA,NA,NA,NA,NA,NA,NA,NA,NA,NA,NA,NA,NA
b6eb3,"""Falsch""-Screen",canvas.Screen,3_0_4_0_6_1_2,NA,NA,skipped,NA,697768.3,NA,NA,697761.7,697768.3,2024-04-15T15:23:10Z,697778.9,NULL,Integrität,uadilifu,s,muungano,mtiririko,upunguaji,NA,sd,NA,4,NA,NA,NA,NA,NA,NA,NA,NA,NA,NA,NA,NA,NA,NA,NA,NA,NA,NA,NA
b6eb3,shallow,flow.Sequence,3_0_4_0_6_1,NA,NA,completion,9443.7,688307.4,688301,688318,697761.7,697768.4,2024-04-15T15:23:10Z,697778.9,NULL,Integrität,uadilifu,s,muungano,mtiririko,upunguaji,NA,sd,NA,4,NA,NA,NA,NA,NA,NA,NA,NA,NA,NA,NA,NA,NA,NA,NA,NA,NA,NA,NA
b6eb3,task,flow.Sequence,3_0_4_0_6,NA,NA,completion,9443.7,688307.4,688301,688318,697761.7,697768.5,2024-04-15T15:23:10Z,697778.9,NULL,Integrität,uadilifu,s,muungano,mtiririko,upunguaji,NA,sd,NA,4,NA,NA,NA,NA,NA,NA,NA,NA,NA,NA,NA,NA,NA,NA,NA,NA,NA,NA,NA
b6eb3,deep,flow.Sequence,3_0_4_0_7_0,NA,NA,skipped,NA,697768.5,NA,NA,697761.7,697768.6,2024-04-15T15:23:10Z,697778.9,NULL,Fleisch,mshakiki,s,kizunguzungu,mshikamano,angusho,NA,sd,NA,4,NA,NA,NA,NA,NA,NA,NA,NA,NA,NA,NA,NA,NA,NA,NA,NA,NA,NA,NA
b6eb3,Shallow Question,html.Page,3_0_4_0_7_1_0,NA,NA,form submission,4003.9999999999,697768.6,697761.7,697778.9,701782.9,701783.1,2024-04-15T15:23:14Z,701792.6,NULL,Fleisch,mshakiki,s,kizunguzungu,mshikamano,angusho,mshakiki,NA,NA,4,NA,NA,NA,NA,NA,NA,NA,NA,NA,NA,NA,NA,NA,NA,NA,NA,NA,NA,NA
b6eb3,"""Richtig""-Screen",canvas.Screen,3_0_4_0_7_1_1,NA,NA,timeout,4997.2000000001,701786.1,701776.652,701792.6,706773.2,706774.1,2024-04-15T15:23:19Z,706789.8,NULL,Fleisch,mshakiki,s,kizunguzungu,mshikamano,angusho,NA,sd,1,4,NA,NA,NA,NA,NA,NA,NA,NA,NA,NA,NA,NA,NA,NA,NA,NA,NA,NA,NA
b6eb3,"""Falsch""-Screen",canvas.Screen,3_0_4_0_7_1_2,NA,NA,skipped,NA,706779,NA,NA,706773.2,706779.2,2024-04-15T15:23:19Z,706789.8,NULL,Fleisch,mshakiki,s,kizunguzungu,mshikamano,angusho,NA,sd,NA,4,NA,NA,NA,NA,NA,NA,NA,NA,NA,NA,NA,NA,NA,NA,NA,NA,NA,NA,NA
b6eb3,shallow,flow.Sequence,3_0_4_0_7_1,NA,NA,completion,8994.2999999999,697768.6,697761.7,697778.9,706773.2,706779.2,2024-04-15T15:23:19Z,706789.8,NULL,Fleisch,mshakiki,s,kizunguzungu,mshikamano,angusho,NA,sd,NA,4,NA,NA,NA,NA,NA,NA,NA,NA,NA,NA,NA,NA,NA,NA,NA,NA,NA,NA,NA
b6eb3,task,flow.Sequence,3_0_4_0_7,NA,NA,completion,8994.2999999999,697768.5,697761.7,697778.9,706773.2,706779.3,2024-04-15T15:23:19Z,706789.8,NULL,Fleisch,mshakiki,s,kizunguzungu,mshikamano,angusho,NA,sd,NA,4,NA,NA,NA,NA,NA,NA,NA,NA,NA,NA,NA,NA,NA,NA,NA,NA,NA,NA,NA
b6eb3,block,flow.Loop,3_0_4_0,NA,NA,completion,93092.564,613687.3,613680.636,613680.636,706773.2,706779.3,2024-04-15T15:23:19Z,706789.8,NULL,NA,NA,NA,NA,NA,NA,NA,sd,NA,4,NA,NA,NA,NA,NA,NA,NA,NA,NA,NA,NA,NA,NA,NA,NA,NA,NA,NA,NA
b6eb3,weiter,canvas.Screen,3_0_4_1,sdf,keypress(Space),response,1476.3,706779.3,706773.2,706789.8,708266.1,708267,2024-04-15T15:23:20Z,708273.074,NULL,NA,NA,NA,NA,NA,NA,NA,sd,NA,4,NA,NA,NA,NA,NA,NA,NA,NA,NA,NA,NA,NA,NA,NA,NA,NA,NA,NA,NA
b6eb3,check continue,flow.Sequence,3_0_4,NA,NA,completion,94585.464,613687.3,613680.636,613680.636,708266.1,708267.4,2024-04-15T15:23:20Z,708273.074,NULL,NA,NA,NA,NA,NA,NA,NA,sd,NA,4,NA,NA,NA,NA,NA,NA,NA,NA,NA,NA,NA,NA,NA,NA,NA,NA,NA,NA,NA
b6eb3,Deep Question,html.Page,3_0_5_0_0_0_0,NA,NA,form submission,7229.2260000003,708285.1,708273.074,708273.074,715502.3,715502.5,2024-04-15T15:23:27Z,715517.9,NULL,Genehmigung,idhini,d,NA,NA,NA,idhini,NA,NA,5,NA,NA,NA,NA,NA,NA,NA,NA,NA,NA,NA,NA,NA,NA,NA,NA,NA,NA,NA
b6eb3,"""Richtig""-Screen",canvas.Screen,3_0_5_0_0_0_1,NA,NA,timeout,4997,715505.7,715501.902,715517.9,720497.9,720498.7,2024-04-15T15:23:32Z,720514.9,NULL,Genehmigung,idhini,d,NA,NA,NA,NA,sdf,1,5,NA,NA,NA,NA,NA,NA,NA,NA,NA,NA,NA,NA,NA,NA,NA,NA,NA,NA,NA
b6eb3,"""Falsch""-Screen",canvas.Screen,3_0_5_0_0_0_2,NA,NA,skipped,NA,720504,NA,NA,720497.9,720504,2024-04-15T15:23:32Z,720514.9,NULL,Genehmigung,idhini,d,NA,NA,NA,NA,sdf,NA,5,NA,NA,NA,NA,NA,NA,NA,NA,NA,NA,NA,NA,NA,NA,NA,NA,NA,NA,NA
b6eb3,deep,flow.Sequence,3_0_5_0_0_0,NA,NA,completion,12224.826,708285.1,708273.074,708273.074,720497.9,720504.1,2024-04-15T15:23:32Z,720514.9,NULL,Genehmigung,idhini,d,NA,NA,NA,NA,sdf,NA,5,NA,NA,NA,NA,NA,NA,NA,NA,NA,NA,NA,NA,NA,NA,NA,NA,NA,NA,NA
b6eb3,shallow,flow.Sequence,3_0_5_0_0_1,NA,NA,skipped,NA,720504.1,NA,NA,720497.9,720504.3,2024-04-15T15:23:32Z,720514.9,NULL,Genehmigung,idhini,d,NA,NA,NA,NA,sdf,NA,5,NA,NA,NA,NA,NA,NA,NA,NA,NA,NA,NA,NA,NA,NA,NA,NA,NA,NA,NA
b6eb3,task,flow.Sequence,3_0_5_0_0,NA,NA,completion,12224.826,708285.1,708273.074,708273.074,720497.9,720504.3,2024-04-15T15:23:32Z,720514.9,NULL,Genehmigung,idhini,d,NA,NA,NA,NA,sdf,NA,5,NA,NA,NA,NA,NA,NA,NA,NA,NA,NA,NA,NA,NA,NA,NA,NA,NA,NA,NA
b6eb3,Deep Question,html.Page,3_0_5_0_1_0_0,NA,NA,form submission,18558.4,720504.3,720497.9,720514.9,739073.3,739073.6,2024-04-15T15:23:51Z,739086.8,NULL,Kultur,utamaduni,d,NA,NA,NA,udamanoni,NA,NA,5,NA,NA,NA,NA,NA,NA,NA,NA,NA,NA,NA,NA,NA,NA,NA,NA,NA,NA,NA
b6eb3,"""Richtig""-Screen",canvas.Screen,3_0_5_0_1_0_1,NA,NA,skipped,NA,739076.6,NA,NA,739073.3,739076.7,2024-04-15T15:23:51Z,739086.8,NULL,Kultur,utamaduni,d,NA,NA,NA,NA,sdf,NA,5,NA,NA,NA,NA,NA,NA,NA,NA,NA,NA,NA,NA,NA,NA,NA,NA,NA,NA,NA
b6eb3,"""Falsch""-Screen",canvas.Screen,3_0_5_0_1_0_2,NA,NA,timeout,4997,739077.4,739070.3,739086.8,744067.1,744068,2024-04-15T15:23:56Z,744083.8,NULL,Kultur,utamaduni,d,NA,NA,NA,NA,sdf,0,5,NA,NA,NA,NA,NA,NA,NA,NA,NA,NA,NA,NA,NA,NA,NA,NA,NA,NA,NA
b6eb3,deep,flow.Sequence,3_0_5_0_1_0,NA,NA,completion,23552.2,720504.3,720497.9,720514.9,744067.1,744068.3,2024-04-15T15:23:56Z,744083.8,NULL,Kultur,utamaduni,d,NA,NA,NA,NA,sdf,NA,5,NA,NA,NA,NA,NA,NA,NA,NA,NA,NA,NA,NA,NA,NA,NA,NA,NA,NA,NA
b6eb3,shallow,flow.Sequence,3_0_5_0_1_1,NA,NA,skipped,NA,744068.5,NA,NA,744067.1,744068.6,2024-04-15T15:23:56Z,744083.8,NULL,Kultur,utamaduni,d,NA,NA,NA,NA,sdf,NA,5,NA,NA,NA,NA,NA,NA,NA,NA,NA,NA,NA,NA,NA,NA,NA,NA,NA,NA,NA
b6eb3,task,flow.Sequence,3_0_5_0_1,NA,NA,completion,23552.2,720504.3,720497.9,720514.9,744067.1,744068.8,2024-04-15T15:23:56Z,744083.8,NULL,Kultur,utamaduni,d,NA,NA,NA,NA,sdf,NA,5,NA,NA,NA,NA,NA,NA,NA,NA,NA,NA,NA,NA,NA,NA,NA,NA,NA,NA,NA
b6eb3,Deep Question,html.Page,3_0_5_0_2_0_0,NA,NA,form submission,31808.2,744069,744067.1,744083.8,775892,775892.3,2024-04-15T15:24:28Z,775897.982,NULL,Verzögerung,kuchelewa,d,NA,NA,NA,kuchelewe,NA,NA,5,NA,NA,NA,NA,NA,NA,NA,NA,NA,NA,NA,NA,NA,NA,NA,NA,NA,NA,NA
b6eb3,"""Richtig""-Screen",canvas.Screen,3_0_5_0_2_0_1,NA,NA,skipped,NA,775895.3,NA,NA,775892,775895.4,2024-04-15T15:24:28Z,775897.982,NULL,Verzögerung,kuchelewa,d,NA,NA,NA,NA,sdf,NA,5,NA,NA,NA,NA,NA,NA,NA,NA,NA,NA,NA,NA,NA,NA,NA,NA,NA,NA,NA
b6eb3,"""Falsch""-Screen",canvas.Screen,3_0_5_0_2_0_2,NA,NA,timeout,4996.618,775896.1,775897.982,775897.982,780878,780878.9,2024-04-15T15:24:33Z,780894.6,NULL,Verzögerung,kuchelewa,d,NA,NA,NA,NA,sdf,0,5,NA,NA,NA,NA,NA,NA,NA,NA,NA,NA,NA,NA,NA,NA,NA,NA,NA,NA,NA
b6eb3,deep,flow.Sequence,3_0_5_0_2_0,NA,NA,completion,36794.2,744068.9,744067.1,744083.8,780878,780879.3,2024-04-15T15:24:33Z,780894.6,NULL,Verzögerung,kuchelewa,d,NA,NA,NA,NA,sdf,NA,5,NA,NA,NA,NA,NA,NA,NA,NA,NA,NA,NA,NA,NA,NA,NA,NA,NA,NA,NA
b6eb3,shallow,flow.Sequence,3_0_5_0_2_1,NA,NA,skipped,NA,780879.4,NA,NA,780878,780879.6,2024-04-15T15:24:33Z,780894.6,NULL,Verzögerung,kuchelewa,d,NA,NA,NA,NA,sdf,NA,5,NA,NA,NA,NA,NA,NA,NA,NA,NA,NA,NA,NA,NA,NA,NA,NA,NA,NA,NA
b6eb3,task,flow.Sequence,3_0_5_0_2,NA,NA,completion,36794.2,744068.9,744067.1,744083.8,780878,780879.8,2024-04-15T15:24:33Z,780894.6,NULL,Verzögerung,kuchelewa,d,NA,NA,NA,NA,sdf,NA,5,NA,NA,NA,NA,NA,NA,NA,NA,NA,NA,NA,NA,NA,NA,NA,NA,NA,NA,NA
b6eb3,Deep Question,html.Page,3_0_5_0_3_0_0,NA,NA,form submission,8178.9,780880,780878,780894.6,789073.5,789073.8,2024-04-15T15:24:41Z,789089.2,NULL,Begegnung,kukutana,d,NA,NA,NA,kukutama,NA,NA,5,NA,NA,NA,NA,NA,NA,NA,NA,NA,NA,NA,NA,NA,NA,NA,NA,NA,NA,NA
b6eb3,"""Richtig""-Screen",canvas.Screen,3_0_5_0_3_0_1,NA,NA,skipped,NA,789077,NA,NA,789073.5,789077.1,2024-04-15T15:24:41Z,789089.2,NULL,Begegnung,kukutana,d,NA,NA,NA,NA,sdf,NA,5,NA,NA,NA,NA,NA,NA,NA,NA,NA,NA,NA,NA,NA,NA,NA,NA,NA,NA,NA
b6eb3,"""Falsch""-Screen",canvas.Screen,3_0_5_0_3_0_2,NA,NA,timeout,4997.4,789078.2,789073.74,789089.2,794069.7,794070.6,2024-04-15T15:24:46Z,794086.6,NULL,Begegnung,kukutana,d,NA,NA,NA,NA,sdf,0,5,NA,NA,NA,NA,NA,NA,NA,NA,NA,NA,NA,NA,NA,NA,NA,NA,NA,NA,NA
b6eb3,deep,flow.Sequence,3_0_5_0_3_0,NA,NA,completion,13175.1,780879.9,780878,780894.6,794069.7,794070.9,2024-04-15T15:24:46Z,794086.6,NULL,Begegnung,kukutana,d,NA,NA,NA,NA,sdf,NA,5,NA,NA,NA,NA,NA,NA,NA,NA,NA,NA,NA,NA,NA,NA,NA,NA,NA,NA,NA
b6eb3,shallow,flow.Sequence,3_0_5_0_3_1,NA,NA,skipped,NA,794071.1,NA,NA,794069.7,794071.2,2024-04-15T15:24:46Z,794086.6,NULL,Begegnung,kukutana,d,NA,NA,NA,NA,sdf,NA,5,NA,NA,NA,NA,NA,NA,NA,NA,NA,NA,NA,NA,NA,NA,NA,NA,NA,NA,NA
b6eb3,task,flow.Sequence,3_0_5_0_3,NA,NA,completion,13175.1,780879.9,780878,780894.6,794069.7,794071.4,2024-04-15T15:24:46Z,794086.6,NULL,Begegnung,kukutana,d,NA,NA,NA,NA,sdf,NA,5,NA,NA,NA,NA,NA,NA,NA,NA,NA,NA,NA,NA,NA,NA,NA,NA,NA,NA,NA
b6eb3,deep,flow.Sequence,3_0_5_0_4_0,NA,NA,skipped,NA,794071.5,NA,NA,794069.7,794071.7,2024-04-15T15:24:46Z,794086.6,NULL,Aufstand,ugomaji,s,mazidio,msingi,kujieleza,NA,sdf,NA,5,NA,NA,NA,NA,NA,NA,NA,NA,NA,NA,NA,NA,NA,NA,NA,NA,NA,NA,NA
b6eb3,Shallow Question,html.Page,3_0_5_0_4_1_0,NA,NA,form submission,3924.6000000002,794071.8,794069.7,794086.6,798011.2,798011.3,2024-04-15T15:24:50Z,798017,NULL,Aufstand,ugomaji,s,mazidio,msingi,kujieleza,ugomaji,NA,NA,5,NA,NA,NA,NA,NA,NA,NA,NA,NA,NA,NA,NA,NA,NA,NA,NA,NA,NA,NA
b6eb3,"""Richtig""-Screen",canvas.Screen,3_0_5_0_4_1_1,NA,NA,timeout,4997.4,798014.4,798002.196,798017,802997.7,802998.5,2024-04-15T15:24:55Z,803014.4,NULL,Aufstand,ugomaji,s,mazidio,msingi,kujieleza,NA,sdf,1,5,NA,NA,NA,NA,NA,NA,NA,NA,NA,NA,NA,NA,NA,NA,NA,NA,NA,NA,NA
b6eb3,"""Falsch""-Screen",canvas.Screen,3_0_5_0_4_1_2,NA,NA,skipped,NA,803003.6,NA,NA,802997.7,803003.6,2024-04-15T15:24:55Z,803014.4,NULL,Aufstand,ugomaji,s,mazidio,msingi,kujieleza,NA,sdf,NA,5,NA,NA,NA,NA,NA,NA,NA,NA,NA,NA,NA,NA,NA,NA,NA,NA,NA,NA,NA
b6eb3,shallow,flow.Sequence,3_0_5_0_4_1,NA,NA,completion,8911.1,794071.8,794069.7,794086.6,802997.7,803003.8,2024-04-15T15:24:55Z,803014.4,NULL,Aufstand,ugomaji,s,mazidio,msingi,kujieleza,NA,sdf,NA,5,NA,NA,NA,NA,NA,NA,NA,NA,NA,NA,NA,NA,NA,NA,NA,NA,NA,NA,NA
b6eb3,task,flow.Sequence,3_0_5_0_4,NA,NA,completion,8911.1,794071.4,794069.7,794086.6,802997.7,803003.8,2024-04-15T15:24:55Z,803014.4,NULL,Aufstand,ugomaji,s,mazidio,msingi,kujieleza,NA,sdf,NA,5,NA,NA,NA,NA,NA,NA,NA,NA,NA,NA,NA,NA,NA,NA,NA,NA,NA,NA,NA
b6eb3,deep,flow.Sequence,3_0_5_0_5_0,NA,NA,skipped,NA,803003.8,NA,NA,802997.7,803003.9,2024-04-15T15:24:55Z,803014.4,NULL,Prüfung,mtihani,s,mkulima,mtizamo,ufumbuzi,NA,sdf,NA,5,NA,NA,NA,NA,NA,NA,NA,NA,NA,NA,NA,NA,NA,NA,NA,NA,NA,NA,NA
b6eb3,Shallow Question,html.Page,3_0_5_0_5_1_0,NA,NA,form submission,4633.9000000003,803003.9,802997.7,803014.4,807648.3,807648.6,2024-04-15T15:25:00Z,807661.2,NULL,Prüfung,mtihani,s,mkulima,mtizamo,ufumbuzi,mtihani,NA,NA,5,NA,NA,NA,NA,NA,NA,NA,NA,NA,NA,NA,NA,NA,NA,NA,NA,NA,NA,NA
b6eb3,"""Richtig""-Screen",canvas.Screen,3_0_5_0_5_1_1,NA,NA,timeout,4997.3,807651.4,807645.146,807661.2,812641.8,812642.8,2024-04-15T15:25:05Z,812658.5,NULL,Prüfung,mtihani,s,mkulima,mtizamo,ufumbuzi,NA,sdf,1,5,NA,NA,NA,NA,NA,NA,NA,NA,NA,NA,NA,NA,NA,NA,NA,NA,NA,NA,NA
b6eb3,"""Falsch""-Screen",canvas.Screen,3_0_5_0_5_1_2,NA,NA,skipped,NA,812648,NA,NA,812641.8,812648.1,2024-04-15T15:25:05Z,812658.5,NULL,Prüfung,mtihani,s,mkulima,mtizamo,ufumbuzi,NA,sdf,NA,5,NA,NA,NA,NA,NA,NA,NA,NA,NA,NA,NA,NA,NA,NA,NA,NA,NA,NA,NA
b6eb3,shallow,flow.Sequence,3_0_5_0_5_1,NA,NA,completion,9627.4,803003.9,802997.7,803014.4,812641.8,812648.2,2024-04-15T15:25:05Z,812658.5,NULL,Prüfung,mtihani,s,mkulima,mtizamo,ufumbuzi,NA,sdf,NA,5,NA,NA,NA,NA,NA,NA,NA,NA,NA,NA,NA,NA,NA,NA,NA,NA,NA,NA,NA
b6eb3,task,flow.Sequence,3_0_5_0_5,NA,NA,completion,9627.4,803003.8,802997.7,803014.4,812641.8,812648.2,2024-04-15T15:25:05Z,812658.5,NULL,Prüfung,mtihani,s,mkulima,mtizamo,ufumbuzi,NA,sdf,NA,5,NA,NA,NA,NA,NA,NA,NA,NA,NA,NA,NA,NA,NA,NA,NA,NA,NA,NA,NA
b6eb3,deep,flow.Sequence,3_0_5_0_6_0,NA,NA,skipped,NA,812648.2,NA,NA,812641.8,812648.3,2024-04-15T15:25:05Z,812658.5,NULL,Fleisch,mshakiki,s,kizunguzungu,mshikamano,angusho,NA,sdf,NA,5,NA,NA,NA,NA,NA,NA,NA,NA,NA,NA,NA,NA,NA,NA,NA,NA,NA,NA,NA
b6eb3,Shallow Question,html.Page,3_0_5_0_6_1_0,NA,NA,form submission,3276.1000000001,812648.3,812641.8,812658.5,815934.6,815934.9,2024-04-15T15:25:08Z,815939.762,NULL,Fleisch,mshakiki,s,kizunguzungu,mshikamano,angusho,mshakiki,NA,NA,5,NA,NA,NA,NA,NA,NA,NA,NA,NA,NA,NA,NA,NA,NA,NA,NA,NA,NA,NA
b6eb3,"""Richtig""-Screen",canvas.Screen,3_0_5_0_6_1_1,NA,NA,timeout,4997.138,815935.7,815939.762,815939.762,820920.1,820921.3,2024-04-15T15:25:13Z,820936.9,NULL,Fleisch,mshakiki,s,kizunguzungu,mshikamano,angusho,NA,sdf,1,5,NA,NA,NA,NA,NA,NA,NA,NA,NA,NA,NA,NA,NA,NA,NA,NA,NA,NA,NA
b6eb3,"""Falsch""-Screen",canvas.Screen,3_0_5_0_6_1_2,NA,NA,skipped,NA,820926.4,NA,NA,820920.1,820926.5,2024-04-15T15:25:13Z,820936.9,NULL,Fleisch,mshakiki,s,kizunguzungu,mshikamano,angusho,NA,sdf,NA,5,NA,NA,NA,NA,NA,NA,NA,NA,NA,NA,NA,NA,NA,NA,NA,NA,NA,NA,NA
b6eb3,shallow,flow.Sequence,3_0_5_0_6_1,NA,NA,completion,8261.6,812648.3,812641.8,812658.5,820920.1,820926.6,2024-04-15T15:25:13Z,820936.9,NULL,Fleisch,mshakiki,s,kizunguzungu,mshikamano,angusho,NA,sdf,NA,5,NA,NA,NA,NA,NA,NA,NA,NA,NA,NA,NA,NA,NA,NA,NA,NA,NA,NA,NA
b6eb3,task,flow.Sequence,3_0_5_0_6,NA,NA,completion,8261.6,812648.2,812641.8,812658.5,820920.1,820926.7,2024-04-15T15:25:13Z,820936.9,NULL,Fleisch,mshakiki,s,kizunguzungu,mshikamano,angusho,NA,sdf,NA,5,NA,NA,NA,NA,NA,NA,NA,NA,NA,NA,NA,NA,NA,NA,NA,NA,NA,NA,NA
b6eb3,deep,flow.Sequence,3_0_5_0_7_0,NA,NA,skipped,NA,820926.7,NA,NA,820920.1,820926.7,2024-04-15T15:25:13Z,820936.9,NULL,Integrität,uadilifu,s,muungano,mtiririko,upunguaji,NA,sdf,NA,5,NA,NA,NA,NA,NA,NA,NA,NA,NA,NA,NA,NA,NA,NA,NA,NA,NA,NA,NA
b6eb3,Shallow Question,html.Page,3_0_5_0_7_1_0,NA,NA,form submission,2474.3000000002,820926.7,820920.1,820936.9,823411.2,823411.5,2024-04-15T15:25:15Z,823418.2,NULL,Integrität,uadilifu,s,muungano,mtiririko,upunguaji,uadilifu,NA,NA,5,NA,NA,NA,NA,NA,NA,NA,NA,NA,NA,NA,NA,NA,NA,NA,NA,NA,NA,NA
b6eb3,"""Richtig""-Screen",canvas.Screen,3_0_5_0_7_1_1,NA,NA,timeout,4996.9,823412.3,823402.126,823418.2,828398.5,828400.5,2024-04-15T15:25:20Z,828415.1,NULL,Integrität,uadilifu,s,muungano,mtiririko,upunguaji,NA,sdf,1,5,NA,NA,NA,NA,NA,NA,NA,NA,NA,NA,NA,NA,NA,NA,NA,NA,NA,NA,NA
b6eb3,"""Falsch""-Screen",canvas.Screen,3_0_5_0_7_1_2,NA,NA,skipped,NA,828401.9,NA,NA,828398.5,828401.9,2024-04-15T15:25:20Z,828415.1,NULL,Integrität,uadilifu,s,muungano,mtiririko,upunguaji,NA,sdf,NA,5,NA,NA,NA,NA,NA,NA,NA,NA,NA,NA,NA,NA,NA,NA,NA,NA,NA,NA,NA
b6eb3,shallow,flow.Sequence,3_0_5_0_7_1,NA,NA,completion,7461.6,820926.7,820920.1,820936.9,828398.5,828402.1,2024-04-15T15:25:20Z,828415.1,NULL,Integrität,uadilifu,s,muungano,mtiririko,upunguaji,NA,sdf,NA,5,NA,NA,NA,NA,NA,NA,NA,NA,NA,NA,NA,NA,NA,NA,NA,NA,NA,NA,NA
b6eb3,task,flow.Sequence,3_0_5_0_7,NA,NA,completion,7461.6,820926.7,820920.1,820936.9,828398.5,828402.1,2024-04-15T15:25:20Z,828415.1,NULL,Integrität,uadilifu,s,muungano,mtiririko,upunguaji,NA,sdf,NA,5,NA,NA,NA,NA,NA,NA,NA,NA,NA,NA,NA,NA,NA,NA,NA,NA,NA,NA,NA
b6eb3,block,flow.Loop,3_0_5_0,NA,NA,completion,120125.426,708285.1,708273.074,708273.074,828398.5,828402.1,2024-04-15T15:25:20Z,828415.1,NULL,NA,NA,NA,NA,NA,NA,NA,sdf,NA,5,NA,NA,NA,NA,NA,NA,NA,NA,NA,NA,NA,NA,NA,NA,NA,NA,NA,NA,NA
b6eb3,weiter,canvas.Screen,3_0_5_1,sdf,keypress(Space),response,12.700000000303,828402.2,828398.5,828415.1,828427.8,828428.3,2024-04-15T15:25:20Z,828731.7,NULL,NA,NA,NA,NA,NA,NA,NA,sdf,NA,5,NA,NA,NA,NA,NA,NA,NA,NA,NA,NA,NA,NA,NA,NA,NA,NA,NA,NA,NA
b6eb3,check continue,flow.Sequence,3_0_5,NA,NA,completion,120154.726,708284.9,708273.074,708273.074,828427.8,828428.4,2024-04-15T15:25:20Z,828731.7,NULL,NA,NA,NA,NA,NA,NA,NA,sdf,NA,5,NA,NA,NA,NA,NA,NA,NA,NA,NA,NA,NA,NA,NA,NA,NA,NA,NA,NA,NA
b6eb3,check continue,flow.Sequence,3_0_6,NA,NA,skipped,NA,828442.2,NA,NA,828427.8,828442.3,2024-04-15T15:25:20Z,828731.7,NULL,NA,NA,NA,NA,NA,NA,NA,dfs,NA,6,NA,NA,NA,NA,NA,NA,NA,NA,NA,NA,NA,NA,NA,NA,NA,NA,NA,NA,NA
b6eb3,check continue,flow.Sequence,3_0_7,NA,NA,skipped,NA,828462.2,NA,NA,828427.8,828462.4,2024-04-15T15:25:20Z,828731.7,NULL,NA,NA,NA,NA,NA,NA,NA,df,NA,7,NA,NA,NA,NA,NA,NA,NA,NA,NA,NA,NA,NA,NA,NA,NA,NA,NA,NA,NA
b6eb3,check continue,flow.Sequence,3_0_8,NA,NA,skipped,NA,828476.2,NA,NA,828427.8,828476.2,2024-04-15T15:25:20Z,828731.7,NULL,NA,NA,NA,NA,NA,NA,NA,dfs,NA,8,NA,NA,NA,NA,NA,NA,NA,NA,NA,NA,NA,NA,NA,NA,NA,NA,NA,NA,NA
b6eb3,check continue,flow.Sequence,3_0_9,NA,NA,skipped,NA,828489.3,NA,NA,828427.8,828489.3,2024-04-15T15:25:20Z,828731.7,NULL,NA,NA,NA,NA,NA,NA,NA,dsf,NA,9,NA,NA,NA,NA,NA,NA,NA,NA,NA,NA,NA,NA,NA,NA,NA,NA,NA,NA,NA
b6eb3,check continue,flow.Sequence,3_0_10,NA,NA,skipped,NA,828502.6,NA,NA,828427.8,828502.7,2024-04-15T15:25:20Z,828731.7,NULL,NA,NA,NA,NA,NA,NA,NA,df,NA,10,NA,NA,NA,NA,NA,NA,NA,NA,NA,NA,NA,NA,NA,NA,NA,NA,NA,NA,NA
b6eb3,check continue,flow.Sequence,3_0_11,NA,NA,skipped,NA,828518.8,NA,NA,828427.8,828518.8,2024-04-15T15:25:20Z,828731.7,NULL,NA,NA,NA,NA,NA,NA,NA,dfs,NA,11,NA,NA,NA,NA,NA,NA,NA,NA,NA,NA,NA,NA,NA,NA,NA,NA,NA,NA,NA
b6eb3,check continue,flow.Sequence,3_0_12,NA,NA,skipped,NA,828532,NA,NA,828427.8,828532.1,2024-04-15T15:25:20Z,828731.7,NULL,NA,NA,NA,NA,NA,NA,NA,dsf,NA,12,NA,NA,NA,NA,NA,NA,NA,NA,NA,NA,NA,NA,NA,NA,NA,NA,NA,NA,NA
b6eb3,check continue,flow.Sequence,3_0_13,NA,NA,skipped,NA,828544.6,NA,NA,828427.8,828544.7,2024-04-15T15:25:20Z,828731.7,NULL,NA,NA,NA,NA,NA,NA,NA,dsf,NA,13,NA,NA,NA,NA,NA,NA,NA,NA,NA,NA,NA,NA,NA,NA,NA,NA,NA,NA,NA
b6eb3,check continue,flow.Sequence,3_0_14,NA,NA,skipped,NA,828557.2,NA,NA,828427.8,828557.3,2024-04-15T15:25:21Z,828731.7,NULL,NA,NA,NA,NA,NA,NA,NA,NA,NA,14,NA,NA,NA,NA,NA,NA,NA,NA,NA,NA,NA,NA,NA,NA,NA,NA,NA,NA,NA
b6eb3,check continue,flow.Sequence,3_0_15,NA,NA,skipped,NA,828568.4,NA,NA,828427.8,828568.5,2024-04-15T15:25:21Z,828731.7,NULL,NA,NA,NA,NA,NA,NA,NA,NA,NA,15,NA,NA,NA,NA,NA,NA,NA,NA,NA,NA,NA,NA,NA,NA,NA,NA,NA,NA,NA
b6eb3,check continue,flow.Sequence,3_0_16,NA,NA,skipped,NA,828579.5,NA,NA,828427.8,828579.6,2024-04-15T15:25:21Z,828731.7,NULL,NA,NA,NA,NA,NA,NA,NA,NA,NA,16,NA,NA,NA,NA,NA,NA,NA,NA,NA,NA,NA,NA,NA,NA,NA,NA,NA,NA,NA
b6eb3,check continue,flow.Sequence,3_0_17,NA,NA,skipped,NA,828590.5,NA,NA,828427.8,828590.6,2024-04-15T15:25:21Z,828731.7,NULL,NA,NA,NA,NA,NA,NA,NA,NA,NA,17,NA,NA,NA,NA,NA,NA,NA,NA,NA,NA,NA,NA,NA,NA,NA,NA,NA,NA,NA
b6eb3,check continue,flow.Sequence,3_0_18,NA,NA,skipped,NA,828602.4,NA,NA,828427.8,828602.5,2024-04-15T15:25:21Z,828731.7,NULL,NA,NA,NA,NA,NA,NA,NA,NA,NA,18,NA,NA,NA,NA,NA,NA,NA,NA,NA,NA,NA,NA,NA,NA,NA,NA,NA,NA,NA
b6eb3,check continue,flow.Sequence,3_0_19,NA,NA,skipped,NA,828613.5,NA,NA,828427.8,828613.6,2024-04-15T15:25:21Z,828731.7,NULL,NA,NA,NA,NA,NA,NA,NA,NA,NA,19,NA,NA,NA,NA,NA,NA,NA,NA,NA,NA,NA,NA,NA,NA,NA,NA,NA,NA,NA
b6eb3,check continue,flow.Sequence,3_0_20,NA,NA,skipped,NA,828625.7,NA,NA,828427.8,828625.8,2024-04-15T15:25:21Z,828731.7,NULL,NA,NA,NA,NA,NA,NA,NA,NA,NA,20,NA,NA,NA,NA,NA,NA,NA,NA,NA,NA,NA,NA,NA,NA,NA,NA,NA,NA,NA
b6eb3,check continue,flow.Sequence,3_0_21,NA,NA,skipped,NA,828637.2,NA,NA,828427.8,828637.2,2024-04-15T15:25:21Z,828731.7,NULL,NA,NA,NA,NA,NA,NA,NA,NA,NA,21,NA,NA,NA,NA,NA,NA,NA,NA,NA,NA,NA,NA,NA,NA,NA,NA,NA,NA,NA
b6eb3,check continue,flow.Sequence,3_0_22,NA,NA,skipped,NA,828649.2,NA,NA,828427.8,828649.3,2024-04-15T15:25:21Z,828731.7,NULL,NA,NA,NA,NA,NA,NA,NA,NA,NA,22,NA,NA,NA,NA,NA,NA,NA,NA,NA,NA,NA,NA,NA,NA,NA,NA,NA,NA,NA
b6eb3,check continue,flow.Sequence,3_0_23,NA,NA,skipped,NA,828660.8,NA,NA,828427.8,828660.8,2024-04-15T15:25:21Z,828731.7,NULL,NA,NA,NA,NA,NA,NA,NA,NA,NA,23,NA,NA,NA,NA,NA,NA,NA,NA,NA,NA,NA,NA,NA,NA,NA,NA,NA,NA,NA
b6eb3,check continue,flow.Sequence,3_0_24,NA,NA,skipped,NA,828672.9,NA,NA,828427.8,828673,2024-04-15T15:25:21Z,828731.7,NULL,NA,NA,NA,NA,NA,NA,NA,NA,NA,24,NA,NA,NA,NA,NA,NA,NA,NA,NA,NA,NA,NA,NA,NA,NA,NA,NA,NA,NA
b6eb3,check continue,flow.Sequence,3_0_25,NA,NA,skipped,NA,828683.2,NA,NA,828427.8,828683.3,2024-04-15T15:25:21Z,828731.7,NULL,NA,NA,NA,NA,NA,NA,NA,NA,NA,25,NA,NA,NA,NA,NA,NA,NA,NA,NA,NA,NA,NA,NA,NA,NA,NA,NA,NA,NA
b6eb3,check continue,flow.Sequence,3_0_26,NA,NA,skipped,NA,828694.4,NA,NA,828427.8,828694.5,2024-04-15T15:25:21Z,828731.7,NULL,NA,NA,NA,NA,NA,NA,NA,NA,NA,26,NA,NA,NA,NA,NA,NA,NA,NA,NA,NA,NA,NA,NA,NA,NA,NA,NA,NA,NA
b6eb3,check continue,flow.Sequence,3_0_27,NA,NA,skipped,NA,828704.6,NA,NA,828427.8,828704.7,2024-04-15T15:25:21Z,828731.7,NULL,NA,NA,NA,NA,NA,NA,NA,NA,NA,27,NA,NA,NA,NA,NA,NA,NA,NA,NA,NA,NA,NA,NA,NA,NA,NA,NA,NA,NA
b6eb3,check continue,flow.Sequence,3_0_28,NA,NA,skipped,NA,828716.3,NA,NA,828427.8,828716.4,2024-04-15T15:25:21Z,828731.7,NULL,NA,NA,NA,NA,NA,NA,NA,NA,NA,28,NA,NA,NA,NA,NA,NA,NA,NA,NA,NA,NA,NA,NA,NA,NA,NA,NA,NA,NA
b6eb3,check continue,flow.Sequence,3_0_29,NA,NA,skipped,NA,828726.6,NA,NA,828427.8,828726.7,2024-04-15T15:25:21Z,828731.7,NULL,NA,NA,NA,NA,NA,NA,NA,NA,NA,29,NA,NA,NA,NA,NA,NA,NA,NA,NA,NA,NA,NA,NA,NA,NA,NA,NA,NA,NA
b6eb3,until continue,flow.Loop,3_0,NA,NA,completion,613071.1,215337.2,215349.476,215356.7,828427.8,828726.8,2024-04-15T15:25:21Z,828731.7,NULL,NA,NA,NA,NA,NA,NA,NA,NA,NA,NA,NA,NA,NA,NA,NA,NA,NA,NA,NA,NA,NA,NA,NA,NA,NA,NA,NA,NA,NA
b6eb3,block 1,flow.Sequence,3,NA,NA,completion,613071.1,215337.2,215349.476,215356.7,828427.8,828726.8,2024-04-15T15:25:21Z,828731.7,NULL,NA,NA,NA,NA,NA,NA,NA,NA,NA,NA,NA,NA,NA,NA,NA,NA,NA,NA,NA,NA,NA,NA,NA,NA,NA,NA,NA,NA,NA
b6eb3,1.Part Over,canvas.Screen,4,NA,keypress(Space),response,1735.4000000001,828726.8,828715.088,828731.7,830467.1,830468.3,2024-04-15T15:25:22Z,830514.1,NULL,NA,NA,NA,NA,NA,NA,NA,NA,NA,NA,NA,NA,NA,NA,NA,NA,NA,NA,NA,NA,NA,NA,NA,NA,NA,NA,NA,NA,NA
b6eb3,deep,flow.Sequence,5_0_0_0_0_0,NA,NA,skipped,NA,830508.6,NA,NA,830467.1,830508.7,2024-04-15T15:25:22Z,830514.1,NULL,Angreifer,mshambulizi,s,kitengo,tasinia,usafirishaji,NA,sdf,NA,0,NA,NA,NA,NA,NA,NA,NA,NA,NA,NA,NA,NA,NA,NA,NA,NA,NA,NA,NA
b6eb3,Shallow Question,html.Page,5_0_0_0_0_1_0,NA,NA,form submission,4892.9,830508.8,830498.296,830514.1,835407,835407.3,2024-04-15T15:25:27Z,835427.5,NULL,Angreifer,mshambulizi,s,kitengo,tasinia,usafirishaji,tasinia,NA,NA,0,NA,NA,NA,NA,NA,NA,NA,NA,NA,NA,NA,NA,NA,NA,NA,NA,NA,NA,NA
b6eb3,"""Richtig""-Screen",canvas.Screen,5_0_0_0_0_1_1,NA,NA,skipped,NA,835410.3,NA,NA,835407,835410.3,2024-04-15T15:25:27Z,835427.5,NULL,Angreifer,mshambulizi,s,kitengo,tasinia,usafirishaji,NA,sdf,NA,0,NA,NA,NA,NA,NA,NA,NA,NA,NA,NA,NA,NA,NA,NA,NA,NA,NA,NA,NA
b6eb3,"""Falsch""-Screen",canvas.Screen,5_0_0_0_0_1_2,NA,NA,timeout,4997.3,835411.1,835411.666,835427.5,840408.1,840408.9,2024-04-15T15:25:32Z,840424.8,NULL,Angreifer,mshambulizi,s,kitengo,tasinia,usafirishaji,NA,sdf,0,0,NA,NA,NA,NA,NA,NA,NA,NA,NA,NA,NA,NA,NA,NA,NA,NA,NA,NA,NA
b6eb3,shallow,flow.Sequence,5_0_0_0_0_1,NA,NA,completion,9894,830508.8,830498.296,830514.1,840408.1,840409.3,2024-04-15T15:25:32Z,840424.8,NULL,Angreifer,mshambulizi,s,kitengo,tasinia,usafirishaji,NA,sdf,NA,0,NA,NA,NA,NA,NA,NA,NA,NA,NA,NA,NA,NA,NA,NA,NA,NA,NA,NA,NA
b6eb3,task,flow.Sequence,5_0_0_0_0,NA,NA,completion,9894,830508.6,830498.296,830514.1,840408.1,840409.4,2024-04-15T15:25:32Z,840424.8,NULL,Angreifer,mshambulizi,s,kitengo,tasinia,usafirishaji,NA,sdf,NA,0,NA,NA,NA,NA,NA,NA,NA,NA,NA,NA,NA,NA,NA,NA,NA,NA,NA,NA,NA
b6eb3,Deep Question,html.Page,5_0_0_0_1_0_0,NA,NA,form submission,2960.4000000001,840409.6,840408.1,840424.8,843385.2,843385.5,2024-04-15T15:25:35Z,843389.496,NULL,Flexibilität,kubadilika,d,NA,NA,NA,fdgsdfg,NA,NA,0,NA,NA,NA,NA,NA,NA,NA,NA,NA,NA,NA,NA,NA,NA,NA,NA,NA,NA,NA
b6eb3,"""Richtig""-Screen",canvas.Screen,5_0_0_0_1_0_1,NA,NA,skipped,NA,843388.6,NA,NA,843385.2,843388.7,2024-04-15T15:25:35Z,843389.496,NULL,Flexibilität,kubadilika,d,NA,NA,NA,NA,sdf,NA,0,NA,NA,NA,NA,NA,NA,NA,NA,NA,NA,NA,NA,NA,NA,NA,NA,NA,NA,NA
b6eb3,"""Falsch""-Screen",canvas.Screen,5_0_0_0_1_0_2,NA,NA,timeout,4997.2039999999,843389.4,843389.496,843389.496,848370,848370.8,2024-04-15T15:25:40Z,848386.7,NULL,Flexibilität,kubadilika,d,NA,NA,NA,NA,sdf,0,0,NA,NA,NA,NA,NA,NA,NA,NA,NA,NA,NA,NA,NA,NA,NA,NA,NA,NA,NA
b6eb3,deep,flow.Sequence,5_0_0_0_1_0,NA,NA,completion,7945.2,840409.6,840408.1,840424.8,848370,848371.1,2024-04-15T15:25:40Z,848386.7,NULL,Flexibilität,kubadilika,d,NA,NA,NA,NA,sdf,NA,0,NA,NA,NA,NA,NA,NA,NA,NA,NA,NA,NA,NA,NA,NA,NA,NA,NA,NA,NA
b6eb3,shallow,flow.Sequence,5_0_0_0_1_1,NA,NA,skipped,NA,848371.3,NA,NA,848370,848371.4,2024-04-15T15:25:40Z,848386.7,NULL,Flexibilität,kubadilika,d,NA,NA,NA,NA,sdf,NA,0,NA,NA,NA,NA,NA,NA,NA,NA,NA,NA,NA,NA,NA,NA,NA,NA,NA,NA,NA
b6eb3,task,flow.Sequence,5_0_0_0_1,NA,NA,completion,7945.2,840409.6,840408.1,840424.8,848370,848371.5,2024-04-15T15:25:40Z,848386.7,NULL,Flexibilität,kubadilika,d,NA,NA,NA,NA,sdf,NA,0,NA,NA,NA,NA,NA,NA,NA,NA,NA,NA,NA,NA,NA,NA,NA,NA,NA,NA,NA
b6eb3,Deep Question,html.Page,5_0_0_0_2_0_0,NA,NA,form submission,3098.1000000003,848371.7,848370,848386.7,851484.8,851485.1,2024-04-15T15:25:43Z,851501.7,NULL,Abrechnung,uhasibu,d,NA,NA,NA,fdgdf,NA,NA,0,NA,NA,NA,NA,NA,NA,NA,NA,NA,NA,NA,NA,NA,NA,NA,NA,NA,NA,NA
b6eb3,"""Richtig""-Screen",canvas.Screen,5_0_0_0_2_0_1,NA,NA,skipped,NA,851488.2,NA,NA,851484.8,851488.3,2024-04-15T15:25:43Z,851501.7,NULL,Abrechnung,uhasibu,d,NA,NA,NA,NA,sdf,NA,0,NA,NA,NA,NA,NA,NA,NA,NA,NA,NA,NA,NA,NA,NA,NA,NA,NA,NA,NA
b6eb3,"""Falsch""-Screen",canvas.Screen,5_0_0_0_2_0_2,NA,NA,timeout,4996.7000000001,851488.9,851484.43,851501.7,856481.8,856482.3,2024-04-15T15:25:48Z,856498.4,NULL,Abrechnung,uhasibu,d,NA,NA,NA,NA,sdf,0,0,NA,NA,NA,NA,NA,NA,NA,NA,NA,NA,NA,NA,NA,NA,NA,NA,NA,NA,NA
b6eb3,deep,flow.Sequence,5_0_0_0_2_0,NA,NA,completion,8095.1000000001,848371.7,848370,848386.7,856481.8,856482.4,2024-04-15T15:25:48Z,856498.4,NULL,Abrechnung,uhasibu,d,NA,NA,NA,NA,sdf,NA,0,NA,NA,NA,NA,NA,NA,NA,NA,NA,NA,NA,NA,NA,NA,NA,NA,NA,NA,NA
b6eb3,shallow,flow.Sequence,5_0_0_0_2_1,NA,NA,skipped,NA,856482.5,NA,NA,856481.8,856482.5,2024-04-15T15:25:48Z,856498.4,NULL,Abrechnung,uhasibu,d,NA,NA,NA,NA,sdf,NA,0,NA,NA,NA,NA,NA,NA,NA,NA,NA,NA,NA,NA,NA,NA,NA,NA,NA,NA,NA
b6eb3,task,flow.Sequence,5_0_0_0_2,NA,NA,completion,8095.1000000001,848371.7,848370,848386.7,856481.8,856482.6,2024-04-15T15:25:48Z,856498.4,NULL,Abrechnung,uhasibu,d,NA,NA,NA,NA,sdf,NA,0,NA,NA,NA,NA,NA,NA,NA,NA,NA,NA,NA,NA,NA,NA,NA,NA,NA,NA,NA
b6eb3,Deep Question,html.Page,5_0_0_0_3_0_0,NA,NA,form submission,2842.8000000002,856482.6,856481.8,856498.4,859341.2,859341.5,2024-04-15T15:25:51Z,859346.696,NULL,Kanzler,diwani,d,NA,NA,NA,dfgfdg,NA,NA,0,NA,NA,NA,NA,NA,NA,NA,NA,NA,NA,NA,NA,NA,NA,NA,NA,NA,NA,NA
