observation,sender,sender_type,sender_id,response,response_action,ended_on,duration,time_run,time_render,time_show,time_end,time_commit,timestamp,time_switch,german,swahili,enc,distractor1,distractor2,distractor3,response_2,x,correct,distractors,url_vp,url_sess,meta_labjs_version,meta_location,meta_user_agent,meta_platform,meta_language,meta_locale,meta_time_zone,meta_timezone_offset,meta_screen_width,meta_screen_height,meta_scroll_width,meta_scroll_height,meta_window_inner_width,meta_window_inner_height,meta_device_pixel_ratio,meta_labjs_build_flavor,meta_labjs_build_commit
252de,Introduction delayed retrieval,canvas.Screen,0,weiter,keypress(Space),response,1954.16,1137,1137.18,1153.84,3108,3120,2023-06-22T05:36:32Z,3121.16,NA,NA,NA,NA,NA,NA,NA,NA,NA,NULL,218,4,20.2.4,https://neurocog.fernuni.ch/studies/vweber/sfink/delayed%202/index.html?vp=218&sess=4,Mozilla/5.0 (Windows NT 10.0; Win64; x64; rv:109.0) Gecko/20100101 Firefox/114.0,Win32,de,de-CH,Europe/Zurich,-120,1280,720,1280,531,1280,531,1.5,production,f5b4a49f956347addd546a832a3327688c2c0fef
252de,Deep Question,html.Page,1_0_0_0,NA,NA,form submission,30947.84,3120,3120.8,3121.16,34069,34071,2023-06-22T05:37:03Z,34076.82,Ergänzung,kijalizo,s,ulaghai,mustarehe,matangazo,funubur,NA,NA,NULL,NA,NA,NA,NA,NA,NA,NA,NA,NA,NA,NA,NA,NA,NA,NA,NA,NA,NA,NA
252de,Save data screen,canvas.Screen,1_0_0_1,NA,NA,timeout,499.74,34080,34067.22,34076.82,34559.92,34562,2023-06-22T05:37:04Z,34576.56,Ergänzung,kijalizo,s,ulaghai,mustarehe,matangazo,NA,NA,0,NULL,NA,NA,NA,NA,NA,NA,NA,NA,NA,NA,NA,NA,NA,NA,NA,NA,NA,NA,NA
252de,deep,flow.Sequence,1_0_0,NA,NA,completion,31438.76,3120,3120.8,3121.16,34559.92,34563,2023-06-22T05:37:04Z,34576.56,Ergänzung,kijalizo,s,ulaghai,mustarehe,matangazo,NA,NA,NA,NULL,NA,NA,NA,NA,NA,NA,NA,NA,NA,NA,NA,NA,NA,NA,NA,NA,NA,NA,NA
252de,task,flow.Sequence,1_0,NA,NA,completion,31438.76,3120,3120.8,3121.16,34559.92,34564,2023-06-22T05:37:04Z,34576.56,Ergänzung,kijalizo,s,ulaghai,mustarehe,matangazo,NA,NA,NA,NULL,NA,NA,NA,NA,NA,NA,NA,NA,NA,NA,NA,NA,NA,NA,NA,NA,NA,NA,NA
252de,Deep Question,html.Page,1_1_0_0,NA,NA,form submission,11575.44,34565,34559.92,34576.56,46152,46153,2023-06-22T05:37:15Z,46166.9,Inhalt,yaliyomo,d,kishawishi,hifadhi,kutembea,elibi,NA,NA,NULL,NA,NA,NA,NA,NA,NA,NA,NA,NA,NA,NA,NA,NA,NA,NA,NA,NA,NA,NA
252de,Save data screen,canvas.Screen,1_1_0_1,NA,NA,timeout,499.58,46155,46151.6,46166.9,46649.86,46652,2023-06-22T05:37:16Z,46666.48,Inhalt,yaliyomo,d,kishawishi,hifadhi,kutembea,NA,NA,0,NULL,NA,NA,NA,NA,NA,NA,NA,NA,NA,NA,NA,NA,NA,NA,NA,NA,NA,NA,NA
252de,deep,flow.Sequence,1_1_0,NA,NA,completion,12073.3,34565,34559.92,34576.56,46649.86,46652,2023-06-22T05:37:16Z,46666.48,Inhalt,yaliyomo,d,kishawishi,hifadhi,kutembea,NA,NA,NA,NULL,NA,NA,NA,NA,NA,NA,NA,NA,NA,NA,NA,NA,NA,NA,NA,NA,NA,NA,NA
252de,task,flow.Sequence,1_1,NA,NA,completion,12073.3,34564,34559.92,34576.56,46649.86,46653,2023-06-22T05:37:16Z,46666.48,Inhalt,yaliyomo,d,kishawishi,hifadhi,kutembea,NA,NA,NA,NULL,NA,NA,NA,NA,NA,NA,NA,NA,NA,NA,NA,NA,NA,NA,NA,NA,NA,NA,NA
252de,Deep Question,html.Page,1_2_0_0,NA,NA,form submission,6794.52,46654,46649.86,46666.48,53461,53461,2023-06-22T05:37:23Z,53460.86,Vergnügen,kichekesho,d,dubwana,mpanuko,mtesaji,adharba,NA,NA,NULL,NA,NA,NA,NA,NA,NA,NA,NA,NA,NA,NA,NA,NA,NA,NA,NA,NA,NA,NA
252de,Save data screen,canvas.Screen,1_2_0_1,NA,NA,timeout,499.6,53463,53460.68,53460.86,53943.82,53945,2023-06-22T05:37:23Z,53960.46,Vergnügen,kichekesho,d,dubwana,mpanuko,mtesaji,NA,NA,0,NULL,NA,NA,NA,NA,NA,NA,NA,NA,NA,NA,NA,NA,NA,NA,NA,NA,NA,NA,NA
252de,deep,flow.Sequence,1_2_0,NA,NA,completion,7277.34,46654,46649.86,46666.48,53943.82,53945,2023-06-22T05:37:23Z,53960.46,Vergnügen,kichekesho,d,dubwana,mpanuko,mtesaji,NA,NA,NA,NULL,NA,NA,NA,NA,NA,NA,NA,NA,NA,NA,NA,NA,NA,NA,NA,NA,NA,NA,NA
252de,task,flow.Sequence,1_2,NA,NA,completion,7277.34,46654,46649.86,46666.48,53943.82,53945,2023-06-22T05:37:23Z,53960.46,Vergnügen,kichekesho,d,dubwana,mpanuko,mtesaji,NA,NA,NA,NULL,NA,NA,NA,NA,NA,NA,NA,NA,NA,NA,NA,NA,NA,NA,NA,NA,NA,NA,NA
252de,Deep Question,html.Page,1_3_0_0,NA,NA,form submission,6993.54,53946,53943.82,53960.46,60954,60954,2023-06-22T05:37:30Z,60954.78,Verpackung,ufungaji,d,uhusiano,upimaji,uchunguzi,umibando,NA,NA,NULL,NA,NA,NA,NA,NA,NA,NA,NA,NA,NA,NA,NA,NA,NA,NA,NA,NA,NA,NA
252de,Save data screen,canvas.Screen,1_3_0_1,NA,NA,timeout,499.56,60956,60953.68,60954.78,61437.78,61439,2023-06-22T05:37:31Z,61454.34,Verpackung,ufungaji,d,uhusiano,upimaji,uchunguzi,NA,NA,0,NULL,NA,NA,NA,NA,NA,NA,NA,NA,NA,NA,NA,NA,NA,NA,NA,NA,NA,NA,NA
252de,deep,flow.Sequence,1_3_0,NA,NA,completion,7477.32,53946,53943.82,53960.46,61437.78,61440,2023-06-22T05:37:31Z,61454.34,Verpackung,ufungaji,d,uhusiano,upimaji,uchunguzi,NA,NA,NA,NULL,NA,NA,NA,NA,NA,NA,NA,NA,NA,NA,NA,NA,NA,NA,NA,NA,NA,NA,NA
252de,task,flow.Sequence,1_3,NA,NA,completion,7477.32,53946,53943.82,53960.46,61437.78,61440,2023-06-22T05:37:31Z,61454.34,Verpackung,ufungaji,d,uhusiano,upimaji,uchunguzi,NA,NA,NA,NULL,NA,NA,NA,NA,NA,NA,NA,NA,NA,NA,NA,NA,NA,NA,NA,NA,NA,NA,NA
252de,Deep Question,html.Page,1_4_0_0,NA,NA,form submission,14408.66,61442,61437.78,61454.34,75863,75865,2023-06-22T05:37:45Z,75875.78,Schüler,mwanafunzi,d,mwekezaji,matumizi,uaminifu,wandafunzi,NA,NA,NULL,NA,NA,NA,NA,NA,NA,NA,NA,NA,NA,NA,NA,NA,NA,NA,NA,NA,NA,NA
252de,Save data screen,canvas.Screen,1_4_0_1,NA,NA,timeout,499.58,75869,75861.7,75875.78,76358.7,76360,2023-06-22T05:37:45Z,76375.36,Schüler,mwanafunzi,d,mwekezaji,matumizi,uaminifu,NA,NA,0,NULL,NA,NA,NA,NA,NA,NA,NA,NA,NA,NA,NA,NA,NA,NA,NA,NA,NA,NA,NA
252de,deep,flow.Sequence,1_4_0,NA,NA,completion,14904.36,61441,61437.78,61454.34,76358.7,76360,2023-06-22T05:37:45Z,76375.36,Schüler,mwanafunzi,d,mwekezaji,matumizi,uaminifu,NA,NA,NA,NULL,NA,NA,NA,NA,NA,NA,NA,NA,NA,NA,NA,NA,NA,NA,NA,NA,NA,NA,NA
252de,task,flow.Sequence,1_4,NA,NA,completion,14904.36,61440,61437.78,61454.34,76358.7,76360,2023-06-22T05:37:45Z,76375.36,Schüler,mwanafunzi,d,mwekezaji,matumizi,uaminifu,NA,NA,NA,NULL,NA,NA,NA,NA,NA,NA,NA,NA,NA,NA,NA,NA,NA,NA,NA,NA,NA,NA,NA
252de,Deep Question,html.Page,1_5_0_0,NA,NA,form submission,11537.64,76361,76358.7,76375.36,87913,87914,2023-06-22T05:37:57Z,87915.94,Hoffnung,matarajio,d,kutaalamika,uratibu,mvumbuzi,urekesi,NA,NA,NULL,NA,NA,NA,NA,NA,NA,NA,NA,NA,NA,NA,NA,NA,NA,NA,NA,NA,NA,NA
252de,Save data screen,canvas.Screen,1_5_0_1,NA,NA,timeout,499.56,87915,87913.14,87915.94,88398.86,88401,2023-06-22T05:37:58Z,88415.5,Hoffnung,matarajio,d,kutaalamika,uratibu,mvumbuzi,NA,NA,0,NULL,NA,NA,NA,NA,NA,NA,NA,NA,NA,NA,NA,NA,NA,NA,NA,NA,NA,NA,NA
252de,deep,flow.Sequence,1_5_0,NA,NA,completion,12023.5,76361,76358.7,76375.36,88398.86,88402,2023-06-22T05:37:58Z,88415.5,Hoffnung,matarajio,d,kutaalamika,uratibu,mvumbuzi,NA,NA,NA,NULL,NA,NA,NA,NA,NA,NA,NA,NA,NA,NA,NA,NA,NA,NA,NA,NA,NA,NA,NA
252de,task,flow.Sequence,1_5,NA,NA,completion,12023.5,76361,76358.7,76375.36,88398.86,88402,2023-06-22T05:37:58Z,88415.5,Hoffnung,matarajio,d,kutaalamika,uratibu,mvumbuzi,NA,NA,NA,NULL,NA,NA,NA,NA,NA,NA,NA,NA,NA,NA,NA,NA,NA,NA,NA,NA,NA,NA,NA
252de,Deep Question,html.Page,1_6_0_0,NA,NA,form submission,5527.5,88403,88398.86,88415.5,93943,93943,2023-06-22T05:38:03Z,93944.32,Fenster,dirisha,s,walakini,tasawari,maarifa,eribi,NA,NA,NULL,NA,NA,NA,NA,NA,NA,NA,NA,NA,NA,NA,NA,NA,NA,NA,NA,NA,NA,NA
252de,Save data screen,canvas.Screen,1_6_0_1,NA,NA,timeout,499.62,93945,93942.34,93944.32,94427.28,94428,2023-06-22T05:38:04Z,94443.94,Fenster,dirisha,s,walakini,tasawari,maarifa,NA,NA,0,NULL,NA,NA,NA,NA,NA,NA,NA,NA,NA,NA,NA,NA,NA,NA,NA,NA,NA,NA,NA
252de,deep,flow.Sequence,1_6_0,NA,NA,completion,6011.78,88403,88398.86,88415.5,94427.28,94429,2023-06-22T05:38:04Z,94443.94,Fenster,dirisha,s,walakini,tasawari,maarifa,NA,NA,NA,NULL,NA,NA,NA,NA,NA,NA,NA,NA,NA,NA,NA,NA,NA,NA,NA,NA,NA,NA,NA
252de,task,flow.Sequence,1_6,NA,NA,completion,6011.78,88403,88398.86,88415.5,94427.28,94429,2023-06-22T05:38:04Z,94443.94,Fenster,dirisha,s,walakini,tasawari,maarifa,NA,NA,NA,NULL,NA,NA,NA,NA,NA,NA,NA,NA,NA,NA,NA,NA,NA,NA,NA,NA,NA,NA,NA
252de,Deep Question,html.Page,1_7_0_0,NA,NA,form submission,3054.06,94430,94427.28,94443.94,97498,97499,2023-06-22T05:38:07Z,97507.94,Vermutung,udhanifu,d,haramia,tikisho,itifaki,mgbkgi,NA,NA,NULL,NA,NA,NA,NA,NA,NA,NA,NA,NA,NA,NA,NA,NA,NA,NA,NA,NA,NA,NA
252de,Save data screen,canvas.Screen,1_7_0_1,NA,NA,timeout,499.7,97499,97497.78,97507.94,97990.98,97992,2023-06-22T05:38:07Z,98007.64,Vermutung,udhanifu,d,haramia,tikisho,itifaki,NA,NA,0,NULL,NA,NA,NA,NA,NA,NA,NA,NA,NA,NA,NA,NA,NA,NA,NA,NA,NA,NA,NA
252de,deep,flow.Sequence,1_7_0,NA,NA,completion,3547.04,94430,94427.28,94443.94,97990.98,97992,2023-06-22T05:38:07Z,98007.64,Vermutung,udhanifu,d,haramia,tikisho,itifaki,NA,NA,NA,NULL,NA,NA,NA,NA,NA,NA,NA,NA,NA,NA,NA,NA,NA,NA,NA,NA,NA,NA,NA
252de,task,flow.Sequence,1_7,NA,NA,completion,3547.04,94429,94427.28,94443.94,97990.98,97992,2023-06-22T05:38:07Z,98007.64,Vermutung,udhanifu,d,haramia,tikisho,itifaki,NA,NA,NA,NULL,NA,NA,NA,NA,NA,NA,NA,NA,NA,NA,NA,NA,NA,NA,NA,NA,NA,NA,NA
252de,Deep Question,html.Page,1_8_0_0,NA,NA,form submission,4193.36,97993,97990.98,98007.64,102201,102201,2023-06-22T05:38:11Z,102204.08,Wohlstand,mafanikio,s,chimbuko,kumbuko,mapwaji,zukhjo,NA,NA,NULL,NA,NA,NA,NA,NA,NA,NA,NA,NA,NA,NA,NA,NA,NA,NA,NA,NA,NA,NA
252de,Save data screen,canvas.Screen,1_8_0_1,NA,NA,timeout,499.67999999999,102202,102200.2,102204.08,102687.12,102688,2023-06-22T05:38:12Z,102703.76,Wohlstand,mafanikio,s,chimbuko,kumbuko,mapwaji,NA,NA,0,NULL,NA,NA,NA,NA,NA,NA,NA,NA,NA,NA,NA,NA,NA,NA,NA,NA,NA,NA,NA
252de,deep,flow.Sequence,1_8_0,NA,NA,completion,4679.48,97993,97990.98,98007.64,102687.12,102689,2023-06-22T05:38:12Z,102703.76,Wohlstand,mafanikio,s,chimbuko,kumbuko,mapwaji,NA,NA,NA,NULL,NA,NA,NA,NA,NA,NA,NA,NA,NA,NA,NA,NA,NA,NA,NA,NA,NA,NA,NA
252de,task,flow.Sequence,1_8,NA,NA,completion,4679.48,97993,97990.98,98007.64,102687.12,102689,2023-06-22T05:38:12Z,102703.76,Wohlstand,mafanikio,s,chimbuko,kumbuko,mapwaji,NA,NA,NA,NULL,NA,NA,NA,NA,NA,NA,NA,NA,NA,NA,NA,NA,NA,NA,NA,NA,NA,NA,NA
252de,Deep Question,html.Page,1_9_0_0,NA,NA,form submission,8913.24,102690,102687.12,102703.76,111617,111617,2023-06-22T05:38:21Z,111629.8,Notfall,dharura,d,rairai,malalamiko,ahueni,bunroi,NA,NA,NULL,NA,NA,NA,NA,NA,NA,NA,NA,NA,NA,NA,NA,NA,NA,NA,NA,NA,NA,NA
252de,Save data screen,canvas.Screen,1_9_0_1,NA,NA,timeout,499.86,111619,111616.5,111629.8,112113,112115,2023-06-22T05:38:21Z,112129.66,Notfall,dharura,d,rairai,malalamiko,ahueni,NA,NA,0,NULL,NA,NA,NA,NA,NA,NA,NA,NA,NA,NA,NA,NA,NA,NA,NA,NA,NA,NA,NA
252de,deep,flow.Sequence,1_9_0,NA,NA,completion,9409.24,102690,102687.12,102703.76,112113,112116,2023-06-22T05:38:21Z,112129.66,Notfall,dharura,d,rairai,malalamiko,ahueni,NA,NA,NA,NULL,NA,NA,NA,NA,NA,NA,NA,NA,NA,NA,NA,NA,NA,NA,NA,NA,NA,NA,NA
252de,task,flow.Sequence,1_9,NA,NA,completion,9409.24,102690,102687.12,102703.76,112113,112116,2023-06-22T05:38:21Z,112129.66,Notfall,dharura,d,rairai,malalamiko,ahueni,NA,NA,NA,NULL,NA,NA,NA,NA,NA,NA,NA,NA,NA,NA,NA,NA,NA,NA,NA,NA,NA,NA,NA
252de,Deep Question,html.Page,1_10_0_0,NA,NA,form submission,7763.34,112117,112113,112129.66,119893,119894,2023-06-22T05:38:29Z,119893.14,Spionage,upelelezi,s,maslahi,utokazo,magangao,fur,NA,NA,NULL,NA,NA,NA,NA,NA,NA,NA,NA,NA,NA,NA,NA,NA,NA,NA,NA,NA,NA,NA
252de,Save data screen,canvas.Screen,1_10_0_1,NA,NA,timeout,496.10000000001,119896,119892.78,119893.14,120372.6,120375,2023-06-22T05:38:29Z,120389.24,Spionage,upelelezi,s,maslahi,utokazo,magangao,NA,NA,0,NULL,NA,NA,NA,NA,NA,NA,NA,NA,NA,NA,NA,NA,NA,NA,NA,NA,NA,NA,NA
252de,deep,flow.Sequence,1_10_0,NA,NA,completion,8242.94,112117,112113,112129.66,120372.6,120375,2023-06-22T05:38:29Z,120389.24,Spionage,upelelezi,s,maslahi,utokazo,magangao,NA,NA,NA,NULL,NA,NA,NA,NA,NA,NA,NA,NA,NA,NA,NA,NA,NA,NA,NA,NA,NA,NA,NA
252de,task,flow.Sequence,1_10,NA,NA,completion,8242.94,112117,112113,112129.66,120372.6,120376,2023-06-22T05:38:30Z,120389.24,Spionage,upelelezi,s,maslahi,utokazo,magangao,NA,NA,NA,NULL,NA,NA,NA,NA,NA,NA,NA,NA,NA,NA,NA,NA,NA,NA,NA,NA,NA,NA,NA
252de,Deep Question,html.Page,1_11_0_0,NA,NA,form submission,2936.76,120377,120372.6,120389.24,123326,123326,2023-06-22T05:38:32Z,123336.88,Schock,mshtuko,s,biashara,kukataza,vichekesho,nkhoj,NA,NA,NULL,NA,NA,NA,NA,NA,NA,NA,NA,NA,NA,NA,NA,NA,NA,NA,NA,NA,NA,NA
252de,Save data screen,canvas.Screen,1_11_0_1,NA,NA,timeout,499.44,123328,123324.68,123336.88,123819.68,123821,2023-06-22T05:38:33Z,123836.32,Schock,mshtuko,s,biashara,kukataza,vichekesho,NA,NA,0,NULL,NA,NA,NA,NA,NA,NA,NA,NA,NA,NA,NA,NA,NA,NA,NA,NA,NA,NA,NA
252de,deep,flow.Sequence,1_11_0,NA,NA,completion,3430.44,120376,120372.6,120389.24,123819.68,123821,2023-06-22T05:38:33Z,123836.32,Schock,mshtuko,s,biashara,kukataza,vichekesho,NA,NA,NA,NULL,NA,NA,NA,NA,NA,NA,NA,NA,NA,NA,NA,NA,NA,NA,NA,NA,NA,NA,NA
252de,task,flow.Sequence,1_11,NA,NA,completion,3430.44,120376,120372.6,120389.24,123819.68,123821,2023-06-22T05:38:33Z,123836.32,Schock,mshtuko,s,biashara,kukataza,vichekesho,NA,NA,NA,NULL,NA,NA,NA,NA,NA,NA,NA,NA,NA,NA,NA,NA,NA,NA,NA,NA,NA,NA,NA
252de,Deep Question,html.Page,1_12_0_0,NA,NA,form submission,4913.68,123821,123819.68,123836.32,128750,128750,2023-06-22T05:38:38Z,128749.98,Tester,wanaojaribu,d,sherti,sihiri,mlipuko,cjvgn,NA,NA,NULL,NA,NA,NA,NA,NA,NA,NA,NA,NA,NA,NA,NA,NA,NA,NA,NA,NA,NA,NA
252de,Save data screen,canvas.Screen,1_12_0_1,NA,NA,timeout,498.58,128752,128749.66,128749.98,129231.92,129234,2023-06-22T05:38:38Z,129248.56,Tester,wanaojaribu,d,sherti,sihiri,mlipuko,NA,NA,0,NULL,NA,NA,NA,NA,NA,NA,NA,NA,NA,NA,NA,NA,NA,NA,NA,NA,NA,NA,NA
252de,deep,flow.Sequence,1_12_0,NA,NA,completion,5395.6,123821,123819.68,123836.32,129231.92,129235,2023-06-22T05:38:38Z,129248.56,Tester,wanaojaribu,d,sherti,sihiri,mlipuko,NA,NA,NA,NULL,NA,NA,NA,NA,NA,NA,NA,NA,NA,NA,NA,NA,NA,NA,NA,NA,NA,NA,NA
252de,task,flow.Sequence,1_12,NA,NA,completion,5395.6,123821,123819.68,123836.32,129231.92,129235,2023-06-22T05:38:38Z,129248.56,Tester,wanaojaribu,d,sherti,sihiri,mlipuko,NA,NA,NA,NULL,NA,NA,NA,NA,NA,NA,NA,NA,NA,NA,NA,NA,NA,NA,NA,NA,NA,NA,NA
252de,Deep Question,html.Page,1_13_0_0,NA,NA,form submission,7536.44,129236,129231.92,129248.56,136785,136785,2023-06-22T05:38:46Z,136784.84,Schlange,foleni,s,uvumilivu,uteuzi,muuzaji,langoui,NA,NA,NULL,NA,NA,NA,NA,NA,NA,NA,NA,NA,NA,NA,NA,NA,NA,NA,NA,NA,NA,NA
252de,Save data screen,canvas.Screen,1_13_0_1,NA,NA,timeout,507.12,136787,136784.54,136784.84,137275.3,137278,2023-06-22T05:38:46Z,137291.96,Schlange,foleni,s,uvumilivu,uteuzi,muuzaji,NA,NA,0,NULL,NA,NA,NA,NA,NA,NA,NA,NA,NA,NA,NA,NA,NA,NA,NA,NA,NA,NA,NA
252de,deep,flow.Sequence,1_13_0,NA,NA,completion,8026.74,129236,129231.92,129248.56,137275.3,137279,2023-06-22T05:38:46Z,137291.96,Schlange,foleni,s,uvumilivu,uteuzi,muuzaji,NA,NA,NA,NULL,NA,NA,NA,NA,NA,NA,NA,NA,NA,NA,NA,NA,NA,NA,NA,NA,NA,NA,NA
252de,task,flow.Sequence,1_13,NA,NA,completion,8026.74,129236,129231.92,129248.56,137275.3,137279,2023-06-22T05:38:46Z,137291.96,Schlange,foleni,s,uvumilivu,uteuzi,muuzaji,NA,NA,NA,NULL,NA,NA,NA,NA,NA,NA,NA,NA,NA,NA,NA,NA,NA,NA,NA,NA,NA,NA,NA
252de,Deep Question,html.Page,1_14_0_0,NA,NA,form submission,2814.04,137280,137275.3,137291.96,140106,140107,2023-06-22T05:38:49Z,140106.24,Toleranz,kuvumiliana,s,maombolezo,ujasusi,mchekeshaji,bhkgo,NA,NA,NULL,NA,NA,NA,NA,NA,NA,NA,NA,NA,NA,NA,NA,NA,NA,NA,NA,NA,NA,NA
252de,Save data screen,canvas.Screen,1_14_0_1,NA,NA,timeout,499.70000000001,140110,140105.7,140106.24,140589.28,140591,2023-06-22T05:38:50Z,140605.94,Toleranz,kuvumiliana,s,maombolezo,ujasusi,mchekeshaji,NA,NA,0,NULL,NA,NA,NA,NA,NA,NA,NA,NA,NA,NA,NA,NA,NA,NA,NA,NA,NA,NA,NA
252de,deep,flow.Sequence,1_14_0,NA,NA,completion,3297.32,137280,137275.3,137291.96,140589.28,140591,2023-06-22T05:38:50Z,140605.94,Toleranz,kuvumiliana,s,maombolezo,ujasusi,mchekeshaji,NA,NA,NA,NULL,NA,NA,NA,NA,NA,NA,NA,NA,NA,NA,NA,NA,NA,NA,NA,NA,NA,NA,NA
252de,task,flow.Sequence,1_14,NA,NA,completion,3297.32,137279,137275.3,137291.96,140589.28,140591,2023-06-22T05:38:50Z,140605.94,Toleranz,kuvumiliana,s,maombolezo,ujasusi,mchekeshaji,NA,NA,NA,NULL,NA,NA,NA,NA,NA,NA,NA,NA,NA,NA,NA,NA,NA,NA,NA,NA,NA,NA,NA
252de,Deep Question,html.Page,1_15_0_0,NA,NA,form submission,3295.06,140592,140589.28,140605.94,143901,143901,2023-06-22T05:38:53Z,143903.18,Theorie,nadharia,s,ushungi,mkutano,uwakilishi,dofkgjh,NA,NA,NULL,NA,NA,NA,NA,NA,NA,NA,NA,NA,NA,NA,NA,NA,NA,NA,NA,NA,NA,NA
252de,Save data screen,canvas.Screen,1_15_0_1,NA,NA,timeout,499.56,143904,143900.5,143903.18,144386.16,144388,2023-06-22T05:38:54Z,144402.74,Theorie,nadharia,s,ushungi,mkutano,uwakilishi,NA,NA,0,NULL,NA,NA,NA,NA,NA,NA,NA,NA,NA,NA,NA,NA,NA,NA,NA,NA,NA,NA,NA
252de,deep,flow.Sequence,1_15_0,NA,NA,completion,3780.22,140592,140589.28,140605.94,144386.16,144389,2023-06-22T05:38:54Z,144402.74,Theorie,nadharia,s,ushungi,mkutano,uwakilishi,NA,NA,NA,NULL,NA,NA,NA,NA,NA,NA,NA,NA,NA,NA,NA,NA,NA,NA,NA,NA,NA,NA,NA
252de,task,flow.Sequence,1_15,NA,NA,completion,3780.22,140591,140589.28,140605.94,144386.16,144390,2023-06-22T05:38:54Z,144402.74,Theorie,nadharia,s,ushungi,mkutano,uwakilishi,NA,NA,NA,NULL,NA,NA,NA,NA,NA,NA,NA,NA,NA,NA,NA,NA,NA,NA,NA,NA,NA,NA,NA
252de,retrieval block 1 (cued recall),flow.Loop,1,NA,NA,completion,141265,3120,3120.8,3121.16,144386.16,144391,2023-06-22T05:38:54Z,144402.74,NA,NA,NA,NA,NA,NA,NA,NA,NA,NULL,NA,NA,NA,NA,NA,NA,NA,NA,NA,NA,NA,NA,NA,NA,NA,NA,NA,NA,NA
252de,Shallow Question,html.Page,2_0_0_0,NA,NA,form submission,11986.26,144392,144386.16,144402.74,156389,156390,2023-06-22T05:39:06Z,156392.86,Ergänzung,kijalizo,s,ulaghai,mustarehe,matangazo,kijalizo,NA,NA,"c(""distractor1"", ""distractor2"", ""distractor3"")",NA,NA,NA,NA,NA,NA,NA,NA,NA,NA,NA,NA,NA,NA,NA,NA,NA,NA,NA
252de,Save data screen,canvas.Screen,2_0_0_1,NA,NA,timeout,499.74000000002,156391,156387.34,156392.86,156875.94,156878,2023-06-22T05:39:06Z,156892.6,Ergänzung,kijalizo,s,ulaghai,mustarehe,matangazo,NA,NA,1,"c(""distractor1"", ""distractor2"", ""distractor3"")",NA,NA,NA,NA,NA,NA,NA,NA,NA,NA,NA,NA,NA,NA,NA,NA,NA,NA,NA
252de,shallow,flow.Sequence,2_0_0,NA,NA,completion,12473.2,144392,144386.16,144402.74,156875.94,156878,2023-06-22T05:39:06Z,156892.6,Ergänzung,kijalizo,s,ulaghai,mustarehe,matangazo,NA,NA,NA,"c(""distractor1"", ""distractor2"", ""distractor3"")",NA,NA,NA,NA,NA,NA,NA,NA,NA,NA,NA,NA,NA,NA,NA,NA,NA,NA,NA
252de,task,flow.Sequence,2_0,NA,NA,completion,12473.2,144392,144386.16,144402.74,156875.94,156879,2023-06-22T05:39:06Z,156892.6,Ergänzung,kijalizo,s,ulaghai,mustarehe,matangazo,NA,NA,NA,"c(""distractor1"", ""distractor2"", ""distractor3"")",NA,NA,NA,NA,NA,NA,NA,NA,NA,NA,NA,NA,NA,NA,NA,NA,NA,NA,NA
252de,Shallow Question,html.Page,2_1_0_0,NA,NA,form submission,5133.4,156880,156875.94,156892.6,162026,162026,2023-06-22T05:39:11Z,162038.2,Fenster,dirisha,s,walakini,tasawari,maarifa,dirisha,NA,NA,"c(""distractor1"", ""distractor2"", ""distractor3"")",NA,NA,NA,NA,NA,NA,NA,NA,NA,NA,NA,NA,NA,NA,NA,NA,NA,NA,NA
252de,Save data screen,canvas.Screen,2_1_0_1,NA,NA,timeout,499.57999999999,162028,162025.1,162038.2,162521.12,162522,2023-06-22T05:39:12Z,162537.78,Fenster,dirisha,s,walakini,tasawari,maarifa,NA,NA,1,"c(""distractor1"", ""distractor2"", ""distractor3"")",NA,NA,NA,NA,NA,NA,NA,NA,NA,NA,NA,NA,NA,NA,NA,NA,NA,NA,NA
252de,shallow,flow.Sequence,2_1_0,NA,NA,completion,5628.52,156880,156875.94,156892.6,162521.12,162523,2023-06-22T05:39:12Z,162537.78,Fenster,dirisha,s,walakini,tasawari,maarifa,NA,NA,NA,"c(""distractor1"", ""distractor2"", ""distractor3"")",NA,NA,NA,NA,NA,NA,NA,NA,NA,NA,NA,NA,NA,NA,NA,NA,NA,NA,NA
252de,task,flow.Sequence,2_1,NA,NA,completion,5628.52,156880,156875.94,156892.6,162521.12,162523,2023-06-22T05:39:12Z,162537.78,Fenster,dirisha,s,walakini,tasawari,maarifa,NA,NA,NA,"c(""distractor1"", ""distractor2"", ""distractor3"")",NA,NA,NA,NA,NA,NA,NA,NA,NA,NA,NA,NA,NA,NA,NA,NA,NA,NA,NA
252de,Shallow Question,html.Page,2_2_0_0,NA,NA,form submission,5128.22,162523,162521.12,162537.78,167666,167666,2023-06-22T05:39:17Z,167666.94,Inhalt,yaliyomo,d,kishawishi,hifadhi,kutembea,yaliyomo,NA,NA,"c(""distractor1"", ""distractor2"", ""distractor3"")",NA,NA,NA,NA,NA,NA,NA,NA,NA,NA,NA,NA,NA,NA,NA,NA,NA,NA,NA
252de,Save data screen,canvas.Screen,2_2_0_1,NA,NA,timeout,499.60000000001,167667,167664.38,167666.94,168149.9,168152,2023-06-22T05:39:17Z,168166.54,Inhalt,yaliyomo,d,kishawishi,hifadhi,kutembea,NA,NA,1,"c(""distractor1"", ""distractor2"", ""distractor3"")",NA,NA,NA,NA,NA,NA,NA,NA,NA,NA,NA,NA,NA,NA,NA,NA,NA,NA,NA
252de,shallow,flow.Sequence,2_2_0,NA,NA,completion,5612.12,162523,162521.12,162537.78,168149.9,168152,2023-06-22T05:39:17Z,168166.54,Inhalt,yaliyomo,d,kishawishi,hifadhi,kutembea,NA,NA,NA,"c(""distractor1"", ""distractor2"", ""distractor3"")",NA,NA,NA,NA,NA,NA,NA,NA,NA,NA,NA,NA,NA,NA,NA,NA,NA,NA,NA
252de,task,flow.Sequence,2_2,NA,NA,completion,5612.12,162523,162521.12,162537.78,168149.9,168152,2023-06-22T05:39:17Z,168166.54,Inhalt,yaliyomo,d,kishawishi,hifadhi,kutembea,NA,NA,NA,"c(""distractor1"", ""distractor2"", ""distractor3"")",NA,NA,NA,NA,NA,NA,NA,NA,NA,NA,NA,NA,NA,NA,NA,NA,NA,NA,NA
252de,Shallow Question,html.Page,2_3_0_0,NA,NA,form submission,9699.46,168153,168149.9,168166.54,177866,177867,2023-06-22T05:39:27Z,177875.32,Schock,mshtuko,s,biashara,kukataza,vichekesho,mshtuko,NA,NA,"c(""distractor1"", ""distractor2"", ""distractor3"")",NA,NA,NA,NA,NA,NA,NA,NA,NA,NA,NA,NA,NA,NA,NA,NA,NA,NA,NA
252de,Save data screen,canvas.Screen,2_3_0_1,NA,NA,timeout,499.47999999998,177868,177863.9,177875.32,178358.16,178360,2023-06-22T05:39:27Z,178374.8,Schock,mshtuko,s,biashara,kukataza,vichekesho,NA,NA,1,"c(""distractor1"", ""distractor2"", ""distractor3"")",NA,NA,NA,NA,NA,NA,NA,NA,NA,NA,NA,NA,NA,NA,NA,NA,NA,NA,NA
252de,shallow,flow.Sequence,2_3_0,NA,NA,completion,10191.62,168153,168149.9,168166.54,178358.16,178361,2023-06-22T05:39:27Z,178374.8,Schock,mshtuko,s,biashara,kukataza,vichekesho,NA,NA,NA,"c(""distractor1"", ""distractor2"", ""distractor3"")",NA,NA,NA,NA,NA,NA,NA,NA,NA,NA,NA,NA,NA,NA,NA,NA,NA,NA,NA
252de,task,flow.Sequence,2_3,NA,NA,completion,10191.62,168153,168149.9,168166.54,178358.16,178361,2023-06-22T05:39:27Z,178374.8,Schock,mshtuko,s,biashara,kukataza,vichekesho,NA,NA,NA,"c(""distractor1"", ""distractor2"", ""distractor3"")",NA,NA,NA,NA,NA,NA,NA,NA,NA,NA,NA,NA,NA,NA,NA,NA,NA,NA,NA
252de,Shallow Question,html.Page,2_4_0_0,NA,NA,form submission,4176.2,178362,178358.16,178374.8,182551,182551,2023-06-22T05:39:32Z,182554.66,Tester,wanaojaribu,d,sherti,sihiri,mlipuko,wanaojaribu,NA,NA,"c(""distractor1"", ""distractor2"", ""distractor3"")",NA,NA,NA,NA,NA,NA,NA,NA,NA,NA,NA,NA,NA,NA,NA,NA,NA,NA,NA
252de,Save data screen,canvas.Screen,2_4_0_1,NA,NA,timeout,499.63999999998,182551,182549.94,182554.66,183037.64,183039,2023-06-22T05:39:32Z,183054.3,Tester,wanaojaribu,d,sherti,sihiri,mlipuko,NA,NA,1,"c(""distractor1"", ""distractor2"", ""distractor3"")",NA,NA,NA,NA,NA,NA,NA,NA,NA,NA,NA,NA,NA,NA,NA,NA,NA,NA,NA
252de,shallow,flow.Sequence,2_4_0,NA,NA,completion,4662.84,178362,178358.16,178374.8,183037.64,183040,2023-06-22T05:39:32Z,183054.3,Tester,wanaojaribu,d,sherti,sihiri,mlipuko,NA,NA,NA,"c(""distractor1"", ""distractor2"", ""distractor3"")",NA,NA,NA,NA,NA,NA,NA,NA,NA,NA,NA,NA,NA,NA,NA,NA,NA,NA,NA
252de,task,flow.Sequence,2_4,NA,NA,completion,4662.84,178362,178358.16,178374.8,183037.64,183041,2023-06-22T05:39:32Z,183054.3,Tester,wanaojaribu,d,sherti,sihiri,mlipuko,NA,NA,NA,"c(""distractor1"", ""distractor2"", ""distractor3"")",NA,NA,NA,NA,NA,NA,NA,NA,NA,NA,NA,NA,NA,NA,NA,NA,NA,NA,NA
252de,Shallow Question,html.Page,2_5_0_0,NA,NA,form submission,3767.7,183043,183037.64,183054.3,186822,186822,2023-06-22T05:39:36Z,186834.44,Spionage,upelelezi,s,maslahi,utokazo,magangao,upelelezi,NA,NA,"c(""distractor1"", ""distractor2"", ""distractor3"")",NA,NA,NA,NA,NA,NA,NA,NA,NA,NA,NA,NA,NA,NA,NA,NA,NA,NA,NA
252de,Save data screen,canvas.Screen,2_5_0_1,NA,NA,timeout,499.72,186823,186819.94,186834.44,187317.5,187319,2023-06-22T05:39:36Z,187334.16,Spionage,upelelezi,s,maslahi,utokazo,magangao,NA,NA,1,"c(""distractor1"", ""distractor2"", ""distractor3"")",NA,NA,NA,NA,NA,NA,NA,NA,NA,NA,NA,NA,NA,NA,NA,NA,NA,NA,NA
252de,shallow,flow.Sequence,2_5_0,NA,NA,completion,4263.2,183043,183037.64,183054.3,187317.5,187320,2023-06-22T05:39:36Z,187334.16,Spionage,upelelezi,s,maslahi,utokazo,magangao,NA,NA,NA,"c(""distractor1"", ""distractor2"", ""distractor3"")",NA,NA,NA,NA,NA,NA,NA,NA,NA,NA,NA,NA,NA,NA,NA,NA,NA,NA,NA
252de,task,flow.Sequence,2_5,NA,NA,completion,4263.2,183043,183037.64,183054.3,187317.5,187320,2023-06-22T05:39:36Z,187334.16,Spionage,upelelezi,s,maslahi,utokazo,magangao,NA,NA,NA,"c(""distractor1"", ""distractor2"", ""distractor3"")",NA,NA,NA,NA,NA,NA,NA,NA,NA,NA,NA,NA,NA,NA,NA,NA,NA,NA,NA
252de,Shallow Question,html.Page,2_6_0_0,NA,NA,form submission,4390.84,187321,187317.5,187334.16,191725,191726,2023-06-22T05:39:41Z,191730.38,Vermutung,udhanifu,d,haramia,tikisho,itifaki,udhanifu,NA,NA,"c(""distractor1"", ""distractor2"", ""distractor3"")",NA,NA,NA,NA,NA,NA,NA,NA,NA,NA,NA,NA,NA,NA,NA,NA,NA,NA,NA
252de,Save data screen,canvas.Screen,2_6_0_1,NA,NA,timeout,499.60000000001,191726,191724.38,191730.38,192213.34,192214,2023-06-22T05:39:41Z,192229.98,Vermutung,udhanifu,d,haramia,tikisho,itifaki,NA,NA,1,"c(""distractor1"", ""distractor2"", ""distractor3"")",NA,NA,NA,NA,NA,NA,NA,NA,NA,NA,NA,NA,NA,NA,NA,NA,NA,NA,NA
252de,shallow,flow.Sequence,2_6_0,NA,NA,completion,4879.18,187321,187317.5,187334.16,192213.34,192214,2023-06-22T05:39:41Z,192229.98,Vermutung,udhanifu,d,haramia,tikisho,itifaki,NA,NA,NA,"c(""distractor1"", ""distractor2"", ""distractor3"")",NA,NA,NA,NA,NA,NA,NA,NA,NA,NA,NA,NA,NA,NA,NA,NA,NA,NA,NA
252de,task,flow.Sequence,2_6,NA,NA,completion,4879.18,187321,187317.5,187334.16,192213.34,192214,2023-06-22T05:39:41Z,192229.98,Vermutung,udhanifu,d,haramia,tikisho,itifaki,NA,NA,NA,"c(""distractor1"", ""distractor2"", ""distractor3"")",NA,NA,NA,NA,NA,NA,NA,NA,NA,NA,NA,NA,NA,NA,NA,NA,NA,NA,NA
252de,Shallow Question,html.Page,2_7_0_0,NA,NA,form submission,3532.02,192214,192213.34,192229.98,195762,195762,2023-06-22T05:39:45Z,195777.06,Schüler,mwanafunzi,d,mwekezaji,matumizi,uaminifu,mwanafunzi,NA,NA,"c(""distractor1"", ""distractor2"", ""distractor3"")",NA,NA,NA,NA,NA,NA,NA,NA,NA,NA,NA,NA,NA,NA,NA,NA,NA,NA,NA
252de,Save data screen,canvas.Screen,2_7_0_1,NA,NA,timeout,499.78,195763,195761.28,195777.06,196260.18,196261,2023-06-22T05:39:45Z,196276.84,Schüler,mwanafunzi,d,mwekezaji,matumizi,uaminifu,NA,NA,1,"c(""distractor1"", ""distractor2"", ""distractor3"")",NA,NA,NA,NA,NA,NA,NA,NA,NA,NA,NA,NA,NA,NA,NA,NA,NA,NA,NA
252de,shallow,flow.Sequence,2_7_0,NA,NA,completion,4030.2,192214,192213.34,192229.98,196260.18,196261,2023-06-22T05:39:45Z,196276.84,Schüler,mwanafunzi,d,mwekezaji,matumizi,uaminifu,NA,NA,NA,"c(""distractor1"", ""distractor2"", ""distractor3"")",NA,NA,NA,NA,NA,NA,NA,NA,NA,NA,NA,NA,NA,NA,NA,NA,NA,NA,NA
252de,task,flow.Sequence,2_7,NA,NA,completion,4030.2,192214,192213.34,192229.98,196260.18,196261,2023-06-22T05:39:45Z,196276.84,Schüler,mwanafunzi,d,mwekezaji,matumizi,uaminifu,NA,NA,NA,"c(""distractor1"", ""distractor2"", ""distractor3"")",NA,NA,NA,NA,NA,NA,NA,NA,NA,NA,NA,NA,NA,NA,NA,NA,NA,NA,NA
252de,Shallow Question,html.Page,2_8_0_0,NA,NA,form submission,4307.16,196261,196260.18,196276.84,200584,200585,2023-06-22T05:39:50Z,200589.84,Verpackung,ufungaji,d,uhusiano,upimaji,uchunguzi,ufungaji,NA,NA,"c(""distractor1"", ""distractor2"", ""distractor3"")",NA,NA,NA,NA,NA,NA,NA,NA,NA,NA,NA,NA,NA,NA,NA,NA,NA,NA,NA
252de,Save data screen,canvas.Screen,2_8_0_1,NA,NA,timeout,499.56,200590,200581.52,200589.84,201072.76,201073,2023-06-22T05:39:50Z,201089.4,Verpackung,ufungaji,d,uhusiano,upimaji,uchunguzi,NA,NA,1,"c(""distractor1"", ""distractor2"", ""distractor3"")",NA,NA,NA,NA,NA,NA,NA,NA,NA,NA,NA,NA,NA,NA,NA,NA,NA,NA,NA
252de,shallow,flow.Sequence,2_8_0,NA,NA,completion,4795.92,196261,196260.18,196276.84,201072.76,201073,2023-06-22T05:39:50Z,201089.4,Verpackung,ufungaji,d,uhusiano,upimaji,uchunguzi,NA,NA,NA,"c(""distractor1"", ""distractor2"", ""distractor3"")",NA,NA,NA,NA,NA,NA,NA,NA,NA,NA,NA,NA,NA,NA,NA,NA,NA,NA,NA
252de,task,flow.Sequence,2_8,NA,NA,completion,4795.92,196261,196260.18,196276.84,201072.76,201074,2023-06-22T05:39:50Z,201089.4,Verpackung,ufungaji,d,uhusiano,upimaji,uchunguzi,NA,NA,NA,"c(""distractor1"", ""distractor2"", ""distractor3"")",NA,NA,NA,NA,NA,NA,NA,NA,NA,NA,NA,NA,NA,NA,NA,NA,NA,NA,NA
252de,Shallow Question,html.Page,2_9_0_0,NA,NA,form submission,5264.6,201074,201072.76,201089.4,206354,206354,2023-06-22T05:39:55Z,206351.72,Theorie,nadharia,s,ushungi,mkutano,uwakilishi,nadharia,NA,NA,"c(""distractor1"", ""distractor2"", ""distractor3"")",NA,NA,NA,NA,NA,NA,NA,NA,NA,NA,NA,NA,NA,NA,NA,NA,NA,NA,NA
252de,Save data screen,canvas.Screen,2_9_0_1,NA,NA,timeout,499.57999999999,206357,206349.7,206351.72,206834.66,206836,2023-06-22T05:39:56Z,206851.3,Theorie,nadharia,s,ushungi,mkutano,uwakilishi,NA,NA,1,"c(""distractor1"", ""distractor2"", ""distractor3"")",NA,NA,NA,NA,NA,NA,NA,NA,NA,NA,NA,NA,NA,NA,NA,NA,NA,NA,NA
252de,shallow,flow.Sequence,2_9_0,NA,NA,completion,5745.26,201074,201072.76,201089.4,206834.66,206836,2023-06-22T05:39:56Z,206851.3,Theorie,nadharia,s,ushungi,mkutano,uwakilishi,NA,NA,NA,"c(""distractor1"", ""distractor2"", ""distractor3"")",NA,NA,NA,NA,NA,NA,NA,NA,NA,NA,NA,NA,NA,NA,NA,NA,NA,NA,NA
252de,task,flow.Sequence,2_9,NA,NA,completion,5745.26,201074,201072.76,201089.4,206834.66,206836,2023-06-22T05:39:56Z,206851.3,Theorie,nadharia,s,ushungi,mkutano,uwakilishi,NA,NA,NA,"c(""distractor1"", ""distractor2"", ""distractor3"")",NA,NA,NA,NA,NA,NA,NA,NA,NA,NA,NA,NA,NA,NA,NA,NA,NA,NA,NA
252de,Shallow Question,html.Page,2_10_0_0,NA,NA,form submission,16864.7,206836,206834.66,206851.3,223716,223716,2023-06-22T05:40:13Z,223720.72,Toleranz,kuvumiliana,s,maombolezo,ujasusi,mchekeshaji,maombolezo,NA,NA,"c(""distractor1"", ""distractor2"", ""distractor3"")",NA,NA,NA,NA,NA,NA,NA,NA,NA,NA,NA,NA,NA,NA,NA,NA,NA,NA,NA
252de,Save data screen,canvas.Screen,2_10_0_1,NA,NA,timeout,499.63999999998,223717,223715.02,223720.72,224203.7,224204,2023-06-22T05:40:13Z,224220.36,Toleranz,kuvumiliana,s,maombolezo,ujasusi,mchekeshaji,NA,NA,0,"c(""distractor1"", ""distractor2"", ""distractor3"")",NA,NA,NA,NA,NA,NA,NA,NA,NA,NA,NA,NA,NA,NA,NA,NA,NA,NA,NA
252de,shallow,flow.Sequence,2_10_0,NA,NA,completion,17352.4,206836,206834.66,206851.3,224203.7,224205,2023-06-22T05:40:13Z,224220.36,Toleranz,kuvumiliana,s,maombolezo,ujasusi,mchekeshaji,NA,NA,NA,"c(""distractor1"", ""distractor2"", ""distractor3"")",NA,NA,NA,NA,NA,NA,NA,NA,NA,NA,NA,NA,NA,NA,NA,NA,NA,NA,NA
252de,task,flow.Sequence,2_10,NA,NA,completion,17352.4,206836,206834.66,206851.3,224203.7,224205,2023-06-22T05:40:13Z,224220.36,Toleranz,kuvumiliana,s,maombolezo,ujasusi,mchekeshaji,NA,NA,NA,"c(""distractor1"", ""distractor2"", ""distractor3"")",NA,NA,NA,NA,NA,NA,NA,NA,NA,NA,NA,NA,NA,NA,NA,NA,NA,NA,NA
252de,Shallow Question,html.Page,2_11_0_0,NA,NA,form submission,3573.64,224205,224203.7,224220.36,227794,227794,2023-06-22T05:40:17Z,227800.7,Vergnügen,kichekesho,d,dubwana,mpanuko,mtesaji,kichekesho,NA,NA,"c(""distractor1"", ""distractor2"", ""distractor3"")",NA,NA,NA,NA,NA,NA,NA,NA,NA,NA,NA,NA,NA,NA,NA,NA,NA,NA,NA
252de,Save data screen,canvas.Screen,2_11_0_1,NA,NA,timeout,499.63999999998,227795,227792.84,227800.7,228283.68,228284,2023-06-22T05:40:17Z,228300.34,Vergnügen,kichekesho,d,dubwana,mpanuko,mtesaji,NA,NA,1,"c(""distractor1"", ""distractor2"", ""distractor3"")",NA,NA,NA,NA,NA,NA,NA,NA,NA,NA,NA,NA,NA,NA,NA,NA,NA,NA,NA
252de,shallow,flow.Sequence,2_11_0,NA,NA,completion,4063.32,224205,224203.7,224220.36,228283.68,228285,2023-06-22T05:40:17Z,228300.34,Vergnügen,kichekesho,d,dubwana,mpanuko,mtesaji,NA,NA,NA,"c(""distractor1"", ""distractor2"", ""distractor3"")",NA,NA,NA,NA,NA,NA,NA,NA,NA,NA,NA,NA,NA,NA,NA,NA,NA,NA,NA
252de,task,flow.Sequence,2_11,NA,NA,completion,4063.32,224205,224203.7,224220.36,228283.68,228285,2023-06-22T05:40:17Z,228300.34,Vergnügen,kichekesho,d,dubwana,mpanuko,mtesaji,NA,NA,NA,"c(""distractor1"", ""distractor2"", ""distractor3"")",NA,NA,NA,NA,NA,NA,NA,NA,NA,NA,NA,NA,NA,NA,NA,NA,NA,NA,NA
252de,Shallow Question,html.Page,2_12_0_0,NA,NA,form submission,5527.66,228285,228283.68,228300.34,233828,233828,2023-06-22T05:40:23Z,233829.1,Schlange,foleni,s,uvumilivu,uteuzi,muuzaji,foleni,NA,NA,"c(""distractor1"", ""distractor2"", ""distractor3"")",NA,NA,NA,NA,NA,NA,NA,NA,NA,NA,NA,NA,NA,NA,NA,NA,NA,NA,NA
252de,Save data screen,canvas.Screen,2_12_0_1,NA,NA,timeout,499.57999999999,233830,233827.34,233829.1,234312.08,234313,2023-06-22T05:40:23Z,234328.68,Schlange,foleni,s,uvumilivu,uteuzi,muuzaji,NA,NA,1,"c(""distractor1"", ""distractor2"", ""distractor3"")",NA,NA,NA,NA,NA,NA,NA,NA,NA,NA,NA,NA,NA,NA,NA,NA,NA,NA,NA
252de,shallow,flow.Sequence,2_12_0,NA,NA,completion,6011.74,228285,228283.68,228300.34,234312.08,234313,2023-06-22T05:40:23Z,234328.68,Schlange,foleni,s,uvumilivu,uteuzi,muuzaji,NA,NA,NA,"c(""distractor1"", ""distractor2"", ""distractor3"")",NA,NA,NA,NA,NA,NA,NA,NA,NA,NA,NA,NA,NA,NA,NA,NA,NA,NA,NA
252de,task,flow.Sequence,2_12,NA,NA,completion,6011.74,228285,228283.68,228300.34,234312.08,234314,2023-06-22T05:40:23Z,234328.68,Schlange,foleni,s,uvumilivu,uteuzi,muuzaji,NA,NA,NA,"c(""distractor1"", ""distractor2"", ""distractor3"")",NA,NA,NA,NA,NA,NA,NA,NA,NA,NA,NA,NA,NA,NA,NA,NA,NA,NA,NA
252de,Shallow Question,html.Page,2_13_0_0,NA,NA,form submission,8001.32,234314,234312.08,234328.68,242330,242330,2023-06-22T05:40:31Z,242338.76,Hoffnung,matarajio,d,kutaalamika,uratibu,mvumbuzi,matarajio,NA,NA,"c(""distractor1"", ""distractor2"", ""distractor3"")",NA,NA,NA,NA,NA,NA,NA,NA,NA,NA,NA,NA,NA,NA,NA,NA,NA,NA,NA
252de,Save data screen,canvas.Screen,2_13_0_1,NA,NA,timeout,499.59999999998,242331,242328.78,242338.76,242821.76,242823,2023-06-22T05:40:32Z,242838.36,Hoffnung,matarajio,d,kutaalamika,uratibu,mvumbuzi,NA,NA,1,"c(""distractor1"", ""distractor2"", ""distractor3"")",NA,NA,NA,NA,NA,NA,NA,NA,NA,NA,NA,NA,NA,NA,NA,NA,NA,NA,NA
252de,shallow,flow.Sequence,2_13_0,NA,NA,completion,8493.08,234314,234312.08,234328.68,242821.76,242823,2023-06-22T05:40:32Z,242838.36,Hoffnung,matarajio,d,kutaalamika,uratibu,mvumbuzi,NA,NA,NA,"c(""distractor1"", ""distractor2"", ""distractor3"")",NA,NA,NA,NA,NA,NA,NA,NA,NA,NA,NA,NA,NA,NA,NA,NA,NA,NA,NA
252de,task,flow.Sequence,2_13,NA,NA,completion,8493.08,234314,234312.08,234328.68,242821.76,242823,2023-06-22T05:40:32Z,242838.36,Hoffnung,matarajio,d,kutaalamika,uratibu,mvumbuzi,NA,NA,NA,"c(""distractor1"", ""distractor2"", ""distractor3"")",NA,NA,NA,NA,NA,NA,NA,NA,NA,NA,NA,NA,NA,NA,NA,NA,NA,NA,NA
252de,Shallow Question,html.Page,2_14_0_0,NA,NA,form submission,15230.64,242823,242821.76,242838.36,258069,258069,2023-06-22T05:40:47Z,258075.88,Wohlstand,mafanikio,s,chimbuko,kumbuko,mapwaji,mafanikio,NA,NA,"c(""distractor1"", ""distractor2"", ""distractor3"")",NA,NA,NA,NA,NA,NA,NA,NA,NA,NA,NA,NA,NA,NA,NA,NA,NA,NA,NA
252de,Save data screen,canvas.Screen,2_14_0_1,NA,NA,timeout,499.63999999998,258071,258067.62,258075.88,258558.86,258560,2023-06-22T05:40:48Z,258575.52,Wohlstand,mafanikio,s,chimbuko,kumbuko,mapwaji,NA,NA,1,"c(""distractor1"", ""distractor2"", ""distractor3"")",NA,NA,NA,NA,NA,NA,NA,NA,NA,NA,NA,NA,NA,NA,NA,NA,NA,NA,NA
252de,shallow,flow.Sequence,2_14_0,NA,NA,completion,15720.5,242823,242821.76,242838.36,258558.86,258561,2023-06-22T05:40:48Z,258575.52,Wohlstand,mafanikio,s,chimbuko,kumbuko,mapwaji,NA,NA,NA,"c(""distractor1"", ""distractor2"", ""distractor3"")",NA,NA,NA,NA,NA,NA,NA,NA,NA,NA,NA,NA,NA,NA,NA,NA,NA,NA,NA
252de,task,flow.Sequence,2_14,NA,NA,completion,15720.5,242823,242821.76,242838.36,258558.86,258562,2023-06-22T05:40:48Z,258575.52,Wohlstand,mafanikio,s,chimbuko,kumbuko,mapwaji,NA,NA,NA,"c(""distractor1"", ""distractor2"", ""distractor3"")",NA,NA,NA,NA,NA,NA,NA,NA,NA,NA,NA,NA,NA,NA,NA,NA,NA,NA,NA
252de,Shallow Question,html.Page,2_15_0_0,NA,NA,form submission,6001.48,258563,258558.86,258575.52,264577,264578,2023-06-22T05:40:54Z,264587.22,Notfall,dharura,d,rairai,malalamiko,ahueni,dharura,NA,NA,"c(""distractor1"", ""distractor2"", ""distractor3"")",NA,NA,NA,NA,NA,NA,NA,NA,NA,NA,NA,NA,NA,NA,NA,NA,NA,NA,NA
252de,Save data screen,canvas.Screen,2_15_0_1,NA,NA,timeout,499.72000000003,264583,264571.66,264587.22,265070.28,265072,2023-06-22T05:40:54Z,265086.94,Notfall,dharura,d,rairai,malalamiko,ahueni,NA,NA,1,"c(""distractor1"", ""distractor2"", ""distractor3"")",NA,NA,NA,NA,NA,NA,NA,NA,NA,NA,NA,NA,NA,NA,NA,NA,NA,NA,NA
252de,shallow,flow.Sequence,2_15_0,NA,NA,completion,6494.76,258562,258558.86,258575.52,265070.28,265073,2023-06-22T05:40:54Z,265086.94,Notfall,dharura,d,rairai,malalamiko,ahueni,NA,NA,NA,"c(""distractor1"", ""distractor2"", ""distractor3"")",NA,NA,NA,NA,NA,NA,NA,NA,NA,NA,NA,NA,NA,NA,NA,NA,NA,NA,NA
252de,task,flow.Sequence,2_15,NA,NA,completion,6494.76,258562,258558.86,258575.52,265070.28,265073,2023-06-22T05:40:54Z,265086.94,Notfall,dharura,d,rairai,malalamiko,ahueni,NA,NA,NA,"c(""distractor1"", ""distractor2"", ""distractor3"")",NA,NA,NA,NA,NA,NA,NA,NA,NA,NA,NA,NA,NA,NA,NA,NA,NA,NA,NA
252de,retrieval block 2 (multiple choice),flow.Loop,2,NA,NA,completion,120667.54,144392,144386.16,144402.74,265070.28,265073,2023-06-22T05:40:54Z,265086.94,NA,NA,NA,NA,NA,NA,NA,NA,NA,"c(""distractor1"", ""distractor2"", ""distractor3"")",NA,NA,NA,NA,NA,NA,NA,NA,NA,NA,NA,NA,NA,NA,NA,NA,NA,NA,NA
252de,End,canvas.Screen,3,NA,keypress(Space),response,1974.06,265074,265070.28,265086.94,267061,267067,2023-06-22T05:40:56Z,267068.56,NA,NA,NA,NA,NA,NA,NA,NA,NA,NULL,NA,NA,NA,NA,NA,NA,NA,NA,NA,NA,NA,NA,NA,NA,NA,NA,NA,NA,NA
252de,root,flow.Sequence,NA,NA,NA,completion,265907.16,1136,1137.18,1153.84,267061,267068,2023-06-22T05:40:56Z,267068.56,NA,NA,NA,NA,NA,NA,NA,NA,NA,NULL,NA,NA,NA,NA,NA,NA,NA,NA,NA,NA,NA,NA,NA,NA,NA,NA,NA,NA,NA
