observation,sender,sender_type,sender_id,response,response_action,ended_on,duration,time_run,time_render,time_show,time_end,time_commit,timestamp,time_switch,distractors,german,swahili,enc,distractor1,distractor2,distractor3,response_2,x,correct,x_2,url_vp,url_sess,meta_labjs_version,meta_location,meta_user_agent,meta_platform,meta_language,meta_locale,meta_time_zone,meta_timezone_offset,meta_screen_width,meta_screen_height,meta_scroll_width,meta_scroll_height,meta_window_inner_width,meta_window_inner_height,meta_device_pixel_ratio,meta_labjs_build_flavor,meta_labjs_build_commit
bd655,Introduction general,canvas.Screen,0,weiter,keypress(q),response,12078.000000095,403.10000038147,388.658,405.4,12483.400000095,12486.300000191,2024-03-09T08:36:47Z,12488.7,NULL,NA,NA,NA,NA,NA,NA,NA,NA,NA,NA,152,3,20.2.4,https://neurocog.fernuni.ch/studies/vweber/jbaenninger/encoding_immediate/index.html?vp=152&sess=3,"Mozilla/5.0 (Windows NT 10.0; Win64; x64) AppleWebKit/537.36 (KHTML, like Gecko) Chrome/122.0.0.0 Safari/537.36 Edg/122.0.0.0",Win32,de,de-CH,Europe/Zurich,-60,1920,1080,1872,910,1872,958,1,production,f5b4a49f956347addd546a832a3327688c2c0fef
bd655,Introduction practice,canvas.Screen,1_0,NA,keypress(Space),response,4954.3,12486.700000286,12471.584,12488.7,17443,17443.900000095,2024-03-09T08:36:52Z,17455.4,NULL,NA,NA,NA,NA,NA,NA,NA,NA,NA,NA,NA,NA,NA,NA,NA,NA,NA,NA,NA,NA,NA,NA,NA,NA,NA,NA,NA,NA,NA
bd655,deep,flow.Sequence,1_1_0_0,NA,NA,skipped,NA,17444.300000191,NA,NA,17443,17444.600000381,2024-03-09T08:36:52Z,17455.4,"c(""distractor1"", ""distractor2"", ""distractor3"")",Rückhalt,msaada,s,muhula,auwali,kiwimbe,NA,NA,NA,NA,NA,NA,NA,NA,NA,NA,NA,NA,NA,NA,NA,NA,NA,NA,NA,NA,NA,NA,NA
bd655,Shallow Question,html.Page,1_1_0_1_0,NA,NA,form submission,22067.300000286,17445,17439.108,17455.4,39522.700000286,39522.900000095,2024-03-09T08:37:14Z,39540.1,"c(""distractor1"", ""distractor2"", ""distractor3"")",Rückhalt,msaada,s,muhula,auwali,kiwimbe,kiwimbe,NA,NA,NA,NA,NA,NA,NA,NA,NA,NA,NA,NA,NA,NA,NA,NA,NA,NA,NA,NA,NA,NA
bd655,"""Richtig""-Screen",canvas.Screen,1_1_0_1_1,NA,NA,skipped,NA,39524.100000381,NA,NA,39522.700000286,39524.300000191,2024-03-09T08:37:14Z,39540.1,"c(""distractor1"", ""distractor2"", ""distractor3"")",Rückhalt,msaada,s,muhula,auwali,kiwimbe,NA,NA,NA,NA,NA,NA,NA,NA,NA,NA,NA,NA,NA,NA,NA,NA,NA,NA,NA,NA,NA,NA,NA
bd655,"""Falsch""-Screen",canvas.Screen,1_1_0_1_2,NA,NA,timeout,4998.7,39525.100000381,39522.262,39540.1,44522.2,44523.200000286,2024-03-09T08:37:19Z,44538.8,"c(""distractor1"", ""distractor2"", ""distractor3"")",Rückhalt,msaada,s,muhula,auwali,kiwimbe,NA,NA,0,NA,NA,NA,NA,NA,NA,NA,NA,NA,NA,NA,NA,NA,NA,NA,NA,NA,NA,NA,NA
bd655,shallow,flow.Sequence,1_1_0_1,NA,NA,completion,27066.8,17444.900000095,17439.108,17455.4,44522.2,44523.600000381,2024-03-09T08:37:19Z,44538.8,"c(""distractor1"", ""distractor2"", ""distractor3"")",Rückhalt,msaada,s,muhula,auwali,kiwimbe,NA,NA,NA,NA,NA,NA,NA,NA,NA,NA,NA,NA,NA,NA,NA,NA,NA,NA,NA,NA,NA,NA,NA
bd655,task,flow.Sequence,1_1_0,NA,NA,completion,27066.8,17444.300000191,17439.108,17455.4,44522.2,44523.800000191,2024-03-09T08:37:19Z,44538.8,"c(""distractor1"", ""distractor2"", ""distractor3"")",Rückhalt,msaada,s,muhula,auwali,kiwimbe,NA,NA,NA,NA,NA,NA,NA,NA,NA,NA,NA,NA,NA,NA,NA,NA,NA,NA,NA,NA,NA,NA,NA
bd655,Deep Question,html.Page,1_1_1_0_0,NA,NA,form submission,10845.2,44524,44522.2,44538.8,55384,55384.200000286,2024-03-09T08:37:30Z,55388.7,"c(""distractor1"", ""distractor2"", ""distractor3"")",Gesundheit,salama,d,NA,NA,NA,kiwimbe,NA,NA,NA,NA,NA,NA,NA,NA,NA,NA,NA,NA,NA,NA,NA,NA,NA,NA,NA,NA,NA,NA
bd655,"""Richtig""-Screen",canvas.Screen,1_1_1_0_1,NA,NA,skipped,NA,55385.300000191,NA,NA,55384,55385.5,2024-03-09T08:37:30Z,55388.7,"c(""distractor1"", ""distractor2"", ""distractor3"")",Gesundheit,salama,d,NA,NA,NA,NA,NA,NA,NA,NA,NA,NA,NA,NA,NA,NA,NA,NA,NA,NA,NA,NA,NA,NA,NA,NA,NA,NA
bd655,"""Falsch""-Screen",canvas.Screen,1_1_1_0_2,NA,NA,timeout,5000.1,55386.200000286,55372.282,55388.7,60372.1,60372.900000095,2024-03-09T08:37:35Z,60388.8,"c(""distractor1"", ""distractor2"", ""distractor3"")",Gesundheit,salama,d,NA,NA,NA,NA,NA,0,NA,NA,NA,NA,NA,NA,NA,NA,NA,NA,NA,NA,NA,NA,NA,NA,NA,NA,NA,NA
bd655,deep,flow.Sequence,1_1_1_0,NA,NA,completion,15833.3,44524,44522.2,44538.8,60372.1,60373.300000191,2024-03-09T08:37:35Z,60388.8,"c(""distractor1"", ""distractor2"", ""distractor3"")",Gesundheit,salama,d,NA,NA,NA,NA,NA,NA,NA,NA,NA,NA,NA,NA,NA,NA,NA,NA,NA,NA,NA,NA,NA,NA,NA,NA,NA,NA
bd655,shallow,flow.Sequence,1_1_1_1,NA,NA,skipped,NA,60373.400000095,NA,NA,60372.1,60373.600000381,2024-03-09T08:37:35Z,60388.8,"c(""distractor1"", ""distractor2"", ""distractor3"")",Gesundheit,salama,d,NA,NA,NA,NA,NA,NA,NA,NA,NA,NA,NA,NA,NA,NA,NA,NA,NA,NA,NA,NA,NA,NA,NA,NA,NA,NA
bd655,task,flow.Sequence,1_1_1,NA,NA,completion,15833.3,44523.900000095,44522.2,44538.8,60372.1,60373.700000286,2024-03-09T08:37:35Z,60388.8,"c(""distractor1"", ""distractor2"", ""distractor3"")",Gesundheit,salama,d,NA,NA,NA,NA,NA,NA,NA,NA,NA,NA,NA,NA,NA,NA,NA,NA,NA,NA,NA,NA,NA,NA,NA,NA,NA,NA
bd655,Deep Question,html.Page,1_1_2_0_0,NA,NA,form submission,16369.000000191,60373.900000095,60372.1,60388.8,76757.800000191,76758.100000381,2024-03-09T08:37:51Z,76772,"c(""distractor1"", ""distractor2"", ""distractor3"")",Schatten,kivuli,d,NA,NA,NA,kiwimbe,NA,NA,NA,NA,NA,NA,NA,NA,NA,NA,NA,NA,NA,NA,NA,NA,NA,NA,NA,NA,NA,NA
bd655,"""Richtig""-Screen",canvas.Screen,1_1_2_0_1,NA,NA,skipped,NA,76760,NA,NA,76757.800000191,76760.200000286,2024-03-09T08:37:51Z,76772,"c(""distractor1"", ""distractor2"", ""distractor3"")",Schatten,kivuli,d,NA,NA,NA,NA,NA,NA,NA,NA,NA,NA,NA,NA,NA,NA,NA,NA,NA,NA,NA,NA,NA,NA,NA,NA,NA,NA
bd655,"""Falsch""-Screen",canvas.Screen,1_1_2_0_2,NA,NA,timeout,5000.2,76760.900000095,76755.52,76772,81755.5,81756.200000286,2024-03-09T08:37:56Z,81772.2,"c(""distractor1"", ""distractor2"", ""distractor3"")",Schatten,kivuli,d,NA,NA,NA,NA,NA,0,NA,NA,NA,NA,NA,NA,NA,NA,NA,NA,NA,NA,NA,NA,NA,NA,NA,NA,NA,NA
bd655,deep,flow.Sequence,1_1_2_0,NA,NA,completion,21366.7,60373.900000095,60372.1,60388.8,81755.5,81756.600000381,2024-03-09T08:37:56Z,81772.2,"c(""distractor1"", ""distractor2"", ""distractor3"")",Schatten,kivuli,d,NA,NA,NA,NA,NA,NA,NA,NA,NA,NA,NA,NA,NA,NA,NA,NA,NA,NA,NA,NA,NA,NA,NA,NA,NA,NA
bd655,shallow,flow.Sequence,1_1_2_1,NA,NA,skipped,NA,81756.700000286,NA,NA,81755.5,81756.800000191,2024-03-09T08:37:56Z,81772.2,"c(""distractor1"", ""distractor2"", ""distractor3"")",Schatten,kivuli,d,NA,NA,NA,NA,NA,NA,NA,NA,NA,NA,NA,NA,NA,NA,NA,NA,NA,NA,NA,NA,NA,NA,NA,NA,NA,NA
bd655,task,flow.Sequence,1_1_2,NA,NA,completion,21366.7,60373.800000191,60372.1,60388.8,81755.5,81756.900000095,2024-03-09T08:37:56Z,81772.2,"c(""distractor1"", ""distractor2"", ""distractor3"")",Schatten,kivuli,d,NA,NA,NA,NA,NA,NA,NA,NA,NA,NA,NA,NA,NA,NA,NA,NA,NA,NA,NA,NA,NA,NA,NA,NA,NA,NA
bd655,Deep Question,html.Page,1_1_3_0_0,NA,NA,form submission,10388.500000286,81757.100000381,81755.5,81772.2,92160.700000286,92161,2024-03-09T08:38:06Z,92172.1,"c(""distractor1"", ""distractor2"", ""distractor3"")",Qualität,mtindo,d,NA,NA,NA,kiwimbe,NA,NA,NA,NA,NA,NA,NA,NA,NA,NA,NA,NA,NA,NA,NA,NA,NA,NA,NA,NA,NA,NA
bd655,"""Richtig""-Screen",canvas.Screen,1_1_3_0_1,NA,NA,skipped,NA,92162.600000381,NA,NA,92160.700000286,92162.800000191,2024-03-09T08:38:06Z,92172.1,"c(""distractor1"", ""distractor2"", ""distractor3"")",Qualität,mtindo,d,NA,NA,NA,NA,NA,NA,NA,NA,NA,NA,NA,NA,NA,NA,NA,NA,NA,NA,NA,NA,NA,NA,NA,NA,NA,NA
bd655,"""Falsch""-Screen",canvas.Screen,1_1_3_0_2,NA,NA,timeout,5000.1,92163.300000191,92155.5,92172.1,97155.5,97156.200000286,2024-03-09T08:38:11Z,97172.2,"c(""distractor1"", ""distractor2"", ""distractor3"")",Qualität,mtindo,d,NA,NA,NA,NA,NA,0,NA,NA,NA,NA,NA,NA,NA,NA,NA,NA,NA,NA,NA,NA,NA,NA,NA,NA,NA,NA
bd655,deep,flow.Sequence,1_1_3_0,NA,NA,completion,15383.3,81757.100000381,81755.5,81772.2,97155.5,97156.600000381,2024-03-09T08:38:11Z,97172.2,"c(""distractor1"", ""distractor2"", ""distractor3"")",Qualität,mtindo,d,NA,NA,NA,NA,NA,NA,NA,NA,NA,NA,NA,NA,NA,NA,NA,NA,NA,NA,NA,NA,NA,NA,NA,NA,NA,NA
bd655,shallow,flow.Sequence,1_1_3_1,NA,NA,skipped,NA,97156.700000286,NA,NA,97155.5,97156.800000191,2024-03-09T08:38:11Z,97172.2,"c(""distractor1"", ""distractor2"", ""distractor3"")",Qualität,mtindo,d,NA,NA,NA,NA,NA,NA,NA,NA,NA,NA,NA,NA,NA,NA,NA,NA,NA,NA,NA,NA,NA,NA,NA,NA,NA,NA
bd655,task,flow.Sequence,1_1_3,NA,NA,completion,15383.3,81757.100000381,81755.5,81772.2,97155.5,97156.900000095,2024-03-09T08:38:11Z,97172.2,"c(""distractor1"", ""distractor2"", ""distractor3"")",Qualität,mtindo,d,NA,NA,NA,NA,NA,NA,NA,NA,NA,NA,NA,NA,NA,NA,NA,NA,NA,NA,NA,NA,NA,NA,NA,NA,NA,NA
bd655,deep,flow.Sequence,1_1_4_0,NA,NA,skipped,NA,97157.100000381,NA,NA,97155.5,97157.100000381,2024-03-09T08:38:11Z,97172.2,"c(""distractor1"", ""distractor2"", ""distractor3"")",Gegenwart,hadhara,s,katiba,jokofu,mikopo,NA,NA,NA,NA,NA,NA,NA,NA,NA,NA,NA,NA,NA,NA,NA,NA,NA,NA,NA,NA,NA,NA,NA
bd655,Shallow Question,html.Page,1_1_4_1_0,NA,NA,form submission,12220.700000095,97157.200000286,97155.5,97172.2,109392.9000001,109393.10000038,2024-03-09T08:38:24Z,109405.5,"c(""distractor1"", ""distractor2"", ""distractor3"")",Gegenwart,hadhara,s,katiba,jokofu,mikopo,katiba,NA,NA,NA,NA,NA,NA,NA,NA,NA,NA,NA,NA,NA,NA,NA,NA,NA,NA,NA,NA,NA,NA
bd655,"""Richtig""-Screen",canvas.Screen,1_1_4_1_1,NA,NA,skipped,NA,109394.80000019,NA,NA,109392.9000001,109395,2024-03-09T08:38:24Z,109405.5,"c(""distractor1"", ""distractor2"", ""distractor3"")",Gegenwart,hadhara,s,katiba,jokofu,mikopo,NA,NA,NA,NA,NA,NA,NA,NA,NA,NA,NA,NA,NA,NA,NA,NA,NA,NA,NA,NA,NA,NA,NA
bd655,"""Falsch""-Screen",canvas.Screen,1_1_4_1_2,NA,NA,timeout,5000,109395.60000038,109388.83,109405.5,114388.8,114389.5,2024-03-09T08:38:29Z,114405.5,"c(""distractor1"", ""distractor2"", ""distractor3"")",Gegenwart,hadhara,s,katiba,jokofu,mikopo,NA,NA,0,NA,NA,NA,NA,NA,NA,NA,NA,NA,NA,NA,NA,NA,NA,NA,NA,NA,NA,NA,NA
bd655,shallow,flow.Sequence,1_1_4_1,NA,NA,completion,17216.6,97157.200000286,97155.5,97172.2,114388.8,114389.80000019,2024-03-09T08:38:29Z,114405.5,"c(""distractor1"", ""distractor2"", ""distractor3"")",Gegenwart,hadhara,s,katiba,jokofu,mikopo,NA,NA,NA,NA,NA,NA,NA,NA,NA,NA,NA,NA,NA,NA,NA,NA,NA,NA,NA,NA,NA,NA,NA
bd655,task,flow.Sequence,1_1_4,NA,NA,completion,17216.6,97157,97155.5,97172.2,114388.8,114389.9000001,2024-03-09T08:38:29Z,114405.5,"c(""distractor1"", ""distractor2"", ""distractor3"")",Gegenwart,hadhara,s,katiba,jokofu,mikopo,NA,NA,NA,NA,NA,NA,NA,NA,NA,NA,NA,NA,NA,NA,NA,NA,NA,NA,NA,NA,NA,NA,NA
bd655,deep,flow.Sequence,1_1_5_0,NA,NA,skipped,NA,114390.10000038,NA,NA,114388.8,114390.20000029,2024-03-09T08:38:29Z,114405.5,"c(""distractor1"", ""distractor2"", ""distractor3"")",Kritik,lawama,s,dereva,nafasi,mawazo,NA,NA,NA,NA,NA,NA,NA,NA,NA,NA,NA,NA,NA,NA,NA,NA,NA,NA,NA,NA,NA,NA,NA
bd655,Shallow Question,html.Page,1_1_5_1_0,NA,NA,form submission,13829.400000095,114390.30000019,114388.8,114405.5,128234.9000001,128235.10000038,2024-03-09T08:38:42Z,128238.6,"c(""distractor1"", ""distractor2"", ""distractor3"")",Kritik,lawama,s,dereva,nafasi,mawazo,dereva,NA,NA,NA,NA,NA,NA,NA,NA,NA,NA,NA,NA,NA,NA,NA,NA,NA,NA,NA,NA,NA,NA
bd655,"""Richtig""-Screen",canvas.Screen,1_1_5_1_1,NA,NA,skipped,NA,128236.70000029,NA,NA,128234.9000001,128236.80000019,2024-03-09T08:38:42Z,128238.6,"c(""distractor1"", ""distractor2"", ""distractor3"")",Kritik,lawama,s,dereva,nafasi,mawazo,NA,NA,NA,NA,NA,NA,NA,NA,NA,NA,NA,NA,NA,NA,NA,NA,NA,NA,NA,NA,NA,NA,NA
bd655,"""Falsch""-Screen",canvas.Screen,1_1_5_1_2,NA,NA,timeout,5000,128237.4000001,128222.184,128238.6,133222.1,133222.9000001,2024-03-09T08:38:47Z,133238.6,"c(""distractor1"", ""distractor2"", ""distractor3"")",Kritik,lawama,s,dereva,nafasi,mawazo,NA,NA,0,NA,NA,NA,NA,NA,NA,NA,NA,NA,NA,NA,NA,NA,NA,NA,NA,NA,NA,NA,NA
bd655,shallow,flow.Sequence,1_1_5_1,NA,NA,completion,18816.6,114390.30000019,114388.8,114405.5,133222.1,133223.10000038,2024-03-09T08:38:47Z,133238.6,"c(""distractor1"", ""distractor2"", ""distractor3"")",Kritik,lawama,s,dereva,nafasi,mawazo,NA,NA,NA,NA,NA,NA,NA,NA,NA,NA,NA,NA,NA,NA,NA,NA,NA,NA,NA,NA,NA,NA,NA
bd655,task,flow.Sequence,1_1_5,NA,NA,completion,18816.6,114390.10000038,114388.8,114405.5,133222.1,133223.20000029,2024-03-09T08:38:47Z,133238.6,"c(""distractor1"", ""distractor2"", ""distractor3"")",Kritik,lawama,s,dereva,nafasi,mawazo,NA,NA,NA,NA,NA,NA,NA,NA,NA,NA,NA,NA,NA,NA,NA,NA,NA,NA,NA,NA,NA,NA,NA
bd655,block,flow.Loop,1_1,NA,NA,completion,115766.7,17444.200000286,17439.108,17455.4,133222.1,133223.5,2024-03-09T08:38:47Z,133238.6,"c(""distractor1"", ""distractor2"", ""distractor3"")",NA,NA,NA,NA,NA,NA,NA,NA,NA,NA,NA,NA,NA,NA,NA,NA,NA,NA,NA,NA,NA,NA,NA,NA,NA,NA,NA,NA,NA
bd655,Practice,flow.Sequence,1,NA,NA,completion,120733.4,12486.700000286,12471.584,12488.7,133222.1,133223.70000029,2024-03-09T08:38:47Z,133238.6,NULL,NA,NA,NA,NA,NA,NA,NA,NA,NA,NA,NA,NA,NA,NA,NA,NA,NA,NA,NA,NA,NA,NA,NA,NA,NA,NA,NA,NA,NA
bd655,Experiment start,canvas.Screen,2,weiter,keypress(q),response,17360.800000095,133223.80000019,133222.1,133238.6,150599.4000001,150600.30000019,2024-03-09T08:39:05Z,150672.1,NULL,NA,NA,NA,NA,NA,NA,NA,NA,NA,NA,NA,NA,NA,NA,NA,NA,NA,NA,NA,NA,NA,NA,NA,NA,NA,NA,NA,NA,NA
bd655,Deep Question,html.Page,3_0_0_0_0_0_0,NA,NA,form submission,24611.700000191,150685.70000029,150671.962,150672.1,175283.80000019,175284,2024-03-09T08:39:29Z,175288.5,NULL,Wechsel,ugeuzaji,d,NA,NA,NA,katiba,NA,NA,0,NA,NA,NA,NA,NA,NA,NA,NA,NA,NA,NA,NA,NA,NA,NA,NA,NA,NA,NA
bd655,"""Richtig""-Screen",canvas.Screen,3_0_0_0_0_0_1,NA,NA,skipped,NA,175285.70000029,NA,NA,175283.80000019,175285.80000019,2024-03-09T08:39:29Z,175288.5,NULL,Wechsel,ugeuzaji,d,NA,NA,NA,NA,sdf,NA,0,NA,NA,NA,NA,NA,NA,NA,NA,NA,NA,NA,NA,NA,NA,NA,NA,NA,NA,NA
bd655,"""Falsch""-Screen",canvas.Screen,3_0_0_0_0_0_2,NA,NA,timeout,5000.2,175286.30000019,175272.148,175288.5,180272.1,180272.70000029,2024-03-09T08:39:34Z,180288.7,NULL,Wechsel,ugeuzaji,d,NA,NA,NA,NA,sdf,0,0,NA,NA,NA,NA,NA,NA,NA,NA,NA,NA,NA,NA,NA,NA,NA,NA,NA,NA,NA
bd655,deep,flow.Sequence,3_0_0_0_0_0,NA,NA,completion,29600,150685.70000029,150671.962,150672.1,180272.1,180273,2024-03-09T08:39:34Z,180288.7,NULL,Wechsel,ugeuzaji,d,NA,NA,NA,NA,sdf,NA,0,NA,NA,NA,NA,NA,NA,NA,NA,NA,NA,NA,NA,NA,NA,NA,NA,NA,NA,NA
bd655,shallow,flow.Sequence,3_0_0_0_0_1,NA,NA,skipped,NA,180273,NA,NA,180272.1,180273.10000038,2024-03-09T08:39:34Z,180288.7,NULL,Wechsel,ugeuzaji,d,NA,NA,NA,NA,sdf,NA,0,NA,NA,NA,NA,NA,NA,NA,NA,NA,NA,NA,NA,NA,NA,NA,NA,NA,NA,NA
bd655,task,flow.Sequence,3_0_0_0_0,NA,NA,completion,29600,150685.70000029,150671.962,150672.1,180272.1,180273.20000029,2024-03-09T08:39:34Z,180288.7,NULL,Wechsel,ugeuzaji,d,NA,NA,NA,NA,sdf,NA,0,NA,NA,NA,NA,NA,NA,NA,NA,NA,NA,NA,NA,NA,NA,NA,NA,NA,NA,NA
bd655,Deep Question,html.Page,3_0_0_0_1_0_0,NA,NA,form submission,13614.900000381,180273.4000001,180272.1,180288.7,193903.60000038,193903.9000001,2024-03-09T08:39:48Z,193905.46,NULL,Erneuerung,ukarabati,d,NA,NA,NA,katiba,NA,NA,0,NA,NA,NA,NA,NA,NA,NA,NA,NA,NA,NA,NA,NA,NA,NA,NA,NA,NA,NA
bd655,"""Richtig""-Screen",canvas.Screen,3_0_0_0_1_0_1,NA,NA,skipped,NA,193905.5,NA,NA,193903.60000038,193905.70000029,2024-03-09T08:39:48Z,193905.46,NULL,Erneuerung,ukarabati,d,NA,NA,NA,NA,sdf,NA,0,NA,NA,NA,NA,NA,NA,NA,NA,NA,NA,NA,NA,NA,NA,NA,NA,NA,NA,NA
bd655,"""Falsch""-Screen",canvas.Screen,3_0_0_0_1_0_2,NA,NA,timeout,4999.94,193906.20000029,193905.46,193905.46,198888.7,198889.5,2024-03-09T08:39:53Z,198905.4,NULL,Erneuerung,ukarabati,d,NA,NA,NA,NA,sdf,0,0,NA,NA,NA,NA,NA,NA,NA,NA,NA,NA,NA,NA,NA,NA,NA,NA,NA,NA,NA
bd655,deep,flow.Sequence,3_0_0_0_1_0,NA,NA,completion,18600,180273.4000001,180272.1,180288.7,198888.7,198889.70000029,2024-03-09T08:39:53Z,198905.4,NULL,Erneuerung,ukarabati,d,NA,NA,NA,NA,sdf,NA,0,NA,NA,NA,NA,NA,NA,NA,NA,NA,NA,NA,NA,NA,NA,NA,NA,NA,NA,NA
bd655,shallow,flow.Sequence,3_0_0_0_1_1,NA,NA,skipped,NA,198889.9000001,NA,NA,198888.7,198889.9000001,2024-03-09T08:39:53Z,198905.4,NULL,Erneuerung,ukarabati,d,NA,NA,NA,NA,sdf,NA,0,NA,NA,NA,NA,NA,NA,NA,NA,NA,NA,NA,NA,NA,NA,NA,NA,NA,NA,NA
bd655,task,flow.Sequence,3_0_0_0_1,NA,NA,completion,18600,180273.30000019,180272.1,180288.7,198888.7,198890.10000038,2024-03-09T08:39:53Z,198905.4,NULL,Erneuerung,ukarabati,d,NA,NA,NA,NA,sdf,NA,0,NA,NA,NA,NA,NA,NA,NA,NA,NA,NA,NA,NA,NA,NA,NA,NA,NA,NA,NA
bd655,deep,flow.Sequence,3_0_0_0_2_0,NA,NA,skipped,NA,198890.10000038,NA,NA,198888.7,198890.20000029,2024-03-09T08:39:53Z,198905.4,NULL,Schock,mshtuko,s,biashara,kukataza,vichekesho,NA,sdf,NA,0,NA,NA,NA,NA,NA,NA,NA,NA,NA,NA,NA,NA,NA,NA,NA,NA,NA,NA,NA
bd655,Shallow Question,html.Page,3_0_0_0_2_1_0,NA,NA,form submission,17267.200000381,198890.30000019,198888.7,198905.4,216172.60000038,216172.80000019,2024-03-09T08:40:10Z,216188.6,NULL,Schock,mshtuko,s,biashara,kukataza,vichekesho,biashara,NA,NA,0,NA,NA,NA,NA,NA,NA,NA,NA,NA,NA,NA,NA,NA,NA,NA,NA,NA,NA,NA
bd655,"""Richtig""-Screen",canvas.Screen,3_0_0_0_2_1_1,NA,NA,skipped,NA,216174.5,NA,NA,216172.60000038,216174.60000038,2024-03-09T08:40:10Z,216188.6,NULL,Schock,mshtuko,s,biashara,kukataza,vichekesho,NA,sdf,NA,0,NA,NA,NA,NA,NA,NA,NA,NA,NA,NA,NA,NA,NA,NA,NA,NA,NA,NA,NA
bd655,"""Falsch""-Screen",canvas.Screen,3_0_0_0_2_1_2,NA,NA,timeout,5000,216175.20000029,216172.09,216188.6,221172,221172.70000029,2024-03-09T08:40:15Z,221188.6,NULL,Schock,mshtuko,s,biashara,kukataza,vichekesho,NA,sdf,0,0,NA,NA,NA,NA,NA,NA,NA,NA,NA,NA,NA,NA,NA,NA,NA,NA,NA,NA,NA
bd655,shallow,flow.Sequence,3_0_0_0_2_1,NA,NA,completion,22266.6,198890.30000019,198888.7,198905.4,221172,221173,2024-03-09T08:40:15Z,221188.6,NULL,Schock,mshtuko,s,biashara,kukataza,vichekesho,NA,sdf,NA,0,NA,NA,NA,NA,NA,NA,NA,NA,NA,NA,NA,NA,NA,NA,NA,NA,NA,NA,NA
bd655,task,flow.Sequence,3_0_0_0_2,NA,NA,completion,22266.6,198890.10000038,198888.7,198905.4,221172,221173.20000029,2024-03-09T08:40:15Z,221188.6,NULL,Schock,mshtuko,s,biashara,kukataza,vichekesho,NA,sdf,NA,0,NA,NA,NA,NA,NA,NA,NA,NA,NA,NA,NA,NA,NA,NA,NA,NA,NA,NA,NA
bd655,Deep Question,html.Page,3_0_0_0_3_0_0,NA,NA,form submission,13570.100000286,221173.30000019,221172,221188.6,234758.70000029,234758.9000001,2024-03-09T08:40:29Z,234771.8,NULL,Verpackung,ufungaji,d,NA,NA,NA,kiwimbe,NA,NA,0,NA,NA,NA,NA,NA,NA,NA,NA,NA,NA,NA,NA,NA,NA,NA,NA,NA,NA,NA
bd655,"""Richtig""-Screen",canvas.Screen,3_0_0_0_3_0_1,NA,NA,skipped,NA,234760.80000019,NA,NA,234758.70000029,234760.9000001,2024-03-09T08:40:29Z,234771.8,NULL,Verpackung,ufungaji,d,NA,NA,NA,NA,sdf,NA,0,NA,NA,NA,NA,NA,NA,NA,NA,NA,NA,NA,NA,NA,NA,NA,NA,NA,NA,NA
bd655,"""Falsch""-Screen",canvas.Screen,3_0_0_0_3_0_2,NA,NA,timeout,5000.2,234761.4000001,234755.46,234771.8,239755.4,239756.10000038,2024-03-09T08:40:34Z,239772,NULL,Verpackung,ufungaji,d,NA,NA,NA,NA,sdf,0,0,NA,NA,NA,NA,NA,NA,NA,NA,NA,NA,NA,NA,NA,NA,NA,NA,NA,NA,NA
bd655,deep,flow.Sequence,3_0_0_0_3_0,NA,NA,completion,18566.8,221173.20000029,221172,221188.6,239755.4,239756.5,2024-03-09T08:40:34Z,239772,NULL,Verpackung,ufungaji,d,NA,NA,NA,NA,sdf,NA,0,NA,NA,NA,NA,NA,NA,NA,NA,NA,NA,NA,NA,NA,NA,NA,NA,NA,NA,NA
bd655,shallow,flow.Sequence,3_0_0_0_3_1,NA,NA,skipped,NA,239756.60000038,NA,NA,239755.4,239756.60000038,2024-03-09T08:40:34Z,239772,NULL,Verpackung,ufungaji,d,NA,NA,NA,NA,sdf,NA,0,NA,NA,NA,NA,NA,NA,NA,NA,NA,NA,NA,NA,NA,NA,NA,NA,NA,NA,NA
bd655,task,flow.Sequence,3_0_0_0_3,NA,NA,completion,18566.8,221173.20000029,221172,221188.6,239755.4,239756.80000019,2024-03-09T08:40:34Z,239772,NULL,Verpackung,ufungaji,d,NA,NA,NA,NA,sdf,NA,0,NA,NA,NA,NA,NA,NA,NA,NA,NA,NA,NA,NA,NA,NA,NA,NA,NA,NA,NA
bd655,deep,flow.Sequence,3_0_0_0_4_0,NA,NA,skipped,NA,239756.9000001,NA,NA,239755.4,239756.9000001,2024-03-09T08:40:34Z,239772,NULL,Flexibilität,kubadilika,s,enjini,usikilivu,hesabu,NA,sdf,NA,0,NA,NA,NA,NA,NA,NA,NA,NA,NA,NA,NA,NA,NA,NA,NA,NA,NA,NA,NA
bd655,Shallow Question,html.Page,3_0_0_0_4_1_0,NA,NA,form submission,11527.5,239757.10000038,239755.4,239772,251299.5,251299.70000029,2024-03-09T08:40:46Z,251305.1,NULL,Flexibilität,kubadilika,s,enjini,usikilivu,hesabu,usikilivu,NA,NA,0,NA,NA,NA,NA,NA,NA,NA,NA,NA,NA,NA,NA,NA,NA,NA,NA,NA,NA,NA
bd655,"""Richtig""-Screen",canvas.Screen,3_0_0_0_4_1_1,NA,NA,skipped,NA,251301.4000001,NA,NA,251299.5,251301.60000038,2024-03-09T08:40:46Z,251305.1,NULL,Flexibilität,kubadilika,s,enjini,usikilivu,hesabu,NA,sdf,NA,0,NA,NA,NA,NA,NA,NA,NA,NA,NA,NA,NA,NA,NA,NA,NA,NA,NA,NA,NA
bd655,"""Falsch""-Screen",canvas.Screen,3_0_0_0_4_1_2,NA,NA,timeout,5000.1,251302.20000029,251288.716,251305.1,256288.6,256289.4000001,2024-03-09T08:40:51Z,256305.2,NULL,Flexibilität,kubadilika,s,enjini,usikilivu,hesabu,NA,sdf,0,0,NA,NA,NA,NA,NA,NA,NA,NA,NA,NA,NA,NA,NA,NA,NA,NA,NA,NA,NA
bd655,shallow,flow.Sequence,3_0_0_0_4_1,NA,NA,completion,16516.6,239757.10000038,239755.4,239772,256288.6,256289.60000038,2024-03-09T08:40:51Z,256305.2,NULL,Flexibilität,kubadilika,s,enjini,usikilivu,hesabu,NA,sdf,NA,0,NA,NA,NA,NA,NA,NA,NA,NA,NA,NA,NA,NA,NA,NA,NA,NA,NA,NA,NA
bd655,task,flow.Sequence,3_0_0_0_4,NA,NA,completion,16516.6,239756.9000001,239755.4,239772,256288.6,256289.80000019,2024-03-09T08:40:51Z,256305.2,NULL,Flexibilität,kubadilika,s,enjini,usikilivu,hesabu,NA,sdf,NA,0,NA,NA,NA,NA,NA,NA,NA,NA,NA,NA,NA,NA,NA,NA,NA,NA,NA,NA,NA
bd655,Deep Question,html.Page,3_0_0_0_5_0_0,NA,NA,form submission,27531.400000381,256289.9000001,256288.6,256305.2,283836.60000038,283836.70000029,2024-03-09T08:41:18Z,283838.688,NULL,Hoffnung,matarajio,d,NA,NA,NA,kiwimbe,NA,NA,0,NA,NA,NA,NA,NA,NA,NA,NA,NA,NA,NA,NA,NA,NA,NA,NA,NA,NA,NA
bd655,"""Richtig""-Screen",canvas.Screen,3_0_0_0_5_0_1,NA,NA,skipped,NA,283838.5,NA,NA,283836.60000038,283838.80000019,2024-03-09T08:41:18Z,283838.688,NULL,Hoffnung,matarajio,d,NA,NA,NA,NA,sdf,NA,0,NA,NA,NA,NA,NA,NA,NA,NA,NA,NA,NA,NA,NA,NA,NA,NA,NA,NA,NA
bd655,"""Falsch""-Screen",canvas.Screen,3_0_0_0_5_0_2,NA,NA,timeout,4999.812,283839.4000001,283838.688,283838.688,288821.9,288822.60000038,2024-03-09T08:41:23Z,288838.5,NULL,Hoffnung,matarajio,d,NA,NA,NA,NA,sdf,0,0,NA,NA,NA,NA,NA,NA,NA,NA,NA,NA,NA,NA,NA,NA,NA,NA,NA,NA,NA
bd655,deep,flow.Sequence,3_0_0_0_5_0,NA,NA,completion,32516.7,256289.9000001,256288.6,256305.2,288821.9,288822.80000019,2024-03-09T08:41:23Z,288838.5,NULL,Hoffnung,matarajio,d,NA,NA,NA,NA,sdf,NA,0,NA,NA,NA,NA,NA,NA,NA,NA,NA,NA,NA,NA,NA,NA,NA,NA,NA,NA,NA
bd655,shallow,flow.Sequence,3_0_0_0_5_1,NA,NA,skipped,NA,288822.9000001,NA,NA,288821.9,288823,2024-03-09T08:41:23Z,288838.5,NULL,Hoffnung,matarajio,d,NA,NA,NA,NA,sdf,NA,0,NA,NA,NA,NA,NA,NA,NA,NA,NA,NA,NA,NA,NA,NA,NA,NA,NA,NA,NA
bd655,task,flow.Sequence,3_0_0_0_5,NA,NA,completion,32516.7,256289.9000001,256288.6,256305.2,288821.9,288823.20000029,2024-03-09T08:41:23Z,288838.5,NULL,Hoffnung,matarajio,d,NA,NA,NA,NA,sdf,NA,0,NA,NA,NA,NA,NA,NA,NA,NA,NA,NA,NA,NA,NA,NA,NA,NA,NA,NA,NA
bd655,deep,flow.Sequence,3_0_0_0_6_0,NA,NA,skipped,NA,288823.20000029,NA,NA,288821.9,288823.4000001,2024-03-09T08:41:23Z,288838.5,NULL,Atmosphäre,angahewa,s,kuteseka,usahihi,kutoamini,NA,sdf,NA,0,NA,NA,NA,NA,NA,NA,NA,NA,NA,NA,NA,NA,NA,NA,NA,NA,NA,NA,NA
bd655,Shallow Question,html.Page,3_0_0_0_6_1_0,NA,NA,form submission,17505.100000381,288823.4000001,288821.9,288838.5,306343.60000038,306343.80000019,2024-03-09T08:41:41Z,306355.1,NULL,Atmosphäre,angahewa,s,kuteseka,usahihi,kutoamini,angahewa,NA,NA,0,NA,NA,NA,NA,NA,NA,NA,NA,NA,NA,NA,NA,NA,NA,NA,NA,NA,NA,NA
bd655,"""Richtig""-Screen",canvas.Screen,3_0_0_0_6_1_1,NA,NA,timeout,5000.2,306345.4000001,306338.682,306355.1,311338.5,311339.20000029,2024-03-09T08:41:46Z,311355.3,NULL,Atmosphäre,angahewa,s,kuteseka,usahihi,kutoamini,NA,sdf,1,0,NA,NA,NA,NA,NA,NA,NA,NA,NA,NA,NA,NA,NA,NA,NA,NA,NA,NA,NA
bd655,"""Falsch""-Screen",canvas.Screen,3_0_0_0_6_1_2,NA,NA,skipped,NA,311343.10000038,NA,NA,311338.5,311343.30000019,2024-03-09T08:41:46Z,311355.3,NULL,Atmosphäre,angahewa,s,kuteseka,usahihi,kutoamini,NA,sdf,NA,0,NA,NA,NA,NA,NA,NA,NA,NA,NA,NA,NA,NA,NA,NA,NA,NA,NA,NA,NA
bd655,shallow,flow.Sequence,3_0_0_0_6_1,NA,NA,completion,22500,288823.4000001,288821.9,288838.5,311338.5,311343.60000038,2024-03-09T08:41:46Z,311355.3,NULL,Atmosphäre,angahewa,s,kuteseka,usahihi,kutoamini,NA,sdf,NA,0,NA,NA,NA,NA,NA,NA,NA,NA,NA,NA,NA,NA,NA,NA,NA,NA,NA,NA,NA
bd655,task,flow.Sequence,3_0_0_0_6,NA,NA,completion,22500,288823.20000029,288821.9,288838.5,311338.5,311343.70000029,2024-03-09T08:41:46Z,311355.3,NULL,Atmosphäre,angahewa,s,kuteseka,usahihi,kutoamini,NA,sdf,NA,0,NA,NA,NA,NA,NA,NA,NA,NA,NA,NA,NA,NA,NA,NA,NA,NA,NA,NA,NA
bd655,deep,flow.Sequence,3_0_0_0_7_0,NA,NA,skipped,NA,311343.70000029,NA,NA,311338.5,311343.80000019,2024-03-09T08:41:46Z,311355.3,NULL,Theorie,nadharia,s,ushungi,mkutano,uwakilishi,NA,sdf,NA,0,NA,NA,NA,NA,NA,NA,NA,NA,NA,NA,NA,NA,NA,NA,NA,NA,NA,NA,NA
bd655,Shallow Question,html.Page,3_0_0_0_7_1_0,NA,NA,form submission,9286.1000000954,311343.9000001,311338.5,311355.3,320641.4000001,320641.60000038,2024-03-09T08:41:55Z,320655.1,NULL,Theorie,nadharia,s,ushungi,mkutano,uwakilishi,ushungi,NA,NA,0,NA,NA,NA,NA,NA,NA,NA,NA,NA,NA,NA,NA,NA,NA,NA,NA,NA,NA,NA
bd655,"""Richtig""-Screen",canvas.Screen,3_0_0_0_7_1_1,NA,NA,skipped,NA,320643.30000019,NA,NA,320641.4000001,320643.4000001,2024-03-09T08:41:55Z,320655.1,NULL,Theorie,nadharia,s,ushungi,mkutano,uwakilishi,NA,sdf,NA,0,NA,NA,NA,NA,NA,NA,NA,NA,NA,NA,NA,NA,NA,NA,NA,NA,NA,NA,NA
bd655,"""Falsch""-Screen",canvas.Screen,3_0_0_0_7_1_2,NA,NA,timeout,5000.2,320643.9000001,320638.68,320655.1,325638.6,325639.5,2024-03-09T08:42:00Z,325655.3,NULL,Theorie,nadharia,s,ushungi,mkutano,uwakilishi,NA,sdf,0,0,NA,NA,NA,NA,NA,NA,NA,NA,NA,NA,NA,NA,NA,NA,NA,NA,NA,NA,NA
bd655,shallow,flow.Sequence,3_0_0_0_7_1,NA,NA,completion,14283.3,311343.9000001,311338.5,311355.3,325638.6,325639.9000001,2024-03-09T08:42:00Z,325655.3,NULL,Theorie,nadharia,s,ushungi,mkutano,uwakilishi,NA,sdf,NA,0,NA,NA,NA,NA,NA,NA,NA,NA,NA,NA,NA,NA,NA,NA,NA,NA,NA,NA,NA
bd655,task,flow.Sequence,3_0_0_0_7,NA,NA,completion,14283.3,311343.70000029,311338.5,311355.3,325638.6,325640.10000038,2024-03-09T08:42:00Z,325655.3,NULL,Theorie,nadharia,s,ushungi,mkutano,uwakilishi,NA,sdf,NA,0,NA,NA,NA,NA,NA,NA,NA,NA,NA,NA,NA,NA,NA,NA,NA,NA,NA,NA,NA
bd655,block,flow.Loop,3_0_0_0,NA,NA,completion,174966.5,150685.70000029,150671.962,150672.1,325638.6,325640.20000029,2024-03-09T08:42:00Z,325655.3,NULL,NA,NA,NA,NA,NA,NA,NA,sdf,NA,0,NA,NA,NA,NA,NA,NA,NA,NA,NA,NA,NA,NA,NA,NA,NA,NA,NA,NA,NA
bd655,weiter,canvas.Screen,3_0_0_1,sdf,keypress(Space),response,1699.3000003815,325640.30000019,325638.6,325655.3,327354.60000038,327355.4000001,2024-03-09T08:42:02Z,327388.612,NULL,NA,NA,NA,NA,NA,NA,NA,sdf,NA,0,NA,NA,NA,NA,NA,NA,NA,NA,NA,NA,NA,NA,NA,NA,NA,NA,NA,NA,NA
bd655,check continue,flow.Sequence,3_0_0,NA,NA,completion,176682.50000038,150685.70000029,150671.962,150672.1,327354.60000038,327355.70000029,2024-03-09T08:42:02Z,327388.612,NULL,NA,NA,NA,NA,NA,NA,NA,sdf,NA,0,NA,NA,NA,NA,NA,NA,NA,NA,NA,NA,NA,NA,NA,NA,NA,NA,NA,NA,NA
bd655,Deep Question,html.Page,3_0_1_0_0_0_0,NA,NA,form submission,18291.988000381,327392.80000019,327388.612,327388.612,345680.60000038,345680.80000019,2024-03-09T08:42:20Z,345688.4,NULL,Wechsel,ugeuzaji,d,NA,NA,NA,katiba,NA,NA,1,NA,NA,NA,NA,NA,NA,NA,NA,NA,NA,NA,NA,NA,NA,NA,NA,NA,NA,NA
bd655,"""Richtig""-Screen",canvas.Screen,3_0_1_0_0_0_1,NA,NA,skipped,NA,345682.5,NA,NA,345680.60000038,345682.70000029,2024-03-09T08:42:20Z,345688.4,NULL,Wechsel,ugeuzaji,d,NA,NA,NA,NA,sdfdsf,NA,1,NA,NA,NA,NA,NA,NA,NA,NA,NA,NA,NA,NA,NA,NA,NA,NA,NA,NA,NA
bd655,"""Falsch""-Screen",canvas.Screen,3_0_1_0_0_0_2,NA,NA,timeout,5000.1,345683.30000019,345671.964,345688.4,350671.9,350672.80000019,2024-03-09T08:42:25Z,350688.5,NULL,Wechsel,ugeuzaji,d,NA,NA,NA,NA,sdfdsf,0,1,NA,NA,NA,NA,NA,NA,NA,NA,NA,NA,NA,NA,NA,NA,NA,NA,NA,NA,NA
bd655,deep,flow.Sequence,3_0_1_0_0_0,NA,NA,completion,23283.288,327392.80000019,327388.612,327388.612,350671.9,350673.10000038,2024-03-09T08:42:25Z,350688.5,NULL,Wechsel,ugeuzaji,d,NA,NA,NA,NA,sdfdsf,NA,1,NA,NA,NA,NA,NA,NA,NA,NA,NA,NA,NA,NA,NA,NA,NA,NA,NA,NA,NA
bd655,shallow,flow.Sequence,3_0_1_0_0_1,NA,NA,skipped,NA,350673.20000029,NA,NA,350671.9,350673.30000019,2024-03-09T08:42:25Z,350688.5,NULL,Wechsel,ugeuzaji,d,NA,NA,NA,NA,sdfdsf,NA,1,NA,NA,NA,NA,NA,NA,NA,NA,NA,NA,NA,NA,NA,NA,NA,NA,NA,NA,NA
bd655,task,flow.Sequence,3_0_1_0_0,NA,NA,completion,23283.288,327392.80000019,327388.612,327388.612,350671.9,350673.4000001,2024-03-09T08:42:25Z,350688.5,NULL,Wechsel,ugeuzaji,d,NA,NA,NA,NA,sdfdsf,NA,1,NA,NA,NA,NA,NA,NA,NA,NA,NA,NA,NA,NA,NA,NA,NA,NA,NA,NA,NA
bd655,deep,flow.Sequence,3_0_1_0_1_0,NA,NA,skipped,NA,350673.5,NA,NA,350671.9,350673.60000038,2024-03-09T08:42:25Z,350688.5,NULL,Flexibilität,kubadilika,s,enjini,usikilivu,hesabu,NA,sdfdsf,NA,1,NA,NA,NA,NA,NA,NA,NA,NA,NA,NA,NA,NA,NA,NA,NA,NA,NA,NA,NA
bd655,Shallow Question,html.Page,3_0_1_0_1_1_0,NA,NA,form submission,8530,350673.60000038,350671.9,350688.5,359218.5,359218.60000038,2024-03-09T08:42:33Z,359221.7,NULL,Flexibilität,kubadilika,s,enjini,usikilivu,hesabu,kubadilika,NA,NA,1,NA,NA,NA,NA,NA,NA,NA,NA,NA,NA,NA,NA,NA,NA,NA,NA,NA,NA,NA
bd655,"""Richtig""-Screen",canvas.Screen,3_0_1_0_1_1_1,NA,NA,timeout,5000.2,359220.4000001,359205.312,359221.7,364205.2,364206,2024-03-09T08:42:38Z,364221.9,NULL,Flexibilität,kubadilika,s,enjini,usikilivu,hesabu,NA,sdfdsf,1,1,NA,NA,NA,NA,NA,NA,NA,NA,NA,NA,NA,NA,NA,NA,NA,NA,NA,NA,NA
bd655,"""Falsch""-Screen",canvas.Screen,3_0_1_0_1_1_2,NA,NA,skipped,NA,364209.80000019,NA,NA,364205.2,364210,2024-03-09T08:42:38Z,364221.9,NULL,Flexibilität,kubadilika,s,enjini,usikilivu,hesabu,NA,sdfdsf,NA,1,NA,NA,NA,NA,NA,NA,NA,NA,NA,NA,NA,NA,NA,NA,NA,NA,NA,NA,NA
bd655,shallow,flow.Sequence,3_0_1_0_1_1,NA,NA,completion,13516.7,350673.60000038,350671.9,350688.5,364205.2,364210.20000029,2024-03-09T08:42:38Z,364221.9,NULL,Flexibilität,kubadilika,s,enjini,usikilivu,hesabu,NA,sdfdsf,NA,1,NA,NA,NA,NA,NA,NA,NA,NA,NA,NA,NA,NA,NA,NA,NA,NA,NA,NA,NA
bd655,task,flow.Sequence,3_0_1_0_1,NA,NA,completion,13516.7,350673.5,350671.9,350688.5,364205.2,364210.4000001,2024-03-09T08:42:38Z,364221.9,NULL,Flexibilität,kubadilika,s,enjini,usikilivu,hesabu,NA,sdfdsf,NA,1,NA,NA,NA,NA,NA,NA,NA,NA,NA,NA,NA,NA,NA,NA,NA,NA,NA,NA,NA
bd655,Deep Question,html.Page,3_0_1_0_2_0_0,NA,NA,form submission,15167.700000381,364210.5,364205.2,364221.9,379389.60000038,379389.80000019,2024-03-09T08:42:54Z,379405,NULL,Hoffnung,matarajio,d,NA,NA,NA,usunji,NA,NA,1,NA,NA,NA,NA,NA,NA,NA,NA,NA,NA,NA,NA,NA,NA,NA,NA,NA,NA,NA
bd655,"""Richtig""-Screen",canvas.Screen,3_0_1_0_2_0_1,NA,NA,skipped,NA,379391.4000001,NA,NA,379389.60000038,379391.60000038,2024-03-09T08:42:54Z,379405,NULL,Hoffnung,matarajio,d,NA,NA,NA,NA,sdfdsf,NA,1,NA,NA,NA,NA,NA,NA,NA,NA,NA,NA,NA,NA,NA,NA,NA,NA,NA,NA,NA
bd655,"""Falsch""-Screen",canvas.Screen,3_0_1_0_2_0_2,NA,NA,timeout,5000.2,379392,379388.648,379405,384388.5,384389.30000019,2024-03-09T08:42:59Z,384405.2,NULL,Hoffnung,matarajio,d,NA,NA,NA,NA,sdfdsf,0,1,NA,NA,NA,NA,NA,NA,NA,NA,NA,NA,NA,NA,NA,NA,NA,NA,NA,NA,NA
bd655,deep,flow.Sequence,3_0_1_0_2_0,NA,NA,completion,20166.6,364210.5,364205.2,364221.9,384388.5,384389.70000029,2024-03-09T08:42:59Z,384405.2,NULL,Hoffnung,matarajio,d,NA,NA,NA,NA,sdfdsf,NA,1,NA,NA,NA,NA,NA,NA,NA,NA,NA,NA,NA,NA,NA,NA,NA,NA,NA,NA,NA
bd655,shallow,flow.Sequence,3_0_1_0_2_1,NA,NA,skipped,NA,384389.80000019,NA,NA,384388.5,384389.9000001,2024-03-09T08:42:59Z,384405.2,NULL,Hoffnung,matarajio,d,NA,NA,NA,NA,sdfdsf,NA,1,NA,NA,NA,NA,NA,NA,NA,NA,NA,NA,NA,NA,NA,NA,NA,NA,NA,NA,NA
bd655,task,flow.Sequence,3_0_1_0_2,NA,NA,completion,20166.6,364210.4000001,364205.2,364221.9,384388.5,384390.10000038,2024-03-09T08:42:59Z,384405.2,NULL,Hoffnung,matarajio,d,NA,NA,NA,NA,sdfdsf,NA,1,NA,NA,NA,NA,NA,NA,NA,NA,NA,NA,NA,NA,NA,NA,NA,NA,NA,NA,NA
bd655,deep,flow.Sequence,3_0_1_0_3_0,NA,NA,skipped,NA,384390.20000029,NA,NA,384388.5,384390.30000019,2024-03-09T08:42:59Z,384405.2,NULL,Theorie,nadharia,s,ushungi,mkutano,uwakilishi,NA,sdfdsf,NA,1,NA,NA,NA,NA,NA,NA,NA,NA,NA,NA,NA,NA,NA,NA,NA,NA,NA,NA,NA
bd655,Shallow Question,html.Page,3_0_1_0_3_1_0,NA,NA,form submission,6018.2000000954,384390.4000001,384388.5,384405.2,390423.4000001,390423.70000029,2024-03-09T08:43:05Z,390438.5,NULL,Theorie,nadharia,s,ushungi,mkutano,uwakilishi,nadharia,NA,NA,1,NA,NA,NA,NA,NA,NA,NA,NA,NA,NA,NA,NA,NA,NA,NA,NA,NA,NA,NA
bd655,"""Richtig""-Screen",canvas.Screen,3_0_1_0_3_1_1,NA,NA,timeout,5000,390425.4000001,390421.924,390438.5,395421.8,395422.70000029,2024-03-09T08:43:10Z,395438.5,NULL,Theorie,nadharia,s,ushungi,mkutano,uwakilishi,NA,sdfdsf,1,1,NA,NA,NA,NA,NA,NA,NA,NA,NA,NA,NA,NA,NA,NA,NA,NA,NA,NA,NA
bd655,"""Falsch""-Screen",canvas.Screen,3_0_1_0_3_1_2,NA,NA,skipped,NA,395426.60000038,NA,NA,395421.8,395426.9000001,2024-03-09T08:43:10Z,395438.5,NULL,Theorie,nadharia,s,ushungi,mkutano,uwakilishi,NA,sdfdsf,NA,1,NA,NA,NA,NA,NA,NA,NA,NA,NA,NA,NA,NA,NA,NA,NA,NA,NA,NA,NA
bd655,shallow,flow.Sequence,3_0_1_0_3_1,NA,NA,completion,11016.6,384390.30000019,384388.5,384405.2,395421.8,395427.10000038,2024-03-09T08:43:10Z,395438.5,NULL,Theorie,nadharia,s,ushungi,mkutano,uwakilishi,NA,sdfdsf,NA,1,NA,NA,NA,NA,NA,NA,NA,NA,NA,NA,NA,NA,NA,NA,NA,NA,NA,NA,NA
bd655,task,flow.Sequence,3_0_1_0_3,NA,NA,completion,11016.6,384390.10000038,384388.5,384405.2,395421.8,395427.10000038,2024-03-09T08:43:10Z,395438.5,NULL,Theorie,nadharia,s,ushungi,mkutano,uwakilishi,NA,sdfdsf,NA,1,NA,NA,NA,NA,NA,NA,NA,NA,NA,NA,NA,NA,NA,NA,NA,NA,NA,NA,NA
bd655,Deep Question,html.Page,3_0_1_0_4_0_0,NA,NA,form submission,17794.900000095,395427.30000019,395421.8,395438.5,413233.4000001,413233.70000029,2024-03-09T08:43:27Z,413238.4,NULL,Verpackung,ufungaji,d,NA,NA,NA,ushunji,NA,NA,1,NA,NA,NA,NA,NA,NA,NA,NA,NA,NA,NA,NA,NA,NA,NA,NA,NA,NA,NA
bd655,"""Richtig""-Screen",canvas.Screen,3_0_1_0_4_0_1,NA,NA,skipped,NA,413235.30000019,NA,NA,413233.4000001,413235.4000001,2024-03-09T08:43:27Z,413238.4,NULL,Verpackung,ufungaji,d,NA,NA,NA,NA,sdfdsf,NA,1,NA,NA,NA,NA,NA,NA,NA,NA,NA,NA,NA,NA,NA,NA,NA,NA,NA,NA,NA
bd655,"""Falsch""-Screen",canvas.Screen,3_0_1_0_4_0_2,NA,NA,timeout,5000,413236,413221.9,413238.4,418221.9,418222.5,2024-03-09T08:43:32Z,418238.4,NULL,Verpackung,ufungaji,d,NA,NA,NA,NA,sdfdsf,0,1,NA,NA,NA,NA,NA,NA,NA,NA,NA,NA,NA,NA,NA,NA,NA,NA,NA,NA,NA
bd655,deep,flow.Sequence,3_0_1_0_4_0,NA,NA,completion,22783.4,395427.30000019,395421.8,395438.5,418221.9,418222.9000001,2024-03-09T08:43:32Z,418238.4,NULL,Verpackung,ufungaji,d,NA,NA,NA,NA,sdfdsf,NA,1,NA,NA,NA,NA,NA,NA,NA,NA,NA,NA,NA,NA,NA,NA,NA,NA,NA,NA,NA
bd655,shallow,flow.Sequence,3_0_1_0_4_1,NA,NA,skipped,NA,418223,NA,NA,418221.9,418223.10000038,2024-03-09T08:43:32Z,418238.4,NULL,Verpackung,ufungaji,d,NA,NA,NA,NA,sdfdsf,NA,1,NA,NA,NA,NA,NA,NA,NA,NA,NA,NA,NA,NA,NA,NA,NA,NA,NA,NA,NA
bd655,task,flow.Sequence,3_0_1_0_4,NA,NA,completion,22783.4,395427.20000029,395421.8,395438.5,418221.9,418223.30000019,2024-03-09T08:43:32Z,418238.4,NULL,Verpackung,ufungaji,d,NA,NA,NA,NA,sdfdsf,NA,1,NA,NA,NA,NA,NA,NA,NA,NA,NA,NA,NA,NA,NA,NA,NA,NA,NA,NA,NA
bd655,deep,flow.Sequence,3_0_1_0_5_0,NA,NA,skipped,NA,418223.4000001,NA,NA,418221.9,418223.4000001,2024-03-09T08:43:32Z,418238.4,NULL,Atmosphäre,angahewa,s,kuteseka,usahihi,kutoamini,NA,sdfdsf,NA,1,NA,NA,NA,NA,NA,NA,NA,NA,NA,NA,NA,NA,NA,NA,NA,NA,NA,NA,NA
bd655,Shallow Question,html.Page,3_0_1_0_5_1_0,NA,NA,form submission,9025.0000000953,418223.60000038,418221.9,418238.4,427263.4000001,427263.60000038,2024-03-09T08:43:41Z,427271.6,NULL,Atmosphäre,angahewa,s,kuteseka,usahihi,kutoamini,angahewa,NA,NA,1,NA,NA,NA,NA,NA,NA,NA,NA,NA,NA,NA,NA,NA,NA,NA,NA,NA,NA,NA
bd655,"""Richtig""-Screen",canvas.Screen,3_0_1_0_5_1_1,NA,NA,timeout,5000.2,427265.4000001,427255.32,427271.6,432255.1,432255.9000001,2024-03-09T08:43:46Z,432271.8,NULL,Atmosphäre,angahewa,s,kuteseka,usahihi,kutoamini,NA,sdfdsf,1,1,NA,NA,NA,NA,NA,NA,NA,NA,NA,NA,NA,NA,NA,NA,NA,NA,NA,NA,NA
bd655,"""Falsch""-Screen",canvas.Screen,3_0_1_0_5_1_2,NA,NA,skipped,NA,432259.80000019,NA,NA,432255.1,432260,2024-03-09T08:43:46Z,432271.8,NULL,Atmosphäre,angahewa,s,kuteseka,usahihi,kutoamini,NA,sdfdsf,NA,1,NA,NA,NA,NA,NA,NA,NA,NA,NA,NA,NA,NA,NA,NA,NA,NA,NA,NA,NA
bd655,shallow,flow.Sequence,3_0_1_0_5_1,NA,NA,completion,14016.7,418223.60000038,418221.9,418238.4,432255.1,432260.20000029,2024-03-09T08:43:46Z,432271.8,NULL,Atmosphäre,angahewa,s,kuteseka,usahihi,kutoamini,NA,sdfdsf,NA,1,NA,NA,NA,NA,NA,NA,NA,NA,NA,NA,NA,NA,NA,NA,NA,NA,NA,NA,NA
bd655,task,flow.Sequence,3_0_1_0_5,NA,NA,completion,14016.7,418223.4000001,418221.9,418238.4,432255.1,432260.30000019,2024-03-09T08:43:46Z,432271.8,NULL,Atmosphäre,angahewa,s,kuteseka,usahihi,kutoamini,NA,sdfdsf,NA,1,NA,NA,NA,NA,NA,NA,NA,NA,NA,NA,NA,NA,NA,NA,NA,NA,NA,NA,NA
bd655,deep,flow.Sequence,3_0_1_0_6_0,NA,NA,skipped,NA,432260.4000001,NA,NA,432255.1,432260.5,2024-03-09T08:43:46Z,432271.8,NULL,Schock,mshtuko,s,biashara,kukataza,vichekesho,NA,sdfdsf,NA,1,NA,NA,NA,NA,NA,NA,NA,NA,NA,NA,NA,NA,NA,NA,NA,NA,NA,NA,NA
bd655,Shallow Question,html.Page,3_0_1_0_6_1_0,NA,NA,form submission,4425.4000002861,432260.5,432255.1,432271.8,436697.20000029,436697.30000019,2024-03-09T08:43:51Z,436705.228,NULL,Schock,mshtuko,s,biashara,kukataza,vichekesho,mshtuko,NA,NA,1,NA,NA,NA,NA,NA,NA,NA,NA,NA,NA,NA,NA,NA,NA,NA,NA,NA,NA,NA
bd655,"""Richtig""-Screen",canvas.Screen,3_0_1_0_6_1_1,NA,NA,timeout,5000.072,436698.9000001,436705.228,436705.228,441688.5,441689.30000019,2024-03-09T08:43:56Z,441705.3,NULL,Schock,mshtuko,s,biashara,kukataza,vichekesho,NA,sdfdsf,1,1,NA,NA,NA,NA,NA,NA,NA,NA,NA,NA,NA,NA,NA,NA,NA,NA,NA,NA,NA
bd655,"""Falsch""-Screen",canvas.Screen,3_0_1_0_6_1_2,NA,NA,skipped,NA,441693.30000019,NA,NA,441688.5,441693.5,2024-03-09T08:43:56Z,441705.3,NULL,Schock,mshtuko,s,biashara,kukataza,vichekesho,NA,sdfdsf,NA,1,NA,NA,NA,NA,NA,NA,NA,NA,NA,NA,NA,NA,NA,NA,NA,NA,NA,NA,NA
bd655,shallow,flow.Sequence,3_0_1_0_6_1,NA,NA,completion,9416.7,432260.5,432255.1,432271.8,441688.5,441693.70000029,2024-03-09T08:43:56Z,441705.3,NULL,Schock,mshtuko,s,biashara,kukataza,vichekesho,NA,sdfdsf,NA,1,NA,NA,NA,NA,NA,NA,NA,NA,NA,NA,NA,NA,NA,NA,NA,NA,NA,NA,NA
bd655,task,flow.Sequence,3_0_1_0_6,NA,NA,completion,9416.7,432260.4000001,432255.1,432271.8,441688.5,441693.80000019,2024-03-09T08:43:56Z,441705.3,NULL,Schock,mshtuko,s,biashara,kukataza,vichekesho,NA,sdfdsf,NA,1,NA,NA,NA,NA,NA,NA,NA,NA,NA,NA,NA,NA,NA,NA,NA,NA,NA,NA,NA
bd655,Deep Question,html.Page,3_0_1_0_7_0_0,NA,NA,form submission,15278.000000191,441694,441688.5,441705.3,456983.30000019,456983.5,2024-03-09T08:44:11Z,456988.3,NULL,Erneuerung,ukarabati,d,NA,NA,NA,ushunji,NA,NA,1,NA,NA,NA,NA,NA,NA,NA,NA,NA,NA,NA,NA,NA,NA,NA,NA,NA,NA,NA
bd655,"""Richtig""-Screen",canvas.Screen,3_0_1_0_7_0_1,NA,NA,skipped,NA,456985.20000029,NA,NA,456983.30000019,456985.4000001,2024-03-09T08:44:11Z,456988.3,NULL,Erneuerung,ukarabati,d,NA,NA,NA,NA,sdfdsf,NA,1,NA,NA,NA,NA,NA,NA,NA,NA,NA,NA,NA,NA,NA,NA,NA,NA,NA,NA,NA
bd655,"""Falsch""-Screen",canvas.Screen,3_0_1_0_7_0_2,NA,NA,timeout,5000.1,456985.80000019,456971.884,456988.3,461971.9,461972.5,2024-03-09T08:44:16Z,461988.4,NULL,Erneuerung,ukarabati,d,NA,NA,NA,NA,sdfdsf,0,1,NA,NA,NA,NA,NA,NA,NA,NA,NA,NA,NA,NA,NA,NA,NA,NA,NA,NA,NA
bd655,deep,flow.Sequence,3_0_1_0_7_0,NA,NA,completion,20266.6,441694,441688.5,441705.3,461971.9,461972.80000019,2024-03-09T08:44:16Z,461988.4,NULL,Erneuerung,ukarabati,d,NA,NA,NA,NA,sdfdsf,NA,1,NA,NA,NA,NA,NA,NA,NA,NA,NA,NA,NA,NA,NA,NA,NA,NA,NA,NA,NA
bd655,shallow,flow.Sequence,3_0_1_0_7_1,NA,NA,skipped,NA,461972.9000001,NA,NA,461971.9,461972.9000001,2024-03-09T08:44:16Z,461988.4,NULL,Erneuerung,ukarabati,d,NA,NA,NA,NA,sdfdsf,NA,1,NA,NA,NA,NA,NA,NA,NA,NA,NA,NA,NA,NA,NA,NA,NA,NA,NA,NA,NA
bd655,task,flow.Sequence,3_0_1_0_7,NA,NA,completion,20266.6,441693.9000001,441688.5,441705.3,461971.9,461973.10000038,2024-03-09T08:44:16Z,461988.4,NULL,Erneuerung,ukarabati,d,NA,NA,NA,NA,sdfdsf,NA,1,NA,NA,NA,NA,NA,NA,NA,NA,NA,NA,NA,NA,NA,NA,NA,NA,NA,NA,NA
bd655,block,flow.Loop,3_0_1_0,NA,NA,completion,134583.288,327392.80000019,327388.612,327388.612,461971.9,461973.30000019,2024-03-09T08:44:16Z,461988.4,NULL,NA,NA,NA,NA,NA,NA,NA,sdfdsf,NA,1,NA,NA,NA,NA,NA,NA,NA,NA,NA,NA,NA,NA,NA,NA,NA,NA,NA,NA,NA
bd655,weiter,canvas.Screen,3_0_1_1,sdf,keypress(Space),response,1289.5000000953,461973.4000001,461971.9,461988.4,463277.9000001,463278.80000019,2024-03-09T08:44:17Z,463305.1,NULL,NA,NA,NA,NA,NA,NA,NA,sdfdsf,NA,1,NA,NA,NA,NA,NA,NA,NA,NA,NA,NA,NA,NA,NA,NA,NA,NA,NA,NA,NA
bd655,check continue,flow.Sequence,3_0_1,NA,NA,completion,135889.2880001,327392.70000029,327388.612,327388.612,463277.9000001,463279,2024-03-09T08:44:17Z,463305.1,NULL,NA,NA,NA,NA,NA,NA,NA,sdfdsf,NA,1,NA,NA,NA,NA,NA,NA,NA,NA,NA,NA,NA,NA,NA,NA,NA,NA,NA,NA,NA
bd655,Deep Question,html.Page,3_0_2_0_0_0_0,NA,NA,form submission,23717.300000095,463316.10000038,463305.014,463305.1,487022.4000001,487022.5,2024-03-09T08:44:41Z,487038.8,NULL,Verpackung,ufungaji,d,NA,NA,NA,ushunji,NA,NA,2,NA,NA,NA,NA,NA,NA,NA,NA,NA,NA,NA,NA,NA,NA,NA,NA,NA,NA,NA
bd655,"""Richtig""-Screen",canvas.Screen,3_0_2_0_0_0_1,NA,NA,skipped,NA,487024.4000001,NA,NA,487022.4000001,487024.5,2024-03-09T08:44:41Z,487038.8,NULL,Verpackung,ufungaji,d,NA,NA,NA,NA,sdf,NA,2,NA,NA,NA,NA,NA,NA,NA,NA,NA,NA,NA,NA,NA,NA,NA,NA,NA,NA,NA
bd655,"""Falsch""-Screen",canvas.Screen,3_0_2_0_0_0_2,NA,NA,timeout,4999.7,487025.10000038,487021.83,487038.8,492021.8,492022.4000001,2024-03-09T08:44:46Z,492038.5,NULL,Verpackung,ufungaji,d,NA,NA,NA,NA,sdf,0,2,NA,NA,NA,NA,NA,NA,NA,NA,NA,NA,NA,NA,NA,NA,NA,NA,NA,NA,NA
bd655,deep,flow.Sequence,3_0_2_0_0_0,NA,NA,completion,28716.7,463316.10000038,463305.014,463305.1,492021.8,492022.70000029,2024-03-09T08:44:46Z,492038.5,NULL,Verpackung,ufungaji,d,NA,NA,NA,NA,sdf,NA,2,NA,NA,NA,NA,NA,NA,NA,NA,NA,NA,NA,NA,NA,NA,NA,NA,NA,NA,NA
bd655,shallow,flow.Sequence,3_0_2_0_0_1,NA,NA,skipped,NA,492022.70000029,NA,NA,492021.8,492022.80000019,2024-03-09T08:44:46Z,492038.5,NULL,Verpackung,ufungaji,d,NA,NA,NA,NA,sdf,NA,2,NA,NA,NA,NA,NA,NA,NA,NA,NA,NA,NA,NA,NA,NA,NA,NA,NA,NA,NA
bd655,task,flow.Sequence,3_0_2_0_0,NA,NA,completion,28716.7,463316,463305.014,463305.1,492021.8,492023,2024-03-09T08:44:46Z,492038.5,NULL,Verpackung,ufungaji,d,NA,NA,NA,NA,sdf,NA,2,NA,NA,NA,NA,NA,NA,NA,NA,NA,NA,NA,NA,NA,NA,NA,NA,NA,NA,NA
bd655,Deep Question,html.Page,3_0_2_0_1_0_0,NA,NA,form submission,20472,492023.10000038,492021.8,492038.5,512510.5,512510.70000029,2024-03-09T08:45:07Z,512521.6,NULL,Erneuerung,ukarabati,d,NA,NA,NA,zalajeta,NA,NA,2,NA,NA,NA,NA,NA,NA,NA,NA,NA,NA,NA,NA,NA,NA,NA,NA,NA,NA,NA
bd655,"""Richtig""-Screen",canvas.Screen,3_0_2_0_1_0_1,NA,NA,skipped,NA,512512.4000001,NA,NA,512510.5,512512.5,2024-03-09T08:45:07Z,512521.6,NULL,Erneuerung,ukarabati,d,NA,NA,NA,NA,sdf,NA,2,NA,NA,NA,NA,NA,NA,NA,NA,NA,NA,NA,NA,NA,NA,NA,NA,NA,NA,NA
bd655,"""Falsch""-Screen",canvas.Screen,3_0_2_0_1_0_2,NA,NA,timeout,5000.2,512513,512505.166,512521.6,517505,517505.80000019,2024-03-09T08:45:12Z,517521.8,NULL,Erneuerung,ukarabati,d,NA,NA,NA,NA,sdf,0,2,NA,NA,NA,NA,NA,NA,NA,NA,NA,NA,NA,NA,NA,NA,NA,NA,NA,NA,NA
bd655,deep,flow.Sequence,3_0_2_0_1_0,NA,NA,completion,25466.5,492023.10000038,492021.8,492038.5,517505,517506.10000038,2024-03-09T08:45:12Z,517521.8,NULL,Erneuerung,ukarabati,d,NA,NA,NA,NA,sdf,NA,2,NA,NA,NA,NA,NA,NA,NA,NA,NA,NA,NA,NA,NA,NA,NA,NA,NA,NA,NA
bd655,shallow,flow.Sequence,3_0_2_0_1_1,NA,NA,skipped,NA,517506.30000019,NA,NA,517505,517506.4000001,2024-03-09T08:45:12Z,517521.8,NULL,Erneuerung,ukarabati,d,NA,NA,NA,NA,sdf,NA,2,NA,NA,NA,NA,NA,NA,NA,NA,NA,NA,NA,NA,NA,NA,NA,NA,NA,NA,NA
bd655,task,flow.Sequence,3_0_2_0_1,NA,NA,completion,25466.5,492023.10000038,492021.8,492038.5,517505,517506.5,2024-03-09T08:45:12Z,517521.8,NULL,Erneuerung,ukarabati,d,NA,NA,NA,NA,sdf,NA,2,NA,NA,NA,NA,NA,NA,NA,NA,NA,NA,NA,NA,NA,NA,NA,NA,NA,NA,NA
bd655,Deep Question,html.Page,3_0_2_0_2_0_0,NA,NA,form submission,38116.7,517506.60000038,517505,517521.8,555638.5,555638.70000029,2024-03-09T08:45:50Z,555655,NULL,Wechsel,ugeuzaji,d,NA,NA,NA,ushunji,NA,NA,2,NA,NA,NA,NA,NA,NA,NA,NA,NA,NA,NA,NA,NA,NA,NA,NA,NA,NA,NA
bd655,"""Richtig""-Screen",canvas.Screen,3_0_2_0_2_0_1,NA,NA,skipped,NA,555640.4000001,NA,NA,555638.5,555640.5,2024-03-09T08:45:50Z,555655,NULL,Wechsel,ugeuzaji,d,NA,NA,NA,NA,sdf,NA,2,NA,NA,NA,NA,NA,NA,NA,NA,NA,NA,NA,NA,NA,NA,NA,NA,NA,NA,NA
bd655,"""Falsch""-Screen",canvas.Screen,3_0_2_0_2_0_2,NA,NA,timeout,5000,555641.20000029,555638.488,555655,560638.4,560639.10000038,2024-03-09T08:45:55Z,560655,NULL,Wechsel,ugeuzaji,d,NA,NA,NA,NA,sdf,0,2,NA,NA,NA,NA,NA,NA,NA,NA,NA,NA,NA,NA,NA,NA,NA,NA,NA,NA,NA
bd655,deep,flow.Sequence,3_0_2_0_2_0,NA,NA,completion,43116.6,517506.60000038,517505,517521.8,560638.4,560639.4000001,2024-03-09T08:45:55Z,560655,NULL,Wechsel,ugeuzaji,d,NA,NA,NA,NA,sdf,NA,2,NA,NA,NA,NA,NA,NA,NA,NA,NA,NA,NA,NA,NA,NA,NA,NA,NA,NA,NA
bd655,shallow,flow.Sequence,3_0_2_0_2_1,NA,NA,skipped,NA,560639.5,NA,NA,560638.4,560639.5,2024-03-09T08:45:55Z,560655,NULL,Wechsel,ugeuzaji,d,NA,NA,NA,NA,sdf,NA,2,NA,NA,NA,NA,NA,NA,NA,NA,NA,NA,NA,NA,NA,NA,NA,NA,NA,NA,NA
bd655,task,flow.Sequence,3_0_2_0_2,NA,NA,completion,43116.6,517506.60000038,517505,517521.8,560638.4,560639.70000029,2024-03-09T08:45:55Z,560655,NULL,Wechsel,ugeuzaji,d,NA,NA,NA,NA,sdf,NA,2,NA,NA,NA,NA,NA,NA,NA,NA,NA,NA,NA,NA,NA,NA,NA,NA,NA,NA,NA
bd655,deep,flow.Sequence,3_0_2_0_3_0,NA,NA,skipped,NA,560639.80000019,NA,NA,560638.4,560639.80000019,2024-03-09T08:45:55Z,560655,NULL,Atmosphäre,angahewa,s,kuteseka,usahihi,kutoamini,NA,sdf,NA,2,NA,NA,NA,NA,NA,NA,NA,NA,NA,NA,NA,NA,NA,NA,NA,NA,NA,NA,NA
bd655,Shallow Question,html.Page,3_0_2_0_3_1_0,NA,NA,form submission,5996.2000002861,560639.9000001,560638.4,560655,566651.20000029,566651.30000019,2024-03-09T08:46:01Z,566654.9,NULL,Atmosphäre,angahewa,s,kuteseka,usahihi,kutoamini,angahewa,NA,NA,2,NA,NA,NA,NA,NA,NA,NA,NA,NA,NA,NA,NA,NA,NA,NA,NA,NA,NA,NA
bd655,"""Richtig""-Screen",canvas.Screen,3_0_2_0_3_1_1,NA,NA,timeout,5000,566653,566639.962,566654.9,571638.4,571639.10000038,2024-03-09T08:46:06Z,571654.9,NULL,Atmosphäre,angahewa,s,kuteseka,usahihi,kutoamini,NA,sdf,1,2,NA,NA,NA,NA,NA,NA,NA,NA,NA,NA,NA,NA,NA,NA,NA,NA,NA,NA,NA
bd655,"""Falsch""-Screen",canvas.Screen,3_0_2_0_3_1_2,NA,NA,skipped,NA,571642.9000001,NA,NA,571638.4,571643.10000038,2024-03-09T08:46:06Z,571654.9,NULL,Atmosphäre,angahewa,s,kuteseka,usahihi,kutoamini,NA,sdf,NA,2,NA,NA,NA,NA,NA,NA,NA,NA,NA,NA,NA,NA,NA,NA,NA,NA,NA,NA,NA
bd655,shallow,flow.Sequence,3_0_2_0_3_1,NA,NA,completion,10983.4,560639.9000001,560638.4,560655,571638.4,571643.30000019,2024-03-09T08:46:06Z,571654.9,NULL,Atmosphäre,angahewa,s,kuteseka,usahihi,kutoamini,NA,sdf,NA,2,NA,NA,NA,NA,NA,NA,NA,NA,NA,NA,NA,NA,NA,NA,NA,NA,NA,NA,NA
bd655,task,flow.Sequence,3_0_2_0_3,NA,NA,completion,10983.4,560639.70000029,560638.4,560655,571638.4,571643.4000001,2024-03-09T08:46:06Z,571654.9,NULL,Atmosphäre,angahewa,s,kuteseka,usahihi,kutoamini,NA,sdf,NA,2,NA,NA,NA,NA,NA,NA,NA,NA,NA,NA,NA,NA,NA,NA,NA,NA,NA,NA,NA
bd655,deep,flow.Sequence,3_0_2_0_4_0,NA,NA,skipped,NA,571643.5,NA,NA,571638.4,571643.60000038,2024-03-09T08:46:06Z,571654.9,NULL,Flexibilität,kubadilika,s,enjini,usikilivu,hesabu,NA,sdf,NA,2,NA,NA,NA,NA,NA,NA,NA,NA,NA,NA,NA,NA,NA,NA,NA,NA,NA,NA,NA
bd655,Shallow Question,html.Page,3_0_2_0_4_1_0,NA,NA,form submission,7722.0000000953,571643.70000029,571638.4,571654.9,579376.9000001,579377.20000029,2024-03-09T08:46:14Z,579388.4,NULL,Flexibilität,kubadilika,s,enjini,usikilivu,hesabu,kubadilika,NA,NA,2,NA,NA,NA,NA,NA,NA,NA,NA,NA,NA,NA,NA,NA,NA,NA,NA,NA,NA,NA
bd655,"""Richtig""-Screen",canvas.Screen,3_0_2_0_4_1_1,NA,NA,timeout,4999.9,579378.70000029,579371.824,579388.4,584371.7,584372.4000001,2024-03-09T08:46:19Z,584388.3,NULL,Flexibilität,kubadilika,s,enjini,usikilivu,hesabu,NA,sdf,1,2,NA,NA,NA,NA,NA,NA,NA,NA,NA,NA,NA,NA,NA,NA,NA,NA,NA,NA,NA
bd655,"""Falsch""-Screen",canvas.Screen,3_0_2_0_4_1_2,NA,NA,skipped,NA,584376.5,NA,NA,584371.7,584376.70000029,2024-03-09T08:46:19Z,584388.3,NULL,Flexibilität,kubadilika,s,enjini,usikilivu,hesabu,NA,sdf,NA,2,NA,NA,NA,NA,NA,NA,NA,NA,NA,NA,NA,NA,NA,NA,NA,NA,NA,NA,NA
bd655,shallow,flow.Sequence,3_0_2_0_4_1,NA,NA,completion,12716.8,571643.70000029,571638.4,571654.9,584371.7,584376.9000001,2024-03-09T08:46:19Z,584388.3,NULL,Flexibilität,kubadilika,s,enjini,usikilivu,hesabu,NA,sdf,NA,2,NA,NA,NA,NA,NA,NA,NA,NA,NA,NA,NA,NA,NA,NA,NA,NA,NA,NA,NA
bd655,task,flow.Sequence,3_0_2_0_4,NA,NA,completion,12716.8,571643.4000001,571638.4,571654.9,584371.7,584377,2024-03-09T08:46:19Z,584388.3,NULL,Flexibilität,kubadilika,s,enjini,usikilivu,hesabu,NA,sdf,NA,2,NA,NA,NA,NA,NA,NA,NA,NA,NA,NA,NA,NA,NA,NA,NA,NA,NA,NA,NA
bd655,deep,flow.Sequence,3_0_2_0_5_0,NA,NA,skipped,NA,584377.10000038,NA,NA,584371.7,584377.20000029,2024-03-09T08:46:19Z,584388.3,NULL,Theorie,nadharia,s,ushungi,mkutano,uwakilishi,NA,sdf,NA,2,NA,NA,NA,NA,NA,NA,NA,NA,NA,NA,NA,NA,NA,NA,NA,NA,NA,NA,NA
bd655,Shallow Question,html.Page,3_0_2_0_5_1_0,NA,NA,form submission,8800.8000003814,584377.30000019,584371.7,584388.3,593189.10000038,593189.30000019,2024-03-09T08:46:27Z,593205,NULL,Theorie,nadharia,s,ushungi,mkutano,uwakilishi,nadharia,NA,NA,2,NA,NA,NA,NA,NA,NA,NA,NA,NA,NA,NA,NA,NA,NA,NA,NA,NA,NA,NA
bd655,"""Richtig""-Screen",canvas.Screen,3_0_2_0_5_1_1,NA,NA,timeout,4999.9,593190.9000001,593189.762,593205,598188.3,598189.10000038,2024-03-09T08:46:32Z,598204.9,NULL,Theorie,nadharia,s,ushungi,mkutano,uwakilishi,NA,sdf,1,2,NA,NA,NA,NA,NA,NA,NA,NA,NA,NA,NA,NA,NA,NA,NA,NA,NA,NA,NA
bd655,"""Falsch""-Screen",canvas.Screen,3_0_2_0_5_1_2,NA,NA,skipped,NA,598193,NA,NA,598188.3,598193.30000019,2024-03-09T08:46:32Z,598204.9,NULL,Theorie,nadharia,s,ushungi,mkutano,uwakilishi,NA,sdf,NA,2,NA,NA,NA,NA,NA,NA,NA,NA,NA,NA,NA,NA,NA,NA,NA,NA,NA,NA,NA
bd655,shallow,flow.Sequence,3_0_2_0_5_1,NA,NA,completion,13800,584377.30000019,584371.7,584388.3,598188.3,598193.4000001,2024-03-09T08:46:32Z,598204.9,NULL,Theorie,nadharia,s,ushungi,mkutano,uwakilishi,NA,sdf,NA,2,NA,NA,NA,NA,NA,NA,NA,NA,NA,NA,NA,NA,NA,NA,NA,NA,NA,NA,NA
bd655,task,flow.Sequence,3_0_2_0_5,NA,NA,completion,13800,584377.10000038,584371.7,584388.3,598188.3,598193.60000038,2024-03-09T08:46:32Z,598204.9,NULL,Theorie,nadharia,s,ushungi,mkutano,uwakilishi,NA,sdf,NA,2,NA,NA,NA,NA,NA,NA,NA,NA,NA,NA,NA,NA,NA,NA,NA,NA,NA,NA,NA
bd655,deep,flow.Sequence,3_0_2_0_6_0,NA,NA,skipped,NA,598193.70000029,NA,NA,598188.3,598193.80000019,2024-03-09T08:46:32Z,598204.9,NULL,Schock,mshtuko,s,biashara,kukataza,vichekesho,NA,sdf,NA,2,NA,NA,NA,NA,NA,NA,NA,NA,NA,NA,NA,NA,NA,NA,NA,NA,NA,NA,NA
bd655,Shallow Question,html.Page,3_0_2_0_6_1_0,NA,NA,form submission,5075.2000003814,598193.9000001,598188.3,598204.9,603280.10000038,603280.4000001,2024-03-09T08:46:37Z,603288.3,NULL,Schock,mshtuko,s,biashara,kukataza,vichekesho,mshtuko,NA,NA,2,NA,NA,NA,NA,NA,NA,NA,NA,NA,NA,NA,NA,NA,NA,NA,NA,NA,NA,NA
bd655,"""Richtig""-Screen",canvas.Screen,3_0_2_0_6_1_1,NA,NA,timeout,5000,603281.9000001,603271.75,603288.3,608271.7,608272.4000001,2024-03-09T08:46:42Z,608288.3,NULL,Schock,mshtuko,s,biashara,kukataza,vichekesho,NA,sdf,1,2,NA,NA,NA,NA,NA,NA,NA,NA,NA,NA,NA,NA,NA,NA,NA,NA,NA,NA,NA
bd655,"""Falsch""-Screen",canvas.Screen,3_0_2_0_6_1_2,NA,NA,skipped,NA,608276.20000029,NA,NA,608271.7,608276.4000001,2024-03-09T08:46:42Z,608288.3,NULL,Schock,mshtuko,s,biashara,kukataza,vichekesho,NA,sdf,NA,2,NA,NA,NA,NA,NA,NA,NA,NA,NA,NA,NA,NA,NA,NA,NA,NA,NA,NA,NA
bd655,shallow,flow.Sequence,3_0_2_0_6_1,NA,NA,completion,10066.8,598193.9000001,598188.3,598204.9,608271.7,608276.60000038,2024-03-09T08:46:42Z,608288.3,NULL,Schock,mshtuko,s,biashara,kukataza,vichekesho,NA,sdf,NA,2,NA,NA,NA,NA,NA,NA,NA,NA,NA,NA,NA,NA,NA,NA,NA,NA,NA,NA,NA
bd655,task,flow.Sequence,3_0_2_0_6,NA,NA,completion,10066.8,598193.70000029,598188.3,598204.9,608271.7,608276.80000019,2024-03-09T08:46:42Z,608288.3,NULL,Schock,mshtuko,s,biashara,kukataza,vichekesho,NA,sdf,NA,2,NA,NA,NA,NA,NA,NA,NA,NA,NA,NA,NA,NA,NA,NA,NA,NA,NA,NA,NA
bd655,Deep Question,html.Page,3_0_2_0_7_0_0,NA,NA,form submission,13159.800000381,608276.9000001,608271.7,608288.3,621448.10000038,621448.30000019,2024-03-09T08:46:56Z,621454.9,NULL,Hoffnung,matarajio,d,NA,NA,NA,kabalika,NA,NA,2,NA,NA,NA,NA,NA,NA,NA,NA,NA,NA,NA,NA,NA,NA,NA,NA,NA,NA,NA
bd655,"""Richtig""-Screen",canvas.Screen,3_0_2_0_7_0_1,NA,NA,skipped,NA,621449.9000001,NA,NA,621448.10000038,621450.10000038,2024-03-09T08:46:56Z,621454.9,NULL,Hoffnung,matarajio,d,NA,NA,NA,NA,sdf,NA,2,NA,NA,NA,NA,NA,NA,NA,NA,NA,NA,NA,NA,NA,NA,NA,NA,NA,NA,NA
bd655,"""Falsch""-Screen",canvas.Screen,3_0_2_0_7_0_2,NA,NA,timeout,5000,621450.60000038,621438.43,621454.9,626438.3,626439.10000038,2024-03-09T08:47:01Z,626454.9,NULL,Hoffnung,matarajio,d,NA,NA,NA,NA,sdf,0,2,NA,NA,NA,NA,NA,NA,NA,NA,NA,NA,NA,NA,NA,NA,NA,NA,NA,NA,NA
bd655,deep,flow.Sequence,3_0_2_0_7_0,NA,NA,completion,18150,608276.9000001,608271.7,608288.3,626438.3,626439.4000001,2024-03-09T08:47:01Z,626454.9,NULL,Hoffnung,matarajio,d,NA,NA,NA,NA,sdf,NA,2,NA,NA,NA,NA,NA,NA,NA,NA,NA,NA,NA,NA,NA,NA,NA,NA,NA,NA,NA
bd655,shallow,flow.Sequence,3_0_2_0_7_1,NA,NA,skipped,NA,626439.5,NA,NA,626438.3,626439.60000038,2024-03-09T08:47:01Z,626454.9,NULL,Hoffnung,matarajio,d,NA,NA,NA,NA,sdf,NA,2,NA,NA,NA,NA,NA,NA,NA,NA,NA,NA,NA,NA,NA,NA,NA,NA,NA,NA,NA
bd655,task,flow.Sequence,3_0_2_0_7,NA,NA,completion,18150,608276.80000019,608271.7,608288.3,626438.3,626439.70000029,2024-03-09T08:47:01Z,626454.9,NULL,Hoffnung,matarajio,d,NA,NA,NA,NA,sdf,NA,2,NA,NA,NA,NA,NA,NA,NA,NA,NA,NA,NA,NA,NA,NA,NA,NA,NA,NA,NA
bd655,block,flow.Loop,3_0_2_0,NA,NA,completion,163133.2,463316,463305.014,463305.1,626438.3,626439.80000019,2024-03-09T08:47:01Z,626454.9,NULL,NA,NA,NA,NA,NA,NA,NA,sdf,NA,2,NA,NA,NA,NA,NA,NA,NA,NA,NA,NA,NA,NA,NA,NA,NA,NA,NA,NA,NA
bd655,weiter,canvas.Screen,3_0_2_1,sdf,keypress(Space),response,1181.7000003814,626439.9000001,626438.3,626454.9,627636.60000038,627637.4000001,2024-03-09T08:47:02Z,627688.36,NULL,NA,NA,NA,NA,NA,NA,NA,sdf,NA,2,NA,NA,NA,NA,NA,NA,NA,NA,NA,NA,NA,NA,NA,NA,NA,NA,NA,NA,NA
bd655,check continue,flow.Sequence,3_0_2,NA,NA,completion,164331.50000038,463316,463305.014,463305.1,627636.60000038,627637.60000038,2024-03-09T08:47:02Z,627688.36,NULL,NA,NA,NA,NA,NA,NA,NA,sdf,NA,2,NA,NA,NA,NA,NA,NA,NA,NA,NA,NA,NA,NA,NA,NA,NA,NA,NA,NA,NA
bd655,deep,flow.Sequence,3_0_3_0_0_0,NA,NA,skipped,NA,627689.20000029,NA,NA,627636.60000038,627689.5,2024-03-09T08:47:02Z,627688.36,NULL,Schock,mshtuko,s,biashara,kukataza,vichekesho,NA,qt,NA,3,NA,NA,NA,NA,NA,NA,NA,NA,NA,NA,NA,NA,NA,NA,NA,NA,NA,NA,NA
bd655,Shallow Question,html.Page,3_0_3_0_0_1_0,NA,NA,form submission,7911.64,627689.60000038,627688.36,627688.36,635600,635600.20000029,2024-03-09T08:47:10Z,635604.8,NULL,Schock,mshtuko,s,biashara,kukataza,vichekesho,mshtuko,NA,NA,3,NA,NA,NA,NA,NA,NA,NA,NA,NA,NA,NA,NA,NA,NA,NA,NA,NA,NA,NA
bd655,"""Richtig""-Screen",canvas.Screen,3_0_3_0_0_1_1,NA,NA,timeout,5000.1,635601.9000001,635588.376,635604.8,640588.3,640589,2024-03-09T08:47:15Z,640604.9,NULL,Schock,mshtuko,s,biashara,kukataza,vichekesho,NA,qt,1,3,NA,NA,NA,NA,NA,NA,NA,NA,NA,NA,NA,NA,NA,NA,NA,NA,NA,NA,NA
bd655,"""Falsch""-Screen",canvas.Screen,3_0_3_0_0_1_2,NA,NA,skipped,NA,640592.80000019,NA,NA,640588.3,640593.10000038,2024-03-09T08:47:15Z,640604.9,NULL,Schock,mshtuko,s,biashara,kukataza,vichekesho,NA,qt,NA,3,NA,NA,NA,NA,NA,NA,NA,NA,NA,NA,NA,NA,NA,NA,NA,NA,NA,NA,NA
bd655,shallow,flow.Sequence,3_0_3_0_0_1,NA,NA,completion,12899.94,627689.60000038,627688.36,627688.36,640588.3,640593.30000019,2024-03-09T08:47:15Z,640604.9,NULL,Schock,mshtuko,s,biashara,kukataza,vichekesho,NA,qt,NA,3,NA,NA,NA,NA,NA,NA,NA,NA,NA,NA,NA,NA,NA,NA,NA,NA,NA,NA,NA
bd655,task,flow.Sequence,3_0_3_0_0,NA,NA,completion,12899.94,627689.20000029,627688.36,627688.36,640588.3,640593.5,2024-03-09T08:47:15Z,640604.9,NULL,Schock,mshtuko,s,biashara,kukataza,vichekesho,NA,qt,NA,3,NA,NA,NA,NA,NA,NA,NA,NA,NA,NA,NA,NA,NA,NA,NA,NA,NA,NA,NA
bd655,Deep Question,html.Page,3_0_3_0_1_0_0,NA,NA,form submission,60390.300000286,640593.60000038,640588.3,640604.9,700995.20000029,700995.4000001,2024-03-09T08:48:15Z,701004.8,NULL,Erneuerung,ukarabati,d,NA,NA,NA,uguameni,NA,NA,3,NA,NA,NA,NA,NA,NA,NA,NA,NA,NA,NA,NA,NA,NA,NA,NA,NA,NA,NA
bd655,"""Richtig""-Screen",canvas.Screen,3_0_3_0_1_0_1,NA,NA,skipped,NA,700997.20000029,NA,NA,700995.20000029,700997.20000029,2024-03-09T08:48:15Z,701004.8,NULL,Erneuerung,ukarabati,d,NA,NA,NA,NA,qt,NA,3,NA,NA,NA,NA,NA,NA,NA,NA,NA,NA,NA,NA,NA,NA,NA,NA,NA,NA,NA
bd655,"""Falsch""-Screen",canvas.Screen,3_0_3_0_1_0_2,NA,NA,timeout,5000,700997.80000019,700988.3,701004.8,705988.3,705988.9000001,2024-03-09T08:48:20Z,706004.8,NULL,Erneuerung,ukarabati,d,NA,NA,NA,NA,qt,0,3,NA,NA,NA,NA,NA,NA,NA,NA,NA,NA,NA,NA,NA,NA,NA,NA,NA,NA,NA
bd655,deep,flow.Sequence,3_0_3_0_1_0,NA,NA,completion,65383.4,640593.5,640588.3,640604.9,705988.3,705989.30000019,2024-03-09T08:48:20Z,706004.8,NULL,Erneuerung,ukarabati,d,NA,NA,NA,NA,qt,NA,3,NA,NA,NA,NA,NA,NA,NA,NA,NA,NA,NA,NA,NA,NA,NA,NA,NA,NA,NA
bd655,shallow,flow.Sequence,3_0_3_0_1_1,NA,NA,skipped,NA,705989.30000019,NA,NA,705988.3,705989.4000001,2024-03-09T08:48:20Z,706004.8,NULL,Erneuerung,ukarabati,d,NA,NA,NA,NA,qt,NA,3,NA,NA,NA,NA,NA,NA,NA,NA,NA,NA,NA,NA,NA,NA,NA,NA,NA,NA,NA
bd655,task,flow.Sequence,3_0_3_0_1,NA,NA,completion,65383.4,640593.5,640588.3,640604.9,705988.3,705989.5,2024-03-09T08:48:20Z,706004.8,NULL,Erneuerung,ukarabati,d,NA,NA,NA,NA,qt,NA,3,NA,NA,NA,NA,NA,NA,NA,NA,NA,NA,NA,NA,NA,NA,NA,NA,NA,NA,NA
bd655,deep,flow.Sequence,3_0_3_0_2_0,NA,NA,skipped,NA,705989.60000038,NA,NA,705988.3,705989.60000038,2024-03-09T08:48:20Z,706004.8,NULL,Atmosphäre,angahewa,s,kuteseka,usahihi,kutoamini,NA,qt,NA,3,NA,NA,NA,NA,NA,NA,NA,NA,NA,NA,NA,NA,NA,NA,NA,NA,NA,NA,NA
bd655,Shallow Question,html.Page,3_0_3_0_2_1_0,NA,NA,form submission,6584.3000003814,705989.70000029,705988.3,706004.8,712589.10000038,712589.20000029,2024-03-09T08:48:27Z,712604.9,NULL,Atmosphäre,angahewa,s,kuteseka,usahihi,kutoamini,angahewa,NA,NA,3,NA,NA,NA,NA,NA,NA,NA,NA,NA,NA,NA,NA,NA,NA,NA,NA,NA,NA,NA
bd655,"""Richtig""-Screen",canvas.Screen,3_0_3_0_2_1_1,NA,NA,timeout,5000,712590.80000019,712588.32,712604.9,717588.2,717588.9000001,2024-03-09T08:48:32Z,717604.9,NULL,Atmosphäre,angahewa,s,kuteseka,usahihi,kutoamini,NA,qt,1,3,NA,NA,NA,NA,NA,NA,NA,NA,NA,NA,NA,NA,NA,NA,NA,NA,NA,NA,NA
bd655,"""Falsch""-Screen",canvas.Screen,3_0_3_0_2_1_2,NA,NA,skipped,NA,717592.70000029,NA,NA,717588.2,717593,2024-03-09T08:48:32Z,717604.9,NULL,Atmosphäre,angahewa,s,kuteseka,usahihi,kutoamini,NA,qt,NA,3,NA,NA,NA,NA,NA,NA,NA,NA,NA,NA,NA,NA,NA,NA,NA,NA,NA,NA,NA
bd655,shallow,flow.Sequence,3_0_3_0_2_1,NA,NA,completion,11583.4,705989.70000029,705988.3,706004.8,717588.2,717593.10000038,2024-03-09T08:48:32Z,717604.9,NULL,Atmosphäre,angahewa,s,kuteseka,usahihi,kutoamini,NA,qt,NA,3,NA,NA,NA,NA,NA,NA,NA,NA,NA,NA,NA,NA,NA,NA,NA,NA,NA,NA,NA
bd655,task,flow.Sequence,3_0_3_0_2,NA,NA,completion,11583.4,705989.60000038,705988.3,706004.8,717588.2,717593.30000019,2024-03-09T08:48:32Z,717604.9,NULL,Atmosphäre,angahewa,s,kuteseka,usahihi,kutoamini,NA,qt,NA,3,NA,NA,NA,NA,NA,NA,NA,NA,NA,NA,NA,NA,NA,NA,NA,NA,NA,NA,NA
bd655,Deep Question,html.Page,3_0_3_0_3_0_0,NA,NA,form submission,23988.1,717593.5,717588.2,717604.9,741593,741593.20000029,2024-03-09T08:48:56Z,741604.7,NULL,Verpackung,ufungaji,d,NA,NA,NA,katalika,NA,NA,3,NA,NA,NA,NA,NA,NA,NA,NA,NA,NA,NA,NA,NA,NA,NA,NA,NA,NA,NA
bd655,"""Richtig""-Screen",canvas.Screen,3_0_3_0_3_0_1,NA,NA,skipped,NA,741594.9000001,NA,NA,741593,741595,2024-03-09T08:48:56Z,741604.7,NULL,Verpackung,ufungaji,d,NA,NA,NA,NA,qt,NA,3,NA,NA,NA,NA,NA,NA,NA,NA,NA,NA,NA,NA,NA,NA,NA,NA,NA,NA,NA
bd655,"""Falsch""-Screen",canvas.Screen,3_0_3_0_3_0_2,NA,NA,timeout,5000.1000000001,741595.5,741588.294,741604.7,746588.2,746589,2024-03-09T08:49:01Z,746604.8,NULL,Verpackung,ufungaji,d,NA,NA,NA,NA,qt,0,3,NA,NA,NA,NA,NA,NA,NA,NA,NA,NA,NA,NA,NA,NA,NA,NA,NA,NA,NA
bd655,deep,flow.Sequence,3_0_3_0_3_0,NA,NA,completion,28983.3,717593.5,717588.2,717604.9,746588.2,746589.4000001,2024-03-09T08:49:01Z,746604.8,NULL,Verpackung,ufungaji,d,NA,NA,NA,NA,qt,NA,3,NA,NA,NA,NA,NA,NA,NA,NA,NA,NA,NA,NA,NA,NA,NA,NA,NA,NA,NA
bd655,shallow,flow.Sequence,3_0_3_0_3_1,NA,NA,skipped,NA,746589.5,NA,NA,746588.2,746589.60000038,2024-03-09T08:49:01Z,746604.8,NULL,Verpackung,ufungaji,d,NA,NA,NA,NA,qt,NA,3,NA,NA,NA,NA,NA,NA,NA,NA,NA,NA,NA,NA,NA,NA,NA,NA,NA,NA,NA
bd655,task,flow.Sequence,3_0_3_0_3,NA,NA,completion,28983.3,717593.4000001,717588.2,717604.9,746588.2,746589.70000029,2024-03-09T08:49:01Z,746604.8,NULL,Verpackung,ufungaji,d,NA,NA,NA,NA,qt,NA,3,NA,NA,NA,NA,NA,NA,NA,NA,NA,NA,NA,NA,NA,NA,NA,NA,NA,NA,NA
bd655,Deep Question,html.Page,3_0_3_0_4_0_0,NA,NA,form submission,11626.2,746589.80000019,746588.2,746604.8,758231,758231.20000029,2024-03-09T08:49:12Z,758238,NULL,Wechsel,ugeuzaji,d,NA,NA,NA,angahewa,NA,NA,3,NA,NA,NA,NA,NA,NA,NA,NA,NA,NA,NA,NA,NA,NA,NA,NA,NA,NA,NA
bd655,"""Richtig""-Screen",canvas.Screen,3_0_3_0_4_0_1,NA,NA,skipped,NA,758232.9000001,NA,NA,758231,758233.10000038,2024-03-09T08:49:12Z,758238,NULL,Wechsel,ugeuzaji,d,NA,NA,NA,NA,qt,NA,3,NA,NA,NA,NA,NA,NA,NA,NA,NA,NA,NA,NA,NA,NA,NA,NA,NA,NA,NA
bd655,"""Falsch""-Screen",canvas.Screen,3_0_3_0_4_0_2,NA,NA,timeout,5000.2,758233.60000038,758221.6,758238,763221.6,763222.30000019,2024-03-09T08:49:17Z,763238.2,NULL,Wechsel,ugeuzaji,d,NA,NA,NA,NA,qt,0,3,NA,NA,NA,NA,NA,NA,NA,NA,NA,NA,NA,NA,NA,NA,NA,NA,NA,NA,NA
bd655,deep,flow.Sequence,3_0_3_0_4_0,NA,NA,completion,16616.8,746589.80000019,746588.2,746604.8,763221.6,763222.60000038,2024-03-09T08:49:17Z,763238.2,NULL,Wechsel,ugeuzaji,d,NA,NA,NA,NA,qt,NA,3,NA,NA,NA,NA,NA,NA,NA,NA,NA,NA,NA,NA,NA,NA,NA,NA,NA,NA,NA
bd655,shallow,flow.Sequence,3_0_3_0_4_1,NA,NA,skipped,NA,763222.70000029,NA,NA,763221.6,763222.80000019,2024-03-09T08:49:17Z,763238.2,NULL,Wechsel,ugeuzaji,d,NA,NA,NA,NA,qt,NA,3,NA,NA,NA,NA,NA,NA,NA,NA,NA,NA,NA,NA,NA,NA,NA,NA,NA,NA,NA
bd655,task,flow.Sequence,3_0_3_0_4,NA,NA,completion,16616.8,746589.80000019,746588.2,746604.8,763221.6,763222.80000019,2024-03-09T08:49:17Z,763238.2,NULL,Wechsel,ugeuzaji,d,NA,NA,NA,NA,qt,NA,3,NA,NA,NA,NA,NA,NA,NA,NA,NA,NA,NA,NA,NA,NA,NA,NA,NA,NA,NA
bd655,Deep Question,html.Page,3_0_3_0_5_0_0,NA,NA,form submission,7361.7000000954,763222.9000001,763221.6,763238.2,770599.9000001,770600.20000029,2024-03-09T08:49:25Z,770604.7,NULL,Hoffnung,matarajio,d,NA,NA,NA,angahewa,NA,NA,3,NA,NA,NA,NA,NA,NA,NA,NA,NA,NA,NA,NA,NA,NA,NA,NA,NA,NA,NA
bd655,"""Richtig""-Screen",canvas.Screen,3_0_3_0_5_0_1,NA,NA,skipped,NA,770601.80000019,NA,NA,770599.9000001,770601.9000001,2024-03-09T08:49:25Z,770604.7,NULL,Hoffnung,matarajio,d,NA,NA,NA,NA,qt,NA,3,NA,NA,NA,NA,NA,NA,NA,NA,NA,NA,NA,NA,NA,NA,NA,NA,NA,NA,NA
bd655,"""Falsch""-Screen",canvas.Screen,3_0_3_0_5_0_2,NA,NA,timeout,5000.1000000001,770602.4000001,770588.246,770604.7,775588.2,775588.9000001,2024-03-09T08:49:30Z,775604.8,NULL,Hoffnung,matarajio,d,NA,NA,NA,NA,qt,0,3,NA,NA,NA,NA,NA,NA,NA,NA,NA,NA,NA,NA,NA,NA,NA,NA,NA,NA,NA
bd655,deep,flow.Sequence,3_0_3_0_5_0,NA,NA,completion,12350,763222.9000001,763221.6,763238.2,775588.2,775589.10000038,2024-03-09T08:49:30Z,775604.8,NULL,Hoffnung,matarajio,d,NA,NA,NA,NA,qt,NA,3,NA,NA,NA,NA,NA,NA,NA,NA,NA,NA,NA,NA,NA,NA,NA,NA,NA,NA,NA
bd655,shallow,flow.Sequence,3_0_3_0_5_1,NA,NA,skipped,NA,775589.20000029,NA,NA,775588.2,775589.20000029,2024-03-09T08:49:30Z,775604.8,NULL,Hoffnung,matarajio,d,NA,NA,NA,NA,qt,NA,3,NA,NA,NA,NA,NA,NA,NA,NA,NA,NA,NA,NA,NA,NA,NA,NA,NA,NA,NA
bd655,task,flow.Sequence,3_0_3_0_5,NA,NA,completion,12350,763222.9000001,763221.6,763238.2,775588.2,775589.4000001,2024-03-09T08:49:30Z,775604.8,NULL,Hoffnung,matarajio,d,NA,NA,NA,NA,qt,NA,3,NA,NA,NA,NA,NA,NA,NA,NA,NA,NA,NA,NA,NA,NA,NA,NA,NA,NA,NA
bd655,deep,flow.Sequence,3_0_3_0_6_0,NA,NA,skipped,NA,775589.5,NA,NA,775588.2,775589.5,2024-03-09T08:49:30Z,775604.8,NULL,Flexibilität,kubadilika,s,enjini,usikilivu,hesabu,NA,qt,NA,3,NA,NA,NA,NA,NA,NA,NA,NA,NA,NA,NA,NA,NA,NA,NA,NA,NA,NA,NA
bd655,Shallow Question,html.Page,3_0_3_0_6_1_0,NA,NA,form submission,7429.0000001907,775589.60000038,775588.2,775604.8,783033.80000019,783033.9000001,2024-03-09T08:49:37Z,783038,NULL,Flexibilität,kubadilika,s,enjini,usikilivu,hesabu,kubadilika,NA,NA,3,NA,NA,NA,NA,NA,NA,NA,NA,NA,NA,NA,NA,NA,NA,NA,NA,NA,NA,NA
bd655,"""Richtig""-Screen",canvas.Screen,3_0_3_0_6_1_1,NA,NA,timeout,5000,783035.5,783021.636,783038,788021.5,788022.20000029,2024-03-09T08:49:42Z,788038,NULL,Flexibilität,kubadilika,s,enjini,usikilivu,hesabu,NA,qt,1,3,NA,NA,NA,NA,NA,NA,NA,NA,NA,NA,NA,NA,NA,NA,NA,NA,NA,NA,NA
bd655,"""Falsch""-Screen",canvas.Screen,3_0_3_0_6_1_2,NA,NA,skipped,NA,788026.10000038,NA,NA,788021.5,788026.30000019,2024-03-09T08:49:42Z,788038,NULL,Flexibilität,kubadilika,s,enjini,usikilivu,hesabu,NA,qt,NA,3,NA,NA,NA,NA,NA,NA,NA,NA,NA,NA,NA,NA,NA,NA,NA,NA,NA,NA,NA
bd655,shallow,flow.Sequence,3_0_3_0_6_1,NA,NA,completion,12416.7,775589.60000038,775588.2,775604.8,788021.5,788026.5,2024-03-09T08:49:42Z,788038,NULL,Flexibilität,kubadilika,s,enjini,usikilivu,hesabu,NA,qt,NA,3,NA,NA,NA,NA,NA,NA,NA,NA,NA,NA,NA,NA,NA,NA,NA,NA,NA,NA,NA
bd655,task,flow.Sequence,3_0_3_0_6,NA,NA,completion,12416.7,775589.4000001,775588.2,775604.8,788021.5,788026.60000038,2024-03-09T08:49:42Z,788038,NULL,Flexibilität,kubadilika,s,enjini,usikilivu,hesabu,NA,qt,NA,3,NA,NA,NA,NA,NA,NA,NA,NA,NA,NA,NA,NA,NA,NA,NA,NA,NA,NA,NA
bd655,deep,flow.Sequence,3_0_3_0_7_0,NA,NA,skipped,NA,788026.70000029,NA,NA,788021.5,788026.80000019,2024-03-09T08:49:42Z,788038,NULL,Theorie,nadharia,s,ushungi,mkutano,uwakilishi,NA,qt,NA,3,NA,NA,NA,NA,NA,NA,NA,NA,NA,NA,NA,NA,NA,NA,NA,NA,NA,NA,NA
bd655,Shallow Question,html.Page,3_0_3_0_7_1_0,NA,NA,form submission,7885,788027,788021.5,788038,795923,795923.10000038,2024-03-09T08:49:50Z,795938,NULL,Theorie,nadharia,s,ushungi,mkutano,uwakilishi,ushungi,NA,NA,3,NA,NA,NA,NA,NA,NA,NA,NA,NA,NA,NA,NA,NA,NA,NA,NA,NA,NA,NA
bd655,"""Richtig""-Screen",canvas.Screen,3_0_3_0_7_1_1,NA,NA,skipped,NA,795924.9000001,NA,NA,795923,795925.20000029,2024-03-09T08:49:50Z,795938,NULL,Theorie,nadharia,s,ushungi,mkutano,uwakilishi,NA,qt,NA,3,NA,NA,NA,NA,NA,NA,NA,NA,NA,NA,NA,NA,NA,NA,NA,NA,NA,NA,NA
bd655,"""Falsch""-Screen",canvas.Screen,3_0_3_0_7_1_2,NA,NA,timeout,5000.2,795925.80000019,795921.6,795938,800921.5,800922.20000029,2024-03-09T08:49:55Z,800938.2,NULL,Theorie,nadharia,s,ushungi,mkutano,uwakilishi,NA,qt,0,3,NA,NA,NA,NA,NA,NA,NA,NA,NA,NA,NA,NA,NA,NA,NA,NA,NA,NA,NA
bd655,shallow,flow.Sequence,3_0_3_0_7_1,NA,NA,completion,12883.5,788026.9000001,788021.5,788038,800921.5,800922.60000038,2024-03-09T08:49:55Z,800938.2,NULL,Theorie,nadharia,s,ushungi,mkutano,uwakilishi,NA,qt,NA,3,NA,NA,NA,NA,NA,NA,NA,NA,NA,NA,NA,NA,NA,NA,NA,NA,NA,NA,NA
bd655,task,flow.Sequence,3_0_3_0_7,NA,NA,completion,12883.5,788026.70000029,788021.5,788038,800921.5,800922.80000019,2024-03-09T08:49:55Z,800938.2,NULL,Theorie,nadharia,s,ushungi,mkutano,uwakilishi,NA,qt,NA,3,NA,NA,NA,NA,NA,NA,NA,NA,NA,NA,NA,NA,NA,NA,NA,NA,NA,NA,NA
bd655,block,flow.Loop,3_0_3_0,NA,NA,completion,173233.14,627689.10000038,627688.36,627688.36,800921.5,800922.9000001,2024-03-09T08:49:55Z,800938.2,NULL,NA,NA,NA,NA,NA,NA,NA,qt,NA,3,NA,NA,NA,NA,NA,NA,NA,NA,NA,NA,NA,NA,NA,NA,NA,NA,NA,NA,NA
bd655,weiter,canvas.Screen,3_0_3_1,sdf,keypress(Space),response,2397.8,800923,800921.5,800938.2,803336,803336.70000029,2024-03-09T08:49:58Z,803371.568,NULL,NA,NA,NA,NA,NA,NA,NA,qt,NA,3,NA,NA,NA,NA,NA,NA,NA,NA,NA,NA,NA,NA,NA,NA,NA,NA,NA,NA,NA
bd655,check continue,flow.Sequence,3_0_3,NA,NA,completion,175647.64,627689.10000038,627688.36,627688.36,803336,803336.80000019,2024-03-09T08:49:58Z,803371.568,NULL,NA,NA,NA,NA,NA,NA,NA,qt,NA,3,NA,NA,NA,NA,NA,NA,NA,NA,NA,NA,NA,NA,NA,NA,NA,NA,NA,NA,NA
bd655,Deep Question,html.Page,3_0_4_0_0_0_0,NA,NA,form submission,22832.632000286,803373.80000019,803371.568,803371.568,826204.20000029,826204.5,2024-03-09T08:50:20Z,826221.5,NULL,Verpackung,ufungaji,d,NA,NA,NA,usuguezi,NA,NA,4,NA,NA,NA,NA,NA,NA,NA,NA,NA,NA,NA,NA,NA,NA,NA,NA,NA,NA,NA
bd655,"""Richtig""-Screen",canvas.Screen,3_0_4_0_0_0_1,NA,NA,skipped,NA,826206.20000029,NA,NA,826204.20000029,826206.30000019,2024-03-09T08:50:20Z,826221.5,NULL,Verpackung,ufungaji,d,NA,NA,NA,NA,sd,NA,4,NA,NA,NA,NA,NA,NA,NA,NA,NA,NA,NA,NA,NA,NA,NA,NA,NA,NA,NA
bd655,"""Falsch""-Screen",canvas.Screen,3_0_4_0_0_0_2,NA,NA,timeout,5000,826206.80000019,826204.87,826221.5,831204.8,831205.5,2024-03-09T08:50:25Z,831221.5,NULL,Verpackung,ufungaji,d,NA,NA,NA,NA,sd,0,4,NA,NA,NA,NA,NA,NA,NA,NA,NA,NA,NA,NA,NA,NA,NA,NA,NA,NA,NA
bd655,deep,flow.Sequence,3_0_4_0_0_0,NA,NA,completion,27833.232,803373.70000029,803371.568,803371.568,831204.8,831205.80000019,2024-03-09T08:50:25Z,831221.5,NULL,Verpackung,ufungaji,d,NA,NA,NA,NA,sd,NA,4,NA,NA,NA,NA,NA,NA,NA,NA,NA,NA,NA,NA,NA,NA,NA,NA,NA,NA,NA
bd655,shallow,flow.Sequence,3_0_4_0_0_1,NA,NA,skipped,NA,831205.9000001,NA,NA,831204.8,831206,2024-03-09T08:50:25Z,831221.5,NULL,Verpackung,ufungaji,d,NA,NA,NA,NA,sd,NA,4,NA,NA,NA,NA,NA,NA,NA,NA,NA,NA,NA,NA,NA,NA,NA,NA,NA,NA,NA
bd655,task,flow.Sequence,3_0_4_0_0,NA,NA,completion,27833.232,803373.70000029,803371.568,803371.568,831204.8,831206.10000038,2024-03-09T08:50:25Z,831221.5,NULL,Verpackung,ufungaji,d,NA,NA,NA,NA,sd,NA,4,NA,NA,NA,NA,NA,NA,NA,NA,NA,NA,NA,NA,NA,NA,NA,NA,NA,NA,NA
bd655,Deep Question,html.Page,3_0_4_0_1_0_0,NA,NA,form submission,39194.400000095004,831206.20000029,831204.8,831221.5,870415.9000001,870416.10000038,2024-03-09T08:51:05Z,870438.1,NULL,Hoffnung,matarajio,d,NA,NA,NA,kataliba,NA,NA,4,NA,NA,NA,NA,NA,NA,NA,NA,NA,NA,NA,NA,NA,NA,NA,NA,NA,NA,NA
bd655,"""Richtig""-Screen",canvas.Screen,3_0_4_0_1_0_1,NA,NA,skipped,NA,870417.80000019,NA,NA,870415.9000001,870417.9000001,2024-03-09T08:51:05Z,870438.1,NULL,Hoffnung,matarajio,d,NA,NA,NA,NA,sd,NA,4,NA,NA,NA,NA,NA,NA,NA,NA,NA,NA,NA,NA,NA,NA,NA,NA,NA,NA,NA
bd655,"""Falsch""-Screen",canvas.Screen,3_0_4_0_1_0_2,NA,NA,timeout,4999.9,870418.4000001,870421.5,870438.1,875421.4,875422.10000038,2024-03-09T08:51:10Z,875438,NULL,Hoffnung,matarajio,d,NA,NA,NA,NA,sd,0,4,NA,NA,NA,NA,NA,NA,NA,NA,NA,NA,NA,NA,NA,NA,NA,NA,NA,NA,NA
bd655,deep,flow.Sequence,3_0_4_0_1_0,NA,NA,completion,44199.9,831206.10000038,831204.8,831221.5,875421.4,875422.5,2024-03-09T08:51:10Z,875438,NULL,Hoffnung,matarajio,d,NA,NA,NA,NA,sd,NA,4,NA,NA,NA,NA,NA,NA,NA,NA,NA,NA,NA,NA,NA,NA,NA,NA,NA,NA,NA
bd655,shallow,flow.Sequence,3_0_4_0_1_1,NA,NA,skipped,NA,875422.60000038,NA,NA,875421.4,875422.70000029,2024-03-09T08:51:10Z,875438,NULL,Hoffnung,matarajio,d,NA,NA,NA,NA,sd,NA,4,NA,NA,NA,NA,NA,NA,NA,NA,NA,NA,NA,NA,NA,NA,NA,NA,NA,NA,NA
bd655,task,flow.Sequence,3_0_4_0_1,NA,NA,completion,44199.9,831206.10000038,831204.8,831221.5,875421.4,875422.80000019,2024-03-09T08:51:10Z,875438,NULL,Hoffnung,matarajio,d,NA,NA,NA,NA,sd,NA,4,NA,NA,NA,NA,NA,NA,NA,NA,NA,NA,NA,NA,NA,NA,NA,NA,NA,NA,NA
bd655,deep,flow.Sequence,3_0_4_0_2_0,NA,NA,skipped,NA,875422.9000001,NA,NA,875421.4,875422.9000001,2024-03-09T08:51:10Z,875438,NULL,Theorie,nadharia,s,ushungi,mkutano,uwakilishi,NA,sd,NA,4,NA,NA,NA,NA,NA,NA,NA,NA,NA,NA,NA,NA,NA,NA,NA,NA,NA,NA,NA
bd655,Shallow Question,html.Page,3_0_4_0_2_1_0,NA,NA,form submission,4003.7000002861,875423,875421.4,875438,879441.70000029,879441.9000001,2024-03-09T08:51:14Z,879454.5,NULL,Theorie,nadharia,s,ushungi,mkutano,uwakilishi,nadharia,NA,NA,4,NA,NA,NA,NA,NA,NA,NA,NA,NA,NA,NA,NA,NA,NA,NA,NA,NA,NA,NA
bd655,"""Richtig""-Screen",canvas.Screen,3_0_4_0_2_1_1,NA,NA,timeout,5000.3,879443.60000038,879438.184,879454.5,884438.1,884438.9000001,2024-03-09T08:51:19Z,884454.8,NULL,Theorie,nadharia,s,ushungi,mkutano,uwakilishi,NA,sd,1,4,NA,NA,NA,NA,NA,NA,NA,NA,NA,NA,NA,NA,NA,NA,NA,NA,NA,NA,NA
bd655,"""Falsch""-Screen",canvas.Screen,3_0_4_0_2_1_2,NA,NA,skipped,NA,884443,NA,NA,884438.1,884443.10000038,2024-03-09T08:51:19Z,884454.8,NULL,Theorie,nadharia,s,ushungi,mkutano,uwakilishi,NA,sd,NA,4,NA,NA,NA,NA,NA,NA,NA,NA,NA,NA,NA,NA,NA,NA,NA,NA,NA,NA,NA
bd655,shallow,flow.Sequence,3_0_4_0_2_1,NA,NA,completion,9000.1,875423,875421.4,875438,884438.1,884443.30000019,2024-03-09T08:51:19Z,884454.8,NULL,Theorie,nadharia,s,ushungi,mkutano,uwakilishi,NA,sd,NA,4,NA,NA,NA,NA,NA,NA,NA,NA,NA,NA,NA,NA,NA,NA,NA,NA,NA,NA,NA
bd655,task,flow.Sequence,3_0_4_0_2,NA,NA,completion,9000.1,875422.9000001,875421.4,875438,884438.1,884443.5,2024-03-09T08:51:19Z,884454.8,NULL,Theorie,nadharia,s,ushungi,mkutano,uwakilishi,NA,sd,NA,4,NA,NA,NA,NA,NA,NA,NA,NA,NA,NA,NA,NA,NA,NA,NA,NA,NA,NA,NA
bd655,Deep Question,html.Page,3_0_4_0_3_0_0,NA,NA,form submission,12856.900000286,884443.60000038,884438.1,884454.8,897311.70000029,897311.9000001,2024-03-09T08:51:32Z,897321.3,NULL,Erneuerung,ukarabati,d,NA,NA,NA,ushunji,NA,NA,4,NA,NA,NA,NA,NA,NA,NA,NA,NA,NA,NA,NA,NA,NA,NA,NA,NA,NA,NA
bd655,"""Richtig""-Screen",canvas.Screen,3_0_4_0_3_0_1,NA,NA,skipped,NA,897313.5,NA,NA,897311.70000029,897313.70000029,2024-03-09T08:51:32Z,897321.3,NULL,Erneuerung,ukarabati,d,NA,NA,NA,NA,sd,NA,4,NA,NA,NA,NA,NA,NA,NA,NA,NA,NA,NA,NA,NA,NA,NA,NA,NA,NA,NA
bd655,"""Falsch""-Screen",canvas.Screen,3_0_4_0_3_0_2,NA,NA,timeout,5000.1,897314.30000019,897304.83,897321.3,902304.8,902305.4000001,2024-03-09T08:51:37Z,902321.4,NULL,Erneuerung,ukarabati,d,NA,NA,NA,NA,sd,0,4,NA,NA,NA,NA,NA,NA,NA,NA,NA,NA,NA,NA,NA,NA,NA,NA,NA,NA,NA
bd655,deep,flow.Sequence,3_0_4_0_3_0,NA,NA,completion,17850,884443.60000038,884438.1,884454.8,902304.8,902305.70000029,2024-03-09T08:51:37Z,902321.4,NULL,Erneuerung,ukarabati,d,NA,NA,NA,NA,sd,NA,4,NA,NA,NA,NA,NA,NA,NA,NA,NA,NA,NA,NA,NA,NA,NA,NA,NA,NA,NA
bd655,shallow,flow.Sequence,3_0_4_0_3_1,NA,NA,skipped,NA,902305.80000019,NA,NA,902304.8,902305.9000001,2024-03-09T08:51:37Z,902321.4,NULL,Erneuerung,ukarabati,d,NA,NA,NA,NA,sd,NA,4,NA,NA,NA,NA,NA,NA,NA,NA,NA,NA,NA,NA,NA,NA,NA,NA,NA,NA,NA
bd655,task,flow.Sequence,3_0_4_0_3,NA,NA,completion,17850,884443.60000038,884438.1,884454.8,902304.8,902306.10000038,2024-03-09T08:51:37Z,902321.4,NULL,Erneuerung,ukarabati,d,NA,NA,NA,NA,sd,NA,4,NA,NA,NA,NA,NA,NA,NA,NA,NA,NA,NA,NA,NA,NA,NA,NA,NA,NA,NA
bd655,deep,flow.Sequence,3_0_4_0_4_0,NA,NA,skipped,NA,902306.10000038,NA,NA,902304.8,902306.20000029,2024-03-09T08:51:37Z,902321.4,NULL,Schock,mshtuko,s,biashara,kukataza,vichekesho,NA,sd,NA,4,NA,NA,NA,NA,NA,NA,NA,NA,NA,NA,NA,NA,NA,NA,NA,NA,NA,NA,NA
bd655,Shallow Question,html.Page,3_0_4_0_4_1_0,NA,NA,form submission,5693.3000002861,902306.30000019,902304.8,902321.4,908014.70000029,908014.9000001,2024-03-09T08:51:42Z,908021.2,NULL,Schock,mshtuko,s,biashara,kukataza,vichekesho,mshtuko,NA,NA,4,NA,NA,NA,NA,NA,NA,NA,NA,NA,NA,NA,NA,NA,NA,NA,NA,NA,NA,NA
bd655,"""Richtig""-Screen",canvas.Screen,3_0_4_0_4_1_1,NA,NA,timeout,5000.1000000001,908016.4000001,908004.93,908021.2,913004.7,913005.30000019,2024-03-09T08:51:47Z,913021.3,NULL,Schock,mshtuko,s,biashara,kukataza,vichekesho,NA,sd,1,4,NA,NA,NA,NA,NA,NA,NA,NA,NA,NA,NA,NA,NA,NA,NA,NA,NA,NA,NA
bd655,"""Falsch""-Screen",canvas.Screen,3_0_4_0_4_1_2,NA,NA,skipped,NA,913009.10000038,NA,NA,913004.7,913009.4000001,2024-03-09T08:51:47Z,913021.3,NULL,Schock,mshtuko,s,biashara,kukataza,vichekesho,NA,sd,NA,4,NA,NA,NA,NA,NA,NA,NA,NA,NA,NA,NA,NA,NA,NA,NA,NA,NA,NA,NA
bd655,shallow,flow.Sequence,3_0_4_0_4_1,NA,NA,completion,10683.3,902306.20000029,902304.8,902321.4,913004.7,913009.5,2024-03-09T08:51:47Z,913021.3,NULL,Schock,mshtuko,s,biashara,kukataza,vichekesho,NA,sd,NA,4,NA,NA,NA,NA,NA,NA,NA,NA,NA,NA,NA,NA,NA,NA,NA,NA,NA,NA,NA
bd655,task,flow.Sequence,3_0_4_0_4,NA,NA,completion,10683.3,902306.10000038,902304.8,902321.4,913004.7,913009.70000029,2024-03-09T08:51:47Z,913021.3,NULL,Schock,mshtuko,s,biashara,kukataza,vichekesho,NA,sd,NA,4,NA,NA,NA,NA,NA,NA,NA,NA,NA,NA,NA,NA,NA,NA,NA,NA,NA,NA,NA
bd655,deep,flow.Sequence,3_0_4_0_5_0,NA,NA,skipped,NA,913009.80000019,NA,NA,913004.7,913009.9000001,2024-03-09T08:51:47Z,913021.3,NULL,Flexibilität,kubadilika,s,enjini,usikilivu,hesabu,NA,sd,NA,4,NA,NA,NA,NA,NA,NA,NA,NA,NA,NA,NA,NA,NA,NA,NA,NA,NA,NA,NA
bd655,Shallow Question,html.Page,3_0_4_0_5_1_0,NA,NA,form submission,7939.3000003814,913009.9000001,913004.7,913021.3,920960.60000038,920960.80000019,2024-03-09T08:51:55Z,920971.4,NULL,Flexibilität,kubadilika,s,enjini,usikilivu,hesabu,kubadilika,NA,NA,4,NA,NA,NA,NA,NA,NA,NA,NA,NA,NA,NA,NA,NA,NA,NA,NA,NA,NA,NA
bd655,"""Richtig""-Screen",canvas.Screen,3_0_4_0_5_1_1,NA,NA,timeout,4999.9,920962.5,920954.796,920971.4,925954.7,925955.4000001,2024-03-09T08:52:00Z,925971.3,NULL,Flexibilität,kubadilika,s,enjini,usikilivu,hesabu,NA,sd,1,4,NA,NA,NA,NA,NA,NA,NA,NA,NA,NA,NA,NA,NA,NA,NA,NA,NA,NA,NA
bd655,"""Falsch""-Screen",canvas.Screen,3_0_4_0_5_1_2,NA,NA,skipped,NA,925959.20000029,NA,NA,925954.7,925959.5,2024-03-09T08:52:00Z,925971.3,NULL,Flexibilität,kubadilika,s,enjini,usikilivu,hesabu,NA,sd,NA,4,NA,NA,NA,NA,NA,NA,NA,NA,NA,NA,NA,NA,NA,NA,NA,NA,NA,NA,NA
bd655,shallow,flow.Sequence,3_0_4_0_5_1,NA,NA,completion,12933.4,913009.9000001,913004.7,913021.3,925954.7,925959.60000038,2024-03-09T08:52:00Z,925971.3,NULL,Flexibilität,kubadilika,s,enjini,usikilivu,hesabu,NA,sd,NA,4,NA,NA,NA,NA,NA,NA,NA,NA,NA,NA,NA,NA,NA,NA,NA,NA,NA,NA,NA
bd655,task,flow.Sequence,3_0_4_0_5,NA,NA,completion,12933.4,913009.80000019,913004.7,913021.3,925954.7,925959.70000029,2024-03-09T08:52:00Z,925971.3,NULL,Flexibilität,kubadilika,s,enjini,usikilivu,hesabu,NA,sd,NA,4,NA,NA,NA,NA,NA,NA,NA,NA,NA,NA,NA,NA,NA,NA,NA,NA,NA,NA,NA
bd655,deep,flow.Sequence,3_0_4_0_6_0,NA,NA,skipped,NA,925959.9000001,NA,NA,925954.7,925960,2024-03-09T08:52:00Z,925971.3,NULL,Atmosphäre,angahewa,s,kuteseka,usahihi,kutoamini,NA,sd,NA,4,NA,NA,NA,NA,NA,NA,NA,NA,NA,NA,NA,NA,NA,NA,NA,NA,NA,NA,NA
bd655,Shallow Question,html.Page,3_0_4_0_6_1_0,NA,NA,form submission,5020.4000002861,925960,925954.7,925971.3,930991.70000029,930991.9000001,2024-03-09T08:52:05Z,931004.6,NULL,Atmosphäre,angahewa,s,kuteseka,usahihi,kutoamini,angahewa,NA,NA,4,NA,NA,NA,NA,NA,NA,NA,NA,NA,NA,NA,NA,NA,NA,NA,NA,NA,NA,NA
bd655,"""Richtig""-Screen",canvas.Screen,3_0_4_0_6_1_1,NA,NA,timeout,5000.1,930993.4000001,930988.116,931004.6,935988,935988.80000019,2024-03-09T08:52:10Z,936004.7,NULL,Atmosphäre,angahewa,s,kuteseka,usahihi,kutoamini,NA,sd,1,4,NA,NA,NA,NA,NA,NA,NA,NA,NA,NA,NA,NA,NA,NA,NA,NA,NA,NA,NA
bd655,"""Falsch""-Screen",canvas.Screen,3_0_4_0_6_1_2,NA,NA,skipped,NA,935992.80000019,NA,NA,935988,935993,2024-03-09T08:52:10Z,936004.7,NULL,Atmosphäre,angahewa,s,kuteseka,usahihi,kutoamini,NA,sd,NA,4,NA,NA,NA,NA,NA,NA,NA,NA,NA,NA,NA,NA,NA,NA,NA,NA,NA,NA,NA
bd655,shallow,flow.Sequence,3_0_4_0_6_1,NA,NA,completion,10016.7,925960,925954.7,925971.3,935988,935993.20000029,2024-03-09T08:52:10Z,936004.7,NULL,Atmosphäre,angahewa,s,kuteseka,usahihi,kutoamini,NA,sd,NA,4,NA,NA,NA,NA,NA,NA,NA,NA,NA,NA,NA,NA,NA,NA,NA,NA,NA,NA,NA
bd655,task,flow.Sequence,3_0_4_0_6,NA,NA,completion,10016.7,925959.9000001,925954.7,925971.3,935988,935993.30000019,2024-03-09T08:52:10Z,936004.7,NULL,Atmosphäre,angahewa,s,kuteseka,usahihi,kutoamini,NA,sd,NA,4,NA,NA,NA,NA,NA,NA,NA,NA,NA,NA,NA,NA,NA,NA,NA,NA,NA,NA,NA
bd655,Deep Question,html.Page,3_0_4_0_7_0_0,NA,NA,form submission,38851.900000382,935993.5,935988,936004.7,974856.60000038,974856.9000001,2024-03-09T08:52:49Z,974871.2,NULL,Wechsel,ugeuzaji,d,NA,NA,NA,ushunji,NA,NA,4,NA,NA,NA,NA,NA,NA,NA,NA,NA,NA,NA,NA,NA,NA,NA,NA,NA,NA,NA
bd655,"""Richtig""-Screen",canvas.Screen,3_0_4_0_7_0_1,NA,NA,skipped,NA,974858.60000038,NA,NA,974856.60000038,974858.70000029,2024-03-09T08:52:49Z,974871.2,NULL,Wechsel,ugeuzaji,d,NA,NA,NA,NA,sd,NA,4,NA,NA,NA,NA,NA,NA,NA,NA,NA,NA,NA,NA,NA,NA,NA,NA,NA,NA,NA
bd655,"""Falsch""-Screen",canvas.Screen,3_0_4_0_7_0_2,NA,NA,timeout,5000.2000000001,974859.20000029,974854.8,974871.2,979854.6,979855.4000001,2024-03-09T08:52:54Z,979871.4,NULL,Wechsel,ugeuzaji,d,NA,NA,NA,NA,sd,0,4,NA,NA,NA,NA,NA,NA,NA,NA,NA,NA,NA,NA,NA,NA,NA,NA,NA,NA,NA
bd655,deep,flow.Sequence,3_0_4_0_7_0,NA,NA,completion,43849.9,935993.5,935988,936004.7,979854.6,979855.70000029,2024-03-09T08:52:54Z,979871.4,NULL,Wechsel,ugeuzaji,d,NA,NA,NA,NA,sd,NA,4,NA,NA,NA,NA,NA,NA,NA,NA,NA,NA,NA,NA,NA,NA,NA,NA,NA,NA,NA
bd655,shallow,flow.Sequence,3_0_4_0_7_1,NA,NA,skipped,NA,979855.70000029,NA,NA,979854.6,979855.80000019,2024-03-09T08:52:54Z,979871.4,NULL,Wechsel,ugeuzaji,d,NA,NA,NA,NA,sd,NA,4,NA,NA,NA,NA,NA,NA,NA,NA,NA,NA,NA,NA,NA,NA,NA,NA,NA,NA,NA
bd655,task,flow.Sequence,3_0_4_0_7,NA,NA,completion,43849.9,935993.4000001,935988,936004.7,979854.6,979856,2024-03-09T08:52:54Z,979871.4,NULL,Wechsel,ugeuzaji,d,NA,NA,NA,NA,sd,NA,4,NA,NA,NA,NA,NA,NA,NA,NA,NA,NA,NA,NA,NA,NA,NA,NA,NA,NA,NA
bd655,block,flow.Loop,3_0_4_0,NA,NA,completion,176483.032,803373.70000029,803371.568,803371.568,979854.6,979856.10000038,2024-03-09T08:52:54Z,979871.4,NULL,NA,NA,NA,NA,NA,NA,NA,sd,NA,4,NA,NA,NA,NA,NA,NA,NA,NA,NA,NA,NA,NA,NA,NA,NA,NA,NA,NA,NA
bd655,weiter,canvas.Screen,3_0_4_1,sdf,keypress(Space),response,1401.9000001907,979856.20000029,979854.6,979871.4,981273.30000019,981274.10000038,2024-03-09T08:52:55Z,981304.934,NULL,NA,NA,NA,NA,NA,NA,NA,sd,NA,4,NA,NA,NA,NA,NA,NA,NA,NA,NA,NA,NA,NA,NA,NA,NA,NA,NA,NA,NA
bd655,check continue,flow.Sequence,3_0_4,NA,NA,completion,177901.73200019,803373.70000029,803371.568,803371.568,981273.30000019,981274.4000001,2024-03-09T08:52:55Z,981304.934,NULL,NA,NA,NA,NA,NA,NA,NA,sd,NA,4,NA,NA,NA,NA,NA,NA,NA,NA,NA,NA,NA,NA,NA,NA,NA,NA,NA,NA,NA
bd655,Deep Question,html.Page,3_0_5_0_0_0_0,NA,NA,form submission,12181.866000191,981312.4000001,981304.934,981304.934,993486.80000019,993486.9000001,2024-03-09T08:53:08Z,993488.052,NULL,Erneuerung,ukarabati,d,NA,NA,NA,uguezaji,NA,NA,5,NA,NA,NA,NA,NA,NA,NA,NA,NA,NA,NA,NA,NA,NA,NA,NA,NA,NA,NA
bd655,"""Richtig""-Screen",canvas.Screen,3_0_5_0_0_0_1,NA,NA,skipped,NA,993488.5,NA,NA,993486.80000019,993488.70000029,2024-03-09T08:53:08Z,993488.052,NULL,Erneuerung,ukarabati,d,NA,NA,NA,NA,sdf,NA,5,NA,NA,NA,NA,NA,NA,NA,NA,NA,NA,NA,NA,NA,NA,NA,NA,NA,NA,NA
bd655,"""Falsch""-Screen",canvas.Screen,3_0_5_0_0_0_2,NA,NA,timeout,4999.948,993489.20000029,993488.052,993488.052,998471.3,998472.10000038,2024-03-09T08:53:13Z,998488,NULL,Erneuerung,ukarabati,d,NA,NA,NA,NA,sdf,0,5,NA,NA,NA,NA,NA,NA,NA,NA,NA,NA,NA,NA,NA,NA,NA,NA,NA,NA,NA
bd655,deep,flow.Sequence,3_0_5_0_0_0,NA,NA,completion,17166.366,981312.4000001,981304.934,981304.934,998471.3,998472.30000019,2024-03-09T08:53:13Z,998488,NULL,Erneuerung,ukarabati,d,NA,NA,NA,NA,sdf,NA,5,NA,NA,NA,NA,NA,NA,NA,NA,NA,NA,NA,NA,NA,NA,NA,NA,NA,NA,NA
bd655,shallow,flow.Sequence,3_0_5_0_0_1,NA,NA,skipped,NA,998472.5,NA,NA,998471.3,998472.60000038,2024-03-09T08:53:13Z,998488,NULL,Erneuerung,ukarabati,d,NA,NA,NA,NA,sdf,NA,5,NA,NA,NA,NA,NA,NA,NA,NA,NA,NA,NA,NA,NA,NA,NA,NA,NA,NA,NA
bd655,task,flow.Sequence,3_0_5_0_0,NA,NA,completion,17166.366,981312.4000001,981304.934,981304.934,998471.3,998472.70000029,2024-03-09T08:53:13Z,998488,NULL,Erneuerung,ukarabati,d,NA,NA,NA,NA,sdf,NA,5,NA,NA,NA,NA,NA,NA,NA,NA,NA,NA,NA,NA,NA,NA,NA,NA,NA,NA,NA
bd655,deep,flow.Sequence,3_0_5_0_1_0,NA,NA,skipped,NA,998472.80000019,NA,NA,998471.3,998472.9000001,2024-03-09T08:53:13Z,998488,NULL,Flexibilität,kubadilika,s,enjini,usikilivu,hesabu,NA,sdf,NA,5,NA,NA,NA,NA,NA,NA,NA,NA,NA,NA,NA,NA,NA,NA,NA,NA,NA,NA,NA
bd655,Shallow Question,html.Page,3_0_5_0_1_1_0,NA,NA,form submission,7033.5,998472.9000001,998471.3,998488,1005521.5,1005521.7000003,2024-03-09T08:53:20Z,1005538.3,NULL,Flexibilität,kubadilika,s,enjini,usikilivu,hesabu,kubadilika,NA,NA,5,NA,NA,NA,NA,NA,NA,NA,NA,NA,NA,NA,NA,NA,NA,NA,NA,NA,NA,NA
bd655,"""Richtig""-Screen",canvas.Screen,3_0_5_0_1_1_1,NA,NA,timeout,4999.6,1005523.4000001,1005521.388,1005538.3,1010521.3,1010522.1000004,2024-03-09T08:53:25Z,1010537.9,NULL,Flexibilität,kubadilika,s,enjini,usikilivu,hesabu,NA,sdf,1,5,NA,NA,NA,NA,NA,NA,NA,NA,NA,NA,NA,NA,NA,NA,NA,NA,NA,NA,NA
bd655,"""Falsch""-Screen",canvas.Screen,3_0_5_0_1_1_2,NA,NA,skipped,NA,1010526.2000003,NA,NA,1010521.3,1010526.3000002,2024-03-09T08:53:25Z,1010537.9,NULL,Flexibilität,kubadilika,s,enjini,usikilivu,hesabu,NA,sdf,NA,5,NA,NA,NA,NA,NA,NA,NA,NA,NA,NA,NA,NA,NA,NA,NA,NA,NA,NA,NA
bd655,shallow,flow.Sequence,3_0_5_0_1_1,NA,NA,completion,12033.3,998472.9000001,998471.3,998488,1010521.3,1010526.6000004,2024-03-09T08:53:25Z,1010537.9,NULL,Flexibilität,kubadilika,s,enjini,usikilivu,hesabu,NA,sdf,NA,5,NA,NA,NA,NA,NA,NA,NA,NA,NA,NA,NA,NA,NA,NA,NA,NA,NA,NA,NA
bd655,task,flow.Sequence,3_0_5_0_1,NA,NA,completion,12033.3,998472.80000019,998471.3,998488,1010521.3,1010526.7000003,2024-03-09T08:53:25Z,1010537.9,NULL,Flexibilität,kubadilika,s,enjini,usikilivu,hesabu,NA,sdf,NA,5,NA,NA,NA,NA,NA,NA,NA,NA,NA,NA,NA,NA,NA,NA,NA,NA,NA,NA,NA
bd655,Deep Question,html.Page,3_0_5_0_2_0_0,NA,NA,form submission,24859.700000381,1010526.9000001,1010521.3,1010537.9,1035397.6000004,1035397.9000001,2024-03-09T08:53:50Z,1035404.4,NULL,Wechsel,ugeuzaji,d,NA,NA,NA,uguezaji,NA,NA,5,NA,NA,NA,NA,NA,NA,NA,NA,NA,NA,NA,NA,NA,NA,NA,NA,NA,NA,NA
bd655,"""Richtig""-Screen",canvas.Screen,3_0_5_0_2_0_1,NA,NA,skipped,NA,1035399.5,NA,NA,1035397.6000004,1035399.6000004,2024-03-09T08:53:50Z,1035404.4,NULL,Wechsel,ugeuzaji,d,NA,NA,NA,NA,sdf,NA,5,NA,NA,NA,NA,NA,NA,NA,NA,NA,NA,NA,NA,NA,NA,NA,NA,NA,NA,NA
bd655,"""Falsch""-Screen",canvas.Screen,3_0_5_0_2_0_2,NA,NA,timeout,5000.2999999999,1035400.2000003,1035388.022,1035404.4,1040387.9,1040388.7000003,2024-03-09T08:53:55Z,1040404.7,NULL,Wechsel,ugeuzaji,d,NA,NA,NA,NA,sdf,0,5,NA,NA,NA,NA,NA,NA,NA,NA,NA,NA,NA,NA,NA,NA,NA,NA,NA,NA,NA
bd655,deep,flow.Sequence,3_0_5_0_2_0,NA,NA,completion,29850,1010526.8000002,1010521.3,1010537.9,1040387.9,1040389,2024-03-09T08:53:55Z,1040404.7,NULL,Wechsel,ugeuzaji,d,NA,NA,NA,NA,sdf,NA,5,NA,NA,NA,NA,NA,NA,NA,NA,NA,NA,NA,NA,NA,NA,NA,NA,NA,NA,NA
bd655,shallow,flow.Sequence,3_0_5_0_2_1,NA,NA,skipped,NA,1040389,NA,NA,1040387.9,1040389.1000004,2024-03-09T08:53:55Z,1040404.7,NULL,Wechsel,ugeuzaji,d,NA,NA,NA,NA,sdf,NA,5,NA,NA,NA,NA,NA,NA,NA,NA,NA,NA,NA,NA,NA,NA,NA,NA,NA,NA,NA
bd655,task,flow.Sequence,3_0_5_0_2,NA,NA,completion,29850,1010526.8000002,1010521.3,1010537.9,1040387.9,1040389.3000002,2024-03-09T08:53:55Z,1040404.7,NULL,Wechsel,ugeuzaji,d,NA,NA,NA,NA,sdf,NA,5,NA,NA,NA,NA,NA,NA,NA,NA,NA,NA,NA,NA,NA,NA,NA,NA,NA,NA,NA
bd655,Deep Question,html.Page,3_0_5_0_3_0_0,NA,NA,form submission,17168.8,1040389.4000001,1040387.9,1040404.7,1057573.5,1057573.8000002,2024-03-09T08:54:12Z,1057587.9,NULL,Hoffnung,matarajio,d,NA,NA,NA,ugeuzaji,NA,NA,5,NA,NA,NA,NA,NA,NA,NA,NA,NA,NA,NA,NA,NA,NA,NA,NA,NA,NA,NA
bd655,"""Richtig""-Screen",canvas.Screen,3_0_5_0_3_0_1,NA,NA,skipped,NA,1057575.4000006,NA,NA,1057573.5,1057575.6000004,2024-03-09T08:54:12Z,1057587.9,NULL,Hoffnung,matarajio,d,NA,NA,NA,NA,sdf,NA,5,NA,NA,NA,NA,NA,NA,NA,NA,NA,NA,NA,NA,NA,NA,NA,NA,NA,NA,NA
bd655,"""Falsch""-Screen",canvas.Screen,3_0_5_0_3_0_2,NA,NA,timeout,4999.9000000001,1057576.1999998,1057571.398,1057587.9,1062571.3,1062572,2024-03-09T08:54:17Z,1062587.8,NULL,Hoffnung,matarajio,d,NA,NA,NA,NA,sdf,0,5,NA,NA,NA,NA,NA,NA,NA,NA,NA,NA,NA,NA,NA,NA,NA,NA,NA,NA,NA
bd655,deep,flow.Sequence,3_0_5_0_3_0,NA,NA,completion,22166.6,1040389.4000001,1040387.9,1040404.7,1062571.3,1062572.3000002,2024-03-09T08:54:17Z,1062587.8,NULL,Hoffnung,matarajio,d,NA,NA,NA,NA,sdf,NA,5,NA,NA,NA,NA,NA,NA,NA,NA,NA,NA,NA,NA,NA,NA,NA,NA,NA,NA,NA
bd655,shallow,flow.Sequence,3_0_5_0_3_1,NA,NA,skipped,NA,1062572.3000002,NA,NA,1062571.3,1062572.5,2024-03-09T08:54:17Z,1062587.8,NULL,Hoffnung,matarajio,d,NA,NA,NA,NA,sdf,NA,5,NA,NA,NA,NA,NA,NA,NA,NA,NA,NA,NA,NA,NA,NA,NA,NA,NA,NA,NA
bd655,task,flow.Sequence,3_0_5_0_3,NA,NA,completion,22166.6,1040389.3000002,1040387.9,1040404.7,1062571.3,1062572.6000004,2024-03-09T08:54:17Z,1062587.8,NULL,Hoffnung,matarajio,d,NA,NA,NA,NA,sdf,NA,5,NA,NA,NA,NA,NA,NA,NA,NA,NA,NA,NA,NA,NA,NA,NA,NA,NA,NA,NA
bd655,deep,flow.Sequence,3_0_5_0_4_0,NA,NA,skipped,NA,1062572.6999998,NA,NA,1062571.3,1062572.8000002,2024-03-09T08:54:17Z,1062587.8,NULL,Schock,mshtuko,s,biashara,kukataza,vichekesho,NA,sdf,NA,5,NA,NA,NA,NA,NA,NA,NA,NA,NA,NA,NA,NA,NA,NA,NA,NA,NA,NA,NA
bd655,Shallow Question,html.Page,3_0_5_0_4_1_0,NA,NA,form submission,4230.8999998092,1062572.9000006,1062571.3,1062587.8,1066818.6999998,1066818.9000006,2024-03-09T08:54:21Z,1066821.336,NULL,Schock,mshtuko,s,biashara,kukataza,vichekesho,mshtuko,NA,NA,5,NA,NA,NA,NA,NA,NA,NA,NA,NA,NA,NA,NA,NA,NA,NA,NA,NA,NA,NA
bd655,"""Richtig""-Screen",canvas.Screen,3_0_5_0_4_1_1,NA,NA,timeout,4999.7640000002,1066820.6000004,1066821.336,1066821.336,1071804.5,1071805.4000006,2024-03-09T08:54:26Z,1071821.1,NULL,Schock,mshtuko,s,biashara,kukataza,vichekesho,NA,sdf,1,5,NA,NA,NA,NA,NA,NA,NA,NA,NA,NA,NA,NA,NA,NA,NA,NA,NA,NA,NA
bd655,"""Falsch""-Screen",canvas.Screen,3_0_5_0_4_1_2,NA,NA,skipped,NA,1071809.1000004,NA,NA,1071804.5,1071809.4000006,2024-03-09T08:54:26Z,1071821.1,NULL,Schock,mshtuko,s,biashara,kukataza,vichekesho,NA,sdf,NA,5,NA,NA,NA,NA,NA,NA,NA,NA,NA,NA,NA,NA,NA,NA,NA,NA,NA,NA,NA
bd655,shallow,flow.Sequence,3_0_5_0_4_1,NA,NA,completion,9216.7,1062572.8000002,1062571.3,1062587.8,1071804.5,1071809.6000004,2024-03-09T08:54:26Z,1071821.1,NULL,Schock,mshtuko,s,biashara,kukataza,vichekesho,NA,sdf,NA,5,NA,NA,NA,NA,NA,NA,NA,NA,NA,NA,NA,NA,NA,NA,NA,NA,NA,NA,NA
bd655,task,flow.Sequence,3_0_5_0_4,NA,NA,completion,9216.7,1062572.6999998,1062571.3,1062587.8,1071804.5,1071809.6999998,2024-03-09T08:54:26Z,1071821.1,NULL,Schock,mshtuko,s,biashara,kukataza,vichekesho,NA,sdf,NA,5,NA,NA,NA,NA,NA,NA,NA,NA,NA,NA,NA,NA,NA,NA,NA,NA,NA,NA,NA
bd655,deep,flow.Sequence,3_0_5_0_5_0,NA,NA,skipped,NA,1071809.8000002,NA,NA,1071804.5,1071809.9000006,2024-03-09T08:54:26Z,1071821.1,NULL,Theorie,nadharia,s,ushungi,mkutano,uwakilishi,NA,sdf,NA,5,NA,NA,NA,NA,NA,NA,NA,NA,NA,NA,NA,NA,NA,NA,NA,NA,NA,NA,NA
bd655,Shallow Question,html.Page,3_0_5_0_5_1_0,NA,NA,form submission,6025.5000003814,1071810,1071804.5,1071821.1,1077846.6000004,1077846.6999998,2024-03-09T08:54:32Z,1077854.5,NULL,Theorie,nadharia,s,ushungi,mkutano,uwakilishi,nadharia,NA,NA,5,NA,NA,NA,NA,NA,NA,NA,NA,NA,NA,NA,NA,NA,NA,NA,NA,NA,NA,NA
bd655,"""Richtig""-Screen",canvas.Screen,3_0_5_0_5_1_1,NA,NA,timeout,5000,1077848.3000002,1077838.002,1077854.5,1082837.9,1082838.6999998,2024-03-09T08:54:37Z,1082854.5,NULL,Theorie,nadharia,s,ushungi,mkutano,uwakilishi,NA,sdf,1,5,NA,NA,NA,NA,NA,NA,NA,NA,NA,NA,NA,NA,NA,NA,NA,NA,NA,NA,NA
bd655,"""Falsch""-Screen",canvas.Screen,3_0_5_0_5_1_2,NA,NA,skipped,NA,1082842.8000002,NA,NA,1082837.9,1082843,2024-03-09T08:54:37Z,1082854.5,NULL,Theorie,nadharia,s,ushungi,mkutano,uwakilishi,NA,sdf,NA,5,NA,NA,NA,NA,NA,NA,NA,NA,NA,NA,NA,NA,NA,NA,NA,NA,NA,NA,NA
bd655,shallow,flow.Sequence,3_0_5_0_5_1,NA,NA,completion,11016.8,1071810,1071804.5,1071821.1,1082837.9,1082843.1999998,2024-03-09T08:54:37Z,1082854.5,NULL,Theorie,nadharia,s,ushungi,mkutano,uwakilishi,NA,sdf,NA,5,NA,NA,NA,NA,NA,NA,NA,NA,NA,NA,NA,NA,NA,NA,NA,NA,NA,NA,NA
bd655,task,flow.Sequence,3_0_5_0_5,NA,NA,completion,11016.8,1071809.8000002,1071804.5,1071821.1,1082837.9,1082843.3000002,2024-03-09T08:54:37Z,1082854.5,NULL,Theorie,nadharia,s,ushungi,mkutano,uwakilishi,NA,sdf,NA,5,NA,NA,NA,NA,NA,NA,NA,NA,NA,NA,NA,NA,NA,NA,NA,NA,NA,NA,NA
bd655,deep,flow.Sequence,3_0_5_0_6_0,NA,NA,skipped,NA,1082843.5,NA,NA,1082837.9,1082843.5,2024-03-09T08:54:37Z,1082854.5,NULL,Atmosphäre,angahewa,s,kuteseka,usahihi,kutoamini,NA,sdf,NA,5,NA,NA,NA,NA,NA,NA,NA,NA,NA,NA,NA,NA,NA,NA,NA,NA,NA,NA,NA
bd655,Shallow Question,html.Page,3_0_5_0_6_1_0,NA,NA,form submission,5337.1000003815,1082843.6999998,1082837.9,1082854.5,1088191.6000004,1088191.8000002,2024-03-09T08:54:42Z,1088204.6,NULL,Atmosphäre,angahewa,s,kuteseka,usahihi,kutoamini,angahewa,NA,NA,5,NA,NA,NA,NA,NA,NA,NA,NA,NA,NA,NA,NA,NA,NA,NA,NA,NA,NA,NA
bd655,"""Richtig""-Screen",canvas.Screen,3_0_5_0_6_1_1,NA,NA,timeout,4999.8999999999,1088193.3000002,1088187.96,1088204.6,1093187.9,1093188.6000004,2024-03-09T08:54:47Z,1093204.5,NULL,Atmosphäre,angahewa,s,kuteseka,usahihi,kutoamini,NA,sdf,1,5,NA,NA,NA,NA,NA,NA,NA,NA,NA,NA,NA,NA,NA,NA,NA,NA,NA,NA,NA
bd655,"""Falsch""-Screen",canvas.Screen,3_0_5_0_6_1_2,NA,NA,skipped,NA,1093192.5,NA,NA,1093187.9,1093192.6000004,2024-03-09T08:54:47Z,1093204.5,NULL,Atmosphäre,angahewa,s,kuteseka,usahihi,kutoamini,NA,sdf,NA,5,NA,NA,NA,NA,NA,NA,NA,NA,NA,NA,NA,NA,NA,NA,NA,NA,NA,NA,NA
bd655,shallow,flow.Sequence,3_0_5_0_6_1,NA,NA,completion,10333.4,1082843.6000004,1082837.9,1082854.5,1093187.9,1093192.8000002,2024-03-09T08:54:47Z,1093204.5,NULL,Atmosphäre,angahewa,s,kuteseka,usahihi,kutoamini,NA,sdf,NA,5,NA,NA,NA,NA,NA,NA,NA,NA,NA,NA,NA,NA,NA,NA,NA,NA,NA,NA,NA
bd655,task,flow.Sequence,3_0_5_0_6,NA,NA,completion,10333.4,1082843.5,1082837.9,1082854.5,1093187.9,1093192.9000006,2024-03-09T08:54:47Z,1093204.5,NULL,Atmosphäre,angahewa,s,kuteseka,usahihi,kutoamini,NA,sdf,NA,5,NA,NA,NA,NA,NA,NA,NA,NA,NA,NA,NA,NA,NA,NA,NA,NA,NA,NA,NA
bd655,Deep Question,html.Page,3_0_5_0_7_0_0,NA,NA,form submission,25188.199999809,1093193.1000004,1093187.9,1093204.5,1118392.6999998,1118392.8000002,2024-03-09T08:55:13Z,1118404.4,NULL,Verpackung,ufungaji,d,NA,NA,NA,ugeuzaji,NA,NA,5,NA,NA,NA,NA,NA,NA,NA,NA,NA,NA,NA,NA,NA,NA,NA,NA,NA,NA,NA
bd655,"""Richtig""-Screen",canvas.Screen,3_0_5_0_7_0_1,NA,NA,skipped,NA,1118394.5,NA,NA,1118392.6999998,1118394.6000004,2024-03-09T08:55:13Z,1118404.4,NULL,Verpackung,ufungaji,d,NA,NA,NA,NA,sdf,NA,5,NA,NA,NA,NA,NA,NA,NA,NA,NA,NA,NA,NA,NA,NA,NA,NA,NA,NA,NA
bd655,"""Falsch""-Screen",canvas.Screen,3_0_5_0_7_0_2,NA,NA,timeout,5000.2000000002,1118395.1000004,1118387.914,1118404.4,1123387.8,1123388.6000004,2024-03-09T08:55:18Z,1123404.6,NULL,Verpackung,ufungaji,d,NA,NA,NA,NA,sdf,0,5,NA,NA,NA,NA,NA,NA,NA,NA,NA,NA,NA,NA,NA,NA,NA,NA,NA,NA,NA
bd655,deep,flow.Sequence,3_0_5_0_7_0,NA,NA,completion,30183.3,1093193.1000004,1093187.9,1093204.5,1123387.8,1123388.8000002,2024-03-09T08:55:18Z,1123404.6,NULL,Verpackung,ufungaji,d,NA,NA,NA,NA,sdf,NA,5,NA,NA,NA,NA,NA,NA,NA,NA,NA,NA,NA,NA,NA,NA,NA,NA,NA,NA,NA
bd655,shallow,flow.Sequence,3_0_5_0_7_1,NA,NA,skipped,NA,1123388.9000006,NA,NA,1123387.8,1123389,2024-03-09T08:55:18Z,1123404.6,NULL,Verpackung,ufungaji,d,NA,NA,NA,NA,sdf,NA,5,NA,NA,NA,NA,NA,NA,NA,NA,NA,NA,NA,NA,NA,NA,NA,NA,NA,NA,NA
bd655,task,flow.Sequence,3_0_5_0_7,NA,NA,completion,30183.3,1093193.1000004,1093187.9,1093204.5,1123387.8,1123389.1999998,2024-03-09T08:55:18Z,1123404.6,NULL,Verpackung,ufungaji,d,NA,NA,NA,NA,sdf,NA,5,NA,NA,NA,NA,NA,NA,NA,NA,NA,NA,NA,NA,NA,NA,NA,NA,NA,NA,NA
bd655,block,flow.Loop,3_0_5_0,NA,NA,completion,142082.866,981312.4000001,981304.934,981304.934,1123387.8,1123389.1999998,2024-03-09T08:55:18Z,1123404.6,NULL,NA,NA,NA,NA,NA,NA,NA,sdf,NA,5,NA,NA,NA,NA,NA,NA,NA,NA,NA,NA,NA,NA,NA,NA,NA,NA,NA,NA,NA
bd655,weiter,canvas.Screen,3_0_5_1,sdf,keypress(Space),response,1296.5000003814,1123389.3000002,1123387.8,1123404.6,1124701.1000004,1124702,2024-03-09T08:55:19Z,1124754.6,NULL,NA,NA,NA,NA,NA,NA,NA,sdf,NA,5,NA,NA,NA,NA,NA,NA,NA,NA,NA,NA,NA,NA,NA,NA,NA,NA,NA,NA,NA
bd655,check continue,flow.Sequence,3_0_5,NA,NA,completion,143396.16600038,981312.4000001,981304.934,981304.934,1124701.1000004,1124702.1999998,2024-03-09T08:55:19Z,1124754.6,NULL,NA,NA,NA,NA,NA,NA,NA,sdf,NA,5,NA,NA,NA,NA,NA,NA,NA,NA,NA,NA,NA,NA,NA,NA,NA,NA,NA,NA,NA
bd655,Deep Question,html.Page,3_0_6_0_0_0_0,NA,NA,form submission,19788.800000572,1124746.1000004,1124737.88,1124754.6,1144543.4000006,1144543.6999998,2024-03-09T08:55:39Z,1144554.4,NULL,Wechsel,ugeuzaji,d,NA,NA,NA,ugeuzaji,NA,NA,6,NA,NA,NA,NA,NA,NA,NA,NA,NA,NA,NA,NA,NA,NA,NA,NA,NA,NA,NA
bd655,"""Richtig""-Screen",canvas.Screen,3_0_6_0_0_0_1,NA,NA,timeout,5000.1000000001,1144545.5,1144537.976,1144554.4,1149537.9,1149538.6000004,2024-03-09T08:55:44Z,1149554.5,NULL,Wechsel,ugeuzaji,d,NA,NA,NA,NA,dfs,1,6,NA,NA,NA,NA,NA,NA,NA,NA,NA,NA,NA,NA,NA,NA,NA,NA,NA,NA,NA
bd655,"""Falsch""-Screen",canvas.Screen,3_0_6_0_0_0_2,NA,NA,skipped,NA,1149542.6000004,NA,NA,1149537.9,1149542.8000002,2024-03-09T08:55:44Z,1149554.5,NULL,Wechsel,ugeuzaji,d,NA,NA,NA,NA,dfs,NA,6,NA,NA,NA,NA,NA,NA,NA,NA,NA,NA,NA,NA,NA,NA,NA,NA,NA,NA,NA
bd655,deep,flow.Sequence,3_0_6_0_0_0,NA,NA,completion,24783.3,1124746.1000004,1124737.88,1124754.6,1149537.9,1149543,2024-03-09T08:55:44Z,1149554.5,NULL,Wechsel,ugeuzaji,d,NA,NA,NA,NA,dfs,NA,6,NA,NA,NA,NA,NA,NA,NA,NA,NA,NA,NA,NA,NA,NA,NA,NA,NA,NA,NA
bd655,shallow,flow.Sequence,3_0_6_0_0_1,NA,NA,skipped,NA,1149543.1999998,NA,NA,1149537.9,1149543.1999998,2024-03-09T08:55:44Z,1149554.5,NULL,Wechsel,ugeuzaji,d,NA,NA,NA,NA,dfs,NA,6,NA,NA,NA,NA,NA,NA,NA,NA,NA,NA,NA,NA,NA,NA,NA,NA,NA,NA,NA
bd655,task,flow.Sequence,3_0_6_0_0,NA,NA,completion,24783.3,1124746.1000004,1124737.88,1124754.6,1149537.9,1149543.4000006,2024-03-09T08:55:44Z,1149554.5,NULL,Wechsel,ugeuzaji,d,NA,NA,NA,NA,dfs,NA,6,NA,NA,NA,NA,NA,NA,NA,NA,NA,NA,NA,NA,NA,NA,NA,NA,NA,NA,NA
bd655,deep,flow.Sequence,3_0_6_0_1_0,NA,NA,skipped,NA,1149543.4000006,NA,NA,1149537.9,1149543.4000006,2024-03-09T08:55:44Z,1149554.5,NULL,Flexibilität,kubadilika,s,enjini,usikilivu,hesabu,NA,dfs,NA,6,NA,NA,NA,NA,NA,NA,NA,NA,NA,NA,NA,NA,NA,NA,NA,NA,NA,NA,NA
bd655,Shallow Question,html.Page,3_0_6_0_1_1_0,NA,NA,form submission,5177,1149543.6000004,1149537.9,1149554.5,1154731.5,1154731.8000002,2024-03-09T08:55:49Z,1154737.6,NULL,Flexibilität,kubadilika,s,enjini,usikilivu,hesabu,kubadilika,NA,NA,6,NA,NA,NA,NA,NA,NA,NA,NA,NA,NA,NA,NA,NA,NA,NA,NA,NA,NA,NA
bd655,"""Richtig""-Screen",canvas.Screen,3_0_6_0_1_1_1,NA,NA,timeout,5000.2,1154733.4000006,1154721.28,1154737.6,1159721.2,1159722,2024-03-09T08:55:54Z,1159737.8,NULL,Flexibilität,kubadilika,s,enjini,usikilivu,hesabu,NA,dfs,1,6,NA,NA,NA,NA,NA,NA,NA,NA,NA,NA,NA,NA,NA,NA,NA,NA,NA,NA,NA
bd655,"""Falsch""-Screen",canvas.Screen,3_0_6_0_1_1_2,NA,NA,skipped,NA,1159725.8000002,NA,NA,1159721.2,1159726.1000004,2024-03-09T08:55:54Z,1159737.8,NULL,Flexibilität,kubadilika,s,enjini,usikilivu,hesabu,NA,dfs,NA,6,NA,NA,NA,NA,NA,NA,NA,NA,NA,NA,NA,NA,NA,NA,NA,NA,NA,NA,NA
bd655,shallow,flow.Sequence,3_0_6_0_1_1,NA,NA,completion,10166.7,1149543.6000004,1149537.9,1149554.5,1159721.2,1159726.1999998,2024-03-09T08:55:54Z,1159737.8,NULL,Flexibilität,kubadilika,s,enjini,usikilivu,hesabu,NA,dfs,NA,6,NA,NA,NA,NA,NA,NA,NA,NA,NA,NA,NA,NA,NA,NA,NA,NA,NA,NA,NA
bd655,task,flow.Sequence,3_0_6_0_1,NA,NA,completion,10166.7,1149543.4000006,1149537.9,1149554.5,1159721.2,1159726.4000006,2024-03-09T08:55:54Z,1159737.8,NULL,Flexibilität,kubadilika,s,enjini,usikilivu,hesabu,NA,dfs,NA,6,NA,NA,NA,NA,NA,NA,NA,NA,NA,NA,NA,NA,NA,NA,NA,NA,NA,NA,NA
bd655,deep,flow.Sequence,3_0_6_0_2_0,NA,NA,skipped,NA,1159726.4000006,NA,NA,1159721.2,1159726.5,2024-03-09T08:55:54Z,1159737.8,NULL,Atmosphäre,angahewa,s,kuteseka,usahihi,kutoamini,NA,dfs,NA,6,NA,NA,NA,NA,NA,NA,NA,NA,NA,NA,NA,NA,NA,NA,NA,NA,NA,NA,NA
bd655,Shallow Question,html.Page,3_0_6_0_2_1_0,NA,NA,form submission,3897.7,1159726.6000004,1159721.2,1159737.8,1163635.5,1163635.6999998,2024-03-09T08:55:58Z,1163637.938,NULL,Atmosphäre,angahewa,s,kuteseka,usahihi,kutoamini,angahewa,NA,NA,6,NA,NA,NA,NA,NA,NA,NA,NA,NA,NA,NA,NA,NA,NA,NA,NA,NA,NA,NA
bd655,"""Richtig""-Screen",canvas.Screen,3_0_6_0_2_1_1,NA,NA,timeout,4999.7619999999,1163637.1999998,1163637.938,1163637.938,1168621.1,1168621.9000006,2024-03-09T08:56:03Z,1168637.7,NULL,Atmosphäre,angahewa,s,kuteseka,usahihi,kutoamini,NA,dfs,1,6,NA,NA,NA,NA,NA,NA,NA,NA,NA,NA,NA,NA,NA,NA,NA,NA,NA,NA,NA
bd655,"""Falsch""-Screen",canvas.Screen,3_0_6_0_2_1_2,NA,NA,skipped,NA,1168625.8000002,NA,NA,1168621.1,1168626,2024-03-09T08:56:03Z,1168637.7,NULL,Atmosphäre,angahewa,s,kuteseka,usahihi,kutoamini,NA,dfs,NA,6,NA,NA,NA,NA,NA,NA,NA,NA,NA,NA,NA,NA,NA,NA,NA,NA,NA,NA,NA
bd655,shallow,flow.Sequence,3_0_6_0_2_1,NA,NA,completion,8883.3,1159726.6000004,1159721.2,1159737.8,1168621.1,1168626.3000002,2024-03-09T08:56:03Z,1168637.7,NULL,Atmosphäre,angahewa,s,kuteseka,usahihi,kutoamini,NA,dfs,NA,6,NA,NA,NA,NA,NA,NA,NA,NA,NA,NA,NA,NA,NA,NA,NA,NA,NA,NA,NA
bd655,task,flow.Sequence,3_0_6_0_2,NA,NA,completion,8883.3,1159726.4000006,1159721.2,1159737.8,1168621.1,1168626.4000006,2024-03-09T08:56:03Z,1168637.7,NULL,Atmosphäre,angahewa,s,kuteseka,usahihi,kutoamini,NA,dfs,NA,6,NA,NA,NA,NA,NA,NA,NA,NA,NA,NA,NA,NA,NA,NA,NA,NA,NA,NA,NA
bd655,deep,flow.Sequence,3_0_6_0_3_0,NA,NA,skipped,NA,1168626.6000004,NA,NA,1168621.1,1168626.6000004,2024-03-09T08:56:03Z,1168637.7,NULL,Theorie,nadharia,s,ushungi,mkutano,uwakilishi,NA,dfs,NA,6,NA,NA,NA,NA,NA,NA,NA,NA,NA,NA,NA,NA,NA,NA,NA,NA,NA,NA,NA
