observation,sender,sender_type,sender_id,response,response_action,ended_on,duration,time_run,time_render,time_show,time_end,time_commit,timestamp,time_switch,distractors,german,swahili,enc,distractor1,distractor2,distractor3,response_2,x,correct,x_2,url_vp,url_sess,meta_labjs_version,meta_location,meta_user_agent,meta_platform,meta_language,meta_locale,meta_time_zone,meta_timezone_offset,meta_screen_width,meta_screen_height,meta_scroll_width,meta_scroll_height,meta_window_inner_width,meta_window_inner_height,meta_device_pixel_ratio,meta_labjs_build_flavor,meta_labjs_build_commit
97c68,Introduction general,canvas.Screen,0,weiter,keypress(q),response,37044.78,1113,1113.82,1121.22,38166,38183,2024-06-01T14:51:31Z,38184.62,NULL,NA,NA,NA,NA,NA,NA,NA,NA,NA,NA,163,1,20.2.4,https://neurocog.fernuni.ch/studies/vweber/jbaenninger/encoding_immediate/index.html?vp=163&sess=1,Mozilla/5.0 (Windows NT 10.0; Win64; x64; rv:126.0) Gecko/20100101 Firefox/126.0,Win32,de,de-CH,Europe/Zurich,-120,1280,800,1280,591,1280,639,1.5,production,f5b4a49f956347addd546a832a3327688c2c0fef
97c68,Introduction practice,canvas.Screen,1_0,NA,keypress(Space),response,2324.38,38184,38184.3,38184.62,40509,40518,2024-06-01T14:51:33Z,40521.6,NULL,NA,NA,NA,NA,NA,NA,NA,NA,NA,NA,NA,NA,NA,NA,NA,NA,NA,NA,NA,NA,NA,NA,NA,NA,NA,NA,NA,NA,NA
97c68,Deep Question,html.Page,1_1_0_0_0,NA,NA,form submission,32026.4,40519,40519.12,40521.6,72548,72550,2024-06-01T14:52:05Z,72557.48,"c(""distractor1"", ""distractor2"", ""distractor3"")",Qualität,mtindo,d,NA,NA,NA,gvbjdfbhjdsg,NA,NA,NA,NA,NA,NA,NA,NA,NA,NA,NA,NA,NA,NA,NA,NA,NA,NA,NA,NA,NA,NA
97c68,"""Richtig""-Screen",canvas.Screen,1_1_0_0_1,NA,NA,skipped,NA,72560,NA,NA,72548,72560,2024-06-01T14:52:05Z,72557.48,"c(""distractor1"", ""distractor2"", ""distractor3"")",Qualität,mtindo,d,NA,NA,NA,NA,NA,NA,NA,NA,NA,NA,NA,NA,NA,NA,NA,NA,NA,NA,NA,NA,NA,NA,NA,NA,NA,NA
97c68,"""Falsch""-Screen",canvas.Screen,1_1_0_0_2,NA,NA,timeout,5001.56,72564,72546.3,72557.48,77542.42,77545,2024-06-01T14:52:10Z,77559.04,"c(""distractor1"", ""distractor2"", ""distractor3"")",Qualität,mtindo,d,NA,NA,NA,NA,NA,0,NA,NA,NA,NA,NA,NA,NA,NA,NA,NA,NA,NA,NA,NA,NA,NA,NA,NA,NA,NA
97c68,deep,flow.Sequence,1_1_0_0,NA,NA,completion,37020.82,40519,40519.12,40521.6,77542.42,77546,2024-06-01T14:52:10Z,77559.04,"c(""distractor1"", ""distractor2"", ""distractor3"")",Qualität,mtindo,d,NA,NA,NA,NA,NA,NA,NA,NA,NA,NA,NA,NA,NA,NA,NA,NA,NA,NA,NA,NA,NA,NA,NA,NA,NA,NA
97c68,shallow,flow.Sequence,1_1_0_1,NA,NA,skipped,NA,77546,NA,NA,77542.42,77546,2024-06-01T14:52:10Z,77559.04,"c(""distractor1"", ""distractor2"", ""distractor3"")",Qualität,mtindo,d,NA,NA,NA,NA,NA,NA,NA,NA,NA,NA,NA,NA,NA,NA,NA,NA,NA,NA,NA,NA,NA,NA,NA,NA,NA,NA
97c68,task,flow.Sequence,1_1_0,NA,NA,completion,37020.82,40519,40519.12,40521.6,77542.42,77548,2024-06-01T14:52:10Z,77559.04,"c(""distractor1"", ""distractor2"", ""distractor3"")",Qualität,mtindo,d,NA,NA,NA,NA,NA,NA,NA,NA,NA,NA,NA,NA,NA,NA,NA,NA,NA,NA,NA,NA,NA,NA,NA,NA,NA,NA
97c68,deep,flow.Sequence,1_1_1_0,NA,NA,skipped,NA,77548,NA,NA,77542.42,77548,2024-06-01T14:52:10Z,77559.04,"c(""distractor1"", ""distractor2"", ""distractor3"")",Kritik,lawama,s,dereva,nafasi,mawazo,NA,NA,NA,NA,NA,NA,NA,NA,NA,NA,NA,NA,NA,NA,NA,NA,NA,NA,NA,NA,NA,NA,NA
97c68,Shallow Question,html.Page,1_1_1_1_0,NA,NA,form submission,7962.96,77549,77542.42,77559.04,85522,85522,2024-06-01T14:52:18Z,85526.32,"c(""distractor1"", ""distractor2"", ""distractor3"")",Kritik,lawama,s,dereva,nafasi,mawazo,lawama,NA,NA,NA,NA,NA,NA,NA,NA,NA,NA,NA,NA,NA,NA,NA,NA,NA,NA,NA,NA,NA,NA
97c68,"""Richtig""-Screen",canvas.Screen,1_1_1_1_1,NA,NA,timeout,4994.68,85526,85518.54,85526.32,90504.64,90506,2024-06-01T14:52:23Z,90521,"c(""distractor1"", ""distractor2"", ""distractor3"")",Kritik,lawama,s,dereva,nafasi,mawazo,NA,NA,1,NA,NA,NA,NA,NA,NA,NA,NA,NA,NA,NA,NA,NA,NA,NA,NA,NA,NA,NA,NA
97c68,"""Falsch""-Screen",canvas.Screen,1_1_1_1_2,NA,NA,skipped,NA,90509,NA,NA,90504.64,90509,2024-06-01T14:52:23Z,90521,"c(""distractor1"", ""distractor2"", ""distractor3"")",Kritik,lawama,s,dereva,nafasi,mawazo,NA,NA,NA,NA,NA,NA,NA,NA,NA,NA,NA,NA,NA,NA,NA,NA,NA,NA,NA,NA,NA,NA,NA
97c68,shallow,flow.Sequence,1_1_1_1,NA,NA,completion,12945.6,77549,77542.42,77559.04,90504.64,90510,2024-06-01T14:52:23Z,90521,"c(""distractor1"", ""distractor2"", ""distractor3"")",Kritik,lawama,s,dereva,nafasi,mawazo,NA,NA,NA,NA,NA,NA,NA,NA,NA,NA,NA,NA,NA,NA,NA,NA,NA,NA,NA,NA,NA,NA,NA
97c68,task,flow.Sequence,1_1_1,NA,NA,completion,12945.6,77548,77542.42,77559.04,90504.64,90510,2024-06-01T14:52:23Z,90521,"c(""distractor1"", ""distractor2"", ""distractor3"")",Kritik,lawama,s,dereva,nafasi,mawazo,NA,NA,NA,NA,NA,NA,NA,NA,NA,NA,NA,NA,NA,NA,NA,NA,NA,NA,NA,NA,NA,NA,NA
97c68,deep,flow.Sequence,1_1_2_0,NA,NA,skipped,NA,90510,NA,NA,90504.64,90510,2024-06-01T14:52:23Z,90521,"c(""distractor1"", ""distractor2"", ""distractor3"")",Rückhalt,msaada,s,muhula,auwali,kiwimbe,NA,NA,NA,NA,NA,NA,NA,NA,NA,NA,NA,NA,NA,NA,NA,NA,NA,NA,NA,NA,NA,NA,NA
97c68,Shallow Question,html.Page,1_1_2_1_0,NA,NA,form submission,5711,90511,90504.64,90521,96232,96232,2024-06-01T14:52:29Z,96241.84,"c(""distractor1"", ""distractor2"", ""distractor3"")",Rückhalt,msaada,s,muhula,auwali,kiwimbe,auwali,NA,NA,NA,NA,NA,NA,NA,NA,NA,NA,NA,NA,NA,NA,NA,NA,NA,NA,NA,NA,NA,NA
97c68,"""Richtig""-Screen",canvas.Screen,1_1_2_1_1,NA,NA,skipped,NA,96233,NA,NA,96232,96234,2024-06-01T14:52:29Z,96241.84,"c(""distractor1"", ""distractor2"", ""distractor3"")",Rückhalt,msaada,s,muhula,auwali,kiwimbe,NA,NA,NA,NA,NA,NA,NA,NA,NA,NA,NA,NA,NA,NA,NA,NA,NA,NA,NA,NA,NA,NA,NA
97c68,"""Falsch""-Screen",canvas.Screen,1_1_2_1_2,NA,NA,timeout,4991.98,96235,96228.9,96241.84,101217.36,101217,2024-06-01T14:52:34Z,101233.82,"c(""distractor1"", ""distractor2"", ""distractor3"")",Rückhalt,msaada,s,muhula,auwali,kiwimbe,NA,NA,0,NA,NA,NA,NA,NA,NA,NA,NA,NA,NA,NA,NA,NA,NA,NA,NA,NA,NA,NA,NA
97c68,shallow,flow.Sequence,1_1_2_1,NA,NA,completion,10696.36,90510,90504.64,90521,101217.36,101217,2024-06-01T14:52:34Z,101233.82,"c(""distractor1"", ""distractor2"", ""distractor3"")",Rückhalt,msaada,s,muhula,auwali,kiwimbe,NA,NA,NA,NA,NA,NA,NA,NA,NA,NA,NA,NA,NA,NA,NA,NA,NA,NA,NA,NA,NA,NA,NA
97c68,task,flow.Sequence,1_1_2,NA,NA,completion,10696.36,90510,90504.64,90521,101217.36,101218,2024-06-01T14:52:34Z,101233.82,"c(""distractor1"", ""distractor2"", ""distractor3"")",Rückhalt,msaada,s,muhula,auwali,kiwimbe,NA,NA,NA,NA,NA,NA,NA,NA,NA,NA,NA,NA,NA,NA,NA,NA,NA,NA,NA,NA,NA,NA,NA
97c68,Deep Question,html.Page,1_1_3_0_0,NA,NA,form submission,3382.18,101218,101217.36,101233.82,104616,104617,2024-06-01T14:52:37Z,104625.28,"c(""distractor1"", ""distractor2"", ""distractor3"")",Gesundheit,salama,d,NA,NA,NA,ghfthjed,NA,NA,NA,NA,NA,NA,NA,NA,NA,NA,NA,NA,NA,NA,NA,NA,NA,NA,NA,NA,NA,NA
97c68,"""Richtig""-Screen",canvas.Screen,1_1_3_0_1,NA,NA,skipped,NA,104619,NA,NA,104616,104619,2024-06-01T14:52:37Z,104625.28,"c(""distractor1"", ""distractor2"", ""distractor3"")",Gesundheit,salama,d,NA,NA,NA,NA,NA,NA,NA,NA,NA,NA,NA,NA,NA,NA,NA,NA,NA,NA,NA,NA,NA,NA,NA,NA,NA,NA
97c68,"""Falsch""-Screen",canvas.Screen,1_1_3_0_2,NA,NA,timeout,5003.9,104622,104613.74,104625.28,109612.4,109613,2024-06-01T14:52:42Z,109629.18,"c(""distractor1"", ""distractor2"", ""distractor3"")",Gesundheit,salama,d,NA,NA,NA,NA,NA,0,NA,NA,NA,NA,NA,NA,NA,NA,NA,NA,NA,NA,NA,NA,NA,NA,NA,NA,NA,NA
97c68,deep,flow.Sequence,1_1_3_0,NA,NA,completion,8378.58,101218,101217.36,101233.82,109612.4,109614,2024-06-01T14:52:42Z,109629.18,"c(""distractor1"", ""distractor2"", ""distractor3"")",Gesundheit,salama,d,NA,NA,NA,NA,NA,NA,NA,NA,NA,NA,NA,NA,NA,NA,NA,NA,NA,NA,NA,NA,NA,NA,NA,NA,NA,NA
97c68,shallow,flow.Sequence,1_1_3_1,NA,NA,skipped,NA,109614,NA,NA,109612.4,109614,2024-06-01T14:52:42Z,109629.18,"c(""distractor1"", ""distractor2"", ""distractor3"")",Gesundheit,salama,d,NA,NA,NA,NA,NA,NA,NA,NA,NA,NA,NA,NA,NA,NA,NA,NA,NA,NA,NA,NA,NA,NA,NA,NA,NA,NA
97c68,task,flow.Sequence,1_1_3,NA,NA,completion,8378.58,101218,101217.36,101233.82,109612.4,109614,2024-06-01T14:52:42Z,109629.18,"c(""distractor1"", ""distractor2"", ""distractor3"")",Gesundheit,salama,d,NA,NA,NA,NA,NA,NA,NA,NA,NA,NA,NA,NA,NA,NA,NA,NA,NA,NA,NA,NA,NA,NA,NA,NA,NA,NA
97c68,Deep Question,html.Page,1_1_4_0_0,NA,NA,form submission,2711.82,109615,109612.4,109629.18,112341,112341,2024-06-01T14:52:45Z,112344.76,"c(""distractor1"", ""distractor2"", ""distractor3"")",Schatten,kivuli,d,NA,NA,NA,fgbdshdshtd,NA,NA,NA,NA,NA,NA,NA,NA,NA,NA,NA,NA,NA,NA,NA,NA,NA,NA,NA,NA,NA,NA
97c68,"""Richtig""-Screen",canvas.Screen,1_1_4_0_1,NA,NA,skipped,NA,112344,NA,NA,112341,112344,2024-06-01T14:52:45Z,112344.76,"c(""distractor1"", ""distractor2"", ""distractor3"")",Schatten,kivuli,d,NA,NA,NA,NA,NA,NA,NA,NA,NA,NA,NA,NA,NA,NA,NA,NA,NA,NA,NA,NA,NA,NA,NA,NA,NA,NA
97c68,"""Falsch""-Screen",canvas.Screen,1_1_4_0_2,NA,NA,timeout,5001.4,112346,112338.54,112344.76,117329.32,117330,2024-06-01T14:52:50Z,117346.16,"c(""distractor1"", ""distractor2"", ""distractor3"")",Schatten,kivuli,d,NA,NA,NA,NA,NA,0,NA,NA,NA,NA,NA,NA,NA,NA,NA,NA,NA,NA,NA,NA,NA,NA,NA,NA,NA,NA
97c68,deep,flow.Sequence,1_1_4_0,NA,NA,completion,7700.14,109615,109612.4,109629.18,117329.32,117331,2024-06-01T14:52:50Z,117346.16,"c(""distractor1"", ""distractor2"", ""distractor3"")",Schatten,kivuli,d,NA,NA,NA,NA,NA,NA,NA,NA,NA,NA,NA,NA,NA,NA,NA,NA,NA,NA,NA,NA,NA,NA,NA,NA,NA,NA
97c68,shallow,flow.Sequence,1_1_4_1,NA,NA,skipped,NA,117331,NA,NA,117329.32,117331,2024-06-01T14:52:50Z,117346.16,"c(""distractor1"", ""distractor2"", ""distractor3"")",Schatten,kivuli,d,NA,NA,NA,NA,NA,NA,NA,NA,NA,NA,NA,NA,NA,NA,NA,NA,NA,NA,NA,NA,NA,NA,NA,NA,NA,NA
97c68,task,flow.Sequence,1_1_4,NA,NA,completion,7700.14,109615,109612.4,109629.18,117329.32,117331,2024-06-01T14:52:50Z,117346.16,"c(""distractor1"", ""distractor2"", ""distractor3"")",Schatten,kivuli,d,NA,NA,NA,NA,NA,NA,NA,NA,NA,NA,NA,NA,NA,NA,NA,NA,NA,NA,NA,NA,NA,NA,NA,NA,NA,NA
97c68,deep,flow.Sequence,1_1_5_0,NA,NA,skipped,NA,117331,NA,NA,117329.32,117331,2024-06-01T14:52:50Z,117346.16,"c(""distractor1"", ""distractor2"", ""distractor3"")",Gegenwart,hadhara,s,katiba,jokofu,mikopo,NA,NA,NA,NA,NA,NA,NA,NA,NA,NA,NA,NA,NA,NA,NA,NA,NA,NA,NA,NA,NA,NA,NA
97c68,Shallow Question,html.Page,1_1_5_1_0,NA,NA,form submission,5939.84,117331,117329.32,117346.16,123286,123287,2024-06-01T14:52:56Z,123284.46,"c(""distractor1"", ""distractor2"", ""distractor3"")",Gegenwart,hadhara,s,katiba,jokofu,mikopo,katiba,NA,NA,NA,NA,NA,NA,NA,NA,NA,NA,NA,NA,NA,NA,NA,NA,NA,NA,NA,NA,NA,NA
97c68,"""Richtig""-Screen",canvas.Screen,1_1_5_1_1,NA,NA,skipped,NA,123290,NA,NA,123286,123290,2024-06-01T14:52:56Z,123284.46,"c(""distractor1"", ""distractor2"", ""distractor3"")",Gegenwart,hadhara,s,katiba,jokofu,mikopo,NA,NA,NA,NA,NA,NA,NA,NA,NA,NA,NA,NA,NA,NA,NA,NA,NA,NA,NA,NA,NA,NA,NA
97c68,"""Falsch""-Screen",canvas.Screen,1_1_5_1_2,NA,NA,timeout,4994.78,123294,123283.1,123284.46,128262.74,128263,2024-06-01T14:53:01Z,128279.24,"c(""distractor1"", ""distractor2"", ""distractor3"")",Gegenwart,hadhara,s,katiba,jokofu,mikopo,NA,NA,0,NA,NA,NA,NA,NA,NA,NA,NA,NA,NA,NA,NA,NA,NA,NA,NA,NA,NA,NA,NA
97c68,shallow,flow.Sequence,1_1_5_1,NA,NA,completion,10916.58,117331,117329.32,117346.16,128262.74,128263,2024-06-01T14:53:01Z,128279.24,"c(""distractor1"", ""distractor2"", ""distractor3"")",Gegenwart,hadhara,s,katiba,jokofu,mikopo,NA,NA,NA,NA,NA,NA,NA,NA,NA,NA,NA,NA,NA,NA,NA,NA,NA,NA,NA,NA,NA,NA,NA
97c68,task,flow.Sequence,1_1_5,NA,NA,completion,10916.58,117331,117329.32,117346.16,128262.74,128264,2024-06-01T14:53:01Z,128279.24,"c(""distractor1"", ""distractor2"", ""distractor3"")",Gegenwart,hadhara,s,katiba,jokofu,mikopo,NA,NA,NA,NA,NA,NA,NA,NA,NA,NA,NA,NA,NA,NA,NA,NA,NA,NA,NA,NA,NA,NA,NA
97c68,block,flow.Loop,1_1,NA,NA,completion,87741.14,40518,40519.12,40521.6,128262.74,128264,2024-06-01T14:53:01Z,128279.24,"c(""distractor1"", ""distractor2"", ""distractor3"")",NA,NA,NA,NA,NA,NA,NA,NA,NA,NA,NA,NA,NA,NA,NA,NA,NA,NA,NA,NA,NA,NA,NA,NA,NA,NA,NA,NA,NA
97c68,Practice,flow.Sequence,1,NA,NA,completion,90078.12,38184,38184.3,38184.62,128262.74,128264,2024-06-01T14:53:01Z,128279.24,NULL,NA,NA,NA,NA,NA,NA,NA,NA,NA,NA,NA,NA,NA,NA,NA,NA,NA,NA,NA,NA,NA,NA,NA,NA,NA,NA,NA,NA,NA
97c68,Experiment start,canvas.Screen,2,weiter,keypress(q),response,20976.76,128264,128262.74,128279.24,149256,149263,2024-06-01T14:53:22Z,149369.06,NULL,NA,NA,NA,NA,NA,NA,NA,NA,NA,NA,NA,NA,NA,NA,NA,NA,NA,NA,NA,NA,NA,NA,NA,NA,NA,NA,NA,NA,NA
97c68,Deep Question,html.Page,3_0_0_0_0_0_0,NA,NA,form submission,3797.94,149368,149368.48,149369.06,153167,153168,2024-06-01T14:53:26Z,153169.08,NULL,Übersicht,kilindo,d,NA,NA,NA,fghdhsrt,NA,NA,0,NA,NA,NA,NA,NA,NA,NA,NA,NA,NA,NA,NA,NA,NA,NA,NA,NA,NA,NA
97c68,"""Richtig""-Screen",canvas.Screen,3_0_0_0_0_0_1,NA,NA,skipped,NA,153169,NA,NA,153167,153169,2024-06-01T14:53:26Z,153169.08,NULL,Übersicht,kilindo,d,NA,NA,NA,NA,sdf,NA,0,NA,NA,NA,NA,NA,NA,NA,NA,NA,NA,NA,NA,NA,NA,NA,NA,NA,NA,NA
97c68,"""Falsch""-Screen",canvas.Screen,3_0_0_0_0_0_2,NA,NA,timeout,5004.3,153171,153162.26,153169.08,158156.7,158157,2024-06-01T14:53:31Z,158173.38,NULL,Übersicht,kilindo,d,NA,NA,NA,NA,sdf,0,0,NA,NA,NA,NA,NA,NA,NA,NA,NA,NA,NA,NA,NA,NA,NA,NA,NA,NA,NA
97c68,deep,flow.Sequence,3_0_0_0_0_0,NA,NA,completion,8787.64,149368,149368.48,149369.06,158156.7,158158,2024-06-01T14:53:31Z,158173.38,NULL,Übersicht,kilindo,d,NA,NA,NA,NA,sdf,NA,0,NA,NA,NA,NA,NA,NA,NA,NA,NA,NA,NA,NA,NA,NA,NA,NA,NA,NA,NA
97c68,shallow,flow.Sequence,3_0_0_0_0_1,NA,NA,skipped,NA,158158,NA,NA,158156.7,158158,2024-06-01T14:53:31Z,158173.38,NULL,Übersicht,kilindo,d,NA,NA,NA,NA,sdf,NA,0,NA,NA,NA,NA,NA,NA,NA,NA,NA,NA,NA,NA,NA,NA,NA,NA,NA,NA,NA
97c68,task,flow.Sequence,3_0_0_0_0,NA,NA,completion,8787.64,149368,149368.48,149369.06,158156.7,158158,2024-06-01T14:53:31Z,158173.38,NULL,Übersicht,kilindo,d,NA,NA,NA,NA,sdf,NA,0,NA,NA,NA,NA,NA,NA,NA,NA,NA,NA,NA,NA,NA,NA,NA,NA,NA,NA,NA
97c68,deep,flow.Sequence,3_0_0_0_1_0,NA,NA,skipped,NA,158158,NA,NA,158156.7,158158,2024-06-01T14:53:31Z,158173.38,NULL,Konkurrent,mshindani,s,msemaji,mvutaji,kipukusa,NA,sdf,NA,0,NA,NA,NA,NA,NA,NA,NA,NA,NA,NA,NA,NA,NA,NA,NA,NA,NA,NA,NA
97c68,Shallow Question,html.Page,3_0_0_0_1_1_0,NA,NA,form submission,4591.62,158159,158156.7,158173.38,162765,162765,2024-06-01T14:53:35Z,162761.9,NULL,Konkurrent,mshindani,s,msemaji,mvutaji,kipukusa,kipukusa,NA,NA,0,NA,NA,NA,NA,NA,NA,NA,NA,NA,NA,NA,NA,NA,NA,NA,NA,NA,NA,NA
97c68,"""Richtig""-Screen",canvas.Screen,3_0_0_0_1_1_1,NA,NA,skipped,NA,162768,NA,NA,162765,162768,2024-06-01T14:53:35Z,162761.9,NULL,Konkurrent,mshindani,s,msemaji,mvutaji,kipukusa,NA,sdf,NA,0,NA,NA,NA,NA,NA,NA,NA,NA,NA,NA,NA,NA,NA,NA,NA,NA,NA,NA,NA
97c68,"""Falsch""-Screen",canvas.Screen,3_0_0_0_1_1_2,NA,NA,timeout,4995.3,162771,162761.52,162761.9,167740.6,167742,2024-06-01T14:53:40Z,167757.2,NULL,Konkurrent,mshindani,s,msemaji,mvutaji,kipukusa,NA,sdf,0,0,NA,NA,NA,NA,NA,NA,NA,NA,NA,NA,NA,NA,NA,NA,NA,NA,NA,NA,NA
97c68,shallow,flow.Sequence,3_0_0_0_1_1,NA,NA,completion,9567.22,158159,158156.7,158173.38,167740.6,167742,2024-06-01T14:53:40Z,167757.2,NULL,Konkurrent,mshindani,s,msemaji,mvutaji,kipukusa,NA,sdf,NA,0,NA,NA,NA,NA,NA,NA,NA,NA,NA,NA,NA,NA,NA,NA,NA,NA,NA,NA,NA
97c68,task,flow.Sequence,3_0_0_0_1,NA,NA,completion,9567.22,158158,158156.7,158173.38,167740.6,167742,2024-06-01T14:53:40Z,167757.2,NULL,Konkurrent,mshindani,s,msemaji,mvutaji,kipukusa,NA,sdf,NA,0,NA,NA,NA,NA,NA,NA,NA,NA,NA,NA,NA,NA,NA,NA,NA,NA,NA,NA,NA
97c68,deep,flow.Sequence,3_0_0_0_2_0,NA,NA,skipped,NA,167743,NA,NA,167740.6,167743,2024-06-01T14:53:40Z,167757.2,NULL,System,maongozi,s,chokochoko,nuksani,mitaani,NA,sdf,NA,0,NA,NA,NA,NA,NA,NA,NA,NA,NA,NA,NA,NA,NA,NA,NA,NA,NA,NA,NA
97c68,Shallow Question,html.Page,3_0_0_0_2_1_0,NA,NA,form submission,5840.8,167743,167740.6,167757.2,173598,173598,2024-06-01T14:53:46Z,173605.86,NULL,System,maongozi,s,chokochoko,nuksani,mitaani,mitaani,NA,NA,0,NA,NA,NA,NA,NA,NA,NA,NA,NA,NA,NA,NA,NA,NA,NA,NA,NA,NA,NA
97c68,"""Richtig""-Screen",canvas.Screen,3_0_0_0_2_1_1,NA,NA,skipped,NA,173601,NA,NA,173598,173601,2024-06-01T14:53:46Z,173605.86,NULL,System,maongozi,s,chokochoko,nuksani,mitaani,NA,sdf,NA,0,NA,NA,NA,NA,NA,NA,NA,NA,NA,NA,NA,NA,NA,NA,NA,NA,NA,NA,NA
97c68,"""Falsch""-Screen",canvas.Screen,3_0_0_0_2_1_2,NA,NA,timeout,4997.14,173603,173593.76,173605.86,178586.34,178587,2024-06-01T14:53:51Z,178603,NULL,System,maongozi,s,chokochoko,nuksani,mitaani,NA,sdf,0,0,NA,NA,NA,NA,NA,NA,NA,NA,NA,NA,NA,NA,NA,NA,NA,NA,NA,NA,NA
97c68,shallow,flow.Sequence,3_0_0_0_2_1,NA,NA,completion,10829.14,167743,167740.6,167757.2,178586.34,178588,2024-06-01T14:53:51Z,178603,NULL,System,maongozi,s,chokochoko,nuksani,mitaani,NA,sdf,NA,0,NA,NA,NA,NA,NA,NA,NA,NA,NA,NA,NA,NA,NA,NA,NA,NA,NA,NA,NA
97c68,task,flow.Sequence,3_0_0_0_2,NA,NA,completion,10829.14,167743,167740.6,167757.2,178586.34,178588,2024-06-01T14:53:51Z,178603,NULL,System,maongozi,s,chokochoko,nuksani,mitaani,NA,sdf,NA,0,NA,NA,NA,NA,NA,NA,NA,NA,NA,NA,NA,NA,NA,NA,NA,NA,NA,NA,NA
97c68,deep,flow.Sequence,3_0_0_0_3_0,NA,NA,skipped,NA,178588,NA,NA,178586.34,178588,2024-06-01T14:53:51Z,178603,NULL,Vorsorge,tahadhari,s,ufafanuzi,makini,mashambani,NA,sdf,NA,0,NA,NA,NA,NA,NA,NA,NA,NA,NA,NA,NA,NA,NA,NA,NA,NA,NA,NA,NA
97c68,Shallow Question,html.Page,3_0_0_0_3_1_0,NA,NA,form submission,4113,178588,178586.34,178603,182716,182716,2024-06-01T14:53:55Z,182714.28,NULL,Vorsorge,tahadhari,s,ufafanuzi,makini,mashambani,mashambani,NA,NA,0,NA,NA,NA,NA,NA,NA,NA,NA,NA,NA,NA,NA,NA,NA,NA,NA,NA,NA,NA
97c68,"""Richtig""-Screen",canvas.Screen,3_0_0_0_3_1_1,NA,NA,skipped,NA,182717,NA,NA,182716,182718,2024-06-01T14:53:55Z,182714.28,NULL,Vorsorge,tahadhari,s,ufafanuzi,makini,mashambani,NA,sdf,NA,0,NA,NA,NA,NA,NA,NA,NA,NA,NA,NA,NA,NA,NA,NA,NA,NA,NA,NA,NA
97c68,"""Falsch""-Screen",canvas.Screen,3_0_0_0_3_1_2,NA,NA,timeout,4996.8,182719,182712.62,182714.28,187694.88,187696,2024-06-01T14:54:00Z,187711.08,NULL,Vorsorge,tahadhari,s,ufafanuzi,makini,mashambani,NA,sdf,0,0,NA,NA,NA,NA,NA,NA,NA,NA,NA,NA,NA,NA,NA,NA,NA,NA,NA,NA,NA
97c68,shallow,flow.Sequence,3_0_0_0_3_1,NA,NA,completion,9091.88,178588,178586.34,178603,187694.88,187696,2024-06-01T14:54:00Z,187711.08,NULL,Vorsorge,tahadhari,s,ufafanuzi,makini,mashambani,NA,sdf,NA,0,NA,NA,NA,NA,NA,NA,NA,NA,NA,NA,NA,NA,NA,NA,NA,NA,NA,NA,NA
97c68,task,flow.Sequence,3_0_0_0_3,NA,NA,completion,9091.88,178588,178586.34,178603,187694.88,187696,2024-06-01T14:54:00Z,187711.08,NULL,Vorsorge,tahadhari,s,ufafanuzi,makini,mashambani,NA,sdf,NA,0,NA,NA,NA,NA,NA,NA,NA,NA,NA,NA,NA,NA,NA,NA,NA,NA,NA,NA,NA
97c68,deep,flow.Sequence,3_0_0_0_4_0,NA,NA,skipped,NA,187696,NA,NA,187694.88,187697,2024-06-01T14:54:00Z,187711.08,NULL,Lawine,banguko,s,maambukizi,usuluhishi,chekechea,NA,sdf,NA,0,NA,NA,NA,NA,NA,NA,NA,NA,NA,NA,NA,NA,NA,NA,NA,NA,NA,NA,NA
97c68,Shallow Question,html.Page,3_0_0_0_4_1_0,NA,NA,form submission,51324.92,187697,187694.88,187711.08,239036,239038,2024-06-01T14:54:52Z,239039.18,NULL,Lawine,banguko,s,maambukizi,usuluhishi,chekechea,chekechea,NA,NA,0,NA,NA,NA,NA,NA,NA,NA,NA,NA,NA,NA,NA,NA,NA,NA,NA,NA,NA,NA
97c68,"""Richtig""-Screen",canvas.Screen,3_0_0_0_4_1_1,NA,NA,skipped,NA,239044,NA,NA,239036,239044,2024-06-01T14:54:52Z,239039.18,NULL,Lawine,banguko,s,maambukizi,usuluhishi,chekechea,NA,sdf,NA,0,NA,NA,NA,NA,NA,NA,NA,NA,NA,NA,NA,NA,NA,NA,NA,NA,NA,NA,NA
97c68,"""Falsch""-Screen",canvas.Screen,3_0_0_0_4_1_2,NA,NA,timeout,5007.46,239045,239030.52,239039.18,244030.32,244031,2024-06-01T14:54:57Z,244046.64,NULL,Lawine,banguko,s,maambukizi,usuluhishi,chekechea,NA,sdf,0,0,NA,NA,NA,NA,NA,NA,NA,NA,NA,NA,NA,NA,NA,NA,NA,NA,NA,NA,NA
97c68,shallow,flow.Sequence,3_0_0_0_4_1,NA,NA,completion,56319.24,187697,187694.88,187711.08,244030.32,244032,2024-06-01T14:54:57Z,244046.64,NULL,Lawine,banguko,s,maambukizi,usuluhishi,chekechea,NA,sdf,NA,0,NA,NA,NA,NA,NA,NA,NA,NA,NA,NA,NA,NA,NA,NA,NA,NA,NA,NA,NA
97c68,task,flow.Sequence,3_0_0_0_4,NA,NA,completion,56319.24,187696,187694.88,187711.08,244030.32,244032,2024-06-01T14:54:57Z,244046.64,NULL,Lawine,banguko,s,maambukizi,usuluhishi,chekechea,NA,sdf,NA,0,NA,NA,NA,NA,NA,NA,NA,NA,NA,NA,NA,NA,NA,NA,NA,NA,NA,NA,NA
97c68,Deep Question,html.Page,3_0_0_0_5_0_0,NA,NA,form submission,4706.36,244032,244030.32,244046.64,248753,248753,2024-06-01T14:55:01Z,248764.98,NULL,Körper,kiwiliwili,d,NA,NA,NA,vjdgskjd,NA,NA,0,NA,NA,NA,NA,NA,NA,NA,NA,NA,NA,NA,NA,NA,NA,NA,NA,NA,NA,NA
97c68,"""Richtig""-Screen",canvas.Screen,3_0_0_0_5_0_1,NA,NA,skipped,NA,248756,NA,NA,248753,248756,2024-06-01T14:55:01Z,248764.98,NULL,Körper,kiwiliwili,d,NA,NA,NA,NA,sdf,NA,0,NA,NA,NA,NA,NA,NA,NA,NA,NA,NA,NA,NA,NA,NA,NA,NA,NA,NA,NA
97c68,"""Falsch""-Screen",canvas.Screen,3_0_0_0_5_0_2,NA,NA,timeout,5007.26,248757,248750.44,248764.98,253755.78,253757,2024-06-01T14:55:06Z,253772.24,NULL,Körper,kiwiliwili,d,NA,NA,NA,NA,sdf,0,0,NA,NA,NA,NA,NA,NA,NA,NA,NA,NA,NA,NA,NA,NA,NA,NA,NA,NA,NA
97c68,deep,flow.Sequence,3_0_0_0_5_0,NA,NA,completion,9709.14,244032,244030.32,244046.64,253755.78,253757,2024-06-01T14:55:06Z,253772.24,NULL,Körper,kiwiliwili,d,NA,NA,NA,NA,sdf,NA,0,NA,NA,NA,NA,NA,NA,NA,NA,NA,NA,NA,NA,NA,NA,NA,NA,NA,NA,NA
97c68,shallow,flow.Sequence,3_0_0_0_5_1,NA,NA,skipped,NA,253757,NA,NA,253755.78,253758,2024-06-01T14:55:06Z,253772.24,NULL,Körper,kiwiliwili,d,NA,NA,NA,NA,sdf,NA,0,NA,NA,NA,NA,NA,NA,NA,NA,NA,NA,NA,NA,NA,NA,NA,NA,NA,NA,NA
97c68,task,flow.Sequence,3_0_0_0_5,NA,NA,completion,9709.14,244032,244030.32,244046.64,253755.78,253758,2024-06-01T14:55:06Z,253772.24,NULL,Körper,kiwiliwili,d,NA,NA,NA,NA,sdf,NA,0,NA,NA,NA,NA,NA,NA,NA,NA,NA,NA,NA,NA,NA,NA,NA,NA,NA,NA,NA
97c68,Deep Question,html.Page,3_0_0_0_6_0_0,NA,NA,form submission,2924.76,253759,253755.78,253772.24,256697,256697,2024-06-01T14:55:09Z,256705.28,NULL,Zuwachs,nyongeza,d,NA,NA,NA,fbdfhgf,NA,NA,0,NA,NA,NA,NA,NA,NA,NA,NA,NA,NA,NA,NA,NA,NA,NA,NA,NA,NA,NA
97c68,"""Richtig""-Screen",canvas.Screen,3_0_0_0_6_0_1,NA,NA,skipped,NA,256699,NA,NA,256697,256699,2024-06-01T14:55:09Z,256705.28,NULL,Zuwachs,nyongeza,d,NA,NA,NA,NA,sdf,NA,0,NA,NA,NA,NA,NA,NA,NA,NA,NA,NA,NA,NA,NA,NA,NA,NA,NA,NA,NA
97c68,"""Falsch""-Screen",canvas.Screen,3_0_0_0_6_0_2,NA,NA,timeout,4996.4,256700,256693.7,256705.28,261685,261686,2024-06-01T14:55:14Z,261701.68,NULL,Zuwachs,nyongeza,d,NA,NA,NA,NA,sdf,0,0,NA,NA,NA,NA,NA,NA,NA,NA,NA,NA,NA,NA,NA,NA,NA,NA,NA,NA,NA
97c68,deep,flow.Sequence,3_0_0_0_6_0,NA,NA,completion,7912.76,253759,253755.78,253772.24,261685,261686,2024-06-01T14:55:14Z,261701.68,NULL,Zuwachs,nyongeza,d,NA,NA,NA,NA,sdf,NA,0,NA,NA,NA,NA,NA,NA,NA,NA,NA,NA,NA,NA,NA,NA,NA,NA,NA,NA,NA
97c68,shallow,flow.Sequence,3_0_0_0_6_1,NA,NA,skipped,NA,261687,NA,NA,261685,261687,2024-06-01T14:55:14Z,261701.68,NULL,Zuwachs,nyongeza,d,NA,NA,NA,NA,sdf,NA,0,NA,NA,NA,NA,NA,NA,NA,NA,NA,NA,NA,NA,NA,NA,NA,NA,NA,NA,NA
97c68,task,flow.Sequence,3_0_0_0_6,NA,NA,completion,7912.76,253758,253755.78,253772.24,261685,261687,2024-06-01T14:55:14Z,261701.68,NULL,Zuwachs,nyongeza,d,NA,NA,NA,NA,sdf,NA,0,NA,NA,NA,NA,NA,NA,NA,NA,NA,NA,NA,NA,NA,NA,NA,NA,NA,NA,NA
97c68,Deep Question,html.Page,3_0_0_0_7_0_0,NA,NA,form submission,3088.32,261687,261685,261701.68,264790,264791,2024-06-01T14:55:17Z,264800.64,NULL,Symbol,kielezo,d,NA,NA,NA,fhbdrhd,NA,NA,0,NA,NA,NA,NA,NA,NA,NA,NA,NA,NA,NA,NA,NA,NA,NA,NA,NA,NA,NA
97c68,"""Richtig""-Screen",canvas.Screen,3_0_0_0_7_0_1,NA,NA,skipped,NA,264792,NA,NA,264790,264792,2024-06-01T14:55:17Z,264800.64,NULL,Symbol,kielezo,d,NA,NA,NA,NA,sdf,NA,0,NA,NA,NA,NA,NA,NA,NA,NA,NA,NA,NA,NA,NA,NA,NA,NA,NA,NA,NA
97c68,"""Falsch""-Screen",canvas.Screen,3_0_0_0_7_0_2,NA,NA,timeout,4996.28,264793,264786.78,264800.64,269780.24,269784,2024-06-01T14:55:22Z,269796.92,NULL,Symbol,kielezo,d,NA,NA,NA,NA,sdf,0,0,NA,NA,NA,NA,NA,NA,NA,NA,NA,NA,NA,NA,NA,NA,NA,NA,NA,NA,NA
97c68,deep,flow.Sequence,3_0_0_0_7_0,NA,NA,completion,8078.56,261687,261685,261701.68,269780.24,269785,2024-06-01T14:55:22Z,269796.92,NULL,Symbol,kielezo,d,NA,NA,NA,NA,sdf,NA,0,NA,NA,NA,NA,NA,NA,NA,NA,NA,NA,NA,NA,NA,NA,NA,NA,NA,NA,NA
97c68,shallow,flow.Sequence,3_0_0_0_7_1,NA,NA,skipped,NA,269785,NA,NA,269780.24,269787,2024-06-01T14:55:22Z,269796.92,NULL,Symbol,kielezo,d,NA,NA,NA,NA,sdf,NA,0,NA,NA,NA,NA,NA,NA,NA,NA,NA,NA,NA,NA,NA,NA,NA,NA,NA,NA,NA
97c68,task,flow.Sequence,3_0_0_0_7,NA,NA,completion,8078.56,261687,261685,261701.68,269780.24,269787,2024-06-01T14:55:22Z,269796.92,NULL,Symbol,kielezo,d,NA,NA,NA,NA,sdf,NA,0,NA,NA,NA,NA,NA,NA,NA,NA,NA,NA,NA,NA,NA,NA,NA,NA,NA,NA,NA
97c68,block,flow.Loop,3_0_0_0,NA,NA,completion,120411.18,149368,149368.48,149369.06,269780.24,269789,2024-06-01T14:55:22Z,269796.92,NULL,NA,NA,NA,NA,NA,NA,NA,sdf,NA,0,NA,NA,NA,NA,NA,NA,NA,NA,NA,NA,NA,NA,NA,NA,NA,NA,NA,NA,NA
97c68,weiter,canvas.Screen,3_0_0_1,sdf,keypress(Space),response,896.08000000002,269789,269780.24,269796.92,270693,270704,2024-06-01T14:55:23Z,270764.18,NULL,NA,NA,NA,NA,NA,NA,NA,sdf,NA,0,NA,NA,NA,NA,NA,NA,NA,NA,NA,NA,NA,NA,NA,NA,NA,NA,NA,NA,NA
97c68,check continue,flow.Sequence,3_0_0,NA,NA,completion,121323.94,149368,149368.48,149369.06,270693,270704,2024-06-01T14:55:23Z,270764.18,NULL,NA,NA,NA,NA,NA,NA,NA,sdf,NA,0,NA,NA,NA,NA,NA,NA,NA,NA,NA,NA,NA,NA,NA,NA,NA,NA,NA,NA,NA
97c68,deep,flow.Sequence,3_0_1_0_0_0,NA,NA,skipped,NA,270764,NA,NA,270693,270764,2024-06-01T14:55:23Z,270764.18,NULL,Konkurrent,mshindani,s,msemaji,mvutaji,kipukusa,NA,sdfdsf,NA,1,NA,NA,NA,NA,NA,NA,NA,NA,NA,NA,NA,NA,NA,NA,NA,NA,NA,NA,NA
97c68,Shallow Question,html.Page,3_0_1_0_0_1_0,NA,NA,form submission,8988.82,270764,270764,270764.18,279753,279753,2024-06-01T14:55:32Z,279766.62,NULL,Konkurrent,mshindani,s,msemaji,mvutaji,kipukusa,mshindani,NA,NA,1,NA,NA,NA,NA,NA,NA,NA,NA,NA,NA,NA,NA,NA,NA,NA,NA,NA,NA,NA
97c68,"""Richtig""-Screen",canvas.Screen,3_0_1_0_0_1_1,NA,NA,timeout,5006.44,279756,279749.82,279766.62,284756.34,284757,2024-06-01T14:55:37Z,284773.06,NULL,Konkurrent,mshindani,s,msemaji,mvutaji,kipukusa,NA,sdfdsf,1,1,NA,NA,NA,NA,NA,NA,NA,NA,NA,NA,NA,NA,NA,NA,NA,NA,NA,NA,NA
97c68,"""Falsch""-Screen",canvas.Screen,3_0_1_0_0_1_2,NA,NA,skipped,NA,284759,NA,NA,284756.34,284760,2024-06-01T14:55:37Z,284773.06,NULL,Konkurrent,mshindani,s,msemaji,mvutaji,kipukusa,NA,sdfdsf,NA,1,NA,NA,NA,NA,NA,NA,NA,NA,NA,NA,NA,NA,NA,NA,NA,NA,NA,NA,NA
97c68,shallow,flow.Sequence,3_0_1_0_0_1,NA,NA,completion,13992.16,270764,270764,270764.18,284756.34,284760,2024-06-01T14:55:37Z,284773.06,NULL,Konkurrent,mshindani,s,msemaji,mvutaji,kipukusa,NA,sdfdsf,NA,1,NA,NA,NA,NA,NA,NA,NA,NA,NA,NA,NA,NA,NA,NA,NA,NA,NA,NA,NA
97c68,task,flow.Sequence,3_0_1_0_0,NA,NA,completion,13992.16,270764,270764,270764.18,284756.34,284760,2024-06-01T14:55:37Z,284773.06,NULL,Konkurrent,mshindani,s,msemaji,mvutaji,kipukusa,NA,sdfdsf,NA,1,NA,NA,NA,NA,NA,NA,NA,NA,NA,NA,NA,NA,NA,NA,NA,NA,NA,NA,NA
97c68,Deep Question,html.Page,3_0_1_0_1_0_0,NA,NA,form submission,2321.94,284760,284756.34,284773.06,287095,287095,2024-06-01T14:55:40Z,287115.94,NULL,Übersicht,kilindo,d,NA,NA,NA,fgvsfgs,NA,NA,1,NA,NA,NA,NA,NA,NA,NA,NA,NA,NA,NA,NA,NA,NA,NA,NA,NA,NA,NA
97c68,"""Richtig""-Screen",canvas.Screen,3_0_1_0_1_0_1,NA,NA,skipped,NA,287098,NA,NA,287095,287098,2024-06-01T14:55:40Z,287115.94,NULL,Übersicht,kilindo,d,NA,NA,NA,NA,sdfdsf,NA,1,NA,NA,NA,NA,NA,NA,NA,NA,NA,NA,NA,NA,NA,NA,NA,NA,NA,NA,NA
97c68,"""Falsch""-Screen",canvas.Screen,3_0_1_0_1_0_2,NA,NA,timeout,4993.16,287102,287099.1,287115.94,292092.4,292093,2024-06-01T14:55:45Z,292109.1,NULL,Übersicht,kilindo,d,NA,NA,NA,NA,sdfdsf,0,1,NA,NA,NA,NA,NA,NA,NA,NA,NA,NA,NA,NA,NA,NA,NA,NA,NA,NA,NA
97c68,deep,flow.Sequence,3_0_1_0_1_0,NA,NA,completion,7319.34,284760,284756.34,284773.06,292092.4,292094,2024-06-01T14:55:45Z,292109.1,NULL,Übersicht,kilindo,d,NA,NA,NA,NA,sdfdsf,NA,1,NA,NA,NA,NA,NA,NA,NA,NA,NA,NA,NA,NA,NA,NA,NA,NA,NA,NA,NA
97c68,shallow,flow.Sequence,3_0_1_0_1_1,NA,NA,skipped,NA,292094,NA,NA,292092.4,292094,2024-06-01T14:55:45Z,292109.1,NULL,Übersicht,kilindo,d,NA,NA,NA,NA,sdfdsf,NA,1,NA,NA,NA,NA,NA,NA,NA,NA,NA,NA,NA,NA,NA,NA,NA,NA,NA,NA,NA
97c68,task,flow.Sequence,3_0_1_0_1,NA,NA,completion,7319.34,284760,284756.34,284773.06,292092.4,292094,2024-06-01T14:55:45Z,292109.1,NULL,Übersicht,kilindo,d,NA,NA,NA,NA,sdfdsf,NA,1,NA,NA,NA,NA,NA,NA,NA,NA,NA,NA,NA,NA,NA,NA,NA,NA,NA,NA,NA
97c68,deep,flow.Sequence,3_0_1_0_2_0,NA,NA,skipped,NA,292094,NA,NA,292092.4,292094,2024-06-01T14:55:45Z,292109.1,NULL,Vorsorge,tahadhari,s,ufafanuzi,makini,mashambani,NA,sdfdsf,NA,1,NA,NA,NA,NA,NA,NA,NA,NA,NA,NA,NA,NA,NA,NA,NA,NA,NA,NA,NA
97c68,Shallow Question,html.Page,3_0_1_0_2_1_0,NA,NA,form submission,6073.9,292094,292092.4,292109.1,298183,298185,2024-06-01T14:55:51Z,298184.24,NULL,Vorsorge,tahadhari,s,ufafanuzi,makini,mashambani,mashambani,NA,NA,1,NA,NA,NA,NA,NA,NA,NA,NA,NA,NA,NA,NA,NA,NA,NA,NA,NA,NA,NA
97c68,"""Richtig""-Screen",canvas.Screen,3_0_1_0_2_1_1,NA,NA,skipped,NA,298186,NA,NA,298183,298187,2024-06-01T14:55:51Z,298184.24,NULL,Vorsorge,tahadhari,s,ufafanuzi,makini,mashambani,NA,sdfdsf,NA,1,NA,NA,NA,NA,NA,NA,NA,NA,NA,NA,NA,NA,NA,NA,NA,NA,NA,NA,NA
97c68,"""Falsch""-Screen",canvas.Screen,3_0_1_0_2_1_2,NA,NA,timeout,5002.9,298189,298179.98,298184.24,303170.54,303172,2024-06-01T14:55:56Z,303187.14,NULL,Vorsorge,tahadhari,s,ufafanuzi,makini,mashambani,NA,sdfdsf,0,1,NA,NA,NA,NA,NA,NA,NA,NA,NA,NA,NA,NA,NA,NA,NA,NA,NA,NA,NA
97c68,shallow,flow.Sequence,3_0_1_0_2_1,NA,NA,completion,11061.44,292094,292092.4,292109.1,303170.54,303172,2024-06-01T14:55:56Z,303187.14,NULL,Vorsorge,tahadhari,s,ufafanuzi,makini,mashambani,NA,sdfdsf,NA,1,NA,NA,NA,NA,NA,NA,NA,NA,NA,NA,NA,NA,NA,NA,NA,NA,NA,NA,NA
97c68,task,flow.Sequence,3_0_1_0_2,NA,NA,completion,11061.44,292094,292092.4,292109.1,303170.54,303172,2024-06-01T14:55:56Z,303187.14,NULL,Vorsorge,tahadhari,s,ufafanuzi,makini,mashambani,NA,sdfdsf,NA,1,NA,NA,NA,NA,NA,NA,NA,NA,NA,NA,NA,NA,NA,NA,NA,NA,NA,NA,NA
97c68,Deep Question,html.Page,3_0_1_0_3_0_0,NA,NA,form submission,7820.86,303173,303170.54,303187.14,311008,311008,2024-06-01T14:56:04Z,311007.52,NULL,Symbol,kielezo,d,NA,NA,NA,kilindo,NA,NA,1,NA,NA,NA,NA,NA,NA,NA,NA,NA,NA,NA,NA,NA,NA,NA,NA,NA,NA,NA
97c68,"""Richtig""-Screen",canvas.Screen,3_0_1_0_3_0_1,NA,NA,skipped,NA,311010,NA,NA,311008,311010,2024-06-01T14:56:04Z,311007.52,NULL,Symbol,kielezo,d,NA,NA,NA,NA,sdfdsf,NA,1,NA,NA,NA,NA,NA,NA,NA,NA,NA,NA,NA,NA,NA,NA,NA,NA,NA,NA,NA
97c68,"""Falsch""-Screen",canvas.Screen,3_0_1_0_3_0_2,NA,NA,timeout,4999.46,311012,311007.14,311007.52,315990.56,315992,2024-06-01T14:56:09Z,316006.98,NULL,Symbol,kielezo,d,NA,NA,NA,NA,sdfdsf,0,1,NA,NA,NA,NA,NA,NA,NA,NA,NA,NA,NA,NA,NA,NA,NA,NA,NA,NA,NA
97c68,deep,flow.Sequence,3_0_1_0_3_0,NA,NA,completion,12803.42,303172,303170.54,303187.14,315990.56,315992,2024-06-01T14:56:09Z,316006.98,NULL,Symbol,kielezo,d,NA,NA,NA,NA,sdfdsf,NA,1,NA,NA,NA,NA,NA,NA,NA,NA,NA,NA,NA,NA,NA,NA,NA,NA,NA,NA,NA
97c68,shallow,flow.Sequence,3_0_1_0_3_1,NA,NA,skipped,NA,315993,NA,NA,315990.56,315993,2024-06-01T14:56:09Z,316006.98,NULL,Symbol,kielezo,d,NA,NA,NA,NA,sdfdsf,NA,1,NA,NA,NA,NA,NA,NA,NA,NA,NA,NA,NA,NA,NA,NA,NA,NA,NA,NA,NA
97c68,task,flow.Sequence,3_0_1_0_3,NA,NA,completion,12803.42,303172,303170.54,303187.14,315990.56,315993,2024-06-01T14:56:09Z,316006.98,NULL,Symbol,kielezo,d,NA,NA,NA,NA,sdfdsf,NA,1,NA,NA,NA,NA,NA,NA,NA,NA,NA,NA,NA,NA,NA,NA,NA,NA,NA,NA,NA
97c68,deep,flow.Sequence,3_0_1_0_4_0,NA,NA,skipped,NA,315993,NA,NA,315990.56,315993,2024-06-01T14:56:09Z,316006.98,NULL,System,maongozi,s,chokochoko,nuksani,mitaani,NA,sdfdsf,NA,1,NA,NA,NA,NA,NA,NA,NA,NA,NA,NA,NA,NA,NA,NA,NA,NA,NA,NA,NA
97c68,Shallow Question,html.Page,3_0_1_0_4_1_0,NA,NA,form submission,7410.02,315993,315990.56,316006.98,323417,323418,2024-06-01T14:56:16Z,323417.48,NULL,System,maongozi,s,chokochoko,nuksani,mitaani,maongozi,NA,NA,1,NA,NA,NA,NA,NA,NA,NA,NA,NA,NA,NA,NA,NA,NA,NA,NA,NA,NA,NA
97c68,"""Richtig""-Screen",canvas.Screen,3_0_1_0_4_1_1,NA,NA,timeout,5000.94,323421,323414.2,323417.48,328401.66,328402,2024-06-01T14:56:21Z,328418.42,NULL,System,maongozi,s,chokochoko,nuksani,mitaani,NA,sdfdsf,1,1,NA,NA,NA,NA,NA,NA,NA,NA,NA,NA,NA,NA,NA,NA,NA,NA,NA,NA,NA
97c68,"""Falsch""-Screen",canvas.Screen,3_0_1_0_4_1_2,NA,NA,skipped,NA,328405,NA,NA,328401.66,328405,2024-06-01T14:56:21Z,328418.42,NULL,System,maongozi,s,chokochoko,nuksani,mitaani,NA,sdfdsf,NA,1,NA,NA,NA,NA,NA,NA,NA,NA,NA,NA,NA,NA,NA,NA,NA,NA,NA,NA,NA
97c68,shallow,flow.Sequence,3_0_1_0_4_1,NA,NA,completion,12394.68,315993,315990.56,316006.98,328401.66,328406,2024-06-01T14:56:21Z,328418.42,NULL,System,maongozi,s,chokochoko,nuksani,mitaani,NA,sdfdsf,NA,1,NA,NA,NA,NA,NA,NA,NA,NA,NA,NA,NA,NA,NA,NA,NA,NA,NA,NA,NA
97c68,task,flow.Sequence,3_0_1_0_4,NA,NA,completion,12394.68,315993,315990.56,316006.98,328401.66,328406,2024-06-01T14:56:21Z,328418.42,NULL,System,maongozi,s,chokochoko,nuksani,mitaani,NA,sdfdsf,NA,1,NA,NA,NA,NA,NA,NA,NA,NA,NA,NA,NA,NA,NA,NA,NA,NA,NA,NA,NA
97c68,Deep Question,html.Page,3_0_1_0_5_0_0,NA,NA,form submission,5594.58,328406,328401.66,328418.42,334013,334015,2024-06-01T14:56:27Z,334021.86,NULL,Körper,kiwiliwili,d,NA,NA,NA,kiwiliwili,NA,NA,1,NA,NA,NA,NA,NA,NA,NA,NA,NA,NA,NA,NA,NA,NA,NA,NA,NA,NA,NA
97c68,"""Richtig""-Screen",canvas.Screen,3_0_1_0_5_0_1,NA,NA,timeout,4998.42,334024,334011.16,334021.86,339003.56,339004,2024-06-01T14:56:32Z,339020.28,NULL,Körper,kiwiliwili,d,NA,NA,NA,NA,sdfdsf,1,1,NA,NA,NA,NA,NA,NA,NA,NA,NA,NA,NA,NA,NA,NA,NA,NA,NA,NA,NA
97c68,"""Falsch""-Screen",canvas.Screen,3_0_1_0_5_0_2,NA,NA,skipped,NA,339010,NA,NA,339003.56,339010,2024-06-01T14:56:32Z,339020.28,NULL,Körper,kiwiliwili,d,NA,NA,NA,NA,sdfdsf,NA,1,NA,NA,NA,NA,NA,NA,NA,NA,NA,NA,NA,NA,NA,NA,NA,NA,NA,NA,NA
97c68,deep,flow.Sequence,3_0_1_0_5_0,NA,NA,completion,10585.14,328406,328401.66,328418.42,339003.56,339011,2024-06-01T14:56:32Z,339020.28,NULL,Körper,kiwiliwili,d,NA,NA,NA,NA,sdfdsf,NA,1,NA,NA,NA,NA,NA,NA,NA,NA,NA,NA,NA,NA,NA,NA,NA,NA,NA,NA,NA
97c68,shallow,flow.Sequence,3_0_1_0_5_1,NA,NA,skipped,NA,339011,NA,NA,339003.56,339011,2024-06-01T14:56:32Z,339020.28,NULL,Körper,kiwiliwili,d,NA,NA,NA,NA,sdfdsf,NA,1,NA,NA,NA,NA,NA,NA,NA,NA,NA,NA,NA,NA,NA,NA,NA,NA,NA,NA,NA
97c68,task,flow.Sequence,3_0_1_0_5,NA,NA,completion,10585.14,328406,328401.66,328418.42,339003.56,339011,2024-06-01T14:56:32Z,339020.28,NULL,Körper,kiwiliwili,d,NA,NA,NA,NA,sdfdsf,NA,1,NA,NA,NA,NA,NA,NA,NA,NA,NA,NA,NA,NA,NA,NA,NA,NA,NA,NA,NA
97c68,Deep Question,html.Page,3_0_1_0_6_0_0,NA,NA,form submission,3860.72,339011,339003.56,339020.28,342881,342882,2024-06-01T14:56:35Z,342888.94,NULL,Zuwachs,nyongeza,d,NA,NA,NA,bdhesrth,NA,NA,1,NA,NA,NA,NA,NA,NA,NA,NA,NA,NA,NA,NA,NA,NA,NA,NA,NA,NA,NA
97c68,"""Richtig""-Screen",canvas.Screen,3_0_1_0_6_0_1,NA,NA,skipped,NA,342883,NA,NA,342881,342883,2024-06-01T14:56:35Z,342888.94,NULL,Zuwachs,nyongeza,d,NA,NA,NA,NA,sdfdsf,NA,1,NA,NA,NA,NA,NA,NA,NA,NA,NA,NA,NA,NA,NA,NA,NA,NA,NA,NA,NA
97c68,"""Falsch""-Screen",canvas.Screen,3_0_1_0_6_0_2,NA,NA,timeout,4993.58,342885,342877.2,342888.94,347865.84,347867,2024-06-01T14:56:40Z,347882.52,NULL,Zuwachs,nyongeza,d,NA,NA,NA,NA,sdfdsf,0,1,NA,NA,NA,NA,NA,NA,NA,NA,NA,NA,NA,NA,NA,NA,NA,NA,NA,NA,NA
97c68,deep,flow.Sequence,3_0_1_0_6_0,NA,NA,completion,8845.56,339011,339003.56,339020.28,347865.84,347867,2024-06-01T14:56:40Z,347882.52,NULL,Zuwachs,nyongeza,d,NA,NA,NA,NA,sdfdsf,NA,1,NA,NA,NA,NA,NA,NA,NA,NA,NA,NA,NA,NA,NA,NA,NA,NA,NA,NA,NA
97c68,shallow,flow.Sequence,3_0_1_0_6_1,NA,NA,skipped,NA,347867,NA,NA,347865.84,347867,2024-06-01T14:56:40Z,347882.52,NULL,Zuwachs,nyongeza,d,NA,NA,NA,NA,sdfdsf,NA,1,NA,NA,NA,NA,NA,NA,NA,NA,NA,NA,NA,NA,NA,NA,NA,NA,NA,NA,NA
97c68,task,flow.Sequence,3_0_1_0_6,NA,NA,completion,8845.56,339011,339003.56,339020.28,347865.84,347867,2024-06-01T14:56:40Z,347882.52,NULL,Zuwachs,nyongeza,d,NA,NA,NA,NA,sdfdsf,NA,1,NA,NA,NA,NA,NA,NA,NA,NA,NA,NA,NA,NA,NA,NA,NA,NA,NA,NA,NA
97c68,deep,flow.Sequence,3_0_1_0_7_0,NA,NA,skipped,NA,347869,NA,NA,347865.84,347869,2024-06-01T14:56:40Z,347882.52,NULL,Lawine,banguko,s,maambukizi,usuluhishi,chekechea,NA,sdfdsf,NA,1,NA,NA,NA,NA,NA,NA,NA,NA,NA,NA,NA,NA,NA,NA,NA,NA,NA,NA,NA
97c68,Shallow Question,html.Page,3_0_1_0_7_1_0,NA,NA,form submission,6495.48,347869,347865.84,347882.52,354378,354378,2024-06-01T14:56:47Z,354377.48,NULL,Lawine,banguko,s,maambukizi,usuluhishi,chekechea,banguko,NA,NA,1,NA,NA,NA,NA,NA,NA,NA,NA,NA,NA,NA,NA,NA,NA,NA,NA,NA,NA,NA
97c68,"""Richtig""-Screen",canvas.Screen,3_0_1_0_7_1_1,NA,NA,timeout,5005.76,354380,354375.64,354377.48,359366.58,359368,2024-06-01T14:56:52Z,359383.24,NULL,Lawine,banguko,s,maambukizi,usuluhishi,chekechea,NA,sdfdsf,1,1,NA,NA,NA,NA,NA,NA,NA,NA,NA,NA,NA,NA,NA,NA,NA,NA,NA,NA,NA
97c68,"""Falsch""-Screen",canvas.Screen,3_0_1_0_7_1_2,NA,NA,skipped,NA,359369,NA,NA,359366.58,359370,2024-06-01T14:56:52Z,359383.24,NULL,Lawine,banguko,s,maambukizi,usuluhishi,chekechea,NA,sdfdsf,NA,1,NA,NA,NA,NA,NA,NA,NA,NA,NA,NA,NA,NA,NA,NA,NA,NA,NA,NA,NA
97c68,shallow,flow.Sequence,3_0_1_0_7_1,NA,NA,completion,11484.06,347869,347865.84,347882.52,359366.58,359370,2024-06-01T14:56:52Z,359383.24,NULL,Lawine,banguko,s,maambukizi,usuluhishi,chekechea,NA,sdfdsf,NA,1,NA,NA,NA,NA,NA,NA,NA,NA,NA,NA,NA,NA,NA,NA,NA,NA,NA,NA,NA
97c68,task,flow.Sequence,3_0_1_0_7,NA,NA,completion,11484.06,347868,347865.84,347882.52,359366.58,359370,2024-06-01T14:56:52Z,359383.24,NULL,Lawine,banguko,s,maambukizi,usuluhishi,chekechea,NA,sdfdsf,NA,1,NA,NA,NA,NA,NA,NA,NA,NA,NA,NA,NA,NA,NA,NA,NA,NA,NA,NA,NA
97c68,block,flow.Loop,3_0_1_0,NA,NA,completion,88602.4,270764,270764,270764.18,359366.58,359372,2024-06-01T14:56:52Z,359383.24,NULL,NA,NA,NA,NA,NA,NA,NA,sdfdsf,NA,1,NA,NA,NA,NA,NA,NA,NA,NA,NA,NA,NA,NA,NA,NA,NA,NA,NA,NA,NA
97c68,weiter,canvas.Screen,3_0_1_1,sdf,keypress(Space),response,1012.76,359372,359366.58,359383.24,360396,360408,2024-06-01T14:56:53Z,360459.82,NULL,NA,NA,NA,NA,NA,NA,NA,sdfdsf,NA,1,NA,NA,NA,NA,NA,NA,NA,NA,NA,NA,NA,NA,NA,NA,NA,NA,NA,NA,NA
97c68,check continue,flow.Sequence,3_0_1,NA,NA,completion,89631.82,270764,270764,270764.18,360396,360408,2024-06-01T14:56:53Z,360459.82,NULL,NA,NA,NA,NA,NA,NA,NA,sdfdsf,NA,1,NA,NA,NA,NA,NA,NA,NA,NA,NA,NA,NA,NA,NA,NA,NA,NA,NA,NA,NA
97c68,deep,flow.Sequence,3_0_2_0_0_0,NA,NA,skipped,NA,360459,NA,NA,360396,360459,2024-06-01T14:56:53Z,360459.82,NULL,System,maongozi,s,chokochoko,nuksani,mitaani,NA,sdf,NA,2,NA,NA,NA,NA,NA,NA,NA,NA,NA,NA,NA,NA,NA,NA,NA,NA,NA,NA,NA
97c68,Shallow Question,html.Page,3_0_2_0_0_1_0,NA,NA,form submission,6624.18,360459,360459.26,360459.82,367084,367084,2024-06-01T14:57:00Z,367094.92,NULL,System,maongozi,s,chokochoko,nuksani,mitaani,maongozi,NA,NA,2,NA,NA,NA,NA,NA,NA,NA,NA,NA,NA,NA,NA,NA,NA,NA,NA,NA,NA,NA
97c68,"""Richtig""-Screen",canvas.Screen,3_0_2_0_0_1_1,NA,NA,timeout,4996.08,367086,367081.06,367094.92,372074.34,372075,2024-06-01T14:57:05Z,372091,NULL,System,maongozi,s,chokochoko,nuksani,mitaani,NA,sdf,1,2,NA,NA,NA,NA,NA,NA,NA,NA,NA,NA,NA,NA,NA,NA,NA,NA,NA,NA,NA
97c68,"""Falsch""-Screen",canvas.Screen,3_0_2_0_0_1_2,NA,NA,skipped,NA,372076,NA,NA,372074.34,372076,2024-06-01T14:57:05Z,372091,NULL,System,maongozi,s,chokochoko,nuksani,mitaani,NA,sdf,NA,2,NA,NA,NA,NA,NA,NA,NA,NA,NA,NA,NA,NA,NA,NA,NA,NA,NA,NA,NA
97c68,shallow,flow.Sequence,3_0_2_0_0_1,NA,NA,completion,11614.52,360459,360459.26,360459.82,372074.34,372077,2024-06-01T14:57:05Z,372091,NULL,System,maongozi,s,chokochoko,nuksani,mitaani,NA,sdf,NA,2,NA,NA,NA,NA,NA,NA,NA,NA,NA,NA,NA,NA,NA,NA,NA,NA,NA,NA,NA
97c68,task,flow.Sequence,3_0_2_0_0,NA,NA,completion,11614.52,360459,360459.26,360459.82,372074.34,372077,2024-06-01T14:57:05Z,372091,NULL,System,maongozi,s,chokochoko,nuksani,mitaani,NA,sdf,NA,2,NA,NA,NA,NA,NA,NA,NA,NA,NA,NA,NA,NA,NA,NA,NA,NA,NA,NA,NA
97c68,deep,flow.Sequence,3_0_2_0_1_0,NA,NA,skipped,NA,372077,NA,NA,372074.34,372077,2024-06-01T14:57:05Z,372091,NULL,Vorsorge,tahadhari,s,ufafanuzi,makini,mashambani,NA,sdf,NA,2,NA,NA,NA,NA,NA,NA,NA,NA,NA,NA,NA,NA,NA,NA,NA,NA,NA,NA,NA
97c68,Shallow Question,html.Page,3_0_2_0_1_1_0,NA,NA,form submission,4156,372077,372074.34,372091,376247,376248,2024-06-01T14:57:09Z,376244.74,NULL,Vorsorge,tahadhari,s,ufafanuzi,makini,mashambani,tahadhari,NA,NA,2,NA,NA,NA,NA,NA,NA,NA,NA,NA,NA,NA,NA,NA,NA,NA,NA,NA,NA,NA
97c68,"""Richtig""-Screen",canvas.Screen,3_0_2_0_1_1_1,NA,NA,timeout,5004.58,376250,376244.36,376244.74,381232.94,381234,2024-06-01T14:57:14Z,381249.32,NULL,Vorsorge,tahadhari,s,ufafanuzi,makini,mashambani,NA,sdf,1,2,NA,NA,NA,NA,NA,NA,NA,NA,NA,NA,NA,NA,NA,NA,NA,NA,NA,NA,NA
97c68,"""Falsch""-Screen",canvas.Screen,3_0_2_0_1_1_2,NA,NA,skipped,NA,381237,NA,NA,381232.94,381237,2024-06-01T14:57:14Z,381249.32,NULL,Vorsorge,tahadhari,s,ufafanuzi,makini,mashambani,NA,sdf,NA,2,NA,NA,NA,NA,NA,NA,NA,NA,NA,NA,NA,NA,NA,NA,NA,NA,NA,NA,NA
97c68,shallow,flow.Sequence,3_0_2_0_1_1,NA,NA,completion,9141.94,372077,372074.34,372091,381232.94,381237,2024-06-01T14:57:14Z,381249.32,NULL,Vorsorge,tahadhari,s,ufafanuzi,makini,mashambani,NA,sdf,NA,2,NA,NA,NA,NA,NA,NA,NA,NA,NA,NA,NA,NA,NA,NA,NA,NA,NA,NA,NA
97c68,task,flow.Sequence,3_0_2_0_1,NA,NA,completion,9141.94,372077,372074.34,372091,381232.94,381237,2024-06-01T14:57:14Z,381249.32,NULL,Vorsorge,tahadhari,s,ufafanuzi,makini,mashambani,NA,sdf,NA,2,NA,NA,NA,NA,NA,NA,NA,NA,NA,NA,NA,NA,NA,NA,NA,NA,NA,NA,NA
97c68,deep,flow.Sequence,3_0_2_0_2_0,NA,NA,skipped,NA,381237,NA,NA,381232.94,381238,2024-06-01T14:57:14Z,381249.32,NULL,Lawine,banguko,s,maambukizi,usuluhishi,chekechea,NA,sdf,NA,2,NA,NA,NA,NA,NA,NA,NA,NA,NA,NA,NA,NA,NA,NA,NA,NA,NA,NA,NA
97c68,Shallow Question,html.Page,3_0_2_0_2_1_0,NA,NA,form submission,4305.68,381238,381232.94,381249.32,385555,385555,2024-06-01T14:57:18Z,385565.98,NULL,Lawine,banguko,s,maambukizi,usuluhishi,chekechea,banguko,NA,NA,2,NA,NA,NA,NA,NA,NA,NA,NA,NA,NA,NA,NA,NA,NA,NA,NA,NA,NA,NA
97c68,"""Richtig""-Screen",canvas.Screen,3_0_2_0_2_1_1,NA,NA,timeout,4994.26,385557,385552.18,385565.98,390543.92,390545,2024-06-01T14:57:23Z,390560.24,NULL,Lawine,banguko,s,maambukizi,usuluhishi,chekechea,NA,sdf,1,2,NA,NA,NA,NA,NA,NA,NA,NA,NA,NA,NA,NA,NA,NA,NA,NA,NA,NA,NA
97c68,"""Falsch""-Screen",canvas.Screen,3_0_2_0_2_1_2,NA,NA,skipped,NA,390547,NA,NA,390543.92,390547,2024-06-01T14:57:23Z,390560.24,NULL,Lawine,banguko,s,maambukizi,usuluhishi,chekechea,NA,sdf,NA,2,NA,NA,NA,NA,NA,NA,NA,NA,NA,NA,NA,NA,NA,NA,NA,NA,NA,NA,NA
97c68,shallow,flow.Sequence,3_0_2_0_2_1,NA,NA,completion,9294.6,381238,381232.94,381249.32,390543.92,390547,2024-06-01T14:57:23Z,390560.24,NULL,Lawine,banguko,s,maambukizi,usuluhishi,chekechea,NA,sdf,NA,2,NA,NA,NA,NA,NA,NA,NA,NA,NA,NA,NA,NA,NA,NA,NA,NA,NA,NA,NA
97c68,task,flow.Sequence,3_0_2_0_2,NA,NA,completion,9294.6,381237,381232.94,381249.32,390543.92,390547,2024-06-01T14:57:23Z,390560.24,NULL,Lawine,banguko,s,maambukizi,usuluhishi,chekechea,NA,sdf,NA,2,NA,NA,NA,NA,NA,NA,NA,NA,NA,NA,NA,NA,NA,NA,NA,NA,NA,NA,NA
97c68,deep,flow.Sequence,3_0_2_0_3_0,NA,NA,skipped,NA,390547,NA,NA,390543.92,390547,2024-06-01T14:57:23Z,390560.24,NULL,Konkurrent,mshindani,s,msemaji,mvutaji,kipukusa,NA,sdf,NA,2,NA,NA,NA,NA,NA,NA,NA,NA,NA,NA,NA,NA,NA,NA,NA,NA,NA,NA,NA
97c68,Shallow Question,html.Page,3_0_2_0_3_1_0,NA,NA,form submission,8863.76,390548,390543.92,390560.24,399424,399426,2024-06-01T14:57:32Z,399429.42,NULL,Konkurrent,mshindani,s,msemaji,mvutaji,kipukusa,mshindani,NA,NA,2,NA,NA,NA,NA,NA,NA,NA,NA,NA,NA,NA,NA,NA,NA,NA,NA,NA,NA,NA
97c68,"""Richtig""-Screen",canvas.Screen,3_0_2_0_3_1_1,NA,NA,timeout,4992.36,399432,399420.32,399429.42,404405.34,404406,2024-06-01T14:57:37Z,404421.78,NULL,Konkurrent,mshindani,s,msemaji,mvutaji,kipukusa,NA,sdf,1,2,NA,NA,NA,NA,NA,NA,NA,NA,NA,NA,NA,NA,NA,NA,NA,NA,NA,NA,NA
97c68,"""Falsch""-Screen",canvas.Screen,3_0_2_0_3_1_2,NA,NA,skipped,NA,404410,NA,NA,404405.34,404410,2024-06-01T14:57:37Z,404421.78,NULL,Konkurrent,mshindani,s,msemaji,mvutaji,kipukusa,NA,sdf,NA,2,NA,NA,NA,NA,NA,NA,NA,NA,NA,NA,NA,NA,NA,NA,NA,NA,NA,NA,NA
97c68,shallow,flow.Sequence,3_0_2_0_3_1,NA,NA,completion,13845.1,390547,390543.92,390560.24,404405.34,404410,2024-06-01T14:57:37Z,404421.78,NULL,Konkurrent,mshindani,s,msemaji,mvutaji,kipukusa,NA,sdf,NA,2,NA,NA,NA,NA,NA,NA,NA,NA,NA,NA,NA,NA,NA,NA,NA,NA,NA,NA,NA
97c68,task,flow.Sequence,3_0_2_0_3,NA,NA,completion,13845.1,390547,390543.92,390560.24,404405.34,404410,2024-06-01T14:57:37Z,404421.78,NULL,Konkurrent,mshindani,s,msemaji,mvutaji,kipukusa,NA,sdf,NA,2,NA,NA,NA,NA,NA,NA,NA,NA,NA,NA,NA,NA,NA,NA,NA,NA,NA,NA,NA
97c68,Deep Question,html.Page,3_0_2_0_4_0_0,NA,NA,form submission,3994.22,404411,404405.34,404421.78,408416,408416,2024-06-01T14:57:41Z,408428.72,NULL,Symbol,kielezo,d,NA,NA,NA,gjfhj,NA,NA,2,NA,NA,NA,NA,NA,NA,NA,NA,NA,NA,NA,NA,NA,NA,NA,NA,NA,NA,NA
97c68,"""Richtig""-Screen",canvas.Screen,3_0_2_0_4_0_1,NA,NA,skipped,NA,408418,NA,NA,408416,408418,2024-06-01T14:57:41Z,408428.72,NULL,Symbol,kielezo,d,NA,NA,NA,NA,sdf,NA,2,NA,NA,NA,NA,NA,NA,NA,NA,NA,NA,NA,NA,NA,NA,NA,NA,NA,NA,NA
97c68,"""Falsch""-Screen",canvas.Screen,3_0_2_0_4_0_2,NA,NA,timeout,5007.34,408419,408413.08,408428.72,413419.42,413420,2024-06-01T14:57:46Z,413436.06,NULL,Symbol,kielezo,d,NA,NA,NA,NA,sdf,0,2,NA,NA,NA,NA,NA,NA,NA,NA,NA,NA,NA,NA,NA,NA,NA,NA,NA,NA,NA
97c68,deep,flow.Sequence,3_0_2_0_4_0,NA,NA,completion,8997.64,404411,404405.34,404421.78,413419.42,413420,2024-06-01T14:57:46Z,413436.06,NULL,Symbol,kielezo,d,NA,NA,NA,NA,sdf,NA,2,NA,NA,NA,NA,NA,NA,NA,NA,NA,NA,NA,NA,NA,NA,NA,NA,NA,NA,NA
97c68,shallow,flow.Sequence,3_0_2_0_4_1,NA,NA,skipped,NA,413422,NA,NA,413419.42,413422,2024-06-01T14:57:46Z,413436.06,NULL,Symbol,kielezo,d,NA,NA,NA,NA,sdf,NA,2,NA,NA,NA,NA,NA,NA,NA,NA,NA,NA,NA,NA,NA,NA,NA,NA,NA,NA,NA
97c68,task,flow.Sequence,3_0_2_0_4,NA,NA,completion,8997.64,404411,404405.34,404421.78,413419.42,413423,2024-06-01T14:57:46Z,413436.06,NULL,Symbol,kielezo,d,NA,NA,NA,NA,sdf,NA,2,NA,NA,NA,NA,NA,NA,NA,NA,NA,NA,NA,NA,NA,NA,NA,NA,NA,NA,NA
97c68,Deep Question,html.Page,3_0_2_0_5_0_0,NA,NA,form submission,4773.94,413423,413419.42,413436.06,418210,418212,2024-06-01T14:57:51Z,418216.92,NULL,Zuwachs,nyongeza,d,NA,NA,NA,gjggfgu,NA,NA,2,NA,NA,NA,NA,NA,NA,NA,NA,NA,NA,NA,NA,NA,NA,NA,NA,NA,NA,NA
97c68,"""Richtig""-Screen",canvas.Screen,3_0_2_0_5_0_1,NA,NA,skipped,NA,418213,NA,NA,418210,418213,2024-06-01T14:57:51Z,418216.92,NULL,Zuwachs,nyongeza,d,NA,NA,NA,NA,sdf,NA,2,NA,NA,NA,NA,NA,NA,NA,NA,NA,NA,NA,NA,NA,NA,NA,NA,NA,NA,NA
97c68,"""Falsch""-Screen",canvas.Screen,3_0_2_0_5_0_2,NA,NA,timeout,4997.18,418214,418207.8,418216.92,423197.46,423198,2024-06-01T14:57:56Z,423214.1,NULL,Zuwachs,nyongeza,d,NA,NA,NA,NA,sdf,0,2,NA,NA,NA,NA,NA,NA,NA,NA,NA,NA,NA,NA,NA,NA,NA,NA,NA,NA,NA
97c68,deep,flow.Sequence,3_0_2_0_5_0,NA,NA,completion,9761.4,413423,413419.42,413436.06,423197.46,423198,2024-06-01T14:57:56Z,423214.1,NULL,Zuwachs,nyongeza,d,NA,NA,NA,NA,sdf,NA,2,NA,NA,NA,NA,NA,NA,NA,NA,NA,NA,NA,NA,NA,NA,NA,NA,NA,NA,NA
97c68,shallow,flow.Sequence,3_0_2_0_5_1,NA,NA,skipped,NA,423198,NA,NA,423197.46,423198,2024-06-01T14:57:56Z,423214.1,NULL,Zuwachs,nyongeza,d,NA,NA,NA,NA,sdf,NA,2,NA,NA,NA,NA,NA,NA,NA,NA,NA,NA,NA,NA,NA,NA,NA,NA,NA,NA,NA
97c68,task,flow.Sequence,3_0_2_0_5,NA,NA,completion,9761.4,413423,413419.42,413436.06,423197.46,423199,2024-06-01T14:57:56Z,423214.1,NULL,Zuwachs,nyongeza,d,NA,NA,NA,NA,sdf,NA,2,NA,NA,NA,NA,NA,NA,NA,NA,NA,NA,NA,NA,NA,NA,NA,NA,NA,NA,NA
97c68,Deep Question,html.Page,3_0_2_0_6_0_0,NA,NA,form submission,4978.9,423199,423197.46,423214.1,428193,428194,2024-06-01T14:58:01Z,428192.6,NULL,Körper,kiwiliwili,d,NA,NA,NA,hlkhlhl,NA,NA,2,NA,NA,NA,NA,NA,NA,NA,NA,NA,NA,NA,NA,NA,NA,NA,NA,NA,NA,NA
97c68,"""Richtig""-Screen",canvas.Screen,3_0_2_0_6_0_1,NA,NA,skipped,NA,428195,NA,NA,428193,428195,2024-06-01T14:58:01Z,428192.6,NULL,Körper,kiwiliwili,d,NA,NA,NA,NA,sdf,NA,2,NA,NA,NA,NA,NA,NA,NA,NA,NA,NA,NA,NA,NA,NA,NA,NA,NA,NA,NA
97c68,"""Falsch""-Screen",canvas.Screen,3_0_2_0_6_0_2,NA,NA,timeout,5005.28,428196,428190.26,428192.6,433181.44,433182,2024-06-01T14:58:06Z,433197.88,NULL,Körper,kiwiliwili,d,NA,NA,NA,NA,sdf,0,2,NA,NA,NA,NA,NA,NA,NA,NA,NA,NA,NA,NA,NA,NA,NA,NA,NA,NA,NA
97c68,deep,flow.Sequence,3_0_2_0_6_0,NA,NA,completion,9967.34,423199,423197.46,423214.1,433181.44,433183,2024-06-01T14:58:06Z,433197.88,NULL,Körper,kiwiliwili,d,NA,NA,NA,NA,sdf,NA,2,NA,NA,NA,NA,NA,NA,NA,NA,NA,NA,NA,NA,NA,NA,NA,NA,NA,NA,NA
97c68,shallow,flow.Sequence,3_0_2_0_6_1,NA,NA,skipped,NA,433183,NA,NA,433181.44,433183,2024-06-01T14:58:06Z,433197.88,NULL,Körper,kiwiliwili,d,NA,NA,NA,NA,sdf,NA,2,NA,NA,NA,NA,NA,NA,NA,NA,NA,NA,NA,NA,NA,NA,NA,NA,NA,NA,NA
97c68,task,flow.Sequence,3_0_2_0_6,NA,NA,completion,9967.34,423199,423197.46,423214.1,433181.44,433183,2024-06-01T14:58:06Z,433197.88,NULL,Körper,kiwiliwili,d,NA,NA,NA,NA,sdf,NA,2,NA,NA,NA,NA,NA,NA,NA,NA,NA,NA,NA,NA,NA,NA,NA,NA,NA,NA,NA
97c68,Deep Question,html.Page,3_0_2_0_7_0_0,NA,NA,form submission,3167.12,433183,433181.44,433197.88,436365,436365,2024-06-01T14:58:09Z,436374.52,NULL,Übersicht,kilindo,d,NA,NA,NA,nbjkgkjgu,NA,NA,2,NA,NA,NA,NA,NA,NA,NA,NA,NA,NA,NA,NA,NA,NA,NA,NA,NA,NA,NA
97c68,"""Richtig""-Screen",canvas.Screen,3_0_2_0_7_0_1,NA,NA,skipped,NA,436369,NA,NA,436365,436369,2024-06-01T14:58:09Z,436374.52,NULL,Übersicht,kilindo,d,NA,NA,NA,NA,sdf,NA,2,NA,NA,NA,NA,NA,NA,NA,NA,NA,NA,NA,NA,NA,NA,NA,NA,NA,NA,NA
97c68,"""Falsch""-Screen",canvas.Screen,3_0_2_0_7_0_2,NA,NA,timeout,5002.66,436372,436363.8,436374.52,441360.64,441362,2024-06-01T14:58:14Z,441377.18,NULL,Übersicht,kilindo,d,NA,NA,NA,NA,sdf,0,2,NA,NA,NA,NA,NA,NA,NA,NA,NA,NA,NA,NA,NA,NA,NA,NA,NA,NA,NA
97c68,deep,flow.Sequence,3_0_2_0_7_0,NA,NA,completion,8162.76,433183,433181.44,433197.88,441360.64,441362,2024-06-01T14:58:14Z,441377.18,NULL,Übersicht,kilindo,d,NA,NA,NA,NA,sdf,NA,2,NA,NA,NA,NA,NA,NA,NA,NA,NA,NA,NA,NA,NA,NA,NA,NA,NA,NA,NA
97c68,shallow,flow.Sequence,3_0_2_0_7_1,NA,NA,skipped,NA,441362,NA,NA,441360.64,441362,2024-06-01T14:58:14Z,441377.18,NULL,Übersicht,kilindo,d,NA,NA,NA,NA,sdf,NA,2,NA,NA,NA,NA,NA,NA,NA,NA,NA,NA,NA,NA,NA,NA,NA,NA,NA,NA,NA
97c68,task,flow.Sequence,3_0_2_0_7,NA,NA,completion,8162.76,433183,433181.44,433197.88,441360.64,441362,2024-06-01T14:58:14Z,441377.18,NULL,Übersicht,kilindo,d,NA,NA,NA,NA,sdf,NA,2,NA,NA,NA,NA,NA,NA,NA,NA,NA,NA,NA,NA,NA,NA,NA,NA,NA,NA,NA
97c68,block,flow.Loop,3_0_2_0,NA,NA,completion,80900.82,360459,360459.26,360459.82,441360.64,441363,2024-06-01T14:58:14Z,441377.18,NULL,NA,NA,NA,NA,NA,NA,NA,sdf,NA,2,NA,NA,NA,NA,NA,NA,NA,NA,NA,NA,NA,NA,NA,NA,NA,NA,NA,NA,NA
97c68,weiter,canvas.Screen,3_0_2_1,sdf,keypress(Space),response,987.82000000001,441363,441360.64,441377.18,442365,442368,2024-06-01T14:58:15Z,442426.24,NULL,NA,NA,NA,NA,NA,NA,NA,sdf,NA,2,NA,NA,NA,NA,NA,NA,NA,NA,NA,NA,NA,NA,NA,NA,NA,NA,NA,NA,NA
97c68,check continue,flow.Sequence,3_0_2,NA,NA,completion,81905.18,360459,360459.26,360459.82,442365,442369,2024-06-01T14:58:15Z,442426.24,NULL,NA,NA,NA,NA,NA,NA,NA,sdf,NA,2,NA,NA,NA,NA,NA,NA,NA,NA,NA,NA,NA,NA,NA,NA,NA,NA,NA,NA,NA
97c68,deep,flow.Sequence,3_0_3_0_0_0,NA,NA,skipped,NA,442426,NA,NA,442365,442426,2024-06-01T14:58:15Z,442426.24,NULL,Konkurrent,mshindani,s,msemaji,mvutaji,kipukusa,NA,qt,NA,3,NA,NA,NA,NA,NA,NA,NA,NA,NA,NA,NA,NA,NA,NA,NA,NA,NA,NA,NA
97c68,Shallow Question,html.Page,3_0_3_0_0_1_0,NA,NA,form submission,4653.76,442426,442426,442426.24,447080,447080,2024-06-01T14:58:20Z,447077.44,NULL,Konkurrent,mshindani,s,msemaji,mvutaji,kipukusa,mshindani,NA,NA,3,NA,NA,NA,NA,NA,NA,NA,NA,NA,NA,NA,NA,NA,NA,NA,NA,NA,NA,NA
97c68,"""Richtig""-Screen",canvas.Screen,3_0_3_0_0_1_1,NA,NA,timeout,5006.22,447082,447076.08,447077.44,452067.24,452068,2024-06-01T14:58:25Z,452083.66,NULL,Konkurrent,mshindani,s,msemaji,mvutaji,kipukusa,NA,qt,1,3,NA,NA,NA,NA,NA,NA,NA,NA,NA,NA,NA,NA,NA,NA,NA,NA,NA,NA,NA
97c68,"""Falsch""-Screen",canvas.Screen,3_0_3_0_0_1_2,NA,NA,skipped,NA,452070,NA,NA,452067.24,452071,2024-06-01T14:58:25Z,452083.66,NULL,Konkurrent,mshindani,s,msemaji,mvutaji,kipukusa,NA,qt,NA,3,NA,NA,NA,NA,NA,NA,NA,NA,NA,NA,NA,NA,NA,NA,NA,NA,NA,NA,NA
97c68,shallow,flow.Sequence,3_0_3_0_0_1,NA,NA,completion,9641,442426,442426,442426.24,452067.24,452071,2024-06-01T14:58:25Z,452083.66,NULL,Konkurrent,mshindani,s,msemaji,mvutaji,kipukusa,NA,qt,NA,3,NA,NA,NA,NA,NA,NA,NA,NA,NA,NA,NA,NA,NA,NA,NA,NA,NA,NA,NA
97c68,task,flow.Sequence,3_0_3_0_0,NA,NA,completion,9641,442426,442426,442426.24,452067.24,452071,2024-06-01T14:58:25Z,452083.66,NULL,Konkurrent,mshindani,s,msemaji,mvutaji,kipukusa,NA,qt,NA,3,NA,NA,NA,NA,NA,NA,NA,NA,NA,NA,NA,NA,NA,NA,NA,NA,NA,NA,NA
97c68,Deep Question,html.Page,3_0_3_0_1_0_0,NA,NA,form submission,3237.34,452071,452067.24,452083.66,455321,455322,2024-06-01T14:58:28Z,455332.96,NULL,Körper,kiwiliwili,d,NA,NA,NA,vhgfjfg,NA,NA,3,NA,NA,NA,NA,NA,NA,NA,NA,NA,NA,NA,NA,NA,NA,NA,NA,NA,NA,NA
97c68,"""Richtig""-Screen",canvas.Screen,3_0_3_0_1_0_1,NA,NA,skipped,NA,455324,NA,NA,455321,455324,2024-06-01T14:58:28Z,455332.96,NULL,Körper,kiwiliwili,d,NA,NA,NA,NA,qt,NA,3,NA,NA,NA,NA,NA,NA,NA,NA,NA,NA,NA,NA,NA,NA,NA,NA,NA,NA,NA
97c68,"""Falsch""-Screen",canvas.Screen,3_0_3_0_1_0_2,NA,NA,timeout,5007.94,455325,455318.22,455332.96,460324.58,460326,2024-06-01T14:58:33Z,460340.9,NULL,Körper,kiwiliwili,d,NA,NA,NA,NA,qt,0,3,NA,NA,NA,NA,NA,NA,NA,NA,NA,NA,NA,NA,NA,NA,NA,NA,NA,NA,NA
97c68,deep,flow.Sequence,3_0_3_0_1_0,NA,NA,completion,8240.92,452071,452067.24,452083.66,460324.58,460326,2024-06-01T14:58:33Z,460340.9,NULL,Körper,kiwiliwili,d,NA,NA,NA,NA,qt,NA,3,NA,NA,NA,NA,NA,NA,NA,NA,NA,NA,NA,NA,NA,NA,NA,NA,NA,NA,NA
97c68,shallow,flow.Sequence,3_0_3_0_1_1,NA,NA,skipped,NA,460326,NA,NA,460324.58,460326,2024-06-01T14:58:33Z,460340.9,NULL,Körper,kiwiliwili,d,NA,NA,NA,NA,qt,NA,3,NA,NA,NA,NA,NA,NA,NA,NA,NA,NA,NA,NA,NA,NA,NA,NA,NA,NA,NA
97c68,task,flow.Sequence,3_0_3_0_1,NA,NA,completion,8240.92,452071,452067.24,452083.66,460324.58,460326,2024-06-01T14:58:33Z,460340.9,NULL,Körper,kiwiliwili,d,NA,NA,NA,NA,qt,NA,3,NA,NA,NA,NA,NA,NA,NA,NA,NA,NA,NA,NA,NA,NA,NA,NA,NA,NA,NA
97c68,Deep Question,html.Page,3_0_3_0_2_0_0,NA,NA,form submission,3668.1,460327,460324.58,460340.9,464009,464010,2024-06-01T14:58:37Z,464011.26,NULL,Symbol,kielezo,d,NA,NA,NA,kghgfh,NA,NA,3,NA,NA,NA,NA,NA,NA,NA,NA,NA,NA,NA,NA,NA,NA,NA,NA,NA,NA,NA
97c68,"""Richtig""-Screen",canvas.Screen,3_0_3_0_2_0_1,NA,NA,skipped,NA,464012,NA,NA,464009,464012,2024-06-01T14:58:37Z,464011.26,NULL,Symbol,kielezo,d,NA,NA,NA,NA,qt,NA,3,NA,NA,NA,NA,NA,NA,NA,NA,NA,NA,NA,NA,NA,NA,NA,NA,NA,NA,NA
97c68,"""Falsch""-Screen",canvas.Screen,3_0_3_0_2_0_2,NA,NA,timeout,5008.46,464013,464004.62,464011.26,469003.1,469006,2024-06-01T14:58:42Z,469019.72,NULL,Symbol,kielezo,d,NA,NA,NA,NA,qt,0,3,NA,NA,NA,NA,NA,NA,NA,NA,NA,NA,NA,NA,NA,NA,NA,NA,NA,NA,NA
97c68,deep,flow.Sequence,3_0_3_0_2_0,NA,NA,completion,8662.2,460327,460324.58,460340.9,469003.1,469009,2024-06-01T14:58:42Z,469019.72,NULL,Symbol,kielezo,d,NA,NA,NA,NA,qt,NA,3,NA,NA,NA,NA,NA,NA,NA,NA,NA,NA,NA,NA,NA,NA,NA,NA,NA,NA,NA
97c68,shallow,flow.Sequence,3_0_3_0_2_1,NA,NA,skipped,NA,469009,NA,NA,469003.1,469009,2024-06-01T14:58:42Z,469019.72,NULL,Symbol,kielezo,d,NA,NA,NA,NA,qt,NA,3,NA,NA,NA,NA,NA,NA,NA,NA,NA,NA,NA,NA,NA,NA,NA,NA,NA,NA,NA
97c68,task,flow.Sequence,3_0_3_0_2,NA,NA,completion,8662.2,460327,460324.58,460340.9,469003.1,469010,2024-06-01T14:58:42Z,469019.72,NULL,Symbol,kielezo,d,NA,NA,NA,NA,qt,NA,3,NA,NA,NA,NA,NA,NA,NA,NA,NA,NA,NA,NA,NA,NA,NA,NA,NA,NA,NA
97c68,deep,flow.Sequence,3_0_3_0_3_0,NA,NA,skipped,NA,469010,NA,NA,469003.1,469011,2024-06-01T14:58:42Z,469019.72,NULL,System,maongozi,s,chokochoko,nuksani,mitaani,NA,qt,NA,3,NA,NA,NA,NA,NA,NA,NA,NA,NA,NA,NA,NA,NA,NA,NA,NA,NA,NA,NA
97c68,Shallow Question,html.Page,3_0_3_0_3_1_0,NA,NA,form submission,6255.28,469012,469003.1,469019.72,475275,475276,2024-06-01T14:58:48Z,475270.44,NULL,System,maongozi,s,chokochoko,nuksani,mitaani,maongozi,NA,NA,3,NA,NA,NA,NA,NA,NA,NA,NA,NA,NA,NA,NA,NA,NA,NA,NA,NA,NA,NA
97c68,"""Richtig""-Screen",canvas.Screen,3_0_3_0_3_1_1,NA,NA,timeout,4996.46,475281,475269.38,475270.44,480250.22,480251,2024-06-01T14:58:53Z,480266.9,NULL,System,maongozi,s,chokochoko,nuksani,mitaani,NA,qt,1,3,NA,NA,NA,NA,NA,NA,NA,NA,NA,NA,NA,NA,NA,NA,NA,NA,NA,NA,NA
97c68,"""Falsch""-Screen",canvas.Screen,3_0_3_0_3_1_2,NA,NA,skipped,NA,480254,NA,NA,480250.22,480255,2024-06-01T14:58:53Z,480266.9,NULL,System,maongozi,s,chokochoko,nuksani,mitaani,NA,qt,NA,3,NA,NA,NA,NA,NA,NA,NA,NA,NA,NA,NA,NA,NA,NA,NA,NA,NA,NA,NA
97c68,shallow,flow.Sequence,3_0_3_0_3_1,NA,NA,completion,11230.5,469012,469003.1,469019.72,480250.22,480255,2024-06-01T14:58:53Z,480266.9,NULL,System,maongozi,s,chokochoko,nuksani,mitaani,NA,qt,NA,3,NA,NA,NA,NA,NA,NA,NA,NA,NA,NA,NA,NA,NA,NA,NA,NA,NA,NA,NA
97c68,task,flow.Sequence,3_0_3_0_3,NA,NA,completion,11230.5,469010,469003.1,469019.72,480250.22,480256,2024-06-01T14:58:53Z,480266.9,NULL,System,maongozi,s,chokochoko,nuksani,mitaani,NA,qt,NA,3,NA,NA,NA,NA,NA,NA,NA,NA,NA,NA,NA,NA,NA,NA,NA,NA,NA,NA,NA
97c68,Deep Question,html.Page,3_0_3_0_4_0_0,NA,NA,form submission,6782.1,480256,480250.22,480266.9,487049,487050,2024-06-01T14:59:00Z,487053.5,NULL,Übersicht,kilindo,d,NA,NA,NA,kilindo,NA,NA,3,NA,NA,NA,NA,NA,NA,NA,NA,NA,NA,NA,NA,NA,NA,NA,NA,NA,NA,NA
97c68,"""Richtig""-Screen",canvas.Screen,3_0_3_0_4_0_1,NA,NA,timeout,5002.48,487053,487047.34,487053.5,492039.3,492040,2024-06-01T14:59:05Z,492055.98,NULL,Übersicht,kilindo,d,NA,NA,NA,NA,qt,1,3,NA,NA,NA,NA,NA,NA,NA,NA,NA,NA,NA,NA,NA,NA,NA,NA,NA,NA,NA
97c68,"""Falsch""-Screen",canvas.Screen,3_0_3_0_4_0_2,NA,NA,skipped,NA,492043,NA,NA,492039.3,492043,2024-06-01T14:59:05Z,492055.98,NULL,Übersicht,kilindo,d,NA,NA,NA,NA,qt,NA,3,NA,NA,NA,NA,NA,NA,NA,NA,NA,NA,NA,NA,NA,NA,NA,NA,NA,NA,NA
97c68,deep,flow.Sequence,3_0_3_0_4_0,NA,NA,completion,11772.4,480256,480250.22,480266.9,492039.3,492044,2024-06-01T14:59:05Z,492055.98,NULL,Übersicht,kilindo,d,NA,NA,NA,NA,qt,NA,3,NA,NA,NA,NA,NA,NA,NA,NA,NA,NA,NA,NA,NA,NA,NA,NA,NA,NA,NA
97c68,shallow,flow.Sequence,3_0_3_0_4_1,NA,NA,skipped,NA,492044,NA,NA,492039.3,492044,2024-06-01T14:59:05Z,492055.98,NULL,Übersicht,kilindo,d,NA,NA,NA,NA,qt,NA,3,NA,NA,NA,NA,NA,NA,NA,NA,NA,NA,NA,NA,NA,NA,NA,NA,NA,NA,NA
97c68,task,flow.Sequence,3_0_3_0_4,NA,NA,completion,11772.4,480256,480250.22,480266.9,492039.3,492044,2024-06-01T14:59:05Z,492055.98,NULL,Übersicht,kilindo,d,NA,NA,NA,NA,qt,NA,3,NA,NA,NA,NA,NA,NA,NA,NA,NA,NA,NA,NA,NA,NA,NA,NA,NA,NA,NA
97c68,Deep Question,html.Page,3_0_3_0_5_0_0,NA,NA,form submission,2961.02,492045,492039.3,492055.98,495017,495018,2024-06-01T14:59:08Z,495022.8,NULL,Zuwachs,nyongeza,d,NA,NA,NA,hfifzit,NA,NA,3,NA,NA,NA,NA,NA,NA,NA,NA,NA,NA,NA,NA,NA,NA,NA,NA,NA,NA,NA
97c68,"""Richtig""-Screen",canvas.Screen,3_0_3_0_5_0_1,NA,NA,skipped,NA,495021,NA,NA,495017,495021,2024-06-01T14:59:08Z,495022.8,NULL,Zuwachs,nyongeza,d,NA,NA,NA,NA,qt,NA,3,NA,NA,NA,NA,NA,NA,NA,NA,NA,NA,NA,NA,NA,NA,NA,NA,NA,NA,NA
97c68,"""Falsch""-Screen",canvas.Screen,3_0_3_0_5_0_2,NA,NA,timeout,4994.66,495025,495015.44,495022.8,500000.84,500001,2024-06-01T14:59:13Z,500017.46,NULL,Zuwachs,nyongeza,d,NA,NA,NA,NA,qt,0,3,NA,NA,NA,NA,NA,NA,NA,NA,NA,NA,NA,NA,NA,NA,NA,NA,NA,NA,NA
97c68,deep,flow.Sequence,3_0_3_0_5_0,NA,NA,completion,7944.86,492044,492039.3,492055.98,500000.84,500003,2024-06-01T14:59:13Z,500017.46,NULL,Zuwachs,nyongeza,d,NA,NA,NA,NA,qt,NA,3,NA,NA,NA,NA,NA,NA,NA,NA,NA,NA,NA,NA,NA,NA,NA,NA,NA,NA,NA
97c68,shallow,flow.Sequence,3_0_3_0_5_1,NA,NA,skipped,NA,500003,NA,NA,500000.84,500003,2024-06-01T14:59:13Z,500017.46,NULL,Zuwachs,nyongeza,d,NA,NA,NA,NA,qt,NA,3,NA,NA,NA,NA,NA,NA,NA,NA,NA,NA,NA,NA,NA,NA,NA,NA,NA,NA,NA
97c68,task,flow.Sequence,3_0_3_0_5,NA,NA,completion,7944.86,492044,492039.3,492055.98,500000.84,500004,2024-06-01T14:59:13Z,500017.46,NULL,Zuwachs,nyongeza,d,NA,NA,NA,NA,qt,NA,3,NA,NA,NA,NA,NA,NA,NA,NA,NA,NA,NA,NA,NA,NA,NA,NA,NA,NA,NA
97c68,deep,flow.Sequence,3_0_3_0_6_0,NA,NA,skipped,NA,500005,NA,NA,500000.84,500006,2024-06-01T14:59:13Z,500017.46,NULL,Lawine,banguko,s,maambukizi,usuluhishi,chekechea,NA,qt,NA,3,NA,NA,NA,NA,NA,NA,NA,NA,NA,NA,NA,NA,NA,NA,NA,NA,NA,NA,NA
97c68,Shallow Question,html.Page,3_0_3_0_6_1_0,NA,NA,form submission,4789.54,500006,500000.84,500017.46,504807,504808,2024-06-01T14:59:17Z,504812.34,NULL,Lawine,banguko,s,maambukizi,usuluhishi,chekechea,banguko,NA,NA,3,NA,NA,NA,NA,NA,NA,NA,NA,NA,NA,NA,NA,NA,NA,NA,NA,NA,NA,NA
97c68,"""Richtig""-Screen",canvas.Screen,3_0_3_0_6_1_1,NA,NA,timeout,4995.24,504810,504803.76,504812.34,509790.88,509792,2024-06-01T14:59:22Z,509807.58,NULL,Lawine,banguko,s,maambukizi,usuluhishi,chekechea,NA,qt,1,3,NA,NA,NA,NA,NA,NA,NA,NA,NA,NA,NA,NA,NA,NA,NA,NA,NA,NA,NA
97c68,"""Falsch""-Screen",canvas.Screen,3_0_3_0_6_1_2,NA,NA,skipped,NA,509795,NA,NA,509790.88,509795,2024-06-01T14:59:22Z,509807.58,NULL,Lawine,banguko,s,maambukizi,usuluhishi,chekechea,NA,qt,NA,3,NA,NA,NA,NA,NA,NA,NA,NA,NA,NA,NA,NA,NA,NA,NA,NA,NA,NA,NA
97c68,shallow,flow.Sequence,3_0_3_0_6_1,NA,NA,completion,9773.42,500006,500000.84,500017.46,509790.88,509796,2024-06-01T14:59:22Z,509807.58,NULL,Lawine,banguko,s,maambukizi,usuluhishi,chekechea,NA,qt,NA,3,NA,NA,NA,NA,NA,NA,NA,NA,NA,NA,NA,NA,NA,NA,NA,NA,NA,NA,NA
97c68,task,flow.Sequence,3_0_3_0_6,NA,NA,completion,9773.42,500004,500000.84,500017.46,509790.88,509796,2024-06-01T14:59:22Z,509807.58,NULL,Lawine,banguko,s,maambukizi,usuluhishi,chekechea,NA,qt,NA,3,NA,NA,NA,NA,NA,NA,NA,NA,NA,NA,NA,NA,NA,NA,NA,NA,NA,NA,NA
97c68,deep,flow.Sequence,3_0_3_0_7_0,NA,NA,skipped,NA,509796,NA,NA,509790.88,509796,2024-06-01T14:59:22Z,509807.58,NULL,Vorsorge,tahadhari,s,ufafanuzi,makini,mashambani,NA,qt,NA,3,NA,NA,NA,NA,NA,NA,NA,NA,NA,NA,NA,NA,NA,NA,NA,NA,NA,NA,NA
97c68,Shallow Question,html.Page,3_0_3_0_7_1_0,NA,NA,form submission,3303.42,509796,509790.88,509807.58,513111,513111,2024-06-01T14:59:26Z,513121.08,NULL,Vorsorge,tahadhari,s,ufafanuzi,makini,mashambani,tahadhari,NA,NA,3,NA,NA,NA,NA,NA,NA,NA,NA,NA,NA,NA,NA,NA,NA,NA,NA,NA,NA,NA
97c68,"""Richtig""-Screen",canvas.Screen,3_0_3_0_7_1_1,NA,NA,timeout,4992.64,513112,513107.8,513121.08,518096.88,518098,2024-06-01T14:59:31Z,518113.72,NULL,Vorsorge,tahadhari,s,ufafanuzi,makini,mashambani,NA,qt,1,3,NA,NA,NA,NA,NA,NA,NA,NA,NA,NA,NA,NA,NA,NA,NA,NA,NA,NA,NA
97c68,"""Falsch""-Screen",canvas.Screen,3_0_3_0_7_1_2,NA,NA,skipped,NA,518100,NA,NA,518096.88,518100,2024-06-01T14:59:31Z,518113.72,NULL,Vorsorge,tahadhari,s,ufafanuzi,makini,mashambani,NA,qt,NA,3,NA,NA,NA,NA,NA,NA,NA,NA,NA,NA,NA,NA,NA,NA,NA,NA,NA,NA,NA
97c68,shallow,flow.Sequence,3_0_3_0_7_1,NA,NA,completion,8289.3,509796,509790.88,509807.58,518096.88,518101,2024-06-01T14:59:31Z,518113.72,NULL,Vorsorge,tahadhari,s,ufafanuzi,makini,mashambani,NA,qt,NA,3,NA,NA,NA,NA,NA,NA,NA,NA,NA,NA,NA,NA,NA,NA,NA,NA,NA,NA,NA
97c68,task,flow.Sequence,3_0_3_0_7,NA,NA,completion,8289.3,509796,509790.88,509807.58,518096.88,518101,2024-06-01T14:59:31Z,518113.72,NULL,Vorsorge,tahadhari,s,ufafanuzi,makini,mashambani,NA,qt,NA,3,NA,NA,NA,NA,NA,NA,NA,NA,NA,NA,NA,NA,NA,NA,NA,NA,NA,NA,NA
97c68,block,flow.Loop,3_0_3_0,NA,NA,completion,75670.64,442426,442426,442426.24,518096.88,518101,2024-06-01T14:59:31Z,518113.72,NULL,NA,NA,NA,NA,NA,NA,NA,qt,NA,3,NA,NA,NA,NA,NA,NA,NA,NA,NA,NA,NA,NA,NA,NA,NA,NA,NA,NA,NA
97c68,weiter,canvas.Screen,3_0_3_1,sdf,keypress(Space),response,1079.28,518102,518096.88,518113.72,519193,519203,2024-06-01T14:59:32Z,519267.4,NULL,NA,NA,NA,NA,NA,NA,NA,qt,NA,3,NA,NA,NA,NA,NA,NA,NA,NA,NA,NA,NA,NA,NA,NA,NA,NA,NA,NA,NA
97c68,check continue,flow.Sequence,3_0_3,NA,NA,completion,76766.76,442426,442426,442426.24,519193,519203,2024-06-01T14:59:32Z,519267.4,NULL,NA,NA,NA,NA,NA,NA,NA,qt,NA,3,NA,NA,NA,NA,NA,NA,NA,NA,NA,NA,NA,NA,NA,NA,NA,NA,NA,NA,NA
97c68,deep,flow.Sequence,3_0_4_0_0_0,NA,NA,skipped,NA,519267,NA,NA,519193,519267,2024-06-01T14:59:32Z,519267.4,NULL,Lawine,banguko,s,maambukizi,usuluhishi,chekechea,NA,sd,NA,4,NA,NA,NA,NA,NA,NA,NA,NA,NA,NA,NA,NA,NA,NA,NA,NA,NA,NA,NA
97c68,Shallow Question,html.Page,3_0_4_0_0_1_0,NA,NA,form submission,5410.6,519267,519267.12,519267.4,524678,524679,2024-06-01T14:59:37Z,524688.84,NULL,Lawine,banguko,s,maambukizi,usuluhishi,chekechea,banguko,NA,NA,4,NA,NA,NA,NA,NA,NA,NA,NA,NA,NA,NA,NA,NA,NA,NA,NA,NA,NA,NA
97c68,"""Richtig""-Screen",canvas.Screen,3_0_4_0_0_1_1,NA,NA,timeout,4994.42,524684,524673.08,524688.84,529666.58,529670,2024-06-01T14:59:42Z,529683.26,NULL,Lawine,banguko,s,maambukizi,usuluhishi,chekechea,NA,sd,1,4,NA,NA,NA,NA,NA,NA,NA,NA,NA,NA,NA,NA,NA,NA,NA,NA,NA,NA,NA
97c68,"""Falsch""-Screen",canvas.Screen,3_0_4_0_0_1_2,NA,NA,skipped,NA,529681,NA,NA,529666.58,529681,2024-06-01T14:59:42Z,529683.26,NULL,Lawine,banguko,s,maambukizi,usuluhishi,chekechea,NA,sd,NA,4,NA,NA,NA,NA,NA,NA,NA,NA,NA,NA,NA,NA,NA,NA,NA,NA,NA,NA,NA
97c68,shallow,flow.Sequence,3_0_4_0_0_1,NA,NA,completion,10399.18,519267,519267.12,519267.4,529666.58,529682,2024-06-01T14:59:42Z,529683.26,NULL,Lawine,banguko,s,maambukizi,usuluhishi,chekechea,NA,sd,NA,4,NA,NA,NA,NA,NA,NA,NA,NA,NA,NA,NA,NA,NA,NA,NA,NA,NA,NA,NA
97c68,task,flow.Sequence,3_0_4_0_0,NA,NA,completion,10399.18,519267,519267.12,519267.4,529666.58,529684,2024-06-01T14:59:42Z,529683.26,NULL,Lawine,banguko,s,maambukizi,usuluhishi,chekechea,NA,sd,NA,4,NA,NA,NA,NA,NA,NA,NA,NA,NA,NA,NA,NA,NA,NA,NA,NA,NA,NA,NA
97c68,Deep Question,html.Page,3_0_4_0_1_0_0,NA,NA,form submission,4099.74,529684,529666.58,529683.26,533783,533785,2024-06-01T14:59:46Z,533798.68,NULL,Übersicht,kilindo,d,NA,NA,NA,kilindo,NA,NA,4,NA,NA,NA,NA,NA,NA,NA,NA,NA,NA,NA,NA,NA,NA,NA,NA,NA,NA,NA
97c68,"""Richtig""-Screen",canvas.Screen,3_0_4_0_1_0_1,NA,NA,timeout,5001.6599999999,533788,533781.82,533798.68,538783.72,538785,2024-06-01T14:59:51Z,538800.34,NULL,Übersicht,kilindo,d,NA,NA,NA,NA,sd,1,4,NA,NA,NA,NA,NA,NA,NA,NA,NA,NA,NA,NA,NA,NA,NA,NA,NA,NA,NA
97c68,"""Falsch""-Screen",canvas.Screen,3_0_4_0_1_0_2,NA,NA,skipped,NA,538788,NA,NA,538783.72,538788,2024-06-01T14:59:51Z,538800.34,NULL,Übersicht,kilindo,d,NA,NA,NA,NA,sd,NA,4,NA,NA,NA,NA,NA,NA,NA,NA,NA,NA,NA,NA,NA,NA,NA,NA,NA,NA,NA
97c68,deep,flow.Sequence,3_0_4_0_1_0,NA,NA,completion,9100.46,529684,529666.58,529683.26,538783.72,538789,2024-06-01T14:59:51Z,538800.34,NULL,Übersicht,kilindo,d,NA,NA,NA,NA,sd,NA,4,NA,NA,NA,NA,NA,NA,NA,NA,NA,NA,NA,NA,NA,NA,NA,NA,NA,NA,NA
97c68,shallow,flow.Sequence,3_0_4_0_1_1,NA,NA,skipped,NA,538789,NA,NA,538783.72,538789,2024-06-01T14:59:51Z,538800.34,NULL,Übersicht,kilindo,d,NA,NA,NA,NA,sd,NA,4,NA,NA,NA,NA,NA,NA,NA,NA,NA,NA,NA,NA,NA,NA,NA,NA,NA,NA,NA
97c68,task,flow.Sequence,3_0_4_0_1,NA,NA,completion,9100.46,529684,529666.58,529683.26,538783.72,538789,2024-06-01T14:59:51Z,538800.34,NULL,Übersicht,kilindo,d,NA,NA,NA,NA,sd,NA,4,NA,NA,NA,NA,NA,NA,NA,NA,NA,NA,NA,NA,NA,NA,NA,NA,NA,NA,NA
97c68,deep,flow.Sequence,3_0_4_0_2_0,NA,NA,skipped,NA,538790,NA,NA,538783.72,538790,2024-06-01T14:59:51Z,538800.34,NULL,System,maongozi,s,chokochoko,nuksani,mitaani,NA,sd,NA,4,NA,NA,NA,NA,NA,NA,NA,NA,NA,NA,NA,NA,NA,NA,NA,NA,NA,NA,NA
97c68,Shallow Question,html.Page,3_0_4_0_2_1_0,NA,NA,form submission,4631.66,538790,538783.72,538800.34,543432,543433,2024-06-01T14:59:56Z,543430.42,NULL,System,maongozi,s,chokochoko,nuksani,mitaani,maongozi,NA,NA,4,NA,NA,NA,NA,NA,NA,NA,NA,NA,NA,NA,NA,NA,NA,NA,NA,NA,NA,NA
97c68,"""Richtig""-Screen",canvas.Screen,3_0_4_0_2_1_1,NA,NA,timeout,4999.14,543434,543429.24,543430.42,548412.98,548414,2024-06-01T15:00:01Z,548429.56,NULL,System,maongozi,s,chokochoko,nuksani,mitaani,NA,sd,1,4,NA,NA,NA,NA,NA,NA,NA,NA,NA,NA,NA,NA,NA,NA,NA,NA,NA,NA,NA
97c68,"""Falsch""-Screen",canvas.Screen,3_0_4_0_2_1_2,NA,NA,skipped,NA,548417,NA,NA,548412.98,548418,2024-06-01T15:00:01Z,548429.56,NULL,System,maongozi,s,chokochoko,nuksani,mitaani,NA,sd,NA,4,NA,NA,NA,NA,NA,NA,NA,NA,NA,NA,NA,NA,NA,NA,NA,NA,NA,NA,NA
97c68,shallow,flow.Sequence,3_0_4_0_2_1,NA,NA,completion,9612.64,538790,538783.72,538800.34,548412.98,548418,2024-06-01T15:00:01Z,548429.56,NULL,System,maongozi,s,chokochoko,nuksani,mitaani,NA,sd,NA,4,NA,NA,NA,NA,NA,NA,NA,NA,NA,NA,NA,NA,NA,NA,NA,NA,NA,NA,NA
97c68,task,flow.Sequence,3_0_4_0_2,NA,NA,completion,9612.64,538790,538783.72,538800.34,548412.98,548418,2024-06-01T15:00:01Z,548429.56,NULL,System,maongozi,s,chokochoko,nuksani,mitaani,NA,sd,NA,4,NA,NA,NA,NA,NA,NA,NA,NA,NA,NA,NA,NA,NA,NA,NA,NA,NA,NA,NA
97c68,deep,flow.Sequence,3_0_4_0_3_0,NA,NA,skipped,NA,548418,NA,NA,548412.98,548419,2024-06-01T15:00:01Z,548429.56,NULL,Vorsorge,tahadhari,s,ufafanuzi,makini,mashambani,NA,sd,NA,4,NA,NA,NA,NA,NA,NA,NA,NA,NA,NA,NA,NA,NA,NA,NA,NA,NA,NA,NA
97c68,Shallow Question,html.Page,3_0_4_0_3_1_0,NA,NA,form submission,3942.4399999999,548419,548412.98,548429.56,552372,552372,2024-06-01T15:00:05Z,552378.68,NULL,Vorsorge,tahadhari,s,ufafanuzi,makini,mashambani,tahadhari,NA,NA,4,NA,NA,NA,NA,NA,NA,NA,NA,NA,NA,NA,NA,NA,NA,NA,NA,NA,NA,NA
97c68,"""Richtig""-Screen",canvas.Screen,3_0_4_0_3_1_1,NA,NA,timeout,4995.86,552373,552369.06,552378.68,557358.12,557359,2024-06-01T15:00:10Z,557374.54,NULL,Vorsorge,tahadhari,s,ufafanuzi,makini,mashambani,NA,sd,1,4,NA,NA,NA,NA,NA,NA,NA,NA,NA,NA,NA,NA,NA,NA,NA,NA,NA,NA,NA
97c68,"""Falsch""-Screen",canvas.Screen,3_0_4_0_3_1_2,NA,NA,skipped,NA,557362,NA,NA,557358.12,557362,2024-06-01T15:00:10Z,557374.54,NULL,Vorsorge,tahadhari,s,ufafanuzi,makini,mashambani,NA,sd,NA,4,NA,NA,NA,NA,NA,NA,NA,NA,NA,NA,NA,NA,NA,NA,NA,NA,NA,NA,NA
97c68,shallow,flow.Sequence,3_0_4_0_3_1,NA,NA,completion,8928.5599999999,548419,548412.98,548429.56,557358.12,557362,2024-06-01T15:00:10Z,557374.54,NULL,Vorsorge,tahadhari,s,ufafanuzi,makini,mashambani,NA,sd,NA,4,NA,NA,NA,NA,NA,NA,NA,NA,NA,NA,NA,NA,NA,NA,NA,NA,NA,NA,NA
97c68,task,flow.Sequence,3_0_4_0_3,NA,NA,completion,8928.5599999999,548418,548412.98,548429.56,557358.12,557363,2024-06-01T15:00:10Z,557374.54,NULL,Vorsorge,tahadhari,s,ufafanuzi,makini,mashambani,NA,sd,NA,4,NA,NA,NA,NA,NA,NA,NA,NA,NA,NA,NA,NA,NA,NA,NA,NA,NA,NA,NA
97c68,deep,flow.Sequence,3_0_4_0_4_0,NA,NA,skipped,NA,557363,NA,NA,557358.12,557363,2024-06-01T15:00:10Z,557374.54,NULL,Konkurrent,mshindani,s,msemaji,mvutaji,kipukusa,NA,sd,NA,4,NA,NA,NA,NA,NA,NA,NA,NA,NA,NA,NA,NA,NA,NA,NA,NA,NA,NA,NA
97c68,Shallow Question,html.Page,3_0_4_0_4_1_0,NA,NA,form submission,4383.46,557363,557358.12,557374.54,561758,561759,2024-06-01T15:00:14Z,561761.88,NULL,Konkurrent,mshindani,s,msemaji,mvutaji,kipukusa,mshindani,NA,NA,4,NA,NA,NA,NA,NA,NA,NA,NA,NA,NA,NA,NA,NA,NA,NA,NA,NA,NA,NA
97c68,"""Richtig""-Screen",canvas.Screen,3_0_4_0_4_1_1,NA,NA,timeout,5004.38,561761,561755.12,561761.88,566749.62,566750,2024-06-01T15:00:19Z,566766.26,NULL,Konkurrent,mshindani,s,msemaji,mvutaji,kipukusa,NA,sd,1,4,NA,NA,NA,NA,NA,NA,NA,NA,NA,NA,NA,NA,NA,NA,NA,NA,NA,NA,NA
97c68,"""Falsch""-Screen",canvas.Screen,3_0_4_0_4_1_2,NA,NA,skipped,NA,566754,NA,NA,566749.62,566754,2024-06-01T15:00:19Z,566766.26,NULL,Konkurrent,mshindani,s,msemaji,mvutaji,kipukusa,NA,sd,NA,4,NA,NA,NA,NA,NA,NA,NA,NA,NA,NA,NA,NA,NA,NA,NA,NA,NA,NA,NA
97c68,shallow,flow.Sequence,3_0_4_0_4_1,NA,NA,completion,9375.08,557363,557358.12,557374.54,566749.62,566754,2024-06-01T15:00:19Z,566766.26,NULL,Konkurrent,mshindani,s,msemaji,mvutaji,kipukusa,NA,sd,NA,4,NA,NA,NA,NA,NA,NA,NA,NA,NA,NA,NA,NA,NA,NA,NA,NA,NA,NA,NA
97c68,task,flow.Sequence,3_0_4_0_4,NA,NA,completion,9375.08,557363,557358.12,557374.54,566749.62,566754,2024-06-01T15:00:19Z,566766.26,NULL,Konkurrent,mshindani,s,msemaji,mvutaji,kipukusa,NA,sd,NA,4,NA,NA,NA,NA,NA,NA,NA,NA,NA,NA,NA,NA,NA,NA,NA,NA,NA,NA,NA
97c68,Deep Question,html.Page,3_0_4_0_5_0_0,NA,NA,form submission,4268.74,566754,566749.62,566766.26,571035,571035,2024-06-01T15:00:24Z,571042.86,NULL,Symbol,kielezo,d,NA,NA,NA,bhjgjkguj,NA,NA,4,NA,NA,NA,NA,NA,NA,NA,NA,NA,NA,NA,NA,NA,NA,NA,NA,NA,NA,NA
97c68,"""Richtig""-Screen",canvas.Screen,3_0_4_0_5_0_1,NA,NA,skipped,NA,571038,NA,NA,571035,571038,2024-06-01T15:00:24Z,571042.86,NULL,Symbol,kielezo,d,NA,NA,NA,NA,sd,NA,4,NA,NA,NA,NA,NA,NA,NA,NA,NA,NA,NA,NA,NA,NA,NA,NA,NA,NA,NA
97c68,"""Falsch""-Screen",canvas.Screen,3_0_4_0_5_0_2,NA,NA,timeout,4992.48,571041,571033.4,571042.86,576018.54,576020,2024-06-01T15:00:29Z,576035.34,NULL,Symbol,kielezo,d,NA,NA,NA,NA,sd,0,4,NA,NA,NA,NA,NA,NA,NA,NA,NA,NA,NA,NA,NA,NA,NA,NA,NA,NA,NA
97c68,deep,flow.Sequence,3_0_4_0_5_0,NA,NA,completion,9252.28,566754,566749.62,566766.26,576018.54,576021,2024-06-01T15:00:29Z,576035.34,NULL,Symbol,kielezo,d,NA,NA,NA,NA,sd,NA,4,NA,NA,NA,NA,NA,NA,NA,NA,NA,NA,NA,NA,NA,NA,NA,NA,NA,NA,NA
97c68,shallow,flow.Sequence,3_0_4_0_5_1,NA,NA,skipped,NA,576021,NA,NA,576018.54,576021,2024-06-01T15:00:29Z,576035.34,NULL,Symbol,kielezo,d,NA,NA,NA,NA,sd,NA,4,NA,NA,NA,NA,NA,NA,NA,NA,NA,NA,NA,NA,NA,NA,NA,NA,NA,NA,NA
97c68,task,flow.Sequence,3_0_4_0_5,NA,NA,completion,9252.28,566754,566749.62,566766.26,576018.54,576021,2024-06-01T15:00:29Z,576035.34,NULL,Symbol,kielezo,d,NA,NA,NA,NA,sd,NA,4,NA,NA,NA,NA,NA,NA,NA,NA,NA,NA,NA,NA,NA,NA,NA,NA,NA,NA,NA
97c68,Deep Question,html.Page,3_0_4_0_6_0_0,NA,NA,form submission,3349.66,576021,576018.54,576035.34,579385,579385,2024-06-01T15:00:32Z,579398.08,NULL,Körper,kiwiliwili,d,NA,NA,NA,",nbkjgku",NA,NA,4,NA,NA,NA,NA,NA,NA,NA,NA,NA,NA,NA,NA,NA,NA,NA,NA,NA,NA,NA
97c68,"""Richtig""-Screen",canvas.Screen,3_0_4_0_6_0_1,NA,NA,skipped,NA,579387,NA,NA,579385,579387,2024-06-01T15:00:32Z,579398.08,NULL,Körper,kiwiliwili,d,NA,NA,NA,NA,sd,NA,4,NA,NA,NA,NA,NA,NA,NA,NA,NA,NA,NA,NA,NA,NA,NA,NA,NA,NA,NA
97c68,"""Falsch""-Screen",canvas.Screen,3_0_4_0_6_0_2,NA,NA,timeout,5003.52,579390,579382.92,579398.08,584384.86,584385,2024-06-01T15:00:37Z,584401.6,NULL,Körper,kiwiliwili,d,NA,NA,NA,NA,sd,0,4,NA,NA,NA,NA,NA,NA,NA,NA,NA,NA,NA,NA,NA,NA,NA,NA,NA,NA,NA
97c68,deep,flow.Sequence,3_0_4_0_6_0,NA,NA,completion,8349.52,576021,576018.54,576035.34,584384.86,584386,2024-06-01T15:00:37Z,584401.6,NULL,Körper,kiwiliwili,d,NA,NA,NA,NA,sd,NA,4,NA,NA,NA,NA,NA,NA,NA,NA,NA,NA,NA,NA,NA,NA,NA,NA,NA,NA,NA
97c68,shallow,flow.Sequence,3_0_4_0_6_1,NA,NA,skipped,NA,584386,NA,NA,584384.86,584386,2024-06-01T15:00:37Z,584401.6,NULL,Körper,kiwiliwili,d,NA,NA,NA,NA,sd,NA,4,NA,NA,NA,NA,NA,NA,NA,NA,NA,NA,NA,NA,NA,NA,NA,NA,NA,NA,NA
97c68,task,flow.Sequence,3_0_4_0_6,NA,NA,completion,8349.52,576021,576018.54,576035.34,584384.86,584386,2024-06-01T15:00:37Z,584401.6,NULL,Körper,kiwiliwili,d,NA,NA,NA,NA,sd,NA,4,NA,NA,NA,NA,NA,NA,NA,NA,NA,NA,NA,NA,NA,NA,NA,NA,NA,NA,NA
97c68,Deep Question,html.Page,3_0_4_0_7_0_0,NA,NA,form submission,3501.4,584386,584384.86,584401.6,587903,587903,2024-06-01T15:00:40Z,587901.4,NULL,Zuwachs,nyongeza,d,NA,NA,NA,gvjfgkl,NA,NA,4,NA,NA,NA,NA,NA,NA,NA,NA,NA,NA,NA,NA,NA,NA,NA,NA,NA,NA,NA
97c68,"""Richtig""-Screen",canvas.Screen,3_0_4_0_7_0_1,NA,NA,skipped,NA,587906,NA,NA,587903,587906,2024-06-01T15:00:40Z,587901.4,NULL,Zuwachs,nyongeza,d,NA,NA,NA,NA,sd,NA,4,NA,NA,NA,NA,NA,NA,NA,NA,NA,NA,NA,NA,NA,NA,NA,NA,NA,NA,NA
97c68,"""Falsch""-Screen",canvas.Screen,3_0_4_0_7_0_2,NA,NA,timeout,4998.28,587909,587900.98,587901.4,592883,592885,2024-06-01T15:00:45Z,592899.68,NULL,Zuwachs,nyongeza,d,NA,NA,NA,NA,sd,0,4,NA,NA,NA,NA,NA,NA,NA,NA,NA,NA,NA,NA,NA,NA,NA,NA,NA,NA,NA
97c68,deep,flow.Sequence,3_0_4_0_7_0,NA,NA,completion,8481.4,584386,584384.86,584401.6,592883,592887,2024-06-01T15:00:45Z,592899.68,NULL,Zuwachs,nyongeza,d,NA,NA,NA,NA,sd,NA,4,NA,NA,NA,NA,NA,NA,NA,NA,NA,NA,NA,NA,NA,NA,NA,NA,NA,NA,NA
97c68,shallow,flow.Sequence,3_0_4_0_7_1,NA,NA,skipped,NA,592887,NA,NA,592883,592887,2024-06-01T15:00:45Z,592899.68,NULL,Zuwachs,nyongeza,d,NA,NA,NA,NA,sd,NA,4,NA,NA,NA,NA,NA,NA,NA,NA,NA,NA,NA,NA,NA,NA,NA,NA,NA,NA,NA
97c68,task,flow.Sequence,3_0_4_0_7,NA,NA,completion,8481.4,584386,584384.86,584401.6,592883,592888,2024-06-01T15:00:45Z,592899.68,NULL,Zuwachs,nyongeza,d,NA,NA,NA,NA,sd,NA,4,NA,NA,NA,NA,NA,NA,NA,NA,NA,NA,NA,NA,NA,NA,NA,NA,NA,NA,NA
97c68,block,flow.Loop,3_0_4_0,NA,NA,completion,73615.6,519267,519267.12,519267.4,592883,592888,2024-06-01T15:00:45Z,592899.68,NULL,NA,NA,NA,NA,NA,NA,NA,sd,NA,4,NA,NA,NA,NA,NA,NA,NA,NA,NA,NA,NA,NA,NA,NA,NA,NA,NA,NA,NA
97c68,weiter,canvas.Screen,3_0_4_1,sdf,keypress(Space),response,840.31999999995,592888,592883,592899.68,593740,593766,2024-06-01T15:00:46Z,594342.36,NULL,NA,NA,NA,NA,NA,NA,NA,sd,NA,4,NA,NA,NA,NA,NA,NA,NA,NA,NA,NA,NA,NA,NA,NA,NA,NA,NA,NA,NA
97c68,check continue,flow.Sequence,3_0_4,NA,NA,completion,74472.6,519267,519267.12,519267.4,593740,593767,2024-06-01T15:00:46Z,594342.36,NULL,NA,NA,NA,NA,NA,NA,NA,sd,NA,4,NA,NA,NA,NA,NA,NA,NA,NA,NA,NA,NA,NA,NA,NA,NA,NA,NA,NA,NA
97c68,check continue,flow.Sequence,3_0_5,NA,NA,skipped,NA,593843,NA,NA,593740,593844,2024-06-01T15:00:46Z,594342.36,NULL,NA,NA,NA,NA,NA,NA,NA,sdf,NA,5,NA,NA,NA,NA,NA,NA,NA,NA,NA,NA,NA,NA,NA,NA,NA,NA,NA,NA,NA
97c68,check continue,flow.Sequence,3_0_6,NA,NA,skipped,NA,593874,NA,NA,593740,593874,2024-06-01T15:00:46Z,594342.36,NULL,NA,NA,NA,NA,NA,NA,NA,dfs,NA,6,NA,NA,NA,NA,NA,NA,NA,NA,NA,NA,NA,NA,NA,NA,NA,NA,NA,NA,NA
97c68,check continue,flow.Sequence,3_0_7,NA,NA,skipped,NA,593897,NA,NA,593740,593897,2024-06-01T15:00:46Z,594342.36,NULL,NA,NA,NA,NA,NA,NA,NA,df,NA,7,NA,NA,NA,NA,NA,NA,NA,NA,NA,NA,NA,NA,NA,NA,NA,NA,NA,NA,NA
97c68,check continue,flow.Sequence,3_0_8,NA,NA,skipped,NA,593919,NA,NA,593740,593919,2024-06-01T15:00:46Z,594342.36,NULL,NA,NA,NA,NA,NA,NA,NA,dfs,NA,8,NA,NA,NA,NA,NA,NA,NA,NA,NA,NA,NA,NA,NA,NA,NA,NA,NA,NA,NA
97c68,check continue,flow.Sequence,3_0_9,NA,NA,skipped,NA,593944,NA,NA,593740,593944,2024-06-01T15:00:46Z,594342.36,NULL,NA,NA,NA,NA,NA,NA,NA,dsf,NA,9,NA,NA,NA,NA,NA,NA,NA,NA,NA,NA,NA,NA,NA,NA,NA,NA,NA,NA,NA
97c68,check continue,flow.Sequence,3_0_10,NA,NA,skipped,NA,593964,NA,NA,593740,593964,2024-06-01T15:00:47Z,594342.36,NULL,NA,NA,NA,NA,NA,NA,NA,df,NA,10,NA,NA,NA,NA,NA,NA,NA,NA,NA,NA,NA,NA,NA,NA,NA,NA,NA,NA,NA
97c68,check continue,flow.Sequence,3_0_11,NA,NA,skipped,NA,593985,NA,NA,593740,593985,2024-06-01T15:00:47Z,594342.36,NULL,NA,NA,NA,NA,NA,NA,NA,dfs,NA,11,NA,NA,NA,NA,NA,NA,NA,NA,NA,NA,NA,NA,NA,NA,NA,NA,NA,NA,NA
97c68,check continue,flow.Sequence,3_0_12,NA,NA,skipped,NA,594003,NA,NA,593740,594003,2024-06-01T15:00:47Z,594342.36,NULL,NA,NA,NA,NA,NA,NA,NA,dsf,NA,12,NA,NA,NA,NA,NA,NA,NA,NA,NA,NA,NA,NA,NA,NA,NA,NA,NA,NA,NA
97c68,check continue,flow.Sequence,3_0_13,NA,NA,skipped,NA,594027,NA,NA,593740,594027,2024-06-01T15:00:47Z,594342.36,NULL,NA,NA,NA,NA,NA,NA,NA,dsf,NA,13,NA,NA,NA,NA,NA,NA,NA,NA,NA,NA,NA,NA,NA,NA,NA,NA,NA,NA,NA
97c68,check continue,flow.Sequence,3_0_14,NA,NA,skipped,NA,594047,NA,NA,593740,594048,2024-06-01T15:00:47Z,594342.36,NULL,NA,NA,NA,NA,NA,NA,NA,NA,NA,14,NA,NA,NA,NA,NA,NA,NA,NA,NA,NA,NA,NA,NA,NA,NA,NA,NA,NA,NA
97c68,check continue,flow.Sequence,3_0_15,NA,NA,skipped,NA,594065,NA,NA,593740,594065,2024-06-01T15:00:47Z,594342.36,NULL,NA,NA,NA,NA,NA,NA,NA,NA,NA,15,NA,NA,NA,NA,NA,NA,NA,NA,NA,NA,NA,NA,NA,NA,NA,NA,NA,NA,NA
97c68,check continue,flow.Sequence,3_0_16,NA,NA,skipped,NA,594088,NA,NA,593740,594088,2024-06-01T15:00:47Z,594342.36,NULL,NA,NA,NA,NA,NA,NA,NA,NA,NA,16,NA,NA,NA,NA,NA,NA,NA,NA,NA,NA,NA,NA,NA,NA,NA,NA,NA,NA,NA
97c68,check continue,flow.Sequence,3_0_17,NA,NA,skipped,NA,594105,NA,NA,593740,594106,2024-06-01T15:00:47Z,594342.36,NULL,NA,NA,NA,NA,NA,NA,NA,NA,NA,17,NA,NA,NA,NA,NA,NA,NA,NA,NA,NA,NA,NA,NA,NA,NA,NA,NA,NA,NA
97c68,check continue,flow.Sequence,3_0_18,NA,NA,skipped,NA,594124,NA,NA,593740,594124,2024-06-01T15:00:47Z,594342.36,NULL,NA,NA,NA,NA,NA,NA,NA,NA,NA,18,NA,NA,NA,NA,NA,NA,NA,NA,NA,NA,NA,NA,NA,NA,NA,NA,NA,NA,NA
97c68,check continue,flow.Sequence,3_0_19,NA,NA,skipped,NA,594146,NA,NA,593740,594146,2024-06-01T15:00:47Z,594342.36,NULL,NA,NA,NA,NA,NA,NA,NA,NA,NA,19,NA,NA,NA,NA,NA,NA,NA,NA,NA,NA,NA,NA,NA,NA,NA,NA,NA,NA,NA
97c68,check continue,flow.Sequence,3_0_20,NA,NA,skipped,NA,594165,NA,NA,593740,594165,2024-06-01T15:00:47Z,594342.36,NULL,NA,NA,NA,NA,NA,NA,NA,NA,NA,20,NA,NA,NA,NA,NA,NA,NA,NA,NA,NA,NA,NA,NA,NA,NA,NA,NA,NA,NA
97c68,check continue,flow.Sequence,3_0_21,NA,NA,skipped,NA,594184,NA,NA,593740,594184,2024-06-01T15:00:47Z,594342.36,NULL,NA,NA,NA,NA,NA,NA,NA,NA,NA,21,NA,NA,NA,NA,NA,NA,NA,NA,NA,NA,NA,NA,NA,NA,NA,NA,NA,NA,NA
97c68,check continue,flow.Sequence,3_0_22,NA,NA,skipped,NA,594205,NA,NA,593740,594206,2024-06-01T15:00:47Z,594342.36,NULL,NA,NA,NA,NA,NA,NA,NA,NA,NA,22,NA,NA,NA,NA,NA,NA,NA,NA,NA,NA,NA,NA,NA,NA,NA,NA,NA,NA,NA
97c68,check continue,flow.Sequence,3_0_23,NA,NA,skipped,NA,594223,NA,NA,593740,594224,2024-06-01T15:00:47Z,594342.36,NULL,NA,NA,NA,NA,NA,NA,NA,NA,NA,23,NA,NA,NA,NA,NA,NA,NA,NA,NA,NA,NA,NA,NA,NA,NA,NA,NA,NA,NA
97c68,check continue,flow.Sequence,3_0_24,NA,NA,skipped,NA,594243,NA,NA,593740,594243,2024-06-01T15:00:47Z,594342.36,NULL,NA,NA,NA,NA,NA,NA,NA,NA,NA,24,NA,NA,NA,NA,NA,NA,NA,NA,NA,NA,NA,NA,NA,NA,NA,NA,NA,NA,NA
97c68,check continue,flow.Sequence,3_0_25,NA,NA,skipped,NA,594266,NA,NA,593740,594266,2024-06-01T15:00:47Z,594342.36,NULL,NA,NA,NA,NA,NA,NA,NA,NA,NA,25,NA,NA,NA,NA,NA,NA,NA,NA,NA,NA,NA,NA,NA,NA,NA,NA,NA,NA,NA
97c68,check continue,flow.Sequence,3_0_26,NA,NA,skipped,NA,594285,NA,NA,593740,594285,2024-06-01T15:00:47Z,594342.36,NULL,NA,NA,NA,NA,NA,NA,NA,NA,NA,26,NA,NA,NA,NA,NA,NA,NA,NA,NA,NA,NA,NA,NA,NA,NA,NA,NA,NA,NA
97c68,check continue,flow.Sequence,3_0_27,NA,NA,skipped,NA,594305,NA,NA,593740,594305,2024-06-01T15:00:47Z,594342.36,NULL,NA,NA,NA,NA,NA,NA,NA,NA,NA,27,NA,NA,NA,NA,NA,NA,NA,NA,NA,NA,NA,NA,NA,NA,NA,NA,NA,NA,NA
97c68,check continue,flow.Sequence,3_0_28,NA,NA,skipped,NA,594324,NA,NA,593740,594324,2024-06-01T15:00:47Z,594342.36,NULL,NA,NA,NA,NA,NA,NA,NA,NA,NA,28,NA,NA,NA,NA,NA,NA,NA,NA,NA,NA,NA,NA,NA,NA,NA,NA,NA,NA,NA
97c68,check continue,flow.Sequence,3_0_29,NA,NA,skipped,NA,594341,NA,NA,593740,594341,2024-06-01T15:00:47Z,594342.36,NULL,NA,NA,NA,NA,NA,NA,NA,NA,NA,29,NA,NA,NA,NA,NA,NA,NA,NA,NA,NA,NA,NA,NA,NA,NA,NA,NA,NA,NA
97c68,until continue,flow.Loop,3_0,NA,NA,completion,444370.94,149325,149368.48,149369.06,593740,594342,2024-06-01T15:00:47Z,594342.36,NULL,NA,NA,NA,NA,NA,NA,NA,NA,NA,NA,NA,NA,NA,NA,NA,NA,NA,NA,NA,NA,NA,NA,NA,NA,NA,NA,NA,NA,NA
97c68,block 1,flow.Sequence,3,NA,NA,completion,444370.94,149325,149368.48,149369.06,593740,594342,2024-06-01T15:00:47Z,594342.36,NULL,NA,NA,NA,NA,NA,NA,NA,NA,NA,NA,NA,NA,NA,NA,NA,NA,NA,NA,NA,NA,NA,NA,NA,NA,NA,NA,NA,NA,NA
97c68,1.Part Over,canvas.Screen,4,NA,keypress(Space),response,14677.64,594342,594341.92,594342.36,609020,609040,2024-06-01T15:01:02Z,609130.22,NULL,NA,NA,NA,NA,NA,NA,NA,NA,NA,NA,NA,NA,NA,NA,NA,NA,NA,NA,NA,NA,NA,NA,NA,NA,NA,NA,NA,NA,NA
97c68,deep,flow.Sequence,5_0_0_0_0_0,NA,NA,skipped,NA,609129,NA,NA,609020,609129,2024-06-01T15:01:02Z,609130.22,NULL,Aufstand,ugomaji,s,mazidio,msingi,kujieleza,NA,sdf,NA,0,NA,NA,NA,NA,NA,NA,NA,NA,NA,NA,NA,NA,NA,NA,NA,NA,NA,NA,NA
97c68,Shallow Question,html.Page,5_0_0_0_0_1_0,NA,NA,form submission,17119.78,609129,609129.86,609130.22,626250,626250,2024-06-01T15:01:19Z,626255.9,NULL,Aufstand,ugomaji,s,mazidio,msingi,kujieleza,kujieleza,NA,NA,0,NA,NA,NA,NA,NA,NA,NA,NA,NA,NA,NA,NA,NA,NA,NA,NA,NA,NA,NA
97c68,"""Richtig""-Screen",canvas.Screen,5_0_0_0_0_1_1,NA,NA,skipped,NA,626253,NA,NA,626250,626253,2024-06-01T15:01:19Z,626255.9,NULL,Aufstand,ugomaji,s,mazidio,msingi,kujieleza,NA,sdf,NA,0,NA,NA,NA,NA,NA,NA,NA,NA,NA,NA,NA,NA,NA,NA,NA,NA,NA,NA,NA
97c68,"""Falsch""-Screen",canvas.Screen,5_0_0_0_0_1_2,NA,NA,timeout,4993.5599999999,626256,626245.3,626255.9,631232.78,631234,2024-06-01T15:01:24Z,631249.46,NULL,Aufstand,ugomaji,s,mazidio,msingi,kujieleza,NA,sdf,0,0,NA,NA,NA,NA,NA,NA,NA,NA,NA,NA,NA,NA,NA,NA,NA,NA,NA,NA,NA
97c68,shallow,flow.Sequence,5_0_0_0_0_1,NA,NA,completion,22102.56,609129,609129.86,609130.22,631232.78,631234,2024-06-01T15:01:24Z,631249.46,NULL,Aufstand,ugomaji,s,mazidio,msingi,kujieleza,NA,sdf,NA,0,NA,NA,NA,NA,NA,NA,NA,NA,NA,NA,NA,NA,NA,NA,NA,NA,NA,NA,NA
97c68,task,flow.Sequence,5_0_0_0_0,NA,NA,completion,22102.56,609129,609129.86,609130.22,631232.78,631234,2024-06-01T15:01:24Z,631249.46,NULL,Aufstand,ugomaji,s,mazidio,msingi,kujieleza,NA,sdf,NA,0,NA,NA,NA,NA,NA,NA,NA,NA,NA,NA,NA,NA,NA,NA,NA,NA,NA,NA,NA
97c68,Deep Question,html.Page,5_0_0_0_1_0_0,NA,NA,form submission,6527.54,631234,631232.78,631249.46,637777,637777,2024-06-01T15:01:30Z,637781.5,NULL,Verzögerung,kuchelewa,d,NA,NA,NA,herghtrhet,NA,NA,0,NA,NA,NA,NA,NA,NA,NA,NA,NA,NA,NA,NA,NA,NA,NA,NA,NA,NA,NA
97c68,"""Richtig""-Screen",canvas.Screen,5_0_0_0_1_0_1,NA,NA,skipped,NA,637778,NA,NA,637777,637778,2024-06-01T15:01:30Z,637781.5,NULL,Verzögerung,kuchelewa,d,NA,NA,NA,NA,sdf,NA,0,NA,NA,NA,NA,NA,NA,NA,NA,NA,NA,NA,NA,NA,NA,NA,NA,NA,NA,NA
97c68,"""Falsch""-Screen",canvas.Screen,5_0_0_0_1_0_2,NA,NA,timeout,4992.34,637779,637773.6,637781.5,642757.44,642758,2024-06-01T15:01:35Z,642773.84,NULL,Verzögerung,kuchelewa,d,NA,NA,NA,NA,sdf,0,0,NA,NA,NA,NA,NA,NA,NA,NA,NA,NA,NA,NA,NA,NA,NA,NA,NA,NA,NA
97c68,deep,flow.Sequence,5_0_0_0_1_0,NA,NA,completion,11507.98,631234,631232.78,631249.46,642757.44,642759,2024-06-01T15:01:35Z,642773.84,NULL,Verzögerung,kuchelewa,d,NA,NA,NA,NA,sdf,NA,0,NA,NA,NA,NA,NA,NA,NA,NA,NA,NA,NA,NA,NA,NA,NA,NA,NA,NA,NA
97c68,shallow,flow.Sequence,5_0_0_0_1_1,NA,NA,skipped,NA,642759,NA,NA,642757.44,642759,2024-06-01T15:01:35Z,642773.84,NULL,Verzögerung,kuchelewa,d,NA,NA,NA,NA,sdf,NA,0,NA,NA,NA,NA,NA,NA,NA,NA,NA,NA,NA,NA,NA,NA,NA,NA,NA,NA,NA
97c68,task,flow.Sequence,5_0_0_0_1,NA,NA,completion,11507.98,631234,631232.78,631249.46,642757.44,642759,2024-06-01T15:01:35Z,642773.84,NULL,Verzögerung,kuchelewa,d,NA,NA,NA,NA,sdf,NA,0,NA,NA,NA,NA,NA,NA,NA,NA,NA,NA,NA,NA,NA,NA,NA,NA,NA,NA,NA
97c68,deep,flow.Sequence,5_0_0_0_2_0,NA,NA,skipped,NA,642759,NA,NA,642757.44,642759,2024-06-01T15:01:35Z,642773.84,NULL,Polizist,msongora,s,simanzi,mandhari,nidhamu,NA,sdf,NA,0,NA,NA,NA,NA,NA,NA,NA,NA,NA,NA,NA,NA,NA,NA,NA,NA,NA,NA,NA
97c68,Shallow Question,html.Page,5_0_0_0_2_1_0,NA,NA,form submission,3380.16,642759,642757.44,642773.84,646154,646156,2024-06-01T15:01:39Z,646156.56,NULL,Polizist,msongora,s,simanzi,mandhari,nidhamu,nidhamu,NA,NA,0,NA,NA,NA,NA,NA,NA,NA,NA,NA,NA,NA,NA,NA,NA,NA,NA,NA,NA,NA
97c68,"""Richtig""-Screen",canvas.Screen,5_0_0_0_2_1_1,NA,NA,skipped,NA,646158,NA,NA,646154,646159,2024-06-01T15:01:39Z,646156.56,NULL,Polizist,msongora,s,simanzi,mandhari,nidhamu,NA,sdf,NA,0,NA,NA,NA,NA,NA,NA,NA,NA,NA,NA,NA,NA,NA,NA,NA,NA,NA,NA,NA
97c68,"""Falsch""-Screen",canvas.Screen,5_0_0_0_2_1_2,NA,NA,timeout,4992.9199999999,646162,646151.38,646156.56,651132.84,651134,2024-06-01T15:01:44Z,651149.48,NULL,Polizist,msongora,s,simanzi,mandhari,nidhamu,NA,sdf,0,0,NA,NA,NA,NA,NA,NA,NA,NA,NA,NA,NA,NA,NA,NA,NA,NA,NA,NA,NA
97c68,shallow,flow.Sequence,5_0_0_0_2_1,NA,NA,completion,8359,642759,642757.44,642773.84,651132.84,651135,2024-06-01T15:01:44Z,651149.48,NULL,Polizist,msongora,s,simanzi,mandhari,nidhamu,NA,sdf,NA,0,NA,NA,NA,NA,NA,NA,NA,NA,NA,NA,NA,NA,NA,NA,NA,NA,NA,NA,NA
97c68,task,flow.Sequence,5_0_0_0_2,NA,NA,completion,8359,642759,642757.44,642773.84,651132.84,651135,2024-06-01T15:01:44Z,651149.48,NULL,Polizist,msongora,s,simanzi,mandhari,nidhamu,NA,sdf,NA,0,NA,NA,NA,NA,NA,NA,NA,NA,NA,NA,NA,NA,NA,NA,NA,NA,NA,NA,NA
97c68,Deep Question,html.Page,5_0_0_0_3_0_0,NA,NA,form submission,2776.52,651135,651132.84,651149.48,653926,653927,2024-06-01T15:01:46Z,653925.44,NULL,Sympathie,mapendano,d,NA,NA,NA,efrfwsrf,NA,NA,0,NA,NA,NA,NA,NA,NA,NA,NA,NA,NA,NA,NA,NA,NA,NA,NA,NA,NA,NA
97c68,"""Richtig""-Screen",canvas.Screen,5_0_0_0_3_0_1,NA,NA,skipped,NA,653935,NA,NA,653926,653935,2024-06-01T15:01:46Z,653925.44,NULL,Sympathie,mapendano,d,NA,NA,NA,NA,sdf,NA,0,NA,NA,NA,NA,NA,NA,NA,NA,NA,NA,NA,NA,NA,NA,NA,NA,NA,NA,NA
97c68,"""Falsch""-Screen",canvas.Screen,5_0_0_0_3_0_2,NA,NA,timeout,4998.26,653938,653921.3,653925.44,658907.08,658908,2024-06-01T15:01:51Z,658923.7,NULL,Sympathie,mapendano,d,NA,NA,NA,NA,sdf,0,0,NA,NA,NA,NA,NA,NA,NA,NA,NA,NA,NA,NA,NA,NA,NA,NA,NA,NA,NA
97c68,deep,flow.Sequence,5_0_0_0_3_0,NA,NA,completion,7757.6,651135,651132.84,651149.48,658907.08,658908,2024-06-01T15:01:51Z,658923.7,NULL,Sympathie,mapendano,d,NA,NA,NA,NA,sdf,NA,0,NA,NA,NA,NA,NA,NA,NA,NA,NA,NA,NA,NA,NA,NA,NA,NA,NA,NA,NA
97c68,shallow,flow.Sequence,5_0_0_0_3_1,NA,NA,skipped,NA,658909,NA,NA,658907.08,658909,2024-06-01T15:01:51Z,658923.7,NULL,Sympathie,mapendano,d,NA,NA,NA,NA,sdf,NA,0,NA,NA,NA,NA,NA,NA,NA,NA,NA,NA,NA,NA,NA,NA,NA,NA,NA,NA,NA
97c68,task,flow.Sequence,5_0_0_0_3,NA,NA,completion,7757.6,651135,651132.84,651149.48,658907.08,658910,2024-06-01T15:01:51Z,658923.7,NULL,Sympathie,mapendano,d,NA,NA,NA,NA,sdf,NA,0,NA,NA,NA,NA,NA,NA,NA,NA,NA,NA,NA,NA,NA,NA,NA,NA,NA,NA,NA
97c68,deep,flow.Sequence,5_0_0_0_4_0,NA,NA,skipped,NA,658911,NA,NA,658907.08,658911,2024-06-01T15:01:51Z,658923.7,NULL,Beweis,ushahidi,s,marudio,kizuizi,mtendaji,NA,sdf,NA,0,NA,NA,NA,NA,NA,NA,NA,NA,NA,NA,NA,NA,NA,NA,NA,NA,NA,NA,NA
97c68,Shallow Question,html.Page,5_0_0_0_4_1_0,NA,NA,form submission,5667.3,658912,658907.08,658923.7,664591,664591,2024-06-01T15:01:57Z,664600.58,NULL,Beweis,ushahidi,s,marudio,kizuizi,mtendaji,marudio,NA,NA,0,NA,NA,NA,NA,NA,NA,NA,NA,NA,NA,NA,NA,NA,NA,NA,NA,NA,NA,NA
97c68,"""Richtig""-Screen",canvas.Screen,5_0_0_0_4_1_1,NA,NA,skipped,NA,664592,NA,NA,664591,664592,2024-06-01T15:01:57Z,664600.58,NULL,Beweis,ushahidi,s,marudio,kizuizi,mtendaji,NA,sdf,NA,0,NA,NA,NA,NA,NA,NA,NA,NA,NA,NA,NA,NA,NA,NA,NA,NA,NA,NA,NA
97c68,"""Falsch""-Screen",canvas.Screen,5_0_0_0_4_1_2,NA,NA,timeout,4994,664593,664587.12,664600.58,669578.14,669579,2024-06-01T15:02:02Z,669594.58,NULL,Beweis,ushahidi,s,marudio,kizuizi,mtendaji,NA,sdf,0,0,NA,NA,NA,NA,NA,NA,NA,NA,NA,NA,NA,NA,NA,NA,NA,NA,NA,NA,NA
97c68,shallow,flow.Sequence,5_0_0_0_4_1,NA,NA,completion,10654.44,658912,658907.08,658923.7,669578.14,669579,2024-06-01T15:02:02Z,669594.58,NULL,Beweis,ushahidi,s,marudio,kizuizi,mtendaji,NA,sdf,NA,0,NA,NA,NA,NA,NA,NA,NA,NA,NA,NA,NA,NA,NA,NA,NA,NA,NA,NA,NA
97c68,task,flow.Sequence,5_0_0_0_4,NA,NA,completion,10654.44,658911,658907.08,658923.7,669578.14,669580,2024-06-01T15:02:02Z,669594.58,NULL,Beweis,ushahidi,s,marudio,kizuizi,mtendaji,NA,sdf,NA,0,NA,NA,NA,NA,NA,NA,NA,NA,NA,NA,NA,NA,NA,NA,NA,NA,NA,NA,NA
97c68,Deep Question,html.Page,5_0_0_0_5_0_0,NA,NA,form submission,2863.42,669580,669578.14,669594.58,672458,672458,2024-06-01T15:02:05Z,672463.78,NULL,Kultur,utamaduni,d,NA,NA,NA,gregerg,NA,NA,0,NA,NA,NA,NA,NA,NA,NA,NA,NA,NA,NA,NA,NA,NA,NA,NA,NA,NA,NA
97c68,"""Richtig""-Screen",canvas.Screen,5_0_0_0_5_0_1,NA,NA,skipped,NA,672461,NA,NA,672458,672461,2024-06-01T15:02:05Z,672463.78,NULL,Kultur,utamaduni,d,NA,NA,NA,NA,sdf,NA,0,NA,NA,NA,NA,NA,NA,NA,NA,NA,NA,NA,NA,NA,NA,NA,NA,NA,NA,NA
97c68,"""Falsch""-Screen",canvas.Screen,5_0_0_0_5_0_2,NA,NA,timeout,4996.38,672465,672453.7,672463.78,677443.58,677444,2024-06-01T15:02:10Z,677460.16,NULL,Kultur,utamaduni,d,NA,NA,NA,NA,sdf,0,0,NA,NA,NA,NA,NA,NA,NA,NA,NA,NA,NA,NA,NA,NA,NA,NA,NA,NA,NA
97c68,deep,flow.Sequence,5_0_0_0_5_0,NA,NA,completion,7849,669580,669578.14,669594.58,677443.58,677445,2024-06-01T15:02:10Z,677460.16,NULL,Kultur,utamaduni,d,NA,NA,NA,NA,sdf,NA,0,NA,NA,NA,NA,NA,NA,NA,NA,NA,NA,NA,NA,NA,NA,NA,NA,NA,NA,NA
97c68,shallow,flow.Sequence,5_0_0_0_5_1,NA,NA,skipped,NA,677445,NA,NA,677443.58,677445,2024-06-01T15:02:10Z,677460.16,NULL,Kultur,utamaduni,d,NA,NA,NA,NA,sdf,NA,0,NA,NA,NA,NA,NA,NA,NA,NA,NA,NA,NA,NA,NA,NA,NA,NA,NA,NA,NA
97c68,task,flow.Sequence,5_0_0_0_5,NA,NA,completion,7849,669580,669578.14,669594.58,677443.58,677445,2024-06-01T15:02:10Z,677460.16,NULL,Kultur,utamaduni,d,NA,NA,NA,NA,sdf,NA,0,NA,NA,NA,NA,NA,NA,NA,NA,NA,NA,NA,NA,NA,NA,NA,NA,NA,NA,NA
97c68,Deep Question,html.Page,5_0_0_0_6_0_0,NA,NA,form submission,2857.84,677446,677443.58,677460.16,680318,680318,2024-06-01T15:02:13Z,680324.66,NULL,Annäherung,maegesho,d,NA,NA,NA,rgwtr,NA,NA,0,NA,NA,NA,NA,NA,NA,NA,NA,NA,NA,NA,NA,NA,NA,NA,NA,NA,NA,NA
97c68,"""Richtig""-Screen",canvas.Screen,5_0_0_0_6_0_1,NA,NA,skipped,NA,680321,NA,NA,680318,680321,2024-06-01T15:02:13Z,680324.66,NULL,Annäherung,maegesho,d,NA,NA,NA,NA,sdf,NA,0,NA,NA,NA,NA,NA,NA,NA,NA,NA,NA,NA,NA,NA,NA,NA,NA,NA,NA,NA
97c68,"""Falsch""-Screen",canvas.Screen,5_0_0_0_6_0_2,NA,NA,timeout,4994.2799999999,680323,680315.06,680324.66,685302.52,685303,2024-06-01T15:02:18Z,685318.94,NULL,Annäherung,maegesho,d,NA,NA,NA,NA,sdf,0,0,NA,NA,NA,NA,NA,NA,NA,NA,NA,NA,NA,NA,NA,NA,NA,NA,NA,NA,NA
97c68,deep,flow.Sequence,5_0_0_0_6_0,NA,NA,completion,7842.36,677446,677443.58,677460.16,685302.52,685304,2024-06-01T15:02:18Z,685318.94,NULL,Annäherung,maegesho,d,NA,NA,NA,NA,sdf,NA,0,NA,NA,NA,NA,NA,NA,NA,NA,NA,NA,NA,NA,NA,NA,NA,NA,NA,NA,NA
97c68,shallow,flow.Sequence,5_0_0_0_6_1,NA,NA,skipped,NA,685304,NA,NA,685302.52,685304,2024-06-01T15:02:18Z,685318.94,NULL,Annäherung,maegesho,d,NA,NA,NA,NA,sdf,NA,0,NA,NA,NA,NA,NA,NA,NA,NA,NA,NA,NA,NA,NA,NA,NA,NA,NA,NA,NA
97c68,task,flow.Sequence,5_0_0_0_6,NA,NA,completion,7842.36,677446,677443.58,677460.16,685302.52,685304,2024-06-01T15:02:18Z,685318.94,NULL,Annäherung,maegesho,d,NA,NA,NA,NA,sdf,NA,0,NA,NA,NA,NA,NA,NA,NA,NA,NA,NA,NA,NA,NA,NA,NA,NA,NA,NA,NA
97c68,deep,flow.Sequence,5_0_0_0_7_0,NA,NA,skipped,NA,685304,NA,NA,685302.52,685305,2024-06-01T15:02:18Z,685318.94,NULL,Prüfung,mtihani,s,mkulima,mtizamo,ufumbuzi,NA,sdf,NA,0,NA,NA,NA,NA,NA,NA,NA,NA,NA,NA,NA,NA,NA,NA,NA,NA,NA,NA,NA
97c68,Shallow Question,html.Page,5_0_0_0_7_1_0,NA,NA,form submission,2754.0600000001,685305,685302.52,685318.94,688073,688074,2024-06-01T15:02:21Z,688072.94,NULL,Prüfung,mtihani,s,mkulima,mtizamo,ufumbuzi,mtihani,NA,NA,0,NA,NA,NA,NA,NA,NA,NA,NA,NA,NA,NA,NA,NA,NA,NA,NA,NA,NA,NA
97c68,"""Richtig""-Screen",canvas.Screen,5_0_0_0_7_1_1,NA,NA,timeout,4999.04,688075,688068.64,688072.94,693055.52,693056,2024-06-01T15:02:26Z,693071.98,NULL,Prüfung,mtihani,s,mkulima,mtizamo,ufumbuzi,NA,sdf,1,0,NA,NA,NA,NA,NA,NA,NA,NA,NA,NA,NA,NA,NA,NA,NA,NA,NA,NA,NA
97c68,"""Falsch""-Screen",canvas.Screen,5_0_0_0_7_1_2,NA,NA,skipped,NA,693059,NA,NA,693055.52,693059,2024-06-01T15:02:26Z,693071.98,NULL,Prüfung,mtihani,s,mkulima,mtizamo,ufumbuzi,NA,sdf,NA,0,NA,NA,NA,NA,NA,NA,NA,NA,NA,NA,NA,NA,NA,NA,NA,NA,NA,NA,NA
97c68,shallow,flow.Sequence,5_0_0_0_7_1,NA,NA,completion,7736.5800000001,685305,685302.52,685318.94,693055.52,693060,2024-06-01T15:02:26Z,693071.98,NULL,Prüfung,mtihani,s,mkulima,mtizamo,ufumbuzi,NA,sdf,NA,0,NA,NA,NA,NA,NA,NA,NA,NA,NA,NA,NA,NA,NA,NA,NA,NA,NA,NA,NA
97c68,task,flow.Sequence,5_0_0_0_7,NA,NA,completion,7736.5800000001,685304,685302.52,685318.94,693055.52,693060,2024-06-01T15:02:26Z,693071.98,NULL,Prüfung,mtihani,s,mkulima,mtizamo,ufumbuzi,NA,sdf,NA,0,NA,NA,NA,NA,NA,NA,NA,NA,NA,NA,NA,NA,NA,NA,NA,NA,NA,NA,NA
97c68,block,flow.Loop,5_0_0_0,NA,NA,completion,83925.3,609129,609129.86,609130.22,693055.52,693061,2024-06-01T15:02:26Z,693071.98,NULL,NA,NA,NA,NA,NA,NA,NA,sdf,NA,0,NA,NA,NA,NA,NA,NA,NA,NA,NA,NA,NA,NA,NA,NA,NA,NA,NA,NA,NA
97c68,weiter,canvas.Screen,5_0_0_1,sdf,keypress(Space),response,902.02000000002,693061,693055.52,693071.98,693974,693990,2024-06-01T15:02:27Z,694041.48,NULL,NA,NA,NA,NA,NA,NA,NA,sdf,NA,0,NA,NA,NA,NA,NA,NA,NA,NA,NA,NA,NA,NA,NA,NA,NA,NA,NA,NA,NA
97c68,check continue,flow.Sequence,5_0_0,NA,NA,completion,84843.78,609129,609129.86,609130.22,693974,693990,2024-06-01T15:02:27Z,694041.48,NULL,NA,NA,NA,NA,NA,NA,NA,sdf,NA,0,NA,NA,NA,NA,NA,NA,NA,NA,NA,NA,NA,NA,NA,NA,NA,NA,NA,NA,NA
97c68,deep,flow.Sequence,5_0_1_0_0_0,NA,NA,skipped,NA,694041,NA,NA,693974,694041,2024-06-01T15:02:27Z,694041.48,NULL,Aufstand,ugomaji,s,mazidio,msingi,kujieleza,NA,sdfdsf,NA,1,NA,NA,NA,NA,NA,NA,NA,NA,NA,NA,NA,NA,NA,NA,NA,NA,NA,NA,NA
97c68,Shallow Question,html.Page,5_0_1_0_0_1_0,NA,NA,form submission,5470.52,694041,694041.14,694041.48,699512,699512,2024-06-01T15:02:32Z,699514.04,NULL,Aufstand,ugomaji,s,mazidio,msingi,kujieleza,ugomaji,NA,NA,1,NA,NA,NA,NA,NA,NA,NA,NA,NA,NA,NA,NA,NA,NA,NA,NA,NA,NA,NA
97c68,"""Richtig""-Screen",canvas.Screen,5_0_1_0_0_1_1,NA,NA,timeout,4997.8999999999,699516,699508.6,699514.04,704495.48,704496,2024-06-01T15:02:37Z,704511.94,NULL,Aufstand,ugomaji,s,mazidio,msingi,kujieleza,NA,sdfdsf,1,1,NA,NA,NA,NA,NA,NA,NA,NA,NA,NA,NA,NA,NA,NA,NA,NA,NA,NA,NA
97c68,"""Falsch""-Screen",canvas.Screen,5_0_1_0_0_1_2,NA,NA,skipped,NA,704500,NA,NA,704495.48,704500,2024-06-01T15:02:37Z,704511.94,NULL,Aufstand,ugomaji,s,mazidio,msingi,kujieleza,NA,sdfdsf,NA,1,NA,NA,NA,NA,NA,NA,NA,NA,NA,NA,NA,NA,NA,NA,NA,NA,NA,NA,NA
97c68,shallow,flow.Sequence,5_0_1_0_0_1,NA,NA,completion,10454,694041,694041.14,694041.48,704495.48,704500,2024-06-01T15:02:37Z,704511.94,NULL,Aufstand,ugomaji,s,mazidio,msingi,kujieleza,NA,sdfdsf,NA,1,NA,NA,NA,NA,NA,NA,NA,NA,NA,NA,NA,NA,NA,NA,NA,NA,NA,NA,NA
97c68,task,flow.Sequence,5_0_1_0_0,NA,NA,completion,10454,694041,694041.14,694041.48,704495.48,704500,2024-06-01T15:02:37Z,704511.94,NULL,Aufstand,ugomaji,s,mazidio,msingi,kujieleza,NA,sdfdsf,NA,1,NA,NA,NA,NA,NA,NA,NA,NA,NA,NA,NA,NA,NA,NA,NA,NA,NA,NA,NA
97c68,Deep Question,html.Page,5_0_1_0_1_0_0,NA,NA,form submission,3371.0600000001,704500,704495.48,704511.94,707883,707884,2024-06-01T15:02:40Z,707879.48,NULL,Sympathie,mapendano,d,NA,NA,NA,fdgresgfew,NA,NA,1,NA,NA,NA,NA,NA,NA,NA,NA,NA,NA,NA,NA,NA,NA,NA,NA,NA,NA,NA
97c68,"""Richtig""-Screen",canvas.Screen,5_0_1_0_1_0_1,NA,NA,skipped,NA,707886,NA,NA,707883,707886,2024-06-01T15:02:40Z,707879.48,NULL,Sympathie,mapendano,d,NA,NA,NA,NA,sdfdsf,NA,1,NA,NA,NA,NA,NA,NA,NA,NA,NA,NA,NA,NA,NA,NA,NA,NA,NA,NA,NA
97c68,"""Falsch""-Screen",canvas.Screen,5_0_1_0_1_0_2,NA,NA,timeout,4995.84,707887,707876,707879.48,712858.72,712859,2024-06-01T15:02:45Z,712875.32,NULL,Sympathie,mapendano,d,NA,NA,NA,NA,sdfdsf,0,1,NA,NA,NA,NA,NA,NA,NA,NA,NA,NA,NA,NA,NA,NA,NA,NA,NA,NA,NA
97c68,deep,flow.Sequence,5_0_1_0_1_0,NA,NA,completion,8346.78,704500,704495.48,704511.94,712858.72,712860,2024-06-01T15:02:45Z,712875.32,NULL,Sympathie,mapendano,d,NA,NA,NA,NA,sdfdsf,NA,1,NA,NA,NA,NA,NA,NA,NA,NA,NA,NA,NA,NA,NA,NA,NA,NA,NA,NA,NA
97c68,shallow,flow.Sequence,5_0_1_0_1_1,NA,NA,skipped,NA,712860,NA,NA,712858.72,712860,2024-06-01T15:02:45Z,712875.32,NULL,Sympathie,mapendano,d,NA,NA,NA,NA,sdfdsf,NA,1,NA,NA,NA,NA,NA,NA,NA,NA,NA,NA,NA,NA,NA,NA,NA,NA,NA,NA,NA
97c68,task,flow.Sequence,5_0_1_0_1,NA,NA,completion,8346.78,704500,704495.48,704511.94,712858.72,712860,2024-06-01T15:02:45Z,712875.32,NULL,Sympathie,mapendano,d,NA,NA,NA,NA,sdfdsf,NA,1,NA,NA,NA,NA,NA,NA,NA,NA,NA,NA,NA,NA,NA,NA,NA,NA,NA,NA,NA
97c68,Deep Question,html.Page,5_0_1_0_2_0_0,NA,NA,form submission,2863.6800000001,712861,712858.72,712875.32,715739,715739,2024-06-01T15:02:48Z,715750.04,NULL,Annäherung,maegesho,d,NA,NA,NA,rgwrzw,NA,NA,1,NA,NA,NA,NA,NA,NA,NA,NA,NA,NA,NA,NA,NA,NA,NA,NA,NA,NA,NA
97c68,"""Richtig""-Screen",canvas.Screen,5_0_1_0_2_0_1,NA,NA,skipped,NA,715742,NA,NA,715739,715743,2024-06-01T15:02:48Z,715750.04,NULL,Annäherung,maegesho,d,NA,NA,NA,NA,sdfdsf,NA,1,NA,NA,NA,NA,NA,NA,NA,NA,NA,NA,NA,NA,NA,NA,NA,NA,NA,NA,NA
97c68,"""Falsch""-Screen",canvas.Screen,5_0_1_0_2_0_2,NA,NA,timeout,4992.4399999999,715744,715736.56,715750.04,720725.78,720729,2024-06-01T15:02:53Z,720742.48,NULL,Annäherung,maegesho,d,NA,NA,NA,NA,sdfdsf,0,1,NA,NA,NA,NA,NA,NA,NA,NA,NA,NA,NA,NA,NA,NA,NA,NA,NA,NA,NA
97c68,deep,flow.Sequence,5_0_1_0_2_0,NA,NA,completion,7850.4600000001,712861,712858.72,712875.32,720725.78,720731,2024-06-01T15:02:53Z,720742.48,NULL,Annäherung,maegesho,d,NA,NA,NA,NA,sdfdsf,NA,1,NA,NA,NA,NA,NA,NA,NA,NA,NA,NA,NA,NA,NA,NA,NA,NA,NA,NA,NA
97c68,shallow,flow.Sequence,5_0_1_0_2_1,NA,NA,skipped,NA,720732,NA,NA,720725.78,720732,2024-06-01T15:02:53Z,720742.48,NULL,Annäherung,maegesho,d,NA,NA,NA,NA,sdfdsf,NA,1,NA,NA,NA,NA,NA,NA,NA,NA,NA,NA,NA,NA,NA,NA,NA,NA,NA,NA,NA
97c68,task,flow.Sequence,5_0_1_0_2,NA,NA,completion,7850.4600000001,712860,712858.72,712875.32,720725.78,720733,2024-06-01T15:02:53Z,720742.48,NULL,Annäherung,maegesho,d,NA,NA,NA,NA,sdfdsf,NA,1,NA,NA,NA,NA,NA,NA,NA,NA,NA,NA,NA,NA,NA,NA,NA,NA,NA,NA,NA
97c68,Deep Question,html.Page,5_0_1_0_3_0_0,NA,NA,form submission,3265.52,720733,720725.78,720742.48,724008,724008,2024-06-01T15:02:57Z,724004.6,NULL,Verzögerung,kuchelewa,d,NA,NA,NA,gregtregtwr,NA,NA,1,NA,NA,NA,NA,NA,NA,NA,NA,NA,NA,NA,NA,NA,NA,NA,NA,NA,NA,NA
97c68,"""Richtig""-Screen",canvas.Screen,5_0_1_0_3_0_1,NA,NA,skipped,NA,724017,NA,NA,724008,724017,2024-06-01T15:02:57Z,724004.6,NULL,Verzögerung,kuchelewa,d,NA,NA,NA,NA,sdfdsf,NA,1,NA,NA,NA,NA,NA,NA,NA,NA,NA,NA,NA,NA,NA,NA,NA,NA,NA,NA,NA
97c68,"""Falsch""-Screen",canvas.Screen,5_0_1_0_3_0_2,NA,NA,timeout,5006.8200000001,724019,724002.18,724004.6,728995.04,728996,2024-06-01T15:03:02Z,729011.42,NULL,Verzögerung,kuchelewa,d,NA,NA,NA,NA,sdfdsf,0,1,NA,NA,NA,NA,NA,NA,NA,NA,NA,NA,NA,NA,NA,NA,NA,NA,NA,NA,NA
97c68,deep,flow.Sequence,5_0_1_0_3_0,NA,NA,completion,8252.5600000001,720733,720725.78,720742.48,728995.04,728997,2024-06-01T15:03:02Z,729011.42,NULL,Verzögerung,kuchelewa,d,NA,NA,NA,NA,sdfdsf,NA,1,NA,NA,NA,NA,NA,NA,NA,NA,NA,NA,NA,NA,NA,NA,NA,NA,NA,NA,NA
97c68,shallow,flow.Sequence,5_0_1_0_3_1,NA,NA,skipped,NA,728997,NA,NA,728995.04,728997,2024-06-01T15:03:02Z,729011.42,NULL,Verzögerung,kuchelewa,d,NA,NA,NA,NA,sdfdsf,NA,1,NA,NA,NA,NA,NA,NA,NA,NA,NA,NA,NA,NA,NA,NA,NA,NA,NA,NA,NA
