observation,sender,sender_type,sender_id,response,response_action,ended_on,duration,time_run,time_render,time_show,time_end,time_commit,timestamp,time_switch,german,swahili,enc,distractor1,distractor2,distractor3,response_2,x,correct,distractors,url_vp,url_sess,meta_labjs_version,meta_location,meta_user_agent,meta_platform,meta_language,meta_locale,meta_time_zone,meta_timezone_offset,meta_screen_width,meta_screen_height,meta_scroll_width,meta_scroll_height,meta_window_inner_width,meta_window_inner_height,meta_device_pixel_ratio,meta_labjs_build_flavor,meta_labjs_build_commit
63459,Introduction delayed retrieval,canvas.Screen,0,weiter,keypress(Space),response,2123.3,335.60000038147,170.3,353.7,2477,2479.9000005722,2024-03-11T13:03:59Z,2487,NA,NA,NA,NA,NA,NA,NA,NA,NA,NULL,156,2, , , , , , , , , , , , , , , , , 
63459,Deep Question,html.Page,1_0_0_0,NA,NA,form submission,11222.100000381,2480.5,2470.43,2487,13709.100000381,13709.400000572,2024-03-11T13:04:10Z,13720.3,Gefährdung,kuhatarisha,s,uchokozi,udhaifu,makorowezo,gg,NA,NA,NULL,NA,NA,NA,NA,NA,NA,NA,NA,NA,NA,NA,NA,NA,NA,NA,NA,NA,NA,NA
63459,Save data screen,canvas.Screen,1_0_0_1,NA,NA,timeout,500.1,13710.400000572,13703.8,13720.3,14203.7,14204.800000191,2024-03-11T13:04:11Z,14220.4,Gefährdung,kuhatarisha,s,uchokozi,udhaifu,makorowezo,NA,NA,0,NULL,NA,NA,NA,NA,NA,NA,NA,NA,NA,NA,NA,NA,NA,NA,NA,NA,NA,NA,NA
63459,deep,flow.Sequence,1_0_0,NA,NA,completion,11716.7,2480.4000005722,2470.43,2487,14203.7,14205.199999809,2024-03-11T13:04:11Z,14220.4,Gefährdung,kuhatarisha,s,uchokozi,udhaifu,makorowezo,NA,NA,NA,NULL,NA,NA,NA,NA,NA,NA,NA,NA,NA,NA,NA,NA,NA,NA,NA,NA,NA,NA,NA
63459,task,flow.Sequence,1_0,NA,NA,completion,11716.7,2480.4000005722,2470.43,2487,14203.7,14205.300000191,2024-03-11T13:04:11Z,14220.4,Gefährdung,kuhatarisha,s,uchokozi,udhaifu,makorowezo,NA,NA,NA,NULL,NA,NA,NA,NA,NA,NA,NA,NA,NA,NA,NA,NA,NA,NA,NA,NA,NA,NA,NA
63459,Deep Question,html.Page,1_1_0_0,NA,NA,form submission,18780.900000191,14205.600000381,14203.7,14220.4,33001.300000191,33001.600000381,2024-03-11T13:04:30Z,33003.7,Kultur,utamaduni,s,shetani,gerezani,mazingira,gg,NA,NA,NULL,NA,NA,NA,NA,NA,NA,NA,NA,NA,NA,NA,NA,NA,NA,NA,NA,NA,NA,NA
63459,Save data screen,canvas.Screen,1_1_0_1,NA,NA,timeout,499.9,33002.600000381,32987.138,33003.7,33487.1,33487.900000572,2024-03-11T13:04:30Z,33503.6,Kultur,utamaduni,s,shetani,gerezani,mazingira,NA,NA,0,NULL,NA,NA,NA,NA,NA,NA,NA,NA,NA,NA,NA,NA,NA,NA,NA,NA,NA,NA,NA
63459,deep,flow.Sequence,1_1_0,NA,NA,completion,19266.7,14205.5,14203.7,14220.4,33487.1,33488.300000191,2024-03-11T13:04:30Z,33503.6,Kultur,utamaduni,s,shetani,gerezani,mazingira,NA,NA,NA,NULL,NA,NA,NA,NA,NA,NA,NA,NA,NA,NA,NA,NA,NA,NA,NA,NA,NA,NA,NA
63459,task,flow.Sequence,1_1,NA,NA,completion,19266.7,14205.5,14203.7,14220.4,33487.1,33488.5,2024-03-11T13:04:30Z,33503.6,Kultur,utamaduni,s,shetani,gerezani,mazingira,NA,NA,NA,NULL,NA,NA,NA,NA,NA,NA,NA,NA,NA,NA,NA,NA,NA,NA,NA,NA,NA,NA,NA
63459,Deep Question,html.Page,1_2_0_0,NA,NA,form submission,5621.5999998093,33496.400000572,33487.1,33503.6,39125.199999809,39125.5,2024-03-11T13:04:36Z,39137.1,Übersicht,kilindo,s,mgusano,chipukizi,kulinganisha,kk,NA,NA,NULL,NA,NA,NA,NA,NA,NA,NA,NA,NA,NA,NA,NA,NA,NA,NA,NA,NA,NA,NA
63459,Save data screen,canvas.Screen,1_2_0_1,NA,NA,timeout,500.1,39126,39120.5,39137.1,39620.3,39621.300000191,2024-03-11T13:04:36Z,39637.2,Übersicht,kilindo,s,mgusano,chipukizi,kulinganisha,NA,NA,0,NULL,NA,NA,NA,NA,NA,NA,NA,NA,NA,NA,NA,NA,NA,NA,NA,NA,NA,NA,NA
63459,deep,flow.Sequence,1_2_0,NA,NA,completion,6116.7,33496.300000191,33487.1,33503.6,39620.3,39621.600000381,2024-03-11T13:04:36Z,39637.2,Übersicht,kilindo,s,mgusano,chipukizi,kulinganisha,NA,NA,NA,NULL,NA,NA,NA,NA,NA,NA,NA,NA,NA,NA,NA,NA,NA,NA,NA,NA,NA,NA,NA
63459,task,flow.Sequence,1_2,NA,NA,completion,6116.7,33496.199999809,33487.1,33503.6,39620.3,39621.800000191,2024-03-11T13:04:36Z,39637.2,Übersicht,kilindo,s,mgusano,chipukizi,kulinganisha,NA,NA,NA,NULL,NA,NA,NA,NA,NA,NA,NA,NA,NA,NA,NA,NA,NA,NA,NA,NA,NA,NA,NA
63459,Deep Question,html.Page,1_3_0_0,NA,NA,form submission,1986.9000003815,39622,39620.3,39637.2,41624.100000381,41624.300000191,2024-03-11T13:04:38Z,41637.1,Verzögerung,kuchelewa,s,mwakilishi,mwanauchumi,jaribio,kk,NA,NA,NULL,NA,NA,NA,NA,NA,NA,NA,NA,NA,NA,NA,NA,NA,NA,NA,NA,NA,NA,NA
63459,Save data screen,canvas.Screen,1_3_0_1,NA,NA,timeout,500,41625,41620.518,41637.1,42120.4,42121.199999809,2024-03-11T13:04:39Z,42137.1,Verzögerung,kuchelewa,s,mwakilishi,mwanauchumi,jaribio,NA,NA,0,NULL,NA,NA,NA,NA,NA,NA,NA,NA,NA,NA,NA,NA,NA,NA,NA,NA,NA,NA,NA
63459,deep,flow.Sequence,1_3_0,NA,NA,completion,2483.2,39621.900000572,39620.3,39637.2,42120.4,42121.5,2024-03-11T13:04:39Z,42137.1,Verzögerung,kuchelewa,s,mwakilishi,mwanauchumi,jaribio,NA,NA,NA,NULL,NA,NA,NA,NA,NA,NA,NA,NA,NA,NA,NA,NA,NA,NA,NA,NA,NA,NA,NA
63459,task,flow.Sequence,1_3,NA,NA,completion,2483.2,39621.800000191,39620.3,39637.2,42120.4,42121.699999809,2024-03-11T13:04:39Z,42137.1,Verzögerung,kuchelewa,s,mwakilishi,mwanauchumi,jaribio,NA,NA,NA,NULL,NA,NA,NA,NA,NA,NA,NA,NA,NA,NA,NA,NA,NA,NA,NA,NA,NA,NA,NA
63459,Deep Question,html.Page,1_4_0_0,NA,NA,form submission,3685.0999998093,42121.800000191,42120.4,42137.1,45822.199999809,45822.400000572,2024-03-11T13:04:42Z,45837.1,Angreifer,mshambulizi,d,kitengo,tasinia,usafirishaji,kk,NA,NA,NULL,NA,NA,NA,NA,NA,NA,NA,NA,NA,NA,NA,NA,NA,NA,NA,NA,NA,NA,NA
63459,Save data screen,canvas.Screen,1_4_0_1,NA,NA,timeout,500.1,45823.100000381,45820.494,45837.1,46320.4,46321.300000191,2024-03-11T13:04:43Z,46337.2,Angreifer,mshambulizi,d,kitengo,tasinia,usafirishaji,NA,NA,0,NULL,NA,NA,NA,NA,NA,NA,NA,NA,NA,NA,NA,NA,NA,NA,NA,NA,NA,NA,NA
63459,deep,flow.Sequence,1_4_0,NA,NA,completion,4183.3,42121.800000191,42120.4,42137.1,46320.4,46321.5,2024-03-11T13:04:43Z,46337.2,Angreifer,mshambulizi,d,kitengo,tasinia,usafirishaji,NA,NA,NA,NULL,NA,NA,NA,NA,NA,NA,NA,NA,NA,NA,NA,NA,NA,NA,NA,NA,NA,NA,NA
63459,task,flow.Sequence,1_4,NA,NA,completion,4183.3,42121.800000191,42120.4,42137.1,46320.4,46321.699999809,2024-03-11T13:04:43Z,46337.2,Angreifer,mshambulizi,d,kitengo,tasinia,usafirishaji,NA,NA,NA,NULL,NA,NA,NA,NA,NA,NA,NA,NA,NA,NA,NA,NA,NA,NA,NA,NA,NA,NA,NA
63459,Deep Question,html.Page,1_5_0_0,NA,NA,form submission,11828.400000381,46321.900000572,46320.4,46337.2,58165.600000381,58165.699999809,2024-03-11T13:04:55Z,58170.438,Lawine,banguko,d,maambukizi,usuluhishi,chekechea,Bankugo,NA,NA,NULL,NA,NA,NA,NA,NA,NA,NA,NA,NA,NA,NA,NA,NA,NA,NA,NA,NA,NA,NA
63459,Save data screen,canvas.Screen,1_5_0_1,NA,NA,timeout,500.062,58166.100000381,58170.438,58170.438,58653.8,58654.400000572,2024-03-11T13:04:55Z,58670.5,Lawine,banguko,d,maambukizi,usuluhishi,chekechea,NA,NA,0,NULL,NA,NA,NA,NA,NA,NA,NA,NA,NA,NA,NA,NA,NA,NA,NA,NA,NA,NA,NA
63459,deep,flow.Sequence,1_5_0,NA,NA,completion,12316.6,46321.900000572,46320.4,46337.2,58653.8,58654.800000191,2024-03-11T13:04:55Z,58670.5,Lawine,banguko,d,maambukizi,usuluhishi,chekechea,NA,NA,NA,NULL,NA,NA,NA,NA,NA,NA,NA,NA,NA,NA,NA,NA,NA,NA,NA,NA,NA,NA,NA
63459,task,flow.Sequence,1_5,NA,NA,completion,12316.6,46321.800000191,46320.4,46337.2,58653.8,58655,2024-03-11T13:04:55Z,58670.5,Lawine,banguko,d,maambukizi,usuluhishi,chekechea,NA,NA,NA,NULL,NA,NA,NA,NA,NA,NA,NA,NA,NA,NA,NA,NA,NA,NA,NA,NA,NA,NA,NA
63459,Deep Question,html.Page,1_6_0_0,NA,NA,form submission,24726.400000572,58655.199999809,58653.8,58670.5,83396.900000572,83397.100000381,2024-03-11T13:05:20Z,83403.6,System,maongozi,d,chokochoko,nuksani,mitaani,kk,NA,NA,NULL,NA,NA,NA,NA,NA,NA,NA,NA,NA,NA,NA,NA,NA,NA,NA,NA,NA,NA,NA
63459,Save data screen,canvas.Screen,1_6_0_1,NA,NA,timeout,500.2,83398.900000572,83387.128,83403.6,83887.1,83887.900000572,2024-03-11T13:05:20Z,83903.8,System,maongozi,d,chokochoko,nuksani,mitaani,NA,NA,0,NULL,NA,NA,NA,NA,NA,NA,NA,NA,NA,NA,NA,NA,NA,NA,NA,NA,NA,NA,NA
63459,deep,flow.Sequence,1_6_0,NA,NA,completion,25216.6,58655.199999809,58653.8,58670.5,83887.1,83888.100000381,2024-03-11T13:05:20Z,83903.8,System,maongozi,d,chokochoko,nuksani,mitaani,NA,NA,NA,NULL,NA,NA,NA,NA,NA,NA,NA,NA,NA,NA,NA,NA,NA,NA,NA,NA,NA,NA,NA
63459,task,flow.Sequence,1_6,NA,NA,completion,25216.6,58655.100000381,58653.8,58670.5,83887.1,83888.300000191,2024-03-11T13:05:20Z,83903.8,System,maongozi,d,chokochoko,nuksani,mitaani,NA,NA,NA,NULL,NA,NA,NA,NA,NA,NA,NA,NA,NA,NA,NA,NA,NA,NA,NA,NA,NA,NA,NA
63459,Deep Question,html.Page,1_7_0_0,NA,NA,form submission,2985.5000001907,83888.5,83887.1,83903.8,86889.300000191,86889.5,2024-03-11T13:05:23Z,86903.7,Können,unaweza,d,kiongozi,bustani,mienendo,kk,NA,NA,NULL,NA,NA,NA,NA,NA,NA,NA,NA,NA,NA,NA,NA,NA,NA,NA,NA,NA,NA,NA
63459,Save data screen,canvas.Screen,1_7_0_1,NA,NA,timeout,500.10000000001,86890,86887.2,86903.7,87387.1,87387.800000191,2024-03-11T13:05:24Z,87403.8,Können,unaweza,d,kiongozi,bustani,mienendo,NA,NA,0,NULL,NA,NA,NA,NA,NA,NA,NA,NA,NA,NA,NA,NA,NA,NA,NA,NA,NA,NA,NA
63459,deep,flow.Sequence,1_7_0,NA,NA,completion,3483.3,83888.5,83887.1,83903.8,87387.1,87388.100000381,2024-03-11T13:05:24Z,87403.8,Können,unaweza,d,kiongozi,bustani,mienendo,NA,NA,NA,NULL,NA,NA,NA,NA,NA,NA,NA,NA,NA,NA,NA,NA,NA,NA,NA,NA,NA,NA,NA
63459,task,flow.Sequence,1_7,NA,NA,completion,3483.3,83888.400000572,83887.1,83903.8,87387.1,87388.199999809,2024-03-11T13:05:24Z,87403.8,Können,unaweza,d,kiongozi,bustani,mienendo,NA,NA,NA,NULL,NA,NA,NA,NA,NA,NA,NA,NA,NA,NA,NA,NA,NA,NA,NA,NA,NA,NA,NA
63459,Deep Question,html.Page,1_8_0_0,NA,NA,form submission,2405.3000003815,87388.400000572,87387.1,87403.8,89809.100000381,89809.199999809,2024-03-11T13:05:26Z,89820.4,Körper,kiwiliwili,s,mapambano,mpatanishi,kiolezo,kk,NA,NA,NULL,NA,NA,NA,NA,NA,NA,NA,NA,NA,NA,NA,NA,NA,NA,NA,NA,NA,NA,NA
63459,Save data screen,canvas.Screen,1_8_0_1,NA,NA,timeout,500.10000000001,89810.699999809,89803.774,89820.4,90303.8,90304.600000381,2024-03-11T13:05:27Z,90320.5,Körper,kiwiliwili,s,mapambano,mpatanishi,kiolezo,NA,NA,0,NULL,NA,NA,NA,NA,NA,NA,NA,NA,NA,NA,NA,NA,NA,NA,NA,NA,NA,NA,NA
63459,deep,flow.Sequence,1_8_0,NA,NA,completion,2900,87388.300000191,87387.1,87403.8,90303.8,90304.800000191,2024-03-11T13:05:27Z,90320.5,Körper,kiwiliwili,s,mapambano,mpatanishi,kiolezo,NA,NA,NA,NULL,NA,NA,NA,NA,NA,NA,NA,NA,NA,NA,NA,NA,NA,NA,NA,NA,NA,NA,NA
63459,task,flow.Sequence,1_8,NA,NA,completion,2900,87388.300000191,87387.1,87403.8,90303.8,90305,2024-03-11T13:05:27Z,90320.5,Körper,kiwiliwili,s,mapambano,mpatanishi,kiolezo,NA,NA,NA,NULL,NA,NA,NA,NA,NA,NA,NA,NA,NA,NA,NA,NA,NA,NA,NA,NA,NA,NA,NA
63459,Deep Question,html.Page,1_9_0_0,NA,NA,form submission,5318.8000001907,90305.199999809,90303.8,90320.5,95639.300000191,95639.400000572,2024-03-11T13:05:32Z,95653.8,Sänger,mwimbaji,d,msichana,shughuli,mshirika,kk,NA,NA,NULL,NA,NA,NA,NA,NA,NA,NA,NA,NA,NA,NA,NA,NA,NA,NA,NA,NA,NA,NA
63459,Save data screen,canvas.Screen,1_9_0_1,NA,NA,timeout,500,95641,95637.108,95653.8,96137.1,96137.800000191,2024-03-11T13:05:33Z,96153.8,Sänger,mwimbaji,d,msichana,shughuli,mshirika,NA,NA,0,NULL,NA,NA,NA,NA,NA,NA,NA,NA,NA,NA,NA,NA,NA,NA,NA,NA,NA,NA,NA
63459,deep,flow.Sequence,1_9_0,NA,NA,completion,5816.6,90305.199999809,90303.8,90320.5,96137.1,96138.199999809,2024-03-11T13:05:33Z,96153.8,Sänger,mwimbaji,d,msichana,shughuli,mshirika,NA,NA,NA,NULL,NA,NA,NA,NA,NA,NA,NA,NA,NA,NA,NA,NA,NA,NA,NA,NA,NA,NA,NA
63459,task,flow.Sequence,1_9,NA,NA,completion,5816.6,90305.100000381,90303.8,90320.5,96137.1,96138.300000191,2024-03-11T13:05:33Z,96153.8,Sänger,mwimbaji,d,msichana,shughuli,mshirika,NA,NA,NA,NULL,NA,NA,NA,NA,NA,NA,NA,NA,NA,NA,NA,NA,NA,NA,NA,NA,NA,NA,NA
63459,Deep Question,html.Page,1_10_0_0,NA,NA,form submission,48551.000000191,96138.5,96137.1,96153.8,144704.80000019,144705,2024-03-11T13:06:21Z,144720.4,Kreativität,ubunifu,d,mratibu,mwendelezo,makubaliano,kk,NA,NA,NULL,NA,NA,NA,NA,NA,NA,NA,NA,NA,NA,NA,NA,NA,NA,NA,NA,NA,NA,NA
63459,Save data screen,canvas.Screen,1_10_0_1,NA,NA,timeout,500,144706.69999981,144703.768,144720.4,145203.7,145204.5,2024-03-11T13:06:22Z,145220.4,Kreativität,ubunifu,d,mratibu,mwendelezo,makubaliano,NA,NA,0,NULL,NA,NA,NA,NA,NA,NA,NA,NA,NA,NA,NA,NA,NA,NA,NA,NA,NA,NA,NA
63459,deep,flow.Sequence,1_10_0,NA,NA,completion,49049.9,96138.400000572,96137.1,96153.8,145203.7,145204.69999981,2024-03-11T13:06:22Z,145220.4,Kreativität,ubunifu,d,mratibu,mwendelezo,makubaliano,NA,NA,NA,NULL,NA,NA,NA,NA,NA,NA,NA,NA,NA,NA,NA,NA,NA,NA,NA,NA,NA,NA,NA
63459,task,flow.Sequence,1_10,NA,NA,completion,49049.9,96138.400000572,96137.1,96153.8,145203.7,145204.90000057,2024-03-11T13:06:22Z,145220.4,Kreativität,ubunifu,d,mratibu,mwendelezo,makubaliano,NA,NA,NA,NULL,NA,NA,NA,NA,NA,NA,NA,NA,NA,NA,NA,NA,NA,NA,NA,NA,NA,NA,NA
63459,Deep Question,html.Page,1_11_0_0,NA,NA,form submission,1328.5000005722,145205.10000038,145203.7,145220.4,146548.90000057,146549,2024-03-11T13:06:23Z,146553.6,Prüfung,mtihani,d,mkulima,mtizamo,ufumbuzi,kk,NA,NA,NULL,NA,NA,NA,NA,NA,NA,NA,NA,NA,NA,NA,NA,NA,NA,NA,NA,NA,NA,NA
63459,Save data screen,canvas.Screen,1_11_0_1,NA,NA,timeout,500.19999999998,146549.5,146537.06,146553.6,147037.1,147037.80000019,2024-03-11T13:06:23Z,147053.8,Prüfung,mtihani,d,mkulima,mtizamo,ufumbuzi,NA,NA,0,NULL,NA,NA,NA,NA,NA,NA,NA,NA,NA,NA,NA,NA,NA,NA,NA,NA,NA,NA,NA
63459,deep,flow.Sequence,1_11_0,NA,NA,completion,1816.7,145205.10000038,145203.7,145220.4,147037.1,147038.10000038,2024-03-11T13:06:23Z,147053.8,Prüfung,mtihani,d,mkulima,mtizamo,ufumbuzi,NA,NA,NA,NULL,NA,NA,NA,NA,NA,NA,NA,NA,NA,NA,NA,NA,NA,NA,NA,NA,NA,NA,NA
63459,task,flow.Sequence,1_11,NA,NA,completion,1816.7,145205,145203.7,145220.4,147037.1,147038.30000019,2024-03-11T13:06:23Z,147053.8,Prüfung,mtihani,d,mkulima,mtizamo,ufumbuzi,NA,NA,NA,NULL,NA,NA,NA,NA,NA,NA,NA,NA,NA,NA,NA,NA,NA,NA,NA,NA,NA,NA,NA
63459,Deep Question,html.Page,1_12_0_0,NA,NA,form submission,4793.3000003815,147038.40000057,147037.1,147053.8,151847.10000038,151847.30000019,2024-03-11T13:06:28Z,151853.6,Kanzler,diwani,s,rasilmali,mahitaji,maabudu,dawami,NA,NA,NULL,NA,NA,NA,NA,NA,NA,NA,NA,NA,NA,NA,NA,NA,NA,NA,NA,NA,NA,NA
63459,Save data screen,canvas.Screen,1_12_0_1,NA,NA,timeout,500.10000000001,151848.69999981,151837.082,151853.6,152337.1,152337.69999981,2024-03-11T13:06:29Z,152353.7,Kanzler,diwani,s,rasilmali,mahitaji,maabudu,NA,NA,0,NULL,NA,NA,NA,NA,NA,NA,NA,NA,NA,NA,NA,NA,NA,NA,NA,NA,NA,NA,NA
63459,deep,flow.Sequence,1_12_0,NA,NA,completion,5283.3,147038.30000019,147037.1,147053.8,152337.1,152338,2024-03-11T13:06:29Z,152353.7,Kanzler,diwani,s,rasilmali,mahitaji,maabudu,NA,NA,NA,NULL,NA,NA,NA,NA,NA,NA,NA,NA,NA,NA,NA,NA,NA,NA,NA,NA,NA,NA,NA
63459,task,flow.Sequence,1_12,NA,NA,completion,5283.3,147038.30000019,147037.1,147053.8,152337.1,152338.10000038,2024-03-11T13:06:29Z,152353.7,Kanzler,diwani,s,rasilmali,mahitaji,maabudu,NA,NA,NA,NULL,NA,NA,NA,NA,NA,NA,NA,NA,NA,NA,NA,NA,NA,NA,NA,NA,NA,NA,NA
63459,Deep Question,html.Page,1_13_0_0,NA,NA,form submission,6172.2000005722,152338.30000019,152337.1,152353.7,158525.90000057,158526.10000038,2024-03-11T13:06:35Z,158537.1,Kontrolle,kudhibiti,s,mbinguni,kufunga,utegemezi,kk,NA,NA,NULL,NA,NA,NA,NA,NA,NA,NA,NA,NA,NA,NA,NA,NA,NA,NA,NA,NA,NA,NA
63459,Save data screen,canvas.Screen,1_13_0_1,NA,NA,timeout,500,158527.69999981,158520.404,158537.1,159020.4,159021,2024-03-11T13:06:35Z,159037.1,Kontrolle,kudhibiti,s,mbinguni,kufunga,utegemezi,NA,NA,0,NULL,NA,NA,NA,NA,NA,NA,NA,NA,NA,NA,NA,NA,NA,NA,NA,NA,NA,NA,NA
63459,deep,flow.Sequence,1_13_0,NA,NA,completion,6666.7,152338.30000019,152337.1,152353.7,159020.4,159021.40000057,2024-03-11T13:06:35Z,159037.1,Kontrolle,kudhibiti,s,mbinguni,kufunga,utegemezi,NA,NA,NA,NULL,NA,NA,NA,NA,NA,NA,NA,NA,NA,NA,NA,NA,NA,NA,NA,NA,NA,NA,NA
63459,task,flow.Sequence,1_13,NA,NA,completion,6666.7,152338.19999981,152337.1,152353.7,159020.4,159021.5,2024-03-11T13:06:35Z,159037.1,Kontrolle,kudhibiti,s,mbinguni,kufunga,utegemezi,NA,NA,NA,NULL,NA,NA,NA,NA,NA,NA,NA,NA,NA,NA,NA,NA,NA,NA,NA,NA,NA,NA,NA
63459,Deep Question,html.Page,1_14_0_0,NA,NA,form submission,1599.8000005722,159021.69999981,159020.4,159037.1,160636.90000057,160637.10000038,2024-03-11T13:06:37Z,160655.1,Abrechnung,uhasibu,s,kusahihisha,mpambano,mashambulizi,kk,NA,NA,NULL,NA,NA,NA,NA,NA,NA,NA,NA,NA,NA,NA,NA,NA,NA,NA,NA,NA,NA,NA
63459,Save data screen,canvas.Screen,1_14_0_1,NA,NA,timeout,498.69999999998,160637.69999981,160637.06,160655.1,161137.1,161137.80000019,2024-03-11T13:06:37Z,161153.8,Abrechnung,uhasibu,s,kusahihisha,mpambano,mashambulizi,NA,NA,0,NULL,NA,NA,NA,NA,NA,NA,NA,NA,NA,NA,NA,NA,NA,NA,NA,NA,NA,NA,NA
63459,deep,flow.Sequence,1_14_0,NA,NA,completion,2100,159021.69999981,159020.4,159037.1,161137.1,161138.10000038,2024-03-11T13:06:37Z,161153.8,Abrechnung,uhasibu,s,kusahihisha,mpambano,mashambulizi,NA,NA,NA,NULL,NA,NA,NA,NA,NA,NA,NA,NA,NA,NA,NA,NA,NA,NA,NA,NA,NA,NA,NA
63459,task,flow.Sequence,1_14,NA,NA,completion,2100,159021.60000038,159020.4,159037.1,161137.1,161138.19999981,2024-03-11T13:06:37Z,161153.8,Abrechnung,uhasibu,s,kusahihisha,mpambano,mashambulizi,NA,NA,NA,NULL,NA,NA,NA,NA,NA,NA,NA,NA,NA,NA,NA,NA,NA,NA,NA,NA,NA,NA,NA
63459,Deep Question,html.Page,1_15_0_0,NA,NA,form submission,9110.6000005722,161138.40000057,161137.1,161153.8,170264.40000057,170264.5,2024-03-11T13:06:47Z,170270.2,Aufstand,ugomaji,d,mazidio,msingi,kujieleza,uegomi,NA,NA,NULL,NA,NA,NA,NA,NA,NA,NA,NA,NA,NA,NA,NA,NA,NA,NA,NA,NA,NA,NA
63459,Save data screen,canvas.Screen,1_15_0_1,NA,NA,timeout,500.19999999998,170266.10000038,170253.77,170270.2,170753.8,170754.60000038,2024-03-11T13:06:47Z,170770.4,Aufstand,ugomaji,d,mazidio,msingi,kujieleza,NA,NA,0,NULL,NA,NA,NA,NA,NA,NA,NA,NA,NA,NA,NA,NA,NA,NA,NA,NA,NA,NA,NA
63459,deep,flow.Sequence,1_15_0,NA,NA,completion,9600,161138.40000057,161137.1,161153.8,170753.8,170754.80000019,2024-03-11T13:06:47Z,170770.4,Aufstand,ugomaji,d,mazidio,msingi,kujieleza,NA,NA,NA,NULL,NA,NA,NA,NA,NA,NA,NA,NA,NA,NA,NA,NA,NA,NA,NA,NA,NA,NA,NA
63459,task,flow.Sequence,1_15,NA,NA,completion,9600,161138.40000057,161137.1,161153.8,170753.8,170754.90000057,2024-03-11T13:06:47Z,170770.4,Aufstand,ugomaji,d,mazidio,msingi,kujieleza,NA,NA,NA,NULL,NA,NA,NA,NA,NA,NA,NA,NA,NA,NA,NA,NA,NA,NA,NA,NA,NA,NA,NA
63459,retrieval block 1 (cued recall),flow.Loop,1,NA,NA,completion,168266.8,2480.3000001907,2470.43,2487,170753.8,170755.19999981,2024-03-11T13:06:47Z,170770.4,NA,NA,NA,NA,NA,NA,NA,NA,NA,NULL,NA,NA,NA,NA,NA,NA,NA,NA,NA,NA,NA,NA,NA,NA,NA,NA,NA,NA,NA
63459,Shallow Question,html.Page,2_0_0_0,NA,NA,form submission,13266.700000381,170755.40000057,170753.8,170770.4,184037.10000038,184037.19999981,2024-03-11T13:07:00Z,184054,Prüfung,mtihani,d,mkulima,mtizamo,ufumbuzi,ufumbuzi,NA,NA,"c(""distractor1"", ""distractor2"", ""distractor3"")",NA,NA,NA,NA,NA,NA,NA,NA,NA,NA,NA,NA,NA,NA,NA,NA,NA,NA,NA
63459,Save data screen,canvas.Screen,2_0_0_1,NA,NA,timeout,499.70000000001,184038.80000019,184037.194,184054,184537.1,184537.69999981,2024-03-11T13:07:01Z,184553.7,Prüfung,mtihani,d,mkulima,mtizamo,ufumbuzi,NA,NA,0,"c(""distractor1"", ""distractor2"", ""distractor3"")",NA,NA,NA,NA,NA,NA,NA,NA,NA,NA,NA,NA,NA,NA,NA,NA,NA,NA,NA
63459,shallow,flow.Sequence,2_0_0,NA,NA,completion,13766.7,170755.30000019,170753.8,170770.4,184537.1,184538,2024-03-11T13:07:01Z,184553.7,Prüfung,mtihani,d,mkulima,mtizamo,ufumbuzi,NA,NA,NA,"c(""distractor1"", ""distractor2"", ""distractor3"")",NA,NA,NA,NA,NA,NA,NA,NA,NA,NA,NA,NA,NA,NA,NA,NA,NA,NA,NA
63459,task,flow.Sequence,2_0,NA,NA,completion,13766.7,170755.30000019,170753.8,170770.4,184537.1,184538.10000038,2024-03-11T13:07:01Z,184553.7,Prüfung,mtihani,d,mkulima,mtizamo,ufumbuzi,NA,NA,NA,"c(""distractor1"", ""distractor2"", ""distractor3"")",NA,NA,NA,NA,NA,NA,NA,NA,NA,NA,NA,NA,NA,NA,NA,NA,NA,NA,NA
63459,Shallow Question,html.Page,2_1_0_0,NA,NA,form submission,7655.3,184538.30000019,184537.1,184553.7,192209,192209.19999981,2024-03-11T13:07:08Z,192220.2,Können,unaweza,d,kiongozi,bustani,mienendo,unaweza,NA,NA,"c(""distractor1"", ""distractor2"", ""distractor3"")",NA,NA,NA,NA,NA,NA,NA,NA,NA,NA,NA,NA,NA,NA,NA,NA,NA,NA,NA
63459,Save data screen,canvas.Screen,2_1_0_1,NA,NA,timeout,500.19999999998,192210.90000057,192203.718,192220.2,192703.7,192704.40000057,2024-03-11T13:07:09Z,192720.4,Können,unaweza,d,kiongozi,bustani,mienendo,NA,NA,1,"c(""distractor1"", ""distractor2"", ""distractor3"")",NA,NA,NA,NA,NA,NA,NA,NA,NA,NA,NA,NA,NA,NA,NA,NA,NA,NA,NA
63459,shallow,flow.Sequence,2_1_0,NA,NA,completion,8150,184538.30000019,184537.1,184553.7,192703.7,192705,2024-03-11T13:07:09Z,192720.4,Können,unaweza,d,kiongozi,bustani,mienendo,NA,NA,NA,"c(""distractor1"", ""distractor2"", ""distractor3"")",NA,NA,NA,NA,NA,NA,NA,NA,NA,NA,NA,NA,NA,NA,NA,NA,NA,NA,NA
63459,task,flow.Sequence,2_1,NA,NA,completion,8150,184538.19999981,184537.1,184553.7,192703.7,192705.10000038,2024-03-11T13:07:09Z,192720.4,Können,unaweza,d,kiongozi,bustani,mienendo,NA,NA,NA,"c(""distractor1"", ""distractor2"", ""distractor3"")",NA,NA,NA,NA,NA,NA,NA,NA,NA,NA,NA,NA,NA,NA,NA,NA,NA,NA,NA
63459,Shallow Question,html.Page,2_2_0_0,NA,NA,form submission,6277.5000005722,192705.30000019,192703.7,192720.4,198997.90000057,198998.19999981,2024-03-11T13:07:15Z,199003.6,Kreativität,ubunifu,d,mratibu,mwendelezo,makubaliano,ubunifu,NA,NA,"c(""distractor1"", ""distractor2"", ""distractor3"")",NA,NA,NA,NA,NA,NA,NA,NA,NA,NA,NA,NA,NA,NA,NA,NA,NA,NA,NA
63459,Save data screen,canvas.Screen,2_2_0_1,NA,NA,timeout,500.19999999998,198999.69999981,198987.124,199003.6,199487,199487.80000019,2024-03-11T13:07:16Z,199503.8,Kreativität,ubunifu,d,mratibu,mwendelezo,makubaliano,NA,NA,1,"c(""distractor1"", ""distractor2"", ""distractor3"")",NA,NA,NA,NA,NA,NA,NA,NA,NA,NA,NA,NA,NA,NA,NA,NA,NA,NA,NA
63459,shallow,flow.Sequence,2_2_0,NA,NA,completion,6766.6,192705.19999981,192703.7,192720.4,199487,199488.10000038,2024-03-11T13:07:16Z,199503.8,Kreativität,ubunifu,d,mratibu,mwendelezo,makubaliano,NA,NA,NA,"c(""distractor1"", ""distractor2"", ""distractor3"")",NA,NA,NA,NA,NA,NA,NA,NA,NA,NA,NA,NA,NA,NA,NA,NA,NA,NA,NA
63459,task,flow.Sequence,2_2,NA,NA,completion,6766.6,192705.19999981,192703.7,192720.4,199487,199488.30000019,2024-03-11T13:07:16Z,199503.8,Kreativität,ubunifu,d,mratibu,mwendelezo,makubaliano,NA,NA,NA,"c(""distractor1"", ""distractor2"", ""distractor3"")",NA,NA,NA,NA,NA,NA,NA,NA,NA,NA,NA,NA,NA,NA,NA,NA,NA,NA,NA
63459,Shallow Question,html.Page,2_3_0_0,NA,NA,form submission,10553.399999809,199488.40000057,199487,199503.8,210057.19999981,210057.40000057,2024-03-11T13:07:26Z,210070.3,Abrechnung,uhasibu,s,kusahihisha,mpambano,mashambulizi,mpambano,NA,NA,"c(""distractor1"", ""distractor2"", ""distractor3"")",NA,NA,NA,NA,NA,NA,NA,NA,NA,NA,NA,NA,NA,NA,NA,NA,NA,NA,NA
63459,Save data screen,canvas.Screen,2_3_0_1,NA,NA,timeout,500.10000000001,210059,210053.764,210070.3,210553.7,210554.5,2024-03-11T13:07:27Z,210570.4,Abrechnung,uhasibu,s,kusahihisha,mpambano,mashambulizi,NA,NA,0,"c(""distractor1"", ""distractor2"", ""distractor3"")",NA,NA,NA,NA,NA,NA,NA,NA,NA,NA,NA,NA,NA,NA,NA,NA,NA,NA,NA
63459,shallow,flow.Sequence,2_3_0,NA,NA,completion,11049.9,199488.40000057,199487,199503.8,210553.7,210554.69999981,2024-03-11T13:07:27Z,210570.4,Abrechnung,uhasibu,s,kusahihisha,mpambano,mashambulizi,NA,NA,NA,"c(""distractor1"", ""distractor2"", ""distractor3"")",NA,NA,NA,NA,NA,NA,NA,NA,NA,NA,NA,NA,NA,NA,NA,NA,NA,NA,NA
63459,task,flow.Sequence,2_3,NA,NA,completion,11049.9,199488.40000057,199487,199503.8,210553.7,210554.90000057,2024-03-11T13:07:27Z,210570.4,Abrechnung,uhasibu,s,kusahihisha,mpambano,mashambulizi,NA,NA,NA,"c(""distractor1"", ""distractor2"", ""distractor3"")",NA,NA,NA,NA,NA,NA,NA,NA,NA,NA,NA,NA,NA,NA,NA,NA,NA,NA,NA
63459,Shallow Question,html.Page,2_4_0_0,NA,NA,form submission,3329.5000005722,210555.10000038,210553.7,210570.4,213899.90000057,213900.10000038,2024-03-11T13:07:30Z,213903.6,Kanzler,diwani,s,rasilmali,mahitaji,maabudu,diwani,NA,NA,"c(""distractor1"", ""distractor2"", ""distractor3"")",NA,NA,NA,NA,NA,NA,NA,NA,NA,NA,NA,NA,NA,NA,NA,NA,NA,NA,NA
63459,Save data screen,canvas.Screen,2_4_0_1,NA,NA,timeout,500.10000000001,213900.60000038,213887.25,213903.6,214387.1,214387.69999981,2024-03-11T13:07:31Z,214403.7,Kanzler,diwani,s,rasilmali,mahitaji,maabudu,NA,NA,1,"c(""distractor1"", ""distractor2"", ""distractor3"")",NA,NA,NA,NA,NA,NA,NA,NA,NA,NA,NA,NA,NA,NA,NA,NA,NA,NA,NA
63459,shallow,flow.Sequence,2_4_0,NA,NA,completion,3816.7,210555,210553.7,210570.4,214387.1,214388,2024-03-11T13:07:31Z,214403.7,Kanzler,diwani,s,rasilmali,mahitaji,maabudu,NA,NA,NA,"c(""distractor1"", ""distractor2"", ""distractor3"")",NA,NA,NA,NA,NA,NA,NA,NA,NA,NA,NA,NA,NA,NA,NA,NA,NA,NA,NA
63459,task,flow.Sequence,2_4,NA,NA,completion,3816.7,210555,210553.7,210570.4,214387.1,214388.10000038,2024-03-11T13:07:31Z,214403.7,Kanzler,diwani,s,rasilmali,mahitaji,maabudu,NA,NA,NA,"c(""distractor1"", ""distractor2"", ""distractor3"")",NA,NA,NA,NA,NA,NA,NA,NA,NA,NA,NA,NA,NA,NA,NA,NA,NA,NA,NA
63459,Shallow Question,html.Page,2_5_0_0,NA,NA,form submission,14462.3,214388.19999981,214387.1,214403.7,228866,228866.19999981,2024-03-11T13:07:45Z,228870.41,Übersicht,kilindo,s,mgusano,chipukizi,kulinganisha,mgusano,NA,NA,"c(""distractor1"", ""distractor2"", ""distractor3"")",NA,NA,NA,NA,NA,NA,NA,NA,NA,NA,NA,NA,NA,NA,NA,NA,NA,NA,NA
63459,Save data screen,canvas.Screen,2_5_0_1,NA,NA,timeout,499.88999999998,228867.80000019,228870.41,228870.41,229353.7,229354.5,2024-03-11T13:07:46Z,229370.3,Übersicht,kilindo,s,mgusano,chipukizi,kulinganisha,NA,NA,0,"c(""distractor1"", ""distractor2"", ""distractor3"")",NA,NA,NA,NA,NA,NA,NA,NA,NA,NA,NA,NA,NA,NA,NA,NA,NA,NA,NA
63459,shallow,flow.Sequence,2_5_0,NA,NA,completion,14950,214388.19999981,214387.1,214403.7,229353.7,229354.69999981,2024-03-11T13:07:46Z,229370.3,Übersicht,kilindo,s,mgusano,chipukizi,kulinganisha,NA,NA,NA,"c(""distractor1"", ""distractor2"", ""distractor3"")",NA,NA,NA,NA,NA,NA,NA,NA,NA,NA,NA,NA,NA,NA,NA,NA,NA,NA,NA
63459,task,flow.Sequence,2_5,NA,NA,completion,14950,214388.10000038,214387.1,214403.7,229353.7,229355,2024-03-11T13:07:46Z,229370.3,Übersicht,kilindo,s,mgusano,chipukizi,kulinganisha,NA,NA,NA,"c(""distractor1"", ""distractor2"", ""distractor3"")",NA,NA,NA,NA,NA,NA,NA,NA,NA,NA,NA,NA,NA,NA,NA,NA,NA,NA,NA
63459,Shallow Question,html.Page,2_6_0_0,NA,NA,form submission,10104.7,229355.10000038,229353.7,229370.3,239475,239475.19999981,2024-03-11T13:07:56Z,239486.9,Gefährdung,kuhatarisha,s,uchokozi,udhaifu,makorowezo,udhaifu,NA,NA,"c(""distractor1"", ""distractor2"", ""distractor3"")",NA,NA,NA,NA,NA,NA,NA,NA,NA,NA,NA,NA,NA,NA,NA,NA,NA,NA,NA
63459,Save data screen,canvas.Screen,2_6_0_1,NA,NA,timeout,500.20000000001,239476.80000019,239470.406,239486.9,239970.3,239971.10000038,2024-03-11T13:07:56Z,239987.1,Gefährdung,kuhatarisha,s,uchokozi,udhaifu,makorowezo,NA,NA,0,"c(""distractor1"", ""distractor2"", ""distractor3"")",NA,NA,NA,NA,NA,NA,NA,NA,NA,NA,NA,NA,NA,NA,NA,NA,NA,NA,NA
63459,shallow,flow.Sequence,2_6_0,NA,NA,completion,10600,229355.10000038,229353.7,229370.3,239970.3,239971.40000057,2024-03-11T13:07:56Z,239987.1,Gefährdung,kuhatarisha,s,uchokozi,udhaifu,makorowezo,NA,NA,NA,"c(""distractor1"", ""distractor2"", ""distractor3"")",NA,NA,NA,NA,NA,NA,NA,NA,NA,NA,NA,NA,NA,NA,NA,NA,NA,NA,NA
63459,task,flow.Sequence,2_6,NA,NA,completion,10600,229355.10000038,229353.7,229370.3,239970.3,239971.5,2024-03-11T13:07:56Z,239987.1,Gefährdung,kuhatarisha,s,uchokozi,udhaifu,makorowezo,NA,NA,NA,"c(""distractor1"", ""distractor2"", ""distractor3"")",NA,NA,NA,NA,NA,NA,NA,NA,NA,NA,NA,NA,NA,NA,NA,NA,NA,NA,NA
63459,Shallow Question,html.Page,2_7_0_0,NA,NA,form submission,10586.700000191,239971.80000019,239970.3,239987.1,250573.80000019,250574,2024-03-11T13:08:07Z,250587.1,System,maongozi,d,chokochoko,nuksani,mitaani,maongozi,NA,NA,"c(""distractor1"", ""distractor2"", ""distractor3"")",NA,NA,NA,NA,NA,NA,NA,NA,NA,NA,NA,NA,NA,NA,NA,NA,NA,NA,NA
63459,Save data screen,canvas.Screen,2_7_0_1,NA,NA,timeout,500,250575.60000038,250570.436,250587.1,251070.3,251071.10000038,2024-03-11T13:08:07Z,251087.1,System,maongozi,d,chokochoko,nuksani,mitaani,NA,NA,1,"c(""distractor1"", ""distractor2"", ""distractor3"")",NA,NA,NA,NA,NA,NA,NA,NA,NA,NA,NA,NA,NA,NA,NA,NA,NA,NA,NA
63459,shallow,flow.Sequence,2_7_0,NA,NA,completion,11083.2,239971.69999981,239970.3,239987.1,251070.3,251071.40000057,2024-03-11T13:08:07Z,251087.1,System,maongozi,d,chokochoko,nuksani,mitaani,NA,NA,NA,"c(""distractor1"", ""distractor2"", ""distractor3"")",NA,NA,NA,NA,NA,NA,NA,NA,NA,NA,NA,NA,NA,NA,NA,NA,NA,NA,NA
63459,task,flow.Sequence,2_7,NA,NA,completion,11083.2,239971.69999981,239970.3,239987.1,251070.3,251071.60000038,2024-03-11T13:08:07Z,251087.1,System,maongozi,d,chokochoko,nuksani,mitaani,NA,NA,NA,"c(""distractor1"", ""distractor2"", ""distractor3"")",NA,NA,NA,NA,NA,NA,NA,NA,NA,NA,NA,NA,NA,NA,NA,NA,NA,NA,NA
63459,Shallow Question,html.Page,2_8_0_0,NA,NA,form submission,8299.7000001907,251071.69999981,251070.3,251087.1,259386.80000019,259387.10000038,2024-03-11T13:08:15Z,259403.9,Lawine,banguko,d,maambukizi,usuluhishi,chekechea,banguko,NA,NA,"c(""distractor1"", ""distractor2"", ""distractor3"")",NA,NA,NA,NA,NA,NA,NA,NA,NA,NA,NA,NA,NA,NA,NA,NA,NA,NA,NA
63459,Save data screen,canvas.Screen,2_8_0_1,NA,NA,timeout,499.80000000002,259388.69999981,259387.078,259403.9,259887,259887.69999981,2024-03-11T13:08:16Z,259903.7,Lawine,banguko,d,maambukizi,usuluhishi,chekechea,NA,NA,1,"c(""distractor1"", ""distractor2"", ""distractor3"")",NA,NA,NA,NA,NA,NA,NA,NA,NA,NA,NA,NA,NA,NA,NA,NA,NA,NA,NA
63459,shallow,flow.Sequence,2_8_0,NA,NA,completion,8799.9,251071.69999981,251070.3,251087.1,259887,259888,2024-03-11T13:08:16Z,259903.7,Lawine,banguko,d,maambukizi,usuluhishi,chekechea,NA,NA,NA,"c(""distractor1"", ""distractor2"", ""distractor3"")",NA,NA,NA,NA,NA,NA,NA,NA,NA,NA,NA,NA,NA,NA,NA,NA,NA,NA,NA
63459,task,flow.Sequence,2_8,NA,NA,completion,8799.9,251071.69999981,251070.3,251087.1,259887,259888.10000038,2024-03-11T13:08:16Z,259903.7,Lawine,banguko,d,maambukizi,usuluhishi,chekechea,NA,NA,NA,"c(""distractor1"", ""distractor2"", ""distractor3"")",NA,NA,NA,NA,NA,NA,NA,NA,NA,NA,NA,NA,NA,NA,NA,NA,NA,NA,NA
63459,Shallow Question,html.Page,2_9_0_0,NA,NA,form submission,4522.3,259888.19999981,259887,259903.7,264426,264426.30000019,2024-03-11T13:08:20Z,264436.9,Körper,kiwiliwili,s,mapambano,mpatanishi,kiolezo,kiwiliwili,NA,NA,"c(""distractor1"", ""distractor2"", ""distractor3"")",NA,NA,NA,NA,NA,NA,NA,NA,NA,NA,NA,NA,NA,NA,NA,NA,NA,NA,NA
63459,Save data screen,canvas.Screen,2_9_0_1,NA,NA,timeout,500.09999999998,264427.69999981,264420.4,264436.9,264920.4,264921.19999981,2024-03-11T13:08:21Z,264937,Körper,kiwiliwili,s,mapambano,mpatanishi,kiolezo,NA,NA,1,"c(""distractor1"", ""distractor2"", ""distractor3"")",NA,NA,NA,NA,NA,NA,NA,NA,NA,NA,NA,NA,NA,NA,NA,NA,NA,NA,NA
63459,shallow,flow.Sequence,2_9_0,NA,NA,completion,5016.7,259888.19999981,259887,259903.7,264920.4,264921.40000057,2024-03-11T13:08:21Z,264937,Körper,kiwiliwili,s,mapambano,mpatanishi,kiolezo,NA,NA,NA,"c(""distractor1"", ""distractor2"", ""distractor3"")",NA,NA,NA,NA,NA,NA,NA,NA,NA,NA,NA,NA,NA,NA,NA,NA,NA,NA,NA
63459,task,flow.Sequence,2_9,NA,NA,completion,5016.7,259888.19999981,259887,259903.7,264920.4,264921.60000038,2024-03-11T13:08:21Z,264937,Körper,kiwiliwili,s,mapambano,mpatanishi,kiolezo,NA,NA,NA,"c(""distractor1"", ""distractor2"", ""distractor3"")",NA,NA,NA,NA,NA,NA,NA,NA,NA,NA,NA,NA,NA,NA,NA,NA,NA,NA,NA
63459,Shallow Question,html.Page,2_10_0_0,NA,NA,form submission,8829.9000005722,264921.69999981,264920.4,264937,273766.90000057,273767.10000038,2024-03-11T13:08:30Z,273770.2,Verzögerung,kuchelewa,s,mwakilishi,mwanauchumi,jaribio,kuchelewa,NA,NA,"c(""distractor1"", ""distractor2"", ""distractor3"")",NA,NA,NA,NA,NA,NA,NA,NA,NA,NA,NA,NA,NA,NA,NA,NA,NA,NA,NA
63459,Save data screen,canvas.Screen,2_10_0_1,NA,NA,timeout,500.20000000001,273768.69999981,273753.744,273770.2,274253.6,274254.30000019,2024-03-11T13:08:30Z,274270.4,Verzögerung,kuchelewa,s,mwakilishi,mwanauchumi,jaribio,NA,NA,1,"c(""distractor1"", ""distractor2"", ""distractor3"")",NA,NA,NA,NA,NA,NA,NA,NA,NA,NA,NA,NA,NA,NA,NA,NA,NA,NA,NA
63459,shallow,flow.Sequence,2_10_0,NA,NA,completion,9316.6,264921.69999981,264920.4,264937,274253.6,274254.60000038,2024-03-11T13:08:30Z,274270.4,Verzögerung,kuchelewa,s,mwakilishi,mwanauchumi,jaribio,NA,NA,NA,"c(""distractor1"", ""distractor2"", ""distractor3"")",NA,NA,NA,NA,NA,NA,NA,NA,NA,NA,NA,NA,NA,NA,NA,NA,NA,NA,NA
63459,task,flow.Sequence,2_10,NA,NA,completion,9316.6,264921.69999981,264920.4,264937,274253.6,274254.69999981,2024-03-11T13:08:30Z,274270.4,Verzögerung,kuchelewa,s,mwakilishi,mwanauchumi,jaribio,NA,NA,NA,"c(""distractor1"", ""distractor2"", ""distractor3"")",NA,NA,NA,NA,NA,NA,NA,NA,NA,NA,NA,NA,NA,NA,NA,NA,NA,NA,NA
63459,Shallow Question,html.Page,2_11_0_0,NA,NA,form submission,3994.6,274254.80000019,274253.6,274270.4,278265,278265.30000019,2024-03-11T13:08:34Z,278270.2,Aufstand,ugomaji,d,mazidio,msingi,kujieleza,ugomaji,NA,NA,"c(""distractor1"", ""distractor2"", ""distractor3"")",NA,NA,NA,NA,NA,NA,NA,NA,NA,NA,NA,NA,NA,NA,NA,NA,NA,NA,NA
63459,Save data screen,canvas.Screen,2_11_0_1,NA,NA,timeout,500.20000000001,278266.69999981,278253.746,278270.2,278753.6,278754.30000019,2024-03-11T13:08:35Z,278770.4,Aufstand,ugomaji,d,mazidio,msingi,kujieleza,NA,NA,1,"c(""distractor1"", ""distractor2"", ""distractor3"")",NA,NA,NA,NA,NA,NA,NA,NA,NA,NA,NA,NA,NA,NA,NA,NA,NA,NA,NA
63459,shallow,flow.Sequence,2_11_0,NA,NA,completion,4483.2,274254.80000019,274253.6,274270.4,278753.6,278754.60000038,2024-03-11T13:08:35Z,278770.4,Aufstand,ugomaji,d,mazidio,msingi,kujieleza,NA,NA,NA,"c(""distractor1"", ""distractor2"", ""distractor3"")",NA,NA,NA,NA,NA,NA,NA,NA,NA,NA,NA,NA,NA,NA,NA,NA,NA,NA,NA
63459,task,flow.Sequence,2_11,NA,NA,completion,4483.2,274254.80000019,274253.6,274270.4,278753.6,278754.80000019,2024-03-11T13:08:35Z,278770.4,Aufstand,ugomaji,d,mazidio,msingi,kujieleza,NA,NA,NA,"c(""distractor1"", ""distractor2"", ""distractor3"")",NA,NA,NA,NA,NA,NA,NA,NA,NA,NA,NA,NA,NA,NA,NA,NA,NA,NA,NA
63459,Shallow Question,html.Page,2_12_0_0,NA,NA,form submission,5981.2999998092,278754.90000057,278753.6,278770.4,284751.69999981,284752,2024-03-11T13:08:41Z,284753.746,Sänger,mwimbaji,d,msichana,shughuli,mshirika,mwimbaji,NA,NA,"c(""distractor1"", ""distractor2"", ""distractor3"")",NA,NA,NA,NA,NA,NA,NA,NA,NA,NA,NA,NA,NA,NA,NA,NA,NA,NA,NA
63459,Save data screen,canvas.Screen,2_12_0_1,NA,NA,timeout,499.95400000003,284753.40000057,284753.746,284753.746,285236.9,285237.69999981,2024-03-11T13:08:41Z,285253.7,Sänger,mwimbaji,d,msichana,shughuli,mshirika,NA,NA,1,"c(""distractor1"", ""distractor2"", ""distractor3"")",NA,NA,NA,NA,NA,NA,NA,NA,NA,NA,NA,NA,NA,NA,NA,NA,NA,NA,NA
63459,shallow,flow.Sequence,2_12_0,NA,NA,completion,6466.5,278754.80000019,278753.6,278770.4,285236.9,285237.80000019,2024-03-11T13:08:41Z,285253.7,Sänger,mwimbaji,d,msichana,shughuli,mshirika,NA,NA,NA,"c(""distractor1"", ""distractor2"", ""distractor3"")",NA,NA,NA,NA,NA,NA,NA,NA,NA,NA,NA,NA,NA,NA,NA,NA,NA,NA,NA
63459,task,flow.Sequence,2_12,NA,NA,completion,6466.5,278754.80000019,278753.6,278770.4,285236.9,285238,2024-03-11T13:08:41Z,285253.7,Sänger,mwimbaji,d,msichana,shughuli,mshirika,NA,NA,NA,"c(""distractor1"", ""distractor2"", ""distractor3"")",NA,NA,NA,NA,NA,NA,NA,NA,NA,NA,NA,NA,NA,NA,NA,NA,NA,NA,NA
63459,Shallow Question,html.Page,2_13_0_0,NA,NA,form submission,9687.1000001907,285238.19999981,285236.9,285253.7,294940.80000019,294941,2024-03-11T13:08:51Z,294953.6,Kultur,utamaduni,s,shetani,gerezani,mazingira,gerezani,NA,NA,"c(""distractor1"", ""distractor2"", ""distractor3"")",NA,NA,NA,NA,NA,NA,NA,NA,NA,NA,NA,NA,NA,NA,NA,NA,NA,NA,NA
63459,Save data screen,canvas.Screen,2_13_0_1,NA,NA,timeout,500,294942.5,294937.094,294953.6,295437.1,295438,2024-03-11T13:08:51Z,295453.6,Kultur,utamaduni,s,shetani,gerezani,mazingira,NA,NA,0,"c(""distractor1"", ""distractor2"", ""distractor3"")",NA,NA,NA,NA,NA,NA,NA,NA,NA,NA,NA,NA,NA,NA,NA,NA,NA,NA,NA
63459,shallow,flow.Sequence,2_13_0,NA,NA,completion,10183.4,285238.10000038,285236.9,285253.7,295437.1,295438.30000019,2024-03-11T13:08:51Z,295453.6,Kultur,utamaduni,s,shetani,gerezani,mazingira,NA,NA,NA,"c(""distractor1"", ""distractor2"", ""distractor3"")",NA,NA,NA,NA,NA,NA,NA,NA,NA,NA,NA,NA,NA,NA,NA,NA,NA,NA,NA
63459,task,flow.Sequence,2_13,NA,NA,completion,10183.4,285238.10000038,285236.9,285253.7,295437.1,295438.40000057,2024-03-11T13:08:51Z,295453.6,Kultur,utamaduni,s,shetani,gerezani,mazingira,NA,NA,NA,"c(""distractor1"", ""distractor2"", ""distractor3"")",NA,NA,NA,NA,NA,NA,NA,NA,NA,NA,NA,NA,NA,NA,NA,NA,NA,NA,NA
63459,Shallow Question,html.Page,2_14_0_0,NA,NA,form submission,4738.0999998093,295438.60000038,295437.1,295453.6,300191.69999981,300191.90000057,2024-03-11T13:08:56Z,300220.4,Angreifer,mshambulizi,d,kitengo,tasinia,usafirishaji,mshambulizi,NA,NA,"c(""distractor1"", ""distractor2"", ""distractor3"")",NA,NA,NA,NA,NA,NA,NA,NA,NA,NA,NA,NA,NA,NA,NA,NA,NA,NA,NA
63459,Save data screen,canvas.Screen,2_14_0_1,NA,NA,timeout,500,300193.60000038,300203.932,300220.4,300703.6,300704.5,2024-03-11T13:08:57Z,300720.4,Angreifer,mshambulizi,d,kitengo,tasinia,usafirishaji,NA,NA,1,"c(""distractor1"", ""distractor2"", ""distractor3"")",NA,NA,NA,NA,NA,NA,NA,NA,NA,NA,NA,NA,NA,NA,NA,NA,NA,NA,NA
63459,shallow,flow.Sequence,2_14_0,NA,NA,completion,5250,295438.5,295437.1,295453.6,300703.6,300704.80000019,2024-03-11T13:08:57Z,300720.4,Angreifer,mshambulizi,d,kitengo,tasinia,usafirishaji,NA,NA,NA,"c(""distractor1"", ""distractor2"", ""distractor3"")",NA,NA,NA,NA,NA,NA,NA,NA,NA,NA,NA,NA,NA,NA,NA,NA,NA,NA,NA
63459,task,flow.Sequence,2_14,NA,NA,completion,5250,295438.5,295437.1,295453.6,300703.6,300705,2024-03-11T13:08:57Z,300720.4,Angreifer,mshambulizi,d,kitengo,tasinia,usafirishaji,NA,NA,NA,"c(""distractor1"", ""distractor2"", ""distractor3"")",NA,NA,NA,NA,NA,NA,NA,NA,NA,NA,NA,NA,NA,NA,NA,NA,NA,NA,NA
63459,Shallow Question,html.Page,2_15_0_0,NA,NA,form submission,12884.299999809,300705.10000038,300703.6,300720.4,313604.69999981,313604.90000057,2024-03-11T13:09:09Z,313620.3,Kontrolle,kudhibiti,s,mbinguni,kufunga,utegemezi,utegemezi,NA,NA,"c(""distractor1"", ""distractor2"", ""distractor3"")",NA,NA,NA,NA,NA,NA,NA,NA,NA,NA,NA,NA,NA,NA,NA,NA,NA,NA,NA
63459,Save data screen,canvas.Screen,2_15_0_1,NA,NA,timeout,499.90000000002,313606.5,313603.8,313620.3,314103.7,314104.60000038,2024-03-11T13:09:10Z,314120.2,Kontrolle,kudhibiti,s,mbinguni,kufunga,utegemezi,NA,NA,0,"c(""distractor1"", ""distractor2"", ""distractor3"")",NA,NA,NA,NA,NA,NA,NA,NA,NA,NA,NA,NA,NA,NA,NA,NA,NA,NA,NA
63459,shallow,flow.Sequence,2_15_0,NA,NA,completion,13383.3,300705.10000038,300703.6,300720.4,314103.7,314104.80000019,2024-03-11T13:09:10Z,314120.2,Kontrolle,kudhibiti,s,mbinguni,kufunga,utegemezi,NA,NA,NA,"c(""distractor1"", ""distractor2"", ""distractor3"")",NA,NA,NA,NA,NA,NA,NA,NA,NA,NA,NA,NA,NA,NA,NA,NA,NA,NA,NA
63459,task,flow.Sequence,2_15,NA,NA,completion,13383.3,300705,300703.6,300720.4,314103.7,314105,2024-03-11T13:09:10Z,314120.2,Kontrolle,kudhibiti,s,mbinguni,kufunga,utegemezi,NA,NA,NA,"c(""distractor1"", ""distractor2"", ""distractor3"")",NA,NA,NA,NA,NA,NA,NA,NA,NA,NA,NA,NA,NA,NA,NA,NA,NA,NA,NA
63459,retrieval block 2 (multiple choice),flow.Loop,2,NA,NA,completion,143333.3,170755.30000019,170753.8,170770.4,314103.7,314105.10000038,2024-03-11T13:09:10Z,314120.2,NA,NA,NA,NA,NA,NA,NA,NA,NA,"c(""distractor1"", ""distractor2"", ""distractor3"")",NA,NA,NA,NA,NA,NA,NA,NA,NA,NA,NA,NA,NA,NA,NA,NA,NA,NA,NA
63459,End,canvas.Screen,3,NA,keypress(Space),response,1482.7000005722,314105.19999981,314103.7,314120.2,315602.90000057,315604.10000038,2024-03-11T13:09:11Z,315620.3,NA,NA,NA,NA,NA,NA,NA,NA,NA,NULL,NA,NA,NA,NA,NA,NA,NA,NA,NA,NA,NA,NA,NA,NA,NA,NA,NA,NA,NA
63459,root,flow.Sequence,NA,NA,NA,completion,315249.20000057,335.5,170.3,353.7,315602.90000057,315604.69999981,2024-03-11T13:09:11Z,315620.3,NA,NA,NA,NA,NA,NA,NA,NA,NA,NULL,NA,NA,NA,NA,NA,NA,NA,NA,NA,NA,NA,NA,NA,NA,NA,NA,NA,NA,NA
