observation,sender,sender_type,sender_id,response,response_action,ended_on,duration,time_run,time_render,time_show,time_end,time_commit,timestamp,time_switch,distractors,german,swahili,enc,distractor1,distractor2,distractor3,response_2,x,correct,x_2,url_vp,url_sess,meta_labjs_version,meta_location,meta_user_agent,meta_platform,meta_language,meta_locale,meta_time_zone,meta_timezone_offset,meta_screen_width,meta_screen_height,meta_scroll_width,meta_scroll_height,meta_window_inner_width,meta_window_inner_height,meta_device_pixel_ratio,meta_labjs_build_flavor,meta_labjs_build_commit
7e639,Introduction general,canvas.Screen,0,weiter,keypress(q),response,291272.775,267.10000000149,142.463,259.125,291531.9,291538.2,2023-05-10T11:52:07Z,291545.783,NULL,NA,NA,NA,NA,NA,NA,NA,NA,NA,NA,122,3,20.2.4,https://neurocog.fernuni.ch/studies/vweber/encoding_immediate/index.html?vp=122&sess=3,"Mozilla/5.0 (Macintosh; Intel Mac OS X 10_15_7) AppleWebKit/537.36 (KHTML, like Gecko) Chrome/113.0.0.0 Safari/537.36",MacIntel,de-DE,de,Europe/Zurich,-120,1440,900,1360,660,1360,708,2,production,f5b4a49f956347addd546a832a3327688c2c0fef
7e639,Introduction practice,canvas.Screen,1_0,NA,keypress(Space),response,46830.517000001,291538.6,291529.117,291545.783,338376.3,338379.2,2023-05-10T11:52:54Z,338394.881,NULL,NA,NA,NA,NA,NA,NA,NA,NA,NA,NA,NA,NA,NA,NA,NA,NA,NA,NA,NA,NA,NA,NA,NA,NA,NA,NA,NA,NA,NA
7e639,Deep Question,html.Page,1_1_0_0_0,NA,NA,form submission,8721.619,338379.6,338378.215,338394.881,347116.5,347116.6,2023-05-10T11:53:02Z,347130.357,"c(""distractor1"", ""distractor2"", ""distractor3"")",Qualität,mtindo,d,NA,NA,NA,jfpa,NA,NA,NA,NA,NA,NA,NA,NA,NA,NA,NA,NA,NA,NA,NA,NA,NA,NA,NA,NA,NA,NA
7e639,"""Richtig""-Screen",canvas.Screen,1_1_0_0_1,NA,NA,skipped,NA,347117.3,NA,NA,347116.5,347117.3,2023-05-10T11:53:02Z,347130.357,"c(""distractor1"", ""distractor2"", ""distractor3"")",Qualität,mtindo,d,NA,NA,NA,NA,NA,NA,NA,NA,NA,NA,NA,NA,NA,NA,NA,NA,NA,NA,NA,NA,NA,NA,NA,NA,NA,NA
7e639,"""Falsch""-Screen",canvas.Screen,1_1_0_0_2,NA,NA,timeout,4999.8,347117.6,347113.691,347130.357,352113.491,352121.4,2023-05-10T11:53:07Z,352130.157,"c(""distractor1"", ""distractor2"", ""distractor3"")",Qualität,mtindo,d,NA,NA,NA,NA,NA,0,NA,NA,NA,NA,NA,NA,NA,NA,NA,NA,NA,NA,NA,NA,NA,NA,NA,NA,NA,NA
7e639,deep,flow.Sequence,1_1_0_0,NA,NA,completion,13718.61,338379.5,338378.215,338394.881,352113.491,352121.9,2023-05-10T11:53:07Z,352130.157,"c(""distractor1"", ""distractor2"", ""distractor3"")",Qualität,mtindo,d,NA,NA,NA,NA,NA,NA,NA,NA,NA,NA,NA,NA,NA,NA,NA,NA,NA,NA,NA,NA,NA,NA,NA,NA,NA,NA
7e639,shallow,flow.Sequence,1_1_0_1,NA,NA,skipped,NA,352122,NA,NA,352113.491,352122.1,2023-05-10T11:53:07Z,352130.157,"c(""distractor1"", ""distractor2"", ""distractor3"")",Qualität,mtindo,d,NA,NA,NA,NA,NA,NA,NA,NA,NA,NA,NA,NA,NA,NA,NA,NA,NA,NA,NA,NA,NA,NA,NA,NA,NA,NA
7e639,task,flow.Sequence,1_1_0,NA,NA,completion,13718.61,338379.5,338378.215,338394.881,352113.491,352122.2,2023-05-10T11:53:07Z,352130.157,"c(""distractor1"", ""distractor2"", ""distractor3"")",Qualität,mtindo,d,NA,NA,NA,NA,NA,NA,NA,NA,NA,NA,NA,NA,NA,NA,NA,NA,NA,NA,NA,NA,NA,NA,NA,NA,NA,NA
7e639,Deep Question,html.Page,1_1_1_0_0,NA,NA,form submission,6446.9430000015,352122.4,352113.491,352130.157,358577.1,358577.6,2023-05-10T11:53:14Z,358580.586,"c(""distractor1"", ""distractor2"", ""distractor3"")",Gesundheit,salama,d,NA,NA,NA,jfp,NA,NA,NA,NA,NA,NA,NA,NA,NA,NA,NA,NA,NA,NA,NA,NA,NA,NA,NA,NA,NA,NA
7e639,"""Richtig""-Screen",canvas.Screen,1_1_1_0_1,NA,NA,skipped,NA,358581.3,NA,NA,358577.1,358581.7,2023-05-10T11:53:14Z,358580.586,"c(""distractor1"", ""distractor2"", ""distractor3"")",Gesundheit,salama,d,NA,NA,NA,NA,NA,NA,NA,NA,NA,NA,NA,NA,NA,NA,NA,NA,NA,NA,NA,NA,NA,NA,NA,NA,NA,NA
7e639,"""Falsch""-Screen",canvas.Screen,1_1_1_0_2,NA,NA,timeout,4999.8,358583.1,358563.92,358580.586,363563.72,363568.5,2023-05-10T11:53:19Z,363580.386,"c(""distractor1"", ""distractor2"", ""distractor3"")",Gesundheit,salama,d,NA,NA,NA,NA,NA,0,NA,NA,NA,NA,NA,NA,NA,NA,NA,NA,NA,NA,NA,NA,NA,NA,NA,NA,NA,NA
7e639,deep,flow.Sequence,1_1_1_0,NA,NA,completion,11433.563,352122.3,352113.491,352130.157,363563.72,363569.1,2023-05-10T11:53:19Z,363580.386,"c(""distractor1"", ""distractor2"", ""distractor3"")",Gesundheit,salama,d,NA,NA,NA,NA,NA,NA,NA,NA,NA,NA,NA,NA,NA,NA,NA,NA,NA,NA,NA,NA,NA,NA,NA,NA,NA,NA
7e639,shallow,flow.Sequence,1_1_1_1,NA,NA,skipped,NA,363569.3,NA,NA,363563.72,363569.6,2023-05-10T11:53:19Z,363580.386,"c(""distractor1"", ""distractor2"", ""distractor3"")",Gesundheit,salama,d,NA,NA,NA,NA,NA,NA,NA,NA,NA,NA,NA,NA,NA,NA,NA,NA,NA,NA,NA,NA,NA,NA,NA,NA,NA,NA
7e639,task,flow.Sequence,1_1_1,NA,NA,completion,11433.563,352122.3,352113.491,352130.157,363563.72,363569.8,2023-05-10T11:53:19Z,363580.386,"c(""distractor1"", ""distractor2"", ""distractor3"")",Gesundheit,salama,d,NA,NA,NA,NA,NA,NA,NA,NA,NA,NA,NA,NA,NA,NA,NA,NA,NA,NA,NA,NA,NA,NA,NA,NA,NA,NA
7e639,deep,flow.Sequence,1_1_2_0,NA,NA,skipped,NA,363570,NA,NA,363563.72,363570.3,2023-05-10T11:53:19Z,363580.386,"c(""distractor1"", ""distractor2"", ""distractor3"")",Kritik,lawama,s,dereva,nafasi,mawazo,NA,NA,NA,NA,NA,NA,NA,NA,NA,NA,NA,NA,NA,NA,NA,NA,NA,NA,NA,NA,NA,NA,NA
7e639,Shallow Question,html.Page,1_1_2_1_0,NA,NA,form submission,12171.914000001,363570.4,363563.72,363580.386,375752.3,375752.9,2023-05-10T11:53:31Z,375764.419,"c(""distractor1"", ""distractor2"", ""distractor3"")",Kritik,lawama,s,dereva,nafasi,mawazo,lawama,NA,NA,NA,NA,NA,NA,NA,NA,NA,NA,NA,NA,NA,NA,NA,NA,NA,NA,NA,NA,NA,NA
7e639,"""Richtig""-Screen",canvas.Screen,1_1_2_1_1,NA,NA,timeout,4999.8,375756.2,375747.753,375764.419,380747.553,380751.6,2023-05-10T11:53:36Z,380764.219,"c(""distractor1"", ""distractor2"", ""distractor3"")",Kritik,lawama,s,dereva,nafasi,mawazo,NA,NA,1,NA,NA,NA,NA,NA,NA,NA,NA,NA,NA,NA,NA,NA,NA,NA,NA,NA,NA,NA,NA
7e639,"""Falsch""-Screen",canvas.Screen,1_1_2_1_2,NA,NA,skipped,NA,380754.8,NA,NA,380747.553,380755,2023-05-10T11:53:36Z,380764.219,"c(""distractor1"", ""distractor2"", ""distractor3"")",Kritik,lawama,s,dereva,nafasi,mawazo,NA,NA,NA,NA,NA,NA,NA,NA,NA,NA,NA,NA,NA,NA,NA,NA,NA,NA,NA,NA,NA,NA,NA
7e639,shallow,flow.Sequence,1_1_2_1,NA,NA,completion,17167.167,363570.4,363563.72,363580.386,380747.553,380755.2,2023-05-10T11:53:36Z,380764.219,"c(""distractor1"", ""distractor2"", ""distractor3"")",Kritik,lawama,s,dereva,nafasi,mawazo,NA,NA,NA,NA,NA,NA,NA,NA,NA,NA,NA,NA,NA,NA,NA,NA,NA,NA,NA,NA,NA,NA,NA
7e639,task,flow.Sequence,1_1_2,NA,NA,completion,17167.167,363570,363563.72,363580.386,380747.553,380755.4,2023-05-10T11:53:36Z,380764.219,"c(""distractor1"", ""distractor2"", ""distractor3"")",Kritik,lawama,s,dereva,nafasi,mawazo,NA,NA,NA,NA,NA,NA,NA,NA,NA,NA,NA,NA,NA,NA,NA,NA,NA,NA,NA,NA,NA,NA,NA
7e639,deep,flow.Sequence,1_1_3_0,NA,NA,skipped,NA,380755.5,NA,NA,380747.553,380755.6,2023-05-10T11:53:36Z,380764.219,"c(""distractor1"", ""distractor2"", ""distractor3"")",Gegenwart,hadhara,s,katiba,jokofu,mikopo,NA,NA,NA,NA,NA,NA,NA,NA,NA,NA,NA,NA,NA,NA,NA,NA,NA,NA,NA,NA,NA,NA,NA
7e639,Shallow Question,html.Page,1_1_3_1_0,NA,NA,form submission,3021.281,380755.7,380747.553,380764.219,383785.5,383785.9,2023-05-10T11:53:39Z,383797.431,"c(""distractor1"", ""distractor2"", ""distractor3"")",Gegenwart,hadhara,s,katiba,jokofu,mikopo,katiba,NA,NA,NA,NA,NA,NA,NA,NA,NA,NA,NA,NA,NA,NA,NA,NA,NA,NA,NA,NA,NA,NA
7e639,"""Richtig""-Screen",canvas.Screen,1_1_3_1_1,NA,NA,skipped,NA,383789,NA,NA,383785.5,383789.2,2023-05-10T11:53:39Z,383797.431,"c(""distractor1"", ""distractor2"", ""distractor3"")",Gegenwart,hadhara,s,katiba,jokofu,mikopo,NA,NA,NA,NA,NA,NA,NA,NA,NA,NA,NA,NA,NA,NA,NA,NA,NA,NA,NA,NA,NA,NA,NA
7e639,"""Falsch""-Screen",canvas.Screen,1_1_3_1_2,NA,NA,timeout,4999.8,383790,383780.765,383797.431,388780.565,388785.3,2023-05-10T11:53:44Z,388797.231,"c(""distractor1"", ""distractor2"", ""distractor3"")",Gegenwart,hadhara,s,katiba,jokofu,mikopo,NA,NA,0,NA,NA,NA,NA,NA,NA,NA,NA,NA,NA,NA,NA,NA,NA,NA,NA,NA,NA,NA,NA
7e639,shallow,flow.Sequence,1_1_3_1,NA,NA,completion,8016.346,380755.7,380747.553,380764.219,388780.565,388785.8,2023-05-10T11:53:44Z,388797.231,"c(""distractor1"", ""distractor2"", ""distractor3"")",Gegenwart,hadhara,s,katiba,jokofu,mikopo,NA,NA,NA,NA,NA,NA,NA,NA,NA,NA,NA,NA,NA,NA,NA,NA,NA,NA,NA,NA,NA,NA,NA
7e639,task,flow.Sequence,1_1_3,NA,NA,completion,8016.346,380755.5,380747.553,380764.219,388780.565,388786,2023-05-10T11:53:44Z,388797.231,"c(""distractor1"", ""distractor2"", ""distractor3"")",Gegenwart,hadhara,s,katiba,jokofu,mikopo,NA,NA,NA,NA,NA,NA,NA,NA,NA,NA,NA,NA,NA,NA,NA,NA,NA,NA,NA,NA,NA,NA,NA
7e639,deep,flow.Sequence,1_1_4_0,NA,NA,skipped,NA,388786.1,NA,NA,388780.565,388786.3,2023-05-10T11:53:44Z,388797.231,"c(""distractor1"", ""distractor2"", ""distractor3"")",Rückhalt,msaada,s,muhula,auwali,kiwimbe,NA,NA,NA,NA,NA,NA,NA,NA,NA,NA,NA,NA,NA,NA,NA,NA,NA,NA,NA,NA,NA,NA,NA
7e639,Shallow Question,html.Page,1_1_4_1_0,NA,NA,form submission,2555.9690000011,388786.5,388780.565,388797.231,391353.2,391353.7,2023-05-10T11:53:47Z,391364.57,"c(""distractor1"", ""distractor2"", ""distractor3"")",Rückhalt,msaada,s,muhula,auwali,kiwimbe,kiwimbe,NA,NA,NA,NA,NA,NA,NA,NA,NA,NA,NA,NA,NA,NA,NA,NA,NA,NA,NA,NA,NA,NA
7e639,"""Richtig""-Screen",canvas.Screen,1_1_4_1_1,NA,NA,skipped,NA,391356.6,NA,NA,391353.2,391356.9,2023-05-10T11:53:47Z,391364.57,"c(""distractor1"", ""distractor2"", ""distractor3"")",Rückhalt,msaada,s,muhula,auwali,kiwimbe,NA,NA,NA,NA,NA,NA,NA,NA,NA,NA,NA,NA,NA,NA,NA,NA,NA,NA,NA,NA,NA,NA,NA
7e639,"""Falsch""-Screen",canvas.Screen,1_1_4_1_2,NA,NA,timeout,4999.8,391357.9,391347.904,391364.57,396347.704,396352.3,2023-05-10T11:53:52Z,396364.37,"c(""distractor1"", ""distractor2"", ""distractor3"")",Rückhalt,msaada,s,muhula,auwali,kiwimbe,NA,NA,0,NA,NA,NA,NA,NA,NA,NA,NA,NA,NA,NA,NA,NA,NA,NA,NA,NA,NA,NA,NA
7e639,shallow,flow.Sequence,1_1_4_1,NA,NA,completion,7550.473,388786.4,388780.565,388797.231,396347.704,396352.6,2023-05-10T11:53:52Z,396364.37,"c(""distractor1"", ""distractor2"", ""distractor3"")",Rückhalt,msaada,s,muhula,auwali,kiwimbe,NA,NA,NA,NA,NA,NA,NA,NA,NA,NA,NA,NA,NA,NA,NA,NA,NA,NA,NA,NA,NA,NA,NA
7e639,task,flow.Sequence,1_1_4,NA,NA,completion,7550.473,388786.1,388780.565,388797.231,396347.704,396352.9,2023-05-10T11:53:52Z,396364.37,"c(""distractor1"", ""distractor2"", ""distractor3"")",Rückhalt,msaada,s,muhula,auwali,kiwimbe,NA,NA,NA,NA,NA,NA,NA,NA,NA,NA,NA,NA,NA,NA,NA,NA,NA,NA,NA,NA,NA,NA,NA
7e639,Deep Question,html.Page,1_1_5_0_0,NA,NA,form submission,2942.8300000011,396353.2,396347.704,396364.37,399307.2,399307.6,2023-05-10T11:53:55Z,399314.748,"c(""distractor1"", ""distractor2"", ""distractor3"")",Schatten,kivuli,d,NA,NA,NA,jfpa,NA,NA,NA,NA,NA,NA,NA,NA,NA,NA,NA,NA,NA,NA,NA,NA,NA,NA,NA,NA,NA,NA
7e639,"""Richtig""-Screen",canvas.Screen,1_1_5_0_1,NA,NA,skipped,NA,399310.9,NA,NA,399307.2,399311,2023-05-10T11:53:55Z,399314.748,"c(""distractor1"", ""distractor2"", ""distractor3"")",Schatten,kivuli,d,NA,NA,NA,NA,NA,NA,NA,NA,NA,NA,NA,NA,NA,NA,NA,NA,NA,NA,NA,NA,NA,NA,NA,NA,NA,NA
7e639,"""Falsch""-Screen",canvas.Screen,1_1_5_0_2,NA,NA,timeout,4999.8,399311.6,399298.082,399314.748,404297.882,404302.6,2023-05-10T11:54:00Z,404314.548,"c(""distractor1"", ""distractor2"", ""distractor3"")",Schatten,kivuli,d,NA,NA,NA,NA,NA,0,NA,NA,NA,NA,NA,NA,NA,NA,NA,NA,NA,NA,NA,NA,NA,NA,NA,NA,NA,NA
7e639,deep,flow.Sequence,1_1_5_0,NA,NA,completion,7933.512,396353,396347.704,396364.37,404297.882,404303,2023-05-10T11:54:00Z,404314.548,"c(""distractor1"", ""distractor2"", ""distractor3"")",Schatten,kivuli,d,NA,NA,NA,NA,NA,NA,NA,NA,NA,NA,NA,NA,NA,NA,NA,NA,NA,NA,NA,NA,NA,NA,NA,NA,NA,NA
7e639,shallow,flow.Sequence,1_1_5_1,NA,NA,skipped,NA,404303.2,NA,NA,404297.882,404303.2,2023-05-10T11:54:00Z,404314.548,"c(""distractor1"", ""distractor2"", ""distractor3"")",Schatten,kivuli,d,NA,NA,NA,NA,NA,NA,NA,NA,NA,NA,NA,NA,NA,NA,NA,NA,NA,NA,NA,NA,NA,NA,NA,NA,NA,NA
7e639,task,flow.Sequence,1_1_5,NA,NA,completion,7933.512,396353,396347.704,396364.37,404297.882,404303.5,2023-05-10T11:54:00Z,404314.548,"c(""distractor1"", ""distractor2"", ""distractor3"")",Schatten,kivuli,d,NA,NA,NA,NA,NA,NA,NA,NA,NA,NA,NA,NA,NA,NA,NA,NA,NA,NA,NA,NA,NA,NA,NA,NA,NA,NA
7e639,block,flow.Loop,1_1,NA,NA,completion,65903.001,338379.5,338378.215,338394.881,404297.882,404303.8,2023-05-10T11:54:00Z,404314.548,"c(""distractor1"", ""distractor2"", ""distractor3"")",NA,NA,NA,NA,NA,NA,NA,NA,NA,NA,NA,NA,NA,NA,NA,NA,NA,NA,NA,NA,NA,NA,NA,NA,NA,NA,NA,NA,NA
7e639,Practice,flow.Sequence,1,NA,NA,completion,112752.099,291538.6,291529.117,291545.783,404297.882,404304,2023-05-10T11:54:00Z,404314.548,NULL,NA,NA,NA,NA,NA,NA,NA,NA,NA,NA,NA,NA,NA,NA,NA,NA,NA,NA,NA,NA,NA,NA,NA,NA,NA,NA,NA,NA,NA
7e639,Experiment start,canvas.Screen,2,weiter,keypress(q),response,18659.252000001,404304.1,404297.882,404314.548,422973.8,422980.2,2023-05-10T11:54:18Z,423047.132,NULL,NA,NA,NA,NA,NA,NA,NA,NA,NA,NA,NA,NA,NA,NA,NA,NA,NA,NA,NA,NA,NA,NA,NA,NA,NA,NA,NA,NA,NA
7e639,Deep Question,html.Page,3_0_0_0_0_0_0,NA,NA,form submission,7584.1680000008,423034.9,423030.466,423047.132,430631.3,430631.8,2023-05-10T11:54:26Z,430631.473,NULL,Kreativität,ubunifu,d,NA,NA,NA,ajpfw,NA,NA,0,NA,NA,NA,NA,NA,NA,NA,NA,NA,NA,NA,NA,NA,NA,NA,NA,NA,NA,NA
7e639,"""Richtig""-Screen",canvas.Screen,3_0_0_0_0_0_1,NA,NA,skipped,NA,430634.4,NA,NA,430631.3,430634.6,2023-05-10T11:54:26Z,430631.473,NULL,Kreativität,ubunifu,d,NA,NA,NA,NA,sdf,NA,0,NA,NA,NA,NA,NA,NA,NA,NA,NA,NA,NA,NA,NA,NA,NA,NA,NA,NA,NA
7e639,"""Falsch""-Screen",canvas.Screen,3_0_0_0_0_0_2,NA,NA,timeout,4999.8,430635.1,430614.807,430631.473,435614.607,435618.1,2023-05-10T11:54:31Z,435631.273,NULL,Kreativität,ubunifu,d,NA,NA,NA,NA,sdf,0,0,NA,NA,NA,NA,NA,NA,NA,NA,NA,NA,NA,NA,NA,NA,NA,NA,NA,NA,NA
7e639,deep,flow.Sequence,3_0_0_0_0_0,NA,NA,completion,12567.475,423034.9,423030.466,423047.132,435614.607,435618.4,2023-05-10T11:54:31Z,435631.273,NULL,Kreativität,ubunifu,d,NA,NA,NA,NA,sdf,NA,0,NA,NA,NA,NA,NA,NA,NA,NA,NA,NA,NA,NA,NA,NA,NA,NA,NA,NA,NA
7e639,shallow,flow.Sequence,3_0_0_0_0_1,NA,NA,skipped,NA,435618.6,NA,NA,435614.607,435618.7,2023-05-10T11:54:31Z,435631.273,NULL,Kreativität,ubunifu,d,NA,NA,NA,NA,sdf,NA,0,NA,NA,NA,NA,NA,NA,NA,NA,NA,NA,NA,NA,NA,NA,NA,NA,NA,NA,NA
7e639,task,flow.Sequence,3_0_0_0_0,NA,NA,completion,12567.475,423034.9,423030.466,423047.132,435614.607,435618.9,2023-05-10T11:54:31Z,435631.273,NULL,Kreativität,ubunifu,d,NA,NA,NA,NA,sdf,NA,0,NA,NA,NA,NA,NA,NA,NA,NA,NA,NA,NA,NA,NA,NA,NA,NA,NA,NA,NA
7e639,deep,flow.Sequence,3_0_0_0_1_0,NA,NA,skipped,NA,435619,NA,NA,435614.607,435619.1,2023-05-10T11:54:31Z,435631.273,NULL,Widerstand,usulubu,s,kusababisha,mwalimu,mwenendo,NA,sdf,NA,0,NA,NA,NA,NA,NA,NA,NA,NA,NA,NA,NA,NA,NA,NA,NA,NA,NA,NA,NA
7e639,Shallow Question,html.Page,3_0_0_0_1_1_0,NA,NA,form submission,5221.6270000004,435619.2,435614.607,435631.273,440852.9,440853.4,2023-05-10T11:54:36Z,440865.046,NULL,Widerstand,usulubu,s,kusababisha,mwalimu,mwenendo,kusababisha,NA,NA,0,NA,NA,NA,NA,NA,NA,NA,NA,NA,NA,NA,NA,NA,NA,NA,NA,NA,NA,NA
7e639,"""Richtig""-Screen",canvas.Screen,3_0_0_0_1_1_1,NA,NA,skipped,NA,440856.3,NA,NA,440852.9,440856.5,2023-05-10T11:54:36Z,440865.046,NULL,Widerstand,usulubu,s,kusababisha,mwalimu,mwenendo,NA,sdf,NA,0,NA,NA,NA,NA,NA,NA,NA,NA,NA,NA,NA,NA,NA,NA,NA,NA,NA,NA,NA
7e639,"""Falsch""-Screen",canvas.Screen,3_0_0_0_1_1_2,NA,NA,timeout,4999.8,440857.1,440848.38,440865.046,445848.18,445852.8,2023-05-10T11:54:41Z,445864.846,NULL,Widerstand,usulubu,s,kusababisha,mwalimu,mwenendo,NA,sdf,0,0,NA,NA,NA,NA,NA,NA,NA,NA,NA,NA,NA,NA,NA,NA,NA,NA,NA,NA,NA
7e639,shallow,flow.Sequence,3_0_0_0_1_1,NA,NA,completion,10216.907,435619.2,435614.607,435631.273,445848.18,445853.2,2023-05-10T11:54:41Z,445864.846,NULL,Widerstand,usulubu,s,kusababisha,mwalimu,mwenendo,NA,sdf,NA,0,NA,NA,NA,NA,NA,NA,NA,NA,NA,NA,NA,NA,NA,NA,NA,NA,NA,NA,NA
7e639,task,flow.Sequence,3_0_0_0_1,NA,NA,completion,10216.907,435618.9,435614.607,435631.273,445848.18,445853.4,2023-05-10T11:54:41Z,445864.846,NULL,Widerstand,usulubu,s,kusababisha,mwalimu,mwenendo,NA,sdf,NA,0,NA,NA,NA,NA,NA,NA,NA,NA,NA,NA,NA,NA,NA,NA,NA,NA,NA,NA,NA
7e639,Deep Question,html.Page,3_0_0_0_2_0_0,NA,NA,form submission,3351.5540000004,445853.7,445848.18,445864.846,449216.4,449216.9,2023-05-10T11:54:45Z,449231.872,NULL,Gelegenheit,wakati,d,NA,NA,NA,kfapeo,NA,NA,0,NA,NA,NA,NA,NA,NA,NA,NA,NA,NA,NA,NA,NA,NA,NA,NA,NA,NA,NA
7e639,"""Richtig""-Screen",canvas.Screen,3_0_0_0_2_0_1,NA,NA,skipped,NA,449219.3,NA,NA,449216.4,449219.5,2023-05-10T11:54:45Z,449231.872,NULL,Gelegenheit,wakati,d,NA,NA,NA,NA,sdf,NA,0,NA,NA,NA,NA,NA,NA,NA,NA,NA,NA,NA,NA,NA,NA,NA,NA,NA,NA,NA
7e639,"""Falsch""-Screen",canvas.Screen,3_0_0_0_2_0_2,NA,NA,timeout,4999.8,449220.1,449215.206,449231.872,454215.006,454217.9,2023-05-10T11:54:50Z,454231.672,NULL,Gelegenheit,wakati,d,NA,NA,NA,NA,sdf,0,0,NA,NA,NA,NA,NA,NA,NA,NA,NA,NA,NA,NA,NA,NA,NA,NA,NA,NA,NA
7e639,deep,flow.Sequence,3_0_0_0_2_0,NA,NA,completion,8350.16,445853.7,445848.18,445864.846,454215.006,454218.1,2023-05-10T11:54:50Z,454231.672,NULL,Gelegenheit,wakati,d,NA,NA,NA,NA,sdf,NA,0,NA,NA,NA,NA,NA,NA,NA,NA,NA,NA,NA,NA,NA,NA,NA,NA,NA,NA,NA
7e639,shallow,flow.Sequence,3_0_0_0_2_1,NA,NA,skipped,NA,454218.2,NA,NA,454215.006,454218.3,2023-05-10T11:54:50Z,454231.672,NULL,Gelegenheit,wakati,d,NA,NA,NA,NA,sdf,NA,0,NA,NA,NA,NA,NA,NA,NA,NA,NA,NA,NA,NA,NA,NA,NA,NA,NA,NA,NA
7e639,task,flow.Sequence,3_0_0_0_2,NA,NA,completion,8350.16,445853.6,445848.18,445864.846,454215.006,454218.5,2023-05-10T11:54:50Z,454231.672,NULL,Gelegenheit,wakati,d,NA,NA,NA,NA,sdf,NA,0,NA,NA,NA,NA,NA,NA,NA,NA,NA,NA,NA,NA,NA,NA,NA,NA,NA,NA,NA
7e639,deep,flow.Sequence,3_0_0_0_3_0,NA,NA,skipped,NA,454218.5,NA,NA,454215.006,454218.6,2023-05-10T11:54:50Z,454231.672,NULL,Verstand,ufahamivu,s,shakawa,hadhari,mhandisi,NA,sdf,NA,0,NA,NA,NA,NA,NA,NA,NA,NA,NA,NA,NA,NA,NA,NA,NA,NA,NA,NA,NA
7e639,Shallow Question,html.Page,3_0_0_0_3_1_0,NA,NA,form submission,4671.2280000004,454218.6,454215.006,454231.672,458902.9,458903.4,2023-05-10T11:54:54Z,458915.41,NULL,Verstand,ufahamivu,s,shakawa,hadhari,mhandisi,shakawa,NA,NA,0,NA,NA,NA,NA,NA,NA,NA,NA,NA,NA,NA,NA,NA,NA,NA,NA,NA,NA,NA
7e639,"""Richtig""-Screen",canvas.Screen,3_0_0_0_3_1_1,NA,NA,skipped,NA,458906,NA,NA,458902.9,458906,2023-05-10T11:54:54Z,458915.41,NULL,Verstand,ufahamivu,s,shakawa,hadhari,mhandisi,NA,sdf,NA,0,NA,NA,NA,NA,NA,NA,NA,NA,NA,NA,NA,NA,NA,NA,NA,NA,NA,NA,NA
7e639,"""Falsch""-Screen",canvas.Screen,3_0_0_0_3_1_2,NA,NA,timeout,4999.8,458906.9,458898.744,458915.41,463898.544,463902.7,2023-05-10T11:54:59Z,463915.21,NULL,Verstand,ufahamivu,s,shakawa,hadhari,mhandisi,NA,sdf,0,0,NA,NA,NA,NA,NA,NA,NA,NA,NA,NA,NA,NA,NA,NA,NA,NA,NA,NA,NA
7e639,shallow,flow.Sequence,3_0_0_0_3_1,NA,NA,completion,9666.872,454218.6,454215.006,454231.672,463898.544,463903.2,2023-05-10T11:54:59Z,463915.21,NULL,Verstand,ufahamivu,s,shakawa,hadhari,mhandisi,NA,sdf,NA,0,NA,NA,NA,NA,NA,NA,NA,NA,NA,NA,NA,NA,NA,NA,NA,NA,NA,NA,NA
7e639,task,flow.Sequence,3_0_0_0_3,NA,NA,completion,9666.872,454218.5,454215.006,454231.672,463898.544,463903.4,2023-05-10T11:54:59Z,463915.21,NULL,Verstand,ufahamivu,s,shakawa,hadhari,mhandisi,NA,sdf,NA,0,NA,NA,NA,NA,NA,NA,NA,NA,NA,NA,NA,NA,NA,NA,NA,NA,NA,NA,NA
7e639,deep,flow.Sequence,3_0_0_0_4_0,NA,NA,skipped,NA,463903.6,NA,NA,463898.544,463903.7,2023-05-10T11:54:59Z,463915.21,NULL,Kontrolle,kudhibiti,s,mbinguni,kufunga,utegemezi,NA,sdf,NA,0,NA,NA,NA,NA,NA,NA,NA,NA,NA,NA,NA,NA,NA,NA,NA,NA,NA,NA,NA
7e639,Shallow Question,html.Page,3_0_0_0_4_1_0,NA,NA,form submission,7888.29,463903.8,463898.544,463915.21,471803.5,471804,2023-05-10T11:55:07Z,471815.521,NULL,Kontrolle,kudhibiti,s,mbinguni,kufunga,utegemezi,kufunga,NA,NA,0,NA,NA,NA,NA,NA,NA,NA,NA,NA,NA,NA,NA,NA,NA,NA,NA,NA,NA,NA
7e639,"""Richtig""-Screen",canvas.Screen,3_0_0_0_4_1_1,NA,NA,skipped,NA,471806.9,NA,NA,471803.5,471807,2023-05-10T11:55:07Z,471815.521,NULL,Kontrolle,kudhibiti,s,mbinguni,kufunga,utegemezi,NA,sdf,NA,0,NA,NA,NA,NA,NA,NA,NA,NA,NA,NA,NA,NA,NA,NA,NA,NA,NA,NA,NA
7e639,"""Falsch""-Screen",canvas.Screen,3_0_0_0_4_1_2,NA,NA,timeout,4999.8,471808.1,471798.855,471815.521,476798.655,476803.6,2023-05-10T11:55:12Z,476815.321,NULL,Kontrolle,kudhibiti,s,mbinguni,kufunga,utegemezi,NA,sdf,0,0,NA,NA,NA,NA,NA,NA,NA,NA,NA,NA,NA,NA,NA,NA,NA,NA,NA,NA,NA
7e639,shallow,flow.Sequence,3_0_0_0_4_1,NA,NA,completion,12883.445,463903.8,463898.544,463915.21,476798.655,476804.1,2023-05-10T11:55:12Z,476815.321,NULL,Kontrolle,kudhibiti,s,mbinguni,kufunga,utegemezi,NA,sdf,NA,0,NA,NA,NA,NA,NA,NA,NA,NA,NA,NA,NA,NA,NA,NA,NA,NA,NA,NA,NA
7e639,task,flow.Sequence,3_0_0_0_4,NA,NA,completion,12883.445,463903.5,463898.544,463915.21,476798.655,476804.3,2023-05-10T11:55:12Z,476815.321,NULL,Kontrolle,kudhibiti,s,mbinguni,kufunga,utegemezi,NA,sdf,NA,0,NA,NA,NA,NA,NA,NA,NA,NA,NA,NA,NA,NA,NA,NA,NA,NA,NA,NA,NA
7e639,deep,flow.Sequence,3_0_0_0_5_0,NA,NA,skipped,NA,476804.4,NA,NA,476798.655,476804.5,2023-05-10T11:55:12Z,476815.321,NULL,Gefährdung,kuhatarisha,s,uchokozi,udhaifu,makorowezo,NA,sdf,NA,0,NA,NA,NA,NA,NA,NA,NA,NA,NA,NA,NA,NA,NA,NA,NA,NA,NA,NA,NA
7e639,Shallow Question,html.Page,3_0_0_0_5_1_0,NA,NA,form submission,5221.179,476804.7,476798.655,476815.321,482036.5,482037,2023-05-10T11:55:17Z,482049.039,NULL,Gefährdung,kuhatarisha,s,uchokozi,udhaifu,makorowezo,makorowezo,NA,NA,0,NA,NA,NA,NA,NA,NA,NA,NA,NA,NA,NA,NA,NA,NA,NA,NA,NA,NA,NA
7e639,"""Richtig""-Screen",canvas.Screen,3_0_0_0_5_1_1,NA,NA,skipped,NA,482039.9,NA,NA,482036.5,482040,2023-05-10T11:55:17Z,482049.039,NULL,Gefährdung,kuhatarisha,s,uchokozi,udhaifu,makorowezo,NA,sdf,NA,0,NA,NA,NA,NA,NA,NA,NA,NA,NA,NA,NA,NA,NA,NA,NA,NA,NA,NA,NA
7e639,"""Falsch""-Screen",canvas.Screen,3_0_0_0_5_1_2,NA,NA,timeout,4999.8,482040.7,482032.373,482049.039,487032.173,487033.9,2023-05-10T11:55:22Z,487048.839,NULL,Gefährdung,kuhatarisha,s,uchokozi,udhaifu,makorowezo,NA,sdf,0,0,NA,NA,NA,NA,NA,NA,NA,NA,NA,NA,NA,NA,NA,NA,NA,NA,NA,NA,NA
7e639,shallow,flow.Sequence,3_0_0_0_5_1,NA,NA,completion,10216.852,476804.7,476798.655,476815.321,487032.173,487034.2,2023-05-10T11:55:22Z,487048.839,NULL,Gefährdung,kuhatarisha,s,uchokozi,udhaifu,makorowezo,NA,sdf,NA,0,NA,NA,NA,NA,NA,NA,NA,NA,NA,NA,NA,NA,NA,NA,NA,NA,NA,NA,NA
7e639,task,flow.Sequence,3_0_0_0_5,NA,NA,completion,10216.852,476804.4,476798.655,476815.321,487032.173,487034.4,2023-05-10T11:55:22Z,487048.839,NULL,Gefährdung,kuhatarisha,s,uchokozi,udhaifu,makorowezo,NA,sdf,NA,0,NA,NA,NA,NA,NA,NA,NA,NA,NA,NA,NA,NA,NA,NA,NA,NA,NA,NA,NA
7e639,Deep Question,html.Page,3_0_0_0_6_0_0,NA,NA,form submission,4462.9610000008,487034.5,487032.173,487048.839,491511.8,491512.3,2023-05-10T11:55:27Z,491515.861,NULL,Ausschluss,kutengwa,d,NA,NA,NA,jfapie,NA,NA,0,NA,NA,NA,NA,NA,NA,NA,NA,NA,NA,NA,NA,NA,NA,NA,NA,NA,NA,NA
7e639,"""Richtig""-Screen",canvas.Screen,3_0_0_0_6_0_1,NA,NA,skipped,NA,491515.7,NA,NA,491511.8,491515.9,2023-05-10T11:55:27Z,491515.861,NULL,Ausschluss,kutengwa,d,NA,NA,NA,NA,sdf,NA,0,NA,NA,NA,NA,NA,NA,NA,NA,NA,NA,NA,NA,NA,NA,NA,NA,NA,NA,NA
7e639,"""Falsch""-Screen",canvas.Screen,3_0_0_0_6_0_2,NA,NA,timeout,4999.8,491517.2,491499.195,491515.861,496498.995,496503.2,2023-05-10T11:55:32Z,496515.661,NULL,Ausschluss,kutengwa,d,NA,NA,NA,NA,sdf,0,0,NA,NA,NA,NA,NA,NA,NA,NA,NA,NA,NA,NA,NA,NA,NA,NA,NA,NA,NA
7e639,deep,flow.Sequence,3_0_0_0_6_0,NA,NA,completion,9450.156,487034.5,487032.173,487048.839,496498.995,496503.6,2023-05-10T11:55:32Z,496515.661,NULL,Ausschluss,kutengwa,d,NA,NA,NA,NA,sdf,NA,0,NA,NA,NA,NA,NA,NA,NA,NA,NA,NA,NA,NA,NA,NA,NA,NA,NA,NA,NA
7e639,shallow,flow.Sequence,3_0_0_0_6_1,NA,NA,skipped,NA,496503.7,NA,NA,496498.995,496503.8,2023-05-10T11:55:32Z,496515.661,NULL,Ausschluss,kutengwa,d,NA,NA,NA,NA,sdf,NA,0,NA,NA,NA,NA,NA,NA,NA,NA,NA,NA,NA,NA,NA,NA,NA,NA,NA,NA,NA
7e639,task,flow.Sequence,3_0_0_0_6,NA,NA,completion,9450.156,487034.4,487032.173,487048.839,496498.995,496504,2023-05-10T11:55:32Z,496515.661,NULL,Ausschluss,kutengwa,d,NA,NA,NA,NA,sdf,NA,0,NA,NA,NA,NA,NA,NA,NA,NA,NA,NA,NA,NA,NA,NA,NA,NA,NA,NA,NA
7e639,Deep Question,html.Page,3_0_0_0_7_0_0,NA,NA,form submission,6043.5390000011,496504.2,496498.995,496515.661,502559.2,502559.7,2023-05-10T11:55:38Z,502565.903,NULL,Können,unaweza,d,NA,NA,NA,jfape,NA,NA,0,NA,NA,NA,NA,NA,NA,NA,NA,NA,NA,NA,NA,NA,NA,NA,NA,NA,NA,NA
7e639,"""Richtig""-Screen",canvas.Screen,3_0_0_0_7_0_1,NA,NA,skipped,NA,502562.6,NA,NA,502559.2,502562.8,2023-05-10T11:55:38Z,502565.903,NULL,Können,unaweza,d,NA,NA,NA,NA,sdf,NA,0,NA,NA,NA,NA,NA,NA,NA,NA,NA,NA,NA,NA,NA,NA,NA,NA,NA,NA,NA
7e639,"""Falsch""-Screen",canvas.Screen,3_0_0_0_7_0_2,NA,NA,timeout,4999.8,502563.3,502549.237,502565.903,507549.037,507554,2023-05-10T11:55:43Z,507565.703,NULL,Können,unaweza,d,NA,NA,NA,NA,sdf,0,0,NA,NA,NA,NA,NA,NA,NA,NA,NA,NA,NA,NA,NA,NA,NA,NA,NA,NA,NA
7e639,deep,flow.Sequence,3_0_0_0_7_0,NA,NA,completion,11033.376,496504.2,496498.995,496515.661,507549.037,507554.4,2023-05-10T11:55:43Z,507565.703,NULL,Können,unaweza,d,NA,NA,NA,NA,sdf,NA,0,NA,NA,NA,NA,NA,NA,NA,NA,NA,NA,NA,NA,NA,NA,NA,NA,NA,NA,NA
7e639,shallow,flow.Sequence,3_0_0_0_7_1,NA,NA,skipped,NA,507554.5,NA,NA,507549.037,507554.7,2023-05-10T11:55:43Z,507565.703,NULL,Können,unaweza,d,NA,NA,NA,NA,sdf,NA,0,NA,NA,NA,NA,NA,NA,NA,NA,NA,NA,NA,NA,NA,NA,NA,NA,NA,NA,NA
7e639,task,flow.Sequence,3_0_0_0_7,NA,NA,completion,11033.376,496504.1,496498.995,496515.661,507549.037,507554.8,2023-05-10T11:55:43Z,507565.703,NULL,Können,unaweza,d,NA,NA,NA,NA,sdf,NA,0,NA,NA,NA,NA,NA,NA,NA,NA,NA,NA,NA,NA,NA,NA,NA,NA,NA,NA,NA
7e639,block,flow.Loop,3_0_0_0,NA,NA,completion,84501.905,423034.9,423030.466,423047.132,507549.037,507555,2023-05-10T11:55:43Z,507565.703,NULL,NA,NA,NA,NA,NA,NA,NA,sdf,NA,0,NA,NA,NA,NA,NA,NA,NA,NA,NA,NA,NA,NA,NA,NA,NA,NA,NA,NA,NA
7e639,weiter,canvas.Screen,3_0_0_1,sdf,keypress(Space),response,29291.097000001,507555.2,507549.037,507565.703,536856.8,536861.8,2023-05-10T11:56:12Z,536897.863,NULL,NA,NA,NA,NA,NA,NA,NA,sdf,NA,0,NA,NA,NA,NA,NA,NA,NA,NA,NA,NA,NA,NA,NA,NA,NA,NA,NA,NA,NA
7e639,check continue,flow.Sequence,3_0_0,NA,NA,completion,113809.668,423034.8,423030.466,423047.132,536856.8,536862.1,2023-05-10T11:56:12Z,536897.863,NULL,NA,NA,NA,NA,NA,NA,NA,sdf,NA,0,NA,NA,NA,NA,NA,NA,NA,NA,NA,NA,NA,NA,NA,NA,NA,NA,NA,NA,NA
7e639,deep,flow.Sequence,3_0_1_0_0_0,NA,NA,skipped,NA,536888.5,NA,NA,536856.8,536888.6,2023-05-10T11:56:12Z,536897.863,NULL,Gefährdung,kuhatarisha,s,uchokozi,udhaifu,makorowezo,NA,sdfdsf,NA,1,NA,NA,NA,NA,NA,NA,NA,NA,NA,NA,NA,NA,NA,NA,NA,NA,NA,NA,NA
7e639,Shallow Question,html.Page,3_0_1_0_0_1_0,NA,NA,form submission,13423.337000001,536888.6,536881.197,536897.863,550321.2,550321.7,2023-05-10T11:56:26Z,550333.145,NULL,Gefährdung,kuhatarisha,s,uchokozi,udhaifu,makorowezo,udhaifu,NA,NA,1,NA,NA,NA,NA,NA,NA,NA,NA,NA,NA,NA,NA,NA,NA,NA,NA,NA,NA,NA
7e639,"""Richtig""-Screen",canvas.Screen,3_0_1_0_0_1_1,NA,NA,skipped,NA,550324.9,NA,NA,550321.2,550325.1,2023-05-10T11:56:26Z,550333.145,NULL,Gefährdung,kuhatarisha,s,uchokozi,udhaifu,makorowezo,NA,sdfdsf,NA,1,NA,NA,NA,NA,NA,NA,NA,NA,NA,NA,NA,NA,NA,NA,NA,NA,NA,NA,NA
7e639,"""Falsch""-Screen",canvas.Screen,3_0_1_0_0_1_2,NA,NA,timeout,4999.7999999999,550325.7,550316.479,550333.145,555316.279,555320.9,2023-05-10T11:56:31Z,555332.945,NULL,Gefährdung,kuhatarisha,s,uchokozi,udhaifu,makorowezo,NA,sdfdsf,0,1,NA,NA,NA,NA,NA,NA,NA,NA,NA,NA,NA,NA,NA,NA,NA,NA,NA,NA,NA
7e639,shallow,flow.Sequence,3_0_1_0_0_1,NA,NA,completion,18418.416,536888.6,536881.197,536897.863,555316.279,555321.4,2023-05-10T11:56:31Z,555332.945,NULL,Gefährdung,kuhatarisha,s,uchokozi,udhaifu,makorowezo,NA,sdfdsf,NA,1,NA,NA,NA,NA,NA,NA,NA,NA,NA,NA,NA,NA,NA,NA,NA,NA,NA,NA,NA
7e639,task,flow.Sequence,3_0_1_0_0,NA,NA,completion,18418.416,536888.5,536881.197,536897.863,555316.279,555321.5,2023-05-10T11:56:31Z,555332.945,NULL,Gefährdung,kuhatarisha,s,uchokozi,udhaifu,makorowezo,NA,sdfdsf,NA,1,NA,NA,NA,NA,NA,NA,NA,NA,NA,NA,NA,NA,NA,NA,NA,NA,NA,NA,NA
7e639,Deep Question,html.Page,3_0_1_0_1_0_0,NA,NA,form submission,8102.5550000001,555321.8,555316.279,555332.945,563435.5,563436,2023-05-10T11:56:39Z,563449.889,NULL,Kreativität,ubunifu,d,NA,NA,NA,jfap,NA,NA,1,NA,NA,NA,NA,NA,NA,NA,NA,NA,NA,NA,NA,NA,NA,NA,NA,NA,NA,NA
7e639,"""Richtig""-Screen",canvas.Screen,3_0_1_0_1_0_1,NA,NA,skipped,NA,563439.5,NA,NA,563435.5,563439.8,2023-05-10T11:56:39Z,563449.889,NULL,Kreativität,ubunifu,d,NA,NA,NA,NA,sdfdsf,NA,1,NA,NA,NA,NA,NA,NA,NA,NA,NA,NA,NA,NA,NA,NA,NA,NA,NA,NA,NA
7e639,"""Falsch""-Screen",canvas.Screen,3_0_1_0_1_0_2,NA,NA,timeout,4999.8,563440.8,563433.223,563449.889,568433.023,568436.9,2023-05-10T11:56:44Z,568449.689,NULL,Kreativität,ubunifu,d,NA,NA,NA,NA,sdfdsf,0,1,NA,NA,NA,NA,NA,NA,NA,NA,NA,NA,NA,NA,NA,NA,NA,NA,NA,NA,NA
7e639,deep,flow.Sequence,3_0_1_0_1_0,NA,NA,completion,13100.078,555321.8,555316.279,555332.945,568433.023,568437.3,2023-05-10T11:56:44Z,568449.689,NULL,Kreativität,ubunifu,d,NA,NA,NA,NA,sdfdsf,NA,1,NA,NA,NA,NA,NA,NA,NA,NA,NA,NA,NA,NA,NA,NA,NA,NA,NA,NA,NA
7e639,shallow,flow.Sequence,3_0_1_0_1_1,NA,NA,skipped,NA,568437.4,NA,NA,568433.023,568437.5,2023-05-10T11:56:44Z,568449.689,NULL,Kreativität,ubunifu,d,NA,NA,NA,NA,sdfdsf,NA,1,NA,NA,NA,NA,NA,NA,NA,NA,NA,NA,NA,NA,NA,NA,NA,NA,NA,NA,NA
7e639,task,flow.Sequence,3_0_1_0_1,NA,NA,completion,13100.078,555321.6,555316.279,555332.945,568433.023,568437.7,2023-05-10T11:56:44Z,568449.689,NULL,Kreativität,ubunifu,d,NA,NA,NA,NA,sdfdsf,NA,1,NA,NA,NA,NA,NA,NA,NA,NA,NA,NA,NA,NA,NA,NA,NA,NA,NA,NA,NA
7e639,Deep Question,html.Page,3_0_1_0_2_0_0,NA,NA,form submission,32067.511000001,568438,568433.023,568449.689,600517.2,600517.7,2023-05-10T11:57:16Z,600516.908,NULL,Können,unaweza,d,NA,NA,NA,wakane,NA,NA,1,NA,NA,NA,NA,NA,NA,NA,NA,NA,NA,NA,NA,NA,NA,NA,NA,NA,NA,NA
7e639,"""Richtig""-Screen",canvas.Screen,3_0_1_0_2_0_1,NA,NA,skipped,NA,600520.7,NA,NA,600517.2,600520.8,2023-05-10T11:57:16Z,600516.908,NULL,Können,unaweza,d,NA,NA,NA,NA,sdfdsf,NA,1,NA,NA,NA,NA,NA,NA,NA,NA,NA,NA,NA,NA,NA,NA,NA,NA,NA,NA,NA
7e639,"""Falsch""-Screen",canvas.Screen,3_0_1_0_2_0_2,NA,NA,timeout,4999.7999999999,600521.4,600500.242,600516.908,605500.042,605505,2023-05-10T11:57:21Z,605516.708,NULL,Können,unaweza,d,NA,NA,NA,NA,sdfdsf,0,1,NA,NA,NA,NA,NA,NA,NA,NA,NA,NA,NA,NA,NA,NA,NA,NA,NA,NA,NA
7e639,deep,flow.Sequence,3_0_1_0_2_0,NA,NA,completion,37050.353,568437.9,568433.023,568449.689,605500.042,605505.4,2023-05-10T11:57:21Z,605516.708,NULL,Können,unaweza,d,NA,NA,NA,NA,sdfdsf,NA,1,NA,NA,NA,NA,NA,NA,NA,NA,NA,NA,NA,NA,NA,NA,NA,NA,NA,NA,NA
7e639,shallow,flow.Sequence,3_0_1_0_2_1,NA,NA,skipped,NA,605505.6,NA,NA,605500.042,605505.7,2023-05-10T11:57:21Z,605516.708,NULL,Können,unaweza,d,NA,NA,NA,NA,sdfdsf,NA,1,NA,NA,NA,NA,NA,NA,NA,NA,NA,NA,NA,NA,NA,NA,NA,NA,NA,NA,NA
7e639,task,flow.Sequence,3_0_1_0_2,NA,NA,completion,37050.353,568437.9,568433.023,568449.689,605500.042,605505.9,2023-05-10T11:57:21Z,605516.708,NULL,Können,unaweza,d,NA,NA,NA,NA,sdfdsf,NA,1,NA,NA,NA,NA,NA,NA,NA,NA,NA,NA,NA,NA,NA,NA,NA,NA,NA,NA,NA
7e639,deep,flow.Sequence,3_0_1_0_3_0,NA,NA,skipped,NA,605506,NA,NA,605500.042,605506.1,2023-05-10T11:57:21Z,605516.708,NULL,Kontrolle,kudhibiti,s,mbinguni,kufunga,utegemezi,NA,sdfdsf,NA,1,NA,NA,NA,NA,NA,NA,NA,NA,NA,NA,NA,NA,NA,NA,NA,NA,NA,NA,NA
7e639,Shallow Question,html.Page,3_0_1_0_3_1_0,NA,NA,form submission,18381.492000001,605506.3,605500.042,605516.708,623898.2,623898.8,2023-05-10T11:57:39Z,623900.665,NULL,Kontrolle,kudhibiti,s,mbinguni,kufunga,utegemezi,kudhibiti,NA,NA,1,NA,NA,NA,NA,NA,NA,NA,NA,NA,NA,NA,NA,NA,NA,NA,NA,NA,NA,NA
7e639,"""Richtig""-Screen",canvas.Screen,3_0_1_0_3_1_1,NA,NA,timeout,4999.7999999999,623901.6,623883.999,623900.665,628883.799,628887.2,2023-05-10T11:57:44Z,628900.465,NULL,Kontrolle,kudhibiti,s,mbinguni,kufunga,utegemezi,NA,sdfdsf,1,1,NA,NA,NA,NA,NA,NA,NA,NA,NA,NA,NA,NA,NA,NA,NA,NA,NA,NA,NA
7e639,"""Falsch""-Screen",canvas.Screen,3_0_1_0_3_1_2,NA,NA,skipped,NA,628890.5,NA,NA,628883.799,628890.6,2023-05-10T11:57:44Z,628900.465,NULL,Kontrolle,kudhibiti,s,mbinguni,kufunga,utegemezi,NA,sdfdsf,NA,1,NA,NA,NA,NA,NA,NA,NA,NA,NA,NA,NA,NA,NA,NA,NA,NA,NA,NA,NA
7e639,shallow,flow.Sequence,3_0_1_0_3_1,NA,NA,completion,23367.091,605506.2,605500.042,605516.708,628883.799,628890.8,2023-05-10T11:57:44Z,628900.465,NULL,Kontrolle,kudhibiti,s,mbinguni,kufunga,utegemezi,NA,sdfdsf,NA,1,NA,NA,NA,NA,NA,NA,NA,NA,NA,NA,NA,NA,NA,NA,NA,NA,NA,NA,NA
7e639,task,flow.Sequence,3_0_1_0_3,NA,NA,completion,23367.091,605505.9,605500.042,605516.708,628883.799,628890.9,2023-05-10T11:57:44Z,628900.465,NULL,Kontrolle,kudhibiti,s,mbinguni,kufunga,utegemezi,NA,sdfdsf,NA,1,NA,NA,NA,NA,NA,NA,NA,NA,NA,NA,NA,NA,NA,NA,NA,NA,NA,NA,NA
7e639,deep,flow.Sequence,3_0_1_0_4_0,NA,NA,skipped,NA,628891.1,NA,NA,628883.799,628891.1,2023-05-10T11:57:44Z,628900.465,NULL,Verstand,ufahamivu,s,shakawa,hadhari,mhandisi,NA,sdfdsf,NA,1,NA,NA,NA,NA,NA,NA,NA,NA,NA,NA,NA,NA,NA,NA,NA,NA,NA,NA,NA
7e639,Shallow Question,html.Page,3_0_1_0_4_1_0,NA,NA,form submission,9272.8350000008,628891.2,628883.799,628900.465,638173.3,638173.7,2023-05-10T11:57:53Z,638183.966,NULL,Verstand,ufahamivu,s,shakawa,hadhari,mhandisi,ufahamivu,NA,NA,1,NA,NA,NA,NA,NA,NA,NA,NA,NA,NA,NA,NA,NA,NA,NA,NA,NA,NA,NA
7e639,"""Richtig""-Screen",canvas.Screen,3_0_1_0_4_1_1,NA,NA,timeout,4999.7999999999,638175.8,638167.3,638183.966,643167.1,643172,2023-05-10T11:57:58Z,643183.766,NULL,Verstand,ufahamivu,s,shakawa,hadhari,mhandisi,NA,sdfdsf,1,1,NA,NA,NA,NA,NA,NA,NA,NA,NA,NA,NA,NA,NA,NA,NA,NA,NA,NA,NA
7e639,"""Falsch""-Screen",canvas.Screen,3_0_1_0_4_1_2,NA,NA,skipped,NA,643175.7,NA,NA,643167.1,643175.8,2023-05-10T11:57:58Z,643183.766,NULL,Verstand,ufahamivu,s,shakawa,hadhari,mhandisi,NA,sdfdsf,NA,1,NA,NA,NA,NA,NA,NA,NA,NA,NA,NA,NA,NA,NA,NA,NA,NA,NA,NA,NA
7e639,shallow,flow.Sequence,3_0_1_0_4_1,NA,NA,completion,14266.635,628891.2,628883.799,628900.465,643167.1,643175.9,2023-05-10T11:57:58Z,643183.766,NULL,Verstand,ufahamivu,s,shakawa,hadhari,mhandisi,NA,sdfdsf,NA,1,NA,NA,NA,NA,NA,NA,NA,NA,NA,NA,NA,NA,NA,NA,NA,NA,NA,NA,NA
7e639,task,flow.Sequence,3_0_1_0_4,NA,NA,completion,14266.635,628891,628883.799,628900.465,643167.1,643176,2023-05-10T11:57:58Z,643183.766,NULL,Verstand,ufahamivu,s,shakawa,hadhari,mhandisi,NA,sdfdsf,NA,1,NA,NA,NA,NA,NA,NA,NA,NA,NA,NA,NA,NA,NA,NA,NA,NA,NA,NA,NA
7e639,deep,flow.Sequence,3_0_1_0_5_0,NA,NA,skipped,NA,643176.1,NA,NA,643167.1,643176.1,2023-05-10T11:57:58Z,643183.766,NULL,Widerstand,usulubu,s,kusababisha,mwalimu,mwenendo,NA,sdfdsf,NA,1,NA,NA,NA,NA,NA,NA,NA,NA,NA,NA,NA,NA,NA,NA,NA,NA,NA,NA,NA
7e639,Shallow Question,html.Page,3_0_1_0_5_1_0,NA,NA,form submission,6611.1340000004,643176.3,643167.1,643183.766,649794.9,649795.3,2023-05-10T11:58:05Z,649800.919,NULL,Widerstand,usulubu,s,kusababisha,mwalimu,mwenendo,usulubu,NA,NA,1,NA,NA,NA,NA,NA,NA,NA,NA,NA,NA,NA,NA,NA,NA,NA,NA,NA,NA,NA
7e639,"""Richtig""-Screen",canvas.Screen,3_0_1_0_5_1_1,NA,NA,timeout,4999.8,649797.6,649784.253,649800.919,654784.053,654786.6,2023-05-10T11:58:10Z,654800.719,NULL,Widerstand,usulubu,s,kusababisha,mwalimu,mwenendo,NA,sdfdsf,1,1,NA,NA,NA,NA,NA,NA,NA,NA,NA,NA,NA,NA,NA,NA,NA,NA,NA,NA,NA
7e639,"""Falsch""-Screen",canvas.Screen,3_0_1_0_5_1_2,NA,NA,skipped,NA,654790.5,NA,NA,654784.053,654790.7,2023-05-10T11:58:10Z,654800.719,NULL,Widerstand,usulubu,s,kusababisha,mwalimu,mwenendo,NA,sdfdsf,NA,1,NA,NA,NA,NA,NA,NA,NA,NA,NA,NA,NA,NA,NA,NA,NA,NA,NA,NA,NA
7e639,shallow,flow.Sequence,3_0_1_0_5_1,NA,NA,completion,11600.287,643176.2,643167.1,643183.766,654784.053,654790.8,2023-05-10T11:58:10Z,654800.719,NULL,Widerstand,usulubu,s,kusababisha,mwalimu,mwenendo,NA,sdfdsf,NA,1,NA,NA,NA,NA,NA,NA,NA,NA,NA,NA,NA,NA,NA,NA,NA,NA,NA,NA,NA
7e639,task,flow.Sequence,3_0_1_0_5,NA,NA,completion,11600.287,643176,643167.1,643183.766,654784.053,654790.9,2023-05-10T11:58:10Z,654800.719,NULL,Widerstand,usulubu,s,kusababisha,mwalimu,mwenendo,NA,sdfdsf,NA,1,NA,NA,NA,NA,NA,NA,NA,NA,NA,NA,NA,NA,NA,NA,NA,NA,NA,NA,NA
7e639,Deep Question,html.Page,3_0_1_0_6_0_0,NA,NA,form submission,7204.1810000003,654791,654784.053,654800.719,662004.9,662005.5,2023-05-10T11:58:17Z,662017.706,NULL,Gelegenheit,wakati,d,NA,NA,NA,wakane,NA,NA,1,NA,NA,NA,NA,NA,NA,NA,NA,NA,NA,NA,NA,NA,NA,NA,NA,NA,NA,NA
7e639,"""Richtig""-Screen",canvas.Screen,3_0_1_0_6_0_1,NA,NA,skipped,NA,662009,NA,NA,662004.9,662009.1,2023-05-10T11:58:17Z,662017.706,NULL,Gelegenheit,wakati,d,NA,NA,NA,NA,sdfdsf,NA,1,NA,NA,NA,NA,NA,NA,NA,NA,NA,NA,NA,NA,NA,NA,NA,NA,NA,NA,NA
7e639,"""Falsch""-Screen",canvas.Screen,3_0_1_0_6_0_2,NA,NA,timeout,4999.8,662009.9,662001.04,662017.706,667000.84,667006.1,2023-05-10T11:58:22Z,667017.506,NULL,Gelegenheit,wakati,d,NA,NA,NA,NA,sdfdsf,0,1,NA,NA,NA,NA,NA,NA,NA,NA,NA,NA,NA,NA,NA,NA,NA,NA,NA,NA,NA
7e639,deep,flow.Sequence,3_0_1_0_6_0,NA,NA,completion,12200.121,654791,654784.053,654800.719,667000.84,667006.5,2023-05-10T11:58:22Z,667017.506,NULL,Gelegenheit,wakati,d,NA,NA,NA,NA,sdfdsf,NA,1,NA,NA,NA,NA,NA,NA,NA,NA,NA,NA,NA,NA,NA,NA,NA,NA,NA,NA,NA
7e639,shallow,flow.Sequence,3_0_1_0_6_1,NA,NA,skipped,NA,667006.6,NA,NA,667000.84,667006.8,2023-05-10T11:58:22Z,667017.506,NULL,Gelegenheit,wakati,d,NA,NA,NA,NA,sdfdsf,NA,1,NA,NA,NA,NA,NA,NA,NA,NA,NA,NA,NA,NA,NA,NA,NA,NA,NA,NA,NA
7e639,task,flow.Sequence,3_0_1_0_6,NA,NA,completion,12200.121,654790.9,654784.053,654800.719,667000.84,667006.9,2023-05-10T11:58:22Z,667017.506,NULL,Gelegenheit,wakati,d,NA,NA,NA,NA,sdfdsf,NA,1,NA,NA,NA,NA,NA,NA,NA,NA,NA,NA,NA,NA,NA,NA,NA,NA,NA,NA,NA
7e639,Deep Question,html.Page,3_0_1_0_7_0_0,NA,NA,form submission,6277.5940000014,667007.2,667000.84,667017.506,673295.1,673295.6,2023-05-10T11:58:29Z,673301.242,NULL,Ausschluss,kutengwa,d,NA,NA,NA,ajpf,NA,NA,1,NA,NA,NA,NA,NA,NA,NA,NA,NA,NA,NA,NA,NA,NA,NA,NA,NA,NA,NA
7e639,"""Richtig""-Screen",canvas.Screen,3_0_1_0_7_0_1,NA,NA,skipped,NA,673298.5,NA,NA,673295.1,673298.6,2023-05-10T11:58:29Z,673301.242,NULL,Ausschluss,kutengwa,d,NA,NA,NA,NA,sdfdsf,NA,1,NA,NA,NA,NA,NA,NA,NA,NA,NA,NA,NA,NA,NA,NA,NA,NA,NA,NA,NA
7e639,"""Falsch""-Screen",canvas.Screen,3_0_1_0_7_0_2,NA,NA,timeout,4999.8,673299.1,673284.576,673301.242,678284.376,678288.5,2023-05-10T11:58:34Z,678301.042,NULL,Ausschluss,kutengwa,d,NA,NA,NA,NA,sdfdsf,0,1,NA,NA,NA,NA,NA,NA,NA,NA,NA,NA,NA,NA,NA,NA,NA,NA,NA,NA,NA
7e639,deep,flow.Sequence,3_0_1_0_7_0,NA,NA,completion,11266.87,667007.1,667000.84,667017.506,678284.376,678288.9,2023-05-10T11:58:34Z,678301.042,NULL,Ausschluss,kutengwa,d,NA,NA,NA,NA,sdfdsf,NA,1,NA,NA,NA,NA,NA,NA,NA,NA,NA,NA,NA,NA,NA,NA,NA,NA,NA,NA,NA
7e639,shallow,flow.Sequence,3_0_1_0_7_1,NA,NA,skipped,NA,678289.1,NA,NA,678284.376,678289.2,2023-05-10T11:58:34Z,678301.042,NULL,Ausschluss,kutengwa,d,NA,NA,NA,NA,sdfdsf,NA,1,NA,NA,NA,NA,NA,NA,NA,NA,NA,NA,NA,NA,NA,NA,NA,NA,NA,NA,NA
7e639,task,flow.Sequence,3_0_1_0_7,NA,NA,completion,11266.87,667007.1,667000.84,667017.506,678284.376,678289.3,2023-05-10T11:58:34Z,678301.042,NULL,Ausschluss,kutengwa,d,NA,NA,NA,NA,sdfdsf,NA,1,NA,NA,NA,NA,NA,NA,NA,NA,NA,NA,NA,NA,NA,NA,NA,NA,NA,NA,NA
7e639,block,flow.Loop,3_0_1_0,NA,NA,completion,141386.513,536888.4,536881.197,536897.863,678284.376,678289.6,2023-05-10T11:58:34Z,678301.042,NULL,NA,NA,NA,NA,NA,NA,NA,sdfdsf,NA,1,NA,NA,NA,NA,NA,NA,NA,NA,NA,NA,NA,NA,NA,NA,NA,NA,NA,NA,NA
7e639,weiter,canvas.Screen,3_0_1_1,sdf,keypress(Space),response,4673.3580000004,678289.7,678284.376,678301.042,682974.4,682980.1,2023-05-10T11:58:38Z,683018.1,NULL,NA,NA,NA,NA,NA,NA,NA,sdfdsf,NA,1,NA,NA,NA,NA,NA,NA,NA,NA,NA,NA,NA,NA,NA,NA,NA,NA,NA,NA,NA
7e639,check continue,flow.Sequence,3_0_1,NA,NA,completion,146076.537,536888.4,536881.197,536897.863,682974.4,682980.4,2023-05-10T11:58:38Z,683018.1,NULL,NA,NA,NA,NA,NA,NA,NA,sdfdsf,NA,1,NA,NA,NA,NA,NA,NA,NA,NA,NA,NA,NA,NA,NA,NA,NA,NA,NA,NA,NA
7e639,Deep Question,html.Page,3_0_2_0_0_0_0,NA,NA,form submission,7120.5000000015,683004.5,683001.434,683018.1,690138.6,690139.1,2023-05-10T11:58:45Z,690151.638,NULL,Ausschluss,kutengwa,d,NA,NA,NA,kutengwa,NA,NA,2,NA,NA,NA,NA,NA,NA,NA,NA,NA,NA,NA,NA,NA,NA,NA,NA,NA,NA,NA
7e639,"""Richtig""-Screen",canvas.Screen,3_0_2_0_0_0_1,NA,NA,timeout,4999.7999999999,690141.6,690134.972,690151.638,695134.772,695138.9,2023-05-10T11:58:50Z,695151.438,NULL,Ausschluss,kutengwa,d,NA,NA,NA,NA,sdf,1,2,NA,NA,NA,NA,NA,NA,NA,NA,NA,NA,NA,NA,NA,NA,NA,NA,NA,NA,NA
7e639,"""Falsch""-Screen",canvas.Screen,3_0_2_0_0_0_2,NA,NA,skipped,NA,695143,NA,NA,695134.772,695143.3,2023-05-10T11:58:50Z,695151.438,NULL,Ausschluss,kutengwa,d,NA,NA,NA,NA,sdf,NA,2,NA,NA,NA,NA,NA,NA,NA,NA,NA,NA,NA,NA,NA,NA,NA,NA,NA,NA,NA
7e639,deep,flow.Sequence,3_0_2_0_0_0,NA,NA,completion,12116.672,683004.5,683001.434,683018.1,695134.772,695143.4,2023-05-10T11:58:50Z,695151.438,NULL,Ausschluss,kutengwa,d,NA,NA,NA,NA,sdf,NA,2,NA,NA,NA,NA,NA,NA,NA,NA,NA,NA,NA,NA,NA,NA,NA,NA,NA,NA,NA
7e639,shallow,flow.Sequence,3_0_2_0_0_1,NA,NA,skipped,NA,695143.5,NA,NA,695134.772,695143.5,2023-05-10T11:58:50Z,695151.438,NULL,Ausschluss,kutengwa,d,NA,NA,NA,NA,sdf,NA,2,NA,NA,NA,NA,NA,NA,NA,NA,NA,NA,NA,NA,NA,NA,NA,NA,NA,NA,NA
7e639,task,flow.Sequence,3_0_2_0_0,NA,NA,completion,12116.672,683004.4,683001.434,683018.1,695134.772,695143.7,2023-05-10T11:58:50Z,695151.438,NULL,Ausschluss,kutengwa,d,NA,NA,NA,NA,sdf,NA,2,NA,NA,NA,NA,NA,NA,NA,NA,NA,NA,NA,NA,NA,NA,NA,NA,NA,NA,NA
7e639,Deep Question,html.Page,3_0_2_0_1_0_0,NA,NA,form submission,9761.3620000008,695143.8,695134.772,695151.438,704912.8,704913.3,2023-05-10T11:59:00Z,704917.714,NULL,Gelegenheit,wakati,d,NA,NA,NA,wakati,NA,NA,2,NA,NA,NA,NA,NA,NA,NA,NA,NA,NA,NA,NA,NA,NA,NA,NA,NA,NA,NA
7e639,"""Richtig""-Screen",canvas.Screen,3_0_2_0_1_0_1,NA,NA,timeout,4999.7999999999,704915.9,704901.048,704917.714,709900.848,709906,2023-05-10T11:59:05Z,709917.514,NULL,Gelegenheit,wakati,d,NA,NA,NA,NA,sdf,1,2,NA,NA,NA,NA,NA,NA,NA,NA,NA,NA,NA,NA,NA,NA,NA,NA,NA,NA,NA
7e639,"""Falsch""-Screen",canvas.Screen,3_0_2_0_1_0_2,NA,NA,skipped,NA,709910.4,NA,NA,709900.848,709910.6,2023-05-10T11:59:05Z,709917.514,NULL,Gelegenheit,wakati,d,NA,NA,NA,NA,sdf,NA,2,NA,NA,NA,NA,NA,NA,NA,NA,NA,NA,NA,NA,NA,NA,NA,NA,NA,NA,NA
7e639,deep,flow.Sequence,3_0_2_0_1_0,NA,NA,completion,14749.41,695143.7,695134.772,695151.438,709900.848,709910.8,2023-05-10T11:59:05Z,709917.514,NULL,Gelegenheit,wakati,d,NA,NA,NA,NA,sdf,NA,2,NA,NA,NA,NA,NA,NA,NA,NA,NA,NA,NA,NA,NA,NA,NA,NA,NA,NA,NA
7e639,shallow,flow.Sequence,3_0_2_0_1_1,NA,NA,skipped,NA,709910.9,NA,NA,709900.848,709911,2023-05-10T11:59:05Z,709917.514,NULL,Gelegenheit,wakati,d,NA,NA,NA,NA,sdf,NA,2,NA,NA,NA,NA,NA,NA,NA,NA,NA,NA,NA,NA,NA,NA,NA,NA,NA,NA,NA
7e639,task,flow.Sequence,3_0_2_0_1,NA,NA,completion,14749.41,695143.7,695134.772,695151.438,709900.848,709911.2,2023-05-10T11:59:05Z,709917.514,NULL,Gelegenheit,wakati,d,NA,NA,NA,NA,sdf,NA,2,NA,NA,NA,NA,NA,NA,NA,NA,NA,NA,NA,NA,NA,NA,NA,NA,NA,NA,NA
7e639,deep,flow.Sequence,3_0_2_0_2_0,NA,NA,skipped,NA,709911.2,NA,NA,709900.848,709911.2,2023-05-10T11:59:05Z,709917.514,NULL,Kontrolle,kudhibiti,s,mbinguni,kufunga,utegemezi,NA,sdf,NA,2,NA,NA,NA,NA,NA,NA,NA,NA,NA,NA,NA,NA,NA,NA,NA,NA,NA,NA,NA
7e639,Shallow Question,html.Page,3_0_2_0_2_1_0,NA,NA,form submission,8533.5860000015,709911.3,709900.848,709917.514,718451.1,718451.6,2023-05-10T11:59:14Z,718451.676,NULL,Kontrolle,kudhibiti,s,mbinguni,kufunga,utegemezi,kudhibiti,NA,NA,2,NA,NA,NA,NA,NA,NA,NA,NA,NA,NA,NA,NA,NA,NA,NA,NA,NA,NA,NA
7e639,"""Richtig""-Screen",canvas.Screen,3_0_2_0_2_1_1,NA,NA,timeout,4999.8,718454.5,718435.01,718451.676,723434.81,723439.5,2023-05-10T11:59:19Z,723451.476,NULL,Kontrolle,kudhibiti,s,mbinguni,kufunga,utegemezi,NA,sdf,1,2,NA,NA,NA,NA,NA,NA,NA,NA,NA,NA,NA,NA,NA,NA,NA,NA,NA,NA,NA
7e639,"""Falsch""-Screen",canvas.Screen,3_0_2_0_2_1_2,NA,NA,skipped,NA,723443.5,NA,NA,723434.81,723443.6,2023-05-10T11:59:19Z,723451.476,NULL,Kontrolle,kudhibiti,s,mbinguni,kufunga,utegemezi,NA,sdf,NA,2,NA,NA,NA,NA,NA,NA,NA,NA,NA,NA,NA,NA,NA,NA,NA,NA,NA,NA,NA
7e639,shallow,flow.Sequence,3_0_2_0_2_1,NA,NA,completion,13517.296,709911.3,709900.848,709917.514,723434.81,723443.7,2023-05-10T11:59:19Z,723451.476,NULL,Kontrolle,kudhibiti,s,mbinguni,kufunga,utegemezi,NA,sdf,NA,2,NA,NA,NA,NA,NA,NA,NA,NA,NA,NA,NA,NA,NA,NA,NA,NA,NA,NA,NA
7e639,task,flow.Sequence,3_0_2_0_2,NA,NA,completion,13517.296,709911.2,709900.848,709917.514,723434.81,723443.9,2023-05-10T11:59:19Z,723451.476,NULL,Kontrolle,kudhibiti,s,mbinguni,kufunga,utegemezi,NA,sdf,NA,2,NA,NA,NA,NA,NA,NA,NA,NA,NA,NA,NA,NA,NA,NA,NA,NA,NA,NA,NA
7e639,deep,flow.Sequence,3_0_2_0_3_0,NA,NA,skipped,NA,723444,NA,NA,723434.81,723444,2023-05-10T11:59:19Z,723451.476,NULL,Gefährdung,kuhatarisha,s,uchokozi,udhaifu,makorowezo,NA,sdf,NA,2,NA,NA,NA,NA,NA,NA,NA,NA,NA,NA,NA,NA,NA,NA,NA,NA,NA,NA,NA
7e639,Shallow Question,html.Page,3_0_2_0_3_1_0,NA,NA,form submission,5545.7240000011,723444.1,723434.81,723451.476,728997.2,728997.7,2023-05-10T11:59:24Z,729001.964,NULL,Gefährdung,kuhatarisha,s,uchokozi,udhaifu,makorowezo,kuhatarisha,NA,NA,2,NA,NA,NA,NA,NA,NA,NA,NA,NA,NA,NA,NA,NA,NA,NA,NA,NA,NA,NA
7e639,"""Richtig""-Screen",canvas.Screen,3_0_2_0_3_1_1,NA,NA,timeout,4999.7999999999,728999.9,728985.298,729001.964,733985.098,733990.5,2023-05-10T11:59:29Z,734001.764,NULL,Gefährdung,kuhatarisha,s,uchokozi,udhaifu,makorowezo,NA,sdf,1,2,NA,NA,NA,NA,NA,NA,NA,NA,NA,NA,NA,NA,NA,NA,NA,NA,NA,NA,NA
7e639,"""Falsch""-Screen",canvas.Screen,3_0_2_0_3_1_2,NA,NA,skipped,NA,733995,NA,NA,733985.098,733995.1,2023-05-10T11:59:29Z,734001.764,NULL,Gefährdung,kuhatarisha,s,uchokozi,udhaifu,makorowezo,NA,sdf,NA,2,NA,NA,NA,NA,NA,NA,NA,NA,NA,NA,NA,NA,NA,NA,NA,NA,NA,NA,NA
7e639,shallow,flow.Sequence,3_0_2_0_3_1,NA,NA,completion,10533.622,723444.1,723434.81,723451.476,733985.098,733995.3,2023-05-10T11:59:29Z,734001.764,NULL,Gefährdung,kuhatarisha,s,uchokozi,udhaifu,makorowezo,NA,sdf,NA,2,NA,NA,NA,NA,NA,NA,NA,NA,NA,NA,NA,NA,NA,NA,NA,NA,NA,NA,NA
7e639,task,flow.Sequence,3_0_2_0_3,NA,NA,completion,10533.622,723443.9,723434.81,723451.476,733985.098,733995.6,2023-05-10T11:59:29Z,734001.764,NULL,Gefährdung,kuhatarisha,s,uchokozi,udhaifu,makorowezo,NA,sdf,NA,2,NA,NA,NA,NA,NA,NA,NA,NA,NA,NA,NA,NA,NA,NA,NA,NA,NA,NA,NA
7e639,deep,flow.Sequence,3_0_2_0_4_0,NA,NA,skipped,NA,733995.8,NA,NA,733985.098,733995.9,2023-05-10T11:59:29Z,734001.764,NULL,Widerstand,usulubu,s,kusababisha,mwalimu,mwenendo,NA,sdf,NA,2,NA,NA,NA,NA,NA,NA,NA,NA,NA,NA,NA,NA,NA,NA,NA,NA,NA,NA,NA
7e639,Shallow Question,html.Page,3_0_2_0_4_1_0,NA,NA,form submission,6231.6360000004,733996,733985.098,734001.764,740233.4,740233.8,2023-05-10T11:59:36Z,740235.349,NULL,Widerstand,usulubu,s,kusababisha,mwalimu,mwenendo,usulubu,NA,NA,2,NA,NA,NA,NA,NA,NA,NA,NA,NA,NA,NA,NA,NA,NA,NA,NA,NA,NA,NA
7e639,"""Richtig""-Screen",canvas.Screen,3_0_2_0_4_1_1,NA,NA,timeout,4999.7999999999,740235.9,740218.683,740235.349,745218.483,745223.8,2023-05-10T11:59:41Z,745235.149,NULL,Widerstand,usulubu,s,kusababisha,mwalimu,mwenendo,NA,sdf,1,2,NA,NA,NA,NA,NA,NA,NA,NA,NA,NA,NA,NA,NA,NA,NA,NA,NA,NA,NA
7e639,"""Falsch""-Screen",canvas.Screen,3_0_2_0_4_1_2,NA,NA,skipped,NA,745228.2,NA,NA,745218.483,745228.3,2023-05-10T11:59:41Z,745235.149,NULL,Widerstand,usulubu,s,kusababisha,mwalimu,mwenendo,NA,sdf,NA,2,NA,NA,NA,NA,NA,NA,NA,NA,NA,NA,NA,NA,NA,NA,NA,NA,NA,NA,NA
7e639,shallow,flow.Sequence,3_0_2_0_4_1,NA,NA,completion,11216.719,733996,733985.098,734001.764,745218.483,745228.6,2023-05-10T11:59:41Z,745235.149,NULL,Widerstand,usulubu,s,kusababisha,mwalimu,mwenendo,NA,sdf,NA,2,NA,NA,NA,NA,NA,NA,NA,NA,NA,NA,NA,NA,NA,NA,NA,NA,NA,NA,NA
7e639,task,flow.Sequence,3_0_2_0_4,NA,NA,completion,11216.719,733995.7,733985.098,734001.764,745218.483,745228.7,2023-05-10T11:59:41Z,745235.149,NULL,Widerstand,usulubu,s,kusababisha,mwalimu,mwenendo,NA,sdf,NA,2,NA,NA,NA,NA,NA,NA,NA,NA,NA,NA,NA,NA,NA,NA,NA,NA,NA,NA,NA
7e639,Deep Question,html.Page,3_0_2_0_5_0_0,NA,NA,form submission,24576.351,745228.9,745218.483,745235.149,769811.5,769812,2023-05-10T12:00:05Z,769819.188,NULL,Kreativität,ubunifu,d,NA,NA,NA,ubufini,NA,NA,2,NA,NA,NA,NA,NA,NA,NA,NA,NA,NA,NA,NA,NA,NA,NA,NA,NA,NA,NA
7e639,"""Richtig""-Screen",canvas.Screen,3_0_2_0_5_0_1,NA,NA,skipped,NA,769815,NA,NA,769811.5,769815,2023-05-10T12:00:05Z,769819.188,NULL,Kreativität,ubunifu,d,NA,NA,NA,NA,sdf,NA,2,NA,NA,NA,NA,NA,NA,NA,NA,NA,NA,NA,NA,NA,NA,NA,NA,NA,NA,NA
7e639,"""Falsch""-Screen",canvas.Screen,3_0_2_0_5_0_2,NA,NA,timeout,4999.8,769815.6,769802.522,769819.188,774802.322,774807.2,2023-05-10T12:00:10Z,774818.988,NULL,Kreativität,ubunifu,d,NA,NA,NA,NA,sdf,0,2,NA,NA,NA,NA,NA,NA,NA,NA,NA,NA,NA,NA,NA,NA,NA,NA,NA,NA,NA
7e639,deep,flow.Sequence,3_0_2_0_5_0,NA,NA,completion,29567.173,745228.9,745218.483,745235.149,774802.322,774807.7,2023-05-10T12:00:10Z,774818.988,NULL,Kreativität,ubunifu,d,NA,NA,NA,NA,sdf,NA,2,NA,NA,NA,NA,NA,NA,NA,NA,NA,NA,NA,NA,NA,NA,NA,NA,NA,NA,NA
7e639,shallow,flow.Sequence,3_0_2_0_5_1,NA,NA,skipped,NA,774807.7,NA,NA,774802.322,774807.9,2023-05-10T12:00:10Z,774818.988,NULL,Kreativität,ubunifu,d,NA,NA,NA,NA,sdf,NA,2,NA,NA,NA,NA,NA,NA,NA,NA,NA,NA,NA,NA,NA,NA,NA,NA,NA,NA,NA
7e639,task,flow.Sequence,3_0_2_0_5,NA,NA,completion,29567.173,745228.8,745218.483,745235.149,774802.322,774808,2023-05-10T12:00:10Z,774818.988,NULL,Kreativität,ubunifu,d,NA,NA,NA,NA,sdf,NA,2,NA,NA,NA,NA,NA,NA,NA,NA,NA,NA,NA,NA,NA,NA,NA,NA,NA,NA,NA
7e639,Deep Question,html.Page,3_0_2_0_6_0_0,NA,NA,form submission,8382.9120000004,774808.3,774802.322,774818.988,783201.9,783202.5,2023-05-10T12:00:19Z,783202.62,NULL,Können,unaweza,d,NA,NA,NA,unaweza,NA,NA,2,NA,NA,NA,NA,NA,NA,NA,NA,NA,NA,NA,NA,NA,NA,NA,NA,NA,NA,NA
7e639,"""Richtig""-Screen",canvas.Screen,3_0_2_0_6_0_1,NA,NA,timeout,4999.8,783206,783185.954,783202.62,788185.754,788188.7,2023-05-10T12:00:23Z,788202.42,NULL,Können,unaweza,d,NA,NA,NA,NA,sdf,1,2,NA,NA,NA,NA,NA,NA,NA,NA,NA,NA,NA,NA,NA,NA,NA,NA,NA,NA,NA
7e639,"""Falsch""-Screen",canvas.Screen,3_0_2_0_6_0_2,NA,NA,skipped,NA,788192.2,NA,NA,788185.754,788192.4,2023-05-10T12:00:23Z,788202.42,NULL,Können,unaweza,d,NA,NA,NA,NA,sdf,NA,2,NA,NA,NA,NA,NA,NA,NA,NA,NA,NA,NA,NA,NA,NA,NA,NA,NA,NA,NA
7e639,deep,flow.Sequence,3_0_2_0_6_0,NA,NA,completion,13366.766,774808.3,774802.322,774818.988,788185.754,788192.5,2023-05-10T12:00:23Z,788202.42,NULL,Können,unaweza,d,NA,NA,NA,NA,sdf,NA,2,NA,NA,NA,NA,NA,NA,NA,NA,NA,NA,NA,NA,NA,NA,NA,NA,NA,NA,NA
7e639,shallow,flow.Sequence,3_0_2_0_6_1,NA,NA,skipped,NA,788192.7,NA,NA,788185.754,788192.7,2023-05-10T12:00:23Z,788202.42,NULL,Können,unaweza,d,NA,NA,NA,NA,sdf,NA,2,NA,NA,NA,NA,NA,NA,NA,NA,NA,NA,NA,NA,NA,NA,NA,NA,NA,NA,NA
7e639,task,flow.Sequence,3_0_2_0_6,NA,NA,completion,13366.766,774808.1,774802.322,774818.988,788185.754,788192.8,2023-05-10T12:00:23Z,788202.42,NULL,Können,unaweza,d,NA,NA,NA,NA,sdf,NA,2,NA,NA,NA,NA,NA,NA,NA,NA,NA,NA,NA,NA,NA,NA,NA,NA,NA,NA,NA
7e639,deep,flow.Sequence,3_0_2_0_7_0,NA,NA,skipped,NA,788192.9,NA,NA,788185.754,788192.9,2023-05-10T12:00:23Z,788202.42,NULL,Verstand,ufahamivu,s,shakawa,hadhari,mhandisi,NA,sdf,NA,2,NA,NA,NA,NA,NA,NA,NA,NA,NA,NA,NA,NA,NA,NA,NA,NA,NA,NA,NA
7e639,Shallow Question,html.Page,3_0_2_0_7_1_0,NA,NA,form submission,6852.4800000003,788193,788185.754,788202.42,795054.9,795055.4,2023-05-10T12:00:30Z,795069.387,NULL,Verstand,ufahamivu,s,shakawa,hadhari,mhandisi,ufahamivu,NA,NA,2,NA,NA,NA,NA,NA,NA,NA,NA,NA,NA,NA,NA,NA,NA,NA,NA,NA,NA,NA
7e639,"""Richtig""-Screen",canvas.Screen,3_0_2_0_7_1_1,NA,NA,timeout,4999.8,795058.9,795052.721,795069.387,800052.521,800057.4,2023-05-10T12:00:35Z,800069.187,NULL,Verstand,ufahamivu,s,shakawa,hadhari,mhandisi,NA,sdf,1,2,NA,NA,NA,NA,NA,NA,NA,NA,NA,NA,NA,NA,NA,NA,NA,NA,NA,NA,NA
7e639,"""Falsch""-Screen",canvas.Screen,3_0_2_0_7_1_2,NA,NA,skipped,NA,800060.9,NA,NA,800052.521,800061,2023-05-10T12:00:35Z,800069.187,NULL,Verstand,ufahamivu,s,shakawa,hadhari,mhandisi,NA,sdf,NA,2,NA,NA,NA,NA,NA,NA,NA,NA,NA,NA,NA,NA,NA,NA,NA,NA,NA,NA,NA
7e639,shallow,flow.Sequence,3_0_2_0_7_1,NA,NA,completion,11850.101,788193,788185.754,788202.42,800052.521,800061.2,2023-05-10T12:00:35Z,800069.187,NULL,Verstand,ufahamivu,s,shakawa,hadhari,mhandisi,NA,sdf,NA,2,NA,NA,NA,NA,NA,NA,NA,NA,NA,NA,NA,NA,NA,NA,NA,NA,NA,NA,NA
7e639,task,flow.Sequence,3_0_2_0_7,NA,NA,completion,11850.101,788192.8,788185.754,788202.42,800052.521,800061.2,2023-05-10T12:00:35Z,800069.187,NULL,Verstand,ufahamivu,s,shakawa,hadhari,mhandisi,NA,sdf,NA,2,NA,NA,NA,NA,NA,NA,NA,NA,NA,NA,NA,NA,NA,NA,NA,NA,NA,NA,NA
7e639,block,flow.Loop,3_0_2_0,NA,NA,completion,117034.421,683004.4,683001.434,683018.1,800052.521,800061.4,2023-05-10T12:00:35Z,800069.187,NULL,NA,NA,NA,NA,NA,NA,NA,sdf,NA,2,NA,NA,NA,NA,NA,NA,NA,NA,NA,NA,NA,NA,NA,NA,NA,NA,NA,NA,NA
7e639,weiter,canvas.Screen,3_0_2_1,sdf,keypress(Space),response,9551.2130000003,800061.5,800052.521,800069.187,809620.4,809624.9,2023-05-10T12:00:45Z,809852.753,NULL,NA,NA,NA,NA,NA,NA,NA,sdf,NA,2,NA,NA,NA,NA,NA,NA,NA,NA,NA,NA,NA,NA,NA,NA,NA,NA,NA,NA,NA
7e639,check continue,flow.Sequence,3_0_2,NA,NA,completion,126602.3,683004.4,683001.434,683018.1,809620.4,809625.1,2023-05-10T12:00:45Z,809852.753,NULL,NA,NA,NA,NA,NA,NA,NA,sdf,NA,2,NA,NA,NA,NA,NA,NA,NA,NA,NA,NA,NA,NA,NA,NA,NA,NA,NA,NA,NA
7e639,check continue,flow.Sequence,3_0_3,NA,NA,skipped,NA,809652.2,NA,NA,809620.4,809652.3,2023-05-10T12:00:45Z,809852.753,NULL,NA,NA,NA,NA,NA,NA,NA,qt,NA,3,NA,NA,NA,NA,NA,NA,NA,NA,NA,NA,NA,NA,NA,NA,NA,NA,NA,NA,NA
7e639,check continue,flow.Sequence,3_0_4,NA,NA,skipped,NA,809665.5,NA,NA,809620.4,809665.7,2023-05-10T12:00:45Z,809852.753,NULL,NA,NA,NA,NA,NA,NA,NA,sd,NA,4,NA,NA,NA,NA,NA,NA,NA,NA,NA,NA,NA,NA,NA,NA,NA,NA,NA,NA,NA
7e639,check continue,flow.Sequence,3_0_5,NA,NA,skipped,NA,809676.7,NA,NA,809620.4,809676.8,2023-05-10T12:00:45Z,809852.753,NULL,NA,NA,NA,NA,NA,NA,NA,sdf,NA,5,NA,NA,NA,NA,NA,NA,NA,NA,NA,NA,NA,NA,NA,NA,NA,NA,NA,NA,NA
7e639,check continue,flow.Sequence,3_0_6,NA,NA,skipped,NA,809686.2,NA,NA,809620.4,809686.2,2023-05-10T12:00:45Z,809852.753,NULL,NA,NA,NA,NA,NA,NA,NA,dfs,NA,6,NA,NA,NA,NA,NA,NA,NA,NA,NA,NA,NA,NA,NA,NA,NA,NA,NA,NA,NA
7e639,check continue,flow.Sequence,3_0_7,NA,NA,skipped,NA,809694.3,NA,NA,809620.4,809694.4,2023-05-10T12:00:45Z,809852.753,NULL,NA,NA,NA,NA,NA,NA,NA,df,NA,7,NA,NA,NA,NA,NA,NA,NA,NA,NA,NA,NA,NA,NA,NA,NA,NA,NA,NA,NA
7e639,check continue,flow.Sequence,3_0_8,NA,NA,skipped,NA,809702,NA,NA,809620.4,809702.1,2023-05-10T12:00:45Z,809852.753,NULL,NA,NA,NA,NA,NA,NA,NA,dfs,NA,8,NA,NA,NA,NA,NA,NA,NA,NA,NA,NA,NA,NA,NA,NA,NA,NA,NA,NA,NA
7e639,check continue,flow.Sequence,3_0_9,NA,NA,skipped,NA,809709.5,NA,NA,809620.4,809709.6,2023-05-10T12:00:45Z,809852.753,NULL,NA,NA,NA,NA,NA,NA,NA,dsf,NA,9,NA,NA,NA,NA,NA,NA,NA,NA,NA,NA,NA,NA,NA,NA,NA,NA,NA,NA,NA
7e639,check continue,flow.Sequence,3_0_10,NA,NA,skipped,NA,809716.7,NA,NA,809620.4,809716.7,2023-05-10T12:00:45Z,809852.753,NULL,NA,NA,NA,NA,NA,NA,NA,df,NA,10,NA,NA,NA,NA,NA,NA,NA,NA,NA,NA,NA,NA,NA,NA,NA,NA,NA,NA,NA
7e639,check continue,flow.Sequence,3_0_11,NA,NA,skipped,NA,809723,NA,NA,809620.4,809723,2023-05-10T12:00:45Z,809852.753,NULL,NA,NA,NA,NA,NA,NA,NA,dfs,NA,11,NA,NA,NA,NA,NA,NA,NA,NA,NA,NA,NA,NA,NA,NA,NA,NA,NA,NA,NA
7e639,check continue,flow.Sequence,3_0_12,NA,NA,skipped,NA,809729.1,NA,NA,809620.4,809729.1,2023-05-10T12:00:45Z,809852.753,NULL,NA,NA,NA,NA,NA,NA,NA,dsf,NA,12,NA,NA,NA,NA,NA,NA,NA,NA,NA,NA,NA,NA,NA,NA,NA,NA,NA,NA,NA
7e639,check continue,flow.Sequence,3_0_13,NA,NA,skipped,NA,809735.2,NA,NA,809620.4,809735.3,2023-05-10T12:00:45Z,809852.753,NULL,NA,NA,NA,NA,NA,NA,NA,dsf,NA,13,NA,NA,NA,NA,NA,NA,NA,NA,NA,NA,NA,NA,NA,NA,NA,NA,NA,NA,NA
7e639,check continue,flow.Sequence,3_0_14,NA,NA,skipped,NA,809741.2,NA,NA,809620.4,809741.2,2023-05-10T12:00:45Z,809852.753,NULL,NA,NA,NA,NA,NA,NA,NA,NA,NA,14,NA,NA,NA,NA,NA,NA,NA,NA,NA,NA,NA,NA,NA,NA,NA,NA,NA,NA,NA
7e639,check continue,flow.Sequence,3_0_15,NA,NA,skipped,NA,809747.2,NA,NA,809620.4,809747.3,2023-05-10T12:00:45Z,809852.753,NULL,NA,NA,NA,NA,NA,NA,NA,NA,NA,15,NA,NA,NA,NA,NA,NA,NA,NA,NA,NA,NA,NA,NA,NA,NA,NA,NA,NA,NA
7e639,check continue,flow.Sequence,3_0_16,NA,NA,skipped,NA,809753.7,NA,NA,809620.4,809753.8,2023-05-10T12:00:45Z,809852.753,NULL,NA,NA,NA,NA,NA,NA,NA,NA,NA,16,NA,NA,NA,NA,NA,NA,NA,NA,NA,NA,NA,NA,NA,NA,NA,NA,NA,NA,NA
7e639,check continue,flow.Sequence,3_0_17,NA,NA,skipped,NA,809759.4,NA,NA,809620.4,809759.5,2023-05-10T12:00:45Z,809852.753,NULL,NA,NA,NA,NA,NA,NA,NA,NA,NA,17,NA,NA,NA,NA,NA,NA,NA,NA,NA,NA,NA,NA,NA,NA,NA,NA,NA,NA,NA
7e639,check continue,flow.Sequence,3_0_18,NA,NA,skipped,NA,809765.7,NA,NA,809620.4,809765.8,2023-05-10T12:00:45Z,809852.753,NULL,NA,NA,NA,NA,NA,NA,NA,NA,NA,18,NA,NA,NA,NA,NA,NA,NA,NA,NA,NA,NA,NA,NA,NA,NA,NA,NA,NA,NA
7e639,check continue,flow.Sequence,3_0_19,NA,NA,skipped,NA,809771.6,NA,NA,809620.4,809771.6,2023-05-10T12:00:45Z,809852.753,NULL,NA,NA,NA,NA,NA,NA,NA,NA,NA,19,NA,NA,NA,NA,NA,NA,NA,NA,NA,NA,NA,NA,NA,NA,NA,NA,NA,NA,NA
7e639,check continue,flow.Sequence,3_0_20,NA,NA,skipped,NA,809777.9,NA,NA,809620.4,809778,2023-05-10T12:00:45Z,809852.753,NULL,NA,NA,NA,NA,NA,NA,NA,NA,NA,20,NA,NA,NA,NA,NA,NA,NA,NA,NA,NA,NA,NA,NA,NA,NA,NA,NA,NA,NA
7e639,check continue,flow.Sequence,3_0_21,NA,NA,skipped,NA,809783.2,NA,NA,809620.4,809783.2,2023-05-10T12:00:45Z,809852.753,NULL,NA,NA,NA,NA,NA,NA,NA,NA,NA,21,NA,NA,NA,NA,NA,NA,NA,NA,NA,NA,NA,NA,NA,NA,NA,NA,NA,NA,NA
7e639,check continue,flow.Sequence,3_0_22,NA,NA,skipped,NA,809789.1,NA,NA,809620.4,809789.1,2023-05-10T12:00:45Z,809852.753,NULL,NA,NA,NA,NA,NA,NA,NA,NA,NA,22,NA,NA,NA,NA,NA,NA,NA,NA,NA,NA,NA,NA,NA,NA,NA,NA,NA,NA,NA
7e639,check continue,flow.Sequence,3_0_23,NA,NA,skipped,NA,809794.4,NA,NA,809620.4,809794.5,2023-05-10T12:00:45Z,809852.753,NULL,NA,NA,NA,NA,NA,NA,NA,NA,NA,23,NA,NA,NA,NA,NA,NA,NA,NA,NA,NA,NA,NA,NA,NA,NA,NA,NA,NA,NA
7e639,check continue,flow.Sequence,3_0_24,NA,NA,skipped,NA,809800.7,NA,NA,809620.4,809800.7,2023-05-10T12:00:45Z,809852.753,NULL,NA,NA,NA,NA,NA,NA,NA,NA,NA,24,NA,NA,NA,NA,NA,NA,NA,NA,NA,NA,NA,NA,NA,NA,NA,NA,NA,NA,NA
7e639,check continue,flow.Sequence,3_0_25,NA,NA,skipped,NA,809806,NA,NA,809620.4,809806,2023-05-10T12:00:45Z,809852.753,NULL,NA,NA,NA,NA,NA,NA,NA,NA,NA,25,NA,NA,NA,NA,NA,NA,NA,NA,NA,NA,NA,NA,NA,NA,NA,NA,NA,NA,NA
7e639,check continue,flow.Sequence,3_0_26,NA,NA,skipped,NA,809811.3,NA,NA,809620.4,809811.4,2023-05-10T12:00:45Z,809852.753,NULL,NA,NA,NA,NA,NA,NA,NA,NA,NA,26,NA,NA,NA,NA,NA,NA,NA,NA,NA,NA,NA,NA,NA,NA,NA,NA,NA,NA,NA
7e639,check continue,flow.Sequence,3_0_27,NA,NA,skipped,NA,809823.6,NA,NA,809620.4,809823.7,2023-05-10T12:00:45Z,809852.753,NULL,NA,NA,NA,NA,NA,NA,NA,NA,NA,27,NA,NA,NA,NA,NA,NA,NA,NA,NA,NA,NA,NA,NA,NA,NA,NA,NA,NA,NA
7e639,check continue,flow.Sequence,3_0_28,NA,NA,skipped,NA,809829.7,NA,NA,809620.4,809829.7,2023-05-10T12:00:45Z,809852.753,NULL,NA,NA,NA,NA,NA,NA,NA,NA,NA,28,NA,NA,NA,NA,NA,NA,NA,NA,NA,NA,NA,NA,NA,NA,NA,NA,NA,NA,NA
7e639,check continue,flow.Sequence,3_0_29,NA,NA,skipped,NA,809836.2,NA,NA,809620.4,809836.3,2023-05-10T12:00:45Z,809852.753,NULL,NA,NA,NA,NA,NA,NA,NA,NA,NA,29,NA,NA,NA,NA,NA,NA,NA,NA,NA,NA,NA,NA,NA,NA,NA,NA,NA,NA,NA
7e639,until continue,flow.Loop,3_0,NA,NA,completion,386573.268,423022,423030.466,423047.132,809620.4,809836.3,2023-05-10T12:00:45Z,809852.753,NULL,NA,NA,NA,NA,NA,NA,NA,NA,NA,NA,NA,NA,NA,NA,NA,NA,NA,NA,NA,NA,NA,NA,NA,NA,NA,NA,NA,NA,NA
7e639,block 1,flow.Sequence,3,NA,NA,completion,386573.268,423022,423030.466,423047.132,809620.4,809836.3,2023-05-10T12:00:45Z,809852.753,NULL,NA,NA,NA,NA,NA,NA,NA,NA,NA,NA,NA,NA,NA,NA,NA,NA,NA,NA,NA,NA,NA,NA,NA,NA,NA,NA,NA,NA,NA
7e639,1.Part Over,canvas.Screen,4,NA,keypress(Space),response,3691.5470000007,809836.3,809836.087,809852.753,813544.3,813547.6,2023-05-10T12:00:49Z,813602.603,NULL,NA,NA,NA,NA,NA,NA,NA,NA,NA,NA,NA,NA,NA,NA,NA,NA,NA,NA,NA,NA,NA,NA,NA,NA,NA,NA,NA,NA,NA
7e639,Deep Question,html.Page,5_0_0_0_0_0_0,NA,NA,form submission,4233.397,813596.8,813585.937,813602.603,817836,817836.4,2023-05-10T12:00:53Z,817836.4,NULL,Vorsorge,tahadhari,d,NA,NA,NA,jfpa,NA,NA,0,NA,NA,NA,NA,NA,NA,NA,NA,NA,NA,NA,NA,NA,NA,NA,NA,NA,NA,NA
7e639,"""Richtig""-Screen",canvas.Screen,5_0_0_0_0_0_1,NA,NA,skipped,NA,817839.6,NA,NA,817836,817839.9,2023-05-10T12:00:53Z,817836.4,NULL,Vorsorge,tahadhari,d,NA,NA,NA,NA,sdf,NA,0,NA,NA,NA,NA,NA,NA,NA,NA,NA,NA,NA,NA,NA,NA,NA,NA,NA,NA,NA
7e639,"""Falsch""-Screen",canvas.Screen,5_0_0_0_0_0_2,NA,NA,timeout,4999.7999999999,817841,817819.734,817836.4,822819.534,822822.5,2023-05-10T12:00:58Z,822836.2,NULL,Vorsorge,tahadhari,d,NA,NA,NA,NA,sdf,0,0,NA,NA,NA,NA,NA,NA,NA,NA,NA,NA,NA,NA,NA,NA,NA,NA,NA,NA,NA
7e639,deep,flow.Sequence,5_0_0_0_0_0,NA,NA,completion,9216.931,813596.8,813585.937,813602.603,822819.534,822823,2023-05-10T12:00:58Z,822836.2,NULL,Vorsorge,tahadhari,d,NA,NA,NA,NA,sdf,NA,0,NA,NA,NA,NA,NA,NA,NA,NA,NA,NA,NA,NA,NA,NA,NA,NA,NA,NA,NA
7e639,shallow,flow.Sequence,5_0_0_0_0_1,NA,NA,skipped,NA,822823.1,NA,NA,822819.534,822823.3,2023-05-10T12:00:58Z,822836.2,NULL,Vorsorge,tahadhari,d,NA,NA,NA,NA,sdf,NA,0,NA,NA,NA,NA,NA,NA,NA,NA,NA,NA,NA,NA,NA,NA,NA,NA,NA,NA,NA
7e639,task,flow.Sequence,5_0_0_0_0,NA,NA,completion,9216.931,813596.8,813585.937,813602.603,822819.534,822823.4,2023-05-10T12:00:58Z,822836.2,NULL,Vorsorge,tahadhari,d,NA,NA,NA,NA,sdf,NA,0,NA,NA,NA,NA,NA,NA,NA,NA,NA,NA,NA,NA,NA,NA,NA,NA,NA,NA,NA
7e639,Deep Question,html.Page,5_0_0_0_1_0_0,NA,NA,form submission,21543.8,822823.6,822819.534,822836.2,844380,844380.5,2023-05-10T12:01:20Z,844386.541,NULL,Konkurrent,mshindani,d,NA,NA,NA,jfap,NA,NA,0,NA,NA,NA,NA,NA,NA,NA,NA,NA,NA,NA,NA,NA,NA,NA,NA,NA,NA,NA
7e639,"""Richtig""-Screen",canvas.Screen,5_0_0_0_1_0_1,NA,NA,skipped,NA,844384.3,NA,NA,844380,844384.6,2023-05-10T12:01:20Z,844386.541,NULL,Konkurrent,mshindani,d,NA,NA,NA,NA,sdf,NA,0,NA,NA,NA,NA,NA,NA,NA,NA,NA,NA,NA,NA,NA,NA,NA,NA,NA,NA,NA
7e639,"""Falsch""-Screen",canvas.Screen,5_0_0_0_1_0_2,NA,NA,timeout,4999.8,844385.7,844369.875,844386.541,849369.675,849372.6,2023-05-10T12:01:25Z,849386.341,NULL,Konkurrent,mshindani,d,NA,NA,NA,NA,sdf,0,0,NA,NA,NA,NA,NA,NA,NA,NA,NA,NA,NA,NA,NA,NA,NA,NA,NA,NA,NA
7e639,deep,flow.Sequence,5_0_0_0_1_0,NA,NA,completion,26533.475,822823.6,822819.534,822836.2,849369.675,849373,2023-05-10T12:01:25Z,849386.341,NULL,Konkurrent,mshindani,d,NA,NA,NA,NA,sdf,NA,0,NA,NA,NA,NA,NA,NA,NA,NA,NA,NA,NA,NA,NA,NA,NA,NA,NA,NA,NA
7e639,shallow,flow.Sequence,5_0_0_0_1_1,NA,NA,skipped,NA,849373.1,NA,NA,849369.675,849373.3,2023-05-10T12:01:25Z,849386.341,NULL,Konkurrent,mshindani,d,NA,NA,NA,NA,sdf,NA,0,NA,NA,NA,NA,NA,NA,NA,NA,NA,NA,NA,NA,NA,NA,NA,NA,NA,NA,NA
7e639,task,flow.Sequence,5_0_0_0_1,NA,NA,completion,26533.475,822823.5,822819.534,822836.2,849369.675,849373.5,2023-05-10T12:01:25Z,849386.341,NULL,Konkurrent,mshindani,d,NA,NA,NA,NA,sdf,NA,0,NA,NA,NA,NA,NA,NA,NA,NA,NA,NA,NA,NA,NA,NA,NA,NA,NA,NA,NA
7e639,deep,flow.Sequence,5_0_0_0_2_0,NA,NA,skipped,NA,849373.6,NA,NA,849369.675,849373.7,2023-05-10T12:01:25Z,849386.341,NULL,Körper,kiwiliwili,s,mapambano,mpatanishi,kiolezo,NA,sdf,NA,0,NA,NA,NA,NA,NA,NA,NA,NA,NA,NA,NA,NA,NA,NA,NA,NA,NA,NA,NA
7e639,Shallow Question,html.Page,5_0_0_0_2_1_0,NA,NA,form submission,6498.2590000015,849373.8,849369.675,849386.341,855884.6,855885.1,2023-05-10T12:01:31Z,855886.834,NULL,Körper,kiwiliwili,s,mapambano,mpatanishi,kiolezo,mapambano,NA,NA,0,NA,NA,NA,NA,NA,NA,NA,NA,NA,NA,NA,NA,NA,NA,NA,NA,NA,NA,NA
7e639,"""Richtig""-Screen",canvas.Screen,5_0_0_0_2_1_1,NA,NA,skipped,NA,855888.1,NA,NA,855884.6,855888.2,2023-05-10T12:01:31Z,855886.834,NULL,Körper,kiwiliwili,s,mapambano,mpatanishi,kiolezo,NA,sdf,NA,0,NA,NA,NA,NA,NA,NA,NA,NA,NA,NA,NA,NA,NA,NA,NA,NA,NA,NA,NA
7e639,"""Falsch""-Screen",canvas.Screen,5_0_0_0_2_1_2,NA,NA,timeout,4999.7999999999,855889.1,855870.168,855886.834,860869.968,860874.8,2023-05-10T12:01:36Z,860886.634,NULL,Körper,kiwiliwili,s,mapambano,mpatanishi,kiolezo,NA,sdf,0,0,NA,NA,NA,NA,NA,NA,NA,NA,NA,NA,NA,NA,NA,NA,NA,NA,NA,NA,NA
7e639,shallow,flow.Sequence,5_0_0_0_2_1,NA,NA,completion,11483.627,849373.8,849369.675,849386.341,860869.968,860875.2,2023-05-10T12:01:36Z,860886.634,NULL,Körper,kiwiliwili,s,mapambano,mpatanishi,kiolezo,NA,sdf,NA,0,NA,NA,NA,NA,NA,NA,NA,NA,NA,NA,NA,NA,NA,NA,NA,NA,NA,NA,NA
7e639,task,flow.Sequence,5_0_0_0_2,NA,NA,completion,11483.627,849373.6,849369.675,849386.341,860869.968,860875.4,2023-05-10T12:01:36Z,860886.634,NULL,Körper,kiwiliwili,s,mapambano,mpatanishi,kiolezo,NA,sdf,NA,0,NA,NA,NA,NA,NA,NA,NA,NA,NA,NA,NA,NA,NA,NA,NA,NA,NA,NA,NA
7e639,deep,flow.Sequence,5_0_0_0_3_0,NA,NA,skipped,NA,860875.6,NA,NA,860869.968,860875.7,2023-05-10T12:01:36Z,860886.634,NULL,Symbol,kielezo,s,kinyume,nderemo,utayari,NA,sdf,NA,0,NA,NA,NA,NA,NA,NA,NA,NA,NA,NA,NA,NA,NA,NA,NA,NA,NA,NA,NA
7e639,Shallow Question,html.Page,5_0_0_0_3_1_0,NA,NA,form submission,5495.0660000012,860875.9,860869.968,860886.634,866381.7,866382.2,2023-05-10T12:01:42Z,866387.017,NULL,Symbol,kielezo,s,kinyume,nderemo,utayari,nderemo,NA,NA,0,NA,NA,NA,NA,NA,NA,NA,NA,NA,NA,NA,NA,NA,NA,NA,NA,NA,NA,NA
7e639,"""Richtig""-Screen",canvas.Screen,5_0_0_0_3_1_1,NA,NA,skipped,NA,866386.4,NA,NA,866381.7,866386.6,2023-05-10T12:01:42Z,866387.017,NULL,Symbol,kielezo,s,kinyume,nderemo,utayari,NA,sdf,NA,0,NA,NA,NA,NA,NA,NA,NA,NA,NA,NA,NA,NA,NA,NA,NA,NA,NA,NA,NA
7e639,"""Falsch""-Screen",canvas.Screen,5_0_0_0_3_1_2,NA,NA,timeout,4999.8,866387.6,866370.351,866387.017,871370.151,871372.7,2023-05-10T12:01:47Z,871386.817,NULL,Symbol,kielezo,s,kinyume,nderemo,utayari,NA,sdf,0,0,NA,NA,NA,NA,NA,NA,NA,NA,NA,NA,NA,NA,NA,NA,NA,NA,NA,NA,NA
7e639,shallow,flow.Sequence,5_0_0_0_3_1,NA,NA,completion,10483.517,860875.9,860869.968,860886.634,871370.151,871373,2023-05-10T12:01:47Z,871386.817,NULL,Symbol,kielezo,s,kinyume,nderemo,utayari,NA,sdf,NA,0,NA,NA,NA,NA,NA,NA,NA,NA,NA,NA,NA,NA,NA,NA,NA,NA,NA,NA,NA
7e639,task,flow.Sequence,5_0_0_0_3,NA,NA,completion,10483.517,860875.6,860869.968,860886.634,871370.151,871373.1,2023-05-10T12:01:47Z,871386.817,NULL,Symbol,kielezo,s,kinyume,nderemo,utayari,NA,sdf,NA,0,NA,NA,NA,NA,NA,NA,NA,NA,NA,NA,NA,NA,NA,NA,NA,NA,NA,NA,NA
7e639,Deep Question,html.Page,5_0_0_0_4_0_0,NA,NA,form submission,4525.9830000007,871373.2,871370.151,871386.817,875912.8,875913.3,2023-05-10T12:01:51Z,875920.464,NULL,Lawine,banguko,d,NA,NA,NA,apfj,NA,NA,0,NA,NA,NA,NA,NA,NA,NA,NA,NA,NA,NA,NA,NA,NA,NA,NA,NA,NA,NA
7e639,"""Richtig""-Screen",canvas.Screen,5_0_0_0_4_0_1,NA,NA,skipped,NA,875916.6,NA,NA,875912.8,875916.6,2023-05-10T12:01:51Z,875920.464,NULL,Lawine,banguko,d,NA,NA,NA,NA,sdf,NA,0,NA,NA,NA,NA,NA,NA,NA,NA,NA,NA,NA,NA,NA,NA,NA,NA,NA,NA,NA
7e639,"""Falsch""-Screen",canvas.Screen,5_0_0_0_4_0_2,NA,NA,timeout,4999.7999999999,875917.2,875903.798,875920.464,880903.598,880908.7,2023-05-10T12:01:56Z,880920.264,NULL,Lawine,banguko,d,NA,NA,NA,NA,sdf,0,0,NA,NA,NA,NA,NA,NA,NA,NA,NA,NA,NA,NA,NA,NA,NA,NA,NA,NA,NA
7e639,deep,flow.Sequence,5_0_0_0_4_0,NA,NA,completion,9516.781,871373.2,871370.151,871386.817,880903.598,880909.1,2023-05-10T12:01:56Z,880920.264,NULL,Lawine,banguko,d,NA,NA,NA,NA,sdf,NA,0,NA,NA,NA,NA,NA,NA,NA,NA,NA,NA,NA,NA,NA,NA,NA,NA,NA,NA,NA
7e639,shallow,flow.Sequence,5_0_0_0_4_1,NA,NA,skipped,NA,880909.2,NA,NA,880903.598,880909.3,2023-05-10T12:01:56Z,880920.264,NULL,Lawine,banguko,d,NA,NA,NA,NA,sdf,NA,0,NA,NA,NA,NA,NA,NA,NA,NA,NA,NA,NA,NA,NA,NA,NA,NA,NA,NA,NA
7e639,task,flow.Sequence,5_0_0_0_4,NA,NA,completion,9516.781,871373.2,871370.151,871386.817,880903.598,880909.5,2023-05-10T12:01:56Z,880920.264,NULL,Lawine,banguko,d,NA,NA,NA,NA,sdf,NA,0,NA,NA,NA,NA,NA,NA,NA,NA,NA,NA,NA,NA,NA,NA,NA,NA,NA,NA,NA
7e639,Deep Question,html.Page,5_0_0_0_5_0_0,NA,NA,form submission,10443.136,880909.8,880903.598,880920.264,891363.4,891363.9,2023-05-10T12:02:07Z,891370.865,NULL,System,maongozi,d,NA,NA,NA,ajfp,NA,NA,0,NA,NA,NA,NA,NA,NA,NA,NA,NA,NA,NA,NA,NA,NA,NA,NA,NA,NA,NA
7e639,"""Richtig""-Screen",canvas.Screen,5_0_0_0_5_0_1,NA,NA,skipped,NA,891367,NA,NA,891363.4,891367.1,2023-05-10T12:02:07Z,891370.865,NULL,System,maongozi,d,NA,NA,NA,NA,sdf,NA,0,NA,NA,NA,NA,NA,NA,NA,NA,NA,NA,NA,NA,NA,NA,NA,NA,NA,NA,NA
7e639,"""Falsch""-Screen",canvas.Screen,5_0_0_0_5_0_2,NA,NA,timeout,4999.8,891367.6,891354.199,891370.865,896353.999,896359.3,2023-05-10T12:02:12Z,896370.665,NULL,System,maongozi,d,NA,NA,NA,NA,sdf,0,0,NA,NA,NA,NA,NA,NA,NA,NA,NA,NA,NA,NA,NA,NA,NA,NA,NA,NA,NA
7e639,deep,flow.Sequence,5_0_0_0_5_0,NA,NA,completion,15433.735,880909.7,880903.598,880920.264,896353.999,896359.7,2023-05-10T12:02:12Z,896370.665,NULL,System,maongozi,d,NA,NA,NA,NA,sdf,NA,0,NA,NA,NA,NA,NA,NA,NA,NA,NA,NA,NA,NA,NA,NA,NA,NA,NA,NA,NA
7e639,shallow,flow.Sequence,5_0_0_0_5_1,NA,NA,skipped,NA,896359.8,NA,NA,896353.999,896360,2023-05-10T12:02:12Z,896370.665,NULL,System,maongozi,d,NA,NA,NA,NA,sdf,NA,0,NA,NA,NA,NA,NA,NA,NA,NA,NA,NA,NA,NA,NA,NA,NA,NA,NA,NA,NA
7e639,task,flow.Sequence,5_0_0_0_5,NA,NA,completion,15433.735,880909.6,880903.598,880920.264,896353.999,896360.2,2023-05-10T12:02:12Z,896370.665,NULL,System,maongozi,d,NA,NA,NA,NA,sdf,NA,0,NA,NA,NA,NA,NA,NA,NA,NA,NA,NA,NA,NA,NA,NA,NA,NA,NA,NA,NA
7e639,deep,flow.Sequence,5_0_0_0_6_0,NA,NA,skipped,NA,896360.3,NA,NA,896353.999,896360.4,2023-05-10T12:02:12Z,896370.665,NULL,Zuwachs,nyongeza,s,matilaba,udhibiti,hudhurio,NA,sdf,NA,0,NA,NA,NA,NA,NA,NA,NA,NA,NA,NA,NA,NA,NA,NA,NA,NA,NA,NA,NA
7e639,Shallow Question,html.Page,5_0_0_0_6_1_0,NA,NA,form submission,5979.7350000003,896360.5,896353.999,896370.665,902350.4,902351,2023-05-10T12:02:18Z,902354.281,NULL,Zuwachs,nyongeza,s,matilaba,udhibiti,hudhurio,matilaba,NA,NA,0,NA,NA,NA,NA,NA,NA,NA,NA,NA,NA,NA,NA,NA,NA,NA,NA,NA,NA,NA
7e639,"""Richtig""-Screen",canvas.Screen,5_0_0_0_6_1_1,NA,NA,skipped,NA,902354.2,NA,NA,902350.4,902354.2,2023-05-10T12:02:18Z,902354.281,NULL,Zuwachs,nyongeza,s,matilaba,udhibiti,hudhurio,NA,sdf,NA,0,NA,NA,NA,NA,NA,NA,NA,NA,NA,NA,NA,NA,NA,NA,NA,NA,NA,NA,NA
7e639,"""Falsch""-Screen",canvas.Screen,5_0_0_0_6_1_2,NA,NA,timeout,4999.8,902354.8,902337.615,902354.281,907337.415,907342.3,2023-05-10T12:02:23Z,907354.081,NULL,Zuwachs,nyongeza,s,matilaba,udhibiti,hudhurio,NA,sdf,0,0,NA,NA,NA,NA,NA,NA,NA,NA,NA,NA,NA,NA,NA,NA,NA,NA,NA,NA,NA
7e639,shallow,flow.Sequence,5_0_0_0_6_1,NA,NA,completion,10966.75,896360.5,896353.999,896370.665,907337.415,907342.7,2023-05-10T12:02:23Z,907354.081,NULL,Zuwachs,nyongeza,s,matilaba,udhibiti,hudhurio,NA,sdf,NA,0,NA,NA,NA,NA,NA,NA,NA,NA,NA,NA,NA,NA,NA,NA,NA,NA,NA,NA,NA
7e639,task,flow.Sequence,5_0_0_0_6,NA,NA,completion,10966.75,896360.2,896353.999,896370.665,907337.415,907342.9,2023-05-10T12:02:23Z,907354.081,NULL,Zuwachs,nyongeza,s,matilaba,udhibiti,hudhurio,NA,sdf,NA,0,NA,NA,NA,NA,NA,NA,NA,NA,NA,NA,NA,NA,NA,NA,NA,NA,NA,NA,NA
7e639,deep,flow.Sequence,5_0_0_0_7_0,NA,NA,skipped,NA,907343.1,NA,NA,907337.415,907343.4,2023-05-10T12:02:23Z,907354.081,NULL,Übersicht,kilindo,s,mgusano,chipukizi,kulinganisha,NA,sdf,NA,0,NA,NA,NA,NA,NA,NA,NA,NA,NA,NA,NA,NA,NA,NA,NA,NA,NA,NA,NA
7e639,Shallow Question,html.Page,5_0_0_0_7_1_0,NA,NA,form submission,7193.8190000004,907343.6,907337.415,907354.081,914547.9,914548.4,2023-05-10T12:02:30Z,914554.465,NULL,Übersicht,kilindo,s,mgusano,chipukizi,kulinganisha,mgusano,NA,NA,0,NA,NA,NA,NA,NA,NA,NA,NA,NA,NA,NA,NA,NA,NA,NA,NA,NA,NA,NA
7e639,"""Richtig""-Screen",canvas.Screen,5_0_0_0_7_1_1,NA,NA,skipped,NA,914553,NA,NA,914547.9,914553.2,2023-05-10T12:02:30Z,914554.465,NULL,Übersicht,kilindo,s,mgusano,chipukizi,kulinganisha,NA,sdf,NA,0,NA,NA,NA,NA,NA,NA,NA,NA,NA,NA,NA,NA,NA,NA,NA,NA,NA,NA,NA
7e639,"""Falsch""-Screen",canvas.Screen,5_0_0_0_7_1_2,NA,NA,timeout,4999.8,914554,914537.799,914554.465,919537.599,919540.6,2023-05-10T12:02:35Z,919554.265,NULL,Übersicht,kilindo,s,mgusano,chipukizi,kulinganisha,NA,sdf,0,0,NA,NA,NA,NA,NA,NA,NA,NA,NA,NA,NA,NA,NA,NA,NA,NA,NA,NA,NA
7e639,shallow,flow.Sequence,5_0_0_0_7_1,NA,NA,completion,12183.518,907343.5,907337.415,907354.081,919537.599,919541.1,2023-05-10T12:02:35Z,919554.265,NULL,Übersicht,kilindo,s,mgusano,chipukizi,kulinganisha,NA,sdf,NA,0,NA,NA,NA,NA,NA,NA,NA,NA,NA,NA,NA,NA,NA,NA,NA,NA,NA,NA,NA
7e639,task,flow.Sequence,5_0_0_0_7,NA,NA,completion,12183.518,907343,907337.415,907354.081,919537.599,919541.3,2023-05-10T12:02:35Z,919554.265,NULL,Übersicht,kilindo,s,mgusano,chipukizi,kulinganisha,NA,sdf,NA,0,NA,NA,NA,NA,NA,NA,NA,NA,NA,NA,NA,NA,NA,NA,NA,NA,NA,NA,NA
7e639,block,flow.Loop,5_0_0_0,NA,NA,completion,105934.996,813596.8,813585.937,813602.603,919537.599,919541.5,2023-05-10T12:02:35Z,919554.265,NULL,NA,NA,NA,NA,NA,NA,NA,sdf,NA,0,NA,NA,NA,NA,NA,NA,NA,NA,NA,NA,NA,NA,NA,NA,NA,NA,NA,NA,NA
7e639,weiter,canvas.Screen,5_0_0_1,sdf,keypress(Space),response,3749.0350000007,919541.6,919537.599,919554.265,923303.3,923309.2,2023-05-10T12:02:39Z,923354.113,NULL,NA,NA,NA,NA,NA,NA,NA,sdf,NA,0,NA,NA,NA,NA,NA,NA,NA,NA,NA,NA,NA,NA,NA,NA,NA,NA,NA,NA,NA
7e639,check continue,flow.Sequence,5_0_0,NA,NA,completion,109700.697,813596.8,813585.937,813602.603,923303.3,923309.5,2023-05-10T12:02:39Z,923354.113,NULL,NA,NA,NA,NA,NA,NA,NA,sdf,NA,0,NA,NA,NA,NA,NA,NA,NA,NA,NA,NA,NA,NA,NA,NA,NA,NA,NA,NA,NA
7e639,deep,flow.Sequence,5_0_1_0_0_0,NA,NA,skipped,NA,923343.9,NA,NA,923303.3,923344,2023-05-10T12:02:39Z,923354.113,NULL,Übersicht,kilindo,s,mgusano,chipukizi,kulinganisha,NA,sdfdsf,NA,1,NA,NA,NA,NA,NA,NA,NA,NA,NA,NA,NA,NA,NA,NA,NA,NA,NA,NA,NA
7e639,Shallow Question,html.Page,5_0_1_0_0_1_0,NA,NA,form submission,3674.6870000007,923344.1,923337.447,923354.113,927028.8,927029.3,2023-05-10T12:02:42Z,927037.817,NULL,Übersicht,kilindo,s,mgusano,chipukizi,kulinganisha,kilindo,NA,NA,1,NA,NA,NA,NA,NA,NA,NA,NA,NA,NA,NA,NA,NA,NA,NA,NA,NA,NA,NA
7e639,"""Richtig""-Screen",canvas.Screen,5_0_1_0_0_1_1,NA,NA,timeout,4999.7999999999,927030.3,927021.151,927037.817,932020.951,932025.1,2023-05-10T12:02:47Z,932037.617,NULL,Übersicht,kilindo,s,mgusano,chipukizi,kulinganisha,NA,sdfdsf,1,1,NA,NA,NA,NA,NA,NA,NA,NA,NA,NA,NA,NA,NA,NA,NA,NA,NA,NA,NA
7e639,"""Falsch""-Screen",canvas.Screen,5_0_1_0_0_1_2,NA,NA,skipped,NA,932028.7,NA,NA,932020.951,932028.8,2023-05-10T12:02:47Z,932037.617,NULL,Übersicht,kilindo,s,mgusano,chipukizi,kulinganisha,NA,sdfdsf,NA,1,NA,NA,NA,NA,NA,NA,NA,NA,NA,NA,NA,NA,NA,NA,NA,NA,NA,NA,NA
7e639,shallow,flow.Sequence,5_0_1_0_0_1,NA,NA,completion,8666.838,923344.1,923337.447,923354.113,932020.951,932028.9,2023-05-10T12:02:47Z,932037.617,NULL,Übersicht,kilindo,s,mgusano,chipukizi,kulinganisha,NA,sdfdsf,NA,1,NA,NA,NA,NA,NA,NA,NA,NA,NA,NA,NA,NA,NA,NA,NA,NA,NA,NA,NA
7e639,task,flow.Sequence,5_0_1_0_0,NA,NA,completion,8666.838,923343.9,923337.447,923354.113,932020.951,932029,2023-05-10T12:02:47Z,932037.617,NULL,Übersicht,kilindo,s,mgusano,chipukizi,kulinganisha,NA,sdfdsf,NA,1,NA,NA,NA,NA,NA,NA,NA,NA,NA,NA,NA,NA,NA,NA,NA,NA,NA,NA,NA
7e639,Deep Question,html.Page,5_0_1_0_1_0_0,NA,NA,form submission,27938.883,932029.1,932020.951,932037.617,959976.5,959977,2023-05-10T12:03:15Z,959988.193,NULL,System,maongozi,d,NA,NA,NA,jfap,NA,NA,1,NA,NA,NA,NA,NA,NA,NA,NA,NA,NA,NA,NA,NA,NA,NA,NA,NA,NA,NA
7e639,"""Richtig""-Screen",canvas.Screen,5_0_1_0_1_0_1,NA,NA,skipped,NA,959981.4,NA,NA,959976.5,959981.7,2023-05-10T12:03:15Z,959988.193,NULL,System,maongozi,d,NA,NA,NA,NA,sdfdsf,NA,1,NA,NA,NA,NA,NA,NA,NA,NA,NA,NA,NA,NA,NA,NA,NA,NA,NA,NA,NA
7e639,"""Falsch""-Screen",canvas.Screen,5_0_1_0_1_0_2,NA,NA,timeout,4999.8,959982.7,959971.527,959988.193,964971.327,964973.2,2023-05-10T12:03:20Z,964987.993,NULL,System,maongozi,d,NA,NA,NA,NA,sdfdsf,0,1,NA,NA,NA,NA,NA,NA,NA,NA,NA,NA,NA,NA,NA,NA,NA,NA,NA,NA,NA
7e639,deep,flow.Sequence,5_0_1_0_1_0,NA,NA,completion,32933.71,932029.1,932020.951,932037.617,964971.327,964973.6,2023-05-10T12:03:20Z,964987.993,NULL,System,maongozi,d,NA,NA,NA,NA,sdfdsf,NA,1,NA,NA,NA,NA,NA,NA,NA,NA,NA,NA,NA,NA,NA,NA,NA,NA,NA,NA,NA
7e639,shallow,flow.Sequence,5_0_1_0_1_1,NA,NA,skipped,NA,964973.8,NA,NA,964971.327,964973.9,2023-05-10T12:03:20Z,964987.993,NULL,System,maongozi,d,NA,NA,NA,NA,sdfdsf,NA,1,NA,NA,NA,NA,NA,NA,NA,NA,NA,NA,NA,NA,NA,NA,NA,NA,NA,NA,NA
7e639,task,flow.Sequence,5_0_1_0_1,NA,NA,completion,32933.71,932029.1,932020.951,932037.617,964971.327,964974.1,2023-05-10T12:03:20Z,964987.993,NULL,System,maongozi,d,NA,NA,NA,NA,sdfdsf,NA,1,NA,NA,NA,NA,NA,NA,NA,NA,NA,NA,NA,NA,NA,NA,NA,NA,NA,NA,NA
7e639,Deep Question,html.Page,5_0_1_0_2_0_0,NA,NA,form submission,16366.207000001,964974.3,964971.327,964987.993,981354.2,981354.8,2023-05-10T12:03:37Z,981372.015,NULL,Konkurrent,mshindani,d,NA,NA,NA,fajp,NA,NA,1,NA,NA,NA,NA,NA,NA,NA,NA,NA,NA,NA,NA,NA,NA,NA,NA,NA,NA,NA
7e639,"""Richtig""-Screen",canvas.Screen,5_0_1_0_2_0_1,NA,NA,skipped,NA,981358.3,NA,NA,981354.2,981358.6,2023-05-10T12:03:37Z,981372.015,NULL,Konkurrent,mshindani,d,NA,NA,NA,NA,sdfdsf,NA,1,NA,NA,NA,NA,NA,NA,NA,NA,NA,NA,NA,NA,NA,NA,NA,NA,NA,NA,NA
7e639,"""Falsch""-Screen",canvas.Screen,5_0_1_0_2_0_2,NA,NA,timeout,4999.7999999999,981359.6,981355.349,981372.015,986355.149,986359.9,2023-05-10T12:03:42Z,986371.815,NULL,Konkurrent,mshindani,d,NA,NA,NA,NA,sdfdsf,0,1,NA,NA,NA,NA,NA,NA,NA,NA,NA,NA,NA,NA,NA,NA,NA,NA,NA,NA,NA
7e639,deep,flow.Sequence,5_0_1_0_2_0,NA,NA,completion,21367.156,964974.2,964971.327,964987.993,986355.149,986360.3,2023-05-10T12:03:42Z,986371.815,NULL,Konkurrent,mshindani,d,NA,NA,NA,NA,sdfdsf,NA,1,NA,NA,NA,NA,NA,NA,NA,NA,NA,NA,NA,NA,NA,NA,NA,NA,NA,NA,NA
7e639,shallow,flow.Sequence,5_0_1_0_2_1,NA,NA,skipped,NA,986360.5,NA,NA,986355.149,986360.6,2023-05-10T12:03:42Z,986371.815,NULL,Konkurrent,mshindani,d,NA,NA,NA,NA,sdfdsf,NA,1,NA,NA,NA,NA,NA,NA,NA,NA,NA,NA,NA,NA,NA,NA,NA,NA,NA,NA,NA
7e639,task,flow.Sequence,5_0_1_0_2,NA,NA,completion,21367.156,964974.1,964971.327,964987.993,986355.149,986360.8,2023-05-10T12:03:42Z,986371.815,NULL,Konkurrent,mshindani,d,NA,NA,NA,NA,sdfdsf,NA,1,NA,NA,NA,NA,NA,NA,NA,NA,NA,NA,NA,NA,NA,NA,NA,NA,NA,NA,NA
7e639,deep,flow.Sequence,5_0_1_0_3_0,NA,NA,skipped,NA,986360.9,NA,NA,986355.149,986360.9,2023-05-10T12:03:42Z,986371.815,NULL,Symbol,kielezo,s,kinyume,nderemo,utayari,NA,sdfdsf,NA,1,NA,NA,NA,NA,NA,NA,NA,NA,NA,NA,NA,NA,NA,NA,NA,NA,NA,NA,NA
7e639,Shallow Question,html.Page,5_0_1_0_3_1_0,NA,NA,form submission,4307.7850000015,986361.1,986355.149,986371.815,990679.6,990680.2,2023-05-10T12:03:46Z,990688.309,NULL,Symbol,kielezo,s,kinyume,nderemo,utayari,kielezo,NA,NA,1,NA,NA,NA,NA,NA,NA,NA,NA,NA,NA,NA,NA,NA,NA,NA,NA,NA,NA,NA
7e639,"""Richtig""-Screen",canvas.Screen,5_0_1_0_3_1_1,NA,NA,timeout,5000.3049999999,990683.8,990671.643,990688.309,995671.948,995676.5,2023-05-10T12:03:51Z,995688.614,NULL,Symbol,kielezo,s,kinyume,nderemo,utayari,NA,sdfdsf,1,1,NA,NA,NA,NA,NA,NA,NA,NA,NA,NA,NA,NA,NA,NA,NA,NA,NA,NA,NA
7e639,"""Falsch""-Screen",canvas.Screen,5_0_1_0_3_1_2,NA,NA,skipped,NA,995681.2,NA,NA,995671.948,995681.3,2023-05-10T12:03:51Z,995688.614,NULL,Symbol,kielezo,s,kinyume,nderemo,utayari,NA,sdfdsf,NA,1,NA,NA,NA,NA,NA,NA,NA,NA,NA,NA,NA,NA,NA,NA,NA,NA,NA,NA,NA
7e639,shallow,flow.Sequence,5_0_1_0_3_1,NA,NA,completion,9300.133,986361.1,986355.149,986371.815,995671.948,995681.4,2023-05-10T12:03:51Z,995688.614,NULL,Symbol,kielezo,s,kinyume,nderemo,utayari,NA,sdfdsf,NA,1,NA,NA,NA,NA,NA,NA,NA,NA,NA,NA,NA,NA,NA,NA,NA,NA,NA,NA,NA
7e639,task,flow.Sequence,5_0_1_0_3,NA,NA,completion,9300.133,986360.9,986355.149,986371.815,995671.948,995681.6,2023-05-10T12:03:51Z,995688.614,NULL,Symbol,kielezo,s,kinyume,nderemo,utayari,NA,sdfdsf,NA,1,NA,NA,NA,NA,NA,NA,NA,NA,NA,NA,NA,NA,NA,NA,NA,NA,NA,NA,NA
7e639,Deep Question,html.Page,5_0_1_0_4_0_0,NA,NA,form submission,17812.586000001,995681.7,995671.948,995688.614,1013501.2,1013501.6,2023-05-10T12:04:09Z,1013505.699,NULL,Lawine,banguko,d,NA,NA,NA,banguko,NA,NA,1,NA,NA,NA,NA,NA,NA,NA,NA,NA,NA,NA,NA,NA,NA,NA,NA,NA,NA,NA
7e639,"""Richtig""-Screen",canvas.Screen,5_0_1_0_4_0_1,NA,NA,timeout,4999.7999999999,1013505.1,1013489.033,1013505.699,1018488.833,1018492.9,2023-05-10T12:04:14Z,1018505.499,NULL,Lawine,banguko,d,NA,NA,NA,NA,sdfdsf,1,1,NA,NA,NA,NA,NA,NA,NA,NA,NA,NA,NA,NA,NA,NA,NA,NA,NA,NA,NA
7e639,"""Falsch""-Screen",canvas.Screen,5_0_1_0_4_0_2,NA,NA,skipped,NA,1018497.8,NA,NA,1018488.833,1018497.9,2023-05-10T12:04:14Z,1018505.499,NULL,Lawine,banguko,d,NA,NA,NA,NA,sdfdsf,NA,1,NA,NA,NA,NA,NA,NA,NA,NA,NA,NA,NA,NA,NA,NA,NA,NA,NA,NA,NA
7e639,deep,flow.Sequence,5_0_1_0_4_0,NA,NA,completion,22800.219,995681.6,995671.948,995688.614,1018488.833,1018498.1,2023-05-10T12:04:14Z,1018505.499,NULL,Lawine,banguko,d,NA,NA,NA,NA,sdfdsf,NA,1,NA,NA,NA,NA,NA,NA,NA,NA,NA,NA,NA,NA,NA,NA,NA,NA,NA,NA,NA
7e639,shallow,flow.Sequence,5_0_1_0_4_1,NA,NA,skipped,NA,1018498.1,NA,NA,1018488.833,1018498.1,2023-05-10T12:04:14Z,1018505.499,NULL,Lawine,banguko,d,NA,NA,NA,NA,sdfdsf,NA,1,NA,NA,NA,NA,NA,NA,NA,NA,NA,NA,NA,NA,NA,NA,NA,NA,NA,NA,NA
7e639,task,flow.Sequence,5_0_1_0_4,NA,NA,completion,22800.219,995681.6,995671.948,995688.614,1018488.833,1018498.3,2023-05-10T12:04:14Z,1018505.499,NULL,Lawine,banguko,d,NA,NA,NA,NA,sdfdsf,NA,1,NA,NA,NA,NA,NA,NA,NA,NA,NA,NA,NA,NA,NA,NA,NA,NA,NA,NA,NA
7e639,deep,flow.Sequence,5_0_1_0_5_0,NA,NA,skipped,NA,1018498.6,NA,NA,1018488.833,1018498.6,2023-05-10T12:04:14Z,1018505.499,NULL,Zuwachs,nyongeza,s,matilaba,udhibiti,hudhurio,NA,sdfdsf,NA,1,NA,NA,NA,NA,NA,NA,NA,NA,NA,NA,NA,NA,NA,NA,NA,NA,NA,NA,NA
7e639,Shallow Question,html.Page,5_0_1_0_5_1_0,NA,NA,form submission,10365.301000001,1018498.6,1018488.833,1018505.499,1028870.8,1028871.4,2023-05-10T12:04:24Z,1028872.294,NULL,Zuwachs,nyongeza,s,matilaba,udhibiti,hudhurio,udhibiti,NA,NA,1,NA,NA,NA,NA,NA,NA,NA,NA,NA,NA,NA,NA,NA,NA,NA,NA,NA,NA,NA
7e639,"""Richtig""-Screen",canvas.Screen,5_0_1_0_5_1_1,NA,NA,skipped,NA,1028874.7,NA,NA,1028870.8,1028874.8,2023-05-10T12:04:24Z,1028872.294,NULL,Zuwachs,nyongeza,s,matilaba,udhibiti,hudhurio,NA,sdfdsf,NA,1,NA,NA,NA,NA,NA,NA,NA,NA,NA,NA,NA,NA,NA,NA,NA,NA,NA,NA,NA
7e639,"""Falsch""-Screen",canvas.Screen,5_0_1_0_5_1_2,NA,NA,timeout,4999.8,1028875.3,1028855.628,1028872.294,1033855.428,1033860.8,2023-05-10T12:04:29Z,1033872.094,NULL,Zuwachs,nyongeza,s,matilaba,udhibiti,hudhurio,NA,sdfdsf,0,1,NA,NA,NA,NA,NA,NA,NA,NA,NA,NA,NA,NA,NA,NA,NA,NA,NA,NA,NA
7e639,shallow,flow.Sequence,5_0_1_0_5_1,NA,NA,completion,15349.929,1018498.6,1018488.833,1018505.499,1033855.428,1033861.3,2023-05-10T12:04:29Z,1033872.094,NULL,Zuwachs,nyongeza,s,matilaba,udhibiti,hudhurio,NA,sdfdsf,NA,1,NA,NA,NA,NA,NA,NA,NA,NA,NA,NA,NA,NA,NA,NA,NA,NA,NA,NA,NA
7e639,task,flow.Sequence,5_0_1_0_5,NA,NA,completion,15349.929,1018498.5,1018488.833,1018505.499,1033855.428,1033861.5,2023-05-10T12:04:29Z,1033872.094,NULL,Zuwachs,nyongeza,s,matilaba,udhibiti,hudhurio,NA,sdfdsf,NA,1,NA,NA,NA,NA,NA,NA,NA,NA,NA,NA,NA,NA,NA,NA,NA,NA,NA,NA,NA
7e639,deep,flow.Sequence,5_0_1_0_6_0,NA,NA,skipped,NA,1033861.7,NA,NA,1033855.428,1033861.7,2023-05-10T12:04:29Z,1033872.094,NULL,Körper,kiwiliwili,s,mapambano,mpatanishi,kiolezo,NA,sdfdsf,NA,1,NA,NA,NA,NA,NA,NA,NA,NA,NA,NA,NA,NA,NA,NA,NA,NA,NA,NA,NA
7e639,Shallow Question,html.Page,5_0_1_0_6_1_0,NA,NA,form submission,6588.8060000003,1033861.9,1033855.428,1033872.094,1040460.9,1040461.5,2023-05-10T12:04:36Z,1040472.41,NULL,Körper,kiwiliwili,s,mapambano,mpatanishi,kiolezo,kiwiliwili,NA,NA,1,NA,NA,NA,NA,NA,NA,NA,NA,NA,NA,NA,NA,NA,NA,NA,NA,NA,NA,NA
7e639,"""Richtig""-Screen",canvas.Screen,5_0_1_0_6_1_1,NA,NA,timeout,4999.7999999999,1040465.8,1040455.744,1040472.41,1045455.544,1045460.3,2023-05-10T12:04:41Z,1045472.21,NULL,Körper,kiwiliwili,s,mapambano,mpatanishi,kiolezo,NA,sdfdsf,1,1,NA,NA,NA,NA,NA,NA,NA,NA,NA,NA,NA,NA,NA,NA,NA,NA,NA,NA,NA
7e639,"""Falsch""-Screen",canvas.Screen,5_0_1_0_6_1_2,NA,NA,skipped,NA,1045464,NA,NA,1045455.544,1045464.1,2023-05-10T12:04:41Z,1045472.21,NULL,Körper,kiwiliwili,s,mapambano,mpatanishi,kiolezo,NA,sdfdsf,NA,1,NA,NA,NA,NA,NA,NA,NA,NA,NA,NA,NA,NA,NA,NA,NA,NA,NA,NA,NA
7e639,shallow,flow.Sequence,5_0_1_0_6_1,NA,NA,completion,11583.45,1033861.9,1033855.428,1033872.094,1045455.544,1045464.3,2023-05-10T12:04:41Z,1045472.21,NULL,Körper,kiwiliwili,s,mapambano,mpatanishi,kiolezo,NA,sdfdsf,NA,1,NA,NA,NA,NA,NA,NA,NA,NA,NA,NA,NA,NA,NA,NA,NA,NA,NA,NA,NA
7e639,task,flow.Sequence,5_0_1_0_6,NA,NA,completion,11583.45,1033861.6,1033855.428,1033872.094,1045455.544,1045464.3,2023-05-10T12:04:41Z,1045472.21,NULL,Körper,kiwiliwili,s,mapambano,mpatanishi,kiolezo,NA,sdfdsf,NA,1,NA,NA,NA,NA,NA,NA,NA,NA,NA,NA,NA,NA,NA,NA,NA,NA,NA,NA,NA
7e639,Deep Question,html.Page,5_0_1_0_7_0_0,NA,NA,form submission,25998.490000001,1045464.5,1045455.544,1045472.21,1071470.7,1071471.2,2023-05-10T12:05:07Z,1071472.913,NULL,Vorsorge,tahadhari,d,NA,NA,NA,utondari,NA,NA,1,NA,NA,NA,NA,NA,NA,NA,NA,NA,NA,NA,NA,NA,NA,NA,NA,NA,NA,NA
7e639,"""Richtig""-Screen",canvas.Screen,5_0_1_0_7_0_1,NA,NA,skipped,NA,1071475,NA,NA,1071470.7,1071475.2,2023-05-10T12:05:07Z,1071472.913,NULL,Vorsorge,tahadhari,d,NA,NA,NA,NA,sdfdsf,NA,1,NA,NA,NA,NA,NA,NA,NA,NA,NA,NA,NA,NA,NA,NA,NA,NA,NA,NA,NA
7e639,"""Falsch""-Screen",canvas.Screen,5_0_1_0_7_0_2,NA,NA,timeout,4999.8,1071476,1071456.247,1071472.913,1076456.047,1076459.8,2023-05-10T12:05:12Z,1076472.713,NULL,Vorsorge,tahadhari,d,NA,NA,NA,NA,sdfdsf,0,1,NA,NA,NA,NA,NA,NA,NA,NA,NA,NA,NA,NA,NA,NA,NA,NA,NA,NA,NA
7e639,deep,flow.Sequence,5_0_1_0_7_0,NA,NA,completion,30983.837,1045464.5,1045455.544,1045472.21,1076456.047,1076460.2,2023-05-10T12:05:12Z,1076472.713,NULL,Vorsorge,tahadhari,d,NA,NA,NA,NA,sdfdsf,NA,1,NA,NA,NA,NA,NA,NA,NA,NA,NA,NA,NA,NA,NA,NA,NA,NA,NA,NA,NA
7e639,shallow,flow.Sequence,5_0_1_0_7_1,NA,NA,skipped,NA,1076460.3,NA,NA,1076456.047,1076460.5,2023-05-10T12:05:12Z,1076472.713,NULL,Vorsorge,tahadhari,d,NA,NA,NA,NA,sdfdsf,NA,1,NA,NA,NA,NA,NA,NA,NA,NA,NA,NA,NA,NA,NA,NA,NA,NA,NA,NA,NA
7e639,task,flow.Sequence,5_0_1_0_7,NA,NA,completion,30983.837,1045464.4,1045455.544,1045472.21,1076456.047,1076460.6,2023-05-10T12:05:12Z,1076472.713,NULL,Vorsorge,tahadhari,d,NA,NA,NA,NA,sdfdsf,NA,1,NA,NA,NA,NA,NA,NA,NA,NA,NA,NA,NA,NA,NA,NA,NA,NA,NA,NA,NA
7e639,block,flow.Loop,5_0_1_0,NA,NA,completion,153101.934,923343.9,923337.447,923354.113,1076456.047,1076460.9,2023-05-10T12:05:12Z,1076472.713,NULL,NA,NA,NA,NA,NA,NA,NA,sdfdsf,NA,1,NA,NA,NA,NA,NA,NA,NA,NA,NA,NA,NA,NA,NA,NA,NA,NA,NA,NA,NA
7e639,weiter,canvas.Screen,5_0_1_1,sdf,keypress(Space),response,8155.8870000015,1076461,1076456.047,1076472.713,1084628.6,1084634.5,2023-05-10T12:05:20Z,1084672.938,NULL,NA,NA,NA,NA,NA,NA,NA,sdfdsf,NA,1,NA,NA,NA,NA,NA,NA,NA,NA,NA,NA,NA,NA,NA,NA,NA,NA,NA,NA,NA
7e639,check continue,flow.Sequence,5_0_1,NA,NA,completion,161274.487,923343.9,923337.447,923354.113,1084628.6,1084634.7,2023-05-10T12:05:20Z,1084672.938,NULL,NA,NA,NA,NA,NA,NA,NA,sdfdsf,NA,1,NA,NA,NA,NA,NA,NA,NA,NA,NA,NA,NA,NA,NA,NA,NA,NA,NA,NA,NA
7e639,deep,flow.Sequence,5_0_2_0_0_0,NA,NA,skipped,NA,1084659.7,NA,NA,1084628.6,1084659.8,2023-05-10T12:05:20Z,1084672.938,NULL,Zuwachs,nyongeza,s,matilaba,udhibiti,hudhurio,NA,sdf,NA,2,NA,NA,NA,NA,NA,NA,NA,NA,NA,NA,NA,NA,NA,NA,NA,NA,NA,NA,NA
7e639,Shallow Question,html.Page,5_0_2_0_0_1_0,NA,NA,form submission,4578.8620000007,1084659.9,1084656.272,1084672.938,1089251.8,1089252.3,2023-05-10T12:05:25Z,1089256.669,NULL,Zuwachs,nyongeza,s,matilaba,udhibiti,hudhurio,nyongeza,NA,NA,2,NA,NA,NA,NA,NA,NA,NA,NA,NA,NA,NA,NA,NA,NA,NA,NA,NA,NA,NA
7e639,"""Richtig""-Screen",canvas.Screen,5_0_2_0_0_1_1,NA,NA,timeout,4999.8,1089255.6,1089240.003,1089256.669,1094239.803,1094243.7,2023-05-10T12:05:30Z,1094256.469,NULL,Zuwachs,nyongeza,s,matilaba,udhibiti,hudhurio,NA,sdf,1,2,NA,NA,NA,NA,NA,NA,NA,NA,NA,NA,NA,NA,NA,NA,NA,NA,NA,NA,NA
7e639,"""Falsch""-Screen",canvas.Screen,5_0_2_0_0_1_2,NA,NA,skipped,NA,1094247.7,NA,NA,1094239.803,1094247.9,2023-05-10T12:05:30Z,1094256.469,NULL,Zuwachs,nyongeza,s,matilaba,udhibiti,hudhurio,NA,sdf,NA,2,NA,NA,NA,NA,NA,NA,NA,NA,NA,NA,NA,NA,NA,NA,NA,NA,NA,NA,NA
7e639,shallow,flow.Sequence,5_0_2_0_0_1,NA,NA,completion,9566.865,1084659.9,1084656.272,1084672.938,1094239.803,1094248.1,2023-05-10T12:05:30Z,1094256.469,NULL,Zuwachs,nyongeza,s,matilaba,udhibiti,hudhurio,NA,sdf,NA,2,NA,NA,NA,NA,NA,NA,NA,NA,NA,NA,NA,NA,NA,NA,NA,NA,NA,NA,NA
7e639,task,flow.Sequence,5_0_2_0_0,NA,NA,completion,9566.865,1084659.7,1084656.272,1084672.938,1094239.803,1094248.2,2023-05-10T12:05:30Z,1094256.469,NULL,Zuwachs,nyongeza,s,matilaba,udhibiti,hudhurio,NA,sdf,NA,2,NA,NA,NA,NA,NA,NA,NA,NA,NA,NA,NA,NA,NA,NA,NA,NA,NA,NA,NA
7e639,deep,flow.Sequence,5_0_2_0_1_0,NA,NA,skipped,NA,1094248.3,NA,NA,1094239.803,1094248.5,2023-05-10T12:05:30Z,1094256.469,NULL,Übersicht,kilindo,s,mgusano,chipukizi,kulinganisha,NA,sdf,NA,2,NA,NA,NA,NA,NA,NA,NA,NA,NA,NA,NA,NA,NA,NA,NA,NA,NA,NA,NA
7e639,Shallow Question,html.Page,5_0_2_0_1_1_0,NA,NA,form submission,5578.531,1094248.6,1094239.803,1094256.469,1099835,1099835.7,2023-05-10T12:05:35Z,1099840.086,NULL,Übersicht,kilindo,s,mgusano,chipukizi,kulinganisha,kilindo,NA,NA,2,NA,NA,NA,NA,NA,NA,NA,NA,NA,NA,NA,NA,NA,NA,NA,NA,NA,NA,NA
7e639,"""Richtig""-Screen",canvas.Screen,5_0_2_0_1_1_1,NA,NA,timeout,4999.8,1099838.6,1099823.42,1099840.086,1104823.22,1104827.9,2023-05-10T12:05:40Z,1104839.886,NULL,Übersicht,kilindo,s,mgusano,chipukizi,kulinganisha,NA,sdf,1,2,NA,NA,NA,NA,NA,NA,NA,NA,NA,NA,NA,NA,NA,NA,NA,NA,NA,NA,NA
7e639,"""Falsch""-Screen",canvas.Screen,5_0_2_0_1_1_2,NA,NA,skipped,NA,1104833,NA,NA,1104823.22,1104833.3,2023-05-10T12:05:40Z,1104839.886,NULL,Übersicht,kilindo,s,mgusano,chipukizi,kulinganisha,NA,sdf,NA,2,NA,NA,NA,NA,NA,NA,NA,NA,NA,NA,NA,NA,NA,NA,NA,NA,NA,NA,NA
7e639,shallow,flow.Sequence,5_0_2_0_1_1,NA,NA,completion,10566.751,1094248.6,1094239.803,1094256.469,1104823.22,1104833.4,2023-05-10T12:05:40Z,1104839.886,NULL,Übersicht,kilindo,s,mgusano,chipukizi,kulinganisha,NA,sdf,NA,2,NA,NA,NA,NA,NA,NA,NA,NA,NA,NA,NA,NA,NA,NA,NA,NA,NA,NA,NA
7e639,task,flow.Sequence,5_0_2_0_1,NA,NA,completion,10566.751,1094248.3,1094239.803,1094256.469,1104823.22,1104833.6,2023-05-10T12:05:40Z,1104839.886,NULL,Übersicht,kilindo,s,mgusano,chipukizi,kulinganisha,NA,sdf,NA,2,NA,NA,NA,NA,NA,NA,NA,NA,NA,NA,NA,NA,NA,NA,NA,NA,NA,NA,NA
7e639,deep,flow.Sequence,5_0_2_0_2_0,NA,NA,skipped,NA,1104833.6,NA,NA,1104823.22,1104833.7,2023-05-10T12:05:40Z,1104839.886,NULL,Körper,kiwiliwili,s,mapambano,mpatanishi,kiolezo,NA,sdf,NA,2,NA,NA,NA,NA,NA,NA,NA,NA,NA,NA,NA,NA,NA,NA,NA,NA,NA,NA,NA
7e639,Shallow Question,html.Page,5_0_2_0_2_1_0,NA,NA,form submission,3238.5140000004,1104833.8,1104823.22,1104839.886,1108078.4,1108079,2023-05-10T12:05:43Z,1108089.756,NULL,Körper,kiwiliwili,s,mapambano,mpatanishi,kiolezo,kiwiliwili,NA,NA,2,NA,NA,NA,NA,NA,NA,NA,NA,NA,NA,NA,NA,NA,NA,NA,NA,NA,NA,NA
7e639,"""Richtig""-Screen",canvas.Screen,5_0_2_0_2_1_1,NA,NA,timeout,4999.8,1108080.4,1108073.09,1108089.756,1113072.89,1113077.1,2023-05-10T12:05:48Z,1113089.556,NULL,Körper,kiwiliwili,s,mapambano,mpatanishi,kiolezo,NA,sdf,1,2,NA,NA,NA,NA,NA,NA,NA,NA,NA,NA,NA,NA,NA,NA,NA,NA,NA,NA,NA
7e639,"""Falsch""-Screen",canvas.Screen,5_0_2_0_2_1_2,NA,NA,skipped,NA,1113081,NA,NA,1113072.89,1113081.2,2023-05-10T12:05:48Z,1113089.556,NULL,Körper,kiwiliwili,s,mapambano,mpatanishi,kiolezo,NA,sdf,NA,2,NA,NA,NA,NA,NA,NA,NA,NA,NA,NA,NA,NA,NA,NA,NA,NA,NA,NA,NA
7e639,shallow,flow.Sequence,5_0_2_0_2_1,NA,NA,completion,8233.004,1104833.8,1104823.22,1104839.886,1113072.89,1113081.2,2023-05-10T12:05:48Z,1113089.556,NULL,Körper,kiwiliwili,s,mapambano,mpatanishi,kiolezo,NA,sdf,NA,2,NA,NA,NA,NA,NA,NA,NA,NA,NA,NA,NA,NA,NA,NA,NA,NA,NA,NA,NA
7e639,task,flow.Sequence,5_0_2_0_2,NA,NA,completion,8233.004,1104833.6,1104823.22,1104839.886,1113072.89,1113081.3,2023-05-10T12:05:48Z,1113089.556,NULL,Körper,kiwiliwili,s,mapambano,mpatanishi,kiolezo,NA,sdf,NA,2,NA,NA,NA,NA,NA,NA,NA,NA,NA,NA,NA,NA,NA,NA,NA,NA,NA,NA,NA
7e639,deep,flow.Sequence,5_0_2_0_3_0,NA,NA,skipped,NA,1113081.5,NA,NA,1113072.89,1113081.5,2023-05-10T12:05:48Z,1113089.556,NULL,Symbol,kielezo,s,kinyume,nderemo,utayari,NA,sdf,NA,2,NA,NA,NA,NA,NA,NA,NA,NA,NA,NA,NA,NA,NA,NA,NA,NA,NA,NA,NA
7e639,Shallow Question,html.Page,5_0_2_0_3_1_0,NA,NA,form submission,2738.4439999999,1113081.6,1113072.89,1113089.556,1115828,1115828.5,2023-05-10T12:05:51Z,1115840.222,NULL,Symbol,kielezo,s,kinyume,nderemo,utayari,kielezo,NA,NA,2,NA,NA,NA,NA,NA,NA,NA,NA,NA,NA,NA,NA,NA,NA,NA,NA,NA,NA,NA
7e639,"""Richtig""-Screen",canvas.Screen,5_0_2_0_3_1_1,NA,NA,timeout,4999.8,1115829.7,1115823.556,1115840.222,1120823.356,1120827.4,2023-05-10T12:05:56Z,1120840.022,NULL,Symbol,kielezo,s,kinyume,nderemo,utayari,NA,sdf,1,2,NA,NA,NA,NA,NA,NA,NA,NA,NA,NA,NA,NA,NA,NA,NA,NA,NA,NA,NA
7e639,"""Falsch""-Screen",canvas.Screen,5_0_2_0_3_1_2,NA,NA,skipped,NA,1120832,NA,NA,1120823.356,1120832.3,2023-05-10T12:05:56Z,1120840.022,NULL,Symbol,kielezo,s,kinyume,nderemo,utayari,NA,sdf,NA,2,NA,NA,NA,NA,NA,NA,NA,NA,NA,NA,NA,NA,NA,NA,NA,NA,NA,NA,NA
7e639,shallow,flow.Sequence,5_0_2_0_3_1,NA,NA,completion,7733.7999999998,1113081.5,1113072.89,1113089.556,1120823.356,1120832.6,2023-05-10T12:05:56Z,1120840.022,NULL,Symbol,kielezo,s,kinyume,nderemo,utayari,NA,sdf,NA,2,NA,NA,NA,NA,NA,NA,NA,NA,NA,NA,NA,NA,NA,NA,NA,NA,NA,NA,NA
7e639,task,flow.Sequence,5_0_2_0_3,NA,NA,completion,7733.7999999998,1113081.5,1113072.89,1113089.556,1120823.356,1120832.7,2023-05-10T12:05:56Z,1120840.022,NULL,Symbol,kielezo,s,kinyume,nderemo,utayari,NA,sdf,NA,2,NA,NA,NA,NA,NA,NA,NA,NA,NA,NA,NA,NA,NA,NA,NA,NA,NA,NA,NA
7e639,Deep Question,html.Page,5_0_2_0_4_0_0,NA,NA,form submission,22175.378,1120832.8,1120823.356,1120840.022,1143015.4,1143015.6,2023-05-10T12:06:18Z,1143023.541,NULL,System,maongozi,d,NA,NA,NA,maongeza,NA,NA,2,NA,NA,NA,NA,NA,NA,NA,NA,NA,NA,NA,NA,NA,NA,NA,NA,NA,NA,NA
7e639,"""Richtig""-Screen",canvas.Screen,5_0_2_0_4_0_1,NA,NA,skipped,NA,1143018.2,NA,NA,1143015.4,1143018.3,2023-05-10T12:06:18Z,1143023.541,NULL,System,maongozi,d,NA,NA,NA,NA,sdf,NA,2,NA,NA,NA,NA,NA,NA,NA,NA,NA,NA,NA,NA,NA,NA,NA,NA,NA,NA,NA
7e639,"""Falsch""-Screen",canvas.Screen,5_0_2_0_4_0_2,NA,NA,timeout,4999.8,1143019,1143006.875,1143023.541,1148006.675,1148010.9,2023-05-10T12:06:23Z,1148023.341,NULL,System,maongozi,d,NA,NA,NA,NA,sdf,0,2,NA,NA,NA,NA,NA,NA,NA,NA,NA,NA,NA,NA,NA,NA,NA,NA,NA,NA,NA
7e639,deep,flow.Sequence,5_0_2_0_4_0,NA,NA,completion,27166.653,1120832.8,1120823.356,1120840.022,1148006.675,1148011.4,2023-05-10T12:06:23Z,1148023.341,NULL,System,maongozi,d,NA,NA,NA,NA,sdf,NA,2,NA,NA,NA,NA,NA,NA,NA,NA,NA,NA,NA,NA,NA,NA,NA,NA,NA,NA,NA
7e639,shallow,flow.Sequence,5_0_2_0_4_1,NA,NA,skipped,NA,1148011.5,NA,NA,1148006.675,1148011.7,2023-05-10T12:06:23Z,1148023.341,NULL,System,maongozi,d,NA,NA,NA,NA,sdf,NA,2,NA,NA,NA,NA,NA,NA,NA,NA,NA,NA,NA,NA,NA,NA,NA,NA,NA,NA,NA
7e639,task,flow.Sequence,5_0_2_0_4,NA,NA,completion,27166.653,1120832.7,1120823.356,1120840.022,1148006.675,1148011.9,2023-05-10T12:06:23Z,1148023.341,NULL,System,maongozi,d,NA,NA,NA,NA,sdf,NA,2,NA,NA,NA,NA,NA,NA,NA,NA,NA,NA,NA,NA,NA,NA,NA,NA,NA,NA,NA
7e639,Deep Question,html.Page,5_0_2_0_5_0_0,NA,NA,form submission,21466.659,1148012.1,1148006.675,1148023.341,1169490,1169490.5,2023-05-10T12:06:45Z,1169490.984,NULL,Vorsorge,tahadhari,d,NA,NA,NA,tahandari,NA,NA,2,NA,NA,NA,NA,NA,NA,NA,NA,NA,NA,NA,NA,NA,NA,NA,NA,NA,NA,NA
7e639,"""Richtig""-Screen",canvas.Screen,5_0_2_0_5_0_1,NA,NA,skipped,NA,1169494.7,NA,NA,1169490,1169494.9,2023-05-10T12:06:45Z,1169490.984,NULL,Vorsorge,tahadhari,d,NA,NA,NA,NA,sdf,NA,2,NA,NA,NA,NA,NA,NA,NA,NA,NA,NA,NA,NA,NA,NA,NA,NA,NA,NA,NA
7e639,"""Falsch""-Screen",canvas.Screen,5_0_2_0_5_0_2,NA,NA,timeout,4999.8,1169495.9,1169474.318,1169490.984,1174474.118,1174476.8,2023-05-10T12:06:50Z,1174490.784,NULL,Vorsorge,tahadhari,d,NA,NA,NA,NA,sdf,0,2,NA,NA,NA,NA,NA,NA,NA,NA,NA,NA,NA,NA,NA,NA,NA,NA,NA,NA,NA
7e639,deep,flow.Sequence,5_0_2_0_5_0,NA,NA,completion,26450.777,1148012,1148006.675,1148023.341,1174474.118,1174477.3,2023-05-10T12:06:50Z,1174490.784,NULL,Vorsorge,tahadhari,d,NA,NA,NA,NA,sdf,NA,2,NA,NA,NA,NA,NA,NA,NA,NA,NA,NA,NA,NA,NA,NA,NA,NA,NA,NA,NA
7e639,shallow,flow.Sequence,5_0_2_0_5_1,NA,NA,skipped,NA,1174477.4,NA,NA,1174474.118,1174477.5,2023-05-10T12:06:50Z,1174490.784,NULL,Vorsorge,tahadhari,d,NA,NA,NA,NA,sdf,NA,2,NA,NA,NA,NA,NA,NA,NA,NA,NA,NA,NA,NA,NA,NA,NA,NA,NA,NA,NA
7e639,task,flow.Sequence,5_0_2_0_5,NA,NA,completion,26450.777,1148012,1148006.675,1148023.341,1174474.118,1174477.7,2023-05-10T12:06:50Z,1174490.784,NULL,Vorsorge,tahadhari,d,NA,NA,NA,NA,sdf,NA,2,NA,NA,NA,NA,NA,NA,NA,NA,NA,NA,NA,NA,NA,NA,NA,NA,NA,NA,NA
7e639,Deep Question,html.Page,5_0_2_0_6_0_0,NA,NA,form submission,13915.216,1174477.9,1174474.118,1174490.784,1188406,1188406.6,2023-05-10T12:07:04Z,1188407.478,NULL,Lawine,banguko,d,NA,NA,NA,banguko,NA,NA,2,NA,NA,NA,NA,NA,NA,NA,NA,NA,NA,NA,NA,NA,NA,NA,NA,NA,NA,NA
7e639,"""Richtig""-Screen",canvas.Screen,5_0_2_0_6_0_1,NA,NA,timeout,5000.2780000002,1188409.7,1188390.812,1188407.478,1193391.09,1193394.2,2023-05-10T12:07:09Z,1193407.756,NULL,Lawine,banguko,d,NA,NA,NA,NA,sdf,1,2,NA,NA,NA,NA,NA,NA,NA,NA,NA,NA,NA,NA,NA,NA,NA,NA,NA,NA,NA
7e639,"""Falsch""-Screen",canvas.Screen,5_0_2_0_6_0_2,NA,NA,skipped,NA,1193399,NA,NA,1193391.09,1193399.2,2023-05-10T12:07:09Z,1193407.756,NULL,Lawine,banguko,d,NA,NA,NA,NA,sdf,NA,2,NA,NA,NA,NA,NA,NA,NA,NA,NA,NA,NA,NA,NA,NA,NA,NA,NA,NA,NA
7e639,deep,flow.Sequence,5_0_2_0_6_0,NA,NA,completion,18900.306,1174477.9,1174474.118,1174490.784,1193391.09,1193399.4,2023-05-10T12:07:09Z,1193407.756,NULL,Lawine,banguko,d,NA,NA,NA,NA,sdf,NA,2,NA,NA,NA,NA,NA,NA,NA,NA,NA,NA,NA,NA,NA,NA,NA,NA,NA,NA,NA
7e639,shallow,flow.Sequence,5_0_2_0_6_1,NA,NA,skipped,NA,1193399.5,NA,NA,1193391.09,1193399.5,2023-05-10T12:07:09Z,1193407.756,NULL,Lawine,banguko,d,NA,NA,NA,NA,sdf,NA,2,NA,NA,NA,NA,NA,NA,NA,NA,NA,NA,NA,NA,NA,NA,NA,NA,NA,NA,NA
7e639,task,flow.Sequence,5_0_2_0_6,NA,NA,completion,18900.306,1174477.9,1174474.118,1174490.784,1193391.09,1193399.6,2023-05-10T12:07:09Z,1193407.756,NULL,Lawine,banguko,d,NA,NA,NA,NA,sdf,NA,2,NA,NA,NA,NA,NA,NA,NA,NA,NA,NA,NA,NA,NA,NA,NA,NA,NA,NA,NA
7e639,Deep Question,html.Page,5_0_2_0_7_0_0,NA,NA,form submission,7604.3440000014,1193399.7,1193391.09,1193407.756,1201012.1,1201012.5,2023-05-10T12:07:16Z,1201024.653,NULL,Konkurrent,mshindani,d,NA,NA,NA,mshdawi,NA,NA,2,NA,NA,NA,NA,NA,NA,NA,NA,NA,NA,NA,NA,NA,NA,NA,NA,NA,NA,NA
7e639,"""Richtig""-Screen",canvas.Screen,5_0_2_0_7_0_1,NA,NA,skipped,NA,1201015.1,NA,NA,1201012.1,1201015.1,2023-05-10T12:07:16Z,1201024.653,NULL,Konkurrent,mshindani,d,NA,NA,NA,NA,sdf,NA,2,NA,NA,NA,NA,NA,NA,NA,NA,NA,NA,NA,NA,NA,NA,NA,NA,NA,NA,NA
7e639,"""Falsch""-Screen",canvas.Screen,5_0_2_0_7_0_2,NA,NA,timeout,4999.8,1201015.8,1201007.987,1201024.653,1206007.787,1206009.3,2023-05-10T12:07:21Z,1206024.453,NULL,Konkurrent,mshindani,d,NA,NA,NA,NA,sdf,0,2,NA,NA,NA,NA,NA,NA,NA,NA,NA,NA,NA,NA,NA,NA,NA,NA,NA,NA,NA
7e639,deep,flow.Sequence,5_0_2_0_7_0,NA,NA,completion,12600.031,1193399.6,1193391.09,1193407.756,1206007.787,1206009.7,2023-05-10T12:07:21Z,1206024.453,NULL,Konkurrent,mshindani,d,NA,NA,NA,NA,sdf,NA,2,NA,NA,NA,NA,NA,NA,NA,NA,NA,NA,NA,NA,NA,NA,NA,NA,NA,NA,NA
7e639,shallow,flow.Sequence,5_0_2_0_7_1,NA,NA,skipped,NA,1206010,NA,NA,1206007.787,1206010.1,2023-05-10T12:07:21Z,1206024.453,NULL,Konkurrent,mshindani,d,NA,NA,NA,NA,sdf,NA,2,NA,NA,NA,NA,NA,NA,NA,NA,NA,NA,NA,NA,NA,NA,NA,NA,NA,NA,NA
7e639,task,flow.Sequence,5_0_2_0_7,NA,NA,completion,12600.031,1193399.6,1193391.09,1193407.756,1206007.787,1206010.3,2023-05-10T12:07:21Z,1206024.453,NULL,Konkurrent,mshindani,d,NA,NA,NA,NA,sdf,NA,2,NA,NA,NA,NA,NA,NA,NA,NA,NA,NA,NA,NA,NA,NA,NA,NA,NA,NA,NA
7e639,block,flow.Loop,5_0_2_0,NA,NA,completion,121334.849,1084659.7,1084656.272,1084672.938,1206007.787,1206010.7,2023-05-10T12:07:21Z,1206024.453,NULL,NA,NA,NA,NA,NA,NA,NA,sdf,NA,2,NA,NA,NA,NA,NA,NA,NA,NA,NA,NA,NA,NA,NA,NA,NA,NA,NA,NA,NA
7e639,weiter,canvas.Screen,5_0_2_1,sdf,keypress(Space),response,2006.6470000015,1206010.9,1206007.787,1206024.453,1208031.1,1208036.7,2023-05-10T12:07:23Z,1208074.371,NULL,NA,NA,NA,NA,NA,NA,NA,sdf,NA,2,NA,NA,NA,NA,NA,NA,NA,NA,NA,NA,NA,NA,NA,NA,NA,NA,NA,NA,NA
7e639,check continue,flow.Sequence,5_0_2,NA,NA,completion,123358.162,1084659.6,1084656.272,1084672.938,1208031.1,1208037,2023-05-10T12:07:23Z,1208074.371,NULL,NA,NA,NA,NA,NA,NA,NA,sdf,NA,2,NA,NA,NA,NA,NA,NA,NA,NA,NA,NA,NA,NA,NA,NA,NA,NA,NA,NA,NA
7e639,deep,flow.Sequence,5_0_3_0_0_0,NA,NA,skipped,NA,1208061.6,NA,NA,1208031.1,1208061.7,2023-05-10T12:07:23Z,1208074.371,NULL,Zuwachs,nyongeza,s,matilaba,udhibiti,hudhurio,NA,qt,NA,3,NA,NA,NA,NA,NA,NA,NA,NA,NA,NA,NA,NA,NA,NA,NA,NA,NA,NA,NA
7e639,Shallow Question,html.Page,5_0_3_0_0_1_0,NA,NA,form submission,15463.629,1208061.8,1208057.705,1208074.371,1223538,1223538.4,2023-05-10T12:07:39Z,1223541.566,NULL,Zuwachs,nyongeza,s,matilaba,udhibiti,hudhurio,nyongeza,NA,NA,3,NA,NA,NA,NA,NA,NA,NA,NA,NA,NA,NA,NA,NA,NA,NA,NA,NA,NA,NA
