observation,sender,sender_type,sender_id,response,response_action,ended_on,duration,time_run,time_render,time_show,time_end,time_commit,timestamp,time_switch,distractors,german,swahili,enc,distractor1,distractor2,distractor3,response_2,x,correct,x_2,url_vp,url_sess,meta_labjs_version,meta_location,meta_user_agent,meta_platform,meta_language,meta_locale,meta_time_zone,meta_timezone_offset,meta_screen_width,meta_screen_height,meta_scroll_width,meta_scroll_height,meta_window_inner_width,meta_window_inner_height,meta_device_pixel_ratio,meta_labjs_build_flavor,meta_labjs_build_commit
ec5f7,Introduction general,canvas.Screen,0,weiter,keypress(q),response,194068.96100005,1018.7000000477,1006.904,1090.239,195159.20000005,195163.70000005,2023-05-18T11:57:09Z,195169.988,NULL,NA,NA,NA,NA,NA,NA,NA,NA,NA,NA,127,1,20.2.4,https://neurocog.fernuni.ch/studies/vweber/encoding_immediate/index.html?vp=127&sess=1,"Mozilla/5.0 (Macintosh; Intel Mac OS X 10_15_7) AppleWebKit/537.36 (KHTML, like Gecko) Chrome/113.0.0.0 Safari/537.36",MacIntel,de-DE,de,Europe/Zurich,-120,1440,900,1440,749,1440,797,1,production,f5b4a49f956347addd546a832a3327688c2c0fef
ec5f7,Introduction practice,canvas.Screen,1_0,NA,keypress(Space),response,22570.612000024,195163.9000001,195153.321,195169.988,217740.60000002,217745.20000005,2023-05-18T11:57:32Z,217753.773,NULL,NA,NA,NA,NA,NA,NA,NA,NA,NA,NA,NA,NA,NA,NA,NA,NA,NA,NA,NA,NA,NA,NA,NA,NA,NA,NA,NA,NA,NA
ec5f7,deep,flow.Sequence,1_1_0_0,NA,NA,skipped,NA,217745.60000002,NA,NA,217740.60000002,217748.10000002,2023-05-18T11:57:32Z,217753.773,"c(""distractor1"", ""distractor2"", ""distractor3"")",Gegenwart,hadhara,s,katiba,jokofu,mikopo,NA,NA,NA,NA,NA,NA,NA,NA,NA,NA,NA,NA,NA,NA,NA,NA,NA,NA,NA,NA,NA,NA,NA
ec5f7,Shallow Question,html.Page,1_1_0_1_0,NA,NA,form submission,7314.1270000954,217748.4000001,217737.106,217753.773,225067.9000001,225068.30000007,2023-05-18T11:57:39Z,225071.806,"c(""distractor1"", ""distractor2"", ""distractor3"")",Gegenwart,hadhara,s,katiba,jokofu,mikopo,mikopo,NA,NA,NA,NA,NA,NA,NA,NA,NA,NA,NA,NA,NA,NA,NA,NA,NA,NA,NA,NA,NA,NA
ec5f7,"""Richtig""-Screen",canvas.Screen,1_1_0_1_1,NA,NA,skipped,NA,225070.60000002,NA,NA,225067.9000001,225071,2023-05-18T11:57:39Z,225071.806,"c(""distractor1"", ""distractor2"", ""distractor3"")",Gegenwart,hadhara,s,katiba,jokofu,mikopo,NA,NA,NA,NA,NA,NA,NA,NA,NA,NA,NA,NA,NA,NA,NA,NA,NA,NA,NA,NA,NA,NA,NA
ec5f7,"""Falsch""-Screen",canvas.Screen,1_1_0_1_2,NA,NA,timeout,5000.1,225074.20000005,225055.139,225071.806,230055.239,230060.60000002,2023-05-18T11:57:44Z,230071.906,"c(""distractor1"", ""distractor2"", ""distractor3"")",Gegenwart,hadhara,s,katiba,jokofu,mikopo,NA,NA,0,NA,NA,NA,NA,NA,NA,NA,NA,NA,NA,NA,NA,NA,NA,NA,NA,NA,NA,NA,NA
ec5f7,shallow,flow.Sequence,1_1_0_1,NA,NA,completion,12301.466,217748.30000007,217737.106,217753.773,230055.239,230061,2023-05-18T11:57:44Z,230071.906,"c(""distractor1"", ""distractor2"", ""distractor3"")",Gegenwart,hadhara,s,katiba,jokofu,mikopo,NA,NA,NA,NA,NA,NA,NA,NA,NA,NA,NA,NA,NA,NA,NA,NA,NA,NA,NA,NA,NA,NA,NA
ec5f7,task,flow.Sequence,1_1_0,NA,NA,completion,12301.466,217745.60000002,217737.106,217753.773,230055.239,230061.20000005,2023-05-18T11:57:44Z,230071.906,"c(""distractor1"", ""distractor2"", ""distractor3"")",Gegenwart,hadhara,s,katiba,jokofu,mikopo,NA,NA,NA,NA,NA,NA,NA,NA,NA,NA,NA,NA,NA,NA,NA,NA,NA,NA,NA,NA,NA,NA,NA
ec5f7,Deep Question,html.Page,1_1_1_0_0,NA,NA,form submission,9329.8940000715,230061.5,230055.239,230071.906,239401.80000007,239402.30000007,2023-05-18T11:57:54Z,239406.011,"c(""distractor1"", ""distractor2"", ""distractor3"")",Schatten,kivuli,d,NA,NA,NA,b,NA,NA,NA,NA,NA,NA,NA,NA,NA,NA,NA,NA,NA,NA,NA,NA,NA,NA,NA,NA,NA,NA
ec5f7,"""Richtig""-Screen",canvas.Screen,1_1_1_0_1,NA,NA,skipped,NA,239406.4000001,NA,NA,239401.80000007,239406.80000007,2023-05-18T11:57:54Z,239406.011,"c(""distractor1"", ""distractor2"", ""distractor3"")",Schatten,kivuli,d,NA,NA,NA,NA,NA,NA,NA,NA,NA,NA,NA,NA,NA,NA,NA,NA,NA,NA,NA,NA,NA,NA,NA,NA,NA,NA
ec5f7,"""Falsch""-Screen",canvas.Screen,1_1_1_0_2,NA,NA,timeout,5000.1,239408.60000002,239389.344,239406.011,244389.444,244393.60000002,2023-05-18T11:57:59Z,244406.111,"c(""distractor1"", ""distractor2"", ""distractor3"")",Schatten,kivuli,d,NA,NA,NA,NA,NA,0,NA,NA,NA,NA,NA,NA,NA,NA,NA,NA,NA,NA,NA,NA,NA,NA,NA,NA,NA,NA
ec5f7,deep,flow.Sequence,1_1_1_0,NA,NA,completion,14317.538,230061.4000001,230055.239,230071.906,244389.444,244394,2023-05-18T11:57:59Z,244406.111,"c(""distractor1"", ""distractor2"", ""distractor3"")",Schatten,kivuli,d,NA,NA,NA,NA,NA,NA,NA,NA,NA,NA,NA,NA,NA,NA,NA,NA,NA,NA,NA,NA,NA,NA,NA,NA,NA,NA
ec5f7,shallow,flow.Sequence,1_1_1_1,NA,NA,skipped,NA,244394.30000007,NA,NA,244389.444,244394.4000001,2023-05-18T11:57:59Z,244406.111,"c(""distractor1"", ""distractor2"", ""distractor3"")",Schatten,kivuli,d,NA,NA,NA,NA,NA,NA,NA,NA,NA,NA,NA,NA,NA,NA,NA,NA,NA,NA,NA,NA,NA,NA,NA,NA,NA,NA
ec5f7,task,flow.Sequence,1_1_1,NA,NA,completion,14317.538,230061.4000001,230055.239,230071.906,244389.444,244394.80000007,2023-05-18T11:57:59Z,244406.111,"c(""distractor1"", ""distractor2"", ""distractor3"")",Schatten,kivuli,d,NA,NA,NA,NA,NA,NA,NA,NA,NA,NA,NA,NA,NA,NA,NA,NA,NA,NA,NA,NA,NA,NA,NA,NA,NA,NA
ec5f7,deep,flow.Sequence,1_1_2_0,NA,NA,skipped,NA,244395,NA,NA,244389.444,244395.20000005,2023-05-18T11:57:59Z,244406.111,"c(""distractor1"", ""distractor2"", ""distractor3"")",Rückhalt,msaada,s,muhula,auwali,kiwimbe,NA,NA,NA,NA,NA,NA,NA,NA,NA,NA,NA,NA,NA,NA,NA,NA,NA,NA,NA,NA,NA,NA,NA
ec5f7,Shallow Question,html.Page,1_1_2_1_0,NA,NA,form submission,4501.1890000715,244395.30000007,244389.444,244406.111,248907.30000007,248907.70000005,2023-05-18T11:58:03Z,248923.548,"c(""distractor1"", ""distractor2"", ""distractor3"")",Rückhalt,msaada,s,muhula,auwali,kiwimbe,muhula,NA,NA,NA,NA,NA,NA,NA,NA,NA,NA,NA,NA,NA,NA,NA,NA,NA,NA,NA,NA,NA,NA
ec5f7,"""Richtig""-Screen",canvas.Screen,1_1_2_1_1,NA,NA,skipped,NA,248910.9000001,NA,NA,248907.30000007,248911.10000002,2023-05-18T11:58:03Z,248923.548,"c(""distractor1"", ""distractor2"", ""distractor3"")",Rückhalt,msaada,s,muhula,auwali,kiwimbe,NA,NA,NA,NA,NA,NA,NA,NA,NA,NA,NA,NA,NA,NA,NA,NA,NA,NA,NA,NA,NA,NA,NA
ec5f7,"""Falsch""-Screen",canvas.Screen,1_1_2_1_2,NA,NA,timeout,5000.1,248912.5,248906.881,248923.548,253906.981,253909.60000002,2023-05-18T11:58:08Z,253923.648,"c(""distractor1"", ""distractor2"", ""distractor3"")",Rückhalt,msaada,s,muhula,auwali,kiwimbe,NA,NA,0,NA,NA,NA,NA,NA,NA,NA,NA,NA,NA,NA,NA,NA,NA,NA,NA,NA,NA,NA,NA
ec5f7,shallow,flow.Sequence,1_1_2_1,NA,NA,completion,9500.87,244395.30000007,244389.444,244406.111,253906.981,253910,2023-05-18T11:58:08Z,253923.648,"c(""distractor1"", ""distractor2"", ""distractor3"")",Rückhalt,msaada,s,muhula,auwali,kiwimbe,NA,NA,NA,NA,NA,NA,NA,NA,NA,NA,NA,NA,NA,NA,NA,NA,NA,NA,NA,NA,NA,NA,NA
ec5f7,task,flow.Sequence,1_1_2,NA,NA,completion,9500.87,244394.9000001,244389.444,244406.111,253906.981,253910.20000005,2023-05-18T11:58:08Z,253923.648,"c(""distractor1"", ""distractor2"", ""distractor3"")",Rückhalt,msaada,s,muhula,auwali,kiwimbe,NA,NA,NA,NA,NA,NA,NA,NA,NA,NA,NA,NA,NA,NA,NA,NA,NA,NA,NA,NA,NA,NA,NA
ec5f7,deep,flow.Sequence,1_1_3_0,NA,NA,skipped,NA,253910.30000007,NA,NA,253906.981,253910.5,2023-05-18T11:58:08Z,253923.648,"c(""distractor1"", ""distractor2"", ""distractor3"")",Kritik,lawama,s,dereva,nafasi,mawazo,NA,NA,NA,NA,NA,NA,NA,NA,NA,NA,NA,NA,NA,NA,NA,NA,NA,NA,NA,NA,NA,NA,NA
ec5f7,Shallow Question,html.Page,1_1_3_1_0,NA,NA,form submission,3781.5520000477,253910.60000002,253906.981,253923.648,257705.20000005,257705.60000002,2023-05-18T11:58:12Z,257707.6,"c(""distractor1"", ""distractor2"", ""distractor3"")",Kritik,lawama,s,dereva,nafasi,mawazo,mawazo,NA,NA,NA,NA,NA,NA,NA,NA,NA,NA,NA,NA,NA,NA,NA,NA,NA,NA,NA,NA,NA,NA
ec5f7,"""Richtig""-Screen",canvas.Screen,1_1_3_1_1,NA,NA,skipped,NA,257708.80000007,NA,NA,257705.20000005,257708.9000001,2023-05-18T11:58:12Z,257707.6,"c(""distractor1"", ""distractor2"", ""distractor3"")",Kritik,lawama,s,dereva,nafasi,mawazo,NA,NA,NA,NA,NA,NA,NA,NA,NA,NA,NA,NA,NA,NA,NA,NA,NA,NA,NA,NA,NA,NA,NA
ec5f7,"""Falsch""-Screen",canvas.Screen,1_1_3_1_2,NA,NA,timeout,5000.1,257710.10000002,257690.933,257707.6,262691.033,262692.60000002,2023-05-18T11:58:17Z,262707.7,"c(""distractor1"", ""distractor2"", ""distractor3"")",Kritik,lawama,s,dereva,nafasi,mawazo,NA,NA,0,NA,NA,NA,NA,NA,NA,NA,NA,NA,NA,NA,NA,NA,NA,NA,NA,NA,NA,NA,NA
ec5f7,shallow,flow.Sequence,1_1_3_1,NA,NA,completion,8767.385,253910.5,253906.981,253923.648,262691.033,262692.9000001,2023-05-18T11:58:17Z,262707.7,"c(""distractor1"", ""distractor2"", ""distractor3"")",Kritik,lawama,s,dereva,nafasi,mawazo,NA,NA,NA,NA,NA,NA,NA,NA,NA,NA,NA,NA,NA,NA,NA,NA,NA,NA,NA,NA,NA,NA,NA
ec5f7,task,flow.Sequence,1_1_3,NA,NA,completion,8767.385,253910.20000005,253906.981,253923.648,262691.033,262693.10000002,2023-05-18T11:58:17Z,262707.7,"c(""distractor1"", ""distractor2"", ""distractor3"")",Kritik,lawama,s,dereva,nafasi,mawazo,NA,NA,NA,NA,NA,NA,NA,NA,NA,NA,NA,NA,NA,NA,NA,NA,NA,NA,NA,NA,NA,NA,NA
ec5f7,Deep Question,html.Page,1_1_4_0_0,NA,NA,form submission,3649.8,262693.30000007,262691.033,262707.7,266357.5,266358,2023-05-18T11:58:20Z,266374.938,"c(""distractor1"", ""distractor2"", ""distractor3"")",Qualität,mtindo,d,NA,NA,NA,b,NA,NA,NA,NA,NA,NA,NA,NA,NA,NA,NA,NA,NA,NA,NA,NA,NA,NA,NA,NA,NA,NA
ec5f7,"""Richtig""-Screen",canvas.Screen,1_1_4_0_1,NA,NA,skipped,NA,266362.10000002,NA,NA,266357.5,266362.4000001,2023-05-18T11:58:20Z,266374.938,"c(""distractor1"", ""distractor2"", ""distractor3"")",Qualität,mtindo,d,NA,NA,NA,NA,NA,NA,NA,NA,NA,NA,NA,NA,NA,NA,NA,NA,NA,NA,NA,NA,NA,NA,NA,NA,NA,NA
ec5f7,"""Falsch""-Screen",canvas.Screen,1_1_4_0_2,NA,NA,timeout,5000.1,266363.60000002,266357.773,266374.938,271358.371,271361.5,2023-05-18T11:58:25Z,271375.038,"c(""distractor1"", ""distractor2"", ""distractor3"")",Qualität,mtindo,d,NA,NA,NA,NA,NA,0,NA,NA,NA,NA,NA,NA,NA,NA,NA,NA,NA,NA,NA,NA,NA,NA,NA,NA,NA,NA
ec5f7,deep,flow.Sequence,1_1_4_0,NA,NA,completion,8650.671,262693.20000005,262691.033,262707.7,271358.371,271361.80000007,2023-05-18T11:58:25Z,271375.038,"c(""distractor1"", ""distractor2"", ""distractor3"")",Qualität,mtindo,d,NA,NA,NA,NA,NA,NA,NA,NA,NA,NA,NA,NA,NA,NA,NA,NA,NA,NA,NA,NA,NA,NA,NA,NA,NA,NA
ec5f7,shallow,flow.Sequence,1_1_4_1,NA,NA,skipped,NA,271361.9000001,NA,NA,271358.371,271362.10000002,2023-05-18T11:58:25Z,271375.038,"c(""distractor1"", ""distractor2"", ""distractor3"")",Qualität,mtindo,d,NA,NA,NA,NA,NA,NA,NA,NA,NA,NA,NA,NA,NA,NA,NA,NA,NA,NA,NA,NA,NA,NA,NA,NA,NA,NA
ec5f7,task,flow.Sequence,1_1_4,NA,NA,completion,8650.671,262693.20000005,262691.033,262707.7,271358.371,271362.20000005,2023-05-18T11:58:25Z,271375.038,"c(""distractor1"", ""distractor2"", ""distractor3"")",Qualität,mtindo,d,NA,NA,NA,NA,NA,NA,NA,NA,NA,NA,NA,NA,NA,NA,NA,NA,NA,NA,NA,NA,NA,NA,NA,NA,NA,NA
ec5f7,Deep Question,html.Page,1_1_5_0_0,NA,NA,form submission,4869.0620000238,271362.5,271358.371,271375.038,276244.10000002,276244.60000002,2023-05-18T11:58:30Z,276258.469,"c(""distractor1"", ""distractor2"", ""distractor3"")",Gesundheit,salama,d,NA,NA,NA,n,NA,NA,NA,NA,NA,NA,NA,NA,NA,NA,NA,NA,NA,NA,NA,NA,NA,NA,NA,NA,NA,NA
ec5f7,"""Richtig""-Screen",canvas.Screen,1_1_5_0_1,NA,NA,skipped,NA,276247.80000007,NA,NA,276244.10000002,276248.10000002,2023-05-18T11:58:30Z,276258.469,"c(""distractor1"", ""distractor2"", ""distractor3"")",Gesundheit,salama,d,NA,NA,NA,NA,NA,NA,NA,NA,NA,NA,NA,NA,NA,NA,NA,NA,NA,NA,NA,NA,NA,NA,NA,NA,NA,NA
ec5f7,"""Falsch""-Screen",canvas.Screen,1_1_5_0_2,NA,NA,timeout,5000.1,276249.10000002,276241.802,276258.469,281241.902,281245.4000001,2023-05-18T11:58:35Z,281258.569,"c(""distractor1"", ""distractor2"", ""distractor3"")",Gesundheit,salama,d,NA,NA,NA,NA,NA,0,NA,NA,NA,NA,NA,NA,NA,NA,NA,NA,NA,NA,NA,NA,NA,NA,NA,NA,NA,NA
ec5f7,deep,flow.Sequence,1_1_5_0,NA,NA,completion,9866.864,271362.5,271358.371,271375.038,281241.902,281245.80000007,2023-05-18T11:58:35Z,281258.569,"c(""distractor1"", ""distractor2"", ""distractor3"")",Gesundheit,salama,d,NA,NA,NA,NA,NA,NA,NA,NA,NA,NA,NA,NA,NA,NA,NA,NA,NA,NA,NA,NA,NA,NA,NA,NA,NA,NA
ec5f7,shallow,flow.Sequence,1_1_5_1,NA,NA,skipped,NA,281245.9000001,NA,NA,281241.902,281246,2023-05-18T11:58:35Z,281258.569,"c(""distractor1"", ""distractor2"", ""distractor3"")",Gesundheit,salama,d,NA,NA,NA,NA,NA,NA,NA,NA,NA,NA,NA,NA,NA,NA,NA,NA,NA,NA,NA,NA,NA,NA,NA,NA,NA,NA
ec5f7,task,flow.Sequence,1_1_5,NA,NA,completion,9866.864,271362.4000001,271358.371,271375.038,281241.902,281246.20000005,2023-05-18T11:58:35Z,281258.569,"c(""distractor1"", ""distractor2"", ""distractor3"")",Gesundheit,salama,d,NA,NA,NA,NA,NA,NA,NA,NA,NA,NA,NA,NA,NA,NA,NA,NA,NA,NA,NA,NA,NA,NA,NA,NA,NA,NA
ec5f7,block,flow.Loop,1_1,NA,NA,completion,63488.129,217745.60000002,217737.106,217753.773,281241.902,281246.4000001,2023-05-18T11:58:35Z,281258.569,"c(""distractor1"", ""distractor2"", ""distractor3"")",NA,NA,NA,NA,NA,NA,NA,NA,NA,NA,NA,NA,NA,NA,NA,NA,NA,NA,NA,NA,NA,NA,NA,NA,NA,NA,NA,NA,NA
ec5f7,Practice,flow.Sequence,1,NA,NA,completion,86071.914,195163.9000001,195153.321,195169.988,281241.902,281246.60000002,2023-05-18T11:58:35Z,281258.569,NULL,NA,NA,NA,NA,NA,NA,NA,NA,NA,NA,NA,NA,NA,NA,NA,NA,NA,NA,NA,NA,NA,NA,NA,NA,NA,NA,NA,NA,NA
ec5f7,Experiment start,canvas.Screen,2,weiter,keypress(q),response,34387.031000024,281246.70000005,281241.902,281258.569,315645.60000002,315651,2023-05-18T11:59:10Z,315776.633,NULL,NA,NA,NA,NA,NA,NA,NA,NA,NA,NA,NA,NA,NA,NA,NA,NA,NA,NA,NA,NA,NA,NA,NA,NA,NA,NA,NA,NA,NA
ec5f7,deep,flow.Sequence,3_0_0_0_0_0,NA,NA,skipped,NA,315767.80000007,NA,NA,315645.60000002,315774.20000005,2023-05-18T11:59:10Z,315776.633,NULL,Erneuerung,ukarabati,s,ushawishi,ukalifu,unyonyaji,NA,sdf,NA,0,NA,NA,NA,NA,NA,NA,NA,NA,NA,NA,NA,NA,NA,NA,NA,NA,NA,NA,NA
ec5f7,Shallow Question,html.Page,3_0_0_0_0_1_0,NA,NA,form submission,12196.967000024,315774.20000005,315759.966,315776.633,327973.60000002,327974,2023-05-18T11:59:22Z,327979.029,NULL,Erneuerung,ukarabati,s,ushawishi,ukalifu,unyonyaji,ukarabati,NA,NA,0,NA,NA,NA,NA,NA,NA,NA,NA,NA,NA,NA,NA,NA,NA,NA,NA,NA,NA,NA
ec5f7,"""Richtig""-Screen",canvas.Screen,3_0_0_0_0_1_1,NA,NA,timeout,5000.1,327977.4000001,327962.362,327979.029,332962.462,332967.10000002,2023-05-18T11:59:27Z,332979.129,NULL,Erneuerung,ukarabati,s,ushawishi,ukalifu,unyonyaji,NA,sdf,1,0,NA,NA,NA,NA,NA,NA,NA,NA,NA,NA,NA,NA,NA,NA,NA,NA,NA,NA,NA
ec5f7,"""Falsch""-Screen",canvas.Screen,3_0_0_0_0_1_2,NA,NA,skipped,NA,332970.20000005,NA,NA,332962.462,332970.5,2023-05-18T11:59:27Z,332979.129,NULL,Erneuerung,ukarabati,s,ushawishi,ukalifu,unyonyaji,NA,sdf,NA,0,NA,NA,NA,NA,NA,NA,NA,NA,NA,NA,NA,NA,NA,NA,NA,NA,NA,NA,NA
ec5f7,shallow,flow.Sequence,3_0_0_0_0_1,NA,NA,completion,17185.829,315774.20000005,315759.966,315776.633,332962.462,332970.70000005,2023-05-18T11:59:27Z,332979.129,NULL,Erneuerung,ukarabati,s,ushawishi,ukalifu,unyonyaji,NA,sdf,NA,0,NA,NA,NA,NA,NA,NA,NA,NA,NA,NA,NA,NA,NA,NA,NA,NA,NA,NA,NA
ec5f7,task,flow.Sequence,3_0_0_0_0,NA,NA,completion,17185.829,315767.70000005,315759.966,315776.633,332962.462,332971,2023-05-18T11:59:27Z,332979.129,NULL,Erneuerung,ukarabati,s,ushawishi,ukalifu,unyonyaji,NA,sdf,NA,0,NA,NA,NA,NA,NA,NA,NA,NA,NA,NA,NA,NA,NA,NA,NA,NA,NA,NA,NA
ec5f7,Deep Question,html.Page,3_0_0_0_1_0_0,NA,NA,form submission,4401.871,332971.10000002,332962.462,332979.129,337381,337381.4000001,2023-05-18T11:59:32Z,337396.365,NULL,Flexibilität,kubadilika,d,NA,NA,NA,b,NA,NA,0,NA,NA,NA,NA,NA,NA,NA,NA,NA,NA,NA,NA,NA,NA,NA,NA,NA,NA,NA
ec5f7,"""Richtig""-Screen",canvas.Screen,3_0_0_0_1_0_1,NA,NA,skipped,NA,337385.30000007,NA,NA,337381,337385.5,2023-05-18T11:59:32Z,337396.365,NULL,Flexibilität,kubadilika,d,NA,NA,NA,NA,sdf,NA,0,NA,NA,NA,NA,NA,NA,NA,NA,NA,NA,NA,NA,NA,NA,NA,NA,NA,NA,NA
ec5f7,"""Falsch""-Screen",canvas.Screen,3_0_0_0_1_0_2,NA,NA,timeout,5000.1,337386.60000002,337379.698,337396.365,342379.798,342381.5,2023-05-18T11:59:37Z,342396.465,NULL,Flexibilität,kubadilika,d,NA,NA,NA,NA,sdf,0,0,NA,NA,NA,NA,NA,NA,NA,NA,NA,NA,NA,NA,NA,NA,NA,NA,NA,NA,NA
ec5f7,deep,flow.Sequence,3_0_0_0_1_0,NA,NA,completion,9400.669,332971.10000002,332962.462,332979.129,342379.798,342381.70000005,2023-05-18T11:59:37Z,342396.465,NULL,Flexibilität,kubadilika,d,NA,NA,NA,NA,sdf,NA,0,NA,NA,NA,NA,NA,NA,NA,NA,NA,NA,NA,NA,NA,NA,NA,NA,NA,NA,NA
ec5f7,shallow,flow.Sequence,3_0_0_0_1_1,NA,NA,skipped,NA,342381.80000007,NA,NA,342379.798,342382,2023-05-18T11:59:37Z,342396.465,NULL,Flexibilität,kubadilika,d,NA,NA,NA,NA,sdf,NA,0,NA,NA,NA,NA,NA,NA,NA,NA,NA,NA,NA,NA,NA,NA,NA,NA,NA,NA,NA
ec5f7,task,flow.Sequence,3_0_0_0_1,NA,NA,completion,9400.669,332971,332962.462,332979.129,342379.798,342382.20000005,2023-05-18T11:59:37Z,342396.465,NULL,Flexibilität,kubadilika,d,NA,NA,NA,NA,sdf,NA,0,NA,NA,NA,NA,NA,NA,NA,NA,NA,NA,NA,NA,NA,NA,NA,NA,NA,NA,NA
ec5f7,Deep Question,html.Page,3_0_0_0_2_0_0,NA,NA,form submission,3153.035,342382.30000007,342379.798,342396.465,345549.5,345550.10000002,2023-05-18T11:59:40Z,345563.195,NULL,Schock,mshtuko,d,NA,NA,NA,b,NA,NA,0,NA,NA,NA,NA,NA,NA,NA,NA,NA,NA,NA,NA,NA,NA,NA,NA,NA,NA,NA
ec5f7,"""Richtig""-Screen",canvas.Screen,3_0_0_0_2_0_1,NA,NA,skipped,NA,345553.60000002,NA,NA,345549.5,345553.80000007,2023-05-18T11:59:40Z,345563.195,NULL,Schock,mshtuko,d,NA,NA,NA,NA,sdf,NA,0,NA,NA,NA,NA,NA,NA,NA,NA,NA,NA,NA,NA,NA,NA,NA,NA,NA,NA,NA
ec5f7,"""Falsch""-Screen",canvas.Screen,3_0_0_0_2_0_2,NA,NA,timeout,5000.1,345554.9000001,345546.528,345563.195,350546.628,350550.80000007,2023-05-18T11:59:45Z,350563.295,NULL,Schock,mshtuko,d,NA,NA,NA,NA,sdf,0,0,NA,NA,NA,NA,NA,NA,NA,NA,NA,NA,NA,NA,NA,NA,NA,NA,NA,NA,NA
ec5f7,deep,flow.Sequence,3_0_0_0_2_0,NA,NA,completion,8150.163,342382.30000007,342379.798,342396.465,350546.628,350551.20000005,2023-05-18T11:59:45Z,350563.295,NULL,Schock,mshtuko,d,NA,NA,NA,NA,sdf,NA,0,NA,NA,NA,NA,NA,NA,NA,NA,NA,NA,NA,NA,NA,NA,NA,NA,NA,NA,NA
ec5f7,shallow,flow.Sequence,3_0_0_0_2_1,NA,NA,skipped,NA,350551.30000007,NA,NA,350546.628,350551.4000001,2023-05-18T11:59:45Z,350563.295,NULL,Schock,mshtuko,d,NA,NA,NA,NA,sdf,NA,0,NA,NA,NA,NA,NA,NA,NA,NA,NA,NA,NA,NA,NA,NA,NA,NA,NA,NA,NA
ec5f7,task,flow.Sequence,3_0_0_0_2,NA,NA,completion,8150.163,342382.20000005,342379.798,342396.465,350546.628,350551.70000005,2023-05-18T11:59:45Z,350563.295,NULL,Schock,mshtuko,d,NA,NA,NA,NA,sdf,NA,0,NA,NA,NA,NA,NA,NA,NA,NA,NA,NA,NA,NA,NA,NA,NA,NA,NA,NA,NA
ec5f7,Deep Question,html.Page,3_0_0_0_3_0_0,NA,NA,form submission,3702.8050000239,350551.70000005,350546.628,350563.295,354266.10000002,354266.30000007,2023-05-18T11:59:48Z,354280.692,NULL,Theorie,nadharia,d,NA,NA,NA,b,NA,NA,0,NA,NA,NA,NA,NA,NA,NA,NA,NA,NA,NA,NA,NA,NA,NA,NA,NA,NA,NA
ec5f7,"""Richtig""-Screen",canvas.Screen,3_0_0_0_3_0_1,NA,NA,skipped,NA,354268.20000005,NA,NA,354266.10000002,354268.30000007,2023-05-18T11:59:48Z,354280.692,NULL,Theorie,nadharia,d,NA,NA,NA,NA,sdf,NA,0,NA,NA,NA,NA,NA,NA,NA,NA,NA,NA,NA,NA,NA,NA,NA,NA,NA,NA,NA
ec5f7,"""Falsch""-Screen",canvas.Screen,3_0_0_0_3_0_2,NA,NA,timeout,5000.1,354269.10000002,354264.025,354280.692,359264.125,359267.80000007,2023-05-18T11:59:53Z,359280.792,NULL,Theorie,nadharia,d,NA,NA,NA,NA,sdf,0,0,NA,NA,NA,NA,NA,NA,NA,NA,NA,NA,NA,NA,NA,NA,NA,NA,NA,NA,NA
ec5f7,deep,flow.Sequence,3_0_0_0_3_0,NA,NA,completion,8700.83,350551.70000005,350546.628,350563.295,359264.125,359268.10000002,2023-05-18T11:59:53Z,359280.792,NULL,Theorie,nadharia,d,NA,NA,NA,NA,sdf,NA,0,NA,NA,NA,NA,NA,NA,NA,NA,NA,NA,NA,NA,NA,NA,NA,NA,NA,NA,NA
ec5f7,shallow,flow.Sequence,3_0_0_0_3_1,NA,NA,skipped,NA,359268.20000005,NA,NA,359264.125,359268.30000007,2023-05-18T11:59:53Z,359280.792,NULL,Theorie,nadharia,d,NA,NA,NA,NA,sdf,NA,0,NA,NA,NA,NA,NA,NA,NA,NA,NA,NA,NA,NA,NA,NA,NA,NA,NA,NA,NA
ec5f7,task,flow.Sequence,3_0_0_0_3,NA,NA,completion,8700.83,350551.70000005,350546.628,350563.295,359264.125,359268.4000001,2023-05-18T11:59:53Z,359280.792,NULL,Theorie,nadharia,d,NA,NA,NA,NA,sdf,NA,0,NA,NA,NA,NA,NA,NA,NA,NA,NA,NA,NA,NA,NA,NA,NA,NA,NA,NA,NA
ec5f7,deep,flow.Sequence,3_0_0_0_4_0,NA,NA,skipped,NA,359268.60000002,NA,NA,359264.125,359268.70000005,2023-05-18T11:59:53Z,359280.792,NULL,Verpackung,ufungaji,s,uhusiano,upimaji,uchunguzi,NA,sdf,NA,0,NA,NA,NA,NA,NA,NA,NA,NA,NA,NA,NA,NA,NA,NA,NA,NA,NA,NA,NA
ec5f7,Shallow Question,html.Page,3_0_0_0_4_1_0,NA,NA,form submission,27365.508000072,359268.80000007,359264.125,359280.792,386646.30000007,386646.70000005,2023-05-18T12:00:21Z,386649.038,NULL,Verpackung,ufungaji,s,uhusiano,upimaji,uchunguzi,ufungaji,NA,NA,0,NA,NA,NA,NA,NA,NA,NA,NA,NA,NA,NA,NA,NA,NA,NA,NA,NA,NA,NA
ec5f7,"""Richtig""-Screen",canvas.Screen,3_0_0_0_4_1_1,NA,NA,timeout,5000.782,386650.4000001,386632.371,386649.038,391633.153,391638.20000005,2023-05-18T12:00:26Z,391649.82,NULL,Verpackung,ufungaji,s,uhusiano,upimaji,uchunguzi,NA,sdf,1,0,NA,NA,NA,NA,NA,NA,NA,NA,NA,NA,NA,NA,NA,NA,NA,NA,NA,NA,NA
ec5f7,"""Falsch""-Screen",canvas.Screen,3_0_0_0_4_1_2,NA,NA,skipped,NA,391642.20000005,NA,NA,391633.153,391642.4000001,2023-05-18T12:00:26Z,391649.82,NULL,Verpackung,ufungaji,s,uhusiano,upimaji,uchunguzi,NA,sdf,NA,0,NA,NA,NA,NA,NA,NA,NA,NA,NA,NA,NA,NA,NA,NA,NA,NA,NA,NA,NA
ec5f7,shallow,flow.Sequence,3_0_0_0_4_1,NA,NA,completion,32352.361,359268.80000007,359264.125,359280.792,391633.153,391642.70000005,2023-05-18T12:00:26Z,391649.82,NULL,Verpackung,ufungaji,s,uhusiano,upimaji,uchunguzi,NA,sdf,NA,0,NA,NA,NA,NA,NA,NA,NA,NA,NA,NA,NA,NA,NA,NA,NA,NA,NA,NA,NA
ec5f7,task,flow.Sequence,3_0_0_0_4,NA,NA,completion,32352.361,359268.60000002,359264.125,359280.792,391633.153,391642.80000007,2023-05-18T12:00:26Z,391649.82,NULL,Verpackung,ufungaji,s,uhusiano,upimaji,uchunguzi,NA,sdf,NA,0,NA,NA,NA,NA,NA,NA,NA,NA,NA,NA,NA,NA,NA,NA,NA,NA,NA,NA,NA
ec5f7,deep,flow.Sequence,3_0_0_0_5_0,NA,NA,skipped,NA,391642.9000001,NA,NA,391633.153,391643.10000002,2023-05-18T12:00:26Z,391649.82,NULL,Wechsel,ugeuzaji,s,utambulisho,kujenga,wasiwasi,NA,sdf,NA,0,NA,NA,NA,NA,NA,NA,NA,NA,NA,NA,NA,NA,NA,NA,NA,NA,NA,NA,NA
ec5f7,Shallow Question,html.Page,3_0_0_0_5_1_0,NA,NA,form submission,4034.4800000715,391643.20000005,391633.153,391649.82,395684.30000007,395684.70000005,2023-05-18T12:00:30Z,395699.901,NULL,Wechsel,ugeuzaji,s,utambulisho,kujenga,wasiwasi,wasiwasi,NA,NA,0,NA,NA,NA,NA,NA,NA,NA,NA,NA,NA,NA,NA,NA,NA,NA,NA,NA,NA,NA
ec5f7,"""Richtig""-Screen",canvas.Screen,3_0_0_0_5_1_1,NA,NA,skipped,NA,395687.70000005,NA,NA,395684.30000007,395687.9000001,2023-05-18T12:00:30Z,395699.901,NULL,Wechsel,ugeuzaji,s,utambulisho,kujenga,wasiwasi,NA,sdf,NA,0,NA,NA,NA,NA,NA,NA,NA,NA,NA,NA,NA,NA,NA,NA,NA,NA,NA,NA,NA
ec5f7,"""Falsch""-Screen",canvas.Screen,3_0_0_0_5_1_2,NA,NA,timeout,5000.1,395689.10000002,395683.234,395699.901,400683.334,400688,2023-05-18T12:00:35Z,400700.001,NULL,Wechsel,ugeuzaji,s,utambulisho,kujenga,wasiwasi,NA,sdf,0,0,NA,NA,NA,NA,NA,NA,NA,NA,NA,NA,NA,NA,NA,NA,NA,NA,NA,NA,NA
ec5f7,shallow,flow.Sequence,3_0_0_0_5_1,NA,NA,completion,9033.514,391643.20000005,391633.153,391649.82,400683.334,400688.30000007,2023-05-18T12:00:35Z,400700.001,NULL,Wechsel,ugeuzaji,s,utambulisho,kujenga,wasiwasi,NA,sdf,NA,0,NA,NA,NA,NA,NA,NA,NA,NA,NA,NA,NA,NA,NA,NA,NA,NA,NA,NA,NA
ec5f7,task,flow.Sequence,3_0_0_0_5,NA,NA,completion,9033.514,391642.9000001,391633.153,391649.82,400683.334,400688.5,2023-05-18T12:00:35Z,400700.001,NULL,Wechsel,ugeuzaji,s,utambulisho,kujenga,wasiwasi,NA,sdf,NA,0,NA,NA,NA,NA,NA,NA,NA,NA,NA,NA,NA,NA,NA,NA,NA,NA,NA,NA,NA
ec5f7,deep,flow.Sequence,3_0_0_0_6_0,NA,NA,skipped,NA,400688.60000002,NA,NA,400683.334,400688.70000005,2023-05-18T12:00:35Z,400700.001,NULL,Hoffnung,matarajio,s,kutaalamika,uratibu,mvumbuzi,NA,sdf,NA,0,NA,NA,NA,NA,NA,NA,NA,NA,NA,NA,NA,NA,NA,NA,NA,NA,NA,NA,NA
ec5f7,Shallow Question,html.Page,3_0_0_0_6_1_0,NA,NA,form submission,9716.999,400688.80000007,400683.334,400700.001,410417,410417.4000001,2023-05-18T12:00:45Z,410417.528,NULL,Hoffnung,matarajio,s,kutaalamika,uratibu,mvumbuzi,kutaalamika,NA,NA,0,NA,NA,NA,NA,NA,NA,NA,NA,NA,NA,NA,NA,NA,NA,NA,NA,NA,NA,NA
ec5f7,"""Richtig""-Screen",canvas.Screen,3_0_0_0_6_1_1,NA,NA,skipped,NA,410420.70000005,NA,NA,410417,410421,2023-05-18T12:00:45Z,410417.528,NULL,Hoffnung,matarajio,s,kutaalamika,uratibu,mvumbuzi,NA,sdf,NA,0,NA,NA,NA,NA,NA,NA,NA,NA,NA,NA,NA,NA,NA,NA,NA,NA,NA,NA,NA
ec5f7,"""Falsch""-Screen",canvas.Screen,3_0_0_0_6_1_2,NA,NA,timeout,5000.1,410422.10000002,410400.861,410417.528,415400.961,415404.4000001,2023-05-18T12:00:50Z,415417.628,NULL,Hoffnung,matarajio,s,kutaalamika,uratibu,mvumbuzi,NA,sdf,0,0,NA,NA,NA,NA,NA,NA,NA,NA,NA,NA,NA,NA,NA,NA,NA,NA,NA,NA,NA
ec5f7,shallow,flow.Sequence,3_0_0_0_6_1,NA,NA,completion,14700.96,400688.80000007,400683.334,400700.001,415400.961,415404.70000005,2023-05-18T12:00:50Z,415417.628,NULL,Hoffnung,matarajio,s,kutaalamika,uratibu,mvumbuzi,NA,sdf,NA,0,NA,NA,NA,NA,NA,NA,NA,NA,NA,NA,NA,NA,NA,NA,NA,NA,NA,NA,NA
ec5f7,task,flow.Sequence,3_0_0_0_6,NA,NA,completion,14700.96,400688.60000002,400683.334,400700.001,415400.961,415404.80000007,2023-05-18T12:00:50Z,415417.628,NULL,Hoffnung,matarajio,s,kutaalamika,uratibu,mvumbuzi,NA,sdf,NA,0,NA,NA,NA,NA,NA,NA,NA,NA,NA,NA,NA,NA,NA,NA,NA,NA,NA,NA,NA
ec5f7,Deep Question,html.Page,3_0_0_0_7_0_0,NA,NA,form submission,2722.9720000238,415405,415400.961,415417.628,418140.60000002,418141.10000002,2023-05-18T12:00:52Z,418151.714,NULL,Atmosphäre,angahewa,d,NA,NA,NA,b,NA,NA,0,NA,NA,NA,NA,NA,NA,NA,NA,NA,NA,NA,NA,NA,NA,NA,NA,NA,NA,NA
ec5f7,"""Richtig""-Screen",canvas.Screen,3_0_0_0_7_0_1,NA,NA,skipped,NA,418144.60000002,NA,NA,418140.60000002,418144.80000007,2023-05-18T12:00:52Z,418151.714,NULL,Atmosphäre,angahewa,d,NA,NA,NA,NA,sdf,NA,0,NA,NA,NA,NA,NA,NA,NA,NA,NA,NA,NA,NA,NA,NA,NA,NA,NA,NA,NA
ec5f7,"""Falsch""-Screen",canvas.Screen,3_0_0_0_7_0_2,NA,NA,timeout,5000.1,418145.9000001,418135.047,418151.714,423135.147,423136.70000005,2023-05-18T12:00:57Z,423151.814,NULL,Atmosphäre,angahewa,d,NA,NA,NA,NA,sdf,0,0,NA,NA,NA,NA,NA,NA,NA,NA,NA,NA,NA,NA,NA,NA,NA,NA,NA,NA,NA
ec5f7,deep,flow.Sequence,3_0_0_0_7_0,NA,NA,completion,7717.519,415405,415400.961,415417.628,423135.147,423137,2023-05-18T12:00:57Z,423151.814,NULL,Atmosphäre,angahewa,d,NA,NA,NA,NA,sdf,NA,0,NA,NA,NA,NA,NA,NA,NA,NA,NA,NA,NA,NA,NA,NA,NA,NA,NA,NA,NA
ec5f7,shallow,flow.Sequence,3_0_0_0_7_1,NA,NA,skipped,NA,423137.20000005,NA,NA,423135.147,423137.20000005,2023-05-18T12:00:57Z,423151.814,NULL,Atmosphäre,angahewa,d,NA,NA,NA,NA,sdf,NA,0,NA,NA,NA,NA,NA,NA,NA,NA,NA,NA,NA,NA,NA,NA,NA,NA,NA,NA,NA
ec5f7,task,flow.Sequence,3_0_0_0_7,NA,NA,completion,7717.519,415405,415400.961,415417.628,423135.147,423137.5,2023-05-18T12:00:57Z,423151.814,NULL,Atmosphäre,angahewa,d,NA,NA,NA,NA,sdf,NA,0,NA,NA,NA,NA,NA,NA,NA,NA,NA,NA,NA,NA,NA,NA,NA,NA,NA,NA,NA
ec5f7,block,flow.Loop,3_0_0_0,NA,NA,completion,107358.514,315767.70000005,315759.966,315776.633,423135.147,423137.60000002,2023-05-18T12:00:57Z,423151.814,NULL,NA,NA,NA,NA,NA,NA,NA,sdf,NA,0,NA,NA,NA,NA,NA,NA,NA,NA,NA,NA,NA,NA,NA,NA,NA,NA,NA,NA,NA
ec5f7,weiter,canvas.Screen,3_0_0_1,sdf,keypress(Space),response,2970.8860000477,423137.70000005,423135.147,423151.814,426122.70000005,426129.30000007,2023-05-18T12:01:00Z,426185.208,NULL,NA,NA,NA,NA,NA,NA,NA,sdf,NA,0,NA,NA,NA,NA,NA,NA,NA,NA,NA,NA,NA,NA,NA,NA,NA,NA,NA,NA,NA
ec5f7,check continue,flow.Sequence,3_0_0,NA,NA,completion,110346.06700005,315767.70000005,315759.966,315776.633,426122.70000005,426129.5,2023-05-18T12:01:00Z,426185.208,NULL,NA,NA,NA,NA,NA,NA,NA,sdf,NA,0,NA,NA,NA,NA,NA,NA,NA,NA,NA,NA,NA,NA,NA,NA,NA,NA,NA,NA,NA
ec5f7,Deep Question,html.Page,3_0_1_0_0_0_0,NA,NA,form submission,6107.0920000715,426173.4000001,426168.541,426185.208,432292.30000007,432292.9000001,2023-05-18T12:01:07Z,432302.509,NULL,Atmosphäre,angahewa,d,NA,NA,NA,n,NA,NA,1,NA,NA,NA,NA,NA,NA,NA,NA,NA,NA,NA,NA,NA,NA,NA,NA,NA,NA,NA
ec5f7,"""Richtig""-Screen",canvas.Screen,3_0_1_0_0_0_1,NA,NA,skipped,NA,432296.10000002,NA,NA,432292.30000007,432296.5,2023-05-18T12:01:07Z,432302.509,NULL,Atmosphäre,angahewa,d,NA,NA,NA,NA,sdfdsf,NA,1,NA,NA,NA,NA,NA,NA,NA,NA,NA,NA,NA,NA,NA,NA,NA,NA,NA,NA,NA
ec5f7,"""Falsch""-Screen",canvas.Screen,3_0_1_0_0_0_2,NA,NA,timeout,5000.1,432297.5,432285.842,432302.509,437285.942,437288.20000005,2023-05-18T12:01:12Z,437302.609,NULL,Atmosphäre,angahewa,d,NA,NA,NA,NA,sdfdsf,0,1,NA,NA,NA,NA,NA,NA,NA,NA,NA,NA,NA,NA,NA,NA,NA,NA,NA,NA,NA
ec5f7,deep,flow.Sequence,3_0_1_0_0_0,NA,NA,completion,11100.734,426173.4000001,426168.541,426185.208,437285.942,437288.5,2023-05-18T12:01:12Z,437302.609,NULL,Atmosphäre,angahewa,d,NA,NA,NA,NA,sdfdsf,NA,1,NA,NA,NA,NA,NA,NA,NA,NA,NA,NA,NA,NA,NA,NA,NA,NA,NA,NA,NA
ec5f7,shallow,flow.Sequence,3_0_1_0_0_1,NA,NA,skipped,NA,437288.60000002,NA,NA,437285.942,437288.70000005,2023-05-18T12:01:12Z,437302.609,NULL,Atmosphäre,angahewa,d,NA,NA,NA,NA,sdfdsf,NA,1,NA,NA,NA,NA,NA,NA,NA,NA,NA,NA,NA,NA,NA,NA,NA,NA,NA,NA,NA
ec5f7,task,flow.Sequence,3_0_1_0_0,NA,NA,completion,11100.734,426173.4000001,426168.541,426185.208,437285.942,437288.9000001,2023-05-18T12:01:12Z,437302.609,NULL,Atmosphäre,angahewa,d,NA,NA,NA,NA,sdfdsf,NA,1,NA,NA,NA,NA,NA,NA,NA,NA,NA,NA,NA,NA,NA,NA,NA,NA,NA,NA,NA
ec5f7,deep,flow.Sequence,3_0_1_0_1_0,NA,NA,skipped,NA,437289,NA,NA,437285.942,437289.10000002,2023-05-18T12:01:12Z,437302.609,NULL,Wechsel,ugeuzaji,s,utambulisho,kujenga,wasiwasi,NA,sdfdsf,NA,1,NA,NA,NA,NA,NA,NA,NA,NA,NA,NA,NA,NA,NA,NA,NA,NA,NA,NA,NA
ec5f7,Shallow Question,html.Page,3_0_1_0_1_1_0,NA,NA,form submission,19555.591000048,437289.30000007,437285.942,437302.609,456858.20000005,456858.60000002,2023-05-18T12:01:31Z,456870.688,NULL,Wechsel,ugeuzaji,s,utambulisho,kujenga,wasiwasi,ugeuzaji,NA,NA,1,NA,NA,NA,NA,NA,NA,NA,NA,NA,NA,NA,NA,NA,NA,NA,NA,NA,NA,NA
ec5f7,"""Richtig""-Screen",canvas.Screen,3_0_1_0_1_1_1,NA,NA,timeout,5000.1,456861.80000007,456854.021,456870.688,461854.121,461856.10000002,2023-05-18T12:01:36Z,461870.788,NULL,Wechsel,ugeuzaji,s,utambulisho,kujenga,wasiwasi,NA,sdfdsf,1,1,NA,NA,NA,NA,NA,NA,NA,NA,NA,NA,NA,NA,NA,NA,NA,NA,NA,NA,NA
ec5f7,"""Falsch""-Screen",canvas.Screen,3_0_1_0_1_1_2,NA,NA,skipped,NA,461859.60000002,NA,NA,461854.121,461859.9000001,2023-05-18T12:01:36Z,461870.788,NULL,Wechsel,ugeuzaji,s,utambulisho,kujenga,wasiwasi,NA,sdfdsf,NA,1,NA,NA,NA,NA,NA,NA,NA,NA,NA,NA,NA,NA,NA,NA,NA,NA,NA,NA,NA
ec5f7,shallow,flow.Sequence,3_0_1_0_1_1,NA,NA,completion,24551.512,437289.20000005,437285.942,437302.609,461854.121,461860.10000002,2023-05-18T12:01:36Z,461870.788,NULL,Wechsel,ugeuzaji,s,utambulisho,kujenga,wasiwasi,NA,sdfdsf,NA,1,NA,NA,NA,NA,NA,NA,NA,NA,NA,NA,NA,NA,NA,NA,NA,NA,NA,NA,NA
ec5f7,task,flow.Sequence,3_0_1_0_1,NA,NA,completion,24551.512,437289,437285.942,437302.609,461854.121,461860.4000001,2023-05-18T12:01:36Z,461870.788,NULL,Wechsel,ugeuzaji,s,utambulisho,kujenga,wasiwasi,NA,sdfdsf,NA,1,NA,NA,NA,NA,NA,NA,NA,NA,NA,NA,NA,NA,NA,NA,NA,NA,NA,NA,NA
ec5f7,Deep Question,html.Page,3_0_1_0_2_0_0,NA,NA,form submission,4325.8120000238,461860.70000005,461854.121,461870.788,466196.60000002,466197.10000002,2023-05-18T12:01:40Z,466204.881,NULL,Schock,mshtuko,d,NA,NA,NA,n,NA,NA,1,NA,NA,NA,NA,NA,NA,NA,NA,NA,NA,NA,NA,NA,NA,NA,NA,NA,NA,NA
ec5f7,"""Richtig""-Screen",canvas.Screen,3_0_1_0_2_0_1,NA,NA,skipped,NA,466200.70000005,NA,NA,466196.60000002,466201,2023-05-18T12:01:40Z,466204.881,NULL,Schock,mshtuko,d,NA,NA,NA,NA,sdfdsf,NA,1,NA,NA,NA,NA,NA,NA,NA,NA,NA,NA,NA,NA,NA,NA,NA,NA,NA,NA,NA
ec5f7,"""Falsch""-Screen",canvas.Screen,3_0_1_0_2_0_2,NA,NA,timeout,5000.1,466202,466188.214,466204.881,471188.314,471190.4000001,2023-05-18T12:01:45Z,471204.981,NULL,Schock,mshtuko,d,NA,NA,NA,NA,sdfdsf,0,1,NA,NA,NA,NA,NA,NA,NA,NA,NA,NA,NA,NA,NA,NA,NA,NA,NA,NA,NA
ec5f7,deep,flow.Sequence,3_0_1_0_2_0,NA,NA,completion,9317.526,461860.60000002,461854.121,461870.788,471188.314,471190.70000005,2023-05-18T12:01:45Z,471204.981,NULL,Schock,mshtuko,d,NA,NA,NA,NA,sdfdsf,NA,1,NA,NA,NA,NA,NA,NA,NA,NA,NA,NA,NA,NA,NA,NA,NA,NA,NA,NA,NA
ec5f7,shallow,flow.Sequence,3_0_1_0_2_1,NA,NA,skipped,NA,471190.9000001,NA,NA,471188.314,471191,2023-05-18T12:01:45Z,471204.981,NULL,Schock,mshtuko,d,NA,NA,NA,NA,sdfdsf,NA,1,NA,NA,NA,NA,NA,NA,NA,NA,NA,NA,NA,NA,NA,NA,NA,NA,NA,NA,NA
ec5f7,task,flow.Sequence,3_0_1_0_2,NA,NA,completion,9317.526,461860.60000002,461854.121,461870.788,471188.314,471191.10000002,2023-05-18T12:01:45Z,471204.981,NULL,Schock,mshtuko,d,NA,NA,NA,NA,sdfdsf,NA,1,NA,NA,NA,NA,NA,NA,NA,NA,NA,NA,NA,NA,NA,NA,NA,NA,NA,NA,NA
ec5f7,deep,flow.Sequence,3_0_1_0_3_0,NA,NA,skipped,NA,471191.20000005,NA,NA,471188.314,471191.4000001,2023-05-18T12:01:45Z,471204.981,NULL,Erneuerung,ukarabati,s,ushawishi,ukalifu,unyonyaji,NA,sdfdsf,NA,1,NA,NA,NA,NA,NA,NA,NA,NA,NA,NA,NA,NA,NA,NA,NA,NA,NA,NA,NA
ec5f7,Shallow Question,html.Page,3_0_1_0_3_1_0,NA,NA,form submission,12762.519,471191.5,471188.314,471204.981,483967.5,483967.9000001,2023-05-18T12:01:58Z,483972.714,NULL,Erneuerung,ukarabati,s,ushawishi,ukalifu,unyonyaji,ushawishi,NA,NA,1,NA,NA,NA,NA,NA,NA,NA,NA,NA,NA,NA,NA,NA,NA,NA,NA,NA,NA,NA
ec5f7,"""Richtig""-Screen",canvas.Screen,3_0_1_0_3_1_1,NA,NA,skipped,NA,483971.20000005,NA,NA,483967.5,483971.5,2023-05-18T12:01:58Z,483972.714,NULL,Erneuerung,ukarabati,s,ushawishi,ukalifu,unyonyaji,NA,sdfdsf,NA,1,NA,NA,NA,NA,NA,NA,NA,NA,NA,NA,NA,NA,NA,NA,NA,NA,NA,NA,NA
ec5f7,"""Falsch""-Screen",canvas.Screen,3_0_1_0_3_1_2,NA,NA,timeout,5000.1,483972.70000005,483956.047,483972.714,488956.147,488959.4000001,2023-05-18T12:02:03Z,488972.814,NULL,Erneuerung,ukarabati,s,ushawishi,ukalifu,unyonyaji,NA,sdfdsf,0,1,NA,NA,NA,NA,NA,NA,NA,NA,NA,NA,NA,NA,NA,NA,NA,NA,NA,NA,NA
ec5f7,shallow,flow.Sequence,3_0_1_0_3_1,NA,NA,completion,17751.166,471191.4000001,471188.314,471204.981,488956.147,488959.70000005,2023-05-18T12:02:03Z,488972.814,NULL,Erneuerung,ukarabati,s,ushawishi,ukalifu,unyonyaji,NA,sdfdsf,NA,1,NA,NA,NA,NA,NA,NA,NA,NA,NA,NA,NA,NA,NA,NA,NA,NA,NA,NA,NA
ec5f7,task,flow.Sequence,3_0_1_0_3,NA,NA,completion,17751.166,471191.20000005,471188.314,471204.981,488956.147,488959.80000007,2023-05-18T12:02:03Z,488972.814,NULL,Erneuerung,ukarabati,s,ushawishi,ukalifu,unyonyaji,NA,sdfdsf,NA,1,NA,NA,NA,NA,NA,NA,NA,NA,NA,NA,NA,NA,NA,NA,NA,NA,NA,NA,NA
ec5f7,deep,flow.Sequence,3_0_1_0_4_0,NA,NA,skipped,NA,488960,NA,NA,488956.147,488960.20000005,2023-05-18T12:02:03Z,488972.814,NULL,Hoffnung,matarajio,s,kutaalamika,uratibu,mvumbuzi,NA,sdfdsf,NA,1,NA,NA,NA,NA,NA,NA,NA,NA,NA,NA,NA,NA,NA,NA,NA,NA,NA,NA,NA
ec5f7,Shallow Question,html.Page,3_0_1_0_4_1_0,NA,NA,form submission,19450.086000095,488960.20000005,488956.147,488972.814,508422.9000001,508423.30000007,2023-05-18T12:02:23Z,508440.846,NULL,Hoffnung,matarajio,s,kutaalamika,uratibu,mvumbuzi,matarajio,NA,NA,1,NA,NA,NA,NA,NA,NA,NA,NA,NA,NA,NA,NA,NA,NA,NA,NA,NA,NA,NA
ec5f7,"""Richtig""-Screen",canvas.Screen,3_0_1_0_4_1_1,NA,NA,timeout,5000.1,508426.70000005,508424.179,508440.846,513424.279,513427.60000002,2023-05-18T12:02:28Z,513440.946,NULL,Hoffnung,matarajio,s,kutaalamika,uratibu,mvumbuzi,NA,sdfdsf,1,1,NA,NA,NA,NA,NA,NA,NA,NA,NA,NA,NA,NA,NA,NA,NA,NA,NA,NA,NA
ec5f7,"""Falsch""-Screen",canvas.Screen,3_0_1_0_4_1_2,NA,NA,skipped,NA,513431,NA,NA,513424.279,513431.30000007,2023-05-18T12:02:28Z,513440.946,NULL,Hoffnung,matarajio,s,kutaalamika,uratibu,mvumbuzi,NA,sdfdsf,NA,1,NA,NA,NA,NA,NA,NA,NA,NA,NA,NA,NA,NA,NA,NA,NA,NA,NA,NA,NA
ec5f7,shallow,flow.Sequence,3_0_1_0_4_1,NA,NA,completion,24451.465,488960.20000005,488956.147,488972.814,513424.279,513431.60000002,2023-05-18T12:02:28Z,513440.946,NULL,Hoffnung,matarajio,s,kutaalamika,uratibu,mvumbuzi,NA,sdfdsf,NA,1,NA,NA,NA,NA,NA,NA,NA,NA,NA,NA,NA,NA,NA,NA,NA,NA,NA,NA,NA
ec5f7,task,flow.Sequence,3_0_1_0_4,NA,NA,completion,24451.465,488960,488956.147,488972.814,513424.279,513431.70000005,2023-05-18T12:02:28Z,513440.946,NULL,Hoffnung,matarajio,s,kutaalamika,uratibu,mvumbuzi,NA,sdfdsf,NA,1,NA,NA,NA,NA,NA,NA,NA,NA,NA,NA,NA,NA,NA,NA,NA,NA,NA,NA,NA
ec5f7,Deep Question,html.Page,3_0_1_0_5_0_0,NA,NA,form submission,8078.4540000954,513432,513424.279,513440.946,521519.4000001,521519.80000007,2023-05-18T12:02:36Z,521525.1,NULL,Theorie,nadharia,d,NA,NA,NA,n,NA,NA,1,NA,NA,NA,NA,NA,NA,NA,NA,NA,NA,NA,NA,NA,NA,NA,NA,NA,NA,NA
ec5f7,"""Richtig""-Screen",canvas.Screen,3_0_1_0_5_0_1,NA,NA,skipped,NA,521523.10000002,NA,NA,521519.4000001,521523.4000001,2023-05-18T12:02:36Z,521525.1,NULL,Theorie,nadharia,d,NA,NA,NA,NA,sdfdsf,NA,1,NA,NA,NA,NA,NA,NA,NA,NA,NA,NA,NA,NA,NA,NA,NA,NA,NA,NA,NA
ec5f7,"""Falsch""-Screen",canvas.Screen,3_0_1_0_5_0_2,NA,NA,timeout,5000.1,521524.5,521508.433,521525.1,526508.533,526511.9000001,2023-05-18T12:02:41Z,526525.2,NULL,Theorie,nadharia,d,NA,NA,NA,NA,sdfdsf,0,1,NA,NA,NA,NA,NA,NA,NA,NA,NA,NA,NA,NA,NA,NA,NA,NA,NA,NA,NA
ec5f7,deep,flow.Sequence,3_0_1_0_5_0,NA,NA,completion,13067.587,513431.9000001,513424.279,513440.946,526508.533,526512.10000002,2023-05-18T12:02:41Z,526525.2,NULL,Theorie,nadharia,d,NA,NA,NA,NA,sdfdsf,NA,1,NA,NA,NA,NA,NA,NA,NA,NA,NA,NA,NA,NA,NA,NA,NA,NA,NA,NA,NA
ec5f7,shallow,flow.Sequence,3_0_1_0_5_1,NA,NA,skipped,NA,526512.30000007,NA,NA,526508.533,526512.4000001,2023-05-18T12:02:41Z,526525.2,NULL,Theorie,nadharia,d,NA,NA,NA,NA,sdfdsf,NA,1,NA,NA,NA,NA,NA,NA,NA,NA,NA,NA,NA,NA,NA,NA,NA,NA,NA,NA,NA
ec5f7,task,flow.Sequence,3_0_1_0_5,NA,NA,completion,13067.587,513431.9000001,513424.279,513440.946,526508.533,526512.60000002,2023-05-18T12:02:41Z,526525.2,NULL,Theorie,nadharia,d,NA,NA,NA,NA,sdfdsf,NA,1,NA,NA,NA,NA,NA,NA,NA,NA,NA,NA,NA,NA,NA,NA,NA,NA,NA,NA,NA
ec5f7,deep,flow.Sequence,3_0_1_0_6_0,NA,NA,skipped,NA,526512.60000002,NA,NA,526508.533,526512.80000007,2023-05-18T12:02:41Z,526525.2,NULL,Verpackung,ufungaji,s,uhusiano,upimaji,uchunguzi,NA,sdfdsf,NA,1,NA,NA,NA,NA,NA,NA,NA,NA,NA,NA,NA,NA,NA,NA,NA,NA,NA,NA,NA
ec5f7,Shallow Question,html.Page,3_0_1_0_6_1_0,NA,NA,form submission,9330.5000000477,526512.9000001,526508.533,526525.2,535855.70000005,535856.10000002,2023-05-18T12:02:50Z,535859.341,NULL,Verpackung,ufungaji,s,uhusiano,upimaji,uchunguzi,ufungaji,NA,NA,1,NA,NA,NA,NA,NA,NA,NA,NA,NA,NA,NA,NA,NA,NA,NA,NA,NA,NA,NA
ec5f7,"""Richtig""-Screen",canvas.Screen,3_0_1_0_6_1_1,NA,NA,timeout,5000.1,535859.4000001,535842.674,535859.341,540842.774,540844.60000002,2023-05-18T12:02:55Z,540859.441,NULL,Verpackung,ufungaji,s,uhusiano,upimaji,uchunguzi,NA,sdfdsf,1,1,NA,NA,NA,NA,NA,NA,NA,NA,NA,NA,NA,NA,NA,NA,NA,NA,NA,NA,NA
ec5f7,"""Falsch""-Screen",canvas.Screen,3_0_1_0_6_1_2,NA,NA,skipped,NA,540848.20000005,NA,NA,540842.774,540848.4000001,2023-05-18T12:02:55Z,540859.441,NULL,Verpackung,ufungaji,s,uhusiano,upimaji,uchunguzi,NA,sdfdsf,NA,1,NA,NA,NA,NA,NA,NA,NA,NA,NA,NA,NA,NA,NA,NA,NA,NA,NA,NA,NA
ec5f7,shallow,flow.Sequence,3_0_1_0_6_1,NA,NA,completion,14317.574,526512.9000001,526508.533,526525.2,540842.774,540848.70000005,2023-05-18T12:02:55Z,540859.441,NULL,Verpackung,ufungaji,s,uhusiano,upimaji,uchunguzi,NA,sdfdsf,NA,1,NA,NA,NA,NA,NA,NA,NA,NA,NA,NA,NA,NA,NA,NA,NA,NA,NA,NA,NA
ec5f7,task,flow.Sequence,3_0_1_0_6,NA,NA,completion,14317.574,526512.60000002,526508.533,526525.2,540842.774,540848.80000007,2023-05-18T12:02:55Z,540859.441,NULL,Verpackung,ufungaji,s,uhusiano,upimaji,uchunguzi,NA,sdfdsf,NA,1,NA,NA,NA,NA,NA,NA,NA,NA,NA,NA,NA,NA,NA,NA,NA,NA,NA,NA,NA
ec5f7,Deep Question,html.Page,3_0_1_0_7_0_0,NA,NA,form submission,2556.8590000715,540849,540842.774,540859.441,543416.30000007,543416.9000001,2023-05-18T12:02:58Z,543426.839,NULL,Flexibilität,kubadilika,d,NA,NA,NA,n,NA,NA,1,NA,NA,NA,NA,NA,NA,NA,NA,NA,NA,NA,NA,NA,NA,NA,NA,NA,NA,NA
ec5f7,"""Richtig""-Screen",canvas.Screen,3_0_1_0_7_0_1,NA,NA,skipped,NA,543418.4000001,NA,NA,543416.30000007,543418.70000005,2023-05-18T12:02:58Z,543426.839,NULL,Flexibilität,kubadilika,d,NA,NA,NA,NA,sdfdsf,NA,1,NA,NA,NA,NA,NA,NA,NA,NA,NA,NA,NA,NA,NA,NA,NA,NA,NA,NA,NA
ec5f7,"""Falsch""-Screen",canvas.Screen,3_0_1_0_7_0_2,NA,NA,timeout,5000.1,543419.9000001,543410.172,543426.839,548410.272,548414.20000005,2023-05-18T12:03:03Z,548426.939,NULL,Flexibilität,kubadilika,d,NA,NA,NA,NA,sdfdsf,0,1,NA,NA,NA,NA,NA,NA,NA,NA,NA,NA,NA,NA,NA,NA,NA,NA,NA,NA,NA
ec5f7,deep,flow.Sequence,3_0_1_0_7_0,NA,NA,completion,7550.831,540849,540842.774,540859.441,548410.272,548414.5,2023-05-18T12:03:03Z,548426.939,NULL,Flexibilität,kubadilika,d,NA,NA,NA,NA,sdfdsf,NA,1,NA,NA,NA,NA,NA,NA,NA,NA,NA,NA,NA,NA,NA,NA,NA,NA,NA,NA,NA
ec5f7,shallow,flow.Sequence,3_0_1_0_7_1,NA,NA,skipped,NA,548414.5,NA,NA,548410.272,548414.70000005,2023-05-18T12:03:03Z,548426.939,NULL,Flexibilität,kubadilika,d,NA,NA,NA,NA,sdfdsf,NA,1,NA,NA,NA,NA,NA,NA,NA,NA,NA,NA,NA,NA,NA,NA,NA,NA,NA,NA,NA
ec5f7,task,flow.Sequence,3_0_1_0_7,NA,NA,completion,7550.831,540848.9000001,540842.774,540859.441,548410.272,548414.80000007,2023-05-18T12:03:03Z,548426.939,NULL,Flexibilität,kubadilika,d,NA,NA,NA,NA,sdfdsf,NA,1,NA,NA,NA,NA,NA,NA,NA,NA,NA,NA,NA,NA,NA,NA,NA,NA,NA,NA,NA
ec5f7,block,flow.Loop,3_0_1_0,NA,NA,completion,122225.064,426173.30000007,426168.541,426185.208,548410.272,548415,2023-05-18T12:03:03Z,548426.939,NULL,NA,NA,NA,NA,NA,NA,NA,sdfdsf,NA,1,NA,NA,NA,NA,NA,NA,NA,NA,NA,NA,NA,NA,NA,NA,NA,NA,NA,NA,NA
ec5f7,weiter,canvas.Screen,3_0_1_1,sdf,keypress(Space),response,1354.7610000477,548415.10000002,548410.272,548426.939,549781.70000005,549788.20000005,2023-05-18T12:03:04Z,549843.634,NULL,NA,NA,NA,NA,NA,NA,NA,sdfdsf,NA,1,NA,NA,NA,NA,NA,NA,NA,NA,NA,NA,NA,NA,NA,NA,NA,NA,NA,NA,NA
ec5f7,check continue,flow.Sequence,3_0_1,NA,NA,completion,123596.49200005,426173.30000007,426168.541,426185.208,549781.70000005,549788.5,2023-05-18T12:03:04Z,549843.634,NULL,NA,NA,NA,NA,NA,NA,NA,sdfdsf,NA,1,NA,NA,NA,NA,NA,NA,NA,NA,NA,NA,NA,NA,NA,NA,NA,NA,NA,NA,NA
ec5f7,Deep Question,html.Page,3_0_2_0_0_0_0,NA,NA,form submission,18798.366,549833.9000001,549826.967,549843.634,568642,568642.60000002,2023-05-18T12:03:23Z,568645.272,NULL,Theorie,nadharia,d,NA,NA,NA,nadaguij,NA,NA,2,NA,NA,NA,NA,NA,NA,NA,NA,NA,NA,NA,NA,NA,NA,NA,NA,NA,NA,NA
ec5f7,"""Richtig""-Screen",canvas.Screen,3_0_2_0_0_0_1,NA,NA,skipped,NA,568645.80000007,NA,NA,568642,568646,2023-05-18T12:03:23Z,568645.272,NULL,Theorie,nadharia,d,NA,NA,NA,NA,sdf,NA,2,NA,NA,NA,NA,NA,NA,NA,NA,NA,NA,NA,NA,NA,NA,NA,NA,NA,NA,NA
ec5f7,"""Falsch""-Screen",canvas.Screen,3_0_2_0_0_0_2,NA,NA,timeout,5000.1,568647.20000005,568628.605,568645.272,573628.705,573631.10000002,2023-05-18T12:03:28Z,573645.372,NULL,Theorie,nadharia,d,NA,NA,NA,NA,sdf,0,2,NA,NA,NA,NA,NA,NA,NA,NA,NA,NA,NA,NA,NA,NA,NA,NA,NA,NA,NA
ec5f7,deep,flow.Sequence,3_0_2_0_0_0,NA,NA,completion,23785.071,549833.9000001,549826.967,549843.634,573628.705,573631.30000007,2023-05-18T12:03:28Z,573645.372,NULL,Theorie,nadharia,d,NA,NA,NA,NA,sdf,NA,2,NA,NA,NA,NA,NA,NA,NA,NA,NA,NA,NA,NA,NA,NA,NA,NA,NA,NA,NA
ec5f7,shallow,flow.Sequence,3_0_2_0_0_1,NA,NA,skipped,NA,573631.5,NA,NA,573628.705,573631.60000002,2023-05-18T12:03:28Z,573645.372,NULL,Theorie,nadharia,d,NA,NA,NA,NA,sdf,NA,2,NA,NA,NA,NA,NA,NA,NA,NA,NA,NA,NA,NA,NA,NA,NA,NA,NA,NA,NA
ec5f7,task,flow.Sequence,3_0_2_0_0,NA,NA,completion,23785.071,549833.80000007,549826.967,549843.634,573628.705,573631.80000007,2023-05-18T12:03:28Z,573645.372,NULL,Theorie,nadharia,d,NA,NA,NA,NA,sdf,NA,2,NA,NA,NA,NA,NA,NA,NA,NA,NA,NA,NA,NA,NA,NA,NA,NA,NA,NA,NA
ec5f7,deep,flow.Sequence,3_0_2_0_1_0,NA,NA,skipped,NA,573631.9000001,NA,NA,573628.705,573632,2023-05-18T12:03:28Z,573645.372,NULL,Erneuerung,ukarabati,s,ushawishi,ukalifu,unyonyaji,NA,sdf,NA,2,NA,NA,NA,NA,NA,NA,NA,NA,NA,NA,NA,NA,NA,NA,NA,NA,NA,NA,NA
ec5f7,Shallow Question,html.Page,3_0_2_0_1_1_0,NA,NA,form submission,9940.4280000716,573632.10000002,573628.705,573645.372,583585.80000007,583586.20000005,2023-05-18T12:03:38Z,583596.119,NULL,Erneuerung,ukarabati,s,ushawishi,ukalifu,unyonyaji,ukarabati,NA,NA,2,NA,NA,NA,NA,NA,NA,NA,NA,NA,NA,NA,NA,NA,NA,NA,NA,NA,NA,NA
ec5f7,"""Richtig""-Screen",canvas.Screen,3_0_2_0_1_1_1,NA,NA,timeout,5000.1000000001,583589.60000002,583579.452,583596.119,588579.552,588582,2023-05-18T12:03:43Z,588596.219,NULL,Erneuerung,ukarabati,s,ushawishi,ukalifu,unyonyaji,NA,sdf,1,2,NA,NA,NA,NA,NA,NA,NA,NA,NA,NA,NA,NA,NA,NA,NA,NA,NA,NA,NA
ec5f7,"""Falsch""-Screen",canvas.Screen,3_0_2_0_1_1_2,NA,NA,skipped,NA,588585.20000005,NA,NA,588579.552,588585.60000002,2023-05-18T12:03:43Z,588596.219,NULL,Erneuerung,ukarabati,s,ushawishi,ukalifu,unyonyaji,NA,sdf,NA,2,NA,NA,NA,NA,NA,NA,NA,NA,NA,NA,NA,NA,NA,NA,NA,NA,NA,NA,NA
ec5f7,shallow,flow.Sequence,3_0_2_0_1_1,NA,NA,completion,14934.18,573632,573628.705,573645.372,588579.552,588585.80000007,2023-05-18T12:03:43Z,588596.219,NULL,Erneuerung,ukarabati,s,ushawishi,ukalifu,unyonyaji,NA,sdf,NA,2,NA,NA,NA,NA,NA,NA,NA,NA,NA,NA,NA,NA,NA,NA,NA,NA,NA,NA,NA
ec5f7,task,flow.Sequence,3_0_2_0_1,NA,NA,completion,14934.18,573631.9000001,573628.705,573645.372,588579.552,588585.9000001,2023-05-18T12:03:43Z,588596.219,NULL,Erneuerung,ukarabati,s,ushawishi,ukalifu,unyonyaji,NA,sdf,NA,2,NA,NA,NA,NA,NA,NA,NA,NA,NA,NA,NA,NA,NA,NA,NA,NA,NA,NA,NA
ec5f7,deep,flow.Sequence,3_0_2_0_2_0,NA,NA,skipped,NA,588586.10000002,NA,NA,588579.552,588586.10000002,2023-05-18T12:03:43Z,588596.219,NULL,Verpackung,ufungaji,s,uhusiano,upimaji,uchunguzi,NA,sdf,NA,2,NA,NA,NA,NA,NA,NA,NA,NA,NA,NA,NA,NA,NA,NA,NA,NA,NA,NA,NA
ec5f7,Shallow Question,html.Page,3_0_2_0_2_1_0,NA,NA,form submission,6011.1810000953,588586.30000007,588579.552,588596.219,594607.4000001,594607.70000005,2023-05-18T12:03:49Z,594613.6,NULL,Verpackung,ufungaji,s,uhusiano,upimaji,uchunguzi,ufungaji,NA,NA,2,NA,NA,NA,NA,NA,NA,NA,NA,NA,NA,NA,NA,NA,NA,NA,NA,NA,NA,NA
ec5f7,"""Richtig""-Screen",canvas.Screen,3_0_2_0_2_1_1,NA,NA,timeout,5000.1,594610.5,594596.933,594613.6,599597.033,599601.60000002,2023-05-18T12:03:54Z,599613.7,NULL,Verpackung,ufungaji,s,uhusiano,upimaji,uchunguzi,NA,sdf,1,2,NA,NA,NA,NA,NA,NA,NA,NA,NA,NA,NA,NA,NA,NA,NA,NA,NA,NA,NA
ec5f7,"""Falsch""-Screen",canvas.Screen,3_0_2_0_2_1_2,NA,NA,skipped,NA,599605.60000002,NA,NA,599597.033,599605.80000007,2023-05-18T12:03:54Z,599613.7,NULL,Verpackung,ufungaji,s,uhusiano,upimaji,uchunguzi,NA,sdf,NA,2,NA,NA,NA,NA,NA,NA,NA,NA,NA,NA,NA,NA,NA,NA,NA,NA,NA,NA,NA
ec5f7,shallow,flow.Sequence,3_0_2_0_2_1,NA,NA,completion,11000.814,588586.20000005,588579.552,588596.219,599597.033,599606.10000002,2023-05-18T12:03:54Z,599613.7,NULL,Verpackung,ufungaji,s,uhusiano,upimaji,uchunguzi,NA,sdf,NA,2,NA,NA,NA,NA,NA,NA,NA,NA,NA,NA,NA,NA,NA,NA,NA,NA,NA,NA,NA
ec5f7,task,flow.Sequence,3_0_2_0_2,NA,NA,completion,11000.814,588586,588579.552,588596.219,599597.033,599606.30000007,2023-05-18T12:03:54Z,599613.7,NULL,Verpackung,ufungaji,s,uhusiano,upimaji,uchunguzi,NA,sdf,NA,2,NA,NA,NA,NA,NA,NA,NA,NA,NA,NA,NA,NA,NA,NA,NA,NA,NA,NA,NA
ec5f7,Deep Question,html.Page,3_0_2_0_3_0_0,NA,NA,form submission,5908.6000000716,599606.4000001,599597.033,599613.7,605522.30000007,605522.60000002,2023-05-18T12:04:00Z,605530.974,NULL,Atmosphäre,angahewa,d,NA,NA,NA,angahazi,NA,NA,2,NA,NA,NA,NA,NA,NA,NA,NA,NA,NA,NA,NA,NA,NA,NA,NA,NA,NA,NA
ec5f7,"""Richtig""-Screen",canvas.Screen,3_0_2_0_3_0_1,NA,NA,skipped,NA,605526.4000001,NA,NA,605522.30000007,605527,2023-05-18T12:04:00Z,605530.974,NULL,Atmosphäre,angahewa,d,NA,NA,NA,NA,sdf,NA,2,NA,NA,NA,NA,NA,NA,NA,NA,NA,NA,NA,NA,NA,NA,NA,NA,NA,NA,NA
ec5f7,"""Falsch""-Screen",canvas.Screen,3_0_2_0_3_0_2,NA,NA,timeout,5000.1,605528.60000002,605514.307,605530.974,610514.407,610518.5,2023-05-18T12:04:05Z,610531.074,NULL,Atmosphäre,angahewa,d,NA,NA,NA,NA,sdf,0,2,NA,NA,NA,NA,NA,NA,NA,NA,NA,NA,NA,NA,NA,NA,NA,NA,NA,NA,NA
ec5f7,deep,flow.Sequence,3_0_2_0_3_0,NA,NA,completion,10900.707,599606.4000001,599597.033,599613.7,610514.407,610518.80000007,2023-05-18T12:04:05Z,610531.074,NULL,Atmosphäre,angahewa,d,NA,NA,NA,NA,sdf,NA,2,NA,NA,NA,NA,NA,NA,NA,NA,NA,NA,NA,NA,NA,NA,NA,NA,NA,NA,NA
ec5f7,shallow,flow.Sequence,3_0_2_0_3_1,NA,NA,skipped,NA,610518.9000001,NA,NA,610514.407,610519.10000002,2023-05-18T12:04:05Z,610531.074,NULL,Atmosphäre,angahewa,d,NA,NA,NA,NA,sdf,NA,2,NA,NA,NA,NA,NA,NA,NA,NA,NA,NA,NA,NA,NA,NA,NA,NA,NA,NA,NA
ec5f7,task,flow.Sequence,3_0_2_0_3,NA,NA,completion,10900.707,599606.30000007,599597.033,599613.7,610514.407,610519.30000007,2023-05-18T12:04:05Z,610531.074,NULL,Atmosphäre,angahewa,d,NA,NA,NA,NA,sdf,NA,2,NA,NA,NA,NA,NA,NA,NA,NA,NA,NA,NA,NA,NA,NA,NA,NA,NA,NA,NA
ec5f7,Deep Question,html.Page,3_0_2_0_4_0_0,NA,NA,form submission,10247.626000048,610519.4000001,610514.407,610531.074,620778.70000005,620779.10000002,2023-05-18T12:04:15Z,620781.785,NULL,Flexibilität,kubadilika,d,NA,NA,NA,kubanezi,NA,NA,2,NA,NA,NA,NA,NA,NA,NA,NA,NA,NA,NA,NA,NA,NA,NA,NA,NA,NA,NA
ec5f7,"""Richtig""-Screen",canvas.Screen,3_0_2_0_4_0_1,NA,NA,skipped,NA,620782.70000005,NA,NA,620778.70000005,620783.10000002,2023-05-18T12:04:15Z,620781.785,NULL,Flexibilität,kubadilika,d,NA,NA,NA,NA,sdf,NA,2,NA,NA,NA,NA,NA,NA,NA,NA,NA,NA,NA,NA,NA,NA,NA,NA,NA,NA,NA
ec5f7,"""Falsch""-Screen",canvas.Screen,3_0_2_0_4_0_2,NA,NA,timeout,5000.1,620784.20000005,620765.118,620781.785,625765.218,625769.30000007,2023-05-18T12:04:20Z,625781.885,NULL,Flexibilität,kubadilika,d,NA,NA,NA,NA,sdf,0,2,NA,NA,NA,NA,NA,NA,NA,NA,NA,NA,NA,NA,NA,NA,NA,NA,NA,NA,NA
ec5f7,deep,flow.Sequence,3_0_2_0_4_0,NA,NA,completion,15234.144,610519.4000001,610514.407,610531.074,625765.218,625769.60000002,2023-05-18T12:04:20Z,625781.885,NULL,Flexibilität,kubadilika,d,NA,NA,NA,NA,sdf,NA,2,NA,NA,NA,NA,NA,NA,NA,NA,NA,NA,NA,NA,NA,NA,NA,NA,NA,NA,NA
ec5f7,shallow,flow.Sequence,3_0_2_0_4_1,NA,NA,skipped,NA,625769.70000005,NA,NA,625765.218,625769.80000007,2023-05-18T12:04:20Z,625781.885,NULL,Flexibilität,kubadilika,d,NA,NA,NA,NA,sdf,NA,2,NA,NA,NA,NA,NA,NA,NA,NA,NA,NA,NA,NA,NA,NA,NA,NA,NA,NA,NA
ec5f7,task,flow.Sequence,3_0_2_0_4,NA,NA,completion,15234.144,610519.30000007,610514.407,610531.074,625765.218,625770,2023-05-18T12:04:20Z,625781.885,NULL,Flexibilität,kubadilika,d,NA,NA,NA,NA,sdf,NA,2,NA,NA,NA,NA,NA,NA,NA,NA,NA,NA,NA,NA,NA,NA,NA,NA,NA,NA,NA
ec5f7,deep,flow.Sequence,3_0_2_0_5_0,NA,NA,skipped,NA,625770.10000002,NA,NA,625765.218,625770.20000005,2023-05-18T12:04:20Z,625781.885,NULL,Hoffnung,matarajio,s,kutaalamika,uratibu,mvumbuzi,NA,sdf,NA,2,NA,NA,NA,NA,NA,NA,NA,NA,NA,NA,NA,NA,NA,NA,NA,NA,NA,NA,NA
ec5f7,Shallow Question,html.Page,3_0_2_0_5_1_0,NA,NA,form submission,5357.5150000954,625770.30000007,625765.218,625781.885,631139.4000001,631139.9000001,2023-05-18T12:04:25Z,631149.291,NULL,Hoffnung,matarajio,s,kutaalamika,uratibu,mvumbuzi,matarajio,NA,NA,2,NA,NA,NA,NA,NA,NA,NA,NA,NA,NA,NA,NA,NA,NA,NA,NA,NA,NA,NA
ec5f7,"""Richtig""-Screen",canvas.Screen,3_0_2_0_5_1_1,NA,NA,timeout,5000.1,631143.70000005,631132.624,631149.291,636132.724,636137.70000005,2023-05-18T12:04:30Z,636149.391,NULL,Hoffnung,matarajio,s,kutaalamika,uratibu,mvumbuzi,NA,sdf,1,2,NA,NA,NA,NA,NA,NA,NA,NA,NA,NA,NA,NA,NA,NA,NA,NA,NA,NA,NA
ec5f7,"""Falsch""-Screen",canvas.Screen,3_0_2_0_5_1_2,NA,NA,skipped,NA,636141.10000002,NA,NA,636132.724,636141.30000007,2023-05-18T12:04:30Z,636149.391,NULL,Hoffnung,matarajio,s,kutaalamika,uratibu,mvumbuzi,NA,sdf,NA,2,NA,NA,NA,NA,NA,NA,NA,NA,NA,NA,NA,NA,NA,NA,NA,NA,NA,NA,NA
ec5f7,shallow,flow.Sequence,3_0_2_0_5_1,NA,NA,completion,10350.839,625770.30000007,625765.218,625781.885,636132.724,636141.5,2023-05-18T12:04:30Z,636149.391,NULL,Hoffnung,matarajio,s,kutaalamika,uratibu,mvumbuzi,NA,sdf,NA,2,NA,NA,NA,NA,NA,NA,NA,NA,NA,NA,NA,NA,NA,NA,NA,NA,NA,NA,NA
ec5f7,task,flow.Sequence,3_0_2_0_5,NA,NA,completion,10350.839,625770,625765.218,625781.885,636132.724,636141.70000005,2023-05-18T12:04:30Z,636149.391,NULL,Hoffnung,matarajio,s,kutaalamika,uratibu,mvumbuzi,NA,sdf,NA,2,NA,NA,NA,NA,NA,NA,NA,NA,NA,NA,NA,NA,NA,NA,NA,NA,NA,NA,NA
ec5f7,Deep Question,html.Page,3_0_2_0_6_0_0,NA,NA,form submission,3988.3090000477,636141.80000007,636132.724,636149.391,640137.70000005,640138.20000005,2023-05-18T12:04:34Z,640149.962,NULL,Schock,mshtuko,d,NA,NA,NA,n,NA,NA,2,NA,NA,NA,NA,NA,NA,NA,NA,NA,NA,NA,NA,NA,NA,NA,NA,NA,NA,NA
ec5f7,"""Richtig""-Screen",canvas.Screen,3_0_2_0_6_0_1,NA,NA,skipped,NA,640141.5,NA,NA,640137.70000005,640141.70000005,2023-05-18T12:04:34Z,640149.962,NULL,Schock,mshtuko,d,NA,NA,NA,NA,sdf,NA,2,NA,NA,NA,NA,NA,NA,NA,NA,NA,NA,NA,NA,NA,NA,NA,NA,NA,NA,NA
ec5f7,"""Falsch""-Screen",canvas.Screen,3_0_2_0_6_0_2,NA,NA,timeout,5000.1,640142.9000001,640133.295,640149.962,645133.395,645136.80000007,2023-05-18T12:04:39Z,645150.062,NULL,Schock,mshtuko,d,NA,NA,NA,NA,sdf,0,2,NA,NA,NA,NA,NA,NA,NA,NA,NA,NA,NA,NA,NA,NA,NA,NA,NA,NA,NA
ec5f7,deep,flow.Sequence,3_0_2_0_6_0,NA,NA,completion,8984.0040000001,636141.80000007,636132.724,636149.391,645133.395,645137,2023-05-18T12:04:39Z,645150.062,NULL,Schock,mshtuko,d,NA,NA,NA,NA,sdf,NA,2,NA,NA,NA,NA,NA,NA,NA,NA,NA,NA,NA,NA,NA,NA,NA,NA,NA,NA,NA
ec5f7,shallow,flow.Sequence,3_0_2_0_6_1,NA,NA,skipped,NA,645137.20000005,NA,NA,645133.395,645137.4000001,2023-05-18T12:04:39Z,645150.062,NULL,Schock,mshtuko,d,NA,NA,NA,NA,sdf,NA,2,NA,NA,NA,NA,NA,NA,NA,NA,NA,NA,NA,NA,NA,NA,NA,NA,NA,NA,NA
ec5f7,task,flow.Sequence,3_0_2_0_6,NA,NA,completion,8984.0040000001,636141.70000005,636132.724,636149.391,645133.395,645137.5,2023-05-18T12:04:39Z,645150.062,NULL,Schock,mshtuko,d,NA,NA,NA,NA,sdf,NA,2,NA,NA,NA,NA,NA,NA,NA,NA,NA,NA,NA,NA,NA,NA,NA,NA,NA,NA,NA
ec5f7,deep,flow.Sequence,3_0_2_0_7_0,NA,NA,skipped,NA,645137.60000002,NA,NA,645133.395,645137.80000007,2023-05-18T12:04:39Z,645150.062,NULL,Wechsel,ugeuzaji,s,utambulisho,kujenga,wasiwasi,NA,sdf,NA,2,NA,NA,NA,NA,NA,NA,NA,NA,NA,NA,NA,NA,NA,NA,NA,NA,NA,NA,NA
ec5f7,Shallow Question,html.Page,3_0_2_0_7_1_0,NA,NA,form submission,7775.938,645137.80000007,645133.395,645150.062,652926,652926.4000001,2023-05-18T12:04:47Z,652933.551,NULL,Wechsel,ugeuzaji,s,utambulisho,kujenga,wasiwasi,ugeuzaji,NA,NA,2,NA,NA,NA,NA,NA,NA,NA,NA,NA,NA,NA,NA,NA,NA,NA,NA,NA,NA,NA
ec5f7,"""Richtig""-Screen",canvas.Screen,3_0_2_0_7_1_1,NA,NA,timeout,5000.1,652929.9000001,652916.884,652933.551,657916.984,657919.4000001,2023-05-18T12:04:52Z,657933.651,NULL,Wechsel,ugeuzaji,s,utambulisho,kujenga,wasiwasi,NA,sdf,1,2,NA,NA,NA,NA,NA,NA,NA,NA,NA,NA,NA,NA,NA,NA,NA,NA,NA,NA,NA
ec5f7,"""Falsch""-Screen",canvas.Screen,3_0_2_0_7_1_2,NA,NA,skipped,NA,657923.10000002,NA,NA,657916.984,657923.4000001,2023-05-18T12:04:52Z,657933.651,NULL,Wechsel,ugeuzaji,s,utambulisho,kujenga,wasiwasi,NA,sdf,NA,2,NA,NA,NA,NA,NA,NA,NA,NA,NA,NA,NA,NA,NA,NA,NA,NA,NA,NA,NA
ec5f7,shallow,flow.Sequence,3_0_2_0_7_1,NA,NA,completion,12766.922,645137.80000007,645133.395,645150.062,657916.984,657923.60000002,2023-05-18T12:04:52Z,657933.651,NULL,Wechsel,ugeuzaji,s,utambulisho,kujenga,wasiwasi,NA,sdf,NA,2,NA,NA,NA,NA,NA,NA,NA,NA,NA,NA,NA,NA,NA,NA,NA,NA,NA,NA,NA
ec5f7,task,flow.Sequence,3_0_2_0_7,NA,NA,completion,12766.922,645137.60000002,645133.395,645150.062,657916.984,657923.80000007,2023-05-18T12:04:52Z,657933.651,NULL,Wechsel,ugeuzaji,s,utambulisho,kujenga,wasiwasi,NA,sdf,NA,2,NA,NA,NA,NA,NA,NA,NA,NA,NA,NA,NA,NA,NA,NA,NA,NA,NA,NA,NA
ec5f7,block,flow.Loop,3_0_2_0,NA,NA,completion,108073.35,549833.80000007,549826.967,549843.634,657916.984,657924,2023-05-18T12:04:52Z,657933.651,NULL,NA,NA,NA,NA,NA,NA,NA,sdf,NA,2,NA,NA,NA,NA,NA,NA,NA,NA,NA,NA,NA,NA,NA,NA,NA,NA,NA,NA,NA
ec5f7,weiter,canvas.Screen,3_0_2_1,sdf,keypress(Space),response,1127.9490000239,657924.10000002,657916.984,657933.651,659061.60000002,659065.9000001,2023-05-18T12:04:53Z,659118.043,NULL,NA,NA,NA,NA,NA,NA,NA,sdf,NA,2,NA,NA,NA,NA,NA,NA,NA,NA,NA,NA,NA,NA,NA,NA,NA,NA,NA,NA,NA
ec5f7,check continue,flow.Sequence,3_0_2,NA,NA,completion,109217.96600002,549833.80000007,549826.967,549843.634,659061.60000002,659066.60000002,2023-05-18T12:04:53Z,659118.043,NULL,NA,NA,NA,NA,NA,NA,NA,sdf,NA,2,NA,NA,NA,NA,NA,NA,NA,NA,NA,NA,NA,NA,NA,NA,NA,NA,NA,NA,NA
ec5f7,Deep Question,html.Page,3_0_3_0_0_0_0,NA,NA,form submission,21629.257000072,659102.20000005,659101.376,659118.043,680747.30000007,680747.9000001,2023-05-18T12:05:15Z,680752.781,NULL,Atmosphäre,angahewa,d,NA,NA,NA,angahazij,NA,NA,3,NA,NA,NA,NA,NA,NA,NA,NA,NA,NA,NA,NA,NA,NA,NA,NA,NA,NA,NA
ec5f7,"""Richtig""-Screen",canvas.Screen,3_0_3_0_0_0_1,NA,NA,skipped,NA,680751.20000005,NA,NA,680747.30000007,680751.4000001,2023-05-18T12:05:15Z,680752.781,NULL,Atmosphäre,angahewa,d,NA,NA,NA,NA,qt,NA,3,NA,NA,NA,NA,NA,NA,NA,NA,NA,NA,NA,NA,NA,NA,NA,NA,NA,NA,NA
ec5f7,"""Falsch""-Screen",canvas.Screen,3_0_3_0_0_0_2,NA,NA,timeout,5000.1000000001,680752.4000001,680736.114,680752.781,685736.214,685740.80000007,2023-05-18T12:05:20Z,685752.881,NULL,Atmosphäre,angahewa,d,NA,NA,NA,NA,qt,0,3,NA,NA,NA,NA,NA,NA,NA,NA,NA,NA,NA,NA,NA,NA,NA,NA,NA,NA,NA
ec5f7,deep,flow.Sequence,3_0_3_0_0_0,NA,NA,completion,26618.171,659102.20000005,659101.376,659118.043,685736.214,685741.10000002,2023-05-18T12:05:20Z,685752.881,NULL,Atmosphäre,angahewa,d,NA,NA,NA,NA,qt,NA,3,NA,NA,NA,NA,NA,NA,NA,NA,NA,NA,NA,NA,NA,NA,NA,NA,NA,NA,NA
ec5f7,shallow,flow.Sequence,3_0_3_0_0_1,NA,NA,skipped,NA,685741.20000005,NA,NA,685736.214,685741.30000007,2023-05-18T12:05:20Z,685752.881,NULL,Atmosphäre,angahewa,d,NA,NA,NA,NA,qt,NA,3,NA,NA,NA,NA,NA,NA,NA,NA,NA,NA,NA,NA,NA,NA,NA,NA,NA,NA,NA
ec5f7,task,flow.Sequence,3_0_3_0_0,NA,NA,completion,26618.171,659102.20000005,659101.376,659118.043,685736.214,685741.5,2023-05-18T12:05:20Z,685752.881,NULL,Atmosphäre,angahewa,d,NA,NA,NA,NA,qt,NA,3,NA,NA,NA,NA,NA,NA,NA,NA,NA,NA,NA,NA,NA,NA,NA,NA,NA,NA,NA
ec5f7,Deep Question,html.Page,3_0_3_0_1_0_0,NA,NA,form submission,6075.6189999999,685741.70000005,685736.214,685752.881,691828.5,691829,2023-05-18T12:05:26Z,691836.814,NULL,Schock,mshtuko,d,NA,NA,NA,mshtuko,NA,NA,3,NA,NA,NA,NA,NA,NA,NA,NA,NA,NA,NA,NA,NA,NA,NA,NA,NA,NA,NA
ec5f7,"""Richtig""-Screen",canvas.Screen,3_0_3_0_1_0_1,NA,NA,timeout,5000.1,691832.60000002,691820.147,691836.814,696820.247,696824.5,2023-05-18T12:05:31Z,696836.914,NULL,Schock,mshtuko,d,NA,NA,NA,NA,qt,1,3,NA,NA,NA,NA,NA,NA,NA,NA,NA,NA,NA,NA,NA,NA,NA,NA,NA,NA,NA
ec5f7,"""Falsch""-Screen",canvas.Screen,3_0_3_0_1_0_2,NA,NA,skipped,NA,696828,NA,NA,696820.247,696828.30000007,2023-05-18T12:05:31Z,696836.914,NULL,Schock,mshtuko,d,NA,NA,NA,NA,qt,NA,3,NA,NA,NA,NA,NA,NA,NA,NA,NA,NA,NA,NA,NA,NA,NA,NA,NA,NA,NA
ec5f7,deep,flow.Sequence,3_0_3_0_1_0,NA,NA,completion,11067.366,685741.60000002,685736.214,685752.881,696820.247,696828.60000002,2023-05-18T12:05:31Z,696836.914,NULL,Schock,mshtuko,d,NA,NA,NA,NA,qt,NA,3,NA,NA,NA,NA,NA,NA,NA,NA,NA,NA,NA,NA,NA,NA,NA,NA,NA,NA,NA
ec5f7,shallow,flow.Sequence,3_0_3_0_1_1,NA,NA,skipped,NA,696828.70000005,NA,NA,696820.247,696828.70000005,2023-05-18T12:05:31Z,696836.914,NULL,Schock,mshtuko,d,NA,NA,NA,NA,qt,NA,3,NA,NA,NA,NA,NA,NA,NA,NA,NA,NA,NA,NA,NA,NA,NA,NA,NA,NA,NA
ec5f7,task,flow.Sequence,3_0_3_0_1,NA,NA,completion,11067.366,685741.60000002,685736.214,685752.881,696820.247,696829,2023-05-18T12:05:31Z,696836.914,NULL,Schock,mshtuko,d,NA,NA,NA,NA,qt,NA,3,NA,NA,NA,NA,NA,NA,NA,NA,NA,NA,NA,NA,NA,NA,NA,NA,NA,NA,NA
ec5f7,deep,flow.Sequence,3_0_3_0_2_0,NA,NA,skipped,NA,696829.10000002,NA,NA,696820.247,696829.20000005,2023-05-18T12:05:31Z,696836.914,NULL,Erneuerung,ukarabati,s,ushawishi,ukalifu,unyonyaji,NA,qt,NA,3,NA,NA,NA,NA,NA,NA,NA,NA,NA,NA,NA,NA,NA,NA,NA,NA,NA,NA,NA
ec5f7,Shallow Question,html.Page,3_0_3_0_2_1_0,NA,NA,form submission,10682.986000095,696829.30000007,696820.247,696836.914,707519.9000001,707520.10000002,2023-05-18T12:05:42Z,707520.945,NULL,Erneuerung,ukarabati,s,ushawishi,ukalifu,unyonyaji,ukarabati,NA,NA,3,NA,NA,NA,NA,NA,NA,NA,NA,NA,NA,NA,NA,NA,NA,NA,NA,NA,NA,NA
ec5f7,"""Richtig""-Screen",canvas.Screen,3_0_3_0_2_1_1,NA,NA,timeout,5000.1000000001,707521.80000007,707504.278,707520.945,712504.378,712507.4000001,2023-05-18T12:05:47Z,712521.045,NULL,Erneuerung,ukarabati,s,ushawishi,ukalifu,unyonyaji,NA,qt,1,3,NA,NA,NA,NA,NA,NA,NA,NA,NA,NA,NA,NA,NA,NA,NA,NA,NA,NA,NA
ec5f7,"""Falsch""-Screen",canvas.Screen,3_0_3_0_2_1_2,NA,NA,skipped,NA,712510.60000002,NA,NA,712504.378,712510.9000001,2023-05-18T12:05:47Z,712521.045,NULL,Erneuerung,ukarabati,s,ushawishi,ukalifu,unyonyaji,NA,qt,NA,3,NA,NA,NA,NA,NA,NA,NA,NA,NA,NA,NA,NA,NA,NA,NA,NA,NA,NA,NA
ec5f7,shallow,flow.Sequence,3_0_3_0_2_1,NA,NA,completion,15667.464,696829.30000007,696820.247,696836.914,712504.378,712511.10000002,2023-05-18T12:05:47Z,712521.045,NULL,Erneuerung,ukarabati,s,ushawishi,ukalifu,unyonyaji,NA,qt,NA,3,NA,NA,NA,NA,NA,NA,NA,NA,NA,NA,NA,NA,NA,NA,NA,NA,NA,NA,NA
ec5f7,task,flow.Sequence,3_0_3_0_2,NA,NA,completion,15667.464,696829,696820.247,696836.914,712504.378,712511.30000007,2023-05-18T12:05:47Z,712521.045,NULL,Erneuerung,ukarabati,s,ushawishi,ukalifu,unyonyaji,NA,qt,NA,3,NA,NA,NA,NA,NA,NA,NA,NA,NA,NA,NA,NA,NA,NA,NA,NA,NA,NA,NA
ec5f7,deep,flow.Sequence,3_0_3_0_3_0,NA,NA,skipped,NA,712511.5,NA,NA,712504.378,712511.60000002,2023-05-18T12:05:47Z,712521.045,NULL,Verpackung,ufungaji,s,uhusiano,upimaji,uchunguzi,NA,qt,NA,3,NA,NA,NA,NA,NA,NA,NA,NA,NA,NA,NA,NA,NA,NA,NA,NA,NA,NA,NA
ec5f7,Shallow Question,html.Page,3_0_3_0_3_1_0,NA,NA,form submission,3773.5550000238,712511.70000005,712504.378,712521.045,716294.60000002,716295,2023-05-18T12:05:51Z,716305.11,NULL,Verpackung,ufungaji,s,uhusiano,upimaji,uchunguzi,ufungaji,NA,NA,3,NA,NA,NA,NA,NA,NA,NA,NA,NA,NA,NA,NA,NA,NA,NA,NA,NA,NA,NA
ec5f7,"""Richtig""-Screen",canvas.Screen,3_0_3_0_3_1_1,NA,NA,timeout,5000.1,716298.30000007,716288.443,716305.11,721288.543,721292.5,2023-05-18T12:05:56Z,721305.21,NULL,Verpackung,ufungaji,s,uhusiano,upimaji,uchunguzi,NA,qt,1,3,NA,NA,NA,NA,NA,NA,NA,NA,NA,NA,NA,NA,NA,NA,NA,NA,NA,NA,NA
ec5f7,"""Falsch""-Screen",canvas.Screen,3_0_3_0_3_1_2,NA,NA,skipped,NA,721296.10000002,NA,NA,721288.543,721296.30000007,2023-05-18T12:05:56Z,721305.21,NULL,Verpackung,ufungaji,s,uhusiano,upimaji,uchunguzi,NA,qt,NA,3,NA,NA,NA,NA,NA,NA,NA,NA,NA,NA,NA,NA,NA,NA,NA,NA,NA,NA,NA
ec5f7,shallow,flow.Sequence,3_0_3_0_3_1,NA,NA,completion,8767.4979999999,712511.70000005,712504.378,712521.045,721288.543,721296.60000002,2023-05-18T12:05:56Z,721305.21,NULL,Verpackung,ufungaji,s,uhusiano,upimaji,uchunguzi,NA,qt,NA,3,NA,NA,NA,NA,NA,NA,NA,NA,NA,NA,NA,NA,NA,NA,NA,NA,NA,NA,NA
ec5f7,task,flow.Sequence,3_0_3_0_3,NA,NA,completion,8767.4979999999,712511.5,712504.378,712521.045,721288.543,721296.80000007,2023-05-18T12:05:56Z,721305.21,NULL,Verpackung,ufungaji,s,uhusiano,upimaji,uchunguzi,NA,qt,NA,3,NA,NA,NA,NA,NA,NA,NA,NA,NA,NA,NA,NA,NA,NA,NA,NA,NA,NA,NA
ec5f7,Deep Question,html.Page,3_0_3_0_4_0_0,NA,NA,form submission,24083.29,721297,721288.543,721305.21,745388.5,745389.20000005,2023-05-18T12:06:20Z,745390.506,NULL,Theorie,nadharia,d,NA,NA,NA,nadaguijz,NA,NA,3,NA,NA,NA,NA,NA,NA,NA,NA,NA,NA,NA,NA,NA,NA,NA,NA,NA,NA,NA
ec5f7,"""Richtig""-Screen",canvas.Screen,3_0_3_0_4_0_1,NA,NA,skipped,NA,745392.70000005,NA,NA,745388.5,745392.9000001,2023-05-18T12:06:20Z,745390.506,NULL,Theorie,nadharia,d,NA,NA,NA,NA,qt,NA,3,NA,NA,NA,NA,NA,NA,NA,NA,NA,NA,NA,NA,NA,NA,NA,NA,NA,NA,NA
ec5f7,"""Falsch""-Screen",canvas.Screen,3_0_3_0_4_0_2,NA,NA,timeout,5000.1,745394,745373.839,745390.506,750373.939,750376.70000005,2023-05-18T12:06:25Z,750390.606,NULL,Theorie,nadharia,d,NA,NA,NA,NA,qt,0,3,NA,NA,NA,NA,NA,NA,NA,NA,NA,NA,NA,NA,NA,NA,NA,NA,NA,NA,NA
ec5f7,deep,flow.Sequence,3_0_3_0_4_0,NA,NA,completion,29068.729,721296.9000001,721288.543,721305.21,750373.939,750377,2023-05-18T12:06:25Z,750390.606,NULL,Theorie,nadharia,d,NA,NA,NA,NA,qt,NA,3,NA,NA,NA,NA,NA,NA,NA,NA,NA,NA,NA,NA,NA,NA,NA,NA,NA,NA,NA
ec5f7,shallow,flow.Sequence,3_0_3_0_4_1,NA,NA,skipped,NA,750377.10000002,NA,NA,750373.939,750377.20000005,2023-05-18T12:06:25Z,750390.606,NULL,Theorie,nadharia,d,NA,NA,NA,NA,qt,NA,3,NA,NA,NA,NA,NA,NA,NA,NA,NA,NA,NA,NA,NA,NA,NA,NA,NA,NA,NA
ec5f7,task,flow.Sequence,3_0_3_0_4,NA,NA,completion,29068.729,721296.80000007,721288.543,721305.21,750373.939,750377.4000001,2023-05-18T12:06:25Z,750390.606,NULL,Theorie,nadharia,d,NA,NA,NA,NA,qt,NA,3,NA,NA,NA,NA,NA,NA,NA,NA,NA,NA,NA,NA,NA,NA,NA,NA,NA,NA,NA
ec5f7,deep,flow.Sequence,3_0_3_0_5_0,NA,NA,skipped,NA,750377.4000001,NA,NA,750373.939,750377.5,2023-05-18T12:06:25Z,750390.606,NULL,Wechsel,ugeuzaji,s,utambulisho,kujenga,wasiwasi,NA,qt,NA,3,NA,NA,NA,NA,NA,NA,NA,NA,NA,NA,NA,NA,NA,NA,NA,NA,NA,NA,NA
ec5f7,Shallow Question,html.Page,3_0_3_0_5_1_0,NA,NA,form submission,18184.294000095,750377.60000002,750373.939,750390.606,768574.9000001,768575.4000001,2023-05-18T12:06:43Z,768592.073,NULL,Wechsel,ugeuzaji,s,utambulisho,kujenga,wasiwasi,ugeuzaji,NA,NA,3,NA,NA,NA,NA,NA,NA,NA,NA,NA,NA,NA,NA,NA,NA,NA,NA,NA,NA,NA
ec5f7,"""Richtig""-Screen",canvas.Screen,3_0_3_0_5_1_1,NA,NA,timeout,5000.1,768579.10000002,768575.406,768592.073,773575.506,773578.30000007,2023-05-18T12:06:48Z,773592.173,NULL,Wechsel,ugeuzaji,s,utambulisho,kujenga,wasiwasi,NA,qt,1,3,NA,NA,NA,NA,NA,NA,NA,NA,NA,NA,NA,NA,NA,NA,NA,NA,NA,NA,NA
ec5f7,"""Falsch""-Screen",canvas.Screen,3_0_3_0_5_1_2,NA,NA,skipped,NA,773581.5,NA,NA,773575.506,773581.80000007,2023-05-18T12:06:48Z,773592.173,NULL,Wechsel,ugeuzaji,s,utambulisho,kujenga,wasiwasi,NA,qt,NA,3,NA,NA,NA,NA,NA,NA,NA,NA,NA,NA,NA,NA,NA,NA,NA,NA,NA,NA,NA
ec5f7,shallow,flow.Sequence,3_0_3_0_5_1,NA,NA,completion,23184.9,750377.5,750373.939,750390.606,773575.506,773582.10000002,2023-05-18T12:06:48Z,773592.173,NULL,Wechsel,ugeuzaji,s,utambulisho,kujenga,wasiwasi,NA,qt,NA,3,NA,NA,NA,NA,NA,NA,NA,NA,NA,NA,NA,NA,NA,NA,NA,NA,NA,NA,NA
ec5f7,task,flow.Sequence,3_0_3_0_5,NA,NA,completion,23184.9,750377.4000001,750373.939,750390.606,773575.506,773582.20000005,2023-05-18T12:06:48Z,773592.173,NULL,Wechsel,ugeuzaji,s,utambulisho,kujenga,wasiwasi,NA,qt,NA,3,NA,NA,NA,NA,NA,NA,NA,NA,NA,NA,NA,NA,NA,NA,NA,NA,NA,NA,NA
ec5f7,Deep Question,html.Page,3_0_3_0_6_0_0,NA,NA,form submission,20297.427000024,773582.5,773575.506,773592.173,793889.60000002,793890.4000001,2023-05-18T12:07:08Z,793893.538,NULL,Flexibilität,kubadilika,d,NA,NA,NA,kubadenia,NA,NA,3,NA,NA,NA,NA,NA,NA,NA,NA,NA,NA,NA,NA,NA,NA,NA,NA,NA,NA,NA
ec5f7,"""Richtig""-Screen",canvas.Screen,3_0_3_0_6_0_1,NA,NA,skipped,NA,793894.4000001,NA,NA,793889.60000002,793894.60000002,2023-05-18T12:07:08Z,793893.538,NULL,Flexibilität,kubadilika,d,NA,NA,NA,NA,qt,NA,3,NA,NA,NA,NA,NA,NA,NA,NA,NA,NA,NA,NA,NA,NA,NA,NA,NA,NA,NA
ec5f7,"""Falsch""-Screen",canvas.Screen,3_0_3_0_6_0_2,NA,NA,timeout,5000.1000000001,793895.80000007,793876.871,793893.538,798876.971,798881.60000002,2023-05-18T12:07:13Z,798893.638,NULL,Flexibilität,kubadilika,d,NA,NA,NA,NA,qt,0,3,NA,NA,NA,NA,NA,NA,NA,NA,NA,NA,NA,NA,NA,NA,NA,NA,NA,NA,NA
ec5f7,deep,flow.Sequence,3_0_3_0_6_0,NA,NA,completion,25284.798,773582.5,773575.506,773592.173,798876.971,798881.80000007,2023-05-18T12:07:13Z,798893.638,NULL,Flexibilität,kubadilika,d,NA,NA,NA,NA,qt,NA,3,NA,NA,NA,NA,NA,NA,NA,NA,NA,NA,NA,NA,NA,NA,NA,NA,NA,NA,NA
ec5f7,shallow,flow.Sequence,3_0_3_0_6_1,NA,NA,skipped,NA,798881.9000001,NA,NA,798876.971,798882,2023-05-18T12:07:13Z,798893.638,NULL,Flexibilität,kubadilika,d,NA,NA,NA,NA,qt,NA,3,NA,NA,NA,NA,NA,NA,NA,NA,NA,NA,NA,NA,NA,NA,NA,NA,NA,NA,NA
ec5f7,task,flow.Sequence,3_0_3_0_6,NA,NA,completion,25284.798,773582.30000007,773575.506,773592.173,798876.971,798882.20000005,2023-05-18T12:07:13Z,798893.638,NULL,Flexibilität,kubadilika,d,NA,NA,NA,NA,qt,NA,3,NA,NA,NA,NA,NA,NA,NA,NA,NA,NA,NA,NA,NA,NA,NA,NA,NA,NA,NA
ec5f7,deep,flow.Sequence,3_0_3_0_7_0,NA,NA,skipped,NA,798882.30000007,NA,NA,798876.971,798882.5,2023-05-18T12:07:13Z,798893.638,NULL,Hoffnung,matarajio,s,kutaalamika,uratibu,mvumbuzi,NA,qt,NA,3,NA,NA,NA,NA,NA,NA,NA,NA,NA,NA,NA,NA,NA,NA,NA,NA,NA,NA,NA
ec5f7,Shallow Question,html.Page,3_0_3_0_7_1_0,NA,NA,form submission,19253.362,798882.5,798876.971,798893.638,818147,818147.30000007,2023-05-18T12:07:32Z,818161.724,NULL,Hoffnung,matarajio,s,kutaalamika,uratibu,mvumbuzi,uratibu,NA,NA,3,NA,NA,NA,NA,NA,NA,NA,NA,NA,NA,NA,NA,NA,NA,NA,NA,NA,NA,NA
ec5f7,"""Richtig""-Screen",canvas.Screen,3_0_3_0_7_1_1,NA,NA,skipped,NA,818150.9000001,NA,NA,818147,818151.10000002,2023-05-18T12:07:32Z,818161.724,NULL,Hoffnung,matarajio,s,kutaalamika,uratibu,mvumbuzi,NA,qt,NA,3,NA,NA,NA,NA,NA,NA,NA,NA,NA,NA,NA,NA,NA,NA,NA,NA,NA,NA,NA
ec5f7,"""Falsch""-Screen",canvas.Screen,3_0_3_0_7_1_2,NA,NA,timeout,5000.1,818152.10000002,818145.057,818161.724,823145.157,823146.9000001,2023-05-18T12:07:37Z,823161.824,NULL,Hoffnung,matarajio,s,kutaalamika,uratibu,mvumbuzi,NA,qt,0,3,NA,NA,NA,NA,NA,NA,NA,NA,NA,NA,NA,NA,NA,NA,NA,NA,NA,NA,NA
ec5f7,shallow,flow.Sequence,3_0_3_0_7_1,NA,NA,completion,24251.519,798882.5,798876.971,798893.638,823145.157,823147.30000007,2023-05-18T12:07:37Z,823161.824,NULL,Hoffnung,matarajio,s,kutaalamika,uratibu,mvumbuzi,NA,qt,NA,3,NA,NA,NA,NA,NA,NA,NA,NA,NA,NA,NA,NA,NA,NA,NA,NA,NA,NA,NA
ec5f7,task,flow.Sequence,3_0_3_0_7,NA,NA,completion,24251.519,798882.30000007,798876.971,798893.638,823145.157,823147.5,2023-05-18T12:07:37Z,823161.824,NULL,Hoffnung,matarajio,s,kutaalamika,uratibu,mvumbuzi,NA,qt,NA,3,NA,NA,NA,NA,NA,NA,NA,NA,NA,NA,NA,NA,NA,NA,NA,NA,NA,NA,NA
ec5f7,block,flow.Loop,3_0_3_0,NA,NA,completion,164027.114,659102.20000005,659101.376,659118.043,823145.157,823147.70000005,2023-05-18T12:07:37Z,823161.824,NULL,NA,NA,NA,NA,NA,NA,NA,qt,NA,3,NA,NA,NA,NA,NA,NA,NA,NA,NA,NA,NA,NA,NA,NA,NA,NA,NA,NA,NA
ec5f7,weiter,canvas.Screen,3_0_3_1,sdf,keypress(Space),response,1210.5760000953,823147.80000007,823145.157,823161.824,824372.4000001,824378.80000007,2023-05-18T12:07:39Z,824445.856,NULL,NA,NA,NA,NA,NA,NA,NA,qt,NA,3,NA,NA,NA,NA,NA,NA,NA,NA,NA,NA,NA,NA,NA,NA,NA,NA,NA,NA,NA
ec5f7,check continue,flow.Sequence,3_0_3,NA,NA,completion,165254.3570001,659102.10000002,659101.376,659118.043,824372.4000001,824379,2023-05-18T12:07:39Z,824445.856,NULL,NA,NA,NA,NA,NA,NA,NA,qt,NA,3,NA,NA,NA,NA,NA,NA,NA,NA,NA,NA,NA,NA,NA,NA,NA,NA,NA,NA,NA
ec5f7,Deep Question,html.Page,3_0_4_0_0_0_0,NA,NA,form submission,6354.644,824430.4000001,824429.189,824445.856,830800.5,830801,2023-05-18T12:07:45Z,830812.65,NULL,Theorie,nadharia,d,NA,NA,NA,nadhario,NA,NA,4,NA,NA,NA,NA,NA,NA,NA,NA,NA,NA,NA,NA,NA,NA,NA,NA,NA,NA,NA
ec5f7,"""Richtig""-Screen",canvas.Screen,3_0_4_0_0_0_1,NA,NA,skipped,NA,830804.30000007,NA,NA,830800.5,830804.60000002,2023-05-18T12:07:45Z,830812.65,NULL,Theorie,nadharia,d,NA,NA,NA,NA,sd,NA,4,NA,NA,NA,NA,NA,NA,NA,NA,NA,NA,NA,NA,NA,NA,NA,NA,NA,NA,NA
ec5f7,"""Falsch""-Screen",canvas.Screen,3_0_4_0_0_0_2,NA,NA,timeout,5000.1,830805.9000001,830795.983,830812.65,835796.083,835797.80000007,2023-05-18T12:07:50Z,835812.75,NULL,Theorie,nadharia,d,NA,NA,NA,NA,sd,0,4,NA,NA,NA,NA,NA,NA,NA,NA,NA,NA,NA,NA,NA,NA,NA,NA,NA,NA,NA
ec5f7,deep,flow.Sequence,3_0_4_0_0_0,NA,NA,completion,11350.227,824430.4000001,824429.189,824445.856,835796.083,835798.10000002,2023-05-18T12:07:50Z,835812.75,NULL,Theorie,nadharia,d,NA,NA,NA,NA,sd,NA,4,NA,NA,NA,NA,NA,NA,NA,NA,NA,NA,NA,NA,NA,NA,NA,NA,NA,NA,NA
ec5f7,shallow,flow.Sequence,3_0_4_0_0_1,NA,NA,skipped,NA,835798.20000005,NA,NA,835796.083,835798.4000001,2023-05-18T12:07:50Z,835812.75,NULL,Theorie,nadharia,d,NA,NA,NA,NA,sd,NA,4,NA,NA,NA,NA,NA,NA,NA,NA,NA,NA,NA,NA,NA,NA,NA,NA,NA,NA,NA
ec5f7,task,flow.Sequence,3_0_4_0_0,NA,NA,completion,11350.227,824430.4000001,824429.189,824445.856,835796.083,835798.5,2023-05-18T12:07:50Z,835812.75,NULL,Theorie,nadharia,d,NA,NA,NA,NA,sd,NA,4,NA,NA,NA,NA,NA,NA,NA,NA,NA,NA,NA,NA,NA,NA,NA,NA,NA,NA,NA
ec5f7,deep,flow.Sequence,3_0_4_0_1_0,NA,NA,skipped,NA,835798.70000005,NA,NA,835796.083,835798.80000007,2023-05-18T12:07:50Z,835812.75,NULL,Wechsel,ugeuzaji,s,utambulisho,kujenga,wasiwasi,NA,sd,NA,4,NA,NA,NA,NA,NA,NA,NA,NA,NA,NA,NA,NA,NA,NA,NA,NA,NA,NA,NA
ec5f7,Shallow Question,html.Page,3_0_4_0_1_1_0,NA,NA,form submission,7023.1500000954,835798.9000001,835796.083,835812.75,842835.9000001,842836.20000005,2023-05-18T12:07:57Z,842846.824,NULL,Wechsel,ugeuzaji,s,utambulisho,kujenga,wasiwasi,ugeuzaji,NA,NA,4,NA,NA,NA,NA,NA,NA,NA,NA,NA,NA,NA,NA,NA,NA,NA,NA,NA,NA,NA
ec5f7,"""Richtig""-Screen",canvas.Screen,3_0_4_0_1_1_1,NA,NA,timeout,5000.1,842838.70000005,842830.157,842846.824,847830.257,847834.30000007,2023-05-18T12:08:02Z,847846.924,NULL,Wechsel,ugeuzaji,s,utambulisho,kujenga,wasiwasi,NA,sd,1,4,NA,NA,NA,NA,NA,NA,NA,NA,NA,NA,NA,NA,NA,NA,NA,NA,NA,NA,NA
ec5f7,"""Falsch""-Screen",canvas.Screen,3_0_4_0_1_1_2,NA,NA,skipped,NA,847838,NA,NA,847830.257,847838.30000007,2023-05-18T12:08:02Z,847846.924,NULL,Wechsel,ugeuzaji,s,utambulisho,kujenga,wasiwasi,NA,sd,NA,4,NA,NA,NA,NA,NA,NA,NA,NA,NA,NA,NA,NA,NA,NA,NA,NA,NA,NA,NA
ec5f7,shallow,flow.Sequence,3_0_4_0_1_1,NA,NA,completion,12017.507,835798.9000001,835796.083,835812.75,847830.257,847838.5,2023-05-18T12:08:02Z,847846.924,NULL,Wechsel,ugeuzaji,s,utambulisho,kujenga,wasiwasi,NA,sd,NA,4,NA,NA,NA,NA,NA,NA,NA,NA,NA,NA,NA,NA,NA,NA,NA,NA,NA,NA,NA
ec5f7,task,flow.Sequence,3_0_4_0_1,NA,NA,completion,12017.507,835798.60000002,835796.083,835812.75,847830.257,847838.70000005,2023-05-18T12:08:02Z,847846.924,NULL,Wechsel,ugeuzaji,s,utambulisho,kujenga,wasiwasi,NA,sd,NA,4,NA,NA,NA,NA,NA,NA,NA,NA,NA,NA,NA,NA,NA,NA,NA,NA,NA,NA,NA
ec5f7,Deep Question,html.Page,3_0_4_0_2_0_0,NA,NA,form submission,28270.976000095,847838.9000001,847830.257,847846.924,876117.9000001,876118.70000005,2023-05-18T12:08:30Z,876132.355,NULL,Flexibilität,kubadilika,d,NA,NA,NA,kubakelia,NA,NA,4,NA,NA,NA,NA,NA,NA,NA,NA,NA,NA,NA,NA,NA,NA,NA,NA,NA,NA,NA
ec5f7,"""Richtig""-Screen",canvas.Screen,3_0_4_0_2_0_1,NA,NA,skipped,NA,876122.10000002,NA,NA,876117.9000001,876122.4000001,2023-05-18T12:08:30Z,876132.355,NULL,Flexibilität,kubadilika,d,NA,NA,NA,NA,sd,NA,4,NA,NA,NA,NA,NA,NA,NA,NA,NA,NA,NA,NA,NA,NA,NA,NA,NA,NA,NA
ec5f7,"""Falsch""-Screen",canvas.Screen,3_0_4_0_2_0_2,NA,NA,timeout,5000.1,876123.4000001,876115.688,876132.355,881115.788,881120.9000001,2023-05-18T12:08:35Z,881132.455,NULL,Flexibilität,kubadilika,d,NA,NA,NA,NA,sd,0,4,NA,NA,NA,NA,NA,NA,NA,NA,NA,NA,NA,NA,NA,NA,NA,NA,NA,NA,NA
ec5f7,deep,flow.Sequence,3_0_4_0_2_0,NA,NA,completion,33268.864,847838.80000007,847830.257,847846.924,881115.788,881121.20000005,2023-05-18T12:08:35Z,881132.455,NULL,Flexibilität,kubadilika,d,NA,NA,NA,NA,sd,NA,4,NA,NA,NA,NA,NA,NA,NA,NA,NA,NA,NA,NA,NA,NA,NA,NA,NA,NA,NA
ec5f7,shallow,flow.Sequence,3_0_4_0_2_1,NA,NA,skipped,NA,881121.4000001,NA,NA,881115.788,881121.5,2023-05-18T12:08:35Z,881132.455,NULL,Flexibilität,kubadilika,d,NA,NA,NA,NA,sd,NA,4,NA,NA,NA,NA,NA,NA,NA,NA,NA,NA,NA,NA,NA,NA,NA,NA,NA,NA,NA
ec5f7,task,flow.Sequence,3_0_4_0_2,NA,NA,completion,33268.864,847838.80000007,847830.257,847846.924,881115.788,881121.70000005,2023-05-18T12:08:35Z,881132.455,NULL,Flexibilität,kubadilika,d,NA,NA,NA,NA,sd,NA,4,NA,NA,NA,NA,NA,NA,NA,NA,NA,NA,NA,NA,NA,NA,NA,NA,NA,NA,NA
ec5f7,Deep Question,html.Page,3_0_4_0_3_0_0,NA,NA,form submission,19132.145000024,881121.9000001,881115.788,881132.455,900264.60000002,900264.9000001,2023-05-18T12:08:55Z,900267.274,NULL,Atmosphäre,angahewa,d,NA,NA,NA,angohaji,NA,NA,4,NA,NA,NA,NA,NA,NA,NA,NA,NA,NA,NA,NA,NA,NA,NA,NA,NA,NA,NA
ec5f7,"""Richtig""-Screen",canvas.Screen,3_0_4_0_3_0_1,NA,NA,skipped,NA,900269,NA,NA,900264.60000002,900269.20000005,2023-05-18T12:08:55Z,900267.274,NULL,Atmosphäre,angahewa,d,NA,NA,NA,NA,sd,NA,4,NA,NA,NA,NA,NA,NA,NA,NA,NA,NA,NA,NA,NA,NA,NA,NA,NA,NA,NA
ec5f7,"""Falsch""-Screen",canvas.Screen,3_0_4_0_3_0_2,NA,NA,timeout,5000.1,900270.20000005,900250.607,900267.274,905250.707,905254.70000005,2023-05-18T12:08:59Z,905267.374,NULL,Atmosphäre,angahewa,d,NA,NA,NA,NA,sd,0,4,NA,NA,NA,NA,NA,NA,NA,NA,NA,NA,NA,NA,NA,NA,NA,NA,NA,NA,NA
ec5f7,deep,flow.Sequence,3_0_4_0_3_0,NA,NA,completion,24118.252,881121.80000007,881115.788,881132.455,905250.707,905255.10000002,2023-05-18T12:08:59Z,905267.374,NULL,Atmosphäre,angahewa,d,NA,NA,NA,NA,sd,NA,4,NA,NA,NA,NA,NA,NA,NA,NA,NA,NA,NA,NA,NA,NA,NA,NA,NA,NA,NA
ec5f7,shallow,flow.Sequence,3_0_4_0_3_1,NA,NA,skipped,NA,905255.20000005,NA,NA,905250.707,905255.30000007,2023-05-18T12:08:59Z,905267.374,NULL,Atmosphäre,angahewa,d,NA,NA,NA,NA,sd,NA,4,NA,NA,NA,NA,NA,NA,NA,NA,NA,NA,NA,NA,NA,NA,NA,NA,NA,NA,NA
ec5f7,task,flow.Sequence,3_0_4_0_3,NA,NA,completion,24118.252,881121.80000007,881115.788,881132.455,905250.707,905255.4000001,2023-05-18T12:08:59Z,905267.374,NULL,Atmosphäre,angahewa,d,NA,NA,NA,NA,sd,NA,4,NA,NA,NA,NA,NA,NA,NA,NA,NA,NA,NA,NA,NA,NA,NA,NA,NA,NA,NA
ec5f7,deep,flow.Sequence,3_0_4_0_4_0,NA,NA,skipped,NA,905255.60000002,NA,NA,905250.707,905255.70000005,2023-05-18T12:08:59Z,905267.374,NULL,Erneuerung,ukarabati,s,ushawishi,ukalifu,unyonyaji,NA,sd,NA,4,NA,NA,NA,NA,NA,NA,NA,NA,NA,NA,NA,NA,NA,NA,NA,NA,NA,NA,NA
ec5f7,Shallow Question,html.Page,3_0_4_0_4_1_0,NA,NA,form submission,8695.126,905255.80000007,905250.707,905267.374,913962.5,913962.9000001,2023-05-18T12:09:08Z,913968.21,NULL,Erneuerung,ukarabati,s,ushawishi,ukalifu,unyonyaji,ukarabati,NA,NA,4,NA,NA,NA,NA,NA,NA,NA,NA,NA,NA,NA,NA,NA,NA,NA,NA,NA,NA,NA
ec5f7,"""Richtig""-Screen",canvas.Screen,3_0_4_0_4_1_1,NA,NA,timeout,5000.1000000001,913966.5,913951.543,913968.21,918951.643,918953.9000001,2023-05-18T12:09:13Z,918968.31,NULL,Erneuerung,ukarabati,s,ushawishi,ukalifu,unyonyaji,NA,sd,1,4,NA,NA,NA,NA,NA,NA,NA,NA,NA,NA,NA,NA,NA,NA,NA,NA,NA,NA,NA
ec5f7,"""Falsch""-Screen",canvas.Screen,3_0_4_0_4_1_2,NA,NA,skipped,NA,918958.20000005,NA,NA,918951.643,918958.4000001,2023-05-18T12:09:13Z,918968.31,NULL,Erneuerung,ukarabati,s,ushawishi,ukalifu,unyonyaji,NA,sd,NA,4,NA,NA,NA,NA,NA,NA,NA,NA,NA,NA,NA,NA,NA,NA,NA,NA,NA,NA,NA
ec5f7,shallow,flow.Sequence,3_0_4_0_4_1,NA,NA,completion,13684.269,905255.80000007,905250.707,905267.374,918951.643,918958.70000005,2023-05-18T12:09:13Z,918968.31,NULL,Erneuerung,ukarabati,s,ushawishi,ukalifu,unyonyaji,NA,sd,NA,4,NA,NA,NA,NA,NA,NA,NA,NA,NA,NA,NA,NA,NA,NA,NA,NA,NA,NA,NA
ec5f7,task,flow.Sequence,3_0_4_0_4,NA,NA,completion,13684.269,905255.5,905250.707,905267.374,918951.643,918958.80000007,2023-05-18T12:09:13Z,918968.31,NULL,Erneuerung,ukarabati,s,ushawishi,ukalifu,unyonyaji,NA,sd,NA,4,NA,NA,NA,NA,NA,NA,NA,NA,NA,NA,NA,NA,NA,NA,NA,NA,NA,NA,NA
ec5f7,deep,flow.Sequence,3_0_4_0_5_0,NA,NA,skipped,NA,918959,NA,NA,918951.643,918959.10000002,2023-05-18T12:09:13Z,918968.31,NULL,Hoffnung,matarajio,s,kutaalamika,uratibu,mvumbuzi,NA,sd,NA,4,NA,NA,NA,NA,NA,NA,NA,NA,NA,NA,NA,NA,NA,NA,NA,NA,NA,NA,NA
ec5f7,Shallow Question,html.Page,3_0_4_0_5_1_0,NA,NA,form submission,2861.1899999999,918959.20000005,918951.643,918968.31,921829.5,921830,2023-05-18T12:09:16Z,921835.684,NULL,Hoffnung,matarajio,s,kutaalamika,uratibu,mvumbuzi,matarajio,NA,NA,4,NA,NA,NA,NA,NA,NA,NA,NA,NA,NA,NA,NA,NA,NA,NA,NA,NA,NA,NA
ec5f7,"""Richtig""-Screen",canvas.Screen,3_0_4_0_5_1_1,NA,NA,timeout,5000.1,921831.30000007,921819.017,921835.684,926819.117,926821.5,2023-05-18T12:09:21Z,926835.784,NULL,Hoffnung,matarajio,s,kutaalamika,uratibu,mvumbuzi,NA,sd,1,4,NA,NA,NA,NA,NA,NA,NA,NA,NA,NA,NA,NA,NA,NA,NA,NA,NA,NA,NA
ec5f7,"""Falsch""-Screen",canvas.Screen,3_0_4_0_5_1_2,NA,NA,skipped,NA,926824.70000005,NA,NA,926819.117,926825,2023-05-18T12:09:21Z,926835.784,NULL,Hoffnung,matarajio,s,kutaalamika,uratibu,mvumbuzi,NA,sd,NA,4,NA,NA,NA,NA,NA,NA,NA,NA,NA,NA,NA,NA,NA,NA,NA,NA,NA,NA,NA
ec5f7,shallow,flow.Sequence,3_0_4_0_5_1,NA,NA,completion,7850.8069999999,918959.20000005,918951.643,918968.31,926819.117,926825.20000005,2023-05-18T12:09:21Z,926835.784,NULL,Hoffnung,matarajio,s,kutaalamika,uratibu,mvumbuzi,NA,sd,NA,4,NA,NA,NA,NA,NA,NA,NA,NA,NA,NA,NA,NA,NA,NA,NA,NA,NA,NA,NA
ec5f7,task,flow.Sequence,3_0_4_0_5,NA,NA,completion,7850.8069999999,918959,918951.643,918968.31,926819.117,926825.4000001,2023-05-18T12:09:21Z,926835.784,NULL,Hoffnung,matarajio,s,kutaalamika,uratibu,mvumbuzi,NA,sd,NA,4,NA,NA,NA,NA,NA,NA,NA,NA,NA,NA,NA,NA,NA,NA,NA,NA,NA,NA,NA
ec5f7,Deep Question,html.Page,3_0_4_0_6_0_0,NA,NA,form submission,14184.616000095,926825.60000002,926819.117,926835.784,941020.4000001,941020.80000007,2023-05-18T12:09:35Z,941037.021,NULL,Schock,mshtuko,d,NA,NA,NA,mshtuki,NA,NA,4,NA,NA,NA,NA,NA,NA,NA,NA,NA,NA,NA,NA,NA,NA,NA,NA,NA,NA,NA
ec5f7,"""Richtig""-Screen",canvas.Screen,3_0_4_0_6_0_1,NA,NA,skipped,NA,941024.4000001,NA,NA,941020.4000001,941024.70000005,2023-05-18T12:09:35Z,941037.021,NULL,Schock,mshtuko,d,NA,NA,NA,NA,sd,NA,4,NA,NA,NA,NA,NA,NA,NA,NA,NA,NA,NA,NA,NA,NA,NA,NA,NA,NA,NA
ec5f7,"""Falsch""-Screen",canvas.Screen,3_0_4_0_6_0_2,NA,NA,timeout,5000.1000000001,941025.70000005,941020.354,941037.021,946020.454,946023.30000007,2023-05-18T12:09:40Z,946037.121,NULL,Schock,mshtuko,d,NA,NA,NA,NA,sd,0,4,NA,NA,NA,NA,NA,NA,NA,NA,NA,NA,NA,NA,NA,NA,NA,NA,NA,NA,NA
ec5f7,deep,flow.Sequence,3_0_4_0_6_0,NA,NA,completion,19184.67,926825.5,926819.117,926835.784,946020.454,946023.60000002,2023-05-18T12:09:40Z,946037.121,NULL,Schock,mshtuko,d,NA,NA,NA,NA,sd,NA,4,NA,NA,NA,NA,NA,NA,NA,NA,NA,NA,NA,NA,NA,NA,NA,NA,NA,NA,NA
ec5f7,shallow,flow.Sequence,3_0_4_0_6_1,NA,NA,skipped,NA,946023.80000007,NA,NA,946020.454,946023.80000007,2023-05-18T12:09:40Z,946037.121,NULL,Schock,mshtuko,d,NA,NA,NA,NA,sd,NA,4,NA,NA,NA,NA,NA,NA,NA,NA,NA,NA,NA,NA,NA,NA,NA,NA,NA,NA,NA
ec5f7,task,flow.Sequence,3_0_4_0_6,NA,NA,completion,19184.67,926825.5,926819.117,926835.784,946020.454,946024.10000002,2023-05-18T12:09:40Z,946037.121,NULL,Schock,mshtuko,d,NA,NA,NA,NA,sd,NA,4,NA,NA,NA,NA,NA,NA,NA,NA,NA,NA,NA,NA,NA,NA,NA,NA,NA,NA,NA
ec5f7,deep,flow.Sequence,3_0_4_0_7_0,NA,NA,skipped,NA,946024.20000005,NA,NA,946020.454,946024.30000007,2023-05-18T12:09:40Z,946037.121,NULL,Verpackung,ufungaji,s,uhusiano,upimaji,uchunguzi,NA,sd,NA,4,NA,NA,NA,NA,NA,NA,NA,NA,NA,NA,NA,NA,NA,NA,NA,NA,NA,NA,NA
ec5f7,Shallow Question,html.Page,3_0_4_0_7_1_0,NA,NA,form submission,5049.6790000715,946024.4000001,946020.454,946037.121,951086.80000007,951087.10000002,2023-05-18T12:09:45Z,951087.698,NULL,Verpackung,ufungaji,s,uhusiano,upimaji,uchunguzi,ufungaji,NA,NA,4,NA,NA,NA,NA,NA,NA,NA,NA,NA,NA,NA,NA,NA,NA,NA,NA,NA,NA,NA
ec5f7,"""Richtig""-Screen",canvas.Screen,3_0_4_0_7_1_1,NA,NA,timeout,5000.1,951090.70000005,951071.031,951087.698,956071.131,956075.30000007,2023-05-18T12:09:50Z,956087.798,NULL,Verpackung,ufungaji,s,uhusiano,upimaji,uchunguzi,NA,sd,1,4,NA,NA,NA,NA,NA,NA,NA,NA,NA,NA,NA,NA,NA,NA,NA,NA,NA,NA,NA
ec5f7,"""Falsch""-Screen",canvas.Screen,3_0_4_0_7_1_2,NA,NA,skipped,NA,956079.4000001,NA,NA,956071.131,956079.70000005,2023-05-18T12:09:50Z,956087.798,NULL,Verpackung,ufungaji,s,uhusiano,upimaji,uchunguzi,NA,sd,NA,4,NA,NA,NA,NA,NA,NA,NA,NA,NA,NA,NA,NA,NA,NA,NA,NA,NA,NA,NA
ec5f7,shallow,flow.Sequence,3_0_4_0_7_1,NA,NA,completion,10034.01,946024.4000001,946020.454,946037.121,956071.131,956080,2023-05-18T12:09:50Z,956087.798,NULL,Verpackung,ufungaji,s,uhusiano,upimaji,uchunguzi,NA,sd,NA,4,NA,NA,NA,NA,NA,NA,NA,NA,NA,NA,NA,NA,NA,NA,NA,NA,NA,NA,NA
ec5f7,task,flow.Sequence,3_0_4_0_7,NA,NA,completion,10034.01,946024.20000005,946020.454,946037.121,956071.131,956080.30000007,2023-05-18T12:09:50Z,956087.798,NULL,Verpackung,ufungaji,s,uhusiano,upimaji,uchunguzi,NA,sd,NA,4,NA,NA,NA,NA,NA,NA,NA,NA,NA,NA,NA,NA,NA,NA,NA,NA,NA,NA,NA
ec5f7,block,flow.Loop,3_0_4_0,NA,NA,completion,131625.275,824430.30000007,824429.189,824445.856,956071.131,956080.4000001,2023-05-18T12:09:50Z,956087.798,NULL,NA,NA,NA,NA,NA,NA,NA,sd,NA,4,NA,NA,NA,NA,NA,NA,NA,NA,NA,NA,NA,NA,NA,NA,NA,NA,NA,NA,NA
ec5f7,weiter,canvas.Screen,3_0_4_1,sdf,keypress(Space),response,999.20200000005,956080.5,956071.131,956087.798,957087,957091.5,2023-05-18T12:09:51Z,957137.819,NULL,NA,NA,NA,NA,NA,NA,NA,sd,NA,4,NA,NA,NA,NA,NA,NA,NA,NA,NA,NA,NA,NA,NA,NA,NA,NA,NA,NA,NA
ec5f7,check continue,flow.Sequence,3_0_4,NA,NA,completion,132641.144,824430.30000007,824429.189,824445.856,957087,957092.10000002,2023-05-18T12:09:51Z,957137.819,NULL,NA,NA,NA,NA,NA,NA,NA,sd,NA,4,NA,NA,NA,NA,NA,NA,NA,NA,NA,NA,NA,NA,NA,NA,NA,NA,NA,NA,NA
ec5f7,Deep Question,html.Page,3_0_5_0_0_0_0,NA,NA,form submission,9055.0810000953,957126.4000001,957121.152,957137.819,966192.9000001,966193.70000005,2023-05-18T12:10:00Z,966205.164,NULL,Flexibilität,kubadilika,d,NA,NA,NA,kubadilika,NA,NA,5,NA,NA,NA,NA,NA,NA,NA,NA,NA,NA,NA,NA,NA,NA,NA,NA,NA,NA,NA
ec5f7,"""Richtig""-Screen",canvas.Screen,3_0_5_0_0_0_1,NA,NA,timeout,5000.1,966197.4000001,966188.497,966205.164,971188.597,971194,2023-05-18T12:10:05Z,971205.264,NULL,Flexibilität,kubadilika,d,NA,NA,NA,NA,sdf,1,5,NA,NA,NA,NA,NA,NA,NA,NA,NA,NA,NA,NA,NA,NA,NA,NA,NA,NA,NA
ec5f7,"""Falsch""-Screen",canvas.Screen,3_0_5_0_0_0_2,NA,NA,skipped,NA,971198,NA,NA,971188.597,971198.20000005,2023-05-18T12:10:05Z,971205.264,NULL,Flexibilität,kubadilika,d,NA,NA,NA,NA,sdf,NA,5,NA,NA,NA,NA,NA,NA,NA,NA,NA,NA,NA,NA,NA,NA,NA,NA,NA,NA,NA
ec5f7,deep,flow.Sequence,3_0_5_0_0_0,NA,NA,completion,14050.778,957126.4000001,957121.152,957137.819,971188.597,971198.4000001,2023-05-18T12:10:05Z,971205.264,NULL,Flexibilität,kubadilika,d,NA,NA,NA,NA,sdf,NA,5,NA,NA,NA,NA,NA,NA,NA,NA,NA,NA,NA,NA,NA,NA,NA,NA,NA,NA,NA
ec5f7,shallow,flow.Sequence,3_0_5_0_0_1,NA,NA,skipped,NA,971198.60000002,NA,NA,971188.597,971198.70000005,2023-05-18T12:10:05Z,971205.264,NULL,Flexibilität,kubadilika,d,NA,NA,NA,NA,sdf,NA,5,NA,NA,NA,NA,NA,NA,NA,NA,NA,NA,NA,NA,NA,NA,NA,NA,NA,NA,NA
ec5f7,task,flow.Sequence,3_0_5_0_0,NA,NA,completion,14050.778,957126.4000001,957121.152,957137.819,971188.597,971198.80000007,2023-05-18T12:10:05Z,971205.264,NULL,Flexibilität,kubadilika,d,NA,NA,NA,NA,sdf,NA,5,NA,NA,NA,NA,NA,NA,NA,NA,NA,NA,NA,NA,NA,NA,NA,NA,NA,NA,NA
ec5f7,deep,flow.Sequence,3_0_5_0_1_0,NA,NA,skipped,NA,971199,NA,NA,971188.597,971199,2023-05-18T12:10:05Z,971205.264,NULL,Wechsel,ugeuzaji,s,utambulisho,kujenga,wasiwasi,NA,sdf,NA,5,NA,NA,NA,NA,NA,NA,NA,NA,NA,NA,NA,NA,NA,NA,NA,NA,NA,NA,NA
ec5f7,Shallow Question,html.Page,3_0_5_0_1_1_0,NA,NA,form submission,4896.0360000716,971199.10000002,971188.597,971205.264,976101.30000007,976101.60000002,2023-05-18T12:10:10Z,976105.915,NULL,Wechsel,ugeuzaji,s,utambulisho,kujenga,wasiwasi,ugeuzaji,NA,NA,5,NA,NA,NA,NA,NA,NA,NA,NA,NA,NA,NA,NA,NA,NA,NA,NA,NA,NA,NA
ec5f7,"""Richtig""-Screen",canvas.Screen,3_0_5_0_1_1_1,NA,NA,timeout,5000.1,976104.70000005,976089.248,976105.915,981089.348,981093.30000007,2023-05-18T12:10:15Z,981106.015,NULL,Wechsel,ugeuzaji,s,utambulisho,kujenga,wasiwasi,NA,sdf,1,5,NA,NA,NA,NA,NA,NA,NA,NA,NA,NA,NA,NA,NA,NA,NA,NA,NA,NA,NA
ec5f7,"""Falsch""-Screen",canvas.Screen,3_0_5_0_1_1_2,NA,NA,skipped,NA,981096.5,NA,NA,981089.348,981096.80000007,2023-05-18T12:10:15Z,981106.015,NULL,Wechsel,ugeuzaji,s,utambulisho,kujenga,wasiwasi,NA,sdf,NA,5,NA,NA,NA,NA,NA,NA,NA,NA,NA,NA,NA,NA,NA,NA,NA,NA,NA,NA,NA
ec5f7,shallow,flow.Sequence,3_0_5_0_1_1,NA,NA,completion,9884.084,971199.10000002,971188.597,971205.264,981089.348,981097.10000002,2023-05-18T12:10:15Z,981106.015,NULL,Wechsel,ugeuzaji,s,utambulisho,kujenga,wasiwasi,NA,sdf,NA,5,NA,NA,NA,NA,NA,NA,NA,NA,NA,NA,NA,NA,NA,NA,NA,NA,NA,NA,NA
ec5f7,task,flow.Sequence,3_0_5_0_1,NA,NA,completion,9884.084,971199,971188.597,971205.264,981089.348,981097.30000007,2023-05-18T12:10:15Z,981106.015,NULL,Wechsel,ugeuzaji,s,utambulisho,kujenga,wasiwasi,NA,sdf,NA,5,NA,NA,NA,NA,NA,NA,NA,NA,NA,NA,NA,NA,NA,NA,NA,NA,NA,NA,NA
ec5f7,Deep Question,html.Page,3_0_5_0_2_0_0,NA,NA,form submission,9496.8850000954,981097.4000001,981089.348,981106.015,990602.9000001,990603.30000007,2023-05-18T12:10:25Z,990623.406,NULL,Atmosphäre,angahewa,d,NA,NA,NA,angaewa,NA,NA,5,NA,NA,NA,NA,NA,NA,NA,NA,NA,NA,NA,NA,NA,NA,NA,NA,NA,NA,NA
ec5f7,"""Richtig""-Screen",canvas.Screen,3_0_5_0_2_0_1,NA,NA,skipped,NA,990607.30000007,NA,NA,990602.9000001,990607.5,2023-05-18T12:10:25Z,990623.406,NULL,Atmosphäre,angahewa,d,NA,NA,NA,NA,sdf,NA,5,NA,NA,NA,NA,NA,NA,NA,NA,NA,NA,NA,NA,NA,NA,NA,NA,NA,NA,NA
ec5f7,"""Falsch""-Screen",canvas.Screen,3_0_5_0_2_0_2,NA,NA,timeout,5000.1000000001,990608.60000002,990606.739,990623.406,995606.839,995610,2023-05-18T12:10:30Z,995623.506,NULL,Atmosphäre,angahewa,d,NA,NA,NA,NA,sdf,0,5,NA,NA,NA,NA,NA,NA,NA,NA,NA,NA,NA,NA,NA,NA,NA,NA,NA,NA,NA
ec5f7,deep,flow.Sequence,3_0_5_0_2_0,NA,NA,completion,14500.824,981097.4000001,981089.348,981106.015,995606.839,995612.60000002,2023-05-18T12:10:30Z,995623.506,NULL,Atmosphäre,angahewa,d,NA,NA,NA,NA,sdf,NA,5,NA,NA,NA,NA,NA,NA,NA,NA,NA,NA,NA,NA,NA,NA,NA,NA,NA,NA,NA
ec5f7,shallow,flow.Sequence,3_0_5_0_2_1,NA,NA,skipped,NA,995612.70000005,NA,NA,995606.839,995612.70000005,2023-05-18T12:10:30Z,995623.506,NULL,Atmosphäre,angahewa,d,NA,NA,NA,NA,sdf,NA,5,NA,NA,NA,NA,NA,NA,NA,NA,NA,NA,NA,NA,NA,NA,NA,NA,NA,NA,NA
ec5f7,task,flow.Sequence,3_0_5_0_2,NA,NA,completion,14500.824,981097.4000001,981089.348,981106.015,995606.839,995612.80000007,2023-05-18T12:10:30Z,995623.506,NULL,Atmosphäre,angahewa,d,NA,NA,NA,NA,sdf,NA,5,NA,NA,NA,NA,NA,NA,NA,NA,NA,NA,NA,NA,NA,NA,NA,NA,NA,NA,NA
ec5f7,deep,flow.Sequence,3_0_5_0_3_0,NA,NA,skipped,NA,995612.80000007,NA,NA,995606.839,995613,2023-05-18T12:10:30Z,995623.506,NULL,Hoffnung,matarajio,s,kutaalamika,uratibu,mvumbuzi,NA,sdf,NA,5,NA,NA,NA,NA,NA,NA,NA,NA,NA,NA,NA,NA,NA,NA,NA,NA,NA,NA,NA
ec5f7,Shallow Question,html.Page,3_0_5_0_3_1_0,NA,NA,form submission,4600.0940000238,995613,995606.839,995623.506,1000223.6,1000224,2023-05-18T12:10:34Z,1000224.224,NULL,Hoffnung,matarajio,s,kutaalamika,uratibu,mvumbuzi,matarajio,NA,NA,5,NA,NA,NA,NA,NA,NA,NA,NA,NA,NA,NA,NA,NA,NA,NA,NA,NA,NA,NA
ec5f7,"""Richtig""-Screen",canvas.Screen,3_0_5_0_3_1_1,NA,NA,timeout,5000.1,1000227.3000001,1000207.557,1000224.224,1005207.657,1005212.6,2023-05-18T12:10:39Z,1005224.324,NULL,Hoffnung,matarajio,s,kutaalamika,uratibu,mvumbuzi,NA,sdf,1,5,NA,NA,NA,NA,NA,NA,NA,NA,NA,NA,NA,NA,NA,NA,NA,NA,NA,NA,NA
ec5f7,"""Falsch""-Screen",canvas.Screen,3_0_5_0_3_1_2,NA,NA,skipped,NA,1005216.3000001,NA,NA,1005207.657,1005216.6,2023-05-18T12:10:39Z,1005224.324,NULL,Hoffnung,matarajio,s,kutaalamika,uratibu,mvumbuzi,NA,sdf,NA,5,NA,NA,NA,NA,NA,NA,NA,NA,NA,NA,NA,NA,NA,NA,NA,NA,NA,NA,NA
ec5f7,shallow,flow.Sequence,3_0_5_0_3_1,NA,NA,completion,9584.151,995613,995606.839,995623.506,1005207.657,1005216.8000001,2023-05-18T12:10:39Z,1005224.324,NULL,Hoffnung,matarajio,s,kutaalamika,uratibu,mvumbuzi,NA,sdf,NA,5,NA,NA,NA,NA,NA,NA,NA,NA,NA,NA,NA,NA,NA,NA,NA,NA,NA,NA,NA
ec5f7,task,flow.Sequence,3_0_5_0_3,NA,NA,completion,9584.151,995612.80000007,995606.839,995623.506,1005207.657,1005217,2023-05-18T12:10:39Z,1005224.324,NULL,Hoffnung,matarajio,s,kutaalamika,uratibu,mvumbuzi,NA,sdf,NA,5,NA,NA,NA,NA,NA,NA,NA,NA,NA,NA,NA,NA,NA,NA,NA,NA,NA,NA,NA
ec5f7,Deep Question,html.Page,3_0_5_0_4_0_0,NA,NA,form submission,6677.9760000715,1005217.2,1005207.657,1005224.324,1011902.3000001,1011903.1,2023-05-18T12:10:46Z,1011908.323,NULL,Schock,mshtuko,d,NA,NA,NA,mshtuko,NA,NA,5,NA,NA,NA,NA,NA,NA,NA,NA,NA,NA,NA,NA,NA,NA,NA,NA,NA,NA,NA
ec5f7,"""Richtig""-Screen",canvas.Screen,3_0_5_0_4_0_1,NA,NA,timeout,5000.1,1011906.5,1011891.656,1011908.323,1016891.756,1016895.6,2023-05-18T12:10:51Z,1016908.423,NULL,Schock,mshtuko,d,NA,NA,NA,NA,sdf,1,5,NA,NA,NA,NA,NA,NA,NA,NA,NA,NA,NA,NA,NA,NA,NA,NA,NA,NA,NA
ec5f7,"""Falsch""-Screen",canvas.Screen,3_0_5_0_4_0_2,NA,NA,skipped,NA,1016898.8000001,NA,NA,1016891.756,1016899,2023-05-18T12:10:51Z,1016908.423,NULL,Schock,mshtuko,d,NA,NA,NA,NA,sdf,NA,5,NA,NA,NA,NA,NA,NA,NA,NA,NA,NA,NA,NA,NA,NA,NA,NA,NA,NA,NA
ec5f7,deep,flow.Sequence,3_0_5_0_4_0,NA,NA,completion,11667.432,1005217.2,1005207.657,1005224.324,1016891.756,1016899.2,2023-05-18T12:10:51Z,1016908.423,NULL,Schock,mshtuko,d,NA,NA,NA,NA,sdf,NA,5,NA,NA,NA,NA,NA,NA,NA,NA,NA,NA,NA,NA,NA,NA,NA,NA,NA,NA,NA
ec5f7,shallow,flow.Sequence,3_0_5_0_4_1,NA,NA,skipped,NA,1016899.3000001,NA,NA,1016891.756,1016899.4000001,2023-05-18T12:10:51Z,1016908.423,NULL,Schock,mshtuko,d,NA,NA,NA,NA,sdf,NA,5,NA,NA,NA,NA,NA,NA,NA,NA,NA,NA,NA,NA,NA,NA,NA,NA,NA,NA,NA
ec5f7,task,flow.Sequence,3_0_5_0_4,NA,NA,completion,11667.432,1005217.1,1005207.657,1005224.324,1016891.756,1016899.6,2023-05-18T12:10:51Z,1016908.423,NULL,Schock,mshtuko,d,NA,NA,NA,NA,sdf,NA,5,NA,NA,NA,NA,NA,NA,NA,NA,NA,NA,NA,NA,NA,NA,NA,NA,NA,NA,NA
ec5f7,deep,flow.Sequence,3_0_5_0_5_0,NA,NA,skipped,NA,1016899.8000001,NA,NA,1016891.756,1016899.8000001,2023-05-18T12:10:51Z,1016908.423,NULL,Verpackung,ufungaji,s,uhusiano,upimaji,uchunguzi,NA,sdf,NA,5,NA,NA,NA,NA,NA,NA,NA,NA,NA,NA,NA,NA,NA,NA,NA,NA,NA,NA,NA
ec5f7,Shallow Question,html.Page,3_0_5_0_5_1_0,NA,NA,form submission,3323.6770000239,1016899.9000001,1016891.756,1016908.423,1020232.1,1020232.6,2023-05-18T12:10:54Z,1020242.3,NULL,Verpackung,ufungaji,s,uhusiano,upimaji,uchunguzi,ufungaji,NA,NA,5,NA,NA,NA,NA,NA,NA,NA,NA,NA,NA,NA,NA,NA,NA,NA,NA,NA,NA,NA
ec5f7,"""Richtig""-Screen",canvas.Screen,3_0_5_0_5_1_1,NA,NA,timeout,5000.1,1020234.3000001,1020225.633,1020242.3,1025225.733,1025230.3000001,2023-05-18T12:10:59Z,1025242.4,NULL,Verpackung,ufungaji,s,uhusiano,upimaji,uchunguzi,NA,sdf,1,5,NA,NA,NA,NA,NA,NA,NA,NA,NA,NA,NA,NA,NA,NA,NA,NA,NA,NA,NA
ec5f7,"""Falsch""-Screen",canvas.Screen,3_0_5_0_5_1_2,NA,NA,skipped,NA,1025233.9000001,NA,NA,1025225.733,1025234.2,2023-05-18T12:10:59Z,1025242.4,NULL,Verpackung,ufungaji,s,uhusiano,upimaji,uchunguzi,NA,sdf,NA,5,NA,NA,NA,NA,NA,NA,NA,NA,NA,NA,NA,NA,NA,NA,NA,NA,NA,NA,NA
ec5f7,shallow,flow.Sequence,3_0_5_0_5_1,NA,NA,completion,8317.3100000001,1016899.9000001,1016891.756,1016908.423,1025225.733,1025234.4000001,2023-05-18T12:10:59Z,1025242.4,NULL,Verpackung,ufungaji,s,uhusiano,upimaji,uchunguzi,NA,sdf,NA,5,NA,NA,NA,NA,NA,NA,NA,NA,NA,NA,NA,NA,NA,NA,NA,NA,NA,NA,NA
ec5f7,task,flow.Sequence,3_0_5_0_5,NA,NA,completion,8317.3100000001,1016899.7,1016891.756,1016908.423,1025225.733,1025234.6,2023-05-18T12:10:59Z,1025242.4,NULL,Verpackung,ufungaji,s,uhusiano,upimaji,uchunguzi,NA,sdf,NA,5,NA,NA,NA,NA,NA,NA,NA,NA,NA,NA,NA,NA,NA,NA,NA,NA,NA,NA,NA
ec5f7,deep,flow.Sequence,3_0_5_0_6_0,NA,NA,skipped,NA,1025234.8000001,NA,NA,1025225.733,1025234.9000001,2023-05-18T12:10:59Z,1025242.4,NULL,Erneuerung,ukarabati,s,ushawishi,ukalifu,unyonyaji,NA,sdf,NA,5,NA,NA,NA,NA,NA,NA,NA,NA,NA,NA,NA,NA,NA,NA,NA,NA,NA,NA,NA
ec5f7,Shallow Question,html.Page,3_0_5_0_6_1_0,NA,NA,form submission,6374.6,1025234.9000001,1025225.733,1025242.4,1031617,1031617.4000001,2023-05-18T12:11:06Z,1031626.339,NULL,Erneuerung,ukarabati,s,ushawishi,ukalifu,unyonyaji,ukarabati,NA,NA,5,NA,NA,NA,NA,NA,NA,NA,NA,NA,NA,NA,NA,NA,NA,NA,NA,NA,NA,NA
ec5f7,"""Richtig""-Screen",canvas.Screen,3_0_5_0_6_1_1,NA,NA,timeout,5000.1,1031620.4000001,1031609.672,1031626.339,1036609.772,1036613.6,2023-05-18T12:11:11Z,1036626.439,NULL,Erneuerung,ukarabati,s,ushawishi,ukalifu,unyonyaji,NA,sdf,1,5,NA,NA,NA,NA,NA,NA,NA,NA,NA,NA,NA,NA,NA,NA,NA,NA,NA,NA,NA
ec5f7,"""Falsch""-Screen",canvas.Screen,3_0_5_0_6_1_2,NA,NA,skipped,NA,1036617.5,NA,NA,1036609.772,1036617.8000001,2023-05-18T12:11:11Z,1036626.439,NULL,Erneuerung,ukarabati,s,ushawishi,ukalifu,unyonyaji,NA,sdf,NA,5,NA,NA,NA,NA,NA,NA,NA,NA,NA,NA,NA,NA,NA,NA,NA,NA,NA,NA,NA
ec5f7,shallow,flow.Sequence,3_0_5_0_6_1,NA,NA,completion,11367.372,1025234.9000001,1025225.733,1025242.4,1036609.772,1036618.1,2023-05-18T12:11:11Z,1036626.439,NULL,Erneuerung,ukarabati,s,ushawishi,ukalifu,unyonyaji,NA,sdf,NA,5,NA,NA,NA,NA,NA,NA,NA,NA,NA,NA,NA,NA,NA,NA,NA,NA,NA,NA,NA
ec5f7,task,flow.Sequence,3_0_5_0_6,NA,NA,completion,11367.372,1025234.7,1025225.733,1025242.4,1036609.772,1036618.3000001,2023-05-18T12:11:11Z,1036626.439,NULL,Erneuerung,ukarabati,s,ushawishi,ukalifu,unyonyaji,NA,sdf,NA,5,NA,NA,NA,NA,NA,NA,NA,NA,NA,NA,NA,NA,NA,NA,NA,NA,NA,NA,NA
ec5f7,Deep Question,html.Page,3_0_5_0_7_0_0,NA,NA,form submission,17320.561,1036618.4000001,1036609.772,1036626.439,1053947,1053947.4000001,2023-05-18T12:11:28Z,1053961.152,NULL,Theorie,nadharia,d,NA,NA,NA,nadharu,NA,NA,5,NA,NA,NA,NA,NA,NA,NA,NA,NA,NA,NA,NA,NA,NA,NA,NA,NA,NA,NA
ec5f7,"""Richtig""-Screen",canvas.Screen,3_0_5_0_7_0_1,NA,NA,skipped,NA,1053950.9000001,NA,NA,1053947,1053951.2,2023-05-18T12:11:28Z,1053961.152,NULL,Theorie,nadharia,d,NA,NA,NA,NA,sdf,NA,5,NA,NA,NA,NA,NA,NA,NA,NA,NA,NA,NA,NA,NA,NA,NA,NA,NA,NA,NA
ec5f7,"""Falsch""-Screen",canvas.Screen,3_0_5_0_7_0_2,NA,NA,timeout,5000.1000000001,1053952.4000001,1053944.485,1053961.152,1058944.585,1058945.5,2023-05-18T12:11:33Z,1058961.252,NULL,Theorie,nadharia,d,NA,NA,NA,NA,sdf,0,5,NA,NA,NA,NA,NA,NA,NA,NA,NA,NA,NA,NA,NA,NA,NA,NA,NA,NA,NA
ec5f7,deep,flow.Sequence,3_0_5_0_7_0,NA,NA,completion,22318.146,1036618.4000001,1036609.772,1036626.439,1058944.585,1058945.8000001,2023-05-18T12:11:33Z,1058961.252,NULL,Theorie,nadharia,d,NA,NA,NA,NA,sdf,NA,5,NA,NA,NA,NA,NA,NA,NA,NA,NA,NA,NA,NA,NA,NA,NA,NA,NA,NA,NA
ec5f7,shallow,flow.Sequence,3_0_5_0_7_1,NA,NA,skipped,NA,1058945.9000001,NA,NA,1058944.585,1058946,2023-05-18T12:11:33Z,1058961.252,NULL,Theorie,nadharia,d,NA,NA,NA,NA,sdf,NA,5,NA,NA,NA,NA,NA,NA,NA,NA,NA,NA,NA,NA,NA,NA,NA,NA,NA,NA,NA
ec5f7,task,flow.Sequence,3_0_5_0_7,NA,NA,completion,22318.146,1036618.4000001,1036609.772,1036626.439,1058944.585,1058946.2,2023-05-18T12:11:33Z,1058961.252,NULL,Theorie,nadharia,d,NA,NA,NA,NA,sdf,NA,5,NA,NA,NA,NA,NA,NA,NA,NA,NA,NA,NA,NA,NA,NA,NA,NA,NA,NA,NA
ec5f7,block,flow.Loop,3_0_5_0,NA,NA,completion,101806.766,957125.5,957121.152,957137.819,1058944.585,1058946.4000001,2023-05-18T12:11:33Z,1058961.252,NULL,NA,NA,NA,NA,NA,NA,NA,sdf,NA,5,NA,NA,NA,NA,NA,NA,NA,NA,NA,NA,NA,NA,NA,NA,NA,NA,NA,NA,NA
ec5f7,weiter,canvas.Screen,3_0_5_1,sdf,keypress(Space),response,1000.5480000714,1058946.5,1058944.585,1058961.252,1059961.8000001,1059968.5,2023-05-18T12:11:34Z,1060561.768,NULL,NA,NA,NA,NA,NA,NA,NA,sdf,NA,5,NA,NA,NA,NA,NA,NA,NA,NA,NA,NA,NA,NA,NA,NA,NA,NA,NA,NA,NA
ec5f7,check continue,flow.Sequence,3_0_5,NA,NA,completion,102823.98100007,957125.4000001,957121.152,957137.819,1059961.8000001,1059968.8000001,2023-05-18T12:11:34Z,1060561.768,NULL,NA,NA,NA,NA,NA,NA,NA,sdf,NA,5,NA,NA,NA,NA,NA,NA,NA,NA,NA,NA,NA,NA,NA,NA,NA,NA,NA,NA,NA
ec5f7,check continue,flow.Sequence,3_0_6,NA,NA,skipped,NA,1060016.7,NA,NA,1059961.8000001,1060016.9000001,2023-05-18T12:11:34Z,1060561.768,NULL,NA,NA,NA,NA,NA,NA,NA,dfs,NA,6,NA,NA,NA,NA,NA,NA,NA,NA,NA,NA,NA,NA,NA,NA,NA,NA,NA,NA,NA
ec5f7,check continue,flow.Sequence,3_0_7,NA,NA,skipped,NA,1060050.1,NA,NA,1059961.8000001,1060050.3000001,2023-05-18T12:11:34Z,1060561.768,NULL,NA,NA,NA,NA,NA,NA,NA,df,NA,7,NA,NA,NA,NA,NA,NA,NA,NA,NA,NA,NA,NA,NA,NA,NA,NA,NA,NA,NA
ec5f7,check continue,flow.Sequence,3_0_8,NA,NA,skipped,NA,1060079.2,NA,NA,1059961.8000001,1060079.4000001,2023-05-18T12:11:34Z,1060561.768,NULL,NA,NA,NA,NA,NA,NA,NA,dfs,NA,8,NA,NA,NA,NA,NA,NA,NA,NA,NA,NA,NA,NA,NA,NA,NA,NA,NA,NA,NA
ec5f7,check continue,flow.Sequence,3_0_9,NA,NA,skipped,NA,1060103.1,NA,NA,1059961.8000001,1060103.2,2023-05-18T12:11:34Z,1060561.768,NULL,NA,NA,NA,NA,NA,NA,NA,dsf,NA,9,NA,NA,NA,NA,NA,NA,NA,NA,NA,NA,NA,NA,NA,NA,NA,NA,NA,NA,NA
ec5f7,check continue,flow.Sequence,3_0_10,NA,NA,skipped,NA,1060131.1,NA,NA,1059961.8000001,1060131.3000001,2023-05-18T12:11:34Z,1060561.768,NULL,NA,NA,NA,NA,NA,NA,NA,df,NA,10,NA,NA,NA,NA,NA,NA,NA,NA,NA,NA,NA,NA,NA,NA,NA,NA,NA,NA,NA
ec5f7,check continue,flow.Sequence,3_0_11,NA,NA,skipped,NA,1060155.4000001,NA,NA,1059961.8000001,1060155.5,2023-05-18T12:11:34Z,1060561.768,NULL,NA,NA,NA,NA,NA,NA,NA,dfs,NA,11,NA,NA,NA,NA,NA,NA,NA,NA,NA,NA,NA,NA,NA,NA,NA,NA,NA,NA,NA
ec5f7,check continue,flow.Sequence,3_0_12,NA,NA,skipped,NA,1060177.4000001,NA,NA,1059961.8000001,1060177.4000001,2023-05-18T12:11:34Z,1060561.768,NULL,NA,NA,NA,NA,NA,NA,NA,dsf,NA,12,NA,NA,NA,NA,NA,NA,NA,NA,NA,NA,NA,NA,NA,NA,NA,NA,NA,NA,NA
ec5f7,check continue,flow.Sequence,3_0_13,NA,NA,skipped,NA,1060198.6,NA,NA,1059961.8000001,1060198.7,2023-05-18T12:11:34Z,1060561.768,NULL,NA,NA,NA,NA,NA,NA,NA,dsf,NA,13,NA,NA,NA,NA,NA,NA,NA,NA,NA,NA,NA,NA,NA,NA,NA,NA,NA,NA,NA
ec5f7,check continue,flow.Sequence,3_0_14,NA,NA,skipped,NA,1060220.4000001,NA,NA,1059961.8000001,1060220.5,2023-05-18T12:11:34Z,1060561.768,NULL,NA,NA,NA,NA,NA,NA,NA,NA,NA,14,NA,NA,NA,NA,NA,NA,NA,NA,NA,NA,NA,NA,NA,NA,NA,NA,NA,NA,NA
ec5f7,check continue,flow.Sequence,3_0_15,NA,NA,skipped,NA,1060244.9000001,NA,NA,1059961.8000001,1060245,2023-05-18T12:11:34Z,1060561.768,NULL,NA,NA,NA,NA,NA,NA,NA,NA,NA,15,NA,NA,NA,NA,NA,NA,NA,NA,NA,NA,NA,NA,NA,NA,NA,NA,NA,NA,NA
ec5f7,check continue,flow.Sequence,3_0_16,NA,NA,skipped,NA,1060264,NA,NA,1059961.8000001,1060264.1,2023-05-18T12:11:35Z,1060561.768,NULL,NA,NA,NA,NA,NA,NA,NA,NA,NA,16,NA,NA,NA,NA,NA,NA,NA,NA,NA,NA,NA,NA,NA,NA,NA,NA,NA,NA,NA
ec5f7,check continue,flow.Sequence,3_0_17,NA,NA,skipped,NA,1060283.8000001,NA,NA,1059961.8000001,1060283.9000001,2023-05-18T12:11:35Z,1060561.768,NULL,NA,NA,NA,NA,NA,NA,NA,NA,NA,17,NA,NA,NA,NA,NA,NA,NA,NA,NA,NA,NA,NA,NA,NA,NA,NA,NA,NA,NA
ec5f7,check continue,flow.Sequence,3_0_18,NA,NA,skipped,NA,1060302,NA,NA,1059961.8000001,1060302,2023-05-18T12:11:35Z,1060561.768,NULL,NA,NA,NA,NA,NA,NA,NA,NA,NA,18,NA,NA,NA,NA,NA,NA,NA,NA,NA,NA,NA,NA,NA,NA,NA,NA,NA,NA,NA
ec5f7,check continue,flow.Sequence,3_0_19,NA,NA,skipped,NA,1060322.3000001,NA,NA,1059961.8000001,1060322.4000001,2023-05-18T12:11:35Z,1060561.768,NULL,NA,NA,NA,NA,NA,NA,NA,NA,NA,19,NA,NA,NA,NA,NA,NA,NA,NA,NA,NA,NA,NA,NA,NA,NA,NA,NA,NA,NA
ec5f7,check continue,flow.Sequence,3_0_20,NA,NA,skipped,NA,1060340.8000001,NA,NA,1059961.8000001,1060341,2023-05-18T12:11:35Z,1060561.768,NULL,NA,NA,NA,NA,NA,NA,NA,NA,NA,20,NA,NA,NA,NA,NA,NA,NA,NA,NA,NA,NA,NA,NA,NA,NA,NA,NA,NA,NA
