observation,sender,sender_type,sender_id,response,response_action,ended_on,duration,time_run,time_render,time_show,time_end,time_commit,timestamp,time_switch,distractors,german,swahili,enc,distractor1,distractor2,distractor3,response_2,x,correct,x_2,url_vp,url_sess,meta_labjs_version,meta_location,meta_user_agent,meta_platform,meta_language,meta_locale,meta_time_zone,meta_timezone_offset,meta_screen_width,meta_screen_height,meta_scroll_width,meta_scroll_height,meta_window_inner_width,meta_window_inner_height,meta_device_pixel_ratio,meta_labjs_build_flavor,meta_labjs_build_commit
3288c,Introduction general,canvas.Screen,0,weiter,keypress(q),response,48403.578,1400.2999999998,1378.121,1428.122,49831.7,49840.9,2023-06-09T12:37:33Z,49846.43,NULL,NA,NA,NA,NA,NA,NA,NA,NA,NA,NA,127,3,20.2.4,https://neurocog.fernuni.ch/studies/vweber/encoding_immediate/index.html?vp=127&sess=3,"Mozilla/5.0 (Macintosh; Intel Mac OS X 10_15_7) AppleWebKit/537.36 (KHTML, like Gecko) Chrome/114.0.0.0 Safari/537.36",MacIntel,de-DE,de,Europe/Zurich,-120,1440,900,1440,749,1440,797,1,production,f5b4a49f956347addd546a832a3327688c2c0fef
3288c,Introduction practice,canvas.Screen,1_0,NA,keypress(Space),response,2290.77,49843.6,49829.763,49846.43,52137.2,52141.8,2023-06-09T12:37:35Z,52148.164,NULL,NA,NA,NA,NA,NA,NA,NA,NA,NA,NA,NA,NA,NA,NA,NA,NA,NA,NA,NA,NA,NA,NA,NA,NA,NA,NA,NA,NA,NA
3288c,deep,flow.Sequence,1_1_0_0,NA,NA,skipped,NA,52142.1,NA,NA,52137.2,52142.8,2023-06-09T12:37:35Z,52148.164,"c(""distractor1"", ""distractor2"", ""distractor3"")",Gegenwart,hadhara,s,katiba,jokofu,mikopo,NA,NA,NA,NA,NA,NA,NA,NA,NA,NA,NA,NA,NA,NA,NA,NA,NA,NA,NA,NA,NA,NA,NA
3288c,Shallow Question,html.Page,1_1_0_1_0,NA,NA,form submission,5002.536,52143.1,52131.497,52148.164,57150.7,57151.3,2023-06-09T12:37:40Z,57164.931,"c(""distractor1"", ""distractor2"", ""distractor3"")",Gegenwart,hadhara,s,katiba,jokofu,mikopo,hadhara,NA,NA,NA,NA,NA,NA,NA,NA,NA,NA,NA,NA,NA,NA,NA,NA,NA,NA,NA,NA,NA,NA
3288c,"""Richtig""-Screen",canvas.Screen,1_1_0_1_1,NA,NA,timeout,5000.1,57153.8,57148.264,57164.931,62148.364,62150.1,2023-06-09T12:37:45Z,62165.031,"c(""distractor1"", ""distractor2"", ""distractor3"")",Gegenwart,hadhara,s,katiba,jokofu,mikopo,NA,NA,1,NA,NA,NA,NA,NA,NA,NA,NA,NA,NA,NA,NA,NA,NA,NA,NA,NA,NA,NA,NA
3288c,"""Falsch""-Screen",canvas.Screen,1_1_0_1_2,NA,NA,skipped,NA,62152.2,NA,NA,62148.364,62152.6,2023-06-09T12:37:45Z,62165.031,"c(""distractor1"", ""distractor2"", ""distractor3"")",Gegenwart,hadhara,s,katiba,jokofu,mikopo,NA,NA,NA,NA,NA,NA,NA,NA,NA,NA,NA,NA,NA,NA,NA,NA,NA,NA,NA,NA,NA,NA,NA
3288c,shallow,flow.Sequence,1_1_0_1,NA,NA,completion,10000.2,52143.1,52131.497,52148.164,62148.364,62152.9,2023-06-09T12:37:45Z,62165.031,"c(""distractor1"", ""distractor2"", ""distractor3"")",Gegenwart,hadhara,s,katiba,jokofu,mikopo,NA,NA,NA,NA,NA,NA,NA,NA,NA,NA,NA,NA,NA,NA,NA,NA,NA,NA,NA,NA,NA,NA,NA
3288c,task,flow.Sequence,1_1_0,NA,NA,completion,10000.2,52142.1,52131.497,52148.164,62148.364,62153.2,2023-06-09T12:37:45Z,62165.031,"c(""distractor1"", ""distractor2"", ""distractor3"")",Gegenwart,hadhara,s,katiba,jokofu,mikopo,NA,NA,NA,NA,NA,NA,NA,NA,NA,NA,NA,NA,NA,NA,NA,NA,NA,NA,NA,NA,NA,NA,NA
3288c,Deep Question,html.Page,1_1_1_0_0,NA,NA,form submission,2510.8689999999,62153.5,62148.364,62165.031,64675.9,64676.3,2023-06-09T12:37:48Z,64682.333,"c(""distractor1"", ""distractor2"", ""distractor3"")",Schatten,kivuli,d,NA,NA,NA,l,NA,NA,NA,NA,NA,NA,NA,NA,NA,NA,NA,NA,NA,NA,NA,NA,NA,NA,NA,NA,NA,NA
3288c,"""Richtig""-Screen",canvas.Screen,1_1_1_0_1,NA,NA,skipped,NA,64680.7,NA,NA,64675.9,64680.9,2023-06-09T12:37:48Z,64682.333,"c(""distractor1"", ""distractor2"", ""distractor3"")",Schatten,kivuli,d,NA,NA,NA,NA,NA,NA,NA,NA,NA,NA,NA,NA,NA,NA,NA,NA,NA,NA,NA,NA,NA,NA,NA,NA,NA,NA
3288c,"""Falsch""-Screen",canvas.Screen,1_1_1_0_2,NA,NA,timeout,5000.1,64682.4,64665.666,64682.333,69665.766,69667.5,2023-06-09T12:37:53Z,69682.433,"c(""distractor1"", ""distractor2"", ""distractor3"")",Schatten,kivuli,d,NA,NA,NA,NA,NA,0,NA,NA,NA,NA,NA,NA,NA,NA,NA,NA,NA,NA,NA,NA,NA,NA,NA,NA,NA,NA
3288c,deep,flow.Sequence,1_1_1_0,NA,NA,completion,7500.735,62153.5,62148.364,62165.031,69665.766,69667.8,2023-06-09T12:37:53Z,69682.433,"c(""distractor1"", ""distractor2"", ""distractor3"")",Schatten,kivuli,d,NA,NA,NA,NA,NA,NA,NA,NA,NA,NA,NA,NA,NA,NA,NA,NA,NA,NA,NA,NA,NA,NA,NA,NA,NA,NA
3288c,shallow,flow.Sequence,1_1_1_1,NA,NA,skipped,NA,69668.1,NA,NA,69665.766,69668.3,2023-06-09T12:37:53Z,69682.433,"c(""distractor1"", ""distractor2"", ""distractor3"")",Schatten,kivuli,d,NA,NA,NA,NA,NA,NA,NA,NA,NA,NA,NA,NA,NA,NA,NA,NA,NA,NA,NA,NA,NA,NA,NA,NA,NA,NA
3288c,task,flow.Sequence,1_1_1,NA,NA,completion,7500.735,62153.3,62148.364,62165.031,69665.766,69668.5,2023-06-09T12:37:53Z,69682.433,"c(""distractor1"", ""distractor2"", ""distractor3"")",Schatten,kivuli,d,NA,NA,NA,NA,NA,NA,NA,NA,NA,NA,NA,NA,NA,NA,NA,NA,NA,NA,NA,NA,NA,NA,NA,NA,NA,NA
3288c,deep,flow.Sequence,1_1_2_0,NA,NA,skipped,NA,69668.7,NA,NA,69665.766,69668.9,2023-06-09T12:37:53Z,69682.433,"c(""distractor1"", ""distractor2"", ""distractor3"")",Rückhalt,msaada,s,muhula,auwali,kiwimbe,NA,NA,NA,NA,NA,NA,NA,NA,NA,NA,NA,NA,NA,NA,NA,NA,NA,NA,NA,NA,NA,NA,NA
3288c,Shallow Question,html.Page,1_1_2_1_0,NA,NA,form submission,2189.567,69669,69665.766,69682.433,71872,71872.5,2023-06-09T12:37:55Z,71882.477,"c(""distractor1"", ""distractor2"", ""distractor3"")",Rückhalt,msaada,s,muhula,auwali,kiwimbe,muhula,NA,NA,NA,NA,NA,NA,NA,NA,NA,NA,NA,NA,NA,NA,NA,NA,NA,NA,NA,NA,NA,NA
3288c,"""Richtig""-Screen",canvas.Screen,1_1_2_1_1,NA,NA,skipped,NA,71876.4,NA,NA,71872,71876.6,2023-06-09T12:37:55Z,71882.477,"c(""distractor1"", ""distractor2"", ""distractor3"")",Rückhalt,msaada,s,muhula,auwali,kiwimbe,NA,NA,NA,NA,NA,NA,NA,NA,NA,NA,NA,NA,NA,NA,NA,NA,NA,NA,NA,NA,NA,NA,NA
3288c,"""Falsch""-Screen",canvas.Screen,1_1_2_1_2,NA,NA,timeout,5000.1,71878,71865.81,71882.477,76865.91,76871,2023-06-09T12:38:00Z,76882.577,"c(""distractor1"", ""distractor2"", ""distractor3"")",Rückhalt,msaada,s,muhula,auwali,kiwimbe,NA,NA,0,NA,NA,NA,NA,NA,NA,NA,NA,NA,NA,NA,NA,NA,NA,NA,NA,NA,NA,NA,NA
3288c,shallow,flow.Sequence,1_1_2_1,NA,NA,completion,7183.477,69669,69665.766,69682.433,76865.91,76871.2,2023-06-09T12:38:00Z,76882.577,"c(""distractor1"", ""distractor2"", ""distractor3"")",Rückhalt,msaada,s,muhula,auwali,kiwimbe,NA,NA,NA,NA,NA,NA,NA,NA,NA,NA,NA,NA,NA,NA,NA,NA,NA,NA,NA,NA,NA,NA,NA
3288c,task,flow.Sequence,1_1_2,NA,NA,completion,7183.477,69668.6,69665.766,69682.433,76865.91,76871.4,2023-06-09T12:38:00Z,76882.577,"c(""distractor1"", ""distractor2"", ""distractor3"")",Rückhalt,msaada,s,muhula,auwali,kiwimbe,NA,NA,NA,NA,NA,NA,NA,NA,NA,NA,NA,NA,NA,NA,NA,NA,NA,NA,NA,NA,NA,NA,NA
3288c,Deep Question,html.Page,1_1_3_0_0,NA,NA,form submission,1801.2229999998,76871.6,76865.91,76882.577,78683.8,78684.2,2023-06-09T12:38:02Z,78699.978,"c(""distractor1"", ""distractor2"", ""distractor3"")",Qualität,mtindo,d,NA,NA,NA,m,NA,NA,NA,NA,NA,NA,NA,NA,NA,NA,NA,NA,NA,NA,NA,NA,NA,NA,NA,NA,NA,NA
3288c,"""Richtig""-Screen",canvas.Screen,1_1_3_0_1,NA,NA,skipped,NA,78687.6,NA,NA,78683.8,78687.8,2023-06-09T12:38:02Z,78699.978,"c(""distractor1"", ""distractor2"", ""distractor3"")",Qualität,mtindo,d,NA,NA,NA,NA,NA,NA,NA,NA,NA,NA,NA,NA,NA,NA,NA,NA,NA,NA,NA,NA,NA,NA,NA,NA,NA,NA
3288c,"""Falsch""-Screen",canvas.Screen,1_1_3_0_2,NA,NA,timeout,5000.1,78689,78683.311,78699.978,83683.411,83686.6,2023-06-09T12:38:07Z,83700.078,"c(""distractor1"", ""distractor2"", ""distractor3"")",Qualität,mtindo,d,NA,NA,NA,NA,NA,0,NA,NA,NA,NA,NA,NA,NA,NA,NA,NA,NA,NA,NA,NA,NA,NA,NA,NA,NA,NA
3288c,deep,flow.Sequence,1_1_3_0,NA,NA,completion,6800.834,76871.6,76865.91,76882.577,83683.411,83686.8,2023-06-09T12:38:07Z,83700.078,"c(""distractor1"", ""distractor2"", ""distractor3"")",Qualität,mtindo,d,NA,NA,NA,NA,NA,NA,NA,NA,NA,NA,NA,NA,NA,NA,NA,NA,NA,NA,NA,NA,NA,NA,NA,NA,NA,NA
3288c,shallow,flow.Sequence,1_1_3_1,NA,NA,skipped,NA,83687,NA,NA,83683.411,83687.1,2023-06-09T12:38:07Z,83700.078,"c(""distractor1"", ""distractor2"", ""distractor3"")",Qualität,mtindo,d,NA,NA,NA,NA,NA,NA,NA,NA,NA,NA,NA,NA,NA,NA,NA,NA,NA,NA,NA,NA,NA,NA,NA,NA,NA,NA
3288c,task,flow.Sequence,1_1_3,NA,NA,completion,6800.834,76871.5,76865.91,76882.577,83683.411,83687.3,2023-06-09T12:38:07Z,83700.078,"c(""distractor1"", ""distractor2"", ""distractor3"")",Qualität,mtindo,d,NA,NA,NA,NA,NA,NA,NA,NA,NA,NA,NA,NA,NA,NA,NA,NA,NA,NA,NA,NA,NA,NA,NA,NA,NA,NA
3288c,Deep Question,html.Page,1_1_4_0_0,NA,NA,form submission,2110.8219999999,83687.5,83683.411,83700.078,85810.9,85811.3,2023-06-09T12:38:09Z,85816.787,"c(""distractor1"", ""distractor2"", ""distractor3"")",Gesundheit,salama,d,NA,NA,NA,m,NA,NA,NA,NA,NA,NA,NA,NA,NA,NA,NA,NA,NA,NA,NA,NA,NA,NA,NA,NA,NA,NA
3288c,"""Richtig""-Screen",canvas.Screen,1_1_4_0_1,NA,NA,skipped,NA,85814.7,NA,NA,85810.9,85814.9,2023-06-09T12:38:09Z,85816.787,"c(""distractor1"", ""distractor2"", ""distractor3"")",Gesundheit,salama,d,NA,NA,NA,NA,NA,NA,NA,NA,NA,NA,NA,NA,NA,NA,NA,NA,NA,NA,NA,NA,NA,NA,NA,NA,NA,NA
3288c,"""Falsch""-Screen",canvas.Screen,1_1_4_0_2,NA,NA,timeout,5000.1,85817,85800.12,85816.787,90800.22,90804.7,2023-06-09T12:38:14Z,90816.887,"c(""distractor1"", ""distractor2"", ""distractor3"")",Gesundheit,salama,d,NA,NA,NA,NA,NA,0,NA,NA,NA,NA,NA,NA,NA,NA,NA,NA,NA,NA,NA,NA,NA,NA,NA,NA,NA,NA
3288c,deep,flow.Sequence,1_1_4_0,NA,NA,completion,7100.142,83687.4,83683.411,83700.078,90800.22,90805,2023-06-09T12:38:14Z,90816.887,"c(""distractor1"", ""distractor2"", ""distractor3"")",Gesundheit,salama,d,NA,NA,NA,NA,NA,NA,NA,NA,NA,NA,NA,NA,NA,NA,NA,NA,NA,NA,NA,NA,NA,NA,NA,NA,NA,NA
3288c,shallow,flow.Sequence,1_1_4_1,NA,NA,skipped,NA,90805.1,NA,NA,90800.22,90805.2,2023-06-09T12:38:14Z,90816.887,"c(""distractor1"", ""distractor2"", ""distractor3"")",Gesundheit,salama,d,NA,NA,NA,NA,NA,NA,NA,NA,NA,NA,NA,NA,NA,NA,NA,NA,NA,NA,NA,NA,NA,NA,NA,NA,NA,NA
3288c,task,flow.Sequence,1_1_4,NA,NA,completion,7100.142,83687.4,83683.411,83700.078,90800.22,90805.4,2023-06-09T12:38:14Z,90816.887,"c(""distractor1"", ""distractor2"", ""distractor3"")",Gesundheit,salama,d,NA,NA,NA,NA,NA,NA,NA,NA,NA,NA,NA,NA,NA,NA,NA,NA,NA,NA,NA,NA,NA,NA,NA,NA,NA,NA
3288c,deep,flow.Sequence,1_1_5_0,NA,NA,skipped,NA,90805.5,NA,NA,90800.22,90805.6,2023-06-09T12:38:14Z,90816.887,"c(""distractor1"", ""distractor2"", ""distractor3"")",Kritik,lawama,s,dereva,nafasi,mawazo,NA,NA,NA,NA,NA,NA,NA,NA,NA,NA,NA,NA,NA,NA,NA,NA,NA,NA,NA,NA,NA,NA,NA
3288c,Shallow Question,html.Page,1_1_5_1_0,NA,NA,form submission,2676.9129999998,90805.8,90800.22,90816.887,93493.8,93494.2,2023-06-09T12:38:16Z,93500.936,"c(""distractor1"", ""distractor2"", ""distractor3"")",Kritik,lawama,s,dereva,nafasi,mawazo,dereva,NA,NA,NA,NA,NA,NA,NA,NA,NA,NA,NA,NA,NA,NA,NA,NA,NA,NA,NA,NA,NA,NA
3288c,"""Richtig""-Screen",canvas.Screen,1_1_5_1_1,NA,NA,skipped,NA,93497.6,NA,NA,93493.8,93497.9,2023-06-09T12:38:16Z,93500.936,"c(""distractor1"", ""distractor2"", ""distractor3"")",Kritik,lawama,s,dereva,nafasi,mawazo,NA,NA,NA,NA,NA,NA,NA,NA,NA,NA,NA,NA,NA,NA,NA,NA,NA,NA,NA,NA,NA,NA,NA
3288c,"""Falsch""-Screen",canvas.Screen,1_1_5_1_2,NA,NA,timeout,5000.1,93498.9,93484.269,93500.936,98484.369,98488.8,2023-06-09T12:38:21Z,98501.036,"c(""distractor1"", ""distractor2"", ""distractor3"")",Kritik,lawama,s,dereva,nafasi,mawazo,NA,NA,0,NA,NA,NA,NA,NA,NA,NA,NA,NA,NA,NA,NA,NA,NA,NA,NA,NA,NA,NA,NA
3288c,shallow,flow.Sequence,1_1_5_1,NA,NA,completion,7667.482,90805.8,90800.22,90816.887,98484.369,98489.1,2023-06-09T12:38:21Z,98501.036,"c(""distractor1"", ""distractor2"", ""distractor3"")",Kritik,lawama,s,dereva,nafasi,mawazo,NA,NA,NA,NA,NA,NA,NA,NA,NA,NA,NA,NA,NA,NA,NA,NA,NA,NA,NA,NA,NA,NA,NA
3288c,task,flow.Sequence,1_1_5,NA,NA,completion,7667.482,90805.5,90800.22,90816.887,98484.369,98489.3,2023-06-09T12:38:21Z,98501.036,"c(""distractor1"", ""distractor2"", ""distractor3"")",Kritik,lawama,s,dereva,nafasi,mawazo,NA,NA,NA,NA,NA,NA,NA,NA,NA,NA,NA,NA,NA,NA,NA,NA,NA,NA,NA,NA,NA,NA,NA
3288c,block,flow.Loop,1_1,NA,NA,completion,46336.205,52142,52131.497,52148.164,98484.369,98489.6,2023-06-09T12:38:21Z,98501.036,"c(""distractor1"", ""distractor2"", ""distractor3"")",NA,NA,NA,NA,NA,NA,NA,NA,NA,NA,NA,NA,NA,NA,NA,NA,NA,NA,NA,NA,NA,NA,NA,NA,NA,NA,NA,NA,NA
3288c,Practice,flow.Sequence,1,NA,NA,completion,48637.939,49843.2,49829.763,49846.43,98484.369,98489.7,2023-06-09T12:38:21Z,98501.036,NULL,NA,NA,NA,NA,NA,NA,NA,NA,NA,NA,NA,NA,NA,NA,NA,NA,NA,NA,NA,NA,NA,NA,NA,NA,NA,NA,NA,NA,NA
3288c,Experiment start,canvas.Screen,2,weiter,keypress(q),response,55452.464,98489.9,98484.369,98501.036,153953.5,153958.6,2023-06-09T12:39:17Z,154085.481,NULL,NA,NA,NA,NA,NA,NA,NA,NA,NA,NA,NA,NA,NA,NA,NA,NA,NA,NA,NA,NA,NA,NA,NA,NA,NA,NA,NA,NA,NA
3288c,deep,flow.Sequence,3_0_0_0_0_0,NA,NA,skipped,NA,154062.2,NA,NA,153953.5,154067.9,2023-06-09T12:39:17Z,154085.481,NULL,Auftrag,uagizaji,s,ghanima,kuzingatia,msukani,NA,sdf,NA,0,NA,NA,NA,NA,NA,NA,NA,NA,NA,NA,NA,NA,NA,NA,NA,NA,NA,NA,NA
3288c,Shallow Question,html.Page,3_0_0_0_0_1_0,NA,NA,form submission,3547.8189999998,154068,154068.814,154085.481,157633.3,157633.6,2023-06-09T12:39:20Z,157638.554,NULL,Auftrag,uagizaji,s,ghanima,kuzingatia,msukani,msukani,NA,NA,0,NA,NA,NA,NA,NA,NA,NA,NA,NA,NA,NA,NA,NA,NA,NA,NA,NA,NA,NA
3288c,"""Richtig""-Screen",canvas.Screen,3_0_0_0_0_1_1,NA,NA,skipped,NA,157634.8,NA,NA,157633.3,157635.1,2023-06-09T12:39:20Z,157638.554,NULL,Auftrag,uagizaji,s,ghanima,kuzingatia,msukani,NA,sdf,NA,0,NA,NA,NA,NA,NA,NA,NA,NA,NA,NA,NA,NA,NA,NA,NA,NA,NA,NA,NA
3288c,"""Falsch""-Screen",canvas.Screen,3_0_0_0_0_1_2,NA,NA,timeout,5000.1,157636.3,157621.887,157638.554,162621.987,162624.8,2023-06-09T12:39:25Z,162638.654,NULL,Auftrag,uagizaji,s,ghanima,kuzingatia,msukani,NA,sdf,0,0,NA,NA,NA,NA,NA,NA,NA,NA,NA,NA,NA,NA,NA,NA,NA,NA,NA,NA,NA
3288c,shallow,flow.Sequence,3_0_0_0_0_1,NA,NA,completion,8536.506,154068,154068.814,154085.481,162621.987,162625.1,2023-06-09T12:39:25Z,162638.654,NULL,Auftrag,uagizaji,s,ghanima,kuzingatia,msukani,NA,sdf,NA,0,NA,NA,NA,NA,NA,NA,NA,NA,NA,NA,NA,NA,NA,NA,NA,NA,NA,NA,NA
3288c,task,flow.Sequence,3_0_0_0_0,NA,NA,completion,8536.506,154062.2,154068.814,154085.481,162621.987,162625.2,2023-06-09T12:39:25Z,162638.654,NULL,Auftrag,uagizaji,s,ghanima,kuzingatia,msukani,NA,sdf,NA,0,NA,NA,NA,NA,NA,NA,NA,NA,NA,NA,NA,NA,NA,NA,NA,NA,NA,NA,NA
3288c,deep,flow.Sequence,3_0_0_0_1_0,NA,NA,skipped,NA,162625.3,NA,NA,162621.987,162625.5,2023-06-09T12:39:25Z,162638.654,NULL,Angreifer,mshambulizi,s,kitengo,tasinia,usafirishaji,NA,sdf,NA,0,NA,NA,NA,NA,NA,NA,NA,NA,NA,NA,NA,NA,NA,NA,NA,NA,NA,NA,NA
3288c,Shallow Question,html.Page,3_0_0_0_1_1_0,NA,NA,form submission,5406.2459999999,162625.6,162621.987,162638.654,168044.9,168045.3,2023-06-09T12:39:31Z,168055.921,NULL,Angreifer,mshambulizi,s,kitengo,tasinia,usafirishaji,kitengo,NA,NA,0,NA,NA,NA,NA,NA,NA,NA,NA,NA,NA,NA,NA,NA,NA,NA,NA,NA,NA,NA
3288c,"""Richtig""-Screen",canvas.Screen,3_0_0_0_1_1_1,NA,NA,skipped,NA,168048.9,NA,NA,168044.9,168049.1,2023-06-09T12:39:31Z,168055.921,NULL,Angreifer,mshambulizi,s,kitengo,tasinia,usafirishaji,NA,sdf,NA,0,NA,NA,NA,NA,NA,NA,NA,NA,NA,NA,NA,NA,NA,NA,NA,NA,NA,NA,NA
3288c,"""Falsch""-Screen",canvas.Screen,3_0_0_0_1_1_2,NA,NA,timeout,5000.1,168050.2,168039.254,168055.921,173039.354,173043.9,2023-06-09T12:39:36Z,173056.021,NULL,Angreifer,mshambulizi,s,kitengo,tasinia,usafirishaji,NA,sdf,0,0,NA,NA,NA,NA,NA,NA,NA,NA,NA,NA,NA,NA,NA,NA,NA,NA,NA,NA,NA
3288c,shallow,flow.Sequence,3_0_0_0_1_1,NA,NA,completion,10400.7,162625.6,162621.987,162638.654,173039.354,173044.1,2023-06-09T12:39:36Z,173056.021,NULL,Angreifer,mshambulizi,s,kitengo,tasinia,usafirishaji,NA,sdf,NA,0,NA,NA,NA,NA,NA,NA,NA,NA,NA,NA,NA,NA,NA,NA,NA,NA,NA,NA,NA
3288c,task,flow.Sequence,3_0_0_0_1,NA,NA,completion,10400.7,162625.3,162621.987,162638.654,173039.354,173044.4,2023-06-09T12:39:36Z,173056.021,NULL,Angreifer,mshambulizi,s,kitengo,tasinia,usafirishaji,NA,sdf,NA,0,NA,NA,NA,NA,NA,NA,NA,NA,NA,NA,NA,NA,NA,NA,NA,NA,NA,NA,NA
3288c,Deep Question,html.Page,3_0_0_0_2_0_0,NA,NA,form submission,1980.479,173044.5,173039.354,173056.021,175036.5,175037,2023-06-09T12:39:38Z,175039.88,NULL,Zufall,kikuti,d,NA,NA,NA,m,NA,NA,0,NA,NA,NA,NA,NA,NA,NA,NA,NA,NA,NA,NA,NA,NA,NA,NA,NA,NA,NA
3288c,"""Richtig""-Screen",canvas.Screen,3_0_0_0_2_0_1,NA,NA,skipped,NA,175040.4,NA,NA,175036.5,175040.7,2023-06-09T12:39:38Z,175039.88,NULL,Zufall,kikuti,d,NA,NA,NA,NA,sdf,NA,0,NA,NA,NA,NA,NA,NA,NA,NA,NA,NA,NA,NA,NA,NA,NA,NA,NA,NA,NA
3288c,"""Falsch""-Screen",canvas.Screen,3_0_0_0_2_0_2,NA,NA,timeout,5000.1,175041.7,175023.213,175039.88,180023.313,180026.4,2023-06-09T12:39:43Z,180039.98,NULL,Zufall,kikuti,d,NA,NA,NA,NA,sdf,0,0,NA,NA,NA,NA,NA,NA,NA,NA,NA,NA,NA,NA,NA,NA,NA,NA,NA,NA,NA
3288c,deep,flow.Sequence,3_0_0_0_2_0,NA,NA,completion,6967.292,173044.4,173039.354,173056.021,180023.313,180027.1,2023-06-09T12:39:43Z,180039.98,NULL,Zufall,kikuti,d,NA,NA,NA,NA,sdf,NA,0,NA,NA,NA,NA,NA,NA,NA,NA,NA,NA,NA,NA,NA,NA,NA,NA,NA,NA,NA
3288c,shallow,flow.Sequence,3_0_0_0_2_1,NA,NA,skipped,NA,180027.3,NA,NA,180023.313,180027.3,2023-06-09T12:39:43Z,180039.98,NULL,Zufall,kikuti,d,NA,NA,NA,NA,sdf,NA,0,NA,NA,NA,NA,NA,NA,NA,NA,NA,NA,NA,NA,NA,NA,NA,NA,NA,NA,NA
3288c,task,flow.Sequence,3_0_0_0_2,NA,NA,completion,6967.292,173044.4,173039.354,173056.021,180023.313,180027.6,2023-06-09T12:39:43Z,180039.98,NULL,Zufall,kikuti,d,NA,NA,NA,NA,sdf,NA,0,NA,NA,NA,NA,NA,NA,NA,NA,NA,NA,NA,NA,NA,NA,NA,NA,NA,NA,NA
3288c,Deep Question,html.Page,3_0_0_0_3_0_0,NA,NA,form submission,2702.8199999998,180027.8,180023.313,180039.98,182742.8,182743.2,2023-06-09T12:39:46Z,182756.701,NULL,Kanzler,diwani,d,NA,NA,NA,m,NA,NA,0,NA,NA,NA,NA,NA,NA,NA,NA,NA,NA,NA,NA,NA,NA,NA,NA,NA,NA,NA
3288c,"""Richtig""-Screen",canvas.Screen,3_0_0_0_3_0_1,NA,NA,skipped,NA,182746.7,NA,NA,182742.8,182746.9,2023-06-09T12:39:46Z,182756.701,NULL,Kanzler,diwani,d,NA,NA,NA,NA,sdf,NA,0,NA,NA,NA,NA,NA,NA,NA,NA,NA,NA,NA,NA,NA,NA,NA,NA,NA,NA,NA
3288c,"""Falsch""-Screen",canvas.Screen,3_0_0_0_3_0_2,NA,NA,timeout,5000.1,182748,182740.034,182756.701,187740.134,187742.7,2023-06-09T12:39:51Z,187756.801,NULL,Kanzler,diwani,d,NA,NA,NA,NA,sdf,0,0,NA,NA,NA,NA,NA,NA,NA,NA,NA,NA,NA,NA,NA,NA,NA,NA,NA,NA,NA
3288c,deep,flow.Sequence,3_0_0_0_3_0,NA,NA,completion,7700.154,180027.7,180023.313,180039.98,187740.134,187743,2023-06-09T12:39:51Z,187756.801,NULL,Kanzler,diwani,d,NA,NA,NA,NA,sdf,NA,0,NA,NA,NA,NA,NA,NA,NA,NA,NA,NA,NA,NA,NA,NA,NA,NA,NA,NA,NA
3288c,shallow,flow.Sequence,3_0_0_0_3_1,NA,NA,skipped,NA,187743.1,NA,NA,187740.134,187743.3,2023-06-09T12:39:51Z,187756.801,NULL,Kanzler,diwani,d,NA,NA,NA,NA,sdf,NA,0,NA,NA,NA,NA,NA,NA,NA,NA,NA,NA,NA,NA,NA,NA,NA,NA,NA,NA,NA
3288c,task,flow.Sequence,3_0_0_0_3,NA,NA,completion,7700.154,180027.7,180023.313,180039.98,187740.134,187743.5,2023-06-09T12:39:51Z,187756.801,NULL,Kanzler,diwani,d,NA,NA,NA,NA,sdf,NA,0,NA,NA,NA,NA,NA,NA,NA,NA,NA,NA,NA,NA,NA,NA,NA,NA,NA,NA,NA
3288c,Deep Question,html.Page,3_0_0_0_4_0_0,NA,NA,form submission,5584.199,187743.7,187740.134,187756.801,193341,193341.3,2023-06-09T12:39:56Z,193357.532,NULL,Abrechnung,uhasibu,d,NA,NA,NA,m,NA,NA,0,NA,NA,NA,NA,NA,NA,NA,NA,NA,NA,NA,NA,NA,NA,NA,NA,NA,NA,NA
3288c,"""Richtig""-Screen",canvas.Screen,3_0_0_0_4_0_1,NA,NA,skipped,NA,193345.1,NA,NA,193341,193345.3,2023-06-09T12:39:56Z,193357.532,NULL,Abrechnung,uhasibu,d,NA,NA,NA,NA,sdf,NA,0,NA,NA,NA,NA,NA,NA,NA,NA,NA,NA,NA,NA,NA,NA,NA,NA,NA,NA,NA
3288c,"""Falsch""-Screen",canvas.Screen,3_0_0_0_4_0_2,NA,NA,timeout,5000.1,193346.4,193340.865,193357.532,198340.965,198344.1,2023-06-09T12:40:01Z,198357.632,NULL,Abrechnung,uhasibu,d,NA,NA,NA,NA,sdf,0,0,NA,NA,NA,NA,NA,NA,NA,NA,NA,NA,NA,NA,NA,NA,NA,NA,NA,NA,NA
3288c,deep,flow.Sequence,3_0_0_0_4_0,NA,NA,completion,10584.164,187743.6,187740.134,187756.801,198340.965,198344.5,2023-06-09T12:40:01Z,198357.632,NULL,Abrechnung,uhasibu,d,NA,NA,NA,NA,sdf,NA,0,NA,NA,NA,NA,NA,NA,NA,NA,NA,NA,NA,NA,NA,NA,NA,NA,NA,NA,NA
3288c,shallow,flow.Sequence,3_0_0_0_4_1,NA,NA,skipped,NA,198344.6,NA,NA,198340.965,198344.8,2023-06-09T12:40:01Z,198357.632,NULL,Abrechnung,uhasibu,d,NA,NA,NA,NA,sdf,NA,0,NA,NA,NA,NA,NA,NA,NA,NA,NA,NA,NA,NA,NA,NA,NA,NA,NA,NA,NA
3288c,task,flow.Sequence,3_0_0_0_4,NA,NA,completion,10584.164,187743.6,187740.134,187756.801,198340.965,198345,2023-06-09T12:40:01Z,198357.632,NULL,Abrechnung,uhasibu,d,NA,NA,NA,NA,sdf,NA,0,NA,NA,NA,NA,NA,NA,NA,NA,NA,NA,NA,NA,NA,NA,NA,NA,NA,NA,NA
3288c,deep,flow.Sequence,3_0_0_0_5_0,NA,NA,skipped,NA,198345.1,NA,NA,198340.965,198345.2,2023-06-09T12:40:01Z,198357.632,NULL,Wettbewerb,ushindani,s,mapendezi,kichocheo,ubaguzi,NA,sdf,NA,0,NA,NA,NA,NA,NA,NA,NA,NA,NA,NA,NA,NA,NA,NA,NA,NA,NA,NA,NA
3288c,Shallow Question,html.Page,3_0_0_0_5_1_0,NA,NA,form submission,3968.868,198345.3,198340.965,198357.632,202326.5,202326.9,2023-06-09T12:40:05Z,202341.548,NULL,Wettbewerb,ushindani,s,mapendezi,kichocheo,ubaguzi,ubaguzi,NA,NA,0,NA,NA,NA,NA,NA,NA,NA,NA,NA,NA,NA,NA,NA,NA,NA,NA,NA,NA,NA
3288c,"""Richtig""-Screen",canvas.Screen,3_0_0_0_5_1_1,NA,NA,skipped,NA,202330.1,NA,NA,202326.5,202330.3,2023-06-09T12:40:05Z,202341.548,NULL,Wettbewerb,ushindani,s,mapendezi,kichocheo,ubaguzi,NA,sdf,NA,0,NA,NA,NA,NA,NA,NA,NA,NA,NA,NA,NA,NA,NA,NA,NA,NA,NA,NA,NA
3288c,"""Falsch""-Screen",canvas.Screen,3_0_0_0_5_1_2,NA,NA,timeout,5000.1,202331.4,202324.881,202341.548,207324.981,207328.8,2023-06-09T12:40:10Z,207341.648,NULL,Wettbewerb,ushindani,s,mapendezi,kichocheo,ubaguzi,NA,sdf,0,0,NA,NA,NA,NA,NA,NA,NA,NA,NA,NA,NA,NA,NA,NA,NA,NA,NA,NA,NA
3288c,shallow,flow.Sequence,3_0_0_0_5_1,NA,NA,completion,8967.349,198345.3,198340.965,198357.632,207324.981,207329.1,2023-06-09T12:40:10Z,207341.648,NULL,Wettbewerb,ushindani,s,mapendezi,kichocheo,ubaguzi,NA,sdf,NA,0,NA,NA,NA,NA,NA,NA,NA,NA,NA,NA,NA,NA,NA,NA,NA,NA,NA,NA,NA
3288c,task,flow.Sequence,3_0_0_0_5,NA,NA,completion,8967.349,198345,198340.965,198357.632,207324.981,207329.5,2023-06-09T12:40:10Z,207341.648,NULL,Wettbewerb,ushindani,s,mapendezi,kichocheo,ubaguzi,NA,sdf,NA,0,NA,NA,NA,NA,NA,NA,NA,NA,NA,NA,NA,NA,NA,NA,NA,NA,NA,NA,NA
3288c,Deep Question,html.Page,3_0_0_0_6_0_0,NA,NA,form submission,1872.4520000001,207329.7,207324.981,207341.648,209214.1,209214.5,2023-06-09T12:40:12Z,209225.495,NULL,Schönheit,kirembo,d,NA,NA,NA,m,NA,NA,0,NA,NA,NA,NA,NA,NA,NA,NA,NA,NA,NA,NA,NA,NA,NA,NA,NA,NA,NA
3288c,"""Richtig""-Screen",canvas.Screen,3_0_0_0_6_0_1,NA,NA,skipped,NA,209218.4,NA,NA,209214.1,209218.7,2023-06-09T12:40:12Z,209225.495,NULL,Schönheit,kirembo,d,NA,NA,NA,NA,sdf,NA,0,NA,NA,NA,NA,NA,NA,NA,NA,NA,NA,NA,NA,NA,NA,NA,NA,NA,NA,NA
3288c,"""Falsch""-Screen",canvas.Screen,3_0_0_0_6_0_2,NA,NA,timeout,5000.1,209219.7,209208.828,209225.495,214208.928,214213,2023-06-09T12:40:17Z,214225.595,NULL,Schönheit,kirembo,d,NA,NA,NA,NA,sdf,0,0,NA,NA,NA,NA,NA,NA,NA,NA,NA,NA,NA,NA,NA,NA,NA,NA,NA,NA,NA
3288c,deep,flow.Sequence,3_0_0_0_6_0,NA,NA,completion,6867.28,207329.6,207324.981,207341.648,214208.928,214213.3,2023-06-09T12:40:17Z,214225.595,NULL,Schönheit,kirembo,d,NA,NA,NA,NA,sdf,NA,0,NA,NA,NA,NA,NA,NA,NA,NA,NA,NA,NA,NA,NA,NA,NA,NA,NA,NA,NA
3288c,shallow,flow.Sequence,3_0_0_0_6_1,NA,NA,skipped,NA,214213.5,NA,NA,214208.928,214213.6,2023-06-09T12:40:17Z,214225.595,NULL,Schönheit,kirembo,d,NA,NA,NA,NA,sdf,NA,0,NA,NA,NA,NA,NA,NA,NA,NA,NA,NA,NA,NA,NA,NA,NA,NA,NA,NA,NA
3288c,task,flow.Sequence,3_0_0_0_6,NA,NA,completion,6867.28,207329.6,207324.981,207341.648,214208.928,214213.8,2023-06-09T12:40:17Z,214225.595,NULL,Schönheit,kirembo,d,NA,NA,NA,NA,sdf,NA,0,NA,NA,NA,NA,NA,NA,NA,NA,NA,NA,NA,NA,NA,NA,NA,NA,NA,NA,NA
3288c,deep,flow.Sequence,3_0_0_0_7_0,NA,NA,skipped,NA,214213.9,NA,NA,214208.928,214214.1,2023-06-09T12:40:17Z,214225.595,NULL,Sänger,mwimbaji,s,msichana,shughuli,mshirika,NA,sdf,NA,0,NA,NA,NA,NA,NA,NA,NA,NA,NA,NA,NA,NA,NA,NA,NA,NA,NA,NA,NA
3288c,Shallow Question,html.Page,3_0_0_0_7_1_0,NA,NA,form submission,5001.905,214214.2,214208.928,214225.595,219227.5,219227.9,2023-06-09T12:40:22Z,219242.84,NULL,Sänger,mwimbaji,s,msichana,shughuli,mshirika,shughuli,NA,NA,0,NA,NA,NA,NA,NA,NA,NA,NA,NA,NA,NA,NA,NA,NA,NA,NA,NA,NA,NA
3288c,"""Richtig""-Screen",canvas.Screen,3_0_0_0_7_1_1,NA,NA,skipped,NA,219231.3,NA,NA,219227.5,219231.5,2023-06-09T12:40:22Z,219242.84,NULL,Sänger,mwimbaji,s,msichana,shughuli,mshirika,NA,sdf,NA,0,NA,NA,NA,NA,NA,NA,NA,NA,NA,NA,NA,NA,NA,NA,NA,NA,NA,NA,NA
3288c,"""Falsch""-Screen",canvas.Screen,3_0_0_0_7_1_2,NA,NA,timeout,5000.1,219232.5,219226.173,219242.84,224226.273,224227.1,2023-06-09T12:40:27Z,224242.94,NULL,Sänger,mwimbaji,s,msichana,shughuli,mshirika,NA,sdf,0,0,NA,NA,NA,NA,NA,NA,NA,NA,NA,NA,NA,NA,NA,NA,NA,NA,NA,NA,NA
3288c,shallow,flow.Sequence,3_0_0_0_7_1,NA,NA,completion,10000.678,214214.2,214208.928,214225.595,224226.273,224227.4,2023-06-09T12:40:27Z,224242.94,NULL,Sänger,mwimbaji,s,msichana,shughuli,mshirika,NA,sdf,NA,0,NA,NA,NA,NA,NA,NA,NA,NA,NA,NA,NA,NA,NA,NA,NA,NA,NA,NA,NA
3288c,task,flow.Sequence,3_0_0_0_7,NA,NA,completion,10000.678,214213.9,214208.928,214225.595,224226.273,224227.7,2023-06-09T12:40:27Z,224242.94,NULL,Sänger,mwimbaji,s,msichana,shughuli,mshirika,NA,sdf,NA,0,NA,NA,NA,NA,NA,NA,NA,NA,NA,NA,NA,NA,NA,NA,NA,NA,NA,NA,NA
3288c,block,flow.Loop,3_0_0_0,NA,NA,completion,70140.792,154062.2,154068.814,154085.481,224226.273,224227.8,2023-06-09T12:40:27Z,224242.94,NULL,NA,NA,NA,NA,NA,NA,NA,sdf,NA,0,NA,NA,NA,NA,NA,NA,NA,NA,NA,NA,NA,NA,NA,NA,NA,NA,NA,NA,NA
3288c,weiter,canvas.Screen,3_0_0_1,sdf,keypress(Space),response,779.06,224228,224226.273,224242.94,225022,225028.4,2023-06-09T12:40:28Z,225076.29,NULL,NA,NA,NA,NA,NA,NA,NA,sdf,NA,0,NA,NA,NA,NA,NA,NA,NA,NA,NA,NA,NA,NA,NA,NA,NA,NA,NA,NA,NA
3288c,check continue,flow.Sequence,3_0_0,NA,NA,completion,70936.519,154062.2,154068.814,154085.481,225022,225028.7,2023-06-09T12:40:28Z,225076.29,NULL,NA,NA,NA,NA,NA,NA,NA,sdf,NA,0,NA,NA,NA,NA,NA,NA,NA,NA,NA,NA,NA,NA,NA,NA,NA,NA,NA,NA,NA
3288c,deep,flow.Sequence,3_0_1_0_0_0,NA,NA,skipped,NA,225062.1,NA,NA,225022,225062.1,2023-06-09T12:40:28Z,225076.29,NULL,Sänger,mwimbaji,s,msichana,shughuli,mshirika,NA,sdfdsf,NA,1,NA,NA,NA,NA,NA,NA,NA,NA,NA,NA,NA,NA,NA,NA,NA,NA,NA,NA,NA
3288c,Shallow Question,html.Page,3_0_1_0_0_1_0,NA,NA,form submission,4487.5099999998,225062.3,225059.623,225076.29,229563.8,229564.1,2023-06-09T12:40:32Z,229576.861,NULL,Sänger,mwimbaji,s,msichana,shughuli,mshirika,mwimbaji,NA,NA,1,NA,NA,NA,NA,NA,NA,NA,NA,NA,NA,NA,NA,NA,NA,NA,NA,NA,NA,NA
3288c,"""Richtig""-Screen",canvas.Screen,3_0_1_0_0_1_1,NA,NA,timeout,5000.1,229567.2,229560.194,229576.861,234560.294,234564.8,2023-06-09T12:40:37Z,234576.961,NULL,Sänger,mwimbaji,s,msichana,shughuli,mshirika,NA,sdfdsf,1,1,NA,NA,NA,NA,NA,NA,NA,NA,NA,NA,NA,NA,NA,NA,NA,NA,NA,NA,NA
3288c,"""Falsch""-Screen",canvas.Screen,3_0_1_0_0_1_2,NA,NA,skipped,NA,234567.9,NA,NA,234560.294,234568.2,2023-06-09T12:40:37Z,234576.961,NULL,Sänger,mwimbaji,s,msichana,shughuli,mshirika,NA,sdfdsf,NA,1,NA,NA,NA,NA,NA,NA,NA,NA,NA,NA,NA,NA,NA,NA,NA,NA,NA,NA,NA
3288c,shallow,flow.Sequence,3_0_1_0_0_1,NA,NA,completion,9484.004,225062.2,225059.623,225076.29,234560.294,234568.4,2023-06-09T12:40:37Z,234576.961,NULL,Sänger,mwimbaji,s,msichana,shughuli,mshirika,NA,sdfdsf,NA,1,NA,NA,NA,NA,NA,NA,NA,NA,NA,NA,NA,NA,NA,NA,NA,NA,NA,NA,NA
3288c,task,flow.Sequence,3_0_1_0_0,NA,NA,completion,9484.004,225062.1,225059.623,225076.29,234560.294,234568.6,2023-06-09T12:40:37Z,234576.961,NULL,Sänger,mwimbaji,s,msichana,shughuli,mshirika,NA,sdfdsf,NA,1,NA,NA,NA,NA,NA,NA,NA,NA,NA,NA,NA,NA,NA,NA,NA,NA,NA,NA,NA
3288c,Deep Question,html.Page,3_0_1_0_1_0_0,NA,NA,form submission,9841.3389999998,234568.8,234560.294,234576.961,244418.3,244418.5,2023-06-09T12:40:47Z,244444.331,NULL,Abrechnung,uhasibu,d,NA,NA,NA,kikuta,NA,NA,1,NA,NA,NA,NA,NA,NA,NA,NA,NA,NA,NA,NA,NA,NA,NA,NA,NA,NA,NA
3288c,"""Richtig""-Screen",canvas.Screen,3_0_1_0_1_0_1,NA,NA,skipped,NA,244421.3,NA,NA,244418.3,244421.4,2023-06-09T12:40:47Z,244444.331,NULL,Abrechnung,uhasibu,d,NA,NA,NA,NA,sdfdsf,NA,1,NA,NA,NA,NA,NA,NA,NA,NA,NA,NA,NA,NA,NA,NA,NA,NA,NA,NA,NA
3288c,"""Falsch""-Screen",canvas.Screen,3_0_1_0_1_0_2,NA,NA,timeout,5000.1,244422.1,244427.664,244444.331,249427.764,249431.9,2023-06-09T12:40:52Z,249444.431,NULL,Abrechnung,uhasibu,d,NA,NA,NA,NA,sdfdsf,0,1,NA,NA,NA,NA,NA,NA,NA,NA,NA,NA,NA,NA,NA,NA,NA,NA,NA,NA,NA
3288c,deep,flow.Sequence,3_0_1_0_1_0,NA,NA,completion,14850.803,234568.8,234560.294,234576.961,249427.764,249432.2,2023-06-09T12:40:52Z,249444.431,NULL,Abrechnung,uhasibu,d,NA,NA,NA,NA,sdfdsf,NA,1,NA,NA,NA,NA,NA,NA,NA,NA,NA,NA,NA,NA,NA,NA,NA,NA,NA,NA,NA
3288c,shallow,flow.Sequence,3_0_1_0_1_1,NA,NA,skipped,NA,249432.3,NA,NA,249427.764,249432.5,2023-06-09T12:40:52Z,249444.431,NULL,Abrechnung,uhasibu,d,NA,NA,NA,NA,sdfdsf,NA,1,NA,NA,NA,NA,NA,NA,NA,NA,NA,NA,NA,NA,NA,NA,NA,NA,NA,NA,NA
3288c,task,flow.Sequence,3_0_1_0_1,NA,NA,completion,14850.803,234568.8,234560.294,234576.961,249427.764,249432.7,2023-06-09T12:40:52Z,249444.431,NULL,Abrechnung,uhasibu,d,NA,NA,NA,NA,sdfdsf,NA,1,NA,NA,NA,NA,NA,NA,NA,NA,NA,NA,NA,NA,NA,NA,NA,NA,NA,NA,NA
3288c,Deep Question,html.Page,3_0_1_0_2_0_0,NA,NA,form submission,8657.8689999998,249432.9,249427.764,249444.431,258102.3,258103,2023-06-09T12:41:01Z,258111.755,NULL,Zufall,kikuti,d,NA,NA,NA,kikutuwa,NA,NA,1,NA,NA,NA,NA,NA,NA,NA,NA,NA,NA,NA,NA,NA,NA,NA,NA,NA,NA,NA
3288c,"""Richtig""-Screen",canvas.Screen,3_0_1_0_2_0_1,NA,NA,skipped,NA,258106.7,NA,NA,258102.3,258107,2023-06-09T12:41:01Z,258111.755,NULL,Zufall,kikuti,d,NA,NA,NA,NA,sdfdsf,NA,1,NA,NA,NA,NA,NA,NA,NA,NA,NA,NA,NA,NA,NA,NA,NA,NA,NA,NA,NA
3288c,"""Falsch""-Screen",canvas.Screen,3_0_1_0_2_0_2,NA,NA,timeout,5000.1,258108,258095.088,258111.755,263095.188,263097.6,2023-06-09T12:41:06Z,263111.855,NULL,Zufall,kikuti,d,NA,NA,NA,NA,sdfdsf,0,1,NA,NA,NA,NA,NA,NA,NA,NA,NA,NA,NA,NA,NA,NA,NA,NA,NA,NA,NA
3288c,deep,flow.Sequence,3_0_1_0_2_0,NA,NA,completion,13650.757,249432.8,249427.764,249444.431,263095.188,263097.9,2023-06-09T12:41:06Z,263111.855,NULL,Zufall,kikuti,d,NA,NA,NA,NA,sdfdsf,NA,1,NA,NA,NA,NA,NA,NA,NA,NA,NA,NA,NA,NA,NA,NA,NA,NA,NA,NA,NA
3288c,shallow,flow.Sequence,3_0_1_0_2_1,NA,NA,skipped,NA,263098.2,NA,NA,263095.188,263098.3,2023-06-09T12:41:06Z,263111.855,NULL,Zufall,kikuti,d,NA,NA,NA,NA,sdfdsf,NA,1,NA,NA,NA,NA,NA,NA,NA,NA,NA,NA,NA,NA,NA,NA,NA,NA,NA,NA,NA
3288c,task,flow.Sequence,3_0_1_0_2,NA,NA,completion,13650.757,249432.7,249427.764,249444.431,263095.188,263098.6,2023-06-09T12:41:06Z,263111.855,NULL,Zufall,kikuti,d,NA,NA,NA,NA,sdfdsf,NA,1,NA,NA,NA,NA,NA,NA,NA,NA,NA,NA,NA,NA,NA,NA,NA,NA,NA,NA,NA
3288c,deep,flow.Sequence,3_0_1_0_3_0,NA,NA,skipped,NA,263098.7,NA,NA,263095.188,263099.4,2023-06-09T12:41:06Z,263111.855,NULL,Auftrag,uagizaji,s,ghanima,kuzingatia,msukani,NA,sdfdsf,NA,1,NA,NA,NA,NA,NA,NA,NA,NA,NA,NA,NA,NA,NA,NA,NA,NA,NA,NA,NA
3288c,Shallow Question,html.Page,3_0_1_0_3_1_0,NA,NA,form submission,4501.0449999999,263099.6,263095.188,263111.855,267612.9,267613.2,2023-06-09T12:41:10Z,267629.261,NULL,Auftrag,uagizaji,s,ghanima,kuzingatia,msukani,uagizaji,NA,NA,1,NA,NA,NA,NA,NA,NA,NA,NA,NA,NA,NA,NA,NA,NA,NA,NA,NA,NA,NA
3288c,"""Richtig""-Screen",canvas.Screen,3_0_1_0_3_1_1,NA,NA,timeout,5000.1,267616.6,267612.594,267629.261,272612.694,272617,2023-06-09T12:41:15Z,272629.361,NULL,Auftrag,uagizaji,s,ghanima,kuzingatia,msukani,NA,sdfdsf,1,1,NA,NA,NA,NA,NA,NA,NA,NA,NA,NA,NA,NA,NA,NA,NA,NA,NA,NA,NA
3288c,"""Falsch""-Screen",canvas.Screen,3_0_1_0_3_1_2,NA,NA,skipped,NA,272620.6,NA,NA,272612.694,272620.8,2023-06-09T12:41:15Z,272629.361,NULL,Auftrag,uagizaji,s,ghanima,kuzingatia,msukani,NA,sdfdsf,NA,1,NA,NA,NA,NA,NA,NA,NA,NA,NA,NA,NA,NA,NA,NA,NA,NA,NA,NA,NA
3288c,shallow,flow.Sequence,3_0_1_0_3_1,NA,NA,completion,9500.839,263099.6,263095.188,263111.855,272612.694,272621,2023-06-09T12:41:15Z,272629.361,NULL,Auftrag,uagizaji,s,ghanima,kuzingatia,msukani,NA,sdfdsf,NA,1,NA,NA,NA,NA,NA,NA,NA,NA,NA,NA,NA,NA,NA,NA,NA,NA,NA,NA,NA
3288c,task,flow.Sequence,3_0_1_0_3,NA,NA,completion,9500.839,263098.6,263095.188,263111.855,272612.694,272621.3,2023-06-09T12:41:15Z,272629.361,NULL,Auftrag,uagizaji,s,ghanima,kuzingatia,msukani,NA,sdfdsf,NA,1,NA,NA,NA,NA,NA,NA,NA,NA,NA,NA,NA,NA,NA,NA,NA,NA,NA,NA,NA
3288c,deep,flow.Sequence,3_0_1_0_4_0,NA,NA,skipped,NA,272621.4,NA,NA,272612.694,272621.6,2023-06-09T12:41:15Z,272629.361,NULL,Wettbewerb,ushindani,s,mapendezi,kichocheo,ubaguzi,NA,sdfdsf,NA,1,NA,NA,NA,NA,NA,NA,NA,NA,NA,NA,NA,NA,NA,NA,NA,NA,NA,NA,NA
3288c,Shallow Question,html.Page,3_0_1_0_4_1_0,NA,NA,form submission,5673.8389999997,272621.7,272612.694,272629.361,278303.2,278303.6,2023-06-09T12:41:21Z,278313.39,NULL,Wettbewerb,ushindani,s,mapendezi,kichocheo,ubaguzi,ubaguzi,NA,NA,1,NA,NA,NA,NA,NA,NA,NA,NA,NA,NA,NA,NA,NA,NA,NA,NA,NA,NA,NA
3288c,"""Richtig""-Screen",canvas.Screen,3_0_1_0_4_1_1,NA,NA,skipped,NA,278306.8,NA,NA,278303.2,278307,2023-06-09T12:41:21Z,278313.39,NULL,Wettbewerb,ushindani,s,mapendezi,kichocheo,ubaguzi,NA,sdfdsf,NA,1,NA,NA,NA,NA,NA,NA,NA,NA,NA,NA,NA,NA,NA,NA,NA,NA,NA,NA,NA
3288c,"""Falsch""-Screen",canvas.Screen,3_0_1_0_4_1_2,NA,NA,timeout,5000.1,278308.1,278296.723,278313.39,283296.823,283298.6,2023-06-09T12:41:26Z,283313.49,NULL,Wettbewerb,ushindani,s,mapendezi,kichocheo,ubaguzi,NA,sdfdsf,0,1,NA,NA,NA,NA,NA,NA,NA,NA,NA,NA,NA,NA,NA,NA,NA,NA,NA,NA,NA
3288c,shallow,flow.Sequence,3_0_1_0_4_1,NA,NA,completion,10667.462,272621.6,272612.694,272629.361,283296.823,283298.9,2023-06-09T12:41:26Z,283313.49,NULL,Wettbewerb,ushindani,s,mapendezi,kichocheo,ubaguzi,NA,sdfdsf,NA,1,NA,NA,NA,NA,NA,NA,NA,NA,NA,NA,NA,NA,NA,NA,NA,NA,NA,NA,NA
3288c,task,flow.Sequence,3_0_1_0_4,NA,NA,completion,10667.462,272621.4,272612.694,272629.361,283296.823,283299,2023-06-09T12:41:26Z,283313.49,NULL,Wettbewerb,ushindani,s,mapendezi,kichocheo,ubaguzi,NA,sdfdsf,NA,1,NA,NA,NA,NA,NA,NA,NA,NA,NA,NA,NA,NA,NA,NA,NA,NA,NA,NA,NA
3288c,deep,flow.Sequence,3_0_1_0_5_0,NA,NA,skipped,NA,283299.1,NA,NA,283296.823,283299.3,2023-06-09T12:41:26Z,283313.49,NULL,Angreifer,mshambulizi,s,kitengo,tasinia,usafirishaji,NA,sdfdsf,NA,1,NA,NA,NA,NA,NA,NA,NA,NA,NA,NA,NA,NA,NA,NA,NA,NA,NA,NA,NA
3288c,Shallow Question,html.Page,3_0_1_0_5_1_0,NA,NA,form submission,5018.1100000001,283299.4,283296.823,283313.49,288331.6,288332,2023-06-09T12:41:31Z,288347.422,NULL,Angreifer,mshambulizi,s,kitengo,tasinia,usafirishaji,mshambulizi,NA,NA,1,NA,NA,NA,NA,NA,NA,NA,NA,NA,NA,NA,NA,NA,NA,NA,NA,NA,NA,NA
3288c,"""Richtig""-Screen",canvas.Screen,3_0_1_0_5_1_1,NA,NA,timeout,5000.1,288335.8,288330.755,288347.422,293330.855,293335,2023-06-09T12:41:36Z,293347.522,NULL,Angreifer,mshambulizi,s,kitengo,tasinia,usafirishaji,NA,sdfdsf,1,1,NA,NA,NA,NA,NA,NA,NA,NA,NA,NA,NA,NA,NA,NA,NA,NA,NA,NA,NA
3288c,"""Falsch""-Screen",canvas.Screen,3_0_1_0_5_1_2,NA,NA,skipped,NA,293338.5,NA,NA,293330.855,293338.8,2023-06-09T12:41:36Z,293347.522,NULL,Angreifer,mshambulizi,s,kitengo,tasinia,usafirishaji,NA,sdfdsf,NA,1,NA,NA,NA,NA,NA,NA,NA,NA,NA,NA,NA,NA,NA,NA,NA,NA,NA,NA,NA
3288c,shallow,flow.Sequence,3_0_1_0_5_1,NA,NA,completion,10017.365,283299.4,283296.823,283313.49,293330.855,293339,2023-06-09T12:41:36Z,293347.522,NULL,Angreifer,mshambulizi,s,kitengo,tasinia,usafirishaji,NA,sdfdsf,NA,1,NA,NA,NA,NA,NA,NA,NA,NA,NA,NA,NA,NA,NA,NA,NA,NA,NA,NA,NA
3288c,task,flow.Sequence,3_0_1_0_5,NA,NA,completion,10017.365,283299.1,283296.823,283313.49,293330.855,293339.2,2023-06-09T12:41:36Z,293347.522,NULL,Angreifer,mshambulizi,s,kitengo,tasinia,usafirishaji,NA,sdfdsf,NA,1,NA,NA,NA,NA,NA,NA,NA,NA,NA,NA,NA,NA,NA,NA,NA,NA,NA,NA,NA
3288c,Deep Question,html.Page,3_0_1_0_6_0_0,NA,NA,form submission,6143.6779999997,293339.5,293330.855,293347.522,299491.2,299492.1,2023-06-09T12:41:42Z,299498.212,NULL,Kanzler,diwani,d,NA,NA,NA,kasha,NA,NA,1,NA,NA,NA,NA,NA,NA,NA,NA,NA,NA,NA,NA,NA,NA,NA,NA,NA,NA,NA
3288c,"""Richtig""-Screen",canvas.Screen,3_0_1_0_6_0_1,NA,NA,skipped,NA,299495.3,NA,NA,299491.2,299495.5,2023-06-09T12:41:42Z,299498.212,NULL,Kanzler,diwani,d,NA,NA,NA,NA,sdfdsf,NA,1,NA,NA,NA,NA,NA,NA,NA,NA,NA,NA,NA,NA,NA,NA,NA,NA,NA,NA,NA
3288c,"""Falsch""-Screen",canvas.Screen,3_0_1_0_6_0_2,NA,NA,timeout,5000.1,299496.9,299481.545,299498.212,304481.645,304485.8,2023-06-09T12:41:47Z,304498.312,NULL,Kanzler,diwani,d,NA,NA,NA,NA,sdfdsf,0,1,NA,NA,NA,NA,NA,NA,NA,NA,NA,NA,NA,NA,NA,NA,NA,NA,NA,NA,NA
3288c,deep,flow.Sequence,3_0_1_0_6_0,NA,NA,completion,11134.123,293339.4,293330.855,293347.522,304481.645,304486.1,2023-06-09T12:41:47Z,304498.312,NULL,Kanzler,diwani,d,NA,NA,NA,NA,sdfdsf,NA,1,NA,NA,NA,NA,NA,NA,NA,NA,NA,NA,NA,NA,NA,NA,NA,NA,NA,NA,NA
3288c,shallow,flow.Sequence,3_0_1_0_6_1,NA,NA,skipped,NA,304486.2,NA,NA,304481.645,304486.3,2023-06-09T12:41:47Z,304498.312,NULL,Kanzler,diwani,d,NA,NA,NA,NA,sdfdsf,NA,1,NA,NA,NA,NA,NA,NA,NA,NA,NA,NA,NA,NA,NA,NA,NA,NA,NA,NA,NA
3288c,task,flow.Sequence,3_0_1_0_6,NA,NA,completion,11134.123,293339.4,293330.855,293347.522,304481.645,304486.5,2023-06-09T12:41:47Z,304498.312,NULL,Kanzler,diwani,d,NA,NA,NA,NA,sdfdsf,NA,1,NA,NA,NA,NA,NA,NA,NA,NA,NA,NA,NA,NA,NA,NA,NA,NA,NA,NA,NA
3288c,Deep Question,html.Page,3_0_1_0_7_0_0,NA,NA,form submission,3377.9879999998,304486.7,304481.645,304498.312,307876.3,307876.8,2023-06-09T12:41:51Z,307881.713,NULL,Schönheit,kirembo,d,NA,NA,NA,m,NA,NA,1,NA,NA,NA,NA,NA,NA,NA,NA,NA,NA,NA,NA,NA,NA,NA,NA,NA,NA,NA
3288c,"""Richtig""-Screen",canvas.Screen,3_0_1_0_7_0_1,NA,NA,skipped,NA,307880.2,NA,NA,307876.3,307880.5,2023-06-09T12:41:51Z,307881.713,NULL,Schönheit,kirembo,d,NA,NA,NA,NA,sdfdsf,NA,1,NA,NA,NA,NA,NA,NA,NA,NA,NA,NA,NA,NA,NA,NA,NA,NA,NA,NA,NA
3288c,"""Falsch""-Screen",canvas.Screen,3_0_1_0_7_0_2,NA,NA,timeout,5000.578,307881.8,307865.046,307881.713,312865.624,312869.2,2023-06-09T12:41:56Z,312882.291,NULL,Schönheit,kirembo,d,NA,NA,NA,NA,sdfdsf,0,1,NA,NA,NA,NA,NA,NA,NA,NA,NA,NA,NA,NA,NA,NA,NA,NA,NA,NA,NA
3288c,deep,flow.Sequence,3_0_1_0_7_0,NA,NA,completion,8367.312,304486.7,304481.645,304498.312,312865.624,312869.5,2023-06-09T12:41:56Z,312882.291,NULL,Schönheit,kirembo,d,NA,NA,NA,NA,sdfdsf,NA,1,NA,NA,NA,NA,NA,NA,NA,NA,NA,NA,NA,NA,NA,NA,NA,NA,NA,NA,NA
3288c,shallow,flow.Sequence,3_0_1_0_7_1,NA,NA,skipped,NA,312869.6,NA,NA,312865.624,312869.7,2023-06-09T12:41:56Z,312882.291,NULL,Schönheit,kirembo,d,NA,NA,NA,NA,sdfdsf,NA,1,NA,NA,NA,NA,NA,NA,NA,NA,NA,NA,NA,NA,NA,NA,NA,NA,NA,NA,NA
3288c,task,flow.Sequence,3_0_1_0_7,NA,NA,completion,8367.312,304486.6,304481.645,304498.312,312865.624,312870,2023-06-09T12:41:56Z,312882.291,NULL,Schönheit,kirembo,d,NA,NA,NA,NA,sdfdsf,NA,1,NA,NA,NA,NA,NA,NA,NA,NA,NA,NA,NA,NA,NA,NA,NA,NA,NA,NA,NA
3288c,block,flow.Loop,3_0_1_0,NA,NA,completion,87789.334,225062,225059.623,225076.29,312865.624,312870.1,2023-06-09T12:41:56Z,312882.291,NULL,NA,NA,NA,NA,NA,NA,NA,sdfdsf,NA,1,NA,NA,NA,NA,NA,NA,NA,NA,NA,NA,NA,NA,NA,NA,NA,NA,NA,NA,NA
3288c,weiter,canvas.Screen,3_0_1_1,sdf,keypress(Space),response,719.60899999988,312870.3,312865.624,312882.291,313601.9,313608.4,2023-06-09T12:41:56Z,313665.64,NULL,NA,NA,NA,NA,NA,NA,NA,sdfdsf,NA,1,NA,NA,NA,NA,NA,NA,NA,NA,NA,NA,NA,NA,NA,NA,NA,NA,NA,NA,NA
3288c,check continue,flow.Sequence,3_0_1,NA,NA,completion,88525.61,225062,225059.623,225076.29,313601.9,313608.6,2023-06-09T12:41:56Z,313665.64,NULL,NA,NA,NA,NA,NA,NA,NA,sdfdsf,NA,1,NA,NA,NA,NA,NA,NA,NA,NA,NA,NA,NA,NA,NA,NA,NA,NA,NA,NA,NA
3288c,Deep Question,html.Page,3_0_2_0_0_0_0,NA,NA,form submission,10616.66,313654.3,313648.973,313665.64,324282.3,324282.9,2023-06-09T12:42:07Z,324299.672,NULL,Kanzler,diwani,d,NA,NA,NA,diwamba,NA,NA,2,NA,NA,NA,NA,NA,NA,NA,NA,NA,NA,NA,NA,NA,NA,NA,NA,NA,NA,NA
3288c,"""Richtig""-Screen",canvas.Screen,3_0_2_0_0_0_1,NA,NA,skipped,NA,324286.6,NA,NA,324282.3,324286.9,2023-06-09T12:42:07Z,324299.672,NULL,Kanzler,diwani,d,NA,NA,NA,NA,sdf,NA,2,NA,NA,NA,NA,NA,NA,NA,NA,NA,NA,NA,NA,NA,NA,NA,NA,NA,NA,NA
3288c,"""Falsch""-Screen",canvas.Screen,3_0_2_0_0_0_2,NA,NA,timeout,5000.1,324288.3,324283.005,324299.672,329283.105,329285.6,2023-06-09T12:42:12Z,329299.772,NULL,Kanzler,diwani,d,NA,NA,NA,NA,sdf,0,2,NA,NA,NA,NA,NA,NA,NA,NA,NA,NA,NA,NA,NA,NA,NA,NA,NA,NA,NA
3288c,deep,flow.Sequence,3_0_2_0_0_0,NA,NA,completion,15617.465,313654.3,313648.973,313665.64,329283.105,329286,2023-06-09T12:42:12Z,329299.772,NULL,Kanzler,diwani,d,NA,NA,NA,NA,sdf,NA,2,NA,NA,NA,NA,NA,NA,NA,NA,NA,NA,NA,NA,NA,NA,NA,NA,NA,NA,NA
3288c,shallow,flow.Sequence,3_0_2_0_0_1,NA,NA,skipped,NA,329286,NA,NA,329283.105,329286.1,2023-06-09T12:42:12Z,329299.772,NULL,Kanzler,diwani,d,NA,NA,NA,NA,sdf,NA,2,NA,NA,NA,NA,NA,NA,NA,NA,NA,NA,NA,NA,NA,NA,NA,NA,NA,NA,NA
3288c,task,flow.Sequence,3_0_2_0_0,NA,NA,completion,15617.465,313654.3,313648.973,313665.64,329283.105,329286.3,2023-06-09T12:42:12Z,329299.772,NULL,Kanzler,diwani,d,NA,NA,NA,NA,sdf,NA,2,NA,NA,NA,NA,NA,NA,NA,NA,NA,NA,NA,NA,NA,NA,NA,NA,NA,NA,NA
3288c,deep,flow.Sequence,3_0_2_0_1_0,NA,NA,skipped,NA,329286.4,NA,NA,329283.105,329286.6,2023-06-09T12:42:12Z,329299.772,NULL,Auftrag,uagizaji,s,ghanima,kuzingatia,msukani,NA,sdf,NA,2,NA,NA,NA,NA,NA,NA,NA,NA,NA,NA,NA,NA,NA,NA,NA,NA,NA,NA,NA
3288c,Shallow Question,html.Page,3_0_2_0_1_1_0,NA,NA,form submission,5536.728,329287.1,329283.105,329299.772,334836.5,334836.9,2023-06-09T12:42:18Z,334850.413,NULL,Auftrag,uagizaji,s,ghanima,kuzingatia,msukani,uagizaji,NA,NA,2,NA,NA,NA,NA,NA,NA,NA,NA,NA,NA,NA,NA,NA,NA,NA,NA,NA,NA,NA
3288c,"""Richtig""-Screen",canvas.Screen,3_0_2_0_1_1_1,NA,NA,timeout,5000.1,334840.5,334833.746,334850.413,339833.846,339837.9,2023-06-09T12:42:23Z,339850.513,NULL,Auftrag,uagizaji,s,ghanima,kuzingatia,msukani,NA,sdf,1,2,NA,NA,NA,NA,NA,NA,NA,NA,NA,NA,NA,NA,NA,NA,NA,NA,NA,NA,NA
3288c,"""Falsch""-Screen",canvas.Screen,3_0_2_0_1_1_2,NA,NA,skipped,NA,339841.3,NA,NA,339833.846,339841.6,2023-06-09T12:42:23Z,339850.513,NULL,Auftrag,uagizaji,s,ghanima,kuzingatia,msukani,NA,sdf,NA,2,NA,NA,NA,NA,NA,NA,NA,NA,NA,NA,NA,NA,NA,NA,NA,NA,NA,NA,NA
3288c,shallow,flow.Sequence,3_0_2_0_1_1,NA,NA,completion,10534.074,329286.6,329283.105,329299.772,339833.846,339841.8,2023-06-09T12:42:23Z,339850.513,NULL,Auftrag,uagizaji,s,ghanima,kuzingatia,msukani,NA,sdf,NA,2,NA,NA,NA,NA,NA,NA,NA,NA,NA,NA,NA,NA,NA,NA,NA,NA,NA,NA,NA
3288c,task,flow.Sequence,3_0_2_0_1,NA,NA,completion,10534.074,329286.4,329283.105,329299.772,339833.846,339842,2023-06-09T12:42:23Z,339850.513,NULL,Auftrag,uagizaji,s,ghanima,kuzingatia,msukani,NA,sdf,NA,2,NA,NA,NA,NA,NA,NA,NA,NA,NA,NA,NA,NA,NA,NA,NA,NA,NA,NA,NA
3288c,deep,flow.Sequence,3_0_2_0_2_0,NA,NA,skipped,NA,339842.2,NA,NA,339833.846,339842.3,2023-06-09T12:42:23Z,339850.513,NULL,Sänger,mwimbaji,s,msichana,shughuli,mshirika,NA,sdf,NA,2,NA,NA,NA,NA,NA,NA,NA,NA,NA,NA,NA,NA,NA,NA,NA,NA,NA,NA,NA
3288c,Shallow Question,html.Page,3_0_2_0_2_1_0,NA,NA,form submission,5806.6869999997,339842.4,339833.846,339850.513,345657.2,345657.5,2023-06-09T12:42:29Z,345667.797,NULL,Sänger,mwimbaji,s,msichana,shughuli,mshirika,mwimbaji,NA,NA,2,NA,NA,NA,NA,NA,NA,NA,NA,NA,NA,NA,NA,NA,NA,NA,NA,NA,NA,NA
3288c,"""Richtig""-Screen",canvas.Screen,3_0_2_0_2_1_1,NA,NA,timeout,5000.1,345660.5,345651.13,345667.797,350651.23,350653.9,2023-06-09T12:42:33Z,350667.897,NULL,Sänger,mwimbaji,s,msichana,shughuli,mshirika,NA,sdf,1,2,NA,NA,NA,NA,NA,NA,NA,NA,NA,NA,NA,NA,NA,NA,NA,NA,NA,NA,NA
3288c,"""Falsch""-Screen",canvas.Screen,3_0_2_0_2_1_2,NA,NA,skipped,NA,350657.6,NA,NA,350651.23,350657.9,2023-06-09T12:42:34Z,350667.897,NULL,Sänger,mwimbaji,s,msichana,shughuli,mshirika,NA,sdf,NA,2,NA,NA,NA,NA,NA,NA,NA,NA,NA,NA,NA,NA,NA,NA,NA,NA,NA,NA,NA
3288c,shallow,flow.Sequence,3_0_2_0_2_1,NA,NA,completion,10800.717,339842.4,339833.846,339850.513,350651.23,350658,2023-06-09T12:42:34Z,350667.897,NULL,Sänger,mwimbaji,s,msichana,shughuli,mshirika,NA,sdf,NA,2,NA,NA,NA,NA,NA,NA,NA,NA,NA,NA,NA,NA,NA,NA,NA,NA,NA,NA,NA
3288c,task,flow.Sequence,3_0_2_0_2,NA,NA,completion,10800.717,339842.1,339833.846,339850.513,350651.23,350658.3,2023-06-09T12:42:34Z,350667.897,NULL,Sänger,mwimbaji,s,msichana,shughuli,mshirika,NA,sdf,NA,2,NA,NA,NA,NA,NA,NA,NA,NA,NA,NA,NA,NA,NA,NA,NA,NA,NA,NA,NA
3288c,Deep Question,html.Page,3_0_2_0_3_0_0,NA,NA,form submission,3091.4029999998,350658.5,350651.23,350667.897,353759.3,353759.7,2023-06-09T12:42:37Z,353768.472,NULL,Abrechnung,uhasibu,d,NA,NA,NA,m,NA,NA,2,NA,NA,NA,NA,NA,NA,NA,NA,NA,NA,NA,NA,NA,NA,NA,NA,NA,NA,NA
3288c,"""Richtig""-Screen",canvas.Screen,3_0_2_0_3_0_1,NA,NA,skipped,NA,353763,NA,NA,353759.3,353763.2,2023-06-09T12:42:37Z,353768.472,NULL,Abrechnung,uhasibu,d,NA,NA,NA,NA,sdf,NA,2,NA,NA,NA,NA,NA,NA,NA,NA,NA,NA,NA,NA,NA,NA,NA,NA,NA,NA,NA
3288c,"""Falsch""-Screen",canvas.Screen,3_0_2_0_3_0_2,NA,NA,timeout,5000.1,353764.3,353751.805,353768.472,358751.905,358756.7,2023-06-09T12:42:42Z,358768.572,NULL,Abrechnung,uhasibu,d,NA,NA,NA,NA,sdf,0,2,NA,NA,NA,NA,NA,NA,NA,NA,NA,NA,NA,NA,NA,NA,NA,NA,NA,NA,NA
3288c,deep,flow.Sequence,3_0_2_0_3_0,NA,NA,completion,8084.008,350658.4,350651.23,350667.897,358751.905,358757,2023-06-09T12:42:42Z,358768.572,NULL,Abrechnung,uhasibu,d,NA,NA,NA,NA,sdf,NA,2,NA,NA,NA,NA,NA,NA,NA,NA,NA,NA,NA,NA,NA,NA,NA,NA,NA,NA,NA
3288c,shallow,flow.Sequence,3_0_2_0_3_1,NA,NA,skipped,NA,358757.1,NA,NA,358751.905,358757.3,2023-06-09T12:42:42Z,358768.572,NULL,Abrechnung,uhasibu,d,NA,NA,NA,NA,sdf,NA,2,NA,NA,NA,NA,NA,NA,NA,NA,NA,NA,NA,NA,NA,NA,NA,NA,NA,NA,NA
3288c,task,flow.Sequence,3_0_2_0_3,NA,NA,completion,8084.008,350658.4,350651.23,350667.897,358751.905,358757.5,2023-06-09T12:42:42Z,358768.572,NULL,Abrechnung,uhasibu,d,NA,NA,NA,NA,sdf,NA,2,NA,NA,NA,NA,NA,NA,NA,NA,NA,NA,NA,NA,NA,NA,NA,NA,NA,NA,NA
3288c,deep,flow.Sequence,3_0_2_0_4_0,NA,NA,skipped,NA,358757.6,NA,NA,358751.905,358757.6,2023-06-09T12:42:42Z,358768.572,NULL,Wettbewerb,ushindani,s,mapendezi,kichocheo,ubaguzi,NA,sdf,NA,2,NA,NA,NA,NA,NA,NA,NA,NA,NA,NA,NA,NA,NA,NA,NA,NA,NA,NA,NA
3288c,Shallow Question,html.Page,3_0_2_0_4_1_0,NA,NA,form submission,14756.428,358757.8,358751.905,358768.572,373525,373525.4,2023-06-09T12:42:56Z,373536.576,NULL,Wettbewerb,ushindani,s,mapendezi,kichocheo,ubaguzi,ushindani,NA,NA,2,NA,NA,NA,NA,NA,NA,NA,NA,NA,NA,NA,NA,NA,NA,NA,NA,NA,NA,NA
3288c,"""Richtig""-Screen",canvas.Screen,3_0_2_0_4_1_1,NA,NA,timeout,5000.1,373528.8,373519.909,373536.576,378520.009,378524,2023-06-09T12:43:01Z,378536.676,NULL,Wettbewerb,ushindani,s,mapendezi,kichocheo,ubaguzi,NA,sdf,1,2,NA,NA,NA,NA,NA,NA,NA,NA,NA,NA,NA,NA,NA,NA,NA,NA,NA,NA,NA
3288c,"""Falsch""-Screen",canvas.Screen,3_0_2_0_4_1_2,NA,NA,skipped,NA,378528.2,NA,NA,378520.009,378528.5,2023-06-09T12:43:01Z,378536.676,NULL,Wettbewerb,ushindani,s,mapendezi,kichocheo,ubaguzi,NA,sdf,NA,2,NA,NA,NA,NA,NA,NA,NA,NA,NA,NA,NA,NA,NA,NA,NA,NA,NA,NA,NA
3288c,shallow,flow.Sequence,3_0_2_0_4_1,NA,NA,completion,19751.437,358757.8,358751.905,358768.572,378520.009,378528.6,2023-06-09T12:43:01Z,378536.676,NULL,Wettbewerb,ushindani,s,mapendezi,kichocheo,ubaguzi,NA,sdf,NA,2,NA,NA,NA,NA,NA,NA,NA,NA,NA,NA,NA,NA,NA,NA,NA,NA,NA,NA,NA
3288c,task,flow.Sequence,3_0_2_0_4,NA,NA,completion,19751.437,358757.5,358751.905,358768.572,378520.009,378528.9,2023-06-09T12:43:01Z,378536.676,NULL,Wettbewerb,ushindani,s,mapendezi,kichocheo,ubaguzi,NA,sdf,NA,2,NA,NA,NA,NA,NA,NA,NA,NA,NA,NA,NA,NA,NA,NA,NA,NA,NA,NA,NA
3288c,Deep Question,html.Page,3_0_2_0_5_0_0,NA,NA,form submission,6553.324,378529.1,378520.009,378536.676,385090,385090.6,2023-06-09T12:43:08Z,385103.957,NULL,Schönheit,kirembo,d,NA,NA,NA,m,NA,NA,2,NA,NA,NA,NA,NA,NA,NA,NA,NA,NA,NA,NA,NA,NA,NA,NA,NA,NA,NA
3288c,"""Richtig""-Screen",canvas.Screen,3_0_2_0_5_0_1,NA,NA,skipped,NA,385093.9,NA,NA,385090,385094.1,2023-06-09T12:43:08Z,385103.957,NULL,Schönheit,kirembo,d,NA,NA,NA,NA,sdf,NA,2,NA,NA,NA,NA,NA,NA,NA,NA,NA,NA,NA,NA,NA,NA,NA,NA,NA,NA,NA
3288c,"""Falsch""-Screen",canvas.Screen,3_0_2_0_5_0_2,NA,NA,timeout,5000.1,385095.2,385087.29,385103.957,390087.39,390091.5,2023-06-09T12:43:13Z,390104.057,NULL,Schönheit,kirembo,d,NA,NA,NA,NA,sdf,0,2,NA,NA,NA,NA,NA,NA,NA,NA,NA,NA,NA,NA,NA,NA,NA,NA,NA,NA,NA
3288c,deep,flow.Sequence,3_0_2_0_5_0,NA,NA,completion,11550.714,378529.1,378520.009,378536.676,390087.39,390091.9,2023-06-09T12:43:13Z,390104.057,NULL,Schönheit,kirembo,d,NA,NA,NA,NA,sdf,NA,2,NA,NA,NA,NA,NA,NA,NA,NA,NA,NA,NA,NA,NA,NA,NA,NA,NA,NA,NA
3288c,shallow,flow.Sequence,3_0_2_0_5_1,NA,NA,skipped,NA,390092,NA,NA,390087.39,390092.1,2023-06-09T12:43:13Z,390104.057,NULL,Schönheit,kirembo,d,NA,NA,NA,NA,sdf,NA,2,NA,NA,NA,NA,NA,NA,NA,NA,NA,NA,NA,NA,NA,NA,NA,NA,NA,NA,NA
3288c,task,flow.Sequence,3_0_2_0_5,NA,NA,completion,11550.714,378529,378520.009,378536.676,390087.39,390092.3,2023-06-09T12:43:13Z,390104.057,NULL,Schönheit,kirembo,d,NA,NA,NA,NA,sdf,NA,2,NA,NA,NA,NA,NA,NA,NA,NA,NA,NA,NA,NA,NA,NA,NA,NA,NA,NA,NA
3288c,Deep Question,html.Page,3_0_2_0_6_0_0,NA,NA,form submission,11633.943,390092.5,390087.39,390104.057,401738,401739.1,2023-06-09T12:43:25Z,401738.119,NULL,Zufall,kikuti,d,NA,NA,NA,kikita,NA,NA,2,NA,NA,NA,NA,NA,NA,NA,NA,NA,NA,NA,NA,NA,NA,NA,NA,NA,NA,NA
3288c,"""Richtig""-Screen",canvas.Screen,3_0_2_0_6_0_1,NA,NA,skipped,NA,401742.7,NA,NA,401738,401742.9,2023-06-09T12:43:25Z,401738.119,NULL,Zufall,kikuti,d,NA,NA,NA,NA,sdf,NA,2,NA,NA,NA,NA,NA,NA,NA,NA,NA,NA,NA,NA,NA,NA,NA,NA,NA,NA,NA
3288c,"""Falsch""-Screen",canvas.Screen,3_0_2_0_6_0_2,NA,NA,timeout,5000.1,401744,401721.452,401738.119,406721.552,406724.2,2023-06-09T12:43:30Z,406738.219,NULL,Zufall,kikuti,d,NA,NA,NA,NA,sdf,0,2,NA,NA,NA,NA,NA,NA,NA,NA,NA,NA,NA,NA,NA,NA,NA,NA,NA,NA,NA
3288c,deep,flow.Sequence,3_0_2_0_6_0,NA,NA,completion,16617.495,390092.5,390087.39,390104.057,406721.552,406724.6,2023-06-09T12:43:30Z,406738.219,NULL,Zufall,kikuti,d,NA,NA,NA,NA,sdf,NA,2,NA,NA,NA,NA,NA,NA,NA,NA,NA,NA,NA,NA,NA,NA,NA,NA,NA,NA,NA
3288c,shallow,flow.Sequence,3_0_2_0_6_1,NA,NA,skipped,NA,406724.7,NA,NA,406721.552,406724.9,2023-06-09T12:43:30Z,406738.219,NULL,Zufall,kikuti,d,NA,NA,NA,NA,sdf,NA,2,NA,NA,NA,NA,NA,NA,NA,NA,NA,NA,NA,NA,NA,NA,NA,NA,NA,NA,NA
3288c,task,flow.Sequence,3_0_2_0_6,NA,NA,completion,16617.495,390092.4,390087.39,390104.057,406721.552,406725,2023-06-09T12:43:30Z,406738.219,NULL,Zufall,kikuti,d,NA,NA,NA,NA,sdf,NA,2,NA,NA,NA,NA,NA,NA,NA,NA,NA,NA,NA,NA,NA,NA,NA,NA,NA,NA,NA
3288c,deep,flow.Sequence,3_0_2_0_7_0,NA,NA,skipped,NA,406725.1,NA,NA,406721.552,406725.3,2023-06-09T12:43:30Z,406738.219,NULL,Angreifer,mshambulizi,s,kitengo,tasinia,usafirishaji,NA,sdf,NA,2,NA,NA,NA,NA,NA,NA,NA,NA,NA,NA,NA,NA,NA,NA,NA,NA,NA,NA,NA
3288c,Shallow Question,html.Page,3_0_2_0_7_1_0,NA,NA,form submission,5496.3810000001,406725.4,406721.552,406738.219,412234.6,412234.9,2023-06-09T12:43:35Z,412238.969,NULL,Angreifer,mshambulizi,s,kitengo,tasinia,usafirishaji,mshambulizi,NA,NA,2,NA,NA,NA,NA,NA,NA,NA,NA,NA,NA,NA,NA,NA,NA,NA,NA,NA,NA,NA
3288c,"""Richtig""-Screen",canvas.Screen,3_0_2_0_7_1_1,NA,NA,timeout,5000.1,412238.6,412222.302,412238.969,417222.402,417225.5,2023-06-09T12:43:40Z,417239.069,NULL,Angreifer,mshambulizi,s,kitengo,tasinia,usafirishaji,NA,sdf,1,2,NA,NA,NA,NA,NA,NA,NA,NA,NA,NA,NA,NA,NA,NA,NA,NA,NA,NA,NA
3288c,"""Falsch""-Screen",canvas.Screen,3_0_2_0_7_1_2,NA,NA,skipped,NA,417228.9,NA,NA,417222.402,417230.1,2023-06-09T12:43:40Z,417239.069,NULL,Angreifer,mshambulizi,s,kitengo,tasinia,usafirishaji,NA,sdf,NA,2,NA,NA,NA,NA,NA,NA,NA,NA,NA,NA,NA,NA,NA,NA,NA,NA,NA,NA,NA
3288c,shallow,flow.Sequence,3_0_2_0_7_1,NA,NA,completion,10484.183,406725.3,406721.552,406738.219,417222.402,417230.4,2023-06-09T12:43:40Z,417239.069,NULL,Angreifer,mshambulizi,s,kitengo,tasinia,usafirishaji,NA,sdf,NA,2,NA,NA,NA,NA,NA,NA,NA,NA,NA,NA,NA,NA,NA,NA,NA,NA,NA,NA,NA
3288c,task,flow.Sequence,3_0_2_0_7,NA,NA,completion,10484.183,406725.1,406721.552,406738.219,417222.402,417230.7,2023-06-09T12:43:40Z,417239.069,NULL,Angreifer,mshambulizi,s,kitengo,tasinia,usafirishaji,NA,sdf,NA,2,NA,NA,NA,NA,NA,NA,NA,NA,NA,NA,NA,NA,NA,NA,NA,NA,NA,NA,NA
3288c,block,flow.Loop,3_0_2_0,NA,NA,completion,103556.762,313654.2,313648.973,313665.64,417222.402,417230.9,2023-06-09T12:43:40Z,417239.069,NULL,NA,NA,NA,NA,NA,NA,NA,sdf,NA,2,NA,NA,NA,NA,NA,NA,NA,NA,NA,NA,NA,NA,NA,NA,NA,NA,NA,NA,NA
3288c,weiter,canvas.Screen,3_0_2_1,sdf,keypress(Space),response,975.7309999998,417231,417222.402,417239.069,418214.8,418220.1,2023-06-09T12:43:41Z,418256.255,NULL,NA,NA,NA,NA,NA,NA,NA,sdf,NA,2,NA,NA,NA,NA,NA,NA,NA,NA,NA,NA,NA,NA,NA,NA,NA,NA,NA,NA,NA
3288c,check continue,flow.Sequence,3_0_2,NA,NA,completion,104549.16,313654.2,313648.973,313665.64,418214.8,418220.3,2023-06-09T12:43:41Z,418256.255,NULL,NA,NA,NA,NA,NA,NA,NA,sdf,NA,2,NA,NA,NA,NA,NA,NA,NA,NA,NA,NA,NA,NA,NA,NA,NA,NA,NA,NA,NA
3288c,deep,flow.Sequence,3_0_3_0_0_0,NA,NA,skipped,NA,418253.9,NA,NA,418214.8,418254.1,2023-06-09T12:43:41Z,418256.255,NULL,Angreifer,mshambulizi,s,kitengo,tasinia,usafirishaji,NA,qt,NA,3,NA,NA,NA,NA,NA,NA,NA,NA,NA,NA,NA,NA,NA,NA,NA,NA,NA,NA,NA
3288c,Shallow Question,html.Page,3_0_3_0_0_1_0,NA,NA,form submission,4551.9449999997,418254.2,418239.588,418256.255,422808.2,422808.6,2023-06-09T12:43:46Z,422823.013,NULL,Angreifer,mshambulizi,s,kitengo,tasinia,usafirishaji,mshambulizi,NA,NA,3,NA,NA,NA,NA,NA,NA,NA,NA,NA,NA,NA,NA,NA,NA,NA,NA,NA,NA,NA
3288c,"""Richtig""-Screen",canvas.Screen,3_0_3_0_0_1_1,NA,NA,timeout,5000.1,422811.6,422806.346,422823.013,427806.446,427808.3,2023-06-09T12:43:51Z,427823.113,NULL,Angreifer,mshambulizi,s,kitengo,tasinia,usafirishaji,NA,qt,1,3,NA,NA,NA,NA,NA,NA,NA,NA,NA,NA,NA,NA,NA,NA,NA,NA,NA,NA,NA
3288c,"""Falsch""-Screen",canvas.Screen,3_0_3_0_0_1_2,NA,NA,skipped,NA,427811.8,NA,NA,427806.446,427812.1,2023-06-09T12:43:51Z,427823.113,NULL,Angreifer,mshambulizi,s,kitengo,tasinia,usafirishaji,NA,qt,NA,3,NA,NA,NA,NA,NA,NA,NA,NA,NA,NA,NA,NA,NA,NA,NA,NA,NA,NA,NA
3288c,shallow,flow.Sequence,3_0_3_0_0_1,NA,NA,completion,9550.191,418254.2,418239.588,418256.255,427806.446,427812.4,2023-06-09T12:43:51Z,427823.113,NULL,Angreifer,mshambulizi,s,kitengo,tasinia,usafirishaji,NA,qt,NA,3,NA,NA,NA,NA,NA,NA,NA,NA,NA,NA,NA,NA,NA,NA,NA,NA,NA,NA,NA
3288c,task,flow.Sequence,3_0_3_0_0,NA,NA,completion,9550.191,418253.9,418239.588,418256.255,427806.446,427812.5,2023-06-09T12:43:51Z,427823.113,NULL,Angreifer,mshambulizi,s,kitengo,tasinia,usafirishaji,NA,qt,NA,3,NA,NA,NA,NA,NA,NA,NA,NA,NA,NA,NA,NA,NA,NA,NA,NA,NA,NA,NA
3288c,Deep Question,html.Page,3_0_3_0_1_0_0,NA,NA,form submission,6470.4870000001,427812.8,427806.446,427823.113,434293.6,434294,2023-06-09T12:43:57Z,434307.077,NULL,Zufall,kikuti,d,NA,NA,NA,kikuti,NA,NA,3,NA,NA,NA,NA,NA,NA,NA,NA,NA,NA,NA,NA,NA,NA,NA,NA,NA,NA,NA
3288c,"""Richtig""-Screen",canvas.Screen,3_0_3_0_1_0_1,NA,NA,timeout,5000.1,434296.4,434290.41,434307.077,439290.51,439295,2023-06-09T12:44:02Z,439307.177,NULL,Zufall,kikuti,d,NA,NA,NA,NA,qt,1,3,NA,NA,NA,NA,NA,NA,NA,NA,NA,NA,NA,NA,NA,NA,NA,NA,NA,NA,NA
3288c,"""Falsch""-Screen",canvas.Screen,3_0_3_0_1_0_2,NA,NA,skipped,NA,439298.4,NA,NA,439290.51,439298.7,2023-06-09T12:44:02Z,439307.177,NULL,Zufall,kikuti,d,NA,NA,NA,NA,qt,NA,3,NA,NA,NA,NA,NA,NA,NA,NA,NA,NA,NA,NA,NA,NA,NA,NA,NA,NA,NA
3288c,deep,flow.Sequence,3_0_3_0_1_0,NA,NA,completion,11467.397,427812.7,427806.446,427823.113,439290.51,439298.9,2023-06-09T12:44:02Z,439307.177,NULL,Zufall,kikuti,d,NA,NA,NA,NA,qt,NA,3,NA,NA,NA,NA,NA,NA,NA,NA,NA,NA,NA,NA,NA,NA,NA,NA,NA,NA,NA
3288c,shallow,flow.Sequence,3_0_3_0_1_1,NA,NA,skipped,NA,439299,NA,NA,439290.51,439299,2023-06-09T12:44:02Z,439307.177,NULL,Zufall,kikuti,d,NA,NA,NA,NA,qt,NA,3,NA,NA,NA,NA,NA,NA,NA,NA,NA,NA,NA,NA,NA,NA,NA,NA,NA,NA,NA
3288c,task,flow.Sequence,3_0_3_0_1,NA,NA,completion,11467.397,427812.6,427806.446,427823.113,439290.51,439299.3,2023-06-09T12:44:02Z,439307.177,NULL,Zufall,kikuti,d,NA,NA,NA,NA,qt,NA,3,NA,NA,NA,NA,NA,NA,NA,NA,NA,NA,NA,NA,NA,NA,NA,NA,NA,NA,NA
3288c,deep,flow.Sequence,3_0_3_0_2_0,NA,NA,skipped,NA,439299.4,NA,NA,439290.51,439299.4,2023-06-09T12:44:02Z,439307.177,NULL,Sänger,mwimbaji,s,msichana,shughuli,mshirika,NA,qt,NA,3,NA,NA,NA,NA,NA,NA,NA,NA,NA,NA,NA,NA,NA,NA,NA,NA,NA,NA,NA
3288c,Shallow Question,html.Page,3_0_3_0_2_1_0,NA,NA,form submission,8898.2229999999,439299.6,439290.51,439307.177,448205.4,448205.8,2023-06-09T12:44:11Z,448207.902,NULL,Sänger,mwimbaji,s,msichana,shughuli,mshirika,mwimbaji,NA,NA,3,NA,NA,NA,NA,NA,NA,NA,NA,NA,NA,NA,NA,NA,NA,NA,NA,NA,NA,NA
3288c,"""Richtig""-Screen",canvas.Screen,3_0_3_0_2_1_1,NA,NA,timeout,5000.1,448209.4,448191.235,448207.902,453191.335,453193.2,2023-06-09T12:44:16Z,453208.002,NULL,Sänger,mwimbaji,s,msichana,shughuli,mshirika,NA,qt,1,3,NA,NA,NA,NA,NA,NA,NA,NA,NA,NA,NA,NA,NA,NA,NA,NA,NA,NA,NA
3288c,"""Falsch""-Screen",canvas.Screen,3_0_3_0_2_1_2,NA,NA,skipped,NA,453196.6,NA,NA,453191.335,453196.9,2023-06-09T12:44:16Z,453208.002,NULL,Sänger,mwimbaji,s,msichana,shughuli,mshirika,NA,qt,NA,3,NA,NA,NA,NA,NA,NA,NA,NA,NA,NA,NA,NA,NA,NA,NA,NA,NA,NA,NA
3288c,shallow,flow.Sequence,3_0_3_0_2_1,NA,NA,completion,13884.158,439299.5,439290.51,439307.177,453191.335,453197.2,2023-06-09T12:44:16Z,453208.002,NULL,Sänger,mwimbaji,s,msichana,shughuli,mshirika,NA,qt,NA,3,NA,NA,NA,NA,NA,NA,NA,NA,NA,NA,NA,NA,NA,NA,NA,NA,NA,NA,NA
3288c,task,flow.Sequence,3_0_3_0_2,NA,NA,completion,13884.158,439299.3,439290.51,439307.177,453191.335,453197.4,2023-06-09T12:44:16Z,453208.002,NULL,Sänger,mwimbaji,s,msichana,shughuli,mshirika,NA,qt,NA,3,NA,NA,NA,NA,NA,NA,NA,NA,NA,NA,NA,NA,NA,NA,NA,NA,NA,NA,NA
3288c,Deep Question,html.Page,3_0_3_0_3_0_0,NA,NA,form submission,15899.198,453197.6,453191.335,453208.002,469107.2,469107.7,2023-06-09T12:44:32Z,469109.461,NULL,Schönheit,kirembo,d,NA,NA,NA,kitemba,NA,NA,3,NA,NA,NA,NA,NA,NA,NA,NA,NA,NA,NA,NA,NA,NA,NA,NA,NA,NA,NA
3288c,"""Richtig""-Screen",canvas.Screen,3_0_3_0_3_0_1,NA,NA,skipped,NA,469111,NA,NA,469107.2,469111.2,2023-06-09T12:44:32Z,469109.461,NULL,Schönheit,kirembo,d,NA,NA,NA,NA,qt,NA,3,NA,NA,NA,NA,NA,NA,NA,NA,NA,NA,NA,NA,NA,NA,NA,NA,NA,NA,NA
3288c,"""Falsch""-Screen",canvas.Screen,3_0_3_0_3_0_2,NA,NA,timeout,5000.1,469112.3,469092.794,469109.461,474092.894,474094.5,2023-06-09T12:44:37Z,474109.561,NULL,Schönheit,kirembo,d,NA,NA,NA,NA,qt,0,3,NA,NA,NA,NA,NA,NA,NA,NA,NA,NA,NA,NA,NA,NA,NA,NA,NA,NA,NA
3288c,deep,flow.Sequence,3_0_3_0_3_0,NA,NA,completion,20884.892,453197.6,453191.335,453208.002,474092.894,474094.8,2023-06-09T12:44:37Z,474109.561,NULL,Schönheit,kirembo,d,NA,NA,NA,NA,qt,NA,3,NA,NA,NA,NA,NA,NA,NA,NA,NA,NA,NA,NA,NA,NA,NA,NA,NA,NA,NA
3288c,shallow,flow.Sequence,3_0_3_0_3_1,NA,NA,skipped,NA,474095,NA,NA,474092.894,474095.1,2023-06-09T12:44:37Z,474109.561,NULL,Schönheit,kirembo,d,NA,NA,NA,NA,qt,NA,3,NA,NA,NA,NA,NA,NA,NA,NA,NA,NA,NA,NA,NA,NA,NA,NA,NA,NA,NA
3288c,task,flow.Sequence,3_0_3_0_3,NA,NA,completion,20884.892,453197.5,453191.335,453208.002,474092.894,474095.2,2023-06-09T12:44:37Z,474109.561,NULL,Schönheit,kirembo,d,NA,NA,NA,NA,qt,NA,3,NA,NA,NA,NA,NA,NA,NA,NA,NA,NA,NA,NA,NA,NA,NA,NA,NA,NA,NA
3288c,deep,flow.Sequence,3_0_3_0_4_0,NA,NA,skipped,NA,474095.3,NA,NA,474092.894,474095.4,2023-06-09T12:44:37Z,474109.561,NULL,Wettbewerb,ushindani,s,mapendezi,kichocheo,ubaguzi,NA,qt,NA,3,NA,NA,NA,NA,NA,NA,NA,NA,NA,NA,NA,NA,NA,NA,NA,NA,NA,NA,NA
3288c,Shallow Question,html.Page,3_0_3_0_4_1_0,NA,NA,form submission,7542.7389999998,474095.6,474092.894,474109.561,481652.3,481652.7,2023-06-09T12:44:44Z,481660.221,NULL,Wettbewerb,ushindani,s,mapendezi,kichocheo,ubaguzi,ushindani,NA,NA,3,NA,NA,NA,NA,NA,NA,NA,NA,NA,NA,NA,NA,NA,NA,NA,NA,NA,NA,NA
3288c,"""Richtig""-Screen",canvas.Screen,3_0_3_0_4_1_1,NA,NA,timeout,5000.1,481656,481643.554,481660.221,486643.654,486647.3,2023-06-09T12:44:49Z,486660.321,NULL,Wettbewerb,ushindani,s,mapendezi,kichocheo,ubaguzi,NA,qt,1,3,NA,NA,NA,NA,NA,NA,NA,NA,NA,NA,NA,NA,NA,NA,NA,NA,NA,NA,NA
3288c,"""Falsch""-Screen",canvas.Screen,3_0_3_0_4_1_2,NA,NA,skipped,NA,486650.9,NA,NA,486643.654,486651.3,2023-06-09T12:44:49Z,486660.321,NULL,Wettbewerb,ushindani,s,mapendezi,kichocheo,ubaguzi,NA,qt,NA,3,NA,NA,NA,NA,NA,NA,NA,NA,NA,NA,NA,NA,NA,NA,NA,NA,NA,NA,NA
3288c,shallow,flow.Sequence,3_0_3_0_4_1,NA,NA,completion,12534.093,474095.6,474092.894,474109.561,486643.654,486651.5,2023-06-09T12:44:49Z,486660.321,NULL,Wettbewerb,ushindani,s,mapendezi,kichocheo,ubaguzi,NA,qt,NA,3,NA,NA,NA,NA,NA,NA,NA,NA,NA,NA,NA,NA,NA,NA,NA,NA,NA,NA,NA
3288c,task,flow.Sequence,3_0_3_0_4,NA,NA,completion,12534.093,474095.3,474092.894,474109.561,486643.654,486651.7,2023-06-09T12:44:49Z,486660.321,NULL,Wettbewerb,ushindani,s,mapendezi,kichocheo,ubaguzi,NA,qt,NA,3,NA,NA,NA,NA,NA,NA,NA,NA,NA,NA,NA,NA,NA,NA,NA,NA,NA,NA,NA
3288c,deep,flow.Sequence,3_0_3_0_5_0,NA,NA,skipped,NA,486651.8,NA,NA,486643.654,486651.9,2023-06-09T12:44:49Z,486660.321,NULL,Auftrag,uagizaji,s,ghanima,kuzingatia,msukani,NA,qt,NA,3,NA,NA,NA,NA,NA,NA,NA,NA,NA,NA,NA,NA,NA,NA,NA,NA,NA,NA,NA
3288c,Shallow Question,html.Page,3_0_3_0_5_1_0,NA,NA,form submission,3008.179,486652,486643.654,486660.321,489668.5,489668.8,2023-06-09T12:44:53Z,489677.644,NULL,Auftrag,uagizaji,s,ghanima,kuzingatia,msukani,uagizaji,NA,NA,3,NA,NA,NA,NA,NA,NA,NA,NA,NA,NA,NA,NA,NA,NA,NA,NA,NA,NA,NA
3288c,"""Richtig""-Screen",canvas.Screen,3_0_3_0_5_1_1,NA,NA,timeout,5000.1,489669.8,489660.977,489677.644,494661.077,494663.9,2023-06-09T12:44:58Z,494677.744,NULL,Auftrag,uagizaji,s,ghanima,kuzingatia,msukani,NA,qt,1,3,NA,NA,NA,NA,NA,NA,NA,NA,NA,NA,NA,NA,NA,NA,NA,NA,NA,NA,NA
3288c,"""Falsch""-Screen",canvas.Screen,3_0_3_0_5_1_2,NA,NA,skipped,NA,494666.9,NA,NA,494661.077,494667.2,2023-06-09T12:44:58Z,494677.744,NULL,Auftrag,uagizaji,s,ghanima,kuzingatia,msukani,NA,qt,NA,3,NA,NA,NA,NA,NA,NA,NA,NA,NA,NA,NA,NA,NA,NA,NA,NA,NA,NA,NA
3288c,shallow,flow.Sequence,3_0_3_0_5_1,NA,NA,completion,8000.756,486652,486643.654,486660.321,494661.077,494667.4,2023-06-09T12:44:58Z,494677.744,NULL,Auftrag,uagizaji,s,ghanima,kuzingatia,msukani,NA,qt,NA,3,NA,NA,NA,NA,NA,NA,NA,NA,NA,NA,NA,NA,NA,NA,NA,NA,NA,NA,NA
3288c,task,flow.Sequence,3_0_3_0_5,NA,NA,completion,8000.756,486651.8,486643.654,486660.321,494661.077,494667.6,2023-06-09T12:44:58Z,494677.744,NULL,Auftrag,uagizaji,s,ghanima,kuzingatia,msukani,NA,qt,NA,3,NA,NA,NA,NA,NA,NA,NA,NA,NA,NA,NA,NA,NA,NA,NA,NA,NA,NA,NA
3288c,Deep Question,html.Page,3_0_3_0_6_0_0,NA,NA,form submission,13317.056,494667.8,494661.077,494677.744,507994.8,507995.4,2023-06-09T12:45:11Z,508012.312,NULL,Abrechnung,uhasibu,d,NA,NA,NA,m,NA,NA,3,NA,NA,NA,NA,NA,NA,NA,NA,NA,NA,NA,NA,NA,NA,NA,NA,NA,NA,NA
3288c,"""Richtig""-Screen",canvas.Screen,3_0_3_0_6_0_1,NA,NA,skipped,NA,507999,NA,NA,507994.8,507999.3,2023-06-09T12:45:11Z,508012.312,NULL,Abrechnung,uhasibu,d,NA,NA,NA,NA,qt,NA,3,NA,NA,NA,NA,NA,NA,NA,NA,NA,NA,NA,NA,NA,NA,NA,NA,NA,NA,NA
3288c,"""Falsch""-Screen",canvas.Screen,3_0_3_0_6_0_2,NA,NA,timeout,5000.1,508000.6,507995.645,508012.312,512995.745,513000.2,2023-06-09T12:45:16Z,513012.412,NULL,Abrechnung,uhasibu,d,NA,NA,NA,NA,qt,0,3,NA,NA,NA,NA,NA,NA,NA,NA,NA,NA,NA,NA,NA,NA,NA,NA,NA,NA,NA
3288c,deep,flow.Sequence,3_0_3_0_6_0,NA,NA,completion,18318.001,494667.7,494661.077,494677.744,512995.745,513000.5,2023-06-09T12:45:16Z,513012.412,NULL,Abrechnung,uhasibu,d,NA,NA,NA,NA,qt,NA,3,NA,NA,NA,NA,NA,NA,NA,NA,NA,NA,NA,NA,NA,NA,NA,NA,NA,NA,NA
3288c,shallow,flow.Sequence,3_0_3_0_6_1,NA,NA,skipped,NA,513000.7,NA,NA,512995.745,513000.8,2023-06-09T12:45:16Z,513012.412,NULL,Abrechnung,uhasibu,d,NA,NA,NA,NA,qt,NA,3,NA,NA,NA,NA,NA,NA,NA,NA,NA,NA,NA,NA,NA,NA,NA,NA,NA,NA,NA
3288c,task,flow.Sequence,3_0_3_0_6,NA,NA,completion,18318.001,494667.6,494661.077,494677.744,512995.745,513001,2023-06-09T12:45:16Z,513012.412,NULL,Abrechnung,uhasibu,d,NA,NA,NA,NA,qt,NA,3,NA,NA,NA,NA,NA,NA,NA,NA,NA,NA,NA,NA,NA,NA,NA,NA,NA,NA,NA
3288c,Deep Question,html.Page,3_0_3_0_7_0_0,NA,NA,form submission,9931.588,513001.1,512995.745,513012.412,522944,522944.6,2023-06-09T12:45:26Z,522946.441,NULL,Kanzler,diwani,d,NA,NA,NA,dihamba,NA,NA,3,NA,NA,NA,NA,NA,NA,NA,NA,NA,NA,NA,NA,NA,NA,NA,NA,NA,NA,NA
3288c,"""Richtig""-Screen",canvas.Screen,3_0_3_0_7_0_1,NA,NA,skipped,NA,522948,NA,NA,522944,522948.1,2023-06-09T12:45:26Z,522946.441,NULL,Kanzler,diwani,d,NA,NA,NA,NA,qt,NA,3,NA,NA,NA,NA,NA,NA,NA,NA,NA,NA,NA,NA,NA,NA,NA,NA,NA,NA,NA
3288c,"""Falsch""-Screen",canvas.Screen,3_0_3_0_7_0_2,NA,NA,timeout,5000.1,522949.2,522929.774,522946.441,527929.874,527932.3,2023-06-09T12:45:31Z,527946.541,NULL,Kanzler,diwani,d,NA,NA,NA,NA,qt,0,3,NA,NA,NA,NA,NA,NA,NA,NA,NA,NA,NA,NA,NA,NA,NA,NA,NA,NA,NA
3288c,deep,flow.Sequence,3_0_3_0_7_0,NA,NA,completion,14917.462,513001.1,512995.745,513012.412,527929.874,527932.7,2023-06-09T12:45:31Z,527946.541,NULL,Kanzler,diwani,d,NA,NA,NA,NA,qt,NA,3,NA,NA,NA,NA,NA,NA,NA,NA,NA,NA,NA,NA,NA,NA,NA,NA,NA,NA,NA
3288c,shallow,flow.Sequence,3_0_3_0_7_1,NA,NA,skipped,NA,527932.7,NA,NA,527929.874,527932.8,2023-06-09T12:45:31Z,527946.541,NULL,Kanzler,diwani,d,NA,NA,NA,NA,qt,NA,3,NA,NA,NA,NA,NA,NA,NA,NA,NA,NA,NA,NA,NA,NA,NA,NA,NA,NA,NA
3288c,task,flow.Sequence,3_0_3_0_7,NA,NA,completion,14917.462,513001.1,512995.745,513012.412,527929.874,527933,2023-06-09T12:45:31Z,527946.541,NULL,Kanzler,diwani,d,NA,NA,NA,NA,qt,NA,3,NA,NA,NA,NA,NA,NA,NA,NA,NA,NA,NA,NA,NA,NA,NA,NA,NA,NA,NA
3288c,block,flow.Loop,3_0_3_0,NA,NA,completion,109673.619,418253.9,418239.588,418256.255,527929.874,527933.3,2023-06-09T12:45:31Z,527946.541,NULL,NA,NA,NA,NA,NA,NA,NA,qt,NA,3,NA,NA,NA,NA,NA,NA,NA,NA,NA,NA,NA,NA,NA,NA,NA,NA,NA,NA,NA
3288c,weiter,canvas.Screen,3_0_3_1,sdf,keypress(Space),response,809.65899999975,527933.4,527929.874,527946.541,528756.2,528763,2023-06-09T12:45:32Z,528813.72,NULL,NA,NA,NA,NA,NA,NA,NA,qt,NA,3,NA,NA,NA,NA,NA,NA,NA,NA,NA,NA,NA,NA,NA,NA,NA,NA,NA,NA,NA
3288c,check continue,flow.Sequence,3_0_3,NA,NA,completion,110499.945,418252.9,418239.588,418256.255,528756.2,528763.3,2023-06-09T12:45:32Z,528813.72,NULL,NA,NA,NA,NA,NA,NA,NA,qt,NA,3,NA,NA,NA,NA,NA,NA,NA,NA,NA,NA,NA,NA,NA,NA,NA,NA,NA,NA,NA
3288c,deep,flow.Sequence,3_0_4_0_0_0,NA,NA,skipped,NA,528799.9,NA,NA,528756.2,528800,2023-06-09T12:45:32Z,528813.72,NULL,Auftrag,uagizaji,s,ghanima,kuzingatia,msukani,NA,sd,NA,4,NA,NA,NA,NA,NA,NA,NA,NA,NA,NA,NA,NA,NA,NA,NA,NA,NA,NA,NA
3288c,Shallow Question,html.Page,3_0_4_0_0_1_0,NA,NA,form submission,3122.1799999999,528800.1,528797.053,528813.72,531935.9,531936.1,2023-06-09T12:45:35Z,531947.116,NULL,Auftrag,uagizaji,s,ghanima,kuzingatia,msukani,uagizaji,NA,NA,4,NA,NA,NA,NA,NA,NA,NA,NA,NA,NA,NA,NA,NA,NA,NA,NA,NA,NA,NA
3288c,"""Richtig""-Screen",canvas.Screen,3_0_4_0_0_1_1,NA,NA,timeout,5000.1,531939.2,531930.449,531947.116,536930.549,536934.6,2023-06-09T12:45:40Z,536947.216,NULL,Auftrag,uagizaji,s,ghanima,kuzingatia,msukani,NA,sd,1,4,NA,NA,NA,NA,NA,NA,NA,NA,NA,NA,NA,NA,NA,NA,NA,NA,NA,NA,NA
3288c,"""Falsch""-Screen",canvas.Screen,3_0_4_0_0_1_2,NA,NA,skipped,NA,536937.8,NA,NA,536930.549,536938,2023-06-09T12:45:40Z,536947.216,NULL,Auftrag,uagizaji,s,ghanima,kuzingatia,msukani,NA,sd,NA,4,NA,NA,NA,NA,NA,NA,NA,NA,NA,NA,NA,NA,NA,NA,NA,NA,NA,NA,NA
3288c,shallow,flow.Sequence,3_0_4_0_0_1,NA,NA,completion,8116.829,528800.1,528797.053,528813.72,536930.549,536938.2,2023-06-09T12:45:40Z,536947.216,NULL,Auftrag,uagizaji,s,ghanima,kuzingatia,msukani,NA,sd,NA,4,NA,NA,NA,NA,NA,NA,NA,NA,NA,NA,NA,NA,NA,NA,NA,NA,NA,NA,NA
3288c,task,flow.Sequence,3_0_4_0_0,NA,NA,completion,8116.829,528799.9,528797.053,528813.72,536930.549,536938.4,2023-06-09T12:45:40Z,536947.216,NULL,Auftrag,uagizaji,s,ghanima,kuzingatia,msukani,NA,sd,NA,4,NA,NA,NA,NA,NA,NA,NA,NA,NA,NA,NA,NA,NA,NA,NA,NA,NA,NA,NA
3288c,Deep Question,html.Page,3_0_4_0_1_0_0,NA,NA,form submission,6100.6839999999,536938.6,536930.549,536947.216,543047.9,543048.7,2023-06-09T12:45:46Z,543064.49,NULL,Kanzler,diwani,d,NA,NA,NA,diwani,NA,NA,4,NA,NA,NA,NA,NA,NA,NA,NA,NA,NA,NA,NA,NA,NA,NA,NA,NA,NA,NA
3288c,"""Richtig""-Screen",canvas.Screen,3_0_4_0_1_0_1,NA,NA,timeout,5000.1,543052.2,543047.823,543064.49,548047.923,548052,2023-06-09T12:45:51Z,548064.59,NULL,Kanzler,diwani,d,NA,NA,NA,NA,sd,1,4,NA,NA,NA,NA,NA,NA,NA,NA,NA,NA,NA,NA,NA,NA,NA,NA,NA,NA,NA
3288c,"""Falsch""-Screen",canvas.Screen,3_0_4_0_1_0_2,NA,NA,skipped,NA,548055.5,NA,NA,548047.923,548055.8,2023-06-09T12:45:51Z,548064.59,NULL,Kanzler,diwani,d,NA,NA,NA,NA,sd,NA,4,NA,NA,NA,NA,NA,NA,NA,NA,NA,NA,NA,NA,NA,NA,NA,NA,NA,NA,NA
3288c,deep,flow.Sequence,3_0_4_0_1_0,NA,NA,completion,11100.707,536938.6,536930.549,536947.216,548047.923,548056,2023-06-09T12:45:51Z,548064.59,NULL,Kanzler,diwani,d,NA,NA,NA,NA,sd,NA,4,NA,NA,NA,NA,NA,NA,NA,NA,NA,NA,NA,NA,NA,NA,NA,NA,NA,NA,NA
3288c,shallow,flow.Sequence,3_0_4_0_1_1,NA,NA,skipped,NA,548056.2,NA,NA,548047.923,548056.2,2023-06-09T12:45:51Z,548064.59,NULL,Kanzler,diwani,d,NA,NA,NA,NA,sd,NA,4,NA,NA,NA,NA,NA,NA,NA,NA,NA,NA,NA,NA,NA,NA,NA,NA,NA,NA,NA
3288c,task,flow.Sequence,3_0_4_0_1,NA,NA,completion,11100.707,536938.5,536930.549,536947.216,548047.923,548056.4,2023-06-09T12:45:51Z,548064.59,NULL,Kanzler,diwani,d,NA,NA,NA,NA,sd,NA,4,NA,NA,NA,NA,NA,NA,NA,NA,NA,NA,NA,NA,NA,NA,NA,NA,NA,NA,NA
3288c,deep,flow.Sequence,3_0_4_0_2_0,NA,NA,skipped,NA,548056.6,NA,NA,548047.923,548056.6,2023-06-09T12:45:51Z,548064.59,NULL,Wettbewerb,ushindani,s,mapendezi,kichocheo,ubaguzi,NA,sd,NA,4,NA,NA,NA,NA,NA,NA,NA,NA,NA,NA,NA,NA,NA,NA,NA,NA,NA,NA,NA
3288c,Shallow Question,html.Page,3_0_4_0_2_1_0,NA,NA,form submission,5689.7099999998,548056.8,548047.923,548064.59,553754.3,553754.7,2023-06-09T12:45:57Z,553765.286,NULL,Wettbewerb,ushindani,s,mapendezi,kichocheo,ubaguzi,ushindani,NA,NA,4,NA,NA,NA,NA,NA,NA,NA,NA,NA,NA,NA,NA,NA,NA,NA,NA,NA,NA,NA
3288c,"""Richtig""-Screen",canvas.Screen,3_0_4_0_2_1_1,NA,NA,timeout,5000.1000000001,553758.1,553748.619,553765.286,558748.719,558751.1,2023-06-09T12:46:02Z,558765.386,NULL,Wettbewerb,ushindani,s,mapendezi,kichocheo,ubaguzi,NA,sd,1,4,NA,NA,NA,NA,NA,NA,NA,NA,NA,NA,NA,NA,NA,NA,NA,NA,NA,NA,NA
3288c,"""Falsch""-Screen",canvas.Screen,3_0_4_0_2_1_2,NA,NA,skipped,NA,558754.6,NA,NA,558748.719,558754.8,2023-06-09T12:46:02Z,558765.386,NULL,Wettbewerb,ushindani,s,mapendezi,kichocheo,ubaguzi,NA,sd,NA,4,NA,NA,NA,NA,NA,NA,NA,NA,NA,NA,NA,NA,NA,NA,NA,NA,NA,NA,NA
3288c,shallow,flow.Sequence,3_0_4_0_2_1,NA,NA,completion,10684.129,548056.7,548047.923,548064.59,558748.719,558755,2023-06-09T12:46:02Z,558765.386,NULL,Wettbewerb,ushindani,s,mapendezi,kichocheo,ubaguzi,NA,sd,NA,4,NA,NA,NA,NA,NA,NA,NA,NA,NA,NA,NA,NA,NA,NA,NA,NA,NA,NA,NA
3288c,task,flow.Sequence,3_0_4_0_2,NA,NA,completion,10684.129,548056.5,548047.923,548064.59,558748.719,558755.2,2023-06-09T12:46:02Z,558765.386,NULL,Wettbewerb,ushindani,s,mapendezi,kichocheo,ubaguzi,NA,sd,NA,4,NA,NA,NA,NA,NA,NA,NA,NA,NA,NA,NA,NA,NA,NA,NA,NA,NA,NA,NA
3288c,deep,flow.Sequence,3_0_4_0_3_0,NA,NA,skipped,NA,558755.4,NA,NA,558748.719,558755.6,2023-06-09T12:46:02Z,558765.386,NULL,Sänger,mwimbaji,s,msichana,shughuli,mshirika,NA,sd,NA,4,NA,NA,NA,NA,NA,NA,NA,NA,NA,NA,NA,NA,NA,NA,NA,NA,NA,NA,NA
3288c,Shallow Question,html.Page,3_0_4_0_3_1_0,NA,NA,form submission,3025.4139999998,558755.7,558748.719,558765.386,561790.8,561791.2,2023-06-09T12:46:05Z,561799.257,NULL,Sänger,mwimbaji,s,msichana,shughuli,mshirika,mwimbaji,NA,NA,4,NA,NA,NA,NA,NA,NA,NA,NA,NA,NA,NA,NA,NA,NA,NA,NA,NA,NA,NA
3288c,"""Richtig""-Screen",canvas.Screen,3_0_4_0_3_1_1,NA,NA,timeout,5000.1,561794.7,561782.59,561799.257,566782.69,566785.3,2023-06-09T12:46:10Z,566799.357,NULL,Sänger,mwimbaji,s,msichana,shughuli,mshirika,NA,sd,1,4,NA,NA,NA,NA,NA,NA,NA,NA,NA,NA,NA,NA,NA,NA,NA,NA,NA,NA,NA
3288c,"""Falsch""-Screen",canvas.Screen,3_0_4_0_3_1_2,NA,NA,skipped,NA,566788.7,NA,NA,566782.69,566788.9,2023-06-09T12:46:10Z,566799.357,NULL,Sänger,mwimbaji,s,msichana,shughuli,mshirika,NA,sd,NA,4,NA,NA,NA,NA,NA,NA,NA,NA,NA,NA,NA,NA,NA,NA,NA,NA,NA,NA,NA
3288c,shallow,flow.Sequence,3_0_4_0_3_1,NA,NA,completion,8017.3039999999,558755.7,558748.719,558765.386,566782.69,566789.2,2023-06-09T12:46:10Z,566799.357,NULL,Sänger,mwimbaji,s,msichana,shughuli,mshirika,NA,sd,NA,4,NA,NA,NA,NA,NA,NA,NA,NA,NA,NA,NA,NA,NA,NA,NA,NA,NA,NA,NA
3288c,task,flow.Sequence,3_0_4_0_3,NA,NA,completion,8017.3039999999,558755.4,558748.719,558765.386,566782.69,566789.3,2023-06-09T12:46:10Z,566799.357,NULL,Sänger,mwimbaji,s,msichana,shughuli,mshirika,NA,sd,NA,4,NA,NA,NA,NA,NA,NA,NA,NA,NA,NA,NA,NA,NA,NA,NA,NA,NA,NA,NA
3288c,deep,flow.Sequence,3_0_4_0_4_0,NA,NA,skipped,NA,566789.5,NA,NA,566782.69,566789.6,2023-06-09T12:46:10Z,566799.357,NULL,Angreifer,mshambulizi,s,kitengo,tasinia,usafirishaji,NA,sd,NA,4,NA,NA,NA,NA,NA,NA,NA,NA,NA,NA,NA,NA,NA,NA,NA,NA,NA,NA,NA
3288c,Shallow Question,html.Page,3_0_4_0_4_1_0,NA,NA,form submission,4895.7430000001,566789.8,566782.69,566799.357,571695.1,571695.4,2023-06-09T12:46:15Z,571699.964,NULL,Angreifer,mshambulizi,s,kitengo,tasinia,usafirishaji,mshambulizi,NA,NA,4,NA,NA,NA,NA,NA,NA,NA,NA,NA,NA,NA,NA,NA,NA,NA,NA,NA,NA,NA
3288c,"""Richtig""-Screen",canvas.Screen,3_0_4_0_4_1_1,NA,NA,timeout,5000.1,571698.4,571683.297,571699.964,576683.397,576687.6,2023-06-09T12:46:20Z,576700.064,NULL,Angreifer,mshambulizi,s,kitengo,tasinia,usafirishaji,NA,sd,1,4,NA,NA,NA,NA,NA,NA,NA,NA,NA,NA,NA,NA,NA,NA,NA,NA,NA,NA,NA
3288c,"""Falsch""-Screen",canvas.Screen,3_0_4_0_4_1_2,NA,NA,skipped,NA,576691.1,NA,NA,576683.397,576691.4,2023-06-09T12:46:20Z,576700.064,NULL,Angreifer,mshambulizi,s,kitengo,tasinia,usafirishaji,NA,sd,NA,4,NA,NA,NA,NA,NA,NA,NA,NA,NA,NA,NA,NA,NA,NA,NA,NA,NA,NA,NA
3288c,shallow,flow.Sequence,3_0_4_0_4_1,NA,NA,completion,9884.04,566789.7,566782.69,566799.357,576683.397,576691.7,2023-06-09T12:46:20Z,576700.064,NULL,Angreifer,mshambulizi,s,kitengo,tasinia,usafirishaji,NA,sd,NA,4,NA,NA,NA,NA,NA,NA,NA,NA,NA,NA,NA,NA,NA,NA,NA,NA,NA,NA,NA
3288c,task,flow.Sequence,3_0_4_0_4,NA,NA,completion,9884.04,566789.5,566782.69,566799.357,576683.397,576691.8,2023-06-09T12:46:20Z,576700.064,NULL,Angreifer,mshambulizi,s,kitengo,tasinia,usafirishaji,NA,sd,NA,4,NA,NA,NA,NA,NA,NA,NA,NA,NA,NA,NA,NA,NA,NA,NA,NA,NA,NA,NA
3288c,Deep Question,html.Page,3_0_4_0_5_0_0,NA,NA,form submission,12233.436,576692,576683.397,576700.064,588933.5,588933.9,2023-06-09T12:46:32Z,588950.789,NULL,Abrechnung,uhasibu,d,NA,NA,NA,duhasi,NA,NA,4,NA,NA,NA,NA,NA,NA,NA,NA,NA,NA,NA,NA,NA,NA,NA,NA,NA,NA,NA
3288c,"""Richtig""-Screen",canvas.Screen,3_0_4_0_5_0_1,NA,NA,skipped,NA,588937.1,NA,NA,588933.5,588937.4,2023-06-09T12:46:32Z,588950.789,NULL,Abrechnung,uhasibu,d,NA,NA,NA,NA,sd,NA,4,NA,NA,NA,NA,NA,NA,NA,NA,NA,NA,NA,NA,NA,NA,NA,NA,NA,NA,NA
3288c,"""Falsch""-Screen",canvas.Screen,3_0_4_0_5_0_2,NA,NA,timeout,5000.1,588938.4,588934.122,588950.789,593934.222,593935.1,2023-06-09T12:46:37Z,593950.889,NULL,Abrechnung,uhasibu,d,NA,NA,NA,NA,sd,0,4,NA,NA,NA,NA,NA,NA,NA,NA,NA,NA,NA,NA,NA,NA,NA,NA,NA,NA,NA
3288c,deep,flow.Sequence,3_0_4_0_5_0,NA,NA,completion,17234.158,576691.9,576683.397,576700.064,593934.222,593935.4,2023-06-09T12:46:37Z,593950.889,NULL,Abrechnung,uhasibu,d,NA,NA,NA,NA,sd,NA,4,NA,NA,NA,NA,NA,NA,NA,NA,NA,NA,NA,NA,NA,NA,NA,NA,NA,NA,NA
3288c,shallow,flow.Sequence,3_0_4_0_5_1,NA,NA,skipped,NA,593935.5,NA,NA,593934.222,593935.6,2023-06-09T12:46:37Z,593950.889,NULL,Abrechnung,uhasibu,d,NA,NA,NA,NA,sd,NA,4,NA,NA,NA,NA,NA,NA,NA,NA,NA,NA,NA,NA,NA,NA,NA,NA,NA,NA,NA
3288c,task,flow.Sequence,3_0_4_0_5,NA,NA,completion,17234.158,576691.9,576683.397,576700.064,593934.222,593935.8,2023-06-09T12:46:37Z,593950.889,NULL,Abrechnung,uhasibu,d,NA,NA,NA,NA,sd,NA,4,NA,NA,NA,NA,NA,NA,NA,NA,NA,NA,NA,NA,NA,NA,NA,NA,NA,NA,NA
3288c,Deep Question,html.Page,3_0_4_0_6_0_0,NA,NA,form submission,7504.3109999998,593936,593934.222,593950.889,601455.2,601455.6,2023-06-09T12:46:44Z,601468.304,NULL,Zufall,kikuti,d,NA,NA,NA,ua,NA,NA,4,NA,NA,NA,NA,NA,NA,NA,NA,NA,NA,NA,NA,NA,NA,NA,NA,NA,NA,NA
3288c,"""Richtig""-Screen",canvas.Screen,3_0_4_0_6_0_1,NA,NA,skipped,NA,601459.3,NA,NA,601455.2,601459.6,2023-06-09T12:46:44Z,601468.304,NULL,Zufall,kikuti,d,NA,NA,NA,NA,sd,NA,4,NA,NA,NA,NA,NA,NA,NA,NA,NA,NA,NA,NA,NA,NA,NA,NA,NA,NA,NA
3288c,"""Falsch""-Screen",canvas.Screen,3_0_4_0_6_0_2,NA,NA,timeout,5000.1,601460.5,601451.637,601468.304,606451.737,606456,2023-06-09T12:46:49Z,606468.404,NULL,Zufall,kikuti,d,NA,NA,NA,NA,sd,0,4,NA,NA,NA,NA,NA,NA,NA,NA,NA,NA,NA,NA,NA,NA,NA,NA,NA,NA,NA
3288c,deep,flow.Sequence,3_0_4_0_6_0,NA,NA,completion,12500.848,593935.9,593934.222,593950.889,606451.737,606456.4,2023-06-09T12:46:49Z,606468.404,NULL,Zufall,kikuti,d,NA,NA,NA,NA,sd,NA,4,NA,NA,NA,NA,NA,NA,NA,NA,NA,NA,NA,NA,NA,NA,NA,NA,NA,NA,NA
3288c,shallow,flow.Sequence,3_0_4_0_6_1,NA,NA,skipped,NA,606456.4,NA,NA,606451.737,606456.7,2023-06-09T12:46:49Z,606468.404,NULL,Zufall,kikuti,d,NA,NA,NA,NA,sd,NA,4,NA,NA,NA,NA,NA,NA,NA,NA,NA,NA,NA,NA,NA,NA,NA,NA,NA,NA,NA
3288c,task,flow.Sequence,3_0_4_0_6,NA,NA,completion,12500.848,593935.9,593934.222,593950.889,606451.737,606456.8,2023-06-09T12:46:49Z,606468.404,NULL,Zufall,kikuti,d,NA,NA,NA,NA,sd,NA,4,NA,NA,NA,NA,NA,NA,NA,NA,NA,NA,NA,NA,NA,NA,NA,NA,NA,NA,NA
3288c,Deep Question,html.Page,3_0_4_0_7_0_0,NA,NA,form submission,3742.1960000001,606457,606451.737,606468.404,610210.6,610211.2,2023-06-09T12:46:53Z,610219.073,NULL,Schönheit,kirembo,d,NA,NA,NA,kirembo,NA,NA,4,NA,NA,NA,NA,NA,NA,NA,NA,NA,NA,NA,NA,NA,NA,NA,NA,NA,NA,NA
3288c,"""Richtig""-Screen",canvas.Screen,3_0_4_0_7_0_1,NA,NA,timeout,5000.1,610214.7,610202.406,610219.073,615202.506,615204.6,2023-06-09T12:46:58Z,615219.173,NULL,Schönheit,kirembo,d,NA,NA,NA,NA,sd,1,4,NA,NA,NA,NA,NA,NA,NA,NA,NA,NA,NA,NA,NA,NA,NA,NA,NA,NA,NA
3288c,"""Falsch""-Screen",canvas.Screen,3_0_4_0_7_0_2,NA,NA,skipped,NA,615208.1,NA,NA,615202.506,615208.3,2023-06-09T12:46:58Z,615219.173,NULL,Schönheit,kirembo,d,NA,NA,NA,NA,sd,NA,4,NA,NA,NA,NA,NA,NA,NA,NA,NA,NA,NA,NA,NA,NA,NA,NA,NA,NA,NA
3288c,deep,flow.Sequence,3_0_4_0_7_0,NA,NA,completion,8734.1020000001,606456.9,606451.737,606468.404,615202.506,615208.6,2023-06-09T12:46:58Z,615219.173,NULL,Schönheit,kirembo,d,NA,NA,NA,NA,sd,NA,4,NA,NA,NA,NA,NA,NA,NA,NA,NA,NA,NA,NA,NA,NA,NA,NA,NA,NA,NA
3288c,shallow,flow.Sequence,3_0_4_0_7_1,NA,NA,skipped,NA,615208.6,NA,NA,615202.506,615208.8,2023-06-09T12:46:58Z,615219.173,NULL,Schönheit,kirembo,d,NA,NA,NA,NA,sd,NA,4,NA,NA,NA,NA,NA,NA,NA,NA,NA,NA,NA,NA,NA,NA,NA,NA,NA,NA,NA
3288c,task,flow.Sequence,3_0_4_0_7,NA,NA,completion,8734.1020000001,606456.9,606451.737,606468.404,615202.506,615209,2023-06-09T12:46:58Z,615219.173,NULL,Schönheit,kirembo,d,NA,NA,NA,NA,sd,NA,4,NA,NA,NA,NA,NA,NA,NA,NA,NA,NA,NA,NA,NA,NA,NA,NA,NA,NA,NA
3288c,block,flow.Loop,3_0_4_0,NA,NA,completion,86388.786,528799.9,528797.053,528813.72,615202.506,615209.1,2023-06-09T12:46:58Z,615219.173,NULL,NA,NA,NA,NA,NA,NA,NA,sd,NA,4,NA,NA,NA,NA,NA,NA,NA,NA,NA,NA,NA,NA,NA,NA,NA,NA,NA,NA,NA
3288c,weiter,canvas.Screen,3_0_4_1,sdf,keypress(Space),response,3715.827,615209.3,615202.506,615219.173,618935,618942.1,2023-06-09T12:47:02Z,619502.592,NULL,NA,NA,NA,NA,NA,NA,NA,sd,NA,4,NA,NA,NA,NA,NA,NA,NA,NA,NA,NA,NA,NA,NA,NA,NA,NA,NA,NA,NA
3288c,check continue,flow.Sequence,3_0_4,NA,NA,completion,90121.28,528799.9,528797.053,528813.72,618935,618942.4,2023-06-09T12:47:02Z,619502.592,NULL,NA,NA,NA,NA,NA,NA,NA,sd,NA,4,NA,NA,NA,NA,NA,NA,NA,NA,NA,NA,NA,NA,NA,NA,NA,NA,NA,NA,NA
3288c,check continue,flow.Sequence,3_0_5,NA,NA,skipped,NA,618972.3,NA,NA,618935,618972.4,2023-06-09T12:47:02Z,619502.592,NULL,NA,NA,NA,NA,NA,NA,NA,sdf,NA,5,NA,NA,NA,NA,NA,NA,NA,NA,NA,NA,NA,NA,NA,NA,NA,NA,NA,NA,NA
3288c,check continue,flow.Sequence,3_0_6,NA,NA,skipped,NA,618995.2,NA,NA,618935,618995.3,2023-06-09T12:47:02Z,619502.592,NULL,NA,NA,NA,NA,NA,NA,NA,dfs,NA,6,NA,NA,NA,NA,NA,NA,NA,NA,NA,NA,NA,NA,NA,NA,NA,NA,NA,NA,NA
3288c,check continue,flow.Sequence,3_0_7,NA,NA,skipped,NA,619017.2,NA,NA,618935,619017.3,2023-06-09T12:47:02Z,619502.592,NULL,NA,NA,NA,NA,NA,NA,NA,df,NA,7,NA,NA,NA,NA,NA,NA,NA,NA,NA,NA,NA,NA,NA,NA,NA,NA,NA,NA,NA
3288c,check continue,flow.Sequence,3_0_8,NA,NA,skipped,NA,619036.9,NA,NA,618935,619037,2023-06-09T12:47:02Z,619502.592,NULL,NA,NA,NA,NA,NA,NA,NA,dfs,NA,8,NA,NA,NA,NA,NA,NA,NA,NA,NA,NA,NA,NA,NA,NA,NA,NA,NA,NA,NA
3288c,check continue,flow.Sequence,3_0_9,NA,NA,skipped,NA,619057,NA,NA,618935,619057.2,2023-06-09T12:47:02Z,619502.592,NULL,NA,NA,NA,NA,NA,NA,NA,dsf,NA,9,NA,NA,NA,NA,NA,NA,NA,NA,NA,NA,NA,NA,NA,NA,NA,NA,NA,NA,NA
3288c,check continue,flow.Sequence,3_0_10,NA,NA,skipped,NA,619075.9,NA,NA,618935,619076,2023-06-09T12:47:02Z,619502.592,NULL,NA,NA,NA,NA,NA,NA,NA,df,NA,10,NA,NA,NA,NA,NA,NA,NA,NA,NA,NA,NA,NA,NA,NA,NA,NA,NA,NA,NA
3288c,check continue,flow.Sequence,3_0_11,NA,NA,skipped,NA,619096.4,NA,NA,618935,619096.5,2023-06-09T12:47:02Z,619502.592,NULL,NA,NA,NA,NA,NA,NA,NA,dfs,NA,11,NA,NA,NA,NA,NA,NA,NA,NA,NA,NA,NA,NA,NA,NA,NA,NA,NA,NA,NA
3288c,check continue,flow.Sequence,3_0_12,NA,NA,skipped,NA,619117,NA,NA,618935,619117.1,2023-06-09T12:47:02Z,619502.592,NULL,NA,NA,NA,NA,NA,NA,NA,dsf,NA,12,NA,NA,NA,NA,NA,NA,NA,NA,NA,NA,NA,NA,NA,NA,NA,NA,NA,NA,NA
3288c,check continue,flow.Sequence,3_0_13,NA,NA,skipped,NA,619134.9,NA,NA,618935,619135.1,2023-06-09T12:47:02Z,619502.592,NULL,NA,NA,NA,NA,NA,NA,NA,dsf,NA,13,NA,NA,NA,NA,NA,NA,NA,NA,NA,NA,NA,NA,NA,NA,NA,NA,NA,NA,NA
3288c,check continue,flow.Sequence,3_0_14,NA,NA,skipped,NA,619152.7,NA,NA,618935,619152.9,2023-06-09T12:47:02Z,619502.592,NULL,NA,NA,NA,NA,NA,NA,NA,NA,NA,14,NA,NA,NA,NA,NA,NA,NA,NA,NA,NA,NA,NA,NA,NA,NA,NA,NA,NA,NA
3288c,check continue,flow.Sequence,3_0_15,NA,NA,skipped,NA,619170.3,NA,NA,618935,619170.3,2023-06-09T12:47:02Z,619502.592,NULL,NA,NA,NA,NA,NA,NA,NA,NA,NA,15,NA,NA,NA,NA,NA,NA,NA,NA,NA,NA,NA,NA,NA,NA,NA,NA,NA,NA,NA
3288c,check continue,flow.Sequence,3_0_16,NA,NA,skipped,NA,619188,NA,NA,618935,619188,2023-06-09T12:47:02Z,619502.592,NULL,NA,NA,NA,NA,NA,NA,NA,NA,NA,16,NA,NA,NA,NA,NA,NA,NA,NA,NA,NA,NA,NA,NA,NA,NA,NA,NA,NA,NA
3288c,check continue,flow.Sequence,3_0_17,NA,NA,skipped,NA,619207.1,NA,NA,618935,619207.3,2023-06-09T12:47:02Z,619502.592,NULL,NA,NA,NA,NA,NA,NA,NA,NA,NA,17,NA,NA,NA,NA,NA,NA,NA,NA,NA,NA,NA,NA,NA,NA,NA,NA,NA,NA,NA
3288c,check continue,flow.Sequence,3_0_18,NA,NA,skipped,NA,619226.8,NA,NA,618935,619226.9,2023-06-09T12:47:02Z,619502.592,NULL,NA,NA,NA,NA,NA,NA,NA,NA,NA,18,NA,NA,NA,NA,NA,NA,NA,NA,NA,NA,NA,NA,NA,NA,NA,NA,NA,NA,NA
3288c,check continue,flow.Sequence,3_0_19,NA,NA,skipped,NA,619246.1,NA,NA,618935,619246.3,2023-06-09T12:47:02Z,619502.592,NULL,NA,NA,NA,NA,NA,NA,NA,NA,NA,19,NA,NA,NA,NA,NA,NA,NA,NA,NA,NA,NA,NA,NA,NA,NA,NA,NA,NA,NA
3288c,check continue,flow.Sequence,3_0_20,NA,NA,skipped,NA,619265.7,NA,NA,618935,619265.9,2023-06-09T12:47:02Z,619502.592,NULL,NA,NA,NA,NA,NA,NA,NA,NA,NA,20,NA,NA,NA,NA,NA,NA,NA,NA,NA,NA,NA,NA,NA,NA,NA,NA,NA,NA,NA
3288c,check continue,flow.Sequence,3_0_21,NA,NA,skipped,NA,619285.1,NA,NA,618935,619285.3,2023-06-09T12:47:02Z,619502.592,NULL,NA,NA,NA,NA,NA,NA,NA,NA,NA,21,NA,NA,NA,NA,NA,NA,NA,NA,NA,NA,NA,NA,NA,NA,NA,NA,NA,NA,NA
3288c,check continue,flow.Sequence,3_0_22,NA,NA,skipped,NA,619304.4,NA,NA,618935,619304.5,2023-06-09T12:47:02Z,619502.592,NULL,NA,NA,NA,NA,NA,NA,NA,NA,NA,22,NA,NA,NA,NA,NA,NA,NA,NA,NA,NA,NA,NA,NA,NA,NA,NA,NA,NA,NA
3288c,check continue,flow.Sequence,3_0_23,NA,NA,skipped,NA,619321.2,NA,NA,618935,619321.3,2023-06-09T12:47:02Z,619502.592,NULL,NA,NA,NA,NA,NA,NA,NA,NA,NA,23,NA,NA,NA,NA,NA,NA,NA,NA,NA,NA,NA,NA,NA,NA,NA,NA,NA,NA,NA
3288c,check continue,flow.Sequence,3_0_24,NA,NA,skipped,NA,619354.8,NA,NA,618935,619354.9,2023-06-09T12:47:02Z,619502.592,NULL,NA,NA,NA,NA,NA,NA,NA,NA,NA,24,NA,NA,NA,NA,NA,NA,NA,NA,NA,NA,NA,NA,NA,NA,NA,NA,NA,NA,NA
3288c,check continue,flow.Sequence,3_0_25,NA,NA,skipped,NA,619377.3,NA,NA,618935,619377.4,2023-06-09T12:47:02Z,619502.592,NULL,NA,NA,NA,NA,NA,NA,NA,NA,NA,25,NA,NA,NA,NA,NA,NA,NA,NA,NA,NA,NA,NA,NA,NA,NA,NA,NA,NA,NA
3288c,check continue,flow.Sequence,3_0_26,NA,NA,skipped,NA,619399.8,NA,NA,618935,619400,2023-06-09T12:47:02Z,619502.592,NULL,NA,NA,NA,NA,NA,NA,NA,NA,NA,26,NA,NA,NA,NA,NA,NA,NA,NA,NA,NA,NA,NA,NA,NA,NA,NA,NA,NA,NA
3288c,check continue,flow.Sequence,3_0_27,NA,NA,skipped,NA,619417.9,NA,NA,618935,619418,2023-06-09T12:47:02Z,619502.592,NULL,NA,NA,NA,NA,NA,NA,NA,NA,NA,27,NA,NA,NA,NA,NA,NA,NA,NA,NA,NA,NA,NA,NA,NA,NA,NA,NA,NA,NA
3288c,check continue,flow.Sequence,3_0_28,NA,NA,skipped,NA,619466.4,NA,NA,618935,619466.5,2023-06-09T12:47:02Z,619502.592,NULL,NA,NA,NA,NA,NA,NA,NA,NA,NA,28,NA,NA,NA,NA,NA,NA,NA,NA,NA,NA,NA,NA,NA,NA,NA,NA,NA,NA,NA
3288c,check continue,flow.Sequence,3_0_29,NA,NA,skipped,NA,619485.5,NA,NA,618935,619485.6,2023-06-09T12:47:02Z,619502.592,NULL,NA,NA,NA,NA,NA,NA,NA,NA,NA,29,NA,NA,NA,NA,NA,NA,NA,NA,NA,NA,NA,NA,NA,NA,NA,NA,NA,NA,NA
3288c,until continue,flow.Loop,3_0,NA,NA,completion,464849.519,154025.6,154068.814,154085.481,618935,619485.7,2023-06-09T12:47:02Z,619502.592,NULL,NA,NA,NA,NA,NA,NA,NA,NA,NA,NA,NA,NA,NA,NA,NA,NA,NA,NA,NA,NA,NA,NA,NA,NA,NA,NA,NA,NA,NA
3288c,block 1,flow.Sequence,3,NA,NA,completion,464849.519,154025.6,154068.814,154085.481,618935,619485.8,2023-06-09T12:47:02Z,619502.592,NULL,NA,NA,NA,NA,NA,NA,NA,NA,NA,NA,NA,NA,NA,NA,NA,NA,NA,NA,NA,NA,NA,NA,NA,NA,NA,NA,NA,NA,NA
3288c,1.Part Over,canvas.Screen,4,NA,keypress(Space),response,1373.9080000001,619485.8,619485.925,619502.592,620876.5,620880.7,2023-06-09T12:47:04Z,620953.24,NULL,NA,NA,NA,NA,NA,NA,NA,NA,NA,NA,NA,NA,NA,NA,NA,NA,NA,NA,NA,NA,NA,NA,NA,NA,NA,NA,NA,NA,NA
3288c,Deep Question,html.Page,5_0_0_0_0_0_0,NA,NA,form submission,1603.0599999998,620947.1,620936.573,620953.24,622556.3,622556.8,2023-06-09T12:47:05Z,622569.939,NULL,Verstand,ufahamivu,d,NA,NA,NA,m,NA,NA,0,NA,NA,NA,NA,NA,NA,NA,NA,NA,NA,NA,NA,NA,NA,NA,NA,NA,NA,NA
3288c,"""Richtig""-Screen",canvas.Screen,5_0_0_0_0_0_1,NA,NA,skipped,NA,622558,NA,NA,622556.3,622558.2,2023-06-09T12:47:05Z,622569.939,NULL,Verstand,ufahamivu,d,NA,NA,NA,NA,sdf,NA,0,NA,NA,NA,NA,NA,NA,NA,NA,NA,NA,NA,NA,NA,NA,NA,NA,NA,NA,NA
3288c,"""Falsch""-Screen",canvas.Screen,5_0_0_0_0_0_2,NA,NA,timeout,5000.1,622559.4,622553.272,622569.939,627553.372,627557.5,2023-06-09T12:47:10Z,627570.039,NULL,Verstand,ufahamivu,d,NA,NA,NA,NA,sdf,0,0,NA,NA,NA,NA,NA,NA,NA,NA,NA,NA,NA,NA,NA,NA,NA,NA,NA,NA,NA
3288c,deep,flow.Sequence,5_0_0_0_0_0,NA,NA,completion,6600.132,620947.1,620936.573,620953.24,627553.372,627557.8,2023-06-09T12:47:10Z,627570.039,NULL,Verstand,ufahamivu,d,NA,NA,NA,NA,sdf,NA,0,NA,NA,NA,NA,NA,NA,NA,NA,NA,NA,NA,NA,NA,NA,NA,NA,NA,NA,NA
3288c,shallow,flow.Sequence,5_0_0_0_0_1,NA,NA,skipped,NA,627557.9,NA,NA,627553.372,627558,2023-06-09T12:47:10Z,627570.039,NULL,Verstand,ufahamivu,d,NA,NA,NA,NA,sdf,NA,0,NA,NA,NA,NA,NA,NA,NA,NA,NA,NA,NA,NA,NA,NA,NA,NA,NA,NA,NA
3288c,task,flow.Sequence,5_0_0_0_0,NA,NA,completion,6600.132,620947,620936.573,620953.24,627553.372,627558.1,2023-06-09T12:47:10Z,627570.039,NULL,Verstand,ufahamivu,d,NA,NA,NA,NA,sdf,NA,0,NA,NA,NA,NA,NA,NA,NA,NA,NA,NA,NA,NA,NA,NA,NA,NA,NA,NA,NA
3288c,Deep Question,html.Page,5_0_0_0_1_0_0,NA,NA,form submission,4610.8609999999,627558.3,627553.372,627570.039,632180.9,632181.5,2023-06-09T12:47:15Z,632187.351,NULL,Widerstand,usulubu,d,NA,NA,NA,m,NA,NA,0,NA,NA,NA,NA,NA,NA,NA,NA,NA,NA,NA,NA,NA,NA,NA,NA,NA,NA,NA
3288c,"""Richtig""-Screen",canvas.Screen,5_0_0_0_1_0_1,NA,NA,skipped,NA,632184.8,NA,NA,632180.9,632185,2023-06-09T12:47:15Z,632187.351,NULL,Widerstand,usulubu,d,NA,NA,NA,NA,sdf,NA,0,NA,NA,NA,NA,NA,NA,NA,NA,NA,NA,NA,NA,NA,NA,NA,NA,NA,NA,NA
3288c,"""Falsch""-Screen",canvas.Screen,5_0_0_0_1_0_2,NA,NA,timeout,5000.1,632185.9,632170.684,632187.351,637170.784,637175.1,2023-06-09T12:47:20Z,637187.451,NULL,Widerstand,usulubu,d,NA,NA,NA,NA,sdf,0,0,NA,NA,NA,NA,NA,NA,NA,NA,NA,NA,NA,NA,NA,NA,NA,NA,NA,NA,NA
3288c,deep,flow.Sequence,5_0_0_0_1_0,NA,NA,completion,9600.745,627558.2,627553.372,627570.039,637170.784,637175.5,2023-06-09T12:47:20Z,637187.451,NULL,Widerstand,usulubu,d,NA,NA,NA,NA,sdf,NA,0,NA,NA,NA,NA,NA,NA,NA,NA,NA,NA,NA,NA,NA,NA,NA,NA,NA,NA,NA
3288c,shallow,flow.Sequence,5_0_0_0_1_1,NA,NA,skipped,NA,637175.7,NA,NA,637170.784,637175.8,2023-06-09T12:47:20Z,637187.451,NULL,Widerstand,usulubu,d,NA,NA,NA,NA,sdf,NA,0,NA,NA,NA,NA,NA,NA,NA,NA,NA,NA,NA,NA,NA,NA,NA,NA,NA,NA,NA
3288c,task,flow.Sequence,5_0_0_0_1,NA,NA,completion,9600.745,627558.2,627553.372,627570.039,637170.784,637176,2023-06-09T12:47:20Z,637187.451,NULL,Widerstand,usulubu,d,NA,NA,NA,NA,sdf,NA,0,NA,NA,NA,NA,NA,NA,NA,NA,NA,NA,NA,NA,NA,NA,NA,NA,NA,NA,NA
3288c,deep,flow.Sequence,5_0_0_0_2_0,NA,NA,skipped,NA,637176.1,NA,NA,637170.784,637176.3,2023-06-09T12:47:20Z,637187.451,NULL,Ausschluss,kutengwa,s,ununuzi,taratibu,madeni,NA,sdf,NA,0,NA,NA,NA,NA,NA,NA,NA,NA,NA,NA,NA,NA,NA,NA,NA,NA,NA,NA,NA
3288c,Shallow Question,html.Page,5_0_0_0_2_1_0,NA,NA,form submission,2663.8489999998,637176.3,637170.784,637187.451,639851.3,639851.8,2023-06-09T12:47:23Z,639854.171,NULL,Ausschluss,kutengwa,s,ununuzi,taratibu,madeni,ununuzi,NA,NA,0,NA,NA,NA,NA,NA,NA,NA,NA,NA,NA,NA,NA,NA,NA,NA,NA,NA,NA,NA
3288c,"""Richtig""-Screen",canvas.Screen,5_0_0_0_2_1_1,NA,NA,skipped,NA,639855.1,NA,NA,639851.3,639855.3,2023-06-09T12:47:23Z,639854.171,NULL,Ausschluss,kutengwa,s,ununuzi,taratibu,madeni,NA,sdf,NA,0,NA,NA,NA,NA,NA,NA,NA,NA,NA,NA,NA,NA,NA,NA,NA,NA,NA,NA,NA
3288c,"""Falsch""-Screen",canvas.Screen,5_0_0_0_2_1_2,NA,NA,timeout,5000.1,639856.7,639837.504,639854.171,644837.604,644839,2023-06-09T12:47:28Z,644854.271,NULL,Ausschluss,kutengwa,s,ununuzi,taratibu,madeni,NA,sdf,0,0,NA,NA,NA,NA,NA,NA,NA,NA,NA,NA,NA,NA,NA,NA,NA,NA,NA,NA,NA
3288c,shallow,flow.Sequence,5_0_0_0_2_1,NA,NA,completion,7650.153,637176.3,637170.784,637187.451,644837.604,644839.2,2023-06-09T12:47:28Z,644854.271,NULL,Ausschluss,kutengwa,s,ununuzi,taratibu,madeni,NA,sdf,NA,0,NA,NA,NA,NA,NA,NA,NA,NA,NA,NA,NA,NA,NA,NA,NA,NA,NA,NA,NA
3288c,task,flow.Sequence,5_0_0_0_2,NA,NA,completion,7650.153,637176.1,637170.784,637187.451,644837.604,644839.5,2023-06-09T12:47:28Z,644854.271,NULL,Ausschluss,kutengwa,s,ununuzi,taratibu,madeni,NA,sdf,NA,0,NA,NA,NA,NA,NA,NA,NA,NA,NA,NA,NA,NA,NA,NA,NA,NA,NA,NA,NA
3288c,Deep Question,html.Page,5_0_0_0_3_0_0,NA,NA,form submission,2377.3290000001,644839.6,644837.604,644854.271,647231.6,647232.2,2023-06-09T12:47:30Z,647238.302,NULL,Gefährdung,kuhatarisha,d,NA,NA,NA,m,NA,NA,0,NA,NA,NA,NA,NA,NA,NA,NA,NA,NA,NA,NA,NA,NA,NA,NA,NA,NA,NA
3288c,"""Richtig""-Screen",canvas.Screen,5_0_0_0_3_0_1,NA,NA,skipped,NA,647235.5,NA,NA,647231.6,647235.8,2023-06-09T12:47:30Z,647238.302,NULL,Gefährdung,kuhatarisha,d,NA,NA,NA,NA,sdf,NA,0,NA,NA,NA,NA,NA,NA,NA,NA,NA,NA,NA,NA,NA,NA,NA,NA,NA,NA,NA
3288c,"""Falsch""-Screen",canvas.Screen,5_0_0_0_3_0_2,NA,NA,timeout,5000.1,647237,647221.635,647238.302,652221.735,652222.9,2023-06-09T12:47:35Z,652238.402,NULL,Gefährdung,kuhatarisha,d,NA,NA,NA,NA,sdf,0,0,NA,NA,NA,NA,NA,NA,NA,NA,NA,NA,NA,NA,NA,NA,NA,NA,NA,NA,NA
3288c,deep,flow.Sequence,5_0_0_0_3_0,NA,NA,completion,7367.464,644839.6,644837.604,644854.271,652221.735,652223.2,2023-06-09T12:47:35Z,652238.402,NULL,Gefährdung,kuhatarisha,d,NA,NA,NA,NA,sdf,NA,0,NA,NA,NA,NA,NA,NA,NA,NA,NA,NA,NA,NA,NA,NA,NA,NA,NA,NA,NA
3288c,shallow,flow.Sequence,5_0_0_0_3_1,NA,NA,skipped,NA,652223.3,NA,NA,652221.735,652223.4,2023-06-09T12:47:35Z,652238.402,NULL,Gefährdung,kuhatarisha,d,NA,NA,NA,NA,sdf,NA,0,NA,NA,NA,NA,NA,NA,NA,NA,NA,NA,NA,NA,NA,NA,NA,NA,NA,NA,NA
3288c,task,flow.Sequence,5_0_0_0_3,NA,NA,completion,7367.464,644839.6,644837.604,644854.271,652221.735,652223.6,2023-06-09T12:47:35Z,652238.402,NULL,Gefährdung,kuhatarisha,d,NA,NA,NA,NA,sdf,NA,0,NA,NA,NA,NA,NA,NA,NA,NA,NA,NA,NA,NA,NA,NA,NA,NA,NA,NA,NA
3288c,deep,flow.Sequence,5_0_0_0_4_0,NA,NA,skipped,NA,652223.8,NA,NA,652221.735,652223.9,2023-06-09T12:47:35Z,652238.402,NULL,Kreativität,ubunifu,s,mratibu,mwendelezo,makubaliano,NA,sdf,NA,0,NA,NA,NA,NA,NA,NA,NA,NA,NA,NA,NA,NA,NA,NA,NA,NA,NA,NA,NA
3288c,Shallow Question,html.Page,5_0_0_0_4_1_0,NA,NA,form submission,2263.098,652224,652221.735,652238.402,654501.5,654501.8,2023-06-09T12:47:37Z,654505.114,NULL,Kreativität,ubunifu,s,mratibu,mwendelezo,makubaliano,ubunifu,NA,NA,0,NA,NA,NA,NA,NA,NA,NA,NA,NA,NA,NA,NA,NA,NA,NA,NA,NA,NA,NA
3288c,"""Richtig""-Screen",canvas.Screen,5_0_0_0_4_1_1,NA,NA,timeout,5000.1000000001,654505.2,654488.447,654505.114,659488.547,659490.9,2023-06-09T12:47:42Z,659505.214,NULL,Kreativität,ubunifu,s,mratibu,mwendelezo,makubaliano,NA,sdf,1,0,NA,NA,NA,NA,NA,NA,NA,NA,NA,NA,NA,NA,NA,NA,NA,NA,NA,NA,NA
3288c,"""Falsch""-Screen",canvas.Screen,5_0_0_0_4_1_2,NA,NA,skipped,NA,659494.6,NA,NA,659488.547,659494.9,2023-06-09T12:47:42Z,659505.214,NULL,Kreativität,ubunifu,s,mratibu,mwendelezo,makubaliano,NA,sdf,NA,0,NA,NA,NA,NA,NA,NA,NA,NA,NA,NA,NA,NA,NA,NA,NA,NA,NA,NA,NA
3288c,shallow,flow.Sequence,5_0_0_0_4_1,NA,NA,completion,7250.145,652224,652221.735,652238.402,659488.547,659495.1,2023-06-09T12:47:42Z,659505.214,NULL,Kreativität,ubunifu,s,mratibu,mwendelezo,makubaliano,NA,sdf,NA,0,NA,NA,NA,NA,NA,NA,NA,NA,NA,NA,NA,NA,NA,NA,NA,NA,NA,NA,NA
3288c,task,flow.Sequence,5_0_0_0_4,NA,NA,completion,7250.145,652223.7,652221.735,652238.402,659488.547,659495.3,2023-06-09T12:47:42Z,659505.214,NULL,Kreativität,ubunifu,s,mratibu,mwendelezo,makubaliano,NA,sdf,NA,0,NA,NA,NA,NA,NA,NA,NA,NA,NA,NA,NA,NA,NA,NA,NA,NA,NA,NA,NA
3288c,Deep Question,html.Page,5_0_0_0_5_0_0,NA,NA,form submission,3187.4859999997,659495.5,659488.547,659505.214,662692.7,662693.5,2023-06-09T12:47:46Z,662705.973,NULL,Kontrolle,kudhibiti,d,NA,NA,NA,m,NA,NA,0,NA,NA,NA,NA,NA,NA,NA,NA,NA,NA,NA,NA,NA,NA,NA,NA,NA,NA,NA
3288c,"""Richtig""-Screen",canvas.Screen,5_0_0_0_5_0_1,NA,NA,skipped,NA,662696.6,NA,NA,662692.7,662696.8,2023-06-09T12:47:46Z,662705.973,NULL,Kontrolle,kudhibiti,d,NA,NA,NA,NA,sdf,NA,0,NA,NA,NA,NA,NA,NA,NA,NA,NA,NA,NA,NA,NA,NA,NA,NA,NA,NA,NA
3288c,"""Falsch""-Screen",canvas.Screen,5_0_0_0_5_0_2,NA,NA,timeout,5000.1,662697.8,662689.306,662705.973,667689.406,667693.3,2023-06-09T12:47:51Z,667706.073,NULL,Kontrolle,kudhibiti,d,NA,NA,NA,NA,sdf,0,0,NA,NA,NA,NA,NA,NA,NA,NA,NA,NA,NA,NA,NA,NA,NA,NA,NA,NA,NA
3288c,deep,flow.Sequence,5_0_0_0_5_0,NA,NA,completion,8184.1919999999,659495.5,659488.547,659505.214,667689.406,667694.1,2023-06-09T12:47:51Z,667706.073,NULL,Kontrolle,kudhibiti,d,NA,NA,NA,NA,sdf,NA,0,NA,NA,NA,NA,NA,NA,NA,NA,NA,NA,NA,NA,NA,NA,NA,NA,NA,NA,NA
3288c,shallow,flow.Sequence,5_0_0_0_5_1,NA,NA,skipped,NA,667694.2,NA,NA,667689.406,667694.4,2023-06-09T12:47:51Z,667706.073,NULL,Kontrolle,kudhibiti,d,NA,NA,NA,NA,sdf,NA,0,NA,NA,NA,NA,NA,NA,NA,NA,NA,NA,NA,NA,NA,NA,NA,NA,NA,NA,NA
3288c,task,flow.Sequence,5_0_0_0_5,NA,NA,completion,8184.1919999999,659495.4,659488.547,659505.214,667689.406,667694.6,2023-06-09T12:47:51Z,667706.073,NULL,Kontrolle,kudhibiti,d,NA,NA,NA,NA,sdf,NA,0,NA,NA,NA,NA,NA,NA,NA,NA,NA,NA,NA,NA,NA,NA,NA,NA,NA,NA,NA
3288c,deep,flow.Sequence,5_0_0_0_6_0,NA,NA,skipped,NA,667694.8,NA,NA,667689.406,667694.9,2023-06-09T12:47:51Z,667706.073,NULL,Können,unaweza,s,kiongozi,bustani,mienendo,NA,sdf,NA,0,NA,NA,NA,NA,NA,NA,NA,NA,NA,NA,NA,NA,NA,NA,NA,NA,NA,NA,NA
3288c,Shallow Question,html.Page,5_0_0_0_6_1_0,NA,NA,form submission,4815.6269999997,667695.6,667689.406,667706.073,672521.7,672522,2023-06-09T12:47:55Z,672523.34,NULL,Können,unaweza,s,kiongozi,bustani,mienendo,bustani,NA,NA,0,NA,NA,NA,NA,NA,NA,NA,NA,NA,NA,NA,NA,NA,NA,NA,NA,NA,NA,NA
3288c,"""Richtig""-Screen",canvas.Screen,5_0_0_0_6_1_1,NA,NA,skipped,NA,672525.3,NA,NA,672521.7,672525.5,2023-06-09T12:47:55Z,672523.34,NULL,Können,unaweza,s,kiongozi,bustani,mienendo,NA,sdf,NA,0,NA,NA,NA,NA,NA,NA,NA,NA,NA,NA,NA,NA,NA,NA,NA,NA,NA,NA,NA
3288c,"""Falsch""-Screen",canvas.Screen,5_0_0_0_6_1_2,NA,NA,timeout,5000.1,672526.5,672506.673,672523.34,677506.773,677509.6,2023-06-09T12:48:00Z,677523.44,NULL,Können,unaweza,s,kiongozi,bustani,mienendo,NA,sdf,0,0,NA,NA,NA,NA,NA,NA,NA,NA,NA,NA,NA,NA,NA,NA,NA,NA,NA,NA,NA
3288c,shallow,flow.Sequence,5_0_0_0_6_1,NA,NA,completion,9800.7000000001,667695.5,667689.406,667706.073,677506.773,677509.9,2023-06-09T12:48:00Z,677523.44,NULL,Können,unaweza,s,kiongozi,bustani,mienendo,NA,sdf,NA,0,NA,NA,NA,NA,NA,NA,NA,NA,NA,NA,NA,NA,NA,NA,NA,NA,NA,NA,NA
3288c,task,flow.Sequence,5_0_0_0_6,NA,NA,completion,9800.7000000001,667694.7,667689.406,667706.073,677506.773,677510.1,2023-06-09T12:48:00Z,677523.44,NULL,Können,unaweza,s,kiongozi,bustani,mienendo,NA,sdf,NA,0,NA,NA,NA,NA,NA,NA,NA,NA,NA,NA,NA,NA,NA,NA,NA,NA,NA,NA,NA
3288c,deep,flow.Sequence,5_0_0_0_7_0,NA,NA,skipped,NA,677510.3,NA,NA,677506.773,677510.4,2023-06-09T12:48:00Z,677523.44,NULL,Gelegenheit,wakati,s,mchanganyiko,kipaumbele,kushuku,NA,sdf,NA,0,NA,NA,NA,NA,NA,NA,NA,NA,NA,NA,NA,NA,NA,NA,NA,NA,NA,NA,NA
3288c,Shallow Question,html.Page,5_0_0_0_7_1_0,NA,NA,form submission,3806.2599999998,677510.5,677506.773,677523.44,681329.7,681330.1,2023-06-09T12:48:04Z,681340.66,NULL,Gelegenheit,wakati,s,mchanganyiko,kipaumbele,kushuku,kushuku,NA,NA,0,NA,NA,NA,NA,NA,NA,NA,NA,NA,NA,NA,NA,NA,NA,NA,NA,NA,NA,NA
3288c,"""Richtig""-Screen",canvas.Screen,5_0_0_0_7_1_1,NA,NA,skipped,NA,681333.5,NA,NA,681329.7,681333.7,2023-06-09T12:48:04Z,681340.66,NULL,Gelegenheit,wakati,s,mchanganyiko,kipaumbele,kushuku,NA,sdf,NA,0,NA,NA,NA,NA,NA,NA,NA,NA,NA,NA,NA,NA,NA,NA,NA,NA,NA,NA,NA
3288c,"""Falsch""-Screen",canvas.Screen,5_0_0_0_7_1_2,NA,NA,timeout,5000.1,681334.8,681323.993,681340.66,686324.093,686327.3,2023-06-09T12:48:09Z,686340.76,NULL,Gelegenheit,wakati,s,mchanganyiko,kipaumbele,kushuku,NA,sdf,0,0,NA,NA,NA,NA,NA,NA,NA,NA,NA,NA,NA,NA,NA,NA,NA,NA,NA,NA,NA
3288c,shallow,flow.Sequence,5_0_0_0_7_1,NA,NA,completion,8800.653,677510.5,677506.773,677523.44,686324.093,686327.7,2023-06-09T12:48:09Z,686340.76,NULL,Gelegenheit,wakati,s,mchanganyiko,kipaumbele,kushuku,NA,sdf,NA,0,NA,NA,NA,NA,NA,NA,NA,NA,NA,NA,NA,NA,NA,NA,NA,NA,NA,NA,NA
3288c,task,flow.Sequence,5_0_0_0_7,NA,NA,completion,8800.653,677510.2,677506.773,677523.44,686324.093,686327.9,2023-06-09T12:48:09Z,686340.76,NULL,Gelegenheit,wakati,s,mchanganyiko,kipaumbele,kushuku,NA,sdf,NA,0,NA,NA,NA,NA,NA,NA,NA,NA,NA,NA,NA,NA,NA,NA,NA,NA,NA,NA,NA
3288c,block,flow.Loop,5_0_0_0,NA,NA,completion,65370.853,620947,620936.573,620953.24,686324.093,686328,2023-06-09T12:48:09Z,686340.76,NULL,NA,NA,NA,NA,NA,NA,NA,sdf,NA,0,NA,NA,NA,NA,NA,NA,NA,NA,NA,NA,NA,NA,NA,NA,NA,NA,NA,NA,NA
3288c,weiter,canvas.Screen,5_0_0_1,sdf,keypress(Space),response,961.5399999998,686328.1,686324.093,686340.76,687302.3,687309.3,2023-06-09T12:48:10Z,687357.447,NULL,NA,NA,NA,NA,NA,NA,NA,sdf,NA,0,NA,NA,NA,NA,NA,NA,NA,NA,NA,NA,NA,NA,NA,NA,NA,NA,NA,NA,NA
3288c,check continue,flow.Sequence,5_0_0,NA,NA,completion,66349.06,620947,620936.573,620953.24,687302.3,687309.6,2023-06-09T12:48:10Z,687357.447,NULL,NA,NA,NA,NA,NA,NA,NA,sdf,NA,0,NA,NA,NA,NA,NA,NA,NA,NA,NA,NA,NA,NA,NA,NA,NA,NA,NA,NA,NA
3288c,Deep Question,html.Page,5_0_1_0_0_0_0,NA,NA,form submission,2925.8529999998,687342.4,687340.78,687357.447,690283.3,690284.1,2023-06-09T12:48:13Z,690290.839,NULL,Verstand,ufahamivu,d,NA,NA,NA,m,NA,NA,1,NA,NA,NA,NA,NA,NA,NA,NA,NA,NA,NA,NA,NA,NA,NA,NA,NA,NA,NA
3288c,"""Richtig""-Screen",canvas.Screen,5_0_1_0_0_0_1,NA,NA,skipped,NA,690286.1,NA,NA,690283.3,690286.4,2023-06-09T12:48:13Z,690290.839,NULL,Verstand,ufahamivu,d,NA,NA,NA,NA,sdfdsf,NA,1,NA,NA,NA,NA,NA,NA,NA,NA,NA,NA,NA,NA,NA,NA,NA,NA,NA,NA,NA
3288c,"""Falsch""-Screen",canvas.Screen,5_0_1_0_0_0_2,NA,NA,timeout,5000.581,690287.9,690274.172,690290.839,695274.753,695278.6,2023-06-09T12:48:18Z,695291.42,NULL,Verstand,ufahamivu,d,NA,NA,NA,NA,sdfdsf,0,1,NA,NA,NA,NA,NA,NA,NA,NA,NA,NA,NA,NA,NA,NA,NA,NA,NA,NA,NA
3288c,deep,flow.Sequence,5_0_1_0_0_0,NA,NA,completion,7917.306,687342.4,687340.78,687357.447,695274.753,695278.9,2023-06-09T12:48:18Z,695291.42,NULL,Verstand,ufahamivu,d,NA,NA,NA,NA,sdfdsf,NA,1,NA,NA,NA,NA,NA,NA,NA,NA,NA,NA,NA,NA,NA,NA,NA,NA,NA,NA,NA
3288c,shallow,flow.Sequence,5_0_1_0_0_1,NA,NA,skipped,NA,695278.9,NA,NA,695274.753,695279.1,2023-06-09T12:48:18Z,695291.42,NULL,Verstand,ufahamivu,d,NA,NA,NA,NA,sdfdsf,NA,1,NA,NA,NA,NA,NA,NA,NA,NA,NA,NA,NA,NA,NA,NA,NA,NA,NA,NA,NA
3288c,task,flow.Sequence,5_0_1_0_0,NA,NA,completion,7917.306,687342.3,687340.78,687357.447,695274.753,695279.2,2023-06-09T12:48:18Z,695291.42,NULL,Verstand,ufahamivu,d,NA,NA,NA,NA,sdfdsf,NA,1,NA,NA,NA,NA,NA,NA,NA,NA,NA,NA,NA,NA,NA,NA,NA,NA,NA,NA,NA
3288c,Deep Question,html.Page,5_0_1_0_1_0_0,NA,NA,form submission,8407.3799999998,695279.3,695274.753,695291.42,703698.8,703699.4,2023-06-09T12:48:27Z,703708.732,NULL,Widerstand,usulubu,d,NA,NA,NA,m,NA,NA,1,NA,NA,NA,NA,NA,NA,NA,NA,NA,NA,NA,NA,NA,NA,NA,NA,NA,NA,NA
3288c,"""Richtig""-Screen",canvas.Screen,5_0_1_0_1_0_1,NA,NA,skipped,NA,703702.8,NA,NA,703698.8,703703,2023-06-09T12:48:27Z,703708.732,NULL,Widerstand,usulubu,d,NA,NA,NA,NA,sdfdsf,NA,1,NA,NA,NA,NA,NA,NA,NA,NA,NA,NA,NA,NA,NA,NA,NA,NA,NA,NA,NA
3288c,"""Falsch""-Screen",canvas.Screen,5_0_1_0_1_0_2,NA,NA,timeout,5000.1000000001,703704,703692.065,703708.732,708692.165,708693.9,2023-06-09T12:48:32Z,708708.832,NULL,Widerstand,usulubu,d,NA,NA,NA,NA,sdfdsf,0,1,NA,NA,NA,NA,NA,NA,NA,NA,NA,NA,NA,NA,NA,NA,NA,NA,NA,NA,NA
3288c,deep,flow.Sequence,5_0_1_0_1_0,NA,NA,completion,13400.745,695279.3,695274.753,695291.42,708692.165,708694.1,2023-06-09T12:48:32Z,708708.832,NULL,Widerstand,usulubu,d,NA,NA,NA,NA,sdfdsf,NA,1,NA,NA,NA,NA,NA,NA,NA,NA,NA,NA,NA,NA,NA,NA,NA,NA,NA,NA,NA
3288c,shallow,flow.Sequence,5_0_1_0_1_1,NA,NA,skipped,NA,708694.3,NA,NA,708692.165,708694.4,2023-06-09T12:48:32Z,708708.832,NULL,Widerstand,usulubu,d,NA,NA,NA,NA,sdfdsf,NA,1,NA,NA,NA,NA,NA,NA,NA,NA,NA,NA,NA,NA,NA,NA,NA,NA,NA,NA,NA
