observation,sender,sender_type,sender_id,response,response_action,ended_on,duration,time_run,time_render,time_show,time_end,time_commit,timestamp,time_switch,distractors,german,swahili,enc,distractor1,distractor2,distractor3,response_2,x,correct,x_2,url_vp,url_sess,meta_labjs_version,meta_location,meta_user_agent,meta_platform,meta_language,meta_locale,meta_time_zone,meta_timezone_offset,meta_screen_width,meta_screen_height,meta_scroll_width,meta_scroll_height,meta_window_inner_width,meta_window_inner_height,meta_device_pixel_ratio,meta_labjs_build_flavor,meta_labjs_build_commit
5e79b,Introduction general,canvas.Screen,0,weiter,keypress(q),response,22318.8,537,544.54,561.2,22880,22897,2023-10-16T11:40:56Z,22897.96,NULL,NA,NA,NA,NA,NA,NA,NA,NA,NA,NA,181,3,20.2.4,https://neurocog.fernuni.ch/studies/vweber/sliechti/encoding_immediate/index.html?vp=181&sess=3,Mozilla/5.0 (Windows NT 10.0; Win64; x64; rv:109.0) Gecko/20100101 Firefox/118.0,Win32,de,de-CH,Europe/Zurich,-120,1280,720,1280,587,1280,587,1.5,production,f5b4a49f956347addd546a832a3327688c2c0fef
5e79b,Introduction practice,canvas.Screen,1_0,NA,keypress(Space),response,4965.04,22898,22897.68,22897.96,27863,27873,2023-10-16T11:41:01Z,27877.06,NULL,NA,NA,NA,NA,NA,NA,NA,NA,NA,NA,NA,NA,NA,NA,NA,NA,NA,NA,NA,NA,NA,NA,NA,NA,NA,NA,NA,NA,NA
5e79b,deep,flow.Sequence,1_1_0_0,NA,NA,skipped,NA,27874,NA,NA,27863,27875,2023-10-16T11:41:01Z,27877.06,"c(""distractor1"", ""distractor2"", ""distractor3"")",Rückhalt,msaada,s,muhula,auwali,kiwimbe,NA,NA,NA,NA,NA,NA,NA,NA,NA,NA,NA,NA,NA,NA,NA,NA,NA,NA,NA,NA,NA,NA,NA
5e79b,Shallow Question,html.Page,1_1_0_1_0,NA,NA,form submission,16816.94,27877,27876.52,27877.06,44694,44694,2023-10-16T11:41:18Z,44705.56,"c(""distractor1"", ""distractor2"", ""distractor3"")",Rückhalt,msaada,s,muhula,auwali,kiwimbe,kiwimbe,NA,NA,NA,NA,NA,NA,NA,NA,NA,NA,NA,NA,NA,NA,NA,NA,NA,NA,NA,NA,NA,NA
5e79b,"""Richtig""-Screen",canvas.Screen,1_1_0_1_1,NA,NA,skipped,NA,44706,NA,NA,44694,44706,2023-10-16T11:41:18Z,44705.56,"c(""distractor1"", ""distractor2"", ""distractor3"")",Rückhalt,msaada,s,muhula,auwali,kiwimbe,NA,NA,NA,NA,NA,NA,NA,NA,NA,NA,NA,NA,NA,NA,NA,NA,NA,NA,NA,NA,NA,NA,NA
5e79b,"""Falsch""-Screen",canvas.Screen,1_1_0_1_2,NA,NA,timeout,4999.34,44708,44670.6,44705.56,49688.22,49690,2023-10-16T11:41:23Z,49704.9,"c(""distractor1"", ""distractor2"", ""distractor3"")",Rückhalt,msaada,s,muhula,auwali,kiwimbe,NA,NA,0,NA,NA,NA,NA,NA,NA,NA,NA,NA,NA,NA,NA,NA,NA,NA,NA,NA,NA,NA,NA
5e79b,shallow,flow.Sequence,1_1_0_1,NA,NA,completion,21811.16,27876,27876.52,27877.06,49688.22,49691,2023-10-16T11:41:23Z,49704.9,"c(""distractor1"", ""distractor2"", ""distractor3"")",Rückhalt,msaada,s,muhula,auwali,kiwimbe,NA,NA,NA,NA,NA,NA,NA,NA,NA,NA,NA,NA,NA,NA,NA,NA,NA,NA,NA,NA,NA,NA,NA
5e79b,task,flow.Sequence,1_1_0,NA,NA,completion,21811.16,27874,27876.52,27877.06,49688.22,49692,2023-10-16T11:41:23Z,49704.9,"c(""distractor1"", ""distractor2"", ""distractor3"")",Rückhalt,msaada,s,muhula,auwali,kiwimbe,NA,NA,NA,NA,NA,NA,NA,NA,NA,NA,NA,NA,NA,NA,NA,NA,NA,NA,NA,NA,NA,NA,NA
5e79b,Deep Question,html.Page,1_1_1_0_0,NA,NA,form submission,7701.1,49693,49688.22,49704.9,57406,57406,2023-10-16T11:41:31Z,57403.88,"c(""distractor1"", ""distractor2"", ""distractor3"")",Qualität,mtindo,d,NA,NA,NA,misaaba,NA,NA,NA,NA,NA,NA,NA,NA,NA,NA,NA,NA,NA,NA,NA,NA,NA,NA,NA,NA,NA,NA
5e79b,"""Richtig""-Screen",canvas.Screen,1_1_1_0_1,NA,NA,skipped,NA,57413,NA,NA,57406,57414,2023-10-16T11:41:31Z,57403.88,"c(""distractor1"", ""distractor2"", ""distractor3"")",Qualität,mtindo,d,NA,NA,NA,NA,NA,NA,NA,NA,NA,NA,NA,NA,NA,NA,NA,NA,NA,NA,NA,NA,NA,NA,NA,NA,NA,NA
5e79b,"""Falsch""-Screen",canvas.Screen,1_1_1_0_2,NA,NA,timeout,4999.36,57417,57399.86,57403.88,62386.66,62388,2023-10-16T11:41:36Z,62403.24,"c(""distractor1"", ""distractor2"", ""distractor3"")",Qualität,mtindo,d,NA,NA,NA,NA,NA,0,NA,NA,NA,NA,NA,NA,NA,NA,NA,NA,NA,NA,NA,NA,NA,NA,NA,NA,NA,NA
5e79b,deep,flow.Sequence,1_1_1_0,NA,NA,completion,12681.76,49693,49688.22,49704.9,62386.66,62389,2023-10-16T11:41:36Z,62403.24,"c(""distractor1"", ""distractor2"", ""distractor3"")",Qualität,mtindo,d,NA,NA,NA,NA,NA,NA,NA,NA,NA,NA,NA,NA,NA,NA,NA,NA,NA,NA,NA,NA,NA,NA,NA,NA,NA,NA
5e79b,shallow,flow.Sequence,1_1_1_1,NA,NA,skipped,NA,62389,NA,NA,62386.66,62389,2023-10-16T11:41:36Z,62403.24,"c(""distractor1"", ""distractor2"", ""distractor3"")",Qualität,mtindo,d,NA,NA,NA,NA,NA,NA,NA,NA,NA,NA,NA,NA,NA,NA,NA,NA,NA,NA,NA,NA,NA,NA,NA,NA,NA,NA
5e79b,task,flow.Sequence,1_1_1,NA,NA,completion,12681.76,49693,49688.22,49704.9,62386.66,62390,2023-10-16T11:41:36Z,62403.24,"c(""distractor1"", ""distractor2"", ""distractor3"")",Qualität,mtindo,d,NA,NA,NA,NA,NA,NA,NA,NA,NA,NA,NA,NA,NA,NA,NA,NA,NA,NA,NA,NA,NA,NA,NA,NA,NA,NA
5e79b,deep,flow.Sequence,1_1_2_0,NA,NA,skipped,NA,62391,NA,NA,62386.66,62391,2023-10-16T11:41:36Z,62403.24,"c(""distractor1"", ""distractor2"", ""distractor3"")",Gegenwart,hadhara,s,katiba,jokofu,mikopo,NA,NA,NA,NA,NA,NA,NA,NA,NA,NA,NA,NA,NA,NA,NA,NA,NA,NA,NA,NA,NA,NA,NA
5e79b,Shallow Question,html.Page,1_1_2_1_0,NA,NA,form submission,8301.76,62391,62386.66,62403.24,70705,70705,2023-10-16T11:41:44Z,70702.3,"c(""distractor1"", ""distractor2"", ""distractor3"")",Gegenwart,hadhara,s,katiba,jokofu,mikopo,jokofu,NA,NA,NA,NA,NA,NA,NA,NA,NA,NA,NA,NA,NA,NA,NA,NA,NA,NA,NA,NA,NA,NA
5e79b,"""Richtig""-Screen",canvas.Screen,1_1_2_1_1,NA,NA,skipped,NA,70710,NA,NA,70705,70710,2023-10-16T11:41:44Z,70702.3,"c(""distractor1"", ""distractor2"", ""distractor3"")",Gegenwart,hadhara,s,katiba,jokofu,mikopo,NA,NA,NA,NA,NA,NA,NA,NA,NA,NA,NA,NA,NA,NA,NA,NA,NA,NA,NA,NA,NA,NA,NA
5e79b,"""Falsch""-Screen",canvas.Screen,1_1_2_1_2,NA,NA,timeout,4999.32,70714,70698.5,70702.3,75684.96,75687,2023-10-16T11:41:49Z,75701.62,"c(""distractor1"", ""distractor2"", ""distractor3"")",Gegenwart,hadhara,s,katiba,jokofu,mikopo,NA,NA,0,NA,NA,NA,NA,NA,NA,NA,NA,NA,NA,NA,NA,NA,NA,NA,NA,NA,NA,NA,NA
5e79b,shallow,flow.Sequence,1_1_2_1,NA,NA,completion,13281.72,62391,62386.66,62403.24,75684.96,75689,2023-10-16T11:41:49Z,75701.62,"c(""distractor1"", ""distractor2"", ""distractor3"")",Gegenwart,hadhara,s,katiba,jokofu,mikopo,NA,NA,NA,NA,NA,NA,NA,NA,NA,NA,NA,NA,NA,NA,NA,NA,NA,NA,NA,NA,NA,NA,NA
5e79b,task,flow.Sequence,1_1_2,NA,NA,completion,13281.72,62390,62386.66,62403.24,75684.96,75689,2023-10-16T11:41:49Z,75701.62,"c(""distractor1"", ""distractor2"", ""distractor3"")",Gegenwart,hadhara,s,katiba,jokofu,mikopo,NA,NA,NA,NA,NA,NA,NA,NA,NA,NA,NA,NA,NA,NA,NA,NA,NA,NA,NA,NA,NA,NA,NA
5e79b,deep,flow.Sequence,1_1_3_0,NA,NA,skipped,NA,75691,NA,NA,75684.96,75692,2023-10-16T11:41:49Z,75701.62,"c(""distractor1"", ""distractor2"", ""distractor3"")",Kritik,lawama,s,dereva,nafasi,mawazo,NA,NA,NA,NA,NA,NA,NA,NA,NA,NA,NA,NA,NA,NA,NA,NA,NA,NA,NA,NA,NA,NA,NA
5e79b,Shallow Question,html.Page,1_1_3_1_0,NA,NA,form submission,5293.38,75692,75684.96,75701.62,80995,80996,2023-10-16T11:41:54Z,81017.62,"c(""distractor1"", ""distractor2"", ""distractor3"")",Kritik,lawama,s,dereva,nafasi,mawazo,lawama,NA,NA,NA,NA,NA,NA,NA,NA,NA,NA,NA,NA,NA,NA,NA,NA,NA,NA,NA,NA,NA,NA
5e79b,"""Richtig""-Screen",canvas.Screen,1_1_3_1_1,NA,NA,timeout,4999.32,81009,80986.26,81017.62,86000.28,86002,2023-10-16T11:41:59Z,86016.94,"c(""distractor1"", ""distractor2"", ""distractor3"")",Kritik,lawama,s,dereva,nafasi,mawazo,NA,NA,1,NA,NA,NA,NA,NA,NA,NA,NA,NA,NA,NA,NA,NA,NA,NA,NA,NA,NA,NA,NA
5e79b,"""Falsch""-Screen",canvas.Screen,1_1_3_1_2,NA,NA,skipped,NA,86011,NA,NA,86000.28,86011,2023-10-16T11:41:59Z,86016.94,"c(""distractor1"", ""distractor2"", ""distractor3"")",Kritik,lawama,s,dereva,nafasi,mawazo,NA,NA,NA,NA,NA,NA,NA,NA,NA,NA,NA,NA,NA,NA,NA,NA,NA,NA,NA,NA,NA,NA,NA
5e79b,shallow,flow.Sequence,1_1_3_1,NA,NA,completion,10298.66,75692,75684.96,75701.62,86000.28,86011,2023-10-16T11:41:59Z,86016.94,"c(""distractor1"", ""distractor2"", ""distractor3"")",Kritik,lawama,s,dereva,nafasi,mawazo,NA,NA,NA,NA,NA,NA,NA,NA,NA,NA,NA,NA,NA,NA,NA,NA,NA,NA,NA,NA,NA,NA,NA
5e79b,task,flow.Sequence,1_1_3,NA,NA,completion,10298.66,75691,75684.96,75701.62,86000.28,86012,2023-10-16T11:41:59Z,86016.94,"c(""distractor1"", ""distractor2"", ""distractor3"")",Kritik,lawama,s,dereva,nafasi,mawazo,NA,NA,NA,NA,NA,NA,NA,NA,NA,NA,NA,NA,NA,NA,NA,NA,NA,NA,NA,NA,NA,NA,NA
5e79b,Deep Question,html.Page,1_1_4_0_0,NA,NA,form submission,6409.06,86012,86000.28,86016.94,92426,92427,2023-10-16T11:42:06Z,92432.88,"c(""distractor1"", ""distractor2"", ""distractor3"")",Schatten,kivuli,d,NA,NA,NA,nibio,NA,NA,NA,NA,NA,NA,NA,NA,NA,NA,NA,NA,NA,NA,NA,NA,NA,NA,NA,NA,NA,NA
5e79b,"""Richtig""-Screen",canvas.Screen,1_1_4_0_1,NA,NA,skipped,NA,92432,NA,NA,92426,92433,2023-10-16T11:42:06Z,92432.88,"c(""distractor1"", ""distractor2"", ""distractor3"")",Schatten,kivuli,d,NA,NA,NA,NA,NA,NA,NA,NA,NA,NA,NA,NA,NA,NA,NA,NA,NA,NA,NA,NA,NA,NA,NA,NA,NA,NA
5e79b,"""Falsch""-Screen",canvas.Screen,1_1_4_0_2,NA,NA,timeout,4999.24,92438,92420.24,92432.88,97415.48,97416,2023-10-16T11:42:11Z,97432.12,"c(""distractor1"", ""distractor2"", ""distractor3"")",Schatten,kivuli,d,NA,NA,NA,NA,NA,0,NA,NA,NA,NA,NA,NA,NA,NA,NA,NA,NA,NA,NA,NA,NA,NA,NA,NA,NA,NA
5e79b,deep,flow.Sequence,1_1_4_0,NA,NA,completion,11398.54,86012,86000.28,86016.94,97415.48,97417,2023-10-16T11:42:11Z,97432.12,"c(""distractor1"", ""distractor2"", ""distractor3"")",Schatten,kivuli,d,NA,NA,NA,NA,NA,NA,NA,NA,NA,NA,NA,NA,NA,NA,NA,NA,NA,NA,NA,NA,NA,NA,NA,NA,NA,NA
5e79b,shallow,flow.Sequence,1_1_4_1,NA,NA,skipped,NA,97417,NA,NA,97415.48,97417,2023-10-16T11:42:11Z,97432.12,"c(""distractor1"", ""distractor2"", ""distractor3"")",Schatten,kivuli,d,NA,NA,NA,NA,NA,NA,NA,NA,NA,NA,NA,NA,NA,NA,NA,NA,NA,NA,NA,NA,NA,NA,NA,NA,NA,NA
5e79b,task,flow.Sequence,1_1_4,NA,NA,completion,11398.54,86012,86000.28,86016.94,97415.48,97417,2023-10-16T11:42:11Z,97432.12,"c(""distractor1"", ""distractor2"", ""distractor3"")",Schatten,kivuli,d,NA,NA,NA,NA,NA,NA,NA,NA,NA,NA,NA,NA,NA,NA,NA,NA,NA,NA,NA,NA,NA,NA,NA,NA,NA,NA
5e79b,Deep Question,html.Page,1_1_5_0_0,NA,NA,form submission,9296.88,97418,97415.48,97432.12,106729,106731,2023-10-16T11:42:20Z,106730.96,"c(""distractor1"", ""distractor2"", ""distractor3"")",Gesundheit,salama,d,NA,NA,NA,hichatu,NA,NA,NA,NA,NA,NA,NA,NA,NA,NA,NA,NA,NA,NA,NA,NA,NA,NA,NA,NA,NA,NA
5e79b,"""Richtig""-Screen",canvas.Screen,1_1_5_0_1,NA,NA,skipped,NA,106734,NA,NA,106729,106735,2023-10-16T11:42:20Z,106730.96,"c(""distractor1"", ""distractor2"", ""distractor3"")",Gesundheit,salama,d,NA,NA,NA,NA,NA,NA,NA,NA,NA,NA,NA,NA,NA,NA,NA,NA,NA,NA,NA,NA,NA,NA,NA,NA,NA,NA
5e79b,"""Falsch""-Screen",canvas.Screen,1_1_5_0_2,NA,NA,timeout,4999.34,106738,106722.5,106730.96,111713.68,111715,2023-10-16T11:42:25Z,111730.3,"c(""distractor1"", ""distractor2"", ""distractor3"")",Gesundheit,salama,d,NA,NA,NA,NA,NA,0,NA,NA,NA,NA,NA,NA,NA,NA,NA,NA,NA,NA,NA,NA,NA,NA,NA,NA,NA,NA
5e79b,deep,flow.Sequence,1_1_5_0,NA,NA,completion,14281.56,97417,97415.48,97432.12,111713.68,111715,2023-10-16T11:42:25Z,111730.3,"c(""distractor1"", ""distractor2"", ""distractor3"")",Gesundheit,salama,d,NA,NA,NA,NA,NA,NA,NA,NA,NA,NA,NA,NA,NA,NA,NA,NA,NA,NA,NA,NA,NA,NA,NA,NA,NA,NA
5e79b,shallow,flow.Sequence,1_1_5_1,NA,NA,skipped,NA,111716,NA,NA,111713.68,111716,2023-10-16T11:42:25Z,111730.3,"c(""distractor1"", ""distractor2"", ""distractor3"")",Gesundheit,salama,d,NA,NA,NA,NA,NA,NA,NA,NA,NA,NA,NA,NA,NA,NA,NA,NA,NA,NA,NA,NA,NA,NA,NA,NA,NA,NA
5e79b,task,flow.Sequence,1_1_5,NA,NA,completion,14281.56,97417,97415.48,97432.12,111713.68,111716,2023-10-16T11:42:25Z,111730.3,"c(""distractor1"", ""distractor2"", ""distractor3"")",Gesundheit,salama,d,NA,NA,NA,NA,NA,NA,NA,NA,NA,NA,NA,NA,NA,NA,NA,NA,NA,NA,NA,NA,NA,NA,NA,NA,NA,NA
5e79b,block,flow.Loop,1_1,NA,NA,completion,83836.62,27874,27876.52,27877.06,111713.68,111717,2023-10-16T11:42:25Z,111730.3,"c(""distractor1"", ""distractor2"", ""distractor3"")",NA,NA,NA,NA,NA,NA,NA,NA,NA,NA,NA,NA,NA,NA,NA,NA,NA,NA,NA,NA,NA,NA,NA,NA,NA,NA,NA,NA,NA
5e79b,Practice,flow.Sequence,1,NA,NA,completion,88815.72,22898,22897.68,22897.96,111713.68,111717,2023-10-16T11:42:25Z,111730.3,NULL,NA,NA,NA,NA,NA,NA,NA,NA,NA,NA,NA,NA,NA,NA,NA,NA,NA,NA,NA,NA,NA,NA,NA,NA,NA,NA,NA,NA,NA
5e79b,Experiment start,canvas.Screen,2,weiter,keypress(q),response,28820.7,111717,111713.68,111730.3,140551,140564,2023-10-16T11:42:54Z,140646.14,NULL,NA,NA,NA,NA,NA,NA,NA,NA,NA,NA,NA,NA,NA,NA,NA,NA,NA,NA,NA,NA,NA,NA,NA,NA,NA,NA,NA,NA,NA
5e79b,Deep Question,html.Page,3_0_0_0_0_0_0,NA,NA,form submission,10871.86,140646,140645.5,140646.14,151518,151519,2023-10-16T11:43:05Z,151525.22,NULL,Aufstand,ugomaji,d,NA,NA,NA,hibpo,NA,NA,0,NA,NA,NA,NA,NA,NA,NA,NA,NA,NA,NA,NA,NA,NA,NA,NA,NA,NA,NA
5e79b,"""Richtig""-Screen",canvas.Screen,3_0_0_0_0_0_1,NA,NA,skipped,NA,151520,NA,NA,151518,151520,2023-10-16T11:43:05Z,151525.22,NULL,Aufstand,ugomaji,d,NA,NA,NA,NA,sdf,NA,0,NA,NA,NA,NA,NA,NA,NA,NA,NA,NA,NA,NA,NA,NA,NA,NA,NA,NA,NA
5e79b,"""Falsch""-Screen",canvas.Screen,3_0_0_0_0_0_2,NA,NA,timeout,4999.36,151522,151516.82,151525.22,156507.96,156509,2023-10-16T11:43:10Z,156524.58,NULL,Aufstand,ugomaji,d,NA,NA,NA,NA,sdf,0,0,NA,NA,NA,NA,NA,NA,NA,NA,NA,NA,NA,NA,NA,NA,NA,NA,NA,NA,NA
5e79b,deep,flow.Sequence,3_0_0_0_0_0,NA,NA,completion,15861.82,140646,140645.5,140646.14,156507.96,156510,2023-10-16T11:43:10Z,156524.58,NULL,Aufstand,ugomaji,d,NA,NA,NA,NA,sdf,NA,0,NA,NA,NA,NA,NA,NA,NA,NA,NA,NA,NA,NA,NA,NA,NA,NA,NA,NA,NA
5e79b,shallow,flow.Sequence,3_0_0_0_0_1,NA,NA,skipped,NA,156510,NA,NA,156507.96,156510,2023-10-16T11:43:10Z,156524.58,NULL,Aufstand,ugomaji,d,NA,NA,NA,NA,sdf,NA,0,NA,NA,NA,NA,NA,NA,NA,NA,NA,NA,NA,NA,NA,NA,NA,NA,NA,NA,NA
5e79b,task,flow.Sequence,3_0_0_0_0,NA,NA,completion,15861.82,140646,140645.5,140646.14,156507.96,156511,2023-10-16T11:43:10Z,156524.58,NULL,Aufstand,ugomaji,d,NA,NA,NA,NA,sdf,NA,0,NA,NA,NA,NA,NA,NA,NA,NA,NA,NA,NA,NA,NA,NA,NA,NA,NA,NA,NA
5e79b,Deep Question,html.Page,3_0_0_0_1_0_0,NA,NA,form submission,5812.42,156511,156507.96,156524.58,162337,162337,2023-10-16T11:43:16Z,162340.54,NULL,Polizist,msongora,d,NA,NA,NA,plizia,NA,NA,0,NA,NA,NA,NA,NA,NA,NA,NA,NA,NA,NA,NA,NA,NA,NA,NA,NA,NA,NA
5e79b,"""Richtig""-Screen",canvas.Screen,3_0_0_0_1_0_1,NA,NA,skipped,NA,162339,NA,NA,162337,162339,2023-10-16T11:43:16Z,162340.54,NULL,Polizist,msongora,d,NA,NA,NA,NA,sdf,NA,0,NA,NA,NA,NA,NA,NA,NA,NA,NA,NA,NA,NA,NA,NA,NA,NA,NA,NA,NA
5e79b,"""Falsch""-Screen",canvas.Screen,3_0_0_0_1_0_2,NA,NA,timeout,4999.4,162342,162335.54,162340.54,167323.3,167325,2023-10-16T11:43:21Z,167339.94,NULL,Polizist,msongora,d,NA,NA,NA,NA,sdf,0,0,NA,NA,NA,NA,NA,NA,NA,NA,NA,NA,NA,NA,NA,NA,NA,NA,NA,NA,NA
5e79b,deep,flow.Sequence,3_0_0_0_1_0,NA,NA,completion,10798.72,156511,156507.96,156524.58,167323.3,167326,2023-10-16T11:43:21Z,167339.94,NULL,Polizist,msongora,d,NA,NA,NA,NA,sdf,NA,0,NA,NA,NA,NA,NA,NA,NA,NA,NA,NA,NA,NA,NA,NA,NA,NA,NA,NA,NA
5e79b,shallow,flow.Sequence,3_0_0_0_1_1,NA,NA,skipped,NA,167326,NA,NA,167323.3,167326,2023-10-16T11:43:21Z,167339.94,NULL,Polizist,msongora,d,NA,NA,NA,NA,sdf,NA,0,NA,NA,NA,NA,NA,NA,NA,NA,NA,NA,NA,NA,NA,NA,NA,NA,NA,NA,NA
5e79b,task,flow.Sequence,3_0_0_0_1,NA,NA,completion,10798.72,156511,156507.96,156524.58,167323.3,167326,2023-10-16T11:43:21Z,167339.94,NULL,Polizist,msongora,d,NA,NA,NA,NA,sdf,NA,0,NA,NA,NA,NA,NA,NA,NA,NA,NA,NA,NA,NA,NA,NA,NA,NA,NA,NA,NA
5e79b,deep,flow.Sequence,3_0_0_0_2_0,NA,NA,skipped,NA,167327,NA,NA,167323.3,167327,2023-10-16T11:43:21Z,167339.94,NULL,Kultur,utamaduni,s,shetani,gerezani,mazingira,NA,sdf,NA,0,NA,NA,NA,NA,NA,NA,NA,NA,NA,NA,NA,NA,NA,NA,NA,NA,NA,NA,NA
5e79b,Shallow Question,html.Page,3_0_0_0_2_1_0,NA,NA,form submission,4926.06,167327,167323.3,167339.94,172266,172267,2023-10-16T11:43:26Z,172272.58,NULL,Kultur,utamaduni,s,shetani,gerezani,mazingira,shetani,NA,NA,0,NA,NA,NA,NA,NA,NA,NA,NA,NA,NA,NA,NA,NA,NA,NA,NA,NA,NA,NA
5e79b,"""Richtig""-Screen",canvas.Screen,3_0_0_0_2_1_1,NA,NA,skipped,NA,172270,NA,NA,172266,172271,2023-10-16T11:43:26Z,172272.58,NULL,Kultur,utamaduni,s,shetani,gerezani,mazingira,NA,sdf,NA,0,NA,NA,NA,NA,NA,NA,NA,NA,NA,NA,NA,NA,NA,NA,NA,NA,NA,NA,NA
5e79b,"""Falsch""-Screen",canvas.Screen,3_0_0_0_2_1_2,NA,NA,timeout,4999.4,172273,172262.98,172272.58,177255.36,177256,2023-10-16T11:43:31Z,177271.98,NULL,Kultur,utamaduni,s,shetani,gerezani,mazingira,NA,sdf,0,0,NA,NA,NA,NA,NA,NA,NA,NA,NA,NA,NA,NA,NA,NA,NA,NA,NA,NA,NA
5e79b,shallow,flow.Sequence,3_0_0_0_2_1,NA,NA,completion,9915.42,167327,167323.3,167339.94,177255.36,177257,2023-10-16T11:43:31Z,177271.98,NULL,Kultur,utamaduni,s,shetani,gerezani,mazingira,NA,sdf,NA,0,NA,NA,NA,NA,NA,NA,NA,NA,NA,NA,NA,NA,NA,NA,NA,NA,NA,NA,NA
5e79b,task,flow.Sequence,3_0_0_0_2,NA,NA,completion,9915.42,167327,167323.3,167339.94,177255.36,177257,2023-10-16T11:43:31Z,177271.98,NULL,Kultur,utamaduni,s,shetani,gerezani,mazingira,NA,sdf,NA,0,NA,NA,NA,NA,NA,NA,NA,NA,NA,NA,NA,NA,NA,NA,NA,NA,NA,NA,NA
5e79b,deep,flow.Sequence,3_0_0_0_3_0,NA,NA,skipped,NA,177258,NA,NA,177255.36,177258,2023-10-16T11:43:31Z,177271.98,NULL,Annäherung,maegesho,s,madahili,kujiamini,mapendekezo,NA,sdf,NA,0,NA,NA,NA,NA,NA,NA,NA,NA,NA,NA,NA,NA,NA,NA,NA,NA,NA,NA,NA
5e79b,Shallow Question,html.Page,3_0_0_0_3_1_0,NA,NA,form submission,6754.02,177258,177255.36,177271.98,184026,184027,2023-10-16T11:43:37Z,184037.7,NULL,Annäherung,maegesho,s,madahili,kujiamini,mapendekezo,maegesho,NA,NA,0,NA,NA,NA,NA,NA,NA,NA,NA,NA,NA,NA,NA,NA,NA,NA,NA,NA,NA,NA
5e79b,"""Richtig""-Screen",canvas.Screen,3_0_0_0_3_1_1,NA,NA,timeout,4999.48,184029,184024.04,184037.7,189020.54,189027,2023-10-16T11:43:42Z,189037.18,NULL,Annäherung,maegesho,s,madahili,kujiamini,mapendekezo,NA,sdf,1,0,NA,NA,NA,NA,NA,NA,NA,NA,NA,NA,NA,NA,NA,NA,NA,NA,NA,NA,NA
5e79b,"""Falsch""-Screen",canvas.Screen,3_0_0_0_3_1_2,NA,NA,skipped,NA,189044,NA,NA,189020.54,189045,2023-10-16T11:43:42Z,189037.18,NULL,Annäherung,maegesho,s,madahili,kujiamini,mapendekezo,NA,sdf,NA,0,NA,NA,NA,NA,NA,NA,NA,NA,NA,NA,NA,NA,NA,NA,NA,NA,NA,NA,NA
5e79b,shallow,flow.Sequence,3_0_0_0_3_1,NA,NA,completion,11748.56,177258,177255.36,177271.98,189020.54,189046,2023-10-16T11:43:42Z,189037.18,NULL,Annäherung,maegesho,s,madahili,kujiamini,mapendekezo,NA,sdf,NA,0,NA,NA,NA,NA,NA,NA,NA,NA,NA,NA,NA,NA,NA,NA,NA,NA,NA,NA,NA
5e79b,task,flow.Sequence,3_0_0_0_3,NA,NA,completion,11748.56,177258,177255.36,177271.98,189020.54,189046,2023-10-16T11:43:42Z,189037.18,NULL,Annäherung,maegesho,s,madahili,kujiamini,mapendekezo,NA,sdf,NA,0,NA,NA,NA,NA,NA,NA,NA,NA,NA,NA,NA,NA,NA,NA,NA,NA,NA,NA,NA
5e79b,Deep Question,html.Page,3_0_0_0_4_0_0,NA,NA,form submission,29464.82,189047,189020.54,189037.18,218502,218502,2023-10-16T11:44:12Z,218500.72,NULL,Prüfung,mtihani,d,NA,NA,NA,michis,NA,NA,0,NA,NA,NA,NA,NA,NA,NA,NA,NA,NA,NA,NA,NA,NA,NA,NA,NA,NA,NA
5e79b,"""Richtig""-Screen",canvas.Screen,3_0_0_0_4_0_1,NA,NA,skipped,NA,218505,NA,NA,218502,218506,2023-10-16T11:44:12Z,218500.72,NULL,Prüfung,mtihani,d,NA,NA,NA,NA,sdf,NA,0,NA,NA,NA,NA,NA,NA,NA,NA,NA,NA,NA,NA,NA,NA,NA,NA,NA,NA,NA
5e79b,"""Falsch""-Screen",canvas.Screen,3_0_0_0_4_0_2,NA,NA,timeout,4998.68,218509,218500.48,218500.72,223482.74,223484,2023-10-16T11:44:17Z,223499.4,NULL,Prüfung,mtihani,d,NA,NA,NA,NA,sdf,0,0,NA,NA,NA,NA,NA,NA,NA,NA,NA,NA,NA,NA,NA,NA,NA,NA,NA,NA,NA
5e79b,deep,flow.Sequence,3_0_0_0_4_0,NA,NA,completion,34445.56,189047,189020.54,189037.18,223482.74,223485,2023-10-16T11:44:17Z,223499.4,NULL,Prüfung,mtihani,d,NA,NA,NA,NA,sdf,NA,0,NA,NA,NA,NA,NA,NA,NA,NA,NA,NA,NA,NA,NA,NA,NA,NA,NA,NA,NA
5e79b,shallow,flow.Sequence,3_0_0_0_4_1,NA,NA,skipped,NA,223485,NA,NA,223482.74,223486,2023-10-16T11:44:17Z,223499.4,NULL,Prüfung,mtihani,d,NA,NA,NA,NA,sdf,NA,0,NA,NA,NA,NA,NA,NA,NA,NA,NA,NA,NA,NA,NA,NA,NA,NA,NA,NA,NA
5e79b,task,flow.Sequence,3_0_0_0_4,NA,NA,completion,34445.56,189047,189020.54,189037.18,223482.74,223487,2023-10-16T11:44:17Z,223499.4,NULL,Prüfung,mtihani,d,NA,NA,NA,NA,sdf,NA,0,NA,NA,NA,NA,NA,NA,NA,NA,NA,NA,NA,NA,NA,NA,NA,NA,NA,NA,NA
5e79b,Deep Question,html.Page,3_0_0_0_5_0_0,NA,NA,form submission,6299.6,223488,223482.74,223499.4,229799,229800,2023-10-16T11:44:23Z,229798.6,NULL,Beweis,ushahidi,d,NA,NA,NA,poliza,NA,NA,0,NA,NA,NA,NA,NA,NA,NA,NA,NA,NA,NA,NA,NA,NA,NA,NA,NA,NA,NA
5e79b,"""Richtig""-Screen",canvas.Screen,3_0_0_0_5_0_1,NA,NA,skipped,NA,229803,NA,NA,229799,229803,2023-10-16T11:44:23Z,229798.6,NULL,Beweis,ushahidi,d,NA,NA,NA,NA,sdf,NA,0,NA,NA,NA,NA,NA,NA,NA,NA,NA,NA,NA,NA,NA,NA,NA,NA,NA,NA,NA
5e79b,"""Falsch""-Screen",canvas.Screen,3_0_0_0_5_0_2,NA,NA,timeout,4999.28,229805,229797.6,229798.6,234781.32,234782,2023-10-16T11:44:28Z,234797.88,NULL,Beweis,ushahidi,d,NA,NA,NA,NA,sdf,0,0,NA,NA,NA,NA,NA,NA,NA,NA,NA,NA,NA,NA,NA,NA,NA,NA,NA,NA,NA
5e79b,deep,flow.Sequence,3_0_0_0_5_0,NA,NA,completion,11281.92,223487,223482.74,223499.4,234781.32,234783,2023-10-16T11:44:28Z,234797.88,NULL,Beweis,ushahidi,d,NA,NA,NA,NA,sdf,NA,0,NA,NA,NA,NA,NA,NA,NA,NA,NA,NA,NA,NA,NA,NA,NA,NA,NA,NA,NA
5e79b,shallow,flow.Sequence,3_0_0_0_5_1,NA,NA,skipped,NA,234783,NA,NA,234781.32,234783,2023-10-16T11:44:28Z,234797.88,NULL,Beweis,ushahidi,d,NA,NA,NA,NA,sdf,NA,0,NA,NA,NA,NA,NA,NA,NA,NA,NA,NA,NA,NA,NA,NA,NA,NA,NA,NA,NA
5e79b,task,flow.Sequence,3_0_0_0_5,NA,NA,completion,11281.92,223487,223482.74,223499.4,234781.32,234784,2023-10-16T11:44:28Z,234797.88,NULL,Beweis,ushahidi,d,NA,NA,NA,NA,sdf,NA,0,NA,NA,NA,NA,NA,NA,NA,NA,NA,NA,NA,NA,NA,NA,NA,NA,NA,NA,NA
5e79b,deep,flow.Sequence,3_0_0_0_6_0,NA,NA,skipped,NA,234784,NA,NA,234781.32,234784,2023-10-16T11:44:28Z,234797.88,NULL,Verzögerung,kuchelewa,s,mwakilishi,mwanauchumi,jaribio,NA,sdf,NA,0,NA,NA,NA,NA,NA,NA,NA,NA,NA,NA,NA,NA,NA,NA,NA,NA,NA,NA,NA
5e79b,Shallow Question,html.Page,3_0_0_0_6_1_0,NA,NA,form submission,6058.12,234785,234781.32,234797.88,240856,240857,2023-10-16T11:44:34Z,240863.88,NULL,Verzögerung,kuchelewa,s,mwakilishi,mwanauchumi,jaribio,kuchelewa,NA,NA,0,NA,NA,NA,NA,NA,NA,NA,NA,NA,NA,NA,NA,NA,NA,NA,NA,NA,NA,NA
5e79b,"""Richtig""-Screen",canvas.Screen,3_0_0_0_6_1_1,NA,NA,timeout,4999.36,240864,240849.82,240863.88,245846.56,245852,2023-10-16T11:44:39Z,245863.24,NULL,Verzögerung,kuchelewa,s,mwakilishi,mwanauchumi,jaribio,NA,sdf,1,0,NA,NA,NA,NA,NA,NA,NA,NA,NA,NA,NA,NA,NA,NA,NA,NA,NA,NA,NA
5e79b,"""Falsch""-Screen",canvas.Screen,3_0_0_0_6_1_2,NA,NA,skipped,NA,245869,NA,NA,245846.56,245870,2023-10-16T11:44:39Z,245863.24,NULL,Verzögerung,kuchelewa,s,mwakilishi,mwanauchumi,jaribio,NA,sdf,NA,0,NA,NA,NA,NA,NA,NA,NA,NA,NA,NA,NA,NA,NA,NA,NA,NA,NA,NA,NA
5e79b,shallow,flow.Sequence,3_0_0_0_6_1,NA,NA,completion,11048.68,234784,234781.32,234797.88,245846.56,245870,2023-10-16T11:44:39Z,245863.24,NULL,Verzögerung,kuchelewa,s,mwakilishi,mwanauchumi,jaribio,NA,sdf,NA,0,NA,NA,NA,NA,NA,NA,NA,NA,NA,NA,NA,NA,NA,NA,NA,NA,NA,NA,NA
5e79b,task,flow.Sequence,3_0_0_0_6,NA,NA,completion,11048.68,234784,234781.32,234797.88,245846.56,245871,2023-10-16T11:44:39Z,245863.24,NULL,Verzögerung,kuchelewa,s,mwakilishi,mwanauchumi,jaribio,NA,sdf,NA,0,NA,NA,NA,NA,NA,NA,NA,NA,NA,NA,NA,NA,NA,NA,NA,NA,NA,NA,NA
5e79b,deep,flow.Sequence,3_0_0_0_7_0,NA,NA,skipped,NA,245871,NA,NA,245846.56,245871,2023-10-16T11:44:39Z,245863.24,NULL,Sympathie,mapendano,s,dhamiria,fungamano,maazimio,NA,sdf,NA,0,NA,NA,NA,NA,NA,NA,NA,NA,NA,NA,NA,NA,NA,NA,NA,NA,NA,NA,NA
5e79b,Shallow Question,html.Page,3_0_0_0_7_1_0,NA,NA,form submission,6549.76,245872,245846.56,245863.24,252413,252413,2023-10-16T11:44:46Z,252412.32,NULL,Sympathie,mapendano,s,dhamiria,fungamano,maazimio,fungamano,NA,NA,0,NA,NA,NA,NA,NA,NA,NA,NA,NA,NA,NA,NA,NA,NA,NA,NA,NA,NA,NA
5e79b,"""Richtig""-Screen",canvas.Screen,3_0_0_0_7_1_1,NA,NA,skipped,NA,252416,NA,NA,252413,252416,2023-10-16T11:44:46Z,252412.32,NULL,Sympathie,mapendano,s,dhamiria,fungamano,maazimio,NA,sdf,NA,0,NA,NA,NA,NA,NA,NA,NA,NA,NA,NA,NA,NA,NA,NA,NA,NA,NA,NA,NA
5e79b,"""Falsch""-Screen",canvas.Screen,3_0_0_0_7_1_2,NA,NA,timeout,4999.44,252418,252408.88,252412.32,257395.08,257396,2023-10-16T11:44:51Z,257411.76,NULL,Sympathie,mapendano,s,dhamiria,fungamano,maazimio,NA,sdf,0,0,NA,NA,NA,NA,NA,NA,NA,NA,NA,NA,NA,NA,NA,NA,NA,NA,NA,NA,NA
5e79b,shallow,flow.Sequence,3_0_0_0_7_1,NA,NA,completion,11531.84,245872,245846.56,245863.24,257395.08,257398,2023-10-16T11:44:51Z,257411.76,NULL,Sympathie,mapendano,s,dhamiria,fungamano,maazimio,NA,sdf,NA,0,NA,NA,NA,NA,NA,NA,NA,NA,NA,NA,NA,NA,NA,NA,NA,NA,NA,NA,NA
5e79b,task,flow.Sequence,3_0_0_0_7,NA,NA,completion,11531.84,245871,245846.56,245863.24,257395.08,257398,2023-10-16T11:44:51Z,257411.76,NULL,Sympathie,mapendano,s,dhamiria,fungamano,maazimio,NA,sdf,NA,0,NA,NA,NA,NA,NA,NA,NA,NA,NA,NA,NA,NA,NA,NA,NA,NA,NA,NA,NA
5e79b,block,flow.Loop,3_0_0_0,NA,NA,completion,116748.94,140646,140645.5,140646.14,257395.08,257399,2023-10-16T11:44:51Z,257411.76,NULL,NA,NA,NA,NA,NA,NA,NA,sdf,NA,0,NA,NA,NA,NA,NA,NA,NA,NA,NA,NA,NA,NA,NA,NA,NA,NA,NA,NA,NA
5e79b,weiter,canvas.Screen,3_0_0_1,sdf,keypress(Space),response,4873.24,257400,257395.08,257411.76,262285,262298,2023-10-16T11:44:56Z,262363.46,NULL,NA,NA,NA,NA,NA,NA,NA,sdf,NA,0,NA,NA,NA,NA,NA,NA,NA,NA,NA,NA,NA,NA,NA,NA,NA,NA,NA,NA,NA
5e79b,check continue,flow.Sequence,3_0_0,NA,NA,completion,121638.86,140646,140645.5,140646.14,262285,262298,2023-10-16T11:44:56Z,262363.46,NULL,NA,NA,NA,NA,NA,NA,NA,sdf,NA,0,NA,NA,NA,NA,NA,NA,NA,NA,NA,NA,NA,NA,NA,NA,NA,NA,NA,NA,NA
5e79b,Deep Question,html.Page,3_0_1_0_0_0_0,NA,NA,form submission,11623.54,262363,262363.1,262363.46,273987,273988,2023-10-16T11:45:07Z,273992.92,NULL,Prüfung,mtihani,d,NA,NA,NA,misabaa,NA,NA,1,NA,NA,NA,NA,NA,NA,NA,NA,NA,NA,NA,NA,NA,NA,NA,NA,NA,NA,NA
5e79b,"""Richtig""-Screen",canvas.Screen,3_0_1_0_0_0_1,NA,NA,skipped,NA,273990,NA,NA,273987,273990,2023-10-16T11:45:07Z,273992.92,NULL,Prüfung,mtihani,d,NA,NA,NA,NA,sdfdsf,NA,1,NA,NA,NA,NA,NA,NA,NA,NA,NA,NA,NA,NA,NA,NA,NA,NA,NA,NA,NA
5e79b,"""Falsch""-Screen",canvas.Screen,3_0_1_0_0_0_2,NA,NA,timeout,4999.4,273992,273986.24,273992.92,278975.66,278978,2023-10-16T11:45:12Z,278992.32,NULL,Prüfung,mtihani,d,NA,NA,NA,NA,sdfdsf,0,1,NA,NA,NA,NA,NA,NA,NA,NA,NA,NA,NA,NA,NA,NA,NA,NA,NA,NA,NA
5e79b,deep,flow.Sequence,3_0_1_0_0_0,NA,NA,completion,16612.2,262363,262363.1,262363.46,278975.66,278978,2023-10-16T11:45:12Z,278992.32,NULL,Prüfung,mtihani,d,NA,NA,NA,NA,sdfdsf,NA,1,NA,NA,NA,NA,NA,NA,NA,NA,NA,NA,NA,NA,NA,NA,NA,NA,NA,NA,NA
5e79b,shallow,flow.Sequence,3_0_1_0_0_1,NA,NA,skipped,NA,278979,NA,NA,278975.66,278979,2023-10-16T11:45:12Z,278992.32,NULL,Prüfung,mtihani,d,NA,NA,NA,NA,sdfdsf,NA,1,NA,NA,NA,NA,NA,NA,NA,NA,NA,NA,NA,NA,NA,NA,NA,NA,NA,NA,NA
5e79b,task,flow.Sequence,3_0_1_0_0,NA,NA,completion,16612.2,262363,262363.1,262363.46,278975.66,278980,2023-10-16T11:45:12Z,278992.32,NULL,Prüfung,mtihani,d,NA,NA,NA,NA,sdfdsf,NA,1,NA,NA,NA,NA,NA,NA,NA,NA,NA,NA,NA,NA,NA,NA,NA,NA,NA,NA,NA
5e79b,deep,flow.Sequence,3_0_1_0_1_0,NA,NA,skipped,NA,278980,NA,NA,278975.66,278980,2023-10-16T11:45:12Z,278992.32,NULL,Sympathie,mapendano,s,dhamiria,fungamano,maazimio,NA,sdfdsf,NA,1,NA,NA,NA,NA,NA,NA,NA,NA,NA,NA,NA,NA,NA,NA,NA,NA,NA,NA,NA
5e79b,Shallow Question,html.Page,3_0_1_0_1_1_0,NA,NA,form submission,13739.68,278980,278975.66,278992.32,292732,292732,2023-10-16T11:45:26Z,292740.52,NULL,Sympathie,mapendano,s,dhamiria,fungamano,maazimio,mapendano,NA,NA,1,NA,NA,NA,NA,NA,NA,NA,NA,NA,NA,NA,NA,NA,NA,NA,NA,NA,NA,NA
5e79b,"""Richtig""-Screen",canvas.Screen,3_0_1_0_1_1_1,NA,NA,timeout,4999.42,292735,292726.98,292740.52,297723.28,297724,2023-10-16T11:45:31Z,297739.94,NULL,Sympathie,mapendano,s,dhamiria,fungamano,maazimio,NA,sdfdsf,1,1,NA,NA,NA,NA,NA,NA,NA,NA,NA,NA,NA,NA,NA,NA,NA,NA,NA,NA,NA
5e79b,"""Falsch""-Screen",canvas.Screen,3_0_1_0_1_1_2,NA,NA,skipped,NA,297732,NA,NA,297723.28,297732,2023-10-16T11:45:31Z,297739.94,NULL,Sympathie,mapendano,s,dhamiria,fungamano,maazimio,NA,sdfdsf,NA,1,NA,NA,NA,NA,NA,NA,NA,NA,NA,NA,NA,NA,NA,NA,NA,NA,NA,NA,NA
5e79b,shallow,flow.Sequence,3_0_1_0_1_1,NA,NA,completion,18730.96,278980,278975.66,278992.32,297723.28,297733,2023-10-16T11:45:31Z,297739.94,NULL,Sympathie,mapendano,s,dhamiria,fungamano,maazimio,NA,sdfdsf,NA,1,NA,NA,NA,NA,NA,NA,NA,NA,NA,NA,NA,NA,NA,NA,NA,NA,NA,NA,NA
5e79b,task,flow.Sequence,3_0_1_0_1,NA,NA,completion,18730.96,278980,278975.66,278992.32,297723.28,297733,2023-10-16T11:45:31Z,297739.94,NULL,Sympathie,mapendano,s,dhamiria,fungamano,maazimio,NA,sdfdsf,NA,1,NA,NA,NA,NA,NA,NA,NA,NA,NA,NA,NA,NA,NA,NA,NA,NA,NA,NA,NA
5e79b,Deep Question,html.Page,3_0_1_0_2_0_0,NA,NA,form submission,5575.06,297734,297723.28,297739.94,303315,303315,2023-10-16T11:45:37Z,303322.48,NULL,Beweis,ushahidi,d,NA,NA,NA,msagio,NA,NA,1,NA,NA,NA,NA,NA,NA,NA,NA,NA,NA,NA,NA,NA,NA,NA,NA,NA,NA,NA
5e79b,"""Richtig""-Screen",canvas.Screen,3_0_1_0_2_0_1,NA,NA,skipped,NA,303318,NA,NA,303315,303318,2023-10-16T11:45:37Z,303322.48,NULL,Beweis,ushahidi,d,NA,NA,NA,NA,sdfdsf,NA,1,NA,NA,NA,NA,NA,NA,NA,NA,NA,NA,NA,NA,NA,NA,NA,NA,NA,NA,NA
5e79b,"""Falsch""-Screen",canvas.Screen,3_0_1_0_2_0_2,NA,NA,timeout,4999.34,303321,303314.28,303322.48,308305.28,308307,2023-10-16T11:45:42Z,308321.82,NULL,Beweis,ushahidi,d,NA,NA,NA,NA,sdfdsf,0,1,NA,NA,NA,NA,NA,NA,NA,NA,NA,NA,NA,NA,NA,NA,NA,NA,NA,NA,NA
5e79b,deep,flow.Sequence,3_0_1_0_2_0,NA,NA,completion,10565.34,297734,297723.28,297739.94,308305.28,308308,2023-10-16T11:45:42Z,308321.82,NULL,Beweis,ushahidi,d,NA,NA,NA,NA,sdfdsf,NA,1,NA,NA,NA,NA,NA,NA,NA,NA,NA,NA,NA,NA,NA,NA,NA,NA,NA,NA,NA
5e79b,shallow,flow.Sequence,3_0_1_0_2_1,NA,NA,skipped,NA,308308,NA,NA,308305.28,308309,2023-10-16T11:45:42Z,308321.82,NULL,Beweis,ushahidi,d,NA,NA,NA,NA,sdfdsf,NA,1,NA,NA,NA,NA,NA,NA,NA,NA,NA,NA,NA,NA,NA,NA,NA,NA,NA,NA,NA
5e79b,task,flow.Sequence,3_0_1_0_2,NA,NA,completion,10565.34,297733,297723.28,297739.94,308305.28,308309,2023-10-16T11:45:42Z,308321.82,NULL,Beweis,ushahidi,d,NA,NA,NA,NA,sdfdsf,NA,1,NA,NA,NA,NA,NA,NA,NA,NA,NA,NA,NA,NA,NA,NA,NA,NA,NA,NA,NA
5e79b,deep,flow.Sequence,3_0_1_0_3_0,NA,NA,skipped,NA,308309,NA,NA,308305.28,308309,2023-10-16T11:45:42Z,308321.82,NULL,Annäherung,maegesho,s,madahili,kujiamini,mapendekezo,NA,sdfdsf,NA,1,NA,NA,NA,NA,NA,NA,NA,NA,NA,NA,NA,NA,NA,NA,NA,NA,NA,NA,NA
5e79b,Shallow Question,html.Page,3_0_1_0_3_1_0,NA,NA,form submission,7840.18,308310,308305.28,308321.82,316162,316162,2023-10-16T11:45:50Z,316170.82,NULL,Annäherung,maegesho,s,madahili,kujiamini,mapendekezo,madahili,NA,NA,1,NA,NA,NA,NA,NA,NA,NA,NA,NA,NA,NA,NA,NA,NA,NA,NA,NA,NA,NA
5e79b,"""Richtig""-Screen",canvas.Screen,3_0_1_0_3_1_1,NA,NA,skipped,NA,316166,NA,NA,316162,316166,2023-10-16T11:45:50Z,316170.82,NULL,Annäherung,maegesho,s,madahili,kujiamini,mapendekezo,NA,sdfdsf,NA,1,NA,NA,NA,NA,NA,NA,NA,NA,NA,NA,NA,NA,NA,NA,NA,NA,NA,NA,NA
5e79b,"""Falsch""-Screen",canvas.Screen,3_0_1_0_3_1_2,NA,NA,timeout,4999.34,316170,316158.1,316170.82,321153.62,321155,2023-10-16T11:45:55Z,321170.16,NULL,Annäherung,maegesho,s,madahili,kujiamini,mapendekezo,NA,sdfdsf,0,1,NA,NA,NA,NA,NA,NA,NA,NA,NA,NA,NA,NA,NA,NA,NA,NA,NA,NA,NA
5e79b,shallow,flow.Sequence,3_0_1_0_3_1,NA,NA,completion,12831.8,308310,308305.28,308321.82,321153.62,321156,2023-10-16T11:45:55Z,321170.16,NULL,Annäherung,maegesho,s,madahili,kujiamini,mapendekezo,NA,sdfdsf,NA,1,NA,NA,NA,NA,NA,NA,NA,NA,NA,NA,NA,NA,NA,NA,NA,NA,NA,NA,NA
5e79b,task,flow.Sequence,3_0_1_0_3,NA,NA,completion,12831.8,308309,308305.28,308321.82,321153.62,321156,2023-10-16T11:45:55Z,321170.16,NULL,Annäherung,maegesho,s,madahili,kujiamini,mapendekezo,NA,sdfdsf,NA,1,NA,NA,NA,NA,NA,NA,NA,NA,NA,NA,NA,NA,NA,NA,NA,NA,NA,NA,NA
5e79b,deep,flow.Sequence,3_0_1_0_4_0,NA,NA,skipped,NA,321157,NA,NA,321153.62,321157,2023-10-16T11:45:55Z,321170.16,NULL,Verzögerung,kuchelewa,s,mwakilishi,mwanauchumi,jaribio,NA,sdfdsf,NA,1,NA,NA,NA,NA,NA,NA,NA,NA,NA,NA,NA,NA,NA,NA,NA,NA,NA,NA,NA
5e79b,Shallow Question,html.Page,3_0_1_0_4_1_0,NA,NA,form submission,6993.84,321157,321153.62,321170.16,328164,328165,2023-10-16T11:46:02Z,328169.28,NULL,Verzögerung,kuchelewa,s,mwakilishi,mwanauchumi,jaribio,kuchelewa,NA,NA,1,NA,NA,NA,NA,NA,NA,NA,NA,NA,NA,NA,NA,NA,NA,NA,NA,NA,NA,NA
5e79b,"""Richtig""-Screen",canvas.Screen,3_0_1_0_4_1_1,NA,NA,timeout,4999.42,328169,328158.74,328169.28,333152.04,333153,2023-10-16T11:46:07Z,333168.7,NULL,Verzögerung,kuchelewa,s,mwakilishi,mwanauchumi,jaribio,NA,sdfdsf,1,1,NA,NA,NA,NA,NA,NA,NA,NA,NA,NA,NA,NA,NA,NA,NA,NA,NA,NA,NA
5e79b,"""Falsch""-Screen",canvas.Screen,3_0_1_0_4_1_2,NA,NA,skipped,NA,333158,NA,NA,333152.04,333158,2023-10-16T11:46:07Z,333168.7,NULL,Verzögerung,kuchelewa,s,mwakilishi,mwanauchumi,jaribio,NA,sdfdsf,NA,1,NA,NA,NA,NA,NA,NA,NA,NA,NA,NA,NA,NA,NA,NA,NA,NA,NA,NA,NA
5e79b,shallow,flow.Sequence,3_0_1_0_4_1,NA,NA,completion,11981.88,321157,321153.62,321170.16,333152.04,333159,2023-10-16T11:46:07Z,333168.7,NULL,Verzögerung,kuchelewa,s,mwakilishi,mwanauchumi,jaribio,NA,sdfdsf,NA,1,NA,NA,NA,NA,NA,NA,NA,NA,NA,NA,NA,NA,NA,NA,NA,NA,NA,NA,NA
5e79b,task,flow.Sequence,3_0_1_0_4,NA,NA,completion,11981.88,321157,321153.62,321170.16,333152.04,333159,2023-10-16T11:46:07Z,333168.7,NULL,Verzögerung,kuchelewa,s,mwakilishi,mwanauchumi,jaribio,NA,sdfdsf,NA,1,NA,NA,NA,NA,NA,NA,NA,NA,NA,NA,NA,NA,NA,NA,NA,NA,NA,NA,NA
5e79b,Deep Question,html.Page,3_0_1_0_5_0_0,NA,NA,form submission,6458.3,333159,333152.04,333168.7,339627,339627,2023-10-16T11:46:13Z,339634.5,NULL,Polizist,msongora,d,NA,NA,NA,mitshui,NA,NA,1,NA,NA,NA,NA,NA,NA,NA,NA,NA,NA,NA,NA,NA,NA,NA,NA,NA,NA,NA
5e79b,"""Richtig""-Screen",canvas.Screen,3_0_1_0_5_0_1,NA,NA,skipped,NA,339630,NA,NA,339627,339630,2023-10-16T11:46:13Z,339634.5,NULL,Polizist,msongora,d,NA,NA,NA,NA,sdfdsf,NA,1,NA,NA,NA,NA,NA,NA,NA,NA,NA,NA,NA,NA,NA,NA,NA,NA,NA,NA,NA
5e79b,"""Falsch""-Screen",canvas.Screen,3_0_1_0_5_0_2,NA,NA,timeout,4999.36,339632,339625.98,339634.5,344617.34,344625,2023-10-16T11:46:18Z,344633.86,NULL,Polizist,msongora,d,NA,NA,NA,NA,sdfdsf,0,1,NA,NA,NA,NA,NA,NA,NA,NA,NA,NA,NA,NA,NA,NA,NA,NA,NA,NA,NA
5e79b,deep,flow.Sequence,3_0_1_0_5_0,NA,NA,completion,11448.64,333159,333152.04,333168.7,344617.34,344628,2023-10-16T11:46:18Z,344633.86,NULL,Polizist,msongora,d,NA,NA,NA,NA,sdfdsf,NA,1,NA,NA,NA,NA,NA,NA,NA,NA,NA,NA,NA,NA,NA,NA,NA,NA,NA,NA,NA
5e79b,shallow,flow.Sequence,3_0_1_0_5_1,NA,NA,skipped,NA,344628,NA,NA,344617.34,344629,2023-10-16T11:46:18Z,344633.86,NULL,Polizist,msongora,d,NA,NA,NA,NA,sdfdsf,NA,1,NA,NA,NA,NA,NA,NA,NA,NA,NA,NA,NA,NA,NA,NA,NA,NA,NA,NA,NA
5e79b,task,flow.Sequence,3_0_1_0_5,NA,NA,completion,11448.64,333159,333152.04,333168.7,344617.34,344630,2023-10-16T11:46:18Z,344633.86,NULL,Polizist,msongora,d,NA,NA,NA,NA,sdfdsf,NA,1,NA,NA,NA,NA,NA,NA,NA,NA,NA,NA,NA,NA,NA,NA,NA,NA,NA,NA,NA
5e79b,Deep Question,html.Page,3_0_1_0_6_0_0,NA,NA,form submission,45043.14,344630,344617.34,344633.86,389677,389678,2023-10-16T11:47:03Z,389678.1,NULL,Aufstand,ugomaji,d,NA,NA,NA,hilo,NA,NA,1,NA,NA,NA,NA,NA,NA,NA,NA,NA,NA,NA,NA,NA,NA,NA,NA,NA,NA,NA
5e79b,"""Richtig""-Screen",canvas.Screen,3_0_1_0_6_0_1,NA,NA,skipped,NA,389681,NA,NA,389677,389681,2023-10-16T11:47:03Z,389678.1,NULL,Aufstand,ugomaji,d,NA,NA,NA,NA,sdfdsf,NA,1,NA,NA,NA,NA,NA,NA,NA,NA,NA,NA,NA,NA,NA,NA,NA,NA,NA,NA,NA
5e79b,"""Falsch""-Screen",canvas.Screen,3_0_1_0_6_0_2,NA,NA,timeout,4999.36,389683,389676.48,389678.1,394660.8,394661,2023-10-16T11:47:08Z,394677.46,NULL,Aufstand,ugomaji,d,NA,NA,NA,NA,sdfdsf,0,1,NA,NA,NA,NA,NA,NA,NA,NA,NA,NA,NA,NA,NA,NA,NA,NA,NA,NA,NA
5e79b,deep,flow.Sequence,3_0_1_0_6_0,NA,NA,completion,50026.94,344630,344617.34,344633.86,394660.8,394662,2023-10-16T11:47:08Z,394677.46,NULL,Aufstand,ugomaji,d,NA,NA,NA,NA,sdfdsf,NA,1,NA,NA,NA,NA,NA,NA,NA,NA,NA,NA,NA,NA,NA,NA,NA,NA,NA,NA,NA
5e79b,shallow,flow.Sequence,3_0_1_0_6_1,NA,NA,skipped,NA,394663,NA,NA,394660.8,394663,2023-10-16T11:47:08Z,394677.46,NULL,Aufstand,ugomaji,d,NA,NA,NA,NA,sdfdsf,NA,1,NA,NA,NA,NA,NA,NA,NA,NA,NA,NA,NA,NA,NA,NA,NA,NA,NA,NA,NA
5e79b,task,flow.Sequence,3_0_1_0_6,NA,NA,completion,50026.94,344630,344617.34,344633.86,394660.8,394663,2023-10-16T11:47:08Z,394677.46,NULL,Aufstand,ugomaji,d,NA,NA,NA,NA,sdfdsf,NA,1,NA,NA,NA,NA,NA,NA,NA,NA,NA,NA,NA,NA,NA,NA,NA,NA,NA,NA,NA
5e79b,deep,flow.Sequence,3_0_1_0_7_0,NA,NA,skipped,NA,394663,NA,NA,394660.8,394663,2023-10-16T11:47:08Z,394677.46,NULL,Kultur,utamaduni,s,shetani,gerezani,mazingira,NA,sdfdsf,NA,1,NA,NA,NA,NA,NA,NA,NA,NA,NA,NA,NA,NA,NA,NA,NA,NA,NA,NA,NA
5e79b,Shallow Question,html.Page,3_0_1_0_7_1_0,NA,NA,form submission,19112.54,394665,394660.8,394677.46,413790,413793,2023-10-16T11:47:27Z,413791.68,NULL,Kultur,utamaduni,s,shetani,gerezani,mazingira,mazingira,NA,NA,1,NA,NA,NA,NA,NA,NA,NA,NA,NA,NA,NA,NA,NA,NA,NA,NA,NA,NA,NA
5e79b,"""Richtig""-Screen",canvas.Screen,3_0_1_0_7_1_1,NA,NA,skipped,NA,413802,NA,NA,413790,413802,2023-10-16T11:47:27Z,413791.68,NULL,Kultur,utamaduni,s,shetani,gerezani,mazingira,NA,sdfdsf,NA,1,NA,NA,NA,NA,NA,NA,NA,NA,NA,NA,NA,NA,NA,NA,NA,NA,NA,NA,NA
5e79b,"""Falsch""-Screen",canvas.Screen,3_0_1_0_7_1_2,NA,NA,timeout,4999.4,413806,413783.82,413791.68,418774.52,418777,2023-10-16T11:47:32Z,418791.08,NULL,Kultur,utamaduni,s,shetani,gerezani,mazingira,NA,sdfdsf,0,1,NA,NA,NA,NA,NA,NA,NA,NA,NA,NA,NA,NA,NA,NA,NA,NA,NA,NA,NA
5e79b,shallow,flow.Sequence,3_0_1_0_7_1,NA,NA,completion,24097.06,394665,394660.8,394677.46,418774.52,418778,2023-10-16T11:47:32Z,418791.08,NULL,Kultur,utamaduni,s,shetani,gerezani,mazingira,NA,sdfdsf,NA,1,NA,NA,NA,NA,NA,NA,NA,NA,NA,NA,NA,NA,NA,NA,NA,NA,NA,NA,NA
5e79b,task,flow.Sequence,3_0_1_0_7,NA,NA,completion,24097.06,394663,394660.8,394677.46,418774.52,418778,2023-10-16T11:47:32Z,418791.08,NULL,Kultur,utamaduni,s,shetani,gerezani,mazingira,NA,sdfdsf,NA,1,NA,NA,NA,NA,NA,NA,NA,NA,NA,NA,NA,NA,NA,NA,NA,NA,NA,NA,NA
5e79b,block,flow.Loop,3_0_1_0,NA,NA,completion,156411.06,262363,262363.1,262363.46,418774.52,418779,2023-10-16T11:47:32Z,418791.08,NULL,NA,NA,NA,NA,NA,NA,NA,sdfdsf,NA,1,NA,NA,NA,NA,NA,NA,NA,NA,NA,NA,NA,NA,NA,NA,NA,NA,NA,NA,NA
5e79b,weiter,canvas.Screen,3_0_1_1,sdf,keypress(Space),response,1134.92,418779,418774.52,418791.08,419926,419935,2023-10-16T11:47:33Z,419995.62,NULL,NA,NA,NA,NA,NA,NA,NA,sdfdsf,NA,1,NA,NA,NA,NA,NA,NA,NA,NA,NA,NA,NA,NA,NA,NA,NA,NA,NA,NA,NA
5e79b,check continue,flow.Sequence,3_0_1,NA,NA,completion,157562.54,262363,262363.1,262363.46,419926,419935,2023-10-16T11:47:33Z,419995.62,NULL,NA,NA,NA,NA,NA,NA,NA,sdfdsf,NA,1,NA,NA,NA,NA,NA,NA,NA,NA,NA,NA,NA,NA,NA,NA,NA,NA,NA,NA,NA
5e79b,deep,flow.Sequence,3_0_2_0_0_0,NA,NA,skipped,NA,419995,NA,NA,419926,419995,2023-10-16T11:47:33Z,419995.62,NULL,Sympathie,mapendano,s,dhamiria,fungamano,maazimio,NA,sdf,NA,2,NA,NA,NA,NA,NA,NA,NA,NA,NA,NA,NA,NA,NA,NA,NA,NA,NA,NA,NA
5e79b,Shallow Question,html.Page,3_0_2_0_0_1_0,NA,NA,form submission,6376.38,419995,419995.32,419995.62,426372,426373,2023-10-16T11:47:40Z,426373.42,NULL,Sympathie,mapendano,s,dhamiria,fungamano,maazimio,mapendano,NA,NA,2,NA,NA,NA,NA,NA,NA,NA,NA,NA,NA,NA,NA,NA,NA,NA,NA,NA,NA,NA
5e79b,"""Richtig""-Screen",canvas.Screen,3_0_2_0_0_1_1,NA,NA,timeout,4999.36,426376,426366.36,426373.42,431356.26,431358,2023-10-16T11:47:45Z,431372.78,NULL,Sympathie,mapendano,s,dhamiria,fungamano,maazimio,NA,sdf,1,2,NA,NA,NA,NA,NA,NA,NA,NA,NA,NA,NA,NA,NA,NA,NA,NA,NA,NA,NA
5e79b,"""Falsch""-Screen",canvas.Screen,3_0_2_0_0_1_2,NA,NA,skipped,NA,431364,NA,NA,431356.26,431365,2023-10-16T11:47:45Z,431372.78,NULL,Sympathie,mapendano,s,dhamiria,fungamano,maazimio,NA,sdf,NA,2,NA,NA,NA,NA,NA,NA,NA,NA,NA,NA,NA,NA,NA,NA,NA,NA,NA,NA,NA
5e79b,shallow,flow.Sequence,3_0_2_0_0_1,NA,NA,completion,11360.64,419995,419995.32,419995.62,431356.26,431365,2023-10-16T11:47:45Z,431372.78,NULL,Sympathie,mapendano,s,dhamiria,fungamano,maazimio,NA,sdf,NA,2,NA,NA,NA,NA,NA,NA,NA,NA,NA,NA,NA,NA,NA,NA,NA,NA,NA,NA,NA
5e79b,task,flow.Sequence,3_0_2_0_0,NA,NA,completion,11360.64,419995,419995.32,419995.62,431356.26,431366,2023-10-16T11:47:45Z,431372.78,NULL,Sympathie,mapendano,s,dhamiria,fungamano,maazimio,NA,sdf,NA,2,NA,NA,NA,NA,NA,NA,NA,NA,NA,NA,NA,NA,NA,NA,NA,NA,NA,NA,NA
5e79b,deep,flow.Sequence,3_0_2_0_1_0,NA,NA,skipped,NA,431366,NA,NA,431356.26,431366,2023-10-16T11:47:45Z,431372.78,NULL,Kultur,utamaduni,s,shetani,gerezani,mazingira,NA,sdf,NA,2,NA,NA,NA,NA,NA,NA,NA,NA,NA,NA,NA,NA,NA,NA,NA,NA,NA,NA,NA
5e79b,Shallow Question,html.Page,3_0_2_0_1_1_0,NA,NA,form submission,7484.22,431366,431356.26,431372.78,438857,438858,2023-10-16T11:47:52Z,438855.12,NULL,Kultur,utamaduni,s,shetani,gerezani,mazingira,utamaduni,NA,NA,2,NA,NA,NA,NA,NA,NA,NA,NA,NA,NA,NA,NA,NA,NA,NA,NA,NA,NA,NA
5e79b,"""Richtig""-Screen",canvas.Screen,3_0_2_0_1_1_1,NA,NA,timeout,4999.5,438863,438850.9,438855.12,443838.06,443840,2023-10-16T11:47:57Z,443854.62,NULL,Kultur,utamaduni,s,shetani,gerezani,mazingira,NA,sdf,1,2,NA,NA,NA,NA,NA,NA,NA,NA,NA,NA,NA,NA,NA,NA,NA,NA,NA,NA,NA
5e79b,"""Falsch""-Screen",canvas.Screen,3_0_2_0_1_1_2,NA,NA,skipped,NA,443845,NA,NA,443838.06,443846,2023-10-16T11:47:57Z,443854.62,NULL,Kultur,utamaduni,s,shetani,gerezani,mazingira,NA,sdf,NA,2,NA,NA,NA,NA,NA,NA,NA,NA,NA,NA,NA,NA,NA,NA,NA,NA,NA,NA,NA
5e79b,shallow,flow.Sequence,3_0_2_0_1_1,NA,NA,completion,12465.28,431366,431356.26,431372.78,443838.06,443846,2023-10-16T11:47:57Z,443854.62,NULL,Kultur,utamaduni,s,shetani,gerezani,mazingira,NA,sdf,NA,2,NA,NA,NA,NA,NA,NA,NA,NA,NA,NA,NA,NA,NA,NA,NA,NA,NA,NA,NA
5e79b,task,flow.Sequence,3_0_2_0_1,NA,NA,completion,12465.28,431366,431356.26,431372.78,443838.06,443847,2023-10-16T11:47:57Z,443854.62,NULL,Kultur,utamaduni,s,shetani,gerezani,mazingira,NA,sdf,NA,2,NA,NA,NA,NA,NA,NA,NA,NA,NA,NA,NA,NA,NA,NA,NA,NA,NA,NA,NA
5e79b,deep,flow.Sequence,3_0_2_0_2_0,NA,NA,skipped,NA,443847,NA,NA,443838.06,443847,2023-10-16T11:47:57Z,443854.62,NULL,Verzögerung,kuchelewa,s,mwakilishi,mwanauchumi,jaribio,NA,sdf,NA,2,NA,NA,NA,NA,NA,NA,NA,NA,NA,NA,NA,NA,NA,NA,NA,NA,NA,NA,NA
5e79b,Shallow Question,html.Page,3_0_2_0_2_1_0,NA,NA,form submission,10889.38,443847,443838.06,443854.62,454744,454744,2023-10-16T11:48:08Z,454753.16,NULL,Verzögerung,kuchelewa,s,mwakilishi,mwanauchumi,jaribio,kuchelewa,NA,NA,2,NA,NA,NA,NA,NA,NA,NA,NA,NA,NA,NA,NA,NA,NA,NA,NA,NA,NA,NA
5e79b,"""Richtig""-Screen",canvas.Screen,3_0_2_0_2_1_1,NA,NA,timeout,4999.38,454746,454739.9,454753.16,459735.88,459737,2023-10-16T11:48:13Z,459752.54,NULL,Verzögerung,kuchelewa,s,mwakilishi,mwanauchumi,jaribio,NA,sdf,1,2,NA,NA,NA,NA,NA,NA,NA,NA,NA,NA,NA,NA,NA,NA,NA,NA,NA,NA,NA
5e79b,"""Falsch""-Screen",canvas.Screen,3_0_2_0_2_1_2,NA,NA,skipped,NA,459744,NA,NA,459735.88,459744,2023-10-16T11:48:13Z,459752.54,NULL,Verzögerung,kuchelewa,s,mwakilishi,mwanauchumi,jaribio,NA,sdf,NA,2,NA,NA,NA,NA,NA,NA,NA,NA,NA,NA,NA,NA,NA,NA,NA,NA,NA,NA,NA
5e79b,shallow,flow.Sequence,3_0_2_0_2_1,NA,NA,completion,15881.26,443847,443838.06,443854.62,459735.88,459744,2023-10-16T11:48:13Z,459752.54,NULL,Verzögerung,kuchelewa,s,mwakilishi,mwanauchumi,jaribio,NA,sdf,NA,2,NA,NA,NA,NA,NA,NA,NA,NA,NA,NA,NA,NA,NA,NA,NA,NA,NA,NA,NA
5e79b,task,flow.Sequence,3_0_2_0_2,NA,NA,completion,15881.26,443847,443838.06,443854.62,459735.88,459744,2023-10-16T11:48:13Z,459752.54,NULL,Verzögerung,kuchelewa,s,mwakilishi,mwanauchumi,jaribio,NA,sdf,NA,2,NA,NA,NA,NA,NA,NA,NA,NA,NA,NA,NA,NA,NA,NA,NA,NA,NA,NA,NA
5e79b,Deep Question,html.Page,3_0_2_0_3_0_0,NA,NA,form submission,4461.46,459745,459735.88,459752.54,464214,464214,2023-10-16T11:48:18Z,464218.64,NULL,Aufstand,ugomaji,d,NA,NA,NA,mitsui,NA,NA,2,NA,NA,NA,NA,NA,NA,NA,NA,NA,NA,NA,NA,NA,NA,NA,NA,NA,NA,NA
5e79b,"""Richtig""-Screen",canvas.Screen,3_0_2_0_3_0_1,NA,NA,skipped,NA,464216,NA,NA,464214,464216,2023-10-16T11:48:18Z,464218.64,NULL,Aufstand,ugomaji,d,NA,NA,NA,NA,sdf,NA,2,NA,NA,NA,NA,NA,NA,NA,NA,NA,NA,NA,NA,NA,NA,NA,NA,NA,NA,NA
5e79b,"""Falsch""-Screen",canvas.Screen,3_0_2_0_3_0_2,NA,NA,timeout,4999.34,464219,464212.62,464218.64,469201.36,469203,2023-10-16T11:48:23Z,469217.98,NULL,Aufstand,ugomaji,d,NA,NA,NA,NA,sdf,0,2,NA,NA,NA,NA,NA,NA,NA,NA,NA,NA,NA,NA,NA,NA,NA,NA,NA,NA,NA
5e79b,deep,flow.Sequence,3_0_2_0_3_0,NA,NA,completion,9448.82,459745,459735.88,459752.54,469201.36,469204,2023-10-16T11:48:23Z,469217.98,NULL,Aufstand,ugomaji,d,NA,NA,NA,NA,sdf,NA,2,NA,NA,NA,NA,NA,NA,NA,NA,NA,NA,NA,NA,NA,NA,NA,NA,NA,NA,NA
5e79b,shallow,flow.Sequence,3_0_2_0_3_1,NA,NA,skipped,NA,469204,NA,NA,469201.36,469204,2023-10-16T11:48:23Z,469217.98,NULL,Aufstand,ugomaji,d,NA,NA,NA,NA,sdf,NA,2,NA,NA,NA,NA,NA,NA,NA,NA,NA,NA,NA,NA,NA,NA,NA,NA,NA,NA,NA
5e79b,task,flow.Sequence,3_0_2_0_3,NA,NA,completion,9448.82,459745,459735.88,459752.54,469201.36,469205,2023-10-16T11:48:23Z,469217.98,NULL,Aufstand,ugomaji,d,NA,NA,NA,NA,sdf,NA,2,NA,NA,NA,NA,NA,NA,NA,NA,NA,NA,NA,NA,NA,NA,NA,NA,NA,NA,NA
5e79b,Deep Question,html.Page,3_0_2_0_4_0_0,NA,NA,form submission,10202.02,469205,469201.36,469217.98,479420,479420,2023-10-16T11:48:33Z,479433.7,NULL,Polizist,msongora,d,NA,NA,NA,gjkjl,NA,NA,2,NA,NA,NA,NA,NA,NA,NA,NA,NA,NA,NA,NA,NA,NA,NA,NA,NA,NA,NA
5e79b,"""Richtig""-Screen",canvas.Screen,3_0_2_0_4_0_1,NA,NA,skipped,NA,479421,NA,NA,479420,479421,2023-10-16T11:48:33Z,479433.7,NULL,Polizist,msongora,d,NA,NA,NA,NA,sdf,NA,2,NA,NA,NA,NA,NA,NA,NA,NA,NA,NA,NA,NA,NA,NA,NA,NA,NA,NA,NA
5e79b,"""Falsch""-Screen",canvas.Screen,3_0_2_0_4_0_2,NA,NA,timeout,4999.02,479423,479418.5,479433.7,484416.04,484417,2023-10-16T11:48:38Z,484432.72,NULL,Polizist,msongora,d,NA,NA,NA,NA,sdf,0,2,NA,NA,NA,NA,NA,NA,NA,NA,NA,NA,NA,NA,NA,NA,NA,NA,NA,NA,NA
5e79b,deep,flow.Sequence,3_0_2_0_4_0,NA,NA,completion,15198.06,469205,469201.36,469217.98,484416.04,484418,2023-10-16T11:48:38Z,484432.72,NULL,Polizist,msongora,d,NA,NA,NA,NA,sdf,NA,2,NA,NA,NA,NA,NA,NA,NA,NA,NA,NA,NA,NA,NA,NA,NA,NA,NA,NA,NA
5e79b,shallow,flow.Sequence,3_0_2_0_4_1,NA,NA,skipped,NA,484419,NA,NA,484416.04,484419,2023-10-16T11:48:38Z,484432.72,NULL,Polizist,msongora,d,NA,NA,NA,NA,sdf,NA,2,NA,NA,NA,NA,NA,NA,NA,NA,NA,NA,NA,NA,NA,NA,NA,NA,NA,NA,NA
5e79b,task,flow.Sequence,3_0_2_0_4,NA,NA,completion,15198.06,469205,469201.36,469217.98,484416.04,484420,2023-10-16T11:48:38Z,484432.72,NULL,Polizist,msongora,d,NA,NA,NA,NA,sdf,NA,2,NA,NA,NA,NA,NA,NA,NA,NA,NA,NA,NA,NA,NA,NA,NA,NA,NA,NA,NA
5e79b,Deep Question,html.Page,3_0_2_0_5_0_0,NA,NA,form submission,8935.28,484420,484416.04,484432.72,493368,493368,2023-10-16T11:48:47Z,493381.56,NULL,Prüfung,mtihani,d,NA,NA,NA,misafa,NA,NA,2,NA,NA,NA,NA,NA,NA,NA,NA,NA,NA,NA,NA,NA,NA,NA,NA,NA,NA,NA
5e79b,"""Richtig""-Screen",canvas.Screen,3_0_2_0_5_0_1,NA,NA,skipped,NA,493371,NA,NA,493368,493371,2023-10-16T11:48:47Z,493381.56,NULL,Prüfung,mtihani,d,NA,NA,NA,NA,sdf,NA,2,NA,NA,NA,NA,NA,NA,NA,NA,NA,NA,NA,NA,NA,NA,NA,NA,NA,NA,NA
5e79b,"""Falsch""-Screen",canvas.Screen,3_0_2_0_5_0_2,NA,NA,timeout,4999.38,493374,493367.26,493381.56,498364.28,498366,2023-10-16T11:48:52Z,498380.94,NULL,Prüfung,mtihani,d,NA,NA,NA,NA,sdf,0,2,NA,NA,NA,NA,NA,NA,NA,NA,NA,NA,NA,NA,NA,NA,NA,NA,NA,NA,NA
5e79b,deep,flow.Sequence,3_0_2_0_5_0,NA,NA,completion,13931.56,484420,484416.04,484432.72,498364.28,498366,2023-10-16T11:48:52Z,498380.94,NULL,Prüfung,mtihani,d,NA,NA,NA,NA,sdf,NA,2,NA,NA,NA,NA,NA,NA,NA,NA,NA,NA,NA,NA,NA,NA,NA,NA,NA,NA,NA
5e79b,shallow,flow.Sequence,3_0_2_0_5_1,NA,NA,skipped,NA,498366,NA,NA,498364.28,498366,2023-10-16T11:48:52Z,498380.94,NULL,Prüfung,mtihani,d,NA,NA,NA,NA,sdf,NA,2,NA,NA,NA,NA,NA,NA,NA,NA,NA,NA,NA,NA,NA,NA,NA,NA,NA,NA,NA
5e79b,task,flow.Sequence,3_0_2_0_5,NA,NA,completion,13931.56,484420,484416.04,484432.72,498364.28,498368,2023-10-16T11:48:52Z,498380.94,NULL,Prüfung,mtihani,d,NA,NA,NA,NA,sdf,NA,2,NA,NA,NA,NA,NA,NA,NA,NA,NA,NA,NA,NA,NA,NA,NA,NA,NA,NA,NA
5e79b,deep,flow.Sequence,3_0_2_0_6_0,NA,NA,skipped,NA,498368,NA,NA,498364.28,498368,2023-10-16T11:48:52Z,498380.94,NULL,Annäherung,maegesho,s,madahili,kujiamini,mapendekezo,NA,sdf,NA,2,NA,NA,NA,NA,NA,NA,NA,NA,NA,NA,NA,NA,NA,NA,NA,NA,NA,NA,NA
5e79b,Shallow Question,html.Page,3_0_2_0_6_1_0,NA,NA,form submission,13049.06,498368,498364.28,498380.94,511430,511430,2023-10-16T11:49:05Z,511429.16,NULL,Annäherung,maegesho,s,madahili,kujiamini,mapendekezo,maegesho,NA,NA,2,NA,NA,NA,NA,NA,NA,NA,NA,NA,NA,NA,NA,NA,NA,NA,NA,NA,NA,NA
5e79b,"""Richtig""-Screen",canvas.Screen,3_0_2_0_6_1_1,NA,NA,timeout,4999.48,511433,511427.6,511429.16,516411.98,516418,2023-10-16T11:49:10Z,516428.64,NULL,Annäherung,maegesho,s,madahili,kujiamini,mapendekezo,NA,sdf,1,2,NA,NA,NA,NA,NA,NA,NA,NA,NA,NA,NA,NA,NA,NA,NA,NA,NA,NA,NA
5e79b,"""Falsch""-Screen",canvas.Screen,3_0_2_0_6_1_2,NA,NA,skipped,NA,516435,NA,NA,516411.98,516435,2023-10-16T11:49:10Z,516428.64,NULL,Annäherung,maegesho,s,madahili,kujiamini,mapendekezo,NA,sdf,NA,2,NA,NA,NA,NA,NA,NA,NA,NA,NA,NA,NA,NA,NA,NA,NA,NA,NA,NA,NA
5e79b,shallow,flow.Sequence,3_0_2_0_6_1,NA,NA,completion,18031.04,498368,498364.28,498380.94,516411.98,516435,2023-10-16T11:49:10Z,516428.64,NULL,Annäherung,maegesho,s,madahili,kujiamini,mapendekezo,NA,sdf,NA,2,NA,NA,NA,NA,NA,NA,NA,NA,NA,NA,NA,NA,NA,NA,NA,NA,NA,NA,NA
5e79b,task,flow.Sequence,3_0_2_0_6,NA,NA,completion,18031.04,498368,498364.28,498380.94,516411.98,516435,2023-10-16T11:49:10Z,516428.64,NULL,Annäherung,maegesho,s,madahili,kujiamini,mapendekezo,NA,sdf,NA,2,NA,NA,NA,NA,NA,NA,NA,NA,NA,NA,NA,NA,NA,NA,NA,NA,NA,NA,NA
5e79b,Deep Question,html.Page,3_0_2_0_7_0_0,NA,NA,form submission,90680.36,516436,516411.98,516428.64,607109,607111,2023-10-16T11:50:41Z,607117.02,NULL,Beweis,ushahidi,d,NA,NA,NA,hipo,NA,NA,2,NA,NA,NA,NA,NA,NA,NA,NA,NA,NA,NA,NA,NA,NA,NA,NA,NA,NA,NA
5e79b,"""Richtig""-Screen",canvas.Screen,3_0_2_0_7_0_1,NA,NA,skipped,NA,607119,NA,NA,607109,607119,2023-10-16T11:50:41Z,607117.02,NULL,Beweis,ushahidi,d,NA,NA,NA,NA,sdf,NA,2,NA,NA,NA,NA,NA,NA,NA,NA,NA,NA,NA,NA,NA,NA,NA,NA,NA,NA,NA
5e79b,"""Falsch""-Screen",canvas.Screen,3_0_2_0_7_0_2,NA,NA,timeout,4999.4199999999,607123,607107.04,607117.02,612099.76,612101,2023-10-16T11:50:46Z,612116.44,NULL,Beweis,ushahidi,d,NA,NA,NA,NA,sdf,0,2,NA,NA,NA,NA,NA,NA,NA,NA,NA,NA,NA,NA,NA,NA,NA,NA,NA,NA,NA
5e79b,deep,flow.Sequence,3_0_2_0_7_0,NA,NA,completion,95671.12,516436,516411.98,516428.64,612099.76,612102,2023-10-16T11:50:46Z,612116.44,NULL,Beweis,ushahidi,d,NA,NA,NA,NA,sdf,NA,2,NA,NA,NA,NA,NA,NA,NA,NA,NA,NA,NA,NA,NA,NA,NA,NA,NA,NA,NA
5e79b,shallow,flow.Sequence,3_0_2_0_7_1,NA,NA,skipped,NA,612102,NA,NA,612099.76,612103,2023-10-16T11:50:46Z,612116.44,NULL,Beweis,ushahidi,d,NA,NA,NA,NA,sdf,NA,2,NA,NA,NA,NA,NA,NA,NA,NA,NA,NA,NA,NA,NA,NA,NA,NA,NA,NA,NA
5e79b,task,flow.Sequence,3_0_2_0_7,NA,NA,completion,95671.12,516435,516411.98,516428.64,612099.76,612104,2023-10-16T11:50:46Z,612116.44,NULL,Beweis,ushahidi,d,NA,NA,NA,NA,sdf,NA,2,NA,NA,NA,NA,NA,NA,NA,NA,NA,NA,NA,NA,NA,NA,NA,NA,NA,NA,NA
5e79b,block,flow.Loop,3_0_2_0,NA,NA,completion,192104.14,419995,419995.32,419995.62,612099.76,612105,2023-10-16T11:50:46Z,612116.44,NULL,NA,NA,NA,NA,NA,NA,NA,sdf,NA,2,NA,NA,NA,NA,NA,NA,NA,NA,NA,NA,NA,NA,NA,NA,NA,NA,NA,NA,NA
5e79b,weiter,canvas.Screen,3_0_2_1,sdf,keypress(Space),response,1074.5600000001,612105,612099.76,612116.44,613191,613208,2023-10-16T11:50:47Z,613270.7,NULL,NA,NA,NA,NA,NA,NA,NA,sdf,NA,2,NA,NA,NA,NA,NA,NA,NA,NA,NA,NA,NA,NA,NA,NA,NA,NA,NA,NA,NA
5e79b,check continue,flow.Sequence,3_0_2,NA,NA,completion,193195.38,419995,419995.32,419995.62,613191,613208,2023-10-16T11:50:47Z,613270.7,NULL,NA,NA,NA,NA,NA,NA,NA,sdf,NA,2,NA,NA,NA,NA,NA,NA,NA,NA,NA,NA,NA,NA,NA,NA,NA,NA,NA,NA,NA
5e79b,deep,flow.Sequence,3_0_3_0_0_0,NA,NA,skipped,NA,613270,NA,NA,613191,613270,2023-10-16T11:50:47Z,613270.7,NULL,Kultur,utamaduni,s,shetani,gerezani,mazingira,NA,qt,NA,3,NA,NA,NA,NA,NA,NA,NA,NA,NA,NA,NA,NA,NA,NA,NA,NA,NA,NA,NA
5e79b,Shallow Question,html.Page,3_0_3_0_0_1_0,NA,NA,form submission,8415.3,613270,613270.4,613270.7,621686,621686,2023-10-16T11:50:55Z,621698.54,NULL,Kultur,utamaduni,s,shetani,gerezani,mazingira,utamaduni,NA,NA,3,NA,NA,NA,NA,NA,NA,NA,NA,NA,NA,NA,NA,NA,NA,NA,NA,NA,NA,NA
5e79b,"""Richtig""-Screen",canvas.Screen,3_0_3_0_0_1_1,NA,NA,timeout,4999.2799999999,621689,621682.9,621698.54,626681.22,626683,2023-10-16T11:51:00Z,626697.82,NULL,Kultur,utamaduni,s,shetani,gerezani,mazingira,NA,qt,1,3,NA,NA,NA,NA,NA,NA,NA,NA,NA,NA,NA,NA,NA,NA,NA,NA,NA,NA,NA
5e79b,"""Falsch""-Screen",canvas.Screen,3_0_3_0_0_1_2,NA,NA,skipped,NA,626690,NA,NA,626681.22,626691,2023-10-16T11:51:00Z,626697.82,NULL,Kultur,utamaduni,s,shetani,gerezani,mazingira,NA,qt,NA,3,NA,NA,NA,NA,NA,NA,NA,NA,NA,NA,NA,NA,NA,NA,NA,NA,NA,NA,NA
5e79b,shallow,flow.Sequence,3_0_3_0_0_1,NA,NA,completion,13410.52,613270,613270.4,613270.7,626681.22,626692,2023-10-16T11:51:00Z,626697.82,NULL,Kultur,utamaduni,s,shetani,gerezani,mazingira,NA,qt,NA,3,NA,NA,NA,NA,NA,NA,NA,NA,NA,NA,NA,NA,NA,NA,NA,NA,NA,NA,NA
5e79b,task,flow.Sequence,3_0_3_0_0,NA,NA,completion,13410.52,613270,613270.4,613270.7,626681.22,626693,2023-10-16T11:51:00Z,626697.82,NULL,Kultur,utamaduni,s,shetani,gerezani,mazingira,NA,qt,NA,3,NA,NA,NA,NA,NA,NA,NA,NA,NA,NA,NA,NA,NA,NA,NA,NA,NA,NA,NA
5e79b,Deep Question,html.Page,3_0_3_0_1_0_0,NA,NA,form submission,4894.1800000001,626694,626681.22,626697.82,631592,631592,2023-10-16T11:51:05Z,631597.2,NULL,Aufstand,ugomaji,d,NA,NA,NA,usmagi,NA,NA,3,NA,NA,NA,NA,NA,NA,NA,NA,NA,NA,NA,NA,NA,NA,NA,NA,NA,NA,NA
5e79b,"""Richtig""-Screen",canvas.Screen,3_0_3_0_1_0_1,NA,NA,skipped,NA,631595,NA,NA,631592,631595,2023-10-16T11:51:05Z,631597.2,NULL,Aufstand,ugomaji,d,NA,NA,NA,NA,qt,NA,3,NA,NA,NA,NA,NA,NA,NA,NA,NA,NA,NA,NA,NA,NA,NA,NA,NA,NA,NA
5e79b,"""Falsch""-Screen",canvas.Screen,3_0_3_0_1_0_2,NA,NA,timeout,4999.4400000001,631598,631591.42,631597.2,636579.98,636581,2023-10-16T11:51:10Z,636596.64,NULL,Aufstand,ugomaji,d,NA,NA,NA,NA,qt,0,3,NA,NA,NA,NA,NA,NA,NA,NA,NA,NA,NA,NA,NA,NA,NA,NA,NA,NA,NA
5e79b,deep,flow.Sequence,3_0_3_0_1_0,NA,NA,completion,9882.16,626693,626681.22,626697.82,636579.98,636582,2023-10-16T11:51:10Z,636596.64,NULL,Aufstand,ugomaji,d,NA,NA,NA,NA,qt,NA,3,NA,NA,NA,NA,NA,NA,NA,NA,NA,NA,NA,NA,NA,NA,NA,NA,NA,NA,NA
5e79b,shallow,flow.Sequence,3_0_3_0_1_1,NA,NA,skipped,NA,636582,NA,NA,636579.98,636582,2023-10-16T11:51:10Z,636596.64,NULL,Aufstand,ugomaji,d,NA,NA,NA,NA,qt,NA,3,NA,NA,NA,NA,NA,NA,NA,NA,NA,NA,NA,NA,NA,NA,NA,NA,NA,NA,NA
5e79b,task,flow.Sequence,3_0_3_0_1,NA,NA,completion,9882.16,626693,626681.22,626697.82,636579.98,636582,2023-10-16T11:51:10Z,636596.64,NULL,Aufstand,ugomaji,d,NA,NA,NA,NA,qt,NA,3,NA,NA,NA,NA,NA,NA,NA,NA,NA,NA,NA,NA,NA,NA,NA,NA,NA,NA,NA
5e79b,Deep Question,html.Page,3_0_3_0_2_0_0,NA,NA,form submission,38936.36,636583,636579.98,636596.64,675533,675533,2023-10-16T11:51:49Z,675532.32,NULL,Beweis,ushahidi,d,NA,NA,NA,usogon,NA,NA,3,NA,NA,NA,NA,NA,NA,NA,NA,NA,NA,NA,NA,NA,NA,NA,NA,NA,NA,NA
5e79b,"""Richtig""-Screen",canvas.Screen,3_0_3_0_2_0_1,NA,NA,skipped,NA,675536,NA,NA,675533,675536,2023-10-16T11:51:49Z,675532.32,NULL,Beweis,ushahidi,d,NA,NA,NA,NA,qt,NA,3,NA,NA,NA,NA,NA,NA,NA,NA,NA,NA,NA,NA,NA,NA,NA,NA,NA,NA,NA
5e79b,"""Falsch""-Screen",canvas.Screen,3_0_3_0_2_0_2,NA,NA,timeout,4991.9600000001,675539,675531.96,675532.32,680507.62,680509,2023-10-16T11:51:54Z,680524.28,NULL,Beweis,ushahidi,d,NA,NA,NA,NA,qt,0,3,NA,NA,NA,NA,NA,NA,NA,NA,NA,NA,NA,NA,NA,NA,NA,NA,NA,NA,NA
5e79b,deep,flow.Sequence,3_0_3_0_2_0,NA,NA,completion,43910.98,636583,636579.98,636596.64,680507.62,680510,2023-10-16T11:51:54Z,680524.28,NULL,Beweis,ushahidi,d,NA,NA,NA,NA,qt,NA,3,NA,NA,NA,NA,NA,NA,NA,NA,NA,NA,NA,NA,NA,NA,NA,NA,NA,NA,NA
5e79b,shallow,flow.Sequence,3_0_3_0_2_1,NA,NA,skipped,NA,680510,NA,NA,680507.62,680510,2023-10-16T11:51:54Z,680524.28,NULL,Beweis,ushahidi,d,NA,NA,NA,NA,qt,NA,3,NA,NA,NA,NA,NA,NA,NA,NA,NA,NA,NA,NA,NA,NA,NA,NA,NA,NA,NA
5e79b,task,flow.Sequence,3_0_3_0_2,NA,NA,completion,43910.98,636583,636579.98,636596.64,680507.62,680511,2023-10-16T11:51:54Z,680524.28,NULL,Beweis,ushahidi,d,NA,NA,NA,NA,qt,NA,3,NA,NA,NA,NA,NA,NA,NA,NA,NA,NA,NA,NA,NA,NA,NA,NA,NA,NA,NA
5e79b,deep,flow.Sequence,3_0_3_0_3_0,NA,NA,skipped,NA,680511,NA,NA,680507.62,680511,2023-10-16T11:51:54Z,680524.28,NULL,Sympathie,mapendano,s,dhamiria,fungamano,maazimio,NA,qt,NA,3,NA,NA,NA,NA,NA,NA,NA,NA,NA,NA,NA,NA,NA,NA,NA,NA,NA,NA,NA
5e79b,Shallow Question,html.Page,3_0_3_0_3_1_0,NA,NA,form submission,11018.72,680512,680507.62,680524.28,691543,691544,2023-10-16T11:52:05Z,691539.46,NULL,Sympathie,mapendano,s,dhamiria,fungamano,maazimio,mapendano,NA,NA,3,NA,NA,NA,NA,NA,NA,NA,NA,NA,NA,NA,NA,NA,NA,NA,NA,NA,NA,NA
5e79b,"""Richtig""-Screen",canvas.Screen,3_0_3_0_3_1_1,NA,NA,timeout,4999.4400000001,691547,691538.34,691539.46,696522.22,696524,2023-10-16T11:52:10Z,696538.9,NULL,Sympathie,mapendano,s,dhamiria,fungamano,maazimio,NA,qt,1,3,NA,NA,NA,NA,NA,NA,NA,NA,NA,NA,NA,NA,NA,NA,NA,NA,NA,NA,NA
5e79b,"""Falsch""-Screen",canvas.Screen,3_0_3_0_3_1_2,NA,NA,skipped,NA,696532,NA,NA,696522.22,696533,2023-10-16T11:52:10Z,696538.9,NULL,Sympathie,mapendano,s,dhamiria,fungamano,maazimio,NA,qt,NA,3,NA,NA,NA,NA,NA,NA,NA,NA,NA,NA,NA,NA,NA,NA,NA,NA,NA,NA,NA
5e79b,shallow,flow.Sequence,3_0_3_0_3_1,NA,NA,completion,15997.94,680511,680507.62,680524.28,696522.22,696533,2023-10-16T11:52:10Z,696538.9,NULL,Sympathie,mapendano,s,dhamiria,fungamano,maazimio,NA,qt,NA,3,NA,NA,NA,NA,NA,NA,NA,NA,NA,NA,NA,NA,NA,NA,NA,NA,NA,NA,NA
5e79b,task,flow.Sequence,3_0_3_0_3,NA,NA,completion,15997.94,680511,680507.62,680524.28,696522.22,696534,2023-10-16T11:52:10Z,696538.9,NULL,Sympathie,mapendano,s,dhamiria,fungamano,maazimio,NA,qt,NA,3,NA,NA,NA,NA,NA,NA,NA,NA,NA,NA,NA,NA,NA,NA,NA,NA,NA,NA,NA
5e79b,deep,flow.Sequence,3_0_3_0_4_0,NA,NA,skipped,NA,696534,NA,NA,696522.22,696535,2023-10-16T11:52:10Z,696538.9,NULL,Annäherung,maegesho,s,madahili,kujiamini,mapendekezo,NA,qt,NA,3,NA,NA,NA,NA,NA,NA,NA,NA,NA,NA,NA,NA,NA,NA,NA,NA,NA,NA,NA
5e79b,Shallow Question,html.Page,3_0_3_0_4_1_0,NA,NA,form submission,7601.1,696535,696522.22,696538.9,704140,704140,2023-10-16T11:52:18Z,704137.92,NULL,Annäherung,maegesho,s,madahili,kujiamini,mapendekezo,maegesho,NA,NA,3,NA,NA,NA,NA,NA,NA,NA,NA,NA,NA,NA,NA,NA,NA,NA,NA,NA,NA,NA
5e79b,"""Richtig""-Screen",canvas.Screen,3_0_3_0_4_1_1,NA,NA,timeout,4999.34,704141,704137.02,704137.92,709120.64,709122,2023-10-16T11:52:23Z,709137.26,NULL,Annäherung,maegesho,s,madahili,kujiamini,mapendekezo,NA,qt,1,3,NA,NA,NA,NA,NA,NA,NA,NA,NA,NA,NA,NA,NA,NA,NA,NA,NA,NA,NA
5e79b,"""Falsch""-Screen",canvas.Screen,3_0_3_0_4_1_2,NA,NA,skipped,NA,709127,NA,NA,709120.64,709128,2023-10-16T11:52:23Z,709137.26,NULL,Annäherung,maegesho,s,madahili,kujiamini,mapendekezo,NA,qt,NA,3,NA,NA,NA,NA,NA,NA,NA,NA,NA,NA,NA,NA,NA,NA,NA,NA,NA,NA,NA
5e79b,shallow,flow.Sequence,3_0_3_0_4_1,NA,NA,completion,12581.74,696535,696522.22,696538.9,709120.64,709128,2023-10-16T11:52:23Z,709137.26,NULL,Annäherung,maegesho,s,madahili,kujiamini,mapendekezo,NA,qt,NA,3,NA,NA,NA,NA,NA,NA,NA,NA,NA,NA,NA,NA,NA,NA,NA,NA,NA,NA,NA
5e79b,task,flow.Sequence,3_0_3_0_4,NA,NA,completion,12581.74,696534,696522.22,696538.9,709120.64,709128,2023-10-16T11:52:23Z,709137.26,NULL,Annäherung,maegesho,s,madahili,kujiamini,mapendekezo,NA,qt,NA,3,NA,NA,NA,NA,NA,NA,NA,NA,NA,NA,NA,NA,NA,NA,NA,NA,NA,NA,NA
5e79b,Deep Question,html.Page,3_0_3_0_5_0_0,NA,NA,form submission,17450.74,709129,709120.64,709137.26,726588,726588,2023-10-16T11:52:40Z,726587.74,NULL,Polizist,msongora,d,NA,NA,NA,mitjui,NA,NA,3,NA,NA,NA,NA,NA,NA,NA,NA,NA,NA,NA,NA,NA,NA,NA,NA,NA,NA,NA
5e79b,"""Richtig""-Screen",canvas.Screen,3_0_3_0_5_0_1,NA,NA,skipped,NA,726591,NA,NA,726588,726591,2023-10-16T11:52:40Z,726587.74,NULL,Polizist,msongora,d,NA,NA,NA,NA,qt,NA,3,NA,NA,NA,NA,NA,NA,NA,NA,NA,NA,NA,NA,NA,NA,NA,NA,NA,NA,NA
5e79b,"""Falsch""-Screen",canvas.Screen,3_0_3_0_5_0_2,NA,NA,timeout,4996.7,726593,726587.38,726587.74,731567.78,731568,2023-10-16T11:52:45Z,731584.44,NULL,Polizist,msongora,d,NA,NA,NA,NA,qt,0,3,NA,NA,NA,NA,NA,NA,NA,NA,NA,NA,NA,NA,NA,NA,NA,NA,NA,NA,NA
5e79b,deep,flow.Sequence,3_0_3_0_5_0,NA,NA,completion,22430.52,709129,709120.64,709137.26,731567.78,731569,2023-10-16T11:52:45Z,731584.44,NULL,Polizist,msongora,d,NA,NA,NA,NA,qt,NA,3,NA,NA,NA,NA,NA,NA,NA,NA,NA,NA,NA,NA,NA,NA,NA,NA,NA,NA,NA
5e79b,shallow,flow.Sequence,3_0_3_0_5_1,NA,NA,skipped,NA,731569,NA,NA,731567.78,731569,2023-10-16T11:52:45Z,731584.44,NULL,Polizist,msongora,d,NA,NA,NA,NA,qt,NA,3,NA,NA,NA,NA,NA,NA,NA,NA,NA,NA,NA,NA,NA,NA,NA,NA,NA,NA,NA
5e79b,task,flow.Sequence,3_0_3_0_5,NA,NA,completion,22430.52,709129,709120.64,709137.26,731567.78,731569,2023-10-16T11:52:45Z,731584.44,NULL,Polizist,msongora,d,NA,NA,NA,NA,qt,NA,3,NA,NA,NA,NA,NA,NA,NA,NA,NA,NA,NA,NA,NA,NA,NA,NA,NA,NA,NA
5e79b,Deep Question,html.Page,3_0_3_0_6_0_0,NA,NA,form submission,13721.56,731569,731567.78,731584.44,745306,745306,2023-10-16T11:52:59Z,745305.02,NULL,Prüfung,mtihani,d,NA,NA,NA,mitjuri,NA,NA,3,NA,NA,NA,NA,NA,NA,NA,NA,NA,NA,NA,NA,NA,NA,NA,NA,NA,NA,NA
5e79b,"""Richtig""-Screen",canvas.Screen,3_0_3_0_6_0_1,NA,NA,skipped,NA,745308,NA,NA,745306,745308,2023-10-16T11:52:59Z,745305.02,NULL,Prüfung,mtihani,d,NA,NA,NA,NA,qt,NA,3,NA,NA,NA,NA,NA,NA,NA,NA,NA,NA,NA,NA,NA,NA,NA,NA,NA,NA,NA
5e79b,"""Falsch""-Screen",canvas.Screen,3_0_3_0_6_0_2,NA,NA,timeout,4993.74,745311,745304.72,745305.02,750282.1,750288,2023-10-16T11:53:04Z,750298.76,NULL,Prüfung,mtihani,d,NA,NA,NA,NA,qt,0,3,NA,NA,NA,NA,NA,NA,NA,NA,NA,NA,NA,NA,NA,NA,NA,NA,NA,NA,NA
5e79b,deep,flow.Sequence,3_0_3_0_6_0,NA,NA,completion,18697.66,731569,731567.78,731584.44,750282.1,750291,2023-10-16T11:53:04Z,750298.76,NULL,Prüfung,mtihani,d,NA,NA,NA,NA,qt,NA,3,NA,NA,NA,NA,NA,NA,NA,NA,NA,NA,NA,NA,NA,NA,NA,NA,NA,NA,NA
5e79b,shallow,flow.Sequence,3_0_3_0_6_1,NA,NA,skipped,NA,750292,NA,NA,750282.1,750293,2023-10-16T11:53:04Z,750298.76,NULL,Prüfung,mtihani,d,NA,NA,NA,NA,qt,NA,3,NA,NA,NA,NA,NA,NA,NA,NA,NA,NA,NA,NA,NA,NA,NA,NA,NA,NA,NA
5e79b,task,flow.Sequence,3_0_3_0_6,NA,NA,completion,18697.66,731569,731567.78,731584.44,750282.1,750293,2023-10-16T11:53:04Z,750298.76,NULL,Prüfung,mtihani,d,NA,NA,NA,NA,qt,NA,3,NA,NA,NA,NA,NA,NA,NA,NA,NA,NA,NA,NA,NA,NA,NA,NA,NA,NA,NA
5e79b,deep,flow.Sequence,3_0_3_0_7_0,NA,NA,skipped,NA,750294,NA,NA,750282.1,750294,2023-10-16T11:53:04Z,750298.76,NULL,Verzögerung,kuchelewa,s,mwakilishi,mwanauchumi,jaribio,NA,qt,NA,3,NA,NA,NA,NA,NA,NA,NA,NA,NA,NA,NA,NA,NA,NA,NA,NA,NA,NA,NA
5e79b,Shallow Question,html.Page,3_0_3_0_7_1_0,NA,NA,form submission,11537.24,750295,750282.1,750298.76,761836,761836,2023-10-16T11:53:15Z,761847.18,NULL,Verzögerung,kuchelewa,s,mwakilishi,mwanauchumi,jaribio,kuchelewa,NA,NA,3,NA,NA,NA,NA,NA,NA,NA,NA,NA,NA,NA,NA,NA,NA,NA,NA,NA,NA,NA
5e79b,"""Richtig""-Screen",canvas.Screen,3_0_3_0_7_1_1,NA,NA,timeout,4999.46,761842,761830.64,761847.18,766829.98,766832,2023-10-16T11:53:20Z,766846.64,NULL,Verzögerung,kuchelewa,s,mwakilishi,mwanauchumi,jaribio,NA,qt,1,3,NA,NA,NA,NA,NA,NA,NA,NA,NA,NA,NA,NA,NA,NA,NA,NA,NA,NA,NA
5e79b,"""Falsch""-Screen",canvas.Screen,3_0_3_0_7_1_2,NA,NA,skipped,NA,766839,NA,NA,766829.98,766839,2023-10-16T11:53:20Z,766846.64,NULL,Verzögerung,kuchelewa,s,mwakilishi,mwanauchumi,jaribio,NA,qt,NA,3,NA,NA,NA,NA,NA,NA,NA,NA,NA,NA,NA,NA,NA,NA,NA,NA,NA,NA,NA
5e79b,shallow,flow.Sequence,3_0_3_0_7_1,NA,NA,completion,16531.22,750295,750282.1,750298.76,766829.98,766840,2023-10-16T11:53:20Z,766846.64,NULL,Verzögerung,kuchelewa,s,mwakilishi,mwanauchumi,jaribio,NA,qt,NA,3,NA,NA,NA,NA,NA,NA,NA,NA,NA,NA,NA,NA,NA,NA,NA,NA,NA,NA,NA
5e79b,task,flow.Sequence,3_0_3_0_7,NA,NA,completion,16531.22,750293,750282.1,750298.76,766829.98,766840,2023-10-16T11:53:20Z,766846.64,NULL,Verzögerung,kuchelewa,s,mwakilishi,mwanauchumi,jaribio,NA,qt,NA,3,NA,NA,NA,NA,NA,NA,NA,NA,NA,NA,NA,NA,NA,NA,NA,NA,NA,NA,NA
5e79b,block,flow.Loop,3_0_3_0,NA,NA,completion,153559.28,613270,613270.4,613270.7,766829.98,766842,2023-10-16T11:53:20Z,766846.64,NULL,NA,NA,NA,NA,NA,NA,NA,qt,NA,3,NA,NA,NA,NA,NA,NA,NA,NA,NA,NA,NA,NA,NA,NA,NA,NA,NA,NA,NA
5e79b,weiter,canvas.Screen,3_0_3_1,sdf,keypress(Space),response,954.35999999999,766842,766829.98,766846.64,767801,767806,2023-10-16T11:53:21Z,767879.78,NULL,NA,NA,NA,NA,NA,NA,NA,qt,NA,3,NA,NA,NA,NA,NA,NA,NA,NA,NA,NA,NA,NA,NA,NA,NA,NA,NA,NA,NA
5e79b,check continue,flow.Sequence,3_0_3,NA,NA,completion,154530.3,613270,613270.4,613270.7,767801,767807,2023-10-16T11:53:21Z,767879.78,NULL,NA,NA,NA,NA,NA,NA,NA,qt,NA,3,NA,NA,NA,NA,NA,NA,NA,NA,NA,NA,NA,NA,NA,NA,NA,NA,NA,NA,NA
5e79b,Deep Question,html.Page,3_0_4_0_0_0_0,NA,NA,form submission,16918.22,767872,767871.42,767879.78,784798,784798,2023-10-16T11:53:38Z,784810.98,NULL,Aufstand,ugomaji,d,NA,NA,NA,msgona,NA,NA,4,NA,NA,NA,NA,NA,NA,NA,NA,NA,NA,NA,NA,NA,NA,NA,NA,NA,NA,NA
5e79b,"""Richtig""-Screen",canvas.Screen,3_0_4_0_0_0_1,NA,NA,skipped,NA,784800,NA,NA,784798,784801,2023-10-16T11:53:38Z,784810.98,NULL,Aufstand,ugomaji,d,NA,NA,NA,NA,sd,NA,4,NA,NA,NA,NA,NA,NA,NA,NA,NA,NA,NA,NA,NA,NA,NA,NA,NA,NA,NA
5e79b,"""Falsch""-Screen",canvas.Screen,3_0_4_0_0_0_2,NA,NA,timeout,4999.38,784802,784796.2,784810.98,789793.7,789795,2023-10-16T11:53:43Z,789810.36,NULL,Aufstand,ugomaji,d,NA,NA,NA,NA,sd,0,4,NA,NA,NA,NA,NA,NA,NA,NA,NA,NA,NA,NA,NA,NA,NA,NA,NA,NA,NA
5e79b,deep,flow.Sequence,3_0_4_0_0_0,NA,NA,completion,21913.92,767872,767871.42,767879.78,789793.7,789796,2023-10-16T11:53:43Z,789810.36,NULL,Aufstand,ugomaji,d,NA,NA,NA,NA,sd,NA,4,NA,NA,NA,NA,NA,NA,NA,NA,NA,NA,NA,NA,NA,NA,NA,NA,NA,NA,NA
5e79b,shallow,flow.Sequence,3_0_4_0_0_1,NA,NA,skipped,NA,789796,NA,NA,789793.7,789796,2023-10-16T11:53:43Z,789810.36,NULL,Aufstand,ugomaji,d,NA,NA,NA,NA,sd,NA,4,NA,NA,NA,NA,NA,NA,NA,NA,NA,NA,NA,NA,NA,NA,NA,NA,NA,NA,NA
5e79b,task,flow.Sequence,3_0_4_0_0,NA,NA,completion,21913.92,767872,767871.42,767879.78,789793.7,789797,2023-10-16T11:53:43Z,789810.36,NULL,Aufstand,ugomaji,d,NA,NA,NA,NA,sd,NA,4,NA,NA,NA,NA,NA,NA,NA,NA,NA,NA,NA,NA,NA,NA,NA,NA,NA,NA,NA
5e79b,Deep Question,html.Page,3_0_4_0_1_0_0,NA,NA,form submission,35468.64,789797,789793.7,789810.36,825279,825281,2023-10-16T11:54:19Z,825289.04,NULL,Polizist,msongora,d,NA,NA,NA,ugomaji,NA,NA,4,NA,NA,NA,NA,NA,NA,NA,NA,NA,NA,NA,NA,NA,NA,NA,NA,NA,NA,NA
5e79b,"""Richtig""-Screen",canvas.Screen,3_0_4_0_1_0_1,NA,NA,skipped,NA,825288,NA,NA,825279,825288,2023-10-16T11:54:19Z,825289.04,NULL,Polizist,msongora,d,NA,NA,NA,NA,sd,NA,4,NA,NA,NA,NA,NA,NA,NA,NA,NA,NA,NA,NA,NA,NA,NA,NA,NA,NA,NA
5e79b,"""Falsch""-Screen",canvas.Screen,3_0_4_0_1_0_2,NA,NA,timeout,4999.3999999999,825292,825277.24,825289.04,830271.86,830273,2023-10-16T11:54:24Z,830288.44,NULL,Polizist,msongora,d,NA,NA,NA,NA,sd,0,4,NA,NA,NA,NA,NA,NA,NA,NA,NA,NA,NA,NA,NA,NA,NA,NA,NA,NA,NA
5e79b,deep,flow.Sequence,3_0_4_0_1_0,NA,NA,completion,40461.5,789797,789793.7,789810.36,830271.86,830274,2023-10-16T11:54:24Z,830288.44,NULL,Polizist,msongora,d,NA,NA,NA,NA,sd,NA,4,NA,NA,NA,NA,NA,NA,NA,NA,NA,NA,NA,NA,NA,NA,NA,NA,NA,NA,NA
5e79b,shallow,flow.Sequence,3_0_4_0_1_1,NA,NA,skipped,NA,830274,NA,NA,830271.86,830274,2023-10-16T11:54:24Z,830288.44,NULL,Polizist,msongora,d,NA,NA,NA,NA,sd,NA,4,NA,NA,NA,NA,NA,NA,NA,NA,NA,NA,NA,NA,NA,NA,NA,NA,NA,NA,NA
5e79b,task,flow.Sequence,3_0_4_0_1,NA,NA,completion,40461.5,789797,789793.7,789810.36,830271.86,830275,2023-10-16T11:54:24Z,830288.44,NULL,Polizist,msongora,d,NA,NA,NA,NA,sd,NA,4,NA,NA,NA,NA,NA,NA,NA,NA,NA,NA,NA,NA,NA,NA,NA,NA,NA,NA,NA
5e79b,Deep Question,html.Page,3_0_4_0_2_0_0,NA,NA,form submission,7598.5600000001,830275,830271.86,830288.44,837887,837888,2023-10-16T11:54:31Z,837887.52,NULL,Prüfung,mtihani,d,NA,NA,NA,mtihani,NA,NA,4,NA,NA,NA,NA,NA,NA,NA,NA,NA,NA,NA,NA,NA,NA,NA,NA,NA,NA,NA
5e79b,"""Richtig""-Screen",canvas.Screen,3_0_4_0_2_0_1,NA,NA,timeout,4999.3199999999,837891,837886.16,837887.52,842870.18,842872,2023-10-16T11:54:36Z,842886.84,NULL,Prüfung,mtihani,d,NA,NA,NA,NA,sd,1,4,NA,NA,NA,NA,NA,NA,NA,NA,NA,NA,NA,NA,NA,NA,NA,NA,NA,NA,NA
5e79b,"""Falsch""-Screen",canvas.Screen,3_0_4_0_2_0_2,NA,NA,skipped,NA,842879,NA,NA,842870.18,842880,2023-10-16T11:54:36Z,842886.84,NULL,Prüfung,mtihani,d,NA,NA,NA,NA,sd,NA,4,NA,NA,NA,NA,NA,NA,NA,NA,NA,NA,NA,NA,NA,NA,NA,NA,NA,NA,NA
5e79b,deep,flow.Sequence,3_0_4_0_2_0,NA,NA,completion,12581.74,830275,830271.86,830288.44,842870.18,842880,2023-10-16T11:54:36Z,842886.84,NULL,Prüfung,mtihani,d,NA,NA,NA,NA,sd,NA,4,NA,NA,NA,NA,NA,NA,NA,NA,NA,NA,NA,NA,NA,NA,NA,NA,NA,NA,NA
5e79b,shallow,flow.Sequence,3_0_4_0_2_1,NA,NA,skipped,NA,842881,NA,NA,842870.18,842882,2023-10-16T11:54:36Z,842886.84,NULL,Prüfung,mtihani,d,NA,NA,NA,NA,sd,NA,4,NA,NA,NA,NA,NA,NA,NA,NA,NA,NA,NA,NA,NA,NA,NA,NA,NA,NA,NA
5e79b,task,flow.Sequence,3_0_4_0_2,NA,NA,completion,12581.74,830275,830271.86,830288.44,842870.18,842882,2023-10-16T11:54:36Z,842886.84,NULL,Prüfung,mtihani,d,NA,NA,NA,NA,sd,NA,4,NA,NA,NA,NA,NA,NA,NA,NA,NA,NA,NA,NA,NA,NA,NA,NA,NA,NA,NA
5e79b,deep,flow.Sequence,3_0_4_0_3_0,NA,NA,skipped,NA,842883,NA,NA,842870.18,842884,2023-10-16T11:54:36Z,842886.84,NULL,Annäherung,maegesho,s,madahili,kujiamini,mapendekezo,NA,sd,NA,4,NA,NA,NA,NA,NA,NA,NA,NA,NA,NA,NA,NA,NA,NA,NA,NA,NA,NA,NA
5e79b,Shallow Question,html.Page,3_0_4_0_3_1_0,NA,NA,form submission,6094.16,842884,842870.18,842886.84,848981,848982,2023-10-16T11:54:42Z,848986.04,NULL,Annäherung,maegesho,s,madahili,kujiamini,mapendekezo,maegesho,NA,NA,4,NA,NA,NA,NA,NA,NA,NA,NA,NA,NA,NA,NA,NA,NA,NA,NA,NA,NA,NA
5e79b,"""Richtig""-Screen",canvas.Screen,3_0_4_0_3_1_1,NA,NA,timeout,4999.48,848987,848974.98,848986.04,853968.84,853970,2023-10-16T11:54:47Z,853985.52,NULL,Annäherung,maegesho,s,madahili,kujiamini,mapendekezo,NA,sd,1,4,NA,NA,NA,NA,NA,NA,NA,NA,NA,NA,NA,NA,NA,NA,NA,NA,NA,NA,NA
5e79b,"""Falsch""-Screen",canvas.Screen,3_0_4_0_3_1_2,NA,NA,skipped,NA,853979,NA,NA,853968.84,853979,2023-10-16T11:54:47Z,853985.52,NULL,Annäherung,maegesho,s,madahili,kujiamini,mapendekezo,NA,sd,NA,4,NA,NA,NA,NA,NA,NA,NA,NA,NA,NA,NA,NA,NA,NA,NA,NA,NA,NA,NA
5e79b,shallow,flow.Sequence,3_0_4_0_3_1,NA,NA,completion,11082,842884,842870.18,842886.84,853968.84,853980,2023-10-16T11:54:47Z,853985.52,NULL,Annäherung,maegesho,s,madahili,kujiamini,mapendekezo,NA,sd,NA,4,NA,NA,NA,NA,NA,NA,NA,NA,NA,NA,NA,NA,NA,NA,NA,NA,NA,NA,NA
5e79b,task,flow.Sequence,3_0_4_0_3,NA,NA,completion,11082,842883,842870.18,842886.84,853968.84,853980,2023-10-16T11:54:47Z,853985.52,NULL,Annäherung,maegesho,s,madahili,kujiamini,mapendekezo,NA,sd,NA,4,NA,NA,NA,NA,NA,NA,NA,NA,NA,NA,NA,NA,NA,NA,NA,NA,NA,NA,NA
5e79b,Deep Question,html.Page,3_0_4_0_4_0_0,NA,NA,form submission,13432.48,853980,853968.84,853985.52,867418,867419,2023-10-16T11:55:01Z,867433.68,NULL,Beweis,ushahidi,d,NA,NA,NA,msgana,NA,NA,4,NA,NA,NA,NA,NA,NA,NA,NA,NA,NA,NA,NA,NA,NA,NA,NA,NA,NA,NA
5e79b,"""Richtig""-Screen",canvas.Screen,3_0_4_0_4_0_1,NA,NA,skipped,NA,867422,NA,NA,867418,867422,2023-10-16T11:55:01Z,867433.68,NULL,Beweis,ushahidi,d,NA,NA,NA,NA,sd,NA,4,NA,NA,NA,NA,NA,NA,NA,NA,NA,NA,NA,NA,NA,NA,NA,NA,NA,NA,NA
5e79b,"""Falsch""-Screen",canvas.Screen,3_0_4_0_4_0_2,NA,NA,timeout,4999.46,867425,867417.62,867433.68,872416.48,872417,2023-10-16T11:55:06Z,872433.14,NULL,Beweis,ushahidi,d,NA,NA,NA,NA,sd,0,4,NA,NA,NA,NA,NA,NA,NA,NA,NA,NA,NA,NA,NA,NA,NA,NA,NA,NA,NA
5e79b,deep,flow.Sequence,3_0_4_0_4_0,NA,NA,completion,18430.96,853980,853968.84,853985.52,872416.48,872418,2023-10-16T11:55:06Z,872433.14,NULL,Beweis,ushahidi,d,NA,NA,NA,NA,sd,NA,4,NA,NA,NA,NA,NA,NA,NA,NA,NA,NA,NA,NA,NA,NA,NA,NA,NA,NA,NA
5e79b,shallow,flow.Sequence,3_0_4_0_4_1,NA,NA,skipped,NA,872419,NA,NA,872416.48,872419,2023-10-16T11:55:06Z,872433.14,NULL,Beweis,ushahidi,d,NA,NA,NA,NA,sd,NA,4,NA,NA,NA,NA,NA,NA,NA,NA,NA,NA,NA,NA,NA,NA,NA,NA,NA,NA,NA
5e79b,task,flow.Sequence,3_0_4_0_4,NA,NA,completion,18430.96,853980,853968.84,853985.52,872416.48,872420,2023-10-16T11:55:06Z,872433.14,NULL,Beweis,ushahidi,d,NA,NA,NA,NA,sd,NA,4,NA,NA,NA,NA,NA,NA,NA,NA,NA,NA,NA,NA,NA,NA,NA,NA,NA,NA,NA
5e79b,deep,flow.Sequence,3_0_4_0_5_0,NA,NA,skipped,NA,872420,NA,NA,872416.48,872420,2023-10-16T11:55:06Z,872433.14,NULL,Kultur,utamaduni,s,shetani,gerezani,mazingira,NA,sd,NA,4,NA,NA,NA,NA,NA,NA,NA,NA,NA,NA,NA,NA,NA,NA,NA,NA,NA,NA,NA
5e79b,Shallow Question,html.Page,3_0_4_0_5_1_0,NA,NA,form submission,7811.86,872421,872416.48,872433.14,880245,880245,2023-10-16T11:55:14Z,880248.84,NULL,Kultur,utamaduni,s,shetani,gerezani,mazingira,utamaduni,NA,NA,4,NA,NA,NA,NA,NA,NA,NA,NA,NA,NA,NA,NA,NA,NA,NA,NA,NA,NA,NA
5e79b,"""Richtig""-Screen",canvas.Screen,3_0_4_0_5_1_1,NA,NA,timeout,4999.3400000001,880251,880240.72,880248.84,885231.54,885232,2023-10-16T11:55:19Z,885248.18,NULL,Kultur,utamaduni,s,shetani,gerezani,mazingira,NA,sd,1,4,NA,NA,NA,NA,NA,NA,NA,NA,NA,NA,NA,NA,NA,NA,NA,NA,NA,NA,NA
5e79b,"""Falsch""-Screen",canvas.Screen,3_0_4_0_5_1_2,NA,NA,skipped,NA,885235,NA,NA,885231.54,885235,2023-10-16T11:55:19Z,885248.18,NULL,Kultur,utamaduni,s,shetani,gerezani,mazingira,NA,sd,NA,4,NA,NA,NA,NA,NA,NA,NA,NA,NA,NA,NA,NA,NA,NA,NA,NA,NA,NA,NA
5e79b,shallow,flow.Sequence,3_0_4_0_5_1,NA,NA,completion,12798.4,872421,872416.48,872433.14,885231.54,885236,2023-10-16T11:55:19Z,885248.18,NULL,Kultur,utamaduni,s,shetani,gerezani,mazingira,NA,sd,NA,4,NA,NA,NA,NA,NA,NA,NA,NA,NA,NA,NA,NA,NA,NA,NA,NA,NA,NA,NA
5e79b,task,flow.Sequence,3_0_4_0_5,NA,NA,completion,12798.4,872420,872416.48,872433.14,885231.54,885236,2023-10-16T11:55:19Z,885248.18,NULL,Kultur,utamaduni,s,shetani,gerezani,mazingira,NA,sd,NA,4,NA,NA,NA,NA,NA,NA,NA,NA,NA,NA,NA,NA,NA,NA,NA,NA,NA,NA,NA
5e79b,deep,flow.Sequence,3_0_4_0_6_0,NA,NA,skipped,NA,885236,NA,NA,885231.54,885236,2023-10-16T11:55:19Z,885248.18,NULL,Sympathie,mapendano,s,dhamiria,fungamano,maazimio,NA,sd,NA,4,NA,NA,NA,NA,NA,NA,NA,NA,NA,NA,NA,NA,NA,NA,NA,NA,NA,NA,NA
5e79b,Shallow Question,html.Page,3_0_4_0_6_1_0,NA,NA,form submission,59105.82,885236,885231.54,885248.18,944354,944354,2023-10-16T11:56:18Z,944357.3,NULL,Sympathie,mapendano,s,dhamiria,fungamano,maazimio,mapendano,NA,NA,4,NA,NA,NA,NA,NA,NA,NA,NA,NA,NA,NA,NA,NA,NA,NA,NA,NA,NA,NA
5e79b,"""Richtig""-Screen",canvas.Screen,3_0_4_0_6_1_1,NA,NA,timeout,4999.24,944361,944349.26,944357.3,949339.96,949342,2023-10-16T11:56:23Z,949356.54,NULL,Sympathie,mapendano,s,dhamiria,fungamano,maazimio,NA,sd,1,4,NA,NA,NA,NA,NA,NA,NA,NA,NA,NA,NA,NA,NA,NA,NA,NA,NA,NA,NA
5e79b,"""Falsch""-Screen",canvas.Screen,3_0_4_0_6_1_2,NA,NA,skipped,NA,949347,NA,NA,949339.96,949348,2023-10-16T11:56:23Z,949356.54,NULL,Sympathie,mapendano,s,dhamiria,fungamano,maazimio,NA,sd,NA,4,NA,NA,NA,NA,NA,NA,NA,NA,NA,NA,NA,NA,NA,NA,NA,NA,NA,NA,NA
5e79b,shallow,flow.Sequence,3_0_4_0_6_1,NA,NA,completion,64091.78,885236,885231.54,885248.18,949339.96,949349,2023-10-16T11:56:23Z,949356.54,NULL,Sympathie,mapendano,s,dhamiria,fungamano,maazimio,NA,sd,NA,4,NA,NA,NA,NA,NA,NA,NA,NA,NA,NA,NA,NA,NA,NA,NA,NA,NA,NA,NA
5e79b,task,flow.Sequence,3_0_4_0_6,NA,NA,completion,64091.78,885236,885231.54,885248.18,949339.96,949349,2023-10-16T11:56:23Z,949356.54,NULL,Sympathie,mapendano,s,dhamiria,fungamano,maazimio,NA,sd,NA,4,NA,NA,NA,NA,NA,NA,NA,NA,NA,NA,NA,NA,NA,NA,NA,NA,NA,NA,NA
5e79b,deep,flow.Sequence,3_0_4_0_7_0,NA,NA,skipped,NA,949350,NA,NA,949339.96,949350,2023-10-16T11:56:23Z,949356.54,NULL,Verzögerung,kuchelewa,s,mwakilishi,mwanauchumi,jaribio,NA,sd,NA,4,NA,NA,NA,NA,NA,NA,NA,NA,NA,NA,NA,NA,NA,NA,NA,NA,NA,NA,NA
5e79b,Shallow Question,html.Page,3_0_4_0_7_1_0,NA,NA,form submission,4551.46,949350,949339.96,949356.54,953908,953909,2023-10-16T11:56:27Z,953905.96,NULL,Verzögerung,kuchelewa,s,mwakilishi,mwanauchumi,jaribio,kuchelewa,NA,NA,4,NA,NA,NA,NA,NA,NA,NA,NA,NA,NA,NA,NA,NA,NA,NA,NA,NA,NA,NA
5e79b,"""Richtig""-Screen",canvas.Screen,3_0_4_0_7_1_1,NA,NA,timeout,4999.4600000001,953914,953904.12,953905.96,958888.74,958890,2023-10-16T11:56:32Z,958905.42,NULL,Verzögerung,kuchelewa,s,mwakilishi,mwanauchumi,jaribio,NA,sd,1,4,NA,NA,NA,NA,NA,NA,NA,NA,NA,NA,NA,NA,NA,NA,NA,NA,NA,NA,NA
5e79b,"""Falsch""-Screen",canvas.Screen,3_0_4_0_7_1_2,NA,NA,skipped,NA,958897,NA,NA,958888.74,958897,2023-10-16T11:56:32Z,958905.42,NULL,Verzögerung,kuchelewa,s,mwakilishi,mwanauchumi,jaribio,NA,sd,NA,4,NA,NA,NA,NA,NA,NA,NA,NA,NA,NA,NA,NA,NA,NA,NA,NA,NA,NA,NA
5e79b,shallow,flow.Sequence,3_0_4_0_7_1,NA,NA,completion,9532.2,949350,949339.96,949356.54,958888.74,958898,2023-10-16T11:56:32Z,958905.42,NULL,Verzögerung,kuchelewa,s,mwakilishi,mwanauchumi,jaribio,NA,sd,NA,4,NA,NA,NA,NA,NA,NA,NA,NA,NA,NA,NA,NA,NA,NA,NA,NA,NA,NA,NA
5e79b,task,flow.Sequence,3_0_4_0_7,NA,NA,completion,9532.2,949349,949339.96,949356.54,958888.74,958898,2023-10-16T11:56:32Z,958905.42,NULL,Verzögerung,kuchelewa,s,mwakilishi,mwanauchumi,jaribio,NA,sd,NA,4,NA,NA,NA,NA,NA,NA,NA,NA,NA,NA,NA,NA,NA,NA,NA,NA,NA,NA,NA
5e79b,block,flow.Loop,3_0_4_0,NA,NA,completion,191008.96,767872,767871.42,767879.78,958888.74,958898,2023-10-16T11:56:32Z,958905.42,NULL,NA,NA,NA,NA,NA,NA,NA,sd,NA,4,NA,NA,NA,NA,NA,NA,NA,NA,NA,NA,NA,NA,NA,NA,NA,NA,NA,NA,NA
5e79b,weiter,canvas.Screen,3_0_4_1,sdf,keypress(Space),response,1159.58,958899,958888.74,958905.42,960065,960083,2023-10-16T11:56:34Z,960141.22,NULL,NA,NA,NA,NA,NA,NA,NA,sd,NA,4,NA,NA,NA,NA,NA,NA,NA,NA,NA,NA,NA,NA,NA,NA,NA,NA,NA,NA,NA
5e79b,check continue,flow.Sequence,3_0_4,NA,NA,completion,192185.22,767872,767871.42,767879.78,960065,960084,2023-10-16T11:56:34Z,960141.22,NULL,NA,NA,NA,NA,NA,NA,NA,sd,NA,4,NA,NA,NA,NA,NA,NA,NA,NA,NA,NA,NA,NA,NA,NA,NA,NA,NA,NA,NA
5e79b,Deep Question,html.Page,3_0_5_0_0_0_0,NA,NA,form submission,14825.78,960141,960140.88,960141.22,974967,974968,2023-10-16T11:56:48Z,974970.1,NULL,Aufstand,ugomaji,d,NA,NA,NA,ugomaji,NA,NA,5,NA,NA,NA,NA,NA,NA,NA,NA,NA,NA,NA,NA,NA,NA,NA,NA,NA,NA,NA
5e79b,"""Richtig""-Screen",canvas.Screen,3_0_5_0_0_0_1,NA,NA,timeout,4999.28,974973,974963.16,974970.1,979952.74,979958,2023-10-16T11:56:53Z,979969.38,NULL,Aufstand,ugomaji,d,NA,NA,NA,NA,sdf,1,5,NA,NA,NA,NA,NA,NA,NA,NA,NA,NA,NA,NA,NA,NA,NA,NA,NA,NA,NA
5e79b,"""Falsch""-Screen",canvas.Screen,3_0_5_0_0_0_2,NA,NA,skipped,NA,979970,NA,NA,979952.74,979970,2023-10-16T11:56:53Z,979969.38,NULL,Aufstand,ugomaji,d,NA,NA,NA,NA,sdf,NA,5,NA,NA,NA,NA,NA,NA,NA,NA,NA,NA,NA,NA,NA,NA,NA,NA,NA,NA,NA
5e79b,deep,flow.Sequence,3_0_5_0_0_0,NA,NA,completion,19811.52,960141,960140.88,960141.22,979952.74,979971,2023-10-16T11:56:53Z,979969.38,NULL,Aufstand,ugomaji,d,NA,NA,NA,NA,sdf,NA,5,NA,NA,NA,NA,NA,NA,NA,NA,NA,NA,NA,NA,NA,NA,NA,NA,NA,NA,NA
5e79b,shallow,flow.Sequence,3_0_5_0_0_1,NA,NA,skipped,NA,979971,NA,NA,979952.74,979971,2023-10-16T11:56:53Z,979969.38,NULL,Aufstand,ugomaji,d,NA,NA,NA,NA,sdf,NA,5,NA,NA,NA,NA,NA,NA,NA,NA,NA,NA,NA,NA,NA,NA,NA,NA,NA,NA,NA
5e79b,task,flow.Sequence,3_0_5_0_0,NA,NA,completion,19811.52,960141,960140.88,960141.22,979952.74,979971,2023-10-16T11:56:53Z,979969.38,NULL,Aufstand,ugomaji,d,NA,NA,NA,NA,sdf,NA,5,NA,NA,NA,NA,NA,NA,NA,NA,NA,NA,NA,NA,NA,NA,NA,NA,NA,NA,NA
5e79b,deep,flow.Sequence,3_0_5_0_1_0,NA,NA,skipped,NA,979972,NA,NA,979952.74,979972,2023-10-16T11:56:53Z,979969.38,NULL,Sympathie,mapendano,s,dhamiria,fungamano,maazimio,NA,sdf,NA,5,NA,NA,NA,NA,NA,NA,NA,NA,NA,NA,NA,NA,NA,NA,NA,NA,NA,NA,NA
5e79b,Shallow Question,html.Page,3_0_5_0_1_1_0,NA,NA,form submission,11949.62,979972,979952.74,979969.38,991919,991920,2023-10-16T11:57:05Z,991917.78,NULL,Sympathie,mapendano,s,dhamiria,fungamano,maazimio,mapendano,NA,NA,5,NA,NA,NA,NA,NA,NA,NA,NA,NA,NA,NA,NA,NA,NA,NA,NA,NA,NA,NA
5e79b,"""Richtig""-Screen",canvas.Screen,3_0_5_0_1_1_1,NA,NA,timeout,4999.46,991925,991911.6,991917.78,996900.58,996902,2023-10-16T11:57:10Z,996917.24,NULL,Sympathie,mapendano,s,dhamiria,fungamano,maazimio,NA,sdf,1,5,NA,NA,NA,NA,NA,NA,NA,NA,NA,NA,NA,NA,NA,NA,NA,NA,NA,NA,NA
5e79b,"""Falsch""-Screen",canvas.Screen,3_0_5_0_1_1_2,NA,NA,skipped,NA,996906,NA,NA,996900.58,996907,2023-10-16T11:57:10Z,996917.24,NULL,Sympathie,mapendano,s,dhamiria,fungamano,maazimio,NA,sdf,NA,5,NA,NA,NA,NA,NA,NA,NA,NA,NA,NA,NA,NA,NA,NA,NA,NA,NA,NA,NA
5e79b,shallow,flow.Sequence,3_0_5_0_1_1,NA,NA,completion,16931.2,979972,979952.74,979969.38,996900.58,996907,2023-10-16T11:57:10Z,996917.24,NULL,Sympathie,mapendano,s,dhamiria,fungamano,maazimio,NA,sdf,NA,5,NA,NA,NA,NA,NA,NA,NA,NA,NA,NA,NA,NA,NA,NA,NA,NA,NA,NA,NA
5e79b,task,flow.Sequence,3_0_5_0_1,NA,NA,completion,16931.2,979972,979952.74,979969.38,996900.58,996908,2023-10-16T11:57:10Z,996917.24,NULL,Sympathie,mapendano,s,dhamiria,fungamano,maazimio,NA,sdf,NA,5,NA,NA,NA,NA,NA,NA,NA,NA,NA,NA,NA,NA,NA,NA,NA,NA,NA,NA,NA
5e79b,deep,flow.Sequence,3_0_5_0_2_0,NA,NA,skipped,NA,996909,NA,NA,996900.58,996909,2023-10-16T11:57:10Z,996917.24,NULL,Verzögerung,kuchelewa,s,mwakilishi,mwanauchumi,jaribio,NA,sdf,NA,5,NA,NA,NA,NA,NA,NA,NA,NA,NA,NA,NA,NA,NA,NA,NA,NA,NA,NA,NA
5e79b,Shallow Question,html.Page,3_0_5_0_2_1_0,NA,NA,form submission,5785.76,996909,996900.58,996917.24,1002703,1002704,2023-10-16T11:57:16Z,1002716.42,NULL,Verzögerung,kuchelewa,s,mwakilishi,mwanauchumi,jaribio,kuchelewa,NA,NA,5,NA,NA,NA,NA,NA,NA,NA,NA,NA,NA,NA,NA,NA,NA,NA,NA,NA,NA,NA
5e79b,"""Richtig""-Screen",canvas.Screen,3_0_5_0_2_1_1,NA,NA,timeout,4999.26,1002706,1002698.94,1002716.42,1007699.2,1007700,2023-10-16T11:57:21Z,1007715.68,NULL,Verzögerung,kuchelewa,s,mwakilishi,mwanauchumi,jaribio,NA,sdf,1,5,NA,NA,NA,NA,NA,NA,NA,NA,NA,NA,NA,NA,NA,NA,NA,NA,NA,NA,NA
5e79b,"""Falsch""-Screen",canvas.Screen,3_0_5_0_2_1_2,NA,NA,skipped,NA,1007705,NA,NA,1007699.2,1007705,2023-10-16T11:57:21Z,1007715.68,NULL,Verzögerung,kuchelewa,s,mwakilishi,mwanauchumi,jaribio,NA,sdf,NA,5,NA,NA,NA,NA,NA,NA,NA,NA,NA,NA,NA,NA,NA,NA,NA,NA,NA,NA,NA
5e79b,shallow,flow.Sequence,3_0_5_0_2_1,NA,NA,completion,10781.96,996909,996900.58,996917.24,1007699.2,1007705,2023-10-16T11:57:21Z,1007715.68,NULL,Verzögerung,kuchelewa,s,mwakilishi,mwanauchumi,jaribio,NA,sdf,NA,5,NA,NA,NA,NA,NA,NA,NA,NA,NA,NA,NA,NA,NA,NA,NA,NA,NA,NA,NA
5e79b,task,flow.Sequence,3_0_5_0_2,NA,NA,completion,10781.96,996908,996900.58,996917.24,1007699.2,1007706,2023-10-16T11:57:21Z,1007715.68,NULL,Verzögerung,kuchelewa,s,mwakilishi,mwanauchumi,jaribio,NA,sdf,NA,5,NA,NA,NA,NA,NA,NA,NA,NA,NA,NA,NA,NA,NA,NA,NA,NA,NA,NA,NA
5e79b,Deep Question,html.Page,3_0_5_0_3_0_0,NA,NA,form submission,7583.3199999999,1007706,1007699.2,1007715.68,1015299,1015299,2023-10-16T11:57:29Z,1015298.18,NULL,Beweis,ushahidi,d,NA,NA,NA,mitjui,NA,NA,5,NA,NA,NA,NA,NA,NA,NA,NA,NA,NA,NA,NA,NA,NA,NA,NA,NA,NA,NA
5e79b,"""Richtig""-Screen",canvas.Screen,3_0_5_0_3_0_1,NA,NA,skipped,NA,1015300,NA,NA,1015299,1015300,2023-10-16T11:57:29Z,1015298.18,NULL,Beweis,ushahidi,d,NA,NA,NA,NA,sdf,NA,5,NA,NA,NA,NA,NA,NA,NA,NA,NA,NA,NA,NA,NA,NA,NA,NA,NA,NA,NA
5e79b,"""Falsch""-Screen",canvas.Screen,3_0_5_0_3_0_2,NA,NA,timeout,4999.34,1015302,1015294.74,1015298.18,1020280.92,1020283,2023-10-16T11:57:34Z,1020297.52,NULL,Beweis,ushahidi,d,NA,NA,NA,NA,sdf,0,5,NA,NA,NA,NA,NA,NA,NA,NA,NA,NA,NA,NA,NA,NA,NA,NA,NA,NA,NA
5e79b,deep,flow.Sequence,3_0_5_0_3_0,NA,NA,completion,12565.24,1007706,1007699.2,1007715.68,1020280.92,1020284,2023-10-16T11:57:34Z,1020297.52,NULL,Beweis,ushahidi,d,NA,NA,NA,NA,sdf,NA,5,NA,NA,NA,NA,NA,NA,NA,NA,NA,NA,NA,NA,NA,NA,NA,NA,NA,NA,NA
5e79b,shallow,flow.Sequence,3_0_5_0_3_1,NA,NA,skipped,NA,1020284,NA,NA,1020280.92,1020284,2023-10-16T11:57:34Z,1020297.52,NULL,Beweis,ushahidi,d,NA,NA,NA,NA,sdf,NA,5,NA,NA,NA,NA,NA,NA,NA,NA,NA,NA,NA,NA,NA,NA,NA,NA,NA,NA,NA
5e79b,task,flow.Sequence,3_0_5_0_3,NA,NA,completion,12565.24,1007706,1007699.2,1007715.68,1020280.92,1020285,2023-10-16T11:57:34Z,1020297.52,NULL,Beweis,ushahidi,d,NA,NA,NA,NA,sdf,NA,5,NA,NA,NA,NA,NA,NA,NA,NA,NA,NA,NA,NA,NA,NA,NA,NA,NA,NA,NA
5e79b,deep,flow.Sequence,3_0_5_0_4_0,NA,NA,skipped,NA,1020285,NA,NA,1020280.92,1020285,2023-10-16T11:57:34Z,1020297.52,NULL,Annäherung,maegesho,s,madahili,kujiamini,mapendekezo,NA,sdf,NA,5,NA,NA,NA,NA,NA,NA,NA,NA,NA,NA,NA,NA,NA,NA,NA,NA,NA,NA,NA
5e79b,Shallow Question,html.Page,3_0_5_0_4_1_0,NA,NA,form submission,7374.48,1020286,1020280.92,1020297.52,1027672,1027672,2023-10-16T11:57:41Z,1027679.86,NULL,Annäherung,maegesho,s,madahili,kujiamini,mapendekezo,maegesho,NA,NA,5,NA,NA,NA,NA,NA,NA,NA,NA,NA,NA,NA,NA,NA,NA,NA,NA,NA,NA,NA
5e79b,"""Richtig""-Screen",canvas.Screen,3_0_5_0_4_1_1,NA,NA,timeout,4999.4400000001,1027676,1027668.36,1027679.86,1032662.64,1032664,2023-10-16T11:57:46Z,1032679.3,NULL,Annäherung,maegesho,s,madahili,kujiamini,mapendekezo,NA,sdf,1,5,NA,NA,NA,NA,NA,NA,NA,NA,NA,NA,NA,NA,NA,NA,NA,NA,NA,NA,NA
5e79b,"""Falsch""-Screen",canvas.Screen,3_0_5_0_4_1_2,NA,NA,skipped,NA,1032671,NA,NA,1032662.64,1032672,2023-10-16T11:57:46Z,1032679.3,NULL,Annäherung,maegesho,s,madahili,kujiamini,mapendekezo,NA,sdf,NA,5,NA,NA,NA,NA,NA,NA,NA,NA,NA,NA,NA,NA,NA,NA,NA,NA,NA,NA,NA
5e79b,shallow,flow.Sequence,3_0_5_0_4_1,NA,NA,completion,12365.12,1020286,1020280.92,1020297.52,1032662.64,1032672,2023-10-16T11:57:46Z,1032679.3,NULL,Annäherung,maegesho,s,madahili,kujiamini,mapendekezo,NA,sdf,NA,5,NA,NA,NA,NA,NA,NA,NA,NA,NA,NA,NA,NA,NA,NA,NA,NA,NA,NA,NA
5e79b,task,flow.Sequence,3_0_5_0_4,NA,NA,completion,12365.12,1020285,1020280.92,1020297.52,1032662.64,1032672,2023-10-16T11:57:46Z,1032679.3,NULL,Annäherung,maegesho,s,madahili,kujiamini,mapendekezo,NA,sdf,NA,5,NA,NA,NA,NA,NA,NA,NA,NA,NA,NA,NA,NA,NA,NA,NA,NA,NA,NA,NA
5e79b,deep,flow.Sequence,3_0_5_0_5_0,NA,NA,skipped,NA,1032673,NA,NA,1032662.64,1032673,2023-10-16T11:57:46Z,1032679.3,NULL,Kultur,utamaduni,s,shetani,gerezani,mazingira,NA,sdf,NA,5,NA,NA,NA,NA,NA,NA,NA,NA,NA,NA,NA,NA,NA,NA,NA,NA,NA,NA,NA
5e79b,Shallow Question,html.Page,3_0_5_0_5_1_0,NA,NA,form submission,6100.7,1032674,1032662.64,1032679.3,1038780,1038785,2023-10-16T11:57:52Z,1038795.12,NULL,Kultur,utamaduni,s,shetani,gerezani,mazingira,utamaduni,NA,NA,5,NA,NA,NA,NA,NA,NA,NA,NA,NA,NA,NA,NA,NA,NA,NA,NA,NA,NA,NA
5e79b,"""Richtig""-Screen",canvas.Screen,3_0_5_0_5_1_1,NA,NA,timeout,4999.4,1038796,1038770.98,1038795.12,1043777.86,1043779,2023-10-16T11:57:57Z,1043794.52,NULL,Kultur,utamaduni,s,shetani,gerezani,mazingira,NA,sdf,1,5,NA,NA,NA,NA,NA,NA,NA,NA,NA,NA,NA,NA,NA,NA,NA,NA,NA,NA,NA
5e79b,"""Falsch""-Screen",canvas.Screen,3_0_5_0_5_1_2,NA,NA,skipped,NA,1043782,NA,NA,1043777.86,1043782,2023-10-16T11:57:57Z,1043794.52,NULL,Kultur,utamaduni,s,shetani,gerezani,mazingira,NA,sdf,NA,5,NA,NA,NA,NA,NA,NA,NA,NA,NA,NA,NA,NA,NA,NA,NA,NA,NA,NA,NA
5e79b,shallow,flow.Sequence,3_0_5_0_5_1,NA,NA,completion,11098.56,1032674,1032662.64,1032679.3,1043777.86,1043782,2023-10-16T11:57:57Z,1043794.52,NULL,Kultur,utamaduni,s,shetani,gerezani,mazingira,NA,sdf,NA,5,NA,NA,NA,NA,NA,NA,NA,NA,NA,NA,NA,NA,NA,NA,NA,NA,NA,NA,NA
5e79b,task,flow.Sequence,3_0_5_0_5,NA,NA,completion,11098.56,1032673,1032662.64,1032679.3,1043777.86,1043783,2023-10-16T11:57:57Z,1043794.52,NULL,Kultur,utamaduni,s,shetani,gerezani,mazingira,NA,sdf,NA,5,NA,NA,NA,NA,NA,NA,NA,NA,NA,NA,NA,NA,NA,NA,NA,NA,NA,NA,NA
5e79b,Deep Question,html.Page,3_0_5_0_6_0_0,NA,NA,form submission,15008.48,1043783,1043777.86,1043794.52,1058803,1058804,2023-10-16T11:58:12Z,1058809.22,NULL,Polizist,msongora,d,NA,NA,NA,msgona,NA,NA,5,NA,NA,NA,NA,NA,NA,NA,NA,NA,NA,NA,NA,NA,NA,NA,NA,NA,NA,NA
5e79b,"""Richtig""-Screen",canvas.Screen,3_0_5_0_6_0_1,NA,NA,skipped,NA,1058807,NA,NA,1058803,1058807,2023-10-16T11:58:12Z,1058809.22,NULL,Polizist,msongora,d,NA,NA,NA,NA,sdf,NA,5,NA,NA,NA,NA,NA,NA,NA,NA,NA,NA,NA,NA,NA,NA,NA,NA,NA,NA,NA
5e79b,"""Falsch""-Screen",canvas.Screen,3_0_5_0_6_0_2,NA,NA,timeout,4999.3600000001,1058810,1058798.6,1058809.22,1063792.08,1063794,2023-10-16T11:58:17Z,1063808.58,NULL,Polizist,msongora,d,NA,NA,NA,NA,sdf,0,5,NA,NA,NA,NA,NA,NA,NA,NA,NA,NA,NA,NA,NA,NA,NA,NA,NA,NA,NA
5e79b,deep,flow.Sequence,3_0_5_0_6_0,NA,NA,completion,19997.56,1043783,1043777.86,1043794.52,1063792.08,1063794,2023-10-16T11:58:17Z,1063808.58,NULL,Polizist,msongora,d,NA,NA,NA,NA,sdf,NA,5,NA,NA,NA,NA,NA,NA,NA,NA,NA,NA,NA,NA,NA,NA,NA,NA,NA,NA,NA
5e79b,shallow,flow.Sequence,3_0_5_0_6_1,NA,NA,skipped,NA,1063795,NA,NA,1063792.08,1063795,2023-10-16T11:58:17Z,1063808.58,NULL,Polizist,msongora,d,NA,NA,NA,NA,sdf,NA,5,NA,NA,NA,NA,NA,NA,NA,NA,NA,NA,NA,NA,NA,NA,NA,NA,NA,NA,NA
5e79b,task,flow.Sequence,3_0_5_0_6,NA,NA,completion,19997.56,1043783,1043777.86,1043794.52,1063792.08,1063796,2023-10-16T11:58:17Z,1063808.58,NULL,Polizist,msongora,d,NA,NA,NA,NA,sdf,NA,5,NA,NA,NA,NA,NA,NA,NA,NA,NA,NA,NA,NA,NA,NA,NA,NA,NA,NA,NA
5e79b,Deep Question,html.Page,3_0_5_0_7_0_0,NA,NA,form submission,9097.4199999999,1063798,1063792.08,1063808.58,1072906,1072907,2023-10-16T11:58:26Z,1072907.5,NULL,Prüfung,mtihani,d,NA,NA,NA,mtihani,NA,NA,5,NA,NA,NA,NA,NA,NA,NA,NA,NA,NA,NA,NA,NA,NA,NA,NA,NA,NA,NA
5e79b,"""Richtig""-Screen",canvas.Screen,3_0_5_0_7_0_1,NA,NA,timeout,4999.28,1072911,1072900.56,1072907.5,1077890.3,1077892,2023-10-16T11:58:31Z,1077906.78,NULL,Prüfung,mtihani,d,NA,NA,NA,NA,sdf,1,5,NA,NA,NA,NA,NA,NA,NA,NA,NA,NA,NA,NA,NA,NA,NA,NA,NA,NA,NA
5e79b,"""Falsch""-Screen",canvas.Screen,3_0_5_0_7_0_2,NA,NA,skipped,NA,1077901,NA,NA,1077890.3,1077901,2023-10-16T11:58:31Z,1077906.78,NULL,Prüfung,mtihani,d,NA,NA,NA,NA,sdf,NA,5,NA,NA,NA,NA,NA,NA,NA,NA,NA,NA,NA,NA,NA,NA,NA,NA,NA,NA,NA
5e79b,deep,flow.Sequence,3_0_5_0_7_0,NA,NA,completion,14081.72,1063797,1063792.08,1063808.58,1077890.3,1077902,2023-10-16T11:58:31Z,1077906.78,NULL,Prüfung,mtihani,d,NA,NA,NA,NA,sdf,NA,5,NA,NA,NA,NA,NA,NA,NA,NA,NA,NA,NA,NA,NA,NA,NA,NA,NA,NA,NA
5e79b,shallow,flow.Sequence,3_0_5_0_7_1,NA,NA,skipped,NA,1077902,NA,NA,1077890.3,1077902,2023-10-16T11:58:31Z,1077906.78,NULL,Prüfung,mtihani,d,NA,NA,NA,NA,sdf,NA,5,NA,NA,NA,NA,NA,NA,NA,NA,NA,NA,NA,NA,NA,NA,NA,NA,NA,NA,NA
5e79b,task,flow.Sequence,3_0_5_0_7,NA,NA,completion,14081.72,1063797,1063792.08,1063808.58,1077890.3,1077903,2023-10-16T11:58:31Z,1077906.78,NULL,Prüfung,mtihani,d,NA,NA,NA,NA,sdf,NA,5,NA,NA,NA,NA,NA,NA,NA,NA,NA,NA,NA,NA,NA,NA,NA,NA,NA,NA,NA
5e79b,block,flow.Loop,3_0_5_0,NA,NA,completion,117749.08,960141,960140.88,960141.22,1077890.3,1077903,2023-10-16T11:58:31Z,1077906.78,NULL,NA,NA,NA,NA,NA,NA,NA,sdf,NA,5,NA,NA,NA,NA,NA,NA,NA,NA,NA,NA,NA,NA,NA,NA,NA,NA,NA,NA,NA
5e79b,weiter,canvas.Screen,3_0_5_1,sdf,keypress(Space),response,925.21999999997,1077903,1077890.3,1077906.78,1078832,1078841,2023-10-16T11:58:32Z,1079522.48,NULL,NA,NA,NA,NA,NA,NA,NA,sdf,NA,5,NA,NA,NA,NA,NA,NA,NA,NA,NA,NA,NA,NA,NA,NA,NA,NA,NA,NA,NA
5e79b,check continue,flow.Sequence,3_0_5,NA,NA,completion,118690.78,960141,960140.88,960141.22,1078832,1078842,2023-10-16T11:58:32Z,1079522.48,NULL,NA,NA,NA,NA,NA,NA,NA,sdf,NA,5,NA,NA,NA,NA,NA,NA,NA,NA,NA,NA,NA,NA,NA,NA,NA,NA,NA,NA,NA
5e79b,check continue,flow.Sequence,3_0_6,NA,NA,skipped,NA,1078902,NA,NA,1078832,1078902,2023-10-16T11:58:32Z,1079522.48,NULL,NA,NA,NA,NA,NA,NA,NA,dfs,NA,6,NA,NA,NA,NA,NA,NA,NA,NA,NA,NA,NA,NA,NA,NA,NA,NA,NA,NA,NA
5e79b,check continue,flow.Sequence,3_0_7,NA,NA,skipped,NA,1078933,NA,NA,1078832,1078933,2023-10-16T11:58:32Z,1079522.48,NULL,NA,NA,NA,NA,NA,NA,NA,df,NA,7,NA,NA,NA,NA,NA,NA,NA,NA,NA,NA,NA,NA,NA,NA,NA,NA,NA,NA,NA
5e79b,check continue,flow.Sequence,3_0_8,NA,NA,skipped,NA,1078970,NA,NA,1078832,1078970,2023-10-16T11:58:32Z,1079522.48,NULL,NA,NA,NA,NA,NA,NA,NA,dfs,NA,8,NA,NA,NA,NA,NA,NA,NA,NA,NA,NA,NA,NA,NA,NA,NA,NA,NA,NA,NA
5e79b,check continue,flow.Sequence,3_0_9,NA,NA,skipped,NA,1078999,NA,NA,1078832,1078999,2023-10-16T11:58:32Z,1079522.48,NULL,NA,NA,NA,NA,NA,NA,NA,dsf,NA,9,NA,NA,NA,NA,NA,NA,NA,NA,NA,NA,NA,NA,NA,NA,NA,NA,NA,NA,NA
5e79b,check continue,flow.Sequence,3_0_10,NA,NA,skipped,NA,1079026,NA,NA,1078832,1079026,2023-10-16T11:58:32Z,1079522.48,NULL,NA,NA,NA,NA,NA,NA,NA,df,NA,10,NA,NA,NA,NA,NA,NA,NA,NA,NA,NA,NA,NA,NA,NA,NA,NA,NA,NA,NA
5e79b,check continue,flow.Sequence,3_0_11,NA,NA,skipped,NA,1079053,NA,NA,1078832,1079053,2023-10-16T11:58:32Z,1079522.48,NULL,NA,NA,NA,NA,NA,NA,NA,dfs,NA,11,NA,NA,NA,NA,NA,NA,NA,NA,NA,NA,NA,NA,NA,NA,NA,NA,NA,NA,NA
5e79b,check continue,flow.Sequence,3_0_12,NA,NA,skipped,NA,1079081,NA,NA,1078832,1079081,2023-10-16T11:58:33Z,1079522.48,NULL,NA,NA,NA,NA,NA,NA,NA,dsf,NA,12,NA,NA,NA,NA,NA,NA,NA,NA,NA,NA,NA,NA,NA,NA,NA,NA,NA,NA,NA
5e79b,check continue,flow.Sequence,3_0_13,NA,NA,skipped,NA,1079107,NA,NA,1078832,1079107,2023-10-16T11:58:33Z,1079522.48,NULL,NA,NA,NA,NA,NA,NA,NA,dsf,NA,13,NA,NA,NA,NA,NA,NA,NA,NA,NA,NA,NA,NA,NA,NA,NA,NA,NA,NA,NA
5e79b,check continue,flow.Sequence,3_0_14,NA,NA,skipped,NA,1079134,NA,NA,1078832,1079135,2023-10-16T11:58:33Z,1079522.48,NULL,NA,NA,NA,NA,NA,NA,NA,NA,NA,14,NA,NA,NA,NA,NA,NA,NA,NA,NA,NA,NA,NA,NA,NA,NA,NA,NA,NA,NA
5e79b,check continue,flow.Sequence,3_0_15,NA,NA,skipped,NA,1079162,NA,NA,1078832,1079162,2023-10-16T11:58:33Z,1079522.48,NULL,NA,NA,NA,NA,NA,NA,NA,NA,NA,15,NA,NA,NA,NA,NA,NA,NA,NA,NA,NA,NA,NA,NA,NA,NA,NA,NA,NA,NA
5e79b,check continue,flow.Sequence,3_0_16,NA,NA,skipped,NA,1079186,NA,NA,1078832,1079186,2023-10-16T11:58:33Z,1079522.48,NULL,NA,NA,NA,NA,NA,NA,NA,NA,NA,16,NA,NA,NA,NA,NA,NA,NA,NA,NA,NA,NA,NA,NA,NA,NA,NA,NA,NA,NA
5e79b,check continue,flow.Sequence,3_0_17,NA,NA,skipped,NA,1079214,NA,NA,1078832,1079214,2023-10-16T11:58:33Z,1079522.48,NULL,NA,NA,NA,NA,NA,NA,NA,NA,NA,17,NA,NA,NA,NA,NA,NA,NA,NA,NA,NA,NA,NA,NA,NA,NA,NA,NA,NA,NA
5e79b,check continue,flow.Sequence,3_0_18,NA,NA,skipped,NA,1079238,NA,NA,1078832,1079239,2023-10-16T11:58:33Z,1079522.48,NULL,NA,NA,NA,NA,NA,NA,NA,NA,NA,18,NA,NA,NA,NA,NA,NA,NA,NA,NA,NA,NA,NA,NA,NA,NA,NA,NA,NA,NA
5e79b,check continue,flow.Sequence,3_0_19,NA,NA,skipped,NA,1079263,NA,NA,1078832,1079263,2023-10-16T11:58:33Z,1079522.48,NULL,NA,NA,NA,NA,NA,NA,NA,NA,NA,19,NA,NA,NA,NA,NA,NA,NA,NA,NA,NA,NA,NA,NA,NA,NA,NA,NA,NA,NA
5e79b,check continue,flow.Sequence,3_0_20,NA,NA,skipped,NA,1079293,NA,NA,1078832,1079293,2023-10-16T11:58:33Z,1079522.48,NULL,NA,NA,NA,NA,NA,NA,NA,NA,NA,20,NA,NA,NA,NA,NA,NA,NA,NA,NA,NA,NA,NA,NA,NA,NA,NA,NA,NA,NA
5e79b,check continue,flow.Sequence,3_0_21,NA,NA,skipped,NA,1079318,NA,NA,1078832,1079318,2023-10-16T11:58:33Z,1079522.48,NULL,NA,NA,NA,NA,NA,NA,NA,NA,NA,21,NA,NA,NA,NA,NA,NA,NA,NA,NA,NA,NA,NA,NA,NA,NA,NA,NA,NA,NA
5e79b,check continue,flow.Sequence,3_0_22,NA,NA,skipped,NA,1079342,NA,NA,1078832,1079342,2023-10-16T11:58:33Z,1079522.48,NULL,NA,NA,NA,NA,NA,NA,NA,NA,NA,22,NA,NA,NA,NA,NA,NA,NA,NA,NA,NA,NA,NA,NA,NA,NA,NA,NA,NA,NA
5e79b,check continue,flow.Sequence,3_0_23,NA,NA,skipped,NA,1079369,NA,NA,1078832,1079369,2023-10-16T11:58:33Z,1079522.48,NULL,NA,NA,NA,NA,NA,NA,NA,NA,NA,23,NA,NA,NA,NA,NA,NA,NA,NA,NA,NA,NA,NA,NA,NA,NA,NA,NA,NA,NA
5e79b,check continue,flow.Sequence,3_0_24,NA,NA,skipped,NA,1079394,NA,NA,1078832,1079395,2023-10-16T11:58:33Z,1079522.48,NULL,NA,NA,NA,NA,NA,NA,NA,NA,NA,24,NA,NA,NA,NA,NA,NA,NA,NA,NA,NA,NA,NA,NA,NA,NA,NA,NA,NA,NA
5e79b,check continue,flow.Sequence,3_0_25,NA,NA,skipped,NA,1079418,NA,NA,1078832,1079418,2023-10-16T11:58:33Z,1079522.48,NULL,NA,NA,NA,NA,NA,NA,NA,NA,NA,25,NA,NA,NA,NA,NA,NA,NA,NA,NA,NA,NA,NA,NA,NA,NA,NA,NA,NA,NA
5e79b,check continue,flow.Sequence,3_0_26,NA,NA,skipped,NA,1079446,NA,NA,1078832,1079446,2023-10-16T11:58:33Z,1079522.48,NULL,NA,NA,NA,NA,NA,NA,NA,NA,NA,26,NA,NA,NA,NA,NA,NA,NA,NA,NA,NA,NA,NA,NA,NA,NA,NA,NA,NA,NA
5e79b,check continue,flow.Sequence,3_0_27,NA,NA,skipped,NA,1079471,NA,NA,1078832,1079471,2023-10-16T11:58:33Z,1079522.48,NULL,NA,NA,NA,NA,NA,NA,NA,NA,NA,27,NA,NA,NA,NA,NA,NA,NA,NA,NA,NA,NA,NA,NA,NA,NA,NA,NA,NA,NA
5e79b,check continue,flow.Sequence,3_0_28,NA,NA,skipped,NA,1079497,NA,NA,1078832,1079497,2023-10-16T11:58:33Z,1079522.48,NULL,NA,NA,NA,NA,NA,NA,NA,NA,NA,28,NA,NA,NA,NA,NA,NA,NA,NA,NA,NA,NA,NA,NA,NA,NA,NA,NA,NA,NA
5e79b,check continue,flow.Sequence,3_0_29,NA,NA,skipped,NA,1079522,NA,NA,1078832,1079522,2023-10-16T11:58:33Z,1079522.48,NULL,NA,NA,NA,NA,NA,NA,NA,NA,NA,29,NA,NA,NA,NA,NA,NA,NA,NA,NA,NA,NA,NA,NA,NA,NA,NA,NA,NA,NA
5e79b,until continue,flow.Loop,3_0,NA,NA,completion,938185.86,140613,140645.5,140646.14,1078832,1079522,2023-10-16T11:58:33Z,1079522.48,NULL,NA,NA,NA,NA,NA,NA,NA,NA,NA,NA,NA,NA,NA,NA,NA,NA,NA,NA,NA,NA,NA,NA,NA,NA,NA,NA,NA,NA,NA
5e79b,block 1,flow.Sequence,3,NA,NA,completion,938185.86,140613,140645.5,140646.14,1078832,1079522,2023-10-16T11:58:33Z,1079522.48,NULL,NA,NA,NA,NA,NA,NA,NA,NA,NA,NA,NA,NA,NA,NA,NA,NA,NA,NA,NA,NA,NA,NA,NA,NA,NA,NA,NA,NA,NA
5e79b,1.Part Over,canvas.Screen,4,NA,keypress(Space),response,2996.52,1079522,1079522.12,1079522.48,1082519,1082533,2023-10-16T11:58:36Z,1082611.78,NULL,NA,NA,NA,NA,NA,NA,NA,NA,NA,NA,NA,NA,NA,NA,NA,NA,NA,NA,NA,NA,NA,NA,NA,NA,NA,NA,NA,NA,NA
5e79b,deep,flow.Sequence,5_0_0_0_0_0,NA,NA,skipped,NA,1082611,NA,NA,1082519,1082611,2023-10-16T11:58:36Z,1082611.78,NULL,Schönheit,kirembo,s,mahojiano,msisimko,jitihadi,NA,sdf,NA,0,NA,NA,NA,NA,NA,NA,NA,NA,NA,NA,NA,NA,NA,NA,NA,NA,NA,NA,NA
5e79b,Shallow Question,html.Page,5_0_0_0_0_1_0,NA,NA,form submission,13995.22,1082611,1082611.46,1082611.78,1096607,1096607,2023-10-16T11:58:50Z,1096621.26,NULL,Schönheit,kirembo,s,mahojiano,msisimko,jitihadi,msisimko,NA,NA,0,NA,NA,NA,NA,NA,NA,NA,NA,NA,NA,NA,NA,NA,NA,NA,NA,NA,NA,NA
5e79b,"""Richtig""-Screen",canvas.Screen,5_0_0_0_0_1_1,NA,NA,skipped,NA,1096610,NA,NA,1096607,1096610,2023-10-16T11:58:50Z,1096621.26,NULL,Schönheit,kirembo,s,mahojiano,msisimko,jitihadi,NA,sdf,NA,0,NA,NA,NA,NA,NA,NA,NA,NA,NA,NA,NA,NA,NA,NA,NA,NA,NA,NA,NA
5e79b,"""Falsch""-Screen",canvas.Screen,5_0_0_0_0_1_2,NA,NA,timeout,4999.2,1096612,1096604.44,1096621.26,1101603.9,1101605,2023-10-16T11:58:55Z,1101620.46,NULL,Schönheit,kirembo,s,mahojiano,msisimko,jitihadi,NA,sdf,0,0,NA,NA,NA,NA,NA,NA,NA,NA,NA,NA,NA,NA,NA,NA,NA,NA,NA,NA,NA
5e79b,shallow,flow.Sequence,5_0_0_0_0_1,NA,NA,completion,18992.12,1082611,1082611.46,1082611.78,1101603.9,1101607,2023-10-16T11:58:55Z,1101620.46,NULL,Schönheit,kirembo,s,mahojiano,msisimko,jitihadi,NA,sdf,NA,0,NA,NA,NA,NA,NA,NA,NA,NA,NA,NA,NA,NA,NA,NA,NA,NA,NA,NA,NA
5e79b,task,flow.Sequence,5_0_0_0_0,NA,NA,completion,18992.12,1082611,1082611.46,1082611.78,1101603.9,1101607,2023-10-16T11:58:55Z,1101620.46,NULL,Schönheit,kirembo,s,mahojiano,msisimko,jitihadi,NA,sdf,NA,0,NA,NA,NA,NA,NA,NA,NA,NA,NA,NA,NA,NA,NA,NA,NA,NA,NA,NA,NA
5e79b,Deep Question,html.Page,5_0_0_0_1_0_0,NA,NA,form submission,14731.54,1101607,1101603.9,1101620.46,1116352,1116352,2023-10-16T11:59:10Z,1116351.92,NULL,Sänger,mwimbaji,d,NA,NA,NA,hiloa,NA,NA,0,NA,NA,NA,NA,NA,NA,NA,NA,NA,NA,NA,NA,NA,NA,NA,NA,NA,NA,NA
5e79b,"""Richtig""-Screen",canvas.Screen,5_0_0_0_1_0_1,NA,NA,skipped,NA,1116355,NA,NA,1116352,1116355,2023-10-16T11:59:10Z,1116351.92,NULL,Sänger,mwimbaji,d,NA,NA,NA,NA,sdf,NA,0,NA,NA,NA,NA,NA,NA,NA,NA,NA,NA,NA,NA,NA,NA,NA,NA,NA,NA,NA
5e79b,"""Falsch""-Screen",canvas.Screen,5_0_0_0_1_0_2,NA,NA,timeout,4999.3800000001,1116357,1116348.16,1116351.92,1121334.66,1121337,2023-10-16T11:59:15Z,1121351.3,NULL,Sänger,mwimbaji,d,NA,NA,NA,NA,sdf,0,0,NA,NA,NA,NA,NA,NA,NA,NA,NA,NA,NA,NA,NA,NA,NA,NA,NA,NA,NA
5e79b,deep,flow.Sequence,5_0_0_0_1_0,NA,NA,completion,19714.2,1101607,1101603.9,1101620.46,1121334.66,1121337,2023-10-16T11:59:15Z,1121351.3,NULL,Sänger,mwimbaji,d,NA,NA,NA,NA,sdf,NA,0,NA,NA,NA,NA,NA,NA,NA,NA,NA,NA,NA,NA,NA,NA,NA,NA,NA,NA,NA
5e79b,shallow,flow.Sequence,5_0_0_0_1_1,NA,NA,skipped,NA,1121337,NA,NA,1121334.66,1121337,2023-10-16T11:59:15Z,1121351.3,NULL,Sänger,mwimbaji,d,NA,NA,NA,NA,sdf,NA,0,NA,NA,NA,NA,NA,NA,NA,NA,NA,NA,NA,NA,NA,NA,NA,NA,NA,NA,NA
5e79b,task,flow.Sequence,5_0_0_0_1,NA,NA,completion,19714.2,1101607,1101603.9,1101620.46,1121334.66,1121337,2023-10-16T11:59:15Z,1121351.3,NULL,Sänger,mwimbaji,d,NA,NA,NA,NA,sdf,NA,0,NA,NA,NA,NA,NA,NA,NA,NA,NA,NA,NA,NA,NA,NA,NA,NA,NA,NA,NA
5e79b,Deep Question,html.Page,5_0_0_0_2_0_0,NA,NA,form submission,10503.7,1121337,1121334.66,1121351.3,1131855,1131855,2023-10-16T11:59:25Z,1131849.98,NULL,Angreifer,mshambulizi,d,NA,NA,NA,daerjjte,NA,NA,0,NA,NA,NA,NA,NA,NA,NA,NA,NA,NA,NA,NA,NA,NA,NA,NA,NA,NA,NA
5e79b,"""Richtig""-Screen",canvas.Screen,5_0_0_0_2_0_1,NA,NA,skipped,NA,1131859,NA,NA,1131855,1131859,2023-10-16T11:59:25Z,1131849.98,NULL,Angreifer,mshambulizi,d,NA,NA,NA,NA,sdf,NA,0,NA,NA,NA,NA,NA,NA,NA,NA,NA,NA,NA,NA,NA,NA,NA,NA,NA,NA,NA
5e79b,"""Falsch""-Screen",canvas.Screen,5_0_0_0_2_0_2,NA,NA,timeout,4999.28,1131862,1131846.84,1131849.98,1136832.62,1136835,2023-10-16T11:59:30Z,1136849.26,NULL,Angreifer,mshambulizi,d,NA,NA,NA,NA,sdf,0,0,NA,NA,NA,NA,NA,NA,NA,NA,NA,NA,NA,NA,NA,NA,NA,NA,NA,NA,NA
5e79b,deep,flow.Sequence,5_0_0_0_2_0,NA,NA,completion,15481.32,1121337,1121334.66,1121351.3,1136832.62,1136836,2023-10-16T11:59:30Z,1136849.26,NULL,Angreifer,mshambulizi,d,NA,NA,NA,NA,sdf,NA,0,NA,NA,NA,NA,NA,NA,NA,NA,NA,NA,NA,NA,NA,NA,NA,NA,NA,NA,NA
5e79b,shallow,flow.Sequence,5_0_0_0_2_1,NA,NA,skipped,NA,1136836,NA,NA,1136832.62,1136836,2023-10-16T11:59:30Z,1136849.26,NULL,Angreifer,mshambulizi,d,NA,NA,NA,NA,sdf,NA,0,NA,NA,NA,NA,NA,NA,NA,NA,NA,NA,NA,NA,NA,NA,NA,NA,NA,NA,NA
5e79b,task,flow.Sequence,5_0_0_0_2,NA,NA,completion,15481.32,1121337,1121334.66,1121351.3,1136832.62,1136837,2023-10-16T11:59:30Z,1136849.26,NULL,Angreifer,mshambulizi,d,NA,NA,NA,NA,sdf,NA,0,NA,NA,NA,NA,NA,NA,NA,NA,NA,NA,NA,NA,NA,NA,NA,NA,NA,NA,NA
5e79b,deep,flow.Sequence,5_0_0_0_3_0,NA,NA,skipped,NA,1136838,NA,NA,1136832.62,1136838,2023-10-16T11:59:30Z,1136849.26,NULL,Abrechnung,uhasibu,s,kusahihisha,mpambano,mashambulizi,NA,sdf,NA,0,NA,NA,NA,NA,NA,NA,NA,NA,NA,NA,NA,NA,NA,NA,NA,NA,NA,NA,NA
5e79b,Shallow Question,html.Page,5_0_0_0_3_1_0,NA,NA,form submission,8717.74,1136838,1136832.62,1136849.26,1145567,1145568,2023-10-16T11:59:39Z,1145564.8,NULL,Abrechnung,uhasibu,s,kusahihisha,mpambano,mashambulizi,kusahihisha,NA,NA,0,NA,NA,NA,NA,NA,NA,NA,NA,NA,NA,NA,NA,NA,NA,NA,NA,NA,NA,NA
