observation,sender,sender_type,sender_id,response,response_action,ended_on,duration,time_run,time_render,time_show,time_end,time_commit,timestamp,time_switch,distractors,german,swahili,enc,distractor1,distractor2,distractor3,response_2,x,correct,x_2,url_vp,url_sess,meta_labjs_version,meta_location,meta_user_agent,meta_platform,meta_language,meta_locale,meta_time_zone,meta_timezone_offset,meta_screen_width,meta_screen_height,meta_scroll_width,meta_scroll_height,meta_window_inner_width,meta_window_inner_height,meta_device_pixel_ratio,meta_labjs_build_flavor,meta_labjs_build_commit
724bb,Introduction general,canvas.Screen,0,weiter,keypress(q),response,34452.000000012,889.90000000596,1144.8,1161.3,35613.300000012,35618.800000012,2024-02-03T09:54:05Z,35623.5,NULL,NA,NA,NA,NA,NA,NA,NA,NA,NA,NA,138,1,20.2.4,https://neurocog.fernuni.ch/studies/vweber/aberisha/encoding_immediate/index.html?vp=138&sess=1,"Mozilla/5.0 (Windows NT 10.0; Win64; x64) AppleWebKit/537.36 (KHTML, like Gecko) Chrome/121.0.0.0 Safari/537.36",Win32,de-DE,de,Europe/Zurich,-60,1739,979,1740,763,1740,811,1.1041666269302,production,f5b4a49f956347addd546a832a3327688c2c0fef
724bb,Introduction practice,canvas.Screen,1_0,NA,keypress(Space),response,10316.099999994,35619.800000012,35609.956,35623.5,45939.599999994,45940.200000018,2024-02-03T09:54:16Z,45950.7,NULL,NA,NA,NA,NA,NA,NA,NA,NA,NA,NA,NA,NA,NA,NA,NA,NA,NA,NA,NA,NA,NA,NA,NA,NA,NA,NA,NA,NA,NA
724bb,deep,flow.Sequence,1_1_0_0,NA,NA,skipped,NA,45940.300000012,NA,NA,45939.599999994,45940.400000006,2024-02-03T09:54:16Z,45950.7,"c(""distractor1"", ""distractor2"", ""distractor3"")",Rückhalt,msaada,s,muhula,auwali,kiwimbe,NA,NA,NA,NA,NA,NA,NA,NA,NA,NA,NA,NA,NA,NA,NA,NA,NA,NA,NA,NA,NA,NA,NA
724bb,Shallow Question,html.Page,1_1_0_1_0,NA,NA,form submission,25748.600000012,45940.5,45935.8,45950.7,71699.300000012,71699.599999994,2024-02-03T09:54:41Z,71702.492,"c(""distractor1"", ""distractor2"", ""distractor3"")",Rückhalt,msaada,s,muhula,auwali,kiwimbe,msaada,NA,NA,NA,NA,NA,NA,NA,NA,NA,NA,NA,NA,NA,NA,NA,NA,NA,NA,NA,NA,NA,NA
724bb,"""Richtig""-Screen",canvas.Screen,1_1_0_1_1,NA,NA,timeout,4996.408,71705.700000018,71702.492,71702.492,76682.2,76687.400000006,2024-02-03T09:54:46Z,76698.9,"c(""distractor1"", ""distractor2"", ""distractor3"")",Rückhalt,msaada,s,muhula,auwali,kiwimbe,NA,NA,1,NA,NA,NA,NA,NA,NA,NA,NA,NA,NA,NA,NA,NA,NA,NA,NA,NA,NA,NA,NA
724bb,"""Falsch""-Screen",canvas.Screen,1_1_0_1_2,NA,NA,skipped,NA,76688.900000006,NA,NA,76682.2,76689,2024-02-03T09:54:46Z,76698.9,"c(""distractor1"", ""distractor2"", ""distractor3"")",Rückhalt,msaada,s,muhula,auwali,kiwimbe,NA,NA,NA,NA,NA,NA,NA,NA,NA,NA,NA,NA,NA,NA,NA,NA,NA,NA,NA,NA,NA,NA,NA
724bb,shallow,flow.Sequence,1_1_0_1,NA,NA,completion,30731.5,45940.5,45935.8,45950.7,76682.2,76689.099999994,2024-02-03T09:54:46Z,76698.9,"c(""distractor1"", ""distractor2"", ""distractor3"")",Rückhalt,msaada,s,muhula,auwali,kiwimbe,NA,NA,NA,NA,NA,NA,NA,NA,NA,NA,NA,NA,NA,NA,NA,NA,NA,NA,NA,NA,NA,NA,NA
724bb,task,flow.Sequence,1_1_0,NA,NA,completion,30731.5,45940.300000012,45935.8,45950.7,76682.2,76689.200000018,2024-02-03T09:54:46Z,76698.9,"c(""distractor1"", ""distractor2"", ""distractor3"")",Rückhalt,msaada,s,muhula,auwali,kiwimbe,NA,NA,NA,NA,NA,NA,NA,NA,NA,NA,NA,NA,NA,NA,NA,NA,NA,NA,NA,NA,NA,NA,NA
724bb,Deep Question,html.Page,1_1_1_0_0,NA,NA,form submission,6960.699999994,76689.400000006,76682.2,76698.9,83659.599999994,83659.800000012,2024-02-03T09:54:53Z,83661.056,"c(""distractor1"", ""distractor2"", ""distractor3"")",Gesundheit,salama,d,NA,NA,NA,abc,NA,NA,NA,NA,NA,NA,NA,NA,NA,NA,NA,NA,NA,NA,NA,NA,NA,NA,NA,NA,NA,NA
724bb,"""Richtig""-Screen",canvas.Screen,1_1_1_0_1,NA,NA,skipped,NA,83661.599999994,NA,NA,83659.599999994,83661.900000006,2024-02-03T09:54:53Z,83661.056,"c(""distractor1"", ""distractor2"", ""distractor3"")",Gesundheit,salama,d,NA,NA,NA,NA,NA,NA,NA,NA,NA,NA,NA,NA,NA,NA,NA,NA,NA,NA,NA,NA,NA,NA,NA,NA,NA,NA
724bb,"""Falsch""-Screen",canvas.Screen,1_1_1_0_2,NA,NA,timeout,4997.044,83663.099999994,83661.056,83661.056,88641.5,88642.700000018,2024-02-03T09:54:58Z,88658.1,"c(""distractor1"", ""distractor2"", ""distractor3"")",Gesundheit,salama,d,NA,NA,NA,NA,NA,0,NA,NA,NA,NA,NA,NA,NA,NA,NA,NA,NA,NA,NA,NA,NA,NA,NA,NA,NA,NA
724bb,deep,flow.Sequence,1_1_1_0,NA,NA,completion,11942.6,76689.400000006,76682.2,76698.9,88641.5,88643.200000018,2024-02-03T09:54:58Z,88658.1,"c(""distractor1"", ""distractor2"", ""distractor3"")",Gesundheit,salama,d,NA,NA,NA,NA,NA,NA,NA,NA,NA,NA,NA,NA,NA,NA,NA,NA,NA,NA,NA,NA,NA,NA,NA,NA,NA,NA
724bb,shallow,flow.Sequence,1_1_1_1,NA,NA,skipped,NA,88643.300000012,NA,NA,88641.5,88643.599999994,2024-02-03T09:54:58Z,88658.1,"c(""distractor1"", ""distractor2"", ""distractor3"")",Gesundheit,salama,d,NA,NA,NA,NA,NA,NA,NA,NA,NA,NA,NA,NA,NA,NA,NA,NA,NA,NA,NA,NA,NA,NA,NA,NA,NA,NA
724bb,task,flow.Sequence,1_1_1,NA,NA,completion,11942.6,76689.300000012,76682.2,76698.9,88641.5,88643.900000006,2024-02-03T09:54:58Z,88658.1,"c(""distractor1"", ""distractor2"", ""distractor3"")",Gesundheit,salama,d,NA,NA,NA,NA,NA,NA,NA,NA,NA,NA,NA,NA,NA,NA,NA,NA,NA,NA,NA,NA,NA,NA,NA,NA,NA,NA
724bb,Deep Question,html.Page,1_1_2_0_0,NA,NA,form submission,6520.300000006,88644.200000018,88641.5,88658.1,95178.400000006,95178.700000018,2024-02-03T09:55:05Z,95187.3,"c(""distractor1"", ""distractor2"", ""distractor3"")",Schatten,kivuli,d,NA,NA,NA,jil,NA,NA,NA,NA,NA,NA,NA,NA,NA,NA,NA,NA,NA,NA,NA,NA,NA,NA,NA,NA,NA,NA
724bb,"""Richtig""-Screen",canvas.Screen,1_1_2_0_1,NA,NA,skipped,NA,95180.400000006,NA,NA,95178.400000006,95180.599999994,2024-02-03T09:55:05Z,95187.3,"c(""distractor1"", ""distractor2"", ""distractor3"")",Schatten,kivuli,d,NA,NA,NA,NA,NA,NA,NA,NA,NA,NA,NA,NA,NA,NA,NA,NA,NA,NA,NA,NA,NA,NA,NA,NA,NA,NA
724bb,"""Falsch""-Screen",canvas.Screen,1_1_2_0_2,NA,NA,timeout,4996.8,95181.200000018,95171.084,95187.3,100167.4,100168.70000002,2024-02-03T09:55:10Z,100184.1,"c(""distractor1"", ""distractor2"", ""distractor3"")",Schatten,kivuli,d,NA,NA,NA,NA,NA,0,NA,NA,NA,NA,NA,NA,NA,NA,NA,NA,NA,NA,NA,NA,NA,NA,NA,NA,NA,NA
724bb,deep,flow.Sequence,1_1_2_0,NA,NA,completion,11509.3,88644.099999994,88641.5,88658.1,100167.4,100169.20000002,2024-02-03T09:55:10Z,100184.1,"c(""distractor1"", ""distractor2"", ""distractor3"")",Schatten,kivuli,d,NA,NA,NA,NA,NA,NA,NA,NA,NA,NA,NA,NA,NA,NA,NA,NA,NA,NA,NA,NA,NA,NA,NA,NA,NA,NA
724bb,shallow,flow.Sequence,1_1_2_1,NA,NA,skipped,NA,100169.30000001,NA,NA,100167.4,100169.59999999,2024-02-03T09:55:10Z,100184.1,"c(""distractor1"", ""distractor2"", ""distractor3"")",Schatten,kivuli,d,NA,NA,NA,NA,NA,NA,NA,NA,NA,NA,NA,NA,NA,NA,NA,NA,NA,NA,NA,NA,NA,NA,NA,NA,NA,NA
724bb,task,flow.Sequence,1_1_2,NA,NA,completion,11509.3,88644.099999994,88641.5,88658.1,100167.4,100169.80000001,2024-02-03T09:55:10Z,100184.1,"c(""distractor1"", ""distractor2"", ""distractor3"")",Schatten,kivuli,d,NA,NA,NA,NA,NA,NA,NA,NA,NA,NA,NA,NA,NA,NA,NA,NA,NA,NA,NA,NA,NA,NA,NA,NA,NA,NA
724bb,Deep Question,html.Page,1_1_3_0_0,NA,NA,form submission,6322.499999994,100170,100167.4,100184.1,106506.59999999,106506.70000002,2024-02-03T09:55:16Z,106513.4,"c(""distractor1"", ""distractor2"", ""distractor3"")",Qualität,mtindo,d,NA,NA,NA,hol,NA,NA,NA,NA,NA,NA,NA,NA,NA,NA,NA,NA,NA,NA,NA,NA,NA,NA,NA,NA,NA,NA
724bb,"""Richtig""-Screen",canvas.Screen,1_1_3_0_1,NA,NA,skipped,NA,106509.80000001,NA,NA,106506.59999999,106510,2024-02-03T09:55:16Z,106513.4,"c(""distractor1"", ""distractor2"", ""distractor3"")",Qualität,mtindo,d,NA,NA,NA,NA,NA,NA,NA,NA,NA,NA,NA,NA,NA,NA,NA,NA,NA,NA,NA,NA,NA,NA,NA,NA,NA,NA
724bb,"""Falsch""-Screen",canvas.Screen,1_1_3_0_2,NA,NA,timeout,4997.5,106510.40000001,106497.542,106513.4,111494.1,111495.09999999,2024-02-03T09:55:21Z,111510.9,"c(""distractor1"", ""distractor2"", ""distractor3"")",Qualität,mtindo,d,NA,NA,NA,NA,NA,0,NA,NA,NA,NA,NA,NA,NA,NA,NA,NA,NA,NA,NA,NA,NA,NA,NA,NA,NA,NA
724bb,deep,flow.Sequence,1_1_3_0,NA,NA,completion,11310,100170,100167.4,100184.1,111494.1,111495.5,2024-02-03T09:55:21Z,111510.9,"c(""distractor1"", ""distractor2"", ""distractor3"")",Qualität,mtindo,d,NA,NA,NA,NA,NA,NA,NA,NA,NA,NA,NA,NA,NA,NA,NA,NA,NA,NA,NA,NA,NA,NA,NA,NA,NA,NA
724bb,shallow,flow.Sequence,1_1_3_1,NA,NA,skipped,NA,111495.59999999,NA,NA,111494.1,111495.80000001,2024-02-03T09:55:21Z,111510.9,"c(""distractor1"", ""distractor2"", ""distractor3"")",Qualität,mtindo,d,NA,NA,NA,NA,NA,NA,NA,NA,NA,NA,NA,NA,NA,NA,NA,NA,NA,NA,NA,NA,NA,NA,NA,NA,NA,NA
724bb,task,flow.Sequence,1_1_3,NA,NA,completion,11310,100169.90000001,100167.4,100184.1,111494.1,111496,2024-02-03T09:55:21Z,111510.9,"c(""distractor1"", ""distractor2"", ""distractor3"")",Qualität,mtindo,d,NA,NA,NA,NA,NA,NA,NA,NA,NA,NA,NA,NA,NA,NA,NA,NA,NA,NA,NA,NA,NA,NA,NA,NA,NA,NA
724bb,deep,flow.Sequence,1_1_4_0,NA,NA,skipped,NA,111496.20000002,NA,NA,111494.1,111496.40000001,2024-02-03T09:55:21Z,111510.9,"c(""distractor1"", ""distractor2"", ""distractor3"")",Gegenwart,hadhara,s,katiba,jokofu,mikopo,NA,NA,NA,NA,NA,NA,NA,NA,NA,NA,NA,NA,NA,NA,NA,NA,NA,NA,NA,NA,NA,NA,NA
724bb,Shallow Question,html.Page,1_1_4_1_0,NA,NA,form submission,5125.1,111496.5,111494.1,111510.9,116636,116636.30000001,2024-02-03T09:55:26Z,116641.286,"c(""distractor1"", ""distractor2"", ""distractor3"")",Gegenwart,hadhara,s,katiba,jokofu,mikopo,jokofu,NA,NA,NA,NA,NA,NA,NA,NA,NA,NA,NA,NA,NA,NA,NA,NA,NA,NA,NA,NA,NA,NA
724bb,"""Richtig""-Screen",canvas.Screen,1_1_4_1_1,NA,NA,skipped,NA,116639.30000001,NA,NA,116636,116639.40000001,2024-02-03T09:55:26Z,116641.286,"c(""distractor1"", ""distractor2"", ""distractor3"")",Gegenwart,hadhara,s,katiba,jokofu,mikopo,NA,NA,NA,NA,NA,NA,NA,NA,NA,NA,NA,NA,NA,NA,NA,NA,NA,NA,NA,NA,NA,NA,NA
724bb,"""Falsch""-Screen",canvas.Screen,1_1_4_1_2,NA,NA,timeout,4996.714,116640.20000002,116641.286,116641.286,121621,121622.09999999,2024-02-03T09:55:31Z,121638,"c(""distractor1"", ""distractor2"", ""distractor3"")",Gegenwart,hadhara,s,katiba,jokofu,mikopo,NA,NA,0,NA,NA,NA,NA,NA,NA,NA,NA,NA,NA,NA,NA,NA,NA,NA,NA,NA,NA,NA,NA
724bb,shallow,flow.Sequence,1_1_4_1,NA,NA,completion,10110.1,111496.40000001,111494.1,111510.9,121621,121622.70000002,2024-02-03T09:55:31Z,121638,"c(""distractor1"", ""distractor2"", ""distractor3"")",Gegenwart,hadhara,s,katiba,jokofu,mikopo,NA,NA,NA,NA,NA,NA,NA,NA,NA,NA,NA,NA,NA,NA,NA,NA,NA,NA,NA,NA,NA,NA,NA
724bb,task,flow.Sequence,1_1_4,NA,NA,completion,10110.1,111496.09999999,111494.1,111510.9,121621,121622.90000001,2024-02-03T09:55:31Z,121638,"c(""distractor1"", ""distractor2"", ""distractor3"")",Gegenwart,hadhara,s,katiba,jokofu,mikopo,NA,NA,NA,NA,NA,NA,NA,NA,NA,NA,NA,NA,NA,NA,NA,NA,NA,NA,NA,NA,NA,NA,NA
724bb,deep,flow.Sequence,1_1_5_0,NA,NA,skipped,NA,121623.30000001,NA,NA,121621,121623.59999999,2024-02-03T09:55:31Z,121638,"c(""distractor1"", ""distractor2"", ""distractor3"")",Kritik,lawama,s,dereva,nafasi,mawazo,NA,NA,NA,NA,NA,NA,NA,NA,NA,NA,NA,NA,NA,NA,NA,NA,NA,NA,NA,NA,NA,NA,NA
724bb,Shallow Question,html.Page,1_1_5_1_0,NA,NA,form submission,4168.2000000179,121623.90000001,121621,121638,125806.20000002,125806.40000001,2024-02-03T09:55:35Z,125818.4,"c(""distractor1"", ""distractor2"", ""distractor3"")",Kritik,lawama,s,dereva,nafasi,mawazo,nafasi,NA,NA,NA,NA,NA,NA,NA,NA,NA,NA,NA,NA,NA,NA,NA,NA,NA,NA,NA,NA,NA,NA
724bb,"""Richtig""-Screen",canvas.Screen,1_1_5_1_1,NA,NA,skipped,NA,125809.5,NA,NA,125806.20000002,125809.70000002,2024-02-03T09:55:35Z,125818.4,"c(""distractor1"", ""distractor2"", ""distractor3"")",Kritik,lawama,s,dereva,nafasi,mawazo,NA,NA,NA,NA,NA,NA,NA,NA,NA,NA,NA,NA,NA,NA,NA,NA,NA,NA,NA,NA,NA,NA,NA
724bb,"""Falsch""-Screen",canvas.Screen,1_1_5_1_2,NA,NA,timeout,4997.3,125810.5,125803.8,125818.4,130799,130800.09999999,2024-02-03T09:55:40Z,130815.7,"c(""distractor1"", ""distractor2"", ""distractor3"")",Kritik,lawama,s,dereva,nafasi,mawazo,NA,NA,0,NA,NA,NA,NA,NA,NA,NA,NA,NA,NA,NA,NA,NA,NA,NA,NA,NA,NA,NA,NA
724bb,shallow,flow.Sequence,1_1_5_1,NA,NA,completion,9161,121623.90000001,121621,121638,130799,130800.5,2024-02-03T09:55:40Z,130815.7,"c(""distractor1"", ""distractor2"", ""distractor3"")",Kritik,lawama,s,dereva,nafasi,mawazo,NA,NA,NA,NA,NA,NA,NA,NA,NA,NA,NA,NA,NA,NA,NA,NA,NA,NA,NA,NA,NA,NA,NA
724bb,task,flow.Sequence,1_1_5,NA,NA,completion,9161,121623.09999999,121621,121638,130799,130800.70000002,2024-02-03T09:55:40Z,130815.7,"c(""distractor1"", ""distractor2"", ""distractor3"")",Kritik,lawama,s,dereva,nafasi,mawazo,NA,NA,NA,NA,NA,NA,NA,NA,NA,NA,NA,NA,NA,NA,NA,NA,NA,NA,NA,NA,NA,NA,NA
724bb,block,flow.Loop,1_1,NA,NA,completion,84848.3,45940.300000012,45935.8,45950.7,130799,130801.09999999,2024-02-03T09:55:40Z,130815.7,"c(""distractor1"", ""distractor2"", ""distractor3"")",NA,NA,NA,NA,NA,NA,NA,NA,NA,NA,NA,NA,NA,NA,NA,NA,NA,NA,NA,NA,NA,NA,NA,NA,NA,NA,NA,NA,NA
724bb,Practice,flow.Sequence,1,NA,NA,completion,95175.5,35619.800000012,35609.956,35623.5,130799,130801.40000001,2024-02-03T09:55:40Z,130815.7,NULL,NA,NA,NA,NA,NA,NA,NA,NA,NA,NA,NA,NA,NA,NA,NA,NA,NA,NA,NA,NA,NA,NA,NA,NA,NA,NA,NA,NA,NA
724bb,Experiment start,canvas.Screen,2,weiter,keypress(q),response,32506.3,130801.5,130799,130815.7,163322,163323.09999999,2024-02-03T09:56:13Z,163378.7,NULL,NA,NA,NA,NA,NA,NA,NA,NA,NA,NA,NA,NA,NA,NA,NA,NA,NA,NA,NA,NA,NA,NA,NA,NA,NA,NA,NA,NA,NA
724bb,Deep Question,html.Page,3_0_0_0_0_0_0,NA,NA,form submission,7553.399999994,163387.20000002,163378.64,163378.7,170932.09999999,170932.40000001,2024-02-03T09:56:21Z,170941,NULL,Ausschluss,kutengwa,d,NA,NA,NA,sal,NA,NA,0,NA,NA,NA,NA,NA,NA,NA,NA,NA,NA,NA,NA,NA,NA,NA,NA,NA,NA,NA
724bb,"""Richtig""-Screen",canvas.Screen,3_0_0_0_0_0_1,NA,NA,skipped,NA,170935.40000001,NA,NA,170932.09999999,170935.59999999,2024-02-03T09:56:21Z,170941,NULL,Ausschluss,kutengwa,d,NA,NA,NA,NA,sdf,NA,0,NA,NA,NA,NA,NA,NA,NA,NA,NA,NA,NA,NA,NA,NA,NA,NA,NA,NA,NA
724bb,"""Falsch""-Screen",canvas.Screen,3_0_0_0_0_0_2,NA,NA,timeout,4997.1,170936,170924.662,170941,175921.1,175922.09999999,2024-02-03T09:56:26Z,175938.1,NULL,Ausschluss,kutengwa,d,NA,NA,NA,NA,sdf,0,0,NA,NA,NA,NA,NA,NA,NA,NA,NA,NA,NA,NA,NA,NA,NA,NA,NA,NA,NA
724bb,deep,flow.Sequence,3_0_0_0_0_0,NA,NA,completion,12542.4,163387.20000002,163378.64,163378.7,175921.1,175922.20000002,2024-02-03T09:56:26Z,175938.1,NULL,Ausschluss,kutengwa,d,NA,NA,NA,NA,sdf,NA,0,NA,NA,NA,NA,NA,NA,NA,NA,NA,NA,NA,NA,NA,NA,NA,NA,NA,NA,NA
724bb,shallow,flow.Sequence,3_0_0_0_0_1,NA,NA,skipped,NA,175922.20000002,NA,NA,175921.1,175922.30000001,2024-02-03T09:56:26Z,175938.1,NULL,Ausschluss,kutengwa,d,NA,NA,NA,NA,sdf,NA,0,NA,NA,NA,NA,NA,NA,NA,NA,NA,NA,NA,NA,NA,NA,NA,NA,NA,NA,NA
724bb,task,flow.Sequence,3_0_0_0_0,NA,NA,completion,12542.4,163387.20000002,163378.64,163378.7,175921.1,175922.40000001,2024-02-03T09:56:26Z,175938.1,NULL,Ausschluss,kutengwa,d,NA,NA,NA,NA,sdf,NA,0,NA,NA,NA,NA,NA,NA,NA,NA,NA,NA,NA,NA,NA,NA,NA,NA,NA,NA,NA
724bb,Deep Question,html.Page,3_0_0_0_1_0_0,NA,NA,form submission,6339.1000000179,175922.40000001,175921.1,175938.1,182277.20000002,182277.30000001,2024-02-03T09:56:32Z,182283.8,NULL,Notfall,dharura,d,NA,NA,NA,hol,NA,NA,0,NA,NA,NA,NA,NA,NA,NA,NA,NA,NA,NA,NA,NA,NA,NA,NA,NA,NA,NA
724bb,"""Richtig""-Screen",canvas.Screen,3_0_0_0_1_0_1,NA,NA,skipped,NA,182278.80000001,NA,NA,182277.20000002,182278.90000001,2024-02-03T09:56:32Z,182283.8,NULL,Notfall,dharura,d,NA,NA,NA,NA,sdf,NA,0,NA,NA,NA,NA,NA,NA,NA,NA,NA,NA,NA,NA,NA,NA,NA,NA,NA,NA,NA
724bb,"""Falsch""-Screen",canvas.Screen,3_0_0_0_1_0_2,NA,NA,timeout,4997.2,182279.20000002,182276.2,182283.8,187264.3,187265.70000002,2024-02-03T09:56:37Z,187281,NULL,Notfall,dharura,d,NA,NA,NA,NA,sdf,0,0,NA,NA,NA,NA,NA,NA,NA,NA,NA,NA,NA,NA,NA,NA,NA,NA,NA,NA,NA
724bb,deep,flow.Sequence,3_0_0_0_1_0,NA,NA,completion,11326.2,175922.40000001,175921.1,175938.1,187264.3,187266.30000001,2024-02-03T09:56:37Z,187281,NULL,Notfall,dharura,d,NA,NA,NA,NA,sdf,NA,0,NA,NA,NA,NA,NA,NA,NA,NA,NA,NA,NA,NA,NA,NA,NA,NA,NA,NA,NA
724bb,shallow,flow.Sequence,3_0_0_0_1_1,NA,NA,skipped,NA,187266.40000001,NA,NA,187264.3,187266.59999999,2024-02-03T09:56:37Z,187281,NULL,Notfall,dharura,d,NA,NA,NA,NA,sdf,NA,0,NA,NA,NA,NA,NA,NA,NA,NA,NA,NA,NA,NA,NA,NA,NA,NA,NA,NA,NA
724bb,task,flow.Sequence,3_0_0_0_1,NA,NA,completion,11326.2,175922.40000001,175921.1,175938.1,187264.3,187266.80000001,2024-02-03T09:56:37Z,187281,NULL,Notfall,dharura,d,NA,NA,NA,NA,sdf,NA,0,NA,NA,NA,NA,NA,NA,NA,NA,NA,NA,NA,NA,NA,NA,NA,NA,NA,NA,NA
724bb,Deep Question,html.Page,3_0_0_0_2_0_0,NA,NA,form submission,4307.5,187267,187264.3,187281,191588.5,191588.80000001,2024-02-03T09:56:41Z,191594.7,NULL,Vergnügen,kichekesho,d,NA,NA,NA,bou,NA,NA,0,NA,NA,NA,NA,NA,NA,NA,NA,NA,NA,NA,NA,NA,NA,NA,NA,NA,NA,NA
724bb,"""Richtig""-Screen",canvas.Screen,3_0_0_0_2_0_1,NA,NA,skipped,NA,191591.90000001,NA,NA,191588.5,191592.09999999,2024-02-03T09:56:41Z,191594.7,NULL,Vergnügen,kichekesho,d,NA,NA,NA,NA,sdf,NA,0,NA,NA,NA,NA,NA,NA,NA,NA,NA,NA,NA,NA,NA,NA,NA,NA,NA,NA,NA
724bb,"""Falsch""-Screen",canvas.Screen,3_0_0_0_2_0_2,NA,NA,timeout,4997.3,191593,191578.722,191594.7,196575.6,196576.59999999,2024-02-03T09:56:46Z,196592,NULL,Vergnügen,kichekesho,d,NA,NA,NA,NA,sdf,0,0,NA,NA,NA,NA,NA,NA,NA,NA,NA,NA,NA,NA,NA,NA,NA,NA,NA,NA,NA
724bb,deep,flow.Sequence,3_0_0_0_2_0,NA,NA,completion,9294.6,187267,187264.3,187281,196575.6,196576.90000001,2024-02-03T09:56:46Z,196592,NULL,Vergnügen,kichekesho,d,NA,NA,NA,NA,sdf,NA,0,NA,NA,NA,NA,NA,NA,NA,NA,NA,NA,NA,NA,NA,NA,NA,NA,NA,NA,NA
724bb,shallow,flow.Sequence,3_0_0_0_2_1,NA,NA,skipped,NA,196577,NA,NA,196575.6,196577.09999999,2024-02-03T09:56:46Z,196592,NULL,Vergnügen,kichekesho,d,NA,NA,NA,NA,sdf,NA,0,NA,NA,NA,NA,NA,NA,NA,NA,NA,NA,NA,NA,NA,NA,NA,NA,NA,NA,NA
724bb,task,flow.Sequence,3_0_0_0_2,NA,NA,completion,9294.6,187267,187264.3,187281,196575.6,196577.30000001,2024-02-03T09:56:46Z,196592,NULL,Vergnügen,kichekesho,d,NA,NA,NA,NA,sdf,NA,0,NA,NA,NA,NA,NA,NA,NA,NA,NA,NA,NA,NA,NA,NA,NA,NA,NA,NA,NA
724bb,Deep Question,html.Page,3_0_0_0_3_0_0,NA,NA,form submission,5071.599999994,196577.5,196575.6,196592,201663.59999999,201663.90000001,2024-02-03T09:56:51Z,201672.1,NULL,Gelegenheit,wakati,d,NA,NA,NA,hru,NA,NA,0,NA,NA,NA,NA,NA,NA,NA,NA,NA,NA,NA,NA,NA,NA,NA,NA,NA,NA,NA
724bb,"""Richtig""-Screen",canvas.Screen,3_0_0_0_3_0_1,NA,NA,skipped,NA,201667,NA,NA,201663.59999999,201667.09999999,2024-02-03T09:56:51Z,201672.1,NULL,Gelegenheit,wakati,d,NA,NA,NA,NA,sdf,NA,0,NA,NA,NA,NA,NA,NA,NA,NA,NA,NA,NA,NA,NA,NA,NA,NA,NA,NA,NA
724bb,"""Falsch""-Screen",canvas.Screen,3_0_0_0_3_0_2,NA,NA,timeout,4997.2,201667.59999999,201656.162,201672.1,206652.8,206653.80000001,2024-02-03T09:56:56Z,206669.3,NULL,Gelegenheit,wakati,d,NA,NA,NA,NA,sdf,0,0,NA,NA,NA,NA,NA,NA,NA,NA,NA,NA,NA,NA,NA,NA,NA,NA,NA,NA,NA
724bb,deep,flow.Sequence,3_0_0_0_3_0,NA,NA,completion,10060.8,196577.5,196575.6,196592,206652.8,206654.09999999,2024-02-03T09:56:56Z,206669.3,NULL,Gelegenheit,wakati,d,NA,NA,NA,NA,sdf,NA,0,NA,NA,NA,NA,NA,NA,NA,NA,NA,NA,NA,NA,NA,NA,NA,NA,NA,NA,NA
724bb,shallow,flow.Sequence,3_0_0_0_3_1,NA,NA,skipped,NA,206654.30000001,NA,NA,206652.8,206654.40000001,2024-02-03T09:56:56Z,206669.3,NULL,Gelegenheit,wakati,d,NA,NA,NA,NA,sdf,NA,0,NA,NA,NA,NA,NA,NA,NA,NA,NA,NA,NA,NA,NA,NA,NA,NA,NA,NA,NA
724bb,task,flow.Sequence,3_0_0_0_3,NA,NA,completion,10060.8,196577.5,196575.6,196592,206652.8,206654.59999999,2024-02-03T09:56:56Z,206669.3,NULL,Gelegenheit,wakati,d,NA,NA,NA,NA,sdf,NA,0,NA,NA,NA,NA,NA,NA,NA,NA,NA,NA,NA,NA,NA,NA,NA,NA,NA,NA,NA
724bb,deep,flow.Sequence,3_0_0_0_4_0,NA,NA,skipped,NA,206654.80000001,NA,NA,206652.8,206654.90000001,2024-02-03T09:56:56Z,206669.3,NULL,Widerstand,usulubu,s,kusababisha,mwalimu,mwenendo,NA,sdf,NA,0,NA,NA,NA,NA,NA,NA,NA,NA,NA,NA,NA,NA,NA,NA,NA,NA,NA,NA,NA
724bb,Shallow Question,html.Page,3_0_0_0_4_1_0,NA,NA,form submission,6466.9000000179,206655.09999999,206652.8,206669.3,213136.20000002,213136.40000001,2024-02-03T09:57:03Z,213148.3,NULL,Widerstand,usulubu,s,kusababisha,mwalimu,mwenendo,mwalimu,NA,NA,0,NA,NA,NA,NA,NA,NA,NA,NA,NA,NA,NA,NA,NA,NA,NA,NA,NA,NA,NA
724bb,"""Richtig""-Screen",canvas.Screen,3_0_0_0_4_1_1,NA,NA,skipped,NA,213139.5,NA,NA,213136.20000002,213139.59999999,2024-02-03T09:57:03Z,213148.3,NULL,Widerstand,usulubu,s,kusababisha,mwalimu,mwenendo,NA,sdf,NA,0,NA,NA,NA,NA,NA,NA,NA,NA,NA,NA,NA,NA,NA,NA,NA,NA,NA,NA,NA
724bb,"""Falsch""-Screen",canvas.Screen,3_0_0_0_4_1_2,NA,NA,timeout,4997,213140.59999999,213132.502,213148.3,218128.7,218129.90000001,2024-02-03T09:57:08Z,218145.3,NULL,Widerstand,usulubu,s,kusababisha,mwalimu,mwenendo,NA,sdf,0,0,NA,NA,NA,NA,NA,NA,NA,NA,NA,NA,NA,NA,NA,NA,NA,NA,NA,NA,NA
724bb,shallow,flow.Sequence,3_0_0_0_4_1,NA,NA,completion,11459.4,206655.09999999,206652.8,206669.3,218128.7,218130.30000001,2024-02-03T09:57:08Z,218145.3,NULL,Widerstand,usulubu,s,kusababisha,mwalimu,mwenendo,NA,sdf,NA,0,NA,NA,NA,NA,NA,NA,NA,NA,NA,NA,NA,NA,NA,NA,NA,NA,NA,NA,NA
724bb,task,flow.Sequence,3_0_0_0_4,NA,NA,completion,11459.4,206654.70000002,206652.8,206669.3,218128.7,218130.59999999,2024-02-03T09:57:08Z,218145.3,NULL,Widerstand,usulubu,s,kusababisha,mwalimu,mwenendo,NA,sdf,NA,0,NA,NA,NA,NA,NA,NA,NA,NA,NA,NA,NA,NA,NA,NA,NA,NA,NA,NA,NA
724bb,deep,flow.Sequence,3_0_0_0_5_0,NA,NA,skipped,NA,218130.80000001,NA,NA,218128.7,218131.09999999,2024-02-03T09:57:08Z,218145.3,NULL,Wohlstand,mafanikio,s,chimbuko,kumbuko,mapwaji,NA,sdf,NA,0,NA,NA,NA,NA,NA,NA,NA,NA,NA,NA,NA,NA,NA,NA,NA,NA,NA,NA,NA
724bb,Shallow Question,html.Page,3_0_0_0_5_1_0,NA,NA,form submission,3689.2,218131.30000001,218128.7,218145.3,221834.5,221834.70000002,2024-02-03T09:57:11Z,221843.5,NULL,Wohlstand,mafanikio,s,chimbuko,kumbuko,mapwaji,mafanikio,NA,NA,0,NA,NA,NA,NA,NA,NA,NA,NA,NA,NA,NA,NA,NA,NA,NA,NA,NA,NA,NA
724bb,"""Richtig""-Screen",canvas.Screen,3_0_0_0_5_1_1,NA,NA,timeout,4996.8,221836.30000001,221827.328,221843.5,226823.8,226825,2024-02-03T09:57:16Z,226840.3,NULL,Wohlstand,mafanikio,s,chimbuko,kumbuko,mapwaji,NA,sdf,1,0,NA,NA,NA,NA,NA,NA,NA,NA,NA,NA,NA,NA,NA,NA,NA,NA,NA,NA,NA
724bb,"""Falsch""-Screen",canvas.Screen,3_0_0_0_5_1_2,NA,NA,skipped,NA,226830,NA,NA,226823.8,226830.09999999,2024-02-03T09:57:16Z,226840.3,NULL,Wohlstand,mafanikio,s,chimbuko,kumbuko,mapwaji,NA,sdf,NA,0,NA,NA,NA,NA,NA,NA,NA,NA,NA,NA,NA,NA,NA,NA,NA,NA,NA,NA,NA
724bb,shallow,flow.Sequence,3_0_0_0_5_1,NA,NA,completion,8678.5,218131.20000002,218128.7,218145.3,226823.8,226830.20000002,2024-02-03T09:57:16Z,226840.3,NULL,Wohlstand,mafanikio,s,chimbuko,kumbuko,mapwaji,NA,sdf,NA,0,NA,NA,NA,NA,NA,NA,NA,NA,NA,NA,NA,NA,NA,NA,NA,NA,NA,NA,NA
724bb,task,flow.Sequence,3_0_0_0_5,NA,NA,completion,8678.5,218130.70000002,218128.7,218145.3,226823.8,226830.30000001,2024-02-03T09:57:16Z,226840.3,NULL,Wohlstand,mafanikio,s,chimbuko,kumbuko,mapwaji,NA,sdf,NA,0,NA,NA,NA,NA,NA,NA,NA,NA,NA,NA,NA,NA,NA,NA,NA,NA,NA,NA,NA
724bb,deep,flow.Sequence,3_0_0_0_6_0,NA,NA,skipped,NA,226830.30000001,NA,NA,226823.8,226830.30000001,2024-02-03T09:57:16Z,226840.3,NULL,Ergänzung,kijalizo,s,ulaghai,mustarehe,matangazo,NA,sdf,NA,0,NA,NA,NA,NA,NA,NA,NA,NA,NA,NA,NA,NA,NA,NA,NA,NA,NA,NA,NA
724bb,Shallow Question,html.Page,3_0_0_0_6_1_0,NA,NA,form submission,3937.100000006,226830.5,226823.8,226840.3,230777.40000001,230777.70000002,2024-02-03T09:57:20Z,230787.8,NULL,Ergänzung,kijalizo,s,ulaghai,mustarehe,matangazo,ulaghai,NA,NA,0,NA,NA,NA,NA,NA,NA,NA,NA,NA,NA,NA,NA,NA,NA,NA,NA,NA,NA,NA
724bb,"""Richtig""-Screen",canvas.Screen,3_0_0_0_6_1_1,NA,NA,skipped,NA,230780.59999999,NA,NA,230777.40000001,230780.70000002,2024-02-03T09:57:20Z,230787.8,NULL,Ergänzung,kijalizo,s,ulaghai,mustarehe,matangazo,NA,sdf,NA,0,NA,NA,NA,NA,NA,NA,NA,NA,NA,NA,NA,NA,NA,NA,NA,NA,NA,NA,NA
724bb,"""Falsch""-Screen",canvas.Screen,3_0_0_0_6_1_2,NA,NA,timeout,4996.7,230781.59999999,230771.388,230787.8,235767.8,235769.30000001,2024-02-03T09:57:25Z,235784.5,NULL,Ergänzung,kijalizo,s,ulaghai,mustarehe,matangazo,NA,sdf,0,0,NA,NA,NA,NA,NA,NA,NA,NA,NA,NA,NA,NA,NA,NA,NA,NA,NA,NA,NA
724bb,shallow,flow.Sequence,3_0_0_0_6_1,NA,NA,completion,8927.5,226830.40000001,226823.8,226840.3,235767.8,235769.70000002,2024-02-03T09:57:25Z,235784.5,NULL,Ergänzung,kijalizo,s,ulaghai,mustarehe,matangazo,NA,sdf,NA,0,NA,NA,NA,NA,NA,NA,NA,NA,NA,NA,NA,NA,NA,NA,NA,NA,NA,NA,NA
724bb,task,flow.Sequence,3_0_0_0_6,NA,NA,completion,8927.5,226830.30000001,226823.8,226840.3,235767.8,235769.90000001,2024-02-03T09:57:25Z,235784.5,NULL,Ergänzung,kijalizo,s,ulaghai,mustarehe,matangazo,NA,sdf,NA,0,NA,NA,NA,NA,NA,NA,NA,NA,NA,NA,NA,NA,NA,NA,NA,NA,NA,NA,NA
724bb,deep,flow.Sequence,3_0_0_0_7_0,NA,NA,skipped,NA,235770.20000002,NA,NA,235767.8,235770.30000001,2024-02-03T09:57:25Z,235784.5,NULL,Verstand,ufahamivu,s,shakawa,hadhari,mhandisi,NA,sdf,NA,0,NA,NA,NA,NA,NA,NA,NA,NA,NA,NA,NA,NA,NA,NA,NA,NA,NA,NA,NA
724bb,Shallow Question,html.Page,3_0_0_0_7_1_0,NA,NA,form submission,6581.400000006,235770.40000001,235767.8,235784.5,242365.90000001,242366.09999999,2024-02-03T09:57:32Z,242380.4,NULL,Verstand,ufahamivu,s,shakawa,hadhari,mhandisi,hadhari,NA,NA,0,NA,NA,NA,NA,NA,NA,NA,NA,NA,NA,NA,NA,NA,NA,NA,NA,NA,NA,NA
724bb,"""Richtig""-Screen",canvas.Screen,3_0_0_0_7_1_1,NA,NA,skipped,NA,242369.20000002,NA,NA,242365.90000001,242369.30000001,2024-02-03T09:57:32Z,242380.4,NULL,Verstand,ufahamivu,s,shakawa,hadhari,mhandisi,NA,sdf,NA,0,NA,NA,NA,NA,NA,NA,NA,NA,NA,NA,NA,NA,NA,NA,NA,NA,NA,NA,NA
724bb,"""Falsch""-Screen",canvas.Screen,3_0_0_0_7_1_2,NA,NA,timeout,4996.9,242370.09999999,242365.424,242380.4,247361.1,247362.20000002,2024-02-03T09:57:37Z,247377.3,NULL,Verstand,ufahamivu,s,shakawa,hadhari,mhandisi,NA,sdf,0,0,NA,NA,NA,NA,NA,NA,NA,NA,NA,NA,NA,NA,NA,NA,NA,NA,NA,NA,NA
724bb,shallow,flow.Sequence,3_0_0_0_7_1,NA,NA,completion,11576.6,235770.40000001,235767.8,235784.5,247361.1,247362.40000001,2024-02-03T09:57:37Z,247377.3,NULL,Verstand,ufahamivu,s,shakawa,hadhari,mhandisi,NA,sdf,NA,0,NA,NA,NA,NA,NA,NA,NA,NA,NA,NA,NA,NA,NA,NA,NA,NA,NA,NA,NA
724bb,task,flow.Sequence,3_0_0_0_7,NA,NA,completion,11576.6,235770.09999999,235767.8,235784.5,247361.1,247362.70000002,2024-02-03T09:57:37Z,247377.3,NULL,Verstand,ufahamivu,s,shakawa,hadhari,mhandisi,NA,sdf,NA,0,NA,NA,NA,NA,NA,NA,NA,NA,NA,NA,NA,NA,NA,NA,NA,NA,NA,NA,NA
724bb,block,flow.Loop,3_0_0_0,NA,NA,completion,83982.4,163387.20000002,163378.64,163378.7,247361.1,247363,2024-02-03T09:57:37Z,247377.3,NULL,NA,NA,NA,NA,NA,NA,NA,sdf,NA,0,NA,NA,NA,NA,NA,NA,NA,NA,NA,NA,NA,NA,NA,NA,NA,NA,NA,NA,NA
724bb,weiter,canvas.Screen,3_0_0_1,sdf,keypress(Space),response,1187.2,247363.09999999,247361.1,247377.3,248564.5,248565.59999999,2024-02-03T09:57:38Z,248577.348,NULL,NA,NA,NA,NA,NA,NA,NA,sdf,NA,0,NA,NA,NA,NA,NA,NA,NA,NA,NA,NA,NA,NA,NA,NA,NA,NA,NA,NA,NA
724bb,check continue,flow.Sequence,3_0_0,NA,NA,completion,85185.8,163387.09999999,163378.64,163378.7,248564.5,248566,2024-02-03T09:57:38Z,248577.348,NULL,NA,NA,NA,NA,NA,NA,NA,sdf,NA,0,NA,NA,NA,NA,NA,NA,NA,NA,NA,NA,NA,NA,NA,NA,NA,NA,NA,NA,NA
724bb,deep,flow.Sequence,3_0_1_0_0_0,NA,NA,skipped,NA,248588.40000001,NA,NA,248564.5,248588.40000001,2024-02-03T09:57:38Z,248577.348,NULL,Verstand,ufahamivu,s,shakawa,hadhari,mhandisi,NA,sdfdsf,NA,1,NA,NA,NA,NA,NA,NA,NA,NA,NA,NA,NA,NA,NA,NA,NA,NA,NA,NA,NA
724bb,Shallow Question,html.Page,3_0_1_0_0_1_0,NA,NA,form submission,5262.152,248588.40000001,248577.348,248577.348,253839.5,253839.70000002,2024-02-03T09:57:43Z,253842.66,NULL,Verstand,ufahamivu,s,shakawa,hadhari,mhandisi,ufahamivu,NA,NA,1,NA,NA,NA,NA,NA,NA,NA,NA,NA,NA,NA,NA,NA,NA,NA,NA,NA,NA,NA
724bb,"""Richtig""-Screen",canvas.Screen,3_0_1_0_0_1_1,NA,NA,timeout,4994.74,253842.90000001,253842.66,253842.66,258820.8,258821.90000001,2024-02-03T09:57:48Z,258837.4,NULL,Verstand,ufahamivu,s,shakawa,hadhari,mhandisi,NA,sdfdsf,1,1,NA,NA,NA,NA,NA,NA,NA,NA,NA,NA,NA,NA,NA,NA,NA,NA,NA,NA,NA
724bb,"""Falsch""-Screen",canvas.Screen,3_0_1_0_0_1_2,NA,NA,skipped,NA,258826.80000001,NA,NA,258820.8,258826.90000001,2024-02-03T09:57:48Z,258837.4,NULL,Verstand,ufahamivu,s,shakawa,hadhari,mhandisi,NA,sdfdsf,NA,1,NA,NA,NA,NA,NA,NA,NA,NA,NA,NA,NA,NA,NA,NA,NA,NA,NA,NA,NA
724bb,shallow,flow.Sequence,3_0_1_0_0_1,NA,NA,completion,10243.452,248588.40000001,248577.348,248577.348,258820.8,258827,2024-02-03T09:57:48Z,258837.4,NULL,Verstand,ufahamivu,s,shakawa,hadhari,mhandisi,NA,sdfdsf,NA,1,NA,NA,NA,NA,NA,NA,NA,NA,NA,NA,NA,NA,NA,NA,NA,NA,NA,NA,NA
724bb,task,flow.Sequence,3_0_1_0_0,NA,NA,completion,10243.452,248588.30000001,248577.348,248577.348,258820.8,258827.09999999,2024-02-03T09:57:48Z,258837.4,NULL,Verstand,ufahamivu,s,shakawa,hadhari,mhandisi,NA,sdfdsf,NA,1,NA,NA,NA,NA,NA,NA,NA,NA,NA,NA,NA,NA,NA,NA,NA,NA,NA,NA,NA
724bb,Deep Question,html.Page,3_0_1_0_1_0_0,NA,NA,form submission,6474.699999994,258827.09999999,258820.8,258837.4,265312.09999999,265312.30000001,2024-02-03T09:57:55Z,265316.3,NULL,Gelegenheit,wakati,d,NA,NA,NA,wakhasmi,NA,NA,1,NA,NA,NA,NA,NA,NA,NA,NA,NA,NA,NA,NA,NA,NA,NA,NA,NA,NA,NA
724bb,"""Richtig""-Screen",canvas.Screen,3_0_1_0_1_0_1,NA,NA,skipped,NA,265314.20000002,NA,NA,265312.09999999,265314.40000001,2024-02-03T09:57:55Z,265316.3,NULL,Gelegenheit,wakati,d,NA,NA,NA,NA,sdfdsf,NA,1,NA,NA,NA,NA,NA,NA,NA,NA,NA,NA,NA,NA,NA,NA,NA,NA,NA,NA,NA
724bb,"""Falsch""-Screen",canvas.Screen,3_0_1_0_1_0_2,NA,NA,timeout,4997,265314.80000001,265300.356,265316.3,270296.9,270297.80000001,2024-02-03T09:58:00Z,270313.3,NULL,Gelegenheit,wakati,d,NA,NA,NA,NA,sdfdsf,0,1,NA,NA,NA,NA,NA,NA,NA,NA,NA,NA,NA,NA,NA,NA,NA,NA,NA,NA,NA
724bb,deep,flow.Sequence,3_0_1_0_1_0,NA,NA,completion,11459.5,258827.09999999,258820.8,258837.4,270296.9,270298.20000002,2024-02-03T09:58:00Z,270313.3,NULL,Gelegenheit,wakati,d,NA,NA,NA,NA,sdfdsf,NA,1,NA,NA,NA,NA,NA,NA,NA,NA,NA,NA,NA,NA,NA,NA,NA,NA,NA,NA,NA
724bb,shallow,flow.Sequence,3_0_1_0_1_1,NA,NA,skipped,NA,270298.40000001,NA,NA,270296.9,270298.5,2024-02-03T09:58:00Z,270313.3,NULL,Gelegenheit,wakati,d,NA,NA,NA,NA,sdfdsf,NA,1,NA,NA,NA,NA,NA,NA,NA,NA,NA,NA,NA,NA,NA,NA,NA,NA,NA,NA,NA
724bb,task,flow.Sequence,3_0_1_0_1,NA,NA,completion,11459.5,258827.09999999,258820.8,258837.4,270296.9,270298.70000002,2024-02-03T09:58:00Z,270313.3,NULL,Gelegenheit,wakati,d,NA,NA,NA,NA,sdfdsf,NA,1,NA,NA,NA,NA,NA,NA,NA,NA,NA,NA,NA,NA,NA,NA,NA,NA,NA,NA,NA
724bb,Deep Question,html.Page,3_0_1_0_2_0_0,NA,NA,form submission,4976.9000000179,270298.90000001,270296.9,270313.3,275290.20000002,275290.40000001,2024-02-03T09:58:05Z,275293.6,NULL,Notfall,dharura,d,NA,NA,NA,ughundi,NA,NA,1,NA,NA,NA,NA,NA,NA,NA,NA,NA,NA,NA,NA,NA,NA,NA,NA,NA,NA,NA
724bb,"""Richtig""-Screen",canvas.Screen,3_0_1_0_2_0_1,NA,NA,skipped,NA,275292.80000001,NA,NA,275290.20000002,275293,2024-02-03T09:58:05Z,275293.6,NULL,Notfall,dharura,d,NA,NA,NA,NA,sdfdsf,NA,1,NA,NA,NA,NA,NA,NA,NA,NA,NA,NA,NA,NA,NA,NA,NA,NA,NA,NA,NA
724bb,"""Falsch""-Screen",canvas.Screen,3_0_1_0_2_0_2,NA,NA,timeout,4997.3,275293.40000001,275278.4,275293.6,280274.2,280275.30000001,2024-02-03T09:58:10Z,280290.9,NULL,Notfall,dharura,d,NA,NA,NA,NA,sdfdsf,0,1,NA,NA,NA,NA,NA,NA,NA,NA,NA,NA,NA,NA,NA,NA,NA,NA,NA,NA,NA
724bb,deep,flow.Sequence,3_0_1_0_2_0,NA,NA,completion,9960.9,270298.90000001,270296.9,270313.3,280274.2,280275.59999999,2024-02-03T09:58:10Z,280290.9,NULL,Notfall,dharura,d,NA,NA,NA,NA,sdfdsf,NA,1,NA,NA,NA,NA,NA,NA,NA,NA,NA,NA,NA,NA,NA,NA,NA,NA,NA,NA,NA
724bb,shallow,flow.Sequence,3_0_1_0_2_1,NA,NA,skipped,NA,280275.80000001,NA,NA,280274.2,280276,2024-02-03T09:58:10Z,280290.9,NULL,Notfall,dharura,d,NA,NA,NA,NA,sdfdsf,NA,1,NA,NA,NA,NA,NA,NA,NA,NA,NA,NA,NA,NA,NA,NA,NA,NA,NA,NA,NA
724bb,task,flow.Sequence,3_0_1_0_2,NA,NA,completion,9960.9,270298.80000001,270296.9,270313.3,280274.2,280276.20000002,2024-02-03T09:58:10Z,280290.9,NULL,Notfall,dharura,d,NA,NA,NA,NA,sdfdsf,NA,1,NA,NA,NA,NA,NA,NA,NA,NA,NA,NA,NA,NA,NA,NA,NA,NA,NA,NA,NA
724bb,Deep Question,html.Page,3_0_1_0_3_0_0,NA,NA,form submission,5601.4000000119,280276.5,280274.2,280290.9,285892.30000001,285892.5,2024-02-03T09:58:16Z,285904.324,NULL,Vergnügen,kichekesho,d,NA,NA,NA,habhalti,NA,NA,1,NA,NA,NA,NA,NA,NA,NA,NA,NA,NA,NA,NA,NA,NA,NA,NA,NA,NA,NA
724bb,"""Richtig""-Screen",canvas.Screen,3_0_1_0_3_0_1,NA,NA,skipped,NA,285895.70000002,NA,NA,285892.30000001,285895.90000001,2024-02-03T09:58:16Z,285904.324,NULL,Vergnügen,kichekesho,d,NA,NA,NA,NA,sdfdsf,NA,1,NA,NA,NA,NA,NA,NA,NA,NA,NA,NA,NA,NA,NA,NA,NA,NA,NA,NA,NA
724bb,"""Falsch""-Screen",canvas.Screen,3_0_1_0_3_0_2,NA,NA,timeout,4996.876,285896.80000001,285904.324,285904.324,290884.5,290885.5,2024-02-03T09:58:21Z,290901.2,NULL,Vergnügen,kichekesho,d,NA,NA,NA,NA,sdfdsf,0,1,NA,NA,NA,NA,NA,NA,NA,NA,NA,NA,NA,NA,NA,NA,NA,NA,NA,NA,NA
724bb,deep,flow.Sequence,3_0_1_0_3_0,NA,NA,completion,10593.6,280276.40000001,280274.2,280290.9,290884.5,290886,2024-02-03T09:58:21Z,290901.2,NULL,Vergnügen,kichekesho,d,NA,NA,NA,NA,sdfdsf,NA,1,NA,NA,NA,NA,NA,NA,NA,NA,NA,NA,NA,NA,NA,NA,NA,NA,NA,NA,NA
724bb,shallow,flow.Sequence,3_0_1_0_3_1,NA,NA,skipped,NA,290886.09999999,NA,NA,290884.5,290886.30000001,2024-02-03T09:58:21Z,290901.2,NULL,Vergnügen,kichekesho,d,NA,NA,NA,NA,sdfdsf,NA,1,NA,NA,NA,NA,NA,NA,NA,NA,NA,NA,NA,NA,NA,NA,NA,NA,NA,NA,NA
724bb,task,flow.Sequence,3_0_1_0_3,NA,NA,completion,10593.6,280276.40000001,280274.2,280290.9,290884.5,290886.5,2024-02-03T09:58:21Z,290901.2,NULL,Vergnügen,kichekesho,d,NA,NA,NA,NA,sdfdsf,NA,1,NA,NA,NA,NA,NA,NA,NA,NA,NA,NA,NA,NA,NA,NA,NA,NA,NA,NA,NA
724bb,deep,flow.Sequence,3_0_1_0_4_0,NA,NA,skipped,NA,290886.70000002,NA,NA,290884.5,290886.80000001,2024-02-03T09:58:21Z,290901.2,NULL,Widerstand,usulubu,s,kusababisha,mwalimu,mwenendo,NA,sdfdsf,NA,1,NA,NA,NA,NA,NA,NA,NA,NA,NA,NA,NA,NA,NA,NA,NA,NA,NA,NA,NA
724bb,Shallow Question,html.Page,3_0_1_0_4_1_0,NA,NA,form submission,12790.500000018,290886.90000001,290884.5,290901.2,303691.70000002,303691.90000001,2024-02-03T09:58:33Z,303693.588,NULL,Widerstand,usulubu,s,kusababisha,mwalimu,mwenendo,mwalimu,NA,NA,1,NA,NA,NA,NA,NA,NA,NA,NA,NA,NA,NA,NA,NA,NA,NA,NA,NA,NA,NA
724bb,"""Richtig""-Screen",canvas.Screen,3_0_1_0_4_1_1,NA,NA,skipped,NA,303695.5,NA,NA,303691.70000002,303695.70000002,2024-02-03T09:58:33Z,303693.588,NULL,Widerstand,usulubu,s,kusababisha,mwalimu,mwenendo,NA,sdfdsf,NA,1,NA,NA,NA,NA,NA,NA,NA,NA,NA,NA,NA,NA,NA,NA,NA,NA,NA,NA,NA
724bb,"""Falsch""-Screen",canvas.Screen,3_0_1_0_4_1_2,NA,NA,timeout,4996.712,303696.20000002,303693.588,303693.588,308673.2,308674.59999999,2024-02-03T09:58:38Z,308690.3,NULL,Widerstand,usulubu,s,kusababisha,mwalimu,mwenendo,NA,sdfdsf,0,1,NA,NA,NA,NA,NA,NA,NA,NA,NA,NA,NA,NA,NA,NA,NA,NA,NA,NA,NA
724bb,shallow,flow.Sequence,3_0_1_0_4_1,NA,NA,completion,17772,290886.80000001,290884.5,290901.2,308673.2,308675.09999999,2024-02-03T09:58:38Z,308690.3,NULL,Widerstand,usulubu,s,kusababisha,mwalimu,mwenendo,NA,sdfdsf,NA,1,NA,NA,NA,NA,NA,NA,NA,NA,NA,NA,NA,NA,NA,NA,NA,NA,NA,NA,NA
724bb,task,flow.Sequence,3_0_1_0_4,NA,NA,completion,17772,290886.59999999,290884.5,290901.2,308673.2,308675.30000001,2024-02-03T09:58:38Z,308690.3,NULL,Widerstand,usulubu,s,kusababisha,mwalimu,mwenendo,NA,sdfdsf,NA,1,NA,NA,NA,NA,NA,NA,NA,NA,NA,NA,NA,NA,NA,NA,NA,NA,NA,NA,NA
724bb,deep,flow.Sequence,3_0_1_0_5_0,NA,NA,skipped,NA,308675.5,NA,NA,308673.2,308675.70000002,2024-02-03T09:58:38Z,308690.3,NULL,Wohlstand,mafanikio,s,chimbuko,kumbuko,mapwaji,NA,sdfdsf,NA,1,NA,NA,NA,NA,NA,NA,NA,NA,NA,NA,NA,NA,NA,NA,NA,NA,NA,NA,NA
724bb,Shallow Question,html.Page,3_0_1_0_5_1_0,NA,NA,form submission,5099.2999999941,308675.90000001,308673.2,308690.3,313789.59999999,313789.80000001,2024-02-03T09:58:43Z,313803.4,NULL,Wohlstand,mafanikio,s,chimbuko,kumbuko,mapwaji,chimbuko,NA,NA,1,NA,NA,NA,NA,NA,NA,NA,NA,NA,NA,NA,NA,NA,NA,NA,NA,NA,NA,NA
724bb,"""Richtig""-Screen",canvas.Screen,3_0_1_0_5_1_1,NA,NA,skipped,NA,313791.90000001,NA,NA,313789.59999999,313792,2024-02-03T09:58:43Z,313803.4,NULL,Wohlstand,mafanikio,s,chimbuko,kumbuko,mapwaji,NA,sdfdsf,NA,1,NA,NA,NA,NA,NA,NA,NA,NA,NA,NA,NA,NA,NA,NA,NA,NA,NA,NA,NA
724bb,"""Falsch""-Screen",canvas.Screen,3_0_1_0_5_1_2,NA,NA,timeout,4997,313792.5,313787.324,313803.4,318784.2,318785.20000002,2024-02-03T09:58:48Z,318800.4,NULL,Wohlstand,mafanikio,s,chimbuko,kumbuko,mapwaji,NA,sdfdsf,0,1,NA,NA,NA,NA,NA,NA,NA,NA,NA,NA,NA,NA,NA,NA,NA,NA,NA,NA,NA
724bb,shallow,flow.Sequence,3_0_1_0_5_1,NA,NA,completion,10093.9,308675.90000001,308673.2,308690.3,318784.2,318785.59999999,2024-02-03T09:58:48Z,318800.4,NULL,Wohlstand,mafanikio,s,chimbuko,kumbuko,mapwaji,NA,sdfdsf,NA,1,NA,NA,NA,NA,NA,NA,NA,NA,NA,NA,NA,NA,NA,NA,NA,NA,NA,NA,NA
724bb,task,flow.Sequence,3_0_1_0_5,NA,NA,completion,10093.9,308675.5,308673.2,308690.3,318784.2,318785.90000001,2024-02-03T09:58:48Z,318800.4,NULL,Wohlstand,mafanikio,s,chimbuko,kumbuko,mapwaji,NA,sdfdsf,NA,1,NA,NA,NA,NA,NA,NA,NA,NA,NA,NA,NA,NA,NA,NA,NA,NA,NA,NA,NA
724bb,Deep Question,html.Page,3_0_1_0_6_0_0,NA,NA,form submission,5919.4000000119,318786.20000002,318784.2,318800.4,324719.80000001,324720,2024-02-03T09:58:54Z,324730.2,NULL,Ausschluss,kutengwa,d,NA,NA,NA,whati,NA,NA,1,NA,NA,NA,NA,NA,NA,NA,NA,NA,NA,NA,NA,NA,NA,NA,NA,NA,NA,NA
724bb,"""Richtig""-Screen",canvas.Screen,3_0_1_0_6_0_1,NA,NA,skipped,NA,324721.70000002,NA,NA,324719.80000001,324721.80000001,2024-02-03T09:58:54Z,324730.2,NULL,Ausschluss,kutengwa,d,NA,NA,NA,NA,sdfdsf,NA,1,NA,NA,NA,NA,NA,NA,NA,NA,NA,NA,NA,NA,NA,NA,NA,NA,NA,NA,NA
724bb,"""Falsch""-Screen",canvas.Screen,3_0_1_0_6_0_2,NA,NA,timeout,4997.2,324722.20000002,324713.892,324730.2,329710.7,329711.90000001,2024-02-03T09:58:59Z,329727.4,NULL,Ausschluss,kutengwa,d,NA,NA,NA,NA,sdfdsf,0,1,NA,NA,NA,NA,NA,NA,NA,NA,NA,NA,NA,NA,NA,NA,NA,NA,NA,NA,NA
724bb,deep,flow.Sequence,3_0_1_0_6_0,NA,NA,completion,10910.3,318786.09999999,318784.2,318800.4,329710.7,329712.40000001,2024-02-03T09:58:59Z,329727.4,NULL,Ausschluss,kutengwa,d,NA,NA,NA,NA,sdfdsf,NA,1,NA,NA,NA,NA,NA,NA,NA,NA,NA,NA,NA,NA,NA,NA,NA,NA,NA,NA,NA
724bb,shallow,flow.Sequence,3_0_1_0_6_1,NA,NA,skipped,NA,329712.59999999,NA,NA,329710.7,329712.70000002,2024-02-03T09:58:59Z,329727.4,NULL,Ausschluss,kutengwa,d,NA,NA,NA,NA,sdfdsf,NA,1,NA,NA,NA,NA,NA,NA,NA,NA,NA,NA,NA,NA,NA,NA,NA,NA,NA,NA,NA
724bb,task,flow.Sequence,3_0_1_0_6,NA,NA,completion,10910.3,318786.09999999,318784.2,318800.4,329710.7,329713,2024-02-03T09:58:59Z,329727.4,NULL,Ausschluss,kutengwa,d,NA,NA,NA,NA,sdfdsf,NA,1,NA,NA,NA,NA,NA,NA,NA,NA,NA,NA,NA,NA,NA,NA,NA,NA,NA,NA,NA
724bb,deep,flow.Sequence,3_0_1_0_7_0,NA,NA,skipped,NA,329713.20000002,NA,NA,329710.7,329713.30000001,2024-02-03T09:58:59Z,329727.4,NULL,Ergänzung,kijalizo,s,ulaghai,mustarehe,matangazo,NA,sdfdsf,NA,1,NA,NA,NA,NA,NA,NA,NA,NA,NA,NA,NA,NA,NA,NA,NA,NA,NA,NA,NA
724bb,Shallow Question,html.Page,3_0_1_0_7_1_0,NA,NA,form submission,6272.6,329713.59999999,329710.7,329727.4,336000,336000.20000002,2024-02-03T09:59:06Z,336006.5,NULL,Ergänzung,kijalizo,s,ulaghai,mustarehe,matangazo,kijalizo,NA,NA,1,NA,NA,NA,NA,NA,NA,NA,NA,NA,NA,NA,NA,NA,NA,NA,NA,NA,NA,NA
724bb,"""Richtig""-Screen",canvas.Screen,3_0_1_0_7_1_1,NA,NA,timeout,4997.4,336003.5,335990.4,336006.5,340987.1,340988,2024-02-03T09:59:11Z,341003.9,NULL,Ergänzung,kijalizo,s,ulaghai,mustarehe,matangazo,NA,sdfdsf,1,1,NA,NA,NA,NA,NA,NA,NA,NA,NA,NA,NA,NA,NA,NA,NA,NA,NA,NA,NA
724bb,"""Falsch""-Screen",canvas.Screen,3_0_1_0_7_1_2,NA,NA,skipped,NA,340993.30000001,NA,NA,340987.1,340993.40000001,2024-02-03T09:59:11Z,341003.9,NULL,Ergänzung,kijalizo,s,ulaghai,mustarehe,matangazo,NA,sdfdsf,NA,1,NA,NA,NA,NA,NA,NA,NA,NA,NA,NA,NA,NA,NA,NA,NA,NA,NA,NA,NA
724bb,shallow,flow.Sequence,3_0_1_0_7_1,NA,NA,completion,11259.7,329713.5,329710.7,329727.4,340987.1,340993.5,2024-02-03T09:59:11Z,341003.9,NULL,Ergänzung,kijalizo,s,ulaghai,mustarehe,matangazo,NA,sdfdsf,NA,1,NA,NA,NA,NA,NA,NA,NA,NA,NA,NA,NA,NA,NA,NA,NA,NA,NA,NA,NA
724bb,task,flow.Sequence,3_0_1_0_7,NA,NA,completion,11259.7,329713.20000002,329710.7,329727.4,340987.1,340993.59999999,2024-02-03T09:59:11Z,341003.9,NULL,Ergänzung,kijalizo,s,ulaghai,mustarehe,matangazo,NA,sdfdsf,NA,1,NA,NA,NA,NA,NA,NA,NA,NA,NA,NA,NA,NA,NA,NA,NA,NA,NA,NA,NA
724bb,block,flow.Loop,3_0_1_0,NA,NA,completion,92409.752,248588.30000001,248577.348,248577.348,340987.1,340993.70000002,2024-02-03T09:59:11Z,341003.9,NULL,NA,NA,NA,NA,NA,NA,NA,sdfdsf,NA,1,NA,NA,NA,NA,NA,NA,NA,NA,NA,NA,NA,NA,NA,NA,NA,NA,NA,NA,NA
724bb,weiter,canvas.Screen,3_0_1_1,sdf,keypress(Space),response,769.69999999402,340993.70000002,340987.1,341003.9,341773.59999999,341774.59999999,2024-02-03T09:59:11Z,341786.86,NULL,NA,NA,NA,NA,NA,NA,NA,sdfdsf,NA,1,NA,NA,NA,NA,NA,NA,NA,NA,NA,NA,NA,NA,NA,NA,NA,NA,NA,NA,NA
724bb,check continue,flow.Sequence,3_0_1,NA,NA,completion,93196.251999994,248588.30000001,248577.348,248577.348,341773.59999999,341775,2024-02-03T09:59:11Z,341786.86,NULL,NA,NA,NA,NA,NA,NA,NA,sdfdsf,NA,1,NA,NA,NA,NA,NA,NA,NA,NA,NA,NA,NA,NA,NA,NA,NA,NA,NA,NA,NA
724bb,deep,flow.Sequence,3_0_2_0_0_0,NA,NA,skipped,NA,341795.90000001,NA,NA,341773.59999999,341796,2024-02-03T09:59:11Z,341786.86,NULL,Wohlstand,mafanikio,s,chimbuko,kumbuko,mapwaji,NA,sdf,NA,2,NA,NA,NA,NA,NA,NA,NA,NA,NA,NA,NA,NA,NA,NA,NA,NA,NA,NA,NA
724bb,Shallow Question,html.Page,3_0_2_0_0_1_0,NA,NA,form submission,5307.14,341796,341786.86,341786.86,347094,347094.30000001,2024-02-03T09:59:17Z,347099.7,NULL,Wohlstand,mafanikio,s,chimbuko,kumbuko,mapwaji,mafanikio,NA,NA,2,NA,NA,NA,NA,NA,NA,NA,NA,NA,NA,NA,NA,NA,NA,NA,NA,NA,NA,NA
724bb,"""Richtig""-Screen",canvas.Screen,3_0_2_0_0_1_1,NA,NA,timeout,4997.2,347097.40000001,347083.586,347099.7,352080.4,352081.5,2024-02-03T09:59:22Z,352096.9,NULL,Wohlstand,mafanikio,s,chimbuko,kumbuko,mapwaji,NA,sdf,1,2,NA,NA,NA,NA,NA,NA,NA,NA,NA,NA,NA,NA,NA,NA,NA,NA,NA,NA,NA
724bb,"""Falsch""-Screen",canvas.Screen,3_0_2_0_0_1_2,NA,NA,skipped,NA,352086.70000002,NA,NA,352080.4,352086.90000001,2024-02-03T09:59:22Z,352096.9,NULL,Wohlstand,mafanikio,s,chimbuko,kumbuko,mapwaji,NA,sdf,NA,2,NA,NA,NA,NA,NA,NA,NA,NA,NA,NA,NA,NA,NA,NA,NA,NA,NA,NA,NA
724bb,shallow,flow.Sequence,3_0_2_0_0_1,NA,NA,completion,10293.54,341796,341786.86,341786.86,352080.4,352087,2024-02-03T09:59:22Z,352096.9,NULL,Wohlstand,mafanikio,s,chimbuko,kumbuko,mapwaji,NA,sdf,NA,2,NA,NA,NA,NA,NA,NA,NA,NA,NA,NA,NA,NA,NA,NA,NA,NA,NA,NA,NA
724bb,task,flow.Sequence,3_0_2_0_0,NA,NA,completion,10293.54,341795.90000001,341786.86,341786.86,352080.4,352087,2024-02-03T09:59:22Z,352096.9,NULL,Wohlstand,mafanikio,s,chimbuko,kumbuko,mapwaji,NA,sdf,NA,2,NA,NA,NA,NA,NA,NA,NA,NA,NA,NA,NA,NA,NA,NA,NA,NA,NA,NA,NA
724bb,deep,flow.Sequence,3_0_2_0_1_0,NA,NA,skipped,NA,352087,NA,NA,352080.4,352087,2024-02-03T09:59:22Z,352096.9,NULL,Ergänzung,kijalizo,s,ulaghai,mustarehe,matangazo,NA,sdf,NA,2,NA,NA,NA,NA,NA,NA,NA,NA,NA,NA,NA,NA,NA,NA,NA,NA,NA,NA,NA
724bb,Shallow Question,html.Page,3_0_2_0_1_1_0,NA,NA,form submission,7826.5000000059,352087.09999999,352080.4,352096.9,359923.40000001,359923.5,2024-02-03T09:59:30Z,359925.628,NULL,Ergänzung,kijalizo,s,ulaghai,mustarehe,matangazo,kijalizo,NA,NA,2,NA,NA,NA,NA,NA,NA,NA,NA,NA,NA,NA,NA,NA,NA,NA,NA,NA,NA,NA
724bb,"""Richtig""-Screen",canvas.Screen,3_0_2_0_1_1_1,NA,NA,timeout,4997.072,359925.30000001,359925.628,359925.628,364905.8,364907,2024-02-03T09:59:35Z,364922.7,NULL,Ergänzung,kijalizo,s,ulaghai,mustarehe,matangazo,NA,sdf,1,2,NA,NA,NA,NA,NA,NA,NA,NA,NA,NA,NA,NA,NA,NA,NA,NA,NA,NA,NA
724bb,"""Falsch""-Screen",canvas.Screen,3_0_2_0_1_1_2,NA,NA,skipped,NA,364912.30000001,NA,NA,364905.8,364912.40000001,2024-02-03T09:59:35Z,364922.7,NULL,Ergänzung,kijalizo,s,ulaghai,mustarehe,matangazo,NA,sdf,NA,2,NA,NA,NA,NA,NA,NA,NA,NA,NA,NA,NA,NA,NA,NA,NA,NA,NA,NA,NA
724bb,shallow,flow.Sequence,3_0_2_0_1_1,NA,NA,completion,12808.9,352087.09999999,352080.4,352096.9,364905.8,364912.40000001,2024-02-03T09:59:35Z,364922.7,NULL,Ergänzung,kijalizo,s,ulaghai,mustarehe,matangazo,NA,sdf,NA,2,NA,NA,NA,NA,NA,NA,NA,NA,NA,NA,NA,NA,NA,NA,NA,NA,NA,NA,NA
724bb,task,flow.Sequence,3_0_2_0_1,NA,NA,completion,12808.9,352087,352080.4,352096.9,364905.8,364912.59999999,2024-02-03T09:59:35Z,364922.7,NULL,Ergänzung,kijalizo,s,ulaghai,mustarehe,matangazo,NA,sdf,NA,2,NA,NA,NA,NA,NA,NA,NA,NA,NA,NA,NA,NA,NA,NA,NA,NA,NA,NA,NA
724bb,deep,flow.Sequence,3_0_2_0_2_0,NA,NA,skipped,NA,364912.59999999,NA,NA,364905.8,364912.59999999,2024-02-03T09:59:35Z,364922.7,NULL,Widerstand,usulubu,s,kusababisha,mwalimu,mwenendo,NA,sdf,NA,2,NA,NA,NA,NA,NA,NA,NA,NA,NA,NA,NA,NA,NA,NA,NA,NA,NA,NA,NA
724bb,Shallow Question,html.Page,3_0_2_0_2_1_0,NA,NA,form submission,6464.899999994,364912.59999999,364905.8,364922.7,371387.59999999,371387.90000001,2024-02-03T09:59:41Z,371401.9,NULL,Widerstand,usulubu,s,kusababisha,mwalimu,mwenendo,usulubu,NA,NA,2,NA,NA,NA,NA,NA,NA,NA,NA,NA,NA,NA,NA,NA,NA,NA,NA,NA,NA,NA
724bb,"""Richtig""-Screen",canvas.Screen,3_0_2_0_2_1_1,NA,NA,timeout,4997.1,371390.80000001,371385.68,371401.9,376382.3,376383.30000001,2024-02-03T09:59:46Z,376399,NULL,Widerstand,usulubu,s,kusababisha,mwalimu,mwenendo,NA,sdf,1,2,NA,NA,NA,NA,NA,NA,NA,NA,NA,NA,NA,NA,NA,NA,NA,NA,NA,NA,NA
724bb,"""Falsch""-Screen",canvas.Screen,3_0_2_0_2_1_2,NA,NA,skipped,NA,376388.59999999,NA,NA,376382.3,376388.70000002,2024-02-03T09:59:46Z,376399,NULL,Widerstand,usulubu,s,kusababisha,mwalimu,mwenendo,NA,sdf,NA,2,NA,NA,NA,NA,NA,NA,NA,NA,NA,NA,NA,NA,NA,NA,NA,NA,NA,NA,NA
724bb,shallow,flow.Sequence,3_0_2_0_2_1,NA,NA,completion,11459.6,364912.59999999,364905.8,364922.7,376382.3,376388.80000001,2024-02-03T09:59:46Z,376399,NULL,Widerstand,usulubu,s,kusababisha,mwalimu,mwenendo,NA,sdf,NA,2,NA,NA,NA,NA,NA,NA,NA,NA,NA,NA,NA,NA,NA,NA,NA,NA,NA,NA,NA
724bb,task,flow.Sequence,3_0_2_0_2,NA,NA,completion,11459.6,364912.59999999,364905.8,364922.7,376382.3,376388.90000001,2024-02-03T09:59:46Z,376399,NULL,Widerstand,usulubu,s,kusababisha,mwalimu,mwenendo,NA,sdf,NA,2,NA,NA,NA,NA,NA,NA,NA,NA,NA,NA,NA,NA,NA,NA,NA,NA,NA,NA,NA
724bb,Deep Question,html.Page,3_0_2_0_3_0_0,NA,NA,form submission,9048.5,376388.90000001,376382.3,376399,385447.5,385447.70000002,2024-02-03T09:59:55Z,385459.8,NULL,Vergnügen,kichekesho,d,NA,NA,NA,mhwakati,NA,NA,2,NA,NA,NA,NA,NA,NA,NA,NA,NA,NA,NA,NA,NA,NA,NA,NA,NA,NA,NA
724bb,"""Richtig""-Screen",canvas.Screen,3_0_2_0_3_0_1,NA,NA,skipped,NA,385450.80000001,NA,NA,385447.5,385451,2024-02-03T09:59:55Z,385459.8,NULL,Vergnügen,kichekesho,d,NA,NA,NA,NA,sdf,NA,2,NA,NA,NA,NA,NA,NA,NA,NA,NA,NA,NA,NA,NA,NA,NA,NA,NA,NA,NA
724bb,"""Falsch""-Screen",canvas.Screen,3_0_2_0_3_0_2,NA,NA,timeout,4997.1,385451.59999999,385443.588,385459.8,390440.3,390441.30000001,2024-02-03T10:00:00Z,390456.9,NULL,Vergnügen,kichekesho,d,NA,NA,NA,NA,sdf,0,2,NA,NA,NA,NA,NA,NA,NA,NA,NA,NA,NA,NA,NA,NA,NA,NA,NA,NA,NA
724bb,deep,flow.Sequence,3_0_2_0_3_0,NA,NA,completion,14041.3,376388.90000001,376382.3,376399,390440.3,390441.70000002,2024-02-03T10:00:00Z,390456.9,NULL,Vergnügen,kichekesho,d,NA,NA,NA,NA,sdf,NA,2,NA,NA,NA,NA,NA,NA,NA,NA,NA,NA,NA,NA,NA,NA,NA,NA,NA,NA,NA
724bb,shallow,flow.Sequence,3_0_2_0_3_1,NA,NA,skipped,NA,390441.90000001,NA,NA,390440.3,390442.09999999,2024-02-03T10:00:00Z,390456.9,NULL,Vergnügen,kichekesho,d,NA,NA,NA,NA,sdf,NA,2,NA,NA,NA,NA,NA,NA,NA,NA,NA,NA,NA,NA,NA,NA,NA,NA,NA,NA,NA
724bb,task,flow.Sequence,3_0_2_0_3,NA,NA,completion,14041.3,376388.90000001,376382.3,376399,390440.3,390442.20000002,2024-02-03T10:00:00Z,390456.9,NULL,Vergnügen,kichekesho,d,NA,NA,NA,NA,sdf,NA,2,NA,NA,NA,NA,NA,NA,NA,NA,NA,NA,NA,NA,NA,NA,NA,NA,NA,NA,NA
724bb,deep,flow.Sequence,3_0_2_0_4_0,NA,NA,skipped,NA,390442.5,NA,NA,390440.3,390442.70000002,2024-02-03T10:00:00Z,390456.9,NULL,Verstand,ufahamivu,s,shakawa,hadhari,mhandisi,NA,sdf,NA,2,NA,NA,NA,NA,NA,NA,NA,NA,NA,NA,NA,NA,NA,NA,NA,NA,NA,NA,NA
724bb,Shallow Question,html.Page,3_0_2_0_4_1_0,NA,NA,form submission,6691.1,390442.80000001,390440.3,390456.9,397148,397148.20000002,2024-02-03T10:00:07Z,397152.4,NULL,Verstand,ufahamivu,s,shakawa,hadhari,mhandisi,ufahamivu,NA,NA,2,NA,NA,NA,NA,NA,NA,NA,NA,NA,NA,NA,NA,NA,NA,NA,NA,NA,NA,NA
724bb,"""Richtig""-Screen",canvas.Screen,3_0_2_0_4_1_1,NA,NA,timeout,4997.5,397151.30000001,397136.296,397152.4,402133.1,402133.59999999,2024-02-03T10:00:12Z,402149.9,NULL,Verstand,ufahamivu,s,shakawa,hadhari,mhandisi,NA,sdf,1,2,NA,NA,NA,NA,NA,NA,NA,NA,NA,NA,NA,NA,NA,NA,NA,NA,NA,NA,NA
724bb,"""Falsch""-Screen",canvas.Screen,3_0_2_0_4_1_2,NA,NA,skipped,NA,402135.30000001,NA,NA,402133.1,402135.30000001,2024-02-03T10:00:12Z,402149.9,NULL,Verstand,ufahamivu,s,shakawa,hadhari,mhandisi,NA,sdf,NA,2,NA,NA,NA,NA,NA,NA,NA,NA,NA,NA,NA,NA,NA,NA,NA,NA,NA,NA,NA
724bb,shallow,flow.Sequence,3_0_2_0_4_1,NA,NA,completion,11676.2,390442.80000001,390440.3,390456.9,402133.1,402135.40000001,2024-02-03T10:00:12Z,402149.9,NULL,Verstand,ufahamivu,s,shakawa,hadhari,mhandisi,NA,sdf,NA,2,NA,NA,NA,NA,NA,NA,NA,NA,NA,NA,NA,NA,NA,NA,NA,NA,NA,NA,NA
724bb,task,flow.Sequence,3_0_2_0_4,NA,NA,completion,11676.2,390442.5,390440.3,390456.9,402133.1,402135.40000001,2024-02-03T10:00:12Z,402149.9,NULL,Verstand,ufahamivu,s,shakawa,hadhari,mhandisi,NA,sdf,NA,2,NA,NA,NA,NA,NA,NA,NA,NA,NA,NA,NA,NA,NA,NA,NA,NA,NA,NA,NA
724bb,Deep Question,html.Page,3_0_2_0_5_0_0,NA,NA,form submission,5946.3000000179,402135.5,402133.1,402149.9,408096.20000002,408096.5,2024-02-03T10:00:18Z,408112.9,NULL,Gelegenheit,wakati,d,NA,NA,NA,usulubu,NA,NA,2,NA,NA,NA,NA,NA,NA,NA,NA,NA,NA,NA,NA,NA,NA,NA,NA,NA,NA,NA
724bb,"""Richtig""-Screen",canvas.Screen,3_0_2_0_5_0_1,NA,NA,skipped,NA,408100.20000002,NA,NA,408096.20000002,408100.30000001,2024-02-03T10:00:18Z,408112.9,NULL,Gelegenheit,wakati,d,NA,NA,NA,NA,sdf,NA,2,NA,NA,NA,NA,NA,NA,NA,NA,NA,NA,NA,NA,NA,NA,NA,NA,NA,NA,NA
724bb,"""Falsch""-Screen",canvas.Screen,3_0_2_0_5_0_2,NA,NA,timeout,4996.9,408100.80000001,408096.426,408112.9,413093,413094.20000002,2024-02-03T10:00:23Z,413109.8,NULL,Gelegenheit,wakati,d,NA,NA,NA,NA,sdf,0,2,NA,NA,NA,NA,NA,NA,NA,NA,NA,NA,NA,NA,NA,NA,NA,NA,NA,NA,NA
724bb,deep,flow.Sequence,3_0_2_0_5_0,NA,NA,completion,10943.1,402135.5,402133.1,402149.9,413093,413094.70000002,2024-02-03T10:00:23Z,413109.8,NULL,Gelegenheit,wakati,d,NA,NA,NA,NA,sdf,NA,2,NA,NA,NA,NA,NA,NA,NA,NA,NA,NA,NA,NA,NA,NA,NA,NA,NA,NA,NA
724bb,shallow,flow.Sequence,3_0_2_0_5_1,NA,NA,skipped,NA,413094.80000001,NA,NA,413093,413095,2024-02-03T10:00:23Z,413109.8,NULL,Gelegenheit,wakati,d,NA,NA,NA,NA,sdf,NA,2,NA,NA,NA,NA,NA,NA,NA,NA,NA,NA,NA,NA,NA,NA,NA,NA,NA,NA,NA
724bb,task,flow.Sequence,3_0_2_0_5,NA,NA,completion,10943.1,402135.5,402133.1,402149.9,413093,413095.30000001,2024-02-03T10:00:23Z,413109.8,NULL,Gelegenheit,wakati,d,NA,NA,NA,NA,sdf,NA,2,NA,NA,NA,NA,NA,NA,NA,NA,NA,NA,NA,NA,NA,NA,NA,NA,NA,NA,NA
724bb,Deep Question,html.Page,3_0_2_0_6_0_0,NA,NA,form submission,4298.4000000179,413095.5,413093,413109.8,417408.20000002,417408.5,2024-02-03T10:00:27Z,417423.7,NULL,Ausschluss,kutengwa,d,NA,NA,NA,get,NA,NA,2,NA,NA,NA,NA,NA,NA,NA,NA,NA,NA,NA,NA,NA,NA,NA,NA,NA,NA,NA
724bb,"""Richtig""-Screen",canvas.Screen,3_0_2_0_6_0_1,NA,NA,skipped,NA,417410.30000001,NA,NA,417408.20000002,417410.40000001,2024-02-03T10:00:27Z,417423.7,NULL,Ausschluss,kutengwa,d,NA,NA,NA,NA,sdf,NA,2,NA,NA,NA,NA,NA,NA,NA,NA,NA,NA,NA,NA,NA,NA,NA,NA,NA,NA,NA
724bb,"""Falsch""-Screen",canvas.Screen,3_0_2_0_6_0_2,NA,NA,timeout,4997,417410.80000001,417407.354,417423.7,422403.7,422404.70000002,2024-02-03T10:00:32Z,422420.7,NULL,Ausschluss,kutengwa,d,NA,NA,NA,NA,sdf,0,2,NA,NA,NA,NA,NA,NA,NA,NA,NA,NA,NA,NA,NA,NA,NA,NA,NA,NA,NA
724bb,deep,flow.Sequence,3_0_2_0_6_0,NA,NA,completion,9293.9,413095.40000001,413093,413109.8,422403.7,422405,2024-02-03T10:00:32Z,422420.7,NULL,Ausschluss,kutengwa,d,NA,NA,NA,NA,sdf,NA,2,NA,NA,NA,NA,NA,NA,NA,NA,NA,NA,NA,NA,NA,NA,NA,NA,NA,NA,NA
724bb,shallow,flow.Sequence,3_0_2_0_6_1,NA,NA,skipped,NA,422405.09999999,NA,NA,422403.7,422405.30000001,2024-02-03T10:00:32Z,422420.7,NULL,Ausschluss,kutengwa,d,NA,NA,NA,NA,sdf,NA,2,NA,NA,NA,NA,NA,NA,NA,NA,NA,NA,NA,NA,NA,NA,NA,NA,NA,NA,NA
724bb,task,flow.Sequence,3_0_2_0_6,NA,NA,completion,9293.9,413095.40000001,413093,413109.8,422403.7,422405.5,2024-02-03T10:00:32Z,422420.7,NULL,Ausschluss,kutengwa,d,NA,NA,NA,NA,sdf,NA,2,NA,NA,NA,NA,NA,NA,NA,NA,NA,NA,NA,NA,NA,NA,NA,NA,NA,NA,NA
724bb,Deep Question,html.Page,3_0_2_0_7_0_0,NA,NA,form submission,3855.0000000179,422405.70000002,422403.7,422420.7,426275.70000002,426276,2024-02-03T10:00:36Z,426284.7,NULL,Notfall,dharura,d,NA,NA,NA,bra,NA,NA,2,NA,NA,NA,NA,NA,NA,NA,NA,NA,NA,NA,NA,NA,NA,NA,NA,NA,NA,NA
724bb,"""Richtig""-Screen",canvas.Screen,3_0_2_0_7_0_1,NA,NA,skipped,NA,426279,NA,NA,426275.70000002,426279.09999999,2024-02-03T10:00:36Z,426284.7,NULL,Notfall,dharura,d,NA,NA,NA,NA,sdf,NA,2,NA,NA,NA,NA,NA,NA,NA,NA,NA,NA,NA,NA,NA,NA,NA,NA,NA,NA,NA
724bb,"""Falsch""-Screen",canvas.Screen,3_0_2_0_7_0_2,NA,NA,timeout,4997.1,426279.80000001,426268.662,426284.7,431265.1,431266.30000001,2024-02-03T10:00:41Z,431281.8,NULL,Notfall,dharura,d,NA,NA,NA,NA,sdf,0,2,NA,NA,NA,NA,NA,NA,NA,NA,NA,NA,NA,NA,NA,NA,NA,NA,NA,NA,NA
724bb,deep,flow.Sequence,3_0_2_0_7_0,NA,NA,completion,8844.4,422405.70000002,422403.7,422420.7,431265.1,431266.70000002,2024-02-03T10:00:41Z,431281.8,NULL,Notfall,dharura,d,NA,NA,NA,NA,sdf,NA,2,NA,NA,NA,NA,NA,NA,NA,NA,NA,NA,NA,NA,NA,NA,NA,NA,NA,NA,NA
724bb,shallow,flow.Sequence,3_0_2_0_7_1,NA,NA,skipped,NA,431266.80000001,NA,NA,431265.1,431267.09999999,2024-02-03T10:00:41Z,431281.8,NULL,Notfall,dharura,d,NA,NA,NA,NA,sdf,NA,2,NA,NA,NA,NA,NA,NA,NA,NA,NA,NA,NA,NA,NA,NA,NA,NA,NA,NA,NA
724bb,task,flow.Sequence,3_0_2_0_7,NA,NA,completion,8844.4,422405.59999999,422403.7,422420.7,431265.1,431267.20000002,2024-02-03T10:00:41Z,431281.8,NULL,Notfall,dharura,d,NA,NA,NA,NA,sdf,NA,2,NA,NA,NA,NA,NA,NA,NA,NA,NA,NA,NA,NA,NA,NA,NA,NA,NA,NA,NA
724bb,block,flow.Loop,3_0_2_0,NA,NA,completion,89478.24,341795.90000001,341786.86,341786.86,431265.1,431267.5,2024-02-03T10:00:41Z,431281.8,NULL,NA,NA,NA,NA,NA,NA,NA,sdf,NA,2,NA,NA,NA,NA,NA,NA,NA,NA,NA,NA,NA,NA,NA,NA,NA,NA,NA,NA,NA
724bb,weiter,canvas.Screen,3_0_2_1,sdf,keypress(Space),response,910.20000000001,431267.70000002,431265.1,431281.8,432192,432193.09999999,2024-02-03T10:00:42Z,432214.994,NULL,NA,NA,NA,NA,NA,NA,NA,sdf,NA,2,NA,NA,NA,NA,NA,NA,NA,NA,NA,NA,NA,NA,NA,NA,NA,NA,NA,NA,NA
724bb,check continue,flow.Sequence,3_0_2,NA,NA,completion,90405.14,341795.90000001,341786.86,341786.86,432192,432193.40000001,2024-02-03T10:00:42Z,432214.994,NULL,NA,NA,NA,NA,NA,NA,NA,sdf,NA,2,NA,NA,NA,NA,NA,NA,NA,NA,NA,NA,NA,NA,NA,NA,NA,NA,NA,NA,NA
724bb,deep,flow.Sequence,3_0_3_0_0_0,NA,NA,skipped,NA,432215.80000001,NA,NA,432192,432215.90000001,2024-02-03T10:00:42Z,432214.994,NULL,Wohlstand,mafanikio,s,chimbuko,kumbuko,mapwaji,NA,qt,NA,3,NA,NA,NA,NA,NA,NA,NA,NA,NA,NA,NA,NA,NA,NA,NA,NA,NA,NA,NA
724bb,Shallow Question,html.Page,3_0_3_0_0_1_0,NA,NA,form submission,4648.8060000119,432216,432214.994,432214.994,436863.80000001,436864,2024-02-03T10:00:47Z,436878.4,NULL,Wohlstand,mafanikio,s,chimbuko,kumbuko,mapwaji,mafanikio,NA,NA,3,NA,NA,NA,NA,NA,NA,NA,NA,NA,NA,NA,NA,NA,NA,NA,NA,NA,NA,NA
724bb,"""Richtig""-Screen",canvas.Screen,3_0_3_0_0_1_1,NA,NA,timeout,4996.7,436866.90000001,436862.1,436878.4,441858.4,441859,2024-02-03T10:00:52Z,441875.1,NULL,Wohlstand,mafanikio,s,chimbuko,kumbuko,mapwaji,NA,qt,1,3,NA,NA,NA,NA,NA,NA,NA,NA,NA,NA,NA,NA,NA,NA,NA,NA,NA,NA,NA
724bb,"""Falsch""-Screen",canvas.Screen,3_0_3_0_0_1_2,NA,NA,skipped,NA,441860.90000001,NA,NA,441858.4,441861.09999999,2024-02-03T10:00:52Z,441875.1,NULL,Wohlstand,mafanikio,s,chimbuko,kumbuko,mapwaji,NA,qt,NA,3,NA,NA,NA,NA,NA,NA,NA,NA,NA,NA,NA,NA,NA,NA,NA,NA,NA,NA,NA
724bb,shallow,flow.Sequence,3_0_3_0_0_1,NA,NA,completion,9643.406,432216,432214.994,432214.994,441858.4,441861.09999999,2024-02-03T10:00:52Z,441875.1,NULL,Wohlstand,mafanikio,s,chimbuko,kumbuko,mapwaji,NA,qt,NA,3,NA,NA,NA,NA,NA,NA,NA,NA,NA,NA,NA,NA,NA,NA,NA,NA,NA,NA,NA
724bb,task,flow.Sequence,3_0_3_0_0,NA,NA,completion,9643.406,432215.80000001,432214.994,432214.994,441858.4,441861.20000002,2024-02-03T10:00:52Z,441875.1,NULL,Wohlstand,mafanikio,s,chimbuko,kumbuko,mapwaji,NA,qt,NA,3,NA,NA,NA,NA,NA,NA,NA,NA,NA,NA,NA,NA,NA,NA,NA,NA,NA,NA,NA
724bb,deep,flow.Sequence,3_0_3_0_1_0,NA,NA,skipped,NA,441861.30000001,NA,NA,441858.4,441861.30000001,2024-02-03T10:00:52Z,441875.1,NULL,Widerstand,usulubu,s,kusababisha,mwalimu,mwenendo,NA,qt,NA,3,NA,NA,NA,NA,NA,NA,NA,NA,NA,NA,NA,NA,NA,NA,NA,NA,NA,NA,NA
724bb,Shallow Question,html.Page,3_0_3_0_1_1_0,NA,NA,form submission,3838.6000000179,441861.40000001,441858.4,441875.1,445713.70000002,445714,2024-02-03T10:00:55Z,445723,NULL,Widerstand,usulubu,s,kusababisha,mwalimu,mwenendo,usulubu,NA,NA,3,NA,NA,NA,NA,NA,NA,NA,NA,NA,NA,NA,NA,NA,NA,NA,NA,NA,NA,NA
724bb,"""Richtig""-Screen",canvas.Screen,3_0_3_0_1_1_1,NA,NA,timeout,4997,445717,445706.696,445723,450703.5,450704.30000001,2024-02-03T10:01:00Z,450720,NULL,Widerstand,usulubu,s,kusababisha,mwalimu,mwenendo,NA,qt,1,3,NA,NA,NA,NA,NA,NA,NA,NA,NA,NA,NA,NA,NA,NA,NA,NA,NA,NA,NA
724bb,"""Falsch""-Screen",canvas.Screen,3_0_3_0_1_1_2,NA,NA,skipped,NA,450707.80000001,NA,NA,450703.5,450708,2024-02-03T10:01:00Z,450720,NULL,Widerstand,usulubu,s,kusababisha,mwalimu,mwenendo,NA,qt,NA,3,NA,NA,NA,NA,NA,NA,NA,NA,NA,NA,NA,NA,NA,NA,NA,NA,NA,NA,NA
724bb,shallow,flow.Sequence,3_0_3_0_1_1,NA,NA,completion,8828.4,441861.40000001,441858.4,441875.1,450703.5,450708.30000001,2024-02-03T10:01:00Z,450720,NULL,Widerstand,usulubu,s,kusababisha,mwalimu,mwenendo,NA,qt,NA,3,NA,NA,NA,NA,NA,NA,NA,NA,NA,NA,NA,NA,NA,NA,NA,NA,NA,NA,NA
724bb,task,flow.Sequence,3_0_3_0_1,NA,NA,completion,8828.4,441861.30000001,441858.4,441875.1,450703.5,450708.40000001,2024-02-03T10:01:00Z,450720,NULL,Widerstand,usulubu,s,kusababisha,mwalimu,mwenendo,NA,qt,NA,3,NA,NA,NA,NA,NA,NA,NA,NA,NA,NA,NA,NA,NA,NA,NA,NA,NA,NA,NA
724bb,Deep Question,html.Page,3_0_3_0_2_0_0,NA,NA,form submission,5708.2000000179,450708.5,450703.5,450720,456428.20000002,456428.40000001,2024-02-03T10:01:06Z,456432.9,NULL,Notfall,dharura,d,NA,NA,NA,mafenka,NA,NA,3,NA,NA,NA,NA,NA,NA,NA,NA,NA,NA,NA,NA,NA,NA,NA,NA,NA,NA,NA
724bb,"""Richtig""-Screen",canvas.Screen,3_0_3_0_2_0_1,NA,NA,skipped,NA,456431.40000001,NA,NA,456428.20000002,456431.59999999,2024-02-03T10:01:06Z,456432.9,NULL,Notfall,dharura,d,NA,NA,NA,NA,qt,NA,3,NA,NA,NA,NA,NA,NA,NA,NA,NA,NA,NA,NA,NA,NA,NA,NA,NA,NA,NA
724bb,"""Falsch""-Screen",canvas.Screen,3_0_3_0_2_0_2,NA,NA,timeout,4997.2,456432.5,456416.796,456432.9,461413.5,461414.59999999,2024-02-03T10:01:11Z,461430.1,NULL,Notfall,dharura,d,NA,NA,NA,NA,qt,0,3,NA,NA,NA,NA,NA,NA,NA,NA,NA,NA,NA,NA,NA,NA,NA,NA,NA,NA,NA
724bb,deep,flow.Sequence,3_0_3_0_2_0,NA,NA,completion,10693.5,450708.5,450703.5,450720,461413.5,461414.90000001,2024-02-03T10:01:11Z,461430.1,NULL,Notfall,dharura,d,NA,NA,NA,NA,qt,NA,3,NA,NA,NA,NA,NA,NA,NA,NA,NA,NA,NA,NA,NA,NA,NA,NA,NA,NA,NA
724bb,shallow,flow.Sequence,3_0_3_0_2_1,NA,NA,skipped,NA,461415.09999999,NA,NA,461413.5,461415.30000001,2024-02-03T10:01:11Z,461430.1,NULL,Notfall,dharura,d,NA,NA,NA,NA,qt,NA,3,NA,NA,NA,NA,NA,NA,NA,NA,NA,NA,NA,NA,NA,NA,NA,NA,NA,NA,NA
724bb,task,flow.Sequence,3_0_3_0_2,NA,NA,completion,10693.5,450708.5,450703.5,450720,461413.5,461415.5,2024-02-03T10:01:11Z,461430.1,NULL,Notfall,dharura,d,NA,NA,NA,NA,qt,NA,3,NA,NA,NA,NA,NA,NA,NA,NA,NA,NA,NA,NA,NA,NA,NA,NA,NA,NA,NA
724bb,Deep Question,html.Page,3_0_3_0_3_0_0,NA,NA,form submission,6505.4,461415.80000001,461413.5,461430.1,467935.5,467935.70000002,2024-02-03T10:01:18Z,467942.4,NULL,Ausschluss,kutengwa,d,NA,NA,NA,usulubu,NA,NA,3,NA,NA,NA,NA,NA,NA,NA,NA,NA,NA,NA,NA,NA,NA,NA,NA,NA,NA,NA
724bb,"""Richtig""-Screen",canvas.Screen,3_0_3_0_3_0_1,NA,NA,skipped,NA,467938.90000001,NA,NA,467935.5,467939.09999999,2024-02-03T10:01:18Z,467942.4,NULL,Ausschluss,kutengwa,d,NA,NA,NA,NA,qt,NA,3,NA,NA,NA,NA,NA,NA,NA,NA,NA,NA,NA,NA,NA,NA,NA,NA,NA,NA,NA
724bb,"""Falsch""-Screen",canvas.Screen,3_0_3_0_3_0_2,NA,NA,timeout,4997.3,467939.90000001,467926.456,467942.4,472923.2,472924.20000002,2024-02-03T10:01:23Z,472939.7,NULL,Ausschluss,kutengwa,d,NA,NA,NA,NA,qt,0,3,NA,NA,NA,NA,NA,NA,NA,NA,NA,NA,NA,NA,NA,NA,NA,NA,NA,NA,NA
724bb,deep,flow.Sequence,3_0_3_0_3_0,NA,NA,completion,11493.1,461415.70000002,461413.5,461430.1,472923.2,472924.59999999,2024-02-03T10:01:23Z,472939.7,NULL,Ausschluss,kutengwa,d,NA,NA,NA,NA,qt,NA,3,NA,NA,NA,NA,NA,NA,NA,NA,NA,NA,NA,NA,NA,NA,NA,NA,NA,NA,NA
724bb,shallow,flow.Sequence,3_0_3_0_3_1,NA,NA,skipped,NA,472924.80000001,NA,NA,472923.2,472924.90000001,2024-02-03T10:01:23Z,472939.7,NULL,Ausschluss,kutengwa,d,NA,NA,NA,NA,qt,NA,3,NA,NA,NA,NA,NA,NA,NA,NA,NA,NA,NA,NA,NA,NA,NA,NA,NA,NA,NA
724bb,task,flow.Sequence,3_0_3_0_3,NA,NA,completion,11493.1,461415.59999999,461413.5,461430.1,472923.2,472925.09999999,2024-02-03T10:01:23Z,472939.7,NULL,Ausschluss,kutengwa,d,NA,NA,NA,NA,qt,NA,3,NA,NA,NA,NA,NA,NA,NA,NA,NA,NA,NA,NA,NA,NA,NA,NA,NA,NA,NA
724bb,Deep Question,html.Page,3_0_3_0_4_0_0,NA,NA,form submission,4546.3,472925.40000001,472923.2,472939.7,477486,477486.30000001,2024-02-03T10:01:27Z,477487.228,NULL,Gelegenheit,wakati,d,NA,NA,NA,usulu,NA,NA,3,NA,NA,NA,NA,NA,NA,NA,NA,NA,NA,NA,NA,NA,NA,NA,NA,NA,NA,NA
724bb,"""Richtig""-Screen",canvas.Screen,3_0_3_0_4_0_1,NA,NA,skipped,NA,477489.5,NA,NA,477486,477489.70000002,2024-02-03T10:01:27Z,477487.228,NULL,Gelegenheit,wakati,d,NA,NA,NA,NA,qt,NA,3,NA,NA,NA,NA,NA,NA,NA,NA,NA,NA,NA,NA,NA,NA,NA,NA,NA,NA,NA
724bb,"""Falsch""-Screen",canvas.Screen,3_0_3_0_4_0_2,NA,NA,timeout,4996.972,477490.20000002,477487.228,477487.228,482467,482468.20000002,2024-02-03T10:01:32Z,482484.2,NULL,Gelegenheit,wakati,d,NA,NA,NA,NA,qt,0,3,NA,NA,NA,NA,NA,NA,NA,NA,NA,NA,NA,NA,NA,NA,NA,NA,NA,NA,NA
724bb,deep,flow.Sequence,3_0_3_0_4_0,NA,NA,completion,9527.3,472925.40000001,472923.2,472939.7,482467,482468.70000002,2024-02-03T10:01:32Z,482484.2,NULL,Gelegenheit,wakati,d,NA,NA,NA,NA,qt,NA,3,NA,NA,NA,NA,NA,NA,NA,NA,NA,NA,NA,NA,NA,NA,NA,NA,NA,NA,NA
724bb,shallow,flow.Sequence,3_0_3_0_4_1,NA,NA,skipped,NA,482468.80000001,NA,NA,482467,482469,2024-02-03T10:01:32Z,482484.2,NULL,Gelegenheit,wakati,d,NA,NA,NA,NA,qt,NA,3,NA,NA,NA,NA,NA,NA,NA,NA,NA,NA,NA,NA,NA,NA,NA,NA,NA,NA,NA
724bb,task,flow.Sequence,3_0_3_0_4,NA,NA,completion,9527.3,472925.30000001,472923.2,472939.7,482467,482469.30000001,2024-02-03T10:01:32Z,482484.2,NULL,Gelegenheit,wakati,d,NA,NA,NA,NA,qt,NA,3,NA,NA,NA,NA,NA,NA,NA,NA,NA,NA,NA,NA,NA,NA,NA,NA,NA,NA,NA
724bb,deep,flow.Sequence,3_0_3_0_5_0,NA,NA,skipped,NA,482469.5,NA,NA,482467,482469.59999999,2024-02-03T10:01:32Z,482484.2,NULL,Ergänzung,kijalizo,s,ulaghai,mustarehe,matangazo,NA,qt,NA,3,NA,NA,NA,NA,NA,NA,NA,NA,NA,NA,NA,NA,NA,NA,NA,NA,NA,NA,NA
724bb,Shallow Question,html.Page,3_0_3_0_5_1_0,NA,NA,form submission,8829.6000000119,482469.80000001,482467,482484.2,491313.80000001,491314.09999999,2024-02-03T10:01:41Z,491328.7,NULL,Ergänzung,kijalizo,s,ulaghai,mustarehe,matangazo,ulaghai,NA,NA,3,NA,NA,NA,NA,NA,NA,NA,NA,NA,NA,NA,NA,NA,NA,NA,NA,NA,NA,NA
724bb,"""Richtig""-Screen",canvas.Screen,3_0_3_0_5_1_1,NA,NA,skipped,NA,491317.20000002,NA,NA,491313.80000001,491317.40000001,2024-02-03T10:01:41Z,491328.7,NULL,Ergänzung,kijalizo,s,ulaghai,mustarehe,matangazo,NA,qt,NA,3,NA,NA,NA,NA,NA,NA,NA,NA,NA,NA,NA,NA,NA,NA,NA,NA,NA,NA,NA
724bb,"""Falsch""-Screen",canvas.Screen,3_0_3_0_5_1_2,NA,NA,timeout,4997,491318,491312.064,491328.7,496308.8,496309.90000001,2024-02-03T10:01:46Z,496325.7,NULL,Ergänzung,kijalizo,s,ulaghai,mustarehe,matangazo,NA,qt,0,3,NA,NA,NA,NA,NA,NA,NA,NA,NA,NA,NA,NA,NA,NA,NA,NA,NA,NA,NA
724bb,shallow,flow.Sequence,3_0_3_0_5_1,NA,NA,completion,13824.6,482469.70000002,482467,482484.2,496308.8,496310.20000002,2024-02-03T10:01:46Z,496325.7,NULL,Ergänzung,kijalizo,s,ulaghai,mustarehe,matangazo,NA,qt,NA,3,NA,NA,NA,NA,NA,NA,NA,NA,NA,NA,NA,NA,NA,NA,NA,NA,NA,NA,NA
724bb,task,flow.Sequence,3_0_3_0_5,NA,NA,completion,13824.6,482469.5,482467,482484.2,496308.8,496310.5,2024-02-03T10:01:46Z,496325.7,NULL,Ergänzung,kijalizo,s,ulaghai,mustarehe,matangazo,NA,qt,NA,3,NA,NA,NA,NA,NA,NA,NA,NA,NA,NA,NA,NA,NA,NA,NA,NA,NA,NA,NA
724bb,Deep Question,html.Page,3_0_3_0_6_0_0,NA,NA,form submission,6360.8,496310.70000002,496308.8,496325.7,502686.5,502686.70000002,2024-02-03T10:01:52Z,502688.364,NULL,Vergnügen,kichekesho,d,NA,NA,NA,kechuenga,NA,NA,3,NA,NA,NA,NA,NA,NA,NA,NA,NA,NA,NA,NA,NA,NA,NA,NA,NA,NA,NA
724bb,"""Richtig""-Screen",canvas.Screen,3_0_3_0_6_0_1,NA,NA,skipped,NA,502688.40000001,NA,NA,502686.5,502688.5,2024-02-03T10:01:52Z,502688.364,NULL,Vergnügen,kichekesho,d,NA,NA,NA,NA,qt,NA,3,NA,NA,NA,NA,NA,NA,NA,NA,NA,NA,NA,NA,NA,NA,NA,NA,NA,NA,NA
724bb,"""Falsch""-Screen",canvas.Screen,3_0_3_0_6_0_2,NA,NA,timeout,4996.936,502688.90000001,502688.364,502688.364,507668.6,507669.40000001,2024-02-03T10:01:57Z,507685.3,NULL,Vergnügen,kichekesho,d,NA,NA,NA,NA,qt,0,3,NA,NA,NA,NA,NA,NA,NA,NA,NA,NA,NA,NA,NA,NA,NA,NA,NA,NA,NA
724bb,deep,flow.Sequence,3_0_3_0_6_0,NA,NA,completion,11342.9,496310.70000002,496308.8,496325.7,507668.6,507669.80000001,2024-02-03T10:01:57Z,507685.3,NULL,Vergnügen,kichekesho,d,NA,NA,NA,NA,qt,NA,3,NA,NA,NA,NA,NA,NA,NA,NA,NA,NA,NA,NA,NA,NA,NA,NA,NA,NA,NA
724bb,shallow,flow.Sequence,3_0_3_0_6_1,NA,NA,skipped,NA,507669.90000001,NA,NA,507668.6,507670.09999999,2024-02-03T10:01:57Z,507685.3,NULL,Vergnügen,kichekesho,d,NA,NA,NA,NA,qt,NA,3,NA,NA,NA,NA,NA,NA,NA,NA,NA,NA,NA,NA,NA,NA,NA,NA,NA,NA,NA
724bb,task,flow.Sequence,3_0_3_0_6,NA,NA,completion,11342.9,496310.70000002,496308.8,496325.7,507668.6,507670.30000001,2024-02-03T10:01:57Z,507685.3,NULL,Vergnügen,kichekesho,d,NA,NA,NA,NA,qt,NA,3,NA,NA,NA,NA,NA,NA,NA,NA,NA,NA,NA,NA,NA,NA,NA,NA,NA,NA,NA
724bb,deep,flow.Sequence,3_0_3_0_7_0,NA,NA,skipped,NA,507670.40000001,NA,NA,507668.6,507670.5,2024-02-03T10:01:57Z,507685.3,NULL,Verstand,ufahamivu,s,shakawa,hadhari,mhandisi,NA,qt,NA,3,NA,NA,NA,NA,NA,NA,NA,NA,NA,NA,NA,NA,NA,NA,NA,NA,NA,NA,NA
724bb,Shallow Question,html.Page,3_0_3_0_7_1_0,NA,NA,form submission,11402.100000006,507670.59999999,507668.6,507685.3,519087.40000001,519087.70000002,2024-02-03T10:02:09Z,519094.5,NULL,Verstand,ufahamivu,s,shakawa,hadhari,mhandisi,ufahamivu,NA,NA,3,NA,NA,NA,NA,NA,NA,NA,NA,NA,NA,NA,NA,NA,NA,NA,NA,NA,NA,NA
724bb,"""Richtig""-Screen",canvas.Screen,3_0_3_0_7_1_1,NA,NA,timeout,4997.4,519090.80000001,519078.496,519094.5,524075.2,524076.30000001,2024-02-03T10:02:14Z,524091.9,NULL,Verstand,ufahamivu,s,shakawa,hadhari,mhandisi,NA,qt,1,3,NA,NA,NA,NA,NA,NA,NA,NA,NA,NA,NA,NA,NA,NA,NA,NA,NA,NA,NA
724bb,"""Falsch""-Screen",canvas.Screen,3_0_3_0_7_1_2,NA,NA,skipped,NA,524081.30000001,NA,NA,524075.2,524081.40000001,2024-02-03T10:02:14Z,524091.9,NULL,Verstand,ufahamivu,s,shakawa,hadhari,mhandisi,NA,qt,NA,3,NA,NA,NA,NA,NA,NA,NA,NA,NA,NA,NA,NA,NA,NA,NA,NA,NA,NA,NA
724bb,shallow,flow.Sequence,3_0_3_0_7_1,NA,NA,completion,16389.9,507670.59999999,507668.6,507685.3,524075.2,524081.5,2024-02-03T10:02:14Z,524091.9,NULL,Verstand,ufahamivu,s,shakawa,hadhari,mhandisi,NA,qt,NA,3,NA,NA,NA,NA,NA,NA,NA,NA,NA,NA,NA,NA,NA,NA,NA,NA,NA,NA,NA
724bb,task,flow.Sequence,3_0_3_0_7,NA,NA,completion,16389.9,507670.30000001,507668.6,507685.3,524075.2,524081.59999999,2024-02-03T10:02:14Z,524091.9,NULL,Verstand,ufahamivu,s,shakawa,hadhari,mhandisi,NA,qt,NA,3,NA,NA,NA,NA,NA,NA,NA,NA,NA,NA,NA,NA,NA,NA,NA,NA,NA,NA,NA
724bb,block,flow.Loop,3_0_3_0,NA,NA,completion,91860.206,432215.80000001,432214.994,432214.994,524075.2,524081.70000002,2024-02-03T10:02:14Z,524091.9,NULL,NA,NA,NA,NA,NA,NA,NA,qt,NA,3,NA,NA,NA,NA,NA,NA,NA,NA,NA,NA,NA,NA,NA,NA,NA,NA,NA,NA,NA
724bb,weiter,canvas.Screen,3_0_3_1,sdf,keypress(Space),response,828.9000000119,524081.70000002,524075.2,524091.9,524920.80000001,524921.90000001,2024-02-03T10:02:15Z,524941.362,NULL,NA,NA,NA,NA,NA,NA,NA,qt,NA,3,NA,NA,NA,NA,NA,NA,NA,NA,NA,NA,NA,NA,NA,NA,NA,NA,NA,NA,NA
724bb,check continue,flow.Sequence,3_0_3,NA,NA,completion,92705.806000012,432215.80000001,432214.994,432214.994,524920.80000001,524922.30000000994,2024-02-03T10:02:15Z,524941.362,NULL,NA,NA,NA,NA,NA,NA,NA,qt,NA,3,NA,NA,NA,NA,NA,NA,NA,NA,NA,NA,NA,NA,NA,NA,NA,NA,NA,NA,NA
724bb,Deep Question,html.Page,3_0_4_0_0_0_0,NA,NA,form submission,6934.7379999941,524947.59999999,524941.362,524941.362,531876.09999999,531876.40000001,2024-02-03T10:02:22Z,531886.7,NULL,Gelegenheit,wakati,d,NA,NA,NA,katwanka,NA,NA,4,NA,NA,NA,NA,NA,NA,NA,NA,NA,NA,NA,NA,NA,NA,NA,NA,NA,NA,NA
724bb,"""Richtig""-Screen",canvas.Screen,3_0_4_0_0_0_1,NA,NA,skipped,NA,531879.40000001,NA,NA,531876.09999999,531879.59999999,2024-02-03T10:02:22Z,531886.7,NULL,Gelegenheit,wakati,d,NA,NA,NA,NA,sd,NA,4,NA,NA,NA,NA,NA,NA,NA,NA,NA,NA,NA,NA,NA,NA,NA,NA,NA,NA,NA
724bb,"""Falsch""-Screen",canvas.Screen,3_0_4_0_0_0_2,NA,NA,timeout,4997.4,531880.40000001,531870.682,531886.7,536867.3,536868.40000001,2024-02-03T10:02:27Z,536884.1,NULL,Gelegenheit,wakati,d,NA,NA,NA,NA,sd,0,4,NA,NA,NA,NA,NA,NA,NA,NA,NA,NA,NA,NA,NA,NA,NA,NA,NA,NA,NA
724bb,deep,flow.Sequence,3_0_4_0_0_0,NA,NA,completion,11925.938,524947.59999999,524941.362,524941.362,536867.3,536868.80000001,2024-02-03T10:02:27Z,536884.1,NULL,Gelegenheit,wakati,d,NA,NA,NA,NA,sd,NA,4,NA,NA,NA,NA,NA,NA,NA,NA,NA,NA,NA,NA,NA,NA,NA,NA,NA,NA,NA
724bb,shallow,flow.Sequence,3_0_4_0_0_1,NA,NA,skipped,NA,536868.90000001,NA,NA,536867.3,536869.09999999,2024-02-03T10:02:27Z,536884.1,NULL,Gelegenheit,wakati,d,NA,NA,NA,NA,sd,NA,4,NA,NA,NA,NA,NA,NA,NA,NA,NA,NA,NA,NA,NA,NA,NA,NA,NA,NA,NA
724bb,task,flow.Sequence,3_0_4_0_0,NA,NA,completion,11925.938,524947.59999999,524941.362,524941.362,536867.3,536869.30000001,2024-02-03T10:02:27Z,536884.1,NULL,Gelegenheit,wakati,d,NA,NA,NA,NA,sd,NA,4,NA,NA,NA,NA,NA,NA,NA,NA,NA,NA,NA,NA,NA,NA,NA,NA,NA,NA,NA
724bb,Deep Question,html.Page,3_0_4_0_1_0_0,NA,NA,form submission,8991.9,536869.5,536867.3,536884.1,545876,545876.09999999,2024-02-03T10:02:36Z,545878.788,NULL,Ausschluss,kutengwa,d,NA,NA,NA,kechenka,NA,NA,4,NA,NA,NA,NA,NA,NA,NA,NA,NA,NA,NA,NA,NA,NA,NA,NA,NA,NA,NA
724bb,"""Richtig""-Screen",canvas.Screen,3_0_4_0_1_0_1,NA,NA,skipped,NA,545878.09999999,NA,NA,545876,545878.20000002,2024-02-03T10:02:36Z,545878.788,NULL,Ausschluss,kutengwa,d,NA,NA,NA,NA,sd,NA,4,NA,NA,NA,NA,NA,NA,NA,NA,NA,NA,NA,NA,NA,NA,NA,NA,NA,NA,NA
724bb,"""Falsch""-Screen",canvas.Screen,3_0_4_0_1_0_2,NA,NA,timeout,4996.312,545878.59999999,545878.788,545878.788,550858.8,550860.20000002,2024-02-03T10:02:41Z,550875.1,NULL,Ausschluss,kutengwa,d,NA,NA,NA,NA,sd,0,4,NA,NA,NA,NA,NA,NA,NA,NA,NA,NA,NA,NA,NA,NA,NA,NA,NA,NA,NA
724bb,deep,flow.Sequence,3_0_4_0_1_0,NA,NA,completion,13974.7,536869.5,536867.3,536884.1,550858.8,550860.80000001,2024-02-03T10:02:41Z,550875.1,NULL,Ausschluss,kutengwa,d,NA,NA,NA,NA,sd,NA,4,NA,NA,NA,NA,NA,NA,NA,NA,NA,NA,NA,NA,NA,NA,NA,NA,NA,NA,NA
724bb,shallow,flow.Sequence,3_0_4_0_1_1,NA,NA,skipped,NA,550861,NA,NA,550858.8,550861.20000002,2024-02-03T10:02:41Z,550875.1,NULL,Ausschluss,kutengwa,d,NA,NA,NA,NA,sd,NA,4,NA,NA,NA,NA,NA,NA,NA,NA,NA,NA,NA,NA,NA,NA,NA,NA,NA,NA,NA
724bb,task,flow.Sequence,3_0_4_0_1,NA,NA,completion,13974.7,536869.5,536867.3,536884.1,550858.8,550861.59999999,2024-02-03T10:02:41Z,550875.1,NULL,Ausschluss,kutengwa,d,NA,NA,NA,NA,sd,NA,4,NA,NA,NA,NA,NA,NA,NA,NA,NA,NA,NA,NA,NA,NA,NA,NA,NA,NA,NA
724bb,deep,flow.Sequence,3_0_4_0_2_0,NA,NA,skipped,NA,550862,NA,NA,550858.8,550862.09999999,2024-02-03T10:02:41Z,550875.1,NULL,Wohlstand,mafanikio,s,chimbuko,kumbuko,mapwaji,NA,sd,NA,4,NA,NA,NA,NA,NA,NA,NA,NA,NA,NA,NA,NA,NA,NA,NA,NA,NA,NA,NA
724bb,Shallow Question,html.Page,3_0_4_0_2_1_0,NA,NA,form submission,3741.9,550862.20000002,550858.8,550875.1,554617,554617.30000001,2024-02-03T10:02:44Z,554622.8,NULL,Wohlstand,mafanikio,s,chimbuko,kumbuko,mapwaji,mafanikio,NA,NA,4,NA,NA,NA,NA,NA,NA,NA,NA,NA,NA,NA,NA,NA,NA,NA,NA,NA,NA,NA
724bb,"""Richtig""-Screen",canvas.Screen,3_0_4_0_2_1_1,NA,NA,timeout,4997.3999999999,554620.20000002,554606.7,554622.8,559603.4,559604.30000001,2024-02-03T10:02:49Z,559620.2,NULL,Wohlstand,mafanikio,s,chimbuko,kumbuko,mapwaji,NA,sd,1,4,NA,NA,NA,NA,NA,NA,NA,NA,NA,NA,NA,NA,NA,NA,NA,NA,NA,NA,NA
724bb,"""Falsch""-Screen",canvas.Screen,3_0_4_0_2_1_2,NA,NA,skipped,NA,559609.09999999,NA,NA,559603.4,559609.40000001,2024-02-03T10:02:49Z,559620.2,NULL,Wohlstand,mafanikio,s,chimbuko,kumbuko,mapwaji,NA,sd,NA,4,NA,NA,NA,NA,NA,NA,NA,NA,NA,NA,NA,NA,NA,NA,NA,NA,NA,NA,NA
724bb,shallow,flow.Sequence,3_0_4_0_2_1,NA,NA,completion,8728.3,550862.20000002,550858.8,550875.1,559603.4,559609.59999999,2024-02-03T10:02:49Z,559620.2,NULL,Wohlstand,mafanikio,s,chimbuko,kumbuko,mapwaji,NA,sd,NA,4,NA,NA,NA,NA,NA,NA,NA,NA,NA,NA,NA,NA,NA,NA,NA,NA,NA,NA,NA
724bb,task,flow.Sequence,3_0_4_0_2,NA,NA,completion,8728.3,550861.80000000994,550858.8,550875.1,559603.4,559609.70000002,2024-02-03T10:02:49Z,559620.2,NULL,Wohlstand,mafanikio,s,chimbuko,kumbuko,mapwaji,NA,sd,NA,4,NA,NA,NA,NA,NA,NA,NA,NA,NA,NA,NA,NA,NA,NA,NA,NA,NA,NA,NA
724bb,deep,flow.Sequence,3_0_4_0_3_0,NA,NA,skipped,NA,559609.70000002,NA,NA,559603.4,559609.70000002,2024-02-03T10:02:49Z,559620.2,NULL,Verstand,ufahamivu,s,shakawa,hadhari,mhandisi,NA,sd,NA,4,NA,NA,NA,NA,NA,NA,NA,NA,NA,NA,NA,NA,NA,NA,NA,NA,NA,NA,NA
724bb,Shallow Question,html.Page,3_0_4_0_3_1_0,NA,NA,form submission,6721.600000012,559609.80000000994,559603.4,559620.2,566341.80000000994,566341.90000001,2024-02-03T10:02:56Z,566348.9,NULL,Verstand,ufahamivu,s,shakawa,hadhari,mhandisi,ufahamivu,NA,NA,4,NA,NA,NA,NA,NA,NA,NA,NA,NA,NA,NA,NA,NA,NA,NA,NA,NA,NA,NA
724bb,"""Richtig""-Screen",canvas.Screen,3_0_4_0_3_1_1,NA,NA,timeout,4997,566344.80000001,566332.962,566348.9,571329.2,571329.80000000994,2024-02-03T10:03:01Z,571345.9,NULL,Verstand,ufahamivu,s,shakawa,hadhari,mhandisi,NA,sd,1,4,NA,NA,NA,NA,NA,NA,NA,NA,NA,NA,NA,NA,NA,NA,NA,NA,NA,NA,NA
724bb,"""Falsch""-Screen",canvas.Screen,3_0_4_0_3_1_2,NA,NA,skipped,NA,571331.30000001,NA,NA,571329.2,571331.40000001,2024-02-03T10:03:01Z,571345.9,NULL,Verstand,ufahamivu,s,shakawa,hadhari,mhandisi,NA,sd,NA,4,NA,NA,NA,NA,NA,NA,NA,NA,NA,NA,NA,NA,NA,NA,NA,NA,NA,NA,NA
724bb,shallow,flow.Sequence,3_0_4_0_3_1,NA,NA,completion,11709,559609.80000000994,559603.4,559620.2,571329.2,571331.40000001,2024-02-03T10:03:01Z,571345.9,NULL,Verstand,ufahamivu,s,shakawa,hadhari,mhandisi,NA,sd,NA,4,NA,NA,NA,NA,NA,NA,NA,NA,NA,NA,NA,NA,NA,NA,NA,NA,NA,NA,NA
724bb,task,flow.Sequence,3_0_4_0_3,NA,NA,completion,11709,559609.70000002,559603.4,559620.2,571329.2,571331.5,2024-02-03T10:03:01Z,571345.9,NULL,Verstand,ufahamivu,s,shakawa,hadhari,mhandisi,NA,sd,NA,4,NA,NA,NA,NA,NA,NA,NA,NA,NA,NA,NA,NA,NA,NA,NA,NA,NA,NA,NA
724bb,deep,flow.Sequence,3_0_4_0_4_0,NA,NA,skipped,NA,571331.59999999,NA,NA,571329.2,571331.59999999,2024-02-03T10:03:01Z,571345.9,NULL,Ergänzung,kijalizo,s,ulaghai,mustarehe,matangazo,NA,sd,NA,4,NA,NA,NA,NA,NA,NA,NA,NA,NA,NA,NA,NA,NA,NA,NA,NA,NA,NA,NA
724bb,Shallow Question,html.Page,3_0_4_0_4_1_0,NA,NA,form submission,5775.1,571331.70000002,571329.2,571345.9,577121,577121.20000002,2024-02-03T10:03:07Z,577142.9,NULL,Ergänzung,kijalizo,s,ulaghai,mustarehe,matangazo,kijalizo,NA,NA,4,NA,NA,NA,NA,NA,NA,NA,NA,NA,NA,NA,NA,NA,NA,NA,NA,NA,NA,NA
724bb,"""Richtig""-Screen",canvas.Screen,3_0_4_0_4_1_1,NA,NA,timeout,4996.4,577122.90000001,577125.8,577142.9,582123.3,582123.80000000994,2024-02-03T10:03:12Z,582139.3,NULL,Ergänzung,kijalizo,s,ulaghai,mustarehe,matangazo,NA,sd,1,4,NA,NA,NA,NA,NA,NA,NA,NA,NA,NA,NA,NA,NA,NA,NA,NA,NA,NA,NA
724bb,"""Falsch""-Screen",canvas.Screen,3_0_4_0_4_1_2,NA,NA,skipped,NA,582125.30000001,NA,NA,582123.3,582125.40000001,2024-02-03T10:03:12Z,582139.3,NULL,Ergänzung,kijalizo,s,ulaghai,mustarehe,matangazo,NA,sd,NA,4,NA,NA,NA,NA,NA,NA,NA,NA,NA,NA,NA,NA,NA,NA,NA,NA,NA,NA,NA
724bb,shallow,flow.Sequence,3_0_4_0_4_1,NA,NA,completion,10777.4,571331.70000002,571329.2,571345.9,582123.3,582125.5,2024-02-03T10:03:12Z,582139.3,NULL,Ergänzung,kijalizo,s,ulaghai,mustarehe,matangazo,NA,sd,NA,4,NA,NA,NA,NA,NA,NA,NA,NA,NA,NA,NA,NA,NA,NA,NA,NA,NA,NA,NA
724bb,task,flow.Sequence,3_0_4_0_4,NA,NA,completion,10777.4,571331.5,571329.2,571345.9,582123.3,582125.5,2024-02-03T10:03:12Z,582139.3,NULL,Ergänzung,kijalizo,s,ulaghai,mustarehe,matangazo,NA,sd,NA,4,NA,NA,NA,NA,NA,NA,NA,NA,NA,NA,NA,NA,NA,NA,NA,NA,NA,NA,NA
724bb,Deep Question,html.Page,3_0_4_0_5_0_0,NA,NA,form submission,7239.6000000059,582125.70000002,582123.3,582139.3,589378.90000001,589379.09999999,2024-02-03T10:03:19Z,589384.8,NULL,Vergnügen,kichekesho,d,NA,NA,NA,kechuengka,NA,NA,4,NA,NA,NA,NA,NA,NA,NA,NA,NA,NA,NA,NA,NA,NA,NA,NA,NA,NA,NA
724bb,"""Richtig""-Screen",canvas.Screen,3_0_4_0_5_0_1,NA,NA,skipped,NA,589381.80000000994,NA,NA,589378.90000001,589382,2024-02-03T10:03:19Z,589384.8,NULL,Vergnügen,kichekesho,d,NA,NA,NA,NA,sd,NA,4,NA,NA,NA,NA,NA,NA,NA,NA,NA,NA,NA,NA,NA,NA,NA,NA,NA,NA,NA
724bb,"""Falsch""-Screen",canvas.Screen,3_0_4_0_5_0_2,NA,NA,timeout,4997.5,589382.70000002,589368.922,589384.8,594365.4,594366.59999999,2024-02-03T10:03:24Z,594382.3,NULL,Vergnügen,kichekesho,d,NA,NA,NA,NA,sd,0,4,NA,NA,NA,NA,NA,NA,NA,NA,NA,NA,NA,NA,NA,NA,NA,NA,NA,NA,NA
724bb,deep,flow.Sequence,3_0_4_0_5_0,NA,NA,completion,12226.1,582125.70000002,582123.3,582139.3,594365.4,594366.90000001,2024-02-03T10:03:24Z,594382.3,NULL,Vergnügen,kichekesho,d,NA,NA,NA,NA,sd,NA,4,NA,NA,NA,NA,NA,NA,NA,NA,NA,NA,NA,NA,NA,NA,NA,NA,NA,NA,NA
724bb,shallow,flow.Sequence,3_0_4_0_5_1,NA,NA,skipped,NA,594367,NA,NA,594365.4,594367.30000000994,2024-02-03T10:03:24Z,594382.3,NULL,Vergnügen,kichekesho,d,NA,NA,NA,NA,sd,NA,4,NA,NA,NA,NA,NA,NA,NA,NA,NA,NA,NA,NA,NA,NA,NA,NA,NA,NA,NA
724bb,task,flow.Sequence,3_0_4_0_5,NA,NA,completion,12226.1,582125.59999999,582123.3,582139.3,594365.4,594367.5,2024-02-03T10:03:24Z,594382.3,NULL,Vergnügen,kichekesho,d,NA,NA,NA,NA,sd,NA,4,NA,NA,NA,NA,NA,NA,NA,NA,NA,NA,NA,NA,NA,NA,NA,NA,NA,NA,NA
724bb,deep,flow.Sequence,3_0_4_0_6_0,NA,NA,skipped,NA,594367.70000002,NA,NA,594365.4,594367.90000001,2024-02-03T10:03:24Z,594382.3,NULL,Widerstand,usulubu,s,kusababisha,mwalimu,mwenendo,NA,sd,NA,4,NA,NA,NA,NA,NA,NA,NA,NA,NA,NA,NA,NA,NA,NA,NA,NA,NA,NA,NA
724bb,Shallow Question,html.Page,3_0_4_0_6_1_0,NA,NA,form submission,3520.1000000059,594368,594365.4,594382.3,597902.40000001,597902.70000002,2024-02-03T10:03:28Z,597930.2,NULL,Widerstand,usulubu,s,kusababisha,mwalimu,mwenendo,usulubu,NA,NA,4,NA,NA,NA,NA,NA,NA,NA,NA,NA,NA,NA,NA,NA,NA,NA,NA,NA,NA,NA
724bb,"""Richtig""-Screen",canvas.Screen,3_0_4_0_6_1_1,NA,NA,timeout,4996.7000000001,597905.70000002,597913.686,597930.2,602910.4,602911.30000000994,2024-02-03T10:03:33Z,602926.9,NULL,Widerstand,usulubu,s,kusababisha,mwalimu,mwenendo,NA,sd,1,4,NA,NA,NA,NA,NA,NA,NA,NA,NA,NA,NA,NA,NA,NA,NA,NA,NA,NA,NA
724bb,"""Falsch""-Screen",canvas.Screen,3_0_4_0_6_1_2,NA,NA,skipped,NA,602916.20000002,NA,NA,602910.4,602916.40000001,2024-02-03T10:03:33Z,602926.9,NULL,Widerstand,usulubu,s,kusababisha,mwalimu,mwenendo,NA,sd,NA,4,NA,NA,NA,NA,NA,NA,NA,NA,NA,NA,NA,NA,NA,NA,NA,NA,NA,NA,NA
724bb,shallow,flow.Sequence,3_0_4_0_6_1,NA,NA,completion,8528.1,594367.90000001,594365.4,594382.3,602910.4,602916.70000002,2024-02-03T10:03:33Z,602926.9,NULL,Widerstand,usulubu,s,kusababisha,mwalimu,mwenendo,NA,sd,NA,4,NA,NA,NA,NA,NA,NA,NA,NA,NA,NA,NA,NA,NA,NA,NA,NA,NA,NA,NA
724bb,task,flow.Sequence,3_0_4_0_6,NA,NA,completion,8528.1,594367.59999999,594365.4,594382.3,602910.4,602916.90000001,2024-02-03T10:03:33Z,602926.9,NULL,Widerstand,usulubu,s,kusababisha,mwalimu,mwenendo,NA,sd,NA,4,NA,NA,NA,NA,NA,NA,NA,NA,NA,NA,NA,NA,NA,NA,NA,NA,NA,NA,NA
724bb,Deep Question,html.Page,3_0_4_0_7_0_0,NA,NA,form submission,5651.199999994,602917.20000002,602910.4,602926.9,608578.09999999,608578.40000001,2024-02-03T10:03:38Z,608589.8,NULL,Notfall,dharura,d,NA,NA,NA,waruawar,NA,NA,4,NA,NA,NA,NA,NA,NA,NA,NA,NA,NA,NA,NA,NA,NA,NA,NA,NA,NA,NA
724bb,"""Richtig""-Screen",canvas.Screen,3_0_4_0_7_0_1,NA,NA,skipped,NA,608581.09999999,NA,NA,608578.09999999,608581.20000002,2024-02-03T10:03:38Z,608589.8,NULL,Notfall,dharura,d,NA,NA,NA,NA,sd,NA,4,NA,NA,NA,NA,NA,NA,NA,NA,NA,NA,NA,NA,NA,NA,NA,NA,NA,NA,NA
724bb,"""Falsch""-Screen",canvas.Screen,3_0_4_0_7_0_2,NA,NA,timeout,4997.2,608581.70000002,608573.79,608589.8,613570.4,613571.40000001,2024-02-03T10:03:43Z,613587,NULL,Notfall,dharura,d,NA,NA,NA,NA,sd,0,4,NA,NA,NA,NA,NA,NA,NA,NA,NA,NA,NA,NA,NA,NA,NA,NA,NA,NA,NA
724bb,deep,flow.Sequence,3_0_4_0_7_0,NA,NA,completion,10643.5,602917.09999999,602910.4,602926.9,613570.4,613571.80000001,2024-02-03T10:03:43Z,613587,NULL,Notfall,dharura,d,NA,NA,NA,NA,sd,NA,4,NA,NA,NA,NA,NA,NA,NA,NA,NA,NA,NA,NA,NA,NA,NA,NA,NA,NA,NA
724bb,shallow,flow.Sequence,3_0_4_0_7_1,NA,NA,skipped,NA,613572,NA,NA,613570.4,613572.09999999,2024-02-03T10:03:43Z,613587,NULL,Notfall,dharura,d,NA,NA,NA,NA,sd,NA,4,NA,NA,NA,NA,NA,NA,NA,NA,NA,NA,NA,NA,NA,NA,NA,NA,NA,NA,NA
724bb,task,flow.Sequence,3_0_4_0_7,NA,NA,completion,10643.5,602917.09999999,602910.4,602926.9,613570.4,613572.40000001,2024-02-03T10:03:43Z,613587,NULL,Notfall,dharura,d,NA,NA,NA,NA,sd,NA,4,NA,NA,NA,NA,NA,NA,NA,NA,NA,NA,NA,NA,NA,NA,NA,NA,NA,NA,NA
724bb,block,flow.Loop,3_0_4_0,NA,NA,completion,88629.038,524947.59999999,524941.362,524941.362,613570.4,613572.59999999,2024-02-03T10:03:43Z,613587,NULL,NA,NA,NA,NA,NA,NA,NA,sd,NA,4,NA,NA,NA,NA,NA,NA,NA,NA,NA,NA,NA,NA,NA,NA,NA,NA,NA,NA,NA
724bb,weiter,canvas.Screen,3_0_4_1,sdf,keypress(Space),response,760.80000001192,613572.70000002,613570.4,613587,614347.80000000994,614348.59999999,2024-02-03T10:03:44Z,614370.162,NULL,NA,NA,NA,NA,NA,NA,NA,sd,NA,4,NA,NA,NA,NA,NA,NA,NA,NA,NA,NA,NA,NA,NA,NA,NA,NA,NA,NA,NA
724bb,check continue,flow.Sequence,3_0_4,NA,NA,completion,89406.438000012,524947.59999999,524941.362,524941.362,614347.80000000994,614348.80000001,2024-02-03T10:03:44Z,614370.162,NULL,NA,NA,NA,NA,NA,NA,NA,sd,NA,4,NA,NA,NA,NA,NA,NA,NA,NA,NA,NA,NA,NA,NA,NA,NA,NA,NA,NA,NA
724bb,Deep Question,html.Page,3_0_5_0_0_0_0,NA,NA,form submission,4699.6380000119,614373.09999999,614370.162,614370.162,619069.80000001,619070.09999999,2024-02-03T10:03:49Z,619083.9,NULL,Gelegenheit,wakati,d,NA,NA,NA,wakuehsa,NA,NA,5,NA,NA,NA,NA,NA,NA,NA,NA,NA,NA,NA,NA,NA,NA,NA,NA,NA,NA,NA
724bb,"""Richtig""-Screen",canvas.Screen,3_0_5_0_0_0_1,NA,NA,skipped,NA,619073.20000002,NA,NA,619069.80000001,619073.40000001,2024-02-03T10:03:49Z,619083.9,NULL,Gelegenheit,wakati,d,NA,NA,NA,NA,sdf,NA,5,NA,NA,NA,NA,NA,NA,NA,NA,NA,NA,NA,NA,NA,NA,NA,NA,NA,NA,NA
724bb,"""Falsch""-Screen",canvas.Screen,3_0_5_0_0_0_2,NA,NA,timeout,4996.9,619074.5,619067.328,619083.9,624064.2,624065.30000001,2024-02-03T10:03:54Z,624080.8,NULL,Gelegenheit,wakati,d,NA,NA,NA,NA,sdf,0,5,NA,NA,NA,NA,NA,NA,NA,NA,NA,NA,NA,NA,NA,NA,NA,NA,NA,NA,NA
724bb,deep,flow.Sequence,3_0_5_0_0_0,NA,NA,completion,9694.0379999999,614373.09999999,614370.162,614370.162,624064.2,624065.80000001,2024-02-03T10:03:54Z,624080.8,NULL,Gelegenheit,wakati,d,NA,NA,NA,NA,sdf,NA,5,NA,NA,NA,NA,NA,NA,NA,NA,NA,NA,NA,NA,NA,NA,NA,NA,NA,NA,NA
724bb,shallow,flow.Sequence,3_0_5_0_0_1,NA,NA,skipped,NA,624065.90000001,NA,NA,624064.2,624066.09999999,2024-02-03T10:03:54Z,624080.8,NULL,Gelegenheit,wakati,d,NA,NA,NA,NA,sdf,NA,5,NA,NA,NA,NA,NA,NA,NA,NA,NA,NA,NA,NA,NA,NA,NA,NA,NA,NA,NA
724bb,task,flow.Sequence,3_0_5_0_0,NA,NA,completion,9694.0379999999,614373.09999999,614370.162,614370.162,624064.2,624066.40000001,2024-02-03T10:03:54Z,624080.8,NULL,Gelegenheit,wakati,d,NA,NA,NA,NA,sdf,NA,5,NA,NA,NA,NA,NA,NA,NA,NA,NA,NA,NA,NA,NA,NA,NA,NA,NA,NA,NA
724bb,Deep Question,html.Page,3_0_5_0_1_0_0,NA,NA,form submission,6444.5000000119,624066.5,624064.2,624080.8,630525.30000000994,630525.5,2024-02-03T10:04:00Z,630526.926,NULL,Vergnügen,kichekesho,d,NA,NA,NA,kichechua,NA,NA,5,NA,NA,NA,NA,NA,NA,NA,NA,NA,NA,NA,NA,NA,NA,NA,NA,NA,NA,NA
724bb,"""Richtig""-Screen",canvas.Screen,3_0_5_0_1_0_1,NA,NA,skipped,NA,630528.70000002,NA,NA,630525.30000000994,630528.80000001,2024-02-03T10:04:00Z,630526.926,NULL,Vergnügen,kichekesho,d,NA,NA,NA,NA,sdf,NA,5,NA,NA,NA,NA,NA,NA,NA,NA,NA,NA,NA,NA,NA,NA,NA,NA,NA,NA,NA
724bb,"""Falsch""-Screen",canvas.Screen,3_0_5_0_1_0_2,NA,NA,timeout,4996.8740000001,630529.70000002,630526.926,630526.926,635506.7,635507.70000002,2024-02-03T10:04:05Z,635523.8,NULL,Vergnügen,kichekesho,d,NA,NA,NA,NA,sdf,0,5,NA,NA,NA,NA,NA,NA,NA,NA,NA,NA,NA,NA,NA,NA,NA,NA,NA,NA,NA
724bb,deep,flow.Sequence,3_0_5_0_1_0,NA,NA,completion,11425.9,624066.5,624064.2,624080.8,635506.7,635508.09999999,2024-02-03T10:04:05Z,635523.8,NULL,Vergnügen,kichekesho,d,NA,NA,NA,NA,sdf,NA,5,NA,NA,NA,NA,NA,NA,NA,NA,NA,NA,NA,NA,NA,NA,NA,NA,NA,NA,NA
724bb,shallow,flow.Sequence,3_0_5_0_1_1,NA,NA,skipped,NA,635508.30000000994,NA,NA,635506.7,635508.40000001,2024-02-03T10:04:05Z,635523.8,NULL,Vergnügen,kichekesho,d,NA,NA,NA,NA,sdf,NA,5,NA,NA,NA,NA,NA,NA,NA,NA,NA,NA,NA,NA,NA,NA,NA,NA,NA,NA,NA
724bb,task,flow.Sequence,3_0_5_0_1,NA,NA,completion,11425.9,624066.5,624064.2,624080.8,635506.7,635508.70000002,2024-02-03T10:04:05Z,635523.8,NULL,Vergnügen,kichekesho,d,NA,NA,NA,NA,sdf,NA,5,NA,NA,NA,NA,NA,NA,NA,NA,NA,NA,NA,NA,NA,NA,NA,NA,NA,NA,NA
724bb,Deep Question,html.Page,3_0_5_0_2_0_0,NA,NA,form submission,7716.4000000178,635509,635506.7,635523.8,643240.20000002,643240.30000001,2024-02-03T10:04:13Z,643252,NULL,Notfall,dharura,d,NA,NA,NA,braurau,NA,NA,5,NA,NA,NA,NA,NA,NA,NA,NA,NA,NA,NA,NA,NA,NA,NA,NA,NA,NA,NA
724bb,"""Richtig""-Screen",canvas.Screen,3_0_5_0_2_0_1,NA,NA,skipped,NA,643241.80000001,NA,NA,643240.20000002,643241.90000001,2024-02-03T10:04:13Z,643252,NULL,Notfall,dharura,d,NA,NA,NA,NA,sdf,NA,5,NA,NA,NA,NA,NA,NA,NA,NA,NA,NA,NA,NA,NA,NA,NA,NA,NA,NA,NA
724bb,"""Falsch""-Screen",canvas.Screen,3_0_5_0_2_0_2,NA,NA,timeout,4997.3,643242.40000001,643235.954,643252,648232.8,648234,2024-02-03T10:04:18Z,648249.3,NULL,Notfall,dharura,d,NA,NA,NA,NA,sdf,0,5,NA,NA,NA,NA,NA,NA,NA,NA,NA,NA,NA,NA,NA,NA,NA,NA,NA,NA,NA
724bb,deep,flow.Sequence,3_0_5_0_2_0,NA,NA,completion,12709,635508.90000001,635506.7,635523.8,648232.8,648234.5,2024-02-03T10:04:18Z,648249.3,NULL,Notfall,dharura,d,NA,NA,NA,NA,sdf,NA,5,NA,NA,NA,NA,NA,NA,NA,NA,NA,NA,NA,NA,NA,NA,NA,NA,NA,NA,NA
724bb,shallow,flow.Sequence,3_0_5_0_2_1,NA,NA,skipped,NA,648234.59999999,NA,NA,648232.8,648234.70000002,2024-02-03T10:04:18Z,648249.3,NULL,Notfall,dharura,d,NA,NA,NA,NA,sdf,NA,5,NA,NA,NA,NA,NA,NA,NA,NA,NA,NA,NA,NA,NA,NA,NA,NA,NA,NA,NA
724bb,task,flow.Sequence,3_0_5_0_2,NA,NA,completion,12709,635508.90000001,635506.7,635523.8,648232.8,648235,2024-02-03T10:04:18Z,648249.3,NULL,Notfall,dharura,d,NA,NA,NA,NA,sdf,NA,5,NA,NA,NA,NA,NA,NA,NA,NA,NA,NA,NA,NA,NA,NA,NA,NA,NA,NA,NA
724bb,deep,flow.Sequence,3_0_5_0_3_0,NA,NA,skipped,NA,648235.20000002,NA,NA,648232.8,648235.40000001,2024-02-03T10:04:18Z,648249.3,NULL,Verstand,ufahamivu,s,shakawa,hadhari,mhandisi,NA,sdf,NA,5,NA,NA,NA,NA,NA,NA,NA,NA,NA,NA,NA,NA,NA,NA,NA,NA,NA,NA,NA
724bb,Shallow Question,html.Page,3_0_5_0_3_1_0,NA,NA,form submission,5646.1000000059,648235.5,648232.8,648249.3,653895.40000001,653895.70000002,2024-02-03T10:04:24Z,653912.5,NULL,Verstand,ufahamivu,s,shakawa,hadhari,mhandisi,ufahamivu,NA,NA,5,NA,NA,NA,NA,NA,NA,NA,NA,NA,NA,NA,NA,NA,NA,NA,NA,NA,NA,NA
724bb,"""Richtig""-Screen",canvas.Screen,3_0_5_0_3_1_1,NA,NA,timeout,4996.5,653899,653895.856,653912.5,658892.9,658893.90000001,2024-02-03T10:04:29Z,658909,NULL,Verstand,ufahamivu,s,shakawa,hadhari,mhandisi,NA,sdf,1,5,NA,NA,NA,NA,NA,NA,NA,NA,NA,NA,NA,NA,NA,NA,NA,NA,NA,NA,NA
724bb,"""Falsch""-Screen",canvas.Screen,3_0_5_0_3_1_2,NA,NA,skipped,NA,658899.90000001,NA,NA,658892.9,658900.09999999,2024-02-03T10:04:29Z,658909,NULL,Verstand,ufahamivu,s,shakawa,hadhari,mhandisi,NA,sdf,NA,5,NA,NA,NA,NA,NA,NA,NA,NA,NA,NA,NA,NA,NA,NA,NA,NA,NA,NA,NA
724bb,shallow,flow.Sequence,3_0_5_0_3_1,NA,NA,completion,10643.6,648235.5,648232.8,648249.3,658892.9,658900.20000002,2024-02-03T10:04:29Z,658909,NULL,Verstand,ufahamivu,s,shakawa,hadhari,mhandisi,NA,sdf,NA,5,NA,NA,NA,NA,NA,NA,NA,NA,NA,NA,NA,NA,NA,NA,NA,NA,NA,NA,NA
724bb,task,flow.Sequence,3_0_5_0_3,NA,NA,completion,10643.6,648235.20000002,648232.8,648249.3,658892.9,658900.20000002,2024-02-03T10:04:29Z,658909,NULL,Verstand,ufahamivu,s,shakawa,hadhari,mhandisi,NA,sdf,NA,5,NA,NA,NA,NA,NA,NA,NA,NA,NA,NA,NA,NA,NA,NA,NA,NA,NA,NA,NA
724bb,Deep Question,html.Page,3_0_5_0_4_0_0,NA,NA,form submission,5090.5,658900.5,658892.9,658909,663999.5,663999.70000002,2024-02-03T10:04:34Z,664005.9,NULL,Ausschluss,kutengwa,d,NA,NA,NA,boroeh,NA,NA,5,NA,NA,NA,NA,NA,NA,NA,NA,NA,NA,NA,NA,NA,NA,NA,NA,NA,NA,NA
724bb,"""Richtig""-Screen",canvas.Screen,3_0_5_0_4_0_1,NA,NA,skipped,NA,664002.90000001,NA,NA,663999.5,664003.09999999,2024-02-03T10:04:34Z,664005.9,NULL,Ausschluss,kutengwa,d,NA,NA,NA,NA,sdf,NA,5,NA,NA,NA,NA,NA,NA,NA,NA,NA,NA,NA,NA,NA,NA,NA,NA,NA,NA,NA
724bb,"""Falsch""-Screen",canvas.Screen,3_0_5_0_4_0_2,NA,NA,timeout,4997.4,664003.90000001,663989.9,664005.9,668986.3,668987.40000001,2024-02-03T10:04:39Z,669003.3,NULL,Ausschluss,kutengwa,d,NA,NA,NA,NA,sdf,0,5,NA,NA,NA,NA,NA,NA,NA,NA,NA,NA,NA,NA,NA,NA,NA,NA,NA,NA,NA
724bb,deep,flow.Sequence,3_0_5_0_4_0,NA,NA,completion,10077.3,658900.40000001,658892.9,658909,668986.3,668987.80000001,2024-02-03T10:04:39Z,669003.3,NULL,Ausschluss,kutengwa,d,NA,NA,NA,NA,sdf,NA,5,NA,NA,NA,NA,NA,NA,NA,NA,NA,NA,NA,NA,NA,NA,NA,NA,NA,NA,NA
724bb,shallow,flow.Sequence,3_0_5_0_4_1,NA,NA,skipped,NA,668988,NA,NA,668986.3,668988.20000002,2024-02-03T10:04:39Z,669003.3,NULL,Ausschluss,kutengwa,d,NA,NA,NA,NA,sdf,NA,5,NA,NA,NA,NA,NA,NA,NA,NA,NA,NA,NA,NA,NA,NA,NA,NA,NA,NA,NA
724bb,task,flow.Sequence,3_0_5_0_4,NA,NA,completion,10077.3,658900.30000001,658892.9,658909,668986.3,668988.5,2024-02-03T10:04:39Z,669003.3,NULL,Ausschluss,kutengwa,d,NA,NA,NA,NA,sdf,NA,5,NA,NA,NA,NA,NA,NA,NA,NA,NA,NA,NA,NA,NA,NA,NA,NA,NA,NA,NA
724bb,deep,flow.Sequence,3_0_5_0_5_0,NA,NA,skipped,NA,668988.70000002,NA,NA,668986.3,668988.80000001,2024-02-03T10:04:39Z,669003.3,NULL,Wohlstand,mafanikio,s,chimbuko,kumbuko,mapwaji,NA,sdf,NA,5,NA,NA,NA,NA,NA,NA,NA,NA,NA,NA,NA,NA,NA,NA,NA,NA,NA,NA,NA
724bb,Shallow Question,html.Page,3_0_5_0_5_1_0,NA,NA,form submission,3414.6000000059,668989,668986.3,669003.3,672417.90000001,672418.20000002,2024-02-03T10:04:42Z,672434.7,NULL,Wohlstand,mafanikio,s,chimbuko,kumbuko,mapwaji,mafanikio,NA,NA,5,NA,NA,NA,NA,NA,NA,NA,NA,NA,NA,NA,NA,NA,NA,NA,NA,NA,NA,NA
724bb,"""Richtig""-Screen",canvas.Screen,3_0_5_0_5_1_1,NA,NA,timeout,4996.9,672421.5,672418.062,672434.7,677414.7,677415.80000001,2024-02-03T10:04:47Z,677431.6,NULL,Wohlstand,mafanikio,s,chimbuko,kumbuko,mapwaji,NA,sdf,1,5,NA,NA,NA,NA,NA,NA,NA,NA,NA,NA,NA,NA,NA,NA,NA,NA,NA,NA,NA
724bb,"""Falsch""-Screen",canvas.Screen,3_0_5_0_5_1_2,NA,NA,skipped,NA,677421.30000001,NA,NA,677414.7,677421.40000001,2024-02-03T10:04:47Z,677431.6,NULL,Wohlstand,mafanikio,s,chimbuko,kumbuko,mapwaji,NA,sdf,NA,5,NA,NA,NA,NA,NA,NA,NA,NA,NA,NA,NA,NA,NA,NA,NA,NA,NA,NA,NA
724bb,shallow,flow.Sequence,3_0_5_0_5_1,NA,NA,completion,8411.3999999999,668988.90000001,668986.3,669003.3,677414.7,677421.5,2024-02-03T10:04:47Z,677431.6,NULL,Wohlstand,mafanikio,s,chimbuko,kumbuko,mapwaji,NA,sdf,NA,5,NA,NA,NA,NA,NA,NA,NA,NA,NA,NA,NA,NA,NA,NA,NA,NA,NA,NA,NA
724bb,task,flow.Sequence,3_0_5_0_5,NA,NA,completion,8411.3999999999,668988.59999999,668986.3,669003.3,677414.7,677421.5,2024-02-03T10:04:47Z,677431.6,NULL,Wohlstand,mafanikio,s,chimbuko,kumbuko,mapwaji,NA,sdf,NA,5,NA,NA,NA,NA,NA,NA,NA,NA,NA,NA,NA,NA,NA,NA,NA,NA,NA,NA,NA
724bb,deep,flow.Sequence,3_0_5_0_6_0,NA,NA,skipped,NA,677421.59999999,NA,NA,677414.7,677421.70000002,2024-02-03T10:04:47Z,677431.6,NULL,Ergänzung,kijalizo,s,ulaghai,mustarehe,matangazo,NA,sdf,NA,5,NA,NA,NA,NA,NA,NA,NA,NA,NA,NA,NA,NA,NA,NA,NA,NA,NA,NA,NA
724bb,Shallow Question,html.Page,3_0_5_0_6_1_0,NA,NA,form submission,4575.2000000119,677421.70000002,677414.7,677431.6,682006.80000001,682007,2024-02-03T10:04:52Z,682011.6,NULL,Ergänzung,kijalizo,s,ulaghai,mustarehe,matangazo,kijalizo,NA,NA,5,NA,NA,NA,NA,NA,NA,NA,NA,NA,NA,NA,NA,NA,NA,NA,NA,NA,NA,NA
724bb,"""Richtig""-Screen",canvas.Screen,3_0_5_0_6_1_1,NA,NA,timeout,4997.4,682008.59999999,681995.494,682011.6,686992.3,686993.30000000994,2024-02-03T10:04:57Z,687009,NULL,Ergänzung,kijalizo,s,ulaghai,mustarehe,matangazo,NA,sdf,1,5,NA,NA,NA,NA,NA,NA,NA,NA,NA,NA,NA,NA,NA,NA,NA,NA,NA,NA,NA
724bb,"""Falsch""-Screen",canvas.Screen,3_0_5_0_6_1_2,NA,NA,skipped,NA,686998.20000002,NA,NA,686992.3,686998.20000002,2024-02-03T10:04:57Z,687009,NULL,Ergänzung,kijalizo,s,ulaghai,mustarehe,matangazo,NA,sdf,NA,5,NA,NA,NA,NA,NA,NA,NA,NA,NA,NA,NA,NA,NA,NA,NA,NA,NA,NA,NA
724bb,shallow,flow.Sequence,3_0_5_0_6_1,NA,NA,completion,9560.7000000001,677421.70000002,677414.7,677431.6,686992.3,686998.30000000994,2024-02-03T10:04:57Z,687009,NULL,Ergänzung,kijalizo,s,ulaghai,mustarehe,matangazo,NA,sdf,NA,5,NA,NA,NA,NA,NA,NA,NA,NA,NA,NA,NA,NA,NA,NA,NA,NA,NA,NA,NA
724bb,task,flow.Sequence,3_0_5_0_6,NA,NA,completion,9560.7000000001,677421.59999999,677414.7,677431.6,686992.3,686998.40000001,2024-02-03T10:04:57Z,687009,NULL,Ergänzung,kijalizo,s,ulaghai,mustarehe,matangazo,NA,sdf,NA,5,NA,NA,NA,NA,NA,NA,NA,NA,NA,NA,NA,NA,NA,NA,NA,NA,NA,NA,NA
724bb,deep,flow.Sequence,3_0_5_0_7_0,NA,NA,skipped,NA,686998.40000001,NA,NA,686992.3,686998.5,2024-02-03T10:04:57Z,687009,NULL,Widerstand,usulubu,s,kusababisha,mwalimu,mwenendo,NA,sdf,NA,5,NA,NA,NA,NA,NA,NA,NA,NA,NA,NA,NA,NA,NA,NA,NA,NA,NA,NA,NA
724bb,Shallow Question,html.Page,3_0_5_0_7_1_0,NA,NA,form submission,4408.7000000179,686998.5,686992.3,687009,691417.70000002,691417.90000001,2024-02-03T10:05:01Z,691422.4,NULL,Widerstand,usulubu,s,kusababisha,mwalimu,mwenendo,usulubu,NA,NA,5,NA,NA,NA,NA,NA,NA,NA,NA,NA,NA,NA,NA,NA,NA,NA,NA,NA,NA,NA
724bb,"""Richtig""-Screen",canvas.Screen,3_0_5_0_7_1_1,NA,NA,timeout,4997.2999999999,691421,691406.518,691422.4,696403.2,696404.40000001,2024-02-03T10:05:06Z,696419.7,NULL,Widerstand,usulubu,s,kusababisha,mwalimu,mwenendo,NA,sdf,1,5,NA,NA,NA,NA,NA,NA,NA,NA,NA,NA,NA,NA,NA,NA,NA,NA,NA,NA,NA
724bb,"""Falsch""-Screen",canvas.Screen,3_0_5_0_7_1_2,NA,NA,skipped,NA,696409.59999999,NA,NA,696403.2,696409.70000002,2024-02-03T10:05:06Z,696419.7,NULL,Widerstand,usulubu,s,kusababisha,mwalimu,mwenendo,NA,sdf,NA,5,NA,NA,NA,NA,NA,NA,NA,NA,NA,NA,NA,NA,NA,NA,NA,NA,NA,NA,NA
724bb,shallow,flow.Sequence,3_0_5_0_7_1,NA,NA,completion,9394.2,686998.5,686992.3,687009,696403.2,696409.80000000994,2024-02-03T10:05:06Z,696419.7,NULL,Widerstand,usulubu,s,kusababisha,mwalimu,mwenendo,NA,sdf,NA,5,NA,NA,NA,NA,NA,NA,NA,NA,NA,NA,NA,NA,NA,NA,NA,NA,NA,NA,NA
724bb,task,flow.Sequence,3_0_5_0_7,NA,NA,completion,9394.2,686998.40000001,686992.3,687009,696403.2,696409.90000001,2024-02-03T10:05:06Z,696419.7,NULL,Widerstand,usulubu,s,kusababisha,mwalimu,mwenendo,NA,sdf,NA,5,NA,NA,NA,NA,NA,NA,NA,NA,NA,NA,NA,NA,NA,NA,NA,NA,NA,NA,NA
724bb,block,flow.Loop,3_0_5_0,NA,NA,completion,82033.038,614373.09999999,614370.162,614370.162,696403.2,696410,2024-02-03T10:05:06Z,696419.7,NULL,NA,NA,NA,NA,NA,NA,NA,sdf,NA,5,NA,NA,NA,NA,NA,NA,NA,NA,NA,NA,NA,NA,NA,NA,NA,NA,NA,NA,NA
724bb,weiter,canvas.Screen,3_0_5_1,sdf,keypress(Space),response,1165.3999999941,696410,696403.2,696419.7,697585.09999999,697587,2024-02-03T10:05:07Z,697603.3,NULL,NA,NA,NA,NA,NA,NA,NA,sdf,NA,5,NA,NA,NA,NA,NA,NA,NA,NA,NA,NA,NA,NA,NA,NA,NA,NA,NA,NA,NA
724bb,check continue,flow.Sequence,3_0_5,NA,NA,completion,83214.937999994,614373,614370.162,614370.162,697585.09999999,697587.5,2024-02-03T10:05:07Z,697603.3,NULL,NA,NA,NA,NA,NA,NA,NA,sdf,NA,5,NA,NA,NA,NA,NA,NA,NA,NA,NA,NA,NA,NA,NA,NA,NA,NA,NA,NA,NA
724bb,deep,flow.Sequence,3_0_6_0_0_0,NA,NA,skipped,NA,697608.20000002,NA,NA,697585.09999999,697608.30000000994,2024-02-03T10:05:07Z,697603.3,NULL,Wohlstand,mafanikio,s,chimbuko,kumbuko,mapwaji,NA,dfs,NA,6,NA,NA,NA,NA,NA,NA,NA,NA,NA,NA,NA,NA,NA,NA,NA,NA,NA,NA,NA
724bb,Shallow Question,html.Page,3_0_6_0_0_1_0,NA,NA,form submission,3940.0000000119,697608.30000000994,697602.586,697603.3,701543.30000001,701543.59999999,2024-02-03T10:05:11Z,701549.6,NULL,Wohlstand,mafanikio,s,chimbuko,kumbuko,mapwaji,mafanikio,NA,NA,6,NA,NA,NA,NA,NA,NA,NA,NA,NA,NA,NA,NA,NA,NA,NA,NA,NA,NA,NA
724bb,"""Richtig""-Screen",canvas.Screen,3_0_6_0_0_1_1,NA,NA,timeout,4997,701546.80000001,701533.6,701549.6,706530.2,706531.30000001,2024-02-03T10:05:16Z,706546.6,NULL,Wohlstand,mafanikio,s,chimbuko,kumbuko,mapwaji,NA,dfs,1,6,NA,NA,NA,NA,NA,NA,NA,NA,NA,NA,NA,NA,NA,NA,NA,NA,NA,NA,NA
724bb,"""Falsch""-Screen",canvas.Screen,3_0_6_0_0_1_2,NA,NA,skipped,NA,706536.40000001,NA,NA,706530.2,706536.5,2024-02-03T10:05:16Z,706546.6,NULL,Wohlstand,mafanikio,s,chimbuko,kumbuko,mapwaji,NA,dfs,NA,6,NA,NA,NA,NA,NA,NA,NA,NA,NA,NA,NA,NA,NA,NA,NA,NA,NA,NA,NA
724bb,shallow,flow.Sequence,3_0_6_0_0_1,NA,NA,completion,8926.8999999999,697608.30000000994,697602.586,697603.3,706530.2,706536.59999999,2024-02-03T10:05:16Z,706546.6,NULL,Wohlstand,mafanikio,s,chimbuko,kumbuko,mapwaji,NA,dfs,NA,6,NA,NA,NA,NA,NA,NA,NA,NA,NA,NA,NA,NA,NA,NA,NA,NA,NA,NA,NA
724bb,task,flow.Sequence,3_0_6_0_0,NA,NA,completion,8926.8999999999,697608.20000002,697602.586,697603.3,706530.2,706536.70000002,2024-02-03T10:05:16Z,706546.6,NULL,Wohlstand,mafanikio,s,chimbuko,kumbuko,mapwaji,NA,dfs,NA,6,NA,NA,NA,NA,NA,NA,NA,NA,NA,NA,NA,NA,NA,NA,NA,NA,NA,NA,NA
724bb,deep,flow.Sequence,3_0_6_0_1_0,NA,NA,skipped,NA,706536.80000001,NA,NA,706530.2,706536.80000001,2024-02-03T10:05:16Z,706546.6,NULL,Widerstand,usulubu,s,kusababisha,mwalimu,mwenendo,NA,dfs,NA,6,NA,NA,NA,NA,NA,NA,NA,NA,NA,NA,NA,NA,NA,NA,NA,NA,NA,NA,NA
724bb,Shallow Question,html.Page,3_0_6_0_1_1_0,NA,NA,form submission,2796.4999999941,706536.80000001,706530.2,706546.6,709343.09999999,709343.40000001,2024-02-03T10:05:19Z,709345.456,NULL,Widerstand,usulubu,s,kusababisha,mwalimu,mwenendo,usulubu,NA,NA,6,NA,NA,NA,NA,NA,NA,NA,NA,NA,NA,NA,NA,NA,NA,NA,NA,NA,NA,NA
724bb,"""Richtig""-Screen",canvas.Screen,3_0_6_0_1_1_1,NA,NA,timeout,4996.844,709344.40000001,709345.456,709345.456,714325.7,714326.30000000994,2024-02-03T10:05:24Z,714342.3,NULL,Widerstand,usulubu,s,kusababisha,mwalimu,mwenendo,NA,dfs,1,6,NA,NA,NA,NA,NA,NA,NA,NA,NA,NA,NA,NA,NA,NA,NA,NA,NA,NA,NA
724bb,"""Falsch""-Screen",canvas.Screen,3_0_6_0_1_1_2,NA,NA,skipped,NA,714328.70000002,NA,NA,714325.7,714328.80000000994,2024-02-03T10:05:24Z,714342.3,NULL,Widerstand,usulubu,s,kusababisha,mwalimu,mwenendo,NA,dfs,NA,6,NA,NA,NA,NA,NA,NA,NA,NA,NA,NA,NA,NA,NA,NA,NA,NA,NA,NA,NA
724bb,shallow,flow.Sequence,3_0_6_0_1_1,NA,NA,completion,7779.1,706536.80000001,706530.2,706546.6,714325.7,714329,2024-02-03T10:05:24Z,714342.3,NULL,Widerstand,usulubu,s,kusababisha,mwalimu,mwenendo,NA,dfs,NA,6,NA,NA,NA,NA,NA,NA,NA,NA,NA,NA,NA,NA,NA,NA,NA,NA,NA,NA,NA
724bb,task,flow.Sequence,3_0_6_0_1,NA,NA,completion,7779.1,706536.70000002,706530.2,706546.6,714325.7,714329.09999999,2024-02-03T10:05:24Z,714342.3,NULL,Widerstand,usulubu,s,kusababisha,mwalimu,mwenendo,NA,dfs,NA,6,NA,NA,NA,NA,NA,NA,NA,NA,NA,NA,NA,NA,NA,NA,NA,NA,NA,NA,NA
724bb,Deep Question,html.Page,3_0_6_0_2_0_0,NA,NA,form submission,5414.7,714329.20000002,714325.7,714342.3,719757,719757.20000002,2024-02-03T10:05:29Z,719772.4,NULL,Notfall,dharura,d,NA,NA,NA,waratuar,NA,NA,6,NA,NA,NA,NA,NA,NA,NA,NA,NA,NA,NA,NA,NA,NA,NA,NA,NA,NA,NA
724bb,"""Richtig""-Screen",canvas.Screen,3_0_6_0_2_0_1,NA,NA,skipped,NA,719758.5,NA,NA,719757,719758.5,2024-02-03T10:05:29Z,719772.4,NULL,Notfall,dharura,d,NA,NA,NA,NA,dfs,NA,6,NA,NA,NA,NA,NA,NA,NA,NA,NA,NA,NA,NA,NA,NA,NA,NA,NA,NA,NA
724bb,"""Falsch""-Screen",canvas.Screen,3_0_6_0_2_0_2,NA,NA,timeout,4996.9,719758.90000001,719755.164,719772.4,724752.5,724753.90000001,2024-02-03T10:05:34Z,724769.3,NULL,Notfall,dharura,d,NA,NA,NA,NA,dfs,0,6,NA,NA,NA,NA,NA,NA,NA,NA,NA,NA,NA,NA,NA,NA,NA,NA,NA,NA,NA
724bb,deep,flow.Sequence,3_0_6_0_2_0,NA,NA,completion,10410.2,714329.20000002,714325.7,714342.3,724752.5,724754.30000001,2024-02-03T10:05:34Z,724769.3,NULL,Notfall,dharura,d,NA,NA,NA,NA,dfs,NA,6,NA,NA,NA,NA,NA,NA,NA,NA,NA,NA,NA,NA,NA,NA,NA,NA,NA,NA,NA
724bb,shallow,flow.Sequence,3_0_6_0_2_1,NA,NA,skipped,NA,724754.5,NA,NA,724752.5,724754.80000000994,2024-02-03T10:05:34Z,724769.3,NULL,Notfall,dharura,d,NA,NA,NA,NA,dfs,NA,6,NA,NA,NA,NA,NA,NA,NA,NA,NA,NA,NA,NA,NA,NA,NA,NA,NA,NA,NA
724bb,task,flow.Sequence,3_0_6_0_2,NA,NA,completion,10410.2,714329.20000002,714325.7,714342.3,724752.5,724755.09999999,2024-02-03T10:05:34Z,724769.3,NULL,Notfall,dharura,d,NA,NA,NA,NA,dfs,NA,6,NA,NA,NA,NA,NA,NA,NA,NA,NA,NA,NA,NA,NA,NA,NA,NA,NA,NA,NA
724bb,deep,flow.Sequence,3_0_6_0_3_0,NA,NA,skipped,NA,724755.30000000994,NA,NA,724752.5,724755.5,2024-02-03T10:05:34Z,724769.3,NULL,Verstand,ufahamivu,s,shakawa,hadhari,mhandisi,NA,dfs,NA,6,NA,NA,NA,NA,NA,NA,NA,NA,NA,NA,NA,NA,NA,NA,NA,NA,NA,NA,NA
724bb,Shallow Question,html.Page,3_0_6_0_3_1_0,NA,NA,form submission,3282.1000000059,724755.59999999,724752.5,724769.3,728051.40000001,728051.59999999,2024-02-03T10:05:38Z,728067,NULL,Verstand,ufahamivu,s,shakawa,hadhari,mhandisi,ufahamivu,NA,NA,6,NA,NA,NA,NA,NA,NA,NA,NA,NA,NA,NA,NA,NA,NA,NA,NA,NA,NA,NA
724bb,"""Richtig""-Screen",canvas.Screen,3_0_6_0_3_1_1,NA,NA,timeout,4996.7,728054.80000001,728050.096,728067,733047.4,733048.70000002,2024-02-03T10:05:43Z,733063.7,NULL,Verstand,ufahamivu,s,shakawa,hadhari,mhandisi,NA,dfs,1,6,NA,NA,NA,NA,NA,NA,NA,NA,NA,NA,NA,NA,NA,NA,NA,NA,NA,NA,NA
724bb,"""Falsch""-Screen",canvas.Screen,3_0_6_0_3_1_2,NA,NA,skipped,NA,733054.59999999,NA,NA,733047.4,733054.80000001,2024-02-03T10:05:43Z,733063.7,NULL,Verstand,ufahamivu,s,shakawa,hadhari,mhandisi,NA,dfs,NA,6,NA,NA,NA,NA,NA,NA,NA,NA,NA,NA,NA,NA,NA,NA,NA,NA,NA,NA,NA
