observation,sender,sender_type,sender_id,response,response_action,ended_on,duration,time_run,time_render,time_show,time_end,time_commit,timestamp,time_switch,distractors,german,swahili,enc,distractor1,distractor2,distractor3,response_2,x,correct,x_2,url_vp,url_sess,meta_labjs_version,meta_location,meta_user_agent,meta_platform,meta_language,meta_locale,meta_time_zone,meta_timezone_offset,meta_screen_width,meta_screen_height,meta_scroll_width,meta_scroll_height,meta_window_inner_width,meta_window_inner_height,meta_device_pixel_ratio,meta_labjs_build_flavor,meta_labjs_build_commit
8366b,Introduction general,canvas.Screen,0,weiter,keypress(q),response,20625.2,1218.2000000477,1662.2,1678.8,22304,22304.899999976,2024-02-28T17:06:12Z,22316.2,NULL,NA,NA,NA,NA,NA,NA,NA,NA,NA,NA,138,3,20.2.4,https://neurocog.fernuni.ch/studies/vweber/aberisha/encoding_immediate/index.html?vp=138&sess=3,"Mozilla/5.0 (Windows NT 10.0; Win64; x64) AppleWebKit/537.36 (KHTML, like Gecko) Chrome/121.0.0.0 Safari/537.36",Win32,de-DE,de,Europe/Zurich,-60,1739,979,1740,763,1740,811,1.1041666269302,production,f5b4a49f956347addd546a832a3327688c2c0fef
8366b,Introduction practice,canvas.Screen,1_0,NA,keypress(Space),response,5641.3,22305.200000048,22301.924,22316.2,27957.5,27958.600000024,2024-02-28T17:06:17Z,27962.8,NULL,NA,NA,NA,NA,NA,NA,NA,NA,NA,NA,NA,NA,NA,NA,NA,NA,NA,NA,NA,NA,NA,NA,NA,NA,NA,NA,NA,NA,NA
8366b,Deep Question,html.Page,1_1_0_0_0,NA,NA,form submission,8481.7,27959.100000024,27949.308,27962.8,36444.5,36444.899999976,2024-02-28T17:06:26Z,36457.4,"c(""distractor1"", ""distractor2"", ""distractor3"")",Schatten,kivuli,d,NA,NA,NA,hsl,NA,NA,NA,NA,NA,NA,NA,NA,NA,NA,NA,NA,NA,NA,NA,NA,NA,NA,NA,NA,NA,NA
8366b,"""Richtig""-Screen",canvas.Screen,1_1_0_0_1,NA,NA,skipped,NA,36446.700000048,NA,NA,36444.5,36446.899999976,2024-02-28T17:06:26Z,36457.4,"c(""distractor1"", ""distractor2"", ""distractor3"")",Schatten,kivuli,d,NA,NA,NA,NA,NA,NA,NA,NA,NA,NA,NA,NA,NA,NA,NA,NA,NA,NA,NA,NA,NA,NA,NA,NA,NA,NA
8366b,"""Falsch""-Screen",canvas.Screen,1_1_0_0_2,NA,NA,timeout,4997.4,36447.800000072,36441.194,36457.4,41437.8,41439.200000048,2024-02-28T17:06:31Z,41454.8,"c(""distractor1"", ""distractor2"", ""distractor3"")",Schatten,kivuli,d,NA,NA,NA,NA,NA,0,NA,NA,NA,NA,NA,NA,NA,NA,NA,NA,NA,NA,NA,NA,NA,NA,NA,NA,NA,NA
8366b,deep,flow.Sequence,1_1_0_0,NA,NA,completion,13475,27959.100000024,27949.308,27962.8,41437.8,41439.800000072,2024-02-28T17:06:31Z,41454.8,"c(""distractor1"", ""distractor2"", ""distractor3"")",Schatten,kivuli,d,NA,NA,NA,NA,NA,NA,NA,NA,NA,NA,NA,NA,NA,NA,NA,NA,NA,NA,NA,NA,NA,NA,NA,NA,NA,NA
8366b,shallow,flow.Sequence,1_1_0_1,NA,NA,skipped,NA,41440,NA,NA,41437.8,41440.200000048,2024-02-28T17:06:31Z,41454.8,"c(""distractor1"", ""distractor2"", ""distractor3"")",Schatten,kivuli,d,NA,NA,NA,NA,NA,NA,NA,NA,NA,NA,NA,NA,NA,NA,NA,NA,NA,NA,NA,NA,NA,NA,NA,NA,NA,NA
8366b,task,flow.Sequence,1_1_0,NA,NA,completion,13475,27959,27949.308,27962.8,41437.8,41440.600000024,2024-02-28T17:06:31Z,41454.8,"c(""distractor1"", ""distractor2"", ""distractor3"")",Schatten,kivuli,d,NA,NA,NA,NA,NA,NA,NA,NA,NA,NA,NA,NA,NA,NA,NA,NA,NA,NA,NA,NA,NA,NA,NA,NA,NA,NA
8366b,deep,flow.Sequence,1_1_1_0,NA,NA,skipped,NA,41440.899999976,NA,NA,41437.8,41441,2024-02-28T17:06:31Z,41454.8,"c(""distractor1"", ""distractor2"", ""distractor3"")",Rückhalt,msaada,s,muhula,auwali,kiwimbe,NA,NA,NA,NA,NA,NA,NA,NA,NA,NA,NA,NA,NA,NA,NA,NA,NA,NA,NA,NA,NA,NA,NA
8366b,Shallow Question,html.Page,1_1_1_1_0,NA,NA,form submission,7885.2,41441.300000072,41437.8,41454.8,49340,49340.300000072,2024-02-28T17:06:39Z,49349.8,"c(""distractor1"", ""distractor2"", ""distractor3"")",Rückhalt,msaada,s,muhula,auwali,kiwimbe,kiwimbe,NA,NA,NA,NA,NA,NA,NA,NA,NA,NA,NA,NA,NA,NA,NA,NA,NA,NA,NA,NA,NA,NA
8366b,"""Richtig""-Screen",canvas.Screen,1_1_1_1_1,NA,NA,skipped,NA,49341.600000024,NA,NA,49340,49341.700000048,2024-02-28T17:06:39Z,49349.8,"c(""distractor1"", ""distractor2"", ""distractor3"")",Rückhalt,msaada,s,muhula,auwali,kiwimbe,NA,NA,NA,NA,NA,NA,NA,NA,NA,NA,NA,NA,NA,NA,NA,NA,NA,NA,NA,NA,NA,NA,NA
8366b,"""Falsch""-Screen",canvas.Screen,1_1_1_1_2,NA,NA,timeout,4997,49343,49333.646,49349.8,54330.1,54330.899999976,2024-02-28T17:06:44Z,54346.8,"c(""distractor1"", ""distractor2"", ""distractor3"")",Rückhalt,msaada,s,muhula,auwali,kiwimbe,NA,NA,0,NA,NA,NA,NA,NA,NA,NA,NA,NA,NA,NA,NA,NA,NA,NA,NA,NA,NA,NA,NA
8366b,shallow,flow.Sequence,1_1_1_1,NA,NA,completion,12875.3,41441.200000048,41437.8,41454.8,54330.1,54331,2024-02-28T17:06:44Z,54346.8,"c(""distractor1"", ""distractor2"", ""distractor3"")",Rückhalt,msaada,s,muhula,auwali,kiwimbe,NA,NA,NA,NA,NA,NA,NA,NA,NA,NA,NA,NA,NA,NA,NA,NA,NA,NA,NA,NA,NA,NA,NA
8366b,task,flow.Sequence,1_1_1,NA,NA,completion,12875.3,41440.700000048,41437.8,41454.8,54330.1,54331.100000024,2024-02-28T17:06:44Z,54346.8,"c(""distractor1"", ""distractor2"", ""distractor3"")",Rückhalt,msaada,s,muhula,auwali,kiwimbe,NA,NA,NA,NA,NA,NA,NA,NA,NA,NA,NA,NA,NA,NA,NA,NA,NA,NA,NA,NA,NA,NA,NA
8366b,Deep Question,html.Page,1_1_2_0_0,NA,NA,form submission,3952.9000000477,54331.200000048,54330.1,54346.8,58299.700000048,58299.800000072,2024-02-28T17:06:48Z,58311.2,"c(""distractor1"", ""distractor2"", ""distractor3"")",Gesundheit,salama,d,NA,NA,NA,er,NA,NA,NA,NA,NA,NA,NA,NA,NA,NA,NA,NA,NA,NA,NA,NA,NA,NA,NA,NA,NA,NA
8366b,"""Richtig""-Screen",canvas.Screen,1_1_2_0_1,NA,NA,skipped,NA,58300.899999976,NA,NA,58299.700000048,58301.100000024,2024-02-28T17:06:48Z,58311.2,"c(""distractor1"", ""distractor2"", ""distractor3"")",Gesundheit,salama,d,NA,NA,NA,NA,NA,NA,NA,NA,NA,NA,NA,NA,NA,NA,NA,NA,NA,NA,NA,NA,NA,NA,NA,NA,NA,NA
8366b,"""Falsch""-Screen",canvas.Screen,1_1_2_0_2,NA,NA,timeout,4996.6,58302.100000024,58294.562,58311.2,63291.4,63292.899999976,2024-02-28T17:06:53Z,63307.8,"c(""distractor1"", ""distractor2"", ""distractor3"")",Gesundheit,salama,d,NA,NA,NA,NA,NA,0,NA,NA,NA,NA,NA,NA,NA,NA,NA,NA,NA,NA,NA,NA,NA,NA,NA,NA,NA,NA
8366b,deep,flow.Sequence,1_1_2_0,NA,NA,completion,8944.6,54331.200000048,54330.1,54346.8,63291.4,63293.300000072,2024-02-28T17:06:53Z,63307.8,"c(""distractor1"", ""distractor2"", ""distractor3"")",Gesundheit,salama,d,NA,NA,NA,NA,NA,NA,NA,NA,NA,NA,NA,NA,NA,NA,NA,NA,NA,NA,NA,NA,NA,NA,NA,NA,NA,NA
8366b,shallow,flow.Sequence,1_1_2_1,NA,NA,skipped,NA,63293.399999976,NA,NA,63291.4,63293.700000048,2024-02-28T17:06:53Z,63307.8,"c(""distractor1"", ""distractor2"", ""distractor3"")",Gesundheit,salama,d,NA,NA,NA,NA,NA,NA,NA,NA,NA,NA,NA,NA,NA,NA,NA,NA,NA,NA,NA,NA,NA,NA,NA,NA,NA,NA
8366b,task,flow.Sequence,1_1_2,NA,NA,completion,8944.6,54331.100000024,54330.1,54346.8,63291.4,63293.899999976,2024-02-28T17:06:53Z,63307.8,"c(""distractor1"", ""distractor2"", ""distractor3"")",Gesundheit,salama,d,NA,NA,NA,NA,NA,NA,NA,NA,NA,NA,NA,NA,NA,NA,NA,NA,NA,NA,NA,NA,NA,NA,NA,NA,NA,NA
8366b,deep,flow.Sequence,1_1_3_0,NA,NA,skipped,NA,63294.100000024,NA,NA,63291.4,63294.300000072,2024-02-28T17:06:53Z,63307.8,"c(""distractor1"", ""distractor2"", ""distractor3"")",Gegenwart,hadhara,s,katiba,jokofu,mikopo,NA,NA,NA,NA,NA,NA,NA,NA,NA,NA,NA,NA,NA,NA,NA,NA,NA,NA,NA,NA,NA,NA,NA
8366b,Shallow Question,html.Page,1_1_3_1_0,NA,NA,form submission,4765.0999999762,63294.5,63291.4,63307.8,68072.899999976,68073.100000024,2024-02-28T17:06:57Z,68088.3,"c(""distractor1"", ""distractor2"", ""distractor3"")",Gegenwart,hadhara,s,katiba,jokofu,mikopo,katiba,NA,NA,NA,NA,NA,NA,NA,NA,NA,NA,NA,NA,NA,NA,NA,NA,NA,NA,NA,NA,NA,NA
8366b,"""Richtig""-Screen",canvas.Screen,1_1_3_1_1,NA,NA,skipped,NA,68076.300000072,NA,NA,68072.899999976,68076.5,2024-02-28T17:06:57Z,68088.3,"c(""distractor1"", ""distractor2"", ""distractor3"")",Gegenwart,hadhara,s,katiba,jokofu,mikopo,NA,NA,NA,NA,NA,NA,NA,NA,NA,NA,NA,NA,NA,NA,NA,NA,NA,NA,NA,NA,NA,NA,NA
8366b,"""Falsch""-Screen",canvas.Screen,1_1_3_1_2,NA,NA,timeout,4996.7,68077.200000048,68072.15,68088.3,73068.5,73069.700000048,2024-02-28T17:07:02Z,73085,"c(""distractor1"", ""distractor2"", ""distractor3"")",Gegenwart,hadhara,s,katiba,jokofu,mikopo,NA,NA,0,NA,NA,NA,NA,NA,NA,NA,NA,NA,NA,NA,NA,NA,NA,NA,NA,NA,NA,NA,NA
8366b,shallow,flow.Sequence,1_1_3_1,NA,NA,completion,9760.7,63294.399999976,63291.4,63307.8,73068.5,73070.100000024,2024-02-28T17:07:02Z,73085,"c(""distractor1"", ""distractor2"", ""distractor3"")",Gegenwart,hadhara,s,katiba,jokofu,mikopo,NA,NA,NA,NA,NA,NA,NA,NA,NA,NA,NA,NA,NA,NA,NA,NA,NA,NA,NA,NA,NA,NA,NA
8366b,task,flow.Sequence,1_1_3,NA,NA,completion,9760.7,63294.100000024,63291.4,63307.8,73068.5,73070.300000072,2024-02-28T17:07:02Z,73085,"c(""distractor1"", ""distractor2"", ""distractor3"")",Gegenwart,hadhara,s,katiba,jokofu,mikopo,NA,NA,NA,NA,NA,NA,NA,NA,NA,NA,NA,NA,NA,NA,NA,NA,NA,NA,NA,NA,NA,NA,NA
8366b,Deep Question,html.Page,1_1_4_0_0,NA,NA,form submission,3682.8000000715,73070.600000024,73068.5,73085,76767.800000072,76768,2024-02-28T17:07:06Z,76783.2,"c(""distractor1"", ""distractor2"", ""distractor3"")",Qualität,mtindo,d,NA,NA,NA,er,NA,NA,NA,NA,NA,NA,NA,NA,NA,NA,NA,NA,NA,NA,NA,NA,NA,NA,NA,NA,NA,NA
8366b,"""Richtig""-Screen",canvas.Screen,1_1_4_0_1,NA,NA,skipped,NA,76771.399999976,NA,NA,76767.800000072,76771.5,2024-02-28T17:07:06Z,76783.2,"c(""distractor1"", ""distractor2"", ""distractor3"")",Qualität,mtindo,d,NA,NA,NA,NA,NA,NA,NA,NA,NA,NA,NA,NA,NA,NA,NA,NA,NA,NA,NA,NA,NA,NA,NA,NA,NA,NA
8366b,"""Falsch""-Screen",canvas.Screen,1_1_4_0_2,NA,NA,timeout,4997.1,76771.899999976,76766.786,76783.2,81763.5,81764.5,2024-02-28T17:07:11Z,81780.3,"c(""distractor1"", ""distractor2"", ""distractor3"")",Qualität,mtindo,d,NA,NA,NA,NA,NA,0,NA,NA,NA,NA,NA,NA,NA,NA,NA,NA,NA,NA,NA,NA,NA,NA,NA,NA,NA,NA
8366b,deep,flow.Sequence,1_1_4_0,NA,NA,completion,8678.5,73070.5,73068.5,73085,81763.5,81764.800000072,2024-02-28T17:07:11Z,81780.3,"c(""distractor1"", ""distractor2"", ""distractor3"")",Qualität,mtindo,d,NA,NA,NA,NA,NA,NA,NA,NA,NA,NA,NA,NA,NA,NA,NA,NA,NA,NA,NA,NA,NA,NA,NA,NA,NA,NA
8366b,shallow,flow.Sequence,1_1_4_1,NA,NA,skipped,NA,81765,NA,NA,81763.5,81765.200000048,2024-02-28T17:07:11Z,81780.3,"c(""distractor1"", ""distractor2"", ""distractor3"")",Qualität,mtindo,d,NA,NA,NA,NA,NA,NA,NA,NA,NA,NA,NA,NA,NA,NA,NA,NA,NA,NA,NA,NA,NA,NA,NA,NA,NA,NA
8366b,task,flow.Sequence,1_1_4,NA,NA,completion,8678.5,73070.5,73068.5,73085,81763.5,81765.399999976,2024-02-28T17:07:11Z,81780.3,"c(""distractor1"", ""distractor2"", ""distractor3"")",Qualität,mtindo,d,NA,NA,NA,NA,NA,NA,NA,NA,NA,NA,NA,NA,NA,NA,NA,NA,NA,NA,NA,NA,NA,NA,NA,NA,NA,NA
8366b,deep,flow.Sequence,1_1_5_0,NA,NA,skipped,NA,81765.700000048,NA,NA,81763.5,81765.800000072,2024-02-28T17:07:11Z,81780.3,"c(""distractor1"", ""distractor2"", ""distractor3"")",Kritik,lawama,s,dereva,nafasi,mawazo,NA,NA,NA,NA,NA,NA,NA,NA,NA,NA,NA,NA,NA,NA,NA,NA,NA,NA,NA,NA,NA,NA,NA
8366b,Shallow Question,html.Page,1_1_5_1_0,NA,NA,form submission,5423.0000000715,81766,81763.5,81780.3,87203.300000072,87203.5,2024-02-28T17:07:16Z,87209.8,"c(""distractor1"", ""distractor2"", ""distractor3"")",Kritik,lawama,s,dereva,nafasi,mawazo,nafasi,NA,NA,NA,NA,NA,NA,NA,NA,NA,NA,NA,NA,NA,NA,NA,NA,NA,NA,NA,NA,NA,NA
8366b,"""Richtig""-Screen",canvas.Screen,1_1_5_1_1,NA,NA,skipped,NA,87206.399999976,NA,NA,87203.300000072,87206.600000024,2024-02-28T17:07:16Z,87209.8,"c(""distractor1"", ""distractor2"", ""distractor3"")",Kritik,lawama,s,dereva,nafasi,mawazo,NA,NA,NA,NA,NA,NA,NA,NA,NA,NA,NA,NA,NA,NA,NA,NA,NA,NA,NA,NA,NA,NA,NA
8366b,"""Falsch""-Screen",canvas.Screen,1_1_5_1_2,NA,NA,timeout,4997.4,87207,87194.104,87209.8,92190.4,92192.5,2024-02-28T17:07:21Z,92207.2,"c(""distractor1"", ""distractor2"", ""distractor3"")",Kritik,lawama,s,dereva,nafasi,mawazo,NA,NA,0,NA,NA,NA,NA,NA,NA,NA,NA,NA,NA,NA,NA,NA,NA,NA,NA,NA,NA,NA,NA
8366b,shallow,flow.Sequence,1_1_5_1,NA,NA,completion,10410.1,81765.899999976,81763.5,81780.3,92190.4,92193,2024-02-28T17:07:21Z,92207.2,"c(""distractor1"", ""distractor2"", ""distractor3"")",Kritik,lawama,s,dereva,nafasi,mawazo,NA,NA,NA,NA,NA,NA,NA,NA,NA,NA,NA,NA,NA,NA,NA,NA,NA,NA,NA,NA,NA,NA,NA
8366b,task,flow.Sequence,1_1_5,NA,NA,completion,10410.1,81765.600000024,81763.5,81780.3,92190.4,92193.200000048,2024-02-28T17:07:21Z,92207.2,"c(""distractor1"", ""distractor2"", ""distractor3"")",Kritik,lawama,s,dereva,nafasi,mawazo,NA,NA,NA,NA,NA,NA,NA,NA,NA,NA,NA,NA,NA,NA,NA,NA,NA,NA,NA,NA,NA,NA,NA
8366b,block,flow.Loop,1_1,NA,NA,completion,64227.6,27958.899999976,27949.308,27962.8,92190.4,92193.5,2024-02-28T17:07:21Z,92207.2,"c(""distractor1"", ""distractor2"", ""distractor3"")",NA,NA,NA,NA,NA,NA,NA,NA,NA,NA,NA,NA,NA,NA,NA,NA,NA,NA,NA,NA,NA,NA,NA,NA,NA,NA,NA,NA,NA
8366b,Practice,flow.Sequence,1,NA,NA,completion,69874.2,22305.100000024,22301.924,22316.2,92190.4,92193.700000048,2024-02-28T17:07:21Z,92207.2,NULL,NA,NA,NA,NA,NA,NA,NA,NA,NA,NA,NA,NA,NA,NA,NA,NA,NA,NA,NA,NA,NA,NA,NA,NA,NA,NA,NA,NA,NA
8366b,Experiment start,canvas.Screen,2,weiter,keypress(q),response,14878.400000024,92194,92190.4,92207.2,107085.60000002,107087.39999998,2024-02-28T17:07:36Z,107154.58,NULL,NA,NA,NA,NA,NA,NA,NA,NA,NA,NA,NA,NA,NA,NA,NA,NA,NA,NA,NA,NA,NA,NA,NA,NA,NA,NA,NA,NA,NA
8366b,deep,flow.Sequence,3_0_0_0_0_0,NA,NA,skipped,NA,107155.89999998,NA,NA,107085.60000002,107156.10000002,2024-02-28T17:07:36Z,107154.58,NULL,Stimmung,kinyongo,s,kilekile,kisambo,madhehebu,NA,sdf,NA,0,NA,NA,NA,NA,NA,NA,NA,NA,NA,NA,NA,NA,NA,NA,NA,NA,NA,NA,NA
8366b,Shallow Question,html.Page,3_0_0_0_0_1_0,NA,NA,form submission,5590.7200000715,107156.20000005,107154.58,107154.58,112745.30000007,112745.5,2024-02-28T17:07:42Z,112761.2,NULL,Stimmung,kinyongo,s,kilekile,kisambo,madhehebu,kinyongo,NA,NA,0,NA,NA,NA,NA,NA,NA,NA,NA,NA,NA,NA,NA,NA,NA,NA,NA,NA,NA,NA
8366b,"""Richtig""-Screen",canvas.Screen,3_0_0_0_0_1_1,NA,NA,timeout,4996.9,112748.5,112744.4,112761.2,117741.5,117742.5,2024-02-28T17:07:47Z,117758.1,NULL,Stimmung,kinyongo,s,kilekile,kisambo,madhehebu,NA,sdf,1,0,NA,NA,NA,NA,NA,NA,NA,NA,NA,NA,NA,NA,NA,NA,NA,NA,NA,NA,NA
8366b,"""Falsch""-Screen",canvas.Screen,3_0_0_0_0_1_2,NA,NA,skipped,NA,117747.80000007,NA,NA,117741.5,117747.80000007,2024-02-28T17:07:47Z,117758.1,NULL,Stimmung,kinyongo,s,kilekile,kisambo,madhehebu,NA,sdf,NA,0,NA,NA,NA,NA,NA,NA,NA,NA,NA,NA,NA,NA,NA,NA,NA,NA,NA,NA,NA
8366b,shallow,flow.Sequence,3_0_0_0_0_1,NA,NA,completion,10586.92,107156.20000005,107154.58,107154.58,117741.5,117748,2024-02-28T17:07:47Z,117758.1,NULL,Stimmung,kinyongo,s,kilekile,kisambo,madhehebu,NA,sdf,NA,0,NA,NA,NA,NA,NA,NA,NA,NA,NA,NA,NA,NA,NA,NA,NA,NA,NA,NA,NA
8366b,task,flow.Sequence,3_0_0_0_0,NA,NA,completion,10586.92,107155.89999998,107154.58,107154.58,117741.5,117748,2024-02-28T17:07:47Z,117758.1,NULL,Stimmung,kinyongo,s,kilekile,kisambo,madhehebu,NA,sdf,NA,0,NA,NA,NA,NA,NA,NA,NA,NA,NA,NA,NA,NA,NA,NA,NA,NA,NA,NA,NA
8366b,Deep Question,html.Page,3_0_0_0_1_0_0,NA,NA,form submission,4708.1000000477,117748,117741.5,117758.1,122466.20000005,122466.39999998,2024-02-28T17:07:52Z,122488.2,NULL,Können,unaweza,d,NA,NA,NA,er,NA,NA,0,NA,NA,NA,NA,NA,NA,NA,NA,NA,NA,NA,NA,NA,NA,NA,NA,NA,NA,NA
8366b,"""Richtig""-Screen",canvas.Screen,3_0_0_0_1_0_1,NA,NA,skipped,NA,122467.89999998,NA,NA,122466.20000005,122468,2024-02-28T17:07:52Z,122488.2,NULL,Können,unaweza,d,NA,NA,NA,NA,sdf,NA,0,NA,NA,NA,NA,NA,NA,NA,NA,NA,NA,NA,NA,NA,NA,NA,NA,NA,NA,NA
8366b,"""Falsch""-Screen",canvas.Screen,3_0_0_0_1_0_2,NA,NA,timeout,4997.5,122468.39999998,122471.924,122488.2,127468.8,127469.80000007,2024-02-28T17:07:57Z,127485.7,NULL,Können,unaweza,d,NA,NA,NA,NA,sdf,0,0,NA,NA,NA,NA,NA,NA,NA,NA,NA,NA,NA,NA,NA,NA,NA,NA,NA,NA,NA
8366b,deep,flow.Sequence,3_0_0_0_1_0,NA,NA,completion,9710.7,117748,117741.5,117758.1,127468.8,127470.30000007,2024-02-28T17:07:57Z,127485.7,NULL,Können,unaweza,d,NA,NA,NA,NA,sdf,NA,0,NA,NA,NA,NA,NA,NA,NA,NA,NA,NA,NA,NA,NA,NA,NA,NA,NA,NA,NA
8366b,shallow,flow.Sequence,3_0_0_0_1_1,NA,NA,skipped,NA,127470.39999998,NA,NA,127468.8,127470.60000002,2024-02-28T17:07:57Z,127485.7,NULL,Können,unaweza,d,NA,NA,NA,NA,sdf,NA,0,NA,NA,NA,NA,NA,NA,NA,NA,NA,NA,NA,NA,NA,NA,NA,NA,NA,NA,NA
8366b,task,flow.Sequence,3_0_0_0_1,NA,NA,completion,9710.7,117748,117741.5,117758.1,127468.8,127470.80000007,2024-02-28T17:07:57Z,127485.7,NULL,Können,unaweza,d,NA,NA,NA,NA,sdf,NA,0,NA,NA,NA,NA,NA,NA,NA,NA,NA,NA,NA,NA,NA,NA,NA,NA,NA,NA,NA
8366b,Deep Question,html.Page,3_0_0_0_2_0_0,NA,NA,form submission,3950.0000000477,127471.10000002,127468.8,127485.7,131435.70000005,131436,2024-02-28T17:08:01Z,131449.4,NULL,Kreativität,ubunifu,d,NA,NA,NA,er,NA,NA,0,NA,NA,NA,NA,NA,NA,NA,NA,NA,NA,NA,NA,NA,NA,NA,NA,NA,NA,NA
8366b,"""Richtig""-Screen",canvas.Screen,3_0_0_0_2_0_1,NA,NA,skipped,NA,131439.10000002,NA,NA,131435.70000005,131439.30000007,2024-02-28T17:08:01Z,131449.4,NULL,Kreativität,ubunifu,d,NA,NA,NA,NA,sdf,NA,0,NA,NA,NA,NA,NA,NA,NA,NA,NA,NA,NA,NA,NA,NA,NA,NA,NA,NA,NA
8366b,"""Falsch""-Screen",canvas.Screen,3_0_0_0_2_0_2,NA,NA,timeout,4997.4,131440.10000002,131433.414,131449.4,136430.1,136431.39999998,2024-02-28T17:08:06Z,136446.8,NULL,Kreativität,ubunifu,d,NA,NA,NA,NA,sdf,0,0,NA,NA,NA,NA,NA,NA,NA,NA,NA,NA,NA,NA,NA,NA,NA,NA,NA,NA,NA
8366b,deep,flow.Sequence,3_0_0_0_2_0,NA,NA,completion,8944.4,127471,127468.8,127485.7,136430.1,136431.70000005,2024-02-28T17:08:06Z,136446.8,NULL,Kreativität,ubunifu,d,NA,NA,NA,NA,sdf,NA,0,NA,NA,NA,NA,NA,NA,NA,NA,NA,NA,NA,NA,NA,NA,NA,NA,NA,NA,NA
8366b,shallow,flow.Sequence,3_0_0_0_2_1,NA,NA,skipped,NA,136431.80000007,NA,NA,136430.1,136432,2024-02-28T17:08:06Z,136446.8,NULL,Kreativität,ubunifu,d,NA,NA,NA,NA,sdf,NA,0,NA,NA,NA,NA,NA,NA,NA,NA,NA,NA,NA,NA,NA,NA,NA,NA,NA,NA,NA
8366b,task,flow.Sequence,3_0_0_0_2,NA,NA,completion,8944.4,127471,127468.8,127485.7,136430.1,136432.20000005,2024-02-28T17:08:06Z,136446.8,NULL,Kreativität,ubunifu,d,NA,NA,NA,NA,sdf,NA,0,NA,NA,NA,NA,NA,NA,NA,NA,NA,NA,NA,NA,NA,NA,NA,NA,NA,NA,NA
8366b,Deep Question,html.Page,3_0_0_0_3_0_0,NA,NA,form submission,3022.5000000715,136432.5,136430.1,136446.8,139469.30000007,139469.5,2024-02-28T17:08:09Z,139477.7,NULL,Respekt,heshima,d,NA,NA,NA,er,NA,NA,0,NA,NA,NA,NA,NA,NA,NA,NA,NA,NA,NA,NA,NA,NA,NA,NA,NA,NA,NA
8366b,"""Richtig""-Screen",canvas.Screen,3_0_0_0_3_0_1,NA,NA,skipped,NA,139471,NA,NA,139469.30000007,139471.10000002,2024-02-28T17:08:09Z,139477.7,NULL,Respekt,heshima,d,NA,NA,NA,NA,sdf,NA,0,NA,NA,NA,NA,NA,NA,NA,NA,NA,NA,NA,NA,NA,NA,NA,NA,NA,NA,NA
8366b,"""Falsch""-Screen",canvas.Screen,3_0_0_0_3_0_2,NA,NA,timeout,4997.6,139471.5,139461.564,139477.7,144458.2,144458.60000002,2024-02-28T17:08:14Z,144475.3,NULL,Respekt,heshima,d,NA,NA,NA,NA,sdf,0,0,NA,NA,NA,NA,NA,NA,NA,NA,NA,NA,NA,NA,NA,NA,NA,NA,NA,NA,NA
8366b,deep,flow.Sequence,3_0_0_0_3_0,NA,NA,completion,8011.4,136432.39999998,136430.1,136446.8,144458.2,144458.80000007,2024-02-28T17:08:14Z,144475.3,NULL,Respekt,heshima,d,NA,NA,NA,NA,sdf,NA,0,NA,NA,NA,NA,NA,NA,NA,NA,NA,NA,NA,NA,NA,NA,NA,NA,NA,NA,NA
8366b,shallow,flow.Sequence,3_0_0_0_3_1,NA,NA,skipped,NA,144458.80000007,NA,NA,144458.2,144458.80000007,2024-02-28T17:08:14Z,144475.3,NULL,Respekt,heshima,d,NA,NA,NA,NA,sdf,NA,0,NA,NA,NA,NA,NA,NA,NA,NA,NA,NA,NA,NA,NA,NA,NA,NA,NA,NA,NA
8366b,task,flow.Sequence,3_0_0_0_3,NA,NA,completion,8011.4,136432.39999998,136430.1,136446.8,144458.2,144458.89999998,2024-02-28T17:08:14Z,144475.3,NULL,Respekt,heshima,d,NA,NA,NA,NA,sdf,NA,0,NA,NA,NA,NA,NA,NA,NA,NA,NA,NA,NA,NA,NA,NA,NA,NA,NA,NA,NA
8366b,deep,flow.Sequence,3_0_0_0_4_0,NA,NA,skipped,NA,144459,NA,NA,144458.2,144459,2024-02-28T17:08:14Z,144475.3,NULL,Gefährdung,kuhatarisha,s,uchokozi,udhaifu,makorowezo,NA,sdf,NA,0,NA,NA,NA,NA,NA,NA,NA,NA,NA,NA,NA,NA,NA,NA,NA,NA,NA,NA,NA
8366b,Shallow Question,html.Page,3_0_0_0_4_1_0,NA,NA,form submission,5878.9000000477,144459,144458.2,144475.3,150354.20000005,150354.5,2024-02-28T17:08:20Z,150355.088,NULL,Gefährdung,kuhatarisha,s,uchokozi,udhaifu,makorowezo,uchokozi,NA,NA,0,NA,NA,NA,NA,NA,NA,NA,NA,NA,NA,NA,NA,NA,NA,NA,NA,NA,NA,NA
8366b,"""Richtig""-Screen",canvas.Screen,3_0_0_0_4_1_1,NA,NA,skipped,NA,150357.80000007,NA,NA,150354.20000005,150358,2024-02-28T17:08:20Z,150355.088,NULL,Gefährdung,kuhatarisha,s,uchokozi,udhaifu,makorowezo,NA,sdf,NA,0,NA,NA,NA,NA,NA,NA,NA,NA,NA,NA,NA,NA,NA,NA,NA,NA,NA,NA,NA
8366b,"""Falsch""-Screen",canvas.Screen,3_0_0_0_4_1_2,NA,NA,timeout,4996.612,150358.60000002,150355.088,150355.088,155335.2,155336.60000002,2024-02-28T17:08:25Z,155351.7,NULL,Gefährdung,kuhatarisha,s,uchokozi,udhaifu,makorowezo,NA,sdf,0,0,NA,NA,NA,NA,NA,NA,NA,NA,NA,NA,NA,NA,NA,NA,NA,NA,NA,NA,NA
8366b,shallow,flow.Sequence,3_0_0_0_4_1,NA,NA,completion,10859.9,144459,144458.2,144475.3,155335.2,155337,2024-02-28T17:08:25Z,155351.7,NULL,Gefährdung,kuhatarisha,s,uchokozi,udhaifu,makorowezo,NA,sdf,NA,0,NA,NA,NA,NA,NA,NA,NA,NA,NA,NA,NA,NA,NA,NA,NA,NA,NA,NA,NA
8366b,task,flow.Sequence,3_0_0_0_4,NA,NA,completion,10859.9,144459,144458.2,144475.3,155335.2,155337.30000007,2024-02-28T17:08:25Z,155351.7,NULL,Gefährdung,kuhatarisha,s,uchokozi,udhaifu,makorowezo,NA,sdf,NA,0,NA,NA,NA,NA,NA,NA,NA,NA,NA,NA,NA,NA,NA,NA,NA,NA,NA,NA,NA
8366b,deep,flow.Sequence,3_0_0_0_5_0,NA,NA,skipped,NA,155337.5,NA,NA,155335.2,155337.80000007,2024-02-28T17:08:25Z,155351.7,NULL,Kontrolle,kudhibiti,s,mbinguni,kufunga,utegemezi,NA,sdf,NA,0,NA,NA,NA,NA,NA,NA,NA,NA,NA,NA,NA,NA,NA,NA,NA,NA,NA,NA,NA
8366b,Shallow Question,html.Page,3_0_0_0_5_1_0,NA,NA,form submission,5025.9000000238,155337.89999998,155335.2,155351.7,160377.60000002,160377.89999998,2024-02-28T17:08:30Z,160382.092,NULL,Kontrolle,kudhibiti,s,mbinguni,kufunga,utegemezi,kufunga,NA,NA,0,NA,NA,NA,NA,NA,NA,NA,NA,NA,NA,NA,NA,NA,NA,NA,NA,NA,NA,NA
8366b,"""Richtig""-Screen",canvas.Screen,3_0_0_0_5_1_1,NA,NA,skipped,NA,160381,NA,NA,160377.60000002,160381.10000002,2024-02-28T17:08:30Z,160382.092,NULL,Kontrolle,kudhibiti,s,mbinguni,kufunga,utegemezi,NA,sdf,NA,0,NA,NA,NA,NA,NA,NA,NA,NA,NA,NA,NA,NA,NA,NA,NA,NA,NA,NA,NA
8366b,"""Falsch""-Screen",canvas.Screen,3_0_0_0_5_1_2,NA,NA,timeout,4996.508,160381.60000002,160382.092,160382.092,165361.9,165362.70000005,2024-02-28T17:08:35Z,165378.6,NULL,Kontrolle,kudhibiti,s,mbinguni,kufunga,utegemezi,NA,sdf,0,0,NA,NA,NA,NA,NA,NA,NA,NA,NA,NA,NA,NA,NA,NA,NA,NA,NA,NA,NA
8366b,shallow,flow.Sequence,3_0_0_0_5_1,NA,NA,completion,10010.2,155337.89999998,155335.2,155351.7,165361.9,165362.80000007,2024-02-28T17:08:35Z,165378.6,NULL,Kontrolle,kudhibiti,s,mbinguni,kufunga,utegemezi,NA,sdf,NA,0,NA,NA,NA,NA,NA,NA,NA,NA,NA,NA,NA,NA,NA,NA,NA,NA,NA,NA,NA
8366b,task,flow.Sequence,3_0_0_0_5,NA,NA,completion,10010.2,155337.5,155335.2,155351.7,165361.9,165363,2024-02-28T17:08:35Z,165378.6,NULL,Kontrolle,kudhibiti,s,mbinguni,kufunga,utegemezi,NA,sdf,NA,0,NA,NA,NA,NA,NA,NA,NA,NA,NA,NA,NA,NA,NA,NA,NA,NA,NA,NA,NA
8366b,deep,flow.Sequence,3_0_0_0_6_0,NA,NA,skipped,NA,165363,NA,NA,165361.9,165363.10000002,2024-02-28T17:08:35Z,165378.6,NULL,Betrüger,mdanganyifu,s,mwanamuziki,wastani,mahakama,NA,sdf,NA,0,NA,NA,NA,NA,NA,NA,NA,NA,NA,NA,NA,NA,NA,NA,NA,NA,NA,NA,NA
8366b,Shallow Question,html.Page,3_0_0_0_6_1_0,NA,NA,form submission,3218.7000000715,165363.10000002,165361.9,165378.6,168597.30000007,168597.5,2024-02-28T17:08:38Z,168610.4,NULL,Betrüger,mdanganyifu,s,mwanamuziki,wastani,mahakama,wastani,NA,NA,0,NA,NA,NA,NA,NA,NA,NA,NA,NA,NA,NA,NA,NA,NA,NA,NA,NA,NA,NA
8366b,"""Richtig""-Screen",canvas.Screen,3_0_0_0_6_1_1,NA,NA,skipped,NA,168600.60000002,NA,NA,168597.30000007,168600.70000005,2024-02-28T17:08:38Z,168610.4,NULL,Betrüger,mdanganyifu,s,mwanamuziki,wastani,mahakama,NA,sdf,NA,0,NA,NA,NA,NA,NA,NA,NA,NA,NA,NA,NA,NA,NA,NA,NA,NA,NA,NA,NA
8366b,"""Falsch""-Screen",canvas.Screen,3_0_0_0_6_1_2,NA,NA,timeout,4996.9,168601.10000002,168593.954,168610.4,173590.6,173591.20000005,2024-02-28T17:08:43Z,173607.3,NULL,Betrüger,mdanganyifu,s,mwanamuziki,wastani,mahakama,NA,sdf,0,0,NA,NA,NA,NA,NA,NA,NA,NA,NA,NA,NA,NA,NA,NA,NA,NA,NA,NA,NA
8366b,shallow,flow.Sequence,3_0_0_0_6_1,NA,NA,completion,8212,165363.10000002,165361.9,165378.6,173590.6,173591.30000007,2024-02-28T17:08:43Z,173607.3,NULL,Betrüger,mdanganyifu,s,mwanamuziki,wastani,mahakama,NA,sdf,NA,0,NA,NA,NA,NA,NA,NA,NA,NA,NA,NA,NA,NA,NA,NA,NA,NA,NA,NA,NA
8366b,task,flow.Sequence,3_0_0_0_6,NA,NA,completion,8212,165363,165361.9,165378.6,173590.6,173591.30000007,2024-02-28T17:08:43Z,173607.3,NULL,Betrüger,mdanganyifu,s,mwanamuziki,wastani,mahakama,NA,sdf,NA,0,NA,NA,NA,NA,NA,NA,NA,NA,NA,NA,NA,NA,NA,NA,NA,NA,NA,NA,NA
8366b,Deep Question,html.Page,3_0_0_0_7_0_0,NA,NA,form submission,3726.4000000477,173591.39999998,173590.6,173607.3,177333.70000005,177334.10000002,2024-02-28T17:08:47Z,177338.392,NULL,Orientierung,urekebisho,d,NA,NA,NA,er,NA,NA,0,NA,NA,NA,NA,NA,NA,NA,NA,NA,NA,NA,NA,NA,NA,NA,NA,NA,NA,NA
8366b,"""Richtig""-Screen",canvas.Screen,3_0_0_0_7_0_1,NA,NA,skipped,NA,177337.30000007,NA,NA,177333.70000005,177337.5,2024-02-28T17:08:47Z,177338.392,NULL,Orientierung,urekebisho,d,NA,NA,NA,NA,sdf,NA,0,NA,NA,NA,NA,NA,NA,NA,NA,NA,NA,NA,NA,NA,NA,NA,NA,NA,NA,NA
8366b,"""Falsch""-Screen",canvas.Screen,3_0_0_0_7_0_2,NA,NA,timeout,4996.908,177338.60000002,177338.392,177338.392,182318.3,182319.20000005,2024-02-28T17:08:52Z,182335.3,NULL,Orientierung,urekebisho,d,NA,NA,NA,NA,sdf,0,0,NA,NA,NA,NA,NA,NA,NA,NA,NA,NA,NA,NA,NA,NA,NA,NA,NA,NA,NA
8366b,deep,flow.Sequence,3_0_0_0_7_0,NA,NA,completion,8711,173591.39999998,173590.6,173607.3,182318.3,182319.5,2024-02-28T17:08:52Z,182335.3,NULL,Orientierung,urekebisho,d,NA,NA,NA,NA,sdf,NA,0,NA,NA,NA,NA,NA,NA,NA,NA,NA,NA,NA,NA,NA,NA,NA,NA,NA,NA,NA
8366b,shallow,flow.Sequence,3_0_0_0_7_1,NA,NA,skipped,NA,182319.70000005,NA,NA,182318.3,182319.80000007,2024-02-28T17:08:52Z,182335.3,NULL,Orientierung,urekebisho,d,NA,NA,NA,NA,sdf,NA,0,NA,NA,NA,NA,NA,NA,NA,NA,NA,NA,NA,NA,NA,NA,NA,NA,NA,NA,NA
8366b,task,flow.Sequence,3_0_0_0_7,NA,NA,completion,8711,173591.39999998,173590.6,173607.3,182318.3,182320,2024-02-28T17:08:52Z,182335.3,NULL,Orientierung,urekebisho,d,NA,NA,NA,NA,sdf,NA,0,NA,NA,NA,NA,NA,NA,NA,NA,NA,NA,NA,NA,NA,NA,NA,NA,NA,NA,NA
8366b,block,flow.Loop,3_0_0_0,NA,NA,completion,75163.72,107155.89999998,107154.58,107154.58,182318.3,182320.20000005,2024-02-28T17:08:52Z,182335.3,NULL,NA,NA,NA,NA,NA,NA,NA,sdf,NA,0,NA,NA,NA,NA,NA,NA,NA,NA,NA,NA,NA,NA,NA,NA,NA,NA,NA,NA,NA
8366b,weiter,canvas.Screen,3_0_0_1,sdf,keypress(Space),response,1306.0999999762,182320.39999998,182318.3,182335.3,183641.39999998,183642.60000002,2024-02-28T17:08:53Z,183667.864,NULL,NA,NA,NA,NA,NA,NA,NA,sdf,NA,0,NA,NA,NA,NA,NA,NA,NA,NA,NA,NA,NA,NA,NA,NA,NA,NA,NA,NA,NA
8366b,check continue,flow.Sequence,3_0_0,NA,NA,completion,76486.819999976,107155.89999998,107154.58,107154.58,183641.39999998,183642.80000007,2024-02-28T17:08:53Z,183667.864,NULL,NA,NA,NA,NA,NA,NA,NA,sdf,NA,0,NA,NA,NA,NA,NA,NA,NA,NA,NA,NA,NA,NA,NA,NA,NA,NA,NA,NA,NA
8366b,Deep Question,html.Page,3_0_1_0_0_0_0,NA,NA,form submission,3408.8360000477,183667.80000007,183667.864,183667.864,187076.70000005,187076.89999998,2024-02-28T17:08:56Z,187082.2,NULL,Können,unaweza,d,NA,NA,NA,er,NA,NA,1,NA,NA,NA,NA,NA,NA,NA,NA,NA,NA,NA,NA,NA,NA,NA,NA,NA,NA,NA
8366b,"""Richtig""-Screen",canvas.Screen,3_0_1_0_0_0_1,NA,NA,skipped,NA,187077.30000007,NA,NA,187076.70000005,187077.5,2024-02-28T17:08:56Z,187082.2,NULL,Können,unaweza,d,NA,NA,NA,NA,sdfdsf,NA,1,NA,NA,NA,NA,NA,NA,NA,NA,NA,NA,NA,NA,NA,NA,NA,NA,NA,NA,NA
8366b,"""Falsch""-Screen",canvas.Screen,3_0_1_0_0_0_2,NA,NA,timeout,4996.8,187077.80000007,187065.992,187082.2,192062.4,192063.80000007,2024-02-28T17:09:01Z,192079,NULL,Können,unaweza,d,NA,NA,NA,NA,sdfdsf,0,1,NA,NA,NA,NA,NA,NA,NA,NA,NA,NA,NA,NA,NA,NA,NA,NA,NA,NA,NA
8366b,deep,flow.Sequence,3_0_1_0_0_0,NA,NA,completion,8394.536,183667.70000005,183667.864,183667.864,192062.4,192064.5,2024-02-28T17:09:01Z,192079,NULL,Können,unaweza,d,NA,NA,NA,NA,sdfdsf,NA,1,NA,NA,NA,NA,NA,NA,NA,NA,NA,NA,NA,NA,NA,NA,NA,NA,NA,NA,NA
8366b,shallow,flow.Sequence,3_0_1_0_0_1,NA,NA,skipped,NA,192064.70000005,NA,NA,192062.4,192064.89999998,2024-02-28T17:09:01Z,192079,NULL,Können,unaweza,d,NA,NA,NA,NA,sdfdsf,NA,1,NA,NA,NA,NA,NA,NA,NA,NA,NA,NA,NA,NA,NA,NA,NA,NA,NA,NA,NA
8366b,task,flow.Sequence,3_0_1_0_0,NA,NA,completion,8394.536,183667.70000005,183667.864,183667.864,192062.4,192065.30000007,2024-02-28T17:09:01Z,192079,NULL,Können,unaweza,d,NA,NA,NA,NA,sdfdsf,NA,1,NA,NA,NA,NA,NA,NA,NA,NA,NA,NA,NA,NA,NA,NA,NA,NA,NA,NA,NA
8366b,deep,flow.Sequence,3_0_1_0_1_0,NA,NA,skipped,NA,192065.39999998,NA,NA,192062.4,192065.60000002,2024-02-28T17:09:01Z,192079,NULL,Stimmung,kinyongo,s,kilekile,kisambo,madhehebu,NA,sdfdsf,NA,1,NA,NA,NA,NA,NA,NA,NA,NA,NA,NA,NA,NA,NA,NA,NA,NA,NA,NA,NA
8366b,Shallow Question,html.Page,3_0_1_0_1_1_0,NA,NA,form submission,5023,192065.70000005,192062.4,192079,197102,197102.10000002,2024-02-28T17:09:06Z,197109.626,NULL,Stimmung,kinyongo,s,kilekile,kisambo,madhehebu,kinyongo,NA,NA,1,NA,NA,NA,NA,NA,NA,NA,NA,NA,NA,NA,NA,NA,NA,NA,NA,NA,NA,NA
8366b,"""Richtig""-Screen",canvas.Screen,3_0_1_0_1_1_1,NA,NA,timeout,4996.574,197103.60000002,197109.626,197109.626,202089.9,202091.30000007,2024-02-28T17:09:11Z,202106.2,NULL,Stimmung,kinyongo,s,kilekile,kisambo,madhehebu,NA,sdfdsf,1,1,NA,NA,NA,NA,NA,NA,NA,NA,NA,NA,NA,NA,NA,NA,NA,NA,NA,NA,NA
8366b,"""Falsch""-Screen",canvas.Screen,3_0_1_0_1_1_2,NA,NA,skipped,NA,202097.20000005,NA,NA,202089.9,202097.5,2024-02-28T17:09:11Z,202106.2,NULL,Stimmung,kinyongo,s,kilekile,kisambo,madhehebu,NA,sdfdsf,NA,1,NA,NA,NA,NA,NA,NA,NA,NA,NA,NA,NA,NA,NA,NA,NA,NA,NA,NA,NA
8366b,shallow,flow.Sequence,3_0_1_0_1_1,NA,NA,completion,10010.9,192065.70000005,192062.4,192079,202089.9,202097.80000007,2024-02-28T17:09:11Z,202106.2,NULL,Stimmung,kinyongo,s,kilekile,kisambo,madhehebu,NA,sdfdsf,NA,1,NA,NA,NA,NA,NA,NA,NA,NA,NA,NA,NA,NA,NA,NA,NA,NA,NA,NA,NA
8366b,task,flow.Sequence,3_0_1_0_1,NA,NA,completion,10010.9,192065.39999998,192062.4,192079,202089.9,202098.10000002,2024-02-28T17:09:11Z,202106.2,NULL,Stimmung,kinyongo,s,kilekile,kisambo,madhehebu,NA,sdfdsf,NA,1,NA,NA,NA,NA,NA,NA,NA,NA,NA,NA,NA,NA,NA,NA,NA,NA,NA,NA,NA
8366b,Deep Question,html.Page,3_0_1_0_2_0_0,NA,NA,form submission,4907.3,202098.39999998,202089.9,202106.2,207013.5,207013.70000005,2024-02-28T17:09:16Z,207019.8,NULL,Kreativität,ubunifu,d,NA,NA,NA,ufu,NA,NA,1,NA,NA,NA,NA,NA,NA,NA,NA,NA,NA,NA,NA,NA,NA,NA,NA,NA,NA,NA
8366b,"""Richtig""-Screen",canvas.Screen,3_0_1_0_2_0_1,NA,NA,skipped,NA,207016.80000007,NA,NA,207013.5,207016.89999998,2024-02-28T17:09:16Z,207019.8,NULL,Kreativität,ubunifu,d,NA,NA,NA,NA,sdfdsf,NA,1,NA,NA,NA,NA,NA,NA,NA,NA,NA,NA,NA,NA,NA,NA,NA,NA,NA,NA,NA
8366b,"""Falsch""-Screen",canvas.Screen,3_0_1_0_2_0_2,NA,NA,timeout,4997.3,207017.60000002,207003.69,207019.8,212000.2,212001.70000005,2024-02-28T17:09:21Z,212017.1,NULL,Kreativität,ubunifu,d,NA,NA,NA,NA,sdfdsf,0,1,NA,NA,NA,NA,NA,NA,NA,NA,NA,NA,NA,NA,NA,NA,NA,NA,NA,NA,NA
8366b,deep,flow.Sequence,3_0_1_0_2_0,NA,NA,completion,9894,202098.30000007,202089.9,202106.2,212000.2,212002.10000002,2024-02-28T17:09:21Z,212017.1,NULL,Kreativität,ubunifu,d,NA,NA,NA,NA,sdfdsf,NA,1,NA,NA,NA,NA,NA,NA,NA,NA,NA,NA,NA,NA,NA,NA,NA,NA,NA,NA,NA
8366b,shallow,flow.Sequence,3_0_1_0_2_1,NA,NA,skipped,NA,212002.20000005,NA,NA,212000.2,212002.39999998,2024-02-28T17:09:21Z,212017.1,NULL,Kreativität,ubunifu,d,NA,NA,NA,NA,sdfdsf,NA,1,NA,NA,NA,NA,NA,NA,NA,NA,NA,NA,NA,NA,NA,NA,NA,NA,NA,NA,NA
8366b,task,flow.Sequence,3_0_1_0_2,NA,NA,completion,9894,202098.30000007,202089.9,202106.2,212000.2,212002.60000002,2024-02-28T17:09:21Z,212017.1,NULL,Kreativität,ubunifu,d,NA,NA,NA,NA,sdfdsf,NA,1,NA,NA,NA,NA,NA,NA,NA,NA,NA,NA,NA,NA,NA,NA,NA,NA,NA,NA,NA
8366b,deep,flow.Sequence,3_0_1_0_3_0,NA,NA,skipped,NA,212002.80000007,NA,NA,212000.2,212003,2024-02-28T17:09:21Z,212017.1,NULL,Gefährdung,kuhatarisha,s,uchokozi,udhaifu,makorowezo,NA,sdfdsf,NA,1,NA,NA,NA,NA,NA,NA,NA,NA,NA,NA,NA,NA,NA,NA,NA,NA,NA,NA,NA
8366b,Shallow Question,html.Page,3_0_1_0_3_1_0,NA,NA,form submission,8435.2999999762,212003.20000005,212000.2,212017.1,220452.39999998,220452.70000005,2024-02-28T17:09:30Z,220461.6,NULL,Gefährdung,kuhatarisha,s,uchokozi,udhaifu,makorowezo,kuhatarisha,NA,NA,1,NA,NA,NA,NA,NA,NA,NA,NA,NA,NA,NA,NA,NA,NA,NA,NA,NA,NA,NA
8366b,"""Richtig""-Screen",canvas.Screen,3_0_1_0_3_1_1,NA,NA,timeout,4996.9,220455.89999998,220445.49,220461.6,225442.2,225443.20000005,2024-02-28T17:09:35Z,225458.5,NULL,Gefährdung,kuhatarisha,s,uchokozi,udhaifu,makorowezo,NA,sdfdsf,1,1,NA,NA,NA,NA,NA,NA,NA,NA,NA,NA,NA,NA,NA,NA,NA,NA,NA,NA,NA
8366b,"""Falsch""-Screen",canvas.Screen,3_0_1_0_3_1_2,NA,NA,skipped,NA,225448.20000005,NA,NA,225442.2,225448.30000007,2024-02-28T17:09:35Z,225458.5,NULL,Gefährdung,kuhatarisha,s,uchokozi,udhaifu,makorowezo,NA,sdfdsf,NA,1,NA,NA,NA,NA,NA,NA,NA,NA,NA,NA,NA,NA,NA,NA,NA,NA,NA,NA,NA
8366b,shallow,flow.Sequence,3_0_1_0_3_1,NA,NA,completion,13425.1,212003,212000.2,212017.1,225442.2,225448.39999998,2024-02-28T17:09:35Z,225458.5,NULL,Gefährdung,kuhatarisha,s,uchokozi,udhaifu,makorowezo,NA,sdfdsf,NA,1,NA,NA,NA,NA,NA,NA,NA,NA,NA,NA,NA,NA,NA,NA,NA,NA,NA,NA,NA
8366b,task,flow.Sequence,3_0_1_0_3,NA,NA,completion,13425.1,212002.80000007,212000.2,212017.1,225442.2,225448.39999998,2024-02-28T17:09:35Z,225458.5,NULL,Gefährdung,kuhatarisha,s,uchokozi,udhaifu,makorowezo,NA,sdfdsf,NA,1,NA,NA,NA,NA,NA,NA,NA,NA,NA,NA,NA,NA,NA,NA,NA,NA,NA,NA,NA
8366b,Deep Question,html.Page,3_0_1_0_4_0_0,NA,NA,form submission,3404.3999999762,225448.60000002,225442.2,225458.5,228862.89999998,228863.20000005,2024-02-28T17:09:38Z,228873.1,NULL,Respekt,heshima,d,NA,NA,NA,er,NA,NA,1,NA,NA,NA,NA,NA,NA,NA,NA,NA,NA,NA,NA,NA,NA,NA,NA,NA,NA,NA
8366b,"""Richtig""-Screen",canvas.Screen,3_0_1_0_4_0_1,NA,NA,skipped,NA,228866.20000005,NA,NA,228862.89999998,228866.39999998,2024-02-28T17:09:38Z,228873.1,NULL,Respekt,heshima,d,NA,NA,NA,NA,sdfdsf,NA,1,NA,NA,NA,NA,NA,NA,NA,NA,NA,NA,NA,NA,NA,NA,NA,NA,NA,NA,NA
8366b,"""Falsch""-Screen",canvas.Screen,3_0_1_0_4_0_2,NA,NA,timeout,4997.1,228867.20000005,228857.162,228873.1,233853.7,233855.20000005,2024-02-28T17:09:43Z,233870.2,NULL,Respekt,heshima,d,NA,NA,NA,NA,sdfdsf,0,1,NA,NA,NA,NA,NA,NA,NA,NA,NA,NA,NA,NA,NA,NA,NA,NA,NA,NA,NA
8366b,deep,flow.Sequence,3_0_1_0_4_0,NA,NA,completion,8395.2,225448.60000002,225442.2,225458.5,233853.7,233856.10000002,2024-02-28T17:09:43Z,233870.2,NULL,Respekt,heshima,d,NA,NA,NA,NA,sdfdsf,NA,1,NA,NA,NA,NA,NA,NA,NA,NA,NA,NA,NA,NA,NA,NA,NA,NA,NA,NA,NA
8366b,shallow,flow.Sequence,3_0_1_0_4_1,NA,NA,skipped,NA,233856.5,NA,NA,233853.7,233856.80000007,2024-02-28T17:09:43Z,233870.2,NULL,Respekt,heshima,d,NA,NA,NA,NA,sdfdsf,NA,1,NA,NA,NA,NA,NA,NA,NA,NA,NA,NA,NA,NA,NA,NA,NA,NA,NA,NA,NA
8366b,task,flow.Sequence,3_0_1_0_4,NA,NA,completion,8395.2,225448.5,225442.2,225458.5,233853.7,233857.30000007,2024-02-28T17:09:43Z,233870.2,NULL,Respekt,heshima,d,NA,NA,NA,NA,sdfdsf,NA,1,NA,NA,NA,NA,NA,NA,NA,NA,NA,NA,NA,NA,NA,NA,NA,NA,NA,NA,NA
8366b,Deep Question,html.Page,3_0_1_0_5_0_0,NA,NA,form submission,4313.5000000477,233858,233853.7,233870.2,238183.70000005,238183.89999998,2024-02-28T17:09:47Z,238201.1,NULL,Orientierung,urekebisho,d,NA,NA,NA,er,NA,NA,1,NA,NA,NA,NA,NA,NA,NA,NA,NA,NA,NA,NA,NA,NA,NA,NA,NA,NA,NA
8366b,"""Richtig""-Screen",canvas.Screen,3_0_1_0_5_0_1,NA,NA,skipped,NA,238185.60000002,NA,NA,238183.70000005,238185.70000005,2024-02-28T17:09:47Z,238201.1,NULL,Orientierung,urekebisho,d,NA,NA,NA,NA,sdfdsf,NA,1,NA,NA,NA,NA,NA,NA,NA,NA,NA,NA,NA,NA,NA,NA,NA,NA,NA,NA,NA
8366b,"""Falsch""-Screen",canvas.Screen,3_0_1_0_5_0_2,NA,NA,timeout,4996.6,238186.30000007,238171.1,238201.1,243181.4,243182.39999998,2024-02-28T17:09:52Z,243197.7,NULL,Orientierung,urekebisho,d,NA,NA,NA,NA,sdfdsf,0,1,NA,NA,NA,NA,NA,NA,NA,NA,NA,NA,NA,NA,NA,NA,NA,NA,NA,NA,NA
8366b,deep,flow.Sequence,3_0_1_0_5_0,NA,NA,completion,9311.2,233857.60000002,233853.7,233870.2,243181.4,243182.80000007,2024-02-28T17:09:52Z,243197.7,NULL,Orientierung,urekebisho,d,NA,NA,NA,NA,sdfdsf,NA,1,NA,NA,NA,NA,NA,NA,NA,NA,NA,NA,NA,NA,NA,NA,NA,NA,NA,NA,NA
8366b,shallow,flow.Sequence,3_0_1_0_5_1,NA,NA,skipped,NA,243183,NA,NA,243181.4,243183.10000002,2024-02-28T17:09:52Z,243197.7,NULL,Orientierung,urekebisho,d,NA,NA,NA,NA,sdfdsf,NA,1,NA,NA,NA,NA,NA,NA,NA,NA,NA,NA,NA,NA,NA,NA,NA,NA,NA,NA,NA
8366b,task,flow.Sequence,3_0_1_0_5,NA,NA,completion,9311.2,233857.5,233853.7,233870.2,243181.4,243183.39999998,2024-02-28T17:09:52Z,243197.7,NULL,Orientierung,urekebisho,d,NA,NA,NA,NA,sdfdsf,NA,1,NA,NA,NA,NA,NA,NA,NA,NA,NA,NA,NA,NA,NA,NA,NA,NA,NA,NA,NA
8366b,deep,flow.Sequence,3_0_1_0_6_0,NA,NA,skipped,NA,243183.60000002,NA,NA,243181.4,243183.80000007,2024-02-28T17:09:52Z,243197.7,NULL,Betrüger,mdanganyifu,s,mwanamuziki,wastani,mahakama,NA,sdfdsf,NA,1,NA,NA,NA,NA,NA,NA,NA,NA,NA,NA,NA,NA,NA,NA,NA,NA,NA,NA,NA
8366b,Shallow Question,html.Page,3_0_1_0_6_1_0,NA,NA,form submission,7529.6000000715,243183.89999998,243181.4,243197.7,250727.30000007,250727.60000002,2024-02-28T17:10:00Z,250743.3,NULL,Betrüger,mdanganyifu,s,mwanamuziki,wastani,mahakama,mdanganyifu,NA,NA,1,NA,NA,NA,NA,NA,NA,NA,NA,NA,NA,NA,NA,NA,NA,NA,NA,NA,NA,NA
8366b,"""Richtig""-Screen",canvas.Screen,3_0_1_0_6_1_1,NA,NA,timeout,4996.7,250730.89999998,250728.062,250743.3,255723.3,255724.39999998,2024-02-28T17:10:05Z,255740,NULL,Betrüger,mdanganyifu,s,mwanamuziki,wastani,mahakama,NA,sdfdsf,1,1,NA,NA,NA,NA,NA,NA,NA,NA,NA,NA,NA,NA,NA,NA,NA,NA,NA,NA,NA
8366b,"""Falsch""-Screen",canvas.Screen,3_0_1_0_6_1_2,NA,NA,skipped,NA,255728.70000005,NA,NA,255723.3,255728.80000007,2024-02-28T17:10:05Z,255740,NULL,Betrüger,mdanganyifu,s,mwanamuziki,wastani,mahakama,NA,sdfdsf,NA,1,NA,NA,NA,NA,NA,NA,NA,NA,NA,NA,NA,NA,NA,NA,NA,NA,NA,NA,NA
8366b,shallow,flow.Sequence,3_0_1_0_6_1,NA,NA,completion,12525.6,243183.89999998,243181.4,243197.7,255723.3,255729.10000002,2024-02-28T17:10:05Z,255740,NULL,Betrüger,mdanganyifu,s,mwanamuziki,wastani,mahakama,NA,sdfdsf,NA,1,NA,NA,NA,NA,NA,NA,NA,NA,NA,NA,NA,NA,NA,NA,NA,NA,NA,NA,NA
8366b,task,flow.Sequence,3_0_1_0_6,NA,NA,completion,12525.6,243183.5,243181.4,243197.7,255723.3,255729.30000007,2024-02-28T17:10:05Z,255740,NULL,Betrüger,mdanganyifu,s,mwanamuziki,wastani,mahakama,NA,sdfdsf,NA,1,NA,NA,NA,NA,NA,NA,NA,NA,NA,NA,NA,NA,NA,NA,NA,NA,NA,NA,NA
8366b,deep,flow.Sequence,3_0_1_0_7_0,NA,NA,skipped,NA,255729.5,NA,NA,255723.3,255729.5,2024-02-28T17:10:05Z,255740,NULL,Kontrolle,kudhibiti,s,mbinguni,kufunga,utegemezi,NA,sdfdsf,NA,1,NA,NA,NA,NA,NA,NA,NA,NA,NA,NA,NA,NA,NA,NA,NA,NA,NA,NA,NA
8366b,Shallow Question,html.Page,3_0_1_0_7_1_0,NA,NA,form submission,7291.2000000477,255729.60000002,255723.3,255740,263031.20000005,263031.39999998,2024-02-28T17:10:12Z,263035.6,NULL,Kontrolle,kudhibiti,s,mbinguni,kufunga,utegemezi,kufunga,NA,NA,1,NA,NA,NA,NA,NA,NA,NA,NA,NA,NA,NA,NA,NA,NA,NA,NA,NA,NA,NA
8366b,"""Richtig""-Screen",canvas.Screen,3_0_1_0_7_1_1,NA,NA,skipped,NA,263034.60000002,NA,NA,263031.20000005,263034.80000007,2024-02-28T17:10:12Z,263035.6,NULL,Kontrolle,kudhibiti,s,mbinguni,kufunga,utegemezi,NA,sdfdsf,NA,1,NA,NA,NA,NA,NA,NA,NA,NA,NA,NA,NA,NA,NA,NA,NA,NA,NA,NA,NA
8366b,"""Falsch""-Screen",canvas.Screen,3_0_1_0_7_1_2,NA,NA,timeout,4997.3,263035.20000005,263019.5,263035.6,268016.2,268017.10000002,2024-02-28T17:10:17Z,268032.9,NULL,Kontrolle,kudhibiti,s,mbinguni,kufunga,utegemezi,NA,sdfdsf,0,1,NA,NA,NA,NA,NA,NA,NA,NA,NA,NA,NA,NA,NA,NA,NA,NA,NA,NA,NA
8366b,shallow,flow.Sequence,3_0_1_0_7_1,NA,NA,completion,12276.2,255729.60000002,255723.3,255740,268016.2,268017.60000002,2024-02-28T17:10:17Z,268032.9,NULL,Kontrolle,kudhibiti,s,mbinguni,kufunga,utegemezi,NA,sdfdsf,NA,1,NA,NA,NA,NA,NA,NA,NA,NA,NA,NA,NA,NA,NA,NA,NA,NA,NA,NA,NA
8366b,task,flow.Sequence,3_0_1_0_7,NA,NA,completion,12276.2,255729.39999998,255723.3,255740,268016.2,268017.89999998,2024-02-28T17:10:17Z,268032.9,NULL,Kontrolle,kudhibiti,s,mbinguni,kufunga,utegemezi,NA,sdfdsf,NA,1,NA,NA,NA,NA,NA,NA,NA,NA,NA,NA,NA,NA,NA,NA,NA,NA,NA,NA,NA
8366b,block,flow.Loop,3_0_1_0,NA,NA,completion,84348.336,183667.70000005,183667.864,183667.864,268016.2,268018.20000005,2024-02-28T17:10:17Z,268032.9,NULL,NA,NA,NA,NA,NA,NA,NA,sdfdsf,NA,1,NA,NA,NA,NA,NA,NA,NA,NA,NA,NA,NA,NA,NA,NA,NA,NA,NA,NA,NA
8366b,weiter,canvas.Screen,3_0_1_1,sdf,keypress(Space),response,1334.8000000477,268018.30000007,268016.2,268032.9,269367.70000005,269368.70000005,2024-02-28T17:10:19Z,269398.398,NULL,NA,NA,NA,NA,NA,NA,NA,sdfdsf,NA,1,NA,NA,NA,NA,NA,NA,NA,NA,NA,NA,NA,NA,NA,NA,NA,NA,NA,NA,NA
8366b,check continue,flow.Sequence,3_0_1,NA,NA,completion,85699.836000048,183667.70000005,183667.864,183667.864,269367.70000005,269369,2024-02-28T17:10:19Z,269398.398,NULL,NA,NA,NA,NA,NA,NA,NA,sdfdsf,NA,1,NA,NA,NA,NA,NA,NA,NA,NA,NA,NA,NA,NA,NA,NA,NA,NA,NA,NA,NA
8366b,deep,flow.Sequence,3_0_2_0_0_0,NA,NA,skipped,NA,269410.30000007,NA,NA,269367.70000005,269410.30000007,2024-02-28T17:10:19Z,269398.398,NULL,Gefährdung,kuhatarisha,s,uchokozi,udhaifu,makorowezo,NA,sdf,NA,2,NA,NA,NA,NA,NA,NA,NA,NA,NA,NA,NA,NA,NA,NA,NA,NA,NA,NA,NA
8366b,Shallow Question,html.Page,3_0_2_0_0_1_0,NA,NA,form submission,6596.9020000715,269410.39999998,269398.398,269398.398,275995.30000007,275995.60000002,2024-02-28T17:10:25Z,276011.1,NULL,Gefährdung,kuhatarisha,s,uchokozi,udhaifu,makorowezo,kuhatarisha,NA,NA,2,NA,NA,NA,NA,NA,NA,NA,NA,NA,NA,NA,NA,NA,NA,NA,NA,NA,NA,NA
8366b,"""Richtig""-Screen",canvas.Screen,3_0_2_0_0_1_1,NA,NA,timeout,4996.9,275998.20000005,275994.794,276011.1,280991.3,280993.5,2024-02-28T17:10:30Z,281008,NULL,Gefährdung,kuhatarisha,s,uchokozi,udhaifu,makorowezo,NA,sdf,1,2,NA,NA,NA,NA,NA,NA,NA,NA,NA,NA,NA,NA,NA,NA,NA,NA,NA,NA,NA
8366b,"""Falsch""-Screen",canvas.Screen,3_0_2_0_0_1_2,NA,NA,skipped,NA,280999.20000005,NA,NA,280991.3,280999.39999998,2024-02-28T17:10:30Z,281008,NULL,Gefährdung,kuhatarisha,s,uchokozi,udhaifu,makorowezo,NA,sdf,NA,2,NA,NA,NA,NA,NA,NA,NA,NA,NA,NA,NA,NA,NA,NA,NA,NA,NA,NA,NA
8366b,shallow,flow.Sequence,3_0_2_0_0_1,NA,NA,completion,11592.902,269410.39999998,269398.398,269398.398,280991.3,280999.80000007,2024-02-28T17:10:30Z,281008,NULL,Gefährdung,kuhatarisha,s,uchokozi,udhaifu,makorowezo,NA,sdf,NA,2,NA,NA,NA,NA,NA,NA,NA,NA,NA,NA,NA,NA,NA,NA,NA,NA,NA,NA,NA
8366b,task,flow.Sequence,3_0_2_0_0,NA,NA,completion,11592.902,269410.30000007,269398.398,269398.398,280991.3,281000,2024-02-28T17:10:30Z,281008,NULL,Gefährdung,kuhatarisha,s,uchokozi,udhaifu,makorowezo,NA,sdf,NA,2,NA,NA,NA,NA,NA,NA,NA,NA,NA,NA,NA,NA,NA,NA,NA,NA,NA,NA,NA
8366b,deep,flow.Sequence,3_0_2_0_1_0,NA,NA,skipped,NA,281000.30000007,NA,NA,280991.3,281000.39999998,2024-02-28T17:10:30Z,281008,NULL,Stimmung,kinyongo,s,kilekile,kisambo,madhehebu,NA,sdf,NA,2,NA,NA,NA,NA,NA,NA,NA,NA,NA,NA,NA,NA,NA,NA,NA,NA,NA,NA,NA
8366b,Shallow Question,html.Page,3_0_2_0_1_1_0,NA,NA,form submission,4959.6000000238,281000.60000002,280991.3,281008,285967.60000002,285967.80000007,2024-02-28T17:10:35Z,285971.958,NULL,Stimmung,kinyongo,s,kilekile,kisambo,madhehebu,kinyongo,NA,NA,2,NA,NA,NA,NA,NA,NA,NA,NA,NA,NA,NA,NA,NA,NA,NA,NA,NA,NA,NA
8366b,"""Richtig""-Screen",canvas.Screen,3_0_2_0_1_1_1,NA,NA,timeout,4996.542,285970.70000005,285971.958,285971.958,290952,290953,2024-02-28T17:10:40Z,290968.5,NULL,Stimmung,kinyongo,s,kilekile,kisambo,madhehebu,NA,sdf,1,2,NA,NA,NA,NA,NA,NA,NA,NA,NA,NA,NA,NA,NA,NA,NA,NA,NA,NA,NA
8366b,"""Falsch""-Screen",canvas.Screen,3_0_2_0_1_1_2,NA,NA,skipped,NA,290958.30000007,NA,NA,290952,290958.5,2024-02-28T17:10:40Z,290968.5,NULL,Stimmung,kinyongo,s,kilekile,kisambo,madhehebu,NA,sdf,NA,2,NA,NA,NA,NA,NA,NA,NA,NA,NA,NA,NA,NA,NA,NA,NA,NA,NA,NA,NA
8366b,shallow,flow.Sequence,3_0_2_0_1_1,NA,NA,completion,9944,281000.5,280991.3,281008,290952,290958.80000007,2024-02-28T17:10:40Z,290968.5,NULL,Stimmung,kinyongo,s,kilekile,kisambo,madhehebu,NA,sdf,NA,2,NA,NA,NA,NA,NA,NA,NA,NA,NA,NA,NA,NA,NA,NA,NA,NA,NA,NA,NA
8366b,task,flow.Sequence,3_0_2_0_1,NA,NA,completion,9944,281000.20000005,280991.3,281008,290952,290959,2024-02-28T17:10:40Z,290968.5,NULL,Stimmung,kinyongo,s,kilekile,kisambo,madhehebu,NA,sdf,NA,2,NA,NA,NA,NA,NA,NA,NA,NA,NA,NA,NA,NA,NA,NA,NA,NA,NA,NA,NA
8366b,Deep Question,html.Page,3_0_2_0_2_0_0,NA,NA,form submission,7504.8000000715,290959.20000005,290952,290968.5,298473.30000007,298473.60000002,2024-02-28T17:10:48Z,298480.4,NULL,Kreativität,ubunifu,d,NA,NA,NA,ufdahbhib,NA,NA,2,NA,NA,NA,NA,NA,NA,NA,NA,NA,NA,NA,NA,NA,NA,NA,NA,NA,NA,NA
8366b,"""Richtig""-Screen",canvas.Screen,3_0_2_0_2_0_1,NA,NA,skipped,NA,298476.70000005,NA,NA,298473.30000007,298476.80000007,2024-02-28T17:10:48Z,298480.4,NULL,Kreativität,ubunifu,d,NA,NA,NA,NA,sdf,NA,2,NA,NA,NA,NA,NA,NA,NA,NA,NA,NA,NA,NA,NA,NA,NA,NA,NA,NA,NA
8366b,"""Falsch""-Screen",canvas.Screen,3_0_2_0_2_0_2,NA,NA,timeout,4997.2,298477.5,298464.494,298480.4,303461.2,303462.20000005,2024-02-28T17:10:53Z,303477.6,NULL,Kreativität,ubunifu,d,NA,NA,NA,NA,sdf,0,2,NA,NA,NA,NA,NA,NA,NA,NA,NA,NA,NA,NA,NA,NA,NA,NA,NA,NA,NA
8366b,deep,flow.Sequence,3_0_2_0_2_0,NA,NA,completion,12492.7,290959.20000005,290952,290968.5,303461.2,303462.60000002,2024-02-28T17:10:53Z,303477.6,NULL,Kreativität,ubunifu,d,NA,NA,NA,NA,sdf,NA,2,NA,NA,NA,NA,NA,NA,NA,NA,NA,NA,NA,NA,NA,NA,NA,NA,NA,NA,NA
8366b,shallow,flow.Sequence,3_0_2_0_2_1,NA,NA,skipped,NA,303462.80000007,NA,NA,303461.2,303463,2024-02-28T17:10:53Z,303477.6,NULL,Kreativität,ubunifu,d,NA,NA,NA,NA,sdf,NA,2,NA,NA,NA,NA,NA,NA,NA,NA,NA,NA,NA,NA,NA,NA,NA,NA,NA,NA,NA
8366b,task,flow.Sequence,3_0_2_0_2,NA,NA,completion,12492.7,290959.20000005,290952,290968.5,303461.2,303463.20000005,2024-02-28T17:10:53Z,303477.6,NULL,Kreativität,ubunifu,d,NA,NA,NA,NA,sdf,NA,2,NA,NA,NA,NA,NA,NA,NA,NA,NA,NA,NA,NA,NA,NA,NA,NA,NA,NA,NA
8366b,deep,flow.Sequence,3_0_2_0_3_0,NA,NA,skipped,NA,303463.39999998,NA,NA,303461.2,303463.5,2024-02-28T17:10:53Z,303477.6,NULL,Kontrolle,kudhibiti,s,mbinguni,kufunga,utegemezi,NA,sdf,NA,2,NA,NA,NA,NA,NA,NA,NA,NA,NA,NA,NA,NA,NA,NA,NA,NA,NA,NA,NA
8366b,Shallow Question,html.Page,3_0_2_0_3_1_0,NA,NA,form submission,11949.9,303463.60000002,303461.2,303477.6,315427.5,315427.70000005,2024-02-28T17:11:05Z,315437,NULL,Kontrolle,kudhibiti,s,mbinguni,kufunga,utegemezi,kudhibiti,NA,NA,2,NA,NA,NA,NA,NA,NA,NA,NA,NA,NA,NA,NA,NA,NA,NA,NA,NA,NA,NA
8366b,"""Richtig""-Screen",canvas.Screen,3_0_2_0_3_1_1,NA,NA,timeout,4996.8,315430.80000007,315420.688,315437,320417.5,320418.5,2024-02-28T17:11:10Z,320433.8,NULL,Kontrolle,kudhibiti,s,mbinguni,kufunga,utegemezi,NA,sdf,1,2,NA,NA,NA,NA,NA,NA,NA,NA,NA,NA,NA,NA,NA,NA,NA,NA,NA,NA,NA
8366b,"""Falsch""-Screen",canvas.Screen,3_0_2_0_3_1_2,NA,NA,skipped,NA,320424,NA,NA,320417.5,320424.30000007,2024-02-28T17:11:10Z,320433.8,NULL,Kontrolle,kudhibiti,s,mbinguni,kufunga,utegemezi,NA,sdf,NA,2,NA,NA,NA,NA,NA,NA,NA,NA,NA,NA,NA,NA,NA,NA,NA,NA,NA,NA,NA
8366b,shallow,flow.Sequence,3_0_2_0_3_1,NA,NA,completion,16939.9,303463.60000002,303461.2,303477.6,320417.5,320424.70000005,2024-02-28T17:11:10Z,320433.8,NULL,Kontrolle,kudhibiti,s,mbinguni,kufunga,utegemezi,NA,sdf,NA,2,NA,NA,NA,NA,NA,NA,NA,NA,NA,NA,NA,NA,NA,NA,NA,NA,NA,NA,NA
8366b,task,flow.Sequence,3_0_2_0_3,NA,NA,completion,16939.9,303463.30000007,303461.2,303477.6,320417.5,320424.89999998,2024-02-28T17:11:10Z,320433.8,NULL,Kontrolle,kudhibiti,s,mbinguni,kufunga,utegemezi,NA,sdf,NA,2,NA,NA,NA,NA,NA,NA,NA,NA,NA,NA,NA,NA,NA,NA,NA,NA,NA,NA,NA
8366b,Deep Question,html.Page,3_0_2_0_4_0_0,NA,NA,form submission,4871.3000000239,320425.10000002,320417.5,320433.8,325305.10000002,325305.30000007,2024-02-28T17:11:15Z,325314.3,NULL,Respekt,heshima,d,NA,NA,NA,er,NA,NA,2,NA,NA,NA,NA,NA,NA,NA,NA,NA,NA,NA,NA,NA,NA,NA,NA,NA,NA,NA
8366b,"""Richtig""-Screen",canvas.Screen,3_0_2_0_4_0_1,NA,NA,skipped,NA,325308.39999998,NA,NA,325305.10000002,325308.5,2024-02-28T17:11:15Z,325314.3,NULL,Respekt,heshima,d,NA,NA,NA,NA,sdf,NA,2,NA,NA,NA,NA,NA,NA,NA,NA,NA,NA,NA,NA,NA,NA,NA,NA,NA,NA,NA
8366b,"""Falsch""-Screen",canvas.Screen,3_0_2_0_4_0_2,NA,NA,timeout,4996.7,325309.10000002,325298.022,325314.3,330294.8,330295.80000007,2024-02-28T17:11:20Z,330311,NULL,Respekt,heshima,d,NA,NA,NA,NA,sdf,0,2,NA,NA,NA,NA,NA,NA,NA,NA,NA,NA,NA,NA,NA,NA,NA,NA,NA,NA,NA
8366b,deep,flow.Sequence,3_0_2_0_4_0,NA,NA,completion,9861,320425.10000002,320417.5,320433.8,330294.8,330296.30000007,2024-02-28T17:11:20Z,330311,NULL,Respekt,heshima,d,NA,NA,NA,NA,sdf,NA,2,NA,NA,NA,NA,NA,NA,NA,NA,NA,NA,NA,NA,NA,NA,NA,NA,NA,NA,NA
8366b,shallow,flow.Sequence,3_0_2_0_4_1,NA,NA,skipped,NA,330296.39999998,NA,NA,330294.8,330296.60000002,2024-02-28T17:11:20Z,330311,NULL,Respekt,heshima,d,NA,NA,NA,NA,sdf,NA,2,NA,NA,NA,NA,NA,NA,NA,NA,NA,NA,NA,NA,NA,NA,NA,NA,NA,NA,NA
8366b,task,flow.Sequence,3_0_2_0_4,NA,NA,completion,9861,320425,320417.5,320433.8,330294.8,330296.80000007,2024-02-28T17:11:20Z,330311,NULL,Respekt,heshima,d,NA,NA,NA,NA,sdf,NA,2,NA,NA,NA,NA,NA,NA,NA,NA,NA,NA,NA,NA,NA,NA,NA,NA,NA,NA,NA
8366b,Deep Question,html.Page,3_0_2_0_5_0_0,NA,NA,form submission,3405.8999999762,330297,330294.8,330311,333716.89999998,333717,2024-02-28T17:11:23Z,333725.6,NULL,Können,unaweza,d,NA,NA,NA,er,NA,NA,2,NA,NA,NA,NA,NA,NA,NA,NA,NA,NA,NA,NA,NA,NA,NA,NA,NA,NA,NA
8366b,"""Richtig""-Screen",canvas.Screen,3_0_2_0_5_0_1,NA,NA,skipped,NA,333719.80000007,NA,NA,333716.89999998,333720,2024-02-28T17:11:23Z,333725.6,NULL,Können,unaweza,d,NA,NA,NA,NA,sdf,NA,2,NA,NA,NA,NA,NA,NA,NA,NA,NA,NA,NA,NA,NA,NA,NA,NA,NA,NA,NA
8366b,"""Falsch""-Screen",canvas.Screen,3_0_2_0_5_0_2,NA,NA,timeout,4997.1,333720.70000005,333709.49,333725.6,338706.4,338707.30000007,2024-02-28T17:11:28Z,338722.7,NULL,Können,unaweza,d,NA,NA,NA,NA,sdf,0,2,NA,NA,NA,NA,NA,NA,NA,NA,NA,NA,NA,NA,NA,NA,NA,NA,NA,NA,NA
8366b,deep,flow.Sequence,3_0_2_0_5_0,NA,NA,completion,8395.4,330297,330294.8,330311,338706.4,338707.70000005,2024-02-28T17:11:28Z,338722.7,NULL,Können,unaweza,d,NA,NA,NA,NA,sdf,NA,2,NA,NA,NA,NA,NA,NA,NA,NA,NA,NA,NA,NA,NA,NA,NA,NA,NA,NA,NA
8366b,shallow,flow.Sequence,3_0_2_0_5_1,NA,NA,skipped,NA,338707.80000007,NA,NA,338706.4,338707.89999998,2024-02-28T17:11:28Z,338722.7,NULL,Können,unaweza,d,NA,NA,NA,NA,sdf,NA,2,NA,NA,NA,NA,NA,NA,NA,NA,NA,NA,NA,NA,NA,NA,NA,NA,NA,NA,NA
8366b,task,flow.Sequence,3_0_2_0_5,NA,NA,completion,8395.4,330296.89999998,330294.8,330311,338706.4,338708.20000005,2024-02-28T17:11:28Z,338722.7,NULL,Können,unaweza,d,NA,NA,NA,NA,sdf,NA,2,NA,NA,NA,NA,NA,NA,NA,NA,NA,NA,NA,NA,NA,NA,NA,NA,NA,NA,NA
8366b,deep,flow.Sequence,3_0_2_0_6_0,NA,NA,skipped,NA,338708.30000007,NA,NA,338706.4,338708.60000002,2024-02-28T17:11:28Z,338722.7,NULL,Betrüger,mdanganyifu,s,mwanamuziki,wastani,mahakama,NA,sdf,NA,2,NA,NA,NA,NA,NA,NA,NA,NA,NA,NA,NA,NA,NA,NA,NA,NA,NA,NA,NA
8366b,Shallow Question,html.Page,3_0_2_0_6_1_0,NA,NA,form submission,3987.4000000238,338708.80000007,338706.4,338722.7,342710.10000002,342710.20000005,2024-02-28T17:11:32Z,342720.3,NULL,Betrüger,mdanganyifu,s,mwanamuziki,wastani,mahakama,mdanganyifu,NA,NA,2,NA,NA,NA,NA,NA,NA,NA,NA,NA,NA,NA,NA,NA,NA,NA,NA,NA,NA,NA
8366b,"""Richtig""-Screen",canvas.Screen,3_0_2_0_6_1_1,NA,NA,timeout,4996.7,342711.70000005,342704,342720.3,347700.7,347702,2024-02-28T17:11:37Z,347717,NULL,Betrüger,mdanganyifu,s,mwanamuziki,wastani,mahakama,NA,sdf,1,2,NA,NA,NA,NA,NA,NA,NA,NA,NA,NA,NA,NA,NA,NA,NA,NA,NA,NA,NA
8366b,"""Falsch""-Screen",canvas.Screen,3_0_2_0_6_1_2,NA,NA,skipped,NA,347707.39999998,NA,NA,347700.7,347707.60000002,2024-02-28T17:11:37Z,347717,NULL,Betrüger,mdanganyifu,s,mwanamuziki,wastani,mahakama,NA,sdf,NA,2,NA,NA,NA,NA,NA,NA,NA,NA,NA,NA,NA,NA,NA,NA,NA,NA,NA,NA,NA
8366b,shallow,flow.Sequence,3_0_2_0_6_1,NA,NA,completion,8978,338708.60000002,338706.4,338722.7,347700.7,347707.89999998,2024-02-28T17:11:37Z,347717,NULL,Betrüger,mdanganyifu,s,mwanamuziki,wastani,mahakama,NA,sdf,NA,2,NA,NA,NA,NA,NA,NA,NA,NA,NA,NA,NA,NA,NA,NA,NA,NA,NA,NA,NA
8366b,task,flow.Sequence,3_0_2_0_6,NA,NA,completion,8978,338708.30000007,338706.4,338722.7,347700.7,347708.10000002,2024-02-28T17:11:37Z,347717,NULL,Betrüger,mdanganyifu,s,mwanamuziki,wastani,mahakama,NA,sdf,NA,2,NA,NA,NA,NA,NA,NA,NA,NA,NA,NA,NA,NA,NA,NA,NA,NA,NA,NA,NA
8366b,Deep Question,html.Page,3_0_2_0_7_0_0,NA,NA,form submission,6324,347708.39999998,347700.7,347717,354041,354041.10000002,2024-02-28T17:11:43Z,354046.4,NULL,Orientierung,urekebisho,d,NA,NA,NA,udhibi,NA,NA,2,NA,NA,NA,NA,NA,NA,NA,NA,NA,NA,NA,NA,NA,NA,NA,NA,NA,NA,NA
8366b,"""Richtig""-Screen",canvas.Screen,3_0_2_0_7_0_1,NA,NA,skipped,NA,354044.10000002,NA,NA,354041,354044.30000007,2024-02-28T17:11:43Z,354046.4,NULL,Orientierung,urekebisho,d,NA,NA,NA,NA,sdf,NA,2,NA,NA,NA,NA,NA,NA,NA,NA,NA,NA,NA,NA,NA,NA,NA,NA,NA,NA,NA
8366b,"""Falsch""-Screen",canvas.Screen,3_0_2_0_7_0_2,NA,NA,timeout,4997.3,354044.70000005,354030.39,354046.4,359027.1,359028,2024-02-28T17:11:48Z,359043.7,NULL,Orientierung,urekebisho,d,NA,NA,NA,NA,sdf,0,2,NA,NA,NA,NA,NA,NA,NA,NA,NA,NA,NA,NA,NA,NA,NA,NA,NA,NA,NA
8366b,deep,flow.Sequence,3_0_2_0_7_0,NA,NA,completion,11310.1,347708.39999998,347700.7,347717,359027.1,359028.5,2024-02-28T17:11:48Z,359043.7,NULL,Orientierung,urekebisho,d,NA,NA,NA,NA,sdf,NA,2,NA,NA,NA,NA,NA,NA,NA,NA,NA,NA,NA,NA,NA,NA,NA,NA,NA,NA,NA
8366b,shallow,flow.Sequence,3_0_2_0_7_1,NA,NA,skipped,NA,359028.60000002,NA,NA,359027.1,359028.70000005,2024-02-28T17:11:48Z,359043.7,NULL,Orientierung,urekebisho,d,NA,NA,NA,NA,sdf,NA,2,NA,NA,NA,NA,NA,NA,NA,NA,NA,NA,NA,NA,NA,NA,NA,NA,NA,NA,NA
8366b,task,flow.Sequence,3_0_2_0_7,NA,NA,completion,11310.1,347708.30000007,347700.7,347717,359027.1,359029,2024-02-28T17:11:48Z,359043.7,NULL,Orientierung,urekebisho,d,NA,NA,NA,NA,sdf,NA,2,NA,NA,NA,NA,NA,NA,NA,NA,NA,NA,NA,NA,NA,NA,NA,NA,NA,NA,NA
8366b,block,flow.Loop,3_0_2_0,NA,NA,completion,89628.702,269410.20000005,269398.398,269398.398,359027.1,359029.20000005,2024-02-28T17:11:48Z,359043.7,NULL,NA,NA,NA,NA,NA,NA,NA,sdf,NA,2,NA,NA,NA,NA,NA,NA,NA,NA,NA,NA,NA,NA,NA,NA,NA,NA,NA,NA,NA
8366b,weiter,canvas.Screen,3_0_2_1,sdf,keypress(Space),response,1442.6999999761,359029.39999998,359027.1,359043.7,360486.39999998,360487.39999998,2024-02-28T17:11:50Z,360510.034,NULL,NA,NA,NA,NA,NA,NA,NA,sdf,NA,2,NA,NA,NA,NA,NA,NA,NA,NA,NA,NA,NA,NA,NA,NA,NA,NA,NA,NA,NA
8366b,check continue,flow.Sequence,3_0_2,NA,NA,completion,91088.001999976,269410.20000005,269398.398,269398.398,360486.39999998,360487.89999998,2024-02-28T17:11:50Z,360510.034,NULL,NA,NA,NA,NA,NA,NA,NA,sdf,NA,2,NA,NA,NA,NA,NA,NA,NA,NA,NA,NA,NA,NA,NA,NA,NA,NA,NA,NA,NA
8366b,Deep Question,html.Page,3_0_3_0_0_0_0,NA,NA,form submission,6121.3659999762,360510.60000002,360510.034,360510.034,366631.39999998,366631.60000002,2024-02-28T17:11:56Z,366638.8,NULL,Kreativität,ubunifu,d,NA,NA,NA,udhubibi,NA,NA,3,NA,NA,NA,NA,NA,NA,NA,NA,NA,NA,NA,NA,NA,NA,NA,NA,NA,NA,NA
8366b,"""Richtig""-Screen",canvas.Screen,3_0_3_0_0_0_1,NA,NA,skipped,NA,366634.70000005,NA,NA,366631.39999998,366634.80000007,2024-02-28T17:11:56Z,366638.8,NULL,Kreativität,ubunifu,d,NA,NA,NA,NA,qt,NA,3,NA,NA,NA,NA,NA,NA,NA,NA,NA,NA,NA,NA,NA,NA,NA,NA,NA,NA,NA
8366b,"""Falsch""-Screen",canvas.Screen,3_0_3_0_0_0_2,NA,NA,timeout,4997.5,366635.70000005,366622.6,366638.8,371619.4,371620.39999998,2024-02-28T17:12:01Z,371636.3,NULL,Kreativität,ubunifu,d,NA,NA,NA,NA,qt,0,3,NA,NA,NA,NA,NA,NA,NA,NA,NA,NA,NA,NA,NA,NA,NA,NA,NA,NA,NA
8366b,deep,flow.Sequence,3_0_3_0_0_0,NA,NA,completion,11109.366,360510.60000002,360510.034,360510.034,371619.4,371620.89999998,2024-02-28T17:12:01Z,371636.3,NULL,Kreativität,ubunifu,d,NA,NA,NA,NA,qt,NA,3,NA,NA,NA,NA,NA,NA,NA,NA,NA,NA,NA,NA,NA,NA,NA,NA,NA,NA,NA
8366b,shallow,flow.Sequence,3_0_3_0_0_1,NA,NA,skipped,NA,371621,NA,NA,371619.4,371621.10000002,2024-02-28T17:12:01Z,371636.3,NULL,Kreativität,ubunifu,d,NA,NA,NA,NA,qt,NA,3,NA,NA,NA,NA,NA,NA,NA,NA,NA,NA,NA,NA,NA,NA,NA,NA,NA,NA,NA
8366b,task,flow.Sequence,3_0_3_0_0,NA,NA,completion,11109.366,360510.60000002,360510.034,360510.034,371619.4,371621.39999998,2024-02-28T17:12:01Z,371636.3,NULL,Kreativität,ubunifu,d,NA,NA,NA,NA,qt,NA,3,NA,NA,NA,NA,NA,NA,NA,NA,NA,NA,NA,NA,NA,NA,NA,NA,NA,NA,NA
8366b,Deep Question,html.Page,3_0_3_0_1_0_0,NA,NA,form submission,6799.9000000477,371621.70000005,371619.4,371636.3,378436.20000005,378436.60000002,2024-02-28T17:12:08Z,378448.5,NULL,Können,unaweza,d,NA,NA,NA,er,NA,NA,3,NA,NA,NA,NA,NA,NA,NA,NA,NA,NA,NA,NA,NA,NA,NA,NA,NA,NA,NA
8366b,"""Richtig""-Screen",canvas.Screen,3_0_3_0_1_0_1,NA,NA,skipped,NA,378439.80000007,NA,NA,378436.20000005,378439.89999998,2024-02-28T17:12:08Z,378448.5,NULL,Können,unaweza,d,NA,NA,NA,NA,qt,NA,3,NA,NA,NA,NA,NA,NA,NA,NA,NA,NA,NA,NA,NA,NA,NA,NA,NA,NA,NA
8366b,"""Falsch""-Screen",canvas.Screen,3_0_3_0_1_0_2,NA,NA,timeout,4997.1,378440.70000005,378432.1,378448.5,383428.8,383429.70000005,2024-02-28T17:12:13Z,383445.6,NULL,Können,unaweza,d,NA,NA,NA,NA,qt,0,3,NA,NA,NA,NA,NA,NA,NA,NA,NA,NA,NA,NA,NA,NA,NA,NA,NA,NA,NA
8366b,deep,flow.Sequence,3_0_3_0_1_0,NA,NA,completion,11792.5,371621.60000002,371619.4,371636.3,383428.8,383430.20000005,2024-02-28T17:12:13Z,383445.6,NULL,Können,unaweza,d,NA,NA,NA,NA,qt,NA,3,NA,NA,NA,NA,NA,NA,NA,NA,NA,NA,NA,NA,NA,NA,NA,NA,NA,NA,NA
8366b,shallow,flow.Sequence,3_0_3_0_1_1,NA,NA,skipped,NA,383430.30000007,NA,NA,383428.8,383430.5,2024-02-28T17:12:13Z,383445.6,NULL,Können,unaweza,d,NA,NA,NA,NA,qt,NA,3,NA,NA,NA,NA,NA,NA,NA,NA,NA,NA,NA,NA,NA,NA,NA,NA,NA,NA,NA
8366b,task,flow.Sequence,3_0_3_0_1,NA,NA,completion,11792.5,371621.5,371619.4,371636.3,383428.8,383430.70000005,2024-02-28T17:12:13Z,383445.6,NULL,Können,unaweza,d,NA,NA,NA,NA,qt,NA,3,NA,NA,NA,NA,NA,NA,NA,NA,NA,NA,NA,NA,NA,NA,NA,NA,NA,NA,NA
8366b,deep,flow.Sequence,3_0_3_0_2_0,NA,NA,skipped,NA,383430.89999998,NA,NA,383428.8,383431.10000002,2024-02-28T17:12:13Z,383445.6,NULL,Stimmung,kinyongo,s,kilekile,kisambo,madhehebu,NA,qt,NA,3,NA,NA,NA,NA,NA,NA,NA,NA,NA,NA,NA,NA,NA,NA,NA,NA,NA,NA,NA
8366b,Shallow Question,html.Page,3_0_3_0_2_1_0,NA,NA,form submission,7895.2999999762,383431.20000005,383428.8,383445.6,391340.89999998,391341.10000002,2024-02-28T17:12:21Z,391357.4,NULL,Stimmung,kinyongo,s,kilekile,kisambo,madhehebu,kinyongo,NA,NA,3,NA,NA,NA,NA,NA,NA,NA,NA,NA,NA,NA,NA,NA,NA,NA,NA,NA,NA,NA
8366b,"""Richtig""-Screen",canvas.Screen,3_0_3_0_2_1_1,NA,NA,timeout,4996.6,391344.30000007,391340.858,391357.4,396337.7,396338.70000005,2024-02-28T17:12:26Z,396354,NULL,Stimmung,kinyongo,s,kilekile,kisambo,madhehebu,NA,qt,1,3,NA,NA,NA,NA,NA,NA,NA,NA,NA,NA,NA,NA,NA,NA,NA,NA,NA,NA,NA
8366b,"""Falsch""-Screen",canvas.Screen,3_0_3_0_2_1_2,NA,NA,skipped,NA,396344.39999998,NA,NA,396337.7,396344.70000005,2024-02-28T17:12:26Z,396354,NULL,Stimmung,kinyongo,s,kilekile,kisambo,madhehebu,NA,qt,NA,3,NA,NA,NA,NA,NA,NA,NA,NA,NA,NA,NA,NA,NA,NA,NA,NA,NA,NA,NA
8366b,shallow,flow.Sequence,3_0_3_0_2_1,NA,NA,completion,12892.1,383431.20000005,383428.8,383445.6,396337.7,396345,2024-02-28T17:12:26Z,396354,NULL,Stimmung,kinyongo,s,kilekile,kisambo,madhehebu,NA,qt,NA,3,NA,NA,NA,NA,NA,NA,NA,NA,NA,NA,NA,NA,NA,NA,NA,NA,NA,NA,NA
8366b,task,flow.Sequence,3_0_3_0_2,NA,NA,completion,12892.1,383430.89999998,383428.8,383445.6,396337.7,396345.30000007,2024-02-28T17:12:26Z,396354,NULL,Stimmung,kinyongo,s,kilekile,kisambo,madhehebu,NA,qt,NA,3,NA,NA,NA,NA,NA,NA,NA,NA,NA,NA,NA,NA,NA,NA,NA,NA,NA,NA,NA
8366b,deep,flow.Sequence,3_0_3_0_3_0,NA,NA,skipped,NA,396345.5,NA,NA,396337.7,396345.60000002,2024-02-28T17:12:26Z,396354,NULL,Betrüger,mdanganyifu,s,mwanamuziki,wastani,mahakama,NA,qt,NA,3,NA,NA,NA,NA,NA,NA,NA,NA,NA,NA,NA,NA,NA,NA,NA,NA,NA,NA,NA
8366b,Shallow Question,html.Page,3_0_3_0_3_1_0,NA,NA,form submission,5123.2000000477,396345.80000007,396337.7,396354,401477.20000005,401477.5,2024-02-28T17:12:31Z,401484.1,NULL,Betrüger,mdanganyifu,s,mwanamuziki,wastani,mahakama,mdanganyifu,NA,NA,3,NA,NA,NA,NA,NA,NA,NA,NA,NA,NA,NA,NA,NA,NA,NA,NA,NA,NA,NA
8366b,"""Richtig""-Screen",canvas.Screen,3_0_3_0_3_1_1,NA,NA,timeout,4997.1,401480.60000002,401468.058,401484.1,406464.5,406465.60000002,2024-02-28T17:12:36Z,406481.2,NULL,Betrüger,mdanganyifu,s,mwanamuziki,wastani,mahakama,NA,qt,1,3,NA,NA,NA,NA,NA,NA,NA,NA,NA,NA,NA,NA,NA,NA,NA,NA,NA,NA,NA
8366b,"""Falsch""-Screen",canvas.Screen,3_0_3_0_3_1_2,NA,NA,skipped,NA,406470.10000002,NA,NA,406464.5,406470.10000002,2024-02-28T17:12:36Z,406481.2,NULL,Betrüger,mdanganyifu,s,mwanamuziki,wastani,mahakama,NA,qt,NA,3,NA,NA,NA,NA,NA,NA,NA,NA,NA,NA,NA,NA,NA,NA,NA,NA,NA,NA,NA
8366b,shallow,flow.Sequence,3_0_3_0_3_1,NA,NA,completion,10110.5,396345.80000007,396337.7,396354,406464.5,406470.30000007,2024-02-28T17:12:36Z,406481.2,NULL,Betrüger,mdanganyifu,s,mwanamuziki,wastani,mahakama,NA,qt,NA,3,NA,NA,NA,NA,NA,NA,NA,NA,NA,NA,NA,NA,NA,NA,NA,NA,NA,NA,NA
8366b,task,flow.Sequence,3_0_3_0_3,NA,NA,completion,10110.5,396345.39999998,396337.7,396354,406464.5,406470.30000007,2024-02-28T17:12:36Z,406481.2,NULL,Betrüger,mdanganyifu,s,mwanamuziki,wastani,mahakama,NA,qt,NA,3,NA,NA,NA,NA,NA,NA,NA,NA,NA,NA,NA,NA,NA,NA,NA,NA,NA,NA,NA
8366b,deep,flow.Sequence,3_0_3_0_4_0,NA,NA,skipped,NA,406470.39999998,NA,NA,406464.5,406470.5,2024-02-28T17:12:36Z,406481.2,NULL,Kontrolle,kudhibiti,s,mbinguni,kufunga,utegemezi,NA,qt,NA,3,NA,NA,NA,NA,NA,NA,NA,NA,NA,NA,NA,NA,NA,NA,NA,NA,NA,NA,NA
8366b,Shallow Question,html.Page,3_0_3_0_4_1_0,NA,NA,form submission,12225.8,406470.5,406464.5,406481.2,418707,418707.20000005,2024-02-28T17:12:48Z,418724.4,NULL,Kontrolle,kudhibiti,s,mbinguni,kufunga,utegemezi,kudhibiti,NA,NA,3,NA,NA,NA,NA,NA,NA,NA,NA,NA,NA,NA,NA,NA,NA,NA,NA,NA,NA,NA
8366b,"""Richtig""-Screen",canvas.Screen,3_0_3_0_4_1_1,NA,NA,timeout,4996.6,418710.5,418707.062,418724.4,423704.2,423705.30000007,2024-02-28T17:12:53Z,423721,NULL,Kontrolle,kudhibiti,s,mbinguni,kufunga,utegemezi,NA,qt,1,3,NA,NA,NA,NA,NA,NA,NA,NA,NA,NA,NA,NA,NA,NA,NA,NA,NA,NA,NA
8366b,"""Falsch""-Screen",canvas.Screen,3_0_3_0_4_1_2,NA,NA,skipped,NA,423710.10000002,NA,NA,423704.2,423710.20000005,2024-02-28T17:12:53Z,423721,NULL,Kontrolle,kudhibiti,s,mbinguni,kufunga,utegemezi,NA,qt,NA,3,NA,NA,NA,NA,NA,NA,NA,NA,NA,NA,NA,NA,NA,NA,NA,NA,NA,NA,NA
8366b,shallow,flow.Sequence,3_0_3_0_4_1,NA,NA,completion,17223,406470.5,406464.5,406481.2,423704.2,423710.39999998,2024-02-28T17:12:53Z,423721,NULL,Kontrolle,kudhibiti,s,mbinguni,kufunga,utegemezi,NA,qt,NA,3,NA,NA,NA,NA,NA,NA,NA,NA,NA,NA,NA,NA,NA,NA,NA,NA,NA,NA,NA
8366b,task,flow.Sequence,3_0_3_0_4,NA,NA,completion,17223,406470.39999998,406464.5,406481.2,423704.2,423710.39999998,2024-02-28T17:12:53Z,423721,NULL,Kontrolle,kudhibiti,s,mbinguni,kufunga,utegemezi,NA,qt,NA,3,NA,NA,NA,NA,NA,NA,NA,NA,NA,NA,NA,NA,NA,NA,NA,NA,NA,NA,NA
8366b,Deep Question,html.Page,3_0_3_0_5_0_0,NA,NA,form submission,5856.5,423710.39999998,423704.2,423721,429577.5,429577.60000002,2024-02-28T17:12:59Z,429583.6,NULL,Orientierung,urekebisho,d,NA,NA,NA,unaweza,NA,NA,3,NA,NA,NA,NA,NA,NA,NA,NA,NA,NA,NA,NA,NA,NA,NA,NA,NA,NA,NA
8366b,"""Richtig""-Screen",canvas.Screen,3_0_3_0_5_0_1,NA,NA,skipped,NA,429580.80000007,NA,NA,429577.5,429580.89999998,2024-02-28T17:12:59Z,429583.6,NULL,Orientierung,urekebisho,d,NA,NA,NA,NA,qt,NA,3,NA,NA,NA,NA,NA,NA,NA,NA,NA,NA,NA,NA,NA,NA,NA,NA,NA,NA,NA
8366b,"""Falsch""-Screen",canvas.Screen,3_0_3_0_5_0_2,NA,NA,timeout,4997.1,429581.39999998,429567.3,429583.6,434564.3,434565.20000005,2024-02-28T17:13:04Z,434580.7,NULL,Orientierung,urekebisho,d,NA,NA,NA,NA,qt,0,3,NA,NA,NA,NA,NA,NA,NA,NA,NA,NA,NA,NA,NA,NA,NA,NA,NA,NA,NA
8366b,deep,flow.Sequence,3_0_3_0_5_0,NA,NA,completion,10843.3,423710.39999998,423704.2,423721,434564.3,434565.60000002,2024-02-28T17:13:04Z,434580.7,NULL,Orientierung,urekebisho,d,NA,NA,NA,NA,qt,NA,3,NA,NA,NA,NA,NA,NA,NA,NA,NA,NA,NA,NA,NA,NA,NA,NA,NA,NA,NA
8366b,shallow,flow.Sequence,3_0_3_0_5_1,NA,NA,skipped,NA,434565.80000007,NA,NA,434564.3,434565.89999998,2024-02-28T17:13:04Z,434580.7,NULL,Orientierung,urekebisho,d,NA,NA,NA,NA,qt,NA,3,NA,NA,NA,NA,NA,NA,NA,NA,NA,NA,NA,NA,NA,NA,NA,NA,NA,NA,NA
8366b,task,flow.Sequence,3_0_3_0_5,NA,NA,completion,10843.3,423710.39999998,423704.2,423721,434564.3,434566.20000005,2024-02-28T17:13:04Z,434580.7,NULL,Orientierung,urekebisho,d,NA,NA,NA,NA,qt,NA,3,NA,NA,NA,NA,NA,NA,NA,NA,NA,NA,NA,NA,NA,NA,NA,NA,NA,NA,NA
8366b,Deep Question,html.Page,3_0_3_0_6_0_0,NA,NA,form submission,6700.4000000238,434566.39999998,434564.3,434580.7,441281.10000002,441281.5,2024-02-28T17:13:11Z,441293.1,NULL,Respekt,heshima,d,NA,NA,NA,unaweza,NA,NA,3,NA,NA,NA,NA,NA,NA,NA,NA,NA,NA,NA,NA,NA,NA,NA,NA,NA,NA,NA
8366b,"""Richtig""-Screen",canvas.Screen,3_0_3_0_6_0_1,NA,NA,skipped,NA,441290.20000005,NA,NA,441281.10000002,441290.39999998,2024-02-28T17:13:11Z,441293.1,NULL,Respekt,heshima,d,NA,NA,NA,NA,qt,NA,3,NA,NA,NA,NA,NA,NA,NA,NA,NA,NA,NA,NA,NA,NA,NA,NA,NA,NA,NA
8366b,"""Falsch""-Screen",canvas.Screen,3_0_3_0_6_0_2,NA,NA,timeout,4997.4,441290.89999998,441277,441293.1,446273.7,446274.60000002,2024-02-28T17:13:16Z,446290.5,NULL,Respekt,heshima,d,NA,NA,NA,NA,qt,0,3,NA,NA,NA,NA,NA,NA,NA,NA,NA,NA,NA,NA,NA,NA,NA,NA,NA,NA,NA
8366b,deep,flow.Sequence,3_0_3_0_6_0,NA,NA,completion,11693,434566.30000007,434564.3,434580.7,446273.7,446275.10000002,2024-02-28T17:13:16Z,446290.5,NULL,Respekt,heshima,d,NA,NA,NA,NA,qt,NA,3,NA,NA,NA,NA,NA,NA,NA,NA,NA,NA,NA,NA,NA,NA,NA,NA,NA,NA,NA
8366b,shallow,flow.Sequence,3_0_3_0_6_1,NA,NA,skipped,NA,446275.20000005,NA,NA,446273.7,446275.39999998,2024-02-28T17:13:16Z,446290.5,NULL,Respekt,heshima,d,NA,NA,NA,NA,qt,NA,3,NA,NA,NA,NA,NA,NA,NA,NA,NA,NA,NA,NA,NA,NA,NA,NA,NA,NA,NA
8366b,task,flow.Sequence,3_0_3_0_6,NA,NA,completion,11693,434566.30000007,434564.3,434580.7,446273.7,446275.60000002,2024-02-28T17:13:16Z,446290.5,NULL,Respekt,heshima,d,NA,NA,NA,NA,qt,NA,3,NA,NA,NA,NA,NA,NA,NA,NA,NA,NA,NA,NA,NA,NA,NA,NA,NA,NA,NA
8366b,deep,flow.Sequence,3_0_3_0_7_0,NA,NA,skipped,NA,446275.89999998,NA,NA,446273.7,446276,2024-02-28T17:13:16Z,446290.5,NULL,Gefährdung,kuhatarisha,s,uchokozi,udhaifu,makorowezo,NA,qt,NA,3,NA,NA,NA,NA,NA,NA,NA,NA,NA,NA,NA,NA,NA,NA,NA,NA,NA,NA,NA
8366b,Shallow Question,html.Page,3_0_3_0_7_1_0,NA,NA,form submission,7102.3999999762,446276.10000002,446273.7,446290.5,453392.89999998,453393.20000005,2024-02-28T17:13:23Z,453402.5,NULL,Gefährdung,kuhatarisha,s,uchokozi,udhaifu,makorowezo,kuhatarisha,NA,NA,3,NA,NA,NA,NA,NA,NA,NA,NA,NA,NA,NA,NA,NA,NA,NA,NA,NA,NA,NA
8366b,"""Richtig""-Screen",canvas.Screen,3_0_3_0_7_1_1,NA,NA,timeout,4996.8,453396.20000005,453386.328,453402.5,458382.7,458383.89999998,2024-02-28T17:13:28Z,458399.3,NULL,Gefährdung,kuhatarisha,s,uchokozi,udhaifu,makorowezo,NA,qt,1,3,NA,NA,NA,NA,NA,NA,NA,NA,NA,NA,NA,NA,NA,NA,NA,NA,NA,NA,NA
8366b,"""Falsch""-Screen",canvas.Screen,3_0_3_0_7_1_2,NA,NA,skipped,NA,458388.80000007,NA,NA,458382.7,458388.89999998,2024-02-28T17:13:28Z,458399.3,NULL,Gefährdung,kuhatarisha,s,uchokozi,udhaifu,makorowezo,NA,qt,NA,3,NA,NA,NA,NA,NA,NA,NA,NA,NA,NA,NA,NA,NA,NA,NA,NA,NA,NA,NA
8366b,shallow,flow.Sequence,3_0_3_0_7_1,NA,NA,completion,12092.2,446276,446273.7,446290.5,458382.7,458389,2024-02-28T17:13:28Z,458399.3,NULL,Gefährdung,kuhatarisha,s,uchokozi,udhaifu,makorowezo,NA,qt,NA,3,NA,NA,NA,NA,NA,NA,NA,NA,NA,NA,NA,NA,NA,NA,NA,NA,NA,NA,NA
8366b,task,flow.Sequence,3_0_3_0_7,NA,NA,completion,12092.2,446275.80000007,446273.7,446290.5,458382.7,458389,2024-02-28T17:13:28Z,458399.3,NULL,Gefährdung,kuhatarisha,s,uchokozi,udhaifu,makorowezo,NA,qt,NA,3,NA,NA,NA,NA,NA,NA,NA,NA,NA,NA,NA,NA,NA,NA,NA,NA,NA,NA,NA
8366b,block,flow.Loop,3_0_3_0,NA,NA,completion,97872.666,360510.60000002,360510.034,360510.034,458382.7,458389.10000002,2024-02-28T17:13:28Z,458399.3,NULL,NA,NA,NA,NA,NA,NA,NA,qt,NA,3,NA,NA,NA,NA,NA,NA,NA,NA,NA,NA,NA,NA,NA,NA,NA,NA,NA,NA,NA
8366b,weiter,canvas.Screen,3_0_3_1,sdf,keypress(Space),response,1517.3000000239,458389.20000005,458382.7,458399.3,459916.60000002,459917.70000005,2024-02-28T17:13:29Z,459948.3,NULL,NA,NA,NA,NA,NA,NA,NA,qt,NA,3,NA,NA,NA,NA,NA,NA,NA,NA,NA,NA,NA,NA,NA,NA,NA,NA,NA,NA,NA
8366b,check continue,flow.Sequence,3_0_3,NA,NA,completion,99406.566000024,360510.60000002,360510.034,360510.034,459916.60000002,459918.10000002,2024-02-28T17:13:29Z,459948.3,NULL,NA,NA,NA,NA,NA,NA,NA,qt,NA,3,NA,NA,NA,NA,NA,NA,NA,NA,NA,NA,NA,NA,NA,NA,NA,NA,NA,NA,NA
8366b,Deep Question,html.Page,3_0_4_0_0_0_0,NA,NA,form submission,5094.8000000239,459940.60000002,459932.96,459948.3,465043.10000002,465043.30000007,2024-02-28T17:13:34Z,465045.79,NULL,Respekt,heshima,d,NA,NA,NA,umuwezu,NA,NA,4,NA,NA,NA,NA,NA,NA,NA,NA,NA,NA,NA,NA,NA,NA,NA,NA,NA,NA,NA
8366b,"""Richtig""-Screen",canvas.Screen,3_0_4_0_0_0_1,NA,NA,skipped,NA,465046.5,NA,NA,465043.10000002,465046.70000005,2024-02-28T17:13:34Z,465045.79,NULL,Respekt,heshima,d,NA,NA,NA,NA,sd,NA,4,NA,NA,NA,NA,NA,NA,NA,NA,NA,NA,NA,NA,NA,NA,NA,NA,NA,NA,NA
8366b,"""Falsch""-Screen",canvas.Screen,3_0_4_0_0_0_2,NA,NA,timeout,4996.81,465047.70000005,465045.79,465045.79,470026,470027.10000002,2024-02-28T17:13:39Z,470042.6,NULL,Respekt,heshima,d,NA,NA,NA,NA,sd,0,4,NA,NA,NA,NA,NA,NA,NA,NA,NA,NA,NA,NA,NA,NA,NA,NA,NA,NA,NA
8366b,deep,flow.Sequence,3_0_4_0_0_0,NA,NA,completion,10077.7,459940.60000002,459932.96,459948.3,470026,470027.5,2024-02-28T17:13:39Z,470042.6,NULL,Respekt,heshima,d,NA,NA,NA,NA,sd,NA,4,NA,NA,NA,NA,NA,NA,NA,NA,NA,NA,NA,NA,NA,NA,NA,NA,NA,NA,NA
8366b,shallow,flow.Sequence,3_0_4_0_0_1,NA,NA,skipped,NA,470027.60000002,NA,NA,470026,470027.80000007,2024-02-28T17:13:39Z,470042.6,NULL,Respekt,heshima,d,NA,NA,NA,NA,sd,NA,4,NA,NA,NA,NA,NA,NA,NA,NA,NA,NA,NA,NA,NA,NA,NA,NA,NA,NA,NA
8366b,task,flow.Sequence,3_0_4_0_0,NA,NA,completion,10077.7,459940.5,459932.96,459948.3,470026,470028.20000005,2024-02-28T17:13:39Z,470042.6,NULL,Respekt,heshima,d,NA,NA,NA,NA,sd,NA,4,NA,NA,NA,NA,NA,NA,NA,NA,NA,NA,NA,NA,NA,NA,NA,NA,NA,NA,NA
8366b,Deep Question,html.Page,3_0_4_0_1_0_0,NA,NA,form submission,5728.6000000477,470028.39999998,470026,470042.6,475771.20000005,475771.30000007,2024-02-28T17:13:45Z,475789.1,NULL,Kreativität,ubunifu,d,NA,NA,NA,umaweza,NA,NA,4,NA,NA,NA,NA,NA,NA,NA,NA,NA,NA,NA,NA,NA,NA,NA,NA,NA,NA,NA
8366b,"""Richtig""-Screen",canvas.Screen,3_0_4_0_1_0_1,NA,NA,skipped,NA,475772.80000007,NA,NA,475771.20000005,475772.89999998,2024-02-28T17:13:45Z,475789.1,NULL,Kreativität,ubunifu,d,NA,NA,NA,NA,sd,NA,4,NA,NA,NA,NA,NA,NA,NA,NA,NA,NA,NA,NA,NA,NA,NA,NA,NA,NA,NA
8366b,"""Falsch""-Screen",canvas.Screen,3_0_4_0_1_0_2,NA,NA,timeout,4997,475773.39999998,475772.096,475789.1,480769.3,480770.10000002,2024-02-28T17:13:50Z,480786.1,NULL,Kreativität,ubunifu,d,NA,NA,NA,NA,sd,0,4,NA,NA,NA,NA,NA,NA,NA,NA,NA,NA,NA,NA,NA,NA,NA,NA,NA,NA,NA
8366b,deep,flow.Sequence,3_0_4_0_1_0,NA,NA,completion,10726.7,470028.30000007,470026,470042.6,480769.3,480770.39999998,2024-02-28T17:13:50Z,480786.1,NULL,Kreativität,ubunifu,d,NA,NA,NA,NA,sd,NA,4,NA,NA,NA,NA,NA,NA,NA,NA,NA,NA,NA,NA,NA,NA,NA,NA,NA,NA,NA
8366b,shallow,flow.Sequence,3_0_4_0_1_1,NA,NA,skipped,NA,480770.5,NA,NA,480769.3,480770.60000002,2024-02-28T17:13:50Z,480786.1,NULL,Kreativität,ubunifu,d,NA,NA,NA,NA,sd,NA,4,NA,NA,NA,NA,NA,NA,NA,NA,NA,NA,NA,NA,NA,NA,NA,NA,NA,NA,NA
8366b,task,flow.Sequence,3_0_4_0_1,NA,NA,completion,10726.7,470028.30000007,470026,470042.6,480769.3,480770.80000007,2024-02-28T17:13:50Z,480786.1,NULL,Kreativität,ubunifu,d,NA,NA,NA,NA,sd,NA,4,NA,NA,NA,NA,NA,NA,NA,NA,NA,NA,NA,NA,NA,NA,NA,NA,NA,NA,NA
8366b,Deep Question,html.Page,3_0_4_0_2_0_0,NA,NA,form submission,4987.9,480770.89999998,480769.3,480786.1,485774,485774.10000002,2024-02-28T17:13:55Z,485782.7,NULL,Orientierung,urekebisho,d,NA,NA,NA,umaweza,NA,NA,4,NA,NA,NA,NA,NA,NA,NA,NA,NA,NA,NA,NA,NA,NA,NA,NA,NA,NA,NA
8366b,"""Richtig""-Screen",canvas.Screen,3_0_4_0_2_0_1,NA,NA,skipped,NA,485775.80000007,NA,NA,485774,485776,2024-02-28T17:13:55Z,485782.7,NULL,Orientierung,urekebisho,d,NA,NA,NA,NA,sd,NA,4,NA,NA,NA,NA,NA,NA,NA,NA,NA,NA,NA,NA,NA,NA,NA,NA,NA,NA,NA
8366b,"""Falsch""-Screen",canvas.Screen,3_0_4_0_2_0_2,NA,NA,timeout,4997.2,485776.39999998,485766.36,485782.7,490763.2,490764.10000002,2024-02-28T17:14:00Z,490779.9,NULL,Orientierung,urekebisho,d,NA,NA,NA,NA,sd,0,4,NA,NA,NA,NA,NA,NA,NA,NA,NA,NA,NA,NA,NA,NA,NA,NA,NA,NA,NA
8366b,deep,flow.Sequence,3_0_4_0_2_0,NA,NA,completion,9977.1,480770.89999998,480769.3,480786.1,490763.2,490764.5,2024-02-28T17:14:00Z,490779.9,NULL,Orientierung,urekebisho,d,NA,NA,NA,NA,sd,NA,4,NA,NA,NA,NA,NA,NA,NA,NA,NA,NA,NA,NA,NA,NA,NA,NA,NA,NA,NA
8366b,shallow,flow.Sequence,3_0_4_0_2_1,NA,NA,skipped,NA,490764.70000005,NA,NA,490763.2,490764.80000007,2024-02-28T17:14:00Z,490779.9,NULL,Orientierung,urekebisho,d,NA,NA,NA,NA,sd,NA,4,NA,NA,NA,NA,NA,NA,NA,NA,NA,NA,NA,NA,NA,NA,NA,NA,NA,NA,NA
8366b,task,flow.Sequence,3_0_4_0_2,NA,NA,completion,9977.1,480770.80000007,480769.3,480786.1,490763.2,490765.10000002,2024-02-28T17:14:00Z,490779.9,NULL,Orientierung,urekebisho,d,NA,NA,NA,NA,sd,NA,4,NA,NA,NA,NA,NA,NA,NA,NA,NA,NA,NA,NA,NA,NA,NA,NA,NA,NA,NA
8366b,deep,flow.Sequence,3_0_4_0_3_0,NA,NA,skipped,NA,490765.20000005,NA,NA,490763.2,490765.39999998,2024-02-28T17:14:00Z,490779.9,NULL,Kontrolle,kudhibiti,s,mbinguni,kufunga,utegemezi,NA,sd,NA,4,NA,NA,NA,NA,NA,NA,NA,NA,NA,NA,NA,NA,NA,NA,NA,NA,NA,NA,NA
8366b,Shallow Question,html.Page,3_0_4_0_3_1_0,NA,NA,form submission,7890.4000000715,490765.70000005,490763.2,490779.9,498670.30000007,498670.60000002,2024-02-28T17:14:08Z,498675.192,NULL,Kontrolle,kudhibiti,s,mbinguni,kufunga,utegemezi,kudhibiti,NA,NA,4,NA,NA,NA,NA,NA,NA,NA,NA,NA,NA,NA,NA,NA,NA,NA,NA,NA,NA,NA
8366b,"""Richtig""-Screen",canvas.Screen,3_0_4_0_3_1_1,NA,NA,timeout,4996.908,498673.70000005,498675.192,498675.192,503655.3,503657.70000005,2024-02-28T17:14:13Z,503672.1,NULL,Kontrolle,kudhibiti,s,mbinguni,kufunga,utegemezi,NA,sd,1,4,NA,NA,NA,NA,NA,NA,NA,NA,NA,NA,NA,NA,NA,NA,NA,NA,NA,NA,NA
8366b,"""Falsch""-Screen",canvas.Screen,3_0_4_0_3_1_2,NA,NA,skipped,NA,503661.80000007,NA,NA,503655.3,503661.80000007,2024-02-28T17:14:13Z,503672.1,NULL,Kontrolle,kudhibiti,s,mbinguni,kufunga,utegemezi,NA,sd,NA,4,NA,NA,NA,NA,NA,NA,NA,NA,NA,NA,NA,NA,NA,NA,NA,NA,NA,NA,NA
8366b,shallow,flow.Sequence,3_0_4_0_3_1,NA,NA,completion,12875.4,490765.5,490763.2,490779.9,503655.3,503661.89999998,2024-02-28T17:14:13Z,503672.1,NULL,Kontrolle,kudhibiti,s,mbinguni,kufunga,utegemezi,NA,sd,NA,4,NA,NA,NA,NA,NA,NA,NA,NA,NA,NA,NA,NA,NA,NA,NA,NA,NA,NA,NA
8366b,task,flow.Sequence,3_0_4_0_3,NA,NA,completion,12875.4,490765.20000005,490763.2,490779.9,503655.3,503662,2024-02-28T17:14:13Z,503672.1,NULL,Kontrolle,kudhibiti,s,mbinguni,kufunga,utegemezi,NA,sd,NA,4,NA,NA,NA,NA,NA,NA,NA,NA,NA,NA,NA,NA,NA,NA,NA,NA,NA,NA,NA
8366b,deep,flow.Sequence,3_0_4_0_4_0,NA,NA,skipped,NA,503662,NA,NA,503655.3,503662.10000002,2024-02-28T17:14:13Z,503672.1,NULL,Gefährdung,kuhatarisha,s,uchokozi,udhaifu,makorowezo,NA,sd,NA,4,NA,NA,NA,NA,NA,NA,NA,NA,NA,NA,NA,NA,NA,NA,NA,NA,NA,NA,NA
8366b,Shallow Question,html.Page,3_0_4_0_4_1_0,NA,NA,form submission,5582.5000000239,503662.10000002,503655.3,503672.1,509254.60000002,509254.89999998,2024-02-28T17:14:19Z,509268.5,NULL,Gefährdung,kuhatarisha,s,uchokozi,udhaifu,makorowezo,udhaifu,NA,NA,4,NA,NA,NA,NA,NA,NA,NA,NA,NA,NA,NA,NA,NA,NA,NA,NA,NA,NA,NA
8366b,"""Richtig""-Screen",canvas.Screen,3_0_4_0_4_1_1,NA,NA,skipped,NA,509257.70000005,NA,NA,509254.60000002,509257.89999998,2024-02-28T17:14:19Z,509268.5,NULL,Gefährdung,kuhatarisha,s,uchokozi,udhaifu,makorowezo,NA,sd,NA,4,NA,NA,NA,NA,NA,NA,NA,NA,NA,NA,NA,NA,NA,NA,NA,NA,NA,NA,NA
8366b,"""Falsch""-Screen",canvas.Screen,3_0_4_0_4_1_2,NA,NA,timeout,4997,509258.60000002,509253.1,509268.5,514248.7,514249.70000005,2024-02-28T17:14:24Z,514265.5,NULL,Gefährdung,kuhatarisha,s,uchokozi,udhaifu,makorowezo,NA,sd,0,4,NA,NA,NA,NA,NA,NA,NA,NA,NA,NA,NA,NA,NA,NA,NA,NA,NA,NA,NA
8366b,shallow,flow.Sequence,3_0_4_0_4_1,NA,NA,completion,10576.6,503662.10000002,503655.3,503672.1,514248.7,514250.10000002,2024-02-28T17:14:24Z,514265.5,NULL,Gefährdung,kuhatarisha,s,uchokozi,udhaifu,makorowezo,NA,sd,NA,4,NA,NA,NA,NA,NA,NA,NA,NA,NA,NA,NA,NA,NA,NA,NA,NA,NA,NA,NA
8366b,task,flow.Sequence,3_0_4_0_4,NA,NA,completion,10576.6,503662,503655.3,503672.1,514248.7,514250.30000007,2024-02-28T17:14:24Z,514265.5,NULL,Gefährdung,kuhatarisha,s,uchokozi,udhaifu,makorowezo,NA,sd,NA,4,NA,NA,NA,NA,NA,NA,NA,NA,NA,NA,NA,NA,NA,NA,NA,NA,NA,NA,NA
8366b,Deep Question,html.Page,3_0_4_0_5_0_0,NA,NA,form submission,5805.6000000238,514250.60000002,514248.7,514265.5,520071.10000002,520071.30000007,2024-02-28T17:14:29Z,520078.4,NULL,Können,unaweza,d,NA,NA,NA,umawezu,NA,NA,4,NA,NA,NA,NA,NA,NA,NA,NA,NA,NA,NA,NA,NA,NA,NA,NA,NA,NA,NA
8366b,"""Richtig""-Screen",canvas.Screen,3_0_4_0_5_0_1,NA,NA,skipped,NA,520073,NA,NA,520071.10000002,520073.10000002,2024-02-28T17:14:29Z,520078.4,NULL,Können,unaweza,d,NA,NA,NA,NA,sd,NA,4,NA,NA,NA,NA,NA,NA,NA,NA,NA,NA,NA,NA,NA,NA,NA,NA,NA,NA,NA
8366b,"""Falsch""-Screen",canvas.Screen,3_0_4_0_5_0_2,NA,NA,timeout,4997,520073.60000002,520062.16,520078.4,525058.5,525059.5,2024-02-28T17:14:34Z,525075.4,NULL,Können,unaweza,d,NA,NA,NA,NA,sd,0,4,NA,NA,NA,NA,NA,NA,NA,NA,NA,NA,NA,NA,NA,NA,NA,NA,NA,NA,NA
8366b,deep,flow.Sequence,3_0_4_0_5_0,NA,NA,completion,10793,514250.5,514248.7,514265.5,525058.5,525059.80000007,2024-02-28T17:14:34Z,525075.4,NULL,Können,unaweza,d,NA,NA,NA,NA,sd,NA,4,NA,NA,NA,NA,NA,NA,NA,NA,NA,NA,NA,NA,NA,NA,NA,NA,NA,NA,NA
8366b,shallow,flow.Sequence,3_0_4_0_5_1,NA,NA,skipped,NA,525059.89999998,NA,NA,525058.5,525060.10000002,2024-02-28T17:14:34Z,525075.4,NULL,Können,unaweza,d,NA,NA,NA,NA,sd,NA,4,NA,NA,NA,NA,NA,NA,NA,NA,NA,NA,NA,NA,NA,NA,NA,NA,NA,NA,NA
8366b,task,flow.Sequence,3_0_4_0_5,NA,NA,completion,10793,514250.39999998,514248.7,514265.5,525058.5,525060.30000007,2024-02-28T17:14:34Z,525075.4,NULL,Können,unaweza,d,NA,NA,NA,NA,sd,NA,4,NA,NA,NA,NA,NA,NA,NA,NA,NA,NA,NA,NA,NA,NA,NA,NA,NA,NA,NA
8366b,deep,flow.Sequence,3_0_4_0_6_0,NA,NA,skipped,NA,525060.5,NA,NA,525058.5,525060.60000002,2024-02-28T17:14:34Z,525075.4,NULL,Betrüger,mdanganyifu,s,mwanamuziki,wastani,mahakama,NA,sd,NA,4,NA,NA,NA,NA,NA,NA,NA,NA,NA,NA,NA,NA,NA,NA,NA,NA,NA,NA,NA
8366b,Shallow Question,html.Page,3_0_4_0_6_1_0,NA,NA,form submission,4775.2000000238,525060.80000007,525058.5,525075.4,529850.60000002,529850.80000007,2024-02-28T17:14:39Z,529855.5,NULL,Betrüger,mdanganyifu,s,mwanamuziki,wastani,mahakama,mdanganyifu,NA,NA,4,NA,NA,NA,NA,NA,NA,NA,NA,NA,NA,NA,NA,NA,NA,NA,NA,NA,NA,NA
8366b,"""Richtig""-Screen",canvas.Screen,3_0_4_0_6_1_1,NA,NA,timeout,4997.1,529854,529839.4,529855.5,534836,534837.20000005,2024-02-28T17:14:44Z,534852.6,NULL,Betrüger,mdanganyifu,s,mwanamuziki,wastani,mahakama,NA,sd,1,4,NA,NA,NA,NA,NA,NA,NA,NA,NA,NA,NA,NA,NA,NA,NA,NA,NA,NA,NA
8366b,"""Falsch""-Screen",canvas.Screen,3_0_4_0_6_1_2,NA,NA,skipped,NA,534842.60000002,NA,NA,534836,534842.89999998,2024-02-28T17:14:44Z,534852.6,NULL,Betrüger,mdanganyifu,s,mwanamuziki,wastani,mahakama,NA,sd,NA,4,NA,NA,NA,NA,NA,NA,NA,NA,NA,NA,NA,NA,NA,NA,NA,NA,NA,NA,NA
8366b,shallow,flow.Sequence,3_0_4_0_6_1,NA,NA,completion,9760.6,525060.80000007,525058.5,525075.4,534836,534843.30000007,2024-02-28T17:14:44Z,534852.6,NULL,Betrüger,mdanganyifu,s,mwanamuziki,wastani,mahakama,NA,sd,NA,4,NA,NA,NA,NA,NA,NA,NA,NA,NA,NA,NA,NA,NA,NA,NA,NA,NA,NA,NA
8366b,task,flow.Sequence,3_0_4_0_6,NA,NA,completion,9760.6,525060.39999998,525058.5,525075.4,534836,534843.5,2024-02-28T17:14:44Z,534852.6,NULL,Betrüger,mdanganyifu,s,mwanamuziki,wastani,mahakama,NA,sd,NA,4,NA,NA,NA,NA,NA,NA,NA,NA,NA,NA,NA,NA,NA,NA,NA,NA,NA,NA,NA
8366b,deep,flow.Sequence,3_0_4_0_7_0,NA,NA,skipped,NA,534843.70000005,NA,NA,534836,534843.80000007,2024-02-28T17:14:44Z,534852.6,NULL,Stimmung,kinyongo,s,kilekile,kisambo,madhehebu,NA,sd,NA,4,NA,NA,NA,NA,NA,NA,NA,NA,NA,NA,NA,NA,NA,NA,NA,NA,NA,NA,NA
8366b,Shallow Question,html.Page,3_0_4_0_7_1_0,NA,NA,form submission,4272.1000000477,534844.10000002,534836,534852.6,539124.70000005,539125,2024-02-28T17:14:48Z,539133.362,NULL,Stimmung,kinyongo,s,kilekile,kisambo,madhehebu,kinyongo,NA,NA,4,NA,NA,NA,NA,NA,NA,NA,NA,NA,NA,NA,NA,NA,NA,NA,NA,NA,NA,NA
8366b,"""Richtig""-Screen",canvas.Screen,3_0_4_0_7_1_1,NA,NA,timeout,4997.338,539127.89999998,539133.362,539133.362,544113.9,544114.89999998,2024-02-28T17:14:53Z,544130.7,NULL,Stimmung,kinyongo,s,kilekile,kisambo,madhehebu,NA,sd,1,4,NA,NA,NA,NA,NA,NA,NA,NA,NA,NA,NA,NA,NA,NA,NA,NA,NA,NA,NA
8366b,"""Falsch""-Screen",canvas.Screen,3_0_4_0_7_1_2,NA,NA,skipped,NA,544120.10000002,NA,NA,544113.9,544120.20000005,2024-02-28T17:14:53Z,544130.7,NULL,Stimmung,kinyongo,s,kilekile,kisambo,madhehebu,NA,sd,NA,4,NA,NA,NA,NA,NA,NA,NA,NA,NA,NA,NA,NA,NA,NA,NA,NA,NA,NA,NA
8366b,shallow,flow.Sequence,3_0_4_0_7_1,NA,NA,completion,9261.3,534844,534836,534852.6,544113.9,544120.30000007,2024-02-28T17:14:53Z,544130.7,NULL,Stimmung,kinyongo,s,kilekile,kisambo,madhehebu,NA,sd,NA,4,NA,NA,NA,NA,NA,NA,NA,NA,NA,NA,NA,NA,NA,NA,NA,NA,NA,NA,NA
8366b,task,flow.Sequence,3_0_4_0_7,NA,NA,completion,9261.3,534843.70000005,534836,534852.6,544113.9,544120.39999998,2024-02-28T17:14:53Z,544130.7,NULL,Stimmung,kinyongo,s,kilekile,kisambo,madhehebu,NA,sd,NA,4,NA,NA,NA,NA,NA,NA,NA,NA,NA,NA,NA,NA,NA,NA,NA,NA,NA,NA,NA
8366b,block,flow.Loop,3_0_4_0,NA,NA,completion,84165.6,459940.5,459932.96,459948.3,544113.9,544120.5,2024-02-28T17:14:53Z,544130.7,NULL,NA,NA,NA,NA,NA,NA,NA,sd,NA,4,NA,NA,NA,NA,NA,NA,NA,NA,NA,NA,NA,NA,NA,NA,NA,NA,NA,NA,NA
8366b,weiter,canvas.Screen,3_0_4_1,sdf,keypress(Space),response,1289.1999999762,544120.5,544113.9,544130.7,545419.89999998,545420.80000007,2024-02-28T17:14:55Z,545446.69,NULL,NA,NA,NA,NA,NA,NA,NA,sd,NA,4,NA,NA,NA,NA,NA,NA,NA,NA,NA,NA,NA,NA,NA,NA,NA,NA,NA,NA,NA
8366b,check continue,flow.Sequence,3_0_4,NA,NA,completion,85471.599999976,459940.5,459932.96,459948.3,545419.89999998,545421.20000005,2024-02-28T17:14:55Z,545446.69,NULL,NA,NA,NA,NA,NA,NA,NA,sd,NA,4,NA,NA,NA,NA,NA,NA,NA,NA,NA,NA,NA,NA,NA,NA,NA,NA,NA,NA,NA
8366b,Deep Question,html.Page,3_0_5_0_0_0_0,NA,NA,form submission,8090.8100000001,545446.30000007,545446.69,545446.69,553537.5,553537.80000007,2024-02-28T17:15:03Z,553541.662,NULL,Respekt,heshima,d,NA,NA,NA,mawesho,NA,NA,5,NA,NA,NA,NA,NA,NA,NA,NA,NA,NA,NA,NA,NA,NA,NA,NA,NA,NA,NA
8366b,"""Richtig""-Screen",canvas.Screen,3_0_5_0_0_0_1,NA,NA,skipped,NA,553541,NA,NA,553537.5,553541.20000005,2024-02-28T17:15:03Z,553541.662,NULL,Respekt,heshima,d,NA,NA,NA,NA,sdf,NA,5,NA,NA,NA,NA,NA,NA,NA,NA,NA,NA,NA,NA,NA,NA,NA,NA,NA,NA,NA
8366b,"""Falsch""-Screen",canvas.Screen,3_0_5_0_0_0_2,NA,NA,timeout,4996.638,553541.80000007,553541.662,553541.662,558521.3,558521.80000007,2024-02-28T17:15:08Z,558538.3,NULL,Respekt,heshima,d,NA,NA,NA,NA,sdf,0,5,NA,NA,NA,NA,NA,NA,NA,NA,NA,NA,NA,NA,NA,NA,NA,NA,NA,NA,NA
8366b,deep,flow.Sequence,3_0_5_0_0_0,NA,NA,completion,13074.61,545446.20000005,545446.69,545446.69,558521.3,558521.89999998,2024-02-28T17:15:08Z,558538.3,NULL,Respekt,heshima,d,NA,NA,NA,NA,sdf,NA,5,NA,NA,NA,NA,NA,NA,NA,NA,NA,NA,NA,NA,NA,NA,NA,NA,NA,NA,NA
8366b,shallow,flow.Sequence,3_0_5_0_0_1,NA,NA,skipped,NA,558522,NA,NA,558521.3,558522.10000002,2024-02-28T17:15:08Z,558538.3,NULL,Respekt,heshima,d,NA,NA,NA,NA,sdf,NA,5,NA,NA,NA,NA,NA,NA,NA,NA,NA,NA,NA,NA,NA,NA,NA,NA,NA,NA,NA
8366b,task,flow.Sequence,3_0_5_0_0,NA,NA,completion,13074.61,545446.20000005,545446.69,545446.69,558521.3,558522.10000002,2024-02-28T17:15:08Z,558538.3,NULL,Respekt,heshima,d,NA,NA,NA,NA,sdf,NA,5,NA,NA,NA,NA,NA,NA,NA,NA,NA,NA,NA,NA,NA,NA,NA,NA,NA,NA,NA
8366b,deep,flow.Sequence,3_0_5_0_1_0,NA,NA,skipped,NA,558522.10000002,NA,NA,558521.3,558522.20000005,2024-02-28T17:15:08Z,558538.3,NULL,Kontrolle,kudhibiti,s,mbinguni,kufunga,utegemezi,NA,sdf,NA,5,NA,NA,NA,NA,NA,NA,NA,NA,NA,NA,NA,NA,NA,NA,NA,NA,NA,NA,NA
8366b,Shallow Question,html.Page,3_0_5_0_1_1_0,NA,NA,form submission,4002.3000000238,558522.20000005,558521.3,558538.3,562540.60000002,562540.89999998,2024-02-28T17:15:12Z,562552.5,NULL,Kontrolle,kudhibiti,s,mbinguni,kufunga,utegemezi,kudhibiti,NA,NA,5,NA,NA,NA,NA,NA,NA,NA,NA,NA,NA,NA,NA,NA,NA,NA,NA,NA,NA,NA
8366b,"""Richtig""-Screen",canvas.Screen,3_0_5_0_1_1_1,NA,NA,timeout,4997.1,562543.89999998,562536.194,562552.5,567532.8,567533.70000005,2024-02-28T17:15:17Z,567549.6,NULL,Kontrolle,kudhibiti,s,mbinguni,kufunga,utegemezi,NA,sdf,1,5,NA,NA,NA,NA,NA,NA,NA,NA,NA,NA,NA,NA,NA,NA,NA,NA,NA,NA,NA
8366b,"""Falsch""-Screen",canvas.Screen,3_0_5_0_1_1_2,NA,NA,skipped,NA,567538.70000005,NA,NA,567532.8,567538.80000007,2024-02-28T17:15:17Z,567549.6,NULL,Kontrolle,kudhibiti,s,mbinguni,kufunga,utegemezi,NA,sdf,NA,5,NA,NA,NA,NA,NA,NA,NA,NA,NA,NA,NA,NA,NA,NA,NA,NA,NA,NA,NA
8366b,shallow,flow.Sequence,3_0_5_0_1_1,NA,NA,completion,8994.5,558522.20000005,558521.3,558538.3,567532.8,567539,2024-02-28T17:15:17Z,567549.6,NULL,Kontrolle,kudhibiti,s,mbinguni,kufunga,utegemezi,NA,sdf,NA,5,NA,NA,NA,NA,NA,NA,NA,NA,NA,NA,NA,NA,NA,NA,NA,NA,NA,NA,NA
8366b,task,flow.Sequence,3_0_5_0_1,NA,NA,completion,8994.5,558522.10000002,558521.3,558538.3,567532.8,567539,2024-02-28T17:15:17Z,567549.6,NULL,Kontrolle,kudhibiti,s,mbinguni,kufunga,utegemezi,NA,sdf,NA,5,NA,NA,NA,NA,NA,NA,NA,NA,NA,NA,NA,NA,NA,NA,NA,NA,NA,NA,NA
8366b,Deep Question,html.Page,3_0_5_0_2_0_0,NA,NA,form submission,6917.9,567539.10000002,567532.8,567549.6,574467.5,574467.80000007,2024-02-28T17:15:24Z,574494.9,NULL,Können,unaweza,d,NA,NA,NA,umawesha,NA,NA,5,NA,NA,NA,NA,NA,NA,NA,NA,NA,NA,NA,NA,NA,NA,NA,NA,NA,NA,NA
8366b,"""Richtig""-Screen",canvas.Screen,3_0_5_0_2_0_1,NA,NA,skipped,NA,574470.89999998,NA,NA,574467.5,574471,2024-02-28T17:15:24Z,574494.9,NULL,Können,unaweza,d,NA,NA,NA,NA,sdf,NA,5,NA,NA,NA,NA,NA,NA,NA,NA,NA,NA,NA,NA,NA,NA,NA,NA,NA,NA,NA
8366b,"""Falsch""-Screen",canvas.Screen,3_0_5_0_2_0_2,NA,NA,timeout,4997,574471.89999998,574478.732,574494.9,579475.3,579476.5,2024-02-28T17:15:29Z,579491.9,NULL,Können,unaweza,d,NA,NA,NA,NA,sdf,0,5,NA,NA,NA,NA,NA,NA,NA,NA,NA,NA,NA,NA,NA,NA,NA,NA,NA,NA,NA
8366b,deep,flow.Sequence,3_0_5_0_2_0,NA,NA,completion,11925.7,567539,567532.8,567549.6,579475.3,579477,2024-02-28T17:15:29Z,579491.9,NULL,Können,unaweza,d,NA,NA,NA,NA,sdf,NA,5,NA,NA,NA,NA,NA,NA,NA,NA,NA,NA,NA,NA,NA,NA,NA,NA,NA,NA,NA
8366b,shallow,flow.Sequence,3_0_5_0_2_1,NA,NA,skipped,NA,579477.10000002,NA,NA,579475.3,579477.39999998,2024-02-28T17:15:29Z,579491.9,NULL,Können,unaweza,d,NA,NA,NA,NA,sdf,NA,5,NA,NA,NA,NA,NA,NA,NA,NA,NA,NA,NA,NA,NA,NA,NA,NA,NA,NA,NA
8366b,task,flow.Sequence,3_0_5_0_2,NA,NA,completion,11925.7,567539,567532.8,567549.6,579475.3,579477.5,2024-02-28T17:15:29Z,579491.9,NULL,Können,unaweza,d,NA,NA,NA,NA,sdf,NA,5,NA,NA,NA,NA,NA,NA,NA,NA,NA,NA,NA,NA,NA,NA,NA,NA,NA,NA,NA
8366b,deep,flow.Sequence,3_0_5_0_3_0,NA,NA,skipped,NA,579477.70000005,NA,NA,579475.3,579477.89999998,2024-02-28T17:15:29Z,579491.9,NULL,Gefährdung,kuhatarisha,s,uchokozi,udhaifu,makorowezo,NA,sdf,NA,5,NA,NA,NA,NA,NA,NA,NA,NA,NA,NA,NA,NA,NA,NA,NA,NA,NA,NA,NA
8366b,Shallow Question,html.Page,3_0_5_0_3_1_0,NA,NA,form submission,6078.4999999761,579478,579475.3,579491.9,585570.39999998,585570.60000002,2024-02-28T17:15:35Z,585571.96,NULL,Gefährdung,kuhatarisha,s,uchokozi,udhaifu,makorowezo,kuhatarisha,NA,NA,5,NA,NA,NA,NA,NA,NA,NA,NA,NA,NA,NA,NA,NA,NA,NA,NA,NA,NA,NA
8366b,"""Richtig""-Screen",canvas.Screen,3_0_5_0_3_1_1,NA,NA,timeout,4996.8400000001,585573.89999998,585571.96,585571.96,590551.8,590552.5,2024-02-28T17:15:40Z,590568.8,NULL,Gefährdung,kuhatarisha,s,uchokozi,udhaifu,makorowezo,NA,sdf,1,5,NA,NA,NA,NA,NA,NA,NA,NA,NA,NA,NA,NA,NA,NA,NA,NA,NA,NA,NA
8366b,"""Falsch""-Screen",canvas.Screen,3_0_5_0_3_1_2,NA,NA,skipped,NA,590557.30000007,NA,NA,590551.8,590557.39999998,2024-02-28T17:15:40Z,590568.8,NULL,Gefährdung,kuhatarisha,s,uchokozi,udhaifu,makorowezo,NA,sdf,NA,5,NA,NA,NA,NA,NA,NA,NA,NA,NA,NA,NA,NA,NA,NA,NA,NA,NA,NA,NA
8366b,shallow,flow.Sequence,3_0_5_0_3_1,NA,NA,completion,11059.9,579478,579475.3,579491.9,590551.8,590557.39999998,2024-02-28T17:15:40Z,590568.8,NULL,Gefährdung,kuhatarisha,s,uchokozi,udhaifu,makorowezo,NA,sdf,NA,5,NA,NA,NA,NA,NA,NA,NA,NA,NA,NA,NA,NA,NA,NA,NA,NA,NA,NA,NA
8366b,task,flow.Sequence,3_0_5_0_3,NA,NA,completion,11059.9,579477.70000005,579475.3,579491.9,590551.8,590557.39999998,2024-02-28T17:15:40Z,590568.8,NULL,Gefährdung,kuhatarisha,s,uchokozi,udhaifu,makorowezo,NA,sdf,NA,5,NA,NA,NA,NA,NA,NA,NA,NA,NA,NA,NA,NA,NA,NA,NA,NA,NA,NA,NA
8366b,deep,flow.Sequence,3_0_5_0_4_0,NA,NA,skipped,NA,590557.5,NA,NA,590551.8,590557.60000002,2024-02-28T17:15:40Z,590568.8,NULL,Stimmung,kinyongo,s,kilekile,kisambo,madhehebu,NA,sdf,NA,5,NA,NA,NA,NA,NA,NA,NA,NA,NA,NA,NA,NA,NA,NA,NA,NA,NA,NA,NA
8366b,Shallow Question,html.Page,3_0_5_0_4_1_0,NA,NA,form submission,3699.8000000238,590557.60000002,590551.8,590568.8,594268.60000002,594268.80000007,2024-02-28T17:15:44Z,594283.3,NULL,Stimmung,kinyongo,s,kilekile,kisambo,madhehebu,kinyongo,NA,NA,5,NA,NA,NA,NA,NA,NA,NA,NA,NA,NA,NA,NA,NA,NA,NA,NA,NA,NA,NA
8366b,"""Richtig""-Screen",canvas.Screen,3_0_5_0_4_1_1,NA,NA,timeout,4996.8999999999,594271.89999998,594266.628,594283.3,599263.4,599264.39999998,2024-02-28T17:15:49Z,599280.2,NULL,Stimmung,kinyongo,s,kilekile,kisambo,madhehebu,NA,sdf,1,5,NA,NA,NA,NA,NA,NA,NA,NA,NA,NA,NA,NA,NA,NA,NA,NA,NA,NA,NA
8366b,"""Falsch""-Screen",canvas.Screen,3_0_5_0_4_1_2,NA,NA,skipped,NA,599269.30000007,NA,NA,599263.4,599269.5,2024-02-28T17:15:49Z,599280.2,NULL,Stimmung,kinyongo,s,kilekile,kisambo,madhehebu,NA,sdf,NA,5,NA,NA,NA,NA,NA,NA,NA,NA,NA,NA,NA,NA,NA,NA,NA,NA,NA,NA,NA
8366b,shallow,flow.Sequence,3_0_5_0_4_1,NA,NA,completion,8694.6,590557.60000002,590551.8,590568.8,599263.4,599269.5,2024-02-28T17:15:49Z,599280.2,NULL,Stimmung,kinyongo,s,kilekile,kisambo,madhehebu,NA,sdf,NA,5,NA,NA,NA,NA,NA,NA,NA,NA,NA,NA,NA,NA,NA,NA,NA,NA,NA,NA,NA
8366b,task,flow.Sequence,3_0_5_0_4,NA,NA,completion,8694.6,590557.5,590551.8,590568.8,599263.4,599269.5,2024-02-28T17:15:49Z,599280.2,NULL,Stimmung,kinyongo,s,kilekile,kisambo,madhehebu,NA,sdf,NA,5,NA,NA,NA,NA,NA,NA,NA,NA,NA,NA,NA,NA,NA,NA,NA,NA,NA,NA,NA
8366b,Deep Question,html.Page,3_0_5_0_5_0_0,NA,NA,form submission,8605.0000000477,599269.60000002,599263.4,599280.2,607885.20000005,607885.39999998,2024-02-28T17:15:57Z,607907.8,NULL,Kreativität,ubunifu,d,NA,NA,NA,magaishu,NA,NA,5,NA,NA,NA,NA,NA,NA,NA,NA,NA,NA,NA,NA,NA,NA,NA,NA,NA,NA,NA
8366b,"""Richtig""-Screen",canvas.Screen,3_0_5_0_5_0_1,NA,NA,skipped,NA,607888.70000005,NA,NA,607885.20000005,607888.80000007,2024-02-28T17:15:57Z,607907.8,NULL,Kreativität,ubunifu,d,NA,NA,NA,NA,sdf,NA,5,NA,NA,NA,NA,NA,NA,NA,NA,NA,NA,NA,NA,NA,NA,NA,NA,NA,NA,NA
8366b,"""Falsch""-Screen",canvas.Screen,3_0_5_0_5_0_2,NA,NA,timeout,4997.3999999999,607889.60000002,607891.1,607907.8,612888.5,612889.5,2024-02-28T17:16:02Z,612905.2,NULL,Kreativität,ubunifu,d,NA,NA,NA,NA,sdf,0,5,NA,NA,NA,NA,NA,NA,NA,NA,NA,NA,NA,NA,NA,NA,NA,NA,NA,NA,NA
8366b,deep,flow.Sequence,3_0_5_0_5_0,NA,NA,completion,13608.3,599269.60000002,599263.4,599280.2,612888.5,612889.80000007,2024-02-28T17:16:02Z,612905.2,NULL,Kreativität,ubunifu,d,NA,NA,NA,NA,sdf,NA,5,NA,NA,NA,NA,NA,NA,NA,NA,NA,NA,NA,NA,NA,NA,NA,NA,NA,NA,NA
8366b,shallow,flow.Sequence,3_0_5_0_5_1,NA,NA,skipped,NA,612890,NA,NA,612888.5,612890.10000002,2024-02-28T17:16:02Z,612905.2,NULL,Kreativität,ubunifu,d,NA,NA,NA,NA,sdf,NA,5,NA,NA,NA,NA,NA,NA,NA,NA,NA,NA,NA,NA,NA,NA,NA,NA,NA,NA,NA
8366b,task,flow.Sequence,3_0_5_0_5,NA,NA,completion,13608.3,599269.60000002,599263.4,599280.2,612888.5,612890.39999998,2024-02-28T17:16:02Z,612905.2,NULL,Kreativität,ubunifu,d,NA,NA,NA,NA,sdf,NA,5,NA,NA,NA,NA,NA,NA,NA,NA,NA,NA,NA,NA,NA,NA,NA,NA,NA,NA,NA
8366b,Deep Question,html.Page,3_0_5_0_6_0_0,NA,NA,form submission,10215.3,612890.70000005,612888.5,612905.2,623120.5,623120.70000005,2024-02-28T17:16:12Z,623131.9,NULL,Orientierung,urekebisho,d,NA,NA,NA,umawesho,NA,NA,5,NA,NA,NA,NA,NA,NA,NA,NA,NA,NA,NA,NA,NA,NA,NA,NA,NA,NA,NA
8366b,"""Richtig""-Screen",canvas.Screen,3_0_5_0_6_0_1,NA,NA,skipped,NA,623123.89999998,NA,NA,623120.5,623124,2024-02-28T17:16:12Z,623131.9,NULL,Orientierung,urekebisho,d,NA,NA,NA,NA,sdf,NA,5,NA,NA,NA,NA,NA,NA,NA,NA,NA,NA,NA,NA,NA,NA,NA,NA,NA,NA,NA
8366b,"""Falsch""-Screen",canvas.Screen,3_0_5_0_6_0_2,NA,NA,timeout,4997.2,623124.5,623115.7,623131.9,628112.2,628113.20000005,2024-02-28T17:16:17Z,628129.1,NULL,Orientierung,urekebisho,d,NA,NA,NA,NA,sdf,0,5,NA,NA,NA,NA,NA,NA,NA,NA,NA,NA,NA,NA,NA,NA,NA,NA,NA,NA,NA
8366b,deep,flow.Sequence,3_0_5_0_6_0,NA,NA,completion,15207,612890.60000002,612888.5,612905.2,628112.2,628113.60000002,2024-02-28T17:16:17Z,628129.1,NULL,Orientierung,urekebisho,d,NA,NA,NA,NA,sdf,NA,5,NA,NA,NA,NA,NA,NA,NA,NA,NA,NA,NA,NA,NA,NA,NA,NA,NA,NA,NA
8366b,shallow,flow.Sequence,3_0_5_0_6_1,NA,NA,skipped,NA,628113.70000005,NA,NA,628112.2,628113.89999998,2024-02-28T17:16:17Z,628129.1,NULL,Orientierung,urekebisho,d,NA,NA,NA,NA,sdf,NA,5,NA,NA,NA,NA,NA,NA,NA,NA,NA,NA,NA,NA,NA,NA,NA,NA,NA,NA,NA
8366b,task,flow.Sequence,3_0_5_0_6,NA,NA,completion,15207,612890.60000002,612888.5,612905.2,628112.2,628114.20000005,2024-02-28T17:16:17Z,628129.1,NULL,Orientierung,urekebisho,d,NA,NA,NA,NA,sdf,NA,5,NA,NA,NA,NA,NA,NA,NA,NA,NA,NA,NA,NA,NA,NA,NA,NA,NA,NA,NA
8366b,deep,flow.Sequence,3_0_5_0_7_0,NA,NA,skipped,NA,628114.30000007,NA,NA,628112.2,628114.5,2024-02-28T17:16:17Z,628129.1,NULL,Betrüger,mdanganyifu,s,mwanamuziki,wastani,mahakama,NA,sdf,NA,5,NA,NA,NA,NA,NA,NA,NA,NA,NA,NA,NA,NA,NA,NA,NA,NA,NA,NA,NA
8366b,Shallow Question,html.Page,3_0_5_0_7_1_0,NA,NA,form submission,3030.6000000477,628114.60000002,628112.2,628129.1,631159.70000005,631159.89999998,2024-02-28T17:16:20Z,631177.5,NULL,Betrüger,mdanganyifu,s,mwanamuziki,wastani,mahakama,mdanganyifu,NA,NA,5,NA,NA,NA,NA,NA,NA,NA,NA,NA,NA,NA,NA,NA,NA,NA,NA,NA,NA,NA
8366b,"""Richtig""-Screen",canvas.Screen,3_0_5_0_7_1_1,NA,NA,timeout,4996.6,631161.39999998,631161.026,631177.5,636157.6,636158.60000002,2024-02-28T17:16:25Z,636174.1,NULL,Betrüger,mdanganyifu,s,mwanamuziki,wastani,mahakama,NA,sdf,1,5,NA,NA,NA,NA,NA,NA,NA,NA,NA,NA,NA,NA,NA,NA,NA,NA,NA,NA,NA
8366b,"""Falsch""-Screen",canvas.Screen,3_0_5_0_7_1_2,NA,NA,skipped,NA,636163.89999998,NA,NA,636157.6,636164,2024-02-28T17:16:25Z,636174.1,NULL,Betrüger,mdanganyifu,s,mwanamuziki,wastani,mahakama,NA,sdf,NA,5,NA,NA,NA,NA,NA,NA,NA,NA,NA,NA,NA,NA,NA,NA,NA,NA,NA,NA,NA
8366b,shallow,flow.Sequence,3_0_5_0_7_1,NA,NA,completion,8028.5,628114.60000002,628112.2,628129.1,636157.6,636164.10000002,2024-02-28T17:16:25Z,636174.1,NULL,Betrüger,mdanganyifu,s,mwanamuziki,wastani,mahakama,NA,sdf,NA,5,NA,NA,NA,NA,NA,NA,NA,NA,NA,NA,NA,NA,NA,NA,NA,NA,NA,NA,NA
8366b,task,flow.Sequence,3_0_5_0_7,NA,NA,completion,8028.5,628114.30000007,628112.2,628129.1,636157.6,636164.20000005,2024-02-28T17:16:25Z,636174.1,NULL,Betrüger,mdanganyifu,s,mwanamuziki,wastani,mahakama,NA,sdf,NA,5,NA,NA,NA,NA,NA,NA,NA,NA,NA,NA,NA,NA,NA,NA,NA,NA,NA,NA,NA
8366b,block,flow.Loop,3_0_5_0,NA,NA,completion,90710.91,545446.20000005,545446.69,545446.69,636157.6,636164.20000005,2024-02-28T17:16:25Z,636174.1,NULL,NA,NA,NA,NA,NA,NA,NA,sdf,NA,5,NA,NA,NA,NA,NA,NA,NA,NA,NA,NA,NA,NA,NA,NA,NA,NA,NA,NA,NA
8366b,weiter,canvas.Screen,3_0_5_1,sdf,keypress(Space),response,1190.1000000477,636164.30000007,636157.6,636174.1,637364.20000005,637365,2024-02-28T17:16:27Z,637390.512,NULL,NA,NA,NA,NA,NA,NA,NA,sdf,NA,5,NA,NA,NA,NA,NA,NA,NA,NA,NA,NA,NA,NA,NA,NA,NA,NA,NA,NA,NA
8366b,check continue,flow.Sequence,3_0_5,NA,NA,completion,91917.510000048,545446.10000002,545446.69,545446.69,637364.20000005,637365.30000007,2024-02-28T17:16:27Z,637390.512,NULL,NA,NA,NA,NA,NA,NA,NA,sdf,NA,5,NA,NA,NA,NA,NA,NA,NA,NA,NA,NA,NA,NA,NA,NA,NA,NA,NA,NA,NA
8366b,Deep Question,html.Page,3_0_6_0_0_0_0,NA,NA,form submission,5967.7880000715,637400.20000005,637390.512,637390.512,643358.30000007,643358.39999998,2024-02-28T17:16:33Z,643386.7,NULL,Respekt,heshima,d,NA,NA,NA,umawesho,NA,NA,6,NA,NA,NA,NA,NA,NA,NA,NA,NA,NA,NA,NA,NA,NA,NA,NA,NA,NA,NA
8366b,"""Richtig""-Screen",canvas.Screen,3_0_6_0_0_0_1,NA,NA,skipped,NA,643360.10000002,NA,NA,643358.30000007,643360.20000005,2024-02-28T17:16:33Z,643386.7,NULL,Respekt,heshima,d,NA,NA,NA,NA,dfs,NA,6,NA,NA,NA,NA,NA,NA,NA,NA,NA,NA,NA,NA,NA,NA,NA,NA,NA,NA,NA
8366b,"""Falsch""-Screen",canvas.Screen,3_0_6_0_0_0_2,NA,NA,timeout,4996.3,643360.60000002,643370.12,643386.7,648366.8,648367.30000007,2024-02-28T17:16:38Z,648383,NULL,Respekt,heshima,d,NA,NA,NA,NA,dfs,0,6,NA,NA,NA,NA,NA,NA,NA,NA,NA,NA,NA,NA,NA,NA,NA,NA,NA,NA,NA
8366b,deep,flow.Sequence,3_0_6_0_0_0,NA,NA,completion,10976.288,637400.20000005,637390.512,637390.512,648366.8,648367.39999998,2024-02-28T17:16:38Z,648383,NULL,Respekt,heshima,d,NA,NA,NA,NA,dfs,NA,6,NA,NA,NA,NA,NA,NA,NA,NA,NA,NA,NA,NA,NA,NA,NA,NA,NA,NA,NA
8366b,shallow,flow.Sequence,3_0_6_0_0_1,NA,NA,skipped,NA,648367.5,NA,NA,648366.8,648367.60000002,2024-02-28T17:16:38Z,648383,NULL,Respekt,heshima,d,NA,NA,NA,NA,dfs,NA,6,NA,NA,NA,NA,NA,NA,NA,NA,NA,NA,NA,NA,NA,NA,NA,NA,NA,NA,NA
8366b,task,flow.Sequence,3_0_6_0_0,NA,NA,completion,10976.288,637400.10000002,637390.512,637390.512,648366.8,648367.70000005,2024-02-28T17:16:38Z,648383,NULL,Respekt,heshima,d,NA,NA,NA,NA,dfs,NA,6,NA,NA,NA,NA,NA,NA,NA,NA,NA,NA,NA,NA,NA,NA,NA,NA,NA,NA,NA
8366b,deep,flow.Sequence,3_0_6_0_1_0,NA,NA,skipped,NA,648367.70000005,NA,NA,648366.8,648367.70000005,2024-02-28T17:16:38Z,648383,NULL,Stimmung,kinyongo,s,kilekile,kisambo,madhehebu,NA,dfs,NA,6,NA,NA,NA,NA,NA,NA,NA,NA,NA,NA,NA,NA,NA,NA,NA,NA,NA,NA,NA
8366b,Shallow Question,html.Page,3_0_6_0_1_1_0,NA,NA,form submission,5089,648367.80000007,648366.8,648383,653472,653472.20000005,2024-02-28T17:16:43Z,653479.9,NULL,Stimmung,kinyongo,s,kilekile,kisambo,madhehebu,kinyongo,NA,NA,6,NA,NA,NA,NA,NA,NA,NA,NA,NA,NA,NA,NA,NA,NA,NA,NA,NA,NA,NA
8366b,"""Richtig""-Screen",canvas.Screen,3_0_6_0_1_1_1,NA,NA,timeout,4997,653474.80000007,653463.9,653479.9,658460.3,658461.39999998,2024-02-28T17:16:48Z,658476.9,NULL,Stimmung,kinyongo,s,kilekile,kisambo,madhehebu,NA,dfs,1,6,NA,NA,NA,NA,NA,NA,NA,NA,NA,NA,NA,NA,NA,NA,NA,NA,NA,NA,NA
8366b,"""Falsch""-Screen",canvas.Screen,3_0_6_0_1_1_2,NA,NA,skipped,NA,658464.89999998,NA,NA,658460.3,658465,2024-02-28T17:16:48Z,658476.9,NULL,Stimmung,kinyongo,s,kilekile,kisambo,madhehebu,NA,dfs,NA,6,NA,NA,NA,NA,NA,NA,NA,NA,NA,NA,NA,NA,NA,NA,NA,NA,NA,NA,NA
8366b,shallow,flow.Sequence,3_0_6_0_1_1,NA,NA,completion,10077.3,648367.80000007,648366.8,648383,658460.3,658465.10000002,2024-02-28T17:16:48Z,658476.9,NULL,Stimmung,kinyongo,s,kilekile,kisambo,madhehebu,NA,dfs,NA,6,NA,NA,NA,NA,NA,NA,NA,NA,NA,NA,NA,NA,NA,NA,NA,NA,NA,NA,NA
8366b,task,flow.Sequence,3_0_6_0_1,NA,NA,completion,10077.3,648367.70000005,648366.8,648383,658460.3,658465.10000002,2024-02-28T17:16:48Z,658476.9,NULL,Stimmung,kinyongo,s,kilekile,kisambo,madhehebu,NA,dfs,NA,6,NA,NA,NA,NA,NA,NA,NA,NA,NA,NA,NA,NA,NA,NA,NA,NA,NA,NA,NA
8366b,deep,flow.Sequence,3_0_6_0_2_0,NA,NA,skipped,NA,658465.20000005,NA,NA,658460.3,658465.30000007,2024-02-28T17:16:48Z,658476.9,NULL,Betrüger,mdanganyifu,s,mwanamuziki,wastani,mahakama,NA,dfs,NA,6,NA,NA,NA,NA,NA,NA,NA,NA,NA,NA,NA,NA,NA,NA,NA,NA,NA,NA,NA
8366b,Shallow Question,html.Page,3_0_6_0_2_1_0,NA,NA,form submission,4601.9999999761,658465.30000007,658460.3,658476.9,663078.89999998,663079.20000005,2024-02-28T17:16:52Z,663090.7,NULL,Betrüger,mdanganyifu,s,mwanamuziki,wastani,mahakama,mdanganyifu,NA,NA,6,NA,NA,NA,NA,NA,NA,NA,NA,NA,NA,NA,NA,NA,NA,NA,NA,NA,NA,NA
8366b,"""Richtig""-Screen",canvas.Screen,3_0_6_0_2_1_1,NA,NA,timeout,4997.3,663082.30000007,663074.686,663090.7,668071.4,668072.39999998,2024-02-28T17:16:57Z,668088,NULL,Betrüger,mdanganyifu,s,mwanamuziki,wastani,mahakama,NA,dfs,1,6,NA,NA,NA,NA,NA,NA,NA,NA,NA,NA,NA,NA,NA,NA,NA,NA,NA,NA,NA
8366b,"""Falsch""-Screen",canvas.Screen,3_0_6_0_2_1_2,NA,NA,skipped,NA,668077,NA,NA,668071.4,668077.20000005,2024-02-28T17:16:57Z,668088,NULL,Betrüger,mdanganyifu,s,mwanamuziki,wastani,mahakama,NA,dfs,NA,6,NA,NA,NA,NA,NA,NA,NA,NA,NA,NA,NA,NA,NA,NA,NA,NA,NA,NA,NA
8366b,shallow,flow.Sequence,3_0_6_0_2_1,NA,NA,completion,9594.5,658465.30000007,658460.3,658476.9,668071.4,668077.30000007,2024-02-28T17:16:57Z,668088,NULL,Betrüger,mdanganyifu,s,mwanamuziki,wastani,mahakama,NA,dfs,NA,6,NA,NA,NA,NA,NA,NA,NA,NA,NA,NA,NA,NA,NA,NA,NA,NA,NA,NA,NA
8366b,task,flow.Sequence,3_0_6_0_2,NA,NA,completion,9594.5,658465.20000005,658460.3,658476.9,668071.4,668077.39999998,2024-02-28T17:16:57Z,668088,NULL,Betrüger,mdanganyifu,s,mwanamuziki,wastani,mahakama,NA,dfs,NA,6,NA,NA,NA,NA,NA,NA,NA,NA,NA,NA,NA,NA,NA,NA,NA,NA,NA,NA,NA
8366b,deep,flow.Sequence,3_0_6_0_3_0,NA,NA,skipped,NA,668077.39999998,NA,NA,668071.4,668077.5,2024-02-28T17:16:57Z,668088,NULL,Kontrolle,kudhibiti,s,mbinguni,kufunga,utegemezi,NA,dfs,NA,6,NA,NA,NA,NA,NA,NA,NA,NA,NA,NA,NA,NA,NA,NA,NA,NA,NA,NA,NA
8366b,Shallow Question,html.Page,3_0_6_0_3_1_0,NA,NA,form submission,5829,668077.5,668071.4,668088,673917,673917.20000005,2024-02-28T17:17:03Z,673917.962,NULL,Kontrolle,kudhibiti,s,mbinguni,kufunga,utegemezi,kudhibiti,NA,NA,6,NA,NA,NA,NA,NA,NA,NA,NA,NA,NA,NA,NA,NA,NA,NA,NA,NA,NA,NA
8366b,"""Richtig""-Screen",canvas.Screen,3_0_6_0_3_1_1,NA,NA,timeout,4996.838,673920.30000007,673917.962,673917.962,678897.8,678898.89999998,2024-02-28T17:17:08Z,678914.8,NULL,Kontrolle,kudhibiti,s,mbinguni,kufunga,utegemezi,NA,dfs,1,6,NA,NA,NA,NA,NA,NA,NA,NA,NA,NA,NA,NA,NA,NA,NA,NA,NA,NA,NA
8366b,"""Falsch""-Screen",canvas.Screen,3_0_6_0_3_1_2,NA,NA,skipped,NA,678903.89999998,NA,NA,678897.8,678904,2024-02-28T17:17:08Z,678914.8,NULL,Kontrolle,kudhibiti,s,mbinguni,kufunga,utegemezi,NA,dfs,NA,6,NA,NA,NA,NA,NA,NA,NA,NA,NA,NA,NA,NA,NA,NA,NA,NA,NA,NA,NA
