observation,sender,sender_type,sender_id,response,response_action,ended_on,duration,time_run,time_render,time_show,time_end,time_commit,timestamp,time_switch,german,swahili,enc,distractor1,distractor2,distractor3,response_2,x,correct,distractors,url_vp,url_sess,meta_labjs_version,meta_location,meta_user_agent,meta_platform,meta_language,meta_locale,meta_time_zone,meta_timezone_offset,meta_screen_width,meta_screen_height,meta_scroll_width,meta_scroll_height,meta_window_inner_width,meta_window_inner_height,meta_device_pixel_ratio,meta_labjs_build_flavor,meta_labjs_build_commit
acbb5,Introduction delayed retrieval,canvas.Screen,0,weiter,keypress(Space),response,4351,979,981,988,5332,5349,2023-04-28T06:57:05Z,5373,NA,NA,NA,NA,NA,NA,NA,NA,NA,NULL,125,2,20.2.4,https://neurocog.fernuni.ch/studies/vweber/delayed/index.html?vp=125&sess=2,"Mozilla/5.0 (Macintosh; Intel Mac OS X 10_15_7) AppleWebKit/605.1.15 (KHTML, like Gecko) Version/16.3 Safari/605.1.15",MacIntel,de-DE,de-DE,Europe/Zurich,-120,1470,956,1135,633,1135,681,2,production,f5b4a49f956347addd546a832a3327688c2c0fef
acbb5,Deep Question,html.Page,1_0_0_0,NA,NA,form submission,8257,5351,5363,5373,13630,13631,2023-04-28T06:57:14Z,13657,Schock,mshtuko,d,biashara,kukataza,vichekesho,Shtuko,NA,NA,NULL,NA,NA,NA,NA,NA,NA,NA,NA,NA,NA,NA,NA,NA,NA,NA,NA,NA,NA,NA
acbb5,Save data screen,canvas.Screen,1_0_0_1,NA,NA,timeout,499,13633,13639,13657,14140,14141,2023-04-28T06:57:14Z,14156,Schock,mshtuko,d,biashara,kukataza,vichekesho,NA,NA,0,NULL,NA,NA,NA,NA,NA,NA,NA,NA,NA,NA,NA,NA,NA,NA,NA,NA,NA,NA,NA
acbb5,deep,flow.Sequence,1_0_0,NA,NA,completion,8767,5351,5363,5373,14140,14141,2023-04-28T06:57:14Z,14156,Schock,mshtuko,d,biashara,kukataza,vichekesho,NA,NA,NA,NULL,NA,NA,NA,NA,NA,NA,NA,NA,NA,NA,NA,NA,NA,NA,NA,NA,NA,NA,NA
acbb5,task,flow.Sequence,1_0,NA,NA,completion,8767,5351,5363,5373,14140,14141,2023-04-28T06:57:14Z,14156,Schock,mshtuko,d,biashara,kukataza,vichekesho,NA,NA,NA,NULL,NA,NA,NA,NA,NA,NA,NA,NA,NA,NA,NA,NA,NA,NA,NA,NA,NA,NA,NA
acbb5,Deep Question,html.Page,1_1_0_0,NA,NA,form submission,5555,14142,14140,14156,19711,19711,2023-04-28T06:57:20Z,19740,Vermutung,udhanifu,s,haramia,tikisho,itifaki,mandeleo,NA,NA,NULL,NA,NA,NA,NA,NA,NA,NA,NA,NA,NA,NA,NA,NA,NA,NA,NA,NA,NA,NA
acbb5,Save data screen,canvas.Screen,1_1_0_1,NA,NA,timeout,500,19713,19723,19740,20223,20224,2023-04-28T06:57:20Z,20240,Vermutung,udhanifu,s,haramia,tikisho,itifaki,NA,NA,0,NULL,NA,NA,NA,NA,NA,NA,NA,NA,NA,NA,NA,NA,NA,NA,NA,NA,NA,NA,NA
acbb5,deep,flow.Sequence,1_1_0,NA,NA,completion,6067,14142,14140,14156,20223,20224,2023-04-28T06:57:20Z,20240,Vermutung,udhanifu,s,haramia,tikisho,itifaki,NA,NA,NA,NULL,NA,NA,NA,NA,NA,NA,NA,NA,NA,NA,NA,NA,NA,NA,NA,NA,NA,NA,NA
acbb5,task,flow.Sequence,1_1,NA,NA,completion,6067,14142,14140,14156,20223,20224,2023-04-28T06:57:20Z,20240,Vermutung,udhanifu,s,haramia,tikisho,itifaki,NA,NA,NA,NULL,NA,NA,NA,NA,NA,NA,NA,NA,NA,NA,NA,NA,NA,NA,NA,NA,NA,NA,NA
acbb5,Deep Question,html.Page,1_2_0_0,NA,NA,form submission,8335,20225,20223,20240,28575,28576,2023-04-28T06:57:29Z,28606,Tester,wanaojaribu,s,sherti,sihiri,mlipuko,handeleo,NA,NA,NULL,NA,NA,NA,NA,NA,NA,NA,NA,NA,NA,NA,NA,NA,NA,NA,NA,NA,NA,NA
acbb5,Save data screen,canvas.Screen,1_2_0_1,NA,NA,timeout,500,28577,28590,28606,29090,29090,2023-04-28T06:57:29Z,29106,Tester,wanaojaribu,s,sherti,sihiri,mlipuko,NA,NA,0,NULL,NA,NA,NA,NA,NA,NA,NA,NA,NA,NA,NA,NA,NA,NA,NA,NA,NA,NA,NA
acbb5,deep,flow.Sequence,1_2_0,NA,NA,completion,8850,20225,20223,20240,29090,29091,2023-04-28T06:57:29Z,29106,Tester,wanaojaribu,s,sherti,sihiri,mlipuko,NA,NA,NA,NULL,NA,NA,NA,NA,NA,NA,NA,NA,NA,NA,NA,NA,NA,NA,NA,NA,NA,NA,NA
acbb5,task,flow.Sequence,1_2,NA,NA,completion,8850,20225,20223,20240,29090,29091,2023-04-28T06:57:29Z,29106,Tester,wanaojaribu,s,sherti,sihiri,mlipuko,NA,NA,NA,NULL,NA,NA,NA,NA,NA,NA,NA,NA,NA,NA,NA,NA,NA,NA,NA,NA,NA,NA,NA
acbb5,Deep Question,html.Page,1_3_0_0,NA,NA,form submission,4928,29092,29090,29106,34034,34035,2023-04-28T06:57:34Z,34056,Inhalt,yaliyomo,s,kishawishi,hifadhi,kutembea,mandiko,NA,NA,NULL,NA,NA,NA,NA,NA,NA,NA,NA,NA,NA,NA,NA,NA,NA,NA,NA,NA,NA,NA
acbb5,Save data screen,canvas.Screen,1_3_0_1,NA,NA,timeout,500,34036,34040,34056,34540,34540,2023-04-28T06:57:35Z,34556,Inhalt,yaliyomo,s,kishawishi,hifadhi,kutembea,NA,NA,0,NULL,NA,NA,NA,NA,NA,NA,NA,NA,NA,NA,NA,NA,NA,NA,NA,NA,NA,NA,NA
acbb5,deep,flow.Sequence,1_3_0,NA,NA,completion,5434,29092,29090,29106,34540,34540,2023-04-28T06:57:35Z,34556,Inhalt,yaliyomo,s,kishawishi,hifadhi,kutembea,NA,NA,NA,NULL,NA,NA,NA,NA,NA,NA,NA,NA,NA,NA,NA,NA,NA,NA,NA,NA,NA,NA,NA
acbb5,task,flow.Sequence,1_3,NA,NA,completion,5434,29092,29090,29106,34540,34541,2023-04-28T06:57:35Z,34556,Inhalt,yaliyomo,s,kishawishi,hifadhi,kutembea,NA,NA,NA,NULL,NA,NA,NA,NA,NA,NA,NA,NA,NA,NA,NA,NA,NA,NA,NA,NA,NA,NA,NA
acbb5,Deep Question,html.Page,1_4_0_0,NA,NA,form submission,5407,34541,34540,34556,39963,39964,2023-04-28T06:57:40Z,39990,Fenster,dirisha,d,walakini,tasawari,maarifa,nashimo,NA,NA,NULL,NA,NA,NA,NA,NA,NA,NA,NA,NA,NA,NA,NA,NA,NA,NA,NA,NA,NA,NA
acbb5,Save data screen,canvas.Screen,1_4_0_1,NA,NA,timeout,500,39965,39973,39990,40473,40474,2023-04-28T06:57:41Z,40490,Fenster,dirisha,d,walakini,tasawari,maarifa,NA,NA,0,NULL,NA,NA,NA,NA,NA,NA,NA,NA,NA,NA,NA,NA,NA,NA,NA,NA,NA,NA,NA
acbb5,deep,flow.Sequence,1_4_0,NA,NA,completion,5917,34541,34540,34556,40473,40474,2023-04-28T06:57:41Z,40490,Fenster,dirisha,d,walakini,tasawari,maarifa,NA,NA,NA,NULL,NA,NA,NA,NA,NA,NA,NA,NA,NA,NA,NA,NA,NA,NA,NA,NA,NA,NA,NA
acbb5,task,flow.Sequence,1_4,NA,NA,completion,5917,34541,34540,34556,40473,40474,2023-04-28T06:57:41Z,40490,Fenster,dirisha,d,walakini,tasawari,maarifa,NA,NA,NA,NULL,NA,NA,NA,NA,NA,NA,NA,NA,NA,NA,NA,NA,NA,NA,NA,NA,NA,NA,NA
acbb5,Deep Question,html.Page,1_5_0_0,NA,NA,form submission,8841,40475,40473,40490,49331,49331,2023-04-28T06:57:49Z,49356,Wohlstand,mafanikio,d,chimbuko,kumbuko,mapwaji,kashiomo,NA,NA,NULL,NA,NA,NA,NA,NA,NA,NA,NA,NA,NA,NA,NA,NA,NA,NA,NA,NA,NA,NA
acbb5,Save data screen,canvas.Screen,1_5_0_1,NA,NA,timeout,500,49333,49339,49356,49839,49841,2023-04-28T06:57:50Z,49856,Wohlstand,mafanikio,d,chimbuko,kumbuko,mapwaji,NA,NA,0,NULL,NA,NA,NA,NA,NA,NA,NA,NA,NA,NA,NA,NA,NA,NA,NA,NA,NA,NA,NA
acbb5,deep,flow.Sequence,1_5_0,NA,NA,completion,9349,40475,40473,40490,49839,49842,2023-04-28T06:57:50Z,49856,Wohlstand,mafanikio,d,chimbuko,kumbuko,mapwaji,NA,NA,NA,NULL,NA,NA,NA,NA,NA,NA,NA,NA,NA,NA,NA,NA,NA,NA,NA,NA,NA,NA,NA
acbb5,task,flow.Sequence,1_5,NA,NA,completion,9349,40475,40473,40490,49839,49842,2023-04-28T06:57:50Z,49856,Wohlstand,mafanikio,d,chimbuko,kumbuko,mapwaji,NA,NA,NA,NULL,NA,NA,NA,NA,NA,NA,NA,NA,NA,NA,NA,NA,NA,NA,NA,NA,NA,NA,NA
acbb5,Deep Question,html.Page,1_6_0_0,NA,NA,form submission,9713,49842,49839,49856,59569,59570,2023-04-28T06:58:00Z,59606,Spionage,upelelezi,d,maslahi,utokazo,magangao,shaktimo,NA,NA,NULL,NA,NA,NA,NA,NA,NA,NA,NA,NA,NA,NA,NA,NA,NA,NA,NA,NA,NA,NA
acbb5,Save data screen,canvas.Screen,1_6_0_1,NA,NA,timeout,500,59572,59589,59606,60089,60090,2023-04-28T06:58:00Z,60106,Spionage,upelelezi,d,maslahi,utokazo,magangao,NA,NA,0,NULL,NA,NA,NA,NA,NA,NA,NA,NA,NA,NA,NA,NA,NA,NA,NA,NA,NA,NA,NA
acbb5,deep,flow.Sequence,1_6_0,NA,NA,completion,10233,49842,49839,49856,60089,60091,2023-04-28T06:58:00Z,60106,Spionage,upelelezi,d,maslahi,utokazo,magangao,NA,NA,NA,NULL,NA,NA,NA,NA,NA,NA,NA,NA,NA,NA,NA,NA,NA,NA,NA,NA,NA,NA,NA
acbb5,task,flow.Sequence,1_6,NA,NA,completion,10233,49842,49839,49856,60089,60091,2023-04-28T06:58:00Z,60106,Spionage,upelelezi,d,maslahi,utokazo,magangao,NA,NA,NA,NULL,NA,NA,NA,NA,NA,NA,NA,NA,NA,NA,NA,NA,NA,NA,NA,NA,NA,NA,NA
acbb5,Deep Question,html.Page,1_7_0_0,NA,NA,form submission,8359,60091,60089,60106,68465,68465,2023-04-28T06:58:09Z,68489,Ergänzung,kijalizo,d,ulaghai,mustarehe,matangazo,nkamo,NA,NA,NULL,NA,NA,NA,NA,NA,NA,NA,NA,NA,NA,NA,NA,NA,NA,NA,NA,NA,NA,NA
acbb5,Save data screen,canvas.Screen,1_7_0_1,NA,NA,timeout,500,68467,68474,68489,68972,68973,2023-04-28T06:58:09Z,68989,Ergänzung,kijalizo,d,ulaghai,mustarehe,matangazo,NA,NA,0,NULL,NA,NA,NA,NA,NA,NA,NA,NA,NA,NA,NA,NA,NA,NA,NA,NA,NA,NA,NA
acbb5,deep,flow.Sequence,1_7_0,NA,NA,completion,8866,60091,60089,60106,68972,68974,2023-04-28T06:58:09Z,68989,Ergänzung,kijalizo,d,ulaghai,mustarehe,matangazo,NA,NA,NA,NULL,NA,NA,NA,NA,NA,NA,NA,NA,NA,NA,NA,NA,NA,NA,NA,NA,NA,NA,NA
acbb5,task,flow.Sequence,1_7,NA,NA,completion,8866,60091,60089,60106,68972,68974,2023-04-28T06:58:09Z,68989,Ergänzung,kijalizo,d,ulaghai,mustarehe,matangazo,NA,NA,NA,NULL,NA,NA,NA,NA,NA,NA,NA,NA,NA,NA,NA,NA,NA,NA,NA,NA,NA,NA,NA
acbb5,Deep Question,html.Page,1_8_0_0,NA,NA,form submission,9139,68975,68972,68989,78128,78128,2023-04-28T06:58:18Z,78156,Hoffnung,matarajio,s,kutaalamika,uratibu,mvumbuzi,mndeleo,NA,NA,NULL,NA,NA,NA,NA,NA,NA,NA,NA,NA,NA,NA,NA,NA,NA,NA,NA,NA,NA,NA
acbb5,Save data screen,canvas.Screen,1_8_0_1,NA,NA,timeout,500,78131,78139,78156,78639,78640,2023-04-28T06:58:19Z,78656,Hoffnung,matarajio,s,kutaalamika,uratibu,mvumbuzi,NA,NA,0,NULL,NA,NA,NA,NA,NA,NA,NA,NA,NA,NA,NA,NA,NA,NA,NA,NA,NA,NA,NA
acbb5,deep,flow.Sequence,1_8_0,NA,NA,completion,9650,68975,68972,68989,78639,78641,2023-04-28T06:58:19Z,78656,Hoffnung,matarajio,s,kutaalamika,uratibu,mvumbuzi,NA,NA,NA,NULL,NA,NA,NA,NA,NA,NA,NA,NA,NA,NA,NA,NA,NA,NA,NA,NA,NA,NA,NA
acbb5,task,flow.Sequence,1_8,NA,NA,completion,9650,68975,68972,68989,78639,78641,2023-04-28T06:58:19Z,78656,Hoffnung,matarajio,s,kutaalamika,uratibu,mvumbuzi,NA,NA,NA,NULL,NA,NA,NA,NA,NA,NA,NA,NA,NA,NA,NA,NA,NA,NA,NA,NA,NA,NA,NA
acbb5,Deep Question,html.Page,1_9_0_0,NA,NA,form submission,3187,78641,78639,78656,81843,81843,2023-04-28T06:58:22Z,81872,Vergnügen,kichekesho,s,dubwana,mpanuko,mtesaji,mandeleo,NA,NA,NULL,NA,NA,NA,NA,NA,NA,NA,NA,NA,NA,NA,NA,NA,NA,NA,NA,NA,NA,NA
acbb5,Save data screen,canvas.Screen,1_9_0_1,NA,NA,timeout,500,81844,81856,81872,82356,82356,2023-04-28T06:58:22Z,82372,Vergnügen,kichekesho,s,dubwana,mpanuko,mtesaji,NA,NA,0,NULL,NA,NA,NA,NA,NA,NA,NA,NA,NA,NA,NA,NA,NA,NA,NA,NA,NA,NA,NA
acbb5,deep,flow.Sequence,1_9_0,NA,NA,completion,3700,78641,78639,78656,82356,82357,2023-04-28T06:58:22Z,82372,Vergnügen,kichekesho,s,dubwana,mpanuko,mtesaji,NA,NA,NA,NULL,NA,NA,NA,NA,NA,NA,NA,NA,NA,NA,NA,NA,NA,NA,NA,NA,NA,NA,NA
acbb5,task,flow.Sequence,1_9,NA,NA,completion,3700,78641,78639,78656,82356,82357,2023-04-28T06:58:22Z,82372,Vergnügen,kichekesho,s,dubwana,mpanuko,mtesaji,NA,NA,NA,NULL,NA,NA,NA,NA,NA,NA,NA,NA,NA,NA,NA,NA,NA,NA,NA,NA,NA,NA,NA
acbb5,Deep Question,html.Page,1_10_0_0,NA,NA,form submission,9701,82358,82356,82372,92073,92073,2023-04-28T06:58:32Z,92106,Schlange,foleni,d,uvumilivu,uteuzi,muuzaji,filoma,NA,NA,NULL,NA,NA,NA,NA,NA,NA,NA,NA,NA,NA,NA,NA,NA,NA,NA,NA,NA,NA,NA
acbb5,Save data screen,canvas.Screen,1_10_0_1,NA,NA,timeout,500,92075,92089,92106,92589,92589,2023-04-28T06:58:33Z,92606,Schlange,foleni,d,uvumilivu,uteuzi,muuzaji,NA,NA,0,NULL,NA,NA,NA,NA,NA,NA,NA,NA,NA,NA,NA,NA,NA,NA,NA,NA,NA,NA,NA
acbb5,deep,flow.Sequence,1_10_0,NA,NA,completion,10217,82357,82356,82372,92589,92590,2023-04-28T06:58:33Z,92606,Schlange,foleni,d,uvumilivu,uteuzi,muuzaji,NA,NA,NA,NULL,NA,NA,NA,NA,NA,NA,NA,NA,NA,NA,NA,NA,NA,NA,NA,NA,NA,NA,NA
acbb5,task,flow.Sequence,1_10,NA,NA,completion,10217,82357,82356,82372,92589,92590,2023-04-28T06:58:33Z,92606,Schlange,foleni,d,uvumilivu,uteuzi,muuzaji,NA,NA,NA,NULL,NA,NA,NA,NA,NA,NA,NA,NA,NA,NA,NA,NA,NA,NA,NA,NA,NA,NA,NA
acbb5,Deep Question,html.Page,1_11_0_0,NA,NA,form submission,9154,92591,92589,92606,101760,101761,2023-04-28T06:58:42Z,101789,Notfall,dharura,s,rairai,malalamiko,ahueni,foleni,NA,NA,NULL,NA,NA,NA,NA,NA,NA,NA,NA,NA,NA,NA,NA,NA,NA,NA,NA,NA,NA,NA
acbb5,Save data screen,canvas.Screen,1_11_0_1,NA,NA,timeout,500,101762,101772,101789,102272,102273,2023-04-28T06:58:42Z,102289,Notfall,dharura,s,rairai,malalamiko,ahueni,NA,NA,0,NULL,NA,NA,NA,NA,NA,NA,NA,NA,NA,NA,NA,NA,NA,NA,NA,NA,NA,NA,NA
acbb5,deep,flow.Sequence,1_11_0,NA,NA,completion,9666,92591,92589,92606,102272,102274,2023-04-28T06:58:42Z,102289,Notfall,dharura,s,rairai,malalamiko,ahueni,NA,NA,NA,NULL,NA,NA,NA,NA,NA,NA,NA,NA,NA,NA,NA,NA,NA,NA,NA,NA,NA,NA,NA
acbb5,task,flow.Sequence,1_11,NA,NA,completion,9666,92590,92589,92606,102272,102274,2023-04-28T06:58:42Z,102289,Notfall,dharura,s,rairai,malalamiko,ahueni,NA,NA,NA,NULL,NA,NA,NA,NA,NA,NA,NA,NA,NA,NA,NA,NA,NA,NA,NA,NA,NA,NA,NA
acbb5,Deep Question,html.Page,1_12_0_0,NA,NA,form submission,14733,102275,102272,102289,117022,117022,2023-04-28T06:58:57Z,117055,Verpackung,ufungaji,s,uhusiano,upimaji,uchunguzi,nashemi,NA,NA,NULL,NA,NA,NA,NA,NA,NA,NA,NA,NA,NA,NA,NA,NA,NA,NA,NA,NA,NA,NA
acbb5,Save data screen,canvas.Screen,1_12_0_1,NA,NA,timeout,500,117025,117039,117055,117539,117539,2023-04-28T06:58:58Z,117555,Verpackung,ufungaji,s,uhusiano,upimaji,uchunguzi,NA,NA,0,NULL,NA,NA,NA,NA,NA,NA,NA,NA,NA,NA,NA,NA,NA,NA,NA,NA,NA,NA,NA
acbb5,deep,flow.Sequence,1_12_0,NA,NA,completion,15250,102274,102272,102289,117539,117540,2023-04-28T06:58:58Z,117555,Verpackung,ufungaji,s,uhusiano,upimaji,uchunguzi,NA,NA,NA,NULL,NA,NA,NA,NA,NA,NA,NA,NA,NA,NA,NA,NA,NA,NA,NA,NA,NA,NA,NA
acbb5,task,flow.Sequence,1_12,NA,NA,completion,15250,102274,102272,102289,117539,117540,2023-04-28T06:58:58Z,117555,Verpackung,ufungaji,s,uhusiano,upimaji,uchunguzi,NA,NA,NA,NULL,NA,NA,NA,NA,NA,NA,NA,NA,NA,NA,NA,NA,NA,NA,NA,NA,NA,NA,NA
acbb5,Deep Question,html.Page,1_13_0_0,NA,NA,form submission,5352,117540,117539,117555,122907,122907,2023-04-28T06:59:03Z,122938,Toleranz,kuvumiliana,d,maombolezo,ujasusi,mchekeshaji,shtuko,NA,NA,NULL,NA,NA,NA,NA,NA,NA,NA,NA,NA,NA,NA,NA,NA,NA,NA,NA,NA,NA,NA
acbb5,Save data screen,canvas.Screen,1_13_0_1,NA,NA,timeout,501,122909,122922,122938,123421,123422,2023-04-28T06:59:04Z,123439,Toleranz,kuvumiliana,d,maombolezo,ujasusi,mchekeshaji,NA,NA,0,NULL,NA,NA,NA,NA,NA,NA,NA,NA,NA,NA,NA,NA,NA,NA,NA,NA,NA,NA,NA
acbb5,deep,flow.Sequence,1_13_0,NA,NA,completion,5866,117540,117539,117555,123421,123423,2023-04-28T06:59:04Z,123439,Toleranz,kuvumiliana,d,maombolezo,ujasusi,mchekeshaji,NA,NA,NA,NULL,NA,NA,NA,NA,NA,NA,NA,NA,NA,NA,NA,NA,NA,NA,NA,NA,NA,NA,NA
acbb5,task,flow.Sequence,1_13,NA,NA,completion,5866,117540,117539,117555,123421,123424,2023-04-28T06:59:04Z,123439,Toleranz,kuvumiliana,d,maombolezo,ujasusi,mchekeshaji,NA,NA,NA,NULL,NA,NA,NA,NA,NA,NA,NA,NA,NA,NA,NA,NA,NA,NA,NA,NA,NA,NA,NA
acbb5,Deep Question,html.Page,1_14_0_0,NA,NA,form submission,5154,123424,123421,123439,128593,128593,2023-04-28T06:59:09Z,128622,Theorie,nadharia,d,ushungi,mkutano,uwakilishi,foleni,NA,NA,NULL,NA,NA,NA,NA,NA,NA,NA,NA,NA,NA,NA,NA,NA,NA,NA,NA,NA,NA,NA
acbb5,Save data screen,canvas.Screen,1_14_0_1,NA,NA,timeout,500,128595,128605,128622,129105,129106,2023-04-28T06:59:09Z,129122,Theorie,nadharia,d,ushungi,mkutano,uwakilishi,NA,NA,0,NULL,NA,NA,NA,NA,NA,NA,NA,NA,NA,NA,NA,NA,NA,NA,NA,NA,NA,NA,NA
acbb5,deep,flow.Sequence,1_14_0,NA,NA,completion,5666,123424,123421,123439,129105,129106,2023-04-28T06:59:09Z,129122,Theorie,nadharia,d,ushungi,mkutano,uwakilishi,NA,NA,NA,NULL,NA,NA,NA,NA,NA,NA,NA,NA,NA,NA,NA,NA,NA,NA,NA,NA,NA,NA,NA
acbb5,task,flow.Sequence,1_14,NA,NA,completion,5666,123424,123421,123439,129105,129106,2023-04-28T06:59:09Z,129122,Theorie,nadharia,d,ushungi,mkutano,uwakilishi,NA,NA,NA,NULL,NA,NA,NA,NA,NA,NA,NA,NA,NA,NA,NA,NA,NA,NA,NA,NA,NA,NA,NA
acbb5,Deep Question,html.Page,1_15_0_0,NA,NA,form submission,11751,129107,129105,129122,140873,140873,2023-04-28T06:59:21Z,140905,Schüler,mwanafunzi,s,mwekezaji,matumizi,uaminifu,nakuto,NA,NA,NULL,NA,NA,NA,NA,NA,NA,NA,NA,NA,NA,NA,NA,NA,NA,NA,NA,NA,NA,NA
acbb5,Save data screen,canvas.Screen,1_15_0_1,NA,NA,timeout,503,140876,140888,140905,141388,141389,2023-04-28T06:59:21Z,141408,Schüler,mwanafunzi,s,mwekezaji,matumizi,uaminifu,NA,NA,0,NULL,NA,NA,NA,NA,NA,NA,NA,NA,NA,NA,NA,NA,NA,NA,NA,NA,NA,NA,NA
acbb5,deep,flow.Sequence,1_15_0,NA,NA,completion,12266,129107,129105,129122,141388,141390,2023-04-28T06:59:21Z,141408,Schüler,mwanafunzi,s,mwekezaji,matumizi,uaminifu,NA,NA,NA,NULL,NA,NA,NA,NA,NA,NA,NA,NA,NA,NA,NA,NA,NA,NA,NA,NA,NA,NA,NA
acbb5,task,flow.Sequence,1_15,NA,NA,completion,12266,129106,129105,129122,141388,141390,2023-04-28T06:59:21Z,141408,Schüler,mwanafunzi,s,mwekezaji,matumizi,uaminifu,NA,NA,NA,NULL,NA,NA,NA,NA,NA,NA,NA,NA,NA,NA,NA,NA,NA,NA,NA,NA,NA,NA,NA
acbb5,retrieval block 1 (cued recall),flow.Loop,1,NA,NA,completion,136015,5351,5363,5373,141388,141390,2023-04-28T06:59:21Z,141408,NA,NA,NA,NA,NA,NA,NA,NA,NA,NULL,NA,NA,NA,NA,NA,NA,NA,NA,NA,NA,NA,NA,NA,NA,NA,NA,NA,NA,NA
acbb5,Shallow Question,html.Page,2_0_0_0,NA,NA,form submission,9361,141391,141388,141408,150769,150770,2023-04-28T06:59:31Z,150805,Theorie,nadharia,d,ushungi,mkutano,uwakilishi,nadharia,NA,NA,"c(""distractor1"", ""distractor2"", ""distractor3"")",NA,NA,NA,NA,NA,NA,NA,NA,NA,NA,NA,NA,NA,NA,NA,NA,NA,NA,NA
acbb5,Save data screen,canvas.Screen,2_0_0_1,NA,NA,timeout,500,150771,150788,150805,151288,151290,2023-04-28T06:59:31Z,151305,Theorie,nadharia,d,ushungi,mkutano,uwakilishi,NA,NA,1,"c(""distractor1"", ""distractor2"", ""distractor3"")",NA,NA,NA,NA,NA,NA,NA,NA,NA,NA,NA,NA,NA,NA,NA,NA,NA,NA,NA
acbb5,shallow,flow.Sequence,2_0_0,NA,NA,completion,9880,141391,141388,141408,151288,151290,2023-04-28T06:59:31Z,151305,Theorie,nadharia,d,ushungi,mkutano,uwakilishi,NA,NA,NA,"c(""distractor1"", ""distractor2"", ""distractor3"")",NA,NA,NA,NA,NA,NA,NA,NA,NA,NA,NA,NA,NA,NA,NA,NA,NA,NA,NA
acbb5,task,flow.Sequence,2_0,NA,NA,completion,9880,141391,141388,141408,151288,151291,2023-04-28T06:59:31Z,151305,Theorie,nadharia,d,ushungi,mkutano,uwakilishi,NA,NA,NA,"c(""distractor1"", ""distractor2"", ""distractor3"")",NA,NA,NA,NA,NA,NA,NA,NA,NA,NA,NA,NA,NA,NA,NA,NA,NA,NA,NA
acbb5,Shallow Question,html.Page,2_1_0_0,NA,NA,form submission,5847,151291,151288,151305,157152,157152,2023-04-28T06:59:37Z,157171,Schock,mshtuko,d,biashara,kukataza,vichekesho,mshtuko,NA,NA,"c(""distractor1"", ""distractor2"", ""distractor3"")",NA,NA,NA,NA,NA,NA,NA,NA,NA,NA,NA,NA,NA,NA,NA,NA,NA,NA,NA
acbb5,Save data screen,canvas.Screen,2_1_0_1,NA,NA,timeout,500,157153,157155,157171,157655,157655,2023-04-28T06:59:38Z,157671,Schock,mshtuko,d,biashara,kukataza,vichekesho,NA,NA,1,"c(""distractor1"", ""distractor2"", ""distractor3"")",NA,NA,NA,NA,NA,NA,NA,NA,NA,NA,NA,NA,NA,NA,NA,NA,NA,NA,NA
acbb5,shallow,flow.Sequence,2_1_0,NA,NA,completion,6350,151291,151288,151305,157655,157656,2023-04-28T06:59:38Z,157671,Schock,mshtuko,d,biashara,kukataza,vichekesho,NA,NA,NA,"c(""distractor1"", ""distractor2"", ""distractor3"")",NA,NA,NA,NA,NA,NA,NA,NA,NA,NA,NA,NA,NA,NA,NA,NA,NA,NA,NA
acbb5,task,flow.Sequence,2_1,NA,NA,completion,6350,151291,151288,151305,157655,157656,2023-04-28T06:59:38Z,157671,Schock,mshtuko,d,biashara,kukataza,vichekesho,NA,NA,NA,"c(""distractor1"", ""distractor2"", ""distractor3"")",NA,NA,NA,NA,NA,NA,NA,NA,NA,NA,NA,NA,NA,NA,NA,NA,NA,NA,NA
acbb5,Shallow Question,html.Page,2_2_0_0,NA,NA,form submission,14814,157657,157655,157671,172485,172485,2023-04-28T06:59:53Z,172504,Verpackung,ufungaji,s,uhusiano,upimaji,uchunguzi,ufungaji,NA,NA,"c(""distractor1"", ""distractor2"", ""distractor3"")",NA,NA,NA,NA,NA,NA,NA,NA,NA,NA,NA,NA,NA,NA,NA,NA,NA,NA,NA
acbb5,Save data screen,canvas.Screen,2_2_0_1,NA,NA,timeout,501,172487,172493,172504,172988,172989,2023-04-28T06:59:53Z,173005,Verpackung,ufungaji,s,uhusiano,upimaji,uchunguzi,NA,NA,1,"c(""distractor1"", ""distractor2"", ""distractor3"")",NA,NA,NA,NA,NA,NA,NA,NA,NA,NA,NA,NA,NA,NA,NA,NA,NA,NA,NA
acbb5,shallow,flow.Sequence,2_2_0,NA,NA,completion,15317,157657,157655,157671,172988,172989,2023-04-28T06:59:53Z,173005,Verpackung,ufungaji,s,uhusiano,upimaji,uchunguzi,NA,NA,NA,"c(""distractor1"", ""distractor2"", ""distractor3"")",NA,NA,NA,NA,NA,NA,NA,NA,NA,NA,NA,NA,NA,NA,NA,NA,NA,NA,NA
acbb5,task,flow.Sequence,2_2,NA,NA,completion,15317,157656,157655,157671,172988,172989,2023-04-28T06:59:53Z,173005,Verpackung,ufungaji,s,uhusiano,upimaji,uchunguzi,NA,NA,NA,"c(""distractor1"", ""distractor2"", ""distractor3"")",NA,NA,NA,NA,NA,NA,NA,NA,NA,NA,NA,NA,NA,NA,NA,NA,NA,NA,NA
acbb5,Shallow Question,html.Page,2_3_0_0,NA,NA,form submission,5987,172989,172988,173005,178992,178993,2023-04-28T06:59:59Z,179021,Vergnügen,kichekesho,s,dubwana,mpanuko,mtesaji,kichekesho,NA,NA,"c(""distractor1"", ""distractor2"", ""distractor3"")",NA,NA,NA,NA,NA,NA,NA,NA,NA,NA,NA,NA,NA,NA,NA,NA,NA,NA,NA
acbb5,Save data screen,canvas.Screen,2_3_0_1,NA,NA,timeout,500,178994,179004,179021,179504,179505,2023-04-28T07:00:00Z,179521,Vergnügen,kichekesho,s,dubwana,mpanuko,mtesaji,NA,NA,1,"c(""distractor1"", ""distractor2"", ""distractor3"")",NA,NA,NA,NA,NA,NA,NA,NA,NA,NA,NA,NA,NA,NA,NA,NA,NA,NA,NA
acbb5,shallow,flow.Sequence,2_3_0,NA,NA,completion,6499,172989,172988,173005,179504,179506,2023-04-28T07:00:00Z,179521,Vergnügen,kichekesho,s,dubwana,mpanuko,mtesaji,NA,NA,NA,"c(""distractor1"", ""distractor2"", ""distractor3"")",NA,NA,NA,NA,NA,NA,NA,NA,NA,NA,NA,NA,NA,NA,NA,NA,NA,NA,NA
acbb5,task,flow.Sequence,2_3,NA,NA,completion,6499,172989,172988,173005,179504,179506,2023-04-28T07:00:00Z,179521,Vergnügen,kichekesho,s,dubwana,mpanuko,mtesaji,NA,NA,NA,"c(""distractor1"", ""distractor2"", ""distractor3"")",NA,NA,NA,NA,NA,NA,NA,NA,NA,NA,NA,NA,NA,NA,NA,NA,NA,NA,NA
acbb5,Shallow Question,html.Page,2_4_0_0,NA,NA,form submission,6233,179507,179504,179521,185754,185755,2023-04-28T07:00:06Z,185788,Inhalt,yaliyomo,s,kishawishi,hifadhi,kutembea,yaliyomo,NA,NA,"c(""distractor1"", ""distractor2"", ""distractor3"")",NA,NA,NA,NA,NA,NA,NA,NA,NA,NA,NA,NA,NA,NA,NA,NA,NA,NA,NA
acbb5,Save data screen,canvas.Screen,2_4_0_1,NA,NA,timeout,500,185757,185771,185788,186271,186272,2023-04-28T07:00:06Z,186288,Inhalt,yaliyomo,s,kishawishi,hifadhi,kutembea,NA,NA,1,"c(""distractor1"", ""distractor2"", ""distractor3"")",NA,NA,NA,NA,NA,NA,NA,NA,NA,NA,NA,NA,NA,NA,NA,NA,NA,NA,NA
acbb5,shallow,flow.Sequence,2_4_0,NA,NA,completion,6750,179507,179504,179521,186271,186272,2023-04-28T07:00:06Z,186288,Inhalt,yaliyomo,s,kishawishi,hifadhi,kutembea,NA,NA,NA,"c(""distractor1"", ""distractor2"", ""distractor3"")",NA,NA,NA,NA,NA,NA,NA,NA,NA,NA,NA,NA,NA,NA,NA,NA,NA,NA,NA
acbb5,task,flow.Sequence,2_4,NA,NA,completion,6750,179506,179504,179521,186271,186272,2023-04-28T07:00:06Z,186288,Inhalt,yaliyomo,s,kishawishi,hifadhi,kutembea,NA,NA,NA,"c(""distractor1"", ""distractor2"", ""distractor3"")",NA,NA,NA,NA,NA,NA,NA,NA,NA,NA,NA,NA,NA,NA,NA,NA,NA,NA,NA
acbb5,Shallow Question,html.Page,2_5_0_0,NA,NA,form submission,6628,186272,186271,186288,192916,192917,2023-04-28T07:00:13Z,192937,Tester,wanaojaribu,s,sherti,sihiri,mlipuko,wanaojaribu,NA,NA,"c(""distractor1"", ""distractor2"", ""distractor3"")",NA,NA,NA,NA,NA,NA,NA,NA,NA,NA,NA,NA,NA,NA,NA,NA,NA,NA,NA
acbb5,Save data screen,canvas.Screen,2_5_0_1,NA,NA,timeout,500,192918,192925,192937,193421,193422,2023-04-28T07:00:14Z,193437,Tester,wanaojaribu,s,sherti,sihiri,mlipuko,NA,NA,1,"c(""distractor1"", ""distractor2"", ""distractor3"")",NA,NA,NA,NA,NA,NA,NA,NA,NA,NA,NA,NA,NA,NA,NA,NA,NA,NA,NA
acbb5,shallow,flow.Sequence,2_5_0,NA,NA,completion,7133,186272,186271,186288,193421,193422,2023-04-28T07:00:14Z,193437,Tester,wanaojaribu,s,sherti,sihiri,mlipuko,NA,NA,NA,"c(""distractor1"", ""distractor2"", ""distractor3"")",NA,NA,NA,NA,NA,NA,NA,NA,NA,NA,NA,NA,NA,NA,NA,NA,NA,NA,NA
acbb5,task,flow.Sequence,2_5,NA,NA,completion,7133,186272,186271,186288,193421,193423,2023-04-28T07:00:14Z,193437,Tester,wanaojaribu,s,sherti,sihiri,mlipuko,NA,NA,NA,"c(""distractor1"", ""distractor2"", ""distractor3"")",NA,NA,NA,NA,NA,NA,NA,NA,NA,NA,NA,NA,NA,NA,NA,NA,NA,NA,NA
acbb5,Shallow Question,html.Page,2_6_0_0,NA,NA,form submission,9328,193423,193421,193437,202765,202766,2023-04-28T07:00:23Z,202788,Vermutung,udhanifu,s,haramia,tikisho,itifaki,udhanifu,NA,NA,"c(""distractor1"", ""distractor2"", ""distractor3"")",NA,NA,NA,NA,NA,NA,NA,NA,NA,NA,NA,NA,NA,NA,NA,NA,NA,NA,NA
acbb5,Save data screen,canvas.Screen,2_6_0_1,NA,NA,timeout,499,202767,202771,202788,203271,203272,2023-04-28T07:00:23Z,203287,Vermutung,udhanifu,s,haramia,tikisho,itifaki,NA,NA,1,"c(""distractor1"", ""distractor2"", ""distractor3"")",NA,NA,NA,NA,NA,NA,NA,NA,NA,NA,NA,NA,NA,NA,NA,NA,NA,NA,NA
acbb5,shallow,flow.Sequence,2_6_0,NA,NA,completion,9834,193423,193421,193437,203271,203272,2023-04-28T07:00:23Z,203287,Vermutung,udhanifu,s,haramia,tikisho,itifaki,NA,NA,NA,"c(""distractor1"", ""distractor2"", ""distractor3"")",NA,NA,NA,NA,NA,NA,NA,NA,NA,NA,NA,NA,NA,NA,NA,NA,NA,NA,NA
acbb5,task,flow.Sequence,2_6,NA,NA,completion,9834,193423,193421,193437,203271,203272,2023-04-28T07:00:23Z,203287,Vermutung,udhanifu,s,haramia,tikisho,itifaki,NA,NA,NA,"c(""distractor1"", ""distractor2"", ""distractor3"")",NA,NA,NA,NA,NA,NA,NA,NA,NA,NA,NA,NA,NA,NA,NA,NA,NA,NA,NA
acbb5,Shallow Question,html.Page,2_7_0_0,NA,NA,form submission,8733,203273,203271,203287,212020,212021,2023-04-28T07:00:32Z,212054,Hoffnung,matarajio,s,kutaalamika,uratibu,mvumbuzi,matarajio,NA,NA,"c(""distractor1"", ""distractor2"", ""distractor3"")",NA,NA,NA,NA,NA,NA,NA,NA,NA,NA,NA,NA,NA,NA,NA,NA,NA,NA,NA
acbb5,Save data screen,canvas.Screen,2_7_0_1,NA,NA,timeout,500,212023,212037,212054,212537,212538,2023-04-28T07:00:33Z,212554,Hoffnung,matarajio,s,kutaalamika,uratibu,mvumbuzi,NA,NA,1,"c(""distractor1"", ""distractor2"", ""distractor3"")",NA,NA,NA,NA,NA,NA,NA,NA,NA,NA,NA,NA,NA,NA,NA,NA,NA,NA,NA
acbb5,shallow,flow.Sequence,2_7_0,NA,NA,completion,9250,203273,203271,203287,212537,212539,2023-04-28T07:00:33Z,212554,Hoffnung,matarajio,s,kutaalamika,uratibu,mvumbuzi,NA,NA,NA,"c(""distractor1"", ""distractor2"", ""distractor3"")",NA,NA,NA,NA,NA,NA,NA,NA,NA,NA,NA,NA,NA,NA,NA,NA,NA,NA,NA
acbb5,task,flow.Sequence,2_7,NA,NA,completion,9250,203273,203271,203287,212537,212539,2023-04-28T07:00:33Z,212554,Hoffnung,matarajio,s,kutaalamika,uratibu,mvumbuzi,NA,NA,NA,"c(""distractor1"", ""distractor2"", ""distractor3"")",NA,NA,NA,NA,NA,NA,NA,NA,NA,NA,NA,NA,NA,NA,NA,NA,NA,NA,NA
acbb5,Shallow Question,html.Page,2_8_0_0,NA,NA,form submission,3768,212539,212537,212554,216322,216322,2023-04-28T07:00:36Z,216353,Schlange,foleni,d,uvumilivu,uteuzi,muuzaji,foleni,NA,NA,"c(""distractor1"", ""distractor2"", ""distractor3"")",NA,NA,NA,NA,NA,NA,NA,NA,NA,NA,NA,NA,NA,NA,NA,NA,NA,NA,NA
acbb5,Save data screen,canvas.Screen,2_8_0_1,NA,NA,timeout,501,216324,216337,216353,216836,216838,2023-04-28T07:00:37Z,216854,Schlange,foleni,d,uvumilivu,uteuzi,muuzaji,NA,NA,1,"c(""distractor1"", ""distractor2"", ""distractor3"")",NA,NA,NA,NA,NA,NA,NA,NA,NA,NA,NA,NA,NA,NA,NA,NA,NA,NA,NA
acbb5,shallow,flow.Sequence,2_8_0,NA,NA,completion,4282,212539,212537,212554,216836,216839,2023-04-28T07:00:37Z,216854,Schlange,foleni,d,uvumilivu,uteuzi,muuzaji,NA,NA,NA,"c(""distractor1"", ""distractor2"", ""distractor3"")",NA,NA,NA,NA,NA,NA,NA,NA,NA,NA,NA,NA,NA,NA,NA,NA,NA,NA,NA
acbb5,task,flow.Sequence,2_8,NA,NA,completion,4282,212539,212537,212554,216836,216839,2023-04-28T07:00:37Z,216854,Schlange,foleni,d,uvumilivu,uteuzi,muuzaji,NA,NA,NA,"c(""distractor1"", ""distractor2"", ""distractor3"")",NA,NA,NA,NA,NA,NA,NA,NA,NA,NA,NA,NA,NA,NA,NA,NA,NA,NA,NA
acbb5,Shallow Question,html.Page,2_9_0_0,NA,NA,form submission,4907,216839,216836,216854,221761,221761,2023-04-28T07:00:42Z,221787,Schüler,mwanafunzi,s,mwekezaji,matumizi,uaminifu,mwanafunzi,NA,NA,"c(""distractor1"", ""distractor2"", ""distractor3"")",NA,NA,NA,NA,NA,NA,NA,NA,NA,NA,NA,NA,NA,NA,NA,NA,NA,NA,NA
acbb5,Save data screen,canvas.Screen,2_9_0_1,NA,NA,timeout,500,221764,221771,221787,222271,222271,2023-04-28T07:00:42Z,222287,Schüler,mwanafunzi,s,mwekezaji,matumizi,uaminifu,NA,NA,1,"c(""distractor1"", ""distractor2"", ""distractor3"")",NA,NA,NA,NA,NA,NA,NA,NA,NA,NA,NA,NA,NA,NA,NA,NA,NA,NA,NA
acbb5,shallow,flow.Sequence,2_9_0,NA,NA,completion,5417,216839,216836,216854,222271,222272,2023-04-28T07:00:42Z,222287,Schüler,mwanafunzi,s,mwekezaji,matumizi,uaminifu,NA,NA,NA,"c(""distractor1"", ""distractor2"", ""distractor3"")",NA,NA,NA,NA,NA,NA,NA,NA,NA,NA,NA,NA,NA,NA,NA,NA,NA,NA,NA
acbb5,task,flow.Sequence,2_9,NA,NA,completion,5417,216839,216836,216854,222271,222272,2023-04-28T07:00:42Z,222287,Schüler,mwanafunzi,s,mwekezaji,matumizi,uaminifu,NA,NA,NA,"c(""distractor1"", ""distractor2"", ""distractor3"")",NA,NA,NA,NA,NA,NA,NA,NA,NA,NA,NA,NA,NA,NA,NA,NA,NA,NA,NA
acbb5,Shallow Question,html.Page,2_10_0_0,NA,NA,form submission,8890,222272,222271,222287,231177,231178,2023-04-28T07:00:51Z,231204,Toleranz,kuvumiliana,d,maombolezo,ujasusi,mchekeshaji,kuvumiliana,NA,NA,"c(""distractor1"", ""distractor2"", ""distractor3"")",NA,NA,NA,NA,NA,NA,NA,NA,NA,NA,NA,NA,NA,NA,NA,NA,NA,NA,NA
acbb5,Save data screen,canvas.Screen,2_10_0_1,NA,NA,timeout,500,231179,231187,231204,231687,231687,2023-04-28T07:00:52Z,231704,Toleranz,kuvumiliana,d,maombolezo,ujasusi,mchekeshaji,NA,NA,1,"c(""distractor1"", ""distractor2"", ""distractor3"")",NA,NA,NA,NA,NA,NA,NA,NA,NA,NA,NA,NA,NA,NA,NA,NA,NA,NA,NA
acbb5,shallow,flow.Sequence,2_10_0,NA,NA,completion,9400,222272,222271,222287,231687,231688,2023-04-28T07:00:52Z,231704,Toleranz,kuvumiliana,d,maombolezo,ujasusi,mchekeshaji,NA,NA,NA,"c(""distractor1"", ""distractor2"", ""distractor3"")",NA,NA,NA,NA,NA,NA,NA,NA,NA,NA,NA,NA,NA,NA,NA,NA,NA,NA,NA
acbb5,task,flow.Sequence,2_10,NA,NA,completion,9400,222272,222271,222287,231687,231688,2023-04-28T07:00:52Z,231704,Toleranz,kuvumiliana,d,maombolezo,ujasusi,mchekeshaji,NA,NA,NA,"c(""distractor1"", ""distractor2"", ""distractor3"")",NA,NA,NA,NA,NA,NA,NA,NA,NA,NA,NA,NA,NA,NA,NA,NA,NA,NA,NA
acbb5,Shallow Question,html.Page,2_11_0_0,NA,NA,form submission,3241,231688,231687,231704,234945,234946,2023-04-28T07:00:55Z,234970,Fenster,dirisha,d,walakini,tasawari,maarifa,dirisha,NA,NA,"c(""distractor1"", ""distractor2"", ""distractor3"")",NA,NA,NA,NA,NA,NA,NA,NA,NA,NA,NA,NA,NA,NA,NA,NA,NA,NA,NA
acbb5,Save data screen,canvas.Screen,2_11_0_1,NA,NA,timeout,501,234947,234953,234970,235454,235455,2023-04-28T07:00:56Z,235471,Fenster,dirisha,d,walakini,tasawari,maarifa,NA,NA,1,"c(""distractor1"", ""distractor2"", ""distractor3"")",NA,NA,NA,NA,NA,NA,NA,NA,NA,NA,NA,NA,NA,NA,NA,NA,NA,NA,NA
acbb5,shallow,flow.Sequence,2_11_0,NA,NA,completion,3750,231688,231687,231704,235454,235455,2023-04-28T07:00:56Z,235471,Fenster,dirisha,d,walakini,tasawari,maarifa,NA,NA,NA,"c(""distractor1"", ""distractor2"", ""distractor3"")",NA,NA,NA,NA,NA,NA,NA,NA,NA,NA,NA,NA,NA,NA,NA,NA,NA,NA,NA
acbb5,task,flow.Sequence,2_11,NA,NA,completion,3750,231688,231687,231704,235454,235456,2023-04-28T07:00:56Z,235471,Fenster,dirisha,d,walakini,tasawari,maarifa,NA,NA,NA,"c(""distractor1"", ""distractor2"", ""distractor3"")",NA,NA,NA,NA,NA,NA,NA,NA,NA,NA,NA,NA,NA,NA,NA,NA,NA,NA,NA
acbb5,Shallow Question,html.Page,2_12_0_0,NA,NA,form submission,4386,235456,235454,235471,239857,239858,2023-04-28T07:01:00Z,239887,Notfall,dharura,s,rairai,malalamiko,ahueni,dharura,NA,NA,"c(""distractor1"", ""distractor2"", ""distractor3"")",NA,NA,NA,NA,NA,NA,NA,NA,NA,NA,NA,NA,NA,NA,NA,NA,NA,NA,NA
acbb5,Save data screen,canvas.Screen,2_12_0_1,NA,NA,timeout,500,239860,239870,239887,240370,240371,2023-04-28T07:01:00Z,240387,Notfall,dharura,s,rairai,malalamiko,ahueni,NA,NA,1,"c(""distractor1"", ""distractor2"", ""distractor3"")",NA,NA,NA,NA,NA,NA,NA,NA,NA,NA,NA,NA,NA,NA,NA,NA,NA,NA,NA
acbb5,shallow,flow.Sequence,2_12_0,NA,NA,completion,4899,235456,235454,235471,240370,240372,2023-04-28T07:01:00Z,240387,Notfall,dharura,s,rairai,malalamiko,ahueni,NA,NA,NA,"c(""distractor1"", ""distractor2"", ""distractor3"")",NA,NA,NA,NA,NA,NA,NA,NA,NA,NA,NA,NA,NA,NA,NA,NA,NA,NA,NA
acbb5,task,flow.Sequence,2_12,NA,NA,completion,4899,235456,235454,235471,240370,240372,2023-04-28T07:01:00Z,240387,Notfall,dharura,s,rairai,malalamiko,ahueni,NA,NA,NA,"c(""distractor1"", ""distractor2"", ""distractor3"")",NA,NA,NA,NA,NA,NA,NA,NA,NA,NA,NA,NA,NA,NA,NA,NA,NA,NA,NA
acbb5,Shallow Question,html.Page,2_13_0_0,NA,NA,form submission,4697,240372,240370,240387,245084,245084,2023-04-28T07:01:05Z,245120,Wohlstand,mafanikio,d,chimbuko,kumbuko,mapwaji,kumbuko,NA,NA,"c(""distractor1"", ""distractor2"", ""distractor3"")",NA,NA,NA,NA,NA,NA,NA,NA,NA,NA,NA,NA,NA,NA,NA,NA,NA,NA,NA
acbb5,Save data screen,canvas.Screen,2_13_0_1,NA,NA,timeout,500,245086,245104,245120,245604,245604,2023-04-28T07:01:06Z,245620,Wohlstand,mafanikio,d,chimbuko,kumbuko,mapwaji,NA,NA,0,"c(""distractor1"", ""distractor2"", ""distractor3"")",NA,NA,NA,NA,NA,NA,NA,NA,NA,NA,NA,NA,NA,NA,NA,NA,NA,NA,NA
acbb5,shallow,flow.Sequence,2_13_0,NA,NA,completion,5217,240372,240370,240387,245604,245604,2023-04-28T07:01:06Z,245620,Wohlstand,mafanikio,d,chimbuko,kumbuko,mapwaji,NA,NA,NA,"c(""distractor1"", ""distractor2"", ""distractor3"")",NA,NA,NA,NA,NA,NA,NA,NA,NA,NA,NA,NA,NA,NA,NA,NA,NA,NA,NA
acbb5,task,flow.Sequence,2_13,NA,NA,completion,5217,240372,240370,240387,245604,245604,2023-04-28T07:01:06Z,245620,Wohlstand,mafanikio,d,chimbuko,kumbuko,mapwaji,NA,NA,NA,"c(""distractor1"", ""distractor2"", ""distractor3"")",NA,NA,NA,NA,NA,NA,NA,NA,NA,NA,NA,NA,NA,NA,NA,NA,NA,NA,NA
acbb5,Shallow Question,html.Page,2_14_0_0,NA,NA,form submission,4167,245604,245604,245620,249787,249788,2023-04-28T07:01:10Z,249820,Spionage,upelelezi,d,maslahi,utokazo,magangao,upelelezi,NA,NA,"c(""distractor1"", ""distractor2"", ""distractor3"")",NA,NA,NA,NA,NA,NA,NA,NA,NA,NA,NA,NA,NA,NA,NA,NA,NA,NA,NA
acbb5,Save data screen,canvas.Screen,2_14_0_1,NA,NA,timeout,500,249789,249804,249820,250303,250305,2023-04-28T07:01:10Z,250320,Spionage,upelelezi,d,maslahi,utokazo,magangao,NA,NA,1,"c(""distractor1"", ""distractor2"", ""distractor3"")",NA,NA,NA,NA,NA,NA,NA,NA,NA,NA,NA,NA,NA,NA,NA,NA,NA,NA,NA
acbb5,shallow,flow.Sequence,2_14_0,NA,NA,completion,4683,245604,245604,245620,250303,250305,2023-04-28T07:01:10Z,250320,Spionage,upelelezi,d,maslahi,utokazo,magangao,NA,NA,NA,"c(""distractor1"", ""distractor2"", ""distractor3"")",NA,NA,NA,NA,NA,NA,NA,NA,NA,NA,NA,NA,NA,NA,NA,NA,NA,NA,NA
acbb5,task,flow.Sequence,2_14,NA,NA,completion,4683,245604,245604,245620,250303,250306,2023-04-28T07:01:10Z,250320,Spionage,upelelezi,d,maslahi,utokazo,magangao,NA,NA,NA,"c(""distractor1"", ""distractor2"", ""distractor3"")",NA,NA,NA,NA,NA,NA,NA,NA,NA,NA,NA,NA,NA,NA,NA,NA,NA,NA,NA
acbb5,Shallow Question,html.Page,2_15_0_0,NA,NA,form submission,14776,250306,250303,250320,265096,265097,2023-04-28T07:01:25Z,265120,Ergänzung,kijalizo,d,ulaghai,mustarehe,matangazo,matangazo,NA,NA,"c(""distractor1"", ""distractor2"", ""distractor3"")",NA,NA,NA,NA,NA,NA,NA,NA,NA,NA,NA,NA,NA,NA,NA,NA,NA,NA,NA
acbb5,Save data screen,canvas.Screen,2_15_0_1,NA,NA,timeout,500,265099,265105,265120,265603,265604,2023-04-28T07:01:26Z,265620,Ergänzung,kijalizo,d,ulaghai,mustarehe,matangazo,NA,NA,0,"c(""distractor1"", ""distractor2"", ""distractor3"")",NA,NA,NA,NA,NA,NA,NA,NA,NA,NA,NA,NA,NA,NA,NA,NA,NA,NA,NA
acbb5,shallow,flow.Sequence,2_15_0,NA,NA,completion,15283,250306,250303,250320,265603,265604,2023-04-28T07:01:26Z,265620,Ergänzung,kijalizo,d,ulaghai,mustarehe,matangazo,NA,NA,NA,"c(""distractor1"", ""distractor2"", ""distractor3"")",NA,NA,NA,NA,NA,NA,NA,NA,NA,NA,NA,NA,NA,NA,NA,NA,NA,NA,NA
acbb5,task,flow.Sequence,2_15,NA,NA,completion,15283,250306,250303,250320,265603,265604,2023-04-28T07:01:26Z,265620,Ergänzung,kijalizo,d,ulaghai,mustarehe,matangazo,NA,NA,NA,"c(""distractor1"", ""distractor2"", ""distractor3"")",NA,NA,NA,NA,NA,NA,NA,NA,NA,NA,NA,NA,NA,NA,NA,NA,NA,NA,NA
acbb5,retrieval block 2 (multiple choice),flow.Loop,2,NA,NA,completion,124195,141391,141388,141408,265603,265604,2023-04-28T07:01:26Z,265620,NA,NA,NA,NA,NA,NA,NA,NA,NA,"c(""distractor1"", ""distractor2"", ""distractor3"")",NA,NA,NA,NA,NA,NA,NA,NA,NA,NA,NA,NA,NA,NA,NA,NA,NA,NA,NA
acbb5,End,canvas.Screen,3,NA,keypress(Space),response,1701.0000000001,265605,265603,265620,267304,267310,2023-04-28T07:01:27Z,267337,NA,NA,NA,NA,NA,NA,NA,NA,NA,NULL,NA,NA,NA,NA,NA,NA,NA,NA,NA,NA,NA,NA,NA,NA,NA,NA,NA,NA,NA
acbb5,root,flow.Sequence,NA,NA,NA,completion,266316,979,981,988,267304,267311,2023-04-28T07:01:27Z,267337,NA,NA,NA,NA,NA,NA,NA,NA,NA,NULL,NA,NA,NA,NA,NA,NA,NA,NA,NA,NA,NA,NA,NA,NA,NA,NA,NA,NA,NA
