observation,sender,sender_type,sender_id,response,response_action,ended_on,duration,time_run,time_render,time_show,time_end,time_commit,timestamp,time_switch,german,swahili,enc,distractor1,distractor2,distractor3,response_2,x,correct,distractors,url_vp,url_sess,meta_labjs_version,meta_location,meta_user_agent,meta_platform,meta_language,meta_locale,meta_time_zone,meta_timezone_offset,meta_screen_width,meta_screen_height,meta_scroll_width,meta_scroll_height,meta_window_inner_width,meta_window_inner_height,meta_device_pixel_ratio,meta_labjs_build_flavor,meta_labjs_build_commit
a7a77,Introduction delayed retrieval,canvas.Screen,0,weiter,keypress(Space),response,1035.5559998569,744.69999980927,738.638,755.344,1790.8999998569,1797.1999998093,2023-07-05T17:36:09Z,1794.192,NA,NA,NA,NA,NA,NA,NA,NA,NA,NULL,220,4,20.2.4,https://neurocog.fernuni.ch/studies/vweber/sfink/delayed/index.html?vp=220&sess=4,"Mozilla/5.0 (Windows NT 10.0; Win64; x64) AppleWebKit/537.36 (KHTML, like Gecko) Chrome/114.0.0.0 Safari/537.36 Edg/114.0.1823.67",Win32,de,de-CH,Europe/Zurich,-120,1494,934,1439,767,1439,815,1.5,production,f5b4a49f956347addd546a832a3327688c2c0fef
a7a77,Deep Question,html.Page,1_0_0_0,NA,NA,form submission,20445.707999857,1797.5999999046,1787.575,1794.192,22239.899999857,22240.599999905,2023-07-05T17:36:30Z,22252.617,Wohlstand,mafanikio,s,chimbuko,kumbuko,mapwaji,fadbini,NA,NA,NULL,NA,NA,NA,NA,NA,NA,NA,NA,NA,NA,NA,NA,NA,NA,NA,NA,NA,NA,NA
a7a77,Save data screen,canvas.Screen,1_0_0_1,NA,NA,timeout,504.375,22242,22233.124,22252.617,22740.449,22742.899999857,2023-07-05T17:36:30Z,22756.992,Wohlstand,mafanikio,s,chimbuko,kumbuko,mapwaji,NA,NA,0,NULL,NA,NA,NA,NA,NA,NA,NA,NA,NA,NA,NA,NA,NA,NA,NA,NA,NA,NA,NA
a7a77,deep,flow.Sequence,1_0_0,NA,NA,completion,20946.257,1797.5999999046,1787.575,1794.192,22740.449,22743.799999952,2023-07-05T17:36:30Z,22756.992,Wohlstand,mafanikio,s,chimbuko,kumbuko,mapwaji,NA,NA,NA,NULL,NA,NA,NA,NA,NA,NA,NA,NA,NA,NA,NA,NA,NA,NA,NA,NA,NA,NA,NA
a7a77,task,flow.Sequence,1_0,NA,NA,completion,20946.257,1797.5999999046,1787.575,1794.192,22740.449,22744,2023-07-05T17:36:30Z,22756.992,Wohlstand,mafanikio,s,chimbuko,kumbuko,mapwaji,NA,NA,NA,NULL,NA,NA,NA,NA,NA,NA,NA,NA,NA,NA,NA,NA,NA,NA,NA,NA,NA,NA,NA
a7a77,Deep Question,html.Page,1_1_0_0,NA,NA,form submission,15584.508,22744.199999809,22740.449,22756.992,38341.5,38342,2023-07-05T17:36:46Z,38356.196,Ergänzung,kijalizo,s,ulaghai,mustarehe,matangazo,supli,NA,NA,NULL,NA,NA,NA,NA,NA,NA,NA,NA,NA,NA,NA,NA,NA,NA,NA,NA,NA,NA,NA
a7a77,Save data screen,canvas.Screen,1_1_0_1,NA,NA,timeout,502.61199999999,38344.099999904996,38329.104,38356.196,38842.756,38843.699999809,2023-07-05T17:36:46Z,38858.808,Ergänzung,kijalizo,s,ulaghai,mustarehe,matangazo,NA,NA,0,NULL,NA,NA,NA,NA,NA,NA,NA,NA,NA,NA,NA,NA,NA,NA,NA,NA,NA,NA,NA
a7a77,deep,flow.Sequence,1_1_0,NA,NA,completion,16085.764,22744.099999905,22740.449,22756.992,38842.756,38843.899999857,2023-07-05T17:36:46Z,38858.808,Ergänzung,kijalizo,s,ulaghai,mustarehe,matangazo,NA,NA,NA,NULL,NA,NA,NA,NA,NA,NA,NA,NA,NA,NA,NA,NA,NA,NA,NA,NA,NA,NA,NA
a7a77,task,flow.Sequence,1_1,NA,NA,completion,16085.764,22744,22740.449,22756.992,38842.756,38844.099999904996,2023-07-05T17:36:46Z,38858.808,Ergänzung,kijalizo,s,ulaghai,mustarehe,matangazo,NA,NA,NA,NULL,NA,NA,NA,NA,NA,NA,NA,NA,NA,NA,NA,NA,NA,NA,NA,NA,NA,NA,NA
a7a77,Deep Question,html.Page,1_2_0_0,NA,NA,form submission,26976.391999809,38844.299999952,38842.756,38858.808,65835.199999809,65835.699999809,2023-07-05T17:37:13Z,65850.728,Toleranz,kuvumiliana,s,maombolezo,ujasusi,mchekeshaji,muobji,NA,NA,NULL,NA,NA,NA,NA,NA,NA,NA,NA,NA,NA,NA,NA,NA,NA,NA,NA,NA,NA,NA
a7a77,Save data screen,canvas.Screen,1_2_0_1,NA,NA,timeout,498.963,65838.5,65822.208,65850.728,66333.256,66334.299999952,2023-07-05T17:37:14Z,66349.691,Toleranz,kuvumiliana,s,maombolezo,ujasusi,mchekeshaji,NA,NA,0,NULL,NA,NA,NA,NA,NA,NA,NA,NA,NA,NA,NA,NA,NA,NA,NA,NA,NA,NA,NA
a7a77,deep,flow.Sequence,1_2_0,NA,NA,completion,27474.448,38844.299999952,38842.756,38858.808,66333.256,66334.599999905,2023-07-05T17:37:14Z,66349.691,Toleranz,kuvumiliana,s,maombolezo,ujasusi,mchekeshaji,NA,NA,NA,NULL,NA,NA,NA,NA,NA,NA,NA,NA,NA,NA,NA,NA,NA,NA,NA,NA,NA,NA,NA
a7a77,task,flow.Sequence,1_2,NA,NA,completion,27474.448,38844.199999809,38842.756,38858.808,66333.256,66334.699999809,2023-07-05T17:37:14Z,66349.691,Toleranz,kuvumiliana,s,maombolezo,ujasusi,mchekeshaji,NA,NA,NA,NULL,NA,NA,NA,NA,NA,NA,NA,NA,NA,NA,NA,NA,NA,NA,NA,NA,NA,NA,NA
a7a77,Deep Question,html.Page,1_3_0_0,NA,NA,form submission,9315.0089998093,66334.899999857,66333.256,66349.691,75664.699999809,75665.199999809,2023-07-05T17:37:23Z,75680.17,Spionage,upelelezi,s,maslahi,utokazo,magangao,kubadikian,NA,NA,NULL,NA,NA,NA,NA,NA,NA,NA,NA,NA,NA,NA,NA,NA,NA,NA,NA,NA,NA,NA
a7a77,Save data screen,canvas.Screen,1_3_0_1,NA,NA,timeout,507.79700000001,75668.5,75663.256,75680.17,76171.288,76172.299999952,2023-07-05T17:37:24Z,76187.967,Spionage,upelelezi,s,maslahi,utokazo,magangao,NA,NA,0,NULL,NA,NA,NA,NA,NA,NA,NA,NA,NA,NA,NA,NA,NA,NA,NA,NA,NA,NA,NA
a7a77,deep,flow.Sequence,1_3_0,NA,NA,completion,9821.597,66334.799999952,66333.256,66349.691,76171.288,76172.5,2023-07-05T17:37:24Z,76187.967,Spionage,upelelezi,s,maslahi,utokazo,magangao,NA,NA,NA,NULL,NA,NA,NA,NA,NA,NA,NA,NA,NA,NA,NA,NA,NA,NA,NA,NA,NA,NA,NA
a7a77,task,flow.Sequence,1_3,NA,NA,completion,9821.597,66334.799999952,66333.256,66349.691,76171.288,76172.599999905,2023-07-05T17:37:24Z,76187.967,Spionage,upelelezi,s,maslahi,utokazo,magangao,NA,NA,NA,NULL,NA,NA,NA,NA,NA,NA,NA,NA,NA,NA,NA,NA,NA,NA,NA,NA,NA,NA,NA
a7a77,Deep Question,html.Page,1_4_0_0,NA,NA,form submission,7588.1329999046,76172.699999809,76171.288,76187.967,83776.099999905,83776.599999905,2023-07-05T17:37:31Z,83791.359,Schock,mshtuko,s,biashara,kukataza,vichekesho,mustan,NA,NA,NULL,NA,NA,NA,NA,NA,NA,NA,NA,NA,NA,NA,NA,NA,NA,NA,NA,NA,NA,NA
a7a77,Save data screen,canvas.Screen,1_4_0_1,NA,NA,timeout,503.86,83779.5,83762.539,83791.359,84278.888,84281.099999905,2023-07-05T17:37:32Z,84295.219,Schock,mshtuko,s,biashara,kukataza,vichekesho,NA,NA,0,NULL,NA,NA,NA,NA,NA,NA,NA,NA,NA,NA,NA,NA,NA,NA,NA,NA,NA,NA,NA
a7a77,deep,flow.Sequence,1_4_0,NA,NA,completion,8090.921,76172.699999809,76171.288,76187.967,84278.888,84281.399999857,2023-07-05T17:37:32Z,84295.219,Schock,mshtuko,s,biashara,kukataza,vichekesho,NA,NA,NA,NULL,NA,NA,NA,NA,NA,NA,NA,NA,NA,NA,NA,NA,NA,NA,NA,NA,NA,NA,NA
a7a77,task,flow.Sequence,1_4,NA,NA,completion,8090.921,76172.699999809,76171.288,76187.967,84278.888,84281.5,2023-07-05T17:37:32Z,84295.219,Schock,mshtuko,s,biashara,kukataza,vichekesho,NA,NA,NA,NULL,NA,NA,NA,NA,NA,NA,NA,NA,NA,NA,NA,NA,NA,NA,NA,NA,NA,NA,NA
a7a77,Deep Question,html.Page,1_5_0_0,NA,NA,form submission,4983.680999857,84281.699999809,84278.888,84295.219,89278.899999857,89279.299999952,2023-07-05T17:37:37Z,89294.335,Tester,wanaojaribu,d,sherti,sihiri,mlipuko,ungo,NA,NA,NULL,NA,NA,NA,NA,NA,NA,NA,NA,NA,NA,NA,NA,NA,NA,NA,NA,NA,NA,NA
a7a77,Save data screen,canvas.Screen,1_5_0_1,NA,NA,timeout,496.17599999999,89282,89272.146,89294.335,89773.833,89774.799999952,2023-07-05T17:37:37Z,89790.511,Tester,wanaojaribu,d,sherti,sihiri,mlipuko,NA,NA,0,NULL,NA,NA,NA,NA,NA,NA,NA,NA,NA,NA,NA,NA,NA,NA,NA,NA,NA,NA,NA
a7a77,deep,flow.Sequence,1_5_0,NA,NA,completion,5478.614,84281.699999809,84278.888,84295.219,89773.833,89775,2023-07-05T17:37:37Z,89790.511,Tester,wanaojaribu,d,sherti,sihiri,mlipuko,NA,NA,NA,NULL,NA,NA,NA,NA,NA,NA,NA,NA,NA,NA,NA,NA,NA,NA,NA,NA,NA,NA,NA
a7a77,task,flow.Sequence,1_5,NA,NA,completion,5478.614,84281.599999905,84278.888,84295.219,89773.833,89775.099999905,2023-07-05T17:37:37Z,89790.511,Tester,wanaojaribu,d,sherti,sihiri,mlipuko,NA,NA,NA,NULL,NA,NA,NA,NA,NA,NA,NA,NA,NA,NA,NA,NA,NA,NA,NA,NA,NA,NA,NA
a7a77,Deep Question,html.Page,1_6_0_0,NA,NA,form submission,4778.489,89775.199999809,89773.833,89790.511,94569,94569.399999857,2023-07-05T17:37:42Z,94599.718,Theorie,nadharia,s,ushungi,mkutano,uwakilishi,nadiani,NA,NA,NULL,NA,NA,NA,NA,NA,NA,NA,NA,NA,NA,NA,NA,NA,NA,NA,NA,NA,NA,NA
a7a77,Save data screen,canvas.Screen,1_6_0_1,NA,NA,timeout,493.02600000001,94570.899999857,94566.916,94599.718,95076.051,95077,2023-07-05T17:37:43Z,95092.744,Theorie,nadharia,s,ushungi,mkutano,uwakilishi,NA,NA,0,NULL,NA,NA,NA,NA,NA,NA,NA,NA,NA,NA,NA,NA,NA,NA,NA,NA,NA,NA,NA
a7a77,deep,flow.Sequence,1_6_0,NA,NA,completion,5285.54,89775.199999809,89773.833,89790.511,95076.051,95077.199999809,2023-07-05T17:37:43Z,95092.744,Theorie,nadharia,s,ushungi,mkutano,uwakilishi,NA,NA,NA,NULL,NA,NA,NA,NA,NA,NA,NA,NA,NA,NA,NA,NA,NA,NA,NA,NA,NA,NA,NA
a7a77,task,flow.Sequence,1_6,NA,NA,completion,5285.54,89775.099999905,89773.833,89790.511,95076.051,95077.399999857,2023-07-05T17:37:43Z,95092.744,Theorie,nadharia,s,ushungi,mkutano,uwakilishi,NA,NA,NA,NULL,NA,NA,NA,NA,NA,NA,NA,NA,NA,NA,NA,NA,NA,NA,NA,NA,NA,NA,NA
a7a77,Deep Question,html.Page,1_7_0_0,NA,NA,form submission,5990.256,95077.5,95076.051,95092.744,101083,101083.29999995,2023-07-05T17:37:49Z,101097.55,Vergnügen,kichekesho,d,dubwana,mpanuko,mtesaji,diwani,NA,NA,NULL,NA,NA,NA,NA,NA,NA,NA,NA,NA,NA,NA,NA,NA,NA,NA,NA,NA,NA,NA
a7a77,Save data screen,canvas.Screen,1_7_0_1,NA,NA,timeout,499.091,101085.19999980999,101077.852,101097.55,101579.948,101580.5,2023-07-05T17:37:49Z,101596.641,Vergnügen,kichekesho,d,dubwana,mpanuko,mtesaji,NA,NA,0,NULL,NA,NA,NA,NA,NA,NA,NA,NA,NA,NA,NA,NA,NA,NA,NA,NA,NA,NA,NA
a7a77,deep,flow.Sequence,1_7_0,NA,NA,completion,6487.204,95077.5,95076.051,95092.744,101579.948,101580.69999981,2023-07-05T17:37:49Z,101596.641,Vergnügen,kichekesho,d,dubwana,mpanuko,mtesaji,NA,NA,NA,NULL,NA,NA,NA,NA,NA,NA,NA,NA,NA,NA,NA,NA,NA,NA,NA,NA,NA,NA,NA
a7a77,task,flow.Sequence,1_7,NA,NA,completion,6487.204,95077.5,95076.051,95092.744,101579.948,101580.79999995,2023-07-05T17:37:49Z,101596.641,Vergnügen,kichekesho,d,dubwana,mpanuko,mtesaji,NA,NA,NA,NULL,NA,NA,NA,NA,NA,NA,NA,NA,NA,NA,NA,NA,NA,NA,NA,NA,NA,NA,NA
a7a77,Deep Question,html.Page,1_8_0_0,NA,NA,form submission,5926.859,101580.89999986,101579.948,101596.641,107523.5,107524,2023-07-05T17:37:55Z,107538.043,Schlange,foleni,s,uvumilivu,uteuzi,muuzaji,amungi,NA,NA,NULL,NA,NA,NA,NA,NA,NA,NA,NA,NA,NA,NA,NA,NA,NA,NA,NA,NA,NA,NA
a7a77,Save data screen,canvas.Screen,1_8_0_1,NA,NA,timeout,496.057,107527,107506.249,107538.043,108017.46,108018.19999981,2023-07-05T17:37:56Z,108034.1,Schlange,foleni,s,uvumilivu,uteuzi,muuzaji,NA,NA,0,NULL,NA,NA,NA,NA,NA,NA,NA,NA,NA,NA,NA,NA,NA,NA,NA,NA,NA,NA,NA
a7a77,deep,flow.Sequence,1_8_0,NA,NA,completion,6420.819,101580.89999986,101579.948,101596.641,108017.46,108018.5,2023-07-05T17:37:56Z,108034.1,Schlange,foleni,s,uvumilivu,uteuzi,muuzaji,NA,NA,NA,NULL,NA,NA,NA,NA,NA,NA,NA,NA,NA,NA,NA,NA,NA,NA,NA,NA,NA,NA,NA
a7a77,task,flow.Sequence,1_8,NA,NA,completion,6420.819,101580.79999995,101579.948,101596.641,108017.46,108018.5999999,2023-07-05T17:37:56Z,108034.1,Schlange,foleni,s,uvumilivu,uteuzi,muuzaji,NA,NA,NA,NULL,NA,NA,NA,NA,NA,NA,NA,NA,NA,NA,NA,NA,NA,NA,NA,NA,NA,NA,NA
a7a77,Deep Question,html.Page,1_9_0_0,NA,NA,form submission,5528.6999999523,108018.79999995,108017.46,108034.1,113562.79999995,113563.19999981,2023-07-05T17:38:01Z,113578.083,Notfall,dharura,d,rairai,malalamiko,ahueni,wakiki,NA,NA,NULL,NA,NA,NA,NA,NA,NA,NA,NA,NA,NA,NA,NA,NA,NA,NA,NA,NA,NA,NA
a7a77,Save data screen,canvas.Screen,1_9_0_1,NA,NA,timeout,508.20699999999,113565.5999999,113557.336,113578.083,114069.652,114082.79999995,2023-07-05T17:38:02Z,114086.29,Notfall,dharura,d,rairai,malalamiko,ahueni,NA,NA,0,NULL,NA,NA,NA,NA,NA,NA,NA,NA,NA,NA,NA,NA,NA,NA,NA,NA,NA,NA,NA
a7a77,deep,flow.Sequence,1_9_0,NA,NA,completion,6035.552,108018.69999980999,108017.46,108034.1,114069.652,114083,2023-07-05T17:38:02Z,114086.29,Notfall,dharura,d,rairai,malalamiko,ahueni,NA,NA,NA,NULL,NA,NA,NA,NA,NA,NA,NA,NA,NA,NA,NA,NA,NA,NA,NA,NA,NA,NA,NA
a7a77,task,flow.Sequence,1_9,NA,NA,completion,6035.552,108018.69999980999,108017.46,108034.1,114069.652,114083.0999999,2023-07-05T17:38:02Z,114086.29,Notfall,dharura,d,rairai,malalamiko,ahueni,NA,NA,NA,NULL,NA,NA,NA,NA,NA,NA,NA,NA,NA,NA,NA,NA,NA,NA,NA,NA,NA,NA,NA
a7a77,Deep Question,html.Page,1_10_0_0,NA,NA,form submission,5886.4099998093,114083.19999981,114069.652,114086.29,119972.69999980999,119973.0999999,2023-07-05T17:38:08Z,119987.136,Inhalt,yaliyomo,d,kishawishi,hifadhi,kutembea,urokiki,NA,NA,NULL,NA,NA,NA,NA,NA,NA,NA,NA,NA,NA,NA,NA,NA,NA,NA,NA,NA,NA,NA
a7a77,Save data screen,canvas.Screen,1_10_0_1,NA,NA,timeout,491.80500000001,119975.79999995,119963.462,119987.136,120462.256,120463,2023-07-05T17:38:08Z,120478.941,Inhalt,yaliyomo,d,kishawishi,hifadhi,kutembea,NA,NA,0,NULL,NA,NA,NA,NA,NA,NA,NA,NA,NA,NA,NA,NA,NA,NA,NA,NA,NA,NA,NA
a7a77,deep,flow.Sequence,1_10_0,NA,NA,completion,6375.966,114083.19999981,114069.652,114086.29,120462.256,120463.19999980999,2023-07-05T17:38:08Z,120478.941,Inhalt,yaliyomo,d,kishawishi,hifadhi,kutembea,NA,NA,NA,NULL,NA,NA,NA,NA,NA,NA,NA,NA,NA,NA,NA,NA,NA,NA,NA,NA,NA,NA,NA
a7a77,task,flow.Sequence,1_10,NA,NA,completion,6375.966,114083.0999999,114069.652,114086.29,120462.256,120463.29999995,2023-07-05T17:38:08Z,120478.941,Inhalt,yaliyomo,d,kishawishi,hifadhi,kutembea,NA,NA,NA,NULL,NA,NA,NA,NA,NA,NA,NA,NA,NA,NA,NA,NA,NA,NA,NA,NA,NA,NA,NA
a7a77,Deep Question,html.Page,1_11_0_0,NA,NA,form submission,15953.458999857,120463.39999986,120462.256,120478.941,136432.39999986,136432.79999995,2023-07-05T17:38:24Z,136454.137,Vermutung,udhanifu,d,haramia,tikisho,itifaki,andilifu,NA,NA,NULL,NA,NA,NA,NA,NA,NA,NA,NA,NA,NA,NA,NA,NA,NA,NA,NA,NA,NA,NA
a7a77,Save data screen,canvas.Screen,1_11_0_1,NA,NA,timeout,496.342,136435.79999995,136437.65,136454.137,136933.801,136934.69999981,2023-07-05T17:38:25Z,136950.479,Vermutung,udhanifu,d,haramia,tikisho,itifaki,NA,NA,0,NULL,NA,NA,NA,NA,NA,NA,NA,NA,NA,NA,NA,NA,NA,NA,NA,NA,NA,NA,NA
a7a77,deep,flow.Sequence,1_11_0,NA,NA,completion,16454.86,120463.39999986,120462.256,120478.941,136933.801,136935,2023-07-05T17:38:25Z,136950.479,Vermutung,udhanifu,d,haramia,tikisho,itifaki,NA,NA,NA,NULL,NA,NA,NA,NA,NA,NA,NA,NA,NA,NA,NA,NA,NA,NA,NA,NA,NA,NA,NA
a7a77,task,flow.Sequence,1_11,NA,NA,completion,16454.86,120463.39999986,120462.256,120478.941,136933.801,136935.0999999,2023-07-05T17:38:25Z,136950.479,Vermutung,udhanifu,d,haramia,tikisho,itifaki,NA,NA,NA,NULL,NA,NA,NA,NA,NA,NA,NA,NA,NA,NA,NA,NA,NA,NA,NA,NA,NA,NA,NA
a7a77,Deep Question,html.Page,1_12_0_0,NA,NA,form submission,6167.8209999523,136935.19999981,136933.801,136950.479,143118.29999995,143118.79999995,2023-07-05T17:38:31Z,143133.252,Verpackung,ufungaji,d,uhusiano,upimaji,uchunguzi,danilibu,NA,NA,NULL,NA,NA,NA,NA,NA,NA,NA,NA,NA,NA,NA,NA,NA,NA,NA,NA,NA,NA,NA
a7a77,Save data screen,canvas.Screen,1_12_0_1,NA,NA,timeout,494.22899999999,143121.5999999,143111.676,143133.252,143610.807,143611.69999981,2023-07-05T17:38:31Z,143627.481,Verpackung,ufungaji,d,uhusiano,upimaji,uchunguzi,NA,NA,0,NULL,NA,NA,NA,NA,NA,NA,NA,NA,NA,NA,NA,NA,NA,NA,NA,NA,NA,NA,NA
a7a77,deep,flow.Sequence,1_12_0,NA,NA,completion,6660.328,136935.0999999,136933.801,136950.479,143610.807,143612,2023-07-05T17:38:31Z,143627.481,Verpackung,ufungaji,d,uhusiano,upimaji,uchunguzi,NA,NA,NA,NULL,NA,NA,NA,NA,NA,NA,NA,NA,NA,NA,NA,NA,NA,NA,NA,NA,NA,NA,NA
a7a77,task,flow.Sequence,1_12,NA,NA,completion,6660.328,136935.0999999,136933.801,136950.479,143610.807,143612,2023-07-05T17:38:31Z,143627.481,Verpackung,ufungaji,d,uhusiano,upimaji,uchunguzi,NA,NA,NA,NULL,NA,NA,NA,NA,NA,NA,NA,NA,NA,NA,NA,NA,NA,NA,NA,NA,NA,NA,NA
a7a77,Deep Question,html.Page,1_13_0_0,NA,NA,form submission,6865.2189998093,143612.0999999,143610.807,143627.481,150492.69999981,150493.0999999,2023-07-05T17:38:38Z,150507.889,Fenster,dirisha,s,walakini,tasawari,maarifa,warakiki,NA,NA,NULL,NA,NA,NA,NA,NA,NA,NA,NA,NA,NA,NA,NA,NA,NA,NA,NA,NA,NA,NA
a7a77,Save data screen,canvas.Screen,1_13_0_1,NA,NA,timeout,506.981,150495.5999999,150482.212,150507.889,150998.182,150999.0999999,2023-07-05T17:38:39Z,151014.87,Fenster,dirisha,s,walakini,tasawari,maarifa,NA,NA,0,NULL,NA,NA,NA,NA,NA,NA,NA,NA,NA,NA,NA,NA,NA,NA,NA,NA,NA,NA,NA
a7a77,deep,flow.Sequence,1_13_0,NA,NA,completion,7370.701,143612.0999999,143610.807,143627.481,150998.182,150999.29999995,2023-07-05T17:38:39Z,151014.87,Fenster,dirisha,s,walakini,tasawari,maarifa,NA,NA,NA,NULL,NA,NA,NA,NA,NA,NA,NA,NA,NA,NA,NA,NA,NA,NA,NA,NA,NA,NA,NA
a7a77,task,flow.Sequence,1_13,NA,NA,completion,7370.701,143612.0999999,143610.807,143627.481,150998.182,150999.39999986,2023-07-05T17:38:39Z,151014.87,Fenster,dirisha,s,walakini,tasawari,maarifa,NA,NA,NA,NULL,NA,NA,NA,NA,NA,NA,NA,NA,NA,NA,NA,NA,NA,NA,NA,NA,NA,NA,NA
a7a77,Deep Question,html.Page,1_14_0_0,NA,NA,form submission,5502.9299999523,150999.5,150998.182,151014.87,156517.79999995,156518.19999981,2023-07-05T17:38:44Z,156535.218,Hoffnung,matarajio,d,kutaalamika,uratibu,mvumbuzi,undili,NA,NA,NULL,NA,NA,NA,NA,NA,NA,NA,NA,NA,NA,NA,NA,NA,NA,NA,NA,NA,NA,NA
a7a77,Save data screen,canvas.Screen,1_14_0_1,NA,NA,timeout,494.85500000001,156520.5999999,156512.311,156535.218,157013.727,157014.5999999,2023-07-05T17:38:45Z,157030.073,Hoffnung,matarajio,d,kutaalamika,uratibu,mvumbuzi,NA,NA,0,NULL,NA,NA,NA,NA,NA,NA,NA,NA,NA,NA,NA,NA,NA,NA,NA,NA,NA,NA,NA
a7a77,deep,flow.Sequence,1_14_0,NA,NA,completion,5998.857,150999.5,150998.182,151014.87,157013.727,157014.79999995,2023-07-05T17:38:45Z,157030.073,Hoffnung,matarajio,d,kutaalamika,uratibu,mvumbuzi,NA,NA,NA,NULL,NA,NA,NA,NA,NA,NA,NA,NA,NA,NA,NA,NA,NA,NA,NA,NA,NA,NA,NA
a7a77,task,flow.Sequence,1_14,NA,NA,completion,5998.857,150999.39999986,150998.182,151014.87,157013.727,157014.89999986,2023-07-05T17:38:45Z,157030.073,Hoffnung,matarajio,d,kutaalamika,uratibu,mvumbuzi,NA,NA,NA,NULL,NA,NA,NA,NA,NA,NA,NA,NA,NA,NA,NA,NA,NA,NA,NA,NA,NA,NA,NA
a7a77,Deep Question,html.Page,1_15_0_0,NA,NA,form submission,5413.3269998569,157015.0999999,157013.727,157030.073,162443.39999986,162443.89999986,2023-07-05T17:38:50Z,162457.895,Schüler,mwanafunzi,d,mwekezaji,matumizi,uaminifu,wara,NA,NA,NULL,NA,NA,NA,NA,NA,NA,NA,NA,NA,NA,NA,NA,NA,NA,NA,NA,NA,NA,NA
a7a77,Save data screen,canvas.Screen,1_15_0_1,NA,NA,timeout,496.84600000002,162446.5999999,162428.688,162457.895,162938.41,162939.39999986,2023-07-05T17:38:51Z,162954.741,Schüler,mwanafunzi,d,mwekezaji,matumizi,uaminifu,NA,NA,0,NULL,NA,NA,NA,NA,NA,NA,NA,NA,NA,NA,NA,NA,NA,NA,NA,NA,NA,NA,NA
a7a77,deep,flow.Sequence,1_15_0,NA,NA,completion,5908.337,157015.0999999,157013.727,157030.073,162938.41,162939.5999999,2023-07-05T17:38:51Z,162954.741,Schüler,mwanafunzi,d,mwekezaji,matumizi,uaminifu,NA,NA,NA,NULL,NA,NA,NA,NA,NA,NA,NA,NA,NA,NA,NA,NA,NA,NA,NA,NA,NA,NA,NA
a7a77,task,flow.Sequence,1_15,NA,NA,completion,5908.337,157015,157013.727,157030.073,162938.41,162939.5999999,2023-07-05T17:38:51Z,162954.741,Schüler,mwanafunzi,d,mwekezaji,matumizi,uaminifu,NA,NA,NA,NULL,NA,NA,NA,NA,NA,NA,NA,NA,NA,NA,NA,NA,NA,NA,NA,NA,NA,NA,NA
a7a77,retrieval block 1 (cued recall),flow.Loop,1,NA,NA,completion,161144.218,1797.5999999046,1787.575,1794.192,162938.41,162939.79999995,2023-07-05T17:38:51Z,162954.741,NA,NA,NA,NA,NA,NA,NA,NA,NA,NULL,NA,NA,NA,NA,NA,NA,NA,NA,NA,NA,NA,NA,NA,NA,NA,NA,NA,NA,NA
a7a77,Shallow Question,html.Page,2_0_0_0,NA,NA,form submission,4766.5589999523,162940,162938.41,162954.741,167721.29999995,167721.69999981,2023-07-05T17:38:55Z,167737.226,Theorie,nadharia,s,ushungi,mkutano,uwakilishi,nadharia,NA,NA,"c(""distractor1"", ""distractor2"", ""distractor3"")",NA,NA,NA,NA,NA,NA,NA,NA,NA,NA,NA,NA,NA,NA,NA,NA,NA,NA,NA
a7a77,Save data screen,canvas.Screen,2_0_0_1,NA,NA,timeout,498.12299999999,167724.39999986,167704.956,167737.226,168218.042,168219.89999986,2023-07-05T17:38:56Z,168235.349,Theorie,nadharia,s,ushungi,mkutano,uwakilishi,NA,NA,1,"c(""distractor1"", ""distractor2"", ""distractor3"")",NA,NA,NA,NA,NA,NA,NA,NA,NA,NA,NA,NA,NA,NA,NA,NA,NA,NA,NA
a7a77,shallow,flow.Sequence,2_0_0,NA,NA,completion,5263.301,162940,162938.41,162954.741,168218.042,168220.39999986,2023-07-05T17:38:56Z,168235.349,Theorie,nadharia,s,ushungi,mkutano,uwakilishi,NA,NA,NA,"c(""distractor1"", ""distractor2"", ""distractor3"")",NA,NA,NA,NA,NA,NA,NA,NA,NA,NA,NA,NA,NA,NA,NA,NA,NA,NA,NA
a7a77,task,flow.Sequence,2_0,NA,NA,completion,5263.301,162939.89999986,162938.41,162954.741,168218.042,168220.69999981,2023-07-05T17:38:56Z,168235.349,Theorie,nadharia,s,ushungi,mkutano,uwakilishi,NA,NA,NA,"c(""distractor1"", ""distractor2"", ""distractor3"")",NA,NA,NA,NA,NA,NA,NA,NA,NA,NA,NA,NA,NA,NA,NA,NA,NA,NA,NA
a7a77,Shallow Question,html.Page,2_1_0_0,NA,NA,form submission,9894.8509998093,168221,168218.042,168235.349,178130.19999981,178130.5,2023-07-05T17:39:06Z,178144.231,Ergänzung,kijalizo,s,ulaghai,mustarehe,matangazo,kijalizo,NA,NA,"c(""distractor1"", ""distractor2"", ""distractor3"")",NA,NA,NA,NA,NA,NA,NA,NA,NA,NA,NA,NA,NA,NA,NA,NA,NA,NA,NA
a7a77,Save data screen,canvas.Screen,2_1_0_1,NA,NA,timeout,501.18700000001,178133.5999999,178112.17,178144.231,178629.206,178631.29999995,2023-07-05T17:39:06Z,178645.418,Ergänzung,kijalizo,s,ulaghai,mustarehe,matangazo,NA,NA,1,"c(""distractor1"", ""distractor2"", ""distractor3"")",NA,NA,NA,NA,NA,NA,NA,NA,NA,NA,NA,NA,NA,NA,NA,NA,NA,NA,NA
a7a77,shallow,flow.Sequence,2_1_0,NA,NA,completion,10393.857,168220.89999986,168218.042,168235.349,178629.206,178631.69999981,2023-07-05T17:39:06Z,178645.418,Ergänzung,kijalizo,s,ulaghai,mustarehe,matangazo,NA,NA,NA,"c(""distractor1"", ""distractor2"", ""distractor3"")",NA,NA,NA,NA,NA,NA,NA,NA,NA,NA,NA,NA,NA,NA,NA,NA,NA,NA,NA
a7a77,task,flow.Sequence,2_1,NA,NA,completion,10393.857,168220.89999986,168218.042,168235.349,178629.206,178632.0999999,2023-07-05T17:39:06Z,178645.418,Ergänzung,kijalizo,s,ulaghai,mustarehe,matangazo,NA,NA,NA,"c(""distractor1"", ""distractor2"", ""distractor3"")",NA,NA,NA,NA,NA,NA,NA,NA,NA,NA,NA,NA,NA,NA,NA,NA,NA,NA,NA
a7a77,Shallow Question,html.Page,2_2_0_0,NA,NA,form submission,3482.6819999046,178632.29999995,178629.206,178645.418,182128.0999999,182128.5,2023-07-05T17:39:10Z,182142.857,Schlange,foleni,s,uvumilivu,uteuzi,muuzaji,foleni,NA,NA,"c(""distractor1"", ""distractor2"", ""distractor3"")",NA,NA,NA,NA,NA,NA,NA,NA,NA,NA,NA,NA,NA,NA,NA,NA,NA,NA,NA
a7a77,Save data screen,canvas.Screen,2_2_0_1,NA,NA,timeout,501.54800000001,182129.19999981,182122.789,182142.857,182622.191,182623.5,2023-07-05T17:39:10Z,182644.405,Schlange,foleni,s,uvumilivu,uteuzi,muuzaji,NA,NA,1,"c(""distractor1"", ""distractor2"", ""distractor3"")",NA,NA,NA,NA,NA,NA,NA,NA,NA,NA,NA,NA,NA,NA,NA,NA,NA,NA,NA
a7a77,shallow,flow.Sequence,2_2_0,NA,NA,completion,3976.773,178632.29999995,178629.206,178645.418,182622.191,182623.79999995,2023-07-05T17:39:10Z,182644.405,Schlange,foleni,s,uvumilivu,uteuzi,muuzaji,NA,NA,NA,"c(""distractor1"", ""distractor2"", ""distractor3"")",NA,NA,NA,NA,NA,NA,NA,NA,NA,NA,NA,NA,NA,NA,NA,NA,NA,NA,NA
a7a77,task,flow.Sequence,2_2,NA,NA,completion,3976.773,178632.19999981,178629.206,178645.418,182622.191,182624,2023-07-05T17:39:10Z,182644.405,Schlange,foleni,s,uvumilivu,uteuzi,muuzaji,NA,NA,NA,"c(""distractor1"", ""distractor2"", ""distractor3"")",NA,NA,NA,NA,NA,NA,NA,NA,NA,NA,NA,NA,NA,NA,NA,NA,NA,NA,NA
a7a77,Shallow Question,html.Page,2_3_0_0,NA,NA,form submission,3833.1949999046,182624.0999999,182622.191,182644.405,186477.5999999,186478,2023-07-05T17:39:14Z,186492.846,Wohlstand,mafanikio,s,chimbuko,kumbuko,mapwaji,mafanikio,NA,NA,"c(""distractor1"", ""distractor2"", ""distractor3"")",NA,NA,NA,NA,NA,NA,NA,NA,NA,NA,NA,NA,NA,NA,NA,NA,NA,NA,NA
a7a77,Save data screen,canvas.Screen,2_3_0_1,NA,NA,timeout,497.22500000001,186480.69999981,186469.721,186492.846,186973.294,186975.0999999,2023-07-05T17:39:15Z,186990.071,Wohlstand,mafanikio,s,chimbuko,kumbuko,mapwaji,NA,NA,1,"c(""distractor1"", ""distractor2"", ""distractor3"")",NA,NA,NA,NA,NA,NA,NA,NA,NA,NA,NA,NA,NA,NA,NA,NA,NA,NA,NA
a7a77,shallow,flow.Sequence,2_3_0,NA,NA,completion,4328.889,182624.0999999,182622.191,182644.405,186973.294,186975.69999981,2023-07-05T17:39:15Z,186990.071,Wohlstand,mafanikio,s,chimbuko,kumbuko,mapwaji,NA,NA,NA,"c(""distractor1"", ""distractor2"", ""distractor3"")",NA,NA,NA,NA,NA,NA,NA,NA,NA,NA,NA,NA,NA,NA,NA,NA,NA,NA,NA
a7a77,task,flow.Sequence,2_3,NA,NA,completion,4328.889,182624.0999999,182622.191,182644.405,186973.294,186975.89999986,2023-07-05T17:39:15Z,186990.071,Wohlstand,mafanikio,s,chimbuko,kumbuko,mapwaji,NA,NA,NA,"c(""distractor1"", ""distractor2"", ""distractor3"")",NA,NA,NA,NA,NA,NA,NA,NA,NA,NA,NA,NA,NA,NA,NA,NA,NA,NA,NA
a7a77,Shallow Question,html.Page,2_4_0_0,NA,NA,form submission,4504.5289999046,186976.19999981,186973.294,186990.071,191494.5999999,191495,2023-07-05T17:39:19Z,191510.064,Inhalt,yaliyomo,d,kishawishi,hifadhi,kutembea,yaliyomo,NA,NA,"c(""distractor1"", ""distractor2"", ""distractor3"")",NA,NA,NA,NA,NA,NA,NA,NA,NA,NA,NA,NA,NA,NA,NA,NA,NA,NA,NA
a7a77,Save data screen,canvas.Screen,2_4_0_1,NA,NA,timeout,492.18799999999,191498.0999999,191476.974,191510.064,191986,191988,2023-07-05T17:39:20Z,192002.252,Inhalt,yaliyomo,d,kishawishi,hifadhi,kutembea,NA,NA,1,"c(""distractor1"", ""distractor2"", ""distractor3"")",NA,NA,NA,NA,NA,NA,NA,NA,NA,NA,NA,NA,NA,NA,NA,NA,NA,NA,NA
a7a77,shallow,flow.Sequence,2_4_0,NA,NA,completion,4995.929,186976,186973.294,186990.071,191986,191988.5,2023-07-05T17:39:20Z,192002.252,Inhalt,yaliyomo,d,kishawishi,hifadhi,kutembea,NA,NA,NA,"c(""distractor1"", ""distractor2"", ""distractor3"")",NA,NA,NA,NA,NA,NA,NA,NA,NA,NA,NA,NA,NA,NA,NA,NA,NA,NA,NA
a7a77,task,flow.Sequence,2_4,NA,NA,completion,4995.929,186976,186973.294,186990.071,191986,191988.69999981,2023-07-05T17:39:20Z,192002.252,Inhalt,yaliyomo,d,kishawishi,hifadhi,kutembea,NA,NA,NA,"c(""distractor1"", ""distractor2"", ""distractor3"")",NA,NA,NA,NA,NA,NA,NA,NA,NA,NA,NA,NA,NA,NA,NA,NA,NA,NA,NA
a7a77,Shallow Question,html.Page,2_5_0_0,NA,NA,form submission,6082.0479999523,191988.89999986,191986,192002.252,198084.29999995,198084.5999999,2023-07-05T17:39:26Z,198098.231,Vergnügen,kichekesho,d,dubwana,mpanuko,mtesaji,kichekesho,NA,NA,"c(""distractor1"", ""distractor2"", ""distractor3"")",NA,NA,NA,NA,NA,NA,NA,NA,NA,NA,NA,NA,NA,NA,NA,NA,NA,NA,NA
a7a77,Save data screen,canvas.Screen,2_5_0_1,NA,NA,timeout,494.91,198087.19999981,198067.295,198098.231,198576.948,198579.0999999,2023-07-05T17:39:26Z,198593.141,Vergnügen,kichekesho,d,dubwana,mpanuko,mtesaji,NA,NA,1,"c(""distractor1"", ""distractor2"", ""distractor3"")",NA,NA,NA,NA,NA,NA,NA,NA,NA,NA,NA,NA,NA,NA,NA,NA,NA,NA,NA
a7a77,shallow,flow.Sequence,2_5_0,NA,NA,completion,6574.696,191988.89999986,191986,192002.252,198576.948,198579.5999999,2023-07-05T17:39:26Z,198593.141,Vergnügen,kichekesho,d,dubwana,mpanuko,mtesaji,NA,NA,NA,"c(""distractor1"", ""distractor2"", ""distractor3"")",NA,NA,NA,NA,NA,NA,NA,NA,NA,NA,NA,NA,NA,NA,NA,NA,NA,NA,NA
a7a77,task,flow.Sequence,2_5,NA,NA,completion,6574.696,191988.79999995,191986,192002.252,198576.948,198579.79999995,2023-07-05T17:39:26Z,198593.141,Vergnügen,kichekesho,d,dubwana,mpanuko,mtesaji,NA,NA,NA,"c(""distractor1"", ""distractor2"", ""distractor3"")",NA,NA,NA,NA,NA,NA,NA,NA,NA,NA,NA,NA,NA,NA,NA,NA,NA,NA,NA
a7a77,Shallow Question,html.Page,2_6_0_0,NA,NA,form submission,6991.9589999046,198580,198576.948,198593.141,205585.0999999,205585.5999999,2023-07-05T17:39:33Z,205594.24,Hoffnung,matarajio,d,kutaalamika,uratibu,mvumbuzi,mvumbuzi,NA,NA,"c(""distractor1"", ""distractor2"", ""distractor3"")",NA,NA,NA,NA,NA,NA,NA,NA,NA,NA,NA,NA,NA,NA,NA,NA,NA,NA,NA
a7a77,Save data screen,canvas.Screen,2_6_0_1,NA,NA,timeout,498.30300000001,205588.5999999,205571.064,205594.24,206074.121,206076.29999995,2023-07-05T17:39:34Z,206092.543,Hoffnung,matarajio,d,kutaalamika,uratibu,mvumbuzi,NA,NA,0,"c(""distractor1"", ""distractor2"", ""distractor3"")",NA,NA,NA,NA,NA,NA,NA,NA,NA,NA,NA,NA,NA,NA,NA,NA,NA,NA,NA
a7a77,shallow,flow.Sequence,2_6_0,NA,NA,completion,7480.98,198580,198576.948,198593.141,206074.121,206076.69999981,2023-07-05T17:39:34Z,206092.543,Hoffnung,matarajio,d,kutaalamika,uratibu,mvumbuzi,NA,NA,NA,"c(""distractor1"", ""distractor2"", ""distractor3"")",NA,NA,NA,NA,NA,NA,NA,NA,NA,NA,NA,NA,NA,NA,NA,NA,NA,NA,NA
a7a77,task,flow.Sequence,2_6,NA,NA,completion,7480.98,198580,198576.948,198593.141,206074.121,206076.89999986,2023-07-05T17:39:34Z,206092.543,Hoffnung,matarajio,d,kutaalamika,uratibu,mvumbuzi,NA,NA,NA,"c(""distractor1"", ""distractor2"", ""distractor3"")",NA,NA,NA,NA,NA,NA,NA,NA,NA,NA,NA,NA,NA,NA,NA,NA,NA,NA,NA
a7a77,Shallow Question,html.Page,2_7_0_0,NA,NA,form submission,2599.5569999046,206077.19999981,206074.121,206092.543,208692.0999999,208692.5,2023-07-05T17:39:36Z,208706.067,Schock,mshtuko,s,biashara,kukataza,vichekesho,mshtuko,NA,NA,"c(""distractor1"", ""distractor2"", ""distractor3"")",NA,NA,NA,NA,NA,NA,NA,NA,NA,NA,NA,NA,NA,NA,NA,NA,NA,NA,NA
a7a77,Save data screen,canvas.Screen,2_7_0_1,NA,NA,timeout,500.894,208695.0999999,208674.72,208706.067,209190.339,209191.69999981,2023-07-05T17:39:37Z,209206.961,Schock,mshtuko,s,biashara,kukataza,vichekesho,NA,NA,1,"c(""distractor1"", ""distractor2"", ""distractor3"")",NA,NA,NA,NA,NA,NA,NA,NA,NA,NA,NA,NA,NA,NA,NA,NA,NA,NA,NA
a7a77,shallow,flow.Sequence,2_7_0,NA,NA,completion,3097.796,206077.0999999,206074.121,206092.543,209190.339,209191.89999986,2023-07-05T17:39:37Z,209206.961,Schock,mshtuko,s,biashara,kukataza,vichekesho,NA,NA,NA,"c(""distractor1"", ""distractor2"", ""distractor3"")",NA,NA,NA,NA,NA,NA,NA,NA,NA,NA,NA,NA,NA,NA,NA,NA,NA,NA,NA
a7a77,task,flow.Sequence,2_7,NA,NA,completion,3097.796,206077.0999999,206074.121,206092.543,209190.339,209192,2023-07-05T17:39:37Z,209206.961,Schock,mshtuko,s,biashara,kukataza,vichekesho,NA,NA,NA,"c(""distractor1"", ""distractor2"", ""distractor3"")",NA,NA,NA,NA,NA,NA,NA,NA,NA,NA,NA,NA,NA,NA,NA,NA,NA,NA,NA
a7a77,Shallow Question,html.Page,2_8_0_0,NA,NA,form submission,3296.6389999046,209192.19999981,209190.339,209206.961,212503.5999999,212503.89999986,2023-07-05T17:39:40Z,212518.293,Fenster,dirisha,s,walakini,tasawari,maarifa,dirisha,NA,NA,"c(""distractor1"", ""distractor2"", ""distractor3"")",NA,NA,NA,NA,NA,NA,NA,NA,NA,NA,NA,NA,NA,NA,NA,NA,NA,NA,NA
a7a77,Save data screen,canvas.Screen,2_8_0_1,NA,NA,timeout,506.53099999999,212506.29999995,212500.226,212518.293,213008.443,213010.0999999,2023-07-05T17:39:41Z,213024.824,Fenster,dirisha,s,walakini,tasawari,maarifa,NA,NA,1,"c(""distractor1"", ""distractor2"", ""distractor3"")",NA,NA,NA,NA,NA,NA,NA,NA,NA,NA,NA,NA,NA,NA,NA,NA,NA,NA,NA
a7a77,shallow,flow.Sequence,2_8_0,NA,NA,completion,3801.482,209192.19999981,209190.339,209206.961,213008.443,213010.5999999,2023-07-05T17:39:41Z,213024.824,Fenster,dirisha,s,walakini,tasawari,maarifa,NA,NA,NA,"c(""distractor1"", ""distractor2"", ""distractor3"")",NA,NA,NA,NA,NA,NA,NA,NA,NA,NA,NA,NA,NA,NA,NA,NA,NA,NA,NA
a7a77,task,flow.Sequence,2_8,NA,NA,completion,3801.482,209192.19999981,209190.339,209206.961,213008.443,213010.79999995,2023-07-05T17:39:41Z,213024.824,Fenster,dirisha,s,walakini,tasawari,maarifa,NA,NA,NA,"c(""distractor1"", ""distractor2"", ""distractor3"")",NA,NA,NA,NA,NA,NA,NA,NA,NA,NA,NA,NA,NA,NA,NA,NA,NA,NA,NA
a7a77,Shallow Question,html.Page,2_9_0_0,NA,NA,form submission,7070.8759998093,213011,213008.443,213024.824,220095.69999981,220096,2023-07-05T17:39:48Z,220100.196,Spionage,upelelezi,s,maslahi,utokazo,magangao,upelelezi,NA,NA,"c(""distractor1"", ""distractor2"", ""distractor3"")",NA,NA,NA,NA,NA,NA,NA,NA,NA,NA,NA,NA,NA,NA,NA,NA,NA,NA,NA
a7a77,Save data screen,canvas.Screen,2_9_0_1,NA,NA,timeout,498.62599999999,220097.5,220087.562,220100.196,220582.157,220582.79999995,2023-07-05T17:39:48Z,220598.822,Spionage,upelelezi,s,maslahi,utokazo,magangao,NA,NA,1,"c(""distractor1"", ""distractor2"", ""distractor3"")",NA,NA,NA,NA,NA,NA,NA,NA,NA,NA,NA,NA,NA,NA,NA,NA,NA,NA,NA
a7a77,shallow,flow.Sequence,2_9_0,NA,NA,completion,7557.333,213011,213008.443,213024.824,220582.157,220583,2023-07-05T17:39:48Z,220598.822,Spionage,upelelezi,s,maslahi,utokazo,magangao,NA,NA,NA,"c(""distractor1"", ""distractor2"", ""distractor3"")",NA,NA,NA,NA,NA,NA,NA,NA,NA,NA,NA,NA,NA,NA,NA,NA,NA,NA,NA
a7a77,task,flow.Sequence,2_9,NA,NA,completion,7557.333,213010.89999986,213008.443,213024.824,220582.157,220583,2023-07-05T17:39:48Z,220598.822,Spionage,upelelezi,s,maslahi,utokazo,magangao,NA,NA,NA,"c(""distractor1"", ""distractor2"", ""distractor3"")",NA,NA,NA,NA,NA,NA,NA,NA,NA,NA,NA,NA,NA,NA,NA,NA,NA,NA,NA
a7a77,Shallow Question,html.Page,2_10_0_0,NA,NA,form submission,8848.178,220583.19999981,220582.157,220598.822,229447,229447.39999986,2023-07-05T17:39:57Z,229452.054,Notfall,dharura,d,rairai,malalamiko,ahueni,malalamiko,NA,NA,"c(""distractor1"", ""distractor2"", ""distractor3"")",NA,NA,NA,NA,NA,NA,NA,NA,NA,NA,NA,NA,NA,NA,NA,NA,NA,NA,NA
a7a77,Save data screen,canvas.Screen,2_10_0_1,NA,NA,timeout,520.31700000001,229450.39999986,229428.736,229452.054,229931.161,229932.29999995,2023-07-05T17:39:58Z,229972.371,Notfall,dharura,d,rairai,malalamiko,ahueni,NA,NA,0,"c(""distractor1"", ""distractor2"", ""distractor3"")",NA,NA,NA,NA,NA,NA,NA,NA,NA,NA,NA,NA,NA,NA,NA,NA,NA,NA,NA
a7a77,shallow,flow.Sequence,2_10_0,NA,NA,completion,9332.339,220583.19999981,220582.157,220598.822,229931.161,229932.5999999,2023-07-05T17:39:58Z,229972.371,Notfall,dharura,d,rairai,malalamiko,ahueni,NA,NA,NA,"c(""distractor1"", ""distractor2"", ""distractor3"")",NA,NA,NA,NA,NA,NA,NA,NA,NA,NA,NA,NA,NA,NA,NA,NA,NA,NA,NA
a7a77,task,flow.Sequence,2_10,NA,NA,completion,9332.339,220583.19999981,220582.157,220598.822,229931.161,229932.69999981,2023-07-05T17:39:58Z,229972.371,Notfall,dharura,d,rairai,malalamiko,ahueni,NA,NA,NA,"c(""distractor1"", ""distractor2"", ""distractor3"")",NA,NA,NA,NA,NA,NA,NA,NA,NA,NA,NA,NA,NA,NA,NA,NA,NA,NA,NA
a7a77,Shallow Question,html.Page,2_11_0_0,NA,NA,form submission,7882.9289999523,229932.79999995,229931.161,229972.371,237855.29999995,237855.5999999,2023-07-05T17:40:05Z,237865.854,Verpackung,ufungaji,d,uhusiano,upimaji,uchunguzi,ufungaji,NA,NA,"c(""distractor1"", ""distractor2"", ""distractor3"")",NA,NA,NA,NA,NA,NA,NA,NA,NA,NA,NA,NA,NA,NA,NA,NA,NA,NA,NA
a7a77,Save data screen,canvas.Screen,2_11_0_1,NA,NA,timeout,501.78700000001,237858.39999986,237843.581,237865.854,238348.525,238350.5999999,2023-07-05T17:40:06Z,238367.641,Verpackung,ufungaji,d,uhusiano,upimaji,uchunguzi,NA,NA,1,"c(""distractor1"", ""distractor2"", ""distractor3"")",NA,NA,NA,NA,NA,NA,NA,NA,NA,NA,NA,NA,NA,NA,NA,NA,NA,NA,NA
a7a77,shallow,flow.Sequence,2_11_0,NA,NA,completion,8376.154,229932.79999995,229931.161,229972.371,238348.525,238351.0999999,2023-07-05T17:40:06Z,238367.641,Verpackung,ufungaji,d,uhusiano,upimaji,uchunguzi,NA,NA,NA,"c(""distractor1"", ""distractor2"", ""distractor3"")",NA,NA,NA,NA,NA,NA,NA,NA,NA,NA,NA,NA,NA,NA,NA,NA,NA,NA,NA
a7a77,task,flow.Sequence,2_11,NA,NA,completion,8376.154,229932.79999995,229931.161,229972.371,238348.525,238351.39999986,2023-07-05T17:40:06Z,238367.641,Verpackung,ufungaji,d,uhusiano,upimaji,uchunguzi,NA,NA,NA,"c(""distractor1"", ""distractor2"", ""distractor3"")",NA,NA,NA,NA,NA,NA,NA,NA,NA,NA,NA,NA,NA,NA,NA,NA,NA,NA,NA
a7a77,Shallow Question,html.Page,2_12_0_0,NA,NA,form submission,4429.1589999523,238351.5999999,238348.525,238367.641,242796.79999995,242797.19999981,2023-07-05T17:40:10Z,242804.704,Tester,wanaojaribu,d,sherti,sihiri,mlipuko,wanaojaribu,NA,NA,"c(""distractor1"", ""distractor2"", ""distractor3"")",NA,NA,NA,NA,NA,NA,NA,NA,NA,NA,NA,NA,NA,NA,NA,NA,NA,NA,NA
a7a77,Save data screen,canvas.Screen,2_12_0_1,NA,NA,timeout,500.93900000001,242799.79999995,242791.586,242804.704,243288.704,243294.0999999,2023-07-05T17:40:11Z,243305.643,Tester,wanaojaribu,d,sherti,sihiri,mlipuko,NA,NA,1,"c(""distractor1"", ""distractor2"", ""distractor3"")",NA,NA,NA,NA,NA,NA,NA,NA,NA,NA,NA,NA,NA,NA,NA,NA,NA,NA,NA
a7a77,shallow,flow.Sequence,2_12_0,NA,NA,completion,4921.063,238351.5,238348.525,238367.641,243288.704,243294.39999986,2023-07-05T17:40:11Z,243305.643,Tester,wanaojaribu,d,sherti,sihiri,mlipuko,NA,NA,NA,"c(""distractor1"", ""distractor2"", ""distractor3"")",NA,NA,NA,NA,NA,NA,NA,NA,NA,NA,NA,NA,NA,NA,NA,NA,NA,NA,NA
a7a77,task,flow.Sequence,2_12,NA,NA,completion,4921.063,238351.5,238348.525,238367.641,243288.704,243294.5,2023-07-05T17:40:11Z,243305.643,Tester,wanaojaribu,d,sherti,sihiri,mlipuko,NA,NA,NA,"c(""distractor1"", ""distractor2"", ""distractor3"")",NA,NA,NA,NA,NA,NA,NA,NA,NA,NA,NA,NA,NA,NA,NA,NA,NA,NA,NA
a7a77,Shallow Question,html.Page,2_13_0_0,NA,NA,form submission,6194.7569998569,243294.5999999,243288.704,243305.643,249500.39999986,249500.79999995,2023-07-05T17:40:17Z,249514.429,Toleranz,kuvumiliana,s,maombolezo,ujasusi,mchekeshaji,kuvumiliana,NA,NA,"c(""distractor1"", ""distractor2"", ""distractor3"")",NA,NA,NA,NA,NA,NA,NA,NA,NA,NA,NA,NA,NA,NA,NA,NA,NA,NA,NA
a7a77,Save data screen,canvas.Screen,2_13_0_1,NA,NA,timeout,499.12,249503.39999986,249492.27,249514.429,249997.061,249998,2023-07-05T17:40:18Z,250013.549,Toleranz,kuvumiliana,s,maombolezo,ujasusi,mchekeshaji,NA,NA,1,"c(""distractor1"", ""distractor2"", ""distractor3"")",NA,NA,NA,NA,NA,NA,NA,NA,NA,NA,NA,NA,NA,NA,NA,NA,NA,NA,NA
a7a77,shallow,flow.Sequence,2_13_0,NA,NA,completion,6691.418,243294.5999999,243288.704,243305.643,249997.061,249998.29999995,2023-07-05T17:40:18Z,250013.549,Toleranz,kuvumiliana,s,maombolezo,ujasusi,mchekeshaji,NA,NA,NA,"c(""distractor1"", ""distractor2"", ""distractor3"")",NA,NA,NA,NA,NA,NA,NA,NA,NA,NA,NA,NA,NA,NA,NA,NA,NA,NA,NA
a7a77,task,flow.Sequence,2_13,NA,NA,completion,6691.418,243294.5999999,243288.704,243305.643,249997.061,249998.29999995,2023-07-05T17:40:18Z,250013.549,Toleranz,kuvumiliana,s,maombolezo,ujasusi,mchekeshaji,NA,NA,NA,"c(""distractor1"", ""distractor2"", ""distractor3"")",NA,NA,NA,NA,NA,NA,NA,NA,NA,NA,NA,NA,NA,NA,NA,NA,NA,NA,NA
a7a77,Shallow Question,html.Page,2_14_0_0,NA,NA,form submission,4314.5509999046,249998.5,249997.061,250013.549,254328.0999999,254328.5,2023-07-05T17:40:22Z,254342.26,Schüler,mwanafunzi,d,mwekezaji,matumizi,uaminifu,mwanafunzi,NA,NA,"c(""distractor1"", ""distractor2"", ""distractor3"")",NA,NA,NA,NA,NA,NA,NA,NA,NA,NA,NA,NA,NA,NA,NA,NA,NA,NA,NA
a7a77,Save data screen,canvas.Screen,2_14_0_1,NA,NA,timeout,498.522,254331,254312.554,254342.26,254824.686,254826.69999981,2023-07-05T17:40:22Z,254840.782,Schüler,mwanafunzi,d,mwekezaji,matumizi,uaminifu,NA,NA,1,"c(""distractor1"", ""distractor2"", ""distractor3"")",NA,NA,NA,NA,NA,NA,NA,NA,NA,NA,NA,NA,NA,NA,NA,NA,NA,NA,NA
a7a77,shallow,flow.Sequence,2_14_0,NA,NA,completion,4811.137,249998.5,249997.061,250013.549,254824.686,254827.19999981,2023-07-05T17:40:22Z,254840.782,Schüler,mwanafunzi,d,mwekezaji,matumizi,uaminifu,NA,NA,NA,"c(""distractor1"", ""distractor2"", ""distractor3"")",NA,NA,NA,NA,NA,NA,NA,NA,NA,NA,NA,NA,NA,NA,NA,NA,NA,NA,NA
a7a77,task,flow.Sequence,2_14,NA,NA,completion,4811.137,249998.39999986,249997.061,250013.549,254824.686,254827.5,2023-07-05T17:40:22Z,254840.782,Schüler,mwanafunzi,d,mwekezaji,matumizi,uaminifu,NA,NA,NA,"c(""distractor1"", ""distractor2"", ""distractor3"")",NA,NA,NA,NA,NA,NA,NA,NA,NA,NA,NA,NA,NA,NA,NA,NA,NA,NA,NA
a7a77,Shallow Question,html.Page,2_15_0_0,NA,NA,form submission,3566.218,254827.69999981,254824.686,254840.782,258407,258407.39999986,2023-07-05T17:40:26Z,258420.716,Vermutung,udhanifu,d,haramia,tikisho,itifaki,udhanifu,NA,NA,"c(""distractor1"", ""distractor2"", ""distractor3"")",NA,NA,NA,NA,NA,NA,NA,NA,NA,NA,NA,NA,NA,NA,NA,NA,NA,NA,NA
a7a77,Save data screen,canvas.Screen,2_15_0_1,NA,NA,timeout,492.01800000001,258409.89999986,258402.963,258420.716,258896.562,258898.19999981,2023-07-05T17:40:26Z,258912.734,Vermutung,udhanifu,d,haramia,tikisho,itifaki,NA,NA,1,"c(""distractor1"", ""distractor2"", ""distractor3"")",NA,NA,NA,NA,NA,NA,NA,NA,NA,NA,NA,NA,NA,NA,NA,NA,NA,NA,NA
a7a77,shallow,flow.Sequence,2_15_0,NA,NA,completion,4055.78,254827.5999999,254824.686,254840.782,258896.562,258898.89999986,2023-07-05T17:40:26Z,258912.734,Vermutung,udhanifu,d,haramia,tikisho,itifaki,NA,NA,NA,"c(""distractor1"", ""distractor2"", ""distractor3"")",NA,NA,NA,NA,NA,NA,NA,NA,NA,NA,NA,NA,NA,NA,NA,NA,NA,NA,NA
a7a77,task,flow.Sequence,2_15,NA,NA,completion,4055.78,254827.5999999,254824.686,254840.782,258896.562,258899.29999995,2023-07-05T17:40:26Z,258912.734,Vermutung,udhanifu,d,haramia,tikisho,itifaki,NA,NA,NA,"c(""distractor1"", ""distractor2"", ""distractor3"")",NA,NA,NA,NA,NA,NA,NA,NA,NA,NA,NA,NA,NA,NA,NA,NA,NA,NA,NA
a7a77,retrieval block 2 (multiple choice),flow.Loop,2,NA,NA,completion,95941.821,162939.89999986,162938.41,162954.741,258896.562,258899.69999981,2023-07-05T17:40:26Z,258912.734,NA,NA,NA,NA,NA,NA,NA,NA,NA,"c(""distractor1"", ""distractor2"", ""distractor3"")",NA,NA,NA,NA,NA,NA,NA,NA,NA,NA,NA,NA,NA,NA,NA,NA,NA,NA,NA
a7a77,End,canvas.Screen,3,NA,keypress(Space),response,983.06599995232,258899.89999986,258896.562,258912.734,259895.79999995,259898.69999981,2023-07-05T17:40:27Z,259916.901,NA,NA,NA,NA,NA,NA,NA,NA,NA,NULL,NA,NA,NA,NA,NA,NA,NA,NA,NA,NA,NA,NA,NA,NA,NA,NA,NA,NA,NA
a7a77,root,flow.Sequence,NA,NA,NA,completion,259140.45599995,744.5,738.638,755.344,259895.79999995,259899.29999995,2023-07-05T17:40:27Z,259916.901,NA,NA,NA,NA,NA,NA,NA,NA,NA,NULL,NA,NA,NA,NA,NA,NA,NA,NA,NA,NA,NA,NA,NA,NA,NA,NA,NA,NA,NA
