observation,sender,sender_type,sender_id,response,response_action,ended_on,duration,time_run,time_render,time_show,time_end,time_commit,timestamp,time_switch,distractors,german,swahili,enc,distractor1,distractor2,distractor3,response_2,x,correct,x_2,url_vp,url_sess,meta_labjs_version,meta_location,meta_user_agent,meta_platform,meta_language,meta_locale,meta_time_zone,meta_timezone_offset,meta_screen_width,meta_screen_height,meta_scroll_width,meta_scroll_height,meta_window_inner_width,meta_window_inner_height,meta_device_pixel_ratio,meta_labjs_build_flavor,meta_labjs_build_commit
ff0f9,Introduction general,canvas.Screen,0,weiter,keypress(q),response,138378.2999999,460.2999997139,245,478.3,138856.5999999,138863,2024-03-02T07:13:50Z,138861.5,NULL,NA,NA,NA,NA,NA,NA,NA,NA,NA,NA,154,1,20.2.4,https://neurocog.fernuni.ch/studies/vweber/jbaenninger/encoding_immediate/index.html?vp=154&sess=1,"Mozilla/5.0 (Windows NT 10.0; Win64; x64) AppleWebKit/537.36 (KHTML, like Gecko) Chrome/121.0.0.0 Safari/537.36 Edg/121.0.0.0",Win32,de,de-CH,Europe/Zurich,-60,1920,1080,1872,910,1872,958,1,production,f5b4a49f956347addd546a832a3327688c2c0fef
ff0f9,Introduction practice,canvas.Screen,1_0,NA,keypress(Space),response,7239.2999997139,138863.5999999,138858.006,138861.5,146100.79999971,146101.69999981,2024-03-02T07:13:57Z,146111.6,NULL,NA,NA,NA,NA,NA,NA,NA,NA,NA,NA,NA,NA,NA,NA,NA,NA,NA,NA,NA,NA,NA,NA,NA,NA,NA,NA,NA,NA,NA
ff0f9,deep,flow.Sequence,1_1_0_0,NA,NA,skipped,NA,146102.0999999,NA,NA,146100.79999971,146105.0999999,2024-03-02T07:13:57Z,146111.6,"c(""distractor1"", ""distractor2"", ""distractor3"")",Gegenwart,hadhara,s,katiba,jokofu,mikopo,NA,NA,NA,NA,NA,NA,NA,NA,NA,NA,NA,NA,NA,NA,NA,NA,NA,NA,NA,NA,NA,NA,NA
ff0f9,Shallow Question,html.Page,1_1_0_1_0,NA,NA,form submission,21317.800000095,146105.4000001,146094.616,146111.6,167429.4000001,167429.69999981,2024-03-02T07:14:18Z,167428.286,"c(""distractor1"", ""distractor2"", ""distractor3"")",Gegenwart,hadhara,s,katiba,jokofu,mikopo,katiba,NA,NA,NA,NA,NA,NA,NA,NA,NA,NA,NA,NA,NA,NA,NA,NA,NA,NA,NA,NA,NA,NA
ff0f9,"""Richtig""-Screen",canvas.Screen,1_1_0_1_1,NA,NA,skipped,NA,167430.79999971,NA,NA,167429.4000001,167431,2024-03-02T07:14:18Z,167428.286,"c(""distractor1"", ""distractor2"", ""distractor3"")",Gegenwart,hadhara,s,katiba,jokofu,mikopo,NA,NA,NA,NA,NA,NA,NA,NA,NA,NA,NA,NA,NA,NA,NA,NA,NA,NA,NA,NA,NA,NA,NA
ff0f9,"""Falsch""-Screen",canvas.Screen,1_1_0_1_2,NA,NA,timeout,4999.914,167431.79999971,167428.286,167428.286,172411.5,172415.0999999,2024-03-02T07:14:23Z,172428.2,"c(""distractor1"", ""distractor2"", ""distractor3"")",Gegenwart,hadhara,s,katiba,jokofu,mikopo,NA,NA,0,NA,NA,NA,NA,NA,NA,NA,NA,NA,NA,NA,NA,NA,NA,NA,NA,NA,NA,NA,NA
ff0f9,shallow,flow.Sequence,1_1_0_1,NA,NA,completion,26299.9,146105.29999971,146094.616,146111.6,172411.5,172415.4000001,2024-03-02T07:14:23Z,172428.2,"c(""distractor1"", ""distractor2"", ""distractor3"")",Gegenwart,hadhara,s,katiba,jokofu,mikopo,NA,NA,NA,NA,NA,NA,NA,NA,NA,NA,NA,NA,NA,NA,NA,NA,NA,NA,NA,NA,NA,NA,NA
ff0f9,task,flow.Sequence,1_1_0,NA,NA,completion,26299.9,146102.0999999,146094.616,146111.6,172411.5,172415.69999981,2024-03-02T07:14:23Z,172428.2,"c(""distractor1"", ""distractor2"", ""distractor3"")",Gegenwart,hadhara,s,katiba,jokofu,mikopo,NA,NA,NA,NA,NA,NA,NA,NA,NA,NA,NA,NA,NA,NA,NA,NA,NA,NA,NA,NA,NA,NA,NA
ff0f9,Deep Question,html.Page,1_1_1_0_0,NA,NA,form submission,30206.700000095,172416,172411.5,172428.2,202634.9000001,202635.0999999,2024-03-02T07:14:54Z,202644.7,"c(""distractor1"", ""distractor2"", ""distractor3"")",Schatten,kivuli,d,NA,NA,NA,maghada,NA,NA,NA,NA,NA,NA,NA,NA,NA,NA,NA,NA,NA,NA,NA,NA,NA,NA,NA,NA,NA,NA
ff0f9,"""Richtig""-Screen",canvas.Screen,1_1_1_0_1,NA,NA,skipped,NA,202637.4000001,NA,NA,202634.9000001,202637.5,2024-03-02T07:14:54Z,202644.7,"c(""distractor1"", ""distractor2"", ""distractor3"")",Schatten,kivuli,d,NA,NA,NA,NA,NA,NA,NA,NA,NA,NA,NA,NA,NA,NA,NA,NA,NA,NA,NA,NA,NA,NA,NA,NA,NA,NA
ff0f9,"""Falsch""-Screen",canvas.Screen,1_1_1_0_2,NA,NA,timeout,5000.2,202638.29999971,202628.224,202644.7,207628.1,207628.9000001,2024-03-02T07:14:59Z,207644.9,"c(""distractor1"", ""distractor2"", ""distractor3"")",Schatten,kivuli,d,NA,NA,NA,NA,NA,0,NA,NA,NA,NA,NA,NA,NA,NA,NA,NA,NA,NA,NA,NA,NA,NA,NA,NA,NA,NA
ff0f9,deep,flow.Sequence,1_1_1_0,NA,NA,completion,35199.9,172415.79999971,172411.5,172428.2,207628.1,207629.19999981,2024-03-02T07:14:59Z,207644.9,"c(""distractor1"", ""distractor2"", ""distractor3"")",Schatten,kivuli,d,NA,NA,NA,NA,NA,NA,NA,NA,NA,NA,NA,NA,NA,NA,NA,NA,NA,NA,NA,NA,NA,NA,NA,NA,NA,NA
ff0f9,shallow,flow.Sequence,1_1_1_1,NA,NA,skipped,NA,207629.4000001,NA,NA,207628.1,207629.5,2024-03-02T07:14:59Z,207644.9,"c(""distractor1"", ""distractor2"", ""distractor3"")",Schatten,kivuli,d,NA,NA,NA,NA,NA,NA,NA,NA,NA,NA,NA,NA,NA,NA,NA,NA,NA,NA,NA,NA,NA,NA,NA,NA,NA,NA
ff0f9,task,flow.Sequence,1_1_1,NA,NA,completion,35199.9,172415.79999971,172411.5,172428.2,207628.1,207629.69999981,2024-03-02T07:14:59Z,207644.9,"c(""distractor1"", ""distractor2"", ""distractor3"")",Schatten,kivuli,d,NA,NA,NA,NA,NA,NA,NA,NA,NA,NA,NA,NA,NA,NA,NA,NA,NA,NA,NA,NA,NA,NA,NA,NA,NA,NA
ff0f9,Deep Question,html.Page,1_1_2_0_0,NA,NA,form submission,10971.899999714,207629.9000001,207628.1,207644.9,218616.79999971,218617.0999999,2024-03-02T07:15:10Z,218628,"c(""distractor1"", ""distractor2"", ""distractor3"")",Gesundheit,salama,d,NA,NA,NA,tibu,NA,NA,NA,NA,NA,NA,NA,NA,NA,NA,NA,NA,NA,NA,NA,NA,NA,NA,NA,NA,NA,NA
ff0f9,"""Richtig""-Screen",canvas.Screen,1_1_2_0_1,NA,NA,skipped,NA,218618.9000001,NA,NA,218616.79999971,218619.0999999,2024-03-02T07:15:10Z,218628,"c(""distractor1"", ""distractor2"", ""distractor3"")",Gesundheit,salama,d,NA,NA,NA,NA,NA,NA,NA,NA,NA,NA,NA,NA,NA,NA,NA,NA,NA,NA,NA,NA,NA,NA,NA,NA,NA,NA
ff0f9,"""Falsch""-Screen",canvas.Screen,1_1_2_0_2,NA,NA,timeout,5000,218619.79999971,218611.584,218628,223611.5,223612.4000001,2024-03-02T07:15:15Z,223628,"c(""distractor1"", ""distractor2"", ""distractor3"")",Gesundheit,salama,d,NA,NA,NA,NA,NA,0,NA,NA,NA,NA,NA,NA,NA,NA,NA,NA,NA,NA,NA,NA,NA,NA,NA,NA,NA,NA
ff0f9,deep,flow.Sequence,1_1_2_0,NA,NA,completion,15966.6,207629.9000001,207628.1,207644.9,223611.5,223612.79999971,2024-03-02T07:15:15Z,223628,"c(""distractor1"", ""distractor2"", ""distractor3"")",Gesundheit,salama,d,NA,NA,NA,NA,NA,NA,NA,NA,NA,NA,NA,NA,NA,NA,NA,NA,NA,NA,NA,NA,NA,NA,NA,NA,NA,NA
ff0f9,shallow,flow.Sequence,1_1_2_1,NA,NA,skipped,NA,223612.9000001,NA,NA,223611.5,223613,2024-03-02T07:15:15Z,223628,"c(""distractor1"", ""distractor2"", ""distractor3"")",Gesundheit,salama,d,NA,NA,NA,NA,NA,NA,NA,NA,NA,NA,NA,NA,NA,NA,NA,NA,NA,NA,NA,NA,NA,NA,NA,NA,NA,NA
ff0f9,task,flow.Sequence,1_1_2,NA,NA,completion,15966.6,207629.9000001,207628.1,207644.9,223611.5,223613.19999981,2024-03-02T07:15:15Z,223628,"c(""distractor1"", ""distractor2"", ""distractor3"")",Gesundheit,salama,d,NA,NA,NA,NA,NA,NA,NA,NA,NA,NA,NA,NA,NA,NA,NA,NA,NA,NA,NA,NA,NA,NA,NA,NA,NA,NA
ff0f9,Deep Question,html.Page,1_1_3_0_0,NA,NA,form submission,11104.799999714,223613.4000001,223611.5,223628,234732.79999971,234732.9000001,2024-03-02T07:15:26Z,234744.6,"c(""distractor1"", ""distractor2"", ""distractor3"")",Qualität,mtindo,d,NA,NA,NA,reto,NA,NA,NA,NA,NA,NA,NA,NA,NA,NA,NA,NA,NA,NA,NA,NA,NA,NA,NA,NA,NA,NA
ff0f9,"""Richtig""-Screen",canvas.Screen,1_1_3_0_1,NA,NA,skipped,NA,234734.69999981,NA,NA,234732.79999971,234734.79999971,2024-03-02T07:15:26Z,234744.6,"c(""distractor1"", ""distractor2"", ""distractor3"")",Qualität,mtindo,d,NA,NA,NA,NA,NA,NA,NA,NA,NA,NA,NA,NA,NA,NA,NA,NA,NA,NA,NA,NA,NA,NA,NA,NA,NA,NA
ff0f9,"""Falsch""-Screen",canvas.Screen,1_1_3_0_2,NA,NA,timeout,5000.2,234735.4000001,234728.23,234744.6,239728,239728.69999981,2024-03-02T07:15:31Z,239744.8,"c(""distractor1"", ""distractor2"", ""distractor3"")",Qualität,mtindo,d,NA,NA,NA,NA,NA,0,NA,NA,NA,NA,NA,NA,NA,NA,NA,NA,NA,NA,NA,NA,NA,NA,NA,NA,NA,NA
ff0f9,deep,flow.Sequence,1_1_3_0,NA,NA,completion,16100,223613.29999971,223611.5,223628,239728,239729,2024-03-02T07:15:31Z,239744.8,"c(""distractor1"", ""distractor2"", ""distractor3"")",Qualität,mtindo,d,NA,NA,NA,NA,NA,NA,NA,NA,NA,NA,NA,NA,NA,NA,NA,NA,NA,NA,NA,NA,NA,NA,NA,NA,NA,NA
ff0f9,shallow,flow.Sequence,1_1_3_1,NA,NA,skipped,NA,239729.0999999,NA,NA,239728,239729.19999981,2024-03-02T07:15:31Z,239744.8,"c(""distractor1"", ""distractor2"", ""distractor3"")",Qualität,mtindo,d,NA,NA,NA,NA,NA,NA,NA,NA,NA,NA,NA,NA,NA,NA,NA,NA,NA,NA,NA,NA,NA,NA,NA,NA,NA,NA
ff0f9,task,flow.Sequence,1_1_3,NA,NA,completion,16100,223613.29999971,223611.5,223628,239728,239729.5,2024-03-02T07:15:31Z,239744.8,"c(""distractor1"", ""distractor2"", ""distractor3"")",Qualität,mtindo,d,NA,NA,NA,NA,NA,NA,NA,NA,NA,NA,NA,NA,NA,NA,NA,NA,NA,NA,NA,NA,NA,NA,NA,NA,NA,NA
ff0f9,deep,flow.Sequence,1_1_4_0,NA,NA,skipped,NA,239729.5999999,NA,NA,239728,239729.5999999,2024-03-02T07:15:31Z,239744.8,"c(""distractor1"", ""distractor2"", ""distractor3"")",Rückhalt,msaada,s,muhula,auwali,kiwimbe,NA,NA,NA,NA,NA,NA,NA,NA,NA,NA,NA,NA,NA,NA,NA,NA,NA,NA,NA,NA,NA,NA,NA
ff0f9,Shallow Question,html.Page,1_1_4_1_0,NA,NA,form submission,11580.7,239729.79999971,239728,239744.8,251325.5,251325.69999981,2024-03-02T07:15:42Z,251328.136,"c(""distractor1"", ""distractor2"", ""distractor3"")",Rückhalt,msaada,s,muhula,auwali,kiwimbe,auwali,NA,NA,NA,NA,NA,NA,NA,NA,NA,NA,NA,NA,NA,NA,NA,NA,NA,NA,NA,NA,NA,NA
ff0f9,"""Richtig""-Screen",canvas.Screen,1_1_4_1_1,NA,NA,skipped,NA,251327.4000001,NA,NA,251325.5,251327.5,2024-03-02T07:15:42Z,251328.136,"c(""distractor1"", ""distractor2"", ""distractor3"")",Rückhalt,msaada,s,muhula,auwali,kiwimbe,NA,NA,NA,NA,NA,NA,NA,NA,NA,NA,NA,NA,NA,NA,NA,NA,NA,NA,NA,NA,NA,NA,NA
ff0f9,"""Falsch""-Screen",canvas.Screen,1_1_4_1_2,NA,NA,timeout,4999.964,251328.29999971,251328.136,251328.136,256311.4,256312.29999971,2024-03-02T07:15:47Z,256328.1,"c(""distractor1"", ""distractor2"", ""distractor3"")",Rückhalt,msaada,s,muhula,auwali,kiwimbe,NA,NA,0,NA,NA,NA,NA,NA,NA,NA,NA,NA,NA,NA,NA,NA,NA,NA,NA,NA,NA,NA,NA
ff0f9,shallow,flow.Sequence,1_1_4_1,NA,NA,completion,16566.6,239729.69999981,239728,239744.8,256311.4,256312.5999999,2024-03-02T07:15:47Z,256328.1,"c(""distractor1"", ""distractor2"", ""distractor3"")",Rückhalt,msaada,s,muhula,auwali,kiwimbe,NA,NA,NA,NA,NA,NA,NA,NA,NA,NA,NA,NA,NA,NA,NA,NA,NA,NA,NA,NA,NA,NA,NA
ff0f9,task,flow.Sequence,1_1_4,NA,NA,completion,16566.6,239729.5,239728,239744.8,256311.4,256312.69999981,2024-03-02T07:15:47Z,256328.1,"c(""distractor1"", ""distractor2"", ""distractor3"")",Rückhalt,msaada,s,muhula,auwali,kiwimbe,NA,NA,NA,NA,NA,NA,NA,NA,NA,NA,NA,NA,NA,NA,NA,NA,NA,NA,NA,NA,NA,NA,NA
ff0f9,deep,flow.Sequence,1_1_5_0,NA,NA,skipped,NA,256312.9000001,NA,NA,256311.4,256313.0999999,2024-03-02T07:15:47Z,256328.1,"c(""distractor1"", ""distractor2"", ""distractor3"")",Kritik,lawama,s,dereva,nafasi,mawazo,NA,NA,NA,NA,NA,NA,NA,NA,NA,NA,NA,NA,NA,NA,NA,NA,NA,NA,NA,NA,NA,NA,NA
ff0f9,Shallow Question,html.Page,1_1_5_1_0,NA,NA,form submission,5471.4999999046,256313.29999971,256311.4,256328.1,261799.5999999,261799.79999971,2024-03-02T07:15:53Z,261811.4,"c(""distractor1"", ""distractor2"", ""distractor3"")",Kritik,lawama,s,dereva,nafasi,mawazo,dereva,NA,NA,NA,NA,NA,NA,NA,NA,NA,NA,NA,NA,NA,NA,NA,NA,NA,NA,NA,NA,NA,NA
ff0f9,"""Richtig""-Screen",canvas.Screen,1_1_5_1_1,NA,NA,skipped,NA,261801.5,NA,NA,261799.5999999,261801.69999981,2024-03-02T07:15:53Z,261811.4,"c(""distractor1"", ""distractor2"", ""distractor3"")",Kritik,lawama,s,dereva,nafasi,mawazo,NA,NA,NA,NA,NA,NA,NA,NA,NA,NA,NA,NA,NA,NA,NA,NA,NA,NA,NA,NA,NA,NA,NA
ff0f9,"""Falsch""-Screen",canvas.Screen,1_1_5_1_2,NA,NA,timeout,4999.9,261802.19999981,261794.852,261811.4,266794.8,266795.5999999,2024-03-02T07:15:58Z,266811.3,"c(""distractor1"", ""distractor2"", ""distractor3"")",Kritik,lawama,s,dereva,nafasi,mawazo,NA,NA,0,NA,NA,NA,NA,NA,NA,NA,NA,NA,NA,NA,NA,NA,NA,NA,NA,NA,NA,NA,NA
ff0f9,shallow,flow.Sequence,1_1_5_1,NA,NA,completion,10466.7,256313.29999971,256311.4,256328.1,266794.8,266796,2024-03-02T07:15:58Z,266811.3,"c(""distractor1"", ""distractor2"", ""distractor3"")",Kritik,lawama,s,dereva,nafasi,mawazo,NA,NA,NA,NA,NA,NA,NA,NA,NA,NA,NA,NA,NA,NA,NA,NA,NA,NA,NA,NA,NA,NA,NA
ff0f9,task,flow.Sequence,1_1_5,NA,NA,completion,10466.7,256312.79999971,256311.4,256328.1,266794.8,266796.0999999,2024-03-02T07:15:58Z,266811.3,"c(""distractor1"", ""distractor2"", ""distractor3"")",Kritik,lawama,s,dereva,nafasi,mawazo,NA,NA,NA,NA,NA,NA,NA,NA,NA,NA,NA,NA,NA,NA,NA,NA,NA,NA,NA,NA,NA,NA,NA
ff0f9,block,flow.Loop,1_1,NA,NA,completion,120683.2,146102,146094.616,146111.6,266794.8,266796.29999971,2024-03-02T07:15:58Z,266811.3,"c(""distractor1"", ""distractor2"", ""distractor3"")",NA,NA,NA,NA,NA,NA,NA,NA,NA,NA,NA,NA,NA,NA,NA,NA,NA,NA,NA,NA,NA,NA,NA,NA,NA,NA,NA,NA,NA
ff0f9,Practice,flow.Sequence,1,NA,NA,completion,127933.3,138863.5999999,138858.006,138861.5,266794.8,266796.5,2024-03-02T07:15:58Z,266811.3,NULL,NA,NA,NA,NA,NA,NA,NA,NA,NA,NA,NA,NA,NA,NA,NA,NA,NA,NA,NA,NA,NA,NA,NA,NA,NA,NA,NA,NA,NA
ff0f9,Experiment start,canvas.Screen,2,weiter,keypress(q),response,68268.799999905,266796.5999999,266794.8,266811.3,335080.0999999,335081,2024-03-02T07:17:06Z,335194.6,NULL,NA,NA,NA,NA,NA,NA,NA,NA,NA,NA,NA,NA,NA,NA,NA,NA,NA,NA,NA,NA,NA,NA,NA,NA,NA,NA,NA,NA,NA
ff0f9,deep,flow.Sequence,3_0_0_0_0_0,NA,NA,skipped,NA,335196.29999971,NA,NA,335080.0999999,335196.29999971,2024-03-02T07:17:06Z,335194.6,NULL,Widerstand,usulubu,s,kusababisha,mwalimu,mwenendo,NA,sdf,NA,0,NA,NA,NA,NA,NA,NA,NA,NA,NA,NA,NA,NA,NA,NA,NA,NA,NA,NA,NA
ff0f9,Shallow Question,html.Page,3_0_0_0_0_1_0,NA,NA,form submission,17168.999999905,335196.4000001,335192.194,335194.6,352363.5999999,352363.79999971,2024-03-02T07:17:23Z,352394.7,NULL,Widerstand,usulubu,s,kusababisha,mwalimu,mwenendo,mwalimu,NA,NA,0,NA,NA,NA,NA,NA,NA,NA,NA,NA,NA,NA,NA,NA,NA,NA,NA,NA,NA,NA
ff0f9,"""Richtig""-Screen",canvas.Screen,3_0_0_0_0_1_1,NA,NA,skipped,NA,352365.5999999,NA,NA,352363.5999999,352365.69999981,2024-03-02T07:17:23Z,352394.7,NULL,Widerstand,usulubu,s,kusababisha,mwalimu,mwenendo,NA,sdf,NA,0,NA,NA,NA,NA,NA,NA,NA,NA,NA,NA,NA,NA,NA,NA,NA,NA,NA,NA,NA
ff0f9,"""Falsch""-Screen",canvas.Screen,3_0_0_0_0_1_2,NA,NA,timeout,5000,352366.19999981,352378.1,352394.7,357378,357378.9000001,2024-03-02T07:17:28Z,357394.7,NULL,Widerstand,usulubu,s,kusababisha,mwalimu,mwenendo,NA,sdf,0,0,NA,NA,NA,NA,NA,NA,NA,NA,NA,NA,NA,NA,NA,NA,NA,NA,NA,NA,NA
ff0f9,shallow,flow.Sequence,3_0_0_0_0_1,NA,NA,completion,22183.4,335196.4000001,335192.194,335194.6,357378,357379.19999981,2024-03-02T07:17:28Z,357394.7,NULL,Widerstand,usulubu,s,kusababisha,mwalimu,mwenendo,NA,sdf,NA,0,NA,NA,NA,NA,NA,NA,NA,NA,NA,NA,NA,NA,NA,NA,NA,NA,NA,NA,NA
ff0f9,task,flow.Sequence,3_0_0_0_0,NA,NA,completion,22183.4,335196.29999971,335192.194,335194.6,357378,357379.4000001,2024-03-02T07:17:28Z,357394.7,NULL,Widerstand,usulubu,s,kusababisha,mwalimu,mwenendo,NA,sdf,NA,0,NA,NA,NA,NA,NA,NA,NA,NA,NA,NA,NA,NA,NA,NA,NA,NA,NA,NA,NA
ff0f9,deep,flow.Sequence,3_0_0_0_1_0,NA,NA,skipped,NA,357379.5,NA,NA,357378,357379.5999999,2024-03-02T07:17:28Z,357394.7,NULL,Gefährdung,kuhatarisha,s,uchokozi,udhaifu,makorowezo,NA,sdf,NA,0,NA,NA,NA,NA,NA,NA,NA,NA,NA,NA,NA,NA,NA,NA,NA,NA,NA,NA,NA
ff0f9,Shallow Question,html.Page,3_0_0_0_1_1_0,NA,NA,form submission,10580.700000095,357379.5999999,357378,357394.7,367975.4000001,367975.5999999,2024-03-02T07:17:39Z,367978.046,NULL,Gefährdung,kuhatarisha,s,uchokozi,udhaifu,makorowezo,udhaifu,NA,NA,0,NA,NA,NA,NA,NA,NA,NA,NA,NA,NA,NA,NA,NA,NA,NA,NA,NA,NA,NA
ff0f9,"""Richtig""-Screen",canvas.Screen,3_0_0_0_1_1_1,NA,NA,skipped,NA,367977.29999971,NA,NA,367975.4000001,367977.4000001,2024-03-02T07:17:39Z,367978.046,NULL,Gefährdung,kuhatarisha,s,uchokozi,udhaifu,makorowezo,NA,sdf,NA,0,NA,NA,NA,NA,NA,NA,NA,NA,NA,NA,NA,NA,NA,NA,NA,NA,NA,NA,NA
ff0f9,"""Falsch""-Screen",canvas.Screen,3_0_0_0_1_1_2,NA,NA,timeout,4999.954,367977.9000001,367978.046,367978.046,372961.4,372962,2024-03-02T07:17:44Z,372978,NULL,Gefährdung,kuhatarisha,s,uchokozi,udhaifu,makorowezo,NA,sdf,0,0,NA,NA,NA,NA,NA,NA,NA,NA,NA,NA,NA,NA,NA,NA,NA,NA,NA,NA,NA
ff0f9,shallow,flow.Sequence,3_0_0_0_1_1,NA,NA,completion,15566.7,357379.5999999,357378,357394.7,372961.4,372962.29999971,2024-03-02T07:17:44Z,372978,NULL,Gefährdung,kuhatarisha,s,uchokozi,udhaifu,makorowezo,NA,sdf,NA,0,NA,NA,NA,NA,NA,NA,NA,NA,NA,NA,NA,NA,NA,NA,NA,NA,NA,NA,NA
ff0f9,task,flow.Sequence,3_0_0_0_1,NA,NA,completion,15566.7,357379.5,357378,357394.7,372961.4,372962.4000001,2024-03-02T07:17:44Z,372978,NULL,Gefährdung,kuhatarisha,s,uchokozi,udhaifu,makorowezo,NA,sdf,NA,0,NA,NA,NA,NA,NA,NA,NA,NA,NA,NA,NA,NA,NA,NA,NA,NA,NA,NA,NA
ff0f9,Deep Question,html.Page,3_0_0_0_2_0_0,NA,NA,form submission,11970.299999714,372962.5999999,372961.4,372978,384948.29999971,384948.5999999,2024-03-02T07:17:56Z,384961.4,NULL,Kreativität,ubunifu,d,NA,NA,NA,tahuri,NA,NA,0,NA,NA,NA,NA,NA,NA,NA,NA,NA,NA,NA,NA,NA,NA,NA,NA,NA,NA,NA
ff0f9,"""Richtig""-Screen",canvas.Screen,3_0_0_0_2_0_1,NA,NA,skipped,NA,384950.29999971,NA,NA,384948.29999971,384950.5,2024-03-02T07:17:56Z,384961.4,NULL,Kreativität,ubunifu,d,NA,NA,NA,NA,sdf,NA,0,NA,NA,NA,NA,NA,NA,NA,NA,NA,NA,NA,NA,NA,NA,NA,NA,NA,NA,NA
ff0f9,"""Falsch""-Screen",canvas.Screen,3_0_0_0_2_0_2,NA,NA,timeout,4999.9,384951.0999999,384944.748,384961.4,389944.5,389945.4000001,2024-03-02T07:18:01Z,389961.3,NULL,Kreativität,ubunifu,d,NA,NA,NA,NA,sdf,0,0,NA,NA,NA,NA,NA,NA,NA,NA,NA,NA,NA,NA,NA,NA,NA,NA,NA,NA,NA
ff0f9,deep,flow.Sequence,3_0_0_0_2_0,NA,NA,completion,16966.5,372962.5,372961.4,372978,389944.5,389945.5999999,2024-03-02T07:18:01Z,389961.3,NULL,Kreativität,ubunifu,d,NA,NA,NA,NA,sdf,NA,0,NA,NA,NA,NA,NA,NA,NA,NA,NA,NA,NA,NA,NA,NA,NA,NA,NA,NA,NA
ff0f9,shallow,flow.Sequence,3_0_0_0_2_1,NA,NA,skipped,NA,389945.69999981,NA,NA,389944.5,389945.79999971,2024-03-02T07:18:01Z,389961.3,NULL,Kreativität,ubunifu,d,NA,NA,NA,NA,sdf,NA,0,NA,NA,NA,NA,NA,NA,NA,NA,NA,NA,NA,NA,NA,NA,NA,NA,NA,NA,NA
ff0f9,task,flow.Sequence,3_0_0_0_2,NA,NA,completion,16966.5,372962.5,372961.4,372978,389944.5,389945.9000001,2024-03-02T07:18:01Z,389961.3,NULL,Kreativität,ubunifu,d,NA,NA,NA,NA,sdf,NA,0,NA,NA,NA,NA,NA,NA,NA,NA,NA,NA,NA,NA,NA,NA,NA,NA,NA,NA,NA
ff0f9,Deep Question,html.Page,3_0_0_0_3_0_0,NA,NA,form submission,13270.2,389946.0999999,389944.5,389961.3,403231.5,403231.69999981,2024-03-02T07:18:14Z,403244.5,NULL,Ausschluss,kutengwa,d,NA,NA,NA,toha,NA,NA,0,NA,NA,NA,NA,NA,NA,NA,NA,NA,NA,NA,NA,NA,NA,NA,NA,NA,NA,NA
ff0f9,"""Richtig""-Screen",canvas.Screen,3_0_0_0_3_0_1,NA,NA,skipped,NA,403233.5999999,NA,NA,403231.5,403233.69999981,2024-03-02T07:18:14Z,403244.5,NULL,Ausschluss,kutengwa,d,NA,NA,NA,NA,sdf,NA,0,NA,NA,NA,NA,NA,NA,NA,NA,NA,NA,NA,NA,NA,NA,NA,NA,NA,NA,NA
ff0f9,"""Falsch""-Screen",canvas.Screen,3_0_0_0_3_0_2,NA,NA,timeout,5000.2,403234.19999981,403228.028,403244.5,408227.8,408228.5999999,2024-03-02T07:18:19Z,408244.7,NULL,Ausschluss,kutengwa,d,NA,NA,NA,NA,sdf,0,0,NA,NA,NA,NA,NA,NA,NA,NA,NA,NA,NA,NA,NA,NA,NA,NA,NA,NA,NA
ff0f9,deep,flow.Sequence,3_0_0_0_3_0,NA,NA,completion,18266.5,389946,389944.5,389961.3,408227.8,408229,2024-03-02T07:18:19Z,408244.7,NULL,Ausschluss,kutengwa,d,NA,NA,NA,NA,sdf,NA,0,NA,NA,NA,NA,NA,NA,NA,NA,NA,NA,NA,NA,NA,NA,NA,NA,NA,NA,NA
ff0f9,shallow,flow.Sequence,3_0_0_0_3_1,NA,NA,skipped,NA,408229.19999981,NA,NA,408227.8,408229.29999971,2024-03-02T07:18:19Z,408244.7,NULL,Ausschluss,kutengwa,d,NA,NA,NA,NA,sdf,NA,0,NA,NA,NA,NA,NA,NA,NA,NA,NA,NA,NA,NA,NA,NA,NA,NA,NA,NA,NA
ff0f9,task,flow.Sequence,3_0_0_0_3,NA,NA,completion,18266.5,389946,389944.5,389961.3,408227.8,408229.5,2024-03-02T07:18:19Z,408244.7,NULL,Ausschluss,kutengwa,d,NA,NA,NA,NA,sdf,NA,0,NA,NA,NA,NA,NA,NA,NA,NA,NA,NA,NA,NA,NA,NA,NA,NA,NA,NA,NA
ff0f9,Deep Question,html.Page,3_0_0_0_4_0_0,NA,NA,form submission,6840.5999997139,408229.5999999,408227.8,408244.7,415085.29999971,415085.5,2024-03-02T07:18:26Z,415111.4,NULL,Gelegenheit,wakati,d,NA,NA,NA,wegha,NA,NA,0,NA,NA,NA,NA,NA,NA,NA,NA,NA,NA,NA,NA,NA,NA,NA,NA,NA,NA,NA
ff0f9,"""Richtig""-Screen",canvas.Screen,3_0_0_0_4_0_1,NA,NA,skipped,NA,415087.29999971,NA,NA,415085.29999971,415087.5,2024-03-02T07:18:26Z,415111.4,NULL,Gelegenheit,wakati,d,NA,NA,NA,NA,sdf,NA,0,NA,NA,NA,NA,NA,NA,NA,NA,NA,NA,NA,NA,NA,NA,NA,NA,NA,NA,NA
ff0f9,"""Falsch""-Screen",canvas.Screen,3_0_0_0_4_0_2,NA,NA,timeout,4999.9,415088,415094.666,415111.4,420094.7,420095.19999981,2024-03-02T07:18:31Z,420111.3,NULL,Gelegenheit,wakati,d,NA,NA,NA,NA,sdf,0,0,NA,NA,NA,NA,NA,NA,NA,NA,NA,NA,NA,NA,NA,NA,NA,NA,NA,NA,NA
ff0f9,deep,flow.Sequence,3_0_0_0_4_0,NA,NA,completion,11850,408229.5,408227.8,408244.7,420094.7,420095.5,2024-03-02T07:18:31Z,420111.3,NULL,Gelegenheit,wakati,d,NA,NA,NA,NA,sdf,NA,0,NA,NA,NA,NA,NA,NA,NA,NA,NA,NA,NA,NA,NA,NA,NA,NA,NA,NA,NA
ff0f9,shallow,flow.Sequence,3_0_0_0_4_1,NA,NA,skipped,NA,420095.5999999,NA,NA,420094.7,420095.79999971,2024-03-02T07:18:31Z,420111.3,NULL,Gelegenheit,wakati,d,NA,NA,NA,NA,sdf,NA,0,NA,NA,NA,NA,NA,NA,NA,NA,NA,NA,NA,NA,NA,NA,NA,NA,NA,NA,NA
ff0f9,task,flow.Sequence,3_0_0_0_4,NA,NA,completion,11850,408229.5,408227.8,408244.7,420094.7,420095.9000001,2024-03-02T07:18:31Z,420111.3,NULL,Gelegenheit,wakati,d,NA,NA,NA,NA,sdf,NA,0,NA,NA,NA,NA,NA,NA,NA,NA,NA,NA,NA,NA,NA,NA,NA,NA,NA,NA,NA
ff0f9,deep,flow.Sequence,3_0_0_0_5_0,NA,NA,skipped,NA,420096,NA,NA,420094.7,420096.19999981,2024-03-02T07:18:31Z,420111.3,NULL,Verstand,ufahamivu,s,shakawa,hadhari,mhandisi,NA,sdf,NA,0,NA,NA,NA,NA,NA,NA,NA,NA,NA,NA,NA,NA,NA,NA,NA,NA,NA,NA,NA
ff0f9,Shallow Question,html.Page,3_0_0_0_5_1_0,NA,NA,form submission,6005.9999997139,420096.29999971,420094.7,420111.3,426117.29999971,426117.5999999,2024-03-02T07:18:37Z,426128,NULL,Verstand,ufahamivu,s,shakawa,hadhari,mhandisi,mhandisi,NA,NA,0,NA,NA,NA,NA,NA,NA,NA,NA,NA,NA,NA,NA,NA,NA,NA,NA,NA,NA,NA
ff0f9,"""Richtig""-Screen",canvas.Screen,3_0_0_0_5_1_1,NA,NA,skipped,NA,426119.19999981,NA,NA,426117.29999971,426119.4000001,2024-03-02T07:18:37Z,426128,NULL,Verstand,ufahamivu,s,shakawa,hadhari,mhandisi,NA,sdf,NA,0,NA,NA,NA,NA,NA,NA,NA,NA,NA,NA,NA,NA,NA,NA,NA,NA,NA,NA,NA
ff0f9,"""Falsch""-Screen",canvas.Screen,3_0_0_0_5_1_2,NA,NA,timeout,4999.9,426119.9000001,426111.862,426128,431111.3,431111.79999971,2024-03-02T07:18:42Z,431127.9,NULL,Verstand,ufahamivu,s,shakawa,hadhari,mhandisi,NA,sdf,0,0,NA,NA,NA,NA,NA,NA,NA,NA,NA,NA,NA,NA,NA,NA,NA,NA,NA,NA,NA
ff0f9,shallow,flow.Sequence,3_0_0_0_5_1,NA,NA,completion,11000,420096.19999981,420094.7,420111.3,431111.3,431112.19999981,2024-03-02T07:18:42Z,431127.9,NULL,Verstand,ufahamivu,s,shakawa,hadhari,mhandisi,NA,sdf,NA,0,NA,NA,NA,NA,NA,NA,NA,NA,NA,NA,NA,NA,NA,NA,NA,NA,NA,NA,NA
ff0f9,task,flow.Sequence,3_0_0_0_5,NA,NA,completion,11000,420095.9000001,420094.7,420111.3,431111.3,431112.29999971,2024-03-02T07:18:42Z,431127.9,NULL,Verstand,ufahamivu,s,shakawa,hadhari,mhandisi,NA,sdf,NA,0,NA,NA,NA,NA,NA,NA,NA,NA,NA,NA,NA,NA,NA,NA,NA,NA,NA,NA,NA
ff0f9,deep,flow.Sequence,3_0_0_0_6_0,NA,NA,skipped,NA,431112.5,NA,NA,431111.3,431112.5999999,2024-03-02T07:18:42Z,431127.9,NULL,Kontrolle,kudhibiti,s,mbinguni,kufunga,utegemezi,NA,sdf,NA,0,NA,NA,NA,NA,NA,NA,NA,NA,NA,NA,NA,NA,NA,NA,NA,NA,NA,NA,NA
ff0f9,Shallow Question,html.Page,3_0_0_0_6_1_0,NA,NA,form submission,5563.3999997139,431112.69999981,431111.3,431127.9,436691.29999971,436691.5,2024-03-02T07:18:48Z,436694.672,NULL,Kontrolle,kudhibiti,s,mbinguni,kufunga,utegemezi,kufunga,NA,NA,0,NA,NA,NA,NA,NA,NA,NA,NA,NA,NA,NA,NA,NA,NA,NA,NA,NA,NA,NA
ff0f9,"""Richtig""-Screen",canvas.Screen,3_0_0_0_6_1_1,NA,NA,skipped,NA,436693.19999981,NA,NA,436691.29999971,436693.29999971,2024-03-02T07:18:48Z,436694.672,NULL,Kontrolle,kudhibiti,s,mbinguni,kufunga,utegemezi,NA,sdf,NA,0,NA,NA,NA,NA,NA,NA,NA,NA,NA,NA,NA,NA,NA,NA,NA,NA,NA,NA,NA
ff0f9,"""Falsch""-Screen",canvas.Screen,3_0_0_0_6_1_2,NA,NA,timeout,4999.928,436693.79999971,436694.672,436694.672,441677.9,441678.5,2024-03-02T07:18:53Z,441694.6,NULL,Kontrolle,kudhibiti,s,mbinguni,kufunga,utegemezi,NA,sdf,0,0,NA,NA,NA,NA,NA,NA,NA,NA,NA,NA,NA,NA,NA,NA,NA,NA,NA,NA,NA
ff0f9,shallow,flow.Sequence,3_0_0_0_6_1,NA,NA,completion,10550,431112.69999981,431111.3,431127.9,441677.9,441678.9000001,2024-03-02T07:18:53Z,441694.6,NULL,Kontrolle,kudhibiti,s,mbinguni,kufunga,utegemezi,NA,sdf,NA,0,NA,NA,NA,NA,NA,NA,NA,NA,NA,NA,NA,NA,NA,NA,NA,NA,NA,NA,NA
ff0f9,task,flow.Sequence,3_0_0_0_6,NA,NA,completion,10550,431112.4000001,431111.3,431127.9,441677.9,441679.0999999,2024-03-02T07:18:53Z,441694.6,NULL,Kontrolle,kudhibiti,s,mbinguni,kufunga,utegemezi,NA,sdf,NA,0,NA,NA,NA,NA,NA,NA,NA,NA,NA,NA,NA,NA,NA,NA,NA,NA,NA,NA,NA
ff0f9,Deep Question,html.Page,3_0_0_0_7_0_0,NA,NA,form submission,9938.6999997139,441679.19999981,441677.9,441694.6,451633.29999971,451633.5999999,2024-03-02T07:19:03Z,451644.4,NULL,Können,unaweza,d,NA,NA,NA,zhura,NA,NA,0,NA,NA,NA,NA,NA,NA,NA,NA,NA,NA,NA,NA,NA,NA,NA,NA,NA,NA,NA
ff0f9,"""Richtig""-Screen",canvas.Screen,3_0_0_0_7_0_1,NA,NA,skipped,NA,451635.29999971,NA,NA,451633.29999971,451635.5,2024-03-02T07:19:03Z,451644.4,NULL,Können,unaweza,d,NA,NA,NA,NA,sdf,NA,0,NA,NA,NA,NA,NA,NA,NA,NA,NA,NA,NA,NA,NA,NA,NA,NA,NA,NA,NA
ff0f9,"""Falsch""-Screen",canvas.Screen,3_0_0_0_7_0_2,NA,NA,timeout,5000.2,451636.19999981,451627.98,451644.4,456627.8,456628.79999971,2024-03-02T07:19:08Z,456644.6,NULL,Können,unaweza,d,NA,NA,NA,NA,sdf,0,0,NA,NA,NA,NA,NA,NA,NA,NA,NA,NA,NA,NA,NA,NA,NA,NA,NA,NA,NA
ff0f9,deep,flow.Sequence,3_0_0_0_7_0,NA,NA,completion,14933.2,441679.19999981,441677.9,441694.6,456627.8,456629.0999999,2024-03-02T07:19:08Z,456644.6,NULL,Können,unaweza,d,NA,NA,NA,NA,sdf,NA,0,NA,NA,NA,NA,NA,NA,NA,NA,NA,NA,NA,NA,NA,NA,NA,NA,NA,NA,NA
ff0f9,shallow,flow.Sequence,3_0_0_0_7_1,NA,NA,skipped,NA,456629.19999981,NA,NA,456627.8,456629.29999971,2024-03-02T07:19:08Z,456644.6,NULL,Können,unaweza,d,NA,NA,NA,NA,sdf,NA,0,NA,NA,NA,NA,NA,NA,NA,NA,NA,NA,NA,NA,NA,NA,NA,NA,NA,NA,NA
ff0f9,task,flow.Sequence,3_0_0_0_7,NA,NA,completion,14933.2,441679.19999981,441677.9,441694.6,456627.8,456629.4000001,2024-03-02T07:19:08Z,456644.6,NULL,Können,unaweza,d,NA,NA,NA,NA,sdf,NA,0,NA,NA,NA,NA,NA,NA,NA,NA,NA,NA,NA,NA,NA,NA,NA,NA,NA,NA,NA
ff0f9,block,flow.Loop,3_0_0_0,NA,NA,completion,121433.2,335196.19999981,335192.194,335194.6,456627.8,456629.69999981,2024-03-02T07:19:08Z,456644.6,NULL,NA,NA,NA,NA,NA,NA,NA,sdf,NA,0,NA,NA,NA,NA,NA,NA,NA,NA,NA,NA,NA,NA,NA,NA,NA,NA,NA,NA,NA
ff0f9,weiter,canvas.Screen,3_0_0_1,sdf,keypress(Space),response,4216.1999997139,456629.69999981,456627.8,456644.6,460860.79999971,460861.4000001,2024-03-02T07:19:12Z,460877.874,NULL,NA,NA,NA,NA,NA,NA,NA,sdf,NA,0,NA,NA,NA,NA,NA,NA,NA,NA,NA,NA,NA,NA,NA,NA,NA,NA,NA,NA,NA
ff0f9,check continue,flow.Sequence,3_0_0,NA,NA,completion,125666.19999971,335196.0999999,335192.194,335194.6,460860.79999971,460861.5,2024-03-02T07:19:12Z,460877.874,NULL,NA,NA,NA,NA,NA,NA,NA,sdf,NA,0,NA,NA,NA,NA,NA,NA,NA,NA,NA,NA,NA,NA,NA,NA,NA,NA,NA,NA,NA
ff0f9,Deep Question,html.Page,3_0_1_0_0_0_0,NA,NA,form submission,15153.526000095,460880.69999981,460877.874,460877.874,476031.4000001,476031.5999999,2024-03-02T07:19:27Z,476044.6,NULL,Können,unaweza,d,NA,NA,NA,thibiti,NA,NA,1,NA,NA,NA,NA,NA,NA,NA,NA,NA,NA,NA,NA,NA,NA,NA,NA,NA,NA,NA
ff0f9,"""Richtig""-Screen",canvas.Screen,3_0_1_0_0_0_1,NA,NA,skipped,NA,476033.5,NA,NA,476031.4000001,476033.5,2024-03-02T07:19:27Z,476044.6,NULL,Können,unaweza,d,NA,NA,NA,NA,sdfdsf,NA,1,NA,NA,NA,NA,NA,NA,NA,NA,NA,NA,NA,NA,NA,NA,NA,NA,NA,NA,NA
ff0f9,"""Falsch""-Screen",canvas.Screen,3_0_1_0_0_0_2,NA,NA,timeout,5000,476034.19999981,476029.308,476044.6,481027.8,481028.5,2024-03-02T07:19:32Z,481044.6,NULL,Können,unaweza,d,NA,NA,NA,NA,sdfdsf,0,1,NA,NA,NA,NA,NA,NA,NA,NA,NA,NA,NA,NA,NA,NA,NA,NA,NA,NA,NA
ff0f9,deep,flow.Sequence,3_0_1_0_0_0,NA,NA,completion,20149.926,460880.5999999,460877.874,460877.874,481027.8,481028.9000001,2024-03-02T07:19:32Z,481044.6,NULL,Können,unaweza,d,NA,NA,NA,NA,sdfdsf,NA,1,NA,NA,NA,NA,NA,NA,NA,NA,NA,NA,NA,NA,NA,NA,NA,NA,NA,NA,NA
ff0f9,shallow,flow.Sequence,3_0_1_0_0_1,NA,NA,skipped,NA,481028.9000001,NA,NA,481027.8,481029,2024-03-02T07:19:32Z,481044.6,NULL,Können,unaweza,d,NA,NA,NA,NA,sdfdsf,NA,1,NA,NA,NA,NA,NA,NA,NA,NA,NA,NA,NA,NA,NA,NA,NA,NA,NA,NA,NA
ff0f9,task,flow.Sequence,3_0_1_0_0,NA,NA,completion,20149.926,460880.5999999,460877.874,460877.874,481027.8,481029.19999981,2024-03-02T07:19:32Z,481044.6,NULL,Können,unaweza,d,NA,NA,NA,NA,sdfdsf,NA,1,NA,NA,NA,NA,NA,NA,NA,NA,NA,NA,NA,NA,NA,NA,NA,NA,NA,NA,NA
ff0f9,Deep Question,html.Page,3_0_1_0_1_0_0,NA,NA,form submission,39510.699999714,481029.29999971,481027.8,481044.6,520555.29999971,520555.5,2024-03-02T07:20:12Z,520561.1,NULL,Ausschluss,kutengwa,d,NA,NA,NA,guhiti,NA,NA,1,NA,NA,NA,NA,NA,NA,NA,NA,NA,NA,NA,NA,NA,NA,NA,NA,NA,NA,NA
ff0f9,"""Richtig""-Screen",canvas.Screen,3_0_1_0_1_0_1,NA,NA,skipped,NA,520557.4000001,NA,NA,520555.29999971,520557.5999999,2024-03-02T07:20:12Z,520561.1,NULL,Ausschluss,kutengwa,d,NA,NA,NA,NA,sdfdsf,NA,1,NA,NA,NA,NA,NA,NA,NA,NA,NA,NA,NA,NA,NA,NA,NA,NA,NA,NA,NA
ff0f9,"""Falsch""-Screen",canvas.Screen,3_0_1_0_1_0_2,NA,NA,timeout,5000.1,520558.0999999,520544.562,520561.1,525544.5,525545.29999971,2024-03-02T07:20:17Z,525561.2,NULL,Ausschluss,kutengwa,d,NA,NA,NA,NA,sdfdsf,0,1,NA,NA,NA,NA,NA,NA,NA,NA,NA,NA,NA,NA,NA,NA,NA,NA,NA,NA,NA
ff0f9,deep,flow.Sequence,3_0_1_0_1_0,NA,NA,completion,44499.9,481029.29999971,481027.8,481044.6,525544.5,525545.5999999,2024-03-02T07:20:17Z,525561.2,NULL,Ausschluss,kutengwa,d,NA,NA,NA,NA,sdfdsf,NA,1,NA,NA,NA,NA,NA,NA,NA,NA,NA,NA,NA,NA,NA,NA,NA,NA,NA,NA,NA
ff0f9,shallow,flow.Sequence,3_0_1_0_1_1,NA,NA,skipped,NA,525545.69999981,NA,NA,525544.5,525545.79999971,2024-03-02T07:20:17Z,525561.2,NULL,Ausschluss,kutengwa,d,NA,NA,NA,NA,sdfdsf,NA,1,NA,NA,NA,NA,NA,NA,NA,NA,NA,NA,NA,NA,NA,NA,NA,NA,NA,NA,NA
ff0f9,task,flow.Sequence,3_0_1_0_1,NA,NA,completion,44499.9,481029.29999971,481027.8,481044.6,525544.5,525545.9000001,2024-03-02T07:20:17Z,525561.2,NULL,Ausschluss,kutengwa,d,NA,NA,NA,NA,sdfdsf,NA,1,NA,NA,NA,NA,NA,NA,NA,NA,NA,NA,NA,NA,NA,NA,NA,NA,NA,NA,NA
ff0f9,Deep Question,html.Page,3_0_1_0_2_0_0,NA,NA,form submission,32881.899999905,525546.0999999,525544.5,525561.2,558443.0999999,558443.4000001,2024-03-02T07:20:50Z,558444.728,NULL,Gelegenheit,wakati,d,NA,NA,NA,turaiti,NA,NA,1,NA,NA,NA,NA,NA,NA,NA,NA,NA,NA,NA,NA,NA,NA,NA,NA,NA,NA,NA
ff0f9,"""Richtig""-Screen",canvas.Screen,3_0_1_0_2_0_1,NA,NA,skipped,NA,558445,NA,NA,558443.0999999,558445.19999981,2024-03-02T07:20:50Z,558444.728,NULL,Gelegenheit,wakati,d,NA,NA,NA,NA,sdfdsf,NA,1,NA,NA,NA,NA,NA,NA,NA,NA,NA,NA,NA,NA,NA,NA,NA,NA,NA,NA,NA
ff0f9,"""Falsch""-Screen",canvas.Screen,3_0_1_0_2_0_2,NA,NA,timeout,4999.872,558445.69999981,558444.728,558444.728,563427.8,563428.4000001,2024-03-02T07:20:54Z,563444.6,NULL,Gelegenheit,wakati,d,NA,NA,NA,NA,sdfdsf,0,1,NA,NA,NA,NA,NA,NA,NA,NA,NA,NA,NA,NA,NA,NA,NA,NA,NA,NA,NA
ff0f9,deep,flow.Sequence,3_0_1_0_2_0,NA,NA,completion,37866.6,525546,525544.5,525561.2,563427.8,563428.79999971,2024-03-02T07:20:54Z,563444.6,NULL,Gelegenheit,wakati,d,NA,NA,NA,NA,sdfdsf,NA,1,NA,NA,NA,NA,NA,NA,NA,NA,NA,NA,NA,NA,NA,NA,NA,NA,NA,NA,NA
ff0f9,shallow,flow.Sequence,3_0_1_0_2_1,NA,NA,skipped,NA,563429,NA,NA,563427.8,563429.0999999,2024-03-02T07:20:54Z,563444.6,NULL,Gelegenheit,wakati,d,NA,NA,NA,NA,sdfdsf,NA,1,NA,NA,NA,NA,NA,NA,NA,NA,NA,NA,NA,NA,NA,NA,NA,NA,NA,NA,NA
ff0f9,task,flow.Sequence,3_0_1_0_2,NA,NA,completion,37866.6,525546,525544.5,525561.2,563427.8,563429.29999971,2024-03-02T07:20:54Z,563444.6,NULL,Gelegenheit,wakati,d,NA,NA,NA,NA,sdfdsf,NA,1,NA,NA,NA,NA,NA,NA,NA,NA,NA,NA,NA,NA,NA,NA,NA,NA,NA,NA,NA
ff0f9,Deep Question,html.Page,3_0_1_0_3_0_0,NA,NA,form submission,51370.9,563429.4000001,563427.8,563444.6,614815.5,614815.69999981,2024-03-02T07:21:46Z,614827.6,NULL,Kreativität,ubunifu,d,NA,NA,NA,tuaheti,NA,NA,1,NA,NA,NA,NA,NA,NA,NA,NA,NA,NA,NA,NA,NA,NA,NA,NA,NA,NA,NA
ff0f9,"""Richtig""-Screen",canvas.Screen,3_0_1_0_3_0_1,NA,NA,skipped,NA,614817.5,NA,NA,614815.5,614817.5999999,2024-03-02T07:21:46Z,614827.6,NULL,Kreativität,ubunifu,d,NA,NA,NA,NA,sdfdsf,NA,1,NA,NA,NA,NA,NA,NA,NA,NA,NA,NA,NA,NA,NA,NA,NA,NA,NA,NA,NA
ff0f9,"""Falsch""-Screen",canvas.Screen,3_0_1_0_3_0_2,NA,NA,timeout,5000.2000000001,614818.19999981,614811.074,614827.6,619811.1,619811.5999999,2024-03-02T07:21:51Z,619827.8,NULL,Kreativität,ubunifu,d,NA,NA,NA,NA,sdfdsf,0,1,NA,NA,NA,NA,NA,NA,NA,NA,NA,NA,NA,NA,NA,NA,NA,NA,NA,NA,NA
ff0f9,deep,flow.Sequence,3_0_1_0_3_0,NA,NA,completion,56366.5,563429.4000001,563427.8,563444.6,619811.1,619812,2024-03-02T07:21:51Z,619827.8,NULL,Kreativität,ubunifu,d,NA,NA,NA,NA,sdfdsf,NA,1,NA,NA,NA,NA,NA,NA,NA,NA,NA,NA,NA,NA,NA,NA,NA,NA,NA,NA,NA
ff0f9,shallow,flow.Sequence,3_0_1_0_3_1,NA,NA,skipped,NA,619812.19999981,NA,NA,619811.1,619812.19999981,2024-03-02T07:21:51Z,619827.8,NULL,Kreativität,ubunifu,d,NA,NA,NA,NA,sdfdsf,NA,1,NA,NA,NA,NA,NA,NA,NA,NA,NA,NA,NA,NA,NA,NA,NA,NA,NA,NA,NA
ff0f9,task,flow.Sequence,3_0_1_0_3,NA,NA,completion,56366.5,563429.4000001,563427.8,563444.6,619811.1,619812.4000001,2024-03-02T07:21:51Z,619827.8,NULL,Kreativität,ubunifu,d,NA,NA,NA,NA,sdfdsf,NA,1,NA,NA,NA,NA,NA,NA,NA,NA,NA,NA,NA,NA,NA,NA,NA,NA,NA,NA,NA
ff0f9,deep,flow.Sequence,3_0_1_0_4_0,NA,NA,skipped,NA,619812.5,NA,NA,619811.1,619812.5999999,2024-03-02T07:21:51Z,619827.8,NULL,Gefährdung,kuhatarisha,s,uchokozi,udhaifu,makorowezo,NA,sdfdsf,NA,1,NA,NA,NA,NA,NA,NA,NA,NA,NA,NA,NA,NA,NA,NA,NA,NA,NA,NA,NA
ff0f9,Shallow Question,html.Page,3_0_1_0_4_1_0,NA,NA,form submission,24227.2,619812.69999981,619811.1,619827.8,644055,644055.19999981,2024-03-02T07:22:15Z,644060.9,NULL,Gefährdung,kuhatarisha,s,uchokozi,udhaifu,makorowezo,uchokozi,NA,NA,1,NA,NA,NA,NA,NA,NA,NA,NA,NA,NA,NA,NA,NA,NA,NA,NA,NA,NA,NA
ff0f9,"""Richtig""-Screen",canvas.Screen,3_0_1_0_4_1_1,NA,NA,skipped,NA,644056.9000001,NA,NA,644055,644057,2024-03-02T07:22:15Z,644060.9,NULL,Gefährdung,kuhatarisha,s,uchokozi,udhaifu,makorowezo,NA,sdfdsf,NA,1,NA,NA,NA,NA,NA,NA,NA,NA,NA,NA,NA,NA,NA,NA,NA,NA,NA,NA,NA
ff0f9,"""Falsch""-Screen",canvas.Screen,3_0_1_0_4_1_2,NA,NA,timeout,5000.1,644057.5999999,644044.474,644060.9,649044.4,649045.19999981,2024-03-02T07:22:20Z,649061,NULL,Gefährdung,kuhatarisha,s,uchokozi,udhaifu,makorowezo,NA,sdfdsf,0,1,NA,NA,NA,NA,NA,NA,NA,NA,NA,NA,NA,NA,NA,NA,NA,NA,NA,NA,NA
ff0f9,shallow,flow.Sequence,3_0_1_0_4_1,NA,NA,completion,29216.6,619812.69999981,619811.1,619827.8,649044.4,649045.5999999,2024-03-02T07:22:20Z,649061,NULL,Gefährdung,kuhatarisha,s,uchokozi,udhaifu,makorowezo,NA,sdfdsf,NA,1,NA,NA,NA,NA,NA,NA,NA,NA,NA,NA,NA,NA,NA,NA,NA,NA,NA,NA,NA
ff0f9,task,flow.Sequence,3_0_1_0_4,NA,NA,completion,29216.6,619812.5,619811.1,619827.8,649044.4,649045.69999981,2024-03-02T07:22:20Z,649061,NULL,Gefährdung,kuhatarisha,s,uchokozi,udhaifu,makorowezo,NA,sdfdsf,NA,1,NA,NA,NA,NA,NA,NA,NA,NA,NA,NA,NA,NA,NA,NA,NA,NA,NA,NA,NA
ff0f9,deep,flow.Sequence,3_0_1_0_5_0,NA,NA,skipped,NA,649045.79999971,NA,NA,649044.4,649045.9000001,2024-03-02T07:22:20Z,649061,NULL,Verstand,ufahamivu,s,shakawa,hadhari,mhandisi,NA,sdfdsf,NA,1,NA,NA,NA,NA,NA,NA,NA,NA,NA,NA,NA,NA,NA,NA,NA,NA,NA,NA,NA
ff0f9,Shallow Question,html.Page,3_0_1_0_5_1_0,NA,NA,form submission,6410,649046.0999999,649044.4,649061,655471,655471.19999981,2024-03-02T07:22:27Z,655477.786,NULL,Verstand,ufahamivu,s,shakawa,hadhari,mhandisi,mhandisi,NA,NA,1,NA,NA,NA,NA,NA,NA,NA,NA,NA,NA,NA,NA,NA,NA,NA,NA,NA,NA,NA
ff0f9,"""Richtig""-Screen",canvas.Screen,3_0_1_0_5_1_1,NA,NA,skipped,NA,655473.9000001,NA,NA,655471,655474.0999999,2024-03-02T07:22:27Z,655477.786,NULL,Verstand,ufahamivu,s,shakawa,hadhari,mhandisi,NA,sdfdsf,NA,1,NA,NA,NA,NA,NA,NA,NA,NA,NA,NA,NA,NA,NA,NA,NA,NA,NA,NA,NA
ff0f9,"""Falsch""-Screen",canvas.Screen,3_0_1_0_5_1_2,NA,NA,timeout,5000.0140000001,655475,655477.786,655477.786,660461,660461.69999981,2024-03-02T07:22:32Z,660477.8,NULL,Verstand,ufahamivu,s,shakawa,hadhari,mhandisi,NA,sdfdsf,0,1,NA,NA,NA,NA,NA,NA,NA,NA,NA,NA,NA,NA,NA,NA,NA,NA,NA,NA,NA
ff0f9,shallow,flow.Sequence,3_0_1_0_5_1,NA,NA,completion,11400,649046,649044.4,649061,660461,660462.0999999,2024-03-02T07:22:32Z,660477.8,NULL,Verstand,ufahamivu,s,shakawa,hadhari,mhandisi,NA,sdfdsf,NA,1,NA,NA,NA,NA,NA,NA,NA,NA,NA,NA,NA,NA,NA,NA,NA,NA,NA,NA,NA
ff0f9,task,flow.Sequence,3_0_1_0_5,NA,NA,completion,11400,649045.79999971,649044.4,649061,660461,660462.29999971,2024-03-02T07:22:32Z,660477.8,NULL,Verstand,ufahamivu,s,shakawa,hadhari,mhandisi,NA,sdfdsf,NA,1,NA,NA,NA,NA,NA,NA,NA,NA,NA,NA,NA,NA,NA,NA,NA,NA,NA,NA,NA
ff0f9,deep,flow.Sequence,3_0_1_0_6_0,NA,NA,skipped,NA,660462.5,NA,NA,660461,660462.5,2024-03-02T07:22:32Z,660477.8,NULL,Widerstand,usulubu,s,kusababisha,mwalimu,mwenendo,NA,sdfdsf,NA,1,NA,NA,NA,NA,NA,NA,NA,NA,NA,NA,NA,NA,NA,NA,NA,NA,NA,NA,NA
ff0f9,Shallow Question,html.Page,3_0_1_0_6_1_0,NA,NA,form submission,9102.1000000953,660462.5999999,660461,660477.8,669579.9000001,669580,2024-03-02T07:22:41Z,669594.4,NULL,Widerstand,usulubu,s,kusababisha,mwalimu,mwenendo,usulubu,NA,NA,1,NA,NA,NA,NA,NA,NA,NA,NA,NA,NA,NA,NA,NA,NA,NA,NA,NA,NA,NA
ff0f9,"""Richtig""-Screen",canvas.Screen,3_0_1_0_6_1_1,NA,NA,timeout,5000,669581.79999971,669577.802,669594.4,674577.6,674578.4000001,2024-03-02T07:22:46Z,674594.4,NULL,Widerstand,usulubu,s,kusababisha,mwalimu,mwenendo,NA,sdfdsf,1,1,NA,NA,NA,NA,NA,NA,NA,NA,NA,NA,NA,NA,NA,NA,NA,NA,NA,NA,NA
ff0f9,"""Falsch""-Screen",canvas.Screen,3_0_1_0_6_1_2,NA,NA,skipped,NA,674582.5,NA,NA,674577.6,674582.69999981,2024-03-02T07:22:46Z,674594.4,NULL,Widerstand,usulubu,s,kusababisha,mwalimu,mwenendo,NA,sdfdsf,NA,1,NA,NA,NA,NA,NA,NA,NA,NA,NA,NA,NA,NA,NA,NA,NA,NA,NA,NA,NA
ff0f9,shallow,flow.Sequence,3_0_1_0_6_1,NA,NA,completion,14099.8,660462.5999999,660461,660477.8,674577.6,674582.9000001,2024-03-02T07:22:46Z,674594.4,NULL,Widerstand,usulubu,s,kusababisha,mwalimu,mwenendo,NA,sdfdsf,NA,1,NA,NA,NA,NA,NA,NA,NA,NA,NA,NA,NA,NA,NA,NA,NA,NA,NA,NA,NA
ff0f9,task,flow.Sequence,3_0_1_0_6,NA,NA,completion,14099.8,660462.29999971,660461,660477.8,674577.6,674583,2024-03-02T07:22:46Z,674594.4,NULL,Widerstand,usulubu,s,kusababisha,mwalimu,mwenendo,NA,sdfdsf,NA,1,NA,NA,NA,NA,NA,NA,NA,NA,NA,NA,NA,NA,NA,NA,NA,NA,NA,NA,NA
ff0f9,deep,flow.Sequence,3_0_1_0_7_0,NA,NA,skipped,NA,674583.19999981,NA,NA,674577.6,674583.19999981,2024-03-02T07:22:46Z,674594.4,NULL,Kontrolle,kudhibiti,s,mbinguni,kufunga,utegemezi,NA,sdfdsf,NA,1,NA,NA,NA,NA,NA,NA,NA,NA,NA,NA,NA,NA,NA,NA,NA,NA,NA,NA,NA
ff0f9,Shallow Question,html.Page,3_0_1_0_7_1_0,NA,NA,form submission,13825.399999714,674583.4000001,674577.6,674594.4,688419.79999971,688420,2024-03-02T07:22:59Z,688427.5,NULL,Kontrolle,kudhibiti,s,mbinguni,kufunga,utegemezi,kudhibiti,NA,NA,1,NA,NA,NA,NA,NA,NA,NA,NA,NA,NA,NA,NA,NA,NA,NA,NA,NA,NA,NA
ff0f9,"""Richtig""-Screen",canvas.Screen,3_0_1_0_7_1_1,NA,NA,timeout,5000.1,688421.69999981,688411.164,688427.5,693411,693411.79999971,2024-03-02T07:23:04Z,693427.6,NULL,Kontrolle,kudhibiti,s,mbinguni,kufunga,utegemezi,NA,sdfdsf,1,1,NA,NA,NA,NA,NA,NA,NA,NA,NA,NA,NA,NA,NA,NA,NA,NA,NA,NA,NA
ff0f9,"""Falsch""-Screen",canvas.Screen,3_0_1_0_7_1_2,NA,NA,skipped,NA,693415.79999971,NA,NA,693411,693416,2024-03-02T07:23:04Z,693427.6,NULL,Kontrolle,kudhibiti,s,mbinguni,kufunga,utegemezi,NA,sdfdsf,NA,1,NA,NA,NA,NA,NA,NA,NA,NA,NA,NA,NA,NA,NA,NA,NA,NA,NA,NA,NA
ff0f9,shallow,flow.Sequence,3_0_1_0_7_1,NA,NA,completion,18816.6,674583.4000001,674577.6,674594.4,693411,693416.19999981,2024-03-02T07:23:04Z,693427.6,NULL,Kontrolle,kudhibiti,s,mbinguni,kufunga,utegemezi,NA,sdfdsf,NA,1,NA,NA,NA,NA,NA,NA,NA,NA,NA,NA,NA,NA,NA,NA,NA,NA,NA,NA,NA
ff0f9,task,flow.Sequence,3_0_1_0_7,NA,NA,completion,18816.6,674583.0999999,674577.6,674594.4,693411,693416.4000001,2024-03-02T07:23:04Z,693427.6,NULL,Kontrolle,kudhibiti,s,mbinguni,kufunga,utegemezi,NA,sdfdsf,NA,1,NA,NA,NA,NA,NA,NA,NA,NA,NA,NA,NA,NA,NA,NA,NA,NA,NA,NA,NA
ff0f9,block,flow.Loop,3_0_1_0,NA,NA,completion,232533.126,460880.5999999,460877.874,460877.874,693411,693416.5999999,2024-03-02T07:23:04Z,693427.6,NULL,NA,NA,NA,NA,NA,NA,NA,sdfdsf,NA,1,NA,NA,NA,NA,NA,NA,NA,NA,NA,NA,NA,NA,NA,NA,NA,NA,NA,NA,NA
ff0f9,weiter,canvas.Screen,3_0_1_1,sdf,keypress(Space),response,1845.4999999047,693416.69999981,693411,693427.6,695273.0999999,695273.9000001,2024-03-02T07:23:06Z,695311.04,NULL,NA,NA,NA,NA,NA,NA,NA,sdfdsf,NA,1,NA,NA,NA,NA,NA,NA,NA,NA,NA,NA,NA,NA,NA,NA,NA,NA,NA,NA,NA
ff0f9,check continue,flow.Sequence,3_0_1,NA,NA,completion,234395.2259999,460880.5999999,460877.874,460877.874,695273.0999999,695274.19999981,2024-03-02T07:23:06Z,695311.04,NULL,NA,NA,NA,NA,NA,NA,NA,sdfdsf,NA,1,NA,NA,NA,NA,NA,NA,NA,NA,NA,NA,NA,NA,NA,NA,NA,NA,NA,NA,NA
ff0f9,deep,flow.Sequence,3_0_2_0_0_0,NA,NA,skipped,NA,695315.29999971,NA,NA,695273.0999999,695315.5,2024-03-02T07:23:06Z,695311.04,NULL,Widerstand,usulubu,s,kusababisha,mwalimu,mwenendo,NA,sdf,NA,2,NA,NA,NA,NA,NA,NA,NA,NA,NA,NA,NA,NA,NA,NA,NA,NA,NA,NA,NA
ff0f9,Shallow Question,html.Page,3_0_2_0_0_1_0,NA,NA,form submission,9485.7599997139,695315.69999981,695311.04,695311.04,704796.79999971,704797.0999999,2024-03-02T07:23:16Z,704810.9,NULL,Widerstand,usulubu,s,kusababisha,mwalimu,mwenendo,kusababisha,NA,NA,2,NA,NA,NA,NA,NA,NA,NA,NA,NA,NA,NA,NA,NA,NA,NA,NA,NA,NA,NA
ff0f9,"""Richtig""-Screen",canvas.Screen,3_0_2_0_0_1_1,NA,NA,skipped,NA,704798.79999971,NA,NA,704796.79999971,704799,2024-03-02T07:23:16Z,704810.9,NULL,Widerstand,usulubu,s,kusababisha,mwalimu,mwenendo,NA,sdf,NA,2,NA,NA,NA,NA,NA,NA,NA,NA,NA,NA,NA,NA,NA,NA,NA,NA,NA,NA,NA
ff0f9,"""Falsch""-Screen",canvas.Screen,3_0_2_0_0_1_2,NA,NA,timeout,5000.2,704799.5999999,704794.396,704810.9,709794.2,709795.0999999,2024-03-02T07:23:21Z,709811.1,NULL,Widerstand,usulubu,s,kusababisha,mwalimu,mwenendo,NA,sdf,0,2,NA,NA,NA,NA,NA,NA,NA,NA,NA,NA,NA,NA,NA,NA,NA,NA,NA,NA,NA
ff0f9,shallow,flow.Sequence,3_0_2_0_0_1,NA,NA,completion,14483.16,695315.69999981,695311.04,695311.04,709794.2,709795.5,2024-03-02T07:23:21Z,709811.1,NULL,Widerstand,usulubu,s,kusababisha,mwalimu,mwenendo,NA,sdf,NA,2,NA,NA,NA,NA,NA,NA,NA,NA,NA,NA,NA,NA,NA,NA,NA,NA,NA,NA,NA
ff0f9,task,flow.Sequence,3_0_2_0_0,NA,NA,completion,14483.16,695315.29999971,695311.04,695311.04,709794.2,709795.5999999,2024-03-02T07:23:21Z,709811.1,NULL,Widerstand,usulubu,s,kusababisha,mwalimu,mwenendo,NA,sdf,NA,2,NA,NA,NA,NA,NA,NA,NA,NA,NA,NA,NA,NA,NA,NA,NA,NA,NA,NA,NA
ff0f9,deep,flow.Sequence,3_0_2_0_1_0,NA,NA,skipped,NA,709795.79999971,NA,NA,709794.2,709795.9000001,2024-03-02T07:23:21Z,709811.1,NULL,Gefährdung,kuhatarisha,s,uchokozi,udhaifu,makorowezo,NA,sdf,NA,2,NA,NA,NA,NA,NA,NA,NA,NA,NA,NA,NA,NA,NA,NA,NA,NA,NA,NA,NA
ff0f9,Shallow Question,html.Page,3_0_2_0_1_1_0,NA,NA,form submission,14589.699999714,709796,709794.2,709811.1,724400.79999971,724401.0999999,2024-03-02T07:23:35Z,724410.9,NULL,Gefährdung,kuhatarisha,s,uchokozi,udhaifu,makorowezo,makorowezo,NA,NA,2,NA,NA,NA,NA,NA,NA,NA,NA,NA,NA,NA,NA,NA,NA,NA,NA,NA,NA,NA
ff0f9,"""Richtig""-Screen",canvas.Screen,3_0_2_0_1_1_1,NA,NA,skipped,NA,724402.9000001,NA,NA,724400.79999971,724403,2024-03-02T07:23:35Z,724410.9,NULL,Gefährdung,kuhatarisha,s,uchokozi,udhaifu,makorowezo,NA,sdf,NA,2,NA,NA,NA,NA,NA,NA,NA,NA,NA,NA,NA,NA,NA,NA,NA,NA,NA,NA,NA
ff0f9,"""Falsch""-Screen",canvas.Screen,3_0_2_0_1_1_2,NA,NA,timeout,5000,724403.5999999,724394.368,724410.9,729394.3,729395.0999999,2024-03-02T07:23:40Z,729410.9,NULL,Gefährdung,kuhatarisha,s,uchokozi,udhaifu,makorowezo,NA,sdf,0,2,NA,NA,NA,NA,NA,NA,NA,NA,NA,NA,NA,NA,NA,NA,NA,NA,NA,NA,NA
ff0f9,shallow,flow.Sequence,3_0_2_0_1_1,NA,NA,completion,19583.2,709795.9000001,709794.2,709811.1,729394.3,729395.4000001,2024-03-02T07:23:40Z,729410.9,NULL,Gefährdung,kuhatarisha,s,uchokozi,udhaifu,makorowezo,NA,sdf,NA,2,NA,NA,NA,NA,NA,NA,NA,NA,NA,NA,NA,NA,NA,NA,NA,NA,NA,NA,NA
ff0f9,task,flow.Sequence,3_0_2_0_1,NA,NA,completion,19583.2,709795.79999971,709794.2,709811.1,729394.3,729395.5,2024-03-02T07:23:40Z,729410.9,NULL,Gefährdung,kuhatarisha,s,uchokozi,udhaifu,makorowezo,NA,sdf,NA,2,NA,NA,NA,NA,NA,NA,NA,NA,NA,NA,NA,NA,NA,NA,NA,NA,NA,NA,NA
ff0f9,deep,flow.Sequence,3_0_2_0_2_0,NA,NA,skipped,NA,729395.69999981,NA,NA,729394.3,729395.79999971,2024-03-02T07:23:40Z,729410.9,NULL,Verstand,ufahamivu,s,shakawa,hadhari,mhandisi,NA,sdf,NA,2,NA,NA,NA,NA,NA,NA,NA,NA,NA,NA,NA,NA,NA,NA,NA,NA,NA,NA,NA
ff0f9,Shallow Question,html.Page,3_0_2_0_2_1_0,NA,NA,form submission,6337.8999997139,729395.9000001,729394.3,729410.9,735748.79999971,735749,2024-03-02T07:23:47Z,735761,NULL,Verstand,ufahamivu,s,shakawa,hadhari,mhandisi,mhandisi,NA,NA,2,NA,NA,NA,NA,NA,NA,NA,NA,NA,NA,NA,NA,NA,NA,NA,NA,NA,NA,NA
ff0f9,"""Richtig""-Screen",canvas.Screen,3_0_2_0_2_1_1,NA,NA,skipped,NA,735750.79999971,NA,NA,735748.79999971,735750.9000001,2024-03-02T07:23:47Z,735761,NULL,Verstand,ufahamivu,s,shakawa,hadhari,mhandisi,NA,sdf,NA,2,NA,NA,NA,NA,NA,NA,NA,NA,NA,NA,NA,NA,NA,NA,NA,NA,NA,NA,NA
ff0f9,"""Falsch""-Screen",canvas.Screen,3_0_2_0_2_1_2,NA,NA,timeout,4999.9,735751.4000001,735744.4,735761,740744.3,740745,2024-03-02T07:23:52Z,740760.9,NULL,Verstand,ufahamivu,s,shakawa,hadhari,mhandisi,NA,sdf,0,2,NA,NA,NA,NA,NA,NA,NA,NA,NA,NA,NA,NA,NA,NA,NA,NA,NA,NA,NA
ff0f9,shallow,flow.Sequence,3_0_2_0_2_1,NA,NA,completion,11333.4,729395.9000001,729394.3,729410.9,740744.3,740745.4000001,2024-03-02T07:23:52Z,740760.9,NULL,Verstand,ufahamivu,s,shakawa,hadhari,mhandisi,NA,sdf,NA,2,NA,NA,NA,NA,NA,NA,NA,NA,NA,NA,NA,NA,NA,NA,NA,NA,NA,NA,NA
ff0f9,task,flow.Sequence,3_0_2_0_2,NA,NA,completion,11333.4,729395.69999981,729394.3,729410.9,740744.3,740745.5,2024-03-02T07:23:52Z,740760.9,NULL,Verstand,ufahamivu,s,shakawa,hadhari,mhandisi,NA,sdf,NA,2,NA,NA,NA,NA,NA,NA,NA,NA,NA,NA,NA,NA,NA,NA,NA,NA,NA,NA,NA
ff0f9,Deep Question,html.Page,3_0_2_0_3_0_0,NA,NA,form submission,7441.1,740745.5999999,740744.3,740760.9,748202,748202.0999999,2024-03-02T07:23:59Z,748211,NULL,Kreativität,ubunifu,d,NA,NA,NA,zeta,NA,NA,2,NA,NA,NA,NA,NA,NA,NA,NA,NA,NA,NA,NA,NA,NA,NA,NA,NA,NA,NA
ff0f9,"""Richtig""-Screen",canvas.Screen,3_0_2_0_3_0_1,NA,NA,skipped,NA,748203.79999971,NA,NA,748202,748204,2024-03-02T07:23:59Z,748211,NULL,Kreativität,ubunifu,d,NA,NA,NA,NA,sdf,NA,2,NA,NA,NA,NA,NA,NA,NA,NA,NA,NA,NA,NA,NA,NA,NA,NA,NA,NA,NA
ff0f9,"""Falsch""-Screen",canvas.Screen,3_0_2_0_3_0_2,NA,NA,timeout,5000,748204.5,748194.354,748211,753194.3,753195.0999999,2024-03-02T07:24:04Z,753211,NULL,Kreativität,ubunifu,d,NA,NA,NA,NA,sdf,0,2,NA,NA,NA,NA,NA,NA,NA,NA,NA,NA,NA,NA,NA,NA,NA,NA,NA,NA,NA
ff0f9,deep,flow.Sequence,3_0_2_0_3_0,NA,NA,completion,12433.4,740745.5999999,740744.3,740760.9,753194.3,753195.4000001,2024-03-02T07:24:04Z,753211,NULL,Kreativität,ubunifu,d,NA,NA,NA,NA,sdf,NA,2,NA,NA,NA,NA,NA,NA,NA,NA,NA,NA,NA,NA,NA,NA,NA,NA,NA,NA,NA
ff0f9,shallow,flow.Sequence,3_0_2_0_3_1,NA,NA,skipped,NA,753195.5,NA,NA,753194.3,753195.5999999,2024-03-02T07:24:04Z,753211,NULL,Kreativität,ubunifu,d,NA,NA,NA,NA,sdf,NA,2,NA,NA,NA,NA,NA,NA,NA,NA,NA,NA,NA,NA,NA,NA,NA,NA,NA,NA,NA
ff0f9,task,flow.Sequence,3_0_2_0_3,NA,NA,completion,12433.4,740745.5999999,740744.3,740760.9,753194.3,753195.79999971,2024-03-02T07:24:04Z,753211,NULL,Kreativität,ubunifu,d,NA,NA,NA,NA,sdf,NA,2,NA,NA,NA,NA,NA,NA,NA,NA,NA,NA,NA,NA,NA,NA,NA,NA,NA,NA,NA
ff0f9,Deep Question,html.Page,3_0_2_0_4_0_0,NA,NA,form submission,14610,753196,753194.3,753211,767821,767821.19999981,2024-03-02T07:24:19Z,767827.5,NULL,Gelegenheit,wakati,d,NA,NA,NA,tubrifi,NA,NA,2,NA,NA,NA,NA,NA,NA,NA,NA,NA,NA,NA,NA,NA,NA,NA,NA,NA,NA,NA
ff0f9,"""Richtig""-Screen",canvas.Screen,3_0_2_0_4_0_1,NA,NA,skipped,NA,767822.79999971,NA,NA,767821,767823,2024-03-02T07:24:19Z,767827.5,NULL,Gelegenheit,wakati,d,NA,NA,NA,NA,sdf,NA,2,NA,NA,NA,NA,NA,NA,NA,NA,NA,NA,NA,NA,NA,NA,NA,NA,NA,NA,NA
ff0f9,"""Falsch""-Screen",canvas.Screen,3_0_2_0_4_0_2,NA,NA,timeout,5000,767823.5999999,767810.992,767827.5,772810.9,772811.5999999,2024-03-02T07:24:24Z,772827.5,NULL,Gelegenheit,wakati,d,NA,NA,NA,NA,sdf,0,2,NA,NA,NA,NA,NA,NA,NA,NA,NA,NA,NA,NA,NA,NA,NA,NA,NA,NA,NA
ff0f9,deep,flow.Sequence,3_0_2_0_4_0,NA,NA,completion,19599.9,753195.9000001,753194.3,753211,772810.9,772812,2024-03-02T07:24:24Z,772827.5,NULL,Gelegenheit,wakati,d,NA,NA,NA,NA,sdf,NA,2,NA,NA,NA,NA,NA,NA,NA,NA,NA,NA,NA,NA,NA,NA,NA,NA,NA,NA,NA
ff0f9,shallow,flow.Sequence,3_0_2_0_4_1,NA,NA,skipped,NA,772812.0999999,NA,NA,772810.9,772812.19999981,2024-03-02T07:24:24Z,772827.5,NULL,Gelegenheit,wakati,d,NA,NA,NA,NA,sdf,NA,2,NA,NA,NA,NA,NA,NA,NA,NA,NA,NA,NA,NA,NA,NA,NA,NA,NA,NA,NA
ff0f9,task,flow.Sequence,3_0_2_0_4,NA,NA,completion,19599.9,753195.79999971,753194.3,753211,772810.9,772812.4000001,2024-03-02T07:24:24Z,772827.5,NULL,Gelegenheit,wakati,d,NA,NA,NA,NA,sdf,NA,2,NA,NA,NA,NA,NA,NA,NA,NA,NA,NA,NA,NA,NA,NA,NA,NA,NA,NA,NA
ff0f9,deep,flow.Sequence,3_0_2_0_5_0,NA,NA,skipped,NA,772812.5,NA,NA,772810.9,772812.5999999,2024-03-02T07:24:24Z,772827.5,NULL,Kontrolle,kudhibiti,s,mbinguni,kufunga,utegemezi,NA,sdf,NA,2,NA,NA,NA,NA,NA,NA,NA,NA,NA,NA,NA,NA,NA,NA,NA,NA,NA,NA,NA
ff0f9,Shallow Question,html.Page,3_0_2_0_5_1_0,NA,NA,form submission,9279,772812.69999981,772810.9,772827.5,782106.5,782106.79999971,2024-03-02T07:24:33Z,782127.4,NULL,Kontrolle,kudhibiti,s,mbinguni,kufunga,utegemezi,kufunga,NA,NA,2,NA,NA,NA,NA,NA,NA,NA,NA,NA,NA,NA,NA,NA,NA,NA,NA,NA,NA,NA
ff0f9,"""Richtig""-Screen",canvas.Screen,3_0_2_0_5_1_1,NA,NA,skipped,NA,782108.5999999,NA,NA,782106.5,782108.69999981,2024-03-02T07:24:33Z,782127.4,NULL,Kontrolle,kudhibiti,s,mbinguni,kufunga,utegemezi,NA,sdf,NA,2,NA,NA,NA,NA,NA,NA,NA,NA,NA,NA,NA,NA,NA,NA,NA,NA,NA,NA,NA
ff0f9,"""Falsch""-Screen",canvas.Screen,3_0_2_0_5_1_2,NA,NA,timeout,5000.1,782109.4000001,782110.978,782127.4,787110.9,787111.79999971,2024-03-02T07:24:38Z,787127.5,NULL,Kontrolle,kudhibiti,s,mbinguni,kufunga,utegemezi,NA,sdf,0,2,NA,NA,NA,NA,NA,NA,NA,NA,NA,NA,NA,NA,NA,NA,NA,NA,NA,NA,NA
ff0f9,shallow,flow.Sequence,3_0_2_0_5_1,NA,NA,completion,14283.4,772812.5999999,772810.9,772827.5,787110.9,787112,2024-03-02T07:24:38Z,787127.5,NULL,Kontrolle,kudhibiti,s,mbinguni,kufunga,utegemezi,NA,sdf,NA,2,NA,NA,NA,NA,NA,NA,NA,NA,NA,NA,NA,NA,NA,NA,NA,NA,NA,NA,NA
ff0f9,task,flow.Sequence,3_0_2_0_5,NA,NA,completion,14283.4,772812.4000001,772810.9,772827.5,787110.9,787112.19999981,2024-03-02T07:24:38Z,787127.5,NULL,Kontrolle,kudhibiti,s,mbinguni,kufunga,utegemezi,NA,sdf,NA,2,NA,NA,NA,NA,NA,NA,NA,NA,NA,NA,NA,NA,NA,NA,NA,NA,NA,NA,NA
ff0f9,Deep Question,html.Page,3_0_2_0_6_0_0,NA,NA,form submission,5262.2999997139,787112.4000001,787110.9,787127.5,792389.79999971,792390,2024-03-02T07:24:43Z,792410.9,NULL,Ausschluss,kutengwa,d,NA,NA,NA,tubiti,NA,NA,2,NA,NA,NA,NA,NA,NA,NA,NA,NA,NA,NA,NA,NA,NA,NA,NA,NA,NA,NA
ff0f9,"""Richtig""-Screen",canvas.Screen,3_0_2_0_6_0_1,NA,NA,skipped,NA,792391.79999971,NA,NA,792389.79999971,792391.9000001,2024-03-02T07:24:43Z,792410.9,NULL,Ausschluss,kutengwa,d,NA,NA,NA,NA,sdf,NA,2,NA,NA,NA,NA,NA,NA,NA,NA,NA,NA,NA,NA,NA,NA,NA,NA,NA,NA,NA
ff0f9,"""Falsch""-Screen",canvas.Screen,3_0_2_0_6_0_2,NA,NA,timeout,5000.1,792392.5,792394.2,792410.9,797394.3,797395,2024-03-02T07:24:48Z,797411,NULL,Ausschluss,kutengwa,d,NA,NA,NA,NA,sdf,0,2,NA,NA,NA,NA,NA,NA,NA,NA,NA,NA,NA,NA,NA,NA,NA,NA,NA,NA,NA
ff0f9,deep,flow.Sequence,3_0_2_0_6_0,NA,NA,completion,10266.8,787112.4000001,787110.9,787127.5,797394.3,797395.29999971,2024-03-02T07:24:48Z,797411,NULL,Ausschluss,kutengwa,d,NA,NA,NA,NA,sdf,NA,2,NA,NA,NA,NA,NA,NA,NA,NA,NA,NA,NA,NA,NA,NA,NA,NA,NA,NA,NA
ff0f9,shallow,flow.Sequence,3_0_2_0_6_1,NA,NA,skipped,NA,797395.4000001,NA,NA,797394.3,797395.5,2024-03-02T07:24:48Z,797411,NULL,Ausschluss,kutengwa,d,NA,NA,NA,NA,sdf,NA,2,NA,NA,NA,NA,NA,NA,NA,NA,NA,NA,NA,NA,NA,NA,NA,NA,NA,NA,NA
ff0f9,task,flow.Sequence,3_0_2_0_6,NA,NA,completion,10266.8,787112.29999971,787110.9,787127.5,797394.3,797395.5999999,2024-03-02T07:24:48Z,797411,NULL,Ausschluss,kutengwa,d,NA,NA,NA,NA,sdf,NA,2,NA,NA,NA,NA,NA,NA,NA,NA,NA,NA,NA,NA,NA,NA,NA,NA,NA,NA,NA
ff0f9,Deep Question,html.Page,3_0_2_0_7_0_0,NA,NA,form submission,14877.900000095,797395.79999971,797394.3,797411,812288.9000001,812289.0999999,2024-03-02T07:25:03Z,812294.1,NULL,Können,unaweza,d,NA,NA,NA,shamatu,NA,NA,2,NA,NA,NA,NA,NA,NA,NA,NA,NA,NA,NA,NA,NA,NA,NA,NA,NA,NA,NA
ff0f9,"""Richtig""-Screen",canvas.Screen,3_0_2_0_7_0_1,NA,NA,skipped,NA,812290.9000001,NA,NA,812288.9000001,812291.0999999,2024-03-02T07:25:03Z,812294.1,NULL,Können,unaweza,d,NA,NA,NA,NA,sdf,NA,2,NA,NA,NA,NA,NA,NA,NA,NA,NA,NA,NA,NA,NA,NA,NA,NA,NA,NA,NA
ff0f9,"""Falsch""-Screen",canvas.Screen,3_0_2_0_7_0_2,NA,NA,timeout,5000.1,812291.5999999,812277.652,812294.1,817277.5,817278,2024-03-02T07:25:08Z,817294.2,NULL,Können,unaweza,d,NA,NA,NA,NA,sdf,0,2,NA,NA,NA,NA,NA,NA,NA,NA,NA,NA,NA,NA,NA,NA,NA,NA,NA,NA,NA
ff0f9,deep,flow.Sequence,3_0_2_0_7_0,NA,NA,completion,19866.5,797395.79999971,797394.3,797411,817277.5,817278.4000001,2024-03-02T07:25:08Z,817294.2,NULL,Können,unaweza,d,NA,NA,NA,NA,sdf,NA,2,NA,NA,NA,NA,NA,NA,NA,NA,NA,NA,NA,NA,NA,NA,NA,NA,NA,NA,NA
ff0f9,shallow,flow.Sequence,3_0_2_0_7_1,NA,NA,skipped,NA,817278.5,NA,NA,817277.5,817278.5999999,2024-03-02T07:25:08Z,817294.2,NULL,Können,unaweza,d,NA,NA,NA,NA,sdf,NA,2,NA,NA,NA,NA,NA,NA,NA,NA,NA,NA,NA,NA,NA,NA,NA,NA,NA,NA,NA
ff0f9,task,flow.Sequence,3_0_2_0_7,NA,NA,completion,19866.5,797395.79999971,797394.3,797411,817277.5,817278.79999971,2024-03-02T07:25:08Z,817294.2,NULL,Können,unaweza,d,NA,NA,NA,NA,sdf,NA,2,NA,NA,NA,NA,NA,NA,NA,NA,NA,NA,NA,NA,NA,NA,NA,NA,NA,NA,NA
ff0f9,block,flow.Loop,3_0_2_0,NA,NA,completion,121966.46,695315.29999971,695311.04,695311.04,817277.5,817278.9000001,2024-03-02T07:25:08Z,817294.2,NULL,NA,NA,NA,NA,NA,NA,NA,sdf,NA,2,NA,NA,NA,NA,NA,NA,NA,NA,NA,NA,NA,NA,NA,NA,NA,NA,NA,NA,NA
ff0f9,weiter,canvas.Screen,3_0_2_1,sdf,keypress(Space),response,1437.5999997139,817279.0999999,817277.5,817294.2,818731.79999971,818732.69999981,2024-03-02T07:25:10Z,818777.4,NULL,NA,NA,NA,NA,NA,NA,NA,sdf,NA,2,NA,NA,NA,NA,NA,NA,NA,NA,NA,NA,NA,NA,NA,NA,NA,NA,NA,NA,NA
ff0f9,check continue,flow.Sequence,3_0_2,NA,NA,completion,123420.75999971,695315.29999971,695311.04,695311.04,818731.79999971,818733.0999999,2024-03-02T07:25:10Z,818777.4,NULL,NA,NA,NA,NA,NA,NA,NA,sdf,NA,2,NA,NA,NA,NA,NA,NA,NA,NA,NA,NA,NA,NA,NA,NA,NA,NA,NA,NA,NA
ff0f9,Deep Question,html.Page,3_0_3_0_0_0_0,NA,NA,form submission,11931.399999714,818772.9000001,818760.878,818777.4,830708.79999971,830709.0999999,2024-03-02T07:25:22Z,830710.848,NULL,Gelegenheit,wakati,d,NA,NA,NA,kushibiti,NA,NA,3,NA,NA,NA,NA,NA,NA,NA,NA,NA,NA,NA,NA,NA,NA,NA,NA,NA,NA,NA
ff0f9,"""Richtig""-Screen",canvas.Screen,3_0_3_0_0_0_1,NA,NA,skipped,NA,830710.79999971,NA,NA,830708.79999971,830711,2024-03-02T07:25:22Z,830710.848,NULL,Gelegenheit,wakati,d,NA,NA,NA,NA,qt,NA,3,NA,NA,NA,NA,NA,NA,NA,NA,NA,NA,NA,NA,NA,NA,NA,NA,NA,NA,NA
ff0f9,"""Falsch""-Screen",canvas.Screen,3_0_3_0_0_0_2,NA,NA,timeout,5000.052,830711.5,830710.848,830710.848,835694.2,835694.69999981,2024-03-02T07:25:27Z,835710.9,NULL,Gelegenheit,wakati,d,NA,NA,NA,NA,qt,0,3,NA,NA,NA,NA,NA,NA,NA,NA,NA,NA,NA,NA,NA,NA,NA,NA,NA,NA,NA
ff0f9,deep,flow.Sequence,3_0_3_0_0_0,NA,NA,completion,16916.8,818772.9000001,818760.878,818777.4,835694.2,835695.0999999,2024-03-02T07:25:27Z,835710.9,NULL,Gelegenheit,wakati,d,NA,NA,NA,NA,qt,NA,3,NA,NA,NA,NA,NA,NA,NA,NA,NA,NA,NA,NA,NA,NA,NA,NA,NA,NA,NA
ff0f9,shallow,flow.Sequence,3_0_3_0_0_1,NA,NA,skipped,NA,835695.19999981,NA,NA,835694.2,835695.4000001,2024-03-02T07:25:27Z,835710.9,NULL,Gelegenheit,wakati,d,NA,NA,NA,NA,qt,NA,3,NA,NA,NA,NA,NA,NA,NA,NA,NA,NA,NA,NA,NA,NA,NA,NA,NA,NA,NA
ff0f9,task,flow.Sequence,3_0_3_0_0,NA,NA,completion,16916.8,818772.9000001,818760.878,818777.4,835694.2,835695.5,2024-03-02T07:25:27Z,835710.9,NULL,Gelegenheit,wakati,d,NA,NA,NA,NA,qt,NA,3,NA,NA,NA,NA,NA,NA,NA,NA,NA,NA,NA,NA,NA,NA,NA,NA,NA,NA,NA
ff0f9,Deep Question,html.Page,3_0_3_0_1_0_0,NA,NA,form submission,41225.799999809,835695.5999999,835694.2,835710.9,876936.69999981,876937,2024-03-02T07:26:08Z,876944,NULL,Können,unaweza,d,NA,NA,NA,tubiti,NA,NA,3,NA,NA,NA,NA,NA,NA,NA,NA,NA,NA,NA,NA,NA,NA,NA,NA,NA,NA,NA
ff0f9,"""Richtig""-Screen",canvas.Screen,3_0_3_0_1_0_1,NA,NA,skipped,NA,876938.5999999,NA,NA,876936.69999981,876938.79999971,2024-03-02T07:26:08Z,876944,NULL,Können,unaweza,d,NA,NA,NA,NA,qt,NA,3,NA,NA,NA,NA,NA,NA,NA,NA,NA,NA,NA,NA,NA,NA,NA,NA,NA,NA,NA
ff0f9,"""Falsch""-Screen",canvas.Screen,3_0_3_0_1_0_2,NA,NA,timeout,5000.2,876939.29999971,876927.796,876944,881927.4,881928.19999981,2024-03-02T07:26:13Z,881944.2,NULL,Können,unaweza,d,NA,NA,NA,NA,qt,0,3,NA,NA,NA,NA,NA,NA,NA,NA,NA,NA,NA,NA,NA,NA,NA,NA,NA,NA,NA
ff0f9,deep,flow.Sequence,3_0_3_0_1_0,NA,NA,completion,46216.5,835695.5999999,835694.2,835710.9,881927.4,881928.4000001,2024-03-02T07:26:13Z,881944.2,NULL,Können,unaweza,d,NA,NA,NA,NA,qt,NA,3,NA,NA,NA,NA,NA,NA,NA,NA,NA,NA,NA,NA,NA,NA,NA,NA,NA,NA,NA
ff0f9,shallow,flow.Sequence,3_0_3_0_1_1,NA,NA,skipped,NA,881928.5,NA,NA,881927.4,881928.5999999,2024-03-02T07:26:13Z,881944.2,NULL,Können,unaweza,d,NA,NA,NA,NA,qt,NA,3,NA,NA,NA,NA,NA,NA,NA,NA,NA,NA,NA,NA,NA,NA,NA,NA,NA,NA,NA
ff0f9,task,flow.Sequence,3_0_3_0_1,NA,NA,completion,46216.5,835695.5999999,835694.2,835710.9,881927.4,881928.9000001,2024-03-02T07:26:13Z,881944.2,NULL,Können,unaweza,d,NA,NA,NA,NA,qt,NA,3,NA,NA,NA,NA,NA,NA,NA,NA,NA,NA,NA,NA,NA,NA,NA,NA,NA,NA,NA
ff0f9,deep,flow.Sequence,3_0_3_0_2_0,NA,NA,skipped,NA,881928.9000001,NA,NA,881927.4,881929.0999999,2024-03-02T07:26:13Z,881944.2,NULL,Widerstand,usulubu,s,kusababisha,mwalimu,mwenendo,NA,qt,NA,3,NA,NA,NA,NA,NA,NA,NA,NA,NA,NA,NA,NA,NA,NA,NA,NA,NA,NA,NA
ff0f9,Shallow Question,html.Page,3_0_3_0_2_1_0,NA,NA,form submission,8396.4999998093,881929.0999999,881927.4,881944.2,890340.69999981,890340.9000001,2024-03-02T07:26:21Z,890344.22,NULL,Widerstand,usulubu,s,kusababisha,mwalimu,mwenendo,kusababisha,NA,NA,3,NA,NA,NA,NA,NA,NA,NA,NA,NA,NA,NA,NA,NA,NA,NA,NA,NA,NA,NA
ff0f9,"""Richtig""-Screen",canvas.Screen,3_0_3_0_2_1_1,NA,NA,skipped,NA,890342.5999999,NA,NA,890340.69999981,890342.69999981,2024-03-02T07:26:21Z,890344.22,NULL,Widerstand,usulubu,s,kusababisha,mwalimu,mwenendo,NA,qt,NA,3,NA,NA,NA,NA,NA,NA,NA,NA,NA,NA,NA,NA,NA,NA,NA,NA,NA,NA,NA
ff0f9,"""Falsch""-Screen",canvas.Screen,3_0_3_0_2_1_2,NA,NA,timeout,4999.98,890343.4000001,890344.22,890344.22,895327.5,895328.0999999,2024-03-02T07:26:26Z,895344.2,NULL,Widerstand,usulubu,s,kusababisha,mwalimu,mwenendo,NA,qt,0,3,NA,NA,NA,NA,NA,NA,NA,NA,NA,NA,NA,NA,NA,NA,NA,NA,NA,NA,NA
ff0f9,shallow,flow.Sequence,3_0_3_0_2_1,NA,NA,completion,13383.3,881929.0999999,881927.4,881944.2,895327.5,895328.4000001,2024-03-02T07:26:26Z,895344.2,NULL,Widerstand,usulubu,s,kusababisha,mwalimu,mwenendo,NA,qt,NA,3,NA,NA,NA,NA,NA,NA,NA,NA,NA,NA,NA,NA,NA,NA,NA,NA,NA,NA,NA
ff0f9,task,flow.Sequence,3_0_3_0_2,NA,NA,completion,13383.3,881928.9000001,881927.4,881944.2,895327.5,895328.5999999,2024-03-02T07:26:26Z,895344.2,NULL,Widerstand,usulubu,s,kusababisha,mwalimu,mwenendo,NA,qt,NA,3,NA,NA,NA,NA,NA,NA,NA,NA,NA,NA,NA,NA,NA,NA,NA,NA,NA,NA,NA
ff0f9,deep,flow.Sequence,3_0_3_0_3_0,NA,NA,skipped,NA,895328.69999981,NA,NA,895327.5,895328.79999971,2024-03-02T07:26:26Z,895344.2,NULL,Verstand,ufahamivu,s,shakawa,hadhari,mhandisi,NA,qt,NA,3,NA,NA,NA,NA,NA,NA,NA,NA,NA,NA,NA,NA,NA,NA,NA,NA,NA,NA,NA
ff0f9,Shallow Question,html.Page,3_0_3_0_3_1_0,NA,NA,form submission,61769.499999809,895329,895327.5,895344.2,957113.69999981,957113.79999971,2024-03-02T07:27:28Z,957127.2,NULL,Verstand,ufahamivu,s,shakawa,hadhari,mhandisi,hadhari,NA,NA,3,NA,NA,NA,NA,NA,NA,NA,NA,NA,NA,NA,NA,NA,NA,NA,NA,NA,NA,NA
ff0f9,"""Richtig""-Screen",canvas.Screen,3_0_3_0_3_1_1,NA,NA,skipped,NA,957115.5,NA,NA,957113.69999981,957115.69999981,2024-03-02T07:27:28Z,957127.2,NULL,Verstand,ufahamivu,s,shakawa,hadhari,mhandisi,NA,qt,NA,3,NA,NA,NA,NA,NA,NA,NA,NA,NA,NA,NA,NA,NA,NA,NA,NA,NA,NA,NA
ff0f9,"""Falsch""-Screen",canvas.Screen,3_0_3_0_3_1_2,NA,NA,timeout,5000.1000000001,957116.19999981,957112,957127.2,962110.7,962111.4000001,2024-03-02T07:27:33Z,962127.3,NULL,Verstand,ufahamivu,s,shakawa,hadhari,mhandisi,NA,qt,0,3,NA,NA,NA,NA,NA,NA,NA,NA,NA,NA,NA,NA,NA,NA,NA,NA,NA,NA,NA
ff0f9,shallow,flow.Sequence,3_0_3_0_3_1,NA,NA,completion,66766.5,895328.9000001,895327.5,895344.2,962110.7,962111.9000001,2024-03-02T07:27:33Z,962127.3,NULL,Verstand,ufahamivu,s,shakawa,hadhari,mhandisi,NA,qt,NA,3,NA,NA,NA,NA,NA,NA,NA,NA,NA,NA,NA,NA,NA,NA,NA,NA,NA,NA,NA
ff0f9,task,flow.Sequence,3_0_3_0_3,NA,NA,completion,66766.5,895328.69999981,895327.5,895344.2,962110.7,962112.0999999,2024-03-02T07:27:33Z,962127.3,NULL,Verstand,ufahamivu,s,shakawa,hadhari,mhandisi,NA,qt,NA,3,NA,NA,NA,NA,NA,NA,NA,NA,NA,NA,NA,NA,NA,NA,NA,NA,NA,NA,NA
ff0f9,deep,flow.Sequence,3_0_3_0_4_0,NA,NA,skipped,NA,962112.19999981,NA,NA,962110.7,962112.29999971,2024-03-02T07:27:33Z,962127.3,NULL,Gefährdung,kuhatarisha,s,uchokozi,udhaifu,makorowezo,NA,qt,NA,3,NA,NA,NA,NA,NA,NA,NA,NA,NA,NA,NA,NA,NA,NA,NA,NA,NA,NA,NA
ff0f9,Shallow Question,html.Page,3_0_3_0_4_1_0,NA,NA,form submission,21730.2,962112.4000001,962110.7,962127.3,983857.5,983857.69999981,2024-03-02T07:27:55Z,983860.6,NULL,Gefährdung,kuhatarisha,s,uchokozi,udhaifu,makorowezo,kuhatarisha,NA,NA,3,NA,NA,NA,NA,NA,NA,NA,NA,NA,NA,NA,NA,NA,NA,NA,NA,NA,NA,NA
ff0f9,"""Richtig""-Screen",canvas.Screen,3_0_3_0_4_1_1,NA,NA,timeout,5000.1,983859.5,983844.096,983860.6,988844,988844.69999981,2024-03-02T07:28:00Z,988860.7,NULL,Gefährdung,kuhatarisha,s,uchokozi,udhaifu,makorowezo,NA,qt,1,3,NA,NA,NA,NA,NA,NA,NA,NA,NA,NA,NA,NA,NA,NA,NA,NA,NA,NA,NA
ff0f9,"""Falsch""-Screen",canvas.Screen,3_0_3_0_4_1_2,NA,NA,skipped,NA,988849.0999999,NA,NA,988844,988849.29999971,2024-03-02T07:28:00Z,988860.7,NULL,Gefährdung,kuhatarisha,s,uchokozi,udhaifu,makorowezo,NA,qt,NA,3,NA,NA,NA,NA,NA,NA,NA,NA,NA,NA,NA,NA,NA,NA,NA,NA,NA,NA,NA
ff0f9,shallow,flow.Sequence,3_0_3_0_4_1,NA,NA,completion,26716.7,962112.4000001,962110.7,962127.3,988844,988849.5,2024-03-02T07:28:00Z,988860.7,NULL,Gefährdung,kuhatarisha,s,uchokozi,udhaifu,makorowezo,NA,qt,NA,3,NA,NA,NA,NA,NA,NA,NA,NA,NA,NA,NA,NA,NA,NA,NA,NA,NA,NA,NA
ff0f9,task,flow.Sequence,3_0_3_0_4,NA,NA,completion,26716.7,962112.0999999,962110.7,962127.3,988844,988849.5999999,2024-03-02T07:28:00Z,988860.7,NULL,Gefährdung,kuhatarisha,s,uchokozi,udhaifu,makorowezo,NA,qt,NA,3,NA,NA,NA,NA,NA,NA,NA,NA,NA,NA,NA,NA,NA,NA,NA,NA,NA,NA,NA
ff0f9,Deep Question,html.Page,3_0_3_0_5_0_0,NA,NA,form submission,14852.8,988849.9000001,988844,988860.7,1003713.5,1003713.6999998,2024-03-02T07:28:15Z,1003727.3,NULL,Kreativität,ubunifu,d,NA,NA,NA,tubishi,NA,NA,3,NA,NA,NA,NA,NA,NA,NA,NA,NA,NA,NA,NA,NA,NA,NA,NA,NA,NA,NA
ff0f9,"""Richtig""-Screen",canvas.Screen,3_0_3_0_5_0_1,NA,NA,skipped,NA,1003715.5,NA,NA,1003713.5,1003715.5999999,2024-03-02T07:28:15Z,1003727.3,NULL,Kreativität,ubunifu,d,NA,NA,NA,NA,qt,NA,3,NA,NA,NA,NA,NA,NA,NA,NA,NA,NA,NA,NA,NA,NA,NA,NA,NA,NA,NA
ff0f9,"""Falsch""-Screen",canvas.Screen,3_0_3_0_5_0_2,NA,NA,timeout,4999.8999999999,1003716.1999998,1003710.732,1003727.3,1008710.7,1008711.4000001,2024-03-02T07:28:20Z,1008727.2,NULL,Kreativität,ubunifu,d,NA,NA,NA,NA,qt,0,3,NA,NA,NA,NA,NA,NA,NA,NA,NA,NA,NA,NA,NA,NA,NA,NA,NA,NA,NA
ff0f9,deep,flow.Sequence,3_0_3_0_5_0,NA,NA,completion,19850,988849.79999971,988844,988860.7,1008710.7,1008711.6999998,2024-03-02T07:28:20Z,1008727.2,NULL,Kreativität,ubunifu,d,NA,NA,NA,NA,qt,NA,3,NA,NA,NA,NA,NA,NA,NA,NA,NA,NA,NA,NA,NA,NA,NA,NA,NA,NA,NA
ff0f9,shallow,flow.Sequence,3_0_3_0_5_1,NA,NA,skipped,NA,1008711.7999997,NA,NA,1008710.7,1008712,2024-03-02T07:28:20Z,1008727.2,NULL,Kreativität,ubunifu,d,NA,NA,NA,NA,qt,NA,3,NA,NA,NA,NA,NA,NA,NA,NA,NA,NA,NA,NA,NA,NA,NA,NA,NA,NA,NA
ff0f9,task,flow.Sequence,3_0_3_0_5,NA,NA,completion,19850,988849.79999971,988844,988860.7,1008710.7,1008712.0999999,2024-03-02T07:28:20Z,1008727.2,NULL,Kreativität,ubunifu,d,NA,NA,NA,NA,qt,NA,3,NA,NA,NA,NA,NA,NA,NA,NA,NA,NA,NA,NA,NA,NA,NA,NA,NA,NA,NA
ff0f9,deep,flow.Sequence,3_0_3_0_6_0,NA,NA,skipped,NA,1008712.1999998,NA,NA,1008710.7,1008712.2999997,2024-03-02T07:28:20Z,1008727.2,NULL,Kontrolle,kudhibiti,s,mbinguni,kufunga,utegemezi,NA,qt,NA,3,NA,NA,NA,NA,NA,NA,NA,NA,NA,NA,NA,NA,NA,NA,NA,NA,NA,NA,NA
ff0f9,Shallow Question,html.Page,3_0_3_0_6_1_0,NA,NA,form submission,16604.3,1008712.4000001,1008710.7,1008727.2,1025331.5,1025331.6999998,2024-03-02T07:28:36Z,1025343.9,NULL,Kontrolle,kudhibiti,s,mbinguni,kufunga,utegemezi,kudhibiti,NA,NA,3,NA,NA,NA,NA,NA,NA,NA,NA,NA,NA,NA,NA,NA,NA,NA,NA,NA,NA,NA
ff0f9,"""Richtig""-Screen",canvas.Screen,3_0_3_0_6_1_1,NA,NA,timeout,5000.1,1025333.4000001,1025328.1,1025343.9,1030327.3,1030327.9000001,2024-03-02T07:28:41Z,1030344,NULL,Kontrolle,kudhibiti,s,mbinguni,kufunga,utegemezi,NA,qt,1,3,NA,NA,NA,NA,NA,NA,NA,NA,NA,NA,NA,NA,NA,NA,NA,NA,NA,NA,NA
ff0f9,"""Falsch""-Screen",canvas.Screen,3_0_3_0_6_1_2,NA,NA,skipped,NA,1030332,NA,NA,1030327.3,1030332.1999998,2024-03-02T07:28:41Z,1030344,NULL,Kontrolle,kudhibiti,s,mbinguni,kufunga,utegemezi,NA,qt,NA,3,NA,NA,NA,NA,NA,NA,NA,NA,NA,NA,NA,NA,NA,NA,NA,NA,NA,NA,NA
ff0f9,shallow,flow.Sequence,3_0_3_0_6_1,NA,NA,completion,21600.1,1008712.2999997,1008710.7,1008727.2,1030327.3,1030332.4000001,2024-03-02T07:28:41Z,1030344,NULL,Kontrolle,kudhibiti,s,mbinguni,kufunga,utegemezi,NA,qt,NA,3,NA,NA,NA,NA,NA,NA,NA,NA,NA,NA,NA,NA,NA,NA,NA,NA,NA,NA,NA
ff0f9,task,flow.Sequence,3_0_3_0_6,NA,NA,completion,21600.1,1008712.1999998,1008710.7,1008727.2,1030327.3,1030332.5999999,2024-03-02T07:28:41Z,1030344,NULL,Kontrolle,kudhibiti,s,mbinguni,kufunga,utegemezi,NA,qt,NA,3,NA,NA,NA,NA,NA,NA,NA,NA,NA,NA,NA,NA,NA,NA,NA,NA,NA,NA,NA
ff0f9,Deep Question,html.Page,3_0_3_0_7_0_0,NA,NA,form submission,23044.799999714,1030332.7999997,1030327.3,1030344,1053388.7999997,1053389,2024-03-02T07:29:04Z,1053397.6,NULL,Ausschluss,kutengwa,d,NA,NA,NA,tabitishi,NA,NA,3,NA,NA,NA,NA,NA,NA,NA,NA,NA,NA,NA,NA,NA,NA,NA,NA,NA,NA,NA
ff0f9,"""Richtig""-Screen",canvas.Screen,3_0_3_0_7_0_1,NA,NA,skipped,NA,1053390.7999997,NA,NA,1053388.7999997,1053390.9000001,2024-03-02T07:29:04Z,1053397.6,NULL,Ausschluss,kutengwa,d,NA,NA,NA,NA,qt,NA,3,NA,NA,NA,NA,NA,NA,NA,NA,NA,NA,NA,NA,NA,NA,NA,NA,NA,NA,NA
ff0f9,"""Falsch""-Screen",canvas.Screen,3_0_3_0_7_0_2,NA,NA,timeout,4996.3999999999,1053391.5,1053377.248,1053397.6,1058377.3,1058378,2024-03-02T07:29:09Z,1058394,NULL,Ausschluss,kutengwa,d,NA,NA,NA,NA,qt,0,3,NA,NA,NA,NA,NA,NA,NA,NA,NA,NA,NA,NA,NA,NA,NA,NA,NA,NA,NA
ff0f9,deep,flow.Sequence,3_0_3_0_7_0,NA,NA,completion,28033.3,1030332.6999998,1030327.3,1030344,1058377.3,1058378.2999997,2024-03-02T07:29:09Z,1058394,NULL,Ausschluss,kutengwa,d,NA,NA,NA,NA,qt,NA,3,NA,NA,NA,NA,NA,NA,NA,NA,NA,NA,NA,NA,NA,NA,NA,NA,NA,NA,NA
ff0f9,shallow,flow.Sequence,3_0_3_0_7_1,NA,NA,skipped,NA,1058378.4000001,NA,NA,1058377.3,1058378.5999999,2024-03-02T07:29:09Z,1058394,NULL,Ausschluss,kutengwa,d,NA,NA,NA,NA,qt,NA,3,NA,NA,NA,NA,NA,NA,NA,NA,NA,NA,NA,NA,NA,NA,NA,NA,NA,NA,NA
ff0f9,task,flow.Sequence,3_0_3_0_7,NA,NA,completion,28033.3,1030332.6999998,1030327.3,1030344,1058377.3,1058378.6999998,2024-03-02T07:29:09Z,1058394,NULL,Ausschluss,kutengwa,d,NA,NA,NA,NA,qt,NA,3,NA,NA,NA,NA,NA,NA,NA,NA,NA,NA,NA,NA,NA,NA,NA,NA,NA,NA,NA
ff0f9,block,flow.Loop,3_0_3_0,NA,NA,completion,239599.9,818772.9000001,818760.878,818777.4,1058377.3,1058378.9000001,2024-03-02T07:29:09Z,1058394,NULL,NA,NA,NA,NA,NA,NA,NA,qt,NA,3,NA,NA,NA,NA,NA,NA,NA,NA,NA,NA,NA,NA,NA,NA,NA,NA,NA,NA,NA
ff0f9,weiter,canvas.Screen,3_0_3_1,sdf,keypress(Space),response,10357.099999905,1058379,1058377.3,1058394,1068751.0999999,1068751.9000001,2024-03-02T07:29:20Z,1068810.9,NULL,NA,NA,NA,NA,NA,NA,NA,qt,NA,3,NA,NA,NA,NA,NA,NA,NA,NA,NA,NA,NA,NA,NA,NA,NA,NA,NA,NA,NA
ff0f9,check continue,flow.Sequence,3_0_3,NA,NA,completion,249973.6999999,818772.9000001,818760.878,818777.4,1068751.0999999,1068752.1999998,2024-03-02T07:29:20Z,1068810.9,NULL,NA,NA,NA,NA,NA,NA,NA,qt,NA,3,NA,NA,NA,NA,NA,NA,NA,NA,NA,NA,NA,NA,NA,NA,NA,NA,NA,NA,NA
ff0f9,deep,flow.Sequence,3_0_4_0_0_0,NA,NA,skipped,NA,1068804.2999997,NA,NA,1068751.0999999,1068804.5,2024-03-02T07:29:20Z,1068810.9,NULL,Verstand,ufahamivu,s,shakawa,hadhari,mhandisi,NA,sd,NA,4,NA,NA,NA,NA,NA,NA,NA,NA,NA,NA,NA,NA,NA,NA,NA,NA,NA,NA,NA
ff0f9,Shallow Question,html.Page,3_0_4_0_0_1_0,NA,NA,form submission,15325.500000095,1068804.6999998,1068793.584,1068810.9,1084136.4000001,1084136.6999998,2024-03-02T07:29:35Z,1084143.8,NULL,Verstand,ufahamivu,s,shakawa,hadhari,mhandisi,ufahamivu,NA,NA,4,NA,NA,NA,NA,NA,NA,NA,NA,NA,NA,NA,NA,NA,NA,NA,NA,NA,NA,NA
ff0f9,"""Richtig""-Screen",canvas.Screen,3_0_4_0_0_1_1,NA,NA,timeout,5000.0999999999,1084138.4000001,1084127.322,1084143.8,1089127.3,1089127.9000001,2024-03-02T07:29:40Z,1089143.9,NULL,Verstand,ufahamivu,s,shakawa,hadhari,mhandisi,NA,sd,1,4,NA,NA,NA,NA,NA,NA,NA,NA,NA,NA,NA,NA,NA,NA,NA,NA,NA,NA,NA
ff0f9,"""Falsch""-Screen",canvas.Screen,3_0_4_0_0_1_2,NA,NA,skipped,NA,1089132.1999998,NA,NA,1089127.3,1089132.2999997,2024-03-02T07:29:40Z,1089143.9,NULL,Verstand,ufahamivu,s,shakawa,hadhari,mhandisi,NA,sd,NA,4,NA,NA,NA,NA,NA,NA,NA,NA,NA,NA,NA,NA,NA,NA,NA,NA,NA,NA,NA
ff0f9,shallow,flow.Sequence,3_0_4_0_0_1,NA,NA,completion,20316.4,1068804.5999999,1068793.584,1068810.9,1089127.3,1089132.5999999,2024-03-02T07:29:40Z,1089143.9,NULL,Verstand,ufahamivu,s,shakawa,hadhari,mhandisi,NA,sd,NA,4,NA,NA,NA,NA,NA,NA,NA,NA,NA,NA,NA,NA,NA,NA,NA,NA,NA,NA,NA
ff0f9,task,flow.Sequence,3_0_4_0_0,NA,NA,completion,20316.4,1068804.2999997,1068793.584,1068810.9,1089127.3,1089132.7999997,2024-03-02T07:29:40Z,1089143.9,NULL,Verstand,ufahamivu,s,shakawa,hadhari,mhandisi,NA,sd,NA,4,NA,NA,NA,NA,NA,NA,NA,NA,NA,NA,NA,NA,NA,NA,NA,NA,NA,NA,NA
ff0f9,Deep Question,html.Page,3_0_4_0_1_0_0,NA,NA,form submission,13040.6,1089133,1089127.3,1089143.9,1102184.5,1102184.5999999,2024-03-02T07:29:53Z,1102193.8,NULL,Ausschluss,kutengwa,d,NA,NA,NA,kutmegha,NA,NA,4,NA,NA,NA,NA,NA,NA,NA,NA,NA,NA,NA,NA,NA,NA,NA,NA,NA,NA,NA
ff0f9,"""Richtig""-Screen",canvas.Screen,3_0_4_0_1_0_1,NA,NA,skipped,NA,1102186.5,NA,NA,1102184.5,1102186.6999998,2024-03-02T07:29:53Z,1102193.8,NULL,Ausschluss,kutengwa,d,NA,NA,NA,NA,sd,NA,4,NA,NA,NA,NA,NA,NA,NA,NA,NA,NA,NA,NA,NA,NA,NA,NA,NA,NA,NA
ff0f9,"""Falsch""-Screen",canvas.Screen,3_0_4_0_1_0_2,NA,NA,timeout,5000.2,1102187.1999998,1102177.562,1102193.8,1107177.3,1107177.9000001,2024-03-02T07:29:58Z,1107194,NULL,Ausschluss,kutengwa,d,NA,NA,NA,NA,sd,0,4,NA,NA,NA,NA,NA,NA,NA,NA,NA,NA,NA,NA,NA,NA,NA,NA,NA,NA,NA
ff0f9,deep,flow.Sequence,3_0_4_0_1_0,NA,NA,completion,18033.4,1089132.9000001,1089127.3,1089143.9,1107177.3,1107178.1999998,2024-03-02T07:29:58Z,1107194,NULL,Ausschluss,kutengwa,d,NA,NA,NA,NA,sd,NA,4,NA,NA,NA,NA,NA,NA,NA,NA,NA,NA,NA,NA,NA,NA,NA,NA,NA,NA,NA
ff0f9,shallow,flow.Sequence,3_0_4_0_1_1,NA,NA,skipped,NA,1107178.2999997,NA,NA,1107177.3,1107178.4000001,2024-03-02T07:29:58Z,1107194,NULL,Ausschluss,kutengwa,d,NA,NA,NA,NA,sd,NA,4,NA,NA,NA,NA,NA,NA,NA,NA,NA,NA,NA,NA,NA,NA,NA,NA,NA,NA,NA
ff0f9,task,flow.Sequence,3_0_4_0_1,NA,NA,completion,18033.4,1089132.7999997,1089127.3,1089143.9,1107177.3,1107178.5999999,2024-03-02T07:29:58Z,1107194,NULL,Ausschluss,kutengwa,d,NA,NA,NA,NA,sd,NA,4,NA,NA,NA,NA,NA,NA,NA,NA,NA,NA,NA,NA,NA,NA,NA,NA,NA,NA,NA
ff0f9,deep,flow.Sequence,3_0_4_0_2_0,NA,NA,skipped,NA,1107178.7999997,NA,NA,1107177.3,1107178.7999997,2024-03-02T07:29:58Z,1107194,NULL,Widerstand,usulubu,s,kusababisha,mwalimu,mwenendo,NA,sd,NA,4,NA,NA,NA,NA,NA,NA,NA,NA,NA,NA,NA,NA,NA,NA,NA,NA,NA,NA,NA
ff0f9,Shallow Question,html.Page,3_0_4_0_2_1_0,NA,NA,form submission,24890.400000095,1107178.9000001,1107177.3,1107194,1132084.4000001,1132084.5999999,2024-03-02T07:30:23Z,1132093.808,NULL,Widerstand,usulubu,s,kusababisha,mwalimu,mwenendo,kusababisha,NA,NA,4,NA,NA,NA,NA,NA,NA,NA,NA,NA,NA,NA,NA,NA,NA,NA,NA,NA,NA,NA
ff0f9,"""Richtig""-Screen",canvas.Screen,3_0_4_0_2_1_1,NA,NA,skipped,NA,1132086.2999997,NA,NA,1132084.4000001,1132086.4000001,2024-03-02T07:30:23Z,1132093.808,NULL,Widerstand,usulubu,s,kusababisha,mwalimu,mwenendo,NA,sd,NA,4,NA,NA,NA,NA,NA,NA,NA,NA,NA,NA,NA,NA,NA,NA,NA,NA,NA,NA,NA
ff0f9,"""Falsch""-Screen",canvas.Screen,3_0_4_0_2_1_2,NA,NA,timeout,5000.0919999999,1132087,1132093.808,1132093.808,1137077.2,1137077.9000001,2024-03-02T07:30:28Z,1137093.9,NULL,Widerstand,usulubu,s,kusababisha,mwalimu,mwenendo,NA,sd,0,4,NA,NA,NA,NA,NA,NA,NA,NA,NA,NA,NA,NA,NA,NA,NA,NA,NA,NA,NA
ff0f9,shallow,flow.Sequence,3_0_4_0_2_1,NA,NA,completion,29883.2,1107178.9000001,1107177.3,1107194,1137077.2,1137078.2999997,2024-03-02T07:30:28Z,1137093.9,NULL,Widerstand,usulubu,s,kusababisha,mwalimu,mwenendo,NA,sd,NA,4,NA,NA,NA,NA,NA,NA,NA,NA,NA,NA,NA,NA,NA,NA,NA,NA,NA,NA,NA
ff0f9,task,flow.Sequence,3_0_4_0_2,NA,NA,completion,29883.2,1107178.5999999,1107177.3,1107194,1137077.2,1137078.4000001,2024-03-02T07:30:28Z,1137093.9,NULL,Widerstand,usulubu,s,kusababisha,mwalimu,mwenendo,NA,sd,NA,4,NA,NA,NA,NA,NA,NA,NA,NA,NA,NA,NA,NA,NA,NA,NA,NA,NA,NA,NA
ff0f9,deep,flow.Sequence,3_0_4_0_3_0,NA,NA,skipped,NA,1137078.6999998,NA,NA,1137077.2,1137078.7999997,2024-03-02T07:30:28Z,1137093.9,NULL,Gefährdung,kuhatarisha,s,uchokozi,udhaifu,makorowezo,NA,sd,NA,4,NA,NA,NA,NA,NA,NA,NA,NA,NA,NA,NA,NA,NA,NA,NA,NA,NA,NA,NA
ff0f9,Shallow Question,html.Page,3_0_4_0_3_1_0,NA,NA,form submission,10818.399999714,1137079,1137077.2,1137093.9,1147912.2999997,1147912.5,2024-03-02T07:30:39Z,1147943.9,NULL,Gefährdung,kuhatarisha,s,uchokozi,udhaifu,makorowezo,kuhatarisha,NA,NA,4,NA,NA,NA,NA,NA,NA,NA,NA,NA,NA,NA,NA,NA,NA,NA,NA,NA,NA,NA
ff0f9,"""Richtig""-Screen",canvas.Screen,3_0_4_0_3_1_1,NA,NA,timeout,5000,1147914.2999997,1147927.2,1147943.9,1152927.2,1152927.7999997,2024-03-02T07:30:44Z,1152943.9,NULL,Gefährdung,kuhatarisha,s,uchokozi,udhaifu,makorowezo,NA,sd,1,4,NA,NA,NA,NA,NA,NA,NA,NA,NA,NA,NA,NA,NA,NA,NA,NA,NA,NA,NA
ff0f9,"""Falsch""-Screen",canvas.Screen,3_0_4_0_3_1_2,NA,NA,skipped,NA,1152931.9000001,NA,NA,1152927.2,1152932.0999999,2024-03-02T07:30:44Z,1152943.9,NULL,Gefährdung,kuhatarisha,s,uchokozi,udhaifu,makorowezo,NA,sd,NA,4,NA,NA,NA,NA,NA,NA,NA,NA,NA,NA,NA,NA,NA,NA,NA,NA,NA,NA,NA
ff0f9,shallow,flow.Sequence,3_0_4_0_3_1,NA,NA,completion,15833.3,1137079,1137077.2,1137093.9,1152927.2,1152932.4000001,2024-03-02T07:30:44Z,1152943.9,NULL,Gefährdung,kuhatarisha,s,uchokozi,udhaifu,makorowezo,NA,sd,NA,4,NA,NA,NA,NA,NA,NA,NA,NA,NA,NA,NA,NA,NA,NA,NA,NA,NA,NA,NA
ff0f9,task,flow.Sequence,3_0_4_0_3,NA,NA,completion,15833.3,1137078.5,1137077.2,1137093.9,1152927.2,1152932.5999999,2024-03-02T07:30:44Z,1152943.9,NULL,Gefährdung,kuhatarisha,s,uchokozi,udhaifu,makorowezo,NA,sd,NA,4,NA,NA,NA,NA,NA,NA,NA,NA,NA,NA,NA,NA,NA,NA,NA,NA,NA,NA,NA
ff0f9,Deep Question,html.Page,3_0_4_0_4_0_0,NA,NA,form submission,16886.6,1152932.6999998,1152927.2,1152943.9,1169830.5,1169830.6999998,2024-03-02T07:31:01Z,1169843.8,NULL,Kreativität,ubunifu,d,NA,NA,NA,apunifi,NA,NA,4,NA,NA,NA,NA,NA,NA,NA,NA,NA,NA,NA,NA,NA,NA,NA,NA,NA,NA,NA
ff0f9,"""Richtig""-Screen",canvas.Screen,3_0_4_0_4_0_1,NA,NA,skipped,NA,1169832.5,NA,NA,1169830.5,1169832.5999999,2024-03-02T07:31:01Z,1169843.8,NULL,Kreativität,ubunifu,d,NA,NA,NA,NA,sd,NA,4,NA,NA,NA,NA,NA,NA,NA,NA,NA,NA,NA,NA,NA,NA,NA,NA,NA,NA,NA
ff0f9,"""Falsch""-Screen",canvas.Screen,3_0_4_0_4_0_2,NA,NA,timeout,5000.0999999999,1169833.0999999,1169827.2,1169843.8,1174827.2,1174828.1999998,2024-03-02T07:31:06Z,1174843.9,NULL,Kreativität,ubunifu,d,NA,NA,NA,NA,sd,0,4,NA,NA,NA,NA,NA,NA,NA,NA,NA,NA,NA,NA,NA,NA,NA,NA,NA,NA,NA
ff0f9,deep,flow.Sequence,3_0_4_0_4_0,NA,NA,completion,21883.3,1152932.5999999,1152927.2,1152943.9,1174827.2,1174828.5,2024-03-02T07:31:06Z,1174843.9,NULL,Kreativität,ubunifu,d,NA,NA,NA,NA,sd,NA,4,NA,NA,NA,NA,NA,NA,NA,NA,NA,NA,NA,NA,NA,NA,NA,NA,NA,NA,NA
ff0f9,shallow,flow.Sequence,3_0_4_0_4_1,NA,NA,skipped,NA,1174828.6999998,NA,NA,1174827.2,1174828.7999997,2024-03-02T07:31:06Z,1174843.9,NULL,Kreativität,ubunifu,d,NA,NA,NA,NA,sd,NA,4,NA,NA,NA,NA,NA,NA,NA,NA,NA,NA,NA,NA,NA,NA,NA,NA,NA,NA,NA
ff0f9,task,flow.Sequence,3_0_4_0_4,NA,NA,completion,21883.3,1152932.5999999,1152927.2,1152943.9,1174827.2,1174829,2024-03-02T07:31:06Z,1174843.9,NULL,Kreativität,ubunifu,d,NA,NA,NA,NA,sd,NA,4,NA,NA,NA,NA,NA,NA,NA,NA,NA,NA,NA,NA,NA,NA,NA,NA,NA,NA,NA
ff0f9,Deep Question,html.Page,3_0_4_0_5_0_0,NA,NA,form submission,24702.399999714,1174829.0999999,1174827.2,1174843.9,1199546.2999997,1199546.5,2024-03-02T07:31:31Z,1199560.4,NULL,Gelegenheit,wakati,d,NA,NA,NA,tabiti,NA,NA,4,NA,NA,NA,NA,NA,NA,NA,NA,NA,NA,NA,NA,NA,NA,NA,NA,NA,NA,NA
ff0f9,"""Richtig""-Screen",canvas.Screen,3_0_4_0_5_0_1,NA,NA,skipped,NA,1199548.2999997,NA,NA,1199546.2999997,1199548.4000001,2024-03-02T07:31:31Z,1199560.4,NULL,Gelegenheit,wakati,d,NA,NA,NA,NA,sd,NA,4,NA,NA,NA,NA,NA,NA,NA,NA,NA,NA,NA,NA,NA,NA,NA,NA,NA,NA,NA
ff0f9,"""Falsch""-Screen",canvas.Screen,3_0_4_0_5_0_2,NA,NA,timeout,5000,1199548.9000001,1199544.042,1199560.4,1204543.8,1204544.5,2024-03-02T07:31:36Z,1204560.4,NULL,Gelegenheit,wakati,d,NA,NA,NA,NA,sd,0,4,NA,NA,NA,NA,NA,NA,NA,NA,NA,NA,NA,NA,NA,NA,NA,NA,NA,NA,NA
ff0f9,deep,flow.Sequence,3_0_4_0_5_0,NA,NA,completion,29699.9,1174829.0999999,1174827.2,1174843.9,1204543.8,1204544.6999998,2024-03-02T07:31:36Z,1204560.4,NULL,Gelegenheit,wakati,d,NA,NA,NA,NA,sd,NA,4,NA,NA,NA,NA,NA,NA,NA,NA,NA,NA,NA,NA,NA,NA,NA,NA,NA,NA,NA
ff0f9,shallow,flow.Sequence,3_0_4_0_5_1,NA,NA,skipped,NA,1204544.9000001,NA,NA,1204543.8,1204545,2024-03-02T07:31:36Z,1204560.4,NULL,Gelegenheit,wakati,d,NA,NA,NA,NA,sd,NA,4,NA,NA,NA,NA,NA,NA,NA,NA,NA,NA,NA,NA,NA,NA,NA,NA,NA,NA,NA
ff0f9,task,flow.Sequence,3_0_4_0_5,NA,NA,completion,29699.9,1174829,1174827.2,1174843.9,1204543.8,1204545.0999999,2024-03-02T07:31:36Z,1204560.4,NULL,Gelegenheit,wakati,d,NA,NA,NA,NA,sd,NA,4,NA,NA,NA,NA,NA,NA,NA,NA,NA,NA,NA,NA,NA,NA,NA,NA,NA,NA,NA
ff0f9,deep,flow.Sequence,3_0_4_0_6_0,NA,NA,skipped,NA,1204545.2999997,NA,NA,1204543.8,1204545.4000001,2024-03-02T07:31:36Z,1204560.4,NULL,Kontrolle,kudhibiti,s,mbinguni,kufunga,utegemezi,NA,sd,NA,4,NA,NA,NA,NA,NA,NA,NA,NA,NA,NA,NA,NA,NA,NA,NA,NA,NA,NA,NA
ff0f9,Shallow Question,html.Page,3_0_4_0_6_1_0,NA,NA,form submission,15509.899999714,1204545.5,1204543.8,1204560.4,1220070.2999997,1220070.5,2024-03-02T07:31:51Z,1220079.528,NULL,Kontrolle,kudhibiti,s,mbinguni,kufunga,utegemezi,kudhibiti,NA,NA,4,NA,NA,NA,NA,NA,NA,NA,NA,NA,NA,NA,NA,NA,NA,NA,NA,NA,NA,NA
ff0f9,"""Richtig""-Screen",canvas.Screen,3_0_4_0_6_1_1,NA,NA,timeout,4997.672,1220072.1999998,1220079.528,1220079.528,1225060.5,1225061.2999997,2024-03-02T07:31:56Z,1225077.2,NULL,Kontrolle,kudhibiti,s,mbinguni,kufunga,utegemezi,NA,sd,1,4,NA,NA,NA,NA,NA,NA,NA,NA,NA,NA,NA,NA,NA,NA,NA,NA,NA,NA,NA
ff0f9,"""Falsch""-Screen",canvas.Screen,3_0_4_0_6_1_2,NA,NA,skipped,NA,1225065.5,NA,NA,1225060.5,1225065.6999998,2024-03-02T07:31:56Z,1225077.2,NULL,Kontrolle,kudhibiti,s,mbinguni,kufunga,utegemezi,NA,sd,NA,4,NA,NA,NA,NA,NA,NA,NA,NA,NA,NA,NA,NA,NA,NA,NA,NA,NA,NA,NA
ff0f9,shallow,flow.Sequence,3_0_4_0_6_1,NA,NA,completion,20500.1,1204545.5,1204543.8,1204560.4,1225060.5,1225065.9000001,2024-03-02T07:31:56Z,1225077.2,NULL,Kontrolle,kudhibiti,s,mbinguni,kufunga,utegemezi,NA,sd,NA,4,NA,NA,NA,NA,NA,NA,NA,NA,NA,NA,NA,NA,NA,NA,NA,NA,NA,NA,NA
ff0f9,task,flow.Sequence,3_0_4_0_6,NA,NA,completion,20500.1,1204545.1999998,1204543.8,1204560.4,1225060.5,1225066.0999999,2024-03-02T07:31:56Z,1225077.2,NULL,Kontrolle,kudhibiti,s,mbinguni,kufunga,utegemezi,NA,sd,NA,4,NA,NA,NA,NA,NA,NA,NA,NA,NA,NA,NA,NA,NA,NA,NA,NA,NA,NA,NA
ff0f9,Deep Question,html.Page,3_0_4_0_7_0_0,NA,NA,form submission,18902.099999714,1225066.1999998,1225060.5,1225077.2,1243979.2999997,1243979.5,2024-03-02T07:32:15Z,1243993.8,NULL,Können,unaweza,d,NA,NA,NA,tushati,NA,NA,4,NA,NA,NA,NA,NA,NA,NA,NA,NA,NA,NA,NA,NA,NA,NA,NA,NA,NA,NA
ff0f9,"""Richtig""-Screen",canvas.Screen,3_0_4_0_7_0_1,NA,NA,skipped,NA,1243981.4000001,NA,NA,1243979.2999997,1243981.5,2024-03-02T07:32:15Z,1243993.8,NULL,Können,unaweza,d,NA,NA,NA,NA,sd,NA,4,NA,NA,NA,NA,NA,NA,NA,NA,NA,NA,NA,NA,NA,NA,NA,NA,NA,NA,NA
ff0f9,"""Falsch""-Screen",canvas.Screen,3_0_4_0_7_0_2,NA,NA,timeout,5000.0999999999,1243982,1243977.12,1243993.8,1248977.1,1248977.7999997,2024-03-02T07:32:20Z,1248993.9,NULL,Können,unaweza,d,NA,NA,NA,NA,sd,0,4,NA,NA,NA,NA,NA,NA,NA,NA,NA,NA,NA,NA,NA,NA,NA,NA,NA,NA,NA
ff0f9,deep,flow.Sequence,3_0_4_0_7_0,NA,NA,completion,23899.9,1225066.1999998,1225060.5,1225077.2,1248977.1,1248978.0999999,2024-03-02T07:32:20Z,1248993.9,NULL,Können,unaweza,d,NA,NA,NA,NA,sd,NA,4,NA,NA,NA,NA,NA,NA,NA,NA,NA,NA,NA,NA,NA,NA,NA,NA,NA,NA,NA
ff0f9,shallow,flow.Sequence,3_0_4_0_7_1,NA,NA,skipped,NA,1248978.1999998,NA,NA,1248977.1,1248978.4000001,2024-03-02T07:32:20Z,1248993.9,NULL,Können,unaweza,d,NA,NA,NA,NA,sd,NA,4,NA,NA,NA,NA,NA,NA,NA,NA,NA,NA,NA,NA,NA,NA,NA,NA,NA,NA,NA
ff0f9,task,flow.Sequence,3_0_4_0_7,NA,NA,completion,23899.9,1225066.1999998,1225060.5,1225077.2,1248977.1,1248978.5,2024-03-02T07:32:20Z,1248993.9,NULL,Können,unaweza,d,NA,NA,NA,NA,sd,NA,4,NA,NA,NA,NA,NA,NA,NA,NA,NA,NA,NA,NA,NA,NA,NA,NA,NA,NA,NA
ff0f9,block,flow.Loop,3_0_4_0,NA,NA,completion,180166.2,1068804.2999997,1068793.584,1068810.9,1248977.1,1248978.6999998,2024-03-02T07:32:20Z,1248993.9,NULL,NA,NA,NA,NA,NA,NA,NA,sd,NA,4,NA,NA,NA,NA,NA,NA,NA,NA,NA,NA,NA,NA,NA,NA,NA,NA,NA,NA,NA
ff0f9,weiter,canvas.Screen,3_0_4_1,sdf,keypress(Space),response,3024.0000000955,1248978.7999997,1248977.1,1248993.9,1252017.9000001,1252018.7999997,2024-03-02T07:32:23Z,1252077.2,NULL,NA,NA,NA,NA,NA,NA,NA,sd,NA,4,NA,NA,NA,NA,NA,NA,NA,NA,NA,NA,NA,NA,NA,NA,NA,NA,NA,NA,NA
ff0f9,check continue,flow.Sequence,3_0_4,NA,NA,completion,183207.0000001,1068804.2999997,1068793.584,1068810.9,1252017.9000001,1252018.9000001,2024-03-02T07:32:23Z,1252077.2,NULL,NA,NA,NA,NA,NA,NA,NA,sd,NA,4,NA,NA,NA,NA,NA,NA,NA,NA,NA,NA,NA,NA,NA,NA,NA,NA,NA,NA,NA
ff0f9,Deep Question,html.Page,3_0_5_0_0_0_0,NA,NA,form submission,13108.200000095,1252064.5999999,1252061.4,1252077.2,1265185.4000001,1265185.5999999,2024-03-02T07:32:36Z,1265193.6,NULL,Gelegenheit,wakati,d,NA,NA,NA,watishi,NA,NA,5,NA,NA,NA,NA,NA,NA,NA,NA,NA,NA,NA,NA,NA,NA,NA,NA,NA,NA,NA
ff0f9,"""Richtig""-Screen",canvas.Screen,3_0_5_0_0_0_1,NA,NA,skipped,NA,1265187.2999997,NA,NA,1265185.4000001,1265187.5,2024-03-02T07:32:36Z,1265193.6,NULL,Gelegenheit,wakati,d,NA,NA,NA,NA,sdf,NA,5,NA,NA,NA,NA,NA,NA,NA,NA,NA,NA,NA,NA,NA,NA,NA,NA,NA,NA,NA
ff0f9,"""Falsch""-Screen",canvas.Screen,3_0_5_0_0_0_2,NA,NA,timeout,5000.2,1265188,1265177.134,1265193.6,1270177.1,1270177.7999997,2024-03-02T07:32:41Z,1270193.8,NULL,Gelegenheit,wakati,d,NA,NA,NA,NA,sdf,0,5,NA,NA,NA,NA,NA,NA,NA,NA,NA,NA,NA,NA,NA,NA,NA,NA,NA,NA,NA
ff0f9,deep,flow.Sequence,3_0_5_0_0_0,NA,NA,completion,18099.9,1252064.5999999,1252061.4,1252077.2,1270177.1,1270178,2024-03-02T07:32:41Z,1270193.8,NULL,Gelegenheit,wakati,d,NA,NA,NA,NA,sdf,NA,5,NA,NA,NA,NA,NA,NA,NA,NA,NA,NA,NA,NA,NA,NA,NA,NA,NA,NA,NA
ff0f9,shallow,flow.Sequence,3_0_5_0_0_1,NA,NA,skipped,NA,1270178.1999998,NA,NA,1270177.1,1270178.1999998,2024-03-02T07:32:41Z,1270193.8,NULL,Gelegenheit,wakati,d,NA,NA,NA,NA,sdf,NA,5,NA,NA,NA,NA,NA,NA,NA,NA,NA,NA,NA,NA,NA,NA,NA,NA,NA,NA,NA
ff0f9,task,flow.Sequence,3_0_5_0_0,NA,NA,completion,18099.9,1252064.5999999,1252061.4,1252077.2,1270177.1,1270178.4000001,2024-03-02T07:32:41Z,1270193.8,NULL,Gelegenheit,wakati,d,NA,NA,NA,NA,sdf,NA,5,NA,NA,NA,NA,NA,NA,NA,NA,NA,NA,NA,NA,NA,NA,NA,NA,NA,NA,NA
ff0f9,deep,flow.Sequence,3_0_5_0_1_0,NA,NA,skipped,NA,1270178.5,NA,NA,1270177.1,1270178.5999999,2024-03-02T07:32:41Z,1270193.8,NULL,Gefährdung,kuhatarisha,s,uchokozi,udhaifu,makorowezo,NA,sdf,NA,5,NA,NA,NA,NA,NA,NA,NA,NA,NA,NA,NA,NA,NA,NA,NA,NA,NA,NA,NA
ff0f9,Shallow Question,html.Page,3_0_5_0_1_1_0,NA,NA,form submission,8219.2999999046,1270178.6999998,1270177.1,1270193.8,1278413.0999999,1278413.2999997,2024-03-02T07:32:49Z,1278426.9,NULL,Gefährdung,kuhatarisha,s,uchokozi,udhaifu,makorowezo,kuhatarisha,NA,NA,5,NA,NA,NA,NA,NA,NA,NA,NA,NA,NA,NA,NA,NA,NA,NA,NA,NA,NA,NA
ff0f9,"""Richtig""-Screen",canvas.Screen,3_0_5_0_1_1_1,NA,NA,timeout,5000.1000000001,1278415,1278411.596,1278426.9,1283410.4,1283411.1999998,2024-03-02T07:32:54Z,1283427,NULL,Gefährdung,kuhatarisha,s,uchokozi,udhaifu,makorowezo,NA,sdf,1,5,NA,NA,NA,NA,NA,NA,NA,NA,NA,NA,NA,NA,NA,NA,NA,NA,NA,NA,NA
ff0f9,"""Falsch""-Screen",canvas.Screen,3_0_5_0_1_1_2,NA,NA,skipped,NA,1283415.2999997,NA,NA,1283410.4,1283415.5999999,2024-03-02T07:32:54Z,1283427,NULL,Gefährdung,kuhatarisha,s,uchokozi,udhaifu,makorowezo,NA,sdf,NA,5,NA,NA,NA,NA,NA,NA,NA,NA,NA,NA,NA,NA,NA,NA,NA,NA,NA,NA,NA
ff0f9,shallow,flow.Sequence,3_0_5_0_1_1,NA,NA,completion,13216.6,1270178.6999998,1270177.1,1270193.8,1283410.4,1283415.9000001,2024-03-02T07:32:54Z,1283427,NULL,Gefährdung,kuhatarisha,s,uchokozi,udhaifu,makorowezo,NA,sdf,NA,5,NA,NA,NA,NA,NA,NA,NA,NA,NA,NA,NA,NA,NA,NA,NA,NA,NA,NA,NA
ff0f9,task,flow.Sequence,3_0_5_0_1,NA,NA,completion,13216.6,1270178.5,1270177.1,1270193.8,1283410.4,1283416,2024-03-02T07:32:54Z,1283427,NULL,Gefährdung,kuhatarisha,s,uchokozi,udhaifu,makorowezo,NA,sdf,NA,5,NA,NA,NA,NA,NA,NA,NA,NA,NA,NA,NA,NA,NA,NA,NA,NA,NA,NA,NA
ff0f9,deep,flow.Sequence,3_0_5_0_2_0,NA,NA,skipped,NA,1283416.0999999,NA,NA,1283410.4,1283416.2999997,2024-03-02T07:32:54Z,1283427,NULL,Widerstand,usulubu,s,kusababisha,mwalimu,mwenendo,NA,sdf,NA,5,NA,NA,NA,NA,NA,NA,NA,NA,NA,NA,NA,NA,NA,NA,NA,NA,NA,NA,NA
ff0f9,Shallow Question,html.Page,3_0_5_0_2_1_0,NA,NA,form submission,12956.299999714,1283416.4000001,1283410.4,1283427,1296383.2999997,1296383.5,2024-03-02T07:33:07Z,1296393.7,NULL,Widerstand,usulubu,s,kusababisha,mwalimu,mwenendo,usulubu,NA,NA,5,NA,NA,NA,NA,NA,NA,NA,NA,NA,NA,NA,NA,NA,NA,NA,NA,NA,NA,NA
ff0f9,"""Richtig""-Screen",canvas.Screen,3_0_5_0_2_1_1,NA,NA,timeout,5000.1000000001,1296385.1999998,1296378.328,1296393.7,1301377,1301377.6999998,2024-03-02T07:33:12Z,1301393.8,NULL,Widerstand,usulubu,s,kusababisha,mwalimu,mwenendo,NA,sdf,1,5,NA,NA,NA,NA,NA,NA,NA,NA,NA,NA,NA,NA,NA,NA,NA,NA,NA,NA,NA
ff0f9,"""Falsch""-Screen",canvas.Screen,3_0_5_0_2_1_2,NA,NA,skipped,NA,1301381.9000001,NA,NA,1301377,1301382,2024-03-02T07:33:12Z,1301393.8,NULL,Widerstand,usulubu,s,kusababisha,mwalimu,mwenendo,NA,sdf,NA,5,NA,NA,NA,NA,NA,NA,NA,NA,NA,NA,NA,NA,NA,NA,NA,NA,NA,NA,NA
ff0f9,shallow,flow.Sequence,3_0_5_0_2_1,NA,NA,completion,17950,1283416.4000001,1283410.4,1283427,1301377,1301382.2999997,2024-03-02T07:33:12Z,1301393.8,NULL,Widerstand,usulubu,s,kusababisha,mwalimu,mwenendo,NA,sdf,NA,5,NA,NA,NA,NA,NA,NA,NA,NA,NA,NA,NA,NA,NA,NA,NA,NA,NA,NA,NA
ff0f9,task,flow.Sequence,3_0_5_0_2,NA,NA,completion,17950,1283416.0999999,1283410.4,1283427,1301377,1301382.4000001,2024-03-02T07:33:12Z,1301393.8,NULL,Widerstand,usulubu,s,kusababisha,mwalimu,mwenendo,NA,sdf,NA,5,NA,NA,NA,NA,NA,NA,NA,NA,NA,NA,NA,NA,NA,NA,NA,NA,NA,NA,NA
ff0f9,Deep Question,html.Page,3_0_5_0_3_0_0,NA,NA,form submission,12819.399999809,1301382.5999999,1301377,1301393.8,1314213.1999998,1314213.5,2024-03-02T07:33:25Z,1314226.9,NULL,Kreativität,ubunifu,d,NA,NA,NA,ubunifu,NA,NA,5,NA,NA,NA,NA,NA,NA,NA,NA,NA,NA,NA,NA,NA,NA,NA,NA,NA,NA,NA
ff0f9,"""Richtig""-Screen",canvas.Screen,3_0_5_0_3_0_1,NA,NA,timeout,5000.1000000001,1314215.1999998,1314210.808,1314226.9,1319210.4,1319211,2024-03-02T07:33:30Z,1319227,NULL,Kreativität,ubunifu,d,NA,NA,NA,NA,sdf,1,5,NA,NA,NA,NA,NA,NA,NA,NA,NA,NA,NA,NA,NA,NA,NA,NA,NA,NA,NA
ff0f9,"""Falsch""-Screen",canvas.Screen,3_0_5_0_3_0_2,NA,NA,skipped,NA,1319215.1999998,NA,NA,1319210.4,1319215.4000001,2024-03-02T07:33:30Z,1319227,NULL,Kreativität,ubunifu,d,NA,NA,NA,NA,sdf,NA,5,NA,NA,NA,NA,NA,NA,NA,NA,NA,NA,NA,NA,NA,NA,NA,NA,NA,NA,NA
ff0f9,deep,flow.Sequence,3_0_5_0_3_0,NA,NA,completion,17816.6,1301382.5999999,1301377,1301393.8,1319210.4,1319215.6999998,2024-03-02T07:33:30Z,1319227,NULL,Kreativität,ubunifu,d,NA,NA,NA,NA,sdf,NA,5,NA,NA,NA,NA,NA,NA,NA,NA,NA,NA,NA,NA,NA,NA,NA,NA,NA,NA,NA
ff0f9,shallow,flow.Sequence,3_0_5_0_3_1,NA,NA,skipped,NA,1319215.7999997,NA,NA,1319210.4,1319215.9000001,2024-03-02T07:33:30Z,1319227,NULL,Kreativität,ubunifu,d,NA,NA,NA,NA,sdf,NA,5,NA,NA,NA,NA,NA,NA,NA,NA,NA,NA,NA,NA,NA,NA,NA,NA,NA,NA,NA
ff0f9,task,flow.Sequence,3_0_5_0_3,NA,NA,completion,17816.6,1301382.5999999,1301377,1301393.8,1319210.4,1319216.0999999,2024-03-02T07:33:30Z,1319227,NULL,Kreativität,ubunifu,d,NA,NA,NA,NA,sdf,NA,5,NA,NA,NA,NA,NA,NA,NA,NA,NA,NA,NA,NA,NA,NA,NA,NA,NA,NA,NA
ff0f9,Deep Question,html.Page,3_0_5_0_4_0_0,NA,NA,form submission,26567.299999714,1319216.1999998,1319210.4,1319227,1345794.2999997,1345794.5,2024-03-02T07:33:57Z,1345810.4,NULL,Können,unaweza,d,NA,NA,NA,hubiti,NA,NA,5,NA,NA,NA,NA,NA,NA,NA,NA,NA,NA,NA,NA,NA,NA,NA,NA,NA,NA,NA
ff0f9,"""Richtig""-Screen",canvas.Screen,3_0_5_0_4_0_1,NA,NA,skipped,NA,1345796.1999998,NA,NA,1345794.2999997,1345796.4000001,2024-03-02T07:33:57Z,1345810.4,NULL,Können,unaweza,d,NA,NA,NA,NA,sdf,NA,5,NA,NA,NA,NA,NA,NA,NA,NA,NA,NA,NA,NA,NA,NA,NA,NA,NA,NA,NA
ff0f9,"""Falsch""-Screen",canvas.Screen,3_0_5_0_4_0_2,NA,NA,timeout,5000,1345797,1345793.5,1345810.4,1350793.7,1350794.2999997,2024-03-02T07:34:02Z,1350810.4,NULL,Können,unaweza,d,NA,NA,NA,NA,sdf,0,5,NA,NA,NA,NA,NA,NA,NA,NA,NA,NA,NA,NA,NA,NA,NA,NA,NA,NA,NA
ff0f9,deep,flow.Sequence,3_0_5_0_4_0,NA,NA,completion,31566.7,1319216.1999998,1319210.4,1319227,1350793.7,1350794.6999998,2024-03-02T07:34:02Z,1350810.4,NULL,Können,unaweza,d,NA,NA,NA,NA,sdf,NA,5,NA,NA,NA,NA,NA,NA,NA,NA,NA,NA,NA,NA,NA,NA,NA,NA,NA,NA,NA
ff0f9,shallow,flow.Sequence,3_0_5_0_4_1,NA,NA,skipped,NA,1350794.7999997,NA,NA,1350793.7,1350794.9000001,2024-03-02T07:34:02Z,1350810.4,NULL,Können,unaweza,d,NA,NA,NA,NA,sdf,NA,5,NA,NA,NA,NA,NA,NA,NA,NA,NA,NA,NA,NA,NA,NA,NA,NA,NA,NA,NA
ff0f9,task,flow.Sequence,3_0_5_0_4,NA,NA,completion,31566.7,1319216.1999998,1319210.4,1319227,1350793.7,1350795.0999999,2024-03-02T07:34:02Z,1350810.4,NULL,Können,unaweza,d,NA,NA,NA,NA,sdf,NA,5,NA,NA,NA,NA,NA,NA,NA,NA,NA,NA,NA,NA,NA,NA,NA,NA,NA,NA,NA
ff0f9,deep,flow.Sequence,3_0_5_0_5_0,NA,NA,skipped,NA,1350795.1999998,NA,NA,1350793.7,1350795.2999997,2024-03-02T07:34:02Z,1350810.4,NULL,Verstand,ufahamivu,s,shakawa,hadhari,mhandisi,NA,sdf,NA,5,NA,NA,NA,NA,NA,NA,NA,NA,NA,NA,NA,NA,NA,NA,NA,NA,NA,NA,NA
ff0f9,Shallow Question,html.Page,3_0_5_0_5_1_0,NA,NA,form submission,48485.500000095,1350795.2999997,1350793.7,1350810.4,1399295.9000001,1399296.1999998,2024-03-02T07:34:50Z,1399310.2,NULL,Verstand,ufahamivu,s,shakawa,hadhari,mhandisi,ufahamivu,NA,NA,5,NA,NA,NA,NA,NA,NA,NA,NA,NA,NA,NA,NA,NA,NA,NA,NA,NA,NA,NA
ff0f9,"""Richtig""-Screen",canvas.Screen,3_0_5_0_5_1_1,NA,NA,timeout,5000.1000000001,1399297.7999997,1399293.7,1399310.2,1404293.6,1404294.4000001,2024-03-02T07:34:55Z,1404310.3,NULL,Verstand,ufahamivu,s,shakawa,hadhari,mhandisi,NA,sdf,1,5,NA,NA,NA,NA,NA,NA,NA,NA,NA,NA,NA,NA,NA,NA,NA,NA,NA,NA,NA
ff0f9,"""Falsch""-Screen",canvas.Screen,3_0_5_0_5_1_2,NA,NA,skipped,NA,1404298.6999998,NA,NA,1404293.6,1404299,2024-03-02T07:34:55Z,1404310.3,NULL,Verstand,ufahamivu,s,shakawa,hadhari,mhandisi,NA,sdf,NA,5,NA,NA,NA,NA,NA,NA,NA,NA,NA,NA,NA,NA,NA,NA,NA,NA,NA,NA,NA
ff0f9,shallow,flow.Sequence,3_0_5_0_5_1,NA,NA,completion,53483.2,1350795.2999997,1350793.7,1350810.4,1404293.6,1404299.2999997,2024-03-02T07:34:55Z,1404310.3,NULL,Verstand,ufahamivu,s,shakawa,hadhari,mhandisi,NA,sdf,NA,5,NA,NA,NA,NA,NA,NA,NA,NA,NA,NA,NA,NA,NA,NA,NA,NA,NA,NA,NA
ff0f9,task,flow.Sequence,3_0_5_0_5,NA,NA,completion,53483.2,1350795.0999999,1350793.7,1350810.4,1404293.6,1404299.5999999,2024-03-02T07:34:55Z,1404310.3,NULL,Verstand,ufahamivu,s,shakawa,hadhari,mhandisi,NA,sdf,NA,5,NA,NA,NA,NA,NA,NA,NA,NA,NA,NA,NA,NA,NA,NA,NA,NA,NA,NA,NA
ff0f9,deep,flow.Sequence,3_0_5_0_6_0,NA,NA,skipped,NA,1404299.6999998,NA,NA,1404293.6,1404299.7999997,2024-03-02T07:34:55Z,1404310.3,NULL,Kontrolle,kudhibiti,s,mbinguni,kufunga,utegemezi,NA,sdf,NA,5,NA,NA,NA,NA,NA,NA,NA,NA,NA,NA,NA,NA,NA,NA,NA,NA,NA,NA,NA
ff0f9,Shallow Question,html.Page,3_0_5_0_6_1_0,NA,NA,form submission,23886.7,1404299.9000001,1404293.6,1404310.3,1428197,1428197.1999998,2024-03-02T07:35:19Z,1428210.3,NULL,Kontrolle,kudhibiti,s,mbinguni,kufunga,utegemezi,kudhibiti,NA,NA,5,NA,NA,NA,NA,NA,NA,NA,NA,NA,NA,NA,NA,NA,NA,NA,NA,NA,NA,NA
ff0f9,"""Richtig""-Screen",canvas.Screen,3_0_5_0_6_1_1,NA,NA,timeout,5000,1428199,1428193.676,1428210.3,1433193.6,1433194.1999998,2024-03-02T07:35:24Z,1433210.3,NULL,Kontrolle,kudhibiti,s,mbinguni,kufunga,utegemezi,NA,sdf,1,5,NA,NA,NA,NA,NA,NA,NA,NA,NA,NA,NA,NA,NA,NA,NA,NA,NA,NA,NA
ff0f9,"""Falsch""-Screen",canvas.Screen,3_0_5_0_6_1_2,NA,NA,skipped,NA,1433198.1999998,NA,NA,1433193.6,1433198.4000001,2024-03-02T07:35:24Z,1433210.3,NULL,Kontrolle,kudhibiti,s,mbinguni,kufunga,utegemezi,NA,sdf,NA,5,NA,NA,NA,NA,NA,NA,NA,NA,NA,NA,NA,NA,NA,NA,NA,NA,NA,NA,NA
ff0f9,shallow,flow.Sequence,3_0_5_0_6_1,NA,NA,completion,28883.3,1404299.9000001,1404293.6,1404310.3,1433193.6,1433198.6999998,2024-03-02T07:35:24Z,1433210.3,NULL,Kontrolle,kudhibiti,s,mbinguni,kufunga,utegemezi,NA,sdf,NA,5,NA,NA,NA,NA,NA,NA,NA,NA,NA,NA,NA,NA,NA,NA,NA,NA,NA,NA,NA
ff0f9,task,flow.Sequence,3_0_5_0_6,NA,NA,completion,28883.3,1404299.6999998,1404293.6,1404310.3,1433193.6,1433198.9000001,2024-03-02T07:35:24Z,1433210.3,NULL,Kontrolle,kudhibiti,s,mbinguni,kufunga,utegemezi,NA,sdf,NA,5,NA,NA,NA,NA,NA,NA,NA,NA,NA,NA,NA,NA,NA,NA,NA,NA,NA,NA,NA
ff0f9,Deep Question,html.Page,3_0_5_0_7_0_0,NA,NA,form submission,36174.2,1433199,1433193.6,1433210.3,1469384.5,1469384.6999998,2024-03-02T07:36:00Z,1469393.4,NULL,Ausschluss,kutengwa,d,NA,NA,NA,katahari,NA,NA,5,NA,NA,NA,NA,NA,NA,NA,NA,NA,NA,NA,NA,NA,NA,NA,NA,NA,NA,NA
ff0f9,"""Richtig""-Screen",canvas.Screen,3_0_5_0_7_0_1,NA,NA,skipped,NA,1469386.1999998,NA,NA,1469384.5,1469386.4000001,2024-03-02T07:36:00Z,1469393.4,NULL,Ausschluss,kutengwa,d,NA,NA,NA,NA,sdf,NA,5,NA,NA,NA,NA,NA,NA,NA,NA,NA,NA,NA,NA,NA,NA,NA,NA,NA,NA,NA
ff0f9,"""Falsch""-Screen",canvas.Screen,3_0_5_0_7_0_2,NA,NA,timeout,5000.2000000002,1469386.9000001,1469377.11,1469393.4,1474376.9,1474377.5999999,2024-03-02T07:36:05Z,1474393.6,NULL,Ausschluss,kutengwa,d,NA,NA,NA,NA,sdf,0,5,NA,NA,NA,NA,NA,NA,NA,NA,NA,NA,NA,NA,NA,NA,NA,NA,NA,NA,NA
ff0f9,deep,flow.Sequence,3_0_5_0_7_0,NA,NA,completion,41166.6,1433198.9000001,1433193.6,1433210.3,1474376.9,1474377.9000001,2024-03-02T07:36:05Z,1474393.6,NULL,Ausschluss,kutengwa,d,NA,NA,NA,NA,sdf,NA,5,NA,NA,NA,NA,NA,NA,NA,NA,NA,NA,NA,NA,NA,NA,NA,NA,NA,NA,NA
ff0f9,shallow,flow.Sequence,3_0_5_0_7_1,NA,NA,skipped,NA,1474378,NA,NA,1474376.9,1474378.0999999,2024-03-02T07:36:05Z,1474393.6,NULL,Ausschluss,kutengwa,d,NA,NA,NA,NA,sdf,NA,5,NA,NA,NA,NA,NA,NA,NA,NA,NA,NA,NA,NA,NA,NA,NA,NA,NA,NA,NA
ff0f9,task,flow.Sequence,3_0_5_0_7,NA,NA,completion,41166.6,1433198.9000001,1433193.6,1433210.3,1474376.9,1474378.2999997,2024-03-02T07:36:05Z,1474393.6,NULL,Ausschluss,kutengwa,d,NA,NA,NA,NA,sdf,NA,5,NA,NA,NA,NA,NA,NA,NA,NA,NA,NA,NA,NA,NA,NA,NA,NA,NA,NA,NA
ff0f9,block,flow.Loop,3_0_5_0,NA,NA,completion,222299.7,1252064.5999999,1252061.4,1252077.2,1474376.9,1474378.5,2024-03-02T07:36:05Z,1474393.6,NULL,NA,NA,NA,NA,NA,NA,NA,sdf,NA,5,NA,NA,NA,NA,NA,NA,NA,NA,NA,NA,NA,NA,NA,NA,NA,NA,NA,NA,NA
ff0f9,weiter,canvas.Screen,3_0_5_1,sdf,keypress(Space),response,4315.0999998092,1474378.5999999,1474376.9,1474393.6,1478708.6999998,1478709.5,2024-03-02T07:36:10Z,1478776.9,NULL,NA,NA,NA,NA,NA,NA,NA,sdf,NA,5,NA,NA,NA,NA,NA,NA,NA,NA,NA,NA,NA,NA,NA,NA,NA,NA,NA,NA,NA
ff0f9,check continue,flow.Sequence,3_0_5,NA,NA,completion,226631.49999981,1252064.5999999,1252061.4,1252077.2,1478708.6999998,1478709.7999997,2024-03-02T07:36:10Z,1478776.9,NULL,NA,NA,NA,NA,NA,NA,NA,sdf,NA,5,NA,NA,NA,NA,NA,NA,NA,NA,NA,NA,NA,NA,NA,NA,NA,NA,NA,NA,NA
ff0f9,Deep Question,html.Page,3_0_6_0_0_0_0,NA,NA,form submission,13228.1,1478760.0999999,1478760.6,1478776.9,1492005,1492005.1999998,2024-03-02T07:36:23Z,1492026.9,NULL,Ausschluss,kutengwa,d,NA,NA,NA,kutengwa,NA,NA,6,NA,NA,NA,NA,NA,NA,NA,NA,NA,NA,NA,NA,NA,NA,NA,NA,NA,NA,NA
ff0f9,"""Richtig""-Screen",canvas.Screen,3_0_6_0_0_0_1,NA,NA,timeout,4999.9000000001,1492007.0999999,1492010.3,1492026.9,1497010.2,1497010.9000001,2024-03-02T07:36:28Z,1497026.8,NULL,Ausschluss,kutengwa,d,NA,NA,NA,NA,dfs,1,6,NA,NA,NA,NA,NA,NA,NA,NA,NA,NA,NA,NA,NA,NA,NA,NA,NA,NA,NA
ff0f9,"""Falsch""-Screen",canvas.Screen,3_0_6_0_0_0_2,NA,NA,skipped,NA,1497014.9000001,NA,NA,1497010.2,1497015.0999999,2024-03-02T07:36:28Z,1497026.8,NULL,Ausschluss,kutengwa,d,NA,NA,NA,NA,dfs,NA,6,NA,NA,NA,NA,NA,NA,NA,NA,NA,NA,NA,NA,NA,NA,NA,NA,NA,NA,NA
ff0f9,deep,flow.Sequence,3_0_6_0_0_0,NA,NA,completion,18233.3,1478760.0999999,1478760.6,1478776.9,1497010.2,1497015.2999997,2024-03-02T07:36:28Z,1497026.8,NULL,Ausschluss,kutengwa,d,NA,NA,NA,NA,dfs,NA,6,NA,NA,NA,NA,NA,NA,NA,NA,NA,NA,NA,NA,NA,NA,NA,NA,NA,NA,NA
ff0f9,shallow,flow.Sequence,3_0_6_0_0_1,NA,NA,skipped,NA,1497015.5,NA,NA,1497010.2,1497015.5,2024-03-02T07:36:28Z,1497026.8,NULL,Ausschluss,kutengwa,d,NA,NA,NA,NA,dfs,NA,6,NA,NA,NA,NA,NA,NA,NA,NA,NA,NA,NA,NA,NA,NA,NA,NA,NA,NA,NA
ff0f9,task,flow.Sequence,3_0_6_0_0,NA,NA,completion,18233.3,1478760.0999999,1478760.6,1478776.9,1497010.2,1497015.6999998,2024-03-02T07:36:28Z,1497026.8,NULL,Ausschluss,kutengwa,d,NA,NA,NA,NA,dfs,NA,6,NA,NA,NA,NA,NA,NA,NA,NA,NA,NA,NA,NA,NA,NA,NA,NA,NA,NA,NA
ff0f9,deep,flow.Sequence,3_0_6_0_1_0,NA,NA,skipped,NA,1497015.6999998,NA,NA,1497010.2,1497015.7999997,2024-03-02T07:36:28Z,1497026.8,NULL,Gefährdung,kuhatarisha,s,uchokozi,udhaifu,makorowezo,NA,dfs,NA,6,NA,NA,NA,NA,NA,NA,NA,NA,NA,NA,NA,NA,NA,NA,NA,NA,NA,NA,NA
ff0f9,Shallow Question,html.Page,3_0_6_0_1_1_0,NA,NA,form submission,13487.899999809,1497016,1497010.2,1497026.8,1510514.6999998,1510515,2024-03-02T07:36:42Z,1510526.8,NULL,Gefährdung,kuhatarisha,s,uchokozi,udhaifu,makorowezo,kuhatarisha,NA,NA,6,NA,NA,NA,NA,NA,NA,NA,NA,NA,NA,NA,NA,NA,NA,NA,NA,NA,NA,NA
ff0f9,"""Richtig""-Screen",canvas.Screen,3_0_6_0_1_1_1,NA,NA,timeout,5000.0999999999,1510516.7999997,1510510.282,1510526.8,1515510.2,1515510.7999997,2024-03-02T07:36:47Z,1515526.9,NULL,Gefährdung,kuhatarisha,s,uchokozi,udhaifu,makorowezo,NA,dfs,1,6,NA,NA,NA,NA,NA,NA,NA,NA,NA,NA,NA,NA,NA,NA,NA,NA,NA,NA,NA
ff0f9,"""Falsch""-Screen",canvas.Screen,3_0_6_0_1_1_2,NA,NA,skipped,NA,1515514.7999997,NA,NA,1515510.2,1515515.0999999,2024-03-02T07:36:47Z,1515526.9,NULL,Gefährdung,kuhatarisha,s,uchokozi,udhaifu,makorowezo,NA,dfs,NA,6,NA,NA,NA,NA,NA,NA,NA,NA,NA,NA,NA,NA,NA,NA,NA,NA,NA,NA,NA
ff0f9,shallow,flow.Sequence,3_0_6_0_1_1,NA,NA,completion,18483.4,1497015.9000001,1497010.2,1497026.8,1515510.2,1515515.2999997,2024-03-02T07:36:47Z,1515526.9,NULL,Gefährdung,kuhatarisha,s,uchokozi,udhaifu,makorowezo,NA,dfs,NA,6,NA,NA,NA,NA,NA,NA,NA,NA,NA,NA,NA,NA,NA,NA,NA,NA,NA,NA,NA
ff0f9,task,flow.Sequence,3_0_6_0_1,NA,NA,completion,18483.4,1497015.6999998,1497010.2,1497026.8,1515510.2,1515515.4000001,2024-03-02T07:36:47Z,1515526.9,NULL,Gefährdung,kuhatarisha,s,uchokozi,udhaifu,makorowezo,NA,dfs,NA,6,NA,NA,NA,NA,NA,NA,NA,NA,NA,NA,NA,NA,NA,NA,NA,NA,NA,NA,NA
ff0f9,deep,flow.Sequence,3_0_6_0_2_0,NA,NA,skipped,NA,1515515.5,NA,NA,1515510.2,1515515.5999999,2024-03-02T07:36:47Z,1515526.9,NULL,Kontrolle,kudhibiti,s,mbinguni,kufunga,utegemezi,NA,dfs,NA,6,NA,NA,NA,NA,NA,NA,NA,NA,NA,NA,NA,NA,NA,NA,NA,NA,NA,NA,NA
ff0f9,Shallow Question,html.Page,3_0_6_0_2_1_0,NA,NA,form submission,29790.799999809,1515515.6999998,1515510.2,1515526.9,1545317.6999998,1545318,2024-03-02T07:37:16Z,1545326.9,NULL,Kontrolle,kudhibiti,s,mbinguni,kufunga,utegemezi,kufunga,NA,NA,6,NA,NA,NA,NA,NA,NA,NA,NA,NA,NA,NA,NA,NA,NA,NA,NA,NA,NA,NA
ff0f9,"""Richtig""-Screen",canvas.Screen,3_0_6_0_2_1_1,NA,NA,skipped,NA,1545319.6999998,NA,NA,1545317.6999998,1545319.7999997,2024-03-02T07:37:16Z,1545326.9,NULL,Kontrolle,kudhibiti,s,mbinguni,kufunga,utegemezi,NA,dfs,NA,6,NA,NA,NA,NA,NA,NA,NA,NA,NA,NA,NA,NA,NA,NA,NA,NA,NA,NA,NA
ff0f9,"""Falsch""-Screen",canvas.Screen,3_0_6_0_2_1_2,NA,NA,timeout,4999.8,1545320.4000001,1545310.2,1545326.9,1550310.2,1550310.9000001,2024-03-02T07:37:21Z,1550326.7,NULL,Kontrolle,kudhibiti,s,mbinguni,kufunga,utegemezi,NA,dfs,0,6,NA,NA,NA,NA,NA,NA,NA,NA,NA,NA,NA,NA,NA,NA,NA,NA,NA,NA,NA
ff0f9,shallow,flow.Sequence,3_0_6_0_2_1,NA,NA,completion,34783.3,1515515.6999998,1515510.2,1515526.9,1550310.2,1550311.1999998,2024-03-02T07:37:21Z,1550326.7,NULL,Kontrolle,kudhibiti,s,mbinguni,kufunga,utegemezi,NA,dfs,NA,6,NA,NA,NA,NA,NA,NA,NA,NA,NA,NA,NA,NA,NA,NA,NA,NA,NA,NA,NA
ff0f9,task,flow.Sequence,3_0_6_0_2,NA,NA,completion,34783.3,1515515.5,1515510.2,1515526.9,1550310.2,1550311.5,2024-03-02T07:37:21Z,1550326.7,NULL,Kontrolle,kudhibiti,s,mbinguni,kufunga,utegemezi,NA,dfs,NA,6,NA,NA,NA,NA,NA,NA,NA,NA,NA,NA,NA,NA,NA,NA,NA,NA,NA,NA,NA
ff0f9,deep,flow.Sequence,3_0_6_0_3_0,NA,NA,skipped,NA,1550311.5,NA,NA,1550310.2,1550311.5999999,2024-03-02T07:37:21Z,1550326.7,NULL,Widerstand,usulubu,s,kusababisha,mwalimu,mwenendo,NA,dfs,NA,6,NA,NA,NA,NA,NA,NA,NA,NA,NA,NA,NA,NA,NA,NA,NA,NA,NA,NA,NA
