observation,sender,sender_type,sender_id,response,response_action,ended_on,duration,time_run,time_render,time_show,time_end,time_commit,timestamp,time_switch,distractors,german,swahili,enc,distractor1,distractor2,distractor3,response_2,x,correct,x_2,url_vp,url_sess,meta_labjs_version,meta_location,meta_user_agent,meta_platform,meta_language,meta_locale,meta_time_zone,meta_timezone_offset,meta_screen_width,meta_screen_height,meta_scroll_width,meta_scroll_height,meta_window_inner_width,meta_window_inner_height,meta_device_pixel_ratio,meta_labjs_build_flavor,meta_labjs_build_commit
646b3,Introduction general,canvas.Screen,0,weiter,keypress(q),response,35898.500000024,358.5,169.1,369.1,36267.600000024,36269.399999976,2023-12-16T09:56:13Z,36285.9,NULL,NA,NA,NA,NA,NA,NA,NA,NA,NA,NA,149,3,20.2.4,https://neurocog.fernuni.ch/studies/vweber/jbaenninger/encoding_immediate/index.html?vp=149&sess=3,"Mozilla/5.0 (Windows NT 10.0; Win64; x64) AppleWebKit/537.36 (KHTML, like Gecko) Chrome/120.0.0.0 Safari/537.36 Edg/120.0.0.0",Win32,de,de-CH,Europe/Zurich,-60,1920,1080,1872,910,1872,958,1,production,f5b4a49f956347addd546a832a3327688c2c0fef
646b3,Introduction practice,canvas.Screen,1_0,NA,keypress(Space),response,7348.9999999762,36270,36267.9,36285.9,43634.899999976,43635.899999976,2023-12-16T09:56:20Z,43652.5,NULL,NA,NA,NA,NA,NA,NA,NA,NA,NA,NA,NA,NA,NA,NA,NA,NA,NA,NA,NA,NA,NA,NA,NA,NA,NA,NA,NA,NA,NA
646b3,deep,flow.Sequence,1_1_0_0,NA,NA,skipped,NA,43636.299999952,NA,NA,43634.899999976,43636.700000048,2023-12-16T09:56:20Z,43652.5,"c(""distractor1"", ""distractor2"", ""distractor3"")",Kritik,lawama,s,dereva,nafasi,mawazo,NA,NA,NA,NA,NA,NA,NA,NA,NA,NA,NA,NA,NA,NA,NA,NA,NA,NA,NA,NA,NA,NA,NA
646b3,Shallow Question,html.Page,1_1_0_1_0,NA,NA,form submission,9056.2000000477,43636.899999976,43637.8,43652.5,52708.700000048,52708.899999976,2023-12-16T09:56:29Z,52719.1,"c(""distractor1"", ""distractor2"", ""distractor3"")",Kritik,lawama,s,dereva,nafasi,mawazo,nafasi,NA,NA,NA,NA,NA,NA,NA,NA,NA,NA,NA,NA,NA,NA,NA,NA,NA,NA,NA,NA,NA,NA
646b3,"""Richtig""-Screen",canvas.Screen,1_1_0_1_1,NA,NA,skipped,NA,52710,NA,NA,52708.700000048,52710.299999952,2023-12-16T09:56:29Z,52719.1,"c(""distractor1"", ""distractor2"", ""distractor3"")",Kritik,lawama,s,dereva,nafasi,mawazo,NA,NA,NA,NA,NA,NA,NA,NA,NA,NA,NA,NA,NA,NA,NA,NA,NA,NA,NA,NA,NA,NA,NA
646b3,"""Falsch""-Screen",canvas.Screen,1_1_0_1_2,NA,NA,timeout,5000,52711.200000048,52702.6,52719.1,57702.5,57703.5,2023-12-16T09:56:34Z,57719.1,"c(""distractor1"", ""distractor2"", ""distractor3"")",Kritik,lawama,s,dereva,nafasi,mawazo,NA,NA,0,NA,NA,NA,NA,NA,NA,NA,NA,NA,NA,NA,NA,NA,NA,NA,NA,NA,NA,NA,NA
646b3,shallow,flow.Sequence,1_1_0_1,NA,NA,completion,14050,43636.899999976,43637.8,43652.5,57702.5,57703.899999976,2023-12-16T09:56:34Z,57719.1,"c(""distractor1"", ""distractor2"", ""distractor3"")",Kritik,lawama,s,dereva,nafasi,mawazo,NA,NA,NA,NA,NA,NA,NA,NA,NA,NA,NA,NA,NA,NA,NA,NA,NA,NA,NA,NA,NA,NA,NA
646b3,task,flow.Sequence,1_1_0,NA,NA,completion,14050,43636.299999952,43637.8,43652.5,57702.5,57704.100000024,2023-12-16T09:56:34Z,57719.1,"c(""distractor1"", ""distractor2"", ""distractor3"")",Kritik,lawama,s,dereva,nafasi,mawazo,NA,NA,NA,NA,NA,NA,NA,NA,NA,NA,NA,NA,NA,NA,NA,NA,NA,NA,NA,NA,NA,NA,NA
646b3,deep,flow.Sequence,1_1_1_0,NA,NA,skipped,NA,57704.399999976,NA,NA,57702.5,57704.5,2023-12-16T09:56:34Z,57719.1,"c(""distractor1"", ""distractor2"", ""distractor3"")",Gegenwart,hadhara,s,katiba,jokofu,mikopo,NA,NA,NA,NA,NA,NA,NA,NA,NA,NA,NA,NA,NA,NA,NA,NA,NA,NA,NA,NA,NA,NA,NA
646b3,Shallow Question,html.Page,1_1_1_1_0,NA,NA,form submission,5548.6999999523,57704.700000048,57702.5,57719.1,63267.799999952,63268.100000024,2023-12-16T09:56:40Z,63269.3,"c(""distractor1"", ""distractor2"", ""distractor3"")",Gegenwart,hadhara,s,katiba,jokofu,mikopo,mikopo,NA,NA,NA,NA,NA,NA,NA,NA,NA,NA,NA,NA,NA,NA,NA,NA,NA,NA,NA,NA,NA,NA
646b3,"""Richtig""-Screen",canvas.Screen,1_1_1_1_1,NA,NA,skipped,NA,63270,NA,NA,63267.799999952,63270.299999952,2023-12-16T09:56:40Z,63269.3,"c(""distractor1"", ""distractor2"", ""distractor3"")",Gegenwart,hadhara,s,katiba,jokofu,mikopo,NA,NA,NA,NA,NA,NA,NA,NA,NA,NA,NA,NA,NA,NA,NA,NA,NA,NA,NA,NA,NA,NA,NA
646b3,"""Falsch""-Screen",canvas.Screen,1_1_1_1_2,NA,NA,timeout,4999.9,63271,63269.3,63269.3,68252.5,68253.299999952,2023-12-16T09:56:45Z,68269.2,"c(""distractor1"", ""distractor2"", ""distractor3"")",Gegenwart,hadhara,s,katiba,jokofu,mikopo,NA,NA,0,NA,NA,NA,NA,NA,NA,NA,NA,NA,NA,NA,NA,NA,NA,NA,NA,NA,NA,NA,NA
646b3,shallow,flow.Sequence,1_1_1_1,NA,NA,completion,10533.4,57704.600000024,57702.5,57719.1,68252.5,68253.700000048,2023-12-16T09:56:45Z,68269.2,"c(""distractor1"", ""distractor2"", ""distractor3"")",Gegenwart,hadhara,s,katiba,jokofu,mikopo,NA,NA,NA,NA,NA,NA,NA,NA,NA,NA,NA,NA,NA,NA,NA,NA,NA,NA,NA,NA,NA,NA,NA
646b3,task,flow.Sequence,1_1_1,NA,NA,completion,10533.4,57704.299999952,57702.5,57719.1,68252.5,68254,2023-12-16T09:56:45Z,68269.2,"c(""distractor1"", ""distractor2"", ""distractor3"")",Gegenwart,hadhara,s,katiba,jokofu,mikopo,NA,NA,NA,NA,NA,NA,NA,NA,NA,NA,NA,NA,NA,NA,NA,NA,NA,NA,NA,NA,NA,NA,NA
646b3,Deep Question,html.Page,1_1_2_0_0,NA,NA,form submission,11118.900000024,68254.299999952,68252.5,68269.2,79388.100000024,79388.399999976,2023-12-16T09:56:56Z,79402.5,"c(""distractor1"", ""distractor2"", ""distractor3"")",Gesundheit,salama,d,NA,NA,NA,horiki,NA,NA,NA,NA,NA,NA,NA,NA,NA,NA,NA,NA,NA,NA,NA,NA,NA,NA,NA,NA,NA,NA
646b3,"""Richtig""-Screen",canvas.Screen,1_1_2_0_1,NA,NA,skipped,NA,79390.600000024,NA,NA,79388.100000024,79390.700000048,2023-12-16T09:56:56Z,79402.5,"c(""distractor1"", ""distractor2"", ""distractor3"")",Gesundheit,salama,d,NA,NA,NA,NA,NA,NA,NA,NA,NA,NA,NA,NA,NA,NA,NA,NA,NA,NA,NA,NA,NA,NA,NA,NA,NA,NA
646b3,"""Falsch""-Screen",canvas.Screen,1_1_2_0_2,NA,NA,timeout,5000.1,79391.5,79386.7,79402.5,84385.8,84386.600000024,2023-12-16T09:57:01Z,84402.6,"c(""distractor1"", ""distractor2"", ""distractor3"")",Gesundheit,salama,d,NA,NA,NA,NA,NA,0,NA,NA,NA,NA,NA,NA,NA,NA,NA,NA,NA,NA,NA,NA,NA,NA,NA,NA,NA,NA
646b3,deep,flow.Sequence,1_1_2_0,NA,NA,completion,16116.6,68254.200000048,68252.5,68269.2,84385.8,84386.899999976,2023-12-16T09:57:01Z,84402.6,"c(""distractor1"", ""distractor2"", ""distractor3"")",Gesundheit,salama,d,NA,NA,NA,NA,NA,NA,NA,NA,NA,NA,NA,NA,NA,NA,NA,NA,NA,NA,NA,NA,NA,NA,NA,NA,NA,NA
646b3,shallow,flow.Sequence,1_1_2_1,NA,NA,skipped,NA,84387.100000024,NA,NA,84385.8,84387.200000048,2023-12-16T09:57:01Z,84402.6,"c(""distractor1"", ""distractor2"", ""distractor3"")",Gesundheit,salama,d,NA,NA,NA,NA,NA,NA,NA,NA,NA,NA,NA,NA,NA,NA,NA,NA,NA,NA,NA,NA,NA,NA,NA,NA,NA,NA
646b3,task,flow.Sequence,1_1_2,NA,NA,completion,16116.6,68254.200000048,68252.5,68269.2,84385.8,84387.399999976,2023-12-16T09:57:01Z,84402.6,"c(""distractor1"", ""distractor2"", ""distractor3"")",Gesundheit,salama,d,NA,NA,NA,NA,NA,NA,NA,NA,NA,NA,NA,NA,NA,NA,NA,NA,NA,NA,NA,NA,NA,NA,NA,NA,NA,NA
646b3,deep,flow.Sequence,1_1_3_0,NA,NA,skipped,NA,84387.5,NA,NA,84385.8,84387.600000024,2023-12-16T09:57:01Z,84402.6,"c(""distractor1"", ""distractor2"", ""distractor3"")",Rückhalt,msaada,s,muhula,auwali,kiwimbe,NA,NA,NA,NA,NA,NA,NA,NA,NA,NA,NA,NA,NA,NA,NA,NA,NA,NA,NA,NA,NA,NA,NA
646b3,Shallow Question,html.Page,1_1_3_1_0,NA,NA,form submission,7641.2999999762,84387.700000048,84385.8,84402.6,92043.899999976,92044.100000024,2023-12-16T09:57:09Z,92052.4,"c(""distractor1"", ""distractor2"", ""distractor3"")",Rückhalt,msaada,s,muhula,auwali,kiwimbe,muhula,NA,NA,NA,NA,NA,NA,NA,NA,NA,NA,NA,NA,NA,NA,NA,NA,NA,NA,NA,NA,NA,NA
646b3,"""Richtig""-Screen",canvas.Screen,1_1_3_1_1,NA,NA,skipped,NA,92045.899999976,NA,NA,92043.899999976,92046,2023-12-16T09:57:09Z,92052.4,"c(""distractor1"", ""distractor2"", ""distractor3"")",Rückhalt,msaada,s,muhula,auwali,kiwimbe,NA,NA,NA,NA,NA,NA,NA,NA,NA,NA,NA,NA,NA,NA,NA,NA,NA,NA,NA,NA,NA,NA,NA
646b3,"""Falsch""-Screen",canvas.Screen,1_1_3_1_2,NA,NA,timeout,5000.2,92046.600000024,92036,92052.4,97035.9,97036.600000024,2023-12-16T09:57:14Z,97052.6,"c(""distractor1"", ""distractor2"", ""distractor3"")",Rückhalt,msaada,s,muhula,auwali,kiwimbe,NA,NA,0,NA,NA,NA,NA,NA,NA,NA,NA,NA,NA,NA,NA,NA,NA,NA,NA,NA,NA,NA,NA
646b3,shallow,flow.Sequence,1_1_3_1,NA,NA,completion,12633.3,84387.700000048,84385.8,84402.6,97035.9,97036.899999976,2023-12-16T09:57:14Z,97052.6,"c(""distractor1"", ""distractor2"", ""distractor3"")",Rückhalt,msaada,s,muhula,auwali,kiwimbe,NA,NA,NA,NA,NA,NA,NA,NA,NA,NA,NA,NA,NA,NA,NA,NA,NA,NA,NA,NA,NA,NA,NA
646b3,task,flow.Sequence,1_1_3,NA,NA,completion,12633.3,84387.399999976,84385.8,84402.6,97035.9,97037.100000024,2023-12-16T09:57:14Z,97052.6,"c(""distractor1"", ""distractor2"", ""distractor3"")",Rückhalt,msaada,s,muhula,auwali,kiwimbe,NA,NA,NA,NA,NA,NA,NA,NA,NA,NA,NA,NA,NA,NA,NA,NA,NA,NA,NA,NA,NA,NA,NA
646b3,Deep Question,html.Page,1_1_4_0_0,NA,NA,form submission,20319.600000048,97037.299999952,97035.9,97052.6,117372.20000005,117372.5,2023-12-16T09:57:34Z,117385.7,"c(""distractor1"", ""distractor2"", ""distractor3"")",Qualität,mtindo,d,NA,NA,NA,unigola,NA,NA,NA,NA,NA,NA,NA,NA,NA,NA,NA,NA,NA,NA,NA,NA,NA,NA,NA,NA,NA,NA
646b3,"""Richtig""-Screen",canvas.Screen,1_1_4_0_1,NA,NA,skipped,NA,117374.5,NA,NA,117372.20000005,117374.60000002,2023-12-16T09:57:34Z,117385.7,"c(""distractor1"", ""distractor2"", ""distractor3"")",Qualität,mtindo,d,NA,NA,NA,NA,NA,NA,NA,NA,NA,NA,NA,NA,NA,NA,NA,NA,NA,NA,NA,NA,NA,NA,NA,NA,NA,NA
646b3,"""Falsch""-Screen",canvas.Screen,1_1_4_0_2,NA,NA,timeout,5000.1,117375.39999998,117369.5,117385.7,122369.2,122370,2023-12-16T09:57:39Z,122385.8,"c(""distractor1"", ""distractor2"", ""distractor3"")",Qualität,mtindo,d,NA,NA,NA,NA,NA,0,NA,NA,NA,NA,NA,NA,NA,NA,NA,NA,NA,NA,NA,NA,NA,NA,NA,NA,NA,NA
646b3,deep,flow.Sequence,1_1_4_0,NA,NA,completion,25316.6,97037.299999952,97035.9,97052.6,122369.2,122370.29999995,2023-12-16T09:57:39Z,122385.8,"c(""distractor1"", ""distractor2"", ""distractor3"")",Qualität,mtindo,d,NA,NA,NA,NA,NA,NA,NA,NA,NA,NA,NA,NA,NA,NA,NA,NA,NA,NA,NA,NA,NA,NA,NA,NA,NA,NA
646b3,shallow,flow.Sequence,1_1_4_1,NA,NA,skipped,NA,122370.39999998,NA,NA,122369.2,122370.5,2023-12-16T09:57:39Z,122385.8,"c(""distractor1"", ""distractor2"", ""distractor3"")",Qualität,mtindo,d,NA,NA,NA,NA,NA,NA,NA,NA,NA,NA,NA,NA,NA,NA,NA,NA,NA,NA,NA,NA,NA,NA,NA,NA,NA,NA
646b3,task,flow.Sequence,1_1_4,NA,NA,completion,25316.6,97037.299999952,97035.9,97052.6,122369.2,122370.70000005,2023-12-16T09:57:39Z,122385.8,"c(""distractor1"", ""distractor2"", ""distractor3"")",Qualität,mtindo,d,NA,NA,NA,NA,NA,NA,NA,NA,NA,NA,NA,NA,NA,NA,NA,NA,NA,NA,NA,NA,NA,NA,NA,NA,NA,NA
646b3,Deep Question,html.Page,1_1_5_0_0,NA,NA,form submission,17578.400000048,122370.89999998,122369.2,122385.8,139964.20000005,139964.39999998,2023-12-16T09:57:57Z,139969,"c(""distractor1"", ""distractor2"", ""distractor3"")",Schatten,kivuli,d,NA,NA,NA,moliunda,NA,NA,NA,NA,NA,NA,NA,NA,NA,NA,NA,NA,NA,NA,NA,NA,NA,NA,NA,NA,NA,NA
646b3,"""Richtig""-Screen",canvas.Screen,1_1_5_0_1,NA,NA,skipped,NA,139966.29999995,NA,NA,139964.20000005,139966.39999998,2023-12-16T09:57:57Z,139969,"c(""distractor1"", ""distractor2"", ""distractor3"")",Schatten,kivuli,d,NA,NA,NA,NA,NA,NA,NA,NA,NA,NA,NA,NA,NA,NA,NA,NA,NA,NA,NA,NA,NA,NA,NA,NA,NA,NA
646b3,"""Falsch""-Screen",canvas.Screen,1_1_5_0_2,NA,NA,timeout,5000.1,139967,139952.6,139969,144952.5,144953.20000005,2023-12-16T09:58:02Z,144969.1,"c(""distractor1"", ""distractor2"", ""distractor3"")",Schatten,kivuli,d,NA,NA,NA,NA,NA,0,NA,NA,NA,NA,NA,NA,NA,NA,NA,NA,NA,NA,NA,NA,NA,NA,NA,NA,NA,NA
646b3,deep,flow.Sequence,1_1_5_0,NA,NA,completion,22566.7,122370.79999995,122369.2,122385.8,144952.5,144953.5,2023-12-16T09:58:02Z,144969.1,"c(""distractor1"", ""distractor2"", ""distractor3"")",Schatten,kivuli,d,NA,NA,NA,NA,NA,NA,NA,NA,NA,NA,NA,NA,NA,NA,NA,NA,NA,NA,NA,NA,NA,NA,NA,NA,NA,NA
646b3,shallow,flow.Sequence,1_1_5_1,NA,NA,skipped,NA,144953.60000002,NA,NA,144952.5,144953.70000005,2023-12-16T09:58:02Z,144969.1,"c(""distractor1"", ""distractor2"", ""distractor3"")",Schatten,kivuli,d,NA,NA,NA,NA,NA,NA,NA,NA,NA,NA,NA,NA,NA,NA,NA,NA,NA,NA,NA,NA,NA,NA,NA,NA,NA,NA
646b3,task,flow.Sequence,1_1_5,NA,NA,completion,22566.7,122370.79999995,122369.2,122385.8,144952.5,144953.89999998,2023-12-16T09:58:02Z,144969.1,"c(""distractor1"", ""distractor2"", ""distractor3"")",Schatten,kivuli,d,NA,NA,NA,NA,NA,NA,NA,NA,NA,NA,NA,NA,NA,NA,NA,NA,NA,NA,NA,NA,NA,NA,NA,NA,NA,NA
646b3,block,flow.Loop,1_1,NA,NA,completion,101300,43636.200000048,43637.8,43652.5,144952.5,144954,2023-12-16T09:58:02Z,144969.1,"c(""distractor1"", ""distractor2"", ""distractor3"")",NA,NA,NA,NA,NA,NA,NA,NA,NA,NA,NA,NA,NA,NA,NA,NA,NA,NA,NA,NA,NA,NA,NA,NA,NA,NA,NA,NA,NA
646b3,Practice,flow.Sequence,1,NA,NA,completion,108666.6,36269.899999976,36267.9,36285.9,144952.5,144954.20000005,2023-12-16T09:58:02Z,144969.1,NULL,NA,NA,NA,NA,NA,NA,NA,NA,NA,NA,NA,NA,NA,NA,NA,NA,NA,NA,NA,NA,NA,NA,NA,NA,NA,NA,NA,NA,NA
646b3,Experiment start,canvas.Screen,2,weiter,keypress(q),response,9738.6000000477,144954.29999995,144952.5,144969.1,154707.70000005,154708.70000005,2023-12-16T09:58:11Z,154835.7,NULL,NA,NA,NA,NA,NA,NA,NA,NA,NA,NA,NA,NA,NA,NA,NA,NA,NA,NA,NA,NA,NA,NA,NA,NA,NA,NA,NA,NA,NA
646b3,deep,flow.Sequence,3_0_0_0_0_0,NA,NA,skipped,NA,154826,NA,NA,154707.70000005,154826.10000002,2023-12-16T09:58:12Z,154835.7,NULL,Schlange,foleni,s,uvumilivu,uteuzi,muuzaji,NA,sdf,NA,0,NA,NA,NA,NA,NA,NA,NA,NA,NA,NA,NA,NA,NA,NA,NA,NA,NA,NA,NA
646b3,Shallow Question,html.Page,3_0_0_0_0_1_0,NA,NA,form submission,10456.599999952,154826.29999995,154821.8,154835.7,165292.29999995,165292.60000002,2023-12-16T09:58:22Z,165302.4,NULL,Schlange,foleni,s,uvumilivu,uteuzi,muuzaji,foleni,NA,NA,0,NA,NA,NA,NA,NA,NA,NA,NA,NA,NA,NA,NA,NA,NA,NA,NA,NA,NA,NA
646b3,"""Richtig""-Screen",canvas.Screen,3_0_0_0_0_1_1,NA,NA,timeout,5000,165294.5,165285.9,165302.4,170285.9,170286.70000005,2023-12-16T09:58:27Z,170302.4,NULL,Schlange,foleni,s,uvumilivu,uteuzi,muuzaji,NA,sdf,1,0,NA,NA,NA,NA,NA,NA,NA,NA,NA,NA,NA,NA,NA,NA,NA,NA,NA,NA,NA
646b3,"""Falsch""-Screen",canvas.Screen,3_0_0_0_0_1_2,NA,NA,skipped,NA,170290.79999995,NA,NA,170285.9,170290.89999998,2023-12-16T09:58:27Z,170302.4,NULL,Schlange,foleni,s,uvumilivu,uteuzi,muuzaji,NA,sdf,NA,0,NA,NA,NA,NA,NA,NA,NA,NA,NA,NA,NA,NA,NA,NA,NA,NA,NA,NA,NA
646b3,shallow,flow.Sequence,3_0_0_0_0_1,NA,NA,completion,15450.2,154826.29999995,154821.8,154835.7,170285.9,170291.20000005,2023-12-16T09:58:27Z,170302.4,NULL,Schlange,foleni,s,uvumilivu,uteuzi,muuzaji,NA,sdf,NA,0,NA,NA,NA,NA,NA,NA,NA,NA,NA,NA,NA,NA,NA,NA,NA,NA,NA,NA,NA
646b3,task,flow.Sequence,3_0_0_0_0,NA,NA,completion,15450.2,154826,154821.8,154835.7,170285.9,170291.29999995,2023-12-16T09:58:27Z,170302.4,NULL,Schlange,foleni,s,uvumilivu,uteuzi,muuzaji,NA,sdf,NA,0,NA,NA,NA,NA,NA,NA,NA,NA,NA,NA,NA,NA,NA,NA,NA,NA,NA,NA,NA
646b3,Deep Question,html.Page,3_0_0_0_1_0_0,NA,NA,form submission,9573.6,170291.5,170285.9,170302.4,179876,179876.20000005,2023-12-16T09:58:37Z,179885.9,NULL,Vermutung,udhanifu,d,NA,NA,NA,enula,NA,NA,0,NA,NA,NA,NA,NA,NA,NA,NA,NA,NA,NA,NA,NA,NA,NA,NA,NA,NA,NA
646b3,"""Richtig""-Screen",canvas.Screen,3_0_0_0_1_0_1,NA,NA,skipped,NA,179877.89999998,NA,NA,179876,179878.10000002,2023-12-16T09:58:37Z,179885.9,NULL,Vermutung,udhanifu,d,NA,NA,NA,NA,sdf,NA,0,NA,NA,NA,NA,NA,NA,NA,NA,NA,NA,NA,NA,NA,NA,NA,NA,NA,NA,NA
646b3,"""Falsch""-Screen",canvas.Screen,3_0_0_0_1_0_2,NA,NA,timeout,5000,179878.60000002,179869.4,179885.9,184869.2,184869.79999995,2023-12-16T09:58:42Z,184885.9,NULL,Vermutung,udhanifu,d,NA,NA,NA,NA,sdf,0,0,NA,NA,NA,NA,NA,NA,NA,NA,NA,NA,NA,NA,NA,NA,NA,NA,NA,NA,NA
646b3,deep,flow.Sequence,3_0_0_0_1_0,NA,NA,completion,14566.8,170291.39999998,170285.9,170302.4,184869.2,184870.10000002,2023-12-16T09:58:42Z,184885.9,NULL,Vermutung,udhanifu,d,NA,NA,NA,NA,sdf,NA,0,NA,NA,NA,NA,NA,NA,NA,NA,NA,NA,NA,NA,NA,NA,NA,NA,NA,NA,NA
646b3,shallow,flow.Sequence,3_0_0_0_1_1,NA,NA,skipped,NA,184870.20000005,NA,NA,184869.2,184870.39999998,2023-12-16T09:58:42Z,184885.9,NULL,Vermutung,udhanifu,d,NA,NA,NA,NA,sdf,NA,0,NA,NA,NA,NA,NA,NA,NA,NA,NA,NA,NA,NA,NA,NA,NA,NA,NA,NA,NA
646b3,task,flow.Sequence,3_0_0_0_1,NA,NA,completion,14566.8,170291.39999998,170285.9,170302.4,184869.2,184870.5,2023-12-16T09:58:42Z,184885.9,NULL,Vermutung,udhanifu,d,NA,NA,NA,NA,sdf,NA,0,NA,NA,NA,NA,NA,NA,NA,NA,NA,NA,NA,NA,NA,NA,NA,NA,NA,NA,NA
646b3,Deep Question,html.Page,3_0_0_0_2_0_0,NA,NA,form submission,8445.7000000238,184870.5,184869.2,184885.9,193331.60000002,193331.70000005,2023-12-16T09:58:50Z,193335.7,NULL,Fleisch,mshakiki,d,NA,NA,NA,raligu,NA,NA,0,NA,NA,NA,NA,NA,NA,NA,NA,NA,NA,NA,NA,NA,NA,NA,NA,NA,NA,NA
646b3,"""Richtig""-Screen",canvas.Screen,3_0_0_0_2_0_1,NA,NA,skipped,NA,193333.20000005,NA,NA,193331.60000002,193333.29999995,2023-12-16T09:58:50Z,193335.7,NULL,Fleisch,mshakiki,d,NA,NA,NA,NA,sdf,NA,0,NA,NA,NA,NA,NA,NA,NA,NA,NA,NA,NA,NA,NA,NA,NA,NA,NA,NA,NA
646b3,"""Falsch""-Screen",canvas.Screen,3_0_0_0_2_0_2,NA,NA,timeout,5000.2,193333.79999995,193319.1,193335.7,198319.2,198319.79999995,2023-12-16T09:58:55Z,198335.9,NULL,Fleisch,mshakiki,d,NA,NA,NA,NA,sdf,0,0,NA,NA,NA,NA,NA,NA,NA,NA,NA,NA,NA,NA,NA,NA,NA,NA,NA,NA,NA
646b3,deep,flow.Sequence,3_0_0_0_2_0,NA,NA,completion,13433.3,184870.5,184869.2,184885.9,198319.2,198320.20000005,2023-12-16T09:58:55Z,198335.9,NULL,Fleisch,mshakiki,d,NA,NA,NA,NA,sdf,NA,0,NA,NA,NA,NA,NA,NA,NA,NA,NA,NA,NA,NA,NA,NA,NA,NA,NA,NA,NA
646b3,shallow,flow.Sequence,3_0_0_0_2_1,NA,NA,skipped,NA,198320.20000005,NA,NA,198319.2,198320.39999998,2023-12-16T09:58:55Z,198335.9,NULL,Fleisch,mshakiki,d,NA,NA,NA,NA,sdf,NA,0,NA,NA,NA,NA,NA,NA,NA,NA,NA,NA,NA,NA,NA,NA,NA,NA,NA,NA,NA
646b3,task,flow.Sequence,3_0_0_0_2,NA,NA,completion,13433.3,184870.5,184869.2,184885.9,198319.2,198320.39999998,2023-12-16T09:58:55Z,198335.9,NULL,Fleisch,mshakiki,d,NA,NA,NA,NA,sdf,NA,0,NA,NA,NA,NA,NA,NA,NA,NA,NA,NA,NA,NA,NA,NA,NA,NA,NA,NA,NA
646b3,Deep Question,html.Page,3_0_0_0_3_0_0,NA,NA,form submission,15011.999999976,198320.5,198319.2,198335.9,213347.89999998,213348,2023-12-16T09:59:10Z,213354.6,NULL,Inhalt,yaliyomo,d,NA,NA,NA,filau,NA,NA,0,NA,NA,NA,NA,NA,NA,NA,NA,NA,NA,NA,NA,NA,NA,NA,NA,NA,NA,NA
646b3,"""Richtig""-Screen",canvas.Screen,3_0_0_0_3_0_1,NA,NA,skipped,NA,213349.79999995,NA,NA,213347.89999998,213349.89999998,2023-12-16T09:59:10Z,213354.6,NULL,Inhalt,yaliyomo,d,NA,NA,NA,NA,sdf,NA,0,NA,NA,NA,NA,NA,NA,NA,NA,NA,NA,NA,NA,NA,NA,NA,NA,NA,NA,NA
646b3,"""Falsch""-Screen",canvas.Screen,3_0_0_0_3_0_2,NA,NA,timeout,4997.9,213350.5,213352.5,213354.6,218335.9,218336.60000002,2023-12-16T09:59:15Z,218352.5,NULL,Inhalt,yaliyomo,d,NA,NA,NA,NA,sdf,0,0,NA,NA,NA,NA,NA,NA,NA,NA,NA,NA,NA,NA,NA,NA,NA,NA,NA,NA,NA
646b3,deep,flow.Sequence,3_0_0_0_3_0,NA,NA,completion,20000,198320.5,198319.2,198335.9,218335.9,218337,2023-12-16T09:59:15Z,218352.5,NULL,Inhalt,yaliyomo,d,NA,NA,NA,NA,sdf,NA,0,NA,NA,NA,NA,NA,NA,NA,NA,NA,NA,NA,NA,NA,NA,NA,NA,NA,NA,NA
646b3,shallow,flow.Sequence,3_0_0_0_3_1,NA,NA,skipped,NA,218337.20000005,NA,NA,218335.9,218337.29999995,2023-12-16T09:59:15Z,218352.5,NULL,Inhalt,yaliyomo,d,NA,NA,NA,NA,sdf,NA,0,NA,NA,NA,NA,NA,NA,NA,NA,NA,NA,NA,NA,NA,NA,NA,NA,NA,NA,NA
646b3,task,flow.Sequence,3_0_0_0_3,NA,NA,completion,20000,198320.5,198319.2,198335.9,218335.9,218337.5,2023-12-16T09:59:15Z,218352.5,NULL,Inhalt,yaliyomo,d,NA,NA,NA,NA,sdf,NA,0,NA,NA,NA,NA,NA,NA,NA,NA,NA,NA,NA,NA,NA,NA,NA,NA,NA,NA,NA
646b3,Deep Question,html.Page,3_0_0_0_4_0_0,NA,NA,form submission,11771.399999976,218337.60000002,218335.9,218352.5,230123.89999998,230124.20000005,2023-12-16T09:59:27Z,230135.7,NULL,Integrität,uadilifu,d,NA,NA,NA,toliloau,NA,NA,0,NA,NA,NA,NA,NA,NA,NA,NA,NA,NA,NA,NA,NA,NA,NA,NA,NA,NA,NA
646b3,"""Richtig""-Screen",canvas.Screen,3_0_0_0_4_0_1,NA,NA,skipped,NA,230126,NA,NA,230123.89999998,230126.20000005,2023-12-16T09:59:27Z,230135.7,NULL,Integrität,uadilifu,d,NA,NA,NA,NA,sdf,NA,0,NA,NA,NA,NA,NA,NA,NA,NA,NA,NA,NA,NA,NA,NA,NA,NA,NA,NA,NA
646b3,"""Falsch""-Screen",canvas.Screen,3_0_0_0_4_0_2,NA,NA,timeout,5000.1,230126.70000005,230119.3,230135.7,235119,235119.79999995,2023-12-16T09:59:32Z,235135.8,NULL,Integrität,uadilifu,d,NA,NA,NA,NA,sdf,0,0,NA,NA,NA,NA,NA,NA,NA,NA,NA,NA,NA,NA,NA,NA,NA,NA,NA,NA,NA
646b3,deep,flow.Sequence,3_0_0_0_4_0,NA,NA,completion,16766.5,218337.60000002,218335.9,218352.5,235119,235120.10000002,2023-12-16T09:59:32Z,235135.8,NULL,Integrität,uadilifu,d,NA,NA,NA,NA,sdf,NA,0,NA,NA,NA,NA,NA,NA,NA,NA,NA,NA,NA,NA,NA,NA,NA,NA,NA,NA,NA
646b3,shallow,flow.Sequence,3_0_0_0_4_1,NA,NA,skipped,NA,235120.20000005,NA,NA,235119,235120.39999998,2023-12-16T09:59:32Z,235135.8,NULL,Integrität,uadilifu,d,NA,NA,NA,NA,sdf,NA,0,NA,NA,NA,NA,NA,NA,NA,NA,NA,NA,NA,NA,NA,NA,NA,NA,NA,NA,NA
646b3,task,flow.Sequence,3_0_0_0_4,NA,NA,completion,16766.5,218337.5,218335.9,218352.5,235119,235120.5,2023-12-16T09:59:32Z,235135.8,NULL,Integrität,uadilifu,d,NA,NA,NA,NA,sdf,NA,0,NA,NA,NA,NA,NA,NA,NA,NA,NA,NA,NA,NA,NA,NA,NA,NA,NA,NA,NA
646b3,deep,flow.Sequence,3_0_0_0_5_0,NA,NA,skipped,NA,235120.60000002,NA,NA,235119,235120.79999995,2023-12-16T09:59:32Z,235135.8,NULL,Toleranz,kuvumiliana,s,maombolezo,ujasusi,mchekeshaji,NA,sdf,NA,0,NA,NA,NA,NA,NA,NA,NA,NA,NA,NA,NA,NA,NA,NA,NA,NA,NA,NA,NA
646b3,Shallow Question,html.Page,3_0_0_0_5_1_0,NA,NA,form submission,7435.8000000239,235120.89999998,235119,235135.8,242571.60000002,242571.89999998,2023-12-16T09:59:39Z,242585.9,NULL,Toleranz,kuvumiliana,s,maombolezo,ujasusi,mchekeshaji,kuvumiliana,NA,NA,0,NA,NA,NA,NA,NA,NA,NA,NA,NA,NA,NA,NA,NA,NA,NA,NA,NA,NA,NA
646b3,"""Richtig""-Screen",canvas.Screen,3_0_0_0_5_1_1,NA,NA,timeout,4999.9,242573.60000002,242569.7,242585.9,247569.1,247570,2023-12-16T09:59:44Z,247585.8,NULL,Toleranz,kuvumiliana,s,maombolezo,ujasusi,mchekeshaji,NA,sdf,1,0,NA,NA,NA,NA,NA,NA,NA,NA,NA,NA,NA,NA,NA,NA,NA,NA,NA,NA,NA
646b3,"""Falsch""-Screen",canvas.Screen,3_0_0_0_5_1_2,NA,NA,skipped,NA,247574,NA,NA,247569.1,247574.29999995,2023-12-16T09:59:44Z,247585.8,NULL,Toleranz,kuvumiliana,s,maombolezo,ujasusi,mchekeshaji,NA,sdf,NA,0,NA,NA,NA,NA,NA,NA,NA,NA,NA,NA,NA,NA,NA,NA,NA,NA,NA,NA,NA
646b3,shallow,flow.Sequence,3_0_0_0_5_1,NA,NA,completion,12433.3,235120.89999998,235119,235135.8,247569.1,247574.5,2023-12-16T09:59:44Z,247585.8,NULL,Toleranz,kuvumiliana,s,maombolezo,ujasusi,mchekeshaji,NA,sdf,NA,0,NA,NA,NA,NA,NA,NA,NA,NA,NA,NA,NA,NA,NA,NA,NA,NA,NA,NA,NA
646b3,task,flow.Sequence,3_0_0_0_5,NA,NA,completion,12433.3,235120.60000002,235119,235135.8,247569.1,247574.60000002,2023-12-16T09:59:44Z,247585.8,NULL,Toleranz,kuvumiliana,s,maombolezo,ujasusi,mchekeshaji,NA,sdf,NA,0,NA,NA,NA,NA,NA,NA,NA,NA,NA,NA,NA,NA,NA,NA,NA,NA,NA,NA,NA
646b3,deep,flow.Sequence,3_0_0_0_6_0,NA,NA,skipped,NA,247574.79999995,NA,NA,247569.1,247574.89999998,2023-12-16T09:59:44Z,247585.8,NULL,Begegnung,kukutana,s,mmasihiya,mpiganaji,husiano,NA,sdf,NA,0,NA,NA,NA,NA,NA,NA,NA,NA,NA,NA,NA,NA,NA,NA,NA,NA,NA,NA,NA
646b3,Shallow Question,html.Page,3_0_0_0_6_1_0,NA,NA,form submission,5137.9000000477,247575,247569.1,247585.8,252723.70000005,252724,2023-12-16T09:59:49Z,252735.9,NULL,Begegnung,kukutana,s,mmasihiya,mpiganaji,husiano,husiano,NA,NA,0,NA,NA,NA,NA,NA,NA,NA,NA,NA,NA,NA,NA,NA,NA,NA,NA,NA,NA,NA
646b3,"""Richtig""-Screen",canvas.Screen,3_0_0_0_6_1_1,NA,NA,skipped,NA,252725.60000002,NA,NA,252723.70000005,252725.70000005,2023-12-16T09:59:49Z,252735.9,NULL,Begegnung,kukutana,s,mmasihiya,mpiganaji,husiano,NA,sdf,NA,0,NA,NA,NA,NA,NA,NA,NA,NA,NA,NA,NA,NA,NA,NA,NA,NA,NA,NA,NA
646b3,"""Falsch""-Screen",canvas.Screen,3_0_0_0_6_1_2,NA,NA,timeout,4999.9,252726.29999995,252719.2,252735.9,257719.1,257720.10000002,2023-12-16T09:59:54Z,257735.8,NULL,Begegnung,kukutana,s,mmasihiya,mpiganaji,husiano,NA,sdf,0,0,NA,NA,NA,NA,NA,NA,NA,NA,NA,NA,NA,NA,NA,NA,NA,NA,NA,NA,NA
646b3,shallow,flow.Sequence,3_0_0_0_6_1,NA,NA,completion,10133.3,247575,247569.1,247585.8,257719.1,257720.29999995,2023-12-16T09:59:54Z,257735.8,NULL,Begegnung,kukutana,s,mmasihiya,mpiganaji,husiano,NA,sdf,NA,0,NA,NA,NA,NA,NA,NA,NA,NA,NA,NA,NA,NA,NA,NA,NA,NA,NA,NA,NA
646b3,task,flow.Sequence,3_0_0_0_6,NA,NA,completion,10133.3,247574.70000005,247569.1,247585.8,257719.1,257720.5,2023-12-16T09:59:54Z,257735.8,NULL,Begegnung,kukutana,s,mmasihiya,mpiganaji,husiano,NA,sdf,NA,0,NA,NA,NA,NA,NA,NA,NA,NA,NA,NA,NA,NA,NA,NA,NA,NA,NA,NA,NA
646b3,deep,flow.Sequence,3_0_0_0_7_0,NA,NA,skipped,NA,257720.60000002,NA,NA,257719.1,257720.70000005,2023-12-16T09:59:54Z,257735.8,NULL,Genehmigung,idhini,s,mwanamke,itikadi,fedheha,NA,sdf,NA,0,NA,NA,NA,NA,NA,NA,NA,NA,NA,NA,NA,NA,NA,NA,NA,NA,NA,NA,NA
646b3,Shallow Question,html.Page,3_0_0_0_7_1_0,NA,NA,form submission,5372.0999999762,257720.79999995,257719.1,257735.8,263107.89999998,263108.10000002,2023-12-16T10:00:00Z,263119,NULL,Genehmigung,idhini,s,mwanamke,itikadi,fedheha,idhini,NA,NA,0,NA,NA,NA,NA,NA,NA,NA,NA,NA,NA,NA,NA,NA,NA,NA,NA,NA,NA,NA
646b3,"""Richtig""-Screen",canvas.Screen,3_0_0_0_7_1_1,NA,NA,timeout,5000.1,263109.89999998,263102.5,263119,268102.5,268103.29999995,2023-12-16T10:00:05Z,268119.1,NULL,Genehmigung,idhini,s,mwanamke,itikadi,fedheha,NA,sdf,1,0,NA,NA,NA,NA,NA,NA,NA,NA,NA,NA,NA,NA,NA,NA,NA,NA,NA,NA,NA
646b3,"""Falsch""-Screen",canvas.Screen,3_0_0_0_7_1_2,NA,NA,skipped,NA,268107.60000002,NA,NA,268102.5,268107.79999995,2023-12-16T10:00:05Z,268119.1,NULL,Genehmigung,idhini,s,mwanamke,itikadi,fedheha,NA,sdf,NA,0,NA,NA,NA,NA,NA,NA,NA,NA,NA,NA,NA,NA,NA,NA,NA,NA,NA,NA,NA
646b3,shallow,flow.Sequence,3_0_0_0_7_1,NA,NA,completion,10366.7,257720.79999995,257719.1,257735.8,268102.5,268108.10000002,2023-12-16T10:00:05Z,268119.1,NULL,Genehmigung,idhini,s,mwanamke,itikadi,fedheha,NA,sdf,NA,0,NA,NA,NA,NA,NA,NA,NA,NA,NA,NA,NA,NA,NA,NA,NA,NA,NA,NA,NA
646b3,task,flow.Sequence,3_0_0_0_7,NA,NA,completion,10366.7,257720.60000002,257719.1,257735.8,268102.5,268108.29999995,2023-12-16T10:00:05Z,268119.1,NULL,Genehmigung,idhini,s,mwanamke,itikadi,fedheha,NA,sdf,NA,0,NA,NA,NA,NA,NA,NA,NA,NA,NA,NA,NA,NA,NA,NA,NA,NA,NA,NA,NA
646b3,block,flow.Loop,3_0_0_0,NA,NA,completion,113266.8,154826,154821.8,154835.7,268102.5,268108.39999998,2023-12-16T10:00:05Z,268119.1,NULL,NA,NA,NA,NA,NA,NA,NA,sdf,NA,0,NA,NA,NA,NA,NA,NA,NA,NA,NA,NA,NA,NA,NA,NA,NA,NA,NA,NA,NA
646b3,weiter,canvas.Screen,3_0_0_1,sdf,keypress(Space),response,1739.7999999762,268108.60000002,268102.5,268119.1,269858.89999998,269860,2023-12-16T10:00:07Z,269902.6,NULL,NA,NA,NA,NA,NA,NA,NA,sdf,NA,0,NA,NA,NA,NA,NA,NA,NA,NA,NA,NA,NA,NA,NA,NA,NA,NA,NA,NA,NA
646b3,check continue,flow.Sequence,3_0_0,NA,NA,completion,115023.19999998,154825.89999998,154821.8,154835.7,269858.89999998,269860.39999998,2023-12-16T10:00:07Z,269902.6,NULL,NA,NA,NA,NA,NA,NA,NA,sdf,NA,0,NA,NA,NA,NA,NA,NA,NA,NA,NA,NA,NA,NA,NA,NA,NA,NA,NA,NA,NA
646b3,Deep Question,html.Page,3_0_1_0_0_0_0,NA,NA,form submission,8757.1999999523,269906.79999995,269902.6,269902.6,278659.79999995,278660,2023-12-16T10:00:15Z,278669,NULL,Fleisch,mshakiki,d,NA,NA,NA,ghaliu,NA,NA,1,NA,NA,NA,NA,NA,NA,NA,NA,NA,NA,NA,NA,NA,NA,NA,NA,NA,NA,NA
646b3,"""Richtig""-Screen",canvas.Screen,3_0_1_0_0_0_1,NA,NA,skipped,NA,278662,NA,NA,278659.79999995,278662,2023-12-16T10:00:15Z,278669,NULL,Fleisch,mshakiki,d,NA,NA,NA,NA,sdfdsf,NA,1,NA,NA,NA,NA,NA,NA,NA,NA,NA,NA,NA,NA,NA,NA,NA,NA,NA,NA,NA
646b3,"""Falsch""-Screen",canvas.Screen,3_0_1_0_0_0_2,NA,NA,timeout,5000,278662.70000005,278652.7,278669,283652.4,283653.20000005,2023-12-16T10:00:20Z,283669,NULL,Fleisch,mshakiki,d,NA,NA,NA,NA,sdfdsf,0,1,NA,NA,NA,NA,NA,NA,NA,NA,NA,NA,NA,NA,NA,NA,NA,NA,NA,NA,NA
646b3,deep,flow.Sequence,3_0_1_0_0_0,NA,NA,completion,13749.8,269906.79999995,269902.6,269902.6,283652.4,283653.5,2023-12-16T10:00:20Z,283669,NULL,Fleisch,mshakiki,d,NA,NA,NA,NA,sdfdsf,NA,1,NA,NA,NA,NA,NA,NA,NA,NA,NA,NA,NA,NA,NA,NA,NA,NA,NA,NA,NA
646b3,shallow,flow.Sequence,3_0_1_0_0_1,NA,NA,skipped,NA,283653.60000002,NA,NA,283652.4,283653.70000005,2023-12-16T10:00:20Z,283669,NULL,Fleisch,mshakiki,d,NA,NA,NA,NA,sdfdsf,NA,1,NA,NA,NA,NA,NA,NA,NA,NA,NA,NA,NA,NA,NA,NA,NA,NA,NA,NA,NA
646b3,task,flow.Sequence,3_0_1_0_0,NA,NA,completion,13749.8,269906.79999995,269902.6,269902.6,283652.4,283653.89999998,2023-12-16T10:00:20Z,283669,NULL,Fleisch,mshakiki,d,NA,NA,NA,NA,sdfdsf,NA,1,NA,NA,NA,NA,NA,NA,NA,NA,NA,NA,NA,NA,NA,NA,NA,NA,NA,NA,NA
646b3,deep,flow.Sequence,3_0_1_0_1_0,NA,NA,skipped,NA,283654,NA,NA,283652.4,283654.10000002,2023-12-16T10:00:20Z,283669,NULL,Schlange,foleni,s,uvumilivu,uteuzi,muuzaji,NA,sdfdsf,NA,1,NA,NA,NA,NA,NA,NA,NA,NA,NA,NA,NA,NA,NA,NA,NA,NA,NA,NA,NA
646b3,Shallow Question,html.Page,3_0_1_0_1_1_0,NA,NA,form submission,8662.7000000477,283654.20000005,283652.4,283669,292331.70000005,292331.89999998,2023-12-16T10:00:29Z,292335.7,NULL,Schlange,foleni,s,uvumilivu,uteuzi,muuzaji,foleni,NA,NA,1,NA,NA,NA,NA,NA,NA,NA,NA,NA,NA,NA,NA,NA,NA,NA,NA,NA,NA,NA
646b3,"""Richtig""-Screen",canvas.Screen,3_0_1_0_1_1_1,NA,NA,timeout,4999.9,292333.70000005,292319.2,292335.7,297319.1,297320.89999998,2023-12-16T10:00:34Z,297335.6,NULL,Schlange,foleni,s,uvumilivu,uteuzi,muuzaji,NA,sdfdsf,1,1,NA,NA,NA,NA,NA,NA,NA,NA,NA,NA,NA,NA,NA,NA,NA,NA,NA,NA,NA
646b3,"""Falsch""-Screen",canvas.Screen,3_0_1_0_1_1_2,NA,NA,skipped,NA,297325.20000005,NA,NA,297319.1,297325.29999995,2023-12-16T10:00:34Z,297335.6,NULL,Schlange,foleni,s,uvumilivu,uteuzi,muuzaji,NA,sdfdsf,NA,1,NA,NA,NA,NA,NA,NA,NA,NA,NA,NA,NA,NA,NA,NA,NA,NA,NA,NA,NA
646b3,shallow,flow.Sequence,3_0_1_0_1_1,NA,NA,completion,13650.1,283654.20000005,283652.4,283669,297319.1,297325.60000002,2023-12-16T10:00:34Z,297335.6,NULL,Schlange,foleni,s,uvumilivu,uteuzi,muuzaji,NA,sdfdsf,NA,1,NA,NA,NA,NA,NA,NA,NA,NA,NA,NA,NA,NA,NA,NA,NA,NA,NA,NA,NA
646b3,task,flow.Sequence,3_0_1_0_1,NA,NA,completion,13650.1,283654,283652.4,283669,297319.1,297325.79999995,2023-12-16T10:00:34Z,297335.6,NULL,Schlange,foleni,s,uvumilivu,uteuzi,muuzaji,NA,sdfdsf,NA,1,NA,NA,NA,NA,NA,NA,NA,NA,NA,NA,NA,NA,NA,NA,NA,NA,NA,NA,NA
646b3,Deep Question,html.Page,3_0_1_0_2_0_0,NA,NA,form submission,5660.1999999523,297325.89999998,297319.1,297335.6,302995.79999995,302996,2023-12-16T10:00:40Z,303002.3,NULL,Vermutung,udhanifu,d,NA,NA,NA,oliau,NA,NA,1,NA,NA,NA,NA,NA,NA,NA,NA,NA,NA,NA,NA,NA,NA,NA,NA,NA,NA,NA
646b3,"""Richtig""-Screen",canvas.Screen,3_0_1_0_2_0_1,NA,NA,skipped,NA,302997.70000005,NA,NA,302995.79999995,302997.79999995,2023-12-16T10:00:40Z,303002.3,NULL,Vermutung,udhanifu,d,NA,NA,NA,NA,sdfdsf,NA,1,NA,NA,NA,NA,NA,NA,NA,NA,NA,NA,NA,NA,NA,NA,NA,NA,NA,NA,NA
646b3,"""Falsch""-Screen",canvas.Screen,3_0_1_0_2_0_2,NA,NA,timeout,5000.2,302998.39999998,302985.8,303002.3,307985.8,307986.5,2023-12-16T10:00:45Z,308002.5,NULL,Vermutung,udhanifu,d,NA,NA,NA,NA,sdfdsf,0,1,NA,NA,NA,NA,NA,NA,NA,NA,NA,NA,NA,NA,NA,NA,NA,NA,NA,NA,NA
646b3,deep,flow.Sequence,3_0_1_0_2_0,NA,NA,completion,10650.2,297325.89999998,297319.1,297335.6,307985.8,307986.79999995,2023-12-16T10:00:45Z,308002.5,NULL,Vermutung,udhanifu,d,NA,NA,NA,NA,sdfdsf,NA,1,NA,NA,NA,NA,NA,NA,NA,NA,NA,NA,NA,NA,NA,NA,NA,NA,NA,NA,NA
646b3,shallow,flow.Sequence,3_0_1_0_2_1,NA,NA,skipped,NA,307986.89999998,NA,NA,307985.8,307987,2023-12-16T10:00:45Z,308002.5,NULL,Vermutung,udhanifu,d,NA,NA,NA,NA,sdfdsf,NA,1,NA,NA,NA,NA,NA,NA,NA,NA,NA,NA,NA,NA,NA,NA,NA,NA,NA,NA,NA
646b3,task,flow.Sequence,3_0_1_0_2,NA,NA,completion,10650.2,297325.79999995,297319.1,297335.6,307985.8,307987.20000005,2023-12-16T10:00:45Z,308002.5,NULL,Vermutung,udhanifu,d,NA,NA,NA,NA,sdfdsf,NA,1,NA,NA,NA,NA,NA,NA,NA,NA,NA,NA,NA,NA,NA,NA,NA,NA,NA,NA,NA
646b3,deep,flow.Sequence,3_0_1_0_3_0,NA,NA,skipped,NA,307987.29999995,NA,NA,307985.8,307987.29999995,2023-12-16T10:00:45Z,308002.5,NULL,Toleranz,kuvumiliana,s,maombolezo,ujasusi,mchekeshaji,NA,sdfdsf,NA,1,NA,NA,NA,NA,NA,NA,NA,NA,NA,NA,NA,NA,NA,NA,NA,NA,NA,NA,NA
646b3,Shallow Question,html.Page,3_0_1_0_3_1_0,NA,NA,form submission,7225.1000000238,307987.5,307985.8,308002.5,315227.60000002,315227.89999998,2023-12-16T10:00:52Z,315235.9,NULL,Toleranz,kuvumiliana,s,maombolezo,ujasusi,mchekeshaji,maombolezo,NA,NA,1,NA,NA,NA,NA,NA,NA,NA,NA,NA,NA,NA,NA,NA,NA,NA,NA,NA,NA,NA
646b3,"""Richtig""-Screen",canvas.Screen,3_0_1_0_3_1_1,NA,NA,skipped,NA,315229.60000002,NA,NA,315227.60000002,315229.79999995,2023-12-16T10:00:52Z,315235.9,NULL,Toleranz,kuvumiliana,s,maombolezo,ujasusi,mchekeshaji,NA,sdfdsf,NA,1,NA,NA,NA,NA,NA,NA,NA,NA,NA,NA,NA,NA,NA,NA,NA,NA,NA,NA,NA
646b3,"""Falsch""-Screen",canvas.Screen,3_0_1_0_3_1_2,NA,NA,timeout,4999.9,315230.29999995,315235.9,315235.9,320219.1,320221,2023-12-16T10:00:57Z,320235.8,NULL,Toleranz,kuvumiliana,s,maombolezo,ujasusi,mchekeshaji,NA,sdfdsf,0,1,NA,NA,NA,NA,NA,NA,NA,NA,NA,NA,NA,NA,NA,NA,NA,NA,NA,NA,NA
646b3,shallow,flow.Sequence,3_0_1_0_3_1,NA,NA,completion,12216.6,307987.39999998,307985.8,308002.5,320219.1,320221.39999998,2023-12-16T10:00:57Z,320235.8,NULL,Toleranz,kuvumiliana,s,maombolezo,ujasusi,mchekeshaji,NA,sdfdsf,NA,1,NA,NA,NA,NA,NA,NA,NA,NA,NA,NA,NA,NA,NA,NA,NA,NA,NA,NA,NA
646b3,task,flow.Sequence,3_0_1_0_3,NA,NA,completion,12216.6,307987.29999995,307985.8,308002.5,320219.1,320221.5,2023-12-16T10:00:57Z,320235.8,NULL,Toleranz,kuvumiliana,s,maombolezo,ujasusi,mchekeshaji,NA,sdfdsf,NA,1,NA,NA,NA,NA,NA,NA,NA,NA,NA,NA,NA,NA,NA,NA,NA,NA,NA,NA,NA
646b3,deep,flow.Sequence,3_0_1_0_4_0,NA,NA,skipped,NA,320221.70000005,NA,NA,320219.1,320221.79999995,2023-12-16T10:00:57Z,320235.8,NULL,Begegnung,kukutana,s,mmasihiya,mpiganaji,husiano,NA,sdfdsf,NA,1,NA,NA,NA,NA,NA,NA,NA,NA,NA,NA,NA,NA,NA,NA,NA,NA,NA,NA,NA
646b3,Shallow Question,html.Page,3_0_1_0_4_1_0,NA,NA,form submission,4807.8000000239,320221.89999998,320219.1,320235.8,325043.60000002,325043.79999995,2023-12-16T10:01:02Z,325052.5,NULL,Begegnung,kukutana,s,mmasihiya,mpiganaji,husiano,husiano,NA,NA,1,NA,NA,NA,NA,NA,NA,NA,NA,NA,NA,NA,NA,NA,NA,NA,NA,NA,NA,NA
646b3,"""Richtig""-Screen",canvas.Screen,3_0_1_0_4_1_1,NA,NA,skipped,NA,325045.5,NA,NA,325043.60000002,325045.70000005,2023-12-16T10:01:02Z,325052.5,NULL,Begegnung,kukutana,s,mmasihiya,mpiganaji,husiano,NA,sdfdsf,NA,1,NA,NA,NA,NA,NA,NA,NA,NA,NA,NA,NA,NA,NA,NA,NA,NA,NA,NA,NA
646b3,"""Falsch""-Screen",canvas.Screen,3_0_1_0_4_1_2,NA,NA,timeout,5000,325046.5,325037.7,325052.5,330035.8,330036.5,2023-12-16T10:01:07Z,330052.5,NULL,Begegnung,kukutana,s,mmasihiya,mpiganaji,husiano,NA,sdfdsf,0,1,NA,NA,NA,NA,NA,NA,NA,NA,NA,NA,NA,NA,NA,NA,NA,NA,NA,NA,NA
646b3,shallow,flow.Sequence,3_0_1_0_4_1,NA,NA,completion,9800,320221.89999998,320219.1,320235.8,330035.8,330036.79999995,2023-12-16T10:01:07Z,330052.5,NULL,Begegnung,kukutana,s,mmasihiya,mpiganaji,husiano,NA,sdfdsf,NA,1,NA,NA,NA,NA,NA,NA,NA,NA,NA,NA,NA,NA,NA,NA,NA,NA,NA,NA,NA
646b3,task,flow.Sequence,3_0_1_0_4,NA,NA,completion,9800,320221.70000005,320219.1,320235.8,330035.8,330037,2023-12-16T10:01:07Z,330052.5,NULL,Begegnung,kukutana,s,mmasihiya,mpiganaji,husiano,NA,sdfdsf,NA,1,NA,NA,NA,NA,NA,NA,NA,NA,NA,NA,NA,NA,NA,NA,NA,NA,NA,NA,NA
646b3,Deep Question,html.Page,3_0_1_0_5_0_0,NA,NA,form submission,12687.200000048,330037.20000005,330035.8,330052.5,342739.70000005,342740,2023-12-16T10:01:19Z,342752.3,NULL,Inhalt,yaliyomo,d,NA,NA,NA,toliu,NA,NA,1,NA,NA,NA,NA,NA,NA,NA,NA,NA,NA,NA,NA,NA,NA,NA,NA,NA,NA,NA
646b3,"""Richtig""-Screen",canvas.Screen,3_0_1_0_5_0_1,NA,NA,skipped,NA,342741.70000005,NA,NA,342739.70000005,342741.79999995,2023-12-16T10:01:19Z,342752.3,NULL,Inhalt,yaliyomo,d,NA,NA,NA,NA,sdfdsf,NA,1,NA,NA,NA,NA,NA,NA,NA,NA,NA,NA,NA,NA,NA,NA,NA,NA,NA,NA,NA
646b3,"""Falsch""-Screen",canvas.Screen,3_0_1_0_5_0_2,NA,NA,timeout,5000.2,342742.5,342740.8,342752.3,347735.8,347736.60000002,2023-12-16T10:01:24Z,347752.5,NULL,Inhalt,yaliyomo,d,NA,NA,NA,NA,sdfdsf,0,1,NA,NA,NA,NA,NA,NA,NA,NA,NA,NA,NA,NA,NA,NA,NA,NA,NA,NA,NA
646b3,deep,flow.Sequence,3_0_1_0_5_0,NA,NA,completion,17683.3,330037.20000005,330035.8,330052.5,347735.8,347736.89999998,2023-12-16T10:01:24Z,347752.5,NULL,Inhalt,yaliyomo,d,NA,NA,NA,NA,sdfdsf,NA,1,NA,NA,NA,NA,NA,NA,NA,NA,NA,NA,NA,NA,NA,NA,NA,NA,NA,NA,NA
646b3,shallow,flow.Sequence,3_0_1_0_5_1,NA,NA,skipped,NA,347737,NA,NA,347735.8,347737.10000002,2023-12-16T10:01:24Z,347752.5,NULL,Inhalt,yaliyomo,d,NA,NA,NA,NA,sdfdsf,NA,1,NA,NA,NA,NA,NA,NA,NA,NA,NA,NA,NA,NA,NA,NA,NA,NA,NA,NA,NA
646b3,task,flow.Sequence,3_0_1_0_5,NA,NA,completion,17683.3,330037.10000002,330035.8,330052.5,347735.8,347737.29999995,2023-12-16T10:01:24Z,347752.5,NULL,Inhalt,yaliyomo,d,NA,NA,NA,NA,sdfdsf,NA,1,NA,NA,NA,NA,NA,NA,NA,NA,NA,NA,NA,NA,NA,NA,NA,NA,NA,NA,NA
646b3,deep,flow.Sequence,3_0_1_0_6_0,NA,NA,skipped,NA,347737.39999998,NA,NA,347735.8,347737.39999998,2023-12-16T10:01:24Z,347752.5,NULL,Genehmigung,idhini,s,mwanamke,itikadi,fedheha,NA,sdfdsf,NA,1,NA,NA,NA,NA,NA,NA,NA,NA,NA,NA,NA,NA,NA,NA,NA,NA,NA,NA,NA
646b3,Shallow Question,html.Page,3_0_1_0_6_1_0,NA,NA,form submission,4147,347737.5,347735.8,347752.5,351899.5,351899.70000005,2023-12-16T10:01:29Z,351902.6,NULL,Genehmigung,idhini,s,mwanamke,itikadi,fedheha,itikadi,NA,NA,1,NA,NA,NA,NA,NA,NA,NA,NA,NA,NA,NA,NA,NA,NA,NA,NA,NA,NA,NA
646b3,"""Richtig""-Screen",canvas.Screen,3_0_1_0_6_1_1,NA,NA,skipped,NA,351901.5,NA,NA,351899.5,351901.60000002,2023-12-16T10:01:29Z,351902.6,NULL,Genehmigung,idhini,s,mwanamke,itikadi,fedheha,NA,sdfdsf,NA,1,NA,NA,NA,NA,NA,NA,NA,NA,NA,NA,NA,NA,NA,NA,NA,NA,NA,NA,NA
646b3,"""Falsch""-Screen",canvas.Screen,3_0_1_0_6_1_2,NA,NA,timeout,4999.8,351902.20000005,351902.6,351902.6,356885.7,356888.20000005,2023-12-16T10:01:34Z,356902.4,NULL,Genehmigung,idhini,s,mwanamke,itikadi,fedheha,NA,sdfdsf,0,1,NA,NA,NA,NA,NA,NA,NA,NA,NA,NA,NA,NA,NA,NA,NA,NA,NA,NA,NA
646b3,shallow,flow.Sequence,3_0_1_0_6_1,NA,NA,completion,9133.2,347737.5,347735.8,347752.5,356885.7,356888.60000002,2023-12-16T10:01:34Z,356902.4,NULL,Genehmigung,idhini,s,mwanamke,itikadi,fedheha,NA,sdfdsf,NA,1,NA,NA,NA,NA,NA,NA,NA,NA,NA,NA,NA,NA,NA,NA,NA,NA,NA,NA,NA
646b3,task,flow.Sequence,3_0_1_0_6,NA,NA,completion,9133.2,347737.29999995,347735.8,347752.5,356885.7,356888.70000005,2023-12-16T10:01:34Z,356902.4,NULL,Genehmigung,idhini,s,mwanamke,itikadi,fedheha,NA,sdfdsf,NA,1,NA,NA,NA,NA,NA,NA,NA,NA,NA,NA,NA,NA,NA,NA,NA,NA,NA,NA,NA
646b3,Deep Question,html.Page,3_0_1_0_7_0_0,NA,NA,form submission,10301.6,356888.89999998,356885.7,356902.4,367204,367204.29999995,2023-12-16T10:01:44Z,367219.2,NULL,Integrität,uadilifu,d,NA,NA,NA,gegalo,NA,NA,1,NA,NA,NA,NA,NA,NA,NA,NA,NA,NA,NA,NA,NA,NA,NA,NA,NA,NA,NA
646b3,"""Richtig""-Screen",canvas.Screen,3_0_1_0_7_0_1,NA,NA,skipped,NA,367206,NA,NA,367204,367206.10000002,2023-12-16T10:01:44Z,367219.2,NULL,Integrität,uadilifu,d,NA,NA,NA,NA,sdfdsf,NA,1,NA,NA,NA,NA,NA,NA,NA,NA,NA,NA,NA,NA,NA,NA,NA,NA,NA,NA,NA
646b3,"""Falsch""-Screen",canvas.Screen,3_0_1_0_7_0_2,NA,NA,timeout,5000,367206.70000005,367202.5,367219.2,372202.4,372203.29999995,2023-12-16T10:01:49Z,372219.2,NULL,Integrität,uadilifu,d,NA,NA,NA,NA,sdfdsf,0,1,NA,NA,NA,NA,NA,NA,NA,NA,NA,NA,NA,NA,NA,NA,NA,NA,NA,NA,NA
646b3,deep,flow.Sequence,3_0_1_0_7_0,NA,NA,completion,15300,356888.89999998,356885.7,356902.4,372202.4,372203.60000002,2023-12-16T10:01:49Z,372219.2,NULL,Integrität,uadilifu,d,NA,NA,NA,NA,sdfdsf,NA,1,NA,NA,NA,NA,NA,NA,NA,NA,NA,NA,NA,NA,NA,NA,NA,NA,NA,NA,NA
646b3,shallow,flow.Sequence,3_0_1_0_7_1,NA,NA,skipped,NA,372203.70000005,NA,NA,372202.4,372203.89999998,2023-12-16T10:01:49Z,372219.2,NULL,Integrität,uadilifu,d,NA,NA,NA,NA,sdfdsf,NA,1,NA,NA,NA,NA,NA,NA,NA,NA,NA,NA,NA,NA,NA,NA,NA,NA,NA,NA,NA
646b3,task,flow.Sequence,3_0_1_0_7,NA,NA,completion,15300,356888.79999995,356885.7,356902.4,372202.4,372204,2023-12-16T10:01:49Z,372219.2,NULL,Integrität,uadilifu,d,NA,NA,NA,NA,sdfdsf,NA,1,NA,NA,NA,NA,NA,NA,NA,NA,NA,NA,NA,NA,NA,NA,NA,NA,NA,NA,NA
646b3,block,flow.Loop,3_0_1_0,NA,NA,completion,102299.8,269906.29999995,269902.6,269902.6,372202.4,372204.20000005,2023-12-16T10:01:49Z,372219.2,NULL,NA,NA,NA,NA,NA,NA,NA,sdfdsf,NA,1,NA,NA,NA,NA,NA,NA,NA,NA,NA,NA,NA,NA,NA,NA,NA,NA,NA,NA,NA
646b3,weiter,canvas.Screen,3_0_1_1,sdf,keypress(Space),response,1240.1999999761,372204.29999995,372202.4,372219.2,373459.39999998,373460.10000002,2023-12-16T10:01:50Z,373519,NULL,NA,NA,NA,NA,NA,NA,NA,sdfdsf,NA,1,NA,NA,NA,NA,NA,NA,NA,NA,NA,NA,NA,NA,NA,NA,NA,NA,NA,NA,NA
646b3,check continue,flow.Sequence,3_0_1,NA,NA,completion,103556.79999998,269906.29999995,269902.6,269902.6,373459.39999998,373460.5,2023-12-16T10:01:50Z,373519,NULL,NA,NA,NA,NA,NA,NA,NA,sdfdsf,NA,1,NA,NA,NA,NA,NA,NA,NA,NA,NA,NA,NA,NA,NA,NA,NA,NA,NA,NA,NA
646b3,deep,flow.Sequence,3_0_2_0_0_0,NA,NA,skipped,NA,373508.79999995,NA,NA,373459.39999998,373509,2023-12-16T10:01:50Z,373519,NULL,Begegnung,kukutana,s,mmasihiya,mpiganaji,husiano,NA,sdf,NA,2,NA,NA,NA,NA,NA,NA,NA,NA,NA,NA,NA,NA,NA,NA,NA,NA,NA,NA,NA
646b3,Shallow Question,html.Page,3_0_2_0_0_1_0,NA,NA,form submission,11244.700000048,373509.20000005,373502.4,373519,384763.70000005,384763.89999998,2023-12-16T10:02:02Z,384785.7,NULL,Begegnung,kukutana,s,mmasihiya,mpiganaji,husiano,husiano,NA,NA,2,NA,NA,NA,NA,NA,NA,NA,NA,NA,NA,NA,NA,NA,NA,NA,NA,NA,NA,NA
646b3,"""Richtig""-Screen",canvas.Screen,3_0_2_0_0_1_1,NA,NA,skipped,NA,384765.79999995,NA,NA,384763.70000005,384766,2023-12-16T10:02:02Z,384785.7,NULL,Begegnung,kukutana,s,mmasihiya,mpiganaji,husiano,NA,sdf,NA,2,NA,NA,NA,NA,NA,NA,NA,NA,NA,NA,NA,NA,NA,NA,NA,NA,NA,NA,NA
646b3,"""Falsch""-Screen",canvas.Screen,3_0_2_0_0_1_2,NA,NA,timeout,5000.1,384766.60000002,384769.1,384785.7,389769.1,389770,2023-12-16T10:02:07Z,389785.8,NULL,Begegnung,kukutana,s,mmasihiya,mpiganaji,husiano,NA,sdf,0,2,NA,NA,NA,NA,NA,NA,NA,NA,NA,NA,NA,NA,NA,NA,NA,NA,NA,NA,NA
646b3,shallow,flow.Sequence,3_0_2_0_0_1,NA,NA,completion,16250.1,373509.20000005,373502.4,373519,389769.1,389770.20000005,2023-12-16T10:02:07Z,389785.8,NULL,Begegnung,kukutana,s,mmasihiya,mpiganaji,husiano,NA,sdf,NA,2,NA,NA,NA,NA,NA,NA,NA,NA,NA,NA,NA,NA,NA,NA,NA,NA,NA,NA,NA
646b3,task,flow.Sequence,3_0_2_0_0,NA,NA,completion,16250.1,373508.79999995,373502.4,373519,389769.1,389770.39999998,2023-12-16T10:02:07Z,389785.8,NULL,Begegnung,kukutana,s,mmasihiya,mpiganaji,husiano,NA,sdf,NA,2,NA,NA,NA,NA,NA,NA,NA,NA,NA,NA,NA,NA,NA,NA,NA,NA,NA,NA,NA
646b3,deep,flow.Sequence,3_0_2_0_1_0,NA,NA,skipped,NA,389770.5,NA,NA,389769.1,389770.60000002,2023-12-16T10:02:07Z,389785.8,NULL,Genehmigung,idhini,s,mwanamke,itikadi,fedheha,NA,sdf,NA,2,NA,NA,NA,NA,NA,NA,NA,NA,NA,NA,NA,NA,NA,NA,NA,NA,NA,NA,NA
646b3,Shallow Question,html.Page,3_0_2_0_1_1_0,NA,NA,form submission,11873.999999952,389770.70000005,389769.1,389785.8,401659.79999995,401660,2023-12-16T10:02:18Z,401669,NULL,Genehmigung,idhini,s,mwanamke,itikadi,fedheha,fedheha,NA,NA,2,NA,NA,NA,NA,NA,NA,NA,NA,NA,NA,NA,NA,NA,NA,NA,NA,NA,NA,NA
646b3,"""Richtig""-Screen",canvas.Screen,3_0_2_0_1_1_1,NA,NA,skipped,NA,401661.70000005,NA,NA,401659.79999995,401661.79999995,2023-12-16T10:02:18Z,401669,NULL,Genehmigung,idhini,s,mwanamke,itikadi,fedheha,NA,sdf,NA,2,NA,NA,NA,NA,NA,NA,NA,NA,NA,NA,NA,NA,NA,NA,NA,NA,NA,NA,NA
646b3,"""Falsch""-Screen",canvas.Screen,3_0_2_0_1_1_2,NA,NA,timeout,5000.1,401662.5,401652.5,401669,406652.4,406653.20000005,2023-12-16T10:02:23Z,406669.1,NULL,Genehmigung,idhini,s,mwanamke,itikadi,fedheha,NA,sdf,0,2,NA,NA,NA,NA,NA,NA,NA,NA,NA,NA,NA,NA,NA,NA,NA,NA,NA,NA,NA
646b3,shallow,flow.Sequence,3_0_2_0_1_1,NA,NA,completion,16866.6,389770.70000005,389769.1,389785.8,406652.4,406653.60000002,2023-12-16T10:02:23Z,406669.1,NULL,Genehmigung,idhini,s,mwanamke,itikadi,fedheha,NA,sdf,NA,2,NA,NA,NA,NA,NA,NA,NA,NA,NA,NA,NA,NA,NA,NA,NA,NA,NA,NA,NA
646b3,task,flow.Sequence,3_0_2_0_1,NA,NA,completion,16866.6,389770.5,389769.1,389785.8,406652.4,406653.79999995,2023-12-16T10:02:23Z,406669.1,NULL,Genehmigung,idhini,s,mwanamke,itikadi,fedheha,NA,sdf,NA,2,NA,NA,NA,NA,NA,NA,NA,NA,NA,NA,NA,NA,NA,NA,NA,NA,NA,NA,NA
646b3,Deep Question,html.Page,3_0_2_0_2_0_0,NA,NA,form submission,13638.799999976,406653.89999998,406652.4,406669.1,420307.89999998,420308.10000002,2023-12-16T10:02:37Z,420319,NULL,Integrität,uadilifu,d,NA,NA,NA,laug,NA,NA,2,NA,NA,NA,NA,NA,NA,NA,NA,NA,NA,NA,NA,NA,NA,NA,NA,NA,NA,NA
646b3,"""Richtig""-Screen",canvas.Screen,3_0_2_0_2_0_1,NA,NA,skipped,NA,420309.79999995,NA,NA,420307.89999998,420310,2023-12-16T10:02:37Z,420319,NULL,Integrität,uadilifu,d,NA,NA,NA,NA,sdf,NA,2,NA,NA,NA,NA,NA,NA,NA,NA,NA,NA,NA,NA,NA,NA,NA,NA,NA,NA,NA
646b3,"""Falsch""-Screen",canvas.Screen,3_0_2_0_2_0_2,NA,NA,timeout,5000,420310.5,420302.6,420319,425302.4,425303.20000005,2023-12-16T10:02:42Z,425319,NULL,Integrität,uadilifu,d,NA,NA,NA,NA,sdf,0,2,NA,NA,NA,NA,NA,NA,NA,NA,NA,NA,NA,NA,NA,NA,NA,NA,NA,NA,NA
646b3,deep,flow.Sequence,3_0_2_0_2_0,NA,NA,completion,18633.3,406653.79999995,406652.4,406669.1,425302.4,425303.5,2023-12-16T10:02:42Z,425319,NULL,Integrität,uadilifu,d,NA,NA,NA,NA,sdf,NA,2,NA,NA,NA,NA,NA,NA,NA,NA,NA,NA,NA,NA,NA,NA,NA,NA,NA,NA,NA
646b3,shallow,flow.Sequence,3_0_2_0_2_1,NA,NA,skipped,NA,425303.70000005,NA,NA,425302.4,425303.70000005,2023-12-16T10:02:42Z,425319,NULL,Integrität,uadilifu,d,NA,NA,NA,NA,sdf,NA,2,NA,NA,NA,NA,NA,NA,NA,NA,NA,NA,NA,NA,NA,NA,NA,NA,NA,NA,NA
646b3,task,flow.Sequence,3_0_2_0_2,NA,NA,completion,18633.3,406653.79999995,406652.4,406669.1,425302.4,425303.89999998,2023-12-16T10:02:42Z,425319,NULL,Integrität,uadilifu,d,NA,NA,NA,NA,sdf,NA,2,NA,NA,NA,NA,NA,NA,NA,NA,NA,NA,NA,NA,NA,NA,NA,NA,NA,NA,NA
646b3,deep,flow.Sequence,3_0_2_0_3_0,NA,NA,skipped,NA,425304,NA,NA,425302.4,425304,2023-12-16T10:02:42Z,425319,NULL,Toleranz,kuvumiliana,s,maombolezo,ujasusi,mchekeshaji,NA,sdf,NA,2,NA,NA,NA,NA,NA,NA,NA,NA,NA,NA,NA,NA,NA,NA,NA,NA,NA,NA,NA
646b3,Shallow Question,html.Page,3_0_2_0_3_1_0,NA,NA,form submission,28908.299999952,425304.20000005,425302.4,425319,454227.29999995,454227.60000002,2023-12-16T10:03:11Z,454252.4,NULL,Toleranz,kuvumiliana,s,maombolezo,ujasusi,mchekeshaji,mchekeshaji,NA,NA,2,NA,NA,NA,NA,NA,NA,NA,NA,NA,NA,NA,NA,NA,NA,NA,NA,NA,NA,NA
646b3,"""Richtig""-Screen",canvas.Screen,3_0_2_0_3_1_1,NA,NA,skipped,NA,454229.29999995,NA,NA,454227.29999995,454229.39999998,2023-12-16T10:03:11Z,454252.4,NULL,Toleranz,kuvumiliana,s,maombolezo,ujasusi,mchekeshaji,NA,sdf,NA,2,NA,NA,NA,NA,NA,NA,NA,NA,NA,NA,NA,NA,NA,NA,NA,NA,NA,NA,NA
646b3,"""Falsch""-Screen",canvas.Screen,3_0_2_0_3_1_2,NA,NA,timeout,4999.9,454230,454236.6,454252.4,459235.7,459237.70000005,2023-12-16T10:03:16Z,459252.3,NULL,Toleranz,kuvumiliana,s,maombolezo,ujasusi,mchekeshaji,NA,sdf,0,2,NA,NA,NA,NA,NA,NA,NA,NA,NA,NA,NA,NA,NA,NA,NA,NA,NA,NA,NA
646b3,shallow,flow.Sequence,3_0_2_0_3_1,NA,NA,completion,33916.7,425304.20000005,425302.4,425319,459235.7,459238.10000002,2023-12-16T10:03:16Z,459252.3,NULL,Toleranz,kuvumiliana,s,maombolezo,ujasusi,mchekeshaji,NA,sdf,NA,2,NA,NA,NA,NA,NA,NA,NA,NA,NA,NA,NA,NA,NA,NA,NA,NA,NA,NA,NA
646b3,task,flow.Sequence,3_0_2_0_3,NA,NA,completion,33916.7,425303.89999998,425302.4,425319,459235.7,459238.39999998,2023-12-16T10:03:16Z,459252.3,NULL,Toleranz,kuvumiliana,s,maombolezo,ujasusi,mchekeshaji,NA,sdf,NA,2,NA,NA,NA,NA,NA,NA,NA,NA,NA,NA,NA,NA,NA,NA,NA,NA,NA,NA,NA
646b3,Deep Question,html.Page,3_0_2_0_4_0_0,NA,NA,form submission,13895.300000024,459238.5,459235.7,459252.3,473147.60000002,473147.79999995,2023-12-16T10:03:30Z,473152.3,NULL,Vermutung,udhanifu,d,NA,NA,NA,ulugai,NA,NA,2,NA,NA,NA,NA,NA,NA,NA,NA,NA,NA,NA,NA,NA,NA,NA,NA,NA,NA,NA
646b3,"""Richtig""-Screen",canvas.Screen,3_0_2_0_4_0_1,NA,NA,skipped,NA,473149.60000002,NA,NA,473147.60000002,473149.79999995,2023-12-16T10:03:30Z,473152.3,NULL,Vermutung,udhanifu,d,NA,NA,NA,NA,sdf,NA,2,NA,NA,NA,NA,NA,NA,NA,NA,NA,NA,NA,NA,NA,NA,NA,NA,NA,NA,NA
646b3,"""Falsch""-Screen",canvas.Screen,3_0_2_0_4_0_2,NA,NA,timeout,5000.1,473150.39999998,473136.4,473152.3,478135.7,478136.39999998,2023-12-16T10:03:35Z,478152.4,NULL,Vermutung,udhanifu,d,NA,NA,NA,NA,sdf,0,2,NA,NA,NA,NA,NA,NA,NA,NA,NA,NA,NA,NA,NA,NA,NA,NA,NA,NA,NA
646b3,deep,flow.Sequence,3_0_2_0_4_0,NA,NA,completion,18883.4,459238.5,459235.7,459252.3,478135.7,478136.70000005,2023-12-16T10:03:35Z,478152.4,NULL,Vermutung,udhanifu,d,NA,NA,NA,NA,sdf,NA,2,NA,NA,NA,NA,NA,NA,NA,NA,NA,NA,NA,NA,NA,NA,NA,NA,NA,NA,NA
646b3,shallow,flow.Sequence,3_0_2_0_4_1,NA,NA,skipped,NA,478136.89999998,NA,NA,478135.7,478136.89999998,2023-12-16T10:03:35Z,478152.4,NULL,Vermutung,udhanifu,d,NA,NA,NA,NA,sdf,NA,2,NA,NA,NA,NA,NA,NA,NA,NA,NA,NA,NA,NA,NA,NA,NA,NA,NA,NA,NA
646b3,task,flow.Sequence,3_0_2_0_4,NA,NA,completion,18883.4,459238.39999998,459235.7,459252.3,478135.7,478137.10000002,2023-12-16T10:03:35Z,478152.4,NULL,Vermutung,udhanifu,d,NA,NA,NA,NA,sdf,NA,2,NA,NA,NA,NA,NA,NA,NA,NA,NA,NA,NA,NA,NA,NA,NA,NA,NA,NA,NA
646b3,deep,flow.Sequence,3_0_2_0_5_0,NA,NA,skipped,NA,478137.20000005,NA,NA,478135.7,478137.29999995,2023-12-16T10:03:35Z,478152.4,NULL,Schlange,foleni,s,uvumilivu,uteuzi,muuzaji,NA,sdf,NA,2,NA,NA,NA,NA,NA,NA,NA,NA,NA,NA,NA,NA,NA,NA,NA,NA,NA,NA,NA
646b3,Shallow Question,html.Page,3_0_2_0_5_1_0,NA,NA,form submission,6435.1,478137.39999998,478135.7,478152.4,484587.5,484587.89999998,2023-12-16T10:03:41Z,484602.5,NULL,Schlange,foleni,s,uvumilivu,uteuzi,muuzaji,foleni,NA,NA,2,NA,NA,NA,NA,NA,NA,NA,NA,NA,NA,NA,NA,NA,NA,NA,NA,NA,NA,NA
646b3,"""Richtig""-Screen",canvas.Screen,3_0_2_0_5_1_1,NA,NA,timeout,4999.9,484589.60000002,484585.8,484602.5,489585.7,489586.5,2023-12-16T10:03:46Z,489602.4,NULL,Schlange,foleni,s,uvumilivu,uteuzi,muuzaji,NA,sdf,1,2,NA,NA,NA,NA,NA,NA,NA,NA,NA,NA,NA,NA,NA,NA,NA,NA,NA,NA,NA
646b3,"""Falsch""-Screen",canvas.Screen,3_0_2_0_5_1_2,NA,NA,skipped,NA,489590.5,NA,NA,489585.7,489590.79999995,2023-12-16T10:03:46Z,489602.4,NULL,Schlange,foleni,s,uvumilivu,uteuzi,muuzaji,NA,sdf,NA,2,NA,NA,NA,NA,NA,NA,NA,NA,NA,NA,NA,NA,NA,NA,NA,NA,NA,NA,NA
646b3,shallow,flow.Sequence,3_0_2_0_5_1,NA,NA,completion,11433.3,478137.39999998,478135.7,478152.4,489585.7,489591.10000002,2023-12-16T10:03:46Z,489602.4,NULL,Schlange,foleni,s,uvumilivu,uteuzi,muuzaji,NA,sdf,NA,2,NA,NA,NA,NA,NA,NA,NA,NA,NA,NA,NA,NA,NA,NA,NA,NA,NA,NA,NA
646b3,task,flow.Sequence,3_0_2_0_5,NA,NA,completion,11433.3,478137.10000002,478135.7,478152.4,489585.7,489591.20000005,2023-12-16T10:03:46Z,489602.4,NULL,Schlange,foleni,s,uvumilivu,uteuzi,muuzaji,NA,sdf,NA,2,NA,NA,NA,NA,NA,NA,NA,NA,NA,NA,NA,NA,NA,NA,NA,NA,NA,NA,NA
646b3,Deep Question,html.Page,3_0_2_0_6_0_0,NA,NA,form submission,9081.2000000238,489591.39999998,489585.7,489602.4,498683.60000002,498683.79999995,2023-12-16T10:03:55Z,498685.8,NULL,Fleisch,mshakiki,d,NA,NA,NA,foniula,NA,NA,2,NA,NA,NA,NA,NA,NA,NA,NA,NA,NA,NA,NA,NA,NA,NA,NA,NA,NA,NA
646b3,"""Richtig""-Screen",canvas.Screen,3_0_2_0_6_0_1,NA,NA,skipped,NA,498685.5,NA,NA,498683.60000002,498685.70000005,2023-12-16T10:03:55Z,498685.8,NULL,Fleisch,mshakiki,d,NA,NA,NA,NA,sdf,NA,2,NA,NA,NA,NA,NA,NA,NA,NA,NA,NA,NA,NA,NA,NA,NA,NA,NA,NA,NA
646b3,"""Falsch""-Screen",canvas.Screen,3_0_2_0_6_0_2,NA,NA,timeout,5000,498686.29999995,498685.8,498685.8,503669,503669.70000005,2023-12-16T10:04:00Z,503685.8,NULL,Fleisch,mshakiki,d,NA,NA,NA,NA,sdf,0,2,NA,NA,NA,NA,NA,NA,NA,NA,NA,NA,NA,NA,NA,NA,NA,NA,NA,NA,NA
646b3,deep,flow.Sequence,3_0_2_0_6_0,NA,NA,completion,14066.6,489591.29999995,489585.7,489602.4,503669,503670.10000002,2023-12-16T10:04:00Z,503685.8,NULL,Fleisch,mshakiki,d,NA,NA,NA,NA,sdf,NA,2,NA,NA,NA,NA,NA,NA,NA,NA,NA,NA,NA,NA,NA,NA,NA,NA,NA,NA,NA
646b3,shallow,flow.Sequence,3_0_2_0_6_1,NA,NA,skipped,NA,503670.10000002,NA,NA,503669,503670.20000005,2023-12-16T10:04:00Z,503685.8,NULL,Fleisch,mshakiki,d,NA,NA,NA,NA,sdf,NA,2,NA,NA,NA,NA,NA,NA,NA,NA,NA,NA,NA,NA,NA,NA,NA,NA,NA,NA,NA
646b3,task,flow.Sequence,3_0_2_0_6,NA,NA,completion,14066.6,489591.29999995,489585.7,489602.4,503669,503670.39999998,2023-12-16T10:04:00Z,503685.8,NULL,Fleisch,mshakiki,d,NA,NA,NA,NA,sdf,NA,2,NA,NA,NA,NA,NA,NA,NA,NA,NA,NA,NA,NA,NA,NA,NA,NA,NA,NA,NA
646b3,Deep Question,html.Page,3_0_2_0_7_0_0,NA,NA,form submission,12949.800000024,503670.60000002,503669,503685.8,516635.60000002,516635.89999998,2023-12-16T10:04:13Z,516652.6,NULL,Inhalt,yaliyomo,d,NA,NA,NA,giola,NA,NA,2,NA,NA,NA,NA,NA,NA,NA,NA,NA,NA,NA,NA,NA,NA,NA,NA,NA,NA,NA
646b3,"""Richtig""-Screen",canvas.Screen,3_0_2_0_7_0_1,NA,NA,skipped,NA,516637.79999995,NA,NA,516635.60000002,516637.79999995,2023-12-16T10:04:13Z,516652.6,NULL,Inhalt,yaliyomo,d,NA,NA,NA,NA,sdf,NA,2,NA,NA,NA,NA,NA,NA,NA,NA,NA,NA,NA,NA,NA,NA,NA,NA,NA,NA,NA
646b3,"""Falsch""-Screen",canvas.Screen,3_0_2_0_7_0_2,NA,NA,timeout,4999.9,516638.29999995,516626.8,516652.6,521635.7,521636.60000002,2023-12-16T10:04:18Z,521652.5,NULL,Inhalt,yaliyomo,d,NA,NA,NA,NA,sdf,0,2,NA,NA,NA,NA,NA,NA,NA,NA,NA,NA,NA,NA,NA,NA,NA,NA,NA,NA,NA
646b3,deep,flow.Sequence,3_0_2_0_7_0,NA,NA,completion,17949.9,503670.5,503669,503685.8,521635.7,521636.89999998,2023-12-16T10:04:18Z,521652.5,NULL,Inhalt,yaliyomo,d,NA,NA,NA,NA,sdf,NA,2,NA,NA,NA,NA,NA,NA,NA,NA,NA,NA,NA,NA,NA,NA,NA,NA,NA,NA,NA
646b3,shallow,flow.Sequence,3_0_2_0_7_1,NA,NA,skipped,NA,521637.10000002,NA,NA,521635.7,521637.20000005,2023-12-16T10:04:18Z,521652.5,NULL,Inhalt,yaliyomo,d,NA,NA,NA,NA,sdf,NA,2,NA,NA,NA,NA,NA,NA,NA,NA,NA,NA,NA,NA,NA,NA,NA,NA,NA,NA,NA
646b3,task,flow.Sequence,3_0_2_0_7,NA,NA,completion,17949.9,503670.5,503669,503685.8,521635.7,521637.29999995,2023-12-16T10:04:18Z,521652.5,NULL,Inhalt,yaliyomo,d,NA,NA,NA,NA,sdf,NA,2,NA,NA,NA,NA,NA,NA,NA,NA,NA,NA,NA,NA,NA,NA,NA,NA,NA,NA,NA
646b3,block,flow.Loop,3_0_2_0,NA,NA,completion,148116.7,373508.79999995,373502.4,373519,521635.7,521637.60000002,2023-12-16T10:04:18Z,521652.5,NULL,NA,NA,NA,NA,NA,NA,NA,sdf,NA,2,NA,NA,NA,NA,NA,NA,NA,NA,NA,NA,NA,NA,NA,NA,NA,NA,NA,NA,NA
646b3,weiter,canvas.Screen,3_0_2_1,sdf,keypress(Space),response,9718.7000000477,521637.60000002,521635.7,521652.5,531371.20000005,531372.10000002,2023-12-16T10:04:28Z,531435.6,NULL,NA,NA,NA,NA,NA,NA,NA,sdf,NA,2,NA,NA,NA,NA,NA,NA,NA,NA,NA,NA,NA,NA,NA,NA,NA,NA,NA,NA,NA
646b3,check continue,flow.Sequence,3_0_2,NA,NA,completion,157852.20000005,373508.79999995,373502.4,373519,531371.20000005,531372.39999998,2023-12-16T10:04:28Z,531435.6,NULL,NA,NA,NA,NA,NA,NA,NA,sdf,NA,2,NA,NA,NA,NA,NA,NA,NA,NA,NA,NA,NA,NA,NA,NA,NA,NA,NA,NA,NA
646b3,Deep Question,html.Page,3_0_3_0_0_0_0,NA,NA,form submission,8448.1000000477,531433,531418.7,531435.6,539883.70000005,539883.89999998,2023-12-16T10:04:37Z,539885.7,NULL,Inhalt,yaliyomo,d,NA,NA,NA,eloila,NA,NA,3,NA,NA,NA,NA,NA,NA,NA,NA,NA,NA,NA,NA,NA,NA,NA,NA,NA,NA,NA
646b3,"""Richtig""-Screen",canvas.Screen,3_0_3_0_0_0_1,NA,NA,skipped,NA,539885.70000005,NA,NA,539883.70000005,539885.79999995,2023-12-16T10:04:37Z,539885.7,NULL,Inhalt,yaliyomo,d,NA,NA,NA,NA,qt,NA,3,NA,NA,NA,NA,NA,NA,NA,NA,NA,NA,NA,NA,NA,NA,NA,NA,NA,NA,NA
646b3,"""Falsch""-Screen",canvas.Screen,3_0_3_0_0_0_2,NA,NA,timeout,5000,539886.39999998,539885.7,539885.7,544869,544871,2023-12-16T10:04:42Z,544885.7,NULL,Inhalt,yaliyomo,d,NA,NA,NA,NA,qt,0,3,NA,NA,NA,NA,NA,NA,NA,NA,NA,NA,NA,NA,NA,NA,NA,NA,NA,NA,NA
646b3,deep,flow.Sequence,3_0_3_0_0_0,NA,NA,completion,13433.4,531433,531418.7,531435.6,544869,544871.29999995,2023-12-16T10:04:42Z,544885.7,NULL,Inhalt,yaliyomo,d,NA,NA,NA,NA,qt,NA,3,NA,NA,NA,NA,NA,NA,NA,NA,NA,NA,NA,NA,NA,NA,NA,NA,NA,NA,NA
646b3,shallow,flow.Sequence,3_0_3_0_0_1,NA,NA,skipped,NA,544871.39999998,NA,NA,544869,544871.5,2023-12-16T10:04:42Z,544885.7,NULL,Inhalt,yaliyomo,d,NA,NA,NA,NA,qt,NA,3,NA,NA,NA,NA,NA,NA,NA,NA,NA,NA,NA,NA,NA,NA,NA,NA,NA,NA,NA
646b3,task,flow.Sequence,3_0_3_0_0,NA,NA,completion,13433.4,531432.89999998,531418.7,531435.6,544869,544871.70000005,2023-12-16T10:04:42Z,544885.7,NULL,Inhalt,yaliyomo,d,NA,NA,NA,NA,qt,NA,3,NA,NA,NA,NA,NA,NA,NA,NA,NA,NA,NA,NA,NA,NA,NA,NA,NA,NA,NA
646b3,Deep Question,html.Page,3_0_3_0_1_0_0,NA,NA,form submission,10677.900000024,544871.89999998,544869,544885.7,555563.60000002,555563.79999995,2023-12-16T10:04:52Z,555568.9,NULL,Integrität,uadilifu,d,NA,NA,NA,holiasu,NA,NA,3,NA,NA,NA,NA,NA,NA,NA,NA,NA,NA,NA,NA,NA,NA,NA,NA,NA,NA,NA
646b3,"""Richtig""-Screen",canvas.Screen,3_0_3_0_1_0_1,NA,NA,skipped,NA,555565.5,NA,NA,555563.60000002,555565.70000005,2023-12-16T10:04:52Z,555568.9,NULL,Integrität,uadilifu,d,NA,NA,NA,NA,qt,NA,3,NA,NA,NA,NA,NA,NA,NA,NA,NA,NA,NA,NA,NA,NA,NA,NA,NA,NA,NA
646b3,"""Falsch""-Screen",canvas.Screen,3_0_3_0_1_0_2,NA,NA,timeout,5000.2,555566.20000005,555556.6,555568.9,560552.4,560553.20000005,2023-12-16T10:04:57Z,560569.1,NULL,Integrität,uadilifu,d,NA,NA,NA,NA,qt,0,3,NA,NA,NA,NA,NA,NA,NA,NA,NA,NA,NA,NA,NA,NA,NA,NA,NA,NA,NA
646b3,deep,flow.Sequence,3_0_3_0_1_0,NA,NA,completion,15666.7,544871.79999995,544869,544885.7,560552.4,560553.60000002,2023-12-16T10:04:57Z,560569.1,NULL,Integrität,uadilifu,d,NA,NA,NA,NA,qt,NA,3,NA,NA,NA,NA,NA,NA,NA,NA,NA,NA,NA,NA,NA,NA,NA,NA,NA,NA,NA
646b3,shallow,flow.Sequence,3_0_3_0_1_1,NA,NA,skipped,NA,560553.60000002,NA,NA,560552.4,560553.79999995,2023-12-16T10:04:57Z,560569.1,NULL,Integrität,uadilifu,d,NA,NA,NA,NA,qt,NA,3,NA,NA,NA,NA,NA,NA,NA,NA,NA,NA,NA,NA,NA,NA,NA,NA,NA,NA,NA
646b3,task,flow.Sequence,3_0_3_0_1,NA,NA,completion,15666.7,544871.79999995,544869,544885.7,560552.4,560553.89999998,2023-12-16T10:04:57Z,560569.1,NULL,Integrität,uadilifu,d,NA,NA,NA,NA,qt,NA,3,NA,NA,NA,NA,NA,NA,NA,NA,NA,NA,NA,NA,NA,NA,NA,NA,NA,NA,NA
646b3,deep,flow.Sequence,3_0_3_0_2_0,NA,NA,skipped,NA,560554,NA,NA,560552.4,560554.10000002,2023-12-16T10:04:57Z,560569.1,NULL,Begegnung,kukutana,s,mmasihiya,mpiganaji,husiano,NA,qt,NA,3,NA,NA,NA,NA,NA,NA,NA,NA,NA,NA,NA,NA,NA,NA,NA,NA,NA,NA,NA
646b3,Shallow Question,html.Page,3_0_3_0_2_1_0,NA,NA,form submission,6274.2999999762,560554.20000005,560552.4,560569.1,566843.39999998,566843.60000002,2023-12-16T10:05:04Z,566852.2,NULL,Begegnung,kukutana,s,mmasihiya,mpiganaji,husiano,husiano,NA,NA,3,NA,NA,NA,NA,NA,NA,NA,NA,NA,NA,NA,NA,NA,NA,NA,NA,NA,NA,NA
646b3,"""Richtig""-Screen",canvas.Screen,3_0_3_0_2_1_1,NA,NA,skipped,NA,566845.29999995,NA,NA,566843.39999998,566845.39999998,2023-12-16T10:05:04Z,566852.2,NULL,Begegnung,kukutana,s,mmasihiya,mpiganaji,husiano,NA,qt,NA,3,NA,NA,NA,NA,NA,NA,NA,NA,NA,NA,NA,NA,NA,NA,NA,NA,NA,NA,NA
646b3,"""Falsch""-Screen",canvas.Screen,3_0_3_0_2_1_2,NA,NA,timeout,5000.2000000001,566846.10000002,566835.8,566852.2,571835.8,571836.5,2023-12-16T10:05:09Z,571852.4,NULL,Begegnung,kukutana,s,mmasihiya,mpiganaji,husiano,NA,qt,0,3,NA,NA,NA,NA,NA,NA,NA,NA,NA,NA,NA,NA,NA,NA,NA,NA,NA,NA,NA
646b3,shallow,flow.Sequence,3_0_3_0_2_1,NA,NA,completion,11266.7,560554.20000005,560552.4,560569.1,571835.8,571836.70000005,2023-12-16T10:05:09Z,571852.4,NULL,Begegnung,kukutana,s,mmasihiya,mpiganaji,husiano,NA,qt,NA,3,NA,NA,NA,NA,NA,NA,NA,NA,NA,NA,NA,NA,NA,NA,NA,NA,NA,NA,NA
646b3,task,flow.Sequence,3_0_3_0_2,NA,NA,completion,11266.7,560553.89999998,560552.4,560569.1,571835.8,571836.89999998,2023-12-16T10:05:09Z,571852.4,NULL,Begegnung,kukutana,s,mmasihiya,mpiganaji,husiano,NA,qt,NA,3,NA,NA,NA,NA,NA,NA,NA,NA,NA,NA,NA,NA,NA,NA,NA,NA,NA,NA,NA
646b3,Deep Question,html.Page,3_0_3_0_3_0_0,NA,NA,form submission,7055.1,571837.10000002,571835.8,571852.4,578907.5,578907.70000005,2023-12-16T10:05:16Z,578918.9,NULL,Vermutung,udhanifu,d,NA,NA,NA,goliua,NA,NA,3,NA,NA,NA,NA,NA,NA,NA,NA,NA,NA,NA,NA,NA,NA,NA,NA,NA,NA,NA
646b3,"""Richtig""-Screen",canvas.Screen,3_0_3_0_3_0_1,NA,NA,skipped,NA,578909.5,NA,NA,578907.5,578909.60000002,2023-12-16T10:05:16Z,578918.9,NULL,Vermutung,udhanifu,d,NA,NA,NA,NA,qt,NA,3,NA,NA,NA,NA,NA,NA,NA,NA,NA,NA,NA,NA,NA,NA,NA,NA,NA,NA,NA
646b3,"""Falsch""-Screen",canvas.Screen,3_0_3_0_3_0_2,NA,NA,timeout,5000.1,578910.20000005,578902.4,578918.9,583902.3,583903.10000002,2023-12-16T10:05:21Z,583919,NULL,Vermutung,udhanifu,d,NA,NA,NA,NA,qt,0,3,NA,NA,NA,NA,NA,NA,NA,NA,NA,NA,NA,NA,NA,NA,NA,NA,NA,NA,NA
646b3,deep,flow.Sequence,3_0_3_0_3_0,NA,NA,completion,12049.9,571837.10000002,571835.8,571852.4,583902.3,583903.39999998,2023-12-16T10:05:21Z,583919,NULL,Vermutung,udhanifu,d,NA,NA,NA,NA,qt,NA,3,NA,NA,NA,NA,NA,NA,NA,NA,NA,NA,NA,NA,NA,NA,NA,NA,NA,NA,NA
646b3,shallow,flow.Sequence,3_0_3_0_3_1,NA,NA,skipped,NA,583903.5,NA,NA,583902.3,583903.60000002,2023-12-16T10:05:21Z,583919,NULL,Vermutung,udhanifu,d,NA,NA,NA,NA,qt,NA,3,NA,NA,NA,NA,NA,NA,NA,NA,NA,NA,NA,NA,NA,NA,NA,NA,NA,NA,NA
646b3,task,flow.Sequence,3_0_3_0_3,NA,NA,completion,12049.9,571837,571835.8,571852.4,583902.3,583903.79999995,2023-12-16T10:05:21Z,583919,NULL,Vermutung,udhanifu,d,NA,NA,NA,NA,qt,NA,3,NA,NA,NA,NA,NA,NA,NA,NA,NA,NA,NA,NA,NA,NA,NA,NA,NA,NA,NA
646b3,deep,flow.Sequence,3_0_3_0_4_0,NA,NA,skipped,NA,583903.89999998,NA,NA,583902.3,583903.89999998,2023-12-16T10:05:21Z,583919,NULL,Toleranz,kuvumiliana,s,maombolezo,ujasusi,mchekeshaji,NA,qt,NA,3,NA,NA,NA,NA,NA,NA,NA,NA,NA,NA,NA,NA,NA,NA,NA,NA,NA,NA,NA
646b3,Shallow Question,html.Page,3_0_3_0_4_1_0,NA,NA,form submission,8084.3999999762,583904.10000002,583902.3,583919,592003.39999998,592003.70000005,2023-12-16T10:05:29Z,592019,NULL,Toleranz,kuvumiliana,s,maombolezo,ujasusi,mchekeshaji,mchekeshaji,NA,NA,3,NA,NA,NA,NA,NA,NA,NA,NA,NA,NA,NA,NA,NA,NA,NA,NA,NA,NA,NA
646b3,"""Richtig""-Screen",canvas.Screen,3_0_3_0_4_1_1,NA,NA,skipped,NA,592005.39999998,NA,NA,592003.39999998,592005.60000002,2023-12-16T10:05:29Z,592019,NULL,Toleranz,kuvumiliana,s,maombolezo,ujasusi,mchekeshaji,NA,qt,NA,3,NA,NA,NA,NA,NA,NA,NA,NA,NA,NA,NA,NA,NA,NA,NA,NA,NA,NA,NA
646b3,"""Falsch""-Screen",canvas.Screen,3_0_3_0_4_1_2,NA,NA,timeout,4999.9,592006.20000005,592002.4,592019,597002.4,597003,2023-12-16T10:05:34Z,597018.9,NULL,Toleranz,kuvumiliana,s,maombolezo,ujasusi,mchekeshaji,NA,qt,0,3,NA,NA,NA,NA,NA,NA,NA,NA,NA,NA,NA,NA,NA,NA,NA,NA,NA,NA,NA
646b3,shallow,flow.Sequence,3_0_3_0_4_1,NA,NA,completion,13083.4,583904.10000002,583902.3,583919,597002.4,597003.29999995,2023-12-16T10:05:34Z,597018.9,NULL,Toleranz,kuvumiliana,s,maombolezo,ujasusi,mchekeshaji,NA,qt,NA,3,NA,NA,NA,NA,NA,NA,NA,NA,NA,NA,NA,NA,NA,NA,NA,NA,NA,NA,NA
646b3,task,flow.Sequence,3_0_3_0_4,NA,NA,completion,13083.4,583903.89999998,583902.3,583919,597002.4,597003.5,2023-12-16T10:05:34Z,597018.9,NULL,Toleranz,kuvumiliana,s,maombolezo,ujasusi,mchekeshaji,NA,qt,NA,3,NA,NA,NA,NA,NA,NA,NA,NA,NA,NA,NA,NA,NA,NA,NA,NA,NA,NA,NA
646b3,deep,flow.Sequence,3_0_3_0_5_0,NA,NA,skipped,NA,597003.70000005,NA,NA,597002.4,597003.70000005,2023-12-16T10:05:34Z,597018.9,NULL,Schlange,foleni,s,uvumilivu,uteuzi,muuzaji,NA,qt,NA,3,NA,NA,NA,NA,NA,NA,NA,NA,NA,NA,NA,NA,NA,NA,NA,NA,NA,NA,NA
646b3,Shallow Question,html.Page,3_0_3_0_5_1_0,NA,NA,form submission,8176.3999999523,597003.89999998,597002.4,597018.9,605195.29999995,605195.60000002,2023-12-16T10:05:42Z,605202.1,NULL,Schlange,foleni,s,uvumilivu,uteuzi,muuzaji,foleni,NA,NA,3,NA,NA,NA,NA,NA,NA,NA,NA,NA,NA,NA,NA,NA,NA,NA,NA,NA,NA,NA
646b3,"""Richtig""-Screen",canvas.Screen,3_0_3_0_5_1_1,NA,NA,timeout,5000.2000000001,605197.29999995,605185.7,605202.1,610185.7,610186.5,2023-12-16T10:05:47Z,610202.3,NULL,Schlange,foleni,s,uvumilivu,uteuzi,muuzaji,NA,qt,1,3,NA,NA,NA,NA,NA,NA,NA,NA,NA,NA,NA,NA,NA,NA,NA,NA,NA,NA,NA
646b3,"""Falsch""-Screen",canvas.Screen,3_0_3_0_5_1_2,NA,NA,skipped,NA,610190.60000002,NA,NA,610185.7,610190.79999995,2023-12-16T10:05:47Z,610202.3,NULL,Schlange,foleni,s,uvumilivu,uteuzi,muuzaji,NA,qt,NA,3,NA,NA,NA,NA,NA,NA,NA,NA,NA,NA,NA,NA,NA,NA,NA,NA,NA,NA,NA
646b3,shallow,flow.Sequence,3_0_3_0_5_1,NA,NA,completion,13166.8,597003.89999998,597002.4,597018.9,610185.7,610191,2023-12-16T10:05:47Z,610202.3,NULL,Schlange,foleni,s,uvumilivu,uteuzi,muuzaji,NA,qt,NA,3,NA,NA,NA,NA,NA,NA,NA,NA,NA,NA,NA,NA,NA,NA,NA,NA,NA,NA,NA
646b3,task,flow.Sequence,3_0_3_0_5,NA,NA,completion,13166.8,597003.60000002,597002.4,597018.9,610185.7,610191.20000005,2023-12-16T10:05:47Z,610202.3,NULL,Schlange,foleni,s,uvumilivu,uteuzi,muuzaji,NA,qt,NA,3,NA,NA,NA,NA,NA,NA,NA,NA,NA,NA,NA,NA,NA,NA,NA,NA,NA,NA,NA
646b3,Deep Question,html.Page,3_0_3_0_6_0_0,NA,NA,form submission,8497.3000000238,610191.39999998,610185.7,610202.3,618699.60000002,618699.79999995,2023-12-16T10:05:55Z,618702.3,NULL,Fleisch,mshakiki,d,NA,NA,NA,reoli,NA,NA,3,NA,NA,NA,NA,NA,NA,NA,NA,NA,NA,NA,NA,NA,NA,NA,NA,NA,NA,NA
646b3,"""Richtig""-Screen",canvas.Screen,3_0_3_0_6_0_1,NA,NA,skipped,NA,618701.70000005,NA,NA,618699.60000002,618701.79999995,2023-12-16T10:05:55Z,618702.3,NULL,Fleisch,mshakiki,d,NA,NA,NA,NA,qt,NA,3,NA,NA,NA,NA,NA,NA,NA,NA,NA,NA,NA,NA,NA,NA,NA,NA,NA,NA,NA
646b3,"""Falsch""-Screen",canvas.Screen,3_0_3_0_6_0_2,NA,NA,timeout,5000,618702.39999998,618702.3,618702.3,623685.6,623686.5,2023-12-16T10:06:00Z,623702.3,NULL,Fleisch,mshakiki,d,NA,NA,NA,NA,qt,0,3,NA,NA,NA,NA,NA,NA,NA,NA,NA,NA,NA,NA,NA,NA,NA,NA,NA,NA,NA
646b3,deep,flow.Sequence,3_0_3_0_6_0,NA,NA,completion,13483.3,610191.29999995,610185.7,610202.3,623685.6,623686.79999995,2023-12-16T10:06:00Z,623702.3,NULL,Fleisch,mshakiki,d,NA,NA,NA,NA,qt,NA,3,NA,NA,NA,NA,NA,NA,NA,NA,NA,NA,NA,NA,NA,NA,NA,NA,NA,NA,NA
646b3,shallow,flow.Sequence,3_0_3_0_6_1,NA,NA,skipped,NA,623687,NA,NA,623685.6,623687,2023-12-16T10:06:00Z,623702.3,NULL,Fleisch,mshakiki,d,NA,NA,NA,NA,qt,NA,3,NA,NA,NA,NA,NA,NA,NA,NA,NA,NA,NA,NA,NA,NA,NA,NA,NA,NA,NA
646b3,task,flow.Sequence,3_0_3_0_6,NA,NA,completion,13483.3,610191.29999995,610185.7,610202.3,623685.6,623687.20000005,2023-12-16T10:06:00Z,623702.3,NULL,Fleisch,mshakiki,d,NA,NA,NA,NA,qt,NA,3,NA,NA,NA,NA,NA,NA,NA,NA,NA,NA,NA,NA,NA,NA,NA,NA,NA,NA,NA
646b3,deep,flow.Sequence,3_0_3_0_7_0,NA,NA,skipped,NA,623687.29999995,NA,NA,623685.6,623687.5,2023-12-16T10:06:00Z,623702.3,NULL,Genehmigung,idhini,s,mwanamke,itikadi,fedheha,NA,qt,NA,3,NA,NA,NA,NA,NA,NA,NA,NA,NA,NA,NA,NA,NA,NA,NA,NA,NA,NA,NA
646b3,Shallow Question,html.Page,3_0_3_0_7_1_0,NA,NA,form submission,8925.2,623687.5,623685.6,623702.3,632627.5,632627.60000002,2023-12-16T10:06:09Z,632635.5,NULL,Genehmigung,idhini,s,mwanamke,itikadi,fedheha,fedheha,NA,NA,3,NA,NA,NA,NA,NA,NA,NA,NA,NA,NA,NA,NA,NA,NA,NA,NA,NA,NA,NA
646b3,"""Richtig""-Screen",canvas.Screen,3_0_3_0_7_1_1,NA,NA,skipped,NA,632629.29999995,NA,NA,632627.5,632629.5,2023-12-16T10:06:09Z,632635.5,NULL,Genehmigung,idhini,s,mwanamke,itikadi,fedheha,NA,qt,NA,3,NA,NA,NA,NA,NA,NA,NA,NA,NA,NA,NA,NA,NA,NA,NA,NA,NA,NA,NA
646b3,"""Falsch""-Screen",canvas.Screen,3_0_3_0_7_1_2,NA,NA,timeout,5000.2,632630,632619.1,632635.5,637619,637619.89999998,2023-12-16T10:06:14Z,637635.7,NULL,Genehmigung,idhini,s,mwanamke,itikadi,fedheha,NA,qt,0,3,NA,NA,NA,NA,NA,NA,NA,NA,NA,NA,NA,NA,NA,NA,NA,NA,NA,NA,NA
646b3,shallow,flow.Sequence,3_0_3_0_7_1,NA,NA,completion,13916.7,623687.5,623685.6,623702.3,637619,637620.20000005,2023-12-16T10:06:14Z,637635.7,NULL,Genehmigung,idhini,s,mwanamke,itikadi,fedheha,NA,qt,NA,3,NA,NA,NA,NA,NA,NA,NA,NA,NA,NA,NA,NA,NA,NA,NA,NA,NA,NA,NA
646b3,task,flow.Sequence,3_0_3_0_7,NA,NA,completion,13916.7,623687.29999995,623685.6,623702.3,637619,637620.39999998,2023-12-16T10:06:14Z,637635.7,NULL,Genehmigung,idhini,s,mwanamke,itikadi,fedheha,NA,qt,NA,3,NA,NA,NA,NA,NA,NA,NA,NA,NA,NA,NA,NA,NA,NA,NA,NA,NA,NA,NA
646b3,block,flow.Loop,3_0_3_0,NA,NA,completion,106183.4,531432.89999998,531418.7,531435.6,637619,637620.60000002,2023-12-16T10:06:14Z,637635.7,NULL,NA,NA,NA,NA,NA,NA,NA,qt,NA,3,NA,NA,NA,NA,NA,NA,NA,NA,NA,NA,NA,NA,NA,NA,NA,NA,NA,NA,NA
646b3,weiter,canvas.Screen,3_0_3_1,sdf,keypress(Space),response,26591.400000024,637620.70000005,637619,637635.7,664227.10000002,664228,2023-12-16T10:06:41Z,664269,NULL,NA,NA,NA,NA,NA,NA,NA,qt,NA,3,NA,NA,NA,NA,NA,NA,NA,NA,NA,NA,NA,NA,NA,NA,NA,NA,NA,NA,NA
646b3,check continue,flow.Sequence,3_0_3,NA,NA,completion,132791.50000002,531432.79999995,531418.7,531435.6,664227.10000002,664228.20000005,2023-12-16T10:06:41Z,664269,NULL,NA,NA,NA,NA,NA,NA,NA,qt,NA,3,NA,NA,NA,NA,NA,NA,NA,NA,NA,NA,NA,NA,NA,NA,NA,NA,NA,NA,NA
646b3,deep,flow.Sequence,3_0_4_0_0_0,NA,NA,skipped,NA,664276.79999995,NA,NA,664227.10000002,664276.89999998,2023-12-16T10:06:41Z,664269,NULL,Schlange,foleni,s,uvumilivu,uteuzi,muuzaji,NA,sd,NA,4,NA,NA,NA,NA,NA,NA,NA,NA,NA,NA,NA,NA,NA,NA,NA,NA,NA,NA,NA
646b3,Shallow Question,html.Page,3_0_4_0_0_1_0,NA,NA,form submission,13222.5,664276.89999998,664268,664269,677491.5,677491.70000005,2023-12-16T10:06:54Z,677502.4,NULL,Schlange,foleni,s,uvumilivu,uteuzi,muuzaji,foleni,NA,NA,4,NA,NA,NA,NA,NA,NA,NA,NA,NA,NA,NA,NA,NA,NA,NA,NA,NA,NA,NA
646b3,"""Richtig""-Screen",canvas.Screen,3_0_4_0_0_1_1,NA,NA,timeout,4999.9,677493.5,677485.6,677502.4,682485.7,682486.5,2023-12-16T10:06:59Z,682502.3,NULL,Schlange,foleni,s,uvumilivu,uteuzi,muuzaji,NA,sd,1,4,NA,NA,NA,NA,NA,NA,NA,NA,NA,NA,NA,NA,NA,NA,NA,NA,NA,NA,NA
646b3,"""Falsch""-Screen",canvas.Screen,3_0_4_0_0_1_2,NA,NA,skipped,NA,682490.60000002,NA,NA,682485.7,682490.79999995,2023-12-16T10:06:59Z,682502.3,NULL,Schlange,foleni,s,uvumilivu,uteuzi,muuzaji,NA,sd,NA,4,NA,NA,NA,NA,NA,NA,NA,NA,NA,NA,NA,NA,NA,NA,NA,NA,NA,NA,NA
646b3,shallow,flow.Sequence,3_0_4_0_0_1,NA,NA,completion,18216.7,664276.89999998,664268,664269,682485.7,682491.10000002,2023-12-16T10:06:59Z,682502.3,NULL,Schlange,foleni,s,uvumilivu,uteuzi,muuzaji,NA,sd,NA,4,NA,NA,NA,NA,NA,NA,NA,NA,NA,NA,NA,NA,NA,NA,NA,NA,NA,NA,NA
646b3,task,flow.Sequence,3_0_4_0_0,NA,NA,completion,18216.7,664276.79999995,664268,664269,682485.7,682491.10000002,2023-12-16T10:06:59Z,682502.3,NULL,Schlange,foleni,s,uvumilivu,uteuzi,muuzaji,NA,sd,NA,4,NA,NA,NA,NA,NA,NA,NA,NA,NA,NA,NA,NA,NA,NA,NA,NA,NA,NA,NA
646b3,deep,flow.Sequence,3_0_4_0_1_0,NA,NA,skipped,NA,682491.29999995,NA,NA,682485.7,682491.39999998,2023-12-16T10:06:59Z,682502.3,NULL,Toleranz,kuvumiliana,s,maombolezo,ujasusi,mchekeshaji,NA,sd,NA,4,NA,NA,NA,NA,NA,NA,NA,NA,NA,NA,NA,NA,NA,NA,NA,NA,NA,NA,NA
646b3,Shallow Question,html.Page,3_0_4_0_1_1_0,NA,NA,form submission,24517.099999976,682491.5,682485.7,682502.3,707019.39999998,707019.60000002,2023-12-16T10:07:24Z,707035.7,NULL,Toleranz,kuvumiliana,s,maombolezo,ujasusi,mchekeshaji,kuvumiliana,NA,NA,4,NA,NA,NA,NA,NA,NA,NA,NA,NA,NA,NA,NA,NA,NA,NA,NA,NA,NA,NA
646b3,"""Richtig""-Screen",canvas.Screen,3_0_4_0_1_1_1,NA,NA,timeout,4999.9,707021.29999995,707007,707035.7,712019,712019.70000005,2023-12-16T10:07:29Z,712035.6,NULL,Toleranz,kuvumiliana,s,maombolezo,ujasusi,mchekeshaji,NA,sd,1,4,NA,NA,NA,NA,NA,NA,NA,NA,NA,NA,NA,NA,NA,NA,NA,NA,NA,NA,NA
646b3,"""Falsch""-Screen",canvas.Screen,3_0_4_0_1_1_2,NA,NA,skipped,NA,712023.89999998,NA,NA,712019,712024.10000002,2023-12-16T10:07:29Z,712035.6,NULL,Toleranz,kuvumiliana,s,maombolezo,ujasusi,mchekeshaji,NA,sd,NA,4,NA,NA,NA,NA,NA,NA,NA,NA,NA,NA,NA,NA,NA,NA,NA,NA,NA,NA,NA
646b3,shallow,flow.Sequence,3_0_4_0_1_1,NA,NA,completion,29516.7,682491.5,682485.7,682502.3,712019,712024.29999995,2023-12-16T10:07:29Z,712035.6,NULL,Toleranz,kuvumiliana,s,maombolezo,ujasusi,mchekeshaji,NA,sd,NA,4,NA,NA,NA,NA,NA,NA,NA,NA,NA,NA,NA,NA,NA,NA,NA,NA,NA,NA,NA
646b3,task,flow.Sequence,3_0_4_0_1,NA,NA,completion,29516.7,682491.20000005,682485.7,682502.3,712019,712024.5,2023-12-16T10:07:29Z,712035.6,NULL,Toleranz,kuvumiliana,s,maombolezo,ujasusi,mchekeshaji,NA,sd,NA,4,NA,NA,NA,NA,NA,NA,NA,NA,NA,NA,NA,NA,NA,NA,NA,NA,NA,NA,NA
646b3,Deep Question,html.Page,3_0_4_0_2_0_0,NA,NA,form submission,48367.9,712024.70000005,712019,712035.6,760403.5,760403.79999995,2023-12-16T10:08:17Z,760418.9,NULL,Inhalt,yaliyomo,d,NA,NA,NA,yaliyomo,NA,NA,4,NA,NA,NA,NA,NA,NA,NA,NA,NA,NA,NA,NA,NA,NA,NA,NA,NA,NA,NA
646b3,"""Richtig""-Screen",canvas.Screen,3_0_4_0_2_0_1,NA,NA,timeout,5000,760405.5,760402.3,760418.9,765402.3,765403,2023-12-16T10:08:22Z,765418.9,NULL,Inhalt,yaliyomo,d,NA,NA,NA,NA,sd,1,4,NA,NA,NA,NA,NA,NA,NA,NA,NA,NA,NA,NA,NA,NA,NA,NA,NA,NA,NA
646b3,"""Falsch""-Screen",canvas.Screen,3_0_4_0_2_0_2,NA,NA,skipped,NA,765407.10000002,NA,NA,765402.3,765407.29999995,2023-12-16T10:08:22Z,765418.9,NULL,Inhalt,yaliyomo,d,NA,NA,NA,NA,sd,NA,4,NA,NA,NA,NA,NA,NA,NA,NA,NA,NA,NA,NA,NA,NA,NA,NA,NA,NA,NA
646b3,deep,flow.Sequence,3_0_4_0_2_0,NA,NA,completion,53366.7,712024.60000002,712019,712035.6,765402.3,765407.60000002,2023-12-16T10:08:22Z,765418.9,NULL,Inhalt,yaliyomo,d,NA,NA,NA,NA,sd,NA,4,NA,NA,NA,NA,NA,NA,NA,NA,NA,NA,NA,NA,NA,NA,NA,NA,NA,NA,NA
646b3,shallow,flow.Sequence,3_0_4_0_2_1,NA,NA,skipped,NA,765407.70000005,NA,NA,765402.3,765407.70000005,2023-12-16T10:08:22Z,765418.9,NULL,Inhalt,yaliyomo,d,NA,NA,NA,NA,sd,NA,4,NA,NA,NA,NA,NA,NA,NA,NA,NA,NA,NA,NA,NA,NA,NA,NA,NA,NA,NA
646b3,task,flow.Sequence,3_0_4_0_2,NA,NA,completion,53366.7,712024.60000002,712019,712035.6,765402.3,765407.89999998,2023-12-16T10:08:22Z,765418.9,NULL,Inhalt,yaliyomo,d,NA,NA,NA,NA,sd,NA,4,NA,NA,NA,NA,NA,NA,NA,NA,NA,NA,NA,NA,NA,NA,NA,NA,NA,NA,NA
646b3,deep,flow.Sequence,3_0_4_0_3_0,NA,NA,skipped,NA,765408,NA,NA,765402.3,765408.10000002,2023-12-16T10:08:22Z,765418.9,NULL,Begegnung,kukutana,s,mmasihiya,mpiganaji,husiano,NA,sd,NA,4,NA,NA,NA,NA,NA,NA,NA,NA,NA,NA,NA,NA,NA,NA,NA,NA,NA,NA,NA
646b3,Shallow Question,html.Page,3_0_4_0_3_1_0,NA,NA,form submission,11640.399999952,765408.20000005,765402.3,765418.9,777059.29999995,777059.60000002,2023-12-16T10:08:34Z,777068.8,NULL,Begegnung,kukutana,s,mmasihiya,mpiganaji,husiano,kukutana,NA,NA,4,NA,NA,NA,NA,NA,NA,NA,NA,NA,NA,NA,NA,NA,NA,NA,NA,NA,NA,NA
646b3,"""Richtig""-Screen",canvas.Screen,3_0_4_0_3_1_1,NA,NA,timeout,5000.1,777061.29999995,777052.3,777068.8,782052.3,782053.20000005,2023-12-16T10:08:39Z,782068.9,NULL,Begegnung,kukutana,s,mmasihiya,mpiganaji,husiano,NA,sd,1,4,NA,NA,NA,NA,NA,NA,NA,NA,NA,NA,NA,NA,NA,NA,NA,NA,NA,NA,NA
646b3,"""Falsch""-Screen",canvas.Screen,3_0_4_0_3_1_2,NA,NA,skipped,NA,782057.39999998,NA,NA,782052.3,782057.70000005,2023-12-16T10:08:39Z,782068.9,NULL,Begegnung,kukutana,s,mmasihiya,mpiganaji,husiano,NA,sd,NA,4,NA,NA,NA,NA,NA,NA,NA,NA,NA,NA,NA,NA,NA,NA,NA,NA,NA,NA,NA
646b3,shallow,flow.Sequence,3_0_4_0_3_1,NA,NA,completion,16633.4,765408.20000005,765402.3,765418.9,782052.3,782058,2023-12-16T10:08:39Z,782068.9,NULL,Begegnung,kukutana,s,mmasihiya,mpiganaji,husiano,NA,sd,NA,4,NA,NA,NA,NA,NA,NA,NA,NA,NA,NA,NA,NA,NA,NA,NA,NA,NA,NA,NA
646b3,task,flow.Sequence,3_0_4_0_3,NA,NA,completion,16633.4,765408,765402.3,765418.9,782052.3,782058.10000002,2023-12-16T10:08:39Z,782068.9,NULL,Begegnung,kukutana,s,mmasihiya,mpiganaji,husiano,NA,sd,NA,4,NA,NA,NA,NA,NA,NA,NA,NA,NA,NA,NA,NA,NA,NA,NA,NA,NA,NA,NA
646b3,Deep Question,html.Page,3_0_4_0_4_0_0,NA,NA,form submission,6342.3000000477,782058.29999995,782052.3,782068.9,788411.20000005,788411.5,2023-12-16T10:08:45Z,788419,NULL,Integrität,uadilifu,d,NA,NA,NA,rtz,NA,NA,4,NA,NA,NA,NA,NA,NA,NA,NA,NA,NA,NA,NA,NA,NA,NA,NA,NA,NA,NA
646b3,"""Richtig""-Screen",canvas.Screen,3_0_4_0_4_0_1,NA,NA,skipped,NA,788413.20000005,NA,NA,788411.20000005,788413.29999995,2023-12-16T10:08:45Z,788419,NULL,Integrität,uadilifu,d,NA,NA,NA,NA,sd,NA,4,NA,NA,NA,NA,NA,NA,NA,NA,NA,NA,NA,NA,NA,NA,NA,NA,NA,NA,NA
646b3,"""Falsch""-Screen",canvas.Screen,3_0_4_0_4_0_2,NA,NA,timeout,4999.9,788413.79999995,788402.3,788419,793402.2,793402.89999998,2023-12-16T10:08:50Z,793418.9,NULL,Integrität,uadilifu,d,NA,NA,NA,NA,sd,0,4,NA,NA,NA,NA,NA,NA,NA,NA,NA,NA,NA,NA,NA,NA,NA,NA,NA,NA,NA
646b3,deep,flow.Sequence,3_0_4_0_4_0,NA,NA,completion,11333.3,782058.20000005,782052.3,782068.9,793402.2,793403.29999995,2023-12-16T10:08:50Z,793418.9,NULL,Integrität,uadilifu,d,NA,NA,NA,NA,sd,NA,4,NA,NA,NA,NA,NA,NA,NA,NA,NA,NA,NA,NA,NA,NA,NA,NA,NA,NA,NA
646b3,shallow,flow.Sequence,3_0_4_0_4_1,NA,NA,skipped,NA,793403.39999998,NA,NA,793402.2,793403.5,2023-12-16T10:08:50Z,793418.9,NULL,Integrität,uadilifu,d,NA,NA,NA,NA,sd,NA,4,NA,NA,NA,NA,NA,NA,NA,NA,NA,NA,NA,NA,NA,NA,NA,NA,NA,NA,NA
646b3,task,flow.Sequence,3_0_4_0_4,NA,NA,completion,11333.3,782058.20000005,782052.3,782068.9,793402.2,793403.60000002,2023-12-16T10:08:50Z,793418.9,NULL,Integrität,uadilifu,d,NA,NA,NA,NA,sd,NA,4,NA,NA,NA,NA,NA,NA,NA,NA,NA,NA,NA,NA,NA,NA,NA,NA,NA,NA,NA
646b3,Deep Question,html.Page,3_0_4_0_5_0_0,NA,NA,form submission,4488.6,793403.79999995,793402.2,793418.9,797907.5,797907.70000005,2023-12-16T10:08:55Z,797918.8,NULL,Vermutung,udhanifu,d,NA,NA,NA,sdfg,NA,NA,4,NA,NA,NA,NA,NA,NA,NA,NA,NA,NA,NA,NA,NA,NA,NA,NA,NA,NA,NA
646b3,"""Richtig""-Screen",canvas.Screen,3_0_4_0_5_0_1,NA,NA,skipped,NA,797909.39999998,NA,NA,797907.5,797909.60000002,2023-12-16T10:08:55Z,797918.8,NULL,Vermutung,udhanifu,d,NA,NA,NA,NA,sd,NA,4,NA,NA,NA,NA,NA,NA,NA,NA,NA,NA,NA,NA,NA,NA,NA,NA,NA,NA,NA
646b3,"""Falsch""-Screen",canvas.Screen,3_0_4_0_5_0_2,NA,NA,timeout,5000.2,797910.10000002,797902.4,797918.8,802902.3,802903.10000002,2023-12-16T10:09:00Z,802919,NULL,Vermutung,udhanifu,d,NA,NA,NA,NA,sd,0,4,NA,NA,NA,NA,NA,NA,NA,NA,NA,NA,NA,NA,NA,NA,NA,NA,NA,NA,NA
646b3,deep,flow.Sequence,3_0_4_0_5_0,NA,NA,completion,9483.4,793403.79999995,793402.2,793418.9,802902.3,802903.39999998,2023-12-16T10:09:00Z,802919,NULL,Vermutung,udhanifu,d,NA,NA,NA,NA,sd,NA,4,NA,NA,NA,NA,NA,NA,NA,NA,NA,NA,NA,NA,NA,NA,NA,NA,NA,NA,NA
646b3,shallow,flow.Sequence,3_0_4_0_5_1,NA,NA,skipped,NA,802903.5,NA,NA,802902.3,802903.70000005,2023-12-16T10:09:00Z,802919,NULL,Vermutung,udhanifu,d,NA,NA,NA,NA,sd,NA,4,NA,NA,NA,NA,NA,NA,NA,NA,NA,NA,NA,NA,NA,NA,NA,NA,NA,NA,NA
646b3,task,flow.Sequence,3_0_4_0_5,NA,NA,completion,9483.4,793403.70000005,793402.2,793418.9,802902.3,802903.79999995,2023-12-16T10:09:00Z,802919,NULL,Vermutung,udhanifu,d,NA,NA,NA,NA,sd,NA,4,NA,NA,NA,NA,NA,NA,NA,NA,NA,NA,NA,NA,NA,NA,NA,NA,NA,NA,NA
646b3,Deep Question,html.Page,3_0_4_0_6_0_0,NA,NA,form submission,3564.2999999523,802904,802902.3,802919,806483.29999995,806483.5,2023-12-16T10:09:03Z,806485.7,NULL,Fleisch,mshakiki,d,NA,NA,NA,asdf,NA,NA,4,NA,NA,NA,NA,NA,NA,NA,NA,NA,NA,NA,NA,NA,NA,NA,NA,NA,NA,NA
646b3,"""Richtig""-Screen",canvas.Screen,3_0_4_0_6_0_1,NA,NA,skipped,NA,806485.20000005,NA,NA,806483.29999995,806485.39999998,2023-12-16T10:09:03Z,806485.7,NULL,Fleisch,mshakiki,d,NA,NA,NA,NA,sd,NA,4,NA,NA,NA,NA,NA,NA,NA,NA,NA,NA,NA,NA,NA,NA,NA,NA,NA,NA,NA
646b3,"""Falsch""-Screen",canvas.Screen,3_0_4_0_6_0_2,NA,NA,timeout,4999.9,806486,806485.7,806485.7,811468.9,811469.70000005,2023-12-16T10:09:08Z,811485.6,NULL,Fleisch,mshakiki,d,NA,NA,NA,NA,sd,0,4,NA,NA,NA,NA,NA,NA,NA,NA,NA,NA,NA,NA,NA,NA,NA,NA,NA,NA,NA
646b3,deep,flow.Sequence,3_0_4_0_6_0,NA,NA,completion,8549.9,802903.89999998,802902.3,802919,811468.9,811469.89999998,2023-12-16T10:09:08Z,811485.6,NULL,Fleisch,mshakiki,d,NA,NA,NA,NA,sd,NA,4,NA,NA,NA,NA,NA,NA,NA,NA,NA,NA,NA,NA,NA,NA,NA,NA,NA,NA,NA
646b3,shallow,flow.Sequence,3_0_4_0_6_1,NA,NA,skipped,NA,811470,NA,NA,811468.9,811470.20000005,2023-12-16T10:09:08Z,811485.6,NULL,Fleisch,mshakiki,d,NA,NA,NA,NA,sd,NA,4,NA,NA,NA,NA,NA,NA,NA,NA,NA,NA,NA,NA,NA,NA,NA,NA,NA,NA,NA
646b3,task,flow.Sequence,3_0_4_0_6,NA,NA,completion,8549.9,802903.79999995,802902.3,802919,811468.9,811470.29999995,2023-12-16T10:09:08Z,811485.6,NULL,Fleisch,mshakiki,d,NA,NA,NA,NA,sd,NA,4,NA,NA,NA,NA,NA,NA,NA,NA,NA,NA,NA,NA,NA,NA,NA,NA,NA,NA,NA
646b3,deep,flow.Sequence,3_0_4_0_7_0,NA,NA,skipped,NA,811470.39999998,NA,NA,811468.9,811470.5,2023-12-16T10:09:08Z,811485.6,NULL,Genehmigung,idhini,s,mwanamke,itikadi,fedheha,NA,sd,NA,4,NA,NA,NA,NA,NA,NA,NA,NA,NA,NA,NA,NA,NA,NA,NA,NA,NA,NA,NA
646b3,Shallow Question,html.Page,3_0_4_0_7_1_0,NA,NA,form submission,12533.600000048,811470.60000002,811468.9,811485.6,824019.20000005,824019.39999998,2023-12-16T10:09:21Z,824036.3,NULL,Genehmigung,idhini,s,mwanamke,itikadi,fedheha,idhini,NA,NA,4,NA,NA,NA,NA,NA,NA,NA,NA,NA,NA,NA,NA,NA,NA,NA,NA,NA,NA,NA
646b3,"""Richtig""-Screen",canvas.Screen,3_0_4_0_7_1_1,NA,NA,timeout,4999.2999999999,824021.10000002,824019.1,824036.3,829019,829019.70000005,2023-12-16T10:09:26Z,829035.6,NULL,Genehmigung,idhini,s,mwanamke,itikadi,fedheha,NA,sd,1,4,NA,NA,NA,NA,NA,NA,NA,NA,NA,NA,NA,NA,NA,NA,NA,NA,NA,NA,NA
646b3,"""Falsch""-Screen",canvas.Screen,3_0_4_0_7_1_2,NA,NA,skipped,NA,829024.10000002,NA,NA,829019,829024.39999998,2023-12-16T10:09:26Z,829035.6,NULL,Genehmigung,idhini,s,mwanamke,itikadi,fedheha,NA,sd,NA,4,NA,NA,NA,NA,NA,NA,NA,NA,NA,NA,NA,NA,NA,NA,NA,NA,NA,NA,NA
646b3,shallow,flow.Sequence,3_0_4_0_7_1,NA,NA,completion,17533.4,811470.60000002,811468.9,811485.6,829019,829024.60000002,2023-12-16T10:09:26Z,829035.6,NULL,Genehmigung,idhini,s,mwanamke,itikadi,fedheha,NA,sd,NA,4,NA,NA,NA,NA,NA,NA,NA,NA,NA,NA,NA,NA,NA,NA,NA,NA,NA,NA,NA
646b3,task,flow.Sequence,3_0_4_0_7,NA,NA,completion,17533.4,811470.39999998,811468.9,811485.6,829019,829024.79999995,2023-12-16T10:09:26Z,829035.6,NULL,Genehmigung,idhini,s,mwanamke,itikadi,fedheha,NA,sd,NA,4,NA,NA,NA,NA,NA,NA,NA,NA,NA,NA,NA,NA,NA,NA,NA,NA,NA,NA,NA
646b3,block,flow.Loop,3_0_4_0,NA,NA,completion,164750,664276.79999995,664268,664269,829019,829025,2023-12-16T10:09:26Z,829035.6,NULL,NA,NA,NA,NA,NA,NA,NA,sd,NA,4,NA,NA,NA,NA,NA,NA,NA,NA,NA,NA,NA,NA,NA,NA,NA,NA,NA,NA,NA
646b3,weiter,canvas.Screen,3_0_4_1,sdf,keypress(Space),response,2134.7999999762,829025.10000002,829019,829035.6,831170.39999998,831171.39999998,2023-12-16T10:09:28Z,831202.2,NULL,NA,NA,NA,NA,NA,NA,NA,sd,NA,4,NA,NA,NA,NA,NA,NA,NA,NA,NA,NA,NA,NA,NA,NA,NA,NA,NA,NA,NA
646b3,check continue,flow.Sequence,3_0_4,NA,NA,completion,166901.39999998,664276.79999995,664268,664269,831170.39999998,831171.60000002,2023-12-16T10:09:28Z,831202.2,NULL,NA,NA,NA,NA,NA,NA,NA,sd,NA,4,NA,NA,NA,NA,NA,NA,NA,NA,NA,NA,NA,NA,NA,NA,NA,NA,NA,NA,NA
646b3,deep,flow.Sequence,3_0_5_0_0_0,NA,NA,skipped,NA,831212.70000005,NA,NA,831170.39999998,831213,2023-12-16T10:09:28Z,831202.2,NULL,Schlange,foleni,s,uvumilivu,uteuzi,muuzaji,NA,sdf,NA,5,NA,NA,NA,NA,NA,NA,NA,NA,NA,NA,NA,NA,NA,NA,NA,NA,NA,NA,NA
646b3,Shallow Question,html.Page,3_0_5_0_0_1_0,NA,NA,form submission,7832.9000000239,831213.20000005,831202.2,831202.2,839035.10000002,839035.5,2023-12-16T10:09:36Z,839052.5,NULL,Schlange,foleni,s,uvumilivu,uteuzi,muuzaji,foleni,NA,NA,5,NA,NA,NA,NA,NA,NA,NA,NA,NA,NA,NA,NA,NA,NA,NA,NA,NA,NA,NA
646b3,"""Richtig""-Screen",canvas.Screen,3_0_5_0_0_1_1,NA,NA,timeout,4999.7,839037.29999995,839035.6,839052.5,844035.6,844036.20000005,2023-12-16T10:09:41Z,844052.2,NULL,Schlange,foleni,s,uvumilivu,uteuzi,muuzaji,NA,sdf,1,5,NA,NA,NA,NA,NA,NA,NA,NA,NA,NA,NA,NA,NA,NA,NA,NA,NA,NA,NA
646b3,"""Falsch""-Screen",canvas.Screen,3_0_5_0_0_1_2,NA,NA,skipped,NA,844040.29999995,NA,NA,844035.6,844040.5,2023-12-16T10:09:41Z,844052.2,NULL,Schlange,foleni,s,uvumilivu,uteuzi,muuzaji,NA,sdf,NA,5,NA,NA,NA,NA,NA,NA,NA,NA,NA,NA,NA,NA,NA,NA,NA,NA,NA,NA,NA
646b3,shallow,flow.Sequence,3_0_5_0_0_1,NA,NA,completion,12833.4,831213.10000002,831202.2,831202.2,844035.6,844040.70000005,2023-12-16T10:09:41Z,844052.2,NULL,Schlange,foleni,s,uvumilivu,uteuzi,muuzaji,NA,sdf,NA,5,NA,NA,NA,NA,NA,NA,NA,NA,NA,NA,NA,NA,NA,NA,NA,NA,NA,NA,NA
646b3,task,flow.Sequence,3_0_5_0_0,NA,NA,completion,12833.4,831212.70000005,831202.2,831202.2,844035.6,844040.89999998,2023-12-16T10:09:41Z,844052.2,NULL,Schlange,foleni,s,uvumilivu,uteuzi,muuzaji,NA,sdf,NA,5,NA,NA,NA,NA,NA,NA,NA,NA,NA,NA,NA,NA,NA,NA,NA,NA,NA,NA,NA
646b3,Deep Question,html.Page,3_0_5_0_1_0_0,NA,NA,form submission,27183.000000048,844041,844035.6,844052.2,871235.20000005,871235.60000002,2023-12-16T10:10:08Z,871252.5,NULL,Integrität,uadilifu,d,NA,NA,NA,uadilifu,NA,NA,5,NA,NA,NA,NA,NA,NA,NA,NA,NA,NA,NA,NA,NA,NA,NA,NA,NA,NA,NA
646b3,"""Richtig""-Screen",canvas.Screen,3_0_5_0_1_0_1,NA,NA,timeout,4999.8,871237.39999998,871235.6,871252.5,876235.6,876236.29999995,2023-12-16T10:10:13Z,876252.3,NULL,Integrität,uadilifu,d,NA,NA,NA,NA,sdf,1,5,NA,NA,NA,NA,NA,NA,NA,NA,NA,NA,NA,NA,NA,NA,NA,NA,NA,NA,NA
646b3,"""Falsch""-Screen",canvas.Screen,3_0_5_0_1_0_2,NA,NA,skipped,NA,876240.39999998,NA,NA,876235.6,876240.60000002,2023-12-16T10:10:13Z,876252.3,NULL,Integrität,uadilifu,d,NA,NA,NA,NA,sdf,NA,5,NA,NA,NA,NA,NA,NA,NA,NA,NA,NA,NA,NA,NA,NA,NA,NA,NA,NA,NA
646b3,deep,flow.Sequence,3_0_5_0_1_0,NA,NA,completion,32183.4,844040.89999998,844035.6,844052.2,876235.6,876240.89999998,2023-12-16T10:10:13Z,876252.3,NULL,Integrität,uadilifu,d,NA,NA,NA,NA,sdf,NA,5,NA,NA,NA,NA,NA,NA,NA,NA,NA,NA,NA,NA,NA,NA,NA,NA,NA,NA,NA
646b3,shallow,flow.Sequence,3_0_5_0_1_1,NA,NA,skipped,NA,876241,NA,NA,876235.6,876241,2023-12-16T10:10:13Z,876252.3,NULL,Integrität,uadilifu,d,NA,NA,NA,NA,sdf,NA,5,NA,NA,NA,NA,NA,NA,NA,NA,NA,NA,NA,NA,NA,NA,NA,NA,NA,NA,NA
646b3,task,flow.Sequence,3_0_5_0_1,NA,NA,completion,32183.4,844040.89999998,844035.6,844052.2,876235.6,876241.20000005,2023-12-16T10:10:13Z,876252.3,NULL,Integrität,uadilifu,d,NA,NA,NA,NA,sdf,NA,5,NA,NA,NA,NA,NA,NA,NA,NA,NA,NA,NA,NA,NA,NA,NA,NA,NA,NA,NA
646b3,Deep Question,html.Page,3_0_5_0_2_0_0,NA,NA,form submission,28470.900000048,876241.29999995,876235.6,876252.3,904723.20000005,904723.39999998,2023-12-16T10:10:41Z,904735.4,NULL,Fleisch,mshakiki,d,NA,NA,NA,mshakiki,NA,NA,5,NA,NA,NA,NA,NA,NA,NA,NA,NA,NA,NA,NA,NA,NA,NA,NA,NA,NA,NA
646b3,"""Richtig""-Screen",canvas.Screen,3_0_5_0_2_0_1,NA,NA,timeout,5000.1,904725.10000002,904718.9,904735.4,909718.9,909719.70000005,2023-12-16T10:10:46Z,909735.5,NULL,Fleisch,mshakiki,d,NA,NA,NA,NA,sdf,1,5,NA,NA,NA,NA,NA,NA,NA,NA,NA,NA,NA,NA,NA,NA,NA,NA,NA,NA,NA
646b3,"""Falsch""-Screen",canvas.Screen,3_0_5_0_2_0_2,NA,NA,skipped,NA,909724.10000002,NA,NA,909718.9,909724.39999998,2023-12-16T10:10:46Z,909735.5,NULL,Fleisch,mshakiki,d,NA,NA,NA,NA,sdf,NA,5,NA,NA,NA,NA,NA,NA,NA,NA,NA,NA,NA,NA,NA,NA,NA,NA,NA,NA,NA
646b3,deep,flow.Sequence,3_0_5_0_2_0,NA,NA,completion,33466.6,876241.29999995,876235.6,876252.3,909718.9,909724.60000002,2023-12-16T10:10:46Z,909735.5,NULL,Fleisch,mshakiki,d,NA,NA,NA,NA,sdf,NA,5,NA,NA,NA,NA,NA,NA,NA,NA,NA,NA,NA,NA,NA,NA,NA,NA,NA,NA,NA
646b3,shallow,flow.Sequence,3_0_5_0_2_1,NA,NA,skipped,NA,909724.60000002,NA,NA,909718.9,909724.79999995,2023-12-16T10:10:46Z,909735.5,NULL,Fleisch,mshakiki,d,NA,NA,NA,NA,sdf,NA,5,NA,NA,NA,NA,NA,NA,NA,NA,NA,NA,NA,NA,NA,NA,NA,NA,NA,NA,NA
646b3,task,flow.Sequence,3_0_5_0_2,NA,NA,completion,33466.6,876241.20000005,876235.6,876252.3,909718.9,909724.89999998,2023-12-16T10:10:46Z,909735.5,NULL,Fleisch,mshakiki,d,NA,NA,NA,NA,sdf,NA,5,NA,NA,NA,NA,NA,NA,NA,NA,NA,NA,NA,NA,NA,NA,NA,NA,NA,NA,NA
646b3,Deep Question,html.Page,3_0_5_0_3_0_0,NA,NA,form submission,19467.700000048,909725,909718.9,909735.5,929203.20000005,929203.39999998,2023-12-16T10:11:06Z,929218.7,NULL,Vermutung,udhanifu,d,NA,NA,NA,udhanifu,NA,NA,5,NA,NA,NA,NA,NA,NA,NA,NA,NA,NA,NA,NA,NA,NA,NA,NA,NA,NA,NA
646b3,"""Richtig""-Screen",canvas.Screen,3_0_5_0_3_0_1,NA,NA,timeout,5000.2000000001,929205.10000002,929202.3,929218.7,934202.2,934202.89999998,2023-12-16T10:11:11Z,934218.9,NULL,Vermutung,udhanifu,d,NA,NA,NA,NA,sdf,1,5,NA,NA,NA,NA,NA,NA,NA,NA,NA,NA,NA,NA,NA,NA,NA,NA,NA,NA,NA
646b3,"""Falsch""-Screen",canvas.Screen,3_0_5_0_3_0_2,NA,NA,skipped,NA,934207.20000005,NA,NA,934202.2,934207.39999998,2023-12-16T10:11:11Z,934218.9,NULL,Vermutung,udhanifu,d,NA,NA,NA,NA,sdf,NA,5,NA,NA,NA,NA,NA,NA,NA,NA,NA,NA,NA,NA,NA,NA,NA,NA,NA,NA,NA
646b3,deep,flow.Sequence,3_0_5_0_3_0,NA,NA,completion,24466.7,909725,909718.9,909735.5,934202.2,934207.60000002,2023-12-16T10:11:11Z,934218.9,NULL,Vermutung,udhanifu,d,NA,NA,NA,NA,sdf,NA,5,NA,NA,NA,NA,NA,NA,NA,NA,NA,NA,NA,NA,NA,NA,NA,NA,NA,NA,NA
646b3,shallow,flow.Sequence,3_0_5_0_3_1,NA,NA,skipped,NA,934207.79999995,NA,NA,934202.2,934207.89999998,2023-12-16T10:11:11Z,934218.9,NULL,Vermutung,udhanifu,d,NA,NA,NA,NA,sdf,NA,5,NA,NA,NA,NA,NA,NA,NA,NA,NA,NA,NA,NA,NA,NA,NA,NA,NA,NA,NA
646b3,task,flow.Sequence,3_0_5_0_3,NA,NA,completion,24466.7,909725,909718.9,909735.5,934202.2,934208,2023-12-16T10:11:11Z,934218.9,NULL,Vermutung,udhanifu,d,NA,NA,NA,NA,sdf,NA,5,NA,NA,NA,NA,NA,NA,NA,NA,NA,NA,NA,NA,NA,NA,NA,NA,NA,NA,NA
646b3,Deep Question,html.Page,3_0_5_0_4_0_0,NA,NA,form submission,16880.499999976,934208.10000002,934202.2,934218.9,951099.39999998,951099.60000002,2023-12-16T10:11:28Z,951102.2,NULL,Inhalt,yaliyomo,d,NA,NA,NA,yaliyomo,NA,NA,5,NA,NA,NA,NA,NA,NA,NA,NA,NA,NA,NA,NA,NA,NA,NA,NA,NA,NA,NA
646b3,"""Richtig""-Screen",canvas.Screen,3_0_5_0_4_0_1,NA,NA,timeout,5000.1000000001,951101.5,951102.2,951102.2,956085.6,956086.29999995,2023-12-16T10:11:33Z,956102.3,NULL,Inhalt,yaliyomo,d,NA,NA,NA,NA,sdf,1,5,NA,NA,NA,NA,NA,NA,NA,NA,NA,NA,NA,NA,NA,NA,NA,NA,NA,NA,NA
646b3,"""Falsch""-Screen",canvas.Screen,3_0_5_0_4_0_2,NA,NA,skipped,NA,956104.20000005,NA,NA,956085.6,956104.60000002,2023-12-16T10:11:33Z,956102.3,NULL,Inhalt,yaliyomo,d,NA,NA,NA,NA,sdf,NA,5,NA,NA,NA,NA,NA,NA,NA,NA,NA,NA,NA,NA,NA,NA,NA,NA,NA,NA,NA
646b3,deep,flow.Sequence,3_0_5_0_4_0,NA,NA,completion,21866.7,934208.10000002,934202.2,934218.9,956085.6,956104.89999998,2023-12-16T10:11:33Z,956102.3,NULL,Inhalt,yaliyomo,d,NA,NA,NA,NA,sdf,NA,5,NA,NA,NA,NA,NA,NA,NA,NA,NA,NA,NA,NA,NA,NA,NA,NA,NA,NA,NA
646b3,shallow,flow.Sequence,3_0_5_0_4_1,NA,NA,skipped,NA,956105,NA,NA,956085.6,956105.10000002,2023-12-16T10:11:33Z,956102.3,NULL,Inhalt,yaliyomo,d,NA,NA,NA,NA,sdf,NA,5,NA,NA,NA,NA,NA,NA,NA,NA,NA,NA,NA,NA,NA,NA,NA,NA,NA,NA,NA
646b3,task,flow.Sequence,3_0_5_0_4,NA,NA,completion,21866.7,934208.10000002,934202.2,934218.9,956085.6,956105.20000005,2023-12-16T10:11:33Z,956102.3,NULL,Inhalt,yaliyomo,d,NA,NA,NA,NA,sdf,NA,5,NA,NA,NA,NA,NA,NA,NA,NA,NA,NA,NA,NA,NA,NA,NA,NA,NA,NA,NA
646b3,deep,flow.Sequence,3_0_5_0_5_0,NA,NA,skipped,NA,956105.29999995,NA,NA,956085.6,956105.39999998,2023-12-16T10:11:33Z,956102.3,NULL,Genehmigung,idhini,s,mwanamke,itikadi,fedheha,NA,sdf,NA,5,NA,NA,NA,NA,NA,NA,NA,NA,NA,NA,NA,NA,NA,NA,NA,NA,NA,NA,NA
646b3,Shallow Question,html.Page,3_0_5_0_5_1_0,NA,NA,form submission,12404.800000024,956105.5,956085.6,956102.3,968507.10000002,968507.29999995,2023-12-16T10:11:45Z,968518.8,NULL,Genehmigung,idhini,s,mwanamke,itikadi,fedheha,idhini,NA,NA,5,NA,NA,NA,NA,NA,NA,NA,NA,NA,NA,NA,NA,NA,NA,NA,NA,NA,NA,NA
646b3,"""Richtig""-Screen",canvas.Screen,3_0_5_0_5_1_1,NA,NA,timeout,5000,968509.10000002,968502.3,968518.8,973502.2,973503.10000002,2023-12-16T10:11:50Z,973518.8,NULL,Genehmigung,idhini,s,mwanamke,itikadi,fedheha,NA,sdf,1,5,NA,NA,NA,NA,NA,NA,NA,NA,NA,NA,NA,NA,NA,NA,NA,NA,NA,NA,NA
646b3,"""Falsch""-Screen",canvas.Screen,3_0_5_0_5_1_2,NA,NA,skipped,NA,973507.10000002,NA,NA,973502.2,973507.39999998,2023-12-16T10:11:50Z,973518.8,NULL,Genehmigung,idhini,s,mwanamke,itikadi,fedheha,NA,sdf,NA,5,NA,NA,NA,NA,NA,NA,NA,NA,NA,NA,NA,NA,NA,NA,NA,NA,NA,NA,NA
646b3,shallow,flow.Sequence,3_0_5_0_5_1,NA,NA,completion,17399.9,956105.5,956085.6,956102.3,973502.2,973507.70000005,2023-12-16T10:11:50Z,973518.8,NULL,Genehmigung,idhini,s,mwanamke,itikadi,fedheha,NA,sdf,NA,5,NA,NA,NA,NA,NA,NA,NA,NA,NA,NA,NA,NA,NA,NA,NA,NA,NA,NA,NA
646b3,task,flow.Sequence,3_0_5_0_5,NA,NA,completion,17399.9,956105.29999995,956085.6,956102.3,973502.2,973507.79999995,2023-12-16T10:11:50Z,973518.8,NULL,Genehmigung,idhini,s,mwanamke,itikadi,fedheha,NA,sdf,NA,5,NA,NA,NA,NA,NA,NA,NA,NA,NA,NA,NA,NA,NA,NA,NA,NA,NA,NA,NA
646b3,deep,flow.Sequence,3_0_5_0_6_0,NA,NA,skipped,NA,973508,NA,NA,973502.2,973508.10000002,2023-12-16T10:11:50Z,973518.8,NULL,Toleranz,kuvumiliana,s,maombolezo,ujasusi,mchekeshaji,NA,sdf,NA,5,NA,NA,NA,NA,NA,NA,NA,NA,NA,NA,NA,NA,NA,NA,NA,NA,NA,NA,NA
646b3,Shallow Question,html.Page,3_0_5_0_6_1_0,NA,NA,form submission,18116.400000048,973508.20000005,973502.2,973518.8,991635.20000005,991635.5,2023-12-16T10:12:08Z,991652.5,NULL,Toleranz,kuvumiliana,s,maombolezo,ujasusi,mchekeshaji,kuvumiliana,NA,NA,5,NA,NA,NA,NA,NA,NA,NA,NA,NA,NA,NA,NA,NA,NA,NA,NA,NA,NA,NA
646b3,"""Richtig""-Screen",canvas.Screen,3_0_5_0_6_1_1,NA,NA,timeout,4999.7,991637.20000005,991635.7,991652.5,996635.6,996636.29999995,2023-12-16T10:12:13Z,996652.2,NULL,Toleranz,kuvumiliana,s,maombolezo,ujasusi,mchekeshaji,NA,sdf,1,5,NA,NA,NA,NA,NA,NA,NA,NA,NA,NA,NA,NA,NA,NA,NA,NA,NA,NA,NA
646b3,"""Falsch""-Screen",canvas.Screen,3_0_5_0_6_1_2,NA,NA,skipped,NA,996640.39999998,NA,NA,996635.6,996640.60000002,2023-12-16T10:12:13Z,996652.2,NULL,Toleranz,kuvumiliana,s,maombolezo,ujasusi,mchekeshaji,NA,sdf,NA,5,NA,NA,NA,NA,NA,NA,NA,NA,NA,NA,NA,NA,NA,NA,NA,NA,NA,NA,NA
646b3,shallow,flow.Sequence,3_0_5_0_6_1,NA,NA,completion,23116.8,973508.10000002,973502.2,973518.8,996635.6,996640.79999995,2023-12-16T10:12:13Z,996652.2,NULL,Toleranz,kuvumiliana,s,maombolezo,ujasusi,mchekeshaji,NA,sdf,NA,5,NA,NA,NA,NA,NA,NA,NA,NA,NA,NA,NA,NA,NA,NA,NA,NA,NA,NA,NA
646b3,task,flow.Sequence,3_0_5_0_6,NA,NA,completion,23116.8,973507.89999998,973502.2,973518.8,996635.6,996641,2023-12-16T10:12:13Z,996652.2,NULL,Toleranz,kuvumiliana,s,maombolezo,ujasusi,mchekeshaji,NA,sdf,NA,5,NA,NA,NA,NA,NA,NA,NA,NA,NA,NA,NA,NA,NA,NA,NA,NA,NA,NA,NA
646b3,deep,flow.Sequence,3_0_5_0_7_0,NA,NA,skipped,NA,996641.10000002,NA,NA,996635.6,996641.20000005,2023-12-16T10:12:13Z,996652.2,NULL,Begegnung,kukutana,s,mmasihiya,mpiganaji,husiano,NA,sdf,NA,5,NA,NA,NA,NA,NA,NA,NA,NA,NA,NA,NA,NA,NA,NA,NA,NA,NA,NA,NA
646b3,Shallow Question,html.Page,3_0_5_0_7_1_0,NA,NA,form submission,22423.099999952,996641.29999995,996635.6,996652.2,1019075.3,1019075.5,2023-12-16T10:12:36Z,1019085.4,NULL,Begegnung,kukutana,s,mmasihiya,mpiganaji,husiano,kukutana,NA,NA,5,NA,NA,NA,NA,NA,NA,NA,NA,NA,NA,NA,NA,NA,NA,NA,NA,NA,NA,NA
646b3,"""Richtig""-Screen",canvas.Screen,3_0_5_0_7_1_1,NA,NA,timeout,5000.2,1019077.4,1019068.9,1019085.4,1024068.8,1024069.7,2023-12-16T10:12:41Z,1024085.6,NULL,Begegnung,kukutana,s,mmasihiya,mpiganaji,husiano,NA,sdf,1,5,NA,NA,NA,NA,NA,NA,NA,NA,NA,NA,NA,NA,NA,NA,NA,NA,NA,NA,NA
646b3,"""Falsch""-Screen",canvas.Screen,3_0_5_0_7_1_2,NA,NA,skipped,NA,1024073.9,NA,NA,1024068.8,1024074.1,2023-12-16T10:12:41Z,1024085.6,NULL,Begegnung,kukutana,s,mmasihiya,mpiganaji,husiano,NA,sdf,NA,5,NA,NA,NA,NA,NA,NA,NA,NA,NA,NA,NA,NA,NA,NA,NA,NA,NA,NA,NA
646b3,shallow,flow.Sequence,3_0_5_0_7_1,NA,NA,completion,27416.6,996641.29999995,996635.6,996652.2,1024068.8,1024074.4,2023-12-16T10:12:41Z,1024085.6,NULL,Begegnung,kukutana,s,mmasihiya,mpiganaji,husiano,NA,sdf,NA,5,NA,NA,NA,NA,NA,NA,NA,NA,NA,NA,NA,NA,NA,NA,NA,NA,NA,NA,NA
646b3,task,flow.Sequence,3_0_5_0_7,NA,NA,completion,27416.6,996641.10000002,996635.6,996652.2,1024068.8,1024074.4,2023-12-16T10:12:41Z,1024085.6,NULL,Begegnung,kukutana,s,mmasihiya,mpiganaji,husiano,NA,sdf,NA,5,NA,NA,NA,NA,NA,NA,NA,NA,NA,NA,NA,NA,NA,NA,NA,NA,NA,NA,NA
646b3,block,flow.Loop,3_0_5_0,NA,NA,completion,192866.6,831212.70000005,831202.2,831202.2,1024068.8,1024074.6,2023-12-16T10:12:41Z,1024085.6,NULL,NA,NA,NA,NA,NA,NA,NA,sdf,NA,5,NA,NA,NA,NA,NA,NA,NA,NA,NA,NA,NA,NA,NA,NA,NA,NA,NA,NA,NA
646b3,weiter,canvas.Screen,3_0_5_1,sdf,keypress(Space),response,1852.6000000477,1024074.8,1024068.8,1024085.6,1025938.2,1025939.1,2023-12-16T10:12:43Z,1026335.4,NULL,NA,NA,NA,NA,NA,NA,NA,sdf,NA,5,NA,NA,NA,NA,NA,NA,NA,NA,NA,NA,NA,NA,NA,NA,NA,NA,NA,NA,NA
646b3,check continue,flow.Sequence,3_0_5,NA,NA,completion,194736.00000005,831212.70000005,831202.2,831202.2,1025938.2,1025939.4,2023-12-16T10:12:43Z,1026335.4,NULL,NA,NA,NA,NA,NA,NA,NA,sdf,NA,5,NA,NA,NA,NA,NA,NA,NA,NA,NA,NA,NA,NA,NA,NA,NA,NA,NA,NA,NA
646b3,check continue,flow.Sequence,3_0_6,NA,NA,skipped,NA,1025979.5,NA,NA,1025938.2,1025979.5,2023-12-16T10:12:43Z,1026335.4,NULL,NA,NA,NA,NA,NA,NA,NA,dfs,NA,6,NA,NA,NA,NA,NA,NA,NA,NA,NA,NA,NA,NA,NA,NA,NA,NA,NA,NA,NA
646b3,check continue,flow.Sequence,3_0_7,NA,NA,skipped,NA,1025998.6,NA,NA,1025938.2,1025998.7,2023-12-16T10:12:43Z,1026335.4,NULL,NA,NA,NA,NA,NA,NA,NA,df,NA,7,NA,NA,NA,NA,NA,NA,NA,NA,NA,NA,NA,NA,NA,NA,NA,NA,NA,NA,NA
646b3,check continue,flow.Sequence,3_0_8,NA,NA,skipped,NA,1026015.6,NA,NA,1025938.2,1026015.7,2023-12-16T10:12:43Z,1026335.4,NULL,NA,NA,NA,NA,NA,NA,NA,dfs,NA,8,NA,NA,NA,NA,NA,NA,NA,NA,NA,NA,NA,NA,NA,NA,NA,NA,NA,NA,NA
646b3,check continue,flow.Sequence,3_0_9,NA,NA,skipped,NA,1026052.5,NA,NA,1025938.2,1026052.6,2023-12-16T10:12:43Z,1026335.4,NULL,NA,NA,NA,NA,NA,NA,NA,dsf,NA,9,NA,NA,NA,NA,NA,NA,NA,NA,NA,NA,NA,NA,NA,NA,NA,NA,NA,NA,NA
646b3,check continue,flow.Sequence,3_0_10,NA,NA,skipped,NA,1026067.9,NA,NA,1025938.2,1026068,2023-12-16T10:12:43Z,1026335.4,NULL,NA,NA,NA,NA,NA,NA,NA,df,NA,10,NA,NA,NA,NA,NA,NA,NA,NA,NA,NA,NA,NA,NA,NA,NA,NA,NA,NA,NA
646b3,check continue,flow.Sequence,3_0_11,NA,NA,skipped,NA,1026082.4,NA,NA,1025938.2,1026082.4,2023-12-16T10:12:43Z,1026335.4,NULL,NA,NA,NA,NA,NA,NA,NA,dfs,NA,11,NA,NA,NA,NA,NA,NA,NA,NA,NA,NA,NA,NA,NA,NA,NA,NA,NA,NA,NA
646b3,check continue,flow.Sequence,3_0_12,NA,NA,skipped,NA,1026097.4,NA,NA,1025938.2,1026097.5,2023-12-16T10:12:43Z,1026335.4,NULL,NA,NA,NA,NA,NA,NA,NA,dsf,NA,12,NA,NA,NA,NA,NA,NA,NA,NA,NA,NA,NA,NA,NA,NA,NA,NA,NA,NA,NA
646b3,check continue,flow.Sequence,3_0_13,NA,NA,skipped,NA,1026110.1,NA,NA,1025938.2,1026110.1,2023-12-16T10:12:43Z,1026335.4,NULL,NA,NA,NA,NA,NA,NA,NA,dsf,NA,13,NA,NA,NA,NA,NA,NA,NA,NA,NA,NA,NA,NA,NA,NA,NA,NA,NA,NA,NA
646b3,check continue,flow.Sequence,3_0_14,NA,NA,skipped,NA,1026122.5,NA,NA,1025938.2,1026122.6,2023-12-16T10:12:43Z,1026335.4,NULL,NA,NA,NA,NA,NA,NA,NA,NA,NA,14,NA,NA,NA,NA,NA,NA,NA,NA,NA,NA,NA,NA,NA,NA,NA,NA,NA,NA,NA
646b3,check continue,flow.Sequence,3_0_15,NA,NA,skipped,NA,1026136.2,NA,NA,1025938.2,1026136.2,2023-12-16T10:12:43Z,1026335.4,NULL,NA,NA,NA,NA,NA,NA,NA,NA,NA,15,NA,NA,NA,NA,NA,NA,NA,NA,NA,NA,NA,NA,NA,NA,NA,NA,NA,NA,NA
646b3,check continue,flow.Sequence,3_0_16,NA,NA,skipped,NA,1026149,NA,NA,1025938.2,1026149,2023-12-16T10:12:43Z,1026335.4,NULL,NA,NA,NA,NA,NA,NA,NA,NA,NA,16,NA,NA,NA,NA,NA,NA,NA,NA,NA,NA,NA,NA,NA,NA,NA,NA,NA,NA,NA
646b3,check continue,flow.Sequence,3_0_17,NA,NA,skipped,NA,1026162.1,NA,NA,1025938.2,1026162.2,2023-12-16T10:12:43Z,1026335.4,NULL,NA,NA,NA,NA,NA,NA,NA,NA,NA,17,NA,NA,NA,NA,NA,NA,NA,NA,NA,NA,NA,NA,NA,NA,NA,NA,NA,NA,NA
646b3,check continue,flow.Sequence,3_0_18,NA,NA,skipped,NA,1026174.6,NA,NA,1025938.2,1026174.7,2023-12-16T10:12:43Z,1026335.4,NULL,NA,NA,NA,NA,NA,NA,NA,NA,NA,18,NA,NA,NA,NA,NA,NA,NA,NA,NA,NA,NA,NA,NA,NA,NA,NA,NA,NA,NA
646b3,check continue,flow.Sequence,3_0_19,NA,NA,skipped,NA,1026187.1,NA,NA,1025938.2,1026187.1,2023-12-16T10:12:43Z,1026335.4,NULL,NA,NA,NA,NA,NA,NA,NA,NA,NA,19,NA,NA,NA,NA,NA,NA,NA,NA,NA,NA,NA,NA,NA,NA,NA,NA,NA,NA,NA
646b3,check continue,flow.Sequence,3_0_20,NA,NA,skipped,NA,1026199.1,NA,NA,1025938.2,1026199.2,2023-12-16T10:12:43Z,1026335.4,NULL,NA,NA,NA,NA,NA,NA,NA,NA,NA,20,NA,NA,NA,NA,NA,NA,NA,NA,NA,NA,NA,NA,NA,NA,NA,NA,NA,NA,NA
646b3,check continue,flow.Sequence,3_0_21,NA,NA,skipped,NA,1026211.4,NA,NA,1025938.2,1026211.5,2023-12-16T10:12:43Z,1026335.4,NULL,NA,NA,NA,NA,NA,NA,NA,NA,NA,21,NA,NA,NA,NA,NA,NA,NA,NA,NA,NA,NA,NA,NA,NA,NA,NA,NA,NA,NA
646b3,check continue,flow.Sequence,3_0_22,NA,NA,skipped,NA,1026223.7,NA,NA,1025938.2,1026223.8,2023-12-16T10:12:43Z,1026335.4,NULL,NA,NA,NA,NA,NA,NA,NA,NA,NA,22,NA,NA,NA,NA,NA,NA,NA,NA,NA,NA,NA,NA,NA,NA,NA,NA,NA,NA,NA
646b3,check continue,flow.Sequence,3_0_23,NA,NA,skipped,NA,1026248.7,NA,NA,1025938.2,1026248.8,2023-12-16T10:12:43Z,1026335.4,NULL,NA,NA,NA,NA,NA,NA,NA,NA,NA,23,NA,NA,NA,NA,NA,NA,NA,NA,NA,NA,NA,NA,NA,NA,NA,NA,NA,NA,NA
646b3,check continue,flow.Sequence,3_0_24,NA,NA,skipped,NA,1026269.6,NA,NA,1025938.2,1026269.6,2023-12-16T10:12:43Z,1026335.4,NULL,NA,NA,NA,NA,NA,NA,NA,NA,NA,24,NA,NA,NA,NA,NA,NA,NA,NA,NA,NA,NA,NA,NA,NA,NA,NA,NA,NA,NA
646b3,check continue,flow.Sequence,3_0_25,NA,NA,skipped,NA,1026283.2,NA,NA,1025938.2,1026283.3,2023-12-16T10:12:43Z,1026335.4,NULL,NA,NA,NA,NA,NA,NA,NA,NA,NA,25,NA,NA,NA,NA,NA,NA,NA,NA,NA,NA,NA,NA,NA,NA,NA,NA,NA,NA,NA
646b3,check continue,flow.Sequence,3_0_26,NA,NA,skipped,NA,1026294.4,NA,NA,1025938.2,1026294.4,2023-12-16T10:12:43Z,1026335.4,NULL,NA,NA,NA,NA,NA,NA,NA,NA,NA,26,NA,NA,NA,NA,NA,NA,NA,NA,NA,NA,NA,NA,NA,NA,NA,NA,NA,NA,NA
646b3,check continue,flow.Sequence,3_0_27,NA,NA,skipped,NA,1026315.7,NA,NA,1025938.2,1026315.8,2023-12-16T10:12:43Z,1026335.4,NULL,NA,NA,NA,NA,NA,NA,NA,NA,NA,27,NA,NA,NA,NA,NA,NA,NA,NA,NA,NA,NA,NA,NA,NA,NA,NA,NA,NA,NA
646b3,check continue,flow.Sequence,3_0_28,NA,NA,skipped,NA,1026337.3,NA,NA,1025938.2,1026337.3,2023-12-16T10:12:43Z,1026335.4,NULL,NA,NA,NA,NA,NA,NA,NA,NA,NA,28,NA,NA,NA,NA,NA,NA,NA,NA,NA,NA,NA,NA,NA,NA,NA,NA,NA,NA,NA
646b3,check continue,flow.Sequence,3_0_29,NA,NA,skipped,NA,1026350,NA,NA,1025938.2,1026350.1,2023-12-16T10:12:43Z,1026335.4,NULL,NA,NA,NA,NA,NA,NA,NA,NA,NA,29,NA,NA,NA,NA,NA,NA,NA,NA,NA,NA,NA,NA,NA,NA,NA,NA,NA,NA,NA
646b3,until continue,flow.Loop,3_0,NA,NA,completion,871102.50000005,154807.29999995,154821.8,154835.7,1025938.2,1026350.2,2023-12-16T10:12:43Z,1026335.4,NULL,NA,NA,NA,NA,NA,NA,NA,NA,NA,NA,NA,NA,NA,NA,NA,NA,NA,NA,NA,NA,NA,NA,NA,NA,NA,NA,NA,NA,NA
646b3,block 1,flow.Sequence,3,NA,NA,completion,871102.50000005,154807.29999995,154821.8,154835.7,1025938.2,1026350.2,2023-12-16T10:12:43Z,1026335.4,NULL,NA,NA,NA,NA,NA,NA,NA,NA,NA,NA,NA,NA,NA,NA,NA,NA,NA,NA,NA,NA,NA,NA,NA,NA,NA,NA,NA,NA,NA
646b3,1.Part Over,canvas.Screen,4,NA,keypress(Space),response,10747.399999952,1026350.2,1026335.4,1026335.4,1037082.8,1037083.9,2023-12-16T10:12:54Z,1037168.8,NULL,NA,NA,NA,NA,NA,NA,NA,NA,NA,NA,NA,NA,NA,NA,NA,NA,NA,NA,NA,NA,NA,NA,NA,NA,NA,NA,NA,NA,NA
646b3,deep,flow.Sequence,5_0_0_0_0_0,NA,NA,skipped,NA,1037158.7,NA,NA,1037082.8,1037158.8,2023-12-16T10:12:54Z,1037168.8,NULL,Atmosphäre,angahewa,s,kuteseka,usahihi,kutoamini,NA,sdf,NA,0,NA,NA,NA,NA,NA,NA,NA,NA,NA,NA,NA,NA,NA,NA,NA,NA,NA,NA,NA
646b3,Shallow Question,html.Page,5_0_0_0_0_1_0,NA,NA,form submission,8058.3000000238,1037158.8,1037151.7,1037168.8,1045227.1,1045227.3,2023-12-16T10:13:02Z,1045235.4,NULL,Atmosphäre,angahewa,s,kuteseka,usahihi,kutoamini,usahihi,NA,NA,0,NA,NA,NA,NA,NA,NA,NA,NA,NA,NA,NA,NA,NA,NA,NA,NA,NA,NA,NA
