observation,sender,sender_type,sender_id,response,response_action,ended_on,duration,time_run,time_render,time_show,time_end,time_commit,timestamp,time_switch,distractors,german,swahili,enc,distractor1,distractor2,distractor3,response_2,x,correct,x_2,url_vp,url_sess,meta_labjs_version,meta_location,meta_user_agent,meta_platform,meta_language,meta_locale,meta_time_zone,meta_timezone_offset,meta_screen_width,meta_screen_height,meta_scroll_width,meta_scroll_height,meta_window_inner_width,meta_window_inner_height,meta_device_pixel_ratio,meta_labjs_build_flavor,meta_labjs_build_commit
d7167,Introduction general,canvas.Screen,0,weiter,keypress(q),response,9740.2139998093,2971.5,2960.51,5243.486,14983.699999809,14987.099999905,2023-02-10T19:20:34Z,14992.029,NULL,NA,NA,NA,NA,NA,NA,NA,NA,NA,NA,107,3,20.2.4,https://neurocog.fernuni.ch/studies/vweber/encoding_immediate/index.html?vp=107&sess=3,"Mozilla/5.0 (Windows NT 10.0; Win64; x64) AppleWebKit/537.36 (KHTML, like Gecko) Chrome/109.0.0.0 Safari/537.36",Win32,en-US,en-US,Europe/Berlin,-60,1536,864,1536,674,1536,722,1.25,production,f5b4a49f956347addd546a832a3327688c2c0fef
d7167,Introduction practice,canvas.Screen,1_0,NA,keypress(Space),response,1858.1709998093,14987.699999809,14976.038,14992.029,16850.199999809,16850.800000191,2023-02-10T19:20:36Z,16858.42,NULL,NA,NA,NA,NA,NA,NA,NA,NA,NA,NA,NA,NA,NA,NA,NA,NA,NA,NA,NA,NA,NA,NA,NA,NA,NA,NA,NA,NA,NA
d7167,deep,flow.Sequence,1_1_0_0,NA,NA,skipped,NA,16851,NA,NA,16850.199999809,16851.300000191,2023-02-10T19:20:36Z,16858.42,"c(""distractor1"", ""distractor2"", ""distractor3"")",Gegenwart,hadhara,s,katiba,jokofu,mikopo,NA,NA,NA,NA,NA,NA,NA,NA,NA,NA,NA,NA,NA,NA,NA,NA,NA,NA,NA,NA,NA,NA,NA
d7167,Shallow Question,html.Page,1_1_0_1_0,NA,NA,form submission,13155.380000191,16851.400000095,16841.895,16858.42,30013.800000191,30014.099999905,2023-02-10T19:20:49Z,30023.153,"c(""distractor1"", ""distractor2"", ""distractor3"")",Gegenwart,hadhara,s,katiba,jokofu,mikopo,katiba,NA,NA,NA,NA,NA,NA,NA,NA,NA,NA,NA,NA,NA,NA,NA,NA,NA,NA,NA,NA,NA,NA
d7167,"""Richtig""-Screen",canvas.Screen,1_1_0_1_1,NA,NA,skipped,NA,30015.699999809,NA,NA,30013.800000191,30015.800000191,2023-02-10T19:20:49Z,30023.153,"c(""distractor1"", ""distractor2"", ""distractor3"")",Gegenwart,hadhara,s,katiba,jokofu,mikopo,NA,NA,NA,NA,NA,NA,NA,NA,NA,NA,NA,NA,NA,NA,NA,NA,NA,NA,NA,NA,NA,NA,NA
d7167,"""Falsch""-Screen",canvas.Screen,1_1_0_1_2,NA,NA,timeout,4999.256,30017,29989.954,30023.153,35005.809,35006.699999809,2023-02-10T19:20:54Z,35022.409,"c(""distractor1"", ""distractor2"", ""distractor3"")",Gegenwart,hadhara,s,katiba,jokofu,mikopo,NA,NA,0,NA,NA,NA,NA,NA,NA,NA,NA,NA,NA,NA,NA,NA,NA,NA,NA,NA,NA,NA,NA
d7167,shallow,flow.Sequence,1_1_0_1,NA,NA,completion,18147.389,16851.400000095,16841.895,16858.42,35005.809,35007,2023-02-10T19:20:54Z,35022.409,"c(""distractor1"", ""distractor2"", ""distractor3"")",Gegenwart,hadhara,s,katiba,jokofu,mikopo,NA,NA,NA,NA,NA,NA,NA,NA,NA,NA,NA,NA,NA,NA,NA,NA,NA,NA,NA,NA,NA,NA,NA
d7167,task,flow.Sequence,1_1_0,NA,NA,completion,18147.389,16851,16841.895,16858.42,35005.809,35007.099999904996,2023-02-10T19:20:54Z,35022.409,"c(""distractor1"", ""distractor2"", ""distractor3"")",Gegenwart,hadhara,s,katiba,jokofu,mikopo,NA,NA,NA,NA,NA,NA,NA,NA,NA,NA,NA,NA,NA,NA,NA,NA,NA,NA,NA,NA,NA,NA,NA
d7167,deep,flow.Sequence,1_1_1_0,NA,NA,skipped,NA,35007.400000095004,NA,NA,35005.809,35007.5,2023-02-10T19:20:54Z,35022.409,"c(""distractor1"", ""distractor2"", ""distractor3"")",Rückhalt,msaada,s,muhula,auwali,kiwimbe,NA,NA,NA,NA,NA,NA,NA,NA,NA,NA,NA,NA,NA,NA,NA,NA,NA,NA,NA,NA,NA,NA,NA
d7167,Shallow Question,html.Page,1_1_1_1_0,NA,NA,form submission,12363.790999809,35007.900000095004,35005.809,35022.409,47386.199999809,47386.5,2023-02-10T19:21:07Z,47387.213,"c(""distractor1"", ""distractor2"", ""distractor3"")",Rückhalt,msaada,s,muhula,auwali,kiwimbe,kiwimbe,NA,NA,NA,NA,NA,NA,NA,NA,NA,NA,NA,NA,NA,NA,NA,NA,NA,NA,NA,NA,NA,NA
d7167,"""Richtig""-Screen",canvas.Screen,1_1_1_1_1,NA,NA,skipped,NA,47387.900000095004,NA,NA,47386.199999809,47388.199999809,2023-02-10T19:21:07Z,47387.213,"c(""distractor1"", ""distractor2"", ""distractor3"")",Rückhalt,msaada,s,muhula,auwali,kiwimbe,NA,NA,NA,NA,NA,NA,NA,NA,NA,NA,NA,NA,NA,NA,NA,NA,NA,NA,NA,NA,NA,NA,NA
d7167,"""Falsch""-Screen",canvas.Screen,1_1_1_1_2,NA,NA,timeout,4999.294,47389.699999809,47370.715,47387.213,52369.889,52370.599999904996,2023-02-10T19:21:12Z,52386.507,"c(""distractor1"", ""distractor2"", ""distractor3"")",Rückhalt,msaada,s,muhula,auwali,kiwimbe,NA,NA,0,NA,NA,NA,NA,NA,NA,NA,NA,NA,NA,NA,NA,NA,NA,NA,NA,NA,NA,NA,NA
d7167,shallow,flow.Sequence,1_1_1_1,NA,NA,completion,17347.48,35007.699999809,35005.809,35022.409,52369.889,52370.900000095004,2023-02-10T19:21:12Z,52386.507,"c(""distractor1"", ""distractor2"", ""distractor3"")",Rückhalt,msaada,s,muhula,auwali,kiwimbe,NA,NA,NA,NA,NA,NA,NA,NA,NA,NA,NA,NA,NA,NA,NA,NA,NA,NA,NA,NA,NA,NA,NA
d7167,task,flow.Sequence,1_1_1,NA,NA,completion,17347.48,35007.199999809,35005.809,35022.409,52369.889,52371.099999904996,2023-02-10T19:21:12Z,52386.507,"c(""distractor1"", ""distractor2"", ""distractor3"")",Rückhalt,msaada,s,muhula,auwali,kiwimbe,NA,NA,NA,NA,NA,NA,NA,NA,NA,NA,NA,NA,NA,NA,NA,NA,NA,NA,NA,NA,NA,NA,NA
d7167,deep,flow.Sequence,1_1_2_0,NA,NA,skipped,NA,52371.199999809,NA,NA,52369.889,52371.400000095004,2023-02-10T19:21:12Z,52386.507,"c(""distractor1"", ""distractor2"", ""distractor3"")",Kritik,lawama,s,dereva,nafasi,mawazo,NA,NA,NA,NA,NA,NA,NA,NA,NA,NA,NA,NA,NA,NA,NA,NA,NA,NA,NA,NA,NA,NA,NA
d7167,Shallow Question,html.Page,1_1_2_1_0,NA,NA,form submission,6860.8930000954,52371.400000095004,52369.889,52386.507,59247.400000095004,59247.699999809,2023-02-10T19:21:19Z,59268.767,"c(""distractor1"", ""distractor2"", ""distractor3"")",Kritik,lawama,s,dereva,nafasi,mawazo,dereva,NA,NA,NA,NA,NA,NA,NA,NA,NA,NA,NA,NA,NA,NA,NA,NA,NA,NA,NA,NA,NA,NA
d7167,"""Richtig""-Screen",canvas.Screen,1_1_2_1_1,NA,NA,skipped,NA,59249,NA,NA,59247.400000095004,59249.099999904996,2023-02-10T19:21:19Z,59268.767,"c(""distractor1"", ""distractor2"", ""distractor3"")",Kritik,lawama,s,dereva,nafasi,mawazo,NA,NA,NA,NA,NA,NA,NA,NA,NA,NA,NA,NA,NA,NA,NA,NA,NA,NA,NA,NA,NA,NA,NA
d7167,"""Falsch""-Screen",canvas.Screen,1_1_2_1_2,NA,NA,timeout,4999.284,59250.099999904996,59252.138,59268.767,64251.357,64252.300000191,2023-02-10T19:21:24Z,64268.051,"c(""distractor1"", ""distractor2"", ""distractor3"")",Kritik,lawama,s,dereva,nafasi,mawazo,NA,NA,0,NA,NA,NA,NA,NA,NA,NA,NA,NA,NA,NA,NA,NA,NA,NA,NA,NA,NA,NA,NA
d7167,shallow,flow.Sequence,1_1_2_1,NA,NA,completion,11864.85,52371.400000095004,52369.889,52386.507,64251.357,64252.400000095004,2023-02-10T19:21:24Z,64268.051,"c(""distractor1"", ""distractor2"", ""distractor3"")",Kritik,lawama,s,dereva,nafasi,mawazo,NA,NA,NA,NA,NA,NA,NA,NA,NA,NA,NA,NA,NA,NA,NA,NA,NA,NA,NA,NA,NA,NA,NA
d7167,task,flow.Sequence,1_1_2,NA,NA,completion,11864.85,52371.199999809,52369.889,52386.507,64251.357,64252.699999809,2023-02-10T19:21:24Z,64268.051,"c(""distractor1"", ""distractor2"", ""distractor3"")",Kritik,lawama,s,dereva,nafasi,mawazo,NA,NA,NA,NA,NA,NA,NA,NA,NA,NA,NA,NA,NA,NA,NA,NA,NA,NA,NA,NA,NA,NA,NA
d7167,Deep Question,html.Page,1_1_3_0_0,NA,NA,form submission,9006.449,64252.800000191,64251.357,64268.051,73274.5,73274.800000191,2023-02-10T19:21:33Z,73283.357,"c(""distractor1"", ""distractor2"", ""distractor3"")",Schatten,kivuli,d,NA,NA,NA,shahali,NA,NA,NA,NA,NA,NA,NA,NA,NA,NA,NA,NA,NA,NA,NA,NA,NA,NA,NA,NA,NA,NA
d7167,"""Richtig""-Screen",canvas.Screen,1_1_3_0_1,NA,NA,skipped,NA,73277.199999809,NA,NA,73274.5,73277.5,2023-02-10T19:21:33Z,73283.357,"c(""distractor1"", ""distractor2"", ""distractor3"")",Schatten,kivuli,d,NA,NA,NA,NA,NA,NA,NA,NA,NA,NA,NA,NA,NA,NA,NA,NA,NA,NA,NA,NA,NA,NA,NA,NA,NA,NA
d7167,"""Falsch""-Screen",canvas.Screen,1_1_3_0_2,NA,NA,timeout,4999.262,73278.300000191,73266.819,73283.357,78266.031,78266.699999809,2023-02-10T19:21:38Z,78282.619,"c(""distractor1"", ""distractor2"", ""distractor3"")",Schatten,kivuli,d,NA,NA,NA,NA,NA,0,NA,NA,NA,NA,NA,NA,NA,NA,NA,NA,NA,NA,NA,NA,NA,NA,NA,NA,NA,NA
d7167,deep,flow.Sequence,1_1_3_0,NA,NA,completion,13997.98,64252.800000191,64251.357,64268.051,78266.031,78267,2023-02-10T19:21:38Z,78282.619,"c(""distractor1"", ""distractor2"", ""distractor3"")",Schatten,kivuli,d,NA,NA,NA,NA,NA,NA,NA,NA,NA,NA,NA,NA,NA,NA,NA,NA,NA,NA,NA,NA,NA,NA,NA,NA,NA,NA
d7167,shallow,flow.Sequence,1_1_3_1,NA,NA,skipped,NA,78267.099999905,NA,NA,78266.031,78267.199999809,2023-02-10T19:21:38Z,78282.619,"c(""distractor1"", ""distractor2"", ""distractor3"")",Schatten,kivuli,d,NA,NA,NA,NA,NA,NA,NA,NA,NA,NA,NA,NA,NA,NA,NA,NA,NA,NA,NA,NA,NA,NA,NA,NA,NA,NA
d7167,task,flow.Sequence,1_1_3,NA,NA,completion,13997.98,64252.699999809,64251.357,64268.051,78266.031,78267.400000095,2023-02-10T19:21:38Z,78282.619,"c(""distractor1"", ""distractor2"", ""distractor3"")",Schatten,kivuli,d,NA,NA,NA,NA,NA,NA,NA,NA,NA,NA,NA,NA,NA,NA,NA,NA,NA,NA,NA,NA,NA,NA,NA,NA,NA,NA
d7167,Deep Question,html.Page,1_1_4_0_0,NA,NA,form submission,7221.1810001907,78267.599999905,78266.031,78282.619,85503.800000191,85504.199999809,2023-02-10T19:21:45Z,85514.887,"c(""distractor1"", ""distractor2"", ""distractor3"")",Gesundheit,salama,d,NA,NA,NA,tahani,NA,NA,NA,NA,NA,NA,NA,NA,NA,NA,NA,NA,NA,NA,NA,NA,NA,NA,NA,NA,NA,NA
d7167,"""Richtig""-Screen",canvas.Screen,1_1_4_0_1,NA,NA,skipped,NA,85506.699999809,NA,NA,85503.800000191,85506.800000191,2023-02-10T19:21:45Z,85514.887,"c(""distractor1"", ""distractor2"", ""distractor3"")",Gesundheit,salama,d,NA,NA,NA,NA,NA,NA,NA,NA,NA,NA,NA,NA,NA,NA,NA,NA,NA,NA,NA,NA,NA,NA,NA,NA,NA,NA
d7167,"""Falsch""-Screen",canvas.Screen,1_1_4_0_2,NA,NA,timeout,4999.392,85507.699999809,85498.371,85514.887,90497.504,90498.199999809,2023-02-10T19:21:50Z,90514.279,"c(""distractor1"", ""distractor2"", ""distractor3"")",Gesundheit,salama,d,NA,NA,NA,NA,NA,0,NA,NA,NA,NA,NA,NA,NA,NA,NA,NA,NA,NA,NA,NA,NA,NA,NA,NA,NA,NA
d7167,deep,flow.Sequence,1_1_4_0,NA,NA,completion,12214.885,78267.599999905,78266.031,78282.619,90497.504,90498.599999905,2023-02-10T19:21:50Z,90514.279,"c(""distractor1"", ""distractor2"", ""distractor3"")",Gesundheit,salama,d,NA,NA,NA,NA,NA,NA,NA,NA,NA,NA,NA,NA,NA,NA,NA,NA,NA,NA,NA,NA,NA,NA,NA,NA,NA,NA
d7167,shallow,flow.Sequence,1_1_4_1,NA,NA,skipped,NA,90498.699999809,NA,NA,90497.504,90498.800000191,2023-02-10T19:21:50Z,90514.279,"c(""distractor1"", ""distractor2"", ""distractor3"")",Gesundheit,salama,d,NA,NA,NA,NA,NA,NA,NA,NA,NA,NA,NA,NA,NA,NA,NA,NA,NA,NA,NA,NA,NA,NA,NA,NA,NA,NA
d7167,task,flow.Sequence,1_1_4,NA,NA,completion,12214.885,78267.599999905,78266.031,78282.619,90497.504,90499,2023-02-10T19:21:50Z,90514.279,"c(""distractor1"", ""distractor2"", ""distractor3"")",Gesundheit,salama,d,NA,NA,NA,NA,NA,NA,NA,NA,NA,NA,NA,NA,NA,NA,NA,NA,NA,NA,NA,NA,NA,NA,NA,NA,NA,NA
d7167,Deep Question,html.Page,1_1_5_0_0,NA,NA,form submission,7993.3209999046,90499.199999809,90497.504,90514.279,98507.599999905,98507.800000191,2023-02-10T19:21:58Z,98512.983,"c(""distractor1"", ""distractor2"", ""distractor3"")",Qualität,mtindo,d,NA,NA,NA,quahali,NA,NA,NA,NA,NA,NA,NA,NA,NA,NA,NA,NA,NA,NA,NA,NA,NA,NA,NA,NA,NA,NA
d7167,"""Richtig""-Screen",canvas.Screen,1_1_5_0_1,NA,NA,skipped,NA,98510.199999809,NA,NA,98507.599999905,98510.400000095,2023-02-10T19:21:58Z,98512.983,"c(""distractor1"", ""distractor2"", ""distractor3"")",Qualität,mtindo,d,NA,NA,NA,NA,NA,NA,NA,NA,NA,NA,NA,NA,NA,NA,NA,NA,NA,NA,NA,NA,NA,NA,NA,NA,NA,NA
d7167,"""Falsch""-Screen",canvas.Screen,1_1_5_0_2,NA,NA,timeout,4999.252,98511.099999905,98496.447,98512.983,103495.609,103496.19999980999,2023-02-10T19:22:03Z,103512.235,"c(""distractor1"", ""distractor2"", ""distractor3"")",Qualität,mtindo,d,NA,NA,NA,NA,NA,0,NA,NA,NA,NA,NA,NA,NA,NA,NA,NA,NA,NA,NA,NA,NA,NA,NA,NA,NA,NA
d7167,deep,flow.Sequence,1_1_5_0,NA,NA,completion,12981.33,90499.199999809,90497.504,90514.279,103495.609,103496.5,2023-02-10T19:22:03Z,103512.235,"c(""distractor1"", ""distractor2"", ""distractor3"")",Qualität,mtindo,d,NA,NA,NA,NA,NA,NA,NA,NA,NA,NA,NA,NA,NA,NA,NA,NA,NA,NA,NA,NA,NA,NA,NA,NA,NA,NA
d7167,shallow,flow.Sequence,1_1_5_1,NA,NA,skipped,NA,103496.5999999,NA,NA,103495.609,103496.69999981,2023-02-10T19:22:03Z,103512.235,"c(""distractor1"", ""distractor2"", ""distractor3"")",Qualität,mtindo,d,NA,NA,NA,NA,NA,NA,NA,NA,NA,NA,NA,NA,NA,NA,NA,NA,NA,NA,NA,NA,NA,NA,NA,NA,NA,NA
d7167,task,flow.Sequence,1_1_5,NA,NA,completion,12981.33,90499.099999905,90497.504,90514.279,103495.609,103496.9000001,2023-02-10T19:22:03Z,103512.235,"c(""distractor1"", ""distractor2"", ""distractor3"")",Qualität,mtindo,d,NA,NA,NA,NA,NA,NA,NA,NA,NA,NA,NA,NA,NA,NA,NA,NA,NA,NA,NA,NA,NA,NA,NA,NA,NA,NA
d7167,block,flow.Loop,1_1,NA,NA,completion,86637.189,16851,16841.895,16858.42,103495.609,103497.19999981,2023-02-10T19:22:03Z,103512.235,"c(""distractor1"", ""distractor2"", ""distractor3"")",NA,NA,NA,NA,NA,NA,NA,NA,NA,NA,NA,NA,NA,NA,NA,NA,NA,NA,NA,NA,NA,NA,NA,NA,NA,NA,NA,NA,NA
d7167,Practice,flow.Sequence,1,NA,NA,completion,88503.58,14987.599999905,14976.038,14992.029,103495.609,103497.30000019001,2023-02-10T19:22:03Z,103512.235,NULL,NA,NA,NA,NA,NA,NA,NA,NA,NA,NA,NA,NA,NA,NA,NA,NA,NA,NA,NA,NA,NA,NA,NA,NA,NA,NA,NA,NA,NA
d7167,Experiment start,canvas.Screen,2,weiter,keypress(q),response,4313.265,103497.4000001,103495.609,103512.235,107825.5,107827.9000001,2023-02-10T19:22:07Z,107944.926,NULL,NA,NA,NA,NA,NA,NA,NA,NA,NA,NA,NA,NA,NA,NA,NA,NA,NA,NA,NA,NA,NA,NA,NA,NA,NA,NA,NA,NA,NA
d7167,Deep Question,html.Page,3_0_0_0_0_0_0,NA,NA,form submission,4252.3740001907,107939.5,107928.722,107944.926,112197.30000019001,112197.5999999,2023-02-10T19:22:12Z,112211.134,NULL,Schüler,mwanafunzi,d,NA,NA,NA,a,NA,NA,0,NA,NA,NA,NA,NA,NA,NA,NA,NA,NA,NA,NA,NA,NA,NA,NA,NA,NA,NA
d7167,"""Richtig""-Screen",canvas.Screen,3_0_0_0_0_0_1,NA,NA,skipped,NA,112199.5999999,NA,NA,112197.30000019001,112199.69999981,2023-02-10T19:22:12Z,112211.134,NULL,Schüler,mwanafunzi,d,NA,NA,NA,NA,sdf,NA,0,NA,NA,NA,NA,NA,NA,NA,NA,NA,NA,NA,NA,NA,NA,NA,NA,NA,NA,NA
d7167,"""Falsch""-Screen",canvas.Screen,3_0_0_0_0_0_2,NA,NA,timeout,4999.115,112200.5999999,112194.429,112211.134,117193.61,117194.19999981,2023-02-10T19:22:17Z,117210.249,NULL,Schüler,mwanafunzi,d,NA,NA,NA,NA,sdf,0,0,NA,NA,NA,NA,NA,NA,NA,NA,NA,NA,NA,NA,NA,NA,NA,NA,NA,NA,NA
d7167,deep,flow.Sequence,3_0_0_0_0_0,NA,NA,completion,9248.684,107939.5,107928.722,107944.926,117193.61,117194.5999999,2023-02-10T19:22:17Z,117210.249,NULL,Schüler,mwanafunzi,d,NA,NA,NA,NA,sdf,NA,0,NA,NA,NA,NA,NA,NA,NA,NA,NA,NA,NA,NA,NA,NA,NA,NA,NA,NA,NA
d7167,shallow,flow.Sequence,3_0_0_0_0_1,NA,NA,skipped,NA,117194.5999999,NA,NA,117193.61,117194.69999980999,2023-02-10T19:22:17Z,117210.249,NULL,Schüler,mwanafunzi,d,NA,NA,NA,NA,sdf,NA,0,NA,NA,NA,NA,NA,NA,NA,NA,NA,NA,NA,NA,NA,NA,NA,NA,NA,NA,NA
d7167,task,flow.Sequence,3_0_0_0_0,NA,NA,completion,9248.684,107939.4000001,107928.722,107944.926,117193.61,117194.80000019001,2023-02-10T19:22:17Z,117210.249,NULL,Schüler,mwanafunzi,d,NA,NA,NA,NA,sdf,NA,0,NA,NA,NA,NA,NA,NA,NA,NA,NA,NA,NA,NA,NA,NA,NA,NA,NA,NA,NA
d7167,deep,flow.Sequence,3_0_0_0_1_0,NA,NA,skipped,NA,117195,NA,NA,117193.61,117195,2023-02-10T19:22:17Z,117210.249,NULL,Zuwachs,nyongeza,s,matilaba,udhibiti,hudhurio,NA,sdf,NA,0,NA,NA,NA,NA,NA,NA,NA,NA,NA,NA,NA,NA,NA,NA,NA,NA,NA,NA,NA
d7167,Shallow Question,html.Page,3_0_0_0_1_1_0,NA,NA,form submission,6643.3509999046,117195.0999999,117193.61,117210.249,123853.5999999,123853.9000001,2023-02-10T19:22:23Z,123859.228,NULL,Zuwachs,nyongeza,s,matilaba,udhibiti,hudhurio,udhibiti,NA,NA,0,NA,NA,NA,NA,NA,NA,NA,NA,NA,NA,NA,NA,NA,NA,NA,NA,NA,NA,NA
d7167,"""Richtig""-Screen",canvas.Screen,3_0_0_0_1_1_1,NA,NA,skipped,NA,123856,NA,NA,123853.5999999,123856.19999980999,2023-02-10T19:22:23Z,123859.228,NULL,Zuwachs,nyongeza,s,matilaba,udhibiti,hudhurio,NA,sdf,NA,0,NA,NA,NA,NA,NA,NA,NA,NA,NA,NA,NA,NA,NA,NA,NA,NA,NA,NA,NA
d7167,"""Falsch""-Screen",canvas.Screen,3_0_0_0_1_1_2,NA,NA,timeout,4999.306,123857,123842.636,123859.228,128841.876,128842.5,2023-02-10T19:22:28Z,128858.534,NULL,Zuwachs,nyongeza,s,matilaba,udhibiti,hudhurio,NA,sdf,0,0,NA,NA,NA,NA,NA,NA,NA,NA,NA,NA,NA,NA,NA,NA,NA,NA,NA,NA,NA
d7167,shallow,flow.Sequence,3_0_0_0_1_1,NA,NA,completion,11631.627,117195,117193.61,117210.249,128841.876,128842.80000019001,2023-02-10T19:22:28Z,128858.534,NULL,Zuwachs,nyongeza,s,matilaba,udhibiti,hudhurio,NA,sdf,NA,0,NA,NA,NA,NA,NA,NA,NA,NA,NA,NA,NA,NA,NA,NA,NA,NA,NA,NA,NA
d7167,task,flow.Sequence,3_0_0_0_1,NA,NA,completion,11631.627,117194.9000001,117193.61,117210.249,128841.876,128843,2023-02-10T19:22:28Z,128858.534,NULL,Zuwachs,nyongeza,s,matilaba,udhibiti,hudhurio,NA,sdf,NA,0,NA,NA,NA,NA,NA,NA,NA,NA,NA,NA,NA,NA,NA,NA,NA,NA,NA,NA,NA
d7167,Deep Question,html.Page,3_0_0_0_2_0_0,NA,NA,form submission,3557.5659999046,128843.0999999,128841.876,128858.534,132416.0999999,132416.5,2023-02-10T19:22:32Z,132424.611,NULL,Tester,wanaojaribu,d,NA,NA,NA,a,NA,NA,0,NA,NA,NA,NA,NA,NA,NA,NA,NA,NA,NA,NA,NA,NA,NA,NA,NA,NA,NA
d7167,"""Richtig""-Screen",canvas.Screen,3_0_0_0_2_0_1,NA,NA,skipped,NA,132418.9000001,NA,NA,132416.0999999,132419.0999999,2023-02-10T19:22:32Z,132424.611,NULL,Tester,wanaojaribu,d,NA,NA,NA,NA,sdf,NA,0,NA,NA,NA,NA,NA,NA,NA,NA,NA,NA,NA,NA,NA,NA,NA,NA,NA,NA,NA
d7167,"""Falsch""-Screen",canvas.Screen,3_0_0_0_2_0_2,NA,NA,timeout,4999.449,132419.80000019,132408.089,132424.611,137407.179,137407.80000019,2023-02-10T19:22:37Z,137424.06,NULL,Tester,wanaojaribu,d,NA,NA,NA,NA,sdf,0,0,NA,NA,NA,NA,NA,NA,NA,NA,NA,NA,NA,NA,NA,NA,NA,NA,NA,NA,NA
d7167,deep,flow.Sequence,3_0_0_0_2_0,NA,NA,completion,8548.645,128843.0999999,128841.876,128858.534,137407.179,137408.19999981,2023-02-10T19:22:37Z,137424.06,NULL,Tester,wanaojaribu,d,NA,NA,NA,NA,sdf,NA,0,NA,NA,NA,NA,NA,NA,NA,NA,NA,NA,NA,NA,NA,NA,NA,NA,NA,NA,NA
d7167,shallow,flow.Sequence,3_0_0_0_2_1,NA,NA,skipped,NA,137408.30000019,NA,NA,137407.179,137408.5,2023-02-10T19:22:37Z,137424.06,NULL,Tester,wanaojaribu,d,NA,NA,NA,NA,sdf,NA,0,NA,NA,NA,NA,NA,NA,NA,NA,NA,NA,NA,NA,NA,NA,NA,NA,NA,NA,NA
d7167,task,flow.Sequence,3_0_0_0_2,NA,NA,completion,8548.645,128843.0999999,128841.876,128858.534,137407.179,137408.80000019,2023-02-10T19:22:37Z,137424.06,NULL,Tester,wanaojaribu,d,NA,NA,NA,NA,sdf,NA,0,NA,NA,NA,NA,NA,NA,NA,NA,NA,NA,NA,NA,NA,NA,NA,NA,NA,NA,NA
d7167,Deep Question,html.Page,3_0_0_0_3_0_0,NA,NA,form submission,9788.2400001907,137408.9000001,137407.179,137424.06,147212.30000019,147212.80000019,2023-02-10T19:22:47Z,147222.407,NULL,Konkurrent,mshindani,d,NA,NA,NA,a,NA,NA,0,NA,NA,NA,NA,NA,NA,NA,NA,NA,NA,NA,NA,NA,NA,NA,NA,NA,NA,NA
d7167,"""Richtig""-Screen",canvas.Screen,3_0_0_0_3_0_1,NA,NA,skipped,NA,147216.5,NA,NA,147212.30000019,147216.9000001,2023-02-10T19:22:47Z,147222.407,NULL,Konkurrent,mshindani,d,NA,NA,NA,NA,sdf,NA,0,NA,NA,NA,NA,NA,NA,NA,NA,NA,NA,NA,NA,NA,NA,NA,NA,NA,NA,NA
d7167,"""Falsch""-Screen",canvas.Screen,3_0_0_0_3_0_2,NA,NA,timeout,4999.266,147217.9000001,147205.744,147222.407,152205.06,152205.69999981,2023-02-10T19:22:52Z,152221.673,NULL,Konkurrent,mshindani,d,NA,NA,NA,NA,sdf,0,0,NA,NA,NA,NA,NA,NA,NA,NA,NA,NA,NA,NA,NA,NA,NA,NA,NA,NA,NA
d7167,deep,flow.Sequence,3_0_0_0_3_0,NA,NA,completion,14781,137408.9000001,137407.179,137424.06,152205.06,152206,2023-02-10T19:22:52Z,152221.673,NULL,Konkurrent,mshindani,d,NA,NA,NA,NA,sdf,NA,0,NA,NA,NA,NA,NA,NA,NA,NA,NA,NA,NA,NA,NA,NA,NA,NA,NA,NA,NA
d7167,shallow,flow.Sequence,3_0_0_0_3_1,NA,NA,skipped,NA,152206.0999999,NA,NA,152205.06,152206.19999981,2023-02-10T19:22:52Z,152221.673,NULL,Konkurrent,mshindani,d,NA,NA,NA,NA,sdf,NA,0,NA,NA,NA,NA,NA,NA,NA,NA,NA,NA,NA,NA,NA,NA,NA,NA,NA,NA,NA
d7167,task,flow.Sequence,3_0_0_0_3,NA,NA,completion,14781,137408.9000001,137407.179,137424.06,152205.06,152206.4000001,2023-02-10T19:22:52Z,152221.673,NULL,Konkurrent,mshindani,d,NA,NA,NA,NA,sdf,NA,0,NA,NA,NA,NA,NA,NA,NA,NA,NA,NA,NA,NA,NA,NA,NA,NA,NA,NA,NA
d7167,deep,flow.Sequence,3_0_0_0_4_0,NA,NA,skipped,NA,152206.5,NA,NA,152205.06,152206.5999999,2023-02-10T19:22:52Z,152221.673,NULL,Spionage,upelelezi,s,maslahi,utokazo,magangao,NA,sdf,NA,0,NA,NA,NA,NA,NA,NA,NA,NA,NA,NA,NA,NA,NA,NA,NA,NA,NA,NA,NA
d7167,Shallow Question,html.Page,3_0_0_0_4_1_0,NA,NA,form submission,6703.327,152206.5999999,152205.06,152221.673,158925,158925.19999981,2023-02-10T19:22:58Z,158937.388,NULL,Spionage,upelelezi,s,maslahi,utokazo,magangao,magangao,NA,NA,0,NA,NA,NA,NA,NA,NA,NA,NA,NA,NA,NA,NA,NA,NA,NA,NA,NA,NA,NA
d7167,"""Richtig""-Screen",canvas.Screen,3_0_0_0_4_1_1,NA,NA,skipped,NA,158927.5,NA,NA,158925,158927.5999999,2023-02-10T19:22:58Z,158937.388,NULL,Spionage,upelelezi,s,maslahi,utokazo,magangao,NA,sdf,NA,0,NA,NA,NA,NA,NA,NA,NA,NA,NA,NA,NA,NA,NA,NA,NA,NA,NA,NA,NA
d7167,"""Falsch""-Screen",canvas.Screen,3_0_0_0_4_1_2,NA,NA,timeout,4999.251,158928.5999999,158920.882,158937.388,163919.994,163920.5999999,2023-02-10T19:23:03Z,163936.639,NULL,Spionage,upelelezi,s,maslahi,utokazo,magangao,NA,sdf,0,0,NA,NA,NA,NA,NA,NA,NA,NA,NA,NA,NA,NA,NA,NA,NA,NA,NA,NA,NA
d7167,shallow,flow.Sequence,3_0_0_0_4_1,NA,NA,completion,11698.321,152206.5999999,152205.06,152221.673,163919.994,163920.9000001,2023-02-10T19:23:03Z,163936.639,NULL,Spionage,upelelezi,s,maslahi,utokazo,magangao,NA,sdf,NA,0,NA,NA,NA,NA,NA,NA,NA,NA,NA,NA,NA,NA,NA,NA,NA,NA,NA,NA,NA
d7167,task,flow.Sequence,3_0_0_0_4,NA,NA,completion,11698.321,152206.4000001,152205.06,152221.673,163919.994,163921.0999999,2023-02-10T19:23:03Z,163936.639,NULL,Spionage,upelelezi,s,maslahi,utokazo,magangao,NA,sdf,NA,0,NA,NA,NA,NA,NA,NA,NA,NA,NA,NA,NA,NA,NA,NA,NA,NA,NA,NA,NA
d7167,deep,flow.Sequence,3_0_0_0_5_0,NA,NA,skipped,NA,163921.19999981,NA,NA,163919.994,163921.30000019,2023-02-10T19:23:03Z,163936.639,NULL,Symbol,kielezo,s,kinyume,nderemo,utayari,NA,sdf,NA,0,NA,NA,NA,NA,NA,NA,NA,NA,NA,NA,NA,NA,NA,NA,NA,NA,NA,NA,NA
d7167,Shallow Question,html.Page,3_0_0_0_5_1_0,NA,NA,form submission,5199.361,163921.30000019,163919.994,163936.639,169136,169136.19999981,2023-02-10T19:23:09Z,169161.116,NULL,Symbol,kielezo,s,kinyume,nderemo,utayari,kinyume,NA,NA,0,NA,NA,NA,NA,NA,NA,NA,NA,NA,NA,NA,NA,NA,NA,NA,NA,NA,NA,NA
d7167,"""Richtig""-Screen",canvas.Screen,3_0_0_0_5_1_1,NA,NA,skipped,NA,169138.5,NA,NA,169136,169138.5999999,2023-02-10T19:23:09Z,169161.116,NULL,Symbol,kielezo,s,kinyume,nderemo,utayari,NA,sdf,NA,0,NA,NA,NA,NA,NA,NA,NA,NA,NA,NA,NA,NA,NA,NA,NA,NA,NA,NA,NA
d7167,"""Falsch""-Screen",canvas.Screen,3_0_0_0_5_1_2,NA,NA,timeout,5007.373,169139.4000001,169119.36,169161.116,174151.842,174152.4000001,2023-02-10T19:23:14Z,174168.489,NULL,Symbol,kielezo,s,kinyume,nderemo,utayari,NA,sdf,0,0,NA,NA,NA,NA,NA,NA,NA,NA,NA,NA,NA,NA,NA,NA,NA,NA,NA,NA,NA
d7167,shallow,flow.Sequence,3_0_0_0_5_1,NA,NA,completion,10215.203,163921.30000019,163919.994,163936.639,174151.842,174152.69999981,2023-02-10T19:23:14Z,174168.489,NULL,Symbol,kielezo,s,kinyume,nderemo,utayari,NA,sdf,NA,0,NA,NA,NA,NA,NA,NA,NA,NA,NA,NA,NA,NA,NA,NA,NA,NA,NA,NA,NA
d7167,task,flow.Sequence,3_0_0_0_5,NA,NA,completion,10215.203,163921.0999999,163919.994,163936.639,174151.842,174152.9000001,2023-02-10T19:23:14Z,174168.489,NULL,Symbol,kielezo,s,kinyume,nderemo,utayari,NA,sdf,NA,0,NA,NA,NA,NA,NA,NA,NA,NA,NA,NA,NA,NA,NA,NA,NA,NA,NA,NA,NA
d7167,deep,flow.Sequence,3_0_0_0_6_0,NA,NA,skipped,NA,174153,NA,NA,174151.842,174153.0999999,2023-02-10T19:23:14Z,174168.489,NULL,Fenster,dirisha,s,walakini,tasawari,maarifa,NA,sdf,NA,0,NA,NA,NA,NA,NA,NA,NA,NA,NA,NA,NA,NA,NA,NA,NA,NA,NA,NA,NA
d7167,Shallow Question,html.Page,3_0_0_0_6_1_0,NA,NA,form submission,5445.3110001907,174153.19999981,174151.842,174168.489,179613.80000019,179614.0999999,2023-02-10T19:23:19Z,179617.635,NULL,Fenster,dirisha,s,walakini,tasawari,maarifa,tasawari,NA,NA,0,NA,NA,NA,NA,NA,NA,NA,NA,NA,NA,NA,NA,NA,NA,NA,NA,NA,NA,NA
d7167,"""Richtig""-Screen",canvas.Screen,3_0_0_0_6_1_1,NA,NA,skipped,NA,179616.30000019,NA,NA,179613.80000019,179616.5,2023-02-10T19:23:19Z,179617.635,NULL,Fenster,dirisha,s,walakini,tasawari,maarifa,NA,sdf,NA,0,NA,NA,NA,NA,NA,NA,NA,NA,NA,NA,NA,NA,NA,NA,NA,NA,NA,NA,NA
d7167,"""Falsch""-Screen",canvas.Screen,3_0_0_0_6_1_2,NA,NA,timeout,4999.332,179617.19999981,179601.092,179617.635,184600.269,184600.9000001,2023-02-10T19:23:24Z,184616.967,NULL,Fenster,dirisha,s,walakini,tasawari,maarifa,NA,sdf,0,0,NA,NA,NA,NA,NA,NA,NA,NA,NA,NA,NA,NA,NA,NA,NA,NA,NA,NA,NA
d7167,shallow,flow.Sequence,3_0_0_0_6_1,NA,NA,completion,10431.78,174153.0999999,174151.842,174168.489,184600.269,184601.19999981,2023-02-10T19:23:24Z,184616.967,NULL,Fenster,dirisha,s,walakini,tasawari,maarifa,NA,sdf,NA,0,NA,NA,NA,NA,NA,NA,NA,NA,NA,NA,NA,NA,NA,NA,NA,NA,NA,NA,NA
d7167,task,flow.Sequence,3_0_0_0_6,NA,NA,completion,10431.78,174152.9000001,174151.842,174168.489,184600.269,184601.4000001,2023-02-10T19:23:24Z,184616.967,NULL,Fenster,dirisha,s,walakini,tasawari,maarifa,NA,sdf,NA,0,NA,NA,NA,NA,NA,NA,NA,NA,NA,NA,NA,NA,NA,NA,NA,NA,NA,NA,NA
d7167,Deep Question,html.Page,3_0_0_0_7_0_0,NA,NA,form submission,6320.033,184601.5,184600.269,184616.967,190937,190937.19999981,2023-02-10T19:23:30Z,190949.395,NULL,Vorsorge,tahadhari,d,NA,NA,NA,a,NA,NA,0,NA,NA,NA,NA,NA,NA,NA,NA,NA,NA,NA,NA,NA,NA,NA,NA,NA,NA,NA
d7167,"""Richtig""-Screen",canvas.Screen,3_0_0_0_7_0_1,NA,NA,skipped,NA,190939.69999981,NA,NA,190937,190939.9000001,2023-02-10T19:23:30Z,190949.395,NULL,Vorsorge,tahadhari,d,NA,NA,NA,NA,sdf,NA,0,NA,NA,NA,NA,NA,NA,NA,NA,NA,NA,NA,NA,NA,NA,NA,NA,NA,NA,NA
d7167,"""Falsch""-Screen",canvas.Screen,3_0_0_0_7_0_2,NA,NA,timeout,4999.138,190940.69999981,190932.748,190949.395,195931.946,195932.5999999,2023-02-10T19:23:35Z,195948.533,NULL,Vorsorge,tahadhari,d,NA,NA,NA,NA,sdf,0,0,NA,NA,NA,NA,NA,NA,NA,NA,NA,NA,NA,NA,NA,NA,NA,NA,NA,NA,NA
d7167,deep,flow.Sequence,3_0_0_0_7_0,NA,NA,completion,11314.979,184601.5,184600.269,184616.967,195931.946,195932.80000019,2023-02-10T19:23:35Z,195948.533,NULL,Vorsorge,tahadhari,d,NA,NA,NA,NA,sdf,NA,0,NA,NA,NA,NA,NA,NA,NA,NA,NA,NA,NA,NA,NA,NA,NA,NA,NA,NA,NA
d7167,shallow,flow.Sequence,3_0_0_0_7_1,NA,NA,skipped,NA,195933,NA,NA,195931.946,195933.0999999,2023-02-10T19:23:35Z,195948.533,NULL,Vorsorge,tahadhari,d,NA,NA,NA,NA,sdf,NA,0,NA,NA,NA,NA,NA,NA,NA,NA,NA,NA,NA,NA,NA,NA,NA,NA,NA,NA,NA
d7167,task,flow.Sequence,3_0_0_0_7,NA,NA,completion,11314.979,184601.5,184600.269,184616.967,195931.946,195933.19999981,2023-02-10T19:23:35Z,195948.533,NULL,Vorsorge,tahadhari,d,NA,NA,NA,NA,sdf,NA,0,NA,NA,NA,NA,NA,NA,NA,NA,NA,NA,NA,NA,NA,NA,NA,NA,NA,NA,NA
d7167,block,flow.Loop,3_0_0_0,NA,NA,completion,87987.02,107939.4000001,107928.722,107944.926,195931.946,195933.4000001,2023-02-10T19:23:35Z,195948.533,NULL,NA,NA,NA,NA,NA,NA,NA,sdf,NA,0,NA,NA,NA,NA,NA,NA,NA,NA,NA,NA,NA,NA,NA,NA,NA,NA,NA,NA,NA
d7167,weiter,canvas.Screen,3_0_0_1,sdf,keypress(Space),response,1224.0669999046,195933.4000001,195931.946,195948.533,197172.5999999,197175,2023-02-10T19:23:37Z,197215.024,NULL,NA,NA,NA,NA,NA,NA,NA,sdf,NA,0,NA,NA,NA,NA,NA,NA,NA,NA,NA,NA,NA,NA,NA,NA,NA,NA,NA,NA,NA
d7167,check continue,flow.Sequence,3_0_0,NA,NA,completion,89227.673999905,107939.30000019001,107928.722,107944.926,197172.5999999,197175.0999999,2023-02-10T19:23:37Z,197215.024,NULL,NA,NA,NA,NA,NA,NA,NA,sdf,NA,0,NA,NA,NA,NA,NA,NA,NA,NA,NA,NA,NA,NA,NA,NA,NA,NA,NA,NA,NA
d7167,Deep Question,html.Page,3_0_1_0_0_0_0,NA,NA,form submission,11065.175999809,197212.80000019,197198.492,197215.024,208280.19999981,208280.5,2023-02-10T19:23:48Z,208300.91,NULL,Konkurrent,mshindani,d,NA,NA,NA,mwahanari,NA,NA,1,NA,NA,NA,NA,NA,NA,NA,NA,NA,NA,NA,NA,NA,NA,NA,NA,NA,NA,NA
d7167,"""Richtig""-Screen",canvas.Screen,3_0_1_0_0_0_1,NA,NA,skipped,NA,208282.69999981,NA,NA,208280.19999981,208282.9000001,2023-02-10T19:23:48Z,208300.91,NULL,Konkurrent,mshindani,d,NA,NA,NA,NA,sdfdsf,NA,1,NA,NA,NA,NA,NA,NA,NA,NA,NA,NA,NA,NA,NA,NA,NA,NA,NA,NA,NA
d7167,"""Falsch""-Screen",canvas.Screen,3_0_1_0_0_0_2,NA,NA,timeout,4995.15,208283.80000019,208263.508,208300.91,213279.387,213280,2023-02-10T19:23:53Z,213296.06,NULL,Konkurrent,mshindani,d,NA,NA,NA,NA,sdfdsf,0,1,NA,NA,NA,NA,NA,NA,NA,NA,NA,NA,NA,NA,NA,NA,NA,NA,NA,NA,NA
d7167,deep,flow.Sequence,3_0_1_0_0_0,NA,NA,completion,16064.363,197212.69999981,197198.492,197215.024,213279.387,213280.19999981,2023-02-10T19:23:53Z,213296.06,NULL,Konkurrent,mshindani,d,NA,NA,NA,NA,sdfdsf,NA,1,NA,NA,NA,NA,NA,NA,NA,NA,NA,NA,NA,NA,NA,NA,NA,NA,NA,NA,NA
d7167,shallow,flow.Sequence,3_0_1_0_0_1,NA,NA,skipped,NA,213280.30000019,NA,NA,213279.387,213280.4000001,2023-02-10T19:23:53Z,213296.06,NULL,Konkurrent,mshindani,d,NA,NA,NA,NA,sdfdsf,NA,1,NA,NA,NA,NA,NA,NA,NA,NA,NA,NA,NA,NA,NA,NA,NA,NA,NA,NA,NA
d7167,task,flow.Sequence,3_0_1_0_0,NA,NA,completion,16064.363,197212.69999981,197198.492,197215.024,213279.387,213280.5,2023-02-10T19:23:53Z,213296.06,NULL,Konkurrent,mshindani,d,NA,NA,NA,NA,sdfdsf,NA,1,NA,NA,NA,NA,NA,NA,NA,NA,NA,NA,NA,NA,NA,NA,NA,NA,NA,NA,NA
d7167,Deep Question,html.Page,3_0_1_0_1_0_0,NA,NA,form submission,16035.740000191,213280.5999999,213279.387,213296.06,229331.80000019,229332.0999999,2023-02-10T19:24:09Z,229343.607,NULL,Vorsorge,tahadhari,d,NA,NA,NA,nyugehi,NA,NA,1,NA,NA,NA,NA,NA,NA,NA,NA,NA,NA,NA,NA,NA,NA,NA,NA,NA,NA,NA
d7167,"""Richtig""-Screen",canvas.Screen,3_0_1_0_1_0_1,NA,NA,skipped,NA,229334.5,NA,NA,229331.80000019,229334.5999999,2023-02-10T19:24:09Z,229343.607,NULL,Vorsorge,tahadhari,d,NA,NA,NA,NA,sdfdsf,NA,1,NA,NA,NA,NA,NA,NA,NA,NA,NA,NA,NA,NA,NA,NA,NA,NA,NA,NA,NA
d7167,"""Falsch""-Screen",canvas.Screen,3_0_1_0_1_0_2,NA,NA,timeout,4999.377,229335.30000019,229327.072,229343.607,234326.296,234326.9000001,2023-02-10T19:24:14Z,234342.984,NULL,Vorsorge,tahadhari,d,NA,NA,NA,NA,sdfdsf,0,1,NA,NA,NA,NA,NA,NA,NA,NA,NA,NA,NA,NA,NA,NA,NA,NA,NA,NA,NA
d7167,deep,flow.Sequence,3_0_1_0_1_0,NA,NA,completion,21030.236,213280.5999999,213279.387,213296.06,234326.296,234327.19999981,2023-02-10T19:24:14Z,234342.984,NULL,Vorsorge,tahadhari,d,NA,NA,NA,NA,sdfdsf,NA,1,NA,NA,NA,NA,NA,NA,NA,NA,NA,NA,NA,NA,NA,NA,NA,NA,NA,NA,NA
d7167,shallow,flow.Sequence,3_0_1_0_1_1,NA,NA,skipped,NA,234327.30000019,NA,NA,234326.296,234327.4000001,2023-02-10T19:24:14Z,234342.984,NULL,Vorsorge,tahadhari,d,NA,NA,NA,NA,sdfdsf,NA,1,NA,NA,NA,NA,NA,NA,NA,NA,NA,NA,NA,NA,NA,NA,NA,NA,NA,NA,NA
d7167,task,flow.Sequence,3_0_1_0_1,NA,NA,completion,21030.236,213280.5999999,213279.387,213296.06,234326.296,234327.5999999,2023-02-10T19:24:14Z,234342.984,NULL,Vorsorge,tahadhari,d,NA,NA,NA,NA,sdfdsf,NA,1,NA,NA,NA,NA,NA,NA,NA,NA,NA,NA,NA,NA,NA,NA,NA,NA,NA,NA,NA
d7167,deep,flow.Sequence,3_0_1_0_2_0,NA,NA,skipped,NA,234327.5999999,NA,NA,234326.296,234327.80000019,2023-02-10T19:24:14Z,234342.984,NULL,Fenster,dirisha,s,walakini,tasawari,maarifa,NA,sdfdsf,NA,1,NA,NA,NA,NA,NA,NA,NA,NA,NA,NA,NA,NA,NA,NA,NA,NA,NA,NA,NA
d7167,Shallow Question,html.Page,3_0_1_0_2_1_0,NA,NA,form submission,4932.8160001907,234327.9000001,234326.296,234342.984,239275.80000019,239276.0999999,2023-02-10T19:24:19Z,239305.163,NULL,Fenster,dirisha,s,walakini,tasawari,maarifa,walakini,NA,NA,1,NA,NA,NA,NA,NA,NA,NA,NA,NA,NA,NA,NA,NA,NA,NA,NA,NA,NA,NA
d7167,"""Richtig""-Screen",canvas.Screen,3_0_1_0_2_1_1,NA,NA,skipped,NA,239278.19999981,NA,NA,239275.80000019,239278.30000019,2023-02-10T19:24:19Z,239305.163,NULL,Fenster,dirisha,s,walakini,tasawari,maarifa,NA,sdfdsf,NA,1,NA,NA,NA,NA,NA,NA,NA,NA,NA,NA,NA,NA,NA,NA,NA,NA,NA,NA,NA
d7167,"""Falsch""-Screen",canvas.Screen,3_0_1_0_2_1_2,NA,NA,timeout,5002.906,239279.0999999,239258.968,239305.163,244291.469,244292.0999999,2023-02-10T19:24:24Z,244308.069,NULL,Fenster,dirisha,s,walakini,tasawari,maarifa,NA,sdfdsf,0,1,NA,NA,NA,NA,NA,NA,NA,NA,NA,NA,NA,NA,NA,NA,NA,NA,NA,NA,NA
d7167,shallow,flow.Sequence,3_0_1_0_2_1,NA,NA,completion,9948.485,234327.9000001,234326.296,234342.984,244291.469,244292.30000019,2023-02-10T19:24:24Z,244308.069,NULL,Fenster,dirisha,s,walakini,tasawari,maarifa,NA,sdfdsf,NA,1,NA,NA,NA,NA,NA,NA,NA,NA,NA,NA,NA,NA,NA,NA,NA,NA,NA,NA,NA
d7167,task,flow.Sequence,3_0_1_0_2,NA,NA,completion,9948.485,234327.5999999,234326.296,234342.984,244291.469,244292.5,2023-02-10T19:24:24Z,244308.069,NULL,Fenster,dirisha,s,walakini,tasawari,maarifa,NA,sdfdsf,NA,1,NA,NA,NA,NA,NA,NA,NA,NA,NA,NA,NA,NA,NA,NA,NA,NA,NA,NA,NA
d7167,deep,flow.Sequence,3_0_1_0_3_0,NA,NA,skipped,NA,244292.5999999,NA,NA,244291.469,244292.69999981,2023-02-10T19:24:24Z,244308.069,NULL,Symbol,kielezo,s,kinyume,nderemo,utayari,NA,sdfdsf,NA,1,NA,NA,NA,NA,NA,NA,NA,NA,NA,NA,NA,NA,NA,NA,NA,NA,NA,NA,NA
d7167,Shallow Question,html.Page,3_0_1_0_3_1_0,NA,NA,form submission,10132.431,244292.80000019,244291.469,244308.069,254440.5,254440.80000019,2023-02-10T19:24:34Z,254467.024,NULL,Symbol,kielezo,s,kinyume,nderemo,utayari,utayari,NA,NA,1,NA,NA,NA,NA,NA,NA,NA,NA,NA,NA,NA,NA,NA,NA,NA,NA,NA,NA,NA
d7167,"""Richtig""-Screen",canvas.Screen,3_0_1_0_3_1_1,NA,NA,skipped,NA,254443.30000019,NA,NA,254440.5,254443.5999999,2023-02-10T19:24:34Z,254467.024,NULL,Symbol,kielezo,s,kinyume,nderemo,utayari,NA,sdfdsf,NA,1,NA,NA,NA,NA,NA,NA,NA,NA,NA,NA,NA,NA,NA,NA,NA,NA,NA,NA,NA
d7167,"""Falsch""-Screen",canvas.Screen,3_0_1_0_3_1_2,NA,NA,timeout,5005.515,254444.30000019,254423.304,254467.024,259455.759,259456.30000019,2023-02-10T19:24:39Z,259472.539,NULL,Symbol,kielezo,s,kinyume,nderemo,utayari,NA,sdfdsf,0,1,NA,NA,NA,NA,NA,NA,NA,NA,NA,NA,NA,NA,NA,NA,NA,NA,NA,NA,NA
d7167,shallow,flow.Sequence,3_0_1_0_3_1,NA,NA,completion,15147.69,244292.69999981,244291.469,244308.069,259455.759,259456.5,2023-02-10T19:24:39Z,259472.539,NULL,Symbol,kielezo,s,kinyume,nderemo,utayari,NA,sdfdsf,NA,1,NA,NA,NA,NA,NA,NA,NA,NA,NA,NA,NA,NA,NA,NA,NA,NA,NA,NA,NA
d7167,task,flow.Sequence,3_0_1_0_3,NA,NA,completion,15147.69,244292.5,244291.469,244308.069,259455.759,259456.69999981,2023-02-10T19:24:39Z,259472.539,NULL,Symbol,kielezo,s,kinyume,nderemo,utayari,NA,sdfdsf,NA,1,NA,NA,NA,NA,NA,NA,NA,NA,NA,NA,NA,NA,NA,NA,NA,NA,NA,NA,NA
d7167,Deep Question,html.Page,3_0_1_0_4_0_0,NA,NA,form submission,4797.3610000954,259456.80000019,259455.759,259472.539,264269.9000001,264270.19999981,2023-02-10T19:24:44Z,264271.697,NULL,Schüler,mwanafunzi,d,NA,NA,NA,a,NA,NA,1,NA,NA,NA,NA,NA,NA,NA,NA,NA,NA,NA,NA,NA,NA,NA,NA,NA,NA,NA
d7167,"""Richtig""-Screen",canvas.Screen,3_0_1_0_4_0_1,NA,NA,skipped,NA,264273.9000001,NA,NA,264269.9000001,264274.0999999,2023-02-10T19:24:44Z,264271.697,NULL,Schüler,mwanafunzi,d,NA,NA,NA,NA,sdfdsf,NA,1,NA,NA,NA,NA,NA,NA,NA,NA,NA,NA,NA,NA,NA,NA,NA,NA,NA,NA,NA
d7167,"""Falsch""-Screen",canvas.Screen,3_0_1_0_4_0_2,NA,NA,timeout,4999.337,264275.4000001,264255.043,264271.697,269254.354,269254.9000001,2023-02-10T19:24:49Z,269271.034,NULL,Schüler,mwanafunzi,d,NA,NA,NA,NA,sdfdsf,0,1,NA,NA,NA,NA,NA,NA,NA,NA,NA,NA,NA,NA,NA,NA,NA,NA,NA,NA,NA
d7167,deep,flow.Sequence,3_0_1_0_4_0,NA,NA,completion,9781.815,259456.69999981,259455.759,259472.539,269254.354,269255.0999999,2023-02-10T19:24:49Z,269271.034,NULL,Schüler,mwanafunzi,d,NA,NA,NA,NA,sdfdsf,NA,1,NA,NA,NA,NA,NA,NA,NA,NA,NA,NA,NA,NA,NA,NA,NA,NA,NA,NA,NA
d7167,shallow,flow.Sequence,3_0_1_0_4_1,NA,NA,skipped,NA,269255.30000019,NA,NA,269254.354,269255.4000001,2023-02-10T19:24:49Z,269271.034,NULL,Schüler,mwanafunzi,d,NA,NA,NA,NA,sdfdsf,NA,1,NA,NA,NA,NA,NA,NA,NA,NA,NA,NA,NA,NA,NA,NA,NA,NA,NA,NA,NA
d7167,task,flow.Sequence,3_0_1_0_4,NA,NA,completion,9781.815,259456.69999981,259455.759,259472.539,269254.354,269255.5,2023-02-10T19:24:49Z,269271.034,NULL,Schüler,mwanafunzi,d,NA,NA,NA,NA,sdfdsf,NA,1,NA,NA,NA,NA,NA,NA,NA,NA,NA,NA,NA,NA,NA,NA,NA,NA,NA,NA,NA
d7167,deep,flow.Sequence,3_0_1_0_5_0,NA,NA,skipped,NA,269255.5999999,NA,NA,269254.354,269255.69999981,2023-02-10T19:24:49Z,269271.034,NULL,Spionage,upelelezi,s,maslahi,utokazo,magangao,NA,sdfdsf,NA,1,NA,NA,NA,NA,NA,NA,NA,NA,NA,NA,NA,NA,NA,NA,NA,NA,NA,NA,NA
d7167,Shallow Question,html.Page,3_0_1_0_5_1_0,NA,NA,form submission,7795.466,269255.69999981,269254.354,269271.034,277066.5,277066.69999981,2023-02-10T19:24:57Z,277069.795,NULL,Spionage,upelelezi,s,maslahi,utokazo,magangao,magangao,NA,NA,1,NA,NA,NA,NA,NA,NA,NA,NA,NA,NA,NA,NA,NA,NA,NA,NA,NA,NA,NA
d7167,"""Richtig""-Screen",canvas.Screen,3_0_1_0_5_1_1,NA,NA,skipped,NA,277069.0999999,NA,NA,277066.5,277069.4000001,2023-02-10T19:24:57Z,277069.795,NULL,Spionage,upelelezi,s,maslahi,utokazo,magangao,NA,sdfdsf,NA,1,NA,NA,NA,NA,NA,NA,NA,NA,NA,NA,NA,NA,NA,NA,NA,NA,NA,NA,NA
d7167,"""Falsch""-Screen",canvas.Screen,3_0_1_0_5_1_2,NA,NA,timeout,4999.299,277070.19999981,277053.531,277069.795,282052.45,282053.0999999,2023-02-10T19:25:02Z,282069.094,NULL,Spionage,upelelezi,s,maslahi,utokazo,magangao,NA,sdfdsf,0,1,NA,NA,NA,NA,NA,NA,NA,NA,NA,NA,NA,NA,NA,NA,NA,NA,NA,NA,NA
d7167,shallow,flow.Sequence,3_0_1_0_5_1,NA,NA,completion,12781.416,269255.69999981,269254.354,269271.034,282052.45,282053.4000001,2023-02-10T19:25:02Z,282069.094,NULL,Spionage,upelelezi,s,maslahi,utokazo,magangao,NA,sdfdsf,NA,1,NA,NA,NA,NA,NA,NA,NA,NA,NA,NA,NA,NA,NA,NA,NA,NA,NA,NA,NA
d7167,task,flow.Sequence,3_0_1_0_5,NA,NA,completion,12781.416,269255.5999999,269254.354,269271.034,282052.45,282053.5,2023-02-10T19:25:02Z,282069.094,NULL,Spionage,upelelezi,s,maslahi,utokazo,magangao,NA,sdfdsf,NA,1,NA,NA,NA,NA,NA,NA,NA,NA,NA,NA,NA,NA,NA,NA,NA,NA,NA,NA,NA
d7167,deep,flow.Sequence,3_0_1_0_6_0,NA,NA,skipped,NA,282053.69999981,NA,NA,282052.45,282053.80000019,2023-02-10T19:25:02Z,282069.094,NULL,Zuwachs,nyongeza,s,matilaba,udhibiti,hudhurio,NA,sdfdsf,NA,1,NA,NA,NA,NA,NA,NA,NA,NA,NA,NA,NA,NA,NA,NA,NA,NA,NA,NA,NA
d7167,Shallow Question,html.Page,3_0_1_0_6_1_0,NA,NA,form submission,5545.406,282053.9000001,282052.45,282069.094,287614.5,287614.69999981,2023-02-10T19:25:07Z,287618.242,NULL,Zuwachs,nyongeza,s,matilaba,udhibiti,hudhurio,nyongeza,NA,NA,1,NA,NA,NA,NA,NA,NA,NA,NA,NA,NA,NA,NA,NA,NA,NA,NA,NA,NA,NA
d7167,"""Richtig""-Screen",canvas.Screen,3_0_1_0_6_1_1,NA,NA,timeout,4999.386,287617.0999999,287601.761,287618.242,292600.874,292601.5999999,2023-02-10T19:25:12Z,292617.628,NULL,Zuwachs,nyongeza,s,matilaba,udhibiti,hudhurio,NA,sdfdsf,1,1,NA,NA,NA,NA,NA,NA,NA,NA,NA,NA,NA,NA,NA,NA,NA,NA,NA,NA,NA
d7167,"""Falsch""-Screen",canvas.Screen,3_0_1_0_6_1_2,NA,NA,skipped,NA,292603.80000019,NA,NA,292600.874,292603.9000001,2023-02-10T19:25:12Z,292617.628,NULL,Zuwachs,nyongeza,s,matilaba,udhibiti,hudhurio,NA,sdfdsf,NA,1,NA,NA,NA,NA,NA,NA,NA,NA,NA,NA,NA,NA,NA,NA,NA,NA,NA,NA,NA
d7167,shallow,flow.Sequence,3_0_1_0_6_1,NA,NA,completion,10531.78,282053.9000001,282052.45,282069.094,292600.874,292604.0999999,2023-02-10T19:25:12Z,292617.628,NULL,Zuwachs,nyongeza,s,matilaba,udhibiti,hudhurio,NA,sdfdsf,NA,1,NA,NA,NA,NA,NA,NA,NA,NA,NA,NA,NA,NA,NA,NA,NA,NA,NA,NA,NA
d7167,task,flow.Sequence,3_0_1_0_6,NA,NA,completion,10531.78,282053.69999981,282052.45,282069.094,292600.874,292604.30000019,2023-02-10T19:25:12Z,292617.628,NULL,Zuwachs,nyongeza,s,matilaba,udhibiti,hudhurio,NA,sdfdsf,NA,1,NA,NA,NA,NA,NA,NA,NA,NA,NA,NA,NA,NA,NA,NA,NA,NA,NA,NA,NA
d7167,Deep Question,html.Page,3_0_1_0_7_0_0,NA,NA,form submission,8069.6720001907,292604.4000001,292600.874,292617.628,300687.30000019,300687.5,2023-02-10T19:25:20Z,300699.789,NULL,Tester,wanaojaribu,d,NA,NA,NA,mawahali,NA,NA,1,NA,NA,NA,NA,NA,NA,NA,NA,NA,NA,NA,NA,NA,NA,NA,NA,NA,NA,NA
d7167,"""Richtig""-Screen",canvas.Screen,3_0_1_0_7_0_1,NA,NA,skipped,NA,300689.69999981,NA,NA,300687.30000019,300689.9000001,2023-02-10T19:25:20Z,300699.789,NULL,Tester,wanaojaribu,d,NA,NA,NA,NA,sdfdsf,NA,1,NA,NA,NA,NA,NA,NA,NA,NA,NA,NA,NA,NA,NA,NA,NA,NA,NA,NA,NA
d7167,"""Falsch""-Screen",canvas.Screen,3_0_1_0_7_0_2,NA,NA,timeout,4999.07,300690.69999981,300683.042,300699.789,305682.264,305682.80000019,2023-02-10T19:25:25Z,305698.859,NULL,Tester,wanaojaribu,d,NA,NA,NA,NA,sdfdsf,0,1,NA,NA,NA,NA,NA,NA,NA,NA,NA,NA,NA,NA,NA,NA,NA,NA,NA,NA,NA
d7167,deep,flow.Sequence,3_0_1_0_7_0,NA,NA,completion,13064.636,292604.30000019,292600.874,292617.628,305682.264,305683,2023-02-10T19:25:25Z,305698.859,NULL,Tester,wanaojaribu,d,NA,NA,NA,NA,sdfdsf,NA,1,NA,NA,NA,NA,NA,NA,NA,NA,NA,NA,NA,NA,NA,NA,NA,NA,NA,NA,NA
d7167,shallow,flow.Sequence,3_0_1_0_7_1,NA,NA,skipped,NA,305683.19999981,NA,NA,305682.264,305683.30000019,2023-02-10T19:25:25Z,305698.859,NULL,Tester,wanaojaribu,d,NA,NA,NA,NA,sdfdsf,NA,1,NA,NA,NA,NA,NA,NA,NA,NA,NA,NA,NA,NA,NA,NA,NA,NA,NA,NA,NA
d7167,task,flow.Sequence,3_0_1_0_7,NA,NA,completion,13064.636,292604.30000019,292600.874,292617.628,305682.264,305683.4000001,2023-02-10T19:25:25Z,305698.859,NULL,Tester,wanaojaribu,d,NA,NA,NA,NA,sdfdsf,NA,1,NA,NA,NA,NA,NA,NA,NA,NA,NA,NA,NA,NA,NA,NA,NA,NA,NA,NA,NA
d7167,block,flow.Loop,3_0_1_0,NA,NA,completion,108467.24,197212.69999981,197198.492,197215.024,305682.264,305684.0999999,2023-02-10T19:25:25Z,305698.859,NULL,NA,NA,NA,NA,NA,NA,NA,sdfdsf,NA,1,NA,NA,NA,NA,NA,NA,NA,NA,NA,NA,NA,NA,NA,NA,NA,NA,NA,NA,NA
d7167,weiter,canvas.Screen,3_0_1_1,sdf,keypress(Space),response,4200.141,305684.19999981,305682.264,305698.859,309899,309901.5,2023-02-10T19:25:29Z,309948.213,NULL,NA,NA,NA,NA,NA,NA,NA,sdfdsf,NA,1,NA,NA,NA,NA,NA,NA,NA,NA,NA,NA,NA,NA,NA,NA,NA,NA,NA,NA,NA
d7167,check continue,flow.Sequence,3_0_1,NA,NA,completion,112683.976,197212.69999981,197198.492,197215.024,309899,309901.69999981,2023-02-10T19:25:29Z,309948.213,NULL,NA,NA,NA,NA,NA,NA,NA,sdfdsf,NA,1,NA,NA,NA,NA,NA,NA,NA,NA,NA,NA,NA,NA,NA,NA,NA,NA,NA,NA,NA
d7167,deep,flow.Sequence,3_0_2_0_0_0,NA,NA,skipped,NA,309944.5,NA,NA,309899,309944.69999981,2023-02-10T19:25:29Z,309948.213,NULL,Symbol,kielezo,s,kinyume,nderemo,utayari,NA,sdf,NA,2,NA,NA,NA,NA,NA,NA,NA,NA,NA,NA,NA,NA,NA,NA,NA,NA,NA,NA,NA
d7167,Shallow Question,html.Page,3_0_2_0_0_1_0,NA,NA,form submission,5221.3869999046,309944.80000019,309932.02,309948.213,315169.5999999,315169.80000019,2023-02-10T19:25:35Z,315180.888,NULL,Symbol,kielezo,s,kinyume,nderemo,utayari,kielezo,NA,NA,2,NA,NA,NA,NA,NA,NA,NA,NA,NA,NA,NA,NA,NA,NA,NA,NA,NA,NA,NA
d7167,"""Richtig""-Screen",canvas.Screen,3_0_2_0_0_1_1,NA,NA,timeout,4999.29,315171.69999981,315164.264,315180.888,320163.477,320164.30000019,2023-02-10T19:25:40Z,320180.178,NULL,Symbol,kielezo,s,kinyume,nderemo,utayari,NA,sdf,1,2,NA,NA,NA,NA,NA,NA,NA,NA,NA,NA,NA,NA,NA,NA,NA,NA,NA,NA,NA
d7167,"""Falsch""-Screen",canvas.Screen,3_0_2_0_0_1_2,NA,NA,skipped,NA,320166.9000001,NA,NA,320163.477,320167.0999999,2023-02-10T19:25:40Z,320180.178,NULL,Symbol,kielezo,s,kinyume,nderemo,utayari,NA,sdf,NA,2,NA,NA,NA,NA,NA,NA,NA,NA,NA,NA,NA,NA,NA,NA,NA,NA,NA,NA,NA
d7167,shallow,flow.Sequence,3_0_2_0_0_1,NA,NA,completion,10215.264,309944.69999981,309932.02,309948.213,320163.477,320167.19999981,2023-02-10T19:25:40Z,320180.178,NULL,Symbol,kielezo,s,kinyume,nderemo,utayari,NA,sdf,NA,2,NA,NA,NA,NA,NA,NA,NA,NA,NA,NA,NA,NA,NA,NA,NA,NA,NA,NA,NA
d7167,task,flow.Sequence,3_0_2_0_0,NA,NA,completion,10215.264,309944.5,309932.02,309948.213,320163.477,320167.30000019,2023-02-10T19:25:40Z,320180.178,NULL,Symbol,kielezo,s,kinyume,nderemo,utayari,NA,sdf,NA,2,NA,NA,NA,NA,NA,NA,NA,NA,NA,NA,NA,NA,NA,NA,NA,NA,NA,NA,NA
d7167,deep,flow.Sequence,3_0_2_0_1_0,NA,NA,skipped,NA,320167.4000001,NA,NA,320163.477,320167.4000001,2023-02-10T19:25:40Z,320180.178,NULL,Zuwachs,nyongeza,s,matilaba,udhibiti,hudhurio,NA,sdf,NA,2,NA,NA,NA,NA,NA,NA,NA,NA,NA,NA,NA,NA,NA,NA,NA,NA,NA,NA,NA
d7167,Shallow Question,html.Page,3_0_2_0_1_1_0,NA,NA,form submission,3369.6220001907,320167.5,320163.477,320180.178,323549.80000019,323550.0999999,2023-02-10T19:25:43Z,323562.979,NULL,Zuwachs,nyongeza,s,matilaba,udhibiti,hudhurio,nyongeza,NA,NA,2,NA,NA,NA,NA,NA,NA,NA,NA,NA,NA,NA,NA,NA,NA,NA,NA,NA,NA,NA
d7167,"""Richtig""-Screen",canvas.Screen,3_0_2_0_1_1_1,NA,NA,timeout,4999.222,323550.69999981,323546.338,323562.979,328545.581,328546.0999999,2023-02-10T19:25:48Z,328562.201,NULL,Zuwachs,nyongeza,s,matilaba,udhibiti,hudhurio,NA,sdf,1,2,NA,NA,NA,NA,NA,NA,NA,NA,NA,NA,NA,NA,NA,NA,NA,NA,NA,NA,NA
d7167,"""Falsch""-Screen",canvas.Screen,3_0_2_0_1_1_2,NA,NA,skipped,NA,328548.9000001,NA,NA,328545.581,328549,2023-02-10T19:25:48Z,328562.201,NULL,Zuwachs,nyongeza,s,matilaba,udhibiti,hudhurio,NA,sdf,NA,2,NA,NA,NA,NA,NA,NA,NA,NA,NA,NA,NA,NA,NA,NA,NA,NA,NA,NA,NA
d7167,shallow,flow.Sequence,3_0_2_0_1_1,NA,NA,completion,8365.403,320167.4000001,320163.477,320180.178,328545.581,328549.0999999,2023-02-10T19:25:48Z,328562.201,NULL,Zuwachs,nyongeza,s,matilaba,udhibiti,hudhurio,NA,sdf,NA,2,NA,NA,NA,NA,NA,NA,NA,NA,NA,NA,NA,NA,NA,NA,NA,NA,NA,NA,NA
d7167,task,flow.Sequence,3_0_2_0_1,NA,NA,completion,8365.403,320167.30000019,320163.477,320180.178,328545.581,328549.30000019,2023-02-10T19:25:48Z,328562.201,NULL,Zuwachs,nyongeza,s,matilaba,udhibiti,hudhurio,NA,sdf,NA,2,NA,NA,NA,NA,NA,NA,NA,NA,NA,NA,NA,NA,NA,NA,NA,NA,NA,NA,NA
d7167,Deep Question,html.Page,3_0_2_0_2_0_0,NA,NA,form submission,8809.4989998093,328549.4000001,328545.581,328562.201,337371.69999981,337372,2023-02-10T19:25:57Z,337377.533,NULL,Tester,wanaojaribu,d,NA,NA,NA,a,NA,NA,2,NA,NA,NA,NA,NA,NA,NA,NA,NA,NA,NA,NA,NA,NA,NA,NA,NA,NA,NA
d7167,"""Richtig""-Screen",canvas.Screen,3_0_2_0_2_0_1,NA,NA,skipped,NA,337374,NA,NA,337371.69999981,337374.0999999,2023-02-10T19:25:57Z,337377.533,NULL,Tester,wanaojaribu,d,NA,NA,NA,NA,sdf,NA,2,NA,NA,NA,NA,NA,NA,NA,NA,NA,NA,NA,NA,NA,NA,NA,NA,NA,NA,NA
d7167,"""Falsch""-Screen",canvas.Screen,3_0_2_0_2_0_2,NA,NA,timeout,4999.348,337374.9000001,337361.033,337377.533,342360.197,342360.9000001,2023-02-10T19:26:02Z,342376.881,NULL,Tester,wanaojaribu,d,NA,NA,NA,NA,sdf,0,2,NA,NA,NA,NA,NA,NA,NA,NA,NA,NA,NA,NA,NA,NA,NA,NA,NA,NA,NA
d7167,deep,flow.Sequence,3_0_2_0_2_0,NA,NA,completion,13797.996,328549.4000001,328545.581,328562.201,342360.197,342361.0999999,2023-02-10T19:26:02Z,342376.881,NULL,Tester,wanaojaribu,d,NA,NA,NA,NA,sdf,NA,2,NA,NA,NA,NA,NA,NA,NA,NA,NA,NA,NA,NA,NA,NA,NA,NA,NA,NA,NA
d7167,shallow,flow.Sequence,3_0_2_0_2_1,NA,NA,skipped,NA,342361.30000019,NA,NA,342360.197,342361.30000019,2023-02-10T19:26:02Z,342376.881,NULL,Tester,wanaojaribu,d,NA,NA,NA,NA,sdf,NA,2,NA,NA,NA,NA,NA,NA,NA,NA,NA,NA,NA,NA,NA,NA,NA,NA,NA,NA,NA
d7167,task,flow.Sequence,3_0_2_0_2,NA,NA,completion,13797.996,328549.4000001,328545.581,328562.201,342360.197,342361.5,2023-02-10T19:26:02Z,342376.881,NULL,Tester,wanaojaribu,d,NA,NA,NA,NA,sdf,NA,2,NA,NA,NA,NA,NA,NA,NA,NA,NA,NA,NA,NA,NA,NA,NA,NA,NA,NA,NA
d7167,deep,flow.Sequence,3_0_2_0_3_0,NA,NA,skipped,NA,342361.5,NA,NA,342360.197,342361.5999999,2023-02-10T19:26:02Z,342376.881,NULL,Spionage,upelelezi,s,maslahi,utokazo,magangao,NA,sdf,NA,2,NA,NA,NA,NA,NA,NA,NA,NA,NA,NA,NA,NA,NA,NA,NA,NA,NA,NA,NA
d7167,Shallow Question,html.Page,3_0_2_0_3_1_0,NA,NA,form submission,7275.3189998093,342361.69999981,342360.197,342376.881,349652.19999981,349652.5,2023-02-10T19:26:09Z,349659.038,NULL,Spionage,upelelezi,s,maslahi,utokazo,magangao,upelelezi,NA,NA,2,NA,NA,NA,NA,NA,NA,NA,NA,NA,NA,NA,NA,NA,NA,NA,NA,NA,NA,NA
d7167,"""Richtig""-Screen",canvas.Screen,3_0_2_0_3_1_1,NA,NA,timeout,4999.414,349654.69999981,349642.557,349659.038,354641.718,354642.30000019,2023-02-10T19:26:14Z,354658.452,NULL,Spionage,upelelezi,s,maslahi,utokazo,magangao,NA,sdf,1,2,NA,NA,NA,NA,NA,NA,NA,NA,NA,NA,NA,NA,NA,NA,NA,NA,NA,NA,NA
d7167,"""Falsch""-Screen",canvas.Screen,3_0_2_0_3_1_2,NA,NA,skipped,NA,354644.80000019,NA,NA,354641.718,354644.9000001,2023-02-10T19:26:14Z,354658.452,NULL,Spionage,upelelezi,s,maslahi,utokazo,magangao,NA,sdf,NA,2,NA,NA,NA,NA,NA,NA,NA,NA,NA,NA,NA,NA,NA,NA,NA,NA,NA,NA,NA
d7167,shallow,flow.Sequence,3_0_2_0_3_1,NA,NA,completion,12264.837,342361.69999981,342360.197,342376.881,354641.718,354645.0999999,2023-02-10T19:26:14Z,354658.452,NULL,Spionage,upelelezi,s,maslahi,utokazo,magangao,NA,sdf,NA,2,NA,NA,NA,NA,NA,NA,NA,NA,NA,NA,NA,NA,NA,NA,NA,NA,NA,NA,NA
d7167,task,flow.Sequence,3_0_2_0_3,NA,NA,completion,12264.837,342361.5,342360.197,342376.881,354641.718,354645.0999999,2023-02-10T19:26:14Z,354658.452,NULL,Spionage,upelelezi,s,maslahi,utokazo,magangao,NA,sdf,NA,2,NA,NA,NA,NA,NA,NA,NA,NA,NA,NA,NA,NA,NA,NA,NA,NA,NA,NA,NA
d7167,deep,flow.Sequence,3_0_2_0_4_0,NA,NA,skipped,NA,354645.19999981,NA,NA,354641.718,354645.30000019,2023-02-10T19:26:14Z,354658.452,NULL,Fenster,dirisha,s,walakini,tasawari,maarifa,NA,sdf,NA,2,NA,NA,NA,NA,NA,NA,NA,NA,NA,NA,NA,NA,NA,NA,NA,NA,NA,NA,NA
d7167,Shallow Question,html.Page,3_0_2_0_4_1_0,NA,NA,form submission,2978.4480000954,354645.30000019,354641.718,354658.452,357636.9000001,357637.19999981,2023-02-10T19:26:17Z,357641.212,NULL,Fenster,dirisha,s,walakini,tasawari,maarifa,dirisha,NA,NA,2,NA,NA,NA,NA,NA,NA,NA,NA,NA,NA,NA,NA,NA,NA,NA,NA,NA,NA,NA
d7167,"""Richtig""-Screen",canvas.Screen,3_0_2_0_4_1_1,NA,NA,timeout,4999.722,357638.30000019,357624.704,357641.212,362623.805,362624.5,2023-02-10T19:26:22Z,362640.934,NULL,Fenster,dirisha,s,walakini,tasawari,maarifa,NA,sdf,1,2,NA,NA,NA,NA,NA,NA,NA,NA,NA,NA,NA,NA,NA,NA,NA,NA,NA,NA,NA
d7167,"""Falsch""-Screen",canvas.Screen,3_0_2_0_4_1_2,NA,NA,skipped,NA,362627.9000001,NA,NA,362623.805,362628.19999981,2023-02-10T19:26:22Z,362640.934,NULL,Fenster,dirisha,s,walakini,tasawari,maarifa,NA,sdf,NA,2,NA,NA,NA,NA,NA,NA,NA,NA,NA,NA,NA,NA,NA,NA,NA,NA,NA,NA,NA
d7167,shallow,flow.Sequence,3_0_2_0_4_1,NA,NA,completion,7965.353,354645.30000019,354641.718,354658.452,362623.805,362628.4000001,2023-02-10T19:26:22Z,362640.934,NULL,Fenster,dirisha,s,walakini,tasawari,maarifa,NA,sdf,NA,2,NA,NA,NA,NA,NA,NA,NA,NA,NA,NA,NA,NA,NA,NA,NA,NA,NA,NA,NA
d7167,task,flow.Sequence,3_0_2_0_4,NA,NA,completion,7965.353,354645.19999981,354641.718,354658.452,362623.805,362628.5,2023-02-10T19:26:22Z,362640.934,NULL,Fenster,dirisha,s,walakini,tasawari,maarifa,NA,sdf,NA,2,NA,NA,NA,NA,NA,NA,NA,NA,NA,NA,NA,NA,NA,NA,NA,NA,NA,NA,NA
d7167,Deep Question,html.Page,3_0_2_0_5_0_0,NA,NA,form submission,4807.1659999046,362628.5999999,362623.805,362640.934,367448.0999999,367448.4000001,2023-02-10T19:26:27Z,367456.509,NULL,Schüler,mwanafunzi,d,NA,NA,NA,a,NA,NA,2,NA,NA,NA,NA,NA,NA,NA,NA,NA,NA,NA,NA,NA,NA,NA,NA,NA,NA,NA
d7167,"""Richtig""-Screen",canvas.Screen,3_0_2_0_5_0_1,NA,NA,skipped,NA,367450.19999981,NA,NA,367448.0999999,367450.4000001,2023-02-10T19:26:27Z,367456.509,NULL,Schüler,mwanafunzi,d,NA,NA,NA,NA,sdf,NA,2,NA,NA,NA,NA,NA,NA,NA,NA,NA,NA,NA,NA,NA,NA,NA,NA,NA,NA,NA
d7167,"""Falsch""-Screen",canvas.Screen,3_0_2_0_5_0_2,NA,NA,timeout,4999.253,367451.30000019,367439.857,367456.509,372439.067,372439.5999999,2023-02-10T19:26:32Z,372455.762,NULL,Schüler,mwanafunzi,d,NA,NA,NA,NA,sdf,0,2,NA,NA,NA,NA,NA,NA,NA,NA,NA,NA,NA,NA,NA,NA,NA,NA,NA,NA,NA
d7167,deep,flow.Sequence,3_0_2_0_5_0,NA,NA,completion,9798.133,362628.5999999,362623.805,362640.934,372439.067,372439.9000001,2023-02-10T19:26:32Z,372455.762,NULL,Schüler,mwanafunzi,d,NA,NA,NA,NA,sdf,NA,2,NA,NA,NA,NA,NA,NA,NA,NA,NA,NA,NA,NA,NA,NA,NA,NA,NA,NA,NA
d7167,shallow,flow.Sequence,3_0_2_0_5_1,NA,NA,skipped,NA,372439.9000001,NA,NA,372439.067,372440.0999999,2023-02-10T19:26:32Z,372455.762,NULL,Schüler,mwanafunzi,d,NA,NA,NA,NA,sdf,NA,2,NA,NA,NA,NA,NA,NA,NA,NA,NA,NA,NA,NA,NA,NA,NA,NA,NA,NA,NA
d7167,task,flow.Sequence,3_0_2_0_5,NA,NA,completion,9798.133,362628.5999999,362623.805,362640.934,372439.067,372440.30000019,2023-02-10T19:26:32Z,372455.762,NULL,Schüler,mwanafunzi,d,NA,NA,NA,NA,sdf,NA,2,NA,NA,NA,NA,NA,NA,NA,NA,NA,NA,NA,NA,NA,NA,NA,NA,NA,NA,NA
d7167,Deep Question,html.Page,3_0_2_0_6_0_0,NA,NA,form submission,6988.238,372440.4000001,372439.067,372455.762,379444,379444.30000019,2023-02-10T19:26:39Z,379454.734,NULL,Vorsorge,tahadhari,d,NA,NA,NA,a,NA,NA,2,NA,NA,NA,NA,NA,NA,NA,NA,NA,NA,NA,NA,NA,NA,NA,NA,NA,NA,NA
d7167,"""Richtig""-Screen",canvas.Screen,3_0_2_0_6_0_1,NA,NA,skipped,NA,379446.5999999,NA,NA,379444,379446.80000019,2023-02-10T19:26:39Z,379454.734,NULL,Vorsorge,tahadhari,d,NA,NA,NA,NA,sdf,NA,2,NA,NA,NA,NA,NA,NA,NA,NA,NA,NA,NA,NA,NA,NA,NA,NA,NA,NA,NA
d7167,"""Falsch""-Screen",canvas.Screen,3_0_2_0_6_0_2,NA,NA,timeout,4999.251,379447.5999999,379438.123,379454.734,384437.319,384437.9000001,2023-02-10T19:26:44Z,384453.985,NULL,Vorsorge,tahadhari,d,NA,NA,NA,NA,sdf,0,2,NA,NA,NA,NA,NA,NA,NA,NA,NA,NA,NA,NA,NA,NA,NA,NA,NA,NA,NA
d7167,deep,flow.Sequence,3_0_2_0_6_0,NA,NA,completion,11981.557,372440.4000001,372439.067,372455.762,384437.319,384438.0999999,2023-02-10T19:26:44Z,384453.985,NULL,Vorsorge,tahadhari,d,NA,NA,NA,NA,sdf,NA,2,NA,NA,NA,NA,NA,NA,NA,NA,NA,NA,NA,NA,NA,NA,NA,NA,NA,NA,NA
d7167,shallow,flow.Sequence,3_0_2_0_6_1,NA,NA,skipped,NA,384438.30000019,NA,NA,384437.319,384438.4000001,2023-02-10T19:26:44Z,384453.985,NULL,Vorsorge,tahadhari,d,NA,NA,NA,NA,sdf,NA,2,NA,NA,NA,NA,NA,NA,NA,NA,NA,NA,NA,NA,NA,NA,NA,NA,NA,NA,NA
d7167,task,flow.Sequence,3_0_2_0_6,NA,NA,completion,11981.557,372440.30000019,372439.067,372455.762,384437.319,384438.5,2023-02-10T19:26:44Z,384453.985,NULL,Vorsorge,tahadhari,d,NA,NA,NA,NA,sdf,NA,2,NA,NA,NA,NA,NA,NA,NA,NA,NA,NA,NA,NA,NA,NA,NA,NA,NA,NA,NA
d7167,Deep Question,html.Page,3_0_2_0_7_0_0,NA,NA,form submission,19944.114999905,384438.5999999,384437.319,384453.985,404398.0999999,404398.4000001,2023-02-10T19:27:04Z,404400.954,NULL,Konkurrent,mshindani,d,NA,NA,NA,mabinwehi,NA,NA,2,NA,NA,NA,NA,NA,NA,NA,NA,NA,NA,NA,NA,NA,NA,NA,NA,NA,NA,NA
d7167,"""Richtig""-Screen",canvas.Screen,3_0_2_0_7_0_1,NA,NA,skipped,NA,404400.69999981,NA,NA,404398.0999999,404400.80000019,2023-02-10T19:27:04Z,404400.954,NULL,Konkurrent,mshindani,d,NA,NA,NA,NA,sdf,NA,2,NA,NA,NA,NA,NA,NA,NA,NA,NA,NA,NA,NA,NA,NA,NA,NA,NA,NA,NA
d7167,"""Falsch""-Screen",canvas.Screen,3_0_2_0_7_0_2,NA,NA,timeout,4999.256,404401.5999999,404384.414,404400.954,409383.614,409384.30000019,2023-02-10T19:27:09Z,409400.21,NULL,Konkurrent,mshindani,d,NA,NA,NA,NA,sdf,0,2,NA,NA,NA,NA,NA,NA,NA,NA,NA,NA,NA,NA,NA,NA,NA,NA,NA,NA,NA
d7167,deep,flow.Sequence,3_0_2_0_7_0,NA,NA,completion,24929.629,384438.5999999,384437.319,384453.985,409383.614,409384.5999999,2023-02-10T19:27:09Z,409400.21,NULL,Konkurrent,mshindani,d,NA,NA,NA,NA,sdf,NA,2,NA,NA,NA,NA,NA,NA,NA,NA,NA,NA,NA,NA,NA,NA,NA,NA,NA,NA,NA
d7167,shallow,flow.Sequence,3_0_2_0_7_1,NA,NA,skipped,NA,409384.5999999,NA,NA,409383.614,409384.80000019,2023-02-10T19:27:09Z,409400.21,NULL,Konkurrent,mshindani,d,NA,NA,NA,NA,sdf,NA,2,NA,NA,NA,NA,NA,NA,NA,NA,NA,NA,NA,NA,NA,NA,NA,NA,NA,NA,NA
d7167,task,flow.Sequence,3_0_2_0_7,NA,NA,completion,24929.629,384438.5999999,384437.319,384453.985,409383.614,409384.9000001,2023-02-10T19:27:09Z,409400.21,NULL,Konkurrent,mshindani,d,NA,NA,NA,NA,sdf,NA,2,NA,NA,NA,NA,NA,NA,NA,NA,NA,NA,NA,NA,NA,NA,NA,NA,NA,NA,NA
d7167,block,flow.Loop,3_0_2_0,NA,NA,completion,99435.401,309944.5,309932.02,309948.213,409383.614,409385.0999999,2023-02-10T19:27:09Z,409400.21,NULL,NA,NA,NA,NA,NA,NA,NA,sdf,NA,2,NA,NA,NA,NA,NA,NA,NA,NA,NA,NA,NA,NA,NA,NA,NA,NA,NA,NA,NA
d7167,weiter,canvas.Screen,3_0_2_1,sdf,keypress(Space),response,1098.1900000953,409385.30000019,409383.614,409400.21,410498.4000001,410501,2023-02-10T19:27:10Z,410550.128,NULL,NA,NA,NA,NA,NA,NA,NA,sdf,NA,2,NA,NA,NA,NA,NA,NA,NA,NA,NA,NA,NA,NA,NA,NA,NA,NA,NA,NA,NA
d7167,check continue,flow.Sequence,3_0_2,NA,NA,completion,100550.1870001,309944.4000001,309932.02,309948.213,410498.4000001,410501.19999981,2023-02-10T19:27:10Z,410550.128,NULL,NA,NA,NA,NA,NA,NA,NA,sdf,NA,2,NA,NA,NA,NA,NA,NA,NA,NA,NA,NA,NA,NA,NA,NA,NA,NA,NA,NA,NA
d7167,deep,flow.Sequence,3_0_3_0_0_0,NA,NA,skipped,NA,410539.4000001,NA,NA,410498.4000001,410539.5,2023-02-10T19:27:10Z,410550.128,NULL,Zuwachs,nyongeza,s,matilaba,udhibiti,hudhurio,NA,qt,NA,3,NA,NA,NA,NA,NA,NA,NA,NA,NA,NA,NA,NA,NA,NA,NA,NA,NA,NA,NA
d7167,Shallow Question,html.Page,3_0_3_0_0_1_0,NA,NA,form submission,3121.0719998092,410539.5999999,410533.501,410550.128,413671.19999981,413671.5,2023-02-10T19:27:13Z,413683.07,NULL,Zuwachs,nyongeza,s,matilaba,udhibiti,hudhurio,nyongeza,NA,NA,3,NA,NA,NA,NA,NA,NA,NA,NA,NA,NA,NA,NA,NA,NA,NA,NA,NA,NA,NA
d7167,"""Richtig""-Screen",canvas.Screen,3_0_3_0_0_1_1,NA,NA,timeout,4999.137,413672.30000019,413666.395,413683.07,418665.582,418666.19999981,2023-02-10T19:27:18Z,418682.207,NULL,Zuwachs,nyongeza,s,matilaba,udhibiti,hudhurio,NA,qt,1,3,NA,NA,NA,NA,NA,NA,NA,NA,NA,NA,NA,NA,NA,NA,NA,NA,NA,NA,NA
d7167,"""Falsch""-Screen",canvas.Screen,3_0_3_0_0_1_2,NA,NA,skipped,NA,418669,NA,NA,418665.582,418669.19999981,2023-02-10T19:27:18Z,418682.207,NULL,Zuwachs,nyongeza,s,matilaba,udhibiti,hudhurio,NA,qt,NA,3,NA,NA,NA,NA,NA,NA,NA,NA,NA,NA,NA,NA,NA,NA,NA,NA,NA,NA,NA
d7167,shallow,flow.Sequence,3_0_3_0_0_1,NA,NA,completion,8115.454,410539.5,410533.501,410550.128,418665.582,418669.30000019,2023-02-10T19:27:18Z,418682.207,NULL,Zuwachs,nyongeza,s,matilaba,udhibiti,hudhurio,NA,qt,NA,3,NA,NA,NA,NA,NA,NA,NA,NA,NA,NA,NA,NA,NA,NA,NA,NA,NA,NA,NA
d7167,task,flow.Sequence,3_0_3_0_0,NA,NA,completion,8115.454,410539.4000001,410533.501,410550.128,418665.582,418669.5,2023-02-10T19:27:18Z,418682.207,NULL,Zuwachs,nyongeza,s,matilaba,udhibiti,hudhurio,NA,qt,NA,3,NA,NA,NA,NA,NA,NA,NA,NA,NA,NA,NA,NA,NA,NA,NA,NA,NA,NA,NA
d7167,Deep Question,html.Page,3_0_3_0_1_0_0,NA,NA,form submission,4690.0930001907,418669.5999999,418665.582,418682.207,423372.30000019,423372.5999999,2023-02-10T19:27:23Z,423381.497,NULL,Schüler,mwanafunzi,d,NA,NA,NA,a,NA,NA,3,NA,NA,NA,NA,NA,NA,NA,NA,NA,NA,NA,NA,NA,NA,NA,NA,NA,NA,NA
d7167,"""Richtig""-Screen",canvas.Screen,3_0_3_0_1_0_1,NA,NA,skipped,NA,423374.4000001,NA,NA,423372.30000019,423374.5999999,2023-02-10T19:27:23Z,423381.497,NULL,Schüler,mwanafunzi,d,NA,NA,NA,NA,qt,NA,3,NA,NA,NA,NA,NA,NA,NA,NA,NA,NA,NA,NA,NA,NA,NA,NA,NA,NA,NA
d7167,"""Falsch""-Screen",canvas.Screen,3_0_3_0_1_0_2,NA,NA,timeout,4999.317,423375.30000019,423364.927,423381.497,428364.157,428364.80000019,2023-02-10T19:27:28Z,428380.814,NULL,Schüler,mwanafunzi,d,NA,NA,NA,NA,qt,0,3,NA,NA,NA,NA,NA,NA,NA,NA,NA,NA,NA,NA,NA,NA,NA,NA,NA,NA,NA
d7167,deep,flow.Sequence,3_0_3_0_1_0,NA,NA,completion,9681.95,418669.5,418665.582,418682.207,428364.157,428365.0999999,2023-02-10T19:27:28Z,428380.814,NULL,Schüler,mwanafunzi,d,NA,NA,NA,NA,qt,NA,3,NA,NA,NA,NA,NA,NA,NA,NA,NA,NA,NA,NA,NA,NA,NA,NA,NA,NA,NA
d7167,shallow,flow.Sequence,3_0_3_0_1_1,NA,NA,skipped,NA,428365.0999999,NA,NA,428364.157,428365.30000019,2023-02-10T19:27:28Z,428380.814,NULL,Schüler,mwanafunzi,d,NA,NA,NA,NA,qt,NA,3,NA,NA,NA,NA,NA,NA,NA,NA,NA,NA,NA,NA,NA,NA,NA,NA,NA,NA,NA
d7167,task,flow.Sequence,3_0_3_0_1,NA,NA,completion,9681.95,418669.5,418665.582,418682.207,428364.157,428365.4000001,2023-02-10T19:27:28Z,428380.814,NULL,Schüler,mwanafunzi,d,NA,NA,NA,NA,qt,NA,3,NA,NA,NA,NA,NA,NA,NA,NA,NA,NA,NA,NA,NA,NA,NA,NA,NA,NA,NA
d7167,Deep Question,html.Page,3_0_3_0_2_0_0,NA,NA,form submission,4972.0860000954,428365.5,428364.157,428380.814,433352.9000001,433353.0999999,2023-02-10T19:27:33Z,433363.511,NULL,Konkurrent,mshindani,d,NA,NA,NA,mshindani,NA,NA,3,NA,NA,NA,NA,NA,NA,NA,NA,NA,NA,NA,NA,NA,NA,NA,NA,NA,NA,NA
d7167,"""Richtig""-Screen",canvas.Screen,3_0_3_0_2_0_1,NA,NA,timeout,4999.193,433355.19999981,433346.816,433363.511,438346.045,438346.80000019,2023-02-10T19:27:38Z,438362.704,NULL,Konkurrent,mshindani,d,NA,NA,NA,NA,qt,1,3,NA,NA,NA,NA,NA,NA,NA,NA,NA,NA,NA,NA,NA,NA,NA,NA,NA,NA,NA
d7167,"""Falsch""-Screen",canvas.Screen,3_0_3_0_2_0_2,NA,NA,skipped,NA,438349.30000019,NA,NA,438346.045,438349.5,2023-02-10T19:27:38Z,438362.704,NULL,Konkurrent,mshindani,d,NA,NA,NA,NA,qt,NA,3,NA,NA,NA,NA,NA,NA,NA,NA,NA,NA,NA,NA,NA,NA,NA,NA,NA,NA,NA
d7167,deep,flow.Sequence,3_0_3_0_2_0,NA,NA,completion,9965.231,428365.5,428364.157,428380.814,438346.045,438349.5999999,2023-02-10T19:27:38Z,438362.704,NULL,Konkurrent,mshindani,d,NA,NA,NA,NA,qt,NA,3,NA,NA,NA,NA,NA,NA,NA,NA,NA,NA,NA,NA,NA,NA,NA,NA,NA,NA,NA
d7167,shallow,flow.Sequence,3_0_3_0_2_1,NA,NA,skipped,NA,438349.80000019,NA,NA,438346.045,438349.80000019,2023-02-10T19:27:38Z,438362.704,NULL,Konkurrent,mshindani,d,NA,NA,NA,NA,qt,NA,3,NA,NA,NA,NA,NA,NA,NA,NA,NA,NA,NA,NA,NA,NA,NA,NA,NA,NA,NA
d7167,task,flow.Sequence,3_0_3_0_2,NA,NA,completion,9965.231,428365.4000001,428364.157,428380.814,438346.045,438349.9000001,2023-02-10T19:27:38Z,438362.704,NULL,Konkurrent,mshindani,d,NA,NA,NA,NA,qt,NA,3,NA,NA,NA,NA,NA,NA,NA,NA,NA,NA,NA,NA,NA,NA,NA,NA,NA,NA,NA
d7167,deep,flow.Sequence,3_0_3_0_3_0,NA,NA,skipped,NA,438349.9000001,NA,NA,438346.045,438350,2023-02-10T19:27:38Z,438362.704,NULL,Fenster,dirisha,s,walakini,tasawari,maarifa,NA,qt,NA,3,NA,NA,NA,NA,NA,NA,NA,NA,NA,NA,NA,NA,NA,NA,NA,NA,NA,NA,NA
d7167,Shallow Question,html.Page,3_0_3_0_3_1_0,NA,NA,form submission,4687.6960000953,438350.0999999,438346.045,438362.704,443050.4000001,443050.5999999,2023-02-10T19:27:43Z,443061.984,NULL,Fenster,dirisha,s,walakini,tasawari,maarifa,dirisha,NA,NA,3,NA,NA,NA,NA,NA,NA,NA,NA,NA,NA,NA,NA,NA,NA,NA,NA,NA,NA,NA
d7167,"""Richtig""-Screen",canvas.Screen,3_0_3_0_3_1_1,NA,NA,timeout,4999.169,443052.5,443045.474,443061.984,448044.484,448045.19999981,2023-02-10T19:27:48Z,448061.153,NULL,Fenster,dirisha,s,walakini,tasawari,maarifa,NA,qt,1,3,NA,NA,NA,NA,NA,NA,NA,NA,NA,NA,NA,NA,NA,NA,NA,NA,NA,NA,NA
d7167,"""Falsch""-Screen",canvas.Screen,3_0_3_0_3_1_2,NA,NA,skipped,NA,448049,NA,NA,448044.484,448049.30000019,2023-02-10T19:27:48Z,448061.153,NULL,Fenster,dirisha,s,walakini,tasawari,maarifa,NA,qt,NA,3,NA,NA,NA,NA,NA,NA,NA,NA,NA,NA,NA,NA,NA,NA,NA,NA,NA,NA,NA
d7167,shallow,flow.Sequence,3_0_3_0_3_1,NA,NA,completion,9681.78,438350.0999999,438346.045,438362.704,448044.484,448049.5999999,2023-02-10T19:27:48Z,448061.153,NULL,Fenster,dirisha,s,walakini,tasawari,maarifa,NA,qt,NA,3,NA,NA,NA,NA,NA,NA,NA,NA,NA,NA,NA,NA,NA,NA,NA,NA,NA,NA,NA
d7167,task,flow.Sequence,3_0_3_0_3,NA,NA,completion,9681.78,438349.9000001,438346.045,438362.704,448044.484,448049.9000001,2023-02-10T19:27:48Z,448061.153,NULL,Fenster,dirisha,s,walakini,tasawari,maarifa,NA,qt,NA,3,NA,NA,NA,NA,NA,NA,NA,NA,NA,NA,NA,NA,NA,NA,NA,NA,NA,NA,NA
d7167,Deep Question,html.Page,3_0_3_0_4_0_0,NA,NA,form submission,20323.147000191,448050.0999999,448044.484,448061.153,468384.30000019,468384.5,2023-02-10T19:28:08Z,468391.644,NULL,Vorsorge,tahadhari,d,NA,NA,NA,msanaghi,NA,NA,3,NA,NA,NA,NA,NA,NA,NA,NA,NA,NA,NA,NA,NA,NA,NA,NA,NA,NA,NA
d7167,"""Richtig""-Screen",canvas.Screen,3_0_3_0_4_0_1,NA,NA,skipped,NA,468386.69999981,NA,NA,468384.30000019,468386.80000019,2023-02-10T19:28:08Z,468391.644,NULL,Vorsorge,tahadhari,d,NA,NA,NA,NA,qt,NA,3,NA,NA,NA,NA,NA,NA,NA,NA,NA,NA,NA,NA,NA,NA,NA,NA,NA,NA,NA
d7167,"""Falsch""-Screen",canvas.Screen,3_0_3_0_4_0_2,NA,NA,timeout,4999.051,468387.5999999,468374.827,468391.644,473374.061,473374.5999999,2023-02-10T19:28:13Z,473390.695,NULL,Vorsorge,tahadhari,d,NA,NA,NA,NA,qt,0,3,NA,NA,NA,NA,NA,NA,NA,NA,NA,NA,NA,NA,NA,NA,NA,NA,NA,NA,NA
d7167,deep,flow.Sequence,3_0_3_0_4_0,NA,NA,completion,25312.908,448050.0999999,448044.484,448061.153,473374.061,473374.80000019,2023-02-10T19:28:13Z,473390.695,NULL,Vorsorge,tahadhari,d,NA,NA,NA,NA,qt,NA,3,NA,NA,NA,NA,NA,NA,NA,NA,NA,NA,NA,NA,NA,NA,NA,NA,NA,NA,NA
d7167,shallow,flow.Sequence,3_0_3_0_4_1,NA,NA,skipped,NA,473374.9000001,NA,NA,473374.061,473375,2023-02-10T19:28:13Z,473390.695,NULL,Vorsorge,tahadhari,d,NA,NA,NA,NA,qt,NA,3,NA,NA,NA,NA,NA,NA,NA,NA,NA,NA,NA,NA,NA,NA,NA,NA,NA,NA,NA
d7167,task,flow.Sequence,3_0_3_0_4,NA,NA,completion,25312.908,448049.9000001,448044.484,448061.153,473374.061,473375.19999981,2023-02-10T19:28:13Z,473390.695,NULL,Vorsorge,tahadhari,d,NA,NA,NA,NA,qt,NA,3,NA,NA,NA,NA,NA,NA,NA,NA,NA,NA,NA,NA,NA,NA,NA,NA,NA,NA,NA
d7167,deep,flow.Sequence,3_0_3_0_5_0,NA,NA,skipped,NA,473375.30000019,NA,NA,473374.061,473375.4000001,2023-02-10T19:28:13Z,473390.695,NULL,Spionage,upelelezi,s,maslahi,utokazo,magangao,NA,qt,NA,3,NA,NA,NA,NA,NA,NA,NA,NA,NA,NA,NA,NA,NA,NA,NA,NA,NA,NA,NA
d7167,Shallow Question,html.Page,3_0_3_0_5_1_0,NA,NA,form submission,5480.805,473375.5,473374.061,473390.695,478871.5,478871.69999981,2023-02-10T19:28:18Z,478873.201,NULL,Spionage,upelelezi,s,maslahi,utokazo,magangao,upelelezi,NA,NA,3,NA,NA,NA,NA,NA,NA,NA,NA,NA,NA,NA,NA,NA,NA,NA,NA,NA,NA,NA
d7167,"""Richtig""-Screen",canvas.Screen,3_0_3_0_5_1_1,NA,NA,timeout,4999.285,478874.4000001,478856.616,478873.201,483855.865,483856.5,2023-02-10T19:28:23Z,483872.486,NULL,Spionage,upelelezi,s,maslahi,utokazo,magangao,NA,qt,1,3,NA,NA,NA,NA,NA,NA,NA,NA,NA,NA,NA,NA,NA,NA,NA,NA,NA,NA,NA
d7167,"""Falsch""-Screen",canvas.Screen,3_0_3_0_5_1_2,NA,NA,skipped,NA,483859.0999999,NA,NA,483855.865,483859.30000019,2023-02-10T19:28:23Z,483872.486,NULL,Spionage,upelelezi,s,maslahi,utokazo,magangao,NA,qt,NA,3,NA,NA,NA,NA,NA,NA,NA,NA,NA,NA,NA,NA,NA,NA,NA,NA,NA,NA,NA
d7167,shallow,flow.Sequence,3_0_3_0_5_1,NA,NA,completion,10465.17,473375.4000001,473374.061,473390.695,483855.865,483859.5,2023-02-10T19:28:23Z,483872.486,NULL,Spionage,upelelezi,s,maslahi,utokazo,magangao,NA,qt,NA,3,NA,NA,NA,NA,NA,NA,NA,NA,NA,NA,NA,NA,NA,NA,NA,NA,NA,NA,NA
d7167,task,flow.Sequence,3_0_3_0_5,NA,NA,completion,10465.17,473375.30000019,473374.061,473390.695,483855.865,483859.5999999,2023-02-10T19:28:23Z,483872.486,NULL,Spionage,upelelezi,s,maslahi,utokazo,magangao,NA,qt,NA,3,NA,NA,NA,NA,NA,NA,NA,NA,NA,NA,NA,NA,NA,NA,NA,NA,NA,NA,NA
d7167,deep,flow.Sequence,3_0_3_0_6_0,NA,NA,skipped,NA,483859.5999999,NA,NA,483855.865,483859.69999981,2023-02-10T19:28:23Z,483872.486,NULL,Symbol,kielezo,s,kinyume,nderemo,utayari,NA,qt,NA,3,NA,NA,NA,NA,NA,NA,NA,NA,NA,NA,NA,NA,NA,NA,NA,NA,NA,NA,NA
d7167,Shallow Question,html.Page,3_0_3_0_6_1_0,NA,NA,form submission,11419.314000191,483859.80000019,483855.865,483872.486,495291.80000019,495292.0999999,2023-02-10T19:28:35Z,495304.25,NULL,Symbol,kielezo,s,kinyume,nderemo,utayari,utayari,NA,NA,3,NA,NA,NA,NA,NA,NA,NA,NA,NA,NA,NA,NA,NA,NA,NA,NA,NA,NA,NA
d7167,"""Richtig""-Screen",canvas.Screen,3_0_3_0_6_1_1,NA,NA,skipped,NA,495294.0999999,NA,NA,495291.80000019,495294.19999981,2023-02-10T19:28:35Z,495304.25,NULL,Symbol,kielezo,s,kinyume,nderemo,utayari,NA,qt,NA,3,NA,NA,NA,NA,NA,NA,NA,NA,NA,NA,NA,NA,NA,NA,NA,NA,NA,NA,NA
d7167,"""Falsch""-Screen",canvas.Screen,3_0_3_0_6_1_2,NA,NA,timeout,4999.195,495295.0999999,495287.584,495304.25,500286.813,500287.5,2023-02-10T19:28:40Z,500303.445,NULL,Symbol,kielezo,s,kinyume,nderemo,utayari,NA,qt,0,3,NA,NA,NA,NA,NA,NA,NA,NA,NA,NA,NA,NA,NA,NA,NA,NA,NA,NA,NA
d7167,shallow,flow.Sequence,3_0_3_0_6_1,NA,NA,completion,16414.327,483859.80000019,483855.865,483872.486,500286.813,500287.80000019,2023-02-10T19:28:40Z,500303.445,NULL,Symbol,kielezo,s,kinyume,nderemo,utayari,NA,qt,NA,3,NA,NA,NA,NA,NA,NA,NA,NA,NA,NA,NA,NA,NA,NA,NA,NA,NA,NA,NA
d7167,task,flow.Sequence,3_0_3_0_6,NA,NA,completion,16414.327,483859.5999999,483855.865,483872.486,500286.813,500287.9000001,2023-02-10T19:28:40Z,500303.445,NULL,Symbol,kielezo,s,kinyume,nderemo,utayari,NA,qt,NA,3,NA,NA,NA,NA,NA,NA,NA,NA,NA,NA,NA,NA,NA,NA,NA,NA,NA,NA,NA
d7167,Deep Question,html.Page,3_0_3_0_7_0_0,NA,NA,form submission,5270.9550000954,500288.0999999,500286.813,500303.445,505574.4000001,505574.5999999,2023-02-10T19:28:45Z,505585.956,NULL,Tester,wanaojaribu,d,NA,NA,NA,mwansahi,NA,NA,3,NA,NA,NA,NA,NA,NA,NA,NA,NA,NA,NA,NA,NA,NA,NA,NA,NA,NA,NA
d7167,"""Richtig""-Screen",canvas.Screen,3_0_3_0_7_0_1,NA,NA,skipped,NA,505577,NA,NA,505574.4000001,505577.0999999,2023-02-10T19:28:45Z,505585.956,NULL,Tester,wanaojaribu,d,NA,NA,NA,NA,qt,NA,3,NA,NA,NA,NA,NA,NA,NA,NA,NA,NA,NA,NA,NA,NA,NA,NA,NA,NA,NA
d7167,"""Falsch""-Screen",canvas.Screen,3_0_3_0_7_0_2,NA,NA,timeout,4999.291,505578,505569.36,505585.956,510568.548,510569.0999999,2023-02-10T19:28:50Z,510585.247,NULL,Tester,wanaojaribu,d,NA,NA,NA,NA,qt,0,3,NA,NA,NA,NA,NA,NA,NA,NA,NA,NA,NA,NA,NA,NA,NA,NA,NA,NA,NA
d7167,deep,flow.Sequence,3_0_3_0_7_0,NA,NA,completion,10265.103,500288.0999999,500286.813,500303.445,510568.548,510569.30000019,2023-02-10T19:28:50Z,510585.247,NULL,Tester,wanaojaribu,d,NA,NA,NA,NA,qt,NA,3,NA,NA,NA,NA,NA,NA,NA,NA,NA,NA,NA,NA,NA,NA,NA,NA,NA,NA,NA
d7167,shallow,flow.Sequence,3_0_3_0_7_1,NA,NA,skipped,NA,510569.4000001,NA,NA,510568.548,510569.5999999,2023-02-10T19:28:50Z,510585.247,NULL,Tester,wanaojaribu,d,NA,NA,NA,NA,qt,NA,3,NA,NA,NA,NA,NA,NA,NA,NA,NA,NA,NA,NA,NA,NA,NA,NA,NA,NA,NA
d7167,task,flow.Sequence,3_0_3_0_7,NA,NA,completion,10265.103,500288.0999999,500286.813,500303.445,510568.548,510569.69999981,2023-02-10T19:28:50Z,510585.247,NULL,Tester,wanaojaribu,d,NA,NA,NA,NA,qt,NA,3,NA,NA,NA,NA,NA,NA,NA,NA,NA,NA,NA,NA,NA,NA,NA,NA,NA,NA,NA
d7167,block,flow.Loop,3_0_3_0,NA,NA,completion,100018.42,410539.30000019,410533.501,410550.128,510568.548,510569.80000019,2023-02-10T19:28:50Z,510585.247,NULL,NA,NA,NA,NA,NA,NA,NA,qt,NA,3,NA,NA,NA,NA,NA,NA,NA,NA,NA,NA,NA,NA,NA,NA,NA,NA,NA,NA,NA
d7167,weiter,canvas.Screen,3_0_3_1,sdf,keypress(Space),response,617.35299990466,510569.9000001,510568.548,510585.247,511202.5999999,511204.80000019,2023-02-10T19:28:51Z,511301.741,NULL,NA,NA,NA,NA,NA,NA,NA,qt,NA,3,NA,NA,NA,NA,NA,NA,NA,NA,NA,NA,NA,NA,NA,NA,NA,NA,NA,NA,NA
d7167,check continue,flow.Sequence,3_0_3,NA,NA,completion,100652.4719999,410539.19999981,410533.501,410550.128,511202.5999999,511204.9000001,2023-02-10T19:28:51Z,511301.741,NULL,NA,NA,NA,NA,NA,NA,NA,qt,NA,3,NA,NA,NA,NA,NA,NA,NA,NA,NA,NA,NA,NA,NA,NA,NA,NA,NA,NA,NA
d7167,deep,flow.Sequence,3_0_4_0_0_0,NA,NA,skipped,NA,511295.5999999,NA,NA,511202.5999999,511295.80000019,2023-02-10T19:28:51Z,511301.741,NULL,Fenster,dirisha,s,walakini,tasawari,maarifa,NA,sd,NA,4,NA,NA,NA,NA,NA,NA,NA,NA,NA,NA,NA,NA,NA,NA,NA,NA,NA,NA,NA
d7167,Shallow Question,html.Page,3_0_4_0_0_1_0,NA,NA,form submission,3249.259,511296,511285.198,511301.741,514551,514551.4000001,2023-02-10T19:28:54Z,514551.257,NULL,Fenster,dirisha,s,walakini,tasawari,maarifa,dirisha,NA,NA,4,NA,NA,NA,NA,NA,NA,NA,NA,NA,NA,NA,NA,NA,NA,NA,NA,NA,NA,NA
d7167,"""Richtig""-Screen",canvas.Screen,3_0_4_0_0_1_1,NA,NA,timeout,4999.348,514553.0999999,514534.744,514551.257,519533.959,519534.9000001,2023-02-10T19:28:59Z,519550.605,NULL,Fenster,dirisha,s,walakini,tasawari,maarifa,NA,sd,1,4,NA,NA,NA,NA,NA,NA,NA,NA,NA,NA,NA,NA,NA,NA,NA,NA,NA,NA,NA
d7167,"""Falsch""-Screen",canvas.Screen,3_0_4_0_0_1_2,NA,NA,skipped,NA,519537.5,NA,NA,519533.959,519537.5999999,2023-02-10T19:28:59Z,519550.605,NULL,Fenster,dirisha,s,walakini,tasawari,maarifa,NA,sd,NA,4,NA,NA,NA,NA,NA,NA,NA,NA,NA,NA,NA,NA,NA,NA,NA,NA,NA,NA,NA
d7167,shallow,flow.Sequence,3_0_4_0_0_1,NA,NA,completion,8232.218,511296,511285.198,511301.741,519533.959,519537.80000019,2023-02-10T19:28:59Z,519550.605,NULL,Fenster,dirisha,s,walakini,tasawari,maarifa,NA,sd,NA,4,NA,NA,NA,NA,NA,NA,NA,NA,NA,NA,NA,NA,NA,NA,NA,NA,NA,NA,NA
d7167,task,flow.Sequence,3_0_4_0_0,NA,NA,completion,8232.218,511295.5,511285.198,511301.741,519533.959,519537.80000019,2023-02-10T19:28:59Z,519550.605,NULL,Fenster,dirisha,s,walakini,tasawari,maarifa,NA,sd,NA,4,NA,NA,NA,NA,NA,NA,NA,NA,NA,NA,NA,NA,NA,NA,NA,NA,NA,NA,NA
d7167,deep,flow.Sequence,3_0_4_0_1_0,NA,NA,skipped,NA,519538,NA,NA,519533.959,519538,2023-02-10T19:28:59Z,519550.605,NULL,Spionage,upelelezi,s,maslahi,utokazo,magangao,NA,sd,NA,4,NA,NA,NA,NA,NA,NA,NA,NA,NA,NA,NA,NA,NA,NA,NA,NA,NA,NA,NA
d7167,Shallow Question,html.Page,3_0_4_0_1_1_0,NA,NA,form submission,4482.4949999047,519538.0999999,519533.959,519550.605,524033.0999999,524033.30000019,2023-02-10T19:29:03Z,524056.959,NULL,Spionage,upelelezi,s,maslahi,utokazo,magangao,upelelezi,NA,NA,4,NA,NA,NA,NA,NA,NA,NA,NA,NA,NA,NA,NA,NA,NA,NA,NA,NA,NA,NA
d7167,"""Richtig""-Screen",canvas.Screen,3_0_4_0_1_1_1,NA,NA,timeout,4992.121,524035.4000001,524016.67,524056.959,529032.496,529033.0999999,2023-02-10T19:29:08Z,529049.08,NULL,Spionage,upelelezi,s,maslahi,utokazo,magangao,NA,sd,1,4,NA,NA,NA,NA,NA,NA,NA,NA,NA,NA,NA,NA,NA,NA,NA,NA,NA,NA,NA
d7167,"""Falsch""-Screen",canvas.Screen,3_0_4_0_1_1_2,NA,NA,skipped,NA,529035.5,NA,NA,529032.496,529035.5999999,2023-02-10T19:29:08Z,529049.08,NULL,Spionage,upelelezi,s,maslahi,utokazo,magangao,NA,sd,NA,4,NA,NA,NA,NA,NA,NA,NA,NA,NA,NA,NA,NA,NA,NA,NA,NA,NA,NA,NA
d7167,shallow,flow.Sequence,3_0_4_0_1_1,NA,NA,completion,9481.8910000001,519538.0999999,519533.959,519550.605,529032.496,529035.69999981,2023-02-10T19:29:08Z,529049.08,NULL,Spionage,upelelezi,s,maslahi,utokazo,magangao,NA,sd,NA,4,NA,NA,NA,NA,NA,NA,NA,NA,NA,NA,NA,NA,NA,NA,NA,NA,NA,NA,NA
d7167,task,flow.Sequence,3_0_4_0_1,NA,NA,completion,9481.8910000001,519538,519533.959,519550.605,529032.496,529035.9000001,2023-02-10T19:29:08Z,529049.08,NULL,Spionage,upelelezi,s,maslahi,utokazo,magangao,NA,sd,NA,4,NA,NA,NA,NA,NA,NA,NA,NA,NA,NA,NA,NA,NA,NA,NA,NA,NA,NA,NA
d7167,Deep Question,html.Page,3_0_4_0_2_0_0,NA,NA,form submission,6362.2200001908,529035.9000001,529032.496,529049.08,535411.30000019,535411.5999999,2023-02-10T19:29:15Z,535414.824,NULL,Tester,wanaojaribu,d,NA,NA,NA,a,NA,NA,4,NA,NA,NA,NA,NA,NA,NA,NA,NA,NA,NA,NA,NA,NA,NA,NA,NA,NA,NA
d7167,"""Richtig""-Screen",canvas.Screen,3_0_4_0_2_0_1,NA,NA,skipped,NA,535413.69999981,NA,NA,535411.30000019,535413.9000001,2023-02-10T19:29:15Z,535414.824,NULL,Tester,wanaojaribu,d,NA,NA,NA,NA,sd,NA,4,NA,NA,NA,NA,NA,NA,NA,NA,NA,NA,NA,NA,NA,NA,NA,NA,NA,NA,NA
d7167,"""Falsch""-Screen",canvas.Screen,3_0_4_0_2_0_2,NA,NA,timeout,4999.3149999999,535414.69999981,535398.263,535414.824,540397.495,540398.0999999,2023-02-10T19:29:20Z,540414.139,NULL,Tester,wanaojaribu,d,NA,NA,NA,NA,sd,0,4,NA,NA,NA,NA,NA,NA,NA,NA,NA,NA,NA,NA,NA,NA,NA,NA,NA,NA,NA
d7167,deep,flow.Sequence,3_0_4_0_2_0,NA,NA,completion,11348.415,529035.9000001,529032.496,529049.08,540397.495,540398.30000019,2023-02-10T19:29:20Z,540414.139,NULL,Tester,wanaojaribu,d,NA,NA,NA,NA,sd,NA,4,NA,NA,NA,NA,NA,NA,NA,NA,NA,NA,NA,NA,NA,NA,NA,NA,NA,NA,NA
d7167,shallow,flow.Sequence,3_0_4_0_2_1,NA,NA,skipped,NA,540398.4000001,NA,NA,540397.495,540398.5,2023-02-10T19:29:20Z,540414.139,NULL,Tester,wanaojaribu,d,NA,NA,NA,NA,sd,NA,4,NA,NA,NA,NA,NA,NA,NA,NA,NA,NA,NA,NA,NA,NA,NA,NA,NA,NA,NA
d7167,task,flow.Sequence,3_0_4_0_2,NA,NA,completion,11348.415,529035.9000001,529032.496,529049.08,540397.495,540398.69999981,2023-02-10T19:29:20Z,540414.139,NULL,Tester,wanaojaribu,d,NA,NA,NA,NA,sd,NA,4,NA,NA,NA,NA,NA,NA,NA,NA,NA,NA,NA,NA,NA,NA,NA,NA,NA,NA,NA
d7167,deep,flow.Sequence,3_0_4_0_3_0,NA,NA,skipped,NA,540398.80000019,NA,NA,540397.495,540398.9000001,2023-02-10T19:29:20Z,540414.139,NULL,Zuwachs,nyongeza,s,matilaba,udhibiti,hudhurio,NA,sd,NA,4,NA,NA,NA,NA,NA,NA,NA,NA,NA,NA,NA,NA,NA,NA,NA,NA,NA,NA,NA
d7167,Shallow Question,html.Page,3_0_4_0_3_1_0,NA,NA,form submission,2693.361,540399,540397.495,540414.139,543107.5,543107.80000019,2023-02-10T19:29:23Z,543113.675,NULL,Zuwachs,nyongeza,s,matilaba,udhibiti,hudhurio,nyongeza,NA,NA,4,NA,NA,NA,NA,NA,NA,NA,NA,NA,NA,NA,NA,NA,NA,NA,NA,NA,NA,NA
d7167,"""Richtig""-Screen",canvas.Screen,3_0_4_0_3_1_1,NA,NA,timeout,4999.33,543110.0999999,543097.201,543113.675,548096.331,548097,2023-02-10T19:29:28Z,548113.005,NULL,Zuwachs,nyongeza,s,matilaba,udhibiti,hudhurio,NA,sd,1,4,NA,NA,NA,NA,NA,NA,NA,NA,NA,NA,NA,NA,NA,NA,NA,NA,NA,NA,NA
d7167,"""Falsch""-Screen",canvas.Screen,3_0_4_0_3_1_2,NA,NA,skipped,NA,548099.5999999,NA,NA,548096.331,548099.80000019,2023-02-10T19:29:28Z,548113.005,NULL,Zuwachs,nyongeza,s,matilaba,udhibiti,hudhurio,NA,sd,NA,4,NA,NA,NA,NA,NA,NA,NA,NA,NA,NA,NA,NA,NA,NA,NA,NA,NA,NA,NA
d7167,shallow,flow.Sequence,3_0_4_0_3_1,NA,NA,completion,7682.192,540399,540397.495,540414.139,548096.331,548099.80000019,2023-02-10T19:29:28Z,548113.005,NULL,Zuwachs,nyongeza,s,matilaba,udhibiti,hudhurio,NA,sd,NA,4,NA,NA,NA,NA,NA,NA,NA,NA,NA,NA,NA,NA,NA,NA,NA,NA,NA,NA,NA
d7167,task,flow.Sequence,3_0_4_0_3,NA,NA,completion,7682.192,540398.69999981,540397.495,540414.139,548096.331,548099.9000001,2023-02-10T19:29:28Z,548113.005,NULL,Zuwachs,nyongeza,s,matilaba,udhibiti,hudhurio,NA,sd,NA,4,NA,NA,NA,NA,NA,NA,NA,NA,NA,NA,NA,NA,NA,NA,NA,NA,NA,NA,NA
d7167,Deep Question,html.Page,3_0_4_0_4_0_0,NA,NA,form submission,17236.995,548100.0999999,548096.331,548113.005,565350,565350.19999981,2023-02-10T19:29:45Z,565360.378,NULL,Konkurrent,mshindani,d,NA,NA,NA,mshindai,NA,NA,4,NA,NA,NA,NA,NA,NA,NA,NA,NA,NA,NA,NA,NA,NA,NA,NA,NA,NA,NA
d7167,"""Richtig""-Screen",canvas.Screen,3_0_4_0_4_0_1,NA,NA,skipped,NA,565352.5,NA,NA,565350,565352.69999981,2023-02-10T19:29:45Z,565360.378,NULL,Konkurrent,mshindani,d,NA,NA,NA,NA,sd,NA,4,NA,NA,NA,NA,NA,NA,NA,NA,NA,NA,NA,NA,NA,NA,NA,NA,NA,NA,NA
d7167,"""Falsch""-Screen",canvas.Screen,3_0_4_0_4_0_2,NA,NA,timeout,4999.346,565353.5,565343.846,565360.378,570343.047,570343.69999981,2023-02-10T19:29:50Z,570359.724,NULL,Konkurrent,mshindani,d,NA,NA,NA,NA,sd,0,4,NA,NA,NA,NA,NA,NA,NA,NA,NA,NA,NA,NA,NA,NA,NA,NA,NA,NA,NA
d7167,deep,flow.Sequence,3_0_4_0_4_0,NA,NA,completion,22230.042,548100.0999999,548096.331,548113.005,570343.047,570344,2023-02-10T19:29:50Z,570359.724,NULL,Konkurrent,mshindani,d,NA,NA,NA,NA,sd,NA,4,NA,NA,NA,NA,NA,NA,NA,NA,NA,NA,NA,NA,NA,NA,NA,NA,NA,NA,NA
d7167,shallow,flow.Sequence,3_0_4_0_4_1,NA,NA,skipped,NA,570344.0999999,NA,NA,570343.047,570344.19999981,2023-02-10T19:29:50Z,570359.724,NULL,Konkurrent,mshindani,d,NA,NA,NA,NA,sd,NA,4,NA,NA,NA,NA,NA,NA,NA,NA,NA,NA,NA,NA,NA,NA,NA,NA,NA,NA,NA
d7167,task,flow.Sequence,3_0_4_0_4,NA,NA,completion,22230.042,548100,548096.331,548113.005,570343.047,570344.30000019,2023-02-10T19:29:50Z,570359.724,NULL,Konkurrent,mshindani,d,NA,NA,NA,NA,sd,NA,4,NA,NA,NA,NA,NA,NA,NA,NA,NA,NA,NA,NA,NA,NA,NA,NA,NA,NA,NA
d7167,Deep Question,html.Page,3_0_4_0_5_0_0,NA,NA,form submission,22923.276,570344.5,570343.047,570359.724,593283,593283.30000019,2023-02-10T19:30:13Z,593289.582,NULL,Schüler,mwanafunzi,d,NA,NA,NA,manegofouzi,NA,NA,4,NA,NA,NA,NA,NA,NA,NA,NA,NA,NA,NA,NA,NA,NA,NA,NA,NA,NA,NA
d7167,"""Richtig""-Screen",canvas.Screen,3_0_4_0_5_0_1,NA,NA,skipped,NA,593285.4000001,NA,NA,593283,593285.5999999,2023-02-10T19:30:13Z,593289.582,NULL,Schüler,mwanafunzi,d,NA,NA,NA,NA,sd,NA,4,NA,NA,NA,NA,NA,NA,NA,NA,NA,NA,NA,NA,NA,NA,NA,NA,NA,NA,NA
d7167,"""Falsch""-Screen",canvas.Screen,3_0_4_0_5_0_2,NA,NA,timeout,4999.3319999999,593286.5,593273.002,593289.582,598272.251,598272.9000001,2023-02-10T19:30:18Z,598288.914,NULL,Schüler,mwanafunzi,d,NA,NA,NA,NA,sd,0,4,NA,NA,NA,NA,NA,NA,NA,NA,NA,NA,NA,NA,NA,NA,NA,NA,NA,NA,NA
d7167,deep,flow.Sequence,3_0_4_0_5_0,NA,NA,completion,27912.527,570344.5,570343.047,570359.724,598272.251,598273.0999999,2023-02-10T19:30:18Z,598288.914,NULL,Schüler,mwanafunzi,d,NA,NA,NA,NA,sd,NA,4,NA,NA,NA,NA,NA,NA,NA,NA,NA,NA,NA,NA,NA,NA,NA,NA,NA,NA,NA
d7167,shallow,flow.Sequence,3_0_4_0_5_1,NA,NA,skipped,NA,598273.19999981,NA,NA,598272.251,598273.30000019,2023-02-10T19:30:18Z,598288.914,NULL,Schüler,mwanafunzi,d,NA,NA,NA,NA,sd,NA,4,NA,NA,NA,NA,NA,NA,NA,NA,NA,NA,NA,NA,NA,NA,NA,NA,NA,NA,NA
d7167,task,flow.Sequence,3_0_4_0_5,NA,NA,completion,27912.527,570344.4000001,570343.047,570359.724,598272.251,598273.4000001,2023-02-10T19:30:18Z,598288.914,NULL,Schüler,mwanafunzi,d,NA,NA,NA,NA,sd,NA,4,NA,NA,NA,NA,NA,NA,NA,NA,NA,NA,NA,NA,NA,NA,NA,NA,NA,NA,NA
d7167,deep,flow.Sequence,3_0_4_0_6_0,NA,NA,skipped,NA,598273.5,NA,NA,598272.251,598273.5999999,2023-02-10T19:30:18Z,598288.914,NULL,Symbol,kielezo,s,kinyume,nderemo,utayari,NA,sd,NA,4,NA,NA,NA,NA,NA,NA,NA,NA,NA,NA,NA,NA,NA,NA,NA,NA,NA,NA,NA
d7167,Shallow Question,html.Page,3_0_4_0_6_1_0,NA,NA,form submission,3786.8860001907,598273.69999981,598272.251,598288.914,602075.80000019,602076.0999999,2023-02-10T19:30:22Z,602088.335,NULL,Symbol,kielezo,s,kinyume,nderemo,utayari,kielezo,NA,NA,4,NA,NA,NA,NA,NA,NA,NA,NA,NA,NA,NA,NA,NA,NA,NA,NA,NA,NA,NA
d7167,"""Richtig""-Screen",canvas.Screen,3_0_4_0_6_1_1,NA,NA,timeout,4999.265,602078.69999981,602071.74,602088.335,607070.955,607071.5,2023-02-10T19:30:27Z,607087.6,NULL,Symbol,kielezo,s,kinyume,nderemo,utayari,NA,sd,1,4,NA,NA,NA,NA,NA,NA,NA,NA,NA,NA,NA,NA,NA,NA,NA,NA,NA,NA,NA
d7167,"""Falsch""-Screen",canvas.Screen,3_0_4_0_6_1_2,NA,NA,skipped,NA,607074.19999981,NA,NA,607070.955,607074.4000001,2023-02-10T19:30:27Z,607087.6,NULL,Symbol,kielezo,s,kinyume,nderemo,utayari,NA,sd,NA,4,NA,NA,NA,NA,NA,NA,NA,NA,NA,NA,NA,NA,NA,NA,NA,NA,NA,NA,NA
d7167,shallow,flow.Sequence,3_0_4_0_6_1,NA,NA,completion,8782.041,598273.69999981,598272.251,598288.914,607070.955,607074.5999999,2023-02-10T19:30:27Z,607087.6,NULL,Symbol,kielezo,s,kinyume,nderemo,utayari,NA,sd,NA,4,NA,NA,NA,NA,NA,NA,NA,NA,NA,NA,NA,NA,NA,NA,NA,NA,NA,NA,NA
d7167,task,flow.Sequence,3_0_4_0_6,NA,NA,completion,8782.041,598273.5,598272.251,598288.914,607070.955,607074.5999999,2023-02-10T19:30:27Z,607087.6,NULL,Symbol,kielezo,s,kinyume,nderemo,utayari,NA,sd,NA,4,NA,NA,NA,NA,NA,NA,NA,NA,NA,NA,NA,NA,NA,NA,NA,NA,NA,NA,NA
d7167,Deep Question,html.Page,3_0_4_0_7_0_0,NA,NA,form submission,5111.7000001908,607074.80000019,607070.955,607087.6,612199.30000019,612199.5,2023-02-10T19:30:32Z,612203.494,NULL,Vorsorge,tahadhari,d,NA,NA,NA,a,NA,NA,4,NA,NA,NA,NA,NA,NA,NA,NA,NA,NA,NA,NA,NA,NA,NA,NA,NA,NA,NA
d7167,"""Richtig""-Screen",canvas.Screen,3_0_4_0_7_0_1,NA,NA,skipped,NA,612201.69999981,NA,NA,612199.30000019,612201.9000001,2023-02-10T19:30:32Z,612203.494,NULL,Vorsorge,tahadhari,d,NA,NA,NA,NA,sd,NA,4,NA,NA,NA,NA,NA,NA,NA,NA,NA,NA,NA,NA,NA,NA,NA,NA,NA,NA,NA
d7167,"""Falsch""-Screen",canvas.Screen,3_0_4_0_7_0_2,NA,NA,timeout,4999.3230000001,612202.5,612186.885,612203.494,617186.137,617186.80000019,2023-02-10T19:30:37Z,617202.817,NULL,Vorsorge,tahadhari,d,NA,NA,NA,NA,sd,0,4,NA,NA,NA,NA,NA,NA,NA,NA,NA,NA,NA,NA,NA,NA,NA,NA,NA,NA,NA
d7167,deep,flow.Sequence,3_0_4_0_7_0,NA,NA,completion,10098.537,607074.69999981,607070.955,607087.6,617186.137,617186.9000001,2023-02-10T19:30:37Z,617202.817,NULL,Vorsorge,tahadhari,d,NA,NA,NA,NA,sd,NA,4,NA,NA,NA,NA,NA,NA,NA,NA,NA,NA,NA,NA,NA,NA,NA,NA,NA,NA,NA
d7167,shallow,flow.Sequence,3_0_4_0_7_1,NA,NA,skipped,NA,617187,NA,NA,617186.137,617187.19999981,2023-02-10T19:30:37Z,617202.817,NULL,Vorsorge,tahadhari,d,NA,NA,NA,NA,sd,NA,4,NA,NA,NA,NA,NA,NA,NA,NA,NA,NA,NA,NA,NA,NA,NA,NA,NA,NA,NA
d7167,task,flow.Sequence,3_0_4_0_7,NA,NA,completion,10098.537,607074.69999981,607070.955,607087.6,617186.137,617187.30000019,2023-02-10T19:30:37Z,617202.817,NULL,Vorsorge,tahadhari,d,NA,NA,NA,NA,sd,NA,4,NA,NA,NA,NA,NA,NA,NA,NA,NA,NA,NA,NA,NA,NA,NA,NA,NA,NA,NA
d7167,block,flow.Loop,3_0_4_0,NA,NA,completion,105884.396,511295.5,511285.198,511301.741,617186.137,617187.4000001,2023-02-10T19:30:37Z,617202.817,NULL,NA,NA,NA,NA,NA,NA,NA,sd,NA,4,NA,NA,NA,NA,NA,NA,NA,NA,NA,NA,NA,NA,NA,NA,NA,NA,NA,NA,NA
d7167,weiter,canvas.Screen,3_0_4_1,sdf,keypress(Space),response,902.9830001907,617187.5,617186.137,617202.817,618105.80000019,618108.0999999,2023-02-10T19:30:38Z,618202.591,NULL,NA,NA,NA,NA,NA,NA,NA,sd,NA,4,NA,NA,NA,NA,NA,NA,NA,NA,NA,NA,NA,NA,NA,NA,NA,NA,NA,NA,NA
d7167,check continue,flow.Sequence,3_0_4,NA,NA,completion,106804.05900019,511295.4000001,511285.198,511301.741,618105.80000019,618108.19999981,2023-02-10T19:30:38Z,618202.591,NULL,NA,NA,NA,NA,NA,NA,NA,sd,NA,4,NA,NA,NA,NA,NA,NA,NA,NA,NA,NA,NA,NA,NA,NA,NA,NA,NA,NA,NA
d7167,deep,flow.Sequence,3_0_5_0_0_0,NA,NA,skipped,NA,618198.4000001,NA,NA,618105.80000019,618198.69999981,2023-02-10T19:30:38Z,618202.591,NULL,Spionage,upelelezi,s,maslahi,utokazo,magangao,NA,sdf,NA,5,NA,NA,NA,NA,NA,NA,NA,NA,NA,NA,NA,NA,NA,NA,NA,NA,NA,NA,NA
d7167,Shallow Question,html.Page,3_0_5_0_0_1_0,NA,NA,form submission,5229.8090000954,618198.9000001,618186.153,618202.591,623432.4000001,623432.69999981,2023-02-10T19:30:43Z,623435.142,NULL,Spionage,upelelezi,s,maslahi,utokazo,magangao,upelelezi,NA,NA,5,NA,NA,NA,NA,NA,NA,NA,NA,NA,NA,NA,NA,NA,NA,NA,NA,NA,NA,NA
d7167,"""Richtig""-Screen",canvas.Screen,3_0_5_0_0_1_1,NA,NA,timeout,4999.336,623434.4000001,623418.717,623435.142,628417.749,628418.30000019,2023-02-10T19:30:48Z,628434.478,NULL,Spionage,upelelezi,s,maslahi,utokazo,magangao,NA,sdf,1,5,NA,NA,NA,NA,NA,NA,NA,NA,NA,NA,NA,NA,NA,NA,NA,NA,NA,NA,NA
d7167,"""Falsch""-Screen",canvas.Screen,3_0_5_0_0_1_2,NA,NA,skipped,NA,628420.69999981,NA,NA,628417.749,628420.80000019,2023-02-10T19:30:48Z,628434.478,NULL,Spionage,upelelezi,s,maslahi,utokazo,magangao,NA,sdf,NA,5,NA,NA,NA,NA,NA,NA,NA,NA,NA,NA,NA,NA,NA,NA,NA,NA,NA,NA,NA
d7167,shallow,flow.Sequence,3_0_5_0_0_1,NA,NA,completion,10215.158,618198.9000001,618186.153,618202.591,628417.749,628420.9000001,2023-02-10T19:30:48Z,628434.478,NULL,Spionage,upelelezi,s,maslahi,utokazo,magangao,NA,sdf,NA,5,NA,NA,NA,NA,NA,NA,NA,NA,NA,NA,NA,NA,NA,NA,NA,NA,NA,NA,NA
d7167,task,flow.Sequence,3_0_5_0_0,NA,NA,completion,10215.158,618198.4000001,618186.153,618202.591,628417.749,628421.0999999,2023-02-10T19:30:48Z,628434.478,NULL,Spionage,upelelezi,s,maslahi,utokazo,magangao,NA,sdf,NA,5,NA,NA,NA,NA,NA,NA,NA,NA,NA,NA,NA,NA,NA,NA,NA,NA,NA,NA,NA
d7167,Deep Question,html.Page,3_0_5_0_1_0_0,NA,NA,form submission,7416.3220001907,628421.19999981,628417.749,628434.478,635850.80000019,635851.19999981,2023-02-10T19:30:55Z,635866.698,NULL,Schüler,mwanafunzi,d,NA,NA,NA,maneufuzi,NA,NA,5,NA,NA,NA,NA,NA,NA,NA,NA,NA,NA,NA,NA,NA,NA,NA,NA,NA,NA,NA
d7167,"""Richtig""-Screen",canvas.Screen,3_0_5_0_1_0_1,NA,NA,skipped,NA,635853.19999981,NA,NA,635850.80000019,635853.4000001,2023-02-10T19:30:55Z,635866.698,NULL,Schüler,mwanafunzi,d,NA,NA,NA,NA,sdf,NA,5,NA,NA,NA,NA,NA,NA,NA,NA,NA,NA,NA,NA,NA,NA,NA,NA,NA,NA,NA
d7167,"""Falsch""-Screen",canvas.Screen,3_0_5_0_1_0_2,NA,NA,timeout,4999.287,635854,635850.083,635866.698,640849.284,640850,2023-02-10T19:31:00Z,640865.985,NULL,Schüler,mwanafunzi,d,NA,NA,NA,NA,sdf,0,5,NA,NA,NA,NA,NA,NA,NA,NA,NA,NA,NA,NA,NA,NA,NA,NA,NA,NA,NA
d7167,deep,flow.Sequence,3_0_5_0_1_0,NA,NA,completion,12414.806,628421.19999981,628417.749,628434.478,640849.284,640850.30000019,2023-02-10T19:31:00Z,640865.985,NULL,Schüler,mwanafunzi,d,NA,NA,NA,NA,sdf,NA,5,NA,NA,NA,NA,NA,NA,NA,NA,NA,NA,NA,NA,NA,NA,NA,NA,NA,NA,NA
d7167,shallow,flow.Sequence,3_0_5_0_1_1,NA,NA,skipped,NA,640850.4000001,NA,NA,640849.284,640850.5,2023-02-10T19:31:00Z,640865.985,NULL,Schüler,mwanafunzi,d,NA,NA,NA,NA,sdf,NA,5,NA,NA,NA,NA,NA,NA,NA,NA,NA,NA,NA,NA,NA,NA,NA,NA,NA,NA,NA
d7167,task,flow.Sequence,3_0_5_0_1,NA,NA,completion,12414.806,628421.0999999,628417.749,628434.478,640849.284,640850.5,2023-02-10T19:31:00Z,640865.985,NULL,Schüler,mwanafunzi,d,NA,NA,NA,NA,sdf,NA,5,NA,NA,NA,NA,NA,NA,NA,NA,NA,NA,NA,NA,NA,NA,NA,NA,NA,NA,NA
d7167,Deep Question,html.Page,3_0_5_0_2_0_0,NA,NA,form submission,10329.714999809,640850.69999981,640849.284,640865.985,651195.69999981,651196,2023-02-10T19:31:11Z,651197.703,NULL,Tester,wanaojaribu,d,NA,NA,NA,fahanaei,NA,NA,5,NA,NA,NA,NA,NA,NA,NA,NA,NA,NA,NA,NA,NA,NA,NA,NA,NA,NA,NA
d7167,"""Richtig""-Screen",canvas.Screen,3_0_5_0_2_0_1,NA,NA,skipped,NA,651198.4000001,NA,NA,651195.69999981,651198.5,2023-02-10T19:31:11Z,651197.703,NULL,Tester,wanaojaribu,d,NA,NA,NA,NA,sdf,NA,5,NA,NA,NA,NA,NA,NA,NA,NA,NA,NA,NA,NA,NA,NA,NA,NA,NA,NA,NA
d7167,"""Falsch""-Screen",canvas.Screen,3_0_5_0_2_0_2,NA,NA,timeout,4999.257,651199.30000019,651181.143,651197.703,656180.362,656181,2023-02-10T19:31:16Z,656196.96,NULL,Tester,wanaojaribu,d,NA,NA,NA,NA,sdf,0,5,NA,NA,NA,NA,NA,NA,NA,NA,NA,NA,NA,NA,NA,NA,NA,NA,NA,NA,NA
d7167,deep,flow.Sequence,3_0_5_0_2_0,NA,NA,completion,15314.377,640850.69999981,640849.284,640865.985,656180.362,656181.19999981,2023-02-10T19:31:16Z,656196.96,NULL,Tester,wanaojaribu,d,NA,NA,NA,NA,sdf,NA,5,NA,NA,NA,NA,NA,NA,NA,NA,NA,NA,NA,NA,NA,NA,NA,NA,NA,NA,NA
d7167,shallow,flow.Sequence,3_0_5_0_2_1,NA,NA,skipped,NA,656181.30000019,NA,NA,656180.362,656181.4000001,2023-02-10T19:31:16Z,656196.96,NULL,Tester,wanaojaribu,d,NA,NA,NA,NA,sdf,NA,5,NA,NA,NA,NA,NA,NA,NA,NA,NA,NA,NA,NA,NA,NA,NA,NA,NA,NA,NA
d7167,task,flow.Sequence,3_0_5_0_2,NA,NA,completion,15314.377,640850.69999981,640849.284,640865.985,656180.362,656181.5,2023-02-10T19:31:16Z,656196.96,NULL,Tester,wanaojaribu,d,NA,NA,NA,NA,sdf,NA,5,NA,NA,NA,NA,NA,NA,NA,NA,NA,NA,NA,NA,NA,NA,NA,NA,NA,NA,NA
d7167,deep,flow.Sequence,3_0_5_0_3_0,NA,NA,skipped,NA,656181.5999999,NA,NA,656180.362,656181.69999981,2023-02-10T19:31:16Z,656196.96,NULL,Fenster,dirisha,s,walakini,tasawari,maarifa,NA,sdf,NA,5,NA,NA,NA,NA,NA,NA,NA,NA,NA,NA,NA,NA,NA,NA,NA,NA,NA,NA,NA
d7167,Shallow Question,html.Page,3_0_5_0_3_1_0,NA,NA,form submission,5361.1399999047,656181.80000019,656180.362,656196.96,661558.0999999,661558.4000001,2023-02-10T19:31:21Z,661562.841,NULL,Fenster,dirisha,s,walakini,tasawari,maarifa,dirisha,NA,NA,5,NA,NA,NA,NA,NA,NA,NA,NA,NA,NA,NA,NA,NA,NA,NA,NA,NA,NA,NA
d7167,"""Richtig""-Screen",canvas.Screen,3_0_5_0_3_1_1,NA,NA,timeout,4999.365,661560.80000019,661546.304,661562.841,666545.489,666546.30000019,2023-02-10T19:31:26Z,666562.206,NULL,Fenster,dirisha,s,walakini,tasawari,maarifa,NA,sdf,1,5,NA,NA,NA,NA,NA,NA,NA,NA,NA,NA,NA,NA,NA,NA,NA,NA,NA,NA,NA
d7167,"""Falsch""-Screen",canvas.Screen,3_0_5_0_3_1_2,NA,NA,skipped,NA,666549.4000001,NA,NA,666545.489,666549.5,2023-02-10T19:31:26Z,666562.206,NULL,Fenster,dirisha,s,walakini,tasawari,maarifa,NA,sdf,NA,5,NA,NA,NA,NA,NA,NA,NA,NA,NA,NA,NA,NA,NA,NA,NA,NA,NA,NA,NA
d7167,shallow,flow.Sequence,3_0_5_0_3_1,NA,NA,completion,10348.529,656181.80000019,656180.362,656196.96,666545.489,666549.69999981,2023-02-10T19:31:26Z,666562.206,NULL,Fenster,dirisha,s,walakini,tasawari,maarifa,NA,sdf,NA,5,NA,NA,NA,NA,NA,NA,NA,NA,NA,NA,NA,NA,NA,NA,NA,NA,NA,NA,NA
d7167,task,flow.Sequence,3_0_5_0_3,NA,NA,completion,10348.529,656181.5999999,656180.362,656196.96,666545.489,666549.80000019,2023-02-10T19:31:26Z,666562.206,NULL,Fenster,dirisha,s,walakini,tasawari,maarifa,NA,sdf,NA,5,NA,NA,NA,NA,NA,NA,NA,NA,NA,NA,NA,NA,NA,NA,NA,NA,NA,NA,NA
d7167,Deep Question,html.Page,3_0_5_0_4_0_0,NA,NA,form submission,10641.594000191,666549.9000001,666545.489,666562.206,677203.80000019,677203.9000001,2023-02-10T19:31:37Z,677210.527,NULL,Vorsorge,tahadhari,d,NA,NA,NA,NA,NA,NA,5,NA,NA,NA,NA,NA,NA,NA,NA,NA,NA,NA,NA,NA,NA,NA,NA,NA,NA,NA
d7167,"""Richtig""-Screen",canvas.Screen,3_0_5_0_4_0_1,NA,NA,skipped,NA,677206,NA,NA,677203.80000019,677206.0999999,2023-02-10T19:31:37Z,677210.527,NULL,Vorsorge,tahadhari,d,NA,NA,NA,NA,sdf,NA,5,NA,NA,NA,NA,NA,NA,NA,NA,NA,NA,NA,NA,NA,NA,NA,NA,NA,NA,NA
d7167,"""Falsch""-Screen",canvas.Screen,3_0_5_0_4_0_2,NA,NA,timeout,4999.3100000001,677206.80000019,677193.984,677210.527,682193.21,682193.9000001,2023-02-10T19:31:42Z,682209.837,NULL,Vorsorge,tahadhari,d,NA,NA,NA,NA,sdf,0,5,NA,NA,NA,NA,NA,NA,NA,NA,NA,NA,NA,NA,NA,NA,NA,NA,NA,NA,NA
d7167,deep,flow.Sequence,3_0_5_0_4_0,NA,NA,completion,15631.004,666549.9000001,666545.489,666562.206,682193.21,682194.0999999,2023-02-10T19:31:42Z,682209.837,NULL,Vorsorge,tahadhari,d,NA,NA,NA,NA,sdf,NA,5,NA,NA,NA,NA,NA,NA,NA,NA,NA,NA,NA,NA,NA,NA,NA,NA,NA,NA,NA
d7167,shallow,flow.Sequence,3_0_5_0_4_1,NA,NA,skipped,NA,682194.19999981,NA,NA,682193.21,682194.19999981,2023-02-10T19:31:42Z,682209.837,NULL,Vorsorge,tahadhari,d,NA,NA,NA,NA,sdf,NA,5,NA,NA,NA,NA,NA,NA,NA,NA,NA,NA,NA,NA,NA,NA,NA,NA,NA,NA,NA
d7167,task,flow.Sequence,3_0_5_0_4,NA,NA,completion,15631.004,666549.9000001,666545.489,666562.206,682193.21,682194.4000001,2023-02-10T19:31:42Z,682209.837,NULL,Vorsorge,tahadhari,d,NA,NA,NA,NA,sdf,NA,5,NA,NA,NA,NA,NA,NA,NA,NA,NA,NA,NA,NA,NA,NA,NA,NA,NA,NA,NA
d7167,deep,flow.Sequence,3_0_5_0_5_0,NA,NA,skipped,NA,682194.5999999,NA,NA,682193.21,682194.5999999,2023-02-10T19:31:42Z,682209.837,NULL,Symbol,kielezo,s,kinyume,nderemo,utayari,NA,sdf,NA,5,NA,NA,NA,NA,NA,NA,NA,NA,NA,NA,NA,NA,NA,NA,NA,NA,NA,NA,NA
d7167,Shallow Question,html.Page,3_0_5_0_5_1_0,NA,NA,form submission,5749.6629999999,682194.69999981,682193.21,682209.837,687959.5,687959.80000019,2023-02-10T19:31:47Z,687987.677,NULL,Symbol,kielezo,s,kinyume,nderemo,utayari,kielezo,NA,NA,5,NA,NA,NA,NA,NA,NA,NA,NA,NA,NA,NA,NA,NA,NA,NA,NA,NA,NA,NA
d7167,"""Richtig""-Screen",canvas.Screen,3_0_5_0_5_1_1,NA,NA,timeout,5003.855,687962.19999981,687942.696,687987.677,692974.924,692975.5,2023-02-10T19:31:52Z,692991.532,NULL,Symbol,kielezo,s,kinyume,nderemo,utayari,NA,sdf,1,5,NA,NA,NA,NA,NA,NA,NA,NA,NA,NA,NA,NA,NA,NA,NA,NA,NA,NA,NA
d7167,"""Falsch""-Screen",canvas.Screen,3_0_5_0_5_1_2,NA,NA,skipped,NA,692978.4000001,NA,NA,692974.924,692978.5999999,2023-02-10T19:31:52Z,692991.532,NULL,Symbol,kielezo,s,kinyume,nderemo,utayari,NA,sdf,NA,5,NA,NA,NA,NA,NA,NA,NA,NA,NA,NA,NA,NA,NA,NA,NA,NA,NA,NA,NA
d7167,shallow,flow.Sequence,3_0_5_0_5_1,NA,NA,completion,10765.087,682194.69999981,682193.21,682209.837,692974.924,692978.69999981,2023-02-10T19:31:52Z,692991.532,NULL,Symbol,kielezo,s,kinyume,nderemo,utayari,NA,sdf,NA,5,NA,NA,NA,NA,NA,NA,NA,NA,NA,NA,NA,NA,NA,NA,NA,NA,NA,NA,NA
d7167,task,flow.Sequence,3_0_5_0_5,NA,NA,completion,10765.087,682194.4000001,682193.21,682209.837,692974.924,692978.80000019,2023-02-10T19:31:52Z,692991.532,NULL,Symbol,kielezo,s,kinyume,nderemo,utayari,NA,sdf,NA,5,NA,NA,NA,NA,NA,NA,NA,NA,NA,NA,NA,NA,NA,NA,NA,NA,NA,NA,NA
d7167,deep,flow.Sequence,3_0_5_0_6_0,NA,NA,skipped,NA,692978.9000001,NA,NA,692974.924,692978.9000001,2023-02-10T19:31:52Z,692991.532,NULL,Zuwachs,nyongeza,s,matilaba,udhibiti,hudhurio,NA,sdf,NA,5,NA,NA,NA,NA,NA,NA,NA,NA,NA,NA,NA,NA,NA,NA,NA,NA,NA,NA,NA
d7167,Shallow Question,html.Page,3_0_5_0_6_1_0,NA,NA,form submission,3577.7680001907,692979,692974.924,692991.532,696569.30000019,696569.5,2023-02-10T19:31:56Z,696574.338,NULL,Zuwachs,nyongeza,s,matilaba,udhibiti,hudhurio,nyongeza,NA,NA,5,NA,NA,NA,NA,NA,NA,NA,NA,NA,NA,NA,NA,NA,NA,NA,NA,NA,NA,NA
d7167,"""Richtig""-Screen",canvas.Screen,3_0_5_0_6_1_1,NA,NA,timeout,4999.267,696571.19999981,696557.822,696574.338,701556.986,701557.5999999,2023-02-10T19:32:01Z,701573.605,NULL,Zuwachs,nyongeza,s,matilaba,udhibiti,hudhurio,NA,sdf,1,5,NA,NA,NA,NA,NA,NA,NA,NA,NA,NA,NA,NA,NA,NA,NA,NA,NA,NA,NA
d7167,"""Falsch""-Screen",canvas.Screen,3_0_5_0_6_1_2,NA,NA,skipped,NA,701560.4000001,NA,NA,701556.986,701560.5,2023-02-10T19:32:01Z,701573.605,NULL,Zuwachs,nyongeza,s,matilaba,udhibiti,hudhurio,NA,sdf,NA,5,NA,NA,NA,NA,NA,NA,NA,NA,NA,NA,NA,NA,NA,NA,NA,NA,NA,NA,NA
d7167,shallow,flow.Sequence,3_0_5_0_6_1,NA,NA,completion,8565.454,692979,692974.924,692991.532,701556.986,701560.5999999,2023-02-10T19:32:01Z,701573.605,NULL,Zuwachs,nyongeza,s,matilaba,udhibiti,hudhurio,NA,sdf,NA,5,NA,NA,NA,NA,NA,NA,NA,NA,NA,NA,NA,NA,NA,NA,NA,NA,NA,NA,NA
d7167,task,flow.Sequence,3_0_5_0_6,NA,NA,completion,8565.454,692978.9000001,692974.924,692991.532,701556.986,701560.80000019,2023-02-10T19:32:01Z,701573.605,NULL,Zuwachs,nyongeza,s,matilaba,udhibiti,hudhurio,NA,sdf,NA,5,NA,NA,NA,NA,NA,NA,NA,NA,NA,NA,NA,NA,NA,NA,NA,NA,NA,NA,NA
d7167,Deep Question,html.Page,3_0_5_0_7_0_0,NA,NA,form submission,6316.895,701560.9000001,701556.986,701573.605,707890.5,707890.80000019,2023-02-10T19:32:07Z,707906.074,NULL,Konkurrent,mshindani,d,NA,NA,NA,mshindani,NA,NA,5,NA,NA,NA,NA,NA,NA,NA,NA,NA,NA,NA,NA,NA,NA,NA,NA,NA,NA,NA
d7167,"""Richtig""-Screen",canvas.Screen,3_0_5_0_7_0_1,NA,NA,timeout,4999.15,707893,707889.426,707906.074,712888.632,712889.4000001,2023-02-10T19:32:12Z,712905.224,NULL,Konkurrent,mshindani,d,NA,NA,NA,NA,sdf,1,5,NA,NA,NA,NA,NA,NA,NA,NA,NA,NA,NA,NA,NA,NA,NA,NA,NA,NA,NA
d7167,"""Falsch""-Screen",canvas.Screen,3_0_5_0_7_0_2,NA,NA,skipped,NA,712891.80000019,NA,NA,712888.632,712891.9000001,2023-02-10T19:32:12Z,712905.224,NULL,Konkurrent,mshindani,d,NA,NA,NA,NA,sdf,NA,5,NA,NA,NA,NA,NA,NA,NA,NA,NA,NA,NA,NA,NA,NA,NA,NA,NA,NA,NA
d7167,deep,flow.Sequence,3_0_5_0_7_0,NA,NA,completion,11315.027,701560.80000019,701556.986,701573.605,712888.632,712892,2023-02-10T19:32:12Z,712905.224,NULL,Konkurrent,mshindani,d,NA,NA,NA,NA,sdf,NA,5,NA,NA,NA,NA,NA,NA,NA,NA,NA,NA,NA,NA,NA,NA,NA,NA,NA,NA,NA
d7167,shallow,flow.Sequence,3_0_5_0_7_1,NA,NA,skipped,NA,712892,NA,NA,712888.632,712892.19999981,2023-02-10T19:32:12Z,712905.224,NULL,Konkurrent,mshindani,d,NA,NA,NA,NA,sdf,NA,5,NA,NA,NA,NA,NA,NA,NA,NA,NA,NA,NA,NA,NA,NA,NA,NA,NA,NA,NA
d7167,task,flow.Sequence,3_0_5_0_7,NA,NA,completion,11315.027,701560.80000019,701556.986,701573.605,712888.632,712892.30000019,2023-02-10T19:32:12Z,712905.224,NULL,Konkurrent,mshindani,d,NA,NA,NA,NA,sdf,NA,5,NA,NA,NA,NA,NA,NA,NA,NA,NA,NA,NA,NA,NA,NA,NA,NA,NA,NA,NA
d7167,block,flow.Loop,3_0_5_0,NA,NA,completion,94686.041,618198.30000019,618186.153,618202.591,712888.632,712892.4000001,2023-02-10T19:32:12Z,712905.224,NULL,NA,NA,NA,NA,NA,NA,NA,sdf,NA,5,NA,NA,NA,NA,NA,NA,NA,NA,NA,NA,NA,NA,NA,NA,NA,NA,NA,NA,NA
d7167,weiter,canvas.Screen,3_0_5_1,sdf,keypress(Space),response,1963.1760000953,712892.4000001,712888.632,712905.224,714868.4000001,714869.30000019,2023-02-10T19:32:14Z,714921.663,NULL,NA,NA,NA,NA,NA,NA,NA,sdf,NA,5,NA,NA,NA,NA,NA,NA,NA,NA,NA,NA,NA,NA,NA,NA,NA,NA,NA,NA,NA
d7167,check continue,flow.Sequence,3_0_5,NA,NA,completion,96665.809000095,618198.30000019,618186.153,618202.591,714868.4000001,714869.5999999,2023-02-10T19:32:14Z,714921.663,NULL,NA,NA,NA,NA,NA,NA,NA,sdf,NA,5,NA,NA,NA,NA,NA,NA,NA,NA,NA,NA,NA,NA,NA,NA,NA,NA,NA,NA,NA
d7167,deep,flow.Sequence,3_0_6_0_0_0,NA,NA,skipped,NA,714905.30000019,NA,NA,714868.4000001,714905.30000019,2023-02-10T19:32:14Z,714921.663,NULL,Fenster,dirisha,s,walakini,tasawari,maarifa,NA,dfs,NA,6,NA,NA,NA,NA,NA,NA,NA,NA,NA,NA,NA,NA,NA,NA,NA,NA,NA,NA,NA
d7167,Shallow Question,html.Page,3_0_6_0_0_1_0,NA,NA,form submission,4150.6370001908,714905.5,714905.166,714921.663,719072.30000019,719072.5999999,2023-02-10T19:32:19Z,719087.733,NULL,Fenster,dirisha,s,walakini,tasawari,maarifa,dirisha,NA,NA,6,NA,NA,NA,NA,NA,NA,NA,NA,NA,NA,NA,NA,NA,NA,NA,NA,NA,NA,NA
d7167,"""Richtig""-Screen",canvas.Screen,3_0_6_0_0_1_1,NA,NA,timeout,4999.276,719074.69999981,719071.146,719087.733,724070.32,724071.0999999,2023-02-10T19:32:24Z,724087.009,NULL,Fenster,dirisha,s,walakini,tasawari,maarifa,NA,dfs,1,6,NA,NA,NA,NA,NA,NA,NA,NA,NA,NA,NA,NA,NA,NA,NA,NA,NA,NA,NA
d7167,"""Falsch""-Screen",canvas.Screen,3_0_6_0_0_1_2,NA,NA,skipped,NA,724073.5999999,NA,NA,724070.32,724073.69999981,2023-02-10T19:32:24Z,724087.009,NULL,Fenster,dirisha,s,walakini,tasawari,maarifa,NA,dfs,NA,6,NA,NA,NA,NA,NA,NA,NA,NA,NA,NA,NA,NA,NA,NA,NA,NA,NA,NA,NA
d7167,shallow,flow.Sequence,3_0_6_0_0_1,NA,NA,completion,9148.657,714905.5,714905.166,714921.663,724070.32,724073.80000019,2023-02-10T19:32:24Z,724087.009,NULL,Fenster,dirisha,s,walakini,tasawari,maarifa,NA,dfs,NA,6,NA,NA,NA,NA,NA,NA,NA,NA,NA,NA,NA,NA,NA,NA,NA,NA,NA,NA,NA
d7167,task,flow.Sequence,3_0_6_0_0,NA,NA,completion,9148.657,714905.30000019,714905.166,714921.663,724070.32,724074,2023-02-10T19:32:24Z,724087.009,NULL,Fenster,dirisha,s,walakini,tasawari,maarifa,NA,dfs,NA,6,NA,NA,NA,NA,NA,NA,NA,NA,NA,NA,NA,NA,NA,NA,NA,NA,NA,NA,NA
d7167,deep,flow.Sequence,3_0_6_0_1_0,NA,NA,skipped,NA,724074.0999999,NA,NA,724070.32,724074.0999999,2023-02-10T19:32:24Z,724087.009,NULL,Symbol,kielezo,s,kinyume,nderemo,utayari,NA,dfs,NA,6,NA,NA,NA,NA,NA,NA,NA,NA,NA,NA,NA,NA,NA,NA,NA,NA,NA,NA,NA
d7167,Shallow Question,html.Page,3_0_6_0_1_1_0,NA,NA,form submission,2439.8910000954,724074.19999981,724070.32,724087.009,726526.9000001,726527.30000019,2023-02-10T19:32:26Z,726536.718,NULL,Symbol,kielezo,s,kinyume,nderemo,utayari,kielezo,NA,NA,6,NA,NA,NA,NA,NA,NA,NA,NA,NA,NA,NA,NA,NA,NA,NA,NA,NA,NA,NA
d7167,"""Richtig""-Screen",canvas.Screen,3_0_6_0_1_1_1,NA,NA,timeout,4999.166,726529,726520.064,726536.718,731519.217,731519.80000019,2023-02-10T19:32:31Z,731535.884,NULL,Symbol,kielezo,s,kinyume,nderemo,utayari,NA,dfs,1,6,NA,NA,NA,NA,NA,NA,NA,NA,NA,NA,NA,NA,NA,NA,NA,NA,NA,NA,NA
d7167,"""Falsch""-Screen",canvas.Screen,3_0_6_0_1_1_2,NA,NA,skipped,NA,731522.19999981,NA,NA,731519.217,731522.30000019,2023-02-10T19:32:31Z,731535.884,NULL,Symbol,kielezo,s,kinyume,nderemo,utayari,NA,dfs,NA,6,NA,NA,NA,NA,NA,NA,NA,NA,NA,NA,NA,NA,NA,NA,NA,NA,NA,NA,NA
d7167,shallow,flow.Sequence,3_0_6_0_1_1,NA,NA,completion,7432.208,724074.0999999,724070.32,724087.009,731519.217,731522.5,2023-02-10T19:32:31Z,731535.884,NULL,Symbol,kielezo,s,kinyume,nderemo,utayari,NA,dfs,NA,6,NA,NA,NA,NA,NA,NA,NA,NA,NA,NA,NA,NA,NA,NA,NA,NA,NA,NA,NA
d7167,task,flow.Sequence,3_0_6_0_1,NA,NA,completion,7432.208,724074.0999999,724070.32,724087.009,731519.217,731522.5999999,2023-02-10T19:32:31Z,731535.884,NULL,Symbol,kielezo,s,kinyume,nderemo,utayari,NA,dfs,NA,6,NA,NA,NA,NA,NA,NA,NA,NA,NA,NA,NA,NA,NA,NA,NA,NA,NA,NA,NA
d7167,Deep Question,html.Page,3_0_6_0_2_0_0,NA,NA,form submission,19904.116,731522.69999981,731519.217,731535.884,751440,751440.19999981,2023-02-10T19:32:51Z,751466.309,NULL,Schüler,mwanafunzi,d,NA,NA,NA,manahofunzi,NA,NA,6,NA,NA,NA,NA,NA,NA,NA,NA,NA,NA,NA,NA,NA,NA,NA,NA,NA,NA,NA
d7167,"""Richtig""-Screen",canvas.Screen,3_0_6_0_2_0_1,NA,NA,skipped,NA,751442.19999981,NA,NA,751440,751442.4000001,2023-02-10T19:32:51Z,751466.309,NULL,Schüler,mwanafunzi,d,NA,NA,NA,NA,dfs,NA,6,NA,NA,NA,NA,NA,NA,NA,NA,NA,NA,NA,NA,NA,NA,NA,NA,NA,NA,NA
d7167,"""Falsch""-Screen",canvas.Screen,3_0_6_0_2_0_2,NA,NA,timeout,4999.22,751443,751449.618,751466.309,756448.857,756449.5,2023-02-10T19:32:56Z,756465.529,NULL,Schüler,mwanafunzi,d,NA,NA,NA,NA,dfs,0,6,NA,NA,NA,NA,NA,NA,NA,NA,NA,NA,NA,NA,NA,NA,NA,NA,NA,NA,NA
d7167,deep,flow.Sequence,3_0_6_0_2_0,NA,NA,completion,24912.973,731522.69999981,731519.217,731535.884,756448.857,756449.80000019,2023-02-10T19:32:56Z,756465.529,NULL,Schüler,mwanafunzi,d,NA,NA,NA,NA,dfs,NA,6,NA,NA,NA,NA,NA,NA,NA,NA,NA,NA,NA,NA,NA,NA,NA,NA,NA,NA,NA
