observation,sender,sender_type,sender_id,response,response_action,ended_on,duration,time_run,time_render,time_show,time_end,time_commit,timestamp,time_switch,distractors,german,swahili,enc,distractor1,distractor2,distractor3,response_2,x,correct,x_2,url_vp,url_sess,meta_labjs_version,meta_location,meta_user_agent,meta_platform,meta_language,meta_locale,meta_time_zone,meta_timezone_offset,meta_screen_width,meta_screen_height,meta_scroll_width,meta_scroll_height,meta_window_inner_width,meta_window_inner_height,meta_device_pixel_ratio,meta_labjs_build_flavor,meta_labjs_build_commit
17c18,Introduction general,canvas.Screen,0,weiter,keypress(q),response,104646,194,108,191,104837,104848,2023-04-05T13:03:24Z,104854,NULL,NA,NA,NA,NA,NA,NA,NA,NA,NA,NA,207,1,20.2.4,https://neurocog.fernuni.ch/studies/vweber/sfink/encoding_immediate/index.html?vp=207&sess=1,"Mozilla/5.0 (Macintosh; Intel Mac OS X 10_15_7) AppleWebKit/537.36 (KHTML, like Gecko) Chrome/111.0.0.0 Safari/537.36",MacIntel,de-DE,de,Europe/Zurich,-120,1792,1120,1792,835,1792,883,2,production,f5b4a49f956347addd546a832a3327688c2c0fef
17c18,Introduction practice,canvas.Screen,1_0,NA,keypress(Space),response,6564,104848,104837,104854,111418,111423,2023-04-05T13:03:31Z,111425,NULL,NA,NA,NA,NA,NA,NA,NA,NA,NA,NA,NA,NA,NA,NA,NA,NA,NA,NA,NA,NA,NA,NA,NA,NA,NA,NA,NA,NA,NA
17c18,deep,flow.Sequence,1_1_0_0,NA,NA,skipped,NA,111423,NA,NA,111418,111425,2023-04-05T13:03:31Z,111425,"c(""distractor1"", ""distractor2"", ""distractor3"")",Rückhalt,msaada,s,muhula,auwali,kiwimbe,NA,NA,NA,NA,NA,NA,NA,NA,NA,NA,NA,NA,NA,NA,NA,NA,NA,NA,NA,NA,NA,NA,NA
17c18,Shallow Question,html.Page,1_1_0_1_0,NA,NA,form submission,13002,111425,111409,111425,124427,124427,2023-04-05T13:03:44Z,124426,"c(""distractor1"", ""distractor2"", ""distractor3"")",Rückhalt,msaada,s,muhula,auwali,kiwimbe,auwali,NA,NA,NA,NA,NA,NA,NA,NA,NA,NA,NA,NA,NA,NA,NA,NA,NA,NA,NA,NA,NA,NA
17c18,"""Richtig""-Screen",canvas.Screen,1_1_0_1_1,NA,NA,skipped,NA,124429,NA,NA,124427,124429,2023-04-05T13:03:44Z,124426,"c(""distractor1"", ""distractor2"", ""distractor3"")",Rückhalt,msaada,s,muhula,auwali,kiwimbe,NA,NA,NA,NA,NA,NA,NA,NA,NA,NA,NA,NA,NA,NA,NA,NA,NA,NA,NA,NA,NA,NA,NA
17c18,"""Falsch""-Screen",canvas.Screen,1_1_0_1_2,NA,NA,timeout,4999,124429,124409,124426,129409,129415,2023-04-05T13:03:49Z,129425,"c(""distractor1"", ""distractor2"", ""distractor3"")",Rückhalt,msaada,s,muhula,auwali,kiwimbe,NA,NA,0,NA,NA,NA,NA,NA,NA,NA,NA,NA,NA,NA,NA,NA,NA,NA,NA,NA,NA,NA,NA
17c18,shallow,flow.Sequence,1_1_0_1,NA,NA,completion,17984,111425,111409,111425,129409,129416,2023-04-05T13:03:49Z,129425,"c(""distractor1"", ""distractor2"", ""distractor3"")",Rückhalt,msaada,s,muhula,auwali,kiwimbe,NA,NA,NA,NA,NA,NA,NA,NA,NA,NA,NA,NA,NA,NA,NA,NA,NA,NA,NA,NA,NA,NA,NA
17c18,task,flow.Sequence,1_1_0,NA,NA,completion,17984,111423,111409,111425,129409,129416,2023-04-05T13:03:49Z,129425,"c(""distractor1"", ""distractor2"", ""distractor3"")",Rückhalt,msaada,s,muhula,auwali,kiwimbe,NA,NA,NA,NA,NA,NA,NA,NA,NA,NA,NA,NA,NA,NA,NA,NA,NA,NA,NA,NA,NA,NA,NA
17c18,Deep Question,html.Page,1_1_1_0_0,NA,NA,form submission,7866,129416,129409,129425,137291,137291,2023-04-05T13:03:56Z,137292,"c(""distractor1"", ""distractor2"", ""distractor3"")",Gesundheit,salama,d,NA,NA,NA,sana,NA,NA,NA,NA,NA,NA,NA,NA,NA,NA,NA,NA,NA,NA,NA,NA,NA,NA,NA,NA,NA,NA
17c18,"""Richtig""-Screen",canvas.Screen,1_1_1_0_1,NA,NA,skipped,NA,137293,NA,NA,137291,137294,2023-04-05T13:03:56Z,137292,"c(""distractor1"", ""distractor2"", ""distractor3"")",Gesundheit,salama,d,NA,NA,NA,NA,NA,NA,NA,NA,NA,NA,NA,NA,NA,NA,NA,NA,NA,NA,NA,NA,NA,NA,NA,NA,NA,NA
17c18,"""Falsch""-Screen",canvas.Screen,1_1_1_0_2,NA,NA,timeout,5000,137294,137276,137292,142275,142280,2023-04-05T13:04:01Z,142292,"c(""distractor1"", ""distractor2"", ""distractor3"")",Gesundheit,salama,d,NA,NA,NA,NA,NA,0,NA,NA,NA,NA,NA,NA,NA,NA,NA,NA,NA,NA,NA,NA,NA,NA,NA,NA,NA,NA
17c18,deep,flow.Sequence,1_1_1_0,NA,NA,completion,12850,129416,129409,129425,142275,142280,2023-04-05T13:04:01Z,142292,"c(""distractor1"", ""distractor2"", ""distractor3"")",Gesundheit,salama,d,NA,NA,NA,NA,NA,NA,NA,NA,NA,NA,NA,NA,NA,NA,NA,NA,NA,NA,NA,NA,NA,NA,NA,NA,NA,NA
17c18,shallow,flow.Sequence,1_1_1_1,NA,NA,skipped,NA,142280,NA,NA,142275,142280,2023-04-05T13:04:01Z,142292,"c(""distractor1"", ""distractor2"", ""distractor3"")",Gesundheit,salama,d,NA,NA,NA,NA,NA,NA,NA,NA,NA,NA,NA,NA,NA,NA,NA,NA,NA,NA,NA,NA,NA,NA,NA,NA,NA,NA
17c18,task,flow.Sequence,1_1_1,NA,NA,completion,12850,129416,129409,129425,142275,142281,2023-04-05T13:04:01Z,142292,"c(""distractor1"", ""distractor2"", ""distractor3"")",Gesundheit,salama,d,NA,NA,NA,NA,NA,NA,NA,NA,NA,NA,NA,NA,NA,NA,NA,NA,NA,NA,NA,NA,NA,NA,NA,NA,NA,NA
17c18,Deep Question,html.Page,1_1_2_0_0,NA,NA,form submission,5079,142281,142275,142292,147371,147372,2023-04-05T13:04:07Z,147392,"c(""distractor1"", ""distractor2"", ""distractor3"")",Qualität,mtindo,d,NA,NA,NA,qualia,NA,NA,NA,NA,NA,NA,NA,NA,NA,NA,NA,NA,NA,NA,NA,NA,NA,NA,NA,NA,NA,NA
17c18,"""Richtig""-Screen",canvas.Screen,1_1_2_0_1,NA,NA,skipped,NA,147374,NA,NA,147371,147374,2023-04-05T13:04:07Z,147392,"c(""distractor1"", ""distractor2"", ""distractor3"")",Qualität,mtindo,d,NA,NA,NA,NA,NA,NA,NA,NA,NA,NA,NA,NA,NA,NA,NA,NA,NA,NA,NA,NA,NA,NA,NA,NA,NA,NA
17c18,"""Falsch""-Screen",canvas.Screen,1_1_2_0_2,NA,NA,timeout,5000,147374,147376,147392,152376,152380,2023-04-05T13:04:12Z,152392,"c(""distractor1"", ""distractor2"", ""distractor3"")",Qualität,mtindo,d,NA,NA,NA,NA,NA,0,NA,NA,NA,NA,NA,NA,NA,NA,NA,NA,NA,NA,NA,NA,NA,NA,NA,NA,NA,NA
17c18,deep,flow.Sequence,1_1_2_0,NA,NA,completion,10084,142281,142275,142292,152376,152380,2023-04-05T13:04:12Z,152392,"c(""distractor1"", ""distractor2"", ""distractor3"")",Qualität,mtindo,d,NA,NA,NA,NA,NA,NA,NA,NA,NA,NA,NA,NA,NA,NA,NA,NA,NA,NA,NA,NA,NA,NA,NA,NA,NA,NA
17c18,shallow,flow.Sequence,1_1_2_1,NA,NA,skipped,NA,152380,NA,NA,152376,152380,2023-04-05T13:04:12Z,152392,"c(""distractor1"", ""distractor2"", ""distractor3"")",Qualität,mtindo,d,NA,NA,NA,NA,NA,NA,NA,NA,NA,NA,NA,NA,NA,NA,NA,NA,NA,NA,NA,NA,NA,NA,NA,NA,NA,NA
17c18,task,flow.Sequence,1_1_2,NA,NA,completion,10084,142281,142275,142292,152376,152380,2023-04-05T13:04:12Z,152392,"c(""distractor1"", ""distractor2"", ""distractor3"")",Qualität,mtindo,d,NA,NA,NA,NA,NA,NA,NA,NA,NA,NA,NA,NA,NA,NA,NA,NA,NA,NA,NA,NA,NA,NA,NA,NA,NA,NA
17c18,deep,flow.Sequence,1_1_3_0,NA,NA,skipped,NA,152380,NA,NA,152376,152380,2023-04-05T13:04:12Z,152392,"c(""distractor1"", ""distractor2"", ""distractor3"")",Gegenwart,hadhara,s,katiba,jokofu,mikopo,NA,NA,NA,NA,NA,NA,NA,NA,NA,NA,NA,NA,NA,NA,NA,NA,NA,NA,NA,NA,NA,NA,NA
17c18,Shallow Question,html.Page,1_1_3_1_0,NA,NA,form submission,8068,152381,152376,152392,160460,160460,2023-04-05T13:04:20Z,160459,"c(""distractor1"", ""distractor2"", ""distractor3"")",Gegenwart,hadhara,s,katiba,jokofu,mikopo,katiba,NA,NA,NA,NA,NA,NA,NA,NA,NA,NA,NA,NA,NA,NA,NA,NA,NA,NA,NA,NA,NA,NA
17c18,"""Richtig""-Screen",canvas.Screen,1_1_3_1_1,NA,NA,skipped,NA,160462,NA,NA,160460,160462,2023-04-05T13:04:20Z,160459,"c(""distractor1"", ""distractor2"", ""distractor3"")",Gegenwart,hadhara,s,katiba,jokofu,mikopo,NA,NA,NA,NA,NA,NA,NA,NA,NA,NA,NA,NA,NA,NA,NA,NA,NA,NA,NA,NA,NA,NA,NA
17c18,"""Falsch""-Screen",canvas.Screen,1_1_3_1_2,NA,NA,timeout,5000,160463,160442,160459,165442,165448,2023-04-05T13:04:25Z,165459,"c(""distractor1"", ""distractor2"", ""distractor3"")",Gegenwart,hadhara,s,katiba,jokofu,mikopo,NA,NA,0,NA,NA,NA,NA,NA,NA,NA,NA,NA,NA,NA,NA,NA,NA,NA,NA,NA,NA,NA,NA
17c18,shallow,flow.Sequence,1_1_3_1,NA,NA,completion,13050,152381,152376,152392,165442,165448,2023-04-05T13:04:25Z,165459,"c(""distractor1"", ""distractor2"", ""distractor3"")",Gegenwart,hadhara,s,katiba,jokofu,mikopo,NA,NA,NA,NA,NA,NA,NA,NA,NA,NA,NA,NA,NA,NA,NA,NA,NA,NA,NA,NA,NA,NA,NA
17c18,task,flow.Sequence,1_1_3,NA,NA,completion,13050,152380,152376,152392,165442,165448,2023-04-05T13:04:25Z,165459,"c(""distractor1"", ""distractor2"", ""distractor3"")",Gegenwart,hadhara,s,katiba,jokofu,mikopo,NA,NA,NA,NA,NA,NA,NA,NA,NA,NA,NA,NA,NA,NA,NA,NA,NA,NA,NA,NA,NA,NA,NA
17c18,Deep Question,html.Page,1_1_4_0_0,NA,NA,form submission,4230,165448,165442,165459,169689,169689,2023-04-05T13:04:29Z,169693,"c(""distractor1"", ""distractor2"", ""distractor3"")",Schatten,kivuli,d,NA,NA,NA,shada,NA,NA,NA,NA,NA,NA,NA,NA,NA,NA,NA,NA,NA,NA,NA,NA,NA,NA,NA,NA,NA,NA
17c18,"""Richtig""-Screen",canvas.Screen,1_1_4_0_1,NA,NA,skipped,NA,169691,NA,NA,169689,169691,2023-04-05T13:04:29Z,169693,"c(""distractor1"", ""distractor2"", ""distractor3"")",Schatten,kivuli,d,NA,NA,NA,NA,NA,NA,NA,NA,NA,NA,NA,NA,NA,NA,NA,NA,NA,NA,NA,NA,NA,NA,NA,NA,NA,NA
17c18,"""Falsch""-Screen",canvas.Screen,1_1_4_0_2,NA,NA,timeout,4999,169693,169676,169693,174676,174680,2023-04-05T13:04:34Z,174692,"c(""distractor1"", ""distractor2"", ""distractor3"")",Schatten,kivuli,d,NA,NA,NA,NA,NA,0,NA,NA,NA,NA,NA,NA,NA,NA,NA,NA,NA,NA,NA,NA,NA,NA,NA,NA,NA,NA
17c18,deep,flow.Sequence,1_1_4_0,NA,NA,completion,9217,165448,165442,165459,174676,174680,2023-04-05T13:04:34Z,174692,"c(""distractor1"", ""distractor2"", ""distractor3"")",Schatten,kivuli,d,NA,NA,NA,NA,NA,NA,NA,NA,NA,NA,NA,NA,NA,NA,NA,NA,NA,NA,NA,NA,NA,NA,NA,NA,NA,NA
17c18,shallow,flow.Sequence,1_1_4_1,NA,NA,skipped,NA,174680,NA,NA,174676,174680,2023-04-05T13:04:34Z,174692,"c(""distractor1"", ""distractor2"", ""distractor3"")",Schatten,kivuli,d,NA,NA,NA,NA,NA,NA,NA,NA,NA,NA,NA,NA,NA,NA,NA,NA,NA,NA,NA,NA,NA,NA,NA,NA,NA,NA
17c18,task,flow.Sequence,1_1_4,NA,NA,completion,9217,165448,165442,165459,174676,174680,2023-04-05T13:04:34Z,174692,"c(""distractor1"", ""distractor2"", ""distractor3"")",Schatten,kivuli,d,NA,NA,NA,NA,NA,NA,NA,NA,NA,NA,NA,NA,NA,NA,NA,NA,NA,NA,NA,NA,NA,NA,NA,NA,NA,NA
17c18,deep,flow.Sequence,1_1_5_0,NA,NA,skipped,NA,174680,NA,NA,174676,174681,2023-04-05T13:04:34Z,174692,"c(""distractor1"", ""distractor2"", ""distractor3"")",Kritik,lawama,s,dereva,nafasi,mawazo,NA,NA,NA,NA,NA,NA,NA,NA,NA,NA,NA,NA,NA,NA,NA,NA,NA,NA,NA,NA,NA,NA,NA
17c18,Shallow Question,html.Page,1_1_5_1_0,NA,NA,form submission,7568,174681,174676,174692,182260,182260,2023-04-05T13:04:41Z,182259,"c(""distractor1"", ""distractor2"", ""distractor3"")",Kritik,lawama,s,dereva,nafasi,mawazo,nafasi,NA,NA,NA,NA,NA,NA,NA,NA,NA,NA,NA,NA,NA,NA,NA,NA,NA,NA,NA,NA,NA,NA
17c18,"""Richtig""-Screen",canvas.Screen,1_1_5_1_1,NA,NA,skipped,NA,182262,NA,NA,182260,182262,2023-04-05T13:04:41Z,182259,"c(""distractor1"", ""distractor2"", ""distractor3"")",Kritik,lawama,s,dereva,nafasi,mawazo,NA,NA,NA,NA,NA,NA,NA,NA,NA,NA,NA,NA,NA,NA,NA,NA,NA,NA,NA,NA,NA,NA,NA
17c18,"""Falsch""-Screen",canvas.Screen,1_1_5_1_2,NA,NA,timeout,5000,182263,182243,182259,187242,187245,2023-04-05T13:04:46Z,187259,"c(""distractor1"", ""distractor2"", ""distractor3"")",Kritik,lawama,s,dereva,nafasi,mawazo,NA,NA,0,NA,NA,NA,NA,NA,NA,NA,NA,NA,NA,NA,NA,NA,NA,NA,NA,NA,NA,NA,NA
17c18,shallow,flow.Sequence,1_1_5_1,NA,NA,completion,12550,174681,174676,174692,187242,187245,2023-04-05T13:04:46Z,187259,"c(""distractor1"", ""distractor2"", ""distractor3"")",Kritik,lawama,s,dereva,nafasi,mawazo,NA,NA,NA,NA,NA,NA,NA,NA,NA,NA,NA,NA,NA,NA,NA,NA,NA,NA,NA,NA,NA,NA,NA
17c18,task,flow.Sequence,1_1_5,NA,NA,completion,12550,174680,174676,174692,187242,187245,2023-04-05T13:04:46Z,187259,"c(""distractor1"", ""distractor2"", ""distractor3"")",Kritik,lawama,s,dereva,nafasi,mawazo,NA,NA,NA,NA,NA,NA,NA,NA,NA,NA,NA,NA,NA,NA,NA,NA,NA,NA,NA,NA,NA,NA,NA
17c18,block,flow.Loop,1_1,NA,NA,completion,75817,111423,111409,111425,187242,187245,2023-04-05T13:04:46Z,187259,"c(""distractor1"", ""distractor2"", ""distractor3"")",NA,NA,NA,NA,NA,NA,NA,NA,NA,NA,NA,NA,NA,NA,NA,NA,NA,NA,NA,NA,NA,NA,NA,NA,NA,NA,NA,NA,NA
17c18,Practice,flow.Sequence,1,NA,NA,completion,82388,104848,104837,104854,187242,187246,2023-04-05T13:04:46Z,187259,NULL,NA,NA,NA,NA,NA,NA,NA,NA,NA,NA,NA,NA,NA,NA,NA,NA,NA,NA,NA,NA,NA,NA,NA,NA,NA,NA,NA,NA,NA
17c18,Experiment start,canvas.Screen,2,weiter,keypress(q),response,30312,187246,187242,187259,217571,217578,2023-04-05T13:05:17Z,217641,NULL,NA,NA,NA,NA,NA,NA,NA,NA,NA,NA,NA,NA,NA,NA,NA,NA,NA,NA,NA,NA,NA,NA,NA,NA,NA,NA,NA,NA,NA
17c18,Deep Question,html.Page,3_0_0_0_0_0_0,NA,NA,form submission,4574,217644,217574,217641,222215,222215,2023-04-05T13:05:21Z,222226,NULL,Theorie,nadharia,d,NA,NA,NA,teoria,NA,NA,0,NA,NA,NA,NA,NA,NA,NA,NA,NA,NA,NA,NA,NA,NA,NA,NA,NA,NA,NA
17c18,"""Richtig""-Screen",canvas.Screen,3_0_0_0_0_0_1,NA,NA,skipped,NA,222217,NA,NA,222215,222217,2023-04-05T13:05:21Z,222226,NULL,Theorie,nadharia,d,NA,NA,NA,NA,sdf,NA,0,NA,NA,NA,NA,NA,NA,NA,NA,NA,NA,NA,NA,NA,NA,NA,NA,NA,NA,NA
17c18,"""Falsch""-Screen",canvas.Screen,3_0_0_0_0_0_2,NA,NA,timeout,5000,222217,222209,222226,227209,227211,2023-04-05T13:05:26Z,227226,NULL,Theorie,nadharia,d,NA,NA,NA,NA,sdf,0,0,NA,NA,NA,NA,NA,NA,NA,NA,NA,NA,NA,NA,NA,NA,NA,NA,NA,NA,NA
17c18,deep,flow.Sequence,3_0_0_0_0_0,NA,NA,completion,9568,217644,217574,217641,227209,227211,2023-04-05T13:05:26Z,227226,NULL,Theorie,nadharia,d,NA,NA,NA,NA,sdf,NA,0,NA,NA,NA,NA,NA,NA,NA,NA,NA,NA,NA,NA,NA,NA,NA,NA,NA,NA,NA
17c18,shallow,flow.Sequence,3_0_0_0_0_1,NA,NA,skipped,NA,227211,NA,NA,227209,227211,2023-04-05T13:05:26Z,227226,NULL,Theorie,nadharia,d,NA,NA,NA,NA,sdf,NA,0,NA,NA,NA,NA,NA,NA,NA,NA,NA,NA,NA,NA,NA,NA,NA,NA,NA,NA,NA
17c18,task,flow.Sequence,3_0_0_0_0,NA,NA,completion,9568,217644,217574,217641,227209,227211,2023-04-05T13:05:26Z,227226,NULL,Theorie,nadharia,d,NA,NA,NA,NA,sdf,NA,0,NA,NA,NA,NA,NA,NA,NA,NA,NA,NA,NA,NA,NA,NA,NA,NA,NA,NA,NA
17c18,Deep Question,html.Page,3_0_0_0_1_0_0,NA,NA,form submission,5740,227211,227209,227226,232966,232967,2023-04-05T13:05:32Z,232976,NULL,Schönheit,kirembo,d,NA,NA,NA,bele,NA,NA,0,NA,NA,NA,NA,NA,NA,NA,NA,NA,NA,NA,NA,NA,NA,NA,NA,NA,NA,NA
17c18,"""Richtig""-Screen",canvas.Screen,3_0_0_0_1_0_1,NA,NA,skipped,NA,232968,NA,NA,232966,232968,2023-04-05T13:05:32Z,232976,NULL,Schönheit,kirembo,d,NA,NA,NA,NA,sdf,NA,0,NA,NA,NA,NA,NA,NA,NA,NA,NA,NA,NA,NA,NA,NA,NA,NA,NA,NA,NA
17c18,"""Falsch""-Screen",canvas.Screen,3_0_0_0_1_0_2,NA,NA,timeout,5000,232969,232960,232976,237959,237964,2023-04-05T13:05:37Z,237976,NULL,Schönheit,kirembo,d,NA,NA,NA,NA,sdf,0,0,NA,NA,NA,NA,NA,NA,NA,NA,NA,NA,NA,NA,NA,NA,NA,NA,NA,NA,NA
17c18,deep,flow.Sequence,3_0_0_0_1_0,NA,NA,completion,10733,227211,227209,227226,237959,237964,2023-04-05T13:05:37Z,237976,NULL,Schönheit,kirembo,d,NA,NA,NA,NA,sdf,NA,0,NA,NA,NA,NA,NA,NA,NA,NA,NA,NA,NA,NA,NA,NA,NA,NA,NA,NA,NA
17c18,shallow,flow.Sequence,3_0_0_0_1_1,NA,NA,skipped,NA,237965,NA,NA,237959,237965,2023-04-05T13:05:37Z,237976,NULL,Schönheit,kirembo,d,NA,NA,NA,NA,sdf,NA,0,NA,NA,NA,NA,NA,NA,NA,NA,NA,NA,NA,NA,NA,NA,NA,NA,NA,NA,NA
17c18,task,flow.Sequence,3_0_0_0_1,NA,NA,completion,10733,227211,227209,227226,237959,237965,2023-04-05T13:05:37Z,237976,NULL,Schönheit,kirembo,d,NA,NA,NA,NA,sdf,NA,0,NA,NA,NA,NA,NA,NA,NA,NA,NA,NA,NA,NA,NA,NA,NA,NA,NA,NA,NA
17c18,deep,flow.Sequence,3_0_0_0_2_0,NA,NA,skipped,NA,237965,NA,NA,237959,237965,2023-04-05T13:05:37Z,237976,NULL,Hoffnung,matarajio,s,kutaalamika,uratibu,mvumbuzi,NA,sdf,NA,0,NA,NA,NA,NA,NA,NA,NA,NA,NA,NA,NA,NA,NA,NA,NA,NA,NA,NA,NA
17c18,Shallow Question,html.Page,3_0_0_0_2_1_0,NA,NA,form submission,9133,237965,237959,237976,247109,247110,2023-04-05T13:05:46Z,247110,NULL,Hoffnung,matarajio,s,kutaalamika,uratibu,mvumbuzi,kutaalamika,NA,NA,0,NA,NA,NA,NA,NA,NA,NA,NA,NA,NA,NA,NA,NA,NA,NA,NA,NA,NA,NA
17c18,"""Richtig""-Screen",canvas.Screen,3_0_0_0_2_1_1,NA,NA,skipped,NA,247112,NA,NA,247109,247113,2023-04-05T13:05:46Z,247110,NULL,Hoffnung,matarajio,s,kutaalamika,uratibu,mvumbuzi,NA,sdf,NA,0,NA,NA,NA,NA,NA,NA,NA,NA,NA,NA,NA,NA,NA,NA,NA,NA,NA,NA,NA
17c18,"""Falsch""-Screen",canvas.Screen,3_0_0_0_2_1_2,NA,NA,timeout,4999,247113,247093,247110,252093,252098,2023-04-05T13:05:51Z,252109,NULL,Hoffnung,matarajio,s,kutaalamika,uratibu,mvumbuzi,NA,sdf,0,0,NA,NA,NA,NA,NA,NA,NA,NA,NA,NA,NA,NA,NA,NA,NA,NA,NA,NA,NA
17c18,shallow,flow.Sequence,3_0_0_0_2_1,NA,NA,completion,14117,237965,237959,237976,252093,252098,2023-04-05T13:05:51Z,252109,NULL,Hoffnung,matarajio,s,kutaalamika,uratibu,mvumbuzi,NA,sdf,NA,0,NA,NA,NA,NA,NA,NA,NA,NA,NA,NA,NA,NA,NA,NA,NA,NA,NA,NA,NA
17c18,task,flow.Sequence,3_0_0_0_2,NA,NA,completion,14117,237965,237959,237976,252093,252098,2023-04-05T13:05:51Z,252109,NULL,Hoffnung,matarajio,s,kutaalamika,uratibu,mvumbuzi,NA,sdf,NA,0,NA,NA,NA,NA,NA,NA,NA,NA,NA,NA,NA,NA,NA,NA,NA,NA,NA,NA,NA
17c18,Deep Question,html.Page,3_0_0_0_3_0_0,NA,NA,form submission,5167,252099,252093,252109,257276,257276,2023-04-05T13:05:56Z,257276,NULL,Schock,mshtuko,d,NA,NA,NA,schoq,NA,NA,0,NA,NA,NA,NA,NA,NA,NA,NA,NA,NA,NA,NA,NA,NA,NA,NA,NA,NA,NA
17c18,"""Richtig""-Screen",canvas.Screen,3_0_0_0_3_0_1,NA,NA,skipped,NA,257277,NA,NA,257276,257277,2023-04-05T13:05:56Z,257276,NULL,Schock,mshtuko,d,NA,NA,NA,NA,sdf,NA,0,NA,NA,NA,NA,NA,NA,NA,NA,NA,NA,NA,NA,NA,NA,NA,NA,NA,NA,NA
17c18,"""Falsch""-Screen",canvas.Screen,3_0_0_0_3_0_2,NA,NA,timeout,5000,257278,257260,257276,262259,262263,2023-04-05T13:06:01Z,262276,NULL,Schock,mshtuko,d,NA,NA,NA,NA,sdf,0,0,NA,NA,NA,NA,NA,NA,NA,NA,NA,NA,NA,NA,NA,NA,NA,NA,NA,NA,NA
17c18,deep,flow.Sequence,3_0_0_0_3_0,NA,NA,completion,10150,252099,252093,252109,262259,262264,2023-04-05T13:06:01Z,262276,NULL,Schock,mshtuko,d,NA,NA,NA,NA,sdf,NA,0,NA,NA,NA,NA,NA,NA,NA,NA,NA,NA,NA,NA,NA,NA,NA,NA,NA,NA,NA
17c18,shallow,flow.Sequence,3_0_0_0_3_1,NA,NA,skipped,NA,262264,NA,NA,262259,262264,2023-04-05T13:06:01Z,262276,NULL,Schock,mshtuko,d,NA,NA,NA,NA,sdf,NA,0,NA,NA,NA,NA,NA,NA,NA,NA,NA,NA,NA,NA,NA,NA,NA,NA,NA,NA,NA
17c18,task,flow.Sequence,3_0_0_0_3,NA,NA,completion,10150,252098,252093,252109,262259,262265,2023-04-05T13:06:01Z,262276,NULL,Schock,mshtuko,d,NA,NA,NA,NA,sdf,NA,0,NA,NA,NA,NA,NA,NA,NA,NA,NA,NA,NA,NA,NA,NA,NA,NA,NA,NA,NA
17c18,deep,flow.Sequence,3_0_0_0_4_0,NA,NA,skipped,NA,262265,NA,NA,262259,262265,2023-04-05T13:06:01Z,262276,NULL,Wettbewerb,ushindani,s,mapendezi,kichocheo,ubaguzi,NA,sdf,NA,0,NA,NA,NA,NA,NA,NA,NA,NA,NA,NA,NA,NA,NA,NA,NA,NA,NA,NA,NA
17c18,Shallow Question,html.Page,3_0_0_0_4_1_0,NA,NA,form submission,9666,262265,262259,262276,271942,271943,2023-04-05T13:06:11Z,271943,NULL,Wettbewerb,ushindani,s,mapendezi,kichocheo,ubaguzi,ubaguzi,NA,NA,0,NA,NA,NA,NA,NA,NA,NA,NA,NA,NA,NA,NA,NA,NA,NA,NA,NA,NA,NA
17c18,"""Richtig""-Screen",canvas.Screen,3_0_0_0_4_1_1,NA,NA,skipped,NA,271946,NA,NA,271942,271946,2023-04-05T13:06:11Z,271943,NULL,Wettbewerb,ushindani,s,mapendezi,kichocheo,ubaguzi,NA,sdf,NA,0,NA,NA,NA,NA,NA,NA,NA,NA,NA,NA,NA,NA,NA,NA,NA,NA,NA,NA,NA
17c18,"""Falsch""-Screen",canvas.Screen,3_0_0_0_4_1_2,NA,NA,timeout,5000,271946,271926,271943,276926,276931,2023-04-05T13:06:16Z,276943,NULL,Wettbewerb,ushindani,s,mapendezi,kichocheo,ubaguzi,NA,sdf,0,0,NA,NA,NA,NA,NA,NA,NA,NA,NA,NA,NA,NA,NA,NA,NA,NA,NA,NA,NA
17c18,shallow,flow.Sequence,3_0_0_0_4_1,NA,NA,completion,14650,262265,262259,262276,276926,276931,2023-04-05T13:06:16Z,276943,NULL,Wettbewerb,ushindani,s,mapendezi,kichocheo,ubaguzi,NA,sdf,NA,0,NA,NA,NA,NA,NA,NA,NA,NA,NA,NA,NA,NA,NA,NA,NA,NA,NA,NA,NA
17c18,task,flow.Sequence,3_0_0_0_4,NA,NA,completion,14650,262265,262259,262276,276926,276931,2023-04-05T13:06:16Z,276943,NULL,Wettbewerb,ushindani,s,mapendezi,kichocheo,ubaguzi,NA,sdf,NA,0,NA,NA,NA,NA,NA,NA,NA,NA,NA,NA,NA,NA,NA,NA,NA,NA,NA,NA,NA
17c18,deep,flow.Sequence,3_0_0_0_5_0,NA,NA,skipped,NA,276931,NA,NA,276926,276932,2023-04-05T13:06:16Z,276943,NULL,Auftrag,uagizaji,s,ghanima,kuzingatia,msukani,NA,sdf,NA,0,NA,NA,NA,NA,NA,NA,NA,NA,NA,NA,NA,NA,NA,NA,NA,NA,NA,NA,NA
17c18,Shallow Question,html.Page,3_0_0_0_5_1_0,NA,NA,form submission,6867,276932,276926,276943,283810,283810,2023-04-05T13:06:23Z,283810,NULL,Auftrag,uagizaji,s,ghanima,kuzingatia,msukani,uagizaji,NA,NA,0,NA,NA,NA,NA,NA,NA,NA,NA,NA,NA,NA,NA,NA,NA,NA,NA,NA,NA,NA
17c18,"""Richtig""-Screen",canvas.Screen,3_0_0_0_5_1_1,NA,NA,timeout,5000,283812,283793,283810,288793,288796,2023-04-05T13:06:28Z,288810,NULL,Auftrag,uagizaji,s,ghanima,kuzingatia,msukani,NA,sdf,1,0,NA,NA,NA,NA,NA,NA,NA,NA,NA,NA,NA,NA,NA,NA,NA,NA,NA,NA,NA
17c18,"""Falsch""-Screen",canvas.Screen,3_0_0_0_5_1_2,NA,NA,skipped,NA,288799,NA,NA,288793,288799,2023-04-05T13:06:28Z,288810,NULL,Auftrag,uagizaji,s,ghanima,kuzingatia,msukani,NA,sdf,NA,0,NA,NA,NA,NA,NA,NA,NA,NA,NA,NA,NA,NA,NA,NA,NA,NA,NA,NA,NA
17c18,shallow,flow.Sequence,3_0_0_0_5_1,NA,NA,completion,11850,276932,276926,276943,288793,288800,2023-04-05T13:06:28Z,288810,NULL,Auftrag,uagizaji,s,ghanima,kuzingatia,msukani,NA,sdf,NA,0,NA,NA,NA,NA,NA,NA,NA,NA,NA,NA,NA,NA,NA,NA,NA,NA,NA,NA,NA
17c18,task,flow.Sequence,3_0_0_0_5,NA,NA,completion,11850,276931,276926,276943,288793,288800,2023-04-05T13:06:28Z,288810,NULL,Auftrag,uagizaji,s,ghanima,kuzingatia,msukani,NA,sdf,NA,0,NA,NA,NA,NA,NA,NA,NA,NA,NA,NA,NA,NA,NA,NA,NA,NA,NA,NA,NA
17c18,Deep Question,html.Page,3_0_0_0_6_0_0,NA,NA,form submission,5818,288800,288793,288810,294628,294628,2023-04-05T13:06:34Z,294643,NULL,Zufall,kikuti,d,NA,NA,NA,sua,NA,NA,0,NA,NA,NA,NA,NA,NA,NA,NA,NA,NA,NA,NA,NA,NA,NA,NA,NA,NA,NA
17c18,"""Richtig""-Screen",canvas.Screen,3_0_0_0_6_0_1,NA,NA,skipped,NA,294629,NA,NA,294628,294629,2023-04-05T13:06:34Z,294643,NULL,Zufall,kikuti,d,NA,NA,NA,NA,sdf,NA,0,NA,NA,NA,NA,NA,NA,NA,NA,NA,NA,NA,NA,NA,NA,NA,NA,NA,NA,NA
17c18,"""Falsch""-Screen",canvas.Screen,3_0_0_0_6_0_2,NA,NA,timeout,5000,294630,294626,294643,299626,299631,2023-04-05T13:06:39Z,299643,NULL,Zufall,kikuti,d,NA,NA,NA,NA,sdf,0,0,NA,NA,NA,NA,NA,NA,NA,NA,NA,NA,NA,NA,NA,NA,NA,NA,NA,NA,NA
17c18,deep,flow.Sequence,3_0_0_0_6_0,NA,NA,completion,10816,288800,288793,288810,299626,299631,2023-04-05T13:06:39Z,299643,NULL,Zufall,kikuti,d,NA,NA,NA,NA,sdf,NA,0,NA,NA,NA,NA,NA,NA,NA,NA,NA,NA,NA,NA,NA,NA,NA,NA,NA,NA,NA
17c18,shallow,flow.Sequence,3_0_0_0_6_1,NA,NA,skipped,NA,299631,NA,NA,299626,299631,2023-04-05T13:06:39Z,299643,NULL,Zufall,kikuti,d,NA,NA,NA,NA,sdf,NA,0,NA,NA,NA,NA,NA,NA,NA,NA,NA,NA,NA,NA,NA,NA,NA,NA,NA,NA,NA
17c18,task,flow.Sequence,3_0_0_0_6,NA,NA,completion,10816,288800,288793,288810,299626,299631,2023-04-05T13:06:39Z,299643,NULL,Zufall,kikuti,d,NA,NA,NA,NA,sdf,NA,0,NA,NA,NA,NA,NA,NA,NA,NA,NA,NA,NA,NA,NA,NA,NA,NA,NA,NA,NA
17c18,deep,flow.Sequence,3_0_0_0_7_0,NA,NA,skipped,NA,299631,NA,NA,299626,299631,2023-04-05T13:06:39Z,299643,NULL,Verpackung,ufungaji,s,uhusiano,upimaji,uchunguzi,NA,sdf,NA,0,NA,NA,NA,NA,NA,NA,NA,NA,NA,NA,NA,NA,NA,NA,NA,NA,NA,NA,NA
17c18,Shallow Question,html.Page,3_0_0_0_7_1_0,NA,NA,form submission,11642,299631,299626,299643,311285,311285,2023-04-05T13:06:50Z,311293,NULL,Verpackung,ufungaji,s,uhusiano,upimaji,uchunguzi,upimaji,NA,NA,0,NA,NA,NA,NA,NA,NA,NA,NA,NA,NA,NA,NA,NA,NA,NA,NA,NA,NA,NA
17c18,"""Richtig""-Screen",canvas.Screen,3_0_0_0_7_1_1,NA,NA,skipped,NA,311287,NA,NA,311285,311287,2023-04-05T13:06:50Z,311293,NULL,Verpackung,ufungaji,s,uhusiano,upimaji,uchunguzi,NA,sdf,NA,0,NA,NA,NA,NA,NA,NA,NA,NA,NA,NA,NA,NA,NA,NA,NA,NA,NA,NA,NA
17c18,"""Falsch""-Screen",canvas.Screen,3_0_0_0_7_1_2,NA,NA,timeout,5000,311288,311276,311293,316276,316279,2023-04-05T13:06:55Z,316293,NULL,Verpackung,ufungaji,s,uhusiano,upimaji,uchunguzi,NA,sdf,0,0,NA,NA,NA,NA,NA,NA,NA,NA,NA,NA,NA,NA,NA,NA,NA,NA,NA,NA,NA
17c18,shallow,flow.Sequence,3_0_0_0_7_1,NA,NA,completion,16633,299631,299626,299643,316276,316280,2023-04-05T13:06:55Z,316293,NULL,Verpackung,ufungaji,s,uhusiano,upimaji,uchunguzi,NA,sdf,NA,0,NA,NA,NA,NA,NA,NA,NA,NA,NA,NA,NA,NA,NA,NA,NA,NA,NA,NA,NA
17c18,task,flow.Sequence,3_0_0_0_7,NA,NA,completion,16633,299631,299626,299643,316276,316280,2023-04-05T13:06:55Z,316293,NULL,Verpackung,ufungaji,s,uhusiano,upimaji,uchunguzi,NA,sdf,NA,0,NA,NA,NA,NA,NA,NA,NA,NA,NA,NA,NA,NA,NA,NA,NA,NA,NA,NA,NA
17c18,block,flow.Loop,3_0_0_0,NA,NA,completion,98635,217644,217574,217641,316276,316280,2023-04-05T13:06:55Z,316293,NULL,NA,NA,NA,NA,NA,NA,NA,sdf,NA,0,NA,NA,NA,NA,NA,NA,NA,NA,NA,NA,NA,NA,NA,NA,NA,NA,NA,NA,NA
17c18,weiter,canvas.Screen,3_0_0_1,sdf,keypress(Space),response,2667,316280,316276,316293,318960,318966,2023-04-05T13:06:58Z,319009,NULL,NA,NA,NA,NA,NA,NA,NA,sdf,NA,0,NA,NA,NA,NA,NA,NA,NA,NA,NA,NA,NA,NA,NA,NA,NA,NA,NA,NA,NA
17c18,check continue,flow.Sequence,3_0_0,NA,NA,completion,101319,217644,217574,217641,318960,318967,2023-04-05T13:06:58Z,319009,NULL,NA,NA,NA,NA,NA,NA,NA,sdf,NA,0,NA,NA,NA,NA,NA,NA,NA,NA,NA,NA,NA,NA,NA,NA,NA,NA,NA,NA,NA
17c18,deep,flow.Sequence,3_0_1_0_0_0,NA,NA,skipped,NA,318992,NA,NA,318960,318993,2023-04-05T13:06:58Z,319009,NULL,Wettbewerb,ushindani,s,mapendezi,kichocheo,ubaguzi,NA,sdfdsf,NA,1,NA,NA,NA,NA,NA,NA,NA,NA,NA,NA,NA,NA,NA,NA,NA,NA,NA,NA,NA
17c18,Shallow Question,html.Page,3_0_1_0_0_1_0,NA,NA,form submission,6134,318993,318993,319009,325143,325143,2023-04-05T13:07:04Z,325143,NULL,Wettbewerb,ushindani,s,mapendezi,kichocheo,ubaguzi,ushindani,NA,NA,1,NA,NA,NA,NA,NA,NA,NA,NA,NA,NA,NA,NA,NA,NA,NA,NA,NA,NA,NA
17c18,"""Richtig""-Screen",canvas.Screen,3_0_1_0_0_1_1,NA,NA,timeout,5000,325145,325127,325143,330126,330130,2023-04-05T13:07:09Z,330143,NULL,Wettbewerb,ushindani,s,mapendezi,kichocheo,ubaguzi,NA,sdfdsf,1,1,NA,NA,NA,NA,NA,NA,NA,NA,NA,NA,NA,NA,NA,NA,NA,NA,NA,NA,NA
17c18,"""Falsch""-Screen",canvas.Screen,3_0_1_0_0_1_2,NA,NA,skipped,NA,330133,NA,NA,330126,330134,2023-04-05T13:07:09Z,330143,NULL,Wettbewerb,ushindani,s,mapendezi,kichocheo,ubaguzi,NA,sdfdsf,NA,1,NA,NA,NA,NA,NA,NA,NA,NA,NA,NA,NA,NA,NA,NA,NA,NA,NA,NA,NA
17c18,shallow,flow.Sequence,3_0_1_0_0_1,NA,NA,completion,11117,318993,318993,319009,330126,330134,2023-04-05T13:07:09Z,330143,NULL,Wettbewerb,ushindani,s,mapendezi,kichocheo,ubaguzi,NA,sdfdsf,NA,1,NA,NA,NA,NA,NA,NA,NA,NA,NA,NA,NA,NA,NA,NA,NA,NA,NA,NA,NA
17c18,task,flow.Sequence,3_0_1_0_0,NA,NA,completion,11117,318992,318993,319009,330126,330134,2023-04-05T13:07:09Z,330143,NULL,Wettbewerb,ushindani,s,mapendezi,kichocheo,ubaguzi,NA,sdfdsf,NA,1,NA,NA,NA,NA,NA,NA,NA,NA,NA,NA,NA,NA,NA,NA,NA,NA,NA,NA,NA
17c18,deep,flow.Sequence,3_0_1_0_1_0,NA,NA,skipped,NA,330134,NA,NA,330126,330134,2023-04-05T13:07:09Z,330143,NULL,Hoffnung,matarajio,s,kutaalamika,uratibu,mvumbuzi,NA,sdfdsf,NA,1,NA,NA,NA,NA,NA,NA,NA,NA,NA,NA,NA,NA,NA,NA,NA,NA,NA,NA,NA
17c18,Shallow Question,html.Page,3_0_1_0_1_1_0,NA,NA,form submission,10866,330134,330126,330143,341009,341009,2023-04-05T13:07:20Z,341010,NULL,Hoffnung,matarajio,s,kutaalamika,uratibu,mvumbuzi,matarajio,NA,NA,1,NA,NA,NA,NA,NA,NA,NA,NA,NA,NA,NA,NA,NA,NA,NA,NA,NA,NA,NA
17c18,"""Richtig""-Screen",canvas.Screen,3_0_1_0_1_1_1,NA,NA,timeout,5000,341011,340993,341010,345993,345998,2023-04-05T13:07:25Z,346010,NULL,Hoffnung,matarajio,s,kutaalamika,uratibu,mvumbuzi,NA,sdfdsf,1,1,NA,NA,NA,NA,NA,NA,NA,NA,NA,NA,NA,NA,NA,NA,NA,NA,NA,NA,NA
17c18,"""Falsch""-Screen",canvas.Screen,3_0_1_0_1_1_2,NA,NA,skipped,NA,346000,NA,NA,345993,346000,2023-04-05T13:07:25Z,346010,NULL,Hoffnung,matarajio,s,kutaalamika,uratibu,mvumbuzi,NA,sdfdsf,NA,1,NA,NA,NA,NA,NA,NA,NA,NA,NA,NA,NA,NA,NA,NA,NA,NA,NA,NA,NA
17c18,shallow,flow.Sequence,3_0_1_0_1_1,NA,NA,completion,15850,330134,330126,330143,345993,346000,2023-04-05T13:07:25Z,346010,NULL,Hoffnung,matarajio,s,kutaalamika,uratibu,mvumbuzi,NA,sdfdsf,NA,1,NA,NA,NA,NA,NA,NA,NA,NA,NA,NA,NA,NA,NA,NA,NA,NA,NA,NA,NA
17c18,task,flow.Sequence,3_0_1_0_1,NA,NA,completion,15850,330134,330126,330143,345993,346000,2023-04-05T13:07:25Z,346010,NULL,Hoffnung,matarajio,s,kutaalamika,uratibu,mvumbuzi,NA,sdfdsf,NA,1,NA,NA,NA,NA,NA,NA,NA,NA,NA,NA,NA,NA,NA,NA,NA,NA,NA,NA,NA
17c18,deep,flow.Sequence,3_0_1_0_2_0,NA,NA,skipped,NA,346000,NA,NA,345993,346001,2023-04-05T13:07:25Z,346010,NULL,Verpackung,ufungaji,s,uhusiano,upimaji,uchunguzi,NA,sdfdsf,NA,1,NA,NA,NA,NA,NA,NA,NA,NA,NA,NA,NA,NA,NA,NA,NA,NA,NA,NA,NA
17c18,Shallow Question,html.Page,3_0_1_0_2_1_0,NA,NA,form submission,8799,346001,345993,346010,354809,354809,2023-04-05T13:07:34Z,354810,NULL,Verpackung,ufungaji,s,uhusiano,upimaji,uchunguzi,upimaji,NA,NA,1,NA,NA,NA,NA,NA,NA,NA,NA,NA,NA,NA,NA,NA,NA,NA,NA,NA,NA,NA
17c18,"""Richtig""-Screen",canvas.Screen,3_0_1_0_2_1_1,NA,NA,skipped,NA,354811,NA,NA,354809,354812,2023-04-05T13:07:34Z,354810,NULL,Verpackung,ufungaji,s,uhusiano,upimaji,uchunguzi,NA,sdfdsf,NA,1,NA,NA,NA,NA,NA,NA,NA,NA,NA,NA,NA,NA,NA,NA,NA,NA,NA,NA,NA
17c18,"""Falsch""-Screen",canvas.Screen,3_0_1_0_2_1_2,NA,NA,timeout,5000,354812,354793,354810,359793,359798,2023-04-05T13:07:39Z,359810,NULL,Verpackung,ufungaji,s,uhusiano,upimaji,uchunguzi,NA,sdfdsf,0,1,NA,NA,NA,NA,NA,NA,NA,NA,NA,NA,NA,NA,NA,NA,NA,NA,NA,NA,NA
17c18,shallow,flow.Sequence,3_0_1_0_2_1,NA,NA,completion,13783,346001,345993,346010,359793,359798,2023-04-05T13:07:39Z,359810,NULL,Verpackung,ufungaji,s,uhusiano,upimaji,uchunguzi,NA,sdfdsf,NA,1,NA,NA,NA,NA,NA,NA,NA,NA,NA,NA,NA,NA,NA,NA,NA,NA,NA,NA,NA
17c18,task,flow.Sequence,3_0_1_0_2,NA,NA,completion,13783,346000,345993,346010,359793,359798,2023-04-05T13:07:39Z,359810,NULL,Verpackung,ufungaji,s,uhusiano,upimaji,uchunguzi,NA,sdfdsf,NA,1,NA,NA,NA,NA,NA,NA,NA,NA,NA,NA,NA,NA,NA,NA,NA,NA,NA,NA,NA
17c18,Deep Question,html.Page,3_0_1_0_3_0_0,NA,NA,form submission,12985,359798,359793,359810,372795,372795,2023-04-05T13:07:52Z,372810,NULL,Schock,mshtuko,d,NA,NA,NA,suoj,NA,NA,1,NA,NA,NA,NA,NA,NA,NA,NA,NA,NA,NA,NA,NA,NA,NA,NA,NA,NA,NA
17c18,"""Richtig""-Screen",canvas.Screen,3_0_1_0_3_0_1,NA,NA,skipped,NA,372797,NA,NA,372795,372797,2023-04-05T13:07:52Z,372810,NULL,Schock,mshtuko,d,NA,NA,NA,NA,sdfdsf,NA,1,NA,NA,NA,NA,NA,NA,NA,NA,NA,NA,NA,NA,NA,NA,NA,NA,NA,NA,NA
17c18,"""Falsch""-Screen",canvas.Screen,3_0_1_0_3_0_2,NA,NA,timeout,5000,372798,372794,372810,377793,377797,2023-04-05T13:07:57Z,377810,NULL,Schock,mshtuko,d,NA,NA,NA,NA,sdfdsf,0,1,NA,NA,NA,NA,NA,NA,NA,NA,NA,NA,NA,NA,NA,NA,NA,NA,NA,NA,NA
17c18,deep,flow.Sequence,3_0_1_0_3_0,NA,NA,completion,17983,359798,359793,359810,377793,377797,2023-04-05T13:07:57Z,377810,NULL,Schock,mshtuko,d,NA,NA,NA,NA,sdfdsf,NA,1,NA,NA,NA,NA,NA,NA,NA,NA,NA,NA,NA,NA,NA,NA,NA,NA,NA,NA,NA
17c18,shallow,flow.Sequence,3_0_1_0_3_1,NA,NA,skipped,NA,377797,NA,NA,377793,377798,2023-04-05T13:07:57Z,377810,NULL,Schock,mshtuko,d,NA,NA,NA,NA,sdfdsf,NA,1,NA,NA,NA,NA,NA,NA,NA,NA,NA,NA,NA,NA,NA,NA,NA,NA,NA,NA,NA
17c18,task,flow.Sequence,3_0_1_0_3,NA,NA,completion,17983,359798,359793,359810,377793,377798,2023-04-05T13:07:57Z,377810,NULL,Schock,mshtuko,d,NA,NA,NA,NA,sdfdsf,NA,1,NA,NA,NA,NA,NA,NA,NA,NA,NA,NA,NA,NA,NA,NA,NA,NA,NA,NA,NA
17c18,Deep Question,html.Page,3_0_1_0_4_0_0,NA,NA,form submission,4532,377798,377793,377810,382342,382342,2023-04-05T13:08:01Z,382344,NULL,Schönheit,kirembo,d,NA,NA,NA,belli,NA,NA,1,NA,NA,NA,NA,NA,NA,NA,NA,NA,NA,NA,NA,NA,NA,NA,NA,NA,NA,NA
17c18,"""Richtig""-Screen",canvas.Screen,3_0_1_0_4_0_1,NA,NA,skipped,NA,382344,NA,NA,382342,382344,2023-04-05T13:08:01Z,382344,NULL,Schönheit,kirembo,d,NA,NA,NA,NA,sdfdsf,NA,1,NA,NA,NA,NA,NA,NA,NA,NA,NA,NA,NA,NA,NA,NA,NA,NA,NA,NA,NA
17c18,"""Falsch""-Screen",canvas.Screen,3_0_1_0_4_0_2,NA,NA,timeout,5000,382344,382327,382344,387327,387332,2023-04-05T13:08:06Z,387344,NULL,Schönheit,kirembo,d,NA,NA,NA,NA,sdfdsf,0,1,NA,NA,NA,NA,NA,NA,NA,NA,NA,NA,NA,NA,NA,NA,NA,NA,NA,NA,NA
17c18,deep,flow.Sequence,3_0_1_0_4_0,NA,NA,completion,9517,377798,377793,377810,387327,387332,2023-04-05T13:08:06Z,387344,NULL,Schönheit,kirembo,d,NA,NA,NA,NA,sdfdsf,NA,1,NA,NA,NA,NA,NA,NA,NA,NA,NA,NA,NA,NA,NA,NA,NA,NA,NA,NA,NA
17c18,shallow,flow.Sequence,3_0_1_0_4_1,NA,NA,skipped,NA,387332,NA,NA,387327,387332,2023-04-05T13:08:06Z,387344,NULL,Schönheit,kirembo,d,NA,NA,NA,NA,sdfdsf,NA,1,NA,NA,NA,NA,NA,NA,NA,NA,NA,NA,NA,NA,NA,NA,NA,NA,NA,NA,NA
17c18,task,flow.Sequence,3_0_1_0_4,NA,NA,completion,9517,377798,377793,377810,387327,387333,2023-04-05T13:08:06Z,387344,NULL,Schönheit,kirembo,d,NA,NA,NA,NA,sdfdsf,NA,1,NA,NA,NA,NA,NA,NA,NA,NA,NA,NA,NA,NA,NA,NA,NA,NA,NA,NA,NA
17c18,Deep Question,html.Page,3_0_1_0_5_0_0,NA,NA,form submission,4855,387333,387327,387344,392199,392199,2023-04-05T13:08:11Z,392210,NULL,Theorie,nadharia,d,NA,NA,NA,teoria,NA,NA,1,NA,NA,NA,NA,NA,NA,NA,NA,NA,NA,NA,NA,NA,NA,NA,NA,NA,NA,NA
17c18,"""Richtig""-Screen",canvas.Screen,3_0_1_0_5_0_1,NA,NA,skipped,NA,392202,NA,NA,392199,392202,2023-04-05T13:08:11Z,392210,NULL,Theorie,nadharia,d,NA,NA,NA,NA,sdfdsf,NA,1,NA,NA,NA,NA,NA,NA,NA,NA,NA,NA,NA,NA,NA,NA,NA,NA,NA,NA,NA
17c18,"""Falsch""-Screen",canvas.Screen,3_0_1_0_5_0_2,NA,NA,timeout,5000,392202,392194,392210,397194,397197,2023-04-05T13:08:16Z,397210,NULL,Theorie,nadharia,d,NA,NA,NA,NA,sdfdsf,0,1,NA,NA,NA,NA,NA,NA,NA,NA,NA,NA,NA,NA,NA,NA,NA,NA,NA,NA,NA
17c18,deep,flow.Sequence,3_0_1_0_5_0,NA,NA,completion,9850,387333,387327,387344,397194,397197,2023-04-05T13:08:16Z,397210,NULL,Theorie,nadharia,d,NA,NA,NA,NA,sdfdsf,NA,1,NA,NA,NA,NA,NA,NA,NA,NA,NA,NA,NA,NA,NA,NA,NA,NA,NA,NA,NA
17c18,shallow,flow.Sequence,3_0_1_0_5_1,NA,NA,skipped,NA,397197,NA,NA,397194,397198,2023-04-05T13:08:16Z,397210,NULL,Theorie,nadharia,d,NA,NA,NA,NA,sdfdsf,NA,1,NA,NA,NA,NA,NA,NA,NA,NA,NA,NA,NA,NA,NA,NA,NA,NA,NA,NA,NA
17c18,task,flow.Sequence,3_0_1_0_5,NA,NA,completion,9850,387333,387327,387344,397194,397198,2023-04-05T13:08:16Z,397210,NULL,Theorie,nadharia,d,NA,NA,NA,NA,sdfdsf,NA,1,NA,NA,NA,NA,NA,NA,NA,NA,NA,NA,NA,NA,NA,NA,NA,NA,NA,NA,NA
17c18,deep,flow.Sequence,3_0_1_0_6_0,NA,NA,skipped,NA,397198,NA,NA,397194,397198,2023-04-05T13:08:16Z,397210,NULL,Auftrag,uagizaji,s,ghanima,kuzingatia,msukani,NA,sdfdsf,NA,1,NA,NA,NA,NA,NA,NA,NA,NA,NA,NA,NA,NA,NA,NA,NA,NA,NA,NA,NA
17c18,Shallow Question,html.Page,3_0_1_0_6_1_0,NA,NA,form submission,10616,397198,397194,397210,407826,407826,2023-04-05T13:08:27Z,407827,NULL,Auftrag,uagizaji,s,ghanima,kuzingatia,msukani,uagizaji,NA,NA,1,NA,NA,NA,NA,NA,NA,NA,NA,NA,NA,NA,NA,NA,NA,NA,NA,NA,NA,NA
17c18,"""Richtig""-Screen",canvas.Screen,3_0_1_0_6_1_1,NA,NA,timeout,5000,407828,407810,407827,412810,412815,2023-04-05T13:08:32Z,412827,NULL,Auftrag,uagizaji,s,ghanima,kuzingatia,msukani,NA,sdfdsf,1,1,NA,NA,NA,NA,NA,NA,NA,NA,NA,NA,NA,NA,NA,NA,NA,NA,NA,NA,NA
17c18,"""Falsch""-Screen",canvas.Screen,3_0_1_0_6_1_2,NA,NA,skipped,NA,412818,NA,NA,412810,412818,2023-04-05T13:08:32Z,412827,NULL,Auftrag,uagizaji,s,ghanima,kuzingatia,msukani,NA,sdfdsf,NA,1,NA,NA,NA,NA,NA,NA,NA,NA,NA,NA,NA,NA,NA,NA,NA,NA,NA,NA,NA
17c18,shallow,flow.Sequence,3_0_1_0_6_1,NA,NA,completion,15600,397198,397194,397210,412810,412818,2023-04-05T13:08:32Z,412827,NULL,Auftrag,uagizaji,s,ghanima,kuzingatia,msukani,NA,sdfdsf,NA,1,NA,NA,NA,NA,NA,NA,NA,NA,NA,NA,NA,NA,NA,NA,NA,NA,NA,NA,NA
17c18,task,flow.Sequence,3_0_1_0_6,NA,NA,completion,15600,397198,397194,397210,412810,412818,2023-04-05T13:08:32Z,412827,NULL,Auftrag,uagizaji,s,ghanima,kuzingatia,msukani,NA,sdfdsf,NA,1,NA,NA,NA,NA,NA,NA,NA,NA,NA,NA,NA,NA,NA,NA,NA,NA,NA,NA,NA
17c18,Deep Question,html.Page,3_0_1_0_7_0_0,NA,NA,form submission,8007,412818,412810,412827,420834,420834,2023-04-05T13:08:40Z,420844,NULL,Zufall,kikuti,d,NA,NA,NA,trim,NA,NA,1,NA,NA,NA,NA,NA,NA,NA,NA,NA,NA,NA,NA,NA,NA,NA,NA,NA,NA,NA
17c18,"""Richtig""-Screen",canvas.Screen,3_0_1_0_7_0_1,NA,NA,skipped,NA,420836,NA,NA,420834,420836,2023-04-05T13:08:40Z,420844,NULL,Zufall,kikuti,d,NA,NA,NA,NA,sdfdsf,NA,1,NA,NA,NA,NA,NA,NA,NA,NA,NA,NA,NA,NA,NA,NA,NA,NA,NA,NA,NA
17c18,"""Falsch""-Screen",canvas.Screen,3_0_1_0_7_0_2,NA,NA,timeout,4999,420836,420827,420844,425827,425831,2023-04-05T13:08:45Z,425843,NULL,Zufall,kikuti,d,NA,NA,NA,NA,sdfdsf,0,1,NA,NA,NA,NA,NA,NA,NA,NA,NA,NA,NA,NA,NA,NA,NA,NA,NA,NA,NA
17c18,deep,flow.Sequence,3_0_1_0_7_0,NA,NA,completion,13000,412818,412810,412827,425827,425831,2023-04-05T13:08:45Z,425843,NULL,Zufall,kikuti,d,NA,NA,NA,NA,sdfdsf,NA,1,NA,NA,NA,NA,NA,NA,NA,NA,NA,NA,NA,NA,NA,NA,NA,NA,NA,NA,NA
17c18,shallow,flow.Sequence,3_0_1_0_7_1,NA,NA,skipped,NA,425831,NA,NA,425827,425832,2023-04-05T13:08:45Z,425843,NULL,Zufall,kikuti,d,NA,NA,NA,NA,sdfdsf,NA,1,NA,NA,NA,NA,NA,NA,NA,NA,NA,NA,NA,NA,NA,NA,NA,NA,NA,NA,NA
17c18,task,flow.Sequence,3_0_1_0_7,NA,NA,completion,13000,412818,412810,412827,425827,425832,2023-04-05T13:08:45Z,425843,NULL,Zufall,kikuti,d,NA,NA,NA,NA,sdfdsf,NA,1,NA,NA,NA,NA,NA,NA,NA,NA,NA,NA,NA,NA,NA,NA,NA,NA,NA,NA,NA
17c18,block,flow.Loop,3_0_1_0,NA,NA,completion,106818,318992,318993,319009,425827,425832,2023-04-05T13:08:45Z,425843,NULL,NA,NA,NA,NA,NA,NA,NA,sdfdsf,NA,1,NA,NA,NA,NA,NA,NA,NA,NA,NA,NA,NA,NA,NA,NA,NA,NA,NA,NA,NA
17c18,weiter,canvas.Screen,3_0_1_1,sdf,keypress(Space),response,9925,425832,425827,425843,435768,435775,2023-04-05T13:08:55Z,435810,NULL,NA,NA,NA,NA,NA,NA,NA,sdfdsf,NA,1,NA,NA,NA,NA,NA,NA,NA,NA,NA,NA,NA,NA,NA,NA,NA,NA,NA,NA,NA
17c18,check continue,flow.Sequence,3_0_1,NA,NA,completion,116759,318992,318993,319009,435768,435775,2023-04-05T13:08:55Z,435810,NULL,NA,NA,NA,NA,NA,NA,NA,sdfdsf,NA,1,NA,NA,NA,NA,NA,NA,NA,NA,NA,NA,NA,NA,NA,NA,NA,NA,NA,NA,NA
17c18,Deep Question,html.Page,3_0_2_0_0_0_0,NA,NA,form submission,17854,435801,435794,435810,453664,453664,2023-04-05T13:09:13Z,453677,NULL,Schock,mshtuko,d,NA,NA,NA,jocki,NA,NA,2,NA,NA,NA,NA,NA,NA,NA,NA,NA,NA,NA,NA,NA,NA,NA,NA,NA,NA,NA
17c18,"""Richtig""-Screen",canvas.Screen,3_0_2_0_0_0_1,NA,NA,skipped,NA,453666,NA,NA,453664,453666,2023-04-05T13:09:13Z,453677,NULL,Schock,mshtuko,d,NA,NA,NA,NA,sdf,NA,2,NA,NA,NA,NA,NA,NA,NA,NA,NA,NA,NA,NA,NA,NA,NA,NA,NA,NA,NA
17c18,"""Falsch""-Screen",canvas.Screen,3_0_2_0_0_0_2,NA,NA,timeout,5000,453667,453660,453677,458660,458663,2023-04-05T13:09:18Z,458677,NULL,Schock,mshtuko,d,NA,NA,NA,NA,sdf,0,2,NA,NA,NA,NA,NA,NA,NA,NA,NA,NA,NA,NA,NA,NA,NA,NA,NA,NA,NA
17c18,deep,flow.Sequence,3_0_2_0_0_0,NA,NA,completion,22850,435801,435794,435810,458660,458663,2023-04-05T13:09:18Z,458677,NULL,Schock,mshtuko,d,NA,NA,NA,NA,sdf,NA,2,NA,NA,NA,NA,NA,NA,NA,NA,NA,NA,NA,NA,NA,NA,NA,NA,NA,NA,NA
17c18,shallow,flow.Sequence,3_0_2_0_0_1,NA,NA,skipped,NA,458664,NA,NA,458660,458664,2023-04-05T13:09:18Z,458677,NULL,Schock,mshtuko,d,NA,NA,NA,NA,sdf,NA,2,NA,NA,NA,NA,NA,NA,NA,NA,NA,NA,NA,NA,NA,NA,NA,NA,NA,NA,NA
17c18,task,flow.Sequence,3_0_2_0_0,NA,NA,completion,22850,435801,435794,435810,458660,458664,2023-04-05T13:09:18Z,458677,NULL,Schock,mshtuko,d,NA,NA,NA,NA,sdf,NA,2,NA,NA,NA,NA,NA,NA,NA,NA,NA,NA,NA,NA,NA,NA,NA,NA,NA,NA,NA
17c18,deep,flow.Sequence,3_0_2_0_1_0,NA,NA,skipped,NA,458664,NA,NA,458660,458664,2023-04-05T13:09:18Z,458677,NULL,Auftrag,uagizaji,s,ghanima,kuzingatia,msukani,NA,sdf,NA,2,NA,NA,NA,NA,NA,NA,NA,NA,NA,NA,NA,NA,NA,NA,NA,NA,NA,NA,NA
17c18,Shallow Question,html.Page,3_0_2_0_1_1_0,NA,NA,form submission,18665,458664,458660,458677,477342,477342,2023-04-05T13:09:36Z,477344,NULL,Auftrag,uagizaji,s,ghanima,kuzingatia,msukani,uagizaji,NA,NA,2,NA,NA,NA,NA,NA,NA,NA,NA,NA,NA,NA,NA,NA,NA,NA,NA,NA,NA,NA
17c18,"""Richtig""-Screen",canvas.Screen,3_0_2_0_1_1_1,NA,NA,timeout,5000,477344,477327,477344,482327,482332,2023-04-05T13:09:41Z,482344,NULL,Auftrag,uagizaji,s,ghanima,kuzingatia,msukani,NA,sdf,1,2,NA,NA,NA,NA,NA,NA,NA,NA,NA,NA,NA,NA,NA,NA,NA,NA,NA,NA,NA
17c18,"""Falsch""-Screen",canvas.Screen,3_0_2_0_1_1_2,NA,NA,skipped,NA,482335,NA,NA,482327,482335,2023-04-05T13:09:41Z,482344,NULL,Auftrag,uagizaji,s,ghanima,kuzingatia,msukani,NA,sdf,NA,2,NA,NA,NA,NA,NA,NA,NA,NA,NA,NA,NA,NA,NA,NA,NA,NA,NA,NA,NA
17c18,shallow,flow.Sequence,3_0_2_0_1_1,NA,NA,completion,23650,458664,458660,458677,482327,482335,2023-04-05T13:09:41Z,482344,NULL,Auftrag,uagizaji,s,ghanima,kuzingatia,msukani,NA,sdf,NA,2,NA,NA,NA,NA,NA,NA,NA,NA,NA,NA,NA,NA,NA,NA,NA,NA,NA,NA,NA
17c18,task,flow.Sequence,3_0_2_0_1,NA,NA,completion,23650,458664,458660,458677,482327,482335,2023-04-05T13:09:41Z,482344,NULL,Auftrag,uagizaji,s,ghanima,kuzingatia,msukani,NA,sdf,NA,2,NA,NA,NA,NA,NA,NA,NA,NA,NA,NA,NA,NA,NA,NA,NA,NA,NA,NA,NA
17c18,Deep Question,html.Page,3_0_2_0_2_0_0,NA,NA,form submission,30439,482335,482327,482344,512783,512783,2023-04-05T13:10:12Z,512794,NULL,Zufall,kikuti,d,NA,NA,NA,zufji,NA,NA,2,NA,NA,NA,NA,NA,NA,NA,NA,NA,NA,NA,NA,NA,NA,NA,NA,NA,NA,NA
17c18,"""Richtig""-Screen",canvas.Screen,3_0_2_0_2_0_1,NA,NA,skipped,NA,512785,NA,NA,512783,512785,2023-04-05T13:10:12Z,512794,NULL,Zufall,kikuti,d,NA,NA,NA,NA,sdf,NA,2,NA,NA,NA,NA,NA,NA,NA,NA,NA,NA,NA,NA,NA,NA,NA,NA,NA,NA,NA
17c18,"""Falsch""-Screen",canvas.Screen,3_0_2_0_2_0_2,NA,NA,timeout,5000,512786,512777,512794,517777,517782,2023-04-05T13:10:17Z,517794,NULL,Zufall,kikuti,d,NA,NA,NA,NA,sdf,0,2,NA,NA,NA,NA,NA,NA,NA,NA,NA,NA,NA,NA,NA,NA,NA,NA,NA,NA,NA
17c18,deep,flow.Sequence,3_0_2_0_2_0,NA,NA,completion,35433,482335,482327,482344,517777,517783,2023-04-05T13:10:17Z,517794,NULL,Zufall,kikuti,d,NA,NA,NA,NA,sdf,NA,2,NA,NA,NA,NA,NA,NA,NA,NA,NA,NA,NA,NA,NA,NA,NA,NA,NA,NA,NA
17c18,shallow,flow.Sequence,3_0_2_0_2_1,NA,NA,skipped,NA,517783,NA,NA,517777,517783,2023-04-05T13:10:17Z,517794,NULL,Zufall,kikuti,d,NA,NA,NA,NA,sdf,NA,2,NA,NA,NA,NA,NA,NA,NA,NA,NA,NA,NA,NA,NA,NA,NA,NA,NA,NA,NA
17c18,task,flow.Sequence,3_0_2_0_2,NA,NA,completion,35433,482335,482327,482344,517777,517783,2023-04-05T13:10:17Z,517794,NULL,Zufall,kikuti,d,NA,NA,NA,NA,sdf,NA,2,NA,NA,NA,NA,NA,NA,NA,NA,NA,NA,NA,NA,NA,NA,NA,NA,NA,NA,NA
17c18,deep,flow.Sequence,3_0_2_0_3_0,NA,NA,skipped,NA,517783,NA,NA,517777,517784,2023-04-05T13:10:17Z,517794,NULL,Hoffnung,matarajio,s,kutaalamika,uratibu,mvumbuzi,NA,sdf,NA,2,NA,NA,NA,NA,NA,NA,NA,NA,NA,NA,NA,NA,NA,NA,NA,NA,NA,NA,NA
17c18,Shallow Question,html.Page,3_0_2_0_3_1_0,NA,NA,form submission,27364,517784,517777,517794,545158,545159,2023-04-05T13:10:44Z,545161,NULL,Hoffnung,matarajio,s,kutaalamika,uratibu,mvumbuzi,matarajio,NA,NA,2,NA,NA,NA,NA,NA,NA,NA,NA,NA,NA,NA,NA,NA,NA,NA,NA,NA,NA,NA
17c18,"""Richtig""-Screen",canvas.Screen,3_0_2_0_3_1_1,NA,NA,timeout,5000,545161,545145,545161,550144,550147,2023-04-05T13:10:49Z,550161,NULL,Hoffnung,matarajio,s,kutaalamika,uratibu,mvumbuzi,NA,sdf,1,2,NA,NA,NA,NA,NA,NA,NA,NA,NA,NA,NA,NA,NA,NA,NA,NA,NA,NA,NA
17c18,"""Falsch""-Screen",canvas.Screen,3_0_2_0_3_1_2,NA,NA,skipped,NA,550150,NA,NA,550144,550150,2023-04-05T13:10:49Z,550161,NULL,Hoffnung,matarajio,s,kutaalamika,uratibu,mvumbuzi,NA,sdf,NA,2,NA,NA,NA,NA,NA,NA,NA,NA,NA,NA,NA,NA,NA,NA,NA,NA,NA,NA,NA
17c18,shallow,flow.Sequence,3_0_2_0_3_1,NA,NA,completion,32350,517784,517777,517794,550144,550150,2023-04-05T13:10:49Z,550161,NULL,Hoffnung,matarajio,s,kutaalamika,uratibu,mvumbuzi,NA,sdf,NA,2,NA,NA,NA,NA,NA,NA,NA,NA,NA,NA,NA,NA,NA,NA,NA,NA,NA,NA,NA
17c18,task,flow.Sequence,3_0_2_0_3,NA,NA,completion,32350,517783,517777,517794,550144,550150,2023-04-05T13:10:49Z,550161,NULL,Hoffnung,matarajio,s,kutaalamika,uratibu,mvumbuzi,NA,sdf,NA,2,NA,NA,NA,NA,NA,NA,NA,NA,NA,NA,NA,NA,NA,NA,NA,NA,NA,NA,NA
17c18,Deep Question,html.Page,3_0_2_0_4_0_0,NA,NA,form submission,14961,550150,550144,550161,565122,565122,2023-04-05T13:11:04Z,565128,NULL,Theorie,nadharia,d,NA,NA,NA,riju,NA,NA,2,NA,NA,NA,NA,NA,NA,NA,NA,NA,NA,NA,NA,NA,NA,NA,NA,NA,NA,NA
17c18,"""Richtig""-Screen",canvas.Screen,3_0_2_0_4_0_1,NA,NA,skipped,NA,565123,NA,NA,565122,565124,2023-04-05T13:11:04Z,565128,NULL,Theorie,nadharia,d,NA,NA,NA,NA,sdf,NA,2,NA,NA,NA,NA,NA,NA,NA,NA,NA,NA,NA,NA,NA,NA,NA,NA,NA,NA,NA
17c18,"""Falsch""-Screen",canvas.Screen,3_0_2_0_4_0_2,NA,NA,timeout,5000,565124,565111,565128,570111,570116,2023-04-05T13:11:09Z,570128,NULL,Theorie,nadharia,d,NA,NA,NA,NA,sdf,0,2,NA,NA,NA,NA,NA,NA,NA,NA,NA,NA,NA,NA,NA,NA,NA,NA,NA,NA,NA
17c18,deep,flow.Sequence,3_0_2_0_4_0,NA,NA,completion,19950,550150,550144,550161,570111,570116,2023-04-05T13:11:09Z,570128,NULL,Theorie,nadharia,d,NA,NA,NA,NA,sdf,NA,2,NA,NA,NA,NA,NA,NA,NA,NA,NA,NA,NA,NA,NA,NA,NA,NA,NA,NA,NA
17c18,shallow,flow.Sequence,3_0_2_0_4_1,NA,NA,skipped,NA,570116,NA,NA,570111,570116,2023-04-05T13:11:09Z,570128,NULL,Theorie,nadharia,d,NA,NA,NA,NA,sdf,NA,2,NA,NA,NA,NA,NA,NA,NA,NA,NA,NA,NA,NA,NA,NA,NA,NA,NA,NA,NA
17c18,task,flow.Sequence,3_0_2_0_4,NA,NA,completion,19950,550150,550144,550161,570111,570116,2023-04-05T13:11:09Z,570128,NULL,Theorie,nadharia,d,NA,NA,NA,NA,sdf,NA,2,NA,NA,NA,NA,NA,NA,NA,NA,NA,NA,NA,NA,NA,NA,NA,NA,NA,NA,NA
17c18,deep,flow.Sequence,3_0_2_0_5_0,NA,NA,skipped,NA,570116,NA,NA,570111,570116,2023-04-05T13:11:09Z,570128,NULL,Verpackung,ufungaji,s,uhusiano,upimaji,uchunguzi,NA,sdf,NA,2,NA,NA,NA,NA,NA,NA,NA,NA,NA,NA,NA,NA,NA,NA,NA,NA,NA,NA,NA
17c18,Shallow Question,html.Page,3_0_2_0_5_1_0,NA,NA,form submission,25531,570116,570111,570128,595659,595659,2023-04-05T13:11:35Z,595662,NULL,Verpackung,ufungaji,s,uhusiano,upimaji,uchunguzi,ufungaji,NA,NA,2,NA,NA,NA,NA,NA,NA,NA,NA,NA,NA,NA,NA,NA,NA,NA,NA,NA,NA,NA
17c18,"""Richtig""-Screen",canvas.Screen,3_0_2_0_5_1_1,NA,NA,timeout,4999,595661,595645,595662,600645,600648,2023-04-05T13:11:40Z,600661,NULL,Verpackung,ufungaji,s,uhusiano,upimaji,uchunguzi,NA,sdf,1,2,NA,NA,NA,NA,NA,NA,NA,NA,NA,NA,NA,NA,NA,NA,NA,NA,NA,NA,NA
17c18,"""Falsch""-Screen",canvas.Screen,3_0_2_0_5_1_2,NA,NA,skipped,NA,600650,NA,NA,600645,600650,2023-04-05T13:11:40Z,600661,NULL,Verpackung,ufungaji,s,uhusiano,upimaji,uchunguzi,NA,sdf,NA,2,NA,NA,NA,NA,NA,NA,NA,NA,NA,NA,NA,NA,NA,NA,NA,NA,NA,NA,NA
17c18,shallow,flow.Sequence,3_0_2_0_5_1,NA,NA,completion,30517,570116,570111,570128,600645,600650,2023-04-05T13:11:40Z,600661,NULL,Verpackung,ufungaji,s,uhusiano,upimaji,uchunguzi,NA,sdf,NA,2,NA,NA,NA,NA,NA,NA,NA,NA,NA,NA,NA,NA,NA,NA,NA,NA,NA,NA,NA
17c18,task,flow.Sequence,3_0_2_0_5,NA,NA,completion,30517,570116,570111,570128,600645,600651,2023-04-05T13:11:40Z,600661,NULL,Verpackung,ufungaji,s,uhusiano,upimaji,uchunguzi,NA,sdf,NA,2,NA,NA,NA,NA,NA,NA,NA,NA,NA,NA,NA,NA,NA,NA,NA,NA,NA,NA,NA
17c18,Deep Question,html.Page,3_0_2_0_6_0_0,NA,NA,form submission,15198,600651,600645,600661,615859,615859,2023-04-05T13:11:55Z,615861,NULL,Schönheit,kirembo,d,NA,NA,NA,iuj,NA,NA,2,NA,NA,NA,NA,NA,NA,NA,NA,NA,NA,NA,NA,NA,NA,NA,NA,NA,NA,NA
17c18,"""Richtig""-Screen",canvas.Screen,3_0_2_0_6_0_1,NA,NA,skipped,NA,615861,NA,NA,615859,615861,2023-04-05T13:11:55Z,615861,NULL,Schönheit,kirembo,d,NA,NA,NA,NA,sdf,NA,2,NA,NA,NA,NA,NA,NA,NA,NA,NA,NA,NA,NA,NA,NA,NA,NA,NA,NA,NA
17c18,"""Falsch""-Screen",canvas.Screen,3_0_2_0_6_0_2,NA,NA,timeout,5000,615861,615845,615861,620845,620849,2023-04-05T13:12:00Z,620861,NULL,Schönheit,kirembo,d,NA,NA,NA,NA,sdf,0,2,NA,NA,NA,NA,NA,NA,NA,NA,NA,NA,NA,NA,NA,NA,NA,NA,NA,NA,NA
17c18,deep,flow.Sequence,3_0_2_0_6_0,NA,NA,completion,20184,600651,600645,600661,620845,620850,2023-04-05T13:12:00Z,620861,NULL,Schönheit,kirembo,d,NA,NA,NA,NA,sdf,NA,2,NA,NA,NA,NA,NA,NA,NA,NA,NA,NA,NA,NA,NA,NA,NA,NA,NA,NA,NA
17c18,shallow,flow.Sequence,3_0_2_0_6_1,NA,NA,skipped,NA,620850,NA,NA,620845,620850,2023-04-05T13:12:00Z,620861,NULL,Schönheit,kirembo,d,NA,NA,NA,NA,sdf,NA,2,NA,NA,NA,NA,NA,NA,NA,NA,NA,NA,NA,NA,NA,NA,NA,NA,NA,NA,NA
17c18,task,flow.Sequence,3_0_2_0_6,NA,NA,completion,20184,600651,600645,600661,620845,620850,2023-04-05T13:12:00Z,620861,NULL,Schönheit,kirembo,d,NA,NA,NA,NA,sdf,NA,2,NA,NA,NA,NA,NA,NA,NA,NA,NA,NA,NA,NA,NA,NA,NA,NA,NA,NA,NA
17c18,deep,flow.Sequence,3_0_2_0_7_0,NA,NA,skipped,NA,620850,NA,NA,620845,620850,2023-04-05T13:12:00Z,620861,NULL,Wettbewerb,ushindani,s,mapendezi,kichocheo,ubaguzi,NA,sdf,NA,2,NA,NA,NA,NA,NA,NA,NA,NA,NA,NA,NA,NA,NA,NA,NA,NA,NA,NA,NA
17c18,Shallow Question,html.Page,3_0_2_0_7_1_0,NA,NA,form submission,11064,620850,620845,620861,631925,631926,2023-04-05T13:12:11Z,631928,NULL,Wettbewerb,ushindani,s,mapendezi,kichocheo,ubaguzi,ushindani,NA,NA,2,NA,NA,NA,NA,NA,NA,NA,NA,NA,NA,NA,NA,NA,NA,NA,NA,NA,NA,NA
17c18,"""Richtig""-Screen",canvas.Screen,3_0_2_0_7_1_1,NA,NA,timeout,5000,631928,631912,631928,636911,636914,2023-04-05T13:12:16Z,636928,NULL,Wettbewerb,ushindani,s,mapendezi,kichocheo,ubaguzi,NA,sdf,1,2,NA,NA,NA,NA,NA,NA,NA,NA,NA,NA,NA,NA,NA,NA,NA,NA,NA,NA,NA
17c18,"""Falsch""-Screen",canvas.Screen,3_0_2_0_7_1_2,NA,NA,skipped,NA,636917,NA,NA,636911,636917,2023-04-05T13:12:16Z,636928,NULL,Wettbewerb,ushindani,s,mapendezi,kichocheo,ubaguzi,NA,sdf,NA,2,NA,NA,NA,NA,NA,NA,NA,NA,NA,NA,NA,NA,NA,NA,NA,NA,NA,NA,NA
17c18,shallow,flow.Sequence,3_0_2_0_7_1,NA,NA,completion,16050,620850,620845,620861,636911,636917,2023-04-05T13:12:16Z,636928,NULL,Wettbewerb,ushindani,s,mapendezi,kichocheo,ubaguzi,NA,sdf,NA,2,NA,NA,NA,NA,NA,NA,NA,NA,NA,NA,NA,NA,NA,NA,NA,NA,NA,NA,NA
17c18,task,flow.Sequence,3_0_2_0_7,NA,NA,completion,16050,620850,620845,620861,636911,636917,2023-04-05T13:12:16Z,636928,NULL,Wettbewerb,ushindani,s,mapendezi,kichocheo,ubaguzi,NA,sdf,NA,2,NA,NA,NA,NA,NA,NA,NA,NA,NA,NA,NA,NA,NA,NA,NA,NA,NA,NA,NA
17c18,block,flow.Loop,3_0_2_0,NA,NA,completion,201101,435801,435794,435810,636911,636917,2023-04-05T13:12:16Z,636928,NULL,NA,NA,NA,NA,NA,NA,NA,sdf,NA,2,NA,NA,NA,NA,NA,NA,NA,NA,NA,NA,NA,NA,NA,NA,NA,NA,NA,NA,NA
17c18,weiter,canvas.Screen,3_0_2_1,sdf,keypress(Space),response,1447,636917,636911,636928,638375,638380,2023-04-05T13:12:18Z,638395,NULL,NA,NA,NA,NA,NA,NA,NA,sdf,NA,2,NA,NA,NA,NA,NA,NA,NA,NA,NA,NA,NA,NA,NA,NA,NA,NA,NA,NA,NA
17c18,check continue,flow.Sequence,3_0_2,NA,NA,completion,202565,435801,435794,435810,638375,638380,2023-04-05T13:12:18Z,638395,NULL,NA,NA,NA,NA,NA,NA,NA,sdf,NA,2,NA,NA,NA,NA,NA,NA,NA,NA,NA,NA,NA,NA,NA,NA,NA,NA,NA,NA,NA
17c18,Deep Question,html.Page,3_0_3_0_0_0_0,NA,NA,form submission,15472,638405,638378,638395,653867,653868,2023-04-05T13:12:33Z,653878,NULL,Theorie,nadharia,d,NA,NA,NA,tr,NA,NA,3,NA,NA,NA,NA,NA,NA,NA,NA,NA,NA,NA,NA,NA,NA,NA,NA,NA,NA,NA
17c18,"""Richtig""-Screen",canvas.Screen,3_0_3_0_0_0_1,NA,NA,skipped,NA,653869,NA,NA,653867,653870,2023-04-05T13:12:33Z,653878,NULL,Theorie,nadharia,d,NA,NA,NA,NA,qt,NA,3,NA,NA,NA,NA,NA,NA,NA,NA,NA,NA,NA,NA,NA,NA,NA,NA,NA,NA,NA
17c18,"""Falsch""-Screen",canvas.Screen,3_0_3_0_0_0_2,NA,NA,timeout,5000,653870,653862,653878,658861,658866,2023-04-05T13:12:38Z,658878,NULL,Theorie,nadharia,d,NA,NA,NA,NA,qt,0,3,NA,NA,NA,NA,NA,NA,NA,NA,NA,NA,NA,NA,NA,NA,NA,NA,NA,NA,NA
17c18,deep,flow.Sequence,3_0_3_0_0_0,NA,NA,completion,20466,638405,638378,638395,658861,658866,2023-04-05T13:12:38Z,658878,NULL,Theorie,nadharia,d,NA,NA,NA,NA,qt,NA,3,NA,NA,NA,NA,NA,NA,NA,NA,NA,NA,NA,NA,NA,NA,NA,NA,NA,NA,NA
17c18,shallow,flow.Sequence,3_0_3_0_0_1,NA,NA,skipped,NA,658866,NA,NA,658861,658866,2023-04-05T13:12:38Z,658878,NULL,Theorie,nadharia,d,NA,NA,NA,NA,qt,NA,3,NA,NA,NA,NA,NA,NA,NA,NA,NA,NA,NA,NA,NA,NA,NA,NA,NA,NA,NA
17c18,task,flow.Sequence,3_0_3_0_0,NA,NA,completion,20466,638405,638378,638395,658861,658866,2023-04-05T13:12:38Z,658878,NULL,Theorie,nadharia,d,NA,NA,NA,NA,qt,NA,3,NA,NA,NA,NA,NA,NA,NA,NA,NA,NA,NA,NA,NA,NA,NA,NA,NA,NA,NA
17c18,deep,flow.Sequence,3_0_3_0_1_0,NA,NA,skipped,NA,658866,NA,NA,658861,658866,2023-04-05T13:12:38Z,658878,NULL,Auftrag,uagizaji,s,ghanima,kuzingatia,msukani,NA,qt,NA,3,NA,NA,NA,NA,NA,NA,NA,NA,NA,NA,NA,NA,NA,NA,NA,NA,NA,NA,NA
17c18,Shallow Question,html.Page,3_0_3_0_1_1_0,NA,NA,form submission,30848,658867,658861,658878,689726,689726,2023-04-05T13:13:09Z,689729,NULL,Auftrag,uagizaji,s,ghanima,kuzingatia,msukani,uagizaji,NA,NA,3,NA,NA,NA,NA,NA,NA,NA,NA,NA,NA,NA,NA,NA,NA,NA,NA,NA,NA,NA
17c18,"""Richtig""-Screen",canvas.Screen,3_0_3_0_1_1_1,NA,NA,timeout,4999,689728,689712,689729,694712,694717,2023-04-05T13:13:14Z,694728,NULL,Auftrag,uagizaji,s,ghanima,kuzingatia,msukani,NA,qt,1,3,NA,NA,NA,NA,NA,NA,NA,NA,NA,NA,NA,NA,NA,NA,NA,NA,NA,NA,NA
17c18,"""Falsch""-Screen",canvas.Screen,3_0_3_0_1_1_2,NA,NA,skipped,NA,694719,NA,NA,694712,694719,2023-04-05T13:13:14Z,694728,NULL,Auftrag,uagizaji,s,ghanima,kuzingatia,msukani,NA,qt,NA,3,NA,NA,NA,NA,NA,NA,NA,NA,NA,NA,NA,NA,NA,NA,NA,NA,NA,NA,NA
17c18,shallow,flow.Sequence,3_0_3_0_1_1,NA,NA,completion,35834,658867,658861,658878,694712,694719,2023-04-05T13:13:14Z,694728,NULL,Auftrag,uagizaji,s,ghanima,kuzingatia,msukani,NA,qt,NA,3,NA,NA,NA,NA,NA,NA,NA,NA,NA,NA,NA,NA,NA,NA,NA,NA,NA,NA,NA
17c18,task,flow.Sequence,3_0_3_0_1,NA,NA,completion,35834,658866,658861,658878,694712,694719,2023-04-05T13:13:14Z,694728,NULL,Auftrag,uagizaji,s,ghanima,kuzingatia,msukani,NA,qt,NA,3,NA,NA,NA,NA,NA,NA,NA,NA,NA,NA,NA,NA,NA,NA,NA,NA,NA,NA,NA
17c18,deep,flow.Sequence,3_0_3_0_2_0,NA,NA,skipped,NA,694719,NA,NA,694712,694719,2023-04-05T13:13:14Z,694728,NULL,Wettbewerb,ushindani,s,mapendezi,kichocheo,ubaguzi,NA,qt,NA,3,NA,NA,NA,NA,NA,NA,NA,NA,NA,NA,NA,NA,NA,NA,NA,NA,NA,NA,NA
17c18,Shallow Question,html.Page,3_0_3_0_2_1_0,NA,NA,form submission,5781,694719,694712,694728,700509,700509,2023-04-05T13:13:20Z,700512,NULL,Wettbewerb,ushindani,s,mapendezi,kichocheo,ubaguzi,ushindani,NA,NA,3,NA,NA,NA,NA,NA,NA,NA,NA,NA,NA,NA,NA,NA,NA,NA,NA,NA,NA,NA
17c18,"""Richtig""-Screen",canvas.Screen,3_0_3_0_2_1_1,NA,NA,timeout,5000,700511,700495,700512,705495,705500,2023-04-05T13:13:25Z,705512,NULL,Wettbewerb,ushindani,s,mapendezi,kichocheo,ubaguzi,NA,qt,1,3,NA,NA,NA,NA,NA,NA,NA,NA,NA,NA,NA,NA,NA,NA,NA,NA,NA,NA,NA
17c18,"""Falsch""-Screen",canvas.Screen,3_0_3_0_2_1_2,NA,NA,skipped,NA,705502,NA,NA,705495,705502,2023-04-05T13:13:25Z,705512,NULL,Wettbewerb,ushindani,s,mapendezi,kichocheo,ubaguzi,NA,qt,NA,3,NA,NA,NA,NA,NA,NA,NA,NA,NA,NA,NA,NA,NA,NA,NA,NA,NA,NA,NA
17c18,shallow,flow.Sequence,3_0_3_0_2_1,NA,NA,completion,10767,694719,694712,694728,705495,705502,2023-04-05T13:13:25Z,705512,NULL,Wettbewerb,ushindani,s,mapendezi,kichocheo,ubaguzi,NA,qt,NA,3,NA,NA,NA,NA,NA,NA,NA,NA,NA,NA,NA,NA,NA,NA,NA,NA,NA,NA,NA
17c18,task,flow.Sequence,3_0_3_0_2,NA,NA,completion,10767,694719,694712,694728,705495,705502,2023-04-05T13:13:25Z,705512,NULL,Wettbewerb,ushindani,s,mapendezi,kichocheo,ubaguzi,NA,qt,NA,3,NA,NA,NA,NA,NA,NA,NA,NA,NA,NA,NA,NA,NA,NA,NA,NA,NA,NA,NA
17c18,deep,flow.Sequence,3_0_3_0_3_0,NA,NA,skipped,NA,705503,NA,NA,705495,705503,2023-04-05T13:13:25Z,705512,NULL,Verpackung,ufungaji,s,uhusiano,upimaji,uchunguzi,NA,qt,NA,3,NA,NA,NA,NA,NA,NA,NA,NA,NA,NA,NA,NA,NA,NA,NA,NA,NA,NA,NA
17c18,Shallow Question,html.Page,3_0_3_0_3_1_0,NA,NA,form submission,19697,705503,705495,705512,725209,725209,2023-04-05T13:13:44Z,725212,NULL,Verpackung,ufungaji,s,uhusiano,upimaji,uchunguzi,ufungaji,NA,NA,3,NA,NA,NA,NA,NA,NA,NA,NA,NA,NA,NA,NA,NA,NA,NA,NA,NA,NA,NA
17c18,"""Richtig""-Screen",canvas.Screen,3_0_3_0_3_1_1,NA,NA,timeout,5000,725211,725195,725212,730195,730199,2023-04-05T13:13:49Z,730212,NULL,Verpackung,ufungaji,s,uhusiano,upimaji,uchunguzi,NA,qt,1,3,NA,NA,NA,NA,NA,NA,NA,NA,NA,NA,NA,NA,NA,NA,NA,NA,NA,NA,NA
17c18,"""Falsch""-Screen",canvas.Screen,3_0_3_0_3_1_2,NA,NA,skipped,NA,730202,NA,NA,730195,730203,2023-04-05T13:13:49Z,730212,NULL,Verpackung,ufungaji,s,uhusiano,upimaji,uchunguzi,NA,qt,NA,3,NA,NA,NA,NA,NA,NA,NA,NA,NA,NA,NA,NA,NA,NA,NA,NA,NA,NA,NA
17c18,shallow,flow.Sequence,3_0_3_0_3_1,NA,NA,completion,24683,705503,705495,705512,730195,730203,2023-04-05T13:13:49Z,730212,NULL,Verpackung,ufungaji,s,uhusiano,upimaji,uchunguzi,NA,qt,NA,3,NA,NA,NA,NA,NA,NA,NA,NA,NA,NA,NA,NA,NA,NA,NA,NA,NA,NA,NA
17c18,task,flow.Sequence,3_0_3_0_3,NA,NA,completion,24683,705503,705495,705512,730195,730203,2023-04-05T13:13:49Z,730212,NULL,Verpackung,ufungaji,s,uhusiano,upimaji,uchunguzi,NA,qt,NA,3,NA,NA,NA,NA,NA,NA,NA,NA,NA,NA,NA,NA,NA,NA,NA,NA,NA,NA,NA
17c18,Deep Question,html.Page,3_0_3_0_4_0_0,NA,NA,form submission,7646,730203,730195,730212,737858,737858,2023-04-05T13:13:57Z,737862,NULL,Schock,mshtuko,d,NA,NA,NA,h,NA,NA,3,NA,NA,NA,NA,NA,NA,NA,NA,NA,NA,NA,NA,NA,NA,NA,NA,NA,NA,NA
17c18,"""Richtig""-Screen",canvas.Screen,3_0_3_0_4_0_1,NA,NA,skipped,NA,737860,NA,NA,737858,737860,2023-04-05T13:13:57Z,737862,NULL,Schock,mshtuko,d,NA,NA,NA,NA,qt,NA,3,NA,NA,NA,NA,NA,NA,NA,NA,NA,NA,NA,NA,NA,NA,NA,NA,NA,NA,NA
17c18,"""Falsch""-Screen",canvas.Screen,3_0_3_0_4_0_2,NA,NA,timeout,5000,737861,737845,737862,742845,742850,2023-04-05T13:14:02Z,742862,NULL,Schock,mshtuko,d,NA,NA,NA,NA,qt,0,3,NA,NA,NA,NA,NA,NA,NA,NA,NA,NA,NA,NA,NA,NA,NA,NA,NA,NA,NA
17c18,deep,flow.Sequence,3_0_3_0_4_0,NA,NA,completion,12633,730203,730195,730212,742845,742851,2023-04-05T13:14:02Z,742862,NULL,Schock,mshtuko,d,NA,NA,NA,NA,qt,NA,3,NA,NA,NA,NA,NA,NA,NA,NA,NA,NA,NA,NA,NA,NA,NA,NA,NA,NA,NA
17c18,shallow,flow.Sequence,3_0_3_0_4_1,NA,NA,skipped,NA,742851,NA,NA,742845,742851,2023-04-05T13:14:02Z,742862,NULL,Schock,mshtuko,d,NA,NA,NA,NA,qt,NA,3,NA,NA,NA,NA,NA,NA,NA,NA,NA,NA,NA,NA,NA,NA,NA,NA,NA,NA,NA
17c18,task,flow.Sequence,3_0_3_0_4,NA,NA,completion,12633,730203,730195,730212,742845,742851,2023-04-05T13:14:02Z,742862,NULL,Schock,mshtuko,d,NA,NA,NA,NA,qt,NA,3,NA,NA,NA,NA,NA,NA,NA,NA,NA,NA,NA,NA,NA,NA,NA,NA,NA,NA,NA
17c18,Deep Question,html.Page,3_0_3_0_5_0_0,NA,NA,form submission,21659,742851,742845,742862,764521,764521,2023-04-05T13:14:24Z,764529,NULL,Zufall,kikuti,d,NA,NA,NA,j,NA,NA,3,NA,NA,NA,NA,NA,NA,NA,NA,NA,NA,NA,NA,NA,NA,NA,NA,NA,NA,NA
17c18,"""Richtig""-Screen",canvas.Screen,3_0_3_0_5_0_1,NA,NA,skipped,NA,764523,NA,NA,764521,764523,2023-04-05T13:14:24Z,764529,NULL,Zufall,kikuti,d,NA,NA,NA,NA,qt,NA,3,NA,NA,NA,NA,NA,NA,NA,NA,NA,NA,NA,NA,NA,NA,NA,NA,NA,NA,NA
17c18,"""Falsch""-Screen",canvas.Screen,3_0_3_0_5_0_2,NA,NA,timeout,4999,764524,764512,764529,769512,769517,2023-04-05T13:14:29Z,769528,NULL,Zufall,kikuti,d,NA,NA,NA,NA,qt,0,3,NA,NA,NA,NA,NA,NA,NA,NA,NA,NA,NA,NA,NA,NA,NA,NA,NA,NA,NA
17c18,deep,flow.Sequence,3_0_3_0_5_0,NA,NA,completion,26650,742851,742845,742862,769512,769517,2023-04-05T13:14:29Z,769528,NULL,Zufall,kikuti,d,NA,NA,NA,NA,qt,NA,3,NA,NA,NA,NA,NA,NA,NA,NA,NA,NA,NA,NA,NA,NA,NA,NA,NA,NA,NA
17c18,shallow,flow.Sequence,3_0_3_0_5_1,NA,NA,skipped,NA,769517,NA,NA,769512,769517,2023-04-05T13:14:29Z,769528,NULL,Zufall,kikuti,d,NA,NA,NA,NA,qt,NA,3,NA,NA,NA,NA,NA,NA,NA,NA,NA,NA,NA,NA,NA,NA,NA,NA,NA,NA,NA
17c18,task,flow.Sequence,3_0_3_0_5,NA,NA,completion,26650,742851,742845,742862,769512,769517,2023-04-05T13:14:29Z,769528,NULL,Zufall,kikuti,d,NA,NA,NA,NA,qt,NA,3,NA,NA,NA,NA,NA,NA,NA,NA,NA,NA,NA,NA,NA,NA,NA,NA,NA,NA,NA
17c18,Deep Question,html.Page,3_0_3_0_6_0_0,NA,NA,form submission,21915,769517,769512,769528,791443,791443,2023-04-05T13:14:51Z,791446,NULL,Schönheit,kirembo,d,NA,NA,NA,kiri,NA,NA,3,NA,NA,NA,NA,NA,NA,NA,NA,NA,NA,NA,NA,NA,NA,NA,NA,NA,NA,NA
17c18,"""Richtig""-Screen",canvas.Screen,3_0_3_0_6_0_1,NA,NA,skipped,NA,791445,NA,NA,791443,791445,2023-04-05T13:14:51Z,791446,NULL,Schönheit,kirembo,d,NA,NA,NA,NA,qt,NA,3,NA,NA,NA,NA,NA,NA,NA,NA,NA,NA,NA,NA,NA,NA,NA,NA,NA,NA,NA
17c18,"""Falsch""-Screen",canvas.Screen,3_0_3_0_6_0_2,NA,NA,timeout,5000,791446,791429,791446,796429,796433,2023-04-05T13:14:56Z,796446,NULL,Schönheit,kirembo,d,NA,NA,NA,NA,qt,0,3,NA,NA,NA,NA,NA,NA,NA,NA,NA,NA,NA,NA,NA,NA,NA,NA,NA,NA,NA
17c18,deep,flow.Sequence,3_0_3_0_6_0,NA,NA,completion,26901,769517,769512,769528,796429,796433,2023-04-05T13:14:56Z,796446,NULL,Schönheit,kirembo,d,NA,NA,NA,NA,qt,NA,3,NA,NA,NA,NA,NA,NA,NA,NA,NA,NA,NA,NA,NA,NA,NA,NA,NA,NA,NA
17c18,shallow,flow.Sequence,3_0_3_0_6_1,NA,NA,skipped,NA,796433,NA,NA,796429,796434,2023-04-05T13:14:56Z,796446,NULL,Schönheit,kirembo,d,NA,NA,NA,NA,qt,NA,3,NA,NA,NA,NA,NA,NA,NA,NA,NA,NA,NA,NA,NA,NA,NA,NA,NA,NA,NA
17c18,task,flow.Sequence,3_0_3_0_6,NA,NA,completion,26901,769517,769512,769528,796429,796434,2023-04-05T13:14:56Z,796446,NULL,Schönheit,kirembo,d,NA,NA,NA,NA,qt,NA,3,NA,NA,NA,NA,NA,NA,NA,NA,NA,NA,NA,NA,NA,NA,NA,NA,NA,NA,NA
17c18,deep,flow.Sequence,3_0_3_0_7_0,NA,NA,skipped,NA,796434,NA,NA,796429,796434,2023-04-05T13:14:56Z,796446,NULL,Hoffnung,matarajio,s,kutaalamika,uratibu,mvumbuzi,NA,qt,NA,3,NA,NA,NA,NA,NA,NA,NA,NA,NA,NA,NA,NA,NA,NA,NA,NA,NA,NA,NA
17c18,Shallow Question,html.Page,3_0_3_0_7_1_0,NA,NA,form submission,10913,796434,796429,796446,807359,807359,2023-04-05T13:15:07Z,807363,NULL,Hoffnung,matarajio,s,kutaalamika,uratibu,mvumbuzi,matarajio,NA,NA,3,NA,NA,NA,NA,NA,NA,NA,NA,NA,NA,NA,NA,NA,NA,NA,NA,NA,NA,NA
17c18,"""Richtig""-Screen",canvas.Screen,3_0_3_0_7_1_1,NA,NA,timeout,4999,807361,807346,807363,812346,812349,2023-04-05T13:15:11Z,812362,NULL,Hoffnung,matarajio,s,kutaalamika,uratibu,mvumbuzi,NA,qt,1,3,NA,NA,NA,NA,NA,NA,NA,NA,NA,NA,NA,NA,NA,NA,NA,NA,NA,NA,NA
17c18,"""Falsch""-Screen",canvas.Screen,3_0_3_0_7_1_2,NA,NA,skipped,NA,812351,NA,NA,812346,812351,2023-04-05T13:15:11Z,812362,NULL,Hoffnung,matarajio,s,kutaalamika,uratibu,mvumbuzi,NA,qt,NA,3,NA,NA,NA,NA,NA,NA,NA,NA,NA,NA,NA,NA,NA,NA,NA,NA,NA,NA,NA
17c18,shallow,flow.Sequence,3_0_3_0_7_1,NA,NA,completion,15900,796434,796429,796446,812346,812351,2023-04-05T13:15:11Z,812362,NULL,Hoffnung,matarajio,s,kutaalamika,uratibu,mvumbuzi,NA,qt,NA,3,NA,NA,NA,NA,NA,NA,NA,NA,NA,NA,NA,NA,NA,NA,NA,NA,NA,NA,NA
17c18,task,flow.Sequence,3_0_3_0_7,NA,NA,completion,15900,796434,796429,796446,812346,812352,2023-04-05T13:15:11Z,812362,NULL,Hoffnung,matarajio,s,kutaalamika,uratibu,mvumbuzi,NA,qt,NA,3,NA,NA,NA,NA,NA,NA,NA,NA,NA,NA,NA,NA,NA,NA,NA,NA,NA,NA,NA
17c18,block,flow.Loop,3_0_3_0,NA,NA,completion,173951,638405,638378,638395,812346,812352,2023-04-05T13:15:11Z,812362,NULL,NA,NA,NA,NA,NA,NA,NA,qt,NA,3,NA,NA,NA,NA,NA,NA,NA,NA,NA,NA,NA,NA,NA,NA,NA,NA,NA,NA,NA
17c18,weiter,canvas.Screen,3_0_3_1,sdf,keypress(Space),response,1361,812352,812346,812362,813723,813729,2023-04-05T13:15:13Z,813746,NULL,NA,NA,NA,NA,NA,NA,NA,qt,NA,3,NA,NA,NA,NA,NA,NA,NA,NA,NA,NA,NA,NA,NA,NA,NA,NA,NA,NA,NA
17c18,check continue,flow.Sequence,3_0_3,NA,NA,completion,175328,638405,638378,638395,813723,813729,2023-04-05T13:15:13Z,813746,NULL,NA,NA,NA,NA,NA,NA,NA,qt,NA,3,NA,NA,NA,NA,NA,NA,NA,NA,NA,NA,NA,NA,NA,NA,NA,NA,NA,NA,NA
17c18,Deep Question,html.Page,3_0_4_0_0_0_0,NA,NA,form submission,19135,813755,813712,813746,832881,832881,2023-04-05T13:15:32Z,832895,NULL,Schock,mshtuko,d,NA,NA,NA,smucki,NA,NA,4,NA,NA,NA,NA,NA,NA,NA,NA,NA,NA,NA,NA,NA,NA,NA,NA,NA,NA,NA
17c18,"""Richtig""-Screen",canvas.Screen,3_0_4_0_0_0_1,NA,NA,skipped,NA,832883,NA,NA,832881,832883,2023-04-05T13:15:32Z,832895,NULL,Schock,mshtuko,d,NA,NA,NA,NA,sd,NA,4,NA,NA,NA,NA,NA,NA,NA,NA,NA,NA,NA,NA,NA,NA,NA,NA,NA,NA,NA
17c18,"""Falsch""-Screen",canvas.Screen,3_0_4_0_0_0_2,NA,NA,timeout,5000,832883,832879,832895,837879,837883,2023-04-05T13:15:37Z,837895,NULL,Schock,mshtuko,d,NA,NA,NA,NA,sd,0,4,NA,NA,NA,NA,NA,NA,NA,NA,NA,NA,NA,NA,NA,NA,NA,NA,NA,NA,NA
17c18,deep,flow.Sequence,3_0_4_0_0_0,NA,NA,completion,24133,813755,813712,813746,837879,837883,2023-04-05T13:15:37Z,837895,NULL,Schock,mshtuko,d,NA,NA,NA,NA,sd,NA,4,NA,NA,NA,NA,NA,NA,NA,NA,NA,NA,NA,NA,NA,NA,NA,NA,NA,NA,NA
17c18,shallow,flow.Sequence,3_0_4_0_0_1,NA,NA,skipped,NA,837883,NA,NA,837879,837883,2023-04-05T13:15:37Z,837895,NULL,Schock,mshtuko,d,NA,NA,NA,NA,sd,NA,4,NA,NA,NA,NA,NA,NA,NA,NA,NA,NA,NA,NA,NA,NA,NA,NA,NA,NA,NA
17c18,task,flow.Sequence,3_0_4_0_0,NA,NA,completion,24133,813755,813712,813746,837879,837883,2023-04-05T13:15:37Z,837895,NULL,Schock,mshtuko,d,NA,NA,NA,NA,sd,NA,4,NA,NA,NA,NA,NA,NA,NA,NA,NA,NA,NA,NA,NA,NA,NA,NA,NA,NA,NA
17c18,deep,flow.Sequence,3_0_4_0_1_0,NA,NA,skipped,NA,837884,NA,NA,837879,837884,2023-04-05T13:15:37Z,837895,NULL,Auftrag,uagizaji,s,ghanima,kuzingatia,msukani,NA,sd,NA,4,NA,NA,NA,NA,NA,NA,NA,NA,NA,NA,NA,NA,NA,NA,NA,NA,NA,NA,NA
17c18,Shallow Question,html.Page,3_0_4_0_1_1_0,NA,NA,form submission,26763,837884,837879,837895,864658,864658,2023-04-05T13:16:04Z,864663,NULL,Auftrag,uagizaji,s,ghanima,kuzingatia,msukani,uagizaji,NA,NA,4,NA,NA,NA,NA,NA,NA,NA,NA,NA,NA,NA,NA,NA,NA,NA,NA,NA,NA,NA
17c18,"""Richtig""-Screen",canvas.Screen,3_0_4_0_1_1_1,NA,NA,timeout,5000,864661,864646,864663,869646,869650,2023-04-05T13:16:09Z,869663,NULL,Auftrag,uagizaji,s,ghanima,kuzingatia,msukani,NA,sd,1,4,NA,NA,NA,NA,NA,NA,NA,NA,NA,NA,NA,NA,NA,NA,NA,NA,NA,NA,NA
17c18,"""Falsch""-Screen",canvas.Screen,3_0_4_0_1_1_2,NA,NA,skipped,NA,869653,NA,NA,869646,869653,2023-04-05T13:16:09Z,869663,NULL,Auftrag,uagizaji,s,ghanima,kuzingatia,msukani,NA,sd,NA,4,NA,NA,NA,NA,NA,NA,NA,NA,NA,NA,NA,NA,NA,NA,NA,NA,NA,NA,NA
17c18,shallow,flow.Sequence,3_0_4_0_1_1,NA,NA,completion,31751,837884,837879,837895,869646,869653,2023-04-05T13:16:09Z,869663,NULL,Auftrag,uagizaji,s,ghanima,kuzingatia,msukani,NA,sd,NA,4,NA,NA,NA,NA,NA,NA,NA,NA,NA,NA,NA,NA,NA,NA,NA,NA,NA,NA,NA
17c18,task,flow.Sequence,3_0_4_0_1,NA,NA,completion,31751,837884,837879,837895,869646,869653,2023-04-05T13:16:09Z,869663,NULL,Auftrag,uagizaji,s,ghanima,kuzingatia,msukani,NA,sd,NA,4,NA,NA,NA,NA,NA,NA,NA,NA,NA,NA,NA,NA,NA,NA,NA,NA,NA,NA,NA
17c18,deep,flow.Sequence,3_0_4_0_2_0,NA,NA,skipped,NA,869653,NA,NA,869646,869653,2023-04-05T13:16:09Z,869663,NULL,Hoffnung,matarajio,s,kutaalamika,uratibu,mvumbuzi,NA,sd,NA,4,NA,NA,NA,NA,NA,NA,NA,NA,NA,NA,NA,NA,NA,NA,NA,NA,NA,NA,NA
17c18,Shallow Question,html.Page,3_0_4_0_2_1_0,NA,NA,form submission,5229,869654,869646,869663,874892,874892,2023-04-05T13:16:14Z,874896,NULL,Hoffnung,matarajio,s,kutaalamika,uratibu,mvumbuzi,matarajio,NA,NA,4,NA,NA,NA,NA,NA,NA,NA,NA,NA,NA,NA,NA,NA,NA,NA,NA,NA,NA,NA
17c18,"""Richtig""-Screen",canvas.Screen,3_0_4_0_2_1_1,NA,NA,timeout,5000,874894,874880,874896,879879,879881,2023-04-05T13:16:19Z,879896,NULL,Hoffnung,matarajio,s,kutaalamika,uratibu,mvumbuzi,NA,sd,1,4,NA,NA,NA,NA,NA,NA,NA,NA,NA,NA,NA,NA,NA,NA,NA,NA,NA,NA,NA
17c18,"""Falsch""-Screen",canvas.Screen,3_0_4_0_2_1_2,NA,NA,skipped,NA,879885,NA,NA,879879,879885,2023-04-05T13:16:19Z,879896,NULL,Hoffnung,matarajio,s,kutaalamika,uratibu,mvumbuzi,NA,sd,NA,4,NA,NA,NA,NA,NA,NA,NA,NA,NA,NA,NA,NA,NA,NA,NA,NA,NA,NA,NA
17c18,shallow,flow.Sequence,3_0_4_0_2_1,NA,NA,completion,10216,869654,869646,869663,879879,879885,2023-04-05T13:16:19Z,879896,NULL,Hoffnung,matarajio,s,kutaalamika,uratibu,mvumbuzi,NA,sd,NA,4,NA,NA,NA,NA,NA,NA,NA,NA,NA,NA,NA,NA,NA,NA,NA,NA,NA,NA,NA
17c18,task,flow.Sequence,3_0_4_0_2,NA,NA,completion,10216,869653,869646,869663,879879,879885,2023-04-05T13:16:19Z,879896,NULL,Hoffnung,matarajio,s,kutaalamika,uratibu,mvumbuzi,NA,sd,NA,4,NA,NA,NA,NA,NA,NA,NA,NA,NA,NA,NA,NA,NA,NA,NA,NA,NA,NA,NA
17c18,Deep Question,html.Page,3_0_4_0_3_0_0,NA,NA,form submission,6187,879885,879879,879896,886083,886083,2023-04-05T13:16:25Z,886096,NULL,Zufall,kikuti,d,NA,NA,NA,kik,NA,NA,4,NA,NA,NA,NA,NA,NA,NA,NA,NA,NA,NA,NA,NA,NA,NA,NA,NA,NA,NA
17c18,"""Richtig""-Screen",canvas.Screen,3_0_4_0_3_0_1,NA,NA,skipped,NA,886085,NA,NA,886083,886085,2023-04-05T13:16:25Z,886096,NULL,Zufall,kikuti,d,NA,NA,NA,NA,sd,NA,4,NA,NA,NA,NA,NA,NA,NA,NA,NA,NA,NA,NA,NA,NA,NA,NA,NA,NA,NA
17c18,"""Falsch""-Screen",canvas.Screen,3_0_4_0_3_0_2,NA,NA,timeout,5000,886086,886080,886096,891079,891082,2023-04-05T13:16:30Z,891096,NULL,Zufall,kikuti,d,NA,NA,NA,NA,sd,0,4,NA,NA,NA,NA,NA,NA,NA,NA,NA,NA,NA,NA,NA,NA,NA,NA,NA,NA,NA
17c18,deep,flow.Sequence,3_0_4_0_3_0,NA,NA,completion,11183,879885,879879,879896,891079,891083,2023-04-05T13:16:30Z,891096,NULL,Zufall,kikuti,d,NA,NA,NA,NA,sd,NA,4,NA,NA,NA,NA,NA,NA,NA,NA,NA,NA,NA,NA,NA,NA,NA,NA,NA,NA,NA
17c18,shallow,flow.Sequence,3_0_4_0_3_1,NA,NA,skipped,NA,891083,NA,NA,891079,891083,2023-04-05T13:16:30Z,891096,NULL,Zufall,kikuti,d,NA,NA,NA,NA,sd,NA,4,NA,NA,NA,NA,NA,NA,NA,NA,NA,NA,NA,NA,NA,NA,NA,NA,NA,NA,NA
17c18,task,flow.Sequence,3_0_4_0_3,NA,NA,completion,11183,879885,879879,879896,891079,891083,2023-04-05T13:16:30Z,891096,NULL,Zufall,kikuti,d,NA,NA,NA,NA,sd,NA,4,NA,NA,NA,NA,NA,NA,NA,NA,NA,NA,NA,NA,NA,NA,NA,NA,NA,NA,NA
17c18,Deep Question,html.Page,3_0_4_0_4_0_0,NA,NA,form submission,20388,891083,891079,891096,911484,911485,2023-04-05T13:16:51Z,911496,NULL,Theorie,nadharia,d,NA,NA,NA,h,NA,NA,4,NA,NA,NA,NA,NA,NA,NA,NA,NA,NA,NA,NA,NA,NA,NA,NA,NA,NA,NA
17c18,"""Richtig""-Screen",canvas.Screen,3_0_4_0_4_0_1,NA,NA,skipped,NA,911487,NA,NA,911484,911487,2023-04-05T13:16:51Z,911496,NULL,Theorie,nadharia,d,NA,NA,NA,NA,sd,NA,4,NA,NA,NA,NA,NA,NA,NA,NA,NA,NA,NA,NA,NA,NA,NA,NA,NA,NA,NA
17c18,"""Falsch""-Screen",canvas.Screen,3_0_4_0_4_0_2,NA,NA,timeout,5000,911487,911479,911496,916480,916482,2023-04-05T13:16:56Z,916496,NULL,Theorie,nadharia,d,NA,NA,NA,NA,sd,0,4,NA,NA,NA,NA,NA,NA,NA,NA,NA,NA,NA,NA,NA,NA,NA,NA,NA,NA,NA
17c18,deep,flow.Sequence,3_0_4_0_4_0,NA,NA,completion,25384,891083,891079,891096,916480,916482,2023-04-05T13:16:56Z,916496,NULL,Theorie,nadharia,d,NA,NA,NA,NA,sd,NA,4,NA,NA,NA,NA,NA,NA,NA,NA,NA,NA,NA,NA,NA,NA,NA,NA,NA,NA,NA
17c18,shallow,flow.Sequence,3_0_4_0_4_1,NA,NA,skipped,NA,916482,NA,NA,916480,916482,2023-04-05T13:16:56Z,916496,NULL,Theorie,nadharia,d,NA,NA,NA,NA,sd,NA,4,NA,NA,NA,NA,NA,NA,NA,NA,NA,NA,NA,NA,NA,NA,NA,NA,NA,NA,NA
17c18,task,flow.Sequence,3_0_4_0_4,NA,NA,completion,25384,891083,891079,891096,916480,916482,2023-04-05T13:16:56Z,916496,NULL,Theorie,nadharia,d,NA,NA,NA,NA,sd,NA,4,NA,NA,NA,NA,NA,NA,NA,NA,NA,NA,NA,NA,NA,NA,NA,NA,NA,NA,NA
17c18,deep,flow.Sequence,3_0_4_0_5_0,NA,NA,skipped,NA,916483,NA,NA,916480,916483,2023-04-05T13:16:56Z,916496,NULL,Wettbewerb,ushindani,s,mapendezi,kichocheo,ubaguzi,NA,sd,NA,4,NA,NA,NA,NA,NA,NA,NA,NA,NA,NA,NA,NA,NA,NA,NA,NA,NA,NA,NA
17c18,Shallow Question,html.Page,3_0_4_0_5_1_0,NA,NA,form submission,20962,916483,916480,916496,937458,937458,2023-04-05T13:17:17Z,937463,NULL,Wettbewerb,ushindani,s,mapendezi,kichocheo,ubaguzi,ushindani,NA,NA,4,NA,NA,NA,NA,NA,NA,NA,NA,NA,NA,NA,NA,NA,NA,NA,NA,NA,NA,NA
17c18,"""Richtig""-Screen",canvas.Screen,3_0_4_0_5_1_1,NA,NA,timeout,5000,937461,937446,937463,942446,942450,2023-04-05T13:17:22Z,942463,NULL,Wettbewerb,ushindani,s,mapendezi,kichocheo,ubaguzi,NA,sd,1,4,NA,NA,NA,NA,NA,NA,NA,NA,NA,NA,NA,NA,NA,NA,NA,NA,NA,NA,NA
17c18,"""Falsch""-Screen",canvas.Screen,3_0_4_0_5_1_2,NA,NA,skipped,NA,942453,NA,NA,942446,942453,2023-04-05T13:17:22Z,942463,NULL,Wettbewerb,ushindani,s,mapendezi,kichocheo,ubaguzi,NA,sd,NA,4,NA,NA,NA,NA,NA,NA,NA,NA,NA,NA,NA,NA,NA,NA,NA,NA,NA,NA,NA
17c18,shallow,flow.Sequence,3_0_4_0_5_1,NA,NA,completion,25950,916483,916480,916496,942446,942453,2023-04-05T13:17:22Z,942463,NULL,Wettbewerb,ushindani,s,mapendezi,kichocheo,ubaguzi,NA,sd,NA,4,NA,NA,NA,NA,NA,NA,NA,NA,NA,NA,NA,NA,NA,NA,NA,NA,NA,NA,NA
17c18,task,flow.Sequence,3_0_4_0_5,NA,NA,completion,25950,916483,916480,916496,942446,942453,2023-04-05T13:17:22Z,942463,NULL,Wettbewerb,ushindani,s,mapendezi,kichocheo,ubaguzi,NA,sd,NA,4,NA,NA,NA,NA,NA,NA,NA,NA,NA,NA,NA,NA,NA,NA,NA,NA,NA,NA,NA
17c18,deep,flow.Sequence,3_0_4_0_6_0,NA,NA,skipped,NA,942453,NA,NA,942446,942453,2023-04-05T13:17:22Z,942463,NULL,Verpackung,ufungaji,s,uhusiano,upimaji,uchunguzi,NA,sd,NA,4,NA,NA,NA,NA,NA,NA,NA,NA,NA,NA,NA,NA,NA,NA,NA,NA,NA,NA,NA
17c18,Shallow Question,html.Page,3_0_4_0_6_1_0,NA,NA,form submission,11728,942453,942446,942463,954191,954191,2023-04-05T13:17:33Z,954197,NULL,Verpackung,ufungaji,s,uhusiano,upimaji,uchunguzi,ufungaji,NA,NA,4,NA,NA,NA,NA,NA,NA,NA,NA,NA,NA,NA,NA,NA,NA,NA,NA,NA,NA,NA
17c18,"""Richtig""-Screen",canvas.Screen,3_0_4_0_6_1_1,NA,NA,timeout,5000,954193,954180,954197,959180,959185,2023-04-05T13:17:38Z,959197,NULL,Verpackung,ufungaji,s,uhusiano,upimaji,uchunguzi,NA,sd,1,4,NA,NA,NA,NA,NA,NA,NA,NA,NA,NA,NA,NA,NA,NA,NA,NA,NA,NA,NA
17c18,"""Falsch""-Screen",canvas.Screen,3_0_4_0_6_1_2,NA,NA,skipped,NA,959188,NA,NA,959180,959188,2023-04-05T13:17:38Z,959197,NULL,Verpackung,ufungaji,s,uhusiano,upimaji,uchunguzi,NA,sd,NA,4,NA,NA,NA,NA,NA,NA,NA,NA,NA,NA,NA,NA,NA,NA,NA,NA,NA,NA,NA
17c18,shallow,flow.Sequence,3_0_4_0_6_1,NA,NA,completion,16717,942453,942446,942463,959180,959189,2023-04-05T13:17:38Z,959197,NULL,Verpackung,ufungaji,s,uhusiano,upimaji,uchunguzi,NA,sd,NA,4,NA,NA,NA,NA,NA,NA,NA,NA,NA,NA,NA,NA,NA,NA,NA,NA,NA,NA,NA
17c18,task,flow.Sequence,3_0_4_0_6,NA,NA,completion,16717,942453,942446,942463,959180,959189,2023-04-05T13:17:38Z,959197,NULL,Verpackung,ufungaji,s,uhusiano,upimaji,uchunguzi,NA,sd,NA,4,NA,NA,NA,NA,NA,NA,NA,NA,NA,NA,NA,NA,NA,NA,NA,NA,NA,NA,NA
17c18,Deep Question,html.Page,3_0_4_0_7_0_0,NA,NA,form submission,14118,959189,959180,959197,973315,973315,2023-04-05T13:17:52Z,973330,NULL,Schönheit,kirembo,d,NA,NA,NA,kirati,NA,NA,4,NA,NA,NA,NA,NA,NA,NA,NA,NA,NA,NA,NA,NA,NA,NA,NA,NA,NA,NA
17c18,"""Richtig""-Screen",canvas.Screen,3_0_4_0_7_0_1,NA,NA,skipped,NA,973317,NA,NA,973315,973317,2023-04-05T13:17:52Z,973330,NULL,Schönheit,kirembo,d,NA,NA,NA,NA,sd,NA,4,NA,NA,NA,NA,NA,NA,NA,NA,NA,NA,NA,NA,NA,NA,NA,NA,NA,NA,NA
17c18,"""Falsch""-Screen",canvas.Screen,3_0_4_0_7_0_2,NA,NA,timeout,5000,973317,973313,973330,978313,978316,2023-04-05T13:17:57Z,978330,NULL,Schönheit,kirembo,d,NA,NA,NA,NA,sd,0,4,NA,NA,NA,NA,NA,NA,NA,NA,NA,NA,NA,NA,NA,NA,NA,NA,NA,NA,NA
17c18,deep,flow.Sequence,3_0_4_0_7_0,NA,NA,completion,19116,959189,959180,959197,978313,978317,2023-04-05T13:17:57Z,978330,NULL,Schönheit,kirembo,d,NA,NA,NA,NA,sd,NA,4,NA,NA,NA,NA,NA,NA,NA,NA,NA,NA,NA,NA,NA,NA,NA,NA,NA,NA,NA
17c18,shallow,flow.Sequence,3_0_4_0_7_1,NA,NA,skipped,NA,978317,NA,NA,978313,978317,2023-04-05T13:17:57Z,978330,NULL,Schönheit,kirembo,d,NA,NA,NA,NA,sd,NA,4,NA,NA,NA,NA,NA,NA,NA,NA,NA,NA,NA,NA,NA,NA,NA,NA,NA,NA,NA
17c18,task,flow.Sequence,3_0_4_0_7,NA,NA,completion,19116,959189,959180,959197,978313,978317,2023-04-05T13:17:57Z,978330,NULL,Schönheit,kirembo,d,NA,NA,NA,NA,sd,NA,4,NA,NA,NA,NA,NA,NA,NA,NA,NA,NA,NA,NA,NA,NA,NA,NA,NA,NA,NA
17c18,block,flow.Loop,3_0_4_0,NA,NA,completion,164567,813755,813712,813746,978313,978317,2023-04-05T13:17:57Z,978330,NULL,NA,NA,NA,NA,NA,NA,NA,sd,NA,4,NA,NA,NA,NA,NA,NA,NA,NA,NA,NA,NA,NA,NA,NA,NA,NA,NA,NA,NA
17c18,weiter,canvas.Screen,3_0_4_1,sdf,keypress(Space),response,10790,978317,978313,978330,989120,989126,2023-04-05T13:18:08Z,989163,NULL,NA,NA,NA,NA,NA,NA,NA,sd,NA,4,NA,NA,NA,NA,NA,NA,NA,NA,NA,NA,NA,NA,NA,NA,NA,NA,NA,NA,NA
17c18,check continue,flow.Sequence,3_0_4,NA,NA,completion,175374,813755,813712,813746,989120,989126,2023-04-05T13:18:08Z,989163,NULL,NA,NA,NA,NA,NA,NA,NA,sd,NA,4,NA,NA,NA,NA,NA,NA,NA,NA,NA,NA,NA,NA,NA,NA,NA,NA,NA,NA,NA
17c18,deep,flow.Sequence,3_0_5_0_0_0,NA,NA,skipped,NA,989152,NA,NA,989120,989152,2023-04-05T13:18:08Z,989163,NULL,Wettbewerb,ushindani,s,mapendezi,kichocheo,ubaguzi,NA,sdf,NA,5,NA,NA,NA,NA,NA,NA,NA,NA,NA,NA,NA,NA,NA,NA,NA,NA,NA,NA,NA
17c18,Shallow Question,html.Page,3_0_5_0_0_1_0,NA,NA,form submission,12595,989152,989146,989163,1001758,1001758,2023-04-05T13:18:21Z,1001764,NULL,Wettbewerb,ushindani,s,mapendezi,kichocheo,ubaguzi,ushindani,NA,NA,5,NA,NA,NA,NA,NA,NA,NA,NA,NA,NA,NA,NA,NA,NA,NA,NA,NA,NA,NA
17c18,"""Richtig""-Screen",canvas.Screen,3_0_5_0_0_1_1,NA,NA,timeout,4999,1001759,1001747,1001764,1006747,1006748,2023-04-05T13:18:26Z,1006763,NULL,Wettbewerb,ushindani,s,mapendezi,kichocheo,ubaguzi,NA,sdf,1,5,NA,NA,NA,NA,NA,NA,NA,NA,NA,NA,NA,NA,NA,NA,NA,NA,NA,NA,NA
17c18,"""Falsch""-Screen",canvas.Screen,3_0_5_0_0_1_2,NA,NA,skipped,NA,1006752,NA,NA,1006747,1006752,2023-04-05T13:18:26Z,1006763,NULL,Wettbewerb,ushindani,s,mapendezi,kichocheo,ubaguzi,NA,sdf,NA,5,NA,NA,NA,NA,NA,NA,NA,NA,NA,NA,NA,NA,NA,NA,NA,NA,NA,NA,NA
17c18,shallow,flow.Sequence,3_0_5_0_0_1,NA,NA,completion,17584,989152,989146,989163,1006747,1006752,2023-04-05T13:18:26Z,1006763,NULL,Wettbewerb,ushindani,s,mapendezi,kichocheo,ubaguzi,NA,sdf,NA,5,NA,NA,NA,NA,NA,NA,NA,NA,NA,NA,NA,NA,NA,NA,NA,NA,NA,NA,NA
17c18,task,flow.Sequence,3_0_5_0_0,NA,NA,completion,17584,989152,989146,989163,1006747,1006752,2023-04-05T13:18:26Z,1006763,NULL,Wettbewerb,ushindani,s,mapendezi,kichocheo,ubaguzi,NA,sdf,NA,5,NA,NA,NA,NA,NA,NA,NA,NA,NA,NA,NA,NA,NA,NA,NA,NA,NA,NA,NA
17c18,Deep Question,html.Page,3_0_5_0_1_0_0,NA,NA,form submission,30281,1006752,1006747,1006763,1037044,1037044,2023-04-05T13:18:56Z,1037047,NULL,Zufall,kikuti,d,NA,NA,NA,muti,NA,NA,5,NA,NA,NA,NA,NA,NA,NA,NA,NA,NA,NA,NA,NA,NA,NA,NA,NA,NA,NA
17c18,"""Richtig""-Screen",canvas.Screen,3_0_5_0_1_0_1,NA,NA,skipped,NA,1037046,NA,NA,1037044,1037046,2023-04-05T13:18:56Z,1037047,NULL,Zufall,kikuti,d,NA,NA,NA,NA,sdf,NA,5,NA,NA,NA,NA,NA,NA,NA,NA,NA,NA,NA,NA,NA,NA,NA,NA,NA,NA,NA
17c18,"""Falsch""-Screen",canvas.Screen,3_0_5_0_1_0_2,NA,NA,timeout,5000,1037046,1037030,1037047,1042030,1042032,2023-04-05T13:19:01Z,1042047,NULL,Zufall,kikuti,d,NA,NA,NA,NA,sdf,0,5,NA,NA,NA,NA,NA,NA,NA,NA,NA,NA,NA,NA,NA,NA,NA,NA,NA,NA,NA
17c18,deep,flow.Sequence,3_0_5_0_1_0,NA,NA,completion,35267,1006752,1006747,1006763,1042030,1042033,2023-04-05T13:19:01Z,1042047,NULL,Zufall,kikuti,d,NA,NA,NA,NA,sdf,NA,5,NA,NA,NA,NA,NA,NA,NA,NA,NA,NA,NA,NA,NA,NA,NA,NA,NA,NA,NA
17c18,shallow,flow.Sequence,3_0_5_0_1_1,NA,NA,skipped,NA,1042033,NA,NA,1042030,1042033,2023-04-05T13:19:01Z,1042047,NULL,Zufall,kikuti,d,NA,NA,NA,NA,sdf,NA,5,NA,NA,NA,NA,NA,NA,NA,NA,NA,NA,NA,NA,NA,NA,NA,NA,NA,NA,NA
17c18,task,flow.Sequence,3_0_5_0_1,NA,NA,completion,35267,1006752,1006747,1006763,1042030,1042033,2023-04-05T13:19:01Z,1042047,NULL,Zufall,kikuti,d,NA,NA,NA,NA,sdf,NA,5,NA,NA,NA,NA,NA,NA,NA,NA,NA,NA,NA,NA,NA,NA,NA,NA,NA,NA,NA
17c18,deep,flow.Sequence,3_0_5_0_2_0,NA,NA,skipped,NA,1042033,NA,NA,1042030,1042034,2023-04-05T13:19:01Z,1042047,NULL,Hoffnung,matarajio,s,kutaalamika,uratibu,mvumbuzi,NA,sdf,NA,5,NA,NA,NA,NA,NA,NA,NA,NA,NA,NA,NA,NA,NA,NA,NA,NA,NA,NA,NA
17c18,Shallow Question,html.Page,3_0_5_0_2_1_0,NA,NA,form submission,11661,1042034,1042030,1042047,1053708,1053708,2023-04-05T13:19:13Z,1053714,NULL,Hoffnung,matarajio,s,kutaalamika,uratibu,mvumbuzi,matarajio,NA,NA,5,NA,NA,NA,NA,NA,NA,NA,NA,NA,NA,NA,NA,NA,NA,NA,NA,NA,NA,NA
17c18,"""Richtig""-Screen",canvas.Screen,3_0_5_0_2_1_1,NA,NA,timeout,5000,1053710,1053697,1053714,1058697,1058701,2023-04-05T13:19:18Z,1058714,NULL,Hoffnung,matarajio,s,kutaalamika,uratibu,mvumbuzi,NA,sdf,1,5,NA,NA,NA,NA,NA,NA,NA,NA,NA,NA,NA,NA,NA,NA,NA,NA,NA,NA,NA
17c18,"""Falsch""-Screen",canvas.Screen,3_0_5_0_2_1_2,NA,NA,skipped,NA,1058703,NA,NA,1058697,1058703,2023-04-05T13:19:18Z,1058714,NULL,Hoffnung,matarajio,s,kutaalamika,uratibu,mvumbuzi,NA,sdf,NA,5,NA,NA,NA,NA,NA,NA,NA,NA,NA,NA,NA,NA,NA,NA,NA,NA,NA,NA,NA
17c18,shallow,flow.Sequence,3_0_5_0_2_1,NA,NA,completion,16650,1042034,1042030,1042047,1058697,1058703,2023-04-05T13:19:18Z,1058714,NULL,Hoffnung,matarajio,s,kutaalamika,uratibu,mvumbuzi,NA,sdf,NA,5,NA,NA,NA,NA,NA,NA,NA,NA,NA,NA,NA,NA,NA,NA,NA,NA,NA,NA,NA
17c18,task,flow.Sequence,3_0_5_0_2,NA,NA,completion,16650,1042033,1042030,1042047,1058697,1058703,2023-04-05T13:19:18Z,1058714,NULL,Hoffnung,matarajio,s,kutaalamika,uratibu,mvumbuzi,NA,sdf,NA,5,NA,NA,NA,NA,NA,NA,NA,NA,NA,NA,NA,NA,NA,NA,NA,NA,NA,NA,NA
17c18,Deep Question,html.Page,3_0_5_0_3_0_0,NA,NA,form submission,28987,1058704,1058697,1058714,1087701,1087701,2023-04-05T13:19:47Z,1087714,NULL,Schock,mshtuko,d,NA,NA,NA,mhucki,NA,NA,5,NA,NA,NA,NA,NA,NA,NA,NA,NA,NA,NA,NA,NA,NA,NA,NA,NA,NA,NA
17c18,"""Richtig""-Screen",canvas.Screen,3_0_5_0_3_0_1,NA,NA,skipped,NA,1087703,NA,NA,1087701,1087703,2023-04-05T13:19:47Z,1087714,NULL,Schock,mshtuko,d,NA,NA,NA,NA,sdf,NA,5,NA,NA,NA,NA,NA,NA,NA,NA,NA,NA,NA,NA,NA,NA,NA,NA,NA,NA,NA
17c18,"""Falsch""-Screen",canvas.Screen,3_0_5_0_3_0_2,NA,NA,timeout,5000,1087704,1087697,1087714,1092697,1092701,2023-04-05T13:19:52Z,1092714,NULL,Schock,mshtuko,d,NA,NA,NA,NA,sdf,0,5,NA,NA,NA,NA,NA,NA,NA,NA,NA,NA,NA,NA,NA,NA,NA,NA,NA,NA,NA
17c18,deep,flow.Sequence,3_0_5_0_3_0,NA,NA,completion,33983,1058704,1058697,1058714,1092697,1092701,2023-04-05T13:19:52Z,1092714,NULL,Schock,mshtuko,d,NA,NA,NA,NA,sdf,NA,5,NA,NA,NA,NA,NA,NA,NA,NA,NA,NA,NA,NA,NA,NA,NA,NA,NA,NA,NA
17c18,shallow,flow.Sequence,3_0_5_0_3_1,NA,NA,skipped,NA,1092701,NA,NA,1092697,1092701,2023-04-05T13:19:52Z,1092714,NULL,Schock,mshtuko,d,NA,NA,NA,NA,sdf,NA,5,NA,NA,NA,NA,NA,NA,NA,NA,NA,NA,NA,NA,NA,NA,NA,NA,NA,NA,NA
17c18,task,flow.Sequence,3_0_5_0_3,NA,NA,completion,33983,1058704,1058697,1058714,1092697,1092701,2023-04-05T13:19:52Z,1092714,NULL,Schock,mshtuko,d,NA,NA,NA,NA,sdf,NA,5,NA,NA,NA,NA,NA,NA,NA,NA,NA,NA,NA,NA,NA,NA,NA,NA,NA,NA,NA
17c18,deep,flow.Sequence,3_0_5_0_4_0,NA,NA,skipped,NA,1092702,NA,NA,1092697,1092702,2023-04-05T13:19:52Z,1092714,NULL,Auftrag,uagizaji,s,ghanima,kuzingatia,msukani,NA,sdf,NA,5,NA,NA,NA,NA,NA,NA,NA,NA,NA,NA,NA,NA,NA,NA,NA,NA,NA,NA,NA
17c18,Shallow Question,html.Page,3_0_5_0_4_1_0,NA,NA,form submission,14944,1092702,1092697,1092714,1107658,1107658,2023-04-05T13:20:07Z,1107664,NULL,Auftrag,uagizaji,s,ghanima,kuzingatia,msukani,uagizaji,NA,NA,5,NA,NA,NA,NA,NA,NA,NA,NA,NA,NA,NA,NA,NA,NA,NA,NA,NA,NA,NA
17c18,"""Richtig""-Screen",canvas.Screen,3_0_5_0_4_1_1,NA,NA,timeout,5000,1107660,1107647,1107664,1112647,1112651,2023-04-05T13:20:12Z,1112664,NULL,Auftrag,uagizaji,s,ghanima,kuzingatia,msukani,NA,sdf,1,5,NA,NA,NA,NA,NA,NA,NA,NA,NA,NA,NA,NA,NA,NA,NA,NA,NA,NA,NA
17c18,"""Falsch""-Screen",canvas.Screen,3_0_5_0_4_1_2,NA,NA,skipped,NA,1112654,NA,NA,1112647,1112655,2023-04-05T13:20:12Z,1112664,NULL,Auftrag,uagizaji,s,ghanima,kuzingatia,msukani,NA,sdf,NA,5,NA,NA,NA,NA,NA,NA,NA,NA,NA,NA,NA,NA,NA,NA,NA,NA,NA,NA,NA
17c18,shallow,flow.Sequence,3_0_5_0_4_1,NA,NA,completion,19933,1092702,1092697,1092714,1112647,1112655,2023-04-05T13:20:12Z,1112664,NULL,Auftrag,uagizaji,s,ghanima,kuzingatia,msukani,NA,sdf,NA,5,NA,NA,NA,NA,NA,NA,NA,NA,NA,NA,NA,NA,NA,NA,NA,NA,NA,NA,NA
17c18,task,flow.Sequence,3_0_5_0_4,NA,NA,completion,19933,1092702,1092697,1092714,1112647,1112655,2023-04-05T13:20:12Z,1112664,NULL,Auftrag,uagizaji,s,ghanima,kuzingatia,msukani,NA,sdf,NA,5,NA,NA,NA,NA,NA,NA,NA,NA,NA,NA,NA,NA,NA,NA,NA,NA,NA,NA,NA
17c18,deep,flow.Sequence,3_0_5_0_5_0,NA,NA,skipped,NA,1112655,NA,NA,1112647,1112655,2023-04-05T13:20:12Z,1112664,NULL,Verpackung,ufungaji,s,uhusiano,upimaji,uchunguzi,NA,sdf,NA,5,NA,NA,NA,NA,NA,NA,NA,NA,NA,NA,NA,NA,NA,NA,NA,NA,NA,NA,NA
17c18,Shallow Question,html.Page,3_0_5_0_5_1_0,NA,NA,form submission,7843,1112655,1112647,1112664,1120507,1120508,2023-04-05T13:20:20Z,1120514,NULL,Verpackung,ufungaji,s,uhusiano,upimaji,uchunguzi,ufungaji,NA,NA,5,NA,NA,NA,NA,NA,NA,NA,NA,NA,NA,NA,NA,NA,NA,NA,NA,NA,NA,NA
17c18,"""Richtig""-Screen",canvas.Screen,3_0_5_0_5_1_1,NA,NA,timeout,5000,1120510,1120498,1120514,1125497,1125501,2023-04-05T13:20:25Z,1125514,NULL,Verpackung,ufungaji,s,uhusiano,upimaji,uchunguzi,NA,sdf,1,5,NA,NA,NA,NA,NA,NA,NA,NA,NA,NA,NA,NA,NA,NA,NA,NA,NA,NA,NA
17c18,"""Falsch""-Screen",canvas.Screen,3_0_5_0_5_1_2,NA,NA,skipped,NA,1125504,NA,NA,1125497,1125504,2023-04-05T13:20:25Z,1125514,NULL,Verpackung,ufungaji,s,uhusiano,upimaji,uchunguzi,NA,sdf,NA,5,NA,NA,NA,NA,NA,NA,NA,NA,NA,NA,NA,NA,NA,NA,NA,NA,NA,NA,NA
17c18,shallow,flow.Sequence,3_0_5_0_5_1,NA,NA,completion,12833,1112655,1112647,1112664,1125497,1125504,2023-04-05T13:20:25Z,1125514,NULL,Verpackung,ufungaji,s,uhusiano,upimaji,uchunguzi,NA,sdf,NA,5,NA,NA,NA,NA,NA,NA,NA,NA,NA,NA,NA,NA,NA,NA,NA,NA,NA,NA,NA
17c18,task,flow.Sequence,3_0_5_0_5,NA,NA,completion,12833,1112655,1112647,1112664,1125497,1125504,2023-04-05T13:20:25Z,1125514,NULL,Verpackung,ufungaji,s,uhusiano,upimaji,uchunguzi,NA,sdf,NA,5,NA,NA,NA,NA,NA,NA,NA,NA,NA,NA,NA,NA,NA,NA,NA,NA,NA,NA,NA
17c18,Deep Question,html.Page,3_0_5_0_6_0_0,NA,NA,form submission,32999,1125504,1125497,1125514,1158513,1158513,2023-04-05T13:20:58Z,1158514,NULL,Theorie,nadharia,d,NA,NA,NA,alaria,NA,NA,5,NA,NA,NA,NA,NA,NA,NA,NA,NA,NA,NA,NA,NA,NA,NA,NA,NA,NA,NA
17c18,"""Richtig""-Screen",canvas.Screen,3_0_5_0_6_0_1,NA,NA,skipped,NA,1158514,NA,NA,1158513,1158514,2023-04-05T13:20:58Z,1158514,NULL,Theorie,nadharia,d,NA,NA,NA,NA,sdf,NA,5,NA,NA,NA,NA,NA,NA,NA,NA,NA,NA,NA,NA,NA,NA,NA,NA,NA,NA,NA
17c18,"""Falsch""-Screen",canvas.Screen,3_0_5_0_6_0_2,NA,NA,timeout,5000,1158515,1158497,1158514,1163497,1163500,2023-04-05T13:21:03Z,1163514,NULL,Theorie,nadharia,d,NA,NA,NA,NA,sdf,0,5,NA,NA,NA,NA,NA,NA,NA,NA,NA,NA,NA,NA,NA,NA,NA,NA,NA,NA,NA
17c18,deep,flow.Sequence,3_0_5_0_6_0,NA,NA,completion,37983,1125504,1125497,1125514,1163497,1163501,2023-04-05T13:21:03Z,1163514,NULL,Theorie,nadharia,d,NA,NA,NA,NA,sdf,NA,5,NA,NA,NA,NA,NA,NA,NA,NA,NA,NA,NA,NA,NA,NA,NA,NA,NA,NA,NA
17c18,shallow,flow.Sequence,3_0_5_0_6_1,NA,NA,skipped,NA,1163501,NA,NA,1163497,1163501,2023-04-05T13:21:03Z,1163514,NULL,Theorie,nadharia,d,NA,NA,NA,NA,sdf,NA,5,NA,NA,NA,NA,NA,NA,NA,NA,NA,NA,NA,NA,NA,NA,NA,NA,NA,NA,NA
17c18,task,flow.Sequence,3_0_5_0_6,NA,NA,completion,37983,1125504,1125497,1125514,1163497,1163501,2023-04-05T13:21:03Z,1163514,NULL,Theorie,nadharia,d,NA,NA,NA,NA,sdf,NA,5,NA,NA,NA,NA,NA,NA,NA,NA,NA,NA,NA,NA,NA,NA,NA,NA,NA,NA,NA
17c18,Deep Question,html.Page,3_0_5_0_7_0_0,NA,NA,form submission,16383,1163501,1163497,1163514,1179897,1179897,2023-04-05T13:21:19Z,1179898,NULL,Schönheit,kirembo,d,NA,NA,NA,kirembo,NA,NA,5,NA,NA,NA,NA,NA,NA,NA,NA,NA,NA,NA,NA,NA,NA,NA,NA,NA,NA,NA
17c18,"""Richtig""-Screen",canvas.Screen,3_0_5_0_7_0_1,NA,NA,timeout,5000,1179899,1179881,1179898,1184881,1184882,2023-04-05T13:21:24Z,1184898,NULL,Schönheit,kirembo,d,NA,NA,NA,NA,sdf,1,5,NA,NA,NA,NA,NA,NA,NA,NA,NA,NA,NA,NA,NA,NA,NA,NA,NA,NA,NA
17c18,"""Falsch""-Screen",canvas.Screen,3_0_5_0_7_0_2,NA,NA,skipped,NA,1184885,NA,NA,1184881,1184886,2023-04-05T13:21:24Z,1184898,NULL,Schönheit,kirembo,d,NA,NA,NA,NA,sdf,NA,5,NA,NA,NA,NA,NA,NA,NA,NA,NA,NA,NA,NA,NA,NA,NA,NA,NA,NA,NA
17c18,deep,flow.Sequence,3_0_5_0_7_0,NA,NA,completion,21367,1163501,1163497,1163514,1184881,1184886,2023-04-05T13:21:24Z,1184898,NULL,Schönheit,kirembo,d,NA,NA,NA,NA,sdf,NA,5,NA,NA,NA,NA,NA,NA,NA,NA,NA,NA,NA,NA,NA,NA,NA,NA,NA,NA,NA
17c18,shallow,flow.Sequence,3_0_5_0_7_1,NA,NA,skipped,NA,1184886,NA,NA,1184881,1184886,2023-04-05T13:21:24Z,1184898,NULL,Schönheit,kirembo,d,NA,NA,NA,NA,sdf,NA,5,NA,NA,NA,NA,NA,NA,NA,NA,NA,NA,NA,NA,NA,NA,NA,NA,NA,NA,NA
17c18,task,flow.Sequence,3_0_5_0_7,NA,NA,completion,21367,1163501,1163497,1163514,1184881,1184886,2023-04-05T13:21:24Z,1184898,NULL,Schönheit,kirembo,d,NA,NA,NA,NA,sdf,NA,5,NA,NA,NA,NA,NA,NA,NA,NA,NA,NA,NA,NA,NA,NA,NA,NA,NA,NA,NA
17c18,block,flow.Loop,3_0_5_0,NA,NA,completion,195718,989152,989146,989163,1184881,1184886,2023-04-05T13:21:24Z,1184898,NULL,NA,NA,NA,NA,NA,NA,NA,sdf,NA,5,NA,NA,NA,NA,NA,NA,NA,NA,NA,NA,NA,NA,NA,NA,NA,NA,NA,NA,NA
17c18,weiter,canvas.Screen,3_0_5_1,sdf,keypress(Space),response,1077,1184886,1184881,1184898,1185975,1185980,2023-04-05T13:21:25Z,1186015,NULL,NA,NA,NA,NA,NA,NA,NA,sdf,NA,5,NA,NA,NA,NA,NA,NA,NA,NA,NA,NA,NA,NA,NA,NA,NA,NA,NA,NA,NA
17c18,check continue,flow.Sequence,3_0_5,NA,NA,completion,196812,989152,989146,989163,1185975,1185980,2023-04-05T13:21:25Z,1186015,NULL,NA,NA,NA,NA,NA,NA,NA,sdf,NA,5,NA,NA,NA,NA,NA,NA,NA,NA,NA,NA,NA,NA,NA,NA,NA,NA,NA,NA,NA
17c18,Deep Question,html.Page,3_0_6_0_0_0_0,NA,NA,form submission,40224,1186006,1185998,1186015,1226239,1226240,2023-04-05T13:22:05Z,1226248,NULL,Schock,mshtuko,d,NA,NA,NA,embuko,NA,NA,6,NA,NA,NA,NA,NA,NA,NA,NA,NA,NA,NA,NA,NA,NA,NA,NA,NA,NA,NA
17c18,"""Richtig""-Screen",canvas.Screen,3_0_6_0_0_0_1,NA,NA,skipped,NA,1226241,NA,NA,1226239,1226241,2023-04-05T13:22:05Z,1226248,NULL,Schock,mshtuko,d,NA,NA,NA,NA,dfs,NA,6,NA,NA,NA,NA,NA,NA,NA,NA,NA,NA,NA,NA,NA,NA,NA,NA,NA,NA,NA
17c18,"""Falsch""-Screen",canvas.Screen,3_0_6_0_0_0_2,NA,NA,timeout,5000,1226242,1226232,1226248,1231231,1231234,2023-04-05T13:22:10Z,1231248,NULL,Schock,mshtuko,d,NA,NA,NA,NA,dfs,0,6,NA,NA,NA,NA,NA,NA,NA,NA,NA,NA,NA,NA,NA,NA,NA,NA,NA,NA,NA
17c18,deep,flow.Sequence,3_0_6_0_0_0,NA,NA,completion,45216,1186006,1185998,1186015,1231231,1231234,2023-04-05T13:22:10Z,1231248,NULL,Schock,mshtuko,d,NA,NA,NA,NA,dfs,NA,6,NA,NA,NA,NA,NA,NA,NA,NA,NA,NA,NA,NA,NA,NA,NA,NA,NA,NA,NA
17c18,shallow,flow.Sequence,3_0_6_0_0_1,NA,NA,skipped,NA,1231235,NA,NA,1231231,1231235,2023-04-05T13:22:10Z,1231248,NULL,Schock,mshtuko,d,NA,NA,NA,NA,dfs,NA,6,NA,NA,NA,NA,NA,NA,NA,NA,NA,NA,NA,NA,NA,NA,NA,NA,NA,NA,NA
17c18,task,flow.Sequence,3_0_6_0_0,NA,NA,completion,45216,1186006,1185998,1186015,1231231,1231235,2023-04-05T13:22:10Z,1231248,NULL,Schock,mshtuko,d,NA,NA,NA,NA,dfs,NA,6,NA,NA,NA,NA,NA,NA,NA,NA,NA,NA,NA,NA,NA,NA,NA,NA,NA,NA,NA
17c18,Deep Question,html.Page,3_0_6_0_1_0_0,NA,NA,form submission,11028,1231235,1231231,1231248,1242276,1242276,2023-04-05T13:22:21Z,1242282,NULL,Zufall,kikuti,d,NA,NA,NA,kikuti,NA,NA,6,NA,NA,NA,NA,NA,NA,NA,NA,NA,NA,NA,NA,NA,NA,NA,NA,NA,NA,NA
17c18,"""Richtig""-Screen",canvas.Screen,3_0_6_0_1_0_1,NA,NA,timeout,4999,1242279,1242265,1242282,1247265,1247267,2023-04-05T13:22:26Z,1247281,NULL,Zufall,kikuti,d,NA,NA,NA,NA,dfs,1,6,NA,NA,NA,NA,NA,NA,NA,NA,NA,NA,NA,NA,NA,NA,NA,NA,NA,NA,NA
17c18,"""Falsch""-Screen",canvas.Screen,3_0_6_0_1_0_2,NA,NA,skipped,NA,1247268,NA,NA,1247265,1247269,2023-04-05T13:22:26Z,1247281,NULL,Zufall,kikuti,d,NA,NA,NA,NA,dfs,NA,6,NA,NA,NA,NA,NA,NA,NA,NA,NA,NA,NA,NA,NA,NA,NA,NA,NA,NA,NA
17c18,deep,flow.Sequence,3_0_6_0_1_0,NA,NA,completion,16017,1231235,1231231,1231248,1247265,1247269,2023-04-05T13:22:26Z,1247281,NULL,Zufall,kikuti,d,NA,NA,NA,NA,dfs,NA,6,NA,NA,NA,NA,NA,NA,NA,NA,NA,NA,NA,NA,NA,NA,NA,NA,NA,NA,NA
17c18,shallow,flow.Sequence,3_0_6_0_1_1,NA,NA,skipped,NA,1247269,NA,NA,1247265,1247269,2023-04-05T13:22:26Z,1247281,NULL,Zufall,kikuti,d,NA,NA,NA,NA,dfs,NA,6,NA,NA,NA,NA,NA,NA,NA,NA,NA,NA,NA,NA,NA,NA,NA,NA,NA,NA,NA
17c18,task,flow.Sequence,3_0_6_0_1,NA,NA,completion,16017,1231235,1231231,1231248,1247265,1247269,2023-04-05T13:22:26Z,1247281,NULL,Zufall,kikuti,d,NA,NA,NA,NA,dfs,NA,6,NA,NA,NA,NA,NA,NA,NA,NA,NA,NA,NA,NA,NA,NA,NA,NA,NA,NA,NA
17c18,Deep Question,html.Page,3_0_6_0_2_0_0,NA,NA,form submission,4891,1247269,1247265,1247281,1252172,1252172,2023-04-05T13:22:31Z,1252182,NULL,Schönheit,kirembo,d,NA,NA,NA,kirembo,NA,NA,6,NA,NA,NA,NA,NA,NA,NA,NA,NA,NA,NA,NA,NA,NA,NA,NA,NA,NA,NA
17c18,"""Richtig""-Screen",canvas.Screen,3_0_6_0_2_0_1,NA,NA,timeout,4999,1252175,1252165,1252182,1257165,1257168,2023-04-05T13:22:36Z,1257181,NULL,Schönheit,kirembo,d,NA,NA,NA,NA,dfs,1,6,NA,NA,NA,NA,NA,NA,NA,NA,NA,NA,NA,NA,NA,NA,NA,NA,NA,NA,NA
17c18,"""Falsch""-Screen",canvas.Screen,3_0_6_0_2_0_2,NA,NA,skipped,NA,1257171,NA,NA,1257165,1257171,2023-04-05T13:22:36Z,1257181,NULL,Schönheit,kirembo,d,NA,NA,NA,NA,dfs,NA,6,NA,NA,NA,NA,NA,NA,NA,NA,NA,NA,NA,NA,NA,NA,NA,NA,NA,NA,NA
17c18,deep,flow.Sequence,3_0_6_0_2_0,NA,NA,completion,9884,1247269,1247265,1247281,1257165,1257171,2023-04-05T13:22:36Z,1257181,NULL,Schönheit,kirembo,d,NA,NA,NA,NA,dfs,NA,6,NA,NA,NA,NA,NA,NA,NA,NA,NA,NA,NA,NA,NA,NA,NA,NA,NA,NA,NA
17c18,shallow,flow.Sequence,3_0_6_0_2_1,NA,NA,skipped,NA,1257172,NA,NA,1257165,1257172,2023-04-05T13:22:36Z,1257181,NULL,Schönheit,kirembo,d,NA,NA,NA,NA,dfs,NA,6,NA,NA,NA,NA,NA,NA,NA,NA,NA,NA,NA,NA,NA,NA,NA,NA,NA,NA,NA
17c18,task,flow.Sequence,3_0_6_0_2,NA,NA,completion,9884,1247269,1247265,1247281,1257165,1257172,2023-04-05T13:22:36Z,1257181,NULL,Schönheit,kirembo,d,NA,NA,NA,NA,dfs,NA,6,NA,NA,NA,NA,NA,NA,NA,NA,NA,NA,NA,NA,NA,NA,NA,NA,NA,NA,NA
17c18,deep,flow.Sequence,3_0_6_0_3_0,NA,NA,skipped,NA,1257172,NA,NA,1257165,1257172,2023-04-05T13:22:36Z,1257181,NULL,Verpackung,ufungaji,s,uhusiano,upimaji,uchunguzi,NA,dfs,NA,6,NA,NA,NA,NA,NA,NA,NA,NA,NA,NA,NA,NA,NA,NA,NA,NA,NA,NA,NA
17c18,Shallow Question,html.Page,3_0_6_0_3_1_0,NA,NA,form submission,5327,1257172,1257165,1257181,1262508,1262508,2023-04-05T13:22:42Z,1262515,NULL,Verpackung,ufungaji,s,uhusiano,upimaji,uchunguzi,ufungaji,NA,NA,6,NA,NA,NA,NA,NA,NA,NA,NA,NA,NA,NA,NA,NA,NA,NA,NA,NA,NA,NA
17c18,"""Richtig""-Screen",canvas.Screen,3_0_6_0_3_1_1,NA,NA,timeout,5000,1262510,1262498,1262515,1267498,1267501,2023-04-05T13:22:47Z,1267515,NULL,Verpackung,ufungaji,s,uhusiano,upimaji,uchunguzi,NA,dfs,1,6,NA,NA,NA,NA,NA,NA,NA,NA,NA,NA,NA,NA,NA,NA,NA,NA,NA,NA,NA
17c18,"""Falsch""-Screen",canvas.Screen,3_0_6_0_3_1_2,NA,NA,skipped,NA,1267504,NA,NA,1267498,1267504,2023-04-05T13:22:47Z,1267515,NULL,Verpackung,ufungaji,s,uhusiano,upimaji,uchunguzi,NA,dfs,NA,6,NA,NA,NA,NA,NA,NA,NA,NA,NA,NA,NA,NA,NA,NA,NA,NA,NA,NA,NA
17c18,shallow,flow.Sequence,3_0_6_0_3_1,NA,NA,completion,10317,1257172,1257165,1257181,1267498,1267504,2023-04-05T13:22:47Z,1267515,NULL,Verpackung,ufungaji,s,uhusiano,upimaji,uchunguzi,NA,dfs,NA,6,NA,NA,NA,NA,NA,NA,NA,NA,NA,NA,NA,NA,NA,NA,NA,NA,NA,NA,NA
17c18,task,flow.Sequence,3_0_6_0_3,NA,NA,completion,10317,1257172,1257165,1257181,1267498,1267504,2023-04-05T13:22:47Z,1267515,NULL,Verpackung,ufungaji,s,uhusiano,upimaji,uchunguzi,NA,dfs,NA,6,NA,NA,NA,NA,NA,NA,NA,NA,NA,NA,NA,NA,NA,NA,NA,NA,NA,NA,NA
17c18,deep,flow.Sequence,3_0_6_0_4_0,NA,NA,skipped,NA,1267504,NA,NA,1267498,1267504,2023-04-05T13:22:47Z,1267515,NULL,Auftrag,uagizaji,s,ghanima,kuzingatia,msukani,NA,dfs,NA,6,NA,NA,NA,NA,NA,NA,NA,NA,NA,NA,NA,NA,NA,NA,NA,NA,NA,NA,NA
17c18,Shallow Question,html.Page,3_0_6_0_4_1_0,NA,NA,form submission,5676,1267504,1267498,1267515,1273191,1273192,2023-04-05T13:22:52Z,1273198,NULL,Auftrag,uagizaji,s,ghanima,kuzingatia,msukani,uagizaji,NA,NA,6,NA,NA,NA,NA,NA,NA,NA,NA,NA,NA,NA,NA,NA,NA,NA,NA,NA,NA,NA
17c18,"""Richtig""-Screen",canvas.Screen,3_0_6_0_4_1_1,NA,NA,timeout,5000,1273194,1273182,1273198,1278182,1278184,2023-04-05T13:22:57Z,1278198,NULL,Auftrag,uagizaji,s,ghanima,kuzingatia,msukani,NA,dfs,1,6,NA,NA,NA,NA,NA,NA,NA,NA,NA,NA,NA,NA,NA,NA,NA,NA,NA,NA,NA
17c18,"""Falsch""-Screen",canvas.Screen,3_0_6_0_4_1_2,NA,NA,skipped,NA,1278186,NA,NA,1278182,1278186,2023-04-05T13:22:57Z,1278198,NULL,Auftrag,uagizaji,s,ghanima,kuzingatia,msukani,NA,dfs,NA,6,NA,NA,NA,NA,NA,NA,NA,NA,NA,NA,NA,NA,NA,NA,NA,NA,NA,NA,NA
17c18,shallow,flow.Sequence,3_0_6_0_4_1,NA,NA,completion,10667,1267504,1267498,1267515,1278182,1278186,2023-04-05T13:22:57Z,1278198,NULL,Auftrag,uagizaji,s,ghanima,kuzingatia,msukani,NA,dfs,NA,6,NA,NA,NA,NA,NA,NA,NA,NA,NA,NA,NA,NA,NA,NA,NA,NA,NA,NA,NA
17c18,task,flow.Sequence,3_0_6_0_4,NA,NA,completion,10667,1267504,1267498,1267515,1278182,1278186,2023-04-05T13:22:57Z,1278198,NULL,Auftrag,uagizaji,s,ghanima,kuzingatia,msukani,NA,dfs,NA,6,NA,NA,NA,NA,NA,NA,NA,NA,NA,NA,NA,NA,NA,NA,NA,NA,NA,NA,NA
17c18,deep,flow.Sequence,3_0_6_0_5_0,NA,NA,skipped,NA,1278186,NA,NA,1278182,1278186,2023-04-05T13:22:57Z,1278198,NULL,Hoffnung,matarajio,s,kutaalamika,uratibu,mvumbuzi,NA,dfs,NA,6,NA,NA,NA,NA,NA,NA,NA,NA,NA,NA,NA,NA,NA,NA,NA,NA,NA,NA,NA
17c18,Shallow Question,html.Page,3_0_6_0_5_1_0,NA,NA,form submission,6027,1278186,1278182,1278198,1284225,1284226,2023-04-05T13:23:03Z,1284232,NULL,Hoffnung,matarajio,s,kutaalamika,uratibu,mvumbuzi,matarajio,NA,NA,6,NA,NA,NA,NA,NA,NA,NA,NA,NA,NA,NA,NA,NA,NA,NA,NA,NA,NA,NA
17c18,"""Richtig""-Screen",canvas.Screen,3_0_6_0_5_1_1,NA,NA,timeout,5000,1284228,1284215,1284232,1289215,1289218,2023-04-05T13:23:08Z,1289232,NULL,Hoffnung,matarajio,s,kutaalamika,uratibu,mvumbuzi,NA,dfs,1,6,NA,NA,NA,NA,NA,NA,NA,NA,NA,NA,NA,NA,NA,NA,NA,NA,NA,NA,NA
17c18,"""Falsch""-Screen",canvas.Screen,3_0_6_0_5_1_2,NA,NA,skipped,NA,1289221,NA,NA,1289215,1289221,2023-04-05T13:23:08Z,1289232,NULL,Hoffnung,matarajio,s,kutaalamika,uratibu,mvumbuzi,NA,dfs,NA,6,NA,NA,NA,NA,NA,NA,NA,NA,NA,NA,NA,NA,NA,NA,NA,NA,NA,NA,NA
17c18,shallow,flow.Sequence,3_0_6_0_5_1,NA,NA,completion,11017,1278186,1278182,1278198,1289215,1289221,2023-04-05T13:23:08Z,1289232,NULL,Hoffnung,matarajio,s,kutaalamika,uratibu,mvumbuzi,NA,dfs,NA,6,NA,NA,NA,NA,NA,NA,NA,NA,NA,NA,NA,NA,NA,NA,NA,NA,NA,NA,NA
17c18,task,flow.Sequence,3_0_6_0_5,NA,NA,completion,11017,1278186,1278182,1278198,1289215,1289221,2023-04-05T13:23:08Z,1289232,NULL,Hoffnung,matarajio,s,kutaalamika,uratibu,mvumbuzi,NA,dfs,NA,6,NA,NA,NA,NA,NA,NA,NA,NA,NA,NA,NA,NA,NA,NA,NA,NA,NA,NA,NA
17c18,Deep Question,html.Page,3_0_6_0_6_0_0,NA,NA,form submission,9512,1289221,1289215,1289232,1298744,1298744,2023-04-05T13:23:18Z,1298748,NULL,Theorie,nadharia,d,NA,NA,NA,nadharia,NA,NA,6,NA,NA,NA,NA,NA,NA,NA,NA,NA,NA,NA,NA,NA,NA,NA,NA,NA,NA,NA
17c18,"""Richtig""-Screen",canvas.Screen,3_0_6_0_6_0_1,NA,NA,timeout,5000,1298746,1298732,1298748,1303731,1303736,2023-04-05T13:23:23Z,1303748,NULL,Theorie,nadharia,d,NA,NA,NA,NA,dfs,1,6,NA,NA,NA,NA,NA,NA,NA,NA,NA,NA,NA,NA,NA,NA,NA,NA,NA,NA,NA
17c18,"""Falsch""-Screen",canvas.Screen,3_0_6_0_6_0_2,NA,NA,skipped,NA,1303738,NA,NA,1303731,1303739,2023-04-05T13:23:23Z,1303748,NULL,Theorie,nadharia,d,NA,NA,NA,NA,dfs,NA,6,NA,NA,NA,NA,NA,NA,NA,NA,NA,NA,NA,NA,NA,NA,NA,NA,NA,NA,NA
17c18,deep,flow.Sequence,3_0_6_0_6_0,NA,NA,completion,14499,1289221,1289215,1289232,1303731,1303739,2023-04-05T13:23:23Z,1303748,NULL,Theorie,nadharia,d,NA,NA,NA,NA,dfs,NA,6,NA,NA,NA,NA,NA,NA,NA,NA,NA,NA,NA,NA,NA,NA,NA,NA,NA,NA,NA
17c18,shallow,flow.Sequence,3_0_6_0_6_1,NA,NA,skipped,NA,1303739,NA,NA,1303731,1303739,2023-04-05T13:23:23Z,1303748,NULL,Theorie,nadharia,d,NA,NA,NA,NA,dfs,NA,6,NA,NA,NA,NA,NA,NA,NA,NA,NA,NA,NA,NA,NA,NA,NA,NA,NA,NA,NA
17c18,task,flow.Sequence,3_0_6_0_6,NA,NA,completion,14499,1289221,1289215,1289232,1303731,1303739,2023-04-05T13:23:23Z,1303748,NULL,Theorie,nadharia,d,NA,NA,NA,NA,dfs,NA,6,NA,NA,NA,NA,NA,NA,NA,NA,NA,NA,NA,NA,NA,NA,NA,NA,NA,NA,NA
17c18,deep,flow.Sequence,3_0_6_0_7_0,NA,NA,skipped,NA,1303739,NA,NA,1303731,1303739,2023-04-05T13:23:23Z,1303748,NULL,Wettbewerb,ushindani,s,mapendezi,kichocheo,ubaguzi,NA,dfs,NA,6,NA,NA,NA,NA,NA,NA,NA,NA,NA,NA,NA,NA,NA,NA,NA,NA,NA,NA,NA
17c18,Shallow Question,html.Page,3_0_6_0_7_1_0,NA,NA,form submission,5210,1303739,1303731,1303748,1308958,1308958,2023-04-05T13:23:28Z,1308965,NULL,Wettbewerb,ushindani,s,mapendezi,kichocheo,ubaguzi,ushindani,NA,NA,6,NA,NA,NA,NA,NA,NA,NA,NA,NA,NA,NA,NA,NA,NA,NA,NA,NA,NA,NA
17c18,"""Richtig""-Screen",canvas.Screen,3_0_6_0_7_1_1,NA,NA,timeout,5000,1308960,1308948,1308965,1313948,1313952,2023-04-05T13:23:33Z,1313965,NULL,Wettbewerb,ushindani,s,mapendezi,kichocheo,ubaguzi,NA,dfs,1,6,NA,NA,NA,NA,NA,NA,NA,NA,NA,NA,NA,NA,NA,NA,NA,NA,NA,NA,NA
17c18,"""Falsch""-Screen",canvas.Screen,3_0_6_0_7_1_2,NA,NA,skipped,NA,1313954,NA,NA,1313948,1313955,2023-04-05T13:23:33Z,1313965,NULL,Wettbewerb,ushindani,s,mapendezi,kichocheo,ubaguzi,NA,dfs,NA,6,NA,NA,NA,NA,NA,NA,NA,NA,NA,NA,NA,NA,NA,NA,NA,NA,NA,NA,NA
17c18,shallow,flow.Sequence,3_0_6_0_7_1,NA,NA,completion,10200,1303739,1303731,1303748,1313948,1313955,2023-04-05T13:23:33Z,1313965,NULL,Wettbewerb,ushindani,s,mapendezi,kichocheo,ubaguzi,NA,dfs,NA,6,NA,NA,NA,NA,NA,NA,NA,NA,NA,NA,NA,NA,NA,NA,NA,NA,NA,NA,NA
17c18,task,flow.Sequence,3_0_6_0_7,NA,NA,completion,10200,1303739,1303731,1303748,1313948,1313955,2023-04-05T13:23:33Z,1313965,NULL,Wettbewerb,ushindani,s,mapendezi,kichocheo,ubaguzi,NA,dfs,NA,6,NA,NA,NA,NA,NA,NA,NA,NA,NA,NA,NA,NA,NA,NA,NA,NA,NA,NA,NA
17c18,block,flow.Loop,3_0_6_0,NA,NA,completion,127933,1186006,1185998,1186015,1313948,1313955,2023-04-05T13:23:33Z,1313965,NULL,NA,NA,NA,NA,NA,NA,NA,dfs,NA,6,NA,NA,NA,NA,NA,NA,NA,NA,NA,NA,NA,NA,NA,NA,NA,NA,NA,NA,NA
17c18,weiter,canvas.Screen,3_0_6_1,sdf,keypress(Space),response,986,1313955,1313948,1313965,1314951,1314956,2023-04-05T13:23:34Z,1315265,NULL,NA,NA,NA,NA,NA,NA,NA,dfs,NA,6,NA,NA,NA,NA,NA,NA,NA,NA,NA,NA,NA,NA,NA,NA,NA,NA,NA,NA,NA
17c18,check continue,flow.Sequence,3_0_6,NA,NA,completion,128936,1186006,1185998,1186015,1314951,1314956,2023-04-05T13:23:34Z,1315265,NULL,NA,NA,NA,NA,NA,NA,NA,dfs,NA,6,NA,NA,NA,NA,NA,NA,NA,NA,NA,NA,NA,NA,NA,NA,NA,NA,NA,NA,NA
17c18,check continue,flow.Sequence,3_0_7,NA,NA,skipped,NA,1314982,NA,NA,1314951,1314982,2023-04-05T13:23:34Z,1315265,NULL,NA,NA,NA,NA,NA,NA,NA,df,NA,7,NA,NA,NA,NA,NA,NA,NA,NA,NA,NA,NA,NA,NA,NA,NA,NA,NA,NA,NA
17c18,check continue,flow.Sequence,3_0_8,NA,NA,skipped,NA,1314998,NA,NA,1314951,1314999,2023-04-05T13:23:34Z,1315265,NULL,NA,NA,NA,NA,NA,NA,NA,dfs,NA,8,NA,NA,NA,NA,NA,NA,NA,NA,NA,NA,NA,NA,NA,NA,NA,NA,NA,NA,NA
17c18,check continue,flow.Sequence,3_0_9,NA,NA,skipped,NA,1315015,NA,NA,1314951,1315015,2023-04-05T13:23:34Z,1315265,NULL,NA,NA,NA,NA,NA,NA,NA,dsf,NA,9,NA,NA,NA,NA,NA,NA,NA,NA,NA,NA,NA,NA,NA,NA,NA,NA,NA,NA,NA
17c18,check continue,flow.Sequence,3_0_10,NA,NA,skipped,NA,1315027,NA,NA,1314951,1315027,2023-04-05T13:23:34Z,1315265,NULL,NA,NA,NA,NA,NA,NA,NA,df,NA,10,NA,NA,NA,NA,NA,NA,NA,NA,NA,NA,NA,NA,NA,NA,NA,NA,NA,NA,NA
17c18,check continue,flow.Sequence,3_0_11,NA,NA,skipped,NA,1315040,NA,NA,1314951,1315040,2023-04-05T13:23:34Z,1315265,NULL,NA,NA,NA,NA,NA,NA,NA,dfs,NA,11,NA,NA,NA,NA,NA,NA,NA,NA,NA,NA,NA,NA,NA,NA,NA,NA,NA,NA,NA
17c18,check continue,flow.Sequence,3_0_12,NA,NA,skipped,NA,1315054,NA,NA,1314951,1315054,2023-04-05T13:23:34Z,1315265,NULL,NA,NA,NA,NA,NA,NA,NA,dsf,NA,12,NA,NA,NA,NA,NA,NA,NA,NA,NA,NA,NA,NA,NA,NA,NA,NA,NA,NA,NA
17c18,check continue,flow.Sequence,3_0_13,NA,NA,skipped,NA,1315067,NA,NA,1314951,1315067,2023-04-05T13:23:34Z,1315265,NULL,NA,NA,NA,NA,NA,NA,NA,dsf,NA,13,NA,NA,NA,NA,NA,NA,NA,NA,NA,NA,NA,NA,NA,NA,NA,NA,NA,NA,NA
17c18,check continue,flow.Sequence,3_0_14,NA,NA,skipped,NA,1315080,NA,NA,1314951,1315080,2023-04-05T13:23:34Z,1315265,NULL,NA,NA,NA,NA,NA,NA,NA,NA,NA,14,NA,NA,NA,NA,NA,NA,NA,NA,NA,NA,NA,NA,NA,NA,NA,NA,NA,NA,NA
17c18,check continue,flow.Sequence,3_0_15,NA,NA,skipped,NA,1315091,NA,NA,1314951,1315091,2023-04-05T13:23:34Z,1315265,NULL,NA,NA,NA,NA,NA,NA,NA,NA,NA,15,NA,NA,NA,NA,NA,NA,NA,NA,NA,NA,NA,NA,NA,NA,NA,NA,NA,NA,NA
17c18,check continue,flow.Sequence,3_0_16,NA,NA,skipped,NA,1315103,NA,NA,1314951,1315103,2023-04-05T13:23:34Z,1315265,NULL,NA,NA,NA,NA,NA,NA,NA,NA,NA,16,NA,NA,NA,NA,NA,NA,NA,NA,NA,NA,NA,NA,NA,NA,NA,NA,NA,NA,NA
17c18,check continue,flow.Sequence,3_0_17,NA,NA,skipped,NA,1315115,NA,NA,1314951,1315115,2023-04-05T13:23:34Z,1315265,NULL,NA,NA,NA,NA,NA,NA,NA,NA,NA,17,NA,NA,NA,NA,NA,NA,NA,NA,NA,NA,NA,NA,NA,NA,NA,NA,NA,NA,NA
17c18,check continue,flow.Sequence,3_0_18,NA,NA,skipped,NA,1315127,NA,NA,1314951,1315127,2023-04-05T13:23:34Z,1315265,NULL,NA,NA,NA,NA,NA,NA,NA,NA,NA,18,NA,NA,NA,NA,NA,NA,NA,NA,NA,NA,NA,NA,NA,NA,NA,NA,NA,NA,NA
