observation,sender,sender_type,sender_id,response,response_action,ended_on,duration,time_run,time_render,time_show,time_end,time_commit,timestamp,time_switch,german,swahili,enc,distractor1,distractor2,distractor3,response_2,x,correct,distractors,url_vp,url_sess,meta_labjs_version,meta_location,meta_user_agent,meta_platform,meta_language,meta_locale,meta_time_zone,meta_timezone_offset,meta_screen_width,meta_screen_height,meta_scroll_width,meta_scroll_height,meta_window_inner_width,meta_window_inner_height,meta_device_pixel_ratio,meta_labjs_build_flavor,meta_labjs_build_commit
5d1bb,Introduction delayed retrieval,canvas.Screen,0,weiter,keypress(Space),response,7490.8,2306,2318.52,2335.2,9826,9837,2024-05-15T15:49:22Z,9851.88,NA,NA,NA,NA,NA,NA,NA,NA,NA,NULL,197,2,20.2.4,https://neurocog.fernuni.ch/studies/vweber/aberisha/delayed/index.html?vp=197&sess=2,Mozilla/5.0 (Macintosh; Intel Mac OS X 10.15; rv:124.0) Gecko/20100101 Firefox/124.0,MacIntel,de,de-CH,Europe/Zurich,-120,1470,956,1470,680,1470,728,2,production,f5b4a49f956347addd546a832a3327688c2c0fef
5d1bb,Deep Question,html.Page,1_0_0_0,NA,NA,form submission,17943.12,9837,9837.26,9851.88,27795,27797,2024-05-15T15:49:40Z,27801.94,Auftrag,uagizaji,d,ghanima,kuzingatia,msukani,f,NA,NA,NULL,NA,NA,NA,NA,NA,NA,NA,NA,NA,NA,NA,NA,NA,NA,NA,NA,NA,NA,NA
5d1bb,Save data screen,canvas.Screen,1_0_0_1,NA,NA,timeout,500.02,27801,27787.1,27801.94,28285.26,28286,2024-05-15T15:49:41Z,28301.96,Auftrag,uagizaji,d,ghanima,kuzingatia,msukani,NA,NA,0,NULL,NA,NA,NA,NA,NA,NA,NA,NA,NA,NA,NA,NA,NA,NA,NA,NA,NA,NA,NA
5d1bb,deep,flow.Sequence,1_0_0,NA,NA,completion,18433.38,9837,9837.26,9851.88,28285.26,28287,2024-05-15T15:49:41Z,28301.96,Auftrag,uagizaji,d,ghanima,kuzingatia,msukani,NA,NA,NA,NULL,NA,NA,NA,NA,NA,NA,NA,NA,NA,NA,NA,NA,NA,NA,NA,NA,NA,NA,NA
5d1bb,task,flow.Sequence,1_0,NA,NA,completion,18433.38,9837,9837.26,9851.88,28285.26,28287,2024-05-15T15:49:41Z,28301.96,Auftrag,uagizaji,d,ghanima,kuzingatia,msukani,NA,NA,NA,NULL,NA,NA,NA,NA,NA,NA,NA,NA,NA,NA,NA,NA,NA,NA,NA,NA,NA,NA,NA
5d1bb,Deep Question,html.Page,1_1_0_0,NA,NA,form submission,27500.04,28288,28285.26,28301.96,55802,55803,2024-05-15T15:50:08Z,55802,Polizist,msongora,d,simanzi,mandhari,nidhamu,dmgaji,NA,NA,NULL,NA,NA,NA,NA,NA,NA,NA,NA,NA,NA,NA,NA,NA,NA,NA,NA,NA,NA,NA
5d1bb,Save data screen,canvas.Screen,1_1_0_1,NA,NA,timeout,500,55806,55800.18,55802,56285.32,56286,2024-05-15T15:50:09Z,56302,Polizist,msongora,d,simanzi,mandhari,nidhamu,NA,NA,0,NULL,NA,NA,NA,NA,NA,NA,NA,NA,NA,NA,NA,NA,NA,NA,NA,NA,NA,NA,NA
5d1bb,deep,flow.Sequence,1_1_0,NA,NA,completion,27983.36,28288,28285.26,28301.96,56285.32,56287,2024-05-15T15:50:09Z,56302,Polizist,msongora,d,simanzi,mandhari,nidhamu,NA,NA,NA,NULL,NA,NA,NA,NA,NA,NA,NA,NA,NA,NA,NA,NA,NA,NA,NA,NA,NA,NA,NA
5d1bb,task,flow.Sequence,1_1,NA,NA,completion,27983.36,28288,28285.26,28301.96,56285.32,56287,2024-05-15T15:50:09Z,56302,Polizist,msongora,d,simanzi,mandhari,nidhamu,NA,NA,NA,NULL,NA,NA,NA,NA,NA,NA,NA,NA,NA,NA,NA,NA,NA,NA,NA,NA,NA,NA,NA
5d1bb,Deep Question,html.Page,1_2_0_0,NA,NA,form submission,4626,56288,56285.32,56302,60928,60928,2024-05-15T15:50:14Z,60935.32,Zuwachs,nyongeza,s,matilaba,udhibiti,hudhurio,f,NA,NA,NULL,NA,NA,NA,NA,NA,NA,NA,NA,NA,NA,NA,NA,NA,NA,NA,NA,NA,NA,NA
5d1bb,Save data screen,canvas.Screen,1_2_0_1,NA,NA,timeout,499.86,60929,60925.82,60935.32,61418.66,61419,2024-05-15T15:50:14Z,61435.18,Zuwachs,nyongeza,s,matilaba,udhibiti,hudhurio,NA,NA,0,NULL,NA,NA,NA,NA,NA,NA,NA,NA,NA,NA,NA,NA,NA,NA,NA,NA,NA,NA,NA
5d1bb,deep,flow.Sequence,1_2_0,NA,NA,completion,5116.66,56287,56285.32,56302,61418.66,61420,2024-05-15T15:50:14Z,61435.18,Zuwachs,nyongeza,s,matilaba,udhibiti,hudhurio,NA,NA,NA,NULL,NA,NA,NA,NA,NA,NA,NA,NA,NA,NA,NA,NA,NA,NA,NA,NA,NA,NA,NA
5d1bb,task,flow.Sequence,1_2,NA,NA,completion,5116.66,56287,56285.32,56302,61418.66,61420,2024-05-15T15:50:14Z,61435.18,Zuwachs,nyongeza,s,matilaba,udhibiti,hudhurio,NA,NA,NA,NULL,NA,NA,NA,NA,NA,NA,NA,NA,NA,NA,NA,NA,NA,NA,NA,NA,NA,NA,NA
5d1bb,Deep Question,html.Page,1_3_0_0,NA,NA,form submission,18969.82,61420,61418.66,61435.18,80405,80407,2024-05-15T15:50:33Z,80401.72,Symbol,kielezo,s,kinyume,nderemo,utayari,f,NA,NA,NULL,NA,NA,NA,NA,NA,NA,NA,NA,NA,NA,NA,NA,NA,NA,NA,NA,NA,NA,NA
5d1bb,Save data screen,canvas.Screen,1_3_0_1,NA,NA,timeout,500.31999999999,80412,80399.96,80401.72,80885.38,80887,2024-05-15T15:50:34Z,80902.04,Symbol,kielezo,s,kinyume,nderemo,utayari,NA,NA,0,NULL,NA,NA,NA,NA,NA,NA,NA,NA,NA,NA,NA,NA,NA,NA,NA,NA,NA,NA,NA
5d1bb,deep,flow.Sequence,1_3_0,NA,NA,completion,19450.2,61420,61418.66,61435.18,80885.38,80887,2024-05-15T15:50:34Z,80902.04,Symbol,kielezo,s,kinyume,nderemo,utayari,NA,NA,NA,NULL,NA,NA,NA,NA,NA,NA,NA,NA,NA,NA,NA,NA,NA,NA,NA,NA,NA,NA,NA
5d1bb,task,flow.Sequence,1_3,NA,NA,completion,19450.2,61420,61418.66,61435.18,80885.38,80888,2024-05-15T15:50:34Z,80902.04,Symbol,kielezo,s,kinyume,nderemo,utayari,NA,NA,NA,NULL,NA,NA,NA,NA,NA,NA,NA,NA,NA,NA,NA,NA,NA,NA,NA,NA,NA,NA,NA
5d1bb,Deep Question,html.Page,1_4_0_0,NA,NA,form submission,12776.96,80888,80885.38,80902.04,93679,93679,2024-05-15T15:50:46Z,93685.4,Beweis,ushahidi,d,marudio,kizuizi,mtendaji,f,NA,NA,NULL,NA,NA,NA,NA,NA,NA,NA,NA,NA,NA,NA,NA,NA,NA,NA,NA,NA,NA,NA
5d1bb,Save data screen,canvas.Screen,1_4_0_1,NA,NA,timeout,500,93681,93676.9,93685.4,94168.72,94170,2024-05-15T15:50:47Z,94185.4,Beweis,ushahidi,d,marudio,kizuizi,mtendaji,NA,NA,0,NULL,NA,NA,NA,NA,NA,NA,NA,NA,NA,NA,NA,NA,NA,NA,NA,NA,NA,NA,NA
5d1bb,deep,flow.Sequence,1_4_0,NA,NA,completion,13266.68,80888,80885.38,80902.04,94168.72,94171,2024-05-15T15:50:47Z,94185.4,Beweis,ushahidi,d,marudio,kizuizi,mtendaji,NA,NA,NA,NULL,NA,NA,NA,NA,NA,NA,NA,NA,NA,NA,NA,NA,NA,NA,NA,NA,NA,NA,NA
5d1bb,task,flow.Sequence,1_4,NA,NA,completion,13266.68,80888,80885.38,80902.04,94168.72,94171,2024-05-15T15:50:47Z,94185.4,Beweis,ushahidi,d,marudio,kizuizi,mtendaji,NA,NA,NA,NULL,NA,NA,NA,NA,NA,NA,NA,NA,NA,NA,NA,NA,NA,NA,NA,NA,NA,NA,NA
5d1bb,Deep Question,html.Page,1_5_0_0,NA,NA,form submission,5495.6,94171,94168.72,94185.4,99681,99681,2024-05-15T15:50:52Z,99677.68,Vorsorge,tahadhari,d,ufafanuzi,makini,mashambani,f,NA,NA,NULL,NA,NA,NA,NA,NA,NA,NA,NA,NA,NA,NA,NA,NA,NA,NA,NA,NA,NA,NA
5d1bb,Save data screen,canvas.Screen,1_5_0_1,NA,NA,timeout,490.16,99683,99677.6,99677.68,100152.08,100153,2024-05-15T15:50:53Z,100167.84,Vorsorge,tahadhari,d,ufafanuzi,makini,mashambani,NA,NA,0,NULL,NA,NA,NA,NA,NA,NA,NA,NA,NA,NA,NA,NA,NA,NA,NA,NA,NA,NA,NA
5d1bb,deep,flow.Sequence,1_5_0,NA,NA,completion,5966.68,94171,94168.72,94185.4,100152.08,100154,2024-05-15T15:50:53Z,100167.84,Vorsorge,tahadhari,d,ufafanuzi,makini,mashambani,NA,NA,NA,NULL,NA,NA,NA,NA,NA,NA,NA,NA,NA,NA,NA,NA,NA,NA,NA,NA,NA,NA,NA
5d1bb,task,flow.Sequence,1_5,NA,NA,completion,5966.68,94171,94168.72,94185.4,100152.08,100155,2024-05-15T15:50:53Z,100167.84,Vorsorge,tahadhari,d,ufafanuzi,makini,mashambani,NA,NA,NA,NULL,NA,NA,NA,NA,NA,NA,NA,NA,NA,NA,NA,NA,NA,NA,NA,NA,NA,NA,NA
5d1bb,Deep Question,html.Page,1_6_0_0,NA,NA,form submission,4268.16,100155,100152.08,100167.84,104436,104437,2024-05-15T15:50:57Z,104435.42,Schönheit,kirembo,s,mahojiano,msisimko,jitihadi,f,NA,NA,NULL,NA,NA,NA,NA,NA,NA,NA,NA,NA,NA,NA,NA,NA,NA,NA,NA,NA,NA,NA
5d1bb,Save data screen,canvas.Screen,1_6_0_1,NA,NA,timeout,500,104439,104434.6,104435.42,104918.76,104923,2024-05-15T15:50:58Z,104935.42,Schönheit,kirembo,s,mahojiano,msisimko,jitihadi,NA,NA,0,NULL,NA,NA,NA,NA,NA,NA,NA,NA,NA,NA,NA,NA,NA,NA,NA,NA,NA,NA,NA
5d1bb,deep,flow.Sequence,1_6_0,NA,NA,completion,4750.92,100155,100152.08,100167.84,104918.76,104924,2024-05-15T15:50:58Z,104935.42,Schönheit,kirembo,s,mahojiano,msisimko,jitihadi,NA,NA,NA,NULL,NA,NA,NA,NA,NA,NA,NA,NA,NA,NA,NA,NA,NA,NA,NA,NA,NA,NA,NA
5d1bb,task,flow.Sequence,1_6,NA,NA,completion,4750.92,100155,100152.08,100167.84,104918.76,104924,2024-05-15T15:50:58Z,104935.42,Schönheit,kirembo,s,mahojiano,msisimko,jitihadi,NA,NA,NA,NULL,NA,NA,NA,NA,NA,NA,NA,NA,NA,NA,NA,NA,NA,NA,NA,NA,NA,NA,NA
5d1bb,Deep Question,html.Page,1_7_0_0,NA,NA,form submission,6074.58,104924,104918.76,104935.42,111010,111011,2024-05-15T15:51:04Z,111018.18,Konkurrent,mshindani,d,msemaji,mvutaji,kipukusa,f,NA,NA,NULL,NA,NA,NA,NA,NA,NA,NA,NA,NA,NA,NA,NA,NA,NA,NA,NA,NA,NA,NA
5d1bb,Save data screen,canvas.Screen,1_7_0_1,NA,NA,timeout,499.76000000001,111017,111006.38,111018.18,111502,111503,2024-05-15T15:51:04Z,111517.94,Konkurrent,mshindani,d,msemaji,mvutaji,kipukusa,NA,NA,0,NULL,NA,NA,NA,NA,NA,NA,NA,NA,NA,NA,NA,NA,NA,NA,NA,NA,NA,NA,NA
5d1bb,deep,flow.Sequence,1_7_0,NA,NA,completion,6566.58,104924,104918.76,104935.42,111502,111503,2024-05-15T15:51:04Z,111517.94,Konkurrent,mshindani,d,msemaji,mvutaji,kipukusa,NA,NA,NA,NULL,NA,NA,NA,NA,NA,NA,NA,NA,NA,NA,NA,NA,NA,NA,NA,NA,NA,NA,NA
5d1bb,task,flow.Sequence,1_7,NA,NA,completion,6566.58,104924,104918.76,104935.42,111502,111503,2024-05-15T15:51:04Z,111517.94,Konkurrent,mshindani,d,msemaji,mvutaji,kipukusa,NA,NA,NA,NULL,NA,NA,NA,NA,NA,NA,NA,NA,NA,NA,NA,NA,NA,NA,NA,NA,NA,NA,NA
5d1bb,Deep Question,html.Page,1_8_0_0,NA,NA,form submission,8514.06,111504,111502,111517.94,120032,120032,2024-05-15T15:51:13Z,120035.46,Annäherung,maegesho,s,madahili,kujiamini,mapendekezo,f,NA,NA,NULL,NA,NA,NA,NA,NA,NA,NA,NA,NA,NA,NA,NA,NA,NA,NA,NA,NA,NA,NA
5d1bb,Save data screen,canvas.Screen,1_8_0_1,NA,NA,timeout,500,120035,120029.7,120035.46,120518.78,120520,2024-05-15T15:51:13Z,120535.46,Annäherung,maegesho,s,madahili,kujiamini,mapendekezo,NA,NA,0,NULL,NA,NA,NA,NA,NA,NA,NA,NA,NA,NA,NA,NA,NA,NA,NA,NA,NA,NA,NA
5d1bb,deep,flow.Sequence,1_8_0,NA,NA,completion,9000.84,111504,111502,111517.94,120518.78,120520,2024-05-15T15:51:13Z,120535.46,Annäherung,maegesho,s,madahili,kujiamini,mapendekezo,NA,NA,NA,NULL,NA,NA,NA,NA,NA,NA,NA,NA,NA,NA,NA,NA,NA,NA,NA,NA,NA,NA,NA
5d1bb,task,flow.Sequence,1_8,NA,NA,completion,9000.84,111504,111502,111517.94,120518.78,120521,2024-05-15T15:51:13Z,120535.46,Annäherung,maegesho,s,madahili,kujiamini,mapendekezo,NA,NA,NA,NULL,NA,NA,NA,NA,NA,NA,NA,NA,NA,NA,NA,NA,NA,NA,NA,NA,NA,NA,NA
5d1bb,Deep Question,html.Page,1_9_0_0,NA,NA,form submission,4876.54,120521,120518.78,120535.46,125412,125412,2024-05-15T15:51:18Z,125418.8,Sympathie,mapendano,s,dhamiria,fungamano,maazimio,f,NA,NA,NULL,NA,NA,NA,NA,NA,NA,NA,NA,NA,NA,NA,NA,NA,NA,NA,NA,NA,NA,NA
5d1bb,Save data screen,canvas.Screen,1_9_0_1,NA,NA,timeout,499.98,125414,125408.88,125418.8,125902.12,125903,2024-05-15T15:51:19Z,125918.78,Sympathie,mapendano,s,dhamiria,fungamano,maazimio,NA,NA,0,NULL,NA,NA,NA,NA,NA,NA,NA,NA,NA,NA,NA,NA,NA,NA,NA,NA,NA,NA,NA
5d1bb,deep,flow.Sequence,1_9_0,NA,NA,completion,5366.66,120521,120518.78,120535.46,125902.12,125904,2024-05-15T15:51:19Z,125918.78,Sympathie,mapendano,s,dhamiria,fungamano,maazimio,NA,NA,NA,NULL,NA,NA,NA,NA,NA,NA,NA,NA,NA,NA,NA,NA,NA,NA,NA,NA,NA,NA,NA
5d1bb,task,flow.Sequence,1_9,NA,NA,completion,5366.66,120521,120518.78,120535.46,125902.12,125904,2024-05-15T15:51:19Z,125918.78,Sympathie,mapendano,s,dhamiria,fungamano,maazimio,NA,NA,NA,NULL,NA,NA,NA,NA,NA,NA,NA,NA,NA,NA,NA,NA,NA,NA,NA,NA,NA,NA,NA
5d1bb,Deep Question,html.Page,1_10_0_0,NA,NA,form submission,3422.22,125905,125902.12,125918.78,129341,129342,2024-05-15T15:51:22Z,129351.14,Verstand,ufahamivu,s,shakawa,hadhari,mhandisi,f,NA,NA,NULL,NA,NA,NA,NA,NA,NA,NA,NA,NA,NA,NA,NA,NA,NA,NA,NA,NA,NA,NA
5d1bb,Save data screen,canvas.Screen,1_10_0_1,NA,NA,timeout,501,129344,129338.72,129351.14,129835.46,129836,2024-05-15T15:51:22Z,129852.14,Verstand,ufahamivu,s,shakawa,hadhari,mhandisi,NA,NA,0,NULL,NA,NA,NA,NA,NA,NA,NA,NA,NA,NA,NA,NA,NA,NA,NA,NA,NA,NA,NA
5d1bb,deep,flow.Sequence,1_10_0,NA,NA,completion,3916.68,125904,125902.12,125918.78,129835.46,129837,2024-05-15T15:51:22Z,129852.14,Verstand,ufahamivu,s,shakawa,hadhari,mhandisi,NA,NA,NA,NULL,NA,NA,NA,NA,NA,NA,NA,NA,NA,NA,NA,NA,NA,NA,NA,NA,NA,NA,NA
5d1bb,task,flow.Sequence,1_10,NA,NA,completion,3916.68,125904,125902.12,125918.78,129835.46,129837,2024-05-15T15:51:22Z,129852.14,Verstand,ufahamivu,s,shakawa,hadhari,mhandisi,NA,NA,NA,NULL,NA,NA,NA,NA,NA,NA,NA,NA,NA,NA,NA,NA,NA,NA,NA,NA,NA,NA,NA
5d1bb,Deep Question,html.Page,1_11_0_0,NA,NA,form submission,3590.86,129837,129835.46,129852.14,133443,133443,2024-05-15T15:51:26Z,133452.14,Gelegenheit,wakati,d,mchanganyiko,kipaumbele,kushuku,f,NA,NA,NULL,NA,NA,NA,NA,NA,NA,NA,NA,NA,NA,NA,NA,NA,NA,NA,NA,NA,NA,NA
5d1bb,Save data screen,canvas.Screen,1_11_0_1,NA,NA,timeout,500,133445,133440.26,133452.14,133935.48,133937,2024-05-15T15:51:27Z,133952.14,Gelegenheit,wakati,d,mchanganyiko,kipaumbele,kushuku,NA,NA,0,NULL,NA,NA,NA,NA,NA,NA,NA,NA,NA,NA,NA,NA,NA,NA,NA,NA,NA,NA,NA
5d1bb,deep,flow.Sequence,1_11_0,NA,NA,completion,4083.34,129837,129835.46,129852.14,133935.48,133937,2024-05-15T15:51:27Z,133952.14,Gelegenheit,wakati,d,mchanganyiko,kipaumbele,kushuku,NA,NA,NA,NULL,NA,NA,NA,NA,NA,NA,NA,NA,NA,NA,NA,NA,NA,NA,NA,NA,NA,NA,NA
5d1bb,task,flow.Sequence,1_11,NA,NA,completion,4083.34,129837,129835.46,129852.14,133935.48,133937,2024-05-15T15:51:27Z,133952.14,Gelegenheit,wakati,d,mchanganyiko,kipaumbele,kushuku,NA,NA,NA,NULL,NA,NA,NA,NA,NA,NA,NA,NA,NA,NA,NA,NA,NA,NA,NA,NA,NA,NA,NA
5d1bb,Deep Question,html.Page,1_12_0_0,NA,NA,form submission,3332.86,133937,133935.48,133952.14,137285,137286,2024-05-15T15:51:30Z,137284.92,Widerstand,usulubu,s,kusababisha,mwalimu,mwenendo,f,NA,NA,NULL,NA,NA,NA,NA,NA,NA,NA,NA,NA,NA,NA,NA,NA,NA,NA,NA,NA,NA,NA
5d1bb,Save data screen,canvas.Screen,1_12_0_1,NA,NA,timeout,500.56,137288,137282.42,137284.92,137768.82,137769,2024-05-15T15:51:30Z,137785.48,Widerstand,usulubu,s,kusababisha,mwalimu,mwenendo,NA,NA,0,NULL,NA,NA,NA,NA,NA,NA,NA,NA,NA,NA,NA,NA,NA,NA,NA,NA,NA,NA,NA
5d1bb,deep,flow.Sequence,1_12_0,NA,NA,completion,3816.68,133937,133935.48,133952.14,137768.82,137770,2024-05-15T15:51:30Z,137785.48,Widerstand,usulubu,s,kusababisha,mwalimu,mwenendo,NA,NA,NA,NULL,NA,NA,NA,NA,NA,NA,NA,NA,NA,NA,NA,NA,NA,NA,NA,NA,NA,NA,NA
5d1bb,task,flow.Sequence,1_12,NA,NA,completion,3816.68,133937,133935.48,133952.14,137768.82,137770,2024-05-15T15:51:30Z,137785.48,Widerstand,usulubu,s,kusababisha,mwalimu,mwenendo,NA,NA,NA,NULL,NA,NA,NA,NA,NA,NA,NA,NA,NA,NA,NA,NA,NA,NA,NA,NA,NA,NA,NA
5d1bb,Deep Question,html.Page,1_13_0_0,NA,NA,form submission,3381.52,137770,137768.82,137785.48,141167,141167,2024-05-15T15:51:34Z,141167.82,Zufall,kikuti,s,kukosekana,uchoraji,leseni,f,NA,NA,NULL,NA,NA,NA,NA,NA,NA,NA,NA,NA,NA,NA,NA,NA,NA,NA,NA,NA,NA,NA
5d1bb,Save data screen,canvas.Screen,1_13_0_1,NA,NA,timeout,500.16,141170,141164.46,141167.82,141652.16,141656,2024-05-15T15:51:34Z,141667.98,Zufall,kikuti,s,kukosekana,uchoraji,leseni,NA,NA,0,NULL,NA,NA,NA,NA,NA,NA,NA,NA,NA,NA,NA,NA,NA,NA,NA,NA,NA,NA,NA
5d1bb,deep,flow.Sequence,1_13_0,NA,NA,completion,3866.68,137770,137768.82,137785.48,141652.16,141657,2024-05-15T15:51:34Z,141667.98,Zufall,kikuti,s,kukosekana,uchoraji,leseni,NA,NA,NA,NULL,NA,NA,NA,NA,NA,NA,NA,NA,NA,NA,NA,NA,NA,NA,NA,NA,NA,NA,NA
5d1bb,task,flow.Sequence,1_13,NA,NA,completion,3866.68,137770,137768.82,137785.48,141652.16,141658,2024-05-15T15:51:34Z,141667.98,Zufall,kikuti,s,kukosekana,uchoraji,leseni,NA,NA,NA,NULL,NA,NA,NA,NA,NA,NA,NA,NA,NA,NA,NA,NA,NA,NA,NA,NA,NA,NA,NA
5d1bb,Deep Question,html.Page,1_14_0_0,NA,NA,form submission,3074.02,141658,141652.16,141667.98,144742,144743,2024-05-15T15:51:37Z,144751.68,Wettbewerb,ushindani,d,mapendezi,kichocheo,ubaguzi,f,NA,NA,NULL,NA,NA,NA,NA,NA,NA,NA,NA,NA,NA,NA,NA,NA,NA,NA,NA,NA,NA,NA
5d1bb,Save data screen,canvas.Screen,1_14_0_1,NA,NA,timeout,499.5,144748,144738.56,144751.68,145235.5,145237,2024-05-15T15:51:38Z,145251.18,Wettbewerb,ushindani,d,mapendezi,kichocheo,ubaguzi,NA,NA,0,NULL,NA,NA,NA,NA,NA,NA,NA,NA,NA,NA,NA,NA,NA,NA,NA,NA,NA,NA,NA
5d1bb,deep,flow.Sequence,1_14_0,NA,NA,completion,3567.52,141658,141652.16,141667.98,145235.5,145237,2024-05-15T15:51:38Z,145251.18,Wettbewerb,ushindani,d,mapendezi,kichocheo,ubaguzi,NA,NA,NA,NULL,NA,NA,NA,NA,NA,NA,NA,NA,NA,NA,NA,NA,NA,NA,NA,NA,NA,NA,NA
5d1bb,task,flow.Sequence,1_14,NA,NA,completion,3567.52,141658,141652.16,141667.98,145235.5,145237,2024-05-15T15:51:38Z,145251.18,Wettbewerb,ushindani,d,mapendezi,kichocheo,ubaguzi,NA,NA,NA,NULL,NA,NA,NA,NA,NA,NA,NA,NA,NA,NA,NA,NA,NA,NA,NA,NA,NA,NA,NA
5d1bb,Deep Question,html.Page,1_15_0_0,NA,NA,form submission,3208.82,145238,145235.5,145251.18,148460,148460,2024-05-15T15:51:41Z,148468.74,Ausschluss,kutengwa,d,ununuzi,taratibu,madeni,f,NA,NA,NULL,NA,NA,NA,NA,NA,NA,NA,NA,NA,NA,NA,NA,NA,NA,NA,NA,NA,NA,NA
5d1bb,Save data screen,canvas.Screen,1_15_0_1,NA,NA,timeout,500.10000000001,148463,148458.18,148468.74,148952.18,148952,2024-05-15T15:51:42Z,148968.84,Ausschluss,kutengwa,d,ununuzi,taratibu,madeni,NA,NA,0,NULL,NA,NA,NA,NA,NA,NA,NA,NA,NA,NA,NA,NA,NA,NA,NA,NA,NA,NA,NA
5d1bb,deep,flow.Sequence,1_15_0,NA,NA,completion,3701,145238,145235.5,145251.18,148952.18,148954,2024-05-15T15:51:42Z,148968.84,Ausschluss,kutengwa,d,ununuzi,taratibu,madeni,NA,NA,NA,NULL,NA,NA,NA,NA,NA,NA,NA,NA,NA,NA,NA,NA,NA,NA,NA,NA,NA,NA,NA
5d1bb,task,flow.Sequence,1_15,NA,NA,completion,3701,145238,145235.5,145251.18,148952.18,148955,2024-05-15T15:51:42Z,148968.84,Ausschluss,kutengwa,d,ununuzi,taratibu,madeni,NA,NA,NA,NULL,NA,NA,NA,NA,NA,NA,NA,NA,NA,NA,NA,NA,NA,NA,NA,NA,NA,NA,NA
5d1bb,retrieval block 1 (cued recall),flow.Loop,1,NA,NA,completion,139100.3,9837,9837.26,9851.88,148952.18,148955,2024-05-15T15:51:42Z,148968.84,NA,NA,NA,NA,NA,NA,NA,NA,NA,NULL,NA,NA,NA,NA,NA,NA,NA,NA,NA,NA,NA,NA,NA,NA,NA,NA,NA,NA,NA
5d1bb,Shallow Question,html.Page,2_0_0_0,NA,NA,form submission,6908.16,148955,148952.18,148968.84,155877,155877,2024-05-15T15:51:49Z,155885.52,Schönheit,kirembo,s,mahojiano,msisimko,jitihadi,kirembo,NA,NA,"c(""distractor1"", ""distractor2"", ""distractor3"")",NA,NA,NA,NA,NA,NA,NA,NA,NA,NA,NA,NA,NA,NA,NA,NA,NA,NA,NA
5d1bb,Save data screen,canvas.Screen,2_0_0_1,NA,NA,timeout,500,155880,155874.44,155885.52,156368.84,156370,2024-05-15T15:51:49Z,156385.52,Schönheit,kirembo,s,mahojiano,msisimko,jitihadi,NA,NA,1,"c(""distractor1"", ""distractor2"", ""distractor3"")",NA,NA,NA,NA,NA,NA,NA,NA,NA,NA,NA,NA,NA,NA,NA,NA,NA,NA,NA
5d1bb,shallow,flow.Sequence,2_0_0,NA,NA,completion,7400,148955,148952.18,148968.84,156368.84,156370,2024-05-15T15:51:49Z,156385.52,Schönheit,kirembo,s,mahojiano,msisimko,jitihadi,NA,NA,NA,"c(""distractor1"", ""distractor2"", ""distractor3"")",NA,NA,NA,NA,NA,NA,NA,NA,NA,NA,NA,NA,NA,NA,NA,NA,NA,NA,NA
5d1bb,task,flow.Sequence,2_0,NA,NA,completion,7400,148955,148952.18,148968.84,156368.84,156371,2024-05-15T15:51:49Z,156385.52,Schönheit,kirembo,s,mahojiano,msisimko,jitihadi,NA,NA,NA,"c(""distractor1"", ""distractor2"", ""distractor3"")",NA,NA,NA,NA,NA,NA,NA,NA,NA,NA,NA,NA,NA,NA,NA,NA,NA,NA,NA
5d1bb,Shallow Question,html.Page,2_1_0_0,NA,NA,form submission,73080.48,156371,156368.84,156385.52,229466,229468,2024-05-15T15:53:02Z,229469,Symbol,kielezo,s,kinyume,nderemo,utayari,kinyume,NA,NA,"c(""distractor1"", ""distractor2"", ""distractor3"")",NA,NA,NA,NA,NA,NA,NA,NA,NA,NA,NA,NA,NA,NA,NA,NA,NA,NA,NA
5d1bb,Save data screen,canvas.Screen,2_1_0_1,NA,NA,timeout,500,229474,229460.9,229469,229952.34,229953,2024-05-15T15:53:03Z,229969,Symbol,kielezo,s,kinyume,nderemo,utayari,NA,NA,0,"c(""distractor1"", ""distractor2"", ""distractor3"")",NA,NA,NA,NA,NA,NA,NA,NA,NA,NA,NA,NA,NA,NA,NA,NA,NA,NA,NA
5d1bb,shallow,flow.Sequence,2_1_0,NA,NA,completion,73566.82,156371,156368.84,156385.52,229952.34,229954,2024-05-15T15:53:03Z,229969,Symbol,kielezo,s,kinyume,nderemo,utayari,NA,NA,NA,"c(""distractor1"", ""distractor2"", ""distractor3"")",NA,NA,NA,NA,NA,NA,NA,NA,NA,NA,NA,NA,NA,NA,NA,NA,NA,NA,NA
5d1bb,task,flow.Sequence,2_1,NA,NA,completion,73566.82,156371,156368.84,156385.52,229952.34,229955,2024-05-15T15:53:03Z,229969,Symbol,kielezo,s,kinyume,nderemo,utayari,NA,NA,NA,"c(""distractor1"", ""distractor2"", ""distractor3"")",NA,NA,NA,NA,NA,NA,NA,NA,NA,NA,NA,NA,NA,NA,NA,NA,NA,NA,NA
5d1bb,Shallow Question,html.Page,2_2_0_0,NA,NA,form submission,7236,229955,229952.34,229969,237205,237205,2024-05-15T15:53:10Z,237202.34,Sympathie,mapendano,s,dhamiria,fungamano,maazimio,mapendano,NA,NA,"c(""distractor1"", ""distractor2"", ""distractor3"")",NA,NA,NA,NA,NA,NA,NA,NA,NA,NA,NA,NA,NA,NA,NA,NA,NA,NA,NA
5d1bb,Save data screen,canvas.Screen,2_2_0_1,NA,NA,timeout,500,237207,237201.94,237202.34,237685.68,237687,2024-05-15T15:53:10Z,237702.34,Sympathie,mapendano,s,dhamiria,fungamano,maazimio,NA,NA,1,"c(""distractor1"", ""distractor2"", ""distractor3"")",NA,NA,NA,NA,NA,NA,NA,NA,NA,NA,NA,NA,NA,NA,NA,NA,NA,NA,NA
5d1bb,shallow,flow.Sequence,2_2_0,NA,NA,completion,7716.68,229955,229952.34,229969,237685.68,237687,2024-05-15T15:53:10Z,237702.34,Sympathie,mapendano,s,dhamiria,fungamano,maazimio,NA,NA,NA,"c(""distractor1"", ""distractor2"", ""distractor3"")",NA,NA,NA,NA,NA,NA,NA,NA,NA,NA,NA,NA,NA,NA,NA,NA,NA,NA,NA
5d1bb,task,flow.Sequence,2_2,NA,NA,completion,7716.68,229955,229952.34,229969,237685.68,237688,2024-05-15T15:53:10Z,237702.34,Sympathie,mapendano,s,dhamiria,fungamano,maazimio,NA,NA,NA,"c(""distractor1"", ""distractor2"", ""distractor3"")",NA,NA,NA,NA,NA,NA,NA,NA,NA,NA,NA,NA,NA,NA,NA,NA,NA,NA,NA
5d1bb,Shallow Question,html.Page,2_3_0_0,NA,NA,form submission,13169.66,237688,237685.68,237702.34,250872,250872,2024-05-15T15:53:24Z,250885.72,Auftrag,uagizaji,d,ghanima,kuzingatia,msukani,uagizaji,NA,NA,"c(""distractor1"", ""distractor2"", ""distractor3"")",NA,NA,NA,NA,NA,NA,NA,NA,NA,NA,NA,NA,NA,NA,NA,NA,NA,NA,NA
5d1bb,Save data screen,canvas.Screen,2_3_0_1,NA,NA,timeout,500,250874,250869.26,250885.72,251368.98,251370,2024-05-15T15:53:24Z,251385.72,Auftrag,uagizaji,d,ghanima,kuzingatia,msukani,NA,NA,1,"c(""distractor1"", ""distractor2"", ""distractor3"")",NA,NA,NA,NA,NA,NA,NA,NA,NA,NA,NA,NA,NA,NA,NA,NA,NA,NA,NA
5d1bb,shallow,flow.Sequence,2_3_0,NA,NA,completion,13666.64,237688,237685.68,237702.34,251368.98,251371,2024-05-15T15:53:24Z,251385.72,Auftrag,uagizaji,d,ghanima,kuzingatia,msukani,NA,NA,NA,"c(""distractor1"", ""distractor2"", ""distractor3"")",NA,NA,NA,NA,NA,NA,NA,NA,NA,NA,NA,NA,NA,NA,NA,NA,NA,NA,NA
5d1bb,task,flow.Sequence,2_3,NA,NA,completion,13666.64,237688,237685.68,237702.34,251368.98,251371,2024-05-15T15:53:24Z,251385.72,Auftrag,uagizaji,d,ghanima,kuzingatia,msukani,NA,NA,NA,"c(""distractor1"", ""distractor2"", ""distractor3"")",NA,NA,NA,NA,NA,NA,NA,NA,NA,NA,NA,NA,NA,NA,NA,NA,NA,NA,NA
5d1bb,Shallow Question,html.Page,2_4_0_0,NA,NA,form submission,9779.28,251372,251368.98,251385.72,261165,261165,2024-05-15T15:53:34Z,261169.06,Wettbewerb,ushindani,d,mapendezi,kichocheo,ubaguzi,ushindani,NA,NA,"c(""distractor1"", ""distractor2"", ""distractor3"")",NA,NA,NA,NA,NA,NA,NA,NA,NA,NA,NA,NA,NA,NA,NA,NA,NA,NA,NA
5d1bb,Save data screen,canvas.Screen,2_4_0_1,NA,NA,timeout,500,261167,261163.18,261169.06,261652.42,261656,2024-05-15T15:53:34Z,261669.06,Wettbewerb,ushindani,d,mapendezi,kichocheo,ubaguzi,NA,NA,1,"c(""distractor1"", ""distractor2"", ""distractor3"")",NA,NA,NA,NA,NA,NA,NA,NA,NA,NA,NA,NA,NA,NA,NA,NA,NA,NA,NA
5d1bb,shallow,flow.Sequence,2_4_0,NA,NA,completion,10266.7,251372,251368.98,251385.72,261652.42,261658,2024-05-15T15:53:34Z,261669.06,Wettbewerb,ushindani,d,mapendezi,kichocheo,ubaguzi,NA,NA,NA,"c(""distractor1"", ""distractor2"", ""distractor3"")",NA,NA,NA,NA,NA,NA,NA,NA,NA,NA,NA,NA,NA,NA,NA,NA,NA,NA,NA
5d1bb,task,flow.Sequence,2_4,NA,NA,completion,10266.7,251371,251368.98,251385.72,261652.42,261659,2024-05-15T15:53:34Z,261669.06,Wettbewerb,ushindani,d,mapendezi,kichocheo,ubaguzi,NA,NA,NA,"c(""distractor1"", ""distractor2"", ""distractor3"")",NA,NA,NA,NA,NA,NA,NA,NA,NA,NA,NA,NA,NA,NA,NA,NA,NA,NA,NA
5d1bb,Shallow Question,html.Page,2_5_0_0,NA,NA,form submission,4886.94,261659,261652.42,261669.06,266556,266557,2024-05-15T15:53:39Z,266569.08,Widerstand,usulubu,s,kusababisha,mwalimu,mwenendo,usulubu,NA,NA,"c(""distractor1"", ""distractor2"", ""distractor3"")",NA,NA,NA,NA,NA,NA,NA,NA,NA,NA,NA,NA,NA,NA,NA,NA,NA,NA,NA
5d1bb,Save data screen,canvas.Screen,2_5_0_1,NA,NA,timeout,500,266561,266553.52,266569.08,267052.4,267054,2024-05-15T15:53:40Z,267069.08,Widerstand,usulubu,s,kusababisha,mwalimu,mwenendo,NA,NA,1,"c(""distractor1"", ""distractor2"", ""distractor3"")",NA,NA,NA,NA,NA,NA,NA,NA,NA,NA,NA,NA,NA,NA,NA,NA,NA,NA,NA
5d1bb,shallow,flow.Sequence,2_5_0,NA,NA,completion,5383.34,261659,261652.42,261669.06,267052.4,267054,2024-05-15T15:53:40Z,267069.08,Widerstand,usulubu,s,kusababisha,mwalimu,mwenendo,NA,NA,NA,"c(""distractor1"", ""distractor2"", ""distractor3"")",NA,NA,NA,NA,NA,NA,NA,NA,NA,NA,NA,NA,NA,NA,NA,NA,NA,NA,NA
5d1bb,task,flow.Sequence,2_5,NA,NA,completion,5383.34,261659,261652.42,261669.06,267052.4,267054,2024-05-15T15:53:40Z,267069.08,Widerstand,usulubu,s,kusababisha,mwalimu,mwenendo,NA,NA,NA,"c(""distractor1"", ""distractor2"", ""distractor3"")",NA,NA,NA,NA,NA,NA,NA,NA,NA,NA,NA,NA,NA,NA,NA,NA,NA,NA,NA
5d1bb,Shallow Question,html.Page,2_6_0_0,NA,NA,form submission,10809.92,267055,267052.4,267069.08,277879,277880,2024-05-15T15:53:51Z,277885.76,Verstand,ufahamivu,s,shakawa,hadhari,mhandisi,ufahamivu,NA,NA,"c(""distractor1"", ""distractor2"", ""distractor3"")",NA,NA,NA,NA,NA,NA,NA,NA,NA,NA,NA,NA,NA,NA,NA,NA,NA,NA,NA
5d1bb,Save data screen,canvas.Screen,2_6_0_1,NA,NA,timeout,500,277882,277876.58,277885.76,278369.1,278370,2024-05-15T15:53:51Z,278385.76,Verstand,ufahamivu,s,shakawa,hadhari,mhandisi,NA,NA,1,"c(""distractor1"", ""distractor2"", ""distractor3"")",NA,NA,NA,NA,NA,NA,NA,NA,NA,NA,NA,NA,NA,NA,NA,NA,NA,NA,NA
5d1bb,shallow,flow.Sequence,2_6_0,NA,NA,completion,11300.02,267055,267052.4,267069.08,278369.1,278371,2024-05-15T15:53:51Z,278385.76,Verstand,ufahamivu,s,shakawa,hadhari,mhandisi,NA,NA,NA,"c(""distractor1"", ""distractor2"", ""distractor3"")",NA,NA,NA,NA,NA,NA,NA,NA,NA,NA,NA,NA,NA,NA,NA,NA,NA,NA,NA
5d1bb,task,flow.Sequence,2_6,NA,NA,completion,11300.02,267055,267052.4,267069.08,278369.1,278372,2024-05-15T15:53:51Z,278385.76,Verstand,ufahamivu,s,shakawa,hadhari,mhandisi,NA,NA,NA,"c(""distractor1"", ""distractor2"", ""distractor3"")",NA,NA,NA,NA,NA,NA,NA,NA,NA,NA,NA,NA,NA,NA,NA,NA,NA,NA,NA
5d1bb,Shallow Question,html.Page,2_7_0_0,NA,NA,form submission,7546.24,278372,278369.1,278385.76,285932,285932,2024-05-15T15:53:59Z,285935.78,Annäherung,maegesho,s,madahili,kujiamini,mapendekezo,maegesho,NA,NA,"c(""distractor1"", ""distractor2"", ""distractor3"")",NA,NA,NA,NA,NA,NA,NA,NA,NA,NA,NA,NA,NA,NA,NA,NA,NA,NA,NA
5d1bb,Save data screen,canvas.Screen,2_7_0_1,NA,NA,timeout,500,285934,285929.22,285935.78,286419.12,286420,2024-05-15T15:53:59Z,286435.78,Annäherung,maegesho,s,madahili,kujiamini,mapendekezo,NA,NA,1,"c(""distractor1"", ""distractor2"", ""distractor3"")",NA,NA,NA,NA,NA,NA,NA,NA,NA,NA,NA,NA,NA,NA,NA,NA,NA,NA,NA
5d1bb,shallow,flow.Sequence,2_7_0,NA,NA,completion,8033.36,278372,278369.1,278385.76,286419.12,286421,2024-05-15T15:53:59Z,286435.78,Annäherung,maegesho,s,madahili,kujiamini,mapendekezo,NA,NA,NA,"c(""distractor1"", ""distractor2"", ""distractor3"")",NA,NA,NA,NA,NA,NA,NA,NA,NA,NA,NA,NA,NA,NA,NA,NA,NA,NA,NA
5d1bb,task,flow.Sequence,2_7,NA,NA,completion,8033.36,278372,278369.1,278385.76,286419.12,286421,2024-05-15T15:53:59Z,286435.78,Annäherung,maegesho,s,madahili,kujiamini,mapendekezo,NA,NA,NA,"c(""distractor1"", ""distractor2"", ""distractor3"")",NA,NA,NA,NA,NA,NA,NA,NA,NA,NA,NA,NA,NA,NA,NA,NA,NA,NA,NA
5d1bb,Shallow Question,html.Page,2_8_0_0,NA,NA,form submission,11050.22,286421,286419.12,286435.78,297486,297486,2024-05-15T15:54:10Z,297485.8,Konkurrent,mshindani,d,msemaji,mvutaji,kipukusa,mshindani,NA,NA,"c(""distractor1"", ""distractor2"", ""distractor3"")",NA,NA,NA,NA,NA,NA,NA,NA,NA,NA,NA,NA,NA,NA,NA,NA,NA,NA,NA
5d1bb,Save data screen,canvas.Screen,2_8_0_1,NA,NA,timeout,500,297488,297483.48,297485.8,297968.48,297969,2024-05-15T15:54:11Z,297985.8,Konkurrent,mshindani,d,msemaji,mvutaji,kipukusa,NA,NA,1,"c(""distractor1"", ""distractor2"", ""distractor3"")",NA,NA,NA,NA,NA,NA,NA,NA,NA,NA,NA,NA,NA,NA,NA,NA,NA,NA,NA
5d1bb,shallow,flow.Sequence,2_8_0,NA,NA,completion,11532.7,286421,286419.12,286435.78,297968.48,297969,2024-05-15T15:54:11Z,297985.8,Konkurrent,mshindani,d,msemaji,mvutaji,kipukusa,NA,NA,NA,"c(""distractor1"", ""distractor2"", ""distractor3"")",NA,NA,NA,NA,NA,NA,NA,NA,NA,NA,NA,NA,NA,NA,NA,NA,NA,NA,NA
5d1bb,task,flow.Sequence,2_8,NA,NA,completion,11532.7,286421,286419.12,286435.78,297968.48,297970,2024-05-15T15:54:11Z,297985.8,Konkurrent,mshindani,d,msemaji,mvutaji,kipukusa,NA,NA,NA,"c(""distractor1"", ""distractor2"", ""distractor3"")",NA,NA,NA,NA,NA,NA,NA,NA,NA,NA,NA,NA,NA,NA,NA,NA,NA,NA,NA
5d1bb,Shallow Question,html.Page,2_9_0_0,NA,NA,form submission,8005.2,297970,297968.48,297985.8,305991,305992,2024-05-15T15:54:19Z,306002.48,Zufall,kikuti,s,kukosekana,uchoraji,leseni,kikuti,NA,NA,"c(""distractor1"", ""distractor2"", ""distractor3"")",NA,NA,NA,NA,NA,NA,NA,NA,NA,NA,NA,NA,NA,NA,NA,NA,NA,NA,NA
5d1bb,Save data screen,canvas.Screen,2_9_0_1,NA,NA,timeout,500,305994,305988.72,306002.48,306485.82,306487,2024-05-15T15:54:19Z,306502.48,Zufall,kikuti,s,kukosekana,uchoraji,leseni,NA,NA,1,"c(""distractor1"", ""distractor2"", ""distractor3"")",NA,NA,NA,NA,NA,NA,NA,NA,NA,NA,NA,NA,NA,NA,NA,NA,NA,NA,NA
5d1bb,shallow,flow.Sequence,2_9_0,NA,NA,completion,8500.02,297970,297968.48,297985.8,306485.82,306487,2024-05-15T15:54:19Z,306502.48,Zufall,kikuti,s,kukosekana,uchoraji,leseni,NA,NA,NA,"c(""distractor1"", ""distractor2"", ""distractor3"")",NA,NA,NA,NA,NA,NA,NA,NA,NA,NA,NA,NA,NA,NA,NA,NA,NA,NA,NA
5d1bb,task,flow.Sequence,2_9,NA,NA,completion,8500.02,297970,297968.48,297985.8,306485.82,306488,2024-05-15T15:54:19Z,306502.48,Zufall,kikuti,s,kukosekana,uchoraji,leseni,NA,NA,NA,"c(""distractor1"", ""distractor2"", ""distractor3"")",NA,NA,NA,NA,NA,NA,NA,NA,NA,NA,NA,NA,NA,NA,NA,NA,NA,NA,NA
5d1bb,Shallow Question,html.Page,2_10_0_0,NA,NA,form submission,7811.52,306488,306485.82,306502.48,314314,314314,2024-05-15T15:54:27Z,314319.16,Vorsorge,tahadhari,d,ufafanuzi,makini,mashambani,ufafanuzi,NA,NA,"c(""distractor1"", ""distractor2"", ""distractor3"")",NA,NA,NA,NA,NA,NA,NA,NA,NA,NA,NA,NA,NA,NA,NA,NA,NA,NA,NA
5d1bb,Save data screen,canvas.Screen,2_10_0_1,NA,NA,timeout,499.04000000004,314315,314310.78,314319.16,314802.4,314803,2024-05-15T15:54:27Z,314818.2,Vorsorge,tahadhari,d,ufafanuzi,makini,mashambani,NA,NA,0,"c(""distractor1"", ""distractor2"", ""distractor3"")",NA,NA,NA,NA,NA,NA,NA,NA,NA,NA,NA,NA,NA,NA,NA,NA,NA,NA,NA
5d1bb,shallow,flow.Sequence,2_10_0,NA,NA,completion,8299.92,306488,306485.82,306502.48,314802.4,314804,2024-05-15T15:54:27Z,314818.2,Vorsorge,tahadhari,d,ufafanuzi,makini,mashambani,NA,NA,NA,"c(""distractor1"", ""distractor2"", ""distractor3"")",NA,NA,NA,NA,NA,NA,NA,NA,NA,NA,NA,NA,NA,NA,NA,NA,NA,NA,NA
5d1bb,task,flow.Sequence,2_10,NA,NA,completion,8299.92,306488,306485.82,306502.48,314802.4,314804,2024-05-15T15:54:27Z,314818.2,Vorsorge,tahadhari,d,ufafanuzi,makini,mashambani,NA,NA,NA,"c(""distractor1"", ""distractor2"", ""distractor3"")",NA,NA,NA,NA,NA,NA,NA,NA,NA,NA,NA,NA,NA,NA,NA,NA,NA,NA,NA
5d1bb,Shallow Question,html.Page,2_11_0_0,NA,NA,form submission,12207.8,314804,314802.4,314818.2,327026,327029,2024-05-15T15:54:40Z,327035.86,Polizist,msongora,d,simanzi,mandhari,nidhamu,msongora,NA,NA,"c(""distractor1"", ""distractor2"", ""distractor3"")",NA,NA,NA,NA,NA,NA,NA,NA,NA,NA,NA,NA,NA,NA,NA,NA,NA,NA,NA
5d1bb,Save data screen,canvas.Screen,2_11_0_1,NA,NA,timeout,500,327034,327021.28,327035.86,327519.2,327520,2024-05-15T15:54:40Z,327535.86,Polizist,msongora,d,simanzi,mandhari,nidhamu,NA,NA,1,"c(""distractor1"", ""distractor2"", ""distractor3"")",NA,NA,NA,NA,NA,NA,NA,NA,NA,NA,NA,NA,NA,NA,NA,NA,NA,NA,NA
5d1bb,shallow,flow.Sequence,2_11_0,NA,NA,completion,12701,314804,314802.4,314818.2,327519.2,327521,2024-05-15T15:54:40Z,327535.86,Polizist,msongora,d,simanzi,mandhari,nidhamu,NA,NA,NA,"c(""distractor1"", ""distractor2"", ""distractor3"")",NA,NA,NA,NA,NA,NA,NA,NA,NA,NA,NA,NA,NA,NA,NA,NA,NA,NA,NA
5d1bb,task,flow.Sequence,2_11,NA,NA,completion,12701,314804,314802.4,314818.2,327519.2,327521,2024-05-15T15:54:40Z,327535.86,Polizist,msongora,d,simanzi,mandhari,nidhamu,NA,NA,NA,"c(""distractor1"", ""distractor2"", ""distractor3"")",NA,NA,NA,NA,NA,NA,NA,NA,NA,NA,NA,NA,NA,NA,NA,NA,NA,NA,NA
5d1bb,Shallow Question,html.Page,2_12_0_0,NA,NA,form submission,8849.14,327522,327519.2,327535.86,336385,336386,2024-05-15T15:54:49Z,336385.88,Beweis,ushahidi,d,marudio,kizuizi,mtendaji,ushahidi,NA,NA,"c(""distractor1"", ""distractor2"", ""distractor3"")",NA,NA,NA,NA,NA,NA,NA,NA,NA,NA,NA,NA,NA,NA,NA,NA,NA,NA,NA
5d1bb,Save data screen,canvas.Screen,2_12_0_1,NA,NA,timeout,500,336388,336383.34,336385.88,336869.22,336871,2024-05-15T15:54:50Z,336885.88,Beweis,ushahidi,d,marudio,kizuizi,mtendaji,NA,NA,1,"c(""distractor1"", ""distractor2"", ""distractor3"")",NA,NA,NA,NA,NA,NA,NA,NA,NA,NA,NA,NA,NA,NA,NA,NA,NA,NA,NA
5d1bb,shallow,flow.Sequence,2_12_0,NA,NA,completion,9333.36,327522,327519.2,327535.86,336869.22,336871,2024-05-15T15:54:50Z,336885.88,Beweis,ushahidi,d,marudio,kizuizi,mtendaji,NA,NA,NA,"c(""distractor1"", ""distractor2"", ""distractor3"")",NA,NA,NA,NA,NA,NA,NA,NA,NA,NA,NA,NA,NA,NA,NA,NA,NA,NA,NA
5d1bb,task,flow.Sequence,2_12,NA,NA,completion,9333.36,327522,327519.2,327535.86,336869.22,336872,2024-05-15T15:54:50Z,336885.88,Beweis,ushahidi,d,marudio,kizuizi,mtendaji,NA,NA,NA,"c(""distractor1"", ""distractor2"", ""distractor3"")",NA,NA,NA,NA,NA,NA,NA,NA,NA,NA,NA,NA,NA,NA,NA,NA,NA,NA,NA
5d1bb,Shallow Question,html.Page,2_13_0_0,NA,NA,form submission,9879.12,336872,336869.22,336885.88,346765,346766,2024-05-15T15:54:59Z,346769.22,Ausschluss,kutengwa,d,ununuzi,taratibu,madeni,kutengwa,NA,NA,"c(""distractor1"", ""distractor2"", ""distractor3"")",NA,NA,NA,NA,NA,NA,NA,NA,NA,NA,NA,NA,NA,NA,NA,NA,NA,NA,NA
5d1bb,Save data screen,canvas.Screen,2_13_0_1,NA,NA,timeout,500,346768,346762.56,346769.22,347251.98,347252,2024-05-15T15:55:00Z,347269.22,Ausschluss,kutengwa,d,ununuzi,taratibu,madeni,NA,NA,1,"c(""distractor1"", ""distractor2"", ""distractor3"")",NA,NA,NA,NA,NA,NA,NA,NA,NA,NA,NA,NA,NA,NA,NA,NA,NA,NA,NA
5d1bb,shallow,flow.Sequence,2_13_0,NA,NA,completion,10366.1,336872,336869.22,336885.88,347251.98,347253,2024-05-15T15:55:00Z,347269.22,Ausschluss,kutengwa,d,ununuzi,taratibu,madeni,NA,NA,NA,"c(""distractor1"", ""distractor2"", ""distractor3"")",NA,NA,NA,NA,NA,NA,NA,NA,NA,NA,NA,NA,NA,NA,NA,NA,NA,NA,NA
5d1bb,task,flow.Sequence,2_13,NA,NA,completion,10366.1,336872,336869.22,336885.88,347251.98,347254,2024-05-15T15:55:00Z,347269.22,Ausschluss,kutengwa,d,ununuzi,taratibu,madeni,NA,NA,NA,"c(""distractor1"", ""distractor2"", ""distractor3"")",NA,NA,NA,NA,NA,NA,NA,NA,NA,NA,NA,NA,NA,NA,NA,NA,NA,NA,NA
5d1bb,Shallow Question,html.Page,2_14_0_0,NA,NA,form submission,6972.78,347254,347251.98,347269.22,354242,354243,2024-05-15T15:55:07Z,354252.54,Gelegenheit,wakati,d,mchanganyiko,kipaumbele,kushuku,wakati,NA,NA,"c(""distractor1"", ""distractor2"", ""distractor3"")",NA,NA,NA,NA,NA,NA,NA,NA,NA,NA,NA,NA,NA,NA,NA,NA,NA,NA,NA
5d1bb,Save data screen,canvas.Screen,2_14_0_1,NA,NA,timeout,500.04000000004,354245,354240.86,354252.54,354735.92,354737,2024-05-15T15:55:07Z,354752.58,Gelegenheit,wakati,d,mchanganyiko,kipaumbele,kushuku,NA,NA,1,"c(""distractor1"", ""distractor2"", ""distractor3"")",NA,NA,NA,NA,NA,NA,NA,NA,NA,NA,NA,NA,NA,NA,NA,NA,NA,NA,NA
5d1bb,shallow,flow.Sequence,2_14_0,NA,NA,completion,7466.7,347254,347251.98,347269.22,354735.92,354737,2024-05-15T15:55:07Z,354752.58,Gelegenheit,wakati,d,mchanganyiko,kipaumbele,kushuku,NA,NA,NA,"c(""distractor1"", ""distractor2"", ""distractor3"")",NA,NA,NA,NA,NA,NA,NA,NA,NA,NA,NA,NA,NA,NA,NA,NA,NA,NA,NA
5d1bb,task,flow.Sequence,2_14,NA,NA,completion,7466.7,347254,347251.98,347269.22,354735.92,354737,2024-05-15T15:55:07Z,354752.58,Gelegenheit,wakati,d,mchanganyiko,kipaumbele,kushuku,NA,NA,NA,"c(""distractor1"", ""distractor2"", ""distractor3"")",NA,NA,NA,NA,NA,NA,NA,NA,NA,NA,NA,NA,NA,NA,NA,NA,NA,NA,NA
5d1bb,Shallow Question,html.Page,2_15_0_0,NA,NA,form submission,5178.42,354738,354735.92,354752.58,359931,359931,2024-05-15T15:55:13Z,359935.92,Zuwachs,nyongeza,s,matilaba,udhibiti,hudhurio,nyongeza,NA,NA,"c(""distractor1"", ""distractor2"", ""distractor3"")",NA,NA,NA,NA,NA,NA,NA,NA,NA,NA,NA,NA,NA,NA,NA,NA,NA,NA,NA
5d1bb,Save data screen,canvas.Screen,2_15_0_1,NA,NA,timeout,500.02000000002,359934,359927.3,359935.92,360419.26,360421,2024-05-15T15:55:13Z,360435.94,Zuwachs,nyongeza,s,matilaba,udhibiti,hudhurio,NA,NA,1,"c(""distractor1"", ""distractor2"", ""distractor3"")",NA,NA,NA,NA,NA,NA,NA,NA,NA,NA,NA,NA,NA,NA,NA,NA,NA,NA,NA
5d1bb,shallow,flow.Sequence,2_15_0,NA,NA,completion,5666.68,354738,354735.92,354752.58,360419.26,360421,2024-05-15T15:55:13Z,360435.94,Zuwachs,nyongeza,s,matilaba,udhibiti,hudhurio,NA,NA,NA,"c(""distractor1"", ""distractor2"", ""distractor3"")",NA,NA,NA,NA,NA,NA,NA,NA,NA,NA,NA,NA,NA,NA,NA,NA,NA,NA,NA
5d1bb,task,flow.Sequence,2_15,NA,NA,completion,5666.68,354738,354735.92,354752.58,360419.26,360421,2024-05-15T15:55:13Z,360435.94,Zuwachs,nyongeza,s,matilaba,udhibiti,hudhurio,NA,NA,NA,"c(""distractor1"", ""distractor2"", ""distractor3"")",NA,NA,NA,NA,NA,NA,NA,NA,NA,NA,NA,NA,NA,NA,NA,NA,NA,NA,NA
5d1bb,retrieval block 2 (multiple choice),flow.Loop,2,NA,NA,completion,211450.42,148955,148952.18,148968.84,360419.26,360422,2024-05-15T15:55:13Z,360435.94,NA,NA,NA,NA,NA,NA,NA,NA,NA,"c(""distractor1"", ""distractor2"", ""distractor3"")",NA,NA,NA,NA,NA,NA,NA,NA,NA,NA,NA,NA,NA,NA,NA,NA,NA,NA,NA
5d1bb,End,canvas.Screen,3,NA,keypress(Space),response,2124.06,360422,360419.26,360435.94,362560,362567,2024-05-15T15:55:15Z,362568.02,NA,NA,NA,NA,NA,NA,NA,NA,NA,NULL,NA,NA,NA,NA,NA,NA,NA,NA,NA,NA,NA,NA,NA,NA,NA,NA,NA,NA,NA
5d1bb,root,flow.Sequence,NA,NA,NA,completion,360224.8,2306,2318.52,2335.2,362560,362568,2024-05-15T15:55:15Z,362568.02,NA,NA,NA,NA,NA,NA,NA,NA,NA,NULL,NA,NA,NA,NA,NA,NA,NA,NA,NA,NA,NA,NA,NA,NA,NA,NA,NA,NA,NA
