observation,sender,sender_type,sender_id,response,response_action,ended_on,duration,time_run,time_render,time_show,time_end,time_commit,timestamp,time_switch,distractors,german,swahili,enc,distractor1,distractor2,distractor3,response_2,x,correct,x_2,url_vp,url_sess,meta_labjs_version,meta_location,meta_user_agent,meta_platform,meta_language,meta_locale,meta_time_zone,meta_timezone_offset,meta_screen_width,meta_screen_height,meta_scroll_width,meta_scroll_height,meta_window_inner_width,meta_window_inner_height,meta_device_pixel_ratio,meta_labjs_build_flavor,meta_labjs_build_commit
8c8e8,Introduction general,canvas.Screen,0,weiter,keypress(q),response,61609.199999905,468.70000004768,451.324,484.4,62093.599999904996,62098.299999952,2024-05-13T12:11:07Z,62096.9,NULL,NA,NA,NA,NA,NA,NA,NA,NA,NA,NA,197,1,20.2.4,https://neurocog.fernuni.ch/studies/vweber/aberisha/encoding_immediate/index.html?vp=197&sess=1,"Mozilla/5.0 (Windows NT 10.0; Win64; x64) AppleWebKit/537.36 (KHTML, like Gecko) Chrome/124.0.0.0 Safari/537.36",Win32,de-DE,de,Europe/Zurich,-120,1536,864,1536,682,1536,730,1.25,production,f5b4a49f956347addd546a832a3327688c2c0fef
8c8e8,Introduction practice,canvas.Screen,1_0,NA,keypress(Space),response,4775.6,62098.599999904996,62091.4,62096.9,66872.5,66873.599999905,2024-05-13T12:11:12Z,66910.8,NULL,NA,NA,NA,NA,NA,NA,NA,NA,NA,NA,NA,NA,NA,NA,NA,NA,NA,NA,NA,NA,NA,NA,NA,NA,NA,NA,NA,NA,NA
8c8e8,Deep Question,html.Page,1_1_0_0_0,NA,NA,form submission,23590.099999857,66874,66862.51,66910.8,90500.899999857,90501.299999952,2024-05-13T12:11:36Z,90512.9,"c(""distractor1"", ""distractor2"", ""distractor3"")",Qualität,mtindo,d,NA,NA,NA,jkjdf,NA,NA,NA,NA,NA,NA,NA,NA,NA,NA,NA,NA,NA,NA,NA,NA,NA,NA,NA,NA,NA,NA
8c8e8,"""Richtig""-Screen",canvas.Screen,1_1_0_0_1,NA,NA,skipped,NA,90502.5,NA,NA,90500.899999857,90502.599999905,2024-05-13T12:11:36Z,90512.9,"c(""distractor1"", ""distractor2"", ""distractor3"")",Qualität,mtindo,d,NA,NA,NA,NA,NA,NA,NA,NA,NA,NA,NA,NA,NA,NA,NA,NA,NA,NA,NA,NA,NA,NA,NA,NA,NA,NA
8c8e8,"""Falsch""-Screen",canvas.Screen,1_1_0_0_2,NA,NA,timeout,4996.9,90503.299999952,90499.3,90512.9,95493.2,95498.099999905,2024-05-13T12:11:41Z,95509.8,"c(""distractor1"", ""distractor2"", ""distractor3"")",Qualität,mtindo,d,NA,NA,NA,NA,NA,0,NA,NA,NA,NA,NA,NA,NA,NA,NA,NA,NA,NA,NA,NA,NA,NA,NA,NA,NA,NA
8c8e8,deep,flow.Sequence,1_1_0_0,NA,NA,completion,28582.4,66874,66862.51,66910.8,95493.2,95498.599999905,2024-05-13T12:11:41Z,95509.8,"c(""distractor1"", ""distractor2"", ""distractor3"")",Qualität,mtindo,d,NA,NA,NA,NA,NA,NA,NA,NA,NA,NA,NA,NA,NA,NA,NA,NA,NA,NA,NA,NA,NA,NA,NA,NA,NA,NA
8c8e8,shallow,flow.Sequence,1_1_0_1,NA,NA,skipped,NA,95498.799999952,NA,NA,95493.2,95498.799999952,2024-05-13T12:11:41Z,95509.8,"c(""distractor1"", ""distractor2"", ""distractor3"")",Qualität,mtindo,d,NA,NA,NA,NA,NA,NA,NA,NA,NA,NA,NA,NA,NA,NA,NA,NA,NA,NA,NA,NA,NA,NA,NA,NA,NA,NA
8c8e8,task,flow.Sequence,1_1_0,NA,NA,completion,28582.4,66873.899999857,66862.51,66910.8,95493.2,95499,2024-05-13T12:11:41Z,95509.8,"c(""distractor1"", ""distractor2"", ""distractor3"")",Qualität,mtindo,d,NA,NA,NA,NA,NA,NA,NA,NA,NA,NA,NA,NA,NA,NA,NA,NA,NA,NA,NA,NA,NA,NA,NA,NA,NA,NA
8c8e8,deep,flow.Sequence,1_1_1_0,NA,NA,skipped,NA,95499,NA,NA,95493.2,95499.099999905,2024-05-13T12:11:41Z,95509.8,"c(""distractor1"", ""distractor2"", ""distractor3"")",Gegenwart,hadhara,s,katiba,jokofu,mikopo,NA,NA,NA,NA,NA,NA,NA,NA,NA,NA,NA,NA,NA,NA,NA,NA,NA,NA,NA,NA,NA,NA,NA
8c8e8,Shallow Question,html.Page,1_1_1_1_0,NA,NA,form submission,13392.900000048,95499.200000048,95493.2,95509.8,108902.70000005,108903.0999999,2024-05-13T12:11:54Z,108935.5,"c(""distractor1"", ""distractor2"", ""distractor3"")",Gegenwart,hadhara,s,katiba,jokofu,mikopo,mikopo,NA,NA,NA,NA,NA,NA,NA,NA,NA,NA,NA,NA,NA,NA,NA,NA,NA,NA,NA,NA,NA,NA
8c8e8,"""Richtig""-Screen",canvas.Screen,1_1_1_1_1,NA,NA,skipped,NA,108906.5,NA,NA,108902.70000005,108906.5999999,2024-05-13T12:11:54Z,108935.5,"c(""distractor1"", ""distractor2"", ""distractor3"")",Gegenwart,hadhara,s,katiba,jokofu,mikopo,NA,NA,NA,NA,NA,NA,NA,NA,NA,NA,NA,NA,NA,NA,NA,NA,NA,NA,NA,NA,NA,NA,NA
8c8e8,"""Falsch""-Screen",canvas.Screen,1_1_1_1_2,NA,NA,timeout,4996.8,108907.39999986,108919.018,108935.5,113915.5,113916.20000005,2024-05-13T12:11:59Z,113932.3,"c(""distractor1"", ""distractor2"", ""distractor3"")",Gegenwart,hadhara,s,katiba,jokofu,mikopo,NA,NA,0,NA,NA,NA,NA,NA,NA,NA,NA,NA,NA,NA,NA,NA,NA,NA,NA,NA,NA,NA,NA
8c8e8,shallow,flow.Sequence,1_1_1_1,NA,NA,completion,18405.7,95499.200000048,95493.2,95509.8,113915.5,113916.5999999,2024-05-13T12:11:59Z,113932.3,"c(""distractor1"", ""distractor2"", ""distractor3"")",Gegenwart,hadhara,s,katiba,jokofu,mikopo,NA,NA,NA,NA,NA,NA,NA,NA,NA,NA,NA,NA,NA,NA,NA,NA,NA,NA,NA,NA,NA,NA,NA
8c8e8,task,flow.Sequence,1_1_1,NA,NA,completion,18405.7,95499,95493.2,95509.8,113915.5,113916.79999995,2024-05-13T12:11:59Z,113932.3,"c(""distractor1"", ""distractor2"", ""distractor3"")",Gegenwart,hadhara,s,katiba,jokofu,mikopo,NA,NA,NA,NA,NA,NA,NA,NA,NA,NA,NA,NA,NA,NA,NA,NA,NA,NA,NA,NA,NA,NA,NA
8c8e8,deep,flow.Sequence,1_1_2_0,NA,NA,skipped,NA,113916.89999986,NA,NA,113915.5,113917,2024-05-13T12:11:59Z,113932.3,"c(""distractor1"", ""distractor2"", ""distractor3"")",Kritik,lawama,s,dereva,nafasi,mawazo,NA,NA,NA,NA,NA,NA,NA,NA,NA,NA,NA,NA,NA,NA,NA,NA,NA,NA,NA,NA,NA,NA,NA
8c8e8,Shallow Question,html.Page,1_1_2_1_0,NA,NA,form submission,11418.7,113917.0999999,113915.5,113932.3,125351,125351.20000005,2024-05-13T12:12:10Z,125358.2,"c(""distractor1"", ""distractor2"", ""distractor3"")",Kritik,lawama,s,dereva,nafasi,mawazo,nafasi,NA,NA,NA,NA,NA,NA,NA,NA,NA,NA,NA,NA,NA,NA,NA,NA,NA,NA,NA,NA,NA,NA
8c8e8,"""Richtig""-Screen",canvas.Screen,1_1_2_1_1,NA,NA,skipped,NA,125354.39999986,NA,NA,125351,125354.5999999,2024-05-13T12:12:10Z,125358.2,"c(""distractor1"", ""distractor2"", ""distractor3"")",Kritik,lawama,s,dereva,nafasi,mawazo,NA,NA,NA,NA,NA,NA,NA,NA,NA,NA,NA,NA,NA,NA,NA,NA,NA,NA,NA,NA,NA,NA,NA
8c8e8,"""Falsch""-Screen",canvas.Screen,1_1_2_1_2,NA,NA,timeout,4997.7,125355.70000005,125342.532,125358.2,130338.6,130339.5,2024-05-13T12:12:15Z,130355.9,"c(""distractor1"", ""distractor2"", ""distractor3"")",Kritik,lawama,s,dereva,nafasi,mawazo,NA,NA,0,NA,NA,NA,NA,NA,NA,NA,NA,NA,NA,NA,NA,NA,NA,NA,NA,NA,NA,NA,NA
8c8e8,shallow,flow.Sequence,1_1_2_1,NA,NA,completion,16406.3,113917,113915.5,113932.3,130338.6,130339.89999986,2024-05-13T12:12:15Z,130355.9,"c(""distractor1"", ""distractor2"", ""distractor3"")",Kritik,lawama,s,dereva,nafasi,mawazo,NA,NA,NA,NA,NA,NA,NA,NA,NA,NA,NA,NA,NA,NA,NA,NA,NA,NA,NA,NA,NA,NA,NA
8c8e8,task,flow.Sequence,1_1_2,NA,NA,completion,16406.3,113916.79999995,113915.5,113932.3,130338.6,130340.0999999,2024-05-13T12:12:15Z,130355.9,"c(""distractor1"", ""distractor2"", ""distractor3"")",Kritik,lawama,s,dereva,nafasi,mawazo,NA,NA,NA,NA,NA,NA,NA,NA,NA,NA,NA,NA,NA,NA,NA,NA,NA,NA,NA,NA,NA,NA,NA
8c8e8,deep,flow.Sequence,1_1_3_0,NA,NA,skipped,NA,130340.29999995,NA,NA,130338.6,130340.39999986,2024-05-13T12:12:15Z,130355.9,"c(""distractor1"", ""distractor2"", ""distractor3"")",Rückhalt,msaada,s,muhula,auwali,kiwimbe,NA,NA,NA,NA,NA,NA,NA,NA,NA,NA,NA,NA,NA,NA,NA,NA,NA,NA,NA,NA,NA,NA,NA
8c8e8,Shallow Question,html.Page,1_1_3_1_0,NA,NA,form submission,12512.300000048,130340.5999999,130338.6,130355.9,142868.20000005,142868.29999995,2024-05-13T12:12:28Z,142881.2,"c(""distractor1"", ""distractor2"", ""distractor3"")",Rückhalt,msaada,s,muhula,auwali,kiwimbe,muhula,NA,NA,NA,NA,NA,NA,NA,NA,NA,NA,NA,NA,NA,NA,NA,NA,NA,NA,NA,NA,NA,NA
8c8e8,"""Richtig""-Screen",canvas.Screen,1_1_3_1_1,NA,NA,skipped,NA,142870,NA,NA,142868.20000005,142870,2024-05-13T12:12:28Z,142881.2,"c(""distractor1"", ""distractor2"", ""distractor3"")",Rückhalt,msaada,s,muhula,auwali,kiwimbe,NA,NA,NA,NA,NA,NA,NA,NA,NA,NA,NA,NA,NA,NA,NA,NA,NA,NA,NA,NA,NA,NA,NA
8c8e8,"""Falsch""-Screen",canvas.Screen,1_1_3_1_2,NA,NA,timeout,4997.1,142870.5,142864.984,142881.2,147861.5,147862.20000005,2024-05-13T12:12:33Z,147878.3,"c(""distractor1"", ""distractor2"", ""distractor3"")",Rückhalt,msaada,s,muhula,auwali,kiwimbe,NA,NA,0,NA,NA,NA,NA,NA,NA,NA,NA,NA,NA,NA,NA,NA,NA,NA,NA,NA,NA,NA,NA
8c8e8,shallow,flow.Sequence,1_1_3_1,NA,NA,completion,17505.6,130340.5999999,130338.6,130355.9,147861.5,147862.39999986,2024-05-13T12:12:33Z,147878.3,"c(""distractor1"", ""distractor2"", ""distractor3"")",Rückhalt,msaada,s,muhula,auwali,kiwimbe,NA,NA,NA,NA,NA,NA,NA,NA,NA,NA,NA,NA,NA,NA,NA,NA,NA,NA,NA,NA,NA,NA,NA
8c8e8,task,flow.Sequence,1_1_3,NA,NA,completion,17505.6,130340.29999995,130338.6,130355.9,147861.5,147862.5999999,2024-05-13T12:12:33Z,147878.3,"c(""distractor1"", ""distractor2"", ""distractor3"")",Rückhalt,msaada,s,muhula,auwali,kiwimbe,NA,NA,NA,NA,NA,NA,NA,NA,NA,NA,NA,NA,NA,NA,NA,NA,NA,NA,NA,NA,NA,NA,NA
8c8e8,Deep Question,html.Page,1_1_4_0_0,NA,NA,form submission,5956.599999857,147862.79999995,147861.5,147878.3,153834.89999986,153835,2024-05-13T12:12:39Z,153840.9,"c(""distractor1"", ""distractor2"", ""distractor3"")",Schatten,kivuli,d,NA,NA,NA,kdjfk,NA,NA,NA,NA,NA,NA,NA,NA,NA,NA,NA,NA,NA,NA,NA,NA,NA,NA,NA,NA,NA,NA
8c8e8,"""Richtig""-Screen",canvas.Screen,1_1_4_0_1,NA,NA,skipped,NA,153838.0999999,NA,NA,153834.89999986,153838.20000005,2024-05-13T12:12:39Z,153840.9,"c(""distractor1"", ""distractor2"", ""distractor3"")",Schatten,kivuli,d,NA,NA,NA,NA,NA,NA,NA,NA,NA,NA,NA,NA,NA,NA,NA,NA,NA,NA,NA,NA,NA,NA,NA,NA,NA,NA
8c8e8,"""Falsch""-Screen",canvas.Screen,1_1_4_0_2,NA,NA,timeout,4997.5,153839.20000005,153824.952,153840.9,158821.3,158822.29999995,2024-05-13T12:12:44Z,158838.4,"c(""distractor1"", ""distractor2"", ""distractor3"")",Schatten,kivuli,d,NA,NA,NA,NA,NA,0,NA,NA,NA,NA,NA,NA,NA,NA,NA,NA,NA,NA,NA,NA,NA,NA,NA,NA,NA,NA
8c8e8,deep,flow.Sequence,1_1_4_0,NA,NA,completion,10943,147862.70000005,147861.5,147878.3,158821.3,158822.5999999,2024-05-13T12:12:44Z,158838.4,"c(""distractor1"", ""distractor2"", ""distractor3"")",Schatten,kivuli,d,NA,NA,NA,NA,NA,NA,NA,NA,NA,NA,NA,NA,NA,NA,NA,NA,NA,NA,NA,NA,NA,NA,NA,NA,NA,NA
8c8e8,shallow,flow.Sequence,1_1_4_1,NA,NA,skipped,NA,158822.70000005,NA,NA,158821.3,158822.79999995,2024-05-13T12:12:44Z,158838.4,"c(""distractor1"", ""distractor2"", ""distractor3"")",Schatten,kivuli,d,NA,NA,NA,NA,NA,NA,NA,NA,NA,NA,NA,NA,NA,NA,NA,NA,NA,NA,NA,NA,NA,NA,NA,NA,NA,NA
8c8e8,task,flow.Sequence,1_1_4,NA,NA,completion,10943,147862.70000005,147861.5,147878.3,158821.3,158823,2024-05-13T12:12:44Z,158838.4,"c(""distractor1"", ""distractor2"", ""distractor3"")",Schatten,kivuli,d,NA,NA,NA,NA,NA,NA,NA,NA,NA,NA,NA,NA,NA,NA,NA,NA,NA,NA,NA,NA,NA,NA,NA,NA,NA,NA
8c8e8,Deep Question,html.Page,1_1_5_0_0,NA,NA,form submission,4290.6,158823.29999995,158821.3,158838.4,163129,163129.20000005,2024-05-13T12:12:48Z,163135.944,"c(""distractor1"", ""distractor2"", ""distractor3"")",Gesundheit,salama,d,NA,NA,NA,f,NA,NA,NA,NA,NA,NA,NA,NA,NA,NA,NA,NA,NA,NA,NA,NA,NA,NA,NA,NA,NA,NA
8c8e8,"""Richtig""-Screen",canvas.Screen,1_1_5_0_1,NA,NA,skipped,NA,163132.39999986,NA,NA,163129,163132.39999986,2024-05-13T12:12:48Z,163135.944,"c(""distractor1"", ""distractor2"", ""distractor3"")",Gesundheit,salama,d,NA,NA,NA,NA,NA,NA,NA,NA,NA,NA,NA,NA,NA,NA,NA,NA,NA,NA,NA,NA,NA,NA,NA,NA,NA,NA
8c8e8,"""Falsch""-Screen",canvas.Screen,1_1_5_0_2,NA,NA,timeout,4996.756,163133.20000005,163135.944,163135.944,168115.7,168116.70000005,2024-05-13T12:12:53Z,168132.7,"c(""distractor1"", ""distractor2"", ""distractor3"")",Gesundheit,salama,d,NA,NA,NA,NA,NA,0,NA,NA,NA,NA,NA,NA,NA,NA,NA,NA,NA,NA,NA,NA,NA,NA,NA,NA,NA,NA
8c8e8,deep,flow.Sequence,1_1_5_0,NA,NA,completion,9277.3,158823.20000005,158821.3,158838.4,168115.7,168117,2024-05-13T12:12:53Z,168132.7,"c(""distractor1"", ""distractor2"", ""distractor3"")",Gesundheit,salama,d,NA,NA,NA,NA,NA,NA,NA,NA,NA,NA,NA,NA,NA,NA,NA,NA,NA,NA,NA,NA,NA,NA,NA,NA,NA,NA
8c8e8,shallow,flow.Sequence,1_1_5_1,NA,NA,skipped,NA,168117.20000005,NA,NA,168115.7,168117.29999995,2024-05-13T12:12:53Z,168132.7,"c(""distractor1"", ""distractor2"", ""distractor3"")",Gesundheit,salama,d,NA,NA,NA,NA,NA,NA,NA,NA,NA,NA,NA,NA,NA,NA,NA,NA,NA,NA,NA,NA,NA,NA,NA,NA,NA,NA
8c8e8,task,flow.Sequence,1_1_5,NA,NA,completion,9277.3,158823.20000005,158821.3,158838.4,168115.7,168117.5999999,2024-05-13T12:12:53Z,168132.7,"c(""distractor1"", ""distractor2"", ""distractor3"")",Gesundheit,salama,d,NA,NA,NA,NA,NA,NA,NA,NA,NA,NA,NA,NA,NA,NA,NA,NA,NA,NA,NA,NA,NA,NA,NA,NA,NA,NA
8c8e8,block,flow.Loop,1_1,NA,NA,completion,101204.9,66873.799999952,66862.51,66910.8,168115.7,168117.89999986,2024-05-13T12:12:53Z,168132.7,"c(""distractor1"", ""distractor2"", ""distractor3"")",NA,NA,NA,NA,NA,NA,NA,NA,NA,NA,NA,NA,NA,NA,NA,NA,NA,NA,NA,NA,NA,NA,NA,NA,NA,NA,NA,NA,NA
8c8e8,Practice,flow.Sequence,1,NA,NA,completion,106018.8,62098.599999904996,62091.4,62096.9,168115.7,168118.0999999,2024-05-13T12:12:53Z,168132.7,NULL,NA,NA,NA,NA,NA,NA,NA,NA,NA,NA,NA,NA,NA,NA,NA,NA,NA,NA,NA,NA,NA,NA,NA,NA,NA,NA,NA,NA,NA
8c8e8,Experiment start,canvas.Screen,2,weiter,keypress(q),response,67437.399999905,168118.20000005,168115.7,168132.7,235570.0999999,235571.20000005,2024-05-13T12:14:01Z,235628.748,NULL,NA,NA,NA,NA,NA,NA,NA,NA,NA,NA,NA,NA,NA,NA,NA,NA,NA,NA,NA,NA,NA,NA,NA,NA,NA,NA,NA,NA,NA
8c8e8,Deep Question,html.Page,3_0_0_0_0_0_0,NA,NA,form submission,9750.252,235629.0999999,235628.748,235628.748,245379,245379.39999986,2024-05-13T12:14:11Z,245385.1,NULL,Inhalt,yaliyomo,d,NA,NA,NA,l,NA,NA,0,NA,NA,NA,NA,NA,NA,NA,NA,NA,NA,NA,NA,NA,NA,NA,NA,NA,NA,NA
8c8e8,"""Richtig""-Screen",canvas.Screen,3_0_0_0_0_0_1,NA,NA,skipped,NA,245382.29999995,NA,NA,245379,245382.39999986,2024-05-13T12:14:11Z,245385.1,NULL,Inhalt,yaliyomo,d,NA,NA,NA,NA,sdf,NA,0,NA,NA,NA,NA,NA,NA,NA,NA,NA,NA,NA,NA,NA,NA,NA,NA,NA,NA,NA
8c8e8,"""Falsch""-Screen",canvas.Screen,3_0_0_0_0_0_2,NA,NA,timeout,4996.9,245383.20000005,245368.812,245385.1,250365.7,250366.70000005,2024-05-13T12:14:15Z,250382,NULL,Inhalt,yaliyomo,d,NA,NA,NA,NA,sdf,0,0,NA,NA,NA,NA,NA,NA,NA,NA,NA,NA,NA,NA,NA,NA,NA,NA,NA,NA,NA
8c8e8,deep,flow.Sequence,3_0_0_0_0_0,NA,NA,completion,14736.952,235629.0999999,235628.748,235628.748,250365.7,250367.0999999,2024-05-13T12:14:15Z,250382,NULL,Inhalt,yaliyomo,d,NA,NA,NA,NA,sdf,NA,0,NA,NA,NA,NA,NA,NA,NA,NA,NA,NA,NA,NA,NA,NA,NA,NA,NA,NA,NA
8c8e8,shallow,flow.Sequence,3_0_0_0_0_1,NA,NA,skipped,NA,250367.20000005,NA,NA,250365.7,250367.39999986,2024-05-13T12:14:15Z,250382,NULL,Inhalt,yaliyomo,d,NA,NA,NA,NA,sdf,NA,0,NA,NA,NA,NA,NA,NA,NA,NA,NA,NA,NA,NA,NA,NA,NA,NA,NA,NA,NA
8c8e8,task,flow.Sequence,3_0_0_0_0,NA,NA,completion,14736.952,235629.0999999,235628.748,235628.748,250365.7,250367.5,2024-05-13T12:14:15Z,250382,NULL,Inhalt,yaliyomo,d,NA,NA,NA,NA,sdf,NA,0,NA,NA,NA,NA,NA,NA,NA,NA,NA,NA,NA,NA,NA,NA,NA,NA,NA,NA,NA
8c8e8,deep,flow.Sequence,3_0_0_0_1_0,NA,NA,skipped,NA,250367.5999999,NA,NA,250365.7,250367.70000005,2024-05-13T12:14:15Z,250382,NULL,Annäherung,maegesho,s,madahili,kujiamini,mapendekezo,NA,sdf,NA,0,NA,NA,NA,NA,NA,NA,NA,NA,NA,NA,NA,NA,NA,NA,NA,NA,NA,NA,NA
8c8e8,Shallow Question,html.Page,3_0_0_0_1_1_0,NA,NA,form submission,9686.2000000477,250367.89999986,250365.7,250382,260068.20000005,260068.29999995,2024-05-13T12:14:25Z,260076.1,NULL,Annäherung,maegesho,s,madahili,kujiamini,mapendekezo,mapendekezo,NA,NA,0,NA,NA,NA,NA,NA,NA,NA,NA,NA,NA,NA,NA,NA,NA,NA,NA,NA,NA,NA
8c8e8,"""Richtig""-Screen",canvas.Screen,3_0_0_0_1_1_1,NA,NA,skipped,NA,260070.20000005,NA,NA,260068.20000005,260070.39999986,2024-05-13T12:14:25Z,260076.1,NULL,Annäherung,maegesho,s,madahili,kujiamini,mapendekezo,NA,sdf,NA,0,NA,NA,NA,NA,NA,NA,NA,NA,NA,NA,NA,NA,NA,NA,NA,NA,NA,NA,NA
8c8e8,"""Falsch""-Screen",canvas.Screen,3_0_0_0_1_1_2,NA,NA,timeout,4997.3,260070.89999986,260060.022,260076.1,265056.7,265057.5,2024-05-13T12:14:30Z,265073.4,NULL,Annäherung,maegesho,s,madahili,kujiamini,mapendekezo,NA,sdf,0,0,NA,NA,NA,NA,NA,NA,NA,NA,NA,NA,NA,NA,NA,NA,NA,NA,NA,NA,NA
8c8e8,shallow,flow.Sequence,3_0_0_0_1_1,NA,NA,completion,14674.7,250367.79999995,250365.7,250382,265056.7,265057.89999986,2024-05-13T12:14:30Z,265073.4,NULL,Annäherung,maegesho,s,madahili,kujiamini,mapendekezo,NA,sdf,NA,0,NA,NA,NA,NA,NA,NA,NA,NA,NA,NA,NA,NA,NA,NA,NA,NA,NA,NA,NA
8c8e8,task,flow.Sequence,3_0_0_0_1,NA,NA,completion,14674.7,250367.5999999,250365.7,250382,265056.7,265058.0999999,2024-05-13T12:14:30Z,265073.4,NULL,Annäherung,maegesho,s,madahili,kujiamini,mapendekezo,NA,sdf,NA,0,NA,NA,NA,NA,NA,NA,NA,NA,NA,NA,NA,NA,NA,NA,NA,NA,NA,NA,NA
8c8e8,Deep Question,html.Page,3_0_0_0_2_0_0,NA,NA,form submission,5037.3000000477,265058.29999995,265056.7,265073.4,270110.70000005,270110.79999995,2024-05-13T12:14:35Z,270120.2,NULL,Beweis,ushahidi,d,NA,NA,NA,r,NA,NA,0,NA,NA,NA,NA,NA,NA,NA,NA,NA,NA,NA,NA,NA,NA,NA,NA,NA,NA,NA
8c8e8,"""Richtig""-Screen",canvas.Screen,3_0_0_0_2_0_1,NA,NA,skipped,NA,270112.39999986,NA,NA,270110.70000005,270112.5,2024-05-13T12:14:35Z,270120.2,NULL,Beweis,ushahidi,d,NA,NA,NA,NA,sdf,NA,0,NA,NA,NA,NA,NA,NA,NA,NA,NA,NA,NA,NA,NA,NA,NA,NA,NA,NA,NA
8c8e8,"""Falsch""-Screen",canvas.Screen,3_0_0_0_2_0_2,NA,NA,timeout,4997.2,270112.79999995,270103.888,270120.2,275100.5,275101.5,2024-05-13T12:14:40Z,275117.4,NULL,Beweis,ushahidi,d,NA,NA,NA,NA,sdf,0,0,NA,NA,NA,NA,NA,NA,NA,NA,NA,NA,NA,NA,NA,NA,NA,NA,NA,NA,NA
8c8e8,deep,flow.Sequence,3_0_0_0_2_0,NA,NA,completion,10027.1,265058.29999995,265056.7,265073.4,275100.5,275101.79999995,2024-05-13T12:14:40Z,275117.4,NULL,Beweis,ushahidi,d,NA,NA,NA,NA,sdf,NA,0,NA,NA,NA,NA,NA,NA,NA,NA,NA,NA,NA,NA,NA,NA,NA,NA,NA,NA,NA
8c8e8,shallow,flow.Sequence,3_0_0_0_2_1,NA,NA,skipped,NA,275101.89999986,NA,NA,275100.5,275102,2024-05-13T12:14:40Z,275117.4,NULL,Beweis,ushahidi,d,NA,NA,NA,NA,sdf,NA,0,NA,NA,NA,NA,NA,NA,NA,NA,NA,NA,NA,NA,NA,NA,NA,NA,NA,NA,NA
8c8e8,task,flow.Sequence,3_0_0_0_2,NA,NA,completion,10027.1,265058.20000005,265056.7,265073.4,275100.5,275102.29999995,2024-05-13T12:14:40Z,275117.4,NULL,Beweis,ushahidi,d,NA,NA,NA,NA,sdf,NA,0,NA,NA,NA,NA,NA,NA,NA,NA,NA,NA,NA,NA,NA,NA,NA,NA,NA,NA,NA
8c8e8,deep,flow.Sequence,3_0_0_0_3_0,NA,NA,skipped,NA,275102.39999986,NA,NA,275100.5,275102.5999999,2024-05-13T12:14:40Z,275117.4,NULL,Toleranz,kuvumiliana,s,maombolezo,ujasusi,mchekeshaji,NA,sdf,NA,0,NA,NA,NA,NA,NA,NA,NA,NA,NA,NA,NA,NA,NA,NA,NA,NA,NA,NA,NA
8c8e8,Shallow Question,html.Page,3_0_0_0_3_1_0,NA,NA,form submission,12249.499999857,275102.5999999,275100.5,275117.4,287366.89999986,287367.20000005,2024-05-13T12:14:52Z,287376.1,NULL,Toleranz,kuvumiliana,s,maombolezo,ujasusi,mchekeshaji,ujasusi,NA,NA,0,NA,NA,NA,NA,NA,NA,NA,NA,NA,NA,NA,NA,NA,NA,NA,NA,NA,NA,NA
8c8e8,"""Richtig""-Screen",canvas.Screen,3_0_0_0_3_1_1,NA,NA,skipped,NA,287370.20000005,NA,NA,287366.89999986,287370.39999986,2024-05-13T12:14:52Z,287376.1,NULL,Toleranz,kuvumiliana,s,maombolezo,ujasusi,mchekeshaji,NA,sdf,NA,0,NA,NA,NA,NA,NA,NA,NA,NA,NA,NA,NA,NA,NA,NA,NA,NA,NA,NA,NA
8c8e8,"""Falsch""-Screen",canvas.Screen,3_0_0_0_3_1_2,NA,NA,timeout,4997,287371,287360.194,287376.1,292356.6,292357.5999999,2024-05-13T12:14:57Z,292373.1,NULL,Toleranz,kuvumiliana,s,maombolezo,ujasusi,mchekeshaji,NA,sdf,0,0,NA,NA,NA,NA,NA,NA,NA,NA,NA,NA,NA,NA,NA,NA,NA,NA,NA,NA,NA
8c8e8,shallow,flow.Sequence,3_0_0_0_3_1,NA,NA,completion,17239.2,275102.5999999,275100.5,275117.4,292356.6,292358.0999999,2024-05-13T12:14:57Z,292373.1,NULL,Toleranz,kuvumiliana,s,maombolezo,ujasusi,mchekeshaji,NA,sdf,NA,0,NA,NA,NA,NA,NA,NA,NA,NA,NA,NA,NA,NA,NA,NA,NA,NA,NA,NA,NA
8c8e8,task,flow.Sequence,3_0_0_0_3,NA,NA,completion,17239.2,275102.39999986,275100.5,275117.4,292356.6,292358.20000005,2024-05-13T12:14:57Z,292373.1,NULL,Toleranz,kuvumiliana,s,maombolezo,ujasusi,mchekeshaji,NA,sdf,NA,0,NA,NA,NA,NA,NA,NA,NA,NA,NA,NA,NA,NA,NA,NA,NA,NA,NA,NA,NA
8c8e8,Deep Question,html.Page,3_0_0_0_4_0_0,NA,NA,form submission,3788.4999999047,292358.39999986,292356.6,292373.1,296161.5999999,296161.79999995,2024-05-13T12:15:01Z,296170.8,NULL,Polizist,msongora,d,NA,NA,NA,e,NA,NA,0,NA,NA,NA,NA,NA,NA,NA,NA,NA,NA,NA,NA,NA,NA,NA,NA,NA,NA,NA
8c8e8,"""Richtig""-Screen",canvas.Screen,3_0_0_0_4_0_1,NA,NA,skipped,NA,296164.89999986,NA,NA,296161.5999999,296164.89999986,2024-05-13T12:15:01Z,296170.8,NULL,Polizist,msongora,d,NA,NA,NA,NA,sdf,NA,0,NA,NA,NA,NA,NA,NA,NA,NA,NA,NA,NA,NA,NA,NA,NA,NA,NA,NA,NA
8c8e8,"""Falsch""-Screen",canvas.Screen,3_0_0_0_4_0_2,NA,NA,timeout,4997.4,296165.70000005,296154.786,296170.8,301151.1,301152.89999986,2024-05-13T12:15:06Z,301168.2,NULL,Polizist,msongora,d,NA,NA,NA,NA,sdf,0,0,NA,NA,NA,NA,NA,NA,NA,NA,NA,NA,NA,NA,NA,NA,NA,NA,NA,NA,NA
8c8e8,deep,flow.Sequence,3_0_0_0_4_0,NA,NA,completion,8778,292358.39999986,292356.6,292373.1,301151.1,301153.29999995,2024-05-13T12:15:06Z,301168.2,NULL,Polizist,msongora,d,NA,NA,NA,NA,sdf,NA,0,NA,NA,NA,NA,NA,NA,NA,NA,NA,NA,NA,NA,NA,NA,NA,NA,NA,NA,NA
8c8e8,shallow,flow.Sequence,3_0_0_0_4_1,NA,NA,skipped,NA,301153.5,NA,NA,301151.1,301153.5999999,2024-05-13T12:15:06Z,301168.2,NULL,Polizist,msongora,d,NA,NA,NA,NA,sdf,NA,0,NA,NA,NA,NA,NA,NA,NA,NA,NA,NA,NA,NA,NA,NA,NA,NA,NA,NA,NA
8c8e8,task,flow.Sequence,3_0_0_0_4,NA,NA,completion,8778,292358.29999995,292356.6,292373.1,301151.1,301153.79999995,2024-05-13T12:15:06Z,301168.2,NULL,Polizist,msongora,d,NA,NA,NA,NA,sdf,NA,0,NA,NA,NA,NA,NA,NA,NA,NA,NA,NA,NA,NA,NA,NA,NA,NA,NA,NA,NA
8c8e8,deep,flow.Sequence,3_0_0_0_5_0,NA,NA,skipped,NA,301153.89999986,NA,NA,301151.1,301154,2024-05-13T12:15:06Z,301168.2,NULL,Sympathie,mapendano,s,dhamiria,fungamano,maazimio,NA,sdf,NA,0,NA,NA,NA,NA,NA,NA,NA,NA,NA,NA,NA,NA,NA,NA,NA,NA,NA,NA,NA
8c8e8,Shallow Question,html.Page,3_0_0_0_5_1_0,NA,NA,form submission,6870.8999999046,301154.0999999,301151.1,301168.2,308039.0999999,308039.39999986,2024-05-13T12:15:13Z,308063.9,NULL,Sympathie,mapendano,s,dhamiria,fungamano,maazimio,fungamano,NA,NA,0,NA,NA,NA,NA,NA,NA,NA,NA,NA,NA,NA,NA,NA,NA,NA,NA,NA,NA,NA
8c8e8,"""Richtig""-Screen",canvas.Screen,3_0_0_0_5_1_1,NA,NA,skipped,NA,308042.29999995,NA,NA,308039.0999999,308042.39999986,2024-05-13T12:15:13Z,308063.9,NULL,Sympathie,mapendano,s,dhamiria,fungamano,maazimio,NA,sdf,NA,0,NA,NA,NA,NA,NA,NA,NA,NA,NA,NA,NA,NA,NA,NA,NA,NA,NA,NA,NA
8c8e8,"""Falsch""-Screen",canvas.Screen,3_0_0_0_5_1_2,NA,NA,timeout,4996.9,308043.20000005,308047.394,308063.9,313044.1,313044.89999986,2024-05-13T12:15:18Z,313060.8,NULL,Sympathie,mapendano,s,dhamiria,fungamano,maazimio,NA,sdf,0,0,NA,NA,NA,NA,NA,NA,NA,NA,NA,NA,NA,NA,NA,NA,NA,NA,NA,NA,NA
8c8e8,shallow,flow.Sequence,3_0_0_0_5_1,NA,NA,completion,11875.9,301154,301151.1,301168.2,313044.1,313045.0999999,2024-05-13T12:15:18Z,313060.8,NULL,Sympathie,mapendano,s,dhamiria,fungamano,maazimio,NA,sdf,NA,0,NA,NA,NA,NA,NA,NA,NA,NA,NA,NA,NA,NA,NA,NA,NA,NA,NA,NA,NA
8c8e8,task,flow.Sequence,3_0_0_0_5,NA,NA,completion,11875.9,301153.79999995,301151.1,301168.2,313044.1,313045.29999995,2024-05-13T12:15:18Z,313060.8,NULL,Sympathie,mapendano,s,dhamiria,fungamano,maazimio,NA,sdf,NA,0,NA,NA,NA,NA,NA,NA,NA,NA,NA,NA,NA,NA,NA,NA,NA,NA,NA,NA,NA
8c8e8,deep,flow.Sequence,3_0_0_0_6_0,NA,NA,skipped,NA,313045.5999999,NA,NA,313044.1,313045.70000005,2024-05-13T12:15:18Z,313060.8,NULL,Schlange,foleni,s,uvumilivu,uteuzi,muuzaji,NA,sdf,NA,0,NA,NA,NA,NA,NA,NA,NA,NA,NA,NA,NA,NA,NA,NA,NA,NA,NA,NA,NA
8c8e8,Shallow Question,html.Page,3_0_0_0_6_1_0,NA,NA,form submission,6137.9000000477,313045.70000005,313044.1,313060.8,319198.70000005,319198.89999986,2024-05-13T12:15:24Z,319206.6,NULL,Schlange,foleni,s,uvumilivu,uteuzi,muuzaji,foleni,NA,NA,0,NA,NA,NA,NA,NA,NA,NA,NA,NA,NA,NA,NA,NA,NA,NA,NA,NA,NA,NA
8c8e8,"""Richtig""-Screen",canvas.Screen,3_0_0_0_6_1_1,NA,NA,timeout,4997.6,319201.89999986,319190.872,319206.6,324187.4,324188.20000005,2024-05-13T12:15:29Z,324204.2,NULL,Schlange,foleni,s,uvumilivu,uteuzi,muuzaji,NA,sdf,1,0,NA,NA,NA,NA,NA,NA,NA,NA,NA,NA,NA,NA,NA,NA,NA,NA,NA,NA,NA
8c8e8,"""Falsch""-Screen",canvas.Screen,3_0_0_0_6_1_2,NA,NA,skipped,NA,324192.79999995,NA,NA,324187.4,324193.0999999,2024-05-13T12:15:29Z,324204.2,NULL,Schlange,foleni,s,uvumilivu,uteuzi,muuzaji,NA,sdf,NA,0,NA,NA,NA,NA,NA,NA,NA,NA,NA,NA,NA,NA,NA,NA,NA,NA,NA,NA,NA
8c8e8,shallow,flow.Sequence,3_0_0_0_6_1,NA,NA,completion,11126.6,313045.70000005,313044.1,313060.8,324187.4,324193.20000005,2024-05-13T12:15:29Z,324204.2,NULL,Schlange,foleni,s,uvumilivu,uteuzi,muuzaji,NA,sdf,NA,0,NA,NA,NA,NA,NA,NA,NA,NA,NA,NA,NA,NA,NA,NA,NA,NA,NA,NA,NA
8c8e8,task,flow.Sequence,3_0_0_0_6,NA,NA,completion,11126.6,313045.5,313044.1,313060.8,324187.4,324193.5,2024-05-13T12:15:29Z,324204.2,NULL,Schlange,foleni,s,uvumilivu,uteuzi,muuzaji,NA,sdf,NA,0,NA,NA,NA,NA,NA,NA,NA,NA,NA,NA,NA,NA,NA,NA,NA,NA,NA,NA,NA
8c8e8,Deep Question,html.Page,3_0_0_0_7_0_0,NA,NA,form submission,6521.8999999046,324193.5999999,324187.4,324204.2,330726.0999999,330726.20000005,2024-05-13T12:15:36Z,330732.9,NULL,Vermutung,udhanifu,d,NA,NA,NA,h,NA,NA,0,NA,NA,NA,NA,NA,NA,NA,NA,NA,NA,NA,NA,NA,NA,NA,NA,NA,NA,NA
8c8e8,"""Richtig""-Screen",canvas.Screen,3_0_0_0_7_0_1,NA,NA,skipped,NA,330727.5,NA,NA,330726.0999999,330727.5999999,2024-05-13T12:15:36Z,330732.9,NULL,Vermutung,udhanifu,d,NA,NA,NA,NA,sdf,NA,0,NA,NA,NA,NA,NA,NA,NA,NA,NA,NA,NA,NA,NA,NA,NA,NA,NA,NA,NA
8c8e8,"""Falsch""-Screen",canvas.Screen,3_0_0_0_7_0_2,NA,NA,timeout,4997.3,330727.89999986,330716.892,330732.9,335713.7,335714.20000005,2024-05-13T12:15:41Z,335730.2,NULL,Vermutung,udhanifu,d,NA,NA,NA,NA,sdf,0,0,NA,NA,NA,NA,NA,NA,NA,NA,NA,NA,NA,NA,NA,NA,NA,NA,NA,NA,NA
8c8e8,deep,flow.Sequence,3_0_0_0_7_0,NA,NA,completion,11509.5,324193.5999999,324187.4,324204.2,335713.7,335714.20000005,2024-05-13T12:15:41Z,335730.2,NULL,Vermutung,udhanifu,d,NA,NA,NA,NA,sdf,NA,0,NA,NA,NA,NA,NA,NA,NA,NA,NA,NA,NA,NA,NA,NA,NA,NA,NA,NA,NA
8c8e8,shallow,flow.Sequence,3_0_0_0_7_1,NA,NA,skipped,NA,335714.29999995,NA,NA,335713.7,335714.29999995,2024-05-13T12:15:41Z,335730.2,NULL,Vermutung,udhanifu,d,NA,NA,NA,NA,sdf,NA,0,NA,NA,NA,NA,NA,NA,NA,NA,NA,NA,NA,NA,NA,NA,NA,NA,NA,NA,NA
8c8e8,task,flow.Sequence,3_0_0_0_7,NA,NA,completion,11509.5,324193.5,324187.4,324204.2,335713.7,335714.39999986,2024-05-13T12:15:41Z,335730.2,NULL,Vermutung,udhanifu,d,NA,NA,NA,NA,sdf,NA,0,NA,NA,NA,NA,NA,NA,NA,NA,NA,NA,NA,NA,NA,NA,NA,NA,NA,NA,NA
8c8e8,block,flow.Loop,3_0_0_0,NA,NA,completion,100084.952,235629.0999999,235628.748,235628.748,335713.7,335714.39999986,2024-05-13T12:15:41Z,335730.2,NULL,NA,NA,NA,NA,NA,NA,NA,sdf,NA,0,NA,NA,NA,NA,NA,NA,NA,NA,NA,NA,NA,NA,NA,NA,NA,NA,NA,NA,NA
8c8e8,weiter,canvas.Screen,3_0_0_1,sdf,keypress(Space),response,3565.0999999523,335714.39999986,335713.7,335730.2,339295.29999995,339296.5,2024-05-13T12:15:44Z,339311.776,NULL,NA,NA,NA,NA,NA,NA,NA,sdf,NA,0,NA,NA,NA,NA,NA,NA,NA,NA,NA,NA,NA,NA,NA,NA,NA,NA,NA,NA,NA
8c8e8,check continue,flow.Sequence,3_0_0,NA,NA,completion,103666.55199995,235629.0999999,235628.748,235628.748,339295.29999995,339296.5999999,2024-05-13T12:15:44Z,339311.776,NULL,NA,NA,NA,NA,NA,NA,NA,sdf,NA,0,NA,NA,NA,NA,NA,NA,NA,NA,NA,NA,NA,NA,NA,NA,NA,NA,NA,NA,NA
8c8e8,Deep Question,html.Page,3_0_1_0_0_0_0,NA,NA,form submission,13645.323999905,339318.5999999,339311.776,339311.776,352957.0999999,352957.39999986,2024-05-13T12:15:58Z,352969.7,NULL,Inhalt,yaliyomo,d,NA,NA,NA,mapendanu,NA,NA,1,NA,NA,NA,NA,NA,NA,NA,NA,NA,NA,NA,NA,NA,NA,NA,NA,NA,NA,NA
8c8e8,"""Richtig""-Screen",canvas.Screen,3_0_1_0_0_0_1,NA,NA,skipped,NA,352960.5,NA,NA,352957.0999999,352960.70000005,2024-05-13T12:15:58Z,352969.7,NULL,Inhalt,yaliyomo,d,NA,NA,NA,NA,sdfdsf,NA,1,NA,NA,NA,NA,NA,NA,NA,NA,NA,NA,NA,NA,NA,NA,NA,NA,NA,NA,NA
8c8e8,"""Falsch""-Screen",canvas.Screen,3_0_1_0_0_0_2,NA,NA,timeout,4997,352961.5,352953.412,352969.7,357949.7,357950.20000005,2024-05-13T12:16:03Z,357966.7,NULL,Inhalt,yaliyomo,d,NA,NA,NA,NA,sdfdsf,0,1,NA,NA,NA,NA,NA,NA,NA,NA,NA,NA,NA,NA,NA,NA,NA,NA,NA,NA,NA
8c8e8,deep,flow.Sequence,3_0_1_0_0_0,NA,NA,completion,18637.924,339318.5999999,339311.776,339311.776,357949.7,357950.29999995,2024-05-13T12:16:03Z,357966.7,NULL,Inhalt,yaliyomo,d,NA,NA,NA,NA,sdfdsf,NA,1,NA,NA,NA,NA,NA,NA,NA,NA,NA,NA,NA,NA,NA,NA,NA,NA,NA,NA,NA
8c8e8,shallow,flow.Sequence,3_0_1_0_0_1,NA,NA,skipped,NA,357950.29999995,NA,NA,357949.7,357950.39999986,2024-05-13T12:16:03Z,357966.7,NULL,Inhalt,yaliyomo,d,NA,NA,NA,NA,sdfdsf,NA,1,NA,NA,NA,NA,NA,NA,NA,NA,NA,NA,NA,NA,NA,NA,NA,NA,NA,NA,NA
8c8e8,task,flow.Sequence,3_0_1_0_0,NA,NA,completion,18637.924,339318.5999999,339311.776,339311.776,357949.7,357950.39999986,2024-05-13T12:16:03Z,357966.7,NULL,Inhalt,yaliyomo,d,NA,NA,NA,NA,sdfdsf,NA,1,NA,NA,NA,NA,NA,NA,NA,NA,NA,NA,NA,NA,NA,NA,NA,NA,NA,NA,NA
8c8e8,deep,flow.Sequence,3_0_1_0_1_0,NA,NA,skipped,NA,357950.39999986,NA,NA,357949.7,357950.39999986,2024-05-13T12:16:03Z,357966.7,NULL,Schlange,foleni,s,uvumilivu,uteuzi,muuzaji,NA,sdfdsf,NA,1,NA,NA,NA,NA,NA,NA,NA,NA,NA,NA,NA,NA,NA,NA,NA,NA,NA,NA,NA
8c8e8,Shallow Question,html.Page,3_0_1_0_1_1_0,NA,NA,form submission,5968.3,357950.5,357949.7,357966.7,363935,363935.29999995,2024-05-13T12:16:09Z,363946.4,NULL,Schlange,foleni,s,uvumilivu,uteuzi,muuzaji,foleni,NA,NA,1,NA,NA,NA,NA,NA,NA,NA,NA,NA,NA,NA,NA,NA,NA,NA,NA,NA,NA,NA
8c8e8,"""Richtig""-Screen",canvas.Screen,3_0_1_0_1_1_1,NA,NA,timeout,4997,363938.20000005,363930.02,363946.4,368926.6,368927.5,2024-05-13T12:16:14Z,368943.4,NULL,Schlange,foleni,s,uvumilivu,uteuzi,muuzaji,NA,sdfdsf,1,1,NA,NA,NA,NA,NA,NA,NA,NA,NA,NA,NA,NA,NA,NA,NA,NA,NA,NA,NA
8c8e8,"""Falsch""-Screen",canvas.Screen,3_0_1_0_1_1_2,NA,NA,skipped,NA,368932.39999986,NA,NA,368926.6,368932.5999999,2024-05-13T12:16:14Z,368943.4,NULL,Schlange,foleni,s,uvumilivu,uteuzi,muuzaji,NA,sdfdsf,NA,1,NA,NA,NA,NA,NA,NA,NA,NA,NA,NA,NA,NA,NA,NA,NA,NA,NA,NA,NA
8c8e8,shallow,flow.Sequence,3_0_1_0_1_1,NA,NA,completion,10959.9,357950.5,357949.7,357966.7,368926.6,368932.79999995,2024-05-13T12:16:14Z,368943.4,NULL,Schlange,foleni,s,uvumilivu,uteuzi,muuzaji,NA,sdfdsf,NA,1,NA,NA,NA,NA,NA,NA,NA,NA,NA,NA,NA,NA,NA,NA,NA,NA,NA,NA,NA
8c8e8,task,flow.Sequence,3_0_1_0_1,NA,NA,completion,10959.9,357950.39999986,357949.7,357966.7,368926.6,368932.89999986,2024-05-13T12:16:14Z,368943.4,NULL,Schlange,foleni,s,uvumilivu,uteuzi,muuzaji,NA,sdfdsf,NA,1,NA,NA,NA,NA,NA,NA,NA,NA,NA,NA,NA,NA,NA,NA,NA,NA,NA,NA,NA
8c8e8,Deep Question,html.Page,3_0_1_0_2_0_0,NA,NA,form submission,8975.8999999523,368932.89999986,368926.6,368943.4,377919.29999995,377919.5,2024-05-13T12:16:23Z,377921.424,NULL,Polizist,msongora,d,NA,NA,NA,l,NA,NA,1,NA,NA,NA,NA,NA,NA,NA,NA,NA,NA,NA,NA,NA,NA,NA,NA,NA,NA,NA
8c8e8,"""Richtig""-Screen",canvas.Screen,3_0_1_0_2_0_1,NA,NA,skipped,NA,377922.39999986,NA,NA,377919.29999995,377922.5999999,2024-05-13T12:16:23Z,377921.424,NULL,Polizist,msongora,d,NA,NA,NA,NA,sdfdsf,NA,1,NA,NA,NA,NA,NA,NA,NA,NA,NA,NA,NA,NA,NA,NA,NA,NA,NA,NA,NA
8c8e8,"""Falsch""-Screen",canvas.Screen,3_0_1_0_2_0_2,NA,NA,timeout,4996.576,377923.20000005,377921.424,377921.424,382901.1,382902.89999986,2024-05-13T12:16:28Z,382918,NULL,Polizist,msongora,d,NA,NA,NA,NA,sdfdsf,0,1,NA,NA,NA,NA,NA,NA,NA,NA,NA,NA,NA,NA,NA,NA,NA,NA,NA,NA,NA
8c8e8,deep,flow.Sequence,3_0_1_0_2_0,NA,NA,completion,13957.7,368932.89999986,368926.6,368943.4,382901.1,382903.0999999,2024-05-13T12:16:28Z,382918,NULL,Polizist,msongora,d,NA,NA,NA,NA,sdfdsf,NA,1,NA,NA,NA,NA,NA,NA,NA,NA,NA,NA,NA,NA,NA,NA,NA,NA,NA,NA,NA
8c8e8,shallow,flow.Sequence,3_0_1_0_2_1,NA,NA,skipped,NA,382903.0999999,NA,NA,382901.1,382903.29999995,2024-05-13T12:16:28Z,382918,NULL,Polizist,msongora,d,NA,NA,NA,NA,sdfdsf,NA,1,NA,NA,NA,NA,NA,NA,NA,NA,NA,NA,NA,NA,NA,NA,NA,NA,NA,NA,NA
8c8e8,task,flow.Sequence,3_0_1_0_2,NA,NA,completion,13957.7,368932.89999986,368926.6,368943.4,382901.1,382903.39999986,2024-05-13T12:16:28Z,382918,NULL,Polizist,msongora,d,NA,NA,NA,NA,sdfdsf,NA,1,NA,NA,NA,NA,NA,NA,NA,NA,NA,NA,NA,NA,NA,NA,NA,NA,NA,NA,NA
8c8e8,deep,flow.Sequence,3_0_1_0_3_0,NA,NA,skipped,NA,382903.39999986,NA,NA,382901.1,382903.5,2024-05-13T12:16:28Z,382918,NULL,Toleranz,kuvumiliana,s,maombolezo,ujasusi,mchekeshaji,NA,sdfdsf,NA,1,NA,NA,NA,NA,NA,NA,NA,NA,NA,NA,NA,NA,NA,NA,NA,NA,NA,NA,NA
8c8e8,Shallow Question,html.Page,3_0_1_0_3_1_0,NA,NA,form submission,12156.799999952,382903.5999999,382901.1,382918,395074.79999995,395075,2024-05-13T12:16:40Z,395077.712,NULL,Toleranz,kuvumiliana,s,maombolezo,ujasusi,mchekeshaji,kuvumiliana,NA,NA,1,NA,NA,NA,NA,NA,NA,NA,NA,NA,NA,NA,NA,NA,NA,NA,NA,NA,NA,NA
8c8e8,"""Richtig""-Screen",canvas.Screen,3_0_1_0_3_1_1,NA,NA,timeout,4996.888,395077.89999986,395077.712,395077.712,400057.5,400058.39999986,2024-05-13T12:16:45Z,400074.6,NULL,Toleranz,kuvumiliana,s,maombolezo,ujasusi,mchekeshaji,NA,sdfdsf,1,1,NA,NA,NA,NA,NA,NA,NA,NA,NA,NA,NA,NA,NA,NA,NA,NA,NA,NA,NA
8c8e8,"""Falsch""-Screen",canvas.Screen,3_0_1_0_3_1_2,NA,NA,skipped,NA,400063.20000005,NA,NA,400057.5,400063.39999986,2024-05-13T12:16:45Z,400074.6,NULL,Toleranz,kuvumiliana,s,maombolezo,ujasusi,mchekeshaji,NA,sdfdsf,NA,1,NA,NA,NA,NA,NA,NA,NA,NA,NA,NA,NA,NA,NA,NA,NA,NA,NA,NA,NA
8c8e8,shallow,flow.Sequence,3_0_1_0_3_1,NA,NA,completion,17139.5,382903.5999999,382901.1,382918,400057.5,400063.5999999,2024-05-13T12:16:45Z,400074.6,NULL,Toleranz,kuvumiliana,s,maombolezo,ujasusi,mchekeshaji,NA,sdfdsf,NA,1,NA,NA,NA,NA,NA,NA,NA,NA,NA,NA,NA,NA,NA,NA,NA,NA,NA,NA,NA
8c8e8,task,flow.Sequence,3_0_1_0_3,NA,NA,completion,17139.5,382903.39999986,382901.1,382918,400057.5,400063.70000005,2024-05-13T12:16:45Z,400074.6,NULL,Toleranz,kuvumiliana,s,maombolezo,ujasusi,mchekeshaji,NA,sdfdsf,NA,1,NA,NA,NA,NA,NA,NA,NA,NA,NA,NA,NA,NA,NA,NA,NA,NA,NA,NA,NA
8c8e8,Deep Question,html.Page,3_0_1_0_4_0_0,NA,NA,form submission,3464.6000000477,400063.70000005,400057.5,400074.6,403539.20000005,403539.39999986,2024-05-13T12:16:49Z,403555.9,NULL,Vermutung,udhanifu,d,NA,NA,NA,g,NA,NA,1,NA,NA,NA,NA,NA,NA,NA,NA,NA,NA,NA,NA,NA,NA,NA,NA,NA,NA,NA
8c8e8,"""Richtig""-Screen",canvas.Screen,3_0_1_0_4_0_1,NA,NA,skipped,NA,403542.39999986,NA,NA,403539.20000005,403542.5,2024-05-13T12:16:49Z,403555.9,NULL,Vermutung,udhanifu,d,NA,NA,NA,NA,sdfdsf,NA,1,NA,NA,NA,NA,NA,NA,NA,NA,NA,NA,NA,NA,NA,NA,NA,NA,NA,NA,NA
8c8e8,"""Falsch""-Screen",canvas.Screen,3_0_1_0_4_0_2,NA,NA,timeout,4996.8,403543.0999999,403539.24,403555.9,408535.5,408536.39999986,2024-05-13T12:16:54Z,408552.7,NULL,Vermutung,udhanifu,d,NA,NA,NA,NA,sdfdsf,0,1,NA,NA,NA,NA,NA,NA,NA,NA,NA,NA,NA,NA,NA,NA,NA,NA,NA,NA,NA
8c8e8,deep,flow.Sequence,3_0_1_0_4_0,NA,NA,completion,8460.9,400063.70000005,400057.5,400074.6,408535.5,408536.79999995,2024-05-13T12:16:54Z,408552.7,NULL,Vermutung,udhanifu,d,NA,NA,NA,NA,sdfdsf,NA,1,NA,NA,NA,NA,NA,NA,NA,NA,NA,NA,NA,NA,NA,NA,NA,NA,NA,NA,NA
8c8e8,shallow,flow.Sequence,3_0_1_0_4_1,NA,NA,skipped,NA,408536.89999986,NA,NA,408535.5,408537.0999999,2024-05-13T12:16:54Z,408552.7,NULL,Vermutung,udhanifu,d,NA,NA,NA,NA,sdfdsf,NA,1,NA,NA,NA,NA,NA,NA,NA,NA,NA,NA,NA,NA,NA,NA,NA,NA,NA,NA,NA
8c8e8,task,flow.Sequence,3_0_1_0_4,NA,NA,completion,8460.9,400063.70000005,400057.5,400074.6,408535.5,408537.29999995,2024-05-13T12:16:54Z,408552.7,NULL,Vermutung,udhanifu,d,NA,NA,NA,NA,sdfdsf,NA,1,NA,NA,NA,NA,NA,NA,NA,NA,NA,NA,NA,NA,NA,NA,NA,NA,NA,NA,NA
8c8e8,deep,flow.Sequence,3_0_1_0_5_0,NA,NA,skipped,NA,408537.39999986,NA,NA,408535.5,408537.5,2024-05-13T12:16:54Z,408552.7,NULL,Annäherung,maegesho,s,madahili,kujiamini,mapendekezo,NA,sdfdsf,NA,1,NA,NA,NA,NA,NA,NA,NA,NA,NA,NA,NA,NA,NA,NA,NA,NA,NA,NA,NA
8c8e8,Shallow Question,html.Page,3_0_1_0_5_1_0,NA,NA,form submission,11124.000000048,408537.5999999,408535.5,408552.7,419676.70000005,419676.89999986,2024-05-13T12:17:05Z,419679.352,NULL,Annäherung,maegesho,s,madahili,kujiamini,mapendekezo,mapendekezo,NA,NA,1,NA,NA,NA,NA,NA,NA,NA,NA,NA,NA,NA,NA,NA,NA,NA,NA,NA,NA,NA
8c8e8,"""Richtig""-Screen",canvas.Screen,3_0_1_0_5_1_1,NA,NA,skipped,NA,419680.0999999,NA,NA,419676.70000005,419680.20000005,2024-05-13T12:17:05Z,419679.352,NULL,Annäherung,maegesho,s,madahili,kujiamini,mapendekezo,NA,sdfdsf,NA,1,NA,NA,NA,NA,NA,NA,NA,NA,NA,NA,NA,NA,NA,NA,NA,NA,NA,NA,NA
8c8e8,"""Falsch""-Screen",canvas.Screen,3_0_1_0_5_1_2,NA,NA,timeout,4996.748,419681,419679.352,419679.352,424659.5,424660.39999986,2024-05-13T12:17:10Z,424676.1,NULL,Annäherung,maegesho,s,madahili,kujiamini,mapendekezo,NA,sdfdsf,0,1,NA,NA,NA,NA,NA,NA,NA,NA,NA,NA,NA,NA,NA,NA,NA,NA,NA,NA,NA
8c8e8,shallow,flow.Sequence,3_0_1_0_5_1,NA,NA,completion,16106.8,408537.5,408535.5,408552.7,424659.5,424660.79999995,2024-05-13T12:17:10Z,424676.1,NULL,Annäherung,maegesho,s,madahili,kujiamini,mapendekezo,NA,sdfdsf,NA,1,NA,NA,NA,NA,NA,NA,NA,NA,NA,NA,NA,NA,NA,NA,NA,NA,NA,NA,NA
8c8e8,task,flow.Sequence,3_0_1_0_5,NA,NA,completion,16106.8,408537.39999986,408535.5,408552.7,424659.5,424661,2024-05-13T12:17:10Z,424676.1,NULL,Annäherung,maegesho,s,madahili,kujiamini,mapendekezo,NA,sdfdsf,NA,1,NA,NA,NA,NA,NA,NA,NA,NA,NA,NA,NA,NA,NA,NA,NA,NA,NA,NA,NA
8c8e8,Deep Question,html.Page,3_0_1_0_6_0_0,NA,NA,form submission,3810.1000000477,424661.20000005,424659.5,424676.1,428486.20000005,428486.39999986,2024-05-13T12:17:14Z,428489.9,NULL,Beweis,ushahidi,d,NA,NA,NA,g,NA,NA,1,NA,NA,NA,NA,NA,NA,NA,NA,NA,NA,NA,NA,NA,NA,NA,NA,NA,NA,NA
8c8e8,"""Richtig""-Screen",canvas.Screen,3_0_1_0_6_0_1,NA,NA,skipped,NA,428487.70000005,NA,NA,428486.20000005,428487.70000005,2024-05-13T12:17:14Z,428489.9,NULL,Beweis,ushahidi,d,NA,NA,NA,NA,sdfdsf,NA,1,NA,NA,NA,NA,NA,NA,NA,NA,NA,NA,NA,NA,NA,NA,NA,NA,NA,NA,NA
8c8e8,"""Falsch""-Screen",canvas.Screen,3_0_1_0_6_0_2,NA,NA,timeout,4997.4,428488.0999999,428473.894,428489.9,433470.5,433471.29999995,2024-05-13T12:17:19Z,433487.3,NULL,Beweis,ushahidi,d,NA,NA,NA,NA,sdfdsf,0,1,NA,NA,NA,NA,NA,NA,NA,NA,NA,NA,NA,NA,NA,NA,NA,NA,NA,NA,NA
8c8e8,deep,flow.Sequence,3_0_1_0_6_0,NA,NA,completion,8794.4,424661.20000005,424659.5,424676.1,433470.5,433471.5,2024-05-13T12:17:19Z,433487.3,NULL,Beweis,ushahidi,d,NA,NA,NA,NA,sdfdsf,NA,1,NA,NA,NA,NA,NA,NA,NA,NA,NA,NA,NA,NA,NA,NA,NA,NA,NA,NA,NA
8c8e8,shallow,flow.Sequence,3_0_1_0_6_1,NA,NA,skipped,NA,433471.70000005,NA,NA,433470.5,433471.79999995,2024-05-13T12:17:19Z,433487.3,NULL,Beweis,ushahidi,d,NA,NA,NA,NA,sdfdsf,NA,1,NA,NA,NA,NA,NA,NA,NA,NA,NA,NA,NA,NA,NA,NA,NA,NA,NA,NA,NA
8c8e8,task,flow.Sequence,3_0_1_0_6,NA,NA,completion,8794.4,424661.20000005,424659.5,424676.1,433470.5,433472,2024-05-13T12:17:19Z,433487.3,NULL,Beweis,ushahidi,d,NA,NA,NA,NA,sdfdsf,NA,1,NA,NA,NA,NA,NA,NA,NA,NA,NA,NA,NA,NA,NA,NA,NA,NA,NA,NA,NA
8c8e8,deep,flow.Sequence,3_0_1_0_7_0,NA,NA,skipped,NA,433472.0999999,NA,NA,433470.5,433472.29999995,2024-05-13T12:17:19Z,433487.3,NULL,Sympathie,mapendano,s,dhamiria,fungamano,maazimio,NA,sdfdsf,NA,1,NA,NA,NA,NA,NA,NA,NA,NA,NA,NA,NA,NA,NA,NA,NA,NA,NA,NA,NA
8c8e8,Shallow Question,html.Page,3_0_1_0_7_1_0,NA,NA,form submission,9043.4999999523,433472.39999986,433470.5,433487.3,442530.79999995,442531,2024-05-13T12:17:28Z,442548.5,NULL,Sympathie,mapendano,s,dhamiria,fungamano,maazimio,mapendano,NA,NA,1,NA,NA,NA,NA,NA,NA,NA,NA,NA,NA,NA,NA,NA,NA,NA,NA,NA,NA,NA
8c8e8,"""Richtig""-Screen",canvas.Screen,3_0_1_0_7_1_1,NA,NA,timeout,4997,442533.89999986,442532.5,442548.5,447528.7,447530.0999999,2024-05-13T12:17:33Z,447545.5,NULL,Sympathie,mapendano,s,dhamiria,fungamano,maazimio,NA,sdfdsf,1,1,NA,NA,NA,NA,NA,NA,NA,NA,NA,NA,NA,NA,NA,NA,NA,NA,NA,NA,NA
8c8e8,"""Falsch""-Screen",canvas.Screen,3_0_1_0_7_1_2,NA,NA,skipped,NA,447535.0999999,NA,NA,447528.7,447535.20000005,2024-05-13T12:17:33Z,447545.5,NULL,Sympathie,mapendano,s,dhamiria,fungamano,maazimio,NA,sdfdsf,NA,1,NA,NA,NA,NA,NA,NA,NA,NA,NA,NA,NA,NA,NA,NA,NA,NA,NA,NA,NA
8c8e8,shallow,flow.Sequence,3_0_1_0_7_1,NA,NA,completion,14041.4,433472.29999995,433470.5,433487.3,447528.7,447535.20000005,2024-05-13T12:17:33Z,447545.5,NULL,Sympathie,mapendano,s,dhamiria,fungamano,maazimio,NA,sdfdsf,NA,1,NA,NA,NA,NA,NA,NA,NA,NA,NA,NA,NA,NA,NA,NA,NA,NA,NA,NA,NA
8c8e8,task,flow.Sequence,3_0_1_0_7,NA,NA,completion,14041.4,433472.0999999,433470.5,433487.3,447528.7,447535.29999995,2024-05-13T12:17:33Z,447545.5,NULL,Sympathie,mapendano,s,dhamiria,fungamano,maazimio,NA,sdfdsf,NA,1,NA,NA,NA,NA,NA,NA,NA,NA,NA,NA,NA,NA,NA,NA,NA,NA,NA,NA,NA
8c8e8,block,flow.Loop,3_0_1_0,NA,NA,completion,108216.924,339318.5999999,339311.776,339311.776,447528.7,447535.39999986,2024-05-13T12:17:33Z,447545.5,NULL,NA,NA,NA,NA,NA,NA,NA,sdfdsf,NA,1,NA,NA,NA,NA,NA,NA,NA,NA,NA,NA,NA,NA,NA,NA,NA,NA,NA,NA,NA
8c8e8,weiter,canvas.Screen,3_0_1_1,sdf,keypress(Space),response,1557.3999998569,447535.39999986,447528.7,447545.5,449102.89999986,449103.89999986,2024-05-13T12:17:34Z,449127.992,NULL,NA,NA,NA,NA,NA,NA,NA,sdfdsf,NA,1,NA,NA,NA,NA,NA,NA,NA,NA,NA,NA,NA,NA,NA,NA,NA,NA,NA,NA,NA
8c8e8,check continue,flow.Sequence,3_0_1,NA,NA,completion,109791.12399986,339318.5999999,339311.776,339311.776,449102.89999986,449104.20000005,2024-05-13T12:17:34Z,449127.992,NULL,NA,NA,NA,NA,NA,NA,NA,sdfdsf,NA,1,NA,NA,NA,NA,NA,NA,NA,NA,NA,NA,NA,NA,NA,NA,NA,NA,NA,NA,NA
8c8e8,Deep Question,html.Page,3_0_2_0_0_0_0,NA,NA,form submission,12629.107999905,449141.0999999,449127.992,449127.992,461757.0999999,461757.29999995,2024-05-13T12:17:47Z,461769.8,NULL,Beweis,ushahidi,d,NA,NA,NA,ushgandini,NA,NA,2,NA,NA,NA,NA,NA,NA,NA,NA,NA,NA,NA,NA,NA,NA,NA,NA,NA,NA,NA
8c8e8,"""Richtig""-Screen",canvas.Screen,3_0_2_0_0_0_1,NA,NA,skipped,NA,461760.20000005,NA,NA,461757.0999999,461760.29999995,2024-05-13T12:17:47Z,461769.8,NULL,Beweis,ushahidi,d,NA,NA,NA,NA,sdf,NA,2,NA,NA,NA,NA,NA,NA,NA,NA,NA,NA,NA,NA,NA,NA,NA,NA,NA,NA,NA
8c8e8,"""Falsch""-Screen",canvas.Screen,3_0_2_0_0_0_2,NA,NA,timeout,4997.3,461761.0999999,461753.6,461769.8,466750.2,466751.0999999,2024-05-13T12:17:52Z,466767.1,NULL,Beweis,ushahidi,d,NA,NA,NA,NA,sdf,0,2,NA,NA,NA,NA,NA,NA,NA,NA,NA,NA,NA,NA,NA,NA,NA,NA,NA,NA,NA
8c8e8,deep,flow.Sequence,3_0_2_0_0_0,NA,NA,completion,17622.208,449141.0999999,449127.992,449127.992,466750.2,466751.5,2024-05-13T12:17:52Z,466767.1,NULL,Beweis,ushahidi,d,NA,NA,NA,NA,sdf,NA,2,NA,NA,NA,NA,NA,NA,NA,NA,NA,NA,NA,NA,NA,NA,NA,NA,NA,NA,NA
8c8e8,shallow,flow.Sequence,3_0_2_0_0_1,NA,NA,skipped,NA,466751.5,NA,NA,466750.2,466751.70000005,2024-05-13T12:17:52Z,466767.1,NULL,Beweis,ushahidi,d,NA,NA,NA,NA,sdf,NA,2,NA,NA,NA,NA,NA,NA,NA,NA,NA,NA,NA,NA,NA,NA,NA,NA,NA,NA,NA
8c8e8,task,flow.Sequence,3_0_2_0_0,NA,NA,completion,17622.208,449141.0999999,449127.992,449127.992,466750.2,466751.79999995,2024-05-13T12:17:52Z,466767.1,NULL,Beweis,ushahidi,d,NA,NA,NA,NA,sdf,NA,2,NA,NA,NA,NA,NA,NA,NA,NA,NA,NA,NA,NA,NA,NA,NA,NA,NA,NA,NA
8c8e8,deep,flow.Sequence,3_0_2_0_1_0,NA,NA,skipped,NA,466752,NA,NA,466750.2,466752.0999999,2024-05-13T12:17:52Z,466767.1,NULL,Schlange,foleni,s,uvumilivu,uteuzi,muuzaji,NA,sdf,NA,2,NA,NA,NA,NA,NA,NA,NA,NA,NA,NA,NA,NA,NA,NA,NA,NA,NA,NA,NA
8c8e8,Shallow Question,html.Page,3_0_2_0_1_1_0,NA,NA,form submission,6121.6999999523,466752.20000005,466750.2,466767.1,472888.79999995,472889,2024-05-13T12:17:58Z,472896.2,NULL,Schlange,foleni,s,uvumilivu,uteuzi,muuzaji,foleni,NA,NA,2,NA,NA,NA,NA,NA,NA,NA,NA,NA,NA,NA,NA,NA,NA,NA,NA,NA,NA,NA
8c8e8,"""Richtig""-Screen",canvas.Screen,3_0_2_0_1_1_1,NA,NA,timeout,4997.4,472891.89999986,472880.226,472896.2,477876.6,477877.39999986,2024-05-13T12:18:03Z,477893.6,NULL,Schlange,foleni,s,uvumilivu,uteuzi,muuzaji,NA,sdf,1,2,NA,NA,NA,NA,NA,NA,NA,NA,NA,NA,NA,NA,NA,NA,NA,NA,NA,NA,NA
8c8e8,"""Falsch""-Screen",canvas.Screen,3_0_2_0_1_1_2,NA,NA,skipped,NA,477881.89999986,NA,NA,477876.6,477882.20000005,2024-05-13T12:18:03Z,477893.6,NULL,Schlange,foleni,s,uvumilivu,uteuzi,muuzaji,NA,sdf,NA,2,NA,NA,NA,NA,NA,NA,NA,NA,NA,NA,NA,NA,NA,NA,NA,NA,NA,NA,NA
8c8e8,shallow,flow.Sequence,3_0_2_0_1_1,NA,NA,completion,11109.5,466752.0999999,466750.2,466767.1,477876.6,477882.39999986,2024-05-13T12:18:03Z,477893.6,NULL,Schlange,foleni,s,uvumilivu,uteuzi,muuzaji,NA,sdf,NA,2,NA,NA,NA,NA,NA,NA,NA,NA,NA,NA,NA,NA,NA,NA,NA,NA,NA,NA,NA
8c8e8,task,flow.Sequence,3_0_2_0_1,NA,NA,completion,11109.5,466752,466750.2,466767.1,477876.6,477882.5999999,2024-05-13T12:18:03Z,477893.6,NULL,Schlange,foleni,s,uvumilivu,uteuzi,muuzaji,NA,sdf,NA,2,NA,NA,NA,NA,NA,NA,NA,NA,NA,NA,NA,NA,NA,NA,NA,NA,NA,NA,NA
8c8e8,deep,flow.Sequence,3_0_2_0_2_0,NA,NA,skipped,NA,477882.5999999,NA,NA,477876.6,477882.5999999,2024-05-13T12:18:03Z,477893.6,NULL,Sympathie,mapendano,s,dhamiria,fungamano,maazimio,NA,sdf,NA,2,NA,NA,NA,NA,NA,NA,NA,NA,NA,NA,NA,NA,NA,NA,NA,NA,NA,NA,NA
8c8e8,Shallow Question,html.Page,3_0_2_0_2_1_0,NA,NA,form submission,7557.6999999523,477882.5999999,477876.6,477893.6,485451.29999995,485451.5,2024-05-13T12:18:11Z,485472.3,NULL,Sympathie,mapendano,s,dhamiria,fungamano,maazimio,mapendano,NA,NA,2,NA,NA,NA,NA,NA,NA,NA,NA,NA,NA,NA,NA,NA,NA,NA,NA,NA,NA,NA
8c8e8,"""Richtig""-Screen",canvas.Screen,3_0_2_0_2_1_1,NA,NA,timeout,4996.9,485454.5,485455.788,485472.3,490452.6,490453.0999999,2024-05-13T12:18:16Z,490469.2,NULL,Sympathie,mapendano,s,dhamiria,fungamano,maazimio,NA,sdf,1,2,NA,NA,NA,NA,NA,NA,NA,NA,NA,NA,NA,NA,NA,NA,NA,NA,NA,NA,NA
8c8e8,"""Falsch""-Screen",canvas.Screen,3_0_2_0_2_1_2,NA,NA,skipped,NA,490454.5,NA,NA,490452.6,490454.5,2024-05-13T12:18:16Z,490469.2,NULL,Sympathie,mapendano,s,dhamiria,fungamano,maazimio,NA,sdf,NA,2,NA,NA,NA,NA,NA,NA,NA,NA,NA,NA,NA,NA,NA,NA,NA,NA,NA,NA,NA
8c8e8,shallow,flow.Sequence,3_0_2_0_2_1,NA,NA,completion,12559,477882.5999999,477876.6,477893.6,490452.6,490454.5999999,2024-05-13T12:18:16Z,490469.2,NULL,Sympathie,mapendano,s,dhamiria,fungamano,maazimio,NA,sdf,NA,2,NA,NA,NA,NA,NA,NA,NA,NA,NA,NA,NA,NA,NA,NA,NA,NA,NA,NA,NA
8c8e8,task,flow.Sequence,3_0_2_0_2,NA,NA,completion,12559,477882.5999999,477876.6,477893.6,490452.6,490454.70000005,2024-05-13T12:18:16Z,490469.2,NULL,Sympathie,mapendano,s,dhamiria,fungamano,maazimio,NA,sdf,NA,2,NA,NA,NA,NA,NA,NA,NA,NA,NA,NA,NA,NA,NA,NA,NA,NA,NA,NA,NA
8c8e8,Deep Question,html.Page,3_0_2_0_3_0_0,NA,NA,form submission,7652.1999998569,490454.79999995,490452.6,490469.2,498121.39999986,498121.5999999,2024-05-13T12:18:23Z,498131.2,NULL,Inhalt,yaliyomo,d,NA,NA,NA,p,NA,NA,2,NA,NA,NA,NA,NA,NA,NA,NA,NA,NA,NA,NA,NA,NA,NA,NA,NA,NA,NA
8c8e8,"""Richtig""-Screen",canvas.Screen,3_0_2_0_3_0_1,NA,NA,skipped,NA,498124.5,NA,NA,498121.39999986,498124.5999999,2024-05-13T12:18:23Z,498131.2,NULL,Inhalt,yaliyomo,d,NA,NA,NA,NA,sdf,NA,2,NA,NA,NA,NA,NA,NA,NA,NA,NA,NA,NA,NA,NA,NA,NA,NA,NA,NA,NA
8c8e8,"""Falsch""-Screen",canvas.Screen,3_0_2_0_3_0_2,NA,NA,timeout,4996.5,498125.39999986,498114.984,498131.2,503111.5,503112.89999986,2024-05-13T12:18:28Z,503127.7,NULL,Inhalt,yaliyomo,d,NA,NA,NA,NA,sdf,0,2,NA,NA,NA,NA,NA,NA,NA,NA,NA,NA,NA,NA,NA,NA,NA,NA,NA,NA,NA
8c8e8,deep,flow.Sequence,3_0_2_0_3_0,NA,NA,completion,12642.3,490454.70000005,490452.6,490469.2,503111.5,503113,2024-05-13T12:18:28Z,503127.7,NULL,Inhalt,yaliyomo,d,NA,NA,NA,NA,sdf,NA,2,NA,NA,NA,NA,NA,NA,NA,NA,NA,NA,NA,NA,NA,NA,NA,NA,NA,NA,NA
8c8e8,shallow,flow.Sequence,3_0_2_0_3_1,NA,NA,skipped,NA,503113.0999999,NA,NA,503111.5,503113.0999999,2024-05-13T12:18:28Z,503127.7,NULL,Inhalt,yaliyomo,d,NA,NA,NA,NA,sdf,NA,2,NA,NA,NA,NA,NA,NA,NA,NA,NA,NA,NA,NA,NA,NA,NA,NA,NA,NA,NA
8c8e8,task,flow.Sequence,3_0_2_0_3,NA,NA,completion,12642.3,490454.70000005,490452.6,490469.2,503111.5,503113.20000005,2024-05-13T12:18:28Z,503127.7,NULL,Inhalt,yaliyomo,d,NA,NA,NA,NA,sdf,NA,2,NA,NA,NA,NA,NA,NA,NA,NA,NA,NA,NA,NA,NA,NA,NA,NA,NA,NA,NA
8c8e8,Deep Question,html.Page,3_0_2_0_4_0_0,NA,NA,form submission,4165.5999999523,503113.20000005,503111.5,503127.7,507293.29999995,507293.5,2024-05-13T12:18:32Z,507309.1,NULL,Vermutung,udhanifu,d,NA,NA,NA,u,NA,NA,2,NA,NA,NA,NA,NA,NA,NA,NA,NA,NA,NA,NA,NA,NA,NA,NA,NA,NA,NA
8c8e8,"""Richtig""-Screen",canvas.Screen,3_0_2_0_4_0_1,NA,NA,skipped,NA,507295.0999999,NA,NA,507293.29999995,507295.0999999,2024-05-13T12:18:32Z,507309.1,NULL,Vermutung,udhanifu,d,NA,NA,NA,NA,sdf,NA,2,NA,NA,NA,NA,NA,NA,NA,NA,NA,NA,NA,NA,NA,NA,NA,NA,NA,NA,NA
8c8e8,"""Falsch""-Screen",canvas.Screen,3_0_2_0_4_0_2,NA,NA,timeout,4996.7,507295.5,507292.524,507309.1,512288.9,512289.79999995,2024-05-13T12:18:37Z,512305.8,NULL,Vermutung,udhanifu,d,NA,NA,NA,NA,sdf,0,2,NA,NA,NA,NA,NA,NA,NA,NA,NA,NA,NA,NA,NA,NA,NA,NA,NA,NA,NA
8c8e8,deep,flow.Sequence,3_0_2_0_4_0,NA,NA,completion,9161.2,503113.20000005,503111.5,503127.7,512288.9,512290.20000005,2024-05-13T12:18:37Z,512305.8,NULL,Vermutung,udhanifu,d,NA,NA,NA,NA,sdf,NA,2,NA,NA,NA,NA,NA,NA,NA,NA,NA,NA,NA,NA,NA,NA,NA,NA,NA,NA,NA
8c8e8,shallow,flow.Sequence,3_0_2_0_4_1,NA,NA,skipped,NA,512290.29999995,NA,NA,512288.9,512290.39999986,2024-05-13T12:18:37Z,512305.8,NULL,Vermutung,udhanifu,d,NA,NA,NA,NA,sdf,NA,2,NA,NA,NA,NA,NA,NA,NA,NA,NA,NA,NA,NA,NA,NA,NA,NA,NA,NA,NA
8c8e8,task,flow.Sequence,3_0_2_0_4,NA,NA,completion,9161.2,503113.20000005,503111.5,503127.7,512288.9,512290.70000005,2024-05-13T12:18:37Z,512305.8,NULL,Vermutung,udhanifu,d,NA,NA,NA,NA,sdf,NA,2,NA,NA,NA,NA,NA,NA,NA,NA,NA,NA,NA,NA,NA,NA,NA,NA,NA,NA,NA
8c8e8,deep,flow.Sequence,3_0_2_0_5_0,NA,NA,skipped,NA,512290.79999995,NA,NA,512288.9,512290.89999986,2024-05-13T12:18:37Z,512305.8,NULL,Annäherung,maegesho,s,madahili,kujiamini,mapendekezo,NA,sdf,NA,2,NA,NA,NA,NA,NA,NA,NA,NA,NA,NA,NA,NA,NA,NA,NA,NA,NA,NA,NA
8c8e8,Shallow Question,html.Page,3_0_2_0_5_1_0,NA,NA,form submission,11324.400000048,512291.0999999,512288.9,512305.8,523630.20000005,523630.29999995,2024-05-13T12:18:49Z,523648.9,NULL,Annäherung,maegesho,s,madahili,kujiamini,mapendekezo,maegesho,NA,NA,2,NA,NA,NA,NA,NA,NA,NA,NA,NA,NA,NA,NA,NA,NA,NA,NA,NA,NA,NA
8c8e8,"""Richtig""-Screen",canvas.Screen,3_0_2_0_5_1_1,NA,NA,timeout,4997.2,523631.5999999,523631.9,523648.9,528629.1,528630,2024-05-13T12:18:54Z,528646.1,NULL,Annäherung,maegesho,s,madahili,kujiamini,mapendekezo,NA,sdf,1,2,NA,NA,NA,NA,NA,NA,NA,NA,NA,NA,NA,NA,NA,NA,NA,NA,NA,NA,NA
8c8e8,"""Falsch""-Screen",canvas.Screen,3_0_2_0_5_1_2,NA,NA,skipped,NA,528635,NA,NA,528629.1,528635.20000005,2024-05-13T12:18:54Z,528646.1,NULL,Annäherung,maegesho,s,madahili,kujiamini,mapendekezo,NA,sdf,NA,2,NA,NA,NA,NA,NA,NA,NA,NA,NA,NA,NA,NA,NA,NA,NA,NA,NA,NA,NA
8c8e8,shallow,flow.Sequence,3_0_2_0_5_1,NA,NA,completion,16323.3,512291.0999999,512288.9,512305.8,528629.1,528635.29999995,2024-05-13T12:18:54Z,528646.1,NULL,Annäherung,maegesho,s,madahili,kujiamini,mapendekezo,NA,sdf,NA,2,NA,NA,NA,NA,NA,NA,NA,NA,NA,NA,NA,NA,NA,NA,NA,NA,NA,NA,NA
8c8e8,task,flow.Sequence,3_0_2_0_5,NA,NA,completion,16323.3,512290.70000005,512288.9,512305.8,528629.1,528635.29999995,2024-05-13T12:18:54Z,528646.1,NULL,Annäherung,maegesho,s,madahili,kujiamini,mapendekezo,NA,sdf,NA,2,NA,NA,NA,NA,NA,NA,NA,NA,NA,NA,NA,NA,NA,NA,NA,NA,NA,NA,NA
8c8e8,deep,flow.Sequence,3_0_2_0_6_0,NA,NA,skipped,NA,528635.29999995,NA,NA,528629.1,528635.5,2024-05-13T12:18:54Z,528646.1,NULL,Toleranz,kuvumiliana,s,maombolezo,ujasusi,mchekeshaji,NA,sdf,NA,2,NA,NA,NA,NA,NA,NA,NA,NA,NA,NA,NA,NA,NA,NA,NA,NA,NA,NA,NA
8c8e8,Shallow Question,html.Page,3_0_2_0_6_1_0,NA,NA,form submission,13234.699999952,528635.5,528629.1,528646.1,541880.79999995,541881,2024-05-13T12:19:07Z,541888.218,NULL,Toleranz,kuvumiliana,s,maombolezo,ujasusi,mchekeshaji,kuvumiliana,NA,NA,2,NA,NA,NA,NA,NA,NA,NA,NA,NA,NA,NA,NA,NA,NA,NA,NA,NA,NA,NA
8c8e8,"""Richtig""-Screen",canvas.Screen,3_0_2_0_6_1_1,NA,NA,timeout,4996.482,541883.89999986,541888.218,541888.218,546868.2,546869.0999999,2024-05-13T12:19:12Z,546884.7,NULL,Toleranz,kuvumiliana,s,maombolezo,ujasusi,mchekeshaji,NA,sdf,1,2,NA,NA,NA,NA,NA,NA,NA,NA,NA,NA,NA,NA,NA,NA,NA,NA,NA,NA,NA
8c8e8,"""Falsch""-Screen",canvas.Screen,3_0_2_0_6_1_2,NA,NA,skipped,NA,546874,NA,NA,546868.2,546874.20000005,2024-05-13T12:19:12Z,546884.7,NULL,Toleranz,kuvumiliana,s,maombolezo,ujasusi,mchekeshaji,NA,sdf,NA,2,NA,NA,NA,NA,NA,NA,NA,NA,NA,NA,NA,NA,NA,NA,NA,NA,NA,NA,NA
8c8e8,shallow,flow.Sequence,3_0_2_0_6_1,NA,NA,completion,18222.1,528635.5,528629.1,528646.1,546868.2,546874.39999986,2024-05-13T12:19:12Z,546884.7,NULL,Toleranz,kuvumiliana,s,maombolezo,ujasusi,mchekeshaji,NA,sdf,NA,2,NA,NA,NA,NA,NA,NA,NA,NA,NA,NA,NA,NA,NA,NA,NA,NA,NA,NA,NA
8c8e8,task,flow.Sequence,3_0_2_0_6,NA,NA,completion,18222.1,528635.29999995,528629.1,528646.1,546868.2,546874.5999999,2024-05-13T12:19:12Z,546884.7,NULL,Toleranz,kuvumiliana,s,maombolezo,ujasusi,mchekeshaji,NA,sdf,NA,2,NA,NA,NA,NA,NA,NA,NA,NA,NA,NA,NA,NA,NA,NA,NA,NA,NA,NA,NA
8c8e8,Deep Question,html.Page,3_0_2_0_7_0_0,NA,NA,form submission,7260.3999999047,546874.79999995,546868.2,546884.7,554145.0999999,554145.39999986,2024-05-13T12:19:19Z,554147.286,NULL,Polizist,msongora,d,NA,NA,NA,g,NA,NA,2,NA,NA,NA,NA,NA,NA,NA,NA,NA,NA,NA,NA,NA,NA,NA,NA,NA,NA,NA
8c8e8,"""Richtig""-Screen",canvas.Screen,3_0_2_0_7_0_1,NA,NA,skipped,NA,554148.29999995,NA,NA,554145.0999999,554148.5,2024-05-13T12:19:19Z,554147.286,NULL,Polizist,msongora,d,NA,NA,NA,NA,sdf,NA,2,NA,NA,NA,NA,NA,NA,NA,NA,NA,NA,NA,NA,NA,NA,NA,NA,NA,NA,NA
8c8e8,"""Falsch""-Screen",canvas.Screen,3_0_2_0_7_0_2,NA,NA,timeout,4996.6140000001,554149.20000005,554147.286,554147.286,559127.3,559127.70000005,2024-05-13T12:19:24Z,559143.9,NULL,Polizist,msongora,d,NA,NA,NA,NA,sdf,0,2,NA,NA,NA,NA,NA,NA,NA,NA,NA,NA,NA,NA,NA,NA,NA,NA,NA,NA,NA
8c8e8,deep,flow.Sequence,3_0_2_0_7_0,NA,NA,completion,12242.6,546874.70000005,546868.2,546884.7,559127.3,559127.79999995,2024-05-13T12:19:24Z,559143.9,NULL,Polizist,msongora,d,NA,NA,NA,NA,sdf,NA,2,NA,NA,NA,NA,NA,NA,NA,NA,NA,NA,NA,NA,NA,NA,NA,NA,NA,NA,NA
8c8e8,shallow,flow.Sequence,3_0_2_0_7_1,NA,NA,skipped,NA,559127.79999995,NA,NA,559127.3,559127.79999995,2024-05-13T12:19:24Z,559143.9,NULL,Polizist,msongora,d,NA,NA,NA,NA,sdf,NA,2,NA,NA,NA,NA,NA,NA,NA,NA,NA,NA,NA,NA,NA,NA,NA,NA,NA,NA,NA
8c8e8,task,flow.Sequence,3_0_2_0_7,NA,NA,completion,12242.6,546874.70000005,546868.2,546884.7,559127.3,559127.89999986,2024-05-13T12:19:24Z,559143.9,NULL,Polizist,msongora,d,NA,NA,NA,NA,sdf,NA,2,NA,NA,NA,NA,NA,NA,NA,NA,NA,NA,NA,NA,NA,NA,NA,NA,NA,NA,NA
8c8e8,block,flow.Loop,3_0_2_0,NA,NA,completion,109999.308,449141.0999999,449127.992,449127.992,559127.3,559127.89999986,2024-05-13T12:19:24Z,559143.9,NULL,NA,NA,NA,NA,NA,NA,NA,sdf,NA,2,NA,NA,NA,NA,NA,NA,NA,NA,NA,NA,NA,NA,NA,NA,NA,NA,NA,NA,NA
8c8e8,weiter,canvas.Screen,3_0_2_1,sdf,keypress(Space),response,2756.3999999523,559128,559127.3,559143.9,561900.29999995,561901,2024-05-13T12:19:27Z,561909.79,NULL,NA,NA,NA,NA,NA,NA,NA,sdf,NA,2,NA,NA,NA,NA,NA,NA,NA,NA,NA,NA,NA,NA,NA,NA,NA,NA,NA,NA,NA
8c8e8,check continue,flow.Sequence,3_0_2,NA,NA,completion,112772.30799995,449141.0999999,449127.992,449127.992,561900.29999995,561901.0999999,2024-05-13T12:19:27Z,561909.79,NULL,NA,NA,NA,NA,NA,NA,NA,sdf,NA,2,NA,NA,NA,NA,NA,NA,NA,NA,NA,NA,NA,NA,NA,NA,NA,NA,NA,NA,NA
8c8e8,deep,flow.Sequence,3_0_3_0_0_0,NA,NA,skipped,NA,561919.79999995,NA,NA,561900.29999995,561919.89999986,2024-05-13T12:19:27Z,561909.79,NULL,Sympathie,mapendano,s,dhamiria,fungamano,maazimio,NA,qt,NA,3,NA,NA,NA,NA,NA,NA,NA,NA,NA,NA,NA,NA,NA,NA,NA,NA,NA,NA,NA
8c8e8,Shallow Question,html.Page,3_0_3_0_0_1_0,NA,NA,form submission,7761.4100000476,561919.89999986,561909.79,561909.79,569671.20000005,569671.39999986,2024-05-13T12:19:35Z,569687.4,NULL,Sympathie,mapendano,s,dhamiria,fungamano,maazimio,mapendano,NA,NA,3,NA,NA,NA,NA,NA,NA,NA,NA,NA,NA,NA,NA,NA,NA,NA,NA,NA,NA,NA
8c8e8,"""Richtig""-Screen",canvas.Screen,3_0_3_0_0_1_1,NA,NA,timeout,4997.2,569674.20000005,569671.248,569687.4,574667.9,574668.70000005,2024-05-13T12:19:40Z,574684.6,NULL,Sympathie,mapendano,s,dhamiria,fungamano,maazimio,NA,qt,1,3,NA,NA,NA,NA,NA,NA,NA,NA,NA,NA,NA,NA,NA,NA,NA,NA,NA,NA,NA
8c8e8,"""Falsch""-Screen",canvas.Screen,3_0_3_0_0_1_2,NA,NA,skipped,NA,574673.89999986,NA,NA,574667.9,574674.0999999,2024-05-13T12:19:40Z,574684.6,NULL,Sympathie,mapendano,s,dhamiria,fungamano,maazimio,NA,qt,NA,3,NA,NA,NA,NA,NA,NA,NA,NA,NA,NA,NA,NA,NA,NA,NA,NA,NA,NA,NA
8c8e8,shallow,flow.Sequence,3_0_3_0_0_1,NA,NA,completion,12758.11,561919.89999986,561909.79,561909.79,574667.9,574674.20000005,2024-05-13T12:19:40Z,574684.6,NULL,Sympathie,mapendano,s,dhamiria,fungamano,maazimio,NA,qt,NA,3,NA,NA,NA,NA,NA,NA,NA,NA,NA,NA,NA,NA,NA,NA,NA,NA,NA,NA,NA
8c8e8,task,flow.Sequence,3_0_3_0_0,NA,NA,completion,12758.11,561919.70000005,561909.79,561909.79,574667.9,574674.29999995,2024-05-13T12:19:40Z,574684.6,NULL,Sympathie,mapendano,s,dhamiria,fungamano,maazimio,NA,qt,NA,3,NA,NA,NA,NA,NA,NA,NA,NA,NA,NA,NA,NA,NA,NA,NA,NA,NA,NA,NA
8c8e8,deep,flow.Sequence,3_0_3_0_1_0,NA,NA,skipped,NA,574674.29999995,NA,NA,574667.9,574674.39999986,2024-05-13T12:19:40Z,574684.6,NULL,Annäherung,maegesho,s,madahili,kujiamini,mapendekezo,NA,qt,NA,3,NA,NA,NA,NA,NA,NA,NA,NA,NA,NA,NA,NA,NA,NA,NA,NA,NA,NA,NA
8c8e8,Shallow Question,html.Page,3_0_3_0_1_1_0,NA,NA,form submission,12655.699999952,574674.39999986,574667.9,574684.6,587340.29999995,587340.5,2024-05-13T12:19:52Z,587343.486,NULL,Annäherung,maegesho,s,madahili,kujiamini,mapendekezo,maegesho,NA,NA,3,NA,NA,NA,NA,NA,NA,NA,NA,NA,NA,NA,NA,NA,NA,NA,NA,NA,NA,NA
8c8e8,"""Richtig""-Screen",canvas.Screen,3_0_3_0_1_1_1,NA,NA,timeout,4996.6139999999,587343.5999999,587343.486,587343.486,592323.4,592324.39999986,2024-05-13T12:19:57Z,592340.1,NULL,Annäherung,maegesho,s,madahili,kujiamini,mapendekezo,NA,qt,1,3,NA,NA,NA,NA,NA,NA,NA,NA,NA,NA,NA,NA,NA,NA,NA,NA,NA,NA,NA
8c8e8,"""Falsch""-Screen",canvas.Screen,3_0_3_0_1_1_2,NA,NA,skipped,NA,592329.79999995,NA,NA,592323.4,592329.89999986,2024-05-13T12:19:57Z,592340.1,NULL,Annäherung,maegesho,s,madahili,kujiamini,mapendekezo,NA,qt,NA,3,NA,NA,NA,NA,NA,NA,NA,NA,NA,NA,NA,NA,NA,NA,NA,NA,NA,NA,NA
8c8e8,shallow,flow.Sequence,3_0_3_0_1_1,NA,NA,completion,17638.8,574674.39999986,574667.9,574684.6,592323.4,592330.20000005,2024-05-13T12:19:57Z,592340.1,NULL,Annäherung,maegesho,s,madahili,kujiamini,mapendekezo,NA,qt,NA,3,NA,NA,NA,NA,NA,NA,NA,NA,NA,NA,NA,NA,NA,NA,NA,NA,NA,NA,NA
8c8e8,task,flow.Sequence,3_0_3_0_1,NA,NA,completion,17638.8,574674.29999995,574667.9,574684.6,592323.4,592330.39999986,2024-05-13T12:19:57Z,592340.1,NULL,Annäherung,maegesho,s,madahili,kujiamini,mapendekezo,NA,qt,NA,3,NA,NA,NA,NA,NA,NA,NA,NA,NA,NA,NA,NA,NA,NA,NA,NA,NA,NA,NA
8c8e8,deep,flow.Sequence,3_0_3_0_2_0,NA,NA,skipped,NA,592330.5999999,NA,NA,592323.4,592330.70000005,2024-05-13T12:19:57Z,592340.1,NULL,Schlange,foleni,s,uvumilivu,uteuzi,muuzaji,NA,qt,NA,3,NA,NA,NA,NA,NA,NA,NA,NA,NA,NA,NA,NA,NA,NA,NA,NA,NA,NA,NA
8c8e8,Shallow Question,html.Page,3_0_3_0_2_1_0,NA,NA,form submission,3598.6999999523,592330.79999995,592323.4,592340.1,595938.79999995,595939.0999999,2024-05-13T12:20:01Z,595971.4,NULL,Schlange,foleni,s,uvumilivu,uteuzi,muuzaji,foleni,NA,NA,3,NA,NA,NA,NA,NA,NA,NA,NA,NA,NA,NA,NA,NA,NA,NA,NA,NA,NA,NA
8c8e8,"""Richtig""-Screen",canvas.Screen,3_0_3_0_2_1_1,NA,NA,timeout,4997.2999999999,595941.89999986,595955,595971.4,600951.8,600952.5999999,2024-05-13T12:20:06Z,600968.7,NULL,Schlange,foleni,s,uvumilivu,uteuzi,muuzaji,NA,qt,1,3,NA,NA,NA,NA,NA,NA,NA,NA,NA,NA,NA,NA,NA,NA,NA,NA,NA,NA,NA
8c8e8,"""Falsch""-Screen",canvas.Screen,3_0_3_0_2_1_2,NA,NA,skipped,NA,600957.89999986,NA,NA,600951.8,600958,2024-05-13T12:20:06Z,600968.7,NULL,Schlange,foleni,s,uvumilivu,uteuzi,muuzaji,NA,qt,NA,3,NA,NA,NA,NA,NA,NA,NA,NA,NA,NA,NA,NA,NA,NA,NA,NA,NA,NA,NA
8c8e8,shallow,flow.Sequence,3_0_3_0_2_1,NA,NA,completion,8611.7000000001,592330.79999995,592323.4,592340.1,600951.8,600958,2024-05-13T12:20:06Z,600968.7,NULL,Schlange,foleni,s,uvumilivu,uteuzi,muuzaji,NA,qt,NA,3,NA,NA,NA,NA,NA,NA,NA,NA,NA,NA,NA,NA,NA,NA,NA,NA,NA,NA,NA
8c8e8,task,flow.Sequence,3_0_3_0_2,NA,NA,completion,8611.7000000001,592330.5,592323.4,592340.1,600951.8,600958.0999999,2024-05-13T12:20:06Z,600968.7,NULL,Schlange,foleni,s,uvumilivu,uteuzi,muuzaji,NA,qt,NA,3,NA,NA,NA,NA,NA,NA,NA,NA,NA,NA,NA,NA,NA,NA,NA,NA,NA,NA,NA
8c8e8,Deep Question,html.Page,3_0_3_0_3_0_0,NA,NA,form submission,9971.0000000477,600958.20000005,600951.8,600968.7,610939.70000005,610939.89999986,2024-05-13T12:20:16Z,610945.3,NULL,Vermutung,udhanifu,d,NA,NA,NA,k,NA,NA,3,NA,NA,NA,NA,NA,NA,NA,NA,NA,NA,NA,NA,NA,NA,NA,NA,NA,NA,NA
8c8e8,"""Richtig""-Screen",canvas.Screen,3_0_3_0_3_0_1,NA,NA,skipped,NA,610942.79999995,NA,NA,610939.70000005,610943,2024-05-13T12:20:16Z,610945.3,NULL,Vermutung,udhanifu,d,NA,NA,NA,NA,qt,NA,3,NA,NA,NA,NA,NA,NA,NA,NA,NA,NA,NA,NA,NA,NA,NA,NA,NA,NA,NA
8c8e8,"""Falsch""-Screen",canvas.Screen,3_0_3_0_3_0_2,NA,NA,timeout,4997.2999999999,610943.70000005,610929.39,610945.3,615926,615926.70000005,2024-05-13T12:20:21Z,615942.6,NULL,Vermutung,udhanifu,d,NA,NA,NA,NA,qt,0,3,NA,NA,NA,NA,NA,NA,NA,NA,NA,NA,NA,NA,NA,NA,NA,NA,NA,NA,NA
8c8e8,deep,flow.Sequence,3_0_3_0_3_0,NA,NA,completion,14957.3,600958.20000005,600951.8,600968.7,615926,615927.0999999,2024-05-13T12:20:21Z,615942.6,NULL,Vermutung,udhanifu,d,NA,NA,NA,NA,qt,NA,3,NA,NA,NA,NA,NA,NA,NA,NA,NA,NA,NA,NA,NA,NA,NA,NA,NA,NA,NA
8c8e8,shallow,flow.Sequence,3_0_3_0_3_1,NA,NA,skipped,NA,615927.29999995,NA,NA,615926,615927.29999995,2024-05-13T12:20:21Z,615942.6,NULL,Vermutung,udhanifu,d,NA,NA,NA,NA,qt,NA,3,NA,NA,NA,NA,NA,NA,NA,NA,NA,NA,NA,NA,NA,NA,NA,NA,NA,NA,NA
8c8e8,task,flow.Sequence,3_0_3_0_3,NA,NA,completion,14957.3,600958.20000005,600951.8,600968.7,615926,615927.5,2024-05-13T12:20:21Z,615942.6,NULL,Vermutung,udhanifu,d,NA,NA,NA,NA,qt,NA,3,NA,NA,NA,NA,NA,NA,NA,NA,NA,NA,NA,NA,NA,NA,NA,NA,NA,NA,NA
8c8e8,Deep Question,html.Page,3_0_3_0_4_0_0,NA,NA,form submission,10524.799999857,615927.79999995,615926,615942.6,626467.39999986,626467.5999999,2024-05-13T12:20:32Z,626470.12,NULL,Polizist,msongora,d,NA,NA,NA,f,NA,NA,3,NA,NA,NA,NA,NA,NA,NA,NA,NA,NA,NA,NA,NA,NA,NA,NA,NA,NA,NA
8c8e8,"""Richtig""-Screen",canvas.Screen,3_0_3_0_4_0_1,NA,NA,skipped,NA,626470.5,NA,NA,626467.39999986,626470.5999999,2024-05-13T12:20:32Z,626470.12,NULL,Polizist,msongora,d,NA,NA,NA,NA,qt,NA,3,NA,NA,NA,NA,NA,NA,NA,NA,NA,NA,NA,NA,NA,NA,NA,NA,NA,NA,NA
8c8e8,"""Falsch""-Screen",canvas.Screen,3_0_3_0_4_0_2,NA,NA,timeout,4996.28,626471.39999986,626470.12,626470.12,631449.6,631450.29999995,2024-05-13T12:20:37Z,631466.4,NULL,Polizist,msongora,d,NA,NA,NA,NA,qt,0,3,NA,NA,NA,NA,NA,NA,NA,NA,NA,NA,NA,NA,NA,NA,NA,NA,NA,NA,NA
8c8e8,deep,flow.Sequence,3_0_3_0_4_0,NA,NA,completion,15507,615927.70000005,615926,615942.6,631449.6,631450.5,2024-05-13T12:20:37Z,631466.4,NULL,Polizist,msongora,d,NA,NA,NA,NA,qt,NA,3,NA,NA,NA,NA,NA,NA,NA,NA,NA,NA,NA,NA,NA,NA,NA,NA,NA,NA,NA
8c8e8,shallow,flow.Sequence,3_0_3_0_4_1,NA,NA,skipped,NA,631450.5999999,NA,NA,631449.6,631450.70000005,2024-05-13T12:20:37Z,631466.4,NULL,Polizist,msongora,d,NA,NA,NA,NA,qt,NA,3,NA,NA,NA,NA,NA,NA,NA,NA,NA,NA,NA,NA,NA,NA,NA,NA,NA,NA,NA
8c8e8,task,flow.Sequence,3_0_3_0_4,NA,NA,completion,15507,615927.5999999,615926,615942.6,631449.6,631450.89999986,2024-05-13T12:20:37Z,631466.4,NULL,Polizist,msongora,d,NA,NA,NA,NA,qt,NA,3,NA,NA,NA,NA,NA,NA,NA,NA,NA,NA,NA,NA,NA,NA,NA,NA,NA,NA,NA
8c8e8,Deep Question,html.Page,3_0_3_0_5_0_0,NA,NA,form submission,8362.9999998569,631451,631449.6,631466.4,639829.39999986,639829.5999999,2024-05-13T12:20:45Z,639844.3,NULL,Inhalt,yaliyomo,d,NA,NA,NA,yumiyemi,NA,NA,3,NA,NA,NA,NA,NA,NA,NA,NA,NA,NA,NA,NA,NA,NA,NA,NA,NA,NA,NA
8c8e8,"""Richtig""-Screen",canvas.Screen,3_0_3_0_5_0_1,NA,NA,skipped,NA,639832.5,NA,NA,639829.39999986,639832.5999999,2024-05-13T12:20:45Z,639844.3,NULL,Inhalt,yaliyomo,d,NA,NA,NA,NA,qt,NA,3,NA,NA,NA,NA,NA,NA,NA,NA,NA,NA,NA,NA,NA,NA,NA,NA,NA,NA,NA
8c8e8,"""Falsch""-Screen",canvas.Screen,3_0_3_0_5_0_2,NA,NA,timeout,4997.2999999999,639833.29999995,639828.322,639844.3,644825.2,644825.70000005,2024-05-13T12:20:50Z,644841.6,NULL,Inhalt,yaliyomo,d,NA,NA,NA,NA,qt,0,3,NA,NA,NA,NA,NA,NA,NA,NA,NA,NA,NA,NA,NA,NA,NA,NA,NA,NA,NA
8c8e8,deep,flow.Sequence,3_0_3_0_5_0,NA,NA,completion,13358.8,631451,631449.6,631466.4,644825.2,644825.79999995,2024-05-13T12:20:50Z,644841.6,NULL,Inhalt,yaliyomo,d,NA,NA,NA,NA,qt,NA,3,NA,NA,NA,NA,NA,NA,NA,NA,NA,NA,NA,NA,NA,NA,NA,NA,NA,NA,NA
8c8e8,shallow,flow.Sequence,3_0_3_0_5_1,NA,NA,skipped,NA,644825.79999995,NA,NA,644825.2,644825.89999986,2024-05-13T12:20:50Z,644841.6,NULL,Inhalt,yaliyomo,d,NA,NA,NA,NA,qt,NA,3,NA,NA,NA,NA,NA,NA,NA,NA,NA,NA,NA,NA,NA,NA,NA,NA,NA,NA,NA
8c8e8,task,flow.Sequence,3_0_3_0_5,NA,NA,completion,13358.8,631450.89999986,631449.6,631466.4,644825.2,644826.0999999,2024-05-13T12:20:50Z,644841.6,NULL,Inhalt,yaliyomo,d,NA,NA,NA,NA,qt,NA,3,NA,NA,NA,NA,NA,NA,NA,NA,NA,NA,NA,NA,NA,NA,NA,NA,NA,NA,NA
8c8e8,Deep Question,html.Page,3_0_3_0_6_0_0,NA,NA,form submission,11751.600000048,644826.0999999,644825.2,644841.6,656593.20000005,656593.39999986,2024-05-13T12:21:02Z,656600.9,NULL,Beweis,ushahidi,d,NA,NA,NA,ushara,NA,NA,3,NA,NA,NA,NA,NA,NA,NA,NA,NA,NA,NA,NA,NA,NA,NA,NA,NA,NA,NA
8c8e8,"""Richtig""-Screen",canvas.Screen,3_0_3_0_6_0_1,NA,NA,skipped,NA,656596.39999986,NA,NA,656593.20000005,656596.5,2024-05-13T12:21:02Z,656600.9,NULL,Beweis,ushahidi,d,NA,NA,NA,NA,qt,NA,3,NA,NA,NA,NA,NA,NA,NA,NA,NA,NA,NA,NA,NA,NA,NA,NA,NA,NA,NA
8c8e8,"""Falsch""-Screen",canvas.Screen,3_0_3_0_6_0_2,NA,NA,timeout,4997.2999999999,656597.29999995,656584.944,656600.9,661581.1,661582,2024-05-13T12:21:07Z,661598.2,NULL,Beweis,ushahidi,d,NA,NA,NA,NA,qt,0,3,NA,NA,NA,NA,NA,NA,NA,NA,NA,NA,NA,NA,NA,NA,NA,NA,NA,NA,NA
8c8e8,deep,flow.Sequence,3_0_3_0_6_0,NA,NA,completion,16739.5,644826.0999999,644825.2,644841.6,661581.1,661582.39999986,2024-05-13T12:21:07Z,661598.2,NULL,Beweis,ushahidi,d,NA,NA,NA,NA,qt,NA,3,NA,NA,NA,NA,NA,NA,NA,NA,NA,NA,NA,NA,NA,NA,NA,NA,NA,NA,NA
8c8e8,shallow,flow.Sequence,3_0_3_0_6_1,NA,NA,skipped,NA,661582.5,NA,NA,661581.1,661582.70000005,2024-05-13T12:21:07Z,661598.2,NULL,Beweis,ushahidi,d,NA,NA,NA,NA,qt,NA,3,NA,NA,NA,NA,NA,NA,NA,NA,NA,NA,NA,NA,NA,NA,NA,NA,NA,NA,NA
8c8e8,task,flow.Sequence,3_0_3_0_6,NA,NA,completion,16739.5,644826.0999999,644825.2,644841.6,661581.1,661582.89999986,2024-05-13T12:21:07Z,661598.2,NULL,Beweis,ushahidi,d,NA,NA,NA,NA,qt,NA,3,NA,NA,NA,NA,NA,NA,NA,NA,NA,NA,NA,NA,NA,NA,NA,NA,NA,NA,NA
8c8e8,deep,flow.Sequence,3_0_3_0_7_0,NA,NA,skipped,NA,661583,NA,NA,661581.1,661583.20000005,2024-05-13T12:21:07Z,661598.2,NULL,Toleranz,kuvumiliana,s,maombolezo,ujasusi,mchekeshaji,NA,qt,NA,3,NA,NA,NA,NA,NA,NA,NA,NA,NA,NA,NA,NA,NA,NA,NA,NA,NA,NA,NA
8c8e8,Shallow Question,html.Page,3_0_3_0_7_1_0,NA,NA,form submission,7247.199999857,661583.29999995,661581.1,661598.2,668845.39999986,668845.5,2024-05-13T12:21:14Z,668860.3,NULL,Toleranz,kuvumiliana,s,maombolezo,ujasusi,mchekeshaji,kuvumiliana,NA,NA,3,NA,NA,NA,NA,NA,NA,NA,NA,NA,NA,NA,NA,NA,NA,NA,NA,NA,NA,NA
8c8e8,"""Richtig""-Screen",canvas.Screen,3_0_3_0_7_1_1,NA,NA,timeout,4997.1,668848.39999986,668843.922,668860.3,673840.5,673841.39999986,2024-05-13T12:21:19Z,673857.4,NULL,Toleranz,kuvumiliana,s,maombolezo,ujasusi,mchekeshaji,NA,qt,1,3,NA,NA,NA,NA,NA,NA,NA,NA,NA,NA,NA,NA,NA,NA,NA,NA,NA,NA,NA
8c8e8,"""Falsch""-Screen",canvas.Screen,3_0_3_0_7_1_2,NA,NA,skipped,NA,673846,NA,NA,673840.5,673846.0999999,2024-05-13T12:21:19Z,673857.4,NULL,Toleranz,kuvumiliana,s,maombolezo,ujasusi,mchekeshaji,NA,qt,NA,3,NA,NA,NA,NA,NA,NA,NA,NA,NA,NA,NA,NA,NA,NA,NA,NA,NA,NA,NA
8c8e8,shallow,flow.Sequence,3_0_3_0_7_1,NA,NA,completion,12242.3,661583.20000005,661581.1,661598.2,673840.5,673846.29999995,2024-05-13T12:21:19Z,673857.4,NULL,Toleranz,kuvumiliana,s,maombolezo,ujasusi,mchekeshaji,NA,qt,NA,3,NA,NA,NA,NA,NA,NA,NA,NA,NA,NA,NA,NA,NA,NA,NA,NA,NA,NA,NA
8c8e8,task,flow.Sequence,3_0_3_0_7,NA,NA,completion,12242.3,661582.89999986,661581.1,661598.2,673840.5,673846.5,2024-05-13T12:21:19Z,673857.4,NULL,Toleranz,kuvumiliana,s,maombolezo,ujasusi,mchekeshaji,NA,qt,NA,3,NA,NA,NA,NA,NA,NA,NA,NA,NA,NA,NA,NA,NA,NA,NA,NA,NA,NA,NA
8c8e8,block,flow.Loop,3_0_3_0,NA,NA,completion,111930.71,561919.70000005,561909.79,561909.79,673840.5,673846.5999999,2024-05-13T12:21:19Z,673857.4,NULL,NA,NA,NA,NA,NA,NA,NA,qt,NA,3,NA,NA,NA,NA,NA,NA,NA,NA,NA,NA,NA,NA,NA,NA,NA,NA,NA,NA,NA
8c8e8,weiter,canvas.Screen,3_0_3_1,sdf,keypress(Space),response,1475.1999999046,673846.5999999,673840.5,673857.4,675332.5999999,675333.5999999,2024-05-13T12:21:20Z,675340.674,NULL,NA,NA,NA,NA,NA,NA,NA,qt,NA,3,NA,NA,NA,NA,NA,NA,NA,NA,NA,NA,NA,NA,NA,NA,NA,NA,NA,NA,NA
8c8e8,check continue,flow.Sequence,3_0_3,NA,NA,completion,113422.8099999,561919.70000005,561909.79,561909.79,675332.5999999,675333.89999986,2024-05-13T12:21:20Z,675340.674,NULL,NA,NA,NA,NA,NA,NA,NA,qt,NA,3,NA,NA,NA,NA,NA,NA,NA,NA,NA,NA,NA,NA,NA,NA,NA,NA,NA,NA,NA
8c8e8,deep,flow.Sequence,3_0_4_0_0_0,NA,NA,skipped,NA,675351.29999995,NA,NA,675332.5999999,675351.39999986,2024-05-13T12:21:20Z,675340.674,NULL,Schlange,foleni,s,uvumilivu,uteuzi,muuzaji,NA,sd,NA,4,NA,NA,NA,NA,NA,NA,NA,NA,NA,NA,NA,NA,NA,NA,NA,NA,NA,NA,NA
8c8e8,Shallow Question,html.Page,3_0_4_0_0_1_0,NA,NA,form submission,3488.1259999523,675351.39999986,675340.674,675340.674,678828.79999995,678829,2024-05-13T12:21:24Z,678837.2,NULL,Schlange,foleni,s,uvumilivu,uteuzi,muuzaji,foleni,NA,NA,4,NA,NA,NA,NA,NA,NA,NA,NA,NA,NA,NA,NA,NA,NA,NA,NA,NA,NA,NA
8c8e8,"""Richtig""-Screen",canvas.Screen,3_0_4_0_0_1_1,NA,NA,timeout,4997.6000000001,678829.79999995,678821.154,678837.2,683817.7,683818.70000005,2024-05-13T12:21:29Z,683834.8,NULL,Schlange,foleni,s,uvumilivu,uteuzi,muuzaji,NA,sd,1,4,NA,NA,NA,NA,NA,NA,NA,NA,NA,NA,NA,NA,NA,NA,NA,NA,NA,NA,NA
8c8e8,"""Falsch""-Screen",canvas.Screen,3_0_4_0_0_1_2,NA,NA,skipped,NA,683823.89999986,NA,NA,683817.7,683824.0999999,2024-05-13T12:21:29Z,683834.8,NULL,Schlange,foleni,s,uvumilivu,uteuzi,muuzaji,NA,sd,NA,4,NA,NA,NA,NA,NA,NA,NA,NA,NA,NA,NA,NA,NA,NA,NA,NA,NA,NA,NA
8c8e8,shallow,flow.Sequence,3_0_4_0_0_1,NA,NA,completion,8477.026,675351.39999986,675340.674,675340.674,683817.7,683824.20000005,2024-05-13T12:21:29Z,683834.8,NULL,Schlange,foleni,s,uvumilivu,uteuzi,muuzaji,NA,sd,NA,4,NA,NA,NA,NA,NA,NA,NA,NA,NA,NA,NA,NA,NA,NA,NA,NA,NA,NA,NA
8c8e8,task,flow.Sequence,3_0_4_0_0,NA,NA,completion,8477.026,675351.29999995,675340.674,675340.674,683817.7,683824.20000005,2024-05-13T12:21:29Z,683834.8,NULL,Schlange,foleni,s,uvumilivu,uteuzi,muuzaji,NA,sd,NA,4,NA,NA,NA,NA,NA,NA,NA,NA,NA,NA,NA,NA,NA,NA,NA,NA,NA,NA,NA
8c8e8,deep,flow.Sequence,3_0_4_0_1_0,NA,NA,skipped,NA,683824.20000005,NA,NA,683817.7,683824.29999995,2024-05-13T12:21:29Z,683834.8,NULL,Annäherung,maegesho,s,madahili,kujiamini,mapendekezo,NA,sd,NA,4,NA,NA,NA,NA,NA,NA,NA,NA,NA,NA,NA,NA,NA,NA,NA,NA,NA,NA,NA
8c8e8,Shallow Question,html.Page,3_0_4_0_1_1_0,NA,NA,form submission,12250.400000048,683824.29999995,683817.7,683834.8,696085.20000005,696085.5,2024-05-13T12:21:41Z,696093.5,NULL,Annäherung,maegesho,s,madahili,kujiamini,mapendekezo,maegesho,NA,NA,4,NA,NA,NA,NA,NA,NA,NA,NA,NA,NA,NA,NA,NA,NA,NA,NA,NA,NA,NA
8c8e8,"""Richtig""-Screen",canvas.Screen,3_0_4_0_1_1_1,NA,NA,timeout,4997.2,696088.39999986,696077.392,696093.5,701074.1,701074.89999986,2024-05-13T12:21:46Z,701090.7,NULL,Annäherung,maegesho,s,madahili,kujiamini,mapendekezo,NA,sd,1,4,NA,NA,NA,NA,NA,NA,NA,NA,NA,NA,NA,NA,NA,NA,NA,NA,NA,NA,NA
8c8e8,"""Falsch""-Screen",canvas.Screen,3_0_4_0_1_1_2,NA,NA,skipped,NA,701079.5,NA,NA,701074.1,701079.70000005,2024-05-13T12:21:46Z,701090.7,NULL,Annäherung,maegesho,s,madahili,kujiamini,mapendekezo,NA,sd,NA,4,NA,NA,NA,NA,NA,NA,NA,NA,NA,NA,NA,NA,NA,NA,NA,NA,NA,NA,NA
8c8e8,shallow,flow.Sequence,3_0_4_0_1_1,NA,NA,completion,17239.3,683824.29999995,683817.7,683834.8,701074.1,701079.89999986,2024-05-13T12:21:46Z,701090.7,NULL,Annäherung,maegesho,s,madahili,kujiamini,mapendekezo,NA,sd,NA,4,NA,NA,NA,NA,NA,NA,NA,NA,NA,NA,NA,NA,NA,NA,NA,NA,NA,NA,NA
8c8e8,task,flow.Sequence,3_0_4_0_1,NA,NA,completion,17239.3,683824.20000005,683817.7,683834.8,701074.1,701080.0999999,2024-05-13T12:21:46Z,701090.7,NULL,Annäherung,maegesho,s,madahili,kujiamini,mapendekezo,NA,sd,NA,4,NA,NA,NA,NA,NA,NA,NA,NA,NA,NA,NA,NA,NA,NA,NA,NA,NA,NA,NA
8c8e8,Deep Question,html.Page,3_0_4_0_2_0_0,NA,NA,form submission,13626.399999905,701080.20000005,701074.1,701090.7,714717.0999999,714717.29999995,2024-05-13T12:22:00Z,714732.4,NULL,Inhalt,yaliyomo,d,NA,NA,NA,yumuyemi,NA,NA,4,NA,NA,NA,NA,NA,NA,NA,NA,NA,NA,NA,NA,NA,NA,NA,NA,NA,NA,NA
8c8e8,"""Richtig""-Screen",canvas.Screen,3_0_4_0_2_0_1,NA,NA,skipped,NA,714720.29999995,NA,NA,714717.0999999,714720.39999986,2024-05-13T12:22:00Z,714732.4,NULL,Inhalt,yaliyomo,d,NA,NA,NA,NA,sd,NA,4,NA,NA,NA,NA,NA,NA,NA,NA,NA,NA,NA,NA,NA,NA,NA,NA,NA,NA,NA
8c8e8,"""Falsch""-Screen",canvas.Screen,3_0_4_0_2_0_2,NA,NA,timeout,4997,714721.20000005,714716,714732.4,719712.6,719713,2024-05-13T12:22:05Z,719729.4,NULL,Inhalt,yaliyomo,d,NA,NA,NA,NA,sd,0,4,NA,NA,NA,NA,NA,NA,NA,NA,NA,NA,NA,NA,NA,NA,NA,NA,NA,NA,NA
8c8e8,deep,flow.Sequence,3_0_4_0_2_0,NA,NA,completion,18621.9,701080.20000005,701074.1,701090.7,719712.6,719713.0999999,2024-05-13T12:22:05Z,719729.4,NULL,Inhalt,yaliyomo,d,NA,NA,NA,NA,sd,NA,4,NA,NA,NA,NA,NA,NA,NA,NA,NA,NA,NA,NA,NA,NA,NA,NA,NA,NA,NA
8c8e8,shallow,flow.Sequence,3_0_4_0_2_1,NA,NA,skipped,NA,719713.0999999,NA,NA,719712.6,719713.0999999,2024-05-13T12:22:05Z,719729.4,NULL,Inhalt,yaliyomo,d,NA,NA,NA,NA,sd,NA,4,NA,NA,NA,NA,NA,NA,NA,NA,NA,NA,NA,NA,NA,NA,NA,NA,NA,NA,NA
8c8e8,task,flow.Sequence,3_0_4_0_2,NA,NA,completion,18621.9,701080.20000005,701074.1,701090.7,719712.6,719713.20000005,2024-05-13T12:22:05Z,719729.4,NULL,Inhalt,yaliyomo,d,NA,NA,NA,NA,sd,NA,4,NA,NA,NA,NA,NA,NA,NA,NA,NA,NA,NA,NA,NA,NA,NA,NA,NA,NA,NA
8c8e8,Deep Question,html.Page,3_0_4_0_3_0_0,NA,NA,form submission,5179.9999998569,719713.29999995,719712.6,719729.4,724909.39999986,724909.5999999,2024-05-13T12:22:10Z,724926.9,NULL,Vermutung,udhanifu,d,NA,NA,NA,k,NA,NA,4,NA,NA,NA,NA,NA,NA,NA,NA,NA,NA,NA,NA,NA,NA,NA,NA,NA,NA,NA
8c8e8,"""Richtig""-Screen",canvas.Screen,3_0_4_0_3_0_1,NA,NA,skipped,NA,724912.5,NA,NA,724909.39999986,724912.5999999,2024-05-13T12:22:10Z,724926.9,NULL,Vermutung,udhanifu,d,NA,NA,NA,NA,sd,NA,4,NA,NA,NA,NA,NA,NA,NA,NA,NA,NA,NA,NA,NA,NA,NA,NA,NA,NA,NA
8c8e8,"""Falsch""-Screen",canvas.Screen,3_0_4_0_3_0_2,NA,NA,timeout,4996.2999999999,724913.29999995,724909.42,724926.9,729906.3,729907.0999999,2024-05-13T12:22:15Z,729923.2,NULL,Vermutung,udhanifu,d,NA,NA,NA,NA,sd,0,4,NA,NA,NA,NA,NA,NA,NA,NA,NA,NA,NA,NA,NA,NA,NA,NA,NA,NA,NA
8c8e8,deep,flow.Sequence,3_0_4_0_3_0,NA,NA,completion,10176.9,719713.20000005,719712.6,719729.4,729906.3,729907.29999995,2024-05-13T12:22:15Z,729923.2,NULL,Vermutung,udhanifu,d,NA,NA,NA,NA,sd,NA,4,NA,NA,NA,NA,NA,NA,NA,NA,NA,NA,NA,NA,NA,NA,NA,NA,NA,NA,NA
8c8e8,shallow,flow.Sequence,3_0_4_0_3_1,NA,NA,skipped,NA,729907.5,NA,NA,729906.3,729907.5999999,2024-05-13T12:22:15Z,729923.2,NULL,Vermutung,udhanifu,d,NA,NA,NA,NA,sd,NA,4,NA,NA,NA,NA,NA,NA,NA,NA,NA,NA,NA,NA,NA,NA,NA,NA,NA,NA,NA
8c8e8,task,flow.Sequence,3_0_4_0_3,NA,NA,completion,10176.9,719713.20000005,719712.6,719729.4,729906.3,729907.79999995,2024-05-13T12:22:15Z,729923.2,NULL,Vermutung,udhanifu,d,NA,NA,NA,NA,sd,NA,4,NA,NA,NA,NA,NA,NA,NA,NA,NA,NA,NA,NA,NA,NA,NA,NA,NA,NA,NA
8c8e8,deep,flow.Sequence,3_0_4_0_4_0,NA,NA,skipped,NA,729907.89999986,NA,NA,729906.3,729908,2024-05-13T12:22:15Z,729923.2,NULL,Toleranz,kuvumiliana,s,maombolezo,ujasusi,mchekeshaji,NA,sd,NA,4,NA,NA,NA,NA,NA,NA,NA,NA,NA,NA,NA,NA,NA,NA,NA,NA,NA,NA,NA
8c8e8,Shallow Question,html.Page,3_0_4_0_4_1_0,NA,NA,form submission,8517.8,729908.0999999,729906.3,729923.2,738441,738441.20000005,2024-05-13T12:22:24Z,738450.8,NULL,Toleranz,kuvumiliana,s,maombolezo,ujasusi,mchekeshaji,kuvumiliana,NA,NA,4,NA,NA,NA,NA,NA,NA,NA,NA,NA,NA,NA,NA,NA,NA,NA,NA,NA,NA,NA
8c8e8,"""Richtig""-Screen",canvas.Screen,3_0_4_0_4_1_1,NA,NA,timeout,4997,738444,738434.7,738450.8,743431.4,743432.79999995,2024-05-13T12:22:29Z,743447.8,NULL,Toleranz,kuvumiliana,s,maombolezo,ujasusi,mchekeshaji,NA,sd,1,4,NA,NA,NA,NA,NA,NA,NA,NA,NA,NA,NA,NA,NA,NA,NA,NA,NA,NA,NA
8c8e8,"""Falsch""-Screen",canvas.Screen,3_0_4_0_4_1_2,NA,NA,skipped,NA,743438.20000005,NA,NA,743431.4,743438.5,2024-05-13T12:22:29Z,743447.8,NULL,Toleranz,kuvumiliana,s,maombolezo,ujasusi,mchekeshaji,NA,sd,NA,4,NA,NA,NA,NA,NA,NA,NA,NA,NA,NA,NA,NA,NA,NA,NA,NA,NA,NA,NA
8c8e8,shallow,flow.Sequence,3_0_4_0_4_1,NA,NA,completion,13508.2,729908.0999999,729906.3,729923.2,743431.4,743438.79999995,2024-05-13T12:22:29Z,743447.8,NULL,Toleranz,kuvumiliana,s,maombolezo,ujasusi,mchekeshaji,NA,sd,NA,4,NA,NA,NA,NA,NA,NA,NA,NA,NA,NA,NA,NA,NA,NA,NA,NA,NA,NA,NA
8c8e8,task,flow.Sequence,3_0_4_0_4,NA,NA,completion,13508.2,729907.89999986,729906.3,729923.2,743431.4,743439,2024-05-13T12:22:29Z,743447.8,NULL,Toleranz,kuvumiliana,s,maombolezo,ujasusi,mchekeshaji,NA,sd,NA,4,NA,NA,NA,NA,NA,NA,NA,NA,NA,NA,NA,NA,NA,NA,NA,NA,NA,NA,NA
8c8e8,Deep Question,html.Page,3_0_4_0_5_0_0,NA,NA,form submission,11443.599999857,743439.20000005,743431.4,743447.8,754891.39999986,754891.5999999,2024-05-13T12:22:40Z,754907.9,NULL,Beweis,ushahidi,d,NA,NA,NA,ushadara,NA,NA,4,NA,NA,NA,NA,NA,NA,NA,NA,NA,NA,NA,NA,NA,NA,NA,NA,NA,NA,NA
8c8e8,"""Richtig""-Screen",canvas.Screen,3_0_4_0_5_0_1,NA,NA,skipped,NA,754894.5999999,NA,NA,754891.39999986,754894.79999995,2024-05-13T12:22:40Z,754907.9,NULL,Beweis,ushahidi,d,NA,NA,NA,NA,sd,NA,4,NA,NA,NA,NA,NA,NA,NA,NA,NA,NA,NA,NA,NA,NA,NA,NA,NA,NA,NA
8c8e8,"""Falsch""-Screen",canvas.Screen,3_0_4_0_5_0_2,NA,NA,timeout,4997,754895.29999995,754891.258,754907.9,759888.3,759888.70000005,2024-05-13T12:22:45Z,759904.9,NULL,Beweis,ushahidi,d,NA,NA,NA,NA,sd,0,4,NA,NA,NA,NA,NA,NA,NA,NA,NA,NA,NA,NA,NA,NA,NA,NA,NA,NA,NA
8c8e8,deep,flow.Sequence,3_0_4_0_5_0,NA,NA,completion,16440.5,743439.0999999,743431.4,743447.8,759888.3,759888.79999995,2024-05-13T12:22:45Z,759904.9,NULL,Beweis,ushahidi,d,NA,NA,NA,NA,sd,NA,4,NA,NA,NA,NA,NA,NA,NA,NA,NA,NA,NA,NA,NA,NA,NA,NA,NA,NA,NA
8c8e8,shallow,flow.Sequence,3_0_4_0_5_1,NA,NA,skipped,NA,759888.89999986,NA,NA,759888.3,759888.89999986,2024-05-13T12:22:45Z,759904.9,NULL,Beweis,ushahidi,d,NA,NA,NA,NA,sd,NA,4,NA,NA,NA,NA,NA,NA,NA,NA,NA,NA,NA,NA,NA,NA,NA,NA,NA,NA,NA
8c8e8,task,flow.Sequence,3_0_4_0_5,NA,NA,completion,16440.5,743439,743431.4,743447.8,759888.3,759888.89999986,2024-05-13T12:22:45Z,759904.9,NULL,Beweis,ushahidi,d,NA,NA,NA,NA,sd,NA,4,NA,NA,NA,NA,NA,NA,NA,NA,NA,NA,NA,NA,NA,NA,NA,NA,NA,NA,NA
8c8e8,deep,flow.Sequence,3_0_4_0_6_0,NA,NA,skipped,NA,759889,NA,NA,759888.3,759889,2024-05-13T12:22:45Z,759904.9,NULL,Sympathie,mapendano,s,dhamiria,fungamano,maazimio,NA,sd,NA,4,NA,NA,NA,NA,NA,NA,NA,NA,NA,NA,NA,NA,NA,NA,NA,NA,NA,NA,NA
8c8e8,Shallow Question,html.Page,3_0_4_0_6_1_0,NA,NA,form submission,5349.9999998569,759889.0999999,759888.3,759904.9,765254.89999986,765255.0999999,2024-05-13T12:22:50Z,765268.3,NULL,Sympathie,mapendano,s,dhamiria,fungamano,maazimio,mapendano,NA,NA,4,NA,NA,NA,NA,NA,NA,NA,NA,NA,NA,NA,NA,NA,NA,NA,NA,NA,NA,NA
8c8e8,"""Richtig""-Screen",canvas.Screen,3_0_4_0_6_1_1,NA,NA,timeout,4996.7,765258,765251.818,765268.3,770248.4,770248.89999986,2024-05-13T12:22:55Z,770265,NULL,Sympathie,mapendano,s,dhamiria,fungamano,maazimio,NA,sd,1,4,NA,NA,NA,NA,NA,NA,NA,NA,NA,NA,NA,NA,NA,NA,NA,NA,NA,NA,NA
8c8e8,"""Falsch""-Screen",canvas.Screen,3_0_4_0_6_1_2,NA,NA,skipped,NA,770250.20000005,NA,NA,770248.4,770250.39999986,2024-05-13T12:22:55Z,770265,NULL,Sympathie,mapendano,s,dhamiria,fungamano,maazimio,NA,sd,NA,4,NA,NA,NA,NA,NA,NA,NA,NA,NA,NA,NA,NA,NA,NA,NA,NA,NA,NA,NA
8c8e8,shallow,flow.Sequence,3_0_4_0_6_1,NA,NA,completion,10343.5,759889.0999999,759888.3,759904.9,770248.4,770250.5,2024-05-13T12:22:55Z,770265,NULL,Sympathie,mapendano,s,dhamiria,fungamano,maazimio,NA,sd,NA,4,NA,NA,NA,NA,NA,NA,NA,NA,NA,NA,NA,NA,NA,NA,NA,NA,NA,NA,NA
8c8e8,task,flow.Sequence,3_0_4_0_6,NA,NA,completion,10343.5,759888.89999986,759888.3,759904.9,770248.4,770250.5,2024-05-13T12:22:55Z,770265,NULL,Sympathie,mapendano,s,dhamiria,fungamano,maazimio,NA,sd,NA,4,NA,NA,NA,NA,NA,NA,NA,NA,NA,NA,NA,NA,NA,NA,NA,NA,NA,NA,NA
8c8e8,Deep Question,html.Page,3_0_4_0_7_0_0,NA,NA,form submission,7440.2999999523,770250.5999999,770248.4,770265,777705.29999995,777705.5999999,2024-05-13T12:23:03Z,777710.1,NULL,Polizist,msongora,d,NA,NA,NA,g,NA,NA,4,NA,NA,NA,NA,NA,NA,NA,NA,NA,NA,NA,NA,NA,NA,NA,NA,NA,NA,NA
8c8e8,"""Richtig""-Screen",canvas.Screen,3_0_4_0_7_0_1,NA,NA,skipped,NA,777708.5999999,NA,NA,777705.29999995,777708.79999995,2024-05-13T12:23:03Z,777710.1,NULL,Polizist,msongora,d,NA,NA,NA,NA,sd,NA,4,NA,NA,NA,NA,NA,NA,NA,NA,NA,NA,NA,NA,NA,NA,NA,NA,NA,NA,NA
8c8e8,"""Falsch""-Screen",canvas.Screen,3_0_4_0_7_0_2,NA,NA,timeout,4997.2000000001,777709.29999995,777694.086,777710.1,782690.7,782691.89999986,2024-05-13T12:23:08Z,782707.3,NULL,Polizist,msongora,d,NA,NA,NA,NA,sd,0,4,NA,NA,NA,NA,NA,NA,NA,NA,NA,NA,NA,NA,NA,NA,NA,NA,NA,NA,NA
8c8e8,deep,flow.Sequence,3_0_4_0_7_0,NA,NA,completion,12425.7,770250.5999999,770248.4,770265,782690.7,782692.29999995,2024-05-13T12:23:08Z,782707.3,NULL,Polizist,msongora,d,NA,NA,NA,NA,sd,NA,4,NA,NA,NA,NA,NA,NA,NA,NA,NA,NA,NA,NA,NA,NA,NA,NA,NA,NA,NA
8c8e8,shallow,flow.Sequence,3_0_4_0_7_1,NA,NA,skipped,NA,782692.39999986,NA,NA,782690.7,782692.5,2024-05-13T12:23:08Z,782707.3,NULL,Polizist,msongora,d,NA,NA,NA,NA,sd,NA,4,NA,NA,NA,NA,NA,NA,NA,NA,NA,NA,NA,NA,NA,NA,NA,NA,NA,NA,NA
8c8e8,task,flow.Sequence,3_0_4_0_7,NA,NA,completion,12425.7,770250.5,770248.4,770265,782690.7,782692.70000005,2024-05-13T12:23:08Z,782707.3,NULL,Polizist,msongora,d,NA,NA,NA,NA,sd,NA,4,NA,NA,NA,NA,NA,NA,NA,NA,NA,NA,NA,NA,NA,NA,NA,NA,NA,NA,NA
8c8e8,block,flow.Loop,3_0_4_0,NA,NA,completion,107350.026,675351.29999995,675340.674,675340.674,782690.7,782693,2024-05-13T12:23:08Z,782707.3,NULL,NA,NA,NA,NA,NA,NA,NA,sd,NA,4,NA,NA,NA,NA,NA,NA,NA,NA,NA,NA,NA,NA,NA,NA,NA,NA,NA,NA,NA
8c8e8,weiter,canvas.Screen,3_0_4_1,sdf,keypress(Space),response,1330.0999998569,782693.0999999,782690.7,782707.3,784037.39999986,784038.29999995,2024-05-13T12:23:09Z,784056.754,NULL,NA,NA,NA,NA,NA,NA,NA,sd,NA,4,NA,NA,NA,NA,NA,NA,NA,NA,NA,NA,NA,NA,NA,NA,NA,NA,NA,NA,NA
8c8e8,check continue,flow.Sequence,3_0_4,NA,NA,completion,108696.72599986,675351.29999995,675340.674,675340.674,784037.39999986,784038.5999999,2024-05-13T12:23:09Z,784056.754,NULL,NA,NA,NA,NA,NA,NA,NA,sd,NA,4,NA,NA,NA,NA,NA,NA,NA,NA,NA,NA,NA,NA,NA,NA,NA,NA,NA,NA,NA
8c8e8,deep,flow.Sequence,3_0_5_0_0_0,NA,NA,skipped,NA,784057.0999999,NA,NA,784037.39999986,784057.20000005,2024-05-13T12:23:09Z,784056.754,NULL,Toleranz,kuvumiliana,s,maombolezo,ujasusi,mchekeshaji,NA,sdf,NA,5,NA,NA,NA,NA,NA,NA,NA,NA,NA,NA,NA,NA,NA,NA,NA,NA,NA,NA,NA
8c8e8,Shallow Question,html.Page,3_0_5_0_0_1_0,NA,NA,form submission,5904.0459999524,784057.5,784056.754,784056.754,789960.79999995,789961.0999999,2024-05-13T12:23:15Z,789969.6,NULL,Toleranz,kuvumiliana,s,maombolezo,ujasusi,mchekeshaji,kuvumiliana,NA,NA,5,NA,NA,NA,NA,NA,NA,NA,NA,NA,NA,NA,NA,NA,NA,NA,NA,NA,NA,NA
8c8e8,"""Richtig""-Screen",canvas.Screen,3_0_5_0_0_1_1,NA,NA,timeout,4996.7000000001,789963.79999995,789953.348,789969.6,794949.7,794951.79999995,2024-05-13T12:23:20Z,794966.3,NULL,Toleranz,kuvumiliana,s,maombolezo,ujasusi,mchekeshaji,NA,sdf,1,5,NA,NA,NA,NA,NA,NA,NA,NA,NA,NA,NA,NA,NA,NA,NA,NA,NA,NA,NA
8c8e8,"""Falsch""-Screen",canvas.Screen,3_0_5_0_0_1_2,NA,NA,skipped,NA,794954.70000005,NA,NA,794949.7,794954.79999995,2024-05-13T12:23:20Z,794966.3,NULL,Toleranz,kuvumiliana,s,maombolezo,ujasusi,mchekeshaji,NA,sdf,NA,5,NA,NA,NA,NA,NA,NA,NA,NA,NA,NA,NA,NA,NA,NA,NA,NA,NA,NA,NA
8c8e8,shallow,flow.Sequence,3_0_5_0_0_1,NA,NA,completion,10892.946,784057.5,784056.754,784056.754,794949.7,794955,2024-05-13T12:23:20Z,794966.3,NULL,Toleranz,kuvumiliana,s,maombolezo,ujasusi,mchekeshaji,NA,sdf,NA,5,NA,NA,NA,NA,NA,NA,NA,NA,NA,NA,NA,NA,NA,NA,NA,NA,NA,NA,NA
8c8e8,task,flow.Sequence,3_0_5_0_0,NA,NA,completion,10892.946,784057,784056.754,784056.754,794949.7,794955,2024-05-13T12:23:20Z,794966.3,NULL,Toleranz,kuvumiliana,s,maombolezo,ujasusi,mchekeshaji,NA,sdf,NA,5,NA,NA,NA,NA,NA,NA,NA,NA,NA,NA,NA,NA,NA,NA,NA,NA,NA,NA,NA
8c8e8,deep,flow.Sequence,3_0_5_0_1_0,NA,NA,skipped,NA,794955.0999999,NA,NA,794949.7,794955.29999995,2024-05-13T12:23:20Z,794966.3,NULL,Sympathie,mapendano,s,dhamiria,fungamano,maazimio,NA,sdf,NA,5,NA,NA,NA,NA,NA,NA,NA,NA,NA,NA,NA,NA,NA,NA,NA,NA,NA,NA,NA
8c8e8,Shallow Question,html.Page,3_0_5_0_1_1_0,NA,NA,form submission,3660.7999999046,794955.29999995,794949.7,794966.3,798627.0999999,798627.29999995,2024-05-13T12:23:24Z,798631.026,NULL,Sympathie,mapendano,s,dhamiria,fungamano,maazimio,mapendano,NA,NA,5,NA,NA,NA,NA,NA,NA,NA,NA,NA,NA,NA,NA,NA,NA,NA,NA,NA,NA,NA
8c8e8,"""Richtig""-Screen",canvas.Screen,3_0_5_0_1_1_1,NA,NA,timeout,4997.174,798630,798631.026,798631.026,803611.3,803612.0999999,2024-05-13T12:23:29Z,803628.2,NULL,Sympathie,mapendano,s,dhamiria,fungamano,maazimio,NA,sdf,1,5,NA,NA,NA,NA,NA,NA,NA,NA,NA,NA,NA,NA,NA,NA,NA,NA,NA,NA,NA
8c8e8,"""Falsch""-Screen",canvas.Screen,3_0_5_0_1_1_2,NA,NA,skipped,NA,803616.70000005,NA,NA,803611.3,803616.79999995,2024-05-13T12:23:29Z,803628.2,NULL,Sympathie,mapendano,s,dhamiria,fungamano,maazimio,NA,sdf,NA,5,NA,NA,NA,NA,NA,NA,NA,NA,NA,NA,NA,NA,NA,NA,NA,NA,NA,NA,NA
8c8e8,shallow,flow.Sequence,3_0_5_0_1_1,NA,NA,completion,8645,794955.29999995,794949.7,794966.3,803611.3,803616.79999995,2024-05-13T12:23:29Z,803628.2,NULL,Sympathie,mapendano,s,dhamiria,fungamano,maazimio,NA,sdf,NA,5,NA,NA,NA,NA,NA,NA,NA,NA,NA,NA,NA,NA,NA,NA,NA,NA,NA,NA,NA
8c8e8,task,flow.Sequence,3_0_5_0_1,NA,NA,completion,8645,794955.0999999,794949.7,794966.3,803611.3,803616.89999986,2024-05-13T12:23:29Z,803628.2,NULL,Sympathie,mapendano,s,dhamiria,fungamano,maazimio,NA,sdf,NA,5,NA,NA,NA,NA,NA,NA,NA,NA,NA,NA,NA,NA,NA,NA,NA,NA,NA,NA,NA
8c8e8,deep,flow.Sequence,3_0_5_0_2_0,NA,NA,skipped,NA,803616.89999986,NA,NA,803611.3,803616.89999986,2024-05-13T12:23:29Z,803628.2,NULL,Annäherung,maegesho,s,madahili,kujiamini,mapendekezo,NA,sdf,NA,5,NA,NA,NA,NA,NA,NA,NA,NA,NA,NA,NA,NA,NA,NA,NA,NA,NA,NA,NA
8c8e8,Shallow Question,html.Page,3_0_5_0_2_1_0,NA,NA,form submission,9090.8999999047,803617,803611.3,803628.2,812719.0999999,812719.29999995,2024-05-13T12:23:38Z,812722.926,NULL,Annäherung,maegesho,s,madahili,kujiamini,mapendekezo,maegesho,NA,NA,5,NA,NA,NA,NA,NA,NA,NA,NA,NA,NA,NA,NA,NA,NA,NA,NA,NA,NA,NA
8c8e8,"""Richtig""-Screen",canvas.Screen,3_0_5_0_2_1_1,NA,NA,timeout,4996.174,812722.20000005,812722.926,812722.926,817702.8,817703.70000005,2024-05-13T12:23:43Z,817719.1,NULL,Annäherung,maegesho,s,madahili,kujiamini,mapendekezo,NA,sdf,1,5,NA,NA,NA,NA,NA,NA,NA,NA,NA,NA,NA,NA,NA,NA,NA,NA,NA,NA,NA
8c8e8,"""Falsch""-Screen",canvas.Screen,3_0_5_0_2_1_2,NA,NA,skipped,NA,817708.89999986,NA,NA,817702.8,817709,2024-05-13T12:23:43Z,817719.1,NULL,Annäherung,maegesho,s,madahili,kujiamini,mapendekezo,NA,sdf,NA,5,NA,NA,NA,NA,NA,NA,NA,NA,NA,NA,NA,NA,NA,NA,NA,NA,NA,NA,NA
8c8e8,shallow,flow.Sequence,3_0_5_0_2_1,NA,NA,completion,14074.6,803617,803611.3,803628.2,817702.8,817709.0999999,2024-05-13T12:23:43Z,817719.1,NULL,Annäherung,maegesho,s,madahili,kujiamini,mapendekezo,NA,sdf,NA,5,NA,NA,NA,NA,NA,NA,NA,NA,NA,NA,NA,NA,NA,NA,NA,NA,NA,NA,NA
8c8e8,task,flow.Sequence,3_0_5_0_2,NA,NA,completion,14074.6,803616.89999986,803611.3,803628.2,817702.8,817709.0999999,2024-05-13T12:23:43Z,817719.1,NULL,Annäherung,maegesho,s,madahili,kujiamini,mapendekezo,NA,sdf,NA,5,NA,NA,NA,NA,NA,NA,NA,NA,NA,NA,NA,NA,NA,NA,NA,NA,NA,NA,NA
8c8e8,Deep Question,html.Page,3_0_5_0_3_0_0,NA,NA,form submission,14570.499999905,817709.20000005,817702.8,817719.1,832289.5999999,832289.70000005,2024-05-13T12:23:57Z,832294.156,NULL,Inhalt,yaliyomo,d,NA,NA,NA,yaloyemi,NA,NA,5,NA,NA,NA,NA,NA,NA,NA,NA,NA,NA,NA,NA,NA,NA,NA,NA,NA,NA,NA
8c8e8,"""Richtig""-Screen",canvas.Screen,3_0_5_0_3_0_1,NA,NA,skipped,NA,832292.70000005,NA,NA,832289.5999999,832292.79999995,2024-05-13T12:23:57Z,832294.156,NULL,Inhalt,yaliyomo,d,NA,NA,NA,NA,sdf,NA,5,NA,NA,NA,NA,NA,NA,NA,NA,NA,NA,NA,NA,NA,NA,NA,NA,NA,NA,NA
8c8e8,"""Falsch""-Screen",canvas.Screen,3_0_5_0_3_0_2,NA,NA,timeout,4996.6440000001,832293.5,832294.156,832294.156,837274.2,837274.79999995,2024-05-13T12:24:02Z,837290.8,NULL,Inhalt,yaliyomo,d,NA,NA,NA,NA,sdf,0,5,NA,NA,NA,NA,NA,NA,NA,NA,NA,NA,NA,NA,NA,NA,NA,NA,NA,NA,NA
8c8e8,deep,flow.Sequence,3_0_5_0_3_0,NA,NA,completion,19555.1,817709.20000005,817702.8,817719.1,837274.2,837275,2024-05-13T12:24:02Z,837290.8,NULL,Inhalt,yaliyomo,d,NA,NA,NA,NA,sdf,NA,5,NA,NA,NA,NA,NA,NA,NA,NA,NA,NA,NA,NA,NA,NA,NA,NA,NA,NA,NA
8c8e8,shallow,flow.Sequence,3_0_5_0_3_1,NA,NA,skipped,NA,837275.20000005,NA,NA,837274.2,837275.29999995,2024-05-13T12:24:02Z,837290.8,NULL,Inhalt,yaliyomo,d,NA,NA,NA,NA,sdf,NA,5,NA,NA,NA,NA,NA,NA,NA,NA,NA,NA,NA,NA,NA,NA,NA,NA,NA,NA,NA
8c8e8,task,flow.Sequence,3_0_5_0_3,NA,NA,completion,19555.1,817709.20000005,817702.8,817719.1,837274.2,837275.39999986,2024-05-13T12:24:02Z,837290.8,NULL,Inhalt,yaliyomo,d,NA,NA,NA,NA,sdf,NA,5,NA,NA,NA,NA,NA,NA,NA,NA,NA,NA,NA,NA,NA,NA,NA,NA,NA,NA,NA
8c8e8,Deep Question,html.Page,3_0_5_0_4_0_0,NA,NA,form submission,11576.7,837275.5,837274.2,837290.8,848867.5,848867.70000005,2024-05-13T12:24:14Z,848883.9,NULL,Beweis,ushahidi,d,NA,NA,NA,udsahiri,NA,NA,5,NA,NA,NA,NA,NA,NA,NA,NA,NA,NA,NA,NA,NA,NA,NA,NA,NA,NA,NA
8c8e8,"""Richtig""-Screen",canvas.Screen,3_0_5_0_4_0_1,NA,NA,skipped,NA,848869.39999986,NA,NA,848867.5,848869.5,2024-05-13T12:24:14Z,848883.9,NULL,Beweis,ushahidi,d,NA,NA,NA,NA,sdf,NA,5,NA,NA,NA,NA,NA,NA,NA,NA,NA,NA,NA,NA,NA,NA,NA,NA,NA,NA,NA
8c8e8,"""Falsch""-Screen",canvas.Screen,3_0_5_0_4_0_2,NA,NA,timeout,4996.7999999999,848870,848867.48,848883.9,853864.1,853865.29999995,2024-05-13T12:24:19Z,853880.7,NULL,Beweis,ushahidi,d,NA,NA,NA,NA,sdf,0,5,NA,NA,NA,NA,NA,NA,NA,NA,NA,NA,NA,NA,NA,NA,NA,NA,NA,NA,NA
8c8e8,deep,flow.Sequence,3_0_5_0_4_0,NA,NA,completion,16573.3,837275.5,837274.2,837290.8,853864.1,853865.70000005,2024-05-13T12:24:19Z,853880.7,NULL,Beweis,ushahidi,d,NA,NA,NA,NA,sdf,NA,5,NA,NA,NA,NA,NA,NA,NA,NA,NA,NA,NA,NA,NA,NA,NA,NA,NA,NA,NA
8c8e8,shallow,flow.Sequence,3_0_5_0_4_1,NA,NA,skipped,NA,853865.79999995,NA,NA,853864.1,853865.89999986,2024-05-13T12:24:19Z,853880.7,NULL,Beweis,ushahidi,d,NA,NA,NA,NA,sdf,NA,5,NA,NA,NA,NA,NA,NA,NA,NA,NA,NA,NA,NA,NA,NA,NA,NA,NA,NA,NA
8c8e8,task,flow.Sequence,3_0_5_0_4,NA,NA,completion,16573.3,837275.39999986,837274.2,837290.8,853864.1,853866.0999999,2024-05-13T12:24:19Z,853880.7,NULL,Beweis,ushahidi,d,NA,NA,NA,NA,sdf,NA,5,NA,NA,NA,NA,NA,NA,NA,NA,NA,NA,NA,NA,NA,NA,NA,NA,NA,NA,NA
8c8e8,Deep Question,html.Page,3_0_5_0_5_0_0,NA,NA,form submission,9882.5999999524,853866.29999995,853864.1,853880.7,863763.29999995,863763.5,2024-05-13T12:24:29Z,863774.3,NULL,Vermutung,udhanifu,d,NA,NA,NA,g,NA,NA,5,NA,NA,NA,NA,NA,NA,NA,NA,NA,NA,NA,NA,NA,NA,NA,NA,NA,NA,NA
8c8e8,"""Richtig""-Screen",canvas.Screen,3_0_5_0_5_0_1,NA,NA,skipped,NA,863766.39999986,NA,NA,863763.29999995,863766.5999999,2024-05-13T12:24:29Z,863774.3,NULL,Vermutung,udhanifu,d,NA,NA,NA,NA,sdf,NA,5,NA,NA,NA,NA,NA,NA,NA,NA,NA,NA,NA,NA,NA,NA,NA,NA,NA,NA,NA
8c8e8,"""Falsch""-Screen",canvas.Screen,3_0_5_0_5_0_2,NA,NA,timeout,4997,863767.20000005,863758.226,863774.3,868755,868755.79999995,2024-05-13T12:24:34Z,868771.3,NULL,Vermutung,udhanifu,d,NA,NA,NA,NA,sdf,0,5,NA,NA,NA,NA,NA,NA,NA,NA,NA,NA,NA,NA,NA,NA,NA,NA,NA,NA,NA
8c8e8,deep,flow.Sequence,3_0_5_0_5_0,NA,NA,completion,14874.3,853866.29999995,853864.1,853880.7,868755,868756.0999999,2024-05-13T12:24:34Z,868771.3,NULL,Vermutung,udhanifu,d,NA,NA,NA,NA,sdf,NA,5,NA,NA,NA,NA,NA,NA,NA,NA,NA,NA,NA,NA,NA,NA,NA,NA,NA,NA,NA
8c8e8,shallow,flow.Sequence,3_0_5_0_5_1,NA,NA,skipped,NA,868756.20000005,NA,NA,868755,868756.29999995,2024-05-13T12:24:34Z,868771.3,NULL,Vermutung,udhanifu,d,NA,NA,NA,NA,sdf,NA,5,NA,NA,NA,NA,NA,NA,NA,NA,NA,NA,NA,NA,NA,NA,NA,NA,NA,NA,NA
8c8e8,task,flow.Sequence,3_0_5_0_5,NA,NA,completion,14874.3,853866.20000005,853864.1,853880.7,868755,868756.5999999,2024-05-13T12:24:34Z,868771.3,NULL,Vermutung,udhanifu,d,NA,NA,NA,NA,sdf,NA,5,NA,NA,NA,NA,NA,NA,NA,NA,NA,NA,NA,NA,NA,NA,NA,NA,NA,NA,NA
8c8e8,Deep Question,html.Page,3_0_5_0_6_0_0,NA,NA,form submission,8506.0999998569,868756.89999986,868755,868771.3,877277.39999986,877277.5999999,2024-05-13T12:24:42Z,877282.7,NULL,Polizist,msongora,d,NA,NA,NA,msongoro,NA,NA,5,NA,NA,NA,NA,NA,NA,NA,NA,NA,NA,NA,NA,NA,NA,NA,NA,NA,NA,NA
8c8e8,"""Richtig""-Screen",canvas.Screen,3_0_5_0_6_0_1,NA,NA,skipped,NA,877280.5,NA,NA,877277.39999986,877280.5999999,2024-05-13T12:24:42Z,877282.7,NULL,Polizist,msongora,d,NA,NA,NA,NA,sdf,NA,5,NA,NA,NA,NA,NA,NA,NA,NA,NA,NA,NA,NA,NA,NA,NA,NA,NA,NA,NA
8c8e8,"""Falsch""-Screen",canvas.Screen,3_0_5_0_6_0_2,NA,NA,timeout,4997.4,877281.29999995,877266.718,877282.7,882263.4,882264.39999986,2024-05-13T12:24:47Z,882280.1,NULL,Polizist,msongora,d,NA,NA,NA,NA,sdf,0,5,NA,NA,NA,NA,NA,NA,NA,NA,NA,NA,NA,NA,NA,NA,NA,NA,NA,NA,NA
8c8e8,deep,flow.Sequence,3_0_5_0_6_0,NA,NA,completion,13492.1,868756.79999995,868755,868771.3,882263.4,882264.79999995,2024-05-13T12:24:47Z,882280.1,NULL,Polizist,msongora,d,NA,NA,NA,NA,sdf,NA,5,NA,NA,NA,NA,NA,NA,NA,NA,NA,NA,NA,NA,NA,NA,NA,NA,NA,NA,NA
8c8e8,shallow,flow.Sequence,3_0_5_0_6_1,NA,NA,skipped,NA,882265,NA,NA,882263.4,882265.0999999,2024-05-13T12:24:47Z,882280.1,NULL,Polizist,msongora,d,NA,NA,NA,NA,sdf,NA,5,NA,NA,NA,NA,NA,NA,NA,NA,NA,NA,NA,NA,NA,NA,NA,NA,NA,NA,NA
8c8e8,task,flow.Sequence,3_0_5_0_6,NA,NA,completion,13492.1,868756.79999995,868755,868771.3,882263.4,882265.29999995,2024-05-13T12:24:47Z,882280.1,NULL,Polizist,msongora,d,NA,NA,NA,NA,sdf,NA,5,NA,NA,NA,NA,NA,NA,NA,NA,NA,NA,NA,NA,NA,NA,NA,NA,NA,NA,NA
8c8e8,deep,flow.Sequence,3_0_5_0_7_0,NA,NA,skipped,NA,882265.39999986,NA,NA,882263.4,882265.5,2024-05-13T12:24:47Z,882280.1,NULL,Schlange,foleni,s,uvumilivu,uteuzi,muuzaji,NA,sdf,NA,5,NA,NA,NA,NA,NA,NA,NA,NA,NA,NA,NA,NA,NA,NA,NA,NA,NA,NA,NA
8c8e8,Shallow Question,html.Page,3_0_5_0_7_1_0,NA,NA,form submission,3892.6999999523,882265.70000005,882263.4,882280.1,886172.79999995,886173.0999999,2024-05-13T12:24:51Z,886178.184,NULL,Schlange,foleni,s,uvumilivu,uteuzi,muuzaji,foleni,NA,NA,5,NA,NA,NA,NA,NA,NA,NA,NA,NA,NA,NA,NA,NA,NA,NA,NA,NA,NA,NA
8c8e8,"""Richtig""-Screen",canvas.Screen,3_0_5_0_7_1_1,NA,NA,timeout,4996.616,886176,886178.184,886178.184,891157.8,891158.79999995,2024-05-13T12:24:56Z,891174.8,NULL,Schlange,foleni,s,uvumilivu,uteuzi,muuzaji,NA,sdf,1,5,NA,NA,NA,NA,NA,NA,NA,NA,NA,NA,NA,NA,NA,NA,NA,NA,NA,NA,NA
8c8e8,"""Falsch""-Screen",canvas.Screen,3_0_5_0_7_1_2,NA,NA,skipped,NA,891164.0999999,NA,NA,891157.8,891164.20000005,2024-05-13T12:24:56Z,891174.8,NULL,Schlange,foleni,s,uvumilivu,uteuzi,muuzaji,NA,sdf,NA,5,NA,NA,NA,NA,NA,NA,NA,NA,NA,NA,NA,NA,NA,NA,NA,NA,NA,NA,NA
8c8e8,shallow,flow.Sequence,3_0_5_0_7_1,NA,NA,completion,8877.7000000001,882265.70000005,882263.4,882280.1,891157.8,891164.39999986,2024-05-13T12:24:56Z,891174.8,NULL,Schlange,foleni,s,uvumilivu,uteuzi,muuzaji,NA,sdf,NA,5,NA,NA,NA,NA,NA,NA,NA,NA,NA,NA,NA,NA,NA,NA,NA,NA,NA,NA,NA
8c8e8,task,flow.Sequence,3_0_5_0_7,NA,NA,completion,8877.7000000001,882265.39999986,882263.4,882280.1,891157.8,891164.39999986,2024-05-13T12:24:56Z,891174.8,NULL,Schlange,foleni,s,uvumilivu,uteuzi,muuzaji,NA,sdf,NA,5,NA,NA,NA,NA,NA,NA,NA,NA,NA,NA,NA,NA,NA,NA,NA,NA,NA,NA,NA
8c8e8,block,flow.Loop,3_0_5_0,NA,NA,completion,107101.046,784057,784056.754,784056.754,891157.8,891164.5,2024-05-13T12:24:56Z,891174.8,NULL,NA,NA,NA,NA,NA,NA,NA,sdf,NA,5,NA,NA,NA,NA,NA,NA,NA,NA,NA,NA,NA,NA,NA,NA,NA,NA,NA,NA,NA
8c8e8,weiter,canvas.Screen,3_0_5_1,sdf,keypress(Space),response,1475.9000000476,891164.5,891157.8,891174.8,892650.70000005,892651.89999986,2024-05-13T12:24:58Z,892673.3,NULL,NA,NA,NA,NA,NA,NA,NA,sdf,NA,5,NA,NA,NA,NA,NA,NA,NA,NA,NA,NA,NA,NA,NA,NA,NA,NA,NA,NA,NA
8c8e8,check continue,flow.Sequence,3_0_5,NA,NA,completion,108593.94600005,784057,784056.754,784056.754,892650.70000005,892652.20000005,2024-05-13T12:24:58Z,892673.3,NULL,NA,NA,NA,NA,NA,NA,NA,sdf,NA,5,NA,NA,NA,NA,NA,NA,NA,NA,NA,NA,NA,NA,NA,NA,NA,NA,NA,NA,NA
8c8e8,deep,flow.Sequence,3_0_6_0_0_0,NA,NA,skipped,NA,892669.79999995,NA,NA,892650.70000005,892669.79999995,2024-05-13T12:24:58Z,892673.3,NULL,Schlange,foleni,s,uvumilivu,uteuzi,muuzaji,NA,dfs,NA,6,NA,NA,NA,NA,NA,NA,NA,NA,NA,NA,NA,NA,NA,NA,NA,NA,NA,NA,NA
8c8e8,Shallow Question,html.Page,3_0_6_0_0_1_0,NA,NA,form submission,3785.9999999523,892669.79999995,892657.588,892673.3,896459.29999995,896459.5,2024-05-13T12:25:02Z,896471.4,NULL,Schlange,foleni,s,uvumilivu,uteuzi,muuzaji,foleni,NA,NA,6,NA,NA,NA,NA,NA,NA,NA,NA,NA,NA,NA,NA,NA,NA,NA,NA,NA,NA,NA
8c8e8,"""Richtig""-Screen",canvas.Screen,3_0_6_0_0_1_1,NA,NA,timeout,4997.1,896462.5,896455.182,896471.4,901451.7,901452.5999999,2024-05-13T12:25:07Z,901468.5,NULL,Schlange,foleni,s,uvumilivu,uteuzi,muuzaji,NA,dfs,1,6,NA,NA,NA,NA,NA,NA,NA,NA,NA,NA,NA,NA,NA,NA,NA,NA,NA,NA,NA
8c8e8,"""Falsch""-Screen",canvas.Screen,3_0_6_0_0_1_2,NA,NA,skipped,NA,901457.70000005,NA,NA,901451.7,901457.89999986,2024-05-13T12:25:07Z,901468.5,NULL,Schlange,foleni,s,uvumilivu,uteuzi,muuzaji,NA,dfs,NA,6,NA,NA,NA,NA,NA,NA,NA,NA,NA,NA,NA,NA,NA,NA,NA,NA,NA,NA,NA
8c8e8,shallow,flow.Sequence,3_0_6_0_0_1,NA,NA,completion,8778.3999999999,892669.79999995,892657.588,892673.3,901451.7,901458,2024-05-13T12:25:07Z,901468.5,NULL,Schlange,foleni,s,uvumilivu,uteuzi,muuzaji,NA,dfs,NA,6,NA,NA,NA,NA,NA,NA,NA,NA,NA,NA,NA,NA,NA,NA,NA,NA,NA,NA,NA
8c8e8,task,flow.Sequence,3_0_6_0_0,NA,NA,completion,8778.3999999999,892669.70000005,892657.588,892673.3,901451.7,901458.0999999,2024-05-13T12:25:07Z,901468.5,NULL,Schlange,foleni,s,uvumilivu,uteuzi,muuzaji,NA,dfs,NA,6,NA,NA,NA,NA,NA,NA,NA,NA,NA,NA,NA,NA,NA,NA,NA,NA,NA,NA,NA
8c8e8,deep,flow.Sequence,3_0_6_0_1_0,NA,NA,skipped,NA,901458.0999999,NA,NA,901451.7,901458.0999999,2024-05-13T12:25:07Z,901468.5,NULL,Annäherung,maegesho,s,madahili,kujiamini,mapendekezo,NA,dfs,NA,6,NA,NA,NA,NA,NA,NA,NA,NA,NA,NA,NA,NA,NA,NA,NA,NA,NA,NA,NA
8c8e8,Shallow Question,html.Page,3_0_6_0_1_1_0,NA,NA,form submission,4357.0999999046,901458.20000005,901451.7,901468.5,905825.5999999,905825.79999995,2024-05-13T12:25:11Z,905832,NULL,Annäherung,maegesho,s,madahili,kujiamini,mapendekezo,maegesho,NA,NA,6,NA,NA,NA,NA,NA,NA,NA,NA,NA,NA,NA,NA,NA,NA,NA,NA,NA,NA,NA
8c8e8,"""Richtig""-Screen",canvas.Screen,3_0_6_0_1_1_1,NA,NA,timeout,4997.5,905828.79999995,905815.96,905832,910812.6,910814.29999995,2024-05-13T12:25:16Z,910829.5,NULL,Annäherung,maegesho,s,madahili,kujiamini,mapendekezo,NA,dfs,1,6,NA,NA,NA,NA,NA,NA,NA,NA,NA,NA,NA,NA,NA,NA,NA,NA,NA,NA,NA
8c8e8,"""Falsch""-Screen",canvas.Screen,3_0_6_0_1_1_2,NA,NA,skipped,NA,910818.79999995,NA,NA,910812.6,910818.79999995,2024-05-13T12:25:16Z,910829.5,NULL,Annäherung,maegesho,s,madahili,kujiamini,mapendekezo,NA,dfs,NA,6,NA,NA,NA,NA,NA,NA,NA,NA,NA,NA,NA,NA,NA,NA,NA,NA,NA,NA,NA
8c8e8,shallow,flow.Sequence,3_0_6_0_1_1,NA,NA,completion,9344.1,901458.20000005,901451.7,901468.5,910812.6,910819,2024-05-13T12:25:16Z,910829.5,NULL,Annäherung,maegesho,s,madahili,kujiamini,mapendekezo,NA,dfs,NA,6,NA,NA,NA,NA,NA,NA,NA,NA,NA,NA,NA,NA,NA,NA,NA,NA,NA,NA,NA
8c8e8,task,flow.Sequence,3_0_6_0_1,NA,NA,completion,9344.1,901458.0999999,901451.7,901468.5,910812.6,910819,2024-05-13T12:25:16Z,910829.5,NULL,Annäherung,maegesho,s,madahili,kujiamini,mapendekezo,NA,dfs,NA,6,NA,NA,NA,NA,NA,NA,NA,NA,NA,NA,NA,NA,NA,NA,NA,NA,NA,NA,NA
8c8e8,Deep Question,html.Page,3_0_6_0_2_0_0,NA,NA,form submission,6343.0999999046,910819,910812.6,910829.5,917172.5999999,917172.79999995,2024-05-13T12:25:22Z,917175.624,NULL,Polizist,msongora,d,NA,NA,NA,msongora,NA,NA,6,NA,NA,NA,NA,NA,NA,NA,NA,NA,NA,NA,NA,NA,NA,NA,NA,NA,NA,NA
8c8e8,"""Richtig""-Screen",canvas.Screen,3_0_6_0_2_0_1,NA,NA,timeout,4996.376,917175.5999999,917175.624,917175.624,922155.3,922155.5,2024-05-13T12:25:27Z,922172,NULL,Polizist,msongora,d,NA,NA,NA,NA,dfs,1,6,NA,NA,NA,NA,NA,NA,NA,NA,NA,NA,NA,NA,NA,NA,NA,NA,NA,NA,NA
8c8e8,"""Falsch""-Screen",canvas.Screen,3_0_6_0_2_0_2,NA,NA,skipped,NA,922157,NA,NA,922155.3,922157.0999999,2024-05-13T12:25:27Z,922172,NULL,Polizist,msongora,d,NA,NA,NA,NA,dfs,NA,6,NA,NA,NA,NA,NA,NA,NA,NA,NA,NA,NA,NA,NA,NA,NA,NA,NA,NA,NA
8c8e8,deep,flow.Sequence,3_0_6_0_2_0,NA,NA,completion,11325.8,910819,910812.6,910829.5,922155.3,922157.20000005,2024-05-13T12:25:27Z,922172,NULL,Polizist,msongora,d,NA,NA,NA,NA,dfs,NA,6,NA,NA,NA,NA,NA,NA,NA,NA,NA,NA,NA,NA,NA,NA,NA,NA,NA,NA,NA
8c8e8,shallow,flow.Sequence,3_0_6_0_2_1,NA,NA,skipped,NA,922157.20000005,NA,NA,922155.3,922157.29999995,2024-05-13T12:25:27Z,922172,NULL,Polizist,msongora,d,NA,NA,NA,NA,dfs,NA,6,NA,NA,NA,NA,NA,NA,NA,NA,NA,NA,NA,NA,NA,NA,NA,NA,NA,NA,NA
8c8e8,task,flow.Sequence,3_0_6_0_2,NA,NA,completion,11325.8,910819,910812.6,910829.5,922155.3,922157.39999986,2024-05-13T12:25:27Z,922172,NULL,Polizist,msongora,d,NA,NA,NA,NA,dfs,NA,6,NA,NA,NA,NA,NA,NA,NA,NA,NA,NA,NA,NA,NA,NA,NA,NA,NA,NA,NA
8c8e8,deep,flow.Sequence,3_0_6_0_3_0,NA,NA,skipped,NA,922157.39999986,NA,NA,922155.3,922157.39999986,2024-05-13T12:25:27Z,922172,NULL,Sympathie,mapendano,s,dhamiria,fungamano,maazimio,NA,dfs,NA,6,NA,NA,NA,NA,NA,NA,NA,NA,NA,NA,NA,NA,NA,NA,NA,NA,NA,NA,NA
8c8e8,Shallow Question,html.Page,3_0_6_0_3_1_0,NA,NA,form submission,7747.5,922157.39999986,922155.3,922172,929919.5,929919.70000005,2024-05-13T12:25:35Z,929934.4,NULL,Sympathie,mapendano,s,dhamiria,fungamano,maazimio,mapendano,NA,NA,6,NA,NA,NA,NA,NA,NA,NA,NA,NA,NA,NA,NA,NA,NA,NA,NA,NA,NA,NA
8c8e8,"""Richtig""-Screen",canvas.Screen,3_0_6_0_3_1_1,NA,NA,timeout,4996.7999999999,929922.5999999,929917.826,929934.4,934914.5,934915.39999986,2024-05-13T12:25:40Z,934931.2,NULL,Sympathie,mapendano,s,dhamiria,fungamano,maazimio,NA,dfs,1,6,NA,NA,NA,NA,NA,NA,NA,NA,NA,NA,NA,NA,NA,NA,NA,NA,NA,NA,NA
