observation,sender,sender_type,sender_id,response,response_action,ended_on,duration,time_run,time_render,time_show,time_end,time_commit,timestamp,time_switch,distractors,german,swahili,enc,distractor1,distractor2,distractor3,response_2,x,correct,x_2,url_vp,url_sess,meta_labjs_version,meta_location,meta_user_agent,meta_platform,meta_language,meta_locale,meta_time_zone,meta_timezone_offset,meta_screen_width,meta_screen_height,meta_scroll_width,meta_scroll_height,meta_window_inner_width,meta_window_inner_height,meta_device_pixel_ratio,meta_labjs_build_flavor,meta_labjs_build_commit
f23e1,Introduction general,canvas.Screen,0,weiter,keypress(q),response,200346.8,392,397.54,414.2,200761,200780,2023-05-26T12:03:22Z,200782.44,NULL,NA,NA,NA,NA,NA,NA,NA,NA,NA,NA,172,1,20.2.4,https://neurocog.fernuni.ch/studies/vweber/sliechti/encoding_immediate/index.html?vp=172&sess=1,Mozilla/5.0 (Windows NT 10.0; Win64; x64; rv:109.0) Gecko/20100101 Firefox/113.0,Win32,de,de-CH,Europe/Zurich,-120,1280,720,1280,587,1280,587,1.5,production,f5b4a49f956347addd546a832a3327688c2c0fef
f23e1,Introduction practice,canvas.Screen,1_0,NA,keypress(Space),response,10883.56,200782,200781.94,200782.44,211666,211676,2023-05-26T12:03:33Z,211687.66,NULL,NA,NA,NA,NA,NA,NA,NA,NA,NA,NA,NA,NA,NA,NA,NA,NA,NA,NA,NA,NA,NA,NA,NA,NA,NA,NA,NA,NA,NA
f23e1,Deep Question,html.Page,1_1_0_0_0,NA,NA,form submission,6038.34,211677,211677.22,211687.66,217726,217727,2023-05-26T12:03:39Z,217753.56,"c(""distractor1"", ""distractor2"", ""distractor3"")",Qualität,mtindo,d,NA,NA,NA,jfdaöj,NA,NA,NA,NA,NA,NA,NA,NA,NA,NA,NA,NA,NA,NA,NA,NA,NA,NA,NA,NA,NA,NA
f23e1,"""Richtig""-Screen",canvas.Screen,1_1_0_0_1,NA,NA,skipped,NA,217732,NA,NA,217726,217733,2023-05-26T12:03:39Z,217753.56,"c(""distractor1"", ""distractor2"", ""distractor3"")",Qualität,mtindo,d,NA,NA,NA,NA,NA,NA,NA,NA,NA,NA,NA,NA,NA,NA,NA,NA,NA,NA,NA,NA,NA,NA,NA,NA,NA,NA
f23e1,"""Falsch""-Screen",canvas.Screen,1_1_0_0_2,NA,NA,timeout,4999.34,217737,217736.9,217753.56,222736.24,222739,2023-05-26T12:03:44Z,222752.9,"c(""distractor1"", ""distractor2"", ""distractor3"")",Qualität,mtindo,d,NA,NA,NA,NA,NA,0,NA,NA,NA,NA,NA,NA,NA,NA,NA,NA,NA,NA,NA,NA,NA,NA,NA,NA,NA,NA
f23e1,deep,flow.Sequence,1_1_0_0,NA,NA,completion,11048.58,211677,211677.22,211687.66,222736.24,222740,2023-05-26T12:03:44Z,222752.9,"c(""distractor1"", ""distractor2"", ""distractor3"")",Qualität,mtindo,d,NA,NA,NA,NA,NA,NA,NA,NA,NA,NA,NA,NA,NA,NA,NA,NA,NA,NA,NA,NA,NA,NA,NA,NA,NA,NA
f23e1,shallow,flow.Sequence,1_1_0_1,NA,NA,skipped,NA,222741,NA,NA,222736.24,222742,2023-05-26T12:03:44Z,222752.9,"c(""distractor1"", ""distractor2"", ""distractor3"")",Qualität,mtindo,d,NA,NA,NA,NA,NA,NA,NA,NA,NA,NA,NA,NA,NA,NA,NA,NA,NA,NA,NA,NA,NA,NA,NA,NA,NA,NA
f23e1,task,flow.Sequence,1_1_0,NA,NA,completion,11048.58,211677,211677.22,211687.66,222736.24,222742,2023-05-26T12:03:44Z,222752.9,"c(""distractor1"", ""distractor2"", ""distractor3"")",Qualität,mtindo,d,NA,NA,NA,NA,NA,NA,NA,NA,NA,NA,NA,NA,NA,NA,NA,NA,NA,NA,NA,NA,NA,NA,NA,NA,NA,NA
f23e1,Deep Question,html.Page,1_1_1_0_0,NA,NA,form submission,4285.1,222744,222736.24,222752.9,227038,227038,2023-05-26T12:03:48Z,227036.6,"c(""distractor1"", ""distractor2"", ""distractor3"")",Gesundheit,salama,d,NA,NA,NA,oj,NA,NA,NA,NA,NA,NA,NA,NA,NA,NA,NA,NA,NA,NA,NA,NA,NA,NA,NA,NA,NA,NA
f23e1,"""Richtig""-Screen",canvas.Screen,1_1_1_0_1,NA,NA,skipped,NA,227042,NA,NA,227038,227042,2023-05-26T12:03:48Z,227036.6,"c(""distractor1"", ""distractor2"", ""distractor3"")",Gesundheit,salama,d,NA,NA,NA,NA,NA,NA,NA,NA,NA,NA,NA,NA,NA,NA,NA,NA,NA,NA,NA,NA,NA,NA,NA,NA,NA,NA
f23e1,"""Falsch""-Screen",canvas.Screen,1_1_1_0_2,NA,NA,timeout,4998.48,227046,227036.26,227036.6,232018.44,232021,2023-05-26T12:03:53Z,232035.08,"c(""distractor1"", ""distractor2"", ""distractor3"")",Gesundheit,salama,d,NA,NA,NA,NA,NA,0,NA,NA,NA,NA,NA,NA,NA,NA,NA,NA,NA,NA,NA,NA,NA,NA,NA,NA,NA,NA
f23e1,deep,flow.Sequence,1_1_1_0,NA,NA,completion,9265.54,222744,222736.24,222752.9,232018.44,232022,2023-05-26T12:03:53Z,232035.08,"c(""distractor1"", ""distractor2"", ""distractor3"")",Gesundheit,salama,d,NA,NA,NA,NA,NA,NA,NA,NA,NA,NA,NA,NA,NA,NA,NA,NA,NA,NA,NA,NA,NA,NA,NA,NA,NA,NA
f23e1,shallow,flow.Sequence,1_1_1_1,NA,NA,skipped,NA,232022,NA,NA,232018.44,232023,2023-05-26T12:03:53Z,232035.08,"c(""distractor1"", ""distractor2"", ""distractor3"")",Gesundheit,salama,d,NA,NA,NA,NA,NA,NA,NA,NA,NA,NA,NA,NA,NA,NA,NA,NA,NA,NA,NA,NA,NA,NA,NA,NA,NA,NA
f23e1,task,flow.Sequence,1_1_1,NA,NA,completion,9265.54,222743,222736.24,222752.9,232018.44,232023,2023-05-26T12:03:53Z,232035.08,"c(""distractor1"", ""distractor2"", ""distractor3"")",Gesundheit,salama,d,NA,NA,NA,NA,NA,NA,NA,NA,NA,NA,NA,NA,NA,NA,NA,NA,NA,NA,NA,NA,NA,NA,NA,NA,NA,NA
f23e1,deep,flow.Sequence,1_1_2_0,NA,NA,skipped,NA,232024,NA,NA,232018.44,232024,2023-05-26T12:03:53Z,232035.08,"c(""distractor1"", ""distractor2"", ""distractor3"")",Rückhalt,msaada,s,muhula,auwali,kiwimbe,NA,NA,NA,NA,NA,NA,NA,NA,NA,NA,NA,NA,NA,NA,NA,NA,NA,NA,NA,NA,NA,NA,NA
f23e1,Shallow Question,html.Page,1_1_2_1_0,NA,NA,form submission,7867.92,232025,232018.44,232035.08,239903,239904,2023-05-26T12:04:01Z,239900.82,"c(""distractor1"", ""distractor2"", ""distractor3"")",Rückhalt,msaada,s,muhula,auwali,kiwimbe,msaada,NA,NA,NA,NA,NA,NA,NA,NA,NA,NA,NA,NA,NA,NA,NA,NA,NA,NA,NA,NA,NA,NA
f23e1,"""Richtig""-Screen",canvas.Screen,1_1_2_1_1,NA,NA,timeout,4999.24,239909,239895.86,239900.82,244883.52,244884,2023-05-26T12:04:06Z,244900.06,"c(""distractor1"", ""distractor2"", ""distractor3"")",Rückhalt,msaada,s,muhula,auwali,kiwimbe,NA,NA,1,NA,NA,NA,NA,NA,NA,NA,NA,NA,NA,NA,NA,NA,NA,NA,NA,NA,NA,NA,NA
f23e1,"""Falsch""-Screen",canvas.Screen,1_1_2_1_2,NA,NA,skipped,NA,244890,NA,NA,244883.52,244890,2023-05-26T12:04:06Z,244900.06,"c(""distractor1"", ""distractor2"", ""distractor3"")",Rückhalt,msaada,s,muhula,auwali,kiwimbe,NA,NA,NA,NA,NA,NA,NA,NA,NA,NA,NA,NA,NA,NA,NA,NA,NA,NA,NA,NA,NA,NA,NA
f23e1,shallow,flow.Sequence,1_1_2_1,NA,NA,completion,12848.44,232025,232018.44,232035.08,244883.52,244891,2023-05-26T12:04:06Z,244900.06,"c(""distractor1"", ""distractor2"", ""distractor3"")",Rückhalt,msaada,s,muhula,auwali,kiwimbe,NA,NA,NA,NA,NA,NA,NA,NA,NA,NA,NA,NA,NA,NA,NA,NA,NA,NA,NA,NA,NA,NA,NA
f23e1,task,flow.Sequence,1_1_2,NA,NA,completion,12848.44,232024,232018.44,232035.08,244883.52,244891,2023-05-26T12:04:06Z,244900.06,"c(""distractor1"", ""distractor2"", ""distractor3"")",Rückhalt,msaada,s,muhula,auwali,kiwimbe,NA,NA,NA,NA,NA,NA,NA,NA,NA,NA,NA,NA,NA,NA,NA,NA,NA,NA,NA,NA,NA,NA,NA
f23e1,deep,flow.Sequence,1_1_3_0,NA,NA,skipped,NA,244891,NA,NA,244883.52,244892,2023-05-26T12:04:06Z,244900.06,"c(""distractor1"", ""distractor2"", ""distractor3"")",Gegenwart,hadhara,s,katiba,jokofu,mikopo,NA,NA,NA,NA,NA,NA,NA,NA,NA,NA,NA,NA,NA,NA,NA,NA,NA,NA,NA,NA,NA,NA,NA
f23e1,Shallow Question,html.Page,1_1_3_1_0,NA,NA,form submission,17522.94,244892,244883.52,244900.06,262423,262423,2023-05-26T12:04:23Z,262431.24,"c(""distractor1"", ""distractor2"", ""distractor3"")",Gegenwart,hadhara,s,katiba,jokofu,mikopo,katiba,NA,NA,NA,NA,NA,NA,NA,NA,NA,NA,NA,NA,NA,NA,NA,NA,NA,NA,NA,NA,NA,NA
f23e1,"""Richtig""-Screen",canvas.Screen,1_1_3_1_1,NA,NA,skipped,NA,262427,NA,NA,262423,262427,2023-05-26T12:04:23Z,262431.24,"c(""distractor1"", ""distractor2"", ""distractor3"")",Gegenwart,hadhara,s,katiba,jokofu,mikopo,NA,NA,NA,NA,NA,NA,NA,NA,NA,NA,NA,NA,NA,NA,NA,NA,NA,NA,NA,NA,NA,NA,NA
f23e1,"""Falsch""-Screen",canvas.Screen,1_1_3_1_2,NA,NA,timeout,4999.32,262430,262421.64,262431.24,267413.92,267416,2023-05-26T12:04:28Z,267430.56,"c(""distractor1"", ""distractor2"", ""distractor3"")",Gegenwart,hadhara,s,katiba,jokofu,mikopo,NA,NA,0,NA,NA,NA,NA,NA,NA,NA,NA,NA,NA,NA,NA,NA,NA,NA,NA,NA,NA,NA,NA
f23e1,shallow,flow.Sequence,1_1_3_1,NA,NA,completion,22513.86,244892,244883.52,244900.06,267413.92,267416,2023-05-26T12:04:28Z,267430.56,"c(""distractor1"", ""distractor2"", ""distractor3"")",Gegenwart,hadhara,s,katiba,jokofu,mikopo,NA,NA,NA,NA,NA,NA,NA,NA,NA,NA,NA,NA,NA,NA,NA,NA,NA,NA,NA,NA,NA,NA,NA
f23e1,task,flow.Sequence,1_1_3,NA,NA,completion,22513.86,244891,244883.52,244900.06,267413.92,267417,2023-05-26T12:04:28Z,267430.56,"c(""distractor1"", ""distractor2"", ""distractor3"")",Gegenwart,hadhara,s,katiba,jokofu,mikopo,NA,NA,NA,NA,NA,NA,NA,NA,NA,NA,NA,NA,NA,NA,NA,NA,NA,NA,NA,NA,NA,NA,NA
f23e1,Deep Question,html.Page,1_1_4_0_0,NA,NA,form submission,3392.44,267418,267413.92,267430.56,270823,270824,2023-05-26T12:04:32Z,270830.18,"c(""distractor1"", ""distractor2"", ""distractor3"")",Schatten,kivuli,d,NA,NA,NA,jakj,NA,NA,NA,NA,NA,NA,NA,NA,NA,NA,NA,NA,NA,NA,NA,NA,NA,NA,NA,NA,NA,NA
f23e1,"""Richtig""-Screen",canvas.Screen,1_1_4_0_1,NA,NA,skipped,NA,270827,NA,NA,270823,270827,2023-05-26T12:04:32Z,270830.18,"c(""distractor1"", ""distractor2"", ""distractor3"")",Schatten,kivuli,d,NA,NA,NA,NA,NA,NA,NA,NA,NA,NA,NA,NA,NA,NA,NA,NA,NA,NA,NA,NA,NA,NA,NA,NA,NA,NA
f23e1,"""Falsch""-Screen",canvas.Screen,1_1_4_0_2,NA,NA,timeout,4999.28,270830,270822.6,270830.18,275812.8,275815,2023-05-26T12:04:37Z,275829.46,"c(""distractor1"", ""distractor2"", ""distractor3"")",Schatten,kivuli,d,NA,NA,NA,NA,NA,0,NA,NA,NA,NA,NA,NA,NA,NA,NA,NA,NA,NA,NA,NA,NA,NA,NA,NA,NA,NA
f23e1,deep,flow.Sequence,1_1_4_0,NA,NA,completion,8382.24,267418,267413.92,267430.56,275812.8,275816,2023-05-26T12:04:37Z,275829.46,"c(""distractor1"", ""distractor2"", ""distractor3"")",Schatten,kivuli,d,NA,NA,NA,NA,NA,NA,NA,NA,NA,NA,NA,NA,NA,NA,NA,NA,NA,NA,NA,NA,NA,NA,NA,NA,NA,NA
f23e1,shallow,flow.Sequence,1_1_4_1,NA,NA,skipped,NA,275816,NA,NA,275812.8,275817,2023-05-26T12:04:37Z,275829.46,"c(""distractor1"", ""distractor2"", ""distractor3"")",Schatten,kivuli,d,NA,NA,NA,NA,NA,NA,NA,NA,NA,NA,NA,NA,NA,NA,NA,NA,NA,NA,NA,NA,NA,NA,NA,NA,NA,NA
f23e1,task,flow.Sequence,1_1_4,NA,NA,completion,8382.24,267418,267413.92,267430.56,275812.8,275817,2023-05-26T12:04:37Z,275829.46,"c(""distractor1"", ""distractor2"", ""distractor3"")",Schatten,kivuli,d,NA,NA,NA,NA,NA,NA,NA,NA,NA,NA,NA,NA,NA,NA,NA,NA,NA,NA,NA,NA,NA,NA,NA,NA,NA,NA
f23e1,deep,flow.Sequence,1_1_5_0,NA,NA,skipped,NA,275817,NA,NA,275812.8,275817,2023-05-26T12:04:37Z,275829.46,"c(""distractor1"", ""distractor2"", ""distractor3"")",Kritik,lawama,s,dereva,nafasi,mawazo,NA,NA,NA,NA,NA,NA,NA,NA,NA,NA,NA,NA,NA,NA,NA,NA,NA,NA,NA,NA,NA,NA,NA
f23e1,Shallow Question,html.Page,1_1_5_1_0,NA,NA,form submission,6145.54,275817,275812.8,275829.46,281975,281976,2023-05-26T12:04:43Z,281978.68,"c(""distractor1"", ""distractor2"", ""distractor3"")",Kritik,lawama,s,dereva,nafasi,mawazo,lawama,NA,NA,NA,NA,NA,NA,NA,NA,NA,NA,NA,NA,NA,NA,NA,NA,NA,NA,NA,NA,NA,NA
f23e1,"""Richtig""-Screen",canvas.Screen,1_1_5_1_1,NA,NA,timeout,5002.3,281982,281970.28,281978.68,286961.48,286963,2023-05-26T12:04:48Z,286980.98,"c(""distractor1"", ""distractor2"", ""distractor3"")",Kritik,lawama,s,dereva,nafasi,mawazo,NA,NA,1,NA,NA,NA,NA,NA,NA,NA,NA,NA,NA,NA,NA,NA,NA,NA,NA,NA,NA,NA,NA
f23e1,"""Falsch""-Screen",canvas.Screen,1_1_5_1_2,NA,NA,skipped,NA,286972,NA,NA,286961.48,286972,2023-05-26T12:04:48Z,286980.98,"c(""distractor1"", ""distractor2"", ""distractor3"")",Kritik,lawama,s,dereva,nafasi,mawazo,NA,NA,NA,NA,NA,NA,NA,NA,NA,NA,NA,NA,NA,NA,NA,NA,NA,NA,NA,NA,NA,NA,NA
f23e1,shallow,flow.Sequence,1_1_5_1,NA,NA,completion,11132.02,275817,275812.8,275829.46,286961.48,286973,2023-05-26T12:04:48Z,286980.98,"c(""distractor1"", ""distractor2"", ""distractor3"")",Kritik,lawama,s,dereva,nafasi,mawazo,NA,NA,NA,NA,NA,NA,NA,NA,NA,NA,NA,NA,NA,NA,NA,NA,NA,NA,NA,NA,NA,NA,NA
f23e1,task,flow.Sequence,1_1_5,NA,NA,completion,11132.02,275817,275812.8,275829.46,286961.48,286973,2023-05-26T12:04:48Z,286980.98,"c(""distractor1"", ""distractor2"", ""distractor3"")",Kritik,lawama,s,dereva,nafasi,mawazo,NA,NA,NA,NA,NA,NA,NA,NA,NA,NA,NA,NA,NA,NA,NA,NA,NA,NA,NA,NA,NA,NA,NA
f23e1,block,flow.Loop,1_1,NA,NA,completion,75273.82,211676,211677.22,211687.66,286961.48,286974,2023-05-26T12:04:48Z,286980.98,"c(""distractor1"", ""distractor2"", ""distractor3"")",NA,NA,NA,NA,NA,NA,NA,NA,NA,NA,NA,NA,NA,NA,NA,NA,NA,NA,NA,NA,NA,NA,NA,NA,NA,NA,NA,NA,NA
f23e1,Practice,flow.Sequence,1,NA,NA,completion,86179.04,200782,200781.94,200782.44,286961.48,286975,2023-05-26T12:04:48Z,286980.98,NULL,NA,NA,NA,NA,NA,NA,NA,NA,NA,NA,NA,NA,NA,NA,NA,NA,NA,NA,NA,NA,NA,NA,NA,NA,NA,NA,NA,NA,NA
f23e1,Experiment start,canvas.Screen,2,weiter,keypress(q),response,19873.02,286976,286961.48,286980.98,306854,306873,2023-05-26T12:05:08Z,306987,NULL,NA,NA,NA,NA,NA,NA,NA,NA,NA,NA,NA,NA,NA,NA,NA,NA,NA,NA,NA,NA,NA,NA,NA,NA,NA,NA,NA,NA,NA
f23e1,deep,flow.Sequence,3_0_0_0_0_0,NA,NA,skipped,NA,306987,NA,NA,306854,306987,2023-05-26T12:05:08Z,306987,NULL,Übersicht,kilindo,s,mgusano,chipukizi,kulinganisha,NA,sdf,NA,0,NA,NA,NA,NA,NA,NA,NA,NA,NA,NA,NA,NA,NA,NA,NA,NA,NA,NA,NA
f23e1,Shallow Question,html.Page,3_0_0_0_0_1_0,NA,NA,form submission,14963,306987,306986.66,306987,321950,321950,2023-05-26T12:05:23Z,321957,NULL,Übersicht,kilindo,s,mgusano,chipukizi,kulinganisha,mgusano,NA,NA,0,NA,NA,NA,NA,NA,NA,NA,NA,NA,NA,NA,NA,NA,NA,NA,NA,NA,NA,NA
f23e1,"""Richtig""-Screen",canvas.Screen,3_0_0_0_0_1_1,NA,NA,skipped,NA,321954,NA,NA,321950,321954,2023-05-26T12:05:23Z,321957,NULL,Übersicht,kilindo,s,mgusano,chipukizi,kulinganisha,NA,sdf,NA,0,NA,NA,NA,NA,NA,NA,NA,NA,NA,NA,NA,NA,NA,NA,NA,NA,NA,NA,NA
f23e1,"""Falsch""-Screen",canvas.Screen,3_0_0_0_0_1_2,NA,NA,timeout,4999.36,321960,321945.22,321957,326939.72,326942,2023-05-26T12:05:28Z,326956.36,NULL,Übersicht,kilindo,s,mgusano,chipukizi,kulinganisha,NA,sdf,0,0,NA,NA,NA,NA,NA,NA,NA,NA,NA,NA,NA,NA,NA,NA,NA,NA,NA,NA,NA
f23e1,shallow,flow.Sequence,3_0_0_0_0_1,NA,NA,completion,19952.72,306987,306986.66,306987,326939.72,326943,2023-05-26T12:05:28Z,326956.36,NULL,Übersicht,kilindo,s,mgusano,chipukizi,kulinganisha,NA,sdf,NA,0,NA,NA,NA,NA,NA,NA,NA,NA,NA,NA,NA,NA,NA,NA,NA,NA,NA,NA,NA
f23e1,task,flow.Sequence,3_0_0_0_0,NA,NA,completion,19952.72,306987,306986.66,306987,326939.72,326943,2023-05-26T12:05:28Z,326956.36,NULL,Übersicht,kilindo,s,mgusano,chipukizi,kulinganisha,NA,sdf,NA,0,NA,NA,NA,NA,NA,NA,NA,NA,NA,NA,NA,NA,NA,NA,NA,NA,NA,NA,NA
f23e1,deep,flow.Sequence,3_0_0_0_1_0,NA,NA,skipped,NA,326944,NA,NA,326939.72,326944,2023-05-26T12:05:28Z,326956.36,NULL,Vorwurf,mashtaka,s,msukumo,mtangulizi,uenyekiti,NA,sdf,NA,0,NA,NA,NA,NA,NA,NA,NA,NA,NA,NA,NA,NA,NA,NA,NA,NA,NA,NA,NA
f23e1,Shallow Question,html.Page,3_0_0_0_1_1_0,NA,NA,form submission,4704.64,326945,326939.72,326956.36,331661,331662,2023-05-26T12:05:33Z,331660.28,NULL,Vorwurf,mashtaka,s,msukumo,mtangulizi,uenyekiti,mashtaka,NA,NA,0,NA,NA,NA,NA,NA,NA,NA,NA,NA,NA,NA,NA,NA,NA,NA,NA,NA,NA,NA
f23e1,"""Richtig""-Screen",canvas.Screen,3_0_0_0_1_1_1,NA,NA,timeout,4994.84,331664,331659.9,331660.28,336638.48,336641,2023-05-26T12:05:38Z,336655.12,NULL,Vorwurf,mashtaka,s,msukumo,mtangulizi,uenyekiti,NA,sdf,1,0,NA,NA,NA,NA,NA,NA,NA,NA,NA,NA,NA,NA,NA,NA,NA,NA,NA,NA,NA
f23e1,"""Falsch""-Screen",canvas.Screen,3_0_0_0_1_1_2,NA,NA,skipped,NA,336647,NA,NA,336638.48,336648,2023-05-26T12:05:38Z,336655.12,NULL,Vorwurf,mashtaka,s,msukumo,mtangulizi,uenyekiti,NA,sdf,NA,0,NA,NA,NA,NA,NA,NA,NA,NA,NA,NA,NA,NA,NA,NA,NA,NA,NA,NA,NA
f23e1,shallow,flow.Sequence,3_0_0_0_1_1,NA,NA,completion,9682.12,326945,326939.72,326956.36,336638.48,336649,2023-05-26T12:05:38Z,336655.12,NULL,Vorwurf,mashtaka,s,msukumo,mtangulizi,uenyekiti,NA,sdf,NA,0,NA,NA,NA,NA,NA,NA,NA,NA,NA,NA,NA,NA,NA,NA,NA,NA,NA,NA,NA
f23e1,task,flow.Sequence,3_0_0_0_1,NA,NA,completion,9682.12,326944,326939.72,326956.36,336638.48,336650,2023-05-26T12:05:38Z,336655.12,NULL,Vorwurf,mashtaka,s,msukumo,mtangulizi,uenyekiti,NA,sdf,NA,0,NA,NA,NA,NA,NA,NA,NA,NA,NA,NA,NA,NA,NA,NA,NA,NA,NA,NA,NA
f23e1,Deep Question,html.Page,3_0_0_0_2_0_0,NA,NA,form submission,3652.88,336650,336638.48,336655.12,340308,340309,2023-05-26T12:05:41Z,340307.54,NULL,Niveau,kiwango,d,NA,NA,NA,jak,NA,NA,0,NA,NA,NA,NA,NA,NA,NA,NA,NA,NA,NA,NA,NA,NA,NA,NA,NA,NA,NA
f23e1,"""Richtig""-Screen",canvas.Screen,3_0_0_0_2_0_1,NA,NA,skipped,NA,340311,NA,NA,340308,340311,2023-05-26T12:05:41Z,340307.54,NULL,Niveau,kiwango,d,NA,NA,NA,NA,sdf,NA,0,NA,NA,NA,NA,NA,NA,NA,NA,NA,NA,NA,NA,NA,NA,NA,NA,NA,NA,NA
f23e1,"""Falsch""-Screen",canvas.Screen,3_0_0_0_2_0_2,NA,NA,timeout,4996.56,340315,340307.18,340307.54,345287.44,345290,2023-05-26T12:05:46Z,345304.1,NULL,Niveau,kiwango,d,NA,NA,NA,NA,sdf,0,0,NA,NA,NA,NA,NA,NA,NA,NA,NA,NA,NA,NA,NA,NA,NA,NA,NA,NA,NA
f23e1,deep,flow.Sequence,3_0_0_0_2_0,NA,NA,completion,8632.32,336650,336638.48,336655.12,345287.44,345290,2023-05-26T12:05:46Z,345304.1,NULL,Niveau,kiwango,d,NA,NA,NA,NA,sdf,NA,0,NA,NA,NA,NA,NA,NA,NA,NA,NA,NA,NA,NA,NA,NA,NA,NA,NA,NA,NA
f23e1,shallow,flow.Sequence,3_0_0_0_2_1,NA,NA,skipped,NA,345290,NA,NA,345287.44,345291,2023-05-26T12:05:46Z,345304.1,NULL,Niveau,kiwango,d,NA,NA,NA,NA,sdf,NA,0,NA,NA,NA,NA,NA,NA,NA,NA,NA,NA,NA,NA,NA,NA,NA,NA,NA,NA,NA
f23e1,task,flow.Sequence,3_0_0_0_2,NA,NA,completion,8632.32,336650,336638.48,336655.12,345287.44,345291,2023-05-26T12:05:46Z,345304.1,NULL,Niveau,kiwango,d,NA,NA,NA,NA,sdf,NA,0,NA,NA,NA,NA,NA,NA,NA,NA,NA,NA,NA,NA,NA,NA,NA,NA,NA,NA,NA
f23e1,deep,flow.Sequence,3_0_0_0_3_0,NA,NA,skipped,NA,345291,NA,NA,345287.44,345292,2023-05-26T12:05:46Z,345304.1,NULL,Körper,kiwiliwili,s,mapambano,mpatanishi,kiolezo,NA,sdf,NA,0,NA,NA,NA,NA,NA,NA,NA,NA,NA,NA,NA,NA,NA,NA,NA,NA,NA,NA,NA
f23e1,Shallow Question,html.Page,3_0_0_0_3_1_0,NA,NA,form submission,7571.9,345292,345287.44,345304.1,352876,352878,2023-05-26T12:05:54Z,352886.46,NULL,Körper,kiwiliwili,s,mapambano,mpatanishi,kiolezo,kiwiliwili,NA,NA,0,NA,NA,NA,NA,NA,NA,NA,NA,NA,NA,NA,NA,NA,NA,NA,NA,NA,NA,NA
f23e1,"""Richtig""-Screen",canvas.Screen,3_0_0_0_3_1_1,NA,NA,timeout,4999.32,352885,352874.24,352886.46,357869.12,357871,2023-05-26T12:05:59Z,357885.78,NULL,Körper,kiwiliwili,s,mapambano,mpatanishi,kiolezo,NA,sdf,1,0,NA,NA,NA,NA,NA,NA,NA,NA,NA,NA,NA,NA,NA,NA,NA,NA,NA,NA,NA
f23e1,"""Falsch""-Screen",canvas.Screen,3_0_0_0_3_1_2,NA,NA,skipped,NA,357884,NA,NA,357869.12,357884,2023-05-26T12:05:59Z,357885.78,NULL,Körper,kiwiliwili,s,mapambano,mpatanishi,kiolezo,NA,sdf,NA,0,NA,NA,NA,NA,NA,NA,NA,NA,NA,NA,NA,NA,NA,NA,NA,NA,NA,NA,NA
f23e1,shallow,flow.Sequence,3_0_0_0_3_1,NA,NA,completion,12565.02,345292,345287.44,345304.1,357869.12,357885,2023-05-26T12:05:59Z,357885.78,NULL,Körper,kiwiliwili,s,mapambano,mpatanishi,kiolezo,NA,sdf,NA,0,NA,NA,NA,NA,NA,NA,NA,NA,NA,NA,NA,NA,NA,NA,NA,NA,NA,NA,NA
f23e1,task,flow.Sequence,3_0_0_0_3,NA,NA,completion,12565.02,345291,345287.44,345304.1,357869.12,357887,2023-05-26T12:05:59Z,357885.78,NULL,Körper,kiwiliwili,s,mapambano,mpatanishi,kiolezo,NA,sdf,NA,0,NA,NA,NA,NA,NA,NA,NA,NA,NA,NA,NA,NA,NA,NA,NA,NA,NA,NA,NA
f23e1,Deep Question,html.Page,3_0_0_0_4_0_0,NA,NA,form submission,4604.22,357888,357869.12,357885.78,362490,362490,2023-05-26T12:06:04Z,362518.18,NULL,Papier,karatasi,d,NA,NA,NA,papyrus,NA,NA,0,NA,NA,NA,NA,NA,NA,NA,NA,NA,NA,NA,NA,NA,NA,NA,NA,NA,NA,NA
f23e1,"""Richtig""-Screen",canvas.Screen,3_0_0_0_4_0_1,NA,NA,skipped,NA,362494,NA,NA,362490,362495,2023-05-26T12:06:04Z,362518.18,NULL,Papier,karatasi,d,NA,NA,NA,NA,sdf,NA,0,NA,NA,NA,NA,NA,NA,NA,NA,NA,NA,NA,NA,NA,NA,NA,NA,NA,NA,NA
f23e1,"""Falsch""-Screen",canvas.Screen,3_0_0_0_4_0_2,NA,NA,timeout,4999.74,362498,362501.52,362518.18,367501.28,367504,2023-05-26T12:06:09Z,367517.92,NULL,Papier,karatasi,d,NA,NA,NA,NA,sdf,0,0,NA,NA,NA,NA,NA,NA,NA,NA,NA,NA,NA,NA,NA,NA,NA,NA,NA,NA,NA
f23e1,deep,flow.Sequence,3_0_0_0_4_0,NA,NA,completion,9615.5,357888,357869.12,357885.78,367501.28,367505,2023-05-26T12:06:09Z,367517.92,NULL,Papier,karatasi,d,NA,NA,NA,NA,sdf,NA,0,NA,NA,NA,NA,NA,NA,NA,NA,NA,NA,NA,NA,NA,NA,NA,NA,NA,NA,NA
f23e1,shallow,flow.Sequence,3_0_0_0_4_1,NA,NA,skipped,NA,367505,NA,NA,367501.28,367506,2023-05-26T12:06:09Z,367517.92,NULL,Papier,karatasi,d,NA,NA,NA,NA,sdf,NA,0,NA,NA,NA,NA,NA,NA,NA,NA,NA,NA,NA,NA,NA,NA,NA,NA,NA,NA,NA
f23e1,task,flow.Sequence,3_0_0_0_4,NA,NA,completion,9615.5,357888,357869.12,357885.78,367501.28,367507,2023-05-26T12:06:09Z,367517.92,NULL,Papier,karatasi,d,NA,NA,NA,NA,sdf,NA,0,NA,NA,NA,NA,NA,NA,NA,NA,NA,NA,NA,NA,NA,NA,NA,NA,NA,NA,NA
f23e1,Deep Question,html.Page,3_0_0_0_5_0_0,NA,NA,form submission,3499.08,367509,367501.28,367517.92,371017,371018,2023-05-26T12:06:12Z,371017.46,NULL,System,maongozi,d,NA,NA,NA,eijdk,NA,NA,0,NA,NA,NA,NA,NA,NA,NA,NA,NA,NA,NA,NA,NA,NA,NA,NA,NA,NA,NA
f23e1,"""Richtig""-Screen",canvas.Screen,3_0_0_0_5_0_1,NA,NA,skipped,NA,371021,NA,NA,371017,371021,2023-05-26T12:06:12Z,371017.46,NULL,System,maongozi,d,NA,NA,NA,NA,sdf,NA,0,NA,NA,NA,NA,NA,NA,NA,NA,NA,NA,NA,NA,NA,NA,NA,NA,NA,NA,NA
f23e1,"""Falsch""-Screen",canvas.Screen,3_0_0_0_5_0_2,NA,NA,timeout,4999.4,371026,371015.7,371017.46,376000.2,376002,2023-05-26T12:06:17Z,376016.86,NULL,System,maongozi,d,NA,NA,NA,NA,sdf,0,0,NA,NA,NA,NA,NA,NA,NA,NA,NA,NA,NA,NA,NA,NA,NA,NA,NA,NA,NA
f23e1,deep,flow.Sequence,3_0_0_0_5_0,NA,NA,completion,8482.28,367508,367501.28,367517.92,376000.2,376002,2023-05-26T12:06:17Z,376016.86,NULL,System,maongozi,d,NA,NA,NA,NA,sdf,NA,0,NA,NA,NA,NA,NA,NA,NA,NA,NA,NA,NA,NA,NA,NA,NA,NA,NA,NA,NA
f23e1,shallow,flow.Sequence,3_0_0_0_5_1,NA,NA,skipped,NA,376003,NA,NA,376000.2,376003,2023-05-26T12:06:17Z,376016.86,NULL,System,maongozi,d,NA,NA,NA,NA,sdf,NA,0,NA,NA,NA,NA,NA,NA,NA,NA,NA,NA,NA,NA,NA,NA,NA,NA,NA,NA,NA
f23e1,task,flow.Sequence,3_0_0_0_5,NA,NA,completion,8482.28,367508,367501.28,367517.92,376000.2,376004,2023-05-26T12:06:17Z,376016.86,NULL,System,maongozi,d,NA,NA,NA,NA,sdf,NA,0,NA,NA,NA,NA,NA,NA,NA,NA,NA,NA,NA,NA,NA,NA,NA,NA,NA,NA,NA
f23e1,Deep Question,html.Page,3_0_0_0_6_0_0,NA,NA,form submission,3451.14,376004,376000.2,376016.86,379468,379468,2023-05-26T12:06:20Z,379466.98,NULL,Lawine,banguko,d,NA,NA,NA,jföaksjf,NA,NA,0,NA,NA,NA,NA,NA,NA,NA,NA,NA,NA,NA,NA,NA,NA,NA,NA,NA,NA,NA
f23e1,"""Richtig""-Screen",canvas.Screen,3_0_0_0_6_0_1,NA,NA,skipped,NA,379472,NA,NA,379468,379472,2023-05-26T12:06:21Z,379466.98,NULL,Lawine,banguko,d,NA,NA,NA,NA,sdf,NA,0,NA,NA,NA,NA,NA,NA,NA,NA,NA,NA,NA,NA,NA,NA,NA,NA,NA,NA,NA
f23e1,"""Falsch""-Screen",canvas.Screen,3_0_0_0_6_0_2,NA,NA,timeout,4998.78,379475,379466.58,379466.98,384449.1,384450,2023-05-26T12:06:25Z,384465.76,NULL,Lawine,banguko,d,NA,NA,NA,NA,sdf,0,0,NA,NA,NA,NA,NA,NA,NA,NA,NA,NA,NA,NA,NA,NA,NA,NA,NA,NA,NA
f23e1,deep,flow.Sequence,3_0_0_0_6_0,NA,NA,completion,8432.24,376004,376000.2,376016.86,384449.1,384450,2023-05-26T12:06:25Z,384465.76,NULL,Lawine,banguko,d,NA,NA,NA,NA,sdf,NA,0,NA,NA,NA,NA,NA,NA,NA,NA,NA,NA,NA,NA,NA,NA,NA,NA,NA,NA,NA
f23e1,shallow,flow.Sequence,3_0_0_0_6_1,NA,NA,skipped,NA,384451,NA,NA,384449.1,384451,2023-05-26T12:06:25Z,384465.76,NULL,Lawine,banguko,d,NA,NA,NA,NA,sdf,NA,0,NA,NA,NA,NA,NA,NA,NA,NA,NA,NA,NA,NA,NA,NA,NA,NA,NA,NA,NA
f23e1,task,flow.Sequence,3_0_0_0_6,NA,NA,completion,8432.24,376004,376000.2,376016.86,384449.1,384451,2023-05-26T12:06:25Z,384465.76,NULL,Lawine,banguko,d,NA,NA,NA,NA,sdf,NA,0,NA,NA,NA,NA,NA,NA,NA,NA,NA,NA,NA,NA,NA,NA,NA,NA,NA,NA,NA
f23e1,deep,flow.Sequence,3_0_0_0_7_0,NA,NA,skipped,NA,384452,NA,NA,384449.1,384452,2023-05-26T12:06:25Z,384465.76,NULL,Entwicklung,maendeleo,s,uangavu,mshindwa,badiliko,NA,sdf,NA,0,NA,NA,NA,NA,NA,NA,NA,NA,NA,NA,NA,NA,NA,NA,NA,NA,NA,NA,NA
f23e1,Shallow Question,html.Page,3_0_0_0_7_1_0,NA,NA,form submission,6144.24,384452,384449.1,384465.76,390610,390612,2023-05-26T12:06:32Z,390615.02,NULL,Entwicklung,maendeleo,s,uangavu,mshindwa,badiliko,maendeleo,NA,NA,0,NA,NA,NA,NA,NA,NA,NA,NA,NA,NA,NA,NA,NA,NA,NA,NA,NA,NA,NA
f23e1,"""Richtig""-Screen",canvas.Screen,3_0_0_0_7_1_1,NA,NA,timeout,4999.34,390614,390609.12,390615.02,395597.72,395600,2023-05-26T12:06:37Z,395614.36,NULL,Entwicklung,maendeleo,s,uangavu,mshindwa,badiliko,NA,sdf,1,0,NA,NA,NA,NA,NA,NA,NA,NA,NA,NA,NA,NA,NA,NA,NA,NA,NA,NA,NA
f23e1,"""Falsch""-Screen",canvas.Screen,3_0_0_0_7_1_2,NA,NA,skipped,NA,395606,NA,NA,395597.72,395606,2023-05-26T12:06:37Z,395614.36,NULL,Entwicklung,maendeleo,s,uangavu,mshindwa,badiliko,NA,sdf,NA,0,NA,NA,NA,NA,NA,NA,NA,NA,NA,NA,NA,NA,NA,NA,NA,NA,NA,NA,NA
f23e1,shallow,flow.Sequence,3_0_0_0_7_1,NA,NA,completion,11131.96,384452,384449.1,384465.76,395597.72,395607,2023-05-26T12:06:37Z,395614.36,NULL,Entwicklung,maendeleo,s,uangavu,mshindwa,badiliko,NA,sdf,NA,0,NA,NA,NA,NA,NA,NA,NA,NA,NA,NA,NA,NA,NA,NA,NA,NA,NA,NA,NA
f23e1,task,flow.Sequence,3_0_0_0_7,NA,NA,completion,11131.96,384452,384449.1,384465.76,395597.72,395607,2023-05-26T12:06:37Z,395614.36,NULL,Entwicklung,maendeleo,s,uangavu,mshindwa,badiliko,NA,sdf,NA,0,NA,NA,NA,NA,NA,NA,NA,NA,NA,NA,NA,NA,NA,NA,NA,NA,NA,NA,NA
f23e1,block,flow.Loop,3_0_0_0,NA,NA,completion,88610.72,306986,306986.66,306987,395597.72,395608,2023-05-26T12:06:37Z,395614.36,NULL,NA,NA,NA,NA,NA,NA,NA,sdf,NA,0,NA,NA,NA,NA,NA,NA,NA,NA,NA,NA,NA,NA,NA,NA,NA,NA,NA,NA,NA
f23e1,weiter,canvas.Screen,3_0_0_1,sdf,keypress(Space),response,2162.64,395608,395597.72,395614.36,397777,397792,2023-05-26T12:06:39Z,397868.74,NULL,NA,NA,NA,NA,NA,NA,NA,sdf,NA,0,NA,NA,NA,NA,NA,NA,NA,NA,NA,NA,NA,NA,NA,NA,NA,NA,NA,NA,NA
f23e1,check continue,flow.Sequence,3_0_0,NA,NA,completion,90790,306986,306986.66,306987,397777,397793,2023-05-26T12:06:39Z,397868.74,NULL,NA,NA,NA,NA,NA,NA,NA,sdf,NA,0,NA,NA,NA,NA,NA,NA,NA,NA,NA,NA,NA,NA,NA,NA,NA,NA,NA,NA,NA
f23e1,Deep Question,html.Page,3_0_1_0_0_0_0,NA,NA,form submission,5235.26,397869,397868.38,397868.74,403104,403104,2023-05-26T12:06:44Z,403113.16,NULL,Lawine,banguko,d,NA,NA,NA,katidu,NA,NA,1,NA,NA,NA,NA,NA,NA,NA,NA,NA,NA,NA,NA,NA,NA,NA,NA,NA,NA,NA
f23e1,"""Richtig""-Screen",canvas.Screen,3_0_1_0_0_0_1,NA,NA,skipped,NA,403106,NA,NA,403104,403106,2023-05-26T12:06:44Z,403113.16,NULL,Lawine,banguko,d,NA,NA,NA,NA,sdfdsf,NA,1,NA,NA,NA,NA,NA,NA,NA,NA,NA,NA,NA,NA,NA,NA,NA,NA,NA,NA,NA
f23e1,"""Falsch""-Screen",canvas.Screen,3_0_1_0_0_0_2,NA,NA,timeout,4999.48,403108,403103.04,403113.16,408095.98,408101,2023-05-26T12:06:49Z,408112.64,NULL,Lawine,banguko,d,NA,NA,NA,NA,sdfdsf,0,1,NA,NA,NA,NA,NA,NA,NA,NA,NA,NA,NA,NA,NA,NA,NA,NA,NA,NA,NA
f23e1,deep,flow.Sequence,3_0_1_0_0_0,NA,NA,completion,10227.24,397869,397868.38,397868.74,408095.98,408106,2023-05-26T12:06:49Z,408112.64,NULL,Lawine,banguko,d,NA,NA,NA,NA,sdfdsf,NA,1,NA,NA,NA,NA,NA,NA,NA,NA,NA,NA,NA,NA,NA,NA,NA,NA,NA,NA,NA
f23e1,shallow,flow.Sequence,3_0_1_0_0_1,NA,NA,skipped,NA,408108,NA,NA,408095.98,408108,2023-05-26T12:06:49Z,408112.64,NULL,Lawine,banguko,d,NA,NA,NA,NA,sdfdsf,NA,1,NA,NA,NA,NA,NA,NA,NA,NA,NA,NA,NA,NA,NA,NA,NA,NA,NA,NA,NA
f23e1,task,flow.Sequence,3_0_1_0_0,NA,NA,completion,10227.24,397869,397868.38,397868.74,408095.98,408111,2023-05-26T12:06:49Z,408112.64,NULL,Lawine,banguko,d,NA,NA,NA,NA,sdfdsf,NA,1,NA,NA,NA,NA,NA,NA,NA,NA,NA,NA,NA,NA,NA,NA,NA,NA,NA,NA,NA
f23e1,Deep Question,html.Page,3_0_1_0_1_0_0,NA,NA,form submission,5322.36,408112,408095.98,408112.64,413435,413436,2023-05-26T12:06:54Z,413445.44,NULL,Niveau,kiwango,d,NA,NA,NA,maltemo,NA,NA,1,NA,NA,NA,NA,NA,NA,NA,NA,NA,NA,NA,NA,NA,NA,NA,NA,NA,NA,NA
f23e1,"""Richtig""-Screen",canvas.Screen,3_0_1_0_1_0_1,NA,NA,skipped,NA,413443,NA,NA,413435,413443,2023-05-26T12:06:54Z,413445.44,NULL,Niveau,kiwango,d,NA,NA,NA,NA,sdfdsf,NA,1,NA,NA,NA,NA,NA,NA,NA,NA,NA,NA,NA,NA,NA,NA,NA,NA,NA,NA,NA
f23e1,"""Falsch""-Screen",canvas.Screen,3_0_1_0_1_0_2,NA,NA,timeout,4999.36,413447,413432.78,413445.44,418428.14,418431,2023-05-26T12:06:59Z,418444.8,NULL,Niveau,kiwango,d,NA,NA,NA,NA,sdfdsf,0,1,NA,NA,NA,NA,NA,NA,NA,NA,NA,NA,NA,NA,NA,NA,NA,NA,NA,NA,NA
f23e1,deep,flow.Sequence,3_0_1_0_1_0,NA,NA,completion,10315.5,408112,408095.98,408112.64,418428.14,418433,2023-05-26T12:06:59Z,418444.8,NULL,Niveau,kiwango,d,NA,NA,NA,NA,sdfdsf,NA,1,NA,NA,NA,NA,NA,NA,NA,NA,NA,NA,NA,NA,NA,NA,NA,NA,NA,NA,NA
f23e1,shallow,flow.Sequence,3_0_1_0_1_1,NA,NA,skipped,NA,418433,NA,NA,418428.14,418434,2023-05-26T12:06:59Z,418444.8,NULL,Niveau,kiwango,d,NA,NA,NA,NA,sdfdsf,NA,1,NA,NA,NA,NA,NA,NA,NA,NA,NA,NA,NA,NA,NA,NA,NA,NA,NA,NA,NA
f23e1,task,flow.Sequence,3_0_1_0_1,NA,NA,completion,10315.5,408111,408095.98,408112.64,418428.14,418436,2023-05-26T12:06:59Z,418444.8,NULL,Niveau,kiwango,d,NA,NA,NA,NA,sdfdsf,NA,1,NA,NA,NA,NA,NA,NA,NA,NA,NA,NA,NA,NA,NA,NA,NA,NA,NA,NA,NA
f23e1,Deep Question,html.Page,3_0_1_0_2_0_0,NA,NA,form submission,6594.2,418438,418428.14,418444.8,425039,425040,2023-05-26T12:07:06Z,425044,NULL,Papier,karatasi,d,NA,NA,NA,mantago,NA,NA,1,NA,NA,NA,NA,NA,NA,NA,NA,NA,NA,NA,NA,NA,NA,NA,NA,NA,NA,NA
f23e1,"""Richtig""-Screen",canvas.Screen,3_0_1_0_2_0_1,NA,NA,skipped,NA,425044,NA,NA,425039,425044,2023-05-26T12:07:06Z,425044,NULL,Papier,karatasi,d,NA,NA,NA,NA,sdfdsf,NA,1,NA,NA,NA,NA,NA,NA,NA,NA,NA,NA,NA,NA,NA,NA,NA,NA,NA,NA,NA
f23e1,"""Falsch""-Screen",canvas.Screen,3_0_1_0_2_0_2,NA,NA,timeout,4999.3,425048,425037.52,425044,430026.64,430029,2023-05-26T12:07:11Z,430043.3,NULL,Papier,karatasi,d,NA,NA,NA,NA,sdfdsf,0,1,NA,NA,NA,NA,NA,NA,NA,NA,NA,NA,NA,NA,NA,NA,NA,NA,NA,NA,NA
f23e1,deep,flow.Sequence,3_0_1_0_2_0,NA,NA,completion,11581.84,418438,418428.14,418444.8,430026.64,430030,2023-05-26T12:07:11Z,430043.3,NULL,Papier,karatasi,d,NA,NA,NA,NA,sdfdsf,NA,1,NA,NA,NA,NA,NA,NA,NA,NA,NA,NA,NA,NA,NA,NA,NA,NA,NA,NA,NA
f23e1,shallow,flow.Sequence,3_0_1_0_2_1,NA,NA,skipped,NA,430031,NA,NA,430026.64,430031,2023-05-26T12:07:11Z,430043.3,NULL,Papier,karatasi,d,NA,NA,NA,NA,sdfdsf,NA,1,NA,NA,NA,NA,NA,NA,NA,NA,NA,NA,NA,NA,NA,NA,NA,NA,NA,NA,NA
f23e1,task,flow.Sequence,3_0_1_0_2,NA,NA,completion,11581.84,418438,418428.14,418444.8,430026.64,430032,2023-05-26T12:07:11Z,430043.3,NULL,Papier,karatasi,d,NA,NA,NA,NA,sdfdsf,NA,1,NA,NA,NA,NA,NA,NA,NA,NA,NA,NA,NA,NA,NA,NA,NA,NA,NA,NA,NA
f23e1,deep,flow.Sequence,3_0_1_0_3_0,NA,NA,skipped,NA,430032,NA,NA,430026.64,430033,2023-05-26T12:07:11Z,430043.3,NULL,Vorwurf,mashtaka,s,msukumo,mtangulizi,uenyekiti,NA,sdfdsf,NA,1,NA,NA,NA,NA,NA,NA,NA,NA,NA,NA,NA,NA,NA,NA,NA,NA,NA,NA,NA
f23e1,Shallow Question,html.Page,3_0_1_0_3_1_0,NA,NA,form submission,8175.7,430034,430026.64,430043.3,438219,438219,2023-05-26T12:07:19Z,438225.54,NULL,Vorwurf,mashtaka,s,msukumo,mtangulizi,uenyekiti,mashtaka,NA,NA,1,NA,NA,NA,NA,NA,NA,NA,NA,NA,NA,NA,NA,NA,NA,NA,NA,NA,NA,NA
f23e1,"""Richtig""-Screen",canvas.Screen,3_0_1_0_3_1_1,NA,NA,timeout,4999.44,438226,438211.84,438225.54,443208.32,443211,2023-05-26T12:07:24Z,443224.98,NULL,Vorwurf,mashtaka,s,msukumo,mtangulizi,uenyekiti,NA,sdfdsf,1,1,NA,NA,NA,NA,NA,NA,NA,NA,NA,NA,NA,NA,NA,NA,NA,NA,NA,NA,NA
f23e1,"""Falsch""-Screen",canvas.Screen,3_0_1_0_3_1_2,NA,NA,skipped,NA,443220,NA,NA,443208.32,443221,2023-05-26T12:07:24Z,443224.98,NULL,Vorwurf,mashtaka,s,msukumo,mtangulizi,uenyekiti,NA,sdfdsf,NA,1,NA,NA,NA,NA,NA,NA,NA,NA,NA,NA,NA,NA,NA,NA,NA,NA,NA,NA,NA
f23e1,shallow,flow.Sequence,3_0_1_0_3_1,NA,NA,completion,13165.02,430033,430026.64,430043.3,443208.32,443221,2023-05-26T12:07:24Z,443224.98,NULL,Vorwurf,mashtaka,s,msukumo,mtangulizi,uenyekiti,NA,sdfdsf,NA,1,NA,NA,NA,NA,NA,NA,NA,NA,NA,NA,NA,NA,NA,NA,NA,NA,NA,NA,NA
f23e1,task,flow.Sequence,3_0_1_0_3,NA,NA,completion,13165.02,430032,430026.64,430043.3,443208.32,443222,2023-05-26T12:07:24Z,443224.98,NULL,Vorwurf,mashtaka,s,msukumo,mtangulizi,uenyekiti,NA,sdfdsf,NA,1,NA,NA,NA,NA,NA,NA,NA,NA,NA,NA,NA,NA,NA,NA,NA,NA,NA,NA,NA
f23e1,deep,flow.Sequence,3_0_1_0_4_0,NA,NA,skipped,NA,443223,NA,NA,443208.32,443223,2023-05-26T12:07:24Z,443224.98,NULL,Übersicht,kilindo,s,mgusano,chipukizi,kulinganisha,NA,sdfdsf,NA,1,NA,NA,NA,NA,NA,NA,NA,NA,NA,NA,NA,NA,NA,NA,NA,NA,NA,NA,NA
f23e1,Shallow Question,html.Page,3_0_1_0_4_1_0,NA,NA,form submission,6019.02,443224,443208.32,443224.98,449244,449244,2023-05-26T12:07:30Z,449243.4,NULL,Übersicht,kilindo,s,mgusano,chipukizi,kulinganisha,kilindo,NA,NA,1,NA,NA,NA,NA,NA,NA,NA,NA,NA,NA,NA,NA,NA,NA,NA,NA,NA,NA,NA
f23e1,"""Richtig""-Screen",canvas.Screen,3_0_1_0_4_1_1,NA,NA,timeout,4996.78,449248,449242.82,449243.4,454223.52,454225,2023-05-26T12:07:35Z,454240.18,NULL,Übersicht,kilindo,s,mgusano,chipukizi,kulinganisha,NA,sdfdsf,1,1,NA,NA,NA,NA,NA,NA,NA,NA,NA,NA,NA,NA,NA,NA,NA,NA,NA,NA,NA
f23e1,"""Falsch""-Screen",canvas.Screen,3_0_1_0_4_1_2,NA,NA,skipped,NA,454232,NA,NA,454223.52,454232,2023-05-26T12:07:35Z,454240.18,NULL,Übersicht,kilindo,s,mgusano,chipukizi,kulinganisha,NA,sdfdsf,NA,1,NA,NA,NA,NA,NA,NA,NA,NA,NA,NA,NA,NA,NA,NA,NA,NA,NA,NA,NA
f23e1,shallow,flow.Sequence,3_0_1_0_4_1,NA,NA,completion,10998.54,443223,443208.32,443224.98,454223.52,454233,2023-05-26T12:07:35Z,454240.18,NULL,Übersicht,kilindo,s,mgusano,chipukizi,kulinganisha,NA,sdfdsf,NA,1,NA,NA,NA,NA,NA,NA,NA,NA,NA,NA,NA,NA,NA,NA,NA,NA,NA,NA,NA
f23e1,task,flow.Sequence,3_0_1_0_4,NA,NA,completion,10998.54,443223,443208.32,443224.98,454223.52,454233,2023-05-26T12:07:35Z,454240.18,NULL,Übersicht,kilindo,s,mgusano,chipukizi,kulinganisha,NA,sdfdsf,NA,1,NA,NA,NA,NA,NA,NA,NA,NA,NA,NA,NA,NA,NA,NA,NA,NA,NA,NA,NA
f23e1,Deep Question,html.Page,3_0_1_0_5_0_0,NA,NA,form submission,5305.82,454234,454223.52,454240.18,459546,459546,2023-05-26T12:07:41Z,459544.26,NULL,System,maongozi,d,NA,NA,NA,mantego,NA,NA,1,NA,NA,NA,NA,NA,NA,NA,NA,NA,NA,NA,NA,NA,NA,NA,NA,NA,NA,NA
f23e1,"""Richtig""-Screen",canvas.Screen,3_0_1_0_5_0_1,NA,NA,skipped,NA,459549,NA,NA,459546,459549,2023-05-26T12:07:41Z,459544.26,NULL,System,maongozi,d,NA,NA,NA,NA,sdfdsf,NA,1,NA,NA,NA,NA,NA,NA,NA,NA,NA,NA,NA,NA,NA,NA,NA,NA,NA,NA,NA
f23e1,"""Falsch""-Screen",canvas.Screen,3_0_1_0_5_0_2,NA,NA,timeout,4994.66,459552,459543.84,459544.26,464522.34,464524,2023-05-26T12:07:46Z,464538.92,NULL,System,maongozi,d,NA,NA,NA,NA,sdfdsf,0,1,NA,NA,NA,NA,NA,NA,NA,NA,NA,NA,NA,NA,NA,NA,NA,NA,NA,NA,NA
f23e1,deep,flow.Sequence,3_0_1_0_5_0,NA,NA,completion,10282.16,454234,454223.52,454240.18,464522.34,464524,2023-05-26T12:07:46Z,464538.92,NULL,System,maongozi,d,NA,NA,NA,NA,sdfdsf,NA,1,NA,NA,NA,NA,NA,NA,NA,NA,NA,NA,NA,NA,NA,NA,NA,NA,NA,NA,NA
f23e1,shallow,flow.Sequence,3_0_1_0_5_1,NA,NA,skipped,NA,464524,NA,NA,464522.34,464524,2023-05-26T12:07:46Z,464538.92,NULL,System,maongozi,d,NA,NA,NA,NA,sdfdsf,NA,1,NA,NA,NA,NA,NA,NA,NA,NA,NA,NA,NA,NA,NA,NA,NA,NA,NA,NA,NA
f23e1,task,flow.Sequence,3_0_1_0_5,NA,NA,completion,10282.16,454234,454223.52,454240.18,464522.34,464525,2023-05-26T12:07:46Z,464538.92,NULL,System,maongozi,d,NA,NA,NA,NA,sdfdsf,NA,1,NA,NA,NA,NA,NA,NA,NA,NA,NA,NA,NA,NA,NA,NA,NA,NA,NA,NA,NA
f23e1,deep,flow.Sequence,3_0_1_0_6_0,NA,NA,skipped,NA,464525,NA,NA,464522.34,464525,2023-05-26T12:07:46Z,464538.92,NULL,Entwicklung,maendeleo,s,uangavu,mshindwa,badiliko,NA,sdfdsf,NA,1,NA,NA,NA,NA,NA,NA,NA,NA,NA,NA,NA,NA,NA,NA,NA,NA,NA,NA,NA
f23e1,Shallow Question,html.Page,3_0_1_0_6_1_0,NA,NA,form submission,5262.08,464525,464522.34,464538.92,469801,469801,2023-05-26T12:07:51Z,469804.96,NULL,Entwicklung,maendeleo,s,uangavu,mshindwa,badiliko,maendeleo,NA,NA,1,NA,NA,NA,NA,NA,NA,NA,NA,NA,NA,NA,NA,NA,NA,NA,NA,NA,NA,NA
f23e1,"""Richtig""-Screen",canvas.Screen,3_0_1_0_6_1_1,NA,NA,timeout,5015.98,469804,469798.96,469804.96,474787.66,474791,2023-05-26T12:07:56Z,474820.94,NULL,Entwicklung,maendeleo,s,uangavu,mshindwa,badiliko,NA,sdfdsf,1,1,NA,NA,NA,NA,NA,NA,NA,NA,NA,NA,NA,NA,NA,NA,NA,NA,NA,NA,NA
f23e1,"""Falsch""-Screen",canvas.Screen,3_0_1_0_6_1_2,NA,NA,skipped,NA,474812,NA,NA,474787.66,474814,2023-05-26T12:07:56Z,474820.94,NULL,Entwicklung,maendeleo,s,uangavu,mshindwa,badiliko,NA,sdfdsf,NA,1,NA,NA,NA,NA,NA,NA,NA,NA,NA,NA,NA,NA,NA,NA,NA,NA,NA,NA,NA
f23e1,shallow,flow.Sequence,3_0_1_0_6_1,NA,NA,completion,10248.74,464525,464522.34,464538.92,474787.66,474814,2023-05-26T12:07:56Z,474820.94,NULL,Entwicklung,maendeleo,s,uangavu,mshindwa,badiliko,NA,sdfdsf,NA,1,NA,NA,NA,NA,NA,NA,NA,NA,NA,NA,NA,NA,NA,NA,NA,NA,NA,NA,NA
f23e1,task,flow.Sequence,3_0_1_0_6,NA,NA,completion,10248.74,464525,464522.34,464538.92,474787.66,474815,2023-05-26T12:07:56Z,474820.94,NULL,Entwicklung,maendeleo,s,uangavu,mshindwa,badiliko,NA,sdfdsf,NA,1,NA,NA,NA,NA,NA,NA,NA,NA,NA,NA,NA,NA,NA,NA,NA,NA,NA,NA,NA
f23e1,deep,flow.Sequence,3_0_1_0_7_0,NA,NA,skipped,NA,474816,NA,NA,474787.66,474816,2023-05-26T12:07:56Z,474820.94,NULL,Körper,kiwiliwili,s,mapambano,mpatanishi,kiolezo,NA,sdfdsf,NA,1,NA,NA,NA,NA,NA,NA,NA,NA,NA,NA,NA,NA,NA,NA,NA,NA,NA,NA,NA
f23e1,Shallow Question,html.Page,3_0_1_0_7_1_0,NA,NA,form submission,3570.06,474817,474787.66,474820.94,478391,478392,2023-05-26T12:07:59Z,478387.14,NULL,Körper,kiwiliwili,s,mapambano,mpatanishi,kiolezo,kiwiliwili,NA,NA,1,NA,NA,NA,NA,NA,NA,NA,NA,NA,NA,NA,NA,NA,NA,NA,NA,NA,NA,NA
f23e1,"""Richtig""-Screen",canvas.Screen,3_0_1_0_7_1_1,NA,NA,timeout,4999.44,478400,478384.54,478387.14,483369.92,483372,2023-05-26T12:08:04Z,483386.58,NULL,Körper,kiwiliwili,s,mapambano,mpatanishi,kiolezo,NA,sdfdsf,1,1,NA,NA,NA,NA,NA,NA,NA,NA,NA,NA,NA,NA,NA,NA,NA,NA,NA,NA,NA
f23e1,"""Falsch""-Screen",canvas.Screen,3_0_1_0_7_1_2,NA,NA,skipped,NA,483381,NA,NA,483369.92,483382,2023-05-26T12:08:04Z,483386.58,NULL,Körper,kiwiliwili,s,mapambano,mpatanishi,kiolezo,NA,sdfdsf,NA,1,NA,NA,NA,NA,NA,NA,NA,NA,NA,NA,NA,NA,NA,NA,NA,NA,NA,NA,NA
f23e1,shallow,flow.Sequence,3_0_1_0_7_1,NA,NA,completion,8548.98,474817,474787.66,474820.94,483369.92,483383,2023-05-26T12:08:04Z,483386.58,NULL,Körper,kiwiliwili,s,mapambano,mpatanishi,kiolezo,NA,sdfdsf,NA,1,NA,NA,NA,NA,NA,NA,NA,NA,NA,NA,NA,NA,NA,NA,NA,NA,NA,NA,NA
f23e1,task,flow.Sequence,3_0_1_0_7,NA,NA,completion,8548.98,474816,474787.66,474820.94,483369.92,483384,2023-05-26T12:08:04Z,483386.58,NULL,Körper,kiwiliwili,s,mapambano,mpatanishi,kiolezo,NA,sdfdsf,NA,1,NA,NA,NA,NA,NA,NA,NA,NA,NA,NA,NA,NA,NA,NA,NA,NA,NA,NA,NA
f23e1,block,flow.Loop,3_0_1_0,NA,NA,completion,85501.18,397869,397868.38,397868.74,483369.92,483385,2023-05-26T12:08:04Z,483386.58,NULL,NA,NA,NA,NA,NA,NA,NA,sdfdsf,NA,1,NA,NA,NA,NA,NA,NA,NA,NA,NA,NA,NA,NA,NA,NA,NA,NA,NA,NA,NA
f23e1,weiter,canvas.Screen,3_0_1_1,sdf,keypress(Space),response,1296.42,483386,483369.92,483386.58,484683,484697,2023-05-26T12:08:06Z,484771.58,NULL,NA,NA,NA,NA,NA,NA,NA,sdfdsf,NA,1,NA,NA,NA,NA,NA,NA,NA,NA,NA,NA,NA,NA,NA,NA,NA,NA,NA,NA,NA
f23e1,check continue,flow.Sequence,3_0_1,NA,NA,completion,86814.26,397869,397868.38,397868.74,484683,484698,2023-05-26T12:08:06Z,484771.58,NULL,NA,NA,NA,NA,NA,NA,NA,sdfdsf,NA,1,NA,NA,NA,NA,NA,NA,NA,NA,NA,NA,NA,NA,NA,NA,NA,NA,NA,NA,NA
f23e1,deep,flow.Sequence,3_0_2_0_0_0,NA,NA,skipped,NA,484771,NA,NA,484683,484771,2023-05-26T12:08:06Z,484771.58,NULL,Vorwurf,mashtaka,s,msukumo,mtangulizi,uenyekiti,NA,sdf,NA,2,NA,NA,NA,NA,NA,NA,NA,NA,NA,NA,NA,NA,NA,NA,NA,NA,NA,NA,NA
f23e1,Shallow Question,html.Page,3_0_2_0_0_1_0,NA,NA,form submission,4753.42,484771,484771.22,484771.58,489525,489526,2023-05-26T12:08:11Z,489535.7,NULL,Vorwurf,mashtaka,s,msukumo,mtangulizi,uenyekiti,mashtaka,NA,NA,2,NA,NA,NA,NA,NA,NA,NA,NA,NA,NA,NA,NA,NA,NA,NA,NA,NA,NA,NA
f23e1,"""Richtig""-Screen",canvas.Screen,3_0_2_0_0_1_1,NA,NA,timeout,4999.44,489528,489523.94,489535.7,494518.48,494521,2023-05-26T12:08:16Z,494535.14,NULL,Vorwurf,mashtaka,s,msukumo,mtangulizi,uenyekiti,NA,sdf,1,2,NA,NA,NA,NA,NA,NA,NA,NA,NA,NA,NA,NA,NA,NA,NA,NA,NA,NA,NA
f23e1,"""Falsch""-Screen",canvas.Screen,3_0_2_0_0_1_2,NA,NA,skipped,NA,494527,NA,NA,494518.48,494528,2023-05-26T12:08:16Z,494535.14,NULL,Vorwurf,mashtaka,s,msukumo,mtangulizi,uenyekiti,NA,sdf,NA,2,NA,NA,NA,NA,NA,NA,NA,NA,NA,NA,NA,NA,NA,NA,NA,NA,NA,NA,NA
f23e1,shallow,flow.Sequence,3_0_2_0_0_1,NA,NA,completion,9746.9,484771,484771.22,484771.58,494518.48,494529,2023-05-26T12:08:16Z,494535.14,NULL,Vorwurf,mashtaka,s,msukumo,mtangulizi,uenyekiti,NA,sdf,NA,2,NA,NA,NA,NA,NA,NA,NA,NA,NA,NA,NA,NA,NA,NA,NA,NA,NA,NA,NA
f23e1,task,flow.Sequence,3_0_2_0_0,NA,NA,completion,9746.9,484771,484771.22,484771.58,494518.48,494529,2023-05-26T12:08:16Z,494535.14,NULL,Vorwurf,mashtaka,s,msukumo,mtangulizi,uenyekiti,NA,sdf,NA,2,NA,NA,NA,NA,NA,NA,NA,NA,NA,NA,NA,NA,NA,NA,NA,NA,NA,NA,NA
f23e1,Deep Question,html.Page,3_0_2_0_1_0_0,NA,NA,form submission,8864.86,494529,494518.48,494535.14,503400,503400,2023-05-26T12:08:24Z,503400.66,NULL,Lawine,banguko,d,NA,NA,NA,bangok,NA,NA,2,NA,NA,NA,NA,NA,NA,NA,NA,NA,NA,NA,NA,NA,NA,NA,NA,NA,NA,NA
f23e1,"""Richtig""-Screen",canvas.Screen,3_0_2_0_1_0_1,NA,NA,skipped,NA,503402,NA,NA,503400,503402,2023-05-26T12:08:24Z,503400.66,NULL,Lawine,banguko,d,NA,NA,NA,NA,sdf,NA,2,NA,NA,NA,NA,NA,NA,NA,NA,NA,NA,NA,NA,NA,NA,NA,NA,NA,NA,NA
f23e1,"""Falsch""-Screen",canvas.Screen,3_0_2_0_1_0_2,NA,NA,timeout,4999.36,503404,503398.62,503400.66,508383.4,508385,2023-05-26T12:08:29Z,508400.02,NULL,Lawine,banguko,d,NA,NA,NA,NA,sdf,0,2,NA,NA,NA,NA,NA,NA,NA,NA,NA,NA,NA,NA,NA,NA,NA,NA,NA,NA,NA
f23e1,deep,flow.Sequence,3_0_2_0_1_0,NA,NA,completion,13848.26,494529,494518.48,494535.14,508383.4,508386,2023-05-26T12:08:29Z,508400.02,NULL,Lawine,banguko,d,NA,NA,NA,NA,sdf,NA,2,NA,NA,NA,NA,NA,NA,NA,NA,NA,NA,NA,NA,NA,NA,NA,NA,NA,NA,NA
f23e1,shallow,flow.Sequence,3_0_2_0_1_1,NA,NA,skipped,NA,508386,NA,NA,508383.4,508387,2023-05-26T12:08:29Z,508400.02,NULL,Lawine,banguko,d,NA,NA,NA,NA,sdf,NA,2,NA,NA,NA,NA,NA,NA,NA,NA,NA,NA,NA,NA,NA,NA,NA,NA,NA,NA,NA
f23e1,task,flow.Sequence,3_0_2_0_1,NA,NA,completion,13848.26,494529,494518.48,494535.14,508383.4,508387,2023-05-26T12:08:29Z,508400.02,NULL,Lawine,banguko,d,NA,NA,NA,NA,sdf,NA,2,NA,NA,NA,NA,NA,NA,NA,NA,NA,NA,NA,NA,NA,NA,NA,NA,NA,NA,NA
f23e1,Deep Question,html.Page,3_0_2_0_2_0_0,NA,NA,form submission,4116.98,508388,508383.4,508400.02,512517,512518,2023-05-26T12:08:34Z,512516.26,NULL,Niveau,kiwango,d,NA,NA,NA,mantego,NA,NA,2,NA,NA,NA,NA,NA,NA,NA,NA,NA,NA,NA,NA,NA,NA,NA,NA,NA,NA,NA
f23e1,"""Richtig""-Screen",canvas.Screen,3_0_2_0_2_0_1,NA,NA,skipped,NA,512520,NA,NA,512517,512521,2023-05-26T12:08:34Z,512516.26,NULL,Niveau,kiwango,d,NA,NA,NA,NA,sdf,NA,2,NA,NA,NA,NA,NA,NA,NA,NA,NA,NA,NA,NA,NA,NA,NA,NA,NA,NA,NA
f23e1,"""Falsch""-Screen",canvas.Screen,3_0_2_0_2_0_2,NA,NA,timeout,4999.28,512523,512515.6,512516.26,517498.94,517501,2023-05-26T12:08:39Z,517515.54,NULL,Niveau,kiwango,d,NA,NA,NA,NA,sdf,0,2,NA,NA,NA,NA,NA,NA,NA,NA,NA,NA,NA,NA,NA,NA,NA,NA,NA,NA,NA
f23e1,deep,flow.Sequence,3_0_2_0_2_0,NA,NA,completion,9098.92,508388,508383.4,508400.02,517498.94,517502,2023-05-26T12:08:39Z,517515.54,NULL,Niveau,kiwango,d,NA,NA,NA,NA,sdf,NA,2,NA,NA,NA,NA,NA,NA,NA,NA,NA,NA,NA,NA,NA,NA,NA,NA,NA,NA,NA
f23e1,shallow,flow.Sequence,3_0_2_0_2_1,NA,NA,skipped,NA,517503,NA,NA,517498.94,517503,2023-05-26T12:08:39Z,517515.54,NULL,Niveau,kiwango,d,NA,NA,NA,NA,sdf,NA,2,NA,NA,NA,NA,NA,NA,NA,NA,NA,NA,NA,NA,NA,NA,NA,NA,NA,NA,NA
f23e1,task,flow.Sequence,3_0_2_0_2,NA,NA,completion,9098.92,508387,508383.4,508400.02,517498.94,517504,2023-05-26T12:08:39Z,517515.54,NULL,Niveau,kiwango,d,NA,NA,NA,NA,sdf,NA,2,NA,NA,NA,NA,NA,NA,NA,NA,NA,NA,NA,NA,NA,NA,NA,NA,NA,NA,NA
f23e1,deep,flow.Sequence,3_0_2_0_3_0,NA,NA,skipped,NA,517504,NA,NA,517498.94,517505,2023-05-26T12:08:39Z,517515.54,NULL,Körper,kiwiliwili,s,mapambano,mpatanishi,kiolezo,NA,sdf,NA,2,NA,NA,NA,NA,NA,NA,NA,NA,NA,NA,NA,NA,NA,NA,NA,NA,NA,NA,NA
f23e1,Shallow Question,html.Page,3_0_2_0_3_1_0,NA,NA,form submission,5093.46,517505,517498.94,517515.54,522609,522610,2023-05-26T12:08:44Z,522614.94,NULL,Körper,kiwiliwili,s,mapambano,mpatanishi,kiolezo,kiwiliwili,NA,NA,2,NA,NA,NA,NA,NA,NA,NA,NA,NA,NA,NA,NA,NA,NA,NA,NA,NA,NA,NA
f23e1,"""Richtig""-Screen",canvas.Screen,3_0_2_0_3_1_1,NA,NA,timeout,4999.32,522616,522601.14,522614.94,527597.6,527600,2023-05-26T12:08:49Z,527614.26,NULL,Körper,kiwiliwili,s,mapambano,mpatanishi,kiolezo,NA,sdf,1,2,NA,NA,NA,NA,NA,NA,NA,NA,NA,NA,NA,NA,NA,NA,NA,NA,NA,NA,NA
f23e1,"""Falsch""-Screen",canvas.Screen,3_0_2_0_3_1_2,NA,NA,skipped,NA,527608,NA,NA,527597.6,527609,2023-05-26T12:08:49Z,527614.26,NULL,Körper,kiwiliwili,s,mapambano,mpatanishi,kiolezo,NA,sdf,NA,2,NA,NA,NA,NA,NA,NA,NA,NA,NA,NA,NA,NA,NA,NA,NA,NA,NA,NA,NA
f23e1,shallow,flow.Sequence,3_0_2_0_3_1,NA,NA,completion,10082.06,517505,517498.94,517515.54,527597.6,527609,2023-05-26T12:08:49Z,527614.26,NULL,Körper,kiwiliwili,s,mapambano,mpatanishi,kiolezo,NA,sdf,NA,2,NA,NA,NA,NA,NA,NA,NA,NA,NA,NA,NA,NA,NA,NA,NA,NA,NA,NA,NA
f23e1,task,flow.Sequence,3_0_2_0_3,NA,NA,completion,10082.06,517504,517498.94,517515.54,527597.6,527610,2023-05-26T12:08:49Z,527614.26,NULL,Körper,kiwiliwili,s,mapambano,mpatanishi,kiolezo,NA,sdf,NA,2,NA,NA,NA,NA,NA,NA,NA,NA,NA,NA,NA,NA,NA,NA,NA,NA,NA,NA,NA
f23e1,Deep Question,html.Page,3_0_2_0_4_0_0,NA,NA,form submission,7049.74,527611,527597.6,527614.26,534664,534664,2023-05-26T12:08:56Z,534663.44,NULL,System,maongozi,d,NA,NA,NA,mantido,NA,NA,2,NA,NA,NA,NA,NA,NA,NA,NA,NA,NA,NA,NA,NA,NA,NA,NA,NA,NA,NA
f23e1,"""Richtig""-Screen",canvas.Screen,3_0_2_0_4_0_1,NA,NA,skipped,NA,534667,NA,NA,534664,534668,2023-05-26T12:08:56Z,534663.44,NULL,System,maongozi,d,NA,NA,NA,NA,sdf,NA,2,NA,NA,NA,NA,NA,NA,NA,NA,NA,NA,NA,NA,NA,NA,NA,NA,NA,NA,NA
f23e1,"""Falsch""-Screen",canvas.Screen,3_0_2_0_4_0_2,NA,NA,timeout,4999.3400000001,534671,534661.9,534663.44,539646.12,539648,2023-05-26T12:09:01Z,539662.78,NULL,System,maongozi,d,NA,NA,NA,NA,sdf,0,2,NA,NA,NA,NA,NA,NA,NA,NA,NA,NA,NA,NA,NA,NA,NA,NA,NA,NA,NA
f23e1,deep,flow.Sequence,3_0_2_0_4_0,NA,NA,completion,12031.86,527611,527597.6,527614.26,539646.12,539649,2023-05-26T12:09:01Z,539662.78,NULL,System,maongozi,d,NA,NA,NA,NA,sdf,NA,2,NA,NA,NA,NA,NA,NA,NA,NA,NA,NA,NA,NA,NA,NA,NA,NA,NA,NA,NA
f23e1,shallow,flow.Sequence,3_0_2_0_4_1,NA,NA,skipped,NA,539649,NA,NA,539646.12,539649,2023-05-26T12:09:01Z,539662.78,NULL,System,maongozi,d,NA,NA,NA,NA,sdf,NA,2,NA,NA,NA,NA,NA,NA,NA,NA,NA,NA,NA,NA,NA,NA,NA,NA,NA,NA,NA
f23e1,task,flow.Sequence,3_0_2_0_4,NA,NA,completion,12031.86,527611,527597.6,527614.26,539646.12,539650,2023-05-26T12:09:01Z,539662.78,NULL,System,maongozi,d,NA,NA,NA,NA,sdf,NA,2,NA,NA,NA,NA,NA,NA,NA,NA,NA,NA,NA,NA,NA,NA,NA,NA,NA,NA,NA
f23e1,deep,flow.Sequence,3_0_2_0_5_0,NA,NA,skipped,NA,539651,NA,NA,539646.12,539652,2023-05-26T12:09:01Z,539662.78,NULL,Entwicklung,maendeleo,s,uangavu,mshindwa,badiliko,NA,sdf,NA,2,NA,NA,NA,NA,NA,NA,NA,NA,NA,NA,NA,NA,NA,NA,NA,NA,NA,NA,NA
f23e1,Shallow Question,html.Page,3_0_2_0_5_1_0,NA,NA,form submission,6156.22,539653,539646.12,539662.78,545819,545820,2023-05-26T12:09:07Z,545828.6,NULL,Entwicklung,maendeleo,s,uangavu,mshindwa,badiliko,badiliko,NA,NA,2,NA,NA,NA,NA,NA,NA,NA,NA,NA,NA,NA,NA,NA,NA,NA,NA,NA,NA,NA
f23e1,"""Richtig""-Screen",canvas.Screen,3_0_2_0_5_1_1,NA,NA,skipped,NA,545824,NA,NA,545819,545825,2023-05-26T12:09:07Z,545828.6,NULL,Entwicklung,maendeleo,s,uangavu,mshindwa,badiliko,NA,sdf,NA,2,NA,NA,NA,NA,NA,NA,NA,NA,NA,NA,NA,NA,NA,NA,NA,NA,NA,NA,NA
f23e1,"""Falsch""-Screen",canvas.Screen,3_0_2_0_5_1_2,NA,NA,timeout,4999.42,545828,545814.4,545828.6,550811.44,550815,2023-05-26T12:09:12Z,550828.02,NULL,Entwicklung,maendeleo,s,uangavu,mshindwa,badiliko,NA,sdf,0,2,NA,NA,NA,NA,NA,NA,NA,NA,NA,NA,NA,NA,NA,NA,NA,NA,NA,NA,NA
f23e1,shallow,flow.Sequence,3_0_2_0_5_1,NA,NA,completion,11148.66,539652,539646.12,539662.78,550811.44,550818,2023-05-26T12:09:12Z,550828.02,NULL,Entwicklung,maendeleo,s,uangavu,mshindwa,badiliko,NA,sdf,NA,2,NA,NA,NA,NA,NA,NA,NA,NA,NA,NA,NA,NA,NA,NA,NA,NA,NA,NA,NA
f23e1,task,flow.Sequence,3_0_2_0_5,NA,NA,completion,11148.66,539651,539646.12,539662.78,550811.44,550819,2023-05-26T12:09:12Z,550828.02,NULL,Entwicklung,maendeleo,s,uangavu,mshindwa,badiliko,NA,sdf,NA,2,NA,NA,NA,NA,NA,NA,NA,NA,NA,NA,NA,NA,NA,NA,NA,NA,NA,NA,NA
f23e1,deep,flow.Sequence,3_0_2_0_6_0,NA,NA,skipped,NA,550820,NA,NA,550811.44,550820,2023-05-26T12:09:12Z,550828.02,NULL,Übersicht,kilindo,s,mgusano,chipukizi,kulinganisha,NA,sdf,NA,2,NA,NA,NA,NA,NA,NA,NA,NA,NA,NA,NA,NA,NA,NA,NA,NA,NA,NA,NA
f23e1,Shallow Question,html.Page,3_0_2_0_6_1_0,NA,NA,form submission,4419.98,550821,550811.44,550828.02,555248,555249,2023-05-26T12:09:16Z,555260.78,NULL,Übersicht,kilindo,s,mgusano,chipukizi,kulinganisha,mgusano,NA,NA,2,NA,NA,NA,NA,NA,NA,NA,NA,NA,NA,NA,NA,NA,NA,NA,NA,NA,NA,NA
f23e1,"""Richtig""-Screen",canvas.Screen,3_0_2_0_6_1_1,NA,NA,skipped,NA,555260,NA,NA,555248,555261,2023-05-26T12:09:16Z,555260.78,NULL,Übersicht,kilindo,s,mgusano,chipukizi,kulinganisha,NA,sdf,NA,2,NA,NA,NA,NA,NA,NA,NA,NA,NA,NA,NA,NA,NA,NA,NA,NA,NA,NA,NA
f23e1,"""Falsch""-Screen",canvas.Screen,3_0_2_0_6_1_2,NA,NA,timeout,4999.36,555267,555238.74,555260.78,560243.5,560245,2023-05-26T12:09:21Z,560260.14,NULL,Übersicht,kilindo,s,mgusano,chipukizi,kulinganisha,NA,sdf,0,2,NA,NA,NA,NA,NA,NA,NA,NA,NA,NA,NA,NA,NA,NA,NA,NA,NA,NA,NA
f23e1,shallow,flow.Sequence,3_0_2_0_6_1,NA,NA,completion,9415.48,550821,550811.44,550828.02,560243.5,560246,2023-05-26T12:09:21Z,560260.14,NULL,Übersicht,kilindo,s,mgusano,chipukizi,kulinganisha,NA,sdf,NA,2,NA,NA,NA,NA,NA,NA,NA,NA,NA,NA,NA,NA,NA,NA,NA,NA,NA,NA,NA
f23e1,task,flow.Sequence,3_0_2_0_6,NA,NA,completion,9415.48,550820,550811.44,550828.02,560243.5,560247,2023-05-26T12:09:21Z,560260.14,NULL,Übersicht,kilindo,s,mgusano,chipukizi,kulinganisha,NA,sdf,NA,2,NA,NA,NA,NA,NA,NA,NA,NA,NA,NA,NA,NA,NA,NA,NA,NA,NA,NA,NA
f23e1,Deep Question,html.Page,3_0_2_0_7_0_0,NA,NA,form submission,9165.86,560248,560243.5,560260.14,569426,569427,2023-05-26T12:09:30Z,569425.7,NULL,Papier,karatasi,d,NA,NA,NA,maengezo,NA,NA,2,NA,NA,NA,NA,NA,NA,NA,NA,NA,NA,NA,NA,NA,NA,NA,NA,NA,NA,NA
f23e1,"""Richtig""-Screen",canvas.Screen,3_0_2_0_7_0_1,NA,NA,skipped,NA,569430,NA,NA,569426,569431,2023-05-26T12:09:30Z,569425.7,NULL,Papier,karatasi,d,NA,NA,NA,NA,sdf,NA,2,NA,NA,NA,NA,NA,NA,NA,NA,NA,NA,NA,NA,NA,NA,NA,NA,NA,NA,NA
f23e1,"""Falsch""-Screen",canvas.Screen,3_0_2_0_7_0_2,NA,NA,timeout,4999.3400000001,569435,569424.26,569425.7,574408.42,574411,2023-05-26T12:09:35Z,574425.04,NULL,Papier,karatasi,d,NA,NA,NA,NA,sdf,0,2,NA,NA,NA,NA,NA,NA,NA,NA,NA,NA,NA,NA,NA,NA,NA,NA,NA,NA,NA
f23e1,deep,flow.Sequence,3_0_2_0_7_0,NA,NA,completion,14148.28,560248,560243.5,560260.14,574408.42,574411,2023-05-26T12:09:35Z,574425.04,NULL,Papier,karatasi,d,NA,NA,NA,NA,sdf,NA,2,NA,NA,NA,NA,NA,NA,NA,NA,NA,NA,NA,NA,NA,NA,NA,NA,NA,NA,NA
f23e1,shallow,flow.Sequence,3_0_2_0_7_1,NA,NA,skipped,NA,574411,NA,NA,574408.42,574412,2023-05-26T12:09:35Z,574425.04,NULL,Papier,karatasi,d,NA,NA,NA,NA,sdf,NA,2,NA,NA,NA,NA,NA,NA,NA,NA,NA,NA,NA,NA,NA,NA,NA,NA,NA,NA,NA
f23e1,task,flow.Sequence,3_0_2_0_7,NA,NA,completion,14148.28,560248,560243.5,560260.14,574408.42,574412,2023-05-26T12:09:35Z,574425.04,NULL,Papier,karatasi,d,NA,NA,NA,NA,sdf,NA,2,NA,NA,NA,NA,NA,NA,NA,NA,NA,NA,NA,NA,NA,NA,NA,NA,NA,NA,NA
f23e1,block,flow.Loop,3_0_2_0,NA,NA,completion,89636.84,484770,484771.22,484771.58,574408.42,574413,2023-05-26T12:09:35Z,574425.04,NULL,NA,NA,NA,NA,NA,NA,NA,sdf,NA,2,NA,NA,NA,NA,NA,NA,NA,NA,NA,NA,NA,NA,NA,NA,NA,NA,NA,NA,NA
f23e1,weiter,canvas.Screen,3_0_2_1,sdf,keypress(Space),response,3178.96,574414,574408.42,574425.04,577604,577612,2023-05-26T12:09:39Z,577680.26,NULL,NA,NA,NA,NA,NA,NA,NA,sdf,NA,2,NA,NA,NA,NA,NA,NA,NA,NA,NA,NA,NA,NA,NA,NA,NA,NA,NA,NA,NA
f23e1,check continue,flow.Sequence,3_0_2,NA,NA,completion,92832.42,484770,484771.22,484771.58,577604,577613,2023-05-26T12:09:39Z,577680.26,NULL,NA,NA,NA,NA,NA,NA,NA,sdf,NA,2,NA,NA,NA,NA,NA,NA,NA,NA,NA,NA,NA,NA,NA,NA,NA,NA,NA,NA,NA
f23e1,deep,flow.Sequence,3_0_3_0_0_0,NA,NA,skipped,NA,577680,NA,NA,577604,577680,2023-05-26T12:09:39Z,577680.26,NULL,Übersicht,kilindo,s,mgusano,chipukizi,kulinganisha,NA,qt,NA,3,NA,NA,NA,NA,NA,NA,NA,NA,NA,NA,NA,NA,NA,NA,NA,NA,NA,NA,NA
f23e1,Shallow Question,html.Page,3_0_3_0_0_1_0,NA,NA,form submission,4576.74,577680,577679.9,577680.26,582257,582259,2023-05-26T12:09:43Z,582257.36,NULL,Übersicht,kilindo,s,mgusano,chipukizi,kulinganisha,kilindo,NA,NA,3,NA,NA,NA,NA,NA,NA,NA,NA,NA,NA,NA,NA,NA,NA,NA,NA,NA,NA,NA
f23e1,"""Richtig""-Screen",canvas.Screen,3_0_3_0_0_1_1,NA,NA,timeout,4999.38,582266,582250.86,582257.36,587240.1,587241,2023-05-26T12:09:48Z,587256.74,NULL,Übersicht,kilindo,s,mgusano,chipukizi,kulinganisha,NA,qt,1,3,NA,NA,NA,NA,NA,NA,NA,NA,NA,NA,NA,NA,NA,NA,NA,NA,NA,NA,NA
f23e1,"""Falsch""-Screen",canvas.Screen,3_0_3_0_0_1_2,NA,NA,skipped,NA,587249,NA,NA,587240.1,587249,2023-05-26T12:09:48Z,587256.74,NULL,Übersicht,kilindo,s,mgusano,chipukizi,kulinganisha,NA,qt,NA,3,NA,NA,NA,NA,NA,NA,NA,NA,NA,NA,NA,NA,NA,NA,NA,NA,NA,NA,NA
f23e1,shallow,flow.Sequence,3_0_3_0_0_1,NA,NA,completion,9559.84,577680,577679.9,577680.26,587240.1,587250,2023-05-26T12:09:48Z,587256.74,NULL,Übersicht,kilindo,s,mgusano,chipukizi,kulinganisha,NA,qt,NA,3,NA,NA,NA,NA,NA,NA,NA,NA,NA,NA,NA,NA,NA,NA,NA,NA,NA,NA,NA
f23e1,task,flow.Sequence,3_0_3_0_0,NA,NA,completion,9559.84,577680,577679.9,577680.26,587240.1,587250,2023-05-26T12:09:48Z,587256.74,NULL,Übersicht,kilindo,s,mgusano,chipukizi,kulinganisha,NA,qt,NA,3,NA,NA,NA,NA,NA,NA,NA,NA,NA,NA,NA,NA,NA,NA,NA,NA,NA,NA,NA
f23e1,deep,flow.Sequence,3_0_3_0_1_0,NA,NA,skipped,NA,587251,NA,NA,587240.1,587251,2023-05-26T12:09:48Z,587256.74,NULL,Vorwurf,mashtaka,s,msukumo,mtangulizi,uenyekiti,NA,qt,NA,3,NA,NA,NA,NA,NA,NA,NA,NA,NA,NA,NA,NA,NA,NA,NA,NA,NA,NA,NA
f23e1,Shallow Question,html.Page,3_0_3_0_1_1_0,NA,NA,form submission,6574.26,587251,587240.1,587256.74,593831,593832,2023-05-26T12:09:55Z,593839.2,NULL,Vorwurf,mashtaka,s,msukumo,mtangulizi,uenyekiti,mtangulizi,NA,NA,3,NA,NA,NA,NA,NA,NA,NA,NA,NA,NA,NA,NA,NA,NA,NA,NA,NA,NA,NA
f23e1,"""Richtig""-Screen",canvas.Screen,3_0_3_0_1_1_1,NA,NA,skipped,NA,593834,NA,NA,593831,593835,2023-05-26T12:09:55Z,593839.2,NULL,Vorwurf,mashtaka,s,msukumo,mtangulizi,uenyekiti,NA,qt,NA,3,NA,NA,NA,NA,NA,NA,NA,NA,NA,NA,NA,NA,NA,NA,NA,NA,NA,NA,NA
f23e1,"""Falsch""-Screen",canvas.Screen,3_0_3_0_1_1_2,NA,NA,timeout,4999.3600000001,593838,593828.54,593839.2,598821.9,598823,2023-05-26T12:10:00Z,598838.56,NULL,Vorwurf,mashtaka,s,msukumo,mtangulizi,uenyekiti,NA,qt,0,3,NA,NA,NA,NA,NA,NA,NA,NA,NA,NA,NA,NA,NA,NA,NA,NA,NA,NA,NA
f23e1,shallow,flow.Sequence,3_0_3_0_1_1,NA,NA,completion,11565.16,587251,587240.1,587256.74,598821.9,598824,2023-05-26T12:10:00Z,598838.56,NULL,Vorwurf,mashtaka,s,msukumo,mtangulizi,uenyekiti,NA,qt,NA,3,NA,NA,NA,NA,NA,NA,NA,NA,NA,NA,NA,NA,NA,NA,NA,NA,NA,NA,NA
f23e1,task,flow.Sequence,3_0_3_0_1,NA,NA,completion,11565.16,587250,587240.1,587256.74,598821.9,598824,2023-05-26T12:10:00Z,598838.56,NULL,Vorwurf,mashtaka,s,msukumo,mtangulizi,uenyekiti,NA,qt,NA,3,NA,NA,NA,NA,NA,NA,NA,NA,NA,NA,NA,NA,NA,NA,NA,NA,NA,NA,NA
f23e1,deep,flow.Sequence,3_0_3_0_2_0,NA,NA,skipped,NA,598825,NA,NA,598821.9,598825,2023-05-26T12:10:00Z,598838.56,NULL,Entwicklung,maendeleo,s,uangavu,mshindwa,badiliko,NA,qt,NA,3,NA,NA,NA,NA,NA,NA,NA,NA,NA,NA,NA,NA,NA,NA,NA,NA,NA,NA,NA
f23e1,Shallow Question,html.Page,3_0_3_0_2_1_0,NA,NA,form submission,6036.4399999999,598825,598821.9,598838.56,604875,604875,2023-05-26T12:10:06Z,604887.84,NULL,Entwicklung,maendeleo,s,uangavu,mshindwa,badiliko,badiliko,NA,NA,3,NA,NA,NA,NA,NA,NA,NA,NA,NA,NA,NA,NA,NA,NA,NA,NA,NA,NA,NA
f23e1,"""Richtig""-Screen",canvas.Screen,3_0_3_0_2_1_1,NA,NA,skipped,NA,604877,NA,NA,604875,604877,2023-05-26T12:10:06Z,604887.84,NULL,Entwicklung,maendeleo,s,uangavu,mshindwa,badiliko,NA,qt,NA,3,NA,NA,NA,NA,NA,NA,NA,NA,NA,NA,NA,NA,NA,NA,NA,NA,NA,NA,NA
f23e1,"""Falsch""-Screen",canvas.Screen,3_0_3_0_2_1_2,NA,NA,timeout,4999.36,604880,604871.2,604887.84,609870.54,609874,2023-05-26T12:10:11Z,609887.2,NULL,Entwicklung,maendeleo,s,uangavu,mshindwa,badiliko,NA,qt,0,3,NA,NA,NA,NA,NA,NA,NA,NA,NA,NA,NA,NA,NA,NA,NA,NA,NA,NA,NA
f23e1,shallow,flow.Sequence,3_0_3_0_2_1,NA,NA,completion,11031.98,598825,598821.9,598838.56,609870.54,609878,2023-05-26T12:10:11Z,609887.2,NULL,Entwicklung,maendeleo,s,uangavu,mshindwa,badiliko,NA,qt,NA,3,NA,NA,NA,NA,NA,NA,NA,NA,NA,NA,NA,NA,NA,NA,NA,NA,NA,NA,NA
f23e1,task,flow.Sequence,3_0_3_0_2,NA,NA,completion,11031.98,598824,598821.9,598838.56,609870.54,609880,2023-05-26T12:10:11Z,609887.2,NULL,Entwicklung,maendeleo,s,uangavu,mshindwa,badiliko,NA,qt,NA,3,NA,NA,NA,NA,NA,NA,NA,NA,NA,NA,NA,NA,NA,NA,NA,NA,NA,NA,NA
f23e1,Deep Question,html.Page,3_0_3_0_3_0_0,NA,NA,form submission,6022.8,609882,609870.54,609887.2,615910,615911,2023-05-26T12:10:17Z,615919.78,NULL,System,maongozi,d,NA,NA,NA,katamadin,NA,NA,3,NA,NA,NA,NA,NA,NA,NA,NA,NA,NA,NA,NA,NA,NA,NA,NA,NA,NA,NA
f23e1,"""Richtig""-Screen",canvas.Screen,3_0_3_0_3_0_1,NA,NA,skipped,NA,615919,NA,NA,615910,615919,2023-05-26T12:10:17Z,615919.78,NULL,System,maongozi,d,NA,NA,NA,NA,qt,NA,3,NA,NA,NA,NA,NA,NA,NA,NA,NA,NA,NA,NA,NA,NA,NA,NA,NA,NA,NA
f23e1,"""Falsch""-Screen",canvas.Screen,3_0_3_0_3_0_2,NA,NA,timeout,4999.36,615923,615908.44,615919.78,620902.48,620904,2023-05-26T12:10:22Z,620919.14,NULL,System,maongozi,d,NA,NA,NA,NA,qt,0,3,NA,NA,NA,NA,NA,NA,NA,NA,NA,NA,NA,NA,NA,NA,NA,NA,NA,NA,NA
f23e1,deep,flow.Sequence,3_0_3_0_3_0,NA,NA,completion,11015.28,609882,609870.54,609887.2,620902.48,620904,2023-05-26T12:10:22Z,620919.14,NULL,System,maongozi,d,NA,NA,NA,NA,qt,NA,3,NA,NA,NA,NA,NA,NA,NA,NA,NA,NA,NA,NA,NA,NA,NA,NA,NA,NA,NA
f23e1,shallow,flow.Sequence,3_0_3_0_3_1,NA,NA,skipped,NA,620904,NA,NA,620902.48,620904,2023-05-26T12:10:22Z,620919.14,NULL,System,maongozi,d,NA,NA,NA,NA,qt,NA,3,NA,NA,NA,NA,NA,NA,NA,NA,NA,NA,NA,NA,NA,NA,NA,NA,NA,NA,NA
f23e1,task,flow.Sequence,3_0_3_0_3,NA,NA,completion,11015.28,609882,609870.54,609887.2,620902.48,620905,2023-05-26T12:10:22Z,620919.14,NULL,System,maongozi,d,NA,NA,NA,NA,qt,NA,3,NA,NA,NA,NA,NA,NA,NA,NA,NA,NA,NA,NA,NA,NA,NA,NA,NA,NA,NA
f23e1,Deep Question,html.Page,3_0_3_0_4_0_0,NA,NA,form submission,7802.86,620905,620902.48,620919.14,628722,628722,2023-05-26T12:10:30Z,628734.78,NULL,Niveau,kiwango,d,NA,NA,NA,katadin,NA,NA,3,NA,NA,NA,NA,NA,NA,NA,NA,NA,NA,NA,NA,NA,NA,NA,NA,NA,NA,NA
f23e1,"""Richtig""-Screen",canvas.Screen,3_0_3_0_4_0_1,NA,NA,skipped,NA,628726,NA,NA,628722,628727,2023-05-26T12:10:30Z,628734.78,NULL,Niveau,kiwango,d,NA,NA,NA,NA,qt,NA,3,NA,NA,NA,NA,NA,NA,NA,NA,NA,NA,NA,NA,NA,NA,NA,NA,NA,NA,NA
f23e1,"""Falsch""-Screen",canvas.Screen,3_0_3_0_4_0_2,NA,NA,timeout,4999.46,628731,628720.62,628734.78,633717.58,633719,2023-05-26T12:10:35Z,633734.24,NULL,Niveau,kiwango,d,NA,NA,NA,NA,qt,0,3,NA,NA,NA,NA,NA,NA,NA,NA,NA,NA,NA,NA,NA,NA,NA,NA,NA,NA,NA
f23e1,deep,flow.Sequence,3_0_3_0_4_0,NA,NA,completion,12798.44,620905,620902.48,620919.14,633717.58,633719,2023-05-26T12:10:35Z,633734.24,NULL,Niveau,kiwango,d,NA,NA,NA,NA,qt,NA,3,NA,NA,NA,NA,NA,NA,NA,NA,NA,NA,NA,NA,NA,NA,NA,NA,NA,NA,NA
f23e1,shallow,flow.Sequence,3_0_3_0_4_1,NA,NA,skipped,NA,633720,NA,NA,633717.58,633720,2023-05-26T12:10:35Z,633734.24,NULL,Niveau,kiwango,d,NA,NA,NA,NA,qt,NA,3,NA,NA,NA,NA,NA,NA,NA,NA,NA,NA,NA,NA,NA,NA,NA,NA,NA,NA,NA
f23e1,task,flow.Sequence,3_0_3_0_4,NA,NA,completion,12798.44,620905,620902.48,620919.14,633717.58,633720,2023-05-26T12:10:35Z,633734.24,NULL,Niveau,kiwango,d,NA,NA,NA,NA,qt,NA,3,NA,NA,NA,NA,NA,NA,NA,NA,NA,NA,NA,NA,NA,NA,NA,NA,NA,NA,NA
f23e1,Deep Question,html.Page,3_0_3_0_5_0_0,NA,NA,form submission,6523.76,633721,633717.58,633734.24,640258,640259,2023-05-26T12:10:41Z,640266.76,NULL,Papier,karatasi,d,NA,NA,NA,karasati,NA,NA,3,NA,NA,NA,NA,NA,NA,NA,NA,NA,NA,NA,NA,NA,NA,NA,NA,NA,NA,NA
f23e1,"""Richtig""-Screen",canvas.Screen,3_0_3_0_5_0_1,NA,NA,skipped,NA,640262,NA,NA,640258,640262,2023-05-26T12:10:41Z,640266.76,NULL,Papier,karatasi,d,NA,NA,NA,NA,qt,NA,3,NA,NA,NA,NA,NA,NA,NA,NA,NA,NA,NA,NA,NA,NA,NA,NA,NA,NA,NA
f23e1,"""Falsch""-Screen",canvas.Screen,3_0_3_0_5_0_2,NA,NA,timeout,4999.24,640267,640256.88,640266.76,645249.4,645251,2023-05-26T12:10:46Z,645266,NULL,Papier,karatasi,d,NA,NA,NA,NA,qt,0,3,NA,NA,NA,NA,NA,NA,NA,NA,NA,NA,NA,NA,NA,NA,NA,NA,NA,NA,NA
f23e1,deep,flow.Sequence,3_0_3_0_5_0,NA,NA,completion,11515.16,633721,633717.58,633734.24,645249.4,645252,2023-05-26T12:10:46Z,645266,NULL,Papier,karatasi,d,NA,NA,NA,NA,qt,NA,3,NA,NA,NA,NA,NA,NA,NA,NA,NA,NA,NA,NA,NA,NA,NA,NA,NA,NA,NA
f23e1,shallow,flow.Sequence,3_0_3_0_5_1,NA,NA,skipped,NA,645252,NA,NA,645249.4,645253,2023-05-26T12:10:46Z,645266,NULL,Papier,karatasi,d,NA,NA,NA,NA,qt,NA,3,NA,NA,NA,NA,NA,NA,NA,NA,NA,NA,NA,NA,NA,NA,NA,NA,NA,NA,NA
f23e1,task,flow.Sequence,3_0_3_0_5,NA,NA,completion,11515.16,633721,633717.58,633734.24,645249.4,645253,2023-05-26T12:10:46Z,645266,NULL,Papier,karatasi,d,NA,NA,NA,NA,qt,NA,3,NA,NA,NA,NA,NA,NA,NA,NA,NA,NA,NA,NA,NA,NA,NA,NA,NA,NA,NA
f23e1,deep,flow.Sequence,3_0_3_0_6_0,NA,NA,skipped,NA,645254,NA,NA,645249.4,645254,2023-05-26T12:10:46Z,645266,NULL,Körper,kiwiliwili,s,mapambano,mpatanishi,kiolezo,NA,qt,NA,3,NA,NA,NA,NA,NA,NA,NA,NA,NA,NA,NA,NA,NA,NA,NA,NA,NA,NA,NA
f23e1,Shallow Question,html.Page,3_0_3_0_6_1_0,NA,NA,form submission,4944,645255,645249.4,645266,650210,650211,2023-05-26T12:10:51Z,650215.46,NULL,Körper,kiwiliwili,s,mapambano,mpatanishi,kiolezo,kiwiliwili,NA,NA,3,NA,NA,NA,NA,NA,NA,NA,NA,NA,NA,NA,NA,NA,NA,NA,NA,NA,NA,NA
f23e1,"""Richtig""-Screen",canvas.Screen,3_0_3_0_6_1_1,NA,NA,timeout,4999.38,650214,650209.04,650215.46,655198.22,655200,2023-05-26T12:10:56Z,655214.84,NULL,Körper,kiwiliwili,s,mapambano,mpatanishi,kiolezo,NA,qt,1,3,NA,NA,NA,NA,NA,NA,NA,NA,NA,NA,NA,NA,NA,NA,NA,NA,NA,NA,NA
f23e1,"""Falsch""-Screen",canvas.Screen,3_0_3_0_6_1_2,NA,NA,skipped,NA,655208,NA,NA,655198.22,655209,2023-05-26T12:10:56Z,655214.84,NULL,Körper,kiwiliwili,s,mapambano,mpatanishi,kiolezo,NA,qt,NA,3,NA,NA,NA,NA,NA,NA,NA,NA,NA,NA,NA,NA,NA,NA,NA,NA,NA,NA,NA
f23e1,shallow,flow.Sequence,3_0_3_0_6_1,NA,NA,completion,9932.22,645255,645249.4,645266,655198.22,655209,2023-05-26T12:10:56Z,655214.84,NULL,Körper,kiwiliwili,s,mapambano,mpatanishi,kiolezo,NA,qt,NA,3,NA,NA,NA,NA,NA,NA,NA,NA,NA,NA,NA,NA,NA,NA,NA,NA,NA,NA,NA
f23e1,task,flow.Sequence,3_0_3_0_6,NA,NA,completion,9932.22,645254,645249.4,645266,655198.22,655210,2023-05-26T12:10:56Z,655214.84,NULL,Körper,kiwiliwili,s,mapambano,mpatanishi,kiolezo,NA,qt,NA,3,NA,NA,NA,NA,NA,NA,NA,NA,NA,NA,NA,NA,NA,NA,NA,NA,NA,NA,NA
f23e1,Deep Question,html.Page,3_0_3_0_7_0_0,NA,NA,form submission,8592.16,655210,655198.22,655214.84,663807,663807,2023-05-26T12:11:05Z,663813.76,NULL,Lawine,banguko,d,NA,NA,NA,bangoku,NA,NA,3,NA,NA,NA,NA,NA,NA,NA,NA,NA,NA,NA,NA,NA,NA,NA,NA,NA,NA,NA
f23e1,"""Richtig""-Screen",canvas.Screen,3_0_3_0_7_0_1,NA,NA,skipped,NA,663810,NA,NA,663807,663810,2023-05-26T12:11:05Z,663813.76,NULL,Lawine,banguko,d,NA,NA,NA,NA,qt,NA,3,NA,NA,NA,NA,NA,NA,NA,NA,NA,NA,NA,NA,NA,NA,NA,NA,NA,NA,NA
f23e1,"""Falsch""-Screen",canvas.Screen,3_0_3_0_7_0_2,NA,NA,timeout,4999.28,663814,663805.5,663813.76,668796.38,668799,2023-05-26T12:11:10Z,668813.04,NULL,Lawine,banguko,d,NA,NA,NA,NA,qt,0,3,NA,NA,NA,NA,NA,NA,NA,NA,NA,NA,NA,NA,NA,NA,NA,NA,NA,NA,NA
f23e1,deep,flow.Sequence,3_0_3_0_7_0,NA,NA,completion,13581.54,655210,655198.22,655214.84,668796.38,668799,2023-05-26T12:11:10Z,668813.04,NULL,Lawine,banguko,d,NA,NA,NA,NA,qt,NA,3,NA,NA,NA,NA,NA,NA,NA,NA,NA,NA,NA,NA,NA,NA,NA,NA,NA,NA,NA
f23e1,shallow,flow.Sequence,3_0_3_0_7_1,NA,NA,skipped,NA,668799,NA,NA,668796.38,668800,2023-05-26T12:11:10Z,668813.04,NULL,Lawine,banguko,d,NA,NA,NA,NA,qt,NA,3,NA,NA,NA,NA,NA,NA,NA,NA,NA,NA,NA,NA,NA,NA,NA,NA,NA,NA,NA
f23e1,task,flow.Sequence,3_0_3_0_7,NA,NA,completion,13581.54,655210,655198.22,655214.84,668796.38,668800,2023-05-26T12:11:10Z,668813.04,NULL,Lawine,banguko,d,NA,NA,NA,NA,qt,NA,3,NA,NA,NA,NA,NA,NA,NA,NA,NA,NA,NA,NA,NA,NA,NA,NA,NA,NA,NA
f23e1,block,flow.Loop,3_0_3_0,NA,NA,completion,91116.12,577680,577679.9,577680.26,668796.38,668801,2023-05-26T12:11:10Z,668813.04,NULL,NA,NA,NA,NA,NA,NA,NA,qt,NA,3,NA,NA,NA,NA,NA,NA,NA,NA,NA,NA,NA,NA,NA,NA,NA,NA,NA,NA,NA
f23e1,weiter,canvas.Screen,3_0_3_1,sdf,keypress(Space),response,822.95999999996,668801,668796.38,668813.04,669636,669653,2023-05-26T12:11:11Z,669716.76,NULL,NA,NA,NA,NA,NA,NA,NA,qt,NA,3,NA,NA,NA,NA,NA,NA,NA,NA,NA,NA,NA,NA,NA,NA,NA,NA,NA,NA,NA
f23e1,check continue,flow.Sequence,3_0_3,NA,NA,completion,91955.74,577680,577679.9,577680.26,669636,669654,2023-05-26T12:11:11Z,669716.76,NULL,NA,NA,NA,NA,NA,NA,NA,qt,NA,3,NA,NA,NA,NA,NA,NA,NA,NA,NA,NA,NA,NA,NA,NA,NA,NA,NA,NA,NA
f23e1,Deep Question,html.Page,3_0_4_0_0_0_0,NA,NA,form submission,8613.24,669716,669716.4,669716.76,678330,678330,2023-05-26T12:11:19Z,678328.5,NULL,System,maongozi,d,NA,NA,NA,maongozi,NA,NA,4,NA,NA,NA,NA,NA,NA,NA,NA,NA,NA,NA,NA,NA,NA,NA,NA,NA,NA,NA
f23e1,"""Richtig""-Screen",canvas.Screen,3_0_4_0_0_0_1,NA,NA,timeout,4999.4,678332,678328,678328.5,683311.28,683312,2023-05-26T12:11:24Z,683327.9,NULL,System,maongozi,d,NA,NA,NA,NA,sd,1,4,NA,NA,NA,NA,NA,NA,NA,NA,NA,NA,NA,NA,NA,NA,NA,NA,NA,NA,NA
f23e1,"""Falsch""-Screen",canvas.Screen,3_0_4_0_0_0_2,NA,NA,skipped,NA,683320,NA,NA,683311.28,683320,2023-05-26T12:11:24Z,683327.9,NULL,System,maongozi,d,NA,NA,NA,NA,sd,NA,4,NA,NA,NA,NA,NA,NA,NA,NA,NA,NA,NA,NA,NA,NA,NA,NA,NA,NA,NA
f23e1,deep,flow.Sequence,3_0_4_0_0_0,NA,NA,completion,13594.52,669716,669716.4,669716.76,683311.28,683321,2023-05-26T12:11:24Z,683327.9,NULL,System,maongozi,d,NA,NA,NA,NA,sd,NA,4,NA,NA,NA,NA,NA,NA,NA,NA,NA,NA,NA,NA,NA,NA,NA,NA,NA,NA,NA
f23e1,shallow,flow.Sequence,3_0_4_0_0_1,NA,NA,skipped,NA,683321,NA,NA,683311.28,683321,2023-05-26T12:11:24Z,683327.9,NULL,System,maongozi,d,NA,NA,NA,NA,sd,NA,4,NA,NA,NA,NA,NA,NA,NA,NA,NA,NA,NA,NA,NA,NA,NA,NA,NA,NA,NA
f23e1,task,flow.Sequence,3_0_4_0_0,NA,NA,completion,13594.52,669716,669716.4,669716.76,683311.28,683322,2023-05-26T12:11:24Z,683327.9,NULL,System,maongozi,d,NA,NA,NA,NA,sd,NA,4,NA,NA,NA,NA,NA,NA,NA,NA,NA,NA,NA,NA,NA,NA,NA,NA,NA,NA,NA
f23e1,Deep Question,html.Page,3_0_4_0_1_0_0,NA,NA,form submission,8763.1,683322,683311.28,683327.9,692091,692092,2023-05-26T12:11:33Z,692093.52,NULL,Niveau,kiwango,d,NA,NA,NA,kamatin,NA,NA,4,NA,NA,NA,NA,NA,NA,NA,NA,NA,NA,NA,NA,NA,NA,NA,NA,NA,NA,NA
f23e1,"""Richtig""-Screen",canvas.Screen,3_0_4_0_1_0_1,NA,NA,skipped,NA,692094,NA,NA,692091,692095,2023-05-26T12:11:33Z,692093.52,NULL,Niveau,kiwango,d,NA,NA,NA,NA,sd,NA,4,NA,NA,NA,NA,NA,NA,NA,NA,NA,NA,NA,NA,NA,NA,NA,NA,NA,NA,NA
f23e1,"""Falsch""-Screen",canvas.Screen,3_0_4_0_1_0_2,NA,NA,timeout,4999.2999999999,692098,692090.58,692093.52,697076.16,697080,2023-05-26T12:11:38Z,697092.82,NULL,Niveau,kiwango,d,NA,NA,NA,NA,sd,0,4,NA,NA,NA,NA,NA,NA,NA,NA,NA,NA,NA,NA,NA,NA,NA,NA,NA,NA,NA
f23e1,deep,flow.Sequence,3_0_4_0_1_0,NA,NA,completion,13748.26,683322,683311.28,683327.9,697076.16,697083,2023-05-26T12:11:38Z,697092.82,NULL,Niveau,kiwango,d,NA,NA,NA,NA,sd,NA,4,NA,NA,NA,NA,NA,NA,NA,NA,NA,NA,NA,NA,NA,NA,NA,NA,NA,NA,NA
f23e1,shallow,flow.Sequence,3_0_4_0_1_1,NA,NA,skipped,NA,697084,NA,NA,697076.16,697085,2023-05-26T12:11:38Z,697092.82,NULL,Niveau,kiwango,d,NA,NA,NA,NA,sd,NA,4,NA,NA,NA,NA,NA,NA,NA,NA,NA,NA,NA,NA,NA,NA,NA,NA,NA,NA,NA
f23e1,task,flow.Sequence,3_0_4_0_1,NA,NA,completion,13748.26,683322,683311.28,683327.9,697076.16,697086,2023-05-26T12:11:38Z,697092.82,NULL,Niveau,kiwango,d,NA,NA,NA,NA,sd,NA,4,NA,NA,NA,NA,NA,NA,NA,NA,NA,NA,NA,NA,NA,NA,NA,NA,NA,NA,NA
f23e1,deep,flow.Sequence,3_0_4_0_2_0,NA,NA,skipped,NA,697087,NA,NA,697076.16,697087,2023-05-26T12:11:38Z,697092.82,NULL,Körper,kiwiliwili,s,mapambano,mpatanishi,kiolezo,NA,sd,NA,4,NA,NA,NA,NA,NA,NA,NA,NA,NA,NA,NA,NA,NA,NA,NA,NA,NA,NA,NA
f23e1,Shallow Question,html.Page,3_0_4_0_2_1_0,NA,NA,form submission,5674.1800000001,697088,697076.16,697092.82,702767,702769,2023-05-26T12:11:44Z,702775.36,NULL,Körper,kiwiliwili,s,mapambano,mpatanishi,kiolezo,kiwiliwili,NA,NA,4,NA,NA,NA,NA,NA,NA,NA,NA,NA,NA,NA,NA,NA,NA,NA,NA,NA,NA,NA
f23e1,"""Richtig""-Screen",canvas.Screen,3_0_4_0_2_1_1,NA,NA,timeout,4999.46,702783,702759.52,702775.36,707758.18,707760,2023-05-26T12:11:49Z,707774.82,NULL,Körper,kiwiliwili,s,mapambano,mpatanishi,kiolezo,NA,sd,1,4,NA,NA,NA,NA,NA,NA,NA,NA,NA,NA,NA,NA,NA,NA,NA,NA,NA,NA,NA
f23e1,"""Falsch""-Screen",canvas.Screen,3_0_4_0_2_1_2,NA,NA,skipped,NA,707769,NA,NA,707758.18,707769,2023-05-26T12:11:49Z,707774.82,NULL,Körper,kiwiliwili,s,mapambano,mpatanishi,kiolezo,NA,sd,NA,4,NA,NA,NA,NA,NA,NA,NA,NA,NA,NA,NA,NA,NA,NA,NA,NA,NA,NA,NA
f23e1,shallow,flow.Sequence,3_0_4_0_2_1,NA,NA,completion,10665.36,697088,697076.16,697092.82,707758.18,707769,2023-05-26T12:11:49Z,707774.82,NULL,Körper,kiwiliwili,s,mapambano,mpatanishi,kiolezo,NA,sd,NA,4,NA,NA,NA,NA,NA,NA,NA,NA,NA,NA,NA,NA,NA,NA,NA,NA,NA,NA,NA
f23e1,task,flow.Sequence,3_0_4_0_2,NA,NA,completion,10665.36,697086,697076.16,697092.82,707758.18,707770,2023-05-26T12:11:49Z,707774.82,NULL,Körper,kiwiliwili,s,mapambano,mpatanishi,kiolezo,NA,sd,NA,4,NA,NA,NA,NA,NA,NA,NA,NA,NA,NA,NA,NA,NA,NA,NA,NA,NA,NA,NA
f23e1,deep,flow.Sequence,3_0_4_0_3_0,NA,NA,skipped,NA,707771,NA,NA,707758.18,707771,2023-05-26T12:11:49Z,707774.82,NULL,Vorwurf,mashtaka,s,msukumo,mtangulizi,uenyekiti,NA,sd,NA,4,NA,NA,NA,NA,NA,NA,NA,NA,NA,NA,NA,NA,NA,NA,NA,NA,NA,NA,NA
f23e1,Shallow Question,html.Page,3_0_4_0_3_1_0,NA,NA,form submission,4649.1800000001,707772,707758.18,707774.82,712424,712426,2023-05-26T12:11:53Z,712424.16,NULL,Vorwurf,mashtaka,s,msukumo,mtangulizi,uenyekiti,mashtaka,NA,NA,4,NA,NA,NA,NA,NA,NA,NA,NA,NA,NA,NA,NA,NA,NA,NA,NA,NA,NA,NA
f23e1,"""Richtig""-Screen",canvas.Screen,3_0_4_0_3_1_1,NA,NA,timeout,4999.36,712434,712417.06,712424.16,717406.86,717408,2023-05-26T12:11:58Z,717423.52,NULL,Vorwurf,mashtaka,s,msukumo,mtangulizi,uenyekiti,NA,sd,1,4,NA,NA,NA,NA,NA,NA,NA,NA,NA,NA,NA,NA,NA,NA,NA,NA,NA,NA,NA
f23e1,"""Falsch""-Screen",canvas.Screen,3_0_4_0_3_1_2,NA,NA,skipped,NA,717413,NA,NA,717406.86,717413,2023-05-26T12:11:58Z,717423.52,NULL,Vorwurf,mashtaka,s,msukumo,mtangulizi,uenyekiti,NA,sd,NA,4,NA,NA,NA,NA,NA,NA,NA,NA,NA,NA,NA,NA,NA,NA,NA,NA,NA,NA,NA
f23e1,shallow,flow.Sequence,3_0_4_0_3_1,NA,NA,completion,9632.04,707772,707758.18,707774.82,717406.86,717413,2023-05-26T12:11:58Z,717423.52,NULL,Vorwurf,mashtaka,s,msukumo,mtangulizi,uenyekiti,NA,sd,NA,4,NA,NA,NA,NA,NA,NA,NA,NA,NA,NA,NA,NA,NA,NA,NA,NA,NA,NA,NA
f23e1,task,flow.Sequence,3_0_4_0_3,NA,NA,completion,9632.04,707770,707758.18,707774.82,717406.86,717413,2023-05-26T12:11:58Z,717423.52,NULL,Vorwurf,mashtaka,s,msukumo,mtangulizi,uenyekiti,NA,sd,NA,4,NA,NA,NA,NA,NA,NA,NA,NA,NA,NA,NA,NA,NA,NA,NA,NA,NA,NA,NA
f23e1,Deep Question,html.Page,3_0_4_0_4_0_0,NA,NA,form submission,19003.48,717414,717406.86,717423.52,736427,736428,2023-05-26T12:12:17Z,736437.88,NULL,Papier,karatasi,d,NA,NA,NA,karatami,NA,NA,4,NA,NA,NA,NA,NA,NA,NA,NA,NA,NA,NA,NA,NA,NA,NA,NA,NA,NA,NA
f23e1,"""Richtig""-Screen",canvas.Screen,3_0_4_0_4_0_1,NA,NA,skipped,NA,736431,NA,NA,736427,736431,2023-05-26T12:12:17Z,736437.88,NULL,Papier,karatasi,d,NA,NA,NA,NA,sd,NA,4,NA,NA,NA,NA,NA,NA,NA,NA,NA,NA,NA,NA,NA,NA,NA,NA,NA,NA,NA
f23e1,"""Falsch""-Screen",canvas.Screen,3_0_4_0_4_0_2,NA,NA,timeout,4999.3199999999,736434,736425.12,736437.88,741420.56,741422,2023-05-26T12:12:22Z,741437.2,NULL,Papier,karatasi,d,NA,NA,NA,NA,sd,0,4,NA,NA,NA,NA,NA,NA,NA,NA,NA,NA,NA,NA,NA,NA,NA,NA,NA,NA,NA
f23e1,deep,flow.Sequence,3_0_4_0_4_0,NA,NA,completion,23997.04,717414,717406.86,717423.52,741420.56,741422,2023-05-26T12:12:22Z,741437.2,NULL,Papier,karatasi,d,NA,NA,NA,NA,sd,NA,4,NA,NA,NA,NA,NA,NA,NA,NA,NA,NA,NA,NA,NA,NA,NA,NA,NA,NA,NA
f23e1,shallow,flow.Sequence,3_0_4_0_4_1,NA,NA,skipped,NA,741424,NA,NA,741420.56,741424,2023-05-26T12:12:22Z,741437.2,NULL,Papier,karatasi,d,NA,NA,NA,NA,sd,NA,4,NA,NA,NA,NA,NA,NA,NA,NA,NA,NA,NA,NA,NA,NA,NA,NA,NA,NA,NA
f23e1,task,flow.Sequence,3_0_4_0_4,NA,NA,completion,23997.04,717414,717406.86,717423.52,741420.56,741424,2023-05-26T12:12:22Z,741437.2,NULL,Papier,karatasi,d,NA,NA,NA,NA,sd,NA,4,NA,NA,NA,NA,NA,NA,NA,NA,NA,NA,NA,NA,NA,NA,NA,NA,NA,NA,NA
f23e1,deep,flow.Sequence,3_0_4_0_5_0,NA,NA,skipped,NA,741424,NA,NA,741420.56,741424,2023-05-26T12:12:22Z,741437.2,NULL,Übersicht,kilindo,s,mgusano,chipukizi,kulinganisha,NA,sd,NA,4,NA,NA,NA,NA,NA,NA,NA,NA,NA,NA,NA,NA,NA,NA,NA,NA,NA,NA,NA
f23e1,Shallow Question,html.Page,3_0_4_0_5_1_0,NA,NA,form submission,14735.8,741425,741420.56,741437.2,756173,756175,2023-05-26T12:12:37Z,756201.9,NULL,Übersicht,kilindo,s,mgusano,chipukizi,kulinganisha,mgusano,NA,NA,4,NA,NA,NA,NA,NA,NA,NA,NA,NA,NA,NA,NA,NA,NA,NA,NA,NA,NA,NA
f23e1,"""Richtig""-Screen",canvas.Screen,3_0_4_0_5_1_1,NA,NA,skipped,NA,756195,NA,NA,756173,756196,2023-05-26T12:12:37Z,756201.9,NULL,Übersicht,kilindo,s,mgusano,chipukizi,kulinganisha,NA,sd,NA,4,NA,NA,NA,NA,NA,NA,NA,NA,NA,NA,NA,NA,NA,NA,NA,NA,NA,NA,NA
f23e1,"""Falsch""-Screen",canvas.Screen,3_0_4_0_5_1_2,NA,NA,timeout,4999.48,756201,756160.88,756201.9,761184.72,761187,2023-05-26T12:12:42Z,761201.38,NULL,Übersicht,kilindo,s,mgusano,chipukizi,kulinganisha,NA,sd,0,4,NA,NA,NA,NA,NA,NA,NA,NA,NA,NA,NA,NA,NA,NA,NA,NA,NA,NA,NA
f23e1,shallow,flow.Sequence,3_0_4_0_5_1,NA,NA,completion,19747.52,741425,741420.56,741437.2,761184.72,761188,2023-05-26T12:12:42Z,761201.38,NULL,Übersicht,kilindo,s,mgusano,chipukizi,kulinganisha,NA,sd,NA,4,NA,NA,NA,NA,NA,NA,NA,NA,NA,NA,NA,NA,NA,NA,NA,NA,NA,NA,NA
f23e1,task,flow.Sequence,3_0_4_0_5,NA,NA,completion,19747.52,741424,741420.56,741437.2,761184.72,761190,2023-05-26T12:12:42Z,761201.38,NULL,Übersicht,kilindo,s,mgusano,chipukizi,kulinganisha,NA,sd,NA,4,NA,NA,NA,NA,NA,NA,NA,NA,NA,NA,NA,NA,NA,NA,NA,NA,NA,NA,NA
f23e1,deep,flow.Sequence,3_0_4_0_6_0,NA,NA,skipped,NA,761193,NA,NA,761184.72,761194,2023-05-26T12:12:42Z,761201.38,NULL,Entwicklung,maendeleo,s,uangavu,mshindwa,badiliko,NA,sd,NA,4,NA,NA,NA,NA,NA,NA,NA,NA,NA,NA,NA,NA,NA,NA,NA,NA,NA,NA,NA
f23e1,Shallow Question,html.Page,3_0_4_0_6_1_0,NA,NA,form submission,19611.62,761195,761184.72,761201.38,780813,780813,2023-05-26T12:13:02Z,780815.6,NULL,Entwicklung,maendeleo,s,uangavu,mshindwa,badiliko,maendeleo,NA,NA,4,NA,NA,NA,NA,NA,NA,NA,NA,NA,NA,NA,NA,NA,NA,NA,NA,NA,NA,NA
f23e1,"""Richtig""-Screen",canvas.Screen,3_0_4_0_6_1_1,NA,NA,timeout,4999.34,780817,780811.06,780815.6,785798.3,785800,2023-05-26T12:13:07Z,785814.94,NULL,Entwicklung,maendeleo,s,uangavu,mshindwa,badiliko,NA,sd,1,4,NA,NA,NA,NA,NA,NA,NA,NA,NA,NA,NA,NA,NA,NA,NA,NA,NA,NA,NA
f23e1,"""Falsch""-Screen",canvas.Screen,3_0_4_0_6_1_2,NA,NA,skipped,NA,785809,NA,NA,785798.3,785810,2023-05-26T12:13:07Z,785814.94,NULL,Entwicklung,maendeleo,s,uangavu,mshindwa,badiliko,NA,sd,NA,4,NA,NA,NA,NA,NA,NA,NA,NA,NA,NA,NA,NA,NA,NA,NA,NA,NA,NA,NA
f23e1,shallow,flow.Sequence,3_0_4_0_6_1,NA,NA,completion,24596.92,761194,761184.72,761201.38,785798.3,785810,2023-05-26T12:13:07Z,785814.94,NULL,Entwicklung,maendeleo,s,uangavu,mshindwa,badiliko,NA,sd,NA,4,NA,NA,NA,NA,NA,NA,NA,NA,NA,NA,NA,NA,NA,NA,NA,NA,NA,NA,NA
f23e1,task,flow.Sequence,3_0_4_0_6,NA,NA,completion,24596.92,761192,761184.72,761201.38,785798.3,785811,2023-05-26T12:13:07Z,785814.94,NULL,Entwicklung,maendeleo,s,uangavu,mshindwa,badiliko,NA,sd,NA,4,NA,NA,NA,NA,NA,NA,NA,NA,NA,NA,NA,NA,NA,NA,NA,NA,NA,NA,NA
f23e1,Deep Question,html.Page,3_0_4_0_7_0_0,NA,NA,form submission,5422.0600000001,785812,785798.3,785814.94,791237,791237,2023-05-26T12:13:12Z,791236.34,NULL,Lawine,banguko,d,NA,NA,NA,banguko,NA,NA,4,NA,NA,NA,NA,NA,NA,NA,NA,NA,NA,NA,NA,NA,NA,NA,NA,NA,NA,NA
f23e1,"""Richtig""-Screen",canvas.Screen,3_0_4_0_7_0_1,NA,NA,timeout,4993.9,791241,791235.58,791236.34,796213.58,796215,2023-05-26T12:13:17Z,796230.24,NULL,Lawine,banguko,d,NA,NA,NA,NA,sd,1,4,NA,NA,NA,NA,NA,NA,NA,NA,NA,NA,NA,NA,NA,NA,NA,NA,NA,NA,NA
f23e1,"""Falsch""-Screen",canvas.Screen,3_0_4_0_7_0_2,NA,NA,skipped,NA,796226,NA,NA,796213.58,796226,2023-05-26T12:13:17Z,796230.24,NULL,Lawine,banguko,d,NA,NA,NA,NA,sd,NA,4,NA,NA,NA,NA,NA,NA,NA,NA,NA,NA,NA,NA,NA,NA,NA,NA,NA,NA,NA
f23e1,deep,flow.Sequence,3_0_4_0_7_0,NA,NA,completion,10398.64,785812,785798.3,785814.94,796213.58,796227,2023-05-26T12:13:17Z,796230.24,NULL,Lawine,banguko,d,NA,NA,NA,NA,sd,NA,4,NA,NA,NA,NA,NA,NA,NA,NA,NA,NA,NA,NA,NA,NA,NA,NA,NA,NA,NA
f23e1,shallow,flow.Sequence,3_0_4_0_7_1,NA,NA,skipped,NA,796227,NA,NA,796213.58,796228,2023-05-26T12:13:17Z,796230.24,NULL,Lawine,banguko,d,NA,NA,NA,NA,sd,NA,4,NA,NA,NA,NA,NA,NA,NA,NA,NA,NA,NA,NA,NA,NA,NA,NA,NA,NA,NA
f23e1,task,flow.Sequence,3_0_4_0_7,NA,NA,completion,10398.64,785812,785798.3,785814.94,796213.58,796228,2023-05-26T12:13:17Z,796230.24,NULL,Lawine,banguko,d,NA,NA,NA,NA,sd,NA,4,NA,NA,NA,NA,NA,NA,NA,NA,NA,NA,NA,NA,NA,NA,NA,NA,NA,NA,NA
f23e1,block,flow.Loop,3_0_4_0,NA,NA,completion,126496.82,669716,669716.4,669716.76,796213.58,796229,2023-05-26T12:13:17Z,796230.24,NULL,NA,NA,NA,NA,NA,NA,NA,sd,NA,4,NA,NA,NA,NA,NA,NA,NA,NA,NA,NA,NA,NA,NA,NA,NA,NA,NA,NA,NA
f23e1,weiter,canvas.Screen,3_0_4_1,sdf,keypress(Space),response,29091.76,796229,796213.58,796230.24,825322,825329,2023-05-26T12:13:46Z,825384.16,NULL,NA,NA,NA,NA,NA,NA,NA,sd,NA,4,NA,NA,NA,NA,NA,NA,NA,NA,NA,NA,NA,NA,NA,NA,NA,NA,NA,NA,NA
f23e1,check continue,flow.Sequence,3_0_4,NA,NA,completion,155605.24,669716,669716.4,669716.76,825322,825330,2023-05-26T12:13:46Z,825384.16,NULL,NA,NA,NA,NA,NA,NA,NA,sd,NA,4,NA,NA,NA,NA,NA,NA,NA,NA,NA,NA,NA,NA,NA,NA,NA,NA,NA,NA,NA
f23e1,deep,flow.Sequence,3_0_5_0_0_0,NA,NA,skipped,NA,825383,NA,NA,825322,825383,2023-05-26T12:13:46Z,825384.16,NULL,Übersicht,kilindo,s,mgusano,chipukizi,kulinganisha,NA,sdf,NA,5,NA,NA,NA,NA,NA,NA,NA,NA,NA,NA,NA,NA,NA,NA,NA,NA,NA,NA,NA
f23e1,Shallow Question,html.Page,3_0_5_0_0_1_0,NA,NA,form submission,3509.84,825383,825383.76,825384.16,828894,828894,2023-05-26T12:13:50Z,828893.32,NULL,Übersicht,kilindo,s,mgusano,chipukizi,kulinganisha,kilindo,NA,NA,5,NA,NA,NA,NA,NA,NA,NA,NA,NA,NA,NA,NA,NA,NA,NA,NA,NA,NA,NA
f23e1,"""Richtig""-Screen",canvas.Screen,3_0_5_0_0_1_1,NA,NA,timeout,4998.8600000001,828897,828892.92,828893.32,833875.52,833877,2023-05-26T12:13:55Z,833892.18,NULL,Übersicht,kilindo,s,mgusano,chipukizi,kulinganisha,NA,sdf,1,5,NA,NA,NA,NA,NA,NA,NA,NA,NA,NA,NA,NA,NA,NA,NA,NA,NA,NA,NA
f23e1,"""Falsch""-Screen",canvas.Screen,3_0_5_0_0_1_2,NA,NA,skipped,NA,833887,NA,NA,833875.52,833887,2023-05-26T12:13:55Z,833892.18,NULL,Übersicht,kilindo,s,mgusano,chipukizi,kulinganisha,NA,sdf,NA,5,NA,NA,NA,NA,NA,NA,NA,NA,NA,NA,NA,NA,NA,NA,NA,NA,NA,NA,NA
f23e1,shallow,flow.Sequence,3_0_5_0_0_1,NA,NA,completion,8491.36,825383,825383.76,825384.16,833875.52,833888,2023-05-26T12:13:55Z,833892.18,NULL,Übersicht,kilindo,s,mgusano,chipukizi,kulinganisha,NA,sdf,NA,5,NA,NA,NA,NA,NA,NA,NA,NA,NA,NA,NA,NA,NA,NA,NA,NA,NA,NA,NA
f23e1,task,flow.Sequence,3_0_5_0_0,NA,NA,completion,8491.36,825383,825383.76,825384.16,833875.52,833888,2023-05-26T12:13:55Z,833892.18,NULL,Übersicht,kilindo,s,mgusano,chipukizi,kulinganisha,NA,sdf,NA,5,NA,NA,NA,NA,NA,NA,NA,NA,NA,NA,NA,NA,NA,NA,NA,NA,NA,NA,NA
f23e1,deep,flow.Sequence,3_0_5_0_1_0,NA,NA,skipped,NA,833889,NA,NA,833875.52,833889,2023-05-26T12:13:55Z,833892.18,NULL,Körper,kiwiliwili,s,mapambano,mpatanishi,kiolezo,NA,sdf,NA,5,NA,NA,NA,NA,NA,NA,NA,NA,NA,NA,NA,NA,NA,NA,NA,NA,NA,NA,NA
f23e1,Shallow Question,html.Page,3_0_5_0_1_1_0,NA,NA,form submission,3761.8199999999,833889,833875.52,833892.18,837654,837654,2023-05-26T12:13:59Z,837658.34,NULL,Körper,kiwiliwili,s,mapambano,mpatanishi,kiolezo,kiwiliwili,NA,NA,5,NA,NA,NA,NA,NA,NA,NA,NA,NA,NA,NA,NA,NA,NA,NA,NA,NA,NA,NA
f23e1,"""Richtig""-Screen",canvas.Screen,3_0_5_0_1_1_1,NA,NA,timeout,4999.4,837657,837651.76,837658.34,842641.08,842642,2023-05-26T12:14:04Z,842657.74,NULL,Körper,kiwiliwili,s,mapambano,mpatanishi,kiolezo,NA,sdf,1,5,NA,NA,NA,NA,NA,NA,NA,NA,NA,NA,NA,NA,NA,NA,NA,NA,NA,NA,NA
f23e1,"""Falsch""-Screen",canvas.Screen,3_0_5_0_1_1_2,NA,NA,skipped,NA,842649,NA,NA,842641.08,842649,2023-05-26T12:14:04Z,842657.74,NULL,Körper,kiwiliwili,s,mapambano,mpatanishi,kiolezo,NA,sdf,NA,5,NA,NA,NA,NA,NA,NA,NA,NA,NA,NA,NA,NA,NA,NA,NA,NA,NA,NA,NA
f23e1,shallow,flow.Sequence,3_0_5_0_1_1,NA,NA,completion,8748.8999999999,833889,833875.52,833892.18,842641.08,842650,2023-05-26T12:14:04Z,842657.74,NULL,Körper,kiwiliwili,s,mapambano,mpatanishi,kiolezo,NA,sdf,NA,5,NA,NA,NA,NA,NA,NA,NA,NA,NA,NA,NA,NA,NA,NA,NA,NA,NA,NA,NA
f23e1,task,flow.Sequence,3_0_5_0_1,NA,NA,completion,8748.8999999999,833889,833875.52,833892.18,842641.08,842651,2023-05-26T12:14:04Z,842657.74,NULL,Körper,kiwiliwili,s,mapambano,mpatanishi,kiolezo,NA,sdf,NA,5,NA,NA,NA,NA,NA,NA,NA,NA,NA,NA,NA,NA,NA,NA,NA,NA,NA,NA,NA
f23e1,Deep Question,html.Page,3_0_5_0_2_0_0,NA,NA,form submission,5684.26,842651,842641.08,842657.74,848342,848342,2023-05-26T12:14:09Z,848340.66,NULL,Lawine,banguko,d,NA,NA,NA,banguko,NA,NA,5,NA,NA,NA,NA,NA,NA,NA,NA,NA,NA,NA,NA,NA,NA,NA,NA,NA,NA,NA
f23e1,"""Richtig""-Screen",canvas.Screen,3_0_5_0_2_0_1,NA,NA,timeout,4999.0599999999,848345,848340.44,848340.66,853323.06,853324,2023-05-26T12:14:14Z,853339.72,NULL,Lawine,banguko,d,NA,NA,NA,NA,sdf,1,5,NA,NA,NA,NA,NA,NA,NA,NA,NA,NA,NA,NA,NA,NA,NA,NA,NA,NA,NA
f23e1,"""Falsch""-Screen",canvas.Screen,3_0_5_0_2_0_2,NA,NA,skipped,NA,853331,NA,NA,853323.06,853331,2023-05-26T12:14:14Z,853339.72,NULL,Lawine,banguko,d,NA,NA,NA,NA,sdf,NA,5,NA,NA,NA,NA,NA,NA,NA,NA,NA,NA,NA,NA,NA,NA,NA,NA,NA,NA,NA
f23e1,deep,flow.Sequence,3_0_5_0_2_0,NA,NA,completion,10665.32,842651,842641.08,842657.74,853323.06,853333,2023-05-26T12:14:14Z,853339.72,NULL,Lawine,banguko,d,NA,NA,NA,NA,sdf,NA,5,NA,NA,NA,NA,NA,NA,NA,NA,NA,NA,NA,NA,NA,NA,NA,NA,NA,NA,NA
f23e1,shallow,flow.Sequence,3_0_5_0_2_1,NA,NA,skipped,NA,853333,NA,NA,853323.06,853333,2023-05-26T12:14:14Z,853339.72,NULL,Lawine,banguko,d,NA,NA,NA,NA,sdf,NA,5,NA,NA,NA,NA,NA,NA,NA,NA,NA,NA,NA,NA,NA,NA,NA,NA,NA,NA,NA
f23e1,task,flow.Sequence,3_0_5_0_2,NA,NA,completion,10665.32,842651,842641.08,842657.74,853323.06,853334,2023-05-26T12:14:14Z,853339.72,NULL,Lawine,banguko,d,NA,NA,NA,NA,sdf,NA,5,NA,NA,NA,NA,NA,NA,NA,NA,NA,NA,NA,NA,NA,NA,NA,NA,NA,NA,NA
f23e1,Deep Question,html.Page,3_0_5_0_3_0_0,NA,NA,form submission,17006.28,853334,853323.06,853339.72,870346,870346,2023-05-26T12:14:31Z,870354.24,NULL,Niveau,kiwango,d,NA,NA,NA,kilido,NA,NA,5,NA,NA,NA,NA,NA,NA,NA,NA,NA,NA,NA,NA,NA,NA,NA,NA,NA,NA,NA
f23e1,"""Richtig""-Screen",canvas.Screen,3_0_5_0_3_0_1,NA,NA,skipped,NA,870349,NA,NA,870346,870349,2023-05-26T12:14:31Z,870354.24,NULL,Niveau,kiwango,d,NA,NA,NA,NA,sdf,NA,5,NA,NA,NA,NA,NA,NA,NA,NA,NA,NA,NA,NA,NA,NA,NA,NA,NA,NA,NA
f23e1,"""Falsch""-Screen",canvas.Screen,3_0_5_0_3_0_2,NA,NA,timeout,4999.34,870352,870344.84,870354.24,875336.92,875339,2023-05-26T12:14:36Z,875353.58,NULL,Niveau,kiwango,d,NA,NA,NA,NA,sdf,0,5,NA,NA,NA,NA,NA,NA,NA,NA,NA,NA,NA,NA,NA,NA,NA,NA,NA,NA,NA
f23e1,deep,flow.Sequence,3_0_5_0_3_0,NA,NA,completion,21997.2,853334,853323.06,853339.72,875336.92,875339,2023-05-26T12:14:36Z,875353.58,NULL,Niveau,kiwango,d,NA,NA,NA,NA,sdf,NA,5,NA,NA,NA,NA,NA,NA,NA,NA,NA,NA,NA,NA,NA,NA,NA,NA,NA,NA,NA
f23e1,shallow,flow.Sequence,3_0_5_0_3_1,NA,NA,skipped,NA,875340,NA,NA,875336.92,875340,2023-05-26T12:14:36Z,875353.58,NULL,Niveau,kiwango,d,NA,NA,NA,NA,sdf,NA,5,NA,NA,NA,NA,NA,NA,NA,NA,NA,NA,NA,NA,NA,NA,NA,NA,NA,NA,NA
f23e1,task,flow.Sequence,3_0_5_0_3,NA,NA,completion,21997.2,853334,853323.06,853339.72,875336.92,875341,2023-05-26T12:14:36Z,875353.58,NULL,Niveau,kiwango,d,NA,NA,NA,NA,sdf,NA,5,NA,NA,NA,NA,NA,NA,NA,NA,NA,NA,NA,NA,NA,NA,NA,NA,NA,NA,NA
f23e1,Deep Question,html.Page,3_0_5_0_4_0_0,NA,NA,form submission,4447.42,875341,875336.92,875353.58,879801,879802,2023-05-26T12:14:41Z,879818.52,NULL,Papier,karatasi,d,NA,NA,NA,karatasi,NA,NA,5,NA,NA,NA,NA,NA,NA,NA,NA,NA,NA,NA,NA,NA,NA,NA,NA,NA,NA,NA
f23e1,"""Richtig""-Screen",canvas.Screen,3_0_5_0_4_0_1,NA,NA,timeout,5000.5,879803,879801.86,879818.52,884802.36,884808,2023-05-26T12:14:46Z,884819.02,NULL,Papier,karatasi,d,NA,NA,NA,NA,sdf,1,5,NA,NA,NA,NA,NA,NA,NA,NA,NA,NA,NA,NA,NA,NA,NA,NA,NA,NA,NA
f23e1,"""Falsch""-Screen",canvas.Screen,3_0_5_0_4_0_2,NA,NA,skipped,NA,884827,NA,NA,884802.36,884828,2023-05-26T12:14:46Z,884819.02,NULL,Papier,karatasi,d,NA,NA,NA,NA,sdf,NA,5,NA,NA,NA,NA,NA,NA,NA,NA,NA,NA,NA,NA,NA,NA,NA,NA,NA,NA,NA
f23e1,deep,flow.Sequence,3_0_5_0_4_0,NA,NA,completion,9448.78,875341,875336.92,875353.58,884802.36,884828,2023-05-26T12:14:46Z,884819.02,NULL,Papier,karatasi,d,NA,NA,NA,NA,sdf,NA,5,NA,NA,NA,NA,NA,NA,NA,NA,NA,NA,NA,NA,NA,NA,NA,NA,NA,NA,NA
f23e1,shallow,flow.Sequence,3_0_5_0_4_1,NA,NA,skipped,NA,884828,NA,NA,884802.36,884828,2023-05-26T12:14:46Z,884819.02,NULL,Papier,karatasi,d,NA,NA,NA,NA,sdf,NA,5,NA,NA,NA,NA,NA,NA,NA,NA,NA,NA,NA,NA,NA,NA,NA,NA,NA,NA,NA
f23e1,task,flow.Sequence,3_0_5_0_4,NA,NA,completion,9448.78,875341,875336.92,875353.58,884802.36,884829,2023-05-26T12:14:46Z,884819.02,NULL,Papier,karatasi,d,NA,NA,NA,NA,sdf,NA,5,NA,NA,NA,NA,NA,NA,NA,NA,NA,NA,NA,NA,NA,NA,NA,NA,NA,NA,NA
f23e1,Deep Question,html.Page,3_0_5_0_5_0_0,NA,NA,form submission,6883.98,884830,884802.36,884819.02,891703,891703,2023-05-26T12:14:53Z,891702.24,NULL,System,maongozi,d,NA,NA,NA,mangoezi,NA,NA,5,NA,NA,NA,NA,NA,NA,NA,NA,NA,NA,NA,NA,NA,NA,NA,NA,NA,NA,NA
f23e1,"""Richtig""-Screen",canvas.Screen,3_0_5_0_5_0_1,NA,NA,skipped,NA,891707,NA,NA,891703,891707,2023-05-26T12:14:53Z,891702.24,NULL,System,maongozi,d,NA,NA,NA,NA,sdf,NA,5,NA,NA,NA,NA,NA,NA,NA,NA,NA,NA,NA,NA,NA,NA,NA,NA,NA,NA,NA
f23e1,"""Falsch""-Screen",canvas.Screen,3_0_5_0_5_0_2,NA,NA,timeout,4998.62,891708,891702.1,891702.24,896684.22,896687,2023-05-26T12:14:58Z,896700.86,NULL,System,maongozi,d,NA,NA,NA,NA,sdf,0,5,NA,NA,NA,NA,NA,NA,NA,NA,NA,NA,NA,NA,NA,NA,NA,NA,NA,NA,NA
f23e1,deep,flow.Sequence,3_0_5_0_5_0,NA,NA,completion,11865.2,884830,884802.36,884819.02,896684.22,896688,2023-05-26T12:14:58Z,896700.86,NULL,System,maongozi,d,NA,NA,NA,NA,sdf,NA,5,NA,NA,NA,NA,NA,NA,NA,NA,NA,NA,NA,NA,NA,NA,NA,NA,NA,NA,NA
f23e1,shallow,flow.Sequence,3_0_5_0_5_1,NA,NA,skipped,NA,896688,NA,NA,896684.22,896689,2023-05-26T12:14:58Z,896700.86,NULL,System,maongozi,d,NA,NA,NA,NA,sdf,NA,5,NA,NA,NA,NA,NA,NA,NA,NA,NA,NA,NA,NA,NA,NA,NA,NA,NA,NA,NA
f23e1,task,flow.Sequence,3_0_5_0_5,NA,NA,completion,11865.2,884830,884802.36,884819.02,896684.22,896690,2023-05-26T12:14:58Z,896700.86,NULL,System,maongozi,d,NA,NA,NA,NA,sdf,NA,5,NA,NA,NA,NA,NA,NA,NA,NA,NA,NA,NA,NA,NA,NA,NA,NA,NA,NA,NA
f23e1,deep,flow.Sequence,3_0_5_0_6_0,NA,NA,skipped,NA,896692,NA,NA,896684.22,896693,2023-05-26T12:14:58Z,896700.86,NULL,Vorwurf,mashtaka,s,msukumo,mtangulizi,uenyekiti,NA,sdf,NA,5,NA,NA,NA,NA,NA,NA,NA,NA,NA,NA,NA,NA,NA,NA,NA,NA,NA,NA,NA
f23e1,Shallow Question,html.Page,3_0_5_0_6_1_0,NA,NA,form submission,8452.14,896693,896684.22,896700.86,905153,905153,2023-05-26T12:15:06Z,905151.1,NULL,Vorwurf,mashtaka,s,msukumo,mtangulizi,uenyekiti,mashtaka,NA,NA,5,NA,NA,NA,NA,NA,NA,NA,NA,NA,NA,NA,NA,NA,NA,NA,NA,NA,NA,NA
f23e1,"""Richtig""-Screen",canvas.Screen,3_0_5_0_6_1_1,NA,NA,timeout,4998.0800000001,905156,905150.72,905151.1,910132.54,910134,2023-05-26T12:15:11Z,910149.18,NULL,Vorwurf,mashtaka,s,msukumo,mtangulizi,uenyekiti,NA,sdf,1,5,NA,NA,NA,NA,NA,NA,NA,NA,NA,NA,NA,NA,NA,NA,NA,NA,NA,NA,NA
f23e1,"""Falsch""-Screen",canvas.Screen,3_0_5_0_6_1_2,NA,NA,skipped,NA,910143,NA,NA,910132.54,910143,2023-05-26T12:15:11Z,910149.18,NULL,Vorwurf,mashtaka,s,msukumo,mtangulizi,uenyekiti,NA,sdf,NA,5,NA,NA,NA,NA,NA,NA,NA,NA,NA,NA,NA,NA,NA,NA,NA,NA,NA,NA,NA
f23e1,shallow,flow.Sequence,3_0_5_0_6_1,NA,NA,completion,13431.68,896693,896684.22,896700.86,910132.54,910144,2023-05-26T12:15:11Z,910149.18,NULL,Vorwurf,mashtaka,s,msukumo,mtangulizi,uenyekiti,NA,sdf,NA,5,NA,NA,NA,NA,NA,NA,NA,NA,NA,NA,NA,NA,NA,NA,NA,NA,NA,NA,NA
f23e1,task,flow.Sequence,3_0_5_0_6,NA,NA,completion,13431.68,896692,896684.22,896700.86,910132.54,910145,2023-05-26T12:15:11Z,910149.18,NULL,Vorwurf,mashtaka,s,msukumo,mtangulizi,uenyekiti,NA,sdf,NA,5,NA,NA,NA,NA,NA,NA,NA,NA,NA,NA,NA,NA,NA,NA,NA,NA,NA,NA,NA
f23e1,deep,flow.Sequence,3_0_5_0_7_0,NA,NA,skipped,NA,910146,NA,NA,910132.54,910146,2023-05-26T12:15:11Z,910149.18,NULL,Entwicklung,maendeleo,s,uangavu,mshindwa,badiliko,NA,sdf,NA,5,NA,NA,NA,NA,NA,NA,NA,NA,NA,NA,NA,NA,NA,NA,NA,NA,NA,NA,NA
f23e1,Shallow Question,html.Page,3_0_5_0_7_1_0,NA,NA,form submission,10674.82,910146,910132.54,910149.18,920824,920825,2023-05-26T12:15:22Z,920831.14,NULL,Entwicklung,maendeleo,s,uangavu,mshindwa,badiliko,badiliko,NA,NA,5,NA,NA,NA,NA,NA,NA,NA,NA,NA,NA,NA,NA,NA,NA,NA,NA,NA,NA,NA
f23e1,"""Richtig""-Screen",canvas.Screen,3_0_5_0_7_1_1,NA,NA,skipped,NA,920832,NA,NA,920824,920833,2023-05-26T12:15:22Z,920831.14,NULL,Entwicklung,maendeleo,s,uangavu,mshindwa,badiliko,NA,sdf,NA,5,NA,NA,NA,NA,NA,NA,NA,NA,NA,NA,NA,NA,NA,NA,NA,NA,NA,NA,NA
f23e1,"""Falsch""-Screen",canvas.Screen,3_0_5_0_7_1_2,NA,NA,timeout,4999.36,920838,920818.92,920831.14,925813.9,925815,2023-05-26T12:15:27Z,925830.5,NULL,Entwicklung,maendeleo,s,uangavu,mshindwa,badiliko,NA,sdf,0,5,NA,NA,NA,NA,NA,NA,NA,NA,NA,NA,NA,NA,NA,NA,NA,NA,NA,NA,NA
f23e1,shallow,flow.Sequence,3_0_5_0_7_1,NA,NA,completion,15664.72,910146,910132.54,910149.18,925813.9,925816,2023-05-26T12:15:27Z,925830.5,NULL,Entwicklung,maendeleo,s,uangavu,mshindwa,badiliko,NA,sdf,NA,5,NA,NA,NA,NA,NA,NA,NA,NA,NA,NA,NA,NA,NA,NA,NA,NA,NA,NA,NA
f23e1,task,flow.Sequence,3_0_5_0_7,NA,NA,completion,15664.72,910146,910132.54,910149.18,925813.9,925817,2023-05-26T12:15:27Z,925830.5,NULL,Entwicklung,maendeleo,s,uangavu,mshindwa,badiliko,NA,sdf,NA,5,NA,NA,NA,NA,NA,NA,NA,NA,NA,NA,NA,NA,NA,NA,NA,NA,NA,NA,NA
f23e1,block,flow.Loop,3_0_5_0,NA,NA,completion,100429.74,825383,825383.76,825384.16,925813.9,925817,2023-05-26T12:15:27Z,925830.5,NULL,NA,NA,NA,NA,NA,NA,NA,sdf,NA,5,NA,NA,NA,NA,NA,NA,NA,NA,NA,NA,NA,NA,NA,NA,NA,NA,NA,NA,NA
f23e1,weiter,canvas.Screen,3_0_5_1,sdf,keypress(Space),response,1804.5,925817,925813.9,925830.5,927635,927641,2023-05-26T12:15:29Z,928401.06,NULL,NA,NA,NA,NA,NA,NA,NA,sdf,NA,5,NA,NA,NA,NA,NA,NA,NA,NA,NA,NA,NA,NA,NA,NA,NA,NA,NA,NA,NA
f23e1,check continue,flow.Sequence,3_0_5,NA,NA,completion,102250.84,825383,825383.76,825384.16,927635,927641,2023-05-26T12:15:29Z,928401.06,NULL,NA,NA,NA,NA,NA,NA,NA,sdf,NA,5,NA,NA,NA,NA,NA,NA,NA,NA,NA,NA,NA,NA,NA,NA,NA,NA,NA,NA,NA
f23e1,check continue,flow.Sequence,3_0_6,NA,NA,skipped,NA,927716,NA,NA,927635,927716,2023-05-26T12:15:29Z,928401.06,NULL,NA,NA,NA,NA,NA,NA,NA,dfs,NA,6,NA,NA,NA,NA,NA,NA,NA,NA,NA,NA,NA,NA,NA,NA,NA,NA,NA,NA,NA
f23e1,check continue,flow.Sequence,3_0_7,NA,NA,skipped,NA,927752,NA,NA,927635,927752,2023-05-26T12:15:29Z,928401.06,NULL,NA,NA,NA,NA,NA,NA,NA,df,NA,7,NA,NA,NA,NA,NA,NA,NA,NA,NA,NA,NA,NA,NA,NA,NA,NA,NA,NA,NA
f23e1,check continue,flow.Sequence,3_0_8,NA,NA,skipped,NA,927785,NA,NA,927635,927785,2023-05-26T12:15:29Z,928401.06,NULL,NA,NA,NA,NA,NA,NA,NA,dfs,NA,8,NA,NA,NA,NA,NA,NA,NA,NA,NA,NA,NA,NA,NA,NA,NA,NA,NA,NA,NA
f23e1,check continue,flow.Sequence,3_0_9,NA,NA,skipped,NA,927816,NA,NA,927635,927816,2023-05-26T12:15:29Z,928401.06,NULL,NA,NA,NA,NA,NA,NA,NA,dsf,NA,9,NA,NA,NA,NA,NA,NA,NA,NA,NA,NA,NA,NA,NA,NA,NA,NA,NA,NA,NA
f23e1,check continue,flow.Sequence,3_0_10,NA,NA,skipped,NA,927846,NA,NA,927635,927846,2023-05-26T12:15:29Z,928401.06,NULL,NA,NA,NA,NA,NA,NA,NA,df,NA,10,NA,NA,NA,NA,NA,NA,NA,NA,NA,NA,NA,NA,NA,NA,NA,NA,NA,NA,NA
f23e1,check continue,flow.Sequence,3_0_11,NA,NA,skipped,NA,927876,NA,NA,927635,927876,2023-05-26T12:15:29Z,928401.06,NULL,NA,NA,NA,NA,NA,NA,NA,dfs,NA,11,NA,NA,NA,NA,NA,NA,NA,NA,NA,NA,NA,NA,NA,NA,NA,NA,NA,NA,NA
f23e1,check continue,flow.Sequence,3_0_12,NA,NA,skipped,NA,927907,NA,NA,927635,927907,2023-05-26T12:15:29Z,928401.06,NULL,NA,NA,NA,NA,NA,NA,NA,dsf,NA,12,NA,NA,NA,NA,NA,NA,NA,NA,NA,NA,NA,NA,NA,NA,NA,NA,NA,NA,NA
f23e1,check continue,flow.Sequence,3_0_13,NA,NA,skipped,NA,927936,NA,NA,927635,927937,2023-05-26T12:15:29Z,928401.06,NULL,NA,NA,NA,NA,NA,NA,NA,dsf,NA,13,NA,NA,NA,NA,NA,NA,NA,NA,NA,NA,NA,NA,NA,NA,NA,NA,NA,NA,NA
f23e1,check continue,flow.Sequence,3_0_14,NA,NA,skipped,NA,927968,NA,NA,927635,927968,2023-05-26T12:15:29Z,928401.06,NULL,NA,NA,NA,NA,NA,NA,NA,NA,NA,14,NA,NA,NA,NA,NA,NA,NA,NA,NA,NA,NA,NA,NA,NA,NA,NA,NA,NA,NA
f23e1,check continue,flow.Sequence,3_0_15,NA,NA,skipped,NA,927996,NA,NA,927635,927996,2023-05-26T12:15:29Z,928401.06,NULL,NA,NA,NA,NA,NA,NA,NA,NA,NA,15,NA,NA,NA,NA,NA,NA,NA,NA,NA,NA,NA,NA,NA,NA,NA,NA,NA,NA,NA
f23e1,check continue,flow.Sequence,3_0_16,NA,NA,skipped,NA,928026,NA,NA,927635,928026,2023-05-26T12:15:29Z,928401.06,NULL,NA,NA,NA,NA,NA,NA,NA,NA,NA,16,NA,NA,NA,NA,NA,NA,NA,NA,NA,NA,NA,NA,NA,NA,NA,NA,NA,NA,NA
f23e1,check continue,flow.Sequence,3_0_17,NA,NA,skipped,NA,928056,NA,NA,927635,928056,2023-05-26T12:15:29Z,928401.06,NULL,NA,NA,NA,NA,NA,NA,NA,NA,NA,17,NA,NA,NA,NA,NA,NA,NA,NA,NA,NA,NA,NA,NA,NA,NA,NA,NA,NA,NA
f23e1,check continue,flow.Sequence,3_0_18,NA,NA,skipped,NA,928084,NA,NA,927635,928084,2023-05-26T12:15:29Z,928401.06,NULL,NA,NA,NA,NA,NA,NA,NA,NA,NA,18,NA,NA,NA,NA,NA,NA,NA,NA,NA,NA,NA,NA,NA,NA,NA,NA,NA,NA,NA
f23e1,check continue,flow.Sequence,3_0_19,NA,NA,skipped,NA,928114,NA,NA,927635,928114,2023-05-26T12:15:29Z,928401.06,NULL,NA,NA,NA,NA,NA,NA,NA,NA,NA,19,NA,NA,NA,NA,NA,NA,NA,NA,NA,NA,NA,NA,NA,NA,NA,NA,NA,NA,NA
f23e1,check continue,flow.Sequence,3_0_20,NA,NA,skipped,NA,928142,NA,NA,927635,928142,2023-05-26T12:15:29Z,928401.06,NULL,NA,NA,NA,NA,NA,NA,NA,NA,NA,20,NA,NA,NA,NA,NA,NA,NA,NA,NA,NA,NA,NA,NA,NA,NA,NA,NA,NA,NA
f23e1,check continue,flow.Sequence,3_0_21,NA,NA,skipped,NA,928173,NA,NA,927635,928173,2023-05-26T12:15:29Z,928401.06,NULL,NA,NA,NA,NA,NA,NA,NA,NA,NA,21,NA,NA,NA,NA,NA,NA,NA,NA,NA,NA,NA,NA,NA,NA,NA,NA,NA,NA,NA
f23e1,check continue,flow.Sequence,3_0_22,NA,NA,skipped,NA,928201,NA,NA,927635,928201,2023-05-26T12:15:29Z,928401.06,NULL,NA,NA,NA,NA,NA,NA,NA,NA,NA,22,NA,NA,NA,NA,NA,NA,NA,NA,NA,NA,NA,NA,NA,NA,NA,NA,NA,NA,NA
f23e1,check continue,flow.Sequence,3_0_23,NA,NA,skipped,NA,928228,NA,NA,927635,928228,2023-05-26T12:15:29Z,928401.06,NULL,NA,NA,NA,NA,NA,NA,NA,NA,NA,23,NA,NA,NA,NA,NA,NA,NA,NA,NA,NA,NA,NA,NA,NA,NA,NA,NA,NA,NA
f23e1,check continue,flow.Sequence,3_0_24,NA,NA,skipped,NA,928261,NA,NA,927635,928261,2023-05-26T12:15:29Z,928401.06,NULL,NA,NA,NA,NA,NA,NA,NA,NA,NA,24,NA,NA,NA,NA,NA,NA,NA,NA,NA,NA,NA,NA,NA,NA,NA,NA,NA,NA,NA
f23e1,check continue,flow.Sequence,3_0_25,NA,NA,skipped,NA,928287,NA,NA,927635,928287,2023-05-26T12:15:29Z,928401.06,NULL,NA,NA,NA,NA,NA,NA,NA,NA,NA,25,NA,NA,NA,NA,NA,NA,NA,NA,NA,NA,NA,NA,NA,NA,NA,NA,NA,NA,NA
f23e1,check continue,flow.Sequence,3_0_26,NA,NA,skipped,NA,928315,NA,NA,927635,928315,2023-05-26T12:15:29Z,928401.06,NULL,NA,NA,NA,NA,NA,NA,NA,NA,NA,26,NA,NA,NA,NA,NA,NA,NA,NA,NA,NA,NA,NA,NA,NA,NA,NA,NA,NA,NA
f23e1,check continue,flow.Sequence,3_0_27,NA,NA,skipped,NA,928343,NA,NA,927635,928343,2023-05-26T12:15:29Z,928401.06,NULL,NA,NA,NA,NA,NA,NA,NA,NA,NA,27,NA,NA,NA,NA,NA,NA,NA,NA,NA,NA,NA,NA,NA,NA,NA,NA,NA,NA,NA
f23e1,check continue,flow.Sequence,3_0_28,NA,NA,skipped,NA,928368,NA,NA,927635,928369,2023-05-26T12:15:29Z,928401.06,NULL,NA,NA,NA,NA,NA,NA,NA,NA,NA,28,NA,NA,NA,NA,NA,NA,NA,NA,NA,NA,NA,NA,NA,NA,NA,NA,NA,NA,NA
f23e1,check continue,flow.Sequence,3_0_29,NA,NA,skipped,NA,928400,NA,NA,927635,928400,2023-05-26T12:15:29Z,928401.06,NULL,NA,NA,NA,NA,NA,NA,NA,NA,NA,29,NA,NA,NA,NA,NA,NA,NA,NA,NA,NA,NA,NA,NA,NA,NA,NA,NA,NA,NA
f23e1,until continue,flow.Loop,3_0,NA,NA,completion,620648,306938,306986.66,306987,927635,928400,2023-05-26T12:15:29Z,928401.06,NULL,NA,NA,NA,NA,NA,NA,NA,NA,NA,NA,NA,NA,NA,NA,NA,NA,NA,NA,NA,NA,NA,NA,NA,NA,NA,NA,NA,NA,NA
f23e1,block 1,flow.Sequence,3,NA,NA,completion,620648,306938,306986.66,306987,927635,928400,2023-05-26T12:15:29Z,928401.06,NULL,NA,NA,NA,NA,NA,NA,NA,NA,NA,NA,NA,NA,NA,NA,NA,NA,NA,NA,NA,NA,NA,NA,NA,NA,NA,NA,NA,NA,NA
f23e1,1.Part Over,canvas.Screen,4,NA,keypress(Space),response,4234.9399999999,928400,928400.76,928401.06,932636,932640,2023-05-26T12:15:34Z,932705.86,NULL,NA,NA,NA,NA,NA,NA,NA,NA,NA,NA,NA,NA,NA,NA,NA,NA,NA,NA,NA,NA,NA,NA,NA,NA,NA,NA,NA,NA,NA
f23e1,Deep Question,html.Page,5_0_0_0_0_0_0,NA,NA,form submission,5582.14,932705,932705.46,932705.86,938288,938289,2023-05-26T12:15:39Z,938312.2,NULL,Fleisch,mshakiki,d,NA,NA,NA,jkkl,NA,NA,0,NA,NA,NA,NA,NA,NA,NA,NA,NA,NA,NA,NA,NA,NA,NA,NA,NA,NA,NA
f23e1,"""Richtig""-Screen",canvas.Screen,5_0_0_0_0_0_1,NA,NA,skipped,NA,938291,NA,NA,938288,938291,2023-05-26T12:15:39Z,938312.2,NULL,Fleisch,mshakiki,d,NA,NA,NA,NA,sdf,NA,0,NA,NA,NA,NA,NA,NA,NA,NA,NA,NA,NA,NA,NA,NA,NA,NA,NA,NA,NA
f23e1,"""Falsch""-Screen",canvas.Screen,5_0_0_0_0_0_2,NA,NA,timeout,4999.4,938293,938295.56,938312.2,943295.06,943298,2023-05-26T12:15:44Z,943311.6,NULL,Fleisch,mshakiki,d,NA,NA,NA,NA,sdf,0,0,NA,NA,NA,NA,NA,NA,NA,NA,NA,NA,NA,NA,NA,NA,NA,NA,NA,NA,NA
f23e1,deep,flow.Sequence,5_0_0_0_0_0,NA,NA,completion,10589.2,932705,932705.46,932705.86,943295.06,943300,2023-05-26T12:15:44Z,943311.6,NULL,Fleisch,mshakiki,d,NA,NA,NA,NA,sdf,NA,0,NA,NA,NA,NA,NA,NA,NA,NA,NA,NA,NA,NA,NA,NA,NA,NA,NA,NA,NA
f23e1,shallow,flow.Sequence,5_0_0_0_0_1,NA,NA,skipped,NA,943302,NA,NA,943295.06,943303,2023-05-26T12:15:44Z,943311.6,NULL,Fleisch,mshakiki,d,NA,NA,NA,NA,sdf,NA,0,NA,NA,NA,NA,NA,NA,NA,NA,NA,NA,NA,NA,NA,NA,NA,NA,NA,NA,NA
f23e1,task,flow.Sequence,5_0_0_0_0,NA,NA,completion,10589.2,932705,932705.46,932705.86,943295.06,943303,2023-05-26T12:15:44Z,943311.6,NULL,Fleisch,mshakiki,d,NA,NA,NA,NA,sdf,NA,0,NA,NA,NA,NA,NA,NA,NA,NA,NA,NA,NA,NA,NA,NA,NA,NA,NA,NA,NA
f23e1,Deep Question,html.Page,5_0_0_0_1_0_0,NA,NA,form submission,2669.4,943304,943295.06,943311.6,945981,945981,2023-05-26T12:15:47Z,945994.66,NULL,Prüfung,mtihani,d,NA,NA,NA,dfdlaks,NA,NA,0,NA,NA,NA,NA,NA,NA,NA,NA,NA,NA,NA,NA,NA,NA,NA,NA,NA,NA,NA
f23e1,"""Richtig""-Screen",canvas.Screen,5_0_0_0_1_0_1,NA,NA,skipped,NA,945989,NA,NA,945981,945989,2023-05-26T12:15:47Z,945994.66,NULL,Prüfung,mtihani,d,NA,NA,NA,NA,sdf,NA,0,NA,NA,NA,NA,NA,NA,NA,NA,NA,NA,NA,NA,NA,NA,NA,NA,NA,NA,NA
f23e1,"""Falsch""-Screen",canvas.Screen,5_0_0_0_1_0_2,NA,NA,timeout,4999.4,945994,945979.26,945994.66,950977.4,950979,2023-05-26T12:15:52Z,950994.06,NULL,Prüfung,mtihani,d,NA,NA,NA,NA,sdf,0,0,NA,NA,NA,NA,NA,NA,NA,NA,NA,NA,NA,NA,NA,NA,NA,NA,NA,NA,NA
f23e1,deep,flow.Sequence,5_0_0_0_1_0,NA,NA,completion,7665.8,943304,943295.06,943311.6,950977.4,950981,2023-05-26T12:15:52Z,950994.06,NULL,Prüfung,mtihani,d,NA,NA,NA,NA,sdf,NA,0,NA,NA,NA,NA,NA,NA,NA,NA,NA,NA,NA,NA,NA,NA,NA,NA,NA,NA,NA
f23e1,shallow,flow.Sequence,5_0_0_0_1_1,NA,NA,skipped,NA,950981,NA,NA,950977.4,950981,2023-05-26T12:15:52Z,950994.06,NULL,Prüfung,mtihani,d,NA,NA,NA,NA,sdf,NA,0,NA,NA,NA,NA,NA,NA,NA,NA,NA,NA,NA,NA,NA,NA,NA,NA,NA,NA,NA
f23e1,task,flow.Sequence,5_0_0_0_1,NA,NA,completion,7665.8,943304,943295.06,943311.6,950977.4,950982,2023-05-26T12:15:52Z,950994.06,NULL,Prüfung,mtihani,d,NA,NA,NA,NA,sdf,NA,0,NA,NA,NA,NA,NA,NA,NA,NA,NA,NA,NA,NA,NA,NA,NA,NA,NA,NA,NA
f23e1,deep,flow.Sequence,5_0_0_0_2_0,NA,NA,skipped,NA,950983,NA,NA,950977.4,950985,2023-05-26T12:15:52Z,950994.06,NULL,Verzögerung,kuchelewa,s,mwakilishi,mwanauchumi,jaribio,NA,sdf,NA,0,NA,NA,NA,NA,NA,NA,NA,NA,NA,NA,NA,NA,NA,NA,NA,NA,NA,NA,NA
f23e1,Shallow Question,html.Page,5_0_0_0_2_1_0,NA,NA,form submission,6945.9399999999,950986,950977.4,950994.06,957940,957941,2023-05-26T12:15:59Z,957943.06,NULL,Verzögerung,kuchelewa,s,mwakilishi,mwanauchumi,jaribio,kuchelewa,NA,NA,0,NA,NA,NA,NA,NA,NA,NA,NA,NA,NA,NA,NA,NA,NA,NA,NA,NA,NA,NA
f23e1,"""Richtig""-Screen",canvas.Screen,5_0_0_0_2_1_1,NA,NA,timeout,4999.3999999999,957947,957927.84,957943.06,962925.9,962927,2023-05-26T12:16:04Z,962942.46,NULL,Verzögerung,kuchelewa,s,mwakilishi,mwanauchumi,jaribio,NA,sdf,1,0,NA,NA,NA,NA,NA,NA,NA,NA,NA,NA,NA,NA,NA,NA,NA,NA,NA,NA,NA
f23e1,"""Falsch""-Screen",canvas.Screen,5_0_0_0_2_1_2,NA,NA,skipped,NA,962933,NA,NA,962925.9,962933,2023-05-26T12:16:04Z,962942.46,NULL,Verzögerung,kuchelewa,s,mwakilishi,mwanauchumi,jaribio,NA,sdf,NA,0,NA,NA,NA,NA,NA,NA,NA,NA,NA,NA,NA,NA,NA,NA,NA,NA,NA,NA,NA
f23e1,shallow,flow.Sequence,5_0_0_0_2_1,NA,NA,completion,11931.84,950986,950977.4,950994.06,962925.9,962934,2023-05-26T12:16:04Z,962942.46,NULL,Verzögerung,kuchelewa,s,mwakilishi,mwanauchumi,jaribio,NA,sdf,NA,0,NA,NA,NA,NA,NA,NA,NA,NA,NA,NA,NA,NA,NA,NA,NA,NA,NA,NA,NA
f23e1,task,flow.Sequence,5_0_0_0_2,NA,NA,completion,11931.84,950983,950977.4,950994.06,962925.9,962934,2023-05-26T12:16:04Z,962942.46,NULL,Verzögerung,kuchelewa,s,mwakilishi,mwanauchumi,jaribio,NA,sdf,NA,0,NA,NA,NA,NA,NA,NA,NA,NA,NA,NA,NA,NA,NA,NA,NA,NA,NA,NA,NA
f23e1,deep,flow.Sequence,5_0_0_0_3_0,NA,NA,skipped,NA,962934,NA,NA,962925.9,962934,2023-05-26T12:16:04Z,962942.46,NULL,Kultur,utamaduni,s,shetani,gerezani,mazingira,NA,sdf,NA,0,NA,NA,NA,NA,NA,NA,NA,NA,NA,NA,NA,NA,NA,NA,NA,NA,NA,NA,NA
f23e1,Shallow Question,html.Page,5_0_0_0_3_1_0,NA,NA,form submission,3805.54,962935,962925.9,962942.46,966748,966749,2023-05-26T12:16:08Z,966758.56,NULL,Kultur,utamaduni,s,shetani,gerezani,mazingira,shetani,NA,NA,0,NA,NA,NA,NA,NA,NA,NA,NA,NA,NA,NA,NA,NA,NA,NA,NA,NA,NA,NA
f23e1,"""Richtig""-Screen",canvas.Screen,5_0_0_0_3_1_1,NA,NA,skipped,NA,966753,NA,NA,966748,966754,2023-05-26T12:16:08Z,966758.56,NULL,Kultur,utamaduni,s,shetani,gerezani,mazingira,NA,sdf,NA,0,NA,NA,NA,NA,NA,NA,NA,NA,NA,NA,NA,NA,NA,NA,NA,NA,NA,NA,NA
f23e1,"""Falsch""-Screen",canvas.Screen,5_0_0_0_3_1_2,NA,NA,timeout,4999.5,966757,966742.88,966758.56,971741.4,971743,2023-05-26T12:16:13Z,971758.06,NULL,Kultur,utamaduni,s,shetani,gerezani,mazingira,NA,sdf,0,0,NA,NA,NA,NA,NA,NA,NA,NA,NA,NA,NA,NA,NA,NA,NA,NA,NA,NA,NA
f23e1,shallow,flow.Sequence,5_0_0_0_3_1,NA,NA,completion,8798.9400000001,962934,962925.9,962942.46,971741.4,971744,2023-05-26T12:16:13Z,971758.06,NULL,Kultur,utamaduni,s,shetani,gerezani,mazingira,NA,sdf,NA,0,NA,NA,NA,NA,NA,NA,NA,NA,NA,NA,NA,NA,NA,NA,NA,NA,NA,NA,NA
