observation,sender,sender_type,sender_id,response,response_action,ended_on,duration,time_run,time_render,time_show,time_end,time_commit,timestamp,time_switch,german,swahili,enc,distractor1,distractor2,distractor3,response_2,x,correct,distractors,url_vp,url_sess,meta_labjs_version,meta_location,meta_user_agent,meta_platform,meta_language,meta_locale,meta_time_zone,meta_timezone_offset,meta_screen_width,meta_screen_height,meta_scroll_width,meta_scroll_height,meta_window_inner_width,meta_window_inner_height,meta_device_pixel_ratio,meta_labjs_build_flavor,meta_labjs_build_commit
13ced,Introduction delayed retrieval,canvas.Screen,0,weiter,keypress(Space),response,2924.599999997,382.59999999776,300.8,384.2,3308.799999997,3310.6999999993,2024-04-26T17:15:53Z,3324.3,NA,NA,NA,NA,NA,NA,NA,NA,NA,NULL,223,2,20.2.4,https://neurocog.fernuni.ch/studies/vweber/aberisha/delayed/index.html?vp=223&sess=2,"Mozilla/5.0 (Windows NT 10.0; Win64; x64) AppleWebKit/537.36 (KHTML, like Gecko) Chrome/124.0.0.0 Safari/537.36",Win32,de-CH,de,Europe/Zurich,-120,2560,1440,2560,1257,2560,1305,1,production,f5b4a49f956347addd546a832a3327688c2c0fef
13ced,Deep Question,html.Page,1_0_0_0,NA,NA,form submission,14112.899999999,3310.8999999985,3306.6,3324.3,17437.199999999,17437.299999997,2024-04-26T17:16:07Z,17440.9,Sänger,mwimbaji,s,msichana,shughuli,mshirika,fdfsff,NA,NA,NULL,NA,NA,NA,NA,NA,NA,NA,NA,NA,NA,NA,NA,NA,NA,NA,NA,NA,NA,NA
13ced,Save data screen,canvas.Screen,1_0_0_1,NA,NA,timeout,501.2,17438,17440.16,17440.9,17925.4,17926.399999999,2024-04-26T17:16:07Z,17942.1,Sänger,mwimbaji,s,msichana,shughuli,mshirika,NA,NA,0,NULL,NA,NA,NA,NA,NA,NA,NA,NA,NA,NA,NA,NA,NA,NA,NA,NA,NA,NA,NA
13ced,deep,flow.Sequence,1_0_0,NA,NA,completion,14601.1,3310.8999999985,3306.6,3324.3,17925.4,17926.599999998,2024-04-26T17:16:07Z,17942.1,Sänger,mwimbaji,s,msichana,shughuli,mshirika,NA,NA,NA,NULL,NA,NA,NA,NA,NA,NA,NA,NA,NA,NA,NA,NA,NA,NA,NA,NA,NA,NA,NA
13ced,task,flow.Sequence,1_0,NA,NA,completion,14601.1,3310.8999999985,3306.6,3324.3,17925.4,17926.699999999,2024-04-26T17:16:07Z,17942.1,Sänger,mwimbaji,s,msichana,shughuli,mshirika,NA,NA,NA,NULL,NA,NA,NA,NA,NA,NA,NA,NA,NA,NA,NA,NA,NA,NA,NA,NA,NA,NA,NA
13ced,Deep Question,html.Page,1_1_0_0,NA,NA,form submission,8141.9999999978,17926.799999997,17925.4,17942.1,26084.099999998,26084.299999997,2024-04-26T17:16:15Z,26094.6,Kontrolle,kudhibiti,d,mbinguni,kufunga,utegemezi,fsggs,NA,NA,NULL,NA,NA,NA,NA,NA,NA,NA,NA,NA,NA,NA,NA,NA,NA,NA,NA,NA,NA,NA
13ced,Save data screen,canvas.Screen,1_1_0_1,NA,NA,timeout,501.2,26084.899999999,26077.8,26094.6,26579.2,26579.599999998,2024-04-26T17:16:16Z,26595.8,Kontrolle,kudhibiti,d,mbinguni,kufunga,utegemezi,NA,NA,0,NULL,NA,NA,NA,NA,NA,NA,NA,NA,NA,NA,NA,NA,NA,NA,NA,NA,NA,NA,NA
13ced,deep,flow.Sequence,1_1_0,NA,NA,completion,8637.1,17926.799999997,17925.4,17942.1,26579.2,26579.799999997,2024-04-26T17:16:16Z,26595.8,Kontrolle,kudhibiti,d,mbinguni,kufunga,utegemezi,NA,NA,NA,NULL,NA,NA,NA,NA,NA,NA,NA,NA,NA,NA,NA,NA,NA,NA,NA,NA,NA,NA,NA
13ced,task,flow.Sequence,1_1,NA,NA,completion,8637.1,17926.799999997,17925.4,17942.1,26579.2,26579.799999997,2024-04-26T17:16:16Z,26595.8,Kontrolle,kudhibiti,d,mbinguni,kufunga,utegemezi,NA,NA,NA,NULL,NA,NA,NA,NA,NA,NA,NA,NA,NA,NA,NA,NA,NA,NA,NA,NA,NA,NA,NA
13ced,Deep Question,html.Page,1_2_0_0,NA,NA,form submission,4393.2999999978,26580,26579.2,26595.8,30989.099999998,30989.399999999,2024-04-26T17:16:20Z,30989.5,Kreativität,ubunifu,s,mratibu,mwendelezo,makubaliano,gfsgg,NA,NA,NULL,NA,NA,NA,NA,NA,NA,NA,NA,NA,NA,NA,NA,NA,NA,NA,NA,NA,NA,NA
13ced,Save data screen,canvas.Screen,1_2_0_1,NA,NA,timeout,501.4,30990,30988.994,30989.5,31474,31474.399999999,2024-04-26T17:16:21Z,31490.9,Kreativität,ubunifu,s,mratibu,mwendelezo,makubaliano,NA,NA,0,NULL,NA,NA,NA,NA,NA,NA,NA,NA,NA,NA,NA,NA,NA,NA,NA,NA,NA,NA,NA
13ced,deep,flow.Sequence,1_2_0,NA,NA,completion,4878.2,26580,26579.2,26595.8,31474,31474.599999998,2024-04-26T17:16:21Z,31490.9,Kreativität,ubunifu,s,mratibu,mwendelezo,makubaliano,NA,NA,NA,NULL,NA,NA,NA,NA,NA,NA,NA,NA,NA,NA,NA,NA,NA,NA,NA,NA,NA,NA,NA
13ced,task,flow.Sequence,1_2,NA,NA,completion,4878.2,26579.899999999,26579.2,26595.8,31474,31474.699999999,2024-04-26T17:16:21Z,31490.9,Kreativität,ubunifu,s,mratibu,mwendelezo,makubaliano,NA,NA,NA,NULL,NA,NA,NA,NA,NA,NA,NA,NA,NA,NA,NA,NA,NA,NA,NA,NA,NA,NA,NA
13ced,Deep Question,html.Page,1_3_0_0,NA,NA,form submission,4103.1999999978,31474.799999997,31474,31490.9,35594.099999998,35594.199999999,2024-04-26T17:16:25Z,35600.4,Abrechnung,uhasibu,d,kusahihisha,mpambano,mashambulizi,fdsgg,NA,NA,NULL,NA,NA,NA,NA,NA,NA,NA,NA,NA,NA,NA,NA,NA,NA,NA,NA,NA,NA,NA
13ced,Save data screen,canvas.Screen,1_3_0_1,NA,NA,timeout,501.2,35594.899999999,35583.5,35600.4,36084.8,36085.299999997,2024-04-26T17:16:25Z,36101.6,Abrechnung,uhasibu,d,kusahihisha,mpambano,mashambulizi,NA,NA,0,NULL,NA,NA,NA,NA,NA,NA,NA,NA,NA,NA,NA,NA,NA,NA,NA,NA,NA,NA,NA
13ced,deep,flow.Sequence,1_3_0,NA,NA,completion,4593.9,31474.799999997,31474,31490.9,36084.8,36085.599999998,2024-04-26T17:16:25Z,36101.6,Abrechnung,uhasibu,d,kusahihisha,mpambano,mashambulizi,NA,NA,NA,NULL,NA,NA,NA,NA,NA,NA,NA,NA,NA,NA,NA,NA,NA,NA,NA,NA,NA,NA,NA
13ced,task,flow.Sequence,1_3,NA,NA,completion,4593.9,31474.799999997,31474,31490.9,36084.8,36085.699999999,2024-04-26T17:16:25Z,36101.6,Abrechnung,uhasibu,d,kusahihisha,mpambano,mashambulizi,NA,NA,NA,NULL,NA,NA,NA,NA,NA,NA,NA,NA,NA,NA,NA,NA,NA,NA,NA,NA,NA,NA,NA
13ced,Deep Question,html.Page,1_4_0_0,NA,NA,form submission,3940.0999999993,36085.799999997,36084.8,36101.6,40041.699999999,40042,2024-04-26T17:16:29Z,40044.3,Verzögerung,kuchelewa,d,mwakilishi,mwanauchumi,jaribio,fsgg,NA,NA,NULL,NA,NA,NA,NA,NA,NA,NA,NA,NA,NA,NA,NA,NA,NA,NA,NA,NA,NA,NA
13ced,Save data screen,canvas.Screen,1_4_0_1,NA,NA,timeout,501.1,40042.599999998,40043.928,40044.3,40528.7,40529.199999999,2024-04-26T17:16:30Z,40545.4,Verzögerung,kuchelewa,d,mwakilishi,mwanauchumi,jaribio,NA,NA,0,NULL,NA,NA,NA,NA,NA,NA,NA,NA,NA,NA,NA,NA,NA,NA,NA,NA,NA,NA,NA
13ced,deep,flow.Sequence,1_4_0,NA,NA,completion,4427.1,36085.799999997,36084.8,36101.6,40528.7,40529.399999999,2024-04-26T17:16:30Z,40545.4,Verzögerung,kuchelewa,d,mwakilishi,mwanauchumi,jaribio,NA,NA,NA,NULL,NA,NA,NA,NA,NA,NA,NA,NA,NA,NA,NA,NA,NA,NA,NA,NA,NA,NA,NA
13ced,task,flow.Sequence,1_4,NA,NA,completion,4427.1,36085.699999999,36084.8,36101.6,40528.7,40529.5,2024-04-26T17:16:30Z,40545.4,Verzögerung,kuchelewa,d,mwakilishi,mwanauchumi,jaribio,NA,NA,NA,NULL,NA,NA,NA,NA,NA,NA,NA,NA,NA,NA,NA,NA,NA,NA,NA,NA,NA,NA,NA
13ced,Deep Question,html.Page,1_5_0_0,NA,NA,form submission,5039.1,40529.599999998,40528.7,40545.4,45584.5,45584.699999999,2024-04-26T17:16:35Z,45590.6,Kanzler,diwani,d,rasilmali,mahitaji,maabudu,fsfgg,NA,NA,NULL,NA,NA,NA,NA,NA,NA,NA,NA,NA,NA,NA,NA,NA,NA,NA,NA,NA,NA,NA
13ced,Save data screen,canvas.Screen,1_5_0_1,NA,NA,timeout,501.2,45585.099999998,45573.9,45590.6,46075.1,46075.599999998,2024-04-26T17:16:35Z,46091.8,Kanzler,diwani,d,rasilmali,mahitaji,maabudu,NA,NA,0,NULL,NA,NA,NA,NA,NA,NA,NA,NA,NA,NA,NA,NA,NA,NA,NA,NA,NA,NA,NA
13ced,deep,flow.Sequence,1_5_0,NA,NA,completion,5529.7,40529.5,40528.7,40545.4,46075.1,46075.799999997,2024-04-26T17:16:35Z,46091.8,Kanzler,diwani,d,rasilmali,mahitaji,maabudu,NA,NA,NA,NULL,NA,NA,NA,NA,NA,NA,NA,NA,NA,NA,NA,NA,NA,NA,NA,NA,NA,NA,NA
13ced,task,flow.Sequence,1_5,NA,NA,completion,5529.7,40529.5,40528.7,40545.4,46075.1,46075.899999999,2024-04-26T17:16:35Z,46091.8,Kanzler,diwani,d,rasilmali,mahitaji,maabudu,NA,NA,NA,NULL,NA,NA,NA,NA,NA,NA,NA,NA,NA,NA,NA,NA,NA,NA,NA,NA,NA,NA,NA
13ced,Deep Question,html.Page,1_6_0_0,NA,NA,form submission,3355.0999999985,46076.099999998,46075.1,46091.8,49446.899999999,49447.199999999,2024-04-26T17:16:39Z,49449.8,Übersicht,kilindo,d,mgusano,chipukizi,kulinganisha,fsdgf,NA,NA,NULL,NA,NA,NA,NA,NA,NA,NA,NA,NA,NA,NA,NA,NA,NA,NA,NA,NA,NA,NA
13ced,Save data screen,canvas.Screen,1_6_0_1,NA,NA,timeout,501.1,49447.699999999,49449.428,49449.8,49934.2,49934.699999999,2024-04-26T17:16:39Z,49950.9,Übersicht,kilindo,d,mgusano,chipukizi,kulinganisha,NA,NA,0,NULL,NA,NA,NA,NA,NA,NA,NA,NA,NA,NA,NA,NA,NA,NA,NA,NA,NA,NA,NA
13ced,deep,flow.Sequence,1_6_0,NA,NA,completion,3842.4,46076.099999998,46075.1,46091.8,49934.2,49935,2024-04-26T17:16:39Z,49950.9,Übersicht,kilindo,d,mgusano,chipukizi,kulinganisha,NA,NA,NA,NULL,NA,NA,NA,NA,NA,NA,NA,NA,NA,NA,NA,NA,NA,NA,NA,NA,NA,NA,NA
13ced,task,flow.Sequence,1_6,NA,NA,completion,3842.4,46076,46075.1,46091.8,49934.2,49935.199999999,2024-04-26T17:16:39Z,49950.9,Übersicht,kilindo,d,mgusano,chipukizi,kulinganisha,NA,NA,NA,NULL,NA,NA,NA,NA,NA,NA,NA,NA,NA,NA,NA,NA,NA,NA,NA,NA,NA,NA,NA
13ced,Deep Question,html.Page,1_7_0_0,NA,NA,form submission,3328.6999999978,49935.299999997,49934.2,49950.9,53279.599999998,53279.799999997,2024-04-26T17:16:43Z,53292.1,Prüfung,mtihani,s,mkulima,mtizamo,ufumbuzi,gfsgg,NA,NA,NULL,NA,NA,NA,NA,NA,NA,NA,NA,NA,NA,NA,NA,NA,NA,NA,NA,NA,NA,NA
13ced,Save data screen,canvas.Screen,1_7_0_1,NA,NA,timeout,501.2,53280.299999997,53275.3,53292.1,53776.6,53776.899999999,2024-04-26T17:16:43Z,53793.3,Prüfung,mtihani,s,mkulima,mtizamo,ufumbuzi,NA,NA,0,NULL,NA,NA,NA,NA,NA,NA,NA,NA,NA,NA,NA,NA,NA,NA,NA,NA,NA,NA,NA
13ced,deep,flow.Sequence,1_7_0,NA,NA,completion,3825.7,49935.299999997,49934.2,49950.9,53776.6,53777,2024-04-26T17:16:43Z,53793.3,Prüfung,mtihani,s,mkulima,mtizamo,ufumbuzi,NA,NA,NA,NULL,NA,NA,NA,NA,NA,NA,NA,NA,NA,NA,NA,NA,NA,NA,NA,NA,NA,NA,NA
13ced,task,flow.Sequence,1_7,NA,NA,completion,3825.7,49935.199999999,49934.2,49950.9,53776.6,53777.099999998,2024-04-26T17:16:43Z,53793.3,Prüfung,mtihani,s,mkulima,mtizamo,ufumbuzi,NA,NA,NA,NULL,NA,NA,NA,NA,NA,NA,NA,NA,NA,NA,NA,NA,NA,NA,NA,NA,NA,NA,NA
13ced,Deep Question,html.Page,1_8_0_0,NA,NA,form submission,2868.7,53777.199999999,53776.6,53793.3,56662,56662.299999997,2024-04-26T17:16:46Z,56666.8,Angreifer,mshambulizi,s,kitengo,tasinia,usafirishaji,fsgg,NA,NA,NULL,NA,NA,NA,NA,NA,NA,NA,NA,NA,NA,NA,NA,NA,NA,NA,NA,NA,NA,NA
13ced,Save data screen,canvas.Screen,1_8_0_1,NA,NA,timeout,501.1,56662.799999997,56649.9,56666.8,57151.2,57151.899999999,2024-04-26T17:16:46Z,57167.9,Angreifer,mshambulizi,s,kitengo,tasinia,usafirishaji,NA,NA,0,NULL,NA,NA,NA,NA,NA,NA,NA,NA,NA,NA,NA,NA,NA,NA,NA,NA,NA,NA,NA
13ced,deep,flow.Sequence,1_8_0,NA,NA,completion,3357.9,53777.099999998,53776.6,53793.3,57151.2,57152.099999998,2024-04-26T17:16:46Z,57167.9,Angreifer,mshambulizi,s,kitengo,tasinia,usafirishaji,NA,NA,NA,NULL,NA,NA,NA,NA,NA,NA,NA,NA,NA,NA,NA,NA,NA,NA,NA,NA,NA,NA,NA
13ced,task,flow.Sequence,1_8,NA,NA,completion,3357.9,53777.099999998,53776.6,53793.3,57151.2,57152.199999999,2024-04-26T17:16:46Z,57167.9,Angreifer,mshambulizi,s,kitengo,tasinia,usafirishaji,NA,NA,NA,NULL,NA,NA,NA,NA,NA,NA,NA,NA,NA,NA,NA,NA,NA,NA,NA,NA,NA,NA,NA
13ced,Deep Question,html.Page,1_9_0_0,NA,NA,form submission,2959.1999999978,57152.199999999,57151.2,57167.9,60127.099999998,60127.199999999,2024-04-26T17:16:49Z,60141.6,Können,unaweza,s,kiongozi,bustani,mienendo,fgsg,NA,NA,NULL,NA,NA,NA,NA,NA,NA,NA,NA,NA,NA,NA,NA,NA,NA,NA,NA,NA,NA,NA
13ced,Save data screen,canvas.Screen,1_9_0_1,NA,NA,timeout,501.2,60127.699999999,60124.7,60141.6,60626.1,60626.599999998,2024-04-26T17:16:50Z,60642.8,Können,unaweza,s,kiongozi,bustani,mienendo,NA,NA,0,NULL,NA,NA,NA,NA,NA,NA,NA,NA,NA,NA,NA,NA,NA,NA,NA,NA,NA,NA,NA
13ced,deep,flow.Sequence,1_9_0,NA,NA,completion,3458.2,57152.199999999,57151.2,57167.9,60626.1,60626.799999997,2024-04-26T17:16:50Z,60642.8,Können,unaweza,s,kiongozi,bustani,mienendo,NA,NA,NA,NULL,NA,NA,NA,NA,NA,NA,NA,NA,NA,NA,NA,NA,NA,NA,NA,NA,NA,NA,NA
13ced,task,flow.Sequence,1_9,NA,NA,completion,3458.2,57152.199999999,57151.2,57167.9,60626.1,60627,2024-04-26T17:16:50Z,60642.8,Können,unaweza,s,kiongozi,bustani,mienendo,NA,NA,NA,NULL,NA,NA,NA,NA,NA,NA,NA,NA,NA,NA,NA,NA,NA,NA,NA,NA,NA,NA,NA
13ced,Deep Question,html.Page,1_10_0_0,NA,NA,form submission,17236.999999997,60627.199999999,60626.1,60642.8,77879.799999997,77879.899999999,2024-04-26T17:17:07Z,77883.5,Körper,kiwiliwili,d,mapambano,mpatanishi,kiolezo,kiwiliwilli,NA,NA,NULL,NA,NA,NA,NA,NA,NA,NA,NA,NA,NA,NA,NA,NA,NA,NA,NA,NA,NA,NA
13ced,Save data screen,canvas.Screen,1_10_0_1,NA,NA,timeout,501.10000000001,77881.299999997,77883.128,77883.5,78367.9,78368.299999997,2024-04-26T17:17:08Z,78384.6,Körper,kiwiliwili,d,mapambano,mpatanishi,kiolezo,NA,NA,0,NULL,NA,NA,NA,NA,NA,NA,NA,NA,NA,NA,NA,NA,NA,NA,NA,NA,NA,NA,NA
13ced,deep,flow.Sequence,1_10_0,NA,NA,completion,17725.1,60627.199999999,60626.1,60642.8,78367.9,78368.5,2024-04-26T17:17:08Z,78384.6,Körper,kiwiliwili,d,mapambano,mpatanishi,kiolezo,NA,NA,NA,NULL,NA,NA,NA,NA,NA,NA,NA,NA,NA,NA,NA,NA,NA,NA,NA,NA,NA,NA,NA
13ced,task,flow.Sequence,1_10,NA,NA,completion,17725.1,60627,60626.1,60642.8,78367.9,78368.5,2024-04-26T17:17:08Z,78384.6,Körper,kiwiliwili,d,mapambano,mpatanishi,kiolezo,NA,NA,NA,NULL,NA,NA,NA,NA,NA,NA,NA,NA,NA,NA,NA,NA,NA,NA,NA,NA,NA,NA,NA
13ced,Deep Question,html.Page,1_11_0_0,NA,NA,form submission,15388.9,78368.599999998,78367.9,78384.6,93773.5,93773.799999997,2024-04-26T17:17:23Z,93787.6,Aufstand,ugomaji,s,mazidio,msingi,kujieleza,ufgani,NA,NA,NULL,NA,NA,NA,NA,NA,NA,NA,NA,NA,NA,NA,NA,NA,NA,NA,NA,NA,NA,NA
13ced,Save data screen,canvas.Screen,1_11_0_1,NA,NA,timeout,501.2,93775.299999997,93770.7,93787.6,94272,94272.5,2024-04-26T17:17:24Z,94288.8,Aufstand,ugomaji,s,mazidio,msingi,kujieleza,NA,NA,0,NULL,NA,NA,NA,NA,NA,NA,NA,NA,NA,NA,NA,NA,NA,NA,NA,NA,NA,NA,NA
13ced,deep,flow.Sequence,1_11_0,NA,NA,completion,15887.4,78368.599999998,78367.9,78384.6,94272,94272.699999999,2024-04-26T17:17:24Z,94288.8,Aufstand,ugomaji,s,mazidio,msingi,kujieleza,NA,NA,NA,NULL,NA,NA,NA,NA,NA,NA,NA,NA,NA,NA,NA,NA,NA,NA,NA,NA,NA,NA,NA
13ced,task,flow.Sequence,1_11,NA,NA,completion,15887.4,78368.599999998,78367.9,78384.6,94272,94272.699999999,2024-04-26T17:17:24Z,94288.8,Aufstand,ugomaji,s,mazidio,msingi,kujieleza,NA,NA,NA,NULL,NA,NA,NA,NA,NA,NA,NA,NA,NA,NA,NA,NA,NA,NA,NA,NA,NA,NA,NA
13ced,Deep Question,html.Page,1_12_0_0,NA,NA,form submission,4838.999999997,94272.799999997,94272,94288.8,99127.799999997,99127.899999999,2024-04-26T17:17:28Z,99133.5,System,maongozi,s,chokochoko,nuksani,mitaani,fgkjsgs,NA,NA,NULL,NA,NA,NA,NA,NA,NA,NA,NA,NA,NA,NA,NA,NA,NA,NA,NA,NA,NA,NA
13ced,Save data screen,canvas.Screen,1_12_0_1,NA,NA,timeout,501.5,99129.299999997,99117.2,99133.5,99618.2,99618.899999999,2024-04-26T17:17:29Z,99635,System,maongozi,s,chokochoko,nuksani,mitaani,NA,NA,0,NULL,NA,NA,NA,NA,NA,NA,NA,NA,NA,NA,NA,NA,NA,NA,NA,NA,NA,NA,NA
13ced,deep,flow.Sequence,1_12_0,NA,NA,completion,5329.4,94272.799999997,94272,94288.8,99618.2,99619.099999998,2024-04-26T17:17:29Z,99635,System,maongozi,s,chokochoko,nuksani,mitaani,NA,NA,NA,NULL,NA,NA,NA,NA,NA,NA,NA,NA,NA,NA,NA,NA,NA,NA,NA,NA,NA,NA,NA
13ced,task,flow.Sequence,1_12,NA,NA,completion,5329.4,94272.799999997,94272,94288.8,99618.2,99619.299999997,2024-04-26T17:17:29Z,99635,System,maongozi,s,chokochoko,nuksani,mitaani,NA,NA,NA,NULL,NA,NA,NA,NA,NA,NA,NA,NA,NA,NA,NA,NA,NA,NA,NA,NA,NA,NA,NA
13ced,Deep Question,html.Page,1_13_0_0,NA,NA,form submission,8562.0999999978,99619.399999999,99618.2,99635,108197.1,108197.4,2024-04-26T17:17:37Z,108204.9,Lawine,banguko,s,maambukizi,usuluhishi,chekechea,bugenko,NA,NA,NULL,NA,NA,NA,NA,NA,NA,NA,NA,NA,NA,NA,NA,NA,NA,NA,NA,NA,NA,NA
13ced,Save data screen,canvas.Screen,1_13_0_1,NA,NA,timeout,501.3,108199,108188,108204.9,108690.2,108691,2024-04-26T17:17:38Z,108706.2,Lawine,banguko,s,maambukizi,usuluhishi,chekechea,NA,NA,0,NULL,NA,NA,NA,NA,NA,NA,NA,NA,NA,NA,NA,NA,NA,NA,NA,NA,NA,NA,NA
13ced,deep,flow.Sequence,1_13_0,NA,NA,completion,9055.2,99619.399999999,99618.2,99635,108690.2,108691.2,2024-04-26T17:17:38Z,108706.2,Lawine,banguko,s,maambukizi,usuluhishi,chekechea,NA,NA,NA,NULL,NA,NA,NA,NA,NA,NA,NA,NA,NA,NA,NA,NA,NA,NA,NA,NA,NA,NA,NA
13ced,task,flow.Sequence,1_13,NA,NA,completion,9055.2,99619.399999999,99618.2,99635,108690.2,108691.3,2024-04-26T17:17:38Z,108706.2,Lawine,banguko,s,maambukizi,usuluhishi,chekechea,NA,NA,NA,NULL,NA,NA,NA,NA,NA,NA,NA,NA,NA,NA,NA,NA,NA,NA,NA,NA,NA,NA,NA
13ced,Deep Question,html.Page,1_14_0_0,NA,NA,form submission,4695.9999999993,108691.3,108690.2,108706.2,113402.2,113402.4,2024-04-26T17:17:43Z,113417.3,Gefährdung,kuhatarisha,d,uchokozi,udhaifu,makorowezo,jhjhj,NA,NA,NULL,NA,NA,NA,NA,NA,NA,NA,NA,NA,NA,NA,NA,NA,NA,NA,NA,NA,NA,NA
13ced,Save data screen,canvas.Screen,1_14_0_1,NA,NA,timeout,501.2,113403.8,113401.1,113417.3,113902,113903,2024-04-26T17:17:43Z,113918.5,Gefährdung,kuhatarisha,d,uchokozi,udhaifu,makorowezo,NA,NA,0,NULL,NA,NA,NA,NA,NA,NA,NA,NA,NA,NA,NA,NA,NA,NA,NA,NA,NA,NA,NA
13ced,deep,flow.Sequence,1_14_0,NA,NA,completion,5195.8,108691.3,108690.2,108706.2,113902,113903.1,2024-04-26T17:17:43Z,113918.5,Gefährdung,kuhatarisha,d,uchokozi,udhaifu,makorowezo,NA,NA,NA,NULL,NA,NA,NA,NA,NA,NA,NA,NA,NA,NA,NA,NA,NA,NA,NA,NA,NA,NA,NA
13ced,task,flow.Sequence,1_14,NA,NA,completion,5195.8,108691.3,108690.2,108706.2,113902,113903.1,2024-04-26T17:17:43Z,113918.5,Gefährdung,kuhatarisha,d,uchokozi,udhaifu,makorowezo,NA,NA,NA,NULL,NA,NA,NA,NA,NA,NA,NA,NA,NA,NA,NA,NA,NA,NA,NA,NA,NA,NA,NA
13ced,Deep Question,html.Page,1_15_0_0,NA,NA,form submission,6367.8999999985,113903.4,113902,113918.5,120286.4,120286.5,2024-04-26T17:17:50Z,120300.1,Kultur,utamaduni,d,shetani,gerezani,mazingira,kikeo,NA,NA,NULL,NA,NA,NA,NA,NA,NA,NA,NA,NA,NA,NA,NA,NA,NA,NA,NA,NA,NA,NA
13ced,Save data screen,canvas.Screen,1_15_0_1,NA,NA,timeout,501.39999999999,120288,120283.3,120300.1,120784.6,120785.3,2024-04-26T17:17:50Z,120801.5,Kultur,utamaduni,d,shetani,gerezani,mazingira,NA,NA,0,NULL,NA,NA,NA,NA,NA,NA,NA,NA,NA,NA,NA,NA,NA,NA,NA,NA,NA,NA,NA
13ced,deep,flow.Sequence,1_15_0,NA,NA,completion,6866.1,113903.2,113902,113918.5,120784.6,120785.4,2024-04-26T17:17:50Z,120801.5,Kultur,utamaduni,d,shetani,gerezani,mazingira,NA,NA,NA,NULL,NA,NA,NA,NA,NA,NA,NA,NA,NA,NA,NA,NA,NA,NA,NA,NA,NA,NA,NA
13ced,task,flow.Sequence,1_15,NA,NA,completion,6866.1,113903.2,113902,113918.5,120784.6,120785.5,2024-04-26T17:17:50Z,120801.5,Kultur,utamaduni,d,shetani,gerezani,mazingira,NA,NA,NA,NULL,NA,NA,NA,NA,NA,NA,NA,NA,NA,NA,NA,NA,NA,NA,NA,NA,NA,NA,NA
13ced,retrieval block 1 (cued recall),flow.Loop,1,NA,NA,completion,117460.3,3310.8999999985,3306.6,3324.3,120784.6,120785.5,2024-04-26T17:17:50Z,120801.5,NA,NA,NA,NA,NA,NA,NA,NA,NA,NULL,NA,NA,NA,NA,NA,NA,NA,NA,NA,NA,NA,NA,NA,NA,NA,NA,NA,NA,NA
13ced,Shallow Question,html.Page,2_0_0_0,NA,NA,form submission,9138.0999999978,120785.7,120784.6,120801.5,129939.6,129939.8,2024-04-26T17:17:59Z,129957.5,Kreativität,ubunifu,s,mratibu,mwendelezo,makubaliano,ubunifu,NA,NA,"c(""distractor1"", ""distractor2"", ""distractor3"")",NA,NA,NA,NA,NA,NA,NA,NA,NA,NA,NA,NA,NA,NA,NA,NA,NA,NA,NA
13ced,Save data screen,canvas.Screen,2_0_0_1,NA,NA,timeout,500,129941.3,129939.228,129957.5,130440.9,130441.6,2024-04-26T17:18:00Z,130457.5,Kreativität,ubunifu,s,mratibu,mwendelezo,makubaliano,NA,NA,1,"c(""distractor1"", ""distractor2"", ""distractor3"")",NA,NA,NA,NA,NA,NA,NA,NA,NA,NA,NA,NA,NA,NA,NA,NA,NA,NA,NA
13ced,shallow,flow.Sequence,2_0_0,NA,NA,completion,9639.4,120785.7,120784.6,120801.5,130440.9,130441.9,2024-04-26T17:18:00Z,130457.5,Kreativität,ubunifu,s,mratibu,mwendelezo,makubaliano,NA,NA,NA,"c(""distractor1"", ""distractor2"", ""distractor3"")",NA,NA,NA,NA,NA,NA,NA,NA,NA,NA,NA,NA,NA,NA,NA,NA,NA,NA,NA
13ced,task,flow.Sequence,2_0,NA,NA,completion,9639.4,120785.7,120784.6,120801.5,130440.9,130442,2024-04-26T17:18:00Z,130457.5,Kreativität,ubunifu,s,mratibu,mwendelezo,makubaliano,NA,NA,NA,"c(""distractor1"", ""distractor2"", ""distractor3"")",NA,NA,NA,NA,NA,NA,NA,NA,NA,NA,NA,NA,NA,NA,NA,NA,NA,NA,NA
13ced,Shallow Question,html.Page,2_1_0_0,NA,NA,form submission,10064,130442.1,130440.9,130457.5,140521.5,140521.7,2024-04-26T17:18:10Z,140531.1,Kultur,utamaduni,d,shetani,gerezani,mazingira,utamaduni,NA,NA,"c(""distractor1"", ""distractor2"", ""distractor3"")",NA,NA,NA,NA,NA,NA,NA,NA,NA,NA,NA,NA,NA,NA,NA,NA,NA,NA,NA
13ced,Save data screen,canvas.Screen,2_1_0_1,NA,NA,timeout,501.39999999999,140523.1,140515.028,140531.1,141015.6,141016.1,2024-04-26T17:18:10Z,141032.5,Kultur,utamaduni,d,shetani,gerezani,mazingira,NA,NA,1,"c(""distractor1"", ""distractor2"", ""distractor3"")",NA,NA,NA,NA,NA,NA,NA,NA,NA,NA,NA,NA,NA,NA,NA,NA,NA,NA,NA
13ced,shallow,flow.Sequence,2_1_0,NA,NA,completion,10558.1,130442.1,130440.9,130457.5,141015.6,141016.3,2024-04-26T17:18:10Z,141032.5,Kultur,utamaduni,d,shetani,gerezani,mazingira,NA,NA,NA,"c(""distractor1"", ""distractor2"", ""distractor3"")",NA,NA,NA,NA,NA,NA,NA,NA,NA,NA,NA,NA,NA,NA,NA,NA,NA,NA,NA
13ced,task,flow.Sequence,2_1,NA,NA,completion,10558.1,130442.1,130440.9,130457.5,141015.6,141016.4,2024-04-26T17:18:10Z,141032.5,Kultur,utamaduni,d,shetani,gerezani,mazingira,NA,NA,NA,"c(""distractor1"", ""distractor2"", ""distractor3"")",NA,NA,NA,NA,NA,NA,NA,NA,NA,NA,NA,NA,NA,NA,NA,NA,NA,NA,NA
13ced,Shallow Question,html.Page,2_2_0_0,NA,NA,form submission,8564.799999997,141016.5,141015.6,141032.5,149597.3,149597.5,2024-04-26T17:18:19Z,149602.6,Sänger,mwimbaji,s,msichana,shughuli,mshirika,mwimbaji,NA,NA,"c(""distractor1"", ""distractor2"", ""distractor3"")",NA,NA,NA,NA,NA,NA,NA,NA,NA,NA,NA,NA,NA,NA,NA,NA,NA,NA,NA
13ced,Save data screen,canvas.Screen,2_2_0_1,NA,NA,timeout,501.29999999999,149599,149585.628,149602.6,150087.2,150087.9,2024-04-26T17:18:19Z,150103.9,Sänger,mwimbaji,s,msichana,shughuli,mshirika,NA,NA,1,"c(""distractor1"", ""distractor2"", ""distractor3"")",NA,NA,NA,NA,NA,NA,NA,NA,NA,NA,NA,NA,NA,NA,NA,NA,NA,NA,NA
13ced,shallow,flow.Sequence,2_2_0,NA,NA,completion,9054.7,141016.5,141015.6,141032.5,150087.2,150088.1,2024-04-26T17:18:19Z,150103.9,Sänger,mwimbaji,s,msichana,shughuli,mshirika,NA,NA,NA,"c(""distractor1"", ""distractor2"", ""distractor3"")",NA,NA,NA,NA,NA,NA,NA,NA,NA,NA,NA,NA,NA,NA,NA,NA,NA,NA,NA
13ced,task,flow.Sequence,2_2,NA,NA,completion,9054.7,141016.5,141015.6,141032.5,150087.2,150088.2,2024-04-26T17:18:19Z,150103.9,Sänger,mwimbaji,s,msichana,shughuli,mshirika,NA,NA,NA,"c(""distractor1"", ""distractor2"", ""distractor3"")",NA,NA,NA,NA,NA,NA,NA,NA,NA,NA,NA,NA,NA,NA,NA,NA,NA,NA,NA
13ced,Shallow Question,html.Page,2_3_0_0,NA,NA,form submission,6169.2999999993,150088.4,150087.2,150103.9,156273.2,156273.4,2024-04-26T17:18:26Z,156285,Aufstand,ugomaji,s,mazidio,msingi,kujieleza,ugomaji,NA,NA,"c(""distractor1"", ""distractor2"", ""distractor3"")",NA,NA,NA,NA,NA,NA,NA,NA,NA,NA,NA,NA,NA,NA,NA,NA,NA,NA,NA
13ced,Save data screen,canvas.Screen,2_3_0_1,NA,NA,timeout,501.10000000001,156274.7,156268.1,156285,156770.1,156771.2,2024-04-26T17:18:26Z,156786.1,Aufstand,ugomaji,s,mazidio,msingi,kujieleza,NA,NA,1,"c(""distractor1"", ""distractor2"", ""distractor3"")",NA,NA,NA,NA,NA,NA,NA,NA,NA,NA,NA,NA,NA,NA,NA,NA,NA,NA,NA
13ced,shallow,flow.Sequence,2_3_0,NA,NA,completion,6666.2,150088.3,150087.2,150103.9,156770.1,156771.3,2024-04-26T17:18:26Z,156786.1,Aufstand,ugomaji,s,mazidio,msingi,kujieleza,NA,NA,NA,"c(""distractor1"", ""distractor2"", ""distractor3"")",NA,NA,NA,NA,NA,NA,NA,NA,NA,NA,NA,NA,NA,NA,NA,NA,NA,NA,NA
13ced,task,flow.Sequence,2_3,NA,NA,completion,6666.2,150088.3,150087.2,150103.9,156770.1,156771.5,2024-04-26T17:18:26Z,156786.1,Aufstand,ugomaji,s,mazidio,msingi,kujieleza,NA,NA,NA,"c(""distractor1"", ""distractor2"", ""distractor3"")",NA,NA,NA,NA,NA,NA,NA,NA,NA,NA,NA,NA,NA,NA,NA,NA,NA,NA,NA
13ced,Shallow Question,html.Page,2_4_0_0,NA,NA,form submission,4076.0999999992,156771.5,156770.1,156786.1,160862.2,160862.4,2024-04-26T17:18:30Z,160880.2,Lawine,banguko,s,maambukizi,usuluhishi,chekechea,banguko,NA,NA,"c(""distractor1"", ""distractor2"", ""distractor3"")",NA,NA,NA,NA,NA,NA,NA,NA,NA,NA,NA,NA,NA,NA,NA,NA,NA,NA,NA
13ced,Save data screen,canvas.Screen,2_4_0_1,NA,NA,timeout,500.19999999998,160863.8,160862.028,160880.2,161363.5,161364,2024-04-26T17:18:31Z,161380.4,Lawine,banguko,s,maambukizi,usuluhishi,chekechea,NA,NA,1,"c(""distractor1"", ""distractor2"", ""distractor3"")",NA,NA,NA,NA,NA,NA,NA,NA,NA,NA,NA,NA,NA,NA,NA,NA,NA,NA,NA
13ced,shallow,flow.Sequence,2_4_0,NA,NA,completion,4577.4,156771.5,156770.1,156786.1,161363.5,161364.2,2024-04-26T17:18:31Z,161380.4,Lawine,banguko,s,maambukizi,usuluhishi,chekechea,NA,NA,NA,"c(""distractor1"", ""distractor2"", ""distractor3"")",NA,NA,NA,NA,NA,NA,NA,NA,NA,NA,NA,NA,NA,NA,NA,NA,NA,NA,NA
13ced,task,flow.Sequence,2_4,NA,NA,completion,4577.4,156771.5,156770.1,156786.1,161363.5,161364.3,2024-04-26T17:18:31Z,161380.4,Lawine,banguko,s,maambukizi,usuluhishi,chekechea,NA,NA,NA,"c(""distractor1"", ""distractor2"", ""distractor3"")",NA,NA,NA,NA,NA,NA,NA,NA,NA,NA,NA,NA,NA,NA,NA,NA,NA,NA,NA
13ced,Shallow Question,html.Page,2_5_0_0,NA,NA,form submission,8002.4999999985,161364.3,161363.5,161380.4,169382.9,169383.1,2024-04-26T17:18:39Z,169400.5,System,maongozi,s,chokochoko,nuksani,mitaani,maongozi,NA,NA,"c(""distractor1"", ""distractor2"", ""distractor3"")",NA,NA,NA,NA,NA,NA,NA,NA,NA,NA,NA,NA,NA,NA,NA,NA,NA,NA,NA
13ced,Save data screen,canvas.Screen,2_5_0_1,NA,NA,timeout,499.89999999999,169384.5,169382.726,169400.5,169883.8,169884.2,2024-04-26T17:18:39Z,169900.4,System,maongozi,s,chokochoko,nuksani,mitaani,NA,NA,1,"c(""distractor1"", ""distractor2"", ""distractor3"")",NA,NA,NA,NA,NA,NA,NA,NA,NA,NA,NA,NA,NA,NA,NA,NA,NA,NA,NA
13ced,shallow,flow.Sequence,2_5_0,NA,NA,completion,8503.4,161364.3,161363.5,161380.4,169883.8,169884.4,2024-04-26T17:18:39Z,169900.4,System,maongozi,s,chokochoko,nuksani,mitaani,NA,NA,NA,"c(""distractor1"", ""distractor2"", ""distractor3"")",NA,NA,NA,NA,NA,NA,NA,NA,NA,NA,NA,NA,NA,NA,NA,NA,NA,NA,NA
13ced,task,flow.Sequence,2_5,NA,NA,completion,8503.4,161364.3,161363.5,161380.4,169883.8,169884.5,2024-04-26T17:18:39Z,169900.4,System,maongozi,s,chokochoko,nuksani,mitaani,NA,NA,NA,"c(""distractor1"", ""distractor2"", ""distractor3"")",NA,NA,NA,NA,NA,NA,NA,NA,NA,NA,NA,NA,NA,NA,NA,NA,NA,NA,NA
13ced,Shallow Question,html.Page,2_6_0_0,NA,NA,form submission,9628.899999997,169884.7,169883.8,169900.4,179529.3,179529.4,2024-04-26T17:18:49Z,179539.8,Angreifer,mshambulizi,s,kitengo,tasinia,usafirishaji,kitengo,NA,NA,"c(""distractor1"", ""distractor2"", ""distractor3"")",NA,NA,NA,NA,NA,NA,NA,NA,NA,NA,NA,NA,NA,NA,NA,NA,NA,NA,NA
13ced,Save data screen,canvas.Screen,2_6_0_1,NA,NA,timeout,501.30000000002,179530.9,179523.1,179539.8,180024.6,180025.6,2024-04-26T17:18:49Z,180041.1,Angreifer,mshambulizi,s,kitengo,tasinia,usafirishaji,NA,NA,0,"c(""distractor1"", ""distractor2"", ""distractor3"")",NA,NA,NA,NA,NA,NA,NA,NA,NA,NA,NA,NA,NA,NA,NA,NA,NA,NA,NA
13ced,shallow,flow.Sequence,2_6_0,NA,NA,completion,10124.2,169884.7,169883.8,169900.4,180024.6,180025.7,2024-04-26T17:18:49Z,180041.1,Angreifer,mshambulizi,s,kitengo,tasinia,usafirishaji,NA,NA,NA,"c(""distractor1"", ""distractor2"", ""distractor3"")",NA,NA,NA,NA,NA,NA,NA,NA,NA,NA,NA,NA,NA,NA,NA,NA,NA,NA,NA
13ced,task,flow.Sequence,2_6,NA,NA,completion,10124.2,169884.6,169883.8,169900.4,180024.6,180025.8,2024-04-26T17:18:49Z,180041.1,Angreifer,mshambulizi,s,kitengo,tasinia,usafirishaji,NA,NA,NA,"c(""distractor1"", ""distractor2"", ""distractor3"")",NA,NA,NA,NA,NA,NA,NA,NA,NA,NA,NA,NA,NA,NA,NA,NA,NA,NA,NA
13ced,Shallow Question,html.Page,2_7_0_0,NA,NA,form submission,7416.4999999978,180025.9,180024.6,180041.1,187457.6,187457.9,2024-04-26T17:18:57Z,187458.5,Kontrolle,kudhibiti,d,mbinguni,kufunga,utegemezi,kudhibiti,NA,NA,"c(""distractor1"", ""distractor2"", ""distractor3"")",NA,NA,NA,NA,NA,NA,NA,NA,NA,NA,NA,NA,NA,NA,NA,NA,NA,NA,NA
13ced,Save data screen,canvas.Screen,2_7_0_1,NA,NA,timeout,501.20000000001,187459.4,187458.16,187458.5,187943.9,187944.6,2024-04-26T17:18:57Z,187959.7,Kontrolle,kudhibiti,d,mbinguni,kufunga,utegemezi,NA,NA,1,"c(""distractor1"", ""distractor2"", ""distractor3"")",NA,NA,NA,NA,NA,NA,NA,NA,NA,NA,NA,NA,NA,NA,NA,NA,NA,NA,NA
13ced,shallow,flow.Sequence,2_7_0,NA,NA,completion,7902.8,180025.9,180024.6,180041.1,187943.9,187944.8,2024-04-26T17:18:57Z,187959.7,Kontrolle,kudhibiti,d,mbinguni,kufunga,utegemezi,NA,NA,NA,"c(""distractor1"", ""distractor2"", ""distractor3"")",NA,NA,NA,NA,NA,NA,NA,NA,NA,NA,NA,NA,NA,NA,NA,NA,NA,NA,NA
13ced,task,flow.Sequence,2_7,NA,NA,completion,7902.8,180025.8,180024.6,180041.1,187943.9,187944.8,2024-04-26T17:18:57Z,187959.7,Kontrolle,kudhibiti,d,mbinguni,kufunga,utegemezi,NA,NA,NA,"c(""distractor1"", ""distractor2"", ""distractor3"")",NA,NA,NA,NA,NA,NA,NA,NA,NA,NA,NA,NA,NA,NA,NA,NA,NA,NA,NA
13ced,Shallow Question,html.Page,2_8_0_0,NA,NA,form submission,5535.9999999992,187945,187943.9,187959.7,193495.7,193495.8,2024-04-26T17:19:03Z,193506.1,Prüfung,mtihani,s,mkulima,mtizamo,ufumbuzi,mtihani,NA,NA,"c(""distractor1"", ""distractor2"", ""distractor3"")",NA,NA,NA,NA,NA,NA,NA,NA,NA,NA,NA,NA,NA,NA,NA,NA,NA,NA,NA
13ced,Save data screen,canvas.Screen,2_8_0_1,NA,NA,timeout,501.10000000001,193497.1,193489.4,193506.1,193990.7,193992.7,2024-04-26T17:19:03Z,194007.2,Prüfung,mtihani,s,mkulima,mtizamo,ufumbuzi,NA,NA,1,"c(""distractor1"", ""distractor2"", ""distractor3"")",NA,NA,NA,NA,NA,NA,NA,NA,NA,NA,NA,NA,NA,NA,NA,NA,NA,NA,NA
13ced,shallow,flow.Sequence,2_8_0,NA,NA,completion,6031,187944.9,187943.9,187959.7,193990.7,193992.9,2024-04-26T17:19:03Z,194007.2,Prüfung,mtihani,s,mkulima,mtizamo,ufumbuzi,NA,NA,NA,"c(""distractor1"", ""distractor2"", ""distractor3"")",NA,NA,NA,NA,NA,NA,NA,NA,NA,NA,NA,NA,NA,NA,NA,NA,NA,NA,NA
13ced,task,flow.Sequence,2_8,NA,NA,completion,6031,187944.9,187943.9,187959.7,193990.7,193993,2024-04-26T17:19:03Z,194007.2,Prüfung,mtihani,s,mkulima,mtizamo,ufumbuzi,NA,NA,NA,"c(""distractor1"", ""distractor2"", ""distractor3"")",NA,NA,NA,NA,NA,NA,NA,NA,NA,NA,NA,NA,NA,NA,NA,NA,NA,NA,NA
13ced,Shallow Question,html.Page,2_9_0_0,NA,NA,form submission,7063.1999999985,193993.1,193990.7,194007.2,201070.4,201070.5,2024-04-26T17:19:10Z,201073.9,Abrechnung,uhasibu,d,kusahihisha,mpambano,mashambulizi,uhasibu,NA,NA,"c(""distractor1"", ""distractor2"", ""distractor3"")",NA,NA,NA,NA,NA,NA,NA,NA,NA,NA,NA,NA,NA,NA,NA,NA,NA,NA,NA
13ced,Save data screen,canvas.Screen,2_9_0_1,NA,NA,timeout,501.10000000001,201072.2,201057,201073.9,201558.4,201558.8,2024-04-26T17:19:11Z,201575,Abrechnung,uhasibu,d,kusahihisha,mpambano,mashambulizi,NA,NA,1,"c(""distractor1"", ""distractor2"", ""distractor3"")",NA,NA,NA,NA,NA,NA,NA,NA,NA,NA,NA,NA,NA,NA,NA,NA,NA,NA,NA
13ced,shallow,flow.Sequence,2_9_0,NA,NA,completion,7551.2,193993,193990.7,194007.2,201558.4,201558.9,2024-04-26T17:19:11Z,201575,Abrechnung,uhasibu,d,kusahihisha,mpambano,mashambulizi,NA,NA,NA,"c(""distractor1"", ""distractor2"", ""distractor3"")",NA,NA,NA,NA,NA,NA,NA,NA,NA,NA,NA,NA,NA,NA,NA,NA,NA,NA,NA
13ced,task,flow.Sequence,2_9,NA,NA,completion,7551.2,193993,193990.7,194007.2,201558.4,201559,2024-04-26T17:19:11Z,201575,Abrechnung,uhasibu,d,kusahihisha,mpambano,mashambulizi,NA,NA,NA,"c(""distractor1"", ""distractor2"", ""distractor3"")",NA,NA,NA,NA,NA,NA,NA,NA,NA,NA,NA,NA,NA,NA,NA,NA,NA,NA,NA
13ced,Shallow Question,html.Page,2_10_0_0,NA,NA,form submission,3935.799999997,201559.1,201558.4,201575,205510.8,205511,2024-04-26T17:19:15Z,205517.8,Kanzler,diwani,d,rasilmali,mahitaji,maabudu,diwani,NA,NA,"c(""distractor1"", ""distractor2"", ""distractor3"")",NA,NA,NA,NA,NA,NA,NA,NA,NA,NA,NA,NA,NA,NA,NA,NA,NA,NA,NA
13ced,Save data screen,canvas.Screen,2_10_0_1,NA,NA,timeout,501.20000000001,205512.4,205500.8,205517.8,206002.3,206002.8,2024-04-26T17:19:15Z,206019,Kanzler,diwani,d,rasilmali,mahitaji,maabudu,NA,NA,1,"c(""distractor1"", ""distractor2"", ""distractor3"")",NA,NA,NA,NA,NA,NA,NA,NA,NA,NA,NA,NA,NA,NA,NA,NA,NA,NA,NA
13ced,shallow,flow.Sequence,2_10_0,NA,NA,completion,4427.3,201559.1,201558.4,201575,206002.3,206003.1,2024-04-26T17:19:15Z,206019,Kanzler,diwani,d,rasilmali,mahitaji,maabudu,NA,NA,NA,"c(""distractor1"", ""distractor2"", ""distractor3"")",NA,NA,NA,NA,NA,NA,NA,NA,NA,NA,NA,NA,NA,NA,NA,NA,NA,NA,NA
13ced,task,flow.Sequence,2_10,NA,NA,completion,4427.3,201559.1,201558.4,201575,206002.3,206003.1,2024-04-26T17:19:15Z,206019,Kanzler,diwani,d,rasilmali,mahitaji,maabudu,NA,NA,NA,"c(""distractor1"", ""distractor2"", ""distractor3"")",NA,NA,NA,NA,NA,NA,NA,NA,NA,NA,NA,NA,NA,NA,NA,NA,NA,NA,NA
13ced,Shallow Question,html.Page,2_11_0_0,NA,NA,form submission,5056.8999999985,206003.3,206002.3,206019,211075.9,211076.1,2024-04-26T17:19:20Z,211080.8,Übersicht,kilindo,d,mgusano,chipukizi,kulinganisha,kilindo,NA,NA,"c(""distractor1"", ""distractor2"", ""distractor3"")",NA,NA,NA,NA,NA,NA,NA,NA,NA,NA,NA,NA,NA,NA,NA,NA,NA,NA,NA
13ced,Save data screen,canvas.Screen,2_11_0_1,NA,NA,timeout,501.20000000001,211077.5,211064.1,211080.8,211565.9,211566.7,2024-04-26T17:19:21Z,211582,Übersicht,kilindo,d,mgusano,chipukizi,kulinganisha,NA,NA,1,"c(""distractor1"", ""distractor2"", ""distractor3"")",NA,NA,NA,NA,NA,NA,NA,NA,NA,NA,NA,NA,NA,NA,NA,NA,NA,NA,NA
13ced,shallow,flow.Sequence,2_11_0,NA,NA,completion,5546.9,206003.3,206002.3,206019,211565.9,211566.8,2024-04-26T17:19:21Z,211582,Übersicht,kilindo,d,mgusano,chipukizi,kulinganisha,NA,NA,NA,"c(""distractor1"", ""distractor2"", ""distractor3"")",NA,NA,NA,NA,NA,NA,NA,NA,NA,NA,NA,NA,NA,NA,NA,NA,NA,NA,NA
13ced,task,flow.Sequence,2_11,NA,NA,completion,5546.9,206003.3,206002.3,206019,211565.9,211567,2024-04-26T17:19:21Z,211582,Übersicht,kilindo,d,mgusano,chipukizi,kulinganisha,NA,NA,NA,"c(""distractor1"", ""distractor2"", ""distractor3"")",NA,NA,NA,NA,NA,NA,NA,NA,NA,NA,NA,NA,NA,NA,NA,NA,NA,NA,NA
13ced,Shallow Question,html.Page,2_12_0_0,NA,NA,form submission,8239.0999999978,211567.1,211565.9,211582,219821.1,219821.3,2024-04-26T17:19:29Z,219834.8,Können,unaweza,s,kiongozi,bustani,mienendo,kiongozi,NA,NA,"c(""distractor1"", ""distractor2"", ""distractor3"")",NA,NA,NA,NA,NA,NA,NA,NA,NA,NA,NA,NA,NA,NA,NA,NA,NA,NA,NA
13ced,Save data screen,canvas.Screen,2_12_0_1,NA,NA,timeout,501.20000000001,219822.9,219818.3,219834.8,220319.3,220319.8,2024-04-26T17:19:30Z,220336,Können,unaweza,s,kiongozi,bustani,mienendo,NA,NA,0,"c(""distractor1"", ""distractor2"", ""distractor3"")",NA,NA,NA,NA,NA,NA,NA,NA,NA,NA,NA,NA,NA,NA,NA,NA,NA,NA,NA
13ced,shallow,flow.Sequence,2_12_0,NA,NA,completion,8737.3,211567.1,211565.9,211582,220319.3,220320.4,2024-04-26T17:19:30Z,220336,Können,unaweza,s,kiongozi,bustani,mienendo,NA,NA,NA,"c(""distractor1"", ""distractor2"", ""distractor3"")",NA,NA,NA,NA,NA,NA,NA,NA,NA,NA,NA,NA,NA,NA,NA,NA,NA,NA,NA
13ced,task,flow.Sequence,2_12,NA,NA,completion,8737.3,211567.1,211565.9,211582,220319.3,220320.5,2024-04-26T17:19:30Z,220336,Können,unaweza,s,kiongozi,bustani,mienendo,NA,NA,NA,"c(""distractor1"", ""distractor2"", ""distractor3"")",NA,NA,NA,NA,NA,NA,NA,NA,NA,NA,NA,NA,NA,NA,NA,NA,NA,NA,NA
13ced,Shallow Question,html.Page,2_13_0_0,NA,NA,form submission,13592.399999999,220320.6,220319.3,220336,233928.4,233928.6,2024-04-26T17:19:43Z,233934.7,Gefährdung,kuhatarisha,d,uchokozi,udhaifu,makorowezo,kuhatarisha,NA,NA,"c(""distractor1"", ""distractor2"", ""distractor3"")",NA,NA,NA,NA,NA,NA,NA,NA,NA,NA,NA,NA,NA,NA,NA,NA,NA,NA,NA
13ced,Save data screen,canvas.Screen,2_13_0_1,NA,NA,timeout,501.19999999998,233930,233917.7,233934.7,234419.4,234420,2024-04-26T17:19:44Z,234435.9,Gefährdung,kuhatarisha,d,uchokozi,udhaifu,makorowezo,NA,NA,1,"c(""distractor1"", ""distractor2"", ""distractor3"")",NA,NA,NA,NA,NA,NA,NA,NA,NA,NA,NA,NA,NA,NA,NA,NA,NA,NA,NA
13ced,shallow,flow.Sequence,2_13_0,NA,NA,completion,14083.4,220320.6,220319.3,220336,234419.4,234420.1,2024-04-26T17:19:44Z,234435.9,Gefährdung,kuhatarisha,d,uchokozi,udhaifu,makorowezo,NA,NA,NA,"c(""distractor1"", ""distractor2"", ""distractor3"")",NA,NA,NA,NA,NA,NA,NA,NA,NA,NA,NA,NA,NA,NA,NA,NA,NA,NA,NA
13ced,task,flow.Sequence,2_13,NA,NA,completion,14083.4,220320.6,220319.3,220336,234419.4,234420.2,2024-04-26T17:19:44Z,234435.9,Gefährdung,kuhatarisha,d,uchokozi,udhaifu,makorowezo,NA,NA,NA,"c(""distractor1"", ""distractor2"", ""distractor3"")",NA,NA,NA,NA,NA,NA,NA,NA,NA,NA,NA,NA,NA,NA,NA,NA,NA,NA,NA
13ced,Shallow Question,html.Page,2_14_0_0,NA,NA,form submission,3902.7999999993,234420.3,234419.4,234435.9,238338.7,238338.9,2024-04-26T17:19:48Z,238345.1,Verzögerung,kuchelewa,d,mwakilishi,mwanauchumi,jaribio,kuchelewa,NA,NA,"c(""distractor1"", ""distractor2"", ""distractor3"")",NA,NA,NA,NA,NA,NA,NA,NA,NA,NA,NA,NA,NA,NA,NA,NA,NA,NA,NA
13ced,Save data screen,canvas.Screen,2_14_0_1,NA,NA,timeout,501.39999999999,238340.2,238328.2,238345.1,238829.7,238831.3,2024-04-26T17:19:48Z,238846.5,Verzögerung,kuchelewa,d,mwakilishi,mwanauchumi,jaribio,NA,NA,1,"c(""distractor1"", ""distractor2"", ""distractor3"")",NA,NA,NA,NA,NA,NA,NA,NA,NA,NA,NA,NA,NA,NA,NA,NA,NA,NA,NA
13ced,shallow,flow.Sequence,2_14_0,NA,NA,completion,4393.8,234420.3,234419.4,234435.9,238829.7,238831.5,2024-04-26T17:19:48Z,238846.5,Verzögerung,kuchelewa,d,mwakilishi,mwanauchumi,jaribio,NA,NA,NA,"c(""distractor1"", ""distractor2"", ""distractor3"")",NA,NA,NA,NA,NA,NA,NA,NA,NA,NA,NA,NA,NA,NA,NA,NA,NA,NA,NA
13ced,task,flow.Sequence,2_14,NA,NA,completion,4393.8,234420.2,234419.4,234435.9,238829.7,238831.7,2024-04-26T17:19:48Z,238846.5,Verzögerung,kuchelewa,d,mwakilishi,mwanauchumi,jaribio,NA,NA,NA,"c(""distractor1"", ""distractor2"", ""distractor3"")",NA,NA,NA,NA,NA,NA,NA,NA,NA,NA,NA,NA,NA,NA,NA,NA,NA,NA,NA
13ced,Shallow Question,html.Page,2_15_0_0,NA,NA,form submission,4202.0999999978,238831.8,238829.7,238846.5,243048.6,243048.8,2024-04-26T17:19:52Z,243056.3,Körper,kiwiliwili,d,mapambano,mpatanishi,kiolezo,kiwiliwili,NA,NA,"c(""distractor1"", ""distractor2"", ""distractor3"")",NA,NA,NA,NA,NA,NA,NA,NA,NA,NA,NA,NA,NA,NA,NA,NA,NA,NA,NA
13ced,Save data screen,canvas.Screen,2_15_0_1,NA,NA,timeout,501.20000000001,243050.2,243039.662,243056.3,243540.8,243541.3,2024-04-26T17:19:53Z,243557.5,Körper,kiwiliwili,d,mapambano,mpatanishi,kiolezo,NA,NA,1,"c(""distractor1"", ""distractor2"", ""distractor3"")",NA,NA,NA,NA,NA,NA,NA,NA,NA,NA,NA,NA,NA,NA,NA,NA,NA,NA,NA
13ced,shallow,flow.Sequence,2_15_0,NA,NA,completion,4694.3,238831.8,238829.7,238846.5,243540.8,243541.6,2024-04-26T17:19:53Z,243557.5,Körper,kiwiliwili,d,mapambano,mpatanishi,kiolezo,NA,NA,NA,"c(""distractor1"", ""distractor2"", ""distractor3"")",NA,NA,NA,NA,NA,NA,NA,NA,NA,NA,NA,NA,NA,NA,NA,NA,NA,NA,NA
13ced,task,flow.Sequence,2_15,NA,NA,completion,4694.3,238831.7,238829.7,238846.5,243540.8,243541.7,2024-04-26T17:19:53Z,243557.5,Körper,kiwiliwili,d,mapambano,mpatanishi,kiolezo,NA,NA,NA,"c(""distractor1"", ""distractor2"", ""distractor3"")",NA,NA,NA,NA,NA,NA,NA,NA,NA,NA,NA,NA,NA,NA,NA,NA,NA,NA,NA
13ced,retrieval block 2 (multiple choice),flow.Loop,2,NA,NA,completion,122739.3,120785.7,120784.6,120801.5,243540.8,243541.8,2024-04-26T17:19:53Z,243557.5,NA,NA,NA,NA,NA,NA,NA,NA,NA,"c(""distractor1"", ""distractor2"", ""distractor3"")",NA,NA,NA,NA,NA,NA,NA,NA,NA,NA,NA,NA,NA,NA,NA,NA,NA,NA,NA
13ced,End,canvas.Screen,3,NA,keypress(Space),response,2605.5999999978,243541.9,243540.8,243557.5,246163.1,246165.1,2024-04-26T17:19:55Z,246180.7,NA,NA,NA,NA,NA,NA,NA,NA,NA,NULL,NA,NA,NA,NA,NA,NA,NA,NA,NA,NA,NA,NA,NA,NA,NA,NA,NA,NA,NA
13ced,root,flow.Sequence,NA,NA,NA,completion,245778.9,382.39999999851,300.8,384.2,246163.1,246165.4,2024-04-26T17:19:55Z,246180.7,NA,NA,NA,NA,NA,NA,NA,NA,NA,NULL,NA,NA,NA,NA,NA,NA,NA,NA,NA,NA,NA,NA,NA,NA,NA,NA,NA,NA,NA
