observation,sender,sender_type,sender_id,response,response_action,ended_on,duration,time_run,time_render,time_show,time_end,time_commit,timestamp,time_switch,german,swahili,enc,distractor1,distractor2,distractor3,response_2,x,correct,distractors,url_vp,url_sess,meta_labjs_version,meta_location,meta_user_agent,meta_platform,meta_language,meta_locale,meta_time_zone,meta_timezone_offset,meta_screen_width,meta_screen_height,meta_scroll_width,meta_scroll_height,meta_window_inner_width,meta_window_inner_height,meta_device_pixel_ratio,meta_labjs_build_flavor,meta_labjs_build_commit
7eb8f,Introduction delayed retrieval,canvas.Screen,0,weiter,keypress(Space),response,7810.8,394.39999999851,272,405.7,8216.5,8218.099999994,2024-05-24T18:08:28Z,8224.1,NA,NA,NA,NA,NA,NA,NA,NA,NA,NULL,223,4,20.2.4,https://neurocog.fernuni.ch/studies/vweber/aberisha/delayed/index.html?vp=223&sess=4,"Mozilla/5.0 (Windows NT 10.0; Win64; x64) AppleWebKit/537.36 (KHTML, like Gecko) Chrome/125.0.0.0 Safari/537.36",Win32,de-CH,de,Europe/Zurich,-120,2560,1440,2560,1257,2560,1305,1,production,f5b4a49f956347addd546a832a3327688c2c0fef
7eb8f,Deep Question,html.Page,1_0_0_0,NA,NA,form submission,8653.999999994,8218.3999999985,8207,8224.1,16878.099999994,16878.299999997,2024-05-24T18:08:36Z,16877.9,Verpackung,ufungaji,s,uhusiano,upimaji,uchunguzi,jdfskf,NA,NA,NULL,NA,NA,NA,NA,NA,NA,NA,NA,NA,NA,NA,NA,NA,NA,NA,NA,NA,NA,NA
7eb8f,Save data screen,canvas.Screen,1_0_0_1,NA,NA,timeout,501.2,16879,16877.594,16877.9,17362.4,17362.899999999,2024-05-24T18:08:37Z,17379.1,Verpackung,ufungaji,s,uhusiano,upimaji,uchunguzi,NA,NA,0,NULL,NA,NA,NA,NA,NA,NA,NA,NA,NA,NA,NA,NA,NA,NA,NA,NA,NA,NA,NA
7eb8f,deep,flow.Sequence,1_0_0,NA,NA,completion,9138.3,8218.3999999985,8207,8224.1,17362.4,17363.199999996,2024-05-24T18:08:37Z,17379.1,Verpackung,ufungaji,s,uhusiano,upimaji,uchunguzi,NA,NA,NA,NULL,NA,NA,NA,NA,NA,NA,NA,NA,NA,NA,NA,NA,NA,NA,NA,NA,NA,NA,NA
7eb8f,task,flow.Sequence,1_0,NA,NA,completion,9138.3,8218.299999997,8207,8224.1,17362.4,17363.299999997,2024-05-24T18:08:37Z,17379.1,Verpackung,ufungaji,s,uhusiano,upimaji,uchunguzi,NA,NA,NA,NULL,NA,NA,NA,NA,NA,NA,NA,NA,NA,NA,NA,NA,NA,NA,NA,NA,NA,NA,NA
7eb8f,Deep Question,html.Page,1_1_0_0,NA,NA,form submission,5048.4,17363.5,17362.4,17379.1,22427.5,22427.699999996,2024-05-24T18:08:42Z,22441,Spionage,upelelezi,d,maslahi,utokazo,magangao,fdsfd,NA,NA,NULL,NA,NA,NA,NA,NA,NA,NA,NA,NA,NA,NA,NA,NA,NA,NA,NA,NA,NA,NA
7eb8f,Save data screen,canvas.Screen,1_1_0_1,NA,NA,timeout,501.1,22428.299999997,22424.028,22441,22925.5,22925.899999999,2024-05-24T18:08:42Z,22942.1,Spionage,upelelezi,d,maslahi,utokazo,magangao,NA,NA,0,NULL,NA,NA,NA,NA,NA,NA,NA,NA,NA,NA,NA,NA,NA,NA,NA,NA,NA,NA,NA
7eb8f,deep,flow.Sequence,1_1_0,NA,NA,completion,5546.4,17363.399999999,17362.4,17379.1,22925.5,22926.099999994,2024-05-24T18:08:42Z,22942.1,Spionage,upelelezi,d,maslahi,utokazo,magangao,NA,NA,NA,NULL,NA,NA,NA,NA,NA,NA,NA,NA,NA,NA,NA,NA,NA,NA,NA,NA,NA,NA,NA
7eb8f,task,flow.Sequence,1_1,NA,NA,completion,5546.4,17363.299999997,17362.4,17379.1,22925.5,22926.299999997,2024-05-24T18:08:42Z,22942.1,Spionage,upelelezi,d,maslahi,utokazo,magangao,NA,NA,NA,NULL,NA,NA,NA,NA,NA,NA,NA,NA,NA,NA,NA,NA,NA,NA,NA,NA,NA,NA,NA
7eb8f,Deep Question,html.Page,1_2_0_0,NA,NA,form submission,12227.9,22926.399999999,22925.5,22942.1,35170,35170.299999997,2024-05-24T18:08:55Z,35171.1,Fenster,dirisha,d,walakini,tasawari,maarifa,kiwani,NA,NA,NULL,NA,NA,NA,NA,NA,NA,NA,NA,NA,NA,NA,NA,NA,NA,NA,NA,NA,NA,NA
7eb8f,Save data screen,canvas.Screen,1_2_0_1,NA,NA,timeout,501.2,35170.899999999,35170.594,35171.1,35655.5,35655.899999999,2024-05-24T18:08:55Z,35672.3,Fenster,dirisha,d,walakini,tasawari,maarifa,NA,NA,0,NULL,NA,NA,NA,NA,NA,NA,NA,NA,NA,NA,NA,NA,NA,NA,NA,NA,NA,NA,NA
7eb8f,deep,flow.Sequence,1_2_0,NA,NA,completion,12713.4,22926.399999999,22925.5,22942.1,35655.5,35656,2024-05-24T18:08:55Z,35672.3,Fenster,dirisha,d,walakini,tasawari,maarifa,NA,NA,NA,NULL,NA,NA,NA,NA,NA,NA,NA,NA,NA,NA,NA,NA,NA,NA,NA,NA,NA,NA,NA
7eb8f,task,flow.Sequence,1_2,NA,NA,completion,12713.4,22926.399999999,22925.5,22942.1,35655.5,35656.199999996,2024-05-24T18:08:55Z,35672.3,Fenster,dirisha,d,walakini,tasawari,maarifa,NA,NA,NA,NULL,NA,NA,NA,NA,NA,NA,NA,NA,NA,NA,NA,NA,NA,NA,NA,NA,NA,NA,NA
7eb8f,Deep Question,html.Page,1_3_0_0,NA,NA,form submission,5273.499999997,35656.199999996,35655.5,35672.3,40945.799999997,40946.099999994,2024-05-24T18:09:00Z,40951.4,Schlange,foleni,d,uvumilivu,uteuzi,muuzaji,foleni,NA,NA,NULL,NA,NA,NA,NA,NA,NA,NA,NA,NA,NA,NA,NA,NA,NA,NA,NA,NA,NA,NA
7eb8f,Save data screen,canvas.Screen,1_3_0_1,NA,NA,timeout,501.1,40946.599999994,40934.4,40951.4,41435.9,41436.199999996,2024-05-24T18:09:01Z,41452.5,Schlange,foleni,d,uvumilivu,uteuzi,muuzaji,NA,NA,1,NULL,NA,NA,NA,NA,NA,NA,NA,NA,NA,NA,NA,NA,NA,NA,NA,NA,NA,NA,NA
7eb8f,deep,flow.Sequence,1_3_0,NA,NA,completion,5763.6,35656.199999996,35655.5,35672.3,41435.9,41436.299999997,2024-05-24T18:09:01Z,41452.5,Schlange,foleni,d,uvumilivu,uteuzi,muuzaji,NA,NA,NA,NULL,NA,NA,NA,NA,NA,NA,NA,NA,NA,NA,NA,NA,NA,NA,NA,NA,NA,NA,NA
7eb8f,task,flow.Sequence,1_3,NA,NA,completion,5763.6,35656.199999996,35655.5,35672.3,41435.9,41436.5,2024-05-24T18:09:01Z,41452.5,Schlange,foleni,d,uvumilivu,uteuzi,muuzaji,NA,NA,NA,NULL,NA,NA,NA,NA,NA,NA,NA,NA,NA,NA,NA,NA,NA,NA,NA,NA,NA,NA,NA
7eb8f,Deep Question,html.Page,1_4_0_0,NA,NA,form submission,4120.599999994,41436.599999994,41435.9,41452.5,45573.099999994,45573.399999999,2024-05-24T18:09:05Z,45578.9,Vermutung,udhanifu,s,haramia,tikisho,itifaki,fdsfds,NA,NA,NULL,NA,NA,NA,NA,NA,NA,NA,NA,NA,NA,NA,NA,NA,NA,NA,NA,NA,NA,NA
7eb8f,Save data screen,canvas.Screen,1_4_0_1,NA,NA,timeout,501.2,45573.799999997,45562,45578.9,46063.4,46063.799999997,2024-05-24T18:09:06Z,46080.1,Vermutung,udhanifu,s,haramia,tikisho,itifaki,NA,NA,0,NULL,NA,NA,NA,NA,NA,NA,NA,NA,NA,NA,NA,NA,NA,NA,NA,NA,NA,NA,NA
7eb8f,deep,flow.Sequence,1_4_0,NA,NA,completion,4610.9,41436.599999994,41435.9,41452.5,46063.4,46064,2024-05-24T18:09:06Z,46080.1,Vermutung,udhanifu,s,haramia,tikisho,itifaki,NA,NA,NA,NULL,NA,NA,NA,NA,NA,NA,NA,NA,NA,NA,NA,NA,NA,NA,NA,NA,NA,NA,NA
7eb8f,task,flow.Sequence,1_4,NA,NA,completion,4610.9,41436.599999994,41435.9,41452.5,46063.4,46064.099999994,2024-05-24T18:09:06Z,46080.1,Vermutung,udhanifu,s,haramia,tikisho,itifaki,NA,NA,NA,NULL,NA,NA,NA,NA,NA,NA,NA,NA,NA,NA,NA,NA,NA,NA,NA,NA,NA,NA,NA
7eb8f,Deep Question,html.Page,1_5_0_0,NA,NA,form submission,3843.2999999985,46064.099999994,46063.4,46080.1,49923.399999999,49923.5,2024-05-24T18:09:09Z,49939.2,Vergnügen,kichekesho,s,dubwana,mpanuko,mtesaji,fdgfsg,NA,NA,NULL,NA,NA,NA,NA,NA,NA,NA,NA,NA,NA,NA,NA,NA,NA,NA,NA,NA,NA,NA
7eb8f,Save data screen,canvas.Screen,1_5_0_1,NA,NA,timeout,501.2,49924.099999994,49922.1,49939.2,50423.6,50424,2024-05-24T18:09:10Z,50440.4,Vergnügen,kichekesho,s,dubwana,mpanuko,mtesaji,NA,NA,0,NULL,NA,NA,NA,NA,NA,NA,NA,NA,NA,NA,NA,NA,NA,NA,NA,NA,NA,NA,NA
7eb8f,deep,flow.Sequence,1_5_0,NA,NA,completion,4343.5,46064.099999994,46063.4,46080.1,50423.6,50424.099999994,2024-05-24T18:09:10Z,50440.4,Vergnügen,kichekesho,s,dubwana,mpanuko,mtesaji,NA,NA,NA,NULL,NA,NA,NA,NA,NA,NA,NA,NA,NA,NA,NA,NA,NA,NA,NA,NA,NA,NA,NA
7eb8f,task,flow.Sequence,1_5,NA,NA,completion,4343.5,46064.099999994,46063.4,46080.1,50423.6,50424.199999996,2024-05-24T18:09:10Z,50440.4,Vergnügen,kichekesho,s,dubwana,mpanuko,mtesaji,NA,NA,NA,NULL,NA,NA,NA,NA,NA,NA,NA,NA,NA,NA,NA,NA,NA,NA,NA,NA,NA,NA,NA
7eb8f,Deep Question,html.Page,1_6_0_0,NA,NA,form submission,7822.899999997,50424.299999997,50423.6,50440.4,58263.299999997,58263.399999999,2024-05-24T18:09:18Z,58275.6,Theorie,nadharia,d,ushungi,mkutano,uwakilishi,uguganzu,NA,NA,NULL,NA,NA,NA,NA,NA,NA,NA,NA,NA,NA,NA,NA,NA,NA,NA,NA,NA,NA,NA
7eb8f,Save data screen,canvas.Screen,1_6_0_1,NA,NA,timeout,501.1,58264,58258.7,58275.6,58760.1,58760.599999994,2024-05-24T18:09:18Z,58776.7,Theorie,nadharia,d,ushungi,mkutano,uwakilishi,NA,NA,0,NULL,NA,NA,NA,NA,NA,NA,NA,NA,NA,NA,NA,NA,NA,NA,NA,NA,NA,NA,NA
7eb8f,deep,flow.Sequence,1_6_0,NA,NA,completion,8319.7,50424.199999996,50423.6,50440.4,58760.1,58760.799999997,2024-05-24T18:09:18Z,58776.7,Theorie,nadharia,d,ushungi,mkutano,uwakilishi,NA,NA,NA,NULL,NA,NA,NA,NA,NA,NA,NA,NA,NA,NA,NA,NA,NA,NA,NA,NA,NA,NA,NA
7eb8f,task,flow.Sequence,1_6,NA,NA,completion,8319.7,50424.199999996,50423.6,50440.4,58760.1,58760.899999999,2024-05-24T18:09:18Z,58776.7,Theorie,nadharia,d,ushungi,mkutano,uwakilishi,NA,NA,NA,NULL,NA,NA,NA,NA,NA,NA,NA,NA,NA,NA,NA,NA,NA,NA,NA,NA,NA,NA,NA
7eb8f,Deep Question,html.Page,1_7_0_0,NA,NA,form submission,8696.4999999955,58760.899999999,58760.1,58776.7,67473.199999996,67473.399999999,2024-05-24T18:09:27Z,67480.6,Inhalt,yaliyomo,s,kishawishi,hifadhi,kutembea,maedeleno,NA,NA,NULL,NA,NA,NA,NA,NA,NA,NA,NA,NA,NA,NA,NA,NA,NA,NA,NA,NA,NA,NA
7eb8f,Save data screen,canvas.Screen,1_7_0_1,NA,NA,timeout,501.29999999999,67475,67463.6,67480.6,67965.1,67965.5,2024-05-24T18:09:27Z,67981.9,Inhalt,yaliyomo,s,kishawishi,hifadhi,kutembea,NA,NA,0,NULL,NA,NA,NA,NA,NA,NA,NA,NA,NA,NA,NA,NA,NA,NA,NA,NA,NA,NA,NA
7eb8f,deep,flow.Sequence,1_7_0,NA,NA,completion,9188.4,58760.899999999,58760.1,58776.7,67965.1,67965.799999997,2024-05-24T18:09:27Z,67981.9,Inhalt,yaliyomo,s,kishawishi,hifadhi,kutembea,NA,NA,NA,NULL,NA,NA,NA,NA,NA,NA,NA,NA,NA,NA,NA,NA,NA,NA,NA,NA,NA,NA,NA
7eb8f,task,flow.Sequence,1_7,NA,NA,completion,9188.4,58760.899999999,58760.1,58776.7,67965.1,67965.899999999,2024-05-24T18:09:27Z,67981.9,Inhalt,yaliyomo,s,kishawishi,hifadhi,kutembea,NA,NA,NA,NULL,NA,NA,NA,NA,NA,NA,NA,NA,NA,NA,NA,NA,NA,NA,NA,NA,NA,NA,NA
7eb8f,Deep Question,html.Page,1_8_0_0,NA,NA,form submission,4103.899999997,67966,67965.1,67981.9,72085.799999997,72085.899999999,2024-05-24T18:09:32Z,72091.5,Ergänzung,kijalizo,d,ulaghai,mustarehe,matangazo,dfafd,NA,NA,NULL,NA,NA,NA,NA,NA,NA,NA,NA,NA,NA,NA,NA,NA,NA,NA,NA,NA,NA,NA
7eb8f,Save data screen,canvas.Screen,1_8_0_1,NA,NA,timeout,501.2,72087.5,72074.6,72091.5,72575.9,72576.199999996,2024-05-24T18:09:32Z,72592.7,Ergänzung,kijalizo,d,ulaghai,mustarehe,matangazo,NA,NA,0,NULL,NA,NA,NA,NA,NA,NA,NA,NA,NA,NA,NA,NA,NA,NA,NA,NA,NA,NA,NA
7eb8f,deep,flow.Sequence,1_8_0,NA,NA,completion,4594,67966,67965.1,67981.9,72575.9,72576.299999997,2024-05-24T18:09:32Z,72592.7,Ergänzung,kijalizo,d,ulaghai,mustarehe,matangazo,NA,NA,NA,NULL,NA,NA,NA,NA,NA,NA,NA,NA,NA,NA,NA,NA,NA,NA,NA,NA,NA,NA,NA
7eb8f,task,flow.Sequence,1_8,NA,NA,completion,4594,67966,67965.1,67981.9,72575.9,72576.5,2024-05-24T18:09:32Z,72592.7,Ergänzung,kijalizo,d,ulaghai,mustarehe,matangazo,NA,NA,NA,NULL,NA,NA,NA,NA,NA,NA,NA,NA,NA,NA,NA,NA,NA,NA,NA,NA,NA,NA,NA
7eb8f,Deep Question,html.Page,1_9_0_0,NA,NA,form submission,2973.4999999955,72576.5,72575.9,72592.7,75566.199999996,75566.399999999,2024-05-24T18:09:35Z,75583.4,Toleranz,kuvumiliana,d,maombolezo,ujasusi,mchekeshaji,dsfdf,NA,NA,NULL,NA,NA,NA,NA,NA,NA,NA,NA,NA,NA,NA,NA,NA,NA,NA,NA,NA,NA,NA
7eb8f,Save data screen,canvas.Screen,1_9_0_1,NA,NA,timeout,500.8,75567.799999997,75565.858,75583.4,76067.5,76067.899999999,2024-05-24T18:09:36Z,76084.2,Toleranz,kuvumiliana,d,maombolezo,ujasusi,mchekeshaji,NA,NA,0,NULL,NA,NA,NA,NA,NA,NA,NA,NA,NA,NA,NA,NA,NA,NA,NA,NA,NA,NA,NA
7eb8f,deep,flow.Sequence,1_9_0,NA,NA,completion,3474.8,72576.5,72575.9,72592.7,76067.5,76068.099999994,2024-05-24T18:09:36Z,76084.2,Toleranz,kuvumiliana,d,maombolezo,ujasusi,mchekeshaji,NA,NA,NA,NULL,NA,NA,NA,NA,NA,NA,NA,NA,NA,NA,NA,NA,NA,NA,NA,NA,NA,NA,NA
7eb8f,task,flow.Sequence,1_9,NA,NA,completion,3474.8,72576.5,72575.9,72592.7,76067.5,76068.199999996,2024-05-24T18:09:36Z,76084.2,Toleranz,kuvumiliana,d,maombolezo,ujasusi,mchekeshaji,NA,NA,NA,NULL,NA,NA,NA,NA,NA,NA,NA,NA,NA,NA,NA,NA,NA,NA,NA,NA,NA,NA,NA
7eb8f,Deep Question,html.Page,1_10_0_0,NA,NA,form submission,3134.899999994,76068.399999999,76067.5,76084.2,79219.099999994,79219.299999997,2024-05-24T18:09:39Z,79225,Schock,mshtuko,d,biashara,kukataza,vichekesho,sdfsf,NA,NA,NULL,NA,NA,NA,NA,NA,NA,NA,NA,NA,NA,NA,NA,NA,NA,NA,NA,NA,NA,NA
7eb8f,Save data screen,canvas.Screen,1_10_0_1,NA,NA,timeout,501.10000000001,79220.899999999,79208,79225,79709.4,79710.599999994,2024-05-24T18:09:39Z,79726.1,Schock,mshtuko,d,biashara,kukataza,vichekesho,NA,NA,0,NULL,NA,NA,NA,NA,NA,NA,NA,NA,NA,NA,NA,NA,NA,NA,NA,NA,NA,NA,NA
7eb8f,deep,flow.Sequence,1_10_0,NA,NA,completion,3625.2,76068.399999999,76067.5,76084.2,79709.4,79710.699999996,2024-05-24T18:09:39Z,79726.1,Schock,mshtuko,d,biashara,kukataza,vichekesho,NA,NA,NA,NULL,NA,NA,NA,NA,NA,NA,NA,NA,NA,NA,NA,NA,NA,NA,NA,NA,NA,NA,NA
7eb8f,task,flow.Sequence,1_10,NA,NA,completion,3625.2,76068.299999997,76067.5,76084.2,79709.4,79710.799999997,2024-05-24T18:09:39Z,79726.1,Schock,mshtuko,d,biashara,kukataza,vichekesho,NA,NA,NA,NULL,NA,NA,NA,NA,NA,NA,NA,NA,NA,NA,NA,NA,NA,NA,NA,NA,NA,NA,NA
7eb8f,Deep Question,html.Page,1_11_0_0,NA,NA,form submission,2545.2999999985,79710.899999999,79709.4,79726.1,82271.399999999,82271.599999994,2024-05-24T18:09:42Z,82282.2,Notfall,dharura,s,rairai,malalamiko,ahueni,sdsf,NA,NA,NULL,NA,NA,NA,NA,NA,NA,NA,NA,NA,NA,NA,NA,NA,NA,NA,NA,NA,NA,NA
7eb8f,Save data screen,canvas.Screen,1_11_0_1,NA,NA,timeout,501.2,82273.099999994,82265.2,82282.2,82766.7,82767.399999999,2024-05-24T18:09:42Z,82783.4,Notfall,dharura,s,rairai,malalamiko,ahueni,NA,NA,0,NULL,NA,NA,NA,NA,NA,NA,NA,NA,NA,NA,NA,NA,NA,NA,NA,NA,NA,NA,NA
7eb8f,deep,flow.Sequence,1_11_0,NA,NA,completion,3040.6,79710.899999999,79709.4,79726.1,82766.7,82767.599999994,2024-05-24T18:09:42Z,82783.4,Notfall,dharura,s,rairai,malalamiko,ahueni,NA,NA,NA,NULL,NA,NA,NA,NA,NA,NA,NA,NA,NA,NA,NA,NA,NA,NA,NA,NA,NA,NA,NA
7eb8f,task,flow.Sequence,1_11,NA,NA,completion,3040.6,79710.799999997,79709.4,79726.1,82766.7,82767.799999997,2024-05-24T18:09:42Z,82783.4,Notfall,dharura,s,rairai,malalamiko,ahueni,NA,NA,NA,NULL,NA,NA,NA,NA,NA,NA,NA,NA,NA,NA,NA,NA,NA,NA,NA,NA,NA,NA,NA
7eb8f,Deep Question,html.Page,1_12_0_0,NA,NA,form submission,6342.9999999985,82767.899999999,82766.7,82783.4,89126.399999999,89126.599999994,2024-05-24T18:09:49Z,89131.7,Schüler,mwanafunzi,s,mwekezaji,matumizi,uaminifu,ufganzi,NA,NA,NULL,NA,NA,NA,NA,NA,NA,NA,NA,NA,NA,NA,NA,NA,NA,NA,NA,NA,NA,NA
7eb8f,Save data screen,canvas.Screen,1_12_0_1,NA,NA,timeout,501.10000000001,89132,89131.36,89131.7,89616.2,89616.599999994,2024-05-24T18:09:49Z,89632.8,Schüler,mwanafunzi,s,mwekezaji,matumizi,uaminifu,NA,NA,0,NULL,NA,NA,NA,NA,NA,NA,NA,NA,NA,NA,NA,NA,NA,NA,NA,NA,NA,NA,NA
7eb8f,deep,flow.Sequence,1_12_0,NA,NA,completion,6832.8,82767.899999999,82766.7,82783.4,89616.2,89616.799999997,2024-05-24T18:09:49Z,89632.8,Schüler,mwanafunzi,s,mwekezaji,matumizi,uaminifu,NA,NA,NA,NULL,NA,NA,NA,NA,NA,NA,NA,NA,NA,NA,NA,NA,NA,NA,NA,NA,NA,NA,NA
7eb8f,task,flow.Sequence,1_12,NA,NA,completion,6832.8,82767.899999999,82766.7,82783.4,89616.2,89616.799999997,2024-05-24T18:09:49Z,89632.8,Schüler,mwanafunzi,s,mwekezaji,matumizi,uaminifu,NA,NA,NA,NULL,NA,NA,NA,NA,NA,NA,NA,NA,NA,NA,NA,NA,NA,NA,NA,NA,NA,NA,NA
7eb8f,Deep Question,html.Page,1_13_0_0,NA,NA,form submission,4391.299999994,89617,89616.2,89632.8,94024.099999994,94024.199999996,2024-05-24T18:09:53Z,94026.6,Hoffnung,matarajio,s,kutaalamika,uratibu,mvumbuzi,dffdf,NA,NA,NULL,NA,NA,NA,NA,NA,NA,NA,NA,NA,NA,NA,NA,NA,NA,NA,NA,NA,NA,NA
7eb8f,Save data screen,canvas.Screen,1_13_0_1,NA,NA,timeout,501.09999999999,94025.699999996,94026.094,94026.6,94511,94511.5,2024-05-24T18:09:54Z,94527.7,Hoffnung,matarajio,s,kutaalamika,uratibu,mvumbuzi,NA,NA,0,NULL,NA,NA,NA,NA,NA,NA,NA,NA,NA,NA,NA,NA,NA,NA,NA,NA,NA,NA,NA
7eb8f,deep,flow.Sequence,1_13_0,NA,NA,completion,4878.2,89617,89616.2,89632.8,94511,94511.699999996,2024-05-24T18:09:54Z,94527.7,Hoffnung,matarajio,s,kutaalamika,uratibu,mvumbuzi,NA,NA,NA,NULL,NA,NA,NA,NA,NA,NA,NA,NA,NA,NA,NA,NA,NA,NA,NA,NA,NA,NA,NA
7eb8f,task,flow.Sequence,1_13,NA,NA,completion,4878.2,89616.899999999,89616.2,89632.8,94511,94511.799999997,2024-05-24T18:09:54Z,94527.7,Hoffnung,matarajio,s,kutaalamika,uratibu,mvumbuzi,NA,NA,NA,NULL,NA,NA,NA,NA,NA,NA,NA,NA,NA,NA,NA,NA,NA,NA,NA,NA,NA,NA,NA
7eb8f,Deep Question,html.Page,1_14_0_0,NA,NA,form submission,3756.4999999955,94511.899999999,94511,94527.7,98284.199999996,98284.5,2024-05-24T18:09:58Z,98286.6,Tester,wanaojaribu,s,sherti,sihiri,mlipuko,dfdf,NA,NA,NULL,NA,NA,NA,NA,NA,NA,NA,NA,NA,NA,NA,NA,NA,NA,NA,NA,NA,NA,NA
7eb8f,Save data screen,canvas.Screen,1_14_0_1,NA,NA,timeout,501.2,98285.899999999,98286.228,98286.6,98771.1,98771.399999999,2024-05-24T18:09:58Z,98787.8,Tester,wanaojaribu,s,sherti,sihiri,mlipuko,NA,NA,0,NULL,NA,NA,NA,NA,NA,NA,NA,NA,NA,NA,NA,NA,NA,NA,NA,NA,NA,NA,NA
7eb8f,deep,flow.Sequence,1_14_0,NA,NA,completion,4243.4,94511.899999999,94511,94527.7,98771.1,98771.599999994,2024-05-24T18:09:58Z,98787.8,Tester,wanaojaribu,s,sherti,sihiri,mlipuko,NA,NA,NA,NULL,NA,NA,NA,NA,NA,NA,NA,NA,NA,NA,NA,NA,NA,NA,NA,NA,NA,NA,NA
7eb8f,task,flow.Sequence,1_14,NA,NA,completion,4243.4,94511.899999999,94511,94527.7,98771.1,98771.599999994,2024-05-24T18:09:58Z,98787.8,Tester,wanaojaribu,s,sherti,sihiri,mlipuko,NA,NA,NA,NULL,NA,NA,NA,NA,NA,NA,NA,NA,NA,NA,NA,NA,NA,NA,NA,NA,NA,NA,NA
7eb8f,Deep Question,html.Page,1_15_0_0,NA,NA,form submission,3516.799999994,98771.799999997,98771.1,98787.8,102304.59999999,102304.8,2024-05-24T18:10:02Z,102312.9,Wohlstand,mafanikio,d,chimbuko,kumbuko,mapwaji,dfdf,NA,NA,NULL,NA,NA,NA,NA,NA,NA,NA,NA,NA,NA,NA,NA,NA,NA,NA,NA,NA,NA,NA
7eb8f,Save data screen,canvas.Screen,1_15_0_1,NA,NA,timeout,501.10000000001,102306.2,102295.9,102312.9,102797.3,102797.59999999,2024-05-24T18:10:02Z,102814,Wohlstand,mafanikio,d,chimbuko,kumbuko,mapwaji,NA,NA,0,NULL,NA,NA,NA,NA,NA,NA,NA,NA,NA,NA,NA,NA,NA,NA,NA,NA,NA,NA,NA
7eb8f,deep,flow.Sequence,1_15_0,NA,NA,completion,4009.5,98771.799999997,98771.1,98787.8,102797.3,102797.9,2024-05-24T18:10:02Z,102814,Wohlstand,mafanikio,d,chimbuko,kumbuko,mapwaji,NA,NA,NA,NULL,NA,NA,NA,NA,NA,NA,NA,NA,NA,NA,NA,NA,NA,NA,NA,NA,NA,NA,NA
7eb8f,task,flow.Sequence,1_15,NA,NA,completion,4009.5,98771.699999996,98771.1,98787.8,102797.3,102797.9,2024-05-24T18:10:02Z,102814,Wohlstand,mafanikio,d,chimbuko,kumbuko,mapwaji,NA,NA,NA,NULL,NA,NA,NA,NA,NA,NA,NA,NA,NA,NA,NA,NA,NA,NA,NA,NA,NA,NA,NA
7eb8f,retrieval block 1 (cued recall),flow.Loop,1,NA,NA,completion,94573.2,8218.299999997,8207,8224.1,102797.3,102798,2024-05-24T18:10:02Z,102814,NA,NA,NA,NA,NA,NA,NA,NA,NA,NULL,NA,NA,NA,NA,NA,NA,NA,NA,NA,NA,NA,NA,NA,NA,NA,NA,NA,NA,NA
7eb8f,Shallow Question,html.Page,2_0_0_0,NA,NA,form submission,14265.899999999,102798,102797.3,102814,117079.9,117080.2,2024-05-24T18:10:17Z,117080.9,Hoffnung,matarajio,s,kutaalamika,uratibu,mvumbuzi,uratibu,NA,NA,"c(""distractor1"", ""distractor2"", ""distractor3"")",NA,NA,NA,NA,NA,NA,NA,NA,NA,NA,NA,NA,NA,NA,NA,NA,NA,NA,NA
7eb8f,Save data screen,canvas.Screen,2_0_0_1,NA,NA,timeout,501.3,117081.8,117080.796,117080.9,117565.5,117565.8,2024-05-24T18:10:17Z,117582.2,Hoffnung,matarajio,s,kutaalamika,uratibu,mvumbuzi,NA,NA,0,"c(""distractor1"", ""distractor2"", ""distractor3"")",NA,NA,NA,NA,NA,NA,NA,NA,NA,NA,NA,NA,NA,NA,NA,NA,NA,NA,NA
7eb8f,shallow,flow.Sequence,2_0_0,NA,NA,completion,14751.5,102798,102797.3,102814,117565.5,117566,2024-05-24T18:10:17Z,117582.2,Hoffnung,matarajio,s,kutaalamika,uratibu,mvumbuzi,NA,NA,NA,"c(""distractor1"", ""distractor2"", ""distractor3"")",NA,NA,NA,NA,NA,NA,NA,NA,NA,NA,NA,NA,NA,NA,NA,NA,NA,NA,NA
7eb8f,task,flow.Sequence,2_0,NA,NA,completion,14751.5,102798,102797.3,102814,117565.5,117566.09999999,2024-05-24T18:10:17Z,117582.2,Hoffnung,matarajio,s,kutaalamika,uratibu,mvumbuzi,NA,NA,NA,"c(""distractor1"", ""distractor2"", ""distractor3"")",NA,NA,NA,NA,NA,NA,NA,NA,NA,NA,NA,NA,NA,NA,NA,NA,NA,NA,NA
7eb8f,Shallow Question,html.Page,2_1_0_0,NA,NA,form submission,5519.899999994,117566.2,117565.5,117582.2,123102.09999999,123102.3,2024-05-24T18:10:23Z,123111.9,Schock,mshtuko,d,biashara,kukataza,vichekesho,mshtuko,NA,NA,"c(""distractor1"", ""distractor2"", ""distractor3"")",NA,NA,NA,NA,NA,NA,NA,NA,NA,NA,NA,NA,NA,NA,NA,NA,NA,NA,NA
7eb8f,Save data screen,canvas.Screen,2_1_0_1,NA,NA,timeout,501.3,123103.9,123094.9,123111.9,123596.4,123596.9,2024-05-24T18:10:23Z,123613.2,Schock,mshtuko,d,biashara,kukataza,vichekesho,NA,NA,1,"c(""distractor1"", ""distractor2"", ""distractor3"")",NA,NA,NA,NA,NA,NA,NA,NA,NA,NA,NA,NA,NA,NA,NA,NA,NA,NA,NA
7eb8f,shallow,flow.Sequence,2_1_0,NA,NA,completion,6014.2,117566.2,117565.5,117582.2,123596.4,123597.2,2024-05-24T18:10:23Z,123613.2,Schock,mshtuko,d,biashara,kukataza,vichekesho,NA,NA,NA,"c(""distractor1"", ""distractor2"", ""distractor3"")",NA,NA,NA,NA,NA,NA,NA,NA,NA,NA,NA,NA,NA,NA,NA,NA,NA,NA,NA
7eb8f,task,flow.Sequence,2_1,NA,NA,completion,6014.2,117566.09999999,117565.5,117582.2,123596.4,123597.3,2024-05-24T18:10:23Z,123613.2,Schock,mshtuko,d,biashara,kukataza,vichekesho,NA,NA,NA,"c(""distractor1"", ""distractor2"", ""distractor3"")",NA,NA,NA,NA,NA,NA,NA,NA,NA,NA,NA,NA,NA,NA,NA,NA,NA,NA,NA
7eb8f,Shallow Question,html.Page,2_2_0_0,NA,NA,form submission,6359.099999997,123597.4,123596.4,123613.2,129972.3,129972.59999999,2024-05-24T18:10:29Z,129978,Theorie,nadharia,d,ushungi,mkutano,uwakilishi,nadharia,NA,NA,"c(""distractor1"", ""distractor2"", ""distractor3"")",NA,NA,NA,NA,NA,NA,NA,NA,NA,NA,NA,NA,NA,NA,NA,NA,NA,NA,NA
7eb8f,Save data screen,canvas.Screen,2_2_0_1,NA,NA,timeout,501.2,129974.2,129961.2,129978,130462.5,130462.9,2024-05-24T18:10:30Z,130479.2,Theorie,nadharia,d,ushungi,mkutano,uwakilishi,NA,NA,1,"c(""distractor1"", ""distractor2"", ""distractor3"")",NA,NA,NA,NA,NA,NA,NA,NA,NA,NA,NA,NA,NA,NA,NA,NA,NA,NA,NA
7eb8f,shallow,flow.Sequence,2_2_0,NA,NA,completion,6849.3,123597.4,123596.4,123613.2,130462.5,130463.09999999,2024-05-24T18:10:30Z,130479.2,Theorie,nadharia,d,ushungi,mkutano,uwakilishi,NA,NA,NA,"c(""distractor1"", ""distractor2"", ""distractor3"")",NA,NA,NA,NA,NA,NA,NA,NA,NA,NA,NA,NA,NA,NA,NA,NA,NA,NA,NA
7eb8f,task,flow.Sequence,2_2,NA,NA,completion,6849.3,123597.3,123596.4,123613.2,130462.5,130463.3,2024-05-24T18:10:30Z,130479.2,Theorie,nadharia,d,ushungi,mkutano,uwakilishi,NA,NA,NA,"c(""distractor1"", ""distractor2"", ""distractor3"")",NA,NA,NA,NA,NA,NA,NA,NA,NA,NA,NA,NA,NA,NA,NA,NA,NA,NA,NA
7eb8f,Shallow Question,html.Page,2_3_0_0,NA,NA,form submission,4623.399999994,130463.4,130462.5,130479.2,135102.59999999,135102.7,2024-05-24T18:10:35Z,135106.8,Vergnügen,kichekesho,s,dubwana,mpanuko,mtesaji,kichekesho,NA,NA,"c(""distractor1"", ""distractor2"", ""distractor3"")",NA,NA,NA,NA,NA,NA,NA,NA,NA,NA,NA,NA,NA,NA,NA,NA,NA,NA,NA
7eb8f,Save data screen,canvas.Screen,2_3_0_1,NA,NA,timeout,501.20000000001,135104,135106.358,135106.8,135591.3,135591.8,2024-05-24T18:10:35Z,135608,Vergnügen,kichekesho,s,dubwana,mpanuko,mtesaji,NA,NA,1,"c(""distractor1"", ""distractor2"", ""distractor3"")",NA,NA,NA,NA,NA,NA,NA,NA,NA,NA,NA,NA,NA,NA,NA,NA,NA,NA,NA
7eb8f,shallow,flow.Sequence,2_3_0,NA,NA,completion,5112.1,130463.3,130462.5,130479.2,135591.3,135592.09999999,2024-05-24T18:10:35Z,135608,Vergnügen,kichekesho,s,dubwana,mpanuko,mtesaji,NA,NA,NA,"c(""distractor1"", ""distractor2"", ""distractor3"")",NA,NA,NA,NA,NA,NA,NA,NA,NA,NA,NA,NA,NA,NA,NA,NA,NA,NA,NA
7eb8f,task,flow.Sequence,2_3,NA,NA,completion,5112.1,130463.3,130462.5,130479.2,135591.3,135592.3,2024-05-24T18:10:35Z,135608,Vergnügen,kichekesho,s,dubwana,mpanuko,mtesaji,NA,NA,NA,"c(""distractor1"", ""distractor2"", ""distractor3"")",NA,NA,NA,NA,NA,NA,NA,NA,NA,NA,NA,NA,NA,NA,NA,NA,NA,NA,NA
7eb8f,Shallow Question,html.Page,2_4_0_0,NA,NA,form submission,8832,135592.4,135591.3,135608,144440,144440.3,2024-05-24T18:10:44Z,144445.5,Toleranz,kuvumiliana,d,maombolezo,ujasusi,mchekeshaji,ujasusi,NA,NA,"c(""distractor1"", ""distractor2"", ""distractor3"")",NA,NA,NA,NA,NA,NA,NA,NA,NA,NA,NA,NA,NA,NA,NA,NA,NA,NA,NA
7eb8f,Save data screen,canvas.Screen,2_4_0_1,NA,NA,timeout,501.20000000001,144441.8,144428.6,144445.5,144930,144930.4,2024-05-24T18:10:44Z,144946.7,Toleranz,kuvumiliana,d,maombolezo,ujasusi,mchekeshaji,NA,NA,0,"c(""distractor1"", ""distractor2"", ""distractor3"")",NA,NA,NA,NA,NA,NA,NA,NA,NA,NA,NA,NA,NA,NA,NA,NA,NA,NA,NA
7eb8f,shallow,flow.Sequence,2_4_0,NA,NA,completion,9322,135592.3,135591.3,135608,144930,144930.7,2024-05-24T18:10:44Z,144946.7,Toleranz,kuvumiliana,d,maombolezo,ujasusi,mchekeshaji,NA,NA,NA,"c(""distractor1"", ""distractor2"", ""distractor3"")",NA,NA,NA,NA,NA,NA,NA,NA,NA,NA,NA,NA,NA,NA,NA,NA,NA,NA,NA
7eb8f,task,flow.Sequence,2_4,NA,NA,completion,9322,135592.3,135591.3,135608,144930,144930.7,2024-05-24T18:10:44Z,144946.7,Toleranz,kuvumiliana,d,maombolezo,ujasusi,mchekeshaji,NA,NA,NA,"c(""distractor1"", ""distractor2"", ""distractor3"")",NA,NA,NA,NA,NA,NA,NA,NA,NA,NA,NA,NA,NA,NA,NA,NA,NA,NA,NA
7eb8f,Shallow Question,html.Page,2_5_0_0,NA,NA,form submission,5351.1999999985,144930.8,144930,144946.7,150297.9,150298.09999999,2024-05-24T18:10:50Z,150309.4,Verpackung,ufungaji,s,uhusiano,upimaji,uchunguzi,ufungaji,NA,NA,"c(""distractor1"", ""distractor2"", ""distractor3"")",NA,NA,NA,NA,NA,NA,NA,NA,NA,NA,NA,NA,NA,NA,NA,NA,NA,NA,NA
7eb8f,Save data screen,canvas.Screen,2_5_0_1,NA,NA,timeout,501.20000000001,150299.59999999,150292.5,150309.4,150793.9,150794.7,2024-05-24T18:10:50Z,150810.6,Verpackung,ufungaji,s,uhusiano,upimaji,uchunguzi,NA,NA,1,"c(""distractor1"", ""distractor2"", ""distractor3"")",NA,NA,NA,NA,NA,NA,NA,NA,NA,NA,NA,NA,NA,NA,NA,NA,NA,NA,NA
7eb8f,shallow,flow.Sequence,2_5_0,NA,NA,completion,5847.2,144930.7,144930,144946.7,150793.9,150794.7,2024-05-24T18:10:50Z,150810.6,Verpackung,ufungaji,s,uhusiano,upimaji,uchunguzi,NA,NA,NA,"c(""distractor1"", ""distractor2"", ""distractor3"")",NA,NA,NA,NA,NA,NA,NA,NA,NA,NA,NA,NA,NA,NA,NA,NA,NA,NA,NA
7eb8f,task,flow.Sequence,2_5,NA,NA,completion,5847.2,144930.7,144930,144946.7,150793.9,150794.9,2024-05-24T18:10:50Z,150810.6,Verpackung,ufungaji,s,uhusiano,upimaji,uchunguzi,NA,NA,NA,"c(""distractor1"", ""distractor2"", ""distractor3"")",NA,NA,NA,NA,NA,NA,NA,NA,NA,NA,NA,NA,NA,NA,NA,NA,NA,NA,NA
7eb8f,Shallow Question,html.Page,2_6_0_0,NA,NA,form submission,9553.0999999955,150794.9,150793.9,150810.6,160363.7,160363.9,2024-05-24T18:11:00Z,160366.5,Ergänzung,kijalizo,d,ulaghai,mustarehe,matangazo,kijalizo,NA,NA,"c(""distractor1"", ""distractor2"", ""distractor3"")",NA,NA,NA,NA,NA,NA,NA,NA,NA,NA,NA,NA,NA,NA,NA,NA,NA,NA,NA
7eb8f,Save data screen,canvas.Screen,2_6_0_1,NA,NA,timeout,501.10000000001,160365.5,160366.128,160366.5,160850.8,160851.3,2024-05-24T18:11:00Z,160867.6,Ergänzung,kijalizo,d,ulaghai,mustarehe,matangazo,NA,NA,1,"c(""distractor1"", ""distractor2"", ""distractor3"")",NA,NA,NA,NA,NA,NA,NA,NA,NA,NA,NA,NA,NA,NA,NA,NA,NA,NA,NA
7eb8f,shallow,flow.Sequence,2_6_0,NA,NA,completion,10040.2,150794.9,150793.9,150810.6,160850.8,160851.5,2024-05-24T18:11:00Z,160867.6,Ergänzung,kijalizo,d,ulaghai,mustarehe,matangazo,NA,NA,NA,"c(""distractor1"", ""distractor2"", ""distractor3"")",NA,NA,NA,NA,NA,NA,NA,NA,NA,NA,NA,NA,NA,NA,NA,NA,NA,NA,NA
7eb8f,task,flow.Sequence,2_6,NA,NA,completion,10040.2,150794.9,150793.9,150810.6,160850.8,160851.59999999,2024-05-24T18:11:00Z,160867.6,Ergänzung,kijalizo,d,ulaghai,mustarehe,matangazo,NA,NA,NA,"c(""distractor1"", ""distractor2"", ""distractor3"")",NA,NA,NA,NA,NA,NA,NA,NA,NA,NA,NA,NA,NA,NA,NA,NA,NA,NA,NA
7eb8f,Shallow Question,html.Page,2_7_0_0,NA,NA,form submission,8098.699999997,160851.7,160850.8,160867.6,168966.3,168966.5,2024-05-24T18:11:08Z,168970.1,Vermutung,udhanifu,s,haramia,tikisho,itifaki,haramia,NA,NA,"c(""distractor1"", ""distractor2"", ""distractor3"")",NA,NA,NA,NA,NA,NA,NA,NA,NA,NA,NA,NA,NA,NA,NA,NA,NA,NA,NA
7eb8f,Save data screen,canvas.Screen,2_7_0_1,NA,NA,timeout,501.19999999998,168968,168953,168970.1,169454.5,169455.2,2024-05-24T18:11:09Z,169471.3,Vermutung,udhanifu,s,haramia,tikisho,itifaki,NA,NA,0,"c(""distractor1"", ""distractor2"", ""distractor3"")",NA,NA,NA,NA,NA,NA,NA,NA,NA,NA,NA,NA,NA,NA,NA,NA,NA,NA,NA
7eb8f,shallow,flow.Sequence,2_7_0,NA,NA,completion,8586.9,160851.59999999,160850.8,160867.6,169454.5,169455.4,2024-05-24T18:11:09Z,169471.3,Vermutung,udhanifu,s,haramia,tikisho,itifaki,NA,NA,NA,"c(""distractor1"", ""distractor2"", ""distractor3"")",NA,NA,NA,NA,NA,NA,NA,NA,NA,NA,NA,NA,NA,NA,NA,NA,NA,NA,NA
7eb8f,task,flow.Sequence,2_7,NA,NA,completion,8586.9,160851.59999999,160850.8,160867.6,169454.5,169455.5,2024-05-24T18:11:09Z,169471.3,Vermutung,udhanifu,s,haramia,tikisho,itifaki,NA,NA,NA,"c(""distractor1"", ""distractor2"", ""distractor3"")",NA,NA,NA,NA,NA,NA,NA,NA,NA,NA,NA,NA,NA,NA,NA,NA,NA,NA,NA
7eb8f,Shallow Question,html.Page,2_8_0_0,NA,NA,form submission,5509.5999999985,169455.59999999,169454.5,169471.3,174980.9,174981.09999999,2024-05-24T18:11:14Z,174984.3,Spionage,upelelezi,d,maslahi,utokazo,magangao,upelelezi,NA,NA,"c(""distractor1"", ""distractor2"", ""distractor3"")",NA,NA,NA,NA,NA,NA,NA,NA,NA,NA,NA,NA,NA,NA,NA,NA,NA,NA,NA
7eb8f,Save data screen,canvas.Screen,2_8_0_1,NA,NA,timeout,501.10000000001,174983.2,174967.4,174984.3,175468.8,175469.3,2024-05-24T18:11:15Z,175485.4,Spionage,upelelezi,d,maslahi,utokazo,magangao,NA,NA,1,"c(""distractor1"", ""distractor2"", ""distractor3"")",NA,NA,NA,NA,NA,NA,NA,NA,NA,NA,NA,NA,NA,NA,NA,NA,NA,NA,NA
7eb8f,shallow,flow.Sequence,2_8_0,NA,NA,completion,5997.5,169455.59999999,169454.5,169471.3,175468.8,175469.4,2024-05-24T18:11:15Z,175485.4,Spionage,upelelezi,d,maslahi,utokazo,magangao,NA,NA,NA,"c(""distractor1"", ""distractor2"", ""distractor3"")",NA,NA,NA,NA,NA,NA,NA,NA,NA,NA,NA,NA,NA,NA,NA,NA,NA,NA,NA
7eb8f,task,flow.Sequence,2_8,NA,NA,completion,5997.5,169455.59999999,169454.5,169471.3,175468.8,175469.59999999,2024-05-24T18:11:15Z,175485.4,Spionage,upelelezi,d,maslahi,utokazo,magangao,NA,NA,NA,"c(""distractor1"", ""distractor2"", ""distractor3"")",NA,NA,NA,NA,NA,NA,NA,NA,NA,NA,NA,NA,NA,NA,NA,NA,NA,NA,NA
7eb8f,Shallow Question,html.Page,2_9_0_0,NA,NA,form submission,4235.6,175469.59999999,175468.8,175485.4,179721,179721.2,2024-05-24T18:11:19Z,179728.7,Inhalt,yaliyomo,s,kishawishi,hifadhi,kutembea,yaliyomo,NA,NA,"c(""distractor1"", ""distractor2"", ""distractor3"")",NA,NA,NA,NA,NA,NA,NA,NA,NA,NA,NA,NA,NA,NA,NA,NA,NA,NA,NA
7eb8f,Save data screen,canvas.Screen,2_9_0_1,NA,NA,timeout,501.29999999999,179722.5,179711.9,179728.7,180213.2,180213.59999999,2024-05-24T18:11:20Z,180230,Inhalt,yaliyomo,s,kishawishi,hifadhi,kutembea,NA,NA,1,"c(""distractor1"", ""distractor2"", ""distractor3"")",NA,NA,NA,NA,NA,NA,NA,NA,NA,NA,NA,NA,NA,NA,NA,NA,NA,NA,NA
7eb8f,shallow,flow.Sequence,2_9_0,NA,NA,completion,4727.8,175469.59999999,175468.8,175485.4,180213.2,180213.8,2024-05-24T18:11:20Z,180230,Inhalt,yaliyomo,s,kishawishi,hifadhi,kutembea,NA,NA,NA,"c(""distractor1"", ""distractor2"", ""distractor3"")",NA,NA,NA,NA,NA,NA,NA,NA,NA,NA,NA,NA,NA,NA,NA,NA,NA,NA,NA
7eb8f,task,flow.Sequence,2_9,NA,NA,completion,4727.8,175469.59999999,175468.8,175485.4,180213.2,180213.8,2024-05-24T18:11:20Z,180230,Inhalt,yaliyomo,s,kishawishi,hifadhi,kutembea,NA,NA,NA,"c(""distractor1"", ""distractor2"", ""distractor3"")",NA,NA,NA,NA,NA,NA,NA,NA,NA,NA,NA,NA,NA,NA,NA,NA,NA,NA,NA
7eb8f,Shallow Question,html.Page,2_10_0_0,NA,NA,form submission,4846.3999999985,180214,180213.2,180230,185076.4,185076.7,2024-05-24T18:11:25Z,185091.5,Fenster,dirisha,d,walakini,tasawari,maarifa,dirisha,NA,NA,"c(""distractor1"", ""distractor2"", ""distractor3"")",NA,NA,NA,NA,NA,NA,NA,NA,NA,NA,NA,NA,NA,NA,NA,NA,NA,NA,NA
7eb8f,Save data screen,canvas.Screen,2_10_0_1,NA,NA,timeout,501.10000000001,185078.3,185075,185091.5,185575.9,185576.4,2024-05-24T18:11:25Z,185592.6,Fenster,dirisha,d,walakini,tasawari,maarifa,NA,NA,1,"c(""distractor1"", ""distractor2"", ""distractor3"")",NA,NA,NA,NA,NA,NA,NA,NA,NA,NA,NA,NA,NA,NA,NA,NA,NA,NA,NA
7eb8f,shallow,flow.Sequence,2_10_0,NA,NA,completion,5345.9,180214,180213.2,180230,185575.9,185576.59999999,2024-05-24T18:11:25Z,185592.6,Fenster,dirisha,d,walakini,tasawari,maarifa,NA,NA,NA,"c(""distractor1"", ""distractor2"", ""distractor3"")",NA,NA,NA,NA,NA,NA,NA,NA,NA,NA,NA,NA,NA,NA,NA,NA,NA,NA,NA
7eb8f,task,flow.Sequence,2_10,NA,NA,completion,5345.9,180214,180213.2,180230,185575.9,185576.7,2024-05-24T18:11:25Z,185592.6,Fenster,dirisha,d,walakini,tasawari,maarifa,NA,NA,NA,"c(""distractor1"", ""distractor2"", ""distractor3"")",NA,NA,NA,NA,NA,NA,NA,NA,NA,NA,NA,NA,NA,NA,NA,NA,NA,NA,NA
7eb8f,Shallow Question,html.Page,2_11_0_0,NA,NA,form submission,2731.499999994,185576.9,185575.9,185592.6,188324.09999999,188324.4,2024-05-24T18:11:28Z,188332.4,Schlange,foleni,d,uvumilivu,uteuzi,muuzaji,foleni,NA,NA,"c(""distractor1"", ""distractor2"", ""distractor3"")",NA,NA,NA,NA,NA,NA,NA,NA,NA,NA,NA,NA,NA,NA,NA,NA,NA,NA,NA
7eb8f,Save data screen,canvas.Screen,2_11_0_1,NA,NA,timeout,501.10000000001,188324.7,188315.4,188332.4,188816.9,188818.59999999,2024-05-24T18:11:28Z,188833.5,Schlange,foleni,d,uvumilivu,uteuzi,muuzaji,NA,NA,1,"c(""distractor1"", ""distractor2"", ""distractor3"")",NA,NA,NA,NA,NA,NA,NA,NA,NA,NA,NA,NA,NA,NA,NA,NA,NA,NA,NA
7eb8f,shallow,flow.Sequence,2_11_0,NA,NA,completion,3224.3,185576.8,185575.9,185592.6,188816.9,188818.8,2024-05-24T18:11:28Z,188833.5,Schlange,foleni,d,uvumilivu,uteuzi,muuzaji,NA,NA,NA,"c(""distractor1"", ""distractor2"", ""distractor3"")",NA,NA,NA,NA,NA,NA,NA,NA,NA,NA,NA,NA,NA,NA,NA,NA,NA,NA,NA
7eb8f,task,flow.Sequence,2_11,NA,NA,completion,3224.3,185576.8,185575.9,185592.6,188816.9,188818.9,2024-05-24T18:11:28Z,188833.5,Schlange,foleni,d,uvumilivu,uteuzi,muuzaji,NA,NA,NA,"c(""distractor1"", ""distractor2"", ""distractor3"")",NA,NA,NA,NA,NA,NA,NA,NA,NA,NA,NA,NA,NA,NA,NA,NA,NA,NA,NA
7eb8f,Shallow Question,html.Page,2_12_0_0,NA,NA,form submission,9488.099999994,188819,188816.9,188833.5,198321.59999999,198321.9,2024-05-24T18:11:38Z,198322.7,Tester,wanaojaribu,s,sherti,sihiri,mlipuko,sihiri,NA,NA,"c(""distractor1"", ""distractor2"", ""distractor3"")",NA,NA,NA,NA,NA,NA,NA,NA,NA,NA,NA,NA,NA,NA,NA,NA,NA,NA,NA
7eb8f,Save data screen,canvas.Screen,2_12_0_1,NA,NA,timeout,501.09999999998,198323.5,198321.954,198322.7,198807.2,198807.59999999,2024-05-24T18:11:38Z,198823.8,Tester,wanaojaribu,s,sherti,sihiri,mlipuko,NA,NA,0,"c(""distractor1"", ""distractor2"", ""distractor3"")",NA,NA,NA,NA,NA,NA,NA,NA,NA,NA,NA,NA,NA,NA,NA,NA,NA,NA,NA
7eb8f,shallow,flow.Sequence,2_12_0,NA,NA,completion,9973.7,188819,188816.9,188833.5,198807.2,198807.8,2024-05-24T18:11:38Z,198823.8,Tester,wanaojaribu,s,sherti,sihiri,mlipuko,NA,NA,NA,"c(""distractor1"", ""distractor2"", ""distractor3"")",NA,NA,NA,NA,NA,NA,NA,NA,NA,NA,NA,NA,NA,NA,NA,NA,NA,NA,NA
7eb8f,task,flow.Sequence,2_12,NA,NA,completion,9973.7,188818.9,188816.9,188833.5,198807.2,198807.9,2024-05-24T18:11:38Z,198823.8,Tester,wanaojaribu,s,sherti,sihiri,mlipuko,NA,NA,NA,"c(""distractor1"", ""distractor2"", ""distractor3"")",NA,NA,NA,NA,NA,NA,NA,NA,NA,NA,NA,NA,NA,NA,NA,NA,NA,NA,NA
7eb8f,Shallow Question,html.Page,2_13_0_0,NA,NA,form submission,8145.7999999941,198808,198807.2,198823.8,206969.59999999,206969.9,2024-05-24T18:11:46Z,206976.4,Wohlstand,mafanikio,d,chimbuko,kumbuko,mapwaji,kumbuko,NA,NA,"c(""distractor1"", ""distractor2"", ""distractor3"")",NA,NA,NA,NA,NA,NA,NA,NA,NA,NA,NA,NA,NA,NA,NA,NA,NA,NA,NA
7eb8f,Save data screen,canvas.Screen,2_13_0_1,NA,NA,timeout,501.20000000001,206971.3,206959.5,206976.4,207460.9,207461.3,2024-05-24T18:11:47Z,207477.6,Wohlstand,mafanikio,d,chimbuko,kumbuko,mapwaji,NA,NA,0,"c(""distractor1"", ""distractor2"", ""distractor3"")",NA,NA,NA,NA,NA,NA,NA,NA,NA,NA,NA,NA,NA,NA,NA,NA,NA,NA,NA
7eb8f,shallow,flow.Sequence,2_13_0,NA,NA,completion,8637.1,198808,198807.2,198823.8,207460.9,207461.4,2024-05-24T18:11:47Z,207477.6,Wohlstand,mafanikio,d,chimbuko,kumbuko,mapwaji,NA,NA,NA,"c(""distractor1"", ""distractor2"", ""distractor3"")",NA,NA,NA,NA,NA,NA,NA,NA,NA,NA,NA,NA,NA,NA,NA,NA,NA,NA,NA
7eb8f,task,flow.Sequence,2_13,NA,NA,completion,8637.1,198808,198807.2,198823.8,207460.9,207461.5,2024-05-24T18:11:47Z,207477.6,Wohlstand,mafanikio,d,chimbuko,kumbuko,mapwaji,NA,NA,NA,"c(""distractor1"", ""distractor2"", ""distractor3"")",NA,NA,NA,NA,NA,NA,NA,NA,NA,NA,NA,NA,NA,NA,NA,NA,NA,NA,NA
7eb8f,Shallow Question,html.Page,2_14_0_0,NA,NA,form submission,5191.7999999985,207461.59999999,207460.9,207477.6,212669.4,212669.59999999,2024-05-24T18:11:52Z,212673.2,Schüler,mwanafunzi,s,mwekezaji,matumizi,uaminifu,mwanafunzi,NA,NA,"c(""distractor1"", ""distractor2"", ""distractor3"")",NA,NA,NA,NA,NA,NA,NA,NA,NA,NA,NA,NA,NA,NA,NA,NA,NA,NA,NA
7eb8f,Save data screen,canvas.Screen,2_14_0_1,NA,NA,timeout,501.19999999998,212671,212656.3,212673.2,213157.6,213157.9,2024-05-24T18:11:53Z,213174.4,Schüler,mwanafunzi,s,mwekezaji,matumizi,uaminifu,NA,NA,1,"c(""distractor1"", ""distractor2"", ""distractor3"")",NA,NA,NA,NA,NA,NA,NA,NA,NA,NA,NA,NA,NA,NA,NA,NA,NA,NA,NA
7eb8f,shallow,flow.Sequence,2_14_0,NA,NA,completion,5680,207461.59999999,207460.9,207477.6,213157.6,213158,2024-05-24T18:11:53Z,213174.4,Schüler,mwanafunzi,s,mwekezaji,matumizi,uaminifu,NA,NA,NA,"c(""distractor1"", ""distractor2"", ""distractor3"")",NA,NA,NA,NA,NA,NA,NA,NA,NA,NA,NA,NA,NA,NA,NA,NA,NA,NA,NA
7eb8f,task,flow.Sequence,2_14,NA,NA,completion,5680,207461.5,207460.9,207477.6,213157.6,213158.2,2024-05-24T18:11:53Z,213174.4,Schüler,mwanafunzi,s,mwekezaji,matumizi,uaminifu,NA,NA,NA,"c(""distractor1"", ""distractor2"", ""distractor3"")",NA,NA,NA,NA,NA,NA,NA,NA,NA,NA,NA,NA,NA,NA,NA,NA,NA,NA,NA
7eb8f,Shallow Question,html.Page,2_15_0_0,NA,NA,form submission,6252.4999999985,213158.2,213157.6,213174.4,219426.9,219427.2,2024-05-24T18:11:59Z,219439.6,Notfall,dharura,s,rairai,malalamiko,ahueni,dharura,NA,NA,"c(""distractor1"", ""distractor2"", ""distractor3"")",NA,NA,NA,NA,NA,NA,NA,NA,NA,NA,NA,NA,NA,NA,NA,NA,NA,NA,NA
7eb8f,Save data screen,canvas.Screen,2_15_0_1,NA,NA,timeout,500.69999999998,219428.8,219422.2,219439.6,219923.7,219924.3,2024-05-24T18:11:59Z,219940.3,Notfall,dharura,s,rairai,malalamiko,ahueni,NA,NA,1,"c(""distractor1"", ""distractor2"", ""distractor3"")",NA,NA,NA,NA,NA,NA,NA,NA,NA,NA,NA,NA,NA,NA,NA,NA,NA,NA,NA
7eb8f,shallow,flow.Sequence,2_15_0,NA,NA,completion,6749.3,213158.2,213157.6,213174.4,219923.7,219924.7,2024-05-24T18:11:59Z,219940.3,Notfall,dharura,s,rairai,malalamiko,ahueni,NA,NA,NA,"c(""distractor1"", ""distractor2"", ""distractor3"")",NA,NA,NA,NA,NA,NA,NA,NA,NA,NA,NA,NA,NA,NA,NA,NA,NA,NA,NA
7eb8f,task,flow.Sequence,2_15,NA,NA,completion,6749.3,213158.2,213157.6,213174.4,219923.7,219924.9,2024-05-24T18:11:59Z,219940.3,Notfall,dharura,s,rairai,malalamiko,ahueni,NA,NA,NA,"c(""distractor1"", ""distractor2"", ""distractor3"")",NA,NA,NA,NA,NA,NA,NA,NA,NA,NA,NA,NA,NA,NA,NA,NA,NA,NA,NA
7eb8f,retrieval block 2 (multiple choice),flow.Loop,2,NA,NA,completion,117109.7,102798,102797.3,102814,219923.7,219925.09999999,2024-05-24T18:11:59Z,219940.3,NA,NA,NA,NA,NA,NA,NA,NA,NA,"c(""distractor1"", ""distractor2"", ""distractor3"")",NA,NA,NA,NA,NA,NA,NA,NA,NA,NA,NA,NA,NA,NA,NA,NA,NA,NA,NA
7eb8f,End,canvas.Screen,3,NA,keypress(Space),response,4474.7999999941,219925.2,219923.7,219940.3,224415.09999999,224417,2024-05-24T18:12:04Z,224417.7,NA,NA,NA,NA,NA,NA,NA,NA,NA,NULL,NA,NA,NA,NA,NA,NA,NA,NA,NA,NA,NA,NA,NA,NA,NA,NA,NA,NA,NA
7eb8f,root,flow.Sequence,NA,NA,NA,completion,224009.39999999,394.19999999553,272,405.7,224415.09999999,224417.2,2024-05-24T18:12:04Z,224417.7,NA,NA,NA,NA,NA,NA,NA,NA,NA,NULL,NA,NA,NA,NA,NA,NA,NA,NA,NA,NA,NA,NA,NA,NA,NA,NA,NA,NA,NA
