observation,sender,sender_type,sender_id,response,response_action,ended_on,duration,time_run,time_render,time_show,time_end,time_commit,timestamp,time_switch,distractors,german,swahili,enc,distractor1,distractor2,distractor3,response_2,x,correct,x_2,url_vp,url_sess,meta_labjs_version,meta_location,meta_user_agent,meta_platform,meta_language,meta_locale,meta_time_zone,meta_timezone_offset,meta_screen_width,meta_screen_height,meta_scroll_width,meta_scroll_height,meta_window_inner_width,meta_window_inner_height,meta_device_pixel_ratio,meta_labjs_build_flavor,meta_labjs_build_commit
f432a,Introduction general,canvas.Screen,0,weiter,keypress(q),response,23529.300000012,407.39999997616,409.8,426.5,23955.800000012,23960.099999964,2024-06-16T08:58:28Z,23962,NULL,NA,NA,NA,NA,NA,NA,NA,NA,NA,NA,227,3,20.2.4,https://neurocog.fernuni.ch/studies/vweber/aberisha/encoding_immediate/index.html?vp=227&sess=3,"Mozilla/5.0 (Windows NT 10.0; Win64; x64) AppleWebKit/537.36 (KHTML, like Gecko) Chrome/125.0.0.0 Safari/537.36",Win32,de-DE,de,Europe/Zurich,-120,1536,864,1536,682,1536,730,1.25,production,f5b4a49f956347addd546a832a3327688c2c0fef
f432a,Introduction practice,canvas.Screen,1_0,NA,keypress(Space),response,3087.3999999762,23960.699999988,23956.298,23962,27049.399999976,27050.399999976,2024-06-16T08:58:31Z,27060.5,NULL,NA,NA,NA,NA,NA,NA,NA,NA,NA,NA,NA,NA,NA,NA,NA,NA,NA,NA,NA,NA,NA,NA,NA,NA,NA,NA,NA,NA,NA
f432a,Deep Question,html.Page,1_1_0_0_0,NA,NA,form submission,16340.300000012,27050.800000012,27045.11,27060.5,43400.800000012,43401.300000012,2024-06-16T08:58:47Z,43416.7,"c(""distractor1"", ""distractor2"", ""distractor3"")",Qualität,mtindo,d,NA,NA,NA,jfkd,NA,NA,NA,NA,NA,NA,NA,NA,NA,NA,NA,NA,NA,NA,NA,NA,NA,NA,NA,NA,NA,NA
f432a,"""Richtig""-Screen",canvas.Screen,1_1_0_0_1,NA,NA,skipped,NA,43403.399999976,NA,NA,43400.800000012,43403.599999964,2024-06-16T08:58:47Z,43416.7,"c(""distractor1"", ""distractor2"", ""distractor3"")",Qualität,mtindo,d,NA,NA,NA,NA,NA,NA,NA,NA,NA,NA,NA,NA,NA,NA,NA,NA,NA,NA,NA,NA,NA,NA,NA,NA,NA,NA
f432a,"""Falsch""-Screen",canvas.Screen,1_1_0_0_2,NA,NA,timeout,4997.6,43404.899999976,43401.938,43416.7,48397.4,48399,2024-06-16T08:58:52Z,48414.3,"c(""distractor1"", ""distractor2"", ""distractor3"")",Qualität,mtindo,d,NA,NA,NA,NA,NA,0,NA,NA,NA,NA,NA,NA,NA,NA,NA,NA,NA,NA,NA,NA,NA,NA,NA,NA,NA,NA
f432a,deep,flow.Sequence,1_1_0_0,NA,NA,completion,21336.9,27050.699999988,27045.11,27060.5,48397.4,48399.599999964,2024-06-16T08:58:52Z,48414.3,"c(""distractor1"", ""distractor2"", ""distractor3"")",Qualität,mtindo,d,NA,NA,NA,NA,NA,NA,NA,NA,NA,NA,NA,NA,NA,NA,NA,NA,NA,NA,NA,NA,NA,NA,NA,NA,NA,NA
f432a,shallow,flow.Sequence,1_1_0_1,NA,NA,skipped,NA,48399.800000012,NA,NA,48397.4,48400.099999964,2024-06-16T08:58:52Z,48414.3,"c(""distractor1"", ""distractor2"", ""distractor3"")",Qualität,mtindo,d,NA,NA,NA,NA,NA,NA,NA,NA,NA,NA,NA,NA,NA,NA,NA,NA,NA,NA,NA,NA,NA,NA,NA,NA,NA,NA
f432a,task,flow.Sequence,1_1_0,NA,NA,completion,21336.9,27050.599999964,27045.11,27060.5,48397.4,48400.399999976,2024-06-16T08:58:52Z,48414.3,"c(""distractor1"", ""distractor2"", ""distractor3"")",Qualität,mtindo,d,NA,NA,NA,NA,NA,NA,NA,NA,NA,NA,NA,NA,NA,NA,NA,NA,NA,NA,NA,NA,NA,NA,NA,NA,NA,NA
f432a,Deep Question,html.Page,1_1_1_0_0,NA,NA,form submission,9469.5999999762,48400.599999964,48397.4,48414.3,57883.899999976,57884.199999988,2024-06-16T08:59:02Z,57891.2,"c(""distractor1"", ""distractor2"", ""distractor3"")",Schatten,kivuli,d,NA,NA,NA,dvhsz,NA,NA,NA,NA,NA,NA,NA,NA,NA,NA,NA,NA,NA,NA,NA,NA,NA,NA,NA,NA,NA,NA
f432a,"""Richtig""-Screen",canvas.Screen,1_1_1_0_1,NA,NA,skipped,NA,57885.199999988,NA,NA,57883.899999976,57885.300000012,2024-06-16T08:59:02Z,57891.2,"c(""distractor1"", ""distractor2"", ""distractor3"")",Schatten,kivuli,d,NA,NA,NA,NA,NA,NA,NA,NA,NA,NA,NA,NA,NA,NA,NA,NA,NA,NA,NA,NA,NA,NA,NA,NA,NA,NA
f432a,"""Falsch""-Screen",canvas.Screen,1_1_1_0_2,NA,NA,timeout,4997.4,57886.599999964,57876.116,57891.2,62872.1,62873.300000012,2024-06-16T08:59:07Z,62888.6,"c(""distractor1"", ""distractor2"", ""distractor3"")",Schatten,kivuli,d,NA,NA,NA,NA,NA,0,NA,NA,NA,NA,NA,NA,NA,NA,NA,NA,NA,NA,NA,NA,NA,NA,NA,NA,NA,NA
f432a,deep,flow.Sequence,1_1_1_0,NA,NA,completion,14457.8,48400.599999964,48397.4,48414.3,62872.1,62873.899999976,2024-06-16T08:59:07Z,62888.6,"c(""distractor1"", ""distractor2"", ""distractor3"")",Schatten,kivuli,d,NA,NA,NA,NA,NA,NA,NA,NA,NA,NA,NA,NA,NA,NA,NA,NA,NA,NA,NA,NA,NA,NA,NA,NA,NA,NA
f432a,shallow,flow.Sequence,1_1_1_1,NA,NA,skipped,NA,62874,NA,NA,62872.1,62874.199999988,2024-06-16T08:59:07Z,62888.6,"c(""distractor1"", ""distractor2"", ""distractor3"")",Schatten,kivuli,d,NA,NA,NA,NA,NA,NA,NA,NA,NA,NA,NA,NA,NA,NA,NA,NA,NA,NA,NA,NA,NA,NA,NA,NA,NA,NA
f432a,task,flow.Sequence,1_1_1,NA,NA,completion,14457.8,48400.5,48397.4,48414.3,62872.1,62874.399999976,2024-06-16T08:59:07Z,62888.6,"c(""distractor1"", ""distractor2"", ""distractor3"")",Schatten,kivuli,d,NA,NA,NA,NA,NA,NA,NA,NA,NA,NA,NA,NA,NA,NA,NA,NA,NA,NA,NA,NA,NA,NA,NA,NA,NA,NA
f432a,deep,flow.Sequence,1_1_2_0,NA,NA,skipped,NA,62874.699999988,NA,NA,62872.1,62874.800000012,2024-06-16T08:59:07Z,62888.6,"c(""distractor1"", ""distractor2"", ""distractor3"")",Gegenwart,hadhara,s,katiba,jokofu,mikopo,NA,NA,NA,NA,NA,NA,NA,NA,NA,NA,NA,NA,NA,NA,NA,NA,NA,NA,NA,NA,NA,NA,NA
f432a,Shallow Question,html.Page,1_1_2_1_0,NA,NA,form submission,22047.4,62875,62872.1,62888.6,84936,84936.199999988,2024-06-16T08:59:29Z,84941.4,"c(""distractor1"", ""distractor2"", ""distractor3"")",Gegenwart,hadhara,s,katiba,jokofu,mikopo,jokofu,NA,NA,NA,NA,NA,NA,NA,NA,NA,NA,NA,NA,NA,NA,NA,NA,NA,NA,NA,NA,NA,NA
f432a,"""Richtig""-Screen",canvas.Screen,1_1_2_1_1,NA,NA,skipped,NA,84939.699999988,NA,NA,84936,84939.800000012,2024-06-16T08:59:29Z,84941.4,"c(""distractor1"", ""distractor2"", ""distractor3"")",Gegenwart,hadhara,s,katiba,jokofu,mikopo,NA,NA,NA,NA,NA,NA,NA,NA,NA,NA,NA,NA,NA,NA,NA,NA,NA,NA,NA,NA,NA,NA,NA
f432a,"""Falsch""-Screen",canvas.Screen,1_1_2_1_2,NA,NA,timeout,4997.4,84940.399999976,84925.2,84941.4,89922,89923.099999964,2024-06-16T08:59:34Z,89938.8,"c(""distractor1"", ""distractor2"", ""distractor3"")",Gegenwart,hadhara,s,katiba,jokofu,mikopo,NA,NA,0,NA,NA,NA,NA,NA,NA,NA,NA,NA,NA,NA,NA,NA,NA,NA,NA,NA,NA,NA,NA
f432a,shallow,flow.Sequence,1_1_2_1,NA,NA,completion,27033.4,62875,62872.1,62888.6,89922,89923.5,2024-06-16T08:59:34Z,89938.8,"c(""distractor1"", ""distractor2"", ""distractor3"")",Gegenwart,hadhara,s,katiba,jokofu,mikopo,NA,NA,NA,NA,NA,NA,NA,NA,NA,NA,NA,NA,NA,NA,NA,NA,NA,NA,NA,NA,NA,NA,NA
f432a,task,flow.Sequence,1_1_2,NA,NA,completion,27033.4,62874.599999964,62872.1,62888.6,89922,89923.699999988,2024-06-16T08:59:34Z,89938.8,"c(""distractor1"", ""distractor2"", ""distractor3"")",Gegenwart,hadhara,s,katiba,jokofu,mikopo,NA,NA,NA,NA,NA,NA,NA,NA,NA,NA,NA,NA,NA,NA,NA,NA,NA,NA,NA,NA,NA,NA,NA
f432a,deep,flow.Sequence,1_1_3_0,NA,NA,skipped,NA,89924,NA,NA,89922,89924.099999964,2024-06-16T08:59:34Z,89938.8,"c(""distractor1"", ""distractor2"", ""distractor3"")",Kritik,lawama,s,dereva,nafasi,mawazo,NA,NA,NA,NA,NA,NA,NA,NA,NA,NA,NA,NA,NA,NA,NA,NA,NA,NA,NA,NA,NA,NA,NA
f432a,Shallow Question,html.Page,1_1_3_1_0,NA,NA,form submission,7015.0999999762,89924.300000012,89922,89938.8,96953.899999976,96954.099999964,2024-06-16T08:59:41Z,96967.3,"c(""distractor1"", ""distractor2"", ""distractor3"")",Kritik,lawama,s,dereva,nafasi,mawazo,nafasi,NA,NA,NA,NA,NA,NA,NA,NA,NA,NA,NA,NA,NA,NA,NA,NA,NA,NA,NA,NA,NA,NA
f432a,"""Richtig""-Screen",canvas.Screen,1_1_3_1_1,NA,NA,skipped,NA,96957.099999964,NA,NA,96953.899999976,96957.300000012,2024-06-16T08:59:41Z,96967.3,"c(""distractor1"", ""distractor2"", ""distractor3"")",Kritik,lawama,s,dereva,nafasi,mawazo,NA,NA,NA,NA,NA,NA,NA,NA,NA,NA,NA,NA,NA,NA,NA,NA,NA,NA,NA,NA,NA,NA,NA
f432a,"""Falsch""-Screen",canvas.Screen,1_1_3_1_2,NA,NA,timeout,4997.3,96958.099999964,96951.424,96967.3,101947.9,101948.80000001,2024-06-16T08:59:46Z,101964.6,"c(""distractor1"", ""distractor2"", ""distractor3"")",Kritik,lawama,s,dereva,nafasi,mawazo,NA,NA,0,NA,NA,NA,NA,NA,NA,NA,NA,NA,NA,NA,NA,NA,NA,NA,NA,NA,NA,NA,NA
f432a,shallow,flow.Sequence,1_1_3_1,NA,NA,completion,12009.1,89924.199999988,89922,89938.8,101947.9,101949.09999996,2024-06-16T08:59:46Z,101964.6,"c(""distractor1"", ""distractor2"", ""distractor3"")",Kritik,lawama,s,dereva,nafasi,mawazo,NA,NA,NA,NA,NA,NA,NA,NA,NA,NA,NA,NA,NA,NA,NA,NA,NA,NA,NA,NA,NA,NA,NA
f432a,task,flow.Sequence,1_1_3,NA,NA,completion,12009.1,89923.899999976,89922,89938.8,101947.9,101949.30000001,2024-06-16T08:59:46Z,101964.6,"c(""distractor1"", ""distractor2"", ""distractor3"")",Kritik,lawama,s,dereva,nafasi,mawazo,NA,NA,NA,NA,NA,NA,NA,NA,NA,NA,NA,NA,NA,NA,NA,NA,NA,NA,NA,NA,NA,NA,NA
f432a,Deep Question,html.Page,1_1_4_0_0,NA,NA,form submission,9830.0999999881,101949.59999996,101947.9,101964.6,111794.69999999,111795,2024-06-16T08:59:56Z,111808.7,"c(""distractor1"", ""distractor2"", ""distractor3"")",Gesundheit,salama,d,NA,NA,NA,gjdfl,NA,NA,NA,NA,NA,NA,NA,NA,NA,NA,NA,NA,NA,NA,NA,NA,NA,NA,NA,NA,NA,NA
f432a,"""Richtig""-Screen",canvas.Screen,1_1_4_0_1,NA,NA,skipped,NA,111798.09999996,NA,NA,111794.69999999,111798.30000001,2024-06-16T08:59:56Z,111808.7,"c(""distractor1"", ""distractor2"", ""distractor3"")",Gesundheit,salama,d,NA,NA,NA,NA,NA,NA,NA,NA,NA,NA,NA,NA,NA,NA,NA,NA,NA,NA,NA,NA,NA,NA,NA,NA,NA,NA
f432a,"""Falsch""-Screen",canvas.Screen,1_1_4_0_2,NA,NA,timeout,4997,111799.09999996,111793.17,111808.7,116789,116791.59999996,2024-06-16T09:00:01Z,116805.7,"c(""distractor1"", ""distractor2"", ""distractor3"")",Gesundheit,salama,d,NA,NA,NA,NA,NA,0,NA,NA,NA,NA,NA,NA,NA,NA,NA,NA,NA,NA,NA,NA,NA,NA,NA,NA,NA,NA
f432a,deep,flow.Sequence,1_1_4_0,NA,NA,completion,14824.4,101949.5,101947.9,101964.6,116789,116791.69999999,2024-06-16T09:00:01Z,116805.7,"c(""distractor1"", ""distractor2"", ""distractor3"")",Gesundheit,salama,d,NA,NA,NA,NA,NA,NA,NA,NA,NA,NA,NA,NA,NA,NA,NA,NA,NA,NA,NA,NA,NA,NA,NA,NA,NA,NA
f432a,shallow,flow.Sequence,1_1_4_1,NA,NA,skipped,NA,116791.80000001,NA,NA,116789,116791.80000001,2024-06-16T09:00:01Z,116805.7,"c(""distractor1"", ""distractor2"", ""distractor3"")",Gesundheit,salama,d,NA,NA,NA,NA,NA,NA,NA,NA,NA,NA,NA,NA,NA,NA,NA,NA,NA,NA,NA,NA,NA,NA,NA,NA,NA,NA
f432a,task,flow.Sequence,1_1_4,NA,NA,completion,14824.4,101949.39999998,101947.9,101964.6,116789,116791.89999998,2024-06-16T09:00:01Z,116805.7,"c(""distractor1"", ""distractor2"", ""distractor3"")",Gesundheit,salama,d,NA,NA,NA,NA,NA,NA,NA,NA,NA,NA,NA,NA,NA,NA,NA,NA,NA,NA,NA,NA,NA,NA,NA,NA,NA,NA
f432a,deep,flow.Sequence,1_1_5_0,NA,NA,skipped,NA,116791.89999998,NA,NA,116789,116792,2024-06-16T09:00:01Z,116805.7,"c(""distractor1"", ""distractor2"", ""distractor3"")",Rückhalt,msaada,s,muhula,auwali,kiwimbe,NA,NA,NA,NA,NA,NA,NA,NA,NA,NA,NA,NA,NA,NA,NA,NA,NA,NA,NA,NA,NA,NA,NA
f432a,Shallow Question,html.Page,1_1_5_1_0,NA,NA,form submission,11183.699999976,116792.09999996,116789,116805.7,127989.39999998,127989.69999999,2024-06-16T09:00:12Z,128015.6,"c(""distractor1"", ""distractor2"", ""distractor3"")",Rückhalt,msaada,s,muhula,auwali,kiwimbe,muhula,NA,NA,NA,NA,NA,NA,NA,NA,NA,NA,NA,NA,NA,NA,NA,NA,NA,NA,NA,NA,NA,NA
f432a,"""Richtig""-Screen",canvas.Screen,1_1_5_1_1,NA,NA,skipped,NA,127992.89999998,NA,NA,127989.39999998,127993.09999996,2024-06-16T09:00:12Z,128015.6,"c(""distractor1"", ""distractor2"", ""distractor3"")",Rückhalt,msaada,s,muhula,auwali,kiwimbe,NA,NA,NA,NA,NA,NA,NA,NA,NA,NA,NA,NA,NA,NA,NA,NA,NA,NA,NA,NA,NA,NA,NA
f432a,"""Falsch""-Screen",canvas.Screen,1_1_5_1_2,NA,NA,timeout,4996.9,127993.5,127999.122,128015.6,132995.8,132996.80000001,2024-06-16T09:00:17Z,133012.5,"c(""distractor1"", ""distractor2"", ""distractor3"")",Rückhalt,msaada,s,muhula,auwali,kiwimbe,NA,NA,0,NA,NA,NA,NA,NA,NA,NA,NA,NA,NA,NA,NA,NA,NA,NA,NA,NA,NA,NA,NA
f432a,shallow,flow.Sequence,1_1_5_1,NA,NA,completion,16190.1,116792.09999996,116789,116805.7,132995.8,132997.19999999,2024-06-16T09:00:17Z,133012.5,"c(""distractor1"", ""distractor2"", ""distractor3"")",Rückhalt,msaada,s,muhula,auwali,kiwimbe,NA,NA,NA,NA,NA,NA,NA,NA,NA,NA,NA,NA,NA,NA,NA,NA,NA,NA,NA,NA,NA,NA,NA
f432a,task,flow.Sequence,1_1_5,NA,NA,completion,16190.1,116791.89999998,116789,116805.7,132995.8,132997.39999998,2024-06-16T09:00:17Z,133012.5,"c(""distractor1"", ""distractor2"", ""distractor3"")",Rückhalt,msaada,s,muhula,auwali,kiwimbe,NA,NA,NA,NA,NA,NA,NA,NA,NA,NA,NA,NA,NA,NA,NA,NA,NA,NA,NA,NA,NA,NA,NA
f432a,block,flow.Loop,1_1,NA,NA,completion,105935.3,27050.599999964,27045.11,27060.5,132995.8,132997.80000001,2024-06-16T09:00:17Z,133012.5,"c(""distractor1"", ""distractor2"", ""distractor3"")",NA,NA,NA,NA,NA,NA,NA,NA,NA,NA,NA,NA,NA,NA,NA,NA,NA,NA,NA,NA,NA,NA,NA,NA,NA,NA,NA,NA,NA
f432a,Practice,flow.Sequence,1,NA,NA,completion,109033.8,23960.699999988,23956.298,23962,132995.8,132998.09999996,2024-06-16T09:00:17Z,133012.5,NULL,NA,NA,NA,NA,NA,NA,NA,NA,NA,NA,NA,NA,NA,NA,NA,NA,NA,NA,NA,NA,NA,NA,NA,NA,NA,NA,NA,NA,NA
f432a,Experiment start,canvas.Screen,2,weiter,keypress(q),response,38013.699999988,132998.30000001,132995.8,133012.5,171026.19999999,171031.69999999,2024-06-16T09:00:55Z,171076.158,NULL,NA,NA,NA,NA,NA,NA,NA,NA,NA,NA,NA,NA,NA,NA,NA,NA,NA,NA,NA,NA,NA,NA,NA,NA,NA,NA,NA,NA,NA
f432a,Deep Question,html.Page,3_0_0_0_0_0_0,NA,NA,form submission,6562.342,171085.5,171076.158,171076.158,177638.5,177638.80000001,2024-06-16T09:01:01Z,177651.6,NULL,Vorwurf,mashtaka,d,NA,NA,NA,jkds,NA,NA,0,NA,NA,NA,NA,NA,NA,NA,NA,NA,NA,NA,NA,NA,NA,NA,NA,NA,NA,NA
f432a,"""Richtig""-Screen",canvas.Screen,3_0_0_0_0_0_1,NA,NA,skipped,NA,177642,NA,NA,177638.5,177642,2024-06-16T09:01:01Z,177651.6,NULL,Vorwurf,mashtaka,d,NA,NA,NA,NA,sdf,NA,0,NA,NA,NA,NA,NA,NA,NA,NA,NA,NA,NA,NA,NA,NA,NA,NA,NA,NA,NA
f432a,"""Falsch""-Screen",canvas.Screen,3_0_0_0_0_0_2,NA,NA,timeout,4997.2,177642.89999998,177635,177651.6,182631.8,182632.80000001,2024-06-16T09:01:06Z,182648.8,NULL,Vorwurf,mashtaka,d,NA,NA,NA,NA,sdf,0,0,NA,NA,NA,NA,NA,NA,NA,NA,NA,NA,NA,NA,NA,NA,NA,NA,NA,NA,NA
f432a,deep,flow.Sequence,3_0_0_0_0_0,NA,NA,completion,11555.642,171085.5,171076.158,171076.158,182631.8,182633.30000001,2024-06-16T09:01:06Z,182648.8,NULL,Vorwurf,mashtaka,d,NA,NA,NA,NA,sdf,NA,0,NA,NA,NA,NA,NA,NA,NA,NA,NA,NA,NA,NA,NA,NA,NA,NA,NA,NA,NA
f432a,shallow,flow.Sequence,3_0_0_0_0_1,NA,NA,skipped,NA,182633.39999998,NA,NA,182631.8,182633.5,2024-06-16T09:01:06Z,182648.8,NULL,Vorwurf,mashtaka,d,NA,NA,NA,NA,sdf,NA,0,NA,NA,NA,NA,NA,NA,NA,NA,NA,NA,NA,NA,NA,NA,NA,NA,NA,NA,NA
f432a,task,flow.Sequence,3_0_0_0_0,NA,NA,completion,11555.642,171085.5,171076.158,171076.158,182631.8,182633.69999999,2024-06-16T09:01:06Z,182648.8,NULL,Vorwurf,mashtaka,d,NA,NA,NA,NA,sdf,NA,0,NA,NA,NA,NA,NA,NA,NA,NA,NA,NA,NA,NA,NA,NA,NA,NA,NA,NA,NA
f432a,Deep Question,html.Page,3_0_0_0_1_0_0,NA,NA,form submission,14577.899999988,182633.80000001,182631.8,182648.8,197226.69999999,197227,2024-06-16T09:01:21Z,197239.9,NULL,Fenster,dirisha,d,NA,NA,NA,jgkf,NA,NA,0,NA,NA,NA,NA,NA,NA,NA,NA,NA,NA,NA,NA,NA,NA,NA,NA,NA,NA,NA
f432a,"""Richtig""-Screen",canvas.Screen,3_0_0_0_1_0_1,NA,NA,skipped,NA,197229.89999998,NA,NA,197226.69999999,197230,2024-06-16T09:01:21Z,197239.9,NULL,Fenster,dirisha,d,NA,NA,NA,NA,sdf,NA,0,NA,NA,NA,NA,NA,NA,NA,NA,NA,NA,NA,NA,NA,NA,NA,NA,NA,NA,NA
f432a,"""Falsch""-Screen",canvas.Screen,3_0_0_0_1_0_2,NA,NA,timeout,4997,197230.69999999,197223.676,197239.9,202220.1,202221.5,2024-06-16T09:01:26Z,202236.9,NULL,Fenster,dirisha,d,NA,NA,NA,NA,sdf,0,0,NA,NA,NA,NA,NA,NA,NA,NA,NA,NA,NA,NA,NA,NA,NA,NA,NA,NA,NA
f432a,deep,flow.Sequence,3_0_0_0_1_0,NA,NA,completion,19571.3,182633.80000001,182631.8,182648.8,202220.1,202221.80000001,2024-06-16T09:01:26Z,202236.9,NULL,Fenster,dirisha,d,NA,NA,NA,NA,sdf,NA,0,NA,NA,NA,NA,NA,NA,NA,NA,NA,NA,NA,NA,NA,NA,NA,NA,NA,NA,NA
f432a,shallow,flow.Sequence,3_0_0_0_1_1,NA,NA,skipped,NA,202222,NA,NA,202220.1,202222.09999996,2024-06-16T09:01:26Z,202236.9,NULL,Fenster,dirisha,d,NA,NA,NA,NA,sdf,NA,0,NA,NA,NA,NA,NA,NA,NA,NA,NA,NA,NA,NA,NA,NA,NA,NA,NA,NA,NA
f432a,task,flow.Sequence,3_0_0_0_1,NA,NA,completion,19571.3,182633.80000001,182631.8,182648.8,202220.1,202222.30000001,2024-06-16T09:01:26Z,202236.9,NULL,Fenster,dirisha,d,NA,NA,NA,NA,sdf,NA,0,NA,NA,NA,NA,NA,NA,NA,NA,NA,NA,NA,NA,NA,NA,NA,NA,NA,NA,NA
f432a,deep,flow.Sequence,3_0_0_0_2_0,NA,NA,skipped,NA,202222.39999998,NA,NA,202220.1,202222.5,2024-06-16T09:01:26Z,202236.9,NULL,Papier,karatasi,s,uchambuzi,usalama,kukataliwa,NA,sdf,NA,0,NA,NA,NA,NA,NA,NA,NA,NA,NA,NA,NA,NA,NA,NA,NA,NA,NA,NA,NA
f432a,Shallow Question,html.Page,3_0_0_0_2_1_0,NA,NA,form submission,10734.6,202222.69999999,202220.1,202236.9,212971.5,212971.69999999,2024-06-16T09:01:37Z,212979.8,NULL,Papier,karatasi,s,uchambuzi,usalama,kukataliwa,kukataliwa,NA,NA,0,NA,NA,NA,NA,NA,NA,NA,NA,NA,NA,NA,NA,NA,NA,NA,NA,NA,NA,NA
f432a,"""Richtig""-Screen",canvas.Screen,3_0_0_0_2_1_1,NA,NA,skipped,NA,212974.69999999,NA,NA,212971.5,212974.80000001,2024-06-16T09:01:37Z,212979.8,NULL,Papier,karatasi,s,uchambuzi,usalama,kukataliwa,NA,sdf,NA,0,NA,NA,NA,NA,NA,NA,NA,NA,NA,NA,NA,NA,NA,NA,NA,NA,NA,NA,NA
f432a,"""Falsch""-Screen",canvas.Screen,3_0_0_0_2_1_2,NA,NA,timeout,4997.3,212975.69999999,212963.6,212979.8,217960.3,217961.19999999,2024-06-16T09:01:42Z,217977.1,NULL,Papier,karatasi,s,uchambuzi,usalama,kukataliwa,NA,sdf,0,0,NA,NA,NA,NA,NA,NA,NA,NA,NA,NA,NA,NA,NA,NA,NA,NA,NA,NA,NA
f432a,shallow,flow.Sequence,3_0_0_0_2_1,NA,NA,completion,15723.4,202222.59999996,202220.1,202236.9,217960.3,217961.59999996,2024-06-16T09:01:42Z,217977.1,NULL,Papier,karatasi,s,uchambuzi,usalama,kukataliwa,NA,sdf,NA,0,NA,NA,NA,NA,NA,NA,NA,NA,NA,NA,NA,NA,NA,NA,NA,NA,NA,NA,NA
f432a,task,flow.Sequence,3_0_0_0_2,NA,NA,completion,15723.4,202222.39999998,202220.1,202236.9,217960.3,217961.69999999,2024-06-16T09:01:42Z,217977.1,NULL,Papier,karatasi,s,uchambuzi,usalama,kukataliwa,NA,sdf,NA,0,NA,NA,NA,NA,NA,NA,NA,NA,NA,NA,NA,NA,NA,NA,NA,NA,NA,NA,NA
f432a,deep,flow.Sequence,3_0_0_0_3_0,NA,NA,skipped,NA,217961.89999998,NA,NA,217960.3,217962.09999996,2024-06-16T09:01:42Z,217977.1,NULL,Niveau,kiwango,s,usimamizi,mwamali,mshairi,NA,sdf,NA,0,NA,NA,NA,NA,NA,NA,NA,NA,NA,NA,NA,NA,NA,NA,NA,NA,NA,NA,NA
f432a,Shallow Question,html.Page,3_0_0_0_3_1_0,NA,NA,form submission,13842.499999964,217962.09999996,217960.3,217977.1,231819.59999996,231819.69999999,2024-06-16T09:01:56Z,231835.4,NULL,Niveau,kiwango,s,usimamizi,mwamali,mshairi,mshairi,NA,NA,0,NA,NA,NA,NA,NA,NA,NA,NA,NA,NA,NA,NA,NA,NA,NA,NA,NA,NA,NA
f432a,"""Richtig""-Screen",canvas.Screen,3_0_0_0_3_1_1,NA,NA,skipped,NA,231823.30000001,NA,NA,231819.59999996,231823.39999998,2024-06-16T09:01:56Z,231835.4,NULL,Niveau,kiwango,s,usimamizi,mwamali,mshairi,NA,sdf,NA,0,NA,NA,NA,NA,NA,NA,NA,NA,NA,NA,NA,NA,NA,NA,NA,NA,NA,NA,NA
f432a,"""Falsch""-Screen",canvas.Screen,3_0_0_0_3_1_2,NA,NA,timeout,4997,231824.19999999,231819.016,231835.4,236815.8,236816.80000001,2024-06-16T09:02:01Z,236832.4,NULL,Niveau,kiwango,s,usimamizi,mwamali,mshairi,NA,sdf,0,0,NA,NA,NA,NA,NA,NA,NA,NA,NA,NA,NA,NA,NA,NA,NA,NA,NA,NA,NA
f432a,shallow,flow.Sequence,3_0_0_0_3_1,NA,NA,completion,18838.7,217962.09999996,217960.3,217977.1,236815.8,236817.30000001,2024-06-16T09:02:01Z,236832.4,NULL,Niveau,kiwango,s,usimamizi,mwamali,mshairi,NA,sdf,NA,0,NA,NA,NA,NA,NA,NA,NA,NA,NA,NA,NA,NA,NA,NA,NA,NA,NA,NA,NA
f432a,task,flow.Sequence,3_0_0_0_3,NA,NA,completion,18838.7,217961.80000001,217960.3,217977.1,236815.8,236817.5,2024-06-16T09:02:01Z,236832.4,NULL,Niveau,kiwango,s,usimamizi,mwamali,mshairi,NA,sdf,NA,0,NA,NA,NA,NA,NA,NA,NA,NA,NA,NA,NA,NA,NA,NA,NA,NA,NA,NA,NA
f432a,deep,flow.Sequence,3_0_0_0_4_0,NA,NA,skipped,NA,236817.69999999,NA,NA,236815.8,236817.89999998,2024-06-16T09:02:01Z,236832.4,NULL,Tester,wanaojaribu,s,sherti,sihiri,mlipuko,NA,sdf,NA,0,NA,NA,NA,NA,NA,NA,NA,NA,NA,NA,NA,NA,NA,NA,NA,NA,NA,NA,NA
f432a,Shallow Question,html.Page,3_0_0_0_4_1_0,NA,NA,form submission,6399.2999999881,236818,236815.8,236832.4,243231.69999999,243231.89999998,2024-06-16T09:02:07Z,243245,NULL,Tester,wanaojaribu,s,sherti,sihiri,mlipuko,sihiri,NA,NA,0,NA,NA,NA,NA,NA,NA,NA,NA,NA,NA,NA,NA,NA,NA,NA,NA,NA,NA,NA
f432a,"""Richtig""-Screen",canvas.Screen,3_0_0_0_4_1_1,NA,NA,skipped,NA,243235,NA,NA,243231.69999999,243235.09999996,2024-06-16T09:02:07Z,243245,NULL,Tester,wanaojaribu,s,sherti,sihiri,mlipuko,NA,sdf,NA,0,NA,NA,NA,NA,NA,NA,NA,NA,NA,NA,NA,NA,NA,NA,NA,NA,NA,NA,NA
f432a,"""Falsch""-Screen",canvas.Screen,3_0_0_0_4_1_2,NA,NA,timeout,4996.9,243235.89999998,243228.6,243245,248225.3,248225.89999998,2024-06-16T09:02:12Z,248241.9,NULL,Tester,wanaojaribu,s,sherti,sihiri,mlipuko,NA,sdf,0,0,NA,NA,NA,NA,NA,NA,NA,NA,NA,NA,NA,NA,NA,NA,NA,NA,NA,NA,NA
f432a,shallow,flow.Sequence,3_0_0_0_4_1,NA,NA,completion,11392.9,236818,236815.8,236832.4,248225.3,248226,2024-06-16T09:02:12Z,248241.9,NULL,Tester,wanaojaribu,s,sherti,sihiri,mlipuko,NA,sdf,NA,0,NA,NA,NA,NA,NA,NA,NA,NA,NA,NA,NA,NA,NA,NA,NA,NA,NA,NA,NA
f432a,task,flow.Sequence,3_0_0_0_4,NA,NA,completion,11392.9,236817.59999996,236815.8,236832.4,248225.3,248226,2024-06-16T09:02:12Z,248241.9,NULL,Tester,wanaojaribu,s,sherti,sihiri,mlipuko,NA,sdf,NA,0,NA,NA,NA,NA,NA,NA,NA,NA,NA,NA,NA,NA,NA,NA,NA,NA,NA,NA,NA
f432a,deep,flow.Sequence,3_0_0_0_5_0,NA,NA,skipped,NA,248226,NA,NA,248225.3,248226.09999996,2024-06-16T09:02:12Z,248241.9,NULL,Schüler,mwanafunzi,s,mwekezaji,matumizi,uaminifu,NA,sdf,NA,0,NA,NA,NA,NA,NA,NA,NA,NA,NA,NA,NA,NA,NA,NA,NA,NA,NA,NA,NA
f432a,Shallow Question,html.Page,3_0_0_0_5_1_0,NA,NA,form submission,6626.4999999762,248226.19999999,248225.3,248241.9,254868.39999998,254868.69999999,2024-06-16T09:02:19Z,254887.6,NULL,Schüler,mwanafunzi,s,mwekezaji,matumizi,uaminifu,uaminifu,NA,NA,0,NA,NA,NA,NA,NA,NA,NA,NA,NA,NA,NA,NA,NA,NA,NA,NA,NA,NA,NA
f432a,"""Richtig""-Screen",canvas.Screen,3_0_0_0_5_1_1,NA,NA,skipped,NA,254871.59999996,NA,NA,254868.39999998,254871.80000001,2024-06-16T09:02:19Z,254887.6,NULL,Schüler,mwanafunzi,s,mwekezaji,matumizi,uaminifu,NA,sdf,NA,0,NA,NA,NA,NA,NA,NA,NA,NA,NA,NA,NA,NA,NA,NA,NA,NA,NA,NA,NA
f432a,"""Falsch""-Screen",canvas.Screen,3_0_0_0_5_1_2,NA,NA,timeout,4997.4,254872.59999996,254871.498,254887.6,259868,259869,2024-06-16T09:02:24Z,259885,NULL,Schüler,mwanafunzi,s,mwekezaji,matumizi,uaminifu,NA,sdf,0,0,NA,NA,NA,NA,NA,NA,NA,NA,NA,NA,NA,NA,NA,NA,NA,NA,NA,NA,NA
f432a,shallow,flow.Sequence,3_0_0_0_5_1,NA,NA,completion,11626.1,248226.09999996,248225.3,248241.9,259868,259869.39999998,2024-06-16T09:02:24Z,259885,NULL,Schüler,mwanafunzi,s,mwekezaji,matumizi,uaminifu,NA,sdf,NA,0,NA,NA,NA,NA,NA,NA,NA,NA,NA,NA,NA,NA,NA,NA,NA,NA,NA,NA,NA
f432a,task,flow.Sequence,3_0_0_0_5,NA,NA,completion,11626.1,248226,248225.3,248241.9,259868,259869.59999996,2024-06-16T09:02:24Z,259885,NULL,Schüler,mwanafunzi,s,mwekezaji,matumizi,uaminifu,NA,sdf,NA,0,NA,NA,NA,NA,NA,NA,NA,NA,NA,NA,NA,NA,NA,NA,NA,NA,NA,NA,NA
f432a,Deep Question,html.Page,3_0_0_0_6_0_0,NA,NA,form submission,6493.6999999881,259869.80000001,259868,259885,266378.69999999,266378.80000001,2024-06-16T09:02:30Z,266397.2,NULL,Spionage,upelelezi,d,NA,NA,NA,jdkg,NA,NA,0,NA,NA,NA,NA,NA,NA,NA,NA,NA,NA,NA,NA,NA,NA,NA,NA,NA,NA,NA
f432a,"""Richtig""-Screen",canvas.Screen,3_0_0_0_6_0_1,NA,NA,skipped,NA,266380.30000001,NA,NA,266378.69999999,266380.30000001,2024-06-16T09:02:30Z,266397.2,NULL,Spionage,upelelezi,d,NA,NA,NA,NA,sdf,NA,0,NA,NA,NA,NA,NA,NA,NA,NA,NA,NA,NA,NA,NA,NA,NA,NA,NA,NA,NA
f432a,"""Falsch""-Screen",canvas.Screen,3_0_0_0_6_0_2,NA,NA,timeout,4997.6,266380.80000001,266381.092,266397.2,271377.6,271378.59999996,2024-06-16T09:02:35Z,271394.8,NULL,Spionage,upelelezi,d,NA,NA,NA,NA,sdf,0,0,NA,NA,NA,NA,NA,NA,NA,NA,NA,NA,NA,NA,NA,NA,NA,NA,NA,NA,NA
f432a,deep,flow.Sequence,3_0_0_0_6_0,NA,NA,completion,11492.6,259869.80000001,259868,259885,271377.6,271379,2024-06-16T09:02:35Z,271394.8,NULL,Spionage,upelelezi,d,NA,NA,NA,NA,sdf,NA,0,NA,NA,NA,NA,NA,NA,NA,NA,NA,NA,NA,NA,NA,NA,NA,NA,NA,NA,NA
f432a,shallow,flow.Sequence,3_0_0_0_6_1,NA,NA,skipped,NA,271379.19999999,NA,NA,271377.6,271379.30000001,2024-06-16T09:02:35Z,271394.8,NULL,Spionage,upelelezi,d,NA,NA,NA,NA,sdf,NA,0,NA,NA,NA,NA,NA,NA,NA,NA,NA,NA,NA,NA,NA,NA,NA,NA,NA,NA,NA
f432a,task,flow.Sequence,3_0_0_0_6,NA,NA,completion,11492.6,259869.69999999,259868,259885,271377.6,271379.5,2024-06-16T09:02:35Z,271394.8,NULL,Spionage,upelelezi,d,NA,NA,NA,NA,sdf,NA,0,NA,NA,NA,NA,NA,NA,NA,NA,NA,NA,NA,NA,NA,NA,NA,NA,NA,NA,NA
f432a,Deep Question,html.Page,3_0_0_0_7_0_0,NA,NA,form submission,8929.7999999642,271379.69999999,271377.6,271394.8,280324.59999996,280324.80000001,2024-06-16T09:02:44Z,280338.9,NULL,Entwicklung,maendeleo,d,NA,NA,NA,ldgd,NA,NA,0,NA,NA,NA,NA,NA,NA,NA,NA,NA,NA,NA,NA,NA,NA,NA,NA,NA,NA,NA
f432a,"""Richtig""-Screen",canvas.Screen,3_0_0_0_7_0_1,NA,NA,skipped,NA,280327.80000001,NA,NA,280324.59999996,280327.89999998,2024-06-16T09:02:44Z,280338.9,NULL,Entwicklung,maendeleo,d,NA,NA,NA,NA,sdf,NA,0,NA,NA,NA,NA,NA,NA,NA,NA,NA,NA,NA,NA,NA,NA,NA,NA,NA,NA,NA
f432a,"""Falsch""-Screen",canvas.Screen,3_0_0_0_7_0_2,NA,NA,timeout,4996.7,280328.69999999,280322.624,280338.9,285319.4,285320.5,2024-06-16T09:02:49Z,285335.6,NULL,Entwicklung,maendeleo,d,NA,NA,NA,NA,sdf,0,0,NA,NA,NA,NA,NA,NA,NA,NA,NA,NA,NA,NA,NA,NA,NA,NA,NA,NA,NA
f432a,deep,flow.Sequence,3_0_0_0_7_0,NA,NA,completion,13924.6,271379.59999996,271377.6,271394.8,285319.4,285320.89999998,2024-06-16T09:02:49Z,285335.6,NULL,Entwicklung,maendeleo,d,NA,NA,NA,NA,sdf,NA,0,NA,NA,NA,NA,NA,NA,NA,NA,NA,NA,NA,NA,NA,NA,NA,NA,NA,NA,NA
f432a,shallow,flow.Sequence,3_0_0_0_7_1,NA,NA,skipped,NA,285321.09999996,NA,NA,285319.4,285321.09999996,2024-06-16T09:02:49Z,285335.6,NULL,Entwicklung,maendeleo,d,NA,NA,NA,NA,sdf,NA,0,NA,NA,NA,NA,NA,NA,NA,NA,NA,NA,NA,NA,NA,NA,NA,NA,NA,NA,NA
f432a,task,flow.Sequence,3_0_0_0_7,NA,NA,completion,13924.6,271379.59999996,271377.6,271394.8,285319.4,285321.30000001,2024-06-16T09:02:49Z,285335.6,NULL,Entwicklung,maendeleo,d,NA,NA,NA,NA,sdf,NA,0,NA,NA,NA,NA,NA,NA,NA,NA,NA,NA,NA,NA,NA,NA,NA,NA,NA,NA,NA
f432a,block,flow.Loop,3_0_0_0,NA,NA,completion,114243.242,171085.5,171076.158,171076.158,285319.4,285321.59999996,2024-06-16T09:02:49Z,285335.6,NULL,NA,NA,NA,NA,NA,NA,NA,sdf,NA,0,NA,NA,NA,NA,NA,NA,NA,NA,NA,NA,NA,NA,NA,NA,NA,NA,NA,NA,NA
f432a,weiter,canvas.Screen,3_0_0_1,sdf,keypress(Space),response,1810.2000000119,285321.80000001,285319.4,285335.6,287145.80000001,287146.59999996,2024-06-16T09:02:51Z,287151.942,NULL,NA,NA,NA,NA,NA,NA,NA,sdf,NA,0,NA,NA,NA,NA,NA,NA,NA,NA,NA,NA,NA,NA,NA,NA,NA,NA,NA,NA,NA
f432a,check continue,flow.Sequence,3_0_0,NA,NA,completion,116069.64200001,171085.5,171076.158,171076.158,287145.80000001,287146.80000001,2024-06-16T09:02:51Z,287151.942,NULL,NA,NA,NA,NA,NA,NA,NA,sdf,NA,0,NA,NA,NA,NA,NA,NA,NA,NA,NA,NA,NA,NA,NA,NA,NA,NA,NA,NA,NA
f432a,Deep Question,html.Page,3_0_1_0_0_0_0,NA,NA,form submission,5392.6579999643,287166.59999996,287151.942,287151.942,292544.59999996,292545,2024-06-16T09:02:56Z,292565.1,NULL,Spionage,upelelezi,d,NA,NA,NA,jkd,NA,NA,1,NA,NA,NA,NA,NA,NA,NA,NA,NA,NA,NA,NA,NA,NA,NA,NA,NA,NA,NA
f432a,"""Richtig""-Screen",canvas.Screen,3_0_1_0_0_0_1,NA,NA,skipped,NA,292548,NA,NA,292544.59999996,292548,2024-06-16T09:02:56Z,292565.1,NULL,Spionage,upelelezi,d,NA,NA,NA,NA,sdfdsf,NA,1,NA,NA,NA,NA,NA,NA,NA,NA,NA,NA,NA,NA,NA,NA,NA,NA,NA,NA,NA
f432a,"""Falsch""-Screen",canvas.Screen,3_0_1_0_0_0_2,NA,NA,timeout,4996.9,292549.09999996,292548.644,292565.1,297545.2,297546.19999999,2024-06-16T09:03:01Z,297562,NULL,Spionage,upelelezi,d,NA,NA,NA,NA,sdfdsf,0,1,NA,NA,NA,NA,NA,NA,NA,NA,NA,NA,NA,NA,NA,NA,NA,NA,NA,NA,NA
f432a,deep,flow.Sequence,3_0_1_0_0_0,NA,NA,completion,10393.258,287166.59999996,287151.942,287151.942,297545.2,297546.59999996,2024-06-16T09:03:01Z,297562,NULL,Spionage,upelelezi,d,NA,NA,NA,NA,sdfdsf,NA,1,NA,NA,NA,NA,NA,NA,NA,NA,NA,NA,NA,NA,NA,NA,NA,NA,NA,NA,NA
f432a,shallow,flow.Sequence,3_0_1_0_0_1,NA,NA,skipped,NA,297546.69999999,NA,NA,297545.2,297546.89999998,2024-06-16T09:03:01Z,297562,NULL,Spionage,upelelezi,d,NA,NA,NA,NA,sdfdsf,NA,1,NA,NA,NA,NA,NA,NA,NA,NA,NA,NA,NA,NA,NA,NA,NA,NA,NA,NA,NA
f432a,task,flow.Sequence,3_0_1_0_0,NA,NA,completion,10393.258,287166.59999996,287151.942,287151.942,297545.2,297547.09999996,2024-06-16T09:03:01Z,297562,NULL,Spionage,upelelezi,d,NA,NA,NA,NA,sdfdsf,NA,1,NA,NA,NA,NA,NA,NA,NA,NA,NA,NA,NA,NA,NA,NA,NA,NA,NA,NA,NA
f432a,deep,flow.Sequence,3_0_1_0_1_0,NA,NA,skipped,NA,297547.19999999,NA,NA,297545.2,297547.30000001,2024-06-16T09:03:01Z,297562,NULL,Tester,wanaojaribu,s,sherti,sihiri,mlipuko,NA,sdfdsf,NA,1,NA,NA,NA,NA,NA,NA,NA,NA,NA,NA,NA,NA,NA,NA,NA,NA,NA,NA,NA
f432a,Shallow Question,html.Page,3_0_1_0_1_1_0,NA,NA,form submission,8261.0999999642,297547.39999998,297545.2,297562,305823.09999996,305823.30000001,2024-06-16T09:03:10Z,305840.2,NULL,Tester,wanaojaribu,s,sherti,sihiri,mlipuko,wanaojaribu,NA,NA,1,NA,NA,NA,NA,NA,NA,NA,NA,NA,NA,NA,NA,NA,NA,NA,NA,NA,NA,NA
f432a,"""Richtig""-Screen",canvas.Screen,3_0_1_0_1_1_1,NA,NA,timeout,4996.4,305824.80000001,305823.784,305840.2,310820.5,310821,2024-06-16T09:03:15Z,310836.6,NULL,Tester,wanaojaribu,s,sherti,sihiri,mlipuko,NA,sdfdsf,1,1,NA,NA,NA,NA,NA,NA,NA,NA,NA,NA,NA,NA,NA,NA,NA,NA,NA,NA,NA
f432a,"""Falsch""-Screen",canvas.Screen,3_0_1_0_1_1_2,NA,NA,skipped,NA,310823,NA,NA,310820.5,310823,2024-06-16T09:03:15Z,310836.6,NULL,Tester,wanaojaribu,s,sherti,sihiri,mlipuko,NA,sdfdsf,NA,1,NA,NA,NA,NA,NA,NA,NA,NA,NA,NA,NA,NA,NA,NA,NA,NA,NA,NA,NA
f432a,shallow,flow.Sequence,3_0_1_0_1_1,NA,NA,completion,13258.5,297547.39999998,297545.2,297562,310820.5,310823.19999999,2024-06-16T09:03:15Z,310836.6,NULL,Tester,wanaojaribu,s,sherti,sihiri,mlipuko,NA,sdfdsf,NA,1,NA,NA,NA,NA,NA,NA,NA,NA,NA,NA,NA,NA,NA,NA,NA,NA,NA,NA,NA
f432a,task,flow.Sequence,3_0_1_0_1,NA,NA,completion,13258.5,297547.19999999,297545.2,297562,310820.5,310823.30000001,2024-06-16T09:03:15Z,310836.6,NULL,Tester,wanaojaribu,s,sherti,sihiri,mlipuko,NA,sdfdsf,NA,1,NA,NA,NA,NA,NA,NA,NA,NA,NA,NA,NA,NA,NA,NA,NA,NA,NA,NA,NA
f432a,deep,flow.Sequence,3_0_1_0_2_0,NA,NA,skipped,NA,310823.30000001,NA,NA,310820.5,310823.39999998,2024-06-16T09:03:15Z,310836.6,NULL,Niveau,kiwango,s,usimamizi,mwamali,mshairi,NA,sdfdsf,NA,1,NA,NA,NA,NA,NA,NA,NA,NA,NA,NA,NA,NA,NA,NA,NA,NA,NA,NA,NA
f432a,Shallow Question,html.Page,3_0_1_0_2_1_0,NA,NA,form submission,8480.9999999643,310823.39999998,310820.5,310836.6,319317.59999996,319317.80000001,2024-06-16T09:03:23Z,319331.7,NULL,Niveau,kiwango,s,usimamizi,mwamali,mshairi,mwamali,NA,NA,1,NA,NA,NA,NA,NA,NA,NA,NA,NA,NA,NA,NA,NA,NA,NA,NA,NA,NA,NA
f432a,"""Richtig""-Screen",canvas.Screen,3_0_1_0_2_1_1,NA,NA,skipped,NA,319320.80000001,NA,NA,319317.59999996,319320.89999998,2024-06-16T09:03:23Z,319331.7,NULL,Niveau,kiwango,s,usimamizi,mwamali,mshairi,NA,sdfdsf,NA,1,NA,NA,NA,NA,NA,NA,NA,NA,NA,NA,NA,NA,NA,NA,NA,NA,NA,NA,NA
f432a,"""Falsch""-Screen",canvas.Screen,3_0_1_0_2_1_2,NA,NA,timeout,4996.8,319321.69999999,319315.5,319331.7,324312.3,324313.30000001,2024-06-16T09:03:28Z,324328.5,NULL,Niveau,kiwango,s,usimamizi,mwamali,mshairi,NA,sdfdsf,0,1,NA,NA,NA,NA,NA,NA,NA,NA,NA,NA,NA,NA,NA,NA,NA,NA,NA,NA,NA
f432a,shallow,flow.Sequence,3_0_1_0_2_1,NA,NA,completion,13475.7,310823.39999998,310820.5,310836.6,324312.3,324313.59999996,2024-06-16T09:03:28Z,324328.5,NULL,Niveau,kiwango,s,usimamizi,mwamali,mshairi,NA,sdfdsf,NA,1,NA,NA,NA,NA,NA,NA,NA,NA,NA,NA,NA,NA,NA,NA,NA,NA,NA,NA,NA
f432a,task,flow.Sequence,3_0_1_0_2,NA,NA,completion,13475.7,310823.30000001,310820.5,310836.6,324312.3,324313.89999998,2024-06-16T09:03:28Z,324328.5,NULL,Niveau,kiwango,s,usimamizi,mwamali,mshairi,NA,sdfdsf,NA,1,NA,NA,NA,NA,NA,NA,NA,NA,NA,NA,NA,NA,NA,NA,NA,NA,NA,NA,NA
f432a,Deep Question,html.Page,3_0_1_0_3_0_0,NA,NA,form submission,7649.8000000119,324314,324312.3,324328.5,331978.30000001,331978.59999996,2024-06-16T09:03:36Z,331990.8,NULL,Entwicklung,maendeleo,d,NA,NA,NA,kiwlig,NA,NA,1,NA,NA,NA,NA,NA,NA,NA,NA,NA,NA,NA,NA,NA,NA,NA,NA,NA,NA,NA
f432a,"""Richtig""-Screen",canvas.Screen,3_0_1_0_3_0_1,NA,NA,skipped,NA,331981.59999996,NA,NA,331978.30000001,331981.80000001,2024-06-16T09:03:36Z,331990.8,NULL,Entwicklung,maendeleo,d,NA,NA,NA,NA,sdfdsf,NA,1,NA,NA,NA,NA,NA,NA,NA,NA,NA,NA,NA,NA,NA,NA,NA,NA,NA,NA,NA
f432a,"""Falsch""-Screen",canvas.Screen,3_0_1_0_3_0_2,NA,NA,timeout,4996.9,331982.59999996,331974.424,331990.8,336971,336972,2024-06-16T09:03:41Z,336987.7,NULL,Entwicklung,maendeleo,d,NA,NA,NA,NA,sdfdsf,0,1,NA,NA,NA,NA,NA,NA,NA,NA,NA,NA,NA,NA,NA,NA,NA,NA,NA,NA,NA
f432a,deep,flow.Sequence,3_0_1_0_3_0,NA,NA,completion,12642.5,324314,324312.3,324328.5,336971,336972.39999998,2024-06-16T09:03:41Z,336987.7,NULL,Entwicklung,maendeleo,d,NA,NA,NA,NA,sdfdsf,NA,1,NA,NA,NA,NA,NA,NA,NA,NA,NA,NA,NA,NA,NA,NA,NA,NA,NA,NA,NA
f432a,shallow,flow.Sequence,3_0_1_0_3_1,NA,NA,skipped,NA,336972.5,NA,NA,336971,336972.59999996,2024-06-16T09:03:41Z,336987.7,NULL,Entwicklung,maendeleo,d,NA,NA,NA,NA,sdfdsf,NA,1,NA,NA,NA,NA,NA,NA,NA,NA,NA,NA,NA,NA,NA,NA,NA,NA,NA,NA,NA
f432a,task,flow.Sequence,3_0_1_0_3,NA,NA,completion,12642.5,324314,324312.3,324328.5,336971,336972.80000001,2024-06-16T09:03:41Z,336987.7,NULL,Entwicklung,maendeleo,d,NA,NA,NA,NA,sdfdsf,NA,1,NA,NA,NA,NA,NA,NA,NA,NA,NA,NA,NA,NA,NA,NA,NA,NA,NA,NA,NA
f432a,Deep Question,html.Page,3_0_1_0_4_0_0,NA,NA,form submission,4660.6999999761,336973,336971,336987.7,341648.39999998,341648.59999996,2024-06-16T09:03:45Z,341652.054,NULL,Fenster,dirisha,d,NA,NA,NA,l,NA,NA,1,NA,NA,NA,NA,NA,NA,NA,NA,NA,NA,NA,NA,NA,NA,NA,NA,NA,NA,NA
f432a,"""Richtig""-Screen",canvas.Screen,3_0_1_0_4_0_1,NA,NA,skipped,NA,341651.59999996,NA,NA,341648.39999998,341651.80000001,2024-06-16T09:03:45Z,341652.054,NULL,Fenster,dirisha,d,NA,NA,NA,NA,sdfdsf,NA,1,NA,NA,NA,NA,NA,NA,NA,NA,NA,NA,NA,NA,NA,NA,NA,NA,NA,NA,NA
f432a,"""Falsch""-Screen",canvas.Screen,3_0_1_0_4_0_2,NA,NA,timeout,4996.146,341652.59999996,341652.054,341652.054,346631.8,346633.30000001,2024-06-16T09:03:50Z,346648.2,NULL,Fenster,dirisha,d,NA,NA,NA,NA,sdfdsf,0,1,NA,NA,NA,NA,NA,NA,NA,NA,NA,NA,NA,NA,NA,NA,NA,NA,NA,NA,NA
f432a,deep,flow.Sequence,3_0_1_0_4_0,NA,NA,completion,9644.1,336973,336971,336987.7,346631.8,346633.69999999,2024-06-16T09:03:50Z,346648.2,NULL,Fenster,dirisha,d,NA,NA,NA,NA,sdfdsf,NA,1,NA,NA,NA,NA,NA,NA,NA,NA,NA,NA,NA,NA,NA,NA,NA,NA,NA,NA,NA
f432a,shallow,flow.Sequence,3_0_1_0_4_1,NA,NA,skipped,NA,346633.89999998,NA,NA,346631.8,346634.09999996,2024-06-16T09:03:50Z,346648.2,NULL,Fenster,dirisha,d,NA,NA,NA,NA,sdfdsf,NA,1,NA,NA,NA,NA,NA,NA,NA,NA,NA,NA,NA,NA,NA,NA,NA,NA,NA,NA,NA
f432a,task,flow.Sequence,3_0_1_0_4,NA,NA,completion,9644.1,336973,336971,336987.7,346631.8,346634.30000001,2024-06-16T09:03:50Z,346648.2,NULL,Fenster,dirisha,d,NA,NA,NA,NA,sdfdsf,NA,1,NA,NA,NA,NA,NA,NA,NA,NA,NA,NA,NA,NA,NA,NA,NA,NA,NA,NA,NA
f432a,deep,flow.Sequence,3_0_1_0_5_0,NA,NA,skipped,NA,346634.39999998,NA,NA,346631.8,346634.5,2024-06-16T09:03:50Z,346648.2,NULL,Schüler,mwanafunzi,s,mwekezaji,matumizi,uaminifu,NA,sdfdsf,NA,1,NA,NA,NA,NA,NA,NA,NA,NA,NA,NA,NA,NA,NA,NA,NA,NA,NA,NA,NA
f432a,Shallow Question,html.Page,3_0_1_0_5_1_0,NA,NA,form submission,29843.499999988,346634.59999996,346631.8,346648.2,376491.69999999,376491.89999998,2024-06-16T09:04:20Z,376496.6,NULL,Schüler,mwanafunzi,s,mwekezaji,matumizi,uaminifu,mwanafunzi,NA,NA,1,NA,NA,NA,NA,NA,NA,NA,NA,NA,NA,NA,NA,NA,NA,NA,NA,NA,NA,NA
f432a,"""Richtig""-Screen",canvas.Screen,3_0_1_0_5_1_1,NA,NA,timeout,4997.5,376494.89999998,376480.7,376496.6,381476.9,381479.30000001,2024-06-16T09:04:25Z,381494.1,NULL,Schüler,mwanafunzi,s,mwekezaji,matumizi,uaminifu,NA,sdfdsf,1,1,NA,NA,NA,NA,NA,NA,NA,NA,NA,NA,NA,NA,NA,NA,NA,NA,NA,NA,NA
f432a,"""Falsch""-Screen",canvas.Screen,3_0_1_0_5_1_2,NA,NA,skipped,NA,381484,NA,NA,381476.9,381484.09999996,2024-06-16T09:04:25Z,381494.1,NULL,Schüler,mwanafunzi,s,mwekezaji,matumizi,uaminifu,NA,sdfdsf,NA,1,NA,NA,NA,NA,NA,NA,NA,NA,NA,NA,NA,NA,NA,NA,NA,NA,NA,NA,NA
f432a,shallow,flow.Sequence,3_0_1_0_5_1,NA,NA,completion,34828.7,346634.59999996,346631.8,346648.2,381476.9,381484.19999999,2024-06-16T09:04:25Z,381494.1,NULL,Schüler,mwanafunzi,s,mwekezaji,matumizi,uaminifu,NA,sdfdsf,NA,1,NA,NA,NA,NA,NA,NA,NA,NA,NA,NA,NA,NA,NA,NA,NA,NA,NA,NA,NA
f432a,task,flow.Sequence,3_0_1_0_5,NA,NA,completion,34828.7,346634.39999998,346631.8,346648.2,381476.9,381484.19999999,2024-06-16T09:04:25Z,381494.1,NULL,Schüler,mwanafunzi,s,mwekezaji,matumizi,uaminifu,NA,sdfdsf,NA,1,NA,NA,NA,NA,NA,NA,NA,NA,NA,NA,NA,NA,NA,NA,NA,NA,NA,NA,NA
f432a,Deep Question,html.Page,3_0_1_0_6_0_0,NA,NA,form submission,5522.4999999643,381484.19999999,381476.9,381494.1,387016.59999996,387016.89999998,2024-06-16T09:04:31Z,387040.6,NULL,Vorwurf,mashtaka,d,NA,NA,NA,g,NA,NA,1,NA,NA,NA,NA,NA,NA,NA,NA,NA,NA,NA,NA,NA,NA,NA,NA,NA,NA,NA
f432a,"""Richtig""-Screen",canvas.Screen,3_0_1_0_6_0_1,NA,NA,skipped,NA,387018.19999999,NA,NA,387016.59999996,387018.30000001,2024-06-16T09:04:31Z,387040.6,NULL,Vorwurf,mashtaka,d,NA,NA,NA,NA,sdfdsf,NA,1,NA,NA,NA,NA,NA,NA,NA,NA,NA,NA,NA,NA,NA,NA,NA,NA,NA,NA,NA
f432a,"""Falsch""-Screen",canvas.Screen,3_0_1_0_6_0_2,NA,NA,timeout,4996.7,387018.69999999,387023.632,387040.6,392020.7,392021.89999998,2024-06-16T09:04:36Z,392037.3,NULL,Vorwurf,mashtaka,d,NA,NA,NA,NA,sdfdsf,0,1,NA,NA,NA,NA,NA,NA,NA,NA,NA,NA,NA,NA,NA,NA,NA,NA,NA,NA,NA
f432a,deep,flow.Sequence,3_0_1_0_6_0,NA,NA,completion,10526.6,381484.19999999,381476.9,381494.1,392020.7,392022.30000001,2024-06-16T09:04:36Z,392037.3,NULL,Vorwurf,mashtaka,d,NA,NA,NA,NA,sdfdsf,NA,1,NA,NA,NA,NA,NA,NA,NA,NA,NA,NA,NA,NA,NA,NA,NA,NA,NA,NA,NA
f432a,shallow,flow.Sequence,3_0_1_0_6_1,NA,NA,skipped,NA,392022.39999998,NA,NA,392020.7,392022.59999996,2024-06-16T09:04:36Z,392037.3,NULL,Vorwurf,mashtaka,d,NA,NA,NA,NA,sdfdsf,NA,1,NA,NA,NA,NA,NA,NA,NA,NA,NA,NA,NA,NA,NA,NA,NA,NA,NA,NA,NA
f432a,task,flow.Sequence,3_0_1_0_6,NA,NA,completion,10526.6,381484.19999999,381476.9,381494.1,392020.7,392022.80000001,2024-06-16T09:04:36Z,392037.3,NULL,Vorwurf,mashtaka,d,NA,NA,NA,NA,sdfdsf,NA,1,NA,NA,NA,NA,NA,NA,NA,NA,NA,NA,NA,NA,NA,NA,NA,NA,NA,NA,NA
f432a,deep,flow.Sequence,3_0_1_0_7_0,NA,NA,skipped,NA,392023,NA,NA,392020.7,392023,2024-06-16T09:04:36Z,392037.3,NULL,Papier,karatasi,s,uchambuzi,usalama,kukataliwa,NA,sdfdsf,NA,1,NA,NA,NA,NA,NA,NA,NA,NA,NA,NA,NA,NA,NA,NA,NA,NA,NA,NA,NA
f432a,Shallow Question,html.Page,3_0_1_0_7_1_0,NA,NA,form submission,13379.599999976,392023.19999999,392020.7,392037.3,405416.89999998,405417,2024-06-16T09:04:49Z,405445.6,NULL,Papier,karatasi,s,uchambuzi,usalama,kukataliwa,kukataliwa,NA,NA,1,NA,NA,NA,NA,NA,NA,NA,NA,NA,NA,NA,NA,NA,NA,NA,NA,NA,NA,NA
f432a,"""Richtig""-Screen",canvas.Screen,3_0_1_0_7_1_1,NA,NA,skipped,NA,405418.39999998,NA,NA,405416.89999998,405418.39999998,2024-06-16T09:04:49Z,405445.6,NULL,Papier,karatasi,s,uchambuzi,usalama,kukataliwa,NA,sdfdsf,NA,1,NA,NA,NA,NA,NA,NA,NA,NA,NA,NA,NA,NA,NA,NA,NA,NA,NA,NA,NA
f432a,"""Falsch""-Screen",canvas.Screen,3_0_1_0_7_1_2,NA,NA,timeout,4997.4,405418.89999998,405429.566,405445.6,410426.4,410427.39999998,2024-06-16T09:04:54Z,410443,NULL,Papier,karatasi,s,uchambuzi,usalama,kukataliwa,NA,sdfdsf,0,1,NA,NA,NA,NA,NA,NA,NA,NA,NA,NA,NA,NA,NA,NA,NA,NA,NA,NA,NA
f432a,shallow,flow.Sequence,3_0_1_0_7_1,NA,NA,completion,18389.1,392023.09999996,392020.7,392037.3,410426.4,410427.80000001,2024-06-16T09:04:54Z,410443,NULL,Papier,karatasi,s,uchambuzi,usalama,kukataliwa,NA,sdfdsf,NA,1,NA,NA,NA,NA,NA,NA,NA,NA,NA,NA,NA,NA,NA,NA,NA,NA,NA,NA,NA
f432a,task,flow.Sequence,3_0_1_0_7,NA,NA,completion,18389.1,392022.89999998,392020.7,392037.3,410426.4,410428,2024-06-16T09:04:54Z,410443,NULL,Papier,karatasi,s,uchambuzi,usalama,kukataliwa,NA,sdfdsf,NA,1,NA,NA,NA,NA,NA,NA,NA,NA,NA,NA,NA,NA,NA,NA,NA,NA,NA,NA,NA
f432a,block,flow.Loop,3_0_1_0,NA,NA,completion,123274.458,287166.59999996,287151.942,287151.942,410426.4,410428.19999999,2024-06-16T09:04:54Z,410443,NULL,NA,NA,NA,NA,NA,NA,NA,sdfdsf,NA,1,NA,NA,NA,NA,NA,NA,NA,NA,NA,NA,NA,NA,NA,NA,NA,NA,NA,NA,NA
f432a,weiter,canvas.Screen,3_0_1_1,sdf,keypress(Space),response,2973.8999999762,410428.39999998,410426.4,410443,413416.89999998,413418.09999996,2024-06-16T09:04:57Z,413426.214,NULL,NA,NA,NA,NA,NA,NA,NA,sdfdsf,NA,1,NA,NA,NA,NA,NA,NA,NA,NA,NA,NA,NA,NA,NA,NA,NA,NA,NA,NA,NA
f432a,check continue,flow.Sequence,3_0_1,NA,NA,completion,126264.95799998,287166.59999996,287151.942,287151.942,413416.89999998,413418.30000001,2024-06-16T09:04:57Z,413426.214,NULL,NA,NA,NA,NA,NA,NA,NA,sdfdsf,NA,1,NA,NA,NA,NA,NA,NA,NA,NA,NA,NA,NA,NA,NA,NA,NA,NA,NA,NA,NA
f432a,deep,flow.Sequence,3_0_2_0_0_0,NA,NA,skipped,NA,413437.19999999,NA,NA,413416.89999998,413437.30000001,2024-06-16T09:04:57Z,413426.214,NULL,Niveau,kiwango,s,usimamizi,mwamali,mshairi,NA,sdf,NA,2,NA,NA,NA,NA,NA,NA,NA,NA,NA,NA,NA,NA,NA,NA,NA,NA,NA,NA,NA
f432a,Shallow Question,html.Page,3_0_2_0_0_1_0,NA,NA,form submission,17388.385999964,413437.39999998,413426.214,413426.214,430814.59999996,430814.89999998,2024-06-16T09:05:15Z,430830.5,NULL,Niveau,kiwango,s,usimamizi,mwamali,mshairi,usimamizi,NA,NA,2,NA,NA,NA,NA,NA,NA,NA,NA,NA,NA,NA,NA,NA,NA,NA,NA,NA,NA,NA
f432a,"""Richtig""-Screen",canvas.Screen,3_0_2_0_0_1_1,NA,NA,skipped,NA,430818,NA,NA,430814.59999996,430818.09999996,2024-06-16T09:05:15Z,430830.5,NULL,Niveau,kiwango,s,usimamizi,mwamali,mshairi,NA,sdf,NA,2,NA,NA,NA,NA,NA,NA,NA,NA,NA,NA,NA,NA,NA,NA,NA,NA,NA,NA,NA
f432a,"""Falsch""-Screen",canvas.Screen,3_0_2_0_0_1_2,NA,NA,timeout,4996.5,430818.80000001,430814.116,430830.5,435810.8,435811.69999999,2024-06-16T09:05:20Z,435827,NULL,Niveau,kiwango,s,usimamizi,mwamali,mshairi,NA,sdf,0,2,NA,NA,NA,NA,NA,NA,NA,NA,NA,NA,NA,NA,NA,NA,NA,NA,NA,NA,NA
f432a,shallow,flow.Sequence,3_0_2_0_0_1,NA,NA,completion,22384.586,413437.39999998,413426.214,413426.214,435810.8,435812.09999996,2024-06-16T09:05:20Z,435827,NULL,Niveau,kiwango,s,usimamizi,mwamali,mshairi,NA,sdf,NA,2,NA,NA,NA,NA,NA,NA,NA,NA,NA,NA,NA,NA,NA,NA,NA,NA,NA,NA,NA
f432a,task,flow.Sequence,3_0_2_0_0,NA,NA,completion,22384.586,413437.19999999,413426.214,413426.214,435810.8,435812.39999998,2024-06-16T09:05:20Z,435827,NULL,Niveau,kiwango,s,usimamizi,mwamali,mshairi,NA,sdf,NA,2,NA,NA,NA,NA,NA,NA,NA,NA,NA,NA,NA,NA,NA,NA,NA,NA,NA,NA,NA
f432a,Deep Question,html.Page,3_0_2_0_1_0_0,NA,NA,form submission,9131.5,435812.5,435810.8,435827,444958.5,444958.69999999,2024-06-16T09:05:29Z,444971.4,NULL,Vorwurf,mashtaka,d,NA,NA,NA,dirishi,NA,NA,2,NA,NA,NA,NA,NA,NA,NA,NA,NA,NA,NA,NA,NA,NA,NA,NA,NA,NA,NA
f432a,"""Richtig""-Screen",canvas.Screen,3_0_2_0_1_0_1,NA,NA,skipped,NA,444961.59999996,NA,NA,444958.5,444961.69999999,2024-06-16T09:05:29Z,444971.4,NULL,Vorwurf,mashtaka,d,NA,NA,NA,NA,sdf,NA,2,NA,NA,NA,NA,NA,NA,NA,NA,NA,NA,NA,NA,NA,NA,NA,NA,NA,NA,NA
f432a,"""Falsch""-Screen",canvas.Screen,3_0_2_0_1_0_2,NA,NA,timeout,4997.1,444962.39999998,444955.416,444971.4,449952.1,449953.19999999,2024-06-16T09:05:34Z,449968.5,NULL,Vorwurf,mashtaka,d,NA,NA,NA,NA,sdf,0,2,NA,NA,NA,NA,NA,NA,NA,NA,NA,NA,NA,NA,NA,NA,NA,NA,NA,NA,NA
f432a,deep,flow.Sequence,3_0_2_0_1_0,NA,NA,completion,14125.1,435812.5,435810.8,435827,449952.1,449953.59999996,2024-06-16T09:05:34Z,449968.5,NULL,Vorwurf,mashtaka,d,NA,NA,NA,NA,sdf,NA,2,NA,NA,NA,NA,NA,NA,NA,NA,NA,NA,NA,NA,NA,NA,NA,NA,NA,NA,NA
f432a,shallow,flow.Sequence,3_0_2_0_1_1,NA,NA,skipped,NA,449953.80000001,NA,NA,449952.1,449953.89999998,2024-06-16T09:05:34Z,449968.5,NULL,Vorwurf,mashtaka,d,NA,NA,NA,NA,sdf,NA,2,NA,NA,NA,NA,NA,NA,NA,NA,NA,NA,NA,NA,NA,NA,NA,NA,NA,NA,NA
f432a,task,flow.Sequence,3_0_2_0_1,NA,NA,completion,14125.1,435812.39999998,435810.8,435827,449952.1,449954.09999996,2024-06-16T09:05:34Z,449968.5,NULL,Vorwurf,mashtaka,d,NA,NA,NA,NA,sdf,NA,2,NA,NA,NA,NA,NA,NA,NA,NA,NA,NA,NA,NA,NA,NA,NA,NA,NA,NA,NA
f432a,Deep Question,html.Page,3_0_2_0_2_0_0,NA,NA,form submission,7135.8999999762,449954.30000001,449952.1,449968.5,457104.39999998,457104.69999999,2024-06-16T09:05:41Z,457114.1,NULL,Entwicklung,maendeleo,d,NA,NA,NA,dirisha,NA,NA,2,NA,NA,NA,NA,NA,NA,NA,NA,NA,NA,NA,NA,NA,NA,NA,NA,NA,NA,NA
f432a,"""Richtig""-Screen",canvas.Screen,3_0_2_0_2_0_1,NA,NA,skipped,NA,457107.69999999,NA,NA,457104.39999998,457107.89999998,2024-06-16T09:05:41Z,457114.1,NULL,Entwicklung,maendeleo,d,NA,NA,NA,NA,sdf,NA,2,NA,NA,NA,NA,NA,NA,NA,NA,NA,NA,NA,NA,NA,NA,NA,NA,NA,NA,NA
f432a,"""Falsch""-Screen",canvas.Screen,3_0_2_0_2_0_2,NA,NA,timeout,4997,457108.59999996,457097.924,457114.1,462094.8,462095.89999998,2024-06-16T09:05:46Z,462111.1,NULL,Entwicklung,maendeleo,d,NA,NA,NA,NA,sdf,0,2,NA,NA,NA,NA,NA,NA,NA,NA,NA,NA,NA,NA,NA,NA,NA,NA,NA,NA,NA
f432a,deep,flow.Sequence,3_0_2_0_2_0,NA,NA,completion,12126.3,449954.19999999,449952.1,449968.5,462094.8,462096.19999999,2024-06-16T09:05:46Z,462111.1,NULL,Entwicklung,maendeleo,d,NA,NA,NA,NA,sdf,NA,2,NA,NA,NA,NA,NA,NA,NA,NA,NA,NA,NA,NA,NA,NA,NA,NA,NA,NA,NA
f432a,shallow,flow.Sequence,3_0_2_0_2_1,NA,NA,skipped,NA,462096.30000001,NA,NA,462094.8,462096.39999998,2024-06-16T09:05:46Z,462111.1,NULL,Entwicklung,maendeleo,d,NA,NA,NA,NA,sdf,NA,2,NA,NA,NA,NA,NA,NA,NA,NA,NA,NA,NA,NA,NA,NA,NA,NA,NA,NA,NA
f432a,task,flow.Sequence,3_0_2_0_2,NA,NA,completion,12126.3,449954.19999999,449952.1,449968.5,462094.8,462096.59999996,2024-06-16T09:05:46Z,462111.1,NULL,Entwicklung,maendeleo,d,NA,NA,NA,NA,sdf,NA,2,NA,NA,NA,NA,NA,NA,NA,NA,NA,NA,NA,NA,NA,NA,NA,NA,NA,NA,NA
f432a,deep,flow.Sequence,3_0_2_0_3_0,NA,NA,skipped,NA,462096.80000001,NA,NA,462094.8,462097,2024-06-16T09:05:46Z,462111.1,NULL,Tester,wanaojaribu,s,sherti,sihiri,mlipuko,NA,sdf,NA,2,NA,NA,NA,NA,NA,NA,NA,NA,NA,NA,NA,NA,NA,NA,NA,NA,NA,NA,NA
f432a,Shallow Question,html.Page,3_0_2_0_3_1_0,NA,NA,form submission,8287.4999999643,462097.19999999,462094.8,462111.1,470398.59999996,470398.69999999,2024-06-16T09:05:54Z,470405.8,NULL,Tester,wanaojaribu,s,sherti,sihiri,mlipuko,wanaojaribu,NA,NA,2,NA,NA,NA,NA,NA,NA,NA,NA,NA,NA,NA,NA,NA,NA,NA,NA,NA,NA,NA
f432a,"""Richtig""-Screen",canvas.Screen,3_0_2_0_3_1_1,NA,NA,timeout,4997.4,470400.09999996,470389.92,470405.8,475386.4,475387.5,2024-06-16T09:05:59Z,475403.2,NULL,Tester,wanaojaribu,s,sherti,sihiri,mlipuko,NA,sdf,1,2,NA,NA,NA,NA,NA,NA,NA,NA,NA,NA,NA,NA,NA,NA,NA,NA,NA,NA,NA
f432a,"""Falsch""-Screen",canvas.Screen,3_0_2_0_3_1_2,NA,NA,skipped,NA,475392.69999999,NA,NA,475386.4,475392.89999998,2024-06-16T09:05:59Z,475403.2,NULL,Tester,wanaojaribu,s,sherti,sihiri,mlipuko,NA,sdf,NA,2,NA,NA,NA,NA,NA,NA,NA,NA,NA,NA,NA,NA,NA,NA,NA,NA,NA,NA,NA
f432a,shallow,flow.Sequence,3_0_2_0_3_1,NA,NA,completion,13275.3,462097.19999999,462094.8,462111.1,475386.4,475393,2024-06-16T09:05:59Z,475403.2,NULL,Tester,wanaojaribu,s,sherti,sihiri,mlipuko,NA,sdf,NA,2,NA,NA,NA,NA,NA,NA,NA,NA,NA,NA,NA,NA,NA,NA,NA,NA,NA,NA,NA
f432a,task,flow.Sequence,3_0_2_0_3,NA,NA,completion,13275.3,462096.80000001,462094.8,462111.1,475386.4,475393.09999996,2024-06-16T09:05:59Z,475403.2,NULL,Tester,wanaojaribu,s,sherti,sihiri,mlipuko,NA,sdf,NA,2,NA,NA,NA,NA,NA,NA,NA,NA,NA,NA,NA,NA,NA,NA,NA,NA,NA,NA,NA
f432a,Deep Question,html.Page,3_0_2_0_4_0_0,NA,NA,form submission,6065.3999999642,475393.09999996,475386.4,475403.2,481468.59999996,481468.69999999,2024-06-16T09:06:05Z,481482.9,NULL,Spionage,upelelezi,d,NA,NA,NA,dirisha,NA,NA,2,NA,NA,NA,NA,NA,NA,NA,NA,NA,NA,NA,NA,NA,NA,NA,NA,NA,NA,NA
f432a,"""Richtig""-Screen",canvas.Screen,3_0_2_0_4_0_1,NA,NA,skipped,NA,481471.59999996,NA,NA,481468.59999996,481471.69999999,2024-06-16T09:06:05Z,481482.9,NULL,Spionage,upelelezi,d,NA,NA,NA,NA,sdf,NA,2,NA,NA,NA,NA,NA,NA,NA,NA,NA,NA,NA,NA,NA,NA,NA,NA,NA,NA,NA
f432a,"""Falsch""-Screen",canvas.Screen,3_0_2_0_4_0_2,NA,NA,timeout,4996.9,481472.39999998,481466.426,481482.9,486462.8,486463.80000001,2024-06-16T09:06:10Z,486479.8,NULL,Spionage,upelelezi,d,NA,NA,NA,NA,sdf,0,2,NA,NA,NA,NA,NA,NA,NA,NA,NA,NA,NA,NA,NA,NA,NA,NA,NA,NA,NA
f432a,deep,flow.Sequence,3_0_2_0_4_0,NA,NA,completion,11059.6,475393.09999996,475386.4,475403.2,486462.8,486464.09999996,2024-06-16T09:06:10Z,486479.8,NULL,Spionage,upelelezi,d,NA,NA,NA,NA,sdf,NA,2,NA,NA,NA,NA,NA,NA,NA,NA,NA,NA,NA,NA,NA,NA,NA,NA,NA,NA,NA
f432a,shallow,flow.Sequence,3_0_2_0_4_1,NA,NA,skipped,NA,486464.30000001,NA,NA,486462.8,486464.39999998,2024-06-16T09:06:10Z,486479.8,NULL,Spionage,upelelezi,d,NA,NA,NA,NA,sdf,NA,2,NA,NA,NA,NA,NA,NA,NA,NA,NA,NA,NA,NA,NA,NA,NA,NA,NA,NA,NA
f432a,task,flow.Sequence,3_0_2_0_4,NA,NA,completion,11059.6,475393.09999996,475386.4,475403.2,486462.8,486464.59999996,2024-06-16T09:06:10Z,486479.8,NULL,Spionage,upelelezi,d,NA,NA,NA,NA,sdf,NA,2,NA,NA,NA,NA,NA,NA,NA,NA,NA,NA,NA,NA,NA,NA,NA,NA,NA,NA,NA
f432a,deep,flow.Sequence,3_0_2_0_5_0,NA,NA,skipped,NA,486464.69999999,NA,NA,486462.8,486464.89999998,2024-06-16T09:06:10Z,486479.8,NULL,Papier,karatasi,s,uchambuzi,usalama,kukataliwa,NA,sdf,NA,2,NA,NA,NA,NA,NA,NA,NA,NA,NA,NA,NA,NA,NA,NA,NA,NA,NA,NA,NA
f432a,Shallow Question,html.Page,3_0_2_0_5_1_0,NA,NA,form submission,12309.399999988,486465,486462.8,486479.8,498789.19999999,498789.39999998,2024-06-16T09:06:23Z,498805.6,NULL,Papier,karatasi,s,uchambuzi,usalama,kukataliwa,karatasi,NA,NA,2,NA,NA,NA,NA,NA,NA,NA,NA,NA,NA,NA,NA,NA,NA,NA,NA,NA,NA,NA
f432a,"""Richtig""-Screen",canvas.Screen,3_0_2_0_5_1_1,NA,NA,timeout,4997.1,498792.5,498789.246,498805.6,503785.6,503786.69999999,2024-06-16T09:06:28Z,503802.7,NULL,Papier,karatasi,s,uchambuzi,usalama,kukataliwa,NA,sdf,1,2,NA,NA,NA,NA,NA,NA,NA,NA,NA,NA,NA,NA,NA,NA,NA,NA,NA,NA,NA
f432a,"""Falsch""-Screen",canvas.Screen,3_0_2_0_5_1_2,NA,NA,skipped,NA,503791.69999999,NA,NA,503785.6,503791.69999999,2024-06-16T09:06:28Z,503802.7,NULL,Papier,karatasi,s,uchambuzi,usalama,kukataliwa,NA,sdf,NA,2,NA,NA,NA,NA,NA,NA,NA,NA,NA,NA,NA,NA,NA,NA,NA,NA,NA,NA,NA
f432a,shallow,flow.Sequence,3_0_2_0_5_1,NA,NA,completion,17305.8,486465,486462.8,486479.8,503785.6,503791.89999998,2024-06-16T09:06:28Z,503802.7,NULL,Papier,karatasi,s,uchambuzi,usalama,kukataliwa,NA,sdf,NA,2,NA,NA,NA,NA,NA,NA,NA,NA,NA,NA,NA,NA,NA,NA,NA,NA,NA,NA,NA
f432a,task,flow.Sequence,3_0_2_0_5,NA,NA,completion,17305.8,486464.69999999,486462.8,486479.8,503785.6,503791.89999998,2024-06-16T09:06:28Z,503802.7,NULL,Papier,karatasi,s,uchambuzi,usalama,kukataliwa,NA,sdf,NA,2,NA,NA,NA,NA,NA,NA,NA,NA,NA,NA,NA,NA,NA,NA,NA,NA,NA,NA,NA
f432a,Deep Question,html.Page,3_0_2_0_6_0_0,NA,NA,form submission,6297.1999999761,503791.89999998,503785.6,503802.7,510099.89999998,510100,2024-06-16T09:06:34Z,510115.6,NULL,Fenster,dirisha,d,NA,NA,NA,dirisha,NA,NA,2,NA,NA,NA,NA,NA,NA,NA,NA,NA,NA,NA,NA,NA,NA,NA,NA,NA,NA,NA
f432a,"""Richtig""-Screen",canvas.Screen,3_0_2_0_6_0_1,NA,NA,timeout,4996.8,510101.30000001,510098.8,510115.6,515095.8,515096.39999998,2024-06-16T09:06:39Z,515112.4,NULL,Fenster,dirisha,d,NA,NA,NA,NA,sdf,1,2,NA,NA,NA,NA,NA,NA,NA,NA,NA,NA,NA,NA,NA,NA,NA,NA,NA,NA,NA
f432a,"""Falsch""-Screen",canvas.Screen,3_0_2_0_6_0_2,NA,NA,skipped,NA,515098.5,NA,NA,515095.8,515098.5,2024-06-16T09:06:39Z,515112.4,NULL,Fenster,dirisha,d,NA,NA,NA,NA,sdf,NA,2,NA,NA,NA,NA,NA,NA,NA,NA,NA,NA,NA,NA,NA,NA,NA,NA,NA,NA,NA
f432a,deep,flow.Sequence,3_0_2_0_6_0,NA,NA,completion,11293.1,503791.89999998,503785.6,503802.7,515095.8,515098.59999996,2024-06-16T09:06:39Z,515112.4,NULL,Fenster,dirisha,d,NA,NA,NA,NA,sdf,NA,2,NA,NA,NA,NA,NA,NA,NA,NA,NA,NA,NA,NA,NA,NA,NA,NA,NA,NA,NA
f432a,shallow,flow.Sequence,3_0_2_0_6_1,NA,NA,skipped,NA,515098.69999999,NA,NA,515095.8,515098.80000001,2024-06-16T09:06:39Z,515112.4,NULL,Fenster,dirisha,d,NA,NA,NA,NA,sdf,NA,2,NA,NA,NA,NA,NA,NA,NA,NA,NA,NA,NA,NA,NA,NA,NA,NA,NA,NA,NA
f432a,task,flow.Sequence,3_0_2_0_6,NA,NA,completion,11293.1,503791.89999998,503785.6,503802.7,515095.8,515098.80000001,2024-06-16T09:06:39Z,515112.4,NULL,Fenster,dirisha,d,NA,NA,NA,NA,sdf,NA,2,NA,NA,NA,NA,NA,NA,NA,NA,NA,NA,NA,NA,NA,NA,NA,NA,NA,NA,NA
f432a,deep,flow.Sequence,3_0_2_0_7_0,NA,NA,skipped,NA,515098.89999998,NA,NA,515095.8,515098.89999998,2024-06-16T09:06:39Z,515112.4,NULL,Schüler,mwanafunzi,s,mwekezaji,matumizi,uaminifu,NA,sdf,NA,2,NA,NA,NA,NA,NA,NA,NA,NA,NA,NA,NA,NA,NA,NA,NA,NA,NA,NA,NA
f432a,Shallow Question,html.Page,3_0_2_0_7_1_0,NA,NA,form submission,17749.299999988,515099,515095.8,515112.4,532861.69999999006,532861.89999998,2024-06-16T09:06:57Z,532867.6,NULL,Schüler,mwanafunzi,s,mwekezaji,matumizi,uaminifu,mwanafunzi,NA,NA,2,NA,NA,NA,NA,NA,NA,NA,NA,NA,NA,NA,NA,NA,NA,NA,NA,NA,NA,NA
f432a,"""Richtig""-Screen",canvas.Screen,3_0_2_0_7_1_1,NA,NA,timeout,4997.6,532865,532851.69,532867.6,537848.1,537849.09999996,2024-06-16T09:07:02Z,537865.2,NULL,Schüler,mwanafunzi,s,mwekezaji,matumizi,uaminifu,NA,sdf,1,2,NA,NA,NA,NA,NA,NA,NA,NA,NA,NA,NA,NA,NA,NA,NA,NA,NA,NA,NA
f432a,"""Falsch""-Screen",canvas.Screen,3_0_2_0_7_1_2,NA,NA,skipped,NA,537854.30000001,NA,NA,537848.1,537854.39999998,2024-06-16T09:07:02Z,537865.2,NULL,Schüler,mwanafunzi,s,mwekezaji,matumizi,uaminifu,NA,sdf,NA,2,NA,NA,NA,NA,NA,NA,NA,NA,NA,NA,NA,NA,NA,NA,NA,NA,NA,NA,NA
f432a,shallow,flow.Sequence,3_0_2_0_7_1,NA,NA,completion,22735.7,515099,515095.8,515112.4,537848.1,537854.5,2024-06-16T09:07:02Z,537865.2,NULL,Schüler,mwanafunzi,s,mwekezaji,matumizi,uaminifu,NA,sdf,NA,2,NA,NA,NA,NA,NA,NA,NA,NA,NA,NA,NA,NA,NA,NA,NA,NA,NA,NA,NA
f432a,task,flow.Sequence,3_0_2_0_7,NA,NA,completion,22735.7,515098.80000001,515095.8,515112.4,537848.1,537854.5,2024-06-16T09:07:02Z,537865.2,NULL,Schüler,mwanafunzi,s,mwekezaji,matumizi,uaminifu,NA,sdf,NA,2,NA,NA,NA,NA,NA,NA,NA,NA,NA,NA,NA,NA,NA,NA,NA,NA,NA,NA,NA
f432a,block,flow.Loop,3_0_2_0,NA,NA,completion,124421.886,413437.19999999,413426.214,413426.214,537848.1,537854.59999996,2024-06-16T09:07:02Z,537865.2,NULL,NA,NA,NA,NA,NA,NA,NA,sdf,NA,2,NA,NA,NA,NA,NA,NA,NA,NA,NA,NA,NA,NA,NA,NA,NA,NA,NA,NA,NA
f432a,weiter,canvas.Screen,3_0_2_1,sdf,keypress(Space),response,1444.9999999881,537854.59999996,537848.1,537865.2,539310.19999999006,539311.19999999006,2024-06-16T09:07:03Z,539330.5,NULL,NA,NA,NA,NA,NA,NA,NA,sdf,NA,2,NA,NA,NA,NA,NA,NA,NA,NA,NA,NA,NA,NA,NA,NA,NA,NA,NA,NA,NA
f432a,check continue,flow.Sequence,3_0_2,NA,NA,completion,125883.98599999001,413437.19999999,413426.214,413426.214,539310.19999999006,539311.39999998,2024-06-16T09:07:03Z,539330.5,NULL,NA,NA,NA,NA,NA,NA,NA,sdf,NA,2,NA,NA,NA,NA,NA,NA,NA,NA,NA,NA,NA,NA,NA,NA,NA,NA,NA,NA,NA
f432a,deep,flow.Sequence,3_0_3_0_0_0,NA,NA,skipped,NA,539329.89999998,NA,NA,539310.19999999006,539330,2024-06-16T09:07:03Z,539330.5,NULL,Schüler,mwanafunzi,s,mwekezaji,matumizi,uaminifu,NA,qt,NA,3,NA,NA,NA,NA,NA,NA,NA,NA,NA,NA,NA,NA,NA,NA,NA,NA,NA,NA,NA
f432a,Shallow Question,html.Page,3_0_3_0_0_1_0,NA,NA,form submission,5968.5999999642,539330.09999996,539314.114,539330.5,545299.09999996,545299.30000001,2024-06-16T09:07:09Z,545310.1,NULL,Schüler,mwanafunzi,s,mwekezaji,matumizi,uaminifu,mwanafunzi,NA,NA,3,NA,NA,NA,NA,NA,NA,NA,NA,NA,NA,NA,NA,NA,NA,NA,NA,NA,NA,NA
f432a,"""Richtig""-Screen",canvas.Screen,3_0_3_0_0_1_1,NA,NA,timeout,4997,545302.09999996,545294.276,545310.1,550290.5,550292.5,2024-06-16T09:07:14Z,550307.1,NULL,Schüler,mwanafunzi,s,mwekezaji,matumizi,uaminifu,NA,qt,1,3,NA,NA,NA,NA,NA,NA,NA,NA,NA,NA,NA,NA,NA,NA,NA,NA,NA,NA,NA
f432a,"""Falsch""-Screen",canvas.Screen,3_0_3_0_0_1_2,NA,NA,skipped,NA,550297.39999998,NA,NA,550290.5,550297.5,2024-06-16T09:07:14Z,550307.1,NULL,Schüler,mwanafunzi,s,mwekezaji,matumizi,uaminifu,NA,qt,NA,3,NA,NA,NA,NA,NA,NA,NA,NA,NA,NA,NA,NA,NA,NA,NA,NA,NA,NA,NA
f432a,shallow,flow.Sequence,3_0_3_0_0_1,NA,NA,completion,10960,539330.09999996,539314.114,539330.5,550290.5,550297.59999996,2024-06-16T09:07:14Z,550307.1,NULL,Schüler,mwanafunzi,s,mwekezaji,matumizi,uaminifu,NA,qt,NA,3,NA,NA,NA,NA,NA,NA,NA,NA,NA,NA,NA,NA,NA,NA,NA,NA,NA,NA,NA
f432a,task,flow.Sequence,3_0_3_0_0,NA,NA,completion,10960,539329.89999998,539314.114,539330.5,550290.5,550297.69999999006,2024-06-16T09:07:14Z,550307.1,NULL,Schüler,mwanafunzi,s,mwekezaji,matumizi,uaminifu,NA,qt,NA,3,NA,NA,NA,NA,NA,NA,NA,NA,NA,NA,NA,NA,NA,NA,NA,NA,NA,NA,NA
f432a,Deep Question,html.Page,3_0_3_0_1_0_0,NA,NA,form submission,19242.700000012,550297.69999999006,550290.5,550307.1,569549.80000001,569550.09999996,2024-06-16T09:07:33Z,569579,NULL,Entwicklung,maendeleo,d,NA,NA,NA,dirisha,NA,NA,3,NA,NA,NA,NA,NA,NA,NA,NA,NA,NA,NA,NA,NA,NA,NA,NA,NA,NA,NA
f432a,"""Richtig""-Screen",canvas.Screen,3_0_3_0_1_0_1,NA,NA,skipped,NA,569553.19999999006,NA,NA,569549.80000001,569553.30000001,2024-06-16T09:07:33Z,569579,NULL,Entwicklung,maendeleo,d,NA,NA,NA,NA,qt,NA,3,NA,NA,NA,NA,NA,NA,NA,NA,NA,NA,NA,NA,NA,NA,NA,NA,NA,NA,NA
f432a,"""Falsch""-Screen",canvas.Screen,3_0_3_0_1_0_2,NA,NA,timeout,4997.2,569553.69999999006,569562.6,569579,574559,574559.89999998,2024-06-16T09:07:38Z,574576.2,NULL,Entwicklung,maendeleo,d,NA,NA,NA,NA,qt,0,3,NA,NA,NA,NA,NA,NA,NA,NA,NA,NA,NA,NA,NA,NA,NA,NA,NA,NA,NA
f432a,deep,flow.Sequence,3_0_3_0_1_0,NA,NA,completion,24251.9,550297.69999999006,550290.5,550307.1,574559,574560.19999999006,2024-06-16T09:07:38Z,574576.2,NULL,Entwicklung,maendeleo,d,NA,NA,NA,NA,qt,NA,3,NA,NA,NA,NA,NA,NA,NA,NA,NA,NA,NA,NA,NA,NA,NA,NA,NA,NA,NA
f432a,shallow,flow.Sequence,3_0_3_0_1_1,NA,NA,skipped,NA,574560.5,NA,NA,574559,574560.5,2024-06-16T09:07:38Z,574576.2,NULL,Entwicklung,maendeleo,d,NA,NA,NA,NA,qt,NA,3,NA,NA,NA,NA,NA,NA,NA,NA,NA,NA,NA,NA,NA,NA,NA,NA,NA,NA,NA
f432a,task,flow.Sequence,3_0_3_0_1,NA,NA,completion,24251.9,550297.69999999006,550290.5,550307.1,574559,574560.80000000994,2024-06-16T09:07:38Z,574576.2,NULL,Entwicklung,maendeleo,d,NA,NA,NA,NA,qt,NA,3,NA,NA,NA,NA,NA,NA,NA,NA,NA,NA,NA,NA,NA,NA,NA,NA,NA,NA,NA
f432a,Deep Question,html.Page,3_0_3_0_2_0_0,NA,NA,form submission,6066.1999999762,574560.89999998,574559,574576.2,580642.39999998,580642.5,2024-06-16T09:07:44Z,580655.7,NULL,Fenster,dirisha,d,NA,NA,NA,dirisha,NA,NA,3,NA,NA,NA,NA,NA,NA,NA,NA,NA,NA,NA,NA,NA,NA,NA,NA,NA,NA,NA
f432a,"""Richtig""-Screen",canvas.Screen,3_0_3_0_2_0_1,NA,NA,timeout,4997,580643.89999998,580638.928,580655.7,585635.5,585636.5,2024-06-16T09:07:49Z,585652.7,NULL,Fenster,dirisha,d,NA,NA,NA,NA,qt,1,3,NA,NA,NA,NA,NA,NA,NA,NA,NA,NA,NA,NA,NA,NA,NA,NA,NA,NA,NA
f432a,"""Falsch""-Screen",canvas.Screen,3_0_3_0_2_0_2,NA,NA,skipped,NA,585641.80000000994,NA,NA,585635.5,585641.89999998,2024-06-16T09:07:49Z,585652.7,NULL,Fenster,dirisha,d,NA,NA,NA,NA,qt,NA,3,NA,NA,NA,NA,NA,NA,NA,NA,NA,NA,NA,NA,NA,NA,NA,NA,NA,NA,NA
f432a,deep,flow.Sequence,3_0_3_0_2_0,NA,NA,completion,11059.3,574560.89999998,574559,574576.2,585635.5,585642,2024-06-16T09:07:49Z,585652.7,NULL,Fenster,dirisha,d,NA,NA,NA,NA,qt,NA,3,NA,NA,NA,NA,NA,NA,NA,NA,NA,NA,NA,NA,NA,NA,NA,NA,NA,NA,NA
f432a,shallow,flow.Sequence,3_0_3_0_2_1,NA,NA,skipped,NA,585642,NA,NA,585635.5,585642,2024-06-16T09:07:49Z,585652.7,NULL,Fenster,dirisha,d,NA,NA,NA,NA,qt,NA,3,NA,NA,NA,NA,NA,NA,NA,NA,NA,NA,NA,NA,NA,NA,NA,NA,NA,NA,NA
f432a,task,flow.Sequence,3_0_3_0_2,NA,NA,completion,11059.3,574560.80000000994,574559,574576.2,585635.5,585642.09999996,2024-06-16T09:07:49Z,585652.7,NULL,Fenster,dirisha,d,NA,NA,NA,NA,qt,NA,3,NA,NA,NA,NA,NA,NA,NA,NA,NA,NA,NA,NA,NA,NA,NA,NA,NA,NA,NA
f432a,deep,flow.Sequence,3_0_3_0_3_0,NA,NA,skipped,NA,585642.09999996,NA,NA,585635.5,585642.09999996,2024-06-16T09:07:49Z,585652.7,NULL,Niveau,kiwango,s,usimamizi,mwamali,mshairi,NA,qt,NA,3,NA,NA,NA,NA,NA,NA,NA,NA,NA,NA,NA,NA,NA,NA,NA,NA,NA,NA,NA
f432a,Shallow Question,html.Page,3_0_3_0_3_1_0,NA,NA,form submission,7320.9999999881,585642.19999999006,585635.5,585652.7,592973.69999999006,592974,2024-06-16T09:07:57Z,592981,NULL,Niveau,kiwango,s,usimamizi,mwamali,mshairi,usimamizi,NA,NA,3,NA,NA,NA,NA,NA,NA,NA,NA,NA,NA,NA,NA,NA,NA,NA,NA,NA,NA,NA
f432a,"""Richtig""-Screen",canvas.Screen,3_0_3_0_3_1_1,NA,NA,skipped,NA,592977,NA,NA,592973.69999999006,592977.19999999006,2024-06-16T09:07:57Z,592981,NULL,Niveau,kiwango,s,usimamizi,mwamali,mshairi,NA,qt,NA,3,NA,NA,NA,NA,NA,NA,NA,NA,NA,NA,NA,NA,NA,NA,NA,NA,NA,NA,NA
f432a,"""Falsch""-Screen",canvas.Screen,3_0_3_0_3_1_2,NA,NA,timeout,4997,592977.89999998,592965.182,592981,597961.5,597962.5,2024-06-16T09:08:02Z,597978,NULL,Niveau,kiwango,s,usimamizi,mwamali,mshairi,NA,qt,0,3,NA,NA,NA,NA,NA,NA,NA,NA,NA,NA,NA,NA,NA,NA,NA,NA,NA,NA,NA
f432a,shallow,flow.Sequence,3_0_3_0_3_1,NA,NA,completion,12308.8,585642.19999999006,585635.5,585652.7,597961.5,597962.80000001,2024-06-16T09:08:02Z,597978,NULL,Niveau,kiwango,s,usimamizi,mwamali,mshairi,NA,qt,NA,3,NA,NA,NA,NA,NA,NA,NA,NA,NA,NA,NA,NA,NA,NA,NA,NA,NA,NA,NA
f432a,task,flow.Sequence,3_0_3_0_3,NA,NA,completion,12308.8,585642.09999996,585635.5,585652.7,597961.5,597963,2024-06-16T09:08:02Z,597978,NULL,Niveau,kiwango,s,usimamizi,mwamali,mshairi,NA,qt,NA,3,NA,NA,NA,NA,NA,NA,NA,NA,NA,NA,NA,NA,NA,NA,NA,NA,NA,NA,NA
f432a,Deep Question,html.Page,3_0_3_0_4_0_0,NA,NA,form submission,8932,597963.19999999006,597961.5,597978,606910,606910.19999999006,2024-06-16T09:08:11Z,606922.6,NULL,Vorwurf,mashtaka,d,NA,NA,NA,ks,NA,NA,3,NA,NA,NA,NA,NA,NA,NA,NA,NA,NA,NA,NA,NA,NA,NA,NA,NA,NA,NA
f432a,"""Richtig""-Screen",canvas.Screen,3_0_3_0_4_0_1,NA,NA,skipped,NA,606913.19999999006,NA,NA,606910,606913.39999998,2024-06-16T09:08:11Z,606922.6,NULL,Vorwurf,mashtaka,d,NA,NA,NA,NA,qt,NA,3,NA,NA,NA,NA,NA,NA,NA,NA,NA,NA,NA,NA,NA,NA,NA,NA,NA,NA,NA
f432a,"""Falsch""-Screen",canvas.Screen,3_0_3_0_4_0_2,NA,NA,timeout,4996.8,606913.80000001,606906.458,606922.6,611903.3,611903.89999998,2024-06-16T09:08:16Z,611919.4,NULL,Vorwurf,mashtaka,d,NA,NA,NA,NA,qt,0,3,NA,NA,NA,NA,NA,NA,NA,NA,NA,NA,NA,NA,NA,NA,NA,NA,NA,NA,NA
f432a,deep,flow.Sequence,3_0_3_0_4_0,NA,NA,completion,13925.3,597963.19999999006,597961.5,597978,611903.3,611904,2024-06-16T09:08:16Z,611919.4,NULL,Vorwurf,mashtaka,d,NA,NA,NA,NA,qt,NA,3,NA,NA,NA,NA,NA,NA,NA,NA,NA,NA,NA,NA,NA,NA,NA,NA,NA,NA,NA
f432a,shallow,flow.Sequence,3_0_3_0_4_1,NA,NA,skipped,NA,611904.09999996,NA,NA,611903.3,611904.19999999006,2024-06-16T09:08:16Z,611919.4,NULL,Vorwurf,mashtaka,d,NA,NA,NA,NA,qt,NA,3,NA,NA,NA,NA,NA,NA,NA,NA,NA,NA,NA,NA,NA,NA,NA,NA,NA,NA,NA
f432a,task,flow.Sequence,3_0_3_0_4,NA,NA,completion,13925.3,597963.09999996,597961.5,597978,611903.3,611904.30000001,2024-06-16T09:08:16Z,611919.4,NULL,Vorwurf,mashtaka,d,NA,NA,NA,NA,qt,NA,3,NA,NA,NA,NA,NA,NA,NA,NA,NA,NA,NA,NA,NA,NA,NA,NA,NA,NA,NA
f432a,deep,flow.Sequence,3_0_3_0_5_0,NA,NA,skipped,NA,611904.30000001,NA,NA,611903.3,611904.39999998,2024-06-16T09:08:16Z,611919.4,NULL,Tester,wanaojaribu,s,sherti,sihiri,mlipuko,NA,qt,NA,3,NA,NA,NA,NA,NA,NA,NA,NA,NA,NA,NA,NA,NA,NA,NA,NA,NA,NA,NA
f432a,Shallow Question,html.Page,3_0_3_0_5_1_0,NA,NA,form submission,4606.2999999881,611904.39999998,611903.3,611919.4,616525.69999999006,616525.89999998,2024-06-16T09:08:20Z,616533.4,NULL,Tester,wanaojaribu,s,sherti,sihiri,mlipuko,wanaojaribu,NA,NA,3,NA,NA,NA,NA,NA,NA,NA,NA,NA,NA,NA,NA,NA,NA,NA,NA,NA,NA,NA
f432a,"""Richtig""-Screen",canvas.Screen,3_0_3_0_5_1_1,NA,NA,timeout,4997.2999999999,616529.09999996,616517.226,616533.4,621513.7,621514.69999999006,2024-06-16T09:08:25Z,621530.7,NULL,Tester,wanaojaribu,s,sherti,sihiri,mlipuko,NA,qt,1,3,NA,NA,NA,NA,NA,NA,NA,NA,NA,NA,NA,NA,NA,NA,NA,NA,NA,NA,NA
f432a,"""Falsch""-Screen",canvas.Screen,3_0_3_0_5_1_2,NA,NA,skipped,NA,621520,NA,NA,621513.7,621520.09999996,2024-06-16T09:08:25Z,621530.7,NULL,Tester,wanaojaribu,s,sherti,sihiri,mlipuko,NA,qt,NA,3,NA,NA,NA,NA,NA,NA,NA,NA,NA,NA,NA,NA,NA,NA,NA,NA,NA,NA,NA
f432a,shallow,flow.Sequence,3_0_3_0_5_1,NA,NA,completion,9594.2999999999,611904.39999998,611903.3,611919.4,621513.7,621520.19999999006,2024-06-16T09:08:25Z,621530.7,NULL,Tester,wanaojaribu,s,sherti,sihiri,mlipuko,NA,qt,NA,3,NA,NA,NA,NA,NA,NA,NA,NA,NA,NA,NA,NA,NA,NA,NA,NA,NA,NA,NA
f432a,task,flow.Sequence,3_0_3_0_5,NA,NA,completion,9594.2999999999,611904.30000001,611903.3,611919.4,621513.7,621520.19999999006,2024-06-16T09:08:25Z,621530.7,NULL,Tester,wanaojaribu,s,sherti,sihiri,mlipuko,NA,qt,NA,3,NA,NA,NA,NA,NA,NA,NA,NA,NA,NA,NA,NA,NA,NA,NA,NA,NA,NA,NA
f432a,deep,flow.Sequence,3_0_3_0_6_0,NA,NA,skipped,NA,621520.30000001,NA,NA,621513.7,621520.30000001,2024-06-16T09:08:25Z,621530.7,NULL,Papier,karatasi,s,uchambuzi,usalama,kukataliwa,NA,qt,NA,3,NA,NA,NA,NA,NA,NA,NA,NA,NA,NA,NA,NA,NA,NA,NA,NA,NA,NA,NA
f432a,Shallow Question,html.Page,3_0_3_0_6_1_0,NA,NA,form submission,9622.9999999881,621520.30000001,621513.7,621530.7,631153.69999999006,631153.89999998,2024-06-16T09:08:35Z,631157.8,NULL,Papier,karatasi,s,uchambuzi,usalama,kukataliwa,karatasi,NA,NA,3,NA,NA,NA,NA,NA,NA,NA,NA,NA,NA,NA,NA,NA,NA,NA,NA,NA,NA,NA
f432a,"""Richtig""-Screen",canvas.Screen,3_0_3_0_6_1_1,NA,NA,timeout,4997.3999999999,631156.89999998,631141.754,631157.8,636138.2,636139.30000001,2024-06-16T09:08:40Z,636155.2,NULL,Papier,karatasi,s,uchambuzi,usalama,kukataliwa,NA,qt,1,3,NA,NA,NA,NA,NA,NA,NA,NA,NA,NA,NA,NA,NA,NA,NA,NA,NA,NA,NA
f432a,"""Falsch""-Screen",canvas.Screen,3_0_3_0_6_1_2,NA,NA,skipped,NA,636144.30000001,NA,NA,636138.2,636144.5,2024-06-16T09:08:40Z,636155.2,NULL,Papier,karatasi,s,uchambuzi,usalama,kukataliwa,NA,qt,NA,3,NA,NA,NA,NA,NA,NA,NA,NA,NA,NA,NA,NA,NA,NA,NA,NA,NA,NA,NA
f432a,shallow,flow.Sequence,3_0_3_0_6_1,NA,NA,completion,14607.5,621520.30000001,621513.7,621530.7,636138.2,636144.5,2024-06-16T09:08:40Z,636155.2,NULL,Papier,karatasi,s,uchambuzi,usalama,kukataliwa,NA,qt,NA,3,NA,NA,NA,NA,NA,NA,NA,NA,NA,NA,NA,NA,NA,NA,NA,NA,NA,NA,NA
f432a,task,flow.Sequence,3_0_3_0_6,NA,NA,completion,14607.5,621520.30000001,621513.7,621530.7,636138.2,636144.59999996,2024-06-16T09:08:40Z,636155.2,NULL,Papier,karatasi,s,uchambuzi,usalama,kukataliwa,NA,qt,NA,3,NA,NA,NA,NA,NA,NA,NA,NA,NA,NA,NA,NA,NA,NA,NA,NA,NA,NA,NA
f432a,Deep Question,html.Page,3_0_3_0_7_0_0,NA,NA,form submission,7379.4999999881,636144.59999996,636138.2,636155.2,643534.69999999006,643534.89999998,2024-06-16T09:08:47Z,643550.5,NULL,Spionage,upelelezi,d,NA,NA,NA,f,NA,NA,3,NA,NA,NA,NA,NA,NA,NA,NA,NA,NA,NA,NA,NA,NA,NA,NA,NA,NA,NA
f432a,"""Richtig""-Screen",canvas.Screen,3_0_3_0_7_0_1,NA,NA,skipped,NA,643537.89999998,NA,NA,643534.69999999006,643538,2024-06-16T09:08:47Z,643550.5,NULL,Spionage,upelelezi,d,NA,NA,NA,NA,qt,NA,3,NA,NA,NA,NA,NA,NA,NA,NA,NA,NA,NA,NA,NA,NA,NA,NA,NA,NA,NA
f432a,"""Falsch""-Screen",canvas.Screen,3_0_3_0_7_0_2,NA,NA,timeout,4996.7,643538.69999999006,643533.954,643550.5,648530.8,648531.80000000994,2024-06-16T09:08:52Z,648547.2,NULL,Spionage,upelelezi,d,NA,NA,NA,NA,qt,0,3,NA,NA,NA,NA,NA,NA,NA,NA,NA,NA,NA,NA,NA,NA,NA,NA,NA,NA,NA
f432a,deep,flow.Sequence,3_0_3_0_7_0,NA,NA,completion,12375.6,636144.59999996,636138.2,636155.2,648530.8,648532.19999999006,2024-06-16T09:08:52Z,648547.2,NULL,Spionage,upelelezi,d,NA,NA,NA,NA,qt,NA,3,NA,NA,NA,NA,NA,NA,NA,NA,NA,NA,NA,NA,NA,NA,NA,NA,NA,NA,NA
f432a,shallow,flow.Sequence,3_0_3_0_7_1,NA,NA,skipped,NA,648532.30000001,NA,NA,648530.8,648532.5,2024-06-16T09:08:52Z,648547.2,NULL,Spionage,upelelezi,d,NA,NA,NA,NA,qt,NA,3,NA,NA,NA,NA,NA,NA,NA,NA,NA,NA,NA,NA,NA,NA,NA,NA,NA,NA,NA
f432a,task,flow.Sequence,3_0_3_0_7,NA,NA,completion,12375.6,636144.59999996,636138.2,636155.2,648530.8,648532.59999996,2024-06-16T09:08:52Z,648547.2,NULL,Spionage,upelelezi,d,NA,NA,NA,NA,qt,NA,3,NA,NA,NA,NA,NA,NA,NA,NA,NA,NA,NA,NA,NA,NA,NA,NA,NA,NA,NA
f432a,block,flow.Loop,3_0_3_0,NA,NA,completion,109200.3,539329.89999998,539314.114,539330.5,648530.8,648532.80000001,2024-06-16T09:08:52Z,648547.2,NULL,NA,NA,NA,NA,NA,NA,NA,qt,NA,3,NA,NA,NA,NA,NA,NA,NA,NA,NA,NA,NA,NA,NA,NA,NA,NA,NA,NA,NA
f432a,weiter,canvas.Screen,3_0_3_1,sdf,keypress(Space),response,1373.4999999881,648533,648530.8,648547.2,649920.69999999006,649921.69999999006,2024-06-16T09:08:54Z,649929.916,NULL,NA,NA,NA,NA,NA,NA,NA,qt,NA,3,NA,NA,NA,NA,NA,NA,NA,NA,NA,NA,NA,NA,NA,NA,NA,NA,NA,NA,NA
f432a,check continue,flow.Sequence,3_0_3,NA,NA,completion,110590.19999999,539329.89999998,539314.114,539330.5,649920.69999999006,649922.09999996,2024-06-16T09:08:54Z,649929.916,NULL,NA,NA,NA,NA,NA,NA,NA,qt,NA,3,NA,NA,NA,NA,NA,NA,NA,NA,NA,NA,NA,NA,NA,NA,NA,NA,NA,NA,NA
f432a,deep,flow.Sequence,3_0_4_0_0_0,NA,NA,skipped,NA,649941.19999999006,NA,NA,649920.69999999006,649941.30000000994,2024-06-16T09:08:54Z,649929.916,NULL,Tester,wanaojaribu,s,sherti,sihiri,mlipuko,NA,sd,NA,4,NA,NA,NA,NA,NA,NA,NA,NA,NA,NA,NA,NA,NA,NA,NA,NA,NA,NA,NA
f432a,Shallow Question,html.Page,3_0_4_0_0_1_0,NA,NA,form submission,9225.6839999643,649941.39999998,649929.916,649929.916,659155.59999996,659155.89999998,2024-06-16T09:09:03Z,659158.014,NULL,Tester,wanaojaribu,s,sherti,sihiri,mlipuko,wanaojaribu,NA,NA,4,NA,NA,NA,NA,NA,NA,NA,NA,NA,NA,NA,NA,NA,NA,NA,NA,NA,NA,NA
f432a,"""Richtig""-Screen",canvas.Screen,3_0_4_0_0_1_1,NA,NA,timeout,4996.686,659159,659158.014,659158.014,664137.6,664138.5,2024-06-16T09:09:08Z,664154.7,NULL,Tester,wanaojaribu,s,sherti,sihiri,mlipuko,NA,sd,1,4,NA,NA,NA,NA,NA,NA,NA,NA,NA,NA,NA,NA,NA,NA,NA,NA,NA,NA,NA
f432a,"""Falsch""-Screen",canvas.Screen,3_0_4_0_0_1_2,NA,NA,skipped,NA,664143.59999996,NA,NA,664137.6,664143.69999999006,2024-06-16T09:09:08Z,664154.7,NULL,Tester,wanaojaribu,s,sherti,sihiri,mlipuko,NA,sd,NA,4,NA,NA,NA,NA,NA,NA,NA,NA,NA,NA,NA,NA,NA,NA,NA,NA,NA,NA,NA
f432a,shallow,flow.Sequence,3_0_4_0_0_1,NA,NA,completion,14207.684,649941.39999998,649929.916,649929.916,664137.6,664143.80000001,2024-06-16T09:09:08Z,664154.7,NULL,Tester,wanaojaribu,s,sherti,sihiri,mlipuko,NA,sd,NA,4,NA,NA,NA,NA,NA,NA,NA,NA,NA,NA,NA,NA,NA,NA,NA,NA,NA,NA,NA
f432a,task,flow.Sequence,3_0_4_0_0,NA,NA,completion,14207.684,649941.19999999006,649929.916,649929.916,664137.6,664143.80000001,2024-06-16T09:09:08Z,664154.7,NULL,Tester,wanaojaribu,s,sherti,sihiri,mlipuko,NA,sd,NA,4,NA,NA,NA,NA,NA,NA,NA,NA,NA,NA,NA,NA,NA,NA,NA,NA,NA,NA,NA
f432a,Deep Question,html.Page,3_0_4_0_1_0_0,NA,NA,form submission,13605.999999988,664143.89999998,664137.6,664154.7,677760.69999999006,677760.80000001,2024-06-16T09:09:22Z,677779.4,NULL,Fenster,dirisha,d,NA,NA,NA,dirisha,NA,NA,4,NA,NA,NA,NA,NA,NA,NA,NA,NA,NA,NA,NA,NA,NA,NA,NA,NA,NA,NA
f432a,"""Richtig""-Screen",canvas.Screen,3_0_4_0_1_0_1,NA,NA,timeout,4997.2,677763.80000000994,677763.064,677779.4,682759.7,682760.69999999006,2024-06-16T09:09:27Z,682776.6,NULL,Fenster,dirisha,d,NA,NA,NA,NA,sd,1,4,NA,NA,NA,NA,NA,NA,NA,NA,NA,NA,NA,NA,NA,NA,NA,NA,NA,NA,NA
f432a,"""Falsch""-Screen",canvas.Screen,3_0_4_0_1_0_2,NA,NA,skipped,NA,682765.39999998,NA,NA,682759.7,682765.5,2024-06-16T09:09:27Z,682776.6,NULL,Fenster,dirisha,d,NA,NA,NA,NA,sd,NA,4,NA,NA,NA,NA,NA,NA,NA,NA,NA,NA,NA,NA,NA,NA,NA,NA,NA,NA,NA
f432a,deep,flow.Sequence,3_0_4_0_1_0,NA,NA,completion,18605,664143.89999998,664137.6,664154.7,682759.7,682765.59999996,2024-06-16T09:09:27Z,682776.6,NULL,Fenster,dirisha,d,NA,NA,NA,NA,sd,NA,4,NA,NA,NA,NA,NA,NA,NA,NA,NA,NA,NA,NA,NA,NA,NA,NA,NA,NA,NA
f432a,shallow,flow.Sequence,3_0_4_0_1_1,NA,NA,skipped,NA,682765.59999996,NA,NA,682759.7,682765.59999996,2024-06-16T09:09:27Z,682776.6,NULL,Fenster,dirisha,d,NA,NA,NA,NA,sd,NA,4,NA,NA,NA,NA,NA,NA,NA,NA,NA,NA,NA,NA,NA,NA,NA,NA,NA,NA,NA
f432a,task,flow.Sequence,3_0_4_0_1,NA,NA,completion,18605,664143.89999998,664137.6,664154.7,682759.7,682765.69999999006,2024-06-16T09:09:27Z,682776.6,NULL,Fenster,dirisha,d,NA,NA,NA,NA,sd,NA,4,NA,NA,NA,NA,NA,NA,NA,NA,NA,NA,NA,NA,NA,NA,NA,NA,NA,NA,NA
f432a,deep,flow.Sequence,3_0_4_0_2_0,NA,NA,skipped,NA,682765.69999999006,NA,NA,682759.7,682765.80000000994,2024-06-16T09:09:27Z,682776.6,NULL,Papier,karatasi,s,uchambuzi,usalama,kukataliwa,NA,sd,NA,4,NA,NA,NA,NA,NA,NA,NA,NA,NA,NA,NA,NA,NA,NA,NA,NA,NA,NA,NA
f432a,Shallow Question,html.Page,3_0_4_0_2_1_0,NA,NA,form submission,6360.9,682765.80000000994,682759.7,682776.6,689137.5,689137.80000001,2024-06-16T09:09:33Z,689139.428,NULL,Papier,karatasi,s,uchambuzi,usalama,kukataliwa,uchambuzi,NA,NA,4,NA,NA,NA,NA,NA,NA,NA,NA,NA,NA,NA,NA,NA,NA,NA,NA,NA,NA,NA
f432a,"""Richtig""-Screen",canvas.Screen,3_0_4_0_2_1_1,NA,NA,skipped,NA,689140.69999999006,NA,NA,689137.5,689140.89999998,2024-06-16T09:09:33Z,689139.428,NULL,Papier,karatasi,s,uchambuzi,usalama,kukataliwa,NA,sd,NA,4,NA,NA,NA,NA,NA,NA,NA,NA,NA,NA,NA,NA,NA,NA,NA,NA,NA,NA,NA
f432a,"""Falsch""-Screen",canvas.Screen,3_0_4_0_2_1_2,NA,NA,timeout,4996.8720000001,689141.69999999006,689139.428,689139.428,694119.5,694122,2024-06-16T09:09:38Z,694136.3,NULL,Papier,karatasi,s,uchambuzi,usalama,kukataliwa,NA,sd,0,4,NA,NA,NA,NA,NA,NA,NA,NA,NA,NA,NA,NA,NA,NA,NA,NA,NA,NA,NA
f432a,shallow,flow.Sequence,3_0_4_0_2_1,NA,NA,completion,11342.9,682765.80000000994,682759.7,682776.6,694119.5,694122.19999999006,2024-06-16T09:09:38Z,694136.3,NULL,Papier,karatasi,s,uchambuzi,usalama,kukataliwa,NA,sd,NA,4,NA,NA,NA,NA,NA,NA,NA,NA,NA,NA,NA,NA,NA,NA,NA,NA,NA,NA,NA
f432a,task,flow.Sequence,3_0_4_0_2,NA,NA,completion,11342.9,682765.69999999006,682759.7,682776.6,694119.5,694122.30000001,2024-06-16T09:09:38Z,694136.3,NULL,Papier,karatasi,s,uchambuzi,usalama,kukataliwa,NA,sd,NA,4,NA,NA,NA,NA,NA,NA,NA,NA,NA,NA,NA,NA,NA,NA,NA,NA,NA,NA,NA
f432a,Deep Question,html.Page,3_0_4_0_3_0_0,NA,NA,form submission,10450.099999976,694122.39999998,694119.5,694136.3,704586.39999998,704586.69999999006,2024-06-16T09:09:48Z,704596.1,NULL,Spionage,upelelezi,d,NA,NA,NA,maendele,NA,NA,4,NA,NA,NA,NA,NA,NA,NA,NA,NA,NA,NA,NA,NA,NA,NA,NA,NA,NA,NA
f432a,"""Richtig""-Screen",canvas.Screen,3_0_4_0_3_0_1,NA,NA,skipped,NA,704590,NA,NA,704586.39999998,704590.19999999006,2024-06-16T09:09:48Z,704596.1,NULL,Spionage,upelelezi,d,NA,NA,NA,NA,sd,NA,4,NA,NA,NA,NA,NA,NA,NA,NA,NA,NA,NA,NA,NA,NA,NA,NA,NA,NA,NA
f432a,"""Falsch""-Screen",canvas.Screen,3_0_4_0_3_0_2,NA,NA,timeout,4997.2000000001,704590.89999998,704580.114,704596.1,709576.5,709577.59999996,2024-06-16T09:09:53Z,709593.3,NULL,Spionage,upelelezi,d,NA,NA,NA,NA,sd,0,4,NA,NA,NA,NA,NA,NA,NA,NA,NA,NA,NA,NA,NA,NA,NA,NA,NA,NA,NA
f432a,deep,flow.Sequence,3_0_4_0_3_0,NA,NA,completion,15440.2,694122.39999998,694119.5,694136.3,709576.5,709578,2024-06-16T09:09:53Z,709593.3,NULL,Spionage,upelelezi,d,NA,NA,NA,NA,sd,NA,4,NA,NA,NA,NA,NA,NA,NA,NA,NA,NA,NA,NA,NA,NA,NA,NA,NA,NA,NA
f432a,shallow,flow.Sequence,3_0_4_0_3_1,NA,NA,skipped,NA,709578.19999999006,NA,NA,709576.5,709578.30000000994,2024-06-16T09:09:53Z,709593.3,NULL,Spionage,upelelezi,d,NA,NA,NA,NA,sd,NA,4,NA,NA,NA,NA,NA,NA,NA,NA,NA,NA,NA,NA,NA,NA,NA,NA,NA,NA,NA
f432a,task,flow.Sequence,3_0_4_0_3,NA,NA,completion,15440.2,694122.30000001,694119.5,694136.3,709576.5,709578.59999996,2024-06-16T09:09:53Z,709593.3,NULL,Spionage,upelelezi,d,NA,NA,NA,NA,sd,NA,4,NA,NA,NA,NA,NA,NA,NA,NA,NA,NA,NA,NA,NA,NA,NA,NA,NA,NA,NA
f432a,Deep Question,html.Page,3_0_4_0_4_0_0,NA,NA,form submission,9102.899999988,709578.80000001,709576.5,709593.3,718696.19999999006,718696.39999998,2024-06-16T09:10:03Z,718704.3,NULL,Entwicklung,maendeleo,d,NA,NA,NA,maendele,NA,NA,4,NA,NA,NA,NA,NA,NA,NA,NA,NA,NA,NA,NA,NA,NA,NA,NA,NA,NA,NA
f432a,"""Richtig""-Screen",canvas.Screen,3_0_4_0_4_0_1,NA,NA,skipped,NA,718697.80000001,NA,NA,718696.19999999006,718697.89999998,2024-06-16T09:10:03Z,718704.3,NULL,Entwicklung,maendeleo,d,NA,NA,NA,NA,sd,NA,4,NA,NA,NA,NA,NA,NA,NA,NA,NA,NA,NA,NA,NA,NA,NA,NA,NA,NA,NA
f432a,"""Falsch""-Screen",canvas.Screen,3_0_4_0_4_0_2,NA,NA,timeout,4997.2,718698.30000001,718688.4,718704.3,723685,723686,2024-06-16T09:10:08Z,723701.5,NULL,Entwicklung,maendeleo,d,NA,NA,NA,NA,sd,0,4,NA,NA,NA,NA,NA,NA,NA,NA,NA,NA,NA,NA,NA,NA,NA,NA,NA,NA,NA
f432a,deep,flow.Sequence,3_0_4_0_4_0,NA,NA,completion,14091.7,709578.69999999006,709576.5,709593.3,723685,723686.30000001,2024-06-16T09:10:08Z,723701.5,NULL,Entwicklung,maendeleo,d,NA,NA,NA,NA,sd,NA,4,NA,NA,NA,NA,NA,NA,NA,NA,NA,NA,NA,NA,NA,NA,NA,NA,NA,NA,NA
f432a,shallow,flow.Sequence,3_0_4_0_4_1,NA,NA,skipped,NA,723686.39999998,NA,NA,723685,723686.59999996,2024-06-16T09:10:08Z,723701.5,NULL,Entwicklung,maendeleo,d,NA,NA,NA,NA,sd,NA,4,NA,NA,NA,NA,NA,NA,NA,NA,NA,NA,NA,NA,NA,NA,NA,NA,NA,NA,NA
f432a,task,flow.Sequence,3_0_4_0_4,NA,NA,completion,14091.7,709578.69999999006,709576.5,709593.3,723685,723686.80000000994,2024-06-16T09:10:08Z,723701.5,NULL,Entwicklung,maendeleo,d,NA,NA,NA,NA,sd,NA,4,NA,NA,NA,NA,NA,NA,NA,NA,NA,NA,NA,NA,NA,NA,NA,NA,NA,NA,NA
f432a,Deep Question,html.Page,3_0_4_0_5_0_0,NA,NA,form submission,8943.0999999642,723687,723685,723701.5,732644.59999996,732644.89999998,2024-06-16T09:10:16Z,732662.7,NULL,Vorwurf,mashtaka,d,NA,NA,NA,matahsi,NA,NA,4,NA,NA,NA,NA,NA,NA,NA,NA,NA,NA,NA,NA,NA,NA,NA,NA,NA,NA,NA
f432a,"""Richtig""-Screen",canvas.Screen,3_0_4_0_5_0_1,NA,NA,skipped,NA,732647.80000001,NA,NA,732644.59999996,732648,2024-06-16T09:10:16Z,732662.7,NULL,Vorwurf,mashtaka,d,NA,NA,NA,NA,sd,NA,4,NA,NA,NA,NA,NA,NA,NA,NA,NA,NA,NA,NA,NA,NA,NA,NA,NA,NA,NA
f432a,"""Falsch""-Screen",canvas.Screen,3_0_4_0_5_0_2,NA,NA,timeout,4996.8,732648.69999999006,732646.412,732662.7,737643.1,737644.19999999006,2024-06-16T09:10:21Z,737659.5,NULL,Vorwurf,mashtaka,d,NA,NA,NA,NA,sd,0,4,NA,NA,NA,NA,NA,NA,NA,NA,NA,NA,NA,NA,NA,NA,NA,NA,NA,NA,NA
f432a,deep,flow.Sequence,3_0_4_0_5_0,NA,NA,completion,13941.6,723686.89999998,723685,723701.5,737643.1,737644.5,2024-06-16T09:10:21Z,737659.5,NULL,Vorwurf,mashtaka,d,NA,NA,NA,NA,sd,NA,4,NA,NA,NA,NA,NA,NA,NA,NA,NA,NA,NA,NA,NA,NA,NA,NA,NA,NA,NA
f432a,shallow,flow.Sequence,3_0_4_0_5_1,NA,NA,skipped,NA,737644.59999996,NA,NA,737643.1,737644.80000000994,2024-06-16T09:10:21Z,737659.5,NULL,Vorwurf,mashtaka,d,NA,NA,NA,NA,sd,NA,4,NA,NA,NA,NA,NA,NA,NA,NA,NA,NA,NA,NA,NA,NA,NA,NA,NA,NA,NA
f432a,task,flow.Sequence,3_0_4_0_5,NA,NA,completion,13941.6,723686.80000000994,723685,723701.5,737643.1,737645,2024-06-16T09:10:21Z,737659.5,NULL,Vorwurf,mashtaka,d,NA,NA,NA,NA,sd,NA,4,NA,NA,NA,NA,NA,NA,NA,NA,NA,NA,NA,NA,NA,NA,NA,NA,NA,NA,NA
f432a,deep,flow.Sequence,3_0_4_0_6_0,NA,NA,skipped,NA,737645.19999999006,NA,NA,737643.1,737645.30000000994,2024-06-16T09:10:21Z,737659.5,NULL,Schüler,mwanafunzi,s,mwekezaji,matumizi,uaminifu,NA,sd,NA,4,NA,NA,NA,NA,NA,NA,NA,NA,NA,NA,NA,NA,NA,NA,NA,NA,NA,NA,NA
f432a,Shallow Question,html.Page,3_0_4_0_6_1_0,NA,NA,form submission,10265.800000012,737645.39999998,737643.1,737659.5,747925.30000001,747925.5,2024-06-16T09:10:32Z,747953.3,NULL,Schüler,mwanafunzi,s,mwekezaji,matumizi,uaminifu,uaminifu,NA,NA,4,NA,NA,NA,NA,NA,NA,NA,NA,NA,NA,NA,NA,NA,NA,NA,NA,NA,NA,NA
f432a,"""Richtig""-Screen",canvas.Screen,3_0_4_0_6_1_1,NA,NA,skipped,NA,747928.5,NA,NA,747925.30000001,747928.59999996,2024-06-16T09:10:32Z,747953.3,NULL,Schüler,mwanafunzi,s,mwekezaji,matumizi,uaminifu,NA,sd,NA,4,NA,NA,NA,NA,NA,NA,NA,NA,NA,NA,NA,NA,NA,NA,NA,NA,NA,NA,NA
f432a,"""Falsch""-Screen",canvas.Screen,3_0_4_0_6_1_2,NA,NA,timeout,4997.1,747929.30000001,747936.93,747953.3,752933.6,752934.59999996,2024-06-16T09:10:37Z,752950.4,NULL,Schüler,mwanafunzi,s,mwekezaji,matumizi,uaminifu,NA,sd,0,4,NA,NA,NA,NA,NA,NA,NA,NA,NA,NA,NA,NA,NA,NA,NA,NA,NA,NA,NA
f432a,shallow,flow.Sequence,3_0_4_0_6_1,NA,NA,completion,15274.1,737645.30000000994,737643.1,737659.5,752933.6,752935,2024-06-16T09:10:37Z,752950.4,NULL,Schüler,mwanafunzi,s,mwekezaji,matumizi,uaminifu,NA,sd,NA,4,NA,NA,NA,NA,NA,NA,NA,NA,NA,NA,NA,NA,NA,NA,NA,NA,NA,NA,NA
f432a,task,flow.Sequence,3_0_4_0_6,NA,NA,completion,15274.1,737645.09999996,737643.1,737659.5,752933.6,752935.19999999006,2024-06-16T09:10:37Z,752950.4,NULL,Schüler,mwanafunzi,s,mwekezaji,matumizi,uaminifu,NA,sd,NA,4,NA,NA,NA,NA,NA,NA,NA,NA,NA,NA,NA,NA,NA,NA,NA,NA,NA,NA,NA
f432a,deep,flow.Sequence,3_0_4_0_7_0,NA,NA,skipped,NA,752935.39999998,NA,NA,752933.6,752935.5,2024-06-16T09:10:37Z,752950.4,NULL,Niveau,kiwango,s,usimamizi,mwamali,mshairi,NA,sd,NA,4,NA,NA,NA,NA,NA,NA,NA,NA,NA,NA,NA,NA,NA,NA,NA,NA,NA,NA,NA
f432a,Shallow Question,html.Page,3_0_4_0_7_1_0,NA,NA,form submission,19533.999999976,752935.69999999006,752933.6,752950.4,772484.39999998,772484.69999999006,2024-06-16T09:10:56Z,772504.6,NULL,Niveau,kiwango,s,usimamizi,mwamali,mshairi,kiwango,NA,NA,4,NA,NA,NA,NA,NA,NA,NA,NA,NA,NA,NA,NA,NA,NA,NA,NA,NA,NA,NA
f432a,"""Richtig""-Screen",canvas.Screen,3_0_4_0_7_1_1,NA,NA,timeout,4997.3,772487.69999999006,772488.532,772504.6,777485.4,777486.5,2024-06-16T09:11:01Z,777501.9,NULL,Niveau,kiwango,s,usimamizi,mwamali,mshairi,NA,sd,1,4,NA,NA,NA,NA,NA,NA,NA,NA,NA,NA,NA,NA,NA,NA,NA,NA,NA,NA,NA
f432a,"""Falsch""-Screen",canvas.Screen,3_0_4_0_7_1_2,NA,NA,skipped,NA,777491.89999998,NA,NA,777485.4,777492,2024-06-16T09:11:01Z,777501.9,NULL,Niveau,kiwango,s,usimamizi,mwamali,mshairi,NA,sd,NA,4,NA,NA,NA,NA,NA,NA,NA,NA,NA,NA,NA,NA,NA,NA,NA,NA,NA,NA,NA
f432a,shallow,flow.Sequence,3_0_4_0_7_1,NA,NA,completion,24535,752935.59999996,752933.6,752950.4,777485.4,777492,2024-06-16T09:11:01Z,777501.9,NULL,Niveau,kiwango,s,usimamizi,mwamali,mshairi,NA,sd,NA,4,NA,NA,NA,NA,NA,NA,NA,NA,NA,NA,NA,NA,NA,NA,NA,NA,NA,NA,NA
f432a,task,flow.Sequence,3_0_4_0_7,NA,NA,completion,24535,752935.30000001,752933.6,752950.4,777485.4,777492.19999999006,2024-06-16T09:11:01Z,777501.9,NULL,Niveau,kiwango,s,usimamizi,mwamali,mshairi,NA,sd,NA,4,NA,NA,NA,NA,NA,NA,NA,NA,NA,NA,NA,NA,NA,NA,NA,NA,NA,NA,NA
f432a,block,flow.Loop,3_0_4_0,NA,NA,completion,127555.484,649941.19999999006,649929.916,649929.916,777485.4,777492.19999999006,2024-06-16T09:11:01Z,777501.9,NULL,NA,NA,NA,NA,NA,NA,NA,sd,NA,4,NA,NA,NA,NA,NA,NA,NA,NA,NA,NA,NA,NA,NA,NA,NA,NA,NA,NA,NA
f432a,weiter,canvas.Screen,3_0_4_1,sdf,keypress(Space),response,1323.2999999881,777492.19999999006,777485.4,777501.9,778825.19999999006,778826.19999999006,2024-06-16T09:11:03Z,779151.436,NULL,NA,NA,NA,NA,NA,NA,NA,sd,NA,4,NA,NA,NA,NA,NA,NA,NA,NA,NA,NA,NA,NA,NA,NA,NA,NA,NA,NA,NA
f432a,check continue,flow.Sequence,3_0_4,NA,NA,completion,128895.28399999,649941.19999999006,649929.916,649929.916,778825.19999999006,778826.39999998,2024-06-16T09:11:03Z,779151.436,NULL,NA,NA,NA,NA,NA,NA,NA,sd,NA,4,NA,NA,NA,NA,NA,NA,NA,NA,NA,NA,NA,NA,NA,NA,NA,NA,NA,NA,NA
f432a,check continue,flow.Sequence,3_0_5,NA,NA,skipped,NA,778870.59999996,NA,NA,778825.19999999006,778870.69999999006,2024-06-16T09:11:03Z,779151.436,NULL,NA,NA,NA,NA,NA,NA,NA,sdf,NA,5,NA,NA,NA,NA,NA,NA,NA,NA,NA,NA,NA,NA,NA,NA,NA,NA,NA,NA,NA
f432a,check continue,flow.Sequence,3_0_6,NA,NA,skipped,NA,778885.69999999006,NA,NA,778825.19999999006,778885.89999998,2024-06-16T09:11:03Z,779151.436,NULL,NA,NA,NA,NA,NA,NA,NA,dfs,NA,6,NA,NA,NA,NA,NA,NA,NA,NA,NA,NA,NA,NA,NA,NA,NA,NA,NA,NA,NA
f432a,check continue,flow.Sequence,3_0_7,NA,NA,skipped,NA,778900.19999999006,NA,NA,778825.19999999006,778900.19999999006,2024-06-16T09:11:03Z,779151.436,NULL,NA,NA,NA,NA,NA,NA,NA,df,NA,7,NA,NA,NA,NA,NA,NA,NA,NA,NA,NA,NA,NA,NA,NA,NA,NA,NA,NA,NA
f432a,check continue,flow.Sequence,3_0_8,NA,NA,skipped,NA,778914.19999999006,NA,NA,778825.19999999006,778914.30000000994,2024-06-16T09:11:03Z,779151.436,NULL,NA,NA,NA,NA,NA,NA,NA,dfs,NA,8,NA,NA,NA,NA,NA,NA,NA,NA,NA,NA,NA,NA,NA,NA,NA,NA,NA,NA,NA
f432a,check continue,flow.Sequence,3_0_9,NA,NA,skipped,NA,778927.09999996,NA,NA,778825.19999999006,778927.19999999006,2024-06-16T09:11:03Z,779151.436,NULL,NA,NA,NA,NA,NA,NA,NA,dsf,NA,9,NA,NA,NA,NA,NA,NA,NA,NA,NA,NA,NA,NA,NA,NA,NA,NA,NA,NA,NA
f432a,check continue,flow.Sequence,3_0_10,NA,NA,skipped,NA,778939,NA,NA,778825.19999999006,778939,2024-06-16T09:11:03Z,779151.436,NULL,NA,NA,NA,NA,NA,NA,NA,df,NA,10,NA,NA,NA,NA,NA,NA,NA,NA,NA,NA,NA,NA,NA,NA,NA,NA,NA,NA,NA
f432a,check continue,flow.Sequence,3_0_11,NA,NA,skipped,NA,778950.69999999006,NA,NA,778825.19999999006,778950.80000000994,2024-06-16T09:11:03Z,779151.436,NULL,NA,NA,NA,NA,NA,NA,NA,dfs,NA,11,NA,NA,NA,NA,NA,NA,NA,NA,NA,NA,NA,NA,NA,NA,NA,NA,NA,NA,NA
f432a,check continue,flow.Sequence,3_0_12,NA,NA,skipped,NA,778963.59999996,NA,NA,778825.19999999006,778963.69999999006,2024-06-16T09:11:03Z,779151.436,NULL,NA,NA,NA,NA,NA,NA,NA,dsf,NA,12,NA,NA,NA,NA,NA,NA,NA,NA,NA,NA,NA,NA,NA,NA,NA,NA,NA,NA,NA
f432a,check continue,flow.Sequence,3_0_13,NA,NA,skipped,NA,778976.30000001,NA,NA,778825.19999999006,778976.39999998,2024-06-16T09:11:03Z,779151.436,NULL,NA,NA,NA,NA,NA,NA,NA,dsf,NA,13,NA,NA,NA,NA,NA,NA,NA,NA,NA,NA,NA,NA,NA,NA,NA,NA,NA,NA,NA
f432a,check continue,flow.Sequence,3_0_14,NA,NA,skipped,NA,778988.30000001,NA,NA,778825.19999999006,778988.39999998,2024-06-16T09:11:03Z,779151.436,NULL,NA,NA,NA,NA,NA,NA,NA,NA,NA,14,NA,NA,NA,NA,NA,NA,NA,NA,NA,NA,NA,NA,NA,NA,NA,NA,NA,NA,NA
f432a,check continue,flow.Sequence,3_0_15,NA,NA,skipped,NA,778999.5,NA,NA,778825.19999999006,778999.59999996,2024-06-16T09:11:03Z,779151.436,NULL,NA,NA,NA,NA,NA,NA,NA,NA,NA,15,NA,NA,NA,NA,NA,NA,NA,NA,NA,NA,NA,NA,NA,NA,NA,NA,NA,NA,NA
f432a,check continue,flow.Sequence,3_0_16,NA,NA,skipped,NA,779010.89999998,NA,NA,778825.19999999006,779010.89999998,2024-06-16T09:11:03Z,779151.436,NULL,NA,NA,NA,NA,NA,NA,NA,NA,NA,16,NA,NA,NA,NA,NA,NA,NA,NA,NA,NA,NA,NA,NA,NA,NA,NA,NA,NA,NA
f432a,check continue,flow.Sequence,3_0_17,NA,NA,skipped,NA,779022.69999999006,NA,NA,778825.19999999006,779022.69999999006,2024-06-16T09:11:03Z,779151.436,NULL,NA,NA,NA,NA,NA,NA,NA,NA,NA,17,NA,NA,NA,NA,NA,NA,NA,NA,NA,NA,NA,NA,NA,NA,NA,NA,NA,NA,NA
f432a,check continue,flow.Sequence,3_0_18,NA,NA,skipped,NA,779033.89999998,NA,NA,778825.19999999006,779034,2024-06-16T09:11:03Z,779151.436,NULL,NA,NA,NA,NA,NA,NA,NA,NA,NA,18,NA,NA,NA,NA,NA,NA,NA,NA,NA,NA,NA,NA,NA,NA,NA,NA,NA,NA,NA
f432a,check continue,flow.Sequence,3_0_19,NA,NA,skipped,NA,779044.19999999006,NA,NA,778825.19999999006,779044.19999999006,2024-06-16T09:11:03Z,779151.436,NULL,NA,NA,NA,NA,NA,NA,NA,NA,NA,19,NA,NA,NA,NA,NA,NA,NA,NA,NA,NA,NA,NA,NA,NA,NA,NA,NA,NA,NA
f432a,check continue,flow.Sequence,3_0_20,NA,NA,skipped,NA,779056.59999996,NA,NA,778825.19999999006,779056.59999996,2024-06-16T09:11:03Z,779151.436,NULL,NA,NA,NA,NA,NA,NA,NA,NA,NA,20,NA,NA,NA,NA,NA,NA,NA,NA,NA,NA,NA,NA,NA,NA,NA,NA,NA,NA,NA
f432a,check continue,flow.Sequence,3_0_21,NA,NA,skipped,NA,779068.59999996,NA,NA,778825.19999999006,779068.69999999006,2024-06-16T09:11:03Z,779151.436,NULL,NA,NA,NA,NA,NA,NA,NA,NA,NA,21,NA,NA,NA,NA,NA,NA,NA,NA,NA,NA,NA,NA,NA,NA,NA,NA,NA,NA,NA
f432a,check continue,flow.Sequence,3_0_22,NA,NA,skipped,NA,779082.39999998,NA,NA,778825.19999999006,779082.39999998,2024-06-16T09:11:03Z,779151.436,NULL,NA,NA,NA,NA,NA,NA,NA,NA,NA,22,NA,NA,NA,NA,NA,NA,NA,NA,NA,NA,NA,NA,NA,NA,NA,NA,NA,NA,NA
f432a,check continue,flow.Sequence,3_0_23,NA,NA,skipped,NA,779094.89999998,NA,NA,778825.19999999006,779095,2024-06-16T09:11:03Z,779151.436,NULL,NA,NA,NA,NA,NA,NA,NA,NA,NA,23,NA,NA,NA,NA,NA,NA,NA,NA,NA,NA,NA,NA,NA,NA,NA,NA,NA,NA,NA
f432a,check continue,flow.Sequence,3_0_24,NA,NA,skipped,NA,779106,NA,NA,778825.19999999006,779106,2024-06-16T09:11:03Z,779151.436,NULL,NA,NA,NA,NA,NA,NA,NA,NA,NA,24,NA,NA,NA,NA,NA,NA,NA,NA,NA,NA,NA,NA,NA,NA,NA,NA,NA,NA,NA
f432a,check continue,flow.Sequence,3_0_25,NA,NA,skipped,NA,779118.19999999006,NA,NA,778825.19999999006,779118.30000001,2024-06-16T09:11:03Z,779151.436,NULL,NA,NA,NA,NA,NA,NA,NA,NA,NA,25,NA,NA,NA,NA,NA,NA,NA,NA,NA,NA,NA,NA,NA,NA,NA,NA,NA,NA,NA
f432a,check continue,flow.Sequence,3_0_26,NA,NA,skipped,NA,779129,NA,NA,778825.19999999006,779129,2024-06-16T09:11:03Z,779151.436,NULL,NA,NA,NA,NA,NA,NA,NA,NA,NA,26,NA,NA,NA,NA,NA,NA,NA,NA,NA,NA,NA,NA,NA,NA,NA,NA,NA,NA,NA
f432a,check continue,flow.Sequence,3_0_27,NA,NA,skipped,NA,779140.39999998,NA,NA,778825.19999999006,779140.5,2024-06-16T09:11:03Z,779151.436,NULL,NA,NA,NA,NA,NA,NA,NA,NA,NA,27,NA,NA,NA,NA,NA,NA,NA,NA,NA,NA,NA,NA,NA,NA,NA,NA,NA,NA,NA
f432a,check continue,flow.Sequence,3_0_28,NA,NA,skipped,NA,779151.5,NA,NA,778825.19999999006,779151.5,2024-06-16T09:11:03Z,779151.436,NULL,NA,NA,NA,NA,NA,NA,NA,NA,NA,28,NA,NA,NA,NA,NA,NA,NA,NA,NA,NA,NA,NA,NA,NA,NA,NA,NA,NA,NA
f432a,check continue,flow.Sequence,3_0_29,NA,NA,skipped,NA,779163.5,NA,NA,778825.19999999006,779163.59999996,2024-06-16T09:11:03Z,779151.436,NULL,NA,NA,NA,NA,NA,NA,NA,NA,NA,29,NA,NA,NA,NA,NA,NA,NA,NA,NA,NA,NA,NA,NA,NA,NA,NA,NA,NA,NA
f432a,until continue,flow.Loop,3_0,NA,NA,completion,607749.04199999,171069.89999998,171076.158,171076.158,778825.19999999006,779163.69999999006,2024-06-16T09:11:03Z,779151.436,NULL,NA,NA,NA,NA,NA,NA,NA,NA,NA,NA,NA,NA,NA,NA,NA,NA,NA,NA,NA,NA,NA,NA,NA,NA,NA,NA,NA,NA,NA
f432a,block 1,flow.Sequence,3,NA,NA,completion,607749.04199999,171069.89999998,171076.158,171076.158,778825.19999999006,779163.80000000994,2024-06-16T09:11:03Z,779151.436,NULL,NA,NA,NA,NA,NA,NA,NA,NA,NA,NA,NA,NA,NA,NA,NA,NA,NA,NA,NA,NA,NA,NA,NA,NA,NA,NA,NA,NA,NA
f432a,1.Part Over,canvas.Screen,4,NA,keypress(Space),response,2639.6639999643,779163.80000000994,779151.436,779151.436,781791.09999996,781792.19999999006,2024-06-16T09:11:06Z,781849.1,NULL,NA,NA,NA,NA,NA,NA,NA,NA,NA,NA,NA,NA,NA,NA,NA,NA,NA,NA,NA,NA,NA,NA,NA,NA,NA,NA,NA,NA,NA
f432a,Deep Question,html.Page,5_0_0_0_0_0_0,NA,NA,form submission,13933.4,781832.39999998,781832.644,781849.1,795782.5,795782.69999999006,2024-06-16T09:11:20Z,795790.3,NULL,Begegnung,kukutana,d,NA,NA,NA,mashtaka,NA,NA,0,NA,NA,NA,NA,NA,NA,NA,NA,NA,NA,NA,NA,NA,NA,NA,NA,NA,NA,NA
f432a,"""Richtig""-Screen",canvas.Screen,5_0_0_0_0_0_1,NA,NA,skipped,NA,795786.30000001,NA,NA,795782.5,795786.39999998,2024-06-16T09:11:20Z,795790.3,NULL,Begegnung,kukutana,d,NA,NA,NA,NA,sdf,NA,0,NA,NA,NA,NA,NA,NA,NA,NA,NA,NA,NA,NA,NA,NA,NA,NA,NA,NA,NA
f432a,"""Falsch""-Screen",canvas.Screen,5_0_0_0_0_0_2,NA,NA,timeout,4997,795787,795774.3,795790.3,800770.7,800771.59999996,2024-06-16T09:11:25Z,800787.3,NULL,Begegnung,kukutana,d,NA,NA,NA,NA,sdf,0,0,NA,NA,NA,NA,NA,NA,NA,NA,NA,NA,NA,NA,NA,NA,NA,NA,NA,NA,NA
f432a,deep,flow.Sequence,5_0_0_0_0_0,NA,NA,completion,18921.6,781832.39999998,781832.644,781849.1,800770.7,800772.19999999006,2024-06-16T09:11:25Z,800787.3,NULL,Begegnung,kukutana,d,NA,NA,NA,NA,sdf,NA,0,NA,NA,NA,NA,NA,NA,NA,NA,NA,NA,NA,NA,NA,NA,NA,NA,NA,NA,NA
f432a,shallow,flow.Sequence,5_0_0_0_0_1,NA,NA,skipped,NA,800772.39999998,NA,NA,800770.7,800772.5,2024-06-16T09:11:25Z,800787.3,NULL,Begegnung,kukutana,d,NA,NA,NA,NA,sdf,NA,0,NA,NA,NA,NA,NA,NA,NA,NA,NA,NA,NA,NA,NA,NA,NA,NA,NA,NA,NA
f432a,task,flow.Sequence,5_0_0_0_0,NA,NA,completion,18921.6,781832.39999998,781832.644,781849.1,800770.7,800772.80000001,2024-06-16T09:11:25Z,800787.3,NULL,Begegnung,kukutana,d,NA,NA,NA,NA,sdf,NA,0,NA,NA,NA,NA,NA,NA,NA,NA,NA,NA,NA,NA,NA,NA,NA,NA,NA,NA,NA
f432a,Deep Question,html.Page,5_0_0_0_1_0_0,NA,NA,form submission,4749.399999988,800773,800770.7,800787.3,805536.69999999006,805536.89999998,2024-06-16T09:11:29Z,805551.7,NULL,Schlange,foleni,d,NA,NA,NA,dg,NA,NA,0,NA,NA,NA,NA,NA,NA,NA,NA,NA,NA,NA,NA,NA,NA,NA,NA,NA,NA,NA
f432a,"""Richtig""-Screen",canvas.Screen,5_0_0_0_1_0_1,NA,NA,skipped,NA,805538.30000001,NA,NA,805536.69999999006,805538.39999998,2024-06-16T09:11:29Z,805551.7,NULL,Schlange,foleni,d,NA,NA,NA,NA,sdf,NA,0,NA,NA,NA,NA,NA,NA,NA,NA,NA,NA,NA,NA,NA,NA,NA,NA,NA,NA,NA
f432a,"""Falsch""-Screen",canvas.Screen,5_0_0_0_1_0_2,NA,NA,timeout,4996.8,805538.69999999006,805534.96,805551.7,810531.7,810532.69999999006,2024-06-16T09:11:34Z,810548.5,NULL,Schlange,foleni,d,NA,NA,NA,NA,sdf,0,0,NA,NA,NA,NA,NA,NA,NA,NA,NA,NA,NA,NA,NA,NA,NA,NA,NA,NA,NA
f432a,deep,flow.Sequence,5_0_0_0_1_0,NA,NA,completion,9744.3999999999,800772.89999998,800770.7,800787.3,810531.7,810533.19999999006,2024-06-16T09:11:34Z,810548.5,NULL,Schlange,foleni,d,NA,NA,NA,NA,sdf,NA,0,NA,NA,NA,NA,NA,NA,NA,NA,NA,NA,NA,NA,NA,NA,NA,NA,NA,NA,NA
f432a,shallow,flow.Sequence,5_0_0_0_1_1,NA,NA,skipped,NA,810533.30000001,NA,NA,810531.7,810533.5,2024-06-16T09:11:34Z,810548.5,NULL,Schlange,foleni,d,NA,NA,NA,NA,sdf,NA,0,NA,NA,NA,NA,NA,NA,NA,NA,NA,NA,NA,NA,NA,NA,NA,NA,NA,NA,NA
f432a,task,flow.Sequence,5_0_0_0_1,NA,NA,completion,9744.3999999999,800772.89999998,800770.7,800787.3,810531.7,810533.69999999006,2024-06-16T09:11:34Z,810548.5,NULL,Schlange,foleni,d,NA,NA,NA,NA,sdf,NA,0,NA,NA,NA,NA,NA,NA,NA,NA,NA,NA,NA,NA,NA,NA,NA,NA,NA,NA,NA
f432a,deep,flow.Sequence,5_0_0_0_2_0,NA,NA,skipped,NA,810533.80000001,NA,NA,810531.7,810533.89999998,2024-06-16T09:11:34Z,810548.5,NULL,Integrität,uadilifu,s,muungano,mtiririko,upunguaji,NA,sdf,NA,0,NA,NA,NA,NA,NA,NA,NA,NA,NA,NA,NA,NA,NA,NA,NA,NA,NA,NA,NA
f432a,Shallow Question,html.Page,5_0_0_0_2_1_0,NA,NA,form submission,10969,810534,810531.7,810548.5,821517.5,821517.80000001,2024-06-16T09:11:45Z,821524.6,NULL,Integrität,uadilifu,s,muungano,mtiririko,upunguaji,muungano,NA,NA,0,NA,NA,NA,NA,NA,NA,NA,NA,NA,NA,NA,NA,NA,NA,NA,NA,NA,NA,NA
f432a,"""Richtig""-Screen",canvas.Screen,5_0_0_0_2_1_1,NA,NA,skipped,NA,821520.89999998,NA,NA,821517.5,821521,2024-06-16T09:11:45Z,821524.6,NULL,Integrität,uadilifu,s,muungano,mtiririko,upunguaji,NA,sdf,NA,0,NA,NA,NA,NA,NA,NA,NA,NA,NA,NA,NA,NA,NA,NA,NA,NA,NA,NA,NA
f432a,"""Falsch""-Screen",canvas.Screen,5_0_0_0_2_1_2,NA,NA,timeout,4997.5,821521.80000001,821508.814,821524.6,826505.4,826506.69999999006,2024-06-16T09:11:50Z,826522.1,NULL,Integrität,uadilifu,s,muungano,mtiririko,upunguaji,NA,sdf,0,0,NA,NA,NA,NA,NA,NA,NA,NA,NA,NA,NA,NA,NA,NA,NA,NA,NA,NA,NA
f432a,shallow,flow.Sequence,5_0_0_0_2_1,NA,NA,completion,15956.9,810534,810531.7,810548.5,826505.4,826507.09999996,2024-06-16T09:11:50Z,826522.1,NULL,Integrität,uadilifu,s,muungano,mtiririko,upunguaji,NA,sdf,NA,0,NA,NA,NA,NA,NA,NA,NA,NA,NA,NA,NA,NA,NA,NA,NA,NA,NA,NA,NA
f432a,task,flow.Sequence,5_0_0_0_2,NA,NA,completion,15956.9,810533.80000001,810531.7,810548.5,826505.4,826507.39999998,2024-06-16T09:11:50Z,826522.1,NULL,Integrität,uadilifu,s,muungano,mtiririko,upunguaji,NA,sdf,NA,0,NA,NA,NA,NA,NA,NA,NA,NA,NA,NA,NA,NA,NA,NA,NA,NA,NA,NA,NA
f432a,Deep Question,html.Page,5_0_0_0_3_0_0,NA,NA,form submission,4184.4,826507.59999996,826505.4,826522.1,830706.5,830706.80000000994,2024-06-16T09:11:55Z,830719,NULL,Genehmigung,idhini,d,NA,NA,NA,d,NA,NA,0,NA,NA,NA,NA,NA,NA,NA,NA,NA,NA,NA,NA,NA,NA,NA,NA,NA,NA,NA
f432a,"""Richtig""-Screen",canvas.Screen,5_0_0_0_3_0_1,NA,NA,skipped,NA,830710,NA,NA,830706.5,830710.09999996,2024-06-16T09:11:55Z,830719,NULL,Genehmigung,idhini,d,NA,NA,NA,NA,sdf,NA,0,NA,NA,NA,NA,NA,NA,NA,NA,NA,NA,NA,NA,NA,NA,NA,NA,NA,NA,NA
f432a,"""Falsch""-Screen",canvas.Screen,5_0_0_0_3_0_2,NA,NA,timeout,4997,830710.80000001,830702.994,830719,835699.3,835699.80000000994,2024-06-16T09:12:00Z,835716,NULL,Genehmigung,idhini,d,NA,NA,NA,NA,sdf,0,0,NA,NA,NA,NA,NA,NA,NA,NA,NA,NA,NA,NA,NA,NA,NA,NA,NA,NA,NA
f432a,deep,flow.Sequence,5_0_0_0_3_0,NA,NA,completion,9177.2000000001,826507.59999996,826505.4,826522.1,835699.3,835699.89999998,2024-06-16T09:12:00Z,835716,NULL,Genehmigung,idhini,d,NA,NA,NA,NA,sdf,NA,0,NA,NA,NA,NA,NA,NA,NA,NA,NA,NA,NA,NA,NA,NA,NA,NA,NA,NA,NA
f432a,shallow,flow.Sequence,5_0_0_0_3_1,NA,NA,skipped,NA,835700,NA,NA,835699.3,835700,2024-06-16T09:12:00Z,835716,NULL,Genehmigung,idhini,d,NA,NA,NA,NA,sdf,NA,0,NA,NA,NA,NA,NA,NA,NA,NA,NA,NA,NA,NA,NA,NA,NA,NA,NA,NA,NA
f432a,task,flow.Sequence,5_0_0_0_3,NA,NA,completion,9177.2000000001,826507.5,826505.4,826522.1,835699.3,835700,2024-06-16T09:12:00Z,835716,NULL,Genehmigung,idhini,d,NA,NA,NA,NA,sdf,NA,0,NA,NA,NA,NA,NA,NA,NA,NA,NA,NA,NA,NA,NA,NA,NA,NA,NA,NA,NA
f432a,deep,flow.Sequence,5_0_0_0_4_0,NA,NA,skipped,NA,835700,NA,NA,835699.3,835700.09999996,2024-06-16T09:12:00Z,835716,NULL,Vermutung,udhanifu,s,haramia,tikisho,itifaki,NA,sdf,NA,0,NA,NA,NA,NA,NA,NA,NA,NA,NA,NA,NA,NA,NA,NA,NA,NA,NA,NA,NA
f432a,Shallow Question,html.Page,5_0_0_0_4_1_0,NA,NA,form submission,8045.3999999762,835700.09999996,835699.3,835716,843761.39999998,843761.59999996,2024-06-16T09:12:08Z,843778.1,NULL,Vermutung,udhanifu,s,haramia,tikisho,itifaki,itifaki,NA,NA,0,NA,NA,NA,NA,NA,NA,NA,NA,NA,NA,NA,NA,NA,NA,NA,NA,NA,NA,NA
f432a,"""Richtig""-Screen",canvas.Screen,5_0_0_0_4_1_1,NA,NA,skipped,NA,843764.80000001,NA,NA,843761.39999998,843764.89999998,2024-06-16T09:12:08Z,843778.1,NULL,Vermutung,udhanifu,s,haramia,tikisho,itifaki,NA,sdf,NA,0,NA,NA,NA,NA,NA,NA,NA,NA,NA,NA,NA,NA,NA,NA,NA,NA,NA,NA,NA
f432a,"""Falsch""-Screen",canvas.Screen,5_0_0_0_4_1_2,NA,NA,timeout,4997,843765.5,843761.848,843778.1,848758.3,848759.39999998,2024-06-16T09:12:13Z,848775.1,NULL,Vermutung,udhanifu,s,haramia,tikisho,itifaki,NA,sdf,0,0,NA,NA,NA,NA,NA,NA,NA,NA,NA,NA,NA,NA,NA,NA,NA,NA,NA,NA,NA
f432a,shallow,flow.Sequence,5_0_0_0_4_1,NA,NA,completion,13042.3,835700.09999996,835699.3,835716,848758.3,848759.80000001,2024-06-16T09:12:13Z,848775.1,NULL,Vermutung,udhanifu,s,haramia,tikisho,itifaki,NA,sdf,NA,0,NA,NA,NA,NA,NA,NA,NA,NA,NA,NA,NA,NA,NA,NA,NA,NA,NA,NA,NA
f432a,task,flow.Sequence,5_0_0_0_4,NA,NA,completion,13042.3,835700,835699.3,835716,848758.3,848760,2024-06-16T09:12:13Z,848775.1,NULL,Vermutung,udhanifu,s,haramia,tikisho,itifaki,NA,sdf,NA,0,NA,NA,NA,NA,NA,NA,NA,NA,NA,NA,NA,NA,NA,NA,NA,NA,NA,NA,NA
f432a,Deep Question,html.Page,5_0_0_0_5_0_0,NA,NA,form submission,4299.7999999762,848760.19999999006,848758.3,848775.1,853074.89999998,853075.19999999006,2024-06-16T09:12:17Z,853105.3,NULL,Toleranz,kuvumiliana,d,NA,NA,NA,d,NA,NA,0,NA,NA,NA,NA,NA,NA,NA,NA,NA,NA,NA,NA,NA,NA,NA,NA,NA,NA,NA
f432a,"""Richtig""-Screen",canvas.Screen,5_0_0_0_5_0_1,NA,NA,skipped,NA,853078.39999998,NA,NA,853074.89999998,853078.5,2024-06-16T09:12:17Z,853105.3,NULL,Toleranz,kuvumiliana,d,NA,NA,NA,NA,sdf,NA,0,NA,NA,NA,NA,NA,NA,NA,NA,NA,NA,NA,NA,NA,NA,NA,NA,NA,NA,NA
f432a,"""Falsch""-Screen",canvas.Screen,5_0_0_0_5_0_2,NA,NA,timeout,4997.6,853079.5,853089.328,853105.3,858085.9,858087,2024-06-16T09:12:22Z,858102.9,NULL,Toleranz,kuvumiliana,d,NA,NA,NA,NA,sdf,0,0,NA,NA,NA,NA,NA,NA,NA,NA,NA,NA,NA,NA,NA,NA,NA,NA,NA,NA,NA
f432a,deep,flow.Sequence,5_0_0_0_5_0,NA,NA,completion,9310.8,848760.09999996,848758.3,848775.1,858085.9,858087.59999996,2024-06-16T09:12:22Z,858102.9,NULL,Toleranz,kuvumiliana,d,NA,NA,NA,NA,sdf,NA,0,NA,NA,NA,NA,NA,NA,NA,NA,NA,NA,NA,NA,NA,NA,NA,NA,NA,NA,NA
f432a,shallow,flow.Sequence,5_0_0_0_5_1,NA,NA,skipped,NA,858087.80000001,NA,NA,858085.9,858087.80000001,2024-06-16T09:12:22Z,858102.9,NULL,Toleranz,kuvumiliana,d,NA,NA,NA,NA,sdf,NA,0,NA,NA,NA,NA,NA,NA,NA,NA,NA,NA,NA,NA,NA,NA,NA,NA,NA,NA,NA
f432a,task,flow.Sequence,5_0_0_0_5,NA,NA,completion,9310.8,848760.09999996,848758.3,848775.1,858085.9,858088,2024-06-16T09:12:22Z,858102.9,NULL,Toleranz,kuvumiliana,d,NA,NA,NA,NA,sdf,NA,0,NA,NA,NA,NA,NA,NA,NA,NA,NA,NA,NA,NA,NA,NA,NA,NA,NA,NA,NA
f432a,deep,flow.Sequence,5_0_0_0_6_0,NA,NA,skipped,NA,858088.30000000994,NA,NA,858085.9,858088.30000000994,2024-06-16T09:12:22Z,858102.9,NULL,Inhalt,yaliyomo,s,kishawishi,hifadhi,kutembea,NA,sdf,NA,0,NA,NA,NA,NA,NA,NA,NA,NA,NA,NA,NA,NA,NA,NA,NA,NA,NA,NA,NA
f432a,Shallow Question,html.Page,5_0_0_0_6_1_0,NA,NA,form submission,9852.4000000119,858088.39999998,858085.9,858102.9,867955.30000000994,867955.59999996,2024-06-16T09:12:32Z,867962.9,NULL,Inhalt,yaliyomo,s,kishawishi,hifadhi,kutembea,kishawishi,NA,NA,0,NA,NA,NA,NA,NA,NA,NA,NA,NA,NA,NA,NA,NA,NA,NA,NA,NA,NA,NA
f432a,"""Richtig""-Screen",canvas.Screen,5_0_0_0_6_1_1,NA,NA,skipped,NA,867958.69999999006,NA,NA,867955.30000000994,867958.80000001,2024-06-16T09:12:32Z,867962.9,NULL,Inhalt,yaliyomo,s,kishawishi,hifadhi,kutembea,NA,sdf,NA,0,NA,NA,NA,NA,NA,NA,NA,NA,NA,NA,NA,NA,NA,NA,NA,NA,NA,NA,NA
f432a,"""Falsch""-Screen",canvas.Screen,5_0_0_0_6_1_2,NA,NA,timeout,4997.4,867959.59999996,867946.858,867962.9,872943.6,872944.80000001,2024-06-16T09:12:37Z,872960.3,NULL,Inhalt,yaliyomo,s,kishawishi,hifadhi,kutembea,NA,sdf,0,0,NA,NA,NA,NA,NA,NA,NA,NA,NA,NA,NA,NA,NA,NA,NA,NA,NA,NA,NA
f432a,shallow,flow.Sequence,5_0_0_0_6_1,NA,NA,completion,14840.7,858088.39999998,858085.9,858102.9,872943.6,872945.19999999006,2024-06-16T09:12:37Z,872960.3,NULL,Inhalt,yaliyomo,s,kishawishi,hifadhi,kutembea,NA,sdf,NA,0,NA,NA,NA,NA,NA,NA,NA,NA,NA,NA,NA,NA,NA,NA,NA,NA,NA,NA,NA
f432a,task,flow.Sequence,5_0_0_0_6,NA,NA,completion,14840.7,858088.19999999006,858085.9,858102.9,872943.6,872945.5,2024-06-16T09:12:37Z,872960.3,NULL,Inhalt,yaliyomo,s,kishawishi,hifadhi,kutembea,NA,sdf,NA,0,NA,NA,NA,NA,NA,NA,NA,NA,NA,NA,NA,NA,NA,NA,NA,NA,NA,NA,NA
f432a,deep,flow.Sequence,5_0_0_0_7_0,NA,NA,skipped,NA,872945.69999999006,NA,NA,872943.6,872945.69999999006,2024-06-16T09:12:37Z,872960.3,NULL,Fleisch,mshakiki,s,kizunguzungu,mshikamano,angusho,NA,sdf,NA,0,NA,NA,NA,NA,NA,NA,NA,NA,NA,NA,NA,NA,NA,NA,NA,NA,NA,NA,NA
f432a,Shallow Question,html.Page,5_0_0_0_7_1_0,NA,NA,form submission,7379.0999999761,872945.89999998,872943.6,872960.3,880339.39999998,880339.5,2024-06-16T09:12:44Z,880355.8,NULL,Fleisch,mshakiki,s,kizunguzungu,mshikamano,angusho,mshakiki,NA,NA,0,NA,NA,NA,NA,NA,NA,NA,NA,NA,NA,NA,NA,NA,NA,NA,NA,NA,NA,NA
f432a,"""Richtig""-Screen",canvas.Screen,5_0_0_0_7_1_1,NA,NA,timeout,4997.1,880342.69999999006,880339.194,880355.8,885336.2,885337.09999996,2024-06-16T09:12:49Z,885352.9,NULL,Fleisch,mshakiki,s,kizunguzungu,mshikamano,angusho,NA,sdf,1,0,NA,NA,NA,NA,NA,NA,NA,NA,NA,NA,NA,NA,NA,NA,NA,NA,NA,NA,NA
f432a,"""Falsch""-Screen",canvas.Screen,5_0_0_0_7_1_2,NA,NA,skipped,NA,885342.09999996,NA,NA,885336.2,885342.30000001,2024-06-16T09:12:49Z,885352.9,NULL,Fleisch,mshakiki,s,kizunguzungu,mshikamano,angusho,NA,sdf,NA,0,NA,NA,NA,NA,NA,NA,NA,NA,NA,NA,NA,NA,NA,NA,NA,NA,NA,NA,NA
f432a,shallow,flow.Sequence,5_0_0_0_7_1,NA,NA,completion,12375.9,872945.89999998,872943.6,872960.3,885336.2,885342.59999996,2024-06-16T09:12:49Z,885352.9,NULL,Fleisch,mshakiki,s,kizunguzungu,mshikamano,angusho,NA,sdf,NA,0,NA,NA,NA,NA,NA,NA,NA,NA,NA,NA,NA,NA,NA,NA,NA,NA,NA,NA,NA
