observation,sender,sender_type,sender_id,response,response_action,ended_on,duration,time_run,time_render,time_show,time_end,time_commit,timestamp,time_switch,german,swahili,enc,distractor1,distractor2,distractor3,response_2,x,correct,distractors,url_vp,url_sess,meta_labjs_version,meta_location,meta_user_agent,meta_platform,meta_language,meta_locale,meta_time_zone,meta_timezone_offset,meta_screen_width,meta_screen_height,meta_scroll_width,meta_scroll_height,meta_window_inner_width,meta_window_inner_height,meta_device_pixel_ratio,meta_labjs_build_flavor,meta_labjs_build_commit
fd233,Introduction delayed retrieval,canvas.Screen,0,weiter,keypress(Space),response,25496.300000572,363.5,357.792,374.6,25870.900000572,25874.100000381,2024-04-08T12:20:38Z,25874.788,NA,NA,NA,NA,NA,NA,NA,NA,NA,NULL,154,4,20.2.4,https://neurocog.fernuni.ch/studies/vweber/jbaenninger/delayed/index.html?vp=154&sess=4,"Mozilla/5.0 (Windows NT 10.0; Win64; x64) AppleWebKit/537.36 (KHTML, like Gecko) Chrome/123.0.0.0 Safari/537.36 Edg/123.0.0.0",Win32,de,de-CH,Europe/Zurich,-120,1920,1080,1872,910,1872,958,1,production,f5b4a49f956347addd546a832a3327688c2c0fef
fd233,Deep Question,html.Page,1_0_0_0,NA,NA,form submission,23897.612000572,25874.800000191,25874.788,25874.788,49772.400000572,49772.700000763,2024-04-08T12:21:02Z,49774.706,Vergnügen,kichekesho,d,dubwana,mpanuko,mtesaji,detuji,NA,NA,NULL,NA,NA,NA,NA,NA,NA,NA,NA,NA,NA,NA,NA,NA,NA,NA,NA,NA,NA,NA
fd233,Save data screen,canvas.Screen,1_0_0_1,NA,NA,timeout,499.994,49774,49774.706,49774.706,50258.1,50259,2024-04-08T12:21:03Z,50274.7,Vergnügen,kichekesho,d,dubwana,mpanuko,mtesaji,NA,NA,0,NULL,NA,NA,NA,NA,NA,NA,NA,NA,NA,NA,NA,NA,NA,NA,NA,NA,NA,NA,NA
fd233,deep,flow.Sequence,1_0_0,NA,NA,completion,24383.312,25874.700000763,25874.788,25874.788,50258.1,50259.5,2024-04-08T12:21:03Z,50274.7,Vergnügen,kichekesho,d,dubwana,mpanuko,mtesaji,NA,NA,NA,NULL,NA,NA,NA,NA,NA,NA,NA,NA,NA,NA,NA,NA,NA,NA,NA,NA,NA,NA,NA
fd233,task,flow.Sequence,1_0,NA,NA,completion,24383.312,25874.600000381,25874.788,25874.788,50258.1,50259.600000381,2024-04-08T12:21:03Z,50274.7,Vergnügen,kichekesho,d,dubwana,mpanuko,mtesaji,NA,NA,NA,NULL,NA,NA,NA,NA,NA,NA,NA,NA,NA,NA,NA,NA,NA,NA,NA,NA,NA,NA,NA
fd233,Deep Question,html.Page,1_1_0_0,NA,NA,form submission,15221.100000191,50259.900000572,50258.1,50274.7,65495.800000191,65496.100000381,2024-04-08T12:21:18Z,65507.9,Verpackung,ufungaji,d,uhusiano,upimaji,uchunguzi,msanogo,NA,NA,NULL,NA,NA,NA,NA,NA,NA,NA,NA,NA,NA,NA,NA,NA,NA,NA,NA,NA,NA,NA
fd233,Save data screen,canvas.Screen,1_1_0_1,NA,NA,timeout,500.2,65497.900000572,65491.372,65507.9,65991.4,65992,2024-04-08T12:21:18Z,66008.1,Verpackung,ufungaji,d,uhusiano,upimaji,uchunguzi,NA,NA,0,NULL,NA,NA,NA,NA,NA,NA,NA,NA,NA,NA,NA,NA,NA,NA,NA,NA,NA,NA,NA
fd233,deep,flow.Sequence,1_1_0,NA,NA,completion,15716.7,50259.800000191,50258.1,50274.7,65991.4,65992.300000191,2024-04-08T12:21:18Z,66008.1,Verpackung,ufungaji,d,uhusiano,upimaji,uchunguzi,NA,NA,NA,NULL,NA,NA,NA,NA,NA,NA,NA,NA,NA,NA,NA,NA,NA,NA,NA,NA,NA,NA,NA
fd233,task,flow.Sequence,1_1,NA,NA,completion,15716.7,50259.700000763,50258.1,50274.7,65991.4,65992.5,2024-04-08T12:21:18Z,66008.1,Verpackung,ufungaji,d,uhusiano,upimaji,uchunguzi,NA,NA,NA,NULL,NA,NA,NA,NA,NA,NA,NA,NA,NA,NA,NA,NA,NA,NA,NA,NA,NA,NA,NA
fd233,Deep Question,html.Page,1_2_0_0,NA,NA,form submission,25379.000000381,65992.900000572,65991.4,66008.1,91387.100000381,91387.300000191,2024-04-08T12:21:44Z,91391.2,Hoffnung,matarajio,d,kutaalamika,uratibu,mvumbuzi,makutihi,NA,NA,NULL,NA,NA,NA,NA,NA,NA,NA,NA,NA,NA,NA,NA,NA,NA,NA,NA,NA,NA,NA
fd233,Save data screen,canvas.Screen,1_2_0_1,NA,NA,timeout,500.10000000001,91388.800000191,91374.71,91391.2,91874.6,91875.400000572,2024-04-08T12:21:44Z,91891.3,Hoffnung,matarajio,d,kutaalamika,uratibu,mvumbuzi,NA,NA,0,NULL,NA,NA,NA,NA,NA,NA,NA,NA,NA,NA,NA,NA,NA,NA,NA,NA,NA,NA,NA
fd233,deep,flow.Sequence,1_2_0,NA,NA,completion,25866.5,65992.800000191,65991.4,66008.1,91874.6,91875.700000763,2024-04-08T12:21:44Z,91891.3,Hoffnung,matarajio,d,kutaalamika,uratibu,mvumbuzi,NA,NA,NA,NULL,NA,NA,NA,NA,NA,NA,NA,NA,NA,NA,NA,NA,NA,NA,NA,NA,NA,NA,NA
fd233,task,flow.Sequence,1_2,NA,NA,completion,25866.5,65992.700000763,65991.4,66008.1,91874.6,91875.800000191,2024-04-08T12:21:44Z,91891.3,Hoffnung,matarajio,d,kutaalamika,uratibu,mvumbuzi,NA,NA,NA,NULL,NA,NA,NA,NA,NA,NA,NA,NA,NA,NA,NA,NA,NA,NA,NA,NA,NA,NA,NA
fd233,Deep Question,html.Page,1_3_0_0,NA,NA,form submission,9564.2,91876,91874.6,91891.3,101455.5,101455.70000076,2024-04-08T12:21:54Z,101458.132,Schlange,foleni,s,uvumilivu,uteuzi,muuzaji,nebiti,NA,NA,NULL,NA,NA,NA,NA,NA,NA,NA,NA,NA,NA,NA,NA,NA,NA,NA,NA,NA,NA,NA
fd233,Save data screen,canvas.Screen,1_3_0_1,NA,NA,timeout,499.868,101457.40000057,101458.132,101458.132,101941.3,101941.90000057,2024-04-08T12:21:54Z,101958,Schlange,foleni,s,uvumilivu,uteuzi,muuzaji,NA,NA,0,NULL,NA,NA,NA,NA,NA,NA,NA,NA,NA,NA,NA,NA,NA,NA,NA,NA,NA,NA,NA
fd233,deep,flow.Sequence,1_3_0,NA,NA,completion,10050,91876,91874.6,91891.3,101941.3,101942.30000019001,2024-04-08T12:21:54Z,101958,Schlange,foleni,s,uvumilivu,uteuzi,muuzaji,NA,NA,NA,NULL,NA,NA,NA,NA,NA,NA,NA,NA,NA,NA,NA,NA,NA,NA,NA,NA,NA,NA,NA
fd233,task,flow.Sequence,1_3,NA,NA,completion,10050,91876,91874.6,91891.3,101941.3,101942.5,2024-04-08T12:21:54Z,101958,Schlange,foleni,s,uvumilivu,uteuzi,muuzaji,NA,NA,NA,NULL,NA,NA,NA,NA,NA,NA,NA,NA,NA,NA,NA,NA,NA,NA,NA,NA,NA,NA,NA
fd233,Deep Question,html.Page,1_4_0_0,NA,NA,form submission,11597.700000763,101942.60000038,101941.3,101958,113555.70000076,113555.90000057001,2024-04-08T12:22:06Z,113558.138,Inhalt,yaliyomo,d,kishawishi,hifadhi,kutembea,tuhatu,NA,NA,NULL,NA,NA,NA,NA,NA,NA,NA,NA,NA,NA,NA,NA,NA,NA,NA,NA,NA,NA,NA
fd233,Save data screen,canvas.Screen,1_4_0_1,NA,NA,timeout,499.962,113557.60000038,113558.138,113558.138,114041.3,114041.90000057001,2024-04-08T12:22:06Z,114058.1,Inhalt,yaliyomo,d,kishawishi,hifadhi,kutembea,NA,NA,0,NULL,NA,NA,NA,NA,NA,NA,NA,NA,NA,NA,NA,NA,NA,NA,NA,NA,NA,NA,NA
fd233,deep,flow.Sequence,1_4_0,NA,NA,completion,12083.3,101942.60000038,101941.3,101958,114041.3,114042.20000076,2024-04-08T12:22:06Z,114058.1,Inhalt,yaliyomo,d,kishawishi,hifadhi,kutembea,NA,NA,NA,NULL,NA,NA,NA,NA,NA,NA,NA,NA,NA,NA,NA,NA,NA,NA,NA,NA,NA,NA,NA
fd233,task,flow.Sequence,1_4,NA,NA,completion,12083.3,101942.60000038,101941.3,101958,114041.3,114042.30000019001,2024-04-08T12:22:06Z,114058.1,Inhalt,yaliyomo,d,kishawishi,hifadhi,kutembea,NA,NA,NA,NULL,NA,NA,NA,NA,NA,NA,NA,NA,NA,NA,NA,NA,NA,NA,NA,NA,NA,NA,NA
fd233,Deep Question,html.Page,1_5_0_0,NA,NA,form submission,24233.600000763,114042.5,114041.3,114058.1,138291.70000076,138291.90000057,2024-04-08T12:22:31Z,138308.1,Schock,mshtuko,s,biashara,kukataza,vichekesho,mufasa,NA,NA,NULL,NA,NA,NA,NA,NA,NA,NA,NA,NA,NA,NA,NA,NA,NA,NA,NA,NA,NA,NA
fd233,Save data screen,canvas.Screen,1_5_0_1,NA,NA,timeout,499.89999999999,138293.5,138291.4,138308.1,138791.2,138791.90000057,2024-04-08T12:22:31Z,138808,Schock,mshtuko,s,biashara,kukataza,vichekesho,NA,NA,0,NULL,NA,NA,NA,NA,NA,NA,NA,NA,NA,NA,NA,NA,NA,NA,NA,NA,NA,NA,NA
fd233,deep,flow.Sequence,1_5_0,NA,NA,completion,24733.1,114042.5,114041.3,114058.1,138791.2,138792.10000038001,2024-04-08T12:22:31Z,138808,Schock,mshtuko,s,biashara,kukataza,vichekesho,NA,NA,NA,NULL,NA,NA,NA,NA,NA,NA,NA,NA,NA,NA,NA,NA,NA,NA,NA,NA,NA,NA,NA
fd233,task,flow.Sequence,1_5,NA,NA,completion,24733.1,114042.40000057001,114041.3,114058.1,138791.2,138792.30000019,2024-04-08T12:22:31Z,138808,Schock,mshtuko,s,biashara,kukataza,vichekesho,NA,NA,NA,NULL,NA,NA,NA,NA,NA,NA,NA,NA,NA,NA,NA,NA,NA,NA,NA,NA,NA,NA,NA
fd233,Deep Question,html.Page,1_6_0_0,NA,NA,form submission,11972.600000381,138792.5,138791.2,138808,150780.60000038001,150780.80000019,2024-04-08T12:22:43Z,150791.2,Notfall,dharura,d,rairai,malalamiko,ahueni,mtubiki,NA,NA,NULL,NA,NA,NA,NA,NA,NA,NA,NA,NA,NA,NA,NA,NA,NA,NA,NA,NA,NA,NA
fd233,Save data screen,canvas.Screen,1_6_0_1,NA,NA,timeout,500.09999999998,150782.40000057,150774.712,150791.2,151274.6,151275.20000076,2024-04-08T12:22:44Z,151291.3,Notfall,dharura,d,rairai,malalamiko,ahueni,NA,NA,0,NULL,NA,NA,NA,NA,NA,NA,NA,NA,NA,NA,NA,NA,NA,NA,NA,NA,NA,NA,NA
fd233,deep,flow.Sequence,1_6_0,NA,NA,completion,12466.6,138792.5,138791.2,138808,151274.6,151275.5,2024-04-08T12:22:44Z,151291.3,Notfall,dharura,d,rairai,malalamiko,ahueni,NA,NA,NA,NULL,NA,NA,NA,NA,NA,NA,NA,NA,NA,NA,NA,NA,NA,NA,NA,NA,NA,NA,NA
fd233,task,flow.Sequence,1_6,NA,NA,completion,12466.6,138792.40000057,138791.2,138808,151274.6,151275.70000076,2024-04-08T12:22:44Z,151291.3,Notfall,dharura,d,rairai,malalamiko,ahueni,NA,NA,NA,NULL,NA,NA,NA,NA,NA,NA,NA,NA,NA,NA,NA,NA,NA,NA,NA,NA,NA,NA,NA
fd233,Deep Question,html.Page,1_7_0_0,NA,NA,form submission,37661.400000763,151275.80000019,151274.6,151291.3,188952.70000076,188952.80000019,2024-04-08T12:23:21Z,188957.97,Vermutung,udhanifu,d,haramia,tikisho,itifaki,bukituji,NA,NA,NULL,NA,NA,NA,NA,NA,NA,NA,NA,NA,NA,NA,NA,NA,NA,NA,NA,NA,NA,NA
fd233,Save data screen,canvas.Screen,1_7_0_1,NA,NA,timeout,500.03,188954.5,188957.97,188957.97,189441.3,189442,2024-04-08T12:23:22Z,189458,Vermutung,udhanifu,d,haramia,tikisho,itifaki,NA,NA,0,NULL,NA,NA,NA,NA,NA,NA,NA,NA,NA,NA,NA,NA,NA,NA,NA,NA,NA,NA,NA
fd233,deep,flow.Sequence,1_7_0,NA,NA,completion,38150,151275.80000019,151274.6,151291.3,189441.3,189442.40000057,2024-04-08T12:23:22Z,189458,Vermutung,udhanifu,d,haramia,tikisho,itifaki,NA,NA,NA,NULL,NA,NA,NA,NA,NA,NA,NA,NA,NA,NA,NA,NA,NA,NA,NA,NA,NA,NA,NA
fd233,task,flow.Sequence,1_7,NA,NA,completion,38150,151275.80000019,151274.6,151291.3,189441.3,189442.5,2024-04-08T12:23:22Z,189458,Vermutung,udhanifu,d,haramia,tikisho,itifaki,NA,NA,NA,NULL,NA,NA,NA,NA,NA,NA,NA,NA,NA,NA,NA,NA,NA,NA,NA,NA,NA,NA,NA
fd233,Deep Question,html.Page,1_8_0_0,NA,NA,form submission,23563.5,189442.70000076,189441.3,189458,213021.5,213021.80000019,2024-04-08T12:23:45Z,213024.6,Schüler,mwanafunzi,d,mwekezaji,matumizi,uaminifu,uakitu,NA,NA,NULL,NA,NA,NA,NA,NA,NA,NA,NA,NA,NA,NA,NA,NA,NA,NA,NA,NA,NA,NA
fd233,Save data screen,canvas.Screen,1_8_0_1,NA,NA,timeout,500,213023.40000057,213008,213024.6,213508,213508.60000038001,2024-04-08T12:23:46Z,213524.6,Schüler,mwanafunzi,d,mwekezaji,matumizi,uaminifu,NA,NA,0,NULL,NA,NA,NA,NA,NA,NA,NA,NA,NA,NA,NA,NA,NA,NA,NA,NA,NA,NA,NA
fd233,deep,flow.Sequence,1_8_0,NA,NA,completion,24050,189442.70000076,189441.3,189458,213508,213508.90000057,2024-04-08T12:23:46Z,213524.6,Schüler,mwanafunzi,d,mwekezaji,matumizi,uaminifu,NA,NA,NA,NULL,NA,NA,NA,NA,NA,NA,NA,NA,NA,NA,NA,NA,NA,NA,NA,NA,NA,NA,NA
fd233,task,flow.Sequence,1_8,NA,NA,completion,24050,189442.60000038001,189441.3,189458,213508,213509.10000038001,2024-04-08T12:23:46Z,213524.6,Schüler,mwanafunzi,d,mwekezaji,matumizi,uaminifu,NA,NA,NA,NULL,NA,NA,NA,NA,NA,NA,NA,NA,NA,NA,NA,NA,NA,NA,NA,NA,NA,NA,NA
fd233,Deep Question,html.Page,1_9_0_0,NA,NA,form submission,8932.8000005722,213509.20000076,213508,213524.6,222457.40000057,222457.70000076,2024-04-08T12:23:55Z,222474.7,Theorie,nadharia,s,ushungi,mkutano,uwakilishi,zuhuzi,NA,NA,NULL,NA,NA,NA,NA,NA,NA,NA,NA,NA,NA,NA,NA,NA,NA,NA,NA,NA,NA,NA
fd233,Save data screen,canvas.Screen,1_9_0_1,NA,NA,timeout,500,222459.30000019,222457.962,222474.7,222958,222958.60000038001,2024-04-08T12:23:55Z,222974.7,Theorie,nadharia,s,ushungi,mkutano,uwakilishi,NA,NA,0,NULL,NA,NA,NA,NA,NA,NA,NA,NA,NA,NA,NA,NA,NA,NA,NA,NA,NA,NA,NA
fd233,deep,flow.Sequence,1_9_0,NA,NA,completion,9433.4,213509.10000038001,213508,213524.6,222958,222958.80000019,2024-04-08T12:23:55Z,222974.7,Theorie,nadharia,s,ushungi,mkutano,uwakilishi,NA,NA,NA,NULL,NA,NA,NA,NA,NA,NA,NA,NA,NA,NA,NA,NA,NA,NA,NA,NA,NA,NA,NA
fd233,task,flow.Sequence,1_9,NA,NA,completion,9433.4,213509.10000038001,213508,213524.6,222958,222959,2024-04-08T12:23:55Z,222974.7,Theorie,nadharia,s,ushungi,mkutano,uwakilishi,NA,NA,NA,NULL,NA,NA,NA,NA,NA,NA,NA,NA,NA,NA,NA,NA,NA,NA,NA,NA,NA,NA,NA
fd233,Deep Question,html.Page,1_10_0_0,NA,NA,form submission,12947.700000572,222959.20000076,222958,222974.7,235922.40000057,235922.60000038001,2024-04-08T12:24:08Z,235924.772,Spionage,upelelezi,s,maslahi,utokazo,magangao,tiomembeka,NA,NA,NULL,NA,NA,NA,NA,NA,NA,NA,NA,NA,NA,NA,NA,NA,NA,NA,NA,NA,NA,NA
fd233,Save data screen,canvas.Screen,1_10_0_1,NA,NA,timeout,499.92800000001,235924.20000076,235924.772,235924.772,236407.9,236408.60000038001,2024-04-08T12:24:09Z,236424.7,Spionage,upelelezi,s,maslahi,utokazo,magangao,NA,NA,0,NULL,NA,NA,NA,NA,NA,NA,NA,NA,NA,NA,NA,NA,NA,NA,NA,NA,NA,NA,NA
fd233,deep,flow.Sequence,1_10_0,NA,NA,completion,13433.2,222959.20000076,222958,222974.7,236407.9,236408.80000019,2024-04-08T12:24:09Z,236424.7,Spionage,upelelezi,s,maslahi,utokazo,magangao,NA,NA,NA,NULL,NA,NA,NA,NA,NA,NA,NA,NA,NA,NA,NA,NA,NA,NA,NA,NA,NA,NA,NA
fd233,task,flow.Sequence,1_10,NA,NA,completion,13433.2,222959.10000038001,222958,222974.7,236407.9,236408.90000057,2024-04-08T12:24:09Z,236424.7,Spionage,upelelezi,s,maslahi,utokazo,magangao,NA,NA,NA,NULL,NA,NA,NA,NA,NA,NA,NA,NA,NA,NA,NA,NA,NA,NA,NA,NA,NA,NA,NA
fd233,Deep Question,html.Page,1_11_0_0,NA,NA,form submission,23649.600000191,236409.10000038001,236407.9,236424.7,260074.30000019,260074.60000038001,2024-04-08T12:24:32Z,260091.5,Tester,wanaojaribu,d,sherti,sihiri,mlipuko,mefesa,NA,NA,NULL,NA,NA,NA,NA,NA,NA,NA,NA,NA,NA,NA,NA,NA,NA,NA,NA,NA,NA,NA
fd233,Save data screen,canvas.Screen,1_11_0_1,NA,NA,timeout,499.79999999999,260076.20000076,260074.644,260091.5,260574.7,260575.30000019,2024-04-08T12:24:33Z,260591.3,Tester,wanaojaribu,d,sherti,sihiri,mlipuko,NA,NA,0,NULL,NA,NA,NA,NA,NA,NA,NA,NA,NA,NA,NA,NA,NA,NA,NA,NA,NA,NA,NA
fd233,deep,flow.Sequence,1_11_0,NA,NA,completion,24150,236409,236407.9,236424.7,260574.7,260575.60000038001,2024-04-08T12:24:33Z,260591.3,Tester,wanaojaribu,d,sherti,sihiri,mlipuko,NA,NA,NA,NULL,NA,NA,NA,NA,NA,NA,NA,NA,NA,NA,NA,NA,NA,NA,NA,NA,NA,NA,NA
fd233,task,flow.Sequence,1_11,NA,NA,completion,24150,236409,236407.9,236424.7,260574.7,260575.80000019,2024-04-08T12:24:33Z,260591.3,Tester,wanaojaribu,d,sherti,sihiri,mlipuko,NA,NA,NA,NULL,NA,NA,NA,NA,NA,NA,NA,NA,NA,NA,NA,NA,NA,NA,NA,NA,NA,NA,NA
fd233,Deep Question,html.Page,1_12_0_0,NA,NA,form submission,10337.2,260575.90000057,260574.7,260591.3,270928.5,270928.60000038,2024-04-08T12:24:43Z,270941.2,Fenster,dirisha,s,walakini,tasawari,maarifa,demetu,NA,NA,NULL,NA,NA,NA,NA,NA,NA,NA,NA,NA,NA,NA,NA,NA,NA,NA,NA,NA,NA,NA
fd233,Save data screen,canvas.Screen,1_12_0_1,NA,NA,timeout,500.09999999998,270930.40000057,270924.652,270941.2,271424.6,271425.10000038,2024-04-08T12:24:44Z,271441.3,Fenster,dirisha,s,walakini,tasawari,maarifa,NA,NA,0,NULL,NA,NA,NA,NA,NA,NA,NA,NA,NA,NA,NA,NA,NA,NA,NA,NA,NA,NA,NA
fd233,deep,flow.Sequence,1_12_0,NA,NA,completion,10833.3,260575.90000057,260574.7,260591.3,271424.6,271425.40000057,2024-04-08T12:24:44Z,271441.3,Fenster,dirisha,s,walakini,tasawari,maarifa,NA,NA,NA,NULL,NA,NA,NA,NA,NA,NA,NA,NA,NA,NA,NA,NA,NA,NA,NA,NA,NA,NA,NA
fd233,task,flow.Sequence,1_12,NA,NA,completion,10833.3,260575.90000057,260574.7,260591.3,271424.6,271425.60000038,2024-04-08T12:24:44Z,271441.3,Fenster,dirisha,s,walakini,tasawari,maarifa,NA,NA,NA,NULL,NA,NA,NA,NA,NA,NA,NA,NA,NA,NA,NA,NA,NA,NA,NA,NA,NA,NA,NA
fd233,Deep Question,html.Page,1_13_0_0,NA,NA,form submission,31789.100000572,271425.80000019,271424.6,271441.3,303230.40000057,303230.5,2024-04-08T12:25:15Z,303241.2,Toleranz,kuvumiliana,s,maombolezo,ujasusi,mchekeshaji,zunemetuji,NA,NA,NULL,NA,NA,NA,NA,NA,NA,NA,NA,NA,NA,NA,NA,NA,NA,NA,NA,NA,NA,NA
fd233,Save data screen,canvas.Screen,1_13_0_1,NA,NA,timeout,500.20000000001,303232.20000076003,303224.676,303241.2,303724.6,303725.20000076003,2024-04-08T12:25:16Z,303741.4,Toleranz,kuvumiliana,s,maombolezo,ujasusi,mchekeshaji,NA,NA,0,NULL,NA,NA,NA,NA,NA,NA,NA,NA,NA,NA,NA,NA,NA,NA,NA,NA,NA,NA,NA
fd233,deep,flow.Sequence,1_13_0,NA,NA,completion,32283.3,271425.80000019,271424.6,271441.3,303724.6,303725.40000057,2024-04-08T12:25:16Z,303741.4,Toleranz,kuvumiliana,s,maombolezo,ujasusi,mchekeshaji,NA,NA,NA,NULL,NA,NA,NA,NA,NA,NA,NA,NA,NA,NA,NA,NA,NA,NA,NA,NA,NA,NA,NA
fd233,task,flow.Sequence,1_13,NA,NA,completion,32283.3,271425.70000076003,271424.6,271441.3,303724.6,303725.60000038,2024-04-08T12:25:16Z,303741.4,Toleranz,kuvumiliana,s,maombolezo,ujasusi,mchekeshaji,NA,NA,NA,NULL,NA,NA,NA,NA,NA,NA,NA,NA,NA,NA,NA,NA,NA,NA,NA,NA,NA,NA,NA
fd233,Deep Question,html.Page,1_14_0_0,NA,NA,form submission,57391.900000191,303725.80000019,303724.6,303741.4,361133.30000019,361133.5,2024-04-08T12:26:13Z,361141.2,Ergänzung,kijalizo,s,ulaghai,mustarehe,matangazo,metghuda,NA,NA,NULL,NA,NA,NA,NA,NA,NA,NA,NA,NA,NA,NA,NA,NA,NA,NA,NA,NA,NA,NA
fd233,Save data screen,canvas.Screen,1_14_0_1,NA,NA,timeout,500,361135.10000038,361124.6,361141.2,361624.6,361625.20000076003,2024-04-08T12:26:14Z,361641.2,Ergänzung,kijalizo,s,ulaghai,mustarehe,matangazo,NA,NA,0,NULL,NA,NA,NA,NA,NA,NA,NA,NA,NA,NA,NA,NA,NA,NA,NA,NA,NA,NA,NA
fd233,deep,flow.Sequence,1_14_0,NA,NA,completion,57883.2,303725.70000076003,303724.6,303741.4,361624.6,361625.40000057,2024-04-08T12:26:14Z,361641.2,Ergänzung,kijalizo,s,ulaghai,mustarehe,matangazo,NA,NA,NA,NULL,NA,NA,NA,NA,NA,NA,NA,NA,NA,NA,NA,NA,NA,NA,NA,NA,NA,NA,NA
fd233,task,flow.Sequence,1_14,NA,NA,completion,57883.2,303725.70000076003,303724.6,303741.4,361624.6,361625.60000038,2024-04-08T12:26:14Z,361641.2,Ergänzung,kijalizo,s,ulaghai,mustarehe,matangazo,NA,NA,NA,NULL,NA,NA,NA,NA,NA,NA,NA,NA,NA,NA,NA,NA,NA,NA,NA,NA,NA,NA,NA
fd233,Deep Question,html.Page,1_15_0_0,NA,NA,form submission,8072.1000001907,361625.70000076003,361624.6,361641.2,369713.30000019,369713.5,2024-04-08T12:26:22Z,369724.5,Wohlstand,mafanikio,s,chimbuko,kumbuko,mapwaji,muhatu,NA,NA,NULL,NA,NA,NA,NA,NA,NA,NA,NA,NA,NA,NA,NA,NA,NA,NA,NA,NA,NA,NA
fd233,Save data screen,canvas.Screen,1_15_0_1,NA,NA,timeout,500.09999999998,369715.10000038,369707.948,369724.5,370207.9,370208.5,2024-04-08T12:26:22Z,370224.6,Wohlstand,mafanikio,s,chimbuko,kumbuko,mapwaji,NA,NA,0,NULL,NA,NA,NA,NA,NA,NA,NA,NA,NA,NA,NA,NA,NA,NA,NA,NA,NA,NA,NA
fd233,deep,flow.Sequence,1_15_0,NA,NA,completion,8566.7,361625.70000076003,361624.6,361641.2,370207.9,370208.80000019,2024-04-08T12:26:22Z,370224.6,Wohlstand,mafanikio,s,chimbuko,kumbuko,mapwaji,NA,NA,NA,NULL,NA,NA,NA,NA,NA,NA,NA,NA,NA,NA,NA,NA,NA,NA,NA,NA,NA,NA,NA
fd233,task,flow.Sequence,1_15,NA,NA,completion,8566.7,361625.60000038,361624.6,361641.2,370207.9,370209,2024-04-08T12:26:22Z,370224.6,Wohlstand,mafanikio,s,chimbuko,kumbuko,mapwaji,NA,NA,NA,NULL,NA,NA,NA,NA,NA,NA,NA,NA,NA,NA,NA,NA,NA,NA,NA,NA,NA,NA,NA
fd233,retrieval block 1 (cued recall),flow.Loop,1,NA,NA,completion,344333.112,25874.600000381,25874.788,25874.788,370207.9,370209.40000057,2024-04-08T12:26:22Z,370224.6,NA,NA,NA,NA,NA,NA,NA,NA,NA,NULL,NA,NA,NA,NA,NA,NA,NA,NA,NA,NA,NA,NA,NA,NA,NA,NA,NA,NA,NA
fd233,Shallow Question,html.Page,2_0_0_0,NA,NA,form submission,11470.500000381,370209.60000038,370207.9,370224.6,381695.10000038,381695.30000019,2024-04-08T12:26:34Z,381708,Schüler,mwanafunzi,d,mwekezaji,matumizi,uaminifu,uaminifu,NA,NA,"c(""distractor1"", ""distractor2"", ""distractor3"")",NA,NA,NA,NA,NA,NA,NA,NA,NA,NA,NA,NA,NA,NA,NA,NA,NA,NA,NA
fd233,Save data screen,canvas.Screen,2_0_0_1,NA,NA,timeout,499.90000000002,381696.90000057,381691.396,381708,382191.3,382192,2024-04-08T12:26:34Z,382207.9,Schüler,mwanafunzi,d,mwekezaji,matumizi,uaminifu,NA,NA,0,"c(""distractor1"", ""distractor2"", ""distractor3"")",NA,NA,NA,NA,NA,NA,NA,NA,NA,NA,NA,NA,NA,NA,NA,NA,NA,NA,NA
fd233,shallow,flow.Sequence,2_0_0,NA,NA,completion,11966.7,370209.60000038,370207.9,370224.6,382191.3,382192.30000019,2024-04-08T12:26:34Z,382207.9,Schüler,mwanafunzi,d,mwekezaji,matumizi,uaminifu,NA,NA,NA,"c(""distractor1"", ""distractor2"", ""distractor3"")",NA,NA,NA,NA,NA,NA,NA,NA,NA,NA,NA,NA,NA,NA,NA,NA,NA,NA,NA
fd233,task,flow.Sequence,2_0,NA,NA,completion,11966.7,370209.60000038,370207.9,370224.6,382191.3,382192.5,2024-04-08T12:26:34Z,382207.9,Schüler,mwanafunzi,d,mwekezaji,matumizi,uaminifu,NA,NA,NA,"c(""distractor1"", ""distractor2"", ""distractor3"")",NA,NA,NA,NA,NA,NA,NA,NA,NA,NA,NA,NA,NA,NA,NA,NA,NA,NA,NA
fd233,Shallow Question,html.Page,2_1_0_0,NA,NA,form submission,4661.3000007629,382192.60000038,382191.3,382207.9,386869.20000076003,386869.40000057,2024-04-08T12:26:39Z,386874.4,Theorie,nadharia,s,ushungi,mkutano,uwakilishi,mkutano,NA,NA,"c(""distractor1"", ""distractor2"", ""distractor3"")",NA,NA,NA,NA,NA,NA,NA,NA,NA,NA,NA,NA,NA,NA,NA,NA,NA,NA,NA
fd233,Save data screen,canvas.Screen,2_1_0_1,NA,NA,timeout,500.29999999999,386870.90000057,386857.978,386874.4,387357.9,387358.70000076003,2024-04-08T12:26:40Z,387374.7,Theorie,nadharia,s,ushungi,mkutano,uwakilishi,NA,NA,0,"c(""distractor1"", ""distractor2"", ""distractor3"")",NA,NA,NA,NA,NA,NA,NA,NA,NA,NA,NA,NA,NA,NA,NA,NA,NA,NA,NA
fd233,shallow,flow.Sequence,2_1_0,NA,NA,completion,5150,382192.60000038,382191.3,382207.9,387357.9,387359,2024-04-08T12:26:40Z,387374.7,Theorie,nadharia,s,ushungi,mkutano,uwakilishi,NA,NA,NA,"c(""distractor1"", ""distractor2"", ""distractor3"")",NA,NA,NA,NA,NA,NA,NA,NA,NA,NA,NA,NA,NA,NA,NA,NA,NA,NA,NA
fd233,task,flow.Sequence,2_1,NA,NA,completion,5150,382192.60000038,382191.3,382207.9,387357.9,387359.10000038,2024-04-08T12:26:40Z,387374.7,Theorie,nadharia,s,ushungi,mkutano,uwakilishi,NA,NA,NA,"c(""distractor1"", ""distractor2"", ""distractor3"")",NA,NA,NA,NA,NA,NA,NA,NA,NA,NA,NA,NA,NA,NA,NA,NA,NA,NA,NA
fd233,Shallow Question,html.Page,2_2_0_0,NA,NA,form submission,8871.6000001907,387359.20000076003,387357.9,387374.7,396246.30000019,396246.40000057,2024-04-08T12:26:48Z,396257.8,Fenster,dirisha,s,walakini,tasawari,maarifa,tasawari,NA,NA,"c(""distractor1"", ""distractor2"", ""distractor3"")",NA,NA,NA,NA,NA,NA,NA,NA,NA,NA,NA,NA,NA,NA,NA,NA,NA,NA,NA
fd233,Save data screen,canvas.Screen,2_2_0_1,NA,NA,timeout,500.10000000003,396248,396241.316,396257.8,396741.2,396742,2024-04-08T12:26:49Z,396757.9,Fenster,dirisha,s,walakini,tasawari,maarifa,NA,NA,0,"c(""distractor1"", ""distractor2"", ""distractor3"")",NA,NA,NA,NA,NA,NA,NA,NA,NA,NA,NA,NA,NA,NA,NA,NA,NA,NA,NA
fd233,shallow,flow.Sequence,2_2_0,NA,NA,completion,9366.5,387359.20000076003,387357.9,387374.7,396741.2,396742.30000019,2024-04-08T12:26:49Z,396757.9,Fenster,dirisha,s,walakini,tasawari,maarifa,NA,NA,NA,"c(""distractor1"", ""distractor2"", ""distractor3"")",NA,NA,NA,NA,NA,NA,NA,NA,NA,NA,NA,NA,NA,NA,NA,NA,NA,NA,NA
fd233,task,flow.Sequence,2_2,NA,NA,completion,9366.5,387359.20000076003,387357.9,387374.7,396741.2,396742.40000057,2024-04-08T12:26:49Z,396757.9,Fenster,dirisha,s,walakini,tasawari,maarifa,NA,NA,NA,"c(""distractor1"", ""distractor2"", ""distractor3"")",NA,NA,NA,NA,NA,NA,NA,NA,NA,NA,NA,NA,NA,NA,NA,NA,NA,NA,NA
fd233,Shallow Question,html.Page,2_3_0_0,NA,NA,form submission,23641.200000381,396742.5,396741.2,396757.9,420399.10000038,420399.20000076003,2024-04-08T12:27:13Z,420424.6,Schock,mshtuko,s,biashara,kukataza,vichekesho,mshtuko,NA,NA,"c(""distractor1"", ""distractor2"", ""distractor3"")",NA,NA,NA,NA,NA,NA,NA,NA,NA,NA,NA,NA,NA,NA,NA,NA,NA,NA,NA
fd233,Save data screen,canvas.Screen,2_3_0_1,NA,NA,timeout,500,420400.90000057,420408.8,420424.6,420907.9,420908.40000057,2024-04-08T12:27:13Z,420924.6,Schock,mshtuko,s,biashara,kukataza,vichekesho,NA,NA,1,"c(""distractor1"", ""distractor2"", ""distractor3"")",NA,NA,NA,NA,NA,NA,NA,NA,NA,NA,NA,NA,NA,NA,NA,NA,NA,NA,NA
fd233,shallow,flow.Sequence,2_3_0,NA,NA,completion,24150,396742.5,396741.2,396757.9,420907.9,420908.80000019,2024-04-08T12:27:13Z,420924.6,Schock,mshtuko,s,biashara,kukataza,vichekesho,NA,NA,NA,"c(""distractor1"", ""distractor2"", ""distractor3"")",NA,NA,NA,NA,NA,NA,NA,NA,NA,NA,NA,NA,NA,NA,NA,NA,NA,NA,NA
fd233,task,flow.Sequence,2_3,NA,NA,completion,24150,396742.5,396741.2,396757.9,420907.9,420908.90000057,2024-04-08T12:27:13Z,420924.6,Schock,mshtuko,s,biashara,kukataza,vichekesho,NA,NA,NA,"c(""distractor1"", ""distractor2"", ""distractor3"")",NA,NA,NA,NA,NA,NA,NA,NA,NA,NA,NA,NA,NA,NA,NA,NA,NA,NA,NA
fd233,Shallow Question,html.Page,2_4_0_0,NA,NA,form submission,21728.600000763,420909.10000038,420907.9,420924.6,442653.20000076003,442653.40000057,2024-04-08T12:27:35Z,442657.9,Ergänzung,kijalizo,s,ulaghai,mustarehe,matangazo,ulaghai,NA,NA,"c(""distractor1"", ""distractor2"", ""distractor3"")",NA,NA,NA,NA,NA,NA,NA,NA,NA,NA,NA,NA,NA,NA,NA,NA,NA,NA,NA
fd233,Save data screen,canvas.Screen,2_4_0_1,NA,NA,timeout,500.09999999998,442655.10000038,442641.312,442657.9,443141.3,443141.80000019,2024-04-08T12:27:35Z,443158,Ergänzung,kijalizo,s,ulaghai,mustarehe,matangazo,NA,NA,0,"c(""distractor1"", ""distractor2"", ""distractor3"")",NA,NA,NA,NA,NA,NA,NA,NA,NA,NA,NA,NA,NA,NA,NA,NA,NA,NA,NA
fd233,shallow,flow.Sequence,2_4_0,NA,NA,completion,22216.7,420909,420907.9,420924.6,443141.3,443142.10000038,2024-04-08T12:27:35Z,443158,Ergänzung,kijalizo,s,ulaghai,mustarehe,matangazo,NA,NA,NA,"c(""distractor1"", ""distractor2"", ""distractor3"")",NA,NA,NA,NA,NA,NA,NA,NA,NA,NA,NA,NA,NA,NA,NA,NA,NA,NA,NA
fd233,task,flow.Sequence,2_4,NA,NA,completion,22216.7,420909,420907.9,420924.6,443141.3,443142.20000076003,2024-04-08T12:27:35Z,443158,Ergänzung,kijalizo,s,ulaghai,mustarehe,matangazo,NA,NA,NA,"c(""distractor1"", ""distractor2"", ""distractor3"")",NA,NA,NA,NA,NA,NA,NA,NA,NA,NA,NA,NA,NA,NA,NA,NA,NA,NA,NA
fd233,Shallow Question,html.Page,2_5_0_0,NA,NA,form submission,9809,443142.30000019,443141.3,443158,452967,452967.30000019,2024-04-08T12:27:45Z,452974.5,Inhalt,yaliyomo,d,kishawishi,hifadhi,kutembea,hifadhi,NA,NA,"c(""distractor1"", ""distractor2"", ""distractor3"")",NA,NA,NA,NA,NA,NA,NA,NA,NA,NA,NA,NA,NA,NA,NA,NA,NA,NA,NA
fd233,Save data screen,canvas.Screen,2_5_0_1,NA,NA,timeout,500.09999999998,452968.80000019,452957.962,452974.5,453457.9,453458.70000076003,2024-04-08T12:27:46Z,453474.6,Inhalt,yaliyomo,d,kishawishi,hifadhi,kutembea,NA,NA,0,"c(""distractor1"", ""distractor2"", ""distractor3"")",NA,NA,NA,NA,NA,NA,NA,NA,NA,NA,NA,NA,NA,NA,NA,NA,NA,NA,NA
fd233,shallow,flow.Sequence,2_5_0,NA,NA,completion,10299.9,443142.30000019,443141.3,443158,453457.9,453458.90000057,2024-04-08T12:27:46Z,453474.6,Inhalt,yaliyomo,d,kishawishi,hifadhi,kutembea,NA,NA,NA,"c(""distractor1"", ""distractor2"", ""distractor3"")",NA,NA,NA,NA,NA,NA,NA,NA,NA,NA,NA,NA,NA,NA,NA,NA,NA,NA,NA
fd233,task,flow.Sequence,2_5,NA,NA,completion,10299.9,443142.30000019,443141.3,443158,453457.9,453459.10000038,2024-04-08T12:27:46Z,453474.6,Inhalt,yaliyomo,d,kishawishi,hifadhi,kutembea,NA,NA,NA,"c(""distractor1"", ""distractor2"", ""distractor3"")",NA,NA,NA,NA,NA,NA,NA,NA,NA,NA,NA,NA,NA,NA,NA,NA,NA,NA,NA
fd233,Shallow Question,html.Page,2_6_0_0,NA,NA,form submission,9529.4,453459.20000076003,453457.9,453474.6,463004,463004.10000038,2024-04-08T12:27:55Z,463007.8,Schlange,foleni,s,uvumilivu,uteuzi,muuzaji,foleni,NA,NA,"c(""distractor1"", ""distractor2"", ""distractor3"")",NA,NA,NA,NA,NA,NA,NA,NA,NA,NA,NA,NA,NA,NA,NA,NA,NA,NA,NA
fd233,Save data screen,canvas.Screen,2_6_0_1,NA,NA,timeout,500.10000000003,463005.70000076003,462991.268,463007.8,463491.1,463491.90000057,2024-04-08T12:27:56Z,463507.9,Schlange,foleni,s,uvumilivu,uteuzi,muuzaji,NA,NA,1,"c(""distractor1"", ""distractor2"", ""distractor3"")",NA,NA,NA,NA,NA,NA,NA,NA,NA,NA,NA,NA,NA,NA,NA,NA,NA,NA,NA
fd233,shallow,flow.Sequence,2_6_0,NA,NA,completion,10016.5,453459.20000076003,453457.9,453474.6,463491.1,463492.20000076003,2024-04-08T12:27:56Z,463507.9,Schlange,foleni,s,uvumilivu,uteuzi,muuzaji,NA,NA,NA,"c(""distractor1"", ""distractor2"", ""distractor3"")",NA,NA,NA,NA,NA,NA,NA,NA,NA,NA,NA,NA,NA,NA,NA,NA,NA,NA,NA
fd233,task,flow.Sequence,2_6,NA,NA,completion,10016.5,453459.20000076003,453457.9,453474.6,463491.1,463492.40000057,2024-04-08T12:27:56Z,463507.9,Schlange,foleni,s,uvumilivu,uteuzi,muuzaji,NA,NA,NA,"c(""distractor1"", ""distractor2"", ""distractor3"")",NA,NA,NA,NA,NA,NA,NA,NA,NA,NA,NA,NA,NA,NA,NA,NA,NA,NA,NA
fd233,Shallow Question,html.Page,2_7_0_0,NA,NA,form submission,17815.000000572,463492.5,463491.1,463507.9,481322.90000057,481323.10000038,2024-04-08T12:28:14Z,481324.598,Vergnügen,kichekesho,d,dubwana,mpanuko,mtesaji,mtesaji,NA,NA,"c(""distractor1"", ""distractor2"", ""distractor3"")",NA,NA,NA,NA,NA,NA,NA,NA,NA,NA,NA,NA,NA,NA,NA,NA,NA,NA,NA
fd233,Save data screen,canvas.Screen,2_7_0_1,NA,NA,timeout,500.00199999998,481324.90000057,481324.598,481324.598,481808,481808.70000076003,2024-04-08T12:28:14Z,481824.6,Vergnügen,kichekesho,d,dubwana,mpanuko,mtesaji,NA,NA,0,"c(""distractor1"", ""distractor2"", ""distractor3"")",NA,NA,NA,NA,NA,NA,NA,NA,NA,NA,NA,NA,NA,NA,NA,NA,NA,NA,NA
fd233,shallow,flow.Sequence,2_7_0,NA,NA,completion,18300.1,463492.5,463491.1,463507.9,481808,481808.90000057,2024-04-08T12:28:14Z,481824.6,Vergnügen,kichekesho,d,dubwana,mpanuko,mtesaji,NA,NA,NA,"c(""distractor1"", ""distractor2"", ""distractor3"")",NA,NA,NA,NA,NA,NA,NA,NA,NA,NA,NA,NA,NA,NA,NA,NA,NA,NA,NA
fd233,task,flow.Sequence,2_7,NA,NA,completion,18300.1,463492.40000057,463491.1,463507.9,481808,481809.10000038,2024-04-08T12:28:14Z,481824.6,Vergnügen,kichekesho,d,dubwana,mpanuko,mtesaji,NA,NA,NA,"c(""distractor1"", ""distractor2"", ""distractor3"")",NA,NA,NA,NA,NA,NA,NA,NA,NA,NA,NA,NA,NA,NA,NA,NA,NA,NA,NA
fd233,Shallow Question,html.Page,2_8_0_0,NA,NA,form submission,30067.300000572,481809.30000019,481808,481824.6,511891.90000057,511892.10000038,2024-04-08T12:28:44Z,511907.9,Tester,wanaojaribu,d,sherti,sihiri,mlipuko,mlipuko,NA,NA,"c(""distractor1"", ""distractor2"", ""distractor3"")",NA,NA,NA,NA,NA,NA,NA,NA,NA,NA,NA,NA,NA,NA,NA,NA,NA,NA,NA
fd233,Save data screen,canvas.Screen,2_8_0_1,NA,NA,timeout,499.89999999997,511893.70000076003,511891.318,511907.9,512391.2,512391.90000057,2024-04-08T12:28:45Z,512407.8,Tester,wanaojaribu,d,sherti,sihiri,mlipuko,NA,NA,0,"c(""distractor1"", ""distractor2"", ""distractor3"")",NA,NA,NA,NA,NA,NA,NA,NA,NA,NA,NA,NA,NA,NA,NA,NA,NA,NA,NA
fd233,shallow,flow.Sequence,2_8_0,NA,NA,completion,30566.6,481809.30000019,481808,481824.6,512391.2,512392.20000076003,2024-04-08T12:28:45Z,512407.8,Tester,wanaojaribu,d,sherti,sihiri,mlipuko,NA,NA,NA,"c(""distractor1"", ""distractor2"", ""distractor3"")",NA,NA,NA,NA,NA,NA,NA,NA,NA,NA,NA,NA,NA,NA,NA,NA,NA,NA,NA
fd233,task,flow.Sequence,2_8,NA,NA,completion,30566.6,481809.20000076003,481808,481824.6,512391.2,512392.30000019,2024-04-08T12:28:45Z,512407.8,Tester,wanaojaribu,d,sherti,sihiri,mlipuko,NA,NA,NA,"c(""distractor1"", ""distractor2"", ""distractor3"")",NA,NA,NA,NA,NA,NA,NA,NA,NA,NA,NA,NA,NA,NA,NA,NA,NA,NA,NA
fd233,Shallow Question,html.Page,2_9_0_0,NA,NA,form submission,10594.100000572,512392.5,512391.2,512407.8,523001.90000057,523002,2024-04-08T12:28:55Z,523024.6,Verpackung,ufungaji,d,uhusiano,upimaji,uchunguzi,ufungaji,NA,NA,"c(""distractor1"", ""distractor2"", ""distractor3"")",NA,NA,NA,NA,NA,NA,NA,NA,NA,NA,NA,NA,NA,NA,NA,NA,NA,NA,NA
fd233,Save data screen,canvas.Screen,2_9_0_1,NA,NA,timeout,499.90000000002,523003.60000038,523007.942,523024.6,523507.8,523508.60000038,2024-04-08T12:28:56Z,523524.5,Verpackung,ufungaji,d,uhusiano,upimaji,uchunguzi,NA,NA,1,"c(""distractor1"", ""distractor2"", ""distractor3"")",NA,NA,NA,NA,NA,NA,NA,NA,NA,NA,NA,NA,NA,NA,NA,NA,NA,NA,NA
fd233,shallow,flow.Sequence,2_9_0,NA,NA,completion,11100,512392.40000057,512391.2,512407.8,523507.8,523508.80000019,2024-04-08T12:28:56Z,523524.5,Verpackung,ufungaji,d,uhusiano,upimaji,uchunguzi,NA,NA,NA,"c(""distractor1"", ""distractor2"", ""distractor3"")",NA,NA,NA,NA,NA,NA,NA,NA,NA,NA,NA,NA,NA,NA,NA,NA,NA,NA,NA
fd233,task,flow.Sequence,2_9,NA,NA,completion,11100,512392.40000057,512391.2,512407.8,523507.8,523509,2024-04-08T12:28:56Z,523524.5,Verpackung,ufungaji,d,uhusiano,upimaji,uchunguzi,NA,NA,NA,"c(""distractor1"", ""distractor2"", ""distractor3"")",NA,NA,NA,NA,NA,NA,NA,NA,NA,NA,NA,NA,NA,NA,NA,NA,NA,NA,NA
fd233,Shallow Question,html.Page,2_10_0_0,NA,NA,form submission,10081.200000763,523509.20000076003,523507.8,523524.5,533605.70000076,533605.80000019,2024-04-08T12:29:06Z,533607.96,Spionage,upelelezi,s,maslahi,utokazo,magangao,utokazo,NA,NA,"c(""distractor1"", ""distractor2"", ""distractor3"")",NA,NA,NA,NA,NA,NA,NA,NA,NA,NA,NA,NA,NA,NA,NA,NA,NA,NA,NA
fd233,Save data screen,canvas.Screen,2_10_0_1,NA,NA,timeout,499.94000000006,533607.40000057,533607.96,533607.96,534091.2,534091.90000057,2024-04-08T12:29:06Z,534107.9,Spionage,upelelezi,s,maslahi,utokazo,magangao,NA,NA,0,"c(""distractor1"", ""distractor2"", ""distractor3"")",NA,NA,NA,NA,NA,NA,NA,NA,NA,NA,NA,NA,NA,NA,NA,NA,NA,NA,NA
fd233,shallow,flow.Sequence,2_10_0,NA,NA,completion,10566.7,523509.20000076003,523507.8,523524.5,534091.2,534092.20000076,2024-04-08T12:29:06Z,534107.9,Spionage,upelelezi,s,maslahi,utokazo,magangao,NA,NA,NA,"c(""distractor1"", ""distractor2"", ""distractor3"")",NA,NA,NA,NA,NA,NA,NA,NA,NA,NA,NA,NA,NA,NA,NA,NA,NA,NA,NA
fd233,task,flow.Sequence,2_10,NA,NA,completion,10566.7,523509.10000038,523507.8,523524.5,534091.2,534092.40000057,2024-04-08T12:29:06Z,534107.9,Spionage,upelelezi,s,maslahi,utokazo,magangao,NA,NA,NA,"c(""distractor1"", ""distractor2"", ""distractor3"")",NA,NA,NA,NA,NA,NA,NA,NA,NA,NA,NA,NA,NA,NA,NA,NA,NA,NA,NA
fd233,Shallow Question,html.Page,2_11_0_0,NA,NA,form submission,8686.1,534092.5,534091.2,534107.9,542794,542794.20000076,2024-04-08T12:29:15Z,542808,Vermutung,udhanifu,d,haramia,tikisho,itifaki,udhanifu,NA,NA,"c(""distractor1"", ""distractor2"", ""distractor3"")",NA,NA,NA,NA,NA,NA,NA,NA,NA,NA,NA,NA,NA,NA,NA,NA,NA,NA,NA
fd233,Save data screen,canvas.Screen,2_11_0_1,NA,NA,timeout,499.90000000002,542795.80000019,542791.238,542808,543291.3,543291.90000057,2024-04-08T12:29:16Z,543307.9,Vermutung,udhanifu,d,haramia,tikisho,itifaki,NA,NA,1,"c(""distractor1"", ""distractor2"", ""distractor3"")",NA,NA,NA,NA,NA,NA,NA,NA,NA,NA,NA,NA,NA,NA,NA,NA,NA,NA,NA
fd233,shallow,flow.Sequence,2_11_0,NA,NA,completion,9183.4,534092.5,534091.2,534107.9,543291.3,543292.20000076,2024-04-08T12:29:16Z,543307.9,Vermutung,udhanifu,d,haramia,tikisho,itifaki,NA,NA,NA,"c(""distractor1"", ""distractor2"", ""distractor3"")",NA,NA,NA,NA,NA,NA,NA,NA,NA,NA,NA,NA,NA,NA,NA,NA,NA,NA,NA
fd233,task,flow.Sequence,2_11,NA,NA,completion,9183.4,534092.5,534091.2,534107.9,543291.3,543292.30000019,2024-04-08T12:29:16Z,543307.9,Vermutung,udhanifu,d,haramia,tikisho,itifaki,NA,NA,NA,"c(""distractor1"", ""distractor2"", ""distractor3"")",NA,NA,NA,NA,NA,NA,NA,NA,NA,NA,NA,NA,NA,NA,NA,NA,NA,NA,NA
fd233,Shallow Question,html.Page,2_12_0_0,NA,NA,form submission,9035.2000003814,543292.40000057,543291.3,543307.9,552343.10000038,552343.30000019,2024-04-08T12:29:25Z,552357.9,Hoffnung,matarajio,d,kutaalamika,uratibu,mvumbuzi,uratibu,NA,NA,"c(""distractor1"", ""distractor2"", ""distractor3"")",NA,NA,NA,NA,NA,NA,NA,NA,NA,NA,NA,NA,NA,NA,NA,NA,NA,NA,NA
fd233,Save data screen,canvas.Screen,2_12_0_1,NA,NA,timeout,500,552344.90000057,552341.32,552357.9,552841.2,552841.90000057,2024-04-08T12:29:25Z,552857.9,Hoffnung,matarajio,d,kutaalamika,uratibu,mvumbuzi,NA,NA,0,"c(""distractor1"", ""distractor2"", ""distractor3"")",NA,NA,NA,NA,NA,NA,NA,NA,NA,NA,NA,NA,NA,NA,NA,NA,NA,NA,NA
fd233,shallow,flow.Sequence,2_12_0,NA,NA,completion,9533.2999999999,543292.40000057,543291.3,543307.9,552841.2,552842.20000076,2024-04-08T12:29:25Z,552857.9,Hoffnung,matarajio,d,kutaalamika,uratibu,mvumbuzi,NA,NA,NA,"c(""distractor1"", ""distractor2"", ""distractor3"")",NA,NA,NA,NA,NA,NA,NA,NA,NA,NA,NA,NA,NA,NA,NA,NA,NA,NA,NA
fd233,task,flow.Sequence,2_12,NA,NA,completion,9533.2999999999,543292.40000057,543291.3,543307.9,552841.2,552842.30000019,2024-04-08T12:29:25Z,552857.9,Hoffnung,matarajio,d,kutaalamika,uratibu,mvumbuzi,NA,NA,NA,"c(""distractor1"", ""distractor2"", ""distractor3"")",NA,NA,NA,NA,NA,NA,NA,NA,NA,NA,NA,NA,NA,NA,NA,NA,NA,NA,NA
fd233,Shallow Question,html.Page,2_13_0_0,NA,NA,form submission,18640.000000572,552842.5,552841.2,552857.9,571497.90000057,571498.10000038,2024-04-08T12:29:44Z,571508,Toleranz,kuvumiliana,s,maombolezo,ujasusi,mchekeshaji,mchekeshaji,NA,NA,"c(""distractor1"", ""distractor2"", ""distractor3"")",NA,NA,NA,NA,NA,NA,NA,NA,NA,NA,NA,NA,NA,NA,NA,NA,NA,NA,NA
fd233,Save data screen,canvas.Screen,2_13_0_1,NA,NA,timeout,499.90000000002,571499.70000076,571491.24,571508,571991.1,571992,2024-04-08T12:29:44Z,572007.9,Toleranz,kuvumiliana,s,maombolezo,ujasusi,mchekeshaji,NA,NA,0,"c(""distractor1"", ""distractor2"", ""distractor3"")",NA,NA,NA,NA,NA,NA,NA,NA,NA,NA,NA,NA,NA,NA,NA,NA,NA,NA,NA
fd233,shallow,flow.Sequence,2_13_0,NA,NA,completion,19133.2,552842.40000057,552841.2,552857.9,571991.1,571992.20000076,2024-04-08T12:29:44Z,572007.9,Toleranz,kuvumiliana,s,maombolezo,ujasusi,mchekeshaji,NA,NA,NA,"c(""distractor1"", ""distractor2"", ""distractor3"")",NA,NA,NA,NA,NA,NA,NA,NA,NA,NA,NA,NA,NA,NA,NA,NA,NA,NA,NA
fd233,task,flow.Sequence,2_13,NA,NA,completion,19133.2,552842.40000057,552841.2,552857.9,571991.1,571992.40000057,2024-04-08T12:29:44Z,572007.9,Toleranz,kuvumiliana,s,maombolezo,ujasusi,mchekeshaji,NA,NA,NA,"c(""distractor1"", ""distractor2"", ""distractor3"")",NA,NA,NA,NA,NA,NA,NA,NA,NA,NA,NA,NA,NA,NA,NA,NA,NA,NA,NA
fd233,Shallow Question,html.Page,2_14_0_0,NA,NA,form submission,7680.0000005722,571992.5,571991.1,572007.9,579687.90000057,579688.10000038,2024-04-08T12:29:52Z,579691.1,Notfall,dharura,d,rairai,malalamiko,ahueni,ahueni,NA,NA,"c(""distractor1"", ""distractor2"", ""distractor3"")",NA,NA,NA,NA,NA,NA,NA,NA,NA,NA,NA,NA,NA,NA,NA,NA,NA,NA,NA
fd233,Save data screen,canvas.Screen,2_14_0_1,NA,NA,timeout,500.09999999998,579689.70000076,579674.63,579691.1,580174.5,580175.5,2024-04-08T12:29:52Z,580191.2,Notfall,dharura,d,rairai,malalamiko,ahueni,NA,NA,0,"c(""distractor1"", ""distractor2"", ""distractor3"")",NA,NA,NA,NA,NA,NA,NA,NA,NA,NA,NA,NA,NA,NA,NA,NA,NA,NA,NA
fd233,shallow,flow.Sequence,2_14_0,NA,NA,completion,8166.6,571992.5,571991.1,572007.9,580174.5,580175.80000019,2024-04-08T12:29:52Z,580191.2,Notfall,dharura,d,rairai,malalamiko,ahueni,NA,NA,NA,"c(""distractor1"", ""distractor2"", ""distractor3"")",NA,NA,NA,NA,NA,NA,NA,NA,NA,NA,NA,NA,NA,NA,NA,NA,NA,NA,NA
fd233,task,flow.Sequence,2_14,NA,NA,completion,8166.6,571992.5,571991.1,572007.9,580174.5,580175.80000019,2024-04-08T12:29:52Z,580191.2,Notfall,dharura,d,rairai,malalamiko,ahueni,NA,NA,NA,"c(""distractor1"", ""distractor2"", ""distractor3"")",NA,NA,NA,NA,NA,NA,NA,NA,NA,NA,NA,NA,NA,NA,NA,NA,NA,NA,NA
fd233,Shallow Question,html.Page,2_15_0_0,NA,NA,form submission,7850.6000001908,580176,580174.5,580191.2,588041.80000019,588042,2024-04-08T12:30:00Z,588057.8,Wohlstand,mafanikio,s,chimbuko,kumbuko,mapwaji,mapwaji,NA,NA,"c(""distractor1"", ""distractor2"", ""distractor3"")",NA,NA,NA,NA,NA,NA,NA,NA,NA,NA,NA,NA,NA,NA,NA,NA,NA,NA,NA
fd233,Save data screen,canvas.Screen,2_15_0_1,NA,NA,timeout,500,588043.70000076,588041.258,588057.8,588541.1,588541.80000019,2024-04-08T12:30:01Z,588557.8,Wohlstand,mafanikio,s,chimbuko,kumbuko,mapwaji,NA,NA,0,"c(""distractor1"", ""distractor2"", ""distractor3"")",NA,NA,NA,NA,NA,NA,NA,NA,NA,NA,NA,NA,NA,NA,NA,NA,NA,NA,NA
fd233,shallow,flow.Sequence,2_15_0,NA,NA,completion,8349.9,580176,580174.5,580191.2,588541.1,588542,2024-04-08T12:30:01Z,588557.8,Wohlstand,mafanikio,s,chimbuko,kumbuko,mapwaji,NA,NA,NA,"c(""distractor1"", ""distractor2"", ""distractor3"")",NA,NA,NA,NA,NA,NA,NA,NA,NA,NA,NA,NA,NA,NA,NA,NA,NA,NA,NA
fd233,task,flow.Sequence,2_15,NA,NA,completion,8349.9,580176,580174.5,580191.2,588541.1,588542.10000038,2024-04-08T12:30:01Z,588557.8,Wohlstand,mafanikio,s,chimbuko,kumbuko,mapwaji,NA,NA,NA,"c(""distractor1"", ""distractor2"", ""distractor3"")",NA,NA,NA,NA,NA,NA,NA,NA,NA,NA,NA,NA,NA,NA,NA,NA,NA,NA,NA
fd233,retrieval block 2 (multiple choice),flow.Loop,2,NA,NA,completion,218316.5,370209.5,370207.9,370224.6,588541.1,588542.20000076,2024-04-08T12:30:01Z,588557.8,NA,NA,NA,NA,NA,NA,NA,NA,NA,"c(""distractor1"", ""distractor2"", ""distractor3"")",NA,NA,NA,NA,NA,NA,NA,NA,NA,NA,NA,NA,NA,NA,NA,NA,NA,NA,NA
fd233,End,canvas.Screen,3,NA,keypress(Space),response,2531.2,588542.30000019,588541.1,588557.8,591089,591090.10000038,2024-04-08T12:30:03Z,591091.2,NA,NA,NA,NA,NA,NA,NA,NA,NA,NULL,NA,NA,NA,NA,NA,NA,NA,NA,NA,NA,NA,NA,NA,NA,NA,NA,NA,NA,NA
fd233,root,flow.Sequence,NA,NA,NA,completion,590714.4,363.4000005722,357.792,374.6,591089,591090.80000019,2024-04-08T12:30:03Z,591091.2,NA,NA,NA,NA,NA,NA,NA,NA,NA,NULL,NA,NA,NA,NA,NA,NA,NA,NA,NA,NA,NA,NA,NA,NA,NA,NA,NA,NA,NA
3db4f,Introduction delayed retrieval,canvas.Screen,0,weiter,keypress(Space),response,17378.300000763,854.80000019073,846.718,863.4,18241.700000763,18245,2024-04-06T10:13:06Z,18246.8,NA,NA,NA,NA,NA,NA,NA,NA,NA,NA,154,4,20.2.4,https://neurocog.fernuni.ch/studies/vweber/jbaenninger/delayed/index.html?vp=154&sess=4,"Mozilla/5.0 (Windows NT 10.0; Win64; x64) AppleWebKit/537.36 (KHTML, like Gecko) Chrome/123.0.0.0 Safari/537.36 Edg/123.0.0.0",Win32,de,de-CH,Europe/Zurich,-120,1920,1080,1872,910,1872,958,1,production,f5b4a49f956347addd546a832a3327688c2c0fef
