observation,sender,sender_type,sender_id,response,response_action,ended_on,duration,time_run,time_render,time_show,time_end,time_commit,timestamp,time_switch,german,swahili,enc,distractor1,distractor2,distractor3,response_2,x,correct,distractors,url_vp,url_sess,meta_labjs_version,meta_location,meta_user_agent,meta_platform,meta_language,meta_locale,meta_time_zone,meta_timezone_offset,meta_screen_width,meta_screen_height,meta_scroll_width,meta_scroll_height,meta_window_inner_width,meta_window_inner_height,meta_device_pixel_ratio,meta_labjs_build_flavor,meta_labjs_build_commit
c1c16,Introduction delayed retrieval,canvas.Screen,0,weiter,keypress(Space),response,13852,352,364,399,14216,14238,2023-04-14T10:02:43Z,14278,NA,NA,NA,NA,NA,NA,NA,NA,NA,NULL,201,4,20.2.4,https://neurocog.fernuni.ch/studies/vweber/sfink/delayed/index.html?vp=201&sess=4,"Mozilla/5.0 (Macintosh; Intel Mac OS X 10_15_7) AppleWebKit/605.1.15 (KHTML, like Gecko) Version/16.4 Safari/605.1.15",MacIntel,de-DE,de-DE,Europe/Zurich,-120,1792,1120,1294,916,1294,964,2,production,f5b4a49f956347addd546a832a3327688c2c0fef
c1c16,Deep Question,html.Page,1_0_0_0,NA,NA,form submission,3720,14239,14260,14278,17998,17999,2023-04-14T10:02:47Z,18045,Betrüger,mdanganyifu,s,mwanamuziki,wastani,mahakama,ilibizi,NA,NA,NULL,NA,NA,NA,NA,NA,NA,NA,NA,NA,NA,NA,NA,NA,NA,NA,NA,NA,NA,NA
c1c16,Save data screen,canvas.Screen,1_0_0_1,NA,NA,timeout,499,18000,18011,18045,18512,18513,2023-04-14T10:02:47Z,18544,Betrüger,mdanganyifu,s,mwanamuziki,wastani,mahakama,NA,NA,0,NULL,NA,NA,NA,NA,NA,NA,NA,NA,NA,NA,NA,NA,NA,NA,NA,NA,NA,NA,NA
c1c16,deep,flow.Sequence,1_0_0,NA,NA,completion,4234,14239,14260,14278,18512,18513,2023-04-14T10:02:47Z,18544,Betrüger,mdanganyifu,s,mwanamuziki,wastani,mahakama,NA,NA,NA,NULL,NA,NA,NA,NA,NA,NA,NA,NA,NA,NA,NA,NA,NA,NA,NA,NA,NA,NA,NA
c1c16,task,flow.Sequence,1_0,NA,NA,completion,4234,14239,14260,14278,18512,18513,2023-04-14T10:02:47Z,18544,Betrüger,mdanganyifu,s,mwanamuziki,wastani,mahakama,NA,NA,NA,NULL,NA,NA,NA,NA,NA,NA,NA,NA,NA,NA,NA,NA,NA,NA,NA,NA,NA,NA,NA
c1c16,Deep Question,html.Page,1_1_0_0,NA,NA,form submission,6265,18513,18512,18544,24809,24809,2023-04-14T10:02:54Z,24861,Respekt,heshima,d,changamnao,upinzani,ufanisi,bindasi,NA,NA,NULL,NA,NA,NA,NA,NA,NA,NA,NA,NA,NA,NA,NA,NA,NA,NA,NA,NA,NA,NA
c1c16,Save data screen,canvas.Screen,1_1_0_1,NA,NA,timeout,500,24810,24828,24861,25328,25329,2023-04-14T10:02:54Z,25361,Respekt,heshima,d,changamnao,upinzani,ufanisi,NA,NA,0,NULL,NA,NA,NA,NA,NA,NA,NA,NA,NA,NA,NA,NA,NA,NA,NA,NA,NA,NA,NA
c1c16,deep,flow.Sequence,1_1_0,NA,NA,completion,6784,18513,18512,18544,25328,25329,2023-04-14T10:02:54Z,25361,Respekt,heshima,d,changamnao,upinzani,ufanisi,NA,NA,NA,NULL,NA,NA,NA,NA,NA,NA,NA,NA,NA,NA,NA,NA,NA,NA,NA,NA,NA,NA,NA
c1c16,task,flow.Sequence,1_1,NA,NA,completion,6784,18513,18512,18544,25328,25329,2023-04-14T10:02:54Z,25361,Respekt,heshima,d,changamnao,upinzani,ufanisi,NA,NA,NA,NULL,NA,NA,NA,NA,NA,NA,NA,NA,NA,NA,NA,NA,NA,NA,NA,NA,NA,NA,NA
c1c16,Deep Question,html.Page,1_2_0_0,NA,NA,form submission,5683,25329,25328,25361,31044,31044,2023-04-14T10:03:00Z,31094,Begegnung,kukutana,s,mmasihiya,mpiganaji,husiano,d,NA,NA,NULL,NA,NA,NA,NA,NA,NA,NA,NA,NA,NA,NA,NA,NA,NA,NA,NA,NA,NA,NA
c1c16,Save data screen,canvas.Screen,1_2_0_1,NA,NA,timeout,501,31045,31061,31094,31562,31562,2023-04-14T10:03:01Z,31595,Begegnung,kukutana,s,mmasihiya,mpiganaji,husiano,NA,NA,0,NULL,NA,NA,NA,NA,NA,NA,NA,NA,NA,NA,NA,NA,NA,NA,NA,NA,NA,NA,NA
c1c16,deep,flow.Sequence,1_2_0,NA,NA,completion,6201,25329,25328,25361,31562,31562,2023-04-14T10:03:01Z,31595,Begegnung,kukutana,s,mmasihiya,mpiganaji,husiano,NA,NA,NA,NULL,NA,NA,NA,NA,NA,NA,NA,NA,NA,NA,NA,NA,NA,NA,NA,NA,NA,NA,NA
c1c16,task,flow.Sequence,1_2,NA,NA,completion,6201,25329,25328,25361,31562,31563,2023-04-14T10:03:01Z,31595,Begegnung,kukutana,s,mmasihiya,mpiganaji,husiano,NA,NA,NA,NULL,NA,NA,NA,NA,NA,NA,NA,NA,NA,NA,NA,NA,NA,NA,NA,NA,NA,NA,NA
c1c16,Deep Question,html.Page,1_3_0_0,NA,NA,form submission,3582,31563,31562,31595,35177,35178,2023-04-14T10:03:04Z,35244,Flexibilität,kubadilika,s,enjini,usikilivu,hesabu,f,NA,NA,NULL,NA,NA,NA,NA,NA,NA,NA,NA,NA,NA,NA,NA,NA,NA,NA,NA,NA,NA,NA
c1c16,Save data screen,canvas.Screen,1_3_0_1,NA,NA,timeout,500,35178,35212,35244,35712,35712,2023-04-14T10:03:05Z,35744,Flexibilität,kubadilika,s,enjini,usikilivu,hesabu,NA,NA,0,NULL,NA,NA,NA,NA,NA,NA,NA,NA,NA,NA,NA,NA,NA,NA,NA,NA,NA,NA,NA
c1c16,deep,flow.Sequence,1_3_0,NA,NA,completion,4117,31563,31562,31595,35712,35713,2023-04-14T10:03:05Z,35744,Flexibilität,kubadilika,s,enjini,usikilivu,hesabu,NA,NA,NA,NULL,NA,NA,NA,NA,NA,NA,NA,NA,NA,NA,NA,NA,NA,NA,NA,NA,NA,NA,NA
c1c16,task,flow.Sequence,1_3,NA,NA,completion,4117,31563,31562,31595,35712,35713,2023-04-14T10:03:05Z,35744,Flexibilität,kubadilika,s,enjini,usikilivu,hesabu,NA,NA,NA,NULL,NA,NA,NA,NA,NA,NA,NA,NA,NA,NA,NA,NA,NA,NA,NA,NA,NA,NA,NA
c1c16,Deep Question,html.Page,1_4_0_0,NA,NA,form submission,3287,35713,35712,35744,39031,39032,2023-04-14T10:03:08Z,39095,Vorwurf,mashtaka,s,msukumo,mtangulizi,uenyekiti,e,NA,NA,NULL,NA,NA,NA,NA,NA,NA,NA,NA,NA,NA,NA,NA,NA,NA,NA,NA,NA,NA,NA
c1c16,Save data screen,canvas.Screen,1_4_0_1,NA,NA,timeout,500,39032,39061,39095,39561,39562,2023-04-14T10:03:09Z,39595,Vorwurf,mashtaka,s,msukumo,mtangulizi,uenyekiti,NA,NA,0,NULL,NA,NA,NA,NA,NA,NA,NA,NA,NA,NA,NA,NA,NA,NA,NA,NA,NA,NA,NA
c1c16,deep,flow.Sequence,1_4_0,NA,NA,completion,3817,35713,35712,35744,39561,39562,2023-04-14T10:03:09Z,39595,Vorwurf,mashtaka,s,msukumo,mtangulizi,uenyekiti,NA,NA,NA,NULL,NA,NA,NA,NA,NA,NA,NA,NA,NA,NA,NA,NA,NA,NA,NA,NA,NA,NA,NA
c1c16,task,flow.Sequence,1_4,NA,NA,completion,3817,35713,35712,35744,39561,39563,2023-04-14T10:03:09Z,39595,Vorwurf,mashtaka,s,msukumo,mtangulizi,uenyekiti,NA,NA,NA,NULL,NA,NA,NA,NA,NA,NA,NA,NA,NA,NA,NA,NA,NA,NA,NA,NA,NA,NA,NA
c1c16,Deep Question,html.Page,1_5_0_0,NA,NA,form submission,5926,39563,39561,39595,45521,45521,2023-04-14T10:03:14Z,45578,Papier,karatasi,d,uchambuzi,usalama,kukataliwa,undasi,NA,NA,NULL,NA,NA,NA,NA,NA,NA,NA,NA,NA,NA,NA,NA,NA,NA,NA,NA,NA,NA,NA
c1c16,Save data screen,canvas.Screen,1_5_0_1,NA,NA,timeout,501,45522,45544,45578,46045,46045,2023-04-14T10:03:15Z,46079,Papier,karatasi,d,uchambuzi,usalama,kukataliwa,NA,NA,0,NULL,NA,NA,NA,NA,NA,NA,NA,NA,NA,NA,NA,NA,NA,NA,NA,NA,NA,NA,NA
c1c16,deep,flow.Sequence,1_5_0,NA,NA,completion,6450,39563,39561,39595,46045,46046,2023-04-14T10:03:15Z,46079,Papier,karatasi,d,uchambuzi,usalama,kukataliwa,NA,NA,NA,NULL,NA,NA,NA,NA,NA,NA,NA,NA,NA,NA,NA,NA,NA,NA,NA,NA,NA,NA,NA
c1c16,task,flow.Sequence,1_5,NA,NA,completion,6450,39563,39561,39595,46045,46046,2023-04-14T10:03:15Z,46079,Papier,karatasi,d,uchambuzi,usalama,kukataliwa,NA,NA,NA,NULL,NA,NA,NA,NA,NA,NA,NA,NA,NA,NA,NA,NA,NA,NA,NA,NA,NA,NA,NA
c1c16,Deep Question,html.Page,1_6_0_0,NA,NA,form submission,3663,46046,46045,46079,49742,49742,2023-04-14T10:03:19Z,49794,Genehmigung,idhini,s,mwanamke,itikadi,fedheha,biliwai,NA,NA,NULL,NA,NA,NA,NA,NA,NA,NA,NA,NA,NA,NA,NA,NA,NA,NA,NA,NA,NA,NA
c1c16,Save data screen,canvas.Screen,1_6_0_1,NA,NA,timeout,500,49743,49762,49794,50261,50261,2023-04-14T10:03:19Z,50294,Genehmigung,idhini,s,mwanamke,itikadi,fedheha,NA,NA,0,NULL,NA,NA,NA,NA,NA,NA,NA,NA,NA,NA,NA,NA,NA,NA,NA,NA,NA,NA,NA
c1c16,deep,flow.Sequence,1_6_0,NA,NA,completion,4182,46046,46045,46079,50261,50262,2023-04-14T10:03:19Z,50294,Genehmigung,idhini,s,mwanamke,itikadi,fedheha,NA,NA,NA,NULL,NA,NA,NA,NA,NA,NA,NA,NA,NA,NA,NA,NA,NA,NA,NA,NA,NA,NA,NA
c1c16,task,flow.Sequence,1_6,NA,NA,completion,4182,46046,46045,46079,50261,50262,2023-04-14T10:03:19Z,50294,Genehmigung,idhini,s,mwanamke,itikadi,fedheha,NA,NA,NA,NULL,NA,NA,NA,NA,NA,NA,NA,NA,NA,NA,NA,NA,NA,NA,NA,NA,NA,NA,NA
c1c16,Deep Question,html.Page,1_7_0_0,NA,NA,form submission,1754,50262,50261,50294,52048,52049,2023-04-14T10:03:21Z,52111,Erneuerung,ukarabati,d,ushawishi,ukalifu,unyonyaji,e,NA,NA,NULL,NA,NA,NA,NA,NA,NA,NA,NA,NA,NA,NA,NA,NA,NA,NA,NA,NA,NA,NA
c1c16,Save data screen,canvas.Screen,1_7_0_1,NA,NA,timeout,500,52050,52079,52111,52578,52579,2023-04-14T10:03:22Z,52611,Erneuerung,ukarabati,d,ushawishi,ukalifu,unyonyaji,NA,NA,0,NULL,NA,NA,NA,NA,NA,NA,NA,NA,NA,NA,NA,NA,NA,NA,NA,NA,NA,NA,NA
c1c16,deep,flow.Sequence,1_7_0,NA,NA,completion,2284,50262,50261,50294,52578,52579,2023-04-14T10:03:22Z,52611,Erneuerung,ukarabati,d,ushawishi,ukalifu,unyonyaji,NA,NA,NA,NULL,NA,NA,NA,NA,NA,NA,NA,NA,NA,NA,NA,NA,NA,NA,NA,NA,NA,NA,NA
c1c16,task,flow.Sequence,1_7,NA,NA,completion,2284,50262,50261,50294,52578,52579,2023-04-14T10:03:22Z,52611,Erneuerung,ukarabati,d,ushawishi,ukalifu,unyonyaji,NA,NA,NA,NULL,NA,NA,NA,NA,NA,NA,NA,NA,NA,NA,NA,NA,NA,NA,NA,NA,NA,NA,NA
c1c16,Deep Question,html.Page,1_8_0_0,NA,NA,form submission,3807,52579,52578,52611,56418,56418,2023-04-14T10:03:25Z,56462,Orientierung,urekebisho,d,uelekeo,marekebisho,utunzaji,o,NA,NA,NULL,NA,NA,NA,NA,NA,NA,NA,NA,NA,NA,NA,NA,NA,NA,NA,NA,NA,NA,NA
c1c16,Save data screen,canvas.Screen,1_8_0_1,NA,NA,timeout,499,56419,56428,56462,56929,56929,2023-04-14T10:03:26Z,56961,Orientierung,urekebisho,d,uelekeo,marekebisho,utunzaji,NA,NA,0,NULL,NA,NA,NA,NA,NA,NA,NA,NA,NA,NA,NA,NA,NA,NA,NA,NA,NA,NA,NA
c1c16,deep,flow.Sequence,1_8_0,NA,NA,completion,4318,52579,52578,52611,56929,56929,2023-04-14T10:03:26Z,56961,Orientierung,urekebisho,d,uelekeo,marekebisho,utunzaji,NA,NA,NA,NULL,NA,NA,NA,NA,NA,NA,NA,NA,NA,NA,NA,NA,NA,NA,NA,NA,NA,NA,NA
c1c16,task,flow.Sequence,1_8,NA,NA,completion,4318,52579,52578,52611,56929,56929,2023-04-14T10:03:26Z,56961,Orientierung,urekebisho,d,uelekeo,marekebisho,utunzaji,NA,NA,NA,NULL,NA,NA,NA,NA,NA,NA,NA,NA,NA,NA,NA,NA,NA,NA,NA,NA,NA,NA,NA
c1c16,Deep Question,html.Page,1_9_0_0,NA,NA,form submission,4490,56929,56929,56961,61451,61451,2023-04-14T10:03:30Z,61511,Niveau,kiwango,d,usimamizi,mwamali,mshairi,n,NA,NA,NULL,NA,NA,NA,NA,NA,NA,NA,NA,NA,NA,NA,NA,NA,NA,NA,NA,NA,NA,NA
c1c16,Save data screen,canvas.Screen,1_9_0_1,NA,NA,timeout,500,61452,61479,61511,61978,61978,2023-04-14T10:03:31Z,62011,Niveau,kiwango,d,usimamizi,mwamali,mshairi,NA,NA,0,NULL,NA,NA,NA,NA,NA,NA,NA,NA,NA,NA,NA,NA,NA,NA,NA,NA,NA,NA,NA
c1c16,deep,flow.Sequence,1_9_0,NA,NA,completion,5017,56929,56929,56961,61978,61978,2023-04-14T10:03:31Z,62011,Niveau,kiwango,d,usimamizi,mwamali,mshairi,NA,NA,NA,NULL,NA,NA,NA,NA,NA,NA,NA,NA,NA,NA,NA,NA,NA,NA,NA,NA,NA,NA,NA
c1c16,task,flow.Sequence,1_9,NA,NA,completion,5017,56929,56929,56961,61978,61978,2023-04-14T10:03:31Z,62011,Niveau,kiwango,d,usimamizi,mwamali,mshairi,NA,NA,NA,NULL,NA,NA,NA,NA,NA,NA,NA,NA,NA,NA,NA,NA,NA,NA,NA,NA,NA,NA,NA
c1c16,Deep Question,html.Page,1_10_0_0,NA,NA,form submission,3180,61979,61978,62011,65191,65191,2023-04-14T10:03:34Z,65245,Integrität,uadilifu,d,muungano,mtiririko,upunguaji,i,NA,NA,NULL,NA,NA,NA,NA,NA,NA,NA,NA,NA,NA,NA,NA,NA,NA,NA,NA,NA,NA,NA
c1c16,Save data screen,canvas.Screen,1_10_0_1,NA,NA,timeout,500,65192,65212,65245,65711,65712,2023-04-14T10:03:35Z,65745,Integrität,uadilifu,d,muungano,mtiririko,upunguaji,NA,NA,0,NULL,NA,NA,NA,NA,NA,NA,NA,NA,NA,NA,NA,NA,NA,NA,NA,NA,NA,NA,NA
c1c16,deep,flow.Sequence,1_10_0,NA,NA,completion,3700,61979,61978,62011,65711,65712,2023-04-14T10:03:35Z,65745,Integrität,uadilifu,d,muungano,mtiririko,upunguaji,NA,NA,NA,NULL,NA,NA,NA,NA,NA,NA,NA,NA,NA,NA,NA,NA,NA,NA,NA,NA,NA,NA,NA
c1c16,task,flow.Sequence,1_10,NA,NA,completion,3700,61979,61978,62011,65711,65712,2023-04-14T10:03:35Z,65745,Integrität,uadilifu,d,muungano,mtiririko,upunguaji,NA,NA,NA,NULL,NA,NA,NA,NA,NA,NA,NA,NA,NA,NA,NA,NA,NA,NA,NA,NA,NA,NA,NA
c1c16,Deep Question,html.Page,1_11_0_0,NA,NA,form submission,4731,65712,65711,65745,70476,70476,2023-04-14T10:03:39Z,70528,Atmosphäre,angahewa,s,kuteseka,usahihi,kutoamini,a,NA,NA,NULL,NA,NA,NA,NA,NA,NA,NA,NA,NA,NA,NA,NA,NA,NA,NA,NA,NA,NA,NA
c1c16,Save data screen,canvas.Screen,1_11_0_1,NA,NA,timeout,500,70477,70495,70528,70995,70996,2023-04-14T10:03:40Z,71028,Atmosphäre,angahewa,s,kuteseka,usahihi,kutoamini,NA,NA,0,NULL,NA,NA,NA,NA,NA,NA,NA,NA,NA,NA,NA,NA,NA,NA,NA,NA,NA,NA,NA
c1c16,deep,flow.Sequence,1_11_0,NA,NA,completion,5250,65712,65711,65745,70995,70996,2023-04-14T10:03:40Z,71028,Atmosphäre,angahewa,s,kuteseka,usahihi,kutoamini,NA,NA,NA,NULL,NA,NA,NA,NA,NA,NA,NA,NA,NA,NA,NA,NA,NA,NA,NA,NA,NA,NA,NA
c1c16,task,flow.Sequence,1_11,NA,NA,completion,5250,65712,65711,65745,70995,70996,2023-04-14T10:03:40Z,71028,Atmosphäre,angahewa,s,kuteseka,usahihi,kutoamini,NA,NA,NA,NULL,NA,NA,NA,NA,NA,NA,NA,NA,NA,NA,NA,NA,NA,NA,NA,NA,NA,NA,NA
c1c16,Deep Question,html.Page,1_12_0_0,NA,NA,form submission,5015,70997,70995,71028,76043,76043,2023-04-14T10:03:45Z,76095,Stimmung,kinyongo,s,kilekile,kisambo,madhehebu,nu,NA,NA,NULL,NA,NA,NA,NA,NA,NA,NA,NA,NA,NA,NA,NA,NA,NA,NA,NA,NA,NA,NA
c1c16,Save data screen,canvas.Screen,1_12_0_1,NA,NA,timeout,500,76044,76061,76095,76562,76562,2023-04-14T10:03:46Z,76595,Stimmung,kinyongo,s,kilekile,kisambo,madhehebu,NA,NA,0,NULL,NA,NA,NA,NA,NA,NA,NA,NA,NA,NA,NA,NA,NA,NA,NA,NA,NA,NA,NA
c1c16,deep,flow.Sequence,1_12_0,NA,NA,completion,5534,70996,70995,71028,76562,76562,2023-04-14T10:03:46Z,76595,Stimmung,kinyongo,s,kilekile,kisambo,madhehebu,NA,NA,NA,NULL,NA,NA,NA,NA,NA,NA,NA,NA,NA,NA,NA,NA,NA,NA,NA,NA,NA,NA,NA
c1c16,task,flow.Sequence,1_12,NA,NA,completion,5534,70996,70995,71028,76562,76562,2023-04-14T10:03:46Z,76595,Stimmung,kinyongo,s,kilekile,kisambo,madhehebu,NA,NA,NA,NULL,NA,NA,NA,NA,NA,NA,NA,NA,NA,NA,NA,NA,NA,NA,NA,NA,NA,NA,NA
c1c16,Deep Question,html.Page,1_13_0_0,NA,NA,form submission,4723,76562,76562,76595,81318,81318,2023-04-14T10:03:50Z,81361,Fleisch,mshakiki,d,kizunguzungu,mshikamano,angusho,ve,NA,NA,NULL,NA,NA,NA,NA,NA,NA,NA,NA,NA,NA,NA,NA,NA,NA,NA,NA,NA,NA,NA
c1c16,Save data screen,canvas.Screen,1_13_0_1,NA,NA,timeout,501,81319,81329,81361,81828,81829,2023-04-14T10:03:51Z,81862,Fleisch,mshakiki,d,kizunguzungu,mshikamano,angusho,NA,NA,0,NULL,NA,NA,NA,NA,NA,NA,NA,NA,NA,NA,NA,NA,NA,NA,NA,NA,NA,NA,NA
c1c16,deep,flow.Sequence,1_13_0,NA,NA,completion,5233,76562,76562,76595,81828,81829,2023-04-14T10:03:51Z,81862,Fleisch,mshakiki,d,kizunguzungu,mshikamano,angusho,NA,NA,NA,NULL,NA,NA,NA,NA,NA,NA,NA,NA,NA,NA,NA,NA,NA,NA,NA,NA,NA,NA,NA
c1c16,task,flow.Sequence,1_13,NA,NA,completion,5233,76562,76562,76595,81828,81829,2023-04-14T10:03:51Z,81862,Fleisch,mshakiki,d,kizunguzungu,mshikamano,angusho,NA,NA,NA,NULL,NA,NA,NA,NA,NA,NA,NA,NA,NA,NA,NA,NA,NA,NA,NA,NA,NA,NA,NA
c1c16,Deep Question,html.Page,1_14_0_0,NA,NA,form submission,4631,81829,81828,81862,86493,86494,2023-04-14T10:03:55Z,86561,Entwicklung,maendeleo,s,uangavu,mshindwa,badiliko,e,NA,NA,NULL,NA,NA,NA,NA,NA,NA,NA,NA,NA,NA,NA,NA,NA,NA,NA,NA,NA,NA,NA
c1c16,Save data screen,canvas.Screen,1_14_0_1,NA,NA,timeout,501,86494,86529,86561,87028,87028,2023-04-14T10:03:56Z,87062,Entwicklung,maendeleo,s,uangavu,mshindwa,badiliko,NA,NA,0,NULL,NA,NA,NA,NA,NA,NA,NA,NA,NA,NA,NA,NA,NA,NA,NA,NA,NA,NA,NA
c1c16,deep,flow.Sequence,1_14_0,NA,NA,completion,5166,81829,81828,81862,87028,87029,2023-04-14T10:03:56Z,87062,Entwicklung,maendeleo,s,uangavu,mshindwa,badiliko,NA,NA,NA,NULL,NA,NA,NA,NA,NA,NA,NA,NA,NA,NA,NA,NA,NA,NA,NA,NA,NA,NA,NA
c1c16,task,flow.Sequence,1_14,NA,NA,completion,5166,81829,81828,81862,87028,87029,2023-04-14T10:03:56Z,87062,Entwicklung,maendeleo,s,uangavu,mshindwa,badiliko,NA,NA,NA,NULL,NA,NA,NA,NA,NA,NA,NA,NA,NA,NA,NA,NA,NA,NA,NA,NA,NA,NA,NA
c1c16,Deep Question,html.Page,1_15_0_0,NA,NA,form submission,2698,87029,87028,87062,89760,89760,2023-04-14T10:03:59Z,89812,Wechsel,ugeuzaji,d,utambulisho,kujenga,wasiwasi,w,NA,NA,NULL,NA,NA,NA,NA,NA,NA,NA,NA,NA,NA,NA,NA,NA,NA,NA,NA,NA,NA,NA
c1c16,Save data screen,canvas.Screen,1_15_0_1,NA,NA,timeout,500,89761,89779,89812,90279,90279,2023-04-14T10:03:59Z,90312,Wechsel,ugeuzaji,d,utambulisho,kujenga,wasiwasi,NA,NA,0,NULL,NA,NA,NA,NA,NA,NA,NA,NA,NA,NA,NA,NA,NA,NA,NA,NA,NA,NA,NA
c1c16,deep,flow.Sequence,1_15_0,NA,NA,completion,3217,87029,87028,87062,90279,90279,2023-04-14T10:03:59Z,90312,Wechsel,ugeuzaji,d,utambulisho,kujenga,wasiwasi,NA,NA,NA,NULL,NA,NA,NA,NA,NA,NA,NA,NA,NA,NA,NA,NA,NA,NA,NA,NA,NA,NA,NA
c1c16,task,flow.Sequence,1_15,NA,NA,completion,3217,87029,87028,87062,90279,90280,2023-04-14T10:03:59Z,90312,Wechsel,ugeuzaji,d,utambulisho,kujenga,wasiwasi,NA,NA,NA,NULL,NA,NA,NA,NA,NA,NA,NA,NA,NA,NA,NA,NA,NA,NA,NA,NA,NA,NA,NA
c1c16,retrieval block 1 (cued recall),flow.Loop,1,NA,NA,completion,76001,14239,14260,14278,90279,90280,2023-04-14T10:03:59Z,90312,NA,NA,NA,NA,NA,NA,NA,NA,NA,NULL,NA,NA,NA,NA,NA,NA,NA,NA,NA,NA,NA,NA,NA,NA,NA,NA,NA,NA,NA
c1c16,Shallow Question,html.Page,2_0_0_0,NA,NA,form submission,11787,90280,90279,90312,102099,102100,2023-04-14T10:04:11Z,102145,Flexibilität,kubadilika,s,enjini,usikilivu,hesabu,kubadilika,NA,NA,"c(""distractor1"", ""distractor2"", ""distractor3"")",NA,NA,NA,NA,NA,NA,NA,NA,NA,NA,NA,NA,NA,NA,NA,NA,NA,NA,NA
c1c16,Save data screen,canvas.Screen,2_0_0_1,NA,NA,timeout,500,102101,102111,102145,102612,102614,2023-04-14T10:04:12Z,102645,Flexibilität,kubadilika,s,enjini,usikilivu,hesabu,NA,NA,1,"c(""distractor1"", ""distractor2"", ""distractor3"")",NA,NA,NA,NA,NA,NA,NA,NA,NA,NA,NA,NA,NA,NA,NA,NA,NA,NA,NA
c1c16,shallow,flow.Sequence,2_0_0,NA,NA,completion,12300,90280,90279,90312,102612,102615,2023-04-14T10:04:12Z,102645,Flexibilität,kubadilika,s,enjini,usikilivu,hesabu,NA,NA,NA,"c(""distractor1"", ""distractor2"", ""distractor3"")",NA,NA,NA,NA,NA,NA,NA,NA,NA,NA,NA,NA,NA,NA,NA,NA,NA,NA,NA
c1c16,task,flow.Sequence,2_0,NA,NA,completion,12300,90280,90279,90312,102612,102615,2023-04-14T10:04:12Z,102645,Flexibilität,kubadilika,s,enjini,usikilivu,hesabu,NA,NA,NA,"c(""distractor1"", ""distractor2"", ""distractor3"")",NA,NA,NA,NA,NA,NA,NA,NA,NA,NA,NA,NA,NA,NA,NA,NA,NA,NA,NA
c1c16,Shallow Question,html.Page,2_1_0_0,NA,NA,form submission,10458,102615,102612,102645,113103,113104,2023-04-14T10:04:22Z,113162,Respekt,heshima,d,changamnao,upinzani,ufanisi,upinzani,NA,NA,"c(""distractor1"", ""distractor2"", ""distractor3"")",NA,NA,NA,NA,NA,NA,NA,NA,NA,NA,NA,NA,NA,NA,NA,NA,NA,NA,NA
c1c16,Save data screen,canvas.Screen,2_1_0_1,NA,NA,timeout,500,113105,113128,113162,113628,113629,2023-04-14T10:04:23Z,113662,Respekt,heshima,d,changamnao,upinzani,ufanisi,NA,NA,0,"c(""distractor1"", ""distractor2"", ""distractor3"")",NA,NA,NA,NA,NA,NA,NA,NA,NA,NA,NA,NA,NA,NA,NA,NA,NA,NA,NA
c1c16,shallow,flow.Sequence,2_1_0,NA,NA,completion,10983,102615,102612,102645,113628,113629,2023-04-14T10:04:23Z,113662,Respekt,heshima,d,changamnao,upinzani,ufanisi,NA,NA,NA,"c(""distractor1"", ""distractor2"", ""distractor3"")",NA,NA,NA,NA,NA,NA,NA,NA,NA,NA,NA,NA,NA,NA,NA,NA,NA,NA,NA
c1c16,task,flow.Sequence,2_1,NA,NA,completion,10983,102615,102612,102645,113628,113629,2023-04-14T10:04:23Z,113662,Respekt,heshima,d,changamnao,upinzani,ufanisi,NA,NA,NA,"c(""distractor1"", ""distractor2"", ""distractor3"")",NA,NA,NA,NA,NA,NA,NA,NA,NA,NA,NA,NA,NA,NA,NA,NA,NA,NA,NA
c1c16,Shallow Question,html.Page,2_2_0_0,NA,NA,form submission,5398,113629,113628,113662,119060,119060,2023-04-14T10:04:28Z,119096,Genehmigung,idhini,s,mwanamke,itikadi,fedheha,idhini,NA,NA,"c(""distractor1"", ""distractor2"", ""distractor3"")",NA,NA,NA,NA,NA,NA,NA,NA,NA,NA,NA,NA,NA,NA,NA,NA,NA,NA,NA
c1c16,Save data screen,canvas.Screen,2_2_0_1,NA,NA,timeout,499,119061,119065,119096,119562,119563,2023-04-14T10:04:29Z,119595,Genehmigung,idhini,s,mwanamke,itikadi,fedheha,NA,NA,1,"c(""distractor1"", ""distractor2"", ""distractor3"")",NA,NA,NA,NA,NA,NA,NA,NA,NA,NA,NA,NA,NA,NA,NA,NA,NA,NA,NA
c1c16,shallow,flow.Sequence,2_2_0,NA,NA,completion,5900,113629,113628,113662,119562,119563,2023-04-14T10:04:29Z,119595,Genehmigung,idhini,s,mwanamke,itikadi,fedheha,NA,NA,NA,"c(""distractor1"", ""distractor2"", ""distractor3"")",NA,NA,NA,NA,NA,NA,NA,NA,NA,NA,NA,NA,NA,NA,NA,NA,NA,NA,NA
c1c16,task,flow.Sequence,2_2,NA,NA,completion,5900,113629,113628,113662,119562,119563,2023-04-14T10:04:29Z,119595,Genehmigung,idhini,s,mwanamke,itikadi,fedheha,NA,NA,NA,"c(""distractor1"", ""distractor2"", ""distractor3"")",NA,NA,NA,NA,NA,NA,NA,NA,NA,NA,NA,NA,NA,NA,NA,NA,NA,NA,NA
c1c16,Shallow Question,html.Page,2_3_0_0,NA,NA,form submission,8202,119564,119562,119595,127797,127797,2023-04-14T10:04:37Z,127846,Erneuerung,ukarabati,d,ushawishi,ukalifu,unyonyaji,unyonyaji,NA,NA,"c(""distractor1"", ""distractor2"", ""distractor3"")",NA,NA,NA,NA,NA,NA,NA,NA,NA,NA,NA,NA,NA,NA,NA,NA,NA,NA,NA
c1c16,Save data screen,canvas.Screen,2_3_0_1,NA,NA,timeout,500,127798,127812,127846,128312,128313,2023-04-14T10:04:37Z,128346,Erneuerung,ukarabati,d,ushawishi,ukalifu,unyonyaji,NA,NA,0,"c(""distractor1"", ""distractor2"", ""distractor3"")",NA,NA,NA,NA,NA,NA,NA,NA,NA,NA,NA,NA,NA,NA,NA,NA,NA,NA,NA
c1c16,shallow,flow.Sequence,2_3_0,NA,NA,completion,8717,119564,119562,119595,128312,128313,2023-04-14T10:04:37Z,128346,Erneuerung,ukarabati,d,ushawishi,ukalifu,unyonyaji,NA,NA,NA,"c(""distractor1"", ""distractor2"", ""distractor3"")",NA,NA,NA,NA,NA,NA,NA,NA,NA,NA,NA,NA,NA,NA,NA,NA,NA,NA,NA
c1c16,task,flow.Sequence,2_3,NA,NA,completion,8717,119564,119562,119595,128312,128313,2023-04-14T10:04:37Z,128346,Erneuerung,ukarabati,d,ushawishi,ukalifu,unyonyaji,NA,NA,NA,"c(""distractor1"", ""distractor2"", ""distractor3"")",NA,NA,NA,NA,NA,NA,NA,NA,NA,NA,NA,NA,NA,NA,NA,NA,NA,NA,NA
c1c16,Shallow Question,html.Page,2_4_0_0,NA,NA,form submission,11287,128313,128312,128346,139633,139634,2023-04-14T10:04:49Z,139696,Integrität,uadilifu,d,muungano,mtiririko,upunguaji,upunguaji,NA,NA,"c(""distractor1"", ""distractor2"", ""distractor3"")",NA,NA,NA,NA,NA,NA,NA,NA,NA,NA,NA,NA,NA,NA,NA,NA,NA,NA,NA
c1c16,Save data screen,canvas.Screen,2_4_0_1,NA,NA,timeout,499,139635,139661,139696,140162,140162,2023-04-14T10:04:49Z,140195,Integrität,uadilifu,d,muungano,mtiririko,upunguaji,NA,NA,0,"c(""distractor1"", ""distractor2"", ""distractor3"")",NA,NA,NA,NA,NA,NA,NA,NA,NA,NA,NA,NA,NA,NA,NA,NA,NA,NA,NA
c1c16,shallow,flow.Sequence,2_4_0,NA,NA,completion,11816,128313,128312,128346,140162,140162,2023-04-14T10:04:49Z,140195,Integrität,uadilifu,d,muungano,mtiririko,upunguaji,NA,NA,NA,"c(""distractor1"", ""distractor2"", ""distractor3"")",NA,NA,NA,NA,NA,NA,NA,NA,NA,NA,NA,NA,NA,NA,NA,NA,NA,NA,NA
c1c16,task,flow.Sequence,2_4,NA,NA,completion,11816,128313,128312,128346,140162,140162,2023-04-14T10:04:49Z,140195,Integrität,uadilifu,d,muungano,mtiririko,upunguaji,NA,NA,NA,"c(""distractor1"", ""distractor2"", ""distractor3"")",NA,NA,NA,NA,NA,NA,NA,NA,NA,NA,NA,NA,NA,NA,NA,NA,NA,NA,NA
c1c16,Shallow Question,html.Page,2_5_0_0,NA,NA,form submission,6923,140163,140162,140195,147118,147119,2023-04-14T10:04:56Z,147178,Betrüger,mdanganyifu,s,mwanamuziki,wastani,mahakama,mahakama,NA,NA,"c(""distractor1"", ""distractor2"", ""distractor3"")",NA,NA,NA,NA,NA,NA,NA,NA,NA,NA,NA,NA,NA,NA,NA,NA,NA,NA,NA
c1c16,Save data screen,canvas.Screen,2_5_0_1,NA,NA,timeout,501,147119,147146,147178,147645,147646,2023-04-14T10:04:57Z,147679,Betrüger,mdanganyifu,s,mwanamuziki,wastani,mahakama,NA,NA,0,"c(""distractor1"", ""distractor2"", ""distractor3"")",NA,NA,NA,NA,NA,NA,NA,NA,NA,NA,NA,NA,NA,NA,NA,NA,NA,NA,NA
c1c16,shallow,flow.Sequence,2_5_0,NA,NA,completion,7450,140163,140162,140195,147645,147646,2023-04-14T10:04:57Z,147679,Betrüger,mdanganyifu,s,mwanamuziki,wastani,mahakama,NA,NA,NA,"c(""distractor1"", ""distractor2"", ""distractor3"")",NA,NA,NA,NA,NA,NA,NA,NA,NA,NA,NA,NA,NA,NA,NA,NA,NA,NA,NA
c1c16,task,flow.Sequence,2_5,NA,NA,completion,7450,140162,140162,140195,147645,147646,2023-04-14T10:04:57Z,147679,Betrüger,mdanganyifu,s,mwanamuziki,wastani,mahakama,NA,NA,NA,"c(""distractor1"", ""distractor2"", ""distractor3"")",NA,NA,NA,NA,NA,NA,NA,NA,NA,NA,NA,NA,NA,NA,NA,NA,NA,NA,NA
c1c16,Shallow Question,html.Page,2_6_0_0,NA,NA,form submission,7324,147646,147645,147679,155003,155004,2023-04-14T10:05:04Z,155062,Entwicklung,maendeleo,s,uangavu,mshindwa,badiliko,mshindwa,NA,NA,"c(""distractor1"", ""distractor2"", ""distractor3"")",NA,NA,NA,NA,NA,NA,NA,NA,NA,NA,NA,NA,NA,NA,NA,NA,NA,NA,NA
c1c16,Save data screen,canvas.Screen,2_6_0_1,NA,NA,timeout,500,155004,155029,155062,155528,155529,2023-04-14T10:05:04Z,155562,Entwicklung,maendeleo,s,uangavu,mshindwa,badiliko,NA,NA,0,"c(""distractor1"", ""distractor2"", ""distractor3"")",NA,NA,NA,NA,NA,NA,NA,NA,NA,NA,NA,NA,NA,NA,NA,NA,NA,NA,NA
c1c16,shallow,flow.Sequence,2_6_0,NA,NA,completion,7849,147646,147645,147679,155528,155529,2023-04-14T10:05:04Z,155562,Entwicklung,maendeleo,s,uangavu,mshindwa,badiliko,NA,NA,NA,"c(""distractor1"", ""distractor2"", ""distractor3"")",NA,NA,NA,NA,NA,NA,NA,NA,NA,NA,NA,NA,NA,NA,NA,NA,NA,NA,NA
c1c16,task,flow.Sequence,2_6,NA,NA,completion,7849,147646,147645,147679,155528,155529,2023-04-14T10:05:04Z,155562,Entwicklung,maendeleo,s,uangavu,mshindwa,badiliko,NA,NA,NA,"c(""distractor1"", ""distractor2"", ""distractor3"")",NA,NA,NA,NA,NA,NA,NA,NA,NA,NA,NA,NA,NA,NA,NA,NA,NA,NA,NA
c1c16,Shallow Question,html.Page,2_7_0_0,NA,NA,form submission,10458,155529,155528,155562,166020,166020,2023-04-14T10:05:15Z,166062,Orientierung,urekebisho,d,uelekeo,marekebisho,utunzaji,marekebisho,NA,NA,"c(""distractor1"", ""distractor2"", ""distractor3"")",NA,NA,NA,NA,NA,NA,NA,NA,NA,NA,NA,NA,NA,NA,NA,NA,NA,NA,NA
c1c16,Save data screen,canvas.Screen,2_7_0_1,NA,NA,timeout,500,166021,166028,166062,166528,166529,2023-04-14T10:05:15Z,166562,Orientierung,urekebisho,d,uelekeo,marekebisho,utunzaji,NA,NA,0,"c(""distractor1"", ""distractor2"", ""distractor3"")",NA,NA,NA,NA,NA,NA,NA,NA,NA,NA,NA,NA,NA,NA,NA,NA,NA,NA,NA
c1c16,shallow,flow.Sequence,2_7_0,NA,NA,completion,10966,155529,155528,155562,166528,166529,2023-04-14T10:05:15Z,166562,Orientierung,urekebisho,d,uelekeo,marekebisho,utunzaji,NA,NA,NA,"c(""distractor1"", ""distractor2"", ""distractor3"")",NA,NA,NA,NA,NA,NA,NA,NA,NA,NA,NA,NA,NA,NA,NA,NA,NA,NA,NA
c1c16,task,flow.Sequence,2_7,NA,NA,completion,10966,155529,155528,155562,166528,166529,2023-04-14T10:05:15Z,166562,Orientierung,urekebisho,d,uelekeo,marekebisho,utunzaji,NA,NA,NA,"c(""distractor1"", ""distractor2"", ""distractor3"")",NA,NA,NA,NA,NA,NA,NA,NA,NA,NA,NA,NA,NA,NA,NA,NA,NA,NA,NA
c1c16,Shallow Question,html.Page,2_8_0_0,NA,NA,form submission,4658,166529,166528,166562,171220,171221,2023-04-14T10:05:20Z,171263,Papier,karatasi,d,uchambuzi,usalama,kukataliwa,karatasi,NA,NA,"c(""distractor1"", ""distractor2"", ""distractor3"")",NA,NA,NA,NA,NA,NA,NA,NA,NA,NA,NA,NA,NA,NA,NA,NA,NA,NA,NA
c1c16,Save data screen,canvas.Screen,2_8_0_1,NA,NA,timeout,499,171222,171228,171263,171729,171729,2023-04-14T10:05:21Z,171762,Papier,karatasi,d,uchambuzi,usalama,kukataliwa,NA,NA,1,"c(""distractor1"", ""distractor2"", ""distractor3"")",NA,NA,NA,NA,NA,NA,NA,NA,NA,NA,NA,NA,NA,NA,NA,NA,NA,NA,NA
c1c16,shallow,flow.Sequence,2_8_0,NA,NA,completion,5167,166529,166528,166562,171729,171729,2023-04-14T10:05:21Z,171762,Papier,karatasi,d,uchambuzi,usalama,kukataliwa,NA,NA,NA,"c(""distractor1"", ""distractor2"", ""distractor3"")",NA,NA,NA,NA,NA,NA,NA,NA,NA,NA,NA,NA,NA,NA,NA,NA,NA,NA,NA
c1c16,task,flow.Sequence,2_8,NA,NA,completion,5167,166529,166528,166562,171729,171730,2023-04-14T10:05:21Z,171762,Papier,karatasi,d,uchambuzi,usalama,kukataliwa,NA,NA,NA,"c(""distractor1"", ""distractor2"", ""distractor3"")",NA,NA,NA,NA,NA,NA,NA,NA,NA,NA,NA,NA,NA,NA,NA,NA,NA,NA,NA
c1c16,Shallow Question,html.Page,2_9_0_0,NA,NA,form submission,6423,171730,171729,171762,178185,178185,2023-04-14T10:05:27Z,178228,Wechsel,ugeuzaji,d,utambulisho,kujenga,wasiwasi,ugeuzaji,NA,NA,"c(""distractor1"", ""distractor2"", ""distractor3"")",NA,NA,NA,NA,NA,NA,NA,NA,NA,NA,NA,NA,NA,NA,NA,NA,NA,NA,NA
c1c16,Save data screen,canvas.Screen,2_9_0_1,NA,NA,timeout,500,178186,178196,178228,178695,178696,2023-04-14T10:05:28Z,178728,Wechsel,ugeuzaji,d,utambulisho,kujenga,wasiwasi,NA,NA,1,"c(""distractor1"", ""distractor2"", ""distractor3"")",NA,NA,NA,NA,NA,NA,NA,NA,NA,NA,NA,NA,NA,NA,NA,NA,NA,NA,NA
c1c16,shallow,flow.Sequence,2_9_0,NA,NA,completion,6933,171730,171729,171762,178695,178696,2023-04-14T10:05:28Z,178728,Wechsel,ugeuzaji,d,utambulisho,kujenga,wasiwasi,NA,NA,NA,"c(""distractor1"", ""distractor2"", ""distractor3"")",NA,NA,NA,NA,NA,NA,NA,NA,NA,NA,NA,NA,NA,NA,NA,NA,NA,NA,NA
c1c16,task,flow.Sequence,2_9,NA,NA,completion,6933,171730,171729,171762,178695,178696,2023-04-14T10:05:28Z,178728,Wechsel,ugeuzaji,d,utambulisho,kujenga,wasiwasi,NA,NA,NA,"c(""distractor1"", ""distractor2"", ""distractor3"")",NA,NA,NA,NA,NA,NA,NA,NA,NA,NA,NA,NA,NA,NA,NA,NA,NA,NA,NA
c1c16,Shallow Question,html.Page,2_10_0_0,NA,NA,form submission,8459,178696,178695,178728,187187,187188,2023-04-14T10:05:36Z,187228,Vorwurf,mashtaka,s,msukumo,mtangulizi,uenyekiti,mashtaka,NA,NA,"c(""distractor1"", ""distractor2"", ""distractor3"")",NA,NA,NA,NA,NA,NA,NA,NA,NA,NA,NA,NA,NA,NA,NA,NA,NA,NA,NA
c1c16,Save data screen,canvas.Screen,2_10_0_1,NA,NA,timeout,500,187188,187196,187228,187696,187696,2023-04-14T10:05:37Z,187728,Vorwurf,mashtaka,s,msukumo,mtangulizi,uenyekiti,NA,NA,1,"c(""distractor1"", ""distractor2"", ""distractor3"")",NA,NA,NA,NA,NA,NA,NA,NA,NA,NA,NA,NA,NA,NA,NA,NA,NA,NA,NA
c1c16,shallow,flow.Sequence,2_10_0,NA,NA,completion,8968,178696,178695,178728,187696,187696,2023-04-14T10:05:37Z,187728,Vorwurf,mashtaka,s,msukumo,mtangulizi,uenyekiti,NA,NA,NA,"c(""distractor1"", ""distractor2"", ""distractor3"")",NA,NA,NA,NA,NA,NA,NA,NA,NA,NA,NA,NA,NA,NA,NA,NA,NA,NA,NA
c1c16,task,flow.Sequence,2_10,NA,NA,completion,8968,178696,178695,178728,187696,187697,2023-04-14T10:05:37Z,187728,Vorwurf,mashtaka,s,msukumo,mtangulizi,uenyekiti,NA,NA,NA,"c(""distractor1"", ""distractor2"", ""distractor3"")",NA,NA,NA,NA,NA,NA,NA,NA,NA,NA,NA,NA,NA,NA,NA,NA,NA,NA,NA
c1c16,Shallow Question,html.Page,2_11_0_0,NA,NA,form submission,3690,187697,187696,187728,191418,191418,2023-04-14T10:05:40Z,191479,Niveau,kiwango,d,usimamizi,mwamali,mshairi,mshairi,NA,NA,"c(""distractor1"", ""distractor2"", ""distractor3"")",NA,NA,NA,NA,NA,NA,NA,NA,NA,NA,NA,NA,NA,NA,NA,NA,NA,NA,NA
c1c16,Save data screen,canvas.Screen,2_11_0_1,NA,NA,timeout,500,191419,191446,191479,191945,191946,2023-04-14T10:05:41Z,191979,Niveau,kiwango,d,usimamizi,mwamali,mshairi,NA,NA,0,"c(""distractor1"", ""distractor2"", ""distractor3"")",NA,NA,NA,NA,NA,NA,NA,NA,NA,NA,NA,NA,NA,NA,NA,NA,NA,NA,NA
c1c16,shallow,flow.Sequence,2_11_0,NA,NA,completion,4217,187697,187696,187728,191945,191946,2023-04-14T10:05:41Z,191979,Niveau,kiwango,d,usimamizi,mwamali,mshairi,NA,NA,NA,"c(""distractor1"", ""distractor2"", ""distractor3"")",NA,NA,NA,NA,NA,NA,NA,NA,NA,NA,NA,NA,NA,NA,NA,NA,NA,NA,NA
c1c16,task,flow.Sequence,2_11,NA,NA,completion,4217,187697,187696,187728,191945,191946,2023-04-14T10:05:41Z,191979,Niveau,kiwango,d,usimamizi,mwamali,mshairi,NA,NA,NA,"c(""distractor1"", ""distractor2"", ""distractor3"")",NA,NA,NA,NA,NA,NA,NA,NA,NA,NA,NA,NA,NA,NA,NA,NA,NA,NA,NA
c1c16,Shallow Question,html.Page,2_12_0_0,NA,NA,form submission,6270,191946,191945,191979,198249,198249,2023-04-14T10:05:47Z,198295,Fleisch,mshakiki,d,kizunguzungu,mshikamano,angusho,mshakiki,NA,NA,"c(""distractor1"", ""distractor2"", ""distractor3"")",NA,NA,NA,NA,NA,NA,NA,NA,NA,NA,NA,NA,NA,NA,NA,NA,NA,NA,NA
c1c16,Save data screen,canvas.Screen,2_12_0_1,NA,NA,timeout,501,198250,198262,198295,198762,198762,2023-04-14T10:05:48Z,198796,Fleisch,mshakiki,d,kizunguzungu,mshikamano,angusho,NA,NA,1,"c(""distractor1"", ""distractor2"", ""distractor3"")",NA,NA,NA,NA,NA,NA,NA,NA,NA,NA,NA,NA,NA,NA,NA,NA,NA,NA,NA
c1c16,shallow,flow.Sequence,2_12_0,NA,NA,completion,6783,191946,191945,191979,198762,198762,2023-04-14T10:05:48Z,198796,Fleisch,mshakiki,d,kizunguzungu,mshikamano,angusho,NA,NA,NA,"c(""distractor1"", ""distractor2"", ""distractor3"")",NA,NA,NA,NA,NA,NA,NA,NA,NA,NA,NA,NA,NA,NA,NA,NA,NA,NA,NA
c1c16,task,flow.Sequence,2_12,NA,NA,completion,6783,191946,191945,191979,198762,198762,2023-04-14T10:05:48Z,198796,Fleisch,mshakiki,d,kizunguzungu,mshikamano,angusho,NA,NA,NA,"c(""distractor1"", ""distractor2"", ""distractor3"")",NA,NA,NA,NA,NA,NA,NA,NA,NA,NA,NA,NA,NA,NA,NA,NA,NA,NA,NA
c1c16,Shallow Question,html.Page,2_13_0_0,NA,NA,form submission,8520,198763,198762,198796,207316,207317,2023-04-14T10:05:56Z,207362,Atmosphäre,angahewa,s,kuteseka,usahihi,kutoamini,kuteseka,NA,NA,"c(""distractor1"", ""distractor2"", ""distractor3"")",NA,NA,NA,NA,NA,NA,NA,NA,NA,NA,NA,NA,NA,NA,NA,NA,NA,NA,NA
c1c16,Save data screen,canvas.Screen,2_13_0_1,NA,NA,timeout,501,207317,207328,207362,207830,207830,2023-04-14T10:05:57Z,207863,Atmosphäre,angahewa,s,kuteseka,usahihi,kutoamini,NA,NA,0,"c(""distractor1"", ""distractor2"", ""distractor3"")",NA,NA,NA,NA,NA,NA,NA,NA,NA,NA,NA,NA,NA,NA,NA,NA,NA,NA,NA
c1c16,shallow,flow.Sequence,2_13_0,NA,NA,completion,9034,198763,198762,198796,207830,207831,2023-04-14T10:05:57Z,207863,Atmosphäre,angahewa,s,kuteseka,usahihi,kutoamini,NA,NA,NA,"c(""distractor1"", ""distractor2"", ""distractor3"")",NA,NA,NA,NA,NA,NA,NA,NA,NA,NA,NA,NA,NA,NA,NA,NA,NA,NA,NA
c1c16,task,flow.Sequence,2_13,NA,NA,completion,9034,198763,198762,198796,207830,207831,2023-04-14T10:05:57Z,207863,Atmosphäre,angahewa,s,kuteseka,usahihi,kutoamini,NA,NA,NA,"c(""distractor1"", ""distractor2"", ""distractor3"")",NA,NA,NA,NA,NA,NA,NA,NA,NA,NA,NA,NA,NA,NA,NA,NA,NA,NA,NA
c1c16,Shallow Question,html.Page,2_14_0_0,NA,NA,form submission,5408,207831,207830,207863,213271,213271,2023-04-14T10:06:02Z,213313,Begegnung,kukutana,s,mmasihiya,mpiganaji,husiano,kukutana,NA,NA,"c(""distractor1"", ""distractor2"", ""distractor3"")",NA,NA,NA,NA,NA,NA,NA,NA,NA,NA,NA,NA,NA,NA,NA,NA,NA,NA,NA
c1c16,Save data screen,canvas.Screen,2_14_0_1,NA,NA,timeout,500,213272,213279,213313,213779,213780,2023-04-14T10:06:03Z,213813,Begegnung,kukutana,s,mmasihiya,mpiganaji,husiano,NA,NA,1,"c(""distractor1"", ""distractor2"", ""distractor3"")",NA,NA,NA,NA,NA,NA,NA,NA,NA,NA,NA,NA,NA,NA,NA,NA,NA,NA,NA
c1c16,shallow,flow.Sequence,2_14_0,NA,NA,completion,5916,207831,207830,207863,213779,213780,2023-04-14T10:06:03Z,213813,Begegnung,kukutana,s,mmasihiya,mpiganaji,husiano,NA,NA,NA,"c(""distractor1"", ""distractor2"", ""distractor3"")",NA,NA,NA,NA,NA,NA,NA,NA,NA,NA,NA,NA,NA,NA,NA,NA,NA,NA,NA
c1c16,task,flow.Sequence,2_14,NA,NA,completion,5916,207831,207830,207863,213779,213780,2023-04-14T10:06:03Z,213813,Begegnung,kukutana,s,mmasihiya,mpiganaji,husiano,NA,NA,NA,"c(""distractor1"", ""distractor2"", ""distractor3"")",NA,NA,NA,NA,NA,NA,NA,NA,NA,NA,NA,NA,NA,NA,NA,NA,NA,NA,NA
c1c16,Shallow Question,html.Page,2_15_0_0,NA,NA,form submission,11898,213780,213779,213813,225711,225711,2023-04-14T10:06:15Z,225746,Stimmung,kinyongo,s,kilekile,kisambo,madhehebu,kinyongo,NA,NA,"c(""distractor1"", ""distractor2"", ""distractor3"")",NA,NA,NA,NA,NA,NA,NA,NA,NA,NA,NA,NA,NA,NA,NA,NA,NA,NA,NA
c1c16,Save data screen,canvas.Screen,2_15_0_1,NA,NA,timeout,500,225712,225716,225746,226213,226213,2023-04-14T10:06:15Z,226246,Stimmung,kinyongo,s,kilekile,kisambo,madhehebu,NA,NA,1,"c(""distractor1"", ""distractor2"", ""distractor3"")",NA,NA,NA,NA,NA,NA,NA,NA,NA,NA,NA,NA,NA,NA,NA,NA,NA,NA,NA
c1c16,shallow,flow.Sequence,2_15_0,NA,NA,completion,12400,213780,213779,213813,226213,226213,2023-04-14T10:06:15Z,226246,Stimmung,kinyongo,s,kilekile,kisambo,madhehebu,NA,NA,NA,"c(""distractor1"", ""distractor2"", ""distractor3"")",NA,NA,NA,NA,NA,NA,NA,NA,NA,NA,NA,NA,NA,NA,NA,NA,NA,NA,NA
c1c16,task,flow.Sequence,2_15,NA,NA,completion,12400,213780,213779,213813,226213,226214,2023-04-14T10:06:15Z,226246,Stimmung,kinyongo,s,kilekile,kisambo,madhehebu,NA,NA,NA,"c(""distractor1"", ""distractor2"", ""distractor3"")",NA,NA,NA,NA,NA,NA,NA,NA,NA,NA,NA,NA,NA,NA,NA,NA,NA,NA,NA
c1c16,retrieval block 2 (multiple choice),flow.Loop,2,NA,NA,completion,135901,90280,90279,90312,226213,226214,2023-04-14T10:06:15Z,226246,NA,NA,NA,NA,NA,NA,NA,NA,NA,"c(""distractor1"", ""distractor2"", ""distractor3"")",NA,NA,NA,NA,NA,NA,NA,NA,NA,NA,NA,NA,NA,NA,NA,NA,NA,NA,NA
c1c16,End,canvas.Screen,3,NA,keypress(Space),response,1120,226214,226213,226246,227333,227358,2023-04-14T10:06:16Z,227412,NA,NA,NA,NA,NA,NA,NA,NA,NA,NULL,NA,NA,NA,NA,NA,NA,NA,NA,NA,NA,NA,NA,NA,NA,NA,NA,NA,NA,NA
c1c16,root,flow.Sequence,NA,NA,NA,completion,226934,351,364,399,227333,227361,2023-04-14T10:06:16Z,227412,NA,NA,NA,NA,NA,NA,NA,NA,NA,NULL,NA,NA,NA,NA,NA,NA,NA,NA,NA,NA,NA,NA,NA,NA,NA,NA,NA,NA,NA
