observation,sender,sender_type,sender_id,response,response_action,ended_on,duration,time_run,time_render,time_show,time_end,time_commit,timestamp,time_switch,german,swahili,enc,distractor1,distractor2,distractor3,response_2,x,correct,distractors,url_vp,url_sess,meta_labjs_version,meta_location,meta_user_agent,meta_platform,meta_language,meta_locale,meta_time_zone,meta_timezone_offset,meta_screen_width,meta_screen_height,meta_scroll_width,meta_scroll_height,meta_window_inner_width,meta_window_inner_height,meta_device_pixel_ratio,meta_labjs_build_flavor,meta_labjs_build_commit
18e23,Introduction delayed retrieval,canvas.Screen,0,weiter,keypress(Space),response,10547.380999999,709.59999999404,318.002,718.019,11265.399999999,11268.099999994,2023-11-27T21:12:28Z,11285.539,NA,NA,NA,NA,NA,NA,NA,NA,NA,NULL,148,4,20.2.4,https://neurocog.fernuni.ch/studies/vweber/jbaenninger/delayed/index.html?vp=148&sess=4,"Mozilla/5.0 (Windows NT 10.0; Win64; x64) AppleWebKit/537.36 (KHTML, like Gecko) Chrome/119.0.0.0 Safari/537.36 Edg/119.0.0.0",Win32,de,de-CH,Etc/GMT-1,-60,1280,720,1232,598,1232,598,1.5,production,f5b4a49f956347addd546a832a3327688c2c0fef
18e23,Deep Question,html.Page,1_0_0_0,NA,NA,form submission,2406.3609999985,11268.199999996,11263.981,11285.539,13691.899999999,13692.099999994,2023-11-27T21:12:30Z,13701.047,Genehmigung,idhini,d,mwanamke,itikadi,fedheha,j,NA,NA,NULL,NA,NA,NA,NA,NA,NA,NA,NA,NA,NA,NA,NA,NA,NA,NA,NA,NA,NA,NA
18e23,Save data screen,canvas.Screen,1_0_0_1,NA,NA,timeout,500.034,13693.199999996,13684.451,13701.047,14184.499,14186.199999996,2023-11-27T21:12:31Z,14201.081,Genehmigung,idhini,d,mwanamke,itikadi,fedheha,NA,NA,0,NULL,NA,NA,NA,NA,NA,NA,NA,NA,NA,NA,NA,NA,NA,NA,NA,NA,NA,NA,NA
18e23,deep,flow.Sequence,1_0_0,NA,NA,completion,2898.96,11268.199999996,11263.981,11285.539,14184.499,14186.699999996,2023-11-27T21:12:31Z,14201.081,Genehmigung,idhini,d,mwanamke,itikadi,fedheha,NA,NA,NA,NULL,NA,NA,NA,NA,NA,NA,NA,NA,NA,NA,NA,NA,NA,NA,NA,NA,NA,NA,NA
18e23,task,flow.Sequence,1_0,NA,NA,completion,2898.96,11268.199999996,11263.981,11285.539,14184.499,14186.899999999,2023-11-27T21:12:31Z,14201.081,Genehmigung,idhini,d,mwanamke,itikadi,fedheha,NA,NA,NA,NULL,NA,NA,NA,NA,NA,NA,NA,NA,NA,NA,NA,NA,NA,NA,NA,NA,NA,NA,NA
18e23,Deep Question,html.Page,1_1_0_0,NA,NA,form submission,1788.518999994,14187.199999996,14184.499,14201.081,15989.599999994,15990.099999994,2023-11-27T21:12:32Z,16000.903,Stimmung,kinyongo,d,kilekile,kisambo,madhehebu,j,NA,NA,NULL,NA,NA,NA,NA,NA,NA,NA,NA,NA,NA,NA,NA,NA,NA,NA,NA,NA,NA,NA
18e23,Save data screen,canvas.Screen,1_1_0_1,NA,NA,timeout,500.292,15991.299999997,15984.35,16000.903,16484.433,16485.599999994,2023-11-27T21:12:33Z,16501.195,Stimmung,kinyongo,d,kilekile,kisambo,madhehebu,NA,NA,0,NULL,NA,NA,NA,NA,NA,NA,NA,NA,NA,NA,NA,NA,NA,NA,NA,NA,NA,NA,NA
18e23,deep,flow.Sequence,1_1_0,NA,NA,completion,2283.352,14187.099999994,14184.499,14201.081,16484.433,16486.099999994,2023-11-27T21:12:33Z,16501.195,Stimmung,kinyongo,d,kilekile,kisambo,madhehebu,NA,NA,NA,NULL,NA,NA,NA,NA,NA,NA,NA,NA,NA,NA,NA,NA,NA,NA,NA,NA,NA,NA,NA
18e23,task,flow.Sequence,1_1,NA,NA,completion,2283.352,14187.099999994,14184.499,14201.081,16484.433,16486.299999997,2023-11-27T21:12:33Z,16501.195,Stimmung,kinyongo,d,kilekile,kisambo,madhehebu,NA,NA,NA,NULL,NA,NA,NA,NA,NA,NA,NA,NA,NA,NA,NA,NA,NA,NA,NA,NA,NA,NA,NA
18e23,Deep Question,html.Page,1_2_0_0,NA,NA,form submission,957.10499999702,16487.099999994,16484.433,16501.195,17458.299999997,17458.699999996,2023-11-27T21:12:34Z,17467.594,Betrüger,mdanganyifu,d,mwanamuziki,wastani,mahakama,j,NA,NA,NULL,NA,NA,NA,NA,NA,NA,NA,NA,NA,NA,NA,NA,NA,NA,NA,NA,NA,NA,NA
18e23,Save data screen,canvas.Screen,1_2_0_1,NA,NA,timeout,500.024,17459.599999994,17451.094,17467.594,17951.262,17953.099999994,2023-11-27T21:12:34Z,17967.618,Betrüger,mdanganyifu,d,mwanamuziki,wastani,mahakama,NA,NA,0,NULL,NA,NA,NA,NA,NA,NA,NA,NA,NA,NA,NA,NA,NA,NA,NA,NA,NA,NA,NA
18e23,deep,flow.Sequence,1_2_0,NA,NA,completion,1450.067,16486.699999996,16484.433,16501.195,17951.262,17953.399999999,2023-11-27T21:12:34Z,17967.618,Betrüger,mdanganyifu,d,mwanamuziki,wastani,mahakama,NA,NA,NA,NULL,NA,NA,NA,NA,NA,NA,NA,NA,NA,NA,NA,NA,NA,NA,NA,NA,NA,NA,NA
18e23,task,flow.Sequence,1_2,NA,NA,completion,1450.067,16486.599999994,16484.433,16501.195,17951.262,17953.699999996,2023-11-27T21:12:34Z,17967.618,Betrüger,mdanganyifu,d,mwanamuziki,wastani,mahakama,NA,NA,NA,NULL,NA,NA,NA,NA,NA,NA,NA,NA,NA,NA,NA,NA,NA,NA,NA,NA,NA,NA,NA
18e23,Deep Question,html.Page,1_3_0_0,NA,NA,form submission,935.48199999404,17953.899999999,17951.262,17967.618,18903.099999994,18903.599999994,2023-11-27T21:12:35Z,18917.465,Fleisch,mshakiki,s,kizunguzungu,mshikamano,angusho,j,NA,NA,NULL,NA,NA,NA,NA,NA,NA,NA,NA,NA,NA,NA,NA,NA,NA,NA,NA,NA,NA,NA
18e23,Save data screen,canvas.Screen,1_3_0_1,NA,NA,timeout,500.111,18904.399999999,18887.458,18917.465,19401.087,19403.799999997,2023-11-27T21:12:36Z,19417.576,Fleisch,mshakiki,s,kizunguzungu,mshikamano,angusho,NA,NA,0,NULL,NA,NA,NA,NA,NA,NA,NA,NA,NA,NA,NA,NA,NA,NA,NA,NA,NA,NA,NA
18e23,deep,flow.Sequence,1_3_0,NA,NA,completion,1433.469,17953.899999999,17951.262,17967.618,19401.087,19404.299999997,2023-11-27T21:12:36Z,19417.576,Fleisch,mshakiki,s,kizunguzungu,mshikamano,angusho,NA,NA,NA,NULL,NA,NA,NA,NA,NA,NA,NA,NA,NA,NA,NA,NA,NA,NA,NA,NA,NA,NA,NA
18e23,task,flow.Sequence,1_3,NA,NA,completion,1433.469,17953.799999997,17951.262,17967.618,19401.087,19404.5,2023-11-27T21:12:36Z,19417.576,Fleisch,mshakiki,s,kizunguzungu,mshikamano,angusho,NA,NA,NA,NULL,NA,NA,NA,NA,NA,NA,NA,NA,NA,NA,NA,NA,NA,NA,NA,NA,NA,NA,NA
18e23,Deep Question,html.Page,1_4_0_0,NA,NA,form submission,998.52399999404,19404.599999994,19401.087,19417.576,20416.099999994,20416.299999997,2023-11-27T21:12:37Z,20417.488,Respekt,heshima,s,changamnao,upinzani,ufanisi,j,NA,NA,NULL,NA,NA,NA,NA,NA,NA,NA,NA,NA,NA,NA,NA,NA,NA,NA,NA,NA,NA,NA
18e23,Save data screen,canvas.Screen,1_4_0_1,NA,NA,timeout,500.074,20417.099999994,20401.109,20417.488,20901.086,20902.5,2023-11-27T21:12:37Z,20917.562,Respekt,heshima,s,changamnao,upinzani,ufanisi,NA,NA,0,NULL,NA,NA,NA,NA,NA,NA,NA,NA,NA,NA,NA,NA,NA,NA,NA,NA,NA,NA,NA
18e23,deep,flow.Sequence,1_4_0,NA,NA,completion,1483.51,19404.599999994,19401.087,19417.576,20901.086,20902.899999999,2023-11-27T21:12:37Z,20917.562,Respekt,heshima,s,changamnao,upinzani,ufanisi,NA,NA,NA,NULL,NA,NA,NA,NA,NA,NA,NA,NA,NA,NA,NA,NA,NA,NA,NA,NA,NA,NA,NA
18e23,task,flow.Sequence,1_4,NA,NA,completion,1483.51,19404.599999994,19401.087,19417.576,20901.086,20903.099999994,2023-11-27T21:12:37Z,20917.562,Respekt,heshima,s,changamnao,upinzani,ufanisi,NA,NA,NA,NULL,NA,NA,NA,NA,NA,NA,NA,NA,NA,NA,NA,NA,NA,NA,NA,NA,NA,NA,NA
18e23,Deep Question,html.Page,1_5_0_0,NA,NA,form submission,896.23799999702,20903.299999997,20901.086,20917.562,21813.799999997,21814.099999994,2023-11-27T21:12:38Z,21817.392,Orientierung,urekebisho,s,uelekeo,marekebisho,utunzaji,j,NA,NA,NULL,NA,NA,NA,NA,NA,NA,NA,NA,NA,NA,NA,NA,NA,NA,NA,NA,NA,NA,NA
18e23,Save data screen,canvas.Screen,1_5_0_1,NA,NA,timeout,500.147,21814.799999997,21800.882,21817.392,22300.84,22302.099999994,2023-11-27T21:12:39Z,22317.539,Orientierung,urekebisho,s,uelekeo,marekebisho,utunzaji,NA,NA,0,NULL,NA,NA,NA,NA,NA,NA,NA,NA,NA,NA,NA,NA,NA,NA,NA,NA,NA,NA,NA
18e23,deep,flow.Sequence,1_5_0,NA,NA,completion,1383.278,20903.199999996,20901.086,20917.562,22300.84,22302.399999999,2023-11-27T21:12:39Z,22317.539,Orientierung,urekebisho,s,uelekeo,marekebisho,utunzaji,NA,NA,NA,NULL,NA,NA,NA,NA,NA,NA,NA,NA,NA,NA,NA,NA,NA,NA,NA,NA,NA,NA,NA
18e23,task,flow.Sequence,1_5,NA,NA,completion,1383.278,20903.199999996,20901.086,20917.562,22300.84,22302.5,2023-11-27T21:12:39Z,22317.539,Orientierung,urekebisho,s,uelekeo,marekebisho,utunzaji,NA,NA,NA,NULL,NA,NA,NA,NA,NA,NA,NA,NA,NA,NA,NA,NA,NA,NA,NA,NA,NA,NA,NA
18e23,Deep Question,html.Page,1_6_0_0,NA,NA,form submission,2341.260999997,22302.699999996,22300.84,22317.539,24658.799999997,24659.099999994,2023-11-27T21:12:41Z,24667.46,Entwicklung,maendeleo,d,uangavu,mshindwa,badiliko,j,NA,NA,NULL,NA,NA,NA,NA,NA,NA,NA,NA,NA,NA,NA,NA,NA,NA,NA,NA,NA,NA,NA
18e23,Save data screen,canvas.Screen,1_6_0_1,NA,NA,timeout,500.046,24659.899999999,24650.939,24667.46,25150.962,25152.5,2023-11-27T21:12:42Z,25167.506,Entwicklung,maendeleo,d,uangavu,mshindwa,badiliko,NA,NA,0,NULL,NA,NA,NA,NA,NA,NA,NA,NA,NA,NA,NA,NA,NA,NA,NA,NA,NA,NA,NA
18e23,deep,flow.Sequence,1_6_0,NA,NA,completion,2833.423,22302.699999996,22300.84,22317.539,25150.962,25152.699999996,2023-11-27T21:12:42Z,25167.506,Entwicklung,maendeleo,d,uangavu,mshindwa,badiliko,NA,NA,NA,NULL,NA,NA,NA,NA,NA,NA,NA,NA,NA,NA,NA,NA,NA,NA,NA,NA,NA,NA,NA
18e23,task,flow.Sequence,1_6,NA,NA,completion,2833.423,22302.699999996,22300.84,22317.539,25150.962,25152.799999997,2023-11-27T21:12:42Z,25167.506,Entwicklung,maendeleo,d,uangavu,mshindwa,badiliko,NA,NA,NA,NULL,NA,NA,NA,NA,NA,NA,NA,NA,NA,NA,NA,NA,NA,NA,NA,NA,NA,NA,NA
18e23,Deep Question,html.Page,1_7_0_0,NA,NA,form submission,1365.3939999985,25152.899999999,25150.962,25167.506,26532.899999999,26533.199999996,2023-11-27T21:12:43Z,26534.022,Niveau,kiwango,s,usimamizi,mwamali,mshairi,j,NA,NA,NULL,NA,NA,NA,NA,NA,NA,NA,NA,NA,NA,NA,NA,NA,NA,NA,NA,NA,NA,NA
18e23,Save data screen,canvas.Screen,1_7_0_1,NA,NA,timeout,500.214,26533.799999997,26521.73,26534.022,27017.96,27018.899999999,2023-11-27T21:12:43Z,27034.236,Niveau,kiwango,s,usimamizi,mwamali,mshairi,NA,NA,0,NULL,NA,NA,NA,NA,NA,NA,NA,NA,NA,NA,NA,NA,NA,NA,NA,NA,NA,NA,NA
18e23,deep,flow.Sequence,1_7_0,NA,NA,completion,1850.454,25152.899999999,25150.962,25167.506,27017.96,27019.299999997,2023-11-27T21:12:43Z,27034.236,Niveau,kiwango,s,usimamizi,mwamali,mshairi,NA,NA,NA,NULL,NA,NA,NA,NA,NA,NA,NA,NA,NA,NA,NA,NA,NA,NA,NA,NA,NA,NA,NA
18e23,task,flow.Sequence,1_7,NA,NA,completion,1850.454,25152.899999999,25150.962,25167.506,27017.96,27019.399999999,2023-11-27T21:12:43Z,27034.236,Niveau,kiwango,s,usimamizi,mwamali,mshairi,NA,NA,NA,NULL,NA,NA,NA,NA,NA,NA,NA,NA,NA,NA,NA,NA,NA,NA,NA,NA,NA,NA,NA
18e23,Deep Question,html.Page,1_8_0_0,NA,NA,form submission,1325.264,27019.599999994,27017.96,27034.236,28359.5,28359.799999997,2023-11-27T21:12:45Z,28367.3,Wechsel,ugeuzaji,s,utambulisho,kujenga,wasiwasi,j,NA,NA,NULL,NA,NA,NA,NA,NA,NA,NA,NA,NA,NA,NA,NA,NA,NA,NA,NA,NA,NA,NA
18e23,Save data screen,canvas.Screen,1_8_0_1,NA,NA,timeout,500.346,28360.399999999,28351.253,28367.3,28850.672,28851.899999999,2023-11-27T21:12:45Z,28867.646,Wechsel,ugeuzaji,s,utambulisho,kujenga,wasiwasi,NA,NA,0,NULL,NA,NA,NA,NA,NA,NA,NA,NA,NA,NA,NA,NA,NA,NA,NA,NA,NA,NA,NA
18e23,deep,flow.Sequence,1_8_0,NA,NA,completion,1816.436,27019.5,27017.96,27034.236,28850.672,28852,2023-11-27T21:12:45Z,28867.646,Wechsel,ugeuzaji,s,utambulisho,kujenga,wasiwasi,NA,NA,NA,NULL,NA,NA,NA,NA,NA,NA,NA,NA,NA,NA,NA,NA,NA,NA,NA,NA,NA,NA,NA
18e23,task,flow.Sequence,1_8,NA,NA,completion,1816.436,27019.5,27017.96,27034.236,28850.672,28852.199999996,2023-11-27T21:12:45Z,28867.646,Wechsel,ugeuzaji,s,utambulisho,kujenga,wasiwasi,NA,NA,NA,NULL,NA,NA,NA,NA,NA,NA,NA,NA,NA,NA,NA,NA,NA,NA,NA,NA,NA,NA,NA
18e23,Deep Question,html.Page,1_9_0_0,NA,NA,form submission,1023.653999997,28852.199999996,28850.672,28867.646,29891.299999997,29891.599999994,2023-11-27T21:12:46Z,29900.577,Vorwurf,mashtaka,d,msukumo,mtangulizi,uenyekiti,j,NA,NA,NULL,NA,NA,NA,NA,NA,NA,NA,NA,NA,NA,NA,NA,NA,NA,NA,NA,NA,NA,NA
18e23,Save data screen,canvas.Screen,1_9_0_1,NA,NA,timeout,500.107,29892.199999996,29883.81,29900.577,30383.906,30385.899999999,2023-11-27T21:12:47Z,30400.684,Vorwurf,mashtaka,d,msukumo,mtangulizi,uenyekiti,NA,NA,0,NULL,NA,NA,NA,NA,NA,NA,NA,NA,NA,NA,NA,NA,NA,NA,NA,NA,NA,NA,NA
18e23,deep,flow.Sequence,1_9_0,NA,NA,completion,1516.26,28852.199999996,28850.672,28867.646,30383.906,30386.099999994,2023-11-27T21:12:47Z,30400.684,Vorwurf,mashtaka,d,msukumo,mtangulizi,uenyekiti,NA,NA,NA,NULL,NA,NA,NA,NA,NA,NA,NA,NA,NA,NA,NA,NA,NA,NA,NA,NA,NA,NA,NA
18e23,task,flow.Sequence,1_9,NA,NA,completion,1516.26,28852.199999996,28850.672,28867.646,30383.906,30386.199999996,2023-11-27T21:12:47Z,30400.684,Vorwurf,mashtaka,d,msukumo,mtangulizi,uenyekiti,NA,NA,NA,NULL,NA,NA,NA,NA,NA,NA,NA,NA,NA,NA,NA,NA,NA,NA,NA,NA,NA,NA,NA
18e23,Deep Question,html.Page,1_10_0_0,NA,NA,form submission,993.51599999553,30386.299999997,30383.906,30400.684,31394.199999996,31394.399999999,2023-11-27T21:12:48Z,31400.493,Papier,karatasi,s,uchambuzi,usalama,kukataliwa,j,NA,NA,NULL,NA,NA,NA,NA,NA,NA,NA,NA,NA,NA,NA,NA,NA,NA,NA,NA,NA,NA,NA
18e23,Save data screen,canvas.Screen,1_10_0_1,NA,NA,timeout,500.265,31395,31384.141,31400.493,31884,31885.899999999,2023-11-27T21:12:48Z,31900.758,Papier,karatasi,s,uchambuzi,usalama,kukataliwa,NA,NA,0,NULL,NA,NA,NA,NA,NA,NA,NA,NA,NA,NA,NA,NA,NA,NA,NA,NA,NA,NA,NA
18e23,deep,flow.Sequence,1_10_0,NA,NA,completion,1483.316,30386.299999997,30383.906,30400.684,31884,31886.099999994,2023-11-27T21:12:48Z,31900.758,Papier,karatasi,s,uchambuzi,usalama,kukataliwa,NA,NA,NA,NULL,NA,NA,NA,NA,NA,NA,NA,NA,NA,NA,NA,NA,NA,NA,NA,NA,NA,NA,NA
18e23,task,flow.Sequence,1_10,NA,NA,completion,1483.316,30386.299999997,30383.906,30400.684,31884,31886.299999997,2023-11-27T21:12:48Z,31900.758,Papier,karatasi,s,uchambuzi,usalama,kukataliwa,NA,NA,NA,NULL,NA,NA,NA,NA,NA,NA,NA,NA,NA,NA,NA,NA,NA,NA,NA,NA,NA,NA,NA
18e23,Deep Question,html.Page,1_11_0_0,NA,NA,form submission,1281.341999994,31886.599999994,31884,31900.758,33182.099999994,33182.399999999,2023-11-27T21:12:50Z,33183.797,Begegnung,kukutana,d,mmasihiya,mpiganaji,husiano,j,NA,NA,NULL,NA,NA,NA,NA,NA,NA,NA,NA,NA,NA,NA,NA,NA,NA,NA,NA,NA,NA,NA
18e23,Save data screen,canvas.Screen,1_11_0_1,NA,NA,timeout,500.288,33183.199999996,33166.29,33183.797,33667.316,33668.399999999,2023-11-27T21:12:50Z,33684.085,Begegnung,kukutana,d,mmasihiya,mpiganaji,husiano,NA,NA,0,NULL,NA,NA,NA,NA,NA,NA,NA,NA,NA,NA,NA,NA,NA,NA,NA,NA,NA,NA,NA
18e23,deep,flow.Sequence,1_11_0,NA,NA,completion,1766.558,31886.5,31884,31900.758,33667.316,33668.599999994,2023-11-27T21:12:50Z,33684.085,Begegnung,kukutana,d,mmasihiya,mpiganaji,husiano,NA,NA,NA,NULL,NA,NA,NA,NA,NA,NA,NA,NA,NA,NA,NA,NA,NA,NA,NA,NA,NA,NA,NA
18e23,task,flow.Sequence,1_11,NA,NA,completion,1766.558,31886.399999999,31884,31900.758,33667.316,33668.699999996,2023-11-27T21:12:50Z,33684.085,Begegnung,kukutana,d,mmasihiya,mpiganaji,husiano,NA,NA,NA,NULL,NA,NA,NA,NA,NA,NA,NA,NA,NA,NA,NA,NA,NA,NA,NA,NA,NA,NA,NA
18e23,Deep Question,html.Page,1_12_0_0,NA,NA,form submission,1680.6149999955,33668.799999997,33667.316,33684.085,35364.699999996,35365,2023-11-27T21:12:52Z,35367.088,Atmosphäre,angahewa,d,kuteseka,usahihi,kutoamini,j,NA,NA,NULL,NA,NA,NA,NA,NA,NA,NA,NA,NA,NA,NA,NA,NA,NA,NA,NA,NA,NA,NA
18e23,Save data screen,canvas.Screen,1_12_0_1,NA,NA,timeout,500.052,35365.899999999,35350.44,35367.088,35850.623,35851.399999999,2023-11-27T21:12:52Z,35867.14,Atmosphäre,angahewa,d,kuteseka,usahihi,kutoamini,NA,NA,0,NULL,NA,NA,NA,NA,NA,NA,NA,NA,NA,NA,NA,NA,NA,NA,NA,NA,NA,NA,NA
18e23,deep,flow.Sequence,1_12_0,NA,NA,completion,2166.538,33668.799999997,33667.316,33684.085,35850.623,35851.599999994,2023-11-27T21:12:52Z,35867.14,Atmosphäre,angahewa,d,kuteseka,usahihi,kutoamini,NA,NA,NA,NULL,NA,NA,NA,NA,NA,NA,NA,NA,NA,NA,NA,NA,NA,NA,NA,NA,NA,NA,NA
18e23,task,flow.Sequence,1_12,NA,NA,completion,2166.538,33668.799999997,33667.316,33684.085,35850.623,35851.699999996,2023-11-27T21:12:52Z,35867.14,Atmosphäre,angahewa,d,kuteseka,usahihi,kutoamini,NA,NA,NA,NULL,NA,NA,NA,NA,NA,NA,NA,NA,NA,NA,NA,NA,NA,NA,NA,NA,NA,NA,NA
18e23,Deep Question,html.Page,1_13_0_0,NA,NA,form submission,1138.5599999955,35851.899999999,35850.623,35867.14,37005.699999996,37005.899999999,2023-11-27T21:12:53Z,37017.099,Flexibilität,kubadilika,d,enjini,usikilivu,hesabu,j,NA,NA,NULL,NA,NA,NA,NA,NA,NA,NA,NA,NA,NA,NA,NA,NA,NA,NA,NA,NA,NA,NA
18e23,Save data screen,canvas.Screen,1_13_0_1,NA,NA,timeout,500.331,37006.599999994,37000.596,37017.099,37500.534,37501.399999999,2023-11-27T21:12:54Z,37517.43,Flexibilität,kubadilika,d,enjini,usikilivu,hesabu,NA,NA,0,NULL,NA,NA,NA,NA,NA,NA,NA,NA,NA,NA,NA,NA,NA,NA,NA,NA,NA,NA,NA
18e23,deep,flow.Sequence,1_13_0,NA,NA,completion,1633.394,35851.799999997,35850.623,35867.14,37500.534,37501.699999996,2023-11-27T21:12:54Z,37517.43,Flexibilität,kubadilika,d,enjini,usikilivu,hesabu,NA,NA,NA,NULL,NA,NA,NA,NA,NA,NA,NA,NA,NA,NA,NA,NA,NA,NA,NA,NA,NA,NA,NA
18e23,task,flow.Sequence,1_13,NA,NA,completion,1633.394,35851.799999997,35850.623,35867.14,37500.534,37501.899999999,2023-11-27T21:12:54Z,37517.43,Flexibilität,kubadilika,d,enjini,usikilivu,hesabu,NA,NA,NA,NULL,NA,NA,NA,NA,NA,NA,NA,NA,NA,NA,NA,NA,NA,NA,NA,NA,NA,NA,NA
18e23,Deep Question,html.Page,1_14_0_0,NA,NA,form submission,1122.669999994,37502,37500.534,37517.43,38640.099999994,38640.299999997,2023-11-27T21:12:55Z,38650.394,Integrität,uadilifu,s,muungano,mtiririko,upunguaji,j,NA,NA,NULL,NA,NA,NA,NA,NA,NA,NA,NA,NA,NA,NA,NA,NA,NA,NA,NA,NA,NA,NA
18e23,Save data screen,canvas.Screen,1_14_0_1,NA,NA,timeout,500.208,38641.099999994,38633.947,38650.394,39133.792,39136.099999994,2023-11-27T21:12:56Z,39150.602,Integrität,uadilifu,s,muungano,mtiririko,upunguaji,NA,NA,0,NULL,NA,NA,NA,NA,NA,NA,NA,NA,NA,NA,NA,NA,NA,NA,NA,NA,NA,NA,NA
18e23,deep,flow.Sequence,1_14_0,NA,NA,completion,1616.362,37502,37500.534,37517.43,39133.792,39136.399999999,2023-11-27T21:12:56Z,39150.602,Integrität,uadilifu,s,muungano,mtiririko,upunguaji,NA,NA,NA,NULL,NA,NA,NA,NA,NA,NA,NA,NA,NA,NA,NA,NA,NA,NA,NA,NA,NA,NA,NA
18e23,task,flow.Sequence,1_14,NA,NA,completion,1616.362,37501.899999999,37500.534,37517.43,39133.792,39136.599999994,2023-11-27T21:12:56Z,39150.602,Integrität,uadilifu,s,muungano,mtiririko,upunguaji,NA,NA,NA,NULL,NA,NA,NA,NA,NA,NA,NA,NA,NA,NA,NA,NA,NA,NA,NA,NA,NA,NA,NA
18e23,Deep Question,html.Page,1_15_0_0,NA,NA,form submission,1092.997999994,39137.899999999,39133.792,39150.602,40243.599999994,40243.899999999,2023-11-27T21:12:57Z,40250.254,Erneuerung,ukarabati,s,ushawishi,ukalifu,unyonyaji,j,NA,NA,NULL,NA,NA,NA,NA,NA,NA,NA,NA,NA,NA,NA,NA,NA,NA,NA,NA,NA,NA,NA
18e23,Save data screen,canvas.Screen,1_15_0_1,NA,NA,timeout,500.15,40244.799999997,40233.789,40250.254,40733.756,40735.799999997,2023-11-27T21:12:57Z,40750.404,Erneuerung,ukarabati,s,ushawishi,ukalifu,unyonyaji,NA,NA,0,NULL,NA,NA,NA,NA,NA,NA,NA,NA,NA,NA,NA,NA,NA,NA,NA,NA,NA,NA,NA
18e23,deep,flow.Sequence,1_15_0,NA,NA,completion,1583.154,39137.799999997,39133.792,39150.602,40733.756,40736.199999996,2023-11-27T21:12:57Z,40750.404,Erneuerung,ukarabati,s,ushawishi,ukalifu,unyonyaji,NA,NA,NA,NULL,NA,NA,NA,NA,NA,NA,NA,NA,NA,NA,NA,NA,NA,NA,NA,NA,NA,NA,NA
18e23,task,flow.Sequence,1_15,NA,NA,completion,1583.154,39137.699999996,39133.792,39150.602,40733.756,40736.299999997,2023-11-27T21:12:57Z,40750.404,Erneuerung,ukarabati,s,ushawishi,ukalifu,unyonyaji,NA,NA,NA,NULL,NA,NA,NA,NA,NA,NA,NA,NA,NA,NA,NA,NA,NA,NA,NA,NA,NA,NA,NA
18e23,retrieval block 1 (cued recall),flow.Loop,1,NA,NA,completion,29448.217,11268.099999994,11263.981,11285.539,40733.756,40736.5,2023-11-27T21:12:57Z,40750.404,NA,NA,NA,NA,NA,NA,NA,NA,NA,NULL,NA,NA,NA,NA,NA,NA,NA,NA,NA,NA,NA,NA,NA,NA,NA,NA,NA,NA,NA
18e23,Shallow Question,html.Page,2_0_0_0,NA,NA,form submission,6574.7959999955,40737.799999997,40733.756,40750.404,47325.199999996,47325.599999994,2023-11-27T21:13:04Z,47333.359,Papier,karatasi,s,uchambuzi,usalama,kukataliwa,karatasi,NA,NA,"c(""distractor1"", ""distractor2"", ""distractor3"")",NA,NA,NA,NA,NA,NA,NA,NA,NA,NA,NA,NA,NA,NA,NA,NA,NA,NA,NA
18e23,Save data screen,canvas.Screen,2_0_0_1,NA,NA,timeout,500.024,47326.899999999,47317.141,47333.359,47816.9,47818.5,2023-11-27T21:13:04Z,47833.383,Papier,karatasi,s,uchambuzi,usalama,kukataliwa,NA,NA,1,"c(""distractor1"", ""distractor2"", ""distractor3"")",NA,NA,NA,NA,NA,NA,NA,NA,NA,NA,NA,NA,NA,NA,NA,NA,NA,NA,NA
18e23,shallow,flow.Sequence,2_0_0,NA,NA,completion,7066.496,40737.699999996,40733.756,40750.404,47816.9,47818.799999997,2023-11-27T21:13:04Z,47833.383,Papier,karatasi,s,uchambuzi,usalama,kukataliwa,NA,NA,NA,"c(""distractor1"", ""distractor2"", ""distractor3"")",NA,NA,NA,NA,NA,NA,NA,NA,NA,NA,NA,NA,NA,NA,NA,NA,NA,NA,NA
18e23,task,flow.Sequence,2_0,NA,NA,completion,7066.496,40736.699999996,40733.756,40750.404,47816.9,47819,2023-11-27T21:13:04Z,47833.383,Papier,karatasi,s,uchambuzi,usalama,kukataliwa,NA,NA,NA,"c(""distractor1"", ""distractor2"", ""distractor3"")",NA,NA,NA,NA,NA,NA,NA,NA,NA,NA,NA,NA,NA,NA,NA,NA,NA,NA,NA
18e23,Shallow Question,html.Page,2_1_0_0,NA,NA,form submission,3250.5169999985,47819.199999996,47816.9,47833.383,51083.899999999,51084.299999997,2023-11-27T21:13:08Z,51100.226,Genehmigung,idhini,d,mwanamke,itikadi,fedheha,idhini,NA,NA,"c(""distractor1"", ""distractor2"", ""distractor3"")",NA,NA,NA,NA,NA,NA,NA,NA,NA,NA,NA,NA,NA,NA,NA,NA,NA,NA,NA
18e23,Save data screen,canvas.Screen,2_1_0_1,NA,NA,timeout,499.831,51085,51083.441,51100.226,51583.635,51584.299999997,2023-11-27T21:13:08Z,51600.057,Genehmigung,idhini,d,mwanamke,itikadi,fedheha,NA,NA,1,"c(""distractor1"", ""distractor2"", ""distractor3"")",NA,NA,NA,NA,NA,NA,NA,NA,NA,NA,NA,NA,NA,NA,NA,NA,NA,NA,NA
18e23,shallow,flow.Sequence,2_1_0,NA,NA,completion,3750.252,47819.199999996,47816.9,47833.383,51583.635,51584.5,2023-11-27T21:13:08Z,51600.057,Genehmigung,idhini,d,mwanamke,itikadi,fedheha,NA,NA,NA,"c(""distractor1"", ""distractor2"", ""distractor3"")",NA,NA,NA,NA,NA,NA,NA,NA,NA,NA,NA,NA,NA,NA,NA,NA,NA,NA,NA
18e23,task,flow.Sequence,2_1,NA,NA,completion,3750.252,47819.099999994,47816.9,47833.383,51583.635,51584.699999996,2023-11-27T21:13:08Z,51600.057,Genehmigung,idhini,d,mwanamke,itikadi,fedheha,NA,NA,NA,"c(""distractor1"", ""distractor2"", ""distractor3"")",NA,NA,NA,NA,NA,NA,NA,NA,NA,NA,NA,NA,NA,NA,NA,NA,NA,NA,NA
18e23,Shallow Question,html.Page,2_2_0_0,NA,NA,form submission,4469.042999994,51584.799999997,51583.635,51600.057,56069.099999994,56069.299999997,2023-11-27T21:13:13Z,56083.59,Begegnung,kukutana,d,mmasihiya,mpiganaji,husiano,kukutana,NA,NA,"c(""distractor1"", ""distractor2"", ""distractor3"")",NA,NA,NA,NA,NA,NA,NA,NA,NA,NA,NA,NA,NA,NA,NA,NA,NA,NA,NA
18e23,Save data screen,canvas.Screen,2_2_0_1,NA,NA,timeout,499.734,56070,56067.369,56083.59,56566.849,56567.599999994,2023-11-27T21:13:13Z,56583.324,Begegnung,kukutana,d,mmasihiya,mpiganaji,husiano,NA,NA,1,"c(""distractor1"", ""distractor2"", ""distractor3"")",NA,NA,NA,NA,NA,NA,NA,NA,NA,NA,NA,NA,NA,NA,NA,NA,NA,NA,NA
18e23,shallow,flow.Sequence,2_2_0,NA,NA,completion,4966.792,51584.799999997,51583.635,51600.057,56566.849,56567.899999999,2023-11-27T21:13:13Z,56583.324,Begegnung,kukutana,d,mmasihiya,mpiganaji,husiano,NA,NA,NA,"c(""distractor1"", ""distractor2"", ""distractor3"")",NA,NA,NA,NA,NA,NA,NA,NA,NA,NA,NA,NA,NA,NA,NA,NA,NA,NA,NA
18e23,task,flow.Sequence,2_2,NA,NA,completion,4966.792,51584.799999997,51583.635,51600.057,56566.849,56568,2023-11-27T21:13:13Z,56583.324,Begegnung,kukutana,d,mmasihiya,mpiganaji,husiano,NA,NA,NA,"c(""distractor1"", ""distractor2"", ""distractor3"")",NA,NA,NA,NA,NA,NA,NA,NA,NA,NA,NA,NA,NA,NA,NA,NA,NA,NA,NA
18e23,Shallow Question,html.Page,2_3_0_0,NA,NA,form submission,4927.3759999955,56568.099999994,56566.849,56583.324,61510.699999996,61511,2023-11-27T21:13:18Z,61516.398,Niveau,kiwango,s,usimamizi,mwamali,mshairi,kiwango,NA,NA,"c(""distractor1"", ""distractor2"", ""distractor3"")",NA,NA,NA,NA,NA,NA,NA,NA,NA,NA,NA,NA,NA,NA,NA,NA,NA,NA,NA
18e23,Save data screen,canvas.Screen,2_3_0_1,NA,NA,timeout,500.028,61511.699999996,61500.192,61516.398,61999.907,62001.199999996,2023-11-27T21:13:18Z,62016.426,Niveau,kiwango,s,usimamizi,mwamali,mshairi,NA,NA,1,"c(""distractor1"", ""distractor2"", ""distractor3"")",NA,NA,NA,NA,NA,NA,NA,NA,NA,NA,NA,NA,NA,NA,NA,NA,NA,NA,NA
18e23,shallow,flow.Sequence,2_3_0,NA,NA,completion,5416.583,56568.099999994,56566.849,56583.324,61999.907,62001.599999994,2023-11-27T21:13:18Z,62016.426,Niveau,kiwango,s,usimamizi,mwamali,mshairi,NA,NA,NA,"c(""distractor1"", ""distractor2"", ""distractor3"")",NA,NA,NA,NA,NA,NA,NA,NA,NA,NA,NA,NA,NA,NA,NA,NA,NA,NA,NA
18e23,task,flow.Sequence,2_3,NA,NA,completion,5416.583,56568.099999994,56566.849,56583.324,61999.907,62001.799999997,2023-11-27T21:13:18Z,62016.426,Niveau,kiwango,s,usimamizi,mwamali,mshairi,NA,NA,NA,"c(""distractor1"", ""distractor2"", ""distractor3"")",NA,NA,NA,NA,NA,NA,NA,NA,NA,NA,NA,NA,NA,NA,NA,NA,NA,NA,NA
18e23,Shallow Question,html.Page,2_4_0_0,NA,NA,form submission,4038.4739999985,62001.899999999,61999.907,62016.426,66054.899999999,66055.099999994,2023-11-27T21:13:23Z,66066.243,Respekt,heshima,s,changamnao,upinzani,ufanisi,heshima,NA,NA,"c(""distractor1"", ""distractor2"", ""distractor3"")",NA,NA,NA,NA,NA,NA,NA,NA,NA,NA,NA,NA,NA,NA,NA,NA,NA,NA,NA
18e23,Save data screen,canvas.Screen,2_4_0_1,NA,NA,timeout,499.882,66057.599999994,66049.889,66066.243,66549.591,66550.399999999,2023-11-27T21:13:23Z,66566.125,Respekt,heshima,s,changamnao,upinzani,ufanisi,NA,NA,1,"c(""distractor1"", ""distractor2"", ""distractor3"")",NA,NA,NA,NA,NA,NA,NA,NA,NA,NA,NA,NA,NA,NA,NA,NA,NA,NA,NA
18e23,shallow,flow.Sequence,2_4_0,NA,NA,completion,4533.165,62001.899999999,61999.907,62016.426,66549.591,66550.599999994,2023-11-27T21:13:23Z,66566.125,Respekt,heshima,s,changamnao,upinzani,ufanisi,NA,NA,NA,"c(""distractor1"", ""distractor2"", ""distractor3"")",NA,NA,NA,NA,NA,NA,NA,NA,NA,NA,NA,NA,NA,NA,NA,NA,NA,NA,NA
18e23,task,flow.Sequence,2_4,NA,NA,completion,4533.165,62001.899999999,61999.907,62016.426,66549.591,66550.699999996,2023-11-27T21:13:23Z,66566.125,Respekt,heshima,s,changamnao,upinzani,ufanisi,NA,NA,NA,"c(""distractor1"", ""distractor2"", ""distractor3"")",NA,NA,NA,NA,NA,NA,NA,NA,NA,NA,NA,NA,NA,NA,NA,NA,NA,NA,NA
18e23,Shallow Question,html.Page,2_5_0_0,NA,NA,form submission,3811.375,66550.899999999,66549.591,66566.125,70377.5,70377.799999997,2023-11-27T21:13:27Z,70382.746,Vorwurf,mashtaka,d,msukumo,mtangulizi,uenyekiti,mashtaka,NA,NA,"c(""distractor1"", ""distractor2"", ""distractor3"")",NA,NA,NA,NA,NA,NA,NA,NA,NA,NA,NA,NA,NA,NA,NA,NA,NA,NA,NA
18e23,Save data screen,canvas.Screen,2_5_0_1,NA,NA,timeout,506.177,70380.299999997,70366.04,70382.746,70866.126,70867.5,2023-11-27T21:13:27Z,70888.923,Vorwurf,mashtaka,d,msukumo,mtangulizi,uenyekiti,NA,NA,1,"c(""distractor1"", ""distractor2"", ""distractor3"")",NA,NA,NA,NA,NA,NA,NA,NA,NA,NA,NA,NA,NA,NA,NA,NA,NA,NA,NA
18e23,shallow,flow.Sequence,2_5_0,NA,NA,completion,4300.001,66550.799999997,66549.591,66566.125,70866.126,70867.699999996,2023-11-27T21:13:27Z,70888.923,Vorwurf,mashtaka,d,msukumo,mtangulizi,uenyekiti,NA,NA,NA,"c(""distractor1"", ""distractor2"", ""distractor3"")",NA,NA,NA,NA,NA,NA,NA,NA,NA,NA,NA,NA,NA,NA,NA,NA,NA,NA,NA
18e23,task,flow.Sequence,2_5,NA,NA,completion,4300.001,66550.799999997,66549.591,66566.125,70866.126,70867.899999999,2023-11-27T21:13:27Z,70888.923,Vorwurf,mashtaka,d,msukumo,mtangulizi,uenyekiti,NA,NA,NA,"c(""distractor1"", ""distractor2"", ""distractor3"")",NA,NA,NA,NA,NA,NA,NA,NA,NA,NA,NA,NA,NA,NA,NA,NA,NA,NA,NA
18e23,Shallow Question,html.Page,2_6_0_0,NA,NA,form submission,3088.077,70868,70866.126,70888.923,73977,73977.199999996,2023-11-27T21:13:30Z,73982.643,Entwicklung,maendeleo,d,uangavu,mshindwa,badiliko,maendeleo,NA,NA,"c(""distractor1"", ""distractor2"", ""distractor3"")",NA,NA,NA,NA,NA,NA,NA,NA,NA,NA,NA,NA,NA,NA,NA,NA,NA,NA,NA
18e23,Save data screen,canvas.Screen,2_6_0_1,NA,NA,timeout,500.151,73977.799999997,73966.329,73982.643,74466.271,74467,2023-11-27T21:13:31Z,74482.794,Entwicklung,maendeleo,d,uangavu,mshindwa,badiliko,NA,NA,1,"c(""distractor1"", ""distractor2"", ""distractor3"")",NA,NA,NA,NA,NA,NA,NA,NA,NA,NA,NA,NA,NA,NA,NA,NA,NA,NA,NA
18e23,shallow,flow.Sequence,2_6_0,NA,NA,completion,3577.348,70868,70866.126,70888.923,74466.271,74467.199999996,2023-11-27T21:13:31Z,74482.794,Entwicklung,maendeleo,d,uangavu,mshindwa,badiliko,NA,NA,NA,"c(""distractor1"", ""distractor2"", ""distractor3"")",NA,NA,NA,NA,NA,NA,NA,NA,NA,NA,NA,NA,NA,NA,NA,NA,NA,NA,NA
18e23,task,flow.Sequence,2_6,NA,NA,completion,3577.348,70868,70866.126,70888.923,74466.271,74467.299999997,2023-11-27T21:13:31Z,74482.794,Entwicklung,maendeleo,d,uangavu,mshindwa,badiliko,NA,NA,NA,"c(""distractor1"", ""distractor2"", ""distractor3"")",NA,NA,NA,NA,NA,NA,NA,NA,NA,NA,NA,NA,NA,NA,NA,NA,NA,NA,NA
18e23,Shallow Question,html.Page,2_7_0_0,NA,NA,form submission,6710.005999997,74467.5,74466.271,74482.794,81192.799999997,81193.099999994,2023-11-27T21:13:38Z,81199.138,Atmosphäre,angahewa,d,kuteseka,usahihi,kutoamini,angahewa,NA,NA,"c(""distractor1"", ""distractor2"", ""distractor3"")",NA,NA,NA,NA,NA,NA,NA,NA,NA,NA,NA,NA,NA,NA,NA,NA,NA,NA,NA
18e23,Save data screen,canvas.Screen,2_7_0_1,NA,NA,timeout,500.15299999999,81196.199999996,81182.811,81199.138,81682.598,81683.399999999,2023-11-27T21:13:38Z,81699.291,Atmosphäre,angahewa,d,kuteseka,usahihi,kutoamini,NA,NA,1,"c(""distractor1"", ""distractor2"", ""distractor3"")",NA,NA,NA,NA,NA,NA,NA,NA,NA,NA,NA,NA,NA,NA,NA,NA,NA,NA,NA
18e23,shallow,flow.Sequence,2_7_0,NA,NA,completion,7199.804,74467.399999999,74466.271,74482.794,81682.598,81683.699999996,2023-11-27T21:13:38Z,81699.291,Atmosphäre,angahewa,d,kuteseka,usahihi,kutoamini,NA,NA,NA,"c(""distractor1"", ""distractor2"", ""distractor3"")",NA,NA,NA,NA,NA,NA,NA,NA,NA,NA,NA,NA,NA,NA,NA,NA,NA,NA,NA
18e23,task,flow.Sequence,2_7,NA,NA,completion,7199.804,74467.399999999,74466.271,74482.794,81682.598,81683.799999997,2023-11-27T21:13:38Z,81699.291,Atmosphäre,angahewa,d,kuteseka,usahihi,kutoamini,NA,NA,NA,"c(""distractor1"", ""distractor2"", ""distractor3"")",NA,NA,NA,NA,NA,NA,NA,NA,NA,NA,NA,NA,NA,NA,NA,NA,NA,NA,NA
18e23,Shallow Question,html.Page,2_8_0_0,NA,NA,form submission,5025.008999997,81684,81682.598,81699.291,86724.299999997,86724.5,2023-11-27T21:13:43Z,86732.275,Fleisch,mshakiki,s,kizunguzungu,mshikamano,angusho,mshakiki,NA,NA,"c(""distractor1"", ""distractor2"", ""distractor3"")",NA,NA,NA,NA,NA,NA,NA,NA,NA,NA,NA,NA,NA,NA,NA,NA,NA,NA,NA
18e23,Save data screen,canvas.Screen,2_8_0_1,NA,NA,timeout,500.451,86727,86716.466,86732.275,87215.652,87216.299999997,2023-11-27T21:13:44Z,87232.726,Fleisch,mshakiki,s,kizunguzungu,mshikamano,angusho,NA,NA,1,"c(""distractor1"", ""distractor2"", ""distractor3"")",NA,NA,NA,NA,NA,NA,NA,NA,NA,NA,NA,NA,NA,NA,NA,NA,NA,NA,NA
18e23,shallow,flow.Sequence,2_8_0,NA,NA,completion,5516.361,81684,81682.598,81699.291,87215.652,87216.5,2023-11-27T21:13:44Z,87232.726,Fleisch,mshakiki,s,kizunguzungu,mshikamano,angusho,NA,NA,NA,"c(""distractor1"", ""distractor2"", ""distractor3"")",NA,NA,NA,NA,NA,NA,NA,NA,NA,NA,NA,NA,NA,NA,NA,NA,NA,NA,NA
18e23,task,flow.Sequence,2_8,NA,NA,completion,5516.361,81683.899999999,81682.598,81699.291,87215.652,87216.699999996,2023-11-27T21:13:44Z,87232.726,Fleisch,mshakiki,s,kizunguzungu,mshikamano,angusho,NA,NA,NA,"c(""distractor1"", ""distractor2"", ""distractor3"")",NA,NA,NA,NA,NA,NA,NA,NA,NA,NA,NA,NA,NA,NA,NA,NA,NA,NA,NA
18e23,Shallow Question,html.Page,2_9_0_0,NA,NA,form submission,8143.073999997,87216.799999997,87215.652,87232.726,95375.799999997,95376,2023-11-27T21:13:52Z,95382.108,Flexibilität,kubadilika,d,enjini,usikilivu,hesabu,hesabu,NA,NA,"c(""distractor1"", ""distractor2"", ""distractor3"")",NA,NA,NA,NA,NA,NA,NA,NA,NA,NA,NA,NA,NA,NA,NA,NA,NA,NA,NA
18e23,Save data screen,canvas.Screen,2_9_0_1,NA,NA,timeout,500.179,95378.599999994,95373.31,95382.108,95865.894,95867,2023-11-27T21:13:52Z,95882.287,Flexibilität,kubadilika,d,enjini,usikilivu,hesabu,NA,NA,0,"c(""distractor1"", ""distractor2"", ""distractor3"")",NA,NA,NA,NA,NA,NA,NA,NA,NA,NA,NA,NA,NA,NA,NA,NA,NA,NA,NA
18e23,shallow,flow.Sequence,2_9_0,NA,NA,completion,8633.168,87216.799999997,87215.652,87232.726,95865.894,95867.5,2023-11-27T21:13:52Z,95882.287,Flexibilität,kubadilika,d,enjini,usikilivu,hesabu,NA,NA,NA,"c(""distractor1"", ""distractor2"", ""distractor3"")",NA,NA,NA,NA,NA,NA,NA,NA,NA,NA,NA,NA,NA,NA,NA,NA,NA,NA,NA
18e23,task,flow.Sequence,2_9,NA,NA,completion,8633.168,87216.799999997,87215.652,87232.726,95865.894,95868,2023-11-27T21:13:52Z,95882.287,Flexibilität,kubadilika,d,enjini,usikilivu,hesabu,NA,NA,NA,"c(""distractor1"", ""distractor2"", ""distractor3"")",NA,NA,NA,NA,NA,NA,NA,NA,NA,NA,NA,NA,NA,NA,NA,NA,NA,NA,NA
18e23,Shallow Question,html.Page,2_10_0_0,NA,NA,form submission,4235.312999994,95868.199999996,95865.894,95882.287,100117.59999999,100117.9,2023-11-27T21:13:57Z,100131.966,Integrität,uadilifu,s,muungano,mtiririko,upunguaji,uadilifu,NA,NA,"c(""distractor1"", ""distractor2"", ""distractor3"")",NA,NA,NA,NA,NA,NA,NA,NA,NA,NA,NA,NA,NA,NA,NA,NA,NA,NA,NA
18e23,Save data screen,canvas.Screen,2_10_0_1,NA,NA,timeout,505.696,100120.5,100115.563,100131.966,100615.402,100616.3,2023-11-27T21:13:57Z,100637.662,Integrität,uadilifu,s,muungano,mtiririko,upunguaji,NA,NA,1,"c(""distractor1"", ""distractor2"", ""distractor3"")",NA,NA,NA,NA,NA,NA,NA,NA,NA,NA,NA,NA,NA,NA,NA,NA,NA,NA,NA
18e23,shallow,flow.Sequence,2_10_0,NA,NA,completion,4733.115,95868.199999996,95865.894,95882.287,100615.402,100616.59999999,2023-11-27T21:13:57Z,100637.662,Integrität,uadilifu,s,muungano,mtiririko,upunguaji,NA,NA,NA,"c(""distractor1"", ""distractor2"", ""distractor3"")",NA,NA,NA,NA,NA,NA,NA,NA,NA,NA,NA,NA,NA,NA,NA,NA,NA,NA,NA
18e23,task,flow.Sequence,2_10,NA,NA,completion,4733.115,95868.099999994,95865.894,95882.287,100615.402,100616.9,2023-11-27T21:13:57Z,100637.662,Integrität,uadilifu,s,muungano,mtiririko,upunguaji,NA,NA,NA,"c(""distractor1"", ""distractor2"", ""distractor3"")",NA,NA,NA,NA,NA,NA,NA,NA,NA,NA,NA,NA,NA,NA,NA,NA,NA,NA,NA
18e23,Shallow Question,html.Page,2_11_0_0,NA,NA,form submission,8446.338,100617,100615.402,100637.662,109084,109084.3,2023-11-27T21:14:06Z,109098.387,Wechsel,ugeuzaji,s,utambulisho,kujenga,wasiwasi,ugeuzaji,NA,NA,"c(""distractor1"", ""distractor2"", ""distractor3"")",NA,NA,NA,NA,NA,NA,NA,NA,NA,NA,NA,NA,NA,NA,NA,NA,NA,NA,NA
18e23,Save data screen,canvas.Screen,2_11_0_1,NA,NA,timeout,500.105,109086.9,109081.896,109098.387,109581.836,109582.7,2023-11-27T21:14:06Z,109598.492,Wechsel,ugeuzaji,s,utambulisho,kujenga,wasiwasi,NA,NA,1,"c(""distractor1"", ""distractor2"", ""distractor3"")",NA,NA,NA,NA,NA,NA,NA,NA,NA,NA,NA,NA,NA,NA,NA,NA,NA,NA,NA
18e23,shallow,flow.Sequence,2_11_0,NA,NA,completion,8944.174,100617,100615.402,100637.662,109581.836,109583,2023-11-27T21:14:06Z,109598.492,Wechsel,ugeuzaji,s,utambulisho,kujenga,wasiwasi,NA,NA,NA,"c(""distractor1"", ""distractor2"", ""distractor3"")",NA,NA,NA,NA,NA,NA,NA,NA,NA,NA,NA,NA,NA,NA,NA,NA,NA,NA,NA
18e23,task,flow.Sequence,2_11,NA,NA,completion,8944.174,100617,100615.402,100637.662,109581.836,109583.09999999,2023-11-27T21:14:06Z,109598.492,Wechsel,ugeuzaji,s,utambulisho,kujenga,wasiwasi,NA,NA,NA,"c(""distractor1"", ""distractor2"", ""distractor3"")",NA,NA,NA,NA,NA,NA,NA,NA,NA,NA,NA,NA,NA,NA,NA,NA,NA,NA,NA
18e23,Shallow Question,html.Page,2_12_0_0,NA,NA,form submission,5571.107999994,109583.3,109581.836,109598.492,115169.59999999,115169.9,2023-11-27T21:14:12Z,115181.676,Erneuerung,ukarabati,s,ushawishi,ukalifu,unyonyaji,ushawishi,NA,NA,"c(""distractor1"", ""distractor2"", ""distractor3"")",NA,NA,NA,NA,NA,NA,NA,NA,NA,NA,NA,NA,NA,NA,NA,NA,NA,NA,NA
18e23,Save data screen,canvas.Screen,2_12_0_1,NA,NA,timeout,500.11399999999003,115172.4,115165.138,115181.676,115664.959,115665.9,2023-11-27T21:14:12Z,115681.79,Erneuerung,ukarabati,s,ushawishi,ukalifu,unyonyaji,NA,NA,0,"c(""distractor1"", ""distractor2"", ""distractor3"")",NA,NA,NA,NA,NA,NA,NA,NA,NA,NA,NA,NA,NA,NA,NA,NA,NA,NA,NA
18e23,shallow,flow.Sequence,2_12_0,NA,NA,completion,6066.467,109583.2,109581.836,109598.492,115664.959,115666.09999999,2023-11-27T21:14:12Z,115681.79,Erneuerung,ukarabati,s,ushawishi,ukalifu,unyonyaji,NA,NA,NA,"c(""distractor1"", ""distractor2"", ""distractor3"")",NA,NA,NA,NA,NA,NA,NA,NA,NA,NA,NA,NA,NA,NA,NA,NA,NA,NA,NA
18e23,task,flow.Sequence,2_12,NA,NA,completion,6066.467,109583.2,109581.836,109598.492,115664.959,115666.2,2023-11-27T21:14:12Z,115681.79,Erneuerung,ukarabati,s,ushawishi,ukalifu,unyonyaji,NA,NA,NA,"c(""distractor1"", ""distractor2"", ""distractor3"")",NA,NA,NA,NA,NA,NA,NA,NA,NA,NA,NA,NA,NA,NA,NA,NA,NA,NA,NA
18e23,Shallow Question,html.Page,2_13_0_0,NA,NA,form submission,4595.9099999955,115666.4,115664.959,115681.79,120277.7,120278.09999999,2023-11-27T21:14:17Z,120281.474,Stimmung,kinyongo,d,kilekile,kisambo,madhehebu,kinyongo,NA,NA,"c(""distractor1"", ""distractor2"", ""distractor3"")",NA,NA,NA,NA,NA,NA,NA,NA,NA,NA,NA,NA,NA,NA,NA,NA,NA,NA,NA
18e23,Save data screen,canvas.Screen,2_13_0_1,NA,NA,timeout,500.2,120280.7,120264.882,120281.474,120765.024,120765.8,2023-11-27T21:14:17Z,120781.674,Stimmung,kinyongo,d,kilekile,kisambo,madhehebu,NA,NA,1,"c(""distractor1"", ""distractor2"", ""distractor3"")",NA,NA,NA,NA,NA,NA,NA,NA,NA,NA,NA,NA,NA,NA,NA,NA,NA,NA,NA
18e23,shallow,flow.Sequence,2_13_0,NA,NA,completion,5083.234,115666.3,115664.959,115681.79,120765.024,120766,2023-11-27T21:14:17Z,120781.674,Stimmung,kinyongo,d,kilekile,kisambo,madhehebu,NA,NA,NA,"c(""distractor1"", ""distractor2"", ""distractor3"")",NA,NA,NA,NA,NA,NA,NA,NA,NA,NA,NA,NA,NA,NA,NA,NA,NA,NA,NA
18e23,task,flow.Sequence,2_13,NA,NA,completion,5083.234,115666.3,115664.959,115681.79,120765.024,120766.2,2023-11-27T21:14:17Z,120781.674,Stimmung,kinyongo,d,kilekile,kisambo,madhehebu,NA,NA,NA,"c(""distractor1"", ""distractor2"", ""distractor3"")",NA,NA,NA,NA,NA,NA,NA,NA,NA,NA,NA,NA,NA,NA,NA,NA,NA,NA,NA
18e23,Shallow Question,html.Page,2_14_0_0,NA,NA,form submission,6376.925999994,120766.4,120765.024,120781.674,127158.59999999,127158.9,2023-11-27T21:14:24Z,127164.668,Betrüger,mdanganyifu,d,mwanamuziki,wastani,mahakama,mdanganyifu,NA,NA,"c(""distractor1"", ""distractor2"", ""distractor3"")",NA,NA,NA,NA,NA,NA,NA,NA,NA,NA,NA,NA,NA,NA,NA,NA,NA,NA,NA
18e23,Save data screen,canvas.Screen,2_14_0_1,NA,NA,timeout,500.29399999999,127162.2,127158.18,127164.668,127648.319,127649.4,2023-11-27T21:14:24Z,127664.962,Betrüger,mdanganyifu,d,mwanamuziki,wastani,mahakama,NA,NA,1,"c(""distractor1"", ""distractor2"", ""distractor3"")",NA,NA,NA,NA,NA,NA,NA,NA,NA,NA,NA,NA,NA,NA,NA,NA,NA,NA,NA
18e23,shallow,flow.Sequence,2_14_0,NA,NA,completion,6866.645,120766.2,120765.024,120781.674,127648.319,127649.9,2023-11-27T21:14:24Z,127664.962,Betrüger,mdanganyifu,d,mwanamuziki,wastani,mahakama,NA,NA,NA,"c(""distractor1"", ""distractor2"", ""distractor3"")",NA,NA,NA,NA,NA,NA,NA,NA,NA,NA,NA,NA,NA,NA,NA,NA,NA,NA,NA
18e23,task,flow.Sequence,2_14,NA,NA,completion,6866.645,120766.2,120765.024,120781.674,127648.319,127650.09999999,2023-11-27T21:14:24Z,127664.962,Betrüger,mdanganyifu,d,mwanamuziki,wastani,mahakama,NA,NA,NA,"c(""distractor1"", ""distractor2"", ""distractor3"")",NA,NA,NA,NA,NA,NA,NA,NA,NA,NA,NA,NA,NA,NA,NA,NA,NA,NA,NA
18e23,Shallow Question,html.Page,2_15_0_0,NA,NA,form submission,9281.7379999955,127650.3,127648.319,127664.962,136946.7,136946.8,2023-11-27T21:14:33Z,136964.649,Orientierung,urekebisho,s,uelekeo,marekebisho,utunzaji,utunzaji,NA,NA,"c(""distractor1"", ""distractor2"", ""distractor3"")",NA,NA,NA,NA,NA,NA,NA,NA,NA,NA,NA,NA,NA,NA,NA,NA,NA,NA,NA
18e23,Save data screen,canvas.Screen,2_15_0_1,NA,NA,timeout,499.59599999999,136948,136937.858,136964.649,137447.783,137450.09999999,2023-11-27T21:14:34Z,137464.245,Orientierung,urekebisho,s,uelekeo,marekebisho,utunzaji,NA,NA,0,"c(""distractor1"", ""distractor2"", ""distractor3"")",NA,NA,NA,NA,NA,NA,NA,NA,NA,NA,NA,NA,NA,NA,NA,NA,NA,NA,NA
18e23,shallow,flow.Sequence,2_15_0,NA,NA,completion,9782.821,127650.2,127648.319,127664.962,137447.783,137451.3,2023-11-27T21:14:34Z,137464.245,Orientierung,urekebisho,s,uelekeo,marekebisho,utunzaji,NA,NA,NA,"c(""distractor1"", ""distractor2"", ""distractor3"")",NA,NA,NA,NA,NA,NA,NA,NA,NA,NA,NA,NA,NA,NA,NA,NA,NA,NA,NA
18e23,task,flow.Sequence,2_15,NA,NA,completion,9782.821,127650.2,127648.319,127664.962,137447.783,137451.5,2023-11-27T21:14:34Z,137464.245,Orientierung,urekebisho,s,uelekeo,marekebisho,utunzaji,NA,NA,NA,"c(""distractor1"", ""distractor2"", ""distractor3"")",NA,NA,NA,NA,NA,NA,NA,NA,NA,NA,NA,NA,NA,NA,NA,NA,NA,NA,NA
18e23,retrieval block 2 (multiple choice),flow.Loop,2,NA,NA,completion,96697.379,40736.599999994,40733.756,40750.404,137447.783,137451.7,2023-11-27T21:14:34Z,137464.245,NA,NA,NA,NA,NA,NA,NA,NA,NA,"c(""distractor1"", ""distractor2"", ""distractor3"")",NA,NA,NA,NA,NA,NA,NA,NA,NA,NA,NA,NA,NA,NA,NA,NA,NA,NA,NA
18e23,End,canvas.Screen,3,NA,keypress(Space),response,1651.854999994,137451.8,137447.783,137464.245,139116.09999999,139117.5,2023-11-27T21:14:36Z,139131.081,NA,NA,NA,NA,NA,NA,NA,NA,NA,NULL,NA,NA,NA,NA,NA,NA,NA,NA,NA,NA,NA,NA,NA,NA,NA,NA,NA,NA,NA
18e23,root,flow.Sequence,NA,NA,NA,completion,138398.08099999,709.5,318.002,718.019,139116.09999999,139118,2023-11-27T21:14:36Z,139131.081,NA,NA,NA,NA,NA,NA,NA,NA,NA,NULL,NA,NA,NA,NA,NA,NA,NA,NA,NA,NA,NA,NA,NA,NA,NA,NA,NA,NA,NA
