observation,sender,sender_type,sender_id,response,response_action,ended_on,duration,time_run,time_render,time_show,time_end,time_commit,timestamp,time_switch,german,swahili,enc,distractor1,distractor2,distractor3,response_2,x,correct,distractors,url_vp,url_sess,meta_labjs_version,meta_location,meta_user_agent,meta_platform,meta_language,meta_locale,meta_time_zone,meta_timezone_offset,meta_screen_width,meta_screen_height,meta_scroll_width,meta_scroll_height,meta_window_inner_width,meta_window_inner_height,meta_device_pixel_ratio,meta_labjs_build_flavor,meta_labjs_build_commit
cd9ca,Introduction delayed retrieval,canvas.Screen,0,weiter,keypress(Space),response,22712.84,936,935.48,952.16,23665,23672,2023-03-19T10:25:42Z,23683.02,NA,NA,NA,NA,NA,NA,NA,NA,NA,NULL,202,2,20.2.4,https://neurocog.fernuni.ch/studies/vweber/sfink/delayed/index.html?vp=202&sess=2,Mozilla/5.0 (Windows NT 10.0; Win64; x64; rv:109.0) Gecko/20100101 Firefox/111.0,Win32,de,de-CH,Europe/Zurich,-60,1368,912,1368,731,1368,779,2,production,f5b4a49f956347addd546a832a3327688c2c0fef
cd9ca,Deep Question,html.Page,1_0_0_0,NA,NA,form submission,18510.98,23681,23680.9,23683.02,42194,42195,2023-03-19T10:26:00Z,42204.58,Symbol,kielezo,s,kinyume,nderemo,utayari,mahsaka,NA,NA,NULL,NA,NA,NA,NA,NA,NA,NA,NA,NA,NA,NA,NA,NA,NA,NA,NA,NA,NA,NA
cd9ca,Save data screen,canvas.Screen,1_0_0_1,NA,NA,timeout,500.36,42205,42186.98,42204.58,42688.26,42690,2023-03-19T10:26:01Z,42704.94,Symbol,kielezo,s,kinyume,nderemo,utayari,NA,NA,0,NULL,NA,NA,NA,NA,NA,NA,NA,NA,NA,NA,NA,NA,NA,NA,NA,NA,NA,NA,NA
cd9ca,deep,flow.Sequence,1_0_0,NA,NA,completion,19005.24,23680,23680.9,23683.02,42688.26,42692,2023-03-19T10:26:01Z,42704.94,Symbol,kielezo,s,kinyume,nderemo,utayari,NA,NA,NA,NULL,NA,NA,NA,NA,NA,NA,NA,NA,NA,NA,NA,NA,NA,NA,NA,NA,NA,NA,NA
cd9ca,task,flow.Sequence,1_0,NA,NA,completion,19005.24,23680,23680.9,23683.02,42688.26,42695,2023-03-19T10:26:01Z,42704.94,Symbol,kielezo,s,kinyume,nderemo,utayari,NA,NA,NA,NULL,NA,NA,NA,NA,NA,NA,NA,NA,NA,NA,NA,NA,NA,NA,NA,NA,NA,NA,NA
cd9ca,Deep Question,html.Page,1_1_0_0,NA,NA,form submission,20448.06,42698,42688.26,42704.94,63153,63153,2023-03-19T10:26:21Z,63160.48,Gelegenheit,wakati,d,mchanganyiko,kipaumbele,kushuku,agajia,NA,NA,NULL,NA,NA,NA,NA,NA,NA,NA,NA,NA,NA,NA,NA,NA,NA,NA,NA,NA,NA,NA
cd9ca,Save data screen,canvas.Screen,1_1_0_1,NA,NA,timeout,500.39999999999,63160,63151.34,63160.48,63644.2,63645,2023-03-19T10:26:22Z,63660.88,Gelegenheit,wakati,d,mchanganyiko,kipaumbele,kushuku,NA,NA,0,NULL,NA,NA,NA,NA,NA,NA,NA,NA,NA,NA,NA,NA,NA,NA,NA,NA,NA,NA,NA
cd9ca,deep,flow.Sequence,1_1_0,NA,NA,completion,20939.26,42696,42688.26,42704.94,63644.2,63647,2023-03-19T10:26:22Z,63660.88,Gelegenheit,wakati,d,mchanganyiko,kipaumbele,kushuku,NA,NA,NA,NULL,NA,NA,NA,NA,NA,NA,NA,NA,NA,NA,NA,NA,NA,NA,NA,NA,NA,NA,NA
cd9ca,task,flow.Sequence,1_1,NA,NA,completion,20939.26,42695,42688.26,42704.94,63644.2,63647,2023-03-19T10:26:22Z,63660.88,Gelegenheit,wakati,d,mchanganyiko,kipaumbele,kushuku,NA,NA,NA,NULL,NA,NA,NA,NA,NA,NA,NA,NA,NA,NA,NA,NA,NA,NA,NA,NA,NA,NA,NA
cd9ca,Deep Question,html.Page,1_2_0_0,NA,NA,form submission,32426.12,63647,63644.2,63660.88,96087,96089,2023-03-19T10:26:54Z,96097.76,Verstand,ufahamivu,s,shakawa,hadhari,mhandisi,usekto,NA,NA,NULL,NA,NA,NA,NA,NA,NA,NA,NA,NA,NA,NA,NA,NA,NA,NA,NA,NA,NA,NA
cd9ca,Save data screen,canvas.Screen,1_2_0_1,NA,NA,timeout,500.38,96099,96083.38,96097.76,96581.54,96586,2023-03-19T10:26:55Z,96598.14,Verstand,ufahamivu,s,shakawa,hadhari,mhandisi,NA,NA,0,NULL,NA,NA,NA,NA,NA,NA,NA,NA,NA,NA,NA,NA,NA,NA,NA,NA,NA,NA,NA
cd9ca,deep,flow.Sequence,1_2_0,NA,NA,completion,32920.66,63647,63644.2,63660.88,96581.54,96588,2023-03-19T10:26:55Z,96598.14,Verstand,ufahamivu,s,shakawa,hadhari,mhandisi,NA,NA,NA,NULL,NA,NA,NA,NA,NA,NA,NA,NA,NA,NA,NA,NA,NA,NA,NA,NA,NA,NA,NA
cd9ca,task,flow.Sequence,1_2,NA,NA,completion,32920.66,63647,63644.2,63660.88,96581.54,96588,2023-03-19T10:26:55Z,96598.14,Verstand,ufahamivu,s,shakawa,hadhari,mhandisi,NA,NA,NA,NULL,NA,NA,NA,NA,NA,NA,NA,NA,NA,NA,NA,NA,NA,NA,NA,NA,NA,NA,NA
cd9ca,Deep Question,html.Page,1_3_0_0,NA,NA,form submission,17397.86,96592,96581.54,96598.14,113996,113996,2023-03-19T10:27:12Z,113991.92,Auftrag,uagizaji,d,ghanima,kuzingatia,msukani,agazaji,NA,NA,NULL,NA,NA,NA,NA,NA,NA,NA,NA,NA,NA,NA,NA,NA,NA,NA,NA,NA,NA,NA
cd9ca,Save data screen,canvas.Screen,1_3_0_1,NA,NA,timeout,500.54000000001,114004,113991.78,113991.92,114475.78,114478,2023-03-19T10:27:13Z,114492.46,Auftrag,uagizaji,d,ghanima,kuzingatia,msukani,NA,NA,0,NULL,NA,NA,NA,NA,NA,NA,NA,NA,NA,NA,NA,NA,NA,NA,NA,NA,NA,NA,NA
cd9ca,deep,flow.Sequence,1_3_0,NA,NA,completion,17877.64,96591,96581.54,96598.14,114475.78,114479,2023-03-19T10:27:13Z,114492.46,Auftrag,uagizaji,d,ghanima,kuzingatia,msukani,NA,NA,NA,NULL,NA,NA,NA,NA,NA,NA,NA,NA,NA,NA,NA,NA,NA,NA,NA,NA,NA,NA,NA
cd9ca,task,flow.Sequence,1_3,NA,NA,completion,17877.64,96588,96581.54,96598.14,114475.78,114480,2023-03-19T10:27:13Z,114492.46,Auftrag,uagizaji,d,ghanima,kuzingatia,msukani,NA,NA,NA,NULL,NA,NA,NA,NA,NA,NA,NA,NA,NA,NA,NA,NA,NA,NA,NA,NA,NA,NA,NA
cd9ca,Deep Question,html.Page,1_4_0_0,NA,NA,form submission,35677.54,114481,114475.78,114492.46,150170,150170,2023-03-19T10:27:48Z,150172.16,Widerstand,usulubu,s,kusababisha,mwalimu,mwenendo,uskones,NA,NA,NULL,NA,NA,NA,NA,NA,NA,NA,NA,NA,NA,NA,NA,NA,NA,NA,NA,NA,NA,NA
cd9ca,Save data screen,canvas.Screen,1_4_0_1,NA,NA,timeout,500.34,150176,150166.82,150172.16,150655.92,150657,2023-03-19T10:27:49Z,150672.5,Widerstand,usulubu,s,kusababisha,mwalimu,mwenendo,NA,NA,0,NULL,NA,NA,NA,NA,NA,NA,NA,NA,NA,NA,NA,NA,NA,NA,NA,NA,NA,NA,NA
cd9ca,deep,flow.Sequence,1_4_0,NA,NA,completion,36163.46,114481,114475.78,114492.46,150655.92,150658,2023-03-19T10:27:49Z,150672.5,Widerstand,usulubu,s,kusababisha,mwalimu,mwenendo,NA,NA,NA,NULL,NA,NA,NA,NA,NA,NA,NA,NA,NA,NA,NA,NA,NA,NA,NA,NA,NA,NA,NA
cd9ca,task,flow.Sequence,1_4,NA,NA,completion,36163.46,114481,114475.78,114492.46,150655.92,150659,2023-03-19T10:27:49Z,150672.5,Widerstand,usulubu,s,kusababisha,mwalimu,mwenendo,NA,NA,NA,NULL,NA,NA,NA,NA,NA,NA,NA,NA,NA,NA,NA,NA,NA,NA,NA,NA,NA,NA,NA
cd9ca,Deep Question,html.Page,1_5_0_0,NA,NA,form submission,17267.5,150660,150655.92,150672.5,167940,167940,2023-03-19T10:28:06Z,167944.94,Polizist,msongora,d,simanzi,mandhari,nidhamu,usmorode,NA,NA,NULL,NA,NA,NA,NA,NA,NA,NA,NA,NA,NA,NA,NA,NA,NA,NA,NA,NA,NA,NA
cd9ca,Save data screen,canvas.Screen,1_5_0_1,NA,NA,timeout,500.34,167946,167936.86,167944.94,168428.6,168435,2023-03-19T10:28:07Z,168445.28,Polizist,msongora,d,simanzi,mandhari,nidhamu,NA,NA,0,NULL,NA,NA,NA,NA,NA,NA,NA,NA,NA,NA,NA,NA,NA,NA,NA,NA,NA,NA,NA
cd9ca,deep,flow.Sequence,1_5_0,NA,NA,completion,17756.1,150660,150655.92,150672.5,168428.6,168442,2023-03-19T10:28:07Z,168445.28,Polizist,msongora,d,simanzi,mandhari,nidhamu,NA,NA,NA,NULL,NA,NA,NA,NA,NA,NA,NA,NA,NA,NA,NA,NA,NA,NA,NA,NA,NA,NA,NA
cd9ca,task,flow.Sequence,1_5,NA,NA,completion,17756.1,150659,150655.92,150672.5,168428.6,168444,2023-03-19T10:28:07Z,168445.28,Polizist,msongora,d,simanzi,mandhari,nidhamu,NA,NA,NA,NULL,NA,NA,NA,NA,NA,NA,NA,NA,NA,NA,NA,NA,NA,NA,NA,NA,NA,NA,NA
cd9ca,Deep Question,html.Page,1_6_0_0,NA,NA,form submission,41595.72,168446,168428.6,168445.28,210041,210043,2023-03-19T10:28:48Z,210052.7,Annäherung,maegesho,s,madahili,kujiamini,mapendekezo,azaje,NA,NA,NULL,NA,NA,NA,NA,NA,NA,NA,NA,NA,NA,NA,NA,NA,NA,NA,NA,NA,NA,NA
cd9ca,Save data screen,canvas.Screen,1_6_0_1,NA,NA,timeout,507.31999999998,210053,210037.92,210052.7,210543.34,210545,2023-03-19T10:28:49Z,210560.02,Annäherung,maegesho,s,madahili,kujiamini,mapendekezo,NA,NA,0,NULL,NA,NA,NA,NA,NA,NA,NA,NA,NA,NA,NA,NA,NA,NA,NA,NA,NA,NA,NA
cd9ca,deep,flow.Sequence,1_6_0,NA,NA,completion,42098.06,168445,168428.6,168445.28,210543.34,210546,2023-03-19T10:28:49Z,210560.02,Annäherung,maegesho,s,madahili,kujiamini,mapendekezo,NA,NA,NA,NULL,NA,NA,NA,NA,NA,NA,NA,NA,NA,NA,NA,NA,NA,NA,NA,NA,NA,NA,NA
cd9ca,task,flow.Sequence,1_6,NA,NA,completion,42098.06,168445,168428.6,168445.28,210543.34,210547,2023-03-19T10:28:49Z,210560.02,Annäherung,maegesho,s,madahili,kujiamini,mapendekezo,NA,NA,NA,NULL,NA,NA,NA,NA,NA,NA,NA,NA,NA,NA,NA,NA,NA,NA,NA,NA,NA,NA,NA
cd9ca,Deep Question,html.Page,1_7_0_0,NA,NA,form submission,29578.98,210548,210543.34,210560.02,240139,240140,2023-03-19T10:29:18Z,240141.52,Zufall,kikuti,s,kukosekana,uchoraji,leseni,uhsenkau,NA,NA,NULL,NA,NA,NA,NA,NA,NA,NA,NA,NA,NA,NA,NA,NA,NA,NA,NA,NA,NA,NA
cd9ca,Save data screen,canvas.Screen,1_7_0_1,NA,NA,timeout,500.28,240153,240134.42,240141.52,240625.12,240628,2023-03-19T10:29:19Z,240641.8,Zufall,kikuti,s,kukosekana,uchoraji,leseni,NA,NA,0,NULL,NA,NA,NA,NA,NA,NA,NA,NA,NA,NA,NA,NA,NA,NA,NA,NA,NA,NA,NA
cd9ca,deep,flow.Sequence,1_7_0,NA,NA,completion,30065.1,210548,210543.34,210560.02,240625.12,240630,2023-03-19T10:29:19Z,240641.8,Zufall,kikuti,s,kukosekana,uchoraji,leseni,NA,NA,NA,NULL,NA,NA,NA,NA,NA,NA,NA,NA,NA,NA,NA,NA,NA,NA,NA,NA,NA,NA,NA
cd9ca,task,flow.Sequence,1_7,NA,NA,completion,30065.1,210548,210543.34,210560.02,240625.12,240636,2023-03-19T10:29:19Z,240641.8,Zufall,kikuti,s,kukosekana,uchoraji,leseni,NA,NA,NA,NULL,NA,NA,NA,NA,NA,NA,NA,NA,NA,NA,NA,NA,NA,NA,NA,NA,NA,NA,NA
cd9ca,Deep Question,html.Page,1_8_0_0,NA,NA,form submission,45639.2,240639,240625.12,240641.8,286281,286281,2023-03-19T10:30:04Z,286293.78,Wettbewerb,ushindani,d,mapendezi,kichocheo,ubaguzi,wamarajio,NA,NA,NULL,NA,NA,NA,NA,NA,NA,NA,NA,NA,NA,NA,NA,NA,NA,NA,NA,NA,NA,NA
cd9ca,Save data screen,canvas.Screen,1_8_0_1,NA,NA,timeout,500.33999999997,286288,286278.12,286293.78,286777.44,286780,2023-03-19T10:30:05Z,286794.12,Wettbewerb,ushindani,d,mapendezi,kichocheo,ubaguzi,NA,NA,0,NULL,NA,NA,NA,NA,NA,NA,NA,NA,NA,NA,NA,NA,NA,NA,NA,NA,NA,NA,NA
cd9ca,deep,flow.Sequence,1_8_0,NA,NA,completion,46135.64,240639,240625.12,240641.8,286777.44,286781,2023-03-19T10:30:05Z,286794.12,Wettbewerb,ushindani,d,mapendezi,kichocheo,ubaguzi,NA,NA,NA,NULL,NA,NA,NA,NA,NA,NA,NA,NA,NA,NA,NA,NA,NA,NA,NA,NA,NA,NA,NA
cd9ca,task,flow.Sequence,1_8,NA,NA,completion,46135.64,240638,240625.12,240641.8,286777.44,286782,2023-03-19T10:30:05Z,286794.12,Wettbewerb,ushindani,d,mapendezi,kichocheo,ubaguzi,NA,NA,NA,NULL,NA,NA,NA,NA,NA,NA,NA,NA,NA,NA,NA,NA,NA,NA,NA,NA,NA,NA,NA
cd9ca,Deep Question,html.Page,1_9_0_0,NA,NA,form submission,33374.88,286783,286777.44,286794.12,320169,320171,2023-03-19T10:30:38Z,320173.58,Beweis,ushahidi,d,marudio,kizuizi,mtendaji,arazaji,NA,NA,NULL,NA,NA,NA,NA,NA,NA,NA,NA,NA,NA,NA,NA,NA,NA,NA,NA,NA,NA,NA
cd9ca,Save data screen,canvas.Screen,1_9_0_1,NA,NA,timeout,500.33999999997,320183,320165.34,320173.58,320657.24,320660,2023-03-19T10:30:39Z,320673.92,Beweis,ushahidi,d,marudio,kizuizi,mtendaji,NA,NA,0,NULL,NA,NA,NA,NA,NA,NA,NA,NA,NA,NA,NA,NA,NA,NA,NA,NA,NA,NA,NA
cd9ca,deep,flow.Sequence,1_9_0,NA,NA,completion,33863.12,286783,286777.44,286794.12,320657.24,320661,2023-03-19T10:30:39Z,320673.92,Beweis,ushahidi,d,marudio,kizuizi,mtendaji,NA,NA,NA,NULL,NA,NA,NA,NA,NA,NA,NA,NA,NA,NA,NA,NA,NA,NA,NA,NA,NA,NA,NA
cd9ca,task,flow.Sequence,1_9,NA,NA,completion,33863.12,286782,286777.44,286794.12,320657.24,320666,2023-03-19T10:30:39Z,320673.92,Beweis,ushahidi,d,marudio,kizuizi,mtendaji,NA,NA,NA,NULL,NA,NA,NA,NA,NA,NA,NA,NA,NA,NA,NA,NA,NA,NA,NA,NA,NA,NA,NA
cd9ca,Deep Question,html.Page,1_10_0_0,NA,NA,form submission,35047.08,320668,320657.24,320673.92,355721,355721,2023-03-19T10:31:14Z,355729.02,Ausschluss,kutengwa,d,ununuzi,taratibu,madeni,useknet,NA,NA,NULL,NA,NA,NA,NA,NA,NA,NA,NA,NA,NA,NA,NA,NA,NA,NA,NA,NA,NA,NA
cd9ca,Save data screen,canvas.Screen,1_10_0_1,NA,NA,timeout,506.59999999998,355729,355717.66,355729.02,356218.94,356221,2023-03-19T10:31:14Z,356235.62,Ausschluss,kutengwa,d,ununuzi,taratibu,madeni,NA,NA,0,NULL,NA,NA,NA,NA,NA,NA,NA,NA,NA,NA,NA,NA,NA,NA,NA,NA,NA,NA,NA
cd9ca,deep,flow.Sequence,1_10_0,NA,NA,completion,35545.02,320667,320657.24,320673.92,356218.94,356222,2023-03-19T10:31:14Z,356235.62,Ausschluss,kutengwa,d,ununuzi,taratibu,madeni,NA,NA,NA,NULL,NA,NA,NA,NA,NA,NA,NA,NA,NA,NA,NA,NA,NA,NA,NA,NA,NA,NA,NA
cd9ca,task,flow.Sequence,1_10,NA,NA,completion,35545.02,320667,320657.24,320673.92,356218.94,356225,2023-03-19T10:31:14Z,356235.62,Ausschluss,kutengwa,d,ununuzi,taratibu,madeni,NA,NA,NA,NULL,NA,NA,NA,NA,NA,NA,NA,NA,NA,NA,NA,NA,NA,NA,NA,NA,NA,NA,NA
cd9ca,Deep Question,html.Page,1_11_0_0,NA,NA,form submission,26471.38,356226,356218.94,356235.62,382707,382709,2023-03-19T10:31:41Z,382710.86,Schönheit,kirembo,s,mahojiano,msisimko,jitihadi,kineveau,NA,NA,NULL,NA,NA,NA,NA,NA,NA,NA,NA,NA,NA,NA,NA,NA,NA,NA,NA,NA,NA,NA
cd9ca,Save data screen,canvas.Screen,1_11_0_1,NA,NA,timeout,500.29999999999,382719,382701.52,382710.86,383194.48,383197,2023-03-19T10:31:41Z,383211.16,Schönheit,kirembo,s,mahojiano,msisimko,jitihadi,NA,NA,0,NULL,NA,NA,NA,NA,NA,NA,NA,NA,NA,NA,NA,NA,NA,NA,NA,NA,NA,NA,NA
cd9ca,deep,flow.Sequence,1_11_0,NA,NA,completion,26958.86,356226,356218.94,356235.62,383194.48,383199,2023-03-19T10:31:41Z,383211.16,Schönheit,kirembo,s,mahojiano,msisimko,jitihadi,NA,NA,NA,NULL,NA,NA,NA,NA,NA,NA,NA,NA,NA,NA,NA,NA,NA,NA,NA,NA,NA,NA,NA
cd9ca,task,flow.Sequence,1_11,NA,NA,completion,26958.86,356225,356218.94,356235.62,383194.48,383200,2023-03-19T10:31:41Z,383211.16,Schönheit,kirembo,s,mahojiano,msisimko,jitihadi,NA,NA,NA,NULL,NA,NA,NA,NA,NA,NA,NA,NA,NA,NA,NA,NA,NA,NA,NA,NA,NA,NA,NA
cd9ca,Deep Question,html.Page,1_12_0_0,NA,NA,form submission,41611.84,383204,383194.48,383211.16,424823,424823,2023-03-19T10:32:23Z,424834.28,Zuwachs,nyongeza,s,matilaba,udhibiti,hudhurio,musketro,NA,NA,NULL,NA,NA,NA,NA,NA,NA,NA,NA,NA,NA,NA,NA,NA,NA,NA,NA,NA,NA,NA
cd9ca,Save data screen,canvas.Screen,1_12_0_1,NA,NA,timeout,504.01999999996,424832,424820.4,424834.28,425321.62,425323,2023-03-19T10:32:24Z,425338.3,Zuwachs,nyongeza,s,matilaba,udhibiti,hudhurio,NA,NA,0,NULL,NA,NA,NA,NA,NA,NA,NA,NA,NA,NA,NA,NA,NA,NA,NA,NA,NA,NA,NA
cd9ca,deep,flow.Sequence,1_12_0,NA,NA,completion,42110.46,383204,383194.48,383211.16,425321.62,425325,2023-03-19T10:32:24Z,425338.3,Zuwachs,nyongeza,s,matilaba,udhibiti,hudhurio,NA,NA,NA,NULL,NA,NA,NA,NA,NA,NA,NA,NA,NA,NA,NA,NA,NA,NA,NA,NA,NA,NA,NA
cd9ca,task,flow.Sequence,1_12,NA,NA,completion,42110.46,383201,383194.48,383211.16,425321.62,425325,2023-03-19T10:32:24Z,425338.3,Zuwachs,nyongeza,s,matilaba,udhibiti,hudhurio,NA,NA,NA,NULL,NA,NA,NA,NA,NA,NA,NA,NA,NA,NA,NA,NA,NA,NA,NA,NA,NA,NA,NA
cd9ca,Deep Question,html.Page,1_13_0_0,NA,NA,form submission,50122.7,425326,425321.62,425338.3,475461,475462,2023-03-19T10:33:14Z,475464.68,Sympathie,mapendano,s,dhamiria,fungamano,maazimio,wmabaji,NA,NA,NULL,NA,NA,NA,NA,NA,NA,NA,NA,NA,NA,NA,NA,NA,NA,NA,NA,NA,NA,NA
cd9ca,Save data screen,canvas.Screen,1_13_0_1,NA,NA,timeout,500.35999999999,475468,475458.76,475464.68,475948.36,475950,2023-03-19T10:33:14Z,475965.04,Sympathie,mapendano,s,dhamiria,fungamano,maazimio,NA,NA,0,NULL,NA,NA,NA,NA,NA,NA,NA,NA,NA,NA,NA,NA,NA,NA,NA,NA,NA,NA,NA
cd9ca,deep,flow.Sequence,1_13_0,NA,NA,completion,50610.06,425326,425321.62,425338.3,475948.36,475952,2023-03-19T10:33:14Z,475965.04,Sympathie,mapendano,s,dhamiria,fungamano,maazimio,NA,NA,NA,NULL,NA,NA,NA,NA,NA,NA,NA,NA,NA,NA,NA,NA,NA,NA,NA,NA,NA,NA,NA
cd9ca,task,flow.Sequence,1_13,NA,NA,completion,50610.06,425326,425321.62,425338.3,475948.36,475952,2023-03-19T10:33:14Z,475965.04,Sympathie,mapendano,s,dhamiria,fungamano,maazimio,NA,NA,NA,NULL,NA,NA,NA,NA,NA,NA,NA,NA,NA,NA,NA,NA,NA,NA,NA,NA,NA,NA,NA
cd9ca,Deep Question,html.Page,1_14_0_0,NA,NA,form submission,23148.96,475953,475948.36,475965.04,499114,499114,2023-03-19T10:33:37Z,499122.48,Konkurrent,mshindani,d,msemaji,mvutaji,kipukusa,aragia,NA,NA,NULL,NA,NA,NA,NA,NA,NA,NA,NA,NA,NA,NA,NA,NA,NA,NA,NA,NA,NA,NA
cd9ca,Save data screen,canvas.Screen,1_14_0_1,NA,NA,timeout,496.84000000003,499121,499111.1,499122.48,499602.64,499608,2023-03-19T10:33:38Z,499619.32,Konkurrent,mshindani,d,msemaji,mvutaji,kipukusa,NA,NA,0,NULL,NA,NA,NA,NA,NA,NA,NA,NA,NA,NA,NA,NA,NA,NA,NA,NA,NA,NA,NA
cd9ca,deep,flow.Sequence,1_14_0,NA,NA,completion,23637.6,475953,475948.36,475965.04,499602.64,499611,2023-03-19T10:33:38Z,499619.32,Konkurrent,mshindani,d,msemaji,mvutaji,kipukusa,NA,NA,NA,NULL,NA,NA,NA,NA,NA,NA,NA,NA,NA,NA,NA,NA,NA,NA,NA,NA,NA,NA,NA
cd9ca,task,flow.Sequence,1_14,NA,NA,completion,23637.6,475953,475948.36,475965.04,499602.64,499612,2023-03-19T10:33:38Z,499619.32,Konkurrent,mshindani,d,msemaji,mvutaji,kipukusa,NA,NA,NA,NULL,NA,NA,NA,NA,NA,NA,NA,NA,NA,NA,NA,NA,NA,NA,NA,NA,NA,NA,NA
cd9ca,Deep Question,html.Page,1_15_0_0,NA,NA,form submission,15356.68,499613,499602.64,499619.32,514976,514977,2023-03-19T10:33:53Z,514976.7,Vorsorge,tahadhari,d,ufafanuzi,makini,mashambani,msabraji,NA,NA,NULL,NA,NA,NA,NA,NA,NA,NA,NA,NA,NA,NA,NA,NA,NA,NA,NA,NA,NA,NA
cd9ca,Save data screen,canvas.Screen,1_15_0_1,NA,NA,timeout,500.33999999997,514987,514971.88,514976.7,515460.38,515463,2023-03-19T10:33:54Z,515477.04,Vorsorge,tahadhari,d,ufafanuzi,makini,mashambani,NA,NA,0,NULL,NA,NA,NA,NA,NA,NA,NA,NA,NA,NA,NA,NA,NA,NA,NA,NA,NA,NA,NA
cd9ca,deep,flow.Sequence,1_15_0,NA,NA,completion,15841.06,499613,499602.64,499619.32,515460.38,515465,2023-03-19T10:33:54Z,515477.04,Vorsorge,tahadhari,d,ufafanuzi,makini,mashambani,NA,NA,NA,NULL,NA,NA,NA,NA,NA,NA,NA,NA,NA,NA,NA,NA,NA,NA,NA,NA,NA,NA,NA
cd9ca,task,flow.Sequence,1_15,NA,NA,completion,15841.06,499613,499602.64,499619.32,515460.38,515466,2023-03-19T10:33:54Z,515477.04,Vorsorge,tahadhari,d,ufafanuzi,makini,mashambani,NA,NA,NA,NULL,NA,NA,NA,NA,NA,NA,NA,NA,NA,NA,NA,NA,NA,NA,NA,NA,NA,NA,NA
cd9ca,retrieval block 1 (cued recall),flow.Loop,1,NA,NA,completion,491777.36,23679,23680.9,23683.02,515460.38,515472,2023-03-19T10:33:54Z,515477.04,NA,NA,NA,NA,NA,NA,NA,NA,NA,NULL,NA,NA,NA,NA,NA,NA,NA,NA,NA,NA,NA,NA,NA,NA,NA,NA,NA,NA,NA
cd9ca,Shallow Question,html.Page,2_0_0_0,NA,NA,form submission,8743.96,515474,515460.38,515477.04,524221,524221,2023-03-19T10:34:02Z,524220.08,Annäherung,maegesho,s,madahili,kujiamini,mapendekezo,maegesho,NA,NA,"c(""distractor1"", ""distractor2"", ""distractor3"")",NA,NA,NA,NA,NA,NA,NA,NA,NA,NA,NA,NA,NA,NA,NA,NA,NA,NA,NA
cd9ca,Save data screen,canvas.Screen,2_0_0_1,NA,NA,timeout,500.41999999998,524228,524218.24,524220.08,524703.82,524705,2023-03-19T10:34:03Z,524720.5,Annäherung,maegesho,s,madahili,kujiamini,mapendekezo,NA,NA,1,"c(""distractor1"", ""distractor2"", ""distractor3"")",NA,NA,NA,NA,NA,NA,NA,NA,NA,NA,NA,NA,NA,NA,NA,NA,NA,NA,NA
cd9ca,shallow,flow.Sequence,2_0_0,NA,NA,completion,9226.78,515473,515460.38,515477.04,524703.82,524708,2023-03-19T10:34:03Z,524720.5,Annäherung,maegesho,s,madahili,kujiamini,mapendekezo,NA,NA,NA,"c(""distractor1"", ""distractor2"", ""distractor3"")",NA,NA,NA,NA,NA,NA,NA,NA,NA,NA,NA,NA,NA,NA,NA,NA,NA,NA,NA
cd9ca,task,flow.Sequence,2_0,NA,NA,completion,9226.78,515473,515460.38,515477.04,524703.82,524709,2023-03-19T10:34:03Z,524720.5,Annäherung,maegesho,s,madahili,kujiamini,mapendekezo,NA,NA,NA,"c(""distractor1"", ""distractor2"", ""distractor3"")",NA,NA,NA,NA,NA,NA,NA,NA,NA,NA,NA,NA,NA,NA,NA,NA,NA,NA,NA
cd9ca,Shallow Question,html.Page,2_1_0_0,NA,NA,form submission,6664.5,524711,524703.82,524720.5,531385,531385,2023-03-19T10:34:10Z,531395.58,Schönheit,kirembo,s,mahojiano,msisimko,jitihadi,kirembo,NA,NA,"c(""distractor1"", ""distractor2"", ""distractor3"")",NA,NA,NA,NA,NA,NA,NA,NA,NA,NA,NA,NA,NA,NA,NA,NA,NA,NA,NA
cd9ca,Save data screen,canvas.Screen,2_1_0_1,NA,NA,timeout,500.28000000003,531390,531382.16,531395.58,531879.18,531882,2023-03-19T10:34:10Z,531895.86,Schönheit,kirembo,s,mahojiano,msisimko,jitihadi,NA,NA,1,"c(""distractor1"", ""distractor2"", ""distractor3"")",NA,NA,NA,NA,NA,NA,NA,NA,NA,NA,NA,NA,NA,NA,NA,NA,NA,NA,NA
cd9ca,shallow,flow.Sequence,2_1_0,NA,NA,completion,7158.6800000001,524711,524703.82,524720.5,531879.18,531883,2023-03-19T10:34:10Z,531895.86,Schönheit,kirembo,s,mahojiano,msisimko,jitihadi,NA,NA,NA,"c(""distractor1"", ""distractor2"", ""distractor3"")",NA,NA,NA,NA,NA,NA,NA,NA,NA,NA,NA,NA,NA,NA,NA,NA,NA,NA,NA
cd9ca,task,flow.Sequence,2_1,NA,NA,completion,7158.6800000001,524711,524703.82,524720.5,531879.18,531884,2023-03-19T10:34:10Z,531895.86,Schönheit,kirembo,s,mahojiano,msisimko,jitihadi,NA,NA,NA,"c(""distractor1"", ""distractor2"", ""distractor3"")",NA,NA,NA,NA,NA,NA,NA,NA,NA,NA,NA,NA,NA,NA,NA,NA,NA,NA,NA
cd9ca,Shallow Question,html.Page,2_2_0_0,NA,NA,form submission,6721.14,531886,531879.18,531895.86,538617,538618,2023-03-19T10:34:17Z,538631.02,Auftrag,uagizaji,d,ghanima,kuzingatia,msukani,ghanima,NA,NA,"c(""distractor1"", ""distractor2"", ""distractor3"")",NA,NA,NA,NA,NA,NA,NA,NA,NA,NA,NA,NA,NA,NA,NA,NA,NA,NA,NA
cd9ca,Save data screen,canvas.Screen,2_2_0_1,NA,NA,timeout,500.33999999997,538622,538615.38,538631.02,539114.68,539116,2023-03-19T10:34:17Z,539131.36,Auftrag,uagizaji,d,ghanima,kuzingatia,msukani,NA,NA,0,"c(""distractor1"", ""distractor2"", ""distractor3"")",NA,NA,NA,NA,NA,NA,NA,NA,NA,NA,NA,NA,NA,NA,NA,NA,NA,NA,NA
cd9ca,shallow,flow.Sequence,2_2_0,NA,NA,completion,7218.8200000001,531886,531879.18,531895.86,539114.68,539118,2023-03-19T10:34:17Z,539131.36,Auftrag,uagizaji,d,ghanima,kuzingatia,msukani,NA,NA,NA,"c(""distractor1"", ""distractor2"", ""distractor3"")",NA,NA,NA,NA,NA,NA,NA,NA,NA,NA,NA,NA,NA,NA,NA,NA,NA,NA,NA
cd9ca,task,flow.Sequence,2_2,NA,NA,completion,7218.8200000001,531886,531879.18,531895.86,539114.68,539118,2023-03-19T10:34:17Z,539131.36,Auftrag,uagizaji,d,ghanima,kuzingatia,msukani,NA,NA,NA,"c(""distractor1"", ""distractor2"", ""distractor3"")",NA,NA,NA,NA,NA,NA,NA,NA,NA,NA,NA,NA,NA,NA,NA,NA,NA,NA,NA
cd9ca,Shallow Question,html.Page,2_3_0_0,NA,NA,form submission,7048.64,539119,539114.68,539131.36,546180,546180,2023-03-19T10:34:24Z,546185.46,Verstand,ufahamivu,s,shakawa,hadhari,mhandisi,ufahamivu,NA,NA,"c(""distractor1"", ""distractor2"", ""distractor3"")",NA,NA,NA,NA,NA,NA,NA,NA,NA,NA,NA,NA,NA,NA,NA,NA,NA,NA,NA
cd9ca,Save data screen,canvas.Screen,2_3_0_1,NA,NA,timeout,500.76000000001,546185,546177.78,546185.46,546669.54,546672,2023-03-19T10:34:25Z,546686.22,Verstand,ufahamivu,s,shakawa,hadhari,mhandisi,NA,NA,1,"c(""distractor1"", ""distractor2"", ""distractor3"")",NA,NA,NA,NA,NA,NA,NA,NA,NA,NA,NA,NA,NA,NA,NA,NA,NA,NA,NA
cd9ca,shallow,flow.Sequence,2_3_0,NA,NA,completion,7538.1800000001,539119,539114.68,539131.36,546669.54,546674,2023-03-19T10:34:25Z,546686.22,Verstand,ufahamivu,s,shakawa,hadhari,mhandisi,NA,NA,NA,"c(""distractor1"", ""distractor2"", ""distractor3"")",NA,NA,NA,NA,NA,NA,NA,NA,NA,NA,NA,NA,NA,NA,NA,NA,NA,NA,NA
cd9ca,task,flow.Sequence,2_3,NA,NA,completion,7538.1800000001,539119,539114.68,539131.36,546669.54,546678,2023-03-19T10:34:25Z,546686.22,Verstand,ufahamivu,s,shakawa,hadhari,mhandisi,NA,NA,NA,"c(""distractor1"", ""distractor2"", ""distractor3"")",NA,NA,NA,NA,NA,NA,NA,NA,NA,NA,NA,NA,NA,NA,NA,NA,NA,NA,NA
cd9ca,Shallow Question,html.Page,2_4_0_0,NA,NA,form submission,7393.78,546681,546669.54,546686.22,554080,554082,2023-03-19T10:34:32Z,554093.62,Gelegenheit,wakati,d,mchanganyiko,kipaumbele,kushuku,wakati,NA,NA,"c(""distractor1"", ""distractor2"", ""distractor3"")",NA,NA,NA,NA,NA,NA,NA,NA,NA,NA,NA,NA,NA,NA,NA,NA,NA,NA,NA
cd9ca,Save data screen,canvas.Screen,2_4_0_1,NA,NA,timeout,491.68000000005,554092,554075.12,554093.62,554568.62,554571,2023-03-19T10:34:33Z,554585.3,Gelegenheit,wakati,d,mchanganyiko,kipaumbele,kushuku,NA,NA,1,"c(""distractor1"", ""distractor2"", ""distractor3"")",NA,NA,NA,NA,NA,NA,NA,NA,NA,NA,NA,NA,NA,NA,NA,NA,NA,NA,NA
cd9ca,shallow,flow.Sequence,2_4_0,NA,NA,completion,7882.4,546681,546669.54,546686.22,554568.62,554575,2023-03-19T10:34:33Z,554585.3,Gelegenheit,wakati,d,mchanganyiko,kipaumbele,kushuku,NA,NA,NA,"c(""distractor1"", ""distractor2"", ""distractor3"")",NA,NA,NA,NA,NA,NA,NA,NA,NA,NA,NA,NA,NA,NA,NA,NA,NA,NA,NA
cd9ca,task,flow.Sequence,2_4,NA,NA,completion,7882.4,546681,546669.54,546686.22,554568.62,554581,2023-03-19T10:34:33Z,554585.3,Gelegenheit,wakati,d,mchanganyiko,kipaumbele,kushuku,NA,NA,NA,"c(""distractor1"", ""distractor2"", ""distractor3"")",NA,NA,NA,NA,NA,NA,NA,NA,NA,NA,NA,NA,NA,NA,NA,NA,NA,NA,NA
cd9ca,Shallow Question,html.Page,2_5_0_0,NA,NA,form submission,12166.7,554584,554568.62,554585.3,566752,566754,2023-03-19T10:34:45Z,566766.12,Wettbewerb,ushindani,d,mapendezi,kichocheo,ubaguzi,ushindani,NA,NA,"c(""distractor1"", ""distractor2"", ""distractor3"")",NA,NA,NA,NA,NA,NA,NA,NA,NA,NA,NA,NA,NA,NA,NA,NA,NA,NA,NA
cd9ca,Save data screen,canvas.Screen,2_5_0_1,NA,NA,timeout,491.85999999999,566763,566747.86,566766.12,567241.3,567247,2023-03-19T10:34:45Z,567257.98,Wettbewerb,ushindani,d,mapendezi,kichocheo,ubaguzi,NA,NA,1,"c(""distractor1"", ""distractor2"", ""distractor3"")",NA,NA,NA,NA,NA,NA,NA,NA,NA,NA,NA,NA,NA,NA,NA,NA,NA,NA,NA
cd9ca,shallow,flow.Sequence,2_5_0,NA,NA,completion,12656,554583,554568.62,554585.3,567241.3,567249,2023-03-19T10:34:45Z,567257.98,Wettbewerb,ushindani,d,mapendezi,kichocheo,ubaguzi,NA,NA,NA,"c(""distractor1"", ""distractor2"", ""distractor3"")",NA,NA,NA,NA,NA,NA,NA,NA,NA,NA,NA,NA,NA,NA,NA,NA,NA,NA,NA
cd9ca,task,flow.Sequence,2_5,NA,NA,completion,12656,554583,554568.62,554585.3,567241.3,567253,2023-03-19T10:34:45Z,567257.98,Wettbewerb,ushindani,d,mapendezi,kichocheo,ubaguzi,NA,NA,NA,"c(""distractor1"", ""distractor2"", ""distractor3"")",NA,NA,NA,NA,NA,NA,NA,NA,NA,NA,NA,NA,NA,NA,NA,NA,NA,NA,NA
cd9ca,Shallow Question,html.Page,2_6_0_0,NA,NA,form submission,5181.02,567257,567241.3,567257.98,572439,572440,2023-03-19T10:34:51Z,572436.78,Polizist,msongora,d,simanzi,mandhari,nidhamu,msongora,NA,NA,"c(""distractor1"", ""distractor2"", ""distractor3"")",NA,NA,NA,NA,NA,NA,NA,NA,NA,NA,NA,NA,NA,NA,NA,NA,NA,NA,NA
cd9ca,Save data screen,canvas.Screen,2_6_0_1,NA,NA,timeout,500.33999999997,572445,572436.22,572436.78,572920.44,572923,2023-03-19T10:34:51Z,572937.12,Polizist,msongora,d,simanzi,mandhari,nidhamu,NA,NA,1,"c(""distractor1"", ""distractor2"", ""distractor3"")",NA,NA,NA,NA,NA,NA,NA,NA,NA,NA,NA,NA,NA,NA,NA,NA,NA,NA,NA
cd9ca,shallow,flow.Sequence,2_6_0,NA,NA,completion,5662.46,567257,567241.3,567257.98,572920.44,572926,2023-03-19T10:34:51Z,572937.12,Polizist,msongora,d,simanzi,mandhari,nidhamu,NA,NA,NA,"c(""distractor1"", ""distractor2"", ""distractor3"")",NA,NA,NA,NA,NA,NA,NA,NA,NA,NA,NA,NA,NA,NA,NA,NA,NA,NA,NA
cd9ca,task,flow.Sequence,2_6,NA,NA,completion,5662.46,567257,567241.3,567257.98,572920.44,572927,2023-03-19T10:34:51Z,572937.12,Polizist,msongora,d,simanzi,mandhari,nidhamu,NA,NA,NA,"c(""distractor1"", ""distractor2"", ""distractor3"")",NA,NA,NA,NA,NA,NA,NA,NA,NA,NA,NA,NA,NA,NA,NA,NA,NA,NA,NA
cd9ca,Shallow Question,html.Page,2_7_0_0,NA,NA,form submission,10374.88,572931,572920.44,572937.12,583312,583312,2023-03-19T10:35:01Z,583318.6,Sympathie,mapendano,s,dhamiria,fungamano,maazimio,mapendano,NA,NA,"c(""distractor1"", ""distractor2"", ""distractor3"")",NA,NA,NA,NA,NA,NA,NA,NA,NA,NA,NA,NA,NA,NA,NA,NA,NA,NA,NA
cd9ca,Save data screen,canvas.Screen,2_7_0_1,NA,NA,timeout,500.35999999999,583317,583309.68,583318.6,583802.28,583806,2023-03-19T10:35:02Z,583818.96,Sympathie,mapendano,s,dhamiria,fungamano,maazimio,NA,NA,1,"c(""distractor1"", ""distractor2"", ""distractor3"")",NA,NA,NA,NA,NA,NA,NA,NA,NA,NA,NA,NA,NA,NA,NA,NA,NA,NA,NA
cd9ca,shallow,flow.Sequence,2_7_0,NA,NA,completion,10865.16,572931,572920.44,572937.12,583802.28,583806,2023-03-19T10:35:02Z,583818.96,Sympathie,mapendano,s,dhamiria,fungamano,maazimio,NA,NA,NA,"c(""distractor1"", ""distractor2"", ""distractor3"")",NA,NA,NA,NA,NA,NA,NA,NA,NA,NA,NA,NA,NA,NA,NA,NA,NA,NA,NA
cd9ca,task,flow.Sequence,2_7,NA,NA,completion,10865.16,572931,572920.44,572937.12,583802.28,583807,2023-03-19T10:35:02Z,583818.96,Sympathie,mapendano,s,dhamiria,fungamano,maazimio,NA,NA,NA,"c(""distractor1"", ""distractor2"", ""distractor3"")",NA,NA,NA,NA,NA,NA,NA,NA,NA,NA,NA,NA,NA,NA,NA,NA,NA,NA,NA
cd9ca,Shallow Question,html.Page,2_8_0_0,NA,NA,form submission,8351.04,583808,583802.28,583818.96,592170,592170,2023-03-19T10:35:10Z,592172.24,Widerstand,usulubu,s,kusababisha,mwalimu,mwenendo,usulubu,NA,NA,"c(""distractor1"", ""distractor2"", ""distractor3"")",NA,NA,NA,NA,NA,NA,NA,NA,NA,NA,NA,NA,NA,NA,NA,NA,NA,NA,NA
cd9ca,Save data screen,canvas.Screen,2_8_0_1,NA,NA,timeout,500.33999999997,592175,592167.78,592172.24,592655.9,592662,2023-03-19T10:35:11Z,592672.58,Widerstand,usulubu,s,kusababisha,mwalimu,mwenendo,NA,NA,1,"c(""distractor1"", ""distractor2"", ""distractor3"")",NA,NA,NA,NA,NA,NA,NA,NA,NA,NA,NA,NA,NA,NA,NA,NA,NA,NA,NA
cd9ca,shallow,flow.Sequence,2_8_0,NA,NA,completion,8836.9400000001,583808,583802.28,583818.96,592655.9,592668,2023-03-19T10:35:11Z,592672.58,Widerstand,usulubu,s,kusababisha,mwalimu,mwenendo,NA,NA,NA,"c(""distractor1"", ""distractor2"", ""distractor3"")",NA,NA,NA,NA,NA,NA,NA,NA,NA,NA,NA,NA,NA,NA,NA,NA,NA,NA,NA
cd9ca,task,flow.Sequence,2_8,NA,NA,completion,8836.9400000001,583808,583802.28,583818.96,592655.9,592670,2023-03-19T10:35:11Z,592672.58,Widerstand,usulubu,s,kusababisha,mwalimu,mwenendo,NA,NA,NA,"c(""distractor1"", ""distractor2"", ""distractor3"")",NA,NA,NA,NA,NA,NA,NA,NA,NA,NA,NA,NA,NA,NA,NA,NA,NA,NA,NA
cd9ca,Shallow Question,html.Page,2_9_0_0,NA,NA,form submission,7118.42,592671,592655.9,592672.58,599791,599791,2023-03-19T10:35:18Z,599786.66,Konkurrent,mshindani,d,msemaji,mvutaji,kipukusa,kipukusa,NA,NA,"c(""distractor1"", ""distractor2"", ""distractor3"")",NA,NA,NA,NA,NA,NA,NA,NA,NA,NA,NA,NA,NA,NA,NA,NA,NA,NA,NA
cd9ca,Save data screen,canvas.Screen,2_9_0_1,NA,NA,timeout,500.38,599798,599785.9,599786.66,600270.36,600272,2023-03-19T10:35:18Z,600287.04,Konkurrent,mshindani,d,msemaji,mvutaji,kipukusa,NA,NA,0,"c(""distractor1"", ""distractor2"", ""distractor3"")",NA,NA,NA,NA,NA,NA,NA,NA,NA,NA,NA,NA,NA,NA,NA,NA,NA,NA,NA
cd9ca,shallow,flow.Sequence,2_9_0,NA,NA,completion,7597.78,592671,592655.9,592672.58,600270.36,600279,2023-03-19T10:35:18Z,600287.04,Konkurrent,mshindani,d,msemaji,mvutaji,kipukusa,NA,NA,NA,"c(""distractor1"", ""distractor2"", ""distractor3"")",NA,NA,NA,NA,NA,NA,NA,NA,NA,NA,NA,NA,NA,NA,NA,NA,NA,NA,NA
cd9ca,task,flow.Sequence,2_9,NA,NA,completion,7597.78,592670,592655.9,592672.58,600270.36,600282,2023-03-19T10:35:18Z,600287.04,Konkurrent,mshindani,d,msemaji,mvutaji,kipukusa,NA,NA,NA,"c(""distractor1"", ""distractor2"", ""distractor3"")",NA,NA,NA,NA,NA,NA,NA,NA,NA,NA,NA,NA,NA,NA,NA,NA,NA,NA,NA
cd9ca,Shallow Question,html.Page,2_10_0_0,NA,NA,form submission,16077.96,600285,600270.36,600287.04,616365,616366,2023-03-19T10:35:35Z,616366.08,Symbol,kielezo,s,kinyume,nderemo,utayari,kinyume,NA,NA,"c(""distractor1"", ""distractor2"", ""distractor3"")",NA,NA,NA,NA,NA,NA,NA,NA,NA,NA,NA,NA,NA,NA,NA,NA,NA,NA,NA
cd9ca,Save data screen,canvas.Screen,2_10_0_1,NA,NA,timeout,500.34000000008,616372,616362.1,616366.08,616849.76,616856,2023-03-19T10:35:35Z,616866.42,Symbol,kielezo,s,kinyume,nderemo,utayari,NA,NA,0,"c(""distractor1"", ""distractor2"", ""distractor3"")",NA,NA,NA,NA,NA,NA,NA,NA,NA,NA,NA,NA,NA,NA,NA,NA,NA,NA,NA
cd9ca,shallow,flow.Sequence,2_10_0,NA,NA,completion,16562.72,600285,600270.36,600287.04,616849.76,616857,2023-03-19T10:35:35Z,616866.42,Symbol,kielezo,s,kinyume,nderemo,utayari,NA,NA,NA,"c(""distractor1"", ""distractor2"", ""distractor3"")",NA,NA,NA,NA,NA,NA,NA,NA,NA,NA,NA,NA,NA,NA,NA,NA,NA,NA,NA
cd9ca,task,flow.Sequence,2_10,NA,NA,completion,16562.72,600284,600270.36,600287.04,616849.76,616859,2023-03-19T10:35:35Z,616866.42,Symbol,kielezo,s,kinyume,nderemo,utayari,NA,NA,NA,"c(""distractor1"", ""distractor2"", ""distractor3"")",NA,NA,NA,NA,NA,NA,NA,NA,NA,NA,NA,NA,NA,NA,NA,NA,NA,NA,NA
cd9ca,Shallow Question,html.Page,2_11_0_0,NA,NA,form submission,8731.58,616865,616849.76,616866.42,625598,625599,2023-03-19T10:35:44Z,625610.22,Beweis,ushahidi,d,marudio,kizuizi,mtendaji,ushahidi,NA,NA,"c(""distractor1"", ""distractor2"", ""distractor3"")",NA,NA,NA,NA,NA,NA,NA,NA,NA,NA,NA,NA,NA,NA,NA,NA,NA,NA,NA
cd9ca,Save data screen,canvas.Screen,2_11_0_1,NA,NA,timeout,500.34000000008,625604,625595.5,625610.22,626093.88,626096,2023-03-19T10:35:44Z,626110.56,Beweis,ushahidi,d,marudio,kizuizi,mtendaji,NA,NA,1,"c(""distractor1"", ""distractor2"", ""distractor3"")",NA,NA,NA,NA,NA,NA,NA,NA,NA,NA,NA,NA,NA,NA,NA,NA,NA,NA,NA
cd9ca,shallow,flow.Sequence,2_11_0,NA,NA,completion,9227.46,616865,616849.76,616866.42,626093.88,626098,2023-03-19T10:35:44Z,626110.56,Beweis,ushahidi,d,marudio,kizuizi,mtendaji,NA,NA,NA,"c(""distractor1"", ""distractor2"", ""distractor3"")",NA,NA,NA,NA,NA,NA,NA,NA,NA,NA,NA,NA,NA,NA,NA,NA,NA,NA,NA
cd9ca,task,flow.Sequence,2_11,NA,NA,completion,9227.46,616865,616849.76,616866.42,626093.88,626098,2023-03-19T10:35:44Z,626110.56,Beweis,ushahidi,d,marudio,kizuizi,mtendaji,NA,NA,NA,"c(""distractor1"", ""distractor2"", ""distractor3"")",NA,NA,NA,NA,NA,NA,NA,NA,NA,NA,NA,NA,NA,NA,NA,NA,NA,NA,NA
cd9ca,Shallow Question,html.Page,2_12_0_0,NA,NA,form submission,8269.4399999999,626098,626093.88,626110.56,634380,634380,2023-03-19T10:35:53Z,634386.32,Zuwachs,nyongeza,s,matilaba,udhibiti,hudhurio,udhibiti,NA,NA,"c(""distractor1"", ""distractor2"", ""distractor3"")",NA,NA,NA,NA,NA,NA,NA,NA,NA,NA,NA,NA,NA,NA,NA,NA,NA,NA,NA
cd9ca,Save data screen,canvas.Screen,2_12_0_1,NA,NA,timeout,493.76000000001,634385,634377.78,634386.32,634863.4,634866,2023-03-19T10:35:53Z,634880.08,Zuwachs,nyongeza,s,matilaba,udhibiti,hudhurio,NA,NA,0,"c(""distractor1"", ""distractor2"", ""distractor3"")",NA,NA,NA,NA,NA,NA,NA,NA,NA,NA,NA,NA,NA,NA,NA,NA,NA,NA,NA
cd9ca,shallow,flow.Sequence,2_12_0,NA,NA,completion,8752.84,626098,626093.88,626110.56,634863.4,634867,2023-03-19T10:35:53Z,634880.08,Zuwachs,nyongeza,s,matilaba,udhibiti,hudhurio,NA,NA,NA,"c(""distractor1"", ""distractor2"", ""distractor3"")",NA,NA,NA,NA,NA,NA,NA,NA,NA,NA,NA,NA,NA,NA,NA,NA,NA,NA,NA
cd9ca,task,flow.Sequence,2_12,NA,NA,completion,8752.84,626098,626093.88,626110.56,634863.4,634868,2023-03-19T10:35:53Z,634880.08,Zuwachs,nyongeza,s,matilaba,udhibiti,hudhurio,NA,NA,NA,"c(""distractor1"", ""distractor2"", ""distractor3"")",NA,NA,NA,NA,NA,NA,NA,NA,NA,NA,NA,NA,NA,NA,NA,NA,NA,NA,NA
cd9ca,Shallow Question,html.Page,2_13_0_0,NA,NA,form submission,7421.92,634871,634863.4,634880.08,642302,642302,2023-03-19T10:36:00Z,642303.44,Ausschluss,kutengwa,d,ununuzi,taratibu,madeni,kutengwa,NA,NA,"c(""distractor1"", ""distractor2"", ""distractor3"")",NA,NA,NA,NA,NA,NA,NA,NA,NA,NA,NA,NA,NA,NA,NA,NA,NA,NA,NA
cd9ca,Save data screen,canvas.Screen,2_13_0_1,NA,NA,timeout,500.34000000008,642306,642299.3,642303.44,642787.1,642789,2023-03-19T10:36:01Z,642803.78,Ausschluss,kutengwa,d,ununuzi,taratibu,madeni,NA,NA,1,"c(""distractor1"", ""distractor2"", ""distractor3"")",NA,NA,NA,NA,NA,NA,NA,NA,NA,NA,NA,NA,NA,NA,NA,NA,NA,NA,NA
cd9ca,shallow,flow.Sequence,2_13_0,NA,NA,completion,7907.02,634871,634863.4,634880.08,642787.1,642791,2023-03-19T10:36:01Z,642803.78,Ausschluss,kutengwa,d,ununuzi,taratibu,madeni,NA,NA,NA,"c(""distractor1"", ""distractor2"", ""distractor3"")",NA,NA,NA,NA,NA,NA,NA,NA,NA,NA,NA,NA,NA,NA,NA,NA,NA,NA,NA
cd9ca,task,flow.Sequence,2_13,NA,NA,completion,7907.02,634870,634863.4,634880.08,642787.1,642791,2023-03-19T10:36:01Z,642803.78,Ausschluss,kutengwa,d,ununuzi,taratibu,madeni,NA,NA,NA,"c(""distractor1"", ""distractor2"", ""distractor3"")",NA,NA,NA,NA,NA,NA,NA,NA,NA,NA,NA,NA,NA,NA,NA,NA,NA,NA,NA
cd9ca,Shallow Question,html.Page,2_14_0_0,NA,NA,form submission,7988.22,642792,642787.1,642803.78,650792,650792,2023-03-19T10:36:09Z,650806.4,Zufall,kikuti,s,kukosekana,uchoraji,leseni,kikuti,NA,NA,"c(""distractor1"", ""distractor2"", ""distractor3"")",NA,NA,NA,NA,NA,NA,NA,NA,NA,NA,NA,NA,NA,NA,NA,NA,NA,NA,NA
cd9ca,Save data screen,canvas.Screen,2_14_0_1,NA,NA,timeout,500.33999999997,650797,650789.76,650806.4,651290.06,651292,2023-03-19T10:36:09Z,651306.74,Zufall,kikuti,s,kukosekana,uchoraji,leseni,NA,NA,1,"c(""distractor1"", ""distractor2"", ""distractor3"")",NA,NA,NA,NA,NA,NA,NA,NA,NA,NA,NA,NA,NA,NA,NA,NA,NA,NA,NA
cd9ca,shallow,flow.Sequence,2_14_0,NA,NA,completion,8486.28,642792,642787.1,642803.78,651290.06,651293,2023-03-19T10:36:09Z,651306.74,Zufall,kikuti,s,kukosekana,uchoraji,leseni,NA,NA,NA,"c(""distractor1"", ""distractor2"", ""distractor3"")",NA,NA,NA,NA,NA,NA,NA,NA,NA,NA,NA,NA,NA,NA,NA,NA,NA,NA,NA
cd9ca,task,flow.Sequence,2_14,NA,NA,completion,8486.28,642792,642787.1,642803.78,651290.06,651294,2023-03-19T10:36:09Z,651306.74,Zufall,kikuti,s,kukosekana,uchoraji,leseni,NA,NA,NA,"c(""distractor1"", ""distractor2"", ""distractor3"")",NA,NA,NA,NA,NA,NA,NA,NA,NA,NA,NA,NA,NA,NA,NA,NA,NA,NA,NA
cd9ca,Shallow Question,html.Page,2_15_0_0,NA,NA,form submission,16611.26,651296,651290.06,651306.74,667918,667919,2023-03-19T10:36:26Z,667928.86,Vorsorge,tahadhari,d,ufafanuzi,makini,mashambani,mashambani,NA,NA,"c(""distractor1"", ""distractor2"", ""distractor3"")",NA,NA,NA,NA,NA,NA,NA,NA,NA,NA,NA,NA,NA,NA,NA,NA,NA,NA,NA
cd9ca,Save data screen,canvas.Screen,2_15_0_1,NA,NA,timeout,500.33999999997,667930,667913.92,667928.86,668412.52,668416,2023-03-19T10:36:27Z,668429.2,Vorsorge,tahadhari,d,ufafanuzi,makini,mashambani,NA,NA,0,"c(""distractor1"", ""distractor2"", ""distractor3"")",NA,NA,NA,NA,NA,NA,NA,NA,NA,NA,NA,NA,NA,NA,NA,NA,NA,NA,NA
cd9ca,shallow,flow.Sequence,2_15_0,NA,NA,completion,17105.78,651296,651290.06,651306.74,668412.52,668417,2023-03-19T10:36:27Z,668429.2,Vorsorge,tahadhari,d,ufafanuzi,makini,mashambani,NA,NA,NA,"c(""distractor1"", ""distractor2"", ""distractor3"")",NA,NA,NA,NA,NA,NA,NA,NA,NA,NA,NA,NA,NA,NA,NA,NA,NA,NA,NA
cd9ca,task,flow.Sequence,2_15,NA,NA,completion,17105.78,651296,651290.06,651306.74,668412.52,668419,2023-03-19T10:36:27Z,668429.2,Vorsorge,tahadhari,d,ufafanuzi,makini,mashambani,NA,NA,NA,"c(""distractor1"", ""distractor2"", ""distractor3"")",NA,NA,NA,NA,NA,NA,NA,NA,NA,NA,NA,NA,NA,NA,NA,NA,NA,NA,NA
cd9ca,retrieval block 2 (multiple choice),flow.Loop,2,NA,NA,completion,152935.48,515473,515460.38,515477.04,668412.52,668419,2023-03-19T10:36:27Z,668429.2,NA,NA,NA,NA,NA,NA,NA,NA,NA,"c(""distractor1"", ""distractor2"", ""distractor3"")",NA,NA,NA,NA,NA,NA,NA,NA,NA,NA,NA,NA,NA,NA,NA,NA,NA,NA,NA
cd9ca,End,canvas.Screen,3,NA,keypress(Space),response,1953.8,668420,668412.52,668429.2,670383,670393,2023-03-19T10:36:29Z,670394.34,NA,NA,NA,NA,NA,NA,NA,NA,NA,NULL,NA,NA,NA,NA,NA,NA,NA,NA,NA,NA,NA,NA,NA,NA,NA,NA,NA,NA,NA
cd9ca,root,flow.Sequence,NA,NA,NA,completion,669430.84,935,935.48,952.16,670383,670393,2023-03-19T10:36:29Z,670394.34,NA,NA,NA,NA,NA,NA,NA,NA,NA,NULL,NA,NA,NA,NA,NA,NA,NA,NA,NA,NA,NA,NA,NA,NA,NA,NA,NA,NA,NA
