observation,sender,sender_type,sender_id,response,response_action,ended_on,duration,time_run,time_render,time_show,time_end,time_commit,timestamp,time_switch,distractors,german,swahili,enc,distractor1,distractor2,distractor3,response_2,x,correct,x_2,url_vp,url_sess,meta_labjs_version,meta_location,meta_user_agent,meta_platform,meta_language,meta_locale,meta_time_zone,meta_timezone_offset,meta_screen_width,meta_screen_height,meta_scroll_width,meta_scroll_height,meta_window_inner_width,meta_window_inner_height,meta_device_pixel_ratio,meta_labjs_build_flavor,meta_labjs_build_commit
f14c4,Introduction general,canvas.Screen,0,weiter,keypress(q),response,14309.78,913,921.54,938.22,15248,15284,2024-06-15T11:38:37Z,15285.4,NULL,NA,NA,NA,NA,NA,NA,NA,NA,NA,NA,161,3,20.2.4,https://neurocog.fernuni.ch/studies/vweber/jbaenninger/encoding_immediate/index.html?vp=161&sess=3,Mozilla/5.0 (Windows NT 10.0; Win64; x64; rv:127.0) Gecko/20100101 Firefox/127.0,Win32,de,de-CH,Europe/Zurich,-120,1280,800,1280,591,1280,639,1.5,production,f5b4a49f956347addd546a832a3327688c2c0fef
f14c4,Introduction practice,canvas.Screen,1_0,NA,keypress(Space),response,3071.6,15285,15285.12,15285.4,18357,18359,2024-06-15T11:38:40Z,18364.72,NULL,NA,NA,NA,NA,NA,NA,NA,NA,NA,NA,NA,NA,NA,NA,NA,NA,NA,NA,NA,NA,NA,NA,NA,NA,NA,NA,NA,NA,NA
f14c4,Deep Question,html.Page,1_1_0_0_0,NA,NA,form submission,4644.28,18359,18359.38,18364.72,23009,23009,2024-06-15T11:38:45Z,23014.9,"c(""distractor1"", ""distractor2"", ""distractor3"")",Schatten,kivuli,d,NA,NA,NA,jfdskghjk,NA,NA,NA,NA,NA,NA,NA,NA,NA,NA,NA,NA,NA,NA,NA,NA,NA,NA,NA,NA,NA,NA
f14c4,"""Richtig""-Screen",canvas.Screen,1_1_0_0_1,NA,NA,skipped,NA,23013,NA,NA,23009,23013,2024-06-15T11:38:45Z,23014.9,"c(""distractor1"", ""distractor2"", ""distractor3"")",Schatten,kivuli,d,NA,NA,NA,NA,NA,NA,NA,NA,NA,NA,NA,NA,NA,NA,NA,NA,NA,NA,NA,NA,NA,NA,NA,NA,NA,NA
f14c4,"""Falsch""-Screen",canvas.Screen,1_1_0_0_2,NA,NA,timeout,4991.72,23015,23007.14,23014.9,27989.96,27991,2024-06-15T11:38:50Z,28006.62,"c(""distractor1"", ""distractor2"", ""distractor3"")",Schatten,kivuli,d,NA,NA,NA,NA,NA,0,NA,NA,NA,NA,NA,NA,NA,NA,NA,NA,NA,NA,NA,NA,NA,NA,NA,NA,NA,NA
f14c4,deep,flow.Sequence,1_1_0_0,NA,NA,completion,9625.24,18359,18359.38,18364.72,27989.96,27992,2024-06-15T11:38:50Z,28006.62,"c(""distractor1"", ""distractor2"", ""distractor3"")",Schatten,kivuli,d,NA,NA,NA,NA,NA,NA,NA,NA,NA,NA,NA,NA,NA,NA,NA,NA,NA,NA,NA,NA,NA,NA,NA,NA,NA,NA
f14c4,shallow,flow.Sequence,1_1_0_1,NA,NA,skipped,NA,27992,NA,NA,27989.96,27992,2024-06-15T11:38:50Z,28006.62,"c(""distractor1"", ""distractor2"", ""distractor3"")",Schatten,kivuli,d,NA,NA,NA,NA,NA,NA,NA,NA,NA,NA,NA,NA,NA,NA,NA,NA,NA,NA,NA,NA,NA,NA,NA,NA,NA,NA
f14c4,task,flow.Sequence,1_1_0,NA,NA,completion,9625.24,18359,18359.38,18364.72,27989.96,27993,2024-06-15T11:38:50Z,28006.62,"c(""distractor1"", ""distractor2"", ""distractor3"")",Schatten,kivuli,d,NA,NA,NA,NA,NA,NA,NA,NA,NA,NA,NA,NA,NA,NA,NA,NA,NA,NA,NA,NA,NA,NA,NA,NA,NA,NA
f14c4,deep,flow.Sequence,1_1_1_0,NA,NA,skipped,NA,27993,NA,NA,27989.96,27993,2024-06-15T11:38:50Z,28006.62,"c(""distractor1"", ""distractor2"", ""distractor3"")",Rückhalt,msaada,s,muhula,auwali,kiwimbe,NA,NA,NA,NA,NA,NA,NA,NA,NA,NA,NA,NA,NA,NA,NA,NA,NA,NA,NA,NA,NA,NA,NA
f14c4,Shallow Question,html.Page,1_1_1_1_0,NA,NA,form submission,5736.38,27993,27989.96,28006.62,33743,33743,2024-06-15T11:38:56Z,33743.34,"c(""distractor1"", ""distractor2"", ""distractor3"")",Rückhalt,msaada,s,muhula,auwali,kiwimbe,muhula,NA,NA,NA,NA,NA,NA,NA,NA,NA,NA,NA,NA,NA,NA,NA,NA,NA,NA,NA,NA,NA,NA
f14c4,"""Richtig""-Screen",canvas.Screen,1_1_1_1_1,NA,NA,skipped,NA,33745,NA,NA,33743,33745,2024-06-15T11:38:56Z,33743.34,"c(""distractor1"", ""distractor2"", ""distractor3"")",Rückhalt,msaada,s,muhula,auwali,kiwimbe,NA,NA,NA,NA,NA,NA,NA,NA,NA,NA,NA,NA,NA,NA,NA,NA,NA,NA,NA,NA,NA,NA,NA
f14c4,"""Falsch""-Screen",canvas.Screen,1_1_1_1_2,NA,NA,timeout,5004.32,33746,33740,33743.34,38731.3,38733,2024-06-15T11:39:01Z,38747.66,"c(""distractor1"", ""distractor2"", ""distractor3"")",Rückhalt,msaada,s,muhula,auwali,kiwimbe,NA,NA,0,NA,NA,NA,NA,NA,NA,NA,NA,NA,NA,NA,NA,NA,NA,NA,NA,NA,NA,NA,NA
f14c4,shallow,flow.Sequence,1_1_1_1,NA,NA,completion,10724.68,27993,27989.96,28006.62,38731.3,38733,2024-06-15T11:39:01Z,38747.66,"c(""distractor1"", ""distractor2"", ""distractor3"")",Rückhalt,msaada,s,muhula,auwali,kiwimbe,NA,NA,NA,NA,NA,NA,NA,NA,NA,NA,NA,NA,NA,NA,NA,NA,NA,NA,NA,NA,NA,NA,NA
f14c4,task,flow.Sequence,1_1_1,NA,NA,completion,10724.68,27993,27989.96,28006.62,38731.3,38734,2024-06-15T11:39:01Z,38747.66,"c(""distractor1"", ""distractor2"", ""distractor3"")",Rückhalt,msaada,s,muhula,auwali,kiwimbe,NA,NA,NA,NA,NA,NA,NA,NA,NA,NA,NA,NA,NA,NA,NA,NA,NA,NA,NA,NA,NA,NA,NA
f14c4,Deep Question,html.Page,1_1_2_0_0,NA,NA,form submission,4491.34,38734,38731.3,38747.66,43239,43239,2024-06-15T11:39:05Z,43238.16,"c(""distractor1"", ""distractor2"", ""distractor3"")",Gesundheit,salama,d,NA,NA,NA,fgbhdht,NA,NA,NA,NA,NA,NA,NA,NA,NA,NA,NA,NA,NA,NA,NA,NA,NA,NA,NA,NA,NA,NA
f14c4,"""Richtig""-Screen",canvas.Screen,1_1_2_0_1,NA,NA,skipped,NA,43242,NA,NA,43239,43242,2024-06-15T11:39:05Z,43238.16,"c(""distractor1"", ""distractor2"", ""distractor3"")",Gesundheit,salama,d,NA,NA,NA,NA,NA,NA,NA,NA,NA,NA,NA,NA,NA,NA,NA,NA,NA,NA,NA,NA,NA,NA,NA,NA,NA,NA
f14c4,"""Falsch""-Screen",canvas.Screen,1_1_2_0_2,NA,NA,timeout,4992.12,43244,43235.2,43238.16,48213.62,48215,2024-06-15T11:39:10Z,48230.28,"c(""distractor1"", ""distractor2"", ""distractor3"")",Gesundheit,salama,d,NA,NA,NA,NA,NA,0,NA,NA,NA,NA,NA,NA,NA,NA,NA,NA,NA,NA,NA,NA,NA,NA,NA,NA,NA,NA
f14c4,deep,flow.Sequence,1_1_2_0,NA,NA,completion,9465.96,38734,38731.3,38747.66,48213.62,48215,2024-06-15T11:39:10Z,48230.28,"c(""distractor1"", ""distractor2"", ""distractor3"")",Gesundheit,salama,d,NA,NA,NA,NA,NA,NA,NA,NA,NA,NA,NA,NA,NA,NA,NA,NA,NA,NA,NA,NA,NA,NA,NA,NA,NA,NA
f14c4,shallow,flow.Sequence,1_1_2_1,NA,NA,skipped,NA,48216,NA,NA,48213.62,48216,2024-06-15T11:39:10Z,48230.28,"c(""distractor1"", ""distractor2"", ""distractor3"")",Gesundheit,salama,d,NA,NA,NA,NA,NA,NA,NA,NA,NA,NA,NA,NA,NA,NA,NA,NA,NA,NA,NA,NA,NA,NA,NA,NA,NA,NA
f14c4,task,flow.Sequence,1_1_2,NA,NA,completion,9465.96,38734,38731.3,38747.66,48213.62,48216,2024-06-15T11:39:10Z,48230.28,"c(""distractor1"", ""distractor2"", ""distractor3"")",Gesundheit,salama,d,NA,NA,NA,NA,NA,NA,NA,NA,NA,NA,NA,NA,NA,NA,NA,NA,NA,NA,NA,NA,NA,NA,NA,NA,NA,NA
f14c4,deep,flow.Sequence,1_1_3_0,NA,NA,skipped,NA,48216,NA,NA,48213.62,48216,2024-06-15T11:39:10Z,48230.28,"c(""distractor1"", ""distractor2"", ""distractor3"")",Kritik,lawama,s,dereva,nafasi,mawazo,NA,NA,NA,NA,NA,NA,NA,NA,NA,NA,NA,NA,NA,NA,NA,NA,NA,NA,NA,NA,NA,NA,NA
f14c4,Shallow Question,html.Page,1_1_3_1_0,NA,NA,form submission,3341.72,48216,48213.62,48230.28,51572,51573,2024-06-15T11:39:14Z,51577.28,"c(""distractor1"", ""distractor2"", ""distractor3"")",Kritik,lawama,s,dereva,nafasi,mawazo,lawama,NA,NA,NA,NA,NA,NA,NA,NA,NA,NA,NA,NA,NA,NA,NA,NA,NA,NA,NA,NA,NA,NA
f14c4,"""Richtig""-Screen",canvas.Screen,1_1_3_1_1,NA,NA,timeout,4993,51576,51568.58,51577.28,56553.82,56555,2024-06-15T11:39:19Z,56570.28,"c(""distractor1"", ""distractor2"", ""distractor3"")",Kritik,lawama,s,dereva,nafasi,mawazo,NA,NA,1,NA,NA,NA,NA,NA,NA,NA,NA,NA,NA,NA,NA,NA,NA,NA,NA,NA,NA,NA,NA
f14c4,"""Falsch""-Screen",canvas.Screen,1_1_3_1_2,NA,NA,skipped,NA,56557,NA,NA,56553.82,56557,2024-06-15T11:39:19Z,56570.28,"c(""distractor1"", ""distractor2"", ""distractor3"")",Kritik,lawama,s,dereva,nafasi,mawazo,NA,NA,NA,NA,NA,NA,NA,NA,NA,NA,NA,NA,NA,NA,NA,NA,NA,NA,NA,NA,NA,NA,NA
f14c4,shallow,flow.Sequence,1_1_3_1,NA,NA,completion,8323.54,48216,48213.62,48230.28,56553.82,56557,2024-06-15T11:39:19Z,56570.28,"c(""distractor1"", ""distractor2"", ""distractor3"")",Kritik,lawama,s,dereva,nafasi,mawazo,NA,NA,NA,NA,NA,NA,NA,NA,NA,NA,NA,NA,NA,NA,NA,NA,NA,NA,NA,NA,NA,NA,NA
f14c4,task,flow.Sequence,1_1_3,NA,NA,completion,8323.54,48216,48213.62,48230.28,56553.82,56557,2024-06-15T11:39:19Z,56570.28,"c(""distractor1"", ""distractor2"", ""distractor3"")",Kritik,lawama,s,dereva,nafasi,mawazo,NA,NA,NA,NA,NA,NA,NA,NA,NA,NA,NA,NA,NA,NA,NA,NA,NA,NA,NA,NA,NA,NA,NA
f14c4,deep,flow.Sequence,1_1_4_0,NA,NA,skipped,NA,56557,NA,NA,56553.82,56557,2024-06-15T11:39:19Z,56570.28,"c(""distractor1"", ""distractor2"", ""distractor3"")",Gegenwart,hadhara,s,katiba,jokofu,mikopo,NA,NA,NA,NA,NA,NA,NA,NA,NA,NA,NA,NA,NA,NA,NA,NA,NA,NA,NA,NA,NA,NA,NA
f14c4,Shallow Question,html.Page,1_1_4_1_0,NA,NA,form submission,6055.72,56558,56553.82,56570.28,62626,62626,2024-06-15T11:39:25Z,62627.12,"c(""distractor1"", ""distractor2"", ""distractor3"")",Gegenwart,hadhara,s,katiba,jokofu,mikopo,mikopo,NA,NA,NA,NA,NA,NA,NA,NA,NA,NA,NA,NA,NA,NA,NA,NA,NA,NA,NA,NA,NA,NA
f14c4,"""Richtig""-Screen",canvas.Screen,1_1_4_1_1,NA,NA,skipped,NA,62628,NA,NA,62626,62628,2024-06-15T11:39:25Z,62627.12,"c(""distractor1"", ""distractor2"", ""distractor3"")",Gegenwart,hadhara,s,katiba,jokofu,mikopo,NA,NA,NA,NA,NA,NA,NA,NA,NA,NA,NA,NA,NA,NA,NA,NA,NA,NA,NA,NA,NA,NA,NA
f14c4,"""Falsch""-Screen",canvas.Screen,1_1_4_1_2,NA,NA,timeout,5002.52,62629,62623.34,62627.12,67612.96,67614,2024-06-15T11:39:30Z,67629.64,"c(""distractor1"", ""distractor2"", ""distractor3"")",Gegenwart,hadhara,s,katiba,jokofu,mikopo,NA,NA,0,NA,NA,NA,NA,NA,NA,NA,NA,NA,NA,NA,NA,NA,NA,NA,NA,NA,NA,NA,NA
f14c4,shallow,flow.Sequence,1_1_4_1,NA,NA,completion,11042.68,56558,56553.82,56570.28,67612.96,67615,2024-06-15T11:39:30Z,67629.64,"c(""distractor1"", ""distractor2"", ""distractor3"")",Gegenwart,hadhara,s,katiba,jokofu,mikopo,NA,NA,NA,NA,NA,NA,NA,NA,NA,NA,NA,NA,NA,NA,NA,NA,NA,NA,NA,NA,NA,NA,NA
f14c4,task,flow.Sequence,1_1_4,NA,NA,completion,11042.68,56557,56553.82,56570.28,67612.96,67616,2024-06-15T11:39:30Z,67629.64,"c(""distractor1"", ""distractor2"", ""distractor3"")",Gegenwart,hadhara,s,katiba,jokofu,mikopo,NA,NA,NA,NA,NA,NA,NA,NA,NA,NA,NA,NA,NA,NA,NA,NA,NA,NA,NA,NA,NA,NA,NA
f14c4,Deep Question,html.Page,1_1_5_0_0,NA,NA,form submission,3208.36,67616,67612.96,67629.64,70838,70838,2024-06-15T11:39:33Z,70852.72,"c(""distractor1"", ""distractor2"", ""distractor3"")",Qualität,mtindo,d,NA,NA,NA,fdgsrgsr,NA,NA,NA,NA,NA,NA,NA,NA,NA,NA,NA,NA,NA,NA,NA,NA,NA,NA,NA,NA,NA,NA
f14c4,"""Richtig""-Screen",canvas.Screen,1_1_5_0_1,NA,NA,skipped,NA,70840,NA,NA,70838,70840,2024-06-15T11:39:33Z,70852.72,"c(""distractor1"", ""distractor2"", ""distractor3"")",Qualität,mtindo,d,NA,NA,NA,NA,NA,NA,NA,NA,NA,NA,NA,NA,NA,NA,NA,NA,NA,NA,NA,NA,NA,NA,NA,NA,NA,NA
f14c4,"""Falsch""-Screen",canvas.Screen,1_1_5_0_2,NA,NA,timeout,5007.06,70841,70836.06,70852.72,75843.24,75847,2024-06-15T11:39:38Z,75859.78,"c(""distractor1"", ""distractor2"", ""distractor3"")",Qualität,mtindo,d,NA,NA,NA,NA,NA,0,NA,NA,NA,NA,NA,NA,NA,NA,NA,NA,NA,NA,NA,NA,NA,NA,NA,NA,NA,NA
f14c4,deep,flow.Sequence,1_1_5_0,NA,NA,completion,8213.6,67616,67612.96,67629.64,75843.24,75848,2024-06-15T11:39:38Z,75859.78,"c(""distractor1"", ""distractor2"", ""distractor3"")",Qualität,mtindo,d,NA,NA,NA,NA,NA,NA,NA,NA,NA,NA,NA,NA,NA,NA,NA,NA,NA,NA,NA,NA,NA,NA,NA,NA,NA,NA
f14c4,shallow,flow.Sequence,1_1_5_1,NA,NA,skipped,NA,75855,NA,NA,75843.24,75855,2024-06-15T11:39:38Z,75859.78,"c(""distractor1"", ""distractor2"", ""distractor3"")",Qualität,mtindo,d,NA,NA,NA,NA,NA,NA,NA,NA,NA,NA,NA,NA,NA,NA,NA,NA,NA,NA,NA,NA,NA,NA,NA,NA,NA,NA
f14c4,task,flow.Sequence,1_1_5,NA,NA,completion,8213.6,67616,67612.96,67629.64,75843.24,75857,2024-06-15T11:39:38Z,75859.78,"c(""distractor1"", ""distractor2"", ""distractor3"")",Qualität,mtindo,d,NA,NA,NA,NA,NA,NA,NA,NA,NA,NA,NA,NA,NA,NA,NA,NA,NA,NA,NA,NA,NA,NA,NA,NA,NA,NA
f14c4,block,flow.Loop,1_1,NA,NA,completion,57478.52,18359,18359.38,18364.72,75843.24,75857,2024-06-15T11:39:38Z,75859.78,"c(""distractor1"", ""distractor2"", ""distractor3"")",NA,NA,NA,NA,NA,NA,NA,NA,NA,NA,NA,NA,NA,NA,NA,NA,NA,NA,NA,NA,NA,NA,NA,NA,NA,NA,NA,NA,NA
f14c4,Practice,flow.Sequence,1,NA,NA,completion,60557.84,15285,15285.12,15285.4,75843.24,75857,2024-06-15T11:39:38Z,75859.78,NULL,NA,NA,NA,NA,NA,NA,NA,NA,NA,NA,NA,NA,NA,NA,NA,NA,NA,NA,NA,NA,NA,NA,NA,NA,NA,NA,NA,NA,NA
f14c4,Experiment start,canvas.Screen,2,weiter,keypress(q),response,56055.22,75858,75843.24,75859.78,131915,131919,2024-06-15T11:40:34Z,131964.1,NULL,NA,NA,NA,NA,NA,NA,NA,NA,NA,NA,NA,NA,NA,NA,NA,NA,NA,NA,NA,NA,NA,NA,NA,NA,NA,NA,NA,NA,NA
f14c4,Deep Question,html.Page,3_0_0_0_0_0_0,NA,NA,form submission,15494.9,131964,131963.7,131964.1,147459,147461,2024-06-15T11:40:49Z,147473.74,NULL,Ergänzung,kijalizo,d,NA,NA,NA,vfbsgrf,NA,NA,0,NA,NA,NA,NA,NA,NA,NA,NA,NA,NA,NA,NA,NA,NA,NA,NA,NA,NA,NA
f14c4,"""Richtig""-Screen",canvas.Screen,3_0_0_0_0_0_1,NA,NA,skipped,NA,147469,NA,NA,147459,147470,2024-06-15T11:40:49Z,147473.74,NULL,Ergänzung,kijalizo,d,NA,NA,NA,NA,sdf,NA,0,NA,NA,NA,NA,NA,NA,NA,NA,NA,NA,NA,NA,NA,NA,NA,NA,NA,NA,NA
f14c4,"""Falsch""-Screen",canvas.Screen,3_0_0_0_0_0_2,NA,NA,timeout,4998.06,147474,147456.86,147473.74,152455.12,152456,2024-06-15T11:40:54Z,152471.8,NULL,Ergänzung,kijalizo,d,NA,NA,NA,NA,sdf,0,0,NA,NA,NA,NA,NA,NA,NA,NA,NA,NA,NA,NA,NA,NA,NA,NA,NA,NA,NA
f14c4,deep,flow.Sequence,3_0_0_0_0_0,NA,NA,completion,20491.02,131964,131963.7,131964.1,152455.12,152456,2024-06-15T11:40:54Z,152471.8,NULL,Ergänzung,kijalizo,d,NA,NA,NA,NA,sdf,NA,0,NA,NA,NA,NA,NA,NA,NA,NA,NA,NA,NA,NA,NA,NA,NA,NA,NA,NA,NA
f14c4,shallow,flow.Sequence,3_0_0_0_0_1,NA,NA,skipped,NA,152457,NA,NA,152455.12,152457,2024-06-15T11:40:54Z,152471.8,NULL,Ergänzung,kijalizo,d,NA,NA,NA,NA,sdf,NA,0,NA,NA,NA,NA,NA,NA,NA,NA,NA,NA,NA,NA,NA,NA,NA,NA,NA,NA,NA
f14c4,task,flow.Sequence,3_0_0_0_0,NA,NA,completion,20491.02,131964,131963.7,131964.1,152455.12,152457,2024-06-15T11:40:54Z,152471.8,NULL,Ergänzung,kijalizo,d,NA,NA,NA,NA,sdf,NA,0,NA,NA,NA,NA,NA,NA,NA,NA,NA,NA,NA,NA,NA,NA,NA,NA,NA,NA,NA
f14c4,Deep Question,html.Page,3_0_0_0_1_0_0,NA,NA,form submission,4784.2,152458,152455.12,152471.8,157256,157257,2024-06-15T11:40:59Z,157257.58,NULL,Betrüger,mdanganyifu,d,NA,NA,NA,fvghgfuse,NA,NA,0,NA,NA,NA,NA,NA,NA,NA,NA,NA,NA,NA,NA,NA,NA,NA,NA,NA,NA,NA
f14c4,"""Richtig""-Screen",canvas.Screen,3_0_0_0_1_0_1,NA,NA,skipped,NA,157260,NA,NA,157256,157260,2024-06-15T11:40:59Z,157257.58,NULL,Betrüger,mdanganyifu,d,NA,NA,NA,NA,sdf,NA,0,NA,NA,NA,NA,NA,NA,NA,NA,NA,NA,NA,NA,NA,NA,NA,NA,NA,NA,NA
f14c4,"""Falsch""-Screen",canvas.Screen,3_0_0_0_1_0_2,NA,NA,timeout,5005.06,157263,157254.62,157257.58,162245.96,162248,2024-06-15T11:41:04Z,162262.64,NULL,Betrüger,mdanganyifu,d,NA,NA,NA,NA,sdf,0,0,NA,NA,NA,NA,NA,NA,NA,NA,NA,NA,NA,NA,NA,NA,NA,NA,NA,NA,NA
f14c4,deep,flow.Sequence,3_0_0_0_1_0,NA,NA,completion,9774.16,152458,152455.12,152471.8,162245.96,162248,2024-06-15T11:41:04Z,162262.64,NULL,Betrüger,mdanganyifu,d,NA,NA,NA,NA,sdf,NA,0,NA,NA,NA,NA,NA,NA,NA,NA,NA,NA,NA,NA,NA,NA,NA,NA,NA,NA,NA
f14c4,shallow,flow.Sequence,3_0_0_0_1_1,NA,NA,skipped,NA,162249,NA,NA,162245.96,162249,2024-06-15T11:41:04Z,162262.64,NULL,Betrüger,mdanganyifu,d,NA,NA,NA,NA,sdf,NA,0,NA,NA,NA,NA,NA,NA,NA,NA,NA,NA,NA,NA,NA,NA,NA,NA,NA,NA,NA
f14c4,task,flow.Sequence,3_0_0_0_1,NA,NA,completion,9774.16,152457,152455.12,152471.8,162245.96,162249,2024-06-15T11:41:04Z,162262.64,NULL,Betrüger,mdanganyifu,d,NA,NA,NA,NA,sdf,NA,0,NA,NA,NA,NA,NA,NA,NA,NA,NA,NA,NA,NA,NA,NA,NA,NA,NA,NA,NA
f14c4,deep,flow.Sequence,3_0_0_0_2_0,NA,NA,skipped,NA,162250,NA,NA,162245.96,162250,2024-06-15T11:41:04Z,162262.64,NULL,Notfall,dharura,s,rairai,malalamiko,ahueni,NA,sdf,NA,0,NA,NA,NA,NA,NA,NA,NA,NA,NA,NA,NA,NA,NA,NA,NA,NA,NA,NA,NA
f14c4,Shallow Question,html.Page,3_0_0_0_2_1_0,NA,NA,form submission,8522.36,162250,162245.96,162262.64,170785,170785,2024-06-15T11:41:13Z,170784.8,NULL,Notfall,dharura,s,rairai,malalamiko,ahueni,ahueni,NA,NA,0,NA,NA,NA,NA,NA,NA,NA,NA,NA,NA,NA,NA,NA,NA,NA,NA,NA,NA,NA
f14c4,"""Richtig""-Screen",canvas.Screen,3_0_0_0_2_1_1,NA,NA,skipped,NA,170787,NA,NA,170785,170787,2024-06-15T11:41:13Z,170784.8,NULL,Notfall,dharura,s,rairai,malalamiko,ahueni,NA,sdf,NA,0,NA,NA,NA,NA,NA,NA,NA,NA,NA,NA,NA,NA,NA,NA,NA,NA,NA,NA,NA
f14c4,"""Falsch""-Screen",canvas.Screen,3_0_0_0_2_1_2,NA,NA,timeout,5004.74,170789,170782.64,170784.8,175772.88,175774,2024-06-15T11:41:18Z,175789.54,NULL,Notfall,dharura,s,rairai,malalamiko,ahueni,NA,sdf,0,0,NA,NA,NA,NA,NA,NA,NA,NA,NA,NA,NA,NA,NA,NA,NA,NA,NA,NA,NA
f14c4,shallow,flow.Sequence,3_0_0_0_2_1,NA,NA,completion,13510.24,162250,162245.96,162262.64,175772.88,175775,2024-06-15T11:41:18Z,175789.54,NULL,Notfall,dharura,s,rairai,malalamiko,ahueni,NA,sdf,NA,0,NA,NA,NA,NA,NA,NA,NA,NA,NA,NA,NA,NA,NA,NA,NA,NA,NA,NA,NA
f14c4,task,flow.Sequence,3_0_0_0_2,NA,NA,completion,13510.24,162249,162245.96,162262.64,175772.88,175775,2024-06-15T11:41:18Z,175789.54,NULL,Notfall,dharura,s,rairai,malalamiko,ahueni,NA,sdf,NA,0,NA,NA,NA,NA,NA,NA,NA,NA,NA,NA,NA,NA,NA,NA,NA,NA,NA,NA,NA
f14c4,Deep Question,html.Page,3_0_0_0_3_0_0,NA,NA,form submission,4138.46,175775,175772.88,175789.54,179928,179929,2024-06-15T11:41:22Z,179941.06,NULL,Wohlstand,mafanikio,d,NA,NA,NA,vbhjsg,NA,NA,0,NA,NA,NA,NA,NA,NA,NA,NA,NA,NA,NA,NA,NA,NA,NA,NA,NA,NA,NA
f14c4,"""Richtig""-Screen",canvas.Screen,3_0_0_0_3_0_1,NA,NA,skipped,NA,179931,NA,NA,179928,179931,2024-06-15T11:41:22Z,179941.06,NULL,Wohlstand,mafanikio,d,NA,NA,NA,NA,sdf,NA,0,NA,NA,NA,NA,NA,NA,NA,NA,NA,NA,NA,NA,NA,NA,NA,NA,NA,NA,NA
f14c4,"""Falsch""-Screen",canvas.Screen,3_0_0_0_3_0_2,NA,NA,timeout,4996.62,179934,179926.38,179941.06,184921.02,184922,2024-06-15T11:41:27Z,184937.68,NULL,Wohlstand,mafanikio,d,NA,NA,NA,NA,sdf,0,0,NA,NA,NA,NA,NA,NA,NA,NA,NA,NA,NA,NA,NA,NA,NA,NA,NA,NA,NA
f14c4,deep,flow.Sequence,3_0_0_0_3_0,NA,NA,completion,9131.48,175775,175772.88,175789.54,184921.02,184922,2024-06-15T11:41:27Z,184937.68,NULL,Wohlstand,mafanikio,d,NA,NA,NA,NA,sdf,NA,0,NA,NA,NA,NA,NA,NA,NA,NA,NA,NA,NA,NA,NA,NA,NA,NA,NA,NA,NA
f14c4,shallow,flow.Sequence,3_0_0_0_3_1,NA,NA,skipped,NA,184924,NA,NA,184921.02,184924,2024-06-15T11:41:27Z,184937.68,NULL,Wohlstand,mafanikio,d,NA,NA,NA,NA,sdf,NA,0,NA,NA,NA,NA,NA,NA,NA,NA,NA,NA,NA,NA,NA,NA,NA,NA,NA,NA,NA
f14c4,task,flow.Sequence,3_0_0_0_3,NA,NA,completion,9131.48,175775,175772.88,175789.54,184921.02,184924,2024-06-15T11:41:27Z,184937.68,NULL,Wohlstand,mafanikio,d,NA,NA,NA,NA,sdf,NA,0,NA,NA,NA,NA,NA,NA,NA,NA,NA,NA,NA,NA,NA,NA,NA,NA,NA,NA,NA
f14c4,deep,flow.Sequence,3_0_0_0_4_0,NA,NA,skipped,NA,184924,NA,NA,184921.02,184924,2024-06-15T11:41:27Z,184937.68,NULL,Respekt,heshima,s,changamnao,upinzani,ufanisi,NA,sdf,NA,0,NA,NA,NA,NA,NA,NA,NA,NA,NA,NA,NA,NA,NA,NA,NA,NA,NA,NA,NA
f14c4,Shallow Question,html.Page,3_0_0_0_4_1_0,NA,NA,form submission,6766.32,184924,184921.02,184937.68,191704,191705,2024-06-15T11:41:34Z,191711.7,NULL,Respekt,heshima,s,changamnao,upinzani,ufanisi,heshima,NA,NA,0,NA,NA,NA,NA,NA,NA,NA,NA,NA,NA,NA,NA,NA,NA,NA,NA,NA,NA,NA
f14c4,"""Richtig""-Screen",canvas.Screen,3_0_0_0_4_1_1,NA,NA,timeout,4999.5,191707,191700.1,191711.7,196694.56,196696,2024-06-15T11:41:39Z,196711.2,NULL,Respekt,heshima,s,changamnao,upinzani,ufanisi,NA,sdf,1,0,NA,NA,NA,NA,NA,NA,NA,NA,NA,NA,NA,NA,NA,NA,NA,NA,NA,NA,NA
f14c4,"""Falsch""-Screen",canvas.Screen,3_0_0_0_4_1_2,NA,NA,skipped,NA,196699,NA,NA,196694.56,196699,2024-06-15T11:41:39Z,196711.2,NULL,Respekt,heshima,s,changamnao,upinzani,ufanisi,NA,sdf,NA,0,NA,NA,NA,NA,NA,NA,NA,NA,NA,NA,NA,NA,NA,NA,NA,NA,NA,NA,NA
f14c4,shallow,flow.Sequence,3_0_0_0_4_1,NA,NA,completion,11756.88,184924,184921.02,184937.68,196694.56,196699,2024-06-15T11:41:39Z,196711.2,NULL,Respekt,heshima,s,changamnao,upinzani,ufanisi,NA,sdf,NA,0,NA,NA,NA,NA,NA,NA,NA,NA,NA,NA,NA,NA,NA,NA,NA,NA,NA,NA,NA
f14c4,task,flow.Sequence,3_0_0_0_4,NA,NA,completion,11756.88,184924,184921.02,184937.68,196694.56,196699,2024-06-15T11:41:39Z,196711.2,NULL,Respekt,heshima,s,changamnao,upinzani,ufanisi,NA,sdf,NA,0,NA,NA,NA,NA,NA,NA,NA,NA,NA,NA,NA,NA,NA,NA,NA,NA,NA,NA,NA
f14c4,Deep Question,html.Page,3_0_0_0_5_0_0,NA,NA,form submission,3546.8,196700,196694.56,196711.2,200258,200259,2024-06-15T11:41:42Z,200257.72,NULL,Stimmung,kinyongo,d,NA,NA,NA,cfghafgt,NA,NA,0,NA,NA,NA,NA,NA,NA,NA,NA,NA,NA,NA,NA,NA,NA,NA,NA,NA,NA,NA
f14c4,"""Richtig""-Screen",canvas.Screen,3_0_0_0_5_0_1,NA,NA,skipped,NA,200260,NA,NA,200258,200260,2024-06-15T11:41:42Z,200257.72,NULL,Stimmung,kinyongo,d,NA,NA,NA,NA,sdf,NA,0,NA,NA,NA,NA,NA,NA,NA,NA,NA,NA,NA,NA,NA,NA,NA,NA,NA,NA,NA
f14c4,"""Falsch""-Screen",canvas.Screen,3_0_0_0_5_0_2,NA,NA,timeout,5006.98,200261,200257.24,200257.72,205248.04,205250,2024-06-15T11:41:47Z,205264.7,NULL,Stimmung,kinyongo,d,NA,NA,NA,NA,sdf,0,0,NA,NA,NA,NA,NA,NA,NA,NA,NA,NA,NA,NA,NA,NA,NA,NA,NA,NA,NA
f14c4,deep,flow.Sequence,3_0_0_0_5_0,NA,NA,completion,8536.84,196700,196694.56,196711.2,205248.04,205251,2024-06-15T11:41:47Z,205264.7,NULL,Stimmung,kinyongo,d,NA,NA,NA,NA,sdf,NA,0,NA,NA,NA,NA,NA,NA,NA,NA,NA,NA,NA,NA,NA,NA,NA,NA,NA,NA,NA
f14c4,shallow,flow.Sequence,3_0_0_0_5_1,NA,NA,skipped,NA,205251,NA,NA,205248.04,205251,2024-06-15T11:41:47Z,205264.7,NULL,Stimmung,kinyongo,d,NA,NA,NA,NA,sdf,NA,0,NA,NA,NA,NA,NA,NA,NA,NA,NA,NA,NA,NA,NA,NA,NA,NA,NA,NA,NA
f14c4,task,flow.Sequence,3_0_0_0_5,NA,NA,completion,8536.84,196700,196694.56,196711.2,205248.04,205251,2024-06-15T11:41:47Z,205264.7,NULL,Stimmung,kinyongo,d,NA,NA,NA,NA,sdf,NA,0,NA,NA,NA,NA,NA,NA,NA,NA,NA,NA,NA,NA,NA,NA,NA,NA,NA,NA,NA
f14c4,deep,flow.Sequence,3_0_0_0_6_0,NA,NA,skipped,NA,205251,NA,NA,205248.04,205251,2024-06-15T11:41:47Z,205264.7,NULL,Orientierung,urekebisho,s,uelekeo,marekebisho,utunzaji,NA,sdf,NA,0,NA,NA,NA,NA,NA,NA,NA,NA,NA,NA,NA,NA,NA,NA,NA,NA,NA,NA,NA
f14c4,Shallow Question,html.Page,3_0_0_0_6_1_0,NA,NA,form submission,8504.3,205251,205248.04,205264.7,213769,213769,2024-06-15T11:41:56Z,213776.26,NULL,Orientierung,urekebisho,s,uelekeo,marekebisho,utunzaji,marekebisho,NA,NA,0,NA,NA,NA,NA,NA,NA,NA,NA,NA,NA,NA,NA,NA,NA,NA,NA,NA,NA,NA
f14c4,"""Richtig""-Screen",canvas.Screen,3_0_0_0_6_1_1,NA,NA,skipped,NA,213771,NA,NA,213769,213771,2024-06-15T11:41:56Z,213776.26,NULL,Orientierung,urekebisho,s,uelekeo,marekebisho,utunzaji,NA,sdf,NA,0,NA,NA,NA,NA,NA,NA,NA,NA,NA,NA,NA,NA,NA,NA,NA,NA,NA,NA,NA
f14c4,"""Falsch""-Screen",canvas.Screen,3_0_0_0_6_1_2,NA,NA,timeout,4991.68,213773,213765.72,213776.26,218751.28,218753,2024-06-15T11:42:01Z,218767.94,NULL,Orientierung,urekebisho,s,uelekeo,marekebisho,utunzaji,NA,sdf,0,0,NA,NA,NA,NA,NA,NA,NA,NA,NA,NA,NA,NA,NA,NA,NA,NA,NA,NA,NA
f14c4,shallow,flow.Sequence,3_0_0_0_6_1,NA,NA,completion,13486.58,205251,205248.04,205264.7,218751.28,218753,2024-06-15T11:42:01Z,218767.94,NULL,Orientierung,urekebisho,s,uelekeo,marekebisho,utunzaji,NA,sdf,NA,0,NA,NA,NA,NA,NA,NA,NA,NA,NA,NA,NA,NA,NA,NA,NA,NA,NA,NA,NA
f14c4,task,flow.Sequence,3_0_0_0_6,NA,NA,completion,13486.58,205251,205248.04,205264.7,218751.28,218753,2024-06-15T11:42:01Z,218767.94,NULL,Orientierung,urekebisho,s,uelekeo,marekebisho,utunzaji,NA,sdf,NA,0,NA,NA,NA,NA,NA,NA,NA,NA,NA,NA,NA,NA,NA,NA,NA,NA,NA,NA,NA
f14c4,deep,flow.Sequence,3_0_0_0_7_0,NA,NA,skipped,NA,218753,NA,NA,218751.28,218753,2024-06-15T11:42:01Z,218767.94,NULL,Vergnügen,kichekesho,s,dubwana,mpanuko,mtesaji,NA,sdf,NA,0,NA,NA,NA,NA,NA,NA,NA,NA,NA,NA,NA,NA,NA,NA,NA,NA,NA,NA,NA
f14c4,Shallow Question,html.Page,3_0_0_0_7_1_0,NA,NA,form submission,4525.06,218754,218751.28,218767.94,223293,223293,2024-06-15T11:42:05Z,223295.38,NULL,Vergnügen,kichekesho,s,dubwana,mpanuko,mtesaji,kichekesho,NA,NA,0,NA,NA,NA,NA,NA,NA,NA,NA,NA,NA,NA,NA,NA,NA,NA,NA,NA,NA,NA
f14c4,"""Richtig""-Screen",canvas.Screen,3_0_0_0_7_1_1,NA,NA,timeout,5003.52,223295,223290.48,223295.38,228282.24,228283,2024-06-15T11:42:10Z,228298.9,NULL,Vergnügen,kichekesho,s,dubwana,mpanuko,mtesaji,NA,sdf,1,0,NA,NA,NA,NA,NA,NA,NA,NA,NA,NA,NA,NA,NA,NA,NA,NA,NA,NA,NA
f14c4,"""Falsch""-Screen",canvas.Screen,3_0_0_0_7_1_2,NA,NA,skipped,NA,228287,NA,NA,228282.24,228287,2024-06-15T11:42:10Z,228298.9,NULL,Vergnügen,kichekesho,s,dubwana,mpanuko,mtesaji,NA,sdf,NA,0,NA,NA,NA,NA,NA,NA,NA,NA,NA,NA,NA,NA,NA,NA,NA,NA,NA,NA,NA
f14c4,shallow,flow.Sequence,3_0_0_0_7_1,NA,NA,completion,9514.3,218754,218751.28,218767.94,228282.24,228287,2024-06-15T11:42:10Z,228298.9,NULL,Vergnügen,kichekesho,s,dubwana,mpanuko,mtesaji,NA,sdf,NA,0,NA,NA,NA,NA,NA,NA,NA,NA,NA,NA,NA,NA,NA,NA,NA,NA,NA,NA,NA
f14c4,task,flow.Sequence,3_0_0_0_7,NA,NA,completion,9514.3,218753,218751.28,218767.94,228282.24,228288,2024-06-15T11:42:10Z,228298.9,NULL,Vergnügen,kichekesho,s,dubwana,mpanuko,mtesaji,NA,sdf,NA,0,NA,NA,NA,NA,NA,NA,NA,NA,NA,NA,NA,NA,NA,NA,NA,NA,NA,NA,NA
f14c4,block,flow.Loop,3_0_0_0,NA,NA,completion,96318.14,131964,131963.7,131964.1,228282.24,228288,2024-06-15T11:42:10Z,228298.9,NULL,NA,NA,NA,NA,NA,NA,NA,sdf,NA,0,NA,NA,NA,NA,NA,NA,NA,NA,NA,NA,NA,NA,NA,NA,NA,NA,NA,NA,NA
f14c4,weiter,canvas.Screen,3_0_0_1,sdf,keypress(Space),response,1069.1,228288,228282.24,228298.9,229368,229382,2024-06-15T11:42:11Z,229439.74,NULL,NA,NA,NA,NA,NA,NA,NA,sdf,NA,0,NA,NA,NA,NA,NA,NA,NA,NA,NA,NA,NA,NA,NA,NA,NA,NA,NA,NA,NA
f14c4,check continue,flow.Sequence,3_0_0,NA,NA,completion,97403.9,131964,131963.7,131964.1,229368,229383,2024-06-15T11:42:11Z,229439.74,NULL,NA,NA,NA,NA,NA,NA,NA,sdf,NA,0,NA,NA,NA,NA,NA,NA,NA,NA,NA,NA,NA,NA,NA,NA,NA,NA,NA,NA,NA
f14c4,Deep Question,html.Page,3_0_1_0_0_0_0,NA,NA,form submission,5398.26,229440,229439.36,229439.74,234838,234841,2024-06-15T11:42:17Z,234853.72,NULL,Betrüger,mdanganyifu,d,NA,NA,NA,vghfuj,NA,NA,1,NA,NA,NA,NA,NA,NA,NA,NA,NA,NA,NA,NA,NA,NA,NA,NA,NA,NA,NA
f14c4,"""Richtig""-Screen",canvas.Screen,3_0_1_0_0_0_1,NA,NA,skipped,NA,234850,NA,NA,234838,234850,2024-06-15T11:42:17Z,234853.72,NULL,Betrüger,mdanganyifu,d,NA,NA,NA,NA,sdfdsf,NA,1,NA,NA,NA,NA,NA,NA,NA,NA,NA,NA,NA,NA,NA,NA,NA,NA,NA,NA,NA
f14c4,"""Falsch""-Screen",canvas.Screen,3_0_1_0_0_0_2,NA,NA,timeout,5007.06,234853,234836.94,234853.72,239844.12,239845,2024-06-15T11:42:22Z,239860.78,NULL,Betrüger,mdanganyifu,d,NA,NA,NA,NA,sdfdsf,0,1,NA,NA,NA,NA,NA,NA,NA,NA,NA,NA,NA,NA,NA,NA,NA,NA,NA,NA,NA
f14c4,deep,flow.Sequence,3_0_1_0_0_0,NA,NA,completion,10404.38,229440,229439.36,229439.74,239844.12,239846,2024-06-15T11:42:22Z,239860.78,NULL,Betrüger,mdanganyifu,d,NA,NA,NA,NA,sdfdsf,NA,1,NA,NA,NA,NA,NA,NA,NA,NA,NA,NA,NA,NA,NA,NA,NA,NA,NA,NA,NA
f14c4,shallow,flow.Sequence,3_0_1_0_0_1,NA,NA,skipped,NA,239846,NA,NA,239844.12,239846,2024-06-15T11:42:22Z,239860.78,NULL,Betrüger,mdanganyifu,d,NA,NA,NA,NA,sdfdsf,NA,1,NA,NA,NA,NA,NA,NA,NA,NA,NA,NA,NA,NA,NA,NA,NA,NA,NA,NA,NA
f14c4,task,flow.Sequence,3_0_1_0_0,NA,NA,completion,10404.38,229440,229439.36,229439.74,239844.12,239846,2024-06-15T11:42:22Z,239860.78,NULL,Betrüger,mdanganyifu,d,NA,NA,NA,NA,sdfdsf,NA,1,NA,NA,NA,NA,NA,NA,NA,NA,NA,NA,NA,NA,NA,NA,NA,NA,NA,NA,NA
f14c4,deep,flow.Sequence,3_0_1_0_1_0,NA,NA,skipped,NA,239848,NA,NA,239844.12,239848,2024-06-15T11:42:22Z,239860.78,NULL,Vergnügen,kichekesho,s,dubwana,mpanuko,mtesaji,NA,sdfdsf,NA,1,NA,NA,NA,NA,NA,NA,NA,NA,NA,NA,NA,NA,NA,NA,NA,NA,NA,NA,NA
f14c4,Shallow Question,html.Page,3_0_1_0_1_1_0,NA,NA,form submission,8332.22,239848,239844.12,239860.78,248193,248193,2024-06-15T11:42:30Z,248199.94,NULL,Vergnügen,kichekesho,s,dubwana,mpanuko,mtesaji,kichekesho,NA,NA,1,NA,NA,NA,NA,NA,NA,NA,NA,NA,NA,NA,NA,NA,NA,NA,NA,NA,NA,NA
f14c4,"""Richtig""-Screen",canvas.Screen,3_0_1_0_1_1_1,NA,NA,timeout,5006.96,248195,248190.8,248199.94,253190.22,253191,2024-06-15T11:42:35Z,253206.9,NULL,Vergnügen,kichekesho,s,dubwana,mpanuko,mtesaji,NA,sdfdsf,1,1,NA,NA,NA,NA,NA,NA,NA,NA,NA,NA,NA,NA,NA,NA,NA,NA,NA,NA,NA
f14c4,"""Falsch""-Screen",canvas.Screen,3_0_1_0_1_1_2,NA,NA,skipped,NA,253193,NA,NA,253190.22,253193,2024-06-15T11:42:35Z,253206.9,NULL,Vergnügen,kichekesho,s,dubwana,mpanuko,mtesaji,NA,sdfdsf,NA,1,NA,NA,NA,NA,NA,NA,NA,NA,NA,NA,NA,NA,NA,NA,NA,NA,NA,NA,NA
f14c4,shallow,flow.Sequence,3_0_1_0_1_1,NA,NA,completion,13329.44,239848,239844.12,239860.78,253190.22,253193,2024-06-15T11:42:35Z,253206.9,NULL,Vergnügen,kichekesho,s,dubwana,mpanuko,mtesaji,NA,sdfdsf,NA,1,NA,NA,NA,NA,NA,NA,NA,NA,NA,NA,NA,NA,NA,NA,NA,NA,NA,NA,NA
f14c4,task,flow.Sequence,3_0_1_0_1,NA,NA,completion,13329.44,239848,239844.12,239860.78,253190.22,253193,2024-06-15T11:42:35Z,253206.9,NULL,Vergnügen,kichekesho,s,dubwana,mpanuko,mtesaji,NA,sdfdsf,NA,1,NA,NA,NA,NA,NA,NA,NA,NA,NA,NA,NA,NA,NA,NA,NA,NA,NA,NA,NA
f14c4,deep,flow.Sequence,3_0_1_0_2_0,NA,NA,skipped,NA,253193,NA,NA,253190.22,253193,2024-06-15T11:42:35Z,253206.9,NULL,Respekt,heshima,s,changamnao,upinzani,ufanisi,NA,sdfdsf,NA,1,NA,NA,NA,NA,NA,NA,NA,NA,NA,NA,NA,NA,NA,NA,NA,NA,NA,NA,NA
f14c4,Shallow Question,html.Page,3_0_1_0_2_1_0,NA,NA,form submission,5126.1,253193,253190.22,253206.9,258333,258333,2024-06-15T11:42:40Z,258339.7,NULL,Respekt,heshima,s,changamnao,upinzani,ufanisi,heshima,NA,NA,1,NA,NA,NA,NA,NA,NA,NA,NA,NA,NA,NA,NA,NA,NA,NA,NA,NA,NA,NA
f14c4,"""Richtig""-Screen",canvas.Screen,3_0_1_0_2_1_1,NA,NA,timeout,4996.56,258335,258330.58,258339.7,263319.58,263322,2024-06-15T11:42:45Z,263336.26,NULL,Respekt,heshima,s,changamnao,upinzani,ufanisi,NA,sdfdsf,1,1,NA,NA,NA,NA,NA,NA,NA,NA,NA,NA,NA,NA,NA,NA,NA,NA,NA,NA,NA
f14c4,"""Falsch""-Screen",canvas.Screen,3_0_1_0_2_1_2,NA,NA,skipped,NA,263324,NA,NA,263319.58,263324,2024-06-15T11:42:45Z,263336.26,NULL,Respekt,heshima,s,changamnao,upinzani,ufanisi,NA,sdfdsf,NA,1,NA,NA,NA,NA,NA,NA,NA,NA,NA,NA,NA,NA,NA,NA,NA,NA,NA,NA,NA
f14c4,shallow,flow.Sequence,3_0_1_0_2_1,NA,NA,completion,10112.68,253193,253190.22,253206.9,263319.58,263324,2024-06-15T11:42:45Z,263336.26,NULL,Respekt,heshima,s,changamnao,upinzani,ufanisi,NA,sdfdsf,NA,1,NA,NA,NA,NA,NA,NA,NA,NA,NA,NA,NA,NA,NA,NA,NA,NA,NA,NA,NA
f14c4,task,flow.Sequence,3_0_1_0_2,NA,NA,completion,10112.68,253193,253190.22,253206.9,263319.58,263325,2024-06-15T11:42:45Z,263336.26,NULL,Respekt,heshima,s,changamnao,upinzani,ufanisi,NA,sdfdsf,NA,1,NA,NA,NA,NA,NA,NA,NA,NA,NA,NA,NA,NA,NA,NA,NA,NA,NA,NA,NA
f14c4,Deep Question,html.Page,3_0_1_0_3_0_0,NA,NA,form submission,3151.74,263325,263319.58,263336.26,266488,266488,2024-06-15T11:42:49Z,266487.76,NULL,Ergänzung,kijalizo,d,NA,NA,NA,bghrt,NA,NA,1,NA,NA,NA,NA,NA,NA,NA,NA,NA,NA,NA,NA,NA,NA,NA,NA,NA,NA,NA
f14c4,"""Richtig""-Screen",canvas.Screen,3_0_1_0_3_0_1,NA,NA,skipped,NA,266490,NA,NA,266488,266490,2024-06-15T11:42:49Z,266487.76,NULL,Ergänzung,kijalizo,d,NA,NA,NA,NA,sdfdsf,NA,1,NA,NA,NA,NA,NA,NA,NA,NA,NA,NA,NA,NA,NA,NA,NA,NA,NA,NA,NA
f14c4,"""Falsch""-Screen",canvas.Screen,3_0_1_0_3_0_2,NA,NA,timeout,5004.32,266491,266487.12,266487.76,271475.42,271477,2024-06-15T11:42:53Z,271492.08,NULL,Ergänzung,kijalizo,d,NA,NA,NA,NA,sdfdsf,0,1,NA,NA,NA,NA,NA,NA,NA,NA,NA,NA,NA,NA,NA,NA,NA,NA,NA,NA,NA
f14c4,deep,flow.Sequence,3_0_1_0_3_0,NA,NA,completion,8139.16,263325,263319.58,263336.26,271475.42,271477,2024-06-15T11:42:53Z,271492.08,NULL,Ergänzung,kijalizo,d,NA,NA,NA,NA,sdfdsf,NA,1,NA,NA,NA,NA,NA,NA,NA,NA,NA,NA,NA,NA,NA,NA,NA,NA,NA,NA,NA
f14c4,shallow,flow.Sequence,3_0_1_0_3_1,NA,NA,skipped,NA,271477,NA,NA,271475.42,271477,2024-06-15T11:42:53Z,271492.08,NULL,Ergänzung,kijalizo,d,NA,NA,NA,NA,sdfdsf,NA,1,NA,NA,NA,NA,NA,NA,NA,NA,NA,NA,NA,NA,NA,NA,NA,NA,NA,NA,NA
f14c4,task,flow.Sequence,3_0_1_0_3,NA,NA,completion,8139.16,263325,263319.58,263336.26,271475.42,271478,2024-06-15T11:42:53Z,271492.08,NULL,Ergänzung,kijalizo,d,NA,NA,NA,NA,sdfdsf,NA,1,NA,NA,NA,NA,NA,NA,NA,NA,NA,NA,NA,NA,NA,NA,NA,NA,NA,NA,NA
f14c4,deep,flow.Sequence,3_0_1_0_4_0,NA,NA,skipped,NA,271478,NA,NA,271475.42,271479,2024-06-15T11:42:53Z,271492.08,NULL,Notfall,dharura,s,rairai,malalamiko,ahueni,NA,sdfdsf,NA,1,NA,NA,NA,NA,NA,NA,NA,NA,NA,NA,NA,NA,NA,NA,NA,NA,NA,NA,NA
f14c4,Shallow Question,html.Page,3_0_1_0_4_1_0,NA,NA,form submission,5411.92,271479,271475.42,271492.08,276904,276904,2024-06-15T11:42:59Z,276913.68,NULL,Notfall,dharura,s,rairai,malalamiko,ahueni,dharura,NA,NA,1,NA,NA,NA,NA,NA,NA,NA,NA,NA,NA,NA,NA,NA,NA,NA,NA,NA,NA,NA
f14c4,"""Richtig""-Screen",canvas.Screen,3_0_1_0_4_1_1,NA,NA,timeout,5005.32,276906,276900.46,276913.68,281902.32,281904,2024-06-15T11:43:04Z,281919,NULL,Notfall,dharura,s,rairai,malalamiko,ahueni,NA,sdfdsf,1,1,NA,NA,NA,NA,NA,NA,NA,NA,NA,NA,NA,NA,NA,NA,NA,NA,NA,NA,NA
f14c4,"""Falsch""-Screen",canvas.Screen,3_0_1_0_4_1_2,NA,NA,skipped,NA,281906,NA,NA,281902.32,281907,2024-06-15T11:43:04Z,281919,NULL,Notfall,dharura,s,rairai,malalamiko,ahueni,NA,sdfdsf,NA,1,NA,NA,NA,NA,NA,NA,NA,NA,NA,NA,NA,NA,NA,NA,NA,NA,NA,NA,NA
f14c4,shallow,flow.Sequence,3_0_1_0_4_1,NA,NA,completion,10410.24,271479,271475.42,271492.08,281902.32,281907,2024-06-15T11:43:04Z,281919,NULL,Notfall,dharura,s,rairai,malalamiko,ahueni,NA,sdfdsf,NA,1,NA,NA,NA,NA,NA,NA,NA,NA,NA,NA,NA,NA,NA,NA,NA,NA,NA,NA,NA
f14c4,task,flow.Sequence,3_0_1_0_4,NA,NA,completion,10410.24,271478,271475.42,271492.08,281902.32,281907,2024-06-15T11:43:04Z,281919,NULL,Notfall,dharura,s,rairai,malalamiko,ahueni,NA,sdfdsf,NA,1,NA,NA,NA,NA,NA,NA,NA,NA,NA,NA,NA,NA,NA,NA,NA,NA,NA,NA,NA
f14c4,Deep Question,html.Page,3_0_1_0_5_0_0,NA,NA,form submission,7679,281907,281902.32,281919,289598,289601,2024-06-15T11:43:12Z,289616.82,NULL,Wohlstand,mafanikio,d,NA,NA,NA,kijalizo,NA,NA,1,NA,NA,NA,NA,NA,NA,NA,NA,NA,NA,NA,NA,NA,NA,NA,NA,NA,NA,NA
f14c4,"""Richtig""-Screen",canvas.Screen,3_0_1_0_5_0_1,NA,NA,skipped,NA,289611,NA,NA,289598,289611,2024-06-15T11:43:12Z,289616.82,NULL,Wohlstand,mafanikio,d,NA,NA,NA,NA,sdfdsf,NA,1,NA,NA,NA,NA,NA,NA,NA,NA,NA,NA,NA,NA,NA,NA,NA,NA,NA,NA,NA
f14c4,"""Falsch""-Screen",canvas.Screen,3_0_1_0_5_0_2,NA,NA,timeout,4997.3,289615,289591.72,289616.82,294597.44,294599,2024-06-15T11:43:17Z,294614.12,NULL,Wohlstand,mafanikio,d,NA,NA,NA,NA,sdfdsf,0,1,NA,NA,NA,NA,NA,NA,NA,NA,NA,NA,NA,NA,NA,NA,NA,NA,NA,NA,NA
f14c4,deep,flow.Sequence,3_0_1_0_5_0,NA,NA,completion,12678.44,281907,281902.32,281919,294597.44,294600,2024-06-15T11:43:17Z,294614.12,NULL,Wohlstand,mafanikio,d,NA,NA,NA,NA,sdfdsf,NA,1,NA,NA,NA,NA,NA,NA,NA,NA,NA,NA,NA,NA,NA,NA,NA,NA,NA,NA,NA
f14c4,shallow,flow.Sequence,3_0_1_0_5_1,NA,NA,skipped,NA,294600,NA,NA,294597.44,294600,2024-06-15T11:43:17Z,294614.12,NULL,Wohlstand,mafanikio,d,NA,NA,NA,NA,sdfdsf,NA,1,NA,NA,NA,NA,NA,NA,NA,NA,NA,NA,NA,NA,NA,NA,NA,NA,NA,NA,NA
f14c4,task,flow.Sequence,3_0_1_0_5,NA,NA,completion,12678.44,281907,281902.32,281919,294597.44,294601,2024-06-15T11:43:17Z,294614.12,NULL,Wohlstand,mafanikio,d,NA,NA,NA,NA,sdfdsf,NA,1,NA,NA,NA,NA,NA,NA,NA,NA,NA,NA,NA,NA,NA,NA,NA,NA,NA,NA,NA
f14c4,Deep Question,html.Page,3_0_1_0_6_0_0,NA,NA,form submission,5308.88,294601,294597.44,294614.12,299923,299923,2024-06-15T11:43:22Z,299922.36,NULL,Stimmung,kinyongo,d,NA,NA,NA,kijalizo,NA,NA,1,NA,NA,NA,NA,NA,NA,NA,NA,NA,NA,NA,NA,NA,NA,NA,NA,NA,NA,NA
f14c4,"""Richtig""-Screen",canvas.Screen,3_0_1_0_6_0_1,NA,NA,skipped,NA,299927,NA,NA,299923,299927,2024-06-15T11:43:22Z,299922.36,NULL,Stimmung,kinyongo,d,NA,NA,NA,NA,sdfdsf,NA,1,NA,NA,NA,NA,NA,NA,NA,NA,NA,NA,NA,NA,NA,NA,NA,NA,NA,NA,NA
f14c4,"""Falsch""-Screen",canvas.Screen,3_0_1_0_6_0_2,NA,NA,timeout,5006.82,299929,299921.82,299922.36,304912.62,304914,2024-06-15T11:43:27Z,304929.18,NULL,Stimmung,kinyongo,d,NA,NA,NA,NA,sdfdsf,0,1,NA,NA,NA,NA,NA,NA,NA,NA,NA,NA,NA,NA,NA,NA,NA,NA,NA,NA,NA
f14c4,deep,flow.Sequence,3_0_1_0_6_0,NA,NA,completion,10298.5,294601,294597.44,294614.12,304912.62,304916,2024-06-15T11:43:27Z,304929.18,NULL,Stimmung,kinyongo,d,NA,NA,NA,NA,sdfdsf,NA,1,NA,NA,NA,NA,NA,NA,NA,NA,NA,NA,NA,NA,NA,NA,NA,NA,NA,NA,NA
f14c4,shallow,flow.Sequence,3_0_1_0_6_1,NA,NA,skipped,NA,304916,NA,NA,304912.62,304917,2024-06-15T11:43:27Z,304929.18,NULL,Stimmung,kinyongo,d,NA,NA,NA,NA,sdfdsf,NA,1,NA,NA,NA,NA,NA,NA,NA,NA,NA,NA,NA,NA,NA,NA,NA,NA,NA,NA,NA
f14c4,task,flow.Sequence,3_0_1_0_6,NA,NA,completion,10298.5,294601,294597.44,294614.12,304912.62,304917,2024-06-15T11:43:27Z,304929.18,NULL,Stimmung,kinyongo,d,NA,NA,NA,NA,sdfdsf,NA,1,NA,NA,NA,NA,NA,NA,NA,NA,NA,NA,NA,NA,NA,NA,NA,NA,NA,NA,NA
f14c4,deep,flow.Sequence,3_0_1_0_7_0,NA,NA,skipped,NA,304918,NA,NA,304912.62,304919,2024-06-15T11:43:27Z,304929.18,NULL,Orientierung,urekebisho,s,uelekeo,marekebisho,utunzaji,NA,sdfdsf,NA,1,NA,NA,NA,NA,NA,NA,NA,NA,NA,NA,NA,NA,NA,NA,NA,NA,NA,NA,NA
f14c4,Shallow Question,html.Page,3_0_1_0_7_1_0,NA,NA,form submission,12609.82,304919,304912.62,304929.18,317539,317540,2024-06-15T11:43:40Z,317548.36,NULL,Orientierung,urekebisho,s,uelekeo,marekebisho,utunzaji,urekebisho,NA,NA,1,NA,NA,NA,NA,NA,NA,NA,NA,NA,NA,NA,NA,NA,NA,NA,NA,NA,NA,NA
f14c4,"""Richtig""-Screen",canvas.Screen,3_0_1_0_7_1_1,NA,NA,timeout,4998.3,317541,317536.76,317548.36,322530,322532,2024-06-15T11:43:45Z,322546.66,NULL,Orientierung,urekebisho,s,uelekeo,marekebisho,utunzaji,NA,sdfdsf,1,1,NA,NA,NA,NA,NA,NA,NA,NA,NA,NA,NA,NA,NA,NA,NA,NA,NA,NA,NA
f14c4,"""Falsch""-Screen",canvas.Screen,3_0_1_0_7_1_2,NA,NA,skipped,NA,322534,NA,NA,322530,322534,2024-06-15T11:43:45Z,322546.66,NULL,Orientierung,urekebisho,s,uelekeo,marekebisho,utunzaji,NA,sdfdsf,NA,1,NA,NA,NA,NA,NA,NA,NA,NA,NA,NA,NA,NA,NA,NA,NA,NA,NA,NA,NA
f14c4,shallow,flow.Sequence,3_0_1_0_7_1,NA,NA,completion,17600.82,304919,304912.62,304929.18,322530,322534,2024-06-15T11:43:45Z,322546.66,NULL,Orientierung,urekebisho,s,uelekeo,marekebisho,utunzaji,NA,sdfdsf,NA,1,NA,NA,NA,NA,NA,NA,NA,NA,NA,NA,NA,NA,NA,NA,NA,NA,NA,NA,NA
f14c4,task,flow.Sequence,3_0_1_0_7,NA,NA,completion,17600.82,304918,304912.62,304929.18,322530,322535,2024-06-15T11:43:45Z,322546.66,NULL,Orientierung,urekebisho,s,uelekeo,marekebisho,utunzaji,NA,sdfdsf,NA,1,NA,NA,NA,NA,NA,NA,NA,NA,NA,NA,NA,NA,NA,NA,NA,NA,NA,NA,NA
f14c4,block,flow.Loop,3_0_1_0,NA,NA,completion,93090.26,229440,229439.36,229439.74,322530,322535,2024-06-15T11:43:45Z,322546.66,NULL,NA,NA,NA,NA,NA,NA,NA,sdfdsf,NA,1,NA,NA,NA,NA,NA,NA,NA,NA,NA,NA,NA,NA,NA,NA,NA,NA,NA,NA,NA
f14c4,weiter,canvas.Screen,3_0_1_1,sdf,keypress(Space),response,898.34000000003,322535,322530,322546.66,323445,323460,2024-06-15T11:43:45Z,323515.26,NULL,NA,NA,NA,NA,NA,NA,NA,sdfdsf,NA,1,NA,NA,NA,NA,NA,NA,NA,NA,NA,NA,NA,NA,NA,NA,NA,NA,NA,NA,NA
f14c4,check continue,flow.Sequence,3_0_1,NA,NA,completion,94005.26,229440,229439.36,229439.74,323445,323461,2024-06-15T11:43:45Z,323515.26,NULL,NA,NA,NA,NA,NA,NA,NA,sdfdsf,NA,1,NA,NA,NA,NA,NA,NA,NA,NA,NA,NA,NA,NA,NA,NA,NA,NA,NA,NA,NA
f14c4,deep,flow.Sequence,3_0_2_0_0_0,NA,NA,skipped,NA,323515,NA,NA,323445,323515,2024-06-15T11:43:46Z,323515.26,NULL,Notfall,dharura,s,rairai,malalamiko,ahueni,NA,sdf,NA,2,NA,NA,NA,NA,NA,NA,NA,NA,NA,NA,NA,NA,NA,NA,NA,NA,NA,NA,NA
f14c4,Shallow Question,html.Page,3_0_2_0_0_1_0,NA,NA,form submission,2536.74,323515,323514.92,323515.26,326052,326053,2024-06-15T11:43:48Z,326052.78,NULL,Notfall,dharura,s,rairai,malalamiko,ahueni,dharura,NA,NA,2,NA,NA,NA,NA,NA,NA,NA,NA,NA,NA,NA,NA,NA,NA,NA,NA,NA,NA,NA
f14c4,"""Richtig""-Screen",canvas.Screen,3_0_2_0_0_1_1,NA,NA,timeout,5005.66,326055,326049.5,326052.78,331041.78,331042,2024-06-15T11:43:53Z,331058.44,NULL,Notfall,dharura,s,rairai,malalamiko,ahueni,NA,sdf,1,2,NA,NA,NA,NA,NA,NA,NA,NA,NA,NA,NA,NA,NA,NA,NA,NA,NA,NA,NA
f14c4,"""Falsch""-Screen",canvas.Screen,3_0_2_0_0_1_2,NA,NA,skipped,NA,331045,NA,NA,331041.78,331045,2024-06-15T11:43:53Z,331058.44,NULL,Notfall,dharura,s,rairai,malalamiko,ahueni,NA,sdf,NA,2,NA,NA,NA,NA,NA,NA,NA,NA,NA,NA,NA,NA,NA,NA,NA,NA,NA,NA,NA
f14c4,shallow,flow.Sequence,3_0_2_0_0_1,NA,NA,completion,7526.52,323515,323514.92,323515.26,331041.78,331045,2024-06-15T11:43:53Z,331058.44,NULL,Notfall,dharura,s,rairai,malalamiko,ahueni,NA,sdf,NA,2,NA,NA,NA,NA,NA,NA,NA,NA,NA,NA,NA,NA,NA,NA,NA,NA,NA,NA,NA
f14c4,task,flow.Sequence,3_0_2_0_0,NA,NA,completion,7526.52,323515,323514.92,323515.26,331041.78,331045,2024-06-15T11:43:53Z,331058.44,NULL,Notfall,dharura,s,rairai,malalamiko,ahueni,NA,sdf,NA,2,NA,NA,NA,NA,NA,NA,NA,NA,NA,NA,NA,NA,NA,NA,NA,NA,NA,NA,NA
f14c4,Deep Question,html.Page,3_0_2_0_1_0_0,NA,NA,form submission,5219.56,331045,331041.78,331058.44,336278,336279,2024-06-15T11:43:58Z,336277.1,NULL,Wohlstand,mafanikio,d,NA,NA,NA,kijalizo,NA,NA,2,NA,NA,NA,NA,NA,NA,NA,NA,NA,NA,NA,NA,NA,NA,NA,NA,NA,NA,NA
f14c4,"""Richtig""-Screen",canvas.Screen,3_0_2_0_1_0_1,NA,NA,skipped,NA,336281,NA,NA,336278,336281,2024-06-15T11:43:58Z,336277.1,NULL,Wohlstand,mafanikio,d,NA,NA,NA,NA,sdf,NA,2,NA,NA,NA,NA,NA,NA,NA,NA,NA,NA,NA,NA,NA,NA,NA,NA,NA,NA,NA
f14c4,"""Falsch""-Screen",canvas.Screen,3_0_2_0_1_0_2,NA,NA,timeout,5002.84,336283,336276.6,336277.1,341263.26,341265,2024-06-15T11:44:03Z,341279.94,NULL,Wohlstand,mafanikio,d,NA,NA,NA,NA,sdf,0,2,NA,NA,NA,NA,NA,NA,NA,NA,NA,NA,NA,NA,NA,NA,NA,NA,NA,NA,NA
f14c4,deep,flow.Sequence,3_0_2_0_1_0,NA,NA,completion,10204.82,331045,331041.78,331058.44,341263.26,341265,2024-06-15T11:44:03Z,341279.94,NULL,Wohlstand,mafanikio,d,NA,NA,NA,NA,sdf,NA,2,NA,NA,NA,NA,NA,NA,NA,NA,NA,NA,NA,NA,NA,NA,NA,NA,NA,NA,NA
f14c4,shallow,flow.Sequence,3_0_2_0_1_1,NA,NA,skipped,NA,341265,NA,NA,341263.26,341265,2024-06-15T11:44:03Z,341279.94,NULL,Wohlstand,mafanikio,d,NA,NA,NA,NA,sdf,NA,2,NA,NA,NA,NA,NA,NA,NA,NA,NA,NA,NA,NA,NA,NA,NA,NA,NA,NA,NA
f14c4,task,flow.Sequence,3_0_2_0_1,NA,NA,completion,10204.82,331045,331041.78,331058.44,341263.26,341265,2024-06-15T11:44:03Z,341279.94,NULL,Wohlstand,mafanikio,d,NA,NA,NA,NA,sdf,NA,2,NA,NA,NA,NA,NA,NA,NA,NA,NA,NA,NA,NA,NA,NA,NA,NA,NA,NA,NA
f14c4,deep,flow.Sequence,3_0_2_0_2_0,NA,NA,skipped,NA,341266,NA,NA,341263.26,341266,2024-06-15T11:44:03Z,341279.94,NULL,Vergnügen,kichekesho,s,dubwana,mpanuko,mtesaji,NA,sdf,NA,2,NA,NA,NA,NA,NA,NA,NA,NA,NA,NA,NA,NA,NA,NA,NA,NA,NA,NA,NA
f14c4,Shallow Question,html.Page,3_0_2_0_2_1_0,NA,NA,form submission,5323.06,341266,341263.26,341279.94,346603,346603,2024-06-15T11:44:09Z,346602.26,NULL,Vergnügen,kichekesho,s,dubwana,mpanuko,mtesaji,kichekesho,NA,NA,2,NA,NA,NA,NA,NA,NA,NA,NA,NA,NA,NA,NA,NA,NA,NA,NA,NA,NA,NA
f14c4,"""Richtig""-Screen",canvas.Screen,3_0_2_0_2_1_1,NA,NA,timeout,5001.04,346604,346600,346602.26,351586.64,351588,2024-06-15T11:44:14Z,351603.3,NULL,Vergnügen,kichekesho,s,dubwana,mpanuko,mtesaji,NA,sdf,1,2,NA,NA,NA,NA,NA,NA,NA,NA,NA,NA,NA,NA,NA,NA,NA,NA,NA,NA,NA
f14c4,"""Falsch""-Screen",canvas.Screen,3_0_2_0_2_1_2,NA,NA,skipped,NA,351592,NA,NA,351586.64,351592,2024-06-15T11:44:14Z,351603.3,NULL,Vergnügen,kichekesho,s,dubwana,mpanuko,mtesaji,NA,sdf,NA,2,NA,NA,NA,NA,NA,NA,NA,NA,NA,NA,NA,NA,NA,NA,NA,NA,NA,NA,NA
f14c4,shallow,flow.Sequence,3_0_2_0_2_1,NA,NA,completion,10306.7,341266,341263.26,341279.94,351586.64,351592,2024-06-15T11:44:14Z,351603.3,NULL,Vergnügen,kichekesho,s,dubwana,mpanuko,mtesaji,NA,sdf,NA,2,NA,NA,NA,NA,NA,NA,NA,NA,NA,NA,NA,NA,NA,NA,NA,NA,NA,NA,NA
f14c4,task,flow.Sequence,3_0_2_0_2,NA,NA,completion,10306.7,341266,341263.26,341279.94,351586.64,351592,2024-06-15T11:44:14Z,351603.3,NULL,Vergnügen,kichekesho,s,dubwana,mpanuko,mtesaji,NA,sdf,NA,2,NA,NA,NA,NA,NA,NA,NA,NA,NA,NA,NA,NA,NA,NA,NA,NA,NA,NA,NA
f14c4,deep,flow.Sequence,3_0_2_0_3_0,NA,NA,skipped,NA,351592,NA,NA,351586.64,351592,2024-06-15T11:44:14Z,351603.3,NULL,Orientierung,urekebisho,s,uelekeo,marekebisho,utunzaji,NA,sdf,NA,2,NA,NA,NA,NA,NA,NA,NA,NA,NA,NA,NA,NA,NA,NA,NA,NA,NA,NA,NA
f14c4,Shallow Question,html.Page,3_0_2_0_3_1_0,NA,NA,form submission,13750.7,351592,351586.64,351603.3,365354,365354,2024-06-15T11:44:27Z,365365.28,NULL,Orientierung,urekebisho,s,uelekeo,marekebisho,utunzaji,urekebisho,NA,NA,2,NA,NA,NA,NA,NA,NA,NA,NA,NA,NA,NA,NA,NA,NA,NA,NA,NA,NA,NA
f14c4,"""Richtig""-Screen",canvas.Screen,3_0_2_0_3_1_1,NA,NA,timeout,5002.18,365357,365350.4,365365.28,370350.78,370354,2024-06-15T11:44:32Z,370367.46,NULL,Orientierung,urekebisho,s,uelekeo,marekebisho,utunzaji,NA,sdf,1,2,NA,NA,NA,NA,NA,NA,NA,NA,NA,NA,NA,NA,NA,NA,NA,NA,NA,NA,NA
f14c4,"""Falsch""-Screen",canvas.Screen,3_0_2_0_3_1_2,NA,NA,skipped,NA,370357,NA,NA,370350.78,370358,2024-06-15T11:44:32Z,370367.46,NULL,Orientierung,urekebisho,s,uelekeo,marekebisho,utunzaji,NA,sdf,NA,2,NA,NA,NA,NA,NA,NA,NA,NA,NA,NA,NA,NA,NA,NA,NA,NA,NA,NA,NA
f14c4,shallow,flow.Sequence,3_0_2_0_3_1,NA,NA,completion,18747.48,351592,351586.64,351603.3,370350.78,370358,2024-06-15T11:44:32Z,370367.46,NULL,Orientierung,urekebisho,s,uelekeo,marekebisho,utunzaji,NA,sdf,NA,2,NA,NA,NA,NA,NA,NA,NA,NA,NA,NA,NA,NA,NA,NA,NA,NA,NA,NA,NA
f14c4,task,flow.Sequence,3_0_2_0_3,NA,NA,completion,18747.48,351592,351586.64,351603.3,370350.78,370358,2024-06-15T11:44:32Z,370367.46,NULL,Orientierung,urekebisho,s,uelekeo,marekebisho,utunzaji,NA,sdf,NA,2,NA,NA,NA,NA,NA,NA,NA,NA,NA,NA,NA,NA,NA,NA,NA,NA,NA,NA,NA
f14c4,Deep Question,html.Page,3_0_2_0_4_0_0,NA,NA,form submission,10569.54,370358,370350.78,370367.46,380937,380937,2024-06-15T11:44:43Z,380939.3,NULL,Stimmung,kinyongo,d,NA,NA,NA,kijalizo,NA,NA,2,NA,NA,NA,NA,NA,NA,NA,NA,NA,NA,NA,NA,NA,NA,NA,NA,NA,NA,NA
f14c4,"""Richtig""-Screen",canvas.Screen,3_0_2_0_4_0_1,NA,NA,skipped,NA,380939,NA,NA,380937,380939,2024-06-15T11:44:43Z,380939.3,NULL,Stimmung,kinyongo,d,NA,NA,NA,NA,sdf,NA,2,NA,NA,NA,NA,NA,NA,NA,NA,NA,NA,NA,NA,NA,NA,NA,NA,NA,NA,NA
f14c4,"""Falsch""-Screen",canvas.Screen,3_0_2_0_4_0_2,NA,NA,timeout,5001.92,380941,380934.44,380939.3,385924.54,385928,2024-06-15T11:44:48Z,385941.22,NULL,Stimmung,kinyongo,d,NA,NA,NA,NA,sdf,0,2,NA,NA,NA,NA,NA,NA,NA,NA,NA,NA,NA,NA,NA,NA,NA,NA,NA,NA,NA
f14c4,deep,flow.Sequence,3_0_2_0_4_0,NA,NA,completion,15557.08,370358,370350.78,370367.46,385924.54,385929,2024-06-15T11:44:48Z,385941.22,NULL,Stimmung,kinyongo,d,NA,NA,NA,NA,sdf,NA,2,NA,NA,NA,NA,NA,NA,NA,NA,NA,NA,NA,NA,NA,NA,NA,NA,NA,NA,NA
f14c4,shallow,flow.Sequence,3_0_2_0_4_1,NA,NA,skipped,NA,385929,NA,NA,385924.54,385929,2024-06-15T11:44:48Z,385941.22,NULL,Stimmung,kinyongo,d,NA,NA,NA,NA,sdf,NA,2,NA,NA,NA,NA,NA,NA,NA,NA,NA,NA,NA,NA,NA,NA,NA,NA,NA,NA,NA
f14c4,task,flow.Sequence,3_0_2_0_4,NA,NA,completion,15557.08,370358,370350.78,370367.46,385924.54,385929,2024-06-15T11:44:48Z,385941.22,NULL,Stimmung,kinyongo,d,NA,NA,NA,NA,sdf,NA,2,NA,NA,NA,NA,NA,NA,NA,NA,NA,NA,NA,NA,NA,NA,NA,NA,NA,NA,NA
f14c4,Deep Question,html.Page,3_0_2_0_5_0_0,NA,NA,form submission,5589.78,385930,385924.54,385941.22,391531,391532,2024-06-15T11:44:54Z,391546.3,NULL,Betrüger,mdanganyifu,d,NA,NA,NA,kijalizo,NA,NA,2,NA,NA,NA,NA,NA,NA,NA,NA,NA,NA,NA,NA,NA,NA,NA,NA,NA,NA,NA
f14c4,"""Richtig""-Screen",canvas.Screen,3_0_2_0_5_0_1,NA,NA,skipped,NA,391540,NA,NA,391531,391540,2024-06-15T11:44:54Z,391546.3,NULL,Betrüger,mdanganyifu,d,NA,NA,NA,NA,sdf,NA,2,NA,NA,NA,NA,NA,NA,NA,NA,NA,NA,NA,NA,NA,NA,NA,NA,NA,NA,NA
f14c4,"""Falsch""-Screen",canvas.Screen,3_0_2_0_5_0_2,NA,NA,timeout,4999.1,391544,391529.46,391546.3,396528.74,396530,2024-06-15T11:44:59Z,396545.4,NULL,Betrüger,mdanganyifu,d,NA,NA,NA,NA,sdf,0,2,NA,NA,NA,NA,NA,NA,NA,NA,NA,NA,NA,NA,NA,NA,NA,NA,NA,NA,NA
f14c4,deep,flow.Sequence,3_0_2_0_5_0,NA,NA,completion,10587.52,385929,385924.54,385941.22,396528.74,396530,2024-06-15T11:44:59Z,396545.4,NULL,Betrüger,mdanganyifu,d,NA,NA,NA,NA,sdf,NA,2,NA,NA,NA,NA,NA,NA,NA,NA,NA,NA,NA,NA,NA,NA,NA,NA,NA,NA,NA
f14c4,shallow,flow.Sequence,3_0_2_0_5_1,NA,NA,skipped,NA,396531,NA,NA,396528.74,396531,2024-06-15T11:44:59Z,396545.4,NULL,Betrüger,mdanganyifu,d,NA,NA,NA,NA,sdf,NA,2,NA,NA,NA,NA,NA,NA,NA,NA,NA,NA,NA,NA,NA,NA,NA,NA,NA,NA,NA
f14c4,task,flow.Sequence,3_0_2_0_5,NA,NA,completion,10587.52,385929,385924.54,385941.22,396528.74,396532,2024-06-15T11:44:59Z,396545.4,NULL,Betrüger,mdanganyifu,d,NA,NA,NA,NA,sdf,NA,2,NA,NA,NA,NA,NA,NA,NA,NA,NA,NA,NA,NA,NA,NA,NA,NA,NA,NA,NA
f14c4,deep,flow.Sequence,3_0_2_0_6_0,NA,NA,skipped,NA,396532,NA,NA,396528.74,396532,2024-06-15T11:44:59Z,396545.4,NULL,Respekt,heshima,s,changamnao,upinzani,ufanisi,NA,sdf,NA,2,NA,NA,NA,NA,NA,NA,NA,NA,NA,NA,NA,NA,NA,NA,NA,NA,NA,NA,NA
f14c4,Shallow Question,html.Page,3_0_2_0_6_1_0,NA,NA,form submission,6794.6,396533,396528.74,396545.4,403340,403341,2024-06-15T11:45:05Z,403347.9,NULL,Respekt,heshima,s,changamnao,upinzani,ufanisi,heshima,NA,NA,2,NA,NA,NA,NA,NA,NA,NA,NA,NA,NA,NA,NA,NA,NA,NA,NA,NA,NA,NA
f14c4,"""Richtig""-Screen",canvas.Screen,3_0_2_0_6_1_1,NA,NA,timeout,5007.44,403344,403337.18,403347.9,408338.66,408340,2024-06-15T11:45:10Z,408355.34,NULL,Respekt,heshima,s,changamnao,upinzani,ufanisi,NA,sdf,1,2,NA,NA,NA,NA,NA,NA,NA,NA,NA,NA,NA,NA,NA,NA,NA,NA,NA,NA,NA
f14c4,"""Falsch""-Screen",canvas.Screen,3_0_2_0_6_1_2,NA,NA,skipped,NA,408345,NA,NA,408338.66,408346,2024-06-15T11:45:10Z,408355.34,NULL,Respekt,heshima,s,changamnao,upinzani,ufanisi,NA,sdf,NA,2,NA,NA,NA,NA,NA,NA,NA,NA,NA,NA,NA,NA,NA,NA,NA,NA,NA,NA,NA
f14c4,shallow,flow.Sequence,3_0_2_0_6_1,NA,NA,completion,11793.26,396533,396528.74,396545.4,408338.66,408346,2024-06-15T11:45:10Z,408355.34,NULL,Respekt,heshima,s,changamnao,upinzani,ufanisi,NA,sdf,NA,2,NA,NA,NA,NA,NA,NA,NA,NA,NA,NA,NA,NA,NA,NA,NA,NA,NA,NA,NA
f14c4,task,flow.Sequence,3_0_2_0_6,NA,NA,completion,11793.26,396532,396528.74,396545.4,408338.66,408346,2024-06-15T11:45:10Z,408355.34,NULL,Respekt,heshima,s,changamnao,upinzani,ufanisi,NA,sdf,NA,2,NA,NA,NA,NA,NA,NA,NA,NA,NA,NA,NA,NA,NA,NA,NA,NA,NA,NA,NA
f14c4,Deep Question,html.Page,3_0_2_0_7_0_0,NA,NA,form submission,5393.66,408347,408338.66,408355.34,413749,413750,2024-06-15T11:45:16Z,413748.9,NULL,Ergänzung,kijalizo,d,NA,NA,NA,kijalizo,NA,NA,2,NA,NA,NA,NA,NA,NA,NA,NA,NA,NA,NA,NA,NA,NA,NA,NA,NA,NA,NA
f14c4,"""Richtig""-Screen",canvas.Screen,3_0_2_0_7_0_1,NA,NA,timeout,4993.6,413753,413746.86,413748.9,418725.82,418727,2024-06-15T11:45:21Z,418742.5,NULL,Ergänzung,kijalizo,d,NA,NA,NA,NA,sdf,1,2,NA,NA,NA,NA,NA,NA,NA,NA,NA,NA,NA,NA,NA,NA,NA,NA,NA,NA,NA
f14c4,"""Falsch""-Screen",canvas.Screen,3_0_2_0_7_0_2,NA,NA,skipped,NA,418731,NA,NA,418725.82,418731,2024-06-15T11:45:21Z,418742.5,NULL,Ergänzung,kijalizo,d,NA,NA,NA,NA,sdf,NA,2,NA,NA,NA,NA,NA,NA,NA,NA,NA,NA,NA,NA,NA,NA,NA,NA,NA,NA,NA
f14c4,deep,flow.Sequence,3_0_2_0_7_0,NA,NA,completion,10370.48,408346,408338.66,408355.34,418725.82,418731,2024-06-15T11:45:21Z,418742.5,NULL,Ergänzung,kijalizo,d,NA,NA,NA,NA,sdf,NA,2,NA,NA,NA,NA,NA,NA,NA,NA,NA,NA,NA,NA,NA,NA,NA,NA,NA,NA,NA
f14c4,shallow,flow.Sequence,3_0_2_0_7_1,NA,NA,skipped,NA,418731,NA,NA,418725.82,418731,2024-06-15T11:45:21Z,418742.5,NULL,Ergänzung,kijalizo,d,NA,NA,NA,NA,sdf,NA,2,NA,NA,NA,NA,NA,NA,NA,NA,NA,NA,NA,NA,NA,NA,NA,NA,NA,NA,NA
f14c4,task,flow.Sequence,3_0_2_0_7,NA,NA,completion,10370.48,408346,408338.66,408355.34,418725.82,418731,2024-06-15T11:45:21Z,418742.5,NULL,Ergänzung,kijalizo,d,NA,NA,NA,NA,sdf,NA,2,NA,NA,NA,NA,NA,NA,NA,NA,NA,NA,NA,NA,NA,NA,NA,NA,NA,NA,NA
f14c4,block,flow.Loop,3_0_2_0,NA,NA,completion,95210.56,323515,323514.92,323515.26,418725.82,418731,2024-06-15T11:45:21Z,418742.5,NULL,NA,NA,NA,NA,NA,NA,NA,sdf,NA,2,NA,NA,NA,NA,NA,NA,NA,NA,NA,NA,NA,NA,NA,NA,NA,NA,NA,NA,NA
f14c4,weiter,canvas.Screen,3_0_2_1,sdf,keypress(Space),response,828.5,418732,418725.82,418742.5,419571,419580,2024-06-15T11:45:22Z,419635.84,NULL,NA,NA,NA,NA,NA,NA,NA,sdf,NA,2,NA,NA,NA,NA,NA,NA,NA,NA,NA,NA,NA,NA,NA,NA,NA,NA,NA,NA,NA
f14c4,check continue,flow.Sequence,3_0_2,NA,NA,completion,96055.74,323515,323514.92,323515.26,419571,419581,2024-06-15T11:45:22Z,419635.84,NULL,NA,NA,NA,NA,NA,NA,NA,sdf,NA,2,NA,NA,NA,NA,NA,NA,NA,NA,NA,NA,NA,NA,NA,NA,NA,NA,NA,NA,NA
f14c4,Deep Question,html.Page,3_0_3_0_0_0_0,NA,NA,form submission,3738.16,419635,419635.28,419635.84,423374,423374,2024-06-15T11:45:25Z,423376.26,NULL,Stimmung,kinyongo,d,NA,NA,NA,gheher,NA,NA,3,NA,NA,NA,NA,NA,NA,NA,NA,NA,NA,NA,NA,NA,NA,NA,NA,NA,NA,NA
f14c4,"""Richtig""-Screen",canvas.Screen,3_0_3_0_0_0_1,NA,NA,skipped,NA,423376,NA,NA,423374,423376,2024-06-15T11:45:25Z,423376.26,NULL,Stimmung,kinyongo,d,NA,NA,NA,NA,qt,NA,3,NA,NA,NA,NA,NA,NA,NA,NA,NA,NA,NA,NA,NA,NA,NA,NA,NA,NA,NA
f14c4,"""Falsch""-Screen",canvas.Screen,3_0_3_0_0_0_2,NA,NA,timeout,4993.72,423379,423370.58,423376.26,428353.3,428355,2024-06-15T11:45:30Z,428369.98,NULL,Stimmung,kinyongo,d,NA,NA,NA,NA,qt,0,3,NA,NA,NA,NA,NA,NA,NA,NA,NA,NA,NA,NA,NA,NA,NA,NA,NA,NA,NA
f14c4,deep,flow.Sequence,3_0_3_0_0_0,NA,NA,completion,8717.46,419635,419635.28,419635.84,428353.3,428355,2024-06-15T11:45:30Z,428369.98,NULL,Stimmung,kinyongo,d,NA,NA,NA,NA,qt,NA,3,NA,NA,NA,NA,NA,NA,NA,NA,NA,NA,NA,NA,NA,NA,NA,NA,NA,NA,NA
f14c4,shallow,flow.Sequence,3_0_3_0_0_1,NA,NA,skipped,NA,428355,NA,NA,428353.3,428355,2024-06-15T11:45:30Z,428369.98,NULL,Stimmung,kinyongo,d,NA,NA,NA,NA,qt,NA,3,NA,NA,NA,NA,NA,NA,NA,NA,NA,NA,NA,NA,NA,NA,NA,NA,NA,NA,NA
f14c4,task,flow.Sequence,3_0_3_0_0,NA,NA,completion,8717.46,419635,419635.28,419635.84,428353.3,428355,2024-06-15T11:45:30Z,428369.98,NULL,Stimmung,kinyongo,d,NA,NA,NA,NA,qt,NA,3,NA,NA,NA,NA,NA,NA,NA,NA,NA,NA,NA,NA,NA,NA,NA,NA,NA,NA,NA
f14c4,deep,flow.Sequence,3_0_3_0_1_0,NA,NA,skipped,NA,428355,NA,NA,428353.3,428355,2024-06-15T11:45:30Z,428369.98,NULL,Notfall,dharura,s,rairai,malalamiko,ahueni,NA,qt,NA,3,NA,NA,NA,NA,NA,NA,NA,NA,NA,NA,NA,NA,NA,NA,NA,NA,NA,NA,NA
f14c4,Shallow Question,html.Page,3_0_3_0_1_1_0,NA,NA,form submission,3546.02,428355,428353.3,428369.98,431916,431918,2024-06-15T11:45:34Z,431918.96,NULL,Notfall,dharura,s,rairai,malalamiko,ahueni,dharura,NA,NA,3,NA,NA,NA,NA,NA,NA,NA,NA,NA,NA,NA,NA,NA,NA,NA,NA,NA,NA,NA
f14c4,"""Richtig""-Screen",canvas.Screen,3_0_3_0_1_1_1,NA,NA,timeout,4998.28,431920,431913.7,431918.96,436900.56,436902,2024-06-15T11:45:39Z,436917.24,NULL,Notfall,dharura,s,rairai,malalamiko,ahueni,NA,qt,1,3,NA,NA,NA,NA,NA,NA,NA,NA,NA,NA,NA,NA,NA,NA,NA,NA,NA,NA,NA
f14c4,"""Falsch""-Screen",canvas.Screen,3_0_3_0_1_1_2,NA,NA,skipped,NA,436907,NA,NA,436900.56,436907,2024-06-15T11:45:39Z,436917.24,NULL,Notfall,dharura,s,rairai,malalamiko,ahueni,NA,qt,NA,3,NA,NA,NA,NA,NA,NA,NA,NA,NA,NA,NA,NA,NA,NA,NA,NA,NA,NA,NA
f14c4,shallow,flow.Sequence,3_0_3_0_1_1,NA,NA,completion,8530.58,428355,428353.3,428369.98,436900.56,436907,2024-06-15T11:45:39Z,436917.24,NULL,Notfall,dharura,s,rairai,malalamiko,ahueni,NA,qt,NA,3,NA,NA,NA,NA,NA,NA,NA,NA,NA,NA,NA,NA,NA,NA,NA,NA,NA,NA,NA
f14c4,task,flow.Sequence,3_0_3_0_1,NA,NA,completion,8530.58,428355,428353.3,428369.98,436900.56,436907,2024-06-15T11:45:39Z,436917.24,NULL,Notfall,dharura,s,rairai,malalamiko,ahueni,NA,qt,NA,3,NA,NA,NA,NA,NA,NA,NA,NA,NA,NA,NA,NA,NA,NA,NA,NA,NA,NA,NA
f14c4,deep,flow.Sequence,3_0_3_0_2_0,NA,NA,skipped,NA,436907,NA,NA,436900.56,436907,2024-06-15T11:45:39Z,436917.24,NULL,Respekt,heshima,s,changamnao,upinzani,ufanisi,NA,qt,NA,3,NA,NA,NA,NA,NA,NA,NA,NA,NA,NA,NA,NA,NA,NA,NA,NA,NA,NA,NA
f14c4,Shallow Question,html.Page,3_0_3_0_2_1_0,NA,NA,form submission,4475.76,436907,436900.56,436917.24,441393,441395,2024-06-15T11:45:43Z,441392.14,NULL,Respekt,heshima,s,changamnao,upinzani,ufanisi,heshima,NA,NA,3,NA,NA,NA,NA,NA,NA,NA,NA,NA,NA,NA,NA,NA,NA,NA,NA,NA,NA,NA
f14c4,"""Richtig""-Screen",canvas.Screen,3_0_3_0_2_1_1,NA,NA,timeout,5001.22,441405,441386.54,441392.14,446374.5,446376,2024-06-15T11:45:48Z,446393.36,NULL,Respekt,heshima,s,changamnao,upinzani,ufanisi,NA,qt,1,3,NA,NA,NA,NA,NA,NA,NA,NA,NA,NA,NA,NA,NA,NA,NA,NA,NA,NA,NA
f14c4,"""Falsch""-Screen",canvas.Screen,3_0_3_0_2_1_2,NA,NA,skipped,NA,446380,NA,NA,446374.5,446380,2024-06-15T11:45:48Z,446393.36,NULL,Respekt,heshima,s,changamnao,upinzani,ufanisi,NA,qt,NA,3,NA,NA,NA,NA,NA,NA,NA,NA,NA,NA,NA,NA,NA,NA,NA,NA,NA,NA,NA
f14c4,shallow,flow.Sequence,3_0_3_0_2_1,NA,NA,completion,9457.26,436907,436900.56,436917.24,446374.5,446382,2024-06-15T11:45:48Z,446393.36,NULL,Respekt,heshima,s,changamnao,upinzani,ufanisi,NA,qt,NA,3,NA,NA,NA,NA,NA,NA,NA,NA,NA,NA,NA,NA,NA,NA,NA,NA,NA,NA,NA
f14c4,task,flow.Sequence,3_0_3_0_2,NA,NA,completion,9457.26,436907,436900.56,436917.24,446374.5,446382,2024-06-15T11:45:48Z,446393.36,NULL,Respekt,heshima,s,changamnao,upinzani,ufanisi,NA,qt,NA,3,NA,NA,NA,NA,NA,NA,NA,NA,NA,NA,NA,NA,NA,NA,NA,NA,NA,NA,NA
f14c4,deep,flow.Sequence,3_0_3_0_3_0,NA,NA,skipped,NA,446382,NA,NA,446374.5,446383,2024-06-15T11:45:48Z,446393.36,NULL,Orientierung,urekebisho,s,uelekeo,marekebisho,utunzaji,NA,qt,NA,3,NA,NA,NA,NA,NA,NA,NA,NA,NA,NA,NA,NA,NA,NA,NA,NA,NA,NA,NA
f14c4,Shallow Question,html.Page,3_0_3_0_3_1_0,NA,NA,form submission,6575.64,446384,446374.5,446393.36,452969,452970,2024-06-15T11:45:55Z,452978.6,NULL,Orientierung,urekebisho,s,uelekeo,marekebisho,utunzaji,urekebisho,NA,NA,3,NA,NA,NA,NA,NA,NA,NA,NA,NA,NA,NA,NA,NA,NA,NA,NA,NA,NA,NA
f14c4,"""Richtig""-Screen",canvas.Screen,3_0_3_0_3_1_1,NA,NA,timeout,5007.2,452973,452966.24,452978.6,457969.12,457971,2024-06-15T11:46:00Z,457985.8,NULL,Orientierung,urekebisho,s,uelekeo,marekebisho,utunzaji,NA,qt,1,3,NA,NA,NA,NA,NA,NA,NA,NA,NA,NA,NA,NA,NA,NA,NA,NA,NA,NA,NA
f14c4,"""Falsch""-Screen",canvas.Screen,3_0_3_0_3_1_2,NA,NA,skipped,NA,457975,NA,NA,457969.12,457975,2024-06-15T11:46:00Z,457985.8,NULL,Orientierung,urekebisho,s,uelekeo,marekebisho,utunzaji,NA,qt,NA,3,NA,NA,NA,NA,NA,NA,NA,NA,NA,NA,NA,NA,NA,NA,NA,NA,NA,NA,NA
f14c4,shallow,flow.Sequence,3_0_3_0_3_1,NA,NA,completion,11575.76,446384,446374.5,446393.36,457969.12,457976,2024-06-15T11:46:00Z,457985.8,NULL,Orientierung,urekebisho,s,uelekeo,marekebisho,utunzaji,NA,qt,NA,3,NA,NA,NA,NA,NA,NA,NA,NA,NA,NA,NA,NA,NA,NA,NA,NA,NA,NA,NA
f14c4,task,flow.Sequence,3_0_3_0_3,NA,NA,completion,11575.76,446382,446374.5,446393.36,457969.12,457976,2024-06-15T11:46:00Z,457985.8,NULL,Orientierung,urekebisho,s,uelekeo,marekebisho,utunzaji,NA,qt,NA,3,NA,NA,NA,NA,NA,NA,NA,NA,NA,NA,NA,NA,NA,NA,NA,NA,NA,NA,NA
f14c4,deep,flow.Sequence,3_0_3_0_4_0,NA,NA,skipped,NA,457976,NA,NA,457969.12,457976,2024-06-15T11:46:00Z,457985.8,NULL,Vergnügen,kichekesho,s,dubwana,mpanuko,mtesaji,NA,qt,NA,3,NA,NA,NA,NA,NA,NA,NA,NA,NA,NA,NA,NA,NA,NA,NA,NA,NA,NA,NA
f14c4,Shallow Question,html.Page,3_0_3_0_4_1_0,NA,NA,form submission,9302.2,457977,457969.12,457985.8,467288,467288,2024-06-15T11:46:09Z,467299.44,NULL,Vergnügen,kichekesho,s,dubwana,mpanuko,mtesaji,kichekesho,NA,NA,3,NA,NA,NA,NA,NA,NA,NA,NA,NA,NA,NA,NA,NA,NA,NA,NA,NA,NA,NA
f14c4,"""Richtig""-Screen",canvas.Screen,3_0_3_0_4_1_1,NA,NA,timeout,4994.62,467289,467284.2,467299.44,472277.38,472279,2024-06-15T11:46:14Z,472294.06,NULL,Vergnügen,kichekesho,s,dubwana,mpanuko,mtesaji,NA,qt,1,3,NA,NA,NA,NA,NA,NA,NA,NA,NA,NA,NA,NA,NA,NA,NA,NA,NA,NA,NA
f14c4,"""Falsch""-Screen",canvas.Screen,3_0_3_0_4_1_2,NA,NA,skipped,NA,472283,NA,NA,472277.38,472283,2024-06-15T11:46:14Z,472294.06,NULL,Vergnügen,kichekesho,s,dubwana,mpanuko,mtesaji,NA,qt,NA,3,NA,NA,NA,NA,NA,NA,NA,NA,NA,NA,NA,NA,NA,NA,NA,NA,NA,NA,NA
f14c4,shallow,flow.Sequence,3_0_3_0_4_1,NA,NA,completion,14291.58,457977,457969.12,457985.8,472277.38,472284,2024-06-15T11:46:14Z,472294.06,NULL,Vergnügen,kichekesho,s,dubwana,mpanuko,mtesaji,NA,qt,NA,3,NA,NA,NA,NA,NA,NA,NA,NA,NA,NA,NA,NA,NA,NA,NA,NA,NA,NA,NA
f14c4,task,flow.Sequence,3_0_3_0_4,NA,NA,completion,14291.58,457976,457969.12,457985.8,472277.38,472284,2024-06-15T11:46:14Z,472294.06,NULL,Vergnügen,kichekesho,s,dubwana,mpanuko,mtesaji,NA,qt,NA,3,NA,NA,NA,NA,NA,NA,NA,NA,NA,NA,NA,NA,NA,NA,NA,NA,NA,NA,NA
f14c4,Deep Question,html.Page,3_0_3_0_5_0_0,NA,NA,form submission,8321.94,472284,472277.38,472294.06,480616,480617,2024-06-15T11:46:23Z,480617,NULL,Wohlstand,mafanikio,d,NA,NA,NA,kijalizo,NA,NA,3,NA,NA,NA,NA,NA,NA,NA,NA,NA,NA,NA,NA,NA,NA,NA,NA,NA,NA,NA
f14c4,"""Richtig""-Screen",canvas.Screen,3_0_3_0_5_0_1,NA,NA,skipped,NA,480619,NA,NA,480616,480619,2024-06-15T11:46:23Z,480617,NULL,Wohlstand,mafanikio,d,NA,NA,NA,NA,qt,NA,3,NA,NA,NA,NA,NA,NA,NA,NA,NA,NA,NA,NA,NA,NA,NA,NA,NA,NA,NA
f14c4,"""Falsch""-Screen",canvas.Screen,3_0_3_0_5_0_2,NA,NA,timeout,5007.26,480622,480615,480617,485607.6,485608,2024-06-15T11:46:28Z,485624.26,NULL,Wohlstand,mafanikio,d,NA,NA,NA,NA,qt,0,3,NA,NA,NA,NA,NA,NA,NA,NA,NA,NA,NA,NA,NA,NA,NA,NA,NA,NA,NA
f14c4,deep,flow.Sequence,3_0_3_0_5_0,NA,NA,completion,13313.54,472284,472277.38,472294.06,485607.6,485609,2024-06-15T11:46:28Z,485624.26,NULL,Wohlstand,mafanikio,d,NA,NA,NA,NA,qt,NA,3,NA,NA,NA,NA,NA,NA,NA,NA,NA,NA,NA,NA,NA,NA,NA,NA,NA,NA,NA
f14c4,shallow,flow.Sequence,3_0_3_0_5_1,NA,NA,skipped,NA,485609,NA,NA,485607.6,485609,2024-06-15T11:46:28Z,485624.26,NULL,Wohlstand,mafanikio,d,NA,NA,NA,NA,qt,NA,3,NA,NA,NA,NA,NA,NA,NA,NA,NA,NA,NA,NA,NA,NA,NA,NA,NA,NA,NA
f14c4,task,flow.Sequence,3_0_3_0_5,NA,NA,completion,13313.54,472284,472277.38,472294.06,485607.6,485610,2024-06-15T11:46:28Z,485624.26,NULL,Wohlstand,mafanikio,d,NA,NA,NA,NA,qt,NA,3,NA,NA,NA,NA,NA,NA,NA,NA,NA,NA,NA,NA,NA,NA,NA,NA,NA,NA,NA
f14c4,Deep Question,html.Page,3_0_3_0_6_0_0,NA,NA,form submission,5134.74,485610,485607.6,485624.26,490759,490760,2024-06-15T11:46:33Z,490761.76,NULL,Betrüger,mdanganyifu,d,NA,NA,NA,kijalizo,NA,NA,3,NA,NA,NA,NA,NA,NA,NA,NA,NA,NA,NA,NA,NA,NA,NA,NA,NA,NA,NA
f14c4,"""Richtig""-Screen",canvas.Screen,3_0_3_0_6_0_1,NA,NA,skipped,NA,490763,NA,NA,490759,490764,2024-06-15T11:46:33Z,490761.76,NULL,Betrüger,mdanganyifu,d,NA,NA,NA,NA,qt,NA,3,NA,NA,NA,NA,NA,NA,NA,NA,NA,NA,NA,NA,NA,NA,NA,NA,NA,NA,NA
f14c4,"""Falsch""-Screen",canvas.Screen,3_0_3_0_6_0_2,NA,NA,timeout,4994.56,490767,490758.42,490761.76,495739.64,495741,2024-06-15T11:46:38Z,495756.32,NULL,Betrüger,mdanganyifu,d,NA,NA,NA,NA,qt,0,3,NA,NA,NA,NA,NA,NA,NA,NA,NA,NA,NA,NA,NA,NA,NA,NA,NA,NA,NA
f14c4,deep,flow.Sequence,3_0_3_0_6_0,NA,NA,completion,10115.38,485610,485607.6,485624.26,495739.64,495741,2024-06-15T11:46:38Z,495756.32,NULL,Betrüger,mdanganyifu,d,NA,NA,NA,NA,qt,NA,3,NA,NA,NA,NA,NA,NA,NA,NA,NA,NA,NA,NA,NA,NA,NA,NA,NA,NA,NA
f14c4,shallow,flow.Sequence,3_0_3_0_6_1,NA,NA,skipped,NA,495741,NA,NA,495739.64,495742,2024-06-15T11:46:38Z,495756.32,NULL,Betrüger,mdanganyifu,d,NA,NA,NA,NA,qt,NA,3,NA,NA,NA,NA,NA,NA,NA,NA,NA,NA,NA,NA,NA,NA,NA,NA,NA,NA,NA
f14c4,task,flow.Sequence,3_0_3_0_6,NA,NA,completion,10115.38,485610,485607.6,485624.26,495739.64,495742,2024-06-15T11:46:38Z,495756.32,NULL,Betrüger,mdanganyifu,d,NA,NA,NA,NA,qt,NA,3,NA,NA,NA,NA,NA,NA,NA,NA,NA,NA,NA,NA,NA,NA,NA,NA,NA,NA,NA
f14c4,Deep Question,html.Page,3_0_3_0_7_0_0,NA,NA,form submission,4377.68,495743,495739.64,495756.32,500134,500135,2024-06-15T11:46:42Z,500133.04,NULL,Ergänzung,kijalizo,d,NA,NA,NA,kijalizo,NA,NA,3,NA,NA,NA,NA,NA,NA,NA,NA,NA,NA,NA,NA,NA,NA,NA,NA,NA,NA,NA
f14c4,"""Richtig""-Screen",canvas.Screen,3_0_3_0_7_0_1,NA,NA,timeout,4993.2,500137,500132.52,500133.04,505109.56,505112,2024-06-15T11:46:47Z,505126.24,NULL,Ergänzung,kijalizo,d,NA,NA,NA,NA,qt,1,3,NA,NA,NA,NA,NA,NA,NA,NA,NA,NA,NA,NA,NA,NA,NA,NA,NA,NA,NA
f14c4,"""Falsch""-Screen",canvas.Screen,3_0_3_0_7_0_2,NA,NA,skipped,NA,505115,NA,NA,505109.56,505115,2024-06-15T11:46:47Z,505126.24,NULL,Ergänzung,kijalizo,d,NA,NA,NA,NA,qt,NA,3,NA,NA,NA,NA,NA,NA,NA,NA,NA,NA,NA,NA,NA,NA,NA,NA,NA,NA,NA
f14c4,deep,flow.Sequence,3_0_3_0_7_0,NA,NA,completion,9353.24,495742,495739.64,495756.32,505109.56,505116,2024-06-15T11:46:47Z,505126.24,NULL,Ergänzung,kijalizo,d,NA,NA,NA,NA,qt,NA,3,NA,NA,NA,NA,NA,NA,NA,NA,NA,NA,NA,NA,NA,NA,NA,NA,NA,NA,NA
f14c4,shallow,flow.Sequence,3_0_3_0_7_1,NA,NA,skipped,NA,505116,NA,NA,505109.56,505116,2024-06-15T11:46:47Z,505126.24,NULL,Ergänzung,kijalizo,d,NA,NA,NA,NA,qt,NA,3,NA,NA,NA,NA,NA,NA,NA,NA,NA,NA,NA,NA,NA,NA,NA,NA,NA,NA,NA
f14c4,task,flow.Sequence,3_0_3_0_7,NA,NA,completion,9353.24,495742,495739.64,495756.32,505109.56,505116,2024-06-15T11:46:47Z,505126.24,NULL,Ergänzung,kijalizo,d,NA,NA,NA,NA,qt,NA,3,NA,NA,NA,NA,NA,NA,NA,NA,NA,NA,NA,NA,NA,NA,NA,NA,NA,NA,NA
f14c4,block,flow.Loop,3_0_3_0,NA,NA,completion,85473.72,419635,419635.28,419635.84,505109.56,505117,2024-06-15T11:46:47Z,505126.24,NULL,NA,NA,NA,NA,NA,NA,NA,qt,NA,3,NA,NA,NA,NA,NA,NA,NA,NA,NA,NA,NA,NA,NA,NA,NA,NA,NA,NA,NA
f14c4,weiter,canvas.Screen,3_0_3_1,sdf,keypress(Space),response,818.76000000001,505117,505109.56,505126.24,505945,505965,2024-06-15T11:46:48Z,506026.34,NULL,NA,NA,NA,NA,NA,NA,NA,qt,NA,3,NA,NA,NA,NA,NA,NA,NA,NA,NA,NA,NA,NA,NA,NA,NA,NA,NA,NA,NA
f14c4,check continue,flow.Sequence,3_0_3,NA,NA,completion,86309.16,419635,419635.28,419635.84,505945,505965,2024-06-15T11:46:48Z,506026.34,NULL,NA,NA,NA,NA,NA,NA,NA,qt,NA,3,NA,NA,NA,NA,NA,NA,NA,NA,NA,NA,NA,NA,NA,NA,NA,NA,NA,NA,NA
f14c4,deep,flow.Sequence,3_0_4_0_0_0,NA,NA,skipped,NA,506025,NA,NA,505945,506025,2024-06-15T11:46:48Z,506026.34,NULL,Orientierung,urekebisho,s,uelekeo,marekebisho,utunzaji,NA,sd,NA,4,NA,NA,NA,NA,NA,NA,NA,NA,NA,NA,NA,NA,NA,NA,NA,NA,NA,NA,NA
f14c4,Shallow Question,html.Page,3_0_4_0_0_1_0,NA,NA,form submission,10781.66,506025,506025.68,506026.34,516808,516809,2024-06-15T11:46:59Z,516809.68,NULL,Orientierung,urekebisho,s,uelekeo,marekebisho,utunzaji,urekebisho,NA,NA,4,NA,NA,NA,NA,NA,NA,NA,NA,NA,NA,NA,NA,NA,NA,NA,NA,NA,NA,NA
f14c4,"""Richtig""-Screen",canvas.Screen,3_0_4_0_0_1_1,NA,NA,timeout,5001.14,516810,516806.26,516809.68,521794.14,521795,2024-06-15T11:47:04Z,521810.82,NULL,Orientierung,urekebisho,s,uelekeo,marekebisho,utunzaji,NA,sd,1,4,NA,NA,NA,NA,NA,NA,NA,NA,NA,NA,NA,NA,NA,NA,NA,NA,NA,NA,NA
f14c4,"""Falsch""-Screen",canvas.Screen,3_0_4_0_0_1_2,NA,NA,skipped,NA,521797,NA,NA,521794.14,521797,2024-06-15T11:47:04Z,521810.82,NULL,Orientierung,urekebisho,s,uelekeo,marekebisho,utunzaji,NA,sd,NA,4,NA,NA,NA,NA,NA,NA,NA,NA,NA,NA,NA,NA,NA,NA,NA,NA,NA,NA,NA
f14c4,shallow,flow.Sequence,3_0_4_0_0_1,NA,NA,completion,15767.8,506025,506025.68,506026.34,521794.14,521798,2024-06-15T11:47:04Z,521810.82,NULL,Orientierung,urekebisho,s,uelekeo,marekebisho,utunzaji,NA,sd,NA,4,NA,NA,NA,NA,NA,NA,NA,NA,NA,NA,NA,NA,NA,NA,NA,NA,NA,NA,NA
f14c4,task,flow.Sequence,3_0_4_0_0,NA,NA,completion,15767.8,506025,506025.68,506026.34,521794.14,521798,2024-06-15T11:47:04Z,521810.82,NULL,Orientierung,urekebisho,s,uelekeo,marekebisho,utunzaji,NA,sd,NA,4,NA,NA,NA,NA,NA,NA,NA,NA,NA,NA,NA,NA,NA,NA,NA,NA,NA,NA,NA
f14c4,Deep Question,html.Page,3_0_4_0_1_0_0,NA,NA,form submission,21520.18,521798,521794.14,521810.82,543331,543333,2024-06-15T11:47:25Z,543346.36,NULL,Stimmung,kinyongo,d,NA,NA,NA,uijalizo,NA,NA,4,NA,NA,NA,NA,NA,NA,NA,NA,NA,NA,NA,NA,NA,NA,NA,NA,NA,NA,NA
f14c4,"""Richtig""-Screen",canvas.Screen,3_0_4_0_1_0_1,NA,NA,skipped,NA,543343,NA,NA,543331,543343,2024-06-15T11:47:25Z,543346.36,NULL,Stimmung,kinyongo,d,NA,NA,NA,NA,sd,NA,4,NA,NA,NA,NA,NA,NA,NA,NA,NA,NA,NA,NA,NA,NA,NA,NA,NA,NA,NA
f14c4,"""Falsch""-Screen",canvas.Screen,3_0_4_0_1_0_2,NA,NA,timeout,5007.42,543346,543329.5,543346.36,548337.1,548341,2024-06-15T11:47:30Z,548353.78,NULL,Stimmung,kinyongo,d,NA,NA,NA,NA,sd,0,4,NA,NA,NA,NA,NA,NA,NA,NA,NA,NA,NA,NA,NA,NA,NA,NA,NA,NA,NA
f14c4,deep,flow.Sequence,3_0_4_0_1_0,NA,NA,completion,26526.28,521798,521794.14,521810.82,548337.1,548343,2024-06-15T11:47:30Z,548353.78,NULL,Stimmung,kinyongo,d,NA,NA,NA,NA,sd,NA,4,NA,NA,NA,NA,NA,NA,NA,NA,NA,NA,NA,NA,NA,NA,NA,NA,NA,NA,NA
f14c4,shallow,flow.Sequence,3_0_4_0_1_1,NA,NA,skipped,NA,548343,NA,NA,548337.1,548344,2024-06-15T11:47:30Z,548353.78,NULL,Stimmung,kinyongo,d,NA,NA,NA,NA,sd,NA,4,NA,NA,NA,NA,NA,NA,NA,NA,NA,NA,NA,NA,NA,NA,NA,NA,NA,NA,NA
f14c4,task,flow.Sequence,3_0_4_0_1,NA,NA,completion,26526.28,521798,521794.14,521810.82,548337.1,548344,2024-06-15T11:47:30Z,548353.78,NULL,Stimmung,kinyongo,d,NA,NA,NA,NA,sd,NA,4,NA,NA,NA,NA,NA,NA,NA,NA,NA,NA,NA,NA,NA,NA,NA,NA,NA,NA,NA
f14c4,deep,flow.Sequence,3_0_4_0_2_0,NA,NA,skipped,NA,548344,NA,NA,548337.1,548345,2024-06-15T11:47:30Z,548353.78,NULL,Respekt,heshima,s,changamnao,upinzani,ufanisi,NA,sd,NA,4,NA,NA,NA,NA,NA,NA,NA,NA,NA,NA,NA,NA,NA,NA,NA,NA,NA,NA,NA
f14c4,Shallow Question,html.Page,3_0_4_0_2_1_0,NA,NA,form submission,2416.22,548345,548337.1,548353.78,550770,550770,2024-06-15T11:47:33Z,550778.62,NULL,Respekt,heshima,s,changamnao,upinzani,ufanisi,heshima,NA,NA,4,NA,NA,NA,NA,NA,NA,NA,NA,NA,NA,NA,NA,NA,NA,NA,NA,NA,NA,NA
f14c4,"""Richtig""-Screen",canvas.Screen,3_0_4_0_2_1_1,NA,NA,timeout,4994.92,550775,550766.52,550778.62,555756.88,555759,2024-06-15T11:47:38Z,555773.54,NULL,Respekt,heshima,s,changamnao,upinzani,ufanisi,NA,sd,1,4,NA,NA,NA,NA,NA,NA,NA,NA,NA,NA,NA,NA,NA,NA,NA,NA,NA,NA,NA
f14c4,"""Falsch""-Screen",canvas.Screen,3_0_4_0_2_1_2,NA,NA,skipped,NA,555764,NA,NA,555756.88,555764,2024-06-15T11:47:38Z,555773.54,NULL,Respekt,heshima,s,changamnao,upinzani,ufanisi,NA,sd,NA,4,NA,NA,NA,NA,NA,NA,NA,NA,NA,NA,NA,NA,NA,NA,NA,NA,NA,NA,NA
f14c4,shallow,flow.Sequence,3_0_4_0_2_1,NA,NA,completion,7403.1,548345,548337.1,548353.78,555756.88,555765,2024-06-15T11:47:38Z,555773.54,NULL,Respekt,heshima,s,changamnao,upinzani,ufanisi,NA,sd,NA,4,NA,NA,NA,NA,NA,NA,NA,NA,NA,NA,NA,NA,NA,NA,NA,NA,NA,NA,NA
f14c4,task,flow.Sequence,3_0_4_0_2,NA,NA,completion,7403.1,548344,548337.1,548353.78,555756.88,555765,2024-06-15T11:47:38Z,555773.54,NULL,Respekt,heshima,s,changamnao,upinzani,ufanisi,NA,sd,NA,4,NA,NA,NA,NA,NA,NA,NA,NA,NA,NA,NA,NA,NA,NA,NA,NA,NA,NA,NA
f14c4,deep,flow.Sequence,3_0_4_0_3_0,NA,NA,skipped,NA,555765,NA,NA,555756.88,555765,2024-06-15T11:47:38Z,555773.54,NULL,Vergnügen,kichekesho,s,dubwana,mpanuko,mtesaji,NA,sd,NA,4,NA,NA,NA,NA,NA,NA,NA,NA,NA,NA,NA,NA,NA,NA,NA,NA,NA,NA,NA
f14c4,Shallow Question,html.Page,3_0_4_0_3_1_0,NA,NA,form submission,5137.46,555766,555756.88,555773.54,560911,560911,2024-06-15T11:47:43Z,560922.04,NULL,Vergnügen,kichekesho,s,dubwana,mpanuko,mtesaji,kichekesho,NA,NA,4,NA,NA,NA,NA,NA,NA,NA,NA,NA,NA,NA,NA,NA,NA,NA,NA,NA,NA,NA
f14c4,"""Richtig""-Screen",canvas.Screen,3_0_4_0_3_1_1,NA,NA,timeout,4997.8199999999,560913,560907.2,560922.04,565903.2,565904,2024-06-15T11:47:48Z,565919.86,NULL,Vergnügen,kichekesho,s,dubwana,mpanuko,mtesaji,NA,sd,1,4,NA,NA,NA,NA,NA,NA,NA,NA,NA,NA,NA,NA,NA,NA,NA,NA,NA,NA,NA
f14c4,"""Falsch""-Screen",canvas.Screen,3_0_4_0_3_1_2,NA,NA,skipped,NA,565906,NA,NA,565903.2,565906,2024-06-15T11:47:48Z,565919.86,NULL,Vergnügen,kichekesho,s,dubwana,mpanuko,mtesaji,NA,sd,NA,4,NA,NA,NA,NA,NA,NA,NA,NA,NA,NA,NA,NA,NA,NA,NA,NA,NA,NA,NA
f14c4,shallow,flow.Sequence,3_0_4_0_3_1,NA,NA,completion,10129.66,555766,555756.88,555773.54,565903.2,565906,2024-06-15T11:47:48Z,565919.86,NULL,Vergnügen,kichekesho,s,dubwana,mpanuko,mtesaji,NA,sd,NA,4,NA,NA,NA,NA,NA,NA,NA,NA,NA,NA,NA,NA,NA,NA,NA,NA,NA,NA,NA
f14c4,task,flow.Sequence,3_0_4_0_3,NA,NA,completion,10129.66,555765,555756.88,555773.54,565903.2,565907,2024-06-15T11:47:48Z,565919.86,NULL,Vergnügen,kichekesho,s,dubwana,mpanuko,mtesaji,NA,sd,NA,4,NA,NA,NA,NA,NA,NA,NA,NA,NA,NA,NA,NA,NA,NA,NA,NA,NA,NA,NA
f14c4,Deep Question,html.Page,3_0_4_0_4_0_0,NA,NA,form submission,8574.14,565907,565903.2,565919.86,574494,574495,2024-06-15T11:47:57Z,574500.76,NULL,Wohlstand,mafanikio,d,NA,NA,NA,kuijalizo,NA,NA,4,NA,NA,NA,NA,NA,NA,NA,NA,NA,NA,NA,NA,NA,NA,NA,NA,NA,NA,NA
f14c4,"""Richtig""-Screen",canvas.Screen,3_0_4_0_4_0_1,NA,NA,skipped,NA,574497,NA,NA,574494,574497,2024-06-15T11:47:57Z,574500.76,NULL,Wohlstand,mafanikio,d,NA,NA,NA,NA,sd,NA,4,NA,NA,NA,NA,NA,NA,NA,NA,NA,NA,NA,NA,NA,NA,NA,NA,NA,NA,NA
f14c4,"""Falsch""-Screen",canvas.Screen,3_0_4_0_4_0_2,NA,NA,timeout,4993.22,574500,574492.84,574500.76,579477.32,579479,2024-06-15T11:48:01Z,579493.98,NULL,Wohlstand,mafanikio,d,NA,NA,NA,NA,sd,0,4,NA,NA,NA,NA,NA,NA,NA,NA,NA,NA,NA,NA,NA,NA,NA,NA,NA,NA,NA
f14c4,deep,flow.Sequence,3_0_4_0_4_0,NA,NA,completion,13557.46,565907,565903.2,565919.86,579477.32,579480,2024-06-15T11:48:01Z,579493.98,NULL,Wohlstand,mafanikio,d,NA,NA,NA,NA,sd,NA,4,NA,NA,NA,NA,NA,NA,NA,NA,NA,NA,NA,NA,NA,NA,NA,NA,NA,NA,NA
f14c4,shallow,flow.Sequence,3_0_4_0_4_1,NA,NA,skipped,NA,579480,NA,NA,579477.32,579480,2024-06-15T11:48:01Z,579493.98,NULL,Wohlstand,mafanikio,d,NA,NA,NA,NA,sd,NA,4,NA,NA,NA,NA,NA,NA,NA,NA,NA,NA,NA,NA,NA,NA,NA,NA,NA,NA,NA
f14c4,task,flow.Sequence,3_0_4_0_4,NA,NA,completion,13557.46,565907,565903.2,565919.86,579477.32,579480,2024-06-15T11:48:01Z,579493.98,NULL,Wohlstand,mafanikio,d,NA,NA,NA,NA,sd,NA,4,NA,NA,NA,NA,NA,NA,NA,NA,NA,NA,NA,NA,NA,NA,NA,NA,NA,NA,NA
f14c4,Deep Question,html.Page,3_0_4_0_5_0_0,NA,NA,form submission,3543.02,579481,579477.32,579493.98,583037,583037,2024-06-15T11:48:05Z,583036.34,NULL,Ergänzung,kijalizo,d,NA,NA,NA,kijalizo,NA,NA,4,NA,NA,NA,NA,NA,NA,NA,NA,NA,NA,NA,NA,NA,NA,NA,NA,NA,NA,NA
f14c4,"""Richtig""-Screen",canvas.Screen,3_0_4_0_5_0_1,NA,NA,timeout,5001.8400000001,583040,583035.86,583036.34,588021.5,588023,2024-06-15T11:48:10Z,588038.18,NULL,Ergänzung,kijalizo,d,NA,NA,NA,NA,sd,1,4,NA,NA,NA,NA,NA,NA,NA,NA,NA,NA,NA,NA,NA,NA,NA,NA,NA,NA,NA
f14c4,"""Falsch""-Screen",canvas.Screen,3_0_4_0_5_0_2,NA,NA,skipped,NA,588026,NA,NA,588021.5,588026,2024-06-15T11:48:10Z,588038.18,NULL,Ergänzung,kijalizo,d,NA,NA,NA,NA,sd,NA,4,NA,NA,NA,NA,NA,NA,NA,NA,NA,NA,NA,NA,NA,NA,NA,NA,NA,NA,NA
f14c4,deep,flow.Sequence,3_0_4_0_5_0,NA,NA,completion,8527.52,579481,579477.32,579493.98,588021.5,588027,2024-06-15T11:48:10Z,588038.18,NULL,Ergänzung,kijalizo,d,NA,NA,NA,NA,sd,NA,4,NA,NA,NA,NA,NA,NA,NA,NA,NA,NA,NA,NA,NA,NA,NA,NA,NA,NA,NA
f14c4,shallow,flow.Sequence,3_0_4_0_5_1,NA,NA,skipped,NA,588027,NA,NA,588021.5,588027,2024-06-15T11:48:10Z,588038.18,NULL,Ergänzung,kijalizo,d,NA,NA,NA,NA,sd,NA,4,NA,NA,NA,NA,NA,NA,NA,NA,NA,NA,NA,NA,NA,NA,NA,NA,NA,NA,NA
f14c4,task,flow.Sequence,3_0_4_0_5,NA,NA,completion,8527.52,579480,579477.32,579493.98,588021.5,588027,2024-06-15T11:48:10Z,588038.18,NULL,Ergänzung,kijalizo,d,NA,NA,NA,NA,sd,NA,4,NA,NA,NA,NA,NA,NA,NA,NA,NA,NA,NA,NA,NA,NA,NA,NA,NA,NA,NA
f14c4,Deep Question,html.Page,3_0_4_0_6_0_0,NA,NA,form submission,5879.8199999999,588027,588021.5,588038.18,593918,593918,2024-06-15T11:48:16Z,593917.2,NULL,Betrüger,mdanganyifu,d,NA,NA,NA,kijalizo,NA,NA,4,NA,NA,NA,NA,NA,NA,NA,NA,NA,NA,NA,NA,NA,NA,NA,NA,NA,NA,NA
f14c4,"""Richtig""-Screen",canvas.Screen,3_0_4_0_6_0_1,NA,NA,skipped,NA,593921,NA,NA,593918,593921,2024-06-15T11:48:16Z,593917.2,NULL,Betrüger,mdanganyifu,d,NA,NA,NA,NA,sd,NA,4,NA,NA,NA,NA,NA,NA,NA,NA,NA,NA,NA,NA,NA,NA,NA,NA,NA,NA,NA
f14c4,"""Falsch""-Screen",canvas.Screen,3_0_4_0_6_0_2,NA,NA,timeout,4999.52,593924,593916.4,593917.2,598900.04,598901,2024-06-15T11:48:21Z,598916.72,NULL,Betrüger,mdanganyifu,d,NA,NA,NA,NA,sd,0,4,NA,NA,NA,NA,NA,NA,NA,NA,NA,NA,NA,NA,NA,NA,NA,NA,NA,NA,NA
f14c4,deep,flow.Sequence,3_0_4_0_6_0,NA,NA,completion,10861.86,588027,588021.5,588038.18,598900.04,598903,2024-06-15T11:48:21Z,598916.72,NULL,Betrüger,mdanganyifu,d,NA,NA,NA,NA,sd,NA,4,NA,NA,NA,NA,NA,NA,NA,NA,NA,NA,NA,NA,NA,NA,NA,NA,NA,NA,NA
f14c4,shallow,flow.Sequence,3_0_4_0_6_1,NA,NA,skipped,NA,598903,NA,NA,598900.04,598903,2024-06-15T11:48:21Z,598916.72,NULL,Betrüger,mdanganyifu,d,NA,NA,NA,NA,sd,NA,4,NA,NA,NA,NA,NA,NA,NA,NA,NA,NA,NA,NA,NA,NA,NA,NA,NA,NA,NA
f14c4,task,flow.Sequence,3_0_4_0_6,NA,NA,completion,10861.86,588027,588021.5,588038.18,598900.04,598903,2024-06-15T11:48:21Z,598916.72,NULL,Betrüger,mdanganyifu,d,NA,NA,NA,NA,sd,NA,4,NA,NA,NA,NA,NA,NA,NA,NA,NA,NA,NA,NA,NA,NA,NA,NA,NA,NA,NA
f14c4,deep,flow.Sequence,3_0_4_0_7_0,NA,NA,skipped,NA,598904,NA,NA,598900.04,598904,2024-06-15T11:48:21Z,598916.72,NULL,Notfall,dharura,s,rairai,malalamiko,ahueni,NA,sd,NA,4,NA,NA,NA,NA,NA,NA,NA,NA,NA,NA,NA,NA,NA,NA,NA,NA,NA,NA,NA
f14c4,Shallow Question,html.Page,3_0_4_0_7_1_0,NA,NA,form submission,3577.28,598904,598900.04,598916.72,602494,602497,2024-06-15T11:48:25Z,602503.68,NULL,Notfall,dharura,s,rairai,malalamiko,ahueni,dharura,NA,NA,4,NA,NA,NA,NA,NA,NA,NA,NA,NA,NA,NA,NA,NA,NA,NA,NA,NA,NA,NA
f14c4,"""Richtig""-Screen",canvas.Screen,3_0_4_0_7_1_1,NA,NA,timeout,5002.9199999999,602506,602487.12,602503.68,607489.92,607493,2024-06-15T11:48:30Z,607506.6,NULL,Notfall,dharura,s,rairai,malalamiko,ahueni,NA,sd,1,4,NA,NA,NA,NA,NA,NA,NA,NA,NA,NA,NA,NA,NA,NA,NA,NA,NA,NA,NA
f14c4,"""Falsch""-Screen",canvas.Screen,3_0_4_0_7_1_2,NA,NA,skipped,NA,607497,NA,NA,607489.92,607497,2024-06-15T11:48:30Z,607506.6,NULL,Notfall,dharura,s,rairai,malalamiko,ahueni,NA,sd,NA,4,NA,NA,NA,NA,NA,NA,NA,NA,NA,NA,NA,NA,NA,NA,NA,NA,NA,NA,NA
f14c4,shallow,flow.Sequence,3_0_4_0_7_1,NA,NA,completion,8573.2000000001,598904,598900.04,598916.72,607489.92,607498,2024-06-15T11:48:30Z,607506.6,NULL,Notfall,dharura,s,rairai,malalamiko,ahueni,NA,sd,NA,4,NA,NA,NA,NA,NA,NA,NA,NA,NA,NA,NA,NA,NA,NA,NA,NA,NA,NA,NA
f14c4,task,flow.Sequence,3_0_4_0_7,NA,NA,completion,8573.2000000001,598904,598900.04,598916.72,607489.92,607498,2024-06-15T11:48:30Z,607506.6,NULL,Notfall,dharura,s,rairai,malalamiko,ahueni,NA,sd,NA,4,NA,NA,NA,NA,NA,NA,NA,NA,NA,NA,NA,NA,NA,NA,NA,NA,NA,NA,NA
f14c4,block,flow.Loop,3_0_4_0,NA,NA,completion,101463.58,506025,506025.68,506026.34,607489.92,607499,2024-06-15T11:48:30Z,607506.6,NULL,NA,NA,NA,NA,NA,NA,NA,sd,NA,4,NA,NA,NA,NA,NA,NA,NA,NA,NA,NA,NA,NA,NA,NA,NA,NA,NA,NA,NA
f14c4,weiter,canvas.Screen,3_0_4_1,sdf,keypress(Space),response,908.40000000002,607499,607489.92,607506.6,608415,608429,2024-06-15T11:48:30Z,608984.12,NULL,NA,NA,NA,NA,NA,NA,NA,sd,NA,4,NA,NA,NA,NA,NA,NA,NA,NA,NA,NA,NA,NA,NA,NA,NA,NA,NA,NA,NA
f14c4,check continue,flow.Sequence,3_0_4,NA,NA,completion,102388.66,506025,506025.68,506026.34,608415,608430,2024-06-15T11:48:30Z,608984.12,NULL,NA,NA,NA,NA,NA,NA,NA,sd,NA,4,NA,NA,NA,NA,NA,NA,NA,NA,NA,NA,NA,NA,NA,NA,NA,NA,NA,NA,NA
f14c4,check continue,flow.Sequence,3_0_5,NA,NA,skipped,NA,608480,NA,NA,608415,608480,2024-06-15T11:48:30Z,608984.12,NULL,NA,NA,NA,NA,NA,NA,NA,sdf,NA,5,NA,NA,NA,NA,NA,NA,NA,NA,NA,NA,NA,NA,NA,NA,NA,NA,NA,NA,NA
f14c4,check continue,flow.Sequence,3_0_6,NA,NA,skipped,NA,608504,NA,NA,608415,608504,2024-06-15T11:48:31Z,608984.12,NULL,NA,NA,NA,NA,NA,NA,NA,dfs,NA,6,NA,NA,NA,NA,NA,NA,NA,NA,NA,NA,NA,NA,NA,NA,NA,NA,NA,NA,NA
f14c4,check continue,flow.Sequence,3_0_7,NA,NA,skipped,NA,608531,NA,NA,608415,608531,2024-06-15T11:48:31Z,608984.12,NULL,NA,NA,NA,NA,NA,NA,NA,df,NA,7,NA,NA,NA,NA,NA,NA,NA,NA,NA,NA,NA,NA,NA,NA,NA,NA,NA,NA,NA
f14c4,check continue,flow.Sequence,3_0_8,NA,NA,skipped,NA,608555,NA,NA,608415,608555,2024-06-15T11:48:31Z,608984.12,NULL,NA,NA,NA,NA,NA,NA,NA,dfs,NA,8,NA,NA,NA,NA,NA,NA,NA,NA,NA,NA,NA,NA,NA,NA,NA,NA,NA,NA,NA
f14c4,check continue,flow.Sequence,3_0_9,NA,NA,skipped,NA,608580,NA,NA,608415,608580,2024-06-15T11:48:31Z,608984.12,NULL,NA,NA,NA,NA,NA,NA,NA,dsf,NA,9,NA,NA,NA,NA,NA,NA,NA,NA,NA,NA,NA,NA,NA,NA,NA,NA,NA,NA,NA
f14c4,check continue,flow.Sequence,3_0_10,NA,NA,skipped,NA,608600,NA,NA,608415,608600,2024-06-15T11:48:31Z,608984.12,NULL,NA,NA,NA,NA,NA,NA,NA,df,NA,10,NA,NA,NA,NA,NA,NA,NA,NA,NA,NA,NA,NA,NA,NA,NA,NA,NA,NA,NA
f14c4,check continue,flow.Sequence,3_0_11,NA,NA,skipped,NA,608619,NA,NA,608415,608619,2024-06-15T11:48:31Z,608984.12,NULL,NA,NA,NA,NA,NA,NA,NA,dfs,NA,11,NA,NA,NA,NA,NA,NA,NA,NA,NA,NA,NA,NA,NA,NA,NA,NA,NA,NA,NA
f14c4,check continue,flow.Sequence,3_0_12,NA,NA,skipped,NA,608639,NA,NA,608415,608640,2024-06-15T11:48:31Z,608984.12,NULL,NA,NA,NA,NA,NA,NA,NA,dsf,NA,12,NA,NA,NA,NA,NA,NA,NA,NA,NA,NA,NA,NA,NA,NA,NA,NA,NA,NA,NA
f14c4,check continue,flow.Sequence,3_0_13,NA,NA,skipped,NA,608673,NA,NA,608415,608674,2024-06-15T11:48:31Z,608984.12,NULL,NA,NA,NA,NA,NA,NA,NA,dsf,NA,13,NA,NA,NA,NA,NA,NA,NA,NA,NA,NA,NA,NA,NA,NA,NA,NA,NA,NA,NA
f14c4,check continue,flow.Sequence,3_0_14,NA,NA,skipped,NA,608690,NA,NA,608415,608690,2024-06-15T11:48:31Z,608984.12,NULL,NA,NA,NA,NA,NA,NA,NA,NA,NA,14,NA,NA,NA,NA,NA,NA,NA,NA,NA,NA,NA,NA,NA,NA,NA,NA,NA,NA,NA
f14c4,check continue,flow.Sequence,3_0_15,NA,NA,skipped,NA,608708,NA,NA,608415,608708,2024-06-15T11:48:31Z,608984.12,NULL,NA,NA,NA,NA,NA,NA,NA,NA,NA,15,NA,NA,NA,NA,NA,NA,NA,NA,NA,NA,NA,NA,NA,NA,NA,NA,NA,NA,NA
f14c4,check continue,flow.Sequence,3_0_16,NA,NA,skipped,NA,608730,NA,NA,608415,608730,2024-06-15T11:48:31Z,608984.12,NULL,NA,NA,NA,NA,NA,NA,NA,NA,NA,16,NA,NA,NA,NA,NA,NA,NA,NA,NA,NA,NA,NA,NA,NA,NA,NA,NA,NA,NA
f14c4,check continue,flow.Sequence,3_0_17,NA,NA,skipped,NA,608748,NA,NA,608415,608748,2024-06-15T11:48:31Z,608984.12,NULL,NA,NA,NA,NA,NA,NA,NA,NA,NA,17,NA,NA,NA,NA,NA,NA,NA,NA,NA,NA,NA,NA,NA,NA,NA,NA,NA,NA,NA
f14c4,check continue,flow.Sequence,3_0_18,NA,NA,skipped,NA,608765,NA,NA,608415,608766,2024-06-15T11:48:31Z,608984.12,NULL,NA,NA,NA,NA,NA,NA,NA,NA,NA,18,NA,NA,NA,NA,NA,NA,NA,NA,NA,NA,NA,NA,NA,NA,NA,NA,NA,NA,NA
f14c4,check continue,flow.Sequence,3_0_19,NA,NA,skipped,NA,608790,NA,NA,608415,608790,2024-06-15T11:48:31Z,608984.12,NULL,NA,NA,NA,NA,NA,NA,NA,NA,NA,19,NA,NA,NA,NA,NA,NA,NA,NA,NA,NA,NA,NA,NA,NA,NA,NA,NA,NA,NA
f14c4,check continue,flow.Sequence,3_0_20,NA,NA,skipped,NA,608808,NA,NA,608415,608808,2024-06-15T11:48:31Z,608984.12,NULL,NA,NA,NA,NA,NA,NA,NA,NA,NA,20,NA,NA,NA,NA,NA,NA,NA,NA,NA,NA,NA,NA,NA,NA,NA,NA,NA,NA,NA
f14c4,check continue,flow.Sequence,3_0_21,NA,NA,skipped,NA,608827,NA,NA,608415,608827,2024-06-15T11:48:31Z,608984.12,NULL,NA,NA,NA,NA,NA,NA,NA,NA,NA,21,NA,NA,NA,NA,NA,NA,NA,NA,NA,NA,NA,NA,NA,NA,NA,NA,NA,NA,NA
f14c4,check continue,flow.Sequence,3_0_22,NA,NA,skipped,NA,608848,NA,NA,608415,608848,2024-06-15T11:48:31Z,608984.12,NULL,NA,NA,NA,NA,NA,NA,NA,NA,NA,22,NA,NA,NA,NA,NA,NA,NA,NA,NA,NA,NA,NA,NA,NA,NA,NA,NA,NA,NA
f14c4,check continue,flow.Sequence,3_0_23,NA,NA,skipped,NA,608866,NA,NA,608415,608866,2024-06-15T11:48:31Z,608984.12,NULL,NA,NA,NA,NA,NA,NA,NA,NA,NA,23,NA,NA,NA,NA,NA,NA,NA,NA,NA,NA,NA,NA,NA,NA,NA,NA,NA,NA,NA
f14c4,check continue,flow.Sequence,3_0_24,NA,NA,skipped,NA,608887,NA,NA,608415,608887,2024-06-15T11:48:31Z,608984.12,NULL,NA,NA,NA,NA,NA,NA,NA,NA,NA,24,NA,NA,NA,NA,NA,NA,NA,NA,NA,NA,NA,NA,NA,NA,NA,NA,NA,NA,NA
f14c4,check continue,flow.Sequence,3_0_25,NA,NA,skipped,NA,608909,NA,NA,608415,608909,2024-06-15T11:48:31Z,608984.12,NULL,NA,NA,NA,NA,NA,NA,NA,NA,NA,25,NA,NA,NA,NA,NA,NA,NA,NA,NA,NA,NA,NA,NA,NA,NA,NA,NA,NA,NA
f14c4,check continue,flow.Sequence,3_0_26,NA,NA,skipped,NA,608926,NA,NA,608415,608926,2024-06-15T11:48:31Z,608984.12,NULL,NA,NA,NA,NA,NA,NA,NA,NA,NA,26,NA,NA,NA,NA,NA,NA,NA,NA,NA,NA,NA,NA,NA,NA,NA,NA,NA,NA,NA
f14c4,check continue,flow.Sequence,3_0_27,NA,NA,skipped,NA,608944,NA,NA,608415,608944,2024-06-15T11:48:31Z,608984.12,NULL,NA,NA,NA,NA,NA,NA,NA,NA,NA,27,NA,NA,NA,NA,NA,NA,NA,NA,NA,NA,NA,NA,NA,NA,NA,NA,NA,NA,NA
f14c4,check continue,flow.Sequence,3_0_28,NA,NA,skipped,NA,608964,NA,NA,608415,608964,2024-06-15T11:48:31Z,608984.12,NULL,NA,NA,NA,NA,NA,NA,NA,NA,NA,28,NA,NA,NA,NA,NA,NA,NA,NA,NA,NA,NA,NA,NA,NA,NA,NA,NA,NA,NA
f14c4,check continue,flow.Sequence,3_0_29,NA,NA,skipped,NA,608984,NA,NA,608415,608984,2024-06-15T11:48:31Z,608984.12,NULL,NA,NA,NA,NA,NA,NA,NA,NA,NA,29,NA,NA,NA,NA,NA,NA,NA,NA,NA,NA,NA,NA,NA,NA,NA,NA,NA,NA,NA
f14c4,until continue,flow.Loop,3_0,NA,NA,completion,476450.9,131947,131963.7,131964.1,608415,608984,2024-06-15T11:48:31Z,608984.12,NULL,NA,NA,NA,NA,NA,NA,NA,NA,NA,NA,NA,NA,NA,NA,NA,NA,NA,NA,NA,NA,NA,NA,NA,NA,NA,NA,NA,NA,NA
f14c4,block 1,flow.Sequence,3,NA,NA,completion,476450.9,131947,131963.7,131964.1,608415,608984,2024-06-15T11:48:31Z,608984.12,NULL,NA,NA,NA,NA,NA,NA,NA,NA,NA,NA,NA,NA,NA,NA,NA,NA,NA,NA,NA,NA,NA,NA,NA,NA,NA,NA,NA,NA,NA
f14c4,1.Part Over,canvas.Screen,4,NA,keypress(Space),response,2382.88,608984,608983.88,608984.12,611367,611392,2024-06-15T11:48:33Z,611425.62,NULL,NA,NA,NA,NA,NA,NA,NA,NA,NA,NA,NA,NA,NA,NA,NA,NA,NA,NA,NA,NA,NA,NA,NA,NA,NA,NA,NA,NA,NA
f14c4,deep,flow.Sequence,5_0_0_0_0_0,NA,NA,skipped,NA,611425,NA,NA,611367,611425,2024-06-15T11:48:33Z,611425.62,NULL,Schüler,mwanafunzi,s,mwekezaji,matumizi,uaminifu,NA,sdf,NA,0,NA,NA,NA,NA,NA,NA,NA,NA,NA,NA,NA,NA,NA,NA,NA,NA,NA,NA,NA
f14c4,Shallow Question,html.Page,5_0_0_0_0_1_0,NA,NA,form submission,10280.38,611425,611425.22,611425.62,621706,621706,2024-06-15T11:48:44Z,621706.32,NULL,Schüler,mwanafunzi,s,mwekezaji,matumizi,uaminifu,mwekezaji,NA,NA,0,NA,NA,NA,NA,NA,NA,NA,NA,NA,NA,NA,NA,NA,NA,NA,NA,NA,NA,NA
f14c4,"""Richtig""-Screen",canvas.Screen,5_0_0_0_0_1_1,NA,NA,skipped,NA,621708,NA,NA,621706,621708,2024-06-15T11:48:44Z,621706.32,NULL,Schüler,mwanafunzi,s,mwekezaji,matumizi,uaminifu,NA,sdf,NA,0,NA,NA,NA,NA,NA,NA,NA,NA,NA,NA,NA,NA,NA,NA,NA,NA,NA,NA,NA
f14c4,"""Falsch""-Screen",canvas.Screen,5_0_0_0_0_1_2,NA,NA,timeout,4997.5600000001,621711,621702.7,621706.32,626687.24,626688,2024-06-15T11:48:49Z,626703.88,NULL,Schüler,mwanafunzi,s,mwekezaji,matumizi,uaminifu,NA,sdf,0,0,NA,NA,NA,NA,NA,NA,NA,NA,NA,NA,NA,NA,NA,NA,NA,NA,NA,NA,NA
f14c4,shallow,flow.Sequence,5_0_0_0_0_1,NA,NA,completion,15261.62,611425,611425.22,611425.62,626687.24,626689,2024-06-15T11:48:49Z,626703.88,NULL,Schüler,mwanafunzi,s,mwekezaji,matumizi,uaminifu,NA,sdf,NA,0,NA,NA,NA,NA,NA,NA,NA,NA,NA,NA,NA,NA,NA,NA,NA,NA,NA,NA,NA
f14c4,task,flow.Sequence,5_0_0_0_0,NA,NA,completion,15261.62,611425,611425.22,611425.62,626687.24,626689,2024-06-15T11:48:49Z,626703.88,NULL,Schüler,mwanafunzi,s,mwekezaji,matumizi,uaminifu,NA,sdf,NA,0,NA,NA,NA,NA,NA,NA,NA,NA,NA,NA,NA,NA,NA,NA,NA,NA,NA,NA,NA
f14c4,deep,flow.Sequence,5_0_0_0_1_0,NA,NA,skipped,NA,626690,NA,NA,626687.24,626690,2024-06-15T11:48:49Z,626703.88,NULL,Tester,wanaojaribu,s,sherti,sihiri,mlipuko,NA,sdf,NA,0,NA,NA,NA,NA,NA,NA,NA,NA,NA,NA,NA,NA,NA,NA,NA,NA,NA,NA,NA
f14c4,Shallow Question,html.Page,5_0_0_0_1_1_0,NA,NA,form submission,10361.12,626690,626687.24,626703.88,637065,637065,2024-06-15T11:48:59Z,637070.62,NULL,Tester,wanaojaribu,s,sherti,sihiri,mlipuko,wanaojaribu,NA,NA,0,NA,NA,NA,NA,NA,NA,NA,NA,NA,NA,NA,NA,NA,NA,NA,NA,NA,NA,NA
f14c4,"""Richtig""-Screen",canvas.Screen,5_0_0_0_1_1_1,NA,NA,timeout,4999.16,637065,637062.06,637070.62,642053.12,642055,2024-06-15T11:49:04Z,642069.78,NULL,Tester,wanaojaribu,s,sherti,sihiri,mlipuko,NA,sdf,1,0,NA,NA,NA,NA,NA,NA,NA,NA,NA,NA,NA,NA,NA,NA,NA,NA,NA,NA,NA
f14c4,"""Falsch""-Screen",canvas.Screen,5_0_0_0_1_1_2,NA,NA,skipped,NA,642058,NA,NA,642053.12,642058,2024-06-15T11:49:04Z,642069.78,NULL,Tester,wanaojaribu,s,sherti,sihiri,mlipuko,NA,sdf,NA,0,NA,NA,NA,NA,NA,NA,NA,NA,NA,NA,NA,NA,NA,NA,NA,NA,NA,NA,NA
f14c4,shallow,flow.Sequence,5_0_0_0_1_1,NA,NA,completion,15349.24,626690,626687.24,626703.88,642053.12,642058,2024-06-15T11:49:04Z,642069.78,NULL,Tester,wanaojaribu,s,sherti,sihiri,mlipuko,NA,sdf,NA,0,NA,NA,NA,NA,NA,NA,NA,NA,NA,NA,NA,NA,NA,NA,NA,NA,NA,NA,NA
f14c4,task,flow.Sequence,5_0_0_0_1,NA,NA,completion,15349.24,626689,626687.24,626703.88,642053.12,642058,2024-06-15T11:49:04Z,642069.78,NULL,Tester,wanaojaribu,s,sherti,sihiri,mlipuko,NA,sdf,NA,0,NA,NA,NA,NA,NA,NA,NA,NA,NA,NA,NA,NA,NA,NA,NA,NA,NA,NA,NA
f14c4,Deep Question,html.Page,5_0_0_0_2_0_0,NA,NA,form submission,3397.22,642058,642053.12,642069.78,645467,645467,2024-06-15T11:49:07Z,645466.24,NULL,Fenster,dirisha,d,NA,NA,NA,fbgjkgw,NA,NA,0,NA,NA,NA,NA,NA,NA,NA,NA,NA,NA,NA,NA,NA,NA,NA,NA,NA,NA,NA
f14c4,"""Richtig""-Screen",canvas.Screen,5_0_0_0_2_0_1,NA,NA,skipped,NA,645469,NA,NA,645467,645470,2024-06-15T11:49:07Z,645466.24,NULL,Fenster,dirisha,d,NA,NA,NA,NA,sdf,NA,0,NA,NA,NA,NA,NA,NA,NA,NA,NA,NA,NA,NA,NA,NA,NA,NA,NA,NA,NA
f14c4,"""Falsch""-Screen",canvas.Screen,5_0_0_0_2_0_2,NA,NA,timeout,4997.8200000001,645472,645465.68,645466.24,650447.38,650449,2024-06-15T11:49:12Z,650464.06,NULL,Fenster,dirisha,d,NA,NA,NA,NA,sdf,0,0,NA,NA,NA,NA,NA,NA,NA,NA,NA,NA,NA,NA,NA,NA,NA,NA,NA,NA,NA
f14c4,deep,flow.Sequence,5_0_0_0_2_0,NA,NA,completion,8377.6,642058,642053.12,642069.78,650447.38,650449,2024-06-15T11:49:12Z,650464.06,NULL,Fenster,dirisha,d,NA,NA,NA,NA,sdf,NA,0,NA,NA,NA,NA,NA,NA,NA,NA,NA,NA,NA,NA,NA,NA,NA,NA,NA,NA,NA
f14c4,shallow,flow.Sequence,5_0_0_0_2_1,NA,NA,skipped,NA,650449,NA,NA,650447.38,650449,2024-06-15T11:49:12Z,650464.06,NULL,Fenster,dirisha,d,NA,NA,NA,NA,sdf,NA,0,NA,NA,NA,NA,NA,NA,NA,NA,NA,NA,NA,NA,NA,NA,NA,NA,NA,NA,NA
f14c4,task,flow.Sequence,5_0_0_0_2,NA,NA,completion,8377.6,642058,642053.12,642069.78,650447.38,650450,2024-06-15T11:49:12Z,650464.06,NULL,Fenster,dirisha,d,NA,NA,NA,NA,sdf,NA,0,NA,NA,NA,NA,NA,NA,NA,NA,NA,NA,NA,NA,NA,NA,NA,NA,NA,NA,NA
f14c4,deep,flow.Sequence,5_0_0_0_3_0,NA,NA,skipped,NA,650450,NA,NA,650447.38,650450,2024-06-15T11:49:12Z,650464.06,NULL,Niveau,kiwango,s,usimamizi,mwamali,mshairi,NA,sdf,NA,0,NA,NA,NA,NA,NA,NA,NA,NA,NA,NA,NA,NA,NA,NA,NA,NA,NA,NA,NA
f14c4,Shallow Question,html.Page,5_0_0_0_3_1_0,NA,NA,form submission,5802.9399999999,650450,650447.38,650464.06,656267,656268,2024-06-15T11:49:18Z,656266.24,NULL,Niveau,kiwango,s,usimamizi,mwamali,mshairi,kiwango,NA,NA,0,NA,NA,NA,NA,NA,NA,NA,NA,NA,NA,NA,NA,NA,NA,NA,NA,NA,NA,NA
f14c4,"""Richtig""-Screen",canvas.Screen,5_0_0_0_3_1_1,NA,NA,timeout,4996.26,656270,656263.96,656266.24,661245.86,661247,2024-06-15T11:49:23Z,661262.5,NULL,Niveau,kiwango,s,usimamizi,mwamali,mshairi,NA,sdf,1,0,NA,NA,NA,NA,NA,NA,NA,NA,NA,NA,NA,NA,NA,NA,NA,NA,NA,NA,NA
f14c4,"""Falsch""-Screen",canvas.Screen,5_0_0_0_3_1_2,NA,NA,skipped,NA,661250,NA,NA,661245.86,661250,2024-06-15T11:49:23Z,661262.5,NULL,Niveau,kiwango,s,usimamizi,mwamali,mshairi,NA,sdf,NA,0,NA,NA,NA,NA,NA,NA,NA,NA,NA,NA,NA,NA,NA,NA,NA,NA,NA,NA,NA
f14c4,shallow,flow.Sequence,5_0_0_0_3_1,NA,NA,completion,10781.8,650450,650447.38,650464.06,661245.86,661251,2024-06-15T11:49:23Z,661262.5,NULL,Niveau,kiwango,s,usimamizi,mwamali,mshairi,NA,sdf,NA,0,NA,NA,NA,NA,NA,NA,NA,NA,NA,NA,NA,NA,NA,NA,NA,NA,NA,NA,NA
f14c4,task,flow.Sequence,5_0_0_0_3,NA,NA,completion,10781.8,650450,650447.38,650464.06,661245.86,661251,2024-06-15T11:49:23Z,661262.5,NULL,Niveau,kiwango,s,usimamizi,mwamali,mshairi,NA,sdf,NA,0,NA,NA,NA,NA,NA,NA,NA,NA,NA,NA,NA,NA,NA,NA,NA,NA,NA,NA,NA
f14c4,Deep Question,html.Page,5_0_0_0_4_0_0,NA,NA,form submission,3906.5,661251,661245.86,661262.5,665169,665170,2024-06-15T11:49:27Z,665168.26,NULL,Spionage,upelelezi,d,NA,NA,NA,dirisha,NA,NA,0,NA,NA,NA,NA,NA,NA,NA,NA,NA,NA,NA,NA,NA,NA,NA,NA,NA,NA,NA
f14c4,"""Richtig""-Screen",canvas.Screen,5_0_0_0_4_0_1,NA,NA,skipped,NA,665172,NA,NA,665169,665172,2024-06-15T11:49:27Z,665168.26,NULL,Spionage,upelelezi,d,NA,NA,NA,NA,sdf,NA,0,NA,NA,NA,NA,NA,NA,NA,NA,NA,NA,NA,NA,NA,NA,NA,NA,NA,NA,NA
f14c4,"""Falsch""-Screen",canvas.Screen,5_0_0_0_4_0_2,NA,NA,timeout,4998.22,665174,665167.78,665168.26,670149.8,670155,2024-06-15T11:49:32Z,670166.48,NULL,Spionage,upelelezi,d,NA,NA,NA,NA,sdf,0,0,NA,NA,NA,NA,NA,NA,NA,NA,NA,NA,NA,NA,NA,NA,NA,NA,NA,NA,NA
f14c4,deep,flow.Sequence,5_0_0_0_4_0,NA,NA,completion,8887.3,661251,661245.86,661262.5,670149.8,670158,2024-06-15T11:49:32Z,670166.48,NULL,Spionage,upelelezi,d,NA,NA,NA,NA,sdf,NA,0,NA,NA,NA,NA,NA,NA,NA,NA,NA,NA,NA,NA,NA,NA,NA,NA,NA,NA,NA
f14c4,shallow,flow.Sequence,5_0_0_0_4_1,NA,NA,skipped,NA,670158,NA,NA,670149.8,670159,2024-06-15T11:49:32Z,670166.48,NULL,Spionage,upelelezi,d,NA,NA,NA,NA,sdf,NA,0,NA,NA,NA,NA,NA,NA,NA,NA,NA,NA,NA,NA,NA,NA,NA,NA,NA,NA,NA
f14c4,task,flow.Sequence,5_0_0_0_4,NA,NA,completion,8887.3,661251,661245.86,661262.5,670149.8,670159,2024-06-15T11:49:32Z,670166.48,NULL,Spionage,upelelezi,d,NA,NA,NA,NA,sdf,NA,0,NA,NA,NA,NA,NA,NA,NA,NA,NA,NA,NA,NA,NA,NA,NA,NA,NA,NA,NA
f14c4,Deep Question,html.Page,5_0_0_0_5_0_0,NA,NA,form submission,3218.52,670161,670149.8,670166.48,673385,673385,2024-06-15T11:49:35Z,673389.04,NULL,Entwicklung,maendeleo,d,NA,NA,NA,bhjjgfa,NA,NA,0,NA,NA,NA,NA,NA,NA,NA,NA,NA,NA,NA,NA,NA,NA,NA,NA,NA,NA,NA
f14c4,"""Richtig""-Screen",canvas.Screen,5_0_0_0_5_0_1,NA,NA,skipped,NA,673393,NA,NA,673385,673393,2024-06-15T11:49:35Z,673389.04,NULL,Entwicklung,maendeleo,d,NA,NA,NA,NA,sdf,NA,0,NA,NA,NA,NA,NA,NA,NA,NA,NA,NA,NA,NA,NA,NA,NA,NA,NA,NA,NA
f14c4,"""Falsch""-Screen",canvas.Screen,5_0_0_0_5_0_2,NA,NA,timeout,5006.52,673397,673382.98,673389.04,678378.88,678380,2024-06-15T11:49:40Z,678395.56,NULL,Entwicklung,maendeleo,d,NA,NA,NA,NA,sdf,0,0,NA,NA,NA,NA,NA,NA,NA,NA,NA,NA,NA,NA,NA,NA,NA,NA,NA,NA,NA
f14c4,deep,flow.Sequence,5_0_0_0_5_0,NA,NA,completion,8212.4,670161,670149.8,670166.48,678378.88,678381,2024-06-15T11:49:40Z,678395.56,NULL,Entwicklung,maendeleo,d,NA,NA,NA,NA,sdf,NA,0,NA,NA,NA,NA,NA,NA,NA,NA,NA,NA,NA,NA,NA,NA,NA,NA,NA,NA,NA
f14c4,shallow,flow.Sequence,5_0_0_0_5_1,NA,NA,skipped,NA,678382,NA,NA,678378.88,678382,2024-06-15T11:49:40Z,678395.56,NULL,Entwicklung,maendeleo,d,NA,NA,NA,NA,sdf,NA,0,NA,NA,NA,NA,NA,NA,NA,NA,NA,NA,NA,NA,NA,NA,NA,NA,NA,NA,NA
f14c4,task,flow.Sequence,5_0_0_0_5,NA,NA,completion,8212.4,670161,670149.8,670166.48,678378.88,678383,2024-06-15T11:49:40Z,678395.56,NULL,Entwicklung,maendeleo,d,NA,NA,NA,NA,sdf,NA,0,NA,NA,NA,NA,NA,NA,NA,NA,NA,NA,NA,NA,NA,NA,NA,NA,NA,NA,NA
f14c4,deep,flow.Sequence,5_0_0_0_6_0,NA,NA,skipped,NA,678384,NA,NA,678378.88,678384,2024-06-15T11:49:40Z,678395.56,NULL,Papier,karatasi,s,uchambuzi,usalama,kukataliwa,NA,sdf,NA,0,NA,NA,NA,NA,NA,NA,NA,NA,NA,NA,NA,NA,NA,NA,NA,NA,NA,NA,NA
f14c4,Shallow Question,html.Page,5_0_0_0_6_1_0,NA,NA,form submission,6654.4399999999,678385,678378.88,678395.56,685050,685050,2024-06-15T11:49:47Z,685058.88,NULL,Papier,karatasi,s,uchambuzi,usalama,kukataliwa,uchambuzi,NA,NA,0,NA,NA,NA,NA,NA,NA,NA,NA,NA,NA,NA,NA,NA,NA,NA,NA,NA,NA,NA
f14c4,"""Richtig""-Screen",canvas.Screen,5_0_0_0_6_1_1,NA,NA,skipped,NA,685052,NA,NA,685050,685052,2024-06-15T11:49:47Z,685058.88,NULL,Papier,karatasi,s,uchambuzi,usalama,kukataliwa,NA,sdf,NA,0,NA,NA,NA,NA,NA,NA,NA,NA,NA,NA,NA,NA,NA,NA,NA,NA,NA,NA,NA
f14c4,"""Falsch""-Screen",canvas.Screen,5_0_0_0_6_1_2,NA,NA,timeout,5006.92,685053,685047.34,685058.88,690049.12,690050,2024-06-15T11:49:52Z,690065.8,NULL,Papier,karatasi,s,uchambuzi,usalama,kukataliwa,NA,sdf,0,0,NA,NA,NA,NA,NA,NA,NA,NA,NA,NA,NA,NA,NA,NA,NA,NA,NA,NA,NA
f14c4,shallow,flow.Sequence,5_0_0_0_6_1,NA,NA,completion,11653.56,678385,678378.88,678395.56,690049.12,690050,2024-06-15T11:49:52Z,690065.8,NULL,Papier,karatasi,s,uchambuzi,usalama,kukataliwa,NA,sdf,NA,0,NA,NA,NA,NA,NA,NA,NA,NA,NA,NA,NA,NA,NA,NA,NA,NA,NA,NA,NA
f14c4,task,flow.Sequence,5_0_0_0_6,NA,NA,completion,11653.56,678384,678378.88,678395.56,690049.12,690050,2024-06-15T11:49:52Z,690065.8,NULL,Papier,karatasi,s,uchambuzi,usalama,kukataliwa,NA,sdf,NA,0,NA,NA,NA,NA,NA,NA,NA,NA,NA,NA,NA,NA,NA,NA,NA,NA,NA,NA,NA
f14c4,Deep Question,html.Page,5_0_0_0_7_0_0,NA,NA,form submission,3522.2,690050,690049.12,690065.8,693588,693588,2024-06-15T11:49:56Z,693603.02,NULL,Vorwurf,mashtaka,d,NA,NA,NA,dirisha,NA,NA,0,NA,NA,NA,NA,NA,NA,NA,NA,NA,NA,NA,NA,NA,NA,NA,NA,NA,NA,NA
f14c4,"""Richtig""-Screen",canvas.Screen,5_0_0_0_7_0_1,NA,NA,skipped,NA,693589,NA,NA,693588,693589,2024-06-15T11:49:56Z,693603.02,NULL,Vorwurf,mashtaka,d,NA,NA,NA,NA,sdf,NA,0,NA,NA,NA,NA,NA,NA,NA,NA,NA,NA,NA,NA,NA,NA,NA,NA,NA,NA,NA
f14c4,"""Falsch""-Screen",canvas.Screen,5_0_0_0_7_0_2,NA,NA,timeout,5001.58,693591,693586.72,693603.02,698577.44,698578,2024-06-15T11:50:01Z,698604.6,NULL,Vorwurf,mashtaka,d,NA,NA,NA,NA,sdf,0,0,NA,NA,NA,NA,NA,NA,NA,NA,NA,NA,NA,NA,NA,NA,NA,NA,NA,NA,NA
f14c4,deep,flow.Sequence,5_0_0_0_7_0,NA,NA,completion,8511.6399999999,690050,690049.12,690065.8,698577.44,698579,2024-06-15T11:50:01Z,698604.6,NULL,Vorwurf,mashtaka,d,NA,NA,NA,NA,sdf,NA,0,NA,NA,NA,NA,NA,NA,NA,NA,NA,NA,NA,NA,NA,NA,NA,NA,NA,NA,NA
f14c4,shallow,flow.Sequence,5_0_0_0_7_1,NA,NA,skipped,NA,698579,NA,NA,698577.44,698579,2024-06-15T11:50:01Z,698604.6,NULL,Vorwurf,mashtaka,d,NA,NA,NA,NA,sdf,NA,0,NA,NA,NA,NA,NA,NA,NA,NA,NA,NA,NA,NA,NA,NA,NA,NA,NA,NA,NA
f14c4,task,flow.Sequence,5_0_0_0_7,NA,NA,completion,8511.6399999999,690050,690049.12,690065.8,698577.44,698579,2024-06-15T11:50:01Z,698604.6,NULL,Vorwurf,mashtaka,d,NA,NA,NA,NA,sdf,NA,0,NA,NA,NA,NA,NA,NA,NA,NA,NA,NA,NA,NA,NA,NA,NA,NA,NA,NA,NA
f14c4,block,flow.Loop,5_0_0_0,NA,NA,completion,87151.82,611425,611425.22,611425.62,698577.44,698580,2024-06-15T11:50:01Z,698604.6,NULL,NA,NA,NA,NA,NA,NA,NA,sdf,NA,0,NA,NA,NA,NA,NA,NA,NA,NA,NA,NA,NA,NA,NA,NA,NA,NA,NA,NA,NA
f14c4,weiter,canvas.Screen,5_0_0_1,sdf,keypress(Space),response,1231.4,698580,698577.44,698604.6,699836,699844,2024-06-15T11:50:02Z,699910.3,NULL,NA,NA,NA,NA,NA,NA,NA,sdf,NA,0,NA,NA,NA,NA,NA,NA,NA,NA,NA,NA,NA,NA,NA,NA,NA,NA,NA,NA,NA
f14c4,check continue,flow.Sequence,5_0_0,NA,NA,completion,88410.38,611425,611425.22,611425.62,699836,699844,2024-06-15T11:50:02Z,699910.3,NULL,NA,NA,NA,NA,NA,NA,NA,sdf,NA,0,NA,NA,NA,NA,NA,NA,NA,NA,NA,NA,NA,NA,NA,NA,NA,NA,NA,NA,NA
f14c4,Deep Question,html.Page,5_0_1_0_0_0_0,NA,NA,form submission,8398.7,699909,699909.62,699910.3,708309,708309,2024-06-15T11:50:10Z,708313.62,NULL,Spionage,upelelezi,d,NA,NA,NA,dirisha,NA,NA,1,NA,NA,NA,NA,NA,NA,NA,NA,NA,NA,NA,NA,NA,NA,NA,NA,NA,NA,NA
f14c4,"""Richtig""-Screen",canvas.Screen,5_0_1_0_0_0_1,NA,NA,skipped,NA,708311,NA,NA,708309,708311,2024-06-15T11:50:10Z,708313.62,NULL,Spionage,upelelezi,d,NA,NA,NA,NA,sdfdsf,NA,1,NA,NA,NA,NA,NA,NA,NA,NA,NA,NA,NA,NA,NA,NA,NA,NA,NA,NA,NA
f14c4,"""Falsch""-Screen",canvas.Screen,5_0_1_0_0_0_2,NA,NA,timeout,5006.78,708314,708307.1,708313.62,713303.72,713305,2024-06-15T11:50:15Z,713320.4,NULL,Spionage,upelelezi,d,NA,NA,NA,NA,sdfdsf,0,1,NA,NA,NA,NA,NA,NA,NA,NA,NA,NA,NA,NA,NA,NA,NA,NA,NA,NA,NA
f14c4,deep,flow.Sequence,5_0_1_0_0_0,NA,NA,completion,13393.42,699909,699909.62,699910.3,713303.72,713306,2024-06-15T11:50:15Z,713320.4,NULL,Spionage,upelelezi,d,NA,NA,NA,NA,sdfdsf,NA,1,NA,NA,NA,NA,NA,NA,NA,NA,NA,NA,NA,NA,NA,NA,NA,NA,NA,NA,NA
f14c4,shallow,flow.Sequence,5_0_1_0_0_1,NA,NA,skipped,NA,713306,NA,NA,713303.72,713306,2024-06-15T11:50:15Z,713320.4,NULL,Spionage,upelelezi,d,NA,NA,NA,NA,sdfdsf,NA,1,NA,NA,NA,NA,NA,NA,NA,NA,NA,NA,NA,NA,NA,NA,NA,NA,NA,NA,NA
f14c4,task,flow.Sequence,5_0_1_0_0,NA,NA,completion,13393.42,699909,699909.62,699910.3,713303.72,713306,2024-06-15T11:50:15Z,713320.4,NULL,Spionage,upelelezi,d,NA,NA,NA,NA,sdfdsf,NA,1,NA,NA,NA,NA,NA,NA,NA,NA,NA,NA,NA,NA,NA,NA,NA,NA,NA,NA,NA
f14c4,Deep Question,html.Page,5_0_1_0_1_0_0,NA,NA,form submission,3954.6,713306,713303.72,713320.4,717275,717275,2024-06-15T11:50:19Z,717290.54,NULL,Entwicklung,maendeleo,d,NA,NA,NA,dirisha,NA,NA,1,NA,NA,NA,NA,NA,NA,NA,NA,NA,NA,NA,NA,NA,NA,NA,NA,NA,NA,NA
f14c4,"""Richtig""-Screen",canvas.Screen,5_0_1_0_1_0_1,NA,NA,skipped,NA,717278,NA,NA,717275,717279,2024-06-15T11:50:19Z,717290.54,NULL,Entwicklung,maendeleo,d,NA,NA,NA,NA,sdfdsf,NA,1,NA,NA,NA,NA,NA,NA,NA,NA,NA,NA,NA,NA,NA,NA,NA,NA,NA,NA,NA
f14c4,"""Falsch""-Screen",canvas.Screen,5_0_1_0_1_0_2,NA,NA,timeout,4997.08,717281,717273.76,717290.54,722270.94,722272,2024-06-15T11:50:24Z,722287.62,NULL,Entwicklung,maendeleo,d,NA,NA,NA,NA,sdfdsf,0,1,NA,NA,NA,NA,NA,NA,NA,NA,NA,NA,NA,NA,NA,NA,NA,NA,NA,NA,NA
f14c4,deep,flow.Sequence,5_0_1_0_1_0,NA,NA,completion,8950.5399999999,713306,713303.72,713320.4,722270.94,722273,2024-06-15T11:50:24Z,722287.62,NULL,Entwicklung,maendeleo,d,NA,NA,NA,NA,sdfdsf,NA,1,NA,NA,NA,NA,NA,NA,NA,NA,NA,NA,NA,NA,NA,NA,NA,NA,NA,NA,NA
f14c4,shallow,flow.Sequence,5_0_1_0_1_1,NA,NA,skipped,NA,722274,NA,NA,722270.94,722274,2024-06-15T11:50:24Z,722287.62,NULL,Entwicklung,maendeleo,d,NA,NA,NA,NA,sdfdsf,NA,1,NA,NA,NA,NA,NA,NA,NA,NA,NA,NA,NA,NA,NA,NA,NA,NA,NA,NA,NA
f14c4,task,flow.Sequence,5_0_1_0_1,NA,NA,completion,8950.5399999999,713306,713303.72,713320.4,722270.94,722274,2024-06-15T11:50:24Z,722287.62,NULL,Entwicklung,maendeleo,d,NA,NA,NA,NA,sdfdsf,NA,1,NA,NA,NA,NA,NA,NA,NA,NA,NA,NA,NA,NA,NA,NA,NA,NA,NA,NA,NA
f14c4,deep,flow.Sequence,5_0_1_0_2_0,NA,NA,skipped,NA,722274,NA,NA,722270.94,722274,2024-06-15T11:50:24Z,722287.62,NULL,Schüler,mwanafunzi,s,mwekezaji,matumizi,uaminifu,NA,sdfdsf,NA,1,NA,NA,NA,NA,NA,NA,NA,NA,NA,NA,NA,NA,NA,NA,NA,NA,NA,NA,NA
f14c4,Shallow Question,html.Page,5_0_1_0_2_1_0,NA,NA,form submission,6981.38,722274,722270.94,722287.62,729269,729271,2024-06-15T11:50:31Z,729281.38,NULL,Schüler,mwanafunzi,s,mwekezaji,matumizi,uaminifu,mwanafunzi,NA,NA,1,NA,NA,NA,NA,NA,NA,NA,NA,NA,NA,NA,NA,NA,NA,NA,NA,NA,NA,NA
f14c4,"""Richtig""-Screen",canvas.Screen,5_0_1_0_2_1_1,NA,NA,timeout,5003.96,729281,729261.86,729281.38,734268.66,734270,2024-06-15T11:50:36Z,734285.34,NULL,Schüler,mwanafunzi,s,mwekezaji,matumizi,uaminifu,NA,sdfdsf,1,1,NA,NA,NA,NA,NA,NA,NA,NA,NA,NA,NA,NA,NA,NA,NA,NA,NA,NA,NA
f14c4,"""Falsch""-Screen",canvas.Screen,5_0_1_0_2_1_2,NA,NA,skipped,NA,734276,NA,NA,734268.66,734277,2024-06-15T11:50:36Z,734285.34,NULL,Schüler,mwanafunzi,s,mwekezaji,matumizi,uaminifu,NA,sdfdsf,NA,1,NA,NA,NA,NA,NA,NA,NA,NA,NA,NA,NA,NA,NA,NA,NA,NA,NA,NA,NA
f14c4,shallow,flow.Sequence,5_0_1_0_2_1,NA,NA,completion,11981.04,722274,722270.94,722287.62,734268.66,734277,2024-06-15T11:50:36Z,734285.34,NULL,Schüler,mwanafunzi,s,mwekezaji,matumizi,uaminifu,NA,sdfdsf,NA,1,NA,NA,NA,NA,NA,NA,NA,NA,NA,NA,NA,NA,NA,NA,NA,NA,NA,NA,NA
f14c4,task,flow.Sequence,5_0_1_0_2,NA,NA,completion,11981.04,722274,722270.94,722287.62,734268.66,734277,2024-06-15T11:50:36Z,734285.34,NULL,Schüler,mwanafunzi,s,mwekezaji,matumizi,uaminifu,NA,sdfdsf,NA,1,NA,NA,NA,NA,NA,NA,NA,NA,NA,NA,NA,NA,NA,NA,NA,NA,NA,NA,NA
f14c4,Deep Question,html.Page,5_0_1_0_3_0_0,NA,NA,form submission,3556.66,734278,734268.66,734285.34,737842,737842,2024-06-15T11:50:40Z,737847.68,NULL,Vorwurf,mashtaka,d,NA,NA,NA,dirisha,NA,NA,1,NA,NA,NA,NA,NA,NA,NA,NA,NA,NA,NA,NA,NA,NA,NA,NA,NA,NA,NA
f14c4,"""Richtig""-Screen",canvas.Screen,5_0_1_0_3_0_1,NA,NA,skipped,NA,737845,NA,NA,737842,737846,2024-06-15T11:50:40Z,737847.68,NULL,Vorwurf,mashtaka,d,NA,NA,NA,NA,sdfdsf,NA,1,NA,NA,NA,NA,NA,NA,NA,NA,NA,NA,NA,NA,NA,NA,NA,NA,NA,NA,NA
f14c4,"""Falsch""-Screen",canvas.Screen,5_0_1_0_3_0_2,NA,NA,timeout,4996.5,737848,737839.78,737847.68,742827.52,742829,2024-06-15T11:50:45Z,742844.18,NULL,Vorwurf,mashtaka,d,NA,NA,NA,NA,sdfdsf,0,1,NA,NA,NA,NA,NA,NA,NA,NA,NA,NA,NA,NA,NA,NA,NA,NA,NA,NA,NA
