observation,sender,sender_type,sender_id,response,response_action,ended_on,duration,time_run,time_render,time_show,time_end,time_commit,timestamp,time_switch,german,swahili,enc,distractor1,distractor2,distractor3,response_2,x,correct,distractors,url_vp,url_sess,meta_labjs_version,meta_location,meta_user_agent,meta_platform,meta_language,meta_locale,meta_time_zone,meta_timezone_offset,meta_screen_width,meta_screen_height,meta_scroll_width,meta_scroll_height,meta_window_inner_width,meta_window_inner_height,meta_device_pixel_ratio,meta_labjs_build_flavor,meta_labjs_build_commit
1514d,Introduction delayed retrieval,canvas.Screen,0,weiter,keypress(Space),response,4774.5,868,869.82,886.5,5661,5662,2024-06-17T10:33:05Z,5663.3,NA,NA,NA,NA,NA,NA,NA,NA,NA,NULL,161,4,20.2.4,https://neurocog.fernuni.ch/studies/vweber/jbaenninger/delayed/index.html?vp=161&sess=4,Mozilla/5.0 (Windows NT 10.0; Win64; x64; rv:127.0) Gecko/20100101 Firefox/127.0,Win32,de,de-CH,Europe/Zurich,-120,1280,800,1280,591,1280,639,1.5,production,f5b4a49f956347addd546a832a3327688c2c0fef
1514d,Deep Question,html.Page,1_0_0_0,NA,NA,form submission,4396.7,5663,5663.02,5663.3,10060,10062,2024-06-17T10:33:10Z,10068.46,Schüler,mwanafunzi,s,mwekezaji,matumizi,uaminifu,fjhferj,NA,NA,NULL,NA,NA,NA,NA,NA,NA,NA,NA,NA,NA,NA,NA,NA,NA,NA,NA,NA,NA,NA
1514d,Save data screen,canvas.Screen,1_0_0_1,NA,NA,timeout,500.42,10067,10058.68,10068.46,10552.2,10553,2024-06-17T10:33:10Z,10568.88,Schüler,mwanafunzi,s,mwekezaji,matumizi,uaminifu,NA,NA,0,NULL,NA,NA,NA,NA,NA,NA,NA,NA,NA,NA,NA,NA,NA,NA,NA,NA,NA,NA,NA
1514d,deep,flow.Sequence,1_0_0,NA,NA,completion,4888.9,5663,5663.02,5663.3,10552.2,10554,2024-06-17T10:33:10Z,10568.88,Schüler,mwanafunzi,s,mwekezaji,matumizi,uaminifu,NA,NA,NA,NULL,NA,NA,NA,NA,NA,NA,NA,NA,NA,NA,NA,NA,NA,NA,NA,NA,NA,NA,NA
1514d,task,flow.Sequence,1_0,NA,NA,completion,4888.9,5663,5663.02,5663.3,10552.2,10554,2024-06-17T10:33:10Z,10568.88,Schüler,mwanafunzi,s,mwekezaji,matumizi,uaminifu,NA,NA,NA,NULL,NA,NA,NA,NA,NA,NA,NA,NA,NA,NA,NA,NA,NA,NA,NA,NA,NA,NA,NA
1514d,Deep Question,html.Page,1_1_0_0,NA,NA,form submission,3479.12,10555,10552.2,10568.88,14048,14049,2024-06-17T10:33:14Z,14054.84,Vergnügen,kichekesho,s,dubwana,mpanuko,mtesaji,gfwejrhgeuwr,NA,NA,NULL,NA,NA,NA,NA,NA,NA,NA,NA,NA,NA,NA,NA,NA,NA,NA,NA,NA,NA,NA
1514d,Save data screen,canvas.Screen,1_1_0_1,NA,NA,timeout,500.4,14055,14046.96,14054.84,14538.56,14540,2024-06-17T10:33:14Z,14555.24,Vergnügen,kichekesho,s,dubwana,mpanuko,mtesaji,NA,NA,0,NULL,NA,NA,NA,NA,NA,NA,NA,NA,NA,NA,NA,NA,NA,NA,NA,NA,NA,NA,NA
1514d,deep,flow.Sequence,1_1_0,NA,NA,completion,3969.68,10555,10552.2,10568.88,14538.56,14540,2024-06-17T10:33:14Z,14555.24,Vergnügen,kichekesho,s,dubwana,mpanuko,mtesaji,NA,NA,NA,NULL,NA,NA,NA,NA,NA,NA,NA,NA,NA,NA,NA,NA,NA,NA,NA,NA,NA,NA,NA
1514d,task,flow.Sequence,1_1,NA,NA,completion,3969.68,10555,10552.2,10568.88,14538.56,14540,2024-06-17T10:33:14Z,14555.24,Vergnügen,kichekesho,s,dubwana,mpanuko,mtesaji,NA,NA,NA,NULL,NA,NA,NA,NA,NA,NA,NA,NA,NA,NA,NA,NA,NA,NA,NA,NA,NA,NA,NA
1514d,Deep Question,html.Page,1_2_0_0,NA,NA,form submission,3555.76,14541,14538.56,14555.24,18111,18111,2024-06-17T10:33:18Z,18111.66,Ergänzung,kijalizo,d,ulaghai,mustarehe,matangazo,fhuwehguw,NA,NA,NULL,NA,NA,NA,NA,NA,NA,NA,NA,NA,NA,NA,NA,NA,NA,NA,NA,NA,NA,NA
1514d,Save data screen,canvas.Screen,1_2_0_1,NA,NA,timeout,495.02,18113,18109.82,18111.66,18590,18592,2024-06-17T10:33:18Z,18606.68,Ergänzung,kijalizo,d,ulaghai,mustarehe,matangazo,NA,NA,0,NULL,NA,NA,NA,NA,NA,NA,NA,NA,NA,NA,NA,NA,NA,NA,NA,NA,NA,NA,NA
1514d,deep,flow.Sequence,1_2_0,NA,NA,completion,4034.76,14541,14538.56,14555.24,18590,18592,2024-06-17T10:33:18Z,18606.68,Ergänzung,kijalizo,d,ulaghai,mustarehe,matangazo,NA,NA,NA,NULL,NA,NA,NA,NA,NA,NA,NA,NA,NA,NA,NA,NA,NA,NA,NA,NA,NA,NA,NA
1514d,task,flow.Sequence,1_2,NA,NA,completion,4034.76,14541,14538.56,14555.24,18590,18593,2024-06-17T10:33:18Z,18606.68,Ergänzung,kijalizo,d,ulaghai,mustarehe,matangazo,NA,NA,NA,NULL,NA,NA,NA,NA,NA,NA,NA,NA,NA,NA,NA,NA,NA,NA,NA,NA,NA,NA,NA
1514d,Deep Question,html.Page,1_3_0_0,NA,NA,form submission,3223.32,18593,18590,18606.68,21830,21830,2024-06-17T10:33:21Z,21828.22,Toleranz,kuvumiliana,d,maombolezo,ujasusi,mchekeshaji,frhewru,NA,NA,NULL,NA,NA,NA,NA,NA,NA,NA,NA,NA,NA,NA,NA,NA,NA,NA,NA,NA,NA,NA
1514d,Save data screen,canvas.Screen,1_3_0_1,NA,NA,timeout,496.4,21830,21828.06,21828.22,22307.94,22309,2024-06-17T10:33:22Z,22324.62,Toleranz,kuvumiliana,d,maombolezo,ujasusi,mchekeshaji,NA,NA,0,NULL,NA,NA,NA,NA,NA,NA,NA,NA,NA,NA,NA,NA,NA,NA,NA,NA,NA,NA,NA
1514d,deep,flow.Sequence,1_3_0,NA,NA,completion,3701.26,18593,18590,18606.68,22307.94,22309,2024-06-17T10:33:22Z,22324.62,Toleranz,kuvumiliana,d,maombolezo,ujasusi,mchekeshaji,NA,NA,NA,NULL,NA,NA,NA,NA,NA,NA,NA,NA,NA,NA,NA,NA,NA,NA,NA,NA,NA,NA,NA
1514d,task,flow.Sequence,1_3,NA,NA,completion,3701.26,18593,18590,18606.68,22307.94,22309,2024-06-17T10:33:22Z,22324.62,Toleranz,kuvumiliana,d,maombolezo,ujasusi,mchekeshaji,NA,NA,NA,NULL,NA,NA,NA,NA,NA,NA,NA,NA,NA,NA,NA,NA,NA,NA,NA,NA,NA,NA,NA
1514d,Deep Question,html.Page,1_4_0_0,NA,NA,form submission,4430.38,22310,22307.94,22324.62,26755,26755,2024-06-17T10:33:26Z,26754.42,Schlange,foleni,d,uvumilivu,uteuzi,muuzaji,foleni,NA,NA,NULL,NA,NA,NA,NA,NA,NA,NA,NA,NA,NA,NA,NA,NA,NA,NA,NA,NA,NA,NA
1514d,Save data screen,canvas.Screen,1_4_0_1,NA,NA,timeout,502.2,26756,26754.08,26754.42,27239.94,27241,2024-06-17T10:33:27Z,27256.62,Schlange,foleni,d,uvumilivu,uteuzi,muuzaji,NA,NA,1,NULL,NA,NA,NA,NA,NA,NA,NA,NA,NA,NA,NA,NA,NA,NA,NA,NA,NA,NA,NA
1514d,deep,flow.Sequence,1_4_0,NA,NA,completion,4915.32,22310,22307.94,22324.62,27239.94,27241,2024-06-17T10:33:27Z,27256.62,Schlange,foleni,d,uvumilivu,uteuzi,muuzaji,NA,NA,NA,NULL,NA,NA,NA,NA,NA,NA,NA,NA,NA,NA,NA,NA,NA,NA,NA,NA,NA,NA,NA
1514d,task,flow.Sequence,1_4,NA,NA,completion,4915.32,22309,22307.94,22324.62,27239.94,27241,2024-06-17T10:33:27Z,27256.62,Schlange,foleni,d,uvumilivu,uteuzi,muuzaji,NA,NA,NA,NULL,NA,NA,NA,NA,NA,NA,NA,NA,NA,NA,NA,NA,NA,NA,NA,NA,NA,NA,NA
1514d,Deep Question,html.Page,1_5_0_0,NA,NA,form submission,2634.38,27242,27239.94,27256.62,29891,29891,2024-06-17T10:33:30Z,29889.88,Spionage,upelelezi,d,maslahi,utokazo,magangao,fjwhr,NA,NA,NULL,NA,NA,NA,NA,NA,NA,NA,NA,NA,NA,NA,NA,NA,NA,NA,NA,NA,NA,NA
1514d,Save data screen,canvas.Screen,1_5_0_1,NA,NA,timeout,499.64,29893,29889.1,29889.88,30372.84,30374,2024-06-17T10:33:30Z,30389.52,Spionage,upelelezi,d,maslahi,utokazo,magangao,NA,NA,0,NULL,NA,NA,NA,NA,NA,NA,NA,NA,NA,NA,NA,NA,NA,NA,NA,NA,NA,NA,NA
1514d,deep,flow.Sequence,1_5_0,NA,NA,completion,3116.22,27242,27239.94,27256.62,30372.84,30375,2024-06-17T10:33:30Z,30389.52,Spionage,upelelezi,d,maslahi,utokazo,magangao,NA,NA,NA,NULL,NA,NA,NA,NA,NA,NA,NA,NA,NA,NA,NA,NA,NA,NA,NA,NA,NA,NA,NA
1514d,task,flow.Sequence,1_5,NA,NA,completion,3116.22,27242,27239.94,27256.62,30372.84,30375,2024-06-17T10:33:30Z,30389.52,Spionage,upelelezi,d,maslahi,utokazo,magangao,NA,NA,NA,NULL,NA,NA,NA,NA,NA,NA,NA,NA,NA,NA,NA,NA,NA,NA,NA,NA,NA,NA,NA
1514d,Deep Question,html.Page,1_6_0_0,NA,NA,form submission,2428.48,30375,30372.84,30389.52,32818,32819,2024-06-17T10:33:32Z,32818.24,Inhalt,yaliyomo,s,kishawishi,hifadhi,kutembea,frwugrw,NA,NA,NULL,NA,NA,NA,NA,NA,NA,NA,NA,NA,NA,NA,NA,NA,NA,NA,NA,NA,NA,NA
1514d,Save data screen,canvas.Screen,1_6_0_1,NA,NA,timeout,493.8,32820,32817.26,32818.24,33295.5,33296,2024-06-17T10:33:33Z,33312.04,Inhalt,yaliyomo,s,kishawishi,hifadhi,kutembea,NA,NA,0,NULL,NA,NA,NA,NA,NA,NA,NA,NA,NA,NA,NA,NA,NA,NA,NA,NA,NA,NA,NA
1514d,deep,flow.Sequence,1_6_0,NA,NA,completion,2905.98,30375,30372.84,30389.52,33295.5,33297,2024-06-17T10:33:33Z,33312.04,Inhalt,yaliyomo,s,kishawishi,hifadhi,kutembea,NA,NA,NA,NULL,NA,NA,NA,NA,NA,NA,NA,NA,NA,NA,NA,NA,NA,NA,NA,NA,NA,NA,NA
1514d,task,flow.Sequence,1_6,NA,NA,completion,2905.98,30375,30372.84,30389.52,33295.5,33297,2024-06-17T10:33:33Z,33312.04,Inhalt,yaliyomo,s,kishawishi,hifadhi,kutembea,NA,NA,NA,NULL,NA,NA,NA,NA,NA,NA,NA,NA,NA,NA,NA,NA,NA,NA,NA,NA,NA,NA,NA
1514d,Deep Question,html.Page,1_7_0_0,NA,NA,form submission,3203.96,33298,33295.5,33312.04,36516,36516,2024-06-17T10:33:36Z,36515.54,Vermutung,udhanifu,s,haramia,tikisho,itifaki,hfuiwzu,NA,NA,NULL,NA,NA,NA,NA,NA,NA,NA,NA,NA,NA,NA,NA,NA,NA,NA,NA,NA,NA,NA
1514d,Save data screen,canvas.Screen,1_7_0_1,NA,NA,timeout,493.44,36518,36515.24,36515.54,36992.3,36994,2024-06-17T10:33:37Z,37008.98,Vermutung,udhanifu,s,haramia,tikisho,itifaki,NA,NA,0,NULL,NA,NA,NA,NA,NA,NA,NA,NA,NA,NA,NA,NA,NA,NA,NA,NA,NA,NA,NA
1514d,deep,flow.Sequence,1_7_0,NA,NA,completion,3680.26,33298,33295.5,33312.04,36992.3,36994,2024-06-17T10:33:37Z,37008.98,Vermutung,udhanifu,s,haramia,tikisho,itifaki,NA,NA,NA,NULL,NA,NA,NA,NA,NA,NA,NA,NA,NA,NA,NA,NA,NA,NA,NA,NA,NA,NA,NA
1514d,task,flow.Sequence,1_7,NA,NA,completion,3680.26,33297,33295.5,33312.04,36992.3,36994,2024-06-17T10:33:37Z,37008.98,Vermutung,udhanifu,s,haramia,tikisho,itifaki,NA,NA,NA,NULL,NA,NA,NA,NA,NA,NA,NA,NA,NA,NA,NA,NA,NA,NA,NA,NA,NA,NA,NA
1514d,Deep Question,html.Page,1_8_0_0,NA,NA,form submission,3823.02,36995,36992.3,37008.98,40832,40833,2024-06-17T10:33:40Z,40831.82,Fenster,dirisha,d,walakini,tasawari,maarifa,fhiwzuiwr,NA,NA,NULL,NA,NA,NA,NA,NA,NA,NA,NA,NA,NA,NA,NA,NA,NA,NA,NA,NA,NA,NA
1514d,Save data screen,canvas.Screen,1_8_0_1,NA,NA,timeout,500.68,40834,40831.46,40831.82,41315.82,41318,2024-06-17T10:33:41Z,41332.5,Fenster,dirisha,d,walakini,tasawari,maarifa,NA,NA,0,NULL,NA,NA,NA,NA,NA,NA,NA,NA,NA,NA,NA,NA,NA,NA,NA,NA,NA,NA,NA
1514d,deep,flow.Sequence,1_8_0,NA,NA,completion,4306.84,36995,36992.3,37008.98,41315.82,41318,2024-06-17T10:33:41Z,41332.5,Fenster,dirisha,d,walakini,tasawari,maarifa,NA,NA,NA,NULL,NA,NA,NA,NA,NA,NA,NA,NA,NA,NA,NA,NA,NA,NA,NA,NA,NA,NA,NA
1514d,task,flow.Sequence,1_8,NA,NA,completion,4306.84,36995,36992.3,37008.98,41315.82,41318,2024-06-17T10:33:41Z,41332.5,Fenster,dirisha,d,walakini,tasawari,maarifa,NA,NA,NA,NULL,NA,NA,NA,NA,NA,NA,NA,NA,NA,NA,NA,NA,NA,NA,NA,NA,NA,NA,NA
1514d,Deep Question,html.Page,1_9_0_0,NA,NA,form submission,3207.5,41319,41315.82,41332.5,44540,44540,2024-06-17T10:33:44Z,44541.58,Theorie,nadharia,d,ushungi,mkutano,uwakilishi,fhuizuirwe,NA,NA,NULL,NA,NA,NA,NA,NA,NA,NA,NA,NA,NA,NA,NA,NA,NA,NA,NA,NA,NA,NA
1514d,Save data screen,canvas.Screen,1_9_0_1,NA,NA,timeout,498.3,44541,44538.32,44541.58,45023.2,45027,2024-06-17T10:33:45Z,45039.88,Theorie,nadharia,d,ushungi,mkutano,uwakilishi,NA,NA,0,NULL,NA,NA,NA,NA,NA,NA,NA,NA,NA,NA,NA,NA,NA,NA,NA,NA,NA,NA,NA
1514d,deep,flow.Sequence,1_9_0,NA,NA,completion,3690.7,41318,41315.82,41332.5,45023.2,45028,2024-06-17T10:33:45Z,45039.88,Theorie,nadharia,d,ushungi,mkutano,uwakilishi,NA,NA,NA,NULL,NA,NA,NA,NA,NA,NA,NA,NA,NA,NA,NA,NA,NA,NA,NA,NA,NA,NA,NA
1514d,task,flow.Sequence,1_9,NA,NA,completion,3690.7,41318,41315.82,41332.5,45023.2,45028,2024-06-17T10:33:45Z,45039.88,Theorie,nadharia,d,ushungi,mkutano,uwakilishi,NA,NA,NA,NULL,NA,NA,NA,NA,NA,NA,NA,NA,NA,NA,NA,NA,NA,NA,NA,NA,NA,NA,NA
1514d,Deep Question,html.Page,1_10_0_0,NA,NA,form submission,2531.12,45029,45023.2,45039.88,47571,47572,2024-06-17T10:33:47Z,47570.86,Schock,mshtuko,d,biashara,kukataza,vichekesho,fuwtruw,NA,NA,NULL,NA,NA,NA,NA,NA,NA,NA,NA,NA,NA,NA,NA,NA,NA,NA,NA,NA,NA,NA
1514d,Save data screen,canvas.Screen,1_10_0_1,NA,NA,timeout,504.54,47575,47569.48,47570.86,48058.72,48059,2024-06-17T10:33:48Z,48075.4,Schock,mshtuko,d,biashara,kukataza,vichekesho,NA,NA,0,NULL,NA,NA,NA,NA,NA,NA,NA,NA,NA,NA,NA,NA,NA,NA,NA,NA,NA,NA,NA
1514d,deep,flow.Sequence,1_10_0,NA,NA,completion,3018.84,45029,45023.2,45039.88,48058.72,48060,2024-06-17T10:33:48Z,48075.4,Schock,mshtuko,d,biashara,kukataza,vichekesho,NA,NA,NA,NULL,NA,NA,NA,NA,NA,NA,NA,NA,NA,NA,NA,NA,NA,NA,NA,NA,NA,NA,NA
1514d,task,flow.Sequence,1_10,NA,NA,completion,3018.84,45029,45023.2,45039.88,48058.72,48060,2024-06-17T10:33:48Z,48075.4,Schock,mshtuko,d,biashara,kukataza,vichekesho,NA,NA,NA,NULL,NA,NA,NA,NA,NA,NA,NA,NA,NA,NA,NA,NA,NA,NA,NA,NA,NA,NA,NA
1514d,Deep Question,html.Page,1_11_0_0,NA,NA,form submission,2911.6,48060,48058.72,48075.4,50987,50987,2024-06-17T10:33:51Z,50986.24,Hoffnung,matarajio,s,kutaalamika,uratibu,mvumbuzi,hwuwr,NA,NA,NULL,NA,NA,NA,NA,NA,NA,NA,NA,NA,NA,NA,NA,NA,NA,NA,NA,NA,NA,NA
1514d,Save data screen,canvas.Screen,1_11_0_1,NA,NA,timeout,493.62,50989,50985.86,50986.24,51463.18,51465,2024-06-17T10:33:51Z,51479.86,Hoffnung,matarajio,s,kutaalamika,uratibu,mvumbuzi,NA,NA,0,NULL,NA,NA,NA,NA,NA,NA,NA,NA,NA,NA,NA,NA,NA,NA,NA,NA,NA,NA,NA
1514d,deep,flow.Sequence,1_11_0,NA,NA,completion,3387.78,48060,48058.72,48075.4,51463.18,51465,2024-06-17T10:33:51Z,51479.86,Hoffnung,matarajio,s,kutaalamika,uratibu,mvumbuzi,NA,NA,NA,NULL,NA,NA,NA,NA,NA,NA,NA,NA,NA,NA,NA,NA,NA,NA,NA,NA,NA,NA,NA
1514d,task,flow.Sequence,1_11,NA,NA,completion,3387.78,48060,48058.72,48075.4,51463.18,51465,2024-06-17T10:33:51Z,51479.86,Hoffnung,matarajio,s,kutaalamika,uratibu,mvumbuzi,NA,NA,NA,NULL,NA,NA,NA,NA,NA,NA,NA,NA,NA,NA,NA,NA,NA,NA,NA,NA,NA,NA,NA
1514d,Deep Question,html.Page,1_12_0_0,NA,NA,form submission,2912.14,51465,51463.18,51479.86,54392,54393,2024-06-17T10:33:54Z,54398.06,Verpackung,ufungaji,s,uhusiano,upimaji,uchunguzi,gjrewgtuwe,NA,NA,NULL,NA,NA,NA,NA,NA,NA,NA,NA,NA,NA,NA,NA,NA,NA,NA,NA,NA,NA,NA
1514d,Save data screen,canvas.Screen,1_12_0_1,NA,NA,timeout,500.52,54394,54391.18,54398.06,54881.92,54883,2024-06-17T10:33:54Z,54898.58,Verpackung,ufungaji,s,uhusiano,upimaji,uchunguzi,NA,NA,0,NULL,NA,NA,NA,NA,NA,NA,NA,NA,NA,NA,NA,NA,NA,NA,NA,NA,NA,NA,NA
1514d,deep,flow.Sequence,1_12_0,NA,NA,completion,3402.06,51465,51463.18,51479.86,54881.92,54883,2024-06-17T10:33:54Z,54898.58,Verpackung,ufungaji,s,uhusiano,upimaji,uchunguzi,NA,NA,NA,NULL,NA,NA,NA,NA,NA,NA,NA,NA,NA,NA,NA,NA,NA,NA,NA,NA,NA,NA,NA
1514d,task,flow.Sequence,1_12,NA,NA,completion,3402.06,51465,51463.18,51479.86,54881.92,54884,2024-06-17T10:33:54Z,54898.58,Verpackung,ufungaji,s,uhusiano,upimaji,uchunguzi,NA,NA,NA,NULL,NA,NA,NA,NA,NA,NA,NA,NA,NA,NA,NA,NA,NA,NA,NA,NA,NA,NA,NA
1514d,Deep Question,html.Page,1_13_0_0,NA,NA,form submission,2463.42,54884,54881.92,54898.58,57362,57362,2024-06-17T10:33:57Z,57361.02,Wohlstand,mafanikio,d,chimbuko,kumbuko,mapwaji,rjegtuwrt,NA,NA,NULL,NA,NA,NA,NA,NA,NA,NA,NA,NA,NA,NA,NA,NA,NA,NA,NA,NA,NA,NA
1514d,Save data screen,canvas.Screen,1_13_0_1,NA,NA,timeout,506.22,57363,57360.46,57361.02,57850.56,57851,2024-06-17T10:33:57Z,57867.24,Wohlstand,mafanikio,d,chimbuko,kumbuko,mapwaji,NA,NA,0,NULL,NA,NA,NA,NA,NA,NA,NA,NA,NA,NA,NA,NA,NA,NA,NA,NA,NA,NA,NA
1514d,deep,flow.Sequence,1_13_0,NA,NA,completion,2951.98,54884,54881.92,54898.58,57850.56,57851,2024-06-17T10:33:57Z,57867.24,Wohlstand,mafanikio,d,chimbuko,kumbuko,mapwaji,NA,NA,NA,NULL,NA,NA,NA,NA,NA,NA,NA,NA,NA,NA,NA,NA,NA,NA,NA,NA,NA,NA,NA
1514d,task,flow.Sequence,1_13,NA,NA,completion,2951.98,54884,54881.92,54898.58,57850.56,57851,2024-06-17T10:33:57Z,57867.24,Wohlstand,mafanikio,d,chimbuko,kumbuko,mapwaji,NA,NA,NA,NULL,NA,NA,NA,NA,NA,NA,NA,NA,NA,NA,NA,NA,NA,NA,NA,NA,NA,NA,NA
1514d,Deep Question,html.Page,1_14_0_0,NA,NA,form submission,2781.76,57851,57850.56,57867.24,60649,60649,2024-06-17T10:34:00Z,60659.28,Tester,wanaojaribu,s,sherti,sihiri,mlipuko,gtuwgtru,NA,NA,NULL,NA,NA,NA,NA,NA,NA,NA,NA,NA,NA,NA,NA,NA,NA,NA,NA,NA,NA,NA
1514d,Save data screen,canvas.Screen,1_14_0_1,NA,NA,timeout,507.14,60650,60647.88,60659.28,61149.68,61150,2024-06-17T10:34:01Z,61166.42,Tester,wanaojaribu,s,sherti,sihiri,mlipuko,NA,NA,0,NULL,NA,NA,NA,NA,NA,NA,NA,NA,NA,NA,NA,NA,NA,NA,NA,NA,NA,NA,NA
1514d,deep,flow.Sequence,1_14_0,NA,NA,completion,3282.44,57851,57850.56,57867.24,61149.68,61150,2024-06-17T10:34:01Z,61166.42,Tester,wanaojaribu,s,sherti,sihiri,mlipuko,NA,NA,NA,NULL,NA,NA,NA,NA,NA,NA,NA,NA,NA,NA,NA,NA,NA,NA,NA,NA,NA,NA,NA
1514d,task,flow.Sequence,1_14,NA,NA,completion,3282.44,57851,57850.56,57867.24,61149.68,61151,2024-06-17T10:34:01Z,61166.42,Tester,wanaojaribu,s,sherti,sihiri,mlipuko,NA,NA,NA,NULL,NA,NA,NA,NA,NA,NA,NA,NA,NA,NA,NA,NA,NA,NA,NA,NA,NA,NA,NA
1514d,Deep Question,html.Page,1_15_0_0,NA,NA,form submission,4145.58,61151,61149.68,61166.42,65312,65313,2024-06-17T10:34:05Z,65311.98,Notfall,dharura,s,rairai,malalamiko,ahueni,ghruwgtz,NA,NA,NULL,NA,NA,NA,NA,NA,NA,NA,NA,NA,NA,NA,NA,NA,NA,NA,NA,NA,NA,NA
1514d,Save data screen,canvas.Screen,1_15_0_1,NA,NA,timeout,501.16,65315,65311.8,65311.98,65796.46,65798,2024-06-17T10:34:05Z,65813.14,Notfall,dharura,s,rairai,malalamiko,ahueni,NA,NA,0,NULL,NA,NA,NA,NA,NA,NA,NA,NA,NA,NA,NA,NA,NA,NA,NA,NA,NA,NA,NA
1514d,deep,flow.Sequence,1_15_0,NA,NA,completion,4630.04,61151,61149.68,61166.42,65796.46,65798,2024-06-17T10:34:05Z,65813.14,Notfall,dharura,s,rairai,malalamiko,ahueni,NA,NA,NA,NULL,NA,NA,NA,NA,NA,NA,NA,NA,NA,NA,NA,NA,NA,NA,NA,NA,NA,NA,NA
1514d,task,flow.Sequence,1_15,NA,NA,completion,4630.04,61151,61149.68,61166.42,65796.46,65799,2024-06-17T10:34:05Z,65813.14,Notfall,dharura,s,rairai,malalamiko,ahueni,NA,NA,NA,NULL,NA,NA,NA,NA,NA,NA,NA,NA,NA,NA,NA,NA,NA,NA,NA,NA,NA,NA,NA
1514d,retrieval block 1 (cued recall),flow.Loop,1,NA,NA,completion,60133.16,5663,5663.02,5663.3,65796.46,65799,2024-06-17T10:34:05Z,65813.14,NA,NA,NA,NA,NA,NA,NA,NA,NA,NULL,NA,NA,NA,NA,NA,NA,NA,NA,NA,NA,NA,NA,NA,NA,NA,NA,NA,NA,NA
1514d,Shallow Question,html.Page,2_0_0_0,NA,NA,form submission,11149.86,65799,65796.46,65813.14,76963,76965,2024-06-17T10:34:17Z,76962.98,Toleranz,kuvumiliana,d,maombolezo,ujasusi,mchekeshaji,mchekeshaji,NA,NA,"c(""distractor1"", ""distractor2"", ""distractor3"")",NA,NA,NA,NA,NA,NA,NA,NA,NA,NA,NA,NA,NA,NA,NA,NA,NA,NA,NA
1514d,Save data screen,canvas.Screen,2_0_0_1,NA,NA,timeout,496.64,76970,76958.32,76962.98,77443.08,77445,2024-06-17T10:34:17Z,77459.62,Toleranz,kuvumiliana,d,maombolezo,ujasusi,mchekeshaji,NA,NA,0,"c(""distractor1"", ""distractor2"", ""distractor3"")",NA,NA,NA,NA,NA,NA,NA,NA,NA,NA,NA,NA,NA,NA,NA,NA,NA,NA,NA
1514d,shallow,flow.Sequence,2_0_0,NA,NA,completion,11629.94,65799,65796.46,65813.14,77443.08,77445,2024-06-17T10:34:17Z,77459.62,Toleranz,kuvumiliana,d,maombolezo,ujasusi,mchekeshaji,NA,NA,NA,"c(""distractor1"", ""distractor2"", ""distractor3"")",NA,NA,NA,NA,NA,NA,NA,NA,NA,NA,NA,NA,NA,NA,NA,NA,NA,NA,NA
1514d,task,flow.Sequence,2_0,NA,NA,completion,11629.94,65799,65796.46,65813.14,77443.08,77445,2024-06-17T10:34:17Z,77459.62,Toleranz,kuvumiliana,d,maombolezo,ujasusi,mchekeshaji,NA,NA,NA,"c(""distractor1"", ""distractor2"", ""distractor3"")",NA,NA,NA,NA,NA,NA,NA,NA,NA,NA,NA,NA,NA,NA,NA,NA,NA,NA,NA
1514d,Shallow Question,html.Page,2_1_0_0,NA,NA,form submission,10455.38,77446,77443.08,77459.62,87915,87916,2024-06-17T10:34:28Z,87917.4,Verpackung,ufungaji,s,uhusiano,upimaji,uchunguzi,ufungaji,NA,NA,"c(""distractor1"", ""distractor2"", ""distractor3"")",NA,NA,NA,NA,NA,NA,NA,NA,NA,NA,NA,NA,NA,NA,NA,NA,NA,NA,NA
1514d,Save data screen,canvas.Screen,2_1_0_1,NA,NA,timeout,493.56000000001,87918,87911.28,87917.4,88394.28,88395,2024-06-17T10:34:28Z,88410.96,Verpackung,ufungaji,s,uhusiano,upimaji,uchunguzi,NA,NA,1,"c(""distractor1"", ""distractor2"", ""distractor3"")",NA,NA,NA,NA,NA,NA,NA,NA,NA,NA,NA,NA,NA,NA,NA,NA,NA,NA,NA
1514d,shallow,flow.Sequence,2_1_0,NA,NA,completion,10934.66,77446,77443.08,77459.62,88394.28,88396,2024-06-17T10:34:28Z,88410.96,Verpackung,ufungaji,s,uhusiano,upimaji,uchunguzi,NA,NA,NA,"c(""distractor1"", ""distractor2"", ""distractor3"")",NA,NA,NA,NA,NA,NA,NA,NA,NA,NA,NA,NA,NA,NA,NA,NA,NA,NA,NA
1514d,task,flow.Sequence,2_1,NA,NA,completion,10934.66,77445,77443.08,77459.62,88394.28,88396,2024-06-17T10:34:28Z,88410.96,Verpackung,ufungaji,s,uhusiano,upimaji,uchunguzi,NA,NA,NA,"c(""distractor1"", ""distractor2"", ""distractor3"")",NA,NA,NA,NA,NA,NA,NA,NA,NA,NA,NA,NA,NA,NA,NA,NA,NA,NA,NA
1514d,Shallow Question,html.Page,2_2_0_0,NA,NA,form submission,8205.04,88396,88394.28,88410.96,96616,96616,2024-06-17T10:34:36Z,96626.28,Spionage,upelelezi,d,maslahi,utokazo,magangao,upelelezi,NA,NA,"c(""distractor1"", ""distractor2"", ""distractor3"")",NA,NA,NA,NA,NA,NA,NA,NA,NA,NA,NA,NA,NA,NA,NA,NA,NA,NA,NA
1514d,Save data screen,canvas.Screen,2_2_0_1,NA,NA,timeout,505.44,96617,96613.66,96626.28,97115.04,97116,2024-06-17T10:34:37Z,97131.72,Spionage,upelelezi,d,maslahi,utokazo,magangao,NA,NA,1,"c(""distractor1"", ""distractor2"", ""distractor3"")",NA,NA,NA,NA,NA,NA,NA,NA,NA,NA,NA,NA,NA,NA,NA,NA,NA,NA,NA
1514d,shallow,flow.Sequence,2_2_0,NA,NA,completion,8704.08,88396,88394.28,88410.96,97115.04,97116,2024-06-17T10:34:37Z,97131.72,Spionage,upelelezi,d,maslahi,utokazo,magangao,NA,NA,NA,"c(""distractor1"", ""distractor2"", ""distractor3"")",NA,NA,NA,NA,NA,NA,NA,NA,NA,NA,NA,NA,NA,NA,NA,NA,NA,NA,NA
1514d,task,flow.Sequence,2_2,NA,NA,completion,8704.08,88396,88394.28,88410.96,97115.04,97118,2024-06-17T10:34:37Z,97131.72,Spionage,upelelezi,d,maslahi,utokazo,magangao,NA,NA,NA,"c(""distractor1"", ""distractor2"", ""distractor3"")",NA,NA,NA,NA,NA,NA,NA,NA,NA,NA,NA,NA,NA,NA,NA,NA,NA,NA,NA
1514d,Shallow Question,html.Page,2_3_0_0,NA,NA,form submission,7508.28,97118,97115.04,97131.72,104640,104640,2024-06-17T10:34:44Z,104647.72,Fenster,dirisha,d,walakini,tasawari,maarifa,dirisha,NA,NA,"c(""distractor1"", ""distractor2"", ""distractor3"")",NA,NA,NA,NA,NA,NA,NA,NA,NA,NA,NA,NA,NA,NA,NA,NA,NA,NA,NA
1514d,Save data screen,canvas.Screen,2_3_0_1,NA,NA,timeout,503.89999999999,104641,104637.28,104647.72,105134.94,105136,2024-06-17T10:34:45Z,105151.62,Fenster,dirisha,d,walakini,tasawari,maarifa,NA,NA,1,"c(""distractor1"", ""distractor2"", ""distractor3"")",NA,NA,NA,NA,NA,NA,NA,NA,NA,NA,NA,NA,NA,NA,NA,NA,NA,NA,NA
1514d,shallow,flow.Sequence,2_3_0,NA,NA,completion,8003.22,97118,97115.04,97131.72,105134.94,105136,2024-06-17T10:34:45Z,105151.62,Fenster,dirisha,d,walakini,tasawari,maarifa,NA,NA,NA,"c(""distractor1"", ""distractor2"", ""distractor3"")",NA,NA,NA,NA,NA,NA,NA,NA,NA,NA,NA,NA,NA,NA,NA,NA,NA,NA,NA
1514d,task,flow.Sequence,2_3,NA,NA,completion,8003.22,97118,97115.04,97131.72,105134.94,105136,2024-06-17T10:34:45Z,105151.62,Fenster,dirisha,d,walakini,tasawari,maarifa,NA,NA,NA,"c(""distractor1"", ""distractor2"", ""distractor3"")",NA,NA,NA,NA,NA,NA,NA,NA,NA,NA,NA,NA,NA,NA,NA,NA,NA,NA,NA
1514d,Shallow Question,html.Page,2_4_0_0,NA,NA,form submission,7147.38,105137,105134.94,105151.62,112299,112299,2024-06-17T10:34:52Z,112310.06,Vergnügen,kichekesho,s,dubwana,mpanuko,mtesaji,kichekesho,NA,NA,"c(""distractor1"", ""distractor2"", ""distractor3"")",NA,NA,NA,NA,NA,NA,NA,NA,NA,NA,NA,NA,NA,NA,NA,NA,NA,NA,NA
1514d,Save data screen,canvas.Screen,2_4_0_1,NA,NA,timeout,503.52,112301,112296.62,112310.06,112796.9,112798,2024-06-17T10:34:52Z,112813.58,Vergnügen,kichekesho,s,dubwana,mpanuko,mtesaji,NA,NA,1,"c(""distractor1"", ""distractor2"", ""distractor3"")",NA,NA,NA,NA,NA,NA,NA,NA,NA,NA,NA,NA,NA,NA,NA,NA,NA,NA,NA
1514d,shallow,flow.Sequence,2_4_0,NA,NA,completion,7645.28,105137,105134.94,105151.62,112796.9,112798,2024-06-17T10:34:52Z,112813.58,Vergnügen,kichekesho,s,dubwana,mpanuko,mtesaji,NA,NA,NA,"c(""distractor1"", ""distractor2"", ""distractor3"")",NA,NA,NA,NA,NA,NA,NA,NA,NA,NA,NA,NA,NA,NA,NA,NA,NA,NA,NA
1514d,task,flow.Sequence,2_4,NA,NA,completion,7645.28,105136,105134.94,105151.62,112796.9,112799,2024-06-17T10:34:52Z,112813.58,Vergnügen,kichekesho,s,dubwana,mpanuko,mtesaji,NA,NA,NA,"c(""distractor1"", ""distractor2"", ""distractor3"")",NA,NA,NA,NA,NA,NA,NA,NA,NA,NA,NA,NA,NA,NA,NA,NA,NA,NA,NA
1514d,Shallow Question,html.Page,2_5_0_0,NA,NA,form submission,13361.42,112799,112796.9,112813.58,126175,126176,2024-06-17T10:35:06Z,126180.86,Hoffnung,matarajio,s,kutaalamika,uratibu,mvumbuzi,matarajio,NA,NA,"c(""distractor1"", ""distractor2"", ""distractor3"")",NA,NA,NA,NA,NA,NA,NA,NA,NA,NA,NA,NA,NA,NA,NA,NA,NA,NA,NA
1514d,Save data screen,canvas.Screen,2_5_0_1,NA,NA,timeout,492.56,126177,126172.78,126180.86,126656.74,126658,2024-06-17T10:35:06Z,126673.42,Hoffnung,matarajio,s,kutaalamika,uratibu,mvumbuzi,NA,NA,1,"c(""distractor1"", ""distractor2"", ""distractor3"")",NA,NA,NA,NA,NA,NA,NA,NA,NA,NA,NA,NA,NA,NA,NA,NA,NA,NA,NA
1514d,shallow,flow.Sequence,2_5_0,NA,NA,completion,13843.16,112799,112796.9,112813.58,126656.74,126658,2024-06-17T10:35:06Z,126673.42,Hoffnung,matarajio,s,kutaalamika,uratibu,mvumbuzi,NA,NA,NA,"c(""distractor1"", ""distractor2"", ""distractor3"")",NA,NA,NA,NA,NA,NA,NA,NA,NA,NA,NA,NA,NA,NA,NA,NA,NA,NA,NA
1514d,task,flow.Sequence,2_5,NA,NA,completion,13843.16,112799,112796.9,112813.58,126656.74,126658,2024-06-17T10:35:06Z,126673.42,Hoffnung,matarajio,s,kutaalamika,uratibu,mvumbuzi,NA,NA,NA,"c(""distractor1"", ""distractor2"", ""distractor3"")",NA,NA,NA,NA,NA,NA,NA,NA,NA,NA,NA,NA,NA,NA,NA,NA,NA,NA,NA
1514d,Shallow Question,html.Page,2_6_0_0,NA,NA,form submission,12241.58,126658,126656.74,126673.42,138915,138915,2024-06-17T10:35:19Z,138924.24,Wohlstand,mafanikio,d,chimbuko,kumbuko,mapwaji,mafanikio,NA,NA,"c(""distractor1"", ""distractor2"", ""distractor3"")",NA,NA,NA,NA,NA,NA,NA,NA,NA,NA,NA,NA,NA,NA,NA,NA,NA,NA,NA
1514d,Save data screen,canvas.Screen,2_6_0_1,NA,NA,timeout,506.08000000002,138916,138913.14,138924.24,139413.64,139414,2024-06-17T10:35:19Z,139430.32,Wohlstand,mafanikio,d,chimbuko,kumbuko,mapwaji,NA,NA,1,"c(""distractor1"", ""distractor2"", ""distractor3"")",NA,NA,NA,NA,NA,NA,NA,NA,NA,NA,NA,NA,NA,NA,NA,NA,NA,NA,NA
1514d,shallow,flow.Sequence,2_6_0,NA,NA,completion,12740.22,126658,126656.74,126673.42,139413.64,139414,2024-06-17T10:35:19Z,139430.32,Wohlstand,mafanikio,d,chimbuko,kumbuko,mapwaji,NA,NA,NA,"c(""distractor1"", ""distractor2"", ""distractor3"")",NA,NA,NA,NA,NA,NA,NA,NA,NA,NA,NA,NA,NA,NA,NA,NA,NA,NA,NA
1514d,task,flow.Sequence,2_6,NA,NA,completion,12740.22,126658,126656.74,126673.42,139413.64,139414,2024-06-17T10:35:19Z,139430.32,Wohlstand,mafanikio,d,chimbuko,kumbuko,mapwaji,NA,NA,NA,"c(""distractor1"", ""distractor2"", ""distractor3"")",NA,NA,NA,NA,NA,NA,NA,NA,NA,NA,NA,NA,NA,NA,NA,NA,NA,NA,NA
1514d,Shallow Question,html.Page,2_7_0_0,NA,NA,form submission,7835.68,139414,139413.64,139430.32,147266,147266,2024-06-17T10:35:27Z,147274.66,Ergänzung,kijalizo,d,ulaghai,mustarehe,matangazo,kijalizo,NA,NA,"c(""distractor1"", ""distractor2"", ""distractor3"")",NA,NA,NA,NA,NA,NA,NA,NA,NA,NA,NA,NA,NA,NA,NA,NA,NA,NA,NA
1514d,Save data screen,canvas.Screen,2_7_0_1,NA,NA,timeout,505.76000000001,147266,147264.16,147274.66,147763.74,147764,2024-06-17T10:35:27Z,147780.42,Ergänzung,kijalizo,d,ulaghai,mustarehe,matangazo,NA,NA,1,"c(""distractor1"", ""distractor2"", ""distractor3"")",NA,NA,NA,NA,NA,NA,NA,NA,NA,NA,NA,NA,NA,NA,NA,NA,NA,NA,NA
1514d,shallow,flow.Sequence,2_7_0,NA,NA,completion,8333.42,139414,139413.64,139430.32,147763.74,147764,2024-06-17T10:35:27Z,147780.42,Ergänzung,kijalizo,d,ulaghai,mustarehe,matangazo,NA,NA,NA,"c(""distractor1"", ""distractor2"", ""distractor3"")",NA,NA,NA,NA,NA,NA,NA,NA,NA,NA,NA,NA,NA,NA,NA,NA,NA,NA,NA
1514d,task,flow.Sequence,2_7,NA,NA,completion,8333.42,139414,139413.64,139430.32,147763.74,147764,2024-06-17T10:35:27Z,147780.42,Ergänzung,kijalizo,d,ulaghai,mustarehe,matangazo,NA,NA,NA,"c(""distractor1"", ""distractor2"", ""distractor3"")",NA,NA,NA,NA,NA,NA,NA,NA,NA,NA,NA,NA,NA,NA,NA,NA,NA,NA,NA
1514d,Shallow Question,html.Page,2_8_0_0,NA,NA,form submission,26980.58,147765,147763.74,147780.42,174761,174761,2024-06-17T10:35:54Z,174762.64,Tester,wanaojaribu,s,sherti,sihiri,mlipuko,wanaojaribu,NA,NA,"c(""distractor1"", ""distractor2"", ""distractor3"")",NA,NA,NA,NA,NA,NA,NA,NA,NA,NA,NA,NA,NA,NA,NA,NA,NA,NA,NA
1514d,Save data screen,canvas.Screen,2_8_0_1,NA,NA,timeout,493.19999999998,174763,174757.94,174762.64,175239.16,175241,2024-06-17T10:35:55Z,175255.84,Tester,wanaojaribu,s,sherti,sihiri,mlipuko,NA,NA,1,"c(""distractor1"", ""distractor2"", ""distractor3"")",NA,NA,NA,NA,NA,NA,NA,NA,NA,NA,NA,NA,NA,NA,NA,NA,NA,NA,NA
1514d,shallow,flow.Sequence,2_8_0,NA,NA,completion,27458.74,147765,147763.74,147780.42,175239.16,175241,2024-06-17T10:35:55Z,175255.84,Tester,wanaojaribu,s,sherti,sihiri,mlipuko,NA,NA,NA,"c(""distractor1"", ""distractor2"", ""distractor3"")",NA,NA,NA,NA,NA,NA,NA,NA,NA,NA,NA,NA,NA,NA,NA,NA,NA,NA,NA
1514d,task,flow.Sequence,2_8,NA,NA,completion,27458.74,147764,147763.74,147780.42,175239.16,175241,2024-06-17T10:35:55Z,175255.84,Tester,wanaojaribu,s,sherti,sihiri,mlipuko,NA,NA,NA,"c(""distractor1"", ""distractor2"", ""distractor3"")",NA,NA,NA,NA,NA,NA,NA,NA,NA,NA,NA,NA,NA,NA,NA,NA,NA,NA,NA
1514d,Shallow Question,html.Page,2_9_0_0,NA,NA,form submission,8564.16,175242,175239.16,175255.84,183820,183821,2024-06-17T10:36:03Z,183826.1,Theorie,nadharia,d,ushungi,mkutano,uwakilishi,nadharia,NA,NA,"c(""distractor1"", ""distractor2"", ""distractor3"")",NA,NA,NA,NA,NA,NA,NA,NA,NA,NA,NA,NA,NA,NA,NA,NA,NA,NA,NA
1514d,Save data screen,canvas.Screen,2_9_0_1,NA,NA,timeout,503.44,183835,183816,183826.1,184312.86,184314,2024-06-17T10:36:04Z,184329.54,Theorie,nadharia,d,ushungi,mkutano,uwakilishi,NA,NA,1,"c(""distractor1"", ""distractor2"", ""distractor3"")",NA,NA,NA,NA,NA,NA,NA,NA,NA,NA,NA,NA,NA,NA,NA,NA,NA,NA,NA
1514d,shallow,flow.Sequence,2_9_0,NA,NA,completion,9057.02,175242,175239.16,175255.84,184312.86,184314,2024-06-17T10:36:04Z,184329.54,Theorie,nadharia,d,ushungi,mkutano,uwakilishi,NA,NA,NA,"c(""distractor1"", ""distractor2"", ""distractor3"")",NA,NA,NA,NA,NA,NA,NA,NA,NA,NA,NA,NA,NA,NA,NA,NA,NA,NA,NA
1514d,task,flow.Sequence,2_9,NA,NA,completion,9057.02,175241,175239.16,175255.84,184312.86,184315,2024-06-17T10:36:04Z,184329.54,Theorie,nadharia,d,ushungi,mkutano,uwakilishi,NA,NA,NA,"c(""distractor1"", ""distractor2"", ""distractor3"")",NA,NA,NA,NA,NA,NA,NA,NA,NA,NA,NA,NA,NA,NA,NA,NA,NA,NA,NA
1514d,Shallow Question,html.Page,2_10_0_0,NA,NA,form submission,7796.46,184315,184312.86,184329.54,192126,192126,2024-06-17T10:36:12Z,192125.86,Notfall,dharura,s,rairai,malalamiko,ahueni,dharura,NA,NA,"c(""distractor1"", ""distractor2"", ""distractor3"")",NA,NA,NA,NA,NA,NA,NA,NA,NA,NA,NA,NA,NA,NA,NA,NA,NA,NA,NA
1514d,Save data screen,canvas.Screen,2_10_0_1,NA,NA,timeout,497.60000000001,192127,192123.88,192125.86,192606.78,192608,2024-06-17T10:36:12Z,192623.46,Notfall,dharura,s,rairai,malalamiko,ahueni,NA,NA,1,"c(""distractor1"", ""distractor2"", ""distractor3"")",NA,NA,NA,NA,NA,NA,NA,NA,NA,NA,NA,NA,NA,NA,NA,NA,NA,NA,NA
1514d,shallow,flow.Sequence,2_10_0,NA,NA,completion,8277.24,184315,184312.86,184329.54,192606.78,192610,2024-06-17T10:36:12Z,192623.46,Notfall,dharura,s,rairai,malalamiko,ahueni,NA,NA,NA,"c(""distractor1"", ""distractor2"", ""distractor3"")",NA,NA,NA,NA,NA,NA,NA,NA,NA,NA,NA,NA,NA,NA,NA,NA,NA,NA,NA
1514d,task,flow.Sequence,2_10,NA,NA,completion,8277.24,184315,184312.86,184329.54,192606.78,192611,2024-06-17T10:36:12Z,192623.46,Notfall,dharura,s,rairai,malalamiko,ahueni,NA,NA,NA,"c(""distractor1"", ""distractor2"", ""distractor3"")",NA,NA,NA,NA,NA,NA,NA,NA,NA,NA,NA,NA,NA,NA,NA,NA,NA,NA,NA
1514d,Shallow Question,html.Page,2_11_0_0,NA,NA,form submission,9746.54,192611,192606.78,192623.46,202370,202371,2024-06-17T10:36:22Z,202379.46,Inhalt,yaliyomo,s,kishawishi,hifadhi,kutembea,kishawishi,NA,NA,"c(""distractor1"", ""distractor2"", ""distractor3"")",NA,NA,NA,NA,NA,NA,NA,NA,NA,NA,NA,NA,NA,NA,NA,NA,NA,NA,NA
1514d,Save data screen,canvas.Screen,2_11_0_1,NA,NA,timeout,505.89999999999,202372,202368.94,202379.46,202868.68,202869,2024-06-17T10:36:22Z,202885.36,Inhalt,yaliyomo,s,kishawishi,hifadhi,kutembea,NA,NA,0,"c(""distractor1"", ""distractor2"", ""distractor3"")",NA,NA,NA,NA,NA,NA,NA,NA,NA,NA,NA,NA,NA,NA,NA,NA,NA,NA,NA
1514d,shallow,flow.Sequence,2_11_0,NA,NA,completion,10245.22,192611,192606.78,192623.46,202868.68,202869,2024-06-17T10:36:22Z,202885.36,Inhalt,yaliyomo,s,kishawishi,hifadhi,kutembea,NA,NA,NA,"c(""distractor1"", ""distractor2"", ""distractor3"")",NA,NA,NA,NA,NA,NA,NA,NA,NA,NA,NA,NA,NA,NA,NA,NA,NA,NA,NA
1514d,task,flow.Sequence,2_11,NA,NA,completion,10245.22,192611,192606.78,192623.46,202868.68,202869,2024-06-17T10:36:22Z,202885.36,Inhalt,yaliyomo,s,kishawishi,hifadhi,kutembea,NA,NA,NA,"c(""distractor1"", ""distractor2"", ""distractor3"")",NA,NA,NA,NA,NA,NA,NA,NA,NA,NA,NA,NA,NA,NA,NA,NA,NA,NA,NA
1514d,Shallow Question,html.Page,2_12_0_0,NA,NA,form submission,7716.64,202869,202868.68,202885.36,210602,210602,2024-06-17T10:36:30Z,210609.84,Vermutung,udhanifu,s,haramia,tikisho,itifaki,udhanifu,NA,NA,"c(""distractor1"", ""distractor2"", ""distractor3"")",NA,NA,NA,NA,NA,NA,NA,NA,NA,NA,NA,NA,NA,NA,NA,NA,NA,NA,NA
1514d,Save data screen,canvas.Screen,2_12_0_1,NA,NA,timeout,507.84,210603,210600.32,210609.84,211101,211102,2024-06-17T10:36:31Z,211117.68,Vermutung,udhanifu,s,haramia,tikisho,itifaki,NA,NA,1,"c(""distractor1"", ""distractor2"", ""distractor3"")",NA,NA,NA,NA,NA,NA,NA,NA,NA,NA,NA,NA,NA,NA,NA,NA,NA,NA,NA
1514d,shallow,flow.Sequence,2_12_0,NA,NA,completion,8215.64,202869,202868.68,202885.36,211101,211102,2024-06-17T10:36:31Z,211117.68,Vermutung,udhanifu,s,haramia,tikisho,itifaki,NA,NA,NA,"c(""distractor1"", ""distractor2"", ""distractor3"")",NA,NA,NA,NA,NA,NA,NA,NA,NA,NA,NA,NA,NA,NA,NA,NA,NA,NA,NA
1514d,task,flow.Sequence,2_12,NA,NA,completion,8215.64,202869,202868.68,202885.36,211101,211102,2024-06-17T10:36:31Z,211117.68,Vermutung,udhanifu,s,haramia,tikisho,itifaki,NA,NA,NA,"c(""distractor1"", ""distractor2"", ""distractor3"")",NA,NA,NA,NA,NA,NA,NA,NA,NA,NA,NA,NA,NA,NA,NA,NA,NA,NA,NA
1514d,Shallow Question,html.Page,2_13_0_0,NA,NA,form submission,16167.32,211103,211101,211117.68,227285,227285,2024-06-17T10:36:47Z,227291.86,Schock,mshtuko,d,biashara,kukataza,vichekesho,mshtuko,NA,NA,"c(""distractor1"", ""distractor2"", ""distractor3"")",NA,NA,NA,NA,NA,NA,NA,NA,NA,NA,NA,NA,NA,NA,NA,NA,NA,NA,NA
1514d,Save data screen,canvas.Screen,2_13_0_1,NA,NA,timeout,507.34000000003,227287,227281.54,227291.86,227782.52,227784,2024-06-17T10:36:47Z,227799.2,Schock,mshtuko,d,biashara,kukataza,vichekesho,NA,NA,1,"c(""distractor1"", ""distractor2"", ""distractor3"")",NA,NA,NA,NA,NA,NA,NA,NA,NA,NA,NA,NA,NA,NA,NA,NA,NA,NA,NA
1514d,shallow,flow.Sequence,2_13_0,NA,NA,completion,16664.84,211103,211101,211117.68,227782.52,227784,2024-06-17T10:36:47Z,227799.2,Schock,mshtuko,d,biashara,kukataza,vichekesho,NA,NA,NA,"c(""distractor1"", ""distractor2"", ""distractor3"")",NA,NA,NA,NA,NA,NA,NA,NA,NA,NA,NA,NA,NA,NA,NA,NA,NA,NA,NA
1514d,task,flow.Sequence,2_13,NA,NA,completion,16664.84,211103,211101,211117.68,227782.52,227784,2024-06-17T10:36:47Z,227799.2,Schock,mshtuko,d,biashara,kukataza,vichekesho,NA,NA,NA,"c(""distractor1"", ""distractor2"", ""distractor3"")",NA,NA,NA,NA,NA,NA,NA,NA,NA,NA,NA,NA,NA,NA,NA,NA,NA,NA,NA
1514d,Shallow Question,html.Page,2_14_0_0,NA,NA,form submission,7444.8,227785,227782.52,227799.2,235244,235245,2024-06-17T10:36:55Z,235248.42,Schlange,foleni,d,uvumilivu,uteuzi,muuzaji,foleni,NA,NA,"c(""distractor1"", ""distractor2"", ""distractor3"")",NA,NA,NA,NA,NA,NA,NA,NA,NA,NA,NA,NA,NA,NA,NA,NA,NA,NA,NA
1514d,Save data screen,canvas.Screen,2_14_0_1,NA,NA,timeout,494.19999999998,235251,235237.56,235248.42,235725.94,235727,2024-06-17T10:36:55Z,235742.62,Schlange,foleni,d,uvumilivu,uteuzi,muuzaji,NA,NA,1,"c(""distractor1"", ""distractor2"", ""distractor3"")",NA,NA,NA,NA,NA,NA,NA,NA,NA,NA,NA,NA,NA,NA,NA,NA,NA,NA,NA
1514d,shallow,flow.Sequence,2_14_0,NA,NA,completion,7926.74,227785,227782.52,227799.2,235725.94,235727,2024-06-17T10:36:55Z,235742.62,Schlange,foleni,d,uvumilivu,uteuzi,muuzaji,NA,NA,NA,"c(""distractor1"", ""distractor2"", ""distractor3"")",NA,NA,NA,NA,NA,NA,NA,NA,NA,NA,NA,NA,NA,NA,NA,NA,NA,NA,NA
1514d,task,flow.Sequence,2_14,NA,NA,completion,7926.74,227785,227782.52,227799.2,235725.94,235728,2024-06-17T10:36:55Z,235742.62,Schlange,foleni,d,uvumilivu,uteuzi,muuzaji,NA,NA,NA,"c(""distractor1"", ""distractor2"", ""distractor3"")",NA,NA,NA,NA,NA,NA,NA,NA,NA,NA,NA,NA,NA,NA,NA,NA,NA,NA,NA
1514d,Shallow Question,html.Page,2_15_0_0,NA,NA,form submission,7455.38,235728,235725.94,235742.62,243198,243199,2024-06-17T10:37:03Z,243203.48,Schüler,mwanafunzi,s,mwekezaji,matumizi,uaminifu,mwanafunzi,NA,NA,"c(""distractor1"", ""distractor2"", ""distractor3"")",NA,NA,NA,NA,NA,NA,NA,NA,NA,NA,NA,NA,NA,NA,NA,NA,NA,NA,NA
1514d,Save data screen,canvas.Screen,2_15_0_1,NA,NA,timeout,494.35999999999,243200,243194.9,243203.48,243681.14,243683,2024-06-17T10:37:03Z,243697.84,Schüler,mwanafunzi,s,mwekezaji,matumizi,uaminifu,NA,NA,1,"c(""distractor1"", ""distractor2"", ""distractor3"")",NA,NA,NA,NA,NA,NA,NA,NA,NA,NA,NA,NA,NA,NA,NA,NA,NA,NA,NA
1514d,shallow,flow.Sequence,2_15_0,NA,NA,completion,7938.52,235728,235725.94,235742.62,243681.14,243683,2024-06-17T10:37:03Z,243697.84,Schüler,mwanafunzi,s,mwekezaji,matumizi,uaminifu,NA,NA,NA,"c(""distractor1"", ""distractor2"", ""distractor3"")",NA,NA,NA,NA,NA,NA,NA,NA,NA,NA,NA,NA,NA,NA,NA,NA,NA,NA,NA
1514d,task,flow.Sequence,2_15,NA,NA,completion,7938.52,235728,235725.94,235742.62,243681.14,243683,2024-06-17T10:37:03Z,243697.84,Schüler,mwanafunzi,s,mwekezaji,matumizi,uaminifu,NA,NA,NA,"c(""distractor1"", ""distractor2"", ""distractor3"")",NA,NA,NA,NA,NA,NA,NA,NA,NA,NA,NA,NA,NA,NA,NA,NA,NA,NA,NA
1514d,retrieval block 2 (multiple choice),flow.Loop,2,NA,NA,completion,177868,65799,65796.46,65813.14,243681.14,243684,2024-06-17T10:37:03Z,243697.84,NA,NA,NA,NA,NA,NA,NA,NA,NA,"c(""distractor1"", ""distractor2"", ""distractor3"")",NA,NA,NA,NA,NA,NA,NA,NA,NA,NA,NA,NA,NA,NA,NA,NA,NA,NA,NA
1514d,End,canvas.Screen,3,NA,keypress(Space),response,1696.16,243684,243681.14,243697.84,245394,245417,2024-06-17T10:37:05Z,245419.04,NA,NA,NA,NA,NA,NA,NA,NA,NA,NULL,NA,NA,NA,NA,NA,NA,NA,NA,NA,NA,NA,NA,NA,NA,NA,NA,NA,NA,NA
1514d,root,flow.Sequence,NA,NA,NA,completion,244507.5,867,869.82,886.5,245394,245418,2024-06-17T10:37:05Z,245419.04,NA,NA,NA,NA,NA,NA,NA,NA,NA,NULL,NA,NA,NA,NA,NA,NA,NA,NA,NA,NA,NA,NA,NA,NA,NA,NA,NA,NA,NA
