observation,sender,sender_type,sender_id,response,response_action,ended_on,duration,time_run,time_render,time_show,time_end,time_commit,timestamp,time_switch,german,swahili,enc,distractor1,distractor2,distractor3,response_2,x,correct,distractors,url_vp,url_sess,meta_labjs_version,meta_location,meta_user_agent,meta_platform,meta_language,meta_locale,meta_time_zone,meta_timezone_offset,meta_screen_width,meta_screen_height,meta_scroll_width,meta_scroll_height,meta_window_inner_width,meta_window_inner_height,meta_device_pixel_ratio,meta_labjs_build_flavor,meta_labjs_build_commit
91444,Introduction delayed retrieval,canvas.Screen,0,weiter,keypress(Space),response,17456.264000048,942.5,941.79,958.436,18414.700000048,18425.700000048,2023-11-26T12:30:10Z,18420.691,NA,NA,NA,NA,NA,NA,NA,NA,NA,NULL,190,4,20.2.4,https://neurocog.fernuni.ch/studies/vweber/sliechti/delayed%203/index.html?vp=190&sess=4,"Mozilla/5.0 (Windows NT 10.0; Win64; x64) AppleWebKit/537.36 (KHTML, like Gecko) Chrome/119.0.0.0 Safari/537.36",Win32,de-DE,de,Europe/Zurich,-60,1368,912,1368,707,1368,755,2,production,f5b4a49f956347addd546a832a3327688c2c0fef
91444,Deep Question,html.Page,1_0_0_0,NA,NA,form submission,16501.608999952,18426.299999952,18403.251,18420.691,34922.299999952,34923.100000024,2023-11-26T12:30:26Z,34932.093,Körper,kiwiliwili,d,mapambano,mpatanishi,kiolezo,asteca,NA,NA,NULL,NA,NA,NA,NA,NA,NA,NA,NA,NA,NA,NA,NA,NA,NA,NA,NA,NA,NA,NA
91444,Save data screen,canvas.Screen,1_0_0_1,NA,NA,timeout,500.411,34924.899999976,34915.883,34932.093,35415.803,35417.399999976,2023-11-26T12:30:27Z,35432.504,Körper,kiwiliwili,d,mapambano,mpatanishi,kiolezo,NA,NA,0,NULL,NA,NA,NA,NA,NA,NA,NA,NA,NA,NA,NA,NA,NA,NA,NA,NA,NA,NA,NA
91444,deep,flow.Sequence,1_0_0,NA,NA,completion,16995.112,18426.200000048,18403.251,18420.691,35415.803,35417.899999976,2023-11-26T12:30:27Z,35432.504,Körper,kiwiliwili,d,mapambano,mpatanishi,kiolezo,NA,NA,NA,NULL,NA,NA,NA,NA,NA,NA,NA,NA,NA,NA,NA,NA,NA,NA,NA,NA,NA,NA,NA
91444,task,flow.Sequence,1_0,NA,NA,completion,16995.112,18426.200000048,18403.251,18420.691,35415.803,35418.200000048,2023-11-26T12:30:27Z,35432.504,Körper,kiwiliwili,d,mapambano,mpatanishi,kiolezo,NA,NA,NA,NULL,NA,NA,NA,NA,NA,NA,NA,NA,NA,NA,NA,NA,NA,NA,NA,NA,NA,NA,NA
91444,Deep Question,html.Page,1_1_0_0,NA,NA,form submission,2156.6960000477,35418.600000024,35415.803,35432.504,37589.200000048,37589.700000048,2023-11-26T12:30:29Z,37600.692,Übersicht,kilindo,d,mgusano,chipukizi,kulinganisha,k,NA,NA,NULL,NA,NA,NA,NA,NA,NA,NA,NA,NA,NA,NA,NA,NA,NA,NA,NA,NA,NA,NA
91444,Save data screen,canvas.Screen,1_1_0_1,NA,NA,timeout,500.694,37594.799999952,37584.311,37600.692,38084.653,38086,2023-11-26T12:30:29Z,38101.386,Übersicht,kilindo,d,mgusano,chipukizi,kulinganisha,NA,NA,0,NULL,NA,NA,NA,NA,NA,NA,NA,NA,NA,NA,NA,NA,NA,NA,NA,NA,NA,NA,NA
91444,deep,flow.Sequence,1_1_0,NA,NA,completion,2652.149,35418.399999976,35415.803,35432.504,38084.653,38086.5,2023-11-26T12:30:29Z,38101.386,Übersicht,kilindo,d,mgusano,chipukizi,kulinganisha,NA,NA,NA,NULL,NA,NA,NA,NA,NA,NA,NA,NA,NA,NA,NA,NA,NA,NA,NA,NA,NA,NA,NA
91444,task,flow.Sequence,1_1,NA,NA,completion,2652.149,35418.299999952,35415.803,35432.504,38084.653,38086.799999952,2023-11-26T12:30:29Z,38101.386,Übersicht,kilindo,d,mgusano,chipukizi,kulinganisha,NA,NA,NA,NULL,NA,NA,NA,NA,NA,NA,NA,NA,NA,NA,NA,NA,NA,NA,NA,NA,NA,NA,NA
91444,Deep Question,html.Page,1_2_0_0,NA,NA,form submission,1767.0139999762,38087.200000048,38084.653,38101.386,39868.399999976,39869.299999952,2023-11-26T12:30:31Z,39868.925,Lawine,banguko,s,maambukizi,usuluhishi,chekechea,ko,NA,NA,NULL,NA,NA,NA,NA,NA,NA,NA,NA,NA,NA,NA,NA,NA,NA,NA,NA,NA,NA,NA
91444,Save data screen,canvas.Screen,1_2_0_1,NA,NA,timeout,500.307,39871,39853.542,39868.925,40352.634,40354.399999976,2023-11-26T12:30:32Z,40369.232,Lawine,banguko,s,maambukizi,usuluhishi,chekechea,NA,NA,0,NULL,NA,NA,NA,NA,NA,NA,NA,NA,NA,NA,NA,NA,NA,NA,NA,NA,NA,NA,NA
91444,deep,flow.Sequence,1_2_0,NA,NA,completion,2251.248,38087.100000024,38084.653,38101.386,40352.634,40355,2023-11-26T12:30:32Z,40369.232,Lawine,banguko,s,maambukizi,usuluhishi,chekechea,NA,NA,NA,NULL,NA,NA,NA,NA,NA,NA,NA,NA,NA,NA,NA,NA,NA,NA,NA,NA,NA,NA,NA
91444,task,flow.Sequence,1_2,NA,NA,completion,2251.248,38087,38084.653,38101.386,40352.634,40355.200000048,2023-11-26T12:30:32Z,40369.232,Lawine,banguko,s,maambukizi,usuluhishi,chekechea,NA,NA,NA,NULL,NA,NA,NA,NA,NA,NA,NA,NA,NA,NA,NA,NA,NA,NA,NA,NA,NA,NA,NA
91444,Deep Question,html.Page,1_3_0_0,NA,NA,form submission,5000.1679999762,40355.399999976,40352.634,40369.232,45369.399999976,45369.899999976,2023-11-26T12:30:37Z,45372.712,Kultur,utamaduni,d,shetani,gerezani,mazingira,ko,NA,NA,NULL,NA,NA,NA,NA,NA,NA,NA,NA,NA,NA,NA,NA,NA,NA,NA,NA,NA,NA,NA
91444,Save data screen,canvas.Screen,1_3_0_1,NA,NA,timeout,500.346,45374.100000024,45356.599,45372.712,45856.682,45861.100000024,2023-11-26T12:30:37Z,45873.058,Kultur,utamaduni,d,shetani,gerezani,mazingira,NA,NA,0,NULL,NA,NA,NA,NA,NA,NA,NA,NA,NA,NA,NA,NA,NA,NA,NA,NA,NA,NA,NA
91444,deep,flow.Sequence,1_3_0,NA,NA,completion,5487.45,40355.399999976,40352.634,40369.232,45856.682,45861.399999976,2023-11-26T12:30:37Z,45873.058,Kultur,utamaduni,d,shetani,gerezani,mazingira,NA,NA,NA,NULL,NA,NA,NA,NA,NA,NA,NA,NA,NA,NA,NA,NA,NA,NA,NA,NA,NA,NA,NA
91444,task,flow.Sequence,1_3,NA,NA,completion,5487.45,40355.299999952,40352.634,40369.232,45856.682,45861.5,2023-11-26T12:30:37Z,45873.058,Kultur,utamaduni,d,shetani,gerezani,mazingira,NA,NA,NA,NULL,NA,NA,NA,NA,NA,NA,NA,NA,NA,NA,NA,NA,NA,NA,NA,NA,NA,NA,NA
91444,Deep Question,html.Page,1_4_0_0,NA,NA,form submission,2653.442,45861.700000048,45856.682,45873.058,48526.5,48527,2023-11-26T12:30:40Z,48541.604,System,maongozi,s,chokochoko,nuksani,mitaani,ko,NA,NA,NULL,NA,NA,NA,NA,NA,NA,NA,NA,NA,NA,NA,NA,NA,NA,NA,NA,NA,NA,NA
91444,Save data screen,canvas.Screen,1_4_0_1,NA,NA,timeout,500.383,48531.799999952,48516.403,48541.604,49025.781,49027.700000048,2023-11-26T12:30:40Z,49041.987,System,maongozi,s,chokochoko,nuksani,mitaani,NA,NA,0,NULL,NA,NA,NA,NA,NA,NA,NA,NA,NA,NA,NA,NA,NA,NA,NA,NA,NA,NA,NA
91444,deep,flow.Sequence,1_4_0,NA,NA,completion,3152.723,45861.600000024,45856.682,45873.058,49025.781,49028.200000048,2023-11-26T12:30:40Z,49041.987,System,maongozi,s,chokochoko,nuksani,mitaani,NA,NA,NA,NULL,NA,NA,NA,NA,NA,NA,NA,NA,NA,NA,NA,NA,NA,NA,NA,NA,NA,NA,NA
91444,task,flow.Sequence,1_4,NA,NA,completion,3152.723,45861.600000024,45856.682,45873.058,49025.781,49028.399999976,2023-11-26T12:30:40Z,49041.987,System,maongozi,s,chokochoko,nuksani,mitaani,NA,NA,NA,NULL,NA,NA,NA,NA,NA,NA,NA,NA,NA,NA,NA,NA,NA,NA,NA,NA,NA,NA,NA
91444,Deep Question,html.Page,1_5_0_0,NA,NA,form submission,3256.6130000238,49028.799999952,49025.781,49041.987,52298.600000024,52299,2023-11-26T12:30:44Z,52310.948,Angreifer,mshambulizi,s,kitengo,tasinia,usafirishaji,ko,NA,NA,NULL,NA,NA,NA,NA,NA,NA,NA,NA,NA,NA,NA,NA,NA,NA,NA,NA,NA,NA,NA
91444,Save data screen,canvas.Screen,1_5_0_1,NA,NA,timeout,500.292,52303.700000048,52284.5,52310.948,52794.887,52796.299999952,2023-11-26T12:30:44Z,52811.24,Angreifer,mshambulizi,s,kitengo,tasinia,usafirishaji,NA,NA,0,NULL,NA,NA,NA,NA,NA,NA,NA,NA,NA,NA,NA,NA,NA,NA,NA,NA,NA,NA,NA
91444,deep,flow.Sequence,1_5_0,NA,NA,completion,3752.9,49028.600000024,49025.781,49041.987,52794.887,52796.899999976,2023-11-26T12:30:44Z,52811.24,Angreifer,mshambulizi,s,kitengo,tasinia,usafirishaji,NA,NA,NA,NULL,NA,NA,NA,NA,NA,NA,NA,NA,NA,NA,NA,NA,NA,NA,NA,NA,NA,NA,NA
91444,task,flow.Sequence,1_5,NA,NA,completion,3752.9,49028.600000024,49025.781,49041.987,52794.887,52797.200000048,2023-11-26T12:30:44Z,52811.24,Angreifer,mshambulizi,s,kitengo,tasinia,usafirishaji,NA,NA,NA,NULL,NA,NA,NA,NA,NA,NA,NA,NA,NA,NA,NA,NA,NA,NA,NA,NA,NA,NA,NA
91444,Deep Question,html.Page,1_6_0_0,NA,NA,form submission,1664.4600000477,52797.5,52794.887,52811.24,54475.700000048,54476.399999976,2023-11-26T12:30:46Z,54479.078,Gefährdung,kuhatarisha,d,uchokozi,udhaifu,makorowezo,ko,NA,NA,NULL,NA,NA,NA,NA,NA,NA,NA,NA,NA,NA,NA,NA,NA,NA,NA,NA,NA,NA,NA
91444,Save data screen,canvas.Screen,1_6_0_1,NA,NA,timeout,500.395,54477.899999976,54465.21,54479.078,54963.039,54964.299999952,2023-11-26T12:30:46Z,54979.473,Gefährdung,kuhatarisha,d,uchokozi,udhaifu,makorowezo,NA,NA,0,NULL,NA,NA,NA,NA,NA,NA,NA,NA,NA,NA,NA,NA,NA,NA,NA,NA,NA,NA,NA
91444,deep,flow.Sequence,1_6_0,NA,NA,completion,2151.799,52797.399999976,52794.887,52811.24,54963.039,54964.799999952,2023-11-26T12:30:46Z,54979.473,Gefährdung,kuhatarisha,d,uchokozi,udhaifu,makorowezo,NA,NA,NA,NULL,NA,NA,NA,NA,NA,NA,NA,NA,NA,NA,NA,NA,NA,NA,NA,NA,NA,NA,NA
91444,task,flow.Sequence,1_6,NA,NA,completion,2151.799,52797.399999976,52794.887,52811.24,54963.039,54965.100000024,2023-11-26T12:30:46Z,54979.473,Gefährdung,kuhatarisha,d,uchokozi,udhaifu,makorowezo,NA,NA,NA,NULL,NA,NA,NA,NA,NA,NA,NA,NA,NA,NA,NA,NA,NA,NA,NA,NA,NA,NA,NA
91444,Deep Question,html.Page,1_7_0_0,NA,NA,form submission,1487.6270000238,54965.399999976,54963.039,54979.473,56467.100000024,56467.5,2023-11-26T12:30:48Z,56480.473,Kontrolle,kudhibiti,d,mbinguni,kufunga,utegemezi,ko,NA,NA,NULL,NA,NA,NA,NA,NA,NA,NA,NA,NA,NA,NA,NA,NA,NA,NA,NA,NA,NA,NA
91444,Save data screen,canvas.Screen,1_7_0_1,NA,NA,timeout,500.552,56468.899999976,56457.678,56480.473,56964.453,56965.700000048,2023-11-26T12:30:48Z,56981.025,Kontrolle,kudhibiti,d,mbinguni,kufunga,utegemezi,NA,NA,0,NULL,NA,NA,NA,NA,NA,NA,NA,NA,NA,NA,NA,NA,NA,NA,NA,NA,NA,NA,NA
91444,deep,flow.Sequence,1_7_0,NA,NA,completion,1984.98,54965.299999952,54963.039,54979.473,56964.453,56966.200000048,2023-11-26T12:30:48Z,56981.025,Kontrolle,kudhibiti,d,mbinguni,kufunga,utegemezi,NA,NA,NA,NULL,NA,NA,NA,NA,NA,NA,NA,NA,NA,NA,NA,NA,NA,NA,NA,NA,NA,NA,NA
91444,task,flow.Sequence,1_7,NA,NA,completion,1984.98,54965.200000048,54963.039,54979.473,56964.453,56966.399999976,2023-11-26T12:30:48Z,56981.025,Kontrolle,kudhibiti,d,mbinguni,kufunga,utegemezi,NA,NA,NA,NULL,NA,NA,NA,NA,NA,NA,NA,NA,NA,NA,NA,NA,NA,NA,NA,NA,NA,NA,NA
91444,Deep Question,html.Page,1_8_0_0,NA,NA,form submission,2178.5750000238,56966.700000048,56964.453,56981.025,59159.600000024,59160.299999952,2023-11-26T12:30:50Z,59182.371,Kreativität,ubunifu,s,mratibu,mwendelezo,makubaliano,ko,NA,NA,NULL,NA,NA,NA,NA,NA,NA,NA,NA,NA,NA,NA,NA,NA,NA,NA,NA,NA,NA,NA
91444,Save data screen,canvas.Screen,1_8_0_1,NA,NA,timeout,500.393,59161.600000024,59152.131,59182.371,59666.47,59672.399999976,2023-11-26T12:30:51Z,59682.764,Kreativität,ubunifu,s,mratibu,mwendelezo,makubaliano,NA,NA,0,NULL,NA,NA,NA,NA,NA,NA,NA,NA,NA,NA,NA,NA,NA,NA,NA,NA,NA,NA,NA
91444,deep,flow.Sequence,1_8_0,NA,NA,completion,2685.445,56966.700000048,56964.453,56981.025,59666.47,59673,2023-11-26T12:30:51Z,59682.764,Kreativität,ubunifu,s,mratibu,mwendelezo,makubaliano,NA,NA,NA,NULL,NA,NA,NA,NA,NA,NA,NA,NA,NA,NA,NA,NA,NA,NA,NA,NA,NA,NA,NA
91444,task,flow.Sequence,1_8,NA,NA,completion,2685.445,56966.600000024,56964.453,56981.025,59666.47,59673.399999976,2023-11-26T12:30:51Z,59682.764,Kreativität,ubunifu,s,mratibu,mwendelezo,makubaliano,NA,NA,NA,NULL,NA,NA,NA,NA,NA,NA,NA,NA,NA,NA,NA,NA,NA,NA,NA,NA,NA,NA,NA
91444,Deep Question,html.Page,1_9_0_0,NA,NA,form submission,2033.236,59673.600000024,59666.47,59682.764,61716,61716.600000024,2023-11-26T12:30:53Z,61734.118,Prüfung,mtihani,s,mkulima,mtizamo,ufumbuzi,ko,NA,NA,NULL,NA,NA,NA,NA,NA,NA,NA,NA,NA,NA,NA,NA,NA,NA,NA,NA,NA,NA,NA
91444,Save data screen,canvas.Screen,1_9_0_1,NA,NA,timeout,500.364,61721,61709.725,61734.118,62217.865,62226.399999976,2023-11-26T12:30:53Z,62234.482,Prüfung,mtihani,s,mkulima,mtizamo,ufumbuzi,NA,NA,0,NULL,NA,NA,NA,NA,NA,NA,NA,NA,NA,NA,NA,NA,NA,NA,NA,NA,NA,NA,NA
91444,deep,flow.Sequence,1_9_0,NA,NA,completion,2535.101,59673.600000024,59666.47,59682.764,62217.865,62226.899999976,2023-11-26T12:30:53Z,62234.482,Prüfung,mtihani,s,mkulima,mtizamo,ufumbuzi,NA,NA,NA,NULL,NA,NA,NA,NA,NA,NA,NA,NA,NA,NA,NA,NA,NA,NA,NA,NA,NA,NA,NA
91444,task,flow.Sequence,1_9,NA,NA,completion,2535.101,59673.5,59666.47,59682.764,62217.865,62227,2023-11-26T12:30:53Z,62234.482,Prüfung,mtihani,s,mkulima,mtizamo,ufumbuzi,NA,NA,NA,NULL,NA,NA,NA,NA,NA,NA,NA,NA,NA,NA,NA,NA,NA,NA,NA,NA,NA,NA,NA
91444,Deep Question,html.Page,1_10_0_0,NA,NA,form submission,1821.8179999523,62227.200000048,62217.865,62234.482,64056.299999952,64060.399999976,2023-11-26T12:30:55Z,64069.081,Verzögerung,kuchelewa,d,mwakilishi,mwanauchumi,jaribio,ko,NA,NA,NULL,NA,NA,NA,NA,NA,NA,NA,NA,NA,NA,NA,NA,NA,NA,NA,NA,NA,NA,NA
91444,Save data screen,canvas.Screen,1_10_0_1,NA,NA,timeout,500.452,64061.799999952,64048.878,64069.081,64552.794,64560.799999952,2023-11-26T12:30:56Z,64569.533,Verzögerung,kuchelewa,d,mwakilishi,mwanauchumi,jaribio,NA,NA,0,NULL,NA,NA,NA,NA,NA,NA,NA,NA,NA,NA,NA,NA,NA,NA,NA,NA,NA,NA,NA
91444,deep,flow.Sequence,1_10_0,NA,NA,completion,2318.312,62227.200000048,62217.865,62234.482,64552.794,64560.899999976,2023-11-26T12:30:56Z,64569.533,Verzögerung,kuchelewa,d,mwakilishi,mwanauchumi,jaribio,NA,NA,NA,NULL,NA,NA,NA,NA,NA,NA,NA,NA,NA,NA,NA,NA,NA,NA,NA,NA,NA,NA,NA
91444,task,flow.Sequence,1_10,NA,NA,completion,2318.312,62227.100000024,62217.865,62234.482,64552.794,64561.100000024,2023-11-26T12:30:56Z,64569.533,Verzögerung,kuchelewa,d,mwakilishi,mwanauchumi,jaribio,NA,NA,NA,NULL,NA,NA,NA,NA,NA,NA,NA,NA,NA,NA,NA,NA,NA,NA,NA,NA,NA,NA,NA
91444,Deep Question,html.Page,1_11_0_0,NA,NA,form submission,7951.1670000477,64561.299999952,64552.794,64569.533,72520.700000048,72521.399999976,2023-11-26T12:31:04Z,72541.721,Aufstand,ugomaji,s,mazidio,msingi,kujieleza,usulubu,NA,NA,NULL,NA,NA,NA,NA,NA,NA,NA,NA,NA,NA,NA,NA,NA,NA,NA,NA,NA,NA,NA
91444,Save data screen,canvas.Screen,1_11_0_1,NA,NA,timeout,500.29299999999,72526,72514.349,72541.721,73025.721,73027,2023-11-26T12:31:04Z,73042.014,Aufstand,ugomaji,s,mazidio,msingi,kujieleza,NA,NA,0,NULL,NA,NA,NA,NA,NA,NA,NA,NA,NA,NA,NA,NA,NA,NA,NA,NA,NA,NA,NA
91444,deep,flow.Sequence,1_11_0,NA,NA,completion,8456.188,64561.200000048,64552.794,64569.533,73025.721,73027.399999976,2023-11-26T12:31:04Z,73042.014,Aufstand,ugomaji,s,mazidio,msingi,kujieleza,NA,NA,NA,NULL,NA,NA,NA,NA,NA,NA,NA,NA,NA,NA,NA,NA,NA,NA,NA,NA,NA,NA,NA
91444,task,flow.Sequence,1_11,NA,NA,completion,8456.188,64561.200000048,64552.794,64569.533,73025.721,73027.700000048,2023-11-26T12:31:04Z,73042.014,Aufstand,ugomaji,s,mazidio,msingi,kujieleza,NA,NA,NA,NULL,NA,NA,NA,NA,NA,NA,NA,NA,NA,NA,NA,NA,NA,NA,NA,NA,NA,NA,NA
91444,Deep Question,html.Page,1_12_0_0,NA,NA,form submission,15477.385999976,73028,73025.721,73042.014,88519.399999976,88520.200000048,2023-11-26T12:31:20Z,88543.629,Kanzler,diwani,d,rasilmali,mahitaji,maabudu,dawina,NA,NA,NULL,NA,NA,NA,NA,NA,NA,NA,NA,NA,NA,NA,NA,NA,NA,NA,NA,NA,NA,NA
91444,Save data screen,canvas.Screen,1_12_0_1,NA,NA,timeout,493.209,88524.700000048,88504.222,88543.629,89019.914,89021.100000024,2023-11-26T12:31:20Z,89036.838,Kanzler,diwani,d,rasilmali,mahitaji,maabudu,NA,NA,0,NULL,NA,NA,NA,NA,NA,NA,NA,NA,NA,NA,NA,NA,NA,NA,NA,NA,NA,NA,NA
91444,deep,flow.Sequence,1_12_0,NA,NA,completion,15977.9,73027.899999976,73025.721,73042.014,89019.914,89021.5,2023-11-26T12:31:20Z,89036.838,Kanzler,diwani,d,rasilmali,mahitaji,maabudu,NA,NA,NA,NULL,NA,NA,NA,NA,NA,NA,NA,NA,NA,NA,NA,NA,NA,NA,NA,NA,NA,NA,NA
91444,task,flow.Sequence,1_12,NA,NA,completion,15977.9,73027.899999976,73025.721,73042.014,89019.914,89021.799999952,2023-11-26T12:31:20Z,89036.838,Kanzler,diwani,d,rasilmali,mahitaji,maabudu,NA,NA,NA,NULL,NA,NA,NA,NA,NA,NA,NA,NA,NA,NA,NA,NA,NA,NA,NA,NA,NA,NA,NA
91444,Deep Question,html.Page,1_13_0_0,NA,NA,form submission,2101.662,89022.299999952,89019.914,89036.838,91138.5,91139.200000048,2023-11-26T12:31:22Z,91160.426,Sänger,mwimbaji,s,msichana,shughuli,mshirika,ko,NA,NA,NULL,NA,NA,NA,NA,NA,NA,NA,NA,NA,NA,NA,NA,NA,NA,NA,NA,NA,NA,NA
91444,Save data screen,canvas.Screen,1_13_0_1,NA,NA,timeout,494.579,91140.799999952,91132.757,91160.426,91638.699,91639.899999976,2023-11-26T12:31:23Z,91655.005,Sänger,mwimbaji,s,msichana,shughuli,mshirika,NA,NA,0,NULL,NA,NA,NA,NA,NA,NA,NA,NA,NA,NA,NA,NA,NA,NA,NA,NA,NA,NA,NA
91444,deep,flow.Sequence,1_13_0,NA,NA,completion,2601.861,89022,89019.914,89036.838,91638.699,91640.299999952,2023-11-26T12:31:23Z,91655.005,Sänger,mwimbaji,s,msichana,shughuli,mshirika,NA,NA,NA,NULL,NA,NA,NA,NA,NA,NA,NA,NA,NA,NA,NA,NA,NA,NA,NA,NA,NA,NA,NA
91444,task,flow.Sequence,1_13,NA,NA,completion,2601.861,89022,89019.914,89036.838,91638.699,91640.5,2023-11-26T12:31:23Z,91655.005,Sänger,mwimbaji,s,msichana,shughuli,mshirika,NA,NA,NA,NULL,NA,NA,NA,NA,NA,NA,NA,NA,NA,NA,NA,NA,NA,NA,NA,NA,NA,NA,NA
91444,Deep Question,html.Page,1_14_0_0,NA,NA,form submission,1618.995,91640.700000048,91638.699,91655.005,93274,93274.399999976,2023-11-26T12:31:24Z,93289.461,Abrechnung,uhasibu,d,kusahihisha,mpambano,mashambulizi,ko,NA,NA,NULL,NA,NA,NA,NA,NA,NA,NA,NA,NA,NA,NA,NA,NA,NA,NA,NA,NA,NA,NA
91444,Save data screen,canvas.Screen,1_14_0_1,NA,NA,timeout,500.72200000001,93275.799999952,93270.962,93289.461,93773.508,93774.700000048,2023-11-26T12:31:25Z,93790.183,Abrechnung,uhasibu,d,kusahihisha,mpambano,mashambulizi,NA,NA,0,NULL,NA,NA,NA,NA,NA,NA,NA,NA,NA,NA,NA,NA,NA,NA,NA,NA,NA,NA,NA
91444,deep,flow.Sequence,1_14_0,NA,NA,completion,2118.503,91640.700000048,91638.699,91655.005,93773.508,93775.200000048,2023-11-26T12:31:25Z,93790.183,Abrechnung,uhasibu,d,kusahihisha,mpambano,mashambulizi,NA,NA,NA,NULL,NA,NA,NA,NA,NA,NA,NA,NA,NA,NA,NA,NA,NA,NA,NA,NA,NA,NA,NA
91444,task,flow.Sequence,1_14,NA,NA,completion,2118.503,91640.700000048,91638.699,91655.005,93773.508,93775.5,2023-11-26T12:31:25Z,93790.183,Abrechnung,uhasibu,d,kusahihisha,mpambano,mashambulizi,NA,NA,NA,NULL,NA,NA,NA,NA,NA,NA,NA,NA,NA,NA,NA,NA,NA,NA,NA,NA,NA,NA,NA
91444,Deep Question,html.Page,1_15_0_0,NA,NA,form submission,1610.5170000477,93775.799999952,93773.508,93790.183,95400.700000048,95401.100000024,2023-11-26T12:31:27Z,95407.655,Können,unaweza,s,kiongozi,bustani,mienendo,ko,NA,NA,NULL,NA,NA,NA,NA,NA,NA,NA,NA,NA,NA,NA,NA,NA,NA,NA,NA,NA,NA,NA
91444,Save data screen,canvas.Screen,1_15_0_1,NA,NA,timeout,500.38,95402.600000024,95393.257,95407.655,95891.728,95893,2023-11-26T12:31:27Z,95908.035,Können,unaweza,s,kiongozi,bustani,mienendo,NA,NA,0,NULL,NA,NA,NA,NA,NA,NA,NA,NA,NA,NA,NA,NA,NA,NA,NA,NA,NA,NA,NA
91444,deep,flow.Sequence,1_15_0,NA,NA,completion,2101.545,93775.700000048,93773.508,93790.183,95891.728,95893.399999976,2023-11-26T12:31:27Z,95908.035,Können,unaweza,s,kiongozi,bustani,mienendo,NA,NA,NA,NULL,NA,NA,NA,NA,NA,NA,NA,NA,NA,NA,NA,NA,NA,NA,NA,NA,NA,NA,NA
91444,task,flow.Sequence,1_15,NA,NA,completion,2101.545,93775.600000024,93773.508,93790.183,95891.728,95893.700000048,2023-11-26T12:31:27Z,95908.035,Können,unaweza,s,kiongozi,bustani,mienendo,NA,NA,NA,NULL,NA,NA,NA,NA,NA,NA,NA,NA,NA,NA,NA,NA,NA,NA,NA,NA,NA,NA,NA
91444,retrieval block 1 (cued recall),flow.Loop,1,NA,NA,completion,77471.037,18426.200000048,18403.251,18420.691,95891.728,95894,2023-11-26T12:31:27Z,95908.035,NA,NA,NA,NA,NA,NA,NA,NA,NA,NULL,NA,NA,NA,NA,NA,NA,NA,NA,NA,NA,NA,NA,NA,NA,NA,NA,NA,NA,NA
91444,Shallow Question,html.Page,2_0_0_0,NA,NA,form submission,6930.2649999523,95894.299999952,95891.728,95908.035,102838.29999995,102838.70000005,2023-11-26T12:31:34Z,102846.171,Lawine,banguko,s,maambukizi,usuluhishi,chekechea,banguko,NA,NA,"c(""distractor1"", ""distractor2"", ""distractor3"")",NA,NA,NA,NA,NA,NA,NA,NA,NA,NA,NA,NA,NA,NA,NA,NA,NA,NA,NA
91444,Save data screen,canvas.Screen,2_0_0_1,NA,NA,timeout,500.383,102844.20000005,102830.118,102846.171,103330.164,103331.60000002,2023-11-26T12:31:35Z,103346.554,Lawine,banguko,s,maambukizi,usuluhishi,chekechea,NA,NA,1,"c(""distractor1"", ""distractor2"", ""distractor3"")",NA,NA,NA,NA,NA,NA,NA,NA,NA,NA,NA,NA,NA,NA,NA,NA,NA,NA,NA
91444,shallow,flow.Sequence,2_0_0,NA,NA,completion,7422.129,95894.299999952,95891.728,95908.035,103330.164,103332.10000002,2023-11-26T12:31:35Z,103346.554,Lawine,banguko,s,maambukizi,usuluhishi,chekechea,NA,NA,NA,"c(""distractor1"", ""distractor2"", ""distractor3"")",NA,NA,NA,NA,NA,NA,NA,NA,NA,NA,NA,NA,NA,NA,NA,NA,NA,NA,NA
91444,task,flow.Sequence,2_0,NA,NA,completion,7422.129,95894.200000048,95891.728,95908.035,103330.164,103332.39999998,2023-11-26T12:31:35Z,103346.554,Lawine,banguko,s,maambukizi,usuluhishi,chekechea,NA,NA,NA,"c(""distractor1"", ""distractor2"", ""distractor3"")",NA,NA,NA,NA,NA,NA,NA,NA,NA,NA,NA,NA,NA,NA,NA,NA,NA,NA,NA
91444,Shallow Question,html.Page,2_1_0_0,NA,NA,form submission,5550.446,103332.70000005,103330.164,103346.554,108897,108897.39999998,2023-11-26T12:31:40Z,108900.391,Verzögerung,kuchelewa,d,mwakilishi,mwanauchumi,jaribio,kuchelewa,NA,NA,"c(""distractor1"", ""distractor2"", ""distractor3"")",NA,NA,NA,NA,NA,NA,NA,NA,NA,NA,NA,NA,NA,NA,NA,NA,NA,NA,NA
91444,Save data screen,canvas.Screen,2_1_0_1,NA,NA,timeout,500.32399999999,108902.5,108884.084,108900.391,109384.064,109385.29999995,2023-11-26T12:31:41Z,109400.715,Verzögerung,kuchelewa,d,mwakilishi,mwanauchumi,jaribio,NA,NA,1,"c(""distractor1"", ""distractor2"", ""distractor3"")",NA,NA,NA,NA,NA,NA,NA,NA,NA,NA,NA,NA,NA,NA,NA,NA,NA,NA,NA
91444,shallow,flow.Sequence,2_1_0,NA,NA,completion,6037.51,103332.70000005,103330.164,103346.554,109384.064,109385.60000002,2023-11-26T12:31:41Z,109400.715,Verzögerung,kuchelewa,d,mwakilishi,mwanauchumi,jaribio,NA,NA,NA,"c(""distractor1"", ""distractor2"", ""distractor3"")",NA,NA,NA,NA,NA,NA,NA,NA,NA,NA,NA,NA,NA,NA,NA,NA,NA,NA,NA
91444,task,flow.Sequence,2_1,NA,NA,completion,6037.51,103332.60000002,103330.164,103346.554,109384.064,109385.79999995,2023-11-26T12:31:41Z,109400.715,Verzögerung,kuchelewa,d,mwakilishi,mwanauchumi,jaribio,NA,NA,NA,"c(""distractor1"", ""distractor2"", ""distractor3"")",NA,NA,NA,NA,NA,NA,NA,NA,NA,NA,NA,NA,NA,NA,NA,NA,NA,NA,NA
91444,Shallow Question,html.Page,2_2_0_0,NA,NA,form submission,7152.1849999762,109386,109384.064,109400.715,116552.89999998,116553.29999995,2023-11-26T12:31:48Z,116555.695,Gefährdung,kuhatarisha,d,uchokozi,udhaifu,makorowezo,udhaifu,NA,NA,"c(""distractor1"", ""distractor2"", ""distractor3"")",NA,NA,NA,NA,NA,NA,NA,NA,NA,NA,NA,NA,NA,NA,NA,NA,NA,NA,NA
91444,Save data screen,canvas.Screen,2_2_0_1,NA,NA,timeout,500.45299999999,116559.60000002,116539.82,116555.695,117039.757,117041,2023-11-26T12:31:48Z,117056.148,Gefährdung,kuhatarisha,d,uchokozi,udhaifu,makorowezo,NA,NA,0,"c(""distractor1"", ""distractor2"", ""distractor3"")",NA,NA,NA,NA,NA,NA,NA,NA,NA,NA,NA,NA,NA,NA,NA,NA,NA,NA,NA
91444,shallow,flow.Sequence,2_2_0,NA,NA,completion,7639.042,109386,109384.064,109400.715,117039.757,117041.5,2023-11-26T12:31:48Z,117056.148,Gefährdung,kuhatarisha,d,uchokozi,udhaifu,makorowezo,NA,NA,NA,"c(""distractor1"", ""distractor2"", ""distractor3"")",NA,NA,NA,NA,NA,NA,NA,NA,NA,NA,NA,NA,NA,NA,NA,NA,NA,NA,NA
91444,task,flow.Sequence,2_2,NA,NA,completion,7639.042,109386,109384.064,109400.715,117039.757,117041.60000002,2023-11-26T12:31:48Z,117056.148,Gefährdung,kuhatarisha,d,uchokozi,udhaifu,makorowezo,NA,NA,NA,"c(""distractor1"", ""distractor2"", ""distractor3"")",NA,NA,NA,NA,NA,NA,NA,NA,NA,NA,NA,NA,NA,NA,NA,NA,NA,NA,NA
91444,Shallow Question,html.Page,2_3_0_0,NA,NA,form submission,8087.852,117041.79999995,117039.757,117056.148,125144,125144.29999995,2023-11-26T12:31:56Z,125145.033,Angreifer,mshambulizi,s,kitengo,tasinia,usafirishaji,kitengo,NA,NA,"c(""distractor1"", ""distractor2"", ""distractor3"")",NA,NA,NA,NA,NA,NA,NA,NA,NA,NA,NA,NA,NA,NA,NA,NA,NA,NA,NA
91444,Save data screen,canvas.Screen,2_3_0_1,NA,NA,timeout,500.61500000001,125150.5,125128.725,125145.033,125629.129,125630.5,2023-11-26T12:31:57Z,125645.648,Angreifer,mshambulizi,s,kitengo,tasinia,usafirishaji,NA,NA,0,"c(""distractor1"", ""distractor2"", ""distractor3"")",NA,NA,NA,NA,NA,NA,NA,NA,NA,NA,NA,NA,NA,NA,NA,NA,NA,NA,NA
91444,shallow,flow.Sequence,2_3_0,NA,NA,completion,8572.981,117041.70000005,117039.757,117056.148,125629.129,125630.79999995,2023-11-26T12:31:57Z,125645.648,Angreifer,mshambulizi,s,kitengo,tasinia,usafirishaji,NA,NA,NA,"c(""distractor1"", ""distractor2"", ""distractor3"")",NA,NA,NA,NA,NA,NA,NA,NA,NA,NA,NA,NA,NA,NA,NA,NA,NA,NA,NA
91444,task,flow.Sequence,2_3,NA,NA,completion,8572.981,117041.70000005,117039.757,117056.148,125629.129,125631,2023-11-26T12:31:57Z,125645.648,Angreifer,mshambulizi,s,kitengo,tasinia,usafirishaji,NA,NA,NA,"c(""distractor1"", ""distractor2"", ""distractor3"")",NA,NA,NA,NA,NA,NA,NA,NA,NA,NA,NA,NA,NA,NA,NA,NA,NA,NA,NA
91444,Shallow Question,html.Page,2_4_0_0,NA,NA,form submission,7397.0520000477,125631.20000005,125629.129,125645.648,133042.70000005,133043.10000002,2023-11-26T12:32:04Z,133050.815,System,maongozi,s,chokochoko,nuksani,mitaani,maongozi,NA,NA,"c(""distractor1"", ""distractor2"", ""distractor3"")",NA,NA,NA,NA,NA,NA,NA,NA,NA,NA,NA,NA,NA,NA,NA,NA,NA,NA,NA
91444,Save data screen,canvas.Screen,2_4_0_1,NA,NA,timeout,500.07800000001,133047.70000005,133034.231,133050.815,133534.228,133535.29999995,2023-11-26T12:32:05Z,133550.893,System,maongozi,s,chokochoko,nuksani,mitaani,NA,NA,1,"c(""distractor1"", ""distractor2"", ""distractor3"")",NA,NA,NA,NA,NA,NA,NA,NA,NA,NA,NA,NA,NA,NA,NA,NA,NA,NA,NA
91444,shallow,flow.Sequence,2_4_0,NA,NA,completion,7888.58,125631.20000005,125629.129,125645.648,133534.228,133535.60000002,2023-11-26T12:32:05Z,133550.893,System,maongozi,s,chokochoko,nuksani,mitaani,NA,NA,NA,"c(""distractor1"", ""distractor2"", ""distractor3"")",NA,NA,NA,NA,NA,NA,NA,NA,NA,NA,NA,NA,NA,NA,NA,NA,NA,NA,NA
91444,task,flow.Sequence,2_4,NA,NA,completion,7888.58,125631.20000005,125629.129,125645.648,133534.228,133535.79999995,2023-11-26T12:32:05Z,133550.893,System,maongozi,s,chokochoko,nuksani,mitaani,NA,NA,NA,"c(""distractor1"", ""distractor2"", ""distractor3"")",NA,NA,NA,NA,NA,NA,NA,NA,NA,NA,NA,NA,NA,NA,NA,NA,NA,NA,NA
91444,Shallow Question,html.Page,2_5_0_0,NA,NA,form submission,7363.8070000477,133536.39999998,133534.228,133550.893,140914.70000005,140915.10000002,2023-11-26T12:32:12Z,140922.706,Sänger,mwimbaji,s,msichana,shughuli,mshirika,mshirika,NA,NA,"c(""distractor1"", ""distractor2"", ""distractor3"")",NA,NA,NA,NA,NA,NA,NA,NA,NA,NA,NA,NA,NA,NA,NA,NA,NA,NA,NA
91444,Save data screen,canvas.Screen,2_5_0_1,NA,NA,timeout,500.342,140919.79999995,140906.334,140922.706,141406.881,141408.60000002,2023-11-26T12:32:13Z,141423.048,Sänger,mwimbaji,s,msichana,shughuli,mshirika,NA,NA,0,"c(""distractor1"", ""distractor2"", ""distractor3"")",NA,NA,NA,NA,NA,NA,NA,NA,NA,NA,NA,NA,NA,NA,NA,NA,NA,NA,NA
91444,shallow,flow.Sequence,2_5_0,NA,NA,completion,7855.988,133535.89999998,133534.228,133550.893,141406.881,141409.20000005,2023-11-26T12:32:13Z,141423.048,Sänger,mwimbaji,s,msichana,shughuli,mshirika,NA,NA,NA,"c(""distractor1"", ""distractor2"", ""distractor3"")",NA,NA,NA,NA,NA,NA,NA,NA,NA,NA,NA,NA,NA,NA,NA,NA,NA,NA,NA
91444,task,flow.Sequence,2_5,NA,NA,completion,7855.988,133535.89999998,133534.228,133550.893,141406.881,141409.39999998,2023-11-26T12:32:13Z,141423.048,Sänger,mwimbaji,s,msichana,shughuli,mshirika,NA,NA,NA,"c(""distractor1"", ""distractor2"", ""distractor3"")",NA,NA,NA,NA,NA,NA,NA,NA,NA,NA,NA,NA,NA,NA,NA,NA,NA,NA,NA
91444,Shallow Question,html.Page,2_6_0_0,NA,NA,form submission,6289.1520000477,141409.89999998,141406.881,141423.048,147712.20000005,147712.60000002,2023-11-26T12:32:19Z,147727.496,Übersicht,kilindo,d,mgusano,chipukizi,kulinganisha,kilindo,NA,NA,"c(""distractor1"", ""distractor2"", ""distractor3"")",NA,NA,NA,NA,NA,NA,NA,NA,NA,NA,NA,NA,NA,NA,NA,NA,NA,NA,NA
91444,Save data screen,canvas.Screen,2_6_0_1,NA,NA,timeout,500.58799999999,147716.29999995,147710.683,147727.496,148211.128,148212.5,2023-11-26T12:32:19Z,148228.084,Übersicht,kilindo,d,mgusano,chipukizi,kulinganisha,NA,NA,1,"c(""distractor1"", ""distractor2"", ""distractor3"")",NA,NA,NA,NA,NA,NA,NA,NA,NA,NA,NA,NA,NA,NA,NA,NA,NA,NA,NA
91444,shallow,flow.Sequence,2_6_0,NA,NA,completion,6788.08,141409.60000002,141406.881,141423.048,148211.128,148213,2023-11-26T12:32:19Z,148228.084,Übersicht,kilindo,d,mgusano,chipukizi,kulinganisha,NA,NA,NA,"c(""distractor1"", ""distractor2"", ""distractor3"")",NA,NA,NA,NA,NA,NA,NA,NA,NA,NA,NA,NA,NA,NA,NA,NA,NA,NA,NA
91444,task,flow.Sequence,2_6,NA,NA,completion,6788.08,141409.60000002,141406.881,141423.048,148211.128,148213.29999995,2023-11-26T12:32:19Z,148228.084,Übersicht,kilindo,d,mgusano,chipukizi,kulinganisha,NA,NA,NA,"c(""distractor1"", ""distractor2"", ""distractor3"")",NA,NA,NA,NA,NA,NA,NA,NA,NA,NA,NA,NA,NA,NA,NA,NA,NA,NA,NA
91444,Shallow Question,html.Page,2_7_0_0,NA,NA,form submission,5835.7159999523,148213.5,148211.128,148228.084,154063.79999995,154064.20000005,2023-11-26T12:32:25Z,154065.192,Aufstand,ugomaji,s,mazidio,msingi,kujieleza,ugomaji,NA,NA,"c(""distractor1"", ""distractor2"", ""distractor3"")",NA,NA,NA,NA,NA,NA,NA,NA,NA,NA,NA,NA,NA,NA,NA,NA,NA,NA,NA
91444,Save data screen,canvas.Screen,2_7_0_1,NA,NA,timeout,500.67499999999,154068.10000002,154049.07,154065.192,154549.378,154550.70000005,2023-11-26T12:32:26Z,154565.867,Aufstand,ugomaji,s,mazidio,msingi,kujieleza,NA,NA,1,"c(""distractor1"", ""distractor2"", ""distractor3"")",NA,NA,NA,NA,NA,NA,NA,NA,NA,NA,NA,NA,NA,NA,NA,NA,NA,NA,NA
91444,shallow,flow.Sequence,2_7_0,NA,NA,completion,6321.294,148213.5,148211.128,148228.084,154549.378,154551.10000002,2023-11-26T12:32:26Z,154565.867,Aufstand,ugomaji,s,mazidio,msingi,kujieleza,NA,NA,NA,"c(""distractor1"", ""distractor2"", ""distractor3"")",NA,NA,NA,NA,NA,NA,NA,NA,NA,NA,NA,NA,NA,NA,NA,NA,NA,NA,NA
91444,task,flow.Sequence,2_7,NA,NA,completion,6321.294,148213.39999998,148211.128,148228.084,154549.378,154551.29999995,2023-11-26T12:32:26Z,154565.867,Aufstand,ugomaji,s,mazidio,msingi,kujieleza,NA,NA,NA,"c(""distractor1"", ""distractor2"", ""distractor3"")",NA,NA,NA,NA,NA,NA,NA,NA,NA,NA,NA,NA,NA,NA,NA,NA,NA,NA,NA
91444,Shallow Question,html.Page,2_8_0_0,NA,NA,form submission,4895.4329999523,154551.60000002,154549.378,154565.867,159461.29999995,159461.70000005,2023-11-26T12:32:31Z,159468.977,Prüfung,mtihani,s,mkulima,mtizamo,ufumbuzi,mtihani,NA,NA,"c(""distractor1"", ""distractor2"", ""distractor3"")",NA,NA,NA,NA,NA,NA,NA,NA,NA,NA,NA,NA,NA,NA,NA,NA,NA,NA,NA
91444,Save data screen,canvas.Screen,2_8_0_1,NA,NA,timeout,500.34499999997,159466.29999995,159452.385,159468.977,159952.659,159954.29999995,2023-11-26T12:32:31Z,159969.322,Prüfung,mtihani,s,mkulima,mtizamo,ufumbuzi,NA,NA,1,"c(""distractor1"", ""distractor2"", ""distractor3"")",NA,NA,NA,NA,NA,NA,NA,NA,NA,NA,NA,NA,NA,NA,NA,NA,NA,NA,NA
91444,shallow,flow.Sequence,2_8_0,NA,NA,completion,5386.792,154551.5,154549.378,154565.867,159952.659,159954.60000002,2023-11-26T12:32:31Z,159969.322,Prüfung,mtihani,s,mkulima,mtizamo,ufumbuzi,NA,NA,NA,"c(""distractor1"", ""distractor2"", ""distractor3"")",NA,NA,NA,NA,NA,NA,NA,NA,NA,NA,NA,NA,NA,NA,NA,NA,NA,NA,NA
91444,task,flow.Sequence,2_8,NA,NA,completion,5386.792,154551.5,154549.378,154565.867,159952.659,159954.89999998,2023-11-26T12:32:31Z,159969.322,Prüfung,mtihani,s,mkulima,mtizamo,ufumbuzi,NA,NA,NA,"c(""distractor1"", ""distractor2"", ""distractor3"")",NA,NA,NA,NA,NA,NA,NA,NA,NA,NA,NA,NA,NA,NA,NA,NA,NA,NA,NA
91444,Shallow Question,html.Page,2_9_0_0,NA,NA,form submission,6526.8780000477,159955.20000005,159952.659,159969.322,166496.20000005,166496.70000005,2023-11-26T12:32:38Z,166507.205,Körper,kiwiliwili,d,mapambano,mpatanishi,kiolezo,kiwiliwili,NA,NA,"c(""distractor1"", ""distractor2"", ""distractor3"")",NA,NA,NA,NA,NA,NA,NA,NA,NA,NA,NA,NA,NA,NA,NA,NA,NA,NA,NA
91444,Save data screen,canvas.Screen,2_9_0_1,NA,NA,timeout,500.33900000001,166501.60000002,166490.533,166507.205,166991.008,166992.5,2023-11-26T12:32:38Z,167007.544,Körper,kiwiliwili,d,mapambano,mpatanishi,kiolezo,NA,NA,1,"c(""distractor1"", ""distractor2"", ""distractor3"")",NA,NA,NA,NA,NA,NA,NA,NA,NA,NA,NA,NA,NA,NA,NA,NA,NA,NA,NA
91444,shallow,flow.Sequence,2_9_0,NA,NA,completion,7021.686,159955.10000002,159952.659,159969.322,166991.008,166992.89999998,2023-11-26T12:32:38Z,167007.544,Körper,kiwiliwili,d,mapambano,mpatanishi,kiolezo,NA,NA,NA,"c(""distractor1"", ""distractor2"", ""distractor3"")",NA,NA,NA,NA,NA,NA,NA,NA,NA,NA,NA,NA,NA,NA,NA,NA,NA,NA,NA
91444,task,flow.Sequence,2_9,NA,NA,completion,7021.686,159955.10000002,159952.659,159969.322,166991.008,166993.10000002,2023-11-26T12:32:38Z,167007.544,Körper,kiwiliwili,d,mapambano,mpatanishi,kiolezo,NA,NA,NA,"c(""distractor1"", ""distractor2"", ""distractor3"")",NA,NA,NA,NA,NA,NA,NA,NA,NA,NA,NA,NA,NA,NA,NA,NA,NA,NA,NA
91444,Shallow Question,html.Page,2_10_0_0,NA,NA,form submission,3500.456,166993.39999998,166991.008,167007.544,170508,170508.5,2023-11-26T12:32:42Z,170526.671,Kanzler,diwani,d,rasilmali,mahitaji,maabudu,diwani,NA,NA,"c(""distractor1"", ""distractor2"", ""distractor3"")",NA,NA,NA,NA,NA,NA,NA,NA,NA,NA,NA,NA,NA,NA,NA,NA,NA,NA,NA
91444,Save data screen,canvas.Screen,2_10_0_1,NA,NA,timeout,500.37700000001,170512.39999998,170493.606,170526.671,171010.699,171012.60000002,2023-11-26T12:32:42Z,171027.048,Kanzler,diwani,d,rasilmali,mahitaji,maabudu,NA,NA,1,"c(""distractor1"", ""distractor2"", ""distractor3"")",NA,NA,NA,NA,NA,NA,NA,NA,NA,NA,NA,NA,NA,NA,NA,NA,NA,NA,NA
91444,shallow,flow.Sequence,2_10_0,NA,NA,completion,4003.155,166993.29999995,166991.008,167007.544,171010.699,171013.39999998,2023-11-26T12:32:42Z,171027.048,Kanzler,diwani,d,rasilmali,mahitaji,maabudu,NA,NA,NA,"c(""distractor1"", ""distractor2"", ""distractor3"")",NA,NA,NA,NA,NA,NA,NA,NA,NA,NA,NA,NA,NA,NA,NA,NA,NA,NA,NA
91444,task,flow.Sequence,2_10,NA,NA,completion,4003.155,166993.20000005,166991.008,167007.544,171010.699,171013.60000002,2023-11-26T12:32:42Z,171027.048,Kanzler,diwani,d,rasilmali,mahitaji,maabudu,NA,NA,NA,"c(""distractor1"", ""distractor2"", ""distractor3"")",NA,NA,NA,NA,NA,NA,NA,NA,NA,NA,NA,NA,NA,NA,NA,NA,NA,NA,NA
91444,Shallow Question,html.Page,2_11_0_0,NA,NA,form submission,11350.052000024,171013.79999995,171010.699,171027.048,182377.10000002,182377.5,2023-11-26T12:32:54Z,182401.68,Können,unaweza,s,kiongozi,bustani,mienendo,unaweza,NA,NA,"c(""distractor1"", ""distractor2"", ""distractor3"")",NA,NA,NA,NA,NA,NA,NA,NA,NA,NA,NA,NA,NA,NA,NA,NA,NA,NA,NA
91444,Save data screen,canvas.Screen,2_11_0_1,NA,NA,timeout,500.64600000001,182383.20000005,182368.789,182401.68,182885.46,182886.79999995,2023-11-26T12:32:54Z,182902.326,Können,unaweza,s,kiongozi,bustani,mienendo,NA,NA,1,"c(""distractor1"", ""distractor2"", ""distractor3"")",NA,NA,NA,NA,NA,NA,NA,NA,NA,NA,NA,NA,NA,NA,NA,NA,NA,NA,NA
91444,shallow,flow.Sequence,2_11_0,NA,NA,completion,11858.412,171013.79999995,171010.699,171027.048,182885.46,182887.10000002,2023-11-26T12:32:54Z,182902.326,Können,unaweza,s,kiongozi,bustani,mienendo,NA,NA,NA,"c(""distractor1"", ""distractor2"", ""distractor3"")",NA,NA,NA,NA,NA,NA,NA,NA,NA,NA,NA,NA,NA,NA,NA,NA,NA,NA,NA
91444,task,flow.Sequence,2_11,NA,NA,completion,11858.412,171013.70000005,171010.699,171027.048,182885.46,182887.29999995,2023-11-26T12:32:54Z,182902.326,Können,unaweza,s,kiongozi,bustani,mienendo,NA,NA,NA,"c(""distractor1"", ""distractor2"", ""distractor3"")",NA,NA,NA,NA,NA,NA,NA,NA,NA,NA,NA,NA,NA,NA,NA,NA,NA,NA,NA
91444,Shallow Question,html.Page,2_12_0_0,NA,NA,form submission,7206.174,182887.5,182885.46,182902.326,190108.5,190108.89999998,2023-11-26T12:33:01Z,190123.668,Kultur,utamaduni,d,shetani,gerezani,mazingira,utamaduni,NA,NA,"c(""distractor1"", ""distractor2"", ""distractor3"")",NA,NA,NA,NA,NA,NA,NA,NA,NA,NA,NA,NA,NA,NA,NA,NA,NA,NA,NA
91444,Save data screen,canvas.Screen,2_12_0_1,NA,NA,timeout,500.66800000001,190114.20000005,190106.948,190123.668,190607.792,190610.39999998,2023-11-26T12:33:02Z,190624.336,Kultur,utamaduni,d,shetani,gerezani,mazingira,NA,NA,1,"c(""distractor1"", ""distractor2"", ""distractor3"")",NA,NA,NA,NA,NA,NA,NA,NA,NA,NA,NA,NA,NA,NA,NA,NA,NA,NA,NA
91444,shallow,flow.Sequence,2_12_0,NA,NA,completion,7705.466,182887.5,182885.46,182902.326,190607.792,190610.89999998,2023-11-26T12:33:02Z,190624.336,Kultur,utamaduni,d,shetani,gerezani,mazingira,NA,NA,NA,"c(""distractor1"", ""distractor2"", ""distractor3"")",NA,NA,NA,NA,NA,NA,NA,NA,NA,NA,NA,NA,NA,NA,NA,NA,NA,NA,NA
91444,task,flow.Sequence,2_12,NA,NA,completion,7705.466,182887.39999998,182885.46,182902.326,190607.792,190611.20000005,2023-11-26T12:33:02Z,190624.336,Kultur,utamaduni,d,shetani,gerezani,mazingira,NA,NA,NA,"c(""distractor1"", ""distractor2"", ""distractor3"")",NA,NA,NA,NA,NA,NA,NA,NA,NA,NA,NA,NA,NA,NA,NA,NA,NA,NA,NA
91444,Shallow Question,html.Page,2_13_0_0,NA,NA,form submission,7219.2640000238,190611.5,190607.792,190624.336,197843.60000002,197844,2023-11-26T12:33:09Z,197845.737,Kontrolle,kudhibiti,d,mbinguni,kufunga,utegemezi,kudhibiti,NA,NA,"c(""distractor1"", ""distractor2"", ""distractor3"")",NA,NA,NA,NA,NA,NA,NA,NA,NA,NA,NA,NA,NA,NA,NA,NA,NA,NA,NA
91444,Save data screen,canvas.Screen,2_13_0_1,NA,NA,timeout,500.36300000001,197849.20000005,197829.038,197845.737,198329.699,198330.89999998,2023-11-26T12:33:10Z,198346.1,Kontrolle,kudhibiti,d,mbinguni,kufunga,utegemezi,NA,NA,1,"c(""distractor1"", ""distractor2"", ""distractor3"")",NA,NA,NA,NA,NA,NA,NA,NA,NA,NA,NA,NA,NA,NA,NA,NA,NA,NA,NA
91444,shallow,flow.Sequence,2_13_0,NA,NA,completion,7705.363,190611.39999998,190607.792,190624.336,198329.699,198331.20000005,2023-11-26T12:33:10Z,198346.1,Kontrolle,kudhibiti,d,mbinguni,kufunga,utegemezi,NA,NA,NA,"c(""distractor1"", ""distractor2"", ""distractor3"")",NA,NA,NA,NA,NA,NA,NA,NA,NA,NA,NA,NA,NA,NA,NA,NA,NA,NA,NA
91444,task,flow.Sequence,2_13,NA,NA,completion,7705.363,190611.29999995,190607.792,190624.336,198329.699,198331.5,2023-11-26T12:33:10Z,198346.1,Kontrolle,kudhibiti,d,mbinguni,kufunga,utegemezi,NA,NA,NA,"c(""distractor1"", ""distractor2"", ""distractor3"")",NA,NA,NA,NA,NA,NA,NA,NA,NA,NA,NA,NA,NA,NA,NA,NA,NA,NA,NA
91444,Shallow Question,html.Page,2_14_0_0,NA,NA,form submission,8653.9,198331.70000005,198329.699,198346.1,207000,207000.39999998,2023-11-26T12:33:18Z,207018.796,Kreativität,ubunifu,s,mratibu,mwendelezo,makubaliano,ubunifu,NA,NA,"c(""distractor1"", ""distractor2"", ""distractor3"")",NA,NA,NA,NA,NA,NA,NA,NA,NA,NA,NA,NA,NA,NA,NA,NA,NA,NA,NA
91444,Save data screen,canvas.Screen,2_14_0_1,NA,NA,timeout,500.69500000001,207005.5,206985.484,207018.796,207502.916,207503.89999998,2023-11-26T12:33:19Z,207519.491,Kreativität,ubunifu,s,mratibu,mwendelezo,makubaliano,NA,NA,1,"c(""distractor1"", ""distractor2"", ""distractor3"")",NA,NA,NA,NA,NA,NA,NA,NA,NA,NA,NA,NA,NA,NA,NA,NA,NA,NA,NA
91444,shallow,flow.Sequence,2_14_0,NA,NA,completion,9156.816,198331.70000005,198329.699,198346.1,207502.916,207504.29999995,2023-11-26T12:33:19Z,207519.491,Kreativität,ubunifu,s,mratibu,mwendelezo,makubaliano,NA,NA,NA,"c(""distractor1"", ""distractor2"", ""distractor3"")",NA,NA,NA,NA,NA,NA,NA,NA,NA,NA,NA,NA,NA,NA,NA,NA,NA,NA,NA
91444,task,flow.Sequence,2_14,NA,NA,completion,9156.816,198331.60000002,198329.699,198346.1,207502.916,207504.5,2023-11-26T12:33:19Z,207519.491,Kreativität,ubunifu,s,mratibu,mwendelezo,makubaliano,NA,NA,NA,"c(""distractor1"", ""distractor2"", ""distractor3"")",NA,NA,NA,NA,NA,NA,NA,NA,NA,NA,NA,NA,NA,NA,NA,NA,NA,NA,NA
91444,Shallow Question,html.Page,2_15_0_0,NA,NA,form submission,12300.009,207504.70000005,207502.916,207519.491,219819.5,219819.89999998,2023-11-26T12:33:31Z,219844.437,Abrechnung,uhasibu,d,kusahihisha,mpambano,mashambulizi,mpambano,NA,NA,"c(""distractor1"", ""distractor2"", ""distractor3"")",NA,NA,NA,NA,NA,NA,NA,NA,NA,NA,NA,NA,NA,NA,NA,NA,NA,NA,NA
91444,Save data screen,canvas.Screen,2_15_0_1,NA,NA,timeout,500.34599999999,219825.20000005,219811.084,219844.437,220328.409,220329.70000005,2023-11-26T12:33:32Z,220344.783,Abrechnung,uhasibu,d,kusahihisha,mpambano,mashambulizi,NA,NA,0,"c(""distractor1"", ""distractor2"", ""distractor3"")",NA,NA,NA,NA,NA,NA,NA,NA,NA,NA,NA,NA,NA,NA,NA,NA,NA,NA,NA
91444,shallow,flow.Sequence,2_15_0,NA,NA,completion,12808.918,207504.60000002,207502.916,207519.491,220328.409,220330.10000002,2023-11-26T12:33:32Z,220344.783,Abrechnung,uhasibu,d,kusahihisha,mpambano,mashambulizi,NA,NA,NA,"c(""distractor1"", ""distractor2"", ""distractor3"")",NA,NA,NA,NA,NA,NA,NA,NA,NA,NA,NA,NA,NA,NA,NA,NA,NA,NA,NA
91444,task,flow.Sequence,2_15,NA,NA,completion,12808.918,207504.60000002,207502.916,207519.491,220328.409,220330.39999998,2023-11-26T12:33:32Z,220344.783,Abrechnung,uhasibu,d,kusahihisha,mpambano,mashambulizi,NA,NA,NA,"c(""distractor1"", ""distractor2"", ""distractor3"")",NA,NA,NA,NA,NA,NA,NA,NA,NA,NA,NA,NA,NA,NA,NA,NA,NA,NA,NA
91444,retrieval block 2 (multiple choice),flow.Loop,2,NA,NA,completion,124420.374,95894.100000024,95891.728,95908.035,220328.409,220330.70000005,2023-11-26T12:33:32Z,220344.783,NA,NA,NA,NA,NA,NA,NA,NA,NA,"c(""distractor1"", ""distractor2"", ""distractor3"")",NA,NA,NA,NA,NA,NA,NA,NA,NA,NA,NA,NA,NA,NA,NA,NA,NA,NA,NA
91444,End,canvas.Screen,3,NA,keypress(Space),response,913.717,220330.79999995,220328.409,220344.783,221258.5,221260.79999995,2023-11-26T12:33:32Z,221262.267,NA,NA,NA,NA,NA,NA,NA,NA,NA,NULL,NA,NA,NA,NA,NA,NA,NA,NA,NA,NA,NA,NA,NA,NA,NA,NA,NA,NA,NA
91444,root,flow.Sequence,NA,NA,NA,completion,220300.064,942.10000002384,941.79,958.436,221258.5,221261.5,2023-11-26T12:33:32Z,221262.267,NA,NA,NA,NA,NA,NA,NA,NA,NA,NULL,NA,NA,NA,NA,NA,NA,NA,NA,NA,NA,NA,NA,NA,NA,NA,NA,NA,NA,NA
