observation,sender,sender_type,sender_id,response,response_action,ended_on,duration,time_run,time_render,time_show,time_end,time_commit,timestamp,time_switch,distractors,german,swahili,enc,distractor1,distractor2,distractor3,response_2,x,correct,x_2,url_vp,url_sess,meta_labjs_version,meta_location,meta_user_agent,meta_platform,meta_language,meta_locale,meta_time_zone,meta_timezone_offset,meta_screen_width,meta_screen_height,meta_scroll_width,meta_scroll_height,meta_window_inner_width,meta_window_inner_height,meta_device_pixel_ratio,meta_labjs_build_flavor,meta_labjs_build_commit
5cc74,Introduction general,canvas.Screen,0,weiter,keypress(q),response,37102.9,658,668.46,685.1,37788,37810,2023-10-27T12:54:15Z,37813.44,NULL,NA,NA,NA,NA,NA,NA,NA,NA,NA,NA,186,3,20.2.4,https://neurocog.fernuni.ch/studies/vweber/sliechti/encoding_immediate/index.html?vp=186&sess=3,Mozilla/5.0 (Windows NT 10.0; Win64; x64; rv:109.0) Gecko/20100101 Firefox/119.0,Win32,de,de-CH,Europe/Zurich,-120,1280,720,1280,587,1280,587,1.5,production,f5b4a49f956347addd546a832a3327688c2c0fef
5cc74,Introduction practice,canvas.Screen,1_0,NA,keypress(Space),response,3333.56,37813,37812.78,37813.44,41147,41155,2023-10-27T12:54:18Z,41162.66,NULL,NA,NA,NA,NA,NA,NA,NA,NA,NA,NA,NA,NA,NA,NA,NA,NA,NA,NA,NA,NA,NA,NA,NA,NA,NA,NA,NA,NA,NA
5cc74,Deep Question,html.Page,1_1_0_0_0,NA,NA,form submission,8099.34,41155,41155.38,41162.66,49262,49263,2023-10-27T12:54:26Z,49262.5,"c(""distractor1"", ""distractor2"", ""distractor3"")",Qualität,mtindo,d,NA,NA,NA,hu,NA,NA,NA,NA,NA,NA,NA,NA,NA,NA,NA,NA,NA,NA,NA,NA,NA,NA,NA,NA,NA,NA
5cc74,"""Richtig""-Screen",canvas.Screen,1_1_0_0_1,NA,NA,skipped,NA,49267,NA,NA,49262,49267,2023-10-27T12:54:26Z,49262.5,"c(""distractor1"", ""distractor2"", ""distractor3"")",Qualität,mtindo,d,NA,NA,NA,NA,NA,NA,NA,NA,NA,NA,NA,NA,NA,NA,NA,NA,NA,NA,NA,NA,NA,NA,NA,NA,NA,NA
5cc74,"""Falsch""-Screen",canvas.Screen,1_1_0_0_2,NA,NA,timeout,4998.78,49269,49253.52,49262.5,54244.62,54246,2023-10-27T12:54:31Z,54261.28,"c(""distractor1"", ""distractor2"", ""distractor3"")",Qualität,mtindo,d,NA,NA,NA,NA,NA,0,NA,NA,NA,NA,NA,NA,NA,NA,NA,NA,NA,NA,NA,NA,NA,NA,NA,NA,NA,NA
5cc74,deep,flow.Sequence,1_1_0_0,NA,NA,completion,13081.96,41155,41155.38,41162.66,54244.62,54247,2023-10-27T12:54:31Z,54261.28,"c(""distractor1"", ""distractor2"", ""distractor3"")",Qualität,mtindo,d,NA,NA,NA,NA,NA,NA,NA,NA,NA,NA,NA,NA,NA,NA,NA,NA,NA,NA,NA,NA,NA,NA,NA,NA,NA,NA
5cc74,shallow,flow.Sequence,1_1_0_1,NA,NA,skipped,NA,54247,NA,NA,54244.62,54247,2023-10-27T12:54:31Z,54261.28,"c(""distractor1"", ""distractor2"", ""distractor3"")",Qualität,mtindo,d,NA,NA,NA,NA,NA,NA,NA,NA,NA,NA,NA,NA,NA,NA,NA,NA,NA,NA,NA,NA,NA,NA,NA,NA,NA,NA
5cc74,task,flow.Sequence,1_1_0,NA,NA,completion,13081.96,41155,41155.38,41162.66,54244.62,54248,2023-10-27T12:54:31Z,54261.28,"c(""distractor1"", ""distractor2"", ""distractor3"")",Qualität,mtindo,d,NA,NA,NA,NA,NA,NA,NA,NA,NA,NA,NA,NA,NA,NA,NA,NA,NA,NA,NA,NA,NA,NA,NA,NA,NA,NA
5cc74,Deep Question,html.Page,1_1_1_0_0,NA,NA,form submission,5059.72,54248,54244.62,54261.28,59321,59322,2023-10-27T12:54:36Z,59327.6,"c(""distractor1"", ""distractor2"", ""distractor3"")",Gesundheit,salama,d,NA,NA,NA,sanite,NA,NA,NA,NA,NA,NA,NA,NA,NA,NA,NA,NA,NA,NA,NA,NA,NA,NA,NA,NA,NA,NA
5cc74,"""Richtig""-Screen",canvas.Screen,1_1_1_0_1,NA,NA,skipped,NA,59326,NA,NA,59321,59327,2023-10-27T12:54:36Z,59327.6,"c(""distractor1"", ""distractor2"", ""distractor3"")",Gesundheit,salama,d,NA,NA,NA,NA,NA,NA,NA,NA,NA,NA,NA,NA,NA,NA,NA,NA,NA,NA,NA,NA,NA,NA,NA,NA,NA,NA
5cc74,"""Falsch""-Screen",canvas.Screen,1_1_1_0_2,NA,NA,timeout,4999.86,59330,59315.28,59327.6,64310.82,64313,2023-10-27T12:54:41Z,64327.46,"c(""distractor1"", ""distractor2"", ""distractor3"")",Gesundheit,salama,d,NA,NA,NA,NA,NA,0,NA,NA,NA,NA,NA,NA,NA,NA,NA,NA,NA,NA,NA,NA,NA,NA,NA,NA,NA,NA
5cc74,deep,flow.Sequence,1_1_1_0,NA,NA,completion,10049.54,54248,54244.62,54261.28,64310.82,64314,2023-10-27T12:54:41Z,64327.46,"c(""distractor1"", ""distractor2"", ""distractor3"")",Gesundheit,salama,d,NA,NA,NA,NA,NA,NA,NA,NA,NA,NA,NA,NA,NA,NA,NA,NA,NA,NA,NA,NA,NA,NA,NA,NA,NA,NA
5cc74,shallow,flow.Sequence,1_1_1_1,NA,NA,skipped,NA,64314,NA,NA,64310.82,64314,2023-10-27T12:54:41Z,64327.46,"c(""distractor1"", ""distractor2"", ""distractor3"")",Gesundheit,salama,d,NA,NA,NA,NA,NA,NA,NA,NA,NA,NA,NA,NA,NA,NA,NA,NA,NA,NA,NA,NA,NA,NA,NA,NA,NA,NA
5cc74,task,flow.Sequence,1_1_1,NA,NA,completion,10049.54,54248,54244.62,54261.28,64310.82,64315,2023-10-27T12:54:41Z,64327.46,"c(""distractor1"", ""distractor2"", ""distractor3"")",Gesundheit,salama,d,NA,NA,NA,NA,NA,NA,NA,NA,NA,NA,NA,NA,NA,NA,NA,NA,NA,NA,NA,NA,NA,NA,NA,NA,NA,NA
5cc74,Deep Question,html.Page,1_1_2_0_0,NA,NA,form submission,4584.54,64316,64310.82,64327.46,68912,68913,2023-10-27T12:54:46Z,68909.34,"c(""distractor1"", ""distractor2"", ""distractor3"")",Schatten,kivuli,d,NA,NA,NA,hwe,NA,NA,NA,NA,NA,NA,NA,NA,NA,NA,NA,NA,NA,NA,NA,NA,NA,NA,NA,NA,NA,NA
5cc74,"""Richtig""-Screen",canvas.Screen,1_1_2_0_1,NA,NA,skipped,NA,68917,NA,NA,68912,68917,2023-10-27T12:54:46Z,68909.34,"c(""distractor1"", ""distractor2"", ""distractor3"")",Schatten,kivuli,d,NA,NA,NA,NA,NA,NA,NA,NA,NA,NA,NA,NA,NA,NA,NA,NA,NA,NA,NA,NA,NA,NA,NA,NA,NA,NA
5cc74,"""Falsch""-Screen",canvas.Screen,1_1_2_0_2,NA,NA,timeout,4998.76,68920,68909.2,68909.34,73891.44,73895,2023-10-27T12:54:51Z,73908.1,"c(""distractor1"", ""distractor2"", ""distractor3"")",Schatten,kivuli,d,NA,NA,NA,NA,NA,0,NA,NA,NA,NA,NA,NA,NA,NA,NA,NA,NA,NA,NA,NA,NA,NA,NA,NA,NA,NA
5cc74,deep,flow.Sequence,1_1_2_0,NA,NA,completion,9563.98,64316,64310.82,64327.46,73891.44,73896,2023-10-27T12:54:51Z,73908.1,"c(""distractor1"", ""distractor2"", ""distractor3"")",Schatten,kivuli,d,NA,NA,NA,NA,NA,NA,NA,NA,NA,NA,NA,NA,NA,NA,NA,NA,NA,NA,NA,NA,NA,NA,NA,NA,NA,NA
5cc74,shallow,flow.Sequence,1_1_2_1,NA,NA,skipped,NA,73896,NA,NA,73891.44,73896,2023-10-27T12:54:51Z,73908.1,"c(""distractor1"", ""distractor2"", ""distractor3"")",Schatten,kivuli,d,NA,NA,NA,NA,NA,NA,NA,NA,NA,NA,NA,NA,NA,NA,NA,NA,NA,NA,NA,NA,NA,NA,NA,NA,NA,NA
5cc74,task,flow.Sequence,1_1_2,NA,NA,completion,9563.98,64315,64310.82,64327.46,73891.44,73897,2023-10-27T12:54:51Z,73908.1,"c(""distractor1"", ""distractor2"", ""distractor3"")",Schatten,kivuli,d,NA,NA,NA,NA,NA,NA,NA,NA,NA,NA,NA,NA,NA,NA,NA,NA,NA,NA,NA,NA,NA,NA,NA,NA,NA,NA
5cc74,deep,flow.Sequence,1_1_3_0,NA,NA,skipped,NA,73898,NA,NA,73891.44,73898,2023-10-27T12:54:51Z,73908.1,"c(""distractor1"", ""distractor2"", ""distractor3"")",Kritik,lawama,s,dereva,nafasi,mawazo,NA,NA,NA,NA,NA,NA,NA,NA,NA,NA,NA,NA,NA,NA,NA,NA,NA,NA,NA,NA,NA,NA,NA
5cc74,Shallow Question,html.Page,1_1_3_1_0,NA,NA,form submission,5454.9,73898,73891.44,73908.1,79363,79364,2023-10-27T12:54:56Z,79375.42,"c(""distractor1"", ""distractor2"", ""distractor3"")",Kritik,lawama,s,dereva,nafasi,mawazo,mawazo,NA,NA,NA,NA,NA,NA,NA,NA,NA,NA,NA,NA,NA,NA,NA,NA,NA,NA,NA,NA,NA,NA
5cc74,"""Richtig""-Screen",canvas.Screen,1_1_3_1_1,NA,NA,skipped,NA,79368,NA,NA,79363,79368,2023-10-27T12:54:56Z,79375.42,"c(""distractor1"", ""distractor2"", ""distractor3"")",Kritik,lawama,s,dereva,nafasi,mawazo,NA,NA,NA,NA,NA,NA,NA,NA,NA,NA,NA,NA,NA,NA,NA,NA,NA,NA,NA,NA,NA,NA,NA
5cc74,"""Falsch""-Screen",canvas.Screen,1_1_3_1_2,NA,NA,timeout,4998.18,79373,79355.48,79375.42,84356.94,84359,2023-10-27T12:55:01Z,84373.6,"c(""distractor1"", ""distractor2"", ""distractor3"")",Kritik,lawama,s,dereva,nafasi,mawazo,NA,NA,0,NA,NA,NA,NA,NA,NA,NA,NA,NA,NA,NA,NA,NA,NA,NA,NA,NA,NA,NA,NA
5cc74,shallow,flow.Sequence,1_1_3_1,NA,NA,completion,10448.84,73898,73891.44,73908.1,84356.94,84360,2023-10-27T12:55:01Z,84373.6,"c(""distractor1"", ""distractor2"", ""distractor3"")",Kritik,lawama,s,dereva,nafasi,mawazo,NA,NA,NA,NA,NA,NA,NA,NA,NA,NA,NA,NA,NA,NA,NA,NA,NA,NA,NA,NA,NA,NA,NA
5cc74,task,flow.Sequence,1_1_3,NA,NA,completion,10448.84,73897,73891.44,73908.1,84356.94,84361,2023-10-27T12:55:01Z,84373.6,"c(""distractor1"", ""distractor2"", ""distractor3"")",Kritik,lawama,s,dereva,nafasi,mawazo,NA,NA,NA,NA,NA,NA,NA,NA,NA,NA,NA,NA,NA,NA,NA,NA,NA,NA,NA,NA,NA,NA,NA
5cc74,deep,flow.Sequence,1_1_4_0,NA,NA,skipped,NA,84361,NA,NA,84356.94,84361,2023-10-27T12:55:01Z,84373.6,"c(""distractor1"", ""distractor2"", ""distractor3"")",Rückhalt,msaada,s,muhula,auwali,kiwimbe,NA,NA,NA,NA,NA,NA,NA,NA,NA,NA,NA,NA,NA,NA,NA,NA,NA,NA,NA,NA,NA,NA,NA
5cc74,Shallow Question,html.Page,1_1_4_1_0,NA,NA,form submission,4537.4,84362,84356.94,84373.6,88911,88912,2023-10-27T12:55:06Z,88907.22,"c(""distractor1"", ""distractor2"", ""distractor3"")",Rückhalt,msaada,s,muhula,auwali,kiwimbe,auwali,NA,NA,NA,NA,NA,NA,NA,NA,NA,NA,NA,NA,NA,NA,NA,NA,NA,NA,NA,NA,NA,NA
5cc74,"""Richtig""-Screen",canvas.Screen,1_1_4_1_1,NA,NA,skipped,NA,88916,NA,NA,88911,88916,2023-10-27T12:55:06Z,88907.22,"c(""distractor1"", ""distractor2"", ""distractor3"")",Rückhalt,msaada,s,muhula,auwali,kiwimbe,NA,NA,NA,NA,NA,NA,NA,NA,NA,NA,NA,NA,NA,NA,NA,NA,NA,NA,NA,NA,NA,NA,NA
5cc74,"""Falsch""-Screen",canvas.Screen,1_1_4_1_2,NA,NA,timeout,4998.14,88919,88906.9,88907.22,93888.7,93891,2023-10-27T12:55:11Z,93905.36,"c(""distractor1"", ""distractor2"", ""distractor3"")",Rückhalt,msaada,s,muhula,auwali,kiwimbe,NA,NA,0,NA,NA,NA,NA,NA,NA,NA,NA,NA,NA,NA,NA,NA,NA,NA,NA,NA,NA,NA,NA
5cc74,shallow,flow.Sequence,1_1_4_1,NA,NA,completion,9515.1,84362,84356.94,84373.6,93888.7,93892,2023-10-27T12:55:11Z,93905.36,"c(""distractor1"", ""distractor2"", ""distractor3"")",Rückhalt,msaada,s,muhula,auwali,kiwimbe,NA,NA,NA,NA,NA,NA,NA,NA,NA,NA,NA,NA,NA,NA,NA,NA,NA,NA,NA,NA,NA,NA,NA
5cc74,task,flow.Sequence,1_1_4,NA,NA,completion,9515.1,84361,84356.94,84373.6,93888.7,93892,2023-10-27T12:55:11Z,93905.36,"c(""distractor1"", ""distractor2"", ""distractor3"")",Rückhalt,msaada,s,muhula,auwali,kiwimbe,NA,NA,NA,NA,NA,NA,NA,NA,NA,NA,NA,NA,NA,NA,NA,NA,NA,NA,NA,NA,NA,NA,NA
5cc74,deep,flow.Sequence,1_1_5_0,NA,NA,skipped,NA,93892,NA,NA,93888.7,93893,2023-10-27T12:55:11Z,93905.36,"c(""distractor1"", ""distractor2"", ""distractor3"")",Gegenwart,hadhara,s,katiba,jokofu,mikopo,NA,NA,NA,NA,NA,NA,NA,NA,NA,NA,NA,NA,NA,NA,NA,NA,NA,NA,NA,NA,NA,NA,NA
5cc74,Shallow Question,html.Page,1_1_5_1_0,NA,NA,form submission,6224.64,93893,93888.7,93905.36,100130,100131,2023-10-27T12:55:17Z,100139.24,"c(""distractor1"", ""distractor2"", ""distractor3"")",Gegenwart,hadhara,s,katiba,jokofu,mikopo,hadhara,NA,NA,NA,NA,NA,NA,NA,NA,NA,NA,NA,NA,NA,NA,NA,NA,NA,NA,NA,NA,NA,NA
5cc74,"""Richtig""-Screen",canvas.Screen,1_1_5_1_1,NA,NA,timeout,4999.32,100135,100126.52,100139.24,105121.9,105123,2023-10-27T12:55:22Z,105138.56,"c(""distractor1"", ""distractor2"", ""distractor3"")",Gegenwart,hadhara,s,katiba,jokofu,mikopo,NA,NA,1,NA,NA,NA,NA,NA,NA,NA,NA,NA,NA,NA,NA,NA,NA,NA,NA,NA,NA,NA,NA
5cc74,"""Falsch""-Screen",canvas.Screen,1_1_5_1_2,NA,NA,skipped,NA,105130,NA,NA,105121.9,105130,2023-10-27T12:55:22Z,105138.56,"c(""distractor1"", ""distractor2"", ""distractor3"")",Gegenwart,hadhara,s,katiba,jokofu,mikopo,NA,NA,NA,NA,NA,NA,NA,NA,NA,NA,NA,NA,NA,NA,NA,NA,NA,NA,NA,NA,NA,NA,NA
5cc74,shallow,flow.Sequence,1_1_5_1,NA,NA,completion,11216.54,93893,93888.7,93905.36,105121.9,105131,2023-10-27T12:55:22Z,105138.56,"c(""distractor1"", ""distractor2"", ""distractor3"")",Gegenwart,hadhara,s,katiba,jokofu,mikopo,NA,NA,NA,NA,NA,NA,NA,NA,NA,NA,NA,NA,NA,NA,NA,NA,NA,NA,NA,NA,NA,NA,NA
5cc74,task,flow.Sequence,1_1_5,NA,NA,completion,11216.54,93892,93888.7,93905.36,105121.9,105131,2023-10-27T12:55:22Z,105138.56,"c(""distractor1"", ""distractor2"", ""distractor3"")",Gegenwart,hadhara,s,katiba,jokofu,mikopo,NA,NA,NA,NA,NA,NA,NA,NA,NA,NA,NA,NA,NA,NA,NA,NA,NA,NA,NA,NA,NA,NA,NA
5cc74,block,flow.Loop,1_1,NA,NA,completion,63959.24,41155,41155.38,41162.66,105121.9,105131,2023-10-27T12:55:22Z,105138.56,"c(""distractor1"", ""distractor2"", ""distractor3"")",NA,NA,NA,NA,NA,NA,NA,NA,NA,NA,NA,NA,NA,NA,NA,NA,NA,NA,NA,NA,NA,NA,NA,NA,NA,NA,NA,NA,NA
5cc74,Practice,flow.Sequence,1,NA,NA,completion,67308.46,37812,37812.78,37813.44,105121.9,105132,2023-10-27T12:55:22Z,105138.56,NULL,NA,NA,NA,NA,NA,NA,NA,NA,NA,NA,NA,NA,NA,NA,NA,NA,NA,NA,NA,NA,NA,NA,NA,NA,NA,NA,NA,NA,NA
5cc74,Experiment start,canvas.Screen,2,weiter,keypress(q),response,41696.44,105132,105121.9,105138.56,146835,146843,2023-10-27T12:56:04Z,146931.7,NULL,NA,NA,NA,NA,NA,NA,NA,NA,NA,NA,NA,NA,NA,NA,NA,NA,NA,NA,NA,NA,NA,NA,NA,NA,NA,NA,NA,NA,NA
5cc74,Deep Question,html.Page,3_0_0_0_0_0_0,NA,NA,form submission,10899.3,146924,146924.68,146931.7,157831,157831,2023-10-27T12:56:15Z,157831.34,NULL,Kreativität,ubunifu,d,NA,NA,NA,hwej,NA,NA,0,NA,NA,NA,NA,NA,NA,NA,NA,NA,NA,NA,NA,NA,NA,NA,NA,NA,NA,NA
5cc74,"""Richtig""-Screen",canvas.Screen,3_0_0_0_0_0_1,NA,NA,skipped,NA,157832,NA,NA,157831,157833,2023-10-27T12:56:15Z,157831.34,NULL,Kreativität,ubunifu,d,NA,NA,NA,NA,sdf,NA,0,NA,NA,NA,NA,NA,NA,NA,NA,NA,NA,NA,NA,NA,NA,NA,NA,NA,NA,NA
5cc74,"""Falsch""-Screen",canvas.Screen,3_0_0_0_0_0_2,NA,NA,timeout,4999.62,157834,157828.52,157831.34,162814.3,162816,2023-10-27T12:56:20Z,162830.96,NULL,Kreativität,ubunifu,d,NA,NA,NA,NA,sdf,0,0,NA,NA,NA,NA,NA,NA,NA,NA,NA,NA,NA,NA,NA,NA,NA,NA,NA,NA,NA
5cc74,deep,flow.Sequence,3_0_0_0_0_0,NA,NA,completion,15882.6,146924,146924.68,146931.7,162814.3,162818,2023-10-27T12:56:20Z,162830.96,NULL,Kreativität,ubunifu,d,NA,NA,NA,NA,sdf,NA,0,NA,NA,NA,NA,NA,NA,NA,NA,NA,NA,NA,NA,NA,NA,NA,NA,NA,NA,NA
5cc74,shallow,flow.Sequence,3_0_0_0_0_1,NA,NA,skipped,NA,162818,NA,NA,162814.3,162819,2023-10-27T12:56:20Z,162830.96,NULL,Kreativität,ubunifu,d,NA,NA,NA,NA,sdf,NA,0,NA,NA,NA,NA,NA,NA,NA,NA,NA,NA,NA,NA,NA,NA,NA,NA,NA,NA,NA
5cc74,task,flow.Sequence,3_0_0_0_0,NA,NA,completion,15882.6,146924,146924.68,146931.7,162814.3,162819,2023-10-27T12:56:20Z,162830.96,NULL,Kreativität,ubunifu,d,NA,NA,NA,NA,sdf,NA,0,NA,NA,NA,NA,NA,NA,NA,NA,NA,NA,NA,NA,NA,NA,NA,NA,NA,NA,NA
5cc74,deep,flow.Sequence,3_0_0_0_1_0,NA,NA,skipped,NA,162820,NA,NA,162814.3,162820,2023-10-27T12:56:20Z,162830.96,NULL,Gefährdung,kuhatarisha,s,uchokozi,udhaifu,makorowezo,NA,sdf,NA,0,NA,NA,NA,NA,NA,NA,NA,NA,NA,NA,NA,NA,NA,NA,NA,NA,NA,NA,NA
5cc74,Shallow Question,html.Page,3_0_0_0_1_1_0,NA,NA,form submission,6217.04,162820,162814.3,162830.96,169048,169049,2023-10-27T12:56:26Z,169046.32,NULL,Gefährdung,kuhatarisha,s,uchokozi,udhaifu,makorowezo,udhaifu,NA,NA,0,NA,NA,NA,NA,NA,NA,NA,NA,NA,NA,NA,NA,NA,NA,NA,NA,NA,NA,NA
5cc74,"""Richtig""-Screen",canvas.Screen,3_0_0_0_1_1_1,NA,NA,skipped,NA,169051,NA,NA,169048,169052,2023-10-27T12:56:26Z,169046.32,NULL,Gefährdung,kuhatarisha,s,uchokozi,udhaifu,makorowezo,NA,sdf,NA,0,NA,NA,NA,NA,NA,NA,NA,NA,NA,NA,NA,NA,NA,NA,NA,NA,NA,NA,NA
5cc74,"""Falsch""-Screen",canvas.Screen,3_0_0_0_1_1_2,NA,NA,timeout,4999.86,169054,169044.22,169046.32,174029.52,174031,2023-10-27T12:56:31Z,174046.18,NULL,Gefährdung,kuhatarisha,s,uchokozi,udhaifu,makorowezo,NA,sdf,0,0,NA,NA,NA,NA,NA,NA,NA,NA,NA,NA,NA,NA,NA,NA,NA,NA,NA,NA,NA
5cc74,shallow,flow.Sequence,3_0_0_0_1_1,NA,NA,completion,11198.56,162820,162814.3,162830.96,174029.52,174031,2023-10-27T12:56:31Z,174046.18,NULL,Gefährdung,kuhatarisha,s,uchokozi,udhaifu,makorowezo,NA,sdf,NA,0,NA,NA,NA,NA,NA,NA,NA,NA,NA,NA,NA,NA,NA,NA,NA,NA,NA,NA,NA
5cc74,task,flow.Sequence,3_0_0_0_1,NA,NA,completion,11198.56,162819,162814.3,162830.96,174029.52,174032,2023-10-27T12:56:31Z,174046.18,NULL,Gefährdung,kuhatarisha,s,uchokozi,udhaifu,makorowezo,NA,sdf,NA,0,NA,NA,NA,NA,NA,NA,NA,NA,NA,NA,NA,NA,NA,NA,NA,NA,NA,NA,NA
5cc74,deep,flow.Sequence,3_0_0_0_2_0,NA,NA,skipped,NA,174032,NA,NA,174029.52,174032,2023-10-27T12:56:31Z,174046.18,NULL,Verstand,ufahamivu,s,shakawa,hadhari,mhandisi,NA,sdf,NA,0,NA,NA,NA,NA,NA,NA,NA,NA,NA,NA,NA,NA,NA,NA,NA,NA,NA,NA,NA
5cc74,Shallow Question,html.Page,3_0_0_0_2_1_0,NA,NA,form submission,11257.82,174032,174029.52,174046.18,185304,185305,2023-10-27T12:56:42Z,185310.7,NULL,Verstand,ufahamivu,s,shakawa,hadhari,mhandisi,hadhari,NA,NA,0,NA,NA,NA,NA,NA,NA,NA,NA,NA,NA,NA,NA,NA,NA,NA,NA,NA,NA,NA
5cc74,"""Richtig""-Screen",canvas.Screen,3_0_0_0_2_1_1,NA,NA,skipped,NA,185310,NA,NA,185304,185311,2023-10-27T12:56:42Z,185310.7,NULL,Verstand,ufahamivu,s,shakawa,hadhari,mhandisi,NA,sdf,NA,0,NA,NA,NA,NA,NA,NA,NA,NA,NA,NA,NA,NA,NA,NA,NA,NA,NA,NA,NA
5cc74,"""Falsch""-Screen",canvas.Screen,3_0_0_0_2_1_2,NA,NA,timeout,5000.04,185317,185297.12,185310.7,190294.1,190296,2023-10-27T12:56:47Z,190310.74,NULL,Verstand,ufahamivu,s,shakawa,hadhari,mhandisi,NA,sdf,0,0,NA,NA,NA,NA,NA,NA,NA,NA,NA,NA,NA,NA,NA,NA,NA,NA,NA,NA,NA
5cc74,shallow,flow.Sequence,3_0_0_0_2_1,NA,NA,completion,16247.92,174032,174029.52,174046.18,190294.1,190296,2023-10-27T12:56:47Z,190310.74,NULL,Verstand,ufahamivu,s,shakawa,hadhari,mhandisi,NA,sdf,NA,0,NA,NA,NA,NA,NA,NA,NA,NA,NA,NA,NA,NA,NA,NA,NA,NA,NA,NA,NA
5cc74,task,flow.Sequence,3_0_0_0_2,NA,NA,completion,16247.92,174032,174029.52,174046.18,190294.1,190297,2023-10-27T12:56:47Z,190310.74,NULL,Verstand,ufahamivu,s,shakawa,hadhari,mhandisi,NA,sdf,NA,0,NA,NA,NA,NA,NA,NA,NA,NA,NA,NA,NA,NA,NA,NA,NA,NA,NA,NA,NA
5cc74,Deep Question,html.Page,3_0_0_0_3_0_0,NA,NA,form submission,4044.26,190297,190294.1,190310.74,194355,194355,2023-10-27T12:56:51Z,194359.52,NULL,Können,unaweza,d,NA,NA,NA,hjj,NA,NA,0,NA,NA,NA,NA,NA,NA,NA,NA,NA,NA,NA,NA,NA,NA,NA,NA,NA,NA,NA
5cc74,"""Richtig""-Screen",canvas.Screen,3_0_0_0_3_0_1,NA,NA,skipped,NA,194357,NA,NA,194355,194357,2023-10-27T12:56:51Z,194359.52,NULL,Können,unaweza,d,NA,NA,NA,NA,sdf,NA,0,NA,NA,NA,NA,NA,NA,NA,NA,NA,NA,NA,NA,NA,NA,NA,NA,NA,NA,NA
5cc74,"""Falsch""-Screen",canvas.Screen,3_0_0_0_3_0_2,NA,NA,timeout,4999.18,194358,194353.74,194359.52,199342.06,199345,2023-10-27T12:56:56Z,199358.7,NULL,Können,unaweza,d,NA,NA,NA,NA,sdf,0,0,NA,NA,NA,NA,NA,NA,NA,NA,NA,NA,NA,NA,NA,NA,NA,NA,NA,NA,NA
5cc74,deep,flow.Sequence,3_0_0_0_3_0,NA,NA,completion,9031.32,190297,190294.1,190310.74,199342.06,199346,2023-10-27T12:56:56Z,199358.7,NULL,Können,unaweza,d,NA,NA,NA,NA,sdf,NA,0,NA,NA,NA,NA,NA,NA,NA,NA,NA,NA,NA,NA,NA,NA,NA,NA,NA,NA,NA
5cc74,shallow,flow.Sequence,3_0_0_0_3_1,NA,NA,skipped,NA,199346,NA,NA,199342.06,199346,2023-10-27T12:56:56Z,199358.7,NULL,Können,unaweza,d,NA,NA,NA,NA,sdf,NA,0,NA,NA,NA,NA,NA,NA,NA,NA,NA,NA,NA,NA,NA,NA,NA,NA,NA,NA,NA
5cc74,task,flow.Sequence,3_0_0_0_3,NA,NA,completion,9031.32,190297,190294.1,190310.74,199342.06,199347,2023-10-27T12:56:56Z,199358.7,NULL,Können,unaweza,d,NA,NA,NA,NA,sdf,NA,0,NA,NA,NA,NA,NA,NA,NA,NA,NA,NA,NA,NA,NA,NA,NA,NA,NA,NA,NA
5cc74,Deep Question,html.Page,3_0_0_0_4_0_0,NA,NA,form submission,5079.3,199347,199342.06,199358.7,204438,204438,2023-10-27T12:57:01Z,204442,NULL,Ausschluss,kutengwa,d,NA,NA,NA,hbb,NA,NA,0,NA,NA,NA,NA,NA,NA,NA,NA,NA,NA,NA,NA,NA,NA,NA,NA,NA,NA,NA
5cc74,"""Richtig""-Screen",canvas.Screen,3_0_0_0_4_0_1,NA,NA,skipped,NA,204439,NA,NA,204438,204439,2023-10-27T12:57:01Z,204442,NULL,Ausschluss,kutengwa,d,NA,NA,NA,NA,sdf,NA,0,NA,NA,NA,NA,NA,NA,NA,NA,NA,NA,NA,NA,NA,NA,NA,NA,NA,NA,NA
5cc74,"""Falsch""-Screen",canvas.Screen,3_0_0_0_4_0_2,NA,NA,timeout,4999.42,204440,204436.14,204442,209424.76,209426,2023-10-27T12:57:06Z,209441.42,NULL,Ausschluss,kutengwa,d,NA,NA,NA,NA,sdf,0,0,NA,NA,NA,NA,NA,NA,NA,NA,NA,NA,NA,NA,NA,NA,NA,NA,NA,NA,NA
5cc74,deep,flow.Sequence,3_0_0_0_4_0,NA,NA,completion,10066.06,199347,199342.06,199358.7,209424.76,209426,2023-10-27T12:57:06Z,209441.42,NULL,Ausschluss,kutengwa,d,NA,NA,NA,NA,sdf,NA,0,NA,NA,NA,NA,NA,NA,NA,NA,NA,NA,NA,NA,NA,NA,NA,NA,NA,NA,NA
5cc74,shallow,flow.Sequence,3_0_0_0_4_1,NA,NA,skipped,NA,209427,NA,NA,209424.76,209427,2023-10-27T12:57:06Z,209441.42,NULL,Ausschluss,kutengwa,d,NA,NA,NA,NA,sdf,NA,0,NA,NA,NA,NA,NA,NA,NA,NA,NA,NA,NA,NA,NA,NA,NA,NA,NA,NA,NA
5cc74,task,flow.Sequence,3_0_0_0_4,NA,NA,completion,10066.06,199347,199342.06,199358.7,209424.76,209427,2023-10-27T12:57:06Z,209441.42,NULL,Ausschluss,kutengwa,d,NA,NA,NA,NA,sdf,NA,0,NA,NA,NA,NA,NA,NA,NA,NA,NA,NA,NA,NA,NA,NA,NA,NA,NA,NA,NA
5cc74,Deep Question,html.Page,3_0_0_0_5_0_0,NA,NA,form submission,8085.58,209427,209424.76,209441.42,217527,217528,2023-10-27T12:57:14Z,217523.36,NULL,Gelegenheit,wakati,d,NA,NA,NA,efj,NA,NA,0,NA,NA,NA,NA,NA,NA,NA,NA,NA,NA,NA,NA,NA,NA,NA,NA,NA,NA,NA
5cc74,"""Richtig""-Screen",canvas.Screen,3_0_0_0_5_0_1,NA,NA,skipped,NA,217531,NA,NA,217527,217531,2023-10-27T12:57:14Z,217523.36,NULL,Gelegenheit,wakati,d,NA,NA,NA,NA,sdf,NA,0,NA,NA,NA,NA,NA,NA,NA,NA,NA,NA,NA,NA,NA,NA,NA,NA,NA,NA,NA
5cc74,"""Falsch""-Screen",canvas.Screen,3_0_0_0_5_0_2,NA,NA,timeout,5000.22,217534,217522.2,217523.36,222506.92,222509,2023-10-27T12:57:19Z,222523.58,NULL,Gelegenheit,wakati,d,NA,NA,NA,NA,sdf,0,0,NA,NA,NA,NA,NA,NA,NA,NA,NA,NA,NA,NA,NA,NA,NA,NA,NA,NA,NA
5cc74,deep,flow.Sequence,3_0_0_0_5_0,NA,NA,completion,13065.5,209427,209424.76,209441.42,222506.92,222509,2023-10-27T12:57:19Z,222523.58,NULL,Gelegenheit,wakati,d,NA,NA,NA,NA,sdf,NA,0,NA,NA,NA,NA,NA,NA,NA,NA,NA,NA,NA,NA,NA,NA,NA,NA,NA,NA,NA
5cc74,shallow,flow.Sequence,3_0_0_0_5_1,NA,NA,skipped,NA,222509,NA,NA,222506.92,222510,2023-10-27T12:57:19Z,222523.58,NULL,Gelegenheit,wakati,d,NA,NA,NA,NA,sdf,NA,0,NA,NA,NA,NA,NA,NA,NA,NA,NA,NA,NA,NA,NA,NA,NA,NA,NA,NA,NA
5cc74,task,flow.Sequence,3_0_0_0_5,NA,NA,completion,13065.5,209427,209424.76,209441.42,222506.92,222510,2023-10-27T12:57:19Z,222523.58,NULL,Gelegenheit,wakati,d,NA,NA,NA,NA,sdf,NA,0,NA,NA,NA,NA,NA,NA,NA,NA,NA,NA,NA,NA,NA,NA,NA,NA,NA,NA,NA
5cc74,deep,flow.Sequence,3_0_0_0_6_0,NA,NA,skipped,NA,222510,NA,NA,222506.92,222510,2023-10-27T12:57:19Z,222523.58,NULL,Widerstand,usulubu,s,kusababisha,mwalimu,mwenendo,NA,sdf,NA,0,NA,NA,NA,NA,NA,NA,NA,NA,NA,NA,NA,NA,NA,NA,NA,NA,NA,NA,NA
5cc74,Shallow Question,html.Page,3_0_0_0_6_1_0,NA,NA,form submission,3754.42,222511,222506.92,222523.58,226278,226278,2023-10-27T12:57:23Z,226289.2,NULL,Widerstand,usulubu,s,kusababisha,mwalimu,mwenendo,mwalimu,NA,NA,0,NA,NA,NA,NA,NA,NA,NA,NA,NA,NA,NA,NA,NA,NA,NA,NA,NA,NA,NA
5cc74,"""Richtig""-Screen",canvas.Screen,3_0_0_0_6_1_1,NA,NA,skipped,NA,226283,NA,NA,226278,226284,2023-10-27T12:57:23Z,226289.2,NULL,Widerstand,usulubu,s,kusababisha,mwalimu,mwenendo,NA,sdf,NA,0,NA,NA,NA,NA,NA,NA,NA,NA,NA,NA,NA,NA,NA,NA,NA,NA,NA,NA,NA
5cc74,"""Falsch""-Screen",canvas.Screen,3_0_0_0_6_1_2,NA,NA,timeout,4999.32,226287,226272.52,226289.2,231271.86,231274,2023-10-27T12:57:28Z,231288.52,NULL,Widerstand,usulubu,s,kusababisha,mwalimu,mwenendo,NA,sdf,0,0,NA,NA,NA,NA,NA,NA,NA,NA,NA,NA,NA,NA,NA,NA,NA,NA,NA,NA,NA
5cc74,shallow,flow.Sequence,3_0_0_0_6_1,NA,NA,completion,8748.28,222511,222506.92,222523.58,231271.86,231275,2023-10-27T12:57:28Z,231288.52,NULL,Widerstand,usulubu,s,kusababisha,mwalimu,mwenendo,NA,sdf,NA,0,NA,NA,NA,NA,NA,NA,NA,NA,NA,NA,NA,NA,NA,NA,NA,NA,NA,NA,NA
5cc74,task,flow.Sequence,3_0_0_0_6,NA,NA,completion,8748.28,222510,222506.92,222523.58,231271.86,231275,2023-10-27T12:57:28Z,231288.52,NULL,Widerstand,usulubu,s,kusababisha,mwalimu,mwenendo,NA,sdf,NA,0,NA,NA,NA,NA,NA,NA,NA,NA,NA,NA,NA,NA,NA,NA,NA,NA,NA,NA,NA
5cc74,deep,flow.Sequence,3_0_0_0_7_0,NA,NA,skipped,NA,231276,NA,NA,231271.86,231276,2023-10-27T12:57:28Z,231288.52,NULL,Kontrolle,kudhibiti,s,mbinguni,kufunga,utegemezi,NA,sdf,NA,0,NA,NA,NA,NA,NA,NA,NA,NA,NA,NA,NA,NA,NA,NA,NA,NA,NA,NA,NA
5cc74,Shallow Question,html.Page,3_0_0_0_7_1_0,NA,NA,form submission,5272.48,231276,231271.86,231288.52,236561,236561,2023-10-27T12:57:33Z,236570.22,NULL,Kontrolle,kudhibiti,s,mbinguni,kufunga,utegemezi,mbinguni,NA,NA,0,NA,NA,NA,NA,NA,NA,NA,NA,NA,NA,NA,NA,NA,NA,NA,NA,NA,NA,NA
5cc74,"""Richtig""-Screen",canvas.Screen,3_0_0_0_7_1_1,NA,NA,skipped,NA,236566,NA,NA,236561,236566,2023-10-27T12:57:33Z,236570.22,NULL,Kontrolle,kudhibiti,s,mbinguni,kufunga,utegemezi,NA,sdf,NA,0,NA,NA,NA,NA,NA,NA,NA,NA,NA,NA,NA,NA,NA,NA,NA,NA,NA,NA,NA
5cc74,"""Falsch""-Screen",canvas.Screen,3_0_0_0_7_1_2,NA,NA,timeout,5000.9,236572,236555.72,236570.22,241554.46,241560,2023-10-27T12:57:38Z,241571.12,NULL,Kontrolle,kudhibiti,s,mbinguni,kufunga,utegemezi,NA,sdf,0,0,NA,NA,NA,NA,NA,NA,NA,NA,NA,NA,NA,NA,NA,NA,NA,NA,NA,NA,NA
5cc74,shallow,flow.Sequence,3_0_0_0_7_1,NA,NA,completion,10265.94,231276,231271.86,231288.52,241554.46,241563,2023-10-27T12:57:38Z,241571.12,NULL,Kontrolle,kudhibiti,s,mbinguni,kufunga,utegemezi,NA,sdf,NA,0,NA,NA,NA,NA,NA,NA,NA,NA,NA,NA,NA,NA,NA,NA,NA,NA,NA,NA,NA
5cc74,task,flow.Sequence,3_0_0_0_7,NA,NA,completion,10265.94,231275,231271.86,231288.52,241554.46,241564,2023-10-27T12:57:38Z,241571.12,NULL,Kontrolle,kudhibiti,s,mbinguni,kufunga,utegemezi,NA,sdf,NA,0,NA,NA,NA,NA,NA,NA,NA,NA,NA,NA,NA,NA,NA,NA,NA,NA,NA,NA,NA
5cc74,block,flow.Loop,3_0_0_0,NA,NA,completion,94622.76,146924,146924.68,146931.7,241554.46,241565,2023-10-27T12:57:38Z,241571.12,NULL,NA,NA,NA,NA,NA,NA,NA,sdf,NA,0,NA,NA,NA,NA,NA,NA,NA,NA,NA,NA,NA,NA,NA,NA,NA,NA,NA,NA,NA
5cc74,weiter,canvas.Screen,3_0_0_1,sdf,keypress(Space),response,1278.88,241566,241554.46,241571.12,242850,242866,2023-10-27T12:57:40Z,242937.28,NULL,NA,NA,NA,NA,NA,NA,NA,sdf,NA,0,NA,NA,NA,NA,NA,NA,NA,NA,NA,NA,NA,NA,NA,NA,NA,NA,NA,NA,NA
5cc74,check continue,flow.Sequence,3_0_0,NA,NA,completion,95918.3,146924,146924.68,146931.7,242850,242867,2023-10-27T12:57:40Z,242937.28,NULL,NA,NA,NA,NA,NA,NA,NA,sdf,NA,0,NA,NA,NA,NA,NA,NA,NA,NA,NA,NA,NA,NA,NA,NA,NA,NA,NA,NA,NA
5cc74,Deep Question,html.Page,3_0_1_0_0_0_0,NA,NA,form submission,8974.72,242937,242936.66,242937.28,251912,251913,2023-10-27T12:57:49Z,251918.98,NULL,Können,unaweza,d,NA,NA,NA,kuzwalega,NA,NA,1,NA,NA,NA,NA,NA,NA,NA,NA,NA,NA,NA,NA,NA,NA,NA,NA,NA,NA,NA
5cc74,"""Richtig""-Screen",canvas.Screen,3_0_1_0_0_0_1,NA,NA,skipped,NA,251918,NA,NA,251912,251919,2023-10-27T12:57:49Z,251918.98,NULL,Können,unaweza,d,NA,NA,NA,NA,sdfdsf,NA,1,NA,NA,NA,NA,NA,NA,NA,NA,NA,NA,NA,NA,NA,NA,NA,NA,NA,NA,NA
5cc74,"""Falsch""-Screen",canvas.Screen,3_0_1_0_0_0_2,NA,NA,timeout,4999.1,251924,251904,251918.98,256901.44,256904,2023-10-27T12:57:54Z,256918.08,NULL,Können,unaweza,d,NA,NA,NA,NA,sdfdsf,0,1,NA,NA,NA,NA,NA,NA,NA,NA,NA,NA,NA,NA,NA,NA,NA,NA,NA,NA,NA
5cc74,deep,flow.Sequence,3_0_1_0_0_0,NA,NA,completion,13964.16,242937,242936.66,242937.28,256901.44,256906,2023-10-27T12:57:54Z,256918.08,NULL,Können,unaweza,d,NA,NA,NA,NA,sdfdsf,NA,1,NA,NA,NA,NA,NA,NA,NA,NA,NA,NA,NA,NA,NA,NA,NA,NA,NA,NA,NA
5cc74,shallow,flow.Sequence,3_0_1_0_0_1,NA,NA,skipped,NA,256906,NA,NA,256901.44,256906,2023-10-27T12:57:54Z,256918.08,NULL,Können,unaweza,d,NA,NA,NA,NA,sdfdsf,NA,1,NA,NA,NA,NA,NA,NA,NA,NA,NA,NA,NA,NA,NA,NA,NA,NA,NA,NA,NA
5cc74,task,flow.Sequence,3_0_1_0_0,NA,NA,completion,13964.16,242937,242936.66,242937.28,256901.44,256906,2023-10-27T12:57:54Z,256918.08,NULL,Können,unaweza,d,NA,NA,NA,NA,sdfdsf,NA,1,NA,NA,NA,NA,NA,NA,NA,NA,NA,NA,NA,NA,NA,NA,NA,NA,NA,NA,NA
5cc74,Deep Question,html.Page,3_0_1_0_1_0_0,NA,NA,form submission,6497.92,256908,256901.44,256918.08,263416,263416,2023-10-27T12:58:00Z,263418.24,NULL,Kreativität,ubunifu,d,NA,NA,NA,hkk,NA,NA,1,NA,NA,NA,NA,NA,NA,NA,NA,NA,NA,NA,NA,NA,NA,NA,NA,NA,NA,NA
5cc74,"""Richtig""-Screen",canvas.Screen,3_0_1_0_1_0_1,NA,NA,skipped,NA,263418,NA,NA,263416,263418,2023-10-27T12:58:00Z,263418.24,NULL,Kreativität,ubunifu,d,NA,NA,NA,NA,sdfdsf,NA,1,NA,NA,NA,NA,NA,NA,NA,NA,NA,NA,NA,NA,NA,NA,NA,NA,NA,NA,NA
5cc74,"""Falsch""-Screen",canvas.Screen,3_0_1_0_1_0_2,NA,NA,timeout,4998.66,263420,263414.7,263418.24,268400.24,268402,2023-10-27T12:58:05Z,268416.9,NULL,Kreativität,ubunifu,d,NA,NA,NA,NA,sdfdsf,0,1,NA,NA,NA,NA,NA,NA,NA,NA,NA,NA,NA,NA,NA,NA,NA,NA,NA,NA,NA
5cc74,deep,flow.Sequence,3_0_1_0_1_0,NA,NA,completion,11482.16,256908,256901.44,256918.08,268400.24,268403,2023-10-27T12:58:05Z,268416.9,NULL,Kreativität,ubunifu,d,NA,NA,NA,NA,sdfdsf,NA,1,NA,NA,NA,NA,NA,NA,NA,NA,NA,NA,NA,NA,NA,NA,NA,NA,NA,NA,NA
5cc74,shallow,flow.Sequence,3_0_1_0_1_1,NA,NA,skipped,NA,268403,NA,NA,268400.24,268403,2023-10-27T12:58:05Z,268416.9,NULL,Kreativität,ubunifu,d,NA,NA,NA,NA,sdfdsf,NA,1,NA,NA,NA,NA,NA,NA,NA,NA,NA,NA,NA,NA,NA,NA,NA,NA,NA,NA,NA
5cc74,task,flow.Sequence,3_0_1_0_1,NA,NA,completion,11482.16,256907,256901.44,256918.08,268400.24,268404,2023-10-27T12:58:05Z,268416.9,NULL,Kreativität,ubunifu,d,NA,NA,NA,NA,sdfdsf,NA,1,NA,NA,NA,NA,NA,NA,NA,NA,NA,NA,NA,NA,NA,NA,NA,NA,NA,NA,NA
5cc74,Deep Question,html.Page,3_0_1_0_2_0_0,NA,NA,form submission,6166.1,268404,268400.24,268416.9,274583,274584,2023-10-27T12:58:11Z,274582.66,NULL,Gelegenheit,wakati,d,NA,NA,NA,nn,NA,NA,1,NA,NA,NA,NA,NA,NA,NA,NA,NA,NA,NA,NA,NA,NA,NA,NA,NA,NA,NA
5cc74,"""Richtig""-Screen",canvas.Screen,3_0_1_0_2_0_1,NA,NA,skipped,NA,274585,NA,NA,274583,274586,2023-10-27T12:58:11Z,274582.66,NULL,Gelegenheit,wakati,d,NA,NA,NA,NA,sdfdsf,NA,1,NA,NA,NA,NA,NA,NA,NA,NA,NA,NA,NA,NA,NA,NA,NA,NA,NA,NA,NA
5cc74,"""Falsch""-Screen",canvas.Screen,3_0_1_0_2_0_2,NA,NA,timeout,4999.3,274588,274580.74,274582.66,279565.3,279567,2023-10-27T12:58:16Z,279581.96,NULL,Gelegenheit,wakati,d,NA,NA,NA,NA,sdfdsf,0,1,NA,NA,NA,NA,NA,NA,NA,NA,NA,NA,NA,NA,NA,NA,NA,NA,NA,NA,NA
5cc74,deep,flow.Sequence,3_0_1_0_2_0,NA,NA,completion,11148.4,268404,268400.24,268416.9,279565.3,279567,2023-10-27T12:58:16Z,279581.96,NULL,Gelegenheit,wakati,d,NA,NA,NA,NA,sdfdsf,NA,1,NA,NA,NA,NA,NA,NA,NA,NA,NA,NA,NA,NA,NA,NA,NA,NA,NA,NA,NA
5cc74,shallow,flow.Sequence,3_0_1_0_2_1,NA,NA,skipped,NA,279567,NA,NA,279565.3,279567,2023-10-27T12:58:16Z,279581.96,NULL,Gelegenheit,wakati,d,NA,NA,NA,NA,sdfdsf,NA,1,NA,NA,NA,NA,NA,NA,NA,NA,NA,NA,NA,NA,NA,NA,NA,NA,NA,NA,NA
5cc74,task,flow.Sequence,3_0_1_0_2,NA,NA,completion,11148.4,268404,268400.24,268416.9,279565.3,279567,2023-10-27T12:58:16Z,279581.96,NULL,Gelegenheit,wakati,d,NA,NA,NA,NA,sdfdsf,NA,1,NA,NA,NA,NA,NA,NA,NA,NA,NA,NA,NA,NA,NA,NA,NA,NA,NA,NA,NA
5cc74,deep,flow.Sequence,3_0_1_0_3_0,NA,NA,skipped,NA,279568,NA,NA,279565.3,279568,2023-10-27T12:58:16Z,279581.96,NULL,Kontrolle,kudhibiti,s,mbinguni,kufunga,utegemezi,NA,sdfdsf,NA,1,NA,NA,NA,NA,NA,NA,NA,NA,NA,NA,NA,NA,NA,NA,NA,NA,NA,NA,NA
5cc74,Shallow Question,html.Page,3_0_1_0_3_1_0,NA,NA,form submission,10864.04,279568,279565.3,279581.96,290446,290446,2023-10-27T12:58:27Z,290446.78,NULL,Kontrolle,kudhibiti,s,mbinguni,kufunga,utegemezi,kufunga,NA,NA,1,NA,NA,NA,NA,NA,NA,NA,NA,NA,NA,NA,NA,NA,NA,NA,NA,NA,NA,NA
5cc74,"""Richtig""-Screen",canvas.Screen,3_0_1_0_3_1_1,NA,NA,skipped,NA,290453,NA,NA,290446,290453,2023-10-27T12:58:27Z,290446.78,NULL,Kontrolle,kudhibiti,s,mbinguni,kufunga,utegemezi,NA,sdfdsf,NA,1,NA,NA,NA,NA,NA,NA,NA,NA,NA,NA,NA,NA,NA,NA,NA,NA,NA,NA,NA
5cc74,"""Falsch""-Screen",canvas.Screen,3_0_1_0_3_1_2,NA,NA,timeout,4999.4399999999,290458,290440.92,290446.78,295429.56,295432,2023-10-27T12:58:32Z,295446.22,NULL,Kontrolle,kudhibiti,s,mbinguni,kufunga,utegemezi,NA,sdfdsf,0,1,NA,NA,NA,NA,NA,NA,NA,NA,NA,NA,NA,NA,NA,NA,NA,NA,NA,NA,NA
5cc74,shallow,flow.Sequence,3_0_1_0_3_1,NA,NA,completion,15847.6,279568,279565.3,279581.96,295429.56,295433,2023-10-27T12:58:32Z,295446.22,NULL,Kontrolle,kudhibiti,s,mbinguni,kufunga,utegemezi,NA,sdfdsf,NA,1,NA,NA,NA,NA,NA,NA,NA,NA,NA,NA,NA,NA,NA,NA,NA,NA,NA,NA,NA
5cc74,task,flow.Sequence,3_0_1_0_3,NA,NA,completion,15847.6,279568,279565.3,279581.96,295429.56,295433,2023-10-27T12:58:32Z,295446.22,NULL,Kontrolle,kudhibiti,s,mbinguni,kufunga,utegemezi,NA,sdfdsf,NA,1,NA,NA,NA,NA,NA,NA,NA,NA,NA,NA,NA,NA,NA,NA,NA,NA,NA,NA,NA
5cc74,Deep Question,html.Page,3_0_1_0_4_0_0,NA,NA,form submission,8819.78,295434,295429.56,295446.22,304266,304268,2023-10-27T12:58:41Z,304279.08,NULL,Ausschluss,kutengwa,d,NA,NA,NA,jn,NA,NA,1,NA,NA,NA,NA,NA,NA,NA,NA,NA,NA,NA,NA,NA,NA,NA,NA,NA,NA,NA
5cc74,"""Richtig""-Screen",canvas.Screen,3_0_1_0_4_0_1,NA,NA,skipped,NA,304274,NA,NA,304266,304274,2023-10-27T12:58:41Z,304279.08,NULL,Ausschluss,kutengwa,d,NA,NA,NA,NA,sdfdsf,NA,1,NA,NA,NA,NA,NA,NA,NA,NA,NA,NA,NA,NA,NA,NA,NA,NA,NA,NA,NA
5cc74,"""Falsch""-Screen",canvas.Screen,3_0_1_0_4_0_2,NA,NA,timeout,4999.9,304278,304261.22,304279.08,309262.34,309264,2023-10-27T12:58:46Z,309278.98,NULL,Ausschluss,kutengwa,d,NA,NA,NA,NA,sdfdsf,0,1,NA,NA,NA,NA,NA,NA,NA,NA,NA,NA,NA,NA,NA,NA,NA,NA,NA,NA,NA
5cc74,deep,flow.Sequence,3_0_1_0_4_0,NA,NA,completion,13816.12,295434,295429.56,295446.22,309262.34,309265,2023-10-27T12:58:46Z,309278.98,NULL,Ausschluss,kutengwa,d,NA,NA,NA,NA,sdfdsf,NA,1,NA,NA,NA,NA,NA,NA,NA,NA,NA,NA,NA,NA,NA,NA,NA,NA,NA,NA,NA
5cc74,shallow,flow.Sequence,3_0_1_0_4_1,NA,NA,skipped,NA,309265,NA,NA,309262.34,309266,2023-10-27T12:58:46Z,309278.98,NULL,Ausschluss,kutengwa,d,NA,NA,NA,NA,sdfdsf,NA,1,NA,NA,NA,NA,NA,NA,NA,NA,NA,NA,NA,NA,NA,NA,NA,NA,NA,NA,NA
5cc74,task,flow.Sequence,3_0_1_0_4,NA,NA,completion,13816.12,295433,295429.56,295446.22,309262.34,309267,2023-10-27T12:58:46Z,309278.98,NULL,Ausschluss,kutengwa,d,NA,NA,NA,NA,sdfdsf,NA,1,NA,NA,NA,NA,NA,NA,NA,NA,NA,NA,NA,NA,NA,NA,NA,NA,NA,NA,NA
5cc74,deep,flow.Sequence,3_0_1_0_5_0,NA,NA,skipped,NA,309267,NA,NA,309262.34,309268,2023-10-27T12:58:46Z,309278.98,NULL,Gefährdung,kuhatarisha,s,uchokozi,udhaifu,makorowezo,NA,sdfdsf,NA,1,NA,NA,NA,NA,NA,NA,NA,NA,NA,NA,NA,NA,NA,NA,NA,NA,NA,NA,NA
5cc74,Shallow Question,html.Page,3_0_1_0_5_1_0,NA,NA,form submission,5831.02,309268,309262.34,309278.98,315110,315111,2023-10-27T12:58:52Z,315110.72,NULL,Gefährdung,kuhatarisha,s,uchokozi,udhaifu,makorowezo,kuhatarisha,NA,NA,1,NA,NA,NA,NA,NA,NA,NA,NA,NA,NA,NA,NA,NA,NA,NA,NA,NA,NA,NA
5cc74,"""Richtig""-Screen",canvas.Screen,3_0_1_0_5_1_1,NA,NA,timeout,4999.1,315115,315106.06,315110.72,320093.16,320096,2023-10-27T12:58:57Z,320109.82,NULL,Gefährdung,kuhatarisha,s,uchokozi,udhaifu,makorowezo,NA,sdfdsf,1,1,NA,NA,NA,NA,NA,NA,NA,NA,NA,NA,NA,NA,NA,NA,NA,NA,NA,NA,NA
5cc74,"""Falsch""-Screen",canvas.Screen,3_0_1_0_5_1_2,NA,NA,skipped,NA,320100,NA,NA,320093.16,320100,2023-10-27T12:58:57Z,320109.82,NULL,Gefährdung,kuhatarisha,s,uchokozi,udhaifu,makorowezo,NA,sdfdsf,NA,1,NA,NA,NA,NA,NA,NA,NA,NA,NA,NA,NA,NA,NA,NA,NA,NA,NA,NA,NA
5cc74,shallow,flow.Sequence,3_0_1_0_5_1,NA,NA,completion,10814.18,309268,309262.34,309278.98,320093.16,320101,2023-10-27T12:58:57Z,320109.82,NULL,Gefährdung,kuhatarisha,s,uchokozi,udhaifu,makorowezo,NA,sdfdsf,NA,1,NA,NA,NA,NA,NA,NA,NA,NA,NA,NA,NA,NA,NA,NA,NA,NA,NA,NA,NA
5cc74,task,flow.Sequence,3_0_1_0_5,NA,NA,completion,10814.18,309267,309262.34,309278.98,320093.16,320101,2023-10-27T12:58:57Z,320109.82,NULL,Gefährdung,kuhatarisha,s,uchokozi,udhaifu,makorowezo,NA,sdfdsf,NA,1,NA,NA,NA,NA,NA,NA,NA,NA,NA,NA,NA,NA,NA,NA,NA,NA,NA,NA,NA
5cc74,deep,flow.Sequence,3_0_1_0_6_0,NA,NA,skipped,NA,320101,NA,NA,320093.16,320101,2023-10-27T12:58:57Z,320109.82,NULL,Verstand,ufahamivu,s,shakawa,hadhari,mhandisi,NA,sdfdsf,NA,1,NA,NA,NA,NA,NA,NA,NA,NA,NA,NA,NA,NA,NA,NA,NA,NA,NA,NA,NA
5cc74,Shallow Question,html.Page,3_0_1_0_6_1_0,NA,NA,form submission,5717.18,320102,320093.16,320109.82,325827,325828,2023-10-27T12:59:03Z,325826.78,NULL,Verstand,ufahamivu,s,shakawa,hadhari,mhandisi,ufahamivu,NA,NA,1,NA,NA,NA,NA,NA,NA,NA,NA,NA,NA,NA,NA,NA,NA,NA,NA,NA,NA,NA
5cc74,"""Richtig""-Screen",canvas.Screen,3_0_1_0_6_1_1,NA,NA,timeout,4999.42,325834,325821.98,325826.78,330809.54,330811,2023-10-27T12:59:08Z,330826.2,NULL,Verstand,ufahamivu,s,shakawa,hadhari,mhandisi,NA,sdfdsf,1,1,NA,NA,NA,NA,NA,NA,NA,NA,NA,NA,NA,NA,NA,NA,NA,NA,NA,NA,NA
5cc74,"""Falsch""-Screen",canvas.Screen,3_0_1_0_6_1_2,NA,NA,skipped,NA,330818,NA,NA,330809.54,330819,2023-10-27T12:59:08Z,330826.2,NULL,Verstand,ufahamivu,s,shakawa,hadhari,mhandisi,NA,sdfdsf,NA,1,NA,NA,NA,NA,NA,NA,NA,NA,NA,NA,NA,NA,NA,NA,NA,NA,NA,NA,NA
5cc74,shallow,flow.Sequence,3_0_1_0_6_1,NA,NA,completion,10699.72,320101,320093.16,320109.82,330809.54,330819,2023-10-27T12:59:08Z,330826.2,NULL,Verstand,ufahamivu,s,shakawa,hadhari,mhandisi,NA,sdfdsf,NA,1,NA,NA,NA,NA,NA,NA,NA,NA,NA,NA,NA,NA,NA,NA,NA,NA,NA,NA,NA
5cc74,task,flow.Sequence,3_0_1_0_6,NA,NA,completion,10699.72,320101,320093.16,320109.82,330809.54,330820,2023-10-27T12:59:08Z,330826.2,NULL,Verstand,ufahamivu,s,shakawa,hadhari,mhandisi,NA,sdfdsf,NA,1,NA,NA,NA,NA,NA,NA,NA,NA,NA,NA,NA,NA,NA,NA,NA,NA,NA,NA,NA
5cc74,deep,flow.Sequence,3_0_1_0_7_0,NA,NA,skipped,NA,330820,NA,NA,330809.54,330822,2023-10-27T12:59:08Z,330826.2,NULL,Widerstand,usulubu,s,kusababisha,mwalimu,mwenendo,NA,sdfdsf,NA,1,NA,NA,NA,NA,NA,NA,NA,NA,NA,NA,NA,NA,NA,NA,NA,NA,NA,NA,NA
5cc74,Shallow Question,html.Page,3_0_1_0_7_1_0,NA,NA,form submission,4355.8,330822,330809.54,330826.2,335182,335182,2023-10-27T12:59:12Z,335191.2,NULL,Widerstand,usulubu,s,kusababisha,mwalimu,mwenendo,usulubu,NA,NA,1,NA,NA,NA,NA,NA,NA,NA,NA,NA,NA,NA,NA,NA,NA,NA,NA,NA,NA,NA
5cc74,"""Richtig""-Screen",canvas.Screen,3_0_1_0_7_1_1,NA,NA,timeout,4999.72,335188,335175.98,335191.2,340174.26,340177,2023-10-27T12:59:17Z,340190.92,NULL,Widerstand,usulubu,s,kusababisha,mwalimu,mwenendo,NA,sdfdsf,1,1,NA,NA,NA,NA,NA,NA,NA,NA,NA,NA,NA,NA,NA,NA,NA,NA,NA,NA,NA
5cc74,"""Falsch""-Screen",canvas.Screen,3_0_1_0_7_1_2,NA,NA,skipped,NA,340184,NA,NA,340174.26,340184,2023-10-27T12:59:17Z,340190.92,NULL,Widerstand,usulubu,s,kusababisha,mwalimu,mwenendo,NA,sdfdsf,NA,1,NA,NA,NA,NA,NA,NA,NA,NA,NA,NA,NA,NA,NA,NA,NA,NA,NA,NA,NA
5cc74,shallow,flow.Sequence,3_0_1_0_7_1,NA,NA,completion,9348.06,330822,330809.54,330826.2,340174.26,340185,2023-10-27T12:59:17Z,340190.92,NULL,Widerstand,usulubu,s,kusababisha,mwalimu,mwenendo,NA,sdfdsf,NA,1,NA,NA,NA,NA,NA,NA,NA,NA,NA,NA,NA,NA,NA,NA,NA,NA,NA,NA,NA
5cc74,task,flow.Sequence,3_0_1_0_7,NA,NA,completion,9348.06,330820,330809.54,330826.2,340174.26,340185,2023-10-27T12:59:17Z,340190.92,NULL,Widerstand,usulubu,s,kusababisha,mwalimu,mwenendo,NA,sdfdsf,NA,1,NA,NA,NA,NA,NA,NA,NA,NA,NA,NA,NA,NA,NA,NA,NA,NA,NA,NA,NA
5cc74,block,flow.Loop,3_0_1_0,NA,NA,completion,97236.98,242937,242936.66,242937.28,340174.26,340186,2023-10-27T12:59:17Z,340190.92,NULL,NA,NA,NA,NA,NA,NA,NA,sdfdsf,NA,1,NA,NA,NA,NA,NA,NA,NA,NA,NA,NA,NA,NA,NA,NA,NA,NA,NA,NA,NA
5cc74,weiter,canvas.Screen,3_0_1_1,sdf,keypress(Space),response,956.08000000002,340186,340174.26,340190.92,341147,341166,2023-10-27T12:59:18Z,341223.52,NULL,NA,NA,NA,NA,NA,NA,NA,sdfdsf,NA,1,NA,NA,NA,NA,NA,NA,NA,NA,NA,NA,NA,NA,NA,NA,NA,NA,NA,NA,NA
5cc74,check continue,flow.Sequence,3_0_1,NA,NA,completion,98209.72,242937,242936.66,242937.28,341147,341166,2023-10-27T12:59:18Z,341223.52,NULL,NA,NA,NA,NA,NA,NA,NA,sdfdsf,NA,1,NA,NA,NA,NA,NA,NA,NA,NA,NA,NA,NA,NA,NA,NA,NA,NA,NA,NA,NA
5cc74,Deep Question,html.Page,3_0_2_0_0_0_0,NA,NA,form submission,9564.48,341216,341215.66,341223.52,350788,350789,2023-10-27T12:59:28Z,350790.22,NULL,Gelegenheit,wakati,d,NA,NA,NA,j,NA,NA,2,NA,NA,NA,NA,NA,NA,NA,NA,NA,NA,NA,NA,NA,NA,NA,NA,NA,NA,NA
5cc74,"""Richtig""-Screen",canvas.Screen,3_0_2_0_0_0_1,NA,NA,skipped,NA,350790,NA,NA,350788,350790,2023-10-27T12:59:28Z,350790.22,NULL,Gelegenheit,wakati,d,NA,NA,NA,NA,sdf,NA,2,NA,NA,NA,NA,NA,NA,NA,NA,NA,NA,NA,NA,NA,NA,NA,NA,NA,NA,NA
5cc74,"""Falsch""-Screen",canvas.Screen,3_0_2_0_0_0_2,NA,NA,timeout,4999.38,350791,350786.94,350790.22,355772.96,355774,2023-10-27T12:59:33Z,355789.6,NULL,Gelegenheit,wakati,d,NA,NA,NA,NA,sdf,0,2,NA,NA,NA,NA,NA,NA,NA,NA,NA,NA,NA,NA,NA,NA,NA,NA,NA,NA,NA
5cc74,deep,flow.Sequence,3_0_2_0_0_0,NA,NA,completion,14549.44,341216,341215.66,341223.52,355772.96,355775,2023-10-27T12:59:33Z,355789.6,NULL,Gelegenheit,wakati,d,NA,NA,NA,NA,sdf,NA,2,NA,NA,NA,NA,NA,NA,NA,NA,NA,NA,NA,NA,NA,NA,NA,NA,NA,NA,NA
5cc74,shallow,flow.Sequence,3_0_2_0_0_1,NA,NA,skipped,NA,355775,NA,NA,355772.96,355776,2023-10-27T12:59:33Z,355789.6,NULL,Gelegenheit,wakati,d,NA,NA,NA,NA,sdf,NA,2,NA,NA,NA,NA,NA,NA,NA,NA,NA,NA,NA,NA,NA,NA,NA,NA,NA,NA,NA
5cc74,task,flow.Sequence,3_0_2_0_0,NA,NA,completion,14549.44,341216,341215.66,341223.52,355772.96,355776,2023-10-27T12:59:33Z,355789.6,NULL,Gelegenheit,wakati,d,NA,NA,NA,NA,sdf,NA,2,NA,NA,NA,NA,NA,NA,NA,NA,NA,NA,NA,NA,NA,NA,NA,NA,NA,NA,NA
5cc74,Deep Question,html.Page,3_0_2_0_1_0_0,NA,NA,form submission,6494.4,355776,355772.96,355789.6,362284,362285,2023-10-27T12:59:39Z,362287.26,NULL,Kreativität,ubunifu,d,NA,NA,NA,n,NA,NA,2,NA,NA,NA,NA,NA,NA,NA,NA,NA,NA,NA,NA,NA,NA,NA,NA,NA,NA,NA
5cc74,"""Richtig""-Screen",canvas.Screen,3_0_2_0_1_0_1,NA,NA,skipped,NA,362292,NA,NA,362284,362292,2023-10-27T12:59:39Z,362287.26,NULL,Kreativität,ubunifu,d,NA,NA,NA,NA,sdf,NA,2,NA,NA,NA,NA,NA,NA,NA,NA,NA,NA,NA,NA,NA,NA,NA,NA,NA,NA,NA
5cc74,"""Falsch""-Screen",canvas.Screen,3_0_2_0_1_0_2,NA,NA,timeout,4999.98,362296,362279.82,362287.26,367270.58,367273,2023-10-27T12:59:44Z,367287.24,NULL,Kreativität,ubunifu,d,NA,NA,NA,NA,sdf,0,2,NA,NA,NA,NA,NA,NA,NA,NA,NA,NA,NA,NA,NA,NA,NA,NA,NA,NA,NA
5cc74,deep,flow.Sequence,3_0_2_0_1_0,NA,NA,completion,11480.98,355776,355772.96,355789.6,367270.58,367274,2023-10-27T12:59:44Z,367287.24,NULL,Kreativität,ubunifu,d,NA,NA,NA,NA,sdf,NA,2,NA,NA,NA,NA,NA,NA,NA,NA,NA,NA,NA,NA,NA,NA,NA,NA,NA,NA,NA
5cc74,shallow,flow.Sequence,3_0_2_0_1_1,NA,NA,skipped,NA,367274,NA,NA,367270.58,367275,2023-10-27T12:59:44Z,367287.24,NULL,Kreativität,ubunifu,d,NA,NA,NA,NA,sdf,NA,2,NA,NA,NA,NA,NA,NA,NA,NA,NA,NA,NA,NA,NA,NA,NA,NA,NA,NA,NA
5cc74,task,flow.Sequence,3_0_2_0_1,NA,NA,completion,11480.98,355776,355772.96,355789.6,367270.58,367275,2023-10-27T12:59:44Z,367287.24,NULL,Kreativität,ubunifu,d,NA,NA,NA,NA,sdf,NA,2,NA,NA,NA,NA,NA,NA,NA,NA,NA,NA,NA,NA,NA,NA,NA,NA,NA,NA,NA
5cc74,deep,flow.Sequence,3_0_2_0_2_0,NA,NA,skipped,NA,367276,NA,NA,367270.58,367276,2023-10-27T12:59:44Z,367287.24,NULL,Gefährdung,kuhatarisha,s,uchokozi,udhaifu,makorowezo,NA,sdf,NA,2,NA,NA,NA,NA,NA,NA,NA,NA,NA,NA,NA,NA,NA,NA,NA,NA,NA,NA,NA
5cc74,Shallow Question,html.Page,3_0_2_0_2_1_0,NA,NA,form submission,4475.76,367277,367270.58,367287.24,371763,371763,2023-10-27T12:59:49Z,371770.74,NULL,Gefährdung,kuhatarisha,s,uchokozi,udhaifu,makorowezo,kuhatarisha,NA,NA,2,NA,NA,NA,NA,NA,NA,NA,NA,NA,NA,NA,NA,NA,NA,NA,NA,NA,NA,NA
5cc74,"""Richtig""-Screen",canvas.Screen,3_0_2_0_2_1_1,NA,NA,timeout,4998.04,371769,371756.6,371770.74,376752.14,376756,2023-10-27T12:59:54Z,376768.78,NULL,Gefährdung,kuhatarisha,s,uchokozi,udhaifu,makorowezo,NA,sdf,1,2,NA,NA,NA,NA,NA,NA,NA,NA,NA,NA,NA,NA,NA,NA,NA,NA,NA,NA,NA
5cc74,"""Falsch""-Screen",canvas.Screen,3_0_2_0_2_1_2,NA,NA,skipped,NA,376763,NA,NA,376752.14,376764,2023-10-27T12:59:54Z,376768.78,NULL,Gefährdung,kuhatarisha,s,uchokozi,udhaifu,makorowezo,NA,sdf,NA,2,NA,NA,NA,NA,NA,NA,NA,NA,NA,NA,NA,NA,NA,NA,NA,NA,NA,NA,NA
5cc74,shallow,flow.Sequence,3_0_2_0_2_1,NA,NA,completion,9464.9,367277,367270.58,367287.24,376752.14,376765,2023-10-27T12:59:54Z,376768.78,NULL,Gefährdung,kuhatarisha,s,uchokozi,udhaifu,makorowezo,NA,sdf,NA,2,NA,NA,NA,NA,NA,NA,NA,NA,NA,NA,NA,NA,NA,NA,NA,NA,NA,NA,NA
5cc74,task,flow.Sequence,3_0_2_0_2,NA,NA,completion,9464.9,367276,367270.58,367287.24,376752.14,376766,2023-10-27T12:59:54Z,376768.78,NULL,Gefährdung,kuhatarisha,s,uchokozi,udhaifu,makorowezo,NA,sdf,NA,2,NA,NA,NA,NA,NA,NA,NA,NA,NA,NA,NA,NA,NA,NA,NA,NA,NA,NA,NA
5cc74,deep,flow.Sequence,3_0_2_0_3_0,NA,NA,skipped,NA,376766,NA,NA,376752.14,376767,2023-10-27T12:59:54Z,376768.78,NULL,Kontrolle,kudhibiti,s,mbinguni,kufunga,utegemezi,NA,sdf,NA,2,NA,NA,NA,NA,NA,NA,NA,NA,NA,NA,NA,NA,NA,NA,NA,NA,NA,NA,NA
5cc74,Shallow Question,html.Page,3_0_2_0_3_1_0,NA,NA,form submission,4619.22,376767,376752.14,376768.78,381388,381388,2023-10-27T12:59:58Z,381402.12,NULL,Kontrolle,kudhibiti,s,mbinguni,kufunga,utegemezi,kudhibiti,NA,NA,2,NA,NA,NA,NA,NA,NA,NA,NA,NA,NA,NA,NA,NA,NA,NA,NA,NA,NA,NA
5cc74,"""Richtig""-Screen",canvas.Screen,3_0_2_0_3_1_1,NA,NA,timeout,5000.12,381390,381386.42,381402.12,386385.58,386387,2023-10-27T13:00:03Z,386402.24,NULL,Kontrolle,kudhibiti,s,mbinguni,kufunga,utegemezi,NA,sdf,1,2,NA,NA,NA,NA,NA,NA,NA,NA,NA,NA,NA,NA,NA,NA,NA,NA,NA,NA,NA
5cc74,"""Falsch""-Screen",canvas.Screen,3_0_2_0_3_1_2,NA,NA,skipped,NA,386391,NA,NA,386385.58,386391,2023-10-27T13:00:03Z,386402.24,NULL,Kontrolle,kudhibiti,s,mbinguni,kufunga,utegemezi,NA,sdf,NA,2,NA,NA,NA,NA,NA,NA,NA,NA,NA,NA,NA,NA,NA,NA,NA,NA,NA,NA,NA
5cc74,shallow,flow.Sequence,3_0_2_0_3_1,NA,NA,completion,9616.8,376767,376752.14,376768.78,386385.58,386391,2023-10-27T13:00:03Z,386402.24,NULL,Kontrolle,kudhibiti,s,mbinguni,kufunga,utegemezi,NA,sdf,NA,2,NA,NA,NA,NA,NA,NA,NA,NA,NA,NA,NA,NA,NA,NA,NA,NA,NA,NA,NA
5cc74,task,flow.Sequence,3_0_2_0_3,NA,NA,completion,9616.8,376766,376752.14,376768.78,386385.58,386392,2023-10-27T13:00:03Z,386402.24,NULL,Kontrolle,kudhibiti,s,mbinguni,kufunga,utegemezi,NA,sdf,NA,2,NA,NA,NA,NA,NA,NA,NA,NA,NA,NA,NA,NA,NA,NA,NA,NA,NA,NA,NA
5cc74,deep,flow.Sequence,3_0_2_0_4_0,NA,NA,skipped,NA,386392,NA,NA,386385.58,386392,2023-10-27T13:00:03Z,386402.24,NULL,Verstand,ufahamivu,s,shakawa,hadhari,mhandisi,NA,sdf,NA,2,NA,NA,NA,NA,NA,NA,NA,NA,NA,NA,NA,NA,NA,NA,NA,NA,NA,NA,NA
5cc74,Shallow Question,html.Page,3_0_2_0_4_1_0,NA,NA,form submission,9746.76,386392,386385.58,386402.24,396149,396150,2023-10-27T13:00:13Z,396150.88,NULL,Verstand,ufahamivu,s,shakawa,hadhari,mhandisi,ufahamivu,NA,NA,2,NA,NA,NA,NA,NA,NA,NA,NA,NA,NA,NA,NA,NA,NA,NA,NA,NA,NA,NA
5cc74,"""Richtig""-Screen",canvas.Screen,3_0_2_0_4_1_1,NA,NA,timeout,4999.08,396152,396148.26,396150.88,401133.32,401134,2023-10-27T13:00:18Z,401149.96,NULL,Verstand,ufahamivu,s,shakawa,hadhari,mhandisi,NA,sdf,1,2,NA,NA,NA,NA,NA,NA,NA,NA,NA,NA,NA,NA,NA,NA,NA,NA,NA,NA,NA
5cc74,"""Falsch""-Screen",canvas.Screen,3_0_2_0_4_1_2,NA,NA,skipped,NA,401138,NA,NA,401133.32,401138,2023-10-27T13:00:18Z,401149.96,NULL,Verstand,ufahamivu,s,shakawa,hadhari,mhandisi,NA,sdf,NA,2,NA,NA,NA,NA,NA,NA,NA,NA,NA,NA,NA,NA,NA,NA,NA,NA,NA,NA,NA
5cc74,shallow,flow.Sequence,3_0_2_0_4_1,NA,NA,completion,14731.08,386392,386385.58,386402.24,401133.32,401138,2023-10-27T13:00:18Z,401149.96,NULL,Verstand,ufahamivu,s,shakawa,hadhari,mhandisi,NA,sdf,NA,2,NA,NA,NA,NA,NA,NA,NA,NA,NA,NA,NA,NA,NA,NA,NA,NA,NA,NA,NA
5cc74,task,flow.Sequence,3_0_2_0_4,NA,NA,completion,14731.08,386392,386385.58,386402.24,401133.32,401139,2023-10-27T13:00:18Z,401149.96,NULL,Verstand,ufahamivu,s,shakawa,hadhari,mhandisi,NA,sdf,NA,2,NA,NA,NA,NA,NA,NA,NA,NA,NA,NA,NA,NA,NA,NA,NA,NA,NA,NA,NA
5cc74,deep,flow.Sequence,3_0_2_0_5_0,NA,NA,skipped,NA,401139,NA,NA,401133.32,401139,2023-10-27T13:00:18Z,401149.96,NULL,Widerstand,usulubu,s,kusababisha,mwalimu,mwenendo,NA,sdf,NA,2,NA,NA,NA,NA,NA,NA,NA,NA,NA,NA,NA,NA,NA,NA,NA,NA,NA,NA,NA
5cc74,Shallow Question,html.Page,3_0_2_0_5_1_0,NA,NA,form submission,7986.04,401140,401133.32,401149.96,409136,409136,2023-10-27T13:00:26Z,409148.28,NULL,Widerstand,usulubu,s,kusababisha,mwalimu,mwenendo,usulubu,NA,NA,2,NA,NA,NA,NA,NA,NA,NA,NA,NA,NA,NA,NA,NA,NA,NA,NA,NA,NA,NA
5cc74,"""Richtig""-Screen",canvas.Screen,3_0_2_0_5_1_1,NA,NA,timeout,5000.48,409141,409131.78,409148.28,414134.64,414136,2023-10-27T13:00:31Z,414148.76,NULL,Widerstand,usulubu,s,kusababisha,mwalimu,mwenendo,NA,sdf,1,2,NA,NA,NA,NA,NA,NA,NA,NA,NA,NA,NA,NA,NA,NA,NA,NA,NA,NA,NA
5cc74,"""Falsch""-Screen",canvas.Screen,3_0_2_0_5_1_2,NA,NA,skipped,NA,414144,NA,NA,414134.64,414144,2023-10-27T13:00:31Z,414148.76,NULL,Widerstand,usulubu,s,kusababisha,mwalimu,mwenendo,NA,sdf,NA,2,NA,NA,NA,NA,NA,NA,NA,NA,NA,NA,NA,NA,NA,NA,NA,NA,NA,NA,NA
5cc74,shallow,flow.Sequence,3_0_2_0_5_1,NA,NA,completion,12984.68,401139,401133.32,401149.96,414134.64,414145,2023-10-27T13:00:31Z,414148.76,NULL,Widerstand,usulubu,s,kusababisha,mwalimu,mwenendo,NA,sdf,NA,2,NA,NA,NA,NA,NA,NA,NA,NA,NA,NA,NA,NA,NA,NA,NA,NA,NA,NA,NA
5cc74,task,flow.Sequence,3_0_2_0_5,NA,NA,completion,12984.68,401139,401133.32,401149.96,414134.64,414145,2023-10-27T13:00:31Z,414148.76,NULL,Widerstand,usulubu,s,kusababisha,mwalimu,mwenendo,NA,sdf,NA,2,NA,NA,NA,NA,NA,NA,NA,NA,NA,NA,NA,NA,NA,NA,NA,NA,NA,NA,NA
5cc74,Deep Question,html.Page,3_0_2_0_6_0_0,NA,NA,form submission,11372.24,414145,414134.64,414148.76,425521,425521,2023-10-27T13:00:42Z,425529.32,NULL,Können,unaweza,d,NA,NA,NA,kuthanida,NA,NA,2,NA,NA,NA,NA,NA,NA,NA,NA,NA,NA,NA,NA,NA,NA,NA,NA,NA,NA,NA
5cc74,"""Richtig""-Screen",canvas.Screen,3_0_2_0_6_0_1,NA,NA,skipped,NA,425524,NA,NA,425521,425524,2023-10-27T13:00:42Z,425529.32,NULL,Können,unaweza,d,NA,NA,NA,NA,sdf,NA,2,NA,NA,NA,NA,NA,NA,NA,NA,NA,NA,NA,NA,NA,NA,NA,NA,NA,NA,NA
5cc74,"""Falsch""-Screen",canvas.Screen,3_0_2_0_6_0_2,NA,NA,timeout,5000.16,425527,425517.7,425529.32,430512.82,430514,2023-10-27T13:00:47Z,430529.48,NULL,Können,unaweza,d,NA,NA,NA,NA,sdf,0,2,NA,NA,NA,NA,NA,NA,NA,NA,NA,NA,NA,NA,NA,NA,NA,NA,NA,NA,NA
5cc74,deep,flow.Sequence,3_0_2_0_6_0,NA,NA,completion,16364.06,414145,414134.64,414148.76,430512.82,430514,2023-10-27T13:00:47Z,430529.48,NULL,Können,unaweza,d,NA,NA,NA,NA,sdf,NA,2,NA,NA,NA,NA,NA,NA,NA,NA,NA,NA,NA,NA,NA,NA,NA,NA,NA,NA,NA
5cc74,shallow,flow.Sequence,3_0_2_0_6_1,NA,NA,skipped,NA,430515,NA,NA,430512.82,430515,2023-10-27T13:00:47Z,430529.48,NULL,Können,unaweza,d,NA,NA,NA,NA,sdf,NA,2,NA,NA,NA,NA,NA,NA,NA,NA,NA,NA,NA,NA,NA,NA,NA,NA,NA,NA,NA
5cc74,task,flow.Sequence,3_0_2_0_6,NA,NA,completion,16364.06,414145,414134.64,414148.76,430512.82,430515,2023-10-27T13:00:47Z,430529.48,NULL,Können,unaweza,d,NA,NA,NA,NA,sdf,NA,2,NA,NA,NA,NA,NA,NA,NA,NA,NA,NA,NA,NA,NA,NA,NA,NA,NA,NA,NA
5cc74,Deep Question,html.Page,3_0_2_0_7_0_0,NA,NA,form submission,9263.52,430515,430512.82,430529.48,439793,439793,2023-10-27T13:00:57Z,439794.98,NULL,Ausschluss,kutengwa,d,NA,NA,NA,hanifu,NA,NA,2,NA,NA,NA,NA,NA,NA,NA,NA,NA,NA,NA,NA,NA,NA,NA,NA,NA,NA,NA
5cc74,"""Richtig""-Screen",canvas.Screen,3_0_2_0_7_0_1,NA,NA,skipped,NA,439794,NA,NA,439793,439794,2023-10-27T13:00:57Z,439794.98,NULL,Ausschluss,kutengwa,d,NA,NA,NA,NA,sdf,NA,2,NA,NA,NA,NA,NA,NA,NA,NA,NA,NA,NA,NA,NA,NA,NA,NA,NA,NA,NA
5cc74,"""Falsch""-Screen",canvas.Screen,3_0_2_0_7_0_2,NA,NA,timeout,4999.42,439797,439791.8,439794.98,444777.74,444780,2023-10-27T13:01:02Z,444794.4,NULL,Ausschluss,kutengwa,d,NA,NA,NA,NA,sdf,0,2,NA,NA,NA,NA,NA,NA,NA,NA,NA,NA,NA,NA,NA,NA,NA,NA,NA,NA,NA
5cc74,deep,flow.Sequence,3_0_2_0_7_0,NA,NA,completion,14248.26,430515,430512.82,430529.48,444777.74,444780,2023-10-27T13:01:02Z,444794.4,NULL,Ausschluss,kutengwa,d,NA,NA,NA,NA,sdf,NA,2,NA,NA,NA,NA,NA,NA,NA,NA,NA,NA,NA,NA,NA,NA,NA,NA,NA,NA,NA
5cc74,shallow,flow.Sequence,3_0_2_0_7_1,NA,NA,skipped,NA,444781,NA,NA,444777.74,444781,2023-10-27T13:01:02Z,444794.4,NULL,Ausschluss,kutengwa,d,NA,NA,NA,NA,sdf,NA,2,NA,NA,NA,NA,NA,NA,NA,NA,NA,NA,NA,NA,NA,NA,NA,NA,NA,NA,NA
5cc74,task,flow.Sequence,3_0_2_0_7,NA,NA,completion,14248.26,430515,430512.82,430529.48,444777.74,444782,2023-10-27T13:01:02Z,444794.4,NULL,Ausschluss,kutengwa,d,NA,NA,NA,NA,sdf,NA,2,NA,NA,NA,NA,NA,NA,NA,NA,NA,NA,NA,NA,NA,NA,NA,NA,NA,NA,NA
5cc74,block,flow.Loop,3_0_2_0,NA,NA,completion,103554.22,341216,341215.66,341223.52,444777.74,444782,2023-10-27T13:01:02Z,444794.4,NULL,NA,NA,NA,NA,NA,NA,NA,sdf,NA,2,NA,NA,NA,NA,NA,NA,NA,NA,NA,NA,NA,NA,NA,NA,NA,NA,NA,NA,NA
5cc74,weiter,canvas.Screen,3_0_2_1,sdf,keypress(Space),response,2524.6,444784,444777.74,444794.4,447319,447330,2023-10-27T13:01:04Z,447394.36,NULL,NA,NA,NA,NA,NA,NA,NA,sdf,NA,2,NA,NA,NA,NA,NA,NA,NA,NA,NA,NA,NA,NA,NA,NA,NA,NA,NA,NA,NA
5cc74,check continue,flow.Sequence,3_0_2,NA,NA,completion,106095.48,341216,341215.66,341223.52,447319,447331,2023-10-27T13:01:04Z,447394.36,NULL,NA,NA,NA,NA,NA,NA,NA,sdf,NA,2,NA,NA,NA,NA,NA,NA,NA,NA,NA,NA,NA,NA,NA,NA,NA,NA,NA,NA,NA
5cc74,deep,flow.Sequence,3_0_3_0_0_0,NA,NA,skipped,NA,447383,NA,NA,447319,447384,2023-10-27T13:01:04Z,447394.36,NULL,Widerstand,usulubu,s,kusababisha,mwalimu,mwenendo,NA,qt,NA,3,NA,NA,NA,NA,NA,NA,NA,NA,NA,NA,NA,NA,NA,NA,NA,NA,NA,NA,NA
5cc74,Shallow Question,html.Page,3_0_3_0_0_1_0,NA,NA,form submission,7371.64,447384,447383.78,447394.36,454766,454766,2023-10-27T13:01:12Z,454775.56,NULL,Widerstand,usulubu,s,kusababisha,mwalimu,mwenendo,usulubu,NA,NA,3,NA,NA,NA,NA,NA,NA,NA,NA,NA,NA,NA,NA,NA,NA,NA,NA,NA,NA,NA
5cc74,"""Richtig""-Screen",canvas.Screen,3_0_3_0_0_1_1,NA,NA,timeout,5000.28,454770,454761.96,454775.56,459759.18,459760,2023-10-27T13:01:17Z,459775.84,NULL,Widerstand,usulubu,s,kusababisha,mwalimu,mwenendo,NA,qt,1,3,NA,NA,NA,NA,NA,NA,NA,NA,NA,NA,NA,NA,NA,NA,NA,NA,NA,NA,NA
5cc74,"""Falsch""-Screen",canvas.Screen,3_0_3_0_0_1_2,NA,NA,skipped,NA,459765,NA,NA,459759.18,459765,2023-10-27T13:01:17Z,459775.84,NULL,Widerstand,usulubu,s,kusababisha,mwalimu,mwenendo,NA,qt,NA,3,NA,NA,NA,NA,NA,NA,NA,NA,NA,NA,NA,NA,NA,NA,NA,NA,NA,NA,NA
5cc74,shallow,flow.Sequence,3_0_3_0_0_1,NA,NA,completion,12364.82,447384,447383.78,447394.36,459759.18,459765,2023-10-27T13:01:17Z,459775.84,NULL,Widerstand,usulubu,s,kusababisha,mwalimu,mwenendo,NA,qt,NA,3,NA,NA,NA,NA,NA,NA,NA,NA,NA,NA,NA,NA,NA,NA,NA,NA,NA,NA,NA
5cc74,task,flow.Sequence,3_0_3_0_0,NA,NA,completion,12364.82,447383,447383.78,447394.36,459759.18,459765,2023-10-27T13:01:17Z,459775.84,NULL,Widerstand,usulubu,s,kusababisha,mwalimu,mwenendo,NA,qt,NA,3,NA,NA,NA,NA,NA,NA,NA,NA,NA,NA,NA,NA,NA,NA,NA,NA,NA,NA,NA
5cc74,deep,flow.Sequence,3_0_3_0_1_0,NA,NA,skipped,NA,459766,NA,NA,459759.18,459766,2023-10-27T13:01:17Z,459775.84,NULL,Gefährdung,kuhatarisha,s,uchokozi,udhaifu,makorowezo,NA,qt,NA,3,NA,NA,NA,NA,NA,NA,NA,NA,NA,NA,NA,NA,NA,NA,NA,NA,NA,NA,NA
5cc74,Shallow Question,html.Page,3_0_3_0_1_1_0,NA,NA,form submission,7117.16,459766,459759.18,459775.84,466893,466894,2023-10-27T13:01:24Z,466891.36,NULL,Gefährdung,kuhatarisha,s,uchokozi,udhaifu,makorowezo,kuhatarisha,NA,NA,3,NA,NA,NA,NA,NA,NA,NA,NA,NA,NA,NA,NA,NA,NA,NA,NA,NA,NA,NA
5cc74,"""Richtig""-Screen",canvas.Screen,3_0_3_0_1_1_1,NA,NA,timeout,4998.78,466898,466888.08,466891.36,471873.48,471877,2023-10-27T13:01:29Z,471890.14,NULL,Gefährdung,kuhatarisha,s,uchokozi,udhaifu,makorowezo,NA,qt,1,3,NA,NA,NA,NA,NA,NA,NA,NA,NA,NA,NA,NA,NA,NA,NA,NA,NA,NA,NA
5cc74,"""Falsch""-Screen",canvas.Screen,3_0_3_0_1_1_2,NA,NA,skipped,NA,471882,NA,NA,471873.48,471883,2023-10-27T13:01:29Z,471890.14,NULL,Gefährdung,kuhatarisha,s,uchokozi,udhaifu,makorowezo,NA,qt,NA,3,NA,NA,NA,NA,NA,NA,NA,NA,NA,NA,NA,NA,NA,NA,NA,NA,NA,NA,NA
5cc74,shallow,flow.Sequence,3_0_3_0_1_1,NA,NA,completion,12097.64,459766,459759.18,459775.84,471873.48,471883,2023-10-27T13:01:29Z,471890.14,NULL,Gefährdung,kuhatarisha,s,uchokozi,udhaifu,makorowezo,NA,qt,NA,3,NA,NA,NA,NA,NA,NA,NA,NA,NA,NA,NA,NA,NA,NA,NA,NA,NA,NA,NA
5cc74,task,flow.Sequence,3_0_3_0_1,NA,NA,completion,12097.64,459765,459759.18,459775.84,471873.48,471883,2023-10-27T13:01:29Z,471890.14,NULL,Gefährdung,kuhatarisha,s,uchokozi,udhaifu,makorowezo,NA,qt,NA,3,NA,NA,NA,NA,NA,NA,NA,NA,NA,NA,NA,NA,NA,NA,NA,NA,NA,NA,NA
5cc74,Deep Question,html.Page,3_0_3_0_2_0_0,NA,NA,form submission,10822.86,471884,471873.48,471890.14,482713,482713,2023-10-27T13:01:40Z,482722.86,NULL,Können,unaweza,d,NA,NA,NA,d,NA,NA,3,NA,NA,NA,NA,NA,NA,NA,NA,NA,NA,NA,NA,NA,NA,NA,NA,NA,NA,NA
5cc74,"""Richtig""-Screen",canvas.Screen,3_0_3_0_2_0_1,NA,NA,skipped,NA,482715,NA,NA,482713,482715,2023-10-27T13:01:40Z,482722.86,NULL,Können,unaweza,d,NA,NA,NA,NA,qt,NA,3,NA,NA,NA,NA,NA,NA,NA,NA,NA,NA,NA,NA,NA,NA,NA,NA,NA,NA,NA
5cc74,"""Falsch""-Screen",canvas.Screen,3_0_3_0_2_0_2,NA,NA,timeout,4998.18,482716,482711.86,482722.86,487704.38,487712,2023-10-27T13:01:45Z,487721.04,NULL,Können,unaweza,d,NA,NA,NA,NA,qt,0,3,NA,NA,NA,NA,NA,NA,NA,NA,NA,NA,NA,NA,NA,NA,NA,NA,NA,NA,NA
5cc74,deep,flow.Sequence,3_0_3_0_2_0,NA,NA,completion,15814.24,471884,471873.48,471890.14,487704.38,487714,2023-10-27T13:01:45Z,487721.04,NULL,Können,unaweza,d,NA,NA,NA,NA,qt,NA,3,NA,NA,NA,NA,NA,NA,NA,NA,NA,NA,NA,NA,NA,NA,NA,NA,NA,NA,NA
5cc74,shallow,flow.Sequence,3_0_3_0_2_1,NA,NA,skipped,NA,487715,NA,NA,487704.38,487716,2023-10-27T13:01:45Z,487721.04,NULL,Können,unaweza,d,NA,NA,NA,NA,qt,NA,3,NA,NA,NA,NA,NA,NA,NA,NA,NA,NA,NA,NA,NA,NA,NA,NA,NA,NA,NA
5cc74,task,flow.Sequence,3_0_3_0_2,NA,NA,completion,15814.24,471884,471873.48,471890.14,487704.38,487716,2023-10-27T13:01:45Z,487721.04,NULL,Können,unaweza,d,NA,NA,NA,NA,qt,NA,3,NA,NA,NA,NA,NA,NA,NA,NA,NA,NA,NA,NA,NA,NA,NA,NA,NA,NA,NA
5cc74,deep,flow.Sequence,3_0_3_0_3_0,NA,NA,skipped,NA,487717,NA,NA,487704.38,487717,2023-10-27T13:01:45Z,487721.04,NULL,Verstand,ufahamivu,s,shakawa,hadhari,mhandisi,NA,qt,NA,3,NA,NA,NA,NA,NA,NA,NA,NA,NA,NA,NA,NA,NA,NA,NA,NA,NA,NA,NA
5cc74,Shallow Question,html.Page,3_0_3_0_3_1_0,NA,NA,form submission,16869.96,487717,487704.38,487721.04,504591,504592,2023-10-27T13:02:01Z,504602.64,NULL,Verstand,ufahamivu,s,shakawa,hadhari,mhandisi,ufahamivu,NA,NA,3,NA,NA,NA,NA,NA,NA,NA,NA,NA,NA,NA,NA,NA,NA,NA,NA,NA,NA,NA
5cc74,"""Richtig""-Screen",canvas.Screen,3_0_3_0_3_1_1,NA,NA,timeout,5000.32,504600,504586.34,504602.64,509586.3,509587,2023-10-27T13:02:06Z,509602.96,NULL,Verstand,ufahamivu,s,shakawa,hadhari,mhandisi,NA,qt,1,3,NA,NA,NA,NA,NA,NA,NA,NA,NA,NA,NA,NA,NA,NA,NA,NA,NA,NA,NA
5cc74,"""Falsch""-Screen",canvas.Screen,3_0_3_0_3_1_2,NA,NA,skipped,NA,509593,NA,NA,509586.3,509593,2023-10-27T13:02:06Z,509602.96,NULL,Verstand,ufahamivu,s,shakawa,hadhari,mhandisi,NA,qt,NA,3,NA,NA,NA,NA,NA,NA,NA,NA,NA,NA,NA,NA,NA,NA,NA,NA,NA,NA,NA
5cc74,shallow,flow.Sequence,3_0_3_0_3_1,NA,NA,completion,21865.26,487717,487704.38,487721.04,509586.3,509595,2023-10-27T13:02:06Z,509602.96,NULL,Verstand,ufahamivu,s,shakawa,hadhari,mhandisi,NA,qt,NA,3,NA,NA,NA,NA,NA,NA,NA,NA,NA,NA,NA,NA,NA,NA,NA,NA,NA,NA,NA
5cc74,task,flow.Sequence,3_0_3_0_3,NA,NA,completion,21865.26,487716,487704.38,487721.04,509586.3,509595,2023-10-27T13:02:06Z,509602.96,NULL,Verstand,ufahamivu,s,shakawa,hadhari,mhandisi,NA,qt,NA,3,NA,NA,NA,NA,NA,NA,NA,NA,NA,NA,NA,NA,NA,NA,NA,NA,NA,NA,NA
5cc74,Deep Question,html.Page,3_0_3_0_4_0_0,NA,NA,form submission,43693.04,509595,509586.3,509602.96,553296,553298,2023-10-27T13:02:50Z,553296.94,NULL,Kreativität,ubunifu,d,NA,NA,NA,j,NA,NA,3,NA,NA,NA,NA,NA,NA,NA,NA,NA,NA,NA,NA,NA,NA,NA,NA,NA,NA,NA
5cc74,"""Richtig""-Screen",canvas.Screen,3_0_3_0_4_0_1,NA,NA,skipped,NA,553301,NA,NA,553296,553301,2023-10-27T13:02:50Z,553296.94,NULL,Kreativität,ubunifu,d,NA,NA,NA,NA,qt,NA,3,NA,NA,NA,NA,NA,NA,NA,NA,NA,NA,NA,NA,NA,NA,NA,NA,NA,NA,NA
5cc74,"""Falsch""-Screen",canvas.Screen,3_0_3_0_4_0_2,NA,NA,timeout,4998.38,553304,553293.96,553296.94,558278.66,558281,2023-10-27T13:02:55Z,558295.32,NULL,Kreativität,ubunifu,d,NA,NA,NA,NA,qt,0,3,NA,NA,NA,NA,NA,NA,NA,NA,NA,NA,NA,NA,NA,NA,NA,NA,NA,NA,NA
5cc74,deep,flow.Sequence,3_0_3_0_4_0,NA,NA,completion,48675.7,509595,509586.3,509602.96,558278.66,558282,2023-10-27T13:02:55Z,558295.32,NULL,Kreativität,ubunifu,d,NA,NA,NA,NA,qt,NA,3,NA,NA,NA,NA,NA,NA,NA,NA,NA,NA,NA,NA,NA,NA,NA,NA,NA,NA,NA
5cc74,shallow,flow.Sequence,3_0_3_0_4_1,NA,NA,skipped,NA,558282,NA,NA,558278.66,558283,2023-10-27T13:02:55Z,558295.32,NULL,Kreativität,ubunifu,d,NA,NA,NA,NA,qt,NA,3,NA,NA,NA,NA,NA,NA,NA,NA,NA,NA,NA,NA,NA,NA,NA,NA,NA,NA,NA
5cc74,task,flow.Sequence,3_0_3_0_4,NA,NA,completion,48675.7,509595,509586.3,509602.96,558278.66,558284,2023-10-27T13:02:55Z,558295.32,NULL,Kreativität,ubunifu,d,NA,NA,NA,NA,qt,NA,3,NA,NA,NA,NA,NA,NA,NA,NA,NA,NA,NA,NA,NA,NA,NA,NA,NA,NA,NA
5cc74,Deep Question,html.Page,3_0_3_0_5_0_0,NA,NA,form submission,11427.68,558284,558278.66,558295.32,569723,569724,2023-10-27T13:03:07Z,569727.24,NULL,Ausschluss,kutengwa,d,NA,NA,NA,e,NA,NA,3,NA,NA,NA,NA,NA,NA,NA,NA,NA,NA,NA,NA,NA,NA,NA,NA,NA,NA,NA
5cc74,"""Richtig""-Screen",canvas.Screen,3_0_3_0_5_0_1,NA,NA,skipped,NA,569728,NA,NA,569723,569728,2023-10-27T13:03:07Z,569727.24,NULL,Ausschluss,kutengwa,d,NA,NA,NA,NA,qt,NA,3,NA,NA,NA,NA,NA,NA,NA,NA,NA,NA,NA,NA,NA,NA,NA,NA,NA,NA,NA
5cc74,"""Falsch""-Screen",canvas.Screen,3_0_3_0_5_0_2,NA,NA,timeout,4999.78,569734,569718.92,569727.24,574710.38,574711,2023-10-27T13:03:12Z,574727.02,NULL,Ausschluss,kutengwa,d,NA,NA,NA,NA,qt,0,3,NA,NA,NA,NA,NA,NA,NA,NA,NA,NA,NA,NA,NA,NA,NA,NA,NA,NA,NA
5cc74,deep,flow.Sequence,3_0_3_0_5_0,NA,NA,completion,16415.06,558284,558278.66,558295.32,574710.38,574712,2023-10-27T13:03:12Z,574727.02,NULL,Ausschluss,kutengwa,d,NA,NA,NA,NA,qt,NA,3,NA,NA,NA,NA,NA,NA,NA,NA,NA,NA,NA,NA,NA,NA,NA,NA,NA,NA,NA
5cc74,shallow,flow.Sequence,3_0_3_0_5_1,NA,NA,skipped,NA,574712,NA,NA,574710.38,574712,2023-10-27T13:03:12Z,574727.02,NULL,Ausschluss,kutengwa,d,NA,NA,NA,NA,qt,NA,3,NA,NA,NA,NA,NA,NA,NA,NA,NA,NA,NA,NA,NA,NA,NA,NA,NA,NA,NA
5cc74,task,flow.Sequence,3_0_3_0_5,NA,NA,completion,16415.06,558284,558278.66,558295.32,574710.38,574712,2023-10-27T13:03:12Z,574727.02,NULL,Ausschluss,kutengwa,d,NA,NA,NA,NA,qt,NA,3,NA,NA,NA,NA,NA,NA,NA,NA,NA,NA,NA,NA,NA,NA,NA,NA,NA,NA,NA
5cc74,Deep Question,html.Page,3_0_3_0_6_0_0,NA,NA,form submission,45318.98,574712,574710.38,574727.02,620046,620046,2023-10-27T13:03:57Z,620054.96,NULL,Gelegenheit,wakati,d,NA,NA,NA,g,NA,NA,3,NA,NA,NA,NA,NA,NA,NA,NA,NA,NA,NA,NA,NA,NA,NA,NA,NA,NA,NA
5cc74,"""Richtig""-Screen",canvas.Screen,3_0_3_0_6_0_1,NA,NA,skipped,NA,620048,NA,NA,620046,620048,2023-10-27T13:03:57Z,620054.96,NULL,Gelegenheit,wakati,d,NA,NA,NA,NA,qt,NA,3,NA,NA,NA,NA,NA,NA,NA,NA,NA,NA,NA,NA,NA,NA,NA,NA,NA,NA,NA
5cc74,"""Falsch""-Screen",canvas.Screen,3_0_3_0_6_0_2,NA,NA,timeout,4999.66,620051,620043.88,620054.96,625037.96,625039,2023-10-27T13:04:02Z,625054.62,NULL,Gelegenheit,wakati,d,NA,NA,NA,NA,qt,0,3,NA,NA,NA,NA,NA,NA,NA,NA,NA,NA,NA,NA,NA,NA,NA,NA,NA,NA,NA
5cc74,deep,flow.Sequence,3_0_3_0_6_0,NA,NA,completion,50310.94,574712,574710.38,574727.02,625037.96,625040,2023-10-27T13:04:02Z,625054.62,NULL,Gelegenheit,wakati,d,NA,NA,NA,NA,qt,NA,3,NA,NA,NA,NA,NA,NA,NA,NA,NA,NA,NA,NA,NA,NA,NA,NA,NA,NA,NA
5cc74,shallow,flow.Sequence,3_0_3_0_6_1,NA,NA,skipped,NA,625040,NA,NA,625037.96,625040,2023-10-27T13:04:02Z,625054.62,NULL,Gelegenheit,wakati,d,NA,NA,NA,NA,qt,NA,3,NA,NA,NA,NA,NA,NA,NA,NA,NA,NA,NA,NA,NA,NA,NA,NA,NA,NA,NA
5cc74,task,flow.Sequence,3_0_3_0_6,NA,NA,completion,50310.94,574712,574710.38,574727.02,625037.96,625040,2023-10-27T13:04:02Z,625054.62,NULL,Gelegenheit,wakati,d,NA,NA,NA,NA,qt,NA,3,NA,NA,NA,NA,NA,NA,NA,NA,NA,NA,NA,NA,NA,NA,NA,NA,NA,NA,NA
5cc74,deep,flow.Sequence,3_0_3_0_7_0,NA,NA,skipped,NA,625040,NA,NA,625037.96,625040,2023-10-27T13:04:02Z,625054.62,NULL,Kontrolle,kudhibiti,s,mbinguni,kufunga,utegemezi,NA,qt,NA,3,NA,NA,NA,NA,NA,NA,NA,NA,NA,NA,NA,NA,NA,NA,NA,NA,NA,NA,NA
5cc74,Shallow Question,html.Page,3_0_3_0_7_1_0,NA,NA,form submission,8129.38,625041,625037.96,625054.62,633184,633184,2023-10-27T13:04:10Z,633185.58,NULL,Kontrolle,kudhibiti,s,mbinguni,kufunga,utegemezi,kudhibiti,NA,NA,3,NA,NA,NA,NA,NA,NA,NA,NA,NA,NA,NA,NA,NA,NA,NA,NA,NA,NA,NA
5cc74,"""Richtig""-Screen",canvas.Screen,3_0_3_0_7_1_1,NA,NA,timeout,4999.86,633186,633182.78,633185.58,638168.78,638172,2023-10-27T13:04:15Z,638185.44,NULL,Kontrolle,kudhibiti,s,mbinguni,kufunga,utegemezi,NA,qt,1,3,NA,NA,NA,NA,NA,NA,NA,NA,NA,NA,NA,NA,NA,NA,NA,NA,NA,NA,NA
5cc74,"""Falsch""-Screen",canvas.Screen,3_0_3_0_7_1_2,NA,NA,skipped,NA,638178,NA,NA,638168.78,638179,2023-10-27T13:04:15Z,638185.44,NULL,Kontrolle,kudhibiti,s,mbinguni,kufunga,utegemezi,NA,qt,NA,3,NA,NA,NA,NA,NA,NA,NA,NA,NA,NA,NA,NA,NA,NA,NA,NA,NA,NA,NA
5cc74,shallow,flow.Sequence,3_0_3_0_7_1,NA,NA,completion,13114.16,625041,625037.96,625054.62,638168.78,638179,2023-10-27T13:04:15Z,638185.44,NULL,Kontrolle,kudhibiti,s,mbinguni,kufunga,utegemezi,NA,qt,NA,3,NA,NA,NA,NA,NA,NA,NA,NA,NA,NA,NA,NA,NA,NA,NA,NA,NA,NA,NA
5cc74,task,flow.Sequence,3_0_3_0_7,NA,NA,completion,13114.16,625040,625037.96,625054.62,638168.78,638180,2023-10-27T13:04:15Z,638185.44,NULL,Kontrolle,kudhibiti,s,mbinguni,kufunga,utegemezi,NA,qt,NA,3,NA,NA,NA,NA,NA,NA,NA,NA,NA,NA,NA,NA,NA,NA,NA,NA,NA,NA,NA
5cc74,block,flow.Loop,3_0_3_0,NA,NA,completion,190774.42,447383,447383.78,447394.36,638168.78,638181,2023-10-27T13:04:15Z,638185.44,NULL,NA,NA,NA,NA,NA,NA,NA,qt,NA,3,NA,NA,NA,NA,NA,NA,NA,NA,NA,NA,NA,NA,NA,NA,NA,NA,NA,NA,NA
5cc74,weiter,canvas.Screen,3_0_3_1,sdf,keypress(Space),response,1086.5600000001,638181,638168.78,638185.44,639272,639279,2023-10-27T13:04:16Z,639336.2,NULL,NA,NA,NA,NA,NA,NA,NA,qt,NA,3,NA,NA,NA,NA,NA,NA,NA,NA,NA,NA,NA,NA,NA,NA,NA,NA,NA,NA,NA
5cc74,check continue,flow.Sequence,3_0_3,NA,NA,completion,191877.64,447383,447383.78,447394.36,639272,639280,2023-10-27T13:04:16Z,639336.2,NULL,NA,NA,NA,NA,NA,NA,NA,qt,NA,3,NA,NA,NA,NA,NA,NA,NA,NA,NA,NA,NA,NA,NA,NA,NA,NA,NA,NA,NA
5cc74,deep,flow.Sequence,3_0_4_0_0_0,NA,NA,skipped,NA,639322,NA,NA,639272,639322,2023-10-27T13:04:16Z,639336.2,NULL,Gefährdung,kuhatarisha,s,uchokozi,udhaifu,makorowezo,NA,sd,NA,4,NA,NA,NA,NA,NA,NA,NA,NA,NA,NA,NA,NA,NA,NA,NA,NA,NA,NA,NA
5cc74,Shallow Question,html.Page,3_0_4_0_0_1_0,NA,NA,form submission,2962.8,639322,639322.06,639336.2,642299,642299,2023-10-27T13:04:19Z,642301.12,NULL,Gefährdung,kuhatarisha,s,uchokozi,udhaifu,makorowezo,kuhatarisha,NA,NA,4,NA,NA,NA,NA,NA,NA,NA,NA,NA,NA,NA,NA,NA,NA,NA,NA,NA,NA,NA
5cc74,"""Richtig""-Screen",canvas.Screen,3_0_4_0_0_1_1,NA,NA,timeout,4999.72,642302,642295.5,642301.12,647284.18,647287,2023-10-27T13:04:24Z,647300.84,NULL,Gefährdung,kuhatarisha,s,uchokozi,udhaifu,makorowezo,NA,sd,1,4,NA,NA,NA,NA,NA,NA,NA,NA,NA,NA,NA,NA,NA,NA,NA,NA,NA,NA,NA
5cc74,"""Falsch""-Screen",canvas.Screen,3_0_4_0_0_1_2,NA,NA,skipped,NA,647293,NA,NA,647284.18,647294,2023-10-27T13:04:24Z,647300.84,NULL,Gefährdung,kuhatarisha,s,uchokozi,udhaifu,makorowezo,NA,sd,NA,4,NA,NA,NA,NA,NA,NA,NA,NA,NA,NA,NA,NA,NA,NA,NA,NA,NA,NA,NA
5cc74,shallow,flow.Sequence,3_0_4_0_0_1,NA,NA,completion,7947.9800000001,639322,639322.06,639336.2,647284.18,647294,2023-10-27T13:04:24Z,647300.84,NULL,Gefährdung,kuhatarisha,s,uchokozi,udhaifu,makorowezo,NA,sd,NA,4,NA,NA,NA,NA,NA,NA,NA,NA,NA,NA,NA,NA,NA,NA,NA,NA,NA,NA,NA
5cc74,task,flow.Sequence,3_0_4_0_0,NA,NA,completion,7947.9800000001,639322,639322.06,639336.2,647284.18,647295,2023-10-27T13:04:24Z,647300.84,NULL,Gefährdung,kuhatarisha,s,uchokozi,udhaifu,makorowezo,NA,sd,NA,4,NA,NA,NA,NA,NA,NA,NA,NA,NA,NA,NA,NA,NA,NA,NA,NA,NA,NA,NA
5cc74,Deep Question,html.Page,3_0_4_0_1_0_0,NA,NA,form submission,14936.16,647295,647284.18,647300.84,662237,662238,2023-10-27T13:04:39Z,662249.52,NULL,Können,unaweza,d,NA,NA,NA,ufaweze,NA,NA,4,NA,NA,NA,NA,NA,NA,NA,NA,NA,NA,NA,NA,NA,NA,NA,NA,NA,NA,NA
5cc74,"""Richtig""-Screen",canvas.Screen,3_0_4_0_1_0_1,NA,NA,skipped,NA,662240,NA,NA,662237,662240,2023-10-27T13:04:39Z,662249.52,NULL,Können,unaweza,d,NA,NA,NA,NA,sd,NA,4,NA,NA,NA,NA,NA,NA,NA,NA,NA,NA,NA,NA,NA,NA,NA,NA,NA,NA,NA
5cc74,"""Falsch""-Screen",canvas.Screen,3_0_4_0_1_0_2,NA,NA,timeout,4999.74,662242,662234.26,662249.52,667232.6,667234,2023-10-27T13:04:44Z,667249.26,NULL,Können,unaweza,d,NA,NA,NA,NA,sd,0,4,NA,NA,NA,NA,NA,NA,NA,NA,NA,NA,NA,NA,NA,NA,NA,NA,NA,NA,NA
5cc74,deep,flow.Sequence,3_0_4_0_1_0,NA,NA,completion,19931.76,647295,647284.18,647300.84,667232.6,667235,2023-10-27T13:04:44Z,667249.26,NULL,Können,unaweza,d,NA,NA,NA,NA,sd,NA,4,NA,NA,NA,NA,NA,NA,NA,NA,NA,NA,NA,NA,NA,NA,NA,NA,NA,NA,NA
5cc74,shallow,flow.Sequence,3_0_4_0_1_1,NA,NA,skipped,NA,667235,NA,NA,667232.6,667235,2023-10-27T13:04:44Z,667249.26,NULL,Können,unaweza,d,NA,NA,NA,NA,sd,NA,4,NA,NA,NA,NA,NA,NA,NA,NA,NA,NA,NA,NA,NA,NA,NA,NA,NA,NA,NA
5cc74,task,flow.Sequence,3_0_4_0_1,NA,NA,completion,19931.76,647295,647284.18,647300.84,667232.6,667236,2023-10-27T13:04:44Z,667249.26,NULL,Können,unaweza,d,NA,NA,NA,NA,sd,NA,4,NA,NA,NA,NA,NA,NA,NA,NA,NA,NA,NA,NA,NA,NA,NA,NA,NA,NA,NA
5cc74,Deep Question,html.Page,3_0_4_0_2_0_0,NA,NA,form submission,7175.74,667236,667232.6,667249.26,674425,674425,2023-10-27T13:04:51Z,674430.58,NULL,Kreativität,ubunifu,d,NA,NA,NA,ufunifu,NA,NA,4,NA,NA,NA,NA,NA,NA,NA,NA,NA,NA,NA,NA,NA,NA,NA,NA,NA,NA,NA
5cc74,"""Richtig""-Screen",canvas.Screen,3_0_4_0_2_0_1,NA,NA,skipped,NA,674427,NA,NA,674425,674427,2023-10-27T13:04:51Z,674430.58,NULL,Kreativität,ubunifu,d,NA,NA,NA,NA,sd,NA,4,NA,NA,NA,NA,NA,NA,NA,NA,NA,NA,NA,NA,NA,NA,NA,NA,NA,NA,NA
5cc74,"""Falsch""-Screen",canvas.Screen,3_0_4_0_2_0_2,NA,NA,timeout,4999.76,674427,674423.62,674430.58,679413.68,679416,2023-10-27T13:04:56Z,679430.34,NULL,Kreativität,ubunifu,d,NA,NA,NA,NA,sd,0,4,NA,NA,NA,NA,NA,NA,NA,NA,NA,NA,NA,NA,NA,NA,NA,NA,NA,NA,NA
5cc74,deep,flow.Sequence,3_0_4_0_2_0,NA,NA,completion,12164.42,667236,667232.6,667249.26,679413.68,679416,2023-10-27T13:04:56Z,679430.34,NULL,Kreativität,ubunifu,d,NA,NA,NA,NA,sd,NA,4,NA,NA,NA,NA,NA,NA,NA,NA,NA,NA,NA,NA,NA,NA,NA,NA,NA,NA,NA
5cc74,shallow,flow.Sequence,3_0_4_0_2_1,NA,NA,skipped,NA,679416,NA,NA,679413.68,679416,2023-10-27T13:04:56Z,679430.34,NULL,Kreativität,ubunifu,d,NA,NA,NA,NA,sd,NA,4,NA,NA,NA,NA,NA,NA,NA,NA,NA,NA,NA,NA,NA,NA,NA,NA,NA,NA,NA
5cc74,task,flow.Sequence,3_0_4_0_2,NA,NA,completion,12164.42,667236,667232.6,667249.26,679413.68,679417,2023-10-27T13:04:56Z,679430.34,NULL,Kreativität,ubunifu,d,NA,NA,NA,NA,sd,NA,4,NA,NA,NA,NA,NA,NA,NA,NA,NA,NA,NA,NA,NA,NA,NA,NA,NA,NA,NA
5cc74,deep,flow.Sequence,3_0_4_0_3_0,NA,NA,skipped,NA,679417,NA,NA,679413.68,679417,2023-10-27T13:04:56Z,679430.34,NULL,Widerstand,usulubu,s,kusababisha,mwalimu,mwenendo,NA,sd,NA,4,NA,NA,NA,NA,NA,NA,NA,NA,NA,NA,NA,NA,NA,NA,NA,NA,NA,NA,NA
5cc74,Shallow Question,html.Page,3_0_4_0_3_1_0,NA,NA,form submission,9744.66,679417,679413.68,679430.34,689175,689176,2023-10-27T13:05:06Z,689179.26,NULL,Widerstand,usulubu,s,kusababisha,mwalimu,mwenendo,usulubu,NA,NA,4,NA,NA,NA,NA,NA,NA,NA,NA,NA,NA,NA,NA,NA,NA,NA,NA,NA,NA,NA
5cc74,"""Richtig""-Screen",canvas.Screen,3_0_4_0_3_1_1,NA,NA,timeout,4999.8199999999,689178,689170.84,689179.26,694162.7,694166,2023-10-27T13:05:11Z,694179.08,NULL,Widerstand,usulubu,s,kusababisha,mwalimu,mwenendo,NA,sd,1,4,NA,NA,NA,NA,NA,NA,NA,NA,NA,NA,NA,NA,NA,NA,NA,NA,NA,NA,NA
5cc74,"""Falsch""-Screen",canvas.Screen,3_0_4_0_3_1_2,NA,NA,skipped,NA,694174,NA,NA,694162.7,694174,2023-10-27T13:05:11Z,694179.08,NULL,Widerstand,usulubu,s,kusababisha,mwalimu,mwenendo,NA,sd,NA,4,NA,NA,NA,NA,NA,NA,NA,NA,NA,NA,NA,NA,NA,NA,NA,NA,NA,NA,NA
5cc74,shallow,flow.Sequence,3_0_4_0_3_1,NA,NA,completion,14732.36,679417,679413.68,679430.34,694162.7,694175,2023-10-27T13:05:11Z,694179.08,NULL,Widerstand,usulubu,s,kusababisha,mwalimu,mwenendo,NA,sd,NA,4,NA,NA,NA,NA,NA,NA,NA,NA,NA,NA,NA,NA,NA,NA,NA,NA,NA,NA,NA
5cc74,task,flow.Sequence,3_0_4_0_3,NA,NA,completion,14732.36,679417,679413.68,679430.34,694162.7,694175,2023-10-27T13:05:11Z,694179.08,NULL,Widerstand,usulubu,s,kusababisha,mwalimu,mwenendo,NA,sd,NA,4,NA,NA,NA,NA,NA,NA,NA,NA,NA,NA,NA,NA,NA,NA,NA,NA,NA,NA,NA
5cc74,deep,flow.Sequence,3_0_4_0_4_0,NA,NA,skipped,NA,694175,NA,NA,694162.7,694176,2023-10-27T13:05:11Z,694179.08,NULL,Kontrolle,kudhibiti,s,mbinguni,kufunga,utegemezi,NA,sd,NA,4,NA,NA,NA,NA,NA,NA,NA,NA,NA,NA,NA,NA,NA,NA,NA,NA,NA,NA,NA
5cc74,Shallow Question,html.Page,3_0_4_0_4_1_0,NA,NA,form submission,4950.92,694176,694162.7,694179.08,699130,699131,2023-10-27T13:05:16Z,699126.96,NULL,Kontrolle,kudhibiti,s,mbinguni,kufunga,utegemezi,kudhibiti,NA,NA,4,NA,NA,NA,NA,NA,NA,NA,NA,NA,NA,NA,NA,NA,NA,NA,NA,NA,NA,NA
5cc74,"""Richtig""-Screen",canvas.Screen,3_0_4_0_4_1_1,NA,NA,timeout,5000.86,699135,699124.24,699126.96,704111.16,704112,2023-10-27T13:05:21Z,704127.82,NULL,Kontrolle,kudhibiti,s,mbinguni,kufunga,utegemezi,NA,sd,1,4,NA,NA,NA,NA,NA,NA,NA,NA,NA,NA,NA,NA,NA,NA,NA,NA,NA,NA,NA
5cc74,"""Falsch""-Screen",canvas.Screen,3_0_4_0_4_1_2,NA,NA,skipped,NA,704117,NA,NA,704111.16,704118,2023-10-27T13:05:21Z,704127.82,NULL,Kontrolle,kudhibiti,s,mbinguni,kufunga,utegemezi,NA,sd,NA,4,NA,NA,NA,NA,NA,NA,NA,NA,NA,NA,NA,NA,NA,NA,NA,NA,NA,NA,NA
5cc74,shallow,flow.Sequence,3_0_4_0_4_1,NA,NA,completion,9932.0800000001,694176,694162.7,694179.08,704111.16,704119,2023-10-27T13:05:21Z,704127.82,NULL,Kontrolle,kudhibiti,s,mbinguni,kufunga,utegemezi,NA,sd,NA,4,NA,NA,NA,NA,NA,NA,NA,NA,NA,NA,NA,NA,NA,NA,NA,NA,NA,NA,NA
5cc74,task,flow.Sequence,3_0_4_0_4,NA,NA,completion,9932.0800000001,694175,694162.7,694179.08,704111.16,704119,2023-10-27T13:05:21Z,704127.82,NULL,Kontrolle,kudhibiti,s,mbinguni,kufunga,utegemezi,NA,sd,NA,4,NA,NA,NA,NA,NA,NA,NA,NA,NA,NA,NA,NA,NA,NA,NA,NA,NA,NA,NA
5cc74,Deep Question,html.Page,3_0_4_0_5_0_0,NA,NA,form submission,11561.18,704119,704111.16,704127.82,715689,715690,2023-10-27T13:05:33Z,715691.82,NULL,Gelegenheit,wakati,d,NA,NA,NA,ufekati,NA,NA,4,NA,NA,NA,NA,NA,NA,NA,NA,NA,NA,NA,NA,NA,NA,NA,NA,NA,NA,NA
5cc74,"""Richtig""-Screen",canvas.Screen,3_0_4_0_5_0_1,NA,NA,skipped,NA,715691,NA,NA,715689,715691,2023-10-27T13:05:33Z,715691.82,NULL,Gelegenheit,wakati,d,NA,NA,NA,NA,sd,NA,4,NA,NA,NA,NA,NA,NA,NA,NA,NA,NA,NA,NA,NA,NA,NA,NA,NA,NA,NA
5cc74,"""Falsch""-Screen",canvas.Screen,3_0_4_0_5_0_2,NA,NA,timeout,5000.3,715693,715687.58,715691.82,720675.46,720677,2023-10-27T13:05:38Z,720692.12,NULL,Gelegenheit,wakati,d,NA,NA,NA,NA,sd,0,4,NA,NA,NA,NA,NA,NA,NA,NA,NA,NA,NA,NA,NA,NA,NA,NA,NA,NA,NA
5cc74,deep,flow.Sequence,3_0_4_0_5_0,NA,NA,completion,16547.64,704119,704111.16,704127.82,720675.46,720677,2023-10-27T13:05:38Z,720692.12,NULL,Gelegenheit,wakati,d,NA,NA,NA,NA,sd,NA,4,NA,NA,NA,NA,NA,NA,NA,NA,NA,NA,NA,NA,NA,NA,NA,NA,NA,NA,NA
5cc74,shallow,flow.Sequence,3_0_4_0_5_1,NA,NA,skipped,NA,720677,NA,NA,720675.46,720677,2023-10-27T13:05:38Z,720692.12,NULL,Gelegenheit,wakati,d,NA,NA,NA,NA,sd,NA,4,NA,NA,NA,NA,NA,NA,NA,NA,NA,NA,NA,NA,NA,NA,NA,NA,NA,NA,NA
5cc74,task,flow.Sequence,3_0_4_0_5,NA,NA,completion,16547.64,704119,704111.16,704127.82,720675.46,720677,2023-10-27T13:05:38Z,720692.12,NULL,Gelegenheit,wakati,d,NA,NA,NA,NA,sd,NA,4,NA,NA,NA,NA,NA,NA,NA,NA,NA,NA,NA,NA,NA,NA,NA,NA,NA,NA,NA
5cc74,Deep Question,html.Page,3_0_4_0_6_0_0,NA,NA,form submission,11024.88,720678,720675.46,720692.12,731717,731718,2023-10-27T13:05:49Z,731724.12,NULL,Ausschluss,kutengwa,d,NA,NA,NA,megwa,NA,NA,4,NA,NA,NA,NA,NA,NA,NA,NA,NA,NA,NA,NA,NA,NA,NA,NA,NA,NA,NA
5cc74,"""Richtig""-Screen",canvas.Screen,3_0_4_0_6_0_1,NA,NA,skipped,NA,731720,NA,NA,731717,731720,2023-10-27T13:05:49Z,731724.12,NULL,Ausschluss,kutengwa,d,NA,NA,NA,NA,sd,NA,4,NA,NA,NA,NA,NA,NA,NA,NA,NA,NA,NA,NA,NA,NA,NA,NA,NA,NA,NA
5cc74,"""Falsch""-Screen",canvas.Screen,3_0_4_0_6_0_2,NA,NA,timeout,4998.2,731721,731716.2,731724.12,736705.68,736708,2023-10-27T13:05:54Z,736722.32,NULL,Ausschluss,kutengwa,d,NA,NA,NA,NA,sd,0,4,NA,NA,NA,NA,NA,NA,NA,NA,NA,NA,NA,NA,NA,NA,NA,NA,NA,NA,NA
5cc74,deep,flow.Sequence,3_0_4_0_6_0,NA,NA,completion,16013.56,720678,720675.46,720692.12,736705.68,736709,2023-10-27T13:05:54Z,736722.32,NULL,Ausschluss,kutengwa,d,NA,NA,NA,NA,sd,NA,4,NA,NA,NA,NA,NA,NA,NA,NA,NA,NA,NA,NA,NA,NA,NA,NA,NA,NA,NA
5cc74,shallow,flow.Sequence,3_0_4_0_6_1,NA,NA,skipped,NA,736709,NA,NA,736705.68,736709,2023-10-27T13:05:54Z,736722.32,NULL,Ausschluss,kutengwa,d,NA,NA,NA,NA,sd,NA,4,NA,NA,NA,NA,NA,NA,NA,NA,NA,NA,NA,NA,NA,NA,NA,NA,NA,NA,NA
5cc74,task,flow.Sequence,3_0_4_0_6,NA,NA,completion,16013.56,720678,720675.46,720692.12,736705.68,736710,2023-10-27T13:05:54Z,736722.32,NULL,Ausschluss,kutengwa,d,NA,NA,NA,NA,sd,NA,4,NA,NA,NA,NA,NA,NA,NA,NA,NA,NA,NA,NA,NA,NA,NA,NA,NA,NA,NA
5cc74,deep,flow.Sequence,3_0_4_0_7_0,NA,NA,skipped,NA,736710,NA,NA,736705.68,736710,2023-10-27T13:05:54Z,736722.32,NULL,Verstand,ufahamivu,s,shakawa,hadhari,mhandisi,NA,sd,NA,4,NA,NA,NA,NA,NA,NA,NA,NA,NA,NA,NA,NA,NA,NA,NA,NA,NA,NA,NA
5cc74,Shallow Question,html.Page,3_0_4_0_7_1_0,NA,NA,form submission,6779.6800000001,736710,736705.68,736722.32,743502,743503,2023-10-27T13:06:00Z,743505.24,NULL,Verstand,ufahamivu,s,shakawa,hadhari,mhandisi,ufahamivu,NA,NA,4,NA,NA,NA,NA,NA,NA,NA,NA,NA,NA,NA,NA,NA,NA,NA,NA,NA,NA,NA
5cc74,"""Richtig""-Screen",canvas.Screen,3_0_4_0_7_1_1,NA,NA,timeout,4999.74,743505,743498.7,743505.24,748488.32,748490,2023-10-27T13:06:05Z,748504.98,NULL,Verstand,ufahamivu,s,shakawa,hadhari,mhandisi,NA,sd,1,4,NA,NA,NA,NA,NA,NA,NA,NA,NA,NA,NA,NA,NA,NA,NA,NA,NA,NA,NA
5cc74,"""Falsch""-Screen",canvas.Screen,3_0_4_0_7_1_2,NA,NA,skipped,NA,748493,NA,NA,748488.32,748493,2023-10-27T13:06:05Z,748504.98,NULL,Verstand,ufahamivu,s,shakawa,hadhari,mhandisi,NA,sd,NA,4,NA,NA,NA,NA,NA,NA,NA,NA,NA,NA,NA,NA,NA,NA,NA,NA,NA,NA,NA
5cc74,shallow,flow.Sequence,3_0_4_0_7_1,NA,NA,completion,11766,736710,736705.68,736722.32,748488.32,748494,2023-10-27T13:06:05Z,748504.98,NULL,Verstand,ufahamivu,s,shakawa,hadhari,mhandisi,NA,sd,NA,4,NA,NA,NA,NA,NA,NA,NA,NA,NA,NA,NA,NA,NA,NA,NA,NA,NA,NA,NA
5cc74,task,flow.Sequence,3_0_4_0_7,NA,NA,completion,11766,736710,736705.68,736722.32,748488.32,748494,2023-10-27T13:06:05Z,748504.98,NULL,Verstand,ufahamivu,s,shakawa,hadhari,mhandisi,NA,sd,NA,4,NA,NA,NA,NA,NA,NA,NA,NA,NA,NA,NA,NA,NA,NA,NA,NA,NA,NA,NA
5cc74,block,flow.Loop,3_0_4_0,NA,NA,completion,109152.12,639322,639322.06,639336.2,748488.32,748494,2023-10-27T13:06:05Z,748504.98,NULL,NA,NA,NA,NA,NA,NA,NA,sd,NA,4,NA,NA,NA,NA,NA,NA,NA,NA,NA,NA,NA,NA,NA,NA,NA,NA,NA,NA,NA
5cc74,weiter,canvas.Screen,3_0_4_1,sdf,keypress(Space),response,1205.02,748494,748488.32,748504.98,749710,749724,2023-10-27T13:06:07Z,749770.74,NULL,NA,NA,NA,NA,NA,NA,NA,sd,NA,4,NA,NA,NA,NA,NA,NA,NA,NA,NA,NA,NA,NA,NA,NA,NA,NA,NA,NA,NA
5cc74,check continue,flow.Sequence,3_0_4,NA,NA,completion,110373.8,639322,639322.06,639336.2,749710,749725,2023-10-27T13:06:07Z,749770.74,NULL,NA,NA,NA,NA,NA,NA,NA,sd,NA,4,NA,NA,NA,NA,NA,NA,NA,NA,NA,NA,NA,NA,NA,NA,NA,NA,NA,NA,NA
5cc74,deep,flow.Sequence,3_0_5_0_0_0,NA,NA,skipped,NA,749768,NA,NA,749710,749768,2023-10-27T13:06:07Z,749770.74,NULL,Verstand,ufahamivu,s,shakawa,hadhari,mhandisi,NA,sdf,NA,5,NA,NA,NA,NA,NA,NA,NA,NA,NA,NA,NA,NA,NA,NA,NA,NA,NA,NA,NA
5cc74,Shallow Question,html.Page,3_0_5_0_0_1_0,NA,NA,form submission,5622.26,749768,749768.16,749770.74,755393,755393,2023-10-27T13:06:12Z,755403.74,NULL,Verstand,ufahamivu,s,shakawa,hadhari,mhandisi,ufahamivu,NA,NA,5,NA,NA,NA,NA,NA,NA,NA,NA,NA,NA,NA,NA,NA,NA,NA,NA,NA,NA,NA
5cc74,"""Richtig""-Screen",canvas.Screen,3_0_5_0_0_1_1,NA,NA,timeout,4998.48,755395,755390.46,755403.74,760385.58,760388,2023-10-27T13:06:17Z,760402.22,NULL,Verstand,ufahamivu,s,shakawa,hadhari,mhandisi,NA,sdf,1,5,NA,NA,NA,NA,NA,NA,NA,NA,NA,NA,NA,NA,NA,NA,NA,NA,NA,NA,NA
5cc74,"""Falsch""-Screen",canvas.Screen,3_0_5_0_0_1_2,NA,NA,skipped,NA,760393,NA,NA,760385.58,760393,2023-10-27T13:06:17Z,760402.22,NULL,Verstand,ufahamivu,s,shakawa,hadhari,mhandisi,NA,sdf,NA,5,NA,NA,NA,NA,NA,NA,NA,NA,NA,NA,NA,NA,NA,NA,NA,NA,NA,NA,NA
5cc74,shallow,flow.Sequence,3_0_5_0_0_1,NA,NA,completion,10614.84,749768,749768.16,749770.74,760385.58,760393,2023-10-27T13:06:17Z,760402.22,NULL,Verstand,ufahamivu,s,shakawa,hadhari,mhandisi,NA,sdf,NA,5,NA,NA,NA,NA,NA,NA,NA,NA,NA,NA,NA,NA,NA,NA,NA,NA,NA,NA,NA
5cc74,task,flow.Sequence,3_0_5_0_0,NA,NA,completion,10614.84,749768,749768.16,749770.74,760385.58,760394,2023-10-27T13:06:17Z,760402.22,NULL,Verstand,ufahamivu,s,shakawa,hadhari,mhandisi,NA,sdf,NA,5,NA,NA,NA,NA,NA,NA,NA,NA,NA,NA,NA,NA,NA,NA,NA,NA,NA,NA,NA
5cc74,deep,flow.Sequence,3_0_5_0_1_0,NA,NA,skipped,NA,760394,NA,NA,760385.58,760394,2023-10-27T13:06:17Z,760402.22,NULL,Gefährdung,kuhatarisha,s,uchokozi,udhaifu,makorowezo,NA,sdf,NA,5,NA,NA,NA,NA,NA,NA,NA,NA,NA,NA,NA,NA,NA,NA,NA,NA,NA,NA,NA
5cc74,Shallow Question,html.Page,3_0_5_0_1_1_0,NA,NA,form submission,5180.78,760395,760385.58,760402.22,765583,765584,2023-10-27T13:06:22Z,765585.44,NULL,Gefährdung,kuhatarisha,s,uchokozi,udhaifu,makorowezo,kuhatarisha,NA,NA,5,NA,NA,NA,NA,NA,NA,NA,NA,NA,NA,NA,NA,NA,NA,NA,NA,NA,NA,NA
5cc74,"""Richtig""-Screen",canvas.Screen,3_0_5_0_1_1_1,NA,NA,timeout,4999.7400000001,765587,765576.2,765585.44,770568.54,770570,2023-10-27T13:06:27Z,770585.18,NULL,Gefährdung,kuhatarisha,s,uchokozi,udhaifu,makorowezo,NA,sdf,1,5,NA,NA,NA,NA,NA,NA,NA,NA,NA,NA,NA,NA,NA,NA,NA,NA,NA,NA,NA
5cc74,"""Falsch""-Screen",canvas.Screen,3_0_5_0_1_1_2,NA,NA,skipped,NA,770573,NA,NA,770568.54,770573,2023-10-27T13:06:27Z,770585.18,NULL,Gefährdung,kuhatarisha,s,uchokozi,udhaifu,makorowezo,NA,sdf,NA,5,NA,NA,NA,NA,NA,NA,NA,NA,NA,NA,NA,NA,NA,NA,NA,NA,NA,NA,NA
5cc74,shallow,flow.Sequence,3_0_5_0_1_1,NA,NA,completion,10166.32,760394,760385.58,760402.22,770568.54,770574,2023-10-27T13:06:27Z,770585.18,NULL,Gefährdung,kuhatarisha,s,uchokozi,udhaifu,makorowezo,NA,sdf,NA,5,NA,NA,NA,NA,NA,NA,NA,NA,NA,NA,NA,NA,NA,NA,NA,NA,NA,NA,NA
5cc74,task,flow.Sequence,3_0_5_0_1,NA,NA,completion,10166.32,760394,760385.58,760402.22,770568.54,770575,2023-10-27T13:06:27Z,770585.18,NULL,Gefährdung,kuhatarisha,s,uchokozi,udhaifu,makorowezo,NA,sdf,NA,5,NA,NA,NA,NA,NA,NA,NA,NA,NA,NA,NA,NA,NA,NA,NA,NA,NA,NA,NA
5cc74,deep,flow.Sequence,3_0_5_0_2_0,NA,NA,skipped,NA,770575,NA,NA,770568.54,770575,2023-10-27T13:06:27Z,770585.18,NULL,Kontrolle,kudhibiti,s,mbinguni,kufunga,utegemezi,NA,sdf,NA,5,NA,NA,NA,NA,NA,NA,NA,NA,NA,NA,NA,NA,NA,NA,NA,NA,NA,NA,NA
5cc74,Shallow Question,html.Page,3_0_5_0_2_1_0,NA,NA,form submission,6661.8199999999,770575,770568.54,770585.18,777247,777247,2023-10-27T13:06:34Z,777250.9,NULL,Kontrolle,kudhibiti,s,mbinguni,kufunga,utegemezi,kudhibiti,NA,NA,5,NA,NA,NA,NA,NA,NA,NA,NA,NA,NA,NA,NA,NA,NA,NA,NA,NA,NA,NA
5cc74,"""Richtig""-Screen",canvas.Screen,3_0_5_0_2_1_1,NA,NA,timeout,4999.5599999999,777251,777242.7,777250.9,782233.8,782236,2023-10-27T13:06:39Z,782250.46,NULL,Kontrolle,kudhibiti,s,mbinguni,kufunga,utegemezi,NA,sdf,1,5,NA,NA,NA,NA,NA,NA,NA,NA,NA,NA,NA,NA,NA,NA,NA,NA,NA,NA,NA
5cc74,"""Falsch""-Screen",canvas.Screen,3_0_5_0_2_1_2,NA,NA,skipped,NA,782242,NA,NA,782233.8,782242,2023-10-27T13:06:39Z,782250.46,NULL,Kontrolle,kudhibiti,s,mbinguni,kufunga,utegemezi,NA,sdf,NA,5,NA,NA,NA,NA,NA,NA,NA,NA,NA,NA,NA,NA,NA,NA,NA,NA,NA,NA,NA
5cc74,shallow,flow.Sequence,3_0_5_0_2_1,NA,NA,completion,11648.62,770575,770568.54,770585.18,782233.8,782243,2023-10-27T13:06:39Z,782250.46,NULL,Kontrolle,kudhibiti,s,mbinguni,kufunga,utegemezi,NA,sdf,NA,5,NA,NA,NA,NA,NA,NA,NA,NA,NA,NA,NA,NA,NA,NA,NA,NA,NA,NA,NA
5cc74,task,flow.Sequence,3_0_5_0_2,NA,NA,completion,11648.62,770575,770568.54,770585.18,782233.8,782243,2023-10-27T13:06:39Z,782250.46,NULL,Kontrolle,kudhibiti,s,mbinguni,kufunga,utegemezi,NA,sdf,NA,5,NA,NA,NA,NA,NA,NA,NA,NA,NA,NA,NA,NA,NA,NA,NA,NA,NA,NA,NA
5cc74,Deep Question,html.Page,3_0_5_0_3_0_0,NA,NA,form submission,17290.54,782243,782233.8,782250.46,799541,799541,2023-10-27T13:06:56Z,799547.74,NULL,Können,unaweza,d,NA,NA,NA,kuweza,NA,NA,5,NA,NA,NA,NA,NA,NA,NA,NA,NA,NA,NA,NA,NA,NA,NA,NA,NA,NA,NA
5cc74,"""Richtig""-Screen",canvas.Screen,3_0_5_0_3_0_1,NA,NA,skipped,NA,799542,NA,NA,799541,799542,2023-10-27T13:06:56Z,799547.74,NULL,Können,unaweza,d,NA,NA,NA,NA,sdf,NA,5,NA,NA,NA,NA,NA,NA,NA,NA,NA,NA,NA,NA,NA,NA,NA,NA,NA,NA,NA
5cc74,"""Falsch""-Screen",canvas.Screen,3_0_5_0_3_0_2,NA,NA,timeout,4999.88,799543,799539.68,799547.74,804530.98,804533,2023-10-27T13:07:01Z,804547.62,NULL,Können,unaweza,d,NA,NA,NA,NA,sdf,0,5,NA,NA,NA,NA,NA,NA,NA,NA,NA,NA,NA,NA,NA,NA,NA,NA,NA,NA,NA
5cc74,deep,flow.Sequence,3_0_5_0_3_0,NA,NA,completion,22280.52,782243,782233.8,782250.46,804530.98,804533,2023-10-27T13:07:01Z,804547.62,NULL,Können,unaweza,d,NA,NA,NA,NA,sdf,NA,5,NA,NA,NA,NA,NA,NA,NA,NA,NA,NA,NA,NA,NA,NA,NA,NA,NA,NA,NA
5cc74,shallow,flow.Sequence,3_0_5_0_3_1,NA,NA,skipped,NA,804534,NA,NA,804530.98,804534,2023-10-27T13:07:01Z,804547.62,NULL,Können,unaweza,d,NA,NA,NA,NA,sdf,NA,5,NA,NA,NA,NA,NA,NA,NA,NA,NA,NA,NA,NA,NA,NA,NA,NA,NA,NA,NA
5cc74,task,flow.Sequence,3_0_5_0_3,NA,NA,completion,22280.52,782243,782233.8,782250.46,804530.98,804534,2023-10-27T13:07:01Z,804547.62,NULL,Können,unaweza,d,NA,NA,NA,NA,sdf,NA,5,NA,NA,NA,NA,NA,NA,NA,NA,NA,NA,NA,NA,NA,NA,NA,NA,NA,NA,NA
5cc74,deep,flow.Sequence,3_0_5_0_4_0,NA,NA,skipped,NA,804534,NA,NA,804530.98,804534,2023-10-27T13:07:01Z,804547.62,NULL,Widerstand,usulubu,s,kusababisha,mwalimu,mwenendo,NA,sdf,NA,5,NA,NA,NA,NA,NA,NA,NA,NA,NA,NA,NA,NA,NA,NA,NA,NA,NA,NA,NA
5cc74,Shallow Question,html.Page,3_0_5_0_4_1_0,NA,NA,form submission,5774.38,804535,804530.98,804547.62,810322,810322,2023-10-27T13:07:07Z,810330.4,NULL,Widerstand,usulubu,s,kusababisha,mwalimu,mwenendo,usulubu,NA,NA,5,NA,NA,NA,NA,NA,NA,NA,NA,NA,NA,NA,NA,NA,NA,NA,NA,NA,NA,NA
5cc74,"""Richtig""-Screen",canvas.Screen,3_0_5_0_4_1_1,NA,NA,timeout,4998.24,810323,810320.7,810330.4,815311.98,815315,2023-10-27T13:07:12Z,815328.64,NULL,Widerstand,usulubu,s,kusababisha,mwalimu,mwenendo,NA,sdf,1,5,NA,NA,NA,NA,NA,NA,NA,NA,NA,NA,NA,NA,NA,NA,NA,NA,NA,NA,NA
5cc74,"""Falsch""-Screen",canvas.Screen,3_0_5_0_4_1_2,NA,NA,skipped,NA,815321,NA,NA,815311.98,815322,2023-10-27T13:07:12Z,815328.64,NULL,Widerstand,usulubu,s,kusababisha,mwalimu,mwenendo,NA,sdf,NA,5,NA,NA,NA,NA,NA,NA,NA,NA,NA,NA,NA,NA,NA,NA,NA,NA,NA,NA,NA
5cc74,shallow,flow.Sequence,3_0_5_0_4_1,NA,NA,completion,10764.36,804535,804530.98,804547.62,815311.98,815322,2023-10-27T13:07:12Z,815328.64,NULL,Widerstand,usulubu,s,kusababisha,mwalimu,mwenendo,NA,sdf,NA,5,NA,NA,NA,NA,NA,NA,NA,NA,NA,NA,NA,NA,NA,NA,NA,NA,NA,NA,NA
5cc74,task,flow.Sequence,3_0_5_0_4,NA,NA,completion,10764.36,804534,804530.98,804547.62,815311.98,815323,2023-10-27T13:07:12Z,815328.64,NULL,Widerstand,usulubu,s,kusababisha,mwalimu,mwenendo,NA,sdf,NA,5,NA,NA,NA,NA,NA,NA,NA,NA,NA,NA,NA,NA,NA,NA,NA,NA,NA,NA,NA
5cc74,Deep Question,html.Page,3_0_5_0_5_0_0,NA,NA,form submission,7037.36,815323,815311.98,815328.64,822366,822366,2023-10-27T13:07:19Z,822377.64,NULL,Ausschluss,kutengwa,d,NA,NA,NA,s,NA,NA,5,NA,NA,NA,NA,NA,NA,NA,NA,NA,NA,NA,NA,NA,NA,NA,NA,NA,NA,NA
5cc74,"""Richtig""-Screen",canvas.Screen,3_0_5_0_5_0_1,NA,NA,skipped,NA,822368,NA,NA,822366,822368,2023-10-27T13:07:19Z,822377.64,NULL,Ausschluss,kutengwa,d,NA,NA,NA,NA,sdf,NA,5,NA,NA,NA,NA,NA,NA,NA,NA,NA,NA,NA,NA,NA,NA,NA,NA,NA,NA,NA
5cc74,"""Falsch""-Screen",canvas.Screen,3_0_5_0_5_0_2,NA,NA,timeout,4999.8199999999,822370,822364.98,822377.64,827360.8,827363,2023-10-27T13:07:24Z,827377.46,NULL,Ausschluss,kutengwa,d,NA,NA,NA,NA,sdf,0,5,NA,NA,NA,NA,NA,NA,NA,NA,NA,NA,NA,NA,NA,NA,NA,NA,NA,NA,NA
5cc74,deep,flow.Sequence,3_0_5_0_5_0,NA,NA,completion,12032.16,815323,815311.98,815328.64,827360.8,827363,2023-10-27T13:07:24Z,827377.46,NULL,Ausschluss,kutengwa,d,NA,NA,NA,NA,sdf,NA,5,NA,NA,NA,NA,NA,NA,NA,NA,NA,NA,NA,NA,NA,NA,NA,NA,NA,NA,NA
5cc74,shallow,flow.Sequence,3_0_5_0_5_1,NA,NA,skipped,NA,827363,NA,NA,827360.8,827364,2023-10-27T13:07:24Z,827377.46,NULL,Ausschluss,kutengwa,d,NA,NA,NA,NA,sdf,NA,5,NA,NA,NA,NA,NA,NA,NA,NA,NA,NA,NA,NA,NA,NA,NA,NA,NA,NA,NA
5cc74,task,flow.Sequence,3_0_5_0_5,NA,NA,completion,12032.16,815323,815311.98,815328.64,827360.8,827364,2023-10-27T13:07:24Z,827377.46,NULL,Ausschluss,kutengwa,d,NA,NA,NA,NA,sdf,NA,5,NA,NA,NA,NA,NA,NA,NA,NA,NA,NA,NA,NA,NA,NA,NA,NA,NA,NA,NA
5cc74,Deep Question,html.Page,3_0_5_0_6_0_0,NA,NA,form submission,10461.54,827364,827360.8,827377.46,837839,837839,2023-10-27T13:07:35Z,837842.7,NULL,Gelegenheit,wakati,d,NA,NA,NA,wakati,NA,NA,5,NA,NA,NA,NA,NA,NA,NA,NA,NA,NA,NA,NA,NA,NA,NA,NA,NA,NA,NA
5cc74,"""Richtig""-Screen",canvas.Screen,3_0_5_0_6_0_1,NA,NA,timeout,5000.3200000001,837841,837837.62,837842.7,842826.36,842827,2023-10-27T13:07:40Z,842843.02,NULL,Gelegenheit,wakati,d,NA,NA,NA,NA,sdf,1,5,NA,NA,NA,NA,NA,NA,NA,NA,NA,NA,NA,NA,NA,NA,NA,NA,NA,NA,NA
5cc74,"""Falsch""-Screen",canvas.Screen,3_0_5_0_6_0_2,NA,NA,skipped,NA,842829,NA,NA,842826.36,842830,2023-10-27T13:07:40Z,842843.02,NULL,Gelegenheit,wakati,d,NA,NA,NA,NA,sdf,NA,5,NA,NA,NA,NA,NA,NA,NA,NA,NA,NA,NA,NA,NA,NA,NA,NA,NA,NA,NA
5cc74,deep,flow.Sequence,3_0_5_0_6_0,NA,NA,completion,15448.9,827364,827360.8,827377.46,842826.36,842830,2023-10-27T13:07:40Z,842843.02,NULL,Gelegenheit,wakati,d,NA,NA,NA,NA,sdf,NA,5,NA,NA,NA,NA,NA,NA,NA,NA,NA,NA,NA,NA,NA,NA,NA,NA,NA,NA,NA
5cc74,shallow,flow.Sequence,3_0_5_0_6_1,NA,NA,skipped,NA,842830,NA,NA,842826.36,842830,2023-10-27T13:07:40Z,842843.02,NULL,Gelegenheit,wakati,d,NA,NA,NA,NA,sdf,NA,5,NA,NA,NA,NA,NA,NA,NA,NA,NA,NA,NA,NA,NA,NA,NA,NA,NA,NA,NA
5cc74,task,flow.Sequence,3_0_5_0_6,NA,NA,completion,15448.9,827364,827360.8,827377.46,842826.36,842830,2023-10-27T13:07:40Z,842843.02,NULL,Gelegenheit,wakati,d,NA,NA,NA,NA,sdf,NA,5,NA,NA,NA,NA,NA,NA,NA,NA,NA,NA,NA,NA,NA,NA,NA,NA,NA,NA,NA
5cc74,Deep Question,html.Page,3_0_5_0_7_0_0,NA,NA,form submission,10642.98,842830,842826.36,842843.02,853486,853486,2023-10-27T13:07:50Z,853490.22,NULL,Kreativität,ubunifu,d,NA,NA,NA,ubanifu,NA,NA,5,NA,NA,NA,NA,NA,NA,NA,NA,NA,NA,NA,NA,NA,NA,NA,NA,NA,NA,NA
5cc74,"""Richtig""-Screen",canvas.Screen,3_0_5_0_7_0_1,NA,NA,skipped,NA,853487,NA,NA,853486,853487,2023-10-27T13:07:50Z,853490.22,NULL,Kreativität,ubunifu,d,NA,NA,NA,NA,sdf,NA,5,NA,NA,NA,NA,NA,NA,NA,NA,NA,NA,NA,NA,NA,NA,NA,NA,NA,NA,NA
5cc74,"""Falsch""-Screen",canvas.Screen,3_0_5_0_7_0_2,NA,NA,timeout,5000.38,853489,853484.14,853490.22,858473.94,858481,2023-10-27T13:07:55Z,858490.6,NULL,Kreativität,ubunifu,d,NA,NA,NA,NA,sdf,0,5,NA,NA,NA,NA,NA,NA,NA,NA,NA,NA,NA,NA,NA,NA,NA,NA,NA,NA,NA
5cc74,deep,flow.Sequence,3_0_5_0_7_0,NA,NA,completion,15630.92,842830,842826.36,842843.02,858473.94,858483,2023-10-27T13:07:55Z,858490.6,NULL,Kreativität,ubunifu,d,NA,NA,NA,NA,sdf,NA,5,NA,NA,NA,NA,NA,NA,NA,NA,NA,NA,NA,NA,NA,NA,NA,NA,NA,NA,NA
5cc74,shallow,flow.Sequence,3_0_5_0_7_1,NA,NA,skipped,NA,858484,NA,NA,858473.94,858485,2023-10-27T13:07:55Z,858490.6,NULL,Kreativität,ubunifu,d,NA,NA,NA,NA,sdf,NA,5,NA,NA,NA,NA,NA,NA,NA,NA,NA,NA,NA,NA,NA,NA,NA,NA,NA,NA,NA
5cc74,task,flow.Sequence,3_0_5_0_7,NA,NA,completion,15630.92,842830,842826.36,842843.02,858473.94,858485,2023-10-27T13:07:55Z,858490.6,NULL,Kreativität,ubunifu,d,NA,NA,NA,NA,sdf,NA,5,NA,NA,NA,NA,NA,NA,NA,NA,NA,NA,NA,NA,NA,NA,NA,NA,NA,NA,NA
5cc74,block,flow.Loop,3_0_5_0,NA,NA,completion,108703.2,749768,749768.16,749770.74,858473.94,858487,2023-10-27T13:07:55Z,858490.6,NULL,NA,NA,NA,NA,NA,NA,NA,sdf,NA,5,NA,NA,NA,NA,NA,NA,NA,NA,NA,NA,NA,NA,NA,NA,NA,NA,NA,NA,NA
5cc74,weiter,canvas.Screen,3_0_5_1,sdf,keypress(Space),response,1078.4,858487,858473.94,858490.6,859569,859580,2023-10-27T13:07:56Z,859656.44,NULL,NA,NA,NA,NA,NA,NA,NA,sdf,NA,5,NA,NA,NA,NA,NA,NA,NA,NA,NA,NA,NA,NA,NA,NA,NA,NA,NA,NA,NA
5cc74,check continue,flow.Sequence,3_0_5,NA,NA,completion,109798.26,749768,749768.16,749770.74,859569,859580,2023-10-27T13:07:56Z,859656.44,NULL,NA,NA,NA,NA,NA,NA,NA,sdf,NA,5,NA,NA,NA,NA,NA,NA,NA,NA,NA,NA,NA,NA,NA,NA,NA,NA,NA,NA,NA
5cc74,Deep Question,html.Page,3_0_6_0_0_0_0,NA,NA,form submission,4351.5600000001,859644,859643.58,859656.44,864008,864008,2023-10-27T13:08:01Z,864006.6,NULL,Kreativität,ubunifu,d,NA,NA,NA,ubunifu,NA,NA,6,NA,NA,NA,NA,NA,NA,NA,NA,NA,NA,NA,NA,NA,NA,NA,NA,NA,NA,NA
5cc74,"""Richtig""-Screen",canvas.Screen,3_0_6_0_0_0_1,NA,NA,timeout,4999.0600000001,864010,864005.82,864006.6,868989.02,868991,2023-10-27T13:08:06Z,869005.66,NULL,Kreativität,ubunifu,d,NA,NA,NA,NA,dfs,1,6,NA,NA,NA,NA,NA,NA,NA,NA,NA,NA,NA,NA,NA,NA,NA,NA,NA,NA,NA
5cc74,"""Falsch""-Screen",canvas.Screen,3_0_6_0_0_0_2,NA,NA,skipped,NA,868995,NA,NA,868989.02,868996,2023-10-27T13:08:06Z,869005.66,NULL,Kreativität,ubunifu,d,NA,NA,NA,NA,dfs,NA,6,NA,NA,NA,NA,NA,NA,NA,NA,NA,NA,NA,NA,NA,NA,NA,NA,NA,NA,NA
5cc74,deep,flow.Sequence,3_0_6_0_0_0,NA,NA,completion,9332.5800000001,859644,859643.58,859656.44,868989.02,868996,2023-10-27T13:08:06Z,869005.66,NULL,Kreativität,ubunifu,d,NA,NA,NA,NA,dfs,NA,6,NA,NA,NA,NA,NA,NA,NA,NA,NA,NA,NA,NA,NA,NA,NA,NA,NA,NA,NA
5cc74,shallow,flow.Sequence,3_0_6_0_0_1,NA,NA,skipped,NA,868997,NA,NA,868989.02,868997,2023-10-27T13:08:06Z,869005.66,NULL,Kreativität,ubunifu,d,NA,NA,NA,NA,dfs,NA,6,NA,NA,NA,NA,NA,NA,NA,NA,NA,NA,NA,NA,NA,NA,NA,NA,NA,NA,NA
5cc74,task,flow.Sequence,3_0_6_0_0,NA,NA,completion,9332.5800000001,859644,859643.58,859656.44,868989.02,868997,2023-10-27T13:08:06Z,869005.66,NULL,Kreativität,ubunifu,d,NA,NA,NA,NA,dfs,NA,6,NA,NA,NA,NA,NA,NA,NA,NA,NA,NA,NA,NA,NA,NA,NA,NA,NA,NA,NA
5cc74,Deep Question,html.Page,3_0_6_0_1_0_0,NA,NA,form submission,5392.34,868997,868989.02,869005.66,874398,874399,2023-10-27T13:08:11Z,874404.64,NULL,Gelegenheit,wakati,d,NA,NA,NA,wakati,NA,NA,6,NA,NA,NA,NA,NA,NA,NA,NA,NA,NA,NA,NA,NA,NA,NA,NA,NA,NA,NA
5cc74,"""Richtig""-Screen",canvas.Screen,3_0_6_0_1_0_1,NA,NA,timeout,5000,874400,874397.24,874404.64,879388,879389,2023-10-27T13:08:16Z,879404.64,NULL,Gelegenheit,wakati,d,NA,NA,NA,NA,dfs,1,6,NA,NA,NA,NA,NA,NA,NA,NA,NA,NA,NA,NA,NA,NA,NA,NA,NA,NA,NA
5cc74,"""Falsch""-Screen",canvas.Screen,3_0_6_0_1_0_2,NA,NA,skipped,NA,879393,NA,NA,879388,879394,2023-10-27T13:08:16Z,879404.64,NULL,Gelegenheit,wakati,d,NA,NA,NA,NA,dfs,NA,6,NA,NA,NA,NA,NA,NA,NA,NA,NA,NA,NA,NA,NA,NA,NA,NA,NA,NA,NA
5cc74,deep,flow.Sequence,3_0_6_0_1_0,NA,NA,completion,10382.34,868997,868989.02,869005.66,879388,879394,2023-10-27T13:08:16Z,879404.64,NULL,Gelegenheit,wakati,d,NA,NA,NA,NA,dfs,NA,6,NA,NA,NA,NA,NA,NA,NA,NA,NA,NA,NA,NA,NA,NA,NA,NA,NA,NA,NA
5cc74,shallow,flow.Sequence,3_0_6_0_1_1,NA,NA,skipped,NA,879394,NA,NA,879388,879394,2023-10-27T13:08:16Z,879404.64,NULL,Gelegenheit,wakati,d,NA,NA,NA,NA,dfs,NA,6,NA,NA,NA,NA,NA,NA,NA,NA,NA,NA,NA,NA,NA,NA,NA,NA,NA,NA,NA
5cc74,task,flow.Sequence,3_0_6_0_1,NA,NA,completion,10382.34,868997,868989.02,869005.66,879388,879395,2023-10-27T13:08:16Z,879404.64,NULL,Gelegenheit,wakati,d,NA,NA,NA,NA,dfs,NA,6,NA,NA,NA,NA,NA,NA,NA,NA,NA,NA,NA,NA,NA,NA,NA,NA,NA,NA,NA
5cc74,Deep Question,html.Page,3_0_6_0_2_0_0,NA,NA,form submission,23537.36,879395,879388,879404.64,902942,902942,2023-10-27T13:08:40Z,902951.2,NULL,Ausschluss,kutengwa,d,NA,NA,NA,ufagwa,NA,NA,6,NA,NA,NA,NA,NA,NA,NA,NA,NA,NA,NA,NA,NA,NA,NA,NA,NA,NA,NA
5cc74,"""Richtig""-Screen",canvas.Screen,3_0_6_0_2_0_1,NA,NA,skipped,NA,902944,NA,NA,902942,902944,2023-10-27T13:08:40Z,902951.2,NULL,Ausschluss,kutengwa,d,NA,NA,NA,NA,dfs,NA,6,NA,NA,NA,NA,NA,NA,NA,NA,NA,NA,NA,NA,NA,NA,NA,NA,NA,NA,NA
5cc74,"""Falsch""-Screen",canvas.Screen,3_0_6_0_2_0_2,NA,NA,timeout,4999.9400000001,902946,902940.62,902951.2,907934.5,907935,2023-10-27T13:08:45Z,907951.14,NULL,Ausschluss,kutengwa,d,NA,NA,NA,NA,dfs,0,6,NA,NA,NA,NA,NA,NA,NA,NA,NA,NA,NA,NA,NA,NA,NA,NA,NA,NA,NA
5cc74,deep,flow.Sequence,3_0_6_0_2_0,NA,NA,completion,28529.86,879395,879388,879404.64,907934.5,907935,2023-10-27T13:08:45Z,907951.14,NULL,Ausschluss,kutengwa,d,NA,NA,NA,NA,dfs,NA,6,NA,NA,NA,NA,NA,NA,NA,NA,NA,NA,NA,NA,NA,NA,NA,NA,NA,NA,NA
5cc74,shallow,flow.Sequence,3_0_6_0_2_1,NA,NA,skipped,NA,907935,NA,NA,907934.5,907936,2023-10-27T13:08:45Z,907951.14,NULL,Ausschluss,kutengwa,d,NA,NA,NA,NA,dfs,NA,6,NA,NA,NA,NA,NA,NA,NA,NA,NA,NA,NA,NA,NA,NA,NA,NA,NA,NA,NA
5cc74,task,flow.Sequence,3_0_6_0_2,NA,NA,completion,28529.86,879395,879388,879404.64,907934.5,907936,2023-10-27T13:08:45Z,907951.14,NULL,Ausschluss,kutengwa,d,NA,NA,NA,NA,dfs,NA,6,NA,NA,NA,NA,NA,NA,NA,NA,NA,NA,NA,NA,NA,NA,NA,NA,NA,NA,NA
5cc74,deep,flow.Sequence,3_0_6_0_3_0,NA,NA,skipped,NA,907936,NA,NA,907934.5,907936,2023-10-27T13:08:45Z,907951.14,NULL,Widerstand,usulubu,s,kusababisha,mwalimu,mwenendo,NA,dfs,NA,6,NA,NA,NA,NA,NA,NA,NA,NA,NA,NA,NA,NA,NA,NA,NA,NA,NA,NA,NA
5cc74,Shallow Question,html.Page,3_0_6_0_3_1_0,NA,NA,form submission,11090.86,907936,907934.5,907951.14,919042,919044,2023-10-27T13:08:56Z,919049.96,NULL,Widerstand,usulubu,s,kusababisha,mwalimu,mwenendo,usulubu,NA,NA,6,NA,NA,NA,NA,NA,NA,NA,NA,NA,NA,NA,NA,NA,NA,NA,NA,NA,NA,NA
5cc74,"""Richtig""-Screen",canvas.Screen,3_0_6_0_3_1_1,NA,NA,timeout,4998.5600000001,919048,919040.32,919049.96,924031.86,924034,2023-10-27T13:09:01Z,924048.52,NULL,Widerstand,usulubu,s,kusababisha,mwalimu,mwenendo,NA,dfs,1,6,NA,NA,NA,NA,NA,NA,NA,NA,NA,NA,NA,NA,NA,NA,NA,NA,NA,NA,NA
5cc74,"""Falsch""-Screen",canvas.Screen,3_0_6_0_3_1_2,NA,NA,skipped,NA,924039,NA,NA,924031.86,924040,2023-10-27T13:09:01Z,924048.52,NULL,Widerstand,usulubu,s,kusababisha,mwalimu,mwenendo,NA,dfs,NA,6,NA,NA,NA,NA,NA,NA,NA,NA,NA,NA,NA,NA,NA,NA,NA,NA,NA,NA,NA
5cc74,shallow,flow.Sequence,3_0_6_0_3_1,NA,NA,completion,16080.72,907936,907934.5,907951.14,924031.86,924040,2023-10-27T13:09:01Z,924048.52,NULL,Widerstand,usulubu,s,kusababisha,mwalimu,mwenendo,NA,dfs,NA,6,NA,NA,NA,NA,NA,NA,NA,NA,NA,NA,NA,NA,NA,NA,NA,NA,NA,NA,NA
5cc74,task,flow.Sequence,3_0_6_0_3,NA,NA,completion,16080.72,907936,907934.5,907951.14,924031.86,924040,2023-10-27T13:09:01Z,924048.52,NULL,Widerstand,usulubu,s,kusababisha,mwalimu,mwenendo,NA,dfs,NA,6,NA,NA,NA,NA,NA,NA,NA,NA,NA,NA,NA,NA,NA,NA,NA,NA,NA,NA,NA
5cc74,deep,flow.Sequence,3_0_6_0_4_0,NA,NA,skipped,NA,924041,NA,NA,924031.86,924041,2023-10-27T13:09:01Z,924048.52,NULL,Gefährdung,kuhatarisha,s,uchokozi,udhaifu,makorowezo,NA,dfs,NA,6,NA,NA,NA,NA,NA,NA,NA,NA,NA,NA,NA,NA,NA,NA,NA,NA,NA,NA,NA
5cc74,Shallow Question,html.Page,3_0_6_0_4_1_0,NA,NA,form submission,3506.48,924041,924031.86,924048.52,927555,927555,2023-10-27T13:09:04Z,927565.4,NULL,Gefährdung,kuhatarisha,s,uchokozi,udhaifu,makorowezo,kuhatarisha,NA,NA,6,NA,NA,NA,NA,NA,NA,NA,NA,NA,NA,NA,NA,NA,NA,NA,NA,NA,NA,NA
5cc74,"""Richtig""-Screen",canvas.Screen,3_0_6_0_4_1_1,NA,NA,timeout,4999.2999999999,927557,927552.7,927565.4,932548.04,932550,2023-10-27T13:09:09Z,932564.7,NULL,Gefährdung,kuhatarisha,s,uchokozi,udhaifu,makorowezo,NA,dfs,1,6,NA,NA,NA,NA,NA,NA,NA,NA,NA,NA,NA,NA,NA,NA,NA,NA,NA,NA,NA
5cc74,"""Falsch""-Screen",canvas.Screen,3_0_6_0_4_1_2,NA,NA,skipped,NA,932558,NA,NA,932548.04,932558,2023-10-27T13:09:09Z,932564.7,NULL,Gefährdung,kuhatarisha,s,uchokozi,udhaifu,makorowezo,NA,dfs,NA,6,NA,NA,NA,NA,NA,NA,NA,NA,NA,NA,NA,NA,NA,NA,NA,NA,NA,NA,NA
5cc74,shallow,flow.Sequence,3_0_6_0_4_1,NA,NA,completion,8499.52,924041,924031.86,924048.52,932548.04,932559,2023-10-27T13:09:09Z,932564.7,NULL,Gefährdung,kuhatarisha,s,uchokozi,udhaifu,makorowezo,NA,dfs,NA,6,NA,NA,NA,NA,NA,NA,NA,NA,NA,NA,NA,NA,NA,NA,NA,NA,NA,NA,NA
5cc74,task,flow.Sequence,3_0_6_0_4,NA,NA,completion,8499.52,924040,924031.86,924048.52,932548.04,932559,2023-10-27T13:09:09Z,932564.7,NULL,Gefährdung,kuhatarisha,s,uchokozi,udhaifu,makorowezo,NA,dfs,NA,6,NA,NA,NA,NA,NA,NA,NA,NA,NA,NA,NA,NA,NA,NA,NA,NA,NA,NA,NA
5cc74,Deep Question,html.Page,3_0_6_0_5_0_0,NA,NA,form submission,29774.3,932561,932548.04,932564.7,962339,962339,2023-10-27T13:09:39Z,962343.62,NULL,Können,unaweza,d,NA,NA,NA,ufaweza,NA,NA,6,NA,NA,NA,NA,NA,NA,NA,NA,NA,NA,NA,NA,NA,NA,NA,NA,NA,NA,NA
5cc74,"""Richtig""-Screen",canvas.Screen,3_0_6_0_5_0_1,NA,NA,skipped,NA,962342,NA,NA,962339,962342,2023-10-27T13:09:39Z,962343.62,NULL,Können,unaweza,d,NA,NA,NA,NA,dfs,NA,6,NA,NA,NA,NA,NA,NA,NA,NA,NA,NA,NA,NA,NA,NA,NA,NA,NA,NA,NA
5cc74,"""Falsch""-Screen",canvas.Screen,3_0_6_0_5_0_2,NA,NA,timeout,4999.88,962346,962334.94,962343.62,967326.84,967328,2023-10-27T13:09:44Z,967343.5,NULL,Können,unaweza,d,NA,NA,NA,NA,dfs,0,6,NA,NA,NA,NA,NA,NA,NA,NA,NA,NA,NA,NA,NA,NA,NA,NA,NA,NA,NA
5cc74,deep,flow.Sequence,3_0_6_0_5_0,NA,NA,completion,34762.14,932561,932548.04,932564.7,967326.84,967330,2023-10-27T13:09:44Z,967343.5,NULL,Können,unaweza,d,NA,NA,NA,NA,dfs,NA,6,NA,NA,NA,NA,NA,NA,NA,NA,NA,NA,NA,NA,NA,NA,NA,NA,NA,NA,NA
5cc74,shallow,flow.Sequence,3_0_6_0_5_1,NA,NA,skipped,NA,967331,NA,NA,967326.84,967331,2023-10-27T13:09:44Z,967343.5,NULL,Können,unaweza,d,NA,NA,NA,NA,dfs,NA,6,NA,NA,NA,NA,NA,NA,NA,NA,NA,NA,NA,NA,NA,NA,NA,NA,NA,NA,NA
5cc74,task,flow.Sequence,3_0_6_0_5,NA,NA,completion,34762.14,932561,932548.04,932564.7,967326.84,967331,2023-10-27T13:09:44Z,967343.5,NULL,Können,unaweza,d,NA,NA,NA,NA,dfs,NA,6,NA,NA,NA,NA,NA,NA,NA,NA,NA,NA,NA,NA,NA,NA,NA,NA,NA,NA,NA
5cc74,deep,flow.Sequence,3_0_6_0_6_0,NA,NA,skipped,NA,967332,NA,NA,967326.84,967332,2023-10-27T13:09:44Z,967343.5,NULL,Kontrolle,kudhibiti,s,mbinguni,kufunga,utegemezi,NA,dfs,NA,6,NA,NA,NA,NA,NA,NA,NA,NA,NA,NA,NA,NA,NA,NA,NA,NA,NA,NA,NA
5cc74,Shallow Question,html.Page,3_0_6_0_6_1_0,NA,NA,form submission,4699.5,967333,967326.84,967343.5,972043,972044,2023-10-27T13:09:49Z,972042.4,NULL,Kontrolle,kudhibiti,s,mbinguni,kufunga,utegemezi,kudhibiti,NA,NA,6,NA,NA,NA,NA,NA,NA,NA,NA,NA,NA,NA,NA,NA,NA,NA,NA,NA,NA,NA
5cc74,"""Richtig""-Screen",canvas.Screen,3_0_6_0_6_1_1,NA,NA,timeout,4999.88,972049,972038.2,972042.4,977025.62,977026,2023-10-27T13:09:54Z,977042.28,NULL,Kontrolle,kudhibiti,s,mbinguni,kufunga,utegemezi,NA,dfs,1,6,NA,NA,NA,NA,NA,NA,NA,NA,NA,NA,NA,NA,NA,NA,NA,NA,NA,NA,NA
5cc74,"""Falsch""-Screen",canvas.Screen,3_0_6_0_6_1_2,NA,NA,skipped,NA,977032,NA,NA,977025.62,977032,2023-10-27T13:09:54Z,977042.28,NULL,Kontrolle,kudhibiti,s,mbinguni,kufunga,utegemezi,NA,dfs,NA,6,NA,NA,NA,NA,NA,NA,NA,NA,NA,NA,NA,NA,NA,NA,NA,NA,NA,NA,NA
5cc74,shallow,flow.Sequence,3_0_6_0_6_1,NA,NA,completion,9682.12,967333,967326.84,967343.5,977025.62,977032,2023-10-27T13:09:54Z,977042.28,NULL,Kontrolle,kudhibiti,s,mbinguni,kufunga,utegemezi,NA,dfs,NA,6,NA,NA,NA,NA,NA,NA,NA,NA,NA,NA,NA,NA,NA,NA,NA,NA,NA,NA,NA
5cc74,task,flow.Sequence,3_0_6_0_6,NA,NA,completion,9682.12,967332,967326.84,967343.5,977025.62,977033,2023-10-27T13:09:54Z,977042.28,NULL,Kontrolle,kudhibiti,s,mbinguni,kufunga,utegemezi,NA,dfs,NA,6,NA,NA,NA,NA,NA,NA,NA,NA,NA,NA,NA,NA,NA,NA,NA,NA,NA,NA,NA
5cc74,deep,flow.Sequence,3_0_6_0_7_0,NA,NA,skipped,NA,977033,NA,NA,977025.62,977033,2023-10-27T13:09:54Z,977042.28,NULL,Verstand,ufahamivu,s,shakawa,hadhari,mhandisi,NA,dfs,NA,6,NA,NA,NA,NA,NA,NA,NA,NA,NA,NA,NA,NA,NA,NA,NA,NA,NA,NA,NA
5cc74,Shallow Question,html.Page,3_0_6_0_7_1_0,NA,NA,form submission,4296.72,977033,977025.62,977042.28,981339,981339,2023-10-27T13:09:58Z,981341.02,NULL,Verstand,ufahamivu,s,shakawa,hadhari,mhandisi,ufahamivu,NA,NA,6,NA,NA,NA,NA,NA,NA,NA,NA,NA,NA,NA,NA,NA,NA,NA,NA,NA,NA,NA
5cc74,"""Richtig""-Screen",canvas.Screen,3_0_6_0_7_1_1,NA,NA,timeout,4999.1799999999,981340,981336.52,981341.02,986323.54,986325,2023-10-27T13:10:03Z,986340.2,NULL,Verstand,ufahamivu,s,shakawa,hadhari,mhandisi,NA,dfs,1,6,NA,NA,NA,NA,NA,NA,NA,NA,NA,NA,NA,NA,NA,NA,NA,NA,NA,NA,NA
