observation,sender,sender_type,sender_id,response,response_action,ended_on,duration,time_run,time_render,time_show,time_end,time_commit,timestamp,time_switch,distractors,german,swahili,enc,distractor1,distractor2,distractor3,response_2,x,correct,x_2,url_vp,url_sess,meta_labjs_version,meta_location,meta_user_agent,meta_platform,meta_language,meta_locale,meta_time_zone,meta_timezone_offset,meta_screen_width,meta_screen_height,meta_scroll_width,meta_scroll_height,meta_window_inner_width,meta_window_inner_height,meta_device_pixel_ratio,meta_labjs_build_flavor,meta_labjs_build_commit
a74cf,Introduction general,canvas.Screen,0,weiter,keypress(q),response,2682088.978,1444.8999998569,18166.21,18199.522,2700288.5,2700294.7,2023-06-01T16:10:19Z,2700308.218,NULL,NA,NA,NA,NA,NA,NA,NA,NA,NA,NA,219,1,20.2.4,https://neurocog.fernuni.ch/studies/vweber/sfink/encoding_immediate/index.html?vp=219&sess=1,"Mozilla/5.0 (Windows NT 10.0; Win64; x64) AppleWebKit/537.36 (KHTML, like Gecko) Chrome/113.0.0.0 Safari/537.36",Win32,de-CH,de,Europe/Zurich,-120,1536,864,1536,706,1536,754,1.25,production,f5b4a49f956347addd546a832a3327688c2c0fef
a74cf,Introduction practice,canvas.Screen,1_0,NA,keypress(Space),response,5945.6819998571,2700295.0999999,2700283.777,2700308.218,2706253.8999999,2706255.0999999,2023-06-01T16:10:25Z,2706269.258,NULL,NA,NA,NA,NA,NA,NA,NA,NA,NA,NA,NA,NA,NA,NA,NA,NA,NA,NA,NA,NA,NA,NA,NA,NA,NA,NA,NA,NA,NA
a74cf,deep,flow.Sequence,1_1_0_0,NA,NA,skipped,NA,2706255.8,NA,NA,2706253.8999999,2706256.5,2023-06-01T16:10:25Z,2706269.258,"c(""distractor1"", ""distractor2"", ""distractor3"")",Gegenwart,hadhara,s,katiba,jokofu,mikopo,NA,NA,NA,NA,NA,NA,NA,NA,NA,NA,NA,NA,NA,NA,NA,NA,NA,NA,NA,NA,NA,NA,NA
a74cf,Shallow Question,html.Page,1_1_0_1_0,NA,NA,form submission,55427.442000048,2706256.8999999,2706252.259,2706269.258,2761696.7,2761697.2,2023-06-01T16:11:20Z,2761706.941,"c(""distractor1"", ""distractor2"", ""distractor3"")",Gegenwart,hadhara,s,katiba,jokofu,mikopo,katiba,NA,NA,NA,NA,NA,NA,NA,NA,NA,NA,NA,NA,NA,NA,NA,NA,NA,NA,NA,NA,NA,NA
a74cf,"""Richtig""-Screen",canvas.Screen,1_1_0_1_1,NA,NA,skipped,NA,2761700.5999999,NA,NA,2761696.7,2761701.0999999,2023-06-01T16:11:20Z,2761706.941,"c(""distractor1"", ""distractor2"", ""distractor3"")",Gegenwart,hadhara,s,katiba,jokofu,mikopo,NA,NA,NA,NA,NA,NA,NA,NA,NA,NA,NA,NA,NA,NA,NA,NA,NA,NA,NA,NA,NA,NA,NA
a74cf,"""Falsch""-Screen",canvas.Screen,1_1_0_1_2,NA,NA,timeout,4996.4369999999,2761704,2761674.281,2761706.941,2766686.747,2766689.5,2023-06-01T16:11:25Z,2766703.378,"c(""distractor1"", ""distractor2"", ""distractor3"")",Gegenwart,hadhara,s,katiba,jokofu,mikopo,NA,NA,0,NA,NA,NA,NA,NA,NA,NA,NA,NA,NA,NA,NA,NA,NA,NA,NA,NA,NA,NA,NA
a74cf,shallow,flow.Sequence,1_1_0_1,NA,NA,completion,60417.489,2706256.8,2706252.259,2706269.258,2766686.747,2766689.8,2023-06-01T16:11:25Z,2766703.378,"c(""distractor1"", ""distractor2"", ""distractor3"")",Gegenwart,hadhara,s,katiba,jokofu,mikopo,NA,NA,NA,NA,NA,NA,NA,NA,NA,NA,NA,NA,NA,NA,NA,NA,NA,NA,NA,NA,NA,NA,NA
a74cf,task,flow.Sequence,1_1_0,NA,NA,completion,60417.489,2706255.8,2706252.259,2706269.258,2766686.747,2766689.8999999,2023-06-01T16:11:25Z,2766703.378,"c(""distractor1"", ""distractor2"", ""distractor3"")",Gegenwart,hadhara,s,katiba,jokofu,mikopo,NA,NA,NA,NA,NA,NA,NA,NA,NA,NA,NA,NA,NA,NA,NA,NA,NA,NA,NA,NA,NA,NA,NA
a74cf,deep,flow.Sequence,1_1_1_0,NA,NA,skipped,NA,2766690.0999999,NA,NA,2766686.747,2766690.2,2023-06-01T16:11:25Z,2766703.378,"c(""distractor1"", ""distractor2"", ""distractor3"")",Kritik,lawama,s,dereva,nafasi,mawazo,NA,NA,NA,NA,NA,NA,NA,NA,NA,NA,NA,NA,NA,NA,NA,NA,NA,NA,NA,NA,NA,NA,NA
a74cf,Shallow Question,html.Page,1_1_1_1_0,NA,NA,form submission,10464.221999905,2766690.3999999,2766686.747,2766703.378,2777167.5999999,2777168.2,2023-06-01T16:11:36Z,2777177.568,"c(""distractor1"", ""distractor2"", ""distractor3"")",Kritik,lawama,s,dereva,nafasi,mawazo,nafasi,NA,NA,NA,NA,NA,NA,NA,NA,NA,NA,NA,NA,NA,NA,NA,NA,NA,NA,NA,NA,NA,NA
a74cf,"""Richtig""-Screen",canvas.Screen,1_1_1_1_1,NA,NA,skipped,NA,2777174.5999999,NA,NA,2777167.5999999,2777175.3,2023-06-01T16:11:36Z,2777177.568,"c(""distractor1"", ""distractor2"", ""distractor3"")",Kritik,lawama,s,dereva,nafasi,mawazo,NA,NA,NA,NA,NA,NA,NA,NA,NA,NA,NA,NA,NA,NA,NA,NA,NA,NA,NA,NA,NA,NA,NA
a74cf,"""Falsch""-Screen",canvas.Screen,1_1_1_1_2,NA,NA,timeout,4995.983,2777178.8,2777161.094,2777177.568,2782156.904,2782158.0999999,2023-06-01T16:11:41Z,2782173.551,"c(""distractor1"", ""distractor2"", ""distractor3"")",Kritik,lawama,s,dereva,nafasi,mawazo,NA,NA,0,NA,NA,NA,NA,NA,NA,NA,NA,NA,NA,NA,NA,NA,NA,NA,NA,NA,NA,NA,NA
a74cf,shallow,flow.Sequence,1_1_1_1,NA,NA,completion,15453.526,2766690.3999999,2766686.747,2766703.378,2782156.904,2782158.7,2023-06-01T16:11:41Z,2782173.551,"c(""distractor1"", ""distractor2"", ""distractor3"")",Kritik,lawama,s,dereva,nafasi,mawazo,NA,NA,NA,NA,NA,NA,NA,NA,NA,NA,NA,NA,NA,NA,NA,NA,NA,NA,NA,NA,NA,NA,NA
a74cf,task,flow.Sequence,1_1_1,NA,NA,completion,15453.526,2766690,2766686.747,2766703.378,2782156.904,2782159.0999999,2023-06-01T16:11:41Z,2782173.551,"c(""distractor1"", ""distractor2"", ""distractor3"")",Kritik,lawama,s,dereva,nafasi,mawazo,NA,NA,NA,NA,NA,NA,NA,NA,NA,NA,NA,NA,NA,NA,NA,NA,NA,NA,NA,NA,NA,NA,NA
a74cf,deep,flow.Sequence,1_1_2_0,NA,NA,skipped,NA,2782159.3999999,NA,NA,2782156.904,2782159.7,2023-06-01T16:11:41Z,2782173.551,"c(""distractor1"", ""distractor2"", ""distractor3"")",Rückhalt,msaada,s,muhula,auwali,kiwimbe,NA,NA,NA,NA,NA,NA,NA,NA,NA,NA,NA,NA,NA,NA,NA,NA,NA,NA,NA,NA,NA,NA,NA
a74cf,Shallow Question,html.Page,1_1_2_1_0,NA,NA,form submission,8888.348999857,2782159.8999999,2782156.904,2782173.551,2791061.8999999,2791062.0999999,2023-06-01T16:11:49Z,2791066.098,"c(""distractor1"", ""distractor2"", ""distractor3"")",Rückhalt,msaada,s,muhula,auwali,kiwimbe,kiwimbe,NA,NA,NA,NA,NA,NA,NA,NA,NA,NA,NA,NA,NA,NA,NA,NA,NA,NA,NA,NA,NA,NA
a74cf,"""Richtig""-Screen",canvas.Screen,1_1_2_1_1,NA,NA,skipped,NA,2791063.8,NA,NA,2791061.8999999,2791063.8999999,2023-06-01T16:11:49Z,2791066.098,"c(""distractor1"", ""distractor2"", ""distractor3"")",Rückhalt,msaada,s,muhula,auwali,kiwimbe,NA,NA,NA,NA,NA,NA,NA,NA,NA,NA,NA,NA,NA,NA,NA,NA,NA,NA,NA,NA,NA,NA,NA
a74cf,"""Falsch""-Screen",canvas.Screen,1_1_2_1_2,NA,NA,timeout,4996.1819999996,2791064.5,2791049.944,2791066.098,2796045.894,2796046.8999999,2023-06-01T16:11:54Z,2796062.28,"c(""distractor1"", ""distractor2"", ""distractor3"")",Rückhalt,msaada,s,muhula,auwali,kiwimbe,NA,NA,0,NA,NA,NA,NA,NA,NA,NA,NA,NA,NA,NA,NA,NA,NA,NA,NA,NA,NA,NA,NA
a74cf,shallow,flow.Sequence,1_1_2_1,NA,NA,completion,13872.343,2782159.8999999,2782156.904,2782173.551,2796045.894,2796047.3,2023-06-01T16:11:54Z,2796062.28,"c(""distractor1"", ""distractor2"", ""distractor3"")",Rückhalt,msaada,s,muhula,auwali,kiwimbe,NA,NA,NA,NA,NA,NA,NA,NA,NA,NA,NA,NA,NA,NA,NA,NA,NA,NA,NA,NA,NA,NA,NA
a74cf,task,flow.Sequence,1_1_2,NA,NA,completion,13872.343,2782159.3,2782156.904,2782173.551,2796045.894,2796047.5999999,2023-06-01T16:11:54Z,2796062.28,"c(""distractor1"", ""distractor2"", ""distractor3"")",Rückhalt,msaada,s,muhula,auwali,kiwimbe,NA,NA,NA,NA,NA,NA,NA,NA,NA,NA,NA,NA,NA,NA,NA,NA,NA,NA,NA,NA,NA,NA,NA
a74cf,Deep Question,html.Page,1_1_3_0_0,NA,NA,form submission,26910.119999857,2796047.8,2796045.894,2796062.28,2822972.3999999,2822972.5999999,2023-06-01T16:12:21Z,2822990.527,"c(""distractor1"", ""distractor2"", ""distractor3"")",Qualität,mtindo,d,NA,NA,NA,a,NA,NA,NA,NA,NA,NA,NA,NA,NA,NA,NA,NA,NA,NA,NA,NA,NA,NA,NA,NA,NA,NA
a74cf,"""Richtig""-Screen",canvas.Screen,1_1_3_0_1,NA,NA,skipped,NA,2822974.8,NA,NA,2822972.3999999,2822974.8999999,2023-06-01T16:12:21Z,2822990.527,"c(""distractor1"", ""distractor2"", ""distractor3"")",Qualität,mtindo,d,NA,NA,NA,NA,NA,NA,NA,NA,NA,NA,NA,NA,NA,NA,NA,NA,NA,NA,NA,NA,NA,NA,NA,NA,NA,NA
a74cf,"""Falsch""-Screen",canvas.Screen,1_1_3_0_2,NA,NA,timeout,4995.5170000005,2822975.8999999,2822957.059,2822990.527,2827969.358,2827970.3999999,2023-06-01T16:12:26Z,2827986.044,"c(""distractor1"", ""distractor2"", ""distractor3"")",Qualität,mtindo,d,NA,NA,NA,NA,NA,0,NA,NA,NA,NA,NA,NA,NA,NA,NA,NA,NA,NA,NA,NA,NA,NA,NA,NA,NA,NA
a74cf,deep,flow.Sequence,1_1_3_0,NA,NA,completion,31907.078,2796047.7,2796045.894,2796062.28,2827969.358,2827970.8,2023-06-01T16:12:26Z,2827986.044,"c(""distractor1"", ""distractor2"", ""distractor3"")",Qualität,mtindo,d,NA,NA,NA,NA,NA,NA,NA,NA,NA,NA,NA,NA,NA,NA,NA,NA,NA,NA,NA,NA,NA,NA,NA,NA,NA,NA
a74cf,shallow,flow.Sequence,1_1_3_1,NA,NA,skipped,NA,2827971.0999999,NA,NA,2827969.358,2827971.3,2023-06-01T16:12:26Z,2827986.044,"c(""distractor1"", ""distractor2"", ""distractor3"")",Qualität,mtindo,d,NA,NA,NA,NA,NA,NA,NA,NA,NA,NA,NA,NA,NA,NA,NA,NA,NA,NA,NA,NA,NA,NA,NA,NA,NA,NA
a74cf,task,flow.Sequence,1_1_3,NA,NA,completion,31907.078,2796047.7,2796045.894,2796062.28,2827969.358,2827971.5,2023-06-01T16:12:26Z,2827986.044,"c(""distractor1"", ""distractor2"", ""distractor3"")",Qualität,mtindo,d,NA,NA,NA,NA,NA,NA,NA,NA,NA,NA,NA,NA,NA,NA,NA,NA,NA,NA,NA,NA,NA,NA,NA,NA,NA,NA
a74cf,Deep Question,html.Page,1_1_4_0_0,NA,NA,form submission,3343.5559999044,2827971.8,2827969.358,2827986.044,2831329.5999999,2831329.8,2023-06-01T16:12:30Z,2831332.938,"c(""distractor1"", ""distractor2"", ""distractor3"")",Schatten,kivuli,d,NA,NA,NA,h,NA,NA,NA,NA,NA,NA,NA,NA,NA,NA,NA,NA,NA,NA,NA,NA,NA,NA,NA,NA,NA,NA
a74cf,"""Richtig""-Screen",canvas.Screen,1_1_4_0_1,NA,NA,skipped,NA,2831332.2,NA,NA,2831329.5999999,2831332.3999999,2023-06-01T16:12:30Z,2831332.938,"c(""distractor1"", ""distractor2"", ""distractor3"")",Schatten,kivuli,d,NA,NA,NA,NA,NA,NA,NA,NA,NA,NA,NA,NA,NA,NA,NA,NA,NA,NA,NA,NA,NA,NA,NA,NA,NA,NA
a74cf,"""Falsch""-Screen",canvas.Screen,1_1_4_0_2,NA,NA,timeout,4996.3330000001,2831333.3,2831316.839,2831332.938,2836312.503,2836313.5,2023-06-01T16:12:35Z,2836329.271,"c(""distractor1"", ""distractor2"", ""distractor3"")",Schatten,kivuli,d,NA,NA,NA,NA,NA,0,NA,NA,NA,NA,NA,NA,NA,NA,NA,NA,NA,NA,NA,NA,NA,NA,NA,NA,NA,NA
a74cf,deep,flow.Sequence,1_1_4_0,NA,NA,completion,8326.4589999998,2827971.7,2827969.358,2827986.044,2836312.503,2836314,2023-06-01T16:12:35Z,2836329.271,"c(""distractor1"", ""distractor2"", ""distractor3"")",Schatten,kivuli,d,NA,NA,NA,NA,NA,NA,NA,NA,NA,NA,NA,NA,NA,NA,NA,NA,NA,NA,NA,NA,NA,NA,NA,NA,NA,NA
a74cf,shallow,flow.Sequence,1_1_4_1,NA,NA,skipped,NA,2836314.2,NA,NA,2836312.503,2836314.3,2023-06-01T16:12:35Z,2836329.271,"c(""distractor1"", ""distractor2"", ""distractor3"")",Schatten,kivuli,d,NA,NA,NA,NA,NA,NA,NA,NA,NA,NA,NA,NA,NA,NA,NA,NA,NA,NA,NA,NA,NA,NA,NA,NA,NA,NA
a74cf,task,flow.Sequence,1_1_4,NA,NA,completion,8326.4589999998,2827971.7,2827969.358,2827986.044,2836312.503,2836314.5999999,2023-06-01T16:12:35Z,2836329.271,"c(""distractor1"", ""distractor2"", ""distractor3"")",Schatten,kivuli,d,NA,NA,NA,NA,NA,NA,NA,NA,NA,NA,NA,NA,NA,NA,NA,NA,NA,NA,NA,NA,NA,NA,NA,NA,NA,NA
a74cf,Deep Question,html.Page,1_1_5_0_0,NA,NA,form submission,2312.1289998568,2836314.8,2836312.503,2836329.271,2838641.3999999,2838641.5999999,2023-06-01T16:12:37Z,2838643.557,"c(""distractor1"", ""distractor2"", ""distractor3"")",Gesundheit,salama,d,NA,NA,NA,h,NA,NA,NA,NA,NA,NA,NA,NA,NA,NA,NA,NA,NA,NA,NA,NA,NA,NA,NA,NA,NA,NA
a74cf,"""Richtig""-Screen",canvas.Screen,1_1_5_0_1,NA,NA,skipped,NA,2838643.0999999,NA,NA,2838641.3999999,2838643.2,2023-06-01T16:12:37Z,2838643.557,"c(""distractor1"", ""distractor2"", ""distractor3"")",Gesundheit,salama,d,NA,NA,NA,NA,NA,NA,NA,NA,NA,NA,NA,NA,NA,NA,NA,NA,NA,NA,NA,NA,NA,NA,NA,NA,NA,NA
a74cf,"""Falsch""-Screen",canvas.Screen,1_1_5_0_2,NA,NA,timeout,4996.344,2838643.8999999,2838627.536,2838643.557,2843623.374,2843624.3999999,2023-06-01T16:12:42Z,2843639.901,"c(""distractor1"", ""distractor2"", ""distractor3"")",Gesundheit,salama,d,NA,NA,NA,NA,NA,0,NA,NA,NA,NA,NA,NA,NA,NA,NA,NA,NA,NA,NA,NA,NA,NA,NA,NA,NA,NA
a74cf,deep,flow.Sequence,1_1_5_0,NA,NA,completion,7294.1029999997,2836314.7,2836312.503,2836329.271,2843623.374,2843624.8,2023-06-01T16:12:42Z,2843639.901,"c(""distractor1"", ""distractor2"", ""distractor3"")",Gesundheit,salama,d,NA,NA,NA,NA,NA,NA,NA,NA,NA,NA,NA,NA,NA,NA,NA,NA,NA,NA,NA,NA,NA,NA,NA,NA,NA,NA
a74cf,shallow,flow.Sequence,1_1_5_1,NA,NA,skipped,NA,2843624.8999999,NA,NA,2843623.374,2843625.0999999,2023-06-01T16:12:42Z,2843639.901,"c(""distractor1"", ""distractor2"", ""distractor3"")",Gesundheit,salama,d,NA,NA,NA,NA,NA,NA,NA,NA,NA,NA,NA,NA,NA,NA,NA,NA,NA,NA,NA,NA,NA,NA,NA,NA,NA,NA
a74cf,task,flow.Sequence,1_1_5,NA,NA,completion,7294.1029999997,2836314.7,2836312.503,2836329.271,2843623.374,2843625.3,2023-06-01T16:12:42Z,2843639.901,"c(""distractor1"", ""distractor2"", ""distractor3"")",Gesundheit,salama,d,NA,NA,NA,NA,NA,NA,NA,NA,NA,NA,NA,NA,NA,NA,NA,NA,NA,NA,NA,NA,NA,NA,NA,NA,NA,NA
a74cf,block,flow.Loop,1_1,NA,NA,completion,137354.116,2706255.5999999,2706252.259,2706269.258,2843623.374,2843625.8,2023-06-01T16:12:42Z,2843639.901,"c(""distractor1"", ""distractor2"", ""distractor3"")",NA,NA,NA,NA,NA,NA,NA,NA,NA,NA,NA,NA,NA,NA,NA,NA,NA,NA,NA,NA,NA,NA,NA,NA,NA,NA,NA,NA,NA
a74cf,Practice,flow.Sequence,1,NA,NA,completion,143315.156,2700295.0999999,2700283.777,2700308.218,2843623.374,2843626.0999999,2023-06-01T16:12:42Z,2843639.901,NULL,NA,NA,NA,NA,NA,NA,NA,NA,NA,NA,NA,NA,NA,NA,NA,NA,NA,NA,NA,NA,NA,NA,NA,NA,NA,NA,NA,NA,NA
a74cf,Experiment start,canvas.Screen,2,weiter,keypress(q),response,4815.4989998569,2843626.2,2843623.374,2843639.901,2848455.3999999,2848456.3999999,2023-06-01T16:12:47Z,2848535.414,NULL,NA,NA,NA,NA,NA,NA,NA,NA,NA,NA,NA,NA,NA,NA,NA,NA,NA,NA,NA,NA,NA,NA,NA,NA,NA,NA,NA,NA,NA
a74cf,Deep Question,html.Page,3_0_0_0_0_0_0,NA,NA,form submission,3365.9859998571,2848531.7,2848519.206,2848535.414,2851901.3999999,2851901.5999999,2023-06-01T16:12:50Z,2851916.651,NULL,Lawine,banguko,d,NA,NA,NA,t,NA,NA,0,NA,NA,NA,NA,NA,NA,NA,NA,NA,NA,NA,NA,NA,NA,NA,NA,NA,NA,NA
a74cf,"""Richtig""-Screen",canvas.Screen,3_0_0_0_0_0_1,NA,NA,skipped,NA,2851902.2,NA,NA,2851901.3999999,2851902.3,2023-06-01T16:12:50Z,2851916.651,NULL,Lawine,banguko,d,NA,NA,NA,NA,sdf,NA,0,NA,NA,NA,NA,NA,NA,NA,NA,NA,NA,NA,NA,NA,NA,NA,NA,NA,NA,NA
a74cf,"""Falsch""-Screen",canvas.Screen,3_0_0_0_0_0_2,NA,NA,timeout,4995.8500000001,2851902.8999999,2851899.952,2851916.651,2856895.88,2856896.3999999,2023-06-01T16:12:55Z,2856912.501,NULL,Lawine,banguko,d,NA,NA,NA,NA,sdf,0,0,NA,NA,NA,NA,NA,NA,NA,NA,NA,NA,NA,NA,NA,NA,NA,NA,NA,NA,NA
a74cf,deep,flow.Sequence,3_0_0_0_0_0,NA,NA,completion,8360.466,2848531.7,2848519.206,2848535.414,2856895.88,2856896.5999999,2023-06-01T16:12:55Z,2856912.501,NULL,Lawine,banguko,d,NA,NA,NA,NA,sdf,NA,0,NA,NA,NA,NA,NA,NA,NA,NA,NA,NA,NA,NA,NA,NA,NA,NA,NA,NA,NA
a74cf,shallow,flow.Sequence,3_0_0_0_0_1,NA,NA,skipped,NA,2856896.7,NA,NA,2856895.88,2856896.7,2023-06-01T16:12:55Z,2856912.501,NULL,Lawine,banguko,d,NA,NA,NA,NA,sdf,NA,0,NA,NA,NA,NA,NA,NA,NA,NA,NA,NA,NA,NA,NA,NA,NA,NA,NA,NA,NA
a74cf,task,flow.Sequence,3_0_0_0_0,NA,NA,completion,8360.466,2848531.7,2848519.206,2848535.414,2856895.88,2856896.8,2023-06-01T16:12:55Z,2856912.501,NULL,Lawine,banguko,d,NA,NA,NA,NA,sdf,NA,0,NA,NA,NA,NA,NA,NA,NA,NA,NA,NA,NA,NA,NA,NA,NA,NA,NA,NA,NA
a74cf,Deep Question,html.Page,3_0_0_0_1_0_0,NA,NA,form submission,4655.6990000475,2856896.8999999,2856895.88,2856912.501,2861568.2,2861568.3,2023-06-01T16:13:00Z,2861574.677,NULL,Konkurrent,mshindani,d,NA,NA,NA,k,NA,NA,0,NA,NA,NA,NA,NA,NA,NA,NA,NA,NA,NA,NA,NA,NA,NA,NA,NA,NA,NA
a74cf,"""Richtig""-Screen",canvas.Screen,3_0_0_0_1_0_1,NA,NA,skipped,NA,2861570.8999999,NA,NA,2861568.2,2861571,2023-06-01T16:13:00Z,2861574.677,NULL,Konkurrent,mshindani,d,NA,NA,NA,NA,sdf,NA,0,NA,NA,NA,NA,NA,NA,NA,NA,NA,NA,NA,NA,NA,NA,NA,NA,NA,NA,NA
a74cf,"""Falsch""-Screen",canvas.Screen,3_0_0_0_1_0_2,NA,NA,timeout,4996.4699999997,2861571.8999999,2861558.416,2861574.677,2866554.283,2866555.2,2023-06-01T16:13:05Z,2866571.147,NULL,Konkurrent,mshindani,d,NA,NA,NA,NA,sdf,0,0,NA,NA,NA,NA,NA,NA,NA,NA,NA,NA,NA,NA,NA,NA,NA,NA,NA,NA,NA
a74cf,deep,flow.Sequence,3_0_0_0_1_0,NA,NA,completion,9641.7819999997,2856896.8999999,2856895.88,2856912.501,2866554.283,2866555.5999999,2023-06-01T16:13:05Z,2866571.147,NULL,Konkurrent,mshindani,d,NA,NA,NA,NA,sdf,NA,0,NA,NA,NA,NA,NA,NA,NA,NA,NA,NA,NA,NA,NA,NA,NA,NA,NA,NA,NA
a74cf,shallow,flow.Sequence,3_0_0_0_1_1,NA,NA,skipped,NA,2866555.7,NA,NA,2866554.283,2866555.8999999,2023-06-01T16:13:05Z,2866571.147,NULL,Konkurrent,mshindani,d,NA,NA,NA,NA,sdf,NA,0,NA,NA,NA,NA,NA,NA,NA,NA,NA,NA,NA,NA,NA,NA,NA,NA,NA,NA,NA
a74cf,task,flow.Sequence,3_0_0_0_1,NA,NA,completion,9641.7819999997,2856896.8999999,2856895.88,2856912.501,2866554.283,2866556,2023-06-01T16:13:05Z,2866571.147,NULL,Konkurrent,mshindani,d,NA,NA,NA,NA,sdf,NA,0,NA,NA,NA,NA,NA,NA,NA,NA,NA,NA,NA,NA,NA,NA,NA,NA,NA,NA,NA
a74cf,Deep Question,html.Page,3_0_0_0_2_0_0,NA,NA,form submission,3185.8530000001,2866556.3,2866554.283,2866571.147,2869757,2869757.2,2023-06-01T16:13:08Z,2869768.352,NULL,Vorsorge,tahadhari,d,NA,NA,NA,o,NA,NA,0,NA,NA,NA,NA,NA,NA,NA,NA,NA,NA,NA,NA,NA,NA,NA,NA,NA,NA,NA
a74cf,"""Richtig""-Screen",canvas.Screen,3_0_0_0_2_0_1,NA,NA,skipped,NA,2869759.0999999,NA,NA,2869757,2869759.3,2023-06-01T16:13:08Z,2869768.352,NULL,Vorsorge,tahadhari,d,NA,NA,NA,NA,sdf,NA,0,NA,NA,NA,NA,NA,NA,NA,NA,NA,NA,NA,NA,NA,NA,NA,NA,NA,NA,NA
a74cf,"""Falsch""-Screen",canvas.Screen,3_0_0_0_2_0_2,NA,NA,timeout,4995.9199999999,2869759.8,2869751.524,2869768.352,2874747.506,2874748.7,2023-06-01T16:13:13Z,2874764.272,NULL,Vorsorge,tahadhari,d,NA,NA,NA,NA,sdf,0,0,NA,NA,NA,NA,NA,NA,NA,NA,NA,NA,NA,NA,NA,NA,NA,NA,NA,NA,NA
a74cf,deep,flow.Sequence,3_0_0_0_2_0,NA,NA,completion,8176.3590000002,2866556.3,2866554.283,2866571.147,2874747.506,2874749.0999999,2023-06-01T16:13:13Z,2874764.272,NULL,Vorsorge,tahadhari,d,NA,NA,NA,NA,sdf,NA,0,NA,NA,NA,NA,NA,NA,NA,NA,NA,NA,NA,NA,NA,NA,NA,NA,NA,NA,NA
a74cf,shallow,flow.Sequence,3_0_0_0_2_1,NA,NA,skipped,NA,2874749.0999999,NA,NA,2874747.506,2874749.3,2023-06-01T16:13:13Z,2874764.272,NULL,Vorsorge,tahadhari,d,NA,NA,NA,NA,sdf,NA,0,NA,NA,NA,NA,NA,NA,NA,NA,NA,NA,NA,NA,NA,NA,NA,NA,NA,NA,NA
a74cf,task,flow.Sequence,3_0_0_0_2,NA,NA,completion,8176.3590000002,2866556.2,2866554.283,2866571.147,2874747.506,2874749.5999999,2023-06-01T16:13:13Z,2874764.272,NULL,Vorsorge,tahadhari,d,NA,NA,NA,NA,sdf,NA,0,NA,NA,NA,NA,NA,NA,NA,NA,NA,NA,NA,NA,NA,NA,NA,NA,NA,NA,NA
a74cf,deep,flow.Sequence,3_0_0_0_3_0,NA,NA,skipped,NA,2874749.7,NA,NA,2874747.506,2874749.8999999,2023-06-01T16:13:13Z,2874764.272,NULL,Körper,kiwiliwili,s,mapambano,mpatanishi,kiolezo,NA,sdf,NA,0,NA,NA,NA,NA,NA,NA,NA,NA,NA,NA,NA,NA,NA,NA,NA,NA,NA,NA,NA
a74cf,Shallow Question,html.Page,3_0_0_0_3_1_0,NA,NA,form submission,10307.027999952,2874750.0999999,2874747.506,2874764.272,2885071.3,2885071.7,2023-06-01T16:13:23Z,2885072.134,NULL,Körper,kiwiliwili,s,mapambano,mpatanishi,kiolezo,kiolezo,NA,NA,0,NA,NA,NA,NA,NA,NA,NA,NA,NA,NA,NA,NA,NA,NA,NA,NA,NA,NA,NA
a74cf,"""Richtig""-Screen",canvas.Screen,3_0_0_0_3_1_1,NA,NA,skipped,NA,2885078.2,NA,NA,2885071.3,2885078.5999999,2023-06-01T16:13:23Z,2885072.134,NULL,Körper,kiwiliwili,s,mapambano,mpatanishi,kiolezo,NA,sdf,NA,0,NA,NA,NA,NA,NA,NA,NA,NA,NA,NA,NA,NA,NA,NA,NA,NA,NA,NA,NA
a74cf,"""Falsch""-Screen",canvas.Screen,3_0_0_0_3_1_2,NA,NA,timeout,4996.1129999999,2885080.2,2885055.504,2885072.134,2890051.813,2890052.8,2023-06-01T16:13:28Z,2890068.247,NULL,Körper,kiwiliwili,s,mapambano,mpatanishi,kiolezo,NA,sdf,0,0,NA,NA,NA,NA,NA,NA,NA,NA,NA,NA,NA,NA,NA,NA,NA,NA,NA,NA,NA
a74cf,shallow,flow.Sequence,3_0_0_0_3_1,NA,NA,completion,15287.541,2874750,2874747.506,2874764.272,2890051.813,2890053.2,2023-06-01T16:13:28Z,2890068.247,NULL,Körper,kiwiliwili,s,mapambano,mpatanishi,kiolezo,NA,sdf,NA,0,NA,NA,NA,NA,NA,NA,NA,NA,NA,NA,NA,NA,NA,NA,NA,NA,NA,NA,NA
a74cf,task,flow.Sequence,3_0_0_0_3,NA,NA,completion,15287.541,2874749.7,2874747.506,2874764.272,2890051.813,2890053.3999999,2023-06-01T16:13:28Z,2890068.247,NULL,Körper,kiwiliwili,s,mapambano,mpatanishi,kiolezo,NA,sdf,NA,0,NA,NA,NA,NA,NA,NA,NA,NA,NA,NA,NA,NA,NA,NA,NA,NA,NA,NA,NA
a74cf,deep,flow.Sequence,3_0_0_0_4_0,NA,NA,skipped,NA,2890053.5999999,NA,NA,2890051.813,2890053.7,2023-06-01T16:13:28Z,2890068.247,NULL,Symbol,kielezo,s,kinyume,nderemo,utayari,NA,sdf,NA,0,NA,NA,NA,NA,NA,NA,NA,NA,NA,NA,NA,NA,NA,NA,NA,NA,NA,NA,NA
a74cf,Shallow Question,html.Page,3_0_0_0_4_1_0,NA,NA,form submission,24202.052999952,2890053.8999999,2890051.813,2890068.247,2914270.3,2914270.7,2023-06-01T16:13:53Z,2914281.396,NULL,Symbol,kielezo,s,kinyume,nderemo,utayari,kinyume,NA,NA,0,NA,NA,NA,NA,NA,NA,NA,NA,NA,NA,NA,NA,NA,NA,NA,NA,NA,NA,NA
a74cf,"""Richtig""-Screen",canvas.Screen,3_0_0_0_4_1_1,NA,NA,skipped,NA,2914276,NA,NA,2914270.3,2914276.2,2023-06-01T16:13:53Z,2914281.396,NULL,Symbol,kielezo,s,kinyume,nderemo,utayari,NA,sdf,NA,0,NA,NA,NA,NA,NA,NA,NA,NA,NA,NA,NA,NA,NA,NA,NA,NA,NA,NA,NA
a74cf,"""Falsch""-Screen",canvas.Screen,3_0_0_0_4_1_2,NA,NA,timeout,4996.611,2914277.7,2914265.264,2914281.396,2919260.762,2919261.8,2023-06-01T16:13:58Z,2919278.007,NULL,Symbol,kielezo,s,kinyume,nderemo,utayari,NA,sdf,0,0,NA,NA,NA,NA,NA,NA,NA,NA,NA,NA,NA,NA,NA,NA,NA,NA,NA,NA,NA
a74cf,shallow,flow.Sequence,3_0_0_0_4_1,NA,NA,completion,29192.515,2890053.8999999,2890051.813,2890068.247,2919260.762,2919262.0999999,2023-06-01T16:13:58Z,2919278.007,NULL,Symbol,kielezo,s,kinyume,nderemo,utayari,NA,sdf,NA,0,NA,NA,NA,NA,NA,NA,NA,NA,NA,NA,NA,NA,NA,NA,NA,NA,NA,NA,NA
a74cf,task,flow.Sequence,3_0_0_0_4,NA,NA,completion,29192.515,2890053.5,2890051.813,2890068.247,2919260.762,2919262.3999999,2023-06-01T16:13:58Z,2919278.007,NULL,Symbol,kielezo,s,kinyume,nderemo,utayari,NA,sdf,NA,0,NA,NA,NA,NA,NA,NA,NA,NA,NA,NA,NA,NA,NA,NA,NA,NA,NA,NA,NA
a74cf,deep,flow.Sequence,3_0_0_0_5_0,NA,NA,skipped,NA,2919262.5,NA,NA,2919260.762,2919262.7,2023-06-01T16:13:58Z,2919278.007,NULL,Übersicht,kilindo,s,mgusano,chipukizi,kulinganisha,NA,sdf,NA,0,NA,NA,NA,NA,NA,NA,NA,NA,NA,NA,NA,NA,NA,NA,NA,NA,NA,NA,NA
a74cf,Shallow Question,html.Page,3_0_0_0_5_1_0,NA,NA,form submission,25322.292999952,2919262.8,2919260.762,2919278.007,2944600.3,2944600.5999999,2023-06-01T16:14:23Z,2944606.366,NULL,Übersicht,kilindo,s,mgusano,chipukizi,kulinganisha,kilindo,NA,NA,0,NA,NA,NA,NA,NA,NA,NA,NA,NA,NA,NA,NA,NA,NA,NA,NA,NA,NA,NA
a74cf,"""Richtig""-Screen",canvas.Screen,3_0_0_0_5_1_1,NA,NA,timeout,4996.0090000001,2944603.5999999,2944590.216,2944606.366,2949585.859,2949586.8,2023-06-01T16:14:28Z,2949602.375,NULL,Übersicht,kilindo,s,mgusano,chipukizi,kulinganisha,NA,sdf,1,0,NA,NA,NA,NA,NA,NA,NA,NA,NA,NA,NA,NA,NA,NA,NA,NA,NA,NA,NA
a74cf,"""Falsch""-Screen",canvas.Screen,3_0_0_0_5_1_2,NA,NA,skipped,NA,2949592.2,NA,NA,2949585.859,2949592.5,2023-06-01T16:14:28Z,2949602.375,NULL,Übersicht,kilindo,s,mgusano,chipukizi,kulinganisha,NA,sdf,NA,0,NA,NA,NA,NA,NA,NA,NA,NA,NA,NA,NA,NA,NA,NA,NA,NA,NA,NA,NA
a74cf,shallow,flow.Sequence,3_0_0_0_5_1,NA,NA,completion,30307.852,2919262.8,2919260.762,2919278.007,2949585.859,2949592.8,2023-06-01T16:14:28Z,2949602.375,NULL,Übersicht,kilindo,s,mgusano,chipukizi,kulinganisha,NA,sdf,NA,0,NA,NA,NA,NA,NA,NA,NA,NA,NA,NA,NA,NA,NA,NA,NA,NA,NA,NA,NA
a74cf,task,flow.Sequence,3_0_0_0_5,NA,NA,completion,30307.852,2919262.5,2919260.762,2919278.007,2949585.859,2949593.0999999,2023-06-01T16:14:28Z,2949602.375,NULL,Übersicht,kilindo,s,mgusano,chipukizi,kulinganisha,NA,sdf,NA,0,NA,NA,NA,NA,NA,NA,NA,NA,NA,NA,NA,NA,NA,NA,NA,NA,NA,NA,NA
a74cf,Deep Question,html.Page,3_0_0_0_6_0_0,NA,NA,form submission,3517.125,2949593.2,2949585.859,2949602.375,2953119.5,2953119.5999999,2023-06-01T16:14:31Z,2953133.429,NULL,System,maongozi,d,NA,NA,NA,z,NA,NA,0,NA,NA,NA,NA,NA,NA,NA,NA,NA,NA,NA,NA,NA,NA,NA,NA,NA,NA,NA
a74cf,"""Richtig""-Screen",canvas.Screen,3_0_0_0_6_0_1,NA,NA,skipped,NA,2953121.7,NA,NA,2953119.5,2953121.8,2023-06-01T16:14:31Z,2953133.429,NULL,System,maongozi,d,NA,NA,NA,NA,sdf,NA,0,NA,NA,NA,NA,NA,NA,NA,NA,NA,NA,NA,NA,NA,NA,NA,NA,NA,NA,NA
a74cf,"""Falsch""-Screen",canvas.Screen,3_0_0_0_6_0_2,NA,NA,timeout,4995.3859999999,2953122.7,2953116.475,2953133.429,2958112.001,2958113.8999999,2023-06-01T16:14:36Z,2958128.815,NULL,System,maongozi,d,NA,NA,NA,NA,sdf,0,0,NA,NA,NA,NA,NA,NA,NA,NA,NA,NA,NA,NA,NA,NA,NA,NA,NA,NA,NA
a74cf,deep,flow.Sequence,3_0_0_0_6_0,NA,NA,completion,8509.6260000002,2949593.2,2949585.859,2949602.375,2958112.001,2958114.3999999,2023-06-01T16:14:36Z,2958128.815,NULL,System,maongozi,d,NA,NA,NA,NA,sdf,NA,0,NA,NA,NA,NA,NA,NA,NA,NA,NA,NA,NA,NA,NA,NA,NA,NA,NA,NA,NA
a74cf,shallow,flow.Sequence,3_0_0_0_6_1,NA,NA,skipped,NA,2958114.5999999,NA,NA,2958112.001,2958114.8,2023-06-01T16:14:36Z,2958128.815,NULL,System,maongozi,d,NA,NA,NA,NA,sdf,NA,0,NA,NA,NA,NA,NA,NA,NA,NA,NA,NA,NA,NA,NA,NA,NA,NA,NA,NA,NA
a74cf,task,flow.Sequence,3_0_0_0_6,NA,NA,completion,8509.6260000002,2949593.0999999,2949585.859,2949602.375,2958112.001,2958115.0999999,2023-06-01T16:14:36Z,2958128.815,NULL,System,maongozi,d,NA,NA,NA,NA,sdf,NA,0,NA,NA,NA,NA,NA,NA,NA,NA,NA,NA,NA,NA,NA,NA,NA,NA,NA,NA,NA
a74cf,deep,flow.Sequence,3_0_0_0_7_0,NA,NA,skipped,NA,2958115.2,NA,NA,2958112.001,2958115.3,2023-06-01T16:14:36Z,2958128.815,NULL,Zuwachs,nyongeza,s,matilaba,udhibiti,hudhurio,NA,sdf,NA,0,NA,NA,NA,NA,NA,NA,NA,NA,NA,NA,NA,NA,NA,NA,NA,NA,NA,NA,NA
a74cf,Shallow Question,html.Page,3_0_0_0_7_1_0,NA,NA,form submission,15590.385000048,2958115.5,2958112.001,2958128.815,2973719.2,2973719.5,2023-06-01T16:14:52Z,2973732.366,NULL,Zuwachs,nyongeza,s,matilaba,udhibiti,hudhurio,hudhurio,NA,NA,0,NA,NA,NA,NA,NA,NA,NA,NA,NA,NA,NA,NA,NA,NA,NA,NA,NA,NA,NA
a74cf,"""Richtig""-Screen",canvas.Screen,3_0_0_0_7_1_1,NA,NA,skipped,NA,2973725.3,NA,NA,2973719.2,2973725.5999999,2023-06-01T16:14:52Z,2973732.366,NULL,Zuwachs,nyongeza,s,matilaba,udhibiti,hudhurio,NA,sdf,NA,0,NA,NA,NA,NA,NA,NA,NA,NA,NA,NA,NA,NA,NA,NA,NA,NA,NA,NA,NA
a74cf,"""Falsch""-Screen",canvas.Screen,3_0_0_0_7_1_2,NA,NA,timeout,4996.0419999999,2973727.3,2973716.082,2973732.366,2978712.239,2978713.2,2023-06-01T16:14:57Z,2978728.408,NULL,Zuwachs,nyongeza,s,matilaba,udhibiti,hudhurio,NA,sdf,0,0,NA,NA,NA,NA,NA,NA,NA,NA,NA,NA,NA,NA,NA,NA,NA,NA,NA,NA,NA
a74cf,shallow,flow.Sequence,3_0_0_0_7_1,NA,NA,completion,20583.424,2958115.5,2958112.001,2958128.815,2978712.239,2978713.5,2023-06-01T16:14:57Z,2978728.408,NULL,Zuwachs,nyongeza,s,matilaba,udhibiti,hudhurio,NA,sdf,NA,0,NA,NA,NA,NA,NA,NA,NA,NA,NA,NA,NA,NA,NA,NA,NA,NA,NA,NA,NA
a74cf,task,flow.Sequence,3_0_0_0_7,NA,NA,completion,20583.424,2958115.0999999,2958112.001,2958128.815,2978712.239,2978713.8,2023-06-01T16:14:57Z,2978728.408,NULL,Zuwachs,nyongeza,s,matilaba,udhibiti,hudhurio,NA,sdf,NA,0,NA,NA,NA,NA,NA,NA,NA,NA,NA,NA,NA,NA,NA,NA,NA,NA,NA,NA,NA
a74cf,block,flow.Loop,3_0_0_0,NA,NA,completion,130176.825,2848531.5999999,2848519.206,2848535.414,2978712.239,2978714.0999999,2023-06-01T16:14:57Z,2978728.408,NULL,NA,NA,NA,NA,NA,NA,NA,sdf,NA,0,NA,NA,NA,NA,NA,NA,NA,NA,NA,NA,NA,NA,NA,NA,NA,NA,NA,NA,NA
a74cf,weiter,canvas.Screen,3_0_0_1,sdf,keypress(Space),response,1029.9919998571,2978714.2,2978712.239,2978728.408,2979758.3999999,2979759.7,2023-06-01T16:14:58Z,2979777.387,NULL,NA,NA,NA,NA,NA,NA,NA,sdf,NA,0,NA,NA,NA,NA,NA,NA,NA,NA,NA,NA,NA,NA,NA,NA,NA,NA,NA,NA,NA
a74cf,check continue,flow.Sequence,3_0_0,NA,NA,completion,131222.98599986,2848531.5999999,2848519.206,2848535.414,2979758.3999999,2979760.0999999,2023-06-01T16:14:58Z,2979777.387,NULL,NA,NA,NA,NA,NA,NA,NA,sdf,NA,0,NA,NA,NA,NA,NA,NA,NA,NA,NA,NA,NA,NA,NA,NA,NA,NA,NA,NA,NA
a74cf,Deep Question,html.Page,3_0_1_0_0_0_0,NA,NA,form submission,14761.113,2979788,2979744.306,2979777.387,2994538.5,2994538.7,2023-06-01T16:15:13Z,2994548.664,NULL,System,maongozi,d,NA,NA,NA,t,NA,NA,1,NA,NA,NA,NA,NA,NA,NA,NA,NA,NA,NA,NA,NA,NA,NA,NA,NA,NA,NA
a74cf,"""Richtig""-Screen",canvas.Screen,3_0_1_0_0_0_1,NA,NA,skipped,NA,2994541.3999999,NA,NA,2994538.5,2994541.5999999,2023-06-01T16:15:13Z,2994548.664,NULL,System,maongozi,d,NA,NA,NA,NA,sdfdsf,NA,1,NA,NA,NA,NA,NA,NA,NA,NA,NA,NA,NA,NA,NA,NA,NA,NA,NA,NA,NA
a74cf,"""Falsch""-Screen",canvas.Screen,3_0_1_0_0_0_2,NA,NA,timeout,4996.5590000004,2994542.5,2994531.997,2994548.664,2999528.103,2999529.0999999,2023-06-01T16:15:18Z,2999545.223,NULL,System,maongozi,d,NA,NA,NA,NA,sdfdsf,0,1,NA,NA,NA,NA,NA,NA,NA,NA,NA,NA,NA,NA,NA,NA,NA,NA,NA,NA,NA
a74cf,deep,flow.Sequence,3_0_1_0_0_0,NA,NA,completion,19750.716,2979788,2979744.306,2979777.387,2999528.103,2999529.5,2023-06-01T16:15:18Z,2999545.223,NULL,System,maongozi,d,NA,NA,NA,NA,sdfdsf,NA,1,NA,NA,NA,NA,NA,NA,NA,NA,NA,NA,NA,NA,NA,NA,NA,NA,NA,NA,NA
a74cf,shallow,flow.Sequence,3_0_1_0_0_1,NA,NA,skipped,NA,2999529.8,NA,NA,2999528.103,2999529.8999999,2023-06-01T16:15:18Z,2999545.223,NULL,System,maongozi,d,NA,NA,NA,NA,sdfdsf,NA,1,NA,NA,NA,NA,NA,NA,NA,NA,NA,NA,NA,NA,NA,NA,NA,NA,NA,NA,NA
a74cf,task,flow.Sequence,3_0_1_0_0,NA,NA,completion,19750.716,2979788,2979744.306,2979777.387,2999528.103,2999530.2,2023-06-01T16:15:18Z,2999545.223,NULL,System,maongozi,d,NA,NA,NA,NA,sdfdsf,NA,1,NA,NA,NA,NA,NA,NA,NA,NA,NA,NA,NA,NA,NA,NA,NA,NA,NA,NA,NA
a74cf,deep,flow.Sequence,3_0_1_0_1_0,NA,NA,skipped,NA,2999530.3999999,NA,NA,2999528.103,2999530.5,2023-06-01T16:15:18Z,2999545.223,NULL,Körper,kiwiliwili,s,mapambano,mpatanishi,kiolezo,NA,sdfdsf,NA,1,NA,NA,NA,NA,NA,NA,NA,NA,NA,NA,NA,NA,NA,NA,NA,NA,NA,NA,NA
a74cf,Shallow Question,html.Page,3_0_1_0_1_1_0,NA,NA,form submission,5708.9770000475,2999530.7,2999528.103,2999545.223,3005254.2,3005254.5999999,2023-06-01T16:15:24Z,3005256.501,NULL,Körper,kiwiliwili,s,mapambano,mpatanishi,kiolezo,kiwiliwili,NA,NA,1,NA,NA,NA,NA,NA,NA,NA,NA,NA,NA,NA,NA,NA,NA,NA,NA,NA,NA,NA
a74cf,"""Richtig""-Screen",canvas.Screen,3_0_1_0_1_1_1,NA,NA,timeout,4996.5689999997,3005260.5,3005240.326,3005256.501,3010236.226,3010237.2,2023-06-01T16:15:29Z,3010253.07,NULL,Körper,kiwiliwili,s,mapambano,mpatanishi,kiolezo,NA,sdfdsf,1,1,NA,NA,NA,NA,NA,NA,NA,NA,NA,NA,NA,NA,NA,NA,NA,NA,NA,NA,NA
a74cf,"""Falsch""-Screen",canvas.Screen,3_0_1_0_1_1_2,NA,NA,skipped,NA,3010241.8,NA,NA,3010236.226,3010241.8,2023-06-01T16:15:29Z,3010253.07,NULL,Körper,kiwiliwili,s,mapambano,mpatanishi,kiolezo,NA,sdfdsf,NA,1,NA,NA,NA,NA,NA,NA,NA,NA,NA,NA,NA,NA,NA,NA,NA,NA,NA,NA,NA
a74cf,shallow,flow.Sequence,3_0_1_0_1_1,NA,NA,completion,10691.003,2999530.5999999,2999528.103,2999545.223,3010236.226,3010241.8999999,2023-06-01T16:15:29Z,3010253.07,NULL,Körper,kiwiliwili,s,mapambano,mpatanishi,kiolezo,NA,sdfdsf,NA,1,NA,NA,NA,NA,NA,NA,NA,NA,NA,NA,NA,NA,NA,NA,NA,NA,NA,NA,NA
a74cf,task,flow.Sequence,3_0_1_0_1,NA,NA,completion,10691.003,2999530.3,2999528.103,2999545.223,3010236.226,3010241.8999999,2023-06-01T16:15:29Z,3010253.07,NULL,Körper,kiwiliwili,s,mapambano,mpatanishi,kiolezo,NA,sdfdsf,NA,1,NA,NA,NA,NA,NA,NA,NA,NA,NA,NA,NA,NA,NA,NA,NA,NA,NA,NA,NA
a74cf,Deep Question,html.Page,3_0_1_0_2_0_0,NA,NA,form submission,4424.2299999525,3010242,3010236.226,3010253.07,3014677.3,3014677.5,2023-06-01T16:15:33Z,3014681.99,NULL,Konkurrent,mshindani,d,NA,NA,NA,g,NA,NA,1,NA,NA,NA,NA,NA,NA,NA,NA,NA,NA,NA,NA,NA,NA,NA,NA,NA,NA,NA
a74cf,"""Richtig""-Screen",canvas.Screen,3_0_1_0_2_0_1,NA,NA,skipped,NA,3014679.8,NA,NA,3014677.3,3014680,2023-06-01T16:15:33Z,3014681.99,NULL,Konkurrent,mshindani,d,NA,NA,NA,NA,sdfdsf,NA,1,NA,NA,NA,NA,NA,NA,NA,NA,NA,NA,NA,NA,NA,NA,NA,NA,NA,NA,NA
a74cf,"""Falsch""-Screen",canvas.Screen,3_0_1_0_2_0_2,NA,NA,timeout,4995.9319999996,3014680.8,3014666.027,3014681.99,3019661.964,3019662.3,2023-06-01T16:15:38Z,3019677.922,NULL,Konkurrent,mshindani,d,NA,NA,NA,NA,sdfdsf,0,1,NA,NA,NA,NA,NA,NA,NA,NA,NA,NA,NA,NA,NA,NA,NA,NA,NA,NA,NA
a74cf,deep,flow.Sequence,3_0_1_0_2_0,NA,NA,completion,9408.8940000003,3010242,3010236.226,3010253.07,3019661.964,3019662.5,2023-06-01T16:15:38Z,3019677.922,NULL,Konkurrent,mshindani,d,NA,NA,NA,NA,sdfdsf,NA,1,NA,NA,NA,NA,NA,NA,NA,NA,NA,NA,NA,NA,NA,NA,NA,NA,NA,NA,NA
a74cf,shallow,flow.Sequence,3_0_1_0_2_1,NA,NA,skipped,NA,3019662.5,NA,NA,3019661.964,3019662.5999999,2023-06-01T16:15:38Z,3019677.922,NULL,Konkurrent,mshindani,d,NA,NA,NA,NA,sdfdsf,NA,1,NA,NA,NA,NA,NA,NA,NA,NA,NA,NA,NA,NA,NA,NA,NA,NA,NA,NA,NA
a74cf,task,flow.Sequence,3_0_1_0_2,NA,NA,completion,9408.8940000003,3010242,3010236.226,3010253.07,3019661.964,3019662.8,2023-06-01T16:15:38Z,3019677.922,NULL,Konkurrent,mshindani,d,NA,NA,NA,NA,sdfdsf,NA,1,NA,NA,NA,NA,NA,NA,NA,NA,NA,NA,NA,NA,NA,NA,NA,NA,NA,NA,NA
a74cf,deep,flow.Sequence,3_0_1_0_3_0,NA,NA,skipped,NA,3019662.8,NA,NA,3019661.964,3019662.8999999,2023-06-01T16:15:38Z,3019677.922,NULL,Übersicht,kilindo,s,mgusano,chipukizi,kulinganisha,NA,sdfdsf,NA,1,NA,NA,NA,NA,NA,NA,NA,NA,NA,NA,NA,NA,NA,NA,NA,NA,NA,NA,NA
a74cf,Shallow Question,html.Page,3_0_1_0_3_1_0,NA,NA,form submission,12683.977999857,3019662.8999999,3019661.964,3019677.922,3032361.8999999,3032362.5,2023-06-01T16:15:51Z,3032367.516,NULL,Übersicht,kilindo,s,mgusano,chipukizi,kulinganisha,kulinganisha,NA,NA,1,NA,NA,NA,NA,NA,NA,NA,NA,NA,NA,NA,NA,NA,NA,NA,NA,NA,NA,NA
a74cf,"""Richtig""-Screen",canvas.Screen,3_0_1_0_3_1_1,NA,NA,skipped,NA,3032368.3999999,NA,NA,3032361.8999999,3032368.8999999,2023-06-01T16:15:51Z,3032367.516,NULL,Übersicht,kilindo,s,mgusano,chipukizi,kulinganisha,NA,sdfdsf,NA,1,NA,NA,NA,NA,NA,NA,NA,NA,NA,NA,NA,NA,NA,NA,NA,NA,NA,NA,NA
a74cf,"""Falsch""-Screen",canvas.Screen,3_0_1_0_3_1_2,NA,NA,timeout,4996.5520000001,3032370.5999999,3032350.941,3032367.516,3037347.25,3037348.0999999,2023-06-01T16:15:56Z,3037364.068,NULL,Übersicht,kilindo,s,mgusano,chipukizi,kulinganisha,NA,sdfdsf,0,1,NA,NA,NA,NA,NA,NA,NA,NA,NA,NA,NA,NA,NA,NA,NA,NA,NA,NA,NA
a74cf,shallow,flow.Sequence,3_0_1_0_3_1,NA,NA,completion,17669.328,3019662.8999999,3019661.964,3019677.922,3037347.25,3037348.5999999,2023-06-01T16:15:56Z,3037364.068,NULL,Übersicht,kilindo,s,mgusano,chipukizi,kulinganisha,NA,sdfdsf,NA,1,NA,NA,NA,NA,NA,NA,NA,NA,NA,NA,NA,NA,NA,NA,NA,NA,NA,NA,NA
a74cf,task,flow.Sequence,3_0_1_0_3,NA,NA,completion,17669.328,3019662.8,3019661.964,3019677.922,3037347.25,3037348.8999999,2023-06-01T16:15:56Z,3037364.068,NULL,Übersicht,kilindo,s,mgusano,chipukizi,kulinganisha,NA,sdfdsf,NA,1,NA,NA,NA,NA,NA,NA,NA,NA,NA,NA,NA,NA,NA,NA,NA,NA,NA,NA,NA
a74cf,deep,flow.Sequence,3_0_1_0_4_0,NA,NA,skipped,NA,3037349.2,NA,NA,3037347.25,3037349.3,2023-06-01T16:15:56Z,3037364.068,NULL,Symbol,kielezo,s,kinyume,nderemo,utayari,NA,sdfdsf,NA,1,NA,NA,NA,NA,NA,NA,NA,NA,NA,NA,NA,NA,NA,NA,NA,NA,NA,NA,NA
a74cf,Shallow Question,html.Page,3_0_1_0_4_1_0,NA,NA,form submission,8486.331999857,3037349.5,3037347.25,3037364.068,3045850.3999999,3045850.8999999,2023-06-01T16:16:04Z,3045856.397,NULL,Symbol,kielezo,s,kinyume,nderemo,utayari,kinyume,NA,NA,1,NA,NA,NA,NA,NA,NA,NA,NA,NA,NA,NA,NA,NA,NA,NA,NA,NA,NA,NA
a74cf,"""Richtig""-Screen",canvas.Screen,3_0_1_0_4_1_1,NA,NA,skipped,NA,3045856.0999999,NA,NA,3045850.3999999,3045856.5999999,2023-06-01T16:16:04Z,3045856.397,NULL,Symbol,kielezo,s,kinyume,nderemo,utayari,NA,sdfdsf,NA,1,NA,NA,NA,NA,NA,NA,NA,NA,NA,NA,NA,NA,NA,NA,NA,NA,NA,NA,NA
a74cf,"""Falsch""-Screen",canvas.Screen,3_0_1_0_4_1_2,NA,NA,timeout,4995.9140000003,3045858.8,3045840.275,3045856.397,3050836.15,3050837,2023-06-01T16:16:09Z,3050852.311,NULL,Symbol,kielezo,s,kinyume,nderemo,utayari,NA,sdfdsf,0,1,NA,NA,NA,NA,NA,NA,NA,NA,NA,NA,NA,NA,NA,NA,NA,NA,NA,NA,NA
a74cf,shallow,flow.Sequence,3_0_1_0_4_1,NA,NA,completion,13472.082,3037349.3999999,3037347.25,3037364.068,3050836.15,3050837.3999999,2023-06-01T16:16:09Z,3050852.311,NULL,Symbol,kielezo,s,kinyume,nderemo,utayari,NA,sdfdsf,NA,1,NA,NA,NA,NA,NA,NA,NA,NA,NA,NA,NA,NA,NA,NA,NA,NA,NA,NA,NA
a74cf,task,flow.Sequence,3_0_1_0_4,NA,NA,completion,13472.082,3037349.0999999,3037347.25,3037364.068,3050836.15,3050837.7,2023-06-01T16:16:09Z,3050852.311,NULL,Symbol,kielezo,s,kinyume,nderemo,utayari,NA,sdfdsf,NA,1,NA,NA,NA,NA,NA,NA,NA,NA,NA,NA,NA,NA,NA,NA,NA,NA,NA,NA,NA
a74cf,Deep Question,html.Page,3_0_1_0_5_0_0,NA,NA,form submission,5079.3890000475,3050837.8999999,3050836.15,3050852.311,3055931.7,3055931.8,2023-06-01T16:16:14Z,3055948.108,NULL,Lawine,banguko,d,NA,NA,NA,h,NA,NA,1,NA,NA,NA,NA,NA,NA,NA,NA,NA,NA,NA,NA,NA,NA,NA,NA,NA,NA,NA
a74cf,"""Richtig""-Screen",canvas.Screen,3_0_1_0_5_0_1,NA,NA,skipped,NA,3055934.3,NA,NA,3055931.7,3055934.5,2023-06-01T16:16:14Z,3055948.108,NULL,Lawine,banguko,d,NA,NA,NA,NA,sdfdsf,NA,1,NA,NA,NA,NA,NA,NA,NA,NA,NA,NA,NA,NA,NA,NA,NA,NA,NA,NA,NA
a74cf,"""Falsch""-Screen",canvas.Screen,3_0_1_0_5_0_2,NA,NA,timeout,4996.409,3055935.3,3055931.406,3055948.108,3060927.856,3060928.8,2023-06-01T16:16:19Z,3060944.517,NULL,Lawine,banguko,d,NA,NA,NA,NA,sdfdsf,0,1,NA,NA,NA,NA,NA,NA,NA,NA,NA,NA,NA,NA,NA,NA,NA,NA,NA,NA,NA
a74cf,deep,flow.Sequence,3_0_1_0_5_0,NA,NA,completion,10075.545,3050837.8,3050836.15,3050852.311,3060927.856,3060929.3,2023-06-01T16:16:19Z,3060944.517,NULL,Lawine,banguko,d,NA,NA,NA,NA,sdfdsf,NA,1,NA,NA,NA,NA,NA,NA,NA,NA,NA,NA,NA,NA,NA,NA,NA,NA,NA,NA,NA
a74cf,shallow,flow.Sequence,3_0_1_0_5_1,NA,NA,skipped,NA,3060929.3999999,NA,NA,3060927.856,3060929.5999999,2023-06-01T16:16:19Z,3060944.517,NULL,Lawine,banguko,d,NA,NA,NA,NA,sdfdsf,NA,1,NA,NA,NA,NA,NA,NA,NA,NA,NA,NA,NA,NA,NA,NA,NA,NA,NA,NA,NA
a74cf,task,flow.Sequence,3_0_1_0_5,NA,NA,completion,10075.545,3050837.8,3050836.15,3050852.311,3060927.856,3060929.8999999,2023-06-01T16:16:19Z,3060944.517,NULL,Lawine,banguko,d,NA,NA,NA,NA,sdfdsf,NA,1,NA,NA,NA,NA,NA,NA,NA,NA,NA,NA,NA,NA,NA,NA,NA,NA,NA,NA,NA
a74cf,deep,flow.Sequence,3_0_1_0_6_0,NA,NA,skipped,NA,3060930,NA,NA,3060927.856,3060930.2,2023-06-01T16:16:19Z,3060944.517,NULL,Zuwachs,nyongeza,s,matilaba,udhibiti,hudhurio,NA,sdfdsf,NA,1,NA,NA,NA,NA,NA,NA,NA,NA,NA,NA,NA,NA,NA,NA,NA,NA,NA,NA,NA
a74cf,Shallow Question,html.Page,3_0_1_0_6_1_0,NA,NA,form submission,9719.7829999523,3060930.2,3060927.856,3060944.517,3070664.3,3070664.3999999,2023-06-01T16:16:29Z,3070669.314,NULL,Zuwachs,nyongeza,s,matilaba,udhibiti,hudhurio,udhibiti,NA,NA,1,NA,NA,NA,NA,NA,NA,NA,NA,NA,NA,NA,NA,NA,NA,NA,NA,NA,NA,NA
a74cf,"""Richtig""-Screen",canvas.Screen,3_0_1_0_6_1_1,NA,NA,skipped,NA,3070666.3,NA,NA,3070664.3,3070666.3999999,2023-06-01T16:16:29Z,3070669.314,NULL,Zuwachs,nyongeza,s,matilaba,udhibiti,hudhurio,NA,sdfdsf,NA,1,NA,NA,NA,NA,NA,NA,NA,NA,NA,NA,NA,NA,NA,NA,NA,NA,NA,NA,NA
a74cf,"""Falsch""-Screen",canvas.Screen,3_0_1_0_6_1_2,NA,NA,timeout,4996.375,3070667,3070653.189,3070669.314,3075648.604,3075649.5999999,2023-06-01T16:16:34Z,3075665.689,NULL,Zuwachs,nyongeza,s,matilaba,udhibiti,hudhurio,NA,sdfdsf,0,1,NA,NA,NA,NA,NA,NA,NA,NA,NA,NA,NA,NA,NA,NA,NA,NA,NA,NA,NA
a74cf,shallow,flow.Sequence,3_0_1_0_6_1,NA,NA,completion,14704.087,3060930.2,3060927.856,3060944.517,3075648.604,3075650,2023-06-01T16:16:34Z,3075665.689,NULL,Zuwachs,nyongeza,s,matilaba,udhibiti,hudhurio,NA,sdfdsf,NA,1,NA,NA,NA,NA,NA,NA,NA,NA,NA,NA,NA,NA,NA,NA,NA,NA,NA,NA,NA
a74cf,task,flow.Sequence,3_0_1_0_6,NA,NA,completion,14704.087,3060929.8999999,3060927.856,3060944.517,3075648.604,3075650.2,2023-06-01T16:16:34Z,3075665.689,NULL,Zuwachs,nyongeza,s,matilaba,udhibiti,hudhurio,NA,sdfdsf,NA,1,NA,NA,NA,NA,NA,NA,NA,NA,NA,NA,NA,NA,NA,NA,NA,NA,NA,NA,NA
a74cf,Deep Question,html.Page,3_0_1_0_7_0_0,NA,NA,form submission,3437.3110000002,3075650.5,3075648.604,3075665.689,3079103,3079103.0999999,2023-06-01T16:16:37Z,3079112.547,NULL,Vorsorge,tahadhari,d,NA,NA,NA,j,NA,NA,1,NA,NA,NA,NA,NA,NA,NA,NA,NA,NA,NA,NA,NA,NA,NA,NA,NA,NA,NA
a74cf,"""Richtig""-Screen",canvas.Screen,3_0_1_0_7_0_1,NA,NA,skipped,NA,3079104.8999999,NA,NA,3079103,3079105,2023-06-01T16:16:37Z,3079112.547,NULL,Vorsorge,tahadhari,d,NA,NA,NA,NA,sdfdsf,NA,1,NA,NA,NA,NA,NA,NA,NA,NA,NA,NA,NA,NA,NA,NA,NA,NA,NA,NA,NA
a74cf,"""Falsch""-Screen",canvas.Screen,3_0_1_0_7_0_2,NA,NA,timeout,4995.8790000002,3079105.7,3079096.238,3079112.547,3084092.088,3084092.8999999,2023-06-01T16:16:42Z,3084108.426,NULL,Vorsorge,tahadhari,d,NA,NA,NA,NA,sdfdsf,0,1,NA,NA,NA,NA,NA,NA,NA,NA,NA,NA,NA,NA,NA,NA,NA,NA,NA,NA,NA
a74cf,deep,flow.Sequence,3_0_1_0_7_0,NA,NA,completion,8426.3990000002,3075650.5,3075648.604,3075665.689,3084092.088,3084093.3999999,2023-06-01T16:16:42Z,3084108.426,NULL,Vorsorge,tahadhari,d,NA,NA,NA,NA,sdfdsf,NA,1,NA,NA,NA,NA,NA,NA,NA,NA,NA,NA,NA,NA,NA,NA,NA,NA,NA,NA,NA
a74cf,shallow,flow.Sequence,3_0_1_0_7_1,NA,NA,skipped,NA,3084093.5,NA,NA,3084092.088,3084093.7,2023-06-01T16:16:42Z,3084108.426,NULL,Vorsorge,tahadhari,d,NA,NA,NA,NA,sdfdsf,NA,1,NA,NA,NA,NA,NA,NA,NA,NA,NA,NA,NA,NA,NA,NA,NA,NA,NA,NA,NA
a74cf,task,flow.Sequence,3_0_1_0_7,NA,NA,completion,8426.3990000002,3075650.3999999,3075648.604,3075665.689,3084092.088,3084093.8999999,2023-06-01T16:16:42Z,3084108.426,NULL,Vorsorge,tahadhari,d,NA,NA,NA,NA,sdfdsf,NA,1,NA,NA,NA,NA,NA,NA,NA,NA,NA,NA,NA,NA,NA,NA,NA,NA,NA,NA,NA
a74cf,block,flow.Loop,3_0_1_0,NA,NA,completion,104314.701,2979788,2979744.306,2979777.387,3084092.088,3084094.2,2023-06-01T16:16:42Z,3084108.426,NULL,NA,NA,NA,NA,NA,NA,NA,sdfdsf,NA,1,NA,NA,NA,NA,NA,NA,NA,NA,NA,NA,NA,NA,NA,NA,NA,NA,NA,NA,NA
a74cf,weiter,canvas.Screen,3_0_1_1,sdf,keypress(Space),response,829.47399985697,3084094.3,3084092.088,3084108.426,3084937.8999999,3084939,2023-06-01T16:16:43Z,3084974.111,NULL,NA,NA,NA,NA,NA,NA,NA,sdfdsf,NA,1,NA,NA,NA,NA,NA,NA,NA,NA,NA,NA,NA,NA,NA,NA,NA,NA,NA,NA,NA
a74cf,check continue,flow.Sequence,3_0_1,NA,NA,completion,105160.51299986,2979787.8999999,2979744.306,2979777.387,3084937.8999999,3084939.3,2023-06-01T16:16:43Z,3084974.111,NULL,NA,NA,NA,NA,NA,NA,NA,sdfdsf,NA,1,NA,NA,NA,NA,NA,NA,NA,NA,NA,NA,NA,NA,NA,NA,NA,NA,NA,NA,NA
a74cf,Deep Question,html.Page,3_0_2_0_0_0_0,NA,NA,form submission,2737.9889999046,3084971.5,3084958.038,3084974.111,3087712.0999999,3087712.3999999,2023-06-01T16:16:46Z,3087721.886,NULL,Konkurrent,mshindani,d,NA,NA,NA,j,NA,NA,2,NA,NA,NA,NA,NA,NA,NA,NA,NA,NA,NA,NA,NA,NA,NA,NA,NA,NA,NA
a74cf,"""Richtig""-Screen",canvas.Screen,3_0_2_0_0_0_1,NA,NA,skipped,NA,3087714.3999999,NA,NA,3087712.0999999,3087714.5,2023-06-01T16:16:46Z,3087721.886,NULL,Konkurrent,mshindani,d,NA,NA,NA,NA,sdf,NA,2,NA,NA,NA,NA,NA,NA,NA,NA,NA,NA,NA,NA,NA,NA,NA,NA,NA,NA,NA
a74cf,"""Falsch""-Screen",canvas.Screen,3_0_2_0_0_0_2,NA,NA,timeout,4995.9300000002,3087715.0999999,3087705.833,3087721.886,3092701.659,3092702.5999999,2023-06-01T16:16:51Z,3092717.816,NULL,Konkurrent,mshindani,d,NA,NA,NA,NA,sdf,0,2,NA,NA,NA,NA,NA,NA,NA,NA,NA,NA,NA,NA,NA,NA,NA,NA,NA,NA,NA
a74cf,deep,flow.Sequence,3_0_2_0_0_0,NA,NA,completion,7727.548,3084971.5,3084958.038,3084974.111,3092701.659,3092703.0999999,2023-06-01T16:16:51Z,3092717.816,NULL,Konkurrent,mshindani,d,NA,NA,NA,NA,sdf,NA,2,NA,NA,NA,NA,NA,NA,NA,NA,NA,NA,NA,NA,NA,NA,NA,NA,NA,NA,NA
a74cf,shallow,flow.Sequence,3_0_2_0_0_1,NA,NA,skipped,NA,3092703.3,NA,NA,3092701.659,3092703.3999999,2023-06-01T16:16:51Z,3092717.816,NULL,Konkurrent,mshindani,d,NA,NA,NA,NA,sdf,NA,2,NA,NA,NA,NA,NA,NA,NA,NA,NA,NA,NA,NA,NA,NA,NA,NA,NA,NA,NA
a74cf,task,flow.Sequence,3_0_2_0_0,NA,NA,completion,7727.548,3084971.5,3084958.038,3084974.111,3092701.659,3092703.7,2023-06-01T16:16:51Z,3092717.816,NULL,Konkurrent,mshindani,d,NA,NA,NA,NA,sdf,NA,2,NA,NA,NA,NA,NA,NA,NA,NA,NA,NA,NA,NA,NA,NA,NA,NA,NA,NA,NA
a74cf,Deep Question,html.Page,3_0_2_0_1_0_0,NA,NA,form submission,2903.6839999999,3092704,3092701.659,3092717.816,3095621.5,3095621.7,2023-06-01T16:16:54Z,3095632.221,NULL,Vorsorge,tahadhari,d,NA,NA,NA,j,NA,NA,2,NA,NA,NA,NA,NA,NA,NA,NA,NA,NA,NA,NA,NA,NA,NA,NA,NA,NA,NA
a74cf,"""Richtig""-Screen",canvas.Screen,3_0_2_0_1_0_1,NA,NA,skipped,NA,3095624.3999999,NA,NA,3095621.5,3095624.5,2023-06-01T16:16:54Z,3095632.221,NULL,Vorsorge,tahadhari,d,NA,NA,NA,NA,sdf,NA,2,NA,NA,NA,NA,NA,NA,NA,NA,NA,NA,NA,NA,NA,NA,NA,NA,NA,NA,NA
a74cf,"""Falsch""-Screen",canvas.Screen,3_0_2_0_1_0_2,NA,NA,timeout,4996.1490000002,3095625.3999999,3095615.731,3095632.221,3100611.322,3100612.8999999,2023-06-01T16:16:59Z,3100628.37,NULL,Vorsorge,tahadhari,d,NA,NA,NA,NA,sdf,0,2,NA,NA,NA,NA,NA,NA,NA,NA,NA,NA,NA,NA,NA,NA,NA,NA,NA,NA,NA
a74cf,deep,flow.Sequence,3_0_2_0_1_0,NA,NA,completion,7893.5060000001,3092703.8999999,3092701.659,3092717.816,3100611.322,3100613.3,2023-06-01T16:16:59Z,3100628.37,NULL,Vorsorge,tahadhari,d,NA,NA,NA,NA,sdf,NA,2,NA,NA,NA,NA,NA,NA,NA,NA,NA,NA,NA,NA,NA,NA,NA,NA,NA,NA,NA
a74cf,shallow,flow.Sequence,3_0_2_0_1_1,NA,NA,skipped,NA,3100613.5,NA,NA,3100611.322,3100613.5999999,2023-06-01T16:16:59Z,3100628.37,NULL,Vorsorge,tahadhari,d,NA,NA,NA,NA,sdf,NA,2,NA,NA,NA,NA,NA,NA,NA,NA,NA,NA,NA,NA,NA,NA,NA,NA,NA,NA,NA
a74cf,task,flow.Sequence,3_0_2_0_1,NA,NA,completion,7893.5060000001,3092703.8,3092701.659,3092717.816,3100611.322,3100613.8999999,2023-06-01T16:16:59Z,3100628.37,NULL,Vorsorge,tahadhari,d,NA,NA,NA,NA,sdf,NA,2,NA,NA,NA,NA,NA,NA,NA,NA,NA,NA,NA,NA,NA,NA,NA,NA,NA,NA,NA
a74cf,deep,flow.Sequence,3_0_2_0_2_0,NA,NA,skipped,NA,3100614,NA,NA,3100611.322,3100614.2,2023-06-01T16:16:59Z,3100628.37,NULL,Körper,kiwiliwili,s,mapambano,mpatanishi,kiolezo,NA,sdf,NA,2,NA,NA,NA,NA,NA,NA,NA,NA,NA,NA,NA,NA,NA,NA,NA,NA,NA,NA,NA
a74cf,Shallow Question,html.Page,3_0_2_0_2_1_0,NA,NA,form submission,4367.1299999999,3100614.3999999,3100611.322,3100628.37,3104995.5,3104995.7,2023-06-01T16:17:03Z,3105007.967,NULL,Körper,kiwiliwili,s,mapambano,mpatanishi,kiolezo,kiwiliwili,NA,NA,2,NA,NA,NA,NA,NA,NA,NA,NA,NA,NA,NA,NA,NA,NA,NA,NA,NA,NA,NA
a74cf,"""Richtig""-Screen",canvas.Screen,3_0_2_0_2_1_1,NA,NA,timeout,4995.6859999998,3104997.5,3104991.628,3105007.967,3109987.426,3109988.3999999,2023-06-01T16:17:08Z,3110003.653,NULL,Körper,kiwiliwili,s,mapambano,mpatanishi,kiolezo,NA,sdf,1,2,NA,NA,NA,NA,NA,NA,NA,NA,NA,NA,NA,NA,NA,NA,NA,NA,NA,NA,NA
a74cf,"""Falsch""-Screen",canvas.Screen,3_0_2_0_2_1_2,NA,NA,skipped,NA,3109993.8999999,NA,NA,3109987.426,3109994.2,2023-06-01T16:17:08Z,3110003.653,NULL,Körper,kiwiliwili,s,mapambano,mpatanishi,kiolezo,NA,sdf,NA,2,NA,NA,NA,NA,NA,NA,NA,NA,NA,NA,NA,NA,NA,NA,NA,NA,NA,NA,NA
a74cf,shallow,flow.Sequence,3_0_2_0_2_1,NA,NA,completion,9359.0559999999,3100614.3,3100611.322,3100628.37,3109987.426,3109994.5,2023-06-01T16:17:08Z,3110003.653,NULL,Körper,kiwiliwili,s,mapambano,mpatanishi,kiolezo,NA,sdf,NA,2,NA,NA,NA,NA,NA,NA,NA,NA,NA,NA,NA,NA,NA,NA,NA,NA,NA,NA,NA
a74cf,task,flow.Sequence,3_0_2_0_2,NA,NA,completion,9359.0559999999,3100614,3100611.322,3100628.37,3109987.426,3109994.8,2023-06-01T16:17:08Z,3110003.653,NULL,Körper,kiwiliwili,s,mapambano,mpatanishi,kiolezo,NA,sdf,NA,2,NA,NA,NA,NA,NA,NA,NA,NA,NA,NA,NA,NA,NA,NA,NA,NA,NA,NA,NA
a74cf,Deep Question,html.Page,3_0_2_0_3_0_0,NA,NA,form submission,5943.746999857,3109995,3109987.426,3110003.653,3115947.3999999,3115947.5999999,2023-06-01T16:17:14Z,3115948.616,NULL,System,maongozi,d,NA,NA,NA,zie,NA,NA,2,NA,NA,NA,NA,NA,NA,NA,NA,NA,NA,NA,NA,NA,NA,NA,NA,NA,NA,NA
a74cf,"""Richtig""-Screen",canvas.Screen,3_0_2_0_3_0_1,NA,NA,skipped,NA,3115949.5,NA,NA,3115947.3999999,3115949.5999999,2023-06-01T16:17:14Z,3115948.616,NULL,System,maongozi,d,NA,NA,NA,NA,sdf,NA,2,NA,NA,NA,NA,NA,NA,NA,NA,NA,NA,NA,NA,NA,NA,NA,NA,NA,NA,NA
a74cf,"""Falsch""-Screen",canvas.Screen,3_0_2_0_3_0_2,NA,NA,timeout,4996.6189999999,3115950.8,3115932.341,3115948.616,3120928.186,3120929.8999999,2023-06-01T16:17:19Z,3120945.235,NULL,System,maongozi,d,NA,NA,NA,NA,sdf,0,2,NA,NA,NA,NA,NA,NA,NA,NA,NA,NA,NA,NA,NA,NA,NA,NA,NA,NA,NA
a74cf,deep,flow.Sequence,3_0_2_0_3_0,NA,NA,completion,10924.533,3109995,3109987.426,3110003.653,3120928.186,3120930,2023-06-01T16:17:19Z,3120945.235,NULL,System,maongozi,d,NA,NA,NA,NA,sdf,NA,2,NA,NA,NA,NA,NA,NA,NA,NA,NA,NA,NA,NA,NA,NA,NA,NA,NA,NA,NA
a74cf,shallow,flow.Sequence,3_0_2_0_3_1,NA,NA,skipped,NA,3120930.0999999,NA,NA,3120928.186,3120930.0999999,2023-06-01T16:17:19Z,3120945.235,NULL,System,maongozi,d,NA,NA,NA,NA,sdf,NA,2,NA,NA,NA,NA,NA,NA,NA,NA,NA,NA,NA,NA,NA,NA,NA,NA,NA,NA,NA
a74cf,task,flow.Sequence,3_0_2_0_3,NA,NA,completion,10924.533,3109994.8999999,3109987.426,3110003.653,3120928.186,3120930.2,2023-06-01T16:17:19Z,3120945.235,NULL,System,maongozi,d,NA,NA,NA,NA,sdf,NA,2,NA,NA,NA,NA,NA,NA,NA,NA,NA,NA,NA,NA,NA,NA,NA,NA,NA,NA,NA
a74cf,deep,flow.Sequence,3_0_2_0_4_0,NA,NA,skipped,NA,3120930.3,NA,NA,3120928.186,3120930.3999999,2023-06-01T16:17:19Z,3120945.235,NULL,Zuwachs,nyongeza,s,matilaba,udhibiti,hudhurio,NA,sdf,NA,2,NA,NA,NA,NA,NA,NA,NA,NA,NA,NA,NA,NA,NA,NA,NA,NA,NA,NA,NA
a74cf,Shallow Question,html.Page,3_0_2_0_4_1_0,NA,NA,form submission,5916.0649999524,3120930.3999999,3120928.186,3120945.235,3126861.3,3126861.7,2023-06-01T16:17:25Z,3126873.09,NULL,Zuwachs,nyongeza,s,matilaba,udhibiti,hudhurio,nyongeza,NA,NA,2,NA,NA,NA,NA,NA,NA,NA,NA,NA,NA,NA,NA,NA,NA,NA,NA,NA,NA,NA
a74cf,"""Richtig""-Screen",canvas.Screen,3_0_2_0_4_1_1,NA,NA,timeout,4996.236,3126866.8,3126856.911,3126873.09,3131852.657,3131853.5999999,2023-06-01T16:17:30Z,3131869.326,NULL,Zuwachs,nyongeza,s,matilaba,udhibiti,hudhurio,NA,sdf,1,2,NA,NA,NA,NA,NA,NA,NA,NA,NA,NA,NA,NA,NA,NA,NA,NA,NA,NA,NA
a74cf,"""Falsch""-Screen",canvas.Screen,3_0_2_0_4_1_2,NA,NA,skipped,NA,3131858.8,NA,NA,3131852.657,3131859,2023-06-01T16:17:30Z,3131869.326,NULL,Zuwachs,nyongeza,s,matilaba,udhibiti,hudhurio,NA,sdf,NA,2,NA,NA,NA,NA,NA,NA,NA,NA,NA,NA,NA,NA,NA,NA,NA,NA,NA,NA,NA
a74cf,shallow,flow.Sequence,3_0_2_0_4_1,NA,NA,completion,10907.422,3120930.3999999,3120928.186,3120945.235,3131852.657,3131859.2,2023-06-01T16:17:30Z,3131869.326,NULL,Zuwachs,nyongeza,s,matilaba,udhibiti,hudhurio,NA,sdf,NA,2,NA,NA,NA,NA,NA,NA,NA,NA,NA,NA,NA,NA,NA,NA,NA,NA,NA,NA,NA
a74cf,task,flow.Sequence,3_0_2_0_4,NA,NA,completion,10907.422,3120930.3,3120928.186,3120945.235,3131852.657,3131859.2,2023-06-01T16:17:30Z,3131869.326,NULL,Zuwachs,nyongeza,s,matilaba,udhibiti,hudhurio,NA,sdf,NA,2,NA,NA,NA,NA,NA,NA,NA,NA,NA,NA,NA,NA,NA,NA,NA,NA,NA,NA,NA
a74cf,deep,flow.Sequence,3_0_2_0_5_0,NA,NA,skipped,NA,3131859.2,NA,NA,3131852.657,3131859.3,2023-06-01T16:17:30Z,3131869.326,NULL,Übersicht,kilindo,s,mgusano,chipukizi,kulinganisha,NA,sdf,NA,2,NA,NA,NA,NA,NA,NA,NA,NA,NA,NA,NA,NA,NA,NA,NA,NA,NA,NA,NA
a74cf,Shallow Question,html.Page,3_0_2_0_5_1_0,NA,NA,form submission,8036.9739999524,3131859.3999999,3131852.657,3131869.326,3139906.3,3139906.7,2023-06-01T16:17:38Z,3139912.31,NULL,Übersicht,kilindo,s,mgusano,chipukizi,kulinganisha,kilindo,NA,NA,2,NA,NA,NA,NA,NA,NA,NA,NA,NA,NA,NA,NA,NA,NA,NA,NA,NA,NA,NA
a74cf,"""Richtig""-Screen",canvas.Screen,3_0_2_0_5_1_1,NA,NA,timeout,4995.9539999999,3139911.8999999,3139896.34,3139912.31,3144892.02,3144892.5999999,2023-06-01T16:17:43Z,3144908.264,NULL,Übersicht,kilindo,s,mgusano,chipukizi,kulinganisha,NA,sdf,1,2,NA,NA,NA,NA,NA,NA,NA,NA,NA,NA,NA,NA,NA,NA,NA,NA,NA,NA,NA
a74cf,"""Falsch""-Screen",canvas.Screen,3_0_2_0_5_1_2,NA,NA,skipped,NA,3144895.2,NA,NA,3144892.02,3144895.3,2023-06-01T16:17:43Z,3144908.264,NULL,Übersicht,kilindo,s,mgusano,chipukizi,kulinganisha,NA,sdf,NA,2,NA,NA,NA,NA,NA,NA,NA,NA,NA,NA,NA,NA,NA,NA,NA,NA,NA,NA,NA
a74cf,shallow,flow.Sequence,3_0_2_0_5_1,NA,NA,completion,13022.694,3131859.3999999,3131852.657,3131869.326,3144892.02,3144895.3999999,2023-06-01T16:17:43Z,3144908.264,NULL,Übersicht,kilindo,s,mgusano,chipukizi,kulinganisha,NA,sdf,NA,2,NA,NA,NA,NA,NA,NA,NA,NA,NA,NA,NA,NA,NA,NA,NA,NA,NA,NA,NA
a74cf,task,flow.Sequence,3_0_2_0_5,NA,NA,completion,13022.694,3131859.2,3131852.657,3131869.326,3144892.02,3144895.5,2023-06-01T16:17:43Z,3144908.264,NULL,Übersicht,kilindo,s,mgusano,chipukizi,kulinganisha,NA,sdf,NA,2,NA,NA,NA,NA,NA,NA,NA,NA,NA,NA,NA,NA,NA,NA,NA,NA,NA,NA,NA
a74cf,Deep Question,html.Page,3_0_2_0_6_0_0,NA,NA,form submission,8415.9360000477,3144895.5,3144892.02,3144908.264,3153324.2,3153324.3999999,2023-06-01T16:17:52Z,3153334.512,NULL,Lawine,banguko,d,NA,NA,NA,bang,NA,NA,2,NA,NA,NA,NA,NA,NA,NA,NA,NA,NA,NA,NA,NA,NA,NA,NA,NA,NA,NA
a74cf,"""Richtig""-Screen",canvas.Screen,3_0_2_0_6_0_1,NA,NA,skipped,NA,3153326.8999999,NA,NA,3153324.2,3153327,2023-06-01T16:17:52Z,3153334.512,NULL,Lawine,banguko,d,NA,NA,NA,NA,sdf,NA,2,NA,NA,NA,NA,NA,NA,NA,NA,NA,NA,NA,NA,NA,NA,NA,NA,NA,NA,NA
a74cf,"""Falsch""-Screen",canvas.Screen,3_0_2_0_6_0_2,NA,NA,timeout,4996.466,3153327.8999999,3153317.912,3153334.512,3158314.311,3158315.3999999,2023-06-01T16:17:57Z,3158330.978,NULL,Lawine,banguko,d,NA,NA,NA,NA,sdf,0,2,NA,NA,NA,NA,NA,NA,NA,NA,NA,NA,NA,NA,NA,NA,NA,NA,NA,NA,NA
a74cf,deep,flow.Sequence,3_0_2_0_6_0,NA,NA,completion,13406.047,3144895.5,3144892.02,3144908.264,3158314.311,3158315.8,2023-06-01T16:17:57Z,3158330.978,NULL,Lawine,banguko,d,NA,NA,NA,NA,sdf,NA,2,NA,NA,NA,NA,NA,NA,NA,NA,NA,NA,NA,NA,NA,NA,NA,NA,NA,NA,NA
a74cf,shallow,flow.Sequence,3_0_2_0_6_1,NA,NA,skipped,NA,3158316,NA,NA,3158314.311,3158316.0999999,2023-06-01T16:17:57Z,3158330.978,NULL,Lawine,banguko,d,NA,NA,NA,NA,sdf,NA,2,NA,NA,NA,NA,NA,NA,NA,NA,NA,NA,NA,NA,NA,NA,NA,NA,NA,NA,NA
a74cf,task,flow.Sequence,3_0_2_0_6,NA,NA,completion,13406.047,3144895.5,3144892.02,3144908.264,3158314.311,3158316.3999999,2023-06-01T16:17:57Z,3158330.978,NULL,Lawine,banguko,d,NA,NA,NA,NA,sdf,NA,2,NA,NA,NA,NA,NA,NA,NA,NA,NA,NA,NA,NA,NA,NA,NA,NA,NA,NA,NA
a74cf,deep,flow.Sequence,3_0_2_0_7_0,NA,NA,skipped,NA,3158316.5999999,NA,NA,3158314.311,3158316.7,2023-06-01T16:17:57Z,3158330.978,NULL,Symbol,kielezo,s,kinyume,nderemo,utayari,NA,sdf,NA,2,NA,NA,NA,NA,NA,NA,NA,NA,NA,NA,NA,NA,NA,NA,NA,NA,NA,NA,NA
a74cf,Shallow Question,html.Page,3_0_2_0_7_1_0,NA,NA,form submission,6412.1219999045,3158316.8999999,3158314.311,3158330.978,3164743.0999999,3164743.5999999,2023-06-01T16:18:03Z,3164759.926,NULL,Symbol,kielezo,s,kinyume,nderemo,utayari,kinyume,NA,NA,2,NA,NA,NA,NA,NA,NA,NA,NA,NA,NA,NA,NA,NA,NA,NA,NA,NA,NA,NA
a74cf,"""Richtig""-Screen",canvas.Screen,3_0_2_0_7_1_1,NA,NA,skipped,NA,3164745.3999999,NA,NA,3164743.0999999,3164745.5,2023-06-01T16:18:03Z,3164759.926,NULL,Symbol,kielezo,s,kinyume,nderemo,utayari,NA,sdf,NA,2,NA,NA,NA,NA,NA,NA,NA,NA,NA,NA,NA,NA,NA,NA,NA,NA,NA,NA,NA
a74cf,"""Falsch""-Screen",canvas.Screen,3_0_2_0_7_1_2,NA,NA,timeout,4994.9939999999,3164746,3164725.399,3164759.926,3169738.127,3169739,2023-06-01T16:18:08Z,3169754.92,NULL,Symbol,kielezo,s,kinyume,nderemo,utayari,NA,sdf,0,2,NA,NA,NA,NA,NA,NA,NA,NA,NA,NA,NA,NA,NA,NA,NA,NA,NA,NA,NA
a74cf,shallow,flow.Sequence,3_0_2_0_7_1,NA,NA,completion,11407.149,3158316.8999999,3158314.311,3158330.978,3169738.127,3169739.3999999,2023-06-01T16:18:08Z,3169754.92,NULL,Symbol,kielezo,s,kinyume,nderemo,utayari,NA,sdf,NA,2,NA,NA,NA,NA,NA,NA,NA,NA,NA,NA,NA,NA,NA,NA,NA,NA,NA,NA,NA
a74cf,task,flow.Sequence,3_0_2_0_7,NA,NA,completion,11407.149,3158316.5999999,3158314.311,3158330.978,3169738.127,3169739.7,2023-06-01T16:18:08Z,3169754.92,NULL,Symbol,kielezo,s,kinyume,nderemo,utayari,NA,sdf,NA,2,NA,NA,NA,NA,NA,NA,NA,NA,NA,NA,NA,NA,NA,NA,NA,NA,NA,NA,NA
a74cf,block,flow.Loop,3_0_2_0,NA,NA,completion,84764.016,3084971.5,3084958.038,3084974.111,3169738.127,3169740,2023-06-01T16:18:08Z,3169754.92,NULL,NA,NA,NA,NA,NA,NA,NA,sdf,NA,2,NA,NA,NA,NA,NA,NA,NA,NA,NA,NA,NA,NA,NA,NA,NA,NA,NA,NA,NA
a74cf,weiter,canvas.Screen,3_0_2_1,sdf,keypress(Space),response,842.78000004776,3169740.2,3169738.127,3169754.92,3170597.7,3170599.0999999,2023-06-01T16:18:09Z,3170620.287,NULL,NA,NA,NA,NA,NA,NA,NA,sdf,NA,2,NA,NA,NA,NA,NA,NA,NA,NA,NA,NA,NA,NA,NA,NA,NA,NA,NA,NA,NA
a74cf,check continue,flow.Sequence,3_0_2,NA,NA,completion,85623.589000048,3084971.5,3084958.038,3084974.111,3170597.7,3170599.3999999,2023-06-01T16:18:09Z,3170620.287,NULL,NA,NA,NA,NA,NA,NA,NA,sdf,NA,2,NA,NA,NA,NA,NA,NA,NA,NA,NA,NA,NA,NA,NA,NA,NA,NA,NA,NA,NA
a74cf,deep,flow.Sequence,3_0_3_0_0_0,NA,NA,skipped,NA,3170631.3999999,NA,NA,3170597.7,3170631.5,2023-06-01T16:18:09Z,3170620.287,NULL,Übersicht,kilindo,s,mgusano,chipukizi,kulinganisha,NA,qt,NA,3,NA,NA,NA,NA,NA,NA,NA,NA,NA,NA,NA,NA,NA,NA,NA,NA,NA,NA,NA
a74cf,Shallow Question,html.Page,3_0_3_0_0_1_0,NA,NA,form submission,10659.413000048,3170631.5999999,3170587.25,3170620.287,3181279.7,3181280.0999999,2023-06-01T16:18:20Z,3181295.835,NULL,Übersicht,kilindo,s,mgusano,chipukizi,kulinganisha,kulinganisha,NA,NA,3,NA,NA,NA,NA,NA,NA,NA,NA,NA,NA,NA,NA,NA,NA,NA,NA,NA,NA,NA
a74cf,"""Richtig""-Screen",canvas.Screen,3_0_3_0_0_1_1,NA,NA,skipped,NA,3181285.5,NA,NA,3181279.7,3181286,2023-06-01T16:18:20Z,3181295.835,NULL,Übersicht,kilindo,s,mgusano,chipukizi,kulinganisha,NA,qt,NA,3,NA,NA,NA,NA,NA,NA,NA,NA,NA,NA,NA,NA,NA,NA,NA,NA,NA,NA,NA
a74cf,"""Falsch""-Screen",canvas.Screen,3_0_3_0_0_1_2,NA,NA,timeout,4995.4870000002,3181286.8999999,3181262.149,3181295.835,3186274.632,3186275.5999999,2023-06-01T16:18:25Z,3186291.322,NULL,Übersicht,kilindo,s,mgusano,chipukizi,kulinganisha,NA,qt,0,3,NA,NA,NA,NA,NA,NA,NA,NA,NA,NA,NA,NA,NA,NA,NA,NA,NA,NA,NA
a74cf,shallow,flow.Sequence,3_0_3_0_0_1,NA,NA,completion,15654.345,3170631.5999999,3170587.25,3170620.287,3186274.632,3186276.0999999,2023-06-01T16:18:25Z,3186291.322,NULL,Übersicht,kilindo,s,mgusano,chipukizi,kulinganisha,NA,qt,NA,3,NA,NA,NA,NA,NA,NA,NA,NA,NA,NA,NA,NA,NA,NA,NA,NA,NA,NA,NA
a74cf,task,flow.Sequence,3_0_3_0_0,NA,NA,completion,15654.345,3170631.3999999,3170587.25,3170620.287,3186274.632,3186276.3,2023-06-01T16:18:25Z,3186291.322,NULL,Übersicht,kilindo,s,mgusano,chipukizi,kulinganisha,NA,qt,NA,3,NA,NA,NA,NA,NA,NA,NA,NA,NA,NA,NA,NA,NA,NA,NA,NA,NA,NA,NA
a74cf,Deep Question,html.Page,3_0_3_0_1_0_0,NA,NA,form submission,2187.2779999045,3186276.5999999,3186274.632,3186291.322,3188478.5999999,3188478.8,2023-06-01T16:18:27Z,3188488.998,NULL,Konkurrent,mshindani,d,NA,NA,NA,j,NA,NA,3,NA,NA,NA,NA,NA,NA,NA,NA,NA,NA,NA,NA,NA,NA,NA,NA,NA,NA,NA
a74cf,"""Richtig""-Screen",canvas.Screen,3_0_3_0_1_0_1,NA,NA,skipped,NA,3188481.3,NA,NA,3188478.5999999,3188481.3999999,2023-06-01T16:18:27Z,3188488.998,NULL,Konkurrent,mshindani,d,NA,NA,NA,NA,qt,NA,3,NA,NA,NA,NA,NA,NA,NA,NA,NA,NA,NA,NA,NA,NA,NA,NA,NA,NA,NA
a74cf,"""Falsch""-Screen",canvas.Screen,3_0_3_0_1_0_2,NA,NA,timeout,4995.8119999999,3188482.5,3188472.898,3188488.998,3193468.174,3193468.5999999,2023-06-01T16:18:32Z,3193484.81,NULL,Konkurrent,mshindani,d,NA,NA,NA,NA,qt,0,3,NA,NA,NA,NA,NA,NA,NA,NA,NA,NA,NA,NA,NA,NA,NA,NA,NA,NA,NA
a74cf,deep,flow.Sequence,3_0_3_0_1_0,NA,NA,completion,7176.852,3186276.5999999,3186274.632,3186291.322,3193468.174,3193468.8,2023-06-01T16:18:32Z,3193484.81,NULL,Konkurrent,mshindani,d,NA,NA,NA,NA,qt,NA,3,NA,NA,NA,NA,NA,NA,NA,NA,NA,NA,NA,NA,NA,NA,NA,NA,NA,NA,NA
a74cf,shallow,flow.Sequence,3_0_3_0_1_1,NA,NA,skipped,NA,3193468.8,NA,NA,3193468.174,3193468.8999999,2023-06-01T16:18:32Z,3193484.81,NULL,Konkurrent,mshindani,d,NA,NA,NA,NA,qt,NA,3,NA,NA,NA,NA,NA,NA,NA,NA,NA,NA,NA,NA,NA,NA,NA,NA,NA,NA,NA
a74cf,task,flow.Sequence,3_0_3_0_1,NA,NA,completion,7176.852,3186276.5,3186274.632,3186291.322,3193468.174,3193469,2023-06-01T16:18:32Z,3193484.81,NULL,Konkurrent,mshindani,d,NA,NA,NA,NA,qt,NA,3,NA,NA,NA,NA,NA,NA,NA,NA,NA,NA,NA,NA,NA,NA,NA,NA,NA,NA,NA
a74cf,Deep Question,html.Page,3_0_3_0_2_0_0,NA,NA,form submission,3484.8900000476,3193469,3193468.174,3193484.81,3196969.7,3196969.8999999,2023-06-01T16:18:35Z,3196981.937,NULL,System,maongozi,d,NA,NA,NA,k,NA,NA,3,NA,NA,NA,NA,NA,NA,NA,NA,NA,NA,NA,NA,NA,NA,NA,NA,NA,NA,NA
a74cf,"""Richtig""-Screen",canvas.Screen,3_0_3_0_2_0_1,NA,NA,skipped,NA,3196971.8,NA,NA,3196969.7,3196971.8999999,2023-06-01T16:18:35Z,3196981.937,NULL,System,maongozi,d,NA,NA,NA,NA,qt,NA,3,NA,NA,NA,NA,NA,NA,NA,NA,NA,NA,NA,NA,NA,NA,NA,NA,NA,NA,NA
a74cf,"""Falsch""-Screen",canvas.Screen,3_0_3_0_2_0_2,NA,NA,timeout,4995.915,3196972.5,3196966.049,3196981.937,3201961.776,3201962.8999999,2023-06-01T16:18:40Z,3201977.852,NULL,System,maongozi,d,NA,NA,NA,NA,qt,0,3,NA,NA,NA,NA,NA,NA,NA,NA,NA,NA,NA,NA,NA,NA,NA,NA,NA,NA,NA
a74cf,deep,flow.Sequence,3_0_3_0_2_0,NA,NA,completion,8476.966,3193469,3193468.174,3193484.81,3201961.776,3201963.3,2023-06-01T16:18:40Z,3201977.852,NULL,System,maongozi,d,NA,NA,NA,NA,qt,NA,3,NA,NA,NA,NA,NA,NA,NA,NA,NA,NA,NA,NA,NA,NA,NA,NA,NA,NA,NA
a74cf,shallow,flow.Sequence,3_0_3_0_2_1,NA,NA,skipped,NA,3201963.3999999,NA,NA,3201961.776,3201963.7,2023-06-01T16:18:40Z,3201977.852,NULL,System,maongozi,d,NA,NA,NA,NA,qt,NA,3,NA,NA,NA,NA,NA,NA,NA,NA,NA,NA,NA,NA,NA,NA,NA,NA,NA,NA,NA
a74cf,task,flow.Sequence,3_0_3_0_2,NA,NA,completion,8476.966,3193469,3193468.174,3193484.81,3201961.776,3201963.8999999,2023-06-01T16:18:40Z,3201977.852,NULL,System,maongozi,d,NA,NA,NA,NA,qt,NA,3,NA,NA,NA,NA,NA,NA,NA,NA,NA,NA,NA,NA,NA,NA,NA,NA,NA,NA,NA
a74cf,Deep Question,html.Page,3_0_3_0_3_0_0,NA,NA,form submission,1776.547999857,3201964.0999999,3201961.776,3201977.852,3203754.3999999,3203754.5999999,2023-06-01T16:18:42Z,3203759.663,NULL,Vorsorge,tahadhari,d,NA,NA,NA,k,NA,NA,3,NA,NA,NA,NA,NA,NA,NA,NA,NA,NA,NA,NA,NA,NA,NA,NA,NA,NA,NA
a74cf,"""Richtig""-Screen",canvas.Screen,3_0_3_0_3_0_1,NA,NA,skipped,NA,3203756.3999999,NA,NA,3203754.3999999,3203756.5,2023-06-01T16:18:42Z,3203759.663,NULL,Vorsorge,tahadhari,d,NA,NA,NA,NA,qt,NA,3,NA,NA,NA,NA,NA,NA,NA,NA,NA,NA,NA,NA,NA,NA,NA,NA,NA,NA,NA
a74cf,"""Falsch""-Screen",canvas.Screen,3_0_3_0_3_0_2,NA,NA,timeout,4996.4899999998,3203757,3203743.503,3203759.663,3208739.272,3208740.2,2023-06-01T16:18:47Z,3208756.153,NULL,Vorsorge,tahadhari,d,NA,NA,NA,NA,qt,0,3,NA,NA,NA,NA,NA,NA,NA,NA,NA,NA,NA,NA,NA,NA,NA,NA,NA,NA,NA
a74cf,deep,flow.Sequence,3_0_3_0_3_0,NA,NA,completion,6761.4199999999,3201964,3201961.776,3201977.852,3208739.272,3208740.7,2023-06-01T16:18:47Z,3208756.153,NULL,Vorsorge,tahadhari,d,NA,NA,NA,NA,qt,NA,3,NA,NA,NA,NA,NA,NA,NA,NA,NA,NA,NA,NA,NA,NA,NA,NA,NA,NA,NA
a74cf,shallow,flow.Sequence,3_0_3_0_3_1,NA,NA,skipped,NA,3208740.8,NA,NA,3208739.272,3208741,2023-06-01T16:18:47Z,3208756.153,NULL,Vorsorge,tahadhari,d,NA,NA,NA,NA,qt,NA,3,NA,NA,NA,NA,NA,NA,NA,NA,NA,NA,NA,NA,NA,NA,NA,NA,NA,NA,NA
a74cf,task,flow.Sequence,3_0_3_0_3,NA,NA,completion,6761.4199999999,3201964,3201961.776,3201977.852,3208739.272,3208741.3,2023-06-01T16:18:47Z,3208756.153,NULL,Vorsorge,tahadhari,d,NA,NA,NA,NA,qt,NA,3,NA,NA,NA,NA,NA,NA,NA,NA,NA,NA,NA,NA,NA,NA,NA,NA,NA,NA,NA
a74cf,deep,flow.Sequence,3_0_3_0_4_0,NA,NA,skipped,NA,3208741.5,NA,NA,3208739.272,3208741.5999999,2023-06-01T16:18:47Z,3208756.153,NULL,Körper,kiwiliwili,s,mapambano,mpatanishi,kiolezo,NA,qt,NA,3,NA,NA,NA,NA,NA,NA,NA,NA,NA,NA,NA,NA,NA,NA,NA,NA,NA,NA,NA
a74cf,Shallow Question,html.Page,3_0_3_0_4_1_0,NA,NA,form submission,3874.3470000001,3208741.7,3208739.272,3208756.153,3212630.5,3212630.8,2023-06-01T16:18:51Z,3212635.687,NULL,Körper,kiwiliwili,s,mapambano,mpatanishi,kiolezo,kiwiliwili,NA,NA,3,NA,NA,NA,NA,NA,NA,NA,NA,NA,NA,NA,NA,NA,NA,NA,NA,NA,NA,NA
a74cf,"""Richtig""-Screen",canvas.Screen,3_0_3_0_4_1_1,NA,NA,timeout,4995.9350000001,3212632.5,3212619.611,3212635.687,3217615.318,3217616.2,2023-06-01T16:18:56Z,3217631.622,NULL,Körper,kiwiliwili,s,mapambano,mpatanishi,kiolezo,NA,qt,1,3,NA,NA,NA,NA,NA,NA,NA,NA,NA,NA,NA,NA,NA,NA,NA,NA,NA,NA,NA
a74cf,"""Falsch""-Screen",canvas.Screen,3_0_3_0_4_1_2,NA,NA,skipped,NA,3217621.5999999,NA,NA,3217615.318,3217621.8999999,2023-06-01T16:18:56Z,3217631.622,NULL,Körper,kiwiliwili,s,mapambano,mpatanishi,kiolezo,NA,qt,NA,3,NA,NA,NA,NA,NA,NA,NA,NA,NA,NA,NA,NA,NA,NA,NA,NA,NA,NA,NA
a74cf,shallow,flow.Sequence,3_0_3_0_4_1,NA,NA,completion,8859.165,3208741.7,3208739.272,3208756.153,3217615.318,3217622.3,2023-06-01T16:18:56Z,3217631.622,NULL,Körper,kiwiliwili,s,mapambano,mpatanishi,kiolezo,NA,qt,NA,3,NA,NA,NA,NA,NA,NA,NA,NA,NA,NA,NA,NA,NA,NA,NA,NA,NA,NA,NA
a74cf,task,flow.Sequence,3_0_3_0_4,NA,NA,completion,8859.165,3208741.5,3208739.272,3208756.153,3217615.318,3217622.5,2023-06-01T16:18:56Z,3217631.622,NULL,Körper,kiwiliwili,s,mapambano,mpatanishi,kiolezo,NA,qt,NA,3,NA,NA,NA,NA,NA,NA,NA,NA,NA,NA,NA,NA,NA,NA,NA,NA,NA,NA,NA
a74cf,deep,flow.Sequence,3_0_3_0_5_0,NA,NA,skipped,NA,3217622.7,NA,NA,3217615.318,3217622.8,2023-06-01T16:18:56Z,3217631.622,NULL,Zuwachs,nyongeza,s,matilaba,udhibiti,hudhurio,NA,qt,NA,3,NA,NA,NA,NA,NA,NA,NA,NA,NA,NA,NA,NA,NA,NA,NA,NA,NA,NA,NA
a74cf,Shallow Question,html.Page,3_0_3_0_5_1_0,NA,NA,form submission,5206.277999857,3217623,3217615.318,3217631.622,3222837.8999999,3222838.0999999,2023-06-01T16:19:01Z,3222844.164,NULL,Zuwachs,nyongeza,s,matilaba,udhibiti,hudhurio,nyongeza,NA,NA,3,NA,NA,NA,NA,NA,NA,NA,NA,NA,NA,NA,NA,NA,NA,NA,NA,NA,NA,NA
a74cf,"""Richtig""-Screen",canvas.Screen,3_0_3_0_5_1_1,NA,NA,timeout,4995.7379999999,3222839.8,3222827.864,3222844.164,3227823.643,3227824.7,2023-06-01T16:19:06Z,3227839.902,NULL,Zuwachs,nyongeza,s,matilaba,udhibiti,hudhurio,NA,qt,1,3,NA,NA,NA,NA,NA,NA,NA,NA,NA,NA,NA,NA,NA,NA,NA,NA,NA,NA,NA
a74cf,"""Falsch""-Screen",canvas.Screen,3_0_3_0_5_1_2,NA,NA,skipped,NA,3227829.8999999,NA,NA,3227823.643,3227830.3,2023-06-01T16:19:06Z,3227839.902,NULL,Zuwachs,nyongeza,s,matilaba,udhibiti,hudhurio,NA,qt,NA,3,NA,NA,NA,NA,NA,NA,NA,NA,NA,NA,NA,NA,NA,NA,NA,NA,NA,NA,NA
a74cf,shallow,flow.Sequence,3_0_3_0_5_1,NA,NA,completion,10192.021,3217623,3217615.318,3217631.622,3227823.643,3227830.5999999,2023-06-01T16:19:06Z,3227839.902,NULL,Zuwachs,nyongeza,s,matilaba,udhibiti,hudhurio,NA,qt,NA,3,NA,NA,NA,NA,NA,NA,NA,NA,NA,NA,NA,NA,NA,NA,NA,NA,NA,NA,NA
a74cf,task,flow.Sequence,3_0_3_0_5,NA,NA,completion,10192.021,3217622.5999999,3217615.318,3217631.622,3227823.643,3227830.8999999,2023-06-01T16:19:06Z,3227839.902,NULL,Zuwachs,nyongeza,s,matilaba,udhibiti,hudhurio,NA,qt,NA,3,NA,NA,NA,NA,NA,NA,NA,NA,NA,NA,NA,NA,NA,NA,NA,NA,NA,NA,NA
a74cf,deep,flow.Sequence,3_0_3_0_6_0,NA,NA,skipped,NA,3227831.0999999,NA,NA,3227823.643,3227831.2,2023-06-01T16:19:06Z,3227839.902,NULL,Symbol,kielezo,s,kinyume,nderemo,utayari,NA,qt,NA,3,NA,NA,NA,NA,NA,NA,NA,NA,NA,NA,NA,NA,NA,NA,NA,NA,NA,NA,NA
a74cf,Shallow Question,html.Page,3_0_3_0_6_1_0,NA,NA,form submission,12765.497999857,3227831.3999999,3227823.643,3227839.902,3240605.3999999,3240605.5,2023-06-01T16:19:19Z,3240612.99,NULL,Symbol,kielezo,s,kinyume,nderemo,utayari,kielezo,NA,NA,3,NA,NA,NA,NA,NA,NA,NA,NA,NA,NA,NA,NA,NA,NA,NA,NA,NA,NA,NA
a74cf,"""Richtig""-Screen",canvas.Screen,3_0_3_0_6_1_1,NA,NA,timeout,4996.0359999998,3240607,3240596.602,3240612.99,3245592.495,3245593.3999999,2023-06-01T16:19:24Z,3245609.026,NULL,Symbol,kielezo,s,kinyume,nderemo,utayari,NA,qt,1,3,NA,NA,NA,NA,NA,NA,NA,NA,NA,NA,NA,NA,NA,NA,NA,NA,NA,NA,NA
a74cf,"""Falsch""-Screen",canvas.Screen,3_0_3_0_6_1_2,NA,NA,skipped,NA,3245598.2,NA,NA,3245592.495,3245598.3,2023-06-01T16:19:24Z,3245609.026,NULL,Symbol,kielezo,s,kinyume,nderemo,utayari,NA,qt,NA,3,NA,NA,NA,NA,NA,NA,NA,NA,NA,NA,NA,NA,NA,NA,NA,NA,NA,NA,NA
a74cf,shallow,flow.Sequence,3_0_3_0_6_1,NA,NA,completion,17752.593,3227831.3,3227823.643,3227839.902,3245592.495,3245598.3999999,2023-06-01T16:19:24Z,3245609.026,NULL,Symbol,kielezo,s,kinyume,nderemo,utayari,NA,qt,NA,3,NA,NA,NA,NA,NA,NA,NA,NA,NA,NA,NA,NA,NA,NA,NA,NA,NA,NA,NA
a74cf,task,flow.Sequence,3_0_3_0_6,NA,NA,completion,17752.593,3227831.0999999,3227823.643,3227839.902,3245592.495,3245598.5,2023-06-01T16:19:24Z,3245609.026,NULL,Symbol,kielezo,s,kinyume,nderemo,utayari,NA,qt,NA,3,NA,NA,NA,NA,NA,NA,NA,NA,NA,NA,NA,NA,NA,NA,NA,NA,NA,NA,NA
a74cf,Deep Question,html.Page,3_0_3_0_7_0_0,NA,NA,form submission,8123.5739999046,3245598.5999999,3245592.495,3245609.026,3253732.5999999,3253732.8,2023-06-01T16:19:32Z,3253735.199,NULL,Lawine,banguko,d,NA,NA,NA,banguko,NA,NA,3,NA,NA,NA,NA,NA,NA,NA,NA,NA,NA,NA,NA,NA,NA,NA,NA,NA,NA,NA
a74cf,"""Richtig""-Screen",canvas.Screen,3_0_3_0_7_0_1,NA,NA,timeout,4995.9679999999,3253734.5999999,3253718.653,3253735.199,3258715.028,3258716,2023-06-01T16:19:37Z,3258731.167,NULL,Lawine,banguko,d,NA,NA,NA,NA,qt,1,3,NA,NA,NA,NA,NA,NA,NA,NA,NA,NA,NA,NA,NA,NA,NA,NA,NA,NA,NA
a74cf,"""Falsch""-Screen",canvas.Screen,3_0_3_0_7_0_2,NA,NA,skipped,NA,3258721.3,NA,NA,3258715.028,3258721.7,2023-06-01T16:19:37Z,3258731.167,NULL,Lawine,banguko,d,NA,NA,NA,NA,qt,NA,3,NA,NA,NA,NA,NA,NA,NA,NA,NA,NA,NA,NA,NA,NA,NA,NA,NA,NA,NA
a74cf,deep,flow.Sequence,3_0_3_0_7_0,NA,NA,completion,13106.002,3245598.5999999,3245592.495,3245609.026,3258715.028,3258722.0999999,2023-06-01T16:19:37Z,3258731.167,NULL,Lawine,banguko,d,NA,NA,NA,NA,qt,NA,3,NA,NA,NA,NA,NA,NA,NA,NA,NA,NA,NA,NA,NA,NA,NA,NA,NA,NA,NA
a74cf,shallow,flow.Sequence,3_0_3_0_7_1,NA,NA,skipped,NA,3258722.2,NA,NA,3258715.028,3258722.3,2023-06-01T16:19:37Z,3258731.167,NULL,Lawine,banguko,d,NA,NA,NA,NA,qt,NA,3,NA,NA,NA,NA,NA,NA,NA,NA,NA,NA,NA,NA,NA,NA,NA,NA,NA,NA,NA
a74cf,task,flow.Sequence,3_0_3_0_7,NA,NA,completion,13106.002,3245598.5999999,3245592.495,3245609.026,3258715.028,3258722.5,2023-06-01T16:19:37Z,3258731.167,NULL,Lawine,banguko,d,NA,NA,NA,NA,qt,NA,3,NA,NA,NA,NA,NA,NA,NA,NA,NA,NA,NA,NA,NA,NA,NA,NA,NA,NA,NA
a74cf,block,flow.Loop,3_0_3_0,NA,NA,completion,88094.741,3170631.3999999,3170587.25,3170620.287,3258715.028,3258722.8,2023-06-01T16:19:37Z,3258731.167,NULL,NA,NA,NA,NA,NA,NA,NA,qt,NA,3,NA,NA,NA,NA,NA,NA,NA,NA,NA,NA,NA,NA,NA,NA,NA,NA,NA,NA,NA
a74cf,weiter,canvas.Screen,3_0_3_1,sdf,keypress(Space),response,815.93299990473,3258723,3258715.028,3258731.167,3259547.0999999,3259548.3999999,2023-06-01T16:19:38Z,3259580.466,NULL,NA,NA,NA,NA,NA,NA,NA,qt,NA,3,NA,NA,NA,NA,NA,NA,NA,NA,NA,NA,NA,NA,NA,NA,NA,NA,NA,NA,NA
a74cf,check continue,flow.Sequence,3_0_3,NA,NA,completion,88926.812999905,3170631.3,3170587.25,3170620.287,3259547.0999999,3259548.8999999,2023-06-01T16:19:38Z,3259580.466,NULL,NA,NA,NA,NA,NA,NA,NA,qt,NA,3,NA,NA,NA,NA,NA,NA,NA,NA,NA,NA,NA,NA,NA,NA,NA,NA,NA,NA,NA
a74cf,Deep Question,html.Page,3_0_4_0_0_0_0,NA,NA,form submission,2500.7340000477,3259576.0999999,3259564.3,3259580.466,3262081.2,3262081.3,2023-06-01T16:19:40Z,3262094.97,NULL,Vorsorge,tahadhari,d,NA,NA,NA,j,NA,NA,4,NA,NA,NA,NA,NA,NA,NA,NA,NA,NA,NA,NA,NA,NA,NA,NA,NA,NA,NA
a74cf,"""Richtig""-Screen",canvas.Screen,3_0_4_0_0_0_1,NA,NA,skipped,NA,3262083.2,NA,NA,3262081.2,3262083.3,2023-06-01T16:19:40Z,3262094.97,NULL,Vorsorge,tahadhari,d,NA,NA,NA,NA,sd,NA,4,NA,NA,NA,NA,NA,NA,NA,NA,NA,NA,NA,NA,NA,NA,NA,NA,NA,NA,NA
a74cf,"""Falsch""-Screen",canvas.Screen,3_0_4_0_0_0_2,NA,NA,timeout,4996.5119999996,3262084,3262078.942,3262094.97,3267074.827,3267075.7,2023-06-01T16:19:45Z,3267091.482,NULL,Vorsorge,tahadhari,d,NA,NA,NA,NA,sd,0,4,NA,NA,NA,NA,NA,NA,NA,NA,NA,NA,NA,NA,NA,NA,NA,NA,NA,NA,NA
a74cf,deep,flow.Sequence,3_0_4_0_0_0,NA,NA,completion,7494.361,3259576.0999999,3259564.3,3259580.466,3267074.827,3267076,2023-06-01T16:19:45Z,3267091.482,NULL,Vorsorge,tahadhari,d,NA,NA,NA,NA,sd,NA,4,NA,NA,NA,NA,NA,NA,NA,NA,NA,NA,NA,NA,NA,NA,NA,NA,NA,NA,NA
a74cf,shallow,flow.Sequence,3_0_4_0_0_1,NA,NA,skipped,NA,3267076.2,NA,NA,3267074.827,3267076.3999999,2023-06-01T16:19:45Z,3267091.482,NULL,Vorsorge,tahadhari,d,NA,NA,NA,NA,sd,NA,4,NA,NA,NA,NA,NA,NA,NA,NA,NA,NA,NA,NA,NA,NA,NA,NA,NA,NA,NA
a74cf,task,flow.Sequence,3_0_4_0_0,NA,NA,completion,7494.361,3259576.0999999,3259564.3,3259580.466,3267074.827,3267076.5999999,2023-06-01T16:19:45Z,3267091.482,NULL,Vorsorge,tahadhari,d,NA,NA,NA,NA,sd,NA,4,NA,NA,NA,NA,NA,NA,NA,NA,NA,NA,NA,NA,NA,NA,NA,NA,NA,NA,NA
a74cf,deep,flow.Sequence,3_0_4_0_1_0,NA,NA,skipped,NA,3267076.8,NA,NA,3267074.827,3267076.8999999,2023-06-01T16:19:45Z,3267091.482,NULL,Übersicht,kilindo,s,mgusano,chipukizi,kulinganisha,NA,sd,NA,4,NA,NA,NA,NA,NA,NA,NA,NA,NA,NA,NA,NA,NA,NA,NA,NA,NA,NA,NA
a74cf,Shallow Question,html.Page,3_0_4_0_1_1_0,NA,NA,form submission,6673.9179998571,3267077,3267074.827,3267091.482,3273765.3999999,3273765.5,2023-06-01T16:19:52Z,3273768.734,NULL,Übersicht,kilindo,s,mgusano,chipukizi,kulinganisha,kilindo,NA,NA,4,NA,NA,NA,NA,NA,NA,NA,NA,NA,NA,NA,NA,NA,NA,NA,NA,NA,NA,NA
a74cf,"""Richtig""-Screen",canvas.Screen,3_0_4_0_1_1_1,NA,NA,timeout,4995.9239999996,3273767.3,3273752.422,3273768.734,3278748.051,3278748.8999999,2023-06-01T16:19:57Z,3278764.658,NULL,Übersicht,kilindo,s,mgusano,chipukizi,kulinganisha,NA,sd,1,4,NA,NA,NA,NA,NA,NA,NA,NA,NA,NA,NA,NA,NA,NA,NA,NA,NA,NA,NA
a74cf,"""Falsch""-Screen",canvas.Screen,3_0_4_0_1_1_2,NA,NA,skipped,NA,3278755.5999999,NA,NA,3278748.051,3278755.8999999,2023-06-01T16:19:57Z,3278764.658,NULL,Übersicht,kilindo,s,mgusano,chipukizi,kulinganisha,NA,sd,NA,4,NA,NA,NA,NA,NA,NA,NA,NA,NA,NA,NA,NA,NA,NA,NA,NA,NA,NA,NA
a74cf,shallow,flow.Sequence,3_0_4_0_1_1,NA,NA,completion,11656.569,3267077,3267074.827,3267091.482,3278748.051,3278756.3,2023-06-01T16:19:57Z,3278764.658,NULL,Übersicht,kilindo,s,mgusano,chipukizi,kulinganisha,NA,sd,NA,4,NA,NA,NA,NA,NA,NA,NA,NA,NA,NA,NA,NA,NA,NA,NA,NA,NA,NA,NA
a74cf,task,flow.Sequence,3_0_4_0_1,NA,NA,completion,11656.569,3267076.7,3267074.827,3267091.482,3278748.051,3278756.5999999,2023-06-01T16:19:57Z,3278764.658,NULL,Übersicht,kilindo,s,mgusano,chipukizi,kulinganisha,NA,sd,NA,4,NA,NA,NA,NA,NA,NA,NA,NA,NA,NA,NA,NA,NA,NA,NA,NA,NA,NA,NA
a74cf,deep,flow.Sequence,3_0_4_0_2_0,NA,NA,skipped,NA,3278756.8,NA,NA,3278748.051,3278757,2023-06-01T16:19:57Z,3278764.658,NULL,Zuwachs,nyongeza,s,matilaba,udhibiti,hudhurio,NA,sd,NA,4,NA,NA,NA,NA,NA,NA,NA,NA,NA,NA,NA,NA,NA,NA,NA,NA,NA,NA,NA
a74cf,Shallow Question,html.Page,3_0_4_0_2_1_0,NA,NA,form submission,4931.9419999048,3278757.2,3278748.051,3278764.658,3283696.5999999,3283696.8999999,2023-06-01T16:20:02Z,3283711.176,NULL,Zuwachs,nyongeza,s,matilaba,udhibiti,hudhurio,nyongeza,NA,NA,4,NA,NA,NA,NA,NA,NA,NA,NA,NA,NA,NA,NA,NA,NA,NA,NA,NA,NA,NA
a74cf,"""Richtig""-Screen",canvas.Screen,3_0_4_0_2_1_1,NA,NA,timeout,4995.2919999999,3283698.5999999,3283693.951,3283711.176,3288690.221,3288691.0999999,2023-06-01T16:20:07Z,3288706.468,NULL,Zuwachs,nyongeza,s,matilaba,udhibiti,hudhurio,NA,sd,1,4,NA,NA,NA,NA,NA,NA,NA,NA,NA,NA,NA,NA,NA,NA,NA,NA,NA,NA,NA
a74cf,"""Falsch""-Screen",canvas.Screen,3_0_4_0_2_1_2,NA,NA,skipped,NA,3288696.2,NA,NA,3288690.221,3288696.3999999,2023-06-01T16:20:07Z,3288706.468,NULL,Zuwachs,nyongeza,s,matilaba,udhibiti,hudhurio,NA,sd,NA,4,NA,NA,NA,NA,NA,NA,NA,NA,NA,NA,NA,NA,NA,NA,NA,NA,NA,NA,NA
a74cf,shallow,flow.Sequence,3_0_4_0_2_1,NA,NA,completion,9925.5630000001,3278757.2,3278748.051,3278764.658,3288690.221,3288696.8,2023-06-01T16:20:07Z,3288706.468,NULL,Zuwachs,nyongeza,s,matilaba,udhibiti,hudhurio,NA,sd,NA,4,NA,NA,NA,NA,NA,NA,NA,NA,NA,NA,NA,NA,NA,NA,NA,NA,NA,NA,NA
a74cf,task,flow.Sequence,3_0_4_0_2,NA,NA,completion,9925.5630000001,3278756.7,3278748.051,3278764.658,3288690.221,3288697,2023-06-01T16:20:07Z,3288706.468,NULL,Zuwachs,nyongeza,s,matilaba,udhibiti,hudhurio,NA,sd,NA,4,NA,NA,NA,NA,NA,NA,NA,NA,NA,NA,NA,NA,NA,NA,NA,NA,NA,NA,NA
a74cf,deep,flow.Sequence,3_0_4_0_3_0,NA,NA,skipped,NA,3288697.2,NA,NA,3288690.221,3288697.2,2023-06-01T16:20:07Z,3288706.468,NULL,Symbol,kielezo,s,kinyume,nderemo,utayari,NA,sd,NA,4,NA,NA,NA,NA,NA,NA,NA,NA,NA,NA,NA,NA,NA,NA,NA,NA,NA,NA,NA
a74cf,Shallow Question,html.Page,3_0_4_0_3_1_0,NA,NA,form submission,5955.5320000001,3288697.3,3288690.221,3288706.468,3294662,3294662.2,2023-06-01T16:20:13Z,3294668.205,NULL,Symbol,kielezo,s,kinyume,nderemo,utayari,kinyume,NA,NA,4,NA,NA,NA,NA,NA,NA,NA,NA,NA,NA,NA,NA,NA,NA,NA,NA,NA,NA,NA
a74cf,"""Richtig""-Screen",canvas.Screen,3_0_4_0_3_1_1,NA,NA,skipped,NA,3294664,NA,NA,3294662,3294664.0999999,2023-06-01T16:20:13Z,3294668.205,NULL,Symbol,kielezo,s,kinyume,nderemo,utayari,NA,sd,NA,4,NA,NA,NA,NA,NA,NA,NA,NA,NA,NA,NA,NA,NA,NA,NA,NA,NA,NA,NA
a74cf,"""Falsch""-Screen",canvas.Screen,3_0_4_0_3_1_2,NA,NA,timeout,4995.906,3294664.5999999,3294652.039,3294668.205,3299647.757,3299648.7,2023-06-01T16:20:18Z,3299664.111,NULL,Symbol,kielezo,s,kinyume,nderemo,utayari,NA,sd,0,4,NA,NA,NA,NA,NA,NA,NA,NA,NA,NA,NA,NA,NA,NA,NA,NA,NA,NA,NA
a74cf,shallow,flow.Sequence,3_0_4_0_3_1,NA,NA,completion,10941.289,3288697.3,3288690.221,3288706.468,3299647.757,3299649,2023-06-01T16:20:18Z,3299664.111,NULL,Symbol,kielezo,s,kinyume,nderemo,utayari,NA,sd,NA,4,NA,NA,NA,NA,NA,NA,NA,NA,NA,NA,NA,NA,NA,NA,NA,NA,NA,NA,NA
a74cf,task,flow.Sequence,3_0_4_0_3,NA,NA,completion,10941.289,3288697,3288690.221,3288706.468,3299647.757,3299649.3,2023-06-01T16:20:18Z,3299664.111,NULL,Symbol,kielezo,s,kinyume,nderemo,utayari,NA,sd,NA,4,NA,NA,NA,NA,NA,NA,NA,NA,NA,NA,NA,NA,NA,NA,NA,NA,NA,NA,NA
a74cf,deep,flow.Sequence,3_0_4_0_4_0,NA,NA,skipped,NA,3299649.3999999,NA,NA,3299647.757,3299649.5999999,2023-06-01T16:20:18Z,3299664.111,NULL,Körper,kiwiliwili,s,mapambano,mpatanishi,kiolezo,NA,sd,NA,4,NA,NA,NA,NA,NA,NA,NA,NA,NA,NA,NA,NA,NA,NA,NA,NA,NA,NA,NA
a74cf,Shallow Question,html.Page,3_0_4_0_4_1_0,NA,NA,form submission,2989.6889999523,3299649.8,3299647.757,3299664.111,3302653.8,3302653.8999999,2023-06-01T16:20:21Z,3302661.708,NULL,Körper,kiwiliwili,s,mapambano,mpatanishi,kiolezo,kiwiliwili,NA,NA,4,NA,NA,NA,NA,NA,NA,NA,NA,NA,NA,NA,NA,NA,NA,NA,NA,NA,NA,NA
a74cf,"""Richtig""-Screen",canvas.Screen,3_0_4_0_4_1_1,NA,NA,timeout,4995.8879999998,3302655.8,3302645.283,3302661.708,3307641.408,3307642.3,2023-06-01T16:20:26Z,3307657.596,NULL,Körper,kiwiliwili,s,mapambano,mpatanishi,kiolezo,NA,sd,1,4,NA,NA,NA,NA,NA,NA,NA,NA,NA,NA,NA,NA,NA,NA,NA,NA,NA,NA,NA
a74cf,"""Falsch""-Screen",canvas.Screen,3_0_4_0_4_1_2,NA,NA,skipped,NA,3307647.7,NA,NA,3307641.408,3307648.0999999,2023-06-01T16:20:26Z,3307657.596,NULL,Körper,kiwiliwili,s,mapambano,mpatanishi,kiolezo,NA,sd,NA,4,NA,NA,NA,NA,NA,NA,NA,NA,NA,NA,NA,NA,NA,NA,NA,NA,NA,NA,NA
a74cf,shallow,flow.Sequence,3_0_4_0_4_1,NA,NA,completion,7977.2969999998,3299649.7,3299647.757,3299664.111,3307641.408,3307648.3999999,2023-06-01T16:20:26Z,3307657.596,NULL,Körper,kiwiliwili,s,mapambano,mpatanishi,kiolezo,NA,sd,NA,4,NA,NA,NA,NA,NA,NA,NA,NA,NA,NA,NA,NA,NA,NA,NA,NA,NA,NA,NA
a74cf,task,flow.Sequence,3_0_4_0_4,NA,NA,completion,7977.2969999998,3299649.3,3299647.757,3299664.111,3307641.408,3307648.5999999,2023-06-01T16:20:26Z,3307657.596,NULL,Körper,kiwiliwili,s,mapambano,mpatanishi,kiolezo,NA,sd,NA,4,NA,NA,NA,NA,NA,NA,NA,NA,NA,NA,NA,NA,NA,NA,NA,NA,NA,NA,NA
a74cf,Deep Question,html.Page,3_0_4_0_5_0_0,NA,NA,form submission,2775.1040000478,3307649,3307641.408,3307657.596,3310432.7,3310432.8999999,2023-06-01T16:20:29Z,3310438.513,NULL,System,maongozi,d,NA,NA,NA,k,NA,NA,4,NA,NA,NA,NA,NA,NA,NA,NA,NA,NA,NA,NA,NA,NA,NA,NA,NA,NA,NA
a74cf,"""Richtig""-Screen",canvas.Screen,3_0_4_0_5_0_1,NA,NA,skipped,NA,3310433.7,NA,NA,3310432.7,3310433.8999999,2023-06-01T16:20:29Z,3310438.513,NULL,System,maongozi,d,NA,NA,NA,NA,sd,NA,4,NA,NA,NA,NA,NA,NA,NA,NA,NA,NA,NA,NA,NA,NA,NA,NA,NA,NA,NA
a74cf,"""Falsch""-Screen",canvas.Screen,3_0_4_0_5_0_2,NA,NA,timeout,4996.4960000003,3310434.5999999,3310422.434,3310438.513,3315418.269,3315419.3,2023-06-01T16:20:34Z,3315435.009,NULL,System,maongozi,d,NA,NA,NA,NA,sd,0,4,NA,NA,NA,NA,NA,NA,NA,NA,NA,NA,NA,NA,NA,NA,NA,NA,NA,NA,NA
a74cf,deep,flow.Sequence,3_0_4_0_5_0,NA,NA,completion,7760.673,3307648.8999999,3307641.408,3307657.596,3315418.269,3315419.5999999,2023-06-01T16:20:34Z,3315435.009,NULL,System,maongozi,d,NA,NA,NA,NA,sd,NA,4,NA,NA,NA,NA,NA,NA,NA,NA,NA,NA,NA,NA,NA,NA,NA,NA,NA,NA,NA
a74cf,shallow,flow.Sequence,3_0_4_0_5_1,NA,NA,skipped,NA,3315419.8,NA,NA,3315418.269,3315420,2023-06-01T16:20:34Z,3315435.009,NULL,System,maongozi,d,NA,NA,NA,NA,sd,NA,4,NA,NA,NA,NA,NA,NA,NA,NA,NA,NA,NA,NA,NA,NA,NA,NA,NA,NA,NA
a74cf,task,flow.Sequence,3_0_4_0_5,NA,NA,completion,7760.673,3307648.8,3307641.408,3307657.596,3315418.269,3315420.2,2023-06-01T16:20:34Z,3315435.009,NULL,System,maongozi,d,NA,NA,NA,NA,sd,NA,4,NA,NA,NA,NA,NA,NA,NA,NA,NA,NA,NA,NA,NA,NA,NA,NA,NA,NA,NA
a74cf,Deep Question,html.Page,3_0_4_0_6_0_0,NA,NA,form submission,5193.7909999522,3315420.3999999,3315418.269,3315435.009,3320628.8,3320629.0999999,2023-06-01T16:20:39Z,3320630.129,NULL,Lawine,banguko,d,NA,NA,NA,banguko,NA,NA,4,NA,NA,NA,NA,NA,NA,NA,NA,NA,NA,NA,NA,NA,NA,NA,NA,NA,NA,NA
a74cf,"""Richtig""-Screen",canvas.Screen,3_0_4_0_6_0_1,NA,NA,timeout,4996.0039999997,3320631.2,3320613.597,3320630.129,3325609.753,3325610.8,2023-06-01T16:20:44Z,3325626.133,NULL,Lawine,banguko,d,NA,NA,NA,NA,sd,1,4,NA,NA,NA,NA,NA,NA,NA,NA,NA,NA,NA,NA,NA,NA,NA,NA,NA,NA,NA
a74cf,"""Falsch""-Screen",canvas.Screen,3_0_4_0_6_0_2,NA,NA,skipped,NA,3325616,NA,NA,3325609.753,3325616.3,2023-06-01T16:20:44Z,3325626.133,NULL,Lawine,banguko,d,NA,NA,NA,NA,sd,NA,4,NA,NA,NA,NA,NA,NA,NA,NA,NA,NA,NA,NA,NA,NA,NA,NA,NA,NA,NA
a74cf,deep,flow.Sequence,3_0_4_0_6_0,NA,NA,completion,10174.744,3315420.3999999,3315418.269,3315435.009,3325609.753,3325616.5999999,2023-06-01T16:20:44Z,3325626.133,NULL,Lawine,banguko,d,NA,NA,NA,NA,sd,NA,4,NA,NA,NA,NA,NA,NA,NA,NA,NA,NA,NA,NA,NA,NA,NA,NA,NA,NA,NA
a74cf,shallow,flow.Sequence,3_0_4_0_6_1,NA,NA,skipped,NA,3325616.8,NA,NA,3325609.753,3325616.8999999,2023-06-01T16:20:44Z,3325626.133,NULL,Lawine,banguko,d,NA,NA,NA,NA,sd,NA,4,NA,NA,NA,NA,NA,NA,NA,NA,NA,NA,NA,NA,NA,NA,NA,NA,NA,NA,NA
a74cf,task,flow.Sequence,3_0_4_0_6,NA,NA,completion,10174.744,3315420.3,3315418.269,3315435.009,3325609.753,3325617.2,2023-06-01T16:20:44Z,3325626.133,NULL,Lawine,banguko,d,NA,NA,NA,NA,sd,NA,4,NA,NA,NA,NA,NA,NA,NA,NA,NA,NA,NA,NA,NA,NA,NA,NA,NA,NA,NA
a74cf,Deep Question,html.Page,3_0_4_0_7_0_0,NA,NA,form submission,2453.4669999047,3325617.3999999,3325609.753,3325626.133,3328079.5999999,3328079.8,2023-06-01T16:20:46Z,3328090.658,NULL,Konkurrent,mshindani,d,NA,NA,NA,j,NA,NA,4,NA,NA,NA,NA,NA,NA,NA,NA,NA,NA,NA,NA,NA,NA,NA,NA,NA,NA,NA
a74cf,"""Richtig""-Screen",canvas.Screen,3_0_4_0_7_0_1,NA,NA,skipped,NA,3328080.5999999,NA,NA,3328079.5999999,3328080.8,2023-06-01T16:20:46Z,3328090.658,NULL,Konkurrent,mshindani,d,NA,NA,NA,NA,sd,NA,4,NA,NA,NA,NA,NA,NA,NA,NA,NA,NA,NA,NA,NA,NA,NA,NA,NA,NA,NA
a74cf,"""Falsch""-Screen",canvas.Screen,3_0_4_0_7_0_2,NA,NA,timeout,4996.46,3328081.5999999,3328074.259,3328090.658,3333069.952,3333072.7,2023-06-01T16:20:51Z,3333087.118,NULL,Konkurrent,mshindani,d,NA,NA,NA,NA,sd,0,4,NA,NA,NA,NA,NA,NA,NA,NA,NA,NA,NA,NA,NA,NA,NA,NA,NA,NA,NA
a74cf,deep,flow.Sequence,3_0_4_0_7_0,NA,NA,completion,7443.8190000001,3325617.3999999,3325609.753,3325626.133,3333069.952,3333072.8999999,2023-06-01T16:20:51Z,3333087.118,NULL,Konkurrent,mshindani,d,NA,NA,NA,NA,sd,NA,4,NA,NA,NA,NA,NA,NA,NA,NA,NA,NA,NA,NA,NA,NA,NA,NA,NA,NA,NA
a74cf,shallow,flow.Sequence,3_0_4_0_7_1,NA,NA,skipped,NA,3333072.8999999,NA,NA,3333069.952,3333073,2023-06-01T16:20:51Z,3333087.118,NULL,Konkurrent,mshindani,d,NA,NA,NA,NA,sd,NA,4,NA,NA,NA,NA,NA,NA,NA,NA,NA,NA,NA,NA,NA,NA,NA,NA,NA,NA,NA
a74cf,task,flow.Sequence,3_0_4_0_7,NA,NA,completion,7443.8190000001,3325617.2,3325609.753,3325626.133,3333069.952,3333073.0999999,2023-06-01T16:20:51Z,3333087.118,NULL,Konkurrent,mshindani,d,NA,NA,NA,NA,sd,NA,4,NA,NA,NA,NA,NA,NA,NA,NA,NA,NA,NA,NA,NA,NA,NA,NA,NA,NA,NA
a74cf,block,flow.Loop,3_0_4_0,NA,NA,completion,73489.486,3259576.0999999,3259564.3,3259580.466,3333069.952,3333073.2,2023-06-01T16:20:51Z,3333087.118,NULL,NA,NA,NA,NA,NA,NA,NA,sd,NA,4,NA,NA,NA,NA,NA,NA,NA,NA,NA,NA,NA,NA,NA,NA,NA,NA,NA,NA,NA
a74cf,weiter,canvas.Screen,3_0_4_1,sdf,keypress(Space),response,1221.4819999048,3333073.3,3333069.952,3333087.118,3334308.5999999,3334309.5,2023-06-01T16:20:53Z,3334352.22,NULL,NA,NA,NA,NA,NA,NA,NA,sd,NA,4,NA,NA,NA,NA,NA,NA,NA,NA,NA,NA,NA,NA,NA,NA,NA,NA,NA,NA,NA
a74cf,check continue,flow.Sequence,3_0_4,NA,NA,completion,74728.133999905,3259576.0999999,3259564.3,3259580.466,3334308.5999999,3334309.8999999,2023-06-01T16:20:53Z,3334352.22,NULL,NA,NA,NA,NA,NA,NA,NA,sd,NA,4,NA,NA,NA,NA,NA,NA,NA,NA,NA,NA,NA,NA,NA,NA,NA,NA,NA,NA,NA
a74cf,deep,flow.Sequence,3_0_5_0_0_0,NA,NA,skipped,NA,3334339.8,NA,NA,3334308.5999999,3334339.8999999,2023-06-01T16:20:53Z,3334352.22,NULL,Zuwachs,nyongeza,s,matilaba,udhibiti,hudhurio,NA,sdf,NA,5,NA,NA,NA,NA,NA,NA,NA,NA,NA,NA,NA,NA,NA,NA,NA,NA,NA,NA,NA
a74cf,Shallow Question,html.Page,3_0_5_0_0_1_0,NA,NA,form submission,5537.5799999521,3334340,3334336.042,3334352.22,3339889.8,3339890,2023-06-01T16:20:58Z,3339897.662,NULL,Zuwachs,nyongeza,s,matilaba,udhibiti,hudhurio,nyongeza,NA,NA,5,NA,NA,NA,NA,NA,NA,NA,NA,NA,NA,NA,NA,NA,NA,NA,NA,NA,NA,NA
a74cf,"""Richtig""-Screen",canvas.Screen,3_0_5_0_0_1_1,NA,NA,timeout,4995.9199999999,3339891.5999999,3339881.072,3339897.662,3344876.98,3344879.8,2023-06-01T16:21:03Z,3344893.582,NULL,Zuwachs,nyongeza,s,matilaba,udhibiti,hudhurio,NA,sdf,1,5,NA,NA,NA,NA,NA,NA,NA,NA,NA,NA,NA,NA,NA,NA,NA,NA,NA,NA,NA
a74cf,"""Falsch""-Screen",canvas.Screen,3_0_5_0_0_1_2,NA,NA,skipped,NA,3344885.0999999,NA,NA,3344876.98,3344885.5,2023-06-01T16:21:03Z,3344893.582,NULL,Zuwachs,nyongeza,s,matilaba,udhibiti,hudhurio,NA,sdf,NA,5,NA,NA,NA,NA,NA,NA,NA,NA,NA,NA,NA,NA,NA,NA,NA,NA,NA,NA,NA
a74cf,shallow,flow.Sequence,3_0_5_0_0_1,NA,NA,completion,10524.76,3334340,3334336.042,3334352.22,3344876.98,3344885.7,2023-06-01T16:21:03Z,3344893.582,NULL,Zuwachs,nyongeza,s,matilaba,udhibiti,hudhurio,NA,sdf,NA,5,NA,NA,NA,NA,NA,NA,NA,NA,NA,NA,NA,NA,NA,NA,NA,NA,NA,NA,NA
a74cf,task,flow.Sequence,3_0_5_0_0,NA,NA,completion,10524.76,3334339.8,3334336.042,3334352.22,3344876.98,3344886,2023-06-01T16:21:03Z,3344893.582,NULL,Zuwachs,nyongeza,s,matilaba,udhibiti,hudhurio,NA,sdf,NA,5,NA,NA,NA,NA,NA,NA,NA,NA,NA,NA,NA,NA,NA,NA,NA,NA,NA,NA,NA
a74cf,Deep Question,html.Page,3_0_5_0_1_0_0,NA,NA,form submission,2448.0179999047,3344886.2,3344876.98,3344893.582,3347341.5999999,3347341.8,2023-06-01T16:21:06Z,3347358.469,NULL,Vorsorge,tahadhari,d,NA,NA,NA,k,NA,NA,5,NA,NA,NA,NA,NA,NA,NA,NA,NA,NA,NA,NA,NA,NA,NA,NA,NA,NA,NA
a74cf,"""Richtig""-Screen",canvas.Screen,3_0_5_0_1_0_1,NA,NA,skipped,NA,3347342.3999999,NA,NA,3347341.5999999,3347342.5,2023-06-01T16:21:06Z,3347358.469,NULL,Vorsorge,tahadhari,d,NA,NA,NA,NA,sdf,NA,5,NA,NA,NA,NA,NA,NA,NA,NA,NA,NA,NA,NA,NA,NA,NA,NA,NA,NA,NA
a74cf,"""Falsch""-Screen",canvas.Screen,3_0_5_0_1_0_2,NA,NA,timeout,4995.6740000001,3347343.3,3347325.441,3347358.469,3352337.989,3352339.0999999,2023-06-01T16:21:11Z,3352354.143,NULL,Vorsorge,tahadhari,d,NA,NA,NA,NA,sdf,0,5,NA,NA,NA,NA,NA,NA,NA,NA,NA,NA,NA,NA,NA,NA,NA,NA,NA,NA,NA
a74cf,deep,flow.Sequence,3_0_5_0_1_0,NA,NA,completion,7444.4070000001,3344886.2,3344876.98,3344893.582,3352337.989,3352339.7,2023-06-01T16:21:11Z,3352354.143,NULL,Vorsorge,tahadhari,d,NA,NA,NA,NA,sdf,NA,5,NA,NA,NA,NA,NA,NA,NA,NA,NA,NA,NA,NA,NA,NA,NA,NA,NA,NA,NA
a74cf,shallow,flow.Sequence,3_0_5_0_1_1,NA,NA,skipped,NA,3352339.8,NA,NA,3352337.989,3352340.0999999,2023-06-01T16:21:11Z,3352354.143,NULL,Vorsorge,tahadhari,d,NA,NA,NA,NA,sdf,NA,5,NA,NA,NA,NA,NA,NA,NA,NA,NA,NA,NA,NA,NA,NA,NA,NA,NA,NA,NA
a74cf,task,flow.Sequence,3_0_5_0_1,NA,NA,completion,7444.4070000001,3344886.0999999,3344876.98,3344893.582,3352337.989,3352340.2,2023-06-01T16:21:11Z,3352354.143,NULL,Vorsorge,tahadhari,d,NA,NA,NA,NA,sdf,NA,5,NA,NA,NA,NA,NA,NA,NA,NA,NA,NA,NA,NA,NA,NA,NA,NA,NA,NA,NA
a74cf,Deep Question,html.Page,3_0_5_0_2_0_0,NA,NA,form submission,1771.5570000475,3352340.5,3352337.989,3352354.143,3354125.7,3354125.8999999,2023-06-01T16:21:12Z,3354135.899,NULL,System,maongozi,d,NA,NA,NA,k,NA,NA,5,NA,NA,NA,NA,NA,NA,NA,NA,NA,NA,NA,NA,NA,NA,NA,NA,NA,NA,NA
a74cf,"""Richtig""-Screen",canvas.Screen,3_0_5_0_2_0_1,NA,NA,skipped,NA,3354127.8,NA,NA,3354125.7,3354128,2023-06-01T16:21:12Z,3354135.899,NULL,System,maongozi,d,NA,NA,NA,NA,sdf,NA,5,NA,NA,NA,NA,NA,NA,NA,NA,NA,NA,NA,NA,NA,NA,NA,NA,NA,NA,NA
a74cf,"""Falsch""-Screen",canvas.Screen,3_0_5_0_2_0_2,NA,NA,timeout,4995.9309999999,3354128.5,3354119.823,3354135.899,3359115.913,3359116.3999999,2023-06-01T16:21:17Z,3359131.83,NULL,System,maongozi,d,NA,NA,NA,NA,sdf,0,5,NA,NA,NA,NA,NA,NA,NA,NA,NA,NA,NA,NA,NA,NA,NA,NA,NA,NA,NA
a74cf,deep,flow.Sequence,3_0_5_0_2_0,NA,NA,completion,6761.77,3352340.5,3352337.989,3352354.143,3359115.913,3359116.5999999,2023-06-01T16:21:17Z,3359131.83,NULL,System,maongozi,d,NA,NA,NA,NA,sdf,NA,5,NA,NA,NA,NA,NA,NA,NA,NA,NA,NA,NA,NA,NA,NA,NA,NA,NA,NA,NA
a74cf,shallow,flow.Sequence,3_0_5_0_2_1,NA,NA,skipped,NA,3359116.5999999,NA,NA,3359115.913,3359116.7,2023-06-01T16:21:17Z,3359131.83,NULL,System,maongozi,d,NA,NA,NA,NA,sdf,NA,5,NA,NA,NA,NA,NA,NA,NA,NA,NA,NA,NA,NA,NA,NA,NA,NA,NA,NA,NA
a74cf,task,flow.Sequence,3_0_5_0_2,NA,NA,completion,6761.77,3352340.3999999,3352337.989,3352354.143,3359115.913,3359116.8,2023-06-01T16:21:17Z,3359131.83,NULL,System,maongozi,d,NA,NA,NA,NA,sdf,NA,5,NA,NA,NA,NA,NA,NA,NA,NA,NA,NA,NA,NA,NA,NA,NA,NA,NA,NA,NA
a74cf,Deep Question,html.Page,3_0_5_0_3_0_0,NA,NA,form submission,2467.8700000476,3359116.8999999,3359115.913,3359131.83,3361599.7,3361599.8,2023-06-01T16:21:20Z,3361613.685,NULL,Konkurrent,mshindani,d,NA,NA,NA,j,NA,NA,5,NA,NA,NA,NA,NA,NA,NA,NA,NA,NA,NA,NA,NA,NA,NA,NA,NA,NA,NA
a74cf,"""Richtig""-Screen",canvas.Screen,3_0_5_0_3_0_1,NA,NA,skipped,NA,3361601.7,NA,NA,3361599.7,3361601.8999999,2023-06-01T16:21:20Z,3361613.685,NULL,Konkurrent,mshindani,d,NA,NA,NA,NA,sdf,NA,5,NA,NA,NA,NA,NA,NA,NA,NA,NA,NA,NA,NA,NA,NA,NA,NA,NA,NA,NA
a74cf,"""Falsch""-Screen",canvas.Screen,3_0_5_0_3_0_2,NA,NA,timeout,4995.8739999998,3361602.3,3361597.025,3361613.685,3366592.742,3366593.7,2023-06-01T16:21:25Z,3366609.559,NULL,Konkurrent,mshindani,d,NA,NA,NA,NA,sdf,0,5,NA,NA,NA,NA,NA,NA,NA,NA,NA,NA,NA,NA,NA,NA,NA,NA,NA,NA,NA
a74cf,deep,flow.Sequence,3_0_5_0_3_0,NA,NA,completion,7460.912,3359116.8999999,3359115.913,3359131.83,3366592.742,3366594.0999999,2023-06-01T16:21:25Z,3366609.559,NULL,Konkurrent,mshindani,d,NA,NA,NA,NA,sdf,NA,5,NA,NA,NA,NA,NA,NA,NA,NA,NA,NA,NA,NA,NA,NA,NA,NA,NA,NA,NA
a74cf,shallow,flow.Sequence,3_0_5_0_3_1,NA,NA,skipped,NA,3366594.3,NA,NA,3366592.742,3366594.3999999,2023-06-01T16:21:25Z,3366609.559,NULL,Konkurrent,mshindani,d,NA,NA,NA,NA,sdf,NA,5,NA,NA,NA,NA,NA,NA,NA,NA,NA,NA,NA,NA,NA,NA,NA,NA,NA,NA,NA
a74cf,task,flow.Sequence,3_0_5_0_3,NA,NA,completion,7460.912,3359116.8999999,3359115.913,3359131.83,3366592.742,3366594.8,2023-06-01T16:21:25Z,3366609.559,NULL,Konkurrent,mshindani,d,NA,NA,NA,NA,sdf,NA,5,NA,NA,NA,NA,NA,NA,NA,NA,NA,NA,NA,NA,NA,NA,NA,NA,NA,NA,NA
a74cf,Deep Question,html.Page,3_0_5_0_4_0_0,NA,NA,form submission,5562.4410000001,3366595,3366592.742,3366609.559,3372172,3372172.0999999,2023-06-01T16:21:31Z,3372188.134,NULL,Lawine,banguko,d,NA,NA,NA,banguko,NA,NA,5,NA,NA,NA,NA,NA,NA,NA,NA,NA,NA,NA,NA,NA,NA,NA,NA,NA,NA,NA
a74cf,"""Richtig""-Screen",canvas.Screen,3_0_5_0_4_0_1,NA,NA,timeout,4996.2050000001,3372173.8999999,3372171.632,3372188.134,3377167.517,3377168.3999999,2023-06-01T16:21:36Z,3377184.339,NULL,Lawine,banguko,d,NA,NA,NA,NA,sdf,1,5,NA,NA,NA,NA,NA,NA,NA,NA,NA,NA,NA,NA,NA,NA,NA,NA,NA,NA,NA
a74cf,"""Falsch""-Screen",canvas.Screen,3_0_5_0_4_0_2,NA,NA,skipped,NA,3377173,NA,NA,3377167.517,3377173,2023-06-01T16:21:36Z,3377184.339,NULL,Lawine,banguko,d,NA,NA,NA,NA,sdf,NA,5,NA,NA,NA,NA,NA,NA,NA,NA,NA,NA,NA,NA,NA,NA,NA,NA,NA,NA,NA
a74cf,deep,flow.Sequence,3_0_5_0_4_0,NA,NA,completion,10557.958,3366594.8999999,3366592.742,3366609.559,3377167.517,3377173.2,2023-06-01T16:21:36Z,3377184.339,NULL,Lawine,banguko,d,NA,NA,NA,NA,sdf,NA,5,NA,NA,NA,NA,NA,NA,NA,NA,NA,NA,NA,NA,NA,NA,NA,NA,NA,NA,NA
a74cf,shallow,flow.Sequence,3_0_5_0_4_1,NA,NA,skipped,NA,3377173.2,NA,NA,3377167.517,3377173.2,2023-06-01T16:21:36Z,3377184.339,NULL,Lawine,banguko,d,NA,NA,NA,NA,sdf,NA,5,NA,NA,NA,NA,NA,NA,NA,NA,NA,NA,NA,NA,NA,NA,NA,NA,NA,NA,NA
a74cf,task,flow.Sequence,3_0_5_0_4,NA,NA,completion,10557.958,3366594.8999999,3366592.742,3366609.559,3377167.517,3377173.2,2023-06-01T16:21:36Z,3377184.339,NULL,Lawine,banguko,d,NA,NA,NA,NA,sdf,NA,5,NA,NA,NA,NA,NA,NA,NA,NA,NA,NA,NA,NA,NA,NA,NA,NA,NA,NA,NA
a74cf,deep,flow.Sequence,3_0_5_0_5_0,NA,NA,skipped,NA,3377173.3,NA,NA,3377167.517,3377173.3,2023-06-01T16:21:36Z,3377184.339,NULL,Symbol,kielezo,s,kinyume,nderemo,utayari,NA,sdf,NA,5,NA,NA,NA,NA,NA,NA,NA,NA,NA,NA,NA,NA,NA,NA,NA,NA,NA,NA,NA
a74cf,Shallow Question,html.Page,3_0_5_0_5_1_0,NA,NA,form submission,6303.2609999045,3377173.3,3377167.517,3377184.339,3383487.5999999,3383487.7,2023-06-01T16:21:42Z,3383495.24,NULL,Symbol,kielezo,s,kinyume,nderemo,utayari,kinyume,NA,NA,5,NA,NA,NA,NA,NA,NA,NA,NA,NA,NA,NA,NA,NA,NA,NA,NA,NA,NA,NA
a74cf,"""Richtig""-Screen",canvas.Screen,3_0_5_0_5_1_1,NA,NA,skipped,NA,3383489.5999999,NA,NA,3383487.5999999,3383489.7,2023-06-01T16:21:42Z,3383495.24,NULL,Symbol,kielezo,s,kinyume,nderemo,utayari,NA,sdf,NA,5,NA,NA,NA,NA,NA,NA,NA,NA,NA,NA,NA,NA,NA,NA,NA,NA,NA,NA,NA
a74cf,"""Falsch""-Screen",canvas.Screen,3_0_5_0_5_1_2,NA,NA,timeout,4996.2509999997,3383490.3,3383478.918,3383495.24,3388474.702,3388475.7,2023-06-01T16:21:47Z,3388491.491,NULL,Symbol,kielezo,s,kinyume,nderemo,utayari,NA,sdf,0,5,NA,NA,NA,NA,NA,NA,NA,NA,NA,NA,NA,NA,NA,NA,NA,NA,NA,NA,NA
a74cf,shallow,flow.Sequence,3_0_5_0_5_1,NA,NA,completion,11290.363,3377173.3,3377167.517,3377184.339,3388474.702,3388476,2023-06-01T16:21:47Z,3388491.491,NULL,Symbol,kielezo,s,kinyume,nderemo,utayari,NA,sdf,NA,5,NA,NA,NA,NA,NA,NA,NA,NA,NA,NA,NA,NA,NA,NA,NA,NA,NA,NA,NA
a74cf,task,flow.Sequence,3_0_5_0_5,NA,NA,completion,11290.363,3377173.3,3377167.517,3377184.339,3388474.702,3388476.3,2023-06-01T16:21:47Z,3388491.491,NULL,Symbol,kielezo,s,kinyume,nderemo,utayari,NA,sdf,NA,5,NA,NA,NA,NA,NA,NA,NA,NA,NA,NA,NA,NA,NA,NA,NA,NA,NA,NA,NA
a74cf,deep,flow.Sequence,3_0_5_0_6_0,NA,NA,skipped,NA,3388476.3999999,NA,NA,3388474.702,3388476.5999999,2023-06-01T16:21:47Z,3388491.491,NULL,Körper,kiwiliwili,s,mapambano,mpatanishi,kiolezo,NA,sdf,NA,5,NA,NA,NA,NA,NA,NA,NA,NA,NA,NA,NA,NA,NA,NA,NA,NA,NA,NA,NA
a74cf,Shallow Question,html.Page,3_0_5_0_6_1_0,NA,NA,form submission,3580.5090000001,3388476.8,3388474.702,3388491.491,3392072,3392072.0999999,2023-06-01T16:21:50Z,3392087.995,NULL,Körper,kiwiliwili,s,mapambano,mpatanishi,kiolezo,kiwiliwili,NA,NA,5,NA,NA,NA,NA,NA,NA,NA,NA,NA,NA,NA,NA,NA,NA,NA,NA,NA,NA,NA
a74cf,"""Richtig""-Screen",canvas.Screen,3_0_5_0_6_1_1,NA,NA,timeout,4996.3309999998,3392074,3392054.974,3392087.995,3397067.708,3397068.5999999,2023-06-01T16:21:55Z,3397084.326,NULL,Körper,kiwiliwili,s,mapambano,mpatanishi,kiolezo,NA,sdf,1,5,NA,NA,NA,NA,NA,NA,NA,NA,NA,NA,NA,NA,NA,NA,NA,NA,NA,NA,NA
a74cf,"""Falsch""-Screen",canvas.Screen,3_0_5_0_6_1_2,NA,NA,skipped,NA,3397073.2,NA,NA,3397067.708,3397073.3,2023-06-01T16:21:55Z,3397084.326,NULL,Körper,kiwiliwili,s,mapambano,mpatanishi,kiolezo,NA,sdf,NA,5,NA,NA,NA,NA,NA,NA,NA,NA,NA,NA,NA,NA,NA,NA,NA,NA,NA,NA,NA
a74cf,shallow,flow.Sequence,3_0_5_0_6_1,NA,NA,completion,8576.2170000002,3388476.8,3388474.702,3388491.491,3397067.708,3397073.5,2023-06-01T16:21:55Z,3397084.326,NULL,Körper,kiwiliwili,s,mapambano,mpatanishi,kiolezo,NA,sdf,NA,5,NA,NA,NA,NA,NA,NA,NA,NA,NA,NA,NA,NA,NA,NA,NA,NA,NA,NA,NA
a74cf,task,flow.Sequence,3_0_5_0_6,NA,NA,completion,8576.2170000002,3388476.3999999,3388474.702,3388491.491,3397067.708,3397073.5,2023-06-01T16:21:55Z,3397084.326,NULL,Körper,kiwiliwili,s,mapambano,mpatanishi,kiolezo,NA,sdf,NA,5,NA,NA,NA,NA,NA,NA,NA,NA,NA,NA,NA,NA,NA,NA,NA,NA,NA,NA,NA
a74cf,deep,flow.Sequence,3_0_5_0_7_0,NA,NA,skipped,NA,3397073.5999999,NA,NA,3397067.708,3397073.7,2023-06-01T16:21:55Z,3397084.326,NULL,Übersicht,kilindo,s,mgusano,chipukizi,kulinganisha,NA,sdf,NA,5,NA,NA,NA,NA,NA,NA,NA,NA,NA,NA,NA,NA,NA,NA,NA,NA,NA,NA,NA
a74cf,Shallow Question,html.Page,3_0_5_0_7_1_0,NA,NA,form submission,5299.3740000478,3397073.7,3397067.708,3397084.326,3402383.7,3402383.8,2023-06-01T16:22:01Z,3402396.14,NULL,Übersicht,kilindo,s,mgusano,chipukizi,kulinganisha,kulinganisha,NA,NA,5,NA,NA,NA,NA,NA,NA,NA,NA,NA,NA,NA,NA,NA,NA,NA,NA,NA,NA,NA
a74cf,"""Richtig""-Screen",canvas.Screen,3_0_5_0_7_1_1,NA,NA,skipped,NA,3402385.5,NA,NA,3402383.7,3402385.7,2023-06-01T16:22:01Z,3402396.14,NULL,Übersicht,kilindo,s,mgusano,chipukizi,kulinganisha,NA,sdf,NA,5,NA,NA,NA,NA,NA,NA,NA,NA,NA,NA,NA,NA,NA,NA,NA,NA,NA,NA,NA
a74cf,"""Falsch""-Screen",canvas.Screen,3_0_5_0_7_1_2,NA,NA,timeout,4996.6369999996,3402386.2,3402379.84,3402396.14,3407375.944,3407376.8999999,2023-06-01T16:22:06Z,3407392.777,NULL,Übersicht,kilindo,s,mgusano,chipukizi,kulinganisha,NA,sdf,0,5,NA,NA,NA,NA,NA,NA,NA,NA,NA,NA,NA,NA,NA,NA,NA,NA,NA,NA,NA
a74cf,shallow,flow.Sequence,3_0_5_0_7_1,NA,NA,completion,10291.618,3397073.7,3397067.708,3397084.326,3407375.944,3407377.5,2023-06-01T16:22:06Z,3407392.777,NULL,Übersicht,kilindo,s,mgusano,chipukizi,kulinganisha,NA,sdf,NA,5,NA,NA,NA,NA,NA,NA,NA,NA,NA,NA,NA,NA,NA,NA,NA,NA,NA,NA,NA
a74cf,task,flow.Sequence,3_0_5_0_7,NA,NA,completion,10291.618,3397073.5999999,3397067.708,3397084.326,3407375.944,3407377.8999999,2023-06-01T16:22:06Z,3407392.777,NULL,Übersicht,kilindo,s,mgusano,chipukizi,kulinganisha,NA,sdf,NA,5,NA,NA,NA,NA,NA,NA,NA,NA,NA,NA,NA,NA,NA,NA,NA,NA,NA,NA,NA
a74cf,block,flow.Loop,3_0_5_0,NA,NA,completion,73023.724,3334339.7,3334336.042,3334352.22,3407375.944,3407378.2,2023-06-01T16:22:06Z,3407392.777,NULL,NA,NA,NA,NA,NA,NA,NA,sdf,NA,5,NA,NA,NA,NA,NA,NA,NA,NA,NA,NA,NA,NA,NA,NA,NA,NA,NA,NA,NA
a74cf,weiter,canvas.Screen,3_0_5_1,sdf,keypress(Space),response,1127.4230000479,3407378.3999999,3407375.944,3407392.777,3408520.2,3408521.3,2023-06-01T16:22:07Z,3408974.092,NULL,NA,NA,NA,NA,NA,NA,NA,sdf,NA,5,NA,NA,NA,NA,NA,NA,NA,NA,NA,NA,NA,NA,NA,NA,NA,NA,NA,NA,NA
a74cf,check continue,flow.Sequence,3_0_5,NA,NA,completion,74167.980000047,3334339.5999999,3334336.042,3334352.22,3408520.2,3408521.5,2023-06-01T16:22:07Z,3408974.092,NULL,NA,NA,NA,NA,NA,NA,NA,sdf,NA,5,NA,NA,NA,NA,NA,NA,NA,NA,NA,NA,NA,NA,NA,NA,NA,NA,NA,NA,NA
a74cf,check continue,flow.Sequence,3_0_6,NA,NA,skipped,NA,3408549.7,NA,NA,3408520.2,3408549.7,2023-06-01T16:22:07Z,3408974.092,NULL,NA,NA,NA,NA,NA,NA,NA,dfs,NA,6,NA,NA,NA,NA,NA,NA,NA,NA,NA,NA,NA,NA,NA,NA,NA,NA,NA,NA,NA
a74cf,check continue,flow.Sequence,3_0_7,NA,NA,skipped,NA,3408567.2,NA,NA,3408520.2,3408567.3,2023-06-01T16:22:07Z,3408974.092,NULL,NA,NA,NA,NA,NA,NA,NA,df,NA,7,NA,NA,NA,NA,NA,NA,NA,NA,NA,NA,NA,NA,NA,NA,NA,NA,NA,NA,NA
a74cf,check continue,flow.Sequence,3_0_8,NA,NA,skipped,NA,3408595.5999999,NA,NA,3408520.2,3408595.8,2023-06-01T16:22:07Z,3408974.092,NULL,NA,NA,NA,NA,NA,NA,NA,dfs,NA,8,NA,NA,NA,NA,NA,NA,NA,NA,NA,NA,NA,NA,NA,NA,NA,NA,NA,NA,NA
a74cf,check continue,flow.Sequence,3_0_9,NA,NA,skipped,NA,3408614.8999999,NA,NA,3408520.2,3408615,2023-06-01T16:22:07Z,3408974.092,NULL,NA,NA,NA,NA,NA,NA,NA,dsf,NA,9,NA,NA,NA,NA,NA,NA,NA,NA,NA,NA,NA,NA,NA,NA,NA,NA,NA,NA,NA
a74cf,check continue,flow.Sequence,3_0_10,NA,NA,skipped,NA,3408634,NA,NA,3408520.2,3408634.0999999,2023-06-01T16:22:07Z,3408974.092,NULL,NA,NA,NA,NA,NA,NA,NA,df,NA,10,NA,NA,NA,NA,NA,NA,NA,NA,NA,NA,NA,NA,NA,NA,NA,NA,NA,NA,NA
a74cf,check continue,flow.Sequence,3_0_11,NA,NA,skipped,NA,3408651.8999999,NA,NA,3408520.2,3408652,2023-06-01T16:22:07Z,3408974.092,NULL,NA,NA,NA,NA,NA,NA,NA,dfs,NA,11,NA,NA,NA,NA,NA,NA,NA,NA,NA,NA,NA,NA,NA,NA,NA,NA,NA,NA,NA
a74cf,check continue,flow.Sequence,3_0_12,NA,NA,skipped,NA,3408669.2,NA,NA,3408520.2,3408669.3,2023-06-01T16:22:07Z,3408974.092,NULL,NA,NA,NA,NA,NA,NA,NA,dsf,NA,12,NA,NA,NA,NA,NA,NA,NA,NA,NA,NA,NA,NA,NA,NA,NA,NA,NA,NA,NA
a74cf,check continue,flow.Sequence,3_0_13,NA,NA,skipped,NA,3408686.8,NA,NA,3408520.2,3408687,2023-06-01T16:22:07Z,3408974.092,NULL,NA,NA,NA,NA,NA,NA,NA,dsf,NA,13,NA,NA,NA,NA,NA,NA,NA,NA,NA,NA,NA,NA,NA,NA,NA,NA,NA,NA,NA
a74cf,check continue,flow.Sequence,3_0_14,NA,NA,skipped,NA,3408704.3999999,NA,NA,3408520.2,3408704.3999999,2023-06-01T16:22:07Z,3408974.092,NULL,NA,NA,NA,NA,NA,NA,NA,NA,NA,14,NA,NA,NA,NA,NA,NA,NA,NA,NA,NA,NA,NA,NA,NA,NA,NA,NA,NA,NA
a74cf,check continue,flow.Sequence,3_0_15,NA,NA,skipped,NA,3408721,NA,NA,3408520.2,3408721.0999999,2023-06-01T16:22:07Z,3408974.092,NULL,NA,NA,NA,NA,NA,NA,NA,NA,NA,15,NA,NA,NA,NA,NA,NA,NA,NA,NA,NA,NA,NA,NA,NA,NA,NA,NA,NA,NA
a74cf,check continue,flow.Sequence,3_0_16,NA,NA,skipped,NA,3408737,NA,NA,3408520.2,3408737.0999999,2023-06-01T16:22:07Z,3408974.092,NULL,NA,NA,NA,NA,NA,NA,NA,NA,NA,16,NA,NA,NA,NA,NA,NA,NA,NA,NA,NA,NA,NA,NA,NA,NA,NA,NA,NA,NA
a74cf,check continue,flow.Sequence,3_0_17,NA,NA,skipped,NA,3408753.3999999,NA,NA,3408520.2,3408753.5,2023-06-01T16:22:07Z,3408974.092,NULL,NA,NA,NA,NA,NA,NA,NA,NA,NA,17,NA,NA,NA,NA,NA,NA,NA,NA,NA,NA,NA,NA,NA,NA,NA,NA,NA,NA,NA
a74cf,check continue,flow.Sequence,3_0_18,NA,NA,skipped,NA,3408771.3,NA,NA,3408520.2,3408771.3999999,2023-06-01T16:22:07Z,3408974.092,NULL,NA,NA,NA,NA,NA,NA,NA,NA,NA,18,NA,NA,NA,NA,NA,NA,NA,NA,NA,NA,NA,NA,NA,NA,NA,NA,NA,NA,NA
a74cf,check continue,flow.Sequence,3_0_19,NA,NA,skipped,NA,3408788.3999999,NA,NA,3408520.2,3408788.5,2023-06-01T16:22:07Z,3408974.092,NULL,NA,NA,NA,NA,NA,NA,NA,NA,NA,19,NA,NA,NA,NA,NA,NA,NA,NA,NA,NA,NA,NA,NA,NA,NA,NA,NA,NA,NA
a74cf,check continue,flow.Sequence,3_0_20,NA,NA,skipped,NA,3408806.8,NA,NA,3408520.2,3408806.8999999,2023-06-01T16:22:07Z,3408974.092,NULL,NA,NA,NA,NA,NA,NA,NA,NA,NA,20,NA,NA,NA,NA,NA,NA,NA,NA,NA,NA,NA,NA,NA,NA,NA,NA,NA,NA,NA
a74cf,check continue,flow.Sequence,3_0_21,NA,NA,skipped,NA,3408821.8,NA,NA,3408520.2,3408821.8999999,2023-06-01T16:22:07Z,3408974.092,NULL,NA,NA,NA,NA,NA,NA,NA,NA,NA,21,NA,NA,NA,NA,NA,NA,NA,NA,NA,NA,NA,NA,NA,NA,NA,NA,NA,NA,NA
a74cf,check continue,flow.Sequence,3_0_22,NA,NA,skipped,NA,3408837.8999999,NA,NA,3408520.2,3408837.8999999,2023-06-01T16:22:07Z,3408974.092,NULL,NA,NA,NA,NA,NA,NA,NA,NA,NA,22,NA,NA,NA,NA,NA,NA,NA,NA,NA,NA,NA,NA,NA,NA,NA,NA,NA,NA,NA
a74cf,check continue,flow.Sequence,3_0_23,NA,NA,skipped,NA,3408853.8,NA,NA,3408520.2,3408853.8999999,2023-06-01T16:22:07Z,3408974.092,NULL,NA,NA,NA,NA,NA,NA,NA,NA,NA,23,NA,NA,NA,NA,NA,NA,NA,NA,NA,NA,NA,NA,NA,NA,NA,NA,NA,NA,NA
