observation,sender,sender_type,sender_id,response,response_action,ended_on,duration,time_run,time_render,time_show,time_end,time_commit,timestamp,time_switch,german,swahili,enc,distractor1,distractor2,distractor3,response_2,x,correct,distractors,url_vp,url_sess,meta_labjs_version,meta_location,meta_user_agent,meta_platform,meta_language,meta_locale,meta_time_zone,meta_timezone_offset,meta_screen_width,meta_screen_height,meta_scroll_width,meta_scroll_height,meta_window_inner_width,meta_window_inner_height,meta_device_pixel_ratio,meta_labjs_build_flavor,meta_labjs_build_commit
18d7d,Introduction delayed retrieval,canvas.Screen,0,weiter,keypress(Space),response,6342.133,286.30000000447,274.201,290.867,6633,6640.700000003,2023-06-03T08:40:12Z,6640.613,NA,NA,NA,NA,NA,NA,NA,NA,NA,NULL,219,2,20.2.4,https://neurocog.fernuni.ch/studies/vweber/sfink/delayed/index.html?vp=219&sess=2,"Mozilla/5.0 (Macintosh; Intel Mac OS X 10_15_7) AppleWebKit/537.36 (KHTML, like Gecko) Chrome/114.0.0.0 Safari/537.36",MacIntel,en-GB,en-GB,Europe/Zurich,-120,1440,900,1200,647,1200,695,2,production,f5b4a49f956347addd546a832a3327688c2c0fef
18d7d,Deep Question,html.Page,1_0_0_0,NA,NA,form submission,13829.286999999,6641.200000003,6623.947,6640.613,20469.899999999,20470.300000004,2023-06-03T08:40:26Z,20474.471,Sänger,mwimbaji,d,msichana,shughuli,mshirika,mwimbaji,NA,NA,NULL,NA,NA,NA,NA,NA,NA,NA,NA,NA,NA,NA,NA,NA,NA,NA,NA,NA,NA,NA
18d7d,Save data screen,canvas.Screen,1_0_0_1,NA,NA,timeout,499.98,20471.600000001,20457.805,20474.471,20957.785,20962.200000003,2023-06-03T08:40:27Z,20974.451,Sänger,mwimbaji,d,msichana,shughuli,mshirika,NA,NA,1,NULL,NA,NA,NA,NA,NA,NA,NA,NA,NA,NA,NA,NA,NA,NA,NA,NA,NA,NA,NA
18d7d,deep,flow.Sequence,1_0_0,NA,NA,completion,14317.172,6641.1000000015,6623.947,6640.613,20957.785,20962.5,2023-06-03T08:40:27Z,20974.451,Sänger,mwimbaji,d,msichana,shughuli,mshirika,NA,NA,NA,NULL,NA,NA,NA,NA,NA,NA,NA,NA,NA,NA,NA,NA,NA,NA,NA,NA,NA,NA,NA
18d7d,task,flow.Sequence,1_0,NA,NA,completion,14317.172,6641.1000000015,6623.947,6640.613,20957.785,20962.600000001,2023-06-03T08:40:27Z,20974.451,Sänger,mwimbaji,d,msichana,shughuli,mshirika,NA,NA,NA,NULL,NA,NA,NA,NA,NA,NA,NA,NA,NA,NA,NA,NA,NA,NA,NA,NA,NA,NA,NA
18d7d,Deep Question,html.Page,1_1_0_0,NA,NA,form submission,4633.6490000015,20962.800000004,20957.785,20974.451,25608.100000001,25608.200000003,2023-06-03T08:40:31Z,25608.311,Aufstand,ugomaji,d,mazidio,msingi,kujieleza,j,NA,NA,NULL,NA,NA,NA,NA,NA,NA,NA,NA,NA,NA,NA,NA,NA,NA,NA,NA,NA,NA,NA
18d7d,Save data screen,canvas.Screen,1_1_0_1,NA,NA,timeout,499.98,25608.5,25591.645,25608.311,26091.625,26092.899999999,2023-06-03T08:40:32Z,26108.291,Aufstand,ugomaji,d,mazidio,msingi,kujieleza,NA,NA,0,NULL,NA,NA,NA,NA,NA,NA,NA,NA,NA,NA,NA,NA,NA,NA,NA,NA,NA,NA,NA
18d7d,deep,flow.Sequence,1_1_0,NA,NA,completion,5117.174,20962.700000003,20957.785,20974.451,26091.625,26092.899999999,2023-06-03T08:40:32Z,26108.291,Aufstand,ugomaji,d,mazidio,msingi,kujieleza,NA,NA,NA,NULL,NA,NA,NA,NA,NA,NA,NA,NA,NA,NA,NA,NA,NA,NA,NA,NA,NA,NA,NA
18d7d,task,flow.Sequence,1_1,NA,NA,completion,5117.174,20962.600000001,20957.785,20974.451,26091.625,26093,2023-06-03T08:40:32Z,26108.291,Aufstand,ugomaji,d,mazidio,msingi,kujieleza,NA,NA,NA,NULL,NA,NA,NA,NA,NA,NA,NA,NA,NA,NA,NA,NA,NA,NA,NA,NA,NA,NA,NA
18d7d,Deep Question,html.Page,1_2_0_0,NA,NA,form submission,3330.209,26093,26091.625,26108.291,29438.5,29439,2023-06-03T08:40:35Z,29441.491,Können,unaweza,d,kiongozi,bustani,mienendo,wizi,NA,NA,NULL,NA,NA,NA,NA,NA,NA,NA,NA,NA,NA,NA,NA,NA,NA,NA,NA,NA,NA,NA
18d7d,Save data screen,canvas.Screen,1_2_0_1,NA,NA,timeout,499.98,29440.399999999,29424.825,29441.491,29924.805,29929,2023-06-03T08:40:36Z,29941.471,Können,unaweza,d,kiongozi,bustani,mienendo,NA,NA,0,NULL,NA,NA,NA,NA,NA,NA,NA,NA,NA,NA,NA,NA,NA,NA,NA,NA,NA,NA,NA
18d7d,deep,flow.Sequence,1_2_0,NA,NA,completion,3816.514,26093,26091.625,26108.291,29924.805,29929.399999999,2023-06-03T08:40:36Z,29941.471,Können,unaweza,d,kiongozi,bustani,mienendo,NA,NA,NA,NULL,NA,NA,NA,NA,NA,NA,NA,NA,NA,NA,NA,NA,NA,NA,NA,NA,NA,NA,NA
18d7d,task,flow.Sequence,1_2,NA,NA,completion,3816.514,26093,26091.625,26108.291,29924.805,29929.600000001,2023-06-03T08:40:36Z,29941.471,Können,unaweza,d,kiongozi,bustani,mienendo,NA,NA,NA,NULL,NA,NA,NA,NA,NA,NA,NA,NA,NA,NA,NA,NA,NA,NA,NA,NA,NA,NA,NA
18d7d,Deep Question,html.Page,1_3_0_0,NA,NA,form submission,1465.4289999985,29929.899999999,29924.805,29941.471,31406.899999999,31407.100000001,2023-06-03T08:40:37Z,31408.079,System,maongozi,d,chokochoko,nuksani,mitaani,j,NA,NA,NULL,NA,NA,NA,NA,NA,NA,NA,NA,NA,NA,NA,NA,NA,NA,NA,NA,NA,NA,NA
18d7d,Save data screen,canvas.Screen,1_3_0_1,NA,NA,timeout,499.98,31407.800000004,31391.413,31408.079,31891.393,31896.100000001,2023-06-03T08:40:38Z,31908.059,System,maongozi,d,chokochoko,nuksani,mitaani,NA,NA,0,NULL,NA,NA,NA,NA,NA,NA,NA,NA,NA,NA,NA,NA,NA,NA,NA,NA,NA,NA,NA
18d7d,deep,flow.Sequence,1_3_0,NA,NA,completion,1949.922,29929.800000004,29924.805,29941.471,31891.393,31896.5,2023-06-03T08:40:38Z,31908.059,System,maongozi,d,chokochoko,nuksani,mitaani,NA,NA,NA,NULL,NA,NA,NA,NA,NA,NA,NA,NA,NA,NA,NA,NA,NA,NA,NA,NA,NA,NA,NA
18d7d,task,flow.Sequence,1_3,NA,NA,completion,1949.922,29929.700000003,29924.805,29941.471,31891.393,31896.700000003,2023-06-03T08:40:38Z,31908.059,System,maongozi,d,chokochoko,nuksani,mitaani,NA,NA,NA,NULL,NA,NA,NA,NA,NA,NA,NA,NA,NA,NA,NA,NA,NA,NA,NA,NA,NA,NA,NA
18d7d,Deep Question,html.Page,1_4_0_0,NA,NA,form submission,4762.5410000015,31896.899999999,31891.393,31908.059,36670.600000001,36671.100000001,2023-06-03T08:40:43Z,36675.249,Lawine,banguko,d,maambukizi,usuluhishi,chekechea,banguko,NA,NA,NULL,NA,NA,NA,NA,NA,NA,NA,NA,NA,NA,NA,NA,NA,NA,NA,NA,NA,NA,NA
18d7d,Save data screen,canvas.Screen,1_4_0_1,NA,NA,timeout,499.98,36672.100000001,36658.583,36675.249,37158.563,37163,2023-06-03T08:40:43Z,37175.229,Lawine,banguko,d,maambukizi,usuluhishi,chekechea,NA,NA,1,NULL,NA,NA,NA,NA,NA,NA,NA,NA,NA,NA,NA,NA,NA,NA,NA,NA,NA,NA,NA
18d7d,deep,flow.Sequence,1_4_0,NA,NA,completion,5250.504,31896.899999999,31891.393,31908.059,37158.563,37163.399999999,2023-06-03T08:40:43Z,37175.229,Lawine,banguko,d,maambukizi,usuluhishi,chekechea,NA,NA,NA,NULL,NA,NA,NA,NA,NA,NA,NA,NA,NA,NA,NA,NA,NA,NA,NA,NA,NA,NA,NA
18d7d,task,flow.Sequence,1_4,NA,NA,completion,5250.504,31896.899999999,31891.393,31908.059,37158.563,37163.600000001,2023-06-03T08:40:43Z,37175.229,Lawine,banguko,d,maambukizi,usuluhishi,chekechea,NA,NA,NA,NULL,NA,NA,NA,NA,NA,NA,NA,NA,NA,NA,NA,NA,NA,NA,NA,NA,NA,NA,NA
18d7d,Deep Question,html.Page,1_5_0_0,NA,NA,form submission,1758.471000003,37163.800000004,37158.563,37175.229,38933.700000003,38934.100000001,2023-06-03T08:40:45Z,38941.825,Übersicht,kilindo,s,mgusano,chipukizi,kulinganisha,j,NA,NA,NULL,NA,NA,NA,NA,NA,NA,NA,NA,NA,NA,NA,NA,NA,NA,NA,NA,NA,NA,NA
18d7d,Save data screen,canvas.Screen,1_5_0_1,NA,NA,timeout,499.98,38935,38925.159,38941.825,39425.139,39429.600000001,2023-06-03T08:40:45Z,39441.805,Übersicht,kilindo,s,mgusano,chipukizi,kulinganisha,NA,NA,0,NULL,NA,NA,NA,NA,NA,NA,NA,NA,NA,NA,NA,NA,NA,NA,NA,NA,NA,NA,NA
18d7d,deep,flow.Sequence,1_5_0,NA,NA,completion,2249.91,37163.700000003,37158.563,37175.229,39425.139,39430.100000001,2023-06-03T08:40:45Z,39441.805,Übersicht,kilindo,s,mgusano,chipukizi,kulinganisha,NA,NA,NA,NULL,NA,NA,NA,NA,NA,NA,NA,NA,NA,NA,NA,NA,NA,NA,NA,NA,NA,NA,NA
18d7d,task,flow.Sequence,1_5,NA,NA,completion,2249.91,37163.600000001,37158.563,37175.229,39425.139,39430.300000004,2023-06-03T08:40:45Z,39441.805,Übersicht,kilindo,s,mgusano,chipukizi,kulinganisha,NA,NA,NA,NULL,NA,NA,NA,NA,NA,NA,NA,NA,NA,NA,NA,NA,NA,NA,NA,NA,NA,NA,NA
18d7d,Deep Question,html.Page,1_6_0_0,NA,NA,form submission,3661.9950000045,39430.5,39425.139,39441.805,43103.800000004,43104.200000003,2023-06-03T08:40:49Z,43108.325,Gefährdung,kuhatarisha,s,uchokozi,udhaifu,makorowezo,banguko,NA,NA,NULL,NA,NA,NA,NA,NA,NA,NA,NA,NA,NA,NA,NA,NA,NA,NA,NA,NA,NA,NA
18d7d,Save data screen,canvas.Screen,1_6_0_1,NA,NA,timeout,499.98,43105.300000004,43091.659,43108.325,43591.639,43596.399999999,2023-06-03T08:40:49Z,43608.305,Gefährdung,kuhatarisha,s,uchokozi,udhaifu,makorowezo,NA,NA,0,NULL,NA,NA,NA,NA,NA,NA,NA,NA,NA,NA,NA,NA,NA,NA,NA,NA,NA,NA,NA
18d7d,deep,flow.Sequence,1_6_0,NA,NA,completion,4149.834,39430.5,39425.139,39441.805,43591.639,43596.800000004,2023-06-03T08:40:49Z,43608.305,Gefährdung,kuhatarisha,s,uchokozi,udhaifu,makorowezo,NA,NA,NA,NULL,NA,NA,NA,NA,NA,NA,NA,NA,NA,NA,NA,NA,NA,NA,NA,NA,NA,NA,NA
18d7d,task,flow.Sequence,1_6,NA,NA,completion,4149.834,39430.399999999,39425.139,39441.805,43591.639,43597,2023-06-03T08:40:49Z,43608.305,Gefährdung,kuhatarisha,s,uchokozi,udhaifu,makorowezo,NA,NA,NA,NULL,NA,NA,NA,NA,NA,NA,NA,NA,NA,NA,NA,NA,NA,NA,NA,NA,NA,NA,NA
18d7d,Deep Question,html.Page,1_7_0_0,NA,NA,form submission,5086.895000003,43597.300000004,43591.639,43608.305,48695.200000003,48695.700000003,2023-06-03T08:40:55Z,48708.101,Angreifer,mshambulizi,d,kitengo,tasinia,usafirishaji,j,NA,NA,NULL,NA,NA,NA,NA,NA,NA,NA,NA,NA,NA,NA,NA,NA,NA,NA,NA,NA,NA,NA
18d7d,Save data screen,canvas.Screen,1_7_0_1,NA,NA,timeout,499.98,48696.899999999,48691.435,48708.101,49191.415,49195.600000001,2023-06-03T08:40:55Z,49208.081,Angreifer,mshambulizi,d,kitengo,tasinia,usafirishaji,NA,NA,0,NULL,NA,NA,NA,NA,NA,NA,NA,NA,NA,NA,NA,NA,NA,NA,NA,NA,NA,NA,NA
18d7d,deep,flow.Sequence,1_7_0,NA,NA,completion,5583.11,43597.300000004,43591.639,43608.305,49191.415,49196.100000001,2023-06-03T08:40:55Z,49208.081,Angreifer,mshambulizi,d,kitengo,tasinia,usafirishaji,NA,NA,NA,NULL,NA,NA,NA,NA,NA,NA,NA,NA,NA,NA,NA,NA,NA,NA,NA,NA,NA,NA,NA
18d7d,task,flow.Sequence,1_7,NA,NA,completion,5583.11,43597.200000003,43591.639,43608.305,49191.415,49196.200000003,2023-06-03T08:40:55Z,49208.081,Angreifer,mshambulizi,d,kitengo,tasinia,usafirishaji,NA,NA,NA,NULL,NA,NA,NA,NA,NA,NA,NA,NA,NA,NA,NA,NA,NA,NA,NA,NA,NA,NA,NA
18d7d,Deep Question,html.Page,1_8_0_0,NA,NA,form submission,8965.419,49196.5,49191.415,49208.081,58173.5,58174,2023-06-03T08:41:04Z,58175.85,Körper,kiwiliwili,s,mapambano,mpatanishi,kiolezo,kiwili,NA,NA,NULL,NA,NA,NA,NA,NA,NA,NA,NA,NA,NA,NA,NA,NA,NA,NA,NA,NA,NA,NA
18d7d,Save data screen,canvas.Screen,1_8_0_1,NA,NA,timeout,499.98,58175.300000004,58159.184,58175.85,58659.164,58663,2023-06-03T08:41:05Z,58675.83,Körper,kiwiliwili,s,mapambano,mpatanishi,kiolezo,NA,NA,0,NULL,NA,NA,NA,NA,NA,NA,NA,NA,NA,NA,NA,NA,NA,NA,NA,NA,NA,NA,NA
18d7d,deep,flow.Sequence,1_8_0,NA,NA,completion,9451.083,49196.5,49191.415,49208.081,58659.164,58663.399999999,2023-06-03T08:41:05Z,58675.83,Körper,kiwiliwili,s,mapambano,mpatanishi,kiolezo,NA,NA,NA,NULL,NA,NA,NA,NA,NA,NA,NA,NA,NA,NA,NA,NA,NA,NA,NA,NA,NA,NA,NA
18d7d,task,flow.Sequence,1_8,NA,NA,completion,9451.083,49196.399999999,49191.415,49208.081,58659.164,58663.600000001,2023-06-03T08:41:05Z,58675.83,Körper,kiwiliwili,s,mapambano,mpatanishi,kiolezo,NA,NA,NA,NULL,NA,NA,NA,NA,NA,NA,NA,NA,NA,NA,NA,NA,NA,NA,NA,NA,NA,NA,NA
18d7d,Deep Question,html.Page,1_9_0_0,NA,NA,form submission,3155.67,58663.800000004,58659.164,58675.83,61831.5,61831.899999999,2023-06-03T08:41:08Z,61842.37,Kultur,utamaduni,s,shetani,gerezani,mazingira,uni,NA,NA,NULL,NA,NA,NA,NA,NA,NA,NA,NA,NA,NA,NA,NA,NA,NA,NA,NA,NA,NA,NA
18d7d,Save data screen,canvas.Screen,1_9_0_1,NA,NA,timeout,499.98,61832.899999999,61825.704,61842.37,62325.684,62331,2023-06-03T08:41:08Z,62342.35,Kultur,utamaduni,s,shetani,gerezani,mazingira,NA,NA,0,NULL,NA,NA,NA,NA,NA,NA,NA,NA,NA,NA,NA,NA,NA,NA,NA,NA,NA,NA,NA
18d7d,deep,flow.Sequence,1_9_0,NA,NA,completion,3649.854,58663.800000004,58659.164,58675.83,62325.684,62331.300000004,2023-06-03T08:41:08Z,62342.35,Kultur,utamaduni,s,shetani,gerezani,mazingira,NA,NA,NA,NULL,NA,NA,NA,NA,NA,NA,NA,NA,NA,NA,NA,NA,NA,NA,NA,NA,NA,NA,NA
18d7d,task,flow.Sequence,1_9,NA,NA,completion,3649.854,58663.800000004,58659.164,58675.83,62325.684,62331.5,2023-06-03T08:41:08Z,62342.35,Kultur,utamaduni,s,shetani,gerezani,mazingira,NA,NA,NA,NULL,NA,NA,NA,NA,NA,NA,NA,NA,NA,NA,NA,NA,NA,NA,NA,NA,NA,NA,NA
18d7d,Deep Question,html.Page,1_10_0_0,NA,NA,form submission,7352.9500000045,62331.800000004,62325.684,62342.35,69695.300000004,69695.800000004,2023-06-03T08:41:16Z,69709.436,Verzögerung,kuchelewa,s,mwakilishi,mwanauchumi,jaribio,kuchelewa,NA,NA,NULL,NA,NA,NA,NA,NA,NA,NA,NA,NA,NA,NA,NA,NA,NA,NA,NA,NA,NA,NA
18d7d,Save data screen,canvas.Screen,1_10_0_1,NA,NA,timeout,499.98,69698.700000003,69692.77,69709.436,70192.75,70197.300000004,2023-06-03T08:41:16Z,70209.416,Verzögerung,kuchelewa,s,mwakilishi,mwanauchumi,jaribio,NA,NA,1,NULL,NA,NA,NA,NA,NA,NA,NA,NA,NA,NA,NA,NA,NA,NA,NA,NA,NA,NA,NA
18d7d,deep,flow.Sequence,1_10_0,NA,NA,completion,7850.4,62331.700000003,62325.684,62342.35,70192.75,70197.600000001,2023-06-03T08:41:16Z,70209.416,Verzögerung,kuchelewa,s,mwakilishi,mwanauchumi,jaribio,NA,NA,NA,NULL,NA,NA,NA,NA,NA,NA,NA,NA,NA,NA,NA,NA,NA,NA,NA,NA,NA,NA,NA
18d7d,task,flow.Sequence,1_10,NA,NA,completion,7850.4,62331.600000001,62325.684,62342.35,70192.75,70197.800000004,2023-06-03T08:41:16Z,70209.416,Verzögerung,kuchelewa,s,mwakilishi,mwanauchumi,jaribio,NA,NA,NA,NULL,NA,NA,NA,NA,NA,NA,NA,NA,NA,NA,NA,NA,NA,NA,NA,NA,NA,NA,NA
18d7d,Deep Question,html.Page,1_11_0_0,NA,NA,form submission,3294.784000003,70198,70192.75,70209.416,73504.200000003,73504.600000001,2023-06-03T08:41:19Z,73509.284,Kreativität,ubunifu,d,mratibu,mwendelezo,makubaliano,u,NA,NA,NULL,NA,NA,NA,NA,NA,NA,NA,NA,NA,NA,NA,NA,NA,NA,NA,NA,NA,NA,NA
18d7d,Save data screen,canvas.Screen,1_11_0_1,NA,NA,timeout,499.98,73506.600000001,73492.618,73509.284,73992.598,73997.800000004,2023-06-03T08:41:20Z,74009.264,Kreativität,ubunifu,d,mratibu,mwendelezo,makubaliano,NA,NA,0,NULL,NA,NA,NA,NA,NA,NA,NA,NA,NA,NA,NA,NA,NA,NA,NA,NA,NA,NA,NA
18d7d,deep,flow.Sequence,1_11_0,NA,NA,completion,3783.182,70198,70192.75,70209.416,73992.598,73998.100000001,2023-06-03T08:41:20Z,74009.264,Kreativität,ubunifu,d,mratibu,mwendelezo,makubaliano,NA,NA,NA,NULL,NA,NA,NA,NA,NA,NA,NA,NA,NA,NA,NA,NA,NA,NA,NA,NA,NA,NA,NA
18d7d,task,flow.Sequence,1_11,NA,NA,completion,3783.182,70197.899999999,70192.75,70209.416,73992.598,73998.300000004,2023-06-03T08:41:20Z,74009.264,Kreativität,ubunifu,d,mratibu,mwendelezo,makubaliano,NA,NA,NA,NULL,NA,NA,NA,NA,NA,NA,NA,NA,NA,NA,NA,NA,NA,NA,NA,NA,NA,NA,NA
18d7d,Deep Question,html.Page,1_12_0_0,NA,NA,form submission,2300.3360000015,73998.5,73992.598,74009.264,76309.600000001,76310,2023-06-03T08:41:22Z,76309.908,Prüfung,mtihani,d,mkulima,mtizamo,ufumbuzi,k,NA,NA,NULL,NA,NA,NA,NA,NA,NA,NA,NA,NA,NA,NA,NA,NA,NA,NA,NA,NA,NA,NA
18d7d,Save data screen,canvas.Screen,1_12_0_1,NA,NA,timeout,499.98000000001,76312.100000001,76293.242,76309.908,76793.222,76798.600000001,2023-06-03T08:41:23Z,76809.888,Prüfung,mtihani,d,mkulima,mtizamo,ufumbuzi,NA,NA,0,NULL,NA,NA,NA,NA,NA,NA,NA,NA,NA,NA,NA,NA,NA,NA,NA,NA,NA,NA,NA
18d7d,deep,flow.Sequence,1_12_0,NA,NA,completion,2783.958,73998.5,73992.598,74009.264,76793.222,76798.899999999,2023-06-03T08:41:23Z,76809.888,Prüfung,mtihani,d,mkulima,mtizamo,ufumbuzi,NA,NA,NA,NULL,NA,NA,NA,NA,NA,NA,NA,NA,NA,NA,NA,NA,NA,NA,NA,NA,NA,NA,NA
18d7d,task,flow.Sequence,1_12,NA,NA,completion,2783.958,73998.5,73992.598,74009.264,76793.222,76799.200000003,2023-06-03T08:41:23Z,76809.888,Prüfung,mtihani,d,mkulima,mtizamo,ufumbuzi,NA,NA,NA,NULL,NA,NA,NA,NA,NA,NA,NA,NA,NA,NA,NA,NA,NA,NA,NA,NA,NA,NA,NA
18d7d,Deep Question,html.Page,1_13_0_0,NA,NA,form submission,3918.312000003,76799.399999999,76793.222,76809.888,80728.200000003,80728.700000003,2023-06-03T08:41:27Z,80743.064,Kanzler,diwani,s,rasilmali,mahitaji,maabudu,diwini,NA,NA,NULL,NA,NA,NA,NA,NA,NA,NA,NA,NA,NA,NA,NA,NA,NA,NA,NA,NA,NA,NA
18d7d,Save data screen,canvas.Screen,1_13_0_1,NA,NA,timeout,499.98,80731,80726.398,80743.064,81226.378,81228.700000003,2023-06-03T08:41:27Z,81243.044,Kanzler,diwani,s,rasilmali,mahitaji,maabudu,NA,NA,0,NULL,NA,NA,NA,NA,NA,NA,NA,NA,NA,NA,NA,NA,NA,NA,NA,NA,NA,NA,NA
18d7d,deep,flow.Sequence,1_13_0,NA,NA,completion,4416.49,76799.399999999,76793.222,76809.888,81226.378,81229.200000003,2023-06-03T08:41:27Z,81243.044,Kanzler,diwani,s,rasilmali,mahitaji,maabudu,NA,NA,NA,NULL,NA,NA,NA,NA,NA,NA,NA,NA,NA,NA,NA,NA,NA,NA,NA,NA,NA,NA,NA
18d7d,task,flow.Sequence,1_13,NA,NA,completion,4416.49,76799.300000004,76793.222,76809.888,81226.378,81229.399999999,2023-06-03T08:41:27Z,81243.044,Kanzler,diwani,s,rasilmali,mahitaji,maabudu,NA,NA,NA,NULL,NA,NA,NA,NA,NA,NA,NA,NA,NA,NA,NA,NA,NA,NA,NA,NA,NA,NA,NA
18d7d,Deep Question,html.Page,1_14_0_0,NA,NA,form submission,1997.8559999985,81229.600000001,81226.378,81243.044,83240.899999999,83241.300000004,2023-06-03T08:41:29Z,83242.964,Kontrolle,kudhibiti,s,mbinguni,kufunga,utegemezi,k,NA,NA,NULL,NA,NA,NA,NA,NA,NA,NA,NA,NA,NA,NA,NA,NA,NA,NA,NA,NA,NA,NA
18d7d,Save data screen,canvas.Screen,1_14_0_1,NA,NA,timeout,499.98,83242.200000003,83226.298,83242.964,83726.278,83730.200000003,2023-06-03T08:41:30Z,83742.944,Kontrolle,kudhibiti,s,mbinguni,kufunga,utegemezi,NA,NA,0,NULL,NA,NA,NA,NA,NA,NA,NA,NA,NA,NA,NA,NA,NA,NA,NA,NA,NA,NA,NA
18d7d,deep,flow.Sequence,1_14_0,NA,NA,completion,2483.234,81229.600000001,81226.378,81243.044,83726.278,83730.600000001,2023-06-03T08:41:30Z,83742.944,Kontrolle,kudhibiti,s,mbinguni,kufunga,utegemezi,NA,NA,NA,NULL,NA,NA,NA,NA,NA,NA,NA,NA,NA,NA,NA,NA,NA,NA,NA,NA,NA,NA,NA
18d7d,task,flow.Sequence,1_14,NA,NA,completion,2483.234,81229.600000001,81226.378,81243.044,83726.278,83730.700000003,2023-06-03T08:41:30Z,83742.944,Kontrolle,kudhibiti,s,mbinguni,kufunga,utegemezi,NA,NA,NA,NULL,NA,NA,NA,NA,NA,NA,NA,NA,NA,NA,NA,NA,NA,NA,NA,NA,NA,NA,NA
18d7d,Deep Question,html.Page,1_15_0_0,NA,NA,form submission,1477.3560000045,83731,83726.278,83742.944,85220.300000004,85220.800000004,2023-06-03T08:41:31Z,85226.218,Abrechnung,uhasibu,s,kusahihisha,mpambano,mashambulizi,k,NA,NA,NULL,NA,NA,NA,NA,NA,NA,NA,NA,NA,NA,NA,NA,NA,NA,NA,NA,NA,NA,NA
18d7d,Save data screen,canvas.Screen,1_15_0_1,NA,NA,timeout,499.98000000001,85221.899999999,85209.552,85226.218,85709.532,85712.100000001,2023-06-03T08:41:32Z,85726.198,Abrechnung,uhasibu,s,kusahihisha,mpambano,mashambulizi,NA,NA,0,NULL,NA,NA,NA,NA,NA,NA,NA,NA,NA,NA,NA,NA,NA,NA,NA,NA,NA,NA,NA
18d7d,deep,flow.Sequence,1_15_0,NA,NA,completion,1966.588,83731,83726.278,83742.944,85709.532,85712.300000004,2023-06-03T08:41:32Z,85726.198,Abrechnung,uhasibu,s,kusahihisha,mpambano,mashambulizi,NA,NA,NA,NULL,NA,NA,NA,NA,NA,NA,NA,NA,NA,NA,NA,NA,NA,NA,NA,NA,NA,NA,NA
18d7d,task,flow.Sequence,1_15,NA,NA,completion,1966.588,83730.899999999,83726.278,83742.944,85709.532,85712.5,2023-06-03T08:41:32Z,85726.198,Abrechnung,uhasibu,s,kusahihisha,mpambano,mashambulizi,NA,NA,NA,NULL,NA,NA,NA,NA,NA,NA,NA,NA,NA,NA,NA,NA,NA,NA,NA,NA,NA,NA,NA
18d7d,retrieval block 1 (cued recall),flow.Loop,1,NA,NA,completion,79068.919,6641,6623.947,6640.613,85709.532,85712.600000001,2023-06-03T08:41:32Z,85726.198,NA,NA,NA,NA,NA,NA,NA,NA,NA,NULL,NA,NA,NA,NA,NA,NA,NA,NA,NA,NA,NA,NA,NA,NA,NA,NA,NA,NA,NA
18d7d,Shallow Question,html.Page,2_0_0_0,NA,NA,form submission,2680.502000003,85712.700000003,85709.532,85726.198,88406.700000003,88407.100000001,2023-06-03T08:41:34Z,88410.18,Verzögerung,kuchelewa,s,mwakilishi,mwanauchumi,jaribio,kuchelewa,NA,NA,"c(""distractor1"", ""distractor2"", ""distractor3"")",NA,NA,NA,NA,NA,NA,NA,NA,NA,NA,NA,NA,NA,NA,NA,NA,NA,NA,NA
18d7d,Save data screen,canvas.Screen,2_0_0_1,NA,NA,timeout,499.98000000001,88409.100000001,88393.514,88410.18,88893.494,88898.300000004,2023-06-03T08:41:35Z,88910.16,Verzögerung,kuchelewa,s,mwakilishi,mwanauchumi,jaribio,NA,NA,1,"c(""distractor1"", ""distractor2"", ""distractor3"")",NA,NA,NA,NA,NA,NA,NA,NA,NA,NA,NA,NA,NA,NA,NA,NA,NA,NA,NA
18d7d,shallow,flow.Sequence,2_0_0,NA,NA,completion,3167.296,85712.700000003,85709.532,85726.198,88893.494,88898.700000003,2023-06-03T08:41:35Z,88910.16,Verzögerung,kuchelewa,s,mwakilishi,mwanauchumi,jaribio,NA,NA,NA,"c(""distractor1"", ""distractor2"", ""distractor3"")",NA,NA,NA,NA,NA,NA,NA,NA,NA,NA,NA,NA,NA,NA,NA,NA,NA,NA,NA
18d7d,task,flow.Sequence,2_0,NA,NA,completion,3167.296,85712.700000003,85709.532,85726.198,88893.494,88898.899999999,2023-06-03T08:41:35Z,88910.16,Verzögerung,kuchelewa,s,mwakilishi,mwanauchumi,jaribio,NA,NA,NA,"c(""distractor1"", ""distractor2"", ""distractor3"")",NA,NA,NA,NA,NA,NA,NA,NA,NA,NA,NA,NA,NA,NA,NA,NA,NA,NA,NA
18d7d,Shallow Question,html.Page,2_1_0_0,NA,NA,form submission,2657.9400000015,88899.100000001,88893.494,88910.16,91568.100000001,91568.5,2023-06-03T08:41:37Z,91576.72,Lawine,banguko,d,maambukizi,usuluhishi,chekechea,banguko,NA,NA,"c(""distractor1"", ""distractor2"", ""distractor3"")",NA,NA,NA,NA,NA,NA,NA,NA,NA,NA,NA,NA,NA,NA,NA,NA,NA,NA,NA
18d7d,Save data screen,canvas.Screen,2_1_0_1,NA,NA,timeout,499.98,91569.399999999,91560.054,91576.72,92060.034,92063,2023-06-03T08:41:38Z,92076.7,Lawine,banguko,d,maambukizi,usuluhishi,chekechea,NA,NA,1,"c(""distractor1"", ""distractor2"", ""distractor3"")",NA,NA,NA,NA,NA,NA,NA,NA,NA,NA,NA,NA,NA,NA,NA,NA,NA,NA,NA
18d7d,shallow,flow.Sequence,2_1_0,NA,NA,completion,3149.874,88899.100000001,88893.494,88910.16,92060.034,92063.399999999,2023-06-03T08:41:38Z,92076.7,Lawine,banguko,d,maambukizi,usuluhishi,chekechea,NA,NA,NA,"c(""distractor1"", ""distractor2"", ""distractor3"")",NA,NA,NA,NA,NA,NA,NA,NA,NA,NA,NA,NA,NA,NA,NA,NA,NA,NA,NA
18d7d,task,flow.Sequence,2_1,NA,NA,completion,3149.874,88899,88893.494,88910.16,92060.034,92063.600000001,2023-06-03T08:41:38Z,92076.7,Lawine,banguko,d,maambukizi,usuluhishi,chekechea,NA,NA,NA,"c(""distractor1"", ""distractor2"", ""distractor3"")",NA,NA,NA,NA,NA,NA,NA,NA,NA,NA,NA,NA,NA,NA,NA,NA,NA,NA,NA
18d7d,Shallow Question,html.Page,2_2_0_0,NA,NA,form submission,3489.1999999985,92063.700000003,92060.034,92076.7,95565.899999999,95566.300000004,2023-06-03T08:41:41Z,95576.56,Kultur,utamaduni,s,shetani,gerezani,mazingira,utamaduni,NA,NA,"c(""distractor1"", ""distractor2"", ""distractor3"")",NA,NA,NA,NA,NA,NA,NA,NA,NA,NA,NA,NA,NA,NA,NA,NA,NA,NA,NA
18d7d,Save data screen,canvas.Screen,2_2_0_1,NA,NA,timeout,499.98,95568.5,95559.894,95576.56,96059.874,96064.100000001,2023-06-03T08:41:42Z,96076.54,Kultur,utamaduni,s,shetani,gerezani,mazingira,NA,NA,1,"c(""distractor1"", ""distractor2"", ""distractor3"")",NA,NA,NA,NA,NA,NA,NA,NA,NA,NA,NA,NA,NA,NA,NA,NA,NA,NA,NA
18d7d,shallow,flow.Sequence,2_2_0,NA,NA,completion,3983.174,92063.700000003,92060.034,92076.7,96059.874,96064.399999999,2023-06-03T08:41:42Z,96076.54,Kultur,utamaduni,s,shetani,gerezani,mazingira,NA,NA,NA,"c(""distractor1"", ""distractor2"", ""distractor3"")",NA,NA,NA,NA,NA,NA,NA,NA,NA,NA,NA,NA,NA,NA,NA,NA,NA,NA,NA
18d7d,task,flow.Sequence,2_2,NA,NA,completion,3983.174,92063.600000001,92060.034,92076.7,96059.874,96064.600000001,2023-06-03T08:41:42Z,96076.54,Kultur,utamaduni,s,shetani,gerezani,mazingira,NA,NA,NA,"c(""distractor1"", ""distractor2"", ""distractor3"")",NA,NA,NA,NA,NA,NA,NA,NA,NA,NA,NA,NA,NA,NA,NA,NA,NA,NA,NA
18d7d,Shallow Question,html.Page,2_3_0_0,NA,NA,form submission,2877.8599999985,96064.800000004,96059.874,96076.54,98954.399999999,98954.899999999,2023-06-03T08:41:45Z,98960.459,Kreativität,ubunifu,d,mratibu,mwendelezo,makubaliano,ubunifu,NA,NA,"c(""distractor1"", ""distractor2"", ""distractor3"")",NA,NA,NA,NA,NA,NA,NA,NA,NA,NA,NA,NA,NA,NA,NA,NA,NA,NA,NA
18d7d,Save data screen,canvas.Screen,2_3_0_1,NA,NA,timeout,499.98,98957.100000001,98943.793,98960.459,99443.773,99447.700000003,2023-06-03T08:41:45Z,99460.439,Kreativität,ubunifu,d,mratibu,mwendelezo,makubaliano,NA,NA,1,"c(""distractor1"", ""distractor2"", ""distractor3"")",NA,NA,NA,NA,NA,NA,NA,NA,NA,NA,NA,NA,NA,NA,NA,NA,NA,NA,NA
18d7d,shallow,flow.Sequence,2_3_0,NA,NA,completion,3367.233,96064.700000003,96059.874,96076.54,99443.773,99447.899999999,2023-06-03T08:41:45Z,99460.439,Kreativität,ubunifu,d,mratibu,mwendelezo,makubaliano,NA,NA,NA,"c(""distractor1"", ""distractor2"", ""distractor3"")",NA,NA,NA,NA,NA,NA,NA,NA,NA,NA,NA,NA,NA,NA,NA,NA,NA,NA,NA
18d7d,task,flow.Sequence,2_3,NA,NA,completion,3367.233,96064.700000003,96059.874,96076.54,99443.773,99448.100000001,2023-06-03T08:41:45Z,99460.439,Kreativität,ubunifu,d,mratibu,mwendelezo,makubaliano,NA,NA,NA,"c(""distractor1"", ""distractor2"", ""distractor3"")",NA,NA,NA,NA,NA,NA,NA,NA,NA,NA,NA,NA,NA,NA,NA,NA,NA,NA,NA
18d7d,Shallow Question,html.Page,2_4_0_0,NA,NA,form submission,3635.761000003,99448.100000001,99443.773,99460.439,103096.2,103096.6,2023-06-03T08:41:49Z,103110.293,Angreifer,mshambulizi,d,kitengo,tasinia,usafirishaji,mshambulizi,NA,NA,"c(""distractor1"", ""distractor2"", ""distractor3"")",NA,NA,NA,NA,NA,NA,NA,NA,NA,NA,NA,NA,NA,NA,NA,NA,NA,NA,NA
18d7d,Save data screen,canvas.Screen,2_4_0_1,NA,NA,timeout,499.98,103099.2,103093.627,103110.293,103593.607,103597.2,2023-06-03T08:41:49Z,103610.273,Angreifer,mshambulizi,d,kitengo,tasinia,usafirishaji,NA,NA,1,"c(""distractor1"", ""distractor2"", ""distractor3"")",NA,NA,NA,NA,NA,NA,NA,NA,NA,NA,NA,NA,NA,NA,NA,NA,NA,NA,NA
18d7d,shallow,flow.Sequence,2_4_0,NA,NA,completion,4133.168,99448.100000001,99443.773,99460.439,103593.607,103597.6,2023-06-03T08:41:49Z,103610.273,Angreifer,mshambulizi,d,kitengo,tasinia,usafirishaji,NA,NA,NA,"c(""distractor1"", ""distractor2"", ""distractor3"")",NA,NA,NA,NA,NA,NA,NA,NA,NA,NA,NA,NA,NA,NA,NA,NA,NA,NA,NA
18d7d,task,flow.Sequence,2_4,NA,NA,completion,4133.168,99448.100000001,99443.773,99460.439,103593.607,103597.8,2023-06-03T08:41:49Z,103610.273,Angreifer,mshambulizi,d,kitengo,tasinia,usafirishaji,NA,NA,NA,"c(""distractor1"", ""distractor2"", ""distractor3"")",NA,NA,NA,NA,NA,NA,NA,NA,NA,NA,NA,NA,NA,NA,NA,NA,NA,NA,NA
18d7d,Shallow Question,html.Page,2_5_0_0,NA,NA,form submission,7113.1269999985,103598.1,103593.607,103610.273,110723.4,110723.7,2023-06-03T08:41:57Z,110726.655,Abrechnung,uhasibu,s,kusahihisha,mpambano,mashambulizi,uhasibu,NA,NA,"c(""distractor1"", ""distractor2"", ""distractor3"")",NA,NA,NA,NA,NA,NA,NA,NA,NA,NA,NA,NA,NA,NA,NA,NA,NA,NA,NA
18d7d,Save data screen,canvas.Screen,2_5_0_1,NA,NA,timeout,499.98,110726.8,110709.989,110726.655,111209.969,111213.6,2023-06-03T08:41:57Z,111226.635,Abrechnung,uhasibu,s,kusahihisha,mpambano,mashambulizi,NA,NA,1,"c(""distractor1"", ""distractor2"", ""distractor3"")",NA,NA,NA,NA,NA,NA,NA,NA,NA,NA,NA,NA,NA,NA,NA,NA,NA,NA,NA
18d7d,shallow,flow.Sequence,2_5_0,NA,NA,completion,7599.696,103598.1,103593.607,103610.273,111209.969,111213.9,2023-06-03T08:41:57Z,111226.635,Abrechnung,uhasibu,s,kusahihisha,mpambano,mashambulizi,NA,NA,NA,"c(""distractor1"", ""distractor2"", ""distractor3"")",NA,NA,NA,NA,NA,NA,NA,NA,NA,NA,NA,NA,NA,NA,NA,NA,NA,NA,NA
18d7d,task,flow.Sequence,2_5,NA,NA,completion,7599.696,103597.9,103593.607,103610.273,111209.969,111214.1,2023-06-03T08:41:57Z,111226.635,Abrechnung,uhasibu,s,kusahihisha,mpambano,mashambulizi,NA,NA,NA,"c(""distractor1"", ""distractor2"", ""distractor3"")",NA,NA,NA,NA,NA,NA,NA,NA,NA,NA,NA,NA,NA,NA,NA,NA,NA,NA,NA
18d7d,Shallow Question,html.Page,2_6_0_0,NA,NA,form submission,14509.264999999,111214.3,111209.969,111226.635,125735.9,125736.4,2023-06-03T08:42:12Z,125744.633,Kontrolle,kudhibiti,s,mbinguni,kufunga,utegemezi,kudhibiti,NA,NA,"c(""distractor1"", ""distractor2"", ""distractor3"")",NA,NA,NA,NA,NA,NA,NA,NA,NA,NA,NA,NA,NA,NA,NA,NA,NA,NA,NA
18d7d,Save data screen,canvas.Screen,2_6_0_1,NA,NA,timeout,499.98,125738.8,125727.967,125744.633,126227.947,126232.7,2023-06-03T08:42:12Z,126244.613,Kontrolle,kudhibiti,s,mbinguni,kufunga,utegemezi,NA,NA,1,"c(""distractor1"", ""distractor2"", ""distractor3"")",NA,NA,NA,NA,NA,NA,NA,NA,NA,NA,NA,NA,NA,NA,NA,NA,NA,NA,NA
18d7d,shallow,flow.Sequence,2_6_0,NA,NA,completion,15001.312,111214.3,111209.969,111226.635,126227.947,126233,2023-06-03T08:42:12Z,126244.613,Kontrolle,kudhibiti,s,mbinguni,kufunga,utegemezi,NA,NA,NA,"c(""distractor1"", ""distractor2"", ""distractor3"")",NA,NA,NA,NA,NA,NA,NA,NA,NA,NA,NA,NA,NA,NA,NA,NA,NA,NA,NA
18d7d,task,flow.Sequence,2_6,NA,NA,completion,15001.312,111214.3,111209.969,111226.635,126227.947,126233.3,2023-06-03T08:42:12Z,126244.613,Kontrolle,kudhibiti,s,mbinguni,kufunga,utegemezi,NA,NA,NA,"c(""distractor1"", ""distractor2"", ""distractor3"")",NA,NA,NA,NA,NA,NA,NA,NA,NA,NA,NA,NA,NA,NA,NA,NA,NA,NA,NA
18d7d,Shallow Question,html.Page,2_7_0_0,NA,NA,form submission,5218.887,126233.5,126227.947,126244.613,131463.5,131464,2023-06-03T08:42:17Z,131477.737,System,maongozi,d,chokochoko,nuksani,mitaani,maongozi,NA,NA,"c(""distractor1"", ""distractor2"", ""distractor3"")",NA,NA,NA,NA,NA,NA,NA,NA,NA,NA,NA,NA,NA,NA,NA,NA,NA,NA,NA
18d7d,Save data screen,canvas.Screen,2_7_0_1,NA,NA,timeout,499.98000000001,131466.5,131461.071,131477.737,131961.051,131965.1,2023-06-03T08:42:18Z,131977.717,System,maongozi,d,chokochoko,nuksani,mitaani,NA,NA,1,"c(""distractor1"", ""distractor2"", ""distractor3"")",NA,NA,NA,NA,NA,NA,NA,NA,NA,NA,NA,NA,NA,NA,NA,NA,NA,NA,NA
18d7d,shallow,flow.Sequence,2_7_0,NA,NA,completion,5716.438,126233.5,126227.947,126244.613,131961.051,131965.5,2023-06-03T08:42:18Z,131977.717,System,maongozi,d,chokochoko,nuksani,mitaani,NA,NA,NA,"c(""distractor1"", ""distractor2"", ""distractor3"")",NA,NA,NA,NA,NA,NA,NA,NA,NA,NA,NA,NA,NA,NA,NA,NA,NA,NA,NA
18d7d,task,flow.Sequence,2_7,NA,NA,completion,5716.438,126233.4,126227.947,126244.613,131961.051,131965.7,2023-06-03T08:42:18Z,131977.717,System,maongozi,d,chokochoko,nuksani,mitaani,NA,NA,NA,"c(""distractor1"", ""distractor2"", ""distractor3"")",NA,NA,NA,NA,NA,NA,NA,NA,NA,NA,NA,NA,NA,NA,NA,NA,NA,NA,NA
18d7d,Shallow Question,html.Page,2_8_0_0,NA,NA,form submission,2304.3830000015,131966,131961.051,131977.717,134282.1,134282.6,2023-06-03T08:42:20Z,134295.017,Körper,kiwiliwili,s,mapambano,mpatanishi,kiolezo,kiwiliwili,NA,NA,"c(""distractor1"", ""distractor2"", ""distractor3"")",NA,NA,NA,NA,NA,NA,NA,NA,NA,NA,NA,NA,NA,NA,NA,NA,NA,NA,NA
18d7d,Save data screen,canvas.Screen,2_8_0_1,NA,NA,timeout,499.98000000001,134284.9,134278.351,134295.017,134778.331,134782.6,2023-06-03T08:42:21Z,134794.997,Körper,kiwiliwili,s,mapambano,mpatanishi,kiolezo,NA,NA,1,"c(""distractor1"", ""distractor2"", ""distractor3"")",NA,NA,NA,NA,NA,NA,NA,NA,NA,NA,NA,NA,NA,NA,NA,NA,NA,NA,NA
18d7d,shallow,flow.Sequence,2_8_0,NA,NA,completion,2800.614,131965.9,131961.051,131977.717,134778.331,134783,2023-06-03T08:42:21Z,134794.997,Körper,kiwiliwili,s,mapambano,mpatanishi,kiolezo,NA,NA,NA,"c(""distractor1"", ""distractor2"", ""distractor3"")",NA,NA,NA,NA,NA,NA,NA,NA,NA,NA,NA,NA,NA,NA,NA,NA,NA,NA,NA
18d7d,task,flow.Sequence,2_8,NA,NA,completion,2800.614,131965.9,131961.051,131977.717,134778.331,134783.2,2023-06-03T08:42:21Z,134794.997,Körper,kiwiliwili,s,mapambano,mpatanishi,kiolezo,NA,NA,NA,"c(""distractor1"", ""distractor2"", ""distractor3"")",NA,NA,NA,NA,NA,NA,NA,NA,NA,NA,NA,NA,NA,NA,NA,NA,NA,NA,NA
18d7d,Shallow Question,html.Page,2_9_0_0,NA,NA,form submission,8277.6030000015,134783.5,134778.331,134794.997,143072.6,143073.1,2023-06-03T08:42:29Z,143077.999,Prüfung,mtihani,d,mkulima,mtizamo,ufumbuzi,ufumbuzi,NA,NA,"c(""distractor1"", ""distractor2"", ""distractor3"")",NA,NA,NA,NA,NA,NA,NA,NA,NA,NA,NA,NA,NA,NA,NA,NA,NA,NA,NA
18d7d,Save data screen,canvas.Screen,2_9_0_1,NA,NA,timeout,500.652,143076,143061.333,143077.999,143561.985,143563.7,2023-06-03T08:42:29Z,143578.651,Prüfung,mtihani,d,mkulima,mtizamo,ufumbuzi,NA,NA,0,"c(""distractor1"", ""distractor2"", ""distractor3"")",NA,NA,NA,NA,NA,NA,NA,NA,NA,NA,NA,NA,NA,NA,NA,NA,NA,NA,NA
18d7d,shallow,flow.Sequence,2_9_0,NA,NA,completion,8766.988,134783.4,134778.331,134794.997,143561.985,143564.1,2023-06-03T08:42:29Z,143578.651,Prüfung,mtihani,d,mkulima,mtizamo,ufumbuzi,NA,NA,NA,"c(""distractor1"", ""distractor2"", ""distractor3"")",NA,NA,NA,NA,NA,NA,NA,NA,NA,NA,NA,NA,NA,NA,NA,NA,NA,NA,NA
18d7d,task,flow.Sequence,2_9,NA,NA,completion,8766.988,134783.4,134778.331,134794.997,143561.985,143564.2,2023-06-03T08:42:29Z,143578.651,Prüfung,mtihani,d,mkulima,mtizamo,ufumbuzi,NA,NA,NA,"c(""distractor1"", ""distractor2"", ""distractor3"")",NA,NA,NA,NA,NA,NA,NA,NA,NA,NA,NA,NA,NA,NA,NA,NA,NA,NA,NA
18d7d,Shallow Question,html.Page,2_10_0_0,NA,NA,form submission,1769.849,143564.4,143561.985,143578.651,145348.5,145348.9,2023-06-03T08:42:31Z,145361.913,Sänger,mwimbaji,d,msichana,shughuli,mshirika,mwimbaji,NA,NA,"c(""distractor1"", ""distractor2"", ""distractor3"")",NA,NA,NA,NA,NA,NA,NA,NA,NA,NA,NA,NA,NA,NA,NA,NA,NA,NA,NA
18d7d,Save data screen,canvas.Screen,2_10_0_1,NA,NA,timeout,499.98000000001,145350,145345.247,145361.913,145845.227,145849.4,2023-06-03T08:42:32Z,145861.893,Sänger,mwimbaji,d,msichana,shughuli,mshirika,NA,NA,1,"c(""distractor1"", ""distractor2"", ""distractor3"")",NA,NA,NA,NA,NA,NA,NA,NA,NA,NA,NA,NA,NA,NA,NA,NA,NA,NA,NA
18d7d,shallow,flow.Sequence,2_10_0,NA,NA,completion,2266.576,143564.3,143561.985,143578.651,145845.227,145849.6,2023-06-03T08:42:32Z,145861.893,Sänger,mwimbaji,d,msichana,shughuli,mshirika,NA,NA,NA,"c(""distractor1"", ""distractor2"", ""distractor3"")",NA,NA,NA,NA,NA,NA,NA,NA,NA,NA,NA,NA,NA,NA,NA,NA,NA,NA,NA
18d7d,task,flow.Sequence,2_10,NA,NA,completion,2266.576,143564.3,143561.985,143578.651,145845.227,145849.8,2023-06-03T08:42:32Z,145861.893,Sänger,mwimbaji,d,msichana,shughuli,mshirika,NA,NA,NA,"c(""distractor1"", ""distractor2"", ""distractor3"")",NA,NA,NA,NA,NA,NA,NA,NA,NA,NA,NA,NA,NA,NA,NA,NA,NA,NA,NA
18d7d,Shallow Question,html.Page,2_11_0_0,NA,NA,form submission,3863.7070000015,145849.9,145845.227,145861.893,149725.6,149726.1,2023-06-03T08:42:36Z,149728.405,Können,unaweza,d,kiongozi,bustani,mienendo,unaweza,NA,NA,"c(""distractor1"", ""distractor2"", ""distractor3"")",NA,NA,NA,NA,NA,NA,NA,NA,NA,NA,NA,NA,NA,NA,NA,NA,NA,NA,NA
18d7d,Save data screen,canvas.Screen,2_11_0_1,NA,NA,timeout,499.98000000001,149728.2,149711.739,149728.405,150211.719,150214.7,2023-06-03T08:42:36Z,150228.385,Können,unaweza,d,kiongozi,bustani,mienendo,NA,NA,1,"c(""distractor1"", ""distractor2"", ""distractor3"")",NA,NA,NA,NA,NA,NA,NA,NA,NA,NA,NA,NA,NA,NA,NA,NA,NA,NA,NA
18d7d,shallow,flow.Sequence,2_11_0,NA,NA,completion,4349.826,145849.9,145845.227,145861.893,150211.719,150215,2023-06-03T08:42:36Z,150228.385,Können,unaweza,d,kiongozi,bustani,mienendo,NA,NA,NA,"c(""distractor1"", ""distractor2"", ""distractor3"")",NA,NA,NA,NA,NA,NA,NA,NA,NA,NA,NA,NA,NA,NA,NA,NA,NA,NA,NA
18d7d,task,flow.Sequence,2_11,NA,NA,completion,4349.826,145849.9,145845.227,145861.893,150211.719,150215.2,2023-06-03T08:42:36Z,150228.385,Können,unaweza,d,kiongozi,bustani,mienendo,NA,NA,NA,"c(""distractor1"", ""distractor2"", ""distractor3"")",NA,NA,NA,NA,NA,NA,NA,NA,NA,NA,NA,NA,NA,NA,NA,NA,NA,NA,NA
18d7d,Shallow Question,html.Page,2_12_0_0,NA,NA,form submission,3838.7150000015,150215.3,150211.719,150228.385,154067.1,154067.6,2023-06-03T08:42:40Z,154079.085,Kanzler,diwani,s,rasilmali,mahitaji,maabudu,diwani,NA,NA,"c(""distractor1"", ""distractor2"", ""distractor3"")",NA,NA,NA,NA,NA,NA,NA,NA,NA,NA,NA,NA,NA,NA,NA,NA,NA,NA,NA
18d7d,Save data screen,canvas.Screen,2_12_0_1,NA,NA,timeout,499.98000000001,154070.2,154062.419,154079.085,154562.399,154567,2023-06-03T08:42:40Z,154579.065,Kanzler,diwani,s,rasilmali,mahitaji,maabudu,NA,NA,1,"c(""distractor1"", ""distractor2"", ""distractor3"")",NA,NA,NA,NA,NA,NA,NA,NA,NA,NA,NA,NA,NA,NA,NA,NA,NA,NA,NA
18d7d,shallow,flow.Sequence,2_12_0,NA,NA,completion,4334.014,150215.3,150211.719,150228.385,154562.399,154567.2,2023-06-03T08:42:40Z,154579.065,Kanzler,diwani,s,rasilmali,mahitaji,maabudu,NA,NA,NA,"c(""distractor1"", ""distractor2"", ""distractor3"")",NA,NA,NA,NA,NA,NA,NA,NA,NA,NA,NA,NA,NA,NA,NA,NA,NA,NA,NA
18d7d,task,flow.Sequence,2_12,NA,NA,completion,4334.014,150215.3,150211.719,150228.385,154562.399,154567.3,2023-06-03T08:42:40Z,154579.065,Kanzler,diwani,s,rasilmali,mahitaji,maabudu,NA,NA,NA,"c(""distractor1"", ""distractor2"", ""distractor3"")",NA,NA,NA,NA,NA,NA,NA,NA,NA,NA,NA,NA,NA,NA,NA,NA,NA,NA,NA
18d7d,Shallow Question,html.Page,2_13_0_0,NA,NA,form submission,5098.8349999985,154567.4,154562.399,154579.065,159677.9,159678.3,2023-06-03T08:42:46Z,159678.861,Gefährdung,kuhatarisha,s,uchokozi,udhaifu,makorowezo,kuhatarisha,NA,NA,"c(""distractor1"", ""distractor2"", ""distractor3"")",NA,NA,NA,NA,NA,NA,NA,NA,NA,NA,NA,NA,NA,NA,NA,NA,NA,NA,NA
18d7d,Save data screen,canvas.Screen,2_13_0_1,NA,NA,timeout,499.97999999998,159681,159662.195,159678.861,160162.175,160166.8,2023-06-03T08:42:46Z,160178.841,Gefährdung,kuhatarisha,s,uchokozi,udhaifu,makorowezo,NA,NA,1,"c(""distractor1"", ""distractor2"", ""distractor3"")",NA,NA,NA,NA,NA,NA,NA,NA,NA,NA,NA,NA,NA,NA,NA,NA,NA,NA,NA
18d7d,shallow,flow.Sequence,2_13_0,NA,NA,completion,5583.11,154567.4,154562.399,154579.065,160162.175,160167.1,2023-06-03T08:42:46Z,160178.841,Gefährdung,kuhatarisha,s,uchokozi,udhaifu,makorowezo,NA,NA,NA,"c(""distractor1"", ""distractor2"", ""distractor3"")",NA,NA,NA,NA,NA,NA,NA,NA,NA,NA,NA,NA,NA,NA,NA,NA,NA,NA,NA
18d7d,task,flow.Sequence,2_13,NA,NA,completion,5583.11,154567.4,154562.399,154579.065,160162.175,160167.4,2023-06-03T08:42:46Z,160178.841,Gefährdung,kuhatarisha,s,uchokozi,udhaifu,makorowezo,NA,NA,NA,"c(""distractor1"", ""distractor2"", ""distractor3"")",NA,NA,NA,NA,NA,NA,NA,NA,NA,NA,NA,NA,NA,NA,NA,NA,NA,NA,NA
18d7d,Shallow Question,html.Page,2_14_0_0,NA,NA,form submission,7013.5589999985,160167.6,160162.175,160178.841,167192.4,167192.8,2023-06-03T08:42:53Z,167195.966,Übersicht,kilindo,s,mgusano,chipukizi,kulinganisha,kulinganisha,NA,NA,"c(""distractor1"", ""distractor2"", ""distractor3"")",NA,NA,NA,NA,NA,NA,NA,NA,NA,NA,NA,NA,NA,NA,NA,NA,NA,NA,NA
18d7d,Save data screen,canvas.Screen,2_14_0_1,NA,NA,timeout,499.98000000001,167196.4,167179.3,167195.966,167679.28,167684,2023-06-03T08:42:54Z,167695.946,Übersicht,kilindo,s,mgusano,chipukizi,kulinganisha,NA,NA,0,"c(""distractor1"", ""distractor2"", ""distractor3"")",NA,NA,NA,NA,NA,NA,NA,NA,NA,NA,NA,NA,NA,NA,NA,NA,NA,NA,NA
18d7d,shallow,flow.Sequence,2_14_0,NA,NA,completion,7500.439,160167.5,160162.175,160178.841,167679.28,167684.4,2023-06-03T08:42:54Z,167695.946,Übersicht,kilindo,s,mgusano,chipukizi,kulinganisha,NA,NA,NA,"c(""distractor1"", ""distractor2"", ""distractor3"")",NA,NA,NA,NA,NA,NA,NA,NA,NA,NA,NA,NA,NA,NA,NA,NA,NA,NA,NA
18d7d,task,flow.Sequence,2_14,NA,NA,completion,7500.439,160167.5,160162.175,160178.841,167679.28,167684.5,2023-06-03T08:42:54Z,167695.946,Übersicht,kilindo,s,mgusano,chipukizi,kulinganisha,NA,NA,NA,"c(""distractor1"", ""distractor2"", ""distractor3"")",NA,NA,NA,NA,NA,NA,NA,NA,NA,NA,NA,NA,NA,NA,NA,NA,NA,NA,NA
18d7d,Shallow Question,html.Page,2_15_0_0,NA,NA,form submission,8163.4539999985,167684.6,167679.28,167695.946,175859.4,175859.7,2023-06-03T08:43:02Z,175862.286,Aufstand,ugomaji,d,mazidio,msingi,kujieleza,ugomaji,NA,NA,"c(""distractor1"", ""distractor2"", ""distractor3"")",NA,NA,NA,NA,NA,NA,NA,NA,NA,NA,NA,NA,NA,NA,NA,NA,NA,NA,NA
18d7d,Save data screen,canvas.Screen,2_15_0_1,NA,NA,timeout,499.98000000001,175862,175845.62,175862.286,176345.6,176347.8,2023-06-03T08:43:02Z,176362.266,Aufstand,ugomaji,d,mazidio,msingi,kujieleza,NA,NA,1,"c(""distractor1"", ""distractor2"", ""distractor3"")",NA,NA,NA,NA,NA,NA,NA,NA,NA,NA,NA,NA,NA,NA,NA,NA,NA,NA,NA
18d7d,shallow,flow.Sequence,2_15_0,NA,NA,completion,8649.654,167684.6,167679.28,167695.946,176345.6,176348.1,2023-06-03T08:43:02Z,176362.266,Aufstand,ugomaji,d,mazidio,msingi,kujieleza,NA,NA,NA,"c(""distractor1"", ""distractor2"", ""distractor3"")",NA,NA,NA,NA,NA,NA,NA,NA,NA,NA,NA,NA,NA,NA,NA,NA,NA,NA,NA
18d7d,task,flow.Sequence,2_15,NA,NA,completion,8649.654,167684.6,167679.28,167695.946,176345.6,176348.3,2023-06-03T08:43:02Z,176362.266,Aufstand,ugomaji,d,mazidio,msingi,kujieleza,NA,NA,NA,"c(""distractor1"", ""distractor2"", ""distractor3"")",NA,NA,NA,NA,NA,NA,NA,NA,NA,NA,NA,NA,NA,NA,NA,NA,NA,NA,NA
18d7d,retrieval block 2 (multiple choice),flow.Loop,2,NA,NA,completion,90619.402,85712.700000003,85709.532,85726.198,176345.6,176348.9,2023-06-03T08:43:02Z,176362.266,NA,NA,NA,NA,NA,NA,NA,NA,NA,"c(""distractor1"", ""distractor2"", ""distractor3"")",NA,NA,NA,NA,NA,NA,NA,NA,NA,NA,NA,NA,NA,NA,NA,NA,NA,NA,NA
18d7d,End,canvas.Screen,3,NA,keypress(Space),response,631.33400000149,176349,176345.6,176362.266,176993.6,176998.6,2023-06-03T08:43:03Z,177012.24,NA,NA,NA,NA,NA,NA,NA,NA,NA,NULL,NA,NA,NA,NA,NA,NA,NA,NA,NA,NA,NA,NA,NA,NA,NA,NA,NA,NA,NA
18d7d,root,flow.Sequence,NA,NA,NA,completion,176702.733,286.30000000447,274.201,290.867,176993.6,176999.2,2023-06-03T08:43:03Z,177012.24,NA,NA,NA,NA,NA,NA,NA,NA,NA,NULL,NA,NA,NA,NA,NA,NA,NA,NA,NA,NA,NA,NA,NA,NA,NA,NA,NA,NA,NA
6a208,Introduction delayed retrieval,canvas.Screen,0,weiter,keypress(Space),response,3736,91,92,100,3828,3823,2023-06-03T08:34:18Z,3854,NA,NA,NA,NA,NA,NA,NA,NA,NA,NULL,219,2,20.2.4,https://neurocog.fernuni.ch/studies/vweber/sfink/delayed/index.html?vp=219&sess=2,"Mozilla/5.0 (Macintosh; Intel Mac OS X 10_15_7) AppleWebKit/605.1.15 (KHTML, like Gecko) Version/16.4 Safari/605.1.15",MacIntel,en-GB,en-GB,Europe/Zurich,-120,1440,900,1440,800,1440,848,2,production,f5b4a49f956347addd546a832a3327688c2c0fef
6a208,Deep Question,html.Page,1_0_0_0,NA,NA,form submission,18714,3824,3837,3854,22568,22568,2023-06-03T08:34:37Z,22605,Gefährdung,kuhatarisha,s,uchokozi,udhaifu,makorowezo,banguko,NA,NA,NULL,NA,NA,NA,NA,NA,NA,NA,NA,NA,NA,NA,NA,NA,NA,NA,NA,NA,NA,NA
6a208,Save data screen,canvas.Screen,1_0_0_1,NA,NA,timeout,500,22569,22588,22605,23088,23089,2023-06-03T08:34:38Z,23105,Gefährdung,kuhatarisha,s,uchokozi,udhaifu,makorowezo,NA,NA,0,NULL,NA,NA,NA,NA,NA,NA,NA,NA,NA,NA,NA,NA,NA,NA,NA,NA,NA,NA,NA
6a208,deep,flow.Sequence,1_0_0,NA,NA,completion,19234,3824,3837,3854,23088,23090,2023-06-03T08:34:38Z,23105,Gefährdung,kuhatarisha,s,uchokozi,udhaifu,makorowezo,NA,NA,NA,NULL,NA,NA,NA,NA,NA,NA,NA,NA,NA,NA,NA,NA,NA,NA,NA,NA,NA,NA,NA
6a208,task,flow.Sequence,1_0,NA,NA,completion,19234,3824,3837,3854,23088,23090,2023-06-03T08:34:38Z,23105,Gefährdung,kuhatarisha,s,uchokozi,udhaifu,makorowezo,NA,NA,NA,NULL,NA,NA,NA,NA,NA,NA,NA,NA,NA,NA,NA,NA,NA,NA,NA,NA,NA,NA,NA
6a208,Deep Question,html.Page,1_1_0_0,NA,NA,form submission,5564,23091,23088,23105,28669,28669,2023-06-03T08:34:43Z,28688,Kanzler,diwani,s,rasilmali,mahitaji,maabudu,diwini,NA,NA,NULL,NA,NA,NA,NA,NA,NA,NA,NA,NA,NA,NA,NA,NA,NA,NA,NA,NA,NA,NA
6a208,Save data screen,canvas.Screen,1_1_0_1,NA,NA,timeout,501,28670,28672,28688,29172,29172,2023-06-03T08:34:44Z,29189,Kanzler,diwani,s,rasilmali,mahitaji,maabudu,NA,NA,0,NULL,NA,NA,NA,NA,NA,NA,NA,NA,NA,NA,NA,NA,NA,NA,NA,NA,NA,NA,NA
6a208,deep,flow.Sequence,1_1_0,NA,NA,completion,6067,23091,23088,23105,29172,29173,2023-06-03T08:34:44Z,29189,Kanzler,diwani,s,rasilmali,mahitaji,maabudu,NA,NA,NA,NULL,NA,NA,NA,NA,NA,NA,NA,NA,NA,NA,NA,NA,NA,NA,NA,NA,NA,NA,NA
6a208,task,flow.Sequence,1_1,NA,NA,completion,6067,23091,23088,23105,29172,29173,2023-06-03T08:34:44Z,29189,Kanzler,diwani,s,rasilmali,mahitaji,maabudu,NA,NA,NA,NULL,NA,NA,NA,NA,NA,NA,NA,NA,NA,NA,NA,NA,NA,NA,NA,NA,NA,NA,NA
6a208,Deep Question,html.Page,1_2_0_0,NA,NA,form submission,15227,29173,29172,29189,44416,44416,2023-06-03T08:34:59Z,44438,Kreativität,ubunifu,d,mratibu,mwendelezo,makubaliano,j,NA,NA,NULL,NA,NA,NA,NA,NA,NA,NA,NA,NA,NA,NA,NA,NA,NA,NA,NA,NA,NA,NA
6a208,Save data screen,canvas.Screen,1_2_0_1,NA,NA,timeout,501,44417,44422,44438,44922,44923,2023-06-03T08:34:59Z,44939,Kreativität,ubunifu,d,mratibu,mwendelezo,makubaliano,NA,NA,0,NULL,NA,NA,NA,NA,NA,NA,NA,NA,NA,NA,NA,NA,NA,NA,NA,NA,NA,NA,NA
6a208,deep,flow.Sequence,1_2_0,NA,NA,completion,15733,29173,29172,29189,44922,44924,2023-06-03T08:34:59Z,44939,Kreativität,ubunifu,d,mratibu,mwendelezo,makubaliano,NA,NA,NA,NULL,NA,NA,NA,NA,NA,NA,NA,NA,NA,NA,NA,NA,NA,NA,NA,NA,NA,NA,NA
6a208,task,flow.Sequence,1_2,NA,NA,completion,15733,29173,29172,29189,44922,44924,2023-06-03T08:34:59Z,44939,Kreativität,ubunifu,d,mratibu,mwendelezo,makubaliano,NA,NA,NA,NULL,NA,NA,NA,NA,NA,NA,NA,NA,NA,NA,NA,NA,NA,NA,NA,NA,NA,NA,NA
6a208,Deep Question,html.Page,1_3_0_0,NA,NA,form submission,2731,44924,44922,44939,47670,47670,2023-06-03T08:35:02Z,47689,Abrechnung,uhasibu,s,kusahihisha,mpambano,mashambulizi,j,NA,NA,NULL,NA,NA,NA,NA,NA,NA,NA,NA,NA,NA,NA,NA,NA,NA,NA,NA,NA,NA,NA
6a208,Save data screen,canvas.Screen,1_3_0_1,NA,NA,timeout,500,47671,47675,47689,48172,48173,2023-06-03T08:35:03Z,48189,Abrechnung,uhasibu,s,kusahihisha,mpambano,mashambulizi,NA,NA,0,NULL,NA,NA,NA,NA,NA,NA,NA,NA,NA,NA,NA,NA,NA,NA,NA,NA,NA,NA,NA
6a208,deep,flow.Sequence,1_3_0,NA,NA,completion,3233,44924,44922,44939,48172,48174,2023-06-03T08:35:03Z,48189,Abrechnung,uhasibu,s,kusahihisha,mpambano,mashambulizi,NA,NA,NA,NULL,NA,NA,NA,NA,NA,NA,NA,NA,NA,NA,NA,NA,NA,NA,NA,NA,NA,NA,NA
6a208,task,flow.Sequence,1_3,NA,NA,completion,3233,44924,44922,44939,48172,48174,2023-06-03T08:35:03Z,48189,Abrechnung,uhasibu,s,kusahihisha,mpambano,mashambulizi,NA,NA,NA,NULL,NA,NA,NA,NA,NA,NA,NA,NA,NA,NA,NA,NA,NA,NA,NA,NA,NA,NA,NA
6a208,Deep Question,html.Page,1_4_0_0,NA,NA,form submission,8370,48174,48172,48189,56559,56559,2023-06-03T08:35:11Z,56589,Können,unaweza,d,kiongozi,bustani,mienendo,wizi,NA,NA,NULL,NA,NA,NA,NA,NA,NA,NA,NA,NA,NA,NA,NA,NA,NA,NA,NA,NA,NA,NA
6a208,Save data screen,canvas.Screen,1_4_0_1,NA,NA,timeout,499,56560,56574,56589,57073,57075,2023-06-03T08:35:12Z,57088,Können,unaweza,d,kiongozi,bustani,mienendo,NA,NA,0,NULL,NA,NA,NA,NA,NA,NA,NA,NA,NA,NA,NA,NA,NA,NA,NA,NA,NA,NA,NA
6a208,deep,flow.Sequence,1_4_0,NA,NA,completion,8884,48174,48172,48189,57073,57075,2023-06-03T08:35:12Z,57088,Können,unaweza,d,kiongozi,bustani,mienendo,NA,NA,NA,NULL,NA,NA,NA,NA,NA,NA,NA,NA,NA,NA,NA,NA,NA,NA,NA,NA,NA,NA,NA
6a208,task,flow.Sequence,1_4,NA,NA,completion,8884,48174,48172,48189,57073,57076,2023-06-03T08:35:12Z,57088,Können,unaweza,d,kiongozi,bustani,mienendo,NA,NA,NA,NULL,NA,NA,NA,NA,NA,NA,NA,NA,NA,NA,NA,NA,NA,NA,NA,NA,NA,NA,NA
6a208,Deep Question,html.Page,1_5_0_0,NA,NA,form submission,3831,57077,57073,57088,60919,60919,2023-06-03T08:35:15Z,60956,Lawine,banguko,d,maambukizi,usuluhishi,chekechea,banguko,NA,NA,NULL,NA,NA,NA,NA,NA,NA,NA,NA,NA,NA,NA,NA,NA,NA,NA,NA,NA,NA,NA
6a208,Save data screen,canvas.Screen,1_5_0_1,NA,NA,timeout,500,60920,60940,60956,61439,61440,2023-06-03T08:35:16Z,61456,Lawine,banguko,d,maambukizi,usuluhishi,chekechea,NA,NA,1,NULL,NA,NA,NA,NA,NA,NA,NA,NA,NA,NA,NA,NA,NA,NA,NA,NA,NA,NA,NA
6a208,deep,flow.Sequence,1_5_0,NA,NA,completion,4351,57076,57073,57088,61439,61441,2023-06-03T08:35:16Z,61456,Lawine,banguko,d,maambukizi,usuluhishi,chekechea,NA,NA,NA,NULL,NA,NA,NA,NA,NA,NA,NA,NA,NA,NA,NA,NA,NA,NA,NA,NA,NA,NA,NA
6a208,task,flow.Sequence,1_5,NA,NA,completion,4351,57076,57073,57088,61439,61441,2023-06-03T08:35:16Z,61456,Lawine,banguko,d,maambukizi,usuluhishi,chekechea,NA,NA,NA,NULL,NA,NA,NA,NA,NA,NA,NA,NA,NA,NA,NA,NA,NA,NA,NA,NA,NA,NA,NA
6a208,Deep Question,html.Page,1_6_0_0,NA,NA,form submission,1737,61442,61439,61456,63193,63193,2023-06-03T08:35:18Z,63223,Übersicht,kilindo,s,mgusano,chipukizi,kulinganisha,k,NA,NA,NULL,NA,NA,NA,NA,NA,NA,NA,NA,NA,NA,NA,NA,NA,NA,NA,NA,NA,NA,NA
6a208,Save data screen,canvas.Screen,1_6_0_1,NA,NA,timeout,500,63193,63206,63223,63706,63707,2023-06-03T08:35:18Z,63723,Übersicht,kilindo,s,mgusano,chipukizi,kulinganisha,NA,NA,0,NULL,NA,NA,NA,NA,NA,NA,NA,NA,NA,NA,NA,NA,NA,NA,NA,NA,NA,NA,NA
6a208,deep,flow.Sequence,1_6_0,NA,NA,completion,2250,61442,61439,61456,63706,63708,2023-06-03T08:35:18Z,63723,Übersicht,kilindo,s,mgusano,chipukizi,kulinganisha,NA,NA,NA,NULL,NA,NA,NA,NA,NA,NA,NA,NA,NA,NA,NA,NA,NA,NA,NA,NA,NA,NA,NA
6a208,task,flow.Sequence,1_6,NA,NA,completion,2250,61441,61439,61456,63706,63708,2023-06-03T08:35:18Z,63723,Übersicht,kilindo,s,mgusano,chipukizi,kulinganisha,NA,NA,NA,NULL,NA,NA,NA,NA,NA,NA,NA,NA,NA,NA,NA,NA,NA,NA,NA,NA,NA,NA,NA
6a208,Deep Question,html.Page,1_7_0_0,NA,NA,form submission,5009,63709,63706,63723,68732,68733,2023-06-03T08:35:23Z,68756,Kultur,utamaduni,s,shetani,gerezani,mazingira,uni,NA,NA,NULL,NA,NA,NA,NA,NA,NA,NA,NA,NA,NA,NA,NA,NA,NA,NA,NA,NA,NA,NA
6a208,Save data screen,canvas.Screen,1_7_0_1,NA,NA,timeout,500,68734,68739,68756,69240,69241,2023-06-03T08:35:24Z,69256,Kultur,utamaduni,s,shetani,gerezani,mazingira,NA,NA,0,NULL,NA,NA,NA,NA,NA,NA,NA,NA,NA,NA,NA,NA,NA,NA,NA,NA,NA,NA,NA
6a208,deep,flow.Sequence,1_7_0,NA,NA,completion,5517,63709,63706,63723,69240,69241,2023-06-03T08:35:24Z,69256,Kultur,utamaduni,s,shetani,gerezani,mazingira,NA,NA,NA,NULL,NA,NA,NA,NA,NA,NA,NA,NA,NA,NA,NA,NA,NA,NA,NA,NA,NA,NA,NA
6a208,task,flow.Sequence,1_7,NA,NA,completion,5517,63709,63706,63723,69240,69242,2023-06-03T08:35:24Z,69256,Kultur,utamaduni,s,shetani,gerezani,mazingira,NA,NA,NA,NULL,NA,NA,NA,NA,NA,NA,NA,NA,NA,NA,NA,NA,NA,NA,NA,NA,NA,NA,NA
6a208,Deep Question,html.Page,1_8_0_0,NA,NA,form submission,2735,69242,69240,69256,71991,71991,2023-06-03T08:35:26Z,72023,Verzögerung,kuchelewa,s,mwakilishi,mwanauchumi,jaribio,kuche,NA,NA,NULL,NA,NA,NA,NA,NA,NA,NA,NA,NA,NA,NA,NA,NA,NA,NA,NA,NA,NA,NA
6a208,Save data screen,canvas.Screen,1_8_0_1,NA,NA,timeout,500,71992,72006,72023,72507,72508,2023-06-03T08:35:27Z,72523,Verzögerung,kuchelewa,s,mwakilishi,mwanauchumi,jaribio,NA,NA,0,NULL,NA,NA,NA,NA,NA,NA,NA,NA,NA,NA,NA,NA,NA,NA,NA,NA,NA,NA,NA
6a208,deep,flow.Sequence,1_8_0,NA,NA,completion,3251,69242,69240,69256,72507,72509,2023-06-03T08:35:27Z,72523,Verzögerung,kuchelewa,s,mwakilishi,mwanauchumi,jaribio,NA,NA,NA,NULL,NA,NA,NA,NA,NA,NA,NA,NA,NA,NA,NA,NA,NA,NA,NA,NA,NA,NA,NA
6a208,task,flow.Sequence,1_8,NA,NA,completion,3251,69242,69240,69256,72507,72510,2023-06-03T08:35:27Z,72523,Verzögerung,kuchelewa,s,mwakilishi,mwanauchumi,jaribio,NA,NA,NA,NULL,NA,NA,NA,NA,NA,NA,NA,NA,NA,NA,NA,NA,NA,NA,NA,NA,NA,NA,NA
6a208,Deep Question,html.Page,1_9_0_0,NA,NA,form submission,1820,72510,72507,72523,74343,74344,2023-06-03T08:35:29Z,74373,Angreifer,mshambulizi,d,kitengo,tasinia,usafirishaji,k,NA,NA,NULL,NA,NA,NA,NA,NA,NA,NA,NA,NA,NA,NA,NA,NA,NA,NA,NA,NA,NA,NA
6a208,Save data screen,canvas.Screen,1_9_0_1,NA,NA,timeout,500,74344,74358,74373,74856,74857,2023-06-03T08:35:29Z,74873,Angreifer,mshambulizi,d,kitengo,tasinia,usafirishaji,NA,NA,0,NULL,NA,NA,NA,NA,NA,NA,NA,NA,NA,NA,NA,NA,NA,NA,NA,NA,NA,NA,NA
6a208,deep,flow.Sequence,1_9_0,NA,NA,completion,2333,72510,72507,72523,74856,74858,2023-06-03T08:35:29Z,74873,Angreifer,mshambulizi,d,kitengo,tasinia,usafirishaji,NA,NA,NA,NULL,NA,NA,NA,NA,NA,NA,NA,NA,NA,NA,NA,NA,NA,NA,NA,NA,NA,NA,NA
6a208,task,flow.Sequence,1_9,NA,NA,completion,2333,72510,72507,72523,74856,74858,2023-06-03T08:35:29Z,74873,Angreifer,mshambulizi,d,kitengo,tasinia,usafirishaji,NA,NA,NA,NULL,NA,NA,NA,NA,NA,NA,NA,NA,NA,NA,NA,NA,NA,NA,NA,NA,NA,NA,NA
6a208,Deep Question,html.Page,1_10_0_0,NA,NA,form submission,1393,74859,74856,74873,76266,76266,2023-06-03T08:35:31Z,76290,Aufstand,ugomaji,d,mazidio,msingi,kujieleza,k,NA,NA,NULL,NA,NA,NA,NA,NA,NA,NA,NA,NA,NA,NA,NA,NA,NA,NA,NA,NA,NA,NA
6a208,Save data screen,canvas.Screen,1_10_0_1,NA,NA,timeout,500,76267,76273,76290,76773,76775,2023-06-03T08:35:31Z,76790,Aufstand,ugomaji,d,mazidio,msingi,kujieleza,NA,NA,0,NULL,NA,NA,NA,NA,NA,NA,NA,NA,NA,NA,NA,NA,NA,NA,NA,NA,NA,NA,NA
6a208,deep,flow.Sequence,1_10_0,NA,NA,completion,1900,74859,74856,74873,76773,76775,2023-06-03T08:35:31Z,76790,Aufstand,ugomaji,d,mazidio,msingi,kujieleza,NA,NA,NA,NULL,NA,NA,NA,NA,NA,NA,NA,NA,NA,NA,NA,NA,NA,NA,NA,NA,NA,NA,NA
6a208,task,flow.Sequence,1_10,NA,NA,completion,1900,74858,74856,74873,76773,76776,2023-06-03T08:35:31Z,76790,Aufstand,ugomaji,d,mazidio,msingi,kujieleza,NA,NA,NA,NULL,NA,NA,NA,NA,NA,NA,NA,NA,NA,NA,NA,NA,NA,NA,NA,NA,NA,NA,NA
6a208,Deep Question,html.Page,1_11_0_0,NA,NA,form submission,1330,76776,76773,76790,78120,78121,2023-06-03T08:35:33Z,78140,System,maongozi,d,chokochoko,nuksani,mitaani,k,NA,NA,NULL,NA,NA,NA,NA,NA,NA,NA,NA,NA,NA,NA,NA,NA,NA,NA,NA,NA,NA,NA
6a208,Save data screen,canvas.Screen,1_11_0_1,NA,NA,timeout,500,78121,78123,78140,78623,78624,2023-06-03T08:35:33Z,78640,System,maongozi,d,chokochoko,nuksani,mitaani,NA,NA,0,NULL,NA,NA,NA,NA,NA,NA,NA,NA,NA,NA,NA,NA,NA,NA,NA,NA,NA,NA,NA
6a208,deep,flow.Sequence,1_11_0,NA,NA,completion,1833,76776,76773,76790,78623,78625,2023-06-03T08:35:33Z,78640,System,maongozi,d,chokochoko,nuksani,mitaani,NA,NA,NA,NULL,NA,NA,NA,NA,NA,NA,NA,NA,NA,NA,NA,NA,NA,NA,NA,NA,NA,NA,NA
6a208,task,flow.Sequence,1_11,NA,NA,completion,1833,76776,76773,76790,78623,78625,2023-06-03T08:35:33Z,78640,System,maongozi,d,chokochoko,nuksani,mitaani,NA,NA,NA,NULL,NA,NA,NA,NA,NA,NA,NA,NA,NA,NA,NA,NA,NA,NA,NA,NA,NA,NA,NA
6a208,Deep Question,html.Page,1_12_0_0,NA,NA,form submission,3423,78625,78623,78640,82063,82064,2023-06-03T08:35:37Z,82090,Kontrolle,kudhibiti,s,mbinguni,kufunga,utegemezi,k,NA,NA,NULL,NA,NA,NA,NA,NA,NA,NA,NA,NA,NA,NA,NA,NA,NA,NA,NA,NA,NA,NA
6a208,Save data screen,canvas.Screen,1_12_0_1,NA,NA,timeout,500,82064,82073,82090,82574,82574,2023-06-03T08:35:37Z,82590,Kontrolle,kudhibiti,s,mbinguni,kufunga,utegemezi,NA,NA,0,NULL,NA,NA,NA,NA,NA,NA,NA,NA,NA,NA,NA,NA,NA,NA,NA,NA,NA,NA,NA
6a208,deep,flow.Sequence,1_12_0,NA,NA,completion,3934,78625,78623,78640,82574,82575,2023-06-03T08:35:37Z,82590,Kontrolle,kudhibiti,s,mbinguni,kufunga,utegemezi,NA,NA,NA,NULL,NA,NA,NA,NA,NA,NA,NA,NA,NA,NA,NA,NA,NA,NA,NA,NA,NA,NA,NA
6a208,task,flow.Sequence,1_12,NA,NA,completion,3934,78625,78623,78640,82574,82575,2023-06-03T08:35:37Z,82590,Kontrolle,kudhibiti,s,mbinguni,kufunga,utegemezi,NA,NA,NA,NULL,NA,NA,NA,NA,NA,NA,NA,NA,NA,NA,NA,NA,NA,NA,NA,NA,NA,NA,NA
6a208,Deep Question,html.Page,1_13_0_0,NA,NA,form submission,7301,82575,82574,82590,89891,89891,2023-06-03T08:35:44Z,89907,Körper,kiwiliwili,s,mapambano,mpatanishi,kiolezo,kiwili,NA,NA,NULL,NA,NA,NA,NA,NA,NA,NA,NA,NA,NA,NA,NA,NA,NA,NA,NA,NA,NA,NA
6a208,Save data screen,canvas.Screen,1_13_0_1,NA,NA,timeout,500,89892,89893,89907,90391,90392,2023-06-03T08:35:45Z,90407,Körper,kiwiliwili,s,mapambano,mpatanishi,kiolezo,NA,NA,0,NULL,NA,NA,NA,NA,NA,NA,NA,NA,NA,NA,NA,NA,NA,NA,NA,NA,NA,NA,NA
6a208,deep,flow.Sequence,1_13_0,NA,NA,completion,7801,82575,82574,82590,90391,90392,2023-06-03T08:35:45Z,90407,Körper,kiwiliwili,s,mapambano,mpatanishi,kiolezo,NA,NA,NA,NULL,NA,NA,NA,NA,NA,NA,NA,NA,NA,NA,NA,NA,NA,NA,NA,NA,NA,NA,NA
6a208,task,flow.Sequence,1_13,NA,NA,completion,7801,82575,82574,82590,90391,90393,2023-06-03T08:35:45Z,90407,Körper,kiwiliwili,s,mapambano,mpatanishi,kiolezo,NA,NA,NA,NULL,NA,NA,NA,NA,NA,NA,NA,NA,NA,NA,NA,NA,NA,NA,NA,NA,NA,NA,NA
6a208,Deep Question,html.Page,1_14_0_0,NA,NA,form submission,13629,90393,90391,90407,104036,104036,2023-06-03T08:35:59Z,104058,Sänger,mwimbaji,d,msichana,shughuli,mshirika,wminbaji,NA,NA,NULL,NA,NA,NA,NA,NA,NA,NA,NA,NA,NA,NA,NA,NA,NA,NA,NA,NA,NA,NA
6a208,Save data screen,canvas.Screen,1_14_0_1,NA,NA,timeout,499,104037,104041,104058,104541,104542,2023-06-03T08:35:59Z,104557,Sänger,mwimbaji,d,msichana,shughuli,mshirika,NA,NA,0,NULL,NA,NA,NA,NA,NA,NA,NA,NA,NA,NA,NA,NA,NA,NA,NA,NA,NA,NA,NA
6a208,deep,flow.Sequence,1_14_0,NA,NA,completion,14134,90393,90391,90407,104541,104543,2023-06-03T08:35:59Z,104557,Sänger,mwimbaji,d,msichana,shughuli,mshirika,NA,NA,NA,NULL,NA,NA,NA,NA,NA,NA,NA,NA,NA,NA,NA,NA,NA,NA,NA,NA,NA,NA,NA
6a208,task,flow.Sequence,1_14,NA,NA,completion,14134,90393,90391,90407,104541,104544,2023-06-03T08:35:59Z,104557,Sänger,mwimbaji,d,msichana,shughuli,mshirika,NA,NA,NA,NULL,NA,NA,NA,NA,NA,NA,NA,NA,NA,NA,NA,NA,NA,NA,NA,NA,NA,NA,NA
6a208,Deep Question,html.Page,1_15_0_0,NA,NA,form submission,2529,104544,104541,104557,107086,107086,2023-06-03T08:36:02Z,107108,Prüfung,mtihani,d,mkulima,mtizamo,ufumbuzi,j,NA,NA,NULL,NA,NA,NA,NA,NA,NA,NA,NA,NA,NA,NA,NA,NA,NA,NA,NA,NA,NA,NA
6a208,Save data screen,canvas.Screen,1_15_0_1,NA,NA,timeout,500,107087,107091,107108,107590,107592,2023-06-03T08:36:02Z,107608,Prüfung,mtihani,d,mkulima,mtizamo,ufumbuzi,NA,NA,0,NULL,NA,NA,NA,NA,NA,NA,NA,NA,NA,NA,NA,NA,NA,NA,NA,NA,NA,NA,NA
6a208,deep,flow.Sequence,1_15_0,NA,NA,completion,3033,104544,104541,104557,107590,107593,2023-06-03T08:36:02Z,107608,Prüfung,mtihani,d,mkulima,mtizamo,ufumbuzi,NA,NA,NA,NULL,NA,NA,NA,NA,NA,NA,NA,NA,NA,NA,NA,NA,NA,NA,NA,NA,NA,NA,NA
6a208,task,flow.Sequence,1_15,NA,NA,completion,3033,104544,104541,104557,107590,107593,2023-06-03T08:36:02Z,107608,Prüfung,mtihani,d,mkulima,mtizamo,ufumbuzi,NA,NA,NA,NULL,NA,NA,NA,NA,NA,NA,NA,NA,NA,NA,NA,NA,NA,NA,NA,NA,NA,NA,NA
6a208,retrieval block 1 (cued recall),flow.Loop,1,NA,NA,completion,103736,3823,3837,3854,107590,107594,2023-06-03T08:36:02Z,107608,NA,NA,NA,NA,NA,NA,NA,NA,NA,NULL,NA,NA,NA,NA,NA,NA,NA,NA,NA,NA,NA,NA,NA,NA,NA,NA,NA,NA,NA
6a208,Shallow Question,html.Page,2_0_0_0,NA,NA,form submission,7458,107594,107590,107608,115066,115066,2023-06-03T08:36:10Z,115091,Übersicht,kilindo,s,mgusano,chipukizi,kulinganisha,kulinganisha,NA,NA,"c(""distractor1"", ""distractor2"", ""distractor3"")",NA,NA,NA,NA,NA,NA,NA,NA,NA,NA,NA,NA,NA,NA,NA,NA,NA,NA,NA
6a208,Save data screen,canvas.Screen,2_0_0_1,NA,NA,timeout,499,115067,115074,115091,115575,115576,2023-06-03T08:36:10Z,115590,Übersicht,kilindo,s,mgusano,chipukizi,kulinganisha,NA,NA,0,"c(""distractor1"", ""distractor2"", ""distractor3"")",NA,NA,NA,NA,NA,NA,NA,NA,NA,NA,NA,NA,NA,NA,NA,NA,NA,NA,NA
6a208,shallow,flow.Sequence,2_0_0,NA,NA,completion,7967,107594,107590,107608,115575,115576,2023-06-03T08:36:10Z,115590,Übersicht,kilindo,s,mgusano,chipukizi,kulinganisha,NA,NA,NA,"c(""distractor1"", ""distractor2"", ""distractor3"")",NA,NA,NA,NA,NA,NA,NA,NA,NA,NA,NA,NA,NA,NA,NA,NA,NA,NA,NA
6a208,task,flow.Sequence,2_0,NA,NA,completion,7967,107594,107590,107608,115575,115577,2023-06-03T08:36:10Z,115590,Übersicht,kilindo,s,mgusano,chipukizi,kulinganisha,NA,NA,NA,"c(""distractor1"", ""distractor2"", ""distractor3"")",NA,NA,NA,NA,NA,NA,NA,NA,NA,NA,NA,NA,NA,NA,NA,NA,NA,NA,NA
6a208,Shallow Question,html.Page,2_1_0_0,NA,NA,form submission,30610,115577,115575,115590,146200,146200,2023-06-03T08:36:41Z,146226,Aufstand,ugomaji,d,mazidio,msingi,kujieleza,kujieleza,NA,NA,"c(""distractor1"", ""distractor2"", ""distractor3"")",NA,NA,NA,NA,NA,NA,NA,NA,NA,NA,NA,NA,NA,NA,NA,NA,NA,NA,NA
6a208,Save data screen,canvas.Screen,2_1_0_1,NA,NA,timeout,499,146201,146209,146226,146709,146711,2023-06-03T08:36:41Z,146725,Aufstand,ugomaji,d,mazidio,msingi,kujieleza,NA,NA,0,"c(""distractor1"", ""distractor2"", ""distractor3"")",NA,NA,NA,NA,NA,NA,NA,NA,NA,NA,NA,NA,NA,NA,NA,NA,NA,NA,NA
6a208,shallow,flow.Sequence,2_1_0,NA,NA,completion,31119,115577,115575,115590,146709,146712,2023-06-03T08:36:41Z,146725,Aufstand,ugomaji,d,mazidio,msingi,kujieleza,NA,NA,NA,"c(""distractor1"", ""distractor2"", ""distractor3"")",NA,NA,NA,NA,NA,NA,NA,NA,NA,NA,NA,NA,NA,NA,NA,NA,NA,NA,NA
6a208,task,flow.Sequence,2_1,NA,NA,completion,31119,115577,115575,115590,146709,146712,2023-06-03T08:36:41Z,146725,Aufstand,ugomaji,d,mazidio,msingi,kujieleza,NA,NA,NA,"c(""distractor1"", ""distractor2"", ""distractor3"")",NA,NA,NA,NA,NA,NA,NA,NA,NA,NA,NA,NA,NA,NA,NA,NA,NA,NA,NA
6a208,Shallow Question,html.Page,2_2_0_0,NA,NA,form submission,3608,146713,146709,146725,150333,150333,2023-06-03T08:36:45Z,150359,Kultur,utamaduni,s,shetani,gerezani,mazingira,utamaduni,NA,NA,"c(""distractor1"", ""distractor2"", ""distractor3"")",NA,NA,NA,NA,NA,NA,NA,NA,NA,NA,NA,NA,NA,NA,NA,NA,NA,NA,NA
6a208,Save data screen,canvas.Screen,2_2_0_1,NA,NA,timeout,500,150335,150342,150359,150842,150843,2023-06-03T08:36:45Z,150859,Kultur,utamaduni,s,shetani,gerezani,mazingira,NA,NA,1,"c(""distractor1"", ""distractor2"", ""distractor3"")",NA,NA,NA,NA,NA,NA,NA,NA,NA,NA,NA,NA,NA,NA,NA,NA,NA,NA,NA
6a208,shallow,flow.Sequence,2_2_0,NA,NA,completion,4117,146713,146709,146725,150842,150843,2023-06-03T08:36:45Z,150859,Kultur,utamaduni,s,shetani,gerezani,mazingira,NA,NA,NA,"c(""distractor1"", ""distractor2"", ""distractor3"")",NA,NA,NA,NA,NA,NA,NA,NA,NA,NA,NA,NA,NA,NA,NA,NA,NA,NA,NA
6a208,task,flow.Sequence,2_2,NA,NA,completion,4117,146713,146709,146725,150842,150843,2023-06-03T08:36:45Z,150859,Kultur,utamaduni,s,shetani,gerezani,mazingira,NA,NA,NA,"c(""distractor1"", ""distractor2"", ""distractor3"")",NA,NA,NA,NA,NA,NA,NA,NA,NA,NA,NA,NA,NA,NA,NA,NA,NA,NA,NA
6a208,Shallow Question,html.Page,2_3_0_0,NA,NA,form submission,2975,150843,150842,150859,153834,153834,2023-06-03T08:36:48Z,153859,Verzögerung,kuchelewa,s,mwakilishi,mwanauchumi,jaribio,kuchelewa,NA,NA,"c(""distractor1"", ""distractor2"", ""distractor3"")",NA,NA,NA,NA,NA,NA,NA,NA,NA,NA,NA,NA,NA,NA,NA,NA,NA,NA,NA
6a208,Save data screen,canvas.Screen,2_3_0_1,NA,NA,timeout,500,153836,153842,153859,154342,154343,2023-06-03T08:36:49Z,154359,Verzögerung,kuchelewa,s,mwakilishi,mwanauchumi,jaribio,NA,NA,1,"c(""distractor1"", ""distractor2"", ""distractor3"")",NA,NA,NA,NA,NA,NA,NA,NA,NA,NA,NA,NA,NA,NA,NA,NA,NA,NA,NA
6a208,shallow,flow.Sequence,2_3_0,NA,NA,completion,3483,150843,150842,150859,154342,154344,2023-06-03T08:36:49Z,154359,Verzögerung,kuchelewa,s,mwakilishi,mwanauchumi,jaribio,NA,NA,NA,"c(""distractor1"", ""distractor2"", ""distractor3"")",NA,NA,NA,NA,NA,NA,NA,NA,NA,NA,NA,NA,NA,NA,NA,NA,NA,NA,NA
6a208,task,flow.Sequence,2_3,NA,NA,completion,3483,150843,150842,150859,154342,154345,2023-06-03T08:36:49Z,154359,Verzögerung,kuchelewa,s,mwakilishi,mwanauchumi,jaribio,NA,NA,NA,"c(""distractor1"", ""distractor2"", ""distractor3"")",NA,NA,NA,NA,NA,NA,NA,NA,NA,NA,NA,NA,NA,NA,NA,NA,NA,NA,NA
6a208,Shallow Question,html.Page,2_4_0_0,NA,NA,form submission,8408,154345,154342,154359,162767,162767,2023-06-03T08:36:57Z,162793,Kontrolle,kudhibiti,s,mbinguni,kufunga,utegemezi,kudhibiti,NA,NA,"c(""distractor1"", ""distractor2"", ""distractor3"")",NA,NA,NA,NA,NA,NA,NA,NA,NA,NA,NA,NA,NA,NA,NA,NA,NA,NA,NA
6a208,Save data screen,canvas.Screen,2_4_0_1,NA,NA,timeout,499,162769,162776,162793,163276,163277,2023-06-03T08:36:58Z,163292,Kontrolle,kudhibiti,s,mbinguni,kufunga,utegemezi,NA,NA,1,"c(""distractor1"", ""distractor2"", ""distractor3"")",NA,NA,NA,NA,NA,NA,NA,NA,NA,NA,NA,NA,NA,NA,NA,NA,NA,NA,NA
6a208,shallow,flow.Sequence,2_4_0,NA,NA,completion,8917,154345,154342,154359,163276,163277,2023-06-03T08:36:58Z,163292,Kontrolle,kudhibiti,s,mbinguni,kufunga,utegemezi,NA,NA,NA,"c(""distractor1"", ""distractor2"", ""distractor3"")",NA,NA,NA,NA,NA,NA,NA,NA,NA,NA,NA,NA,NA,NA,NA,NA,NA,NA,NA
6a208,task,flow.Sequence,2_4,NA,NA,completion,8917,154345,154342,154359,163276,163278,2023-06-03T08:36:58Z,163292,Kontrolle,kudhibiti,s,mbinguni,kufunga,utegemezi,NA,NA,NA,"c(""distractor1"", ""distractor2"", ""distractor3"")",NA,NA,NA,NA,NA,NA,NA,NA,NA,NA,NA,NA,NA,NA,NA,NA,NA,NA,NA
6a208,Shallow Question,html.Page,2_5_0_0,NA,NA,form submission,3142,163278,163276,163292,166434,166434,2023-06-03T08:37:01Z,166459,Körper,kiwiliwili,s,mapambano,mpatanishi,kiolezo,kiwiliwili,NA,NA,"c(""distractor1"", ""distractor2"", ""distractor3"")",NA,NA,NA,NA,NA,NA,NA,NA,NA,NA,NA,NA,NA,NA,NA,NA,NA,NA,NA
6a208,Save data screen,canvas.Screen,2_5_0_1,NA,NA,timeout,501,166435,166443,166459,166943,166944,2023-06-03T08:37:01Z,166960,Körper,kiwiliwili,s,mapambano,mpatanishi,kiolezo,NA,NA,1,"c(""distractor1"", ""distractor2"", ""distractor3"")",NA,NA,NA,NA,NA,NA,NA,NA,NA,NA,NA,NA,NA,NA,NA,NA,NA,NA,NA
6a208,shallow,flow.Sequence,2_5_0,NA,NA,completion,3651,163278,163276,163292,166943,166944,2023-06-03T08:37:01Z,166960,Körper,kiwiliwili,s,mapambano,mpatanishi,kiolezo,NA,NA,NA,"c(""distractor1"", ""distractor2"", ""distractor3"")",NA,NA,NA,NA,NA,NA,NA,NA,NA,NA,NA,NA,NA,NA,NA,NA,NA,NA,NA
6a208,task,flow.Sequence,2_5,NA,NA,completion,3651,163278,163276,163292,166943,166945,2023-06-03T08:37:01Z,166960,Körper,kiwiliwili,s,mapambano,mpatanishi,kiolezo,NA,NA,NA,"c(""distractor1"", ""distractor2"", ""distractor3"")",NA,NA,NA,NA,NA,NA,NA,NA,NA,NA,NA,NA,NA,NA,NA,NA,NA,NA,NA
6a208,Shallow Question,html.Page,2_6_0_0,NA,NA,form submission,3057,166945,166943,166960,170017,170017,2023-06-03T08:37:04Z,170043,Lawine,banguko,d,maambukizi,usuluhishi,chekechea,banguko,NA,NA,"c(""distractor1"", ""distractor2"", ""distractor3"")",NA,NA,NA,NA,NA,NA,NA,NA,NA,NA,NA,NA,NA,NA,NA,NA,NA,NA,NA
6a208,Save data screen,canvas.Screen,2_6_0_1,NA,NA,timeout,500,170018,170026,170043,170526,170527,2023-06-03T08:37:05Z,170543,Lawine,banguko,d,maambukizi,usuluhishi,chekechea,NA,NA,1,"c(""distractor1"", ""distractor2"", ""distractor3"")",NA,NA,NA,NA,NA,NA,NA,NA,NA,NA,NA,NA,NA,NA,NA,NA,NA,NA,NA
6a208,shallow,flow.Sequence,2_6_0,NA,NA,completion,3566,166945,166943,166960,170526,170528,2023-06-03T08:37:05Z,170543,Lawine,banguko,d,maambukizi,usuluhishi,chekechea,NA,NA,NA,"c(""distractor1"", ""distractor2"", ""distractor3"")",NA,NA,NA,NA,NA,NA,NA,NA,NA,NA,NA,NA,NA,NA,NA,NA,NA,NA,NA
6a208,task,flow.Sequence,2_6,NA,NA,completion,3566,166945,166943,166960,170526,170528,2023-06-03T08:37:05Z,170543,Lawine,banguko,d,maambukizi,usuluhishi,chekechea,NA,NA,NA,"c(""distractor1"", ""distractor2"", ""distractor3"")",NA,NA,NA,NA,NA,NA,NA,NA,NA,NA,NA,NA,NA,NA,NA,NA,NA,NA,NA
6a208,Shallow Question,html.Page,2_7_0_0,NA,NA,form submission,2824,170528,170526,170543,173367,173368,2023-06-03T08:37:08Z,173393,Sänger,mwimbaji,d,msichana,shughuli,mshirika,mwimbaji,NA,NA,"c(""distractor1"", ""distractor2"", ""distractor3"")",NA,NA,NA,NA,NA,NA,NA,NA,NA,NA,NA,NA,NA,NA,NA,NA,NA,NA,NA
6a208,Save data screen,canvas.Screen,2_7_0_1,NA,NA,timeout,500,173369,173376,173393,173876,173878,2023-06-03T08:37:08Z,173893,Sänger,mwimbaji,d,msichana,shughuli,mshirika,NA,NA,1,"c(""distractor1"", ""distractor2"", ""distractor3"")",NA,NA,NA,NA,NA,NA,NA,NA,NA,NA,NA,NA,NA,NA,NA,NA,NA,NA,NA
6a208,shallow,flow.Sequence,2_7_0,NA,NA,completion,3333,170528,170526,170543,173876,173879,2023-06-03T08:37:08Z,173893,Sänger,mwimbaji,d,msichana,shughuli,mshirika,NA,NA,NA,"c(""distractor1"", ""distractor2"", ""distractor3"")",NA,NA,NA,NA,NA,NA,NA,NA,NA,NA,NA,NA,NA,NA,NA,NA,NA,NA,NA
6a208,task,flow.Sequence,2_7,NA,NA,completion,3333,170528,170526,170543,173876,173879,2023-06-03T08:37:08Z,173893,Sänger,mwimbaji,d,msichana,shughuli,mshirika,NA,NA,NA,"c(""distractor1"", ""distractor2"", ""distractor3"")",NA,NA,NA,NA,NA,NA,NA,NA,NA,NA,NA,NA,NA,NA,NA,NA,NA,NA,NA
6a208,Shallow Question,html.Page,2_8_0_0,NA,NA,form submission,3624,173880,173876,173893,177517,177517,2023-06-03T08:37:12Z,177543,Können,unaweza,d,kiongozi,bustani,mienendo,unaweza,NA,NA,"c(""distractor1"", ""distractor2"", ""distractor3"")",NA,NA,NA,NA,NA,NA,NA,NA,NA,NA,NA,NA,NA,NA,NA,NA,NA,NA,NA
6a208,Save data screen,canvas.Screen,2_8_0_1,NA,NA,timeout,500,177518,177527,177543,178027,178027,2023-06-03T08:37:13Z,178043,Können,unaweza,d,kiongozi,bustani,mienendo,NA,NA,1,"c(""distractor1"", ""distractor2"", ""distractor3"")",NA,NA,NA,NA,NA,NA,NA,NA,NA,NA,NA,NA,NA,NA,NA,NA,NA,NA,NA
6a208,shallow,flow.Sequence,2_8_0,NA,NA,completion,4134,173880,173876,173893,178027,178028,2023-06-03T08:37:13Z,178043,Können,unaweza,d,kiongozi,bustani,mienendo,NA,NA,NA,"c(""distractor1"", ""distractor2"", ""distractor3"")",NA,NA,NA,NA,NA,NA,NA,NA,NA,NA,NA,NA,NA,NA,NA,NA,NA,NA,NA
6a208,task,flow.Sequence,2_8,NA,NA,completion,4134,173879,173876,173893,178027,178028,2023-06-03T08:37:13Z,178043,Können,unaweza,d,kiongozi,bustani,mienendo,NA,NA,NA,"c(""distractor1"", ""distractor2"", ""distractor3"")",NA,NA,NA,NA,NA,NA,NA,NA,NA,NA,NA,NA,NA,NA,NA,NA,NA,NA,NA
6a208,Shallow Question,html.Page,2_9_0_0,NA,NA,form submission,7591,178029,178027,178043,185634,185635,2023-06-03T08:37:20Z,185659,System,maongozi,d,chokochoko,nuksani,mitaani,maongozi,NA,NA,"c(""distractor1"", ""distractor2"", ""distractor3"")",NA,NA,NA,NA,NA,NA,NA,NA,NA,NA,NA,NA,NA,NA,NA,NA,NA,NA,NA
6a208,Save data screen,canvas.Screen,2_9_0_1,NA,NA,timeout,501,185636,185643,185659,186144,186145,2023-06-03T08:37:21Z,186160,System,maongozi,d,chokochoko,nuksani,mitaani,NA,NA,1,"c(""distractor1"", ""distractor2"", ""distractor3"")",NA,NA,NA,NA,NA,NA,NA,NA,NA,NA,NA,NA,NA,NA,NA,NA,NA,NA,NA
6a208,shallow,flow.Sequence,2_9_0,NA,NA,completion,8101,178028,178027,178043,186144,186146,2023-06-03T08:37:21Z,186160,System,maongozi,d,chokochoko,nuksani,mitaani,NA,NA,NA,"c(""distractor1"", ""distractor2"", ""distractor3"")",NA,NA,NA,NA,NA,NA,NA,NA,NA,NA,NA,NA,NA,NA,NA,NA,NA,NA,NA
6a208,task,flow.Sequence,2_9,NA,NA,completion,8101,178028,178027,178043,186144,186146,2023-06-03T08:37:21Z,186160,System,maongozi,d,chokochoko,nuksani,mitaani,NA,NA,NA,"c(""distractor1"", ""distractor2"", ""distractor3"")",NA,NA,NA,NA,NA,NA,NA,NA,NA,NA,NA,NA,NA,NA,NA,NA,NA,NA,NA
6a208,Shallow Question,html.Page,2_10_0_0,NA,NA,form submission,3840,186147,186144,186160,190000,190000,2023-06-03T08:37:24Z,190027,Kanzler,diwani,s,rasilmali,mahitaji,maabudu,diwani,NA,NA,"c(""distractor1"", ""distractor2"", ""distractor3"")",NA,NA,NA,NA,NA,NA,NA,NA,NA,NA,NA,NA,NA,NA,NA,NA,NA,NA,NA
6a208,Save data screen,canvas.Screen,2_10_0_1,NA,NA,timeout,500,190001,190010,190027,190509,190510,2023-06-03T08:37:25Z,190527,Kanzler,diwani,s,rasilmali,mahitaji,maabudu,NA,NA,1,"c(""distractor1"", ""distractor2"", ""distractor3"")",NA,NA,NA,NA,NA,NA,NA,NA,NA,NA,NA,NA,NA,NA,NA,NA,NA,NA,NA
6a208,shallow,flow.Sequence,2_10_0,NA,NA,completion,4349,186146,186144,186160,190509,190511,2023-06-03T08:37:25Z,190527,Kanzler,diwani,s,rasilmali,mahitaji,maabudu,NA,NA,NA,"c(""distractor1"", ""distractor2"", ""distractor3"")",NA,NA,NA,NA,NA,NA,NA,NA,NA,NA,NA,NA,NA,NA,NA,NA,NA,NA,NA
6a208,task,flow.Sequence,2_10,NA,NA,completion,4349,186146,186144,186160,190509,190511,2023-06-03T08:37:25Z,190527,Kanzler,diwani,s,rasilmali,mahitaji,maabudu,NA,NA,NA,"c(""distractor1"", ""distractor2"", ""distractor3"")",NA,NA,NA,NA,NA,NA,NA,NA,NA,NA,NA,NA,NA,NA,NA,NA,NA,NA,NA
6a208,Shallow Question,html.Page,2_11_0_0,NA,NA,form submission,7025,190511,190509,190527,197552,197552,2023-06-03T08:37:32Z,197576,Abrechnung,uhasibu,s,kusahihisha,mpambano,mashambulizi,mashambulizi,NA,NA,"c(""distractor1"", ""distractor2"", ""distractor3"")",NA,NA,NA,NA,NA,NA,NA,NA,NA,NA,NA,NA,NA,NA,NA,NA,NA,NA,NA
6a208,Save data screen,canvas.Screen,2_11_0_1,NA,NA,timeout,501,197553,197560,197576,198060,198061,2023-06-03T08:37:33Z,198077,Abrechnung,uhasibu,s,kusahihisha,mpambano,mashambulizi,NA,NA,0,"c(""distractor1"", ""distractor2"", ""distractor3"")",NA,NA,NA,NA,NA,NA,NA,NA,NA,NA,NA,NA,NA,NA,NA,NA,NA,NA,NA
6a208,shallow,flow.Sequence,2_11_0,NA,NA,completion,7533,190511,190509,190527,198060,198062,2023-06-03T08:37:33Z,198077,Abrechnung,uhasibu,s,kusahihisha,mpambano,mashambulizi,NA,NA,NA,"c(""distractor1"", ""distractor2"", ""distractor3"")",NA,NA,NA,NA,NA,NA,NA,NA,NA,NA,NA,NA,NA,NA,NA,NA,NA,NA,NA
6a208,task,flow.Sequence,2_11,NA,NA,completion,7533,190511,190509,190527,198060,198063,2023-06-03T08:37:33Z,198077,Abrechnung,uhasibu,s,kusahihisha,mpambano,mashambulizi,NA,NA,NA,"c(""distractor1"", ""distractor2"", ""distractor3"")",NA,NA,NA,NA,NA,NA,NA,NA,NA,NA,NA,NA,NA,NA,NA,NA,NA,NA,NA
6a208,Shallow Question,html.Page,2_12_0_0,NA,NA,form submission,7775,198063,198060,198077,205852,205852,2023-06-03T08:37:40Z,205877,Gefährdung,kuhatarisha,s,uchokozi,udhaifu,makorowezo,kuhatarisha,NA,NA,"c(""distractor1"", ""distractor2"", ""distractor3"")",NA,NA,NA,NA,NA,NA,NA,NA,NA,NA,NA,NA,NA,NA,NA,NA,NA,NA,NA
6a208,Save data screen,canvas.Screen,2_12_0_1,NA,NA,timeout,500,205853,205861,205877,206361,206362,2023-06-03T08:37:41Z,206377,Gefährdung,kuhatarisha,s,uchokozi,udhaifu,makorowezo,NA,NA,1,"c(""distractor1"", ""distractor2"", ""distractor3"")",NA,NA,NA,NA,NA,NA,NA,NA,NA,NA,NA,NA,NA,NA,NA,NA,NA,NA,NA
6a208,shallow,flow.Sequence,2_12_0,NA,NA,completion,8284,198063,198060,198077,206361,206363,2023-06-03T08:37:41Z,206377,Gefährdung,kuhatarisha,s,uchokozi,udhaifu,makorowezo,NA,NA,NA,"c(""distractor1"", ""distractor2"", ""distractor3"")",NA,NA,NA,NA,NA,NA,NA,NA,NA,NA,NA,NA,NA,NA,NA,NA,NA,NA,NA
6a208,task,flow.Sequence,2_12,NA,NA,completion,8284,198063,198060,198077,206361,206363,2023-06-03T08:37:41Z,206377,Gefährdung,kuhatarisha,s,uchokozi,udhaifu,makorowezo,NA,NA,NA,"c(""distractor1"", ""distractor2"", ""distractor3"")",NA,NA,NA,NA,NA,NA,NA,NA,NA,NA,NA,NA,NA,NA,NA,NA,NA,NA,NA
6a208,Shallow Question,html.Page,2_13_0_0,NA,NA,form submission,6358,206364,206361,206377,212735,212736,2023-06-03T08:37:47Z,212761,Prüfung,mtihani,d,mkulima,mtizamo,ufumbuzi,ufumbuzi,NA,NA,"c(""distractor1"", ""distractor2"", ""distractor3"")",NA,NA,NA,NA,NA,NA,NA,NA,NA,NA,NA,NA,NA,NA,NA,NA,NA,NA,NA
6a208,Save data screen,canvas.Screen,2_13_0_1,NA,NA,timeout,500,212737,212744,212761,213244,213245,2023-06-03T08:37:48Z,213261,Prüfung,mtihani,d,mkulima,mtizamo,ufumbuzi,NA,NA,0,"c(""distractor1"", ""distractor2"", ""distractor3"")",NA,NA,NA,NA,NA,NA,NA,NA,NA,NA,NA,NA,NA,NA,NA,NA,NA,NA,NA
6a208,shallow,flow.Sequence,2_13_0,NA,NA,completion,6867,206364,206361,206377,213244,213246,2023-06-03T08:37:48Z,213261,Prüfung,mtihani,d,mkulima,mtizamo,ufumbuzi,NA,NA,NA,"c(""distractor1"", ""distractor2"", ""distractor3"")",NA,NA,NA,NA,NA,NA,NA,NA,NA,NA,NA,NA,NA,NA,NA,NA,NA,NA,NA
6a208,task,flow.Sequence,2_13,NA,NA,completion,6867,206364,206361,206377,213244,213246,2023-06-03T08:37:48Z,213261,Prüfung,mtihani,d,mkulima,mtizamo,ufumbuzi,NA,NA,NA,"c(""distractor1"", ""distractor2"", ""distractor3"")",NA,NA,NA,NA,NA,NA,NA,NA,NA,NA,NA,NA,NA,NA,NA,NA,NA,NA,NA
6a208,Shallow Question,html.Page,2_14_0_0,NA,NA,form submission,6825,213247,213244,213261,220086,220086,2023-06-03T08:37:55Z,220110,Angreifer,mshambulizi,d,kitengo,tasinia,usafirishaji,mshambulizi,NA,NA,"c(""distractor1"", ""distractor2"", ""distractor3"")",NA,NA,NA,NA,NA,NA,NA,NA,NA,NA,NA,NA,NA,NA,NA,NA,NA,NA,NA
6a208,Save data screen,canvas.Screen,2_14_0_1,NA,NA,timeout,501,220087,220094,220110,220595,220595,2023-06-03T08:37:55Z,220611,Angreifer,mshambulizi,d,kitengo,tasinia,usafirishaji,NA,NA,1,"c(""distractor1"", ""distractor2"", ""distractor3"")",NA,NA,NA,NA,NA,NA,NA,NA,NA,NA,NA,NA,NA,NA,NA,NA,NA,NA,NA
6a208,shallow,flow.Sequence,2_14_0,NA,NA,completion,7334,213247,213244,213261,220595,220596,2023-06-03T08:37:55Z,220611,Angreifer,mshambulizi,d,kitengo,tasinia,usafirishaji,NA,NA,NA,"c(""distractor1"", ""distractor2"", ""distractor3"")",NA,NA,NA,NA,NA,NA,NA,NA,NA,NA,NA,NA,NA,NA,NA,NA,NA,NA,NA
6a208,task,flow.Sequence,2_14,NA,NA,completion,7334,213246,213244,213261,220595,220596,2023-06-03T08:37:55Z,220611,Angreifer,mshambulizi,d,kitengo,tasinia,usafirishaji,NA,NA,NA,"c(""distractor1"", ""distractor2"", ""distractor3"")",NA,NA,NA,NA,NA,NA,NA,NA,NA,NA,NA,NA,NA,NA,NA,NA,NA,NA,NA
6a208,Shallow Question,html.Page,2_15_0_0,NA,NA,form submission,11510,220596,220595,220611,232121,232122,2023-06-03T08:38:07Z,232145,Kreativität,ubunifu,d,mratibu,mwendelezo,makubaliano,ubunifu,NA,NA,"c(""distractor1"", ""distractor2"", ""distractor3"")",NA,NA,NA,NA,NA,NA,NA,NA,NA,NA,NA,NA,NA,NA,NA,NA,NA,NA,NA
6a208,Save data screen,canvas.Screen,2_15_0_1,NA,NA,timeout,500,232123,232128,232145,232628,232630,2023-06-03T08:38:07Z,232645,Kreativität,ubunifu,d,mratibu,mwendelezo,makubaliano,NA,NA,1,"c(""distractor1"", ""distractor2"", ""distractor3"")",NA,NA,NA,NA,NA,NA,NA,NA,NA,NA,NA,NA,NA,NA,NA,NA,NA,NA,NA
6a208,shallow,flow.Sequence,2_15_0,NA,NA,completion,12017,220596,220595,220611,232628,232631,2023-06-03T08:38:07Z,232645,Kreativität,ubunifu,d,mratibu,mwendelezo,makubaliano,NA,NA,NA,"c(""distractor1"", ""distractor2"", ""distractor3"")",NA,NA,NA,NA,NA,NA,NA,NA,NA,NA,NA,NA,NA,NA,NA,NA,NA,NA,NA
6a208,task,flow.Sequence,2_15,NA,NA,completion,12017,220596,220595,220611,232628,232631,2023-06-03T08:38:07Z,232645,Kreativität,ubunifu,d,mratibu,mwendelezo,makubaliano,NA,NA,NA,"c(""distractor1"", ""distractor2"", ""distractor3"")",NA,NA,NA,NA,NA,NA,NA,NA,NA,NA,NA,NA,NA,NA,NA,NA,NA,NA,NA
6a208,retrieval block 2 (multiple choice),flow.Loop,2,NA,NA,completion,125020,107594,107590,107608,232628,232631,2023-06-03T08:38:07Z,232645,NA,NA,NA,NA,NA,NA,NA,NA,NA,"c(""distractor1"", ""distractor2"", ""distractor3"")",NA,NA,NA,NA,NA,NA,NA,NA,NA,NA,NA,NA,NA,NA,NA,NA,NA,NA,NA
6a208,End,canvas.Screen,3,NA,keypress(Space),response,1094,232631,232628,232645,233722,233706,2023-06-03T08:38:08Z,233728,NA,NA,NA,NA,NA,NA,NA,NA,NA,NULL,NA,NA,NA,NA,NA,NA,NA,NA,NA,NA,NA,NA,NA,NA,NA,NA,NA,NA,NA
6a208,root,flow.Sequence,NA,NA,NA,completion,233622,91,92,100,233722,233706,2023-06-03T08:38:08Z,233728,NA,NA,NA,NA,NA,NA,NA,NA,NA,NULL,NA,NA,NA,NA,NA,NA,NA,NA,NA,NA,NA,NA,NA,NA,NA,NA,NA,NA,NA
859a1,Introduction delayed retrieval,canvas.Screen,0,weiter,keypress(Space),response,32218,301,302,320,32520,32589,2023-06-03T08:29:00Z,32622,NA,NA,NA,NA,NA,NA,NA,NA,NA,NULL,219,2,20.2.4,https://neurocog.fernuni.ch/studies/vweber/sfink/delayed/index.html?vp=219&sess=2,"Mozilla/5.0 (Macintosh; Intel Mac OS X 10_15_7) AppleWebKit/605.1.15 (KHTML, like Gecko) Version/16.4 Safari/605.1.15",MacIntel,en-GB,en-GB,Europe/Zurich,-120,1440,900,752,717,752,765,2,production,f5b4a49f956347addd546a832a3327688c2c0fef
859a1,Deep Question,html.Page,1_0_0_0,NA,NA,form submission,6906,32590,32605,32622,39528,39528,2023-06-03T08:29:07Z,39539,Gefährdung,kuhatarisha,s,uchokozi,udhaifu,makorowezo,banguko,NA,NA,NULL,NA,NA,NA,NA,NA,NA,NA,NA,NA,NA,NA,NA,NA,NA,NA,NA,NA,NA,NA
859a1,Save data screen,canvas.Screen,1_0_0_1,NA,NA,timeout,500,39530,39532,39539,40022,40024,2023-06-03T08:29:08Z,40039,Gefährdung,kuhatarisha,s,uchokozi,udhaifu,makorowezo,NA,NA,0,NULL,NA,NA,NA,NA,NA,NA,NA,NA,NA,NA,NA,NA,NA,NA,NA,NA,NA,NA,NA
859a1,deep,flow.Sequence,1_0_0,NA,NA,completion,7400,32590,32605,32622,40022,40025,2023-06-03T08:29:08Z,40039,Gefährdung,kuhatarisha,s,uchokozi,udhaifu,makorowezo,NA,NA,NA,NULL,NA,NA,NA,NA,NA,NA,NA,NA,NA,NA,NA,NA,NA,NA,NA,NA,NA,NA,NA
859a1,task,flow.Sequence,1_0,NA,NA,completion,7400,32589,32605,32622,40022,40026,2023-06-03T08:29:08Z,40039,Gefährdung,kuhatarisha,s,uchokozi,udhaifu,makorowezo,NA,NA,NA,NULL,NA,NA,NA,NA,NA,NA,NA,NA,NA,NA,NA,NA,NA,NA,NA,NA,NA,NA,NA
859a1,Deep Question,html.Page,1_1_0_0,NA,NA,form submission,2798,40026,40022,40039,42837,42837,2023-06-03T08:29:11Z,42856,System,maongozi,d,chokochoko,nuksani,mitaani,h,NA,NA,NULL,NA,NA,NA,NA,NA,NA,NA,NA,NA,NA,NA,NA,NA,NA,NA,NA,NA,NA,NA
859a1,Save data screen,canvas.Screen,1_1_0_1,NA,NA,timeout,500,42837,42839,42856,43340,43341,2023-06-03T08:29:11Z,43356,System,maongozi,d,chokochoko,nuksani,mitaani,NA,NA,0,NULL,NA,NA,NA,NA,NA,NA,NA,NA,NA,NA,NA,NA,NA,NA,NA,NA,NA,NA,NA
859a1,deep,flow.Sequence,1_1_0,NA,NA,completion,3301,40026,40022,40039,43340,43341,2023-06-03T08:29:11Z,43356,System,maongozi,d,chokochoko,nuksani,mitaani,NA,NA,NA,NULL,NA,NA,NA,NA,NA,NA,NA,NA,NA,NA,NA,NA,NA,NA,NA,NA,NA,NA,NA
859a1,task,flow.Sequence,1_1,NA,NA,completion,3301,40026,40022,40039,43340,43341,2023-06-03T08:29:11Z,43356,System,maongozi,d,chokochoko,nuksani,mitaani,NA,NA,NA,NULL,NA,NA,NA,NA,NA,NA,NA,NA,NA,NA,NA,NA,NA,NA,NA,NA,NA,NA,NA
859a1,Deep Question,html.Page,1_2_0_0,NA,NA,form submission,2328,43342,43340,43356,45684,45684,2023-06-03T08:29:13Z,45706,Prüfung,mtihani,d,mkulima,mtizamo,ufumbuzi,j,NA,NA,NULL,NA,NA,NA,NA,NA,NA,NA,NA,NA,NA,NA,NA,NA,NA,NA,NA,NA,NA,NA
859a1,Save data screen,canvas.Screen,1_2_0_1,NA,NA,timeout,500,45685,45689,45706,46189,46191,2023-06-03T08:29:14Z,46206,Prüfung,mtihani,d,mkulima,mtizamo,ufumbuzi,NA,NA,0,NULL,NA,NA,NA,NA,NA,NA,NA,NA,NA,NA,NA,NA,NA,NA,NA,NA,NA,NA,NA
859a1,deep,flow.Sequence,1_2_0,NA,NA,completion,2833,43342,43340,43356,46189,46191,2023-06-03T08:29:14Z,46206,Prüfung,mtihani,d,mkulima,mtizamo,ufumbuzi,NA,NA,NA,NULL,NA,NA,NA,NA,NA,NA,NA,NA,NA,NA,NA,NA,NA,NA,NA,NA,NA,NA,NA
859a1,task,flow.Sequence,1_2,NA,NA,completion,2833,43341,43340,43356,46189,46192,2023-06-03T08:29:14Z,46206,Prüfung,mtihani,d,mkulima,mtizamo,ufumbuzi,NA,NA,NA,NULL,NA,NA,NA,NA,NA,NA,NA,NA,NA,NA,NA,NA,NA,NA,NA,NA,NA,NA,NA
859a1,Deep Question,html.Page,1_3_0_0,NA,NA,form submission,2050,46192,46189,46206,48256,48256,2023-06-03T08:29:16Z,48289,Kreativität,ubunifu,d,mratibu,mwendelezo,makubaliano,j,NA,NA,NULL,NA,NA,NA,NA,NA,NA,NA,NA,NA,NA,NA,NA,NA,NA,NA,NA,NA,NA,NA
859a1,Save data screen,canvas.Screen,1_3_0_1,NA,NA,timeout,500,48257,48273,48289,48773,48774,2023-06-03T08:29:17Z,48789,Kreativität,ubunifu,d,mratibu,mwendelezo,makubaliano,NA,NA,0,NULL,NA,NA,NA,NA,NA,NA,NA,NA,NA,NA,NA,NA,NA,NA,NA,NA,NA,NA,NA
859a1,deep,flow.Sequence,1_3_0,NA,NA,completion,2567,46192,46189,46206,48773,48775,2023-06-03T08:29:17Z,48789,Kreativität,ubunifu,d,mratibu,mwendelezo,makubaliano,NA,NA,NA,NULL,NA,NA,NA,NA,NA,NA,NA,NA,NA,NA,NA,NA,NA,NA,NA,NA,NA,NA,NA
859a1,task,flow.Sequence,1_3,NA,NA,completion,2567,46192,46189,46206,48773,48775,2023-06-03T08:29:17Z,48789,Kreativität,ubunifu,d,mratibu,mwendelezo,makubaliano,NA,NA,NA,NULL,NA,NA,NA,NA,NA,NA,NA,NA,NA,NA,NA,NA,NA,NA,NA,NA,NA,NA,NA
859a1,Deep Question,html.Page,1_4_0_0,NA,NA,form submission,15204,48775,48773,48789,63993,63994,2023-06-03T08:29:32Z,64023,Verzögerung,kuchelewa,s,mwakilishi,mwanauchumi,jaribio,kuche,NA,NA,NULL,NA,NA,NA,NA,NA,NA,NA,NA,NA,NA,NA,NA,NA,NA,NA,NA,NA,NA,NA
859a1,Save data screen,canvas.Screen,1_4_0_1,NA,NA,timeout,500,63994,64006,64023,64507,64508,2023-06-03T08:29:32Z,64523,Verzögerung,kuchelewa,s,mwakilishi,mwanauchumi,jaribio,NA,NA,0,NULL,NA,NA,NA,NA,NA,NA,NA,NA,NA,NA,NA,NA,NA,NA,NA,NA,NA,NA,NA
859a1,deep,flow.Sequence,1_4_0,NA,NA,completion,15718,48775,48773,48789,64507,64509,2023-06-03T08:29:32Z,64523,Verzögerung,kuchelewa,s,mwakilishi,mwanauchumi,jaribio,NA,NA,NA,NULL,NA,NA,NA,NA,NA,NA,NA,NA,NA,NA,NA,NA,NA,NA,NA,NA,NA,NA,NA
859a1,task,flow.Sequence,1_4,NA,NA,completion,15718,48775,48773,48789,64507,64509,2023-06-03T08:29:32Z,64523,Verzögerung,kuchelewa,s,mwakilishi,mwanauchumi,jaribio,NA,NA,NA,NULL,NA,NA,NA,NA,NA,NA,NA,NA,NA,NA,NA,NA,NA,NA,NA,NA,NA,NA,NA
859a1,Deep Question,html.Page,1_5_0_0,NA,NA,form submission,2278,64510,64507,64523,66801,66801,2023-06-03T08:29:35Z,66823,Abrechnung,uhasibu,s,kusahihisha,mpambano,mashambulizi,j,NA,NA,NULL,NA,NA,NA,NA,NA,NA,NA,NA,NA,NA,NA,NA,NA,NA,NA,NA,NA,NA,NA
859a1,Save data screen,canvas.Screen,1_5_0_1,NA,NA,timeout,500,66802,66807,66823,67307,67308,2023-06-03T08:29:35Z,67323,Abrechnung,uhasibu,s,kusahihisha,mpambano,mashambulizi,NA,NA,0,NULL,NA,NA,NA,NA,NA,NA,NA,NA,NA,NA,NA,NA,NA,NA,NA,NA,NA,NA,NA
859a1,deep,flow.Sequence,1_5_0,NA,NA,completion,2784,64510,64507,64523,67307,67308,2023-06-03T08:29:35Z,67323,Abrechnung,uhasibu,s,kusahihisha,mpambano,mashambulizi,NA,NA,NA,NULL,NA,NA,NA,NA,NA,NA,NA,NA,NA,NA,NA,NA,NA,NA,NA,NA,NA,NA,NA
859a1,task,flow.Sequence,1_5,NA,NA,completion,2784,64510,64507,64523,67307,67308,2023-06-03T08:29:35Z,67323,Abrechnung,uhasibu,s,kusahihisha,mpambano,mashambulizi,NA,NA,NA,NULL,NA,NA,NA,NA,NA,NA,NA,NA,NA,NA,NA,NA,NA,NA,NA,NA,NA,NA,NA
859a1,Deep Question,html.Page,1_6_0_0,NA,NA,form submission,3896,67309,67307,67323,71219,71219,2023-06-03T08:29:39Z,71240,Kontrolle,kudhibiti,s,mbinguni,kufunga,utegemezi,j,NA,NA,NULL,NA,NA,NA,NA,NA,NA,NA,NA,NA,NA,NA,NA,NA,NA,NA,NA,NA,NA,NA
859a1,Save data screen,canvas.Screen,1_6_0_1,NA,NA,timeout,500,71220,71223,71240,71724,71725,2023-06-03T08:29:39Z,71740,Kontrolle,kudhibiti,s,mbinguni,kufunga,utegemezi,NA,NA,0,NULL,NA,NA,NA,NA,NA,NA,NA,NA,NA,NA,NA,NA,NA,NA,NA,NA,NA,NA,NA
859a1,deep,flow.Sequence,1_6_0,NA,NA,completion,4401,67309,67307,67323,71724,71726,2023-06-03T08:29:39Z,71740,Kontrolle,kudhibiti,s,mbinguni,kufunga,utegemezi,NA,NA,NA,NULL,NA,NA,NA,NA,NA,NA,NA,NA,NA,NA,NA,NA,NA,NA,NA,NA,NA,NA,NA
859a1,task,flow.Sequence,1_6,NA,NA,completion,4401,67308,67307,67323,71724,71726,2023-06-03T08:29:39Z,71740,Kontrolle,kudhibiti,s,mbinguni,kufunga,utegemezi,NA,NA,NA,NULL,NA,NA,NA,NA,NA,NA,NA,NA,NA,NA,NA,NA,NA,NA,NA,NA,NA,NA,NA
859a1,Deep Question,html.Page,1_7_0_0,NA,NA,form submission,8462,71727,71724,71740,80202,80203,2023-06-03T08:29:48Z,80224,Können,unaweza,d,kiongozi,bustani,mienendo,j,NA,NA,NULL,NA,NA,NA,NA,NA,NA,NA,NA,NA,NA,NA,NA,NA,NA,NA,NA,NA,NA,NA
859a1,Save data screen,canvas.Screen,1_7_0_1,NA,NA,timeout,500,80203,80207,80224,80707,80708,2023-06-03T08:29:48Z,80724,Können,unaweza,d,kiongozi,bustani,mienendo,NA,NA,0,NULL,NA,NA,NA,NA,NA,NA,NA,NA,NA,NA,NA,NA,NA,NA,NA,NA,NA,NA,NA
859a1,deep,flow.Sequence,1_7_0,NA,NA,completion,8967,71726,71724,71740,80707,80709,2023-06-03T08:29:48Z,80724,Können,unaweza,d,kiongozi,bustani,mienendo,NA,NA,NA,NULL,NA,NA,NA,NA,NA,NA,NA,NA,NA,NA,NA,NA,NA,NA,NA,NA,NA,NA,NA
859a1,task,flow.Sequence,1_7,NA,NA,completion,8967,71726,71724,71740,80707,80709,2023-06-03T08:29:48Z,80724,Können,unaweza,d,kiongozi,bustani,mienendo,NA,NA,NA,NULL,NA,NA,NA,NA,NA,NA,NA,NA,NA,NA,NA,NA,NA,NA,NA,NA,NA,NA,NA
859a1,Deep Question,html.Page,1_8_0_0,NA,NA,form submission,17915,80709,80707,80724,98639,98639,2023-06-03T08:30:06Z,98658,Angreifer,mshambulizi,d,kitengo,tasinia,usafirishaji,j,NA,NA,NULL,NA,NA,NA,NA,NA,NA,NA,NA,NA,NA,NA,NA,NA,NA,NA,NA,NA,NA,NA
859a1,Save data screen,canvas.Screen,1_8_0_1,NA,NA,timeout,500,98640,98642,98658,99141,99143,2023-06-03T08:30:07Z,99158,Angreifer,mshambulizi,d,kitengo,tasinia,usafirishaji,NA,NA,0,NULL,NA,NA,NA,NA,NA,NA,NA,NA,NA,NA,NA,NA,NA,NA,NA,NA,NA,NA,NA
859a1,deep,flow.Sequence,1_8_0,NA,NA,completion,18417,80709,80707,80724,99141,99144,2023-06-03T08:30:07Z,99158,Angreifer,mshambulizi,d,kitengo,tasinia,usafirishaji,NA,NA,NA,NULL,NA,NA,NA,NA,NA,NA,NA,NA,NA,NA,NA,NA,NA,NA,NA,NA,NA,NA,NA
859a1,task,flow.Sequence,1_8,NA,NA,completion,18417,80709,80707,80724,99141,99145,2023-06-03T08:30:07Z,99158,Angreifer,mshambulizi,d,kitengo,tasinia,usafirishaji,NA,NA,NA,NULL,NA,NA,NA,NA,NA,NA,NA,NA,NA,NA,NA,NA,NA,NA,NA,NA,NA,NA,NA
859a1,Deep Question,html.Page,1_9_0_0,NA,NA,form submission,4089,99145,99141,99158,103247,103248,2023-06-03T08:30:11Z,103275,Kultur,utamaduni,s,shetani,gerezani,mazingira,j,NA,NA,NULL,NA,NA,NA,NA,NA,NA,NA,NA,NA,NA,NA,NA,NA,NA,NA,NA,NA,NA,NA
859a1,Save data screen,canvas.Screen,1_9_0_1,NA,NA,timeout,499,103248,103258,103275,103758,103759,2023-06-03T08:30:12Z,103774,Kultur,utamaduni,s,shetani,gerezani,mazingira,NA,NA,0,NULL,NA,NA,NA,NA,NA,NA,NA,NA,NA,NA,NA,NA,NA,NA,NA,NA,NA,NA,NA
859a1,deep,flow.Sequence,1_9_0,NA,NA,completion,4600,99145,99141,99158,103758,103760,2023-06-03T08:30:12Z,103774,Kultur,utamaduni,s,shetani,gerezani,mazingira,NA,NA,NA,NULL,NA,NA,NA,NA,NA,NA,NA,NA,NA,NA,NA,NA,NA,NA,NA,NA,NA,NA,NA
859a1,task,flow.Sequence,1_9,NA,NA,completion,4600,99145,99141,99158,103758,103760,2023-06-03T08:30:12Z,103774,Kultur,utamaduni,s,shetani,gerezani,mazingira,NA,NA,NA,NULL,NA,NA,NA,NA,NA,NA,NA,NA,NA,NA,NA,NA,NA,NA,NA,NA,NA,NA,NA
859a1,Deep Question,html.Page,1_10_0_0,NA,NA,form submission,26703,103761,103758,103774,130477,130478,2023-06-03T08:30:38Z,130509,Sänger,mwimbaji,d,msichana,shughuli,mshirika,mwanbija,NA,NA,NULL,NA,NA,NA,NA,NA,NA,NA,NA,NA,NA,NA,NA,NA,NA,NA,NA,NA,NA,NA
859a1,Save data screen,canvas.Screen,1_10_0_1,NA,NA,timeout,500,130478,130492,130509,130992,130992,2023-06-03T08:30:39Z,131009,Sänger,mwimbaji,d,msichana,shughuli,mshirika,NA,NA,0,NULL,NA,NA,NA,NA,NA,NA,NA,NA,NA,NA,NA,NA,NA,NA,NA,NA,NA,NA,NA
859a1,deep,flow.Sequence,1_10_0,NA,NA,completion,27218,103760,103758,103774,130992,130993,2023-06-03T08:30:39Z,131009,Sänger,mwimbaji,d,msichana,shughuli,mshirika,NA,NA,NA,NULL,NA,NA,NA,NA,NA,NA,NA,NA,NA,NA,NA,NA,NA,NA,NA,NA,NA,NA,NA
859a1,task,flow.Sequence,1_10,NA,NA,completion,27218,103760,103758,103774,130992,130993,2023-06-03T08:30:39Z,131009,Sänger,mwimbaji,d,msichana,shughuli,mshirika,NA,NA,NA,NULL,NA,NA,NA,NA,NA,NA,NA,NA,NA,NA,NA,NA,NA,NA,NA,NA,NA,NA,NA
859a1,Deep Question,html.Page,1_11_0_0,NA,NA,form submission,2252,130993,130992,131009,133261,133261,2023-06-03T08:30:41Z,133292,Aufstand,ugomaji,d,mazidio,msingi,kujieleza,j,NA,NA,NULL,NA,NA,NA,NA,NA,NA,NA,NA,NA,NA,NA,NA,NA,NA,NA,NA,NA,NA,NA
859a1,Save data screen,canvas.Screen,1_11_0_1,NA,NA,timeout,500,133262,133276,133292,133776,133777,2023-06-03T08:30:42Z,133792,Aufstand,ugomaji,d,mazidio,msingi,kujieleza,NA,NA,0,NULL,NA,NA,NA,NA,NA,NA,NA,NA,NA,NA,NA,NA,NA,NA,NA,NA,NA,NA,NA
859a1,deep,flow.Sequence,1_11_0,NA,NA,completion,2767,130993,130992,131009,133776,133777,2023-06-03T08:30:42Z,133792,Aufstand,ugomaji,d,mazidio,msingi,kujieleza,NA,NA,NA,NULL,NA,NA,NA,NA,NA,NA,NA,NA,NA,NA,NA,NA,NA,NA,NA,NA,NA,NA,NA
859a1,task,flow.Sequence,1_11,NA,NA,completion,2767,130993,130992,131009,133776,133778,2023-06-03T08:30:42Z,133792,Aufstand,ugomaji,d,mazidio,msingi,kujieleza,NA,NA,NA,NULL,NA,NA,NA,NA,NA,NA,NA,NA,NA,NA,NA,NA,NA,NA,NA,NA,NA,NA,NA
859a1,Deep Question,html.Page,1_12_0_0,NA,NA,form submission,8129,133778,133776,133792,141921,141921,2023-06-03T08:30:50Z,141942,Lawine,banguko,d,maambukizi,usuluhishi,chekechea,banguko,NA,NA,NULL,NA,NA,NA,NA,NA,NA,NA,NA,NA,NA,NA,NA,NA,NA,NA,NA,NA,NA,NA
859a1,Save data screen,canvas.Screen,1_12_0_1,NA,NA,timeout,500,141921,141926,141942,142426,142427,2023-06-03T08:30:50Z,142442,Lawine,banguko,d,maambukizi,usuluhishi,chekechea,NA,NA,1,NULL,NA,NA,NA,NA,NA,NA,NA,NA,NA,NA,NA,NA,NA,NA,NA,NA,NA,NA,NA
859a1,deep,flow.Sequence,1_12_0,NA,NA,completion,8634,133778,133776,133792,142426,142427,2023-06-03T08:30:50Z,142442,Lawine,banguko,d,maambukizi,usuluhishi,chekechea,NA,NA,NA,NULL,NA,NA,NA,NA,NA,NA,NA,NA,NA,NA,NA,NA,NA,NA,NA,NA,NA,NA,NA
859a1,task,flow.Sequence,1_12,NA,NA,completion,8634,133778,133776,133792,142426,142428,2023-06-03T08:30:50Z,142442,Lawine,banguko,d,maambukizi,usuluhishi,chekechea,NA,NA,NA,NULL,NA,NA,NA,NA,NA,NA,NA,NA,NA,NA,NA,NA,NA,NA,NA,NA,NA,NA,NA
859a1,Deep Question,html.Page,1_13_0_0,NA,NA,form submission,7821,142428,142426,142442,150263,150264,2023-06-03T08:30:58Z,150293,Körper,kiwiliwili,s,mapambano,mpatanishi,kiolezo,kiwili,NA,NA,NULL,NA,NA,NA,NA,NA,NA,NA,NA,NA,NA,NA,NA,NA,NA,NA,NA,NA,NA,NA
859a1,Save data screen,canvas.Screen,1_13_0_1,NA,NA,timeout,499,150264,150276,150293,150776,150777,2023-06-03T08:30:59Z,150792,Körper,kiwiliwili,s,mapambano,mpatanishi,kiolezo,NA,NA,0,NULL,NA,NA,NA,NA,NA,NA,NA,NA,NA,NA,NA,NA,NA,NA,NA,NA,NA,NA,NA
859a1,deep,flow.Sequence,1_13_0,NA,NA,completion,8334,142428,142426,142442,150776,150778,2023-06-03T08:30:59Z,150792,Körper,kiwiliwili,s,mapambano,mpatanishi,kiolezo,NA,NA,NA,NULL,NA,NA,NA,NA,NA,NA,NA,NA,NA,NA,NA,NA,NA,NA,NA,NA,NA,NA,NA
859a1,task,flow.Sequence,1_13,NA,NA,completion,8334,142428,142426,142442,150776,150778,2023-06-03T08:30:59Z,150792,Körper,kiwiliwili,s,mapambano,mpatanishi,kiolezo,NA,NA,NA,NULL,NA,NA,NA,NA,NA,NA,NA,NA,NA,NA,NA,NA,NA,NA,NA,NA,NA,NA,NA
859a1,Deep Question,html.Page,1_14_0_0,NA,NA,form submission,2470,150778,150776,150792,153262,153262,2023-06-03T08:31:01Z,153293,Übersicht,kilindo,s,mgusano,chipukizi,kulinganisha,j,NA,NA,NULL,NA,NA,NA,NA,NA,NA,NA,NA,NA,NA,NA,NA,NA,NA,NA,NA,NA,NA,NA
859a1,Save data screen,canvas.Screen,1_14_0_1,NA,NA,timeout,501,153262,153276,153293,153776,153777,2023-06-03T08:31:02Z,153794,Übersicht,kilindo,s,mgusano,chipukizi,kulinganisha,NA,NA,0,NULL,NA,NA,NA,NA,NA,NA,NA,NA,NA,NA,NA,NA,NA,NA,NA,NA,NA,NA,NA
859a1,deep,flow.Sequence,1_14_0,NA,NA,completion,2984,150778,150776,150792,153776,153778,2023-06-03T08:31:02Z,153794,Übersicht,kilindo,s,mgusano,chipukizi,kulinganisha,NA,NA,NA,NULL,NA,NA,NA,NA,NA,NA,NA,NA,NA,NA,NA,NA,NA,NA,NA,NA,NA,NA,NA
859a1,task,flow.Sequence,1_14,NA,NA,completion,2984,150778,150776,150792,153776,153778,2023-06-03T08:31:02Z,153794,Übersicht,kilindo,s,mgusano,chipukizi,kulinganisha,NA,NA,NA,NULL,NA,NA,NA,NA,NA,NA,NA,NA,NA,NA,NA,NA,NA,NA,NA,NA,NA,NA,NA
859a1,Deep Question,html.Page,1_15_0_0,NA,NA,form submission,10489,153778,153776,153794,164283,164283,2023-06-03T08:31:12Z,164309,Kanzler,diwani,s,rasilmali,mahitaji,maabudu,diwinsi,NA,NA,NULL,NA,NA,NA,NA,NA,NA,NA,NA,NA,NA,NA,NA,NA,NA,NA,NA,NA,NA,NA
859a1,Save data screen,canvas.Screen,1_15_0_1,NA,NA,timeout,507,164284,164293,164309,164793,164795,2023-06-03T08:31:13Z,164816,Kanzler,diwani,s,rasilmali,mahitaji,maabudu,NA,NA,0,NULL,NA,NA,NA,NA,NA,NA,NA,NA,NA,NA,NA,NA,NA,NA,NA,NA,NA,NA,NA
859a1,deep,flow.Sequence,1_15_0,NA,NA,completion,10999,153778,153776,153794,164793,164795,2023-06-03T08:31:13Z,164816,Kanzler,diwani,s,rasilmali,mahitaji,maabudu,NA,NA,NA,NULL,NA,NA,NA,NA,NA,NA,NA,NA,NA,NA,NA,NA,NA,NA,NA,NA,NA,NA,NA
859a1,task,flow.Sequence,1_15,NA,NA,completion,10999,153778,153776,153794,164793,164796,2023-06-03T08:31:13Z,164816,Kanzler,diwani,s,rasilmali,mahitaji,maabudu,NA,NA,NA,NULL,NA,NA,NA,NA,NA,NA,NA,NA,NA,NA,NA,NA,NA,NA,NA,NA,NA,NA,NA
859a1,retrieval block 1 (cued recall),flow.Loop,1,NA,NA,completion,132171,32589,32605,32622,164793,164796,2023-06-03T08:31:13Z,164816,NA,NA,NA,NA,NA,NA,NA,NA,NA,NULL,NA,NA,NA,NA,NA,NA,NA,NA,NA,NA,NA,NA,NA,NA,NA,NA,NA,NA,NA
859a1,Shallow Question,html.Page,2_0_0_0,NA,NA,form submission,16020,164797,164793,164816,180836,180837,2023-06-03T08:31:29Z,180860,Abrechnung,uhasibu,s,kusahihisha,mpambano,mashambulizi,mpambano,NA,NA,"c(""distractor1"", ""distractor2"", ""distractor3"")",NA,NA,NA,NA,NA,NA,NA,NA,NA,NA,NA,NA,NA,NA,NA,NA,NA,NA,NA
859a1,Save data screen,canvas.Screen,2_0_0_1,NA,NA,timeout,500,180837,180844,180860,181344,181345,2023-06-03T08:31:29Z,181360,Abrechnung,uhasibu,s,kusahihisha,mpambano,mashambulizi,NA,NA,0,"c(""distractor1"", ""distractor2"", ""distractor3"")",NA,NA,NA,NA,NA,NA,NA,NA,NA,NA,NA,NA,NA,NA,NA,NA,NA,NA,NA
859a1,shallow,flow.Sequence,2_0_0,NA,NA,completion,16528,164797,164793,164816,181344,181346,2023-06-03T08:31:29Z,181360,Abrechnung,uhasibu,s,kusahihisha,mpambano,mashambulizi,NA,NA,NA,"c(""distractor1"", ""distractor2"", ""distractor3"")",NA,NA,NA,NA,NA,NA,NA,NA,NA,NA,NA,NA,NA,NA,NA,NA,NA,NA,NA
859a1,task,flow.Sequence,2_0,NA,NA,completion,16528,164797,164793,164816,181344,181346,2023-06-03T08:31:29Z,181360,Abrechnung,uhasibu,s,kusahihisha,mpambano,mashambulizi,NA,NA,NA,"c(""distractor1"", ""distractor2"", ""distractor3"")",NA,NA,NA,NA,NA,NA,NA,NA,NA,NA,NA,NA,NA,NA,NA,NA,NA,NA,NA
859a1,Shallow Question,html.Page,2_1_0_0,NA,NA,form submission,15642,181346,181344,181360,197002,197003,2023-06-03T08:31:45Z,197028,Können,unaweza,d,kiongozi,bustani,mienendo,unaweza,NA,NA,"c(""distractor1"", ""distractor2"", ""distractor3"")",NA,NA,NA,NA,NA,NA,NA,NA,NA,NA,NA,NA,NA,NA,NA,NA,NA,NA,NA
859a1,Save data screen,canvas.Screen,2_1_0_1,NA,NA,timeout,500,197004,197011,197028,197510,197512,2023-06-03T08:31:45Z,197528,Können,unaweza,d,kiongozi,bustani,mienendo,NA,NA,1,"c(""distractor1"", ""distractor2"", ""distractor3"")",NA,NA,NA,NA,NA,NA,NA,NA,NA,NA,NA,NA,NA,NA,NA,NA,NA,NA,NA
859a1,shallow,flow.Sequence,2_1_0,NA,NA,completion,16150,181346,181344,181360,197510,197512,2023-06-03T08:31:45Z,197528,Können,unaweza,d,kiongozi,bustani,mienendo,NA,NA,NA,"c(""distractor1"", ""distractor2"", ""distractor3"")",NA,NA,NA,NA,NA,NA,NA,NA,NA,NA,NA,NA,NA,NA,NA,NA,NA,NA,NA
859a1,task,flow.Sequence,2_1,NA,NA,completion,16150,181346,181344,181360,197510,197513,2023-06-03T08:31:45Z,197528,Können,unaweza,d,kiongozi,bustani,mienendo,NA,NA,NA,"c(""distractor1"", ""distractor2"", ""distractor3"")",NA,NA,NA,NA,NA,NA,NA,NA,NA,NA,NA,NA,NA,NA,NA,NA,NA,NA,NA
859a1,Shallow Question,html.Page,2_2_0_0,NA,NA,form submission,19758,197513,197510,197528,217286,217287,2023-06-03T08:32:05Z,217312,Gefährdung,kuhatarisha,s,uchokozi,udhaifu,makorowezo,kuhatarisha,NA,NA,"c(""distractor1"", ""distractor2"", ""distractor3"")",NA,NA,NA,NA,NA,NA,NA,NA,NA,NA,NA,NA,NA,NA,NA,NA,NA,NA,NA
859a1,Save data screen,canvas.Screen,2_2_0_1,NA,NA,timeout,500,217288,217295,217312,217794,217796,2023-06-03T08:32:06Z,217812,Gefährdung,kuhatarisha,s,uchokozi,udhaifu,makorowezo,NA,NA,1,"c(""distractor1"", ""distractor2"", ""distractor3"")",NA,NA,NA,NA,NA,NA,NA,NA,NA,NA,NA,NA,NA,NA,NA,NA,NA,NA,NA
859a1,shallow,flow.Sequence,2_2_0,NA,NA,completion,20266,197513,197510,197528,217794,217797,2023-06-03T08:32:06Z,217812,Gefährdung,kuhatarisha,s,uchokozi,udhaifu,makorowezo,NA,NA,NA,"c(""distractor1"", ""distractor2"", ""distractor3"")",NA,NA,NA,NA,NA,NA,NA,NA,NA,NA,NA,NA,NA,NA,NA,NA,NA,NA,NA
859a1,task,flow.Sequence,2_2,NA,NA,completion,20266,197513,197510,197528,217794,217797,2023-06-03T08:32:06Z,217812,Gefährdung,kuhatarisha,s,uchokozi,udhaifu,makorowezo,NA,NA,NA,"c(""distractor1"", ""distractor2"", ""distractor3"")",NA,NA,NA,NA,NA,NA,NA,NA,NA,NA,NA,NA,NA,NA,NA,NA,NA,NA,NA
859a1,Shallow Question,html.Page,2_3_0_0,NA,NA,form submission,3891,217798,217794,217812,221703,221703,2023-06-03T08:32:09Z,221729,Kanzler,diwani,s,rasilmali,mahitaji,maabudu,diwani,NA,NA,"c(""distractor1"", ""distractor2"", ""distractor3"")",NA,NA,NA,NA,NA,NA,NA,NA,NA,NA,NA,NA,NA,NA,NA,NA,NA,NA,NA
859a1,Save data screen,canvas.Screen,2_3_0_1,NA,NA,timeout,499,221704,221711,221729,222211,222213,2023-06-03T08:32:10Z,222228,Kanzler,diwani,s,rasilmali,mahitaji,maabudu,NA,NA,1,"c(""distractor1"", ""distractor2"", ""distractor3"")",NA,NA,NA,NA,NA,NA,NA,NA,NA,NA,NA,NA,NA,NA,NA,NA,NA,NA,NA
859a1,shallow,flow.Sequence,2_3_0,NA,NA,completion,4399,217797,217794,217812,222211,222213,2023-06-03T08:32:10Z,222228,Kanzler,diwani,s,rasilmali,mahitaji,maabudu,NA,NA,NA,"c(""distractor1"", ""distractor2"", ""distractor3"")",NA,NA,NA,NA,NA,NA,NA,NA,NA,NA,NA,NA,NA,NA,NA,NA,NA,NA,NA
859a1,task,flow.Sequence,2_3,NA,NA,completion,4399,217797,217794,217812,222211,222214,2023-06-03T08:32:10Z,222228,Kanzler,diwani,s,rasilmali,mahitaji,maabudu,NA,NA,NA,"c(""distractor1"", ""distractor2"", ""distractor3"")",NA,NA,NA,NA,NA,NA,NA,NA,NA,NA,NA,NA,NA,NA,NA,NA,NA,NA,NA
859a1,Shallow Question,html.Page,2_4_0_0,NA,NA,form submission,3191,222214,222211,222228,225419,225419,2023-06-03T08:32:13Z,225445,Verzögerung,kuchelewa,s,mwakilishi,mwanauchumi,jaribio,kuchelewa,NA,NA,"c(""distractor1"", ""distractor2"", ""distractor3"")",NA,NA,NA,NA,NA,NA,NA,NA,NA,NA,NA,NA,NA,NA,NA,NA,NA,NA,NA
859a1,Save data screen,canvas.Screen,2_4_0_1,NA,NA,timeout,500,225420,225428,225445,225929,225930,2023-06-03T08:32:14Z,225945,Verzögerung,kuchelewa,s,mwakilishi,mwanauchumi,jaribio,NA,NA,1,"c(""distractor1"", ""distractor2"", ""distractor3"")",NA,NA,NA,NA,NA,NA,NA,NA,NA,NA,NA,NA,NA,NA,NA,NA,NA,NA,NA
859a1,shallow,flow.Sequence,2_4_0,NA,NA,completion,3701,222214,222211,222228,225929,225931,2023-06-03T08:32:14Z,225945,Verzögerung,kuchelewa,s,mwakilishi,mwanauchumi,jaribio,NA,NA,NA,"c(""distractor1"", ""distractor2"", ""distractor3"")",NA,NA,NA,NA,NA,NA,NA,NA,NA,NA,NA,NA,NA,NA,NA,NA,NA,NA,NA
859a1,task,flow.Sequence,2_4,NA,NA,completion,3701,222214,222211,222228,225929,225932,2023-06-03T08:32:14Z,225945,Verzögerung,kuchelewa,s,mwakilishi,mwanauchumi,jaribio,NA,NA,NA,"c(""distractor1"", ""distractor2"", ""distractor3"")",NA,NA,NA,NA,NA,NA,NA,NA,NA,NA,NA,NA,NA,NA,NA,NA,NA,NA,NA
859a1,Shallow Question,html.Page,2_5_0_0,NA,NA,form submission,16975,225932,225929,225945,242920,242921,2023-06-03T08:32:31Z,242946,Aufstand,ugomaji,d,mazidio,msingi,kujieleza,kujieleza,NA,NA,"c(""distractor1"", ""distractor2"", ""distractor3"")",NA,NA,NA,NA,NA,NA,NA,NA,NA,NA,NA,NA,NA,NA,NA,NA,NA,NA,NA
859a1,Save data screen,canvas.Screen,2_5_0_1,NA,NA,timeout,500,242922,242929,242946,243429,243431,2023-06-03T08:32:31Z,243446,Aufstand,ugomaji,d,mazidio,msingi,kujieleza,NA,NA,0,"c(""distractor1"", ""distractor2"", ""distractor3"")",NA,NA,NA,NA,NA,NA,NA,NA,NA,NA,NA,NA,NA,NA,NA,NA,NA,NA,NA
859a1,shallow,flow.Sequence,2_5_0,NA,NA,completion,17484,225932,225929,225945,243429,243432,2023-06-03T08:32:31Z,243446,Aufstand,ugomaji,d,mazidio,msingi,kujieleza,NA,NA,NA,"c(""distractor1"", ""distractor2"", ""distractor3"")",NA,NA,NA,NA,NA,NA,NA,NA,NA,NA,NA,NA,NA,NA,NA,NA,NA,NA,NA
859a1,task,flow.Sequence,2_5,NA,NA,completion,17484,225932,225929,225945,243429,243432,2023-06-03T08:32:31Z,243446,Aufstand,ugomaji,d,mazidio,msingi,kujieleza,NA,NA,NA,"c(""distractor1"", ""distractor2"", ""distractor3"")",NA,NA,NA,NA,NA,NA,NA,NA,NA,NA,NA,NA,NA,NA,NA,NA,NA,NA,NA
859a1,Shallow Question,html.Page,2_6_0_0,NA,NA,form submission,7425,243433,243429,243446,250871,250872,2023-06-03T08:32:39Z,250896,System,maongozi,d,chokochoko,nuksani,mitaani,maongozi,NA,NA,"c(""distractor1"", ""distractor2"", ""distractor3"")",NA,NA,NA,NA,NA,NA,NA,NA,NA,NA,NA,NA,NA,NA,NA,NA,NA,NA,NA
859a1,Save data screen,canvas.Screen,2_6_0_1,NA,NA,timeout,500,250873,250879,250896,251379,251381,2023-06-03T08:32:39Z,251396,System,maongozi,d,chokochoko,nuksani,mitaani,NA,NA,1,"c(""distractor1"", ""distractor2"", ""distractor3"")",NA,NA,NA,NA,NA,NA,NA,NA,NA,NA,NA,NA,NA,NA,NA,NA,NA,NA,NA
859a1,shallow,flow.Sequence,2_6_0,NA,NA,completion,7933,243433,243429,243446,251379,251381,2023-06-03T08:32:39Z,251396,System,maongozi,d,chokochoko,nuksani,mitaani,NA,NA,NA,"c(""distractor1"", ""distractor2"", ""distractor3"")",NA,NA,NA,NA,NA,NA,NA,NA,NA,NA,NA,NA,NA,NA,NA,NA,NA,NA,NA
859a1,task,flow.Sequence,2_6,NA,NA,completion,7933,243432,243429,243446,251379,251381,2023-06-03T08:32:39Z,251396,System,maongozi,d,chokochoko,nuksani,mitaani,NA,NA,NA,"c(""distractor1"", ""distractor2"", ""distractor3"")",NA,NA,NA,NA,NA,NA,NA,NA,NA,NA,NA,NA,NA,NA,NA,NA,NA,NA,NA
859a1,Shallow Question,html.Page,2_7_0_0,NA,NA,form submission,3557,251382,251379,251396,254953,254953,2023-06-03T08:32:43Z,254979,Lawine,banguko,d,maambukizi,usuluhishi,chekechea,banguko,NA,NA,"c(""distractor1"", ""distractor2"", ""distractor3"")",NA,NA,NA,NA,NA,NA,NA,NA,NA,NA,NA,NA,NA,NA,NA,NA,NA,NA,NA
