observation,sender,sender_type,sender_id,response,response_action,ended_on,duration,time_run,time_render,time_show,time_end,time_commit,timestamp,time_switch,distractors,german,swahili,enc,distractor1,distractor2,distractor3,response_2,x,correct,x_2,url_vp,url_sess,meta_labjs_version,meta_location,meta_user_agent,meta_platform,meta_language,meta_locale,meta_time_zone,meta_timezone_offset,meta_screen_width,meta_screen_height,meta_scroll_width,meta_scroll_height,meta_window_inner_width,meta_window_inner_height,meta_device_pixel_ratio,meta_labjs_build_flavor,meta_labjs_build_commit
29178,Introduction general,canvas.Screen,0,weiter,keypress(q),response,180551.83400038,906.10000038147,913.112,929.766,181481.60000038001,181484.79999924,2023-03-26T07:31:08Z,181498.383,NULL,NA,NA,NA,NA,NA,NA,NA,NA,NA,NA,205,1,20.2.4,https://neurocog.fernuni.ch/studies/vweber/sfink/encoding_immediate/index.html?vp=205&sess=1,"Mozilla/5.0 (Windows NT 10.0; Win64; x64) AppleWebKit/537.36 (KHTML, like Gecko) Chrome/96.0.4664.110 Safari/537.36",Win32,de-CH,de,Europe/Zurich,-120,1536,864,1536,706,1536,754,1.25,production,f5b4a49f956347addd546a832a3327688c2c0fef
29178,Introduction practice,canvas.Screen,1_0,NA,keypress(Space),response,9992.0169996185,181485.20000076,181481.383,181498.383,191490.39999961999,191491.60000038001,2023-03-26T07:31:18Z,191506.847,NULL,NA,NA,NA,NA,NA,NA,NA,NA,NA,NA,NA,NA,NA,NA,NA,NA,NA,NA,NA,NA,NA,NA,NA,NA,NA,NA,NA,NA,NA
29178,Deep Question,html.Page,1_1_0_0_0,NA,NA,form submission,6718.3530007629,191492.29999924,191489.555,191506.847,198225.20000076,198225.5,2023-03-26T07:31:24Z,198234.584,"c(""distractor1"", ""distractor2"", ""distractor3"")",Gesundheit,salama,d,NA,NA,NA,health,NA,NA,NA,NA,NA,NA,NA,NA,NA,NA,NA,NA,NA,NA,NA,NA,NA,NA,NA,NA,NA,NA
29178,"""Richtig""-Screen",canvas.Screen,1_1_0_0_1,NA,NA,skipped,NA,198227.39999962,NA,NA,198225.20000076,198227.60000038001,2023-03-26T07:31:24Z,198234.584,"c(""distractor1"", ""distractor2"", ""distractor3"")",Gesundheit,salama,d,NA,NA,NA,NA,NA,NA,NA,NA,NA,NA,NA,NA,NA,NA,NA,NA,NA,NA,NA,NA,NA,NA,NA,NA,NA,NA
29178,"""Falsch""-Screen",canvas.Screen,1_1_0_0_2,NA,NA,timeout,4995.901,198229,198218.306,198234.584,203213.858,203215.39999962,2023-03-26T07:31:29Z,203230.485,"c(""distractor1"", ""distractor2"", ""distractor3"")",Gesundheit,salama,d,NA,NA,NA,NA,NA,0,NA,NA,NA,NA,NA,NA,NA,NA,NA,NA,NA,NA,NA,NA,NA,NA,NA,NA,NA,NA
29178,deep,flow.Sequence,1_1_0_0,NA,NA,completion,11707.011,191492.20000076,191489.555,191506.847,203213.858,203215.70000076,2023-03-26T07:31:29Z,203230.485,"c(""distractor1"", ""distractor2"", ""distractor3"")",Gesundheit,salama,d,NA,NA,NA,NA,NA,NA,NA,NA,NA,NA,NA,NA,NA,NA,NA,NA,NA,NA,NA,NA,NA,NA,NA,NA,NA,NA
29178,shallow,flow.Sequence,1_1_0_1,NA,NA,skipped,NA,203215.89999962,NA,NA,203213.858,203216.10000038001,2023-03-26T07:31:29Z,203230.485,"c(""distractor1"", ""distractor2"", ""distractor3"")",Gesundheit,salama,d,NA,NA,NA,NA,NA,NA,NA,NA,NA,NA,NA,NA,NA,NA,NA,NA,NA,NA,NA,NA,NA,NA,NA,NA,NA,NA
29178,task,flow.Sequence,1_1_0,NA,NA,completion,11707.011,191492.20000076,191489.555,191506.847,203213.858,203216.29999924,2023-03-26T07:31:29Z,203230.485,"c(""distractor1"", ""distractor2"", ""distractor3"")",Gesundheit,salama,d,NA,NA,NA,NA,NA,NA,NA,NA,NA,NA,NA,NA,NA,NA,NA,NA,NA,NA,NA,NA,NA,NA,NA,NA,NA,NA
29178,Deep Question,html.Page,1_1_1_0_0,NA,NA,form submission,7404.4149996185,203216.60000038001,203213.858,203230.485,210634.89999962,210635.29999924,2023-03-26T07:31:37Z,210657.756,"c(""distractor1"", ""distractor2"", ""distractor3"")",Schatten,kivuli,d,NA,NA,NA,mahela,NA,NA,NA,NA,NA,NA,NA,NA,NA,NA,NA,NA,NA,NA,NA,NA,NA,NA,NA,NA,NA,NA
29178,"""Richtig""-Screen",canvas.Screen,1_1_1_0_1,NA,NA,skipped,NA,210637.60000038001,NA,NA,210634.89999962,210637.79999924,2023-03-26T07:31:37Z,210657.756,"c(""distractor1"", ""distractor2"", ""distractor3"")",Schatten,kivuli,d,NA,NA,NA,NA,NA,NA,NA,NA,NA,NA,NA,NA,NA,NA,NA,NA,NA,NA,NA,NA,NA,NA,NA,NA,NA,NA
29178,"""Falsch""-Screen",canvas.Screen,1_1_1_0_2,NA,NA,timeout,4995.934,210638.89999961999,210641.079,210657.756,215637.019,215638.20000076,2023-03-26T07:31:42Z,215653.69,"c(""distractor1"", ""distractor2"", ""distractor3"")",Schatten,kivuli,d,NA,NA,NA,NA,NA,0,NA,NA,NA,NA,NA,NA,NA,NA,NA,NA,NA,NA,NA,NA,NA,NA,NA,NA,NA,NA
29178,deep,flow.Sequence,1_1_1_0,NA,NA,completion,12406.534,203216.60000038001,203213.858,203230.485,215637.019,215638.60000038001,2023-03-26T07:31:42Z,215653.69,"c(""distractor1"", ""distractor2"", ""distractor3"")",Schatten,kivuli,d,NA,NA,NA,NA,NA,NA,NA,NA,NA,NA,NA,NA,NA,NA,NA,NA,NA,NA,NA,NA,NA,NA,NA,NA,NA,NA
29178,shallow,flow.Sequence,1_1_1_1,NA,NA,skipped,NA,215638.79999924,NA,NA,215637.019,215638.79999924,2023-03-26T07:31:42Z,215653.69,"c(""distractor1"", ""distractor2"", ""distractor3"")",Schatten,kivuli,d,NA,NA,NA,NA,NA,NA,NA,NA,NA,NA,NA,NA,NA,NA,NA,NA,NA,NA,NA,NA,NA,NA,NA,NA,NA,NA
29178,task,flow.Sequence,1_1_1,NA,NA,completion,12406.534,203216.39999961999,203213.858,203230.485,215637.019,215639.10000038001,2023-03-26T07:31:42Z,215653.69,"c(""distractor1"", ""distractor2"", ""distractor3"")",Schatten,kivuli,d,NA,NA,NA,NA,NA,NA,NA,NA,NA,NA,NA,NA,NA,NA,NA,NA,NA,NA,NA,NA,NA,NA,NA,NA,NA,NA
29178,Deep Question,html.Page,1_1_2_0_0,NA,NA,form submission,9666.7099996185,215639.39999961999,215637.019,215653.69,225320.39999962,225320.60000038001,2023-03-26T07:31:51Z,225329.031,"c(""distractor1"", ""distractor2"", ""distractor3"")",Qualität,mtindo,d,NA,NA,NA,kuailita,NA,NA,NA,NA,NA,NA,NA,NA,NA,NA,NA,NA,NA,NA,NA,NA,NA,NA,NA,NA,NA,NA
29178,"""Richtig""-Screen",canvas.Screen,1_1_2_0_1,NA,NA,skipped,NA,225322.70000076,NA,NA,225320.39999962,225322.89999962,2023-03-26T07:31:51Z,225329.031,"c(""distractor1"", ""distractor2"", ""distractor3"")",Qualität,mtindo,d,NA,NA,NA,NA,NA,NA,NA,NA,NA,NA,NA,NA,NA,NA,NA,NA,NA,NA,NA,NA,NA,NA,NA,NA,NA,NA
29178,"""Falsch""-Screen",canvas.Screen,1_1_2_0_2,NA,NA,timeout,4995.934,225323.60000038001,225312.613,225329.031,230308.309,230308.70000076,2023-03-26T07:31:56Z,230324.965,"c(""distractor1"", ""distractor2"", ""distractor3"")",Qualität,mtindo,d,NA,NA,NA,NA,NA,0,NA,NA,NA,NA,NA,NA,NA,NA,NA,NA,NA,NA,NA,NA,NA,NA,NA,NA,NA,NA
29178,deep,flow.Sequence,1_1_2_0,NA,NA,completion,14654.619,215639.29999924,215637.019,215653.69,230308.309,230309,2023-03-26T07:31:56Z,230324.965,"c(""distractor1"", ""distractor2"", ""distractor3"")",Qualität,mtindo,d,NA,NA,NA,NA,NA,NA,NA,NA,NA,NA,NA,NA,NA,NA,NA,NA,NA,NA,NA,NA,NA,NA,NA,NA,NA,NA
29178,shallow,flow.Sequence,1_1_2_1,NA,NA,skipped,NA,230309,NA,NA,230308.309,230309.10000038001,2023-03-26T07:31:56Z,230324.965,"c(""distractor1"", ""distractor2"", ""distractor3"")",Qualität,mtindo,d,NA,NA,NA,NA,NA,NA,NA,NA,NA,NA,NA,NA,NA,NA,NA,NA,NA,NA,NA,NA,NA,NA,NA,NA,NA,NA
29178,task,flow.Sequence,1_1_2,NA,NA,completion,14654.619,215639.29999924,215637.019,215653.69,230308.309,230309.20000076,2023-03-26T07:31:56Z,230324.965,"c(""distractor1"", ""distractor2"", ""distractor3"")",Qualität,mtindo,d,NA,NA,NA,NA,NA,NA,NA,NA,NA,NA,NA,NA,NA,NA,NA,NA,NA,NA,NA,NA,NA,NA,NA,NA,NA,NA
29178,deep,flow.Sequence,1_1_3_0,NA,NA,skipped,NA,230309.29999924,NA,NA,230308.309,230309.39999961999,2023-03-26T07:31:56Z,230324.965,"c(""distractor1"", ""distractor2"", ""distractor3"")",Gegenwart,hadhara,s,katiba,jokofu,mikopo,NA,NA,NA,NA,NA,NA,NA,NA,NA,NA,NA,NA,NA,NA,NA,NA,NA,NA,NA,NA,NA,NA,NA
29178,Shallow Question,html.Page,1_1_3_1_0,NA,NA,form submission,7442.9349996185,230309.5,230308.309,230324.965,237767.89999962,237768.60000038001,2023-03-26T07:32:04Z,237785.552,"c(""distractor1"", ""distractor2"", ""distractor3"")",Gegenwart,hadhara,s,katiba,jokofu,mikopo,katiba,NA,NA,NA,NA,NA,NA,NA,NA,NA,NA,NA,NA,NA,NA,NA,NA,NA,NA,NA,NA,NA,NA
29178,"""Richtig""-Screen",canvas.Screen,1_1_3_1_1,NA,NA,skipped,NA,237776.10000038001,NA,NA,237767.89999962,237776.5,2023-03-26T07:32:04Z,237785.552,"c(""distractor1"", ""distractor2"", ""distractor3"")",Gegenwart,hadhara,s,katiba,jokofu,mikopo,NA,NA,NA,NA,NA,NA,NA,NA,NA,NA,NA,NA,NA,NA,NA,NA,NA,NA,NA,NA,NA,NA,NA
29178,"""Falsch""-Screen",canvas.Screen,1_1_3_1_2,NA,NA,timeout,4995.87,237778.89999962,237752.539,237785.552,242764.754,242766.29999924,2023-03-26T07:32:09Z,242781.422,"c(""distractor1"", ""distractor2"", ""distractor3"")",Gegenwart,hadhara,s,katiba,jokofu,mikopo,NA,NA,0,NA,NA,NA,NA,NA,NA,NA,NA,NA,NA,NA,NA,NA,NA,NA,NA,NA,NA,NA,NA
29178,shallow,flow.Sequence,1_1_3_1,NA,NA,completion,12439.789,230309.39999961999,230308.309,230324.965,242764.754,242766.5,2023-03-26T07:32:09Z,242781.422,"c(""distractor1"", ""distractor2"", ""distractor3"")",Gegenwart,hadhara,s,katiba,jokofu,mikopo,NA,NA,NA,NA,NA,NA,NA,NA,NA,NA,NA,NA,NA,NA,NA,NA,NA,NA,NA,NA,NA,NA,NA
29178,task,flow.Sequence,1_1_3,NA,NA,completion,12439.789,230309.29999924,230308.309,230324.965,242764.754,242766.70000076,2023-03-26T07:32:09Z,242781.422,"c(""distractor1"", ""distractor2"", ""distractor3"")",Gegenwart,hadhara,s,katiba,jokofu,mikopo,NA,NA,NA,NA,NA,NA,NA,NA,NA,NA,NA,NA,NA,NA,NA,NA,NA,NA,NA,NA,NA,NA,NA
29178,deep,flow.Sequence,1_1_4_0,NA,NA,skipped,NA,242766.79999924,NA,NA,242764.754,242766.79999924,2023-03-26T07:32:09Z,242781.422,"c(""distractor1"", ""distractor2"", ""distractor3"")",Rückhalt,msaada,s,muhula,auwali,kiwimbe,NA,NA,NA,NA,NA,NA,NA,NA,NA,NA,NA,NA,NA,NA,NA,NA,NA,NA,NA,NA,NA,NA,NA
29178,Shallow Question,html.Page,1_1_4_1_0,NA,NA,form submission,6841.3779992371,242766.89999961999,242764.754,242781.422,249622.79999924,249623,2023-03-26T07:32:16Z,249625.822,"c(""distractor1"", ""distractor2"", ""distractor3"")",Rückhalt,msaada,s,muhula,auwali,kiwimbe,msaada,NA,NA,NA,NA,NA,NA,NA,NA,NA,NA,NA,NA,NA,NA,NA,NA,NA,NA,NA,NA,NA,NA
29178,"""Richtig""-Screen",canvas.Screen,1_1_4_1_1,NA,NA,timeout,4996.475,249626.29999924,249609.125,249625.822,254605.677,254606.39999962,2023-03-26T07:32:21Z,254622.297,"c(""distractor1"", ""distractor2"", ""distractor3"")",Rückhalt,msaada,s,muhula,auwali,kiwimbe,NA,NA,1,NA,NA,NA,NA,NA,NA,NA,NA,NA,NA,NA,NA,NA,NA,NA,NA,NA,NA,NA,NA
29178,"""Falsch""-Screen",canvas.Screen,1_1_4_1_2,NA,NA,skipped,NA,254608.5,NA,NA,254605.677,254608.70000076,2023-03-26T07:32:21Z,254622.297,"c(""distractor1"", ""distractor2"", ""distractor3"")",Rückhalt,msaada,s,muhula,auwali,kiwimbe,NA,NA,NA,NA,NA,NA,NA,NA,NA,NA,NA,NA,NA,NA,NA,NA,NA,NA,NA,NA,NA,NA,NA
29178,shallow,flow.Sequence,1_1_4_1,NA,NA,completion,11824.255,242766.89999961999,242764.754,242781.422,254605.677,254608.89999962,2023-03-26T07:32:21Z,254622.297,"c(""distractor1"", ""distractor2"", ""distractor3"")",Rückhalt,msaada,s,muhula,auwali,kiwimbe,NA,NA,NA,NA,NA,NA,NA,NA,NA,NA,NA,NA,NA,NA,NA,NA,NA,NA,NA,NA,NA,NA,NA
29178,task,flow.Sequence,1_1_4,NA,NA,completion,11824.255,242766.70000076,242764.754,242781.422,254605.677,254609,2023-03-26T07:32:21Z,254622.297,"c(""distractor1"", ""distractor2"", ""distractor3"")",Rückhalt,msaada,s,muhula,auwali,kiwimbe,NA,NA,NA,NA,NA,NA,NA,NA,NA,NA,NA,NA,NA,NA,NA,NA,NA,NA,NA,NA,NA,NA,NA
29178,deep,flow.Sequence,1_1_5_0,NA,NA,skipped,NA,254609.10000038001,NA,NA,254605.677,254609.10000038001,2023-03-26T07:32:21Z,254622.297,"c(""distractor1"", ""distractor2"", ""distractor3"")",Kritik,lawama,s,dereva,nafasi,mawazo,NA,NA,NA,NA,NA,NA,NA,NA,NA,NA,NA,NA,NA,NA,NA,NA,NA,NA,NA,NA,NA,NA,NA
29178,Shallow Question,html.Page,1_1_5_1_0,NA,NA,form submission,8507.6029996185,254609.29999924,254605.677,254622.297,263129.89999962,263130,2023-03-26T07:32:29Z,263131.359,"c(""distractor1"", ""distractor2"", ""distractor3"")",Kritik,lawama,s,dereva,nafasi,mawazo,lawama,NA,NA,NA,NA,NA,NA,NA,NA,NA,NA,NA,NA,NA,NA,NA,NA,NA,NA,NA,NA,NA,NA
29178,"""Richtig""-Screen",canvas.Screen,1_1_5_1_1,NA,NA,timeout,4995.987,263132.10000038,263115.459,263131.359,268110.626,268111,2023-03-26T07:32:34Z,268127.346,"c(""distractor1"", ""distractor2"", ""distractor3"")",Kritik,lawama,s,dereva,nafasi,mawazo,NA,NA,1,NA,NA,NA,NA,NA,NA,NA,NA,NA,NA,NA,NA,NA,NA,NA,NA,NA,NA,NA,NA
29178,"""Falsch""-Screen",canvas.Screen,1_1_5_1_2,NA,NA,skipped,NA,268113.5,NA,NA,268110.626,268113.60000038,2023-03-26T07:32:34Z,268127.346,"c(""distractor1"", ""distractor2"", ""distractor3"")",Kritik,lawama,s,dereva,nafasi,mawazo,NA,NA,NA,NA,NA,NA,NA,NA,NA,NA,NA,NA,NA,NA,NA,NA,NA,NA,NA,NA,NA,NA,NA
29178,shallow,flow.Sequence,1_1_5_1,NA,NA,completion,13488.329,254609.29999924,254605.677,254622.297,268110.626,268113.79999923997,2023-03-26T07:32:34Z,268127.346,"c(""distractor1"", ""distractor2"", ""distractor3"")",Kritik,lawama,s,dereva,nafasi,mawazo,NA,NA,NA,NA,NA,NA,NA,NA,NA,NA,NA,NA,NA,NA,NA,NA,NA,NA,NA,NA,NA,NA,NA
29178,task,flow.Sequence,1_1_5,NA,NA,completion,13488.329,254609.10000038001,254605.677,254622.297,268110.626,268114,2023-03-26T07:32:34Z,268127.346,"c(""distractor1"", ""distractor2"", ""distractor3"")",Kritik,lawama,s,dereva,nafasi,mawazo,NA,NA,NA,NA,NA,NA,NA,NA,NA,NA,NA,NA,NA,NA,NA,NA,NA,NA,NA,NA,NA,NA,NA
29178,block,flow.Loop,1_1,NA,NA,completion,76603.779,191492.10000038001,191489.555,191506.847,268110.626,268114.20000076003,2023-03-26T07:32:34Z,268127.346,"c(""distractor1"", ""distractor2"", ""distractor3"")",NA,NA,NA,NA,NA,NA,NA,NA,NA,NA,NA,NA,NA,NA,NA,NA,NA,NA,NA,NA,NA,NA,NA,NA,NA,NA,NA,NA,NA
29178,Practice,flow.Sequence,1,NA,NA,completion,86612.243,181485.20000076,181481.383,181498.383,268110.626,268114.39999962,2023-03-26T07:32:34Z,268127.346,NULL,NA,NA,NA,NA,NA,NA,NA,NA,NA,NA,NA,NA,NA,NA,NA,NA,NA,NA,NA,NA,NA,NA,NA,NA,NA,NA,NA,NA,NA
29178,Experiment start,canvas.Screen,2,weiter,keypress(q),response,12784.553999619,268114.39999962,268110.626,268127.346,280911.89999962,280914,2023-03-26T07:32:47Z,281033.373,NULL,NA,NA,NA,NA,NA,NA,NA,NA,NA,NA,NA,NA,NA,NA,NA,NA,NA,NA,NA,NA,NA,NA,NA,NA,NA,NA,NA,NA,NA
29178,Deep Question,html.Page,3_0_0_0_0_0_0,NA,NA,form submission,9313.8270007629,281036.29999924,280899.373,281033.373,290347.20000076003,290347.39999962,2023-03-26T07:32:56Z,290359.015,NULL,Schlange,foleni,d,NA,NA,NA,salanga,NA,NA,0,NA,NA,NA,NA,NA,NA,NA,NA,NA,NA,NA,NA,NA,NA,NA,NA,NA,NA,NA
29178,"""Richtig""-Screen",canvas.Screen,3_0_0_0_0_0_1,NA,NA,skipped,NA,290350.20000076003,NA,NA,290347.20000076003,290350.39999962,2023-03-26T07:32:56Z,290359.015,NULL,Schlange,foleni,d,NA,NA,NA,NA,sdf,NA,0,NA,NA,NA,NA,NA,NA,NA,NA,NA,NA,NA,NA,NA,NA,NA,NA,NA,NA,NA
29178,"""Falsch""-Screen",canvas.Screen,3_0_0_0_0_0_2,NA,NA,timeout,4995.947,290351.39999962,290342.708,290359.015,295338.305,295338.70000076003,2023-03-26T07:33:01Z,295354.962,NULL,Schlange,foleni,d,NA,NA,NA,NA,sdf,0,0,NA,NA,NA,NA,NA,NA,NA,NA,NA,NA,NA,NA,NA,NA,NA,NA,NA,NA,NA
29178,deep,flow.Sequence,3_0_0_0_0_0,NA,NA,completion,14304.932,281036.29999924,280899.373,281033.373,295338.305,295339,2023-03-26T07:33:01Z,295354.962,NULL,Schlange,foleni,d,NA,NA,NA,NA,sdf,NA,0,NA,NA,NA,NA,NA,NA,NA,NA,NA,NA,NA,NA,NA,NA,NA,NA,NA,NA,NA
29178,shallow,flow.Sequence,3_0_0_0_0_1,NA,NA,skipped,NA,295339.10000038,NA,NA,295338.305,295339.20000076003,2023-03-26T07:33:01Z,295354.962,NULL,Schlange,foleni,d,NA,NA,NA,NA,sdf,NA,0,NA,NA,NA,NA,NA,NA,NA,NA,NA,NA,NA,NA,NA,NA,NA,NA,NA,NA,NA
29178,task,flow.Sequence,3_0_0_0_0,NA,NA,completion,14304.932,281036.29999924,280899.373,281033.373,295338.305,295339.39999962,2023-03-26T07:33:01Z,295354.962,NULL,Schlange,foleni,d,NA,NA,NA,NA,sdf,NA,0,NA,NA,NA,NA,NA,NA,NA,NA,NA,NA,NA,NA,NA,NA,NA,NA,NA,NA,NA
29178,Deep Question,html.Page,3_0_0_0_1_0_0,NA,NA,form submission,8440.538,295339.5,295338.305,295354.962,303795.5,303795.70000076003,2023-03-26T07:33:10Z,303798.006,NULL,Annäherung,maegesho,d,NA,NA,NA,ktema,NA,NA,0,NA,NA,NA,NA,NA,NA,NA,NA,NA,NA,NA,NA,NA,NA,NA,NA,NA,NA,NA
29178,"""Richtig""-Screen",canvas.Screen,3_0_0_0_1_0_1,NA,NA,skipped,NA,303798.29999923997,NA,NA,303795.5,303798.5,2023-03-26T07:33:10Z,303798.006,NULL,Annäherung,maegesho,d,NA,NA,NA,NA,sdf,NA,0,NA,NA,NA,NA,NA,NA,NA,NA,NA,NA,NA,NA,NA,NA,NA,NA,NA,NA,NA
29178,"""Falsch""-Screen",canvas.Screen,3_0_0_0_1_0_2,NA,NA,timeout,4995.916,303799.29999923997,303781.467,303798.006,308777.288,308777.70000076003,2023-03-26T07:33:15Z,308793.922,NULL,Annäherung,maegesho,d,NA,NA,NA,NA,sdf,0,0,NA,NA,NA,NA,NA,NA,NA,NA,NA,NA,NA,NA,NA,NA,NA,NA,NA,NA,NA
29178,deep,flow.Sequence,3_0_0_0_1_0,NA,NA,completion,13422.326,295339.5,295338.305,295354.962,308777.288,308777.79999923997,2023-03-26T07:33:15Z,308793.922,NULL,Annäherung,maegesho,d,NA,NA,NA,NA,sdf,NA,0,NA,NA,NA,NA,NA,NA,NA,NA,NA,NA,NA,NA,NA,NA,NA,NA,NA,NA,NA
29178,shallow,flow.Sequence,3_0_0_0_1_1,NA,NA,skipped,NA,308777.89999962,NA,NA,308777.288,308777.89999962,2023-03-26T07:33:15Z,308793.922,NULL,Annäherung,maegesho,d,NA,NA,NA,NA,sdf,NA,0,NA,NA,NA,NA,NA,NA,NA,NA,NA,NA,NA,NA,NA,NA,NA,NA,NA,NA,NA
29178,task,flow.Sequence,3_0_0_0_1,NA,NA,completion,13422.326,295339.5,295338.305,295354.962,308777.288,308778,2023-03-26T07:33:15Z,308793.922,NULL,Annäherung,maegesho,d,NA,NA,NA,NA,sdf,NA,0,NA,NA,NA,NA,NA,NA,NA,NA,NA,NA,NA,NA,NA,NA,NA,NA,NA,NA,NA
29178,Deep Question,html.Page,3_0_0_0_2_0_0,NA,NA,form submission,5960.2780007629,308778.10000038,308777.288,308793.922,314754.20000076003,314754.29999924,2023-03-26T07:33:21Z,314772.363,NULL,Toleranz,kuvumiliana,d,NA,NA,NA,tolanta,NA,NA,0,NA,NA,NA,NA,NA,NA,NA,NA,NA,NA,NA,NA,NA,NA,NA,NA,NA,NA,NA
29178,"""Richtig""-Screen",canvas.Screen,3_0_0_0_2_0_1,NA,NA,skipped,NA,314756.89999962,NA,NA,314754.20000076003,314757.10000038,2023-03-26T07:33:21Z,314772.363,NULL,Toleranz,kuvumiliana,d,NA,NA,NA,NA,sdf,NA,0,NA,NA,NA,NA,NA,NA,NA,NA,NA,NA,NA,NA,NA,NA,NA,NA,NA,NA,NA
29178,"""Falsch""-Screen",canvas.Screen,3_0_0_0_2_0_2,NA,NA,timeout,4995.975,314758.10000038,314755.698,314772.363,319751.624,319752.10000038,2023-03-26T07:33:26Z,319768.338,NULL,Toleranz,kuvumiliana,d,NA,NA,NA,NA,sdf,0,0,NA,NA,NA,NA,NA,NA,NA,NA,NA,NA,NA,NA,NA,NA,NA,NA,NA,NA,NA
29178,deep,flow.Sequence,3_0_0_0_2_0,NA,NA,completion,10957.702,308778.10000038,308777.288,308793.922,319751.624,319752.20000076003,2023-03-26T07:33:26Z,319768.338,NULL,Toleranz,kuvumiliana,d,NA,NA,NA,NA,sdf,NA,0,NA,NA,NA,NA,NA,NA,NA,NA,NA,NA,NA,NA,NA,NA,NA,NA,NA,NA,NA
29178,shallow,flow.Sequence,3_0_0_0_2_1,NA,NA,skipped,NA,319752.29999924,NA,NA,319751.624,319752.29999924,2023-03-26T07:33:26Z,319768.338,NULL,Toleranz,kuvumiliana,d,NA,NA,NA,NA,sdf,NA,0,NA,NA,NA,NA,NA,NA,NA,NA,NA,NA,NA,NA,NA,NA,NA,NA,NA,NA,NA
29178,task,flow.Sequence,3_0_0_0_2,NA,NA,completion,10957.702,308778,308777.288,308793.922,319751.624,319752.5,2023-03-26T07:33:26Z,319768.338,NULL,Toleranz,kuvumiliana,d,NA,NA,NA,NA,sdf,NA,0,NA,NA,NA,NA,NA,NA,NA,NA,NA,NA,NA,NA,NA,NA,NA,NA,NA,NA,NA
29178,deep,flow.Sequence,3_0_0_0_3_0,NA,NA,skipped,NA,319752.60000038,NA,NA,319751.624,319752.60000038,2023-03-26T07:33:26Z,319768.338,NULL,Inhalt,yaliyomo,s,kishawishi,hifadhi,kutembea,NA,sdf,NA,0,NA,NA,NA,NA,NA,NA,NA,NA,NA,NA,NA,NA,NA,NA,NA,NA,NA,NA,NA
29178,Shallow Question,html.Page,3_0_0_0_3_1_0,NA,NA,form submission,6655.0619996185,319752.70000076003,319751.624,319768.338,326423.39999962,326423.60000038,2023-03-26T07:33:32Z,326429.441,NULL,Inhalt,yaliyomo,s,kishawishi,hifadhi,kutembea,yaliyomo,NA,NA,0,NA,NA,NA,NA,NA,NA,NA,NA,NA,NA,NA,NA,NA,NA,NA,NA,NA,NA,NA
29178,"""Richtig""-Screen",canvas.Screen,3_0_0_0_3_1_1,NA,NA,timeout,4995.947,326425.79999924,326412.793,326429.441,331408.716,331409.20000076003,2023-03-26T07:33:37Z,331425.388,NULL,Inhalt,yaliyomo,s,kishawishi,hifadhi,kutembea,NA,sdf,1,0,NA,NA,NA,NA,NA,NA,NA,NA,NA,NA,NA,NA,NA,NA,NA,NA,NA,NA,NA
29178,"""Falsch""-Screen",canvas.Screen,3_0_0_0_3_1_2,NA,NA,skipped,NA,331411,NA,NA,331408.716,331411.20000076003,2023-03-26T07:33:37Z,331425.388,NULL,Inhalt,yaliyomo,s,kishawishi,hifadhi,kutembea,NA,sdf,NA,0,NA,NA,NA,NA,NA,NA,NA,NA,NA,NA,NA,NA,NA,NA,NA,NA,NA,NA,NA
29178,shallow,flow.Sequence,3_0_0_0_3_1,NA,NA,completion,11640.378,319752.60000038,319751.624,319768.338,331408.716,331411.29999924,2023-03-26T07:33:37Z,331425.388,NULL,Inhalt,yaliyomo,s,kishawishi,hifadhi,kutembea,NA,sdf,NA,0,NA,NA,NA,NA,NA,NA,NA,NA,NA,NA,NA,NA,NA,NA,NA,NA,NA,NA,NA
29178,task,flow.Sequence,3_0_0_0_3,NA,NA,completion,11640.378,319752.5,319751.624,319768.338,331408.716,331411.29999924,2023-03-26T07:33:37Z,331425.388,NULL,Inhalt,yaliyomo,s,kishawishi,hifadhi,kutembea,NA,sdf,NA,0,NA,NA,NA,NA,NA,NA,NA,NA,NA,NA,NA,NA,NA,NA,NA,NA,NA,NA,NA
29178,deep,flow.Sequence,3_0_0_0_4_0,NA,NA,skipped,NA,331411.39999962,NA,NA,331408.716,331411.39999962,2023-03-26T07:33:37Z,331425.388,NULL,Vermutung,udhanifu,s,haramia,tikisho,itifaki,NA,sdf,NA,0,NA,NA,NA,NA,NA,NA,NA,NA,NA,NA,NA,NA,NA,NA,NA,NA,NA,NA,NA
29178,Shallow Question,html.Page,3_0_0_0_4_1_0,NA,NA,form submission,3565.9119992371,331411.5,331408.716,331425.388,334991.29999923997,334991.5,2023-03-26T07:33:41Z,335006.106,NULL,Vermutung,udhanifu,s,haramia,tikisho,itifaki,itifaki,NA,NA,0,NA,NA,NA,NA,NA,NA,NA,NA,NA,NA,NA,NA,NA,NA,NA,NA,NA,NA,NA
29178,"""Richtig""-Screen",canvas.Screen,3_0_0_0_4_1_1,NA,NA,skipped,NA,334993,NA,NA,334991.29999923997,334993.20000076003,2023-03-26T07:33:41Z,335006.106,NULL,Vermutung,udhanifu,s,haramia,tikisho,itifaki,NA,sdf,NA,0,NA,NA,NA,NA,NA,NA,NA,NA,NA,NA,NA,NA,NA,NA,NA,NA,NA,NA,NA
29178,"""Falsch""-Screen",canvas.Screen,3_0_0_0_4_1_2,NA,NA,timeout,4995.535,334993.79999923997,334989.1,335006.106,339985.055,339985.5,2023-03-26T07:33:46Z,340001.641,NULL,Vermutung,udhanifu,s,haramia,tikisho,itifaki,NA,sdf,0,0,NA,NA,NA,NA,NA,NA,NA,NA,NA,NA,NA,NA,NA,NA,NA,NA,NA,NA,NA
29178,shallow,flow.Sequence,3_0_0_0_4_1,NA,NA,completion,8559.667,331411.5,331408.716,331425.388,339985.055,339985.60000038,2023-03-26T07:33:46Z,340001.641,NULL,Vermutung,udhanifu,s,haramia,tikisho,itifaki,NA,sdf,NA,0,NA,NA,NA,NA,NA,NA,NA,NA,NA,NA,NA,NA,NA,NA,NA,NA,NA,NA,NA
29178,task,flow.Sequence,3_0_0_0_4,NA,NA,completion,8559.667,331411.39999962,331408.716,331425.388,339985.055,339985.79999924,2023-03-26T07:33:46Z,340001.641,NULL,Vermutung,udhanifu,s,haramia,tikisho,itifaki,NA,sdf,NA,0,NA,NA,NA,NA,NA,NA,NA,NA,NA,NA,NA,NA,NA,NA,NA,NA,NA,NA,NA
29178,deep,flow.Sequence,3_0_0_0_5_0,NA,NA,skipped,NA,339985.89999962,NA,NA,339985.055,339986,2023-03-26T07:33:46Z,340001.641,NULL,Polizist,msongora,s,simanzi,mandhari,nidhamu,NA,sdf,NA,0,NA,NA,NA,NA,NA,NA,NA,NA,NA,NA,NA,NA,NA,NA,NA,NA,NA,NA,NA
29178,Shallow Question,html.Page,3_0_0_0_5_1_0,NA,NA,form submission,4551.1589992371,339986.10000038,339985.055,340001.641,344552.79999923997,344553.10000038,2023-03-26T07:33:51Z,344565.066,NULL,Polizist,msongora,s,simanzi,mandhari,nidhamu,msongora,NA,NA,0,NA,NA,NA,NA,NA,NA,NA,NA,NA,NA,NA,NA,NA,NA,NA,NA,NA,NA,NA
29178,"""Richtig""-Screen",canvas.Screen,3_0_0_0_5_1_1,NA,NA,timeout,4995.42,344555.10000038,344547.875,344565.066,349543.856,349544.29999923997,2023-03-26T07:33:56Z,349560.486,NULL,Polizist,msongora,s,simanzi,mandhari,nidhamu,NA,sdf,1,0,NA,NA,NA,NA,NA,NA,NA,NA,NA,NA,NA,NA,NA,NA,NA,NA,NA,NA,NA
29178,"""Falsch""-Screen",canvas.Screen,3_0_0_0_5_1_2,NA,NA,skipped,NA,349546.79999923997,NA,NA,349543.856,349547,2023-03-26T07:33:56Z,349560.486,NULL,Polizist,msongora,s,simanzi,mandhari,nidhamu,NA,sdf,NA,0,NA,NA,NA,NA,NA,NA,NA,NA,NA,NA,NA,NA,NA,NA,NA,NA,NA,NA,NA
29178,shallow,flow.Sequence,3_0_0_0_5_1,NA,NA,completion,9542.215,339986.10000038,339985.055,340001.641,349543.856,349547.20000076003,2023-03-26T07:33:56Z,349560.486,NULL,Polizist,msongora,s,simanzi,mandhari,nidhamu,NA,sdf,NA,0,NA,NA,NA,NA,NA,NA,NA,NA,NA,NA,NA,NA,NA,NA,NA,NA,NA,NA,NA
29178,task,flow.Sequence,3_0_0_0_5,NA,NA,completion,9542.215,339985.89999962,339985.055,340001.641,349543.856,349547.29999924,2023-03-26T07:33:56Z,349560.486,NULL,Polizist,msongora,s,simanzi,mandhari,nidhamu,NA,sdf,NA,0,NA,NA,NA,NA,NA,NA,NA,NA,NA,NA,NA,NA,NA,NA,NA,NA,NA,NA,NA
29178,Deep Question,html.Page,3_0_0_0_6_0_0,NA,NA,form submission,9266.1140003815,349547.39999962,349543.856,349560.486,358826.60000038,358826.89999962,2023-03-26T07:34:05Z,358836.19,NULL,Sympathie,mapendano,d,NA,NA,NA,massenu,NA,NA,0,NA,NA,NA,NA,NA,NA,NA,NA,NA,NA,NA,NA,NA,NA,NA,NA,NA,NA,NA
29178,"""Richtig""-Screen",canvas.Screen,3_0_0_0_6_0_1,NA,NA,skipped,NA,358829.60000038,NA,NA,358826.60000038,358829.79999923997,2023-03-26T07:34:05Z,358836.19,NULL,Sympathie,mapendano,d,NA,NA,NA,NA,sdf,NA,0,NA,NA,NA,NA,NA,NA,NA,NA,NA,NA,NA,NA,NA,NA,NA,NA,NA,NA,NA
29178,"""Falsch""-Screen",canvas.Screen,3_0_0_0_6_0_2,NA,NA,timeout,4996.752,358830.79999923997,358819.77,358836.19,363815.718,363816.29999923997,2023-03-26T07:34:10Z,363832.942,NULL,Sympathie,mapendano,d,NA,NA,NA,NA,sdf,0,0,NA,NA,NA,NA,NA,NA,NA,NA,NA,NA,NA,NA,NA,NA,NA,NA,NA,NA,NA
29178,deep,flow.Sequence,3_0_0_0_6_0,NA,NA,completion,14255.232,349547.39999962,349543.856,349560.486,363815.718,363816.5,2023-03-26T07:34:10Z,363832.942,NULL,Sympathie,mapendano,d,NA,NA,NA,NA,sdf,NA,0,NA,NA,NA,NA,NA,NA,NA,NA,NA,NA,NA,NA,NA,NA,NA,NA,NA,NA,NA
29178,shallow,flow.Sequence,3_0_0_0_6_1,NA,NA,skipped,NA,363816.70000076003,NA,NA,363815.718,363816.79999924,2023-03-26T07:34:10Z,363832.942,NULL,Sympathie,mapendano,d,NA,NA,NA,NA,sdf,NA,0,NA,NA,NA,NA,NA,NA,NA,NA,NA,NA,NA,NA,NA,NA,NA,NA,NA,NA,NA
29178,task,flow.Sequence,3_0_0_0_6,NA,NA,completion,14255.232,349547.29999924,349543.856,349560.486,363815.718,363816.79999924,2023-03-26T07:34:10Z,363832.942,NULL,Sympathie,mapendano,d,NA,NA,NA,NA,sdf,NA,0,NA,NA,NA,NA,NA,NA,NA,NA,NA,NA,NA,NA,NA,NA,NA,NA,NA,NA,NA
29178,deep,flow.Sequence,3_0_0_0_7_0,NA,NA,skipped,NA,363816.89999962,NA,NA,363815.718,363816.89999962,2023-03-26T07:34:10Z,363832.942,NULL,Beweis,ushahidi,s,marudio,kizuizi,mtendaji,NA,sdf,NA,0,NA,NA,NA,NA,NA,NA,NA,NA,NA,NA,NA,NA,NA,NA,NA,NA,NA,NA,NA
29178,Shallow Question,html.Page,3_0_0_0_7_1_0,NA,NA,form submission,6097.4579996185,363816.89999962,363815.718,363832.942,369930.39999962,369930.60000038,2023-03-26T07:34:16Z,369943.746,NULL,Beweis,ushahidi,s,marudio,kizuizi,mtendaji,marudio,NA,NA,0,NA,NA,NA,NA,NA,NA,NA,NA,NA,NA,NA,NA,NA,NA,NA,NA,NA,NA,NA
29178,"""Richtig""-Screen",canvas.Screen,3_0_0_0_7_1_1,NA,NA,skipped,NA,369932.39999962,NA,NA,369930.39999962,369932.60000038,2023-03-26T07:34:16Z,369943.746,NULL,Beweis,ushahidi,s,marudio,kizuizi,mtendaji,NA,sdf,NA,0,NA,NA,NA,NA,NA,NA,NA,NA,NA,NA,NA,NA,NA,NA,NA,NA,NA,NA,NA
29178,"""Falsch""-Screen",canvas.Screen,3_0_0_0_7_1_2,NA,NA,timeout,4995.899,369933.29999923997,369927.155,369943.746,374923.071,374923.5,2023-03-26T07:34:21Z,374939.645,NULL,Beweis,ushahidi,s,marudio,kizuizi,mtendaji,NA,sdf,0,0,NA,NA,NA,NA,NA,NA,NA,NA,NA,NA,NA,NA,NA,NA,NA,NA,NA,NA,NA
29178,shallow,flow.Sequence,3_0_0_0_7_1,NA,NA,completion,11090.129,363816.89999962,363815.718,363832.942,374923.071,374923.60000038,2023-03-26T07:34:21Z,374939.645,NULL,Beweis,ushahidi,s,marudio,kizuizi,mtendaji,NA,sdf,NA,0,NA,NA,NA,NA,NA,NA,NA,NA,NA,NA,NA,NA,NA,NA,NA,NA,NA,NA,NA
29178,task,flow.Sequence,3_0_0_0_7,NA,NA,completion,11090.129,363816.79999924,363815.718,363832.942,374923.071,374923.79999924,2023-03-26T07:34:21Z,374939.645,NULL,Beweis,ushahidi,s,marudio,kizuizi,mtendaji,NA,sdf,NA,0,NA,NA,NA,NA,NA,NA,NA,NA,NA,NA,NA,NA,NA,NA,NA,NA,NA,NA,NA
29178,block,flow.Loop,3_0_0_0,NA,NA,completion,93889.698,281036.20000076003,280899.373,281033.373,374923.071,374923.79999924,2023-03-26T07:34:21Z,374939.645,NULL,NA,NA,NA,NA,NA,NA,NA,sdf,NA,0,NA,NA,NA,NA,NA,NA,NA,NA,NA,NA,NA,NA,NA,NA,NA,NA,NA,NA,NA
29178,weiter,canvas.Screen,3_0_0_1,sdf,keypress(Space),response,2277.2549996185,374923.89999962,374923.071,374939.645,377216.89999962,377217.39999962,2023-03-26T07:34:23Z,377271.104,NULL,NA,NA,NA,NA,NA,NA,NA,sdf,NA,0,NA,NA,NA,NA,NA,NA,NA,NA,NA,NA,NA,NA,NA,NA,NA,NA,NA,NA,NA
29178,check continue,flow.Sequence,3_0_0,NA,NA,completion,96183.526999619,281036.10000038,280899.373,281033.373,377216.89999962,377217.5,2023-03-26T07:34:23Z,377271.104,NULL,NA,NA,NA,NA,NA,NA,NA,sdf,NA,0,NA,NA,NA,NA,NA,NA,NA,NA,NA,NA,NA,NA,NA,NA,NA,NA,NA,NA,NA
29178,Deep Question,html.Page,3_0_1_0_0_0_0,NA,NA,form submission,9175.2959996185,377260.20000076003,377254.308,377271.104,386446.39999962,386446.60000038,2023-03-26T07:34:32Z,386473.066,NULL,Toleranz,kuvumiliana,d,NA,NA,NA,maeashi,NA,NA,1,NA,NA,NA,NA,NA,NA,NA,NA,NA,NA,NA,NA,NA,NA,NA,NA,NA,NA,NA
29178,"""Richtig""-Screen",canvas.Screen,3_0_1_0_0_0_1,NA,NA,skipped,NA,386449.29999924,NA,NA,386446.39999962,386449.5,2023-03-26T07:34:32Z,386473.066,NULL,Toleranz,kuvumiliana,d,NA,NA,NA,NA,sdfdsf,NA,1,NA,NA,NA,NA,NA,NA,NA,NA,NA,NA,NA,NA,NA,NA,NA,NA,NA,NA,NA
29178,"""Falsch""-Screen",canvas.Screen,3_0_1_0_0_0_2,NA,NA,timeout,5003.111,386450.5,386430.24,386473.066,391459.739,391460.79999924,2023-03-26T07:34:37Z,391476.177,NULL,Toleranz,kuvumiliana,d,NA,NA,NA,NA,sdfdsf,0,1,NA,NA,NA,NA,NA,NA,NA,NA,NA,NA,NA,NA,NA,NA,NA,NA,NA,NA,NA
29178,deep,flow.Sequence,3_0_1_0_0_0,NA,NA,completion,14188.635,377260.10000038,377254.308,377271.104,391459.739,391461.20000076003,2023-03-26T07:34:37Z,391476.177,NULL,Toleranz,kuvumiliana,d,NA,NA,NA,NA,sdfdsf,NA,1,NA,NA,NA,NA,NA,NA,NA,NA,NA,NA,NA,NA,NA,NA,NA,NA,NA,NA,NA
29178,shallow,flow.Sequence,3_0_1_0_0_1,NA,NA,skipped,NA,391461.39999962,NA,NA,391459.739,391461.70000076003,2023-03-26T07:34:37Z,391476.177,NULL,Toleranz,kuvumiliana,d,NA,NA,NA,NA,sdfdsf,NA,1,NA,NA,NA,NA,NA,NA,NA,NA,NA,NA,NA,NA,NA,NA,NA,NA,NA,NA,NA
29178,task,flow.Sequence,3_0_1_0_0,NA,NA,completion,14188.635,377260.10000038,377254.308,377271.104,391459.739,391462,2023-03-26T07:34:37Z,391476.177,NULL,Toleranz,kuvumiliana,d,NA,NA,NA,NA,sdfdsf,NA,1,NA,NA,NA,NA,NA,NA,NA,NA,NA,NA,NA,NA,NA,NA,NA,NA,NA,NA,NA
29178,deep,flow.Sequence,3_0_1_0_1_0,NA,NA,skipped,NA,391462.20000076003,NA,NA,391459.739,391462.39999962,2023-03-26T07:34:37Z,391476.177,NULL,Inhalt,yaliyomo,s,kishawishi,hifadhi,kutembea,NA,sdfdsf,NA,1,NA,NA,NA,NA,NA,NA,NA,NA,NA,NA,NA,NA,NA,NA,NA,NA,NA,NA,NA
29178,Shallow Question,html.Page,3_0_1_0_1_1_0,NA,NA,form submission,3320.323,391462.60000038,391459.739,391476.177,394796.5,394796.70000076003,2023-03-26T07:34:41Z,394806.731,NULL,Inhalt,yaliyomo,s,kishawishi,hifadhi,kutembea,yaliyomo,NA,NA,1,NA,NA,NA,NA,NA,NA,NA,NA,NA,NA,NA,NA,NA,NA,NA,NA,NA,NA,NA
29178,"""Richtig""-Screen",canvas.Screen,3_0_1_0_1_1_1,NA,NA,timeout,4996.204,394798.60000038,394790.646,394806.731,399785.972,399787.70000076003,2023-03-26T07:34:46Z,399802.935,NULL,Inhalt,yaliyomo,s,kishawishi,hifadhi,kutembea,NA,sdfdsf,1,1,NA,NA,NA,NA,NA,NA,NA,NA,NA,NA,NA,NA,NA,NA,NA,NA,NA,NA,NA
29178,"""Falsch""-Screen",canvas.Screen,3_0_1_0_1_1_2,NA,NA,skipped,NA,399789.5,NA,NA,399785.972,399789.70000076003,2023-03-26T07:34:46Z,399802.935,NULL,Inhalt,yaliyomo,s,kishawishi,hifadhi,kutembea,NA,sdfdsf,NA,1,NA,NA,NA,NA,NA,NA,NA,NA,NA,NA,NA,NA,NA,NA,NA,NA,NA,NA,NA
29178,shallow,flow.Sequence,3_0_1_0_1_1,NA,NA,completion,8309.795,391462.5,391459.739,391476.177,399785.972,399789.89999962,2023-03-26T07:34:46Z,399802.935,NULL,Inhalt,yaliyomo,s,kishawishi,hifadhi,kutembea,NA,sdfdsf,NA,1,NA,NA,NA,NA,NA,NA,NA,NA,NA,NA,NA,NA,NA,NA,NA,NA,NA,NA,NA
29178,task,flow.Sequence,3_0_1_0_1,NA,NA,completion,8309.795,391462.10000038,391459.739,391476.177,399785.972,399790,2023-03-26T07:34:46Z,399802.935,NULL,Inhalt,yaliyomo,s,kishawishi,hifadhi,kutembea,NA,sdfdsf,NA,1,NA,NA,NA,NA,NA,NA,NA,NA,NA,NA,NA,NA,NA,NA,NA,NA,NA,NA,NA
29178,deep,flow.Sequence,3_0_1_0_2_0,NA,NA,skipped,NA,399790,NA,NA,399785.972,399790,2023-03-26T07:34:46Z,399802.935,NULL,Polizist,msongora,s,simanzi,mandhari,nidhamu,NA,sdfdsf,NA,1,NA,NA,NA,NA,NA,NA,NA,NA,NA,NA,NA,NA,NA,NA,NA,NA,NA,NA,NA
29178,Shallow Question,html.Page,3_0_1_0_2_1_0,NA,NA,form submission,2947.7650007629,399790.10000038,399785.972,399802.935,402750.70000076003,402750.89999962,2023-03-26T07:34:49Z,402782.071,NULL,Polizist,msongora,s,simanzi,mandhari,nidhamu,msongora,NA,NA,1,NA,NA,NA,NA,NA,NA,NA,NA,NA,NA,NA,NA,NA,NA,NA,NA,NA,NA,NA
29178,"""Richtig""-Screen",canvas.Screen,3_0_1_0_2_1_1,NA,NA,timeout,4997.392,402751.89999962,402733.56,402782.071,407762.867,407763.89999962,2023-03-26T07:34:54Z,407779.463,NULL,Polizist,msongora,s,simanzi,mandhari,nidhamu,NA,sdfdsf,1,1,NA,NA,NA,NA,NA,NA,NA,NA,NA,NA,NA,NA,NA,NA,NA,NA,NA,NA,NA
29178,"""Falsch""-Screen",canvas.Screen,3_0_1_0_2_1_2,NA,NA,skipped,NA,407769.79999923997,NA,NA,407762.867,407770.20000076003,2023-03-26T07:34:54Z,407779.463,NULL,Polizist,msongora,s,simanzi,mandhari,nidhamu,NA,sdfdsf,NA,1,NA,NA,NA,NA,NA,NA,NA,NA,NA,NA,NA,NA,NA,NA,NA,NA,NA,NA,NA
29178,shallow,flow.Sequence,3_0_1_0_2_1,NA,NA,completion,7959.932,399790,399785.972,399802.935,407762.867,407770.70000076003,2023-03-26T07:34:54Z,407779.463,NULL,Polizist,msongora,s,simanzi,mandhari,nidhamu,NA,sdfdsf,NA,1,NA,NA,NA,NA,NA,NA,NA,NA,NA,NA,NA,NA,NA,NA,NA,NA,NA,NA,NA
29178,task,flow.Sequence,3_0_1_0_2,NA,NA,completion,7959.932,399790,399785.972,399802.935,407762.867,407771,2023-03-26T07:34:54Z,407779.463,NULL,Polizist,msongora,s,simanzi,mandhari,nidhamu,NA,sdfdsf,NA,1,NA,NA,NA,NA,NA,NA,NA,NA,NA,NA,NA,NA,NA,NA,NA,NA,NA,NA,NA
29178,deep,flow.Sequence,3_0_1_0_3_0,NA,NA,skipped,NA,407771.20000076003,NA,NA,407762.867,407771.39999962,2023-03-26T07:34:54Z,407779.463,NULL,Beweis,ushahidi,s,marudio,kizuizi,mtendaji,NA,sdfdsf,NA,1,NA,NA,NA,NA,NA,NA,NA,NA,NA,NA,NA,NA,NA,NA,NA,NA,NA,NA,NA
29178,Shallow Question,html.Page,3_0_1_0_3_1_0,NA,NA,form submission,3460.037,407771.60000038,407762.867,407779.463,411239.5,411239.70000076003,2023-03-26T07:34:57Z,411243.211,NULL,Beweis,ushahidi,s,marudio,kizuizi,mtendaji,ushahidi,NA,NA,1,NA,NA,NA,NA,NA,NA,NA,NA,NA,NA,NA,NA,NA,NA,NA,NA,NA,NA,NA
29178,"""Richtig""-Screen",canvas.Screen,3_0_1_0_3_1_1,NA,NA,timeout,4996.106,411241.79999924,411226.54,411243.211,416222.624,416223.5,2023-03-26T07:35:02Z,416239.317,NULL,Beweis,ushahidi,s,marudio,kizuizi,mtendaji,NA,sdfdsf,1,1,NA,NA,NA,NA,NA,NA,NA,NA,NA,NA,NA,NA,NA,NA,NA,NA,NA,NA,NA
29178,"""Falsch""-Screen",canvas.Screen,3_0_1_0_3_1_2,NA,NA,skipped,NA,416227.29999924,NA,NA,416222.624,416227.60000038,2023-03-26T07:35:02Z,416239.317,NULL,Beweis,ushahidi,s,marudio,kizuizi,mtendaji,NA,sdfdsf,NA,1,NA,NA,NA,NA,NA,NA,NA,NA,NA,NA,NA,NA,NA,NA,NA,NA,NA,NA,NA
29178,shallow,flow.Sequence,3_0_1_0_3_1,NA,NA,completion,8443.161,407771.5,407762.867,407779.463,416222.624,416227.89999962,2023-03-26T07:35:02Z,416239.317,NULL,Beweis,ushahidi,s,marudio,kizuizi,mtendaji,NA,sdfdsf,NA,1,NA,NA,NA,NA,NA,NA,NA,NA,NA,NA,NA,NA,NA,NA,NA,NA,NA,NA,NA
29178,task,flow.Sequence,3_0_1_0_3,NA,NA,completion,8443.161,407771.20000076003,407762.867,407779.463,416222.624,416228.10000038,2023-03-26T07:35:02Z,416239.317,NULL,Beweis,ushahidi,s,marudio,kizuizi,mtendaji,NA,sdfdsf,NA,1,NA,NA,NA,NA,NA,NA,NA,NA,NA,NA,NA,NA,NA,NA,NA,NA,NA,NA,NA
29178,Deep Question,html.Page,3_0_1_0_4_0_0,NA,NA,form submission,6045.9829992371,416228.20000076003,416222.624,416239.317,422285.29999923997,422285.5,2023-03-26T07:35:08Z,422300.826,NULL,Annäherung,maegesho,d,NA,NA,NA,kiviali,NA,NA,1,NA,NA,NA,NA,NA,NA,NA,NA,NA,NA,NA,NA,NA,NA,NA,NA,NA,NA,NA
29178,"""Richtig""-Screen",canvas.Screen,3_0_1_0_4_0_1,NA,NA,skipped,NA,422288.10000038,NA,NA,422285.29999923997,422288.10000038,2023-03-26T07:35:08Z,422300.826,NULL,Annäherung,maegesho,d,NA,NA,NA,NA,sdfdsf,NA,1,NA,NA,NA,NA,NA,NA,NA,NA,NA,NA,NA,NA,NA,NA,NA,NA,NA,NA,NA
29178,"""Falsch""-Screen",canvas.Screen,3_0_1_0_4_0_2,NA,NA,timeout,4995.914,422288.79999923997,422284.627,422300.826,427280.104,427280.5,2023-03-26T07:35:13Z,427296.74,NULL,Annäherung,maegesho,d,NA,NA,NA,NA,sdfdsf,0,1,NA,NA,NA,NA,NA,NA,NA,NA,NA,NA,NA,NA,NA,NA,NA,NA,NA,NA,NA
29178,deep,flow.Sequence,3_0_1_0_4_0,NA,NA,completion,11040.787,416228.20000076003,416222.624,416239.317,427280.104,427280.70000076003,2023-03-26T07:35:13Z,427296.74,NULL,Annäherung,maegesho,d,NA,NA,NA,NA,sdfdsf,NA,1,NA,NA,NA,NA,NA,NA,NA,NA,NA,NA,NA,NA,NA,NA,NA,NA,NA,NA,NA
29178,shallow,flow.Sequence,3_0_1_0_4_1,NA,NA,skipped,NA,427280.79999924,NA,NA,427280.104,427281,2023-03-26T07:35:13Z,427296.74,NULL,Annäherung,maegesho,d,NA,NA,NA,NA,sdfdsf,NA,1,NA,NA,NA,NA,NA,NA,NA,NA,NA,NA,NA,NA,NA,NA,NA,NA,NA,NA,NA
29178,task,flow.Sequence,3_0_1_0_4,NA,NA,completion,11040.787,416228.10000038,416222.624,416239.317,427280.104,427281.10000038,2023-03-26T07:35:13Z,427296.74,NULL,Annäherung,maegesho,d,NA,NA,NA,NA,sdfdsf,NA,1,NA,NA,NA,NA,NA,NA,NA,NA,NA,NA,NA,NA,NA,NA,NA,NA,NA,NA,NA
29178,deep,flow.Sequence,3_0_1_0_5_0,NA,NA,skipped,NA,427281.10000038,NA,NA,427280.104,427281.20000076003,2023-03-26T07:35:13Z,427296.74,NULL,Vermutung,udhanifu,s,haramia,tikisho,itifaki,NA,sdfdsf,NA,1,NA,NA,NA,NA,NA,NA,NA,NA,NA,NA,NA,NA,NA,NA,NA,NA,NA,NA,NA
29178,Shallow Question,html.Page,3_0_1_0_5_1_0,NA,NA,form submission,7415.1599996185,427281.39999962,427280.104,427296.74,434711.89999962,434712.10000038,2023-03-26T07:35:21Z,434723.975,NULL,Vermutung,udhanifu,s,haramia,tikisho,itifaki,udhanifu,NA,NA,1,NA,NA,NA,NA,NA,NA,NA,NA,NA,NA,NA,NA,NA,NA,NA,NA,NA,NA,NA
29178,"""Richtig""-Screen",canvas.Screen,3_0_1_0_5_1_1,NA,NA,timeout,4995.91,434714.29999924,434707.339,434723.975,439703.233,439703.60000038,2023-03-26T07:35:26Z,439719.885,NULL,Vermutung,udhanifu,s,haramia,tikisho,itifaki,NA,sdfdsf,1,1,NA,NA,NA,NA,NA,NA,NA,NA,NA,NA,NA,NA,NA,NA,NA,NA,NA,NA,NA
29178,"""Falsch""-Screen",canvas.Screen,3_0_1_0_5_1_2,NA,NA,skipped,NA,439705.79999924,NA,NA,439703.233,439706,2023-03-26T07:35:26Z,439719.885,NULL,Vermutung,udhanifu,s,haramia,tikisho,itifaki,NA,sdfdsf,NA,1,NA,NA,NA,NA,NA,NA,NA,NA,NA,NA,NA,NA,NA,NA,NA,NA,NA,NA,NA
29178,shallow,flow.Sequence,3_0_1_0_5_1,NA,NA,completion,12406.493,427281.29999924,427280.104,427296.74,439703.233,439706.10000038,2023-03-26T07:35:26Z,439719.885,NULL,Vermutung,udhanifu,s,haramia,tikisho,itifaki,NA,sdfdsf,NA,1,NA,NA,NA,NA,NA,NA,NA,NA,NA,NA,NA,NA,NA,NA,NA,NA,NA,NA,NA
29178,task,flow.Sequence,3_0_1_0_5,NA,NA,completion,12406.493,427281.10000038,427280.104,427296.74,439703.233,439706.29999924,2023-03-26T07:35:26Z,439719.885,NULL,Vermutung,udhanifu,s,haramia,tikisho,itifaki,NA,sdfdsf,NA,1,NA,NA,NA,NA,NA,NA,NA,NA,NA,NA,NA,NA,NA,NA,NA,NA,NA,NA,NA
29178,Deep Question,html.Page,3_0_1_0_6_0_0,NA,NA,form submission,5117.5149996185,439706.39999962,439703.233,439719.885,444837.39999962,444837.70000076003,2023-03-26T07:35:31Z,444849.019,NULL,Schlange,foleni,d,NA,NA,NA,kiviali,NA,NA,1,NA,NA,NA,NA,NA,NA,NA,NA,NA,NA,NA,NA,NA,NA,NA,NA,NA,NA,NA
29178,"""Richtig""-Screen",canvas.Screen,3_0_1_0_6_0_1,NA,NA,skipped,NA,444839.89999962,NA,NA,444837.39999962,444840,2023-03-26T07:35:31Z,444849.019,NULL,Schlange,foleni,d,NA,NA,NA,NA,sdfdsf,NA,1,NA,NA,NA,NA,NA,NA,NA,NA,NA,NA,NA,NA,NA,NA,NA,NA,NA,NA,NA
29178,"""Falsch""-Screen",canvas.Screen,3_0_1_0_6_0_2,NA,NA,timeout,4995.867,444841,444832.358,444849.019,449828.253,449828.60000038,2023-03-26T07:35:36Z,449844.886,NULL,Schlange,foleni,d,NA,NA,NA,NA,sdfdsf,0,1,NA,NA,NA,NA,NA,NA,NA,NA,NA,NA,NA,NA,NA,NA,NA,NA,NA,NA,NA
29178,deep,flow.Sequence,3_0_1_0_6_0,NA,NA,completion,10108.368,439706.39999962,439703.233,439719.885,449828.253,449828.79999923997,2023-03-26T07:35:36Z,449844.886,NULL,Schlange,foleni,d,NA,NA,NA,NA,sdfdsf,NA,1,NA,NA,NA,NA,NA,NA,NA,NA,NA,NA,NA,NA,NA,NA,NA,NA,NA,NA,NA
29178,shallow,flow.Sequence,3_0_1_0_6_1,NA,NA,skipped,NA,449828.79999923997,NA,NA,449828.253,449828.89999962,2023-03-26T07:35:36Z,449844.886,NULL,Schlange,foleni,d,NA,NA,NA,NA,sdfdsf,NA,1,NA,NA,NA,NA,NA,NA,NA,NA,NA,NA,NA,NA,NA,NA,NA,NA,NA,NA,NA
29178,task,flow.Sequence,3_0_1_0_6,NA,NA,completion,10108.368,439706.39999962,439703.233,439719.885,449828.253,449829.10000038,2023-03-26T07:35:36Z,449844.886,NULL,Schlange,foleni,d,NA,NA,NA,NA,sdfdsf,NA,1,NA,NA,NA,NA,NA,NA,NA,NA,NA,NA,NA,NA,NA,NA,NA,NA,NA,NA,NA
29178,Deep Question,html.Page,3_0_1_0_7_0_0,NA,NA,form submission,5671.3140007629,449829.10000038,449828.253,449844.886,455516.20000076003,455516.39999962,2023-03-26T07:35:42Z,455523.567,NULL,Sympathie,mapendano,d,NA,NA,NA,kiviali,NA,NA,1,NA,NA,NA,NA,NA,NA,NA,NA,NA,NA,NA,NA,NA,NA,NA,NA,NA,NA,NA
29178,"""Richtig""-Screen",canvas.Screen,3_0_1_0_7_0_1,NA,NA,skipped,NA,455518.60000038,NA,NA,455516.20000076003,455518.79999924,2023-03-26T07:35:42Z,455523.567,NULL,Sympathie,mapendano,d,NA,NA,NA,NA,sdfdsf,NA,1,NA,NA,NA,NA,NA,NA,NA,NA,NA,NA,NA,NA,NA,NA,NA,NA,NA,NA,NA
29178,"""Falsch""-Screen",canvas.Screen,3_0_1_0_7_0_2,NA,NA,timeout,4995.964,455519.60000038,455506.945,455523.567,460502.908,460505.5,2023-03-26T07:35:47Z,460519.531,NULL,Sympathie,mapendano,d,NA,NA,NA,NA,sdfdsf,0,1,NA,NA,NA,NA,NA,NA,NA,NA,NA,NA,NA,NA,NA,NA,NA,NA,NA,NA,NA
29178,deep,flow.Sequence,3_0_1_0_7_0,NA,NA,completion,10658.022,449829.10000038,449828.253,449844.886,460502.908,460506.10000038,2023-03-26T07:35:47Z,460519.531,NULL,Sympathie,mapendano,d,NA,NA,NA,NA,sdfdsf,NA,1,NA,NA,NA,NA,NA,NA,NA,NA,NA,NA,NA,NA,NA,NA,NA,NA,NA,NA,NA
29178,shallow,flow.Sequence,3_0_1_0_7_1,NA,NA,skipped,NA,460506.39999962,NA,NA,460502.908,460506.70000076003,2023-03-26T07:35:47Z,460519.531,NULL,Sympathie,mapendano,d,NA,NA,NA,NA,sdfdsf,NA,1,NA,NA,NA,NA,NA,NA,NA,NA,NA,NA,NA,NA,NA,NA,NA,NA,NA,NA,NA
29178,task,flow.Sequence,3_0_1_0_7,NA,NA,completion,10658.022,449829.10000038,449828.253,449844.886,460502.908,460507.10000038,2023-03-26T07:35:47Z,460519.531,NULL,Sympathie,mapendano,d,NA,NA,NA,NA,sdfdsf,NA,1,NA,NA,NA,NA,NA,NA,NA,NA,NA,NA,NA,NA,NA,NA,NA,NA,NA,NA,NA
29178,block,flow.Loop,3_0_1_0,NA,NA,completion,83231.804,377260,377254.308,377271.104,460502.908,460507.70000076003,2023-03-26T07:35:47Z,460519.531,NULL,NA,NA,NA,NA,NA,NA,NA,sdfdsf,NA,1,NA,NA,NA,NA,NA,NA,NA,NA,NA,NA,NA,NA,NA,NA,NA,NA,NA,NA,NA
29178,weiter,canvas.Screen,3_0_1_1,sdf,keypress(Space),response,1588.969,460507.89999962,460502.908,460519.531,462108.5,462109,2023-03-26T07:35:48Z,462168.11,NULL,NA,NA,NA,NA,NA,NA,NA,sdfdsf,NA,1,NA,NA,NA,NA,NA,NA,NA,NA,NA,NA,NA,NA,NA,NA,NA,NA,NA,NA,NA
29178,check continue,flow.Sequence,3_0_1,NA,NA,completion,84837.396,377260,377254.308,377271.104,462108.5,462109.20000076003,2023-03-26T07:35:48Z,462168.11,NULL,NA,NA,NA,NA,NA,NA,NA,sdfdsf,NA,1,NA,NA,NA,NA,NA,NA,NA,NA,NA,NA,NA,NA,NA,NA,NA,NA,NA,NA,NA
29178,deep,flow.Sequence,3_0_2_0_0_0,NA,NA,skipped,NA,462152.89999962,NA,NA,462108.5,462153,2023-03-26T07:35:48Z,462168.11,NULL,Vermutung,udhanifu,s,haramia,tikisho,itifaki,NA,sdf,NA,2,NA,NA,NA,NA,NA,NA,NA,NA,NA,NA,NA,NA,NA,NA,NA,NA,NA,NA,NA
29178,Shallow Question,html.Page,3_0_2_0_0_1_0,NA,NA,form submission,4332.090000763,462153.70000076003,462151.422,462168.11,466500.20000076003,466500.5,2023-03-26T07:35:53Z,466514.55,NULL,Vermutung,udhanifu,s,haramia,tikisho,itifaki,udhanifu,NA,NA,2,NA,NA,NA,NA,NA,NA,NA,NA,NA,NA,NA,NA,NA,NA,NA,NA,NA,NA,NA
29178,"""Richtig""-Screen",canvas.Screen,3_0_2_0_0_1_1,NA,NA,timeout,4996.019,466502.39999962,466498.15,466514.55,471493.891,471494.60000038,2023-03-26T07:35:58Z,471510.569,NULL,Vermutung,udhanifu,s,haramia,tikisho,itifaki,NA,sdf,1,2,NA,NA,NA,NA,NA,NA,NA,NA,NA,NA,NA,NA,NA,NA,NA,NA,NA,NA,NA
29178,"""Falsch""-Screen",canvas.Screen,3_0_2_0_0_1_2,NA,NA,skipped,NA,471498.70000076003,NA,NA,471493.891,471498.89999962,2023-03-26T07:35:58Z,471510.569,NULL,Vermutung,udhanifu,s,haramia,tikisho,itifaki,NA,sdf,NA,2,NA,NA,NA,NA,NA,NA,NA,NA,NA,NA,NA,NA,NA,NA,NA,NA,NA,NA,NA
29178,shallow,flow.Sequence,3_0_2_0_0_1,NA,NA,completion,9325.781,462153.60000038,462151.422,462168.11,471493.891,471499.20000076003,2023-03-26T07:35:58Z,471510.569,NULL,Vermutung,udhanifu,s,haramia,tikisho,itifaki,NA,sdf,NA,2,NA,NA,NA,NA,NA,NA,NA,NA,NA,NA,NA,NA,NA,NA,NA,NA,NA,NA,NA
29178,task,flow.Sequence,3_0_2_0_0,NA,NA,completion,9325.781,462152.89999962,462151.422,462168.11,471493.891,471499.39999962,2023-03-26T07:35:58Z,471510.569,NULL,Vermutung,udhanifu,s,haramia,tikisho,itifaki,NA,sdf,NA,2,NA,NA,NA,NA,NA,NA,NA,NA,NA,NA,NA,NA,NA,NA,NA,NA,NA,NA,NA
29178,Deep Question,html.Page,3_0_2_0_1_0_0,NA,NA,form submission,11576.330999619,471499.60000038,471493.891,471510.569,483086.89999962,483087,2023-03-26T07:36:09Z,483101.026,NULL,Annäherung,maegesho,d,NA,NA,NA,maegesho,NA,NA,2,NA,NA,NA,NA,NA,NA,NA,NA,NA,NA,NA,NA,NA,NA,NA,NA,NA,NA,NA
29178,"""Richtig""-Screen",canvas.Screen,3_0_2_0_1_0_1,NA,NA,timeout,4995.847,483089,483084.45,483101.026,488080.213,488080.60000038,2023-03-26T07:36:14Z,488096.873,NULL,Annäherung,maegesho,d,NA,NA,NA,NA,sdf,1,2,NA,NA,NA,NA,NA,NA,NA,NA,NA,NA,NA,NA,NA,NA,NA,NA,NA,NA,NA
29178,"""Falsch""-Screen",canvas.Screen,3_0_2_0_1_0_2,NA,NA,skipped,NA,488082.79999924,NA,NA,488080.213,488082.89999962,2023-03-26T07:36:14Z,488096.873,NULL,Annäherung,maegesho,d,NA,NA,NA,NA,sdf,NA,2,NA,NA,NA,NA,NA,NA,NA,NA,NA,NA,NA,NA,NA,NA,NA,NA,NA,NA,NA
29178,deep,flow.Sequence,3_0_2_0_1_0,NA,NA,completion,16569.644,471499.60000038,471493.891,471510.569,488080.213,488083.10000038,2023-03-26T07:36:14Z,488096.873,NULL,Annäherung,maegesho,d,NA,NA,NA,NA,sdf,NA,2,NA,NA,NA,NA,NA,NA,NA,NA,NA,NA,NA,NA,NA,NA,NA,NA,NA,NA,NA
29178,shallow,flow.Sequence,3_0_2_0_1_1,NA,NA,skipped,NA,488083.20000076003,NA,NA,488080.213,488083.29999924,2023-03-26T07:36:14Z,488096.873,NULL,Annäherung,maegesho,d,NA,NA,NA,NA,sdf,NA,2,NA,NA,NA,NA,NA,NA,NA,NA,NA,NA,NA,NA,NA,NA,NA,NA,NA,NA,NA
29178,task,flow.Sequence,3_0_2_0_1,NA,NA,completion,16569.644,471499.60000038,471493.891,471510.569,488080.213,488083.39999962,2023-03-26T07:36:14Z,488096.873,NULL,Annäherung,maegesho,d,NA,NA,NA,NA,sdf,NA,2,NA,NA,NA,NA,NA,NA,NA,NA,NA,NA,NA,NA,NA,NA,NA,NA,NA,NA,NA
29178,deep,flow.Sequence,3_0_2_0_2_0,NA,NA,skipped,NA,488083.5,NA,NA,488080.213,488083.5,2023-03-26T07:36:14Z,488096.873,NULL,Inhalt,yaliyomo,s,kishawishi,hifadhi,kutembea,NA,sdf,NA,2,NA,NA,NA,NA,NA,NA,NA,NA,NA,NA,NA,NA,NA,NA,NA,NA,NA,NA,NA
29178,Shallow Question,html.Page,3_0_2_0_2_1_0,NA,NA,form submission,6666.127,488083.60000038,488080.213,488096.873,494763,494763.20000076003,2023-03-26T07:36:21Z,494774.837,NULL,Inhalt,yaliyomo,s,kishawishi,hifadhi,kutembea,yaliyomo,NA,NA,2,NA,NA,NA,NA,NA,NA,NA,NA,NA,NA,NA,NA,NA,NA,NA,NA,NA,NA,NA
29178,"""Richtig""-Screen",canvas.Screen,3_0_2_0_2_1_1,NA,NA,timeout,4995.76,494764.79999923997,494758.202,494774.837,499753.97,499754.29999924,2023-03-26T07:36:26Z,499770.597,NULL,Inhalt,yaliyomo,s,kishawishi,hifadhi,kutembea,NA,sdf,1,2,NA,NA,NA,NA,NA,NA,NA,NA,NA,NA,NA,NA,NA,NA,NA,NA,NA,NA,NA
29178,"""Falsch""-Screen",canvas.Screen,3_0_2_0_2_1_2,NA,NA,skipped,NA,499756.60000038,NA,NA,499753.97,499756.70000076003,2023-03-26T07:36:26Z,499770.597,NULL,Inhalt,yaliyomo,s,kishawishi,hifadhi,kutembea,NA,sdf,NA,2,NA,NA,NA,NA,NA,NA,NA,NA,NA,NA,NA,NA,NA,NA,NA,NA,NA,NA,NA
29178,shallow,flow.Sequence,3_0_2_0_2_1,NA,NA,completion,11657.097,488083.60000038,488080.213,488096.873,499753.97,499756.89999962,2023-03-26T07:36:26Z,499770.597,NULL,Inhalt,yaliyomo,s,kishawishi,hifadhi,kutembea,NA,sdf,NA,2,NA,NA,NA,NA,NA,NA,NA,NA,NA,NA,NA,NA,NA,NA,NA,NA,NA,NA,NA
29178,task,flow.Sequence,3_0_2_0_2,NA,NA,completion,11657.097,488083.39999962,488080.213,488096.873,499753.97,499757,2023-03-26T07:36:26Z,499770.597,NULL,Inhalt,yaliyomo,s,kishawishi,hifadhi,kutembea,NA,sdf,NA,2,NA,NA,NA,NA,NA,NA,NA,NA,NA,NA,NA,NA,NA,NA,NA,NA,NA,NA,NA
29178,deep,flow.Sequence,3_0_2_0_3_0,NA,NA,skipped,NA,499757.10000038,NA,NA,499753.97,499757.10000038,2023-03-26T07:36:26Z,499770.597,NULL,Polizist,msongora,s,simanzi,mandhari,nidhamu,NA,sdf,NA,2,NA,NA,NA,NA,NA,NA,NA,NA,NA,NA,NA,NA,NA,NA,NA,NA,NA,NA,NA
29178,Shallow Question,html.Page,3_0_2_0_3_1_0,NA,NA,form submission,4791.1030007629,499757.29999924,499753.97,499770.597,504561.70000076003,504562,2023-03-26T07:36:31Z,504566.665,NULL,Polizist,msongora,s,simanzi,mandhari,nidhamu,msongora,NA,NA,2,NA,NA,NA,NA,NA,NA,NA,NA,NA,NA,NA,NA,NA,NA,NA,NA,NA,NA,NA
29178,"""Richtig""-Screen",canvas.Screen,3_0_2_0_3_1_1,NA,NA,timeout,4996.241,504564.70000076003,504550.019,504566.665,509545.963,509546.39999962,2023-03-26T07:36:36Z,509562.906,NULL,Polizist,msongora,s,simanzi,mandhari,nidhamu,NA,sdf,1,2,NA,NA,NA,NA,NA,NA,NA,NA,NA,NA,NA,NA,NA,NA,NA,NA,NA,NA,NA
29178,"""Falsch""-Screen",canvas.Screen,3_0_2_0_3_1_2,NA,NA,skipped,NA,509548.60000038,NA,NA,509545.963,509548.70000076003,2023-03-26T07:36:36Z,509562.906,NULL,Polizist,msongora,s,simanzi,mandhari,nidhamu,NA,sdf,NA,2,NA,NA,NA,NA,NA,NA,NA,NA,NA,NA,NA,NA,NA,NA,NA,NA,NA,NA,NA
29178,shallow,flow.Sequence,3_0_2_0_3_1,NA,NA,completion,9775.366,499757.20000076003,499753.97,499770.597,509545.963,509548.89999962,2023-03-26T07:36:36Z,509562.906,NULL,Polizist,msongora,s,simanzi,mandhari,nidhamu,NA,sdf,NA,2,NA,NA,NA,NA,NA,NA,NA,NA,NA,NA,NA,NA,NA,NA,NA,NA,NA,NA,NA
29178,task,flow.Sequence,3_0_2_0_3,NA,NA,completion,9775.366,499757.10000038,499753.97,499770.597,509545.963,509549,2023-03-26T07:36:36Z,509562.906,NULL,Polizist,msongora,s,simanzi,mandhari,nidhamu,NA,sdf,NA,2,NA,NA,NA,NA,NA,NA,NA,NA,NA,NA,NA,NA,NA,NA,NA,NA,NA,NA,NA
29178,Deep Question,html.Page,3_0_2_0_4_0_0,NA,NA,form submission,6048.4939996185,509549.10000038,509545.963,509562.906,515611.39999962,515611.60000038,2023-03-26T07:36:42Z,515624.257,NULL,Sympathie,mapendano,d,NA,NA,NA,meadhena,NA,NA,2,NA,NA,NA,NA,NA,NA,NA,NA,NA,NA,NA,NA,NA,NA,NA,NA,NA,NA,NA
29178,"""Richtig""-Screen",canvas.Screen,3_0_2_0_4_0_1,NA,NA,skipped,NA,515613.5,NA,NA,515611.39999962,515613.70000076003,2023-03-26T07:36:42Z,515624.257,NULL,Sympathie,mapendano,d,NA,NA,NA,NA,sdf,NA,2,NA,NA,NA,NA,NA,NA,NA,NA,NA,NA,NA,NA,NA,NA,NA,NA,NA,NA,NA
29178,"""Falsch""-Screen",canvas.Screen,3_0_2_0_4_0_2,NA,NA,timeout,4995.937,515614.70000076003,515607.61,515624.257,520603.537,520603.89999962,2023-03-26T07:36:47Z,520620.194,NULL,Sympathie,mapendano,d,NA,NA,NA,NA,sdf,0,2,NA,NA,NA,NA,NA,NA,NA,NA,NA,NA,NA,NA,NA,NA,NA,NA,NA,NA,NA
29178,deep,flow.Sequence,3_0_2_0_4_0,NA,NA,completion,11040.631,509549,509545.963,509562.906,520603.537,520604.10000038,2023-03-26T07:36:47Z,520620.194,NULL,Sympathie,mapendano,d,NA,NA,NA,NA,sdf,NA,2,NA,NA,NA,NA,NA,NA,NA,NA,NA,NA,NA,NA,NA,NA,NA,NA,NA,NA,NA
29178,shallow,flow.Sequence,3_0_2_0_4_1,NA,NA,skipped,NA,520604.20000076003,NA,NA,520603.537,520604.39999962,2023-03-26T07:36:47Z,520620.194,NULL,Sympathie,mapendano,d,NA,NA,NA,NA,sdf,NA,2,NA,NA,NA,NA,NA,NA,NA,NA,NA,NA,NA,NA,NA,NA,NA,NA,NA,NA,NA
29178,task,flow.Sequence,3_0_2_0_4,NA,NA,completion,11040.631,509549,509545.963,509562.906,520603.537,520604.39999962,2023-03-26T07:36:47Z,520620.194,NULL,Sympathie,mapendano,d,NA,NA,NA,NA,sdf,NA,2,NA,NA,NA,NA,NA,NA,NA,NA,NA,NA,NA,NA,NA,NA,NA,NA,NA,NA,NA
29178,Deep Question,html.Page,3_0_2_0_5_0_0,NA,NA,form submission,15169.506000763,520604.60000038,520603.537,520620.194,535789.70000076,535789.89999962,2023-03-26T07:37:02Z,535791.057,NULL,Toleranz,kuvumiliana,d,NA,NA,NA,ukuviliali,NA,NA,2,NA,NA,NA,NA,NA,NA,NA,NA,NA,NA,NA,NA,NA,NA,NA,NA,NA,NA,NA
29178,"""Richtig""-Screen",canvas.Screen,3_0_2_0_5_0_1,NA,NA,skipped,NA,535792.70000076,NA,NA,535789.70000076,535792.79999924,2023-03-26T07:37:02Z,535791.057,NULL,Toleranz,kuvumiliana,d,NA,NA,NA,NA,sdf,NA,2,NA,NA,NA,NA,NA,NA,NA,NA,NA,NA,NA,NA,NA,NA,NA,NA,NA,NA,NA
29178,"""Falsch""-Screen",canvas.Screen,3_0_2_0_5_0_2,NA,NA,timeout,4995.9299999999,535793.79999924,535774.52,535791.057,540770.33,540770.79999924,2023-03-26T07:37:07Z,540786.987,NULL,Toleranz,kuvumiliana,d,NA,NA,NA,NA,sdf,0,2,NA,NA,NA,NA,NA,NA,NA,NA,NA,NA,NA,NA,NA,NA,NA,NA,NA,NA,NA
29178,deep,flow.Sequence,3_0_2_0_5_0,NA,NA,completion,20150.136,520604.60000038,520603.537,520620.194,540770.33,540770.89999962,2023-03-26T07:37:07Z,540786.987,NULL,Toleranz,kuvumiliana,d,NA,NA,NA,NA,sdf,NA,2,NA,NA,NA,NA,NA,NA,NA,NA,NA,NA,NA,NA,NA,NA,NA,NA,NA,NA,NA
29178,shallow,flow.Sequence,3_0_2_0_5_1,NA,NA,skipped,NA,540771.10000038,NA,NA,540770.33,540771.20000076,2023-03-26T07:37:07Z,540786.987,NULL,Toleranz,kuvumiliana,d,NA,NA,NA,NA,sdf,NA,2,NA,NA,NA,NA,NA,NA,NA,NA,NA,NA,NA,NA,NA,NA,NA,NA,NA,NA,NA
29178,task,flow.Sequence,3_0_2_0_5,NA,NA,completion,20150.136,520604.5,520603.537,520620.194,540770.33,540771.20000076,2023-03-26T07:37:07Z,540786.987,NULL,Toleranz,kuvumiliana,d,NA,NA,NA,NA,sdf,NA,2,NA,NA,NA,NA,NA,NA,NA,NA,NA,NA,NA,NA,NA,NA,NA,NA,NA,NA,NA
29178,deep,flow.Sequence,3_0_2_0_6_0,NA,NA,skipped,NA,540771.29999924,NA,NA,540770.33,540771.39999962,2023-03-26T07:37:07Z,540786.987,NULL,Beweis,ushahidi,s,marudio,kizuizi,mtendaji,NA,sdf,NA,2,NA,NA,NA,NA,NA,NA,NA,NA,NA,NA,NA,NA,NA,NA,NA,NA,NA,NA,NA
29178,Shallow Question,html.Page,3_0_2_0_6_1_0,NA,NA,form submission,4259.013,540771.5,540770.33,540786.987,545046,545046.29999924,2023-03-26T07:37:11Z,545050.132,NULL,Beweis,ushahidi,s,marudio,kizuizi,mtendaji,ushahidi,NA,NA,2,NA,NA,NA,NA,NA,NA,NA,NA,NA,NA,NA,NA,NA,NA,NA,NA,NA,NA,NA
29178,"""Richtig""-Screen",canvas.Screen,3_0_2_0_6_1_1,NA,NA,timeout,4995.92,545048.10000038,545033.679,545050.132,550029.875,550030.39999962,2023-03-26T07:37:16Z,550046.052,NULL,Beweis,ushahidi,s,marudio,kizuizi,mtendaji,NA,sdf,1,2,NA,NA,NA,NA,NA,NA,NA,NA,NA,NA,NA,NA,NA,NA,NA,NA,NA,NA,NA
29178,"""Falsch""-Screen",canvas.Screen,3_0_2_0_6_1_2,NA,NA,skipped,NA,550032.89999962,NA,NA,550029.875,550033.10000038,2023-03-26T07:37:16Z,550046.052,NULL,Beweis,ushahidi,s,marudio,kizuizi,mtendaji,NA,sdf,NA,2,NA,NA,NA,NA,NA,NA,NA,NA,NA,NA,NA,NA,NA,NA,NA,NA,NA,NA,NA
29178,shallow,flow.Sequence,3_0_2_0_6_1,NA,NA,completion,9242.888,540771.5,540770.33,540786.987,550029.875,550033.29999924,2023-03-26T07:37:16Z,550046.052,NULL,Beweis,ushahidi,s,marudio,kizuizi,mtendaji,NA,sdf,NA,2,NA,NA,NA,NA,NA,NA,NA,NA,NA,NA,NA,NA,NA,NA,NA,NA,NA,NA,NA
29178,task,flow.Sequence,3_0_2_0_6,NA,NA,completion,9242.888,540771.29999924,540770.33,540786.987,550029.875,550033.5,2023-03-26T07:37:16Z,550046.052,NULL,Beweis,ushahidi,s,marudio,kizuizi,mtendaji,NA,sdf,NA,2,NA,NA,NA,NA,NA,NA,NA,NA,NA,NA,NA,NA,NA,NA,NA,NA,NA,NA,NA
29178,Deep Question,html.Page,3_0_2_0_7_0_0,NA,NA,form submission,4326.247999237,550033.60000038,550029.875,550046.052,554372.29999924,554372.5,2023-03-26T07:37:20Z,554375.82,NULL,Schlange,foleni,d,NA,NA,NA,foleni,NA,NA,2,NA,NA,NA,NA,NA,NA,NA,NA,NA,NA,NA,NA,NA,NA,NA,NA,NA,NA,NA
29178,"""Richtig""-Screen",canvas.Screen,3_0_2_0_7_0_1,NA,NA,timeout,4996.17,554374.79999924,554359.203,554375.82,559355.137,559355.79999924,2023-03-26T07:37:25Z,559371.99,NULL,Schlange,foleni,d,NA,NA,NA,NA,sdf,1,2,NA,NA,NA,NA,NA,NA,NA,NA,NA,NA,NA,NA,NA,NA,NA,NA,NA,NA,NA
29178,"""Falsch""-Screen",canvas.Screen,3_0_2_0_7_0_2,NA,NA,skipped,NA,559358.70000076,NA,NA,559355.137,559359,2023-03-26T07:37:25Z,559371.99,NULL,Schlange,foleni,d,NA,NA,NA,NA,sdf,NA,2,NA,NA,NA,NA,NA,NA,NA,NA,NA,NA,NA,NA,NA,NA,NA,NA,NA,NA,NA
29178,deep,flow.Sequence,3_0_2_0_7_0,NA,NA,completion,9309.085,550033.5,550029.875,550046.052,559355.137,559359.10000038,2023-03-26T07:37:25Z,559371.99,NULL,Schlange,foleni,d,NA,NA,NA,NA,sdf,NA,2,NA,NA,NA,NA,NA,NA,NA,NA,NA,NA,NA,NA,NA,NA,NA,NA,NA,NA,NA
29178,shallow,flow.Sequence,3_0_2_0_7_1,NA,NA,skipped,NA,559359.20000076,NA,NA,559355.137,559359.29999924,2023-03-26T07:37:25Z,559371.99,NULL,Schlange,foleni,d,NA,NA,NA,NA,sdf,NA,2,NA,NA,NA,NA,NA,NA,NA,NA,NA,NA,NA,NA,NA,NA,NA,NA,NA,NA,NA
29178,task,flow.Sequence,3_0_2_0_7,NA,NA,completion,9309.085,550033.5,550029.875,550046.052,559355.137,559359.5,2023-03-26T07:37:25Z,559371.99,NULL,Schlange,foleni,d,NA,NA,NA,NA,sdf,NA,2,NA,NA,NA,NA,NA,NA,NA,NA,NA,NA,NA,NA,NA,NA,NA,NA,NA,NA,NA
29178,block,flow.Loop,3_0_2_0,NA,NA,completion,97187.027,462152.89999962,462151.422,462168.11,559355.137,559359.60000038,2023-03-26T07:37:25Z,559371.99,NULL,NA,NA,NA,NA,NA,NA,NA,sdf,NA,2,NA,NA,NA,NA,NA,NA,NA,NA,NA,NA,NA,NA,NA,NA,NA,NA,NA,NA,NA
29178,weiter,canvas.Screen,3_0_2_1,sdf,keypress(Space),response,1312.2100007629,559359.70000076,559355.137,559371.99,560684.20000076,560684.60000038,2023-03-26T07:37:27Z,560720.611,NULL,NA,NA,NA,NA,NA,NA,NA,sdf,NA,2,NA,NA,NA,NA,NA,NA,NA,NA,NA,NA,NA,NA,NA,NA,NA,NA,NA,NA,NA
29178,check continue,flow.Sequence,3_0_2,NA,NA,completion,98516.090000763,462152.79999924,462151.422,462168.11,560684.20000076,560684.79999924,2023-03-26T07:37:27Z,560720.611,NULL,NA,NA,NA,NA,NA,NA,NA,sdf,NA,2,NA,NA,NA,NA,NA,NA,NA,NA,NA,NA,NA,NA,NA,NA,NA,NA,NA,NA,NA
29178,deep,flow.Sequence,3_0_3_0_0_0,NA,NA,skipped,NA,560715.60000038,NA,NA,560684.20000076,560715.70000076,2023-03-26T07:37:27Z,560720.611,NULL,Polizist,msongora,s,simanzi,mandhari,nidhamu,NA,qt,NA,3,NA,NA,NA,NA,NA,NA,NA,NA,NA,NA,NA,NA,NA,NA,NA,NA,NA,NA,NA
29178,Shallow Question,html.Page,3_0_3_0_0_1_0,NA,NA,form submission,3847.389,560715.79999924,560703.915,560720.611,564568,564568.10000038,2023-03-26T07:37:31Z,564584.467,NULL,Polizist,msongora,s,simanzi,mandhari,nidhamu,msongora,NA,NA,3,NA,NA,NA,NA,NA,NA,NA,NA,NA,NA,NA,NA,NA,NA,NA,NA,NA,NA,NA
29178,"""Richtig""-Screen",canvas.Screen,3_0_3_0_0_1_1,NA,NA,timeout,4995.5680000001,564569.79999924,564551.3,564584.467,569563.378,569563.70000076,2023-03-26T07:37:36Z,569580.035,NULL,Polizist,msongora,s,simanzi,mandhari,nidhamu,NA,qt,1,3,NA,NA,NA,NA,NA,NA,NA,NA,NA,NA,NA,NA,NA,NA,NA,NA,NA,NA,NA
29178,"""Falsch""-Screen",canvas.Screen,3_0_3_0_0_1_2,NA,NA,skipped,NA,569566,NA,NA,569563.378,569566.20000076,2023-03-26T07:37:36Z,569580.035,NULL,Polizist,msongora,s,simanzi,mandhari,nidhamu,NA,qt,NA,3,NA,NA,NA,NA,NA,NA,NA,NA,NA,NA,NA,NA,NA,NA,NA,NA,NA,NA,NA
29178,shallow,flow.Sequence,3_0_3_0_0_1,NA,NA,completion,8842.767,560715.79999924,560703.915,560720.611,569563.378,569566.39999962,2023-03-26T07:37:36Z,569580.035,NULL,Polizist,msongora,s,simanzi,mandhari,nidhamu,NA,qt,NA,3,NA,NA,NA,NA,NA,NA,NA,NA,NA,NA,NA,NA,NA,NA,NA,NA,NA,NA,NA
29178,task,flow.Sequence,3_0_3_0_0,NA,NA,completion,8842.767,560715.60000038,560703.915,560720.611,569563.378,569566.5,2023-03-26T07:37:36Z,569580.035,NULL,Polizist,msongora,s,simanzi,mandhari,nidhamu,NA,qt,NA,3,NA,NA,NA,NA,NA,NA,NA,NA,NA,NA,NA,NA,NA,NA,NA,NA,NA,NA,NA
29178,deep,flow.Sequence,3_0_3_0_1_0,NA,NA,skipped,NA,569566.60000038,NA,NA,569563.378,569566.70000076,2023-03-26T07:37:36Z,569580.035,NULL,Inhalt,yaliyomo,s,kishawishi,hifadhi,kutembea,NA,qt,NA,3,NA,NA,NA,NA,NA,NA,NA,NA,NA,NA,NA,NA,NA,NA,NA,NA,NA,NA,NA
29178,Shallow Question,html.Page,3_0_3_0_1_1_0,NA,NA,form submission,4031.264999237,569566.79999924,569563.378,569580.035,573611.29999924,573611.5,2023-03-26T07:37:40Z,573626.718,NULL,Inhalt,yaliyomo,s,kishawishi,hifadhi,kutembea,yaliyomo,NA,NA,3,NA,NA,NA,NA,NA,NA,NA,NA,NA,NA,NA,NA,NA,NA,NA,NA,NA,NA,NA
29178,"""Richtig""-Screen",canvas.Screen,3_0_3_0_1_1_1,NA,NA,timeout,4995.914,573613,573610.049,573626.718,578606.232,578606.5,2023-03-26T07:37:45Z,578622.632,NULL,Inhalt,yaliyomo,s,kishawishi,hifadhi,kutembea,NA,qt,1,3,NA,NA,NA,NA,NA,NA,NA,NA,NA,NA,NA,NA,NA,NA,NA,NA,NA,NA,NA
29178,"""Falsch""-Screen",canvas.Screen,3_0_3_0_1_1_2,NA,NA,skipped,NA,578608.10000038,NA,NA,578606.232,578608.29999924,2023-03-26T07:37:45Z,578622.632,NULL,Inhalt,yaliyomo,s,kishawishi,hifadhi,kutembea,NA,qt,NA,3,NA,NA,NA,NA,NA,NA,NA,NA,NA,NA,NA,NA,NA,NA,NA,NA,NA,NA,NA
29178,shallow,flow.Sequence,3_0_3_0_1_1,NA,NA,completion,9026.1969999999,569566.70000076,569563.378,569580.035,578606.232,578608.39999962,2023-03-26T07:37:45Z,578622.632,NULL,Inhalt,yaliyomo,s,kishawishi,hifadhi,kutembea,NA,qt,NA,3,NA,NA,NA,NA,NA,NA,NA,NA,NA,NA,NA,NA,NA,NA,NA,NA,NA,NA,NA
29178,task,flow.Sequence,3_0_3_0_1,NA,NA,completion,9026.1969999999,569566.60000038,569563.378,569580.035,578606.232,578608.5,2023-03-26T07:37:45Z,578622.632,NULL,Inhalt,yaliyomo,s,kishawishi,hifadhi,kutembea,NA,qt,NA,3,NA,NA,NA,NA,NA,NA,NA,NA,NA,NA,NA,NA,NA,NA,NA,NA,NA,NA,NA
29178,Deep Question,html.Page,3_0_3_0_2_0_0,NA,NA,form submission,6659.7679996185,578608.5,578606.232,578622.632,585282.39999962,585282.60000038,2023-03-26T07:37:51Z,585283.79,NULL,Sympathie,mapendano,d,NA,NA,NA,maedesha,NA,NA,3,NA,NA,NA,NA,NA,NA,NA,NA,NA,NA,NA,NA,NA,NA,NA,NA,NA,NA,NA
29178,"""Richtig""-Screen",canvas.Screen,3_0_3_0_2_0_1,NA,NA,skipped,NA,585284.89999962,NA,NA,585282.39999962,585285,2023-03-26T07:37:51Z,585283.79,NULL,Sympathie,mapendano,d,NA,NA,NA,NA,qt,NA,3,NA,NA,NA,NA,NA,NA,NA,NA,NA,NA,NA,NA,NA,NA,NA,NA,NA,NA,NA
29178,"""Falsch""-Screen",canvas.Screen,3_0_3_0_2_0_2,NA,NA,timeout,4995.933,585285.70000076,585267.286,585283.79,590263.072,590263.5,2023-03-26T07:37:56Z,590279.723,NULL,Sympathie,mapendano,d,NA,NA,NA,NA,qt,0,3,NA,NA,NA,NA,NA,NA,NA,NA,NA,NA,NA,NA,NA,NA,NA,NA,NA,NA,NA
29178,deep,flow.Sequence,3_0_3_0_2_0,NA,NA,completion,11640.44,578608.5,578606.232,578622.632,590263.072,590263.70000076,2023-03-26T07:37:56Z,590279.723,NULL,Sympathie,mapendano,d,NA,NA,NA,NA,qt,NA,3,NA,NA,NA,NA,NA,NA,NA,NA,NA,NA,NA,NA,NA,NA,NA,NA,NA,NA,NA
29178,shallow,flow.Sequence,3_0_3_0_2_1,NA,NA,skipped,NA,590263.70000076,NA,NA,590263.072,590263.89999962,2023-03-26T07:37:56Z,590279.723,NULL,Sympathie,mapendano,d,NA,NA,NA,NA,qt,NA,3,NA,NA,NA,NA,NA,NA,NA,NA,NA,NA,NA,NA,NA,NA,NA,NA,NA,NA,NA
29178,task,flow.Sequence,3_0_3_0_2,NA,NA,completion,11640.44,578608.5,578606.232,578622.632,590263.072,590264.60000038,2023-03-26T07:37:56Z,590279.723,NULL,Sympathie,mapendano,d,NA,NA,NA,NA,qt,NA,3,NA,NA,NA,NA,NA,NA,NA,NA,NA,NA,NA,NA,NA,NA,NA,NA,NA,NA,NA
29178,Deep Question,html.Page,3_0_3_0_3_0_0,NA,NA,form submission,9552.8770003815,590264.79999924,590263.072,590279.723,599832.60000038,599832.89999962,2023-03-26T07:38:06Z,599838.525,NULL,Schlange,foleni,d,NA,NA,NA,foleni,NA,NA,3,NA,NA,NA,NA,NA,NA,NA,NA,NA,NA,NA,NA,NA,NA,NA,NA,NA,NA,NA
29178,"""Richtig""-Screen",canvas.Screen,3_0_3_0_3_0_1,NA,NA,timeout,4995.927,599835.29999924,599821.888,599838.525,604817.814,604818.39999962,2023-03-26T07:38:11Z,604834.452,NULL,Schlange,foleni,d,NA,NA,NA,NA,qt,1,3,NA,NA,NA,NA,NA,NA,NA,NA,NA,NA,NA,NA,NA,NA,NA,NA,NA,NA,NA
29178,"""Falsch""-Screen",canvas.Screen,3_0_3_0_3_0_2,NA,NA,skipped,NA,604820.10000038,NA,NA,604817.814,604820.29999924,2023-03-26T07:38:11Z,604834.452,NULL,Schlange,foleni,d,NA,NA,NA,NA,qt,NA,3,NA,NA,NA,NA,NA,NA,NA,NA,NA,NA,NA,NA,NA,NA,NA,NA,NA,NA,NA
29178,deep,flow.Sequence,3_0_3_0_3_0,NA,NA,completion,14538.091,590264.70000076,590263.072,590279.723,604817.814,604820.39999962,2023-03-26T07:38:11Z,604834.452,NULL,Schlange,foleni,d,NA,NA,NA,NA,qt,NA,3,NA,NA,NA,NA,NA,NA,NA,NA,NA,NA,NA,NA,NA,NA,NA,NA,NA,NA,NA
29178,shallow,flow.Sequence,3_0_3_0_3_1,NA,NA,skipped,NA,604820.5,NA,NA,604817.814,604820.5,2023-03-26T07:38:11Z,604834.452,NULL,Schlange,foleni,d,NA,NA,NA,NA,qt,NA,3,NA,NA,NA,NA,NA,NA,NA,NA,NA,NA,NA,NA,NA,NA,NA,NA,NA,NA,NA
29178,task,flow.Sequence,3_0_3_0_3,NA,NA,completion,14538.091,590264.70000076,590263.072,590279.723,604817.814,604820.60000038,2023-03-26T07:38:11Z,604834.452,NULL,Schlange,foleni,d,NA,NA,NA,NA,qt,NA,3,NA,NA,NA,NA,NA,NA,NA,NA,NA,NA,NA,NA,NA,NA,NA,NA,NA,NA,NA
29178,deep,flow.Sequence,3_0_3_0_4_0,NA,NA,skipped,NA,604820.60000038,NA,NA,604817.814,604820.70000076,2023-03-26T07:38:11Z,604834.452,NULL,Beweis,ushahidi,s,marudio,kizuizi,mtendaji,NA,qt,NA,3,NA,NA,NA,NA,NA,NA,NA,NA,NA,NA,NA,NA,NA,NA,NA,NA,NA,NA,NA
29178,Shallow Question,html.Page,3_0_3_0_4_1_0,NA,NA,form submission,3981.1480003814,604820.89999962,604817.814,604834.452,608815.60000038,608815.79999924,2023-03-26T07:38:15Z,608831.176,NULL,Beweis,ushahidi,s,marudio,kizuizi,mtendaji,ushahidi,NA,NA,3,NA,NA,NA,NA,NA,NA,NA,NA,NA,NA,NA,NA,NA,NA,NA,NA,NA,NA,NA
29178,"""Richtig""-Screen",canvas.Screen,3_0_3_0_4_1_1,NA,NA,timeout,4995.895,608817.39999962,608798.606,608831.176,613810.402,613810.79999924,2023-03-26T07:38:20Z,613827.071,NULL,Beweis,ushahidi,s,marudio,kizuizi,mtendaji,NA,qt,1,3,NA,NA,NA,NA,NA,NA,NA,NA,NA,NA,NA,NA,NA,NA,NA,NA,NA,NA,NA
29178,"""Falsch""-Screen",canvas.Screen,3_0_3_0_4_1_2,NA,NA,skipped,NA,613812.5,NA,NA,613810.402,613812.79999924,2023-03-26T07:38:20Z,613827.071,NULL,Beweis,ushahidi,s,marudio,kizuizi,mtendaji,NA,qt,NA,3,NA,NA,NA,NA,NA,NA,NA,NA,NA,NA,NA,NA,NA,NA,NA,NA,NA,NA,NA
29178,shallow,flow.Sequence,3_0_3_0_4_1,NA,NA,completion,8975.95,604820.79999924,604817.814,604834.452,613810.402,613812.89999962,2023-03-26T07:38:20Z,613827.071,NULL,Beweis,ushahidi,s,marudio,kizuizi,mtendaji,NA,qt,NA,3,NA,NA,NA,NA,NA,NA,NA,NA,NA,NA,NA,NA,NA,NA,NA,NA,NA,NA,NA
29178,task,flow.Sequence,3_0_3_0_4,NA,NA,completion,8975.95,604820.60000038,604817.814,604834.452,613810.402,613813,2023-03-26T07:38:20Z,613827.071,NULL,Beweis,ushahidi,s,marudio,kizuizi,mtendaji,NA,qt,NA,3,NA,NA,NA,NA,NA,NA,NA,NA,NA,NA,NA,NA,NA,NA,NA,NA,NA,NA,NA
29178,Deep Question,html.Page,3_0_3_0_5_0_0,NA,NA,form submission,7327.3289996185,613813,613810.402,613827.071,621154.39999962,621154.60000038,2023-03-26T07:38:27Z,621172.481,NULL,Toleranz,kuvumiliana,d,NA,NA,NA,kuvuliali,NA,NA,3,NA,NA,NA,NA,NA,NA,NA,NA,NA,NA,NA,NA,NA,NA,NA,NA,NA,NA,NA
29178,"""Richtig""-Screen",canvas.Screen,3_0_3_0_5_0_1,NA,NA,skipped,NA,621157.29999924,NA,NA,621154.39999962,621157.5,2023-03-26T07:38:27Z,621172.481,NULL,Toleranz,kuvumiliana,d,NA,NA,NA,NA,qt,NA,3,NA,NA,NA,NA,NA,NA,NA,NA,NA,NA,NA,NA,NA,NA,NA,NA,NA,NA,NA
29178,"""Falsch""-Screen",canvas.Screen,3_0_3_0_5_0_2,NA,NA,timeout,4994.487,621158.60000038,621137.927,621172.481,626150.55,626151.10000038,2023-03-26T07:38:32Z,626166.968,NULL,Toleranz,kuvumiliana,d,NA,NA,NA,NA,qt,0,3,NA,NA,NA,NA,NA,NA,NA,NA,NA,NA,NA,NA,NA,NA,NA,NA,NA,NA,NA
29178,deep,flow.Sequence,3_0_3_0_5_0,NA,NA,completion,12323.479,613813,613810.402,613827.071,626150.55,626151.29999924,2023-03-26T07:38:32Z,626166.968,NULL,Toleranz,kuvumiliana,d,NA,NA,NA,NA,qt,NA,3,NA,NA,NA,NA,NA,NA,NA,NA,NA,NA,NA,NA,NA,NA,NA,NA,NA,NA,NA
29178,shallow,flow.Sequence,3_0_3_0_5_1,NA,NA,skipped,NA,626151.5,NA,NA,626150.55,626151.60000038,2023-03-26T07:38:32Z,626166.968,NULL,Toleranz,kuvumiliana,d,NA,NA,NA,NA,qt,NA,3,NA,NA,NA,NA,NA,NA,NA,NA,NA,NA,NA,NA,NA,NA,NA,NA,NA,NA,NA
29178,task,flow.Sequence,3_0_3_0_5,NA,NA,completion,12323.479,613813,613810.402,613827.071,626150.55,626151.60000038,2023-03-26T07:38:32Z,626166.968,NULL,Toleranz,kuvumiliana,d,NA,NA,NA,NA,qt,NA,3,NA,NA,NA,NA,NA,NA,NA,NA,NA,NA,NA,NA,NA,NA,NA,NA,NA,NA,NA
29178,deep,flow.Sequence,3_0_3_0_6_0,NA,NA,skipped,NA,626152.29999924,NA,NA,626150.55,626152.39999962,2023-03-26T07:38:32Z,626166.968,NULL,Vermutung,udhanifu,s,haramia,tikisho,itifaki,NA,qt,NA,3,NA,NA,NA,NA,NA,NA,NA,NA,NA,NA,NA,NA,NA,NA,NA,NA,NA,NA,NA
29178,Shallow Question,html.Page,3_0_3_0_6_1_0,NA,NA,form submission,4032.9319996185,626152.39999962,626150.55,626166.968,630199.89999962,630200.20000076,2023-03-26T07:38:36Z,630213.652,NULL,Vermutung,udhanifu,s,haramia,tikisho,itifaki,udhanifu,NA,NA,3,NA,NA,NA,NA,NA,NA,NA,NA,NA,NA,NA,NA,NA,NA,NA,NA,NA,NA,NA
29178,"""Richtig""-Screen",canvas.Screen,3_0_3_0_6_1_1,NA,NA,timeout,4995.885,630203,630196.933,630213.652,635192.891,635193.29999924,2023-03-26T07:38:41Z,635209.537,NULL,Vermutung,udhanifu,s,haramia,tikisho,itifaki,NA,qt,1,3,NA,NA,NA,NA,NA,NA,NA,NA,NA,NA,NA,NA,NA,NA,NA,NA,NA,NA,NA
29178,"""Falsch""-Screen",canvas.Screen,3_0_3_0_6_1_2,NA,NA,skipped,NA,635195.39999962,NA,NA,635192.891,635195.60000038,2023-03-26T07:38:41Z,635209.537,NULL,Vermutung,udhanifu,s,haramia,tikisho,itifaki,NA,qt,NA,3,NA,NA,NA,NA,NA,NA,NA,NA,NA,NA,NA,NA,NA,NA,NA,NA,NA,NA,NA
29178,shallow,flow.Sequence,3_0_3_0_6_1,NA,NA,completion,9025.923,626152.39999962,626150.55,626166.968,635192.891,635195.70000076,2023-03-26T07:38:41Z,635209.537,NULL,Vermutung,udhanifu,s,haramia,tikisho,itifaki,NA,qt,NA,3,NA,NA,NA,NA,NA,NA,NA,NA,NA,NA,NA,NA,NA,NA,NA,NA,NA,NA,NA
29178,task,flow.Sequence,3_0_3_0_6,NA,NA,completion,9025.923,626151.70000076,626150.55,626166.968,635192.891,635195.79999924,2023-03-26T07:38:41Z,635209.537,NULL,Vermutung,udhanifu,s,haramia,tikisho,itifaki,NA,qt,NA,3,NA,NA,NA,NA,NA,NA,NA,NA,NA,NA,NA,NA,NA,NA,NA,NA,NA,NA,NA
29178,Deep Question,html.Page,3_0_3_0_7_0_0,NA,NA,form submission,6913.1630007629,635196,635192.891,635209.537,642122.70000076,642122.89999962,2023-03-26T07:38:48Z,642137.263,NULL,Annäherung,maegesho,d,NA,NA,NA,maedesha,NA,NA,3,NA,NA,NA,NA,NA,NA,NA,NA,NA,NA,NA,NA,NA,NA,NA,NA,NA,NA,NA
29178,"""Richtig""-Screen",canvas.Screen,3_0_3_0_7_0_1,NA,NA,skipped,NA,642124.79999924,NA,NA,642122.70000076,642124.89999962,2023-03-26T07:38:48Z,642137.263,NULL,Annäherung,maegesho,d,NA,NA,NA,NA,qt,NA,3,NA,NA,NA,NA,NA,NA,NA,NA,NA,NA,NA,NA,NA,NA,NA,NA,NA,NA,NA
29178,"""Falsch""-Screen",canvas.Screen,3_0_3_0_7_0_2,NA,NA,timeout,4995.877,642125.79999924,642120.611,642137.263,647116.439,647116.79999924,2023-03-26T07:38:53Z,647133.14,NULL,Annäherung,maegesho,d,NA,NA,NA,NA,qt,0,3,NA,NA,NA,NA,NA,NA,NA,NA,NA,NA,NA,NA,NA,NA,NA,NA,NA,NA,NA
29178,deep,flow.Sequence,3_0_3_0_7_0,NA,NA,completion,11906.902,635196,635192.891,635209.537,647116.439,647117,2023-03-26T07:38:53Z,647133.14,NULL,Annäherung,maegesho,d,NA,NA,NA,NA,qt,NA,3,NA,NA,NA,NA,NA,NA,NA,NA,NA,NA,NA,NA,NA,NA,NA,NA,NA,NA,NA
29178,shallow,flow.Sequence,3_0_3_0_7_1,NA,NA,skipped,NA,647117.10000038,NA,NA,647116.439,647117.20000076,2023-03-26T07:38:53Z,647133.14,NULL,Annäherung,maegesho,d,NA,NA,NA,NA,qt,NA,3,NA,NA,NA,NA,NA,NA,NA,NA,NA,NA,NA,NA,NA,NA,NA,NA,NA,NA,NA
29178,task,flow.Sequence,3_0_3_0_7,NA,NA,completion,11906.902,635195.89999962,635192.891,635209.537,647116.439,647117.29999924,2023-03-26T07:38:53Z,647133.14,NULL,Annäherung,maegesho,d,NA,NA,NA,NA,qt,NA,3,NA,NA,NA,NA,NA,NA,NA,NA,NA,NA,NA,NA,NA,NA,NA,NA,NA,NA,NA
29178,block,flow.Loop,3_0_3_0,NA,NA,completion,86395.828,560715.60000038,560703.915,560720.611,647116.439,647117.39999962,2023-03-26T07:38:53Z,647133.14,NULL,NA,NA,NA,NA,NA,NA,NA,qt,NA,3,NA,NA,NA,NA,NA,NA,NA,NA,NA,NA,NA,NA,NA,NA,NA,NA,NA,NA,NA
29178,weiter,canvas.Screen,3_0_3_1,sdf,keypress(Space),response,1256.7599996185,647117.5,647116.439,647133.14,648389.89999962,648392.5,2023-03-26T07:38:54Z,649048.15,NULL,NA,NA,NA,NA,NA,NA,NA,qt,NA,3,NA,NA,NA,NA,NA,NA,NA,NA,NA,NA,NA,NA,NA,NA,NA,NA,NA,NA,NA
29178,check continue,flow.Sequence,3_0_3,NA,NA,completion,87669.288999618,560715.5,560703.915,560720.611,648389.89999962,648392.60000038,2023-03-26T07:38:54Z,649048.15,NULL,NA,NA,NA,NA,NA,NA,NA,qt,NA,3,NA,NA,NA,NA,NA,NA,NA,NA,NA,NA,NA,NA,NA,NA,NA,NA,NA,NA,NA
29178,check continue,flow.Sequence,3_0_4,NA,NA,skipped,NA,648435.29999924,NA,NA,648389.89999962,648435.39999962,2023-03-26T07:38:54Z,649048.15,NULL,NA,NA,NA,NA,NA,NA,NA,sd,NA,4,NA,NA,NA,NA,NA,NA,NA,NA,NA,NA,NA,NA,NA,NA,NA,NA,NA,NA,NA
29178,check continue,flow.Sequence,3_0_5,NA,NA,skipped,NA,648464.39999962,NA,NA,648389.89999962,648464.60000038,2023-03-26T07:38:54Z,649048.15,NULL,NA,NA,NA,NA,NA,NA,NA,sdf,NA,5,NA,NA,NA,NA,NA,NA,NA,NA,NA,NA,NA,NA,NA,NA,NA,NA,NA,NA,NA
29178,check continue,flow.Sequence,3_0_6,NA,NA,skipped,NA,648493.39999962,NA,NA,648389.89999962,648493.5,2023-03-26T07:38:54Z,649048.15,NULL,NA,NA,NA,NA,NA,NA,NA,dfs,NA,6,NA,NA,NA,NA,NA,NA,NA,NA,NA,NA,NA,NA,NA,NA,NA,NA,NA,NA,NA
29178,check continue,flow.Sequence,3_0_7,NA,NA,skipped,NA,648519.79999924,NA,NA,648389.89999962,648520,2023-03-26T07:38:55Z,649048.15,NULL,NA,NA,NA,NA,NA,NA,NA,df,NA,7,NA,NA,NA,NA,NA,NA,NA,NA,NA,NA,NA,NA,NA,NA,NA,NA,NA,NA,NA
29178,check continue,flow.Sequence,3_0_8,NA,NA,skipped,NA,648539.89999962,NA,NA,648389.89999962,648540,2023-03-26T07:38:55Z,649048.15,NULL,NA,NA,NA,NA,NA,NA,NA,dfs,NA,8,NA,NA,NA,NA,NA,NA,NA,NA,NA,NA,NA,NA,NA,NA,NA,NA,NA,NA,NA
29178,check continue,flow.Sequence,3_0_9,NA,NA,skipped,NA,648559.89999962,NA,NA,648389.89999962,648560.10000038,2023-03-26T07:38:55Z,649048.15,NULL,NA,NA,NA,NA,NA,NA,NA,dsf,NA,9,NA,NA,NA,NA,NA,NA,NA,NA,NA,NA,NA,NA,NA,NA,NA,NA,NA,NA,NA
29178,check continue,flow.Sequence,3_0_10,NA,NA,skipped,NA,648579.29999924,NA,NA,648389.89999962,648579.5,2023-03-26T07:38:55Z,649048.15,NULL,NA,NA,NA,NA,NA,NA,NA,df,NA,10,NA,NA,NA,NA,NA,NA,NA,NA,NA,NA,NA,NA,NA,NA,NA,NA,NA,NA,NA
29178,check continue,flow.Sequence,3_0_11,NA,NA,skipped,NA,648597.70000076,NA,NA,648389.89999962,648597.79999924,2023-03-26T07:38:55Z,649048.15,NULL,NA,NA,NA,NA,NA,NA,NA,dfs,NA,11,NA,NA,NA,NA,NA,NA,NA,NA,NA,NA,NA,NA,NA,NA,NA,NA,NA,NA,NA
29178,check continue,flow.Sequence,3_0_12,NA,NA,skipped,NA,648621.10000038,NA,NA,648389.89999962,648621.29999924,2023-03-26T07:38:55Z,649048.15,NULL,NA,NA,NA,NA,NA,NA,NA,dsf,NA,12,NA,NA,NA,NA,NA,NA,NA,NA,NA,NA,NA,NA,NA,NA,NA,NA,NA,NA,NA
29178,check continue,flow.Sequence,3_0_13,NA,NA,skipped,NA,648641.29999924,NA,NA,648389.89999962,648641.5,2023-03-26T07:38:55Z,649048.15,NULL,NA,NA,NA,NA,NA,NA,NA,dsf,NA,13,NA,NA,NA,NA,NA,NA,NA,NA,NA,NA,NA,NA,NA,NA,NA,NA,NA,NA,NA
29178,check continue,flow.Sequence,3_0_14,NA,NA,skipped,NA,648671.29999924,NA,NA,648389.89999962,648671.5,2023-03-26T07:38:55Z,649048.15,NULL,NA,NA,NA,NA,NA,NA,NA,NA,NA,14,NA,NA,NA,NA,NA,NA,NA,NA,NA,NA,NA,NA,NA,NA,NA,NA,NA,NA,NA
29178,check continue,flow.Sequence,3_0_15,NA,NA,skipped,NA,648702.89999962,NA,NA,648389.89999962,648703,2023-03-26T07:38:55Z,649048.15,NULL,NA,NA,NA,NA,NA,NA,NA,NA,NA,15,NA,NA,NA,NA,NA,NA,NA,NA,NA,NA,NA,NA,NA,NA,NA,NA,NA,NA,NA
29178,check continue,flow.Sequence,3_0_16,NA,NA,skipped,NA,648730.89999962,NA,NA,648389.89999962,648731.10000038,2023-03-26T07:38:55Z,649048.15,NULL,NA,NA,NA,NA,NA,NA,NA,NA,NA,16,NA,NA,NA,NA,NA,NA,NA,NA,NA,NA,NA,NA,NA,NA,NA,NA,NA,NA,NA
29178,check continue,flow.Sequence,3_0_17,NA,NA,skipped,NA,648757.5,NA,NA,648389.89999962,648757.60000038,2023-03-26T07:38:55Z,649048.15,NULL,NA,NA,NA,NA,NA,NA,NA,NA,NA,17,NA,NA,NA,NA,NA,NA,NA,NA,NA,NA,NA,NA,NA,NA,NA,NA,NA,NA,NA
29178,check continue,flow.Sequence,3_0_18,NA,NA,skipped,NA,648778.10000038,NA,NA,648389.89999962,648778.29999924,2023-03-26T07:38:55Z,649048.15,NULL,NA,NA,NA,NA,NA,NA,NA,NA,NA,18,NA,NA,NA,NA,NA,NA,NA,NA,NA,NA,NA,NA,NA,NA,NA,NA,NA,NA,NA
29178,check continue,flow.Sequence,3_0_19,NA,NA,skipped,NA,648798.39999962,NA,NA,648389.89999962,648798.5,2023-03-26T07:38:55Z,649048.15,NULL,NA,NA,NA,NA,NA,NA,NA,NA,NA,19,NA,NA,NA,NA,NA,NA,NA,NA,NA,NA,NA,NA,NA,NA,NA,NA,NA,NA,NA
29178,check continue,flow.Sequence,3_0_20,NA,NA,skipped,NA,648822.20000076,NA,NA,648389.89999962,648822.29999924,2023-03-26T07:38:55Z,649048.15,NULL,NA,NA,NA,NA,NA,NA,NA,NA,NA,20,NA,NA,NA,NA,NA,NA,NA,NA,NA,NA,NA,NA,NA,NA,NA,NA,NA,NA,NA
29178,check continue,flow.Sequence,3_0_21,NA,NA,skipped,NA,648841.89999962,NA,NA,648389.89999962,648842,2023-03-26T07:38:55Z,649048.15,NULL,NA,NA,NA,NA,NA,NA,NA,NA,NA,21,NA,NA,NA,NA,NA,NA,NA,NA,NA,NA,NA,NA,NA,NA,NA,NA,NA,NA,NA
29178,check continue,flow.Sequence,3_0_22,NA,NA,skipped,NA,648867,NA,NA,648389.89999962,648867.10000038,2023-03-26T07:38:55Z,649048.15,NULL,NA,NA,NA,NA,NA,NA,NA,NA,NA,22,NA,NA,NA,NA,NA,NA,NA,NA,NA,NA,NA,NA,NA,NA,NA,NA,NA,NA,NA
29178,check continue,flow.Sequence,3_0_23,NA,NA,skipped,NA,648896.10000038,NA,NA,648389.89999962,648896.20000076,2023-03-26T07:38:55Z,649048.15,NULL,NA,NA,NA,NA,NA,NA,NA,NA,NA,23,NA,NA,NA,NA,NA,NA,NA,NA,NA,NA,NA,NA,NA,NA,NA,NA,NA,NA,NA
29178,check continue,flow.Sequence,3_0_24,NA,NA,skipped,NA,648921.79999924,NA,NA,648389.89999962,648921.89999962,2023-03-26T07:38:55Z,649048.15,NULL,NA,NA,NA,NA,NA,NA,NA,NA,NA,24,NA,NA,NA,NA,NA,NA,NA,NA,NA,NA,NA,NA,NA,NA,NA,NA,NA,NA,NA
29178,check continue,flow.Sequence,3_0_25,NA,NA,skipped,NA,648940.10000038,NA,NA,648389.89999962,648940.20000076,2023-03-26T07:38:55Z,649048.15,NULL,NA,NA,NA,NA,NA,NA,NA,NA,NA,25,NA,NA,NA,NA,NA,NA,NA,NA,NA,NA,NA,NA,NA,NA,NA,NA,NA,NA,NA
29178,check continue,flow.Sequence,3_0_26,NA,NA,skipped,NA,648966,NA,NA,648389.89999962,648966.10000038,2023-03-26T07:38:55Z,649048.15,NULL,NA,NA,NA,NA,NA,NA,NA,NA,NA,26,NA,NA,NA,NA,NA,NA,NA,NA,NA,NA,NA,NA,NA,NA,NA,NA,NA,NA,NA
29178,check continue,flow.Sequence,3_0_27,NA,NA,skipped,NA,649001.79999924,NA,NA,648389.89999962,649001.89999962,2023-03-26T07:38:55Z,649048.15,NULL,NA,NA,NA,NA,NA,NA,NA,NA,NA,27,NA,NA,NA,NA,NA,NA,NA,NA,NA,NA,NA,NA,NA,NA,NA,NA,NA,NA,NA
29178,check continue,flow.Sequence,3_0_28,NA,NA,skipped,NA,649019.79999924,NA,NA,648389.89999962,649019.89999962,2023-03-26T07:38:55Z,649048.15,NULL,NA,NA,NA,NA,NA,NA,NA,NA,NA,28,NA,NA,NA,NA,NA,NA,NA,NA,NA,NA,NA,NA,NA,NA,NA,NA,NA,NA,NA
29178,check continue,flow.Sequence,3_0_29,NA,NA,skipped,NA,649038.89999962,NA,NA,648389.89999962,649039,2023-03-26T07:38:55Z,649048.15,NULL,NA,NA,NA,NA,NA,NA,NA,NA,NA,29,NA,NA,NA,NA,NA,NA,NA,NA,NA,NA,NA,NA,NA,NA,NA,NA,NA,NA,NA
29178,until continue,flow.Loop,3_0,NA,NA,completion,367356.52699962,280997.10000038,280899.373,281033.373,648389.89999962,649039.10000038,2023-03-26T07:38:55Z,649048.15,NULL,NA,NA,NA,NA,NA,NA,NA,NA,NA,NA,NA,NA,NA,NA,NA,NA,NA,NA,NA,NA,NA,NA,NA,NA,NA,NA,NA,NA,NA
29178,block 1,flow.Sequence,3,NA,NA,completion,367356.52699962,280997,280899.373,281033.373,648389.89999962,649039.29999924,2023-03-26T07:38:55Z,649048.15,NULL,NA,NA,NA,NA,NA,NA,NA,NA,NA,NA,NA,NA,NA,NA,NA,NA,NA,NA,NA,NA,NA,NA,NA,NA,NA,NA,NA,NA,NA
29178,1.Part Over,canvas.Screen,4,NA,keypress(Space),response,167.14999923704,649039.29999924,649031.432,649048.15,649215.29999924,649216.10000038,2023-03-26T07:38:55Z,649314.614,NULL,NA,NA,NA,NA,NA,NA,NA,NA,NA,NA,NA,NA,NA,NA,NA,NA,NA,NA,NA,NA,NA,NA,NA,NA,NA,NA,NA,NA,NA
29178,deep,flow.Sequence,5_0_0_0_0_0,NA,NA,skipped,NA,649307.70000076,NA,NA,649215.29999924,649307.89999962,2023-03-26T07:38:55Z,649314.614,NULL,Wettbewerb,ushindani,s,mapendezi,kichocheo,ubaguzi,NA,sdf,NA,0,NA,NA,NA,NA,NA,NA,NA,NA,NA,NA,NA,NA,NA,NA,NA,NA,NA,NA,NA
29178,Shallow Question,html.Page,5_0_0_0_0_1_0,NA,NA,form submission,6070.9860003815,649308,649298.001,649314.614,655385.60000038,655385.79999924,2023-03-26T07:39:01Z,655392.958,NULL,Wettbewerb,ushindani,s,mapendezi,kichocheo,ubaguzi,kichocheo,NA,NA,0,NA,NA,NA,NA,NA,NA,NA,NA,NA,NA,NA,NA,NA,NA,NA,NA,NA,NA,NA
29178,"""Richtig""-Screen",canvas.Screen,5_0_0_0_0_1_1,NA,NA,skipped,NA,655387.70000076,NA,NA,655385.60000038,655387.79999924,2023-03-26T07:39:01Z,655392.958,NULL,Wettbewerb,ushindani,s,mapendezi,kichocheo,ubaguzi,NA,sdf,NA,0,NA,NA,NA,NA,NA,NA,NA,NA,NA,NA,NA,NA,NA,NA,NA,NA,NA,NA,NA
29178,"""Falsch""-Screen",canvas.Screen,5_0_0_0_0_1_2,NA,NA,timeout,4995.9350000001,655388.60000038,655376.326,655392.958,660372.235,660372.60000038,2023-03-26T07:39:06Z,660388.893,NULL,Wettbewerb,ushindani,s,mapendezi,kichocheo,ubaguzi,NA,sdf,0,0,NA,NA,NA,NA,NA,NA,NA,NA,NA,NA,NA,NA,NA,NA,NA,NA,NA,NA,NA
29178,shallow,flow.Sequence,5_0_0_0_0_1,NA,NA,completion,11057.621,649308,649298.001,649314.614,660372.235,660372.79999924,2023-03-26T07:39:06Z,660388.893,NULL,Wettbewerb,ushindani,s,mapendezi,kichocheo,ubaguzi,NA,sdf,NA,0,NA,NA,NA,NA,NA,NA,NA,NA,NA,NA,NA,NA,NA,NA,NA,NA,NA,NA,NA
29178,task,flow.Sequence,5_0_0_0_0,NA,NA,completion,11057.621,649307.70000076,649298.001,649314.614,660372.235,660372.89999962,2023-03-26T07:39:06Z,660388.893,NULL,Wettbewerb,ushindani,s,mapendezi,kichocheo,ubaguzi,NA,sdf,NA,0,NA,NA,NA,NA,NA,NA,NA,NA,NA,NA,NA,NA,NA,NA,NA,NA,NA,NA,NA
29178,deep,flow.Sequence,5_0_0_0_1_0,NA,NA,skipped,NA,660373,NA,NA,660372.235,660373.10000038,2023-03-26T07:39:06Z,660388.893,NULL,Auftrag,uagizaji,s,ghanima,kuzingatia,msukani,NA,sdf,NA,0,NA,NA,NA,NA,NA,NA,NA,NA,NA,NA,NA,NA,NA,NA,NA,NA,NA,NA,NA
29178,Shallow Question,html.Page,5_0_0_0_1_1_0,NA,NA,form submission,4634.0069996185,660373.10000038,660372.235,660388.893,665022.89999962,665023.10000038,2023-03-26T07:39:11Z,665035.066,NULL,Auftrag,uagizaji,s,ghanima,kuzingatia,msukani,ghanima,NA,NA,0,NA,NA,NA,NA,NA,NA,NA,NA,NA,NA,NA,NA,NA,NA,NA,NA,NA,NA,NA
29178,"""Richtig""-Screen",canvas.Screen,5_0_0_0_1_1_1,NA,NA,skipped,NA,665025.10000038,NA,NA,665022.89999962,665025.20000076,2023-03-26T07:39:11Z,665035.066,NULL,Auftrag,uagizaji,s,ghanima,kuzingatia,msukani,NA,sdf,NA,0,NA,NA,NA,NA,NA,NA,NA,NA,NA,NA,NA,NA,NA,NA,NA,NA,NA,NA,NA
29178,"""Falsch""-Screen",canvas.Screen,5_0_0_0_1_1_2,NA,NA,timeout,4996.326,665026,665018.38,665035.066,670014.65,670015.20000076,2023-03-26T07:39:16Z,670031.392,NULL,Auftrag,uagizaji,s,ghanima,kuzingatia,msukani,NA,sdf,0,0,NA,NA,NA,NA,NA,NA,NA,NA,NA,NA,NA,NA,NA,NA,NA,NA,NA,NA,NA
29178,shallow,flow.Sequence,5_0_0_0_1_1,NA,NA,completion,9625.757,660373.10000038,660372.235,660388.893,670014.65,670015.39999962,2023-03-26T07:39:16Z,670031.392,NULL,Auftrag,uagizaji,s,ghanima,kuzingatia,msukani,NA,sdf,NA,0,NA,NA,NA,NA,NA,NA,NA,NA,NA,NA,NA,NA,NA,NA,NA,NA,NA,NA,NA
29178,task,flow.Sequence,5_0_0_0_1,NA,NA,completion,9625.757,660373,660372.235,660388.893,670014.65,670015.5,2023-03-26T07:39:16Z,670031.392,NULL,Auftrag,uagizaji,s,ghanima,kuzingatia,msukani,NA,sdf,NA,0,NA,NA,NA,NA,NA,NA,NA,NA,NA,NA,NA,NA,NA,NA,NA,NA,NA,NA,NA
29178,Deep Question,html.Page,5_0_0_0_2_0_0,NA,NA,form submission,6295.0079996185,670015.60000038,670014.65,670031.392,676326.39999962,676326.70000076,2023-03-26T07:39:22Z,676342.429,NULL,Zufall,kikuti,d,NA,NA,NA,mareno,NA,NA,0,NA,NA,NA,NA,NA,NA,NA,NA,NA,NA,NA,NA,NA,NA,NA,NA,NA,NA,NA
29178,"""Richtig""-Screen",canvas.Screen,5_0_0_0_2_0_1,NA,NA,skipped,NA,676329.70000076,NA,NA,676326.39999962,676330,2023-03-26T07:39:22Z,676342.429,NULL,Zufall,kikuti,d,NA,NA,NA,NA,sdf,NA,0,NA,NA,NA,NA,NA,NA,NA,NA,NA,NA,NA,NA,NA,NA,NA,NA,NA,NA,NA
29178,"""Falsch""-Screen",canvas.Screen,5_0_0_0_2_0_2,NA,NA,timeout,4995.991,676331.10000038,676325.833,676342.429,681321.755,681322.5,2023-03-26T07:39:27Z,681338.42,NULL,Zufall,kikuti,d,NA,NA,NA,NA,sdf,0,0,NA,NA,NA,NA,NA,NA,NA,NA,NA,NA,NA,NA,NA,NA,NA,NA,NA,NA,NA
29178,deep,flow.Sequence,5_0_0_0_2_0,NA,NA,completion,11290.363,670015.5,670014.65,670031.392,681321.755,681322.70000076,2023-03-26T07:39:27Z,681338.42,NULL,Zufall,kikuti,d,NA,NA,NA,NA,sdf,NA,0,NA,NA,NA,NA,NA,NA,NA,NA,NA,NA,NA,NA,NA,NA,NA,NA,NA,NA,NA
29178,shallow,flow.Sequence,5_0_0_0_2_1,NA,NA,skipped,NA,681322.79999924,NA,NA,681321.755,681322.89999962,2023-03-26T07:39:27Z,681338.42,NULL,Zufall,kikuti,d,NA,NA,NA,NA,sdf,NA,0,NA,NA,NA,NA,NA,NA,NA,NA,NA,NA,NA,NA,NA,NA,NA,NA,NA,NA,NA
29178,task,flow.Sequence,5_0_0_0_2,NA,NA,completion,11290.363,670015.5,670014.65,670031.392,681321.755,681323,2023-03-26T07:39:27Z,681338.42,NULL,Zufall,kikuti,d,NA,NA,NA,NA,sdf,NA,0,NA,NA,NA,NA,NA,NA,NA,NA,NA,NA,NA,NA,NA,NA,NA,NA,NA,NA,NA
29178,deep,flow.Sequence,5_0_0_0_3_0,NA,NA,skipped,NA,681323.10000038,NA,NA,681321.755,681323.20000076,2023-03-26T07:39:27Z,681338.42,NULL,Hoffnung,matarajio,s,kutaalamika,uratibu,mvumbuzi,NA,sdf,NA,0,NA,NA,NA,NA,NA,NA,NA,NA,NA,NA,NA,NA,NA,NA,NA,NA,NA,NA,NA
29178,Shallow Question,html.Page,5_0_0_0_3_1_0,NA,NA,form submission,5044.1800003814,681323.29999924,681321.755,681338.42,686382.60000038,686382.89999962,2023-03-26T07:39:32Z,686384.197,NULL,Hoffnung,matarajio,s,kutaalamika,uratibu,mvumbuzi,kutaalamika,NA,NA,0,NA,NA,NA,NA,NA,NA,NA,NA,NA,NA,NA,NA,NA,NA,NA,NA,NA,NA,NA
29178,"""Richtig""-Screen",canvas.Screen,5_0_0_0_3_1_1,NA,NA,skipped,NA,686385.20000076,NA,NA,686382.60000038,686385.29999924,2023-03-26T07:39:32Z,686384.197,NULL,Hoffnung,matarajio,s,kutaalamika,uratibu,mvumbuzi,NA,sdf,NA,0,NA,NA,NA,NA,NA,NA,NA,NA,NA,NA,NA,NA,NA,NA,NA,NA,NA,NA,NA
29178,"""Falsch""-Screen",canvas.Screen,5_0_0_0_3_1_2,NA,NA,timeout,4995.916,686386,686367.595,686384.197,691363.45,691363.89999962,2023-03-26T07:39:37Z,691380.113,NULL,Hoffnung,matarajio,s,kutaalamika,uratibu,mvumbuzi,NA,sdf,0,0,NA,NA,NA,NA,NA,NA,NA,NA,NA,NA,NA,NA,NA,NA,NA,NA,NA,NA,NA
29178,shallow,flow.Sequence,5_0_0_0_3_1,NA,NA,completion,10025.03,681323.29999924,681321.755,681338.42,691363.45,691364.20000076,2023-03-26T07:39:37Z,691380.113,NULL,Hoffnung,matarajio,s,kutaalamika,uratibu,mvumbuzi,NA,sdf,NA,0,NA,NA,NA,NA,NA,NA,NA,NA,NA,NA,NA,NA,NA,NA,NA,NA,NA,NA,NA
29178,task,flow.Sequence,5_0_0_0_3,NA,NA,completion,10025.03,681323.10000038,681321.755,681338.42,691363.45,691364.39999962,2023-03-26T07:39:37Z,691380.113,NULL,Hoffnung,matarajio,s,kutaalamika,uratibu,mvumbuzi,NA,sdf,NA,0,NA,NA,NA,NA,NA,NA,NA,NA,NA,NA,NA,NA,NA,NA,NA,NA,NA,NA,NA
29178,deep,flow.Sequence,5_0_0_0_4_0,NA,NA,skipped,NA,691364.5,NA,NA,691363.45,691364.60000038,2023-03-26T07:39:37Z,691380.113,NULL,Verpackung,ufungaji,s,uhusiano,upimaji,uchunguzi,NA,sdf,NA,0,NA,NA,NA,NA,NA,NA,NA,NA,NA,NA,NA,NA,NA,NA,NA,NA,NA,NA,NA
29178,Shallow Question,html.Page,5_0_0_0_4_1_0,NA,NA,form submission,4975.7869996185,691364.70000076,691363.45,691380.113,696355.89999962,696356,2023-03-26T07:39:42Z,696359.353,NULL,Verpackung,ufungaji,s,uhusiano,upimaji,uchunguzi,uchunguzi,NA,NA,0,NA,NA,NA,NA,NA,NA,NA,NA,NA,NA,NA,NA,NA,NA,NA,NA,NA,NA,NA
29178,"""Richtig""-Screen",canvas.Screen,5_0_0_0_4_1_1,NA,NA,skipped,NA,696358.89999962,NA,NA,696355.89999962,696359,2023-03-26T07:39:42Z,696359.353,NULL,Verpackung,ufungaji,s,uhusiano,upimaji,uchunguzi,NA,sdf,NA,0,NA,NA,NA,NA,NA,NA,NA,NA,NA,NA,NA,NA,NA,NA,NA,NA,NA,NA,NA
29178,"""Falsch""-Screen",canvas.Screen,5_0_0_0_4_1_2,NA,NA,timeout,4995.932,696360.10000038,696342.715,696359.353,701338.687,701339.10000038,2023-03-26T07:39:47Z,701355.285,NULL,Verpackung,ufungaji,s,uhusiano,upimaji,uchunguzi,NA,sdf,0,0,NA,NA,NA,NA,NA,NA,NA,NA,NA,NA,NA,NA,NA,NA,NA,NA,NA,NA,NA
29178,shallow,flow.Sequence,5_0_0_0_4_1,NA,NA,completion,9958.574,691364.60000038,691363.45,691380.113,701338.687,701339.29999924,2023-03-26T07:39:47Z,701355.285,NULL,Verpackung,ufungaji,s,uhusiano,upimaji,uchunguzi,NA,sdf,NA,0,NA,NA,NA,NA,NA,NA,NA,NA,NA,NA,NA,NA,NA,NA,NA,NA,NA,NA,NA
29178,task,flow.Sequence,5_0_0_0_4,NA,NA,completion,9958.574,691364.5,691363.45,691380.113,701338.687,701339.39999962,2023-03-26T07:39:47Z,701355.285,NULL,Verpackung,ufungaji,s,uhusiano,upimaji,uchunguzi,NA,sdf,NA,0,NA,NA,NA,NA,NA,NA,NA,NA,NA,NA,NA,NA,NA,NA,NA,NA,NA,NA,NA
29178,Deep Question,html.Page,5_0_0_0_5_0_0,NA,NA,form submission,7895.014999237,701339.60000038,701338.687,701355.285,709250.29999924,709250.60000038,2023-03-26T07:39:55Z,709265.456,NULL,Schönheit,kirembo,d,NA,NA,NA,malliome,NA,NA,0,NA,NA,NA,NA,NA,NA,NA,NA,NA,NA,NA,NA,NA,NA,NA,NA,NA,NA,NA
29178,"""Richtig""-Screen",canvas.Screen,5_0_0_0_5_0_1,NA,NA,skipped,NA,709253.5,NA,NA,709250.29999924,709253.70000076,2023-03-26T07:39:55Z,709265.456,NULL,Schönheit,kirembo,d,NA,NA,NA,NA,sdf,NA,0,NA,NA,NA,NA,NA,NA,NA,NA,NA,NA,NA,NA,NA,NA,NA,NA,NA,NA,NA
29178,"""Falsch""-Screen",canvas.Screen,5_0_0_0_5_0_2,NA,NA,timeout,4995.902,709254.79999924,709248.801,709265.456,714244.705,714245,2023-03-26T07:40:00Z,714261.358,NULL,Schönheit,kirembo,d,NA,NA,NA,NA,sdf,0,0,NA,NA,NA,NA,NA,NA,NA,NA,NA,NA,NA,NA,NA,NA,NA,NA,NA,NA,NA
29178,deep,flow.Sequence,5_0_0_0_5_0,NA,NA,completion,12889.42,701339.60000038,701338.687,701355.285,714244.705,714245.39999962,2023-03-26T07:40:00Z,714261.358,NULL,Schönheit,kirembo,d,NA,NA,NA,NA,sdf,NA,0,NA,NA,NA,NA,NA,NA,NA,NA,NA,NA,NA,NA,NA,NA,NA,NA,NA,NA,NA
29178,shallow,flow.Sequence,5_0_0_0_5_1,NA,NA,skipped,NA,714245.39999962,NA,NA,714244.705,714245.5,2023-03-26T07:40:00Z,714261.358,NULL,Schönheit,kirembo,d,NA,NA,NA,NA,sdf,NA,0,NA,NA,NA,NA,NA,NA,NA,NA,NA,NA,NA,NA,NA,NA,NA,NA,NA,NA,NA
29178,task,flow.Sequence,5_0_0_0_5,NA,NA,completion,12889.42,701339.5,701338.687,701355.285,714244.705,714245.60000038,2023-03-26T07:40:00Z,714261.358,NULL,Schönheit,kirembo,d,NA,NA,NA,NA,sdf,NA,0,NA,NA,NA,NA,NA,NA,NA,NA,NA,NA,NA,NA,NA,NA,NA,NA,NA,NA,NA
29178,Deep Question,html.Page,5_0_0_0_6_0_0,NA,NA,form submission,5568.142,714245.70000076,714244.705,714261.358,719829.5,719829.89999962,2023-03-26T07:40:06Z,719840.143,NULL,Schock,mshtuko,d,NA,NA,NA,koroko,NA,NA,0,NA,NA,NA,NA,NA,NA,NA,NA,NA,NA,NA,NA,NA,NA,NA,NA,NA,NA,NA
29178,"""Richtig""-Screen",canvas.Screen,5_0_0_0_6_0_1,NA,NA,skipped,NA,719833,NA,NA,719829.5,719833.20000076,2023-03-26T07:40:06Z,719840.143,NULL,Schock,mshtuko,d,NA,NA,NA,NA,sdf,NA,0,NA,NA,NA,NA,NA,NA,NA,NA,NA,NA,NA,NA,NA,NA,NA,NA,NA,NA,NA
29178,"""Falsch""-Screen",canvas.Screen,5_0_0_0_6_0_2,NA,NA,timeout,4995.862,719834.10000038,719823.455,719840.143,724819.368,724819.79999924,2023-03-26T07:40:11Z,724836.005,NULL,Schock,mshtuko,d,NA,NA,NA,NA,sdf,0,0,NA,NA,NA,NA,NA,NA,NA,NA,NA,NA,NA,NA,NA,NA,NA,NA,NA,NA,NA
29178,deep,flow.Sequence,5_0_0_0_6_0,NA,NA,completion,10558.01,714245.70000076,714244.705,714261.358,724819.368,724819.89999962,2023-03-26T07:40:11Z,724836.005,NULL,Schock,mshtuko,d,NA,NA,NA,NA,sdf,NA,0,NA,NA,NA,NA,NA,NA,NA,NA,NA,NA,NA,NA,NA,NA,NA,NA,NA,NA,NA
29178,shallow,flow.Sequence,5_0_0_0_6_1,NA,NA,skipped,NA,724820,NA,NA,724819.368,724820,2023-03-26T07:40:11Z,724836.005,NULL,Schock,mshtuko,d,NA,NA,NA,NA,sdf,NA,0,NA,NA,NA,NA,NA,NA,NA,NA,NA,NA,NA,NA,NA,NA,NA,NA,NA,NA,NA
29178,task,flow.Sequence,5_0_0_0_6,NA,NA,completion,10558.01,714245.60000038,714244.705,714261.358,724819.368,724820.10000038,2023-03-26T07:40:11Z,724836.005,NULL,Schock,mshtuko,d,NA,NA,NA,NA,sdf,NA,0,NA,NA,NA,NA,NA,NA,NA,NA,NA,NA,NA,NA,NA,NA,NA,NA,NA,NA,NA
29178,Deep Question,html.Page,5_0_0_0_7_0_0,NA,NA,form submission,7909.7949992371,724820.20000076,724819.368,724836.005,732745.79999924,732746,2023-03-26T07:40:19Z,732765.22,NULL,Theorie,nadharia,d,NA,NA,NA,teorio,NA,NA,0,NA,NA,NA,NA,NA,NA,NA,NA,NA,NA,NA,NA,NA,NA,NA,NA,NA,NA,NA
29178,"""Richtig""-Screen",canvas.Screen,5_0_0_0_7_0_1,NA,NA,skipped,NA,732748.5,NA,NA,732745.79999924,732748.70000076,2023-03-26T07:40:19Z,732765.22,NULL,Theorie,nadharia,d,NA,NA,NA,NA,sdf,NA,0,NA,NA,NA,NA,NA,NA,NA,NA,NA,NA,NA,NA,NA,NA,NA,NA,NA,NA,NA
29178,"""Falsch""-Screen",canvas.Screen,5_0_0_0_7_0_2,NA,NA,timeout,4993.542,732749.5,732729.527,732765.22,737742.085,737742.39999962,2023-03-26T07:40:24Z,737758.762,NULL,Theorie,nadharia,d,NA,NA,NA,NA,sdf,0,0,NA,NA,NA,NA,NA,NA,NA,NA,NA,NA,NA,NA,NA,NA,NA,NA,NA,NA,NA
29178,deep,flow.Sequence,5_0_0_0_7_0,NA,NA,completion,12906.08,724820.20000076,724819.368,724836.005,737742.085,737742.60000038,2023-03-26T07:40:24Z,737758.762,NULL,Theorie,nadharia,d,NA,NA,NA,NA,sdf,NA,0,NA,NA,NA,NA,NA,NA,NA,NA,NA,NA,NA,NA,NA,NA,NA,NA,NA,NA,NA
29178,shallow,flow.Sequence,5_0_0_0_7_1,NA,NA,skipped,NA,737742.60000038,NA,NA,737742.085,737742.70000076,2023-03-26T07:40:24Z,737758.762,NULL,Theorie,nadharia,d,NA,NA,NA,NA,sdf,NA,0,NA,NA,NA,NA,NA,NA,NA,NA,NA,NA,NA,NA,NA,NA,NA,NA,NA,NA,NA
29178,task,flow.Sequence,5_0_0_0_7,NA,NA,completion,12906.08,724820.10000038,724819.368,724836.005,737742.085,737742.79999924,2023-03-26T07:40:24Z,737758.762,NULL,Theorie,nadharia,d,NA,NA,NA,NA,sdf,NA,0,NA,NA,NA,NA,NA,NA,NA,NA,NA,NA,NA,NA,NA,NA,NA,NA,NA,NA,NA
29178,block,flow.Loop,5_0_0_0,NA,NA,completion,88427.471,649307.70000076,649298.001,649314.614,737742.085,737742.79999924,2023-03-26T07:40:24Z,737758.762,NULL,NA,NA,NA,NA,NA,NA,NA,sdf,NA,0,NA,NA,NA,NA,NA,NA,NA,NA,NA,NA,NA,NA,NA,NA,NA,NA,NA,NA,NA
29178,weiter,canvas.Screen,5_0_0_1,sdf,keypress(Space),response,844.43800076295,737742.89999962,737742.085,737758.762,738603.20000076,738605.39999962,2023-03-26T07:40:25Z,738674.721,NULL,NA,NA,NA,NA,NA,NA,NA,sdf,NA,0,NA,NA,NA,NA,NA,NA,NA,NA,NA,NA,NA,NA,NA,NA,NA,NA,NA,NA,NA
29178,check continue,flow.Sequence,5_0_0,NA,NA,completion,89288.586000763,649307.70000076,649298.001,649314.614,738603.20000076,738605.60000038,2023-03-26T07:40:25Z,738674.721,NULL,NA,NA,NA,NA,NA,NA,NA,sdf,NA,0,NA,NA,NA,NA,NA,NA,NA,NA,NA,NA,NA,NA,NA,NA,NA,NA,NA,NA,NA
29178,Deep Question,html.Page,5_0_1_0_0_0_0,NA,NA,form submission,7401.578999237,738668.89999962,738658.105,738674.721,746076.29999924,746076.5,2023-03-26T07:40:32Z,746085.239,NULL,Zufall,kikuti,d,NA,NA,NA,kuteki,NA,NA,1,NA,NA,NA,NA,NA,NA,NA,NA,NA,NA,NA,NA,NA,NA,NA,NA,NA,NA,NA
29178,"""Richtig""-Screen",canvas.Screen,5_0_1_0_0_0_1,NA,NA,skipped,NA,746079.29999924,NA,NA,746076.29999924,746079.5,2023-03-26T07:40:32Z,746085.239,NULL,Zufall,kikuti,d,NA,NA,NA,NA,sdfdsf,NA,1,NA,NA,NA,NA,NA,NA,NA,NA,NA,NA,NA,NA,NA,NA,NA,NA,NA,NA,NA
29178,"""Falsch""-Screen",canvas.Screen,5_0_1_0_0_0_2,NA,NA,timeout,4995.956,746080.5,746068.67,746085.239,751064.541,751065,2023-03-26T07:40:37Z,751081.195,NULL,Zufall,kikuti,d,NA,NA,NA,NA,sdfdsf,0,1,NA,NA,NA,NA,NA,NA,NA,NA,NA,NA,NA,NA,NA,NA,NA,NA,NA,NA,NA
29178,deep,flow.Sequence,5_0_1_0_0_0,NA,NA,completion,12389.82,738668.89999962,738658.105,738674.721,751064.541,751065.10000038,2023-03-26T07:40:37Z,751081.195,NULL,Zufall,kikuti,d,NA,NA,NA,NA,sdfdsf,NA,1,NA,NA,NA,NA,NA,NA,NA,NA,NA,NA,NA,NA,NA,NA,NA,NA,NA,NA,NA
29178,shallow,flow.Sequence,5_0_1_0_0_1,NA,NA,skipped,NA,751065.20000076,NA,NA,751064.541,751065.20000076,2023-03-26T07:40:37Z,751081.195,NULL,Zufall,kikuti,d,NA,NA,NA,NA,sdfdsf,NA,1,NA,NA,NA,NA,NA,NA,NA,NA,NA,NA,NA,NA,NA,NA,NA,NA,NA,NA,NA
29178,task,flow.Sequence,5_0_1_0_0,NA,NA,completion,12389.82,738668.89999962,738658.105,738674.721,751064.541,751065.29999924,2023-03-26T07:40:37Z,751081.195,NULL,Zufall,kikuti,d,NA,NA,NA,NA,sdfdsf,NA,1,NA,NA,NA,NA,NA,NA,NA,NA,NA,NA,NA,NA,NA,NA,NA,NA,NA,NA,NA
29178,Deep Question,html.Page,5_0_1_0_1_0_0,NA,NA,form submission,8075.7049996186,751065.39999962,751064.541,751081.195,759156.89999962,759157.10000038,2023-03-26T07:40:45Z,759157.847,NULL,Theorie,nadharia,d,NA,NA,NA,mashandea,NA,NA,1,NA,NA,NA,NA,NA,NA,NA,NA,NA,NA,NA,NA,NA,NA,NA,NA,NA,NA,NA
29178,"""Richtig""-Screen",canvas.Screen,5_0_1_0_1_0_1,NA,NA,skipped,NA,759159.89999962,NA,NA,759156.89999962,759160,2023-03-26T07:40:45Z,759157.847,NULL,Theorie,nadharia,d,NA,NA,NA,NA,sdfdsf,NA,1,NA,NA,NA,NA,NA,NA,NA,NA,NA,NA,NA,NA,NA,NA,NA,NA,NA,NA,NA
29178,"""Falsch""-Screen",canvas.Screen,5_0_1_0_1_0_2,NA,NA,timeout,4995.9430000001,759160.79999924,759141.258,759157.847,764137.709,764138.20000076,2023-03-26T07:40:50Z,764153.79,NULL,Theorie,nadharia,d,NA,NA,NA,NA,sdfdsf,0,1,NA,NA,NA,NA,NA,NA,NA,NA,NA,NA,NA,NA,NA,NA,NA,NA,NA,NA,NA
29178,deep,flow.Sequence,5_0_1_0_1_0,NA,NA,completion,13056.514,751065.39999962,751064.541,751081.195,764137.709,764138.5,2023-03-26T07:40:50Z,764153.79,NULL,Theorie,nadharia,d,NA,NA,NA,NA,sdfdsf,NA,1,NA,NA,NA,NA,NA,NA,NA,NA,NA,NA,NA,NA,NA,NA,NA,NA,NA,NA,NA
29178,shallow,flow.Sequence,5_0_1_0_1_1,NA,NA,skipped,NA,764138.60000038,NA,NA,764137.709,764138.70000076,2023-03-26T07:40:50Z,764153.79,NULL,Theorie,nadharia,d,NA,NA,NA,NA,sdfdsf,NA,1,NA,NA,NA,NA,NA,NA,NA,NA,NA,NA,NA,NA,NA,NA,NA,NA,NA,NA,NA
29178,task,flow.Sequence,5_0_1_0_1,NA,NA,completion,13056.514,751065.29999924,751064.541,751081.195,764137.709,764138.79999924,2023-03-26T07:40:50Z,764153.79,NULL,Theorie,nadharia,d,NA,NA,NA,NA,sdfdsf,NA,1,NA,NA,NA,NA,NA,NA,NA,NA,NA,NA,NA,NA,NA,NA,NA,NA,NA,NA,NA
29178,deep,flow.Sequence,5_0_1_0_2_0,NA,NA,skipped,NA,764138.89999962,NA,NA,764137.709,764139.29999924,2023-03-26T07:40:50Z,764153.79,NULL,Hoffnung,matarajio,s,kutaalamika,uratibu,mvumbuzi,NA,sdfdsf,NA,1,NA,NA,NA,NA,NA,NA,NA,NA,NA,NA,NA,NA,NA,NA,NA,NA,NA,NA,NA
29178,Shallow Question,html.Page,5_0_1_0_2_1_0,NA,NA,form submission,8535.21,764139.5,764137.709,764153.79,772689,772689.20000076,2023-03-26T07:40:59Z,772696.741,NULL,Hoffnung,matarajio,s,kutaalamika,uratibu,mvumbuzi,kutaalamika,NA,NA,1,NA,NA,NA,NA,NA,NA,NA,NA,NA,NA,NA,NA,NA,NA,NA,NA,NA,NA,NA
29178,"""Richtig""-Screen",canvas.Screen,5_0_1_0_2_1_1,NA,NA,skipped,NA,772691.20000076,NA,NA,772689,772691.29999924,2023-03-26T07:40:59Z,772696.741,NULL,Hoffnung,matarajio,s,kutaalamika,uratibu,mvumbuzi,NA,sdfdsf,NA,1,NA,NA,NA,NA,NA,NA,NA,NA,NA,NA,NA,NA,NA,NA,NA,NA,NA,NA,NA
29178,"""Falsch""-Screen",canvas.Screen,5_0_1_0_2_1_2,NA,NA,timeout,4996.0649999999,772692.10000038,772680.388,772696.741,777676.033,777676.5,2023-03-26T07:41:04Z,777692.806,NULL,Hoffnung,matarajio,s,kutaalamika,uratibu,mvumbuzi,NA,sdfdsf,0,1,NA,NA,NA,NA,NA,NA,NA,NA,NA,NA,NA,NA,NA,NA,NA,NA,NA,NA,NA
29178,shallow,flow.Sequence,5_0_1_0_2_1,NA,NA,completion,13522.243,764139.5,764137.709,764153.79,777676.033,777676.79999924,2023-03-26T07:41:04Z,777692.806,NULL,Hoffnung,matarajio,s,kutaalamika,uratibu,mvumbuzi,NA,sdfdsf,NA,1,NA,NA,NA,NA,NA,NA,NA,NA,NA,NA,NA,NA,NA,NA,NA,NA,NA,NA,NA
29178,task,flow.Sequence,5_0_1_0_2,NA,NA,completion,13522.243,764138.79999924,764137.709,764153.79,777676.033,777676.89999962,2023-03-26T07:41:04Z,777692.806,NULL,Hoffnung,matarajio,s,kutaalamika,uratibu,mvumbuzi,NA,sdfdsf,NA,1,NA,NA,NA,NA,NA,NA,NA,NA,NA,NA,NA,NA,NA,NA,NA,NA,NA,NA,NA
29178,deep,flow.Sequence,5_0_1_0_3_0,NA,NA,skipped,NA,777677.10000038,NA,NA,777676.033,777677.20000076,2023-03-26T07:41:04Z,777692.806,NULL,Auftrag,uagizaji,s,ghanima,kuzingatia,msukani,NA,sdfdsf,NA,1,NA,NA,NA,NA,NA,NA,NA,NA,NA,NA,NA,NA,NA,NA,NA,NA,NA,NA,NA
29178,Shallow Question,html.Page,5_0_1_0_3_1_0,NA,NA,form submission,3601.2940003815,777677.29999924,777676.033,777692.806,781294.10000038,781294.29999924,2023-03-26T07:41:07Z,781306.973,NULL,Auftrag,uagizaji,s,ghanima,kuzingatia,msukani,uagizaji,NA,NA,1,NA,NA,NA,NA,NA,NA,NA,NA,NA,NA,NA,NA,NA,NA,NA,NA,NA,NA,NA
29178,"""Richtig""-Screen",canvas.Screen,5_0_1_0_3_1_1,NA,NA,timeout,4995.314,781296.20000076,781289.699,781306.973,786285.68,786286.20000076,2023-03-26T07:41:12Z,786302.287,NULL,Auftrag,uagizaji,s,ghanima,kuzingatia,msukani,NA,sdfdsf,1,1,NA,NA,NA,NA,NA,NA,NA,NA,NA,NA,NA,NA,NA,NA,NA,NA,NA,NA,NA
29178,"""Falsch""-Screen",canvas.Screen,5_0_1_0_3_1_2,NA,NA,skipped,NA,786288.39999962,NA,NA,786285.68,786288.60000038,2023-03-26T07:41:12Z,786302.287,NULL,Auftrag,uagizaji,s,ghanima,kuzingatia,msukani,NA,sdfdsf,NA,1,NA,NA,NA,NA,NA,NA,NA,NA,NA,NA,NA,NA,NA,NA,NA,NA,NA,NA,NA
29178,shallow,flow.Sequence,5_0_1_0_3_1,NA,NA,completion,8592.8740000001,777677.29999924,777676.033,777692.806,786285.68,786288.70000076,2023-03-26T07:41:12Z,786302.287,NULL,Auftrag,uagizaji,s,ghanima,kuzingatia,msukani,NA,sdfdsf,NA,1,NA,NA,NA,NA,NA,NA,NA,NA,NA,NA,NA,NA,NA,NA,NA,NA,NA,NA,NA
29178,task,flow.Sequence,5_0_1_0_3,NA,NA,completion,8592.8740000001,777677.10000038,777676.033,777692.806,786285.68,786288.89999962,2023-03-26T07:41:12Z,786302.287,NULL,Auftrag,uagizaji,s,ghanima,kuzingatia,msukani,NA,sdfdsf,NA,1,NA,NA,NA,NA,NA,NA,NA,NA,NA,NA,NA,NA,NA,NA,NA,NA,NA,NA,NA
29178,deep,flow.Sequence,5_0_1_0_4_0,NA,NA,skipped,NA,786288.89999962,NA,NA,786285.68,786289,2023-03-26T07:41:12Z,786302.287,NULL,Wettbewerb,ushindani,s,mapendezi,kichocheo,ubaguzi,NA,sdfdsf,NA,1,NA,NA,NA,NA,NA,NA,NA,NA,NA,NA,NA,NA,NA,NA,NA,NA,NA,NA,NA
29178,Shallow Question,html.Page,5_0_1_0_4_1_0,NA,NA,form submission,4130.3130003815,786289,786285.68,786302.287,790432.60000038,790432.79999924,2023-03-26T07:41:16Z,790432.199,NULL,Wettbewerb,ushindani,s,mapendezi,kichocheo,ubaguzi,ushindani,NA,NA,1,NA,NA,NA,NA,NA,NA,NA,NA,NA,NA,NA,NA,NA,NA,NA,NA,NA,NA,NA
29178,"""Richtig""-Screen",canvas.Screen,5_0_1_0_4_1_1,NA,NA,timeout,4995.8929999999,790435.39999962,790416.046,790432.199,795411.448,795412,2023-03-26T07:41:21Z,795428.092,NULL,Wettbewerb,ushindani,s,mapendezi,kichocheo,ubaguzi,NA,sdfdsf,1,1,NA,NA,NA,NA,NA,NA,NA,NA,NA,NA,NA,NA,NA,NA,NA,NA,NA,NA,NA
29178,"""Falsch""-Screen",canvas.Screen,5_0_1_0_4_1_2,NA,NA,skipped,NA,795414.5,NA,NA,795411.448,795414.60000038,2023-03-26T07:41:21Z,795428.092,NULL,Wettbewerb,ushindani,s,mapendezi,kichocheo,ubaguzi,NA,sdfdsf,NA,1,NA,NA,NA,NA,NA,NA,NA,NA,NA,NA,NA,NA,NA,NA,NA,NA,NA,NA,NA
29178,shallow,flow.Sequence,5_0_1_0_4_1,NA,NA,completion,9109.161,786289,786285.68,786302.287,795411.448,795414.79999924,2023-03-26T07:41:21Z,795428.092,NULL,Wettbewerb,ushindani,s,mapendezi,kichocheo,ubaguzi,NA,sdfdsf,NA,1,NA,NA,NA,NA,NA,NA,NA,NA,NA,NA,NA,NA,NA,NA,NA,NA,NA,NA,NA
29178,task,flow.Sequence,5_0_1_0_4,NA,NA,completion,9109.161,786288.89999962,786285.68,786302.287,795411.448,795415,2023-03-26T07:41:21Z,795428.092,NULL,Wettbewerb,ushindani,s,mapendezi,kichocheo,ubaguzi,NA,sdfdsf,NA,1,NA,NA,NA,NA,NA,NA,NA,NA,NA,NA,NA,NA,NA,NA,NA,NA,NA,NA,NA
29178,Deep Question,html.Page,5_0_1_0_5_0_0,NA,NA,form submission,12014.908,795415.10000038,795411.448,795428.092,807443,807443.20000076,2023-03-26T07:41:33Z,807451.567,NULL,Schock,mshtuko,d,NA,NA,NA,naderina,NA,NA,1,NA,NA,NA,NA,NA,NA,NA,NA,NA,NA,NA,NA,NA,NA,NA,NA,NA,NA,NA
29178,"""Richtig""-Screen",canvas.Screen,5_0_1_0_5_0_1,NA,NA,skipped,NA,807445.39999962,NA,NA,807443,807445.60000038,2023-03-26T07:41:33Z,807451.567,NULL,Schock,mshtuko,d,NA,NA,NA,NA,sdfdsf,NA,1,NA,NA,NA,NA,NA,NA,NA,NA,NA,NA,NA,NA,NA,NA,NA,NA,NA,NA,NA
29178,"""Falsch""-Screen",canvas.Screen,5_0_1_0_5_0_2,NA,NA,timeout,4995.9219999999,807446.60000038,807435.003,807451.567,812430.886,812431.29999924,2023-03-26T07:41:38Z,812447.489,NULL,Schock,mshtuko,d,NA,NA,NA,NA,sdfdsf,0,1,NA,NA,NA,NA,NA,NA,NA,NA,NA,NA,NA,NA,NA,NA,NA,NA,NA,NA,NA
29178,deep,flow.Sequence,5_0_1_0_5_0,NA,NA,completion,17002.794,795415.10000038,795411.448,795428.092,812430.886,812431.5,2023-03-26T07:41:38Z,812447.489,NULL,Schock,mshtuko,d,NA,NA,NA,NA,sdfdsf,NA,1,NA,NA,NA,NA,NA,NA,NA,NA,NA,NA,NA,NA,NA,NA,NA,NA,NA,NA,NA
29178,shallow,flow.Sequence,5_0_1_0_5_1,NA,NA,skipped,NA,812431.70000076,NA,NA,812430.886,812431.70000076,2023-03-26T07:41:38Z,812447.489,NULL,Schock,mshtuko,d,NA,NA,NA,NA,sdfdsf,NA,1,NA,NA,NA,NA,NA,NA,NA,NA,NA,NA,NA,NA,NA,NA,NA,NA,NA,NA,NA
29178,task,flow.Sequence,5_0_1_0_5,NA,NA,completion,17002.794,795415.10000038,795411.448,795428.092,812430.886,812431.79999924,2023-03-26T07:41:38Z,812447.489,NULL,Schock,mshtuko,d,NA,NA,NA,NA,sdfdsf,NA,1,NA,NA,NA,NA,NA,NA,NA,NA,NA,NA,NA,NA,NA,NA,NA,NA,NA,NA,NA
29178,Deep Question,html.Page,5_0_1_0_6_0_0,NA,NA,form submission,5825.6110003815,812432,812430.886,812447.489,818273.10000038,818273.29999924,2023-03-26T07:41:44Z,818276.033,NULL,Schönheit,kirembo,d,NA,NA,NA,mellaa,NA,NA,1,NA,NA,NA,NA,NA,NA,NA,NA,NA,NA,NA,NA,NA,NA,NA,NA,NA,NA,NA
29178,"""Richtig""-Screen",canvas.Screen,5_0_1_0_6_0_1,NA,NA,skipped,NA,818275.60000038,NA,NA,818273.10000038,818275.70000076,2023-03-26T07:41:44Z,818276.033,NULL,Schönheit,kirembo,d,NA,NA,NA,NA,sdfdsf,NA,1,NA,NA,NA,NA,NA,NA,NA,NA,NA,NA,NA,NA,NA,NA,NA,NA,NA,NA,NA
29178,"""Falsch""-Screen",canvas.Screen,5_0_1_0_6_0_2,NA,NA,timeout,4996.4639999999,818276.60000038,818259.834,818276.033,823255.838,823256.89999962,2023-03-26T07:41:49Z,823272.497,NULL,Schönheit,kirembo,d,NA,NA,NA,NA,sdfdsf,0,1,NA,NA,NA,NA,NA,NA,NA,NA,NA,NA,NA,NA,NA,NA,NA,NA,NA,NA,NA
