observation,sender,sender_type,sender_id,response,response_action,ended_on,duration,time_run,time_render,time_show,time_end,time_commit,timestamp,time_switch,german,swahili,enc,distractor1,distractor2,distractor3,response_2,x,correct,distractors,url_vp,url_sess,meta_labjs_version,meta_location,meta_user_agent,meta_platform,meta_language,meta_locale,meta_time_zone,meta_timezone_offset,meta_screen_width,meta_screen_height,meta_scroll_width,meta_scroll_height,meta_window_inner_width,meta_window_inner_height,meta_device_pixel_ratio,meta_labjs_build_flavor,meta_labjs_build_commit
d70bb,Introduction delayed retrieval,canvas.Screen,0,weiter,keypress(Space),response,17144.92,1664,1672.7,1689.08,18834,18859,2023-03-25T16:06:03Z,18871.34,NA,NA,NA,NA,NA,NA,NA,NA,NA,NULL,114,4,20.2.4,https://neurocog.fernuni.ch/studies/vweber/delayed/index.html?vp=114&sess=4,Mozilla/5.0 (Macintosh; Intel Mac OS X 10.15; rv:109.0) Gecko/20100101 Firefox/109.0,MacIntel,de,de-CH,Europe/Zurich,-60,1440,900,1440,716,1440,764,2,production,f5b4a49f956347addd546a832a3327688c2c0fef
d70bb,Deep Question,html.Page,1_0_0_0,NA,NA,form submission,11394.66,18861,18861.46,18871.34,30266,30267,2023-03-25T16:06:15Z,30280.28,Zuwachs,nyongeza,d,matilaba,udhibiti,hudhurio,mwaha,NA,NA,NULL,NA,NA,NA,NA,NA,NA,NA,NA,NA,NA,NA,NA,NA,NA,NA,NA,NA,NA,NA
d70bb,Save data screen,canvas.Screen,1_0_0_1,NA,NA,timeout,500.68,30271,30265.7,30280.28,30764.3,30781,2023-03-25T16:06:15Z,30780.96,Zuwachs,nyongeza,d,matilaba,udhibiti,hudhurio,NA,NA,0,NULL,NA,NA,NA,NA,NA,NA,NA,NA,NA,NA,NA,NA,NA,NA,NA,NA,NA,NA,NA
d70bb,deep,flow.Sequence,1_0_0,NA,NA,completion,11892.96,18861,18861.46,18871.34,30764.3,30781,2023-03-25T16:06:15Z,30780.96,Zuwachs,nyongeza,d,matilaba,udhibiti,hudhurio,NA,NA,NA,NULL,NA,NA,NA,NA,NA,NA,NA,NA,NA,NA,NA,NA,NA,NA,NA,NA,NA,NA,NA
d70bb,task,flow.Sequence,1_0,NA,NA,completion,11892.96,18861,18861.46,18871.34,30764.3,30782,2023-03-25T16:06:15Z,30780.96,Zuwachs,nyongeza,d,matilaba,udhibiti,hudhurio,NA,NA,NA,NULL,NA,NA,NA,NA,NA,NA,NA,NA,NA,NA,NA,NA,NA,NA,NA,NA,NA,NA,NA
d70bb,Deep Question,html.Page,1_1_0_0,NA,NA,form submission,9631.04,30782,30764.3,30780.96,40412,40412,2023-03-25T16:06:25Z,40425.68,Konkurrent,mshindani,s,msemaji,mvutaji,kipukusa,indibati,NA,NA,NULL,NA,NA,NA,NA,NA,NA,NA,NA,NA,NA,NA,NA,NA,NA,NA,NA,NA,NA,NA
d70bb,Save data screen,canvas.Screen,1_1_0_1,NA,NA,timeout,500.76,40415,40410.76,40425.68,40909.28,40924,2023-03-25T16:06:26Z,40926.44,Konkurrent,mshindani,s,msemaji,mvutaji,kipukusa,NA,NA,0,NULL,NA,NA,NA,NA,NA,NA,NA,NA,NA,NA,NA,NA,NA,NA,NA,NA,NA,NA,NA
d70bb,deep,flow.Sequence,1_1_0,NA,NA,completion,10128.32,30782,30764.3,30780.96,40909.28,40924,2023-03-25T16:06:26Z,40926.44,Konkurrent,mshindani,s,msemaji,mvutaji,kipukusa,NA,NA,NA,NULL,NA,NA,NA,NA,NA,NA,NA,NA,NA,NA,NA,NA,NA,NA,NA,NA,NA,NA,NA
d70bb,task,flow.Sequence,1_1,NA,NA,completion,10128.32,30782,30764.3,30780.96,40909.28,40925,2023-03-25T16:06:26Z,40926.44,Konkurrent,mshindani,s,msemaji,mvutaji,kipukusa,NA,NA,NA,NULL,NA,NA,NA,NA,NA,NA,NA,NA,NA,NA,NA,NA,NA,NA,NA,NA,NA,NA,NA
d70bb,Deep Question,html.Page,1_2_0_0,NA,NA,form submission,29217.56,40925,40909.28,40926.44,70144,70145,2023-03-25T16:06:55Z,70161.78,Zufall,kikuti,d,kukosekana,uchoraji,leseni,makori,NA,NA,NULL,NA,NA,NA,NA,NA,NA,NA,NA,NA,NA,NA,NA,NA,NA,NA,NA,NA,NA,NA
d70bb,Save data screen,canvas.Screen,1_2_0_1,NA,NA,timeout,500.28,70146,70143.18,70161.78,70645.42,70662,2023-03-25T16:06:55Z,70662.06,Zufall,kikuti,d,kukosekana,uchoraji,leseni,NA,NA,0,NULL,NA,NA,NA,NA,NA,NA,NA,NA,NA,NA,NA,NA,NA,NA,NA,NA,NA,NA,NA
d70bb,deep,flow.Sequence,1_2_0,NA,NA,completion,29718.98,40925,40909.28,40926.44,70645.42,70663,2023-03-25T16:06:55Z,70662.06,Zufall,kikuti,d,kukosekana,uchoraji,leseni,NA,NA,NA,NULL,NA,NA,NA,NA,NA,NA,NA,NA,NA,NA,NA,NA,NA,NA,NA,NA,NA,NA,NA
d70bb,task,flow.Sequence,1_2,NA,NA,completion,29718.98,40925,40909.28,40926.44,70645.42,70664,2023-03-25T16:06:55Z,70662.06,Zufall,kikuti,d,kukosekana,uchoraji,leseni,NA,NA,NA,NULL,NA,NA,NA,NA,NA,NA,NA,NA,NA,NA,NA,NA,NA,NA,NA,NA,NA,NA,NA
d70bb,Deep Question,html.Page,1_3_0_0,NA,NA,form submission,10469.94,70664,70645.42,70662.06,81132,81133,2023-03-25T16:07:06Z,81136.3,Beweis,ushahidi,s,marudio,kizuizi,mtendaji,sakdjf,NA,NA,NULL,NA,NA,NA,NA,NA,NA,NA,NA,NA,NA,NA,NA,NA,NA,NA,NA,NA,NA,NA
d70bb,Save data screen,canvas.Screen,1_3_0_1,NA,NA,timeout,500.02,81136,81130.12,81136.3,81619.64,81635,2023-03-25T16:07:06Z,81636.32,Beweis,ushahidi,s,marudio,kizuizi,mtendaji,NA,NA,0,NULL,NA,NA,NA,NA,NA,NA,NA,NA,NA,NA,NA,NA,NA,NA,NA,NA,NA,NA,NA
d70bb,deep,flow.Sequence,1_3_0,NA,NA,completion,10957.58,70664,70645.42,70662.06,81619.64,81636,2023-03-25T16:07:06Z,81636.32,Beweis,ushahidi,s,marudio,kizuizi,mtendaji,NA,NA,NA,NULL,NA,NA,NA,NA,NA,NA,NA,NA,NA,NA,NA,NA,NA,NA,NA,NA,NA,NA,NA
d70bb,task,flow.Sequence,1_3,NA,NA,completion,10957.58,70664,70645.42,70662.06,81619.64,81636,2023-03-25T16:07:06Z,81636.32,Beweis,ushahidi,s,marudio,kizuizi,mtendaji,NA,NA,NA,NULL,NA,NA,NA,NA,NA,NA,NA,NA,NA,NA,NA,NA,NA,NA,NA,NA,NA,NA,NA
d70bb,Deep Question,html.Page,1_4_0_0,NA,NA,form submission,12645.68,81637,81619.64,81636.32,94282,94283,2023-03-25T16:07:19Z,94296.3,Sympathie,mapendano,d,dhamiria,fungamano,maazimio,lsadjhfs,NA,NA,NULL,NA,NA,NA,NA,NA,NA,NA,NA,NA,NA,NA,NA,NA,NA,NA,NA,NA,NA,NA
d70bb,Save data screen,canvas.Screen,1_4_0_1,NA,NA,timeout,500.98,94286,94281.4,94296.3,94779.88,94796,2023-03-25T16:07:19Z,94797.28,Sympathie,mapendano,d,dhamiria,fungamano,maazimio,NA,NA,0,NULL,NA,NA,NA,NA,NA,NA,NA,NA,NA,NA,NA,NA,NA,NA,NA,NA,NA,NA,NA
d70bb,deep,flow.Sequence,1_4_0,NA,NA,completion,13143.56,81636,81619.64,81636.32,94779.88,94797,2023-03-25T16:07:19Z,94797.28,Sympathie,mapendano,d,dhamiria,fungamano,maazimio,NA,NA,NA,NULL,NA,NA,NA,NA,NA,NA,NA,NA,NA,NA,NA,NA,NA,NA,NA,NA,NA,NA,NA
d70bb,task,flow.Sequence,1_4,NA,NA,completion,13143.56,81636,81619.64,81636.32,94779.88,94798,2023-03-25T16:07:19Z,94797.28,Sympathie,mapendano,d,dhamiria,fungamano,maazimio,NA,NA,NA,NULL,NA,NA,NA,NA,NA,NA,NA,NA,NA,NA,NA,NA,NA,NA,NA,NA,NA,NA,NA
d70bb,Deep Question,html.Page,1_5_0_0,NA,NA,form submission,8257.72,94798,94779.88,94797.28,103055,103056,2023-03-25T16:07:28Z,103066.76,Wettbewerb,ushindani,s,mapendezi,kichocheo,ubaguzi,idibadi,NA,NA,NULL,NA,NA,NA,NA,NA,NA,NA,NA,NA,NA,NA,NA,NA,NA,NA,NA,NA,NA,NA
d70bb,Save data screen,canvas.Screen,1_5_0_1,NA,NA,timeout,505.54000000001,103059,103054.76,103066.76,103554.76,103572,2023-03-25T16:07:28Z,103572.3,Wettbewerb,ushindani,s,mapendezi,kichocheo,ubaguzi,NA,NA,0,NULL,NA,NA,NA,NA,NA,NA,NA,NA,NA,NA,NA,NA,NA,NA,NA,NA,NA,NA,NA
d70bb,deep,flow.Sequence,1_5_0,NA,NA,completion,8757.48,94798,94779.88,94797.28,103554.76,103573,2023-03-25T16:07:28Z,103572.3,Wettbewerb,ushindani,s,mapendezi,kichocheo,ubaguzi,NA,NA,NA,NULL,NA,NA,NA,NA,NA,NA,NA,NA,NA,NA,NA,NA,NA,NA,NA,NA,NA,NA,NA
d70bb,task,flow.Sequence,1_5,NA,NA,completion,8757.48,94798,94779.88,94797.28,103554.76,103573,2023-03-25T16:07:28Z,103572.3,Wettbewerb,ushindani,s,mapendezi,kichocheo,ubaguzi,NA,NA,NA,NULL,NA,NA,NA,NA,NA,NA,NA,NA,NA,NA,NA,NA,NA,NA,NA,NA,NA,NA,NA
d70bb,Deep Question,html.Page,1_6_0_0,NA,NA,form submission,6864.7,103573,103554.76,103572.3,110437,110438,2023-03-25T16:07:35Z,110441.3,Widerstand,usulubu,d,kusababisha,mwalimu,mwenendo,ubusulu,NA,NA,NULL,NA,NA,NA,NA,NA,NA,NA,NA,NA,NA,NA,NA,NA,NA,NA,NA,NA,NA,NA
d70bb,Save data screen,canvas.Screen,1_6_0_1,NA,NA,timeout,500.95999999999,110440,110436.14,110441.3,110925.6,110944,2023-03-25T16:07:36Z,110942.26,Widerstand,usulubu,d,kusababisha,mwalimu,mwenendo,NA,NA,0,NULL,NA,NA,NA,NA,NA,NA,NA,NA,NA,NA,NA,NA,NA,NA,NA,NA,NA,NA,NA
d70bb,deep,flow.Sequence,1_6_0,NA,NA,completion,7353.3,103573,103554.76,103572.3,110925.6,110945,2023-03-25T16:07:36Z,110942.26,Widerstand,usulubu,d,kusababisha,mwalimu,mwenendo,NA,NA,NA,NULL,NA,NA,NA,NA,NA,NA,NA,NA,NA,NA,NA,NA,NA,NA,NA,NA,NA,NA,NA
d70bb,task,flow.Sequence,1_6,NA,NA,completion,7353.3,103573,103554.76,103572.3,110925.6,110946,2023-03-25T16:07:36Z,110942.26,Widerstand,usulubu,d,kusababisha,mwalimu,mwenendo,NA,NA,NA,NULL,NA,NA,NA,NA,NA,NA,NA,NA,NA,NA,NA,NA,NA,NA,NA,NA,NA,NA,NA
d70bb,Deep Question,html.Page,1_7_0_0,NA,NA,form submission,7449.74,110947,110925.6,110942.26,118392,118393,2023-03-25T16:07:43Z,118396.18,Auftrag,uagizaji,s,ghanima,kuzingatia,msukani,ajaugi,NA,NA,NULL,NA,NA,NA,NA,NA,NA,NA,NA,NA,NA,NA,NA,NA,NA,NA,NA,NA,NA,NA
d70bb,Save data screen,canvas.Screen,1_7_0_1,NA,NA,timeout,503.10000000001,118398,118390.88,118396.18,118883.56,118901,2023-03-25T16:07:43Z,118899.28,Auftrag,uagizaji,s,ghanima,kuzingatia,msukani,NA,NA,0,NULL,NA,NA,NA,NA,NA,NA,NA,NA,NA,NA,NA,NA,NA,NA,NA,NA,NA,NA,NA
d70bb,deep,flow.Sequence,1_7_0,NA,NA,completion,7941.3,110947,110925.6,110942.26,118883.56,118901,2023-03-25T16:07:43Z,118899.28,Auftrag,uagizaji,s,ghanima,kuzingatia,msukani,NA,NA,NA,NULL,NA,NA,NA,NA,NA,NA,NA,NA,NA,NA,NA,NA,NA,NA,NA,NA,NA,NA,NA
d70bb,task,flow.Sequence,1_7,NA,NA,completion,7941.3,110946,110925.6,110942.26,118883.56,118902,2023-03-25T16:07:43Z,118899.28,Auftrag,uagizaji,s,ghanima,kuzingatia,msukani,NA,NA,NA,NULL,NA,NA,NA,NA,NA,NA,NA,NA,NA,NA,NA,NA,NA,NA,NA,NA,NA,NA,NA
d70bb,Deep Question,html.Page,1_8_0_0,NA,NA,form submission,3056.72,118902,118883.56,118899.28,121956,121956,2023-03-25T16:07:47Z,121965.84,Vorsorge,tahadhari,s,ufafanuzi,makini,mashambani,slkajfs,NA,NA,NULL,NA,NA,NA,NA,NA,NA,NA,NA,NA,NA,NA,NA,NA,NA,NA,NA,NA,NA,NA
d70bb,Save data screen,canvas.Screen,1_8_0_1,NA,NA,timeout,500.94,121960,121955.34,121965.84,122449.74,122466,2023-03-25T16:07:47Z,122466.78,Vorsorge,tahadhari,s,ufafanuzi,makini,mashambani,NA,NA,0,NULL,NA,NA,NA,NA,NA,NA,NA,NA,NA,NA,NA,NA,NA,NA,NA,NA,NA,NA,NA
d70bb,deep,flow.Sequence,1_8_0,NA,NA,completion,3550.46,118902,118883.56,118899.28,122449.74,122466,2023-03-25T16:07:47Z,122466.78,Vorsorge,tahadhari,s,ufafanuzi,makini,mashambani,NA,NA,NA,NULL,NA,NA,NA,NA,NA,NA,NA,NA,NA,NA,NA,NA,NA,NA,NA,NA,NA,NA,NA
d70bb,task,flow.Sequence,1_8,NA,NA,completion,3550.46,118902,118883.56,118899.28,122449.74,122467,2023-03-25T16:07:47Z,122466.78,Vorsorge,tahadhari,s,ufafanuzi,makini,mashambani,NA,NA,NA,NULL,NA,NA,NA,NA,NA,NA,NA,NA,NA,NA,NA,NA,NA,NA,NA,NA,NA,NA,NA
d70bb,Deep Question,html.Page,1_9_0_0,NA,NA,form submission,8058.22,122468,122449.74,122466.78,130525,130527,2023-03-25T16:07:55Z,130541.72,Polizist,msongora,s,simanzi,mandhari,nidhamu,mansongo,NA,NA,NULL,NA,NA,NA,NA,NA,NA,NA,NA,NA,NA,NA,NA,NA,NA,NA,NA,NA,NA,NA
d70bb,Save data screen,canvas.Screen,1_9_0_1,NA,NA,timeout,499.94,130529,130524.94,130541.72,131025.04,131043,2023-03-25T16:07:56Z,131041.66,Polizist,msongora,s,simanzi,mandhari,nidhamu,NA,NA,0,NULL,NA,NA,NA,NA,NA,NA,NA,NA,NA,NA,NA,NA,NA,NA,NA,NA,NA,NA,NA
d70bb,deep,flow.Sequence,1_9_0,NA,NA,completion,8558.26,122467,122449.74,122466.78,131025.04,131043,2023-03-25T16:07:56Z,131041.66,Polizist,msongora,s,simanzi,mandhari,nidhamu,NA,NA,NA,NULL,NA,NA,NA,NA,NA,NA,NA,NA,NA,NA,NA,NA,NA,NA,NA,NA,NA,NA,NA
d70bb,task,flow.Sequence,1_9,NA,NA,completion,8558.26,122467,122449.74,122466.78,131025.04,131043,2023-03-25T16:07:56Z,131041.66,Polizist,msongora,s,simanzi,mandhari,nidhamu,NA,NA,NA,NULL,NA,NA,NA,NA,NA,NA,NA,NA,NA,NA,NA,NA,NA,NA,NA,NA,NA,NA,NA
d70bb,Deep Question,html.Page,1_10_0_0,NA,NA,form submission,14986.34,131043,131025.04,131041.66,146028,146028,2023-03-25T16:08:11Z,146036.7,Gelegenheit,wakati,s,mchanganyiko,kipaumbele,kushuku,wakati,NA,NA,NULL,NA,NA,NA,NA,NA,NA,NA,NA,NA,NA,NA,NA,NA,NA,NA,NA,NA,NA,NA
d70bb,Save data screen,canvas.Screen,1_10_0_1,NA,NA,timeout,499.34,146030,146026.8,146036.7,146519.36,146536,2023-03-25T16:08:11Z,146536.04,Gelegenheit,wakati,s,mchanganyiko,kipaumbele,kushuku,NA,NA,1,NULL,NA,NA,NA,NA,NA,NA,NA,NA,NA,NA,NA,NA,NA,NA,NA,NA,NA,NA,NA
d70bb,deep,flow.Sequence,1_10_0,NA,NA,completion,15477.7,131043,131025.04,131041.66,146519.36,146536,2023-03-25T16:08:11Z,146536.04,Gelegenheit,wakati,s,mchanganyiko,kipaumbele,kushuku,NA,NA,NA,NULL,NA,NA,NA,NA,NA,NA,NA,NA,NA,NA,NA,NA,NA,NA,NA,NA,NA,NA,NA
d70bb,task,flow.Sequence,1_10,NA,NA,completion,15477.7,131043,131025.04,131041.66,146519.36,146536,2023-03-25T16:08:11Z,146536.04,Gelegenheit,wakati,s,mchanganyiko,kipaumbele,kushuku,NA,NA,NA,NULL,NA,NA,NA,NA,NA,NA,NA,NA,NA,NA,NA,NA,NA,NA,NA,NA,NA,NA,NA
d70bb,Deep Question,html.Page,1_11_0_0,NA,NA,form submission,24751.96,146537,146519.36,146536.04,171288,171290,2023-03-25T16:08:36Z,171306.3,Verstand,ufahamivu,d,shakawa,hadhari,mhandisi,kjdlsfg,NA,NA,NULL,NA,NA,NA,NA,NA,NA,NA,NA,NA,NA,NA,NA,NA,NA,NA,NA,NA,NA,NA
d70bb,Save data screen,canvas.Screen,1_11_0_1,NA,NA,timeout,499.96000000002,171295,171285.94,171306.3,171789.64,171806,2023-03-25T16:08:36Z,171806.26,Verstand,ufahamivu,d,shakawa,hadhari,mhandisi,NA,NA,0,NULL,NA,NA,NA,NA,NA,NA,NA,NA,NA,NA,NA,NA,NA,NA,NA,NA,NA,NA,NA
d70bb,deep,flow.Sequence,1_11_0,NA,NA,completion,25253.6,146537,146519.36,146536.04,171789.64,171806,2023-03-25T16:08:36Z,171806.26,Verstand,ufahamivu,d,shakawa,hadhari,mhandisi,NA,NA,NA,NULL,NA,NA,NA,NA,NA,NA,NA,NA,NA,NA,NA,NA,NA,NA,NA,NA,NA,NA,NA
d70bb,task,flow.Sequence,1_11,NA,NA,completion,25253.6,146536,146519.36,146536.04,171789.64,171807,2023-03-25T16:08:36Z,171806.26,Verstand,ufahamivu,d,shakawa,hadhari,mhandisi,NA,NA,NA,NULL,NA,NA,NA,NA,NA,NA,NA,NA,NA,NA,NA,NA,NA,NA,NA,NA,NA,NA,NA
d70bb,Deep Question,html.Page,1_12_0_0,NA,NA,form submission,8629.74,171807,171789.64,171806.26,180436,180436,2023-03-25T16:08:45Z,180447.9,Annäherung,maegesho,d,madahili,kujiamini,mapendekezo,mgesho,NA,NA,NULL,NA,NA,NA,NA,NA,NA,NA,NA,NA,NA,NA,NA,NA,NA,NA,NA,NA,NA,NA
d70bb,Save data screen,canvas.Screen,1_12_0_1,NA,NA,timeout,499.98000000001,180440,180435.08,180447.9,180931.22,180948,2023-03-25T16:08:46Z,180947.88,Annäherung,maegesho,d,madahili,kujiamini,mapendekezo,NA,NA,0,NULL,NA,NA,NA,NA,NA,NA,NA,NA,NA,NA,NA,NA,NA,NA,NA,NA,NA,NA,NA
d70bb,deep,flow.Sequence,1_12_0,NA,NA,completion,9124.96,171807,171789.64,171806.26,180931.22,180948,2023-03-25T16:08:46Z,180947.88,Annäherung,maegesho,d,madahili,kujiamini,mapendekezo,NA,NA,NA,NULL,NA,NA,NA,NA,NA,NA,NA,NA,NA,NA,NA,NA,NA,NA,NA,NA,NA,NA,NA
d70bb,task,flow.Sequence,1_12,NA,NA,completion,9124.96,171807,171789.64,171806.26,180931.22,180949,2023-03-25T16:08:46Z,180947.88,Annäherung,maegesho,d,madahili,kujiamini,mapendekezo,NA,NA,NA,NULL,NA,NA,NA,NA,NA,NA,NA,NA,NA,NA,NA,NA,NA,NA,NA,NA,NA,NA,NA
d70bb,Deep Question,html.Page,1_13_0_0,NA,NA,form submission,9612.12,180949,180931.22,180947.88,190560,190560,2023-03-25T16:08:55Z,190572.46,Ausschluss,kutengwa,s,ununuzi,taratibu,madeni,wagata,NA,NA,NULL,NA,NA,NA,NA,NA,NA,NA,NA,NA,NA,NA,NA,NA,NA,NA,NA,NA,NA,NA
d70bb,Save data screen,canvas.Screen,1_13_0_1,NA,NA,timeout,500.26000000001,190564,190559.54,190572.46,191056.68,191073,2023-03-25T16:08:56Z,191072.72,Ausschluss,kutengwa,s,ununuzi,taratibu,madeni,NA,NA,0,NULL,NA,NA,NA,NA,NA,NA,NA,NA,NA,NA,NA,NA,NA,NA,NA,NA,NA,NA,NA
d70bb,deep,flow.Sequence,1_13_0,NA,NA,completion,10108.8,180949,180931.22,180947.88,191056.68,191074,2023-03-25T16:08:56Z,191072.72,Ausschluss,kutengwa,s,ununuzi,taratibu,madeni,NA,NA,NA,NULL,NA,NA,NA,NA,NA,NA,NA,NA,NA,NA,NA,NA,NA,NA,NA,NA,NA,NA,NA
d70bb,task,flow.Sequence,1_13,NA,NA,completion,10108.8,180949,180931.22,180947.88,191056.68,191074,2023-03-25T16:08:56Z,191072.72,Ausschluss,kutengwa,s,ununuzi,taratibu,madeni,NA,NA,NA,NULL,NA,NA,NA,NA,NA,NA,NA,NA,NA,NA,NA,NA,NA,NA,NA,NA,NA,NA,NA
d70bb,Deep Question,html.Page,1_14_0_0,NA,NA,form submission,1751.28,191075,191056.68,191072.72,192824,192824,2023-03-25T16:08:57Z,192839.96,Symbol,kielezo,d,kinyume,nderemo,utayari,slkdjf,NA,NA,NULL,NA,NA,NA,NA,NA,NA,NA,NA,NA,NA,NA,NA,NA,NA,NA,NA,NA,NA,NA
d70bb,Save data screen,canvas.Screen,1_14_0_1,NA,NA,timeout,499.5,192826,192822.86,192839.96,193323.3,193340,2023-03-25T16:08:58Z,193339.46,Symbol,kielezo,d,kinyume,nderemo,utayari,NA,NA,0,NULL,NA,NA,NA,NA,NA,NA,NA,NA,NA,NA,NA,NA,NA,NA,NA,NA,NA,NA,NA
d70bb,deep,flow.Sequence,1_14_0,NA,NA,completion,2250.58,191075,191056.68,191072.72,193323.3,193340,2023-03-25T16:08:58Z,193339.46,Symbol,kielezo,d,kinyume,nderemo,utayari,NA,NA,NA,NULL,NA,NA,NA,NA,NA,NA,NA,NA,NA,NA,NA,NA,NA,NA,NA,NA,NA,NA,NA
d70bb,task,flow.Sequence,1_14,NA,NA,completion,2250.58,191074,191056.68,191072.72,193323.3,193340,2023-03-25T16:08:58Z,193339.46,Symbol,kielezo,d,kinyume,nderemo,utayari,NA,NA,NA,NULL,NA,NA,NA,NA,NA,NA,NA,NA,NA,NA,NA,NA,NA,NA,NA,NA,NA,NA,NA
d70bb,Deep Question,html.Page,1_15_0_0,NA,NA,form submission,14370.54,193340,193323.3,193339.46,207710,207710,2023-03-25T16:09:12Z,207716.5,Schönheit,kirembo,d,mahojiano,msisimko,jitihadi,mbamba,NA,NA,NULL,NA,NA,NA,NA,NA,NA,NA,NA,NA,NA,NA,NA,NA,NA,NA,NA,NA,NA,NA
d70bb,Save data screen,canvas.Screen,1_15_0_1,NA,NA,timeout,500.01999999999,207712,207709.3,207716.5,208200.4,208215,2023-03-25T16:09:13Z,208216.52,Schönheit,kirembo,d,mahojiano,msisimko,jitihadi,NA,NA,0,NULL,NA,NA,NA,NA,NA,NA,NA,NA,NA,NA,NA,NA,NA,NA,NA,NA,NA,NA,NA
d70bb,deep,flow.Sequence,1_15_0,NA,NA,completion,14860.94,193340,193323.3,193339.46,208200.4,208215,2023-03-25T16:09:13Z,208216.52,Schönheit,kirembo,d,mahojiano,msisimko,jitihadi,NA,NA,NA,NULL,NA,NA,NA,NA,NA,NA,NA,NA,NA,NA,NA,NA,NA,NA,NA,NA,NA,NA,NA
d70bb,task,flow.Sequence,1_15,NA,NA,completion,14860.94,193340,193323.3,193339.46,208200.4,208215,2023-03-25T16:09:13Z,208216.52,Schönheit,kirembo,d,mahojiano,msisimko,jitihadi,NA,NA,NA,NULL,NA,NA,NA,NA,NA,NA,NA,NA,NA,NA,NA,NA,NA,NA,NA,NA,NA,NA,NA
d70bb,retrieval block 1 (cued recall),flow.Loop,1,NA,NA,completion,189329.06,18861,18861.46,18871.34,208200.4,208216,2023-03-25T16:09:13Z,208216.52,NA,NA,NA,NA,NA,NA,NA,NA,NA,NULL,NA,NA,NA,NA,NA,NA,NA,NA,NA,NA,NA,NA,NA,NA,NA,NA,NA,NA,NA
d70bb,Shallow Question,html.Page,2_0_0_0,NA,NA,form submission,4051.48,208216,208200.4,208216.52,212268,212269,2023-03-25T16:09:17Z,212270.38,Polizist,msongora,s,simanzi,mandhari,nidhamu,msongora,NA,NA,"c(""distractor1"", ""distractor2"", ""distractor3"")",NA,NA,NA,NA,NA,NA,NA,NA,NA,NA,NA,NA,NA,NA,NA,NA,NA,NA,NA
d70bb,Save data screen,canvas.Screen,2_0_0_1,NA,NA,timeout,500.88,212272,212268.16,212270.38,212754.64,212771,2023-03-25T16:09:17Z,212771.26,Polizist,msongora,s,simanzi,mandhari,nidhamu,NA,NA,1,"c(""distractor1"", ""distractor2"", ""distractor3"")",NA,NA,NA,NA,NA,NA,NA,NA,NA,NA,NA,NA,NA,NA,NA,NA,NA,NA,NA
d70bb,shallow,flow.Sequence,2_0_0,NA,NA,completion,4538.12,208216,208200.4,208216.52,212754.64,212771,2023-03-25T16:09:17Z,212771.26,Polizist,msongora,s,simanzi,mandhari,nidhamu,NA,NA,NA,"c(""distractor1"", ""distractor2"", ""distractor3"")",NA,NA,NA,NA,NA,NA,NA,NA,NA,NA,NA,NA,NA,NA,NA,NA,NA,NA,NA
d70bb,task,flow.Sequence,2_0,NA,NA,completion,4538.12,208216,208200.4,208216.52,212754.64,212772,2023-03-25T16:09:17Z,212771.26,Polizist,msongora,s,simanzi,mandhari,nidhamu,NA,NA,NA,"c(""distractor1"", ""distractor2"", ""distractor3"")",NA,NA,NA,NA,NA,NA,NA,NA,NA,NA,NA,NA,NA,NA,NA,NA,NA,NA,NA
d70bb,Shallow Question,html.Page,2_1_0_0,NA,NA,form submission,4502.74,212772,212754.64,212771.26,217274,217274,2023-03-25T16:09:22Z,217284.9,Sympathie,mapendano,d,dhamiria,fungamano,maazimio,dhamiria,NA,NA,"c(""distractor1"", ""distractor2"", ""distractor3"")",NA,NA,NA,NA,NA,NA,NA,NA,NA,NA,NA,NA,NA,NA,NA,NA,NA,NA,NA
d70bb,Save data screen,canvas.Screen,2_1_0_1,NA,NA,timeout,500.08000000002,217276,217273.04,217284.9,217767.6,217784,2023-03-25T16:09:22Z,217784.98,Sympathie,mapendano,d,dhamiria,fungamano,maazimio,NA,NA,0,"c(""distractor1"", ""distractor2"", ""distractor3"")",NA,NA,NA,NA,NA,NA,NA,NA,NA,NA,NA,NA,NA,NA,NA,NA,NA,NA,NA
d70bb,shallow,flow.Sequence,2_1_0,NA,NA,completion,4996.34,212772,212754.64,212771.26,217767.6,217784,2023-03-25T16:09:22Z,217784.98,Sympathie,mapendano,d,dhamiria,fungamano,maazimio,NA,NA,NA,"c(""distractor1"", ""distractor2"", ""distractor3"")",NA,NA,NA,NA,NA,NA,NA,NA,NA,NA,NA,NA,NA,NA,NA,NA,NA,NA,NA
d70bb,task,flow.Sequence,2_1,NA,NA,completion,4996.34,212772,212754.64,212771.26,217767.6,217785,2023-03-25T16:09:22Z,217784.98,Sympathie,mapendano,d,dhamiria,fungamano,maazimio,NA,NA,NA,"c(""distractor1"", ""distractor2"", ""distractor3"")",NA,NA,NA,NA,NA,NA,NA,NA,NA,NA,NA,NA,NA,NA,NA,NA,NA,NA,NA
d70bb,Shallow Question,html.Page,2_2_0_0,NA,NA,form submission,3292.02,217785,217767.6,217784.98,221077,221078,2023-03-25T16:09:26Z,221090.34,Annäherung,maegesho,d,madahili,kujiamini,mapendekezo,maegesho,NA,NA,"c(""distractor1"", ""distractor2"", ""distractor3"")",NA,NA,NA,NA,NA,NA,NA,NA,NA,NA,NA,NA,NA,NA,NA,NA,NA,NA,NA
d70bb,Save data screen,canvas.Screen,2_2_0_1,NA,NA,timeout,500.14000000001,221080,221077.24,221090.34,221573.76,221591,2023-03-25T16:09:26Z,221590.48,Annäherung,maegesho,d,madahili,kujiamini,mapendekezo,NA,NA,1,"c(""distractor1"", ""distractor2"", ""distractor3"")",NA,NA,NA,NA,NA,NA,NA,NA,NA,NA,NA,NA,NA,NA,NA,NA,NA,NA,NA
d70bb,shallow,flow.Sequence,2_2_0,NA,NA,completion,3788.78,217785,217767.6,217784.98,221573.76,221591,2023-03-25T16:09:26Z,221590.48,Annäherung,maegesho,d,madahili,kujiamini,mapendekezo,NA,NA,NA,"c(""distractor1"", ""distractor2"", ""distractor3"")",NA,NA,NA,NA,NA,NA,NA,NA,NA,NA,NA,NA,NA,NA,NA,NA,NA,NA,NA
d70bb,task,flow.Sequence,2_2,NA,NA,completion,3788.78,217785,217767.6,217784.98,221573.76,221591,2023-03-25T16:09:26Z,221590.48,Annäherung,maegesho,d,madahili,kujiamini,mapendekezo,NA,NA,NA,"c(""distractor1"", ""distractor2"", ""distractor3"")",NA,NA,NA,NA,NA,NA,NA,NA,NA,NA,NA,NA,NA,NA,NA,NA,NA,NA,NA
d70bb,Shallow Question,html.Page,2_3_0_0,NA,NA,form submission,4753.52,221591,221573.76,221590.48,226344,226344,2023-03-25T16:09:31Z,226349.36,Beweis,ushahidi,s,marudio,kizuizi,mtendaji,ushahidi,NA,NA,"c(""distractor1"", ""distractor2"", ""distractor3"")",NA,NA,NA,NA,NA,NA,NA,NA,NA,NA,NA,NA,NA,NA,NA,NA,NA,NA,NA
d70bb,Save data screen,canvas.Screen,2_3_0_1,NA,NA,timeout,500.08000000002,226346,226343.14,226349.36,226832.48,226849,2023-03-25T16:09:31Z,226849.44,Beweis,ushahidi,s,marudio,kizuizi,mtendaji,NA,NA,1,"c(""distractor1"", ""distractor2"", ""distractor3"")",NA,NA,NA,NA,NA,NA,NA,NA,NA,NA,NA,NA,NA,NA,NA,NA,NA,NA,NA
d70bb,shallow,flow.Sequence,2_3_0,NA,NA,completion,5242,221591,221573.76,221590.48,226832.48,226849,2023-03-25T16:09:31Z,226849.44,Beweis,ushahidi,s,marudio,kizuizi,mtendaji,NA,NA,NA,"c(""distractor1"", ""distractor2"", ""distractor3"")",NA,NA,NA,NA,NA,NA,NA,NA,NA,NA,NA,NA,NA,NA,NA,NA,NA,NA,NA
d70bb,task,flow.Sequence,2_3,NA,NA,completion,5242,221591,221573.76,221590.48,226832.48,226849,2023-03-25T16:09:31Z,226849.44,Beweis,ushahidi,s,marudio,kizuizi,mtendaji,NA,NA,NA,"c(""distractor1"", ""distractor2"", ""distractor3"")",NA,NA,NA,NA,NA,NA,NA,NA,NA,NA,NA,NA,NA,NA,NA,NA,NA,NA,NA
d70bb,Shallow Question,html.Page,2_4_0_0,NA,NA,form submission,4440.56,226850,226832.48,226849.44,231290,231290,2023-03-25T16:09:36Z,231293.86,Auftrag,uagizaji,s,ghanima,kuzingatia,msukani,uagizaji,NA,NA,"c(""distractor1"", ""distractor2"", ""distractor3"")",NA,NA,NA,NA,NA,NA,NA,NA,NA,NA,NA,NA,NA,NA,NA,NA,NA,NA,NA
d70bb,Save data screen,canvas.Screen,2_4_0_1,NA,NA,timeout,500.04000000001,231293,231289.6,231293.86,231777.22,231795,2023-03-25T16:09:36Z,231793.9,Auftrag,uagizaji,s,ghanima,kuzingatia,msukani,NA,NA,1,"c(""distractor1"", ""distractor2"", ""distractor3"")",NA,NA,NA,NA,NA,NA,NA,NA,NA,NA,NA,NA,NA,NA,NA,NA,NA,NA,NA
d70bb,shallow,flow.Sequence,2_4_0,NA,NA,completion,4927.78,226850,226832.48,226849.44,231777.22,231796,2023-03-25T16:09:36Z,231793.9,Auftrag,uagizaji,s,ghanima,kuzingatia,msukani,NA,NA,NA,"c(""distractor1"", ""distractor2"", ""distractor3"")",NA,NA,NA,NA,NA,NA,NA,NA,NA,NA,NA,NA,NA,NA,NA,NA,NA,NA,NA
d70bb,task,flow.Sequence,2_4,NA,NA,completion,4927.78,226850,226832.48,226849.44,231777.22,231797,2023-03-25T16:09:36Z,231793.9,Auftrag,uagizaji,s,ghanima,kuzingatia,msukani,NA,NA,NA,"c(""distractor1"", ""distractor2"", ""distractor3"")",NA,NA,NA,NA,NA,NA,NA,NA,NA,NA,NA,NA,NA,NA,NA,NA,NA,NA,NA
d70bb,Shallow Question,html.Page,2_5_0_0,NA,NA,form submission,2267.1,231797,231777.22,231793.9,234061,234061,2023-03-25T16:09:39Z,234063.9,Widerstand,usulubu,d,kusababisha,mwalimu,mwenendo,usulubu,NA,NA,"c(""distractor1"", ""distractor2"", ""distractor3"")",NA,NA,NA,NA,NA,NA,NA,NA,NA,NA,NA,NA,NA,NA,NA,NA,NA,NA,NA
d70bb,Save data screen,canvas.Screen,2_5_0_1,NA,NA,timeout,500.02000000002,234065,234059.9,234063.9,234547.26,234565,2023-03-25T16:09:39Z,234563.92,Widerstand,usulubu,d,kusababisha,mwalimu,mwenendo,NA,NA,1,"c(""distractor1"", ""distractor2"", ""distractor3"")",NA,NA,NA,NA,NA,NA,NA,NA,NA,NA,NA,NA,NA,NA,NA,NA,NA,NA,NA
d70bb,shallow,flow.Sequence,2_5_0,NA,NA,completion,2753.36,231797,231777.22,231793.9,234547.26,234566,2023-03-25T16:09:39Z,234563.92,Widerstand,usulubu,d,kusababisha,mwalimu,mwenendo,NA,NA,NA,"c(""distractor1"", ""distractor2"", ""distractor3"")",NA,NA,NA,NA,NA,NA,NA,NA,NA,NA,NA,NA,NA,NA,NA,NA,NA,NA,NA
d70bb,task,flow.Sequence,2_5,NA,NA,completion,2753.36,231797,231777.22,231793.9,234547.26,234566,2023-03-25T16:09:39Z,234563.92,Widerstand,usulubu,d,kusababisha,mwalimu,mwenendo,NA,NA,NA,"c(""distractor1"", ""distractor2"", ""distractor3"")",NA,NA,NA,NA,NA,NA,NA,NA,NA,NA,NA,NA,NA,NA,NA,NA,NA,NA,NA
d70bb,Shallow Question,html.Page,2_6_0_0,NA,NA,form submission,5829.08,234566,234547.26,234563.92,240393,240393,2023-03-25T16:09:45Z,240400.2,Zufall,kikuti,d,kukosekana,uchoraji,leseni,kikuti,NA,NA,"c(""distractor1"", ""distractor2"", ""distractor3"")",NA,NA,NA,NA,NA,NA,NA,NA,NA,NA,NA,NA,NA,NA,NA,NA,NA,NA,NA
d70bb,Save data screen,canvas.Screen,2_6_0_1,NA,NA,timeout,500.07999999999,240396,240392.22,240400.2,240883.68,240901,2023-03-25T16:09:45Z,240900.28,Zufall,kikuti,d,kukosekana,uchoraji,leseni,NA,NA,1,"c(""distractor1"", ""distractor2"", ""distractor3"")",NA,NA,NA,NA,NA,NA,NA,NA,NA,NA,NA,NA,NA,NA,NA,NA,NA,NA,NA
d70bb,shallow,flow.Sequence,2_6_0,NA,NA,completion,6319.76,234566,234547.26,234563.92,240883.68,240901,2023-03-25T16:09:45Z,240900.28,Zufall,kikuti,d,kukosekana,uchoraji,leseni,NA,NA,NA,"c(""distractor1"", ""distractor2"", ""distractor3"")",NA,NA,NA,NA,NA,NA,NA,NA,NA,NA,NA,NA,NA,NA,NA,NA,NA,NA,NA
d70bb,task,flow.Sequence,2_6,NA,NA,completion,6319.76,234566,234547.26,234563.92,240883.68,240902,2023-03-25T16:09:45Z,240900.28,Zufall,kikuti,d,kukosekana,uchoraji,leseni,NA,NA,NA,"c(""distractor1"", ""distractor2"", ""distractor3"")",NA,NA,NA,NA,NA,NA,NA,NA,NA,NA,NA,NA,NA,NA,NA,NA,NA,NA,NA
d70bb,Shallow Question,html.Page,2_7_0_0,NA,NA,form submission,4039.72,240902,240883.68,240900.28,244940,244940,2023-03-25T16:09:50Z,244946.66,Schönheit,kirembo,d,mahojiano,msisimko,jitihadi,kirembo,NA,NA,"c(""distractor1"", ""distractor2"", ""distractor3"")",NA,NA,NA,NA,NA,NA,NA,NA,NA,NA,NA,NA,NA,NA,NA,NA,NA,NA,NA
d70bb,Save data screen,canvas.Screen,2_7_0_1,NA,NA,timeout,500.94,244942,244938.84,244946.66,245430.98,245448,2023-03-25T16:09:50Z,245447.6,Schönheit,kirembo,d,mahojiano,msisimko,jitihadi,NA,NA,1,"c(""distractor1"", ""distractor2"", ""distractor3"")",NA,NA,NA,NA,NA,NA,NA,NA,NA,NA,NA,NA,NA,NA,NA,NA,NA,NA,NA
d70bb,shallow,flow.Sequence,2_7_0,NA,NA,completion,4530.7,240902,240883.68,240900.28,245430.98,245448,2023-03-25T16:09:50Z,245447.6,Schönheit,kirembo,d,mahojiano,msisimko,jitihadi,NA,NA,NA,"c(""distractor1"", ""distractor2"", ""distractor3"")",NA,NA,NA,NA,NA,NA,NA,NA,NA,NA,NA,NA,NA,NA,NA,NA,NA,NA,NA
d70bb,task,flow.Sequence,2_7,NA,NA,completion,4530.7,240902,240883.68,240900.28,245430.98,245448,2023-03-25T16:09:50Z,245447.6,Schönheit,kirembo,d,mahojiano,msisimko,jitihadi,NA,NA,NA,"c(""distractor1"", ""distractor2"", ""distractor3"")",NA,NA,NA,NA,NA,NA,NA,NA,NA,NA,NA,NA,NA,NA,NA,NA,NA,NA,NA
d70bb,Shallow Question,html.Page,2_8_0_0,NA,NA,form submission,2728.4,245448,245430.98,245447.6,248176,248176,2023-03-25T16:09:53Z,248180.08,Vorsorge,tahadhari,s,ufafanuzi,makini,mashambani,tahadhari,NA,NA,"c(""distractor1"", ""distractor2"", ""distractor3"")",NA,NA,NA,NA,NA,NA,NA,NA,NA,NA,NA,NA,NA,NA,NA,NA,NA,NA,NA
d70bb,Save data screen,canvas.Screen,2_8_0_1,NA,NA,timeout,506.30000000002,248178,248174.7,248180.08,248669.66,248685,2023-03-25T16:09:53Z,248686.38,Vorsorge,tahadhari,s,ufafanuzi,makini,mashambani,NA,NA,1,"c(""distractor1"", ""distractor2"", ""distractor3"")",NA,NA,NA,NA,NA,NA,NA,NA,NA,NA,NA,NA,NA,NA,NA,NA,NA,NA,NA
d70bb,shallow,flow.Sequence,2_8_0,NA,NA,completion,3222.06,245448,245430.98,245447.6,248669.66,248685,2023-03-25T16:09:53Z,248686.38,Vorsorge,tahadhari,s,ufafanuzi,makini,mashambani,NA,NA,NA,"c(""distractor1"", ""distractor2"", ""distractor3"")",NA,NA,NA,NA,NA,NA,NA,NA,NA,NA,NA,NA,NA,NA,NA,NA,NA,NA,NA
d70bb,task,flow.Sequence,2_8,NA,NA,completion,3222.06,245448,245430.98,245447.6,248669.66,248685,2023-03-25T16:09:53Z,248686.38,Vorsorge,tahadhari,s,ufafanuzi,makini,mashambani,NA,NA,NA,"c(""distractor1"", ""distractor2"", ""distractor3"")",NA,NA,NA,NA,NA,NA,NA,NA,NA,NA,NA,NA,NA,NA,NA,NA,NA,NA,NA
d70bb,Shallow Question,html.Page,2_9_0_0,NA,NA,form submission,2967.62,248686,248669.66,248686.38,251654,251654,2023-03-25T16:09:56Z,251668.9,Wettbewerb,ushindani,s,mapendezi,kichocheo,ubaguzi,ushindani,NA,NA,"c(""distractor1"", ""distractor2"", ""distractor3"")",NA,NA,NA,NA,NA,NA,NA,NA,NA,NA,NA,NA,NA,NA,NA,NA,NA,NA,NA
d70bb,Save data screen,canvas.Screen,2_9_0_1,NA,NA,timeout,499.26000000001,251656,251653.28,251668.9,252152.12,252163,2023-03-25T16:09:57Z,252168.16,Wettbewerb,ushindani,s,mapendezi,kichocheo,ubaguzi,NA,NA,1,"c(""distractor1"", ""distractor2"", ""distractor3"")",NA,NA,NA,NA,NA,NA,NA,NA,NA,NA,NA,NA,NA,NA,NA,NA,NA,NA,NA
d70bb,shallow,flow.Sequence,2_9_0,NA,NA,completion,3465.74,248686,248669.66,248686.38,252152.12,252163,2023-03-25T16:09:57Z,252168.16,Wettbewerb,ushindani,s,mapendezi,kichocheo,ubaguzi,NA,NA,NA,"c(""distractor1"", ""distractor2"", ""distractor3"")",NA,NA,NA,NA,NA,NA,NA,NA,NA,NA,NA,NA,NA,NA,NA,NA,NA,NA,NA
d70bb,task,flow.Sequence,2_9,NA,NA,completion,3465.74,248685,248669.66,248686.38,252152.12,252163,2023-03-25T16:09:57Z,252168.16,Wettbewerb,ushindani,s,mapendezi,kichocheo,ubaguzi,NA,NA,NA,"c(""distractor1"", ""distractor2"", ""distractor3"")",NA,NA,NA,NA,NA,NA,NA,NA,NA,NA,NA,NA,NA,NA,NA,NA,NA,NA,NA
d70bb,Shallow Question,html.Page,2_10_0_0,NA,NA,form submission,5915.84,252163,252152.12,252168.16,258084,258085,2023-03-25T16:10:03Z,258086.76,Ausschluss,kutengwa,s,ununuzi,taratibu,madeni,kutengwa,NA,NA,"c(""distractor1"", ""distractor2"", ""distractor3"")",NA,NA,NA,NA,NA,NA,NA,NA,NA,NA,NA,NA,NA,NA,NA,NA,NA,NA,NA
d70bb,Save data screen,canvas.Screen,2_10_0_1,NA,NA,timeout,504.44,258090,258082.8,258086.76,258574.04,258591,2023-03-25T16:10:03Z,258591.2,Ausschluss,kutengwa,s,ununuzi,taratibu,madeni,NA,NA,1,"c(""distractor1"", ""distractor2"", ""distractor3"")",NA,NA,NA,NA,NA,NA,NA,NA,NA,NA,NA,NA,NA,NA,NA,NA,NA,NA,NA
d70bb,shallow,flow.Sequence,2_10_0,NA,NA,completion,6405.88,252163,252152.12,252168.16,258574.04,258592,2023-03-25T16:10:03Z,258591.2,Ausschluss,kutengwa,s,ununuzi,taratibu,madeni,NA,NA,NA,"c(""distractor1"", ""distractor2"", ""distractor3"")",NA,NA,NA,NA,NA,NA,NA,NA,NA,NA,NA,NA,NA,NA,NA,NA,NA,NA,NA
d70bb,task,flow.Sequence,2_10,NA,NA,completion,6405.88,252163,252152.12,252168.16,258574.04,258592,2023-03-25T16:10:03Z,258591.2,Ausschluss,kutengwa,s,ununuzi,taratibu,madeni,NA,NA,NA,"c(""distractor1"", ""distractor2"", ""distractor3"")",NA,NA,NA,NA,NA,NA,NA,NA,NA,NA,NA,NA,NA,NA,NA,NA,NA,NA,NA
d70bb,Shallow Question,html.Page,2_11_0_0,NA,NA,form submission,5339.8,258593,258574.04,258591.2,263931,263931,2023-03-25T16:10:09Z,263945.58,Konkurrent,mshindani,s,msemaji,mvutaji,kipukusa,mshindani,NA,NA,"c(""distractor1"", ""distractor2"", ""distractor3"")",NA,NA,NA,NA,NA,NA,NA,NA,NA,NA,NA,NA,NA,NA,NA,NA,NA,NA,NA
d70bb,Save data screen,canvas.Screen,2_11_0_1,NA,NA,timeout,500,263933,263929.54,263945.58,264428.94,264445,2023-03-25T16:10:09Z,264445.58,Konkurrent,mshindani,s,msemaji,mvutaji,kipukusa,NA,NA,1,"c(""distractor1"", ""distractor2"", ""distractor3"")",NA,NA,NA,NA,NA,NA,NA,NA,NA,NA,NA,NA,NA,NA,NA,NA,NA,NA,NA
d70bb,shallow,flow.Sequence,2_11_0,NA,NA,completion,5837.74,258593,258574.04,258591.2,264428.94,264446,2023-03-25T16:10:09Z,264445.58,Konkurrent,mshindani,s,msemaji,mvutaji,kipukusa,NA,NA,NA,"c(""distractor1"", ""distractor2"", ""distractor3"")",NA,NA,NA,NA,NA,NA,NA,NA,NA,NA,NA,NA,NA,NA,NA,NA,NA,NA,NA
d70bb,task,flow.Sequence,2_11,NA,NA,completion,5837.74,258593,258574.04,258591.2,264428.94,264447,2023-03-25T16:10:09Z,264445.58,Konkurrent,mshindani,s,msemaji,mvutaji,kipukusa,NA,NA,NA,"c(""distractor1"", ""distractor2"", ""distractor3"")",NA,NA,NA,NA,NA,NA,NA,NA,NA,NA,NA,NA,NA,NA,NA,NA,NA,NA,NA
d70bb,Shallow Question,html.Page,2_12_0_0,NA,NA,form submission,4373.42,264447,264428.94,264445.58,268819,268819,2023-03-25T16:10:13Z,268833.5,Zuwachs,nyongeza,d,matilaba,udhibiti,hudhurio,nyongeza,NA,NA,"c(""distractor1"", ""distractor2"", ""distractor3"")",NA,NA,NA,NA,NA,NA,NA,NA,NA,NA,NA,NA,NA,NA,NA,NA,NA,NA,NA
d70bb,Save data screen,canvas.Screen,2_12_0_1,NA,NA,timeout,499.34000000003,268822,268818.04,268833.5,269316.2,269332,2023-03-25T16:10:14Z,269332.84,Zuwachs,nyongeza,d,matilaba,udhibiti,hudhurio,NA,NA,1,"c(""distractor1"", ""distractor2"", ""distractor3"")",NA,NA,NA,NA,NA,NA,NA,NA,NA,NA,NA,NA,NA,NA,NA,NA,NA,NA,NA
d70bb,shallow,flow.Sequence,2_12_0,NA,NA,completion,4870.62,264447,264428.94,264445.58,269316.2,269333,2023-03-25T16:10:14Z,269332.84,Zuwachs,nyongeza,d,matilaba,udhibiti,hudhurio,NA,NA,NA,"c(""distractor1"", ""distractor2"", ""distractor3"")",NA,NA,NA,NA,NA,NA,NA,NA,NA,NA,NA,NA,NA,NA,NA,NA,NA,NA,NA
d70bb,task,flow.Sequence,2_12,NA,NA,completion,4870.62,264447,264428.94,264445.58,269316.2,269334,2023-03-25T16:10:14Z,269332.84,Zuwachs,nyongeza,d,matilaba,udhibiti,hudhurio,NA,NA,NA,"c(""distractor1"", ""distractor2"", ""distractor3"")",NA,NA,NA,NA,NA,NA,NA,NA,NA,NA,NA,NA,NA,NA,NA,NA,NA,NA,NA
d70bb,Shallow Question,html.Page,2_13_0_0,NA,NA,form submission,12341.16,269334,269316.2,269332.84,281674,281674,2023-03-25T16:10:26Z,281689.08,Symbol,kielezo,d,kinyume,nderemo,utayari,kielezo,NA,NA,"c(""distractor1"", ""distractor2"", ""distractor3"")",NA,NA,NA,NA,NA,NA,NA,NA,NA,NA,NA,NA,NA,NA,NA,NA,NA,NA,NA
d70bb,Save data screen,canvas.Screen,2_13_0_1,NA,NA,timeout,499.95999999996,281676,281672.92,281689.08,282172.1,282187,2023-03-25T16:10:27Z,282189.04,Symbol,kielezo,d,kinyume,nderemo,utayari,NA,NA,1,"c(""distractor1"", ""distractor2"", ""distractor3"")",NA,NA,NA,NA,NA,NA,NA,NA,NA,NA,NA,NA,NA,NA,NA,NA,NA,NA,NA
d70bb,shallow,flow.Sequence,2_13_0,NA,NA,completion,12839.26,269334,269316.2,269332.84,282172.1,282187,2023-03-25T16:10:27Z,282189.04,Symbol,kielezo,d,kinyume,nderemo,utayari,NA,NA,NA,"c(""distractor1"", ""distractor2"", ""distractor3"")",NA,NA,NA,NA,NA,NA,NA,NA,NA,NA,NA,NA,NA,NA,NA,NA,NA,NA,NA
d70bb,task,flow.Sequence,2_13,NA,NA,completion,12839.26,269334,269316.2,269332.84,282172.1,282187,2023-03-25T16:10:27Z,282189.04,Symbol,kielezo,d,kinyume,nderemo,utayari,NA,NA,NA,"c(""distractor1"", ""distractor2"", ""distractor3"")",NA,NA,NA,NA,NA,NA,NA,NA,NA,NA,NA,NA,NA,NA,NA,NA,NA,NA,NA
d70bb,Shallow Question,html.Page,2_14_0_0,NA,NA,form submission,3794.96,282188,282172.1,282189.04,285984,285984,2023-03-25T16:10:31Z,285999.24,Verstand,ufahamivu,d,shakawa,hadhari,mhandisi,ufahamivu,NA,NA,"c(""distractor1"", ""distractor2"", ""distractor3"")",NA,NA,NA,NA,NA,NA,NA,NA,NA,NA,NA,NA,NA,NA,NA,NA,NA,NA,NA
d70bb,Save data screen,canvas.Screen,2_14_0_1,NA,NA,timeout,499.26000000001,285987,285982.82,285999.24,286482.26,286498,2023-03-25T16:10:31Z,286498.5,Verstand,ufahamivu,d,shakawa,hadhari,mhandisi,NA,NA,1,"c(""distractor1"", ""distractor2"", ""distractor3"")",NA,NA,NA,NA,NA,NA,NA,NA,NA,NA,NA,NA,NA,NA,NA,NA,NA,NA,NA
d70bb,shallow,flow.Sequence,2_14_0,NA,NA,completion,4293.22,282187,282172.1,282189.04,286482.26,286498,2023-03-25T16:10:31Z,286498.5,Verstand,ufahamivu,d,shakawa,hadhari,mhandisi,NA,NA,NA,"c(""distractor1"", ""distractor2"", ""distractor3"")",NA,NA,NA,NA,NA,NA,NA,NA,NA,NA,NA,NA,NA,NA,NA,NA,NA,NA,NA
d70bb,task,flow.Sequence,2_14,NA,NA,completion,4293.22,282187,282172.1,282189.04,286482.26,286498,2023-03-25T16:10:31Z,286498.5,Verstand,ufahamivu,d,shakawa,hadhari,mhandisi,NA,NA,NA,"c(""distractor1"", ""distractor2"", ""distractor3"")",NA,NA,NA,NA,NA,NA,NA,NA,NA,NA,NA,NA,NA,NA,NA,NA,NA,NA,NA
d70bb,Shallow Question,html.Page,2_15_0_0,NA,NA,form submission,2619.5,286498,286482.26,286498.5,289118,289118,2023-03-25T16:10:34Z,289118.96,Gelegenheit,wakati,s,mchanganyiko,kipaumbele,kushuku,wakati,NA,NA,"c(""distractor1"", ""distractor2"", ""distractor3"")",NA,NA,NA,NA,NA,NA,NA,NA,NA,NA,NA,NA,NA,NA,NA,NA,NA,NA,NA
d70bb,Save data screen,canvas.Screen,2_15_0_1,NA,NA,timeout,500.94,289120,289117.3,289118.96,289603.26,289620,2023-03-25T16:10:34Z,289619.9,Gelegenheit,wakati,s,mchanganyiko,kipaumbele,kushuku,NA,NA,1,"c(""distractor1"", ""distractor2"", ""distractor3"")",NA,NA,NA,NA,NA,NA,NA,NA,NA,NA,NA,NA,NA,NA,NA,NA,NA,NA,NA
d70bb,shallow,flow.Sequence,2_15_0,NA,NA,completion,3104.76,286498,286482.26,286498.5,289603.26,289621,2023-03-25T16:10:34Z,289619.9,Gelegenheit,wakati,s,mchanganyiko,kipaumbele,kushuku,NA,NA,NA,"c(""distractor1"", ""distractor2"", ""distractor3"")",NA,NA,NA,NA,NA,NA,NA,NA,NA,NA,NA,NA,NA,NA,NA,NA,NA,NA,NA
d70bb,task,flow.Sequence,2_15,NA,NA,completion,3104.76,286498,286482.26,286498.5,289603.26,289621,2023-03-25T16:10:34Z,289619.9,Gelegenheit,wakati,s,mchanganyiko,kipaumbele,kushuku,NA,NA,NA,"c(""distractor1"", ""distractor2"", ""distractor3"")",NA,NA,NA,NA,NA,NA,NA,NA,NA,NA,NA,NA,NA,NA,NA,NA,NA,NA,NA
d70bb,retrieval block 2 (multiple choice),flow.Loop,2,NA,NA,completion,81386.74,208216,208200.4,208216.52,289603.26,289621,2023-03-25T16:10:34Z,289619.9,NA,NA,NA,NA,NA,NA,NA,NA,NA,"c(""distractor1"", ""distractor2"", ""distractor3"")",NA,NA,NA,NA,NA,NA,NA,NA,NA,NA,NA,NA,NA,NA,NA,NA,NA,NA,NA
d70bb,End,canvas.Screen,3,NA,keypress(Space),response,1300.1,289621,289603.26,289619.9,290920,290947,2023-03-25T16:10:36Z,290953.2,NA,NA,NA,NA,NA,NA,NA,NA,NA,NULL,NA,NA,NA,NA,NA,NA,NA,NA,NA,NA,NA,NA,NA,NA,NA,NA,NA,NA,NA
d70bb,root,flow.Sequence,NA,NA,NA,completion,289230.92,1664,1672.7,1689.08,290920,290948,2023-03-25T16:10:36Z,290953.2,NA,NA,NA,NA,NA,NA,NA,NA,NA,NULL,NA,NA,NA,NA,NA,NA,NA,NA,NA,NA,NA,NA,NA,NA,NA,NA,NA,NA,NA
