observation,sender,sender_type,sender_id,response,response_action,ended_on,duration,time_run,time_render,time_show,time_end,time_commit,timestamp,time_switch,distractors,german,swahili,enc,distractor1,distractor2,distractor3,response_2,x,correct,x_2,url_vp,url_sess,meta_labjs_version,meta_location,meta_user_agent,meta_platform,meta_language,meta_locale,meta_time_zone,meta_timezone_offset,meta_screen_width,meta_screen_height,meta_scroll_width,meta_scroll_height,meta_window_inner_width,meta_window_inner_height,meta_device_pixel_ratio,meta_labjs_build_flavor,meta_labjs_build_commit
3c4bc,Introduction general,canvas.Screen,0,weiter,keypress(q),response,1267620.4,433.20000000019,391.968,425.3,1268045.7,1268073.2,2023-03-23T13:04:16Z,1268073.791,NULL,NA,NA,NA,NA,NA,NA,NA,NA,NA,NA,114,3,20.2.4,https://neurocog.fernuni.ch/studies/vweber/encoding_immediate/index.html?vp=114&sess=3,"Mozilla/5.0 (Macintosh; Intel Mac OS X 10_15_7) AppleWebKit/537.36 (KHTML, like Gecko) Chrome/111.0.0.0 Safari/537.36",MacIntel,de-DE,de,Europe/Zurich,-60,1440,900,1360,660,1360,708,2,production,f5b4a49f956347addd546a832a3327688c2c0fef
3c4bc,Introduction practice,canvas.Screen,1_0,NA,keypress(Space),response,2414.5089999998,1268073.4,1268057.125,1268073.791,1270488.3,1270491.4,2023-03-23T13:04:19Z,1270507.881,NULL,NA,NA,NA,NA,NA,NA,NA,NA,NA,NA,NA,NA,NA,NA,NA,NA,NA,NA,NA,NA,NA,NA,NA,NA,NA,NA,NA,NA,NA
3c4bc,Deep Question,html.Page,1_1_0_0_0,NA,NA,form submission,7247.3190000001,1270491.9,1270491.215,1270507.881,1277755.2,1277755.7,2023-03-23T13:04:26Z,1277757.591,"c(""distractor1"", ""distractor2"", ""distractor3"")",Qualität,mtindo,d,NA,NA,NA,gsgsd,NA,NA,NA,NA,NA,NA,NA,NA,NA,NA,NA,NA,NA,NA,NA,NA,NA,NA,NA,NA,NA,NA
3c4bc,"""Richtig""-Screen",canvas.Screen,1_1_0_0_1,NA,NA,skipped,NA,1277757.3,NA,NA,1277755.2,1277757.4,2023-03-23T13:04:26Z,1277757.591,"c(""distractor1"", ""distractor2"", ""distractor3"")",Qualität,mtindo,d,NA,NA,NA,NA,NA,NA,NA,NA,NA,NA,NA,NA,NA,NA,NA,NA,NA,NA,NA,NA,NA,NA,NA,NA,NA,NA
3c4bc,"""Falsch""-Screen",canvas.Screen,1_1_0_0_2,NA,NA,timeout,4999.8,1277758,1277740.925,1277757.591,1282740.725,1282747.1,2023-03-23T13:04:31Z,1282757.391,"c(""distractor1"", ""distractor2"", ""distractor3"")",Qualität,mtindo,d,NA,NA,NA,NA,NA,0,NA,NA,NA,NA,NA,NA,NA,NA,NA,NA,NA,NA,NA,NA,NA,NA,NA,NA,NA,NA
3c4bc,deep,flow.Sequence,1_1_0_0,NA,NA,completion,12232.844,1270491.9,1270491.215,1270507.881,1282740.725,1282747.4,2023-03-23T13:04:31Z,1282757.391,"c(""distractor1"", ""distractor2"", ""distractor3"")",Qualität,mtindo,d,NA,NA,NA,NA,NA,NA,NA,NA,NA,NA,NA,NA,NA,NA,NA,NA,NA,NA,NA,NA,NA,NA,NA,NA,NA,NA
3c4bc,shallow,flow.Sequence,1_1_0_1,NA,NA,skipped,NA,1282747.6,NA,NA,1282740.725,1282747.7,2023-03-23T13:04:31Z,1282757.391,"c(""distractor1"", ""distractor2"", ""distractor3"")",Qualität,mtindo,d,NA,NA,NA,NA,NA,NA,NA,NA,NA,NA,NA,NA,NA,NA,NA,NA,NA,NA,NA,NA,NA,NA,NA,NA,NA,NA
3c4bc,task,flow.Sequence,1_1_0,NA,NA,completion,12232.844,1270491.8,1270491.215,1270507.881,1282740.725,1282747.8,2023-03-23T13:04:31Z,1282757.391,"c(""distractor1"", ""distractor2"", ""distractor3"")",Qualität,mtindo,d,NA,NA,NA,NA,NA,NA,NA,NA,NA,NA,NA,NA,NA,NA,NA,NA,NA,NA,NA,NA,NA,NA,NA,NA,NA,NA
3c4bc,Deep Question,html.Page,1_1_1_0_0,NA,NA,form submission,4395.1089999999,1282748,1282740.725,1282757.391,1287152.5,1287153.2,2023-03-23T13:04:36Z,1287157.978,"c(""distractor1"", ""distractor2"", ""distractor3"")",Schatten,kivuli,d,NA,NA,NA,shfd,NA,NA,NA,NA,NA,NA,NA,NA,NA,NA,NA,NA,NA,NA,NA,NA,NA,NA,NA,NA,NA,NA
3c4bc,"""Richtig""-Screen",canvas.Screen,1_1_1_0_1,NA,NA,skipped,NA,1287156,NA,NA,1287152.5,1287156.2,2023-03-23T13:04:36Z,1287157.978,"c(""distractor1"", ""distractor2"", ""distractor3"")",Schatten,kivuli,d,NA,NA,NA,NA,NA,NA,NA,NA,NA,NA,NA,NA,NA,NA,NA,NA,NA,NA,NA,NA,NA,NA,NA,NA,NA,NA
3c4bc,"""Falsch""-Screen",canvas.Screen,1_1_1_0_2,NA,NA,timeout,4999.8,1287157.3,1287141.312,1287157.978,1292141.112,1292146.5,2023-03-23T13:04:41Z,1292157.778,"c(""distractor1"", ""distractor2"", ""distractor3"")",Schatten,kivuli,d,NA,NA,NA,NA,NA,0,NA,NA,NA,NA,NA,NA,NA,NA,NA,NA,NA,NA,NA,NA,NA,NA,NA,NA,NA,NA
3c4bc,deep,flow.Sequence,1_1_1_0,NA,NA,completion,9383.7209999999,1282748,1282740.725,1282757.391,1292141.112,1292147,2023-03-23T13:04:41Z,1292157.778,"c(""distractor1"", ""distractor2"", ""distractor3"")",Schatten,kivuli,d,NA,NA,NA,NA,NA,NA,NA,NA,NA,NA,NA,NA,NA,NA,NA,NA,NA,NA,NA,NA,NA,NA,NA,NA,NA,NA
3c4bc,shallow,flow.Sequence,1_1_1_1,NA,NA,skipped,NA,1292147.2,NA,NA,1292141.112,1292147.4,2023-03-23T13:04:41Z,1292157.778,"c(""distractor1"", ""distractor2"", ""distractor3"")",Schatten,kivuli,d,NA,NA,NA,NA,NA,NA,NA,NA,NA,NA,NA,NA,NA,NA,NA,NA,NA,NA,NA,NA,NA,NA,NA,NA,NA,NA
3c4bc,task,flow.Sequence,1_1_1,NA,NA,completion,9383.7209999999,1282747.9,1282740.725,1282757.391,1292141.112,1292147.6,2023-03-23T13:04:41Z,1292157.778,"c(""distractor1"", ""distractor2"", ""distractor3"")",Schatten,kivuli,d,NA,NA,NA,NA,NA,NA,NA,NA,NA,NA,NA,NA,NA,NA,NA,NA,NA,NA,NA,NA,NA,NA,NA,NA,NA,NA
3c4bc,Deep Question,html.Page,1_1_2_0_0,NA,NA,form submission,5240.9220000003,1292147.9,1292141.112,1292157.778,1297398.7,1297399.3,2023-03-23T13:04:46Z,1297408.129,"c(""distractor1"", ""distractor2"", ""distractor3"")",Gesundheit,salama,d,NA,NA,NA,healg,NA,NA,NA,NA,NA,NA,NA,NA,NA,NA,NA,NA,NA,NA,NA,NA,NA,NA,NA,NA,NA,NA
3c4bc,"""Richtig""-Screen",canvas.Screen,1_1_2_0_1,NA,NA,skipped,NA,1297402.5,NA,NA,1297398.7,1297402.6,2023-03-23T13:04:46Z,1297408.129,"c(""distractor1"", ""distractor2"", ""distractor3"")",Gesundheit,salama,d,NA,NA,NA,NA,NA,NA,NA,NA,NA,NA,NA,NA,NA,NA,NA,NA,NA,NA,NA,NA,NA,NA,NA,NA,NA,NA
3c4bc,"""Falsch""-Screen",canvas.Screen,1_1_2_0_2,NA,NA,timeout,4999.8,1297403.6,1297391.463,1297408.129,1302391.263,1302396.3,2023-03-23T13:04:51Z,1302407.929,"c(""distractor1"", ""distractor2"", ""distractor3"")",Gesundheit,salama,d,NA,NA,NA,NA,NA,0,NA,NA,NA,NA,NA,NA,NA,NA,NA,NA,NA,NA,NA,NA,NA,NA,NA,NA,NA,NA
3c4bc,deep,flow.Sequence,1_1_2_0,NA,NA,completion,10233.485,1292147.9,1292141.112,1292157.778,1302391.263,1302396.6,2023-03-23T13:04:51Z,1302407.929,"c(""distractor1"", ""distractor2"", ""distractor3"")",Gesundheit,salama,d,NA,NA,NA,NA,NA,NA,NA,NA,NA,NA,NA,NA,NA,NA,NA,NA,NA,NA,NA,NA,NA,NA,NA,NA,NA,NA
3c4bc,shallow,flow.Sequence,1_1_2_1,NA,NA,skipped,NA,1302396.8,NA,NA,1302391.263,1302397,2023-03-23T13:04:51Z,1302407.929,"c(""distractor1"", ""distractor2"", ""distractor3"")",Gesundheit,salama,d,NA,NA,NA,NA,NA,NA,NA,NA,NA,NA,NA,NA,NA,NA,NA,NA,NA,NA,NA,NA,NA,NA,NA,NA,NA,NA
3c4bc,task,flow.Sequence,1_1_2,NA,NA,completion,10233.485,1292147.8,1292141.112,1292157.778,1302391.263,1302397.2,2023-03-23T13:04:51Z,1302407.929,"c(""distractor1"", ""distractor2"", ""distractor3"")",Gesundheit,salama,d,NA,NA,NA,NA,NA,NA,NA,NA,NA,NA,NA,NA,NA,NA,NA,NA,NA,NA,NA,NA,NA,NA,NA,NA,NA,NA
3c4bc,deep,flow.Sequence,1_1_3_0,NA,NA,skipped,NA,1302397.4,NA,NA,1302391.263,1302397.5,2023-03-23T13:04:51Z,1302407.929,"c(""distractor1"", ""distractor2"", ""distractor3"")",Kritik,lawama,s,dereva,nafasi,mawazo,NA,NA,NA,NA,NA,NA,NA,NA,NA,NA,NA,NA,NA,NA,NA,NA,NA,NA,NA,NA,NA,NA,NA
3c4bc,Shallow Question,html.Page,1_1_3_1_0,NA,NA,form submission,5641.071,1302397.6,1302391.263,1302407.929,1308049,1308049.5,2023-03-23T13:04:56Z,1308058.233,"c(""distractor1"", ""distractor2"", ""distractor3"")",Kritik,lawama,s,dereva,nafasi,mawazo,lawama,NA,NA,NA,NA,NA,NA,NA,NA,NA,NA,NA,NA,NA,NA,NA,NA,NA,NA,NA,NA,NA,NA
3c4bc,"""Richtig""-Screen",canvas.Screen,1_1_3_1_1,NA,NA,timeout,4999.8,1308052.3,1308041.567,1308058.233,1313041.367,1313045.8,2023-03-23T13:05:01Z,1313058.033,"c(""distractor1"", ""distractor2"", ""distractor3"")",Kritik,lawama,s,dereva,nafasi,mawazo,NA,NA,1,NA,NA,NA,NA,NA,NA,NA,NA,NA,NA,NA,NA,NA,NA,NA,NA,NA,NA,NA,NA
3c4bc,"""Falsch""-Screen",canvas.Screen,1_1_3_1_2,NA,NA,skipped,NA,1313049.9,NA,NA,1313041.367,1313050,2023-03-23T13:05:01Z,1313058.033,"c(""distractor1"", ""distractor2"", ""distractor3"")",Kritik,lawama,s,dereva,nafasi,mawazo,NA,NA,NA,NA,NA,NA,NA,NA,NA,NA,NA,NA,NA,NA,NA,NA,NA,NA,NA,NA,NA,NA,NA
3c4bc,shallow,flow.Sequence,1_1_3_1,NA,NA,completion,10633.438,1302397.6,1302391.263,1302407.929,1313041.367,1313050.3,2023-03-23T13:05:01Z,1313058.033,"c(""distractor1"", ""distractor2"", ""distractor3"")",Kritik,lawama,s,dereva,nafasi,mawazo,NA,NA,NA,NA,NA,NA,NA,NA,NA,NA,NA,NA,NA,NA,NA,NA,NA,NA,NA,NA,NA,NA,NA
3c4bc,task,flow.Sequence,1_1_3,NA,NA,completion,10633.438,1302397.3,1302391.263,1302407.929,1313041.367,1313050.4,2023-03-23T13:05:01Z,1313058.033,"c(""distractor1"", ""distractor2"", ""distractor3"")",Kritik,lawama,s,dereva,nafasi,mawazo,NA,NA,NA,NA,NA,NA,NA,NA,NA,NA,NA,NA,NA,NA,NA,NA,NA,NA,NA,NA,NA,NA,NA
3c4bc,deep,flow.Sequence,1_1_4_0,NA,NA,skipped,NA,1313050.4,NA,NA,1313041.367,1313050.5,2023-03-23T13:05:01Z,1313058.033,"c(""distractor1"", ""distractor2"", ""distractor3"")",Rückhalt,msaada,s,muhula,auwali,kiwimbe,NA,NA,NA,NA,NA,NA,NA,NA,NA,NA,NA,NA,NA,NA,NA,NA,NA,NA,NA,NA,NA,NA,NA
3c4bc,Shallow Question,html.Page,1_1_4_1_0,NA,NA,form submission,2200.0669999996,1313050.6,1313041.367,1313058.033,1315258.1,1315258.7,2023-03-23T13:05:04Z,1315258.491,"c(""distractor1"", ""distractor2"", ""distractor3"")",Rückhalt,msaada,s,muhula,auwali,kiwimbe,auwali,NA,NA,NA,NA,NA,NA,NA,NA,NA,NA,NA,NA,NA,NA,NA,NA,NA,NA,NA,NA,NA,NA
3c4bc,"""Richtig""-Screen",canvas.Screen,1_1_4_1_1,NA,NA,skipped,NA,1315259.9,NA,NA,1315258.1,1315260,2023-03-23T13:05:04Z,1315258.491,"c(""distractor1"", ""distractor2"", ""distractor3"")",Rückhalt,msaada,s,muhula,auwali,kiwimbe,NA,NA,NA,NA,NA,NA,NA,NA,NA,NA,NA,NA,NA,NA,NA,NA,NA,NA,NA,NA,NA,NA,NA
3c4bc,"""Falsch""-Screen",canvas.Screen,1_1_4_1_2,NA,NA,timeout,4999.8,1315261,1315241.825,1315258.491,1320241.625,1320246.2,2023-03-23T13:05:09Z,1320258.291,"c(""distractor1"", ""distractor2"", ""distractor3"")",Rückhalt,msaada,s,muhula,auwali,kiwimbe,NA,NA,0,NA,NA,NA,NA,NA,NA,NA,NA,NA,NA,NA,NA,NA,NA,NA,NA,NA,NA,NA,NA
3c4bc,shallow,flow.Sequence,1_1_4_1,NA,NA,completion,7183.5919999999,1313050.6,1313041.367,1313058.033,1320241.625,1320246.6,2023-03-23T13:05:09Z,1320258.291,"c(""distractor1"", ""distractor2"", ""distractor3"")",Rückhalt,msaada,s,muhula,auwali,kiwimbe,NA,NA,NA,NA,NA,NA,NA,NA,NA,NA,NA,NA,NA,NA,NA,NA,NA,NA,NA,NA,NA,NA,NA
3c4bc,task,flow.Sequence,1_1_4,NA,NA,completion,7183.5919999999,1313050.4,1313041.367,1313058.033,1320241.625,1320246.9,2023-03-23T13:05:09Z,1320258.291,"c(""distractor1"", ""distractor2"", ""distractor3"")",Rückhalt,msaada,s,muhula,auwali,kiwimbe,NA,NA,NA,NA,NA,NA,NA,NA,NA,NA,NA,NA,NA,NA,NA,NA,NA,NA,NA,NA,NA,NA,NA
3c4bc,deep,flow.Sequence,1_1_5_0,NA,NA,skipped,NA,1320247.2,NA,NA,1320241.625,1320247.2,2023-03-23T13:05:09Z,1320258.291,"c(""distractor1"", ""distractor2"", ""distractor3"")",Gegenwart,hadhara,s,katiba,jokofu,mikopo,NA,NA,NA,NA,NA,NA,NA,NA,NA,NA,NA,NA,NA,NA,NA,NA,NA,NA,NA,NA,NA,NA,NA
3c4bc,Shallow Question,html.Page,1_1_5_1_0,NA,NA,form submission,4799.4090000002,1320247.5,1320241.625,1320258.291,1325057.7,1325058.2,2023-03-23T13:05:13Z,1325058.634,"c(""distractor1"", ""distractor2"", ""distractor3"")",Gegenwart,hadhara,s,katiba,jokofu,mikopo,hadhara,NA,NA,NA,NA,NA,NA,NA,NA,NA,NA,NA,NA,NA,NA,NA,NA,NA,NA,NA,NA,NA,NA
3c4bc,"""Richtig""-Screen",canvas.Screen,1_1_5_1_1,NA,NA,timeout,4999.7999999998,1325060.5,1325041.968,1325058.634,1330041.768,1330045.9,2023-03-23T13:05:18Z,1330058.434,"c(""distractor1"", ""distractor2"", ""distractor3"")",Gegenwart,hadhara,s,katiba,jokofu,mikopo,NA,NA,1,NA,NA,NA,NA,NA,NA,NA,NA,NA,NA,NA,NA,NA,NA,NA,NA,NA,NA,NA,NA
3c4bc,"""Falsch""-Screen",canvas.Screen,1_1_5_1_2,NA,NA,skipped,NA,1330049.6,NA,NA,1330041.768,1330049.7,2023-03-23T13:05:18Z,1330058.434,"c(""distractor1"", ""distractor2"", ""distractor3"")",Gegenwart,hadhara,s,katiba,jokofu,mikopo,NA,NA,NA,NA,NA,NA,NA,NA,NA,NA,NA,NA,NA,NA,NA,NA,NA,NA,NA,NA,NA,NA,NA
3c4bc,shallow,flow.Sequence,1_1_5_1,NA,NA,completion,9783.477,1320247.4,1320241.625,1320258.291,1330041.768,1330050,2023-03-23T13:05:18Z,1330058.434,"c(""distractor1"", ""distractor2"", ""distractor3"")",Gegenwart,hadhara,s,katiba,jokofu,mikopo,NA,NA,NA,NA,NA,NA,NA,NA,NA,NA,NA,NA,NA,NA,NA,NA,NA,NA,NA,NA,NA,NA,NA
3c4bc,task,flow.Sequence,1_1_5,NA,NA,completion,9783.477,1320247.1,1320241.625,1320258.291,1330041.768,1330050.1,2023-03-23T13:05:18Z,1330058.434,"c(""distractor1"", ""distractor2"", ""distractor3"")",Gegenwart,hadhara,s,katiba,jokofu,mikopo,NA,NA,NA,NA,NA,NA,NA,NA,NA,NA,NA,NA,NA,NA,NA,NA,NA,NA,NA,NA,NA,NA,NA
3c4bc,block,flow.Loop,1_1,NA,NA,completion,59533.887,1270491.8,1270491.215,1270507.881,1330041.768,1330050.2,2023-03-23T13:05:18Z,1330058.434,"c(""distractor1"", ""distractor2"", ""distractor3"")",NA,NA,NA,NA,NA,NA,NA,NA,NA,NA,NA,NA,NA,NA,NA,NA,NA,NA,NA,NA,NA,NA,NA,NA,NA,NA,NA,NA,NA
3c4bc,Practice,flow.Sequence,1,NA,NA,completion,61967.977,1268073.4,1268057.125,1268073.791,1330041.768,1330050.4,2023-03-23T13:05:18Z,1330058.434,NULL,NA,NA,NA,NA,NA,NA,NA,NA,NA,NA,NA,NA,NA,NA,NA,NA,NA,NA,NA,NA,NA,NA,NA,NA,NA,NA,NA,NA,NA
3c4bc,Experiment start,canvas.Screen,2,weiter,keypress(q),response,115836.666,1330050.5,1330041.768,1330058.434,1445895.1,1445900.5,2023-03-23T13:07:14Z,1445970.464,NULL,NA,NA,NA,NA,NA,NA,NA,NA,NA,NA,NA,NA,NA,NA,NA,NA,NA,NA,NA,NA,NA,NA,NA,NA,NA,NA,NA,NA,NA
3c4bc,deep,flow.Sequence,3_0_0_0_0_0,NA,NA,skipped,NA,1445956.5,NA,NA,1445895.1,1445956.5,2023-03-23T13:07:14Z,1445970.464,NULL,Notfall,dharura,s,rairai,malalamiko,ahueni,NA,sdf,NA,0,NA,NA,NA,NA,NA,NA,NA,NA,NA,NA,NA,NA,NA,NA,NA,NA,NA,NA,NA
3c4bc,Shallow Question,html.Page,3_0_0_0_0_1_0,NA,NA,form submission,7570.4359999995,1445956.6,1445953.798,1445970.464,1453540.9,1453541.4,2023-03-23T13:07:22Z,1453543.225,NULL,Notfall,dharura,s,rairai,malalamiko,ahueni,rairai,NA,NA,0,NA,NA,NA,NA,NA,NA,NA,NA,NA,NA,NA,NA,NA,NA,NA,NA,NA,NA,NA
3c4bc,"""Richtig""-Screen",canvas.Screen,3_0_0_0_0_1_1,NA,NA,skipped,NA,1453545.2,NA,NA,1453540.9,1453545.3,2023-03-23T13:07:22Z,1453543.225,NULL,Notfall,dharura,s,rairai,malalamiko,ahueni,NA,sdf,NA,0,NA,NA,NA,NA,NA,NA,NA,NA,NA,NA,NA,NA,NA,NA,NA,NA,NA,NA,NA
3c4bc,"""Falsch""-Screen",canvas.Screen,3_0_0_0_0_1_2,NA,NA,timeout,4999.7999999998,1453546,1453526.559,1453543.225,1458526.359,1458530.5,2023-03-23T13:07:27Z,1458543.025,NULL,Notfall,dharura,s,rairai,malalamiko,ahueni,NA,sdf,0,0,NA,NA,NA,NA,NA,NA,NA,NA,NA,NA,NA,NA,NA,NA,NA,NA,NA,NA,NA
3c4bc,shallow,flow.Sequence,3_0_0_0_0_1,NA,NA,completion,12555.895,1445956.6,1445953.798,1445970.464,1458526.359,1458531,2023-03-23T13:07:27Z,1458543.025,NULL,Notfall,dharura,s,rairai,malalamiko,ahueni,NA,sdf,NA,0,NA,NA,NA,NA,NA,NA,NA,NA,NA,NA,NA,NA,NA,NA,NA,NA,NA,NA,NA
3c4bc,task,flow.Sequence,3_0_0_0_0,NA,NA,completion,12555.895,1445956.5,1445953.798,1445970.464,1458526.359,1458531.2,2023-03-23T13:07:27Z,1458543.025,NULL,Notfall,dharura,s,rairai,malalamiko,ahueni,NA,sdf,NA,0,NA,NA,NA,NA,NA,NA,NA,NA,NA,NA,NA,NA,NA,NA,NA,NA,NA,NA,NA
3c4bc,Deep Question,html.Page,3_0_0_0_1_0_0,NA,NA,form submission,4470.5749999997,1458531.3,1458526.359,1458543.025,1463013.6,1463014.1,2023-03-23T13:07:31Z,1463026.834,NULL,Widerstand,usulubu,d,NA,NA,NA,jhhk,NA,NA,0,NA,NA,NA,NA,NA,NA,NA,NA,NA,NA,NA,NA,NA,NA,NA,NA,NA,NA,NA
3c4bc,"""Richtig""-Screen",canvas.Screen,3_0_0_0_1_0_1,NA,NA,skipped,NA,1463017,NA,NA,1463013.6,1463017.1,2023-03-23T13:07:31Z,1463026.834,NULL,Widerstand,usulubu,d,NA,NA,NA,NA,sdf,NA,0,NA,NA,NA,NA,NA,NA,NA,NA,NA,NA,NA,NA,NA,NA,NA,NA,NA,NA,NA
3c4bc,"""Falsch""-Screen",canvas.Screen,3_0_0_0_1_0_2,NA,NA,timeout,4999.8,1463017.7,1463010.168,1463026.834,1468009.968,1468012.5,2023-03-23T13:07:36Z,1468026.634,NULL,Widerstand,usulubu,d,NA,NA,NA,NA,sdf,0,0,NA,NA,NA,NA,NA,NA,NA,NA,NA,NA,NA,NA,NA,NA,NA,NA,NA,NA,NA
3c4bc,deep,flow.Sequence,3_0_0_0_1_0,NA,NA,completion,9466.9430000002,1458531.3,1458526.359,1458543.025,1468009.968,1468013,2023-03-23T13:07:36Z,1468026.634,NULL,Widerstand,usulubu,d,NA,NA,NA,NA,sdf,NA,0,NA,NA,NA,NA,NA,NA,NA,NA,NA,NA,NA,NA,NA,NA,NA,NA,NA,NA,NA
3c4bc,shallow,flow.Sequence,3_0_0_0_1_1,NA,NA,skipped,NA,1468013.1,NA,NA,1468009.968,1468013.3,2023-03-23T13:07:36Z,1468026.634,NULL,Widerstand,usulubu,d,NA,NA,NA,NA,sdf,NA,0,NA,NA,NA,NA,NA,NA,NA,NA,NA,NA,NA,NA,NA,NA,NA,NA,NA,NA,NA
3c4bc,task,flow.Sequence,3_0_0_0_1,NA,NA,completion,9466.9430000002,1458531.2,1458526.359,1458543.025,1468009.968,1468013.5,2023-03-23T13:07:36Z,1468026.634,NULL,Widerstand,usulubu,d,NA,NA,NA,NA,sdf,NA,0,NA,NA,NA,NA,NA,NA,NA,NA,NA,NA,NA,NA,NA,NA,NA,NA,NA,NA,NA
3c4bc,Deep Question,html.Page,3_0_0_0_2_0_0,NA,NA,form submission,5191.8659999999,1468013.7,1468009.968,1468026.634,1473218.5,1473218.9,2023-03-23T13:07:42Z,1473227.017,NULL,Ergänzung,kijalizo,d,NA,NA,NA,eretzg,NA,NA,0,NA,NA,NA,NA,NA,NA,NA,NA,NA,NA,NA,NA,NA,NA,NA,NA,NA,NA,NA
3c4bc,"""Richtig""-Screen",canvas.Screen,3_0_0_0_2_0_1,NA,NA,skipped,NA,1473221.7,NA,NA,1473218.5,1473221.8,2023-03-23T13:07:42Z,1473227.017,NULL,Ergänzung,kijalizo,d,NA,NA,NA,NA,sdf,NA,0,NA,NA,NA,NA,NA,NA,NA,NA,NA,NA,NA,NA,NA,NA,NA,NA,NA,NA,NA
3c4bc,"""Falsch""-Screen",canvas.Screen,3_0_0_0_2_0_2,NA,NA,timeout,4999.8,1473222.4,1473210.351,1473227.017,1478210.151,1478214,2023-03-23T13:07:47Z,1478226.817,NULL,Ergänzung,kijalizo,d,NA,NA,NA,NA,sdf,0,0,NA,NA,NA,NA,NA,NA,NA,NA,NA,NA,NA,NA,NA,NA,NA,NA,NA,NA,NA
3c4bc,deep,flow.Sequence,3_0_0_0_2_0,NA,NA,completion,10183.517,1468013.6,1468009.968,1468026.634,1478210.151,1478214.5,2023-03-23T13:07:47Z,1478226.817,NULL,Ergänzung,kijalizo,d,NA,NA,NA,NA,sdf,NA,0,NA,NA,NA,NA,NA,NA,NA,NA,NA,NA,NA,NA,NA,NA,NA,NA,NA,NA,NA
3c4bc,shallow,flow.Sequence,3_0_0_0_2_1,NA,NA,skipped,NA,1478214.6,NA,NA,1478210.151,1478214.8,2023-03-23T13:07:47Z,1478226.817,NULL,Ergänzung,kijalizo,d,NA,NA,NA,NA,sdf,NA,0,NA,NA,NA,NA,NA,NA,NA,NA,NA,NA,NA,NA,NA,NA,NA,NA,NA,NA,NA
3c4bc,task,flow.Sequence,3_0_0_0_2,NA,NA,completion,10183.517,1468013.5,1468009.968,1468026.634,1478210.151,1478215,2023-03-23T13:07:47Z,1478226.817,NULL,Ergänzung,kijalizo,d,NA,NA,NA,NA,sdf,NA,0,NA,NA,NA,NA,NA,NA,NA,NA,NA,NA,NA,NA,NA,NA,NA,NA,NA,NA,NA
3c4bc,deep,flow.Sequence,3_0_0_0_3_0,NA,NA,skipped,NA,1478215.2,NA,NA,1478210.151,1478215.3,2023-03-23T13:07:47Z,1478226.817,NULL,Vergnügen,kichekesho,s,dubwana,mpanuko,mtesaji,NA,sdf,NA,0,NA,NA,NA,NA,NA,NA,NA,NA,NA,NA,NA,NA,NA,NA,NA,NA,NA,NA,NA
3c4bc,Shallow Question,html.Page,3_0_0_0_3_1_0,NA,NA,form submission,4017.4829999998,1478215.4,1478210.151,1478226.817,1482244.3,1482244.8,2023-03-23T13:07:51Z,1482243.874,NULL,Vergnügen,kichekesho,s,dubwana,mpanuko,mtesaji,dubwana,NA,NA,0,NA,NA,NA,NA,NA,NA,NA,NA,NA,NA,NA,NA,NA,NA,NA,NA,NA,NA,NA
3c4bc,"""Richtig""-Screen",canvas.Screen,3_0_0_0_3_1_1,NA,NA,skipped,NA,1482247.9,NA,NA,1482244.3,1482248,2023-03-23T13:07:51Z,1482243.874,NULL,Vergnügen,kichekesho,s,dubwana,mpanuko,mtesaji,NA,sdf,NA,0,NA,NA,NA,NA,NA,NA,NA,NA,NA,NA,NA,NA,NA,NA,NA,NA,NA,NA,NA
3c4bc,"""Falsch""-Screen",canvas.Screen,3_0_0_0_3_1_2,NA,NA,timeout,4999.8,1482249.3,1482227.208,1482243.874,1487227.008,1487232.4,2023-03-23T13:07:56Z,1487243.674,NULL,Vergnügen,kichekesho,s,dubwana,mpanuko,mtesaji,NA,sdf,0,0,NA,NA,NA,NA,NA,NA,NA,NA,NA,NA,NA,NA,NA,NA,NA,NA,NA,NA,NA
3c4bc,shallow,flow.Sequence,3_0_0_0_3_1,NA,NA,completion,9000.1909999999,1478215.4,1478210.151,1478226.817,1487227.008,1487232.9,2023-03-23T13:07:56Z,1487243.674,NULL,Vergnügen,kichekesho,s,dubwana,mpanuko,mtesaji,NA,sdf,NA,0,NA,NA,NA,NA,NA,NA,NA,NA,NA,NA,NA,NA,NA,NA,NA,NA,NA,NA,NA
3c4bc,task,flow.Sequence,3_0_0_0_3,NA,NA,completion,9000.1909999999,1478215.2,1478210.151,1478226.817,1487227.008,1487233.2,2023-03-23T13:07:56Z,1487243.674,NULL,Vergnügen,kichekesho,s,dubwana,mpanuko,mtesaji,NA,sdf,NA,0,NA,NA,NA,NA,NA,NA,NA,NA,NA,NA,NA,NA,NA,NA,NA,NA,NA,NA,NA
3c4bc,Deep Question,html.Page,3_0_0_0_4_0_0,NA,NA,form submission,2641.6259999997,1487233.4,1487227.008,1487243.674,1489885.3,1489885.9,2023-03-23T13:07:58Z,1489893.568,NULL,Wohlstand,mafanikio,d,NA,NA,NA,hkg,NA,NA,0,NA,NA,NA,NA,NA,NA,NA,NA,NA,NA,NA,NA,NA,NA,NA,NA,NA,NA,NA
3c4bc,"""Richtig""-Screen",canvas.Screen,3_0_0_0_4_0_1,NA,NA,skipped,NA,1489890.2,NA,NA,1489885.3,1489890.4,2023-03-23T13:07:58Z,1489893.568,NULL,Wohlstand,mafanikio,d,NA,NA,NA,NA,sdf,NA,0,NA,NA,NA,NA,NA,NA,NA,NA,NA,NA,NA,NA,NA,NA,NA,NA,NA,NA,NA
3c4bc,"""Falsch""-Screen",canvas.Screen,3_0_0_0_4_0_2,NA,NA,timeout,4999.8,1489891.3,1489876.902,1489893.568,1494876.702,1494881.8,2023-03-23T13:08:03Z,1494893.368,NULL,Wohlstand,mafanikio,d,NA,NA,NA,NA,sdf,0,0,NA,NA,NA,NA,NA,NA,NA,NA,NA,NA,NA,NA,NA,NA,NA,NA,NA,NA,NA
3c4bc,deep,flow.Sequence,3_0_0_0_4_0,NA,NA,completion,7633.0279999999,1487233.3,1487227.008,1487243.674,1494876.702,1494882.1,2023-03-23T13:08:03Z,1494893.368,NULL,Wohlstand,mafanikio,d,NA,NA,NA,NA,sdf,NA,0,NA,NA,NA,NA,NA,NA,NA,NA,NA,NA,NA,NA,NA,NA,NA,NA,NA,NA,NA
3c4bc,shallow,flow.Sequence,3_0_0_0_4_1,NA,NA,skipped,NA,1494882.2,NA,NA,1494876.702,1494882.5,2023-03-23T13:08:03Z,1494893.368,NULL,Wohlstand,mafanikio,d,NA,NA,NA,NA,sdf,NA,0,NA,NA,NA,NA,NA,NA,NA,NA,NA,NA,NA,NA,NA,NA,NA,NA,NA,NA,NA
3c4bc,task,flow.Sequence,3_0_0_0_4,NA,NA,completion,7633.0279999999,1487233.3,1487227.008,1487243.674,1494876.702,1494882.7,2023-03-23T13:08:03Z,1494893.368,NULL,Wohlstand,mafanikio,d,NA,NA,NA,NA,sdf,NA,0,NA,NA,NA,NA,NA,NA,NA,NA,NA,NA,NA,NA,NA,NA,NA,NA,NA,NA,NA
3c4bc,Deep Question,html.Page,3_0_0_0_5_0_0,NA,NA,form submission,10399.232,1494882.8,1494876.702,1494893.368,1505292.6,1505293.1,2023-03-23T13:08:14Z,1505294.259,NULL,Verstand,ufahamivu,d,NA,NA,NA,gkj,NA,NA,0,NA,NA,NA,NA,NA,NA,NA,NA,NA,NA,NA,NA,NA,NA,NA,NA,NA,NA,NA
3c4bc,"""Richtig""-Screen",canvas.Screen,3_0_0_0_5_0_1,NA,NA,skipped,NA,1505296,NA,NA,1505292.6,1505296.1,2023-03-23T13:08:14Z,1505294.259,NULL,Verstand,ufahamivu,d,NA,NA,NA,NA,sdf,NA,0,NA,NA,NA,NA,NA,NA,NA,NA,NA,NA,NA,NA,NA,NA,NA,NA,NA,NA,NA
3c4bc,"""Falsch""-Screen",canvas.Screen,3_0_0_0_5_0_2,NA,NA,timeout,4999.7999999998,1505296.8,1505277.593,1505294.259,1510277.393,1510279.9,2023-03-23T13:08:19Z,1510294.059,NULL,Verstand,ufahamivu,d,NA,NA,NA,NA,sdf,0,0,NA,NA,NA,NA,NA,NA,NA,NA,NA,NA,NA,NA,NA,NA,NA,NA,NA,NA,NA
3c4bc,deep,flow.Sequence,3_0_0_0_5_0,NA,NA,completion,15384.025,1494882.8,1494876.702,1494893.368,1510277.393,1510280.3,2023-03-23T13:08:19Z,1510294.059,NULL,Verstand,ufahamivu,d,NA,NA,NA,NA,sdf,NA,0,NA,NA,NA,NA,NA,NA,NA,NA,NA,NA,NA,NA,NA,NA,NA,NA,NA,NA,NA
3c4bc,shallow,flow.Sequence,3_0_0_0_5_1,NA,NA,skipped,NA,1510280.5,NA,NA,1510277.393,1510280.6,2023-03-23T13:08:19Z,1510294.059,NULL,Verstand,ufahamivu,d,NA,NA,NA,NA,sdf,NA,0,NA,NA,NA,NA,NA,NA,NA,NA,NA,NA,NA,NA,NA,NA,NA,NA,NA,NA,NA
3c4bc,task,flow.Sequence,3_0_0_0_5,NA,NA,completion,15384.025,1494882.8,1494876.702,1494893.368,1510277.393,1510280.9,2023-03-23T13:08:19Z,1510294.059,NULL,Verstand,ufahamivu,d,NA,NA,NA,NA,sdf,NA,0,NA,NA,NA,NA,NA,NA,NA,NA,NA,NA,NA,NA,NA,NA,NA,NA,NA,NA,NA
3c4bc,deep,flow.Sequence,3_0_0_0_6_0,NA,NA,skipped,NA,1510281,NA,NA,1510277.393,1510281.1,2023-03-23T13:08:19Z,1510294.059,NULL,Gelegenheit,wakati,s,mchanganyiko,kipaumbele,kushuku,NA,sdf,NA,0,NA,NA,NA,NA,NA,NA,NA,NA,NA,NA,NA,NA,NA,NA,NA,NA,NA,NA,NA
3c4bc,Shallow Question,html.Page,3_0_0_0_6_1_0,NA,NA,form submission,5136.3409999995,1510281.3,1510277.393,1510294.059,1515430.4,1515430.8,2023-03-23T13:08:24Z,1515444.383,NULL,Gelegenheit,wakati,s,mchanganyiko,kipaumbele,kushuku,wakati,NA,NA,0,NA,NA,NA,NA,NA,NA,NA,NA,NA,NA,NA,NA,NA,NA,NA,NA,NA,NA,NA
3c4bc,"""Richtig""-Screen",canvas.Screen,3_0_0_0_6_1_1,NA,NA,timeout,4999.8,1515434.4,1515427.717,1515444.383,1520427.517,1520432.2,2023-03-23T13:08:29Z,1520444.183,NULL,Gelegenheit,wakati,s,mchanganyiko,kipaumbele,kushuku,NA,sdf,1,0,NA,NA,NA,NA,NA,NA,NA,NA,NA,NA,NA,NA,NA,NA,NA,NA,NA,NA,NA
3c4bc,"""Falsch""-Screen",canvas.Screen,3_0_0_0_6_1_2,NA,NA,skipped,NA,1520435.8,NA,NA,1520427.517,1520436,2023-03-23T13:08:29Z,1520444.183,NULL,Gelegenheit,wakati,s,mchanganyiko,kipaumbele,kushuku,NA,sdf,NA,0,NA,NA,NA,NA,NA,NA,NA,NA,NA,NA,NA,NA,NA,NA,NA,NA,NA,NA,NA
3c4bc,shallow,flow.Sequence,3_0_0_0_6_1,NA,NA,completion,10133.458,1510281.2,1510277.393,1510294.059,1520427.517,1520436.1,2023-03-23T13:08:29Z,1520444.183,NULL,Gelegenheit,wakati,s,mchanganyiko,kipaumbele,kushuku,NA,sdf,NA,0,NA,NA,NA,NA,NA,NA,NA,NA,NA,NA,NA,NA,NA,NA,NA,NA,NA,NA,NA
3c4bc,task,flow.Sequence,3_0_0_0_6,NA,NA,completion,10133.458,1510280.9,1510277.393,1510294.059,1520427.517,1520436.2,2023-03-23T13:08:29Z,1520444.183,NULL,Gelegenheit,wakati,s,mchanganyiko,kipaumbele,kushuku,NA,sdf,NA,0,NA,NA,NA,NA,NA,NA,NA,NA,NA,NA,NA,NA,NA,NA,NA,NA,NA,NA,NA
3c4bc,deep,flow.Sequence,3_0_0_0_7_0,NA,NA,skipped,NA,1520436.3,NA,NA,1520427.517,1520436.4,2023-03-23T13:08:29Z,1520444.183,NULL,Ausschluss,kutengwa,s,ununuzi,taratibu,madeni,NA,sdf,NA,0,NA,NA,NA,NA,NA,NA,NA,NA,NA,NA,NA,NA,NA,NA,NA,NA,NA,NA,NA
3c4bc,Shallow Question,html.Page,3_0_0_0_7_1_0,NA,NA,form submission,3055.5170000002,1520436.5,1520427.517,1520444.183,1523499.7,1523500.4,2023-03-23T13:08:32Z,1523510.727,NULL,Ausschluss,kutengwa,s,ununuzi,taratibu,madeni,taratibu,NA,NA,0,NA,NA,NA,NA,NA,NA,NA,NA,NA,NA,NA,NA,NA,NA,NA,NA,NA,NA,NA
3c4bc,"""Richtig""-Screen",canvas.Screen,3_0_0_0_7_1_1,NA,NA,skipped,NA,1523503.8,NA,NA,1523499.7,1523503.9,2023-03-23T13:08:32Z,1523510.727,NULL,Ausschluss,kutengwa,s,ununuzi,taratibu,madeni,NA,sdf,NA,0,NA,NA,NA,NA,NA,NA,NA,NA,NA,NA,NA,NA,NA,NA,NA,NA,NA,NA,NA
3c4bc,"""Falsch""-Screen",canvas.Screen,3_0_0_0_7_1_2,NA,NA,timeout,4999.8,1523504.6,1523494.061,1523510.727,1528493.861,1528497.8,2023-03-23T13:08:37Z,1528510.527,NULL,Ausschluss,kutengwa,s,ununuzi,taratibu,madeni,NA,sdf,0,0,NA,NA,NA,NA,NA,NA,NA,NA,NA,NA,NA,NA,NA,NA,NA,NA,NA,NA,NA
3c4bc,shallow,flow.Sequence,3_0_0_0_7_1,NA,NA,completion,8049.6780000001,1520436.5,1520427.517,1520444.183,1528493.861,1528498.2,2023-03-23T13:08:37Z,1528510.527,NULL,Ausschluss,kutengwa,s,ununuzi,taratibu,madeni,NA,sdf,NA,0,NA,NA,NA,NA,NA,NA,NA,NA,NA,NA,NA,NA,NA,NA,NA,NA,NA,NA,NA
3c4bc,task,flow.Sequence,3_0_0_0_7,NA,NA,completion,8049.6780000001,1520436.3,1520427.517,1520444.183,1528493.861,1528498.4,2023-03-23T13:08:37Z,1528510.527,NULL,Ausschluss,kutengwa,s,ununuzi,taratibu,madeni,NA,sdf,NA,0,NA,NA,NA,NA,NA,NA,NA,NA,NA,NA,NA,NA,NA,NA,NA,NA,NA,NA,NA
3c4bc,block,flow.Loop,3_0_0_0,NA,NA,completion,82523.397,1445956.4,1445953.798,1445970.464,1528493.861,1528498.7,2023-03-23T13:08:37Z,1528510.527,NULL,NA,NA,NA,NA,NA,NA,NA,sdf,NA,0,NA,NA,NA,NA,NA,NA,NA,NA,NA,NA,NA,NA,NA,NA,NA,NA,NA,NA,NA
3c4bc,weiter,canvas.Screen,3_0_0_1,sdf,keypress(Space),response,1055.5729999996,1528498.9,1528493.861,1528510.527,1529566.1,1529570.9,2023-03-23T13:08:38Z,1529611.182,NULL,NA,NA,NA,NA,NA,NA,NA,sdf,NA,0,NA,NA,NA,NA,NA,NA,NA,NA,NA,NA,NA,NA,NA,NA,NA,NA,NA,NA,NA
3c4bc,check continue,flow.Sequence,3_0_0,NA,NA,completion,83595.636,1445956.4,1445953.798,1445970.464,1529566.1,1529571.1,2023-03-23T13:08:38Z,1529611.182,NULL,NA,NA,NA,NA,NA,NA,NA,sdf,NA,0,NA,NA,NA,NA,NA,NA,NA,NA,NA,NA,NA,NA,NA,NA,NA,NA,NA,NA,NA
3c4bc,deep,flow.Sequence,3_0_1_0_0_0,NA,NA,skipped,NA,1529598.6,NA,NA,1529566.1,1529598.7,2023-03-23T13:08:38Z,1529611.182,NULL,Ausschluss,kutengwa,s,ununuzi,taratibu,madeni,NA,sdfdsf,NA,1,NA,NA,NA,NA,NA,NA,NA,NA,NA,NA,NA,NA,NA,NA,NA,NA,NA,NA,NA
3c4bc,Shallow Question,html.Page,3_0_1_0_0_1_0,NA,NA,form submission,4879.5180000002,1529598.8,1529594.516,1529611.182,1534490.7,1534491.1,2023-03-23T13:08:43Z,1534494.32,NULL,Ausschluss,kutengwa,s,ununuzi,taratibu,madeni,kutengwa,NA,NA,1,NA,NA,NA,NA,NA,NA,NA,NA,NA,NA,NA,NA,NA,NA,NA,NA,NA,NA,NA
3c4bc,"""Richtig""-Screen",canvas.Screen,3_0_1_0_0_1_1,NA,NA,timeout,4999.8,1534493.5,1534477.654,1534494.32,1539477.454,1539482.1,2023-03-23T13:08:48Z,1539494.12,NULL,Ausschluss,kutengwa,s,ununuzi,taratibu,madeni,NA,sdfdsf,1,1,NA,NA,NA,NA,NA,NA,NA,NA,NA,NA,NA,NA,NA,NA,NA,NA,NA,NA,NA
3c4bc,"""Falsch""-Screen",canvas.Screen,3_0_1_0_0_1_2,NA,NA,skipped,NA,1539486.3,NA,NA,1539477.454,1539486.5,2023-03-23T13:08:48Z,1539494.12,NULL,Ausschluss,kutengwa,s,ununuzi,taratibu,madeni,NA,sdfdsf,NA,1,NA,NA,NA,NA,NA,NA,NA,NA,NA,NA,NA,NA,NA,NA,NA,NA,NA,NA,NA
3c4bc,shallow,flow.Sequence,3_0_1_0_0_1,NA,NA,completion,9866.2719999999,1529598.7,1529594.516,1529611.182,1539477.454,1539486.5,2023-03-23T13:08:48Z,1539494.12,NULL,Ausschluss,kutengwa,s,ununuzi,taratibu,madeni,NA,sdfdsf,NA,1,NA,NA,NA,NA,NA,NA,NA,NA,NA,NA,NA,NA,NA,NA,NA,NA,NA,NA,NA
3c4bc,task,flow.Sequence,3_0_1_0_0,NA,NA,completion,9866.2719999999,1529598.6,1529594.516,1529611.182,1539477.454,1539486.7,2023-03-23T13:08:48Z,1539494.12,NULL,Ausschluss,kutengwa,s,ununuzi,taratibu,madeni,NA,sdfdsf,NA,1,NA,NA,NA,NA,NA,NA,NA,NA,NA,NA,NA,NA,NA,NA,NA,NA,NA,NA,NA
3c4bc,Deep Question,html.Page,3_0_1_0_1_0_0,NA,NA,form submission,4286.4799999995,1539486.8,1539477.454,1539494.12,1543780.6,1543781.2,2023-03-23T13:08:52Z,1543794.524,NULL,Wohlstand,mafanikio,d,NA,NA,NA,tsu,NA,NA,1,NA,NA,NA,NA,NA,NA,NA,NA,NA,NA,NA,NA,NA,NA,NA,NA,NA,NA,NA
3c4bc,"""Richtig""-Screen",canvas.Screen,3_0_1_0_1_0_1,NA,NA,skipped,NA,1543785.7,NA,NA,1543780.6,1543786,2023-03-23T13:08:52Z,1543794.524,NULL,Wohlstand,mafanikio,d,NA,NA,NA,NA,sdfdsf,NA,1,NA,NA,NA,NA,NA,NA,NA,NA,NA,NA,NA,NA,NA,NA,NA,NA,NA,NA,NA
3c4bc,"""Falsch""-Screen",canvas.Screen,3_0_1_0_1_0_2,NA,NA,timeout,4999.8,1543787,1543777.858,1543794.524,1548777.658,1548780.7,2023-03-23T13:08:57Z,1548794.324,NULL,Wohlstand,mafanikio,d,NA,NA,NA,NA,sdfdsf,0,1,NA,NA,NA,NA,NA,NA,NA,NA,NA,NA,NA,NA,NA,NA,NA,NA,NA,NA,NA
3c4bc,deep,flow.Sequence,3_0_1_0_1_0,NA,NA,completion,9283.5379999999,1539486.8,1539477.454,1539494.12,1548777.658,1548781.3,2023-03-23T13:08:57Z,1548794.324,NULL,Wohlstand,mafanikio,d,NA,NA,NA,NA,sdfdsf,NA,1,NA,NA,NA,NA,NA,NA,NA,NA,NA,NA,NA,NA,NA,NA,NA,NA,NA,NA,NA
3c4bc,shallow,flow.Sequence,3_0_1_0_1_1,NA,NA,skipped,NA,1548781.4,NA,NA,1548777.658,1548781.6,2023-03-23T13:08:57Z,1548794.324,NULL,Wohlstand,mafanikio,d,NA,NA,NA,NA,sdfdsf,NA,1,NA,NA,NA,NA,NA,NA,NA,NA,NA,NA,NA,NA,NA,NA,NA,NA,NA,NA,NA
3c4bc,task,flow.Sequence,3_0_1_0_1,NA,NA,completion,9283.5379999999,1539486.8,1539477.454,1539494.12,1548777.658,1548781.8,2023-03-23T13:08:57Z,1548794.324,NULL,Wohlstand,mafanikio,d,NA,NA,NA,NA,sdfdsf,NA,1,NA,NA,NA,NA,NA,NA,NA,NA,NA,NA,NA,NA,NA,NA,NA,NA,NA,NA,NA
3c4bc,Deep Question,html.Page,3_0_1_0_2_0_0,NA,NA,form submission,5014.2759999996,1548782,1548777.658,1548794.324,1553808.6,1553810.3,2023-03-23T13:09:02Z,1553811.359,NULL,Ergänzung,kijalizo,d,NA,NA,NA,sdfg,NA,NA,1,NA,NA,NA,NA,NA,NA,NA,NA,NA,NA,NA,NA,NA,NA,NA,NA,NA,NA,NA
3c4bc,"""Richtig""-Screen",canvas.Screen,3_0_1_0_2_0_1,NA,NA,skipped,NA,1553813.8,NA,NA,1553808.6,1553814.1,2023-03-23T13:09:02Z,1553811.359,NULL,Ergänzung,kijalizo,d,NA,NA,NA,NA,sdfdsf,NA,1,NA,NA,NA,NA,NA,NA,NA,NA,NA,NA,NA,NA,NA,NA,NA,NA,NA,NA,NA
3c4bc,"""Falsch""-Screen",canvas.Screen,3_0_1_0_2_0_2,NA,NA,timeout,4999.8,1553814.9,1553794.693,1553811.359,1558794.493,1558799.5,2023-03-23T13:09:07Z,1558811.159,NULL,Ergänzung,kijalizo,d,NA,NA,NA,NA,sdfdsf,0,1,NA,NA,NA,NA,NA,NA,NA,NA,NA,NA,NA,NA,NA,NA,NA,NA,NA,NA,NA
3c4bc,deep,flow.Sequence,3_0_1_0_2_0,NA,NA,completion,10000.169,1548781.9,1548777.658,1548794.324,1558794.493,1558800,2023-03-23T13:09:07Z,1558811.159,NULL,Ergänzung,kijalizo,d,NA,NA,NA,NA,sdfdsf,NA,1,NA,NA,NA,NA,NA,NA,NA,NA,NA,NA,NA,NA,NA,NA,NA,NA,NA,NA,NA
3c4bc,shallow,flow.Sequence,3_0_1_0_2_1,NA,NA,skipped,NA,1558800.2,NA,NA,1558794.493,1558800.3,2023-03-23T13:09:07Z,1558811.159,NULL,Ergänzung,kijalizo,d,NA,NA,NA,NA,sdfdsf,NA,1,NA,NA,NA,NA,NA,NA,NA,NA,NA,NA,NA,NA,NA,NA,NA,NA,NA,NA,NA
3c4bc,task,flow.Sequence,3_0_1_0_2,NA,NA,completion,10000.169,1548781.9,1548777.658,1548794.324,1558794.493,1558800.5,2023-03-23T13:09:07Z,1558811.159,NULL,Ergänzung,kijalizo,d,NA,NA,NA,NA,sdfdsf,NA,1,NA,NA,NA,NA,NA,NA,NA,NA,NA,NA,NA,NA,NA,NA,NA,NA,NA,NA,NA
3c4bc,Deep Question,html.Page,3_0_1_0_3_0_0,NA,NA,form submission,6847.4409999996,1558800.8,1558794.493,1558811.159,1565658.6,1565659.2,2023-03-23T13:09:14Z,1565661.423,NULL,Verstand,ufahamivu,d,NA,NA,NA,kwigi,NA,NA,1,NA,NA,NA,NA,NA,NA,NA,NA,NA,NA,NA,NA,NA,NA,NA,NA,NA,NA,NA
3c4bc,"""Richtig""-Screen",canvas.Screen,3_0_1_0_3_0_1,NA,NA,skipped,NA,1565662.5,NA,NA,1565658.6,1565662.6,2023-03-23T13:09:14Z,1565661.423,NULL,Verstand,ufahamivu,d,NA,NA,NA,NA,sdfdsf,NA,1,NA,NA,NA,NA,NA,NA,NA,NA,NA,NA,NA,NA,NA,NA,NA,NA,NA,NA,NA
3c4bc,"""Falsch""-Screen",canvas.Screen,3_0_1_0_3_0_2,NA,NA,timeout,4999.8,1565663.8,1565644.757,1565661.423,1570644.557,1570647.9,2023-03-23T13:09:19Z,1570661.223,NULL,Verstand,ufahamivu,d,NA,NA,NA,NA,sdfdsf,0,1,NA,NA,NA,NA,NA,NA,NA,NA,NA,NA,NA,NA,NA,NA,NA,NA,NA,NA,NA
3c4bc,deep,flow.Sequence,3_0_1_0_3_0,NA,NA,completion,11833.398,1558800.7,1558794.493,1558811.159,1570644.557,1570648.4,2023-03-23T13:09:19Z,1570661.223,NULL,Verstand,ufahamivu,d,NA,NA,NA,NA,sdfdsf,NA,1,NA,NA,NA,NA,NA,NA,NA,NA,NA,NA,NA,NA,NA,NA,NA,NA,NA,NA,NA
3c4bc,shallow,flow.Sequence,3_0_1_0_3_1,NA,NA,skipped,NA,1570648.5,NA,NA,1570644.557,1570648.7,2023-03-23T13:09:19Z,1570661.223,NULL,Verstand,ufahamivu,d,NA,NA,NA,NA,sdfdsf,NA,1,NA,NA,NA,NA,NA,NA,NA,NA,NA,NA,NA,NA,NA,NA,NA,NA,NA,NA,NA
3c4bc,task,flow.Sequence,3_0_1_0_3,NA,NA,completion,11833.398,1558800.6,1558794.493,1558811.159,1570644.557,1570648.8,2023-03-23T13:09:19Z,1570661.223,NULL,Verstand,ufahamivu,d,NA,NA,NA,NA,sdfdsf,NA,1,NA,NA,NA,NA,NA,NA,NA,NA,NA,NA,NA,NA,NA,NA,NA,NA,NA,NA,NA
3c4bc,Deep Question,html.Page,3_0_1_0_4_0_0,NA,NA,form submission,10143.277,1570649.1,1570644.557,1570661.223,1580804.5,1580805,2023-03-23T13:09:29Z,1580811.353,NULL,Widerstand,usulubu,d,NA,NA,NA,uwengo,NA,NA,1,NA,NA,NA,NA,NA,NA,NA,NA,NA,NA,NA,NA,NA,NA,NA,NA,NA,NA,NA
3c4bc,"""Richtig""-Screen",canvas.Screen,3_0_1_0_4_0_1,NA,NA,skipped,NA,1580808.5,NA,NA,1580804.5,1580809.3,2023-03-23T13:09:29Z,1580811.353,NULL,Widerstand,usulubu,d,NA,NA,NA,NA,sdfdsf,NA,1,NA,NA,NA,NA,NA,NA,NA,NA,NA,NA,NA,NA,NA,NA,NA,NA,NA,NA,NA
3c4bc,"""Falsch""-Screen",canvas.Screen,3_0_1_0_4_0_2,NA,NA,timeout,5000.327,1580810.7,1580794.687,1580811.353,1585795.014,1585800,2023-03-23T13:09:34Z,1585811.68,NULL,Widerstand,usulubu,d,NA,NA,NA,NA,sdfdsf,0,1,NA,NA,NA,NA,NA,NA,NA,NA,NA,NA,NA,NA,NA,NA,NA,NA,NA,NA,NA
3c4bc,deep,flow.Sequence,3_0_1_0_4_0,NA,NA,completion,15133.791,1570649.1,1570644.557,1570661.223,1585795.014,1585800.4,2023-03-23T13:09:34Z,1585811.68,NULL,Widerstand,usulubu,d,NA,NA,NA,NA,sdfdsf,NA,1,NA,NA,NA,NA,NA,NA,NA,NA,NA,NA,NA,NA,NA,NA,NA,NA,NA,NA,NA
3c4bc,shallow,flow.Sequence,3_0_1_0_4_1,NA,NA,skipped,NA,1585800.5,NA,NA,1585795.014,1585800.6,2023-03-23T13:09:34Z,1585811.68,NULL,Widerstand,usulubu,d,NA,NA,NA,NA,sdfdsf,NA,1,NA,NA,NA,NA,NA,NA,NA,NA,NA,NA,NA,NA,NA,NA,NA,NA,NA,NA,NA
3c4bc,task,flow.Sequence,3_0_1_0_4,NA,NA,completion,15133.791,1570649,1570644.557,1570661.223,1585795.014,1585800.9,2023-03-23T13:09:34Z,1585811.68,NULL,Widerstand,usulubu,d,NA,NA,NA,NA,sdfdsf,NA,1,NA,NA,NA,NA,NA,NA,NA,NA,NA,NA,NA,NA,NA,NA,NA,NA,NA,NA,NA
3c4bc,deep,flow.Sequence,3_0_1_0_5_0,NA,NA,skipped,NA,1585801,NA,NA,1585795.014,1585801.1,2023-03-23T13:09:34Z,1585811.68,NULL,Vergnügen,kichekesho,s,dubwana,mpanuko,mtesaji,NA,sdfdsf,NA,1,NA,NA,NA,NA,NA,NA,NA,NA,NA,NA,NA,NA,NA,NA,NA,NA,NA,NA,NA
3c4bc,Shallow Question,html.Page,3_0_1_0_5_1_0,NA,NA,form submission,5325.4199999997,1585801.4,1585795.014,1585811.68,1591137.1,1591137.6,2023-03-23T13:09:40Z,1591144.8,NULL,Vergnügen,kichekesho,s,dubwana,mpanuko,mtesaji,kichekesho,NA,NA,1,NA,NA,NA,NA,NA,NA,NA,NA,NA,NA,NA,NA,NA,NA,NA,NA,NA,NA,NA
3c4bc,"""Richtig""-Screen",canvas.Screen,3_0_1_0_5_1_1,NA,NA,timeout,5000.3499999999,1591142.3,1591128.134,1591144.8,1596128.484,1596133.4,2023-03-23T13:09:45Z,1596145.15,NULL,Vergnügen,kichekesho,s,dubwana,mpanuko,mtesaji,NA,sdfdsf,1,1,NA,NA,NA,NA,NA,NA,NA,NA,NA,NA,NA,NA,NA,NA,NA,NA,NA,NA,NA
3c4bc,"""Falsch""-Screen",canvas.Screen,3_0_1_0_5_1_2,NA,NA,skipped,NA,1596137,NA,NA,1596128.484,1596137.2,2023-03-23T13:09:45Z,1596145.15,NULL,Vergnügen,kichekesho,s,dubwana,mpanuko,mtesaji,NA,sdfdsf,NA,1,NA,NA,NA,NA,NA,NA,NA,NA,NA,NA,NA,NA,NA,NA,NA,NA,NA,NA,NA
3c4bc,shallow,flow.Sequence,3_0_1_0_5_1,NA,NA,completion,10316.804,1585801.3,1585795.014,1585811.68,1596128.484,1596137.3,2023-03-23T13:09:45Z,1596145.15,NULL,Vergnügen,kichekesho,s,dubwana,mpanuko,mtesaji,NA,sdfdsf,NA,1,NA,NA,NA,NA,NA,NA,NA,NA,NA,NA,NA,NA,NA,NA,NA,NA,NA,NA,NA
3c4bc,task,flow.Sequence,3_0_1_0_5,NA,NA,completion,10316.804,1585800.9,1585795.014,1585811.68,1596128.484,1596137.4,2023-03-23T13:09:45Z,1596145.15,NULL,Vergnügen,kichekesho,s,dubwana,mpanuko,mtesaji,NA,sdfdsf,NA,1,NA,NA,NA,NA,NA,NA,NA,NA,NA,NA,NA,NA,NA,NA,NA,NA,NA,NA,NA
3c4bc,deep,flow.Sequence,3_0_1_0_6_0,NA,NA,skipped,NA,1596137.5,NA,NA,1596128.484,1596137.6,2023-03-23T13:09:45Z,1596145.15,NULL,Notfall,dharura,s,rairai,malalamiko,ahueni,NA,sdfdsf,NA,1,NA,NA,NA,NA,NA,NA,NA,NA,NA,NA,NA,NA,NA,NA,NA,NA,NA,NA,NA
3c4bc,Shallow Question,html.Page,3_0_1_0_6_1_0,NA,NA,form submission,4186.7499999995,1596137.6,1596128.484,1596145.15,1600331.9,1600332.5,2023-03-23T13:09:49Z,1600344.982,NULL,Notfall,dharura,s,rairai,malalamiko,ahueni,dharura,NA,NA,1,NA,NA,NA,NA,NA,NA,NA,NA,NA,NA,NA,NA,NA,NA,NA,NA,NA,NA,NA
3c4bc,"""Richtig""-Screen",canvas.Screen,3_0_1_0_6_1_1,NA,NA,timeout,4999.7999999998,1600336.2,1600328.316,1600344.982,1605328.116,1605332.2,2023-03-23T13:09:54Z,1605344.782,NULL,Notfall,dharura,s,rairai,malalamiko,ahueni,NA,sdfdsf,1,1,NA,NA,NA,NA,NA,NA,NA,NA,NA,NA,NA,NA,NA,NA,NA,NA,NA,NA,NA
3c4bc,"""Falsch""-Screen",canvas.Screen,3_0_1_0_6_1_2,NA,NA,skipped,NA,1605336.5,NA,NA,1605328.116,1605336.7,2023-03-23T13:09:54Z,1605344.782,NULL,Notfall,dharura,s,rairai,malalamiko,ahueni,NA,sdfdsf,NA,1,NA,NA,NA,NA,NA,NA,NA,NA,NA,NA,NA,NA,NA,NA,NA,NA,NA,NA,NA
3c4bc,shallow,flow.Sequence,3_0_1_0_6_1,NA,NA,completion,9182.966,1596137.6,1596128.484,1596145.15,1605328.116,1605336.9,2023-03-23T13:09:54Z,1605344.782,NULL,Notfall,dharura,s,rairai,malalamiko,ahueni,NA,sdfdsf,NA,1,NA,NA,NA,NA,NA,NA,NA,NA,NA,NA,NA,NA,NA,NA,NA,NA,NA,NA,NA
3c4bc,task,flow.Sequence,3_0_1_0_6,NA,NA,completion,9182.966,1596137.4,1596128.484,1596145.15,1605328.116,1605337.1,2023-03-23T13:09:54Z,1605344.782,NULL,Notfall,dharura,s,rairai,malalamiko,ahueni,NA,sdfdsf,NA,1,NA,NA,NA,NA,NA,NA,NA,NA,NA,NA,NA,NA,NA,NA,NA,NA,NA,NA,NA
3c4bc,deep,flow.Sequence,3_0_1_0_7_0,NA,NA,skipped,NA,1605337.3,NA,NA,1605328.116,1605337.5,2023-03-23T13:09:54Z,1605344.782,NULL,Gelegenheit,wakati,s,mchanganyiko,kipaumbele,kushuku,NA,sdfdsf,NA,1,NA,NA,NA,NA,NA,NA,NA,NA,NA,NA,NA,NA,NA,NA,NA,NA,NA,NA,NA
3c4bc,Shallow Question,html.Page,3_0_1_0_7_1_0,NA,NA,form submission,5704.6179999996,1605337.6,1605328.116,1605344.782,1611049.4,1611049.9,2023-03-23T13:09:59Z,1611061.959,NULL,Gelegenheit,wakati,s,mchanganyiko,kipaumbele,kushuku,wakati,NA,NA,1,NA,NA,NA,NA,NA,NA,NA,NA,NA,NA,NA,NA,NA,NA,NA,NA,NA,NA,NA
3c4bc,"""Richtig""-Screen",canvas.Screen,3_0_1_0_7_1_1,NA,NA,timeout,4999.8,1611052.4,1611045.293,1611061.959,1616045.093,1616049.4,2023-03-23T13:10:04Z,1616061.759,NULL,Gelegenheit,wakati,s,mchanganyiko,kipaumbele,kushuku,NA,sdfdsf,1,1,NA,NA,NA,NA,NA,NA,NA,NA,NA,NA,NA,NA,NA,NA,NA,NA,NA,NA,NA
3c4bc,"""Falsch""-Screen",canvas.Screen,3_0_1_0_7_1_2,NA,NA,skipped,NA,1616053,NA,NA,1616045.093,1616053.2,2023-03-23T13:10:04Z,1616061.759,NULL,Gelegenheit,wakati,s,mchanganyiko,kipaumbele,kushuku,NA,sdfdsf,NA,1,NA,NA,NA,NA,NA,NA,NA,NA,NA,NA,NA,NA,NA,NA,NA,NA,NA,NA,NA
3c4bc,shallow,flow.Sequence,3_0_1_0_7_1,NA,NA,completion,10700.311,1605337.5,1605328.116,1605344.782,1616045.093,1616053.3,2023-03-23T13:10:04Z,1616061.759,NULL,Gelegenheit,wakati,s,mchanganyiko,kipaumbele,kushuku,NA,sdfdsf,NA,1,NA,NA,NA,NA,NA,NA,NA,NA,NA,NA,NA,NA,NA,NA,NA,NA,NA,NA,NA
3c4bc,task,flow.Sequence,3_0_1_0_7,NA,NA,completion,10700.311,1605337.3,1605328.116,1605344.782,1616045.093,1616053.5,2023-03-23T13:10:04Z,1616061.759,NULL,Gelegenheit,wakati,s,mchanganyiko,kipaumbele,kushuku,NA,sdfdsf,NA,1,NA,NA,NA,NA,NA,NA,NA,NA,NA,NA,NA,NA,NA,NA,NA,NA,NA,NA,NA
3c4bc,block,flow.Loop,3_0_1_0,NA,NA,completion,86433.911,1529598.6,1529594.516,1529611.182,1616045.093,1616053.5,2023-03-23T13:10:04Z,1616061.759,NULL,NA,NA,NA,NA,NA,NA,NA,sdfdsf,NA,1,NA,NA,NA,NA,NA,NA,NA,NA,NA,NA,NA,NA,NA,NA,NA,NA,NA,NA,NA
3c4bc,weiter,canvas.Screen,3_0_1_1,sdf,keypress(Space),response,982.34099999955,1616053.6,1616045.093,1616061.759,1617044.1,1617047.4,2023-03-23T13:10:05Z,1617078.954,NULL,NA,NA,NA,NA,NA,NA,NA,sdfdsf,NA,1,NA,NA,NA,NA,NA,NA,NA,NA,NA,NA,NA,NA,NA,NA,NA,NA,NA,NA,NA
3c4bc,check continue,flow.Sequence,3_0_1,NA,NA,completion,87432.918,1529598.6,1529594.516,1529611.182,1617044.1,1617047.7,2023-03-23T13:10:05Z,1617078.954,NULL,NA,NA,NA,NA,NA,NA,NA,sdfdsf,NA,1,NA,NA,NA,NA,NA,NA,NA,NA,NA,NA,NA,NA,NA,NA,NA,NA,NA,NA,NA
3c4bc,Deep Question,html.Page,3_0_2_0_0_0_0,NA,NA,form submission,4653.4459999995,1617074.8,1617062.288,1617078.954,1621732.4,1621733,2023-03-23T13:10:10Z,1621745.434,NULL,Ergänzung,kijalizo,d,NA,NA,NA,u,NA,NA,2,NA,NA,NA,NA,NA,NA,NA,NA,NA,NA,NA,NA,NA,NA,NA,NA,NA,NA,NA
3c4bc,"""Richtig""-Screen",canvas.Screen,3_0_2_0_0_0_1,NA,NA,skipped,NA,1621736.2,NA,NA,1621732.4,1621736.4,2023-03-23T13:10:10Z,1621745.434,NULL,Ergänzung,kijalizo,d,NA,NA,NA,NA,sdf,NA,2,NA,NA,NA,NA,NA,NA,NA,NA,NA,NA,NA,NA,NA,NA,NA,NA,NA,NA,NA
3c4bc,"""Falsch""-Screen",canvas.Screen,3_0_2_0_0_0_2,NA,NA,timeout,4999.8,1621737.4,1621728.768,1621745.434,1626728.568,1626732.7,2023-03-23T13:10:15Z,1626745.234,NULL,Ergänzung,kijalizo,d,NA,NA,NA,NA,sdf,0,2,NA,NA,NA,NA,NA,NA,NA,NA,NA,NA,NA,NA,NA,NA,NA,NA,NA,NA,NA
3c4bc,deep,flow.Sequence,3_0_2_0_0_0,NA,NA,completion,9649.6140000001,1617074.8,1617062.288,1617078.954,1626728.568,1626733.1,2023-03-23T13:10:15Z,1626745.234,NULL,Ergänzung,kijalizo,d,NA,NA,NA,NA,sdf,NA,2,NA,NA,NA,NA,NA,NA,NA,NA,NA,NA,NA,NA,NA,NA,NA,NA,NA,NA,NA
3c4bc,shallow,flow.Sequence,3_0_2_0_0_1,NA,NA,skipped,NA,1626733.2,NA,NA,1626728.568,1626733.3,2023-03-23T13:10:15Z,1626745.234,NULL,Ergänzung,kijalizo,d,NA,NA,NA,NA,sdf,NA,2,NA,NA,NA,NA,NA,NA,NA,NA,NA,NA,NA,NA,NA,NA,NA,NA,NA,NA,NA
3c4bc,task,flow.Sequence,3_0_2_0_0,NA,NA,completion,9649.6140000001,1617074.8,1617062.288,1617078.954,1626728.568,1626733.6,2023-03-23T13:10:15Z,1626745.234,NULL,Ergänzung,kijalizo,d,NA,NA,NA,NA,sdf,NA,2,NA,NA,NA,NA,NA,NA,NA,NA,NA,NA,NA,NA,NA,NA,NA,NA,NA,NA,NA
3c4bc,deep,flow.Sequence,3_0_2_0_1_0,NA,NA,skipped,NA,1626733.7,NA,NA,1626728.568,1626733.8,2023-03-23T13:10:15Z,1626745.234,NULL,Ausschluss,kutengwa,s,ununuzi,taratibu,madeni,NA,sdf,NA,2,NA,NA,NA,NA,NA,NA,NA,NA,NA,NA,NA,NA,NA,NA,NA,NA,NA,NA,NA
3c4bc,Shallow Question,html.Page,3_0_2_0_1_1_0,NA,NA,form submission,3890.0659999999,1626734,1626728.568,1626745.234,1630635.3,1630635.9,2023-03-23T13:10:19Z,1630645.638,NULL,Ausschluss,kutengwa,s,ununuzi,taratibu,madeni,kutengwa,NA,NA,2,NA,NA,NA,NA,NA,NA,NA,NA,NA,NA,NA,NA,NA,NA,NA,NA,NA,NA,NA
3c4bc,"""Richtig""-Screen",canvas.Screen,3_0_2_0_1_1_1,NA,NA,timeout,4999.8,1630638.9,1630628.972,1630645.638,1635628.772,1635633.8,2023-03-23T13:10:24Z,1635645.438,NULL,Ausschluss,kutengwa,s,ununuzi,taratibu,madeni,NA,sdf,1,2,NA,NA,NA,NA,NA,NA,NA,NA,NA,NA,NA,NA,NA,NA,NA,NA,NA,NA,NA
3c4bc,"""Falsch""-Screen",canvas.Screen,3_0_2_0_1_1_2,NA,NA,skipped,NA,1635637.5,NA,NA,1635628.772,1635637.6,2023-03-23T13:10:24Z,1635645.438,NULL,Ausschluss,kutengwa,s,ununuzi,taratibu,madeni,NA,sdf,NA,2,NA,NA,NA,NA,NA,NA,NA,NA,NA,NA,NA,NA,NA,NA,NA,NA,NA,NA,NA
3c4bc,shallow,flow.Sequence,3_0_2_0_1_1,NA,NA,completion,8883.5380000002,1626733.9,1626728.568,1626745.234,1635628.772,1635637.7,2023-03-23T13:10:24Z,1635645.438,NULL,Ausschluss,kutengwa,s,ununuzi,taratibu,madeni,NA,sdf,NA,2,NA,NA,NA,NA,NA,NA,NA,NA,NA,NA,NA,NA,NA,NA,NA,NA,NA,NA,NA
3c4bc,task,flow.Sequence,3_0_2_0_1,NA,NA,completion,8883.5380000002,1626733.6,1626728.568,1626745.234,1635628.772,1635637.9,2023-03-23T13:10:24Z,1635645.438,NULL,Ausschluss,kutengwa,s,ununuzi,taratibu,madeni,NA,sdf,NA,2,NA,NA,NA,NA,NA,NA,NA,NA,NA,NA,NA,NA,NA,NA,NA,NA,NA,NA,NA
3c4bc,deep,flow.Sequence,3_0_2_0_2_0,NA,NA,skipped,NA,1635637.9,NA,NA,1635628.772,1635638,2023-03-23T13:10:24Z,1635645.438,NULL,Notfall,dharura,s,rairai,malalamiko,ahueni,NA,sdf,NA,2,NA,NA,NA,NA,NA,NA,NA,NA,NA,NA,NA,NA,NA,NA,NA,NA,NA,NA,NA
3c4bc,Shallow Question,html.Page,3_0_2_0_2_1_0,NA,NA,form submission,3380.3619999997,1635638.1,1635628.772,1635645.438,1639025.8,1639026.3,2023-03-23T13:10:27Z,1639029.184,NULL,Notfall,dharura,s,rairai,malalamiko,ahueni,dharura,NA,NA,2,NA,NA,NA,NA,NA,NA,NA,NA,NA,NA,NA,NA,NA,NA,NA,NA,NA,NA,NA
3c4bc,"""Richtig""-Screen",canvas.Screen,3_0_2_0_2_1_1,NA,NA,timeout,4999.8,1639029.7,1639012.518,1639029.184,1644012.318,1644015.1,2023-03-23T13:10:32Z,1644028.984,NULL,Notfall,dharura,s,rairai,malalamiko,ahueni,NA,sdf,1,2,NA,NA,NA,NA,NA,NA,NA,NA,NA,NA,NA,NA,NA,NA,NA,NA,NA,NA,NA
3c4bc,"""Falsch""-Screen",canvas.Screen,3_0_2_0_2_1_2,NA,NA,skipped,NA,1644018.8,NA,NA,1644012.318,1644018.9,2023-03-23T13:10:32Z,1644028.984,NULL,Notfall,dharura,s,rairai,malalamiko,ahueni,NA,sdf,NA,2,NA,NA,NA,NA,NA,NA,NA,NA,NA,NA,NA,NA,NA,NA,NA,NA,NA,NA,NA
3c4bc,shallow,flow.Sequence,3_0_2_0_2_1,NA,NA,completion,8366.8799999999,1635638,1635628.772,1635645.438,1644012.318,1644019,2023-03-23T13:10:32Z,1644028.984,NULL,Notfall,dharura,s,rairai,malalamiko,ahueni,NA,sdf,NA,2,NA,NA,NA,NA,NA,NA,NA,NA,NA,NA,NA,NA,NA,NA,NA,NA,NA,NA,NA
3c4bc,task,flow.Sequence,3_0_2_0_2,NA,NA,completion,8366.8799999999,1635637.9,1635628.772,1635645.438,1644012.318,1644019.1,2023-03-23T13:10:32Z,1644028.984,NULL,Notfall,dharura,s,rairai,malalamiko,ahueni,NA,sdf,NA,2,NA,NA,NA,NA,NA,NA,NA,NA,NA,NA,NA,NA,NA,NA,NA,NA,NA,NA,NA
3c4bc,deep,flow.Sequence,3_0_2_0_3_0,NA,NA,skipped,NA,1644019.3,NA,NA,1644012.318,1644019.3,2023-03-23T13:10:32Z,1644028.984,NULL,Gelegenheit,wakati,s,mchanganyiko,kipaumbele,kushuku,NA,sdf,NA,2,NA,NA,NA,NA,NA,NA,NA,NA,NA,NA,NA,NA,NA,NA,NA,NA,NA,NA,NA
3c4bc,Shallow Question,html.Page,3_0_2_0_3_1_0,NA,NA,form submission,3375.1159999997,1644019.4,1644012.318,1644028.984,1647404.1,1647404.7,2023-03-23T13:10:36Z,1647412.182,NULL,Gelegenheit,wakati,s,mchanganyiko,kipaumbele,kushuku,wakati,NA,NA,2,NA,NA,NA,NA,NA,NA,NA,NA,NA,NA,NA,NA,NA,NA,NA,NA,NA,NA,NA
3c4bc,"""Richtig""-Screen",canvas.Screen,3_0_2_0_3_1_1,NA,NA,timeout,5000.3319999999,1647407.7,1647395.516,1647412.182,1652395.848,1652399.7,2023-03-23T13:10:41Z,1652412.514,NULL,Gelegenheit,wakati,s,mchanganyiko,kipaumbele,kushuku,NA,sdf,1,2,NA,NA,NA,NA,NA,NA,NA,NA,NA,NA,NA,NA,NA,NA,NA,NA,NA,NA,NA
3c4bc,"""Falsch""-Screen",canvas.Screen,3_0_2_0_3_1_2,NA,NA,skipped,NA,1652403.3,NA,NA,1652395.848,1652403.3,2023-03-23T13:10:41Z,1652412.514,NULL,Gelegenheit,wakati,s,mchanganyiko,kipaumbele,kushuku,NA,sdf,NA,2,NA,NA,NA,NA,NA,NA,NA,NA,NA,NA,NA,NA,NA,NA,NA,NA,NA,NA,NA
3c4bc,shallow,flow.Sequence,3_0_2_0_3_1,NA,NA,completion,8366.8640000001,1644019.4,1644012.318,1644028.984,1652395.848,1652403.5,2023-03-23T13:10:41Z,1652412.514,NULL,Gelegenheit,wakati,s,mchanganyiko,kipaumbele,kushuku,NA,sdf,NA,2,NA,NA,NA,NA,NA,NA,NA,NA,NA,NA,NA,NA,NA,NA,NA,NA,NA,NA,NA
3c4bc,task,flow.Sequence,3_0_2_0_3,NA,NA,completion,8366.8640000001,1644019.2,1644012.318,1644028.984,1652395.848,1652403.6,2023-03-23T13:10:41Z,1652412.514,NULL,Gelegenheit,wakati,s,mchanganyiko,kipaumbele,kushuku,NA,sdf,NA,2,NA,NA,NA,NA,NA,NA,NA,NA,NA,NA,NA,NA,NA,NA,NA,NA,NA,NA,NA
3c4bc,Deep Question,html.Page,3_0_2_0_4_0_0,NA,NA,form submission,7890.1860000002,1652403.8,1652395.848,1652412.514,1660302.7,1660303.1,2023-03-23T13:10:49Z,1660312.738,NULL,Widerstand,usulubu,d,NA,NA,NA,ulumubu,NA,NA,2,NA,NA,NA,NA,NA,NA,NA,NA,NA,NA,NA,NA,NA,NA,NA,NA,NA,NA,NA
3c4bc,"""Richtig""-Screen",canvas.Screen,3_0_2_0_4_0_1,NA,NA,skipped,NA,1660306.8,NA,NA,1660302.7,1660307.1,2023-03-23T13:10:49Z,1660312.738,NULL,Widerstand,usulubu,d,NA,NA,NA,NA,sdf,NA,2,NA,NA,NA,NA,NA,NA,NA,NA,NA,NA,NA,NA,NA,NA,NA,NA,NA,NA,NA
3c4bc,"""Falsch""-Screen",canvas.Screen,3_0_2_0_4_0_2,NA,NA,timeout,4999.8,1660307.8,1660296.072,1660312.738,1665295.872,1665298.9,2023-03-23T13:10:54Z,1665312.538,NULL,Widerstand,usulubu,d,NA,NA,NA,NA,sdf,0,2,NA,NA,NA,NA,NA,NA,NA,NA,NA,NA,NA,NA,NA,NA,NA,NA,NA,NA,NA
3c4bc,deep,flow.Sequence,3_0_2_0_4_0,NA,NA,completion,12883.358,1652403.7,1652395.848,1652412.514,1665295.872,1665299.4,2023-03-23T13:10:54Z,1665312.538,NULL,Widerstand,usulubu,d,NA,NA,NA,NA,sdf,NA,2,NA,NA,NA,NA,NA,NA,NA,NA,NA,NA,NA,NA,NA,NA,NA,NA,NA,NA,NA
3c4bc,shallow,flow.Sequence,3_0_2_0_4_1,NA,NA,skipped,NA,1665299.5,NA,NA,1665295.872,1665299.6,2023-03-23T13:10:54Z,1665312.538,NULL,Widerstand,usulubu,d,NA,NA,NA,NA,sdf,NA,2,NA,NA,NA,NA,NA,NA,NA,NA,NA,NA,NA,NA,NA,NA,NA,NA,NA,NA,NA
3c4bc,task,flow.Sequence,3_0_2_0_4,NA,NA,completion,12883.358,1652403.6,1652395.848,1652412.514,1665295.872,1665299.8,2023-03-23T13:10:54Z,1665312.538,NULL,Widerstand,usulubu,d,NA,NA,NA,NA,sdf,NA,2,NA,NA,NA,NA,NA,NA,NA,NA,NA,NA,NA,NA,NA,NA,NA,NA,NA,NA,NA
3c4bc,Deep Question,html.Page,3_0_2_0_5_0_0,NA,NA,form submission,6282.5619999997,1665300.1,1665295.872,1665312.538,1671595.1,1671595.6,2023-03-23T13:11:00Z,1671596.156,NULL,Wohlstand,mafanikio,d,NA,NA,NA,kajenga,NA,NA,2,NA,NA,NA,NA,NA,NA,NA,NA,NA,NA,NA,NA,NA,NA,NA,NA,NA,NA,NA
3c4bc,"""Richtig""-Screen",canvas.Screen,3_0_2_0_5_0_1,NA,NA,skipped,NA,1671598.4,NA,NA,1671595.1,1671598.6,2023-03-23T13:11:00Z,1671596.156,NULL,Wohlstand,mafanikio,d,NA,NA,NA,NA,sdf,NA,2,NA,NA,NA,NA,NA,NA,NA,NA,NA,NA,NA,NA,NA,NA,NA,NA,NA,NA,NA
3c4bc,"""Falsch""-Screen",canvas.Screen,3_0_2_0_5_0_2,NA,NA,timeout,4999.8,1671599.3,1671579.49,1671596.156,1676579.29,1676584,2023-03-23T13:11:05Z,1676595.956,NULL,Wohlstand,mafanikio,d,NA,NA,NA,NA,sdf,0,2,NA,NA,NA,NA,NA,NA,NA,NA,NA,NA,NA,NA,NA,NA,NA,NA,NA,NA,NA
3c4bc,deep,flow.Sequence,3_0_2_0_5_0,NA,NA,completion,11266.752,1665300,1665295.872,1665312.538,1676579.29,1676584.5,2023-03-23T13:11:05Z,1676595.956,NULL,Wohlstand,mafanikio,d,NA,NA,NA,NA,sdf,NA,2,NA,NA,NA,NA,NA,NA,NA,NA,NA,NA,NA,NA,NA,NA,NA,NA,NA,NA,NA
3c4bc,shallow,flow.Sequence,3_0_2_0_5_1,NA,NA,skipped,NA,1676584.6,NA,NA,1676579.29,1676584.7,2023-03-23T13:11:05Z,1676595.956,NULL,Wohlstand,mafanikio,d,NA,NA,NA,NA,sdf,NA,2,NA,NA,NA,NA,NA,NA,NA,NA,NA,NA,NA,NA,NA,NA,NA,NA,NA,NA,NA
3c4bc,task,flow.Sequence,3_0_2_0_5,NA,NA,completion,11266.752,1665299.9,1665295.872,1665312.538,1676579.29,1676584.9,2023-03-23T13:11:05Z,1676595.956,NULL,Wohlstand,mafanikio,d,NA,NA,NA,NA,sdf,NA,2,NA,NA,NA,NA,NA,NA,NA,NA,NA,NA,NA,NA,NA,NA,NA,NA,NA,NA,NA
3c4bc,Deep Question,html.Page,3_0_2_0_6_0_0,NA,NA,form submission,5728.9439999994,1676585.1,1676579.29,1676595.956,1682324.9,1682325.5,2023-03-23T13:11:11Z,1682329.614,NULL,Verstand,ufahamivu,d,NA,NA,NA,kjawanga,NA,NA,2,NA,NA,NA,NA,NA,NA,NA,NA,NA,NA,NA,NA,NA,NA,NA,NA,NA,NA,NA
3c4bc,"""Richtig""-Screen",canvas.Screen,3_0_2_0_6_0_1,NA,NA,skipped,NA,1682330,NA,NA,1682324.9,1682330.4,2023-03-23T13:11:11Z,1682329.614,NULL,Verstand,ufahamivu,d,NA,NA,NA,NA,sdf,NA,2,NA,NA,NA,NA,NA,NA,NA,NA,NA,NA,NA,NA,NA,NA,NA,NA,NA,NA,NA
3c4bc,"""Falsch""-Screen",canvas.Screen,3_0_2_0_6_0_2,NA,NA,timeout,4999.8,1682331.4,1682312.948,1682329.614,1687312.748,1687316.9,2023-03-23T13:11:16Z,1687329.414,NULL,Verstand,ufahamivu,d,NA,NA,NA,NA,sdf,0,2,NA,NA,NA,NA,NA,NA,NA,NA,NA,NA,NA,NA,NA,NA,NA,NA,NA,NA,NA
3c4bc,deep,flow.Sequence,3_0_2_0_6_0,NA,NA,completion,10716.792,1676585.1,1676579.29,1676595.956,1687312.748,1687317.3,2023-03-23T13:11:16Z,1687329.414,NULL,Verstand,ufahamivu,d,NA,NA,NA,NA,sdf,NA,2,NA,NA,NA,NA,NA,NA,NA,NA,NA,NA,NA,NA,NA,NA,NA,NA,NA,NA,NA
3c4bc,shallow,flow.Sequence,3_0_2_0_6_1,NA,NA,skipped,NA,1687317.6,NA,NA,1687312.748,1687317.7,2023-03-23T13:11:16Z,1687329.414,NULL,Verstand,ufahamivu,d,NA,NA,NA,NA,sdf,NA,2,NA,NA,NA,NA,NA,NA,NA,NA,NA,NA,NA,NA,NA,NA,NA,NA,NA,NA,NA
3c4bc,task,flow.Sequence,3_0_2_0_6,NA,NA,completion,10716.792,1676585.1,1676579.29,1676595.956,1687312.748,1687317.9,2023-03-23T13:11:16Z,1687329.414,NULL,Verstand,ufahamivu,d,NA,NA,NA,NA,sdf,NA,2,NA,NA,NA,NA,NA,NA,NA,NA,NA,NA,NA,NA,NA,NA,NA,NA,NA,NA,NA
3c4bc,deep,flow.Sequence,3_0_2_0_7_0,NA,NA,skipped,NA,1687318,NA,NA,1687312.748,1687318.2,2023-03-23T13:11:16Z,1687329.414,NULL,Vergnügen,kichekesho,s,dubwana,mpanuko,mtesaji,NA,sdf,NA,2,NA,NA,NA,NA,NA,NA,NA,NA,NA,NA,NA,NA,NA,NA,NA,NA,NA,NA,NA
3c4bc,Shallow Question,html.Page,3_0_2_0_7_1_0,NA,NA,form submission,3948.9859999993,1687318.3,1687312.748,1687329.414,1691278.4,1691278.9,2023-03-23T13:11:20Z,1691279.802,NULL,Vergnügen,kichekesho,s,dubwana,mpanuko,mtesaji,kichekesho,NA,NA,2,NA,NA,NA,NA,NA,NA,NA,NA,NA,NA,NA,NA,NA,NA,NA,NA,NA,NA,NA
3c4bc,"""Richtig""-Screen",canvas.Screen,3_0_2_0_7_1_1,NA,NA,timeout,4999.8,1691282.1,1691263.136,1691279.802,1696262.936,1696267.3,2023-03-23T13:11:25Z,1696279.602,NULL,Vergnügen,kichekesho,s,dubwana,mpanuko,mtesaji,NA,sdf,1,2,NA,NA,NA,NA,NA,NA,NA,NA,NA,NA,NA,NA,NA,NA,NA,NA,NA,NA,NA
3c4bc,"""Falsch""-Screen",canvas.Screen,3_0_2_0_7_1_2,NA,NA,skipped,NA,1696271.6,NA,NA,1696262.936,1696271.8,2023-03-23T13:11:25Z,1696279.602,NULL,Vergnügen,kichekesho,s,dubwana,mpanuko,mtesaji,NA,sdf,NA,2,NA,NA,NA,NA,NA,NA,NA,NA,NA,NA,NA,NA,NA,NA,NA,NA,NA,NA,NA
3c4bc,shallow,flow.Sequence,3_0_2_0_7_1,NA,NA,completion,8933.5219999999,1687318.2,1687312.748,1687329.414,1696262.936,1696272,2023-03-23T13:11:25Z,1696279.602,NULL,Vergnügen,kichekesho,s,dubwana,mpanuko,mtesaji,NA,sdf,NA,2,NA,NA,NA,NA,NA,NA,NA,NA,NA,NA,NA,NA,NA,NA,NA,NA,NA,NA,NA
3c4bc,task,flow.Sequence,3_0_2_0_7,NA,NA,completion,8933.5219999999,1687318,1687312.748,1687329.414,1696262.936,1696272.1,2023-03-23T13:11:25Z,1696279.602,NULL,Vergnügen,kichekesho,s,dubwana,mpanuko,mtesaji,NA,sdf,NA,2,NA,NA,NA,NA,NA,NA,NA,NA,NA,NA,NA,NA,NA,NA,NA,NA,NA,NA,NA
3c4bc,block,flow.Loop,3_0_2_0,NA,NA,completion,79183.982,1617074.8,1617062.288,1617078.954,1696262.936,1696272.3,2023-03-23T13:11:25Z,1696279.602,NULL,NA,NA,NA,NA,NA,NA,NA,sdf,NA,2,NA,NA,NA,NA,NA,NA,NA,NA,NA,NA,NA,NA,NA,NA,NA,NA,NA,NA,NA
3c4bc,weiter,canvas.Screen,3_0_2_1,sdf,keypress(Space),response,1005.398,1696272.3,1696262.936,1696279.602,1697285,1697288.6,2023-03-23T13:11:26Z,1697329.56,NULL,NA,NA,NA,NA,NA,NA,NA,sdf,NA,2,NA,NA,NA,NA,NA,NA,NA,NA,NA,NA,NA,NA,NA,NA,NA,NA,NA,NA,NA
3c4bc,check continue,flow.Sequence,3_0_2,NA,NA,completion,80206.046,1617074.8,1617062.288,1617078.954,1697285,1697288.9,2023-03-23T13:11:26Z,1697329.56,NULL,NA,NA,NA,NA,NA,NA,NA,sdf,NA,2,NA,NA,NA,NA,NA,NA,NA,NA,NA,NA,NA,NA,NA,NA,NA,NA,NA,NA,NA
3c4bc,deep,flow.Sequence,3_0_3_0_0_0,NA,NA,skipped,NA,1697317.2,NA,NA,1697285,1697317.3,2023-03-23T13:11:26Z,1697329.56,NULL,Gelegenheit,wakati,s,mchanganyiko,kipaumbele,kushuku,NA,qt,NA,3,NA,NA,NA,NA,NA,NA,NA,NA,NA,NA,NA,NA,NA,NA,NA,NA,NA,NA,NA
3c4bc,Shallow Question,html.Page,3_0_3_0_0_1_0,NA,NA,form submission,2516.9399999999,1697317.4,1697312.894,1697329.56,1699846.5,1699846.9,2023-03-23T13:11:28Z,1699846.654,NULL,Gelegenheit,wakati,s,mchanganyiko,kipaumbele,kushuku,wakati,NA,NA,3,NA,NA,NA,NA,NA,NA,NA,NA,NA,NA,NA,NA,NA,NA,NA,NA,NA,NA,NA
3c4bc,"""Richtig""-Screen",canvas.Screen,3_0_3_0_0_1_1,NA,NA,timeout,4999.7999999998,1699849.4,1699829.988,1699846.654,1704829.788,1704834.4,2023-03-23T13:11:33Z,1704846.454,NULL,Gelegenheit,wakati,s,mchanganyiko,kipaumbele,kushuku,NA,qt,1,3,NA,NA,NA,NA,NA,NA,NA,NA,NA,NA,NA,NA,NA,NA,NA,NA,NA,NA,NA
3c4bc,"""Falsch""-Screen",canvas.Screen,3_0_3_0_0_1_2,NA,NA,skipped,NA,1704839.2,NA,NA,1704829.788,1704839.3,2023-03-23T13:11:33Z,1704846.454,NULL,Gelegenheit,wakati,s,mchanganyiko,kipaumbele,kushuku,NA,qt,NA,3,NA,NA,NA,NA,NA,NA,NA,NA,NA,NA,NA,NA,NA,NA,NA,NA,NA,NA,NA
3c4bc,shallow,flow.Sequence,3_0_3_0_0_1,NA,NA,completion,7500.2279999999,1697317.4,1697312.894,1697329.56,1704829.788,1704839.4,2023-03-23T13:11:33Z,1704846.454,NULL,Gelegenheit,wakati,s,mchanganyiko,kipaumbele,kushuku,NA,qt,NA,3,NA,NA,NA,NA,NA,NA,NA,NA,NA,NA,NA,NA,NA,NA,NA,NA,NA,NA,NA
3c4bc,task,flow.Sequence,3_0_3_0_0,NA,NA,completion,7500.2279999999,1697317.2,1697312.894,1697329.56,1704829.788,1704839.5,2023-03-23T13:11:33Z,1704846.454,NULL,Gelegenheit,wakati,s,mchanganyiko,kipaumbele,kushuku,NA,qt,NA,3,NA,NA,NA,NA,NA,NA,NA,NA,NA,NA,NA,NA,NA,NA,NA,NA,NA,NA,NA
3c4bc,deep,flow.Sequence,3_0_3_0_1_0,NA,NA,skipped,NA,1704839.6,NA,NA,1704829.788,1704839.6,2023-03-23T13:11:33Z,1704846.454,NULL,Ausschluss,kutengwa,s,ununuzi,taratibu,madeni,NA,qt,NA,3,NA,NA,NA,NA,NA,NA,NA,NA,NA,NA,NA,NA,NA,NA,NA,NA,NA,NA,NA
3c4bc,Shallow Question,html.Page,3_0_3_0_1_1_0,NA,NA,form submission,4092.5460000001,1704839.7,1704829.788,1704846.454,1708939,1708939.8,2023-03-23T13:11:37Z,1708946.29,NULL,Ausschluss,kutengwa,s,ununuzi,taratibu,madeni,kutengwa,NA,NA,3,NA,NA,NA,NA,NA,NA,NA,NA,NA,NA,NA,NA,NA,NA,NA,NA,NA,NA,NA
3c4bc,"""Richtig""-Screen",canvas.Screen,3_0_3_0_1_1_1,NA,NA,timeout,5000.3319999999,1708944.1,1708929.624,1708946.29,1713929.956,1713934,2023-03-23T13:11:42Z,1713946.622,NULL,Ausschluss,kutengwa,s,ununuzi,taratibu,madeni,NA,qt,1,3,NA,NA,NA,NA,NA,NA,NA,NA,NA,NA,NA,NA,NA,NA,NA,NA,NA,NA,NA
3c4bc,"""Falsch""-Screen",canvas.Screen,3_0_3_0_1_1_2,NA,NA,skipped,NA,1713938.2,NA,NA,1713929.956,1713938.3,2023-03-23T13:11:42Z,1713946.622,NULL,Ausschluss,kutengwa,s,ununuzi,taratibu,madeni,NA,qt,NA,3,NA,NA,NA,NA,NA,NA,NA,NA,NA,NA,NA,NA,NA,NA,NA,NA,NA,NA,NA
3c4bc,shallow,flow.Sequence,3_0_3_0_1_1,NA,NA,completion,9083.5020000001,1704839.6,1704829.788,1704846.454,1713929.956,1713938.4,2023-03-23T13:11:42Z,1713946.622,NULL,Ausschluss,kutengwa,s,ununuzi,taratibu,madeni,NA,qt,NA,3,NA,NA,NA,NA,NA,NA,NA,NA,NA,NA,NA,NA,NA,NA,NA,NA,NA,NA,NA
3c4bc,task,flow.Sequence,3_0_3_0_1,NA,NA,completion,9083.5020000001,1704839.5,1704829.788,1704846.454,1713929.956,1713938.5,2023-03-23T13:11:42Z,1713946.622,NULL,Ausschluss,kutengwa,s,ununuzi,taratibu,madeni,NA,qt,NA,3,NA,NA,NA,NA,NA,NA,NA,NA,NA,NA,NA,NA,NA,NA,NA,NA,NA,NA,NA
3c4bc,Deep Question,html.Page,3_0_3_0_2_0_0,NA,NA,form submission,8455.1779999998,1713938.7,1713929.956,1713946.622,1722401.8,1722402.3,2023-03-23T13:11:51Z,1722413.497,NULL,Wohlstand,mafanikio,d,NA,NA,NA,mafanivu,NA,NA,3,NA,NA,NA,NA,NA,NA,NA,NA,NA,NA,NA,NA,NA,NA,NA,NA,NA,NA,NA
3c4bc,"""Richtig""-Screen",canvas.Screen,3_0_3_0_2_0_1,NA,NA,skipped,NA,1722405.3,NA,NA,1722401.8,1722405.3,2023-03-23T13:11:51Z,1722413.497,NULL,Wohlstand,mafanikio,d,NA,NA,NA,NA,qt,NA,3,NA,NA,NA,NA,NA,NA,NA,NA,NA,NA,NA,NA,NA,NA,NA,NA,NA,NA,NA
3c4bc,"""Falsch""-Screen",canvas.Screen,3_0_3_0_2_0_2,NA,NA,timeout,4999.8,1722406,1722396.831,1722413.497,1727396.631,1727402,2023-03-23T13:11:56Z,1727413.297,NULL,Wohlstand,mafanikio,d,NA,NA,NA,NA,qt,0,3,NA,NA,NA,NA,NA,NA,NA,NA,NA,NA,NA,NA,NA,NA,NA,NA,NA,NA,NA
3c4bc,deep,flow.Sequence,3_0_3_0_2_0,NA,NA,completion,13450.009,1713938.7,1713929.956,1713946.622,1727396.631,1727402.5,2023-03-23T13:11:56Z,1727413.297,NULL,Wohlstand,mafanikio,d,NA,NA,NA,NA,qt,NA,3,NA,NA,NA,NA,NA,NA,NA,NA,NA,NA,NA,NA,NA,NA,NA,NA,NA,NA,NA
3c4bc,shallow,flow.Sequence,3_0_3_0_2_1,NA,NA,skipped,NA,1727402.6,NA,NA,1727396.631,1727402.8,2023-03-23T13:11:56Z,1727413.297,NULL,Wohlstand,mafanikio,d,NA,NA,NA,NA,qt,NA,3,NA,NA,NA,NA,NA,NA,NA,NA,NA,NA,NA,NA,NA,NA,NA,NA,NA,NA,NA
3c4bc,task,flow.Sequence,3_0_3_0_2,NA,NA,completion,13450.009,1713938.6,1713929.956,1713946.622,1727396.631,1727403,2023-03-23T13:11:56Z,1727413.297,NULL,Wohlstand,mafanikio,d,NA,NA,NA,NA,qt,NA,3,NA,NA,NA,NA,NA,NA,NA,NA,NA,NA,NA,NA,NA,NA,NA,NA,NA,NA,NA
3c4bc,Deep Question,html.Page,3_0_3_0_3_0_0,NA,NA,form submission,7513.1029999994,1727403.2,1727396.631,1727413.297,1734926.4,1734927,2023-03-23T13:12:03Z,1734930.203,NULL,Ergänzung,kijalizo,d,NA,NA,NA,u,NA,NA,3,NA,NA,NA,NA,NA,NA,NA,NA,NA,NA,NA,NA,NA,NA,NA,NA,NA,NA,NA
3c4bc,"""Richtig""-Screen",canvas.Screen,3_0_3_0_3_0_1,NA,NA,skipped,NA,1734930,NA,NA,1734926.4,1734930.1,2023-03-23T13:12:03Z,1734930.203,NULL,Ergänzung,kijalizo,d,NA,NA,NA,NA,qt,NA,3,NA,NA,NA,NA,NA,NA,NA,NA,NA,NA,NA,NA,NA,NA,NA,NA,NA,NA,NA
3c4bc,"""Falsch""-Screen",canvas.Screen,3_0_3_0_3_0_2,NA,NA,timeout,4999.8,1734931.2,1734913.537,1734930.203,1739913.337,1739917.7,2023-03-23T13:12:08Z,1739930.003,NULL,Ergänzung,kijalizo,d,NA,NA,NA,NA,qt,0,3,NA,NA,NA,NA,NA,NA,NA,NA,NA,NA,NA,NA,NA,NA,NA,NA,NA,NA,NA
3c4bc,deep,flow.Sequence,3_0_3_0_3_0,NA,NA,completion,12500.04,1727403.2,1727396.631,1727413.297,1739913.337,1739918.1,2023-03-23T13:12:08Z,1739930.003,NULL,Ergänzung,kijalizo,d,NA,NA,NA,NA,qt,NA,3,NA,NA,NA,NA,NA,NA,NA,NA,NA,NA,NA,NA,NA,NA,NA,NA,NA,NA,NA
3c4bc,shallow,flow.Sequence,3_0_3_0_3_1,NA,NA,skipped,NA,1739918.3,NA,NA,1739913.337,1739918.4,2023-03-23T13:12:08Z,1739930.003,NULL,Ergänzung,kijalizo,d,NA,NA,NA,NA,qt,NA,3,NA,NA,NA,NA,NA,NA,NA,NA,NA,NA,NA,NA,NA,NA,NA,NA,NA,NA,NA
3c4bc,task,flow.Sequence,3_0_3_0_3,NA,NA,completion,12500.04,1727403.1,1727396.631,1727413.297,1739913.337,1739918.7,2023-03-23T13:12:08Z,1739930.003,NULL,Ergänzung,kijalizo,d,NA,NA,NA,NA,qt,NA,3,NA,NA,NA,NA,NA,NA,NA,NA,NA,NA,NA,NA,NA,NA,NA,NA,NA,NA,NA
3c4bc,Deep Question,html.Page,3_0_3_0_4_0_0,NA,NA,form submission,8072.6970000002,1739918.9,1739913.337,1739930.003,1748002.7,1748003.2,2023-03-23T13:12:16Z,1748013.552,NULL,Verstand,ufahamivu,d,NA,NA,NA,kwenga,NA,NA,3,NA,NA,NA,NA,NA,NA,NA,NA,NA,NA,NA,NA,NA,NA,NA,NA,NA,NA,NA
3c4bc,"""Richtig""-Screen",canvas.Screen,3_0_3_0_4_0_1,NA,NA,skipped,NA,1748007.9,NA,NA,1748002.7,1748008.1,2023-03-23T13:12:16Z,1748013.552,NULL,Verstand,ufahamivu,d,NA,NA,NA,NA,qt,NA,3,NA,NA,NA,NA,NA,NA,NA,NA,NA,NA,NA,NA,NA,NA,NA,NA,NA,NA,NA
3c4bc,"""Falsch""-Screen",canvas.Screen,3_0_3_0_4_0_2,NA,NA,timeout,4999.8,1748008.9,1747996.886,1748013.552,1752996.686,1753001,2023-03-23T13:12:21Z,1753013.352,NULL,Verstand,ufahamivu,d,NA,NA,NA,NA,qt,0,3,NA,NA,NA,NA,NA,NA,NA,NA,NA,NA,NA,NA,NA,NA,NA,NA,NA,NA,NA
3c4bc,deep,flow.Sequence,3_0_3_0_4_0,NA,NA,completion,13066.683,1739918.8,1739913.337,1739930.003,1752996.686,1753001.6,2023-03-23T13:12:21Z,1753013.352,NULL,Verstand,ufahamivu,d,NA,NA,NA,NA,qt,NA,3,NA,NA,NA,NA,NA,NA,NA,NA,NA,NA,NA,NA,NA,NA,NA,NA,NA,NA,NA
3c4bc,shallow,flow.Sequence,3_0_3_0_4_1,NA,NA,skipped,NA,1753001.8,NA,NA,1752996.686,1753001.9,2023-03-23T13:12:21Z,1753013.352,NULL,Verstand,ufahamivu,d,NA,NA,NA,NA,qt,NA,3,NA,NA,NA,NA,NA,NA,NA,NA,NA,NA,NA,NA,NA,NA,NA,NA,NA,NA,NA
3c4bc,task,flow.Sequence,3_0_3_0_4,NA,NA,completion,13066.683,1739918.8,1739913.337,1739930.003,1752996.686,1753002.1,2023-03-23T13:12:21Z,1753013.352,NULL,Verstand,ufahamivu,d,NA,NA,NA,NA,qt,NA,3,NA,NA,NA,NA,NA,NA,NA,NA,NA,NA,NA,NA,NA,NA,NA,NA,NA,NA,NA
3c4bc,deep,flow.Sequence,3_0_3_0_5_0,NA,NA,skipped,NA,1753002.3,NA,NA,1752996.686,1753002.5,2023-03-23T13:12:21Z,1753013.352,NULL,Vergnügen,kichekesho,s,dubwana,mpanuko,mtesaji,NA,qt,NA,3,NA,NA,NA,NA,NA,NA,NA,NA,NA,NA,NA,NA,NA,NA,NA,NA,NA,NA,NA
3c4bc,Shallow Question,html.Page,3_0_3_0_5_1_0,NA,NA,form submission,2374.9479999999,1753002.6,1752996.686,1753013.352,1755388.3,1755388.8,2023-03-23T13:12:24Z,1755397.277,NULL,Vergnügen,kichekesho,s,dubwana,mpanuko,mtesaji,kichekesho,NA,NA,3,NA,NA,NA,NA,NA,NA,NA,NA,NA,NA,NA,NA,NA,NA,NA,NA,NA,NA,NA
3c4bc,"""Richtig""-Screen",canvas.Screen,3_0_3_0_5_1_1,NA,NA,timeout,4999.8,1755391.9,1755380.611,1755397.277,1760380.411,1760384.7,2023-03-23T13:12:29Z,1760397.077,NULL,Vergnügen,kichekesho,s,dubwana,mpanuko,mtesaji,NA,qt,1,3,NA,NA,NA,NA,NA,NA,NA,NA,NA,NA,NA,NA,NA,NA,NA,NA,NA,NA,NA
3c4bc,"""Falsch""-Screen",canvas.Screen,3_0_3_0_5_1_2,NA,NA,skipped,NA,1760388.9,NA,NA,1760380.411,1760389.1,2023-03-23T13:12:29Z,1760397.077,NULL,Vergnügen,kichekesho,s,dubwana,mpanuko,mtesaji,NA,qt,NA,3,NA,NA,NA,NA,NA,NA,NA,NA,NA,NA,NA,NA,NA,NA,NA,NA,NA,NA,NA
3c4bc,shallow,flow.Sequence,3_0_3_0_5_1,NA,NA,completion,7367.0590000001,1753002.5,1752996.686,1753013.352,1760380.411,1760389.2,2023-03-23T13:12:29Z,1760397.077,NULL,Vergnügen,kichekesho,s,dubwana,mpanuko,mtesaji,NA,qt,NA,3,NA,NA,NA,NA,NA,NA,NA,NA,NA,NA,NA,NA,NA,NA,NA,NA,NA,NA,NA
3c4bc,task,flow.Sequence,3_0_3_0_5,NA,NA,completion,7367.0590000001,1753002.3,1752996.686,1753013.352,1760380.411,1760389.4,2023-03-23T13:12:29Z,1760397.077,NULL,Vergnügen,kichekesho,s,dubwana,mpanuko,mtesaji,NA,qt,NA,3,NA,NA,NA,NA,NA,NA,NA,NA,NA,NA,NA,NA,NA,NA,NA,NA,NA,NA,NA
3c4bc,deep,flow.Sequence,3_0_3_0_6_0,NA,NA,skipped,NA,1760389.5,NA,NA,1760380.411,1760389.5,2023-03-23T13:12:29Z,1760397.077,NULL,Notfall,dharura,s,rairai,malalamiko,ahueni,NA,qt,NA,3,NA,NA,NA,NA,NA,NA,NA,NA,NA,NA,NA,NA,NA,NA,NA,NA,NA,NA,NA
3c4bc,Shallow Question,html.Page,3_0_3_0_6_1_0,NA,NA,form submission,2402.8229999994,1760389.6,1760380.411,1760397.077,1762799.9,1762800.4,2023-03-23T13:12:31Z,1762813.647,NULL,Notfall,dharura,s,rairai,malalamiko,ahueni,dharura,NA,NA,3,NA,NA,NA,NA,NA,NA,NA,NA,NA,NA,NA,NA,NA,NA,NA,NA,NA,NA,NA
3c4bc,"""Richtig""-Screen",canvas.Screen,3_0_3_0_6_1_1,NA,NA,timeout,4999.7999999998,1762801.9,1762796.981,1762813.647,1767796.781,1767801.3,2023-03-23T13:12:36Z,1767813.447,NULL,Notfall,dharura,s,rairai,malalamiko,ahueni,NA,qt,1,3,NA,NA,NA,NA,NA,NA,NA,NA,NA,NA,NA,NA,NA,NA,NA,NA,NA,NA,NA
3c4bc,"""Falsch""-Screen",canvas.Screen,3_0_3_0_6_1_2,NA,NA,skipped,NA,1767805.7,NA,NA,1767796.781,1767805.8,2023-03-23T13:12:36Z,1767813.447,NULL,Notfall,dharura,s,rairai,malalamiko,ahueni,NA,qt,NA,3,NA,NA,NA,NA,NA,NA,NA,NA,NA,NA,NA,NA,NA,NA,NA,NA,NA,NA,NA
3c4bc,shallow,flow.Sequence,3_0_3_0_6_1,NA,NA,completion,7399.7039999999,1760389.5,1760380.411,1760397.077,1767796.781,1767806,2023-03-23T13:12:36Z,1767813.447,NULL,Notfall,dharura,s,rairai,malalamiko,ahueni,NA,qt,NA,3,NA,NA,NA,NA,NA,NA,NA,NA,NA,NA,NA,NA,NA,NA,NA,NA,NA,NA,NA
3c4bc,task,flow.Sequence,3_0_3_0_6,NA,NA,completion,7399.7039999999,1760389.4,1760380.411,1760397.077,1767796.781,1767806.2,2023-03-23T13:12:36Z,1767813.447,NULL,Notfall,dharura,s,rairai,malalamiko,ahueni,NA,qt,NA,3,NA,NA,NA,NA,NA,NA,NA,NA,NA,NA,NA,NA,NA,NA,NA,NA,NA,NA,NA
3c4bc,Deep Question,html.Page,3_0_3_0_7_0_0,NA,NA,form submission,11381.553,1767806.3,1767796.781,1767813.447,1779195,1779195.5,2023-03-23T13:12:48Z,1779197.646,NULL,Widerstand,usulubu,d,NA,NA,NA,ubulubu,NA,NA,3,NA,NA,NA,NA,NA,NA,NA,NA,NA,NA,NA,NA,NA,NA,NA,NA,NA,NA,NA
3c4bc,"""Richtig""-Screen",canvas.Screen,3_0_3_0_7_0_1,NA,NA,skipped,NA,1779198.2,NA,NA,1779195,1779198.3,2023-03-23T13:12:48Z,1779197.646,NULL,Widerstand,usulubu,d,NA,NA,NA,NA,qt,NA,3,NA,NA,NA,NA,NA,NA,NA,NA,NA,NA,NA,NA,NA,NA,NA,NA,NA,NA,NA
3c4bc,"""Falsch""-Screen",canvas.Screen,3_0_3_0_7_0_2,NA,NA,timeout,4999.8,1779198.9,1779180.98,1779197.646,1784180.78,1784182,2023-03-23T13:12:53Z,1784197.446,NULL,Widerstand,usulubu,d,NA,NA,NA,NA,qt,0,3,NA,NA,NA,NA,NA,NA,NA,NA,NA,NA,NA,NA,NA,NA,NA,NA,NA,NA,NA
3c4bc,deep,flow.Sequence,3_0_3_0_7_0,NA,NA,completion,16367.333,1767806.3,1767796.781,1767813.447,1784180.78,1784182.6,2023-03-23T13:12:53Z,1784197.446,NULL,Widerstand,usulubu,d,NA,NA,NA,NA,qt,NA,3,NA,NA,NA,NA,NA,NA,NA,NA,NA,NA,NA,NA,NA,NA,NA,NA,NA,NA,NA
3c4bc,shallow,flow.Sequence,3_0_3_0_7_1,NA,NA,skipped,NA,1784182.7,NA,NA,1784180.78,1784182.9,2023-03-23T13:12:53Z,1784197.446,NULL,Widerstand,usulubu,d,NA,NA,NA,NA,qt,NA,3,NA,NA,NA,NA,NA,NA,NA,NA,NA,NA,NA,NA,NA,NA,NA,NA,NA,NA,NA
3c4bc,task,flow.Sequence,3_0_3_0_7,NA,NA,completion,16367.333,1767806.3,1767796.781,1767813.447,1784180.78,1784183.1,2023-03-23T13:12:53Z,1784197.446,NULL,Widerstand,usulubu,d,NA,NA,NA,NA,qt,NA,3,NA,NA,NA,NA,NA,NA,NA,NA,NA,NA,NA,NA,NA,NA,NA,NA,NA,NA,NA
3c4bc,block,flow.Loop,3_0_3_0,NA,NA,completion,86851.22,1697317.2,1697312.894,1697329.56,1784180.78,1784183.2,2023-03-23T13:12:53Z,1784197.446,NULL,NA,NA,NA,NA,NA,NA,NA,qt,NA,3,NA,NA,NA,NA,NA,NA,NA,NA,NA,NA,NA,NA,NA,NA,NA,NA,NA,NA,NA
3c4bc,weiter,canvas.Screen,3_0_3_1,sdf,keypress(Space),response,1011.4539999994,1784183.4,1784180.78,1784197.446,1785208.9,1785214.6,2023-03-23T13:12:54Z,1785247.404,NULL,NA,NA,NA,NA,NA,NA,NA,qt,NA,3,NA,NA,NA,NA,NA,NA,NA,NA,NA,NA,NA,NA,NA,NA,NA,NA,NA,NA,NA
3c4bc,check continue,flow.Sequence,3_0_3,NA,NA,completion,87879.339999999,1697316.8,1697312.894,1697329.56,1785208.9,1785214.9,2023-03-23T13:12:54Z,1785247.404,NULL,NA,NA,NA,NA,NA,NA,NA,qt,NA,3,NA,NA,NA,NA,NA,NA,NA,NA,NA,NA,NA,NA,NA,NA,NA,NA,NA,NA,NA
3c4bc,deep,flow.Sequence,3_0_4_0_0_0,NA,NA,skipped,NA,1785240.7,NA,NA,1785208.9,1785240.8,2023-03-23T13:12:54Z,1785247.404,NULL,Notfall,dharura,s,rairai,malalamiko,ahueni,NA,sd,NA,4,NA,NA,NA,NA,NA,NA,NA,NA,NA,NA,NA,NA,NA,NA,NA,NA,NA,NA,NA
3c4bc,Shallow Question,html.Page,3_0_4_0_0_1_0,NA,NA,form submission,1740.0959999999,1785240.8,1785230.738,1785247.404,1786987.5,1786988,2023-03-23T13:12:55Z,1786997.334,NULL,Notfall,dharura,s,rairai,malalamiko,ahueni,dharura,NA,NA,4,NA,NA,NA,NA,NA,NA,NA,NA,NA,NA,NA,NA,NA,NA,NA,NA,NA,NA,NA
3c4bc,"""Richtig""-Screen",canvas.Screen,3_0_4_0_0_1_1,NA,NA,timeout,4999.8,1786990.1,1786980.668,1786997.334,1791980.468,1791984.7,2023-03-23T13:13:00Z,1791997.134,NULL,Notfall,dharura,s,rairai,malalamiko,ahueni,NA,sd,1,4,NA,NA,NA,NA,NA,NA,NA,NA,NA,NA,NA,NA,NA,NA,NA,NA,NA,NA,NA
3c4bc,"""Falsch""-Screen",canvas.Screen,3_0_4_0_0_1_2,NA,NA,skipped,NA,1791989.3,NA,NA,1791980.468,1791989.6,2023-03-23T13:13:00Z,1791997.134,NULL,Notfall,dharura,s,rairai,malalamiko,ahueni,NA,sd,NA,4,NA,NA,NA,NA,NA,NA,NA,NA,NA,NA,NA,NA,NA,NA,NA,NA,NA,NA,NA
3c4bc,shallow,flow.Sequence,3_0_4_0_0_1,NA,NA,completion,6733.064,1785240.8,1785230.738,1785247.404,1791980.468,1791989.7,2023-03-23T13:13:00Z,1791997.134,NULL,Notfall,dharura,s,rairai,malalamiko,ahueni,NA,sd,NA,4,NA,NA,NA,NA,NA,NA,NA,NA,NA,NA,NA,NA,NA,NA,NA,NA,NA,NA,NA
3c4bc,task,flow.Sequence,3_0_4_0_0,NA,NA,completion,6733.064,1785240.7,1785230.738,1785247.404,1791980.468,1791989.8,2023-03-23T13:13:00Z,1791997.134,NULL,Notfall,dharura,s,rairai,malalamiko,ahueni,NA,sd,NA,4,NA,NA,NA,NA,NA,NA,NA,NA,NA,NA,NA,NA,NA,NA,NA,NA,NA,NA,NA
3c4bc,Deep Question,html.Page,3_0_4_0_1_0_0,NA,NA,form submission,8680.3659999999,1791990,1791980.468,1791997.134,1800677.5,1800678,2023-03-23T13:13:09Z,1800680.845,NULL,Wohlstand,mafanikio,d,NA,NA,NA,mafakewa,NA,NA,4,NA,NA,NA,NA,NA,NA,NA,NA,NA,NA,NA,NA,NA,NA,NA,NA,NA,NA,NA
3c4bc,"""Richtig""-Screen",canvas.Screen,3_0_4_0_1_0_1,NA,NA,skipped,NA,1800681,NA,NA,1800677.5,1800681.3,2023-03-23T13:13:09Z,1800680.845,NULL,Wohlstand,mafanikio,d,NA,NA,NA,NA,sd,NA,4,NA,NA,NA,NA,NA,NA,NA,NA,NA,NA,NA,NA,NA,NA,NA,NA,NA,NA,NA
3c4bc,"""Falsch""-Screen",canvas.Screen,3_0_4_0_1_0_2,NA,NA,timeout,4999.8,1800682.3,1800664.179,1800680.845,1805663.979,1805668.4,2023-03-23T13:13:14Z,1805680.645,NULL,Wohlstand,mafanikio,d,NA,NA,NA,NA,sd,0,4,NA,NA,NA,NA,NA,NA,NA,NA,NA,NA,NA,NA,NA,NA,NA,NA,NA,NA,NA
3c4bc,deep,flow.Sequence,3_0_4_0_1_0,NA,NA,completion,13666.845,1791989.9,1791980.468,1791997.134,1805663.979,1805668.9,2023-03-23T13:13:14Z,1805680.645,NULL,Wohlstand,mafanikio,d,NA,NA,NA,NA,sd,NA,4,NA,NA,NA,NA,NA,NA,NA,NA,NA,NA,NA,NA,NA,NA,NA,NA,NA,NA,NA
3c4bc,shallow,flow.Sequence,3_0_4_0_1_1,NA,NA,skipped,NA,1805669,NA,NA,1805663.979,1805669.1,2023-03-23T13:13:14Z,1805680.645,NULL,Wohlstand,mafanikio,d,NA,NA,NA,NA,sd,NA,4,NA,NA,NA,NA,NA,NA,NA,NA,NA,NA,NA,NA,NA,NA,NA,NA,NA,NA,NA
3c4bc,task,flow.Sequence,3_0_4_0_1,NA,NA,completion,13666.845,1791989.9,1791980.468,1791997.134,1805663.979,1805669.3,2023-03-23T13:13:14Z,1805680.645,NULL,Wohlstand,mafanikio,d,NA,NA,NA,NA,sd,NA,4,NA,NA,NA,NA,NA,NA,NA,NA,NA,NA,NA,NA,NA,NA,NA,NA,NA,NA,NA
3c4bc,deep,flow.Sequence,3_0_4_0_2_0,NA,NA,skipped,NA,1805669.5,NA,NA,1805663.979,1805669.6,2023-03-23T13:13:14Z,1805680.645,NULL,Ausschluss,kutengwa,s,ununuzi,taratibu,madeni,NA,sd,NA,4,NA,NA,NA,NA,NA,NA,NA,NA,NA,NA,NA,NA,NA,NA,NA,NA,NA,NA,NA
3c4bc,Shallow Question,html.Page,3_0_4_0_2_1_0,NA,NA,form submission,3357.0550000002,1805669.7,1805663.979,1805680.645,1809037.7,1809038.3,2023-03-23T13:13:17Z,1809047.896,NULL,Ausschluss,kutengwa,s,ununuzi,taratibu,madeni,kutengwa,NA,NA,4,NA,NA,NA,NA,NA,NA,NA,NA,NA,NA,NA,NA,NA,NA,NA,NA,NA,NA,NA
3c4bc,"""Richtig""-Screen",canvas.Screen,3_0_4_0_2_1_1,NA,NA,timeout,4999.8,1809041.2,1809031.23,1809047.896,1814031.03,1814035.2,2023-03-23T13:13:22Z,1814047.696,NULL,Ausschluss,kutengwa,s,ununuzi,taratibu,madeni,NA,sd,1,4,NA,NA,NA,NA,NA,NA,NA,NA,NA,NA,NA,NA,NA,NA,NA,NA,NA,NA,NA
3c4bc,"""Falsch""-Screen",canvas.Screen,3_0_4_0_2_1_2,NA,NA,skipped,NA,1814039.4,NA,NA,1814031.03,1814039.5,2023-03-23T13:13:22Z,1814047.696,NULL,Ausschluss,kutengwa,s,ununuzi,taratibu,madeni,NA,sd,NA,4,NA,NA,NA,NA,NA,NA,NA,NA,NA,NA,NA,NA,NA,NA,NA,NA,NA,NA,NA
3c4bc,shallow,flow.Sequence,3_0_4_0_2_1,NA,NA,completion,8350.385,1805669.7,1805663.979,1805680.645,1814031.03,1814039.6,2023-03-23T13:13:22Z,1814047.696,NULL,Ausschluss,kutengwa,s,ununuzi,taratibu,madeni,NA,sd,NA,4,NA,NA,NA,NA,NA,NA,NA,NA,NA,NA,NA,NA,NA,NA,NA,NA,NA,NA,NA
3c4bc,task,flow.Sequence,3_0_4_0_2,NA,NA,completion,8350.385,1805669.4,1805663.979,1805680.645,1814031.03,1814039.7,2023-03-23T13:13:22Z,1814047.696,NULL,Ausschluss,kutengwa,s,ununuzi,taratibu,madeni,NA,sd,NA,4,NA,NA,NA,NA,NA,NA,NA,NA,NA,NA,NA,NA,NA,NA,NA,NA,NA,NA,NA
3c4bc,Deep Question,html.Page,3_0_4_0_3_0_0,NA,NA,form submission,6507.7039999994,1814039.9,1814031.03,1814047.696,1820555.4,1820556,2023-03-23T13:13:29Z,1820564.649,NULL,Ergänzung,kijalizo,d,NA,NA,NA,winkti,NA,NA,4,NA,NA,NA,NA,NA,NA,NA,NA,NA,NA,NA,NA,NA,NA,NA,NA,NA,NA,NA
3c4bc,"""Richtig""-Screen",canvas.Screen,3_0_4_0_3_0_1,NA,NA,skipped,NA,1820558.5,NA,NA,1820555.4,1820558.7,2023-03-23T13:13:29Z,1820564.649,NULL,Ergänzung,kijalizo,d,NA,NA,NA,NA,sd,NA,4,NA,NA,NA,NA,NA,NA,NA,NA,NA,NA,NA,NA,NA,NA,NA,NA,NA,NA,NA
3c4bc,"""Falsch""-Screen",canvas.Screen,3_0_4_0_3_0_2,NA,NA,timeout,4999.8,1820559.2,1820547.983,1820564.649,1825547.783,1825550.1,2023-03-23T13:13:34Z,1825564.449,NULL,Ergänzung,kijalizo,d,NA,NA,NA,NA,sd,0,4,NA,NA,NA,NA,NA,NA,NA,NA,NA,NA,NA,NA,NA,NA,NA,NA,NA,NA,NA
3c4bc,deep,flow.Sequence,3_0_4_0_3_0,NA,NA,completion,11500.087,1814039.9,1814031.03,1814047.696,1825547.783,1825550.6,2023-03-23T13:13:34Z,1825564.449,NULL,Ergänzung,kijalizo,d,NA,NA,NA,NA,sd,NA,4,NA,NA,NA,NA,NA,NA,NA,NA,NA,NA,NA,NA,NA,NA,NA,NA,NA,NA,NA
3c4bc,shallow,flow.Sequence,3_0_4_0_3_1,NA,NA,skipped,NA,1825550.7,NA,NA,1825547.783,1825550.8,2023-03-23T13:13:34Z,1825564.449,NULL,Ergänzung,kijalizo,d,NA,NA,NA,NA,sd,NA,4,NA,NA,NA,NA,NA,NA,NA,NA,NA,NA,NA,NA,NA,NA,NA,NA,NA,NA,NA
3c4bc,task,flow.Sequence,3_0_4_0_3,NA,NA,completion,11500.087,1814039.8,1814031.03,1814047.696,1825547.783,1825550.9,2023-03-23T13:13:34Z,1825564.449,NULL,Ergänzung,kijalizo,d,NA,NA,NA,NA,sd,NA,4,NA,NA,NA,NA,NA,NA,NA,NA,NA,NA,NA,NA,NA,NA,NA,NA,NA,NA,NA
3c4bc,deep,flow.Sequence,3_0_4_0_4_0,NA,NA,skipped,NA,1825551,NA,NA,1825547.783,1825551.2,2023-03-23T13:13:34Z,1825564.449,NULL,Vergnügen,kichekesho,s,dubwana,mpanuko,mtesaji,NA,sd,NA,4,NA,NA,NA,NA,NA,NA,NA,NA,NA,NA,NA,NA,NA,NA,NA,NA,NA,NA,NA
3c4bc,Shallow Question,html.Page,3_0_4_0_4_1_0,NA,NA,form submission,2907.4509999994,1825551.2,1825547.783,1825564.449,1828471.9,1828472.5,2023-03-23T13:13:37Z,1828480.999,NULL,Vergnügen,kichekesho,s,dubwana,mpanuko,mtesaji,kichekesho,NA,NA,4,NA,NA,NA,NA,NA,NA,NA,NA,NA,NA,NA,NA,NA,NA,NA,NA,NA,NA,NA
3c4bc,"""Richtig""-Screen",canvas.Screen,3_0_4_0_4_1_1,NA,NA,timeout,4999.8,1828476,1828464.333,1828480.999,1833464.133,1833469.3,2023-03-23T13:13:42Z,1833480.799,NULL,Vergnügen,kichekesho,s,dubwana,mpanuko,mtesaji,NA,sd,1,4,NA,NA,NA,NA,NA,NA,NA,NA,NA,NA,NA,NA,NA,NA,NA,NA,NA,NA,NA
3c4bc,"""Falsch""-Screen",canvas.Screen,3_0_4_0_4_1_2,NA,NA,skipped,NA,1833473,NA,NA,1833464.133,1833473.1,2023-03-23T13:13:42Z,1833480.799,NULL,Vergnügen,kichekesho,s,dubwana,mpanuko,mtesaji,NA,sd,NA,4,NA,NA,NA,NA,NA,NA,NA,NA,NA,NA,NA,NA,NA,NA,NA,NA,NA,NA,NA
3c4bc,shallow,flow.Sequence,3_0_4_0_4_1,NA,NA,completion,7899.6839999999,1825551.2,1825547.783,1825564.449,1833464.133,1833473.3,2023-03-23T13:13:42Z,1833480.799,NULL,Vergnügen,kichekesho,s,dubwana,mpanuko,mtesaji,NA,sd,NA,4,NA,NA,NA,NA,NA,NA,NA,NA,NA,NA,NA,NA,NA,NA,NA,NA,NA,NA,NA
3c4bc,task,flow.Sequence,3_0_4_0_4,NA,NA,completion,7899.6839999999,1825551,1825547.783,1825564.449,1833464.133,1833473.4,2023-03-23T13:13:42Z,1833480.799,NULL,Vergnügen,kichekesho,s,dubwana,mpanuko,mtesaji,NA,sd,NA,4,NA,NA,NA,NA,NA,NA,NA,NA,NA,NA,NA,NA,NA,NA,NA,NA,NA,NA,NA
3c4bc,deep,flow.Sequence,3_0_4_0_5_0,NA,NA,skipped,NA,1833473.6,NA,NA,1833464.133,1833473.6,2023-03-23T13:13:42Z,1833480.799,NULL,Gelegenheit,wakati,s,mchanganyiko,kipaumbele,kushuku,NA,sd,NA,4,NA,NA,NA,NA,NA,NA,NA,NA,NA,NA,NA,NA,NA,NA,NA,NA,NA,NA,NA
3c4bc,Shallow Question,html.Page,3_0_4_0_5_1_0,NA,NA,form submission,2546.2009999999,1833473.7,1833464.133,1833480.799,1836027,1836027.6,2023-03-23T13:13:44Z,1836030.697,NULL,Gelegenheit,wakati,s,mchanganyiko,kipaumbele,kushuku,wakati,NA,NA,4,NA,NA,NA,NA,NA,NA,NA,NA,NA,NA,NA,NA,NA,NA,NA,NA,NA,NA,NA
3c4bc,"""Richtig""-Screen",canvas.Screen,3_0_4_0_5_1_1,NA,NA,timeout,4999.8,1836028.8,1836014.031,1836030.697,1841013.831,1841015.8,2023-03-23T13:13:49Z,1841030.497,NULL,Gelegenheit,wakati,s,mchanganyiko,kipaumbele,kushuku,NA,sd,1,4,NA,NA,NA,NA,NA,NA,NA,NA,NA,NA,NA,NA,NA,NA,NA,NA,NA,NA,NA
3c4bc,"""Falsch""-Screen",canvas.Screen,3_0_4_0_5_1_2,NA,NA,skipped,NA,1841020.4,NA,NA,1841013.831,1841020.5,2023-03-23T13:13:49Z,1841030.497,NULL,Gelegenheit,wakati,s,mchanganyiko,kipaumbele,kushuku,NA,sd,NA,4,NA,NA,NA,NA,NA,NA,NA,NA,NA,NA,NA,NA,NA,NA,NA,NA,NA,NA,NA
3c4bc,shallow,flow.Sequence,3_0_4_0_5_1,NA,NA,completion,7533.0319999999,1833473.6,1833464.133,1833480.799,1841013.831,1841020.7,2023-03-23T13:13:49Z,1841030.497,NULL,Gelegenheit,wakati,s,mchanganyiko,kipaumbele,kushuku,NA,sd,NA,4,NA,NA,NA,NA,NA,NA,NA,NA,NA,NA,NA,NA,NA,NA,NA,NA,NA,NA,NA
3c4bc,task,flow.Sequence,3_0_4_0_5,NA,NA,completion,7533.0319999999,1833473.5,1833464.133,1833480.799,1841013.831,1841020.7,2023-03-23T13:13:49Z,1841030.497,NULL,Gelegenheit,wakati,s,mchanganyiko,kipaumbele,kushuku,NA,sd,NA,4,NA,NA,NA,NA,NA,NA,NA,NA,NA,NA,NA,NA,NA,NA,NA,NA,NA,NA,NA
3c4bc,Deep Question,html.Page,3_0_4_0_6_0_0,NA,NA,form submission,11212.103,1841021,1841013.831,1841030.497,1852242.6,1852242.9,2023-03-23T13:14:01Z,1852248.558,NULL,Verstand,ufahamivu,d,NA,NA,NA,ufunivu,NA,NA,4,NA,NA,NA,NA,NA,NA,NA,NA,NA,NA,NA,NA,NA,NA,NA,NA,NA,NA,NA
3c4bc,"""Richtig""-Screen",canvas.Screen,3_0_4_0_6_0_1,NA,NA,skipped,NA,1852244.9,NA,NA,1852242.6,1852245,2023-03-23T13:14:01Z,1852248.558,NULL,Verstand,ufahamivu,d,NA,NA,NA,NA,sd,NA,4,NA,NA,NA,NA,NA,NA,NA,NA,NA,NA,NA,NA,NA,NA,NA,NA,NA,NA,NA
3c4bc,"""Falsch""-Screen",canvas.Screen,3_0_4_0_6_0_2,NA,NA,timeout,4999.8,1852245.8,1852231.892,1852248.558,1857231.692,1857235.7,2023-03-23T13:14:06Z,1857248.358,NULL,Verstand,ufahamivu,d,NA,NA,NA,NA,sd,0,4,NA,NA,NA,NA,NA,NA,NA,NA,NA,NA,NA,NA,NA,NA,NA,NA,NA,NA,NA
3c4bc,deep,flow.Sequence,3_0_4_0_6_0,NA,NA,completion,16201.195,1841020.9,1841013.831,1841030.497,1857231.692,1857236.2,2023-03-23T13:14:06Z,1857248.358,NULL,Verstand,ufahamivu,d,NA,NA,NA,NA,sd,NA,4,NA,NA,NA,NA,NA,NA,NA,NA,NA,NA,NA,NA,NA,NA,NA,NA,NA,NA,NA
3c4bc,shallow,flow.Sequence,3_0_4_0_6_1,NA,NA,skipped,NA,1857236.4,NA,NA,1857231.692,1857236.5,2023-03-23T13:14:06Z,1857248.358,NULL,Verstand,ufahamivu,d,NA,NA,NA,NA,sd,NA,4,NA,NA,NA,NA,NA,NA,NA,NA,NA,NA,NA,NA,NA,NA,NA,NA,NA,NA,NA
3c4bc,task,flow.Sequence,3_0_4_0_6,NA,NA,completion,16201.195,1841020.9,1841013.831,1841030.497,1857231.692,1857236.7,2023-03-23T13:14:06Z,1857248.358,NULL,Verstand,ufahamivu,d,NA,NA,NA,NA,sd,NA,4,NA,NA,NA,NA,NA,NA,NA,NA,NA,NA,NA,NA,NA,NA,NA,NA,NA,NA,NA
3c4bc,Deep Question,html.Page,3_0_4_0_7_0_0,NA,NA,form submission,8147.4419999998,1857236.9,1857231.692,1857248.358,1865395.8,1865396.2,2023-03-23T13:14:14Z,1865398.57,NULL,Widerstand,usulubu,d,NA,NA,NA,usulubu,NA,NA,4,NA,NA,NA,NA,NA,NA,NA,NA,NA,NA,NA,NA,NA,NA,NA,NA,NA,NA,NA
3c4bc,"""Richtig""-Screen",canvas.Screen,3_0_4_0_7_0_1,NA,NA,timeout,4999.8,1865400.5,1865381.904,1865398.57,1870381.704,1870386.6,2023-03-23T13:14:19Z,1870398.37,NULL,Widerstand,usulubu,d,NA,NA,NA,NA,sd,1,4,NA,NA,NA,NA,NA,NA,NA,NA,NA,NA,NA,NA,NA,NA,NA,NA,NA,NA,NA
3c4bc,"""Falsch""-Screen",canvas.Screen,3_0_4_0_7_0_2,NA,NA,skipped,NA,1870390.3,NA,NA,1870381.704,1870390.4,2023-03-23T13:14:19Z,1870398.37,NULL,Widerstand,usulubu,d,NA,NA,NA,NA,sd,NA,4,NA,NA,NA,NA,NA,NA,NA,NA,NA,NA,NA,NA,NA,NA,NA,NA,NA,NA,NA
3c4bc,deep,flow.Sequence,3_0_4_0_7_0,NA,NA,completion,13133.346,1857236.9,1857231.692,1857248.358,1870381.704,1870390.5,2023-03-23T13:14:19Z,1870398.37,NULL,Widerstand,usulubu,d,NA,NA,NA,NA,sd,NA,4,NA,NA,NA,NA,NA,NA,NA,NA,NA,NA,NA,NA,NA,NA,NA,NA,NA,NA,NA
3c4bc,shallow,flow.Sequence,3_0_4_0_7_1,NA,NA,skipped,NA,1870390.6,NA,NA,1870381.704,1870390.7,2023-03-23T13:14:19Z,1870398.37,NULL,Widerstand,usulubu,d,NA,NA,NA,NA,sd,NA,4,NA,NA,NA,NA,NA,NA,NA,NA,NA,NA,NA,NA,NA,NA,NA,NA,NA,NA,NA
3c4bc,task,flow.Sequence,3_0_4_0_7,NA,NA,completion,13133.346,1857236.8,1857231.692,1857248.358,1870381.704,1870390.8,2023-03-23T13:14:19Z,1870398.37,NULL,Widerstand,usulubu,d,NA,NA,NA,NA,sd,NA,4,NA,NA,NA,NA,NA,NA,NA,NA,NA,NA,NA,NA,NA,NA,NA,NA,NA,NA,NA
3c4bc,block,flow.Loop,3_0_4_0,NA,NA,completion,85134.3,1785240.7,1785230.738,1785247.404,1870381.704,1870390.9,2023-03-23T13:14:19Z,1870398.37,NULL,NA,NA,NA,NA,NA,NA,NA,sd,NA,4,NA,NA,NA,NA,NA,NA,NA,NA,NA,NA,NA,NA,NA,NA,NA,NA,NA,NA,NA
3c4bc,weiter,canvas.Screen,3_0_4_1,sdf,keypress(Space),response,785.12999999989,1870391,1870381.704,1870398.37,1871183.5,1871187.2,2023-03-23T13:14:20Z,1871215.004,NULL,NA,NA,NA,NA,NA,NA,NA,sd,NA,4,NA,NA,NA,NA,NA,NA,NA,NA,NA,NA,NA,NA,NA,NA,NA,NA,NA,NA,NA
3c4bc,check continue,flow.Sequence,3_0_4,NA,NA,completion,85936.096,1785240.6,1785230.738,1785247.404,1871183.5,1871187.6,2023-03-23T13:14:20Z,1871215.004,NULL,NA,NA,NA,NA,NA,NA,NA,sd,NA,4,NA,NA,NA,NA,NA,NA,NA,NA,NA,NA,NA,NA,NA,NA,NA,NA,NA,NA,NA
3c4bc,deep,flow.Sequence,3_0_5_0_0_0,NA,NA,skipped,NA,1871213.5,NA,NA,1871183.5,1871213.6,2023-03-23T13:14:20Z,1871215.004,NULL,Gelegenheit,wakati,s,mchanganyiko,kipaumbele,kushuku,NA,sdf,NA,5,NA,NA,NA,NA,NA,NA,NA,NA,NA,NA,NA,NA,NA,NA,NA,NA,NA,NA,NA
3c4bc,Shallow Question,html.Page,3_0_5_0_0_1_0,NA,NA,form submission,1743.8959999995,1871213.6,1871198.338,1871215.004,1872958.9,1872959.4,2023-03-23T13:14:21Z,1872965.477,NULL,Gelegenheit,wakati,s,mchanganyiko,kipaumbele,kushuku,wakati,NA,NA,5,NA,NA,NA,NA,NA,NA,NA,NA,NA,NA,NA,NA,NA,NA,NA,NA,NA,NA,NA
3c4bc,"""Richtig""-Screen",canvas.Screen,3_0_5_0_0_1_1,NA,NA,timeout,4999.8,1872961.2,1872948.811,1872965.477,1877948.611,1877950.5,2023-03-23T13:14:26Z,1877965.277,NULL,Gelegenheit,wakati,s,mchanganyiko,kipaumbele,kushuku,NA,sdf,1,5,NA,NA,NA,NA,NA,NA,NA,NA,NA,NA,NA,NA,NA,NA,NA,NA,NA,NA,NA
3c4bc,"""Falsch""-Screen",canvas.Screen,3_0_5_0_0_1_2,NA,NA,skipped,NA,1877954.2,NA,NA,1877948.611,1877954.3,2023-03-23T13:14:26Z,1877965.277,NULL,Gelegenheit,wakati,s,mchanganyiko,kipaumbele,kushuku,NA,sdf,NA,5,NA,NA,NA,NA,NA,NA,NA,NA,NA,NA,NA,NA,NA,NA,NA,NA,NA,NA,NA
3c4bc,shallow,flow.Sequence,3_0_5_0_0_1,NA,NA,completion,6733.6070000001,1871213.6,1871198.338,1871215.004,1877948.611,1877954.5,2023-03-23T13:14:26Z,1877965.277,NULL,Gelegenheit,wakati,s,mchanganyiko,kipaumbele,kushuku,NA,sdf,NA,5,NA,NA,NA,NA,NA,NA,NA,NA,NA,NA,NA,NA,NA,NA,NA,NA,NA,NA,NA
3c4bc,task,flow.Sequence,3_0_5_0_0,NA,NA,completion,6733.6070000001,1871213.5,1871198.338,1871215.004,1877948.611,1877954.7,2023-03-23T13:14:26Z,1877965.277,NULL,Gelegenheit,wakati,s,mchanganyiko,kipaumbele,kushuku,NA,sdf,NA,5,NA,NA,NA,NA,NA,NA,NA,NA,NA,NA,NA,NA,NA,NA,NA,NA,NA,NA,NA
3c4bc,Deep Question,html.Page,3_0_5_0_1_0_0,NA,NA,form submission,24555.622999999,1877954.8,1877948.611,1877965.277,1902520.9,1902521.5,2023-03-23T13:14:51Z,1902532.565,NULL,Verstand,ufahamivu,d,NA,NA,NA,ubukesho,NA,NA,5,NA,NA,NA,NA,NA,NA,NA,NA,NA,NA,NA,NA,NA,NA,NA,NA,NA,NA,NA
3c4bc,"""Richtig""-Screen",canvas.Screen,3_0_5_0_1_0_1,NA,NA,skipped,NA,1902524.7,NA,NA,1902520.9,1902524.8,2023-03-23T13:14:51Z,1902532.565,NULL,Verstand,ufahamivu,d,NA,NA,NA,NA,sdf,NA,5,NA,NA,NA,NA,NA,NA,NA,NA,NA,NA,NA,NA,NA,NA,NA,NA,NA,NA,NA
3c4bc,"""Falsch""-Screen",canvas.Screen,3_0_5_0_1_0_2,NA,NA,timeout,4999.8,1902525.3,1902515.899,1902532.565,1907515.699,1907517.2,2023-03-23T13:14:56Z,1907532.365,NULL,Verstand,ufahamivu,d,NA,NA,NA,NA,sdf,0,5,NA,NA,NA,NA,NA,NA,NA,NA,NA,NA,NA,NA,NA,NA,NA,NA,NA,NA,NA
3c4bc,deep,flow.Sequence,3_0_5_0_1_0,NA,NA,completion,29550.422,1877954.8,1877948.611,1877965.277,1907515.699,1907517.8,2023-03-23T13:14:56Z,1907532.365,NULL,Verstand,ufahamivu,d,NA,NA,NA,NA,sdf,NA,5,NA,NA,NA,NA,NA,NA,NA,NA,NA,NA,NA,NA,NA,NA,NA,NA,NA,NA,NA
3c4bc,shallow,flow.Sequence,3_0_5_0_1_1,NA,NA,skipped,NA,1907517.9,NA,NA,1907515.699,1907518,2023-03-23T13:14:56Z,1907532.365,NULL,Verstand,ufahamivu,d,NA,NA,NA,NA,sdf,NA,5,NA,NA,NA,NA,NA,NA,NA,NA,NA,NA,NA,NA,NA,NA,NA,NA,NA,NA,NA
3c4bc,task,flow.Sequence,3_0_5_0_1,NA,NA,completion,29550.422,1877954.8,1877948.611,1877965.277,1907515.699,1907518.2,2023-03-23T13:14:56Z,1907532.365,NULL,Verstand,ufahamivu,d,NA,NA,NA,NA,sdf,NA,5,NA,NA,NA,NA,NA,NA,NA,NA,NA,NA,NA,NA,NA,NA,NA,NA,NA,NA,NA
3c4bc,Deep Question,html.Page,3_0_5_0_2_0_0,NA,NA,form submission,8771.5349999995,1907518.5,1907515.699,1907532.365,1916303.9,1916304.5,2023-03-23T13:15:05Z,1916315.891,NULL,Ergänzung,kijalizo,d,NA,NA,NA,g,NA,NA,5,NA,NA,NA,NA,NA,NA,NA,NA,NA,NA,NA,NA,NA,NA,NA,NA,NA,NA,NA
3c4bc,"""Richtig""-Screen",canvas.Screen,3_0_5_0_2_0_1,NA,NA,skipped,NA,1916309.2,NA,NA,1916303.9,1916309.4,2023-03-23T13:15:05Z,1916315.891,NULL,Ergänzung,kijalizo,d,NA,NA,NA,NA,sdf,NA,5,NA,NA,NA,NA,NA,NA,NA,NA,NA,NA,NA,NA,NA,NA,NA,NA,NA,NA,NA
3c4bc,"""Falsch""-Screen",canvas.Screen,3_0_5_0_2_0_2,NA,NA,timeout,4999.8,1916310.3,1916299.225,1916315.891,1921299.025,1921303.2,2023-03-23T13:15:10Z,1921315.691,NULL,Ergänzung,kijalizo,d,NA,NA,NA,NA,sdf,0,5,NA,NA,NA,NA,NA,NA,NA,NA,NA,NA,NA,NA,NA,NA,NA,NA,NA,NA,NA
3c4bc,deep,flow.Sequence,3_0_5_0_2_0,NA,NA,completion,13766.66,1907518.4,1907515.699,1907532.365,1921299.025,1921303.6,2023-03-23T13:15:10Z,1921315.691,NULL,Ergänzung,kijalizo,d,NA,NA,NA,NA,sdf,NA,5,NA,NA,NA,NA,NA,NA,NA,NA,NA,NA,NA,NA,NA,NA,NA,NA,NA,NA,NA
3c4bc,shallow,flow.Sequence,3_0_5_0_2_1,NA,NA,skipped,NA,1921303.8,NA,NA,1921299.025,1921303.9,2023-03-23T13:15:10Z,1921315.691,NULL,Ergänzung,kijalizo,d,NA,NA,NA,NA,sdf,NA,5,NA,NA,NA,NA,NA,NA,NA,NA,NA,NA,NA,NA,NA,NA,NA,NA,NA,NA,NA
3c4bc,task,flow.Sequence,3_0_5_0_2,NA,NA,completion,13766.66,1907518.4,1907515.699,1907532.365,1921299.025,1921304,2023-03-23T13:15:10Z,1921315.691,NULL,Ergänzung,kijalizo,d,NA,NA,NA,NA,sdf,NA,5,NA,NA,NA,NA,NA,NA,NA,NA,NA,NA,NA,NA,NA,NA,NA,NA,NA,NA,NA
3c4bc,Deep Question,html.Page,3_0_5_0_3_0_0,NA,NA,form submission,6453.7089999993,1921304.3,1921299.025,1921315.691,1927769.4,1927769.9,2023-03-23T13:15:16Z,1927782.647,NULL,Widerstand,usulubu,d,NA,NA,NA,usulubu,NA,NA,5,NA,NA,NA,NA,NA,NA,NA,NA,NA,NA,NA,NA,NA,NA,NA,NA,NA,NA,NA
3c4bc,"""Richtig""-Screen",canvas.Screen,3_0_5_0_3_0_1,NA,NA,timeout,4999.7999999998,1927772.6,1927765.981,1927782.647,1932765.781,1932770.7,2023-03-23T13:15:21Z,1932782.447,NULL,Widerstand,usulubu,d,NA,NA,NA,NA,sdf,1,5,NA,NA,NA,NA,NA,NA,NA,NA,NA,NA,NA,NA,NA,NA,NA,NA,NA,NA,NA
3c4bc,"""Falsch""-Screen",canvas.Screen,3_0_5_0_3_0_2,NA,NA,skipped,NA,1932775,NA,NA,1932765.781,1932775.3,2023-03-23T13:15:21Z,1932782.447,NULL,Widerstand,usulubu,d,NA,NA,NA,NA,sdf,NA,5,NA,NA,NA,NA,NA,NA,NA,NA,NA,NA,NA,NA,NA,NA,NA,NA,NA,NA,NA
3c4bc,deep,flow.Sequence,3_0_5_0_3_0,NA,NA,completion,11450.09,1921304.3,1921299.025,1921315.691,1932765.781,1932775.5,2023-03-23T13:15:21Z,1932782.447,NULL,Widerstand,usulubu,d,NA,NA,NA,NA,sdf,NA,5,NA,NA,NA,NA,NA,NA,NA,NA,NA,NA,NA,NA,NA,NA,NA,NA,NA,NA,NA
3c4bc,shallow,flow.Sequence,3_0_5_0_3_1,NA,NA,skipped,NA,1932775.6,NA,NA,1932765.781,1932775.7,2023-03-23T13:15:21Z,1932782.447,NULL,Widerstand,usulubu,d,NA,NA,NA,NA,sdf,NA,5,NA,NA,NA,NA,NA,NA,NA,NA,NA,NA,NA,NA,NA,NA,NA,NA,NA,NA,NA
3c4bc,task,flow.Sequence,3_0_5_0_3,NA,NA,completion,11450.09,1921304.2,1921299.025,1921315.691,1932765.781,1932775.8,2023-03-23T13:15:21Z,1932782.447,NULL,Widerstand,usulubu,d,NA,NA,NA,NA,sdf,NA,5,NA,NA,NA,NA,NA,NA,NA,NA,NA,NA,NA,NA,NA,NA,NA,NA,NA,NA,NA
3c4bc,deep,flow.Sequence,3_0_5_0_4_0,NA,NA,skipped,NA,1932775.9,NA,NA,1932765.781,1932776,2023-03-23T13:15:21Z,1932782.447,NULL,Notfall,dharura,s,rairai,malalamiko,ahueni,NA,sdf,NA,5,NA,NA,NA,NA,NA,NA,NA,NA,NA,NA,NA,NA,NA,NA,NA,NA,NA,NA,NA
3c4bc,Shallow Question,html.Page,3_0_5_0_4_1_0,NA,NA,form submission,3611.4529999995,1932776.1,1932765.781,1932782.447,1936393.9,1936394.4,2023-03-23T13:15:25Z,1936399.55,NULL,Notfall,dharura,s,rairai,malalamiko,ahueni,dharura,NA,NA,5,NA,NA,NA,NA,NA,NA,NA,NA,NA,NA,NA,NA,NA,NA,NA,NA,NA,NA,NA
3c4bc,"""Richtig""-Screen",canvas.Screen,3_0_5_0_4_1_1,NA,NA,timeout,4999.8,1936398,1936382.884,1936399.55,1941382.684,1941388.1,2023-03-23T13:15:30Z,1941399.35,NULL,Notfall,dharura,s,rairai,malalamiko,ahueni,NA,sdf,1,5,NA,NA,NA,NA,NA,NA,NA,NA,NA,NA,NA,NA,NA,NA,NA,NA,NA,NA,NA
3c4bc,"""Falsch""-Screen",canvas.Screen,3_0_5_0_4_1_2,NA,NA,skipped,NA,1941392.5,NA,NA,1941382.684,1941392.8,2023-03-23T13:15:30Z,1941399.35,NULL,Notfall,dharura,s,rairai,malalamiko,ahueni,NA,sdf,NA,5,NA,NA,NA,NA,NA,NA,NA,NA,NA,NA,NA,NA,NA,NA,NA,NA,NA,NA,NA
3c4bc,shallow,flow.Sequence,3_0_5_0_4_1,NA,NA,completion,8600.237,1932776,1932765.781,1932782.447,1941382.684,1941393,2023-03-23T13:15:30Z,1941399.35,NULL,Notfall,dharura,s,rairai,malalamiko,ahueni,NA,sdf,NA,5,NA,NA,NA,NA,NA,NA,NA,NA,NA,NA,NA,NA,NA,NA,NA,NA,NA,NA,NA
3c4bc,task,flow.Sequence,3_0_5_0_4,NA,NA,completion,8600.237,1932775.9,1932765.781,1932782.447,1941382.684,1941393.1,2023-03-23T13:15:30Z,1941399.35,NULL,Notfall,dharura,s,rairai,malalamiko,ahueni,NA,sdf,NA,5,NA,NA,NA,NA,NA,NA,NA,NA,NA,NA,NA,NA,NA,NA,NA,NA,NA,NA,NA
3c4bc,Deep Question,html.Page,3_0_5_0_5_0_0,NA,NA,form submission,11035.049999999,1941393.3,1941382.684,1941399.35,1952434.4,1952435,2023-03-23T13:15:41Z,1952449.452,NULL,Wohlstand,mafanikio,d,NA,NA,NA,mafakisho,NA,NA,5,NA,NA,NA,NA,NA,NA,NA,NA,NA,NA,NA,NA,NA,NA,NA,NA,NA,NA,NA
3c4bc,"""Richtig""-Screen",canvas.Screen,3_0_5_0_5_0_1,NA,NA,skipped,NA,1952438.7,NA,NA,1952434.4,1952439,2023-03-23T13:15:41Z,1952449.452,NULL,Wohlstand,mafanikio,d,NA,NA,NA,NA,sdf,NA,5,NA,NA,NA,NA,NA,NA,NA,NA,NA,NA,NA,NA,NA,NA,NA,NA,NA,NA,NA
3c4bc,"""Falsch""-Screen",canvas.Screen,3_0_5_0_5_0_2,NA,NA,timeout,4999.8,1952440.1,1952432.786,1952449.452,1957432.586,1957436.8,2023-03-23T13:15:46Z,1957449.252,NULL,Wohlstand,mafanikio,d,NA,NA,NA,NA,sdf,0,5,NA,NA,NA,NA,NA,NA,NA,NA,NA,NA,NA,NA,NA,NA,NA,NA,NA,NA,NA
3c4bc,deep,flow.Sequence,3_0_5_0_5_0,NA,NA,completion,16033.236,1941393.3,1941382.684,1941399.35,1957432.586,1957437.2,2023-03-23T13:15:46Z,1957449.252,NULL,Wohlstand,mafanikio,d,NA,NA,NA,NA,sdf,NA,5,NA,NA,NA,NA,NA,NA,NA,NA,NA,NA,NA,NA,NA,NA,NA,NA,NA,NA,NA
3c4bc,shallow,flow.Sequence,3_0_5_0_5_1,NA,NA,skipped,NA,1957437.4,NA,NA,1957432.586,1957437.5,2023-03-23T13:15:46Z,1957449.252,NULL,Wohlstand,mafanikio,d,NA,NA,NA,NA,sdf,NA,5,NA,NA,NA,NA,NA,NA,NA,NA,NA,NA,NA,NA,NA,NA,NA,NA,NA,NA,NA
3c4bc,task,flow.Sequence,3_0_5_0_5,NA,NA,completion,16033.236,1941393.2,1941382.684,1941399.35,1957432.586,1957437.7,2023-03-23T13:15:46Z,1957449.252,NULL,Wohlstand,mafanikio,d,NA,NA,NA,NA,sdf,NA,5,NA,NA,NA,NA,NA,NA,NA,NA,NA,NA,NA,NA,NA,NA,NA,NA,NA,NA,NA
3c4bc,deep,flow.Sequence,3_0_5_0_6_0,NA,NA,skipped,NA,1957437.9,NA,NA,1957432.586,1957438,2023-03-23T13:15:46Z,1957449.252,NULL,Vergnügen,kichekesho,s,dubwana,mpanuko,mtesaji,NA,sdf,NA,5,NA,NA,NA,NA,NA,NA,NA,NA,NA,NA,NA,NA,NA,NA,NA,NA,NA,NA,NA
3c4bc,Shallow Question,html.Page,3_0_5_0_6_1_0,NA,NA,form submission,2820.3479999995,1957438.2,1957432.586,1957449.252,1960269.6,1960270.2,2023-03-23T13:15:49Z,1960283.146,NULL,Vergnügen,kichekesho,s,dubwana,mpanuko,mtesaji,kichekesho,NA,NA,5,NA,NA,NA,NA,NA,NA,NA,NA,NA,NA,NA,NA,NA,NA,NA,NA,NA,NA,NA
3c4bc,"""Richtig""-Screen",canvas.Screen,3_0_5_0_6_1_1,NA,NA,timeout,4999.8,1960274.1,1960266.48,1960283.146,1965266.28,1965270,2023-03-23T13:15:54Z,1965282.946,NULL,Vergnügen,kichekesho,s,dubwana,mpanuko,mtesaji,NA,sdf,1,5,NA,NA,NA,NA,NA,NA,NA,NA,NA,NA,NA,NA,NA,NA,NA,NA,NA,NA,NA
3c4bc,"""Falsch""-Screen",canvas.Screen,3_0_5_0_6_1_2,NA,NA,skipped,NA,1965273.7,NA,NA,1965266.28,1965273.7,2023-03-23T13:15:54Z,1965282.946,NULL,Vergnügen,kichekesho,s,dubwana,mpanuko,mtesaji,NA,sdf,NA,5,NA,NA,NA,NA,NA,NA,NA,NA,NA,NA,NA,NA,NA,NA,NA,NA,NA,NA,NA
3c4bc,shallow,flow.Sequence,3_0_5_0_6_1,NA,NA,completion,7817.0279999999,1957438.2,1957432.586,1957449.252,1965266.28,1965273.9,2023-03-23T13:15:54Z,1965282.946,NULL,Vergnügen,kichekesho,s,dubwana,mpanuko,mtesaji,NA,sdf,NA,5,NA,NA,NA,NA,NA,NA,NA,NA,NA,NA,NA,NA,NA,NA,NA,NA,NA,NA,NA
3c4bc,task,flow.Sequence,3_0_5_0_6,NA,NA,completion,7817.0279999999,1957437.8,1957432.586,1957449.252,1965266.28,1965274,2023-03-23T13:15:54Z,1965282.946,NULL,Vergnügen,kichekesho,s,dubwana,mpanuko,mtesaji,NA,sdf,NA,5,NA,NA,NA,NA,NA,NA,NA,NA,NA,NA,NA,NA,NA,NA,NA,NA,NA,NA,NA
3c4bc,deep,flow.Sequence,3_0_5_0_7_0,NA,NA,skipped,NA,1965274.1,NA,NA,1965266.28,1965274.2,2023-03-23T13:15:54Z,1965282.946,NULL,Ausschluss,kutengwa,s,ununuzi,taratibu,madeni,NA,sdf,NA,5,NA,NA,NA,NA,NA,NA,NA,NA,NA,NA,NA,NA,NA,NA,NA,NA,NA,NA,NA
3c4bc,Shallow Question,html.Page,3_0_5_0_7_1_0,NA,NA,form submission,4614.7540000002,1965274.2,1965266.28,1965282.946,1969897.7,1969898.3,2023-03-23T13:15:58Z,1969899.964,NULL,Ausschluss,kutengwa,s,ununuzi,taratibu,madeni,kutengwa,NA,NA,5,NA,NA,NA,NA,NA,NA,NA,NA,NA,NA,NA,NA,NA,NA,NA,NA,NA,NA,NA
3c4bc,"""Richtig""-Screen",canvas.Screen,3_0_5_0_7_1_1,NA,NA,timeout,4999.8,1969901,1969883.298,1969899.964,1974883.098,1974888.1,2023-03-23T13:16:03Z,1974899.764,NULL,Ausschluss,kutengwa,s,ununuzi,taratibu,madeni,NA,sdf,1,5,NA,NA,NA,NA,NA,NA,NA,NA,NA,NA,NA,NA,NA,NA,NA,NA,NA,NA,NA
3c4bc,"""Falsch""-Screen",canvas.Screen,3_0_5_0_7_1_2,NA,NA,skipped,NA,1974893.2,NA,NA,1974883.098,1974893.3,2023-03-23T13:16:03Z,1974899.764,NULL,Ausschluss,kutengwa,s,ununuzi,taratibu,madeni,NA,sdf,NA,5,NA,NA,NA,NA,NA,NA,NA,NA,NA,NA,NA,NA,NA,NA,NA,NA,NA,NA,NA
3c4bc,shallow,flow.Sequence,3_0_5_0_7_1,NA,NA,completion,9600.152,1965274.2,1965266.28,1965282.946,1974883.098,1974893.6,2023-03-23T13:16:03Z,1974899.764,NULL,Ausschluss,kutengwa,s,ununuzi,taratibu,madeni,NA,sdf,NA,5,NA,NA,NA,NA,NA,NA,NA,NA,NA,NA,NA,NA,NA,NA,NA,NA,NA,NA,NA
3c4bc,task,flow.Sequence,3_0_5_0_7,NA,NA,completion,9600.152,1965274.1,1965266.28,1965282.946,1974883.098,1974893.7,2023-03-23T13:16:03Z,1974899.764,NULL,Ausschluss,kutengwa,s,ununuzi,taratibu,madeni,NA,sdf,NA,5,NA,NA,NA,NA,NA,NA,NA,NA,NA,NA,NA,NA,NA,NA,NA,NA,NA,NA,NA
3c4bc,block,flow.Loop,3_0_5_0,NA,NA,completion,103668.094,1871213.4,1871198.338,1871215.004,1974883.098,1974893.8,2023-03-23T13:16:03Z,1974899.764,NULL,NA,NA,NA,NA,NA,NA,NA,sdf,NA,5,NA,NA,NA,NA,NA,NA,NA,NA,NA,NA,NA,NA,NA,NA,NA,NA,NA,NA,NA
3c4bc,weiter,canvas.Screen,3_0_5_1,sdf,keypress(Space),response,840.53599999985,1974893.8,1974883.098,1974899.764,1975740.3,1975743.8,2023-03-23T13:16:04Z,1975783.062,NULL,NA,NA,NA,NA,NA,NA,NA,sdf,NA,5,NA,NA,NA,NA,NA,NA,NA,NA,NA,NA,NA,NA,NA,NA,NA,NA,NA,NA,NA
3c4bc,check continue,flow.Sequence,3_0_5,NA,NA,completion,104525.296,1871213.4,1871198.338,1871215.004,1975740.3,1975744.1,2023-03-23T13:16:04Z,1975783.062,NULL,NA,NA,NA,NA,NA,NA,NA,sdf,NA,5,NA,NA,NA,NA,NA,NA,NA,NA,NA,NA,NA,NA,NA,NA,NA,NA,NA,NA,NA
3c4bc,Deep Question,html.Page,3_0_6_0_0_0_0,NA,NA,form submission,13430.638,1975770.7,1975766.396,1975783.062,1989213.7,1989214.4,2023-03-23T13:16:18Z,1989216.392,NULL,Ergänzung,kijalizo,d,NA,NA,NA,j,NA,NA,6,NA,NA,NA,NA,NA,NA,NA,NA,NA,NA,NA,NA,NA,NA,NA,NA,NA,NA,NA
3c4bc,"""Richtig""-Screen",canvas.Screen,3_0_6_0_0_0_1,NA,NA,skipped,NA,1989219.2,NA,NA,1989213.7,1989219.3,2023-03-23T13:16:18Z,1989216.392,NULL,Ergänzung,kijalizo,d,NA,NA,NA,NA,dfs,NA,6,NA,NA,NA,NA,NA,NA,NA,NA,NA,NA,NA,NA,NA,NA,NA,NA,NA,NA,NA
3c4bc,"""Falsch""-Screen",canvas.Screen,3_0_6_0_0_0_2,NA,NA,timeout,4999.8,1989220.3,1989199.726,1989216.392,1994199.526,1994204.1,2023-03-23T13:16:23Z,1994216.192,NULL,Ergänzung,kijalizo,d,NA,NA,NA,NA,dfs,0,6,NA,NA,NA,NA,NA,NA,NA,NA,NA,NA,NA,NA,NA,NA,NA,NA,NA,NA,NA
3c4bc,deep,flow.Sequence,3_0_6_0_0_0,NA,NA,completion,18416.464,1975770.7,1975766.396,1975783.062,1994199.526,1994204.5,2023-03-23T13:16:23Z,1994216.192,NULL,Ergänzung,kijalizo,d,NA,NA,NA,NA,dfs,NA,6,NA,NA,NA,NA,NA,NA,NA,NA,NA,NA,NA,NA,NA,NA,NA,NA,NA,NA,NA
3c4bc,shallow,flow.Sequence,3_0_6_0_0_1,NA,NA,skipped,NA,1994204.7,NA,NA,1994199.526,1994204.8,2023-03-23T13:16:23Z,1994216.192,NULL,Ergänzung,kijalizo,d,NA,NA,NA,NA,dfs,NA,6,NA,NA,NA,NA,NA,NA,NA,NA,NA,NA,NA,NA,NA,NA,NA,NA,NA,NA,NA
3c4bc,task,flow.Sequence,3_0_6_0_0,NA,NA,completion,18416.464,1975770.6,1975766.396,1975783.062,1994199.526,1994205,2023-03-23T13:16:23Z,1994216.192,NULL,Ergänzung,kijalizo,d,NA,NA,NA,NA,dfs,NA,6,NA,NA,NA,NA,NA,NA,NA,NA,NA,NA,NA,NA,NA,NA,NA,NA,NA,NA,NA
3c4bc,Deep Question,html.Page,3_0_6_0_1_0_0,NA,NA,form submission,4841.7079999994,1994205.2,1994199.526,1994216.192,1999057.9,1999058.4,2023-03-23T13:16:27Z,1999067.07,NULL,Widerstand,usulubu,d,NA,NA,NA,usulubu,NA,NA,6,NA,NA,NA,NA,NA,NA,NA,NA,NA,NA,NA,NA,NA,NA,NA,NA,NA,NA,NA
3c4bc,"""Richtig""-Screen",canvas.Screen,3_0_6_0_1_0_1,NA,NA,timeout,4999.8,1999061.3,1999050.404,1999067.07,2004050.204,2004054.6,2023-03-23T13:16:32Z,2004066.87,NULL,Widerstand,usulubu,d,NA,NA,NA,NA,dfs,1,6,NA,NA,NA,NA,NA,NA,NA,NA,NA,NA,NA,NA,NA,NA,NA,NA,NA,NA,NA
3c4bc,"""Falsch""-Screen",canvas.Screen,3_0_6_0_1_0_2,NA,NA,skipped,NA,2004057.9,NA,NA,2004050.204,2004058,2023-03-23T13:16:32Z,2004066.87,NULL,Widerstand,usulubu,d,NA,NA,NA,NA,dfs,NA,6,NA,NA,NA,NA,NA,NA,NA,NA,NA,NA,NA,NA,NA,NA,NA,NA,NA,NA,NA
3c4bc,deep,flow.Sequence,3_0_6_0_1_0,NA,NA,completion,9834.0119999999,1994205.1,1994199.526,1994216.192,2004050.204,2004058.2,2023-03-23T13:16:32Z,2004066.87,NULL,Widerstand,usulubu,d,NA,NA,NA,NA,dfs,NA,6,NA,NA,NA,NA,NA,NA,NA,NA,NA,NA,NA,NA,NA,NA,NA,NA,NA,NA,NA
3c4bc,shallow,flow.Sequence,3_0_6_0_1_1,NA,NA,skipped,NA,2004058.2,NA,NA,2004050.204,2004058.3,2023-03-23T13:16:32Z,2004066.87,NULL,Widerstand,usulubu,d,NA,NA,NA,NA,dfs,NA,6,NA,NA,NA,NA,NA,NA,NA,NA,NA,NA,NA,NA,NA,NA,NA,NA,NA,NA,NA
3c4bc,task,flow.Sequence,3_0_6_0_1,NA,NA,completion,9834.0119999999,1994205.1,1994199.526,1994216.192,2004050.204,2004058.4,2023-03-23T13:16:32Z,2004066.87,NULL,Widerstand,usulubu,d,NA,NA,NA,NA,dfs,NA,6,NA,NA,NA,NA,NA,NA,NA,NA,NA,NA,NA,NA,NA,NA,NA,NA,NA,NA,NA
3c4bc,deep,flow.Sequence,3_0_6_0_2_0,NA,NA,skipped,NA,2004058.5,NA,NA,2004050.204,2004058.6,2023-03-23T13:16:32Z,2004066.87,NULL,Ausschluss,kutengwa,s,ununuzi,taratibu,madeni,NA,dfs,NA,6,NA,NA,NA,NA,NA,NA,NA,NA,NA,NA,NA,NA,NA,NA,NA,NA,NA,NA,NA
3c4bc,Shallow Question,html.Page,3_0_6_0_2_1_0,NA,NA,form submission,2367.9299999997,2004058.6,2004050.204,2004066.87,2006434.8,2006435.2,2023-03-23T13:16:35Z,2006450.108,NULL,Ausschluss,kutengwa,s,ununuzi,taratibu,madeni,kutengwa,NA,NA,6,NA,NA,NA,NA,NA,NA,NA,NA,NA,NA,NA,NA,NA,NA,NA,NA,NA,NA,NA
3c4bc,"""Richtig""-Screen",canvas.Screen,3_0_6_0_2_1_1,NA,NA,timeout,4999.8,2006436.2,2006433.442,2006450.108,2011433.242,2011435.8,2023-03-23T13:16:40Z,2011449.908,NULL,Ausschluss,kutengwa,s,ununuzi,taratibu,madeni,NA,dfs,1,6,NA,NA,NA,NA,NA,NA,NA,NA,NA,NA,NA,NA,NA,NA,NA,NA,NA,NA,NA
3c4bc,"""Falsch""-Screen",canvas.Screen,3_0_6_0_2_1_2,NA,NA,skipped,NA,2011439.2,NA,NA,2011433.242,2011439.3,2023-03-23T13:16:40Z,2011449.908,NULL,Ausschluss,kutengwa,s,ununuzi,taratibu,madeni,NA,dfs,NA,6,NA,NA,NA,NA,NA,NA,NA,NA,NA,NA,NA,NA,NA,NA,NA,NA,NA,NA,NA
3c4bc,shallow,flow.Sequence,3_0_6_0_2_1,NA,NA,completion,7366.372,2004058.6,2004050.204,2004066.87,2011433.242,2011439.5,2023-03-23T13:16:40Z,2011449.908,NULL,Ausschluss,kutengwa,s,ununuzi,taratibu,madeni,NA,dfs,NA,6,NA,NA,NA,NA,NA,NA,NA,NA,NA,NA,NA,NA,NA,NA,NA,NA,NA,NA,NA
3c4bc,task,flow.Sequence,3_0_6_0_2,NA,NA,completion,7366.372,2004058.5,2004050.204,2004066.87,2011433.242,2011439.6,2023-03-23T13:16:40Z,2011449.908,NULL,Ausschluss,kutengwa,s,ununuzi,taratibu,madeni,NA,dfs,NA,6,NA,NA,NA,NA,NA,NA,NA,NA,NA,NA,NA,NA,NA,NA,NA,NA,NA,NA,NA
3c4bc,deep,flow.Sequence,3_0_6_0_3_0,NA,NA,skipped,NA,2011439.7,NA,NA,2011433.242,2011439.7,2023-03-23T13:16:40Z,2011449.908,NULL,Gelegenheit,wakati,s,mchanganyiko,kipaumbele,kushuku,NA,dfs,NA,6,NA,NA,NA,NA,NA,NA,NA,NA,NA,NA,NA,NA,NA,NA,NA,NA,NA,NA,NA
3c4bc,Shallow Question,html.Page,3_0_6_0_3_1_0,NA,NA,form submission,3218.0919999999,2011439.8,2011433.242,2011449.908,2014668,2014668.5,2023-03-23T13:16:43Z,2014667.139,NULL,Gelegenheit,wakati,s,mchanganyiko,kipaumbele,kushuku,wakati,NA,NA,6,NA,NA,NA,NA,NA,NA,NA,NA,NA,NA,NA,NA,NA,NA,NA,NA,NA,NA,NA
3c4bc,"""Richtig""-Screen",canvas.Screen,3_0_6_0_3_1_1,NA,NA,timeout,4999.8,2014669.9,2014650.473,2014667.139,2019650.273,2019654.1,2023-03-23T13:16:48Z,2019666.939,NULL,Gelegenheit,wakati,s,mchanganyiko,kipaumbele,kushuku,NA,dfs,1,6,NA,NA,NA,NA,NA,NA,NA,NA,NA,NA,NA,NA,NA,NA,NA,NA,NA,NA,NA
3c4bc,"""Falsch""-Screen",canvas.Screen,3_0_6_0_3_1_2,NA,NA,skipped,NA,2019657.7,NA,NA,2019650.273,2019657.9,2023-03-23T13:16:48Z,2019666.939,NULL,Gelegenheit,wakati,s,mchanganyiko,kipaumbele,kushuku,NA,dfs,NA,6,NA,NA,NA,NA,NA,NA,NA,NA,NA,NA,NA,NA,NA,NA,NA,NA,NA,NA,NA
3c4bc,shallow,flow.Sequence,3_0_6_0_3_1,NA,NA,completion,8200.365,2011439.8,2011433.242,2011449.908,2019650.273,2019658,2023-03-23T13:16:48Z,2019666.939,NULL,Gelegenheit,wakati,s,mchanganyiko,kipaumbele,kushuku,NA,dfs,NA,6,NA,NA,NA,NA,NA,NA,NA,NA,NA,NA,NA,NA,NA,NA,NA,NA,NA,NA,NA
