observation,sender,sender_type,sender_id,response,response_action,ended_on,duration,time_run,time_render,time_show,time_end,time_commit,timestamp,time_switch,distractors,german,swahili,enc,distractor1,distractor2,distractor3,response_2,x,correct,x_2,url_vp,url_sess,meta_labjs_version,meta_location,meta_user_agent,meta_platform,meta_language,meta_locale,meta_time_zone,meta_timezone_offset,meta_screen_width,meta_screen_height,meta_scroll_width,meta_scroll_height,meta_window_inner_width,meta_window_inner_height,meta_device_pixel_ratio,meta_labjs_build_flavor,meta_labjs_build_commit
e32f1,Introduction general,canvas.Screen,0,weiter,keypress(q),response,1937162.875,536.69999992847,147.884,564.525,1937727.4,1937734.0999999,2023-05-12T12:09:26Z,1937737.371,NULL,NA,NA,NA,NA,NA,NA,NA,NA,NA,NA,126,1,20.2.4,https://neurocog.fernuni.ch/studies/vweber/encoding_immediate/index.html?vp=126&sess=1,"Mozilla/5.0 (Windows NT 10.0; Win64; x64) AppleWebKit/537.36 (KHTML, like Gecko) Chrome/112.0.0.0 Safari/537.36",Win32,de-DE,de,Europe/Zurich,-120,1440,960,1440,761,1440,809,2,production,f5b4a49f956347addd546a832a3327688c2c0fef
e32f1,Introduction practice,canvas.Screen,1_0,NA,keypress(Space),response,19149.028999976,1937734.5,1937725.787,1937737.371,1956886.4,1956888.5999999,2023-05-12T12:09:45Z,1956903.859,NULL,NA,NA,NA,NA,NA,NA,NA,NA,NA,NA,NA,NA,NA,NA,NA,NA,NA,NA,NA,NA,NA,NA,NA,NA,NA,NA,NA,NA,NA
e32f1,deep,flow.Sequence,1_1_0_0,NA,NA,skipped,NA,1956889.9,NA,NA,1956886.4,1956893.5,2023-05-12T12:09:45Z,1956903.859,"c(""distractor1"", ""distractor2"", ""distractor3"")",Kritik,lawama,s,dereva,nafasi,mawazo,NA,NA,NA,NA,NA,NA,NA,NA,NA,NA,NA,NA,NA,NA,NA,NA,NA,NA,NA,NA,NA,NA,NA
e32f1,Shallow Question,html.Page,1_1_0_1_0,NA,NA,form submission,5230.7409999047,1956893.6999999,1956879.486,1956903.859,1962134.5999999,1962134.8,2023-05-12T12:09:50Z,1962168.626,"c(""distractor1"", ""distractor2"", ""distractor3"")",Kritik,lawama,s,dereva,nafasi,mawazo,nafasi,NA,NA,NA,NA,NA,NA,NA,NA,NA,NA,NA,NA,NA,NA,NA,NA,NA,NA,NA,NA,NA,NA
e32f1,"""Richtig""-Screen",canvas.Screen,1_1_0_1_1,NA,NA,skipped,NA,1962136.3,NA,NA,1962134.5999999,1962136.4,2023-05-12T12:09:50Z,1962168.626,"c(""distractor1"", ""distractor2"", ""distractor3"")",Kritik,lawama,s,dereva,nafasi,mawazo,NA,NA,NA,NA,NA,NA,NA,NA,NA,NA,NA,NA,NA,NA,NA,NA,NA,NA,NA,NA,NA,NA,NA
e32f1,"""Falsch""-Screen",canvas.Screen,1_1_0_1_2,NA,NA,timeout,4995.794,1962138.1999999,1962117.777,1962168.626,1967147.784,1967152.5999999,2023-05-12T12:09:55Z,1967164.42,"c(""distractor1"", ""distractor2"", ""distractor3"")",Kritik,lawama,s,dereva,nafasi,mawazo,NA,NA,0,NA,NA,NA,NA,NA,NA,NA,NA,NA,NA,NA,NA,NA,NA,NA,NA,NA,NA,NA,NA
e32f1,shallow,flow.Sequence,1_1_0_1,NA,NA,completion,10243.925,1956893.6999999,1956879.486,1956903.859,1967147.784,1967153,2023-05-12T12:09:55Z,1967164.42,"c(""distractor1"", ""distractor2"", ""distractor3"")",Kritik,lawama,s,dereva,nafasi,mawazo,NA,NA,NA,NA,NA,NA,NA,NA,NA,NA,NA,NA,NA,NA,NA,NA,NA,NA,NA,NA,NA,NA,NA
e32f1,task,flow.Sequence,1_1_0,NA,NA,completion,10243.925,1956889.9,1956879.486,1956903.859,1967147.784,1967153.1999999,2023-05-12T12:09:55Z,1967164.42,"c(""distractor1"", ""distractor2"", ""distractor3"")",Kritik,lawama,s,dereva,nafasi,mawazo,NA,NA,NA,NA,NA,NA,NA,NA,NA,NA,NA,NA,NA,NA,NA,NA,NA,NA,NA,NA,NA,NA,NA
e32f1,Deep Question,html.Page,1_1_1_0_0,NA,NA,form submission,2578.7799999285,1967153.5999999,1967147.784,1967164.42,1969743.1999999,1969743.5,2023-05-12T12:09:58Z,1969751.756,"c(""distractor1"", ""distractor2"", ""distractor3"")",Gesundheit,salama,d,NA,NA,NA,jui,NA,NA,NA,NA,NA,NA,NA,NA,NA,NA,NA,NA,NA,NA,NA,NA,NA,NA,NA,NA,NA,NA
e32f1,"""Richtig""-Screen",canvas.Screen,1_1_1_0_1,NA,NA,skipped,NA,1969744.1999999,NA,NA,1969743.1999999,1969744.4,2023-05-12T12:09:58Z,1969751.756,"c(""distractor1"", ""distractor2"", ""distractor3"")",Gesundheit,salama,d,NA,NA,NA,NA,NA,NA,NA,NA,NA,NA,NA,NA,NA,NA,NA,NA,NA,NA,NA,NA,NA,NA,NA,NA,NA,NA
e32f1,"""Falsch""-Screen",canvas.Screen,1_1_1_0_2,NA,NA,timeout,4993.4639999999,1969744.9,1969742.845,1969751.756,1974727.359,1974728.5999999,2023-05-12T12:10:03Z,1974745.22,"c(""distractor1"", ""distractor2"", ""distractor3"")",Gesundheit,salama,d,NA,NA,NA,NA,NA,0,NA,NA,NA,NA,NA,NA,NA,NA,NA,NA,NA,NA,NA,NA,NA,NA,NA,NA,NA,NA
e32f1,deep,flow.Sequence,1_1_1_0,NA,NA,completion,7562.939,1967153.5,1967147.784,1967164.42,1974727.359,1974729.0999999,2023-05-12T12:10:03Z,1974745.22,"c(""distractor1"", ""distractor2"", ""distractor3"")",Gesundheit,salama,d,NA,NA,NA,NA,NA,NA,NA,NA,NA,NA,NA,NA,NA,NA,NA,NA,NA,NA,NA,NA,NA,NA,NA,NA,NA,NA
e32f1,shallow,flow.Sequence,1_1_1_1,NA,NA,skipped,NA,1974729.5999999,NA,NA,1974727.359,1974729.8,2023-05-12T12:10:03Z,1974745.22,"c(""distractor1"", ""distractor2"", ""distractor3"")",Gesundheit,salama,d,NA,NA,NA,NA,NA,NA,NA,NA,NA,NA,NA,NA,NA,NA,NA,NA,NA,NA,NA,NA,NA,NA,NA,NA,NA,NA
e32f1,task,flow.Sequence,1_1_1,NA,NA,completion,7562.939,1967153.3,1967147.784,1967164.42,1974727.359,1974730.0999999,2023-05-12T12:10:03Z,1974745.22,"c(""distractor1"", ""distractor2"", ""distractor3"")",Gesundheit,salama,d,NA,NA,NA,NA,NA,NA,NA,NA,NA,NA,NA,NA,NA,NA,NA,NA,NA,NA,NA,NA,NA,NA,NA,NA,NA,NA
e32f1,deep,flow.Sequence,1_1_2_0,NA,NA,skipped,NA,1974730.3,NA,NA,1974727.359,1974730.5,2023-05-12T12:10:03Z,1974745.22,"c(""distractor1"", ""distractor2"", ""distractor3"")",Gegenwart,hadhara,s,katiba,jokofu,mikopo,NA,NA,NA,NA,NA,NA,NA,NA,NA,NA,NA,NA,NA,NA,NA,NA,NA,NA,NA,NA,NA,NA,NA
e32f1,Shallow Question,html.Page,1_1_2_1_0,NA,NA,form submission,3490.0799999523,1974730.6999999,1974727.359,1974745.22,1978235.3,1978235.8,2023-05-12T12:10:06Z,1978250.804,"c(""distractor1"", ""distractor2"", ""distractor3"")",Gegenwart,hadhara,s,katiba,jokofu,mikopo,hadhara,NA,NA,NA,NA,NA,NA,NA,NA,NA,NA,NA,NA,NA,NA,NA,NA,NA,NA,NA,NA,NA,NA
e32f1,"""Richtig""-Screen",canvas.Screen,1_1_2_1_1,NA,NA,timeout,4992.76,1978241,1978217.644,1978250.804,1983226.772,1983228,2023-05-12T12:10:11Z,1983243.564,"c(""distractor1"", ""distractor2"", ""distractor3"")",Gegenwart,hadhara,s,katiba,jokofu,mikopo,NA,NA,1,NA,NA,NA,NA,NA,NA,NA,NA,NA,NA,NA,NA,NA,NA,NA,NA,NA,NA,NA,NA
e32f1,"""Falsch""-Screen",canvas.Screen,1_1_2_1_2,NA,NA,skipped,NA,1983234.0999999,NA,NA,1983226.772,1983234.5,2023-05-12T12:10:11Z,1983243.564,"c(""distractor1"", ""distractor2"", ""distractor3"")",Gegenwart,hadhara,s,katiba,jokofu,mikopo,NA,NA,NA,NA,NA,NA,NA,NA,NA,NA,NA,NA,NA,NA,NA,NA,NA,NA,NA,NA,NA,NA,NA
e32f1,shallow,flow.Sequence,1_1_2_1,NA,NA,completion,8481.5520000001,1974730.5999999,1974727.359,1974745.22,1983226.772,1983234.9,2023-05-12T12:10:11Z,1983243.564,"c(""distractor1"", ""distractor2"", ""distractor3"")",Gegenwart,hadhara,s,katiba,jokofu,mikopo,NA,NA,NA,NA,NA,NA,NA,NA,NA,NA,NA,NA,NA,NA,NA,NA,NA,NA,NA,NA,NA,NA,NA
e32f1,task,flow.Sequence,1_1_2,NA,NA,completion,8481.5520000001,1974730.1999999,1974727.359,1974745.22,1983226.772,1983235,2023-05-12T12:10:11Z,1983243.564,"c(""distractor1"", ""distractor2"", ""distractor3"")",Gegenwart,hadhara,s,katiba,jokofu,mikopo,NA,NA,NA,NA,NA,NA,NA,NA,NA,NA,NA,NA,NA,NA,NA,NA,NA,NA,NA,NA,NA,NA,NA
e32f1,Deep Question,html.Page,1_1_3_0_0,NA,NA,form submission,2516.936,1983235.3,1983226.772,1983243.564,1985760.5,1985760.6999999,2023-05-12T12:10:14Z,1985785.596,"c(""distractor1"", ""distractor2"", ""distractor3"")",Schatten,kivuli,d,NA,NA,NA,k.giöz,NA,NA,NA,NA,NA,NA,NA,NA,NA,NA,NA,NA,NA,NA,NA,NA,NA,NA,NA,NA,NA,NA
e32f1,"""Richtig""-Screen",canvas.Screen,1_1_3_0_1,NA,NA,skipped,NA,1985761.3,NA,NA,1985760.5,1985761.4,2023-05-12T12:10:14Z,1985785.596,"c(""distractor1"", ""distractor2"", ""distractor3"")",Schatten,kivuli,d,NA,NA,NA,NA,NA,NA,NA,NA,NA,NA,NA,NA,NA,NA,NA,NA,NA,NA,NA,NA,NA,NA,NA,NA,NA,NA
e32f1,"""Falsch""-Screen",canvas.Screen,1_1_3_0_2,NA,NA,timeout,5008.547,1985762,1985769.097,1985785.596,1990777.089,1990779.3,2023-05-12T12:10:19Z,1990794.143,"c(""distractor1"", ""distractor2"", ""distractor3"")",Schatten,kivuli,d,NA,NA,NA,NA,NA,0,NA,NA,NA,NA,NA,NA,NA,NA,NA,NA,NA,NA,NA,NA,NA,NA,NA,NA,NA,NA
e32f1,deep,flow.Sequence,1_1_3_0,NA,NA,completion,7533.5249999999,1983235.3,1983226.772,1983243.564,1990777.089,1990779.9,2023-05-12T12:10:19Z,1990794.143,"c(""distractor1"", ""distractor2"", ""distractor3"")",Schatten,kivuli,d,NA,NA,NA,NA,NA,NA,NA,NA,NA,NA,NA,NA,NA,NA,NA,NA,NA,NA,NA,NA,NA,NA,NA,NA,NA,NA
e32f1,shallow,flow.Sequence,1_1_3_1,NA,NA,skipped,NA,1990780,NA,NA,1990777.089,1990780.0999999,2023-05-12T12:10:19Z,1990794.143,"c(""distractor1"", ""distractor2"", ""distractor3"")",Schatten,kivuli,d,NA,NA,NA,NA,NA,NA,NA,NA,NA,NA,NA,NA,NA,NA,NA,NA,NA,NA,NA,NA,NA,NA,NA,NA,NA,NA
e32f1,task,flow.Sequence,1_1_3,NA,NA,completion,7533.5249999999,1983235.1999999,1983226.772,1983243.564,1990777.089,1990780.3,2023-05-12T12:10:19Z,1990794.143,"c(""distractor1"", ""distractor2"", ""distractor3"")",Schatten,kivuli,d,NA,NA,NA,NA,NA,NA,NA,NA,NA,NA,NA,NA,NA,NA,NA,NA,NA,NA,NA,NA,NA,NA,NA,NA,NA,NA
e32f1,deep,flow.Sequence,1_1_4_0,NA,NA,skipped,NA,1990780.4,NA,NA,1990777.089,1990780.5999999,2023-05-12T12:10:19Z,1990794.143,"c(""distractor1"", ""distractor2"", ""distractor3"")",Rückhalt,msaada,s,muhula,auwali,kiwimbe,NA,NA,NA,NA,NA,NA,NA,NA,NA,NA,NA,NA,NA,NA,NA,NA,NA,NA,NA,NA,NA,NA,NA
e32f1,Shallow Question,html.Page,1_1_4_1_0,NA,NA,form submission,5371.5569999286,1990780.6999999,1990777.089,1990794.143,1996165.6999999,1996166,2023-05-12T12:10:24Z,1996174.276,"c(""distractor1"", ""distractor2"", ""distractor3"")",Rückhalt,msaada,s,muhula,auwali,kiwimbe,msaada,NA,NA,NA,NA,NA,NA,NA,NA,NA,NA,NA,NA,NA,NA,NA,NA,NA,NA,NA,NA,NA,NA
e32f1,"""Richtig""-Screen",canvas.Screen,1_1_4_1_1,NA,NA,timeout,4999.909,1996167.6999999,1996153.45,1996174.276,2001157.578,2001158.6999999,2023-05-12T12:10:29Z,2001174.185,"c(""distractor1"", ""distractor2"", ""distractor3"")",Rückhalt,msaada,s,muhula,auwali,kiwimbe,NA,NA,1,NA,NA,NA,NA,NA,NA,NA,NA,NA,NA,NA,NA,NA,NA,NA,NA,NA,NA,NA,NA
e32f1,"""Falsch""-Screen",canvas.Screen,1_1_4_1_2,NA,NA,skipped,NA,2001163.5,NA,NA,2001157.578,2001163.9,2023-05-12T12:10:29Z,2001174.185,"c(""distractor1"", ""distractor2"", ""distractor3"")",Rückhalt,msaada,s,muhula,auwali,kiwimbe,NA,NA,NA,NA,NA,NA,NA,NA,NA,NA,NA,NA,NA,NA,NA,NA,NA,NA,NA,NA,NA,NA,NA
e32f1,shallow,flow.Sequence,1_1_4_1,NA,NA,completion,10363.435,1990780.6999999,1990777.089,1990794.143,2001157.578,2001164.0999999,2023-05-12T12:10:29Z,2001174.185,"c(""distractor1"", ""distractor2"", ""distractor3"")",Rückhalt,msaada,s,muhula,auwali,kiwimbe,NA,NA,NA,NA,NA,NA,NA,NA,NA,NA,NA,NA,NA,NA,NA,NA,NA,NA,NA,NA,NA,NA,NA
e32f1,task,flow.Sequence,1_1_4,NA,NA,completion,10363.435,1990780.4,1990777.089,1990794.143,2001157.578,2001164.3,2023-05-12T12:10:29Z,2001174.185,"c(""distractor1"", ""distractor2"", ""distractor3"")",Rückhalt,msaada,s,muhula,auwali,kiwimbe,NA,NA,NA,NA,NA,NA,NA,NA,NA,NA,NA,NA,NA,NA,NA,NA,NA,NA,NA,NA,NA,NA,NA
e32f1,Deep Question,html.Page,1_1_5_0_0,NA,NA,form submission,2241.3149999999,2001164.4,2001157.578,2001174.185,2003415.5,2003415.6999999,2023-05-12T12:10:31Z,2003419.001,"c(""distractor1"", ""distractor2"", ""distractor3"")",Qualität,mtindo,d,NA,NA,NA,uzflz,NA,NA,NA,NA,NA,NA,NA,NA,NA,NA,NA,NA,NA,NA,NA,NA,NA,NA,NA,NA,NA,NA
e32f1,"""Richtig""-Screen",canvas.Screen,1_1_5_0_1,NA,NA,skipped,NA,2003416.4,NA,NA,2003415.5,2003416.5,2023-05-12T12:10:31Z,2003419.001,"c(""distractor1"", ""distractor2"", ""distractor3"")",Qualität,mtindo,d,NA,NA,NA,NA,NA,NA,NA,NA,NA,NA,NA,NA,NA,NA,NA,NA,NA,NA,NA,NA,NA,NA,NA,NA,NA,NA
e32f1,"""Falsch""-Screen",canvas.Screen,1_1_5_0_2,NA,NA,timeout,4992.983,2003416.8,2003410.236,2003419.001,2008395.696,2008396.9,2023-05-12T12:10:36Z,2008411.984,"c(""distractor1"", ""distractor2"", ""distractor3"")",Qualität,mtindo,d,NA,NA,NA,NA,NA,0,NA,NA,NA,NA,NA,NA,NA,NA,NA,NA,NA,NA,NA,NA,NA,NA,NA,NA,NA,NA
e32f1,deep,flow.Sequence,1_1_5_0,NA,NA,completion,7221.5109999999,2001164.4,2001157.578,2001174.185,2008395.696,2008397.3,2023-05-12T12:10:36Z,2008411.984,"c(""distractor1"", ""distractor2"", ""distractor3"")",Qualität,mtindo,d,NA,NA,NA,NA,NA,NA,NA,NA,NA,NA,NA,NA,NA,NA,NA,NA,NA,NA,NA,NA,NA,NA,NA,NA,NA,NA
e32f1,shallow,flow.Sequence,1_1_5_1,NA,NA,skipped,NA,2008397.3,NA,NA,2008395.696,2008397.5,2023-05-12T12:10:36Z,2008411.984,"c(""distractor1"", ""distractor2"", ""distractor3"")",Qualität,mtindo,d,NA,NA,NA,NA,NA,NA,NA,NA,NA,NA,NA,NA,NA,NA,NA,NA,NA,NA,NA,NA,NA,NA,NA,NA,NA,NA
e32f1,task,flow.Sequence,1_1_5,NA,NA,completion,7221.5109999999,2001164.3,2001157.578,2001174.185,2008395.696,2008397.6999999,2023-05-12T12:10:36Z,2008411.984,"c(""distractor1"", ""distractor2"", ""distractor3"")",Qualität,mtindo,d,NA,NA,NA,NA,NA,NA,NA,NA,NA,NA,NA,NA,NA,NA,NA,NA,NA,NA,NA,NA,NA,NA,NA,NA,NA,NA
e32f1,block,flow.Loop,1_1,NA,NA,completion,51491.837,1956889.6999999,1956879.486,1956903.859,2008395.696,2008398.5999999,2023-05-12T12:10:36Z,2008411.984,"c(""distractor1"", ""distractor2"", ""distractor3"")",NA,NA,NA,NA,NA,NA,NA,NA,NA,NA,NA,NA,NA,NA,NA,NA,NA,NA,NA,NA,NA,NA,NA,NA,NA,NA,NA,NA,NA
e32f1,Practice,flow.Sequence,1,NA,NA,completion,70658.325,1937734.5,1937725.787,1937737.371,2008395.696,2008398.9,2023-05-12T12:10:36Z,2008411.984,NULL,NA,NA,NA,NA,NA,NA,NA,NA,NA,NA,NA,NA,NA,NA,NA,NA,NA,NA,NA,NA,NA,NA,NA,NA,NA,NA,NA,NA,NA
e32f1,Experiment start,canvas.Screen,2,weiter,keypress(q),response,27267.415999976,2008399.0999999,2008395.696,2008411.984,2035679.4,2035685.5999999,2023-05-12T12:11:04Z,2035836.923,NULL,NA,NA,NA,NA,NA,NA,NA,NA,NA,NA,NA,NA,NA,NA,NA,NA,NA,NA,NA,NA,NA,NA,NA,NA,NA,NA,NA,NA,NA
e32f1,deep,flow.Sequence,3_0_0_0_0_0,NA,NA,skipped,NA,2035827,NA,NA,2035679.4,2035827.1999999,2023-05-12T12:11:04Z,2035836.923,NULL,Vermutung,udhanifu,s,haramia,tikisho,itifaki,NA,sdf,NA,0,NA,NA,NA,NA,NA,NA,NA,NA,NA,NA,NA,NA,NA,NA,NA,NA,NA,NA,NA
e32f1,Shallow Question,html.Page,3_0_0_0_0_1_0,NA,NA,form submission,6053.8769999524,2035827.3,2035819.53,2035836.923,2041890.8,2041891.0999999,2023-05-12T12:11:10Z,2041898.768,NULL,Vermutung,udhanifu,s,haramia,tikisho,itifaki,haramia,NA,NA,0,NA,NA,NA,NA,NA,NA,NA,NA,NA,NA,NA,NA,NA,NA,NA,NA,NA,NA,NA
e32f1,"""Richtig""-Screen",canvas.Screen,3_0_0_0_0_1_1,NA,NA,skipped,NA,2041892.9,NA,NA,2041890.8,2041893,2023-05-12T12:11:10Z,2041898.768,NULL,Vermutung,udhanifu,s,haramia,tikisho,itifaki,NA,sdf,NA,0,NA,NA,NA,NA,NA,NA,NA,NA,NA,NA,NA,NA,NA,NA,NA,NA,NA,NA,NA
e32f1,"""Falsch""-Screen",canvas.Screen,3_0_0_0_0_1_2,NA,NA,timeout,4993.8760000002,2041893.5,2041884.398,2041898.768,2046876.365,2046877.3,2023-05-12T12:11:15Z,2046892.644,NULL,Vermutung,udhanifu,s,haramia,tikisho,itifaki,NA,sdf,0,0,NA,NA,NA,NA,NA,NA,NA,NA,NA,NA,NA,NA,NA,NA,NA,NA,NA,NA,NA
e32f1,shallow,flow.Sequence,3_0_0_0_0_1,NA,NA,completion,11039.442,2035827.3,2035819.53,2035836.923,2046876.365,2046877.5999999,2023-05-12T12:11:15Z,2046892.644,NULL,Vermutung,udhanifu,s,haramia,tikisho,itifaki,NA,sdf,NA,0,NA,NA,NA,NA,NA,NA,NA,NA,NA,NA,NA,NA,NA,NA,NA,NA,NA,NA,NA
e32f1,task,flow.Sequence,3_0_0_0_0,NA,NA,completion,11039.442,2035827,2035819.53,2035836.923,2046876.365,2046877.8,2023-05-12T12:11:15Z,2046892.644,NULL,Vermutung,udhanifu,s,haramia,tikisho,itifaki,NA,sdf,NA,0,NA,NA,NA,NA,NA,NA,NA,NA,NA,NA,NA,NA,NA,NA,NA,NA,NA,NA,NA
e32f1,Deep Question,html.Page,3_0_0_0_1_0_0,NA,NA,form submission,2783.4559999045,2046877.9,2046876.365,2046892.644,2049676.0999999,2049676.4,2023-05-12T12:11:18Z,2049684.685,NULL,Toleranz,kuvumiliana,d,NA,NA,NA,jhv,NA,NA,0,NA,NA,NA,NA,NA,NA,NA,NA,NA,NA,NA,NA,NA,NA,NA,NA,NA,NA,NA
e32f1,"""Richtig""-Screen",canvas.Screen,3_0_0_0_1_0_1,NA,NA,skipped,NA,2049678.0999999,NA,NA,2049676.0999999,2049678.1999999,2023-05-12T12:11:18Z,2049684.685,NULL,Toleranz,kuvumiliana,d,NA,NA,NA,NA,sdf,NA,0,NA,NA,NA,NA,NA,NA,NA,NA,NA,NA,NA,NA,NA,NA,NA,NA,NA,NA,NA
e32f1,"""Falsch""-Screen",canvas.Screen,3_0_0_0_1_0_2,NA,NA,timeout,4996.5959999999,2049678.8,2049673.7,2049684.685,2054663.985,2054665.6999999,2023-05-12T12:11:23Z,2054681.281,NULL,Toleranz,kuvumiliana,d,NA,NA,NA,NA,sdf,0,0,NA,NA,NA,NA,NA,NA,NA,NA,NA,NA,NA,NA,NA,NA,NA,NA,NA,NA,NA
e32f1,deep,flow.Sequence,3_0_0_0_1_0,NA,NA,completion,7771.341,2046877.9,2046876.365,2046892.644,2054663.985,2054666.0999999,2023-05-12T12:11:23Z,2054681.281,NULL,Toleranz,kuvumiliana,d,NA,NA,NA,NA,sdf,NA,0,NA,NA,NA,NA,NA,NA,NA,NA,NA,NA,NA,NA,NA,NA,NA,NA,NA,NA,NA
e32f1,shallow,flow.Sequence,3_0_0_0_1_1,NA,NA,skipped,NA,2054666.3,NA,NA,2054663.985,2054666.3,2023-05-12T12:11:23Z,2054681.281,NULL,Toleranz,kuvumiliana,d,NA,NA,NA,NA,sdf,NA,0,NA,NA,NA,NA,NA,NA,NA,NA,NA,NA,NA,NA,NA,NA,NA,NA,NA,NA,NA
e32f1,task,flow.Sequence,3_0_0_0_1,NA,NA,completion,7771.341,2046877.9,2046876.365,2046892.644,2054663.985,2054666.5,2023-05-12T12:11:23Z,2054681.281,NULL,Toleranz,kuvumiliana,d,NA,NA,NA,NA,sdf,NA,0,NA,NA,NA,NA,NA,NA,NA,NA,NA,NA,NA,NA,NA,NA,NA,NA,NA,NA,NA
e32f1,deep,flow.Sequence,3_0_0_0_2_0,NA,NA,skipped,NA,2054666.5999999,NA,NA,2054663.985,2054666.6999999,2023-05-12T12:11:23Z,2054681.281,NULL,Fleisch,mshakiki,s,kizunguzungu,mshikamano,angusho,NA,sdf,NA,0,NA,NA,NA,NA,NA,NA,NA,NA,NA,NA,NA,NA,NA,NA,NA,NA,NA,NA,NA
e32f1,Shallow Question,html.Page,3_0_0_0_2_1_0,NA,NA,form submission,5942.5189999524,2054666.9,2054663.985,2054681.281,2060623.8,2060624,2023-05-12T12:11:29Z,2060631.693,NULL,Fleisch,mshakiki,s,kizunguzungu,mshikamano,angusho,mshakiki,NA,NA,0,NA,NA,NA,NA,NA,NA,NA,NA,NA,NA,NA,NA,NA,NA,NA,NA,NA,NA,NA
e32f1,"""Richtig""-Screen",canvas.Screen,3_0_0_0_2_1_1,NA,NA,timeout,5002.5560000001,2060625.8,2060614.243,2060631.693,2065617.832,2065618.9,2023-05-12T12:11:34Z,2065634.249,NULL,Fleisch,mshakiki,s,kizunguzungu,mshikamano,angusho,NA,sdf,1,0,NA,NA,NA,NA,NA,NA,NA,NA,NA,NA,NA,NA,NA,NA,NA,NA,NA,NA,NA
e32f1,"""Falsch""-Screen",canvas.Screen,3_0_0_0_2_1_2,NA,NA,skipped,NA,2065623.8,NA,NA,2065617.832,2065624.0999999,2023-05-12T12:11:34Z,2065634.249,NULL,Fleisch,mshakiki,s,kizunguzungu,mshikamano,angusho,NA,sdf,NA,0,NA,NA,NA,NA,NA,NA,NA,NA,NA,NA,NA,NA,NA,NA,NA,NA,NA,NA,NA
e32f1,shallow,flow.Sequence,3_0_0_0_2_1,NA,NA,completion,10936.551,2054666.8,2054663.985,2054681.281,2065617.832,2065624.5999999,2023-05-12T12:11:34Z,2065634.249,NULL,Fleisch,mshakiki,s,kizunguzungu,mshikamano,angusho,NA,sdf,NA,0,NA,NA,NA,NA,NA,NA,NA,NA,NA,NA,NA,NA,NA,NA,NA,NA,NA,NA,NA
e32f1,task,flow.Sequence,3_0_0_0_2,NA,NA,completion,10936.551,2054666.5999999,2054663.985,2054681.281,2065617.832,2065624.8,2023-05-12T12:11:34Z,2065634.249,NULL,Fleisch,mshakiki,s,kizunguzungu,mshikamano,angusho,NA,sdf,NA,0,NA,NA,NA,NA,NA,NA,NA,NA,NA,NA,NA,NA,NA,NA,NA,NA,NA,NA,NA
e32f1,Deep Question,html.Page,3_0_0_0_3_0_0,NA,NA,form submission,2477.8509999046,2065625,2065617.832,2065634.249,2068112.0999999,2068112.5,2023-05-12T12:11:36Z,2068144.772,NULL,Schlange,foleni,d,NA,NA,NA,u,NA,NA,0,NA,NA,NA,NA,NA,NA,NA,NA,NA,NA,NA,NA,NA,NA,NA,NA,NA,NA,NA
e32f1,"""Richtig""-Screen",canvas.Screen,3_0_0_0_3_0_1,NA,NA,skipped,NA,2068113.0999999,NA,NA,2068112.0999999,2068113.0999999,2023-05-12T12:11:36Z,2068144.772,NULL,Schlange,foleni,d,NA,NA,NA,NA,sdf,NA,0,NA,NA,NA,NA,NA,NA,NA,NA,NA,NA,NA,NA,NA,NA,NA,NA,NA,NA,NA
e32f1,"""Falsch""-Screen",canvas.Screen,3_0_0_0_3_0_2,NA,NA,timeout,4992.9509999999,2068113.5999999,2068128.491,2068144.772,2073121.424,2073123,2023-05-12T12:11:41Z,2073137.723,NULL,Schlange,foleni,d,NA,NA,NA,NA,sdf,0,0,NA,NA,NA,NA,NA,NA,NA,NA,NA,NA,NA,NA,NA,NA,NA,NA,NA,NA,NA
e32f1,deep,flow.Sequence,3_0_0_0_3_0,NA,NA,completion,7487.175,2065624.9,2065617.832,2065634.249,2073121.424,2073123.3,2023-05-12T12:11:41Z,2073137.723,NULL,Schlange,foleni,d,NA,NA,NA,NA,sdf,NA,0,NA,NA,NA,NA,NA,NA,NA,NA,NA,NA,NA,NA,NA,NA,NA,NA,NA,NA,NA
e32f1,shallow,flow.Sequence,3_0_0_0_3_1,NA,NA,skipped,NA,2073123.5,NA,NA,2073121.424,2073123.5999999,2023-05-12T12:11:41Z,2073137.723,NULL,Schlange,foleni,d,NA,NA,NA,NA,sdf,NA,0,NA,NA,NA,NA,NA,NA,NA,NA,NA,NA,NA,NA,NA,NA,NA,NA,NA,NA,NA
e32f1,task,flow.Sequence,3_0_0_0_3,NA,NA,completion,7487.175,2065624.9,2065617.832,2065634.249,2073121.424,2073123.6999999,2023-05-12T12:11:41Z,2073137.723,NULL,Schlange,foleni,d,NA,NA,NA,NA,sdf,NA,0,NA,NA,NA,NA,NA,NA,NA,NA,NA,NA,NA,NA,NA,NA,NA,NA,NA,NA,NA
e32f1,deep,flow.Sequence,3_0_0_0_4_0,NA,NA,skipped,NA,2073123.8,NA,NA,2073121.424,2073124.1999999,2023-05-12T12:11:41Z,2073137.723,NULL,Inhalt,yaliyomo,s,kishawishi,hifadhi,kutembea,NA,sdf,NA,0,NA,NA,NA,NA,NA,NA,NA,NA,NA,NA,NA,NA,NA,NA,NA,NA,NA,NA,NA
e32f1,Shallow Question,html.Page,3_0_0_0_4_1_0,NA,NA,form submission,2402.3769999046,2073124.3,2073121.424,2073137.723,2075540.0999999,2075540.3,2023-05-12T12:11:44Z,2075547.938,NULL,Inhalt,yaliyomo,s,kishawishi,hifadhi,kutembea,kutembea,NA,NA,0,NA,NA,NA,NA,NA,NA,NA,NA,NA,NA,NA,NA,NA,NA,NA,NA,NA,NA,NA
e32f1,"""Richtig""-Screen",canvas.Screen,3_0_0_0_4_1_1,NA,NA,skipped,NA,2075542,NA,NA,2075540.0999999,2075542.0999999,2023-05-12T12:11:44Z,2075547.938,NULL,Inhalt,yaliyomo,s,kishawishi,hifadhi,kutembea,NA,sdf,NA,0,NA,NA,NA,NA,NA,NA,NA,NA,NA,NA,NA,NA,NA,NA,NA,NA,NA,NA,NA
e32f1,"""Falsch""-Screen",canvas.Screen,3_0_0_0_4_1_2,NA,NA,timeout,5005.754,2075542.5,2075531.093,2075547.938,2080537.061,2080538.0999999,2023-05-12T12:11:49Z,2080553.692,NULL,Inhalt,yaliyomo,s,kishawishi,hifadhi,kutembea,NA,sdf,0,0,NA,NA,NA,NA,NA,NA,NA,NA,NA,NA,NA,NA,NA,NA,NA,NA,NA,NA,NA
e32f1,shallow,flow.Sequence,3_0_0_0_4_1,NA,NA,completion,7399.338,2073124.1999999,2073121.424,2073137.723,2080537.061,2080538.4,2023-05-12T12:11:49Z,2080553.692,NULL,Inhalt,yaliyomo,s,kishawishi,hifadhi,kutembea,NA,sdf,NA,0,NA,NA,NA,NA,NA,NA,NA,NA,NA,NA,NA,NA,NA,NA,NA,NA,NA,NA,NA
e32f1,task,flow.Sequence,3_0_0_0_4,NA,NA,completion,7399.338,2073123.8,2073121.424,2073137.723,2080537.061,2080538.6999999,2023-05-12T12:11:49Z,2080553.692,NULL,Inhalt,yaliyomo,s,kishawishi,hifadhi,kutembea,NA,sdf,NA,0,NA,NA,NA,NA,NA,NA,NA,NA,NA,NA,NA,NA,NA,NA,NA,NA,NA,NA,NA
e32f1,Deep Question,html.Page,3_0_0_0_5_0_0,NA,NA,form submission,4185.308,2080539,2080537.061,2080553.692,2084739,2084739.3,2023-05-12T12:11:53Z,2084747.559,NULL,Begegnung,kukutana,d,NA,NA,NA,ikh,NA,NA,0,NA,NA,NA,NA,NA,NA,NA,NA,NA,NA,NA,NA,NA,NA,NA,NA,NA,NA,NA
e32f1,"""Richtig""-Screen",canvas.Screen,3_0_0_0_5_0_1,NA,NA,skipped,NA,2084741.1999999,NA,NA,2084739,2084741.3,2023-05-12T12:11:53Z,2084747.559,NULL,Begegnung,kukutana,d,NA,NA,NA,NA,sdf,NA,0,NA,NA,NA,NA,NA,NA,NA,NA,NA,NA,NA,NA,NA,NA,NA,NA,NA,NA,NA
e32f1,"""Falsch""-Screen",canvas.Screen,3_0_0_0_5_0_2,NA,NA,timeout,5007.5850000002,2084741.8,2084727.003,2084747.559,2089738.566,2089739.5999999,2023-05-12T12:11:58Z,2089755.144,NULL,Begegnung,kukutana,d,NA,NA,NA,NA,sdf,0,0,NA,NA,NA,NA,NA,NA,NA,NA,NA,NA,NA,NA,NA,NA,NA,NA,NA,NA,NA
e32f1,deep,flow.Sequence,3_0_0_0_5_0,NA,NA,completion,9184.8740000001,2080539,2080537.061,2080553.692,2089738.566,2089740,2023-05-12T12:11:58Z,2089755.144,NULL,Begegnung,kukutana,d,NA,NA,NA,NA,sdf,NA,0,NA,NA,NA,NA,NA,NA,NA,NA,NA,NA,NA,NA,NA,NA,NA,NA,NA,NA,NA
e32f1,shallow,flow.Sequence,3_0_0_0_5_1,NA,NA,skipped,NA,2089740.0999999,NA,NA,2089738.566,2089740.1999999,2023-05-12T12:11:58Z,2089755.144,NULL,Begegnung,kukutana,d,NA,NA,NA,NA,sdf,NA,0,NA,NA,NA,NA,NA,NA,NA,NA,NA,NA,NA,NA,NA,NA,NA,NA,NA,NA,NA
e32f1,task,flow.Sequence,3_0_0_0_5,NA,NA,completion,9184.8740000001,2080538.8,2080537.061,2080553.692,2089738.566,2089740.3,2023-05-12T12:11:58Z,2089755.144,NULL,Begegnung,kukutana,d,NA,NA,NA,NA,sdf,NA,0,NA,NA,NA,NA,NA,NA,NA,NA,NA,NA,NA,NA,NA,NA,NA,NA,NA,NA,NA
e32f1,deep,flow.Sequence,3_0_0_0_6_0,NA,NA,skipped,NA,2089740.5,NA,NA,2089738.566,2089740.5999999,2023-05-12T12:11:58Z,2089755.144,NULL,Integrität,uadilifu,s,muungano,mtiririko,upunguaji,NA,sdf,NA,0,NA,NA,NA,NA,NA,NA,NA,NA,NA,NA,NA,NA,NA,NA,NA,NA,NA,NA,NA
e32f1,Shallow Question,html.Page,3_0_0_0_6_1_0,NA,NA,form submission,4392.6559999522,2089740.5999999,2089738.566,2089755.144,2094147.8,2094148.0999999,2023-05-12T12:12:02Z,2094156.191,NULL,Integrität,uadilifu,s,muungano,mtiririko,upunguaji,muungano,NA,NA,0,NA,NA,NA,NA,NA,NA,NA,NA,NA,NA,NA,NA,NA,NA,NA,NA,NA,NA,NA
e32f1,"""Richtig""-Screen",canvas.Screen,3_0_0_0_6_1_1,NA,NA,skipped,NA,2094149.8,NA,NA,2094147.8,2094149.8,2023-05-12T12:12:02Z,2094156.191,NULL,Integrität,uadilifu,s,muungano,mtiririko,upunguaji,NA,sdf,NA,0,NA,NA,NA,NA,NA,NA,NA,NA,NA,NA,NA,NA,NA,NA,NA,NA,NA,NA,NA
e32f1,"""Falsch""-Screen",canvas.Screen,3_0_0_0_6_1_2,NA,NA,timeout,5003.3419999997,2094150.3,2094137.966,2094156.191,2099142.853,2099143.9,2023-05-12T12:12:07Z,2099159.533,NULL,Integrität,uadilifu,s,muungano,mtiririko,upunguaji,NA,sdf,0,0,NA,NA,NA,NA,NA,NA,NA,NA,NA,NA,NA,NA,NA,NA,NA,NA,NA,NA,NA
e32f1,shallow,flow.Sequence,3_0_0_0_6_1,NA,NA,completion,9387.709,2089740.5999999,2089738.566,2089755.144,2099142.853,2099144.1999999,2023-05-12T12:12:07Z,2099159.533,NULL,Integrität,uadilifu,s,muungano,mtiririko,upunguaji,NA,sdf,NA,0,NA,NA,NA,NA,NA,NA,NA,NA,NA,NA,NA,NA,NA,NA,NA,NA,NA,NA,NA
e32f1,task,flow.Sequence,3_0_0_0_6,NA,NA,completion,9387.709,2089740.5,2089738.566,2089755.144,2099142.853,2099144.4,2023-05-12T12:12:07Z,2099159.533,NULL,Integrität,uadilifu,s,muungano,mtiririko,upunguaji,NA,sdf,NA,0,NA,NA,NA,NA,NA,NA,NA,NA,NA,NA,NA,NA,NA,NA,NA,NA,NA,NA,NA
e32f1,Deep Question,html.Page,3_0_0_0_7_0_0,NA,NA,form submission,3526.0669999048,2099144.5999999,2099142.853,2099159.533,2102685.5999999,2102685.8,2023-05-12T12:12:11Z,2102694.189,NULL,Genehmigung,idhini,d,NA,NA,NA,i,NA,NA,0,NA,NA,NA,NA,NA,NA,NA,NA,NA,NA,NA,NA,NA,NA,NA,NA,NA,NA,NA
e32f1,"""Richtig""-Screen",canvas.Screen,3_0_0_0_7_0_1,NA,NA,skipped,NA,2102687.5999999,NA,NA,2102685.5999999,2102687.6999999,2023-05-12T12:12:11Z,2102694.189,NULL,Genehmigung,idhini,d,NA,NA,NA,NA,sdf,NA,0,NA,NA,NA,NA,NA,NA,NA,NA,NA,NA,NA,NA,NA,NA,NA,NA,NA,NA,NA
e32f1,"""Falsch""-Screen",canvas.Screen,3_0_0_0_7_0_2,NA,NA,timeout,4992.1240000003,2102688.1999999,2102673.756,2102694.189,2107669.941,2107671,2023-05-12T12:12:16Z,2107686.313,NULL,Genehmigung,idhini,d,NA,NA,NA,NA,sdf,0,0,NA,NA,NA,NA,NA,NA,NA,NA,NA,NA,NA,NA,NA,NA,NA,NA,NA,NA,NA
e32f1,deep,flow.Sequence,3_0_0_0_7_0,NA,NA,completion,8510.4080000003,2099144.5999999,2099142.853,2099159.533,2107669.941,2107671.3,2023-05-12T12:12:16Z,2107686.313,NULL,Genehmigung,idhini,d,NA,NA,NA,NA,sdf,NA,0,NA,NA,NA,NA,NA,NA,NA,NA,NA,NA,NA,NA,NA,NA,NA,NA,NA,NA,NA
e32f1,shallow,flow.Sequence,3_0_0_0_7_1,NA,NA,skipped,NA,2107671.4,NA,NA,2107669.941,2107671.5999999,2023-05-12T12:12:16Z,2107686.313,NULL,Genehmigung,idhini,d,NA,NA,NA,NA,sdf,NA,0,NA,NA,NA,NA,NA,NA,NA,NA,NA,NA,NA,NA,NA,NA,NA,NA,NA,NA,NA
e32f1,task,flow.Sequence,3_0_0_0_7,NA,NA,completion,8510.4080000003,2099144.5999999,2099142.853,2099159.533,2107669.941,2107671.6999999,2023-05-12T12:12:16Z,2107686.313,NULL,Genehmigung,idhini,d,NA,NA,NA,NA,sdf,NA,0,NA,NA,NA,NA,NA,NA,NA,NA,NA,NA,NA,NA,NA,NA,NA,NA,NA,NA,NA
e32f1,block,flow.Loop,3_0_0_0,NA,NA,completion,71833.018,2035827,2035819.53,2035836.923,2107669.941,2107671.9,2023-05-12T12:12:16Z,2107686.313,NULL,NA,NA,NA,NA,NA,NA,NA,sdf,NA,0,NA,NA,NA,NA,NA,NA,NA,NA,NA,NA,NA,NA,NA,NA,NA,NA,NA,NA,NA
e32f1,weiter,canvas.Screen,3_0_0_1,sdf,keypress(Space),response,1578.6869999999,2107672,2107669.941,2107686.313,2109265,2109270,2023-05-12T12:12:17Z,2109327.076,NULL,NA,NA,NA,NA,NA,NA,NA,sdf,NA,0,NA,NA,NA,NA,NA,NA,NA,NA,NA,NA,NA,NA,NA,NA,NA,NA,NA,NA,NA
e32f1,check continue,flow.Sequence,3_0_0,NA,NA,completion,73428.077,2035827,2035819.53,2035836.923,2109265,2109270.3,2023-05-12T12:12:17Z,2109327.076,NULL,NA,NA,NA,NA,NA,NA,NA,sdf,NA,0,NA,NA,NA,NA,NA,NA,NA,NA,NA,NA,NA,NA,NA,NA,NA,NA,NA,NA,NA
e32f1,Deep Question,html.Page,3_0_1_0_0_0_0,NA,NA,form submission,3218.5239999047,2109316.5999999,2109314.316,2109327.076,2112545.5999999,2112545.9,2023-05-12T12:12:21Z,2112554.737,NULL,Toleranz,kuvumiliana,d,NA,NA,NA,NA,NA,NA,1,NA,NA,NA,NA,NA,NA,NA,NA,NA,NA,NA,NA,NA,NA,NA,NA,NA,NA,NA
e32f1,"""Richtig""-Screen",canvas.Screen,3_0_1_0_0_0_1,NA,NA,skipped,NA,2112546.5,NA,NA,2112545.5999999,2112546.5999999,2023-05-12T12:12:21Z,2112554.737,NULL,Toleranz,kuvumiliana,d,NA,NA,NA,NA,sdfdsf,NA,1,NA,NA,NA,NA,NA,NA,NA,NA,NA,NA,NA,NA,NA,NA,NA,NA,NA,NA,NA
e32f1,"""Falsch""-Screen",canvas.Screen,3_0_1_0_0_0_2,NA,NA,timeout,4991.983,2112547,2112533.491,2112554.737,2117530.046,2117531.1999999,2023-05-12T12:12:26Z,2117546.72,NULL,Toleranz,kuvumiliana,d,NA,NA,NA,NA,sdfdsf,0,1,NA,NA,NA,NA,NA,NA,NA,NA,NA,NA,NA,NA,NA,NA,NA,NA,NA,NA,NA
e32f1,deep,flow.Sequence,3_0_1_0_0_0,NA,NA,completion,8202.9700000002,2109316.5999999,2109314.316,2109327.076,2117530.046,2117531.5999999,2023-05-12T12:12:26Z,2117546.72,NULL,Toleranz,kuvumiliana,d,NA,NA,NA,NA,sdfdsf,NA,1,NA,NA,NA,NA,NA,NA,NA,NA,NA,NA,NA,NA,NA,NA,NA,NA,NA,NA,NA
e32f1,shallow,flow.Sequence,3_0_1_0_0_1,NA,NA,skipped,NA,2117531.6999999,NA,NA,2117530.046,2117531.8,2023-05-12T12:12:26Z,2117546.72,NULL,Toleranz,kuvumiliana,d,NA,NA,NA,NA,sdfdsf,NA,1,NA,NA,NA,NA,NA,NA,NA,NA,NA,NA,NA,NA,NA,NA,NA,NA,NA,NA,NA
e32f1,task,flow.Sequence,3_0_1_0_0,NA,NA,completion,8202.9700000002,2109316.5999999,2109314.316,2109327.076,2117530.046,2117532,2023-05-12T12:12:26Z,2117546.72,NULL,Toleranz,kuvumiliana,d,NA,NA,NA,NA,sdfdsf,NA,1,NA,NA,NA,NA,NA,NA,NA,NA,NA,NA,NA,NA,NA,NA,NA,NA,NA,NA,NA
e32f1,Deep Question,html.Page,3_0_1_0_1_0_0,NA,NA,form submission,3859.9799999283,2117532.1999999,2117530.046,2117546.72,2121406.6999999,2121407,2023-05-12T12:12:29Z,2121415.404,NULL,Begegnung,kukutana,d,NA,NA,NA,hiu,NA,NA,1,NA,NA,NA,NA,NA,NA,NA,NA,NA,NA,NA,NA,NA,NA,NA,NA,NA,NA,NA
e32f1,"""Richtig""-Screen",canvas.Screen,3_0_1_0_1_0_1,NA,NA,skipped,NA,2121408.9,NA,NA,2121406.6999999,2121409.0999999,2023-05-12T12:12:29Z,2121415.404,NULL,Begegnung,kukutana,d,NA,NA,NA,NA,sdfdsf,NA,1,NA,NA,NA,NA,NA,NA,NA,NA,NA,NA,NA,NA,NA,NA,NA,NA,NA,NA,NA
e32f1,"""Falsch""-Screen",canvas.Screen,3_0_1_0_1_0_2,NA,NA,timeout,4995.642,2121409.5999999,2121404.242,2121415.404,2126393.204,2126394.8,2023-05-12T12:12:34Z,2126411.046,NULL,Begegnung,kukutana,d,NA,NA,NA,NA,sdfdsf,0,1,NA,NA,NA,NA,NA,NA,NA,NA,NA,NA,NA,NA,NA,NA,NA,NA,NA,NA,NA
e32f1,deep,flow.Sequence,3_0_1_0_1_0,NA,NA,completion,8846.4839999997,2117532.1999999,2117530.046,2117546.72,2126393.204,2126395.1999999,2023-05-12T12:12:34Z,2126411.046,NULL,Begegnung,kukutana,d,NA,NA,NA,NA,sdfdsf,NA,1,NA,NA,NA,NA,NA,NA,NA,NA,NA,NA,NA,NA,NA,NA,NA,NA,NA,NA,NA
e32f1,shallow,flow.Sequence,3_0_1_0_1_1,NA,NA,skipped,NA,2126395.3,NA,NA,2126393.204,2126395.4,2023-05-12T12:12:34Z,2126411.046,NULL,Begegnung,kukutana,d,NA,NA,NA,NA,sdfdsf,NA,1,NA,NA,NA,NA,NA,NA,NA,NA,NA,NA,NA,NA,NA,NA,NA,NA,NA,NA,NA
e32f1,task,flow.Sequence,3_0_1_0_1,NA,NA,completion,8846.4839999997,2117532.0999999,2117530.046,2117546.72,2126393.204,2126395.5,2023-05-12T12:12:34Z,2126411.046,NULL,Begegnung,kukutana,d,NA,NA,NA,NA,sdfdsf,NA,1,NA,NA,NA,NA,NA,NA,NA,NA,NA,NA,NA,NA,NA,NA,NA,NA,NA,NA,NA
e32f1,deep,flow.Sequence,3_0_1_0_2_0,NA,NA,skipped,NA,2126395.6999999,NA,NA,2126393.204,2126395.8,2023-05-12T12:12:34Z,2126411.046,NULL,Integrität,uadilifu,s,muungano,mtiririko,upunguaji,NA,sdfdsf,NA,1,NA,NA,NA,NA,NA,NA,NA,NA,NA,NA,NA,NA,NA,NA,NA,NA,NA,NA,NA
e32f1,Shallow Question,html.Page,3_0_1_0_2_1_0,NA,NA,form submission,5763.7539999522,2126396,2126393.204,2126411.046,2132174.8,2132175.1999999,2023-05-12T12:12:40Z,2132182.725,NULL,Integrität,uadilifu,s,muungano,mtiririko,upunguaji,uadilifu,NA,NA,1,NA,NA,NA,NA,NA,NA,NA,NA,NA,NA,NA,NA,NA,NA,NA,NA,NA,NA,NA
e32f1,"""Richtig""-Screen",canvas.Screen,3_0_1_0_2_1_1,NA,NA,timeout,4993.338,2132176.9,2132169.779,2132182.725,2137159.563,2137160.6999999,2023-05-12T12:12:45Z,2137176.063,NULL,Integrität,uadilifu,s,muungano,mtiririko,upunguaji,NA,sdfdsf,1,1,NA,NA,NA,NA,NA,NA,NA,NA,NA,NA,NA,NA,NA,NA,NA,NA,NA,NA,NA
e32f1,"""Falsch""-Screen",canvas.Screen,3_0_1_0_2_1_2,NA,NA,skipped,NA,2137166,NA,NA,2137159.563,2137166.5,2023-05-12T12:12:45Z,2137176.063,NULL,Integrität,uadilifu,s,muungano,mtiririko,upunguaji,NA,sdfdsf,NA,1,NA,NA,NA,NA,NA,NA,NA,NA,NA,NA,NA,NA,NA,NA,NA,NA,NA,NA,NA
e32f1,shallow,flow.Sequence,3_0_1_0_2_1,NA,NA,completion,10748.517,2126396,2126393.204,2126411.046,2137159.563,2137166.9,2023-05-12T12:12:45Z,2137176.063,NULL,Integrität,uadilifu,s,muungano,mtiririko,upunguaji,NA,sdfdsf,NA,1,NA,NA,NA,NA,NA,NA,NA,NA,NA,NA,NA,NA,NA,NA,NA,NA,NA,NA,NA
e32f1,task,flow.Sequence,3_0_1_0_2,NA,NA,completion,10748.517,2126395.5999999,2126393.204,2126411.046,2137159.563,2137167.0999999,2023-05-12T12:12:45Z,2137176.063,NULL,Integrität,uadilifu,s,muungano,mtiririko,upunguaji,NA,sdfdsf,NA,1,NA,NA,NA,NA,NA,NA,NA,NA,NA,NA,NA,NA,NA,NA,NA,NA,NA,NA,NA
e32f1,deep,flow.Sequence,3_0_1_0_3_0,NA,NA,skipped,NA,2137167.1999999,NA,NA,2137159.563,2137167.3,2023-05-12T12:12:45Z,2137176.063,NULL,Fleisch,mshakiki,s,kizunguzungu,mshikamano,angusho,NA,sdfdsf,NA,1,NA,NA,NA,NA,NA,NA,NA,NA,NA,NA,NA,NA,NA,NA,NA,NA,NA,NA,NA
e32f1,Shallow Question,html.Page,3_0_1_0_3_1_0,NA,NA,form submission,7643.2369999522,2137167.5,2137159.563,2137176.063,2144819.3,2144819.5999999,2023-05-12T12:12:53Z,2144827.479,NULL,Fleisch,mshakiki,s,kizunguzungu,mshikamano,angusho,mshakiki,NA,NA,1,NA,NA,NA,NA,NA,NA,NA,NA,NA,NA,NA,NA,NA,NA,NA,NA,NA,NA,NA
e32f1,"""Richtig""-Screen",canvas.Screen,3_0_1_0_3_1_1,NA,NA,timeout,4997.4780000001,2144821.1999999,2144815.235,2144827.479,2149808.395,2149809.5,2023-05-12T12:12:58Z,2149824.957,NULL,Fleisch,mshakiki,s,kizunguzungu,mshikamano,angusho,NA,sdfdsf,1,1,NA,NA,NA,NA,NA,NA,NA,NA,NA,NA,NA,NA,NA,NA,NA,NA,NA,NA,NA
e32f1,"""Falsch""-Screen",canvas.Screen,3_0_1_0_3_1_2,NA,NA,skipped,NA,2149814.1999999,NA,NA,2149808.395,2149814.5999999,2023-05-12T12:12:58Z,2149824.957,NULL,Fleisch,mshakiki,s,kizunguzungu,mshikamano,angusho,NA,sdfdsf,NA,1,NA,NA,NA,NA,NA,NA,NA,NA,NA,NA,NA,NA,NA,NA,NA,NA,NA,NA,NA
e32f1,shallow,flow.Sequence,3_0_1_0_3_1,NA,NA,completion,12632.332,2137167.5,2137159.563,2137176.063,2149808.395,2149814.8,2023-05-12T12:12:58Z,2149824.957,NULL,Fleisch,mshakiki,s,kizunguzungu,mshikamano,angusho,NA,sdfdsf,NA,1,NA,NA,NA,NA,NA,NA,NA,NA,NA,NA,NA,NA,NA,NA,NA,NA,NA,NA,NA
e32f1,task,flow.Sequence,3_0_1_0_3,NA,NA,completion,12632.332,2137167.1999999,2137159.563,2137176.063,2149808.395,2149815,2023-05-12T12:12:58Z,2149824.957,NULL,Fleisch,mshakiki,s,kizunguzungu,mshikamano,angusho,NA,sdfdsf,NA,1,NA,NA,NA,NA,NA,NA,NA,NA,NA,NA,NA,NA,NA,NA,NA,NA,NA,NA,NA
e32f1,Deep Question,html.Page,3_0_1_0_4_0_0,NA,NA,form submission,3805.5430000001,2149815.1999999,2149808.395,2149824.957,2153630.5,2153630.8,2023-05-12T12:13:02Z,2153638.629,NULL,Genehmigung,idhini,d,NA,NA,NA,ulu,NA,NA,1,NA,NA,NA,NA,NA,NA,NA,NA,NA,NA,NA,NA,NA,NA,NA,NA,NA,NA,NA
e32f1,"""Richtig""-Screen",canvas.Screen,3_0_1_0_4_0_1,NA,NA,skipped,NA,2153632.5999999,NA,NA,2153630.5,2153632.5999999,2023-05-12T12:13:02Z,2153638.629,NULL,Genehmigung,idhini,d,NA,NA,NA,NA,sdfdsf,NA,1,NA,NA,NA,NA,NA,NA,NA,NA,NA,NA,NA,NA,NA,NA,NA,NA,NA,NA,NA
e32f1,"""Falsch""-Screen",canvas.Screen,3_0_1_0_4_0_2,NA,NA,timeout,5005.8229999999,2153633.0999999,2153622.36,2153638.629,2158628.037,2158630.9,2023-05-12T12:13:07Z,2158644.452,NULL,Genehmigung,idhini,d,NA,NA,NA,NA,sdfdsf,0,1,NA,NA,NA,NA,NA,NA,NA,NA,NA,NA,NA,NA,NA,NA,NA,NA,NA,NA,NA
e32f1,deep,flow.Sequence,3_0_1_0_4_0,NA,NA,completion,8803.0800000001,2149815.1999999,2149808.395,2149824.957,2158628.037,2158631.4,2023-05-12T12:13:07Z,2158644.452,NULL,Genehmigung,idhini,d,NA,NA,NA,NA,sdfdsf,NA,1,NA,NA,NA,NA,NA,NA,NA,NA,NA,NA,NA,NA,NA,NA,NA,NA,NA,NA,NA
e32f1,shallow,flow.Sequence,3_0_1_0_4_1,NA,NA,skipped,NA,2158631.5999999,NA,NA,2158628.037,2158631.6999999,2023-05-12T12:13:07Z,2158644.452,NULL,Genehmigung,idhini,d,NA,NA,NA,NA,sdfdsf,NA,1,NA,NA,NA,NA,NA,NA,NA,NA,NA,NA,NA,NA,NA,NA,NA,NA,NA,NA,NA
e32f1,task,flow.Sequence,3_0_1_0_4,NA,NA,completion,8803.0800000001,2149815.0999999,2149808.395,2149824.957,2158628.037,2158631.9,2023-05-12T12:13:07Z,2158644.452,NULL,Genehmigung,idhini,d,NA,NA,NA,NA,sdfdsf,NA,1,NA,NA,NA,NA,NA,NA,NA,NA,NA,NA,NA,NA,NA,NA,NA,NA,NA,NA,NA
e32f1,deep,flow.Sequence,3_0_1_0_5_0,NA,NA,skipped,NA,2158632,NA,NA,2158628.037,2158632.1999999,2023-05-12T12:13:07Z,2158644.452,NULL,Vermutung,udhanifu,s,haramia,tikisho,itifaki,NA,sdfdsf,NA,1,NA,NA,NA,NA,NA,NA,NA,NA,NA,NA,NA,NA,NA,NA,NA,NA,NA,NA,NA
e32f1,Shallow Question,html.Page,3_0_1_0_5_1_0,NA,NA,form submission,5826.9479999761,2158632.3,2158628.037,2158644.452,2164471.4,2164471.5999999,2023-05-12T12:13:13Z,2164479.456,NULL,Vermutung,udhanifu,s,haramia,tikisho,itifaki,udhanifu,NA,NA,1,NA,NA,NA,NA,NA,NA,NA,NA,NA,NA,NA,NA,NA,NA,NA,NA,NA,NA,NA
e32f1,"""Richtig""-Screen",canvas.Screen,3_0_1_0_5_1_1,NA,NA,timeout,5006.1120000002,2164473.3,2164460.974,2164479.456,2169469.21,2169470.3,2023-05-12T12:13:18Z,2169485.568,NULL,Vermutung,udhanifu,s,haramia,tikisho,itifaki,NA,sdfdsf,1,1,NA,NA,NA,NA,NA,NA,NA,NA,NA,NA,NA,NA,NA,NA,NA,NA,NA,NA,NA
e32f1,"""Falsch""-Screen",canvas.Screen,3_0_1_0_5_1_2,NA,NA,skipped,NA,2169475.1999999,NA,NA,2169469.21,2169475.5,2023-05-12T12:13:18Z,2169485.568,NULL,Vermutung,udhanifu,s,haramia,tikisho,itifaki,NA,sdfdsf,NA,1,NA,NA,NA,NA,NA,NA,NA,NA,NA,NA,NA,NA,NA,NA,NA,NA,NA,NA,NA
e32f1,shallow,flow.Sequence,3_0_1_0_5_1,NA,NA,completion,10824.758,2158632.3,2158628.037,2158644.452,2169469.21,2169475.9,2023-05-12T12:13:18Z,2169485.568,NULL,Vermutung,udhanifu,s,haramia,tikisho,itifaki,NA,sdfdsf,NA,1,NA,NA,NA,NA,NA,NA,NA,NA,NA,NA,NA,NA,NA,NA,NA,NA,NA,NA,NA
e32f1,task,flow.Sequence,3_0_1_0_5,NA,NA,completion,10824.758,2158632,2158628.037,2158644.452,2169469.21,2169476,2023-05-12T12:13:18Z,2169485.568,NULL,Vermutung,udhanifu,s,haramia,tikisho,itifaki,NA,sdfdsf,NA,1,NA,NA,NA,NA,NA,NA,NA,NA,NA,NA,NA,NA,NA,NA,NA,NA,NA,NA,NA
e32f1,Deep Question,html.Page,3_0_1_0_6_0_0,NA,NA,form submission,3168.5319999047,2169476.3,2169469.21,2169485.568,2172654.0999999,2172654.4,2023-05-12T12:13:21Z,2172662.77,NULL,Schlange,foleni,d,NA,NA,NA,nikit,NA,NA,1,NA,NA,NA,NA,NA,NA,NA,NA,NA,NA,NA,NA,NA,NA,NA,NA,NA,NA,NA
e32f1,"""Richtig""-Screen",canvas.Screen,3_0_1_0_6_0_1,NA,NA,skipped,NA,2172656.0999999,NA,NA,2172654.0999999,2172656.0999999,2023-05-12T12:13:21Z,2172662.77,NULL,Schlange,foleni,d,NA,NA,NA,NA,sdfdsf,NA,1,NA,NA,NA,NA,NA,NA,NA,NA,NA,NA,NA,NA,NA,NA,NA,NA,NA,NA,NA
e32f1,"""Falsch""-Screen",canvas.Screen,3_0_1_0_6_0_2,NA,NA,timeout,4999.665,2172656.5999999,2172645.927,2172662.77,2177645.875,2177647.0999999,2023-05-12T12:13:26Z,2177662.435,NULL,Schlange,foleni,d,NA,NA,NA,NA,sdfdsf,0,1,NA,NA,NA,NA,NA,NA,NA,NA,NA,NA,NA,NA,NA,NA,NA,NA,NA,NA,NA
e32f1,deep,flow.Sequence,3_0_1_0_6_0,NA,NA,completion,8160.307,2169476.1999999,2169469.21,2169485.568,2177645.875,2177647.5,2023-05-12T12:13:26Z,2177662.435,NULL,Schlange,foleni,d,NA,NA,NA,NA,sdfdsf,NA,1,NA,NA,NA,NA,NA,NA,NA,NA,NA,NA,NA,NA,NA,NA,NA,NA,NA,NA,NA
e32f1,shallow,flow.Sequence,3_0_1_0_6_1,NA,NA,skipped,NA,2177647.5999999,NA,NA,2177645.875,2177647.6999999,2023-05-12T12:13:26Z,2177662.435,NULL,Schlange,foleni,d,NA,NA,NA,NA,sdfdsf,NA,1,NA,NA,NA,NA,NA,NA,NA,NA,NA,NA,NA,NA,NA,NA,NA,NA,NA,NA,NA
e32f1,task,flow.Sequence,3_0_1_0_6,NA,NA,completion,8160.307,2169476.0999999,2169469.21,2169485.568,2177645.875,2177647.9,2023-05-12T12:13:26Z,2177662.435,NULL,Schlange,foleni,d,NA,NA,NA,NA,sdfdsf,NA,1,NA,NA,NA,NA,NA,NA,NA,NA,NA,NA,NA,NA,NA,NA,NA,NA,NA,NA,NA
e32f1,deep,flow.Sequence,3_0_1_0_7_0,NA,NA,skipped,NA,2177648,NA,NA,2177645.875,2177648.0999999,2023-05-12T12:13:26Z,2177662.435,NULL,Inhalt,yaliyomo,s,kishawishi,hifadhi,kutembea,NA,sdfdsf,NA,1,NA,NA,NA,NA,NA,NA,NA,NA,NA,NA,NA,NA,NA,NA,NA,NA,NA,NA,NA
e32f1,Shallow Question,html.Page,3_0_1_0_7_1_0,NA,NA,form submission,4674.2649999284,2177648.3,2177645.875,2177662.435,2182336.6999999,2182337,2023-05-12T12:13:30Z,2182344.983,NULL,Inhalt,yaliyomo,s,kishawishi,hifadhi,kutembea,yaliyomo,NA,NA,1,NA,NA,NA,NA,NA,NA,NA,NA,NA,NA,NA,NA,NA,NA,NA,NA,NA,NA,NA
e32f1,"""Richtig""-Screen",canvas.Screen,3_0_1_0_7_1_1,NA,NA,timeout,5004.8670000001,2182338.8,2182329.25,2182344.983,2187333.63,2187336.5999999,2023-05-12T12:13:35Z,2187349.85,NULL,Inhalt,yaliyomo,s,kishawishi,hifadhi,kutembea,NA,sdfdsf,1,1,NA,NA,NA,NA,NA,NA,NA,NA,NA,NA,NA,NA,NA,NA,NA,NA,NA,NA,NA
e32f1,"""Falsch""-Screen",canvas.Screen,3_0_1_0_7_1_2,NA,NA,skipped,NA,2187342.9,NA,NA,2187333.63,2187343.3,2023-05-12T12:13:35Z,2187349.85,NULL,Inhalt,yaliyomo,s,kishawishi,hifadhi,kutembea,NA,sdfdsf,NA,1,NA,NA,NA,NA,NA,NA,NA,NA,NA,NA,NA,NA,NA,NA,NA,NA,NA,NA,NA
e32f1,shallow,flow.Sequence,3_0_1_0_7_1,NA,NA,completion,9671.1949999998,2177648.1999999,2177645.875,2177662.435,2187333.63,2187343.5999999,2023-05-12T12:13:35Z,2187349.85,NULL,Inhalt,yaliyomo,s,kishawishi,hifadhi,kutembea,NA,sdfdsf,NA,1,NA,NA,NA,NA,NA,NA,NA,NA,NA,NA,NA,NA,NA,NA,NA,NA,NA,NA,NA
e32f1,task,flow.Sequence,3_0_1_0_7,NA,NA,completion,9671.1949999998,2177648,2177645.875,2177662.435,2187333.63,2187343.8,2023-05-12T12:13:35Z,2187349.85,NULL,Inhalt,yaliyomo,s,kishawishi,hifadhi,kutembea,NA,sdfdsf,NA,1,NA,NA,NA,NA,NA,NA,NA,NA,NA,NA,NA,NA,NA,NA,NA,NA,NA,NA,NA
e32f1,block,flow.Loop,3_0_1_0,NA,NA,completion,78006.554,2109316.4,2109314.316,2109327.076,2187333.63,2187344,2023-05-12T12:13:35Z,2187349.85,NULL,NA,NA,NA,NA,NA,NA,NA,sdfdsf,NA,1,NA,NA,NA,NA,NA,NA,NA,NA,NA,NA,NA,NA,NA,NA,NA,NA,NA,NA,NA
e32f1,weiter,canvas.Screen,3_0_1_1,sdf,keypress(Space),response,1154.1499999999,2187344.0999999,2187333.63,2187349.85,2188504,2188505.5,2023-05-12T12:13:37Z,2188558.465,NULL,NA,NA,NA,NA,NA,NA,NA,sdfdsf,NA,1,NA,NA,NA,NA,NA,NA,NA,NA,NA,NA,NA,NA,NA,NA,NA,NA,NA,NA,NA
e32f1,check continue,flow.Sequence,3_0_1,NA,NA,completion,79176.924,2109316.4,2109314.316,2109327.076,2188504,2188505.8,2023-05-12T12:13:37Z,2188558.465,NULL,NA,NA,NA,NA,NA,NA,NA,sdfdsf,NA,1,NA,NA,NA,NA,NA,NA,NA,NA,NA,NA,NA,NA,NA,NA,NA,NA,NA,NA,NA
e32f1,Deep Question,html.Page,3_0_2_0_0_0_0,NA,NA,form submission,4009.8349999525,2188549,2188533.569,2188558.465,2192568.3,2192568.5,2023-05-12T12:13:41Z,2192576.844,NULL,Schlange,foleni,d,NA,NA,NA,foleni,NA,NA,2,NA,NA,NA,NA,NA,NA,NA,NA,NA,NA,NA,NA,NA,NA,NA,NA,NA,NA,NA
e32f1,"""Richtig""-Screen",canvas.Screen,3_0_2_0_0_0_1,NA,NA,timeout,4992.3079999997,2192570.4,2192564.262,2192576.844,2197552.809,2197553.9,2023-05-12T12:13:46Z,2197569.152,NULL,Schlange,foleni,d,NA,NA,NA,NA,sdf,1,2,NA,NA,NA,NA,NA,NA,NA,NA,NA,NA,NA,NA,NA,NA,NA,NA,NA,NA,NA
e32f1,"""Falsch""-Screen",canvas.Screen,3_0_2_0_0_0_2,NA,NA,skipped,NA,2197559.6999999,NA,NA,2197552.809,2197560,2023-05-12T12:13:46Z,2197569.152,NULL,Schlange,foleni,d,NA,NA,NA,NA,sdf,NA,2,NA,NA,NA,NA,NA,NA,NA,NA,NA,NA,NA,NA,NA,NA,NA,NA,NA,NA,NA
e32f1,deep,flow.Sequence,3_0_2_0_0_0,NA,NA,completion,8994.344,2188549,2188533.569,2188558.465,2197552.809,2197560.1999999,2023-05-12T12:13:46Z,2197569.152,NULL,Schlange,foleni,d,NA,NA,NA,NA,sdf,NA,2,NA,NA,NA,NA,NA,NA,NA,NA,NA,NA,NA,NA,NA,NA,NA,NA,NA,NA,NA
e32f1,shallow,flow.Sequence,3_0_2_0_0_1,NA,NA,skipped,NA,2197560.3,NA,NA,2197552.809,2197560.5,2023-05-12T12:13:46Z,2197569.152,NULL,Schlange,foleni,d,NA,NA,NA,NA,sdf,NA,2,NA,NA,NA,NA,NA,NA,NA,NA,NA,NA,NA,NA,NA,NA,NA,NA,NA,NA,NA
e32f1,task,flow.Sequence,3_0_2_0_0,NA,NA,completion,8994.344,2188549,2188533.569,2188558.465,2197552.809,2197560.5999999,2023-05-12T12:13:46Z,2197569.152,NULL,Schlange,foleni,d,NA,NA,NA,NA,sdf,NA,2,NA,NA,NA,NA,NA,NA,NA,NA,NA,NA,NA,NA,NA,NA,NA,NA,NA,NA,NA
e32f1,Deep Question,html.Page,3_0_2_0_1_0_0,NA,NA,form submission,4491.6479999525,2197560.6999999,2197552.809,2197569.152,2202060.8,2202061.0999999,2023-05-12T12:13:50Z,2202085.338,NULL,Toleranz,kuvumiliana,d,NA,NA,NA,NA,NA,NA,2,NA,NA,NA,NA,NA,NA,NA,NA,NA,NA,NA,NA,NA,NA,NA,NA,NA,NA,NA
e32f1,"""Richtig""-Screen",canvas.Screen,3_0_2_0_1_0_1,NA,NA,skipped,NA,2202062.8,NA,NA,2202060.8,2202062.9,2023-05-12T12:13:50Z,2202085.338,NULL,Toleranz,kuvumiliana,d,NA,NA,NA,NA,sdf,NA,2,NA,NA,NA,NA,NA,NA,NA,NA,NA,NA,NA,NA,NA,NA,NA,NA,NA,NA,NA
e32f1,"""Falsch""-Screen",canvas.Screen,3_0_2_0_1_0_2,NA,NA,timeout,5005.969,2202063.4,2202068.842,2202085.338,2207074.923,2207076.1999999,2023-05-12T12:13:55Z,2207091.307,NULL,Toleranz,kuvumiliana,d,NA,NA,NA,NA,sdf,0,2,NA,NA,NA,NA,NA,NA,NA,NA,NA,NA,NA,NA,NA,NA,NA,NA,NA,NA,NA
e32f1,deep,flow.Sequence,3_0_2_0_1_0,NA,NA,completion,9505.7710000002,2197560.6999999,2197552.809,2197569.152,2207074.923,2207077.4,2023-05-12T12:13:55Z,2207091.307,NULL,Toleranz,kuvumiliana,d,NA,NA,NA,NA,sdf,NA,2,NA,NA,NA,NA,NA,NA,NA,NA,NA,NA,NA,NA,NA,NA,NA,NA,NA,NA,NA
e32f1,shallow,flow.Sequence,3_0_2_0_1_1,NA,NA,skipped,NA,2207077.5999999,NA,NA,2207074.923,2207077.6999999,2023-05-12T12:13:55Z,2207091.307,NULL,Toleranz,kuvumiliana,d,NA,NA,NA,NA,sdf,NA,2,NA,NA,NA,NA,NA,NA,NA,NA,NA,NA,NA,NA,NA,NA,NA,NA,NA,NA,NA
e32f1,task,flow.Sequence,3_0_2_0_1,NA,NA,completion,9505.7710000002,2197560.5999999,2197552.809,2197569.152,2207074.923,2207077.9,2023-05-12T12:13:55Z,2207091.307,NULL,Toleranz,kuvumiliana,d,NA,NA,NA,NA,sdf,NA,2,NA,NA,NA,NA,NA,NA,NA,NA,NA,NA,NA,NA,NA,NA,NA,NA,NA,NA,NA
e32f1,deep,flow.Sequence,3_0_2_0_2_0,NA,NA,skipped,NA,2207078,NA,NA,2207074.923,2207078.1999999,2023-05-12T12:13:55Z,2207091.307,NULL,Vermutung,udhanifu,s,haramia,tikisho,itifaki,NA,sdf,NA,2,NA,NA,NA,NA,NA,NA,NA,NA,NA,NA,NA,NA,NA,NA,NA,NA,NA,NA,NA
e32f1,Shallow Question,html.Page,3_0_2_0_2_1_0,NA,NA,form submission,5398.0929999761,2207078.1999999,2207074.923,2207091.307,2212489.4,2212489.5999999,2023-05-12T12:14:01Z,2212497.586,NULL,Vermutung,udhanifu,s,haramia,tikisho,itifaki,udhanifu,NA,NA,2,NA,NA,NA,NA,NA,NA,NA,NA,NA,NA,NA,NA,NA,NA,NA,NA,NA,NA,NA
e32f1,"""Richtig""-Screen",canvas.Screen,3_0_2_0_2_1_1,NA,NA,timeout,4994.8289999999,2212491.4,2212472.358,2212497.586,2217476.1,2217477.3,2023-05-12T12:14:06Z,2217492.415,NULL,Vermutung,udhanifu,s,haramia,tikisho,itifaki,NA,sdf,1,2,NA,NA,NA,NA,NA,NA,NA,NA,NA,NA,NA,NA,NA,NA,NA,NA,NA,NA,NA
e32f1,"""Falsch""-Screen",canvas.Screen,3_0_2_0_2_1_2,NA,NA,skipped,NA,2217482.3,NA,NA,2217476.1,2217482.5999999,2023-05-12T12:14:06Z,2217492.415,NULL,Vermutung,udhanifu,s,haramia,tikisho,itifaki,NA,sdf,NA,2,NA,NA,NA,NA,NA,NA,NA,NA,NA,NA,NA,NA,NA,NA,NA,NA,NA,NA,NA
e32f1,shallow,flow.Sequence,3_0_2_0_2_1,NA,NA,completion,10384.793,2207078.1999999,2207074.923,2207091.307,2217476.1,2217483,2023-05-12T12:14:06Z,2217492.415,NULL,Vermutung,udhanifu,s,haramia,tikisho,itifaki,NA,sdf,NA,2,NA,NA,NA,NA,NA,NA,NA,NA,NA,NA,NA,NA,NA,NA,NA,NA,NA,NA,NA
e32f1,task,flow.Sequence,3_0_2_0_2,NA,NA,completion,10384.793,2207078,2207074.923,2207091.307,2217476.1,2217483.0999999,2023-05-12T12:14:06Z,2217492.415,NULL,Vermutung,udhanifu,s,haramia,tikisho,itifaki,NA,sdf,NA,2,NA,NA,NA,NA,NA,NA,NA,NA,NA,NA,NA,NA,NA,NA,NA,NA,NA,NA,NA
e32f1,deep,flow.Sequence,3_0_2_0_3_0,NA,NA,skipped,NA,2217483.3,NA,NA,2217476.1,2217483.4,2023-05-12T12:14:06Z,2217492.415,NULL,Inhalt,yaliyomo,s,kishawishi,hifadhi,kutembea,NA,sdf,NA,2,NA,NA,NA,NA,NA,NA,NA,NA,NA,NA,NA,NA,NA,NA,NA,NA,NA,NA,NA
e32f1,Shallow Question,html.Page,3_0_2_0_3_1_0,NA,NA,form submission,4669.8849999523,2217483.5999999,2217476.1,2217492.415,2222162.3,2222162.5,2023-05-12T12:14:10Z,2222170.217,NULL,Inhalt,yaliyomo,s,kishawishi,hifadhi,kutembea,yaliyomo,NA,NA,2,NA,NA,NA,NA,NA,NA,NA,NA,NA,NA,NA,NA,NA,NA,NA,NA,NA,NA,NA
e32f1,"""Richtig""-Screen",canvas.Screen,3_0_2_0_3_1_1,NA,NA,timeout,4993.4249999998,2222164.1999999,2222158.512,2222170.217,2227147.286,2227148.3,2023-05-12T12:14:15Z,2227163.642,NULL,Inhalt,yaliyomo,s,kishawishi,hifadhi,kutembea,NA,sdf,1,2,NA,NA,NA,NA,NA,NA,NA,NA,NA,NA,NA,NA,NA,NA,NA,NA,NA,NA,NA
e32f1,"""Falsch""-Screen",canvas.Screen,3_0_2_0_3_1_2,NA,NA,skipped,NA,2227153.1999999,NA,NA,2227147.286,2227153.5,2023-05-12T12:14:15Z,2227163.642,NULL,Inhalt,yaliyomo,s,kishawishi,hifadhi,kutembea,NA,sdf,NA,2,NA,NA,NA,NA,NA,NA,NA,NA,NA,NA,NA,NA,NA,NA,NA,NA,NA,NA,NA
e32f1,shallow,flow.Sequence,3_0_2_0_3_1,NA,NA,completion,9654.8709999998,2217483.5,2217476.1,2217492.415,2227147.286,2227153.9,2023-05-12T12:14:15Z,2227163.642,NULL,Inhalt,yaliyomo,s,kishawishi,hifadhi,kutembea,NA,sdf,NA,2,NA,NA,NA,NA,NA,NA,NA,NA,NA,NA,NA,NA,NA,NA,NA,NA,NA,NA,NA
e32f1,task,flow.Sequence,3_0_2_0_3,NA,NA,completion,9654.8709999998,2217483.3,2217476.1,2217492.415,2227147.286,2227154,2023-05-12T12:14:15Z,2227163.642,NULL,Inhalt,yaliyomo,s,kishawishi,hifadhi,kutembea,NA,sdf,NA,2,NA,NA,NA,NA,NA,NA,NA,NA,NA,NA,NA,NA,NA,NA,NA,NA,NA,NA,NA
e32f1,deep,flow.Sequence,3_0_2_0_4_0,NA,NA,skipped,NA,2227154.0999999,NA,NA,2227147.286,2227154.1999999,2023-05-12T12:14:15Z,2227163.642,NULL,Integrität,uadilifu,s,muungano,mtiririko,upunguaji,NA,sdf,NA,2,NA,NA,NA,NA,NA,NA,NA,NA,NA,NA,NA,NA,NA,NA,NA,NA,NA,NA,NA
e32f1,Shallow Question,html.Page,3_0_2_0_4_1_0,NA,NA,form submission,7663.5579999285,2227154.4,2227147.286,2227163.642,2234827.1999999,2234827.4,2023-05-12T12:14:23Z,2234835.442,NULL,Integrität,uadilifu,s,muungano,mtiririko,upunguaji,upunguaji,NA,NA,2,NA,NA,NA,NA,NA,NA,NA,NA,NA,NA,NA,NA,NA,NA,NA,NA,NA,NA,NA
e32f1,"""Richtig""-Screen",canvas.Screen,3_0_2_0_4_1_1,NA,NA,skipped,NA,2234829.0999999,NA,NA,2234827.1999999,2234829.1999999,2023-05-12T12:14:23Z,2234835.442,NULL,Integrität,uadilifu,s,muungano,mtiririko,upunguaji,NA,sdf,NA,2,NA,NA,NA,NA,NA,NA,NA,NA,NA,NA,NA,NA,NA,NA,NA,NA,NA,NA,NA
e32f1,"""Falsch""-Screen",canvas.Screen,3_0_2_0_4_1_2,NA,NA,timeout,5004.3860000004,2234829.5999999,2234810.98,2234835.442,2239823.066,2239824,2023-05-12T12:14:28Z,2239839.828,NULL,Integrität,uadilifu,s,muungano,mtiririko,upunguaji,NA,sdf,0,2,NA,NA,NA,NA,NA,NA,NA,NA,NA,NA,NA,NA,NA,NA,NA,NA,NA,NA,NA
e32f1,shallow,flow.Sequence,3_0_2_0_4_1,NA,NA,completion,12659.424,2227154.3,2227147.286,2227163.642,2239823.066,2239824.4,2023-05-12T12:14:28Z,2239839.828,NULL,Integrität,uadilifu,s,muungano,mtiririko,upunguaji,NA,sdf,NA,2,NA,NA,NA,NA,NA,NA,NA,NA,NA,NA,NA,NA,NA,NA,NA,NA,NA,NA,NA
e32f1,task,flow.Sequence,3_0_2_0_4,NA,NA,completion,12659.424,2227154.0999999,2227147.286,2227163.642,2239823.066,2239824.5999999,2023-05-12T12:14:28Z,2239839.828,NULL,Integrität,uadilifu,s,muungano,mtiririko,upunguaji,NA,sdf,NA,2,NA,NA,NA,NA,NA,NA,NA,NA,NA,NA,NA,NA,NA,NA,NA,NA,NA,NA,NA
e32f1,deep,flow.Sequence,3_0_2_0_5_0,NA,NA,skipped,NA,2239824.8,NA,NA,2239823.066,2239824.9,2023-05-12T12:14:28Z,2239839.828,NULL,Fleisch,mshakiki,s,kizunguzungu,mshikamano,angusho,NA,sdf,NA,2,NA,NA,NA,NA,NA,NA,NA,NA,NA,NA,NA,NA,NA,NA,NA,NA,NA,NA,NA
e32f1,Shallow Question,html.Page,3_0_2_0_5_1_0,NA,NA,form submission,4479.4719999521,2239825,2239823.066,2239839.828,2244319.3,2244319.5,2023-05-12T12:14:32Z,2244332.242,NULL,Fleisch,mshakiki,s,kizunguzungu,mshikamano,angusho,mshakiki,NA,NA,2,NA,NA,NA,NA,NA,NA,NA,NA,NA,NA,NA,NA,NA,NA,NA,NA,NA,NA,NA
e32f1,"""Richtig""-Screen",canvas.Screen,3_0_2_0_5_1_1,NA,NA,timeout,4995.3819999998,2244321.1999999,2244302.492,2244332.242,2249311.184,2249312.0999999,2023-05-12T12:14:37Z,2249327.624,NULL,Fleisch,mshakiki,s,kizunguzungu,mshikamano,angusho,NA,sdf,1,2,NA,NA,NA,NA,NA,NA,NA,NA,NA,NA,NA,NA,NA,NA,NA,NA,NA,NA,NA
e32f1,"""Falsch""-Screen",canvas.Screen,3_0_2_0_5_1_2,NA,NA,skipped,NA,2249316.9,NA,NA,2249311.184,2249317.1999999,2023-05-12T12:14:37Z,2249327.624,NULL,Fleisch,mshakiki,s,kizunguzungu,mshikamano,angusho,NA,sdf,NA,2,NA,NA,NA,NA,NA,NA,NA,NA,NA,NA,NA,NA,NA,NA,NA,NA,NA,NA,NA
e32f1,shallow,flow.Sequence,3_0_2_0_5_1,NA,NA,completion,9471.3559999997,2239825,2239823.066,2239839.828,2249311.184,2249317.5,2023-05-12T12:14:37Z,2249327.624,NULL,Fleisch,mshakiki,s,kizunguzungu,mshikamano,angusho,NA,sdf,NA,2,NA,NA,NA,NA,NA,NA,NA,NA,NA,NA,NA,NA,NA,NA,NA,NA,NA,NA,NA
e32f1,task,flow.Sequence,3_0_2_0_5,NA,NA,completion,9471.3559999997,2239824.6999999,2239823.066,2239839.828,2249311.184,2249317.5999999,2023-05-12T12:14:37Z,2249327.624,NULL,Fleisch,mshakiki,s,kizunguzungu,mshikamano,angusho,NA,sdf,NA,2,NA,NA,NA,NA,NA,NA,NA,NA,NA,NA,NA,NA,NA,NA,NA,NA,NA,NA,NA
e32f1,Deep Question,html.Page,3_0_2_0_6_0_0,NA,NA,form submission,4118.7759999763,2249317.8,2249311.184,2249327.624,2253446.4,2253446.5999999,2023-05-12T12:14:42Z,2253455.028,NULL,Begegnung,kukutana,d,NA,NA,NA,NA,NA,NA,2,NA,NA,NA,NA,NA,NA,NA,NA,NA,NA,NA,NA,NA,NA,NA,NA,NA,NA,NA
e32f1,"""Richtig""-Screen",canvas.Screen,3_0_2_0_6_0_1,NA,NA,skipped,NA,2253448.4,NA,NA,2253446.4,2253448.5999999,2023-05-12T12:14:42Z,2253455.028,NULL,Begegnung,kukutana,d,NA,NA,NA,NA,sdf,NA,2,NA,NA,NA,NA,NA,NA,NA,NA,NA,NA,NA,NA,NA,NA,NA,NA,NA,NA,NA
e32f1,"""Falsch""-Screen",canvas.Screen,3_0_2_0_6_0_2,NA,NA,timeout,4991.7859999998,2253449.0999999,2253441.227,2253455.028,2258430.103,2258431.0999999,2023-05-12T12:14:47Z,2258446.814,NULL,Begegnung,kukutana,d,NA,NA,NA,NA,sdf,0,2,NA,NA,NA,NA,NA,NA,NA,NA,NA,NA,NA,NA,NA,NA,NA,NA,NA,NA,NA
e32f1,deep,flow.Sequence,3_0_2_0_6_0,NA,NA,completion,9102.4790000003,2249317.6999999,2249311.184,2249327.624,2258430.103,2258431.5,2023-05-12T12:14:47Z,2258446.814,NULL,Begegnung,kukutana,d,NA,NA,NA,NA,sdf,NA,2,NA,NA,NA,NA,NA,NA,NA,NA,NA,NA,NA,NA,NA,NA,NA,NA,NA,NA,NA
e32f1,shallow,flow.Sequence,3_0_2_0_6_1,NA,NA,skipped,NA,2258431.5999999,NA,NA,2258430.103,2258431.8,2023-05-12T12:14:47Z,2258446.814,NULL,Begegnung,kukutana,d,NA,NA,NA,NA,sdf,NA,2,NA,NA,NA,NA,NA,NA,NA,NA,NA,NA,NA,NA,NA,NA,NA,NA,NA,NA,NA
e32f1,task,flow.Sequence,3_0_2_0_6,NA,NA,completion,9102.4790000003,2249317.6999999,2249311.184,2249327.624,2258430.103,2258431.9,2023-05-12T12:14:47Z,2258446.814,NULL,Begegnung,kukutana,d,NA,NA,NA,NA,sdf,NA,2,NA,NA,NA,NA,NA,NA,NA,NA,NA,NA,NA,NA,NA,NA,NA,NA,NA,NA,NA
e32f1,Deep Question,html.Page,3_0_2_0_7_0_0,NA,NA,form submission,2164.3859999287,2258432.1999999,2258430.103,2258446.814,2260611.1999999,2260611.4,2023-05-12T12:14:49Z,2260619.812,NULL,Genehmigung,idhini,d,NA,NA,NA,NA,NA,NA,2,NA,NA,NA,NA,NA,NA,NA,NA,NA,NA,NA,NA,NA,NA,NA,NA,NA,NA,NA
e32f1,"""Richtig""-Screen",canvas.Screen,3_0_2_0_7_0_1,NA,NA,skipped,NA,2260613.1999999,NA,NA,2260611.1999999,2260613.3,2023-05-12T12:14:49Z,2260619.812,NULL,Genehmigung,idhini,d,NA,NA,NA,NA,sdf,NA,2,NA,NA,NA,NA,NA,NA,NA,NA,NA,NA,NA,NA,NA,NA,NA,NA,NA,NA,NA
e32f1,"""Falsch""-Screen",canvas.Screen,3_0_2_0_7_0_2,NA,NA,timeout,5004.0589999999,2260613.8,2260604.001,2260619.812,2265607.639,2265608.8,2023-05-12T12:14:54Z,2265623.871,NULL,Genehmigung,idhini,d,NA,NA,NA,NA,sdf,0,2,NA,NA,NA,NA,NA,NA,NA,NA,NA,NA,NA,NA,NA,NA,NA,NA,NA,NA,NA
e32f1,deep,flow.Sequence,3_0_2_0_7_0,NA,NA,completion,7160.8250000002,2258432.1999999,2258430.103,2258446.814,2265607.639,2265609.1999999,2023-05-12T12:14:54Z,2265623.871,NULL,Genehmigung,idhini,d,NA,NA,NA,NA,sdf,NA,2,NA,NA,NA,NA,NA,NA,NA,NA,NA,NA,NA,NA,NA,NA,NA,NA,NA,NA,NA
e32f1,shallow,flow.Sequence,3_0_2_0_7_1,NA,NA,skipped,NA,2265609.3,NA,NA,2265607.639,2265609.4,2023-05-12T12:14:54Z,2265623.871,NULL,Genehmigung,idhini,d,NA,NA,NA,NA,sdf,NA,2,NA,NA,NA,NA,NA,NA,NA,NA,NA,NA,NA,NA,NA,NA,NA,NA,NA,NA,NA
e32f1,task,flow.Sequence,3_0_2_0_7,NA,NA,completion,7160.8250000002,2258432.0999999,2258430.103,2258446.814,2265607.639,2265609.5999999,2023-05-12T12:14:54Z,2265623.871,NULL,Genehmigung,idhini,d,NA,NA,NA,NA,sdf,NA,2,NA,NA,NA,NA,NA,NA,NA,NA,NA,NA,NA,NA,NA,NA,NA,NA,NA,NA,NA
e32f1,block,flow.Loop,3_0_2_0,NA,NA,completion,77049.174,2188549,2188533.569,2188558.465,2265607.639,2265609.6999999,2023-05-12T12:14:54Z,2265623.871,NULL,NA,NA,NA,NA,NA,NA,NA,sdf,NA,2,NA,NA,NA,NA,NA,NA,NA,NA,NA,NA,NA,NA,NA,NA,NA,NA,NA,NA,NA
e32f1,weiter,canvas.Screen,3_0_2_1,sdf,keypress(Space),response,983.12900000019,2265609.8,2265607.639,2265623.871,2266607,2266611.9,2023-05-12T12:14:55Z,2266678.626,NULL,NA,NA,NA,NA,NA,NA,NA,sdf,NA,2,NA,NA,NA,NA,NA,NA,NA,NA,NA,NA,NA,NA,NA,NA,NA,NA,NA,NA,NA
e32f1,check continue,flow.Sequence,3_0_2,NA,NA,completion,78048.535,2188548.9,2188533.569,2188558.465,2266607,2266612.0999999,2023-05-12T12:14:55Z,2266678.626,NULL,NA,NA,NA,NA,NA,NA,NA,sdf,NA,2,NA,NA,NA,NA,NA,NA,NA,NA,NA,NA,NA,NA,NA,NA,NA,NA,NA,NA,NA
e32f1,Deep Question,html.Page,3_0_3_0_0_0_0,NA,NA,form submission,7383.6739999522,2266669,2266657.37,2266678.626,2274062.3,2274062.5,2023-05-12T12:15:02Z,2274070.81,NULL,Toleranz,kuvumiliana,d,NA,NA,NA,hihi,NA,NA,3,NA,NA,NA,NA,NA,NA,NA,NA,NA,NA,NA,NA,NA,NA,NA,NA,NA,NA,NA
e32f1,"""Richtig""-Screen",canvas.Screen,3_0_3_0_0_0_1,NA,NA,skipped,NA,2274064.4,NA,NA,2274062.3,2274064.5,2023-05-12T12:15:02Z,2274070.81,NULL,Toleranz,kuvumiliana,d,NA,NA,NA,NA,qt,NA,3,NA,NA,NA,NA,NA,NA,NA,NA,NA,NA,NA,NA,NA,NA,NA,NA,NA,NA,NA
e32f1,"""Falsch""-Screen",canvas.Screen,3_0_3_0_0_0_2,NA,NA,timeout,4995.477,2274065,2274049.94,2274070.81,2279048.688,2279050.8,2023-05-12T12:15:07Z,2279066.287,NULL,Toleranz,kuvumiliana,d,NA,NA,NA,NA,qt,0,3,NA,NA,NA,NA,NA,NA,NA,NA,NA,NA,NA,NA,NA,NA,NA,NA,NA,NA,NA
e32f1,deep,flow.Sequence,3_0_3_0_0_0,NA,NA,completion,12370.062,2266668.9,2266657.37,2266678.626,2279048.688,2279051.3,2023-05-12T12:15:07Z,2279066.287,NULL,Toleranz,kuvumiliana,d,NA,NA,NA,NA,qt,NA,3,NA,NA,NA,NA,NA,NA,NA,NA,NA,NA,NA,NA,NA,NA,NA,NA,NA,NA,NA
e32f1,shallow,flow.Sequence,3_0_3_0_0_1,NA,NA,skipped,NA,2279051.4,NA,NA,2279048.688,2279051.5999999,2023-05-12T12:15:07Z,2279066.287,NULL,Toleranz,kuvumiliana,d,NA,NA,NA,NA,qt,NA,3,NA,NA,NA,NA,NA,NA,NA,NA,NA,NA,NA,NA,NA,NA,NA,NA,NA,NA,NA
e32f1,task,flow.Sequence,3_0_3_0_0,NA,NA,completion,12370.062,2266668.3,2266657.37,2266678.626,2279048.688,2279051.8,2023-05-12T12:15:07Z,2279066.287,NULL,Toleranz,kuvumiliana,d,NA,NA,NA,NA,qt,NA,3,NA,NA,NA,NA,NA,NA,NA,NA,NA,NA,NA,NA,NA,NA,NA,NA,NA,NA,NA
e32f1,deep,flow.Sequence,3_0_3_0_1_0,NA,NA,skipped,NA,2279052,NA,NA,2279048.688,2279052.5999999,2023-05-12T12:15:07Z,2279066.287,NULL,Integrität,uadilifu,s,muungano,mtiririko,upunguaji,NA,qt,NA,3,NA,NA,NA,NA,NA,NA,NA,NA,NA,NA,NA,NA,NA,NA,NA,NA,NA,NA,NA
e32f1,Shallow Question,html.Page,3_0_3_0_1_1_0,NA,NA,form submission,6059.713,2279052.9,2279048.688,2279066.287,2285126,2285126.3,2023-05-12T12:15:13Z,2285134.237,NULL,Integrität,uadilifu,s,muungano,mtiririko,upunguaji,upunguaji,NA,NA,3,NA,NA,NA,NA,NA,NA,NA,NA,NA,NA,NA,NA,NA,NA,NA,NA,NA,NA,NA
e32f1,"""Richtig""-Screen",canvas.Screen,3_0_3_0_1_1_1,NA,NA,skipped,NA,2285128.0999999,NA,NA,2285126,2285128.0999999,2023-05-12T12:15:13Z,2285134.237,NULL,Integrität,uadilifu,s,muungano,mtiririko,upunguaji,NA,qt,NA,3,NA,NA,NA,NA,NA,NA,NA,NA,NA,NA,NA,NA,NA,NA,NA,NA,NA,NA,NA
e32f1,"""Falsch""-Screen",canvas.Screen,3_0_3_0_1_1_2,NA,NA,timeout,4992.3559999997,2285128.5999999,2285125.069,2285134.237,2290110.162,2290112.0999999,2023-05-12T12:15:18Z,2290126.593,NULL,Integrität,uadilifu,s,muungano,mtiririko,upunguaji,NA,qt,0,3,NA,NA,NA,NA,NA,NA,NA,NA,NA,NA,NA,NA,NA,NA,NA,NA,NA,NA,NA
e32f1,shallow,flow.Sequence,3_0_3_0_1_1,NA,NA,completion,11043.875,2279052.8,2279048.688,2279066.287,2290110.162,2290112.5999999,2023-05-12T12:15:18Z,2290126.593,NULL,Integrität,uadilifu,s,muungano,mtiririko,upunguaji,NA,qt,NA,3,NA,NA,NA,NA,NA,NA,NA,NA,NA,NA,NA,NA,NA,NA,NA,NA,NA,NA,NA
e32f1,task,flow.Sequence,3_0_3_0_1,NA,NA,completion,11043.875,2279051.9,2279048.688,2279066.287,2290110.162,2290112.8,2023-05-12T12:15:18Z,2290126.593,NULL,Integrität,uadilifu,s,muungano,mtiririko,upunguaji,NA,qt,NA,3,NA,NA,NA,NA,NA,NA,NA,NA,NA,NA,NA,NA,NA,NA,NA,NA,NA,NA,NA
e32f1,Deep Question,html.Page,3_0_3_0_2_0_0,NA,NA,form submission,3642.7069999524,2290113,2290110.162,2290126.593,2293769.3,2293769.5,2023-05-12T12:15:22Z,2293777.622,NULL,Schlange,foleni,d,NA,NA,NA,foleni,NA,NA,3,NA,NA,NA,NA,NA,NA,NA,NA,NA,NA,NA,NA,NA,NA,NA,NA,NA,NA,NA
e32f1,"""Richtig""-Screen",canvas.Screen,3_0_3_0_2_0_1,NA,NA,timeout,5005.9020000002,2293771.3,2293760.541,2293777.622,2298767.174,2298768.5999999,2023-05-12T12:15:27Z,2298783.524,NULL,Schlange,foleni,d,NA,NA,NA,NA,qt,1,3,NA,NA,NA,NA,NA,NA,NA,NA,NA,NA,NA,NA,NA,NA,NA,NA,NA,NA,NA
e32f1,"""Falsch""-Screen",canvas.Screen,3_0_3_0_2_0_2,NA,NA,skipped,NA,2298773.4,NA,NA,2298767.174,2298773.6999999,2023-05-12T12:15:27Z,2298783.524,NULL,Schlange,foleni,d,NA,NA,NA,NA,qt,NA,3,NA,NA,NA,NA,NA,NA,NA,NA,NA,NA,NA,NA,NA,NA,NA,NA,NA,NA,NA
e32f1,deep,flow.Sequence,3_0_3_0_2_0,NA,NA,completion,8640.5810000002,2290112.9,2290110.162,2290126.593,2298767.174,2298774.5,2023-05-12T12:15:27Z,2298783.524,NULL,Schlange,foleni,d,NA,NA,NA,NA,qt,NA,3,NA,NA,NA,NA,NA,NA,NA,NA,NA,NA,NA,NA,NA,NA,NA,NA,NA,NA,NA
e32f1,shallow,flow.Sequence,3_0_3_0_2_1,NA,NA,skipped,NA,2298774.6999999,NA,NA,2298767.174,2298774.6999999,2023-05-12T12:15:27Z,2298783.524,NULL,Schlange,foleni,d,NA,NA,NA,NA,qt,NA,3,NA,NA,NA,NA,NA,NA,NA,NA,NA,NA,NA,NA,NA,NA,NA,NA,NA,NA,NA
e32f1,task,flow.Sequence,3_0_3_0_2,NA,NA,completion,8640.5810000002,2290112.8,2290110.162,2290126.593,2298767.174,2298774.9,2023-05-12T12:15:27Z,2298783.524,NULL,Schlange,foleni,d,NA,NA,NA,NA,qt,NA,3,NA,NA,NA,NA,NA,NA,NA,NA,NA,NA,NA,NA,NA,NA,NA,NA,NA,NA,NA
e32f1,deep,flow.Sequence,3_0_3_0_3_0,NA,NA,skipped,NA,2298775,NA,NA,2298767.174,2298775.0999999,2023-05-12T12:15:27Z,2298783.524,NULL,Vermutung,udhanifu,s,haramia,tikisho,itifaki,NA,qt,NA,3,NA,NA,NA,NA,NA,NA,NA,NA,NA,NA,NA,NA,NA,NA,NA,NA,NA,NA,NA
e32f1,Shallow Question,html.Page,3_0_3_0_3_1_0,NA,NA,form submission,6193.1759999283,2298775.1999999,2298767.174,2298783.524,2304976.6999999,2304976.9,2023-05-12T12:15:33Z,2304984.728,NULL,Vermutung,udhanifu,s,haramia,tikisho,itifaki,itifaki,NA,NA,3,NA,NA,NA,NA,NA,NA,NA,NA,NA,NA,NA,NA,NA,NA,NA,NA,NA,NA,NA
e32f1,"""Richtig""-Screen",canvas.Screen,3_0_3_0_3_1_1,NA,NA,skipped,NA,2304978.4,NA,NA,2304976.6999999,2304978.5999999,2023-05-12T12:15:33Z,2304984.728,NULL,Vermutung,udhanifu,s,haramia,tikisho,itifaki,NA,qt,NA,3,NA,NA,NA,NA,NA,NA,NA,NA,NA,NA,NA,NA,NA,NA,NA,NA,NA,NA,NA
e32f1,"""Falsch""-Screen",canvas.Screen,3_0_3_0_3_1_2,NA,NA,timeout,5002.537,2304979,2304975.445,2304984.728,2309970.583,2309971.6999999,2023-05-12T12:15:38Z,2309987.265,NULL,Vermutung,udhanifu,s,haramia,tikisho,itifaki,NA,qt,0,3,NA,NA,NA,NA,NA,NA,NA,NA,NA,NA,NA,NA,NA,NA,NA,NA,NA,NA,NA
e32f1,shallow,flow.Sequence,3_0_3_0_3_1,NA,NA,completion,11187.059,2298775.1999999,2298767.174,2298783.524,2309970.583,2309972.0999999,2023-05-12T12:15:38Z,2309987.265,NULL,Vermutung,udhanifu,s,haramia,tikisho,itifaki,NA,qt,NA,3,NA,NA,NA,NA,NA,NA,NA,NA,NA,NA,NA,NA,NA,NA,NA,NA,NA,NA,NA
e32f1,task,flow.Sequence,3_0_3_0_3,NA,NA,completion,11187.059,2298775,2298767.174,2298783.524,2309970.583,2309972.1999999,2023-05-12T12:15:38Z,2309987.265,NULL,Vermutung,udhanifu,s,haramia,tikisho,itifaki,NA,qt,NA,3,NA,NA,NA,NA,NA,NA,NA,NA,NA,NA,NA,NA,NA,NA,NA,NA,NA,NA,NA
e32f1,deep,flow.Sequence,3_0_3_0_4_0,NA,NA,skipped,NA,2309972.3,NA,NA,2309970.583,2309972.5,2023-05-12T12:15:38Z,2309987.265,NULL,Fleisch,mshakiki,s,kizunguzungu,mshikamano,angusho,NA,qt,NA,3,NA,NA,NA,NA,NA,NA,NA,NA,NA,NA,NA,NA,NA,NA,NA,NA,NA,NA,NA
e32f1,Shallow Question,html.Page,3_0_3_0_4_1_0,NA,NA,form submission,2857.4349999283,2309972.5999999,2309970.583,2309987.265,2312844.6999999,2312845,2023-05-12T12:15:41Z,2312852.9,NULL,Fleisch,mshakiki,s,kizunguzungu,mshikamano,angusho,mshakiki,NA,NA,3,NA,NA,NA,NA,NA,NA,NA,NA,NA,NA,NA,NA,NA,NA,NA,NA,NA,NA,NA
e32f1,"""Richtig""-Screen",canvas.Screen,3_0_3_0_4_1_1,NA,NA,timeout,4992.5490000001,2312846.6999999,2312838.223,2312852.9,2317828.918,2317829.9,2023-05-12T12:15:46Z,2317845.449,NULL,Fleisch,mshakiki,s,kizunguzungu,mshikamano,angusho,NA,qt,1,3,NA,NA,NA,NA,NA,NA,NA,NA,NA,NA,NA,NA,NA,NA,NA,NA,NA,NA,NA
e32f1,"""Falsch""-Screen",canvas.Screen,3_0_3_0_4_1_2,NA,NA,skipped,NA,2317834.5,NA,NA,2317828.918,2317835,2023-05-12T12:15:46Z,2317845.449,NULL,Fleisch,mshakiki,s,kizunguzungu,mshikamano,angusho,NA,qt,NA,3,NA,NA,NA,NA,NA,NA,NA,NA,NA,NA,NA,NA,NA,NA,NA,NA,NA,NA,NA
e32f1,shallow,flow.Sequence,3_0_3_0_4_1,NA,NA,completion,7841.6529999999,2309972.5,2309970.583,2309987.265,2317828.918,2317835.3,2023-05-12T12:15:46Z,2317845.449,NULL,Fleisch,mshakiki,s,kizunguzungu,mshikamano,angusho,NA,qt,NA,3,NA,NA,NA,NA,NA,NA,NA,NA,NA,NA,NA,NA,NA,NA,NA,NA,NA,NA,NA
e32f1,task,flow.Sequence,3_0_3_0_4,NA,NA,completion,7841.6529999999,2309972.3,2309970.583,2309987.265,2317828.918,2317835.4,2023-05-12T12:15:46Z,2317845.449,NULL,Fleisch,mshakiki,s,kizunguzungu,mshikamano,angusho,NA,qt,NA,3,NA,NA,NA,NA,NA,NA,NA,NA,NA,NA,NA,NA,NA,NA,NA,NA,NA,NA,NA
e32f1,Deep Question,html.Page,3_0_3_0_5_0_0,NA,NA,form submission,7807.551,2317835.5999999,2317828.918,2317845.449,2325653,2325653.3,2023-05-12T12:15:54Z,2325661.618,NULL,Genehmigung,idhini,d,NA,NA,NA,uhani,NA,NA,3,NA,NA,NA,NA,NA,NA,NA,NA,NA,NA,NA,NA,NA,NA,NA,NA,NA,NA,NA
e32f1,"""Richtig""-Screen",canvas.Screen,3_0_3_0_5_0_1,NA,NA,skipped,NA,2325655.0999999,NA,NA,2325653,2325655.1999999,2023-05-12T12:15:54Z,2325661.618,NULL,Genehmigung,idhini,d,NA,NA,NA,NA,qt,NA,3,NA,NA,NA,NA,NA,NA,NA,NA,NA,NA,NA,NA,NA,NA,NA,NA,NA,NA,NA
e32f1,"""Falsch""-Screen",canvas.Screen,3_0_3_0_5_0_2,NA,NA,timeout,4992.6020000004,2325655.5999999,2325636.389,2325661.618,2330637.37,2330639.4,2023-05-12T12:15:59Z,2330654.22,NULL,Genehmigung,idhini,d,NA,NA,NA,NA,qt,0,3,NA,NA,NA,NA,NA,NA,NA,NA,NA,NA,NA,NA,NA,NA,NA,NA,NA,NA,NA
e32f1,deep,flow.Sequence,3_0_3_0_5_0,NA,NA,completion,12791.921,2317835.5999999,2317828.918,2317845.449,2330637.37,2330639.9,2023-05-12T12:15:59Z,2330654.22,NULL,Genehmigung,idhini,d,NA,NA,NA,NA,qt,NA,3,NA,NA,NA,NA,NA,NA,NA,NA,NA,NA,NA,NA,NA,NA,NA,NA,NA,NA,NA
e32f1,shallow,flow.Sequence,3_0_3_0_5_1,NA,NA,skipped,NA,2330640,NA,NA,2330637.37,2330640.1999999,2023-05-12T12:15:59Z,2330654.22,NULL,Genehmigung,idhini,d,NA,NA,NA,NA,qt,NA,3,NA,NA,NA,NA,NA,NA,NA,NA,NA,NA,NA,NA,NA,NA,NA,NA,NA,NA,NA
e32f1,task,flow.Sequence,3_0_3_0_5,NA,NA,completion,12791.921,2317835.5,2317828.918,2317845.449,2330637.37,2330640.3,2023-05-12T12:15:59Z,2330654.22,NULL,Genehmigung,idhini,d,NA,NA,NA,NA,qt,NA,3,NA,NA,NA,NA,NA,NA,NA,NA,NA,NA,NA,NA,NA,NA,NA,NA,NA,NA,NA
e32f1,Deep Question,html.Page,3_0_3_0_6_0_0,NA,NA,form submission,12100.28,2330640.5,2330637.37,2330654.22,2342754.5,2342754.5999999,2023-05-12T12:16:11Z,2342763.054,NULL,Begegnung,kukutana,d,NA,NA,NA,katna,NA,NA,3,NA,NA,NA,NA,NA,NA,NA,NA,NA,NA,NA,NA,NA,NA,NA,NA,NA,NA,NA
e32f1,"""Richtig""-Screen",canvas.Screen,3_0_3_0_6_0_1,NA,NA,skipped,NA,2342756.5,NA,NA,2342754.5,2342756.5999999,2023-05-12T12:16:11Z,2342763.054,NULL,Begegnung,kukutana,d,NA,NA,NA,NA,qt,NA,3,NA,NA,NA,NA,NA,NA,NA,NA,NA,NA,NA,NA,NA,NA,NA,NA,NA,NA,NA
e32f1,"""Falsch""-Screen",canvas.Screen,3_0_3_0_6_0_2,NA,NA,timeout,5008.3489999999,2342757,2342738.372,2342763.054,2347753.959,2347756.4,2023-05-12T12:16:16Z,2347771.403,NULL,Begegnung,kukutana,d,NA,NA,NA,NA,qt,0,3,NA,NA,NA,NA,NA,NA,NA,NA,NA,NA,NA,NA,NA,NA,NA,NA,NA,NA,NA
e32f1,deep,flow.Sequence,3_0_3_0_6_0,NA,NA,completion,17099.739,2330640.5,2330637.37,2330654.22,2347753.959,2347757.3,2023-05-12T12:16:16Z,2347771.403,NULL,Begegnung,kukutana,d,NA,NA,NA,NA,qt,NA,3,NA,NA,NA,NA,NA,NA,NA,NA,NA,NA,NA,NA,NA,NA,NA,NA,NA,NA,NA
e32f1,shallow,flow.Sequence,3_0_3_0_6_1,NA,NA,skipped,NA,2347757.6999999,NA,NA,2347753.959,2347758.0999999,2023-05-12T12:16:16Z,2347771.403,NULL,Begegnung,kukutana,d,NA,NA,NA,NA,qt,NA,3,NA,NA,NA,NA,NA,NA,NA,NA,NA,NA,NA,NA,NA,NA,NA,NA,NA,NA,NA
e32f1,task,flow.Sequence,3_0_3_0_6,NA,NA,completion,17099.739,2330640.5,2330637.37,2330654.22,2347753.959,2347758.3,2023-05-12T12:16:16Z,2347771.403,NULL,Begegnung,kukutana,d,NA,NA,NA,NA,qt,NA,3,NA,NA,NA,NA,NA,NA,NA,NA,NA,NA,NA,NA,NA,NA,NA,NA,NA,NA,NA
e32f1,deep,flow.Sequence,3_0_3_0_7_0,NA,NA,skipped,NA,2347758.5,NA,NA,2347753.959,2347758.5999999,2023-05-12T12:16:16Z,2347771.403,NULL,Inhalt,yaliyomo,s,kishawishi,hifadhi,kutembea,NA,qt,NA,3,NA,NA,NA,NA,NA,NA,NA,NA,NA,NA,NA,NA,NA,NA,NA,NA,NA,NA,NA
e32f1,Shallow Question,html.Page,3_0_3_0_7_1_0,NA,NA,form submission,3335.7969999285,2347758.8,2347753.959,2347771.403,2351107.1999999,2351107.5,2023-05-12T12:16:19Z,2351115.62,NULL,Inhalt,yaliyomo,s,kishawishi,hifadhi,kutembea,yaliyomo,NA,NA,3,NA,NA,NA,NA,NA,NA,NA,NA,NA,NA,NA,NA,NA,NA,NA,NA,NA,NA,NA
e32f1,"""Richtig""-Screen",canvas.Screen,3_0_3_0_7_1_1,NA,NA,timeout,4995.355,2351109.1999999,2351105.222,2351115.62,2356094.644,2356095.5,2023-05-12T12:16:24Z,2356110.975,NULL,Inhalt,yaliyomo,s,kishawishi,hifadhi,kutembea,NA,qt,1,3,NA,NA,NA,NA,NA,NA,NA,NA,NA,NA,NA,NA,NA,NA,NA,NA,NA,NA,NA
e32f1,"""Falsch""-Screen",canvas.Screen,3_0_3_0_7_1_2,NA,NA,skipped,NA,2356100.3,NA,NA,2356094.644,2356100.6999999,2023-05-12T12:16:24Z,2356110.975,NULL,Inhalt,yaliyomo,s,kishawishi,hifadhi,kutembea,NA,qt,NA,3,NA,NA,NA,NA,NA,NA,NA,NA,NA,NA,NA,NA,NA,NA,NA,NA,NA,NA,NA
e32f1,shallow,flow.Sequence,3_0_3_0_7_1,NA,NA,completion,8323.2409999999,2347758.8,2347753.959,2347771.403,2356094.644,2356101,2023-05-12T12:16:24Z,2356110.975,NULL,Inhalt,yaliyomo,s,kishawishi,hifadhi,kutembea,NA,qt,NA,3,NA,NA,NA,NA,NA,NA,NA,NA,NA,NA,NA,NA,NA,NA,NA,NA,NA,NA,NA
e32f1,task,flow.Sequence,3_0_3_0_7,NA,NA,completion,8323.2409999999,2347758.4,2347753.959,2347771.403,2356094.644,2356101.1999999,2023-05-12T12:16:24Z,2356110.975,NULL,Inhalt,yaliyomo,s,kishawishi,hifadhi,kutembea,NA,qt,NA,3,NA,NA,NA,NA,NA,NA,NA,NA,NA,NA,NA,NA,NA,NA,NA,NA,NA,NA,NA
e32f1,block,flow.Loop,3_0_3_0,NA,NA,completion,89416.018,2266668.3,2266657.37,2266678.626,2356094.644,2356101.3,2023-05-12T12:16:24Z,2356110.975,NULL,NA,NA,NA,NA,NA,NA,NA,qt,NA,3,NA,NA,NA,NA,NA,NA,NA,NA,NA,NA,NA,NA,NA,NA,NA,NA,NA,NA,NA
e32f1,weiter,canvas.Screen,3_0_3_1,sdf,keypress(Space),response,1523.3249999522,2356101.4,2356094.644,2356110.975,2357634.3,2357635.4,2023-05-12T12:16:26Z,2357676.517,NULL,NA,NA,NA,NA,NA,NA,NA,qt,NA,3,NA,NA,NA,NA,NA,NA,NA,NA,NA,NA,NA,NA,NA,NA,NA,NA,NA,NA,NA
e32f1,check continue,flow.Sequence,3_0_3,NA,NA,completion,90955.673999952,2266668.1999999,2266657.37,2266678.626,2357634.3,2357635.5999999,2023-05-12T12:16:26Z,2357676.517,NULL,NA,NA,NA,NA,NA,NA,NA,qt,NA,3,NA,NA,NA,NA,NA,NA,NA,NA,NA,NA,NA,NA,NA,NA,NA,NA,NA,NA,NA
e32f1,Deep Question,html.Page,3_0_4_0_0_0_0,NA,NA,form submission,3526.1829999285,2357667.1999999,2357660.651,2357676.517,2361202.6999999,2361202.9,2023-05-12T12:16:29Z,2361211.356,NULL,Schlange,foleni,d,NA,NA,NA,foleni,NA,NA,4,NA,NA,NA,NA,NA,NA,NA,NA,NA,NA,NA,NA,NA,NA,NA,NA,NA,NA,NA
e32f1,"""Richtig""-Screen",canvas.Screen,3_0_4_0_0_0_1,NA,NA,timeout,5001,2361204.5999999,2361186.558,2361211.356,2366194.725,2366195.6999999,2023-05-12T12:16:34Z,2366212.356,NULL,Schlange,foleni,d,NA,NA,NA,NA,sd,1,4,NA,NA,NA,NA,NA,NA,NA,NA,NA,NA,NA,NA,NA,NA,NA,NA,NA,NA,NA
e32f1,"""Falsch""-Screen",canvas.Screen,3_0_4_0_0_0_2,NA,NA,skipped,NA,2366202,NA,NA,2366194.725,2366202.4,2023-05-12T12:16:34Z,2366212.356,NULL,Schlange,foleni,d,NA,NA,NA,NA,sd,NA,4,NA,NA,NA,NA,NA,NA,NA,NA,NA,NA,NA,NA,NA,NA,NA,NA,NA,NA,NA
e32f1,deep,flow.Sequence,3_0_4_0_0_0,NA,NA,completion,8518.2080000001,2357667.1999999,2357660.651,2357676.517,2366194.725,2366202.5999999,2023-05-12T12:16:34Z,2366212.356,NULL,Schlange,foleni,d,NA,NA,NA,NA,sd,NA,4,NA,NA,NA,NA,NA,NA,NA,NA,NA,NA,NA,NA,NA,NA,NA,NA,NA,NA,NA
e32f1,shallow,flow.Sequence,3_0_4_0_0_1,NA,NA,skipped,NA,2366202.6999999,NA,NA,2366194.725,2366202.8,2023-05-12T12:16:34Z,2366212.356,NULL,Schlange,foleni,d,NA,NA,NA,NA,sd,NA,4,NA,NA,NA,NA,NA,NA,NA,NA,NA,NA,NA,NA,NA,NA,NA,NA,NA,NA,NA
e32f1,task,flow.Sequence,3_0_4_0_0,NA,NA,completion,8518.2080000001,2357667.1999999,2357660.651,2357676.517,2366194.725,2366203,2023-05-12T12:16:34Z,2366212.356,NULL,Schlange,foleni,d,NA,NA,NA,NA,sd,NA,4,NA,NA,NA,NA,NA,NA,NA,NA,NA,NA,NA,NA,NA,NA,NA,NA,NA,NA,NA
e32f1,deep,flow.Sequence,3_0_4_0_1_0,NA,NA,skipped,NA,2366203.0999999,NA,NA,2366194.725,2366203.0999999,2023-05-12T12:16:34Z,2366212.356,NULL,Vermutung,udhanifu,s,haramia,tikisho,itifaki,NA,sd,NA,4,NA,NA,NA,NA,NA,NA,NA,NA,NA,NA,NA,NA,NA,NA,NA,NA,NA,NA,NA
e32f1,Shallow Question,html.Page,3_0_4_0_1_1_0,NA,NA,form submission,4758.043999976,2366203.3,2366194.725,2366212.356,2370970.4,2370970.6999999,2023-05-12T12:16:39Z,2370979.274,NULL,Vermutung,udhanifu,s,haramia,tikisho,itifaki,udhanifu,NA,NA,4,NA,NA,NA,NA,NA,NA,NA,NA,NA,NA,NA,NA,NA,NA,NA,NA,NA,NA,NA
e32f1,"""Richtig""-Screen",canvas.Screen,3_0_4_0_1_1_1,NA,NA,timeout,5007.1499999999,2370972.1999999,2370966.665,2370979.274,2375970.082,2375971.1999999,2023-05-12T12:16:44Z,2375986.424,NULL,Vermutung,udhanifu,s,haramia,tikisho,itifaki,NA,sd,1,4,NA,NA,NA,NA,NA,NA,NA,NA,NA,NA,NA,NA,NA,NA,NA,NA,NA,NA,NA
e32f1,"""Falsch""-Screen",canvas.Screen,3_0_4_0_1_1_2,NA,NA,skipped,NA,2375976.3,NA,NA,2375970.082,2375976.5999999,2023-05-12T12:16:44Z,2375986.424,NULL,Vermutung,udhanifu,s,haramia,tikisho,itifaki,NA,sd,NA,4,NA,NA,NA,NA,NA,NA,NA,NA,NA,NA,NA,NA,NA,NA,NA,NA,NA,NA,NA
e32f1,shallow,flow.Sequence,3_0_4_0_1_1,NA,NA,completion,9757.7259999998,2366203.1999999,2366194.725,2366212.356,2375970.082,2375976.9,2023-05-12T12:16:44Z,2375986.424,NULL,Vermutung,udhanifu,s,haramia,tikisho,itifaki,NA,sd,NA,4,NA,NA,NA,NA,NA,NA,NA,NA,NA,NA,NA,NA,NA,NA,NA,NA,NA,NA,NA
e32f1,task,flow.Sequence,3_0_4_0_1,NA,NA,completion,9757.7259999998,2366203.0999999,2366194.725,2366212.356,2375970.082,2375977.0999999,2023-05-12T12:16:44Z,2375986.424,NULL,Vermutung,udhanifu,s,haramia,tikisho,itifaki,NA,sd,NA,4,NA,NA,NA,NA,NA,NA,NA,NA,NA,NA,NA,NA,NA,NA,NA,NA,NA,NA,NA
e32f1,Deep Question,html.Page,3_0_4_0_2_0_0,NA,NA,form submission,5565.8759999522,2375977.1999999,2375970.082,2375986.424,2381552.3,2381552.5999999,2023-05-12T12:16:50Z,2381563.144,NULL,Genehmigung,idhini,d,NA,NA,NA,uduhani,NA,NA,4,NA,NA,NA,NA,NA,NA,NA,NA,NA,NA,NA,NA,NA,NA,NA,NA,NA,NA,NA
e32f1,"""Richtig""-Screen",canvas.Screen,3_0_4_0_2_0_1,NA,NA,skipped,NA,2381554.3,NA,NA,2381552.3,2381554.4,2023-05-12T12:16:50Z,2381563.144,NULL,Genehmigung,idhini,d,NA,NA,NA,NA,sd,NA,4,NA,NA,NA,NA,NA,NA,NA,NA,NA,NA,NA,NA,NA,NA,NA,NA,NA,NA,NA
e32f1,"""Falsch""-Screen",canvas.Screen,3_0_4_0_2_0_2,NA,NA,timeout,5006.767,2381554.8,2381546.305,2381563.144,2386553.234,2386554.1999999,2023-05-12T12:16:55Z,2386569.911,NULL,Genehmigung,idhini,d,NA,NA,NA,NA,sd,0,4,NA,NA,NA,NA,NA,NA,NA,NA,NA,NA,NA,NA,NA,NA,NA,NA,NA,NA,NA
e32f1,deep,flow.Sequence,3_0_4_0_2_0,NA,NA,completion,10566.81,2375977.1999999,2375970.082,2375986.424,2386553.234,2386554.5,2023-05-12T12:16:55Z,2386569.911,NULL,Genehmigung,idhini,d,NA,NA,NA,NA,sd,NA,4,NA,NA,NA,NA,NA,NA,NA,NA,NA,NA,NA,NA,NA,NA,NA,NA,NA,NA,NA
e32f1,shallow,flow.Sequence,3_0_4_0_2_1,NA,NA,skipped,NA,2386554.8,NA,NA,2386553.234,2386554.9,2023-05-12T12:16:55Z,2386569.911,NULL,Genehmigung,idhini,d,NA,NA,NA,NA,sd,NA,4,NA,NA,NA,NA,NA,NA,NA,NA,NA,NA,NA,NA,NA,NA,NA,NA,NA,NA,NA
e32f1,task,flow.Sequence,3_0_4_0_2,NA,NA,completion,10566.81,2375977.1999999,2375970.082,2375986.424,2386553.234,2386555.1999999,2023-05-12T12:16:55Z,2386569.911,NULL,Genehmigung,idhini,d,NA,NA,NA,NA,sd,NA,4,NA,NA,NA,NA,NA,NA,NA,NA,NA,NA,NA,NA,NA,NA,NA,NA,NA,NA,NA
e32f1,Deep Question,html.Page,3_0_4_0_3_0_0,NA,NA,form submission,5496.0890000002,2386555.3,2386553.234,2386569.911,2392066,2392066.4,2023-05-12T12:17:00Z,2392074.662,NULL,Begegnung,kukutana,d,NA,NA,NA,kukutana,NA,NA,4,NA,NA,NA,NA,NA,NA,NA,NA,NA,NA,NA,NA,NA,NA,NA,NA,NA,NA,NA
e32f1,"""Richtig""-Screen",canvas.Screen,3_0_4_0_3_0_1,NA,NA,timeout,5005.0639999998,2392068.1999999,2392058.405,2392074.662,2397063.442,2397066.1999999,2023-05-12T12:17:05Z,2397079.726,NULL,Begegnung,kukutana,d,NA,NA,NA,NA,sd,1,4,NA,NA,NA,NA,NA,NA,NA,NA,NA,NA,NA,NA,NA,NA,NA,NA,NA,NA,NA
e32f1,"""Falsch""-Screen",canvas.Screen,3_0_4_0_3_0_2,NA,NA,skipped,NA,2397073.1999999,NA,NA,2397063.442,2397073.5999999,2023-05-12T12:17:05Z,2397079.726,NULL,Begegnung,kukutana,d,NA,NA,NA,NA,sd,NA,4,NA,NA,NA,NA,NA,NA,NA,NA,NA,NA,NA,NA,NA,NA,NA,NA,NA,NA,NA
e32f1,deep,flow.Sequence,3_0_4_0_3_0,NA,NA,completion,10493.531,2386555.3,2386553.234,2386569.911,2397063.442,2397073.9,2023-05-12T12:17:05Z,2397079.726,NULL,Begegnung,kukutana,d,NA,NA,NA,NA,sd,NA,4,NA,NA,NA,NA,NA,NA,NA,NA,NA,NA,NA,NA,NA,NA,NA,NA,NA,NA,NA
e32f1,shallow,flow.Sequence,3_0_4_0_3_1,NA,NA,skipped,NA,2397074,NA,NA,2397063.442,2397074.0999999,2023-05-12T12:17:05Z,2397079.726,NULL,Begegnung,kukutana,d,NA,NA,NA,NA,sd,NA,4,NA,NA,NA,NA,NA,NA,NA,NA,NA,NA,NA,NA,NA,NA,NA,NA,NA,NA,NA
e32f1,task,flow.Sequence,3_0_4_0_3,NA,NA,completion,10493.531,2386555.1999999,2386553.234,2386569.911,2397063.442,2397074.3,2023-05-12T12:17:05Z,2397079.726,NULL,Begegnung,kukutana,d,NA,NA,NA,NA,sd,NA,4,NA,NA,NA,NA,NA,NA,NA,NA,NA,NA,NA,NA,NA,NA,NA,NA,NA,NA,NA
e32f1,deep,flow.Sequence,3_0_4_0_4_0,NA,NA,skipped,NA,2397074.5,NA,NA,2397063.442,2397074.5,2023-05-12T12:17:05Z,2397079.726,NULL,Integrität,uadilifu,s,muungano,mtiririko,upunguaji,NA,sd,NA,4,NA,NA,NA,NA,NA,NA,NA,NA,NA,NA,NA,NA,NA,NA,NA,NA,NA,NA,NA
e32f1,Shallow Question,html.Page,3_0_4_0_4_1_0,NA,NA,form submission,6029.5739999525,2397074.5999999,2397063.442,2397079.726,2403109.3,2403109.4,2023-05-12T12:17:11Z,2403117.332,NULL,Integrität,uadilifu,s,muungano,mtiririko,upunguaji,uadilifu,NA,NA,4,NA,NA,NA,NA,NA,NA,NA,NA,NA,NA,NA,NA,NA,NA,NA,NA,NA,NA,NA
e32f1,"""Richtig""-Screen",canvas.Screen,3_0_4_0_4_1_1,NA,NA,timeout,5004.1839999999,2403111.5,2403107.14,2403117.332,2408104.656,2408105.6999999,2023-05-12T12:17:16Z,2408121.516,NULL,Integrität,uadilifu,s,muungano,mtiririko,upunguaji,NA,sd,1,4,NA,NA,NA,NA,NA,NA,NA,NA,NA,NA,NA,NA,NA,NA,NA,NA,NA,NA,NA
e32f1,"""Falsch""-Screen",canvas.Screen,3_0_4_0_4_1_2,NA,NA,skipped,NA,2408110.5999999,NA,NA,2408104.656,2408110.9,2023-05-12T12:17:16Z,2408121.516,NULL,Integrität,uadilifu,s,muungano,mtiririko,upunguaji,NA,sd,NA,4,NA,NA,NA,NA,NA,NA,NA,NA,NA,NA,NA,NA,NA,NA,NA,NA,NA,NA,NA
e32f1,shallow,flow.Sequence,3_0_4_0_4_1,NA,NA,completion,11024.93,2397074.5999999,2397063.442,2397079.726,2408104.656,2408111.0999999,2023-05-12T12:17:16Z,2408121.516,NULL,Integrität,uadilifu,s,muungano,mtiririko,upunguaji,NA,sd,NA,4,NA,NA,NA,NA,NA,NA,NA,NA,NA,NA,NA,NA,NA,NA,NA,NA,NA,NA,NA
e32f1,task,flow.Sequence,3_0_4_0_4,NA,NA,completion,11024.93,2397074.4,2397063.442,2397079.726,2408104.656,2408111.3,2023-05-12T12:17:16Z,2408121.516,NULL,Integrität,uadilifu,s,muungano,mtiririko,upunguaji,NA,sd,NA,4,NA,NA,NA,NA,NA,NA,NA,NA,NA,NA,NA,NA,NA,NA,NA,NA,NA,NA,NA
e32f1,deep,flow.Sequence,3_0_4_0_5_0,NA,NA,skipped,NA,2408111.4,NA,NA,2408104.656,2408111.5999999,2023-05-12T12:17:16Z,2408121.516,NULL,Inhalt,yaliyomo,s,kishawishi,hifadhi,kutembea,NA,sd,NA,4,NA,NA,NA,NA,NA,NA,NA,NA,NA,NA,NA,NA,NA,NA,NA,NA,NA,NA,NA
e32f1,Shallow Question,html.Page,3_0_4_0_5_1_0,NA,NA,form submission,2605.5839999048,2408111.6999999,2408104.656,2408121.516,2410727.0999999,2410727.3,2023-05-12T12:17:19Z,2410735.465,NULL,Inhalt,yaliyomo,s,kishawishi,hifadhi,kutembea,yaliyomo,NA,NA,4,NA,NA,NA,NA,NA,NA,NA,NA,NA,NA,NA,NA,NA,NA,NA,NA,NA,NA,NA
e32f1,"""Richtig""-Screen",canvas.Screen,3_0_4_0_5_1_1,NA,NA,timeout,5003.733,2410727.9,2410719.865,2410735.465,2415722.856,2415723.9,2023-05-12T12:17:24Z,2415739.198,NULL,Inhalt,yaliyomo,s,kishawishi,hifadhi,kutembea,NA,sd,1,4,NA,NA,NA,NA,NA,NA,NA,NA,NA,NA,NA,NA,NA,NA,NA,NA,NA,NA,NA
e32f1,"""Falsch""-Screen",canvas.Screen,3_0_4_0_5_1_2,NA,NA,skipped,NA,2415729.5999999,NA,NA,2415722.856,2415729.9,2023-05-12T12:17:24Z,2415739.198,NULL,Inhalt,yaliyomo,s,kishawishi,hifadhi,kutembea,NA,sd,NA,4,NA,NA,NA,NA,NA,NA,NA,NA,NA,NA,NA,NA,NA,NA,NA,NA,NA,NA,NA
e32f1,shallow,flow.Sequence,3_0_4_0_5_1,NA,NA,completion,7601.3400000003,2408111.6999999,2408104.656,2408121.516,2415722.856,2415730.3,2023-05-12T12:17:24Z,2415739.198,NULL,Inhalt,yaliyomo,s,kishawishi,hifadhi,kutembea,NA,sd,NA,4,NA,NA,NA,NA,NA,NA,NA,NA,NA,NA,NA,NA,NA,NA,NA,NA,NA,NA,NA
e32f1,task,flow.Sequence,3_0_4_0_5,NA,NA,completion,7601.3400000003,2408111.4,2408104.656,2408121.516,2415722.856,2415730.4,2023-05-12T12:17:24Z,2415739.198,NULL,Inhalt,yaliyomo,s,kishawishi,hifadhi,kutembea,NA,sd,NA,4,NA,NA,NA,NA,NA,NA,NA,NA,NA,NA,NA,NA,NA,NA,NA,NA,NA,NA,NA
e32f1,Deep Question,html.Page,3_0_4_0_6_0_0,NA,NA,form submission,5306.7019999763,2415730.5999999,2415722.856,2415739.198,2421045.9,2421046.0999999,2023-05-12T12:17:29Z,2421054.511,NULL,Toleranz,kuvumiliana,d,NA,NA,NA,idihni,NA,NA,4,NA,NA,NA,NA,NA,NA,NA,NA,NA,NA,NA,NA,NA,NA,NA,NA,NA,NA,NA
e32f1,"""Richtig""-Screen",canvas.Screen,3_0_4_0_6_0_1,NA,NA,skipped,NA,2421047.8,NA,NA,2421045.9,2421047.9,2023-05-12T12:17:29Z,2421054.511,NULL,Toleranz,kuvumiliana,d,NA,NA,NA,NA,sd,NA,4,NA,NA,NA,NA,NA,NA,NA,NA,NA,NA,NA,NA,NA,NA,NA,NA,NA,NA,NA
e32f1,"""Falsch""-Screen",canvas.Screen,3_0_4_0_6_0_2,NA,NA,timeout,5005.2820000001,2421048.4,2421030.914,2421054.511,2426043.326,2426044.5,2023-05-12T12:17:34Z,2426059.793,NULL,Toleranz,kuvumiliana,d,NA,NA,NA,NA,sd,0,4,NA,NA,NA,NA,NA,NA,NA,NA,NA,NA,NA,NA,NA,NA,NA,NA,NA,NA,NA
e32f1,deep,flow.Sequence,3_0_4_0_6_0,NA,NA,completion,10304.128,2415730.5999999,2415722.856,2415739.198,2426043.326,2426044.9,2023-05-12T12:17:34Z,2426059.793,NULL,Toleranz,kuvumiliana,d,NA,NA,NA,NA,sd,NA,4,NA,NA,NA,NA,NA,NA,NA,NA,NA,NA,NA,NA,NA,NA,NA,NA,NA,NA,NA
e32f1,shallow,flow.Sequence,3_0_4_0_6_1,NA,NA,skipped,NA,2426045.0999999,NA,NA,2426043.326,2426045.1999999,2023-05-12T12:17:34Z,2426059.793,NULL,Toleranz,kuvumiliana,d,NA,NA,NA,NA,sd,NA,4,NA,NA,NA,NA,NA,NA,NA,NA,NA,NA,NA,NA,NA,NA,NA,NA,NA,NA,NA
e32f1,task,flow.Sequence,3_0_4_0_6,NA,NA,completion,10304.128,2415730.5999999,2415722.856,2415739.198,2426043.326,2426045.3,2023-05-12T12:17:34Z,2426059.793,NULL,Toleranz,kuvumiliana,d,NA,NA,NA,NA,sd,NA,4,NA,NA,NA,NA,NA,NA,NA,NA,NA,NA,NA,NA,NA,NA,NA,NA,NA,NA,NA
e32f1,deep,flow.Sequence,3_0_4_0_7_0,NA,NA,skipped,NA,2426045.5,NA,NA,2426043.326,2426045.5999999,2023-05-12T12:17:34Z,2426059.793,NULL,Fleisch,mshakiki,s,kizunguzungu,mshikamano,angusho,NA,sd,NA,4,NA,NA,NA,NA,NA,NA,NA,NA,NA,NA,NA,NA,NA,NA,NA,NA,NA,NA,NA
e32f1,Shallow Question,html.Page,3_0_4_0_7_1_0,NA,NA,form submission,7309.9069999284,2426045.8,2426043.326,2426059.793,2433369.6999999,2433369.9,2023-05-12T12:17:41Z,2433377.684,NULL,Fleisch,mshakiki,s,kizunguzungu,mshikamano,angusho,mshakiki,NA,NA,4,NA,NA,NA,NA,NA,NA,NA,NA,NA,NA,NA,NA,NA,NA,NA,NA,NA,NA,NA
e32f1,"""Richtig""-Screen",canvas.Screen,3_0_4_0_7_1_1,NA,NA,timeout,5004.9560000002,2433371.6999999,2433353.442,2433377.684,2438366.308,2438367.3,2023-05-12T12:17:46Z,2438382.64,NULL,Fleisch,mshakiki,s,kizunguzungu,mshikamano,angusho,NA,sd,1,4,NA,NA,NA,NA,NA,NA,NA,NA,NA,NA,NA,NA,NA,NA,NA,NA,NA,NA,NA
e32f1,"""Falsch""-Screen",canvas.Screen,3_0_4_0_7_1_2,NA,NA,skipped,NA,2438372.3,NA,NA,2438366.308,2438372.5999999,2023-05-12T12:17:46Z,2438382.64,NULL,Fleisch,mshakiki,s,kizunguzungu,mshikamano,angusho,NA,sd,NA,4,NA,NA,NA,NA,NA,NA,NA,NA,NA,NA,NA,NA,NA,NA,NA,NA,NA,NA,NA
e32f1,shallow,flow.Sequence,3_0_4_0_7_1,NA,NA,completion,12306.515,2426045.6999999,2426043.326,2426059.793,2438366.308,2438372.8,2023-05-12T12:17:46Z,2438382.64,NULL,Fleisch,mshakiki,s,kizunguzungu,mshikamano,angusho,NA,sd,NA,4,NA,NA,NA,NA,NA,NA,NA,NA,NA,NA,NA,NA,NA,NA,NA,NA,NA,NA,NA
e32f1,task,flow.Sequence,3_0_4_0_7,NA,NA,completion,12306.515,2426045.5,2426043.326,2426059.793,2438366.308,2438373,2023-05-12T12:17:46Z,2438382.64,NULL,Fleisch,mshakiki,s,kizunguzungu,mshikamano,angusho,NA,sd,NA,4,NA,NA,NA,NA,NA,NA,NA,NA,NA,NA,NA,NA,NA,NA,NA,NA,NA,NA,NA
e32f1,block,flow.Loop,3_0_4_0,NA,NA,completion,80689.791,2357667.0999999,2357660.651,2357676.517,2438366.308,2438373.0999999,2023-05-12T12:17:46Z,2438382.64,NULL,NA,NA,NA,NA,NA,NA,NA,sd,NA,4,NA,NA,NA,NA,NA,NA,NA,NA,NA,NA,NA,NA,NA,NA,NA,NA,NA,NA,NA
e32f1,weiter,canvas.Screen,3_0_4_1,sdf,keypress(Space),response,1159.0599999283,2438373.3,2438366.308,2438382.64,2439541.6999999,2439543.3,2023-05-12T12:17:48Z,2440090.449,NULL,NA,NA,NA,NA,NA,NA,NA,sd,NA,4,NA,NA,NA,NA,NA,NA,NA,NA,NA,NA,NA,NA,NA,NA,NA,NA,NA,NA,NA
e32f1,check continue,flow.Sequence,3_0_4,NA,NA,completion,81865.182999928,2357667.0999999,2357660.651,2357676.517,2439541.6999999,2439543.5999999,2023-05-12T12:17:48Z,2440090.449,NULL,NA,NA,NA,NA,NA,NA,NA,sd,NA,4,NA,NA,NA,NA,NA,NA,NA,NA,NA,NA,NA,NA,NA,NA,NA,NA,NA,NA,NA
e32f1,check continue,flow.Sequence,3_0_5,NA,NA,skipped,NA,2439593.5999999,NA,NA,2439541.6999999,2439593.8,2023-05-12T12:17:48Z,2440090.449,NULL,NA,NA,NA,NA,NA,NA,NA,sdf,NA,5,NA,NA,NA,NA,NA,NA,NA,NA,NA,NA,NA,NA,NA,NA,NA,NA,NA,NA,NA
e32f1,check continue,flow.Sequence,3_0_6,NA,NA,skipped,NA,2439624.5999999,NA,NA,2439541.6999999,2439624.6999999,2023-05-12T12:17:48Z,2440090.449,NULL,NA,NA,NA,NA,NA,NA,NA,dfs,NA,6,NA,NA,NA,NA,NA,NA,NA,NA,NA,NA,NA,NA,NA,NA,NA,NA,NA,NA,NA
e32f1,check continue,flow.Sequence,3_0_7,NA,NA,skipped,NA,2439648.1999999,NA,NA,2439541.6999999,2439648.3,2023-05-12T12:17:48Z,2440090.449,NULL,NA,NA,NA,NA,NA,NA,NA,df,NA,7,NA,NA,NA,NA,NA,NA,NA,NA,NA,NA,NA,NA,NA,NA,NA,NA,NA,NA,NA
e32f1,check continue,flow.Sequence,3_0_8,NA,NA,skipped,NA,2439665.4,NA,NA,2439541.6999999,2439665.5,2023-05-12T12:17:48Z,2440090.449,NULL,NA,NA,NA,NA,NA,NA,NA,dfs,NA,8,NA,NA,NA,NA,NA,NA,NA,NA,NA,NA,NA,NA,NA,NA,NA,NA,NA,NA,NA
e32f1,check continue,flow.Sequence,3_0_9,NA,NA,skipped,NA,2439681.5999999,NA,NA,2439541.6999999,2439681.5999999,2023-05-12T12:17:48Z,2440090.449,NULL,NA,NA,NA,NA,NA,NA,NA,dsf,NA,9,NA,NA,NA,NA,NA,NA,NA,NA,NA,NA,NA,NA,NA,NA,NA,NA,NA,NA,NA
e32f1,check continue,flow.Sequence,3_0_10,NA,NA,skipped,NA,2439699,NA,NA,2439541.6999999,2439699.0999999,2023-05-12T12:17:48Z,2440090.449,NULL,NA,NA,NA,NA,NA,NA,NA,df,NA,10,NA,NA,NA,NA,NA,NA,NA,NA,NA,NA,NA,NA,NA,NA,NA,NA,NA,NA,NA
e32f1,check continue,flow.Sequence,3_0_11,NA,NA,skipped,NA,2439713.5999999,NA,NA,2439541.6999999,2439713.5999999,2023-05-12T12:17:48Z,2440090.449,NULL,NA,NA,NA,NA,NA,NA,NA,dfs,NA,11,NA,NA,NA,NA,NA,NA,NA,NA,NA,NA,NA,NA,NA,NA,NA,NA,NA,NA,NA
e32f1,check continue,flow.Sequence,3_0_12,NA,NA,skipped,NA,2439729.5999999,NA,NA,2439541.6999999,2439729.6999999,2023-05-12T12:17:48Z,2440090.449,NULL,NA,NA,NA,NA,NA,NA,NA,dsf,NA,12,NA,NA,NA,NA,NA,NA,NA,NA,NA,NA,NA,NA,NA,NA,NA,NA,NA,NA,NA
e32f1,check continue,flow.Sequence,3_0_13,NA,NA,skipped,NA,2439744.9,NA,NA,2439541.6999999,2439745,2023-05-12T12:17:48Z,2440090.449,NULL,NA,NA,NA,NA,NA,NA,NA,dsf,NA,13,NA,NA,NA,NA,NA,NA,NA,NA,NA,NA,NA,NA,NA,NA,NA,NA,NA,NA,NA
e32f1,check continue,flow.Sequence,3_0_14,NA,NA,skipped,NA,2439759.5999999,NA,NA,2439541.6999999,2439759.5999999,2023-05-12T12:17:48Z,2440090.449,NULL,NA,NA,NA,NA,NA,NA,NA,NA,NA,14,NA,NA,NA,NA,NA,NA,NA,NA,NA,NA,NA,NA,NA,NA,NA,NA,NA,NA,NA
e32f1,check continue,flow.Sequence,3_0_15,NA,NA,skipped,NA,2439780.0999999,NA,NA,2439541.6999999,2439780.1999999,2023-05-12T12:17:48Z,2440090.449,NULL,NA,NA,NA,NA,NA,NA,NA,NA,NA,15,NA,NA,NA,NA,NA,NA,NA,NA,NA,NA,NA,NA,NA,NA,NA,NA,NA,NA,NA
e32f1,check continue,flow.Sequence,3_0_16,NA,NA,skipped,NA,2439794.1999999,NA,NA,2439541.6999999,2439794.3,2023-05-12T12:17:48Z,2440090.449,NULL,NA,NA,NA,NA,NA,NA,NA,NA,NA,16,NA,NA,NA,NA,NA,NA,NA,NA,NA,NA,NA,NA,NA,NA,NA,NA,NA,NA,NA
e32f1,check continue,flow.Sequence,3_0_17,NA,NA,skipped,NA,2439807.8,NA,NA,2439541.6999999,2439807.9,2023-05-12T12:17:48Z,2440090.449,NULL,NA,NA,NA,NA,NA,NA,NA,NA,NA,17,NA,NA,NA,NA,NA,NA,NA,NA,NA,NA,NA,NA,NA,NA,NA,NA,NA,NA,NA
e32f1,check continue,flow.Sequence,3_0_18,NA,NA,skipped,NA,2439822,NA,NA,2439541.6999999,2439822.1999999,2023-05-12T12:17:48Z,2440090.449,NULL,NA,NA,NA,NA,NA,NA,NA,NA,NA,18,NA,NA,NA,NA,NA,NA,NA,NA,NA,NA,NA,NA,NA,NA,NA,NA,NA,NA,NA
e32f1,check continue,flow.Sequence,3_0_19,NA,NA,skipped,NA,2439841.4,NA,NA,2439541.6999999,2439841.4,2023-05-12T12:17:48Z,2440090.449,NULL,NA,NA,NA,NA,NA,NA,NA,NA,NA,19,NA,NA,NA,NA,NA,NA,NA,NA,NA,NA,NA,NA,NA,NA,NA,NA,NA,NA,NA
e32f1,check continue,flow.Sequence,3_0_20,NA,NA,skipped,NA,2439859.0999999,NA,NA,2439541.6999999,2439859.1999999,2023-05-12T12:17:48Z,2440090.449,NULL,NA,NA,NA,NA,NA,NA,NA,NA,NA,20,NA,NA,NA,NA,NA,NA,NA,NA,NA,NA,NA,NA,NA,NA,NA,NA,NA,NA,NA
e32f1,check continue,flow.Sequence,3_0_21,NA,NA,skipped,NA,2439880.5999999,NA,NA,2439541.6999999,2439880.6999999,2023-05-12T12:17:48Z,2440090.449,NULL,NA,NA,NA,NA,NA,NA,NA,NA,NA,21,NA,NA,NA,NA,NA,NA,NA,NA,NA,NA,NA,NA,NA,NA,NA,NA,NA,NA,NA
e32f1,check continue,flow.Sequence,3_0_22,NA,NA,skipped,NA,2439903.5999999,NA,NA,2439541.6999999,2439903.6999999,2023-05-12T12:17:48Z,2440090.449,NULL,NA,NA,NA,NA,NA,NA,NA,NA,NA,22,NA,NA,NA,NA,NA,NA,NA,NA,NA,NA,NA,NA,NA,NA,NA,NA,NA,NA,NA
e32f1,check continue,flow.Sequence,3_0_23,NA,NA,skipped,NA,2439920.8,NA,NA,2439541.6999999,2439920.9,2023-05-12T12:17:48Z,2440090.449,NULL,NA,NA,NA,NA,NA,NA,NA,NA,NA,23,NA,NA,NA,NA,NA,NA,NA,NA,NA,NA,NA,NA,NA,NA,NA,NA,NA,NA,NA
e32f1,check continue,flow.Sequence,3_0_24,NA,NA,skipped,NA,2439949.3,NA,NA,2439541.6999999,2439949.6999999,2023-05-12T12:17:48Z,2440090.449,NULL,NA,NA,NA,NA,NA,NA,NA,NA,NA,24,NA,NA,NA,NA,NA,NA,NA,NA,NA,NA,NA,NA,NA,NA,NA,NA,NA,NA,NA
e32f1,check continue,flow.Sequence,3_0_25,NA,NA,skipped,NA,2439973.3,NA,NA,2439541.6999999,2439973.4,2023-05-12T12:17:48Z,2440090.449,NULL,NA,NA,NA,NA,NA,NA,NA,NA,NA,25,NA,NA,NA,NA,NA,NA,NA,NA,NA,NA,NA,NA,NA,NA,NA,NA,NA,NA,NA
e32f1,check continue,flow.Sequence,3_0_26,NA,NA,skipped,NA,2440001.0999999,NA,NA,2439541.6999999,2440001.3,2023-05-12T12:17:48Z,2440090.449,NULL,NA,NA,NA,NA,NA,NA,NA,NA,NA,26,NA,NA,NA,NA,NA,NA,NA,NA,NA,NA,NA,NA,NA,NA,NA,NA,NA,NA,NA
e32f1,check continue,flow.Sequence,3_0_27,NA,NA,skipped,NA,2440031.1999999,NA,NA,2439541.6999999,2440031.3,2023-05-12T12:17:48Z,2440090.449,NULL,NA,NA,NA,NA,NA,NA,NA,NA,NA,27,NA,NA,NA,NA,NA,NA,NA,NA,NA,NA,NA,NA,NA,NA,NA,NA,NA,NA,NA
e32f1,check continue,flow.Sequence,3_0_28,NA,NA,skipped,NA,2440047.5,NA,NA,2439541.6999999,2440047.5,2023-05-12T12:17:48Z,2440090.449,NULL,NA,NA,NA,NA,NA,NA,NA,NA,NA,28,NA,NA,NA,NA,NA,NA,NA,NA,NA,NA,NA,NA,NA,NA,NA,NA,NA,NA,NA
e32f1,check continue,flow.Sequence,3_0_29,NA,NA,skipped,NA,2440080.9,NA,NA,2439541.6999999,2440081,2023-05-12T12:17:48Z,2440090.449,NULL,NA,NA,NA,NA,NA,NA,NA,NA,NA,29,NA,NA,NA,NA,NA,NA,NA,NA,NA,NA,NA,NA,NA,NA,NA,NA,NA,NA,NA
e32f1,until continue,flow.Loop,3_0,NA,NA,completion,403704.77699993,2035781.9,2035819.53,2035836.923,2439541.6999999,2440081.1999999,2023-05-12T12:17:48Z,2440090.449,NULL,NA,NA,NA,NA,NA,NA,NA,NA,NA,NA,NA,NA,NA,NA,NA,NA,NA,NA,NA,NA,NA,NA,NA,NA,NA,NA,NA,NA,NA
e32f1,block 1,flow.Sequence,3,NA,NA,completion,403704.77699993,2035781.8,2035819.53,2035836.923,2439541.6999999,2440081.3,2023-05-12T12:17:48Z,2440090.449,NULL,NA,NA,NA,NA,NA,NA,NA,NA,NA,NA,NA,NA,NA,NA,NA,NA,NA,NA,NA,NA,NA,NA,NA,NA,NA,NA,NA,NA,NA
e32f1,1.Part Over,canvas.Screen,4,NA,keypress(Space),response,3771.6509999046,2440081.3,2440065.994,2440090.449,2443862.0999999,2443864.0999999,2023-05-12T12:17:52Z,2443968.182,NULL,NA,NA,NA,NA,NA,NA,NA,NA,NA,NA,NA,NA,NA,NA,NA,NA,NA,NA,NA,NA,NA,NA,NA,NA,NA,NA,NA,NA,NA
e32f1,deep,flow.Sequence,5_0_0_0_0_0,NA,NA,skipped,NA,2443941.5999999,NA,NA,2443862.0999999,2443941.6999999,2023-05-12T12:17:52Z,2443968.182,NULL,Erneuerung,ukarabati,s,ushawishi,ukalifu,unyonyaji,NA,sdf,NA,0,NA,NA,NA,NA,NA,NA,NA,NA,NA,NA,NA,NA,NA,NA,NA,NA,NA,NA,NA
e32f1,Shallow Question,html.Page,5_0_0_0_0_1_0,NA,NA,form submission,6541.1179999523,2443941.9,2443951.782,2443968.182,2450509.3,2450509.5999999,2023-05-12T12:17:59Z,2450517.445,NULL,Erneuerung,ukarabati,s,ushawishi,ukalifu,unyonyaji,ushawishi,NA,NA,0,NA,NA,NA,NA,NA,NA,NA,NA,NA,NA,NA,NA,NA,NA,NA,NA,NA,NA,NA
e32f1,"""Richtig""-Screen",canvas.Screen,5_0_0_0_0_1_1,NA,NA,skipped,NA,2450511.3,NA,NA,2450509.3,2450511.3,2023-05-12T12:17:59Z,2450517.445,NULL,Erneuerung,ukarabati,s,ushawishi,ukalifu,unyonyaji,NA,sdf,NA,0,NA,NA,NA,NA,NA,NA,NA,NA,NA,NA,NA,NA,NA,NA,NA,NA,NA,NA,NA
e32f1,"""Falsch""-Screen",canvas.Screen,5_0_0_0_0_1_2,NA,NA,timeout,4996.6270000003,2450511.9,2450504.355,2450517.445,2455497.306,2455498,2023-05-12T12:18:04Z,2455514.072,NULL,Erneuerung,ukarabati,s,ushawishi,ukalifu,unyonyaji,NA,sdf,0,0,NA,NA,NA,NA,NA,NA,NA,NA,NA,NA,NA,NA,NA,NA,NA,NA,NA,NA,NA
e32f1,shallow,flow.Sequence,5_0_0_0_0_1,NA,NA,completion,11529.124,2443941.9,2443951.782,2443968.182,2455497.306,2455498.4,2023-05-12T12:18:04Z,2455514.072,NULL,Erneuerung,ukarabati,s,ushawishi,ukalifu,unyonyaji,NA,sdf,NA,0,NA,NA,NA,NA,NA,NA,NA,NA,NA,NA,NA,NA,NA,NA,NA,NA,NA,NA,NA
e32f1,task,flow.Sequence,5_0_0_0_0,NA,NA,completion,11529.124,2443941.5999999,2443951.782,2443968.182,2455497.306,2455498.5999999,2023-05-12T12:18:04Z,2455514.072,NULL,Erneuerung,ukarabati,s,ushawishi,ukalifu,unyonyaji,NA,sdf,NA,0,NA,NA,NA,NA,NA,NA,NA,NA,NA,NA,NA,NA,NA,NA,NA,NA,NA,NA,NA
e32f1,deep,flow.Sequence,5_0_0_0_1_0,NA,NA,skipped,NA,2455498.8,NA,NA,2455497.306,2455498.9,2023-05-12T12:18:04Z,2455514.072,NULL,Hoffnung,matarajio,s,kutaalamika,uratibu,mvumbuzi,NA,sdf,NA,0,NA,NA,NA,NA,NA,NA,NA,NA,NA,NA,NA,NA,NA,NA,NA,NA,NA,NA,NA
e32f1,Shallow Question,html.Page,5_0_0_0_1_1_0,NA,NA,form submission,12117.627999928,2455499.4,2455497.306,2455514.072,2467631.6999999,2467631.9,2023-05-12T12:18:16Z,2467639.852,NULL,Hoffnung,matarajio,s,kutaalamika,uratibu,mvumbuzi,mvumbuzi,NA,NA,0,NA,NA,NA,NA,NA,NA,NA,NA,NA,NA,NA,NA,NA,NA,NA,NA,NA,NA,NA
e32f1,"""Richtig""-Screen",canvas.Screen,5_0_0_0_1_1_1,NA,NA,skipped,NA,2467633.9,NA,NA,2467631.6999999,2467634.0999999,2023-05-12T12:18:16Z,2467639.852,NULL,Hoffnung,matarajio,s,kutaalamika,uratibu,mvumbuzi,NA,sdf,NA,0,NA,NA,NA,NA,NA,NA,NA,NA,NA,NA,NA,NA,NA,NA,NA,NA,NA,NA,NA
e32f1,"""Falsch""-Screen",canvas.Screen,5_0_0_0_1_1_2,NA,NA,timeout,4993.9199999999,2467634.5999999,2467622.313,2467639.852,2472617.257,2472618.1999999,2023-05-12T12:18:21Z,2472633.772,NULL,Hoffnung,matarajio,s,kutaalamika,uratibu,mvumbuzi,NA,sdf,0,0,NA,NA,NA,NA,NA,NA,NA,NA,NA,NA,NA,NA,NA,NA,NA,NA,NA,NA,NA
e32f1,shallow,flow.Sequence,5_0_0_0_1_1,NA,NA,completion,17103.185,2455499.0999999,2455497.306,2455514.072,2472617.257,2472618.6999999,2023-05-12T12:18:21Z,2472633.772,NULL,Hoffnung,matarajio,s,kutaalamika,uratibu,mvumbuzi,NA,sdf,NA,0,NA,NA,NA,NA,NA,NA,NA,NA,NA,NA,NA,NA,NA,NA,NA,NA,NA,NA,NA
e32f1,task,flow.Sequence,5_0_0_0_1,NA,NA,completion,17103.185,2455498.8,2455497.306,2455514.072,2472617.257,2472618.9,2023-05-12T12:18:21Z,2472633.772,NULL,Hoffnung,matarajio,s,kutaalamika,uratibu,mvumbuzi,NA,sdf,NA,0,NA,NA,NA,NA,NA,NA,NA,NA,NA,NA,NA,NA,NA,NA,NA,NA,NA,NA,NA
e32f1,deep,flow.Sequence,5_0_0_0_2_0,NA,NA,skipped,NA,2472619.0999999,NA,NA,2472617.257,2472619.1999999,2023-05-12T12:18:21Z,2472633.772,NULL,Verpackung,ufungaji,s,uhusiano,upimaji,uchunguzi,NA,sdf,NA,0,NA,NA,NA,NA,NA,NA,NA,NA,NA,NA,NA,NA,NA,NA,NA,NA,NA,NA,NA
e32f1,Shallow Question,html.Page,5_0_0_0_2_1_0,NA,NA,form submission,2999.5279999524,2472619.3,2472617.257,2472633.772,2475633.3,2475633.5999999,2023-05-12T12:18:24Z,2475641.207,NULL,Verpackung,ufungaji,s,uhusiano,upimaji,uchunguzi,uchunguzi,NA,NA,0,NA,NA,NA,NA,NA,NA,NA,NA,NA,NA,NA,NA,NA,NA,NA,NA,NA,NA,NA
e32f1,"""Richtig""-Screen",canvas.Screen,5_0_0_0_2_1_1,NA,NA,skipped,NA,2475635.3,NA,NA,2475633.3,2475635.4,2023-05-12T12:18:24Z,2475641.207,NULL,Verpackung,ufungaji,s,uhusiano,upimaji,uchunguzi,NA,sdf,NA,0,NA,NA,NA,NA,NA,NA,NA,NA,NA,NA,NA,NA,NA,NA,NA,NA,NA,NA,NA
e32f1,"""Falsch""-Screen",canvas.Screen,5_0_0_0_2_1_2,NA,NA,timeout,5007.75,2475635.8,2475621.104,2475641.207,2480632.266,2480633.3,2023-05-12T12:18:29Z,2480648.957,NULL,Verpackung,ufungaji,s,uhusiano,upimaji,uchunguzi,NA,sdf,0,0,NA,NA,NA,NA,NA,NA,NA,NA,NA,NA,NA,NA,NA,NA,NA,NA,NA,NA,NA
e32f1,shallow,flow.Sequence,5_0_0_0_2_1,NA,NA,completion,7998.4939999999,2472619.3,2472617.257,2472633.772,2480632.266,2480633.6999999,2023-05-12T12:18:29Z,2480648.957,NULL,Verpackung,ufungaji,s,uhusiano,upimaji,uchunguzi,NA,sdf,NA,0,NA,NA,NA,NA,NA,NA,NA,NA,NA,NA,NA,NA,NA,NA,NA,NA,NA,NA,NA
e32f1,task,flow.Sequence,5_0_0_0_2,NA,NA,completion,7998.4939999999,2472619,2472617.257,2472633.772,2480632.266,2480633.9,2023-05-12T12:18:29Z,2480648.957,NULL,Verpackung,ufungaji,s,uhusiano,upimaji,uchunguzi,NA,sdf,NA,0,NA,NA,NA,NA,NA,NA,NA,NA,NA,NA,NA,NA,NA,NA,NA,NA,NA,NA,NA
e32f1,deep,flow.Sequence,5_0_0_0_3_0,NA,NA,skipped,NA,2480634,NA,NA,2480632.266,2480634.0999999,2023-05-12T12:18:29Z,2480648.957,NULL,Wechsel,ugeuzaji,s,utambulisho,kujenga,wasiwasi,NA,sdf,NA,0,NA,NA,NA,NA,NA,NA,NA,NA,NA,NA,NA,NA,NA,NA,NA,NA,NA,NA,NA
e32f1,Shallow Question,html.Page,5_0_0_0_3_1_0,NA,NA,form submission,2896.9429999762,2480634.1999999,2480632.266,2480648.957,2483545.9,2483546.1999999,2023-05-12T12:18:32Z,2483553.811,NULL,Wechsel,ugeuzaji,s,utambulisho,kujenga,wasiwasi,wasiwasi,NA,NA,0,NA,NA,NA,NA,NA,NA,NA,NA,NA,NA,NA,NA,NA,NA,NA,NA,NA,NA,NA
e32f1,"""Richtig""-Screen",canvas.Screen,5_0_0_0_3_1_1,NA,NA,skipped,NA,2483547.9,NA,NA,2483545.9,2483548,2023-05-12T12:18:32Z,2483553.811,NULL,Wechsel,ugeuzaji,s,utambulisho,kujenga,wasiwasi,NA,sdf,NA,0,NA,NA,NA,NA,NA,NA,NA,NA,NA,NA,NA,NA,NA,NA,NA,NA,NA,NA,NA
e32f1,"""Falsch""-Screen",canvas.Screen,5_0_0_0_3_1_2,NA,NA,timeout,5006.1439999999,2483548.4,2483538.181,2483553.811,2488543.268,2488544.3,2023-05-12T12:18:37Z,2488559.955,NULL,Wechsel,ugeuzaji,s,utambulisho,kujenga,wasiwasi,NA,sdf,0,0,NA,NA,NA,NA,NA,NA,NA,NA,NA,NA,NA,NA,NA,NA,NA,NA,NA,NA,NA
e32f1,shallow,flow.Sequence,5_0_0_0_3_1,NA,NA,completion,7894.3110000002,2480634.1999999,2480632.266,2480648.957,2488543.268,2488544.6999999,2023-05-12T12:18:37Z,2488559.955,NULL,Wechsel,ugeuzaji,s,utambulisho,kujenga,wasiwasi,NA,sdf,NA,0,NA,NA,NA,NA,NA,NA,NA,NA,NA,NA,NA,NA,NA,NA,NA,NA,NA,NA,NA
e32f1,task,flow.Sequence,5_0_0_0_3,NA,NA,completion,7894.3110000002,2480634,2480632.266,2480648.957,2488543.268,2488544.8,2023-05-12T12:18:37Z,2488559.955,NULL,Wechsel,ugeuzaji,s,utambulisho,kujenga,wasiwasi,NA,sdf,NA,0,NA,NA,NA,NA,NA,NA,NA,NA,NA,NA,NA,NA,NA,NA,NA,NA,NA,NA,NA
e32f1,Deep Question,html.Page,5_0_0_0_4_0_0,NA,NA,form submission,2056.1449999046,2488545.0999999,2488543.268,2488559.955,2490616.0999999,2490616.3,2023-05-12T12:18:39Z,2490624.76,NULL,Schock,mshtuko,d,NA,NA,NA,NA,NA,NA,0,NA,NA,NA,NA,NA,NA,NA,NA,NA,NA,NA,NA,NA,NA,NA,NA,NA,NA,NA
e32f1,"""Richtig""-Screen",canvas.Screen,5_0_0_0_4_0_1,NA,NA,skipped,NA,2490618.0999999,NA,NA,2490616.0999999,2490618.3,2023-05-12T12:18:39Z,2490624.76,NULL,Schock,mshtuko,d,NA,NA,NA,NA,sdf,NA,0,NA,NA,NA,NA,NA,NA,NA,NA,NA,NA,NA,NA,NA,NA,NA,NA,NA,NA,NA
e32f1,"""Falsch""-Screen",canvas.Screen,5_0_0_0_4_0_2,NA,NA,timeout,4995.304,2490618.8,2490615.489,2490624.76,2495603.378,2495604.4,2023-05-12T12:18:44Z,2495620.064,NULL,Schock,mshtuko,d,NA,NA,NA,NA,sdf,0,0,NA,NA,NA,NA,NA,NA,NA,NA,NA,NA,NA,NA,NA,NA,NA,NA,NA,NA,NA
e32f1,deep,flow.Sequence,5_0_0_0_4_0,NA,NA,completion,7043.423,2488545.0999999,2488543.268,2488559.955,2495603.378,2495604.5999999,2023-05-12T12:18:44Z,2495620.064,NULL,Schock,mshtuko,d,NA,NA,NA,NA,sdf,NA,0,NA,NA,NA,NA,NA,NA,NA,NA,NA,NA,NA,NA,NA,NA,NA,NA,NA,NA,NA
e32f1,shallow,flow.Sequence,5_0_0_0_4_1,NA,NA,skipped,NA,2495604.6999999,NA,NA,2495603.378,2495604.8,2023-05-12T12:18:44Z,2495620.064,NULL,Schock,mshtuko,d,NA,NA,NA,NA,sdf,NA,0,NA,NA,NA,NA,NA,NA,NA,NA,NA,NA,NA,NA,NA,NA,NA,NA,NA,NA,NA
e32f1,task,flow.Sequence,5_0_0_0_4,NA,NA,completion,7043.423,2488545,2488543.268,2488559.955,2495603.378,2495604.9,2023-05-12T12:18:44Z,2495620.064,NULL,Schock,mshtuko,d,NA,NA,NA,NA,sdf,NA,0,NA,NA,NA,NA,NA,NA,NA,NA,NA,NA,NA,NA,NA,NA,NA,NA,NA,NA,NA
e32f1,Deep Question,html.Page,5_0_0_0_5_0_0,NA,NA,form submission,2329.7359999525,2495605.0999999,2495603.378,2495620.064,2497949.8,2497950.0999999,2023-05-12T12:18:46Z,2497958.497,NULL,Atmosphäre,angahewa,d,NA,NA,NA,NA,NA,NA,0,NA,NA,NA,NA,NA,NA,NA,NA,NA,NA,NA,NA,NA,NA,NA,NA,NA,NA,NA
e32f1,"""Richtig""-Screen",canvas.Screen,5_0_0_0_5_0_1,NA,NA,skipped,NA,2497952,NA,NA,2497949.8,2497952.0999999,2023-05-12T12:18:46Z,2497958.497,NULL,Atmosphäre,angahewa,d,NA,NA,NA,NA,sdf,NA,0,NA,NA,NA,NA,NA,NA,NA,NA,NA,NA,NA,NA,NA,NA,NA,NA,NA,NA,NA
e32f1,"""Falsch""-Screen",canvas.Screen,5_0_0_0_5_0_2,NA,NA,timeout,4995.0189999999,2497952.5999999,2497946.62,2497958.497,2502937.169,2502938.3,2023-05-12T12:18:51Z,2502953.516,NULL,Atmosphäre,angahewa,d,NA,NA,NA,NA,sdf,0,0,NA,NA,NA,NA,NA,NA,NA,NA,NA,NA,NA,NA,NA,NA,NA,NA,NA,NA,NA
e32f1,deep,flow.Sequence,5_0_0_0_5_0,NA,NA,completion,7317.1050000004,2495605.0999999,2495603.378,2495620.064,2502937.169,2502938.9,2023-05-12T12:18:51Z,2502953.516,NULL,Atmosphäre,angahewa,d,NA,NA,NA,NA,sdf,NA,0,NA,NA,NA,NA,NA,NA,NA,NA,NA,NA,NA,NA,NA,NA,NA,NA,NA,NA,NA
e32f1,shallow,flow.Sequence,5_0_0_0_5_1,NA,NA,skipped,NA,2502939.0999999,NA,NA,2502937.169,2502939.1999999,2023-05-12T12:18:51Z,2502953.516,NULL,Atmosphäre,angahewa,d,NA,NA,NA,NA,sdf,NA,0,NA,NA,NA,NA,NA,NA,NA,NA,NA,NA,NA,NA,NA,NA,NA,NA,NA,NA,NA
e32f1,task,flow.Sequence,5_0_0_0_5,NA,NA,completion,7317.1050000004,2495605.0999999,2495603.378,2495620.064,2502937.169,2502939.3,2023-05-12T12:18:51Z,2502953.516,NULL,Atmosphäre,angahewa,d,NA,NA,NA,NA,sdf,NA,0,NA,NA,NA,NA,NA,NA,NA,NA,NA,NA,NA,NA,NA,NA,NA,NA,NA,NA,NA
e32f1,Deep Question,html.Page,5_0_0_0_6_0_0,NA,NA,form submission,2555.6839999286,2502939.5,2502937.169,2502953.516,2505509.1999999,2505509.5,2023-05-12T12:18:54Z,2505524.757,NULL,Flexibilität,kubadilika,d,NA,NA,NA,NA,NA,NA,0,NA,NA,NA,NA,NA,NA,NA,NA,NA,NA,NA,NA,NA,NA,NA,NA,NA,NA,NA
e32f1,"""Richtig""-Screen",canvas.Screen,5_0_0_0_6_0_1,NA,NA,skipped,NA,2505511.3,NA,NA,2505509.1999999,2505511.5,2023-05-12T12:18:54Z,2505524.757,NULL,Flexibilität,kubadilika,d,NA,NA,NA,NA,sdf,NA,0,NA,NA,NA,NA,NA,NA,NA,NA,NA,NA,NA,NA,NA,NA,NA,NA,NA,NA,NA
e32f1,"""Falsch""-Screen",canvas.Screen,5_0_0_0_6_0_2,NA,NA,timeout,4994.7409999999,2505511.9,2505507.884,2505524.757,2510502.812,2510503.8,2023-05-12T12:18:59Z,2510519.498,NULL,Flexibilität,kubadilika,d,NA,NA,NA,NA,sdf,0,0,NA,NA,NA,NA,NA,NA,NA,NA,NA,NA,NA,NA,NA,NA,NA,NA,NA,NA,NA
e32f1,deep,flow.Sequence,5_0_0_0_6_0,NA,NA,completion,7549.2960000001,2502939.5,2502937.169,2502953.516,2510502.812,2510504.0999999,2023-05-12T12:18:59Z,2510519.498,NULL,Flexibilität,kubadilika,d,NA,NA,NA,NA,sdf,NA,0,NA,NA,NA,NA,NA,NA,NA,NA,NA,NA,NA,NA,NA,NA,NA,NA,NA,NA,NA
