observation,sender,sender_type,sender_id,response,response_action,ended_on,duration,time_run,time_render,time_show,time_end,time_commit,timestamp,time_switch,german,swahili,enc,distractor1,distractor2,distractor3,response_2,x,correct,distractors,url_vp,url_sess,meta_labjs_version,meta_location,meta_user_agent,meta_platform,meta_language,meta_locale,meta_time_zone,meta_timezone_offset,meta_screen_width,meta_screen_height,meta_scroll_width,meta_scroll_height,meta_window_inner_width,meta_window_inner_height,meta_device_pixel_ratio,meta_labjs_build_flavor,meta_labjs_build_commit
4ade5,Introduction delayed retrieval,canvas.Screen,0,weiter,keypress(Space),response,45073.938999988,1191.5,1187.112,1203.761,46277.699999988,46284,2023-10-13T09:41:24Z,46288.326,NA,NA,NA,NA,NA,NA,NA,NA,NA,NULL,134,2,20.2.4,https://neurocog.fernuni.ch/studies/vweber/aberisha/delayed/index.html?vp=134&sess=2,"Mozilla/5.0 (Windows NT 10.0; Win64; x64) AppleWebKit/537.36 (KHTML, like Gecko) Chrome/118.0.0.0 Safari/537.36",Win32,de-CH,de,Europe/Zurich,-120,1536,864,1536,659,1536,707,1.25,production,f5b4a49f956347addd546a832a3327688c2c0fef
4ade5,Deep Question,html.Page,1_0_0_0,NA,NA,form submission,7394.674,46284.299999982,46268.656,46288.326,53683,53683.199999988,2023-10-13T09:41:31Z,53685.812,Verstand,ufahamivu,s,shakawa,hadhari,mhandisi,huhani,NA,NA,NULL,NA,NA,NA,NA,NA,NA,NA,NA,NA,NA,NA,NA,NA,NA,NA,NA,NA,NA,NA
4ade5,Save data screen,canvas.Screen,1_0_0_1,NA,NA,timeout,499.911,53684.799999982,53671.361,53685.812,54169.087,54171.299999982,2023-10-13T09:41:32Z,54185.723,Verstand,ufahamivu,s,shakawa,hadhari,mhandisi,NA,NA,0,NULL,NA,NA,NA,NA,NA,NA,NA,NA,NA,NA,NA,NA,NA,NA,NA,NA,NA,NA,NA
4ade5,deep,flow.Sequence,1_0_0,NA,NA,completion,7880.761,46284.199999988,46268.656,46288.326,54169.087,54172.099999994,2023-10-13T09:41:32Z,54185.723,Verstand,ufahamivu,s,shakawa,hadhari,mhandisi,NA,NA,NA,NULL,NA,NA,NA,NA,NA,NA,NA,NA,NA,NA,NA,NA,NA,NA,NA,NA,NA,NA,NA
4ade5,task,flow.Sequence,1_0,NA,NA,completion,7880.761,46284.199999988,46268.656,46288.326,54169.087,54172.5,2023-10-13T09:41:32Z,54185.723,Verstand,ufahamivu,s,shakawa,hadhari,mhandisi,NA,NA,NA,NULL,NA,NA,NA,NA,NA,NA,NA,NA,NA,NA,NA,NA,NA,NA,NA,NA,NA,NA,NA
4ade5,Deep Question,html.Page,1_1_0_0,NA,NA,form submission,8123.6769999762,54173.099999994,54169.087,54185.723,62309.399999976,62309.599999994,2023-10-13T09:41:40Z,62316.176,Zuwachs,nyongeza,s,matilaba,udhibiti,hudhurio,ushani,NA,NA,NULL,NA,NA,NA,NA,NA,NA,NA,NA,NA,NA,NA,NA,NA,NA,NA,NA,NA,NA,NA
4ade5,Save data screen,canvas.Screen,1_1_0_1,NA,NA,timeout,500.068,62311,62299.527,62316.176,62799.426,62801.099999994,2023-10-13T09:41:40Z,62816.244,Zuwachs,nyongeza,s,matilaba,udhibiti,hudhurio,NA,NA,0,NULL,NA,NA,NA,NA,NA,NA,NA,NA,NA,NA,NA,NA,NA,NA,NA,NA,NA,NA,NA
4ade5,deep,flow.Sequence,1_1_0,NA,NA,completion,8613.703,54172.899999976,54169.087,54185.723,62799.426,62801.599999994,2023-10-13T09:41:40Z,62816.244,Zuwachs,nyongeza,s,matilaba,udhibiti,hudhurio,NA,NA,NA,NULL,NA,NA,NA,NA,NA,NA,NA,NA,NA,NA,NA,NA,NA,NA,NA,NA,NA,NA,NA
4ade5,task,flow.Sequence,1_1,NA,NA,completion,8613.703,54172.799999982,54169.087,54185.723,62799.426,62801.799999982,2023-10-13T09:41:40Z,62816.244,Zuwachs,nyongeza,s,matilaba,udhibiti,hudhurio,NA,NA,NA,NULL,NA,NA,NA,NA,NA,NA,NA,NA,NA,NA,NA,NA,NA,NA,NA,NA,NA,NA,NA
4ade5,Deep Question,html.Page,1_2_0_0,NA,NA,form submission,5650.355999994,62802,62799.426,62816.244,68466.599999994,68467,2023-10-13T09:41:46Z,68480.73,Symbol,kielezo,s,kinyume,nderemo,utayari,eleziti,NA,NA,NULL,NA,NA,NA,NA,NA,NA,NA,NA,NA,NA,NA,NA,NA,NA,NA,NA,NA,NA,NA
4ade5,Save data screen,canvas.Screen,1_2_0_1,NA,NA,timeout,500.356,68470,68464.466,68480.73,68964.069,68966,2023-10-13T09:41:46Z,68981.086,Symbol,kielezo,s,kinyume,nderemo,utayari,NA,NA,0,NULL,NA,NA,NA,NA,NA,NA,NA,NA,NA,NA,NA,NA,NA,NA,NA,NA,NA,NA,NA
4ade5,deep,flow.Sequence,1_2_0,NA,NA,completion,6147.825,62802,62799.426,62816.244,68964.069,68966.5,2023-10-13T09:41:46Z,68981.086,Symbol,kielezo,s,kinyume,nderemo,utayari,NA,NA,NA,NULL,NA,NA,NA,NA,NA,NA,NA,NA,NA,NA,NA,NA,NA,NA,NA,NA,NA,NA,NA
4ade5,task,flow.Sequence,1_2,NA,NA,completion,6147.825,62801.899999976,62799.426,62816.244,68964.069,68967.099999994,2023-10-13T09:41:46Z,68981.086,Symbol,kielezo,s,kinyume,nderemo,utayari,NA,NA,NA,NULL,NA,NA,NA,NA,NA,NA,NA,NA,NA,NA,NA,NA,NA,NA,NA,NA,NA,NA,NA
4ade5,Deep Question,html.Page,1_3_0_0,NA,NA,form submission,9003.414,68967.399999976,68964.069,68981.086,77984.5,77984.799999982,2023-10-13T09:41:55Z,77994.274,Wettbewerb,ushindani,d,mapendezi,kichocheo,ubaguzi,habiz,NA,NA,NULL,NA,NA,NA,NA,NA,NA,NA,NA,NA,NA,NA,NA,NA,NA,NA,NA,NA,NA,NA
4ade5,Save data screen,canvas.Screen,1_3_0_1,NA,NA,timeout,499.663,77988.099999994,77977.501,77994.274,78477.285,78477.799999982,2023-10-13T09:41:56Z,78493.937,Wettbewerb,ushindani,d,mapendezi,kichocheo,ubaguzi,NA,NA,0,NULL,NA,NA,NA,NA,NA,NA,NA,NA,NA,NA,NA,NA,NA,NA,NA,NA,NA,NA,NA
4ade5,deep,flow.Sequence,1_3_0,NA,NA,completion,9496.199,68967.399999976,68964.069,68981.086,78477.285,78477.899999976,2023-10-13T09:41:56Z,78493.937,Wettbewerb,ushindani,d,mapendezi,kichocheo,ubaguzi,NA,NA,NA,NULL,NA,NA,NA,NA,NA,NA,NA,NA,NA,NA,NA,NA,NA,NA,NA,NA,NA,NA,NA
4ade5,task,flow.Sequence,1_3,NA,NA,completion,9496.199,68967.299999982,68964.069,68981.086,78477.285,78477.899999976,2023-10-13T09:41:56Z,78493.937,Wettbewerb,ushindani,d,mapendezi,kichocheo,ubaguzi,NA,NA,NA,NULL,NA,NA,NA,NA,NA,NA,NA,NA,NA,NA,NA,NA,NA,NA,NA,NA,NA,NA,NA
4ade5,Deep Question,html.Page,1_4_0_0,NA,NA,form submission,7509.063,78478,78477.285,78493.937,86003,86003.199999988,2023-10-13T09:42:03Z,86008.036,Beweis,ushahidi,d,marudio,kizuizi,mtendaji,usanbi,NA,NA,NULL,NA,NA,NA,NA,NA,NA,NA,NA,NA,NA,NA,NA,NA,NA,NA,NA,NA,NA,NA
4ade5,Save data screen,canvas.Screen,1_4_0_1,NA,NA,timeout,500.04500000001,86006.299999982,85999.113,86008.036,86491.583,86492.699999988,2023-10-13T09:42:04Z,86508.081,Beweis,ushahidi,d,marudio,kizuizi,mtendaji,NA,NA,0,NULL,NA,NA,NA,NA,NA,NA,NA,NA,NA,NA,NA,NA,NA,NA,NA,NA,NA,NA,NA
4ade5,deep,flow.Sequence,1_4_0,NA,NA,completion,7997.646,78478,78477.285,78493.937,86491.583,86493.299999982,2023-10-13T09:42:04Z,86508.081,Beweis,ushahidi,d,marudio,kizuizi,mtendaji,NA,NA,NA,NULL,NA,NA,NA,NA,NA,NA,NA,NA,NA,NA,NA,NA,NA,NA,NA,NA,NA,NA,NA
4ade5,task,flow.Sequence,1_4,NA,NA,completion,7997.646,78478,78477.285,78493.937,86491.583,86493.599999994,2023-10-13T09:42:04Z,86508.081,Beweis,ushahidi,d,marudio,kizuizi,mtendaji,NA,NA,NA,NULL,NA,NA,NA,NA,NA,NA,NA,NA,NA,NA,NA,NA,NA,NA,NA,NA,NA,NA,NA
4ade5,Deep Question,html.Page,1_5_0_0,NA,NA,form submission,5444.1189999881,86493.899999976,86491.583,86508.081,91952.199999988,91952.5,2023-10-13T09:42:09Z,91956.013,Vorsorge,tahadhari,d,ufafanuzi,makini,mashambani,ghali,NA,NA,NULL,NA,NA,NA,NA,NA,NA,NA,NA,NA,NA,NA,NA,NA,NA,NA,NA,NA,NA,NA
4ade5,Save data screen,canvas.Screen,1_5_0_1,NA,NA,timeout,499.996,91955.5,91939.538,91956.013,92439.542,92441,2023-10-13T09:42:10Z,92456.009,Vorsorge,tahadhari,d,ufafanuzi,makini,mashambani,NA,NA,0,NULL,NA,NA,NA,NA,NA,NA,NA,NA,NA,NA,NA,NA,NA,NA,NA,NA,NA,NA,NA
4ade5,deep,flow.Sequence,1_5_0,NA,NA,completion,5931.461,86493.799999982,86491.583,86508.081,92439.542,92441.5,2023-10-13T09:42:10Z,92456.009,Vorsorge,tahadhari,d,ufafanuzi,makini,mashambani,NA,NA,NA,NULL,NA,NA,NA,NA,NA,NA,NA,NA,NA,NA,NA,NA,NA,NA,NA,NA,NA,NA,NA
4ade5,task,flow.Sequence,1_5,NA,NA,completion,5931.461,86493.799999982,86491.583,86508.081,92439.542,92441.799999982,2023-10-13T09:42:10Z,92456.009,Vorsorge,tahadhari,d,ufafanuzi,makini,mashambani,NA,NA,NA,NULL,NA,NA,NA,NA,NA,NA,NA,NA,NA,NA,NA,NA,NA,NA,NA,NA,NA,NA,NA
4ade5,Deep Question,html.Page,1_6_0_0,NA,NA,form submission,2199.7909999821,92442.199999988,92439.542,92456.009,94655.799999982,94656,2023-10-13T09:42:12Z,94672.063,Widerstand,usulubu,s,kusababisha,mwalimu,mwenendo,wjfu,NA,NA,NULL,NA,NA,NA,NA,NA,NA,NA,NA,NA,NA,NA,NA,NA,NA,NA,NA,NA,NA,NA
4ade5,Save data screen,canvas.Screen,1_6_0_1,NA,NA,timeout,499.891,94658.899999976,94655.323,94672.063,95155.025,95156.5,2023-10-13T09:42:13Z,95171.954,Widerstand,usulubu,s,kusababisha,mwalimu,mwenendo,NA,NA,0,NULL,NA,NA,NA,NA,NA,NA,NA,NA,NA,NA,NA,NA,NA,NA,NA,NA,NA,NA,NA
4ade5,deep,flow.Sequence,1_6_0,NA,NA,completion,2699.016,92442.099999994,92439.542,92456.009,95155.025,95156.899999976,2023-10-13T09:42:13Z,95171.954,Widerstand,usulubu,s,kusababisha,mwalimu,mwenendo,NA,NA,NA,NULL,NA,NA,NA,NA,NA,NA,NA,NA,NA,NA,NA,NA,NA,NA,NA,NA,NA,NA,NA
4ade5,task,flow.Sequence,1_6,NA,NA,completion,2699.016,92442,92439.542,92456.009,95155.025,95157.299999982,2023-10-13T09:42:13Z,95171.954,Widerstand,usulubu,s,kusababisha,mwalimu,mwenendo,NA,NA,NA,NULL,NA,NA,NA,NA,NA,NA,NA,NA,NA,NA,NA,NA,NA,NA,NA,NA,NA,NA,NA
4ade5,Deep Question,html.Page,1_7_0_0,NA,NA,form submission,9715.4459999762,95157.599999994,95155.025,95171.954,104887.39999998,104887.69999999,2023-10-13T09:42:22Z,104901.813,Schönheit,kirembo,s,mahojiano,msisimko,jitihadi,kemboza,NA,NA,NULL,NA,NA,NA,NA,NA,NA,NA,NA,NA,NA,NA,NA,NA,NA,NA,NA,NA,NA,NA
4ade5,Save data screen,canvas.Screen,1_7_0_1,NA,NA,timeout,499.958,104890.79999998,104884.907,104901.813,105385.198,105386.69999999,2023-10-13T09:42:23Z,105401.771,Schönheit,kirembo,s,mahojiano,msisimko,jitihadi,NA,NA,0,NULL,NA,NA,NA,NA,NA,NA,NA,NA,NA,NA,NA,NA,NA,NA,NA,NA,NA,NA,NA
4ade5,deep,flow.Sequence,1_7_0,NA,NA,completion,10213.244,95157.5,95155.025,95171.954,105385.198,105387.19999999,2023-10-13T09:42:23Z,105401.771,Schönheit,kirembo,s,mahojiano,msisimko,jitihadi,NA,NA,NA,NULL,NA,NA,NA,NA,NA,NA,NA,NA,NA,NA,NA,NA,NA,NA,NA,NA,NA,NA,NA
4ade5,task,flow.Sequence,1_7,NA,NA,completion,10213.244,95157.5,95155.025,95171.954,105385.198,105387.59999999,2023-10-13T09:42:23Z,105401.771,Schönheit,kirembo,s,mahojiano,msisimko,jitihadi,NA,NA,NA,NULL,NA,NA,NA,NA,NA,NA,NA,NA,NA,NA,NA,NA,NA,NA,NA,NA,NA,NA,NA
4ade5,Deep Question,html.Page,1_8_0_0,NA,NA,form submission,10160.128999976,105388,105385.198,105401.771,115561.89999998,115562.19999999,2023-10-13T09:42:33Z,115564.586,Sympathie,mapendano,s,dhamiria,fungamano,maazimio,mani,NA,NA,NULL,NA,NA,NA,NA,NA,NA,NA,NA,NA,NA,NA,NA,NA,NA,NA,NA,NA,NA,NA
4ade5,Save data screen,canvas.Screen,1_8_0_1,NA,NA,timeout,500.227,115563.79999998,115548.151,115564.586,116048.117,116049.79999998,2023-10-13T09:42:34Z,116064.813,Sympathie,mapendano,s,dhamiria,fungamano,maazimio,NA,NA,0,NULL,NA,NA,NA,NA,NA,NA,NA,NA,NA,NA,NA,NA,NA,NA,NA,NA,NA,NA,NA
4ade5,deep,flow.Sequence,1_8_0,NA,NA,completion,10646.346,105387.89999998,105385.198,105401.771,116048.117,116050.19999999,2023-10-13T09:42:34Z,116064.813,Sympathie,mapendano,s,dhamiria,fungamano,maazimio,NA,NA,NA,NULL,NA,NA,NA,NA,NA,NA,NA,NA,NA,NA,NA,NA,NA,NA,NA,NA,NA,NA,NA
4ade5,task,flow.Sequence,1_8,NA,NA,completion,10646.346,105387.79999998,105385.198,105401.771,116048.117,116050.5,2023-10-13T09:42:34Z,116064.813,Sympathie,mapendano,s,dhamiria,fungamano,maazimio,NA,NA,NA,NULL,NA,NA,NA,NA,NA,NA,NA,NA,NA,NA,NA,NA,NA,NA,NA,NA,NA,NA,NA
4ade5,Deep Question,html.Page,1_9_0_0,NA,NA,form submission,7584.4869999821,116050.89999998,116048.117,116064.813,123649.29999998,123649.5,2023-10-13T09:42:41Z,123661.91,Ausschluss,kutengwa,d,ununuzi,taratibu,madeni,elebezi,NA,NA,NULL,NA,NA,NA,NA,NA,NA,NA,NA,NA,NA,NA,NA,NA,NA,NA,NA,NA,NA,NA
4ade5,Save data screen,canvas.Screen,1_9_0_1,NA,NA,timeout,500.07699999999,123652.5,123645.535,123661.91,124145.074,124146.5,2023-10-13T09:42:42Z,124161.987,Ausschluss,kutengwa,d,ununuzi,taratibu,madeni,NA,NA,0,NULL,NA,NA,NA,NA,NA,NA,NA,NA,NA,NA,NA,NA,NA,NA,NA,NA,NA,NA,NA
4ade5,deep,flow.Sequence,1_9_0,NA,NA,completion,8080.261,116050.89999998,116048.117,116064.813,124145.074,124147,2023-10-13T09:42:42Z,124161.987,Ausschluss,kutengwa,d,ununuzi,taratibu,madeni,NA,NA,NA,NULL,NA,NA,NA,NA,NA,NA,NA,NA,NA,NA,NA,NA,NA,NA,NA,NA,NA,NA,NA
4ade5,task,flow.Sequence,1_9,NA,NA,completion,8080.261,116050.79999998,116048.117,116064.813,124145.074,124147.39999998,2023-10-13T09:42:42Z,124161.987,Ausschluss,kutengwa,d,ununuzi,taratibu,madeni,NA,NA,NA,NULL,NA,NA,NA,NA,NA,NA,NA,NA,NA,NA,NA,NA,NA,NA,NA,NA,NA,NA,NA
4ade5,Deep Question,html.Page,1_10_0_0,NA,NA,form submission,7144.8129999821,124147.89999998,124145.074,124161.987,131306.79999998,131307,2023-10-13T09:42:49Z,131309.208,Konkurrent,mshindani,d,msemaji,mvutaji,kipukusa,tahadhare,NA,NA,NULL,NA,NA,NA,NA,NA,NA,NA,NA,NA,NA,NA,NA,NA,NA,NA,NA,NA,NA,NA
4ade5,Save data screen,canvas.Screen,1_10_0_1,NA,NA,timeout,500.17799999999,131309.89999998,131292.629,131309.208,131792.782,131794.19999999,2023-10-13T09:42:49Z,131809.386,Konkurrent,mshindani,d,msemaji,mvutaji,kipukusa,NA,NA,0,NULL,NA,NA,NA,NA,NA,NA,NA,NA,NA,NA,NA,NA,NA,NA,NA,NA,NA,NA,NA
4ade5,deep,flow.Sequence,1_10_0,NA,NA,completion,7630.795,124147.59999999,124145.074,124161.987,131792.782,131794.69999999,2023-10-13T09:42:49Z,131809.386,Konkurrent,mshindani,d,msemaji,mvutaji,kipukusa,NA,NA,NA,NULL,NA,NA,NA,NA,NA,NA,NA,NA,NA,NA,NA,NA,NA,NA,NA,NA,NA,NA,NA
4ade5,task,flow.Sequence,1_10,NA,NA,completion,7630.795,124147.59999999,124145.074,124161.987,131792.782,131795,2023-10-13T09:42:49Z,131809.386,Konkurrent,mshindani,d,msemaji,mvutaji,kipukusa,NA,NA,NA,NULL,NA,NA,NA,NA,NA,NA,NA,NA,NA,NA,NA,NA,NA,NA,NA,NA,NA,NA,NA
4ade5,Deep Question,html.Page,1_11_0_0,NA,NA,form submission,17369.913999982,131795.39999998,131792.782,131809.386,149179.29999998,149179.59999999,2023-10-13T09:43:07Z,149186.45,Zufall,kikuti,s,kukosekana,uchoraji,leseni,kolu,NA,NA,NULL,NA,NA,NA,NA,NA,NA,NA,NA,NA,NA,NA,NA,NA,NA,NA,NA,NA,NA,NA
4ade5,Save data screen,canvas.Screen,1_11_0_1,NA,NA,timeout,500.07299999997,149182.69999999,149170.077,149186.45,149669.885,149671.09999999,2023-10-13T09:43:07Z,149686.523,Zufall,kikuti,s,kukosekana,uchoraji,leseni,NA,NA,0,NULL,NA,NA,NA,NA,NA,NA,NA,NA,NA,NA,NA,NA,NA,NA,NA,NA,NA,NA,NA
4ade5,deep,flow.Sequence,1_11_0,NA,NA,completion,17860.499,131795.29999998,131792.782,131809.386,149669.885,149671.5,2023-10-13T09:43:07Z,149686.523,Zufall,kikuti,s,kukosekana,uchoraji,leseni,NA,NA,NA,NULL,NA,NA,NA,NA,NA,NA,NA,NA,NA,NA,NA,NA,NA,NA,NA,NA,NA,NA,NA
4ade5,task,flow.Sequence,1_11,NA,NA,completion,17860.499,131795.19999999,131792.782,131809.386,149669.885,149671.79999998,2023-10-13T09:43:07Z,149686.523,Zufall,kikuti,s,kukosekana,uchoraji,leseni,NA,NA,NA,NULL,NA,NA,NA,NA,NA,NA,NA,NA,NA,NA,NA,NA,NA,NA,NA,NA,NA,NA,NA
4ade5,Deep Question,html.Page,1_12_0_0,NA,NA,form submission,24070.876999976,149672.09999999,149669.885,149686.523,173757.39999998,173757.59999999,2023-10-13T09:43:31Z,173761.357,Polizist,msongora,d,simanzi,mandhari,nidhamu,sumbo,NA,NA,NULL,NA,NA,NA,NA,NA,NA,NA,NA,NA,NA,NA,NA,NA,NA,NA,NA,NA,NA,NA
4ade5,Save data screen,canvas.Screen,1_12_0_1,NA,NA,timeout,500.16500000001,173760.59999999,173745.084,173761.357,174244.823,174246.09999999,2023-10-13T09:43:32Z,174261.522,Polizist,msongora,d,simanzi,mandhari,nidhamu,NA,NA,0,NULL,NA,NA,NA,NA,NA,NA,NA,NA,NA,NA,NA,NA,NA,NA,NA,NA,NA,NA,NA
4ade5,deep,flow.Sequence,1_12_0,NA,NA,completion,24558.3,149672,149669.885,149686.523,174244.823,174246.59999999,2023-10-13T09:43:32Z,174261.522,Polizist,msongora,d,simanzi,mandhari,nidhamu,NA,NA,NA,NULL,NA,NA,NA,NA,NA,NA,NA,NA,NA,NA,NA,NA,NA,NA,NA,NA,NA,NA,NA
4ade5,task,flow.Sequence,1_12,NA,NA,completion,24558.3,149672,149669.885,149686.523,174244.823,174246.89999998,2023-10-13T09:43:32Z,174261.522,Polizist,msongora,d,simanzi,mandhari,nidhamu,NA,NA,NA,NULL,NA,NA,NA,NA,NA,NA,NA,NA,NA,NA,NA,NA,NA,NA,NA,NA,NA,NA,NA
4ade5,Deep Question,html.Page,1_13_0_0,NA,NA,form submission,5601.6779999881,174247.5,174244.823,174261.522,179863.19999999,179863.5,2023-10-13T09:43:37Z,179876.106,Gelegenheit,wakati,d,mchanganyiko,kipaumbele,kushuku,hagani,NA,NA,NULL,NA,NA,NA,NA,NA,NA,NA,NA,NA,NA,NA,NA,NA,NA,NA,NA,NA,NA,NA
4ade5,Save data screen,canvas.Screen,1_13_0_1,NA,NA,timeout,499.70999999999,179865.29999998,179859.328,179876.106,180359.411,180360.09999999,2023-10-13T09:43:38Z,180375.816,Gelegenheit,wakati,d,mchanganyiko,kipaumbele,kushuku,NA,NA,0,NULL,NA,NA,NA,NA,NA,NA,NA,NA,NA,NA,NA,NA,NA,NA,NA,NA,NA,NA,NA
4ade5,deep,flow.Sequence,1_13_0,NA,NA,completion,6097.889,174247.5,174244.823,174261.522,180359.411,180360.29999998,2023-10-13T09:43:38Z,180375.816,Gelegenheit,wakati,d,mchanganyiko,kipaumbele,kushuku,NA,NA,NA,NULL,NA,NA,NA,NA,NA,NA,NA,NA,NA,NA,NA,NA,NA,NA,NA,NA,NA,NA,NA
4ade5,task,flow.Sequence,1_13,NA,NA,completion,6097.889,174247.19999999,174244.823,174261.522,180359.411,180360.39999998,2023-10-13T09:43:38Z,180375.816,Gelegenheit,wakati,d,mchanganyiko,kipaumbele,kushuku,NA,NA,NA,NULL,NA,NA,NA,NA,NA,NA,NA,NA,NA,NA,NA,NA,NA,NA,NA,NA,NA,NA,NA
4ade5,Deep Question,html.Page,1_14_0_0,NA,NA,form submission,3851.783999994,180360.5,180359.411,180375.816,184227.59999999,184227.69999999,2023-10-13T09:43:42Z,184241.274,Auftrag,uagizaji,d,ghanima,kuzingatia,msukani,loso,NA,NA,NULL,NA,NA,NA,NA,NA,NA,NA,NA,NA,NA,NA,NA,NA,NA,NA,NA,NA,NA,NA
4ade5,Save data screen,canvas.Screen,1_14_0_1,NA,NA,timeout,499.64600000001,184229.19999999,184224.507,184241.274,184724.284,184724.89999998,2023-10-13T09:43:42Z,184740.92,Auftrag,uagizaji,d,ghanima,kuzingatia,msukani,NA,NA,0,NULL,NA,NA,NA,NA,NA,NA,NA,NA,NA,NA,NA,NA,NA,NA,NA,NA,NA,NA,NA
4ade5,deep,flow.Sequence,1_14_0,NA,NA,completion,4348.468,180360.5,180359.411,180375.816,184724.284,184725,2023-10-13T09:43:42Z,184740.92,Auftrag,uagizaji,d,ghanima,kuzingatia,msukani,NA,NA,NA,NULL,NA,NA,NA,NA,NA,NA,NA,NA,NA,NA,NA,NA,NA,NA,NA,NA,NA,NA,NA
4ade5,task,flow.Sequence,1_14,NA,NA,completion,4348.468,180360.39999998,180359.411,180375.816,184724.284,184725.09999999,2023-10-13T09:43:42Z,184740.92,Auftrag,uagizaji,d,ghanima,kuzingatia,msukani,NA,NA,NA,NULL,NA,NA,NA,NA,NA,NA,NA,NA,NA,NA,NA,NA,NA,NA,NA,NA,NA,NA,NA
4ade5,Deep Question,html.Page,1_15_0_0,NA,NA,form submission,4127.3799999821,184725.19999999,184724.284,184740.92,188868.29999998,188868.5,2023-10-13T09:43:46Z,188872.821,Annäherung,maegesho,s,madahili,kujiamini,mapendekezo,bizi,NA,NA,NULL,NA,NA,NA,NA,NA,NA,NA,NA,NA,NA,NA,NA,NA,NA,NA,NA,NA,NA,NA
4ade5,Save data screen,canvas.Screen,1_15_0_1,NA,NA,timeout,500.17300000001,188871.5,188856.477,188872.821,189356.082,189357.39999998,2023-10-13T09:43:47Z,189372.994,Annäherung,maegesho,s,madahili,kujiamini,mapendekezo,NA,NA,0,NULL,NA,NA,NA,NA,NA,NA,NA,NA,NA,NA,NA,NA,NA,NA,NA,NA,NA,NA,NA
4ade5,deep,flow.Sequence,1_15_0,NA,NA,completion,4615.162,184725.19999999,184724.284,184740.92,189356.082,189357.89999998,2023-10-13T09:43:47Z,189372.994,Annäherung,maegesho,s,madahili,kujiamini,mapendekezo,NA,NA,NA,NULL,NA,NA,NA,NA,NA,NA,NA,NA,NA,NA,NA,NA,NA,NA,NA,NA,NA,NA,NA
4ade5,task,flow.Sequence,1_15,NA,NA,completion,4615.162,184725.09999999,184724.284,184740.92,189356.082,189358.19999999,2023-10-13T09:43:47Z,189372.994,Annäherung,maegesho,s,madahili,kujiamini,mapendekezo,NA,NA,NA,NULL,NA,NA,NA,NA,NA,NA,NA,NA,NA,NA,NA,NA,NA,NA,NA,NA,NA,NA,NA
4ade5,retrieval block 1 (cued recall),flow.Loop,1,NA,NA,completion,143067.756,46284.199999988,46268.656,46288.326,189356.082,189358.69999999,2023-10-13T09:43:47Z,189372.994,NA,NA,NA,NA,NA,NA,NA,NA,NA,NULL,NA,NA,NA,NA,NA,NA,NA,NA,NA,NA,NA,NA,NA,NA,NA,NA,NA,NA,NA
4ade5,Shallow Question,html.Page,2_0_0_0,NA,NA,form submission,11436.105999994,189359.39999998,189356.082,189372.994,200809.09999999,200809.39999998,2023-10-13T09:43:58Z,200818.94,Vorsorge,tahadhari,d,ufafanuzi,makini,mashambani,tahadhari,NA,NA,"c(""distractor1"", ""distractor2"", ""distractor3"")",NA,NA,NA,NA,NA,NA,NA,NA,NA,NA,NA,NA,NA,NA,NA,NA,NA,NA,NA
4ade5,Save data screen,canvas.Screen,2_0_0_1,NA,NA,timeout,499.81700000001,200812.19999999,200802.294,200818.94,201302.123,201303.29999998,2023-10-13T09:43:59Z,201318.757,Vorsorge,tahadhari,d,ufafanuzi,makini,mashambani,NA,NA,1,"c(""distractor1"", ""distractor2"", ""distractor3"")",NA,NA,NA,NA,NA,NA,NA,NA,NA,NA,NA,NA,NA,NA,NA,NA,NA,NA,NA
4ade5,shallow,flow.Sequence,2_0_0,NA,NA,completion,11929.129,189359.29999998,189356.082,189372.994,201302.123,201303.59999999,2023-10-13T09:43:59Z,201318.757,Vorsorge,tahadhari,d,ufafanuzi,makini,mashambani,NA,NA,NA,"c(""distractor1"", ""distractor2"", ""distractor3"")",NA,NA,NA,NA,NA,NA,NA,NA,NA,NA,NA,NA,NA,NA,NA,NA,NA,NA,NA
4ade5,task,flow.Sequence,2_0,NA,NA,completion,11929.129,189359.29999998,189356.082,189372.994,201302.123,201303.79999998,2023-10-13T09:43:59Z,201318.757,Vorsorge,tahadhari,d,ufafanuzi,makini,mashambani,NA,NA,NA,"c(""distractor1"", ""distractor2"", ""distractor3"")",NA,NA,NA,NA,NA,NA,NA,NA,NA,NA,NA,NA,NA,NA,NA,NA,NA,NA,NA
4ade5,Shallow Question,html.Page,2_1_0_0,NA,NA,form submission,5810.243,201304,201302.123,201318.757,207129,207129.29999998,2023-10-13T09:44:05Z,207133.241,Verstand,ufahamivu,s,shakawa,hadhari,mhandisi,ufahamivu,NA,NA,"c(""distractor1"", ""distractor2"", ""distractor3"")",NA,NA,NA,NA,NA,NA,NA,NA,NA,NA,NA,NA,NA,NA,NA,NA,NA,NA,NA
4ade5,Save data screen,canvas.Screen,2_1_0_1,NA,NA,timeout,499.90099999998,207132.09999999,207116.738,207133.241,207616.584,207617.89999998,2023-10-13T09:44:05Z,207633.142,Verstand,ufahamivu,s,shakawa,hadhari,mhandisi,NA,NA,1,"c(""distractor1"", ""distractor2"", ""distractor3"")",NA,NA,NA,NA,NA,NA,NA,NA,NA,NA,NA,NA,NA,NA,NA,NA,NA,NA,NA
4ade5,shallow,flow.Sequence,2_1_0,NA,NA,completion,6297.827,201304,201302.123,201318.757,207616.584,207618.29999998,2023-10-13T09:44:05Z,207633.142,Verstand,ufahamivu,s,shakawa,hadhari,mhandisi,NA,NA,NA,"c(""distractor1"", ""distractor2"", ""distractor3"")",NA,NA,NA,NA,NA,NA,NA,NA,NA,NA,NA,NA,NA,NA,NA,NA,NA,NA,NA
4ade5,task,flow.Sequence,2_1,NA,NA,completion,6297.827,201304,201302.123,201318.757,207616.584,207618.5,2023-10-13T09:44:05Z,207633.142,Verstand,ufahamivu,s,shakawa,hadhari,mhandisi,NA,NA,NA,"c(""distractor1"", ""distractor2"", ""distractor3"")",NA,NA,NA,NA,NA,NA,NA,NA,NA,NA,NA,NA,NA,NA,NA,NA,NA,NA,NA
4ade5,Shallow Question,html.Page,2_2_0_0,NA,NA,form submission,3835.858,207619,207616.584,207633.142,211469,211469.19999999,2023-10-13T09:44:09Z,211481.797,Polizist,msongora,d,simanzi,mandhari,nidhamu,msongora,NA,NA,"c(""distractor1"", ""distractor2"", ""distractor3"")",NA,NA,NA,NA,NA,NA,NA,NA,NA,NA,NA,NA,NA,NA,NA,NA,NA,NA,NA
4ade5,Save data screen,canvas.Screen,2_2_0_1,NA,NA,timeout,499.79000000001,211472,211466.436,211481.797,211965.007,211966.39999998,2023-10-13T09:44:09Z,211981.587,Polizist,msongora,d,simanzi,mandhari,nidhamu,NA,NA,1,"c(""distractor1"", ""distractor2"", ""distractor3"")",NA,NA,NA,NA,NA,NA,NA,NA,NA,NA,NA,NA,NA,NA,NA,NA,NA,NA,NA
4ade5,shallow,flow.Sequence,2_2_0,NA,NA,completion,4331.865,207619,207616.584,207633.142,211965.007,211966.89999998,2023-10-13T09:44:09Z,211981.587,Polizist,msongora,d,simanzi,mandhari,nidhamu,NA,NA,NA,"c(""distractor1"", ""distractor2"", ""distractor3"")",NA,NA,NA,NA,NA,NA,NA,NA,NA,NA,NA,NA,NA,NA,NA,NA,NA,NA,NA
4ade5,task,flow.Sequence,2_2,NA,NA,completion,4331.865,207618.79999998,207616.584,207633.142,211965.007,211967.19999999,2023-10-13T09:44:09Z,211981.587,Polizist,msongora,d,simanzi,mandhari,nidhamu,NA,NA,NA,"c(""distractor1"", ""distractor2"", ""distractor3"")",NA,NA,NA,NA,NA,NA,NA,NA,NA,NA,NA,NA,NA,NA,NA,NA,NA,NA,NA
4ade5,Shallow Question,html.Page,2_3_0_0,NA,NA,form submission,6581.512999994,211967.39999998,211965.007,211981.587,218563.09999999,218563.39999998,2023-10-13T09:44:16Z,218580.564,Beweis,ushahidi,d,marudio,kizuizi,mtendaji,ushahidi,NA,NA,"c(""distractor1"", ""distractor2"", ""distractor3"")",NA,NA,NA,NA,NA,NA,NA,NA,NA,NA,NA,NA,NA,NA,NA,NA,NA,NA,NA
4ade5,Save data screen,canvas.Screen,2_3_0_1,NA,NA,timeout,498.639,218566.19999999,218546.334,218580.564,219062.847,219064,2023-10-13T09:44:17Z,219079.203,Beweis,ushahidi,d,marudio,kizuizi,mtendaji,NA,NA,1,"c(""distractor1"", ""distractor2"", ""distractor3"")",NA,NA,NA,NA,NA,NA,NA,NA,NA,NA,NA,NA,NA,NA,NA,NA,NA,NA,NA
4ade5,shallow,flow.Sequence,2_3_0,NA,NA,completion,7081.26,211967.39999998,211965.007,211981.587,219062.847,219064.29999998,2023-10-13T09:44:17Z,219079.203,Beweis,ushahidi,d,marudio,kizuizi,mtendaji,NA,NA,NA,"c(""distractor1"", ""distractor2"", ""distractor3"")",NA,NA,NA,NA,NA,NA,NA,NA,NA,NA,NA,NA,NA,NA,NA,NA,NA,NA,NA
4ade5,task,flow.Sequence,2_3,NA,NA,completion,7081.26,211967.29999998,211965.007,211981.587,219062.847,219064.69999999,2023-10-13T09:44:17Z,219079.203,Beweis,ushahidi,d,marudio,kizuizi,mtendaji,NA,NA,NA,"c(""distractor1"", ""distractor2"", ""distractor3"")",NA,NA,NA,NA,NA,NA,NA,NA,NA,NA,NA,NA,NA,NA,NA,NA,NA,NA,NA
4ade5,Shallow Question,html.Page,2_4_0_0,NA,NA,form submission,4975.896999994,219064.89999998,219062.847,219079.203,224055.09999999,224055.39999998,2023-10-13T09:44:22Z,224060.773,Konkurrent,mshindani,d,msemaji,mvutaji,kipukusa,mshindani,NA,NA,"c(""distractor1"", ""distractor2"", ""distractor3"")",NA,NA,NA,NA,NA,NA,NA,NA,NA,NA,NA,NA,NA,NA,NA,NA,NA,NA,NA
4ade5,Save data screen,canvas.Screen,2_4_0_1,NA,NA,timeout,499.96000000002,224057.69999999,224044.253,224060.773,224544.324,224545.5,2023-10-13T09:44:22Z,224560.733,Konkurrent,mshindani,d,msemaji,mvutaji,kipukusa,NA,NA,1,"c(""distractor1"", ""distractor2"", ""distractor3"")",NA,NA,NA,NA,NA,NA,NA,NA,NA,NA,NA,NA,NA,NA,NA,NA,NA,NA,NA
4ade5,shallow,flow.Sequence,2_4_0,NA,NA,completion,5465.121,219064.89999998,219062.847,219079.203,224544.324,224546,2023-10-13T09:44:22Z,224560.733,Konkurrent,mshindani,d,msemaji,mvutaji,kipukusa,NA,NA,NA,"c(""distractor1"", ""distractor2"", ""distractor3"")",NA,NA,NA,NA,NA,NA,NA,NA,NA,NA,NA,NA,NA,NA,NA,NA,NA,NA,NA
4ade5,task,flow.Sequence,2_4,NA,NA,completion,5465.121,219064.79999998,219062.847,219079.203,224544.324,224546.39999998,2023-10-13T09:44:22Z,224560.733,Konkurrent,mshindani,d,msemaji,mvutaji,kipukusa,NA,NA,NA,"c(""distractor1"", ""distractor2"", ""distractor3"")",NA,NA,NA,NA,NA,NA,NA,NA,NA,NA,NA,NA,NA,NA,NA,NA,NA,NA,NA
4ade5,Shallow Question,html.Page,2_5_0_0,NA,NA,form submission,5205.866999994,224546.59999999,224544.324,224560.733,229766.59999999,229766.69999999,2023-10-13T09:44:27Z,229792.547,Zufall,kikuti,s,kukosekana,uchoraji,leseni,kikuti,NA,NA,"c(""distractor1"", ""distractor2"", ""distractor3"")",NA,NA,NA,NA,NA,NA,NA,NA,NA,NA,NA,NA,NA,NA,NA,NA,NA,NA,NA
4ade5,Save data screen,canvas.Screen,2_5_0_1,NA,NA,timeout,499.44400000002,229769.39999998,229775.859,229792.547,230275.411,230277,2023-10-13T09:44:28Z,230291.991,Zufall,kikuti,s,kukosekana,uchoraji,leseni,NA,NA,1,"c(""distractor1"", ""distractor2"", ""distractor3"")",NA,NA,NA,NA,NA,NA,NA,NA,NA,NA,NA,NA,NA,NA,NA,NA,NA,NA,NA
4ade5,shallow,flow.Sequence,2_5_0,NA,NA,completion,5714.678,224546.59999999,224544.324,224560.733,230275.411,230277.29999998,2023-10-13T09:44:28Z,230291.991,Zufall,kikuti,s,kukosekana,uchoraji,leseni,NA,NA,NA,"c(""distractor1"", ""distractor2"", ""distractor3"")",NA,NA,NA,NA,NA,NA,NA,NA,NA,NA,NA,NA,NA,NA,NA,NA,NA,NA,NA
4ade5,task,flow.Sequence,2_5,NA,NA,completion,5714.678,224546.5,224544.324,224560.733,230275.411,230277.69999999,2023-10-13T09:44:28Z,230291.991,Zufall,kikuti,s,kukosekana,uchoraji,leseni,NA,NA,NA,"c(""distractor1"", ""distractor2"", ""distractor3"")",NA,NA,NA,NA,NA,NA,NA,NA,NA,NA,NA,NA,NA,NA,NA,NA,NA,NA,NA
4ade5,Shallow Question,html.Page,2_6_0_0,NA,NA,form submission,3337.009,230278,230275.411,230291.991,233629,233629.29999998,2023-10-13T09:44:31Z,233641.142,Schönheit,kirembo,s,mahojiano,msisimko,jitihadi,kirembo,NA,NA,"c(""distractor1"", ""distractor2"", ""distractor3"")",NA,NA,NA,NA,NA,NA,NA,NA,NA,NA,NA,NA,NA,NA,NA,NA,NA,NA,NA
4ade5,Save data screen,canvas.Screen,2_6_0_1,NA,NA,timeout,499.60400000002,233632.09999999,233624.55,233641.142,234123.985,234124.69999999,2023-10-13T09:44:32Z,234140.746,Schönheit,kirembo,s,mahojiano,msisimko,jitihadi,NA,NA,1,"c(""distractor1"", ""distractor2"", ""distractor3"")",NA,NA,NA,NA,NA,NA,NA,NA,NA,NA,NA,NA,NA,NA,NA,NA,NA,NA,NA
4ade5,shallow,flow.Sequence,2_6_0,NA,NA,completion,3831.994,230277.89999998,230275.411,230291.991,234123.985,234124.89999998,2023-10-13T09:44:32Z,234140.746,Schönheit,kirembo,s,mahojiano,msisimko,jitihadi,NA,NA,NA,"c(""distractor1"", ""distractor2"", ""distractor3"")",NA,NA,NA,NA,NA,NA,NA,NA,NA,NA,NA,NA,NA,NA,NA,NA,NA,NA,NA
4ade5,task,flow.Sequence,2_6,NA,NA,completion,3831.994,230277.79999998,230275.411,230291.991,234123.985,234125.19999999,2023-10-13T09:44:32Z,234140.746,Schönheit,kirembo,s,mahojiano,msisimko,jitihadi,NA,NA,NA,"c(""distractor1"", ""distractor2"", ""distractor3"")",NA,NA,NA,NA,NA,NA,NA,NA,NA,NA,NA,NA,NA,NA,NA,NA,NA,NA,NA
4ade5,Shallow Question,html.Page,2_7_0_0,NA,NA,form submission,4482.254,234125.29999998,234123.985,234140.746,238623,238623.19999999,2023-10-13T09:44:36Z,238640.7,Widerstand,usulubu,s,kusababisha,mwalimu,mwenendo,usulubu,NA,NA,"c(""distractor1"", ""distractor2"", ""distractor3"")",NA,NA,NA,NA,NA,NA,NA,NA,NA,NA,NA,NA,NA,NA,NA,NA,NA,NA,NA
4ade5,Save data screen,canvas.Screen,2_7_0_1,NA,NA,timeout,498.26499999998,238626.29999998,238606.085,238640.7,239122.505,239123.09999999,2023-10-13T09:44:37Z,239138.965,Widerstand,usulubu,s,kusababisha,mwalimu,mwenendo,NA,NA,1,"c(""distractor1"", ""distractor2"", ""distractor3"")",NA,NA,NA,NA,NA,NA,NA,NA,NA,NA,NA,NA,NA,NA,NA,NA,NA,NA,NA
4ade5,shallow,flow.Sequence,2_7_0,NA,NA,completion,4981.759,234125.19999999,234123.985,234140.746,239122.505,239123.29999998,2023-10-13T09:44:37Z,239138.965,Widerstand,usulubu,s,kusababisha,mwalimu,mwenendo,NA,NA,NA,"c(""distractor1"", ""distractor2"", ""distractor3"")",NA,NA,NA,NA,NA,NA,NA,NA,NA,NA,NA,NA,NA,NA,NA,NA,NA,NA,NA
4ade5,task,flow.Sequence,2_7,NA,NA,completion,4981.759,234125.19999999,234123.985,234140.746,239122.505,239123.29999998,2023-10-13T09:44:37Z,239138.965,Widerstand,usulubu,s,kusababisha,mwalimu,mwenendo,NA,NA,NA,"c(""distractor1"", ""distractor2"", ""distractor3"")",NA,NA,NA,NA,NA,NA,NA,NA,NA,NA,NA,NA,NA,NA,NA,NA,NA,NA,NA
4ade5,Shallow Question,html.Page,2_8_0_0,NA,NA,form submission,7583.8349999821,239123.5,239122.505,239138.965,246722.79999998,246723.09999999,2023-10-13T09:44:44Z,246736.462,Zuwachs,nyongeza,s,matilaba,udhibiti,hudhurio,nyongeza,NA,NA,"c(""distractor1"", ""distractor2"", ""distractor3"")",NA,NA,NA,NA,NA,NA,NA,NA,NA,NA,NA,NA,NA,NA,NA,NA,NA,NA,NA
4ade5,Save data screen,canvas.Screen,2_8_0_1,NA,NA,timeout,499.76199999999,246725.89999998,246719.903,246736.462,247219.588,247220.79999998,2023-10-13T09:44:45Z,247236.224,Zuwachs,nyongeza,s,matilaba,udhibiti,hudhurio,NA,NA,1,"c(""distractor1"", ""distractor2"", ""distractor3"")",NA,NA,NA,NA,NA,NA,NA,NA,NA,NA,NA,NA,NA,NA,NA,NA,NA,NA,NA
4ade5,shallow,flow.Sequence,2_8_0,NA,NA,completion,8080.623,239123.39999998,239122.505,239138.965,247219.588,247221.19999999,2023-10-13T09:44:45Z,247236.224,Zuwachs,nyongeza,s,matilaba,udhibiti,hudhurio,NA,NA,NA,"c(""distractor1"", ""distractor2"", ""distractor3"")",NA,NA,NA,NA,NA,NA,NA,NA,NA,NA,NA,NA,NA,NA,NA,NA,NA,NA,NA
4ade5,task,flow.Sequence,2_8,NA,NA,completion,8080.623,239123.39999998,239122.505,239138.965,247219.588,247221.5,2023-10-13T09:44:45Z,247236.224,Zuwachs,nyongeza,s,matilaba,udhibiti,hudhurio,NA,NA,NA,"c(""distractor1"", ""distractor2"", ""distractor3"")",NA,NA,NA,NA,NA,NA,NA,NA,NA,NA,NA,NA,NA,NA,NA,NA,NA,NA,NA
4ade5,Shallow Question,html.Page,2_9_0_0,NA,NA,form submission,6316.6759999762,247221.79999998,247219.588,247236.224,253552.89999998,253553.09999999,2023-10-13T09:44:51Z,253567.654,Auftrag,uagizaji,d,ghanima,kuzingatia,msukani,uagizaji,NA,NA,"c(""distractor1"", ""distractor2"", ""distractor3"")",NA,NA,NA,NA,NA,NA,NA,NA,NA,NA,NA,NA,NA,NA,NA,NA,NA,NA,NA
4ade5,Save data screen,canvas.Screen,2_9_0_1,NA,NA,timeout,499.57799999998,253555.79999998,253551.028,253567.654,254050.589,254051.5,2023-10-13T09:44:52Z,254067.232,Auftrag,uagizaji,d,ghanima,kuzingatia,msukani,NA,NA,1,"c(""distractor1"", ""distractor2"", ""distractor3"")",NA,NA,NA,NA,NA,NA,NA,NA,NA,NA,NA,NA,NA,NA,NA,NA,NA,NA,NA
4ade5,shallow,flow.Sequence,2_9_0,NA,NA,completion,6814.365,247221.69999999,247219.588,247236.224,254050.589,254051.79999998,2023-10-13T09:44:52Z,254067.232,Auftrag,uagizaji,d,ghanima,kuzingatia,msukani,NA,NA,NA,"c(""distractor1"", ""distractor2"", ""distractor3"")",NA,NA,NA,NA,NA,NA,NA,NA,NA,NA,NA,NA,NA,NA,NA,NA,NA,NA,NA
4ade5,task,flow.Sequence,2_9,NA,NA,completion,6814.365,247221.69999999,247219.588,247236.224,254050.589,254052,2023-10-13T09:44:52Z,254067.232,Auftrag,uagizaji,d,ghanima,kuzingatia,msukani,NA,NA,NA,"c(""distractor1"", ""distractor2"", ""distractor3"")",NA,NA,NA,NA,NA,NA,NA,NA,NA,NA,NA,NA,NA,NA,NA,NA,NA,NA,NA
4ade5,Shallow Question,html.Page,2_10_0_0,NA,NA,form submission,9373.4679999881,254052.29999998,254050.589,254067.232,263440.69999999,263441,2023-10-13T09:45:01Z,263463.966,Wettbewerb,ushindani,d,mapendezi,kichocheo,ubaguzi,ushindani,NA,NA,"c(""distractor1"", ""distractor2"", ""distractor3"")",NA,NA,NA,NA,NA,NA,NA,NA,NA,NA,NA,NA,NA,NA,NA,NA,NA,NA,NA
4ade5,Save data screen,canvas.Screen,2_10_0_1,NA,NA,timeout,499.99599999998,263444,263447.289,263463.966,263947.233,263948.79999998,2023-10-13T09:45:01Z,263963.962,Wettbewerb,ushindani,d,mapendezi,kichocheo,ubaguzi,NA,NA,1,"c(""distractor1"", ""distractor2"", ""distractor3"")",NA,NA,NA,NA,NA,NA,NA,NA,NA,NA,NA,NA,NA,NA,NA,NA,NA,NA,NA
4ade5,shallow,flow.Sequence,2_10_0,NA,NA,completion,9880.001,254052.09999999,254050.589,254067.232,263947.233,263949.19999999,2023-10-13T09:45:01Z,263963.962,Wettbewerb,ushindani,d,mapendezi,kichocheo,ubaguzi,NA,NA,NA,"c(""distractor1"", ""distractor2"", ""distractor3"")",NA,NA,NA,NA,NA,NA,NA,NA,NA,NA,NA,NA,NA,NA,NA,NA,NA,NA,NA
4ade5,task,flow.Sequence,2_10,NA,NA,completion,9880.001,254052.09999999,254050.589,254067.232,263947.233,263949.5,2023-10-13T09:45:01Z,263963.962,Wettbewerb,ushindani,d,mapendezi,kichocheo,ubaguzi,NA,NA,NA,"c(""distractor1"", ""distractor2"", ""distractor3"")",NA,NA,NA,NA,NA,NA,NA,NA,NA,NA,NA,NA,NA,NA,NA,NA,NA,NA,NA
4ade5,Shallow Question,html.Page,2_11_0_0,NA,NA,form submission,4352.8379999821,263949.79999998,263947.233,263963.962,268316.79999998,268317.09999999,2023-10-13T09:45:06Z,268329.248,Sympathie,mapendano,s,dhamiria,fungamano,maazimio,mapendano,NA,NA,"c(""distractor1"", ""distractor2"", ""distractor3"")",NA,NA,NA,NA,NA,NA,NA,NA,NA,NA,NA,NA,NA,NA,NA,NA,NA,NA,NA
4ade5,Save data screen,canvas.Screen,2_11_0_1,NA,NA,timeout,499.58499999996,268319.79999998,268312.65,268329.248,268812.253,268813.39999998,2023-10-13T09:45:06Z,268828.833,Sympathie,mapendano,s,dhamiria,fungamano,maazimio,NA,NA,1,"c(""distractor1"", ""distractor2"", ""distractor3"")",NA,NA,NA,NA,NA,NA,NA,NA,NA,NA,NA,NA,NA,NA,NA,NA,NA,NA,NA
4ade5,shallow,flow.Sequence,2_11_0,NA,NA,completion,4848.291,263949.69999999,263947.233,263963.962,268812.253,268813.69999999,2023-10-13T09:45:06Z,268828.833,Sympathie,mapendano,s,dhamiria,fungamano,maazimio,NA,NA,NA,"c(""distractor1"", ""distractor2"", ""distractor3"")",NA,NA,NA,NA,NA,NA,NA,NA,NA,NA,NA,NA,NA,NA,NA,NA,NA,NA,NA
4ade5,task,flow.Sequence,2_11,NA,NA,completion,4848.291,263949.69999999,263947.233,263963.962,268812.253,268813.79999998,2023-10-13T09:45:06Z,268828.833,Sympathie,mapendano,s,dhamiria,fungamano,maazimio,NA,NA,NA,"c(""distractor1"", ""distractor2"", ""distractor3"")",NA,NA,NA,NA,NA,NA,NA,NA,NA,NA,NA,NA,NA,NA,NA,NA,NA,NA,NA
4ade5,Shallow Question,html.Page,2_12_0_0,NA,NA,form submission,3739.9669999821,268814,268812.253,268828.833,272568.79999998,272569,2023-10-13T09:45:10Z,272577.455,Symbol,kielezo,s,kinyume,nderemo,utayari,kielezo,NA,NA,"c(""distractor1"", ""distractor2"", ""distractor3"")",NA,NA,NA,NA,NA,NA,NA,NA,NA,NA,NA,NA,NA,NA,NA,NA,NA,NA,NA
4ade5,Save data screen,canvas.Screen,2_12_0_1,NA,NA,timeout,500.04300000001,272571.79999998,272561.145,272577.455,273060.791,273061.39999998,2023-10-13T09:45:11Z,273077.498,Symbol,kielezo,s,kinyume,nderemo,utayari,NA,NA,1,"c(""distractor1"", ""distractor2"", ""distractor3"")",NA,NA,NA,NA,NA,NA,NA,NA,NA,NA,NA,NA,NA,NA,NA,NA,NA,NA,NA
4ade5,shallow,flow.Sequence,2_12_0,NA,NA,completion,4231.958,268813.89999998,268812.253,268828.833,273060.791,273061.5,2023-10-13T09:45:11Z,273077.498,Symbol,kielezo,s,kinyume,nderemo,utayari,NA,NA,NA,"c(""distractor1"", ""distractor2"", ""distractor3"")",NA,NA,NA,NA,NA,NA,NA,NA,NA,NA,NA,NA,NA,NA,NA,NA,NA,NA,NA
4ade5,task,flow.Sequence,2_12,NA,NA,completion,4231.958,268813.89999998,268812.253,268828.833,273060.791,273061.69999999,2023-10-13T09:45:11Z,273077.498,Symbol,kielezo,s,kinyume,nderemo,utayari,NA,NA,NA,"c(""distractor1"", ""distractor2"", ""distractor3"")",NA,NA,NA,NA,NA,NA,NA,NA,NA,NA,NA,NA,NA,NA,NA,NA,NA,NA,NA
4ade5,Shallow Question,html.Page,2_13_0_0,NA,NA,form submission,8339.4019999761,273061.79999998,273060.791,273077.498,281416.89999998,281417.19999999,2023-10-13T09:45:19Z,281424.639,Ausschluss,kutengwa,d,ununuzi,taratibu,madeni,kutengwa,NA,NA,"c(""distractor1"", ""distractor2"", ""distractor3"")",NA,NA,NA,NA,NA,NA,NA,NA,NA,NA,NA,NA,NA,NA,NA,NA,NA,NA,NA
4ade5,Save data screen,canvas.Screen,2_13_0_1,NA,NA,timeout,499.69999999995,281420.19999999,281408.238,281424.639,281907.708,281909.09999999,2023-10-13T09:45:19Z,281924.339,Ausschluss,kutengwa,d,ununuzi,taratibu,madeni,NA,NA,1,"c(""distractor1"", ""distractor2"", ""distractor3"")",NA,NA,NA,NA,NA,NA,NA,NA,NA,NA,NA,NA,NA,NA,NA,NA,NA,NA,NA
4ade5,shallow,flow.Sequence,2_13_0,NA,NA,completion,8830.21,273061.79999998,273060.791,273077.498,281907.708,281909.59999999,2023-10-13T09:45:19Z,281924.339,Ausschluss,kutengwa,d,ununuzi,taratibu,madeni,NA,NA,NA,"c(""distractor1"", ""distractor2"", ""distractor3"")",NA,NA,NA,NA,NA,NA,NA,NA,NA,NA,NA,NA,NA,NA,NA,NA,NA,NA,NA
4ade5,task,flow.Sequence,2_13,NA,NA,completion,8830.21,273061.69999999,273060.791,273077.498,281907.708,281909.79999998,2023-10-13T09:45:19Z,281924.339,Ausschluss,kutengwa,d,ununuzi,taratibu,madeni,NA,NA,NA,"c(""distractor1"", ""distractor2"", ""distractor3"")",NA,NA,NA,NA,NA,NA,NA,NA,NA,NA,NA,NA,NA,NA,NA,NA,NA,NA,NA
4ade5,Shallow Question,html.Page,2_14_0_0,NA,NA,form submission,6502.3609999881,281910.09999999,281907.708,281924.339,288426.69999999,288427,2023-10-13T09:45:26Z,288455.531,Annäherung,maegesho,s,madahili,kujiamini,mapendekezo,maegesho,NA,NA,"c(""distractor1"", ""distractor2"", ""distractor3"")",NA,NA,NA,NA,NA,NA,NA,NA,NA,NA,NA,NA,NA,NA,NA,NA,NA,NA,NA
4ade5,Save data screen,canvas.Screen,2_14_0_1,NA,NA,timeout,499.87699999998,288429.79999998,288438.731,288455.531,288938.877,288939.5,2023-10-13T09:45:26Z,288955.408,Annäherung,maegesho,s,madahili,kujiamini,mapendekezo,NA,NA,1,"c(""distractor1"", ""distractor2"", ""distractor3"")",NA,NA,NA,NA,NA,NA,NA,NA,NA,NA,NA,NA,NA,NA,NA,NA,NA,NA,NA
4ade5,shallow,flow.Sequence,2_14_0,NA,NA,completion,7014.538,281910.09999999,281907.708,281924.339,288938.877,288939.69999999,2023-10-13T09:45:26Z,288955.408,Annäherung,maegesho,s,madahili,kujiamini,mapendekezo,NA,NA,NA,"c(""distractor1"", ""distractor2"", ""distractor3"")",NA,NA,NA,NA,NA,NA,NA,NA,NA,NA,NA,NA,NA,NA,NA,NA,NA,NA,NA
4ade5,task,flow.Sequence,2_14,NA,NA,completion,7014.538,281910,281907.708,281924.339,288938.877,288939.79999998,2023-10-13T09:45:26Z,288955.408,Annäherung,maegesho,s,madahili,kujiamini,mapendekezo,NA,NA,NA,"c(""distractor1"", ""distractor2"", ""distractor3"")",NA,NA,NA,NA,NA,NA,NA,NA,NA,NA,NA,NA,NA,NA,NA,NA,NA,NA,NA
4ade5,Shallow Question,html.Page,2_15_0_0,NA,NA,form submission,4195.2919999881,288939.89999998,288938.877,288955.408,293150.69999999,293151,2023-10-13T09:45:31Z,293153.788,Gelegenheit,wakati,d,mchanganyiko,kipaumbele,kushuku,wakati,NA,NA,"c(""distractor1"", ""distractor2"", ""distractor3"")",NA,NA,NA,NA,NA,NA,NA,NA,NA,NA,NA,NA,NA,NA,NA,NA,NA,NA,NA
4ade5,Save data screen,canvas.Screen,2_15_0_1,NA,NA,timeout,499.99900000001,293153.69999999,293137.361,293153.788,293637.202,293638.29999998,2023-10-13T09:45:31Z,293653.787,Gelegenheit,wakati,d,mchanganyiko,kipaumbele,kushuku,NA,NA,1,"c(""distractor1"", ""distractor2"", ""distractor3"")",NA,NA,NA,NA,NA,NA,NA,NA,NA,NA,NA,NA,NA,NA,NA,NA,NA,NA,NA
4ade5,shallow,flow.Sequence,2_15_0,NA,NA,completion,4681.794,288939.79999998,288938.877,288955.408,293637.202,293638.59999999,2023-10-13T09:45:31Z,293653.787,Gelegenheit,wakati,d,mchanganyiko,kipaumbele,kushuku,NA,NA,NA,"c(""distractor1"", ""distractor2"", ""distractor3"")",NA,NA,NA,NA,NA,NA,NA,NA,NA,NA,NA,NA,NA,NA,NA,NA,NA,NA,NA
4ade5,task,flow.Sequence,2_15,NA,NA,completion,4681.794,288939.79999998,288938.877,288955.408,293637.202,293638.69999999,2023-10-13T09:45:31Z,293653.787,Gelegenheit,wakati,d,mchanganyiko,kipaumbele,kushuku,NA,NA,NA,"c(""distractor1"", ""distractor2"", ""distractor3"")",NA,NA,NA,NA,NA,NA,NA,NA,NA,NA,NA,NA,NA,NA,NA,NA,NA,NA,NA
4ade5,retrieval block 2 (multiple choice),flow.Loop,2,NA,NA,completion,104264.208,189359.19999999,189356.082,189372.994,293637.202,293639,2023-10-13T09:45:31Z,293653.787,NA,NA,NA,NA,NA,NA,NA,NA,NA,"c(""distractor1"", ""distractor2"", ""distractor3"")",NA,NA,NA,NA,NA,NA,NA,NA,NA,NA,NA,NA,NA,NA,NA,NA,NA,NA,NA
4ade5,End,canvas.Screen,3,NA,keypress(Space),response,2604.1129999761,293639.09999999,293637.202,293653.787,296257.89999998,296264.5,2023-10-13T09:45:34Z,296269.771,NA,NA,NA,NA,NA,NA,NA,NA,NA,NULL,NA,NA,NA,NA,NA,NA,NA,NA,NA,NA,NA,NA,NA,NA,NA,NA,NA,NA,NA
4ade5,root,flow.Sequence,NA,NA,NA,completion,295054.13899998,1191.2999999821,1187.112,1203.761,296257.89999998,296264.79999998,2023-10-13T09:45:34Z,296269.771,NA,NA,NA,NA,NA,NA,NA,NA,NA,NULL,NA,NA,NA,NA,NA,NA,NA,NA,NA,NA,NA,NA,NA,NA,NA,NA,NA,NA,NA
