observation,sender,sender_type,sender_id,response,response_action,ended_on,duration,time_run,time_render,time_show,time_end,time_commit,timestamp,time_switch,distractors,german,swahili,enc,distractor1,distractor2,distractor3,response_2,x,correct,x_2,url_vp,url_sess,meta_labjs_version,meta_location,meta_user_agent,meta_platform,meta_language,meta_locale,meta_time_zone,meta_timezone_offset,meta_screen_width,meta_screen_height,meta_scroll_width,meta_scroll_height,meta_window_inner_width,meta_window_inner_height,meta_device_pixel_ratio,meta_labjs_build_flavor,meta_labjs_build_commit
7b803,Introduction general,canvas.Screen,0,weiter,keypress(q),response,52213.38,2269,2265.96,2282.62,54496,54541,2023-10-13T09:00:45Z,54545.22,NULL,NA,NA,NA,NA,NA,NA,NA,NA,NA,NA,147,1,20.2.4,https://neurocog.fernuni.ch/studies/vweber/jbaenninger/encoding_immediate/index.html?vp=147&sess=1,Mozilla/5.0 (Windows NT 10.0; Win64; x64; rv:109.0) Gecko/20100101 Firefox/118.0,Win32,de,de-CH,Europe/Zurich,-120,1280,720,1280,595,1280,595,1.5,production,f5b4a49f956347addd546a832a3327688c2c0fef
7b803,Introduction practice,canvas.Screen,1_0,NA,keypress(Space),response,11918.78,54545,54544.78,54545.22,66464,66480,2023-10-13T09:00:57Z,66482.64,NULL,NA,NA,NA,NA,NA,NA,NA,NA,NA,NA,NA,NA,NA,NA,NA,NA,NA,NA,NA,NA,NA,NA,NA,NA,NA,NA,NA,NA,NA
7b803,Deep Question,html.Page,1_1_0_0_0,NA,NA,form submission,17299.36,66482,66482.04,66482.64,83782,83784,2023-10-13T09:01:14Z,83798.94,"c(""distractor1"", ""distractor2"", ""distractor3"")",Schatten,kivuli,d,NA,NA,NA,trubel,NA,NA,NA,NA,NA,NA,NA,NA,NA,NA,NA,NA,NA,NA,NA,NA,NA,NA,NA,NA,NA,NA
7b803,"""Richtig""-Screen",canvas.Screen,1_1_0_0_1,NA,NA,skipped,NA,83792,NA,NA,83782,83792,2023-10-13T09:01:14Z,83798.94,"c(""distractor1"", ""distractor2"", ""distractor3"")",Schatten,kivuli,d,NA,NA,NA,NA,NA,NA,NA,NA,NA,NA,NA,NA,NA,NA,NA,NA,NA,NA,NA,NA,NA,NA,NA,NA,NA,NA
7b803,"""Falsch""-Screen",canvas.Screen,1_1_0_0_2,NA,NA,timeout,5012.58,83797,83753.18,83798.94,88778.22,88780,2023-10-13T09:01:19Z,88811.52,"c(""distractor1"", ""distractor2"", ""distractor3"")",Schatten,kivuli,d,NA,NA,NA,NA,NA,0,NA,NA,NA,NA,NA,NA,NA,NA,NA,NA,NA,NA,NA,NA,NA,NA,NA,NA,NA,NA
7b803,deep,flow.Sequence,1_1_0_0,NA,NA,completion,22295.58,66481,66482.04,66482.64,88778.22,88781,2023-10-13T09:01:19Z,88811.52,"c(""distractor1"", ""distractor2"", ""distractor3"")",Schatten,kivuli,d,NA,NA,NA,NA,NA,NA,NA,NA,NA,NA,NA,NA,NA,NA,NA,NA,NA,NA,NA,NA,NA,NA,NA,NA,NA,NA
7b803,shallow,flow.Sequence,1_1_0_1,NA,NA,skipped,NA,88782,NA,NA,88778.22,88783,2023-10-13T09:01:19Z,88811.52,"c(""distractor1"", ""distractor2"", ""distractor3"")",Schatten,kivuli,d,NA,NA,NA,NA,NA,NA,NA,NA,NA,NA,NA,NA,NA,NA,NA,NA,NA,NA,NA,NA,NA,NA,NA,NA,NA,NA
7b803,task,flow.Sequence,1_1_0,NA,NA,completion,22295.58,66481,66482.04,66482.64,88778.22,88783,2023-10-13T09:01:19Z,88811.52,"c(""distractor1"", ""distractor2"", ""distractor3"")",Schatten,kivuli,d,NA,NA,NA,NA,NA,NA,NA,NA,NA,NA,NA,NA,NA,NA,NA,NA,NA,NA,NA,NA,NA,NA,NA,NA,NA,NA
7b803,deep,flow.Sequence,1_1_1_0,NA,NA,skipped,NA,88785,NA,NA,88778.22,88785,2023-10-13T09:01:19Z,88811.52,"c(""distractor1"", ""distractor2"", ""distractor3"")",Rückhalt,msaada,s,muhula,auwali,kiwimbe,NA,NA,NA,NA,NA,NA,NA,NA,NA,NA,NA,NA,NA,NA,NA,NA,NA,NA,NA,NA,NA,NA,NA
7b803,Shallow Question,html.Page,1_1_1_1_0,NA,NA,form submission,9738.48,88786,88778.22,88811.52,98550,98552,2023-10-13T09:01:29Z,98553.46,"c(""distractor1"", ""distractor2"", ""distractor3"")",Rückhalt,msaada,s,muhula,auwali,kiwimbe,muhula,NA,NA,NA,NA,NA,NA,NA,NA,NA,NA,NA,NA,NA,NA,NA,NA,NA,NA,NA,NA,NA,NA
7b803,"""Richtig""-Screen",canvas.Screen,1_1_1_1_1,NA,NA,skipped,NA,98554,NA,NA,98550,98555,2023-10-13T09:01:29Z,98553.46,"c(""distractor1"", ""distractor2"", ""distractor3"")",Rückhalt,msaada,s,muhula,auwali,kiwimbe,NA,NA,NA,NA,NA,NA,NA,NA,NA,NA,NA,NA,NA,NA,NA,NA,NA,NA,NA,NA,NA,NA,NA
7b803,"""Falsch""-Screen",canvas.Screen,1_1_1_1_2,NA,NA,timeout,4996.04,98558,98549.26,98553.46,103532.84,103534,2023-10-13T09:01:34Z,103549.5,"c(""distractor1"", ""distractor2"", ""distractor3"")",Rückhalt,msaada,s,muhula,auwali,kiwimbe,NA,NA,0,NA,NA,NA,NA,NA,NA,NA,NA,NA,NA,NA,NA,NA,NA,NA,NA,NA,NA,NA,NA
7b803,shallow,flow.Sequence,1_1_1_1,NA,NA,completion,14721.32,88786,88778.22,88811.52,103532.84,103536,2023-10-13T09:01:34Z,103549.5,"c(""distractor1"", ""distractor2"", ""distractor3"")",Rückhalt,msaada,s,muhula,auwali,kiwimbe,NA,NA,NA,NA,NA,NA,NA,NA,NA,NA,NA,NA,NA,NA,NA,NA,NA,NA,NA,NA,NA,NA,NA
7b803,task,flow.Sequence,1_1_1,NA,NA,completion,14721.32,88784,88778.22,88811.52,103532.84,103536,2023-10-13T09:01:34Z,103549.5,"c(""distractor1"", ""distractor2"", ""distractor3"")",Rückhalt,msaada,s,muhula,auwali,kiwimbe,NA,NA,NA,NA,NA,NA,NA,NA,NA,NA,NA,NA,NA,NA,NA,NA,NA,NA,NA,NA,NA,NA,NA
7b803,Deep Question,html.Page,1_1_2_0_0,NA,NA,form submission,11251.5,103537,103532.84,103549.5,114801,114801,2023-10-13T09:01:45Z,114806.8,"c(""distractor1"", ""distractor2"", ""distractor3"")",Qualität,mtindo,d,NA,NA,NA,hulowi,NA,NA,NA,NA,NA,NA,NA,NA,NA,NA,NA,NA,NA,NA,NA,NA,NA,NA,NA,NA,NA,NA
7b803,"""Richtig""-Screen",canvas.Screen,1_1_2_0_1,NA,NA,skipped,NA,114803,NA,NA,114801,114803,2023-10-13T09:01:45Z,114806.8,"c(""distractor1"", ""distractor2"", ""distractor3"")",Qualität,mtindo,d,NA,NA,NA,NA,NA,NA,NA,NA,NA,NA,NA,NA,NA,NA,NA,NA,NA,NA,NA,NA,NA,NA,NA,NA,NA,NA
7b803,"""Falsch""-Screen",canvas.Screen,1_1_2_0_2,NA,NA,timeout,4995.94,114808,114799.5,114806.8,119786.12,119788,2023-10-13T09:01:50Z,119802.74,"c(""distractor1"", ""distractor2"", ""distractor3"")",Qualität,mtindo,d,NA,NA,NA,NA,NA,0,NA,NA,NA,NA,NA,NA,NA,NA,NA,NA,NA,NA,NA,NA,NA,NA,NA,NA,NA,NA
7b803,deep,flow.Sequence,1_1_2_0,NA,NA,completion,16236.62,103537,103532.84,103549.5,119786.12,119789,2023-10-13T09:01:50Z,119802.74,"c(""distractor1"", ""distractor2"", ""distractor3"")",Qualität,mtindo,d,NA,NA,NA,NA,NA,NA,NA,NA,NA,NA,NA,NA,NA,NA,NA,NA,NA,NA,NA,NA,NA,NA,NA,NA,NA,NA
7b803,shallow,flow.Sequence,1_1_2_1,NA,NA,skipped,NA,119789,NA,NA,119786.12,119789,2023-10-13T09:01:50Z,119802.74,"c(""distractor1"", ""distractor2"", ""distractor3"")",Qualität,mtindo,d,NA,NA,NA,NA,NA,NA,NA,NA,NA,NA,NA,NA,NA,NA,NA,NA,NA,NA,NA,NA,NA,NA,NA,NA,NA,NA
7b803,task,flow.Sequence,1_1_2,NA,NA,completion,16236.62,103537,103532.84,103549.5,119786.12,119790,2023-10-13T09:01:50Z,119802.74,"c(""distractor1"", ""distractor2"", ""distractor3"")",Qualität,mtindo,d,NA,NA,NA,NA,NA,NA,NA,NA,NA,NA,NA,NA,NA,NA,NA,NA,NA,NA,NA,NA,NA,NA,NA,NA,NA,NA
7b803,deep,flow.Sequence,1_1_3_0,NA,NA,skipped,NA,119790,NA,NA,119786.12,119791,2023-10-13T09:01:50Z,119802.74,"c(""distractor1"", ""distractor2"", ""distractor3"")",Kritik,lawama,s,dereva,nafasi,mawazo,NA,NA,NA,NA,NA,NA,NA,NA,NA,NA,NA,NA,NA,NA,NA,NA,NA,NA,NA,NA,NA,NA,NA
7b803,Shallow Question,html.Page,1_1_3_1_0,NA,NA,form submission,11187.26,119791,119786.12,119802.74,130990,130991,2023-10-13T09:02:01Z,131010.1,"c(""distractor1"", ""distractor2"", ""distractor3"")",Kritik,lawama,s,dereva,nafasi,mawazo,lawama,NA,NA,NA,NA,NA,NA,NA,NA,NA,NA,NA,NA,NA,NA,NA,NA,NA,NA,NA,NA,NA,NA
7b803,"""Richtig""-Screen",canvas.Screen,1_1_3_1_1,NA,NA,timeout,4995.98,130993,130989.16,131010.1,135989.46,135991,2023-10-13T09:02:06Z,136006.08,"c(""distractor1"", ""distractor2"", ""distractor3"")",Kritik,lawama,s,dereva,nafasi,mawazo,NA,NA,1,NA,NA,NA,NA,NA,NA,NA,NA,NA,NA,NA,NA,NA,NA,NA,NA,NA,NA,NA,NA
7b803,"""Falsch""-Screen",canvas.Screen,1_1_3_1_2,NA,NA,skipped,NA,135999,NA,NA,135989.46,135999,2023-10-13T09:02:06Z,136006.08,"c(""distractor1"", ""distractor2"", ""distractor3"")",Kritik,lawama,s,dereva,nafasi,mawazo,NA,NA,NA,NA,NA,NA,NA,NA,NA,NA,NA,NA,NA,NA,NA,NA,NA,NA,NA,NA,NA,NA,NA
7b803,shallow,flow.Sequence,1_1_3_1,NA,NA,completion,16186.72,119791,119786.12,119802.74,135989.46,136000,2023-10-13T09:02:06Z,136006.08,"c(""distractor1"", ""distractor2"", ""distractor3"")",Kritik,lawama,s,dereva,nafasi,mawazo,NA,NA,NA,NA,NA,NA,NA,NA,NA,NA,NA,NA,NA,NA,NA,NA,NA,NA,NA,NA,NA,NA,NA
7b803,task,flow.Sequence,1_1_3,NA,NA,completion,16186.72,119790,119786.12,119802.74,135989.46,136001,2023-10-13T09:02:06Z,136006.08,"c(""distractor1"", ""distractor2"", ""distractor3"")",Kritik,lawama,s,dereva,nafasi,mawazo,NA,NA,NA,NA,NA,NA,NA,NA,NA,NA,NA,NA,NA,NA,NA,NA,NA,NA,NA,NA,NA,NA,NA
7b803,deep,flow.Sequence,1_1_4_0,NA,NA,skipped,NA,136001,NA,NA,135989.46,136002,2023-10-13T09:02:06Z,136006.08,"c(""distractor1"", ""distractor2"", ""distractor3"")",Gegenwart,hadhara,s,katiba,jokofu,mikopo,NA,NA,NA,NA,NA,NA,NA,NA,NA,NA,NA,NA,NA,NA,NA,NA,NA,NA,NA,NA,NA,NA,NA
7b803,Shallow Question,html.Page,1_1_4_1_0,NA,NA,form submission,8102.92,136002,135989.46,136006.08,144109,144109,2023-10-13T09:02:15Z,144116,"c(""distractor1"", ""distractor2"", ""distractor3"")",Gegenwart,hadhara,s,katiba,jokofu,mikopo,hadhara,NA,NA,NA,NA,NA,NA,NA,NA,NA,NA,NA,NA,NA,NA,NA,NA,NA,NA,NA,NA,NA,NA
7b803,"""Richtig""-Screen",canvas.Screen,1_1_4_1_1,NA,NA,timeout,4995.94,144112,144105.98,144116,149095.28,149097,2023-10-13T09:02:20Z,149111.94,"c(""distractor1"", ""distractor2"", ""distractor3"")",Gegenwart,hadhara,s,katiba,jokofu,mikopo,NA,NA,1,NA,NA,NA,NA,NA,NA,NA,NA,NA,NA,NA,NA,NA,NA,NA,NA,NA,NA,NA,NA
7b803,"""Falsch""-Screen",canvas.Screen,1_1_4_1_2,NA,NA,skipped,NA,149103,NA,NA,149095.28,149103,2023-10-13T09:02:20Z,149111.94,"c(""distractor1"", ""distractor2"", ""distractor3"")",Gegenwart,hadhara,s,katiba,jokofu,mikopo,NA,NA,NA,NA,NA,NA,NA,NA,NA,NA,NA,NA,NA,NA,NA,NA,NA,NA,NA,NA,NA,NA,NA
7b803,shallow,flow.Sequence,1_1_4_1,NA,NA,completion,13089.2,136002,135989.46,136006.08,149095.28,149103,2023-10-13T09:02:20Z,149111.94,"c(""distractor1"", ""distractor2"", ""distractor3"")",Gegenwart,hadhara,s,katiba,jokofu,mikopo,NA,NA,NA,NA,NA,NA,NA,NA,NA,NA,NA,NA,NA,NA,NA,NA,NA,NA,NA,NA,NA,NA,NA
7b803,task,flow.Sequence,1_1_4,NA,NA,completion,13089.2,136001,135989.46,136006.08,149095.28,149105,2023-10-13T09:02:20Z,149111.94,"c(""distractor1"", ""distractor2"", ""distractor3"")",Gegenwart,hadhara,s,katiba,jokofu,mikopo,NA,NA,NA,NA,NA,NA,NA,NA,NA,NA,NA,NA,NA,NA,NA,NA,NA,NA,NA,NA,NA,NA,NA
7b803,Deep Question,html.Page,1_1_5_0_0,NA,NA,form submission,13351.06,149105,149095.28,149111.94,162463,162463,2023-10-13T09:02:33Z,162467.6,"c(""distractor1"", ""distractor2"", ""distractor3"")",Gesundheit,salama,d,NA,NA,NA,kuweli,NA,NA,NA,NA,NA,NA,NA,NA,NA,NA,NA,NA,NA,NA,NA,NA,NA,NA,NA,NA,NA,NA
7b803,"""Richtig""-Screen",canvas.Screen,1_1_5_0_1,NA,NA,skipped,NA,162465,NA,NA,162463,162466,2023-10-13T09:02:33Z,162467.6,"c(""distractor1"", ""distractor2"", ""distractor3"")",Gesundheit,salama,d,NA,NA,NA,NA,NA,NA,NA,NA,NA,NA,NA,NA,NA,NA,NA,NA,NA,NA,NA,NA,NA,NA,NA,NA,NA,NA
7b803,"""Falsch""-Screen",canvas.Screen,1_1_5_0_2,NA,NA,timeout,4995.96,162469,162461.46,162467.6,167446.9,167448,2023-10-13T09:02:38Z,167463.56,"c(""distractor1"", ""distractor2"", ""distractor3"")",Gesundheit,salama,d,NA,NA,NA,NA,NA,0,NA,NA,NA,NA,NA,NA,NA,NA,NA,NA,NA,NA,NA,NA,NA,NA,NA,NA,NA,NA
7b803,deep,flow.Sequence,1_1_5_0,NA,NA,completion,18334.96,149105,149095.28,149111.94,167446.9,167448,2023-10-13T09:02:38Z,167463.56,"c(""distractor1"", ""distractor2"", ""distractor3"")",Gesundheit,salama,d,NA,NA,NA,NA,NA,NA,NA,NA,NA,NA,NA,NA,NA,NA,NA,NA,NA,NA,NA,NA,NA,NA,NA,NA,NA,NA
7b803,shallow,flow.Sequence,1_1_5_1,NA,NA,skipped,NA,167449,NA,NA,167446.9,167449,2023-10-13T09:02:38Z,167463.56,"c(""distractor1"", ""distractor2"", ""distractor3"")",Gesundheit,salama,d,NA,NA,NA,NA,NA,NA,NA,NA,NA,NA,NA,NA,NA,NA,NA,NA,NA,NA,NA,NA,NA,NA,NA,NA,NA,NA
7b803,task,flow.Sequence,1_1_5,NA,NA,completion,18334.96,149105,149095.28,149111.94,167446.9,167449,2023-10-13T09:02:38Z,167463.56,"c(""distractor1"", ""distractor2"", ""distractor3"")",Gesundheit,salama,d,NA,NA,NA,NA,NA,NA,NA,NA,NA,NA,NA,NA,NA,NA,NA,NA,NA,NA,NA,NA,NA,NA,NA,NA,NA,NA
7b803,block,flow.Loop,1_1,NA,NA,completion,100964.26,66481,66482.04,66482.64,167446.9,167450,2023-10-13T09:02:38Z,167463.56,"c(""distractor1"", ""distractor2"", ""distractor3"")",NA,NA,NA,NA,NA,NA,NA,NA,NA,NA,NA,NA,NA,NA,NA,NA,NA,NA,NA,NA,NA,NA,NA,NA,NA,NA,NA,NA,NA
7b803,Practice,flow.Sequence,1,NA,NA,completion,112901.68,54544,54544.78,54545.22,167446.9,167450,2023-10-13T09:02:38Z,167463.56,NULL,NA,NA,NA,NA,NA,NA,NA,NA,NA,NA,NA,NA,NA,NA,NA,NA,NA,NA,NA,NA,NA,NA,NA,NA,NA,NA,NA,NA,NA
7b803,Experiment start,canvas.Screen,2,weiter,keypress(q),response,19876.44,167451,167446.9,167463.56,187340,187352,2023-10-13T09:02:58Z,187613.84,NULL,NA,NA,NA,NA,NA,NA,NA,NA,NA,NA,NA,NA,NA,NA,NA,NA,NA,NA,NA,NA,NA,NA,NA,NA,NA,NA,NA,NA,NA
7b803,Deep Question,html.Page,3_0_0_0_0_0_0,NA,NA,form submission,16254.16,187613,187613.36,187613.84,203868,203868,2023-10-13T09:03:14Z,203866.92,NULL,Zuwachs,nyongeza,d,NA,NA,NA,mehongo,NA,NA,0,NA,NA,NA,NA,NA,NA,NA,NA,NA,NA,NA,NA,NA,NA,NA,NA,NA,NA,NA
7b803,"""Richtig""-Screen",canvas.Screen,3_0_0_0_0_0_1,NA,NA,skipped,NA,203870,NA,NA,203868,203870,2023-10-13T09:03:14Z,203866.92,NULL,Zuwachs,nyongeza,d,NA,NA,NA,NA,sdf,NA,0,NA,NA,NA,NA,NA,NA,NA,NA,NA,NA,NA,NA,NA,NA,NA,NA,NA,NA,NA
7b803,"""Falsch""-Screen",canvas.Screen,3_0_0_0_0_0_2,NA,NA,timeout,4995.88,203873,203866.54,203866.92,208846.14,208848,2023-10-13T09:03:19Z,208862.8,NULL,Zuwachs,nyongeza,d,NA,NA,NA,NA,sdf,0,0,NA,NA,NA,NA,NA,NA,NA,NA,NA,NA,NA,NA,NA,NA,NA,NA,NA,NA,NA
7b803,deep,flow.Sequence,3_0_0_0_0_0,NA,NA,completion,21232.3,187613,187613.36,187613.84,208846.14,208849,2023-10-13T09:03:19Z,208862.8,NULL,Zuwachs,nyongeza,d,NA,NA,NA,NA,sdf,NA,0,NA,NA,NA,NA,NA,NA,NA,NA,NA,NA,NA,NA,NA,NA,NA,NA,NA,NA,NA
7b803,shallow,flow.Sequence,3_0_0_0_0_1,NA,NA,skipped,NA,208849,NA,NA,208846.14,208850,2023-10-13T09:03:19Z,208862.8,NULL,Zuwachs,nyongeza,d,NA,NA,NA,NA,sdf,NA,0,NA,NA,NA,NA,NA,NA,NA,NA,NA,NA,NA,NA,NA,NA,NA,NA,NA,NA,NA
7b803,task,flow.Sequence,3_0_0_0_0,NA,NA,completion,21232.3,187613,187613.36,187613.84,208846.14,208850,2023-10-13T09:03:19Z,208862.8,NULL,Zuwachs,nyongeza,d,NA,NA,NA,NA,sdf,NA,0,NA,NA,NA,NA,NA,NA,NA,NA,NA,NA,NA,NA,NA,NA,NA,NA,NA,NA,NA
7b803,Deep Question,html.Page,3_0_0_0_1_0_0,NA,NA,form submission,12091.2,208851,208846.14,208862.8,220954,220954,2023-10-13T09:03:31Z,220952.86,NULL,Spionage,upelelezi,d,NA,NA,NA,eranga,NA,NA,0,NA,NA,NA,NA,NA,NA,NA,NA,NA,NA,NA,NA,NA,NA,NA,NA,NA,NA,NA
7b803,"""Richtig""-Screen",canvas.Screen,3_0_0_0_1_0_1,NA,NA,skipped,NA,220956,NA,NA,220954,220956,2023-10-13T09:03:31Z,220952.86,NULL,Spionage,upelelezi,d,NA,NA,NA,NA,sdf,NA,0,NA,NA,NA,NA,NA,NA,NA,NA,NA,NA,NA,NA,NA,NA,NA,NA,NA,NA,NA
7b803,"""Falsch""-Screen",canvas.Screen,3_0_0_0_1_0_2,NA,NA,timeout,4995.96,220958,220952.36,220952.86,225932.18,225937,2023-10-13T09:03:36Z,225948.82,NULL,Spionage,upelelezi,d,NA,NA,NA,NA,sdf,0,0,NA,NA,NA,NA,NA,NA,NA,NA,NA,NA,NA,NA,NA,NA,NA,NA,NA,NA,NA
7b803,deep,flow.Sequence,3_0_0_0_1_0,NA,NA,completion,17069.38,208851,208846.14,208862.8,225932.18,225940,2023-10-13T09:03:36Z,225948.82,NULL,Spionage,upelelezi,d,NA,NA,NA,NA,sdf,NA,0,NA,NA,NA,NA,NA,NA,NA,NA,NA,NA,NA,NA,NA,NA,NA,NA,NA,NA,NA
7b803,shallow,flow.Sequence,3_0_0_0_1_1,NA,NA,skipped,NA,225941,NA,NA,225932.18,225941,2023-10-13T09:03:36Z,225948.82,NULL,Spionage,upelelezi,d,NA,NA,NA,NA,sdf,NA,0,NA,NA,NA,NA,NA,NA,NA,NA,NA,NA,NA,NA,NA,NA,NA,NA,NA,NA,NA
7b803,task,flow.Sequence,3_0_0_0_1,NA,NA,completion,17069.38,208851,208846.14,208862.8,225932.18,225942,2023-10-13T09:03:36Z,225948.82,NULL,Spionage,upelelezi,d,NA,NA,NA,NA,sdf,NA,0,NA,NA,NA,NA,NA,NA,NA,NA,NA,NA,NA,NA,NA,NA,NA,NA,NA,NA,NA
7b803,deep,flow.Sequence,3_0_0_0_2_0,NA,NA,skipped,NA,225942,NA,NA,225932.18,225942,2023-10-13T09:03:36Z,225948.82,NULL,Konkurrent,mshindani,s,msemaji,mvutaji,kipukusa,NA,sdf,NA,0,NA,NA,NA,NA,NA,NA,NA,NA,NA,NA,NA,NA,NA,NA,NA,NA,NA,NA,NA
7b803,Shallow Question,html.Page,3_0_0_0_2_1_0,NA,NA,form submission,6677.18,225943,225932.18,225948.82,232626,232627,2023-10-13T09:03:43Z,232626.62,NULL,Konkurrent,mshindani,s,msemaji,mvutaji,kipukusa,mshindani,NA,NA,0,NA,NA,NA,NA,NA,NA,NA,NA,NA,NA,NA,NA,NA,NA,NA,NA,NA,NA,NA
7b803,"""Richtig""-Screen",canvas.Screen,3_0_0_0_2_1_1,NA,NA,timeout,4995.92,232632,232624.64,232626.62,237605.9,237607,2023-10-13T09:03:48Z,237622.54,NULL,Konkurrent,mshindani,s,msemaji,mvutaji,kipukusa,NA,sdf,1,0,NA,NA,NA,NA,NA,NA,NA,NA,NA,NA,NA,NA,NA,NA,NA,NA,NA,NA,NA
7b803,"""Falsch""-Screen",canvas.Screen,3_0_0_0_2_1_2,NA,NA,skipped,NA,237617,NA,NA,237605.9,237618,2023-10-13T09:03:48Z,237622.54,NULL,Konkurrent,mshindani,s,msemaji,mvutaji,kipukusa,NA,sdf,NA,0,NA,NA,NA,NA,NA,NA,NA,NA,NA,NA,NA,NA,NA,NA,NA,NA,NA,NA,NA
7b803,shallow,flow.Sequence,3_0_0_0_2_1,NA,NA,completion,11657.08,225943,225932.18,225948.82,237605.9,237618,2023-10-13T09:03:48Z,237622.54,NULL,Konkurrent,mshindani,s,msemaji,mvutaji,kipukusa,NA,sdf,NA,0,NA,NA,NA,NA,NA,NA,NA,NA,NA,NA,NA,NA,NA,NA,NA,NA,NA,NA,NA
7b803,task,flow.Sequence,3_0_0_0_2,NA,NA,completion,11657.08,225942,225932.18,225948.82,237605.9,237619,2023-10-13T09:03:48Z,237622.54,NULL,Konkurrent,mshindani,s,msemaji,mvutaji,kipukusa,NA,sdf,NA,0,NA,NA,NA,NA,NA,NA,NA,NA,NA,NA,NA,NA,NA,NA,NA,NA,NA,NA,NA
7b803,deep,flow.Sequence,3_0_0_0_3_0,NA,NA,skipped,NA,237619,NA,NA,237605.9,237620,2023-10-13T09:03:48Z,237622.54,NULL,Schüler,mwanafunzi,s,mwekezaji,matumizi,uaminifu,NA,sdf,NA,0,NA,NA,NA,NA,NA,NA,NA,NA,NA,NA,NA,NA,NA,NA,NA,NA,NA,NA,NA
7b803,Shallow Question,html.Page,3_0_0_0_3_1_0,NA,NA,form submission,7736.46,237621,237605.9,237622.54,245359,245359,2023-10-13T09:03:56Z,245366.12,NULL,Schüler,mwanafunzi,s,mwekezaji,matumizi,uaminifu,mwekezaji,NA,NA,0,NA,NA,NA,NA,NA,NA,NA,NA,NA,NA,NA,NA,NA,NA,NA,NA,NA,NA,NA
7b803,"""Richtig""-Screen",canvas.Screen,3_0_0_0_3_1_1,NA,NA,skipped,NA,245362,NA,NA,245359,245362,2023-10-13T09:03:56Z,245366.12,NULL,Schüler,mwanafunzi,s,mwekezaji,matumizi,uaminifu,NA,sdf,NA,0,NA,NA,NA,NA,NA,NA,NA,NA,NA,NA,NA,NA,NA,NA,NA,NA,NA,NA,NA
7b803,"""Falsch""-Screen",canvas.Screen,3_0_0_0_3_1_2,NA,NA,timeout,4995.9,245365,245358.08,245366.12,250345.36,250347,2023-10-13T09:04:01Z,250362.02,NULL,Schüler,mwanafunzi,s,mwekezaji,matumizi,uaminifu,NA,sdf,0,0,NA,NA,NA,NA,NA,NA,NA,NA,NA,NA,NA,NA,NA,NA,NA,NA,NA,NA,NA
7b803,shallow,flow.Sequence,3_0_0_0_3_1,NA,NA,completion,12722.82,237621,237605.9,237622.54,250345.36,250347,2023-10-13T09:04:01Z,250362.02,NULL,Schüler,mwanafunzi,s,mwekezaji,matumizi,uaminifu,NA,sdf,NA,0,NA,NA,NA,NA,NA,NA,NA,NA,NA,NA,NA,NA,NA,NA,NA,NA,NA,NA,NA
7b803,task,flow.Sequence,3_0_0_0_3,NA,NA,completion,12722.82,237619,237605.9,237622.54,250345.36,250348,2023-10-13T09:04:01Z,250362.02,NULL,Schüler,mwanafunzi,s,mwekezaji,matumizi,uaminifu,NA,sdf,NA,0,NA,NA,NA,NA,NA,NA,NA,NA,NA,NA,NA,NA,NA,NA,NA,NA,NA,NA,NA
7b803,deep,flow.Sequence,3_0_0_0_4_0,NA,NA,skipped,NA,250348,NA,NA,250345.36,250348,2023-10-13T09:04:01Z,250362.02,NULL,Vorsorge,tahadhari,s,ufafanuzi,makini,mashambani,NA,sdf,NA,0,NA,NA,NA,NA,NA,NA,NA,NA,NA,NA,NA,NA,NA,NA,NA,NA,NA,NA,NA
7b803,Shallow Question,html.Page,3_0_0_0_4_1_0,NA,NA,form submission,7325.98,250349,250345.36,250362.02,257688,257688,2023-10-13T09:04:08Z,257689.28,NULL,Vorsorge,tahadhari,s,ufafanuzi,makini,mashambani,mashambani,NA,NA,0,NA,NA,NA,NA,NA,NA,NA,NA,NA,NA,NA,NA,NA,NA,NA,NA,NA,NA,NA
7b803,"""Richtig""-Screen",canvas.Screen,3_0_0_0_4_1_1,NA,NA,skipped,NA,257691,NA,NA,257688,257691,2023-10-13T09:04:08Z,257689.28,NULL,Vorsorge,tahadhari,s,ufafanuzi,makini,mashambani,NA,sdf,NA,0,NA,NA,NA,NA,NA,NA,NA,NA,NA,NA,NA,NA,NA,NA,NA,NA,NA,NA,NA
7b803,"""Falsch""-Screen",canvas.Screen,3_0_0_0_4_1_2,NA,NA,timeout,4996,257695,257685.56,257689.28,262668.62,262670,2023-10-13T09:04:13Z,262685.28,NULL,Vorsorge,tahadhari,s,ufafanuzi,makini,mashambani,NA,sdf,0,0,NA,NA,NA,NA,NA,NA,NA,NA,NA,NA,NA,NA,NA,NA,NA,NA,NA,NA,NA
7b803,shallow,flow.Sequence,3_0_0_0_4_1,NA,NA,completion,12306.6,250349,250345.36,250362.02,262668.62,262671,2023-10-13T09:04:13Z,262685.28,NULL,Vorsorge,tahadhari,s,ufafanuzi,makini,mashambani,NA,sdf,NA,0,NA,NA,NA,NA,NA,NA,NA,NA,NA,NA,NA,NA,NA,NA,NA,NA,NA,NA,NA
7b803,task,flow.Sequence,3_0_0_0_4,NA,NA,completion,12306.6,250348,250345.36,250362.02,262668.62,262672,2023-10-13T09:04:13Z,262685.28,NULL,Vorsorge,tahadhari,s,ufafanuzi,makini,mashambani,NA,sdf,NA,0,NA,NA,NA,NA,NA,NA,NA,NA,NA,NA,NA,NA,NA,NA,NA,NA,NA,NA,NA
7b803,Deep Question,html.Page,3_0_0_0_5_0_0,NA,NA,form submission,14712.72,262673,262668.62,262685.28,277398,277398,2023-10-13T09:04:28Z,277406.46,NULL,Symbol,kielezo,d,NA,NA,NA,fyzigi,NA,NA,0,NA,NA,NA,NA,NA,NA,NA,NA,NA,NA,NA,NA,NA,NA,NA,NA,NA,NA,NA
7b803,"""Richtig""-Screen",canvas.Screen,3_0_0_0_5_0_1,NA,NA,skipped,NA,277401,NA,NA,277398,277401,2023-10-13T09:04:28Z,277406.46,NULL,Symbol,kielezo,d,NA,NA,NA,NA,sdf,NA,0,NA,NA,NA,NA,NA,NA,NA,NA,NA,NA,NA,NA,NA,NA,NA,NA,NA,NA,NA
7b803,"""Falsch""-Screen",canvas.Screen,3_0_0_0_5_0_2,NA,NA,timeout,4995.94,277403,277396.56,277406.46,282385.76,282392,2023-10-13T09:04:33Z,282402.4,NULL,Symbol,kielezo,d,NA,NA,NA,NA,sdf,0,0,NA,NA,NA,NA,NA,NA,NA,NA,NA,NA,NA,NA,NA,NA,NA,NA,NA,NA,NA
7b803,deep,flow.Sequence,3_0_0_0_5_0,NA,NA,completion,19700.48,262673,262668.62,262685.28,282385.76,282395,2023-10-13T09:04:33Z,282402.4,NULL,Symbol,kielezo,d,NA,NA,NA,NA,sdf,NA,0,NA,NA,NA,NA,NA,NA,NA,NA,NA,NA,NA,NA,NA,NA,NA,NA,NA,NA,NA
7b803,shallow,flow.Sequence,3_0_0_0_5_1,NA,NA,skipped,NA,282395,NA,NA,282385.76,282395,2023-10-13T09:04:33Z,282402.4,NULL,Symbol,kielezo,d,NA,NA,NA,NA,sdf,NA,0,NA,NA,NA,NA,NA,NA,NA,NA,NA,NA,NA,NA,NA,NA,NA,NA,NA,NA,NA
7b803,task,flow.Sequence,3_0_0_0_5,NA,NA,completion,19700.48,262672,262668.62,262685.28,282385.76,282396,2023-10-13T09:04:33Z,282402.4,NULL,Symbol,kielezo,d,NA,NA,NA,NA,sdf,NA,0,NA,NA,NA,NA,NA,NA,NA,NA,NA,NA,NA,NA,NA,NA,NA,NA,NA,NA,NA
7b803,Deep Question,html.Page,3_0_0_0_6_0_0,NA,NA,form submission,19564.6,282398,282385.76,282402.4,301967,301969,2023-10-13T09:04:52Z,301969.6,NULL,Fenster,dirisha,d,NA,NA,NA,pongyzu,NA,NA,0,NA,NA,NA,NA,NA,NA,NA,NA,NA,NA,NA,NA,NA,NA,NA,NA,NA,NA,NA
7b803,"""Richtig""-Screen",canvas.Screen,3_0_0_0_6_0_1,NA,NA,skipped,NA,301975,NA,NA,301967,301976,2023-10-13T09:04:52Z,301969.6,NULL,Fenster,dirisha,d,NA,NA,NA,NA,sdf,NA,0,NA,NA,NA,NA,NA,NA,NA,NA,NA,NA,NA,NA,NA,NA,NA,NA,NA,NA,NA
7b803,"""Falsch""-Screen",canvas.Screen,3_0_0_0_6_0_2,NA,NA,timeout,4995.9,301979,301964.34,301969.6,306948.84,306951,2023-10-13T09:04:57Z,306965.5,NULL,Fenster,dirisha,d,NA,NA,NA,NA,sdf,0,0,NA,NA,NA,NA,NA,NA,NA,NA,NA,NA,NA,NA,NA,NA,NA,NA,NA,NA,NA
7b803,deep,flow.Sequence,3_0_0_0_6_0,NA,NA,completion,24546.44,282398,282385.76,282402.4,306948.84,306952,2023-10-13T09:04:57Z,306965.5,NULL,Fenster,dirisha,d,NA,NA,NA,NA,sdf,NA,0,NA,NA,NA,NA,NA,NA,NA,NA,NA,NA,NA,NA,NA,NA,NA,NA,NA,NA,NA
7b803,shallow,flow.Sequence,3_0_0_0_6_1,NA,NA,skipped,NA,306952,NA,NA,306948.84,306952,2023-10-13T09:04:57Z,306965.5,NULL,Fenster,dirisha,d,NA,NA,NA,NA,sdf,NA,0,NA,NA,NA,NA,NA,NA,NA,NA,NA,NA,NA,NA,NA,NA,NA,NA,NA,NA,NA
7b803,task,flow.Sequence,3_0_0_0_6,NA,NA,completion,24546.44,282398,282385.76,282402.4,306948.84,306953,2023-10-13T09:04:57Z,306965.5,NULL,Fenster,dirisha,d,NA,NA,NA,NA,sdf,NA,0,NA,NA,NA,NA,NA,NA,NA,NA,NA,NA,NA,NA,NA,NA,NA,NA,NA,NA,NA
7b803,deep,flow.Sequence,3_0_0_0_7_0,NA,NA,skipped,NA,306954,NA,NA,306948.84,306955,2023-10-13T09:04:57Z,306965.5,NULL,Tester,wanaojaribu,s,sherti,sihiri,mlipuko,NA,sdf,NA,0,NA,NA,NA,NA,NA,NA,NA,NA,NA,NA,NA,NA,NA,NA,NA,NA,NA,NA,NA
7b803,Shallow Question,html.Page,3_0_0_0_7_1_0,NA,NA,form submission,8835.5,306956,306948.84,306965.5,315801,315802,2023-10-13T09:05:06Z,315808.22,NULL,Tester,wanaojaribu,s,sherti,sihiri,mlipuko,wanaojaribu,NA,NA,0,NA,NA,NA,NA,NA,NA,NA,NA,NA,NA,NA,NA,NA,NA,NA,NA,NA,NA,NA
7b803,"""Richtig""-Screen",canvas.Screen,3_0_0_0_7_1_1,NA,NA,timeout,4995.94,315805,315800.44,315808.22,320787.5,320789,2023-10-13T09:05:11Z,320804.16,NULL,Tester,wanaojaribu,s,sherti,sihiri,mlipuko,NA,sdf,1,0,NA,NA,NA,NA,NA,NA,NA,NA,NA,NA,NA,NA,NA,NA,NA,NA,NA,NA,NA
7b803,"""Falsch""-Screen",canvas.Screen,3_0_0_0_7_1_2,NA,NA,skipped,NA,320797,NA,NA,320787.5,320798,2023-10-13T09:05:11Z,320804.16,NULL,Tester,wanaojaribu,s,sherti,sihiri,mlipuko,NA,sdf,NA,0,NA,NA,NA,NA,NA,NA,NA,NA,NA,NA,NA,NA,NA,NA,NA,NA,NA,NA,NA
7b803,shallow,flow.Sequence,3_0_0_0_7_1,NA,NA,completion,13822,306956,306948.84,306965.5,320787.5,320799,2023-10-13T09:05:11Z,320804.16,NULL,Tester,wanaojaribu,s,sherti,sihiri,mlipuko,NA,sdf,NA,0,NA,NA,NA,NA,NA,NA,NA,NA,NA,NA,NA,NA,NA,NA,NA,NA,NA,NA,NA
7b803,task,flow.Sequence,3_0_0_0_7,NA,NA,completion,13822,306954,306948.84,306965.5,320787.5,320800,2023-10-13T09:05:11Z,320804.16,NULL,Tester,wanaojaribu,s,sherti,sihiri,mlipuko,NA,sdf,NA,0,NA,NA,NA,NA,NA,NA,NA,NA,NA,NA,NA,NA,NA,NA,NA,NA,NA,NA,NA
7b803,block,flow.Loop,3_0_0_0,NA,NA,completion,133173.66,187613,187613.36,187613.84,320787.5,320801,2023-10-13T09:05:11Z,320804.16,NULL,NA,NA,NA,NA,NA,NA,NA,sdf,NA,0,NA,NA,NA,NA,NA,NA,NA,NA,NA,NA,NA,NA,NA,NA,NA,NA,NA,NA,NA
7b803,weiter,canvas.Screen,3_0_0_1,sdf,keypress(Space),response,1581.84,320801,320787.5,320804.16,322386,322397,2023-10-13T09:05:13Z,322623.38,NULL,NA,NA,NA,NA,NA,NA,NA,sdf,NA,0,NA,NA,NA,NA,NA,NA,NA,NA,NA,NA,NA,NA,NA,NA,NA,NA,NA,NA,NA
7b803,check continue,flow.Sequence,3_0_0,NA,NA,completion,134772.16,187613,187613.36,187613.84,322386,322398,2023-10-13T09:05:13Z,322623.38,NULL,NA,NA,NA,NA,NA,NA,NA,sdf,NA,0,NA,NA,NA,NA,NA,NA,NA,NA,NA,NA,NA,NA,NA,NA,NA,NA,NA,NA,NA
7b803,deep,flow.Sequence,3_0_1_0_0_0,NA,NA,skipped,NA,322622,NA,NA,322386,322622,2023-10-13T09:05:13Z,322623.38,NULL,Tester,wanaojaribu,s,sherti,sihiri,mlipuko,NA,sdfdsf,NA,1,NA,NA,NA,NA,NA,NA,NA,NA,NA,NA,NA,NA,NA,NA,NA,NA,NA,NA,NA
7b803,Shallow Question,html.Page,3_0_1_0_0_1_0,NA,NA,form submission,4849.62,322622,322622.9,322623.38,327473,327473,2023-10-13T09:05:18Z,327482.02,NULL,Tester,wanaojaribu,s,sherti,sihiri,mlipuko,wanaojaribu,NA,NA,1,NA,NA,NA,NA,NA,NA,NA,NA,NA,NA,NA,NA,NA,NA,NA,NA,NA,NA,NA
7b803,"""Richtig""-Screen",canvas.Screen,3_0_1_0_0_1_1,NA,NA,timeout,4995.9,327475,327472.24,327482.02,332461.26,332462,2023-10-13T09:05:23Z,332477.92,NULL,Tester,wanaojaribu,s,sherti,sihiri,mlipuko,NA,sdfdsf,1,1,NA,NA,NA,NA,NA,NA,NA,NA,NA,NA,NA,NA,NA,NA,NA,NA,NA,NA,NA
7b803,"""Falsch""-Screen",canvas.Screen,3_0_1_0_0_1_2,NA,NA,skipped,NA,332470,NA,NA,332461.26,332470,2023-10-13T09:05:23Z,332477.92,NULL,Tester,wanaojaribu,s,sherti,sihiri,mlipuko,NA,sdfdsf,NA,1,NA,NA,NA,NA,NA,NA,NA,NA,NA,NA,NA,NA,NA,NA,NA,NA,NA,NA,NA
7b803,shallow,flow.Sequence,3_0_1_0_0_1,NA,NA,completion,9837.88,322622,322622.9,322623.38,332461.26,332470,2023-10-13T09:05:23Z,332477.92,NULL,Tester,wanaojaribu,s,sherti,sihiri,mlipuko,NA,sdfdsf,NA,1,NA,NA,NA,NA,NA,NA,NA,NA,NA,NA,NA,NA,NA,NA,NA,NA,NA,NA,NA
7b803,task,flow.Sequence,3_0_1_0_0,NA,NA,completion,9837.88,322622,322622.9,322623.38,332461.26,332471,2023-10-13T09:05:23Z,332477.92,NULL,Tester,wanaojaribu,s,sherti,sihiri,mlipuko,NA,sdfdsf,NA,1,NA,NA,NA,NA,NA,NA,NA,NA,NA,NA,NA,NA,NA,NA,NA,NA,NA,NA,NA
7b803,Deep Question,html.Page,3_0_1_0_1_0_0,NA,NA,form submission,8029.08,332471,332461.26,332477.92,340507,340507,2023-10-13T09:05:31Z,340504.58,NULL,Symbol,kielezo,d,NA,NA,NA,mafuzi,NA,NA,1,NA,NA,NA,NA,NA,NA,NA,NA,NA,NA,NA,NA,NA,NA,NA,NA,NA,NA,NA
7b803,"""Richtig""-Screen",canvas.Screen,3_0_1_0_1_0_1,NA,NA,skipped,NA,340510,NA,NA,340507,340510,2023-10-13T09:05:31Z,340504.58,NULL,Symbol,kielezo,d,NA,NA,NA,NA,sdfdsf,NA,1,NA,NA,NA,NA,NA,NA,NA,NA,NA,NA,NA,NA,NA,NA,NA,NA,NA,NA,NA
7b803,"""Falsch""-Screen",canvas.Screen,3_0_1_0_1_0_2,NA,NA,timeout,4995.96,340514,340503.84,340504.58,345483.88,345485,2023-10-13T09:05:36Z,345500.54,NULL,Symbol,kielezo,d,NA,NA,NA,NA,sdfdsf,0,1,NA,NA,NA,NA,NA,NA,NA,NA,NA,NA,NA,NA,NA,NA,NA,NA,NA,NA,NA
7b803,deep,flow.Sequence,3_0_1_0_1_0,NA,NA,completion,13005.96,332471,332461.26,332477.92,345483.88,345486,2023-10-13T09:05:36Z,345500.54,NULL,Symbol,kielezo,d,NA,NA,NA,NA,sdfdsf,NA,1,NA,NA,NA,NA,NA,NA,NA,NA,NA,NA,NA,NA,NA,NA,NA,NA,NA,NA,NA
7b803,shallow,flow.Sequence,3_0_1_0_1_1,NA,NA,skipped,NA,345486,NA,NA,345483.88,345487,2023-10-13T09:05:36Z,345500.54,NULL,Symbol,kielezo,d,NA,NA,NA,NA,sdfdsf,NA,1,NA,NA,NA,NA,NA,NA,NA,NA,NA,NA,NA,NA,NA,NA,NA,NA,NA,NA,NA
7b803,task,flow.Sequence,3_0_1_0_1,NA,NA,completion,13005.96,332471,332461.26,332477.92,345483.88,345487,2023-10-13T09:05:36Z,345500.54,NULL,Symbol,kielezo,d,NA,NA,NA,NA,sdfdsf,NA,1,NA,NA,NA,NA,NA,NA,NA,NA,NA,NA,NA,NA,NA,NA,NA,NA,NA,NA,NA
7b803,deep,flow.Sequence,3_0_1_0_2_0,NA,NA,skipped,NA,345488,NA,NA,345483.88,345488,2023-10-13T09:05:36Z,345500.54,NULL,Schüler,mwanafunzi,s,mwekezaji,matumizi,uaminifu,NA,sdfdsf,NA,1,NA,NA,NA,NA,NA,NA,NA,NA,NA,NA,NA,NA,NA,NA,NA,NA,NA,NA,NA
7b803,Shallow Question,html.Page,3_0_1_0_2_1_0,NA,NA,form submission,6012.46,345489,345483.88,345500.54,351513,351515,2023-10-13T09:05:42Z,351512.18,NULL,Schüler,mwanafunzi,s,mwekezaji,matumizi,uaminifu,mwanafunzi,NA,NA,1,NA,NA,NA,NA,NA,NA,NA,NA,NA,NA,NA,NA,NA,NA,NA,NA,NA,NA,NA
7b803,"""Richtig""-Screen",canvas.Screen,3_0_1_0_2_1_1,NA,NA,timeout,4995.96,351520,351510.38,351512.18,356491.5,356493,2023-10-13T09:05:47Z,356508.14,NULL,Schüler,mwanafunzi,s,mwekezaji,matumizi,uaminifu,NA,sdfdsf,1,1,NA,NA,NA,NA,NA,NA,NA,NA,NA,NA,NA,NA,NA,NA,NA,NA,NA,NA,NA
7b803,"""Falsch""-Screen",canvas.Screen,3_0_1_0_2_1_2,NA,NA,skipped,NA,356502,NA,NA,356491.5,356503,2023-10-13T09:05:47Z,356508.14,NULL,Schüler,mwanafunzi,s,mwekezaji,matumizi,uaminifu,NA,sdfdsf,NA,1,NA,NA,NA,NA,NA,NA,NA,NA,NA,NA,NA,NA,NA,NA,NA,NA,NA,NA,NA
7b803,shallow,flow.Sequence,3_0_1_0_2_1,NA,NA,completion,10990.96,345489,345483.88,345500.54,356491.5,356503,2023-10-13T09:05:47Z,356508.14,NULL,Schüler,mwanafunzi,s,mwekezaji,matumizi,uaminifu,NA,sdfdsf,NA,1,NA,NA,NA,NA,NA,NA,NA,NA,NA,NA,NA,NA,NA,NA,NA,NA,NA,NA,NA
7b803,task,flow.Sequence,3_0_1_0_2,NA,NA,completion,10990.96,345488,345483.88,345500.54,356491.5,356504,2023-10-13T09:05:47Z,356508.14,NULL,Schüler,mwanafunzi,s,mwekezaji,matumizi,uaminifu,NA,sdfdsf,NA,1,NA,NA,NA,NA,NA,NA,NA,NA,NA,NA,NA,NA,NA,NA,NA,NA,NA,NA,NA
7b803,Deep Question,html.Page,3_0_1_0_3_0_0,NA,NA,form submission,8979.86,356504,356491.5,356508.14,365488,365489,2023-10-13T09:05:56Z,365500.66,NULL,Zuwachs,nyongeza,d,NA,NA,NA,kyelizo,NA,NA,1,NA,NA,NA,NA,NA,NA,NA,NA,NA,NA,NA,NA,NA,NA,NA,NA,NA,NA,NA
7b803,"""Richtig""-Screen",canvas.Screen,3_0_1_0_3_0_1,NA,NA,skipped,NA,365492,NA,NA,365488,365492,2023-10-13T09:05:56Z,365500.66,NULL,Zuwachs,nyongeza,d,NA,NA,NA,NA,sdfdsf,NA,1,NA,NA,NA,NA,NA,NA,NA,NA,NA,NA,NA,NA,NA,NA,NA,NA,NA,NA,NA
7b803,"""Falsch""-Screen",canvas.Screen,3_0_1_0_3_0_2,NA,NA,timeout,4995.96,365494,365486.28,365500.66,370479.96,370481,2023-10-13T09:06:01Z,370496.62,NULL,Zuwachs,nyongeza,d,NA,NA,NA,NA,sdfdsf,0,1,NA,NA,NA,NA,NA,NA,NA,NA,NA,NA,NA,NA,NA,NA,NA,NA,NA,NA,NA
7b803,deep,flow.Sequence,3_0_1_0_3_0,NA,NA,completion,13971.82,356504,356491.5,356508.14,370479.96,370481,2023-10-13T09:06:01Z,370496.62,NULL,Zuwachs,nyongeza,d,NA,NA,NA,NA,sdfdsf,NA,1,NA,NA,NA,NA,NA,NA,NA,NA,NA,NA,NA,NA,NA,NA,NA,NA,NA,NA,NA
7b803,shallow,flow.Sequence,3_0_1_0_3_1,NA,NA,skipped,NA,370482,NA,NA,370479.96,370482,2023-10-13T09:06:01Z,370496.62,NULL,Zuwachs,nyongeza,d,NA,NA,NA,NA,sdfdsf,NA,1,NA,NA,NA,NA,NA,NA,NA,NA,NA,NA,NA,NA,NA,NA,NA,NA,NA,NA,NA
7b803,task,flow.Sequence,3_0_1_0_3,NA,NA,completion,13971.82,356504,356491.5,356508.14,370479.96,370483,2023-10-13T09:06:01Z,370496.62,NULL,Zuwachs,nyongeza,d,NA,NA,NA,NA,sdfdsf,NA,1,NA,NA,NA,NA,NA,NA,NA,NA,NA,NA,NA,NA,NA,NA,NA,NA,NA,NA,NA
7b803,deep,flow.Sequence,3_0_1_0_4_0,NA,NA,skipped,NA,370483,NA,NA,370479.96,370484,2023-10-13T09:06:01Z,370496.62,NULL,Vorsorge,tahadhari,s,ufafanuzi,makini,mashambani,NA,sdfdsf,NA,1,NA,NA,NA,NA,NA,NA,NA,NA,NA,NA,NA,NA,NA,NA,NA,NA,NA,NA,NA
7b803,Shallow Question,html.Page,3_0_1_0_4_1_0,NA,NA,form submission,11281.38,370485,370479.96,370496.62,381778,381778,2023-10-13T09:06:12Z,381787.38,NULL,Vorsorge,tahadhari,s,ufafanuzi,makini,mashambani,ufafanuzi,NA,NA,1,NA,NA,NA,NA,NA,NA,NA,NA,NA,NA,NA,NA,NA,NA,NA,NA,NA,NA,NA
7b803,"""Richtig""-Screen",canvas.Screen,3_0_1_0_4_1_1,NA,NA,skipped,NA,381780,NA,NA,381778,381780,2023-10-13T09:06:12Z,381787.38,NULL,Vorsorge,tahadhari,s,ufafanuzi,makini,mashambani,NA,sdfdsf,NA,1,NA,NA,NA,NA,NA,NA,NA,NA,NA,NA,NA,NA,NA,NA,NA,NA,NA,NA,NA
7b803,"""Falsch""-Screen",canvas.Screen,3_0_1_0_4_1_2,NA,NA,timeout,4995.82,381783,381776.42,381787.38,386766.54,386768,2023-10-13T09:06:17Z,386783.2,NULL,Vorsorge,tahadhari,s,ufafanuzi,makini,mashambani,NA,sdfdsf,0,1,NA,NA,NA,NA,NA,NA,NA,NA,NA,NA,NA,NA,NA,NA,NA,NA,NA,NA,NA
7b803,shallow,flow.Sequence,3_0_1_0_4_1,NA,NA,completion,16269.92,370485,370479.96,370496.62,386766.54,386768,2023-10-13T09:06:17Z,386783.2,NULL,Vorsorge,tahadhari,s,ufafanuzi,makini,mashambani,NA,sdfdsf,NA,1,NA,NA,NA,NA,NA,NA,NA,NA,NA,NA,NA,NA,NA,NA,NA,NA,NA,NA,NA
7b803,task,flow.Sequence,3_0_1_0_4,NA,NA,completion,16269.92,370483,370479.96,370496.62,386766.54,386769,2023-10-13T09:06:17Z,386783.2,NULL,Vorsorge,tahadhari,s,ufafanuzi,makini,mashambani,NA,sdfdsf,NA,1,NA,NA,NA,NA,NA,NA,NA,NA,NA,NA,NA,NA,NA,NA,NA,NA,NA,NA,NA
7b803,Deep Question,html.Page,3_0_1_0_5_0_0,NA,NA,form submission,15149.8,386770,386766.54,386783.2,401933,401934,2023-10-13T09:06:32Z,401954.1,NULL,Fenster,dirisha,d,NA,NA,NA,kyrezo,NA,NA,1,NA,NA,NA,NA,NA,NA,NA,NA,NA,NA,NA,NA,NA,NA,NA,NA,NA,NA,NA
7b803,"""Richtig""-Screen",canvas.Screen,3_0_1_0_5_0_1,NA,NA,skipped,NA,401936,NA,NA,401933,401936,2023-10-13T09:06:32Z,401954.1,NULL,Fenster,dirisha,d,NA,NA,NA,NA,sdfdsf,NA,1,NA,NA,NA,NA,NA,NA,NA,NA,NA,NA,NA,NA,NA,NA,NA,NA,NA,NA,NA
7b803,"""Falsch""-Screen",canvas.Screen,3_0_1_0_5_0_2,NA,NA,timeout,4995.92,401941,401937.44,401954.1,406933.36,406935,2023-10-13T09:06:37Z,406950.02,NULL,Fenster,dirisha,d,NA,NA,NA,NA,sdfdsf,0,1,NA,NA,NA,NA,NA,NA,NA,NA,NA,NA,NA,NA,NA,NA,NA,NA,NA,NA,NA
7b803,deep,flow.Sequence,3_0_1_0_5_0,NA,NA,completion,20150.16,386770,386766.54,386783.2,406933.36,406936,2023-10-13T09:06:37Z,406950.02,NULL,Fenster,dirisha,d,NA,NA,NA,NA,sdfdsf,NA,1,NA,NA,NA,NA,NA,NA,NA,NA,NA,NA,NA,NA,NA,NA,NA,NA,NA,NA,NA
7b803,shallow,flow.Sequence,3_0_1_0_5_1,NA,NA,skipped,NA,406937,NA,NA,406933.36,406937,2023-10-13T09:06:37Z,406950.02,NULL,Fenster,dirisha,d,NA,NA,NA,NA,sdfdsf,NA,1,NA,NA,NA,NA,NA,NA,NA,NA,NA,NA,NA,NA,NA,NA,NA,NA,NA,NA,NA
7b803,task,flow.Sequence,3_0_1_0_5,NA,NA,completion,20150.16,386770,386766.54,386783.2,406933.36,406938,2023-10-13T09:06:37Z,406950.02,NULL,Fenster,dirisha,d,NA,NA,NA,NA,sdfdsf,NA,1,NA,NA,NA,NA,NA,NA,NA,NA,NA,NA,NA,NA,NA,NA,NA,NA,NA,NA,NA
7b803,deep,flow.Sequence,3_0_1_0_6_0,NA,NA,skipped,NA,406938,NA,NA,406933.36,406938,2023-10-13T09:06:37Z,406950.02,NULL,Konkurrent,mshindani,s,msemaji,mvutaji,kipukusa,NA,sdfdsf,NA,1,NA,NA,NA,NA,NA,NA,NA,NA,NA,NA,NA,NA,NA,NA,NA,NA,NA,NA,NA
7b803,Shallow Question,html.Page,3_0_1_0_6_1_0,NA,NA,form submission,6419.98,406939,406933.36,406950.02,413370,413371,2023-10-13T09:06:44Z,413378.06,NULL,Konkurrent,mshindani,s,msemaji,mvutaji,kipukusa,mshindani,NA,NA,1,NA,NA,NA,NA,NA,NA,NA,NA,NA,NA,NA,NA,NA,NA,NA,NA,NA,NA,NA
7b803,"""Richtig""-Screen",canvas.Screen,3_0_1_0_6_1_1,NA,NA,timeout,4995.9,413373,413369.62,413378.06,418357.32,418358,2023-10-13T09:06:49Z,418373.96,NULL,Konkurrent,mshindani,s,msemaji,mvutaji,kipukusa,NA,sdfdsf,1,1,NA,NA,NA,NA,NA,NA,NA,NA,NA,NA,NA,NA,NA,NA,NA,NA,NA,NA,NA
7b803,"""Falsch""-Screen",canvas.Screen,3_0_1_0_6_1_2,NA,NA,skipped,NA,418365,NA,NA,418357.32,418365,2023-10-13T09:06:49Z,418373.96,NULL,Konkurrent,mshindani,s,msemaji,mvutaji,kipukusa,NA,sdfdsf,NA,1,NA,NA,NA,NA,NA,NA,NA,NA,NA,NA,NA,NA,NA,NA,NA,NA,NA,NA,NA
7b803,shallow,flow.Sequence,3_0_1_0_6_1,NA,NA,completion,11407.3,406939,406933.36,406950.02,418357.32,418366,2023-10-13T09:06:49Z,418373.96,NULL,Konkurrent,mshindani,s,msemaji,mvutaji,kipukusa,NA,sdfdsf,NA,1,NA,NA,NA,NA,NA,NA,NA,NA,NA,NA,NA,NA,NA,NA,NA,NA,NA,NA,NA
7b803,task,flow.Sequence,3_0_1_0_6,NA,NA,completion,11407.3,406938,406933.36,406950.02,418357.32,418366,2023-10-13T09:06:49Z,418373.96,NULL,Konkurrent,mshindani,s,msemaji,mvutaji,kipukusa,NA,sdfdsf,NA,1,NA,NA,NA,NA,NA,NA,NA,NA,NA,NA,NA,NA,NA,NA,NA,NA,NA,NA,NA
7b803,Deep Question,html.Page,3_0_1_0_7_0_0,NA,NA,form submission,15830.04,418367,418357.32,418373.96,434204,434205,2023-10-13T09:07:05Z,434210.92,NULL,Spionage,upelelezi,d,NA,NA,NA,myrezu,NA,NA,1,NA,NA,NA,NA,NA,NA,NA,NA,NA,NA,NA,NA,NA,NA,NA,NA,NA,NA,NA
7b803,"""Richtig""-Screen",canvas.Screen,3_0_1_0_7_0_1,NA,NA,skipped,NA,434207,NA,NA,434204,434208,2023-10-13T09:07:05Z,434210.92,NULL,Spionage,upelelezi,d,NA,NA,NA,NA,sdfdsf,NA,1,NA,NA,NA,NA,NA,NA,NA,NA,NA,NA,NA,NA,NA,NA,NA,NA,NA,NA,NA
7b803,"""Falsch""-Screen",canvas.Screen,3_0_1_0_7_0_2,NA,NA,timeout,4995.92,434211,434204.24,434210.92,439190.18,439192,2023-10-13T09:07:10Z,439206.84,NULL,Spionage,upelelezi,d,NA,NA,NA,NA,sdfdsf,0,1,NA,NA,NA,NA,NA,NA,NA,NA,NA,NA,NA,NA,NA,NA,NA,NA,NA,NA,NA
7b803,deep,flow.Sequence,3_0_1_0_7_0,NA,NA,completion,20816.22,418367,418357.32,418373.96,439190.18,439193,2023-10-13T09:07:10Z,439206.84,NULL,Spionage,upelelezi,d,NA,NA,NA,NA,sdfdsf,NA,1,NA,NA,NA,NA,NA,NA,NA,NA,NA,NA,NA,NA,NA,NA,NA,NA,NA,NA,NA
7b803,shallow,flow.Sequence,3_0_1_0_7_1,NA,NA,skipped,NA,439193,NA,NA,439190.18,439194,2023-10-13T09:07:10Z,439206.84,NULL,Spionage,upelelezi,d,NA,NA,NA,NA,sdfdsf,NA,1,NA,NA,NA,NA,NA,NA,NA,NA,NA,NA,NA,NA,NA,NA,NA,NA,NA,NA,NA
7b803,task,flow.Sequence,3_0_1_0_7,NA,NA,completion,20816.22,418367,418357.32,418373.96,439190.18,439194,2023-10-13T09:07:10Z,439206.84,NULL,Spionage,upelelezi,d,NA,NA,NA,NA,sdfdsf,NA,1,NA,NA,NA,NA,NA,NA,NA,NA,NA,NA,NA,NA,NA,NA,NA,NA,NA,NA,NA
7b803,block,flow.Loop,3_0_1_0,NA,NA,completion,116566.8,322622,322622.9,322623.38,439190.18,439194,2023-10-13T09:07:10Z,439206.84,NULL,NA,NA,NA,NA,NA,NA,NA,sdfdsf,NA,1,NA,NA,NA,NA,NA,NA,NA,NA,NA,NA,NA,NA,NA,NA,NA,NA,NA,NA,NA
7b803,weiter,canvas.Screen,3_0_1_1,sdf,keypress(Space),response,1241.16,439194,439190.18,439206.84,440448,440462,2023-10-13T09:07:11Z,440597.44,NULL,NA,NA,NA,NA,NA,NA,NA,sdfdsf,NA,1,NA,NA,NA,NA,NA,NA,NA,NA,NA,NA,NA,NA,NA,NA,NA,NA,NA,NA,NA
7b803,check continue,flow.Sequence,3_0_1,NA,NA,completion,117824.62,322622,322622.9,322623.38,440448,440463,2023-10-13T09:07:11Z,440597.44,NULL,NA,NA,NA,NA,NA,NA,NA,sdfdsf,NA,1,NA,NA,NA,NA,NA,NA,NA,NA,NA,NA,NA,NA,NA,NA,NA,NA,NA,NA,NA
7b803,deep,flow.Sequence,3_0_2_0_0_0,NA,NA,skipped,NA,440597,NA,NA,440448,440597,2023-10-13T09:07:11Z,440597.44,NULL,Vorsorge,tahadhari,s,ufafanuzi,makini,mashambani,NA,sdf,NA,2,NA,NA,NA,NA,NA,NA,NA,NA,NA,NA,NA,NA,NA,NA,NA,NA,NA,NA,NA
7b803,Shallow Question,html.Page,3_0_2_0_0_1_0,NA,NA,form submission,6498.56,440597,440597.16,440597.44,447096,447097,2023-10-13T09:07:18Z,447100.32,NULL,Vorsorge,tahadhari,s,ufafanuzi,makini,mashambani,ufafanuzi,NA,NA,2,NA,NA,NA,NA,NA,NA,NA,NA,NA,NA,NA,NA,NA,NA,NA,NA,NA,NA,NA
7b803,"""Richtig""-Screen",canvas.Screen,3_0_2_0_0_1_1,NA,NA,skipped,NA,447100,NA,NA,447096,447100,2023-10-13T09:07:18Z,447100.32,NULL,Vorsorge,tahadhari,s,ufafanuzi,makini,mashambani,NA,sdf,NA,2,NA,NA,NA,NA,NA,NA,NA,NA,NA,NA,NA,NA,NA,NA,NA,NA,NA,NA,NA
7b803,"""Falsch""-Screen",canvas.Screen,3_0_2_0_0_1_2,NA,NA,timeout,4995.92,447103,447094.2,447100.32,452079.58,452081,2023-10-13T09:07:23Z,452096.24,NULL,Vorsorge,tahadhari,s,ufafanuzi,makini,mashambani,NA,sdf,0,2,NA,NA,NA,NA,NA,NA,NA,NA,NA,NA,NA,NA,NA,NA,NA,NA,NA,NA,NA
7b803,shallow,flow.Sequence,3_0_2_0_0_1,NA,NA,completion,11482.14,440597,440597.16,440597.44,452079.58,452082,2023-10-13T09:07:23Z,452096.24,NULL,Vorsorge,tahadhari,s,ufafanuzi,makini,mashambani,NA,sdf,NA,2,NA,NA,NA,NA,NA,NA,NA,NA,NA,NA,NA,NA,NA,NA,NA,NA,NA,NA,NA
7b803,task,flow.Sequence,3_0_2_0_0,NA,NA,completion,11482.14,440597,440597.16,440597.44,452079.58,452083,2023-10-13T09:07:23Z,452096.24,NULL,Vorsorge,tahadhari,s,ufafanuzi,makini,mashambani,NA,sdf,NA,2,NA,NA,NA,NA,NA,NA,NA,NA,NA,NA,NA,NA,NA,NA,NA,NA,NA,NA,NA
7b803,Deep Question,html.Page,3_0_2_0_1_0_0,NA,NA,form submission,21053.76,452083,452079.58,452096.24,473150,473151,2023-10-13T09:07:44Z,473162.16,NULL,Zuwachs,nyongeza,d,NA,NA,NA,ukulenzo,NA,NA,2,NA,NA,NA,NA,NA,NA,NA,NA,NA,NA,NA,NA,NA,NA,NA,NA,NA,NA,NA
7b803,"""Richtig""-Screen",canvas.Screen,3_0_2_0_1_0_1,NA,NA,skipped,NA,473158,NA,NA,473150,473158,2023-10-13T09:07:44Z,473162.16,NULL,Zuwachs,nyongeza,d,NA,NA,NA,NA,sdf,NA,2,NA,NA,NA,NA,NA,NA,NA,NA,NA,NA,NA,NA,NA,NA,NA,NA,NA,NA,NA
7b803,"""Falsch""-Screen",canvas.Screen,3_0_2_0_1_0_2,NA,NA,timeout,4995.96,473161,473146.7,473162.16,478141.46,478144,2023-10-13T09:07:49Z,478158.12,NULL,Zuwachs,nyongeza,d,NA,NA,NA,NA,sdf,0,2,NA,NA,NA,NA,NA,NA,NA,NA,NA,NA,NA,NA,NA,NA,NA,NA,NA,NA,NA
7b803,deep,flow.Sequence,3_0_2_0_1_0,NA,NA,completion,26045.22,452083,452079.58,452096.24,478141.46,478145,2023-10-13T09:07:49Z,478158.12,NULL,Zuwachs,nyongeza,d,NA,NA,NA,NA,sdf,NA,2,NA,NA,NA,NA,NA,NA,NA,NA,NA,NA,NA,NA,NA,NA,NA,NA,NA,NA,NA
7b803,shallow,flow.Sequence,3_0_2_0_1_1,NA,NA,skipped,NA,478145,NA,NA,478141.46,478145,2023-10-13T09:07:49Z,478158.12,NULL,Zuwachs,nyongeza,d,NA,NA,NA,NA,sdf,NA,2,NA,NA,NA,NA,NA,NA,NA,NA,NA,NA,NA,NA,NA,NA,NA,NA,NA,NA,NA
7b803,task,flow.Sequence,3_0_2_0_1,NA,NA,completion,26045.22,452083,452079.58,452096.24,478141.46,478146,2023-10-13T09:07:49Z,478158.12,NULL,Zuwachs,nyongeza,d,NA,NA,NA,NA,sdf,NA,2,NA,NA,NA,NA,NA,NA,NA,NA,NA,NA,NA,NA,NA,NA,NA,NA,NA,NA,NA
7b803,deep,flow.Sequence,3_0_2_0_2_0,NA,NA,skipped,NA,478146,NA,NA,478141.46,478148,2023-10-13T09:07:49Z,478158.12,NULL,Tester,wanaojaribu,s,sherti,sihiri,mlipuko,NA,sdf,NA,2,NA,NA,NA,NA,NA,NA,NA,NA,NA,NA,NA,NA,NA,NA,NA,NA,NA,NA,NA
7b803,Shallow Question,html.Page,3_0_2_0_2_1_0,NA,NA,form submission,8480.88,478148,478141.46,478158.12,486639,486639,2023-10-13T09:07:57Z,486651.08,NULL,Tester,wanaojaribu,s,sherti,sihiri,mlipuko,wanaojaribu,NA,NA,2,NA,NA,NA,NA,NA,NA,NA,NA,NA,NA,NA,NA,NA,NA,NA,NA,NA,NA,NA
7b803,"""Richtig""-Screen",canvas.Screen,3_0_2_0_2_1_1,NA,NA,timeout,4995.96,486642,486637.92,486651.08,491630.4,491633,2023-10-13T09:08:02Z,491647.04,NULL,Tester,wanaojaribu,s,sherti,sihiri,mlipuko,NA,sdf,1,2,NA,NA,NA,NA,NA,NA,NA,NA,NA,NA,NA,NA,NA,NA,NA,NA,NA,NA,NA
7b803,"""Falsch""-Screen",canvas.Screen,3_0_2_0_2_1_2,NA,NA,skipped,NA,491642,NA,NA,491630.4,491642,2023-10-13T09:08:02Z,491647.04,NULL,Tester,wanaojaribu,s,sherti,sihiri,mlipuko,NA,sdf,NA,2,NA,NA,NA,NA,NA,NA,NA,NA,NA,NA,NA,NA,NA,NA,NA,NA,NA,NA,NA
7b803,shallow,flow.Sequence,3_0_2_0_2_1,NA,NA,completion,13472.28,478148,478141.46,478158.12,491630.4,491643,2023-10-13T09:08:02Z,491647.04,NULL,Tester,wanaojaribu,s,sherti,sihiri,mlipuko,NA,sdf,NA,2,NA,NA,NA,NA,NA,NA,NA,NA,NA,NA,NA,NA,NA,NA,NA,NA,NA,NA,NA
7b803,task,flow.Sequence,3_0_2_0_2,NA,NA,completion,13472.28,478146,478141.46,478158.12,491630.4,491643,2023-10-13T09:08:02Z,491647.04,NULL,Tester,wanaojaribu,s,sherti,sihiri,mlipuko,NA,sdf,NA,2,NA,NA,NA,NA,NA,NA,NA,NA,NA,NA,NA,NA,NA,NA,NA,NA,NA,NA,NA
7b803,Deep Question,html.Page,3_0_2_0_3_0_0,NA,NA,form submission,19094.96,491644,491630.4,491647.04,510742,510743,2023-10-13T09:08:21Z,510747.98,NULL,Spionage,upelelezi,d,NA,NA,NA,myzelpo,NA,NA,2,NA,NA,NA,NA,NA,NA,NA,NA,NA,NA,NA,NA,NA,NA,NA,NA,NA,NA,NA
7b803,"""Richtig""-Screen",canvas.Screen,3_0_2_0_3_0_1,NA,NA,skipped,NA,510749,NA,NA,510742,510749,2023-10-13T09:08:21Z,510747.98,NULL,Spionage,upelelezi,d,NA,NA,NA,NA,sdf,NA,2,NA,NA,NA,NA,NA,NA,NA,NA,NA,NA,NA,NA,NA,NA,NA,NA,NA,NA,NA
7b803,"""Falsch""-Screen",canvas.Screen,3_0_2_0_3_0_2,NA,NA,timeout,4995.92,510752,510740.62,510747.98,515727.24,515729,2023-10-13T09:08:26Z,515743.9,NULL,Spionage,upelelezi,d,NA,NA,NA,NA,sdf,0,2,NA,NA,NA,NA,NA,NA,NA,NA,NA,NA,NA,NA,NA,NA,NA,NA,NA,NA,NA
7b803,deep,flow.Sequence,3_0_2_0_3_0,NA,NA,completion,24080.2,491644,491630.4,491647.04,515727.24,515730,2023-10-13T09:08:26Z,515743.9,NULL,Spionage,upelelezi,d,NA,NA,NA,NA,sdf,NA,2,NA,NA,NA,NA,NA,NA,NA,NA,NA,NA,NA,NA,NA,NA,NA,NA,NA,NA,NA
7b803,shallow,flow.Sequence,3_0_2_0_3_1,NA,NA,skipped,NA,515730,NA,NA,515727.24,515730,2023-10-13T09:08:26Z,515743.9,NULL,Spionage,upelelezi,d,NA,NA,NA,NA,sdf,NA,2,NA,NA,NA,NA,NA,NA,NA,NA,NA,NA,NA,NA,NA,NA,NA,NA,NA,NA,NA
7b803,task,flow.Sequence,3_0_2_0_3,NA,NA,completion,24080.2,491644,491630.4,491647.04,515727.24,515731,2023-10-13T09:08:26Z,515743.9,NULL,Spionage,upelelezi,d,NA,NA,NA,NA,sdf,NA,2,NA,NA,NA,NA,NA,NA,NA,NA,NA,NA,NA,NA,NA,NA,NA,NA,NA,NA,NA
7b803,deep,flow.Sequence,3_0_2_0_4_0,NA,NA,skipped,NA,515731,NA,NA,515727.24,515731,2023-10-13T09:08:26Z,515743.9,NULL,Konkurrent,mshindani,s,msemaji,mvutaji,kipukusa,NA,sdf,NA,2,NA,NA,NA,NA,NA,NA,NA,NA,NA,NA,NA,NA,NA,NA,NA,NA,NA,NA,NA
7b803,Shallow Question,html.Page,3_0_2_0_4_1_0,NA,NA,form submission,8145.1,515732,515727.24,515743.9,523889,523889,2023-10-13T09:08:34Z,523903.82,NULL,Konkurrent,mshindani,s,msemaji,mvutaji,kipukusa,mshindani,NA,NA,2,NA,NA,NA,NA,NA,NA,NA,NA,NA,NA,NA,NA,NA,NA,NA,NA,NA,NA,NA
7b803,"""Richtig""-Screen",canvas.Screen,3_0_2_0_4_1_1,NA,NA,timeout,4995.96,523892,523887.88,523903.82,528883.12,528885,2023-10-13T09:08:39Z,528899.78,NULL,Konkurrent,mshindani,s,msemaji,mvutaji,kipukusa,NA,sdf,1,2,NA,NA,NA,NA,NA,NA,NA,NA,NA,NA,NA,NA,NA,NA,NA,NA,NA,NA,NA
7b803,"""Falsch""-Screen",canvas.Screen,3_0_2_0_4_1_2,NA,NA,skipped,NA,528893,NA,NA,528883.12,528894,2023-10-13T09:08:39Z,528899.78,NULL,Konkurrent,mshindani,s,msemaji,mvutaji,kipukusa,NA,sdf,NA,2,NA,NA,NA,NA,NA,NA,NA,NA,NA,NA,NA,NA,NA,NA,NA,NA,NA,NA,NA
7b803,shallow,flow.Sequence,3_0_2_0_4_1,NA,NA,completion,13139.22,515732,515727.24,515743.9,528883.12,528894,2023-10-13T09:08:39Z,528899.78,NULL,Konkurrent,mshindani,s,msemaji,mvutaji,kipukusa,NA,sdf,NA,2,NA,NA,NA,NA,NA,NA,NA,NA,NA,NA,NA,NA,NA,NA,NA,NA,NA,NA,NA
7b803,task,flow.Sequence,3_0_2_0_4,NA,NA,completion,13139.22,515731,515727.24,515743.9,528883.12,528894,2023-10-13T09:08:39Z,528899.78,NULL,Konkurrent,mshindani,s,msemaji,mvutaji,kipukusa,NA,sdf,NA,2,NA,NA,NA,NA,NA,NA,NA,NA,NA,NA,NA,NA,NA,NA,NA,NA,NA,NA,NA
7b803,Deep Question,html.Page,3_0_2_0_5_0_0,NA,NA,form submission,13311.22,528896,528883.12,528899.78,542211,542212,2023-10-13T09:08:53Z,542222.12,NULL,Symbol,kielezo,d,NA,NA,NA,upululezi,NA,NA,2,NA,NA,NA,NA,NA,NA,NA,NA,NA,NA,NA,NA,NA,NA,NA,NA,NA,NA,NA
7b803,"""Richtig""-Screen",canvas.Screen,3_0_2_0_5_0_1,NA,NA,skipped,NA,542218,NA,NA,542211,542218,2023-10-13T09:08:53Z,542222.12,NULL,Symbol,kielezo,d,NA,NA,NA,NA,sdf,NA,2,NA,NA,NA,NA,NA,NA,NA,NA,NA,NA,NA,NA,NA,NA,NA,NA,NA,NA,NA
7b803,"""Falsch""-Screen",canvas.Screen,3_0_2_0_5_0_2,NA,NA,timeout,4995.58,542221,542207.54,542222.12,547201.04,547203,2023-10-13T09:08:58Z,547217.7,NULL,Symbol,kielezo,d,NA,NA,NA,NA,sdf,0,2,NA,NA,NA,NA,NA,NA,NA,NA,NA,NA,NA,NA,NA,NA,NA,NA,NA,NA,NA
7b803,deep,flow.Sequence,3_0_2_0_5_0,NA,NA,completion,18301.26,528896,528883.12,528899.78,547201.04,547204,2023-10-13T09:08:58Z,547217.7,NULL,Symbol,kielezo,d,NA,NA,NA,NA,sdf,NA,2,NA,NA,NA,NA,NA,NA,NA,NA,NA,NA,NA,NA,NA,NA,NA,NA,NA,NA,NA
7b803,shallow,flow.Sequence,3_0_2_0_5_1,NA,NA,skipped,NA,547205,NA,NA,547201.04,547206,2023-10-13T09:08:58Z,547217.7,NULL,Symbol,kielezo,d,NA,NA,NA,NA,sdf,NA,2,NA,NA,NA,NA,NA,NA,NA,NA,NA,NA,NA,NA,NA,NA,NA,NA,NA,NA,NA
7b803,task,flow.Sequence,3_0_2_0_5,NA,NA,completion,18301.26,528894,528883.12,528899.78,547201.04,547206,2023-10-13T09:08:58Z,547217.7,NULL,Symbol,kielezo,d,NA,NA,NA,NA,sdf,NA,2,NA,NA,NA,NA,NA,NA,NA,NA,NA,NA,NA,NA,NA,NA,NA,NA,NA,NA,NA
7b803,deep,flow.Sequence,3_0_2_0_6_0,NA,NA,skipped,NA,547208,NA,NA,547201.04,547209,2023-10-13T09:08:58Z,547217.7,NULL,Schüler,mwanafunzi,s,mwekezaji,matumizi,uaminifu,NA,sdf,NA,2,NA,NA,NA,NA,NA,NA,NA,NA,NA,NA,NA,NA,NA,NA,NA,NA,NA,NA,NA
7b803,Shallow Question,html.Page,3_0_2_0_6_1_0,NA,NA,form submission,4522.3,547209,547201.04,547217.7,551740,551740,2023-10-13T09:09:02Z,551747.56,NULL,Schüler,mwanafunzi,s,mwekezaji,matumizi,uaminifu,mwanafunzi,NA,NA,2,NA,NA,NA,NA,NA,NA,NA,NA,NA,NA,NA,NA,NA,NA,NA,NA,NA,NA,NA
7b803,"""Richtig""-Screen",canvas.Screen,3_0_2_0_6_1_1,NA,NA,timeout,4995.9199999999,551742,551737.7,551747.56,556726.82,556729,2023-10-13T09:09:07Z,556743.48,NULL,Schüler,mwanafunzi,s,mwekezaji,matumizi,uaminifu,NA,sdf,1,2,NA,NA,NA,NA,NA,NA,NA,NA,NA,NA,NA,NA,NA,NA,NA,NA,NA,NA,NA
7b803,"""Falsch""-Screen",canvas.Screen,3_0_2_0_6_1_2,NA,NA,skipped,NA,556737,NA,NA,556726.82,556738,2023-10-13T09:09:07Z,556743.48,NULL,Schüler,mwanafunzi,s,mwekezaji,matumizi,uaminifu,NA,sdf,NA,2,NA,NA,NA,NA,NA,NA,NA,NA,NA,NA,NA,NA,NA,NA,NA,NA,NA,NA,NA
7b803,shallow,flow.Sequence,3_0_2_0_6_1,NA,NA,completion,9509.12,547209,547201.04,547217.7,556726.82,556739,2023-10-13T09:09:07Z,556743.48,NULL,Schüler,mwanafunzi,s,mwekezaji,matumizi,uaminifu,NA,sdf,NA,2,NA,NA,NA,NA,NA,NA,NA,NA,NA,NA,NA,NA,NA,NA,NA,NA,NA,NA,NA
7b803,task,flow.Sequence,3_0_2_0_6,NA,NA,completion,9509.12,547208,547201.04,547217.7,556726.82,556740,2023-10-13T09:09:07Z,556743.48,NULL,Schüler,mwanafunzi,s,mwekezaji,matumizi,uaminifu,NA,sdf,NA,2,NA,NA,NA,NA,NA,NA,NA,NA,NA,NA,NA,NA,NA,NA,NA,NA,NA,NA,NA
7b803,Deep Question,html.Page,3_0_2_0_7_0_0,NA,NA,form submission,15852.52,556740,556726.82,556743.48,572596,572596,2023-10-13T09:09:23Z,572597.12,NULL,Fenster,dirisha,d,NA,NA,NA,kiendeli,NA,NA,2,NA,NA,NA,NA,NA,NA,NA,NA,NA,NA,NA,NA,NA,NA,NA,NA,NA,NA,NA
7b803,"""Richtig""-Screen",canvas.Screen,3_0_2_0_7_0_1,NA,NA,skipped,NA,572599,NA,NA,572596,572599,2023-10-13T09:09:23Z,572597.12,NULL,Fenster,dirisha,d,NA,NA,NA,NA,sdf,NA,2,NA,NA,NA,NA,NA,NA,NA,NA,NA,NA,NA,NA,NA,NA,NA,NA,NA,NA,NA
7b803,"""Falsch""-Screen",canvas.Screen,3_0_2_0_7_0_2,NA,NA,timeout,4995.96,572602,572594.46,572597.12,577576.42,577578,2023-10-13T09:09:28Z,577593.08,NULL,Fenster,dirisha,d,NA,NA,NA,NA,sdf,0,2,NA,NA,NA,NA,NA,NA,NA,NA,NA,NA,NA,NA,NA,NA,NA,NA,NA,NA,NA
7b803,deep,flow.Sequence,3_0_2_0_7_0,NA,NA,completion,20832.94,556740,556726.82,556743.48,577576.42,577579,2023-10-13T09:09:28Z,577593.08,NULL,Fenster,dirisha,d,NA,NA,NA,NA,sdf,NA,2,NA,NA,NA,NA,NA,NA,NA,NA,NA,NA,NA,NA,NA,NA,NA,NA,NA,NA,NA
7b803,shallow,flow.Sequence,3_0_2_0_7_1,NA,NA,skipped,NA,577579,NA,NA,577576.42,577580,2023-10-13T09:09:28Z,577593.08,NULL,Fenster,dirisha,d,NA,NA,NA,NA,sdf,NA,2,NA,NA,NA,NA,NA,NA,NA,NA,NA,NA,NA,NA,NA,NA,NA,NA,NA,NA,NA
7b803,task,flow.Sequence,3_0_2_0_7,NA,NA,completion,20832.94,556740,556726.82,556743.48,577576.42,577580,2023-10-13T09:09:28Z,577593.08,NULL,Fenster,dirisha,d,NA,NA,NA,NA,sdf,NA,2,NA,NA,NA,NA,NA,NA,NA,NA,NA,NA,NA,NA,NA,NA,NA,NA,NA,NA,NA
7b803,block,flow.Loop,3_0_2_0,NA,NA,completion,136978.98,440596,440597.16,440597.44,577576.42,577581,2023-10-13T09:09:28Z,577593.08,NULL,NA,NA,NA,NA,NA,NA,NA,sdf,NA,2,NA,NA,NA,NA,NA,NA,NA,NA,NA,NA,NA,NA,NA,NA,NA,NA,NA,NA,NA
7b803,weiter,canvas.Screen,3_0_2_1,sdf,keypress(Space),response,1338.92,577582,577576.42,577593.08,578932,578939,2023-10-13T09:09:29Z,579090.94,NULL,NA,NA,NA,NA,NA,NA,NA,sdf,NA,2,NA,NA,NA,NA,NA,NA,NA,NA,NA,NA,NA,NA,NA,NA,NA,NA,NA,NA,NA
7b803,check continue,flow.Sequence,3_0_2,NA,NA,completion,138334.56,440596,440597.16,440597.44,578932,578940,2023-10-13T09:09:29Z,579090.94,NULL,NA,NA,NA,NA,NA,NA,NA,sdf,NA,2,NA,NA,NA,NA,NA,NA,NA,NA,NA,NA,NA,NA,NA,NA,NA,NA,NA,NA,NA
7b803,Deep Question,html.Page,3_0_3_0_0_0_0,NA,NA,form submission,10082.06,579091,579090.68,579090.94,589173,589173,2023-10-13T09:09:40Z,589183.54,NULL,Symbol,kielezo,d,NA,NA,NA,drisha,NA,NA,3,NA,NA,NA,NA,NA,NA,NA,NA,NA,NA,NA,NA,NA,NA,NA,NA,NA,NA,NA
7b803,"""Richtig""-Screen",canvas.Screen,3_0_3_0_0_0_1,NA,NA,skipped,NA,589176,NA,NA,589173,589176,2023-10-13T09:09:40Z,589183.54,NULL,Symbol,kielezo,d,NA,NA,NA,NA,qt,NA,3,NA,NA,NA,NA,NA,NA,NA,NA,NA,NA,NA,NA,NA,NA,NA,NA,NA,NA,NA
7b803,"""Falsch""-Screen",canvas.Screen,3_0_3_0_0_0_2,NA,NA,timeout,4995.88,589178,589172.16,589183.54,594162.78,594165,2023-10-13T09:09:45Z,594179.42,NULL,Symbol,kielezo,d,NA,NA,NA,NA,qt,0,3,NA,NA,NA,NA,NA,NA,NA,NA,NA,NA,NA,NA,NA,NA,NA,NA,NA,NA,NA
7b803,deep,flow.Sequence,3_0_3_0_0_0,NA,NA,completion,15071.84,579091,579090.68,579090.94,594162.78,594165,2023-10-13T09:09:45Z,594179.42,NULL,Symbol,kielezo,d,NA,NA,NA,NA,qt,NA,3,NA,NA,NA,NA,NA,NA,NA,NA,NA,NA,NA,NA,NA,NA,NA,NA,NA,NA,NA
7b803,shallow,flow.Sequence,3_0_3_0_0_1,NA,NA,skipped,NA,594166,NA,NA,594162.78,594166,2023-10-13T09:09:45Z,594179.42,NULL,Symbol,kielezo,d,NA,NA,NA,NA,qt,NA,3,NA,NA,NA,NA,NA,NA,NA,NA,NA,NA,NA,NA,NA,NA,NA,NA,NA,NA,NA
7b803,task,flow.Sequence,3_0_3_0_0,NA,NA,completion,15071.84,579091,579090.68,579090.94,594162.78,594167,2023-10-13T09:09:45Z,594179.42,NULL,Symbol,kielezo,d,NA,NA,NA,NA,qt,NA,3,NA,NA,NA,NA,NA,NA,NA,NA,NA,NA,NA,NA,NA,NA,NA,NA,NA,NA,NA
7b803,Deep Question,html.Page,3_0_3_0_1_0_0,NA,NA,form submission,24948.58,594167,594162.78,594179.42,619128,619129,2023-10-13T09:10:10Z,619142.18,NULL,Spionage,upelelezi,d,NA,NA,NA,kielywa,NA,NA,3,NA,NA,NA,NA,NA,NA,NA,NA,NA,NA,NA,NA,NA,NA,NA,NA,NA,NA,NA
7b803,"""Richtig""-Screen",canvas.Screen,3_0_3_0_1_0_1,NA,NA,skipped,NA,619130,NA,NA,619128,619131,2023-10-13T09:10:10Z,619142.18,NULL,Spionage,upelelezi,d,NA,NA,NA,NA,qt,NA,3,NA,NA,NA,NA,NA,NA,NA,NA,NA,NA,NA,NA,NA,NA,NA,NA,NA,NA,NA
7b803,"""Falsch""-Screen",canvas.Screen,3_0_3_0_1_0_2,NA,NA,timeout,4995.98,619133,619127.62,619142.18,624121.5,624123,2023-10-13T09:10:15Z,624138.16,NULL,Spionage,upelelezi,d,NA,NA,NA,NA,qt,0,3,NA,NA,NA,NA,NA,NA,NA,NA,NA,NA,NA,NA,NA,NA,NA,NA,NA,NA,NA
7b803,deep,flow.Sequence,3_0_3_0_1_0,NA,NA,completion,29942.08,594167,594162.78,594179.42,624121.5,624124,2023-10-13T09:10:15Z,624138.16,NULL,Spionage,upelelezi,d,NA,NA,NA,NA,qt,NA,3,NA,NA,NA,NA,NA,NA,NA,NA,NA,NA,NA,NA,NA,NA,NA,NA,NA,NA,NA
7b803,shallow,flow.Sequence,3_0_3_0_1_1,NA,NA,skipped,NA,624124,NA,NA,624121.5,624124,2023-10-13T09:10:15Z,624138.16,NULL,Spionage,upelelezi,d,NA,NA,NA,NA,qt,NA,3,NA,NA,NA,NA,NA,NA,NA,NA,NA,NA,NA,NA,NA,NA,NA,NA,NA,NA,NA
7b803,task,flow.Sequence,3_0_3_0_1,NA,NA,completion,29942.08,594167,594162.78,594179.42,624121.5,624125,2023-10-13T09:10:15Z,624138.16,NULL,Spionage,upelelezi,d,NA,NA,NA,NA,qt,NA,3,NA,NA,NA,NA,NA,NA,NA,NA,NA,NA,NA,NA,NA,NA,NA,NA,NA,NA,NA
7b803,deep,flow.Sequence,3_0_3_0_2_0,NA,NA,skipped,NA,624125,NA,NA,624121.5,624125,2023-10-13T09:10:15Z,624138.16,NULL,Konkurrent,mshindani,s,msemaji,mvutaji,kipukusa,NA,qt,NA,3,NA,NA,NA,NA,NA,NA,NA,NA,NA,NA,NA,NA,NA,NA,NA,NA,NA,NA,NA
7b803,Shallow Question,html.Page,3_0_3_0_2_1_0,NA,NA,form submission,4528.84,624125,624121.5,624138.16,628667,628668,2023-10-13T09:10:19Z,628667.68,NULL,Konkurrent,mshindani,s,msemaji,mvutaji,kipukusa,mshindani,NA,NA,3,NA,NA,NA,NA,NA,NA,NA,NA,NA,NA,NA,NA,NA,NA,NA,NA,NA,NA,NA
7b803,"""Richtig""-Screen",canvas.Screen,3_0_3_0_2_1_1,NA,NA,timeout,4995.96,628670,628666.34,628667.68,633647,633649,2023-10-13T09:10:24Z,633663.64,NULL,Konkurrent,mshindani,s,msemaji,mvutaji,kipukusa,NA,qt,1,3,NA,NA,NA,NA,NA,NA,NA,NA,NA,NA,NA,NA,NA,NA,NA,NA,NA,NA,NA
7b803,"""Falsch""-Screen",canvas.Screen,3_0_3_0_2_1_2,NA,NA,skipped,NA,633654,NA,NA,633647,633655,2023-10-13T09:10:24Z,633663.64,NULL,Konkurrent,mshindani,s,msemaji,mvutaji,kipukusa,NA,qt,NA,3,NA,NA,NA,NA,NA,NA,NA,NA,NA,NA,NA,NA,NA,NA,NA,NA,NA,NA,NA
7b803,shallow,flow.Sequence,3_0_3_0_2_1,NA,NA,completion,9508.84,624125,624121.5,624138.16,633647,633655,2023-10-13T09:10:24Z,633663.64,NULL,Konkurrent,mshindani,s,msemaji,mvutaji,kipukusa,NA,qt,NA,3,NA,NA,NA,NA,NA,NA,NA,NA,NA,NA,NA,NA,NA,NA,NA,NA,NA,NA,NA
7b803,task,flow.Sequence,3_0_3_0_2,NA,NA,completion,9508.84,624125,624121.5,624138.16,633647,633655,2023-10-13T09:10:24Z,633663.64,NULL,Konkurrent,mshindani,s,msemaji,mvutaji,kipukusa,NA,qt,NA,3,NA,NA,NA,NA,NA,NA,NA,NA,NA,NA,NA,NA,NA,NA,NA,NA,NA,NA,NA
7b803,Deep Question,html.Page,3_0_3_0_3_0_0,NA,NA,form submission,22229.36,633656,633647,633663.64,655893,655895,2023-10-13T09:10:46Z,655895.34,NULL,Fenster,dirisha,d,NA,NA,NA,upulezi,NA,NA,3,NA,NA,NA,NA,NA,NA,NA,NA,NA,NA,NA,NA,NA,NA,NA,NA,NA,NA,NA
7b803,"""Richtig""-Screen",canvas.Screen,3_0_3_0_3_0_1,NA,NA,skipped,NA,655901,NA,NA,655893,655901,2023-10-13T09:10:46Z,655895.34,NULL,Fenster,dirisha,d,NA,NA,NA,NA,qt,NA,3,NA,NA,NA,NA,NA,NA,NA,NA,NA,NA,NA,NA,NA,NA,NA,NA,NA,NA,NA
7b803,"""Falsch""-Screen",canvas.Screen,3_0_3_0_3_0_2,NA,NA,timeout,4995.9,655904,655889.96,655895.34,660874.6,660877,2023-10-13T09:10:51Z,660891.24,NULL,Fenster,dirisha,d,NA,NA,NA,NA,qt,0,3,NA,NA,NA,NA,NA,NA,NA,NA,NA,NA,NA,NA,NA,NA,NA,NA,NA,NA,NA
7b803,deep,flow.Sequence,3_0_3_0_3_0,NA,NA,completion,27210.96,633656,633647,633663.64,660874.6,660880,2023-10-13T09:10:51Z,660891.24,NULL,Fenster,dirisha,d,NA,NA,NA,NA,qt,NA,3,NA,NA,NA,NA,NA,NA,NA,NA,NA,NA,NA,NA,NA,NA,NA,NA,NA,NA,NA
7b803,shallow,flow.Sequence,3_0_3_0_3_1,NA,NA,skipped,NA,660880,NA,NA,660874.6,660881,2023-10-13T09:10:51Z,660891.24,NULL,Fenster,dirisha,d,NA,NA,NA,NA,qt,NA,3,NA,NA,NA,NA,NA,NA,NA,NA,NA,NA,NA,NA,NA,NA,NA,NA,NA,NA,NA
7b803,task,flow.Sequence,3_0_3_0_3,NA,NA,completion,27210.96,633656,633647,633663.64,660874.6,660881,2023-10-13T09:10:51Z,660891.24,NULL,Fenster,dirisha,d,NA,NA,NA,NA,qt,NA,3,NA,NA,NA,NA,NA,NA,NA,NA,NA,NA,NA,NA,NA,NA,NA,NA,NA,NA,NA
7b803,deep,flow.Sequence,3_0_3_0_4_0,NA,NA,skipped,NA,660882,NA,NA,660874.6,660882,2023-10-13T09:10:51Z,660891.24,NULL,Vorsorge,tahadhari,s,ufafanuzi,makini,mashambani,NA,qt,NA,3,NA,NA,NA,NA,NA,NA,NA,NA,NA,NA,NA,NA,NA,NA,NA,NA,NA,NA,NA
7b803,Shallow Question,html.Page,3_0_3_0_4_1_0,NA,NA,form submission,7554.76,660882,660874.6,660891.24,668446,668446,2023-10-13T09:10:59Z,668451.66,NULL,Vorsorge,tahadhari,s,ufafanuzi,makini,mashambani,ufafanuzi,NA,NA,3,NA,NA,NA,NA,NA,NA,NA,NA,NA,NA,NA,NA,NA,NA,NA,NA,NA,NA,NA
7b803,"""Richtig""-Screen",canvas.Screen,3_0_3_0_4_1_1,NA,NA,skipped,NA,668448,NA,NA,668446,668449,2023-10-13T09:10:59Z,668451.66,NULL,Vorsorge,tahadhari,s,ufafanuzi,makini,mashambani,NA,qt,NA,3,NA,NA,NA,NA,NA,NA,NA,NA,NA,NA,NA,NA,NA,NA,NA,NA,NA,NA,NA
7b803,"""Falsch""-Screen",canvas.Screen,3_0_3_0_4_1_2,NA,NA,timeout,4995.9199999999,668451,668444.46,668451.66,673430.92,673433,2023-10-13T09:11:04Z,673447.58,NULL,Vorsorge,tahadhari,s,ufafanuzi,makini,mashambani,NA,qt,0,3,NA,NA,NA,NA,NA,NA,NA,NA,NA,NA,NA,NA,NA,NA,NA,NA,NA,NA,NA
7b803,shallow,flow.Sequence,3_0_3_0_4_1,NA,NA,completion,12539.68,660882,660874.6,660891.24,673430.92,673435,2023-10-13T09:11:04Z,673447.58,NULL,Vorsorge,tahadhari,s,ufafanuzi,makini,mashambani,NA,qt,NA,3,NA,NA,NA,NA,NA,NA,NA,NA,NA,NA,NA,NA,NA,NA,NA,NA,NA,NA,NA
7b803,task,flow.Sequence,3_0_3_0_4,NA,NA,completion,12539.68,660882,660874.6,660891.24,673430.92,673435,2023-10-13T09:11:04Z,673447.58,NULL,Vorsorge,tahadhari,s,ufafanuzi,makini,mashambani,NA,qt,NA,3,NA,NA,NA,NA,NA,NA,NA,NA,NA,NA,NA,NA,NA,NA,NA,NA,NA,NA,NA
7b803,deep,flow.Sequence,3_0_3_0_5_0,NA,NA,skipped,NA,673437,NA,NA,673430.92,673437,2023-10-13T09:11:04Z,673447.58,NULL,Tester,wanaojaribu,s,sherti,sihiri,mlipuko,NA,qt,NA,3,NA,NA,NA,NA,NA,NA,NA,NA,NA,NA,NA,NA,NA,NA,NA,NA,NA,NA,NA
7b803,Shallow Question,html.Page,3_0_3_0_5_1_0,NA,NA,form submission,11271.42,673438,673430.92,673447.58,684719,684719,2023-10-13T09:11:15Z,684721.6,NULL,Tester,wanaojaribu,s,sherti,sihiri,mlipuko,wanaojaribu,NA,NA,3,NA,NA,NA,NA,NA,NA,NA,NA,NA,NA,NA,NA,NA,NA,NA,NA,NA,NA,NA
7b803,"""Richtig""-Screen",canvas.Screen,3_0_3_0_5_1_1,NA,NA,timeout,4995.9600000001,684722,684717.88,684721.6,689700.9,689703,2023-10-13T09:11:20Z,689717.56,NULL,Tester,wanaojaribu,s,sherti,sihiri,mlipuko,NA,qt,1,3,NA,NA,NA,NA,NA,NA,NA,NA,NA,NA,NA,NA,NA,NA,NA,NA,NA,NA,NA
7b803,"""Falsch""-Screen",canvas.Screen,3_0_3_0_5_1_2,NA,NA,skipped,NA,689712,NA,NA,689700.9,689712,2023-10-13T09:11:20Z,689717.56,NULL,Tester,wanaojaribu,s,sherti,sihiri,mlipuko,NA,qt,NA,3,NA,NA,NA,NA,NA,NA,NA,NA,NA,NA,NA,NA,NA,NA,NA,NA,NA,NA,NA
7b803,shallow,flow.Sequence,3_0_3_0_5_1,NA,NA,completion,16253.32,673438,673430.92,673447.58,689700.9,689713,2023-10-13T09:11:20Z,689717.56,NULL,Tester,wanaojaribu,s,sherti,sihiri,mlipuko,NA,qt,NA,3,NA,NA,NA,NA,NA,NA,NA,NA,NA,NA,NA,NA,NA,NA,NA,NA,NA,NA,NA
7b803,task,flow.Sequence,3_0_3_0_5,NA,NA,completion,16253.32,673436,673430.92,673447.58,689700.9,689713,2023-10-13T09:11:20Z,689717.56,NULL,Tester,wanaojaribu,s,sherti,sihiri,mlipuko,NA,qt,NA,3,NA,NA,NA,NA,NA,NA,NA,NA,NA,NA,NA,NA,NA,NA,NA,NA,NA,NA,NA
7b803,deep,flow.Sequence,3_0_3_0_6_0,NA,NA,skipped,NA,689713,NA,NA,689700.9,689714,2023-10-13T09:11:20Z,689717.56,NULL,Schüler,mwanafunzi,s,mwekezaji,matumizi,uaminifu,NA,qt,NA,3,NA,NA,NA,NA,NA,NA,NA,NA,NA,NA,NA,NA,NA,NA,NA,NA,NA,NA,NA
7b803,Shallow Question,html.Page,3_0_3_0_6_1_0,NA,NA,form submission,6181.4399999999,689714,689700.9,689717.56,695899,695899,2023-10-13T09:11:26Z,695912.4,NULL,Schüler,mwanafunzi,s,mwekezaji,matumizi,uaminifu,mwanafunzi,NA,NA,3,NA,NA,NA,NA,NA,NA,NA,NA,NA,NA,NA,NA,NA,NA,NA,NA,NA,NA,NA
7b803,"""Richtig""-Screen",canvas.Screen,3_0_3_0_6_1_1,NA,NA,timeout,4995.96,695901,695897.58,695912.4,700891.72,700894,2023-10-13T09:11:31Z,700908.36,NULL,Schüler,mwanafunzi,s,mwekezaji,matumizi,uaminifu,NA,qt,1,3,NA,NA,NA,NA,NA,NA,NA,NA,NA,NA,NA,NA,NA,NA,NA,NA,NA,NA,NA
7b803,"""Falsch""-Screen",canvas.Screen,3_0_3_0_6_1_2,NA,NA,skipped,NA,700900,NA,NA,700891.72,700900,2023-10-13T09:11:31Z,700908.36,NULL,Schüler,mwanafunzi,s,mwekezaji,matumizi,uaminifu,NA,qt,NA,3,NA,NA,NA,NA,NA,NA,NA,NA,NA,NA,NA,NA,NA,NA,NA,NA,NA,NA,NA
7b803,shallow,flow.Sequence,3_0_3_0_6_1,NA,NA,completion,11174.16,689714,689700.9,689717.56,700891.72,700901,2023-10-13T09:11:31Z,700908.36,NULL,Schüler,mwanafunzi,s,mwekezaji,matumizi,uaminifu,NA,qt,NA,3,NA,NA,NA,NA,NA,NA,NA,NA,NA,NA,NA,NA,NA,NA,NA,NA,NA,NA,NA
7b803,task,flow.Sequence,3_0_3_0_6,NA,NA,completion,11174.16,689713,689700.9,689717.56,700891.72,700902,2023-10-13T09:11:31Z,700908.36,NULL,Schüler,mwanafunzi,s,mwekezaji,matumizi,uaminifu,NA,qt,NA,3,NA,NA,NA,NA,NA,NA,NA,NA,NA,NA,NA,NA,NA,NA,NA,NA,NA,NA,NA
7b803,Deep Question,html.Page,3_0_3_0_7_0_0,NA,NA,form submission,9373.64,700902,700891.72,700908.36,710282,710282,2023-10-13T09:11:41Z,710283.9,NULL,Zuwachs,nyongeza,d,NA,NA,NA,dirisha,NA,NA,3,NA,NA,NA,NA,NA,NA,NA,NA,NA,NA,NA,NA,NA,NA,NA,NA,NA,NA,NA
7b803,"""Richtig""-Screen",canvas.Screen,3_0_3_0_7_0_1,NA,NA,skipped,NA,710284,NA,NA,710282,710285,2023-10-13T09:11:41Z,710283.9,NULL,Zuwachs,nyongeza,d,NA,NA,NA,NA,qt,NA,3,NA,NA,NA,NA,NA,NA,NA,NA,NA,NA,NA,NA,NA,NA,NA,NA,NA,NA,NA
7b803,"""Falsch""-Screen",canvas.Screen,3_0_3_0_7_0_2,NA,NA,timeout,4995.9399999999,710287,710280.32,710283.9,715263.18,715264,2023-10-13T09:11:46Z,715279.84,NULL,Zuwachs,nyongeza,d,NA,NA,NA,NA,qt,0,3,NA,NA,NA,NA,NA,NA,NA,NA,NA,NA,NA,NA,NA,NA,NA,NA,NA,NA,NA
7b803,deep,flow.Sequence,3_0_3_0_7_0,NA,NA,completion,14354.82,700902,700891.72,700908.36,715263.18,715265,2023-10-13T09:11:46Z,715279.84,NULL,Zuwachs,nyongeza,d,NA,NA,NA,NA,qt,NA,3,NA,NA,NA,NA,NA,NA,NA,NA,NA,NA,NA,NA,NA,NA,NA,NA,NA,NA,NA
7b803,shallow,flow.Sequence,3_0_3_0_7_1,NA,NA,skipped,NA,715265,NA,NA,715263.18,715265,2023-10-13T09:11:46Z,715279.84,NULL,Zuwachs,nyongeza,d,NA,NA,NA,NA,qt,NA,3,NA,NA,NA,NA,NA,NA,NA,NA,NA,NA,NA,NA,NA,NA,NA,NA,NA,NA,NA
7b803,task,flow.Sequence,3_0_3_0_7,NA,NA,completion,14354.82,700902,700891.72,700908.36,715263.18,715266,2023-10-13T09:11:46Z,715279.84,NULL,Zuwachs,nyongeza,d,NA,NA,NA,NA,qt,NA,3,NA,NA,NA,NA,NA,NA,NA,NA,NA,NA,NA,NA,NA,NA,NA,NA,NA,NA,NA
7b803,block,flow.Loop,3_0_3_0,NA,NA,completion,136172.24,579091,579090.68,579090.94,715263.18,715266,2023-10-13T09:11:46Z,715279.84,NULL,NA,NA,NA,NA,NA,NA,NA,qt,NA,3,NA,NA,NA,NA,NA,NA,NA,NA,NA,NA,NA,NA,NA,NA,NA,NA,NA,NA,NA
7b803,weiter,canvas.Screen,3_0_3_1,sdf,keypress(Space),response,1184.16,715267,715263.18,715279.84,716464,716476,2023-10-13T09:11:47Z,716650.78,NULL,NA,NA,NA,NA,NA,NA,NA,qt,NA,3,NA,NA,NA,NA,NA,NA,NA,NA,NA,NA,NA,NA,NA,NA,NA,NA,NA,NA,NA
7b803,check continue,flow.Sequence,3_0_3,NA,NA,completion,137373.06,579091,579090.68,579090.94,716464,716479,2023-10-13T09:11:47Z,716650.78,NULL,NA,NA,NA,NA,NA,NA,NA,qt,NA,3,NA,NA,NA,NA,NA,NA,NA,NA,NA,NA,NA,NA,NA,NA,NA,NA,NA,NA,NA
7b803,Deep Question,html.Page,3_0_4_0_0_0_0,NA,NA,form submission,10100.22,716651,716650.42,716650.78,726751,726751,2023-10-13T09:11:57Z,726753.78,NULL,Zuwachs,nyongeza,d,NA,NA,NA,nyongeza,NA,NA,4,NA,NA,NA,NA,NA,NA,NA,NA,NA,NA,NA,NA,NA,NA,NA,NA,NA,NA,NA
7b803,"""Richtig""-Screen",canvas.Screen,3_0_4_0_0_0_1,NA,NA,timeout,4995.86,726753,726747.7,726753.78,731732.98,731735,2023-10-13T09:12:02Z,731749.64,NULL,Zuwachs,nyongeza,d,NA,NA,NA,NA,sd,1,4,NA,NA,NA,NA,NA,NA,NA,NA,NA,NA,NA,NA,NA,NA,NA,NA,NA,NA,NA
7b803,"""Falsch""-Screen",canvas.Screen,3_0_4_0_0_0_2,NA,NA,skipped,NA,731742,NA,NA,731732.98,731742,2023-10-13T09:12:02Z,731749.64,NULL,Zuwachs,nyongeza,d,NA,NA,NA,NA,sd,NA,4,NA,NA,NA,NA,NA,NA,NA,NA,NA,NA,NA,NA,NA,NA,NA,NA,NA,NA,NA
7b803,deep,flow.Sequence,3_0_4_0_0_0,NA,NA,completion,15082.2,716651,716650.42,716650.78,731732.98,731743,2023-10-13T09:12:02Z,731749.64,NULL,Zuwachs,nyongeza,d,NA,NA,NA,NA,sd,NA,4,NA,NA,NA,NA,NA,NA,NA,NA,NA,NA,NA,NA,NA,NA,NA,NA,NA,NA,NA
7b803,shallow,flow.Sequence,3_0_4_0_0_1,NA,NA,skipped,NA,731743,NA,NA,731732.98,731744,2023-10-13T09:12:02Z,731749.64,NULL,Zuwachs,nyongeza,d,NA,NA,NA,NA,sd,NA,4,NA,NA,NA,NA,NA,NA,NA,NA,NA,NA,NA,NA,NA,NA,NA,NA,NA,NA,NA
7b803,task,flow.Sequence,3_0_4_0_0,NA,NA,completion,15082.2,716651,716650.42,716650.78,731732.98,731744,2023-10-13T09:12:02Z,731749.64,NULL,Zuwachs,nyongeza,d,NA,NA,NA,NA,sd,NA,4,NA,NA,NA,NA,NA,NA,NA,NA,NA,NA,NA,NA,NA,NA,NA,NA,NA,NA,NA
7b803,deep,flow.Sequence,3_0_4_0_1_0,NA,NA,skipped,NA,731744,NA,NA,731732.98,731745,2023-10-13T09:12:02Z,731749.64,NULL,Schüler,mwanafunzi,s,mwekezaji,matumizi,uaminifu,NA,sd,NA,4,NA,NA,NA,NA,NA,NA,NA,NA,NA,NA,NA,NA,NA,NA,NA,NA,NA,NA,NA
7b803,Shallow Question,html.Page,3_0_4_0_1_1_0,NA,NA,form submission,3405.36,731745,731732.98,731749.64,735155,735155,2023-10-13T09:12:06Z,735163.38,NULL,Schüler,mwanafunzi,s,mwekezaji,matumizi,uaminifu,mwanafunzi,NA,NA,4,NA,NA,NA,NA,NA,NA,NA,NA,NA,NA,NA,NA,NA,NA,NA,NA,NA,NA,NA
7b803,"""Richtig""-Screen",canvas.Screen,3_0_4_0_1_1_1,NA,NA,timeout,4996.0599999999,735158,735154.1,735163.38,740142.78,740145,2023-10-13T09:12:11Z,740159.44,NULL,Schüler,mwanafunzi,s,mwekezaji,matumizi,uaminifu,NA,sd,1,4,NA,NA,NA,NA,NA,NA,NA,NA,NA,NA,NA,NA,NA,NA,NA,NA,NA,NA,NA
7b803,"""Falsch""-Screen",canvas.Screen,3_0_4_0_1_1_2,NA,NA,skipped,NA,740150,NA,NA,740142.78,740152,2023-10-13T09:12:11Z,740159.44,NULL,Schüler,mwanafunzi,s,mwekezaji,matumizi,uaminifu,NA,sd,NA,4,NA,NA,NA,NA,NA,NA,NA,NA,NA,NA,NA,NA,NA,NA,NA,NA,NA,NA,NA
7b803,shallow,flow.Sequence,3_0_4_0_1_1,NA,NA,completion,8393.14,731745,731732.98,731749.64,740142.78,740152,2023-10-13T09:12:11Z,740159.44,NULL,Schüler,mwanafunzi,s,mwekezaji,matumizi,uaminifu,NA,sd,NA,4,NA,NA,NA,NA,NA,NA,NA,NA,NA,NA,NA,NA,NA,NA,NA,NA,NA,NA,NA
7b803,task,flow.Sequence,3_0_4_0_1,NA,NA,completion,8393.14,731744,731732.98,731749.64,740142.78,740152,2023-10-13T09:12:11Z,740159.44,NULL,Schüler,mwanafunzi,s,mwekezaji,matumizi,uaminifu,NA,sd,NA,4,NA,NA,NA,NA,NA,NA,NA,NA,NA,NA,NA,NA,NA,NA,NA,NA,NA,NA,NA
7b803,Deep Question,html.Page,3_0_4_0_2_0_0,NA,NA,form submission,10188.56,740153,740142.78,740159.44,750348,750349,2023-10-13T09:12:21Z,750351.02,NULL,Symbol,kielezo,d,NA,NA,NA,nyongeza,NA,NA,4,NA,NA,NA,NA,NA,NA,NA,NA,NA,NA,NA,NA,NA,NA,NA,NA,NA,NA,NA
7b803,"""Richtig""-Screen",canvas.Screen,3_0_4_0_2_0_1,NA,NA,skipped,NA,750350,NA,NA,750348,750350,2023-10-13T09:12:21Z,750351.02,NULL,Symbol,kielezo,d,NA,NA,NA,NA,sd,NA,4,NA,NA,NA,NA,NA,NA,NA,NA,NA,NA,NA,NA,NA,NA,NA,NA,NA,NA,NA
7b803,"""Falsch""-Screen",canvas.Screen,3_0_4_0_2_0_2,NA,NA,timeout,4995.9199999999,750352,750347.4,750351.02,755330.3,755331,2023-10-13T09:12:26Z,755346.94,NULL,Symbol,kielezo,d,NA,NA,NA,NA,sd,0,4,NA,NA,NA,NA,NA,NA,NA,NA,NA,NA,NA,NA,NA,NA,NA,NA,NA,NA,NA
7b803,deep,flow.Sequence,3_0_4_0_2_0,NA,NA,completion,15170.86,740153,740142.78,740159.44,755330.3,755333,2023-10-13T09:12:26Z,755346.94,NULL,Symbol,kielezo,d,NA,NA,NA,NA,sd,NA,4,NA,NA,NA,NA,NA,NA,NA,NA,NA,NA,NA,NA,NA,NA,NA,NA,NA,NA,NA
7b803,shallow,flow.Sequence,3_0_4_0_2_1,NA,NA,skipped,NA,755334,NA,NA,755330.3,755335,2023-10-13T09:12:26Z,755346.94,NULL,Symbol,kielezo,d,NA,NA,NA,NA,sd,NA,4,NA,NA,NA,NA,NA,NA,NA,NA,NA,NA,NA,NA,NA,NA,NA,NA,NA,NA,NA
7b803,task,flow.Sequence,3_0_4_0_2,NA,NA,completion,15170.86,740153,740142.78,740159.44,755330.3,755336,2023-10-13T09:12:26Z,755346.94,NULL,Symbol,kielezo,d,NA,NA,NA,NA,sd,NA,4,NA,NA,NA,NA,NA,NA,NA,NA,NA,NA,NA,NA,NA,NA,NA,NA,NA,NA,NA
7b803,deep,flow.Sequence,3_0_4_0_3_0,NA,NA,skipped,NA,755337,NA,NA,755330.3,755337,2023-10-13T09:12:26Z,755346.94,NULL,Vorsorge,tahadhari,s,ufafanuzi,makini,mashambani,NA,sd,NA,4,NA,NA,NA,NA,NA,NA,NA,NA,NA,NA,NA,NA,NA,NA,NA,NA,NA,NA,NA
7b803,Shallow Question,html.Page,3_0_4_0_3_1_0,NA,NA,form submission,5247.0600000001,755338,755330.3,755346.94,760594,760594,2023-10-13T09:12:31Z,760592.56,NULL,Vorsorge,tahadhari,s,ufafanuzi,makini,mashambani,ufafanuzi,NA,NA,4,NA,NA,NA,NA,NA,NA,NA,NA,NA,NA,NA,NA,NA,NA,NA,NA,NA,NA,NA
7b803,"""Richtig""-Screen",canvas.Screen,3_0_4_0_3_1_1,NA,NA,skipped,NA,760596,NA,NA,760594,760597,2023-10-13T09:12:31Z,760592.56,NULL,Vorsorge,tahadhari,s,ufafanuzi,makini,mashambani,NA,sd,NA,4,NA,NA,NA,NA,NA,NA,NA,NA,NA,NA,NA,NA,NA,NA,NA,NA,NA,NA,NA
7b803,"""Falsch""-Screen",canvas.Screen,3_0_4_0_3_1_2,NA,NA,timeout,4995.98,760598,760592.1,760592.56,765571.88,765573,2023-10-13T09:12:36Z,765588.54,NULL,Vorsorge,tahadhari,s,ufafanuzi,makini,mashambani,NA,sd,0,4,NA,NA,NA,NA,NA,NA,NA,NA,NA,NA,NA,NA,NA,NA,NA,NA,NA,NA,NA
7b803,shallow,flow.Sequence,3_0_4_0_3_1,NA,NA,completion,10224.94,755338,755330.3,755346.94,765571.88,765574,2023-10-13T09:12:36Z,765588.54,NULL,Vorsorge,tahadhari,s,ufafanuzi,makini,mashambani,NA,sd,NA,4,NA,NA,NA,NA,NA,NA,NA,NA,NA,NA,NA,NA,NA,NA,NA,NA,NA,NA,NA
7b803,task,flow.Sequence,3_0_4_0_3,NA,NA,completion,10224.94,755337,755330.3,755346.94,765571.88,765574,2023-10-13T09:12:36Z,765588.54,NULL,Vorsorge,tahadhari,s,ufafanuzi,makini,mashambani,NA,sd,NA,4,NA,NA,NA,NA,NA,NA,NA,NA,NA,NA,NA,NA,NA,NA,NA,NA,NA,NA,NA
7b803,deep,flow.Sequence,3_0_4_0_4_0,NA,NA,skipped,NA,765575,NA,NA,765571.88,765575,2023-10-13T09:12:36Z,765588.54,NULL,Konkurrent,mshindani,s,msemaji,mvutaji,kipukusa,NA,sd,NA,4,NA,NA,NA,NA,NA,NA,NA,NA,NA,NA,NA,NA,NA,NA,NA,NA,NA,NA,NA
7b803,Shallow Question,html.Page,3_0_4_0_4_1_0,NA,NA,form submission,7558.46,765576,765571.88,765588.54,773147,773147,2023-10-13T09:12:44Z,773148.9,NULL,Konkurrent,mshindani,s,msemaji,mvutaji,kipukusa,mshindani,NA,NA,4,NA,NA,NA,NA,NA,NA,NA,NA,NA,NA,NA,NA,NA,NA,NA,NA,NA,NA,NA
7b803,"""Richtig""-Screen",canvas.Screen,3_0_4_0_4_1_1,NA,NA,timeout,4995.98,773150,773146.44,773148.9,778128.24,778129,2023-10-13T09:12:49Z,778144.88,NULL,Konkurrent,mshindani,s,msemaji,mvutaji,kipukusa,NA,sd,1,4,NA,NA,NA,NA,NA,NA,NA,NA,NA,NA,NA,NA,NA,NA,NA,NA,NA,NA,NA
7b803,"""Falsch""-Screen",canvas.Screen,3_0_4_0_4_1_2,NA,NA,skipped,NA,778135,NA,NA,778128.24,778135,2023-10-13T09:12:49Z,778144.88,NULL,Konkurrent,mshindani,s,msemaji,mvutaji,kipukusa,NA,sd,NA,4,NA,NA,NA,NA,NA,NA,NA,NA,NA,NA,NA,NA,NA,NA,NA,NA,NA,NA,NA
7b803,shallow,flow.Sequence,3_0_4_0_4_1,NA,NA,completion,12539.7,765576,765571.88,765588.54,778128.24,778136,2023-10-13T09:12:49Z,778144.88,NULL,Konkurrent,mshindani,s,msemaji,mvutaji,kipukusa,NA,sd,NA,4,NA,NA,NA,NA,NA,NA,NA,NA,NA,NA,NA,NA,NA,NA,NA,NA,NA,NA,NA
7b803,task,flow.Sequence,3_0_4_0_4,NA,NA,completion,12539.7,765575,765571.88,765588.54,778128.24,778137,2023-10-13T09:12:49Z,778144.88,NULL,Konkurrent,mshindani,s,msemaji,mvutaji,kipukusa,NA,sd,NA,4,NA,NA,NA,NA,NA,NA,NA,NA,NA,NA,NA,NA,NA,NA,NA,NA,NA,NA,NA
7b803,Deep Question,html.Page,3_0_4_0_5_0_0,NA,NA,form submission,21074.12,778137,778128.24,778144.88,799219,799219,2023-10-13T09:13:10Z,799227.42,NULL,Fenster,dirisha,d,NA,NA,NA,nashandari,NA,NA,4,NA,NA,NA,NA,NA,NA,NA,NA,NA,NA,NA,NA,NA,NA,NA,NA,NA,NA,NA
7b803,"""Richtig""-Screen",canvas.Screen,3_0_4_0_5_0_1,NA,NA,skipped,NA,799221,NA,NA,799219,799222,2023-10-13T09:13:10Z,799227.42,NULL,Fenster,dirisha,d,NA,NA,NA,NA,sd,NA,4,NA,NA,NA,NA,NA,NA,NA,NA,NA,NA,NA,NA,NA,NA,NA,NA,NA,NA,NA
7b803,"""Falsch""-Screen",canvas.Screen,3_0_4_0_5_0_2,NA,NA,timeout,4996.0199999999,799223,799217.9,799227.42,804206.78,804208,2023-10-13T09:13:15Z,804223.44,NULL,Fenster,dirisha,d,NA,NA,NA,NA,sd,0,4,NA,NA,NA,NA,NA,NA,NA,NA,NA,NA,NA,NA,NA,NA,NA,NA,NA,NA,NA
7b803,deep,flow.Sequence,3_0_4_0_5_0,NA,NA,completion,26061.9,778137,778128.24,778144.88,804206.78,804209,2023-10-13T09:13:15Z,804223.44,NULL,Fenster,dirisha,d,NA,NA,NA,NA,sd,NA,4,NA,NA,NA,NA,NA,NA,NA,NA,NA,NA,NA,NA,NA,NA,NA,NA,NA,NA,NA
7b803,shallow,flow.Sequence,3_0_4_0_5_1,NA,NA,skipped,NA,804209,NA,NA,804206.78,804210,2023-10-13T09:13:15Z,804223.44,NULL,Fenster,dirisha,d,NA,NA,NA,NA,sd,NA,4,NA,NA,NA,NA,NA,NA,NA,NA,NA,NA,NA,NA,NA,NA,NA,NA,NA,NA,NA
7b803,task,flow.Sequence,3_0_4_0_5,NA,NA,completion,26061.9,778137,778128.24,778144.88,804206.78,804210,2023-10-13T09:13:15Z,804223.44,NULL,Fenster,dirisha,d,NA,NA,NA,NA,sd,NA,4,NA,NA,NA,NA,NA,NA,NA,NA,NA,NA,NA,NA,NA,NA,NA,NA,NA,NA,NA
7b803,deep,flow.Sequence,3_0_4_0_6_0,NA,NA,skipped,NA,804211,NA,NA,804206.78,804211,2023-10-13T09:13:15Z,804223.44,NULL,Tester,wanaojaribu,s,sherti,sihiri,mlipuko,NA,sd,NA,4,NA,NA,NA,NA,NA,NA,NA,NA,NA,NA,NA,NA,NA,NA,NA,NA,NA,NA,NA
7b803,Shallow Question,html.Page,3_0_4_0_6_1_0,NA,NA,form submission,7947.5600000001,804212,804206.78,804223.44,812171,812171,2023-10-13T09:13:23Z,812183.54,NULL,Tester,wanaojaribu,s,sherti,sihiri,mlipuko,wanaojaribu,NA,NA,4,NA,NA,NA,NA,NA,NA,NA,NA,NA,NA,NA,NA,NA,NA,NA,NA,NA,NA,NA
7b803,"""Richtig""-Screen",canvas.Screen,3_0_4_0_6_1_1,NA,NA,timeout,4995.9199999999,812173,812169.6,812183.54,817162.8,817164,2023-10-13T09:13:28Z,817179.46,NULL,Tester,wanaojaribu,s,sherti,sihiri,mlipuko,NA,sd,1,4,NA,NA,NA,NA,NA,NA,NA,NA,NA,NA,NA,NA,NA,NA,NA,NA,NA,NA,NA
7b803,"""Falsch""-Screen",canvas.Screen,3_0_4_0_6_1_2,NA,NA,skipped,NA,817173,NA,NA,817162.8,817173,2023-10-13T09:13:28Z,817179.46,NULL,Tester,wanaojaribu,s,sherti,sihiri,mlipuko,NA,sd,NA,4,NA,NA,NA,NA,NA,NA,NA,NA,NA,NA,NA,NA,NA,NA,NA,NA,NA,NA,NA
7b803,shallow,flow.Sequence,3_0_4_0_6_1,NA,NA,completion,12939.36,804212,804206.78,804223.44,817162.8,817174,2023-10-13T09:13:28Z,817179.46,NULL,Tester,wanaojaribu,s,sherti,sihiri,mlipuko,NA,sd,NA,4,NA,NA,NA,NA,NA,NA,NA,NA,NA,NA,NA,NA,NA,NA,NA,NA,NA,NA,NA
7b803,task,flow.Sequence,3_0_4_0_6,NA,NA,completion,12939.36,804211,804206.78,804223.44,817162.8,817175,2023-10-13T09:13:28Z,817179.46,NULL,Tester,wanaojaribu,s,sherti,sihiri,mlipuko,NA,sd,NA,4,NA,NA,NA,NA,NA,NA,NA,NA,NA,NA,NA,NA,NA,NA,NA,NA,NA,NA,NA
7b803,Deep Question,html.Page,3_0_4_0_7_0_0,NA,NA,form submission,12295.54,817175,817162.8,817179.46,829475,829475,2023-10-13T09:13:40Z,829485.92,NULL,Spionage,upelelezi,d,NA,NA,NA,ukulelipi,NA,NA,4,NA,NA,NA,NA,NA,NA,NA,NA,NA,NA,NA,NA,NA,NA,NA,NA,NA,NA,NA
7b803,"""Richtig""-Screen",canvas.Screen,3_0_4_0_7_0_1,NA,NA,skipped,NA,829477,NA,NA,829475,829478,2023-10-13T09:13:40Z,829485.92,NULL,Spionage,upelelezi,d,NA,NA,NA,NA,sd,NA,4,NA,NA,NA,NA,NA,NA,NA,NA,NA,NA,NA,NA,NA,NA,NA,NA,NA,NA,NA
7b803,"""Falsch""-Screen",canvas.Screen,3_0_4_0_7_0_2,NA,NA,timeout,4995.9399999999,829480,829474.14,829485.92,834465.24,834468,2023-10-13T09:13:45Z,834481.86,NULL,Spionage,upelelezi,d,NA,NA,NA,NA,sd,0,4,NA,NA,NA,NA,NA,NA,NA,NA,NA,NA,NA,NA,NA,NA,NA,NA,NA,NA,NA
7b803,deep,flow.Sequence,3_0_4_0_7_0,NA,NA,completion,17285.78,817175,817162.8,817179.46,834465.24,834469,2023-10-13T09:13:45Z,834481.86,NULL,Spionage,upelelezi,d,NA,NA,NA,NA,sd,NA,4,NA,NA,NA,NA,NA,NA,NA,NA,NA,NA,NA,NA,NA,NA,NA,NA,NA,NA,NA
7b803,shallow,flow.Sequence,3_0_4_0_7_1,NA,NA,skipped,NA,834469,NA,NA,834465.24,834469,2023-10-13T09:13:45Z,834481.86,NULL,Spionage,upelelezi,d,NA,NA,NA,NA,sd,NA,4,NA,NA,NA,NA,NA,NA,NA,NA,NA,NA,NA,NA,NA,NA,NA,NA,NA,NA,NA
7b803,task,flow.Sequence,3_0_4_0_7,NA,NA,completion,17285.78,817175,817162.8,817179.46,834465.24,834470,2023-10-13T09:13:45Z,834481.86,NULL,Spionage,upelelezi,d,NA,NA,NA,NA,sd,NA,4,NA,NA,NA,NA,NA,NA,NA,NA,NA,NA,NA,NA,NA,NA,NA,NA,NA,NA,NA
7b803,block,flow.Loop,3_0_4_0,NA,NA,completion,117814.46,716651,716650.42,716650.78,834465.24,834471,2023-10-13T09:13:45Z,834481.86,NULL,NA,NA,NA,NA,NA,NA,NA,sd,NA,4,NA,NA,NA,NA,NA,NA,NA,NA,NA,NA,NA,NA,NA,NA,NA,NA,NA,NA,NA
7b803,weiter,canvas.Screen,3_0_4_1,sdf,keypress(Space),response,1264.14,834472,834465.24,834481.86,835746,835749,2023-10-13T09:13:46Z,835884.76,NULL,NA,NA,NA,NA,NA,NA,NA,sd,NA,4,NA,NA,NA,NA,NA,NA,NA,NA,NA,NA,NA,NA,NA,NA,NA,NA,NA,NA,NA
7b803,check continue,flow.Sequence,3_0_4,NA,NA,completion,119095.22,716651,716650.42,716650.78,835746,835750,2023-10-13T09:13:46Z,835884.76,NULL,NA,NA,NA,NA,NA,NA,NA,sd,NA,4,NA,NA,NA,NA,NA,NA,NA,NA,NA,NA,NA,NA,NA,NA,NA,NA,NA,NA,NA
7b803,Deep Question,html.Page,3_0_5_0_0_0_0,NA,NA,form submission,10256.24,835885,835884.3,835884.76,846141,846143,2023-10-13T09:13:57Z,846155.5,NULL,Zuwachs,nyongeza,d,NA,NA,NA,dirisha,NA,NA,5,NA,NA,NA,NA,NA,NA,NA,NA,NA,NA,NA,NA,NA,NA,NA,NA,NA,NA,NA
7b803,"""Richtig""-Screen",canvas.Screen,3_0_5_0_0_0_1,NA,NA,skipped,NA,846149,NA,NA,846141,846149,2023-10-13T09:13:57Z,846155.5,NULL,Zuwachs,nyongeza,d,NA,NA,NA,NA,sdf,NA,5,NA,NA,NA,NA,NA,NA,NA,NA,NA,NA,NA,NA,NA,NA,NA,NA,NA,NA,NA
7b803,"""Falsch""-Screen",canvas.Screen,3_0_5_0_0_0_2,NA,NA,timeout,4995.98,846152,846138.84,846155.5,851134.82,851136,2023-10-13T09:14:02Z,851151.48,NULL,Zuwachs,nyongeza,d,NA,NA,NA,NA,sdf,0,5,NA,NA,NA,NA,NA,NA,NA,NA,NA,NA,NA,NA,NA,NA,NA,NA,NA,NA,NA
7b803,deep,flow.Sequence,3_0_5_0_0_0,NA,NA,completion,15250.06,835885,835884.3,835884.76,851134.82,851138,2023-10-13T09:14:02Z,851151.48,NULL,Zuwachs,nyongeza,d,NA,NA,NA,NA,sdf,NA,5,NA,NA,NA,NA,NA,NA,NA,NA,NA,NA,NA,NA,NA,NA,NA,NA,NA,NA,NA
7b803,shallow,flow.Sequence,3_0_5_0_0_1,NA,NA,skipped,NA,851139,NA,NA,851134.82,851139,2023-10-13T09:14:02Z,851151.48,NULL,Zuwachs,nyongeza,d,NA,NA,NA,NA,sdf,NA,5,NA,NA,NA,NA,NA,NA,NA,NA,NA,NA,NA,NA,NA,NA,NA,NA,NA,NA,NA
7b803,task,flow.Sequence,3_0_5_0_0,NA,NA,completion,15250.06,835884,835884.3,835884.76,851134.82,851140,2023-10-13T09:14:02Z,851151.48,NULL,Zuwachs,nyongeza,d,NA,NA,NA,NA,sdf,NA,5,NA,NA,NA,NA,NA,NA,NA,NA,NA,NA,NA,NA,NA,NA,NA,NA,NA,NA,NA
7b803,deep,flow.Sequence,3_0_5_0_1_0,NA,NA,skipped,NA,851141,NA,NA,851134.82,851141,2023-10-13T09:14:02Z,851151.48,NULL,Vorsorge,tahadhari,s,ufafanuzi,makini,mashambani,NA,sdf,NA,5,NA,NA,NA,NA,NA,NA,NA,NA,NA,NA,NA,NA,NA,NA,NA,NA,NA,NA,NA
7b803,Shallow Question,html.Page,3_0_5_0_1_1_0,NA,NA,form submission,4082.52,851142,851134.82,851151.48,855234,855234,2023-10-13T09:14:06Z,855248.1,NULL,Vorsorge,tahadhari,s,ufafanuzi,makini,mashambani,ufafanuzi,NA,NA,5,NA,NA,NA,NA,NA,NA,NA,NA,NA,NA,NA,NA,NA,NA,NA,NA,NA,NA,NA
7b803,"""Richtig""-Screen",canvas.Screen,3_0_5_0_1_1_1,NA,NA,skipped,NA,855237,NA,NA,855234,855237,2023-10-13T09:14:06Z,855248.1,NULL,Vorsorge,tahadhari,s,ufafanuzi,makini,mashambani,NA,sdf,NA,5,NA,NA,NA,NA,NA,NA,NA,NA,NA,NA,NA,NA,NA,NA,NA,NA,NA,NA,NA
7b803,"""Falsch""-Screen",canvas.Screen,3_0_5_0_1_1_2,NA,NA,timeout,4995.9400000001,855239,855232.14,855248.1,860227.4,860228,2023-10-13T09:14:11Z,860244.04,NULL,Vorsorge,tahadhari,s,ufafanuzi,makini,mashambani,NA,sdf,0,5,NA,NA,NA,NA,NA,NA,NA,NA,NA,NA,NA,NA,NA,NA,NA,NA,NA,NA,NA
7b803,shallow,flow.Sequence,3_0_5_0_1_1,NA,NA,completion,9075.92,851142,851134.82,851151.48,860227.4,860230,2023-10-13T09:14:11Z,860244.04,NULL,Vorsorge,tahadhari,s,ufafanuzi,makini,mashambani,NA,sdf,NA,5,NA,NA,NA,NA,NA,NA,NA,NA,NA,NA,NA,NA,NA,NA,NA,NA,NA,NA,NA
7b803,task,flow.Sequence,3_0_5_0_1,NA,NA,completion,9075.92,851141,851134.82,851151.48,860227.4,860231,2023-10-13T09:14:11Z,860244.04,NULL,Vorsorge,tahadhari,s,ufafanuzi,makini,mashambani,NA,sdf,NA,5,NA,NA,NA,NA,NA,NA,NA,NA,NA,NA,NA,NA,NA,NA,NA,NA,NA,NA,NA
7b803,Deep Question,html.Page,3_0_5_0_2_0_0,NA,NA,form submission,11026.96,860232,860227.4,860244.04,871271,871271,2023-10-13T09:14:22Z,871284.88,NULL,Spionage,upelelezi,d,NA,NA,NA,upululezi,NA,NA,5,NA,NA,NA,NA,NA,NA,NA,NA,NA,NA,NA,NA,NA,NA,NA,NA,NA,NA,NA
7b803,"""Richtig""-Screen",canvas.Screen,3_0_5_0_2_0_1,NA,NA,skipped,NA,871274,NA,NA,871271,871274,2023-10-13T09:14:22Z,871284.88,NULL,Spionage,upelelezi,d,NA,NA,NA,NA,sdf,NA,5,NA,NA,NA,NA,NA,NA,NA,NA,NA,NA,NA,NA,NA,NA,NA,NA,NA,NA,NA
7b803,"""Falsch""-Screen",canvas.Screen,3_0_5_0_2_0_2,NA,NA,timeout,4996.02,871276,871269.56,871284.88,876264.26,876267,2023-10-13T09:14:27Z,876280.9,NULL,Spionage,upelelezi,d,NA,NA,NA,NA,sdf,0,5,NA,NA,NA,NA,NA,NA,NA,NA,NA,NA,NA,NA,NA,NA,NA,NA,NA,NA,NA
7b803,deep,flow.Sequence,3_0_5_0_2_0,NA,NA,completion,16020.22,860232,860227.4,860244.04,876264.26,876268,2023-10-13T09:14:27Z,876280.9,NULL,Spionage,upelelezi,d,NA,NA,NA,NA,sdf,NA,5,NA,NA,NA,NA,NA,NA,NA,NA,NA,NA,NA,NA,NA,NA,NA,NA,NA,NA,NA
7b803,shallow,flow.Sequence,3_0_5_0_2_1,NA,NA,skipped,NA,876269,NA,NA,876264.26,876269,2023-10-13T09:14:27Z,876280.9,NULL,Spionage,upelelezi,d,NA,NA,NA,NA,sdf,NA,5,NA,NA,NA,NA,NA,NA,NA,NA,NA,NA,NA,NA,NA,NA,NA,NA,NA,NA,NA
7b803,task,flow.Sequence,3_0_5_0_2,NA,NA,completion,16020.22,860231,860227.4,860244.04,876264.26,876270,2023-10-13T09:14:27Z,876280.9,NULL,Spionage,upelelezi,d,NA,NA,NA,NA,sdf,NA,5,NA,NA,NA,NA,NA,NA,NA,NA,NA,NA,NA,NA,NA,NA,NA,NA,NA,NA,NA
7b803,deep,flow.Sequence,3_0_5_0_3_0,NA,NA,skipped,NA,876270,NA,NA,876264.26,876270,2023-10-13T09:14:27Z,876280.9,NULL,Konkurrent,mshindani,s,msemaji,mvutaji,kipukusa,NA,sdf,NA,5,NA,NA,NA,NA,NA,NA,NA,NA,NA,NA,NA,NA,NA,NA,NA,NA,NA,NA,NA
7b803,Shallow Question,html.Page,3_0_5_0_3_1_0,NA,NA,form submission,7867.1,876270,876264.26,876280.9,884148,884148,2023-10-13T09:14:35Z,884157.84,NULL,Konkurrent,mshindani,s,msemaji,mvutaji,kipukusa,mshindani,NA,NA,5,NA,NA,NA,NA,NA,NA,NA,NA,NA,NA,NA,NA,NA,NA,NA,NA,NA,NA,NA
7b803,"""Richtig""-Screen",canvas.Screen,3_0_5_0_3_1_1,NA,NA,timeout,4995.76,884150,884146.24,884157.84,889136.94,889139,2023-10-13T09:14:40Z,889153.6,NULL,Konkurrent,mshindani,s,msemaji,mvutaji,kipukusa,NA,sdf,1,5,NA,NA,NA,NA,NA,NA,NA,NA,NA,NA,NA,NA,NA,NA,NA,NA,NA,NA,NA
7b803,"""Falsch""-Screen",canvas.Screen,3_0_5_0_3_1_2,NA,NA,skipped,NA,889145,NA,NA,889136.94,889145,2023-10-13T09:14:40Z,889153.6,NULL,Konkurrent,mshindani,s,msemaji,mvutaji,kipukusa,NA,sdf,NA,5,NA,NA,NA,NA,NA,NA,NA,NA,NA,NA,NA,NA,NA,NA,NA,NA,NA,NA,NA
7b803,shallow,flow.Sequence,3_0_5_0_3_1,NA,NA,completion,12856.04,876270,876264.26,876280.9,889136.94,889146,2023-10-13T09:14:40Z,889153.6,NULL,Konkurrent,mshindani,s,msemaji,mvutaji,kipukusa,NA,sdf,NA,5,NA,NA,NA,NA,NA,NA,NA,NA,NA,NA,NA,NA,NA,NA,NA,NA,NA,NA,NA
7b803,task,flow.Sequence,3_0_5_0_3,NA,NA,completion,12856.04,876270,876264.26,876280.9,889136.94,889147,2023-10-13T09:14:40Z,889153.6,NULL,Konkurrent,mshindani,s,msemaji,mvutaji,kipukusa,NA,sdf,NA,5,NA,NA,NA,NA,NA,NA,NA,NA,NA,NA,NA,NA,NA,NA,NA,NA,NA,NA,NA
7b803,deep,flow.Sequence,3_0_5_0_4_0,NA,NA,skipped,NA,889147,NA,NA,889136.94,889148,2023-10-13T09:14:40Z,889153.6,NULL,Schüler,mwanafunzi,s,mwekezaji,matumizi,uaminifu,NA,sdf,NA,5,NA,NA,NA,NA,NA,NA,NA,NA,NA,NA,NA,NA,NA,NA,NA,NA,NA,NA,NA
7b803,Shallow Question,html.Page,3_0_5_0_4_1_0,NA,NA,form submission,5002.4,889148,889136.94,889153.6,894156,894156,2023-10-13T09:14:45Z,894166.12,NULL,Schüler,mwanafunzi,s,mwekezaji,matumizi,uaminifu,mwanafunzi,NA,NA,5,NA,NA,NA,NA,NA,NA,NA,NA,NA,NA,NA,NA,NA,NA,NA,NA,NA,NA,NA
7b803,"""Richtig""-Screen",canvas.Screen,3_0_5_0_4_1_1,NA,NA,timeout,4995.9400000001,894158,894154.12,894166.12,899145.4,899147,2023-10-13T09:14:50Z,899162.06,NULL,Schüler,mwanafunzi,s,mwekezaji,matumizi,uaminifu,NA,sdf,1,5,NA,NA,NA,NA,NA,NA,NA,NA,NA,NA,NA,NA,NA,NA,NA,NA,NA,NA,NA
7b803,"""Falsch""-Screen",canvas.Screen,3_0_5_0_4_1_2,NA,NA,skipped,NA,899154,NA,NA,899145.4,899154,2023-10-13T09:14:50Z,899162.06,NULL,Schüler,mwanafunzi,s,mwekezaji,matumizi,uaminifu,NA,sdf,NA,5,NA,NA,NA,NA,NA,NA,NA,NA,NA,NA,NA,NA,NA,NA,NA,NA,NA,NA,NA
7b803,shallow,flow.Sequence,3_0_5_0_4_1,NA,NA,completion,9991.8,889148,889136.94,889153.6,899145.4,899155,2023-10-13T09:14:50Z,899162.06,NULL,Schüler,mwanafunzi,s,mwekezaji,matumizi,uaminifu,NA,sdf,NA,5,NA,NA,NA,NA,NA,NA,NA,NA,NA,NA,NA,NA,NA,NA,NA,NA,NA,NA,NA
7b803,task,flow.Sequence,3_0_5_0_4,NA,NA,completion,9991.8,889147,889136.94,889153.6,899145.4,899155,2023-10-13T09:14:50Z,899162.06,NULL,Schüler,mwanafunzi,s,mwekezaji,matumizi,uaminifu,NA,sdf,NA,5,NA,NA,NA,NA,NA,NA,NA,NA,NA,NA,NA,NA,NA,NA,NA,NA,NA,NA,NA
7b803,Deep Question,html.Page,3_0_5_0_5_0_0,NA,NA,form submission,11570.94,899156,899145.4,899162.06,910733,910735,2023-10-13T09:15:01Z,910735.78,NULL,Fenster,dirisha,d,NA,NA,NA,tehoni,NA,NA,5,NA,NA,NA,NA,NA,NA,NA,NA,NA,NA,NA,NA,NA,NA,NA,NA,NA,NA,NA
7b803,"""Richtig""-Screen",canvas.Screen,3_0_5_0_5_0_1,NA,NA,skipped,NA,910742,NA,NA,910733,910742,2023-10-13T09:15:01Z,910735.78,NULL,Fenster,dirisha,d,NA,NA,NA,NA,sdf,NA,5,NA,NA,NA,NA,NA,NA,NA,NA,NA,NA,NA,NA,NA,NA,NA,NA,NA,NA,NA
7b803,"""Falsch""-Screen",canvas.Screen,3_0_5_0_5_0_2,NA,NA,timeout,4995.96,910745,910730.18,910735.78,915715.08,915717,2023-10-13T09:15:06Z,915731.74,NULL,Fenster,dirisha,d,NA,NA,NA,NA,sdf,0,5,NA,NA,NA,NA,NA,NA,NA,NA,NA,NA,NA,NA,NA,NA,NA,NA,NA,NA,NA
7b803,deep,flow.Sequence,3_0_5_0_5_0,NA,NA,completion,16553.02,899156,899145.4,899162.06,915715.08,915718,2023-10-13T09:15:06Z,915731.74,NULL,Fenster,dirisha,d,NA,NA,NA,NA,sdf,NA,5,NA,NA,NA,NA,NA,NA,NA,NA,NA,NA,NA,NA,NA,NA,NA,NA,NA,NA,NA
7b803,shallow,flow.Sequence,3_0_5_0_5_1,NA,NA,skipped,NA,915719,NA,NA,915715.08,915720,2023-10-13T09:15:06Z,915731.74,NULL,Fenster,dirisha,d,NA,NA,NA,NA,sdf,NA,5,NA,NA,NA,NA,NA,NA,NA,NA,NA,NA,NA,NA,NA,NA,NA,NA,NA,NA,NA
7b803,task,flow.Sequence,3_0_5_0_5,NA,NA,completion,16553.02,899155,899145.4,899162.06,915715.08,915720,2023-10-13T09:15:06Z,915731.74,NULL,Fenster,dirisha,d,NA,NA,NA,NA,sdf,NA,5,NA,NA,NA,NA,NA,NA,NA,NA,NA,NA,NA,NA,NA,NA,NA,NA,NA,NA,NA
7b803,Deep Question,html.Page,3_0_5_0_6_0_0,NA,NA,form submission,8086.26,915721,915715.08,915731.74,923818,923818,2023-10-13T09:15:14Z,923825.06,NULL,Symbol,kielezo,d,NA,NA,NA,dirisha,NA,NA,5,NA,NA,NA,NA,NA,NA,NA,NA,NA,NA,NA,NA,NA,NA,NA,NA,NA,NA,NA
7b803,"""Richtig""-Screen",canvas.Screen,3_0_5_0_6_0_1,NA,NA,skipped,NA,923820,NA,NA,923818,923821,2023-10-13T09:15:14Z,923825.06,NULL,Symbol,kielezo,d,NA,NA,NA,NA,sdf,NA,5,NA,NA,NA,NA,NA,NA,NA,NA,NA,NA,NA,NA,NA,NA,NA,NA,NA,NA,NA
7b803,"""Falsch""-Screen",canvas.Screen,3_0_5_0_6_0_2,NA,NA,timeout,4995.9399999999,923824,923816.34,923825.06,928804.36,928806,2023-10-13T09:15:19Z,928821,NULL,Symbol,kielezo,d,NA,NA,NA,NA,sdf,0,5,NA,NA,NA,NA,NA,NA,NA,NA,NA,NA,NA,NA,NA,NA,NA,NA,NA,NA,NA
7b803,deep,flow.Sequence,3_0_5_0_6_0,NA,NA,completion,13072.62,915721,915715.08,915731.74,928804.36,928807,2023-10-13T09:15:19Z,928821,NULL,Symbol,kielezo,d,NA,NA,NA,NA,sdf,NA,5,NA,NA,NA,NA,NA,NA,NA,NA,NA,NA,NA,NA,NA,NA,NA,NA,NA,NA,NA
7b803,shallow,flow.Sequence,3_0_5_0_6_1,NA,NA,skipped,NA,928808,NA,NA,928804.36,928808,2023-10-13T09:15:19Z,928821,NULL,Symbol,kielezo,d,NA,NA,NA,NA,sdf,NA,5,NA,NA,NA,NA,NA,NA,NA,NA,NA,NA,NA,NA,NA,NA,NA,NA,NA,NA,NA
7b803,task,flow.Sequence,3_0_5_0_6,NA,NA,completion,13072.62,915721,915715.08,915731.74,928804.36,928810,2023-10-13T09:15:19Z,928821,NULL,Symbol,kielezo,d,NA,NA,NA,NA,sdf,NA,5,NA,NA,NA,NA,NA,NA,NA,NA,NA,NA,NA,NA,NA,NA,NA,NA,NA,NA,NA
7b803,deep,flow.Sequence,3_0_5_0_7_0,NA,NA,skipped,NA,928811,NA,NA,928804.36,928811,2023-10-13T09:15:19Z,928821,NULL,Tester,wanaojaribu,s,sherti,sihiri,mlipuko,NA,sdf,NA,5,NA,NA,NA,NA,NA,NA,NA,NA,NA,NA,NA,NA,NA,NA,NA,NA,NA,NA,NA
7b803,Shallow Question,html.Page,3_0_5_0_7_1_0,NA,NA,form submission,5255,928812,928804.36,928821,934076,934076,2023-10-13T09:15:25Z,934083.26,NULL,Tester,wanaojaribu,s,sherti,sihiri,mlipuko,wanaojaribu,NA,NA,5,NA,NA,NA,NA,NA,NA,NA,NA,NA,NA,NA,NA,NA,NA,NA,NA,NA,NA,NA
7b803,"""Richtig""-Screen",canvas.Screen,3_0_5_0_7_1_1,NA,NA,timeout,4995.98,934078,934074.12,934083.26,939062.58,939064,2023-10-13T09:15:30Z,939079.24,NULL,Tester,wanaojaribu,s,sherti,sihiri,mlipuko,NA,sdf,1,5,NA,NA,NA,NA,NA,NA,NA,NA,NA,NA,NA,NA,NA,NA,NA,NA,NA,NA,NA
7b803,"""Falsch""-Screen",canvas.Screen,3_0_5_0_7_1_2,NA,NA,skipped,NA,939074,NA,NA,939062.58,939074,2023-10-13T09:15:30Z,939079.24,NULL,Tester,wanaojaribu,s,sherti,sihiri,mlipuko,NA,sdf,NA,5,NA,NA,NA,NA,NA,NA,NA,NA,NA,NA,NA,NA,NA,NA,NA,NA,NA,NA,NA
7b803,shallow,flow.Sequence,3_0_5_0_7_1,NA,NA,completion,10241.58,928811,928804.36,928821,939062.58,939074,2023-10-13T09:15:30Z,939079.24,NULL,Tester,wanaojaribu,s,sherti,sihiri,mlipuko,NA,sdf,NA,5,NA,NA,NA,NA,NA,NA,NA,NA,NA,NA,NA,NA,NA,NA,NA,NA,NA,NA,NA
7b803,task,flow.Sequence,3_0_5_0_7,NA,NA,completion,10241.58,928811,928804.36,928821,939062.58,939074,2023-10-13T09:15:30Z,939079.24,NULL,Tester,wanaojaribu,s,sherti,sihiri,mlipuko,NA,sdf,NA,5,NA,NA,NA,NA,NA,NA,NA,NA,NA,NA,NA,NA,NA,NA,NA,NA,NA,NA,NA
7b803,block,flow.Loop,3_0_5_0,NA,NA,completion,103177.82,835884,835884.3,835884.76,939062.58,939075,2023-10-13T09:15:30Z,939079.24,NULL,NA,NA,NA,NA,NA,NA,NA,sdf,NA,5,NA,NA,NA,NA,NA,NA,NA,NA,NA,NA,NA,NA,NA,NA,NA,NA,NA,NA,NA
7b803,weiter,canvas.Screen,3_0_5_1,sdf,keypress(Space),response,1150.76,939075,939062.58,939079.24,940230,940239,2023-10-13T09:15:31Z,940411.46,NULL,NA,NA,NA,NA,NA,NA,NA,sdf,NA,5,NA,NA,NA,NA,NA,NA,NA,NA,NA,NA,NA,NA,NA,NA,NA,NA,NA,NA,NA
7b803,check continue,flow.Sequence,3_0_5,NA,NA,completion,104345.24,835884,835884.3,835884.76,940230,940240,2023-10-13T09:15:31Z,940411.46,NULL,NA,NA,NA,NA,NA,NA,NA,sdf,NA,5,NA,NA,NA,NA,NA,NA,NA,NA,NA,NA,NA,NA,NA,NA,NA,NA,NA,NA,NA
7b803,Deep Question,html.Page,3_0_6_0_0_0_0,NA,NA,form submission,9523.54,940409,940409.7,940411.46,949935,949935,2023-10-13T09:15:40Z,949936.96,NULL,Symbol,kielezo,d,NA,NA,NA,kyrezo,NA,NA,6,NA,NA,NA,NA,NA,NA,NA,NA,NA,NA,NA,NA,NA,NA,NA,NA,NA,NA,NA
7b803,"""Richtig""-Screen",canvas.Screen,3_0_6_0_0_0_1,NA,NA,skipped,NA,949939,NA,NA,949935,949939,2023-10-13T09:15:40Z,949936.96,NULL,Symbol,kielezo,d,NA,NA,NA,NA,dfs,NA,6,NA,NA,NA,NA,NA,NA,NA,NA,NA,NA,NA,NA,NA,NA,NA,NA,NA,NA,NA
7b803,"""Falsch""-Screen",canvas.Screen,3_0_6_0_0_0_2,NA,NA,timeout,4995.9,949941,949934.2,949936.96,954916.2,954918,2023-10-13T09:15:45Z,954932.86,NULL,Symbol,kielezo,d,NA,NA,NA,NA,dfs,0,6,NA,NA,NA,NA,NA,NA,NA,NA,NA,NA,NA,NA,NA,NA,NA,NA,NA,NA,NA
7b803,deep,flow.Sequence,3_0_6_0_0_0,NA,NA,completion,14504.74,940409,940409.7,940411.46,954916.2,954919,2023-10-13T09:15:45Z,954932.86,NULL,Symbol,kielezo,d,NA,NA,NA,NA,dfs,NA,6,NA,NA,NA,NA,NA,NA,NA,NA,NA,NA,NA,NA,NA,NA,NA,NA,NA,NA,NA
7b803,shallow,flow.Sequence,3_0_6_0_0_1,NA,NA,skipped,NA,954919,NA,NA,954916.2,954919,2023-10-13T09:15:45Z,954932.86,NULL,Symbol,kielezo,d,NA,NA,NA,NA,dfs,NA,6,NA,NA,NA,NA,NA,NA,NA,NA,NA,NA,NA,NA,NA,NA,NA,NA,NA,NA,NA
7b803,task,flow.Sequence,3_0_6_0_0,NA,NA,completion,14504.74,940409,940409.7,940411.46,954916.2,954920,2023-10-13T09:15:45Z,954932.86,NULL,Symbol,kielezo,d,NA,NA,NA,NA,dfs,NA,6,NA,NA,NA,NA,NA,NA,NA,NA,NA,NA,NA,NA,NA,NA,NA,NA,NA,NA,NA
7b803,deep,flow.Sequence,3_0_6_0_1_0,NA,NA,skipped,NA,954920,NA,NA,954916.2,954920,2023-10-13T09:15:45Z,954932.86,NULL,Konkurrent,mshindani,s,msemaji,mvutaji,kipukusa,NA,dfs,NA,6,NA,NA,NA,NA,NA,NA,NA,NA,NA,NA,NA,NA,NA,NA,NA,NA,NA,NA,NA
7b803,Shallow Question,html.Page,3_0_6_0_1_1_0,NA,NA,form submission,6384.14,954920,954916.2,954932.86,961317,961317,2023-10-13T09:15:52Z,961327.66,NULL,Konkurrent,mshindani,s,msemaji,mvutaji,kipukusa,mshindani,NA,NA,6,NA,NA,NA,NA,NA,NA,NA,NA,NA,NA,NA,NA,NA,NA,NA,NA,NA,NA,NA
7b803,"""Richtig""-Screen",canvas.Screen,3_0_6_0_1_1_1,NA,NA,timeout,4995.84,961319,961315.78,961327.66,966306.84,966308,2023-10-13T09:15:57Z,966323.5,NULL,Konkurrent,mshindani,s,msemaji,mvutaji,kipukusa,NA,dfs,1,6,NA,NA,NA,NA,NA,NA,NA,NA,NA,NA,NA,NA,NA,NA,NA,NA,NA,NA,NA
7b803,"""Falsch""-Screen",canvas.Screen,3_0_6_0_1_1_2,NA,NA,skipped,NA,966313,NA,NA,966306.84,966314,2023-10-13T09:15:57Z,966323.5,NULL,Konkurrent,mshindani,s,msemaji,mvutaji,kipukusa,NA,dfs,NA,6,NA,NA,NA,NA,NA,NA,NA,NA,NA,NA,NA,NA,NA,NA,NA,NA,NA,NA,NA
7b803,shallow,flow.Sequence,3_0_6_0_1_1,NA,NA,completion,11373.98,954920,954916.2,954932.86,966306.84,966314,2023-10-13T09:15:57Z,966323.5,NULL,Konkurrent,mshindani,s,msemaji,mvutaji,kipukusa,NA,dfs,NA,6,NA,NA,NA,NA,NA,NA,NA,NA,NA,NA,NA,NA,NA,NA,NA,NA,NA,NA,NA
7b803,task,flow.Sequence,3_0_6_0_1,NA,NA,completion,11373.98,954920,954916.2,954932.86,966306.84,966315,2023-10-13T09:15:57Z,966323.5,NULL,Konkurrent,mshindani,s,msemaji,mvutaji,kipukusa,NA,dfs,NA,6,NA,NA,NA,NA,NA,NA,NA,NA,NA,NA,NA,NA,NA,NA,NA,NA,NA,NA,NA
7b803,Deep Question,html.Page,3_0_6_0_2_0_0,NA,NA,form submission,9657.5,966316,966306.84,966323.5,975981,975981,2023-10-13T09:16:06Z,975982.18,NULL,Fenster,dirisha,d,NA,NA,NA,dirisha,NA,NA,6,NA,NA,NA,NA,NA,NA,NA,NA,NA,NA,NA,NA,NA,NA,NA,NA,NA,NA,NA
7b803,"""Richtig""-Screen",canvas.Screen,3_0_6_0_2_0_1,NA,NA,timeout,4995.6,975984,975979.72,975982.18,980961.14,980964,2023-10-13T09:16:11Z,980977.78,NULL,Fenster,dirisha,d,NA,NA,NA,NA,dfs,1,6,NA,NA,NA,NA,NA,NA,NA,NA,NA,NA,NA,NA,NA,NA,NA,NA,NA,NA,NA
7b803,"""Falsch""-Screen",canvas.Screen,3_0_6_0_2_0_2,NA,NA,skipped,NA,980973,NA,NA,980961.14,980974,2023-10-13T09:16:11Z,980977.78,NULL,Fenster,dirisha,d,NA,NA,NA,NA,dfs,NA,6,NA,NA,NA,NA,NA,NA,NA,NA,NA,NA,NA,NA,NA,NA,NA,NA,NA,NA,NA
7b803,deep,flow.Sequence,3_0_6_0_2_0,NA,NA,completion,14637.64,966316,966306.84,966323.5,980961.14,980974,2023-10-13T09:16:11Z,980977.78,NULL,Fenster,dirisha,d,NA,NA,NA,NA,dfs,NA,6,NA,NA,NA,NA,NA,NA,NA,NA,NA,NA,NA,NA,NA,NA,NA,NA,NA,NA,NA
7b803,shallow,flow.Sequence,3_0_6_0_2_1,NA,NA,skipped,NA,980975,NA,NA,980961.14,980975,2023-10-13T09:16:11Z,980977.78,NULL,Fenster,dirisha,d,NA,NA,NA,NA,dfs,NA,6,NA,NA,NA,NA,NA,NA,NA,NA,NA,NA,NA,NA,NA,NA,NA,NA,NA,NA,NA
7b803,task,flow.Sequence,3_0_6_0_2,NA,NA,completion,14637.64,966316,966306.84,966323.5,980961.14,980975,2023-10-13T09:16:11Z,980977.78,NULL,Fenster,dirisha,d,NA,NA,NA,NA,dfs,NA,6,NA,NA,NA,NA,NA,NA,NA,NA,NA,NA,NA,NA,NA,NA,NA,NA,NA,NA,NA
7b803,deep,flow.Sequence,3_0_6_0_3_0,NA,NA,skipped,NA,980976,NA,NA,980961.14,980976,2023-10-13T09:16:11Z,980977.78,NULL,Tester,wanaojaribu,s,sherti,sihiri,mlipuko,NA,dfs,NA,6,NA,NA,NA,NA,NA,NA,NA,NA,NA,NA,NA,NA,NA,NA,NA,NA,NA,NA,NA
7b803,Shallow Question,html.Page,3_0_6_0_3_1_0,NA,NA,form submission,3448.22,980976,980961.14,980977.78,984426,984426,2023-10-13T09:16:15Z,984425.22,NULL,Tester,wanaojaribu,s,sherti,sihiri,mlipuko,wanaojaribu,NA,NA,6,NA,NA,NA,NA,NA,NA,NA,NA,NA,NA,NA,NA,NA,NA,NA,NA,NA,NA,NA
7b803,"""Richtig""-Screen",canvas.Screen,3_0_6_0_3_1_1,NA,NA,timeout,4995.9600000001,984428,984424.34,984425.22,989404.54,989406,2023-10-13T09:16:20Z,989421.18,NULL,Tester,wanaojaribu,s,sherti,sihiri,mlipuko,NA,dfs,1,6,NA,NA,NA,NA,NA,NA,NA,NA,NA,NA,NA,NA,NA,NA,NA,NA,NA,NA,NA
7b803,"""Falsch""-Screen",canvas.Screen,3_0_6_0_3_1_2,NA,NA,skipped,NA,989413,NA,NA,989404.54,989413,2023-10-13T09:16:20Z,989421.18,NULL,Tester,wanaojaribu,s,sherti,sihiri,mlipuko,NA,dfs,NA,6,NA,NA,NA,NA,NA,NA,NA,NA,NA,NA,NA,NA,NA,NA,NA,NA,NA,NA,NA
7b803,shallow,flow.Sequence,3_0_6_0_3_1,NA,NA,completion,8426.76,980976,980961.14,980977.78,989404.54,989414,2023-10-13T09:16:20Z,989421.18,NULL,Tester,wanaojaribu,s,sherti,sihiri,mlipuko,NA,dfs,NA,6,NA,NA,NA,NA,NA,NA,NA,NA,NA,NA,NA,NA,NA,NA,NA,NA,NA,NA,NA
7b803,task,flow.Sequence,3_0_6_0_3,NA,NA,completion,8426.76,980976,980961.14,980977.78,989404.54,989414,2023-10-13T09:16:20Z,989421.18,NULL,Tester,wanaojaribu,s,sherti,sihiri,mlipuko,NA,dfs,NA,6,NA,NA,NA,NA,NA,NA,NA,NA,NA,NA,NA,NA,NA,NA,NA,NA,NA,NA,NA
7b803,Deep Question,html.Page,3_0_6_0_4_0_0,NA,NA,form submission,10995.82,989415,989404.54,989421.18,1000417,1000417,2023-10-13T09:16:31Z,1000428.8,NULL,Spionage,upelelezi,d,NA,NA,NA,upuleli,NA,NA,6,NA,NA,NA,NA,NA,NA,NA,NA,NA,NA,NA,NA,NA,NA,NA,NA,NA,NA,NA
7b803,"""Richtig""-Screen",canvas.Screen,3_0_6_0_4_0_1,NA,NA,skipped,NA,1000419,NA,NA,1000417,1000419,2023-10-13T09:16:31Z,1000428.8,NULL,Spionage,upelelezi,d,NA,NA,NA,NA,dfs,NA,6,NA,NA,NA,NA,NA,NA,NA,NA,NA,NA,NA,NA,NA,NA,NA,NA,NA,NA,NA
7b803,"""Falsch""-Screen",canvas.Screen,3_0_6_0_4_0_2,NA,NA,timeout,4995.96,1000421,1000416.04,1000428.8,1005408.14,1005415,2023-10-13T09:16:36Z,1005424.76,NULL,Spionage,upelelezi,d,NA,NA,NA,NA,dfs,0,6,NA,NA,NA,NA,NA,NA,NA,NA,NA,NA,NA,NA,NA,NA,NA,NA,NA,NA,NA
7b803,deep,flow.Sequence,3_0_6_0_4_0,NA,NA,completion,15986.96,989415,989404.54,989421.18,1005408.14,1005418,2023-10-13T09:16:36Z,1005424.76,NULL,Spionage,upelelezi,d,NA,NA,NA,NA,dfs,NA,6,NA,NA,NA,NA,NA,NA,NA,NA,NA,NA,NA,NA,NA,NA,NA,NA,NA,NA,NA
7b803,shallow,flow.Sequence,3_0_6_0_4_1,NA,NA,skipped,NA,1005419,NA,NA,1005408.14,1005420,2023-10-13T09:16:36Z,1005424.76,NULL,Spionage,upelelezi,d,NA,NA,NA,NA,dfs,NA,6,NA,NA,NA,NA,NA,NA,NA,NA,NA,NA,NA,NA,NA,NA,NA,NA,NA,NA,NA
7b803,task,flow.Sequence,3_0_6_0_4,NA,NA,completion,15986.96,989415,989404.54,989421.18,1005408.14,1005421,2023-10-13T09:16:36Z,1005424.76,NULL,Spionage,upelelezi,d,NA,NA,NA,NA,dfs,NA,6,NA,NA,NA,NA,NA,NA,NA,NA,NA,NA,NA,NA,NA,NA,NA,NA,NA,NA,NA
7b803,deep,flow.Sequence,3_0_6_0_5_0,NA,NA,skipped,NA,1005421,NA,NA,1005408.14,1005421,2023-10-13T09:16:36Z,1005424.76,NULL,Vorsorge,tahadhari,s,ufafanuzi,makini,mashambani,NA,dfs,NA,6,NA,NA,NA,NA,NA,NA,NA,NA,NA,NA,NA,NA,NA,NA,NA,NA,NA,NA,NA
7b803,Shallow Question,html.Page,3_0_6_0_5_1_0,NA,NA,form submission,5464.24,1005422,1005408.14,1005424.76,1010889,1010889,2023-10-13T09:16:41Z,1010886.84,NULL,Vorsorge,tahadhari,s,ufafanuzi,makini,mashambani,ufafanuzi,NA,NA,6,NA,NA,NA,NA,NA,NA,NA,NA,NA,NA,NA,NA,NA,NA,NA,NA,NA,NA,NA
7b803,"""Richtig""-Screen",canvas.Screen,3_0_6_0_5_1_1,NA,NA,skipped,NA,1010895,NA,NA,1010889,1010895,2023-10-13T09:16:41Z,1010886.84,NULL,Vorsorge,tahadhari,s,ufafanuzi,makini,mashambani,NA,dfs,NA,6,NA,NA,NA,NA,NA,NA,NA,NA,NA,NA,NA,NA,NA,NA,NA,NA,NA,NA,NA
7b803,"""Falsch""-Screen",canvas.Screen,3_0_6_0_5_1_2,NA,NA,timeout,4995.9400000001,1010898,1010886.32,1010886.84,1015866.12,1015868,2023-10-13T09:16:46Z,1015882.78,NULL,Vorsorge,tahadhari,s,ufafanuzi,makini,mashambani,NA,dfs,0,6,NA,NA,NA,NA,NA,NA,NA,NA,NA,NA,NA,NA,NA,NA,NA,NA,NA,NA,NA
7b803,shallow,flow.Sequence,3_0_6_0_5_1,NA,NA,completion,10441.36,1005421,1005408.14,1005424.76,1015866.12,1015870,2023-10-13T09:16:46Z,1015882.78,NULL,Vorsorge,tahadhari,s,ufafanuzi,makini,mashambani,NA,dfs,NA,6,NA,NA,NA,NA,NA,NA,NA,NA,NA,NA,NA,NA,NA,NA,NA,NA,NA,NA,NA
7b803,task,flow.Sequence,3_0_6_0_5,NA,NA,completion,10441.36,1005421,1005408.14,1005424.76,1015866.12,1015871,2023-10-13T09:16:46Z,1015882.78,NULL,Vorsorge,tahadhari,s,ufafanuzi,makini,mashambani,NA,dfs,NA,6,NA,NA,NA,NA,NA,NA,NA,NA,NA,NA,NA,NA,NA,NA,NA,NA,NA,NA,NA
7b803,deep,flow.Sequence,3_0_6_0_6_0,NA,NA,skipped,NA,1015871,NA,NA,1015866.12,1015872,2023-10-13T09:16:46Z,1015882.78,NULL,Schüler,mwanafunzi,s,mwekezaji,matumizi,uaminifu,NA,dfs,NA,6,NA,NA,NA,NA,NA,NA,NA,NA,NA,NA,NA,NA,NA,NA,NA,NA,NA,NA,NA
7b803,Shallow Question,html.Page,3_0_6_0_6_1_0,NA,NA,form submission,4230.22,1015873,1015866.12,1015882.78,1020113,1020115,2023-10-13T09:16:51Z,1020112.56,NULL,Schüler,mwanafunzi,s,mwekezaji,matumizi,uaminifu,mwanafunzi,NA,NA,6,NA,NA,NA,NA,NA,NA,NA,NA,NA,NA,NA,NA,NA,NA,NA,NA,NA,NA,NA
7b803,"""Richtig""-Screen",canvas.Screen,3_0_6_0_6_1_1,NA,NA,timeout,4995.96,1020117,1020112.04,1020112.56,1025091.86,1025093,2023-10-13T09:16:56Z,1025108.52,NULL,Schüler,mwanafunzi,s,mwekezaji,matumizi,uaminifu,NA,dfs,1,6,NA,NA,NA,NA,NA,NA,NA,NA,NA,NA,NA,NA,NA,NA,NA,NA,NA,NA,NA
7b803,"""Falsch""-Screen",canvas.Screen,3_0_6_0_6_1_2,NA,NA,skipped,NA,1025101,NA,NA,1025091.86,1025101,2023-10-13T09:16:56Z,1025108.52,NULL,Schüler,mwanafunzi,s,mwekezaji,matumizi,uaminifu,NA,dfs,NA,6,NA,NA,NA,NA,NA,NA,NA,NA,NA,NA,NA,NA,NA,NA,NA,NA,NA,NA,NA
7b803,shallow,flow.Sequence,3_0_6_0_6_1,NA,NA,completion,9209.08,1015873,1015866.12,1015882.78,1025091.86,1025102,2023-10-13T09:16:56Z,1025108.52,NULL,Schüler,mwanafunzi,s,mwekezaji,matumizi,uaminifu,NA,dfs,NA,6,NA,NA,NA,NA,NA,NA,NA,NA,NA,NA,NA,NA,NA,NA,NA,NA,NA,NA,NA
7b803,task,flow.Sequence,3_0_6_0_6,NA,NA,completion,9209.08,1015871,1015866.12,1015882.78,1025091.86,1025102,2023-10-13T09:16:56Z,1025108.52,NULL,Schüler,mwanafunzi,s,mwekezaji,matumizi,uaminifu,NA,dfs,NA,6,NA,NA,NA,NA,NA,NA,NA,NA,NA,NA,NA,NA,NA,NA,NA,NA,NA,NA,NA
7b803,Deep Question,html.Page,3_0_6_0_7_0_0,NA,NA,form submission,11255.48,1025103,1025091.86,1025108.52,1036364,1036364,2023-10-13T09:17:07Z,1036365.9,NULL,Zuwachs,nyongeza,d,NA,NA,NA,kyrengo,NA,NA,6,NA,NA,NA,NA,NA,NA,NA,NA,NA,NA,NA,NA,NA,NA,NA,NA,NA,NA,NA
7b803,"""Richtig""-Screen",canvas.Screen,3_0_6_0_7_0_1,NA,NA,skipped,NA,1036368,NA,NA,1036364,1036368,2023-10-13T09:17:07Z,1036365.9,NULL,Zuwachs,nyongeza,d,NA,NA,NA,NA,dfs,NA,6,NA,NA,NA,NA,NA,NA,NA,NA,NA,NA,NA,NA,NA,NA,NA,NA,NA,NA,NA
7b803,"""Falsch""-Screen",canvas.Screen,3_0_6_0_7_0_2,NA,NA,timeout,4995.9399999999,1036371,1036362.42,1036365.9,1041345.18,1041347,2023-10-13T09:17:12Z,1041361.84,NULL,Zuwachs,nyongeza,d,NA,NA,NA,NA,dfs,0,6,NA,NA,NA,NA,NA,NA,NA,NA,NA,NA,NA,NA,NA,NA,NA,NA,NA,NA,NA
7b803,deep,flow.Sequence,3_0_6_0_7_0,NA,NA,completion,16236.66,1025103,1025091.86,1025108.52,1041345.18,1041348,2023-10-13T09:17:12Z,1041361.84,NULL,Zuwachs,nyongeza,d,NA,NA,NA,NA,dfs,NA,6,NA,NA,NA,NA,NA,NA,NA,NA,NA,NA,NA,NA,NA,NA,NA,NA,NA,NA,NA
