observation,sender,sender_type,sender_id,response,response_action,ended_on,duration,time_run,time_render,time_show,time_end,time_commit,timestamp,time_switch,distractors,german,swahili,enc,distractor1,distractor2,distractor3,response_2,x,correct,x_2,url_vp,url_sess,meta_labjs_version,meta_location,meta_user_agent,meta_platform,meta_language,meta_locale,meta_time_zone,meta_timezone_offset,meta_screen_width,meta_screen_height,meta_scroll_width,meta_scroll_height,meta_window_inner_width,meta_window_inner_height,meta_device_pixel_ratio,meta_labjs_build_flavor,meta_labjs_build_commit
b6922,Introduction general,canvas.Screen,0,weiter,keypress(q),response,97876.855999905,702.59999990463,492.068,708.744,98585.599999905,98590.200000048,2023-12-02T09:54:46Z,98609.175,NULL,NA,NA,NA,NA,NA,NA,NA,NA,NA,NA,151,3,20.2.4,https://neurocog.fernuni.ch/studies/vweber/jbaenninger/encoding_immediate/index.html?vp=151&sess=3,"Mozilla/5.0 (Windows NT 10.0; Win64; x64) AppleWebKit/537.36 (KHTML, like Gecko) Chrome/119.0.0.0 Safari/537.36 Edg/119.0.0.0",Win32,de,de-CH,Europe/Zurich,-60,1920,1080,1872,910,1872,958,1,production,f5b4a49f956347addd546a832a3327688c2c0fef
b6922,Introduction practice,canvas.Screen,1_0,NA,keypress(Space),response,2008.5250000477,98590.700000048,98575.561,98609.175,100617.70000005,100618.5,2023-12-02T09:54:48Z,100625.506,NULL,NA,NA,NA,NA,NA,NA,NA,NA,NA,NA,NA,NA,NA,NA,NA,NA,NA,NA,NA,NA,NA,NA,NA,NA,NA,NA,NA,NA,NA
b6922,deep,flow.Sequence,1_1_0_0,NA,NA,skipped,NA,100618.79999995,NA,NA,100617.70000005,100619.20000005,2023-12-02T09:54:48Z,100625.506,"c(""distractor1"", ""distractor2"", ""distractor3"")",Rückhalt,msaada,s,muhula,auwali,kiwimbe,NA,NA,NA,NA,NA,NA,NA,NA,NA,NA,NA,NA,NA,NA,NA,NA,NA,NA,NA,NA,NA,NA,NA
b6922,Shallow Question,html.Page,1_1_0_1_0,NA,NA,form submission,12058.894000095,100619.4000001,100608.886,100625.506,112684.4000001,112684.5999999,2023-12-02T09:55:00Z,112708.731,"c(""distractor1"", ""distractor2"", ""distractor3"")",Rückhalt,msaada,s,muhula,auwali,kiwimbe,kiwimbe,NA,NA,NA,NA,NA,NA,NA,NA,NA,NA,NA,NA,NA,NA,NA,NA,NA,NA,NA,NA,NA,NA
b6922,"""Richtig""-Screen",canvas.Screen,1_1_0_1_1,NA,NA,skipped,NA,112685.79999995,NA,NA,112684.4000001,112686,2023-12-02T09:55:00Z,112708.731,"c(""distractor1"", ""distractor2"", ""distractor3"")",Rückhalt,msaada,s,muhula,auwali,kiwimbe,NA,NA,NA,NA,NA,NA,NA,NA,NA,NA,NA,NA,NA,NA,NA,NA,NA,NA,NA,NA,NA,NA,NA
b6922,"""Falsch""-Screen",canvas.Screen,1_1_0_1_2,NA,NA,timeout,5000.179,112686.9000001,112692.179,112708.731,117692.141,117695.79999995,2023-12-02T09:55:05Z,117708.91,"c(""distractor1"", ""distractor2"", ""distractor3"")",Rückhalt,msaada,s,muhula,auwali,kiwimbe,NA,NA,0,NA,NA,NA,NA,NA,NA,NA,NA,NA,NA,NA,NA,NA,NA,NA,NA,NA,NA,NA,NA
b6922,shallow,flow.Sequence,1_1_0_1,NA,NA,completion,17066.635,100619.29999995,100608.886,100625.506,117692.141,117696.20000005,2023-12-02T09:55:05Z,117708.91,"c(""distractor1"", ""distractor2"", ""distractor3"")",Rückhalt,msaada,s,muhula,auwali,kiwimbe,NA,NA,NA,NA,NA,NA,NA,NA,NA,NA,NA,NA,NA,NA,NA,NA,NA,NA,NA,NA,NA,NA,NA
b6922,task,flow.Sequence,1_1_0,NA,NA,completion,17066.635,100618.79999995,100608.886,100625.506,117692.141,117696.5,2023-12-02T09:55:05Z,117708.91,"c(""distractor1"", ""distractor2"", ""distractor3"")",Rückhalt,msaada,s,muhula,auwali,kiwimbe,NA,NA,NA,NA,NA,NA,NA,NA,NA,NA,NA,NA,NA,NA,NA,NA,NA,NA,NA,NA,NA,NA,NA
b6922,Deep Question,html.Page,1_1_1_0_0,NA,NA,form submission,5181.8899999523,117696.70000005,117692.141,117708.91,122890.79999995,122891,2023-12-02T09:55:11Z,122892.039,"c(""distractor1"", ""distractor2"", ""distractor3"")",Qualität,mtindo,d,NA,NA,NA,wjkjold,NA,NA,NA,NA,NA,NA,NA,NA,NA,NA,NA,NA,NA,NA,NA,NA,NA,NA,NA,NA,NA,NA
b6922,"""Richtig""-Screen",canvas.Screen,1_1_1_0_1,NA,NA,skipped,NA,122893.20000005,NA,NA,122890.79999995,122893.5,2023-12-02T09:55:11Z,122892.039,"c(""distractor1"", ""distractor2"", ""distractor3"")",Qualität,mtindo,d,NA,NA,NA,NA,NA,NA,NA,NA,NA,NA,NA,NA,NA,NA,NA,NA,NA,NA,NA,NA,NA,NA,NA,NA,NA,NA
b6922,"""Falsch""-Screen",canvas.Screen,1_1_1_0_2,NA,NA,timeout,5000.091,122894.29999995,122875.433,122892.039,127875.537,127876.29999995,2023-12-02T09:55:16Z,127892.13,"c(""distractor1"", ""distractor2"", ""distractor3"")",Qualität,mtindo,d,NA,NA,NA,NA,NA,0,NA,NA,NA,NA,NA,NA,NA,NA,NA,NA,NA,NA,NA,NA,NA,NA,NA,NA,NA,NA
b6922,deep,flow.Sequence,1_1_1_0,NA,NA,completion,10166.627,117696.5999999,117692.141,117708.91,127875.537,127876.70000005,2023-12-02T09:55:16Z,127892.13,"c(""distractor1"", ""distractor2"", ""distractor3"")",Qualität,mtindo,d,NA,NA,NA,NA,NA,NA,NA,NA,NA,NA,NA,NA,NA,NA,NA,NA,NA,NA,NA,NA,NA,NA,NA,NA,NA,NA
b6922,shallow,flow.Sequence,1_1_1_1,NA,NA,skipped,NA,127876.79999995,NA,NA,127875.537,127877,2023-12-02T09:55:16Z,127892.13,"c(""distractor1"", ""distractor2"", ""distractor3"")",Qualität,mtindo,d,NA,NA,NA,NA,NA,NA,NA,NA,NA,NA,NA,NA,NA,NA,NA,NA,NA,NA,NA,NA,NA,NA,NA,NA,NA,NA
b6922,task,flow.Sequence,1_1_1,NA,NA,completion,10166.627,117696.5999999,117692.141,117708.91,127875.537,127877.20000005,2023-12-02T09:55:16Z,127892.13,"c(""distractor1"", ""distractor2"", ""distractor3"")",Qualität,mtindo,d,NA,NA,NA,NA,NA,NA,NA,NA,NA,NA,NA,NA,NA,NA,NA,NA,NA,NA,NA,NA,NA,NA,NA,NA,NA,NA
b6922,Deep Question,html.Page,1_1_2_0_0,NA,NA,form submission,5190.9699999046,127877.4000001,127875.537,127892.13,133083.0999999,133083.29999995,2023-12-02T09:55:21Z,133092.033,"c(""distractor1"", ""distractor2"", ""distractor3"")",Schatten,kivuli,d,NA,NA,NA,Schetto,NA,NA,NA,NA,NA,NA,NA,NA,NA,NA,NA,NA,NA,NA,NA,NA,NA,NA,NA,NA,NA,NA
b6922,"""Richtig""-Screen",canvas.Screen,1_1_2_0_1,NA,NA,skipped,NA,133085.0999999,NA,NA,133083.0999999,133085.20000005,2023-12-02T09:55:21Z,133092.033,"c(""distractor1"", ""distractor2"", ""distractor3"")",Schatten,kivuli,d,NA,NA,NA,NA,NA,NA,NA,NA,NA,NA,NA,NA,NA,NA,NA,NA,NA,NA,NA,NA,NA,NA,NA,NA,NA,NA
b6922,"""Falsch""-Screen",canvas.Screen,1_1_2_0_2,NA,NA,timeout,5000.178,133086.0999999,133075.484,133092.033,138075.54,138076.29999995,2023-12-02T09:55:26Z,138092.211,"c(""distractor1"", ""distractor2"", ""distractor3"")",Schatten,kivuli,d,NA,NA,NA,NA,NA,0,NA,NA,NA,NA,NA,NA,NA,NA,NA,NA,NA,NA,NA,NA,NA,NA,NA,NA,NA,NA
b6922,deep,flow.Sequence,1_1_2_0,NA,NA,completion,10183.41,127877.4000001,127875.537,127892.13,138075.54,138077.70000005,2023-12-02T09:55:26Z,138092.211,"c(""distractor1"", ""distractor2"", ""distractor3"")",Schatten,kivuli,d,NA,NA,NA,NA,NA,NA,NA,NA,NA,NA,NA,NA,NA,NA,NA,NA,NA,NA,NA,NA,NA,NA,NA,NA,NA,NA
b6922,shallow,flow.Sequence,1_1_2_1,NA,NA,skipped,NA,138077.79999995,NA,NA,138075.54,138077.9000001,2023-12-02T09:55:26Z,138092.211,"c(""distractor1"", ""distractor2"", ""distractor3"")",Schatten,kivuli,d,NA,NA,NA,NA,NA,NA,NA,NA,NA,NA,NA,NA,NA,NA,NA,NA,NA,NA,NA,NA,NA,NA,NA,NA,NA,NA
b6922,task,flow.Sequence,1_1_2,NA,NA,completion,10183.41,127877.29999995,127875.537,127892.13,138075.54,138078.0999999,2023-12-02T09:55:26Z,138092.211,"c(""distractor1"", ""distractor2"", ""distractor3"")",Schatten,kivuli,d,NA,NA,NA,NA,NA,NA,NA,NA,NA,NA,NA,NA,NA,NA,NA,NA,NA,NA,NA,NA,NA,NA,NA,NA,NA,NA
b6922,deep,flow.Sequence,1_1_3_0,NA,NA,skipped,NA,138078.4000001,NA,NA,138075.54,138078.4000001,2023-12-02T09:55:26Z,138092.211,"c(""distractor1"", ""distractor2"", ""distractor3"")",Kritik,lawama,s,dereva,nafasi,mawazo,NA,NA,NA,NA,NA,NA,NA,NA,NA,NA,NA,NA,NA,NA,NA,NA,NA,NA,NA,NA,NA,NA,NA
b6922,Shallow Question,html.Page,1_1_3_1_0,NA,NA,form submission,10606.789,138078.5,138075.54,138092.211,148699,148699.20000005,2023-12-02T09:55:36Z,148708.73,"c(""distractor1"", ""distractor2"", ""distractor3"")",Kritik,lawama,s,dereva,nafasi,mawazo,mawazo,NA,NA,NA,NA,NA,NA,NA,NA,NA,NA,NA,NA,NA,NA,NA,NA,NA,NA,NA,NA,NA,NA
b6922,"""Richtig""-Screen",canvas.Screen,1_1_3_1_1,NA,NA,skipped,NA,148700.9000001,NA,NA,148699,148701.0999999,2023-12-02T09:55:36Z,148708.73,"c(""distractor1"", ""distractor2"", ""distractor3"")",Kritik,lawama,s,dereva,nafasi,mawazo,NA,NA,NA,NA,NA,NA,NA,NA,NA,NA,NA,NA,NA,NA,NA,NA,NA,NA,NA,NA,NA,NA,NA
b6922,"""Falsch""-Screen",canvas.Screen,1_1_3_1_2,NA,NA,timeout,5000.162,148701.79999995,148692.177,148708.73,153692.102,153693,2023-12-02T09:55:41Z,153708.892,"c(""distractor1"", ""distractor2"", ""distractor3"")",Kritik,lawama,s,dereva,nafasi,mawazo,NA,NA,0,NA,NA,NA,NA,NA,NA,NA,NA,NA,NA,NA,NA,NA,NA,NA,NA,NA,NA,NA,NA
b6922,shallow,flow.Sequence,1_1_3_1,NA,NA,completion,15599.891,138078.5,138075.54,138092.211,153692.102,153693.29999995,2023-12-02T09:55:41Z,153708.892,"c(""distractor1"", ""distractor2"", ""distractor3"")",Kritik,lawama,s,dereva,nafasi,mawazo,NA,NA,NA,NA,NA,NA,NA,NA,NA,NA,NA,NA,NA,NA,NA,NA,NA,NA,NA,NA,NA,NA,NA
b6922,task,flow.Sequence,1_1_3,NA,NA,completion,15599.891,138078.20000005,138075.54,138092.211,153692.102,153693.5,2023-12-02T09:55:41Z,153708.892,"c(""distractor1"", ""distractor2"", ""distractor3"")",Kritik,lawama,s,dereva,nafasi,mawazo,NA,NA,NA,NA,NA,NA,NA,NA,NA,NA,NA,NA,NA,NA,NA,NA,NA,NA,NA,NA,NA,NA,NA
b6922,Deep Question,html.Page,1_1_4_0_0,NA,NA,form submission,3245.9079999523,153693.70000005,153692.102,153708.892,156954.79999995,156955.0999999,2023-12-02T09:55:45Z,156958.75,"c(""distractor1"", ""distractor2"", ""distractor3"")",Gesundheit,salama,d,NA,NA,NA,jrkww,NA,NA,NA,NA,NA,NA,NA,NA,NA,NA,NA,NA,NA,NA,NA,NA,NA,NA,NA,NA,NA,NA
b6922,"""Richtig""-Screen",canvas.Screen,1_1_4_0_1,NA,NA,skipped,NA,156957,NA,NA,156954.79999995,156957.20000005,2023-12-02T09:55:45Z,156958.75,"c(""distractor1"", ""distractor2"", ""distractor3"")",Gesundheit,salama,d,NA,NA,NA,NA,NA,NA,NA,NA,NA,NA,NA,NA,NA,NA,NA,NA,NA,NA,NA,NA,NA,NA,NA,NA,NA,NA
b6922,"""Falsch""-Screen",canvas.Screen,1_1_4_0_2,NA,NA,timeout,5000.164,156957.79999995,156942.225,156958.75,161942.193,161942.9000001,2023-12-02T09:55:50Z,161958.914,"c(""distractor1"", ""distractor2"", ""distractor3"")",Gesundheit,salama,d,NA,NA,NA,NA,NA,0,NA,NA,NA,NA,NA,NA,NA,NA,NA,NA,NA,NA,NA,NA,NA,NA,NA,NA,NA,NA
b6922,deep,flow.Sequence,1_1_4_0,NA,NA,completion,8233.301,153693.70000005,153692.102,153708.892,161942.193,161943.20000005,2023-12-02T09:55:50Z,161958.914,"c(""distractor1"", ""distractor2"", ""distractor3"")",Gesundheit,salama,d,NA,NA,NA,NA,NA,NA,NA,NA,NA,NA,NA,NA,NA,NA,NA,NA,NA,NA,NA,NA,NA,NA,NA,NA,NA,NA
b6922,shallow,flow.Sequence,1_1_4_1,NA,NA,skipped,NA,161943.29999995,NA,NA,161942.193,161943.4000001,2023-12-02T09:55:50Z,161958.914,"c(""distractor1"", ""distractor2"", ""distractor3"")",Gesundheit,salama,d,NA,NA,NA,NA,NA,NA,NA,NA,NA,NA,NA,NA,NA,NA,NA,NA,NA,NA,NA,NA,NA,NA,NA,NA,NA,NA
b6922,task,flow.Sequence,1_1_4,NA,NA,completion,8233.301,153693.5999999,153692.102,153708.892,161942.193,161943.5999999,2023-12-02T09:55:50Z,161958.914,"c(""distractor1"", ""distractor2"", ""distractor3"")",Gesundheit,salama,d,NA,NA,NA,NA,NA,NA,NA,NA,NA,NA,NA,NA,NA,NA,NA,NA,NA,NA,NA,NA,NA,NA,NA,NA,NA,NA
b6922,deep,flow.Sequence,1_1_5_0,NA,NA,skipped,NA,161943.70000005,NA,NA,161942.193,161943.79999995,2023-12-02T09:55:50Z,161958.914,"c(""distractor1"", ""distractor2"", ""distractor3"")",Gegenwart,hadhara,s,katiba,jokofu,mikopo,NA,NA,NA,NA,NA,NA,NA,NA,NA,NA,NA,NA,NA,NA,NA,NA,NA,NA,NA,NA,NA,NA,NA
b6922,Shallow Question,html.Page,1_1_5_1_0,NA,NA,form submission,10860.086,161943.9000001,161942.193,161958.914,172819,172819.20000005,2023-12-02T09:56:01Z,172825.352,"c(""distractor1"", ""distractor2"", ""distractor3"")",Gegenwart,hadhara,s,katiba,jokofu,mikopo,katiba,NA,NA,NA,NA,NA,NA,NA,NA,NA,NA,NA,NA,NA,NA,NA,NA,NA,NA,NA,NA,NA,NA
b6922,"""Richtig""-Screen",canvas.Screen,1_1_5_1_1,NA,NA,skipped,NA,172820.9000001,NA,NA,172819,172821,2023-12-02T09:56:01Z,172825.352,"c(""distractor1"", ""distractor2"", ""distractor3"")",Gegenwart,hadhara,s,katiba,jokofu,mikopo,NA,NA,NA,NA,NA,NA,NA,NA,NA,NA,NA,NA,NA,NA,NA,NA,NA,NA,NA,NA,NA,NA,NA
b6922,"""Falsch""-Screen",canvas.Screen,1_1_5_1_2,NA,NA,timeout,5000.113,172821.5999999,172808.851,172825.352,177808.858,177809.5999999,2023-12-02T09:56:06Z,177825.465,"c(""distractor1"", ""distractor2"", ""distractor3"")",Gegenwart,hadhara,s,katiba,jokofu,mikopo,NA,NA,0,NA,NA,NA,NA,NA,NA,NA,NA,NA,NA,NA,NA,NA,NA,NA,NA,NA,NA,NA,NA
b6922,shallow,flow.Sequence,1_1_5_1,NA,NA,completion,15849.944,161943.9000001,161942.193,161958.914,177808.858,177809.9000001,2023-12-02T09:56:06Z,177825.465,"c(""distractor1"", ""distractor2"", ""distractor3"")",Gegenwart,hadhara,s,katiba,jokofu,mikopo,NA,NA,NA,NA,NA,NA,NA,NA,NA,NA,NA,NA,NA,NA,NA,NA,NA,NA,NA,NA,NA,NA,NA
b6922,task,flow.Sequence,1_1_5,NA,NA,completion,15849.944,161943.70000005,161942.193,161958.914,177808.858,177810.0999999,2023-12-02T09:56:06Z,177825.465,"c(""distractor1"", ""distractor2"", ""distractor3"")",Gegenwart,hadhara,s,katiba,jokofu,mikopo,NA,NA,NA,NA,NA,NA,NA,NA,NA,NA,NA,NA,NA,NA,NA,NA,NA,NA,NA,NA,NA,NA,NA
b6922,block,flow.Loop,1_1,NA,NA,completion,77183.352,100618.70000005,100608.886,100625.506,177808.858,177810.29999995,2023-12-02T09:56:06Z,177825.465,"c(""distractor1"", ""distractor2"", ""distractor3"")",NA,NA,NA,NA,NA,NA,NA,NA,NA,NA,NA,NA,NA,NA,NA,NA,NA,NA,NA,NA,NA,NA,NA,NA,NA,NA,NA,NA,NA
b6922,Practice,flow.Sequence,1,NA,NA,completion,79199.683,98590.700000048,98575.561,98609.175,177808.858,177810.5,2023-12-02T09:56:06Z,177825.465,NULL,NA,NA,NA,NA,NA,NA,NA,NA,NA,NA,NA,NA,NA,NA,NA,NA,NA,NA,NA,NA,NA,NA,NA,NA,NA,NA,NA,NA,NA
b6922,Experiment start,canvas.Screen,2,weiter,keypress(q),response,92360.834999952,177810.5,177808.858,177825.465,270186.29999995,270187.29999995,2023-12-02T09:57:38Z,270292.119,NULL,NA,NA,NA,NA,NA,NA,NA,NA,NA,NA,NA,NA,NA,NA,NA,NA,NA,NA,NA,NA,NA,NA,NA,NA,NA,NA,NA,NA,NA
b6922,Deep Question,html.Page,3_0_0_0_0_0_0,NA,NA,form submission,11726.680999952,270276.9000001,270276.186,270292.119,282018.79999995,282019.0999999,2023-12-02T09:57:50Z,282025.353,NULL,Erneuerung,ukarabati,d,NA,NA,NA,Kawala,NA,NA,0,NA,NA,NA,NA,NA,NA,NA,NA,NA,NA,NA,NA,NA,NA,NA,NA,NA,NA,NA
b6922,"""Richtig""-Screen",canvas.Screen,3_0_0_0_0_0_1,NA,NA,skipped,NA,282020.79999995,NA,NA,282018.79999995,282020.9000001,2023-12-02T09:57:50Z,282025.353,NULL,Erneuerung,ukarabati,d,NA,NA,NA,NA,sdf,NA,0,NA,NA,NA,NA,NA,NA,NA,NA,NA,NA,NA,NA,NA,NA,NA,NA,NA,NA,NA
b6922,"""Falsch""-Screen",canvas.Screen,3_0_0_0_0_0_2,NA,NA,timeout,5000.158,282021.5,282008.778,282025.353,287008.845,287009.79999995,2023-12-02T09:57:55Z,287025.511,NULL,Erneuerung,ukarabati,d,NA,NA,NA,NA,sdf,0,0,NA,NA,NA,NA,NA,NA,NA,NA,NA,NA,NA,NA,NA,NA,NA,NA,NA,NA,NA
b6922,deep,flow.Sequence,3_0_0_0_0_0,NA,NA,completion,16716.726,270276.9000001,270276.186,270292.119,287008.845,287010.0999999,2023-12-02T09:57:55Z,287025.511,NULL,Erneuerung,ukarabati,d,NA,NA,NA,NA,sdf,NA,0,NA,NA,NA,NA,NA,NA,NA,NA,NA,NA,NA,NA,NA,NA,NA,NA,NA,NA,NA
b6922,shallow,flow.Sequence,3_0_0_0_0_1,NA,NA,skipped,NA,287010.20000005,NA,NA,287008.845,287010.29999995,2023-12-02T09:57:55Z,287025.511,NULL,Erneuerung,ukarabati,d,NA,NA,NA,NA,sdf,NA,0,NA,NA,NA,NA,NA,NA,NA,NA,NA,NA,NA,NA,NA,NA,NA,NA,NA,NA,NA
b6922,task,flow.Sequence,3_0_0_0_0,NA,NA,completion,16716.726,270276.9000001,270276.186,270292.119,287008.845,287010.4000001,2023-12-02T09:57:55Z,287025.511,NULL,Erneuerung,ukarabati,d,NA,NA,NA,NA,sdf,NA,0,NA,NA,NA,NA,NA,NA,NA,NA,NA,NA,NA,NA,NA,NA,NA,NA,NA,NA,NA
b6922,Deep Question,html.Page,3_0_0_0_1_0_0,NA,NA,form submission,15641.288999952,287010.5999999,287008.845,287025.511,302666.79999995,302667,2023-12-02T09:58:10Z,302675.329,NULL,Verpackung,ufungaji,d,NA,NA,NA,pakakka,NA,NA,0,NA,NA,NA,NA,NA,NA,NA,NA,NA,NA,NA,NA,NA,NA,NA,NA,NA,NA,NA
b6922,"""Richtig""-Screen",canvas.Screen,3_0_0_0_1_0_1,NA,NA,skipped,NA,302668.70000005,NA,NA,302666.79999995,302668.79999995,2023-12-02T09:58:10Z,302675.329,NULL,Verpackung,ufungaji,d,NA,NA,NA,NA,sdf,NA,0,NA,NA,NA,NA,NA,NA,NA,NA,NA,NA,NA,NA,NA,NA,NA,NA,NA,NA,NA
b6922,"""Falsch""-Screen",canvas.Screen,3_0_0_0_1_0_2,NA,NA,timeout,5000.258,302669.4000001,302658.883,302675.329,307658.84,307659.5999999,2023-12-02T09:58:15Z,307675.587,NULL,Verpackung,ufungaji,d,NA,NA,NA,NA,sdf,0,0,NA,NA,NA,NA,NA,NA,NA,NA,NA,NA,NA,NA,NA,NA,NA,NA,NA,NA,NA
b6922,deep,flow.Sequence,3_0_0_0_1_0,NA,NA,completion,20633.329,287010.5999999,287008.845,287025.511,307658.84,307659.9000001,2023-12-02T09:58:15Z,307675.587,NULL,Verpackung,ufungaji,d,NA,NA,NA,NA,sdf,NA,0,NA,NA,NA,NA,NA,NA,NA,NA,NA,NA,NA,NA,NA,NA,NA,NA,NA,NA,NA
b6922,shallow,flow.Sequence,3_0_0_0_1_1,NA,NA,skipped,NA,307660,NA,NA,307658.84,307660.20000005,2023-12-02T09:58:15Z,307675.587,NULL,Verpackung,ufungaji,d,NA,NA,NA,NA,sdf,NA,0,NA,NA,NA,NA,NA,NA,NA,NA,NA,NA,NA,NA,NA,NA,NA,NA,NA,NA,NA
b6922,task,flow.Sequence,3_0_0_0_1,NA,NA,completion,20633.329,287010.5,287008.845,287025.511,307658.84,307660.29999995,2023-12-02T09:58:15Z,307675.587,NULL,Verpackung,ufungaji,d,NA,NA,NA,NA,sdf,NA,0,NA,NA,NA,NA,NA,NA,NA,NA,NA,NA,NA,NA,NA,NA,NA,NA,NA,NA,NA
b6922,deep,flow.Sequence,3_0_0_0_2_0,NA,NA,skipped,NA,307660.29999995,NA,NA,307658.84,307660.5,2023-12-02T09:58:15Z,307675.587,NULL,Theorie,nadharia,s,ushungi,mkutano,uwakilishi,NA,sdf,NA,0,NA,NA,NA,NA,NA,NA,NA,NA,NA,NA,NA,NA,NA,NA,NA,NA,NA,NA,NA
b6922,Shallow Question,html.Page,3_0_0_0_2_1_0,NA,NA,form submission,6071.3130000954,307660.5999999,307658.84,307675.587,313746.9000001,313747.0999999,2023-12-02T09:58:22Z,313758.748,NULL,Theorie,nadharia,s,ushungi,mkutano,uwakilishi,mkutano,NA,NA,0,NA,NA,NA,NA,NA,NA,NA,NA,NA,NA,NA,NA,NA,NA,NA,NA,NA,NA,NA
b6922,"""Richtig""-Screen",canvas.Screen,3_0_0_0_2_1_1,NA,NA,skipped,NA,313748.79999995,NA,NA,313746.9000001,313748.9000001,2023-12-02T09:58:22Z,313758.748,NULL,Theorie,nadharia,s,ushungi,mkutano,uwakilishi,NA,sdf,NA,0,NA,NA,NA,NA,NA,NA,NA,NA,NA,NA,NA,NA,NA,NA,NA,NA,NA,NA,NA
b6922,"""Falsch""-Screen",canvas.Screen,3_0_0_0_2_1_2,NA,NA,timeout,5000.131,313749.5999999,313742.187,313758.748,318742.175,318743,2023-12-02T09:58:26Z,318758.879,NULL,Theorie,nadharia,s,ushungi,mkutano,uwakilishi,NA,sdf,0,0,NA,NA,NA,NA,NA,NA,NA,NA,NA,NA,NA,NA,NA,NA,NA,NA,NA,NA,NA
b6922,shallow,flow.Sequence,3_0_0_0_2_1,NA,NA,completion,11066.588,307660.5999999,307658.84,307675.587,318742.175,318743.29999995,2023-12-02T09:58:26Z,318758.879,NULL,Theorie,nadharia,s,ushungi,mkutano,uwakilishi,NA,sdf,NA,0,NA,NA,NA,NA,NA,NA,NA,NA,NA,NA,NA,NA,NA,NA,NA,NA,NA,NA,NA
b6922,task,flow.Sequence,3_0_0_0_2,NA,NA,completion,11066.588,307660.29999995,307658.84,307675.587,318742.175,318743.5,2023-12-02T09:58:26Z,318758.879,NULL,Theorie,nadharia,s,ushungi,mkutano,uwakilishi,NA,sdf,NA,0,NA,NA,NA,NA,NA,NA,NA,NA,NA,NA,NA,NA,NA,NA,NA,NA,NA,NA,NA
b6922,Deep Question,html.Page,3_0_0_0_3_0_0,NA,NA,form submission,11243.821000048,318743.70000005,318742.175,318758.879,330002.70000005,330002.9000001,2023-12-02T09:58:38Z,330008.7,NULL,Hoffnung,matarajio,d,NA,NA,NA,olaama,NA,NA,0,NA,NA,NA,NA,NA,NA,NA,NA,NA,NA,NA,NA,NA,NA,NA,NA,NA,NA,NA
b6922,"""Richtig""-Screen",canvas.Screen,3_0_0_0_3_0_1,NA,NA,skipped,NA,330004.70000005,NA,NA,330002.70000005,330004.79999995,2023-12-02T09:58:38Z,330008.7,NULL,Hoffnung,matarajio,d,NA,NA,NA,NA,sdf,NA,0,NA,NA,NA,NA,NA,NA,NA,NA,NA,NA,NA,NA,NA,NA,NA,NA,NA,NA,NA
b6922,"""Falsch""-Screen",canvas.Screen,3_0_0_0_3_0_2,NA,NA,timeout,5000.172,330005.4000001,329992.032,330008.7,334992.029,334992.9000001,2023-12-02T09:58:43Z,335008.872,NULL,Hoffnung,matarajio,d,NA,NA,NA,NA,sdf,0,0,NA,NA,NA,NA,NA,NA,NA,NA,NA,NA,NA,NA,NA,NA,NA,NA,NA,NA,NA
b6922,deep,flow.Sequence,3_0_0_0_3_0,NA,NA,completion,16233.15,318743.5999999,318742.175,318758.879,334992.029,334993.20000005,2023-12-02T09:58:43Z,335008.872,NULL,Hoffnung,matarajio,d,NA,NA,NA,NA,sdf,NA,0,NA,NA,NA,NA,NA,NA,NA,NA,NA,NA,NA,NA,NA,NA,NA,NA,NA,NA,NA
b6922,shallow,flow.Sequence,3_0_0_0_3_1,NA,NA,skipped,NA,334993.4000001,NA,NA,334992.029,334993.5,2023-12-02T09:58:43Z,335008.872,NULL,Hoffnung,matarajio,d,NA,NA,NA,NA,sdf,NA,0,NA,NA,NA,NA,NA,NA,NA,NA,NA,NA,NA,NA,NA,NA,NA,NA,NA,NA,NA
b6922,task,flow.Sequence,3_0_0_0_3,NA,NA,completion,16233.15,318743.5999999,318742.175,318758.879,334992.029,334993.70000005,2023-12-02T09:58:43Z,335008.872,NULL,Hoffnung,matarajio,d,NA,NA,NA,NA,sdf,NA,0,NA,NA,NA,NA,NA,NA,NA,NA,NA,NA,NA,NA,NA,NA,NA,NA,NA,NA,NA
b6922,Deep Question,html.Page,3_0_0_0_4_0_0,NA,NA,form submission,39225.727999905,334993.70000005,334992.029,335008.872,374234.5999999,374234.79999995,2023-12-02T09:59:22Z,374258.875,NULL,Wechsel,ugeuzaji,d,NA,NA,NA,ugeuzaji,NA,NA,0,NA,NA,NA,NA,NA,NA,NA,NA,NA,NA,NA,NA,NA,NA,NA,NA,NA,NA,NA
b6922,"""Richtig""-Screen",canvas.Screen,3_0_0_0_4_0_1,NA,NA,timeout,4999.889,374236.5999999,374242.101,374258.875,379242.051,379242.79999995,2023-12-02T09:59:27Z,379258.764,NULL,Wechsel,ugeuzaji,d,NA,NA,NA,NA,sdf,1,0,NA,NA,NA,NA,NA,NA,NA,NA,NA,NA,NA,NA,NA,NA,NA,NA,NA,NA,NA
b6922,"""Falsch""-Screen",canvas.Screen,3_0_0_0_4_0_2,NA,NA,skipped,NA,379247,NA,NA,379242.051,379247.20000005,2023-12-02T09:59:27Z,379258.764,NULL,Wechsel,ugeuzaji,d,NA,NA,NA,NA,sdf,NA,0,NA,NA,NA,NA,NA,NA,NA,NA,NA,NA,NA,NA,NA,NA,NA,NA,NA,NA,NA
b6922,deep,flow.Sequence,3_0_0_0_4_0,NA,NA,completion,44233.179,334993.70000005,334992.029,335008.872,379242.051,379247.4000001,2023-12-02T09:59:27Z,379258.764,NULL,Wechsel,ugeuzaji,d,NA,NA,NA,NA,sdf,NA,0,NA,NA,NA,NA,NA,NA,NA,NA,NA,NA,NA,NA,NA,NA,NA,NA,NA,NA,NA
b6922,shallow,flow.Sequence,3_0_0_0_4_1,NA,NA,skipped,NA,379247.5999999,NA,NA,379242.051,379247.5999999,2023-12-02T09:59:27Z,379258.764,NULL,Wechsel,ugeuzaji,d,NA,NA,NA,NA,sdf,NA,0,NA,NA,NA,NA,NA,NA,NA,NA,NA,NA,NA,NA,NA,NA,NA,NA,NA,NA,NA
b6922,task,flow.Sequence,3_0_0_0_4,NA,NA,completion,44233.179,334993.70000005,334992.029,335008.872,379242.051,379247.79999995,2023-12-02T09:59:27Z,379258.764,NULL,Wechsel,ugeuzaji,d,NA,NA,NA,NA,sdf,NA,0,NA,NA,NA,NA,NA,NA,NA,NA,NA,NA,NA,NA,NA,NA,NA,NA,NA,NA,NA
b6922,deep,flow.Sequence,3_0_0_0_5_0,NA,NA,skipped,NA,379247.9000001,NA,NA,379242.051,379248,2023-12-02T09:59:27Z,379258.764,NULL,Schock,mshtuko,s,biashara,kukataza,vichekesho,NA,sdf,NA,0,NA,NA,NA,NA,NA,NA,NA,NA,NA,NA,NA,NA,NA,NA,NA,NA,NA,NA,NA
b6922,Shallow Question,html.Page,3_0_0_0_5_1_0,NA,NA,form submission,7519.8359999046,379248.0999999,379242.051,379258.764,386778.5999999,386778.79999995,2023-12-02T09:59:35Z,386792.063,NULL,Schock,mshtuko,s,biashara,kukataza,vichekesho,vichekesho,NA,NA,0,NA,NA,NA,NA,NA,NA,NA,NA,NA,NA,NA,NA,NA,NA,NA,NA,NA,NA,NA
b6922,"""Richtig""-Screen",canvas.Screen,3_0_0_0_5_1_1,NA,NA,skipped,NA,386780.70000005,NA,NA,386778.5999999,386780.79999995,2023-12-02T09:59:35Z,386792.063,NULL,Schock,mshtuko,s,biashara,kukataza,vichekesho,NA,sdf,NA,0,NA,NA,NA,NA,NA,NA,NA,NA,NA,NA,NA,NA,NA,NA,NA,NA,NA,NA,NA
b6922,"""Falsch""-Screen",canvas.Screen,3_0_0_0_5_1_2,NA,NA,timeout,5000.139,386781.4000001,386775.508,386792.063,391775.488,391776.0999999,2023-12-02T09:59:40Z,391792.202,NULL,Schock,mshtuko,s,biashara,kukataza,vichekesho,NA,sdf,0,0,NA,NA,NA,NA,NA,NA,NA,NA,NA,NA,NA,NA,NA,NA,NA,NA,NA,NA,NA
b6922,shallow,flow.Sequence,3_0_0_0_5_1,NA,NA,completion,12516.724,379248.0999999,379242.051,379258.764,391775.488,391776.4000001,2023-12-02T09:59:40Z,391792.202,NULL,Schock,mshtuko,s,biashara,kukataza,vichekesho,NA,sdf,NA,0,NA,NA,NA,NA,NA,NA,NA,NA,NA,NA,NA,NA,NA,NA,NA,NA,NA,NA,NA
b6922,task,flow.Sequence,3_0_0_0_5,NA,NA,completion,12516.724,379247.79999995,379242.051,379258.764,391775.488,391776.5999999,2023-12-02T09:59:40Z,391792.202,NULL,Schock,mshtuko,s,biashara,kukataza,vichekesho,NA,sdf,NA,0,NA,NA,NA,NA,NA,NA,NA,NA,NA,NA,NA,NA,NA,NA,NA,NA,NA,NA,NA
b6922,deep,flow.Sequence,3_0_0_0_6_0,NA,NA,skipped,NA,391776.70000005,NA,NA,391775.488,391776.79999995,2023-12-02T09:59:40Z,391792.202,NULL,Flexibilität,kubadilika,s,enjini,usikilivu,hesabu,NA,sdf,NA,0,NA,NA,NA,NA,NA,NA,NA,NA,NA,NA,NA,NA,NA,NA,NA,NA,NA,NA,NA
b6922,Shallow Question,html.Page,3_0_0_0_6_1_0,NA,NA,form submission,7538.4980000477,391776.9000001,391775.488,391792.202,399330.70000005,399330.9000001,2023-12-02T09:59:47Z,399342.078,NULL,Flexibilität,kubadilika,s,enjini,usikilivu,hesabu,kubadilika,NA,NA,0,NA,NA,NA,NA,NA,NA,NA,NA,NA,NA,NA,NA,NA,NA,NA,NA,NA,NA,NA
b6922,"""Richtig""-Screen",canvas.Screen,3_0_0_0_6_1_1,NA,NA,timeout,4999.992,399333.0999999,399325.438,399342.078,404325.491,404326.20000005,2023-12-02T09:59:52Z,404342.07,NULL,Flexibilität,kubadilika,s,enjini,usikilivu,hesabu,NA,sdf,1,0,NA,NA,NA,NA,NA,NA,NA,NA,NA,NA,NA,NA,NA,NA,NA,NA,NA,NA,NA
b6922,"""Falsch""-Screen",canvas.Screen,3_0_0_0_6_1_2,NA,NA,skipped,NA,404330.29999995,NA,NA,404325.491,404330.5999999,2023-12-02T09:59:52Z,404342.07,NULL,Flexibilität,kubadilika,s,enjini,usikilivu,hesabu,NA,sdf,NA,0,NA,NA,NA,NA,NA,NA,NA,NA,NA,NA,NA,NA,NA,NA,NA,NA,NA,NA,NA
b6922,shallow,flow.Sequence,3_0_0_0_6_1,NA,NA,completion,12533.289,391776.9000001,391775.488,391792.202,404325.491,404330.79999995,2023-12-02T09:59:52Z,404342.07,NULL,Flexibilität,kubadilika,s,enjini,usikilivu,hesabu,NA,sdf,NA,0,NA,NA,NA,NA,NA,NA,NA,NA,NA,NA,NA,NA,NA,NA,NA,NA,NA,NA,NA
b6922,task,flow.Sequence,3_0_0_0_6,NA,NA,completion,12533.289,391776.5999999,391775.488,391792.202,404325.491,404330.9000001,2023-12-02T09:59:52Z,404342.07,NULL,Flexibilität,kubadilika,s,enjini,usikilivu,hesabu,NA,sdf,NA,0,NA,NA,NA,NA,NA,NA,NA,NA,NA,NA,NA,NA,NA,NA,NA,NA,NA,NA,NA
b6922,deep,flow.Sequence,3_0_0_0_7_0,NA,NA,skipped,NA,404331,NA,NA,404325.491,404331.20000005,2023-12-02T09:59:52Z,404342.07,NULL,Atmosphäre,angahewa,s,kuteseka,usahihi,kutoamini,NA,sdf,NA,0,NA,NA,NA,NA,NA,NA,NA,NA,NA,NA,NA,NA,NA,NA,NA,NA,NA,NA,NA
b6922,Shallow Question,html.Page,3_0_0_0_7_1_0,NA,NA,form submission,7692.5299999046,404331.29999995,404325.491,404342.07,412034.5999999,412034.79999995,2023-12-02T10:00:00Z,412042.009,NULL,Atmosphäre,angahewa,s,kuteseka,usahihi,kutoamini,angahewa,NA,NA,0,NA,NA,NA,NA,NA,NA,NA,NA,NA,NA,NA,NA,NA,NA,NA,NA,NA,NA,NA
b6922,"""Richtig""-Screen",canvas.Screen,3_0_0_0_7_1_1,NA,NA,timeout,5000.185,412036.5,412025.486,412042.009,417025.356,417026.20000005,2023-12-02T10:00:05Z,417042.194,NULL,Atmosphäre,angahewa,s,kuteseka,usahihi,kutoamini,NA,sdf,1,0,NA,NA,NA,NA,NA,NA,NA,NA,NA,NA,NA,NA,NA,NA,NA,NA,NA,NA,NA
b6922,"""Falsch""-Screen",canvas.Screen,3_0_0_0_7_1_2,NA,NA,skipped,NA,417030.29999995,NA,NA,417025.356,417030.5999999,2023-12-02T10:00:05Z,417042.194,NULL,Atmosphäre,angahewa,s,kuteseka,usahihi,kutoamini,NA,sdf,NA,0,NA,NA,NA,NA,NA,NA,NA,NA,NA,NA,NA,NA,NA,NA,NA,NA,NA,NA,NA
b6922,shallow,flow.Sequence,3_0_0_0_7_1,NA,NA,completion,12683.286,404331.29999995,404325.491,404342.07,417025.356,417030.79999995,2023-12-02T10:00:05Z,417042.194,NULL,Atmosphäre,angahewa,s,kuteseka,usahihi,kutoamini,NA,sdf,NA,0,NA,NA,NA,NA,NA,NA,NA,NA,NA,NA,NA,NA,NA,NA,NA,NA,NA,NA,NA
b6922,task,flow.Sequence,3_0_0_0_7,NA,NA,completion,12683.286,404331,404325.491,404342.07,417025.356,417031,2023-12-02T10:00:05Z,417042.194,NULL,Atmosphäre,angahewa,s,kuteseka,usahihi,kutoamini,NA,sdf,NA,0,NA,NA,NA,NA,NA,NA,NA,NA,NA,NA,NA,NA,NA,NA,NA,NA,NA,NA,NA
b6922,block,flow.Loop,3_0_0_0,NA,NA,completion,146733.237,270276.9000001,270276.186,270292.119,417025.356,417031.20000005,2023-12-02T10:00:05Z,417042.194,NULL,NA,NA,NA,NA,NA,NA,NA,sdf,NA,0,NA,NA,NA,NA,NA,NA,NA,NA,NA,NA,NA,NA,NA,NA,NA,NA,NA,NA,NA
b6922,weiter,canvas.Screen,3_0_0_1,sdf,keypress(Space),response,1503.5060000477,417031.20000005,417025.356,417042.194,418545.70000005,418546.5999999,2023-12-02T10:00:06Z,418592.123,NULL,NA,NA,NA,NA,NA,NA,NA,sdf,NA,0,NA,NA,NA,NA,NA,NA,NA,NA,NA,NA,NA,NA,NA,NA,NA,NA,NA,NA,NA
b6922,check continue,flow.Sequence,3_0_0,NA,NA,completion,148253.58100005,270276.9000001,270276.186,270292.119,418545.70000005,418546.79999995,2023-12-02T10:00:06Z,418592.123,NULL,NA,NA,NA,NA,NA,NA,NA,sdf,NA,0,NA,NA,NA,NA,NA,NA,NA,NA,NA,NA,NA,NA,NA,NA,NA,NA,NA,NA,NA
b6922,deep,flow.Sequence,3_0_1_0_0_0,NA,NA,skipped,NA,418601.5999999,NA,NA,418545.70000005,418601.79999995,2023-12-02T10:00:06Z,418592.123,NULL,Theorie,nadharia,s,ushungi,mkutano,uwakilishi,NA,sdfdsf,NA,1,NA,NA,NA,NA,NA,NA,NA,NA,NA,NA,NA,NA,NA,NA,NA,NA,NA,NA,NA
b6922,Shallow Question,html.Page,3_0_1_0_0_1_0,NA,NA,form submission,25034.277000095,418601.9000001,418542.355,418592.123,443626.4000001,443626.70000005,2023-12-02T10:00:31Z,443642.042,NULL,Theorie,nadharia,s,ushungi,mkutano,uwakilishi,nadharia,NA,NA,1,NA,NA,NA,NA,NA,NA,NA,NA,NA,NA,NA,NA,NA,NA,NA,NA,NA,NA,NA
b6922,"""Richtig""-Screen",canvas.Screen,3_0_1_0_0_1_1,NA,NA,timeout,4999.976,443628.4000001,443625.512,443642.042,448625.399,448626.29999995,2023-12-02T10:00:36Z,448642.018,NULL,Theorie,nadharia,s,ushungi,mkutano,uwakilishi,NA,sdfdsf,1,1,NA,NA,NA,NA,NA,NA,NA,NA,NA,NA,NA,NA,NA,NA,NA,NA,NA,NA,NA
b6922,"""Falsch""-Screen",canvas.Screen,3_0_1_0_0_1_2,NA,NA,skipped,NA,448630.5,NA,NA,448625.399,448630.79999995,2023-12-02T10:00:36Z,448642.018,NULL,Theorie,nadharia,s,ushungi,mkutano,uwakilishi,NA,sdfdsf,NA,1,NA,NA,NA,NA,NA,NA,NA,NA,NA,NA,NA,NA,NA,NA,NA,NA,NA,NA,NA
b6922,shallow,flow.Sequence,3_0_1_0_0_1,NA,NA,completion,30033.276,418601.79999995,418542.355,418592.123,448625.399,448631,2023-12-02T10:00:36Z,448642.018,NULL,Theorie,nadharia,s,ushungi,mkutano,uwakilishi,NA,sdfdsf,NA,1,NA,NA,NA,NA,NA,NA,NA,NA,NA,NA,NA,NA,NA,NA,NA,NA,NA,NA,NA
b6922,task,flow.Sequence,3_0_1_0_0,NA,NA,completion,30033.276,418601.5999999,418542.355,418592.123,448625.399,448631.0999999,2023-12-02T10:00:36Z,448642.018,NULL,Theorie,nadharia,s,ushungi,mkutano,uwakilishi,NA,sdfdsf,NA,1,NA,NA,NA,NA,NA,NA,NA,NA,NA,NA,NA,NA,NA,NA,NA,NA,NA,NA,NA
b6922,Deep Question,html.Page,3_0_1_0_1_0_0,NA,NA,form submission,38544.581999905,448631.29999995,448625.399,448642.018,487186.5999999,487186.9000001,2023-12-02T10:01:15Z,487192.026,NULL,Wechsel,ugeuzaji,d,NA,NA,NA,ugeuzaji,NA,NA,1,NA,NA,NA,NA,NA,NA,NA,NA,NA,NA,NA,NA,NA,NA,NA,NA,NA,NA,NA
b6922,"""Richtig""-Screen",canvas.Screen,3_0_1_0_1_0_1,NA,NA,timeout,5000.038,487188.5999999,487175.438,487192.026,492175.476,492176.29999995,2023-12-02T10:01:20Z,492192.064,NULL,Wechsel,ugeuzaji,d,NA,NA,NA,NA,sdfdsf,1,1,NA,NA,NA,NA,NA,NA,NA,NA,NA,NA,NA,NA,NA,NA,NA,NA,NA,NA,NA
b6922,"""Falsch""-Screen",canvas.Screen,3_0_1_0_1_0_2,NA,NA,skipped,NA,492180.20000005,NA,NA,492175.476,492180.5,2023-12-02T10:01:20Z,492192.064,NULL,Wechsel,ugeuzaji,d,NA,NA,NA,NA,sdfdsf,NA,1,NA,NA,NA,NA,NA,NA,NA,NA,NA,NA,NA,NA,NA,NA,NA,NA,NA,NA,NA
b6922,deep,flow.Sequence,3_0_1_0_1_0,NA,NA,completion,43533.458,448631.20000005,448625.399,448642.018,492175.476,492180.70000005,2023-12-02T10:01:20Z,492192.064,NULL,Wechsel,ugeuzaji,d,NA,NA,NA,NA,sdfdsf,NA,1,NA,NA,NA,NA,NA,NA,NA,NA,NA,NA,NA,NA,NA,NA,NA,NA,NA,NA,NA
b6922,shallow,flow.Sequence,3_0_1_0_1_1,NA,NA,skipped,NA,492180.79999995,NA,NA,492175.476,492180.9000001,2023-12-02T10:01:20Z,492192.064,NULL,Wechsel,ugeuzaji,d,NA,NA,NA,NA,sdfdsf,NA,1,NA,NA,NA,NA,NA,NA,NA,NA,NA,NA,NA,NA,NA,NA,NA,NA,NA,NA,NA
b6922,task,flow.Sequence,3_0_1_0_1,NA,NA,completion,43533.458,448631.20000005,448625.399,448642.018,492175.476,492181,2023-12-02T10:01:20Z,492192.064,NULL,Wechsel,ugeuzaji,d,NA,NA,NA,NA,sdfdsf,NA,1,NA,NA,NA,NA,NA,NA,NA,NA,NA,NA,NA,NA,NA,NA,NA,NA,NA,NA,NA
b6922,deep,flow.Sequence,3_0_1_0_2_0,NA,NA,skipped,NA,492182.5,NA,NA,492175.476,492182.5999999,2023-12-02T10:01:20Z,492192.064,NULL,Flexibilität,kubadilika,s,enjini,usikilivu,hesabu,NA,sdfdsf,NA,1,NA,NA,NA,NA,NA,NA,NA,NA,NA,NA,NA,NA,NA,NA,NA,NA,NA,NA,NA
b6922,Shallow Question,html.Page,3_0_1_0_2_1_0,NA,NA,form submission,17858.436,492182.79999995,492175.476,492192.064,510050.5,510050.79999995,2023-12-02T10:01:38Z,510058.671,NULL,Flexibilität,kubadilika,s,enjini,usikilivu,hesabu,kubadilika,NA,NA,1,NA,NA,NA,NA,NA,NA,NA,NA,NA,NA,NA,NA,NA,NA,NA,NA,NA,NA,NA
b6922,"""Richtig""-Screen",canvas.Screen,3_0_1_0_2_1_1,NA,NA,timeout,5000.209,510052.5,510042.078,510058.671,515042.144,515042.9000001,2023-12-02T10:01:43Z,515058.88,NULL,Flexibilität,kubadilika,s,enjini,usikilivu,hesabu,NA,sdfdsf,1,1,NA,NA,NA,NA,NA,NA,NA,NA,NA,NA,NA,NA,NA,NA,NA,NA,NA,NA,NA
b6922,"""Falsch""-Screen",canvas.Screen,3_0_1_0_2_1_2,NA,NA,skipped,NA,515046.9000001,NA,NA,515042.144,515047.20000005,2023-12-02T10:01:43Z,515058.88,NULL,Flexibilität,kubadilika,s,enjini,usikilivu,hesabu,NA,sdfdsf,NA,1,NA,NA,NA,NA,NA,NA,NA,NA,NA,NA,NA,NA,NA,NA,NA,NA,NA,NA,NA
b6922,shallow,flow.Sequence,3_0_1_0_2_1,NA,NA,completion,22850.08,492182.70000005,492175.476,492192.064,515042.144,515047.4000001,2023-12-02T10:01:43Z,515058.88,NULL,Flexibilität,kubadilika,s,enjini,usikilivu,hesabu,NA,sdfdsf,NA,1,NA,NA,NA,NA,NA,NA,NA,NA,NA,NA,NA,NA,NA,NA,NA,NA,NA,NA,NA
b6922,task,flow.Sequence,3_0_1_0_2,NA,NA,completion,22850.08,492182.4000001,492175.476,492192.064,515042.144,515047.5999999,2023-12-02T10:01:43Z,515058.88,NULL,Flexibilität,kubadilika,s,enjini,usikilivu,hesabu,NA,sdfdsf,NA,1,NA,NA,NA,NA,NA,NA,NA,NA,NA,NA,NA,NA,NA,NA,NA,NA,NA,NA,NA
b6922,Deep Question,html.Page,3_0_1_0_3_0_0,NA,NA,form submission,20983.219999905,515047.70000005,515042.144,515058.88,536042.0999999,536042.29999995,2023-12-02T10:02:04Z,536058.759,NULL,Verpackung,ufungaji,d,NA,NA,NA,ufungaji,NA,NA,1,NA,NA,NA,NA,NA,NA,NA,NA,NA,NA,NA,NA,NA,NA,NA,NA,NA,NA,NA
b6922,"""Richtig""-Screen",canvas.Screen,3_0_1_0_3_0_1,NA,NA,timeout,5000.0480000001,536044.4000001,536041.941,536058.759,541041.997,541043,2023-12-02T10:02:09Z,541058.807,NULL,Verpackung,ufungaji,d,NA,NA,NA,NA,sdfdsf,1,1,NA,NA,NA,NA,NA,NA,NA,NA,NA,NA,NA,NA,NA,NA,NA,NA,NA,NA,NA
b6922,"""Falsch""-Screen",canvas.Screen,3_0_1_0_3_0_2,NA,NA,skipped,NA,541047.20000005,NA,NA,541041.997,541047.5,2023-12-02T10:02:09Z,541058.807,NULL,Verpackung,ufungaji,d,NA,NA,NA,NA,sdfdsf,NA,1,NA,NA,NA,NA,NA,NA,NA,NA,NA,NA,NA,NA,NA,NA,NA,NA,NA,NA,NA
b6922,deep,flow.Sequence,3_0_1_0_3_0,NA,NA,completion,25983.117,515047.70000005,515042.144,515058.88,541041.997,541047.70000005,2023-12-02T10:02:09Z,541058.807,NULL,Verpackung,ufungaji,d,NA,NA,NA,NA,sdfdsf,NA,1,NA,NA,NA,NA,NA,NA,NA,NA,NA,NA,NA,NA,NA,NA,NA,NA,NA,NA,NA
b6922,shallow,flow.Sequence,3_0_1_0_3_1,NA,NA,skipped,NA,541047.79999995,NA,NA,541041.997,541047.9000001,2023-12-02T10:02:09Z,541058.807,NULL,Verpackung,ufungaji,d,NA,NA,NA,NA,sdfdsf,NA,1,NA,NA,NA,NA,NA,NA,NA,NA,NA,NA,NA,NA,NA,NA,NA,NA,NA,NA,NA
b6922,task,flow.Sequence,3_0_1_0_3,NA,NA,completion,25983.117,515047.5999999,515042.144,515058.88,541041.997,541048,2023-12-02T10:02:09Z,541058.807,NULL,Verpackung,ufungaji,d,NA,NA,NA,NA,sdfdsf,NA,1,NA,NA,NA,NA,NA,NA,NA,NA,NA,NA,NA,NA,NA,NA,NA,NA,NA,NA,NA
b6922,deep,flow.Sequence,3_0_1_0_4_0,NA,NA,skipped,NA,541048.20000005,NA,NA,541041.997,541048.29999995,2023-12-02T10:02:09Z,541058.807,NULL,Schock,mshtuko,s,biashara,kukataza,vichekesho,NA,sdfdsf,NA,1,NA,NA,NA,NA,NA,NA,NA,NA,NA,NA,NA,NA,NA,NA,NA,NA,NA,NA,NA
b6922,Shallow Question,html.Page,3_0_1_0_4_1_0,NA,NA,form submission,12207.693,541048.4000001,541041.997,541058.807,553266.5,553266.70000005,2023-12-02T10:02:21Z,553292.155,NULL,Schock,mshtuko,s,biashara,kukataza,vichekesho,mshtuko,NA,NA,1,NA,NA,NA,NA,NA,NA,NA,NA,NA,NA,NA,NA,NA,NA,NA,NA,NA,NA,NA
b6922,"""Richtig""-Screen",canvas.Screen,3_0_1_0_4_1_1,NA,NA,timeout,4999.889,553268.4000001,553275.491,553292.155,558275.514,558276.4000001,2023-12-02T10:02:26Z,558292.044,NULL,Schock,mshtuko,s,biashara,kukataza,vichekesho,NA,sdfdsf,1,1,NA,NA,NA,NA,NA,NA,NA,NA,NA,NA,NA,NA,NA,NA,NA,NA,NA,NA,NA
b6922,"""Falsch""-Screen",canvas.Screen,3_0_1_0_4_1_2,NA,NA,skipped,NA,558280.4000001,NA,NA,558275.514,558280.79999995,2023-12-02T10:02:26Z,558292.044,NULL,Schock,mshtuko,s,biashara,kukataza,vichekesho,NA,sdfdsf,NA,1,NA,NA,NA,NA,NA,NA,NA,NA,NA,NA,NA,NA,NA,NA,NA,NA,NA,NA,NA
b6922,shallow,flow.Sequence,3_0_1_0_4_1,NA,NA,completion,17216.707,541048.4000001,541041.997,541058.807,558275.514,558281,2023-12-02T10:02:26Z,558292.044,NULL,Schock,mshtuko,s,biashara,kukataza,vichekesho,NA,sdfdsf,NA,1,NA,NA,NA,NA,NA,NA,NA,NA,NA,NA,NA,NA,NA,NA,NA,NA,NA,NA,NA
b6922,task,flow.Sequence,3_0_1_0_4,NA,NA,completion,17216.707,541048.0999999,541041.997,541058.807,558275.514,558281.20000005,2023-12-02T10:02:26Z,558292.044,NULL,Schock,mshtuko,s,biashara,kukataza,vichekesho,NA,sdfdsf,NA,1,NA,NA,NA,NA,NA,NA,NA,NA,NA,NA,NA,NA,NA,NA,NA,NA,NA,NA,NA
b6922,Deep Question,html.Page,3_0_1_0_5_0_0,NA,NA,form submission,16846.755999952,558281.29999995,558275.514,558292.044,575138.79999995,575139,2023-12-02T10:02:43Z,575142.013,NULL,Erneuerung,ukarabati,d,NA,NA,NA,ukambti,NA,NA,1,NA,NA,NA,NA,NA,NA,NA,NA,NA,NA,NA,NA,NA,NA,NA,NA,NA,NA,NA
b6922,"""Richtig""-Screen",canvas.Screen,3_0_1_0_5_0_1,NA,NA,skipped,NA,575141,NA,NA,575138.79999995,575141.0999999,2023-12-02T10:02:43Z,575142.013,NULL,Erneuerung,ukarabati,d,NA,NA,NA,NA,sdfdsf,NA,1,NA,NA,NA,NA,NA,NA,NA,NA,NA,NA,NA,NA,NA,NA,NA,NA,NA,NA,NA
b6922,"""Falsch""-Screen",canvas.Screen,3_0_1_0_5_0_2,NA,NA,timeout,5000.019,575141.5999999,575125.499,575142.013,580125.484,580126.4000001,2023-12-02T10:02:48Z,580142.032,NULL,Erneuerung,ukarabati,d,NA,NA,NA,NA,sdfdsf,0,1,NA,NA,NA,NA,NA,NA,NA,NA,NA,NA,NA,NA,NA,NA,NA,NA,NA,NA,NA
b6922,deep,flow.Sequence,3_0_1_0_5_0,NA,NA,completion,21833.44,558281.29999995,558275.514,558292.044,580125.484,580126.70000005,2023-12-02T10:02:48Z,580142.032,NULL,Erneuerung,ukarabati,d,NA,NA,NA,NA,sdfdsf,NA,1,NA,NA,NA,NA,NA,NA,NA,NA,NA,NA,NA,NA,NA,NA,NA,NA,NA,NA,NA
b6922,shallow,flow.Sequence,3_0_1_0_5_1,NA,NA,skipped,NA,580126.9000001,NA,NA,580125.484,580126.9000001,2023-12-02T10:02:48Z,580142.032,NULL,Erneuerung,ukarabati,d,NA,NA,NA,NA,sdfdsf,NA,1,NA,NA,NA,NA,NA,NA,NA,NA,NA,NA,NA,NA,NA,NA,NA,NA,NA,NA,NA
b6922,task,flow.Sequence,3_0_1_0_5,NA,NA,completion,21833.44,558281.29999995,558275.514,558292.044,580125.484,580127.0999999,2023-12-02T10:02:48Z,580142.032,NULL,Erneuerung,ukarabati,d,NA,NA,NA,NA,sdfdsf,NA,1,NA,NA,NA,NA,NA,NA,NA,NA,NA,NA,NA,NA,NA,NA,NA,NA,NA,NA,NA
b6922,Deep Question,html.Page,3_0_1_0_6_0_0,NA,NA,form submission,14852.468,580127.20000005,580125.484,580142.032,594994.5,594994.70000005,2023-12-02T10:03:03Z,595008.85,NULL,Hoffnung,matarajio,d,NA,NA,NA,matrajio,NA,NA,1,NA,NA,NA,NA,NA,NA,NA,NA,NA,NA,NA,NA,NA,NA,NA,NA,NA,NA,NA
b6922,"""Richtig""-Screen",canvas.Screen,3_0_1_0_6_0_1,NA,NA,skipped,NA,594997.29999995,NA,NA,594994.5,594997.5,2023-12-02T10:03:03Z,595008.85,NULL,Hoffnung,matarajio,d,NA,NA,NA,NA,sdfdsf,NA,1,NA,NA,NA,NA,NA,NA,NA,NA,NA,NA,NA,NA,NA,NA,NA,NA,NA,NA,NA
b6922,"""Falsch""-Screen",canvas.Screen,3_0_1_0_6_0_2,NA,NA,timeout,4999.9790000001,594998,594992.129,595008.85,599992.139,599992.79999995,2023-12-02T10:03:08Z,600008.829,NULL,Hoffnung,matarajio,d,NA,NA,NA,NA,sdfdsf,0,1,NA,NA,NA,NA,NA,NA,NA,NA,NA,NA,NA,NA,NA,NA,NA,NA,NA,NA,NA
b6922,deep,flow.Sequence,3_0_1_0_6_0,NA,NA,completion,19850.107,580127.0999999,580125.484,580142.032,599992.139,599992.79999995,2023-12-02T10:03:08Z,600008.829,NULL,Hoffnung,matarajio,d,NA,NA,NA,NA,sdfdsf,NA,1,NA,NA,NA,NA,NA,NA,NA,NA,NA,NA,NA,NA,NA,NA,NA,NA,NA,NA,NA
b6922,shallow,flow.Sequence,3_0_1_0_6_1,NA,NA,skipped,NA,599992.9000001,NA,NA,599992.139,599992.9000001,2023-12-02T10:03:08Z,600008.829,NULL,Hoffnung,matarajio,d,NA,NA,NA,NA,sdfdsf,NA,1,NA,NA,NA,NA,NA,NA,NA,NA,NA,NA,NA,NA,NA,NA,NA,NA,NA,NA,NA
b6922,task,flow.Sequence,3_0_1_0_6,NA,NA,completion,19850.107,580127.0999999,580125.484,580142.032,599992.139,599993,2023-12-02T10:03:08Z,600008.829,NULL,Hoffnung,matarajio,d,NA,NA,NA,NA,sdfdsf,NA,1,NA,NA,NA,NA,NA,NA,NA,NA,NA,NA,NA,NA,NA,NA,NA,NA,NA,NA,NA
b6922,deep,flow.Sequence,3_0_1_0_7_0,NA,NA,skipped,NA,599993.0999999,NA,NA,599992.139,599993.0999999,2023-12-02T10:03:08Z,600008.829,NULL,Atmosphäre,angahewa,s,kuteseka,usahihi,kutoamini,NA,sdfdsf,NA,1,NA,NA,NA,NA,NA,NA,NA,NA,NA,NA,NA,NA,NA,NA,NA,NA,NA,NA,NA
b6922,Shallow Question,html.Page,3_0_1_0_7_1_0,NA,NA,form submission,6274.0710000953,599993.0999999,599992.139,600008.829,606282.9000001,606283.0999999,2023-12-02T10:03:14Z,606292.13,NULL,Atmosphäre,angahewa,s,kuteseka,usahihi,kutoamini,angahewa,NA,NA,1,NA,NA,NA,NA,NA,NA,NA,NA,NA,NA,NA,NA,NA,NA,NA,NA,NA,NA,NA
b6922,"""Richtig""-Screen",canvas.Screen,3_0_1_0_7_1_1,NA,NA,timeout,5000.048,606284.79999995,606275.465,606292.13,611275.467,611276.4000001,2023-12-02T10:03:19Z,611292.178,NULL,Atmosphäre,angahewa,s,kuteseka,usahihi,kutoamini,NA,sdfdsf,1,1,NA,NA,NA,NA,NA,NA,NA,NA,NA,NA,NA,NA,NA,NA,NA,NA,NA,NA,NA
b6922,"""Falsch""-Screen",canvas.Screen,3_0_1_0_7_1_2,NA,NA,skipped,NA,611280.5999999,NA,NA,611275.467,611280.79999995,2023-12-02T10:03:19Z,611292.178,NULL,Atmosphäre,angahewa,s,kuteseka,usahihi,kutoamini,NA,sdfdsf,NA,1,NA,NA,NA,NA,NA,NA,NA,NA,NA,NA,NA,NA,NA,NA,NA,NA,NA,NA,NA
b6922,shallow,flow.Sequence,3_0_1_0_7_1,NA,NA,completion,11266.638,599993.0999999,599992.139,600008.829,611275.467,611281.0999999,2023-12-02T10:03:19Z,611292.178,NULL,Atmosphäre,angahewa,s,kuteseka,usahihi,kutoamini,NA,sdfdsf,NA,1,NA,NA,NA,NA,NA,NA,NA,NA,NA,NA,NA,NA,NA,NA,NA,NA,NA,NA,NA
b6922,task,flow.Sequence,3_0_1_0_7,NA,NA,completion,11266.638,599993.0999999,599992.139,600008.829,611275.467,611281.20000005,2023-12-02T10:03:19Z,611292.178,NULL,Atmosphäre,angahewa,s,kuteseka,usahihi,kutoamini,NA,sdfdsf,NA,1,NA,NA,NA,NA,NA,NA,NA,NA,NA,NA,NA,NA,NA,NA,NA,NA,NA,NA,NA
b6922,block,flow.Loop,3_0_1_0,NA,NA,completion,192683.344,418601.5999999,418542.355,418592.123,611275.467,611281.4000001,2023-12-02T10:03:19Z,611292.178,NULL,NA,NA,NA,NA,NA,NA,NA,sdfdsf,NA,1,NA,NA,NA,NA,NA,NA,NA,NA,NA,NA,NA,NA,NA,NA,NA,NA,NA,NA,NA
b6922,weiter,canvas.Screen,3_0_1_1,sdf,keypress(Space),response,1949.4219999047,611281.5,611275.467,611292.178,613241.5999999,613242.29999995,2023-12-02T10:03:21Z,613675.325,NULL,NA,NA,NA,NA,NA,NA,NA,sdfdsf,NA,1,NA,NA,NA,NA,NA,NA,NA,NA,NA,NA,NA,NA,NA,NA,NA,NA,NA,NA,NA
b6922,check continue,flow.Sequence,3_0_1,NA,NA,completion,194649.4769999,418601.5999999,418542.355,418592.123,613241.5999999,613242.5999999,2023-12-02T10:03:21Z,613675.325,NULL,NA,NA,NA,NA,NA,NA,NA,sdfdsf,NA,1,NA,NA,NA,NA,NA,NA,NA,NA,NA,NA,NA,NA,NA,NA,NA,NA,NA,NA,NA
b6922,check continue,flow.Sequence,3_0_2,NA,NA,skipped,NA,613282.5,NA,NA,613241.5999999,613282.5999999,2023-12-02T10:03:21Z,613675.325,NULL,NA,NA,NA,NA,NA,NA,NA,sdf,NA,2,NA,NA,NA,NA,NA,NA,NA,NA,NA,NA,NA,NA,NA,NA,NA,NA,NA,NA,NA
b6922,check continue,flow.Sequence,3_0_3,NA,NA,skipped,NA,613301.0999999,NA,NA,613241.5999999,613301.20000005,2023-12-02T10:03:21Z,613675.325,NULL,NA,NA,NA,NA,NA,NA,NA,qt,NA,3,NA,NA,NA,NA,NA,NA,NA,NA,NA,NA,NA,NA,NA,NA,NA,NA,NA,NA,NA
b6922,check continue,flow.Sequence,3_0_4,NA,NA,skipped,NA,613318.20000005,NA,NA,613241.5999999,613318.29999995,2023-12-02T10:03:21Z,613675.325,NULL,NA,NA,NA,NA,NA,NA,NA,sd,NA,4,NA,NA,NA,NA,NA,NA,NA,NA,NA,NA,NA,NA,NA,NA,NA,NA,NA,NA,NA
b6922,check continue,flow.Sequence,3_0_5,NA,NA,skipped,NA,613348.0999999,NA,NA,613241.5999999,613348.20000005,2023-12-02T10:03:21Z,613675.325,NULL,NA,NA,NA,NA,NA,NA,NA,sdf,NA,5,NA,NA,NA,NA,NA,NA,NA,NA,NA,NA,NA,NA,NA,NA,NA,NA,NA,NA,NA
b6922,check continue,flow.Sequence,3_0_6,NA,NA,skipped,NA,613363,NA,NA,613241.5999999,613363,2023-12-02T10:03:21Z,613675.325,NULL,NA,NA,NA,NA,NA,NA,NA,dfs,NA,6,NA,NA,NA,NA,NA,NA,NA,NA,NA,NA,NA,NA,NA,NA,NA,NA,NA,NA,NA
b6922,check continue,flow.Sequence,3_0_7,NA,NA,skipped,NA,613376.79999995,NA,NA,613241.5999999,613377,2023-12-02T10:03:21Z,613675.325,NULL,NA,NA,NA,NA,NA,NA,NA,df,NA,7,NA,NA,NA,NA,NA,NA,NA,NA,NA,NA,NA,NA,NA,NA,NA,NA,NA,NA,NA
b6922,check continue,flow.Sequence,3_0_8,NA,NA,skipped,NA,613390.5,NA,NA,613241.5999999,613390.5,2023-12-02T10:03:21Z,613675.325,NULL,NA,NA,NA,NA,NA,NA,NA,dfs,NA,8,NA,NA,NA,NA,NA,NA,NA,NA,NA,NA,NA,NA,NA,NA,NA,NA,NA,NA,NA
b6922,check continue,flow.Sequence,3_0_9,NA,NA,skipped,NA,613417.20000005,NA,NA,613241.5999999,613417.29999995,2023-12-02T10:03:21Z,613675.325,NULL,NA,NA,NA,NA,NA,NA,NA,dsf,NA,9,NA,NA,NA,NA,NA,NA,NA,NA,NA,NA,NA,NA,NA,NA,NA,NA,NA,NA,NA
b6922,check continue,flow.Sequence,3_0_10,NA,NA,skipped,NA,613429.79999995,NA,NA,613241.5999999,613429.79999995,2023-12-02T10:03:21Z,613675.325,NULL,NA,NA,NA,NA,NA,NA,NA,df,NA,10,NA,NA,NA,NA,NA,NA,NA,NA,NA,NA,NA,NA,NA,NA,NA,NA,NA,NA,NA
b6922,check continue,flow.Sequence,3_0_11,NA,NA,skipped,NA,613442.5999999,NA,NA,613241.5999999,613442.5999999,2023-12-02T10:03:21Z,613675.325,NULL,NA,NA,NA,NA,NA,NA,NA,dfs,NA,11,NA,NA,NA,NA,NA,NA,NA,NA,NA,NA,NA,NA,NA,NA,NA,NA,NA,NA,NA
b6922,check continue,flow.Sequence,3_0_12,NA,NA,skipped,NA,613455,NA,NA,613241.5999999,613455.0999999,2023-12-02T10:03:21Z,613675.325,NULL,NA,NA,NA,NA,NA,NA,NA,dsf,NA,12,NA,NA,NA,NA,NA,NA,NA,NA,NA,NA,NA,NA,NA,NA,NA,NA,NA,NA,NA
b6922,check continue,flow.Sequence,3_0_13,NA,NA,skipped,NA,613467.70000005,NA,NA,613241.5999999,613467.79999995,2023-12-02T10:03:21Z,613675.325,NULL,NA,NA,NA,NA,NA,NA,NA,dsf,NA,13,NA,NA,NA,NA,NA,NA,NA,NA,NA,NA,NA,NA,NA,NA,NA,NA,NA,NA,NA
b6922,check continue,flow.Sequence,3_0_14,NA,NA,skipped,NA,613480.0999999,NA,NA,613241.5999999,613480.20000005,2023-12-02T10:03:21Z,613675.325,NULL,NA,NA,NA,NA,NA,NA,NA,NA,NA,14,NA,NA,NA,NA,NA,NA,NA,NA,NA,NA,NA,NA,NA,NA,NA,NA,NA,NA,NA
b6922,check continue,flow.Sequence,3_0_15,NA,NA,skipped,NA,613491.5,NA,NA,613241.5999999,613491.5999999,2023-12-02T10:03:21Z,613675.325,NULL,NA,NA,NA,NA,NA,NA,NA,NA,NA,15,NA,NA,NA,NA,NA,NA,NA,NA,NA,NA,NA,NA,NA,NA,NA,NA,NA,NA,NA
b6922,check continue,flow.Sequence,3_0_16,NA,NA,skipped,NA,613506.20000005,NA,NA,613241.5999999,613506.20000005,2023-12-02T10:03:21Z,613675.325,NULL,NA,NA,NA,NA,NA,NA,NA,NA,NA,16,NA,NA,NA,NA,NA,NA,NA,NA,NA,NA,NA,NA,NA,NA,NA,NA,NA,NA,NA
b6922,check continue,flow.Sequence,3_0_17,NA,NA,skipped,NA,613518.0999999,NA,NA,613241.5999999,613518.20000005,2023-12-02T10:03:21Z,613675.325,NULL,NA,NA,NA,NA,NA,NA,NA,NA,NA,17,NA,NA,NA,NA,NA,NA,NA,NA,NA,NA,NA,NA,NA,NA,NA,NA,NA,NA,NA
b6922,check continue,flow.Sequence,3_0_18,NA,NA,skipped,NA,613531.5999999,NA,NA,613241.5999999,613531.70000005,2023-12-02T10:03:21Z,613675.325,NULL,NA,NA,NA,NA,NA,NA,NA,NA,NA,18,NA,NA,NA,NA,NA,NA,NA,NA,NA,NA,NA,NA,NA,NA,NA,NA,NA,NA,NA
b6922,check continue,flow.Sequence,3_0_19,NA,NA,skipped,NA,613544.9000001,NA,NA,613241.5999999,613545,2023-12-02T10:03:21Z,613675.325,NULL,NA,NA,NA,NA,NA,NA,NA,NA,NA,19,NA,NA,NA,NA,NA,NA,NA,NA,NA,NA,NA,NA,NA,NA,NA,NA,NA,NA,NA
b6922,check continue,flow.Sequence,3_0_20,NA,NA,skipped,NA,613556.5999999,NA,NA,613241.5999999,613556.5999999,2023-12-02T10:03:21Z,613675.325,NULL,NA,NA,NA,NA,NA,NA,NA,NA,NA,20,NA,NA,NA,NA,NA,NA,NA,NA,NA,NA,NA,NA,NA,NA,NA,NA,NA,NA,NA
b6922,check continue,flow.Sequence,3_0_21,NA,NA,skipped,NA,613569.20000005,NA,NA,613241.5999999,613569.20000005,2023-12-02T10:03:21Z,613675.325,NULL,NA,NA,NA,NA,NA,NA,NA,NA,NA,21,NA,NA,NA,NA,NA,NA,NA,NA,NA,NA,NA,NA,NA,NA,NA,NA,NA,NA,NA
b6922,check continue,flow.Sequence,3_0_22,NA,NA,skipped,NA,613580.4000001,NA,NA,613241.5999999,613580.4000001,2023-12-02T10:03:21Z,613675.325,NULL,NA,NA,NA,NA,NA,NA,NA,NA,NA,22,NA,NA,NA,NA,NA,NA,NA,NA,NA,NA,NA,NA,NA,NA,NA,NA,NA,NA,NA
b6922,check continue,flow.Sequence,3_0_23,NA,NA,skipped,NA,613593.9000001,NA,NA,613241.5999999,613593.9000001,2023-12-02T10:03:21Z,613675.325,NULL,NA,NA,NA,NA,NA,NA,NA,NA,NA,23,NA,NA,NA,NA,NA,NA,NA,NA,NA,NA,NA,NA,NA,NA,NA,NA,NA,NA,NA
b6922,check continue,flow.Sequence,3_0_24,NA,NA,skipped,NA,613605.0999999,NA,NA,613241.5999999,613605.0999999,2023-12-02T10:03:21Z,613675.325,NULL,NA,NA,NA,NA,NA,NA,NA,NA,NA,24,NA,NA,NA,NA,NA,NA,NA,NA,NA,NA,NA,NA,NA,NA,NA,NA,NA,NA,NA
b6922,check continue,flow.Sequence,3_0_25,NA,NA,skipped,NA,613618.29999995,NA,NA,613241.5999999,613618.4000001,2023-12-02T10:03:21Z,613675.325,NULL,NA,NA,NA,NA,NA,NA,NA,NA,NA,25,NA,NA,NA,NA,NA,NA,NA,NA,NA,NA,NA,NA,NA,NA,NA,NA,NA,NA,NA
b6922,check continue,flow.Sequence,3_0_26,NA,NA,skipped,NA,613629.5,NA,NA,613241.5999999,613629.5,2023-12-02T10:03:21Z,613675.325,NULL,NA,NA,NA,NA,NA,NA,NA,NA,NA,26,NA,NA,NA,NA,NA,NA,NA,NA,NA,NA,NA,NA,NA,NA,NA,NA,NA,NA,NA
b6922,check continue,flow.Sequence,3_0_27,NA,NA,skipped,NA,613642.29999995,NA,NA,613241.5999999,613642.29999995,2023-12-02T10:03:21Z,613675.325,NULL,NA,NA,NA,NA,NA,NA,NA,NA,NA,27,NA,NA,NA,NA,NA,NA,NA,NA,NA,NA,NA,NA,NA,NA,NA,NA,NA,NA,NA
b6922,check continue,flow.Sequence,3_0_28,NA,NA,skipped,NA,613653.0999999,NA,NA,613241.5999999,613653.0999999,2023-12-02T10:03:21Z,613675.325,NULL,NA,NA,NA,NA,NA,NA,NA,NA,NA,28,NA,NA,NA,NA,NA,NA,NA,NA,NA,NA,NA,NA,NA,NA,NA,NA,NA,NA,NA
b6922,check continue,flow.Sequence,3_0_29,NA,NA,skipped,NA,613686,NA,NA,613241.5999999,613686.0999999,2023-12-02T10:03:21Z,613675.325,NULL,NA,NA,NA,NA,NA,NA,NA,NA,NA,29,NA,NA,NA,NA,NA,NA,NA,NA,NA,NA,NA,NA,NA,NA,NA,NA,NA,NA,NA
b6922,until continue,flow.Loop,3_0,NA,NA,completion,342949.4809999,270258.20000005,270276.186,270292.119,613241.5999999,613686.20000005,2023-12-02T10:03:21Z,613675.325,NULL,NA,NA,NA,NA,NA,NA,NA,NA,NA,NA,NA,NA,NA,NA,NA,NA,NA,NA,NA,NA,NA,NA,NA,NA,NA,NA,NA,NA,NA
b6922,block 1,flow.Sequence,3,NA,NA,completion,342949.4809999,270258.0999999,270276.186,270292.119,613241.5999999,613686.4000001,2023-12-02T10:03:21Z,613675.325,NULL,NA,NA,NA,NA,NA,NA,NA,NA,NA,NA,NA,NA,NA,NA,NA,NA,NA,NA,NA,NA,NA,NA,NA,NA,NA,NA,NA,NA,NA
b6922,1.Part Over,canvas.Screen,4,NA,keypress(Space),response,5318.7749999047,613686.4000001,613227.817,613675.325,618994.0999999,618995.0999999,2023-12-02T10:03:27Z,619075.41,NULL,NA,NA,NA,NA,NA,NA,NA,NA,NA,NA,NA,NA,NA,NA,NA,NA,NA,NA,NA,NA,NA,NA,NA,NA,NA,NA,NA,NA,NA
b6922,Deep Question,html.Page,5_0_0_0_0_0_0,NA,NA,form submission,4311.1899999046,619063.5999999,619057.72,619075.41,623386.5999999,623386.9000001,2023-12-02T10:03:31Z,623392.009,NULL,Orientierung,urekebisho,d,NA,NA,NA,foisjgp,NA,NA,0,NA,NA,NA,NA,NA,NA,NA,NA,NA,NA,NA,NA,NA,NA,NA,NA,NA,NA,NA
b6922,"""Richtig""-Screen",canvas.Screen,5_0_0_0_0_0_1,NA,NA,skipped,NA,623388.5999999,NA,NA,623386.5999999,623388.79999995,2023-12-02T10:03:31Z,623392.009,NULL,Orientierung,urekebisho,d,NA,NA,NA,NA,sdf,NA,0,NA,NA,NA,NA,NA,NA,NA,NA,NA,NA,NA,NA,NA,NA,NA,NA,NA,NA,NA
b6922,"""Falsch""-Screen",canvas.Screen,5_0_0_0_0_0_2,NA,NA,timeout,5000.159,623389.4000001,623375.478,623392.009,628375.475,628376.4000001,2023-12-02T10:03:36Z,628392.168,NULL,Orientierung,urekebisho,d,NA,NA,NA,NA,sdf,0,0,NA,NA,NA,NA,NA,NA,NA,NA,NA,NA,NA,NA,NA,NA,NA,NA,NA,NA,NA
b6922,deep,flow.Sequence,5_0_0_0_0_0,NA,NA,completion,9300.0649999999,619063.5999999,619057.72,619075.41,628375.475,628376.70000005,2023-12-02T10:03:36Z,628392.168,NULL,Orientierung,urekebisho,d,NA,NA,NA,NA,sdf,NA,0,NA,NA,NA,NA,NA,NA,NA,NA,NA,NA,NA,NA,NA,NA,NA,NA,NA,NA,NA
b6922,shallow,flow.Sequence,5_0_0_0_0_1,NA,NA,skipped,NA,628376.79999995,NA,NA,628375.475,628376.9000001,2023-12-02T10:03:36Z,628392.168,NULL,Orientierung,urekebisho,d,NA,NA,NA,NA,sdf,NA,0,NA,NA,NA,NA,NA,NA,NA,NA,NA,NA,NA,NA,NA,NA,NA,NA,NA,NA,NA
b6922,task,flow.Sequence,5_0_0_0_0,NA,NA,completion,9300.0649999999,619063.5999999,619057.72,619075.41,628375.475,628377,2023-12-02T10:03:36Z,628392.168,NULL,Orientierung,urekebisho,d,NA,NA,NA,NA,sdf,NA,0,NA,NA,NA,NA,NA,NA,NA,NA,NA,NA,NA,NA,NA,NA,NA,NA,NA,NA,NA
b6922,Deep Question,html.Page,5_0_0_0_1_0_0,NA,NA,form submission,2970.4319999047,628377.0999999,628375.475,628392.168,631362.5999999,631362.9000001,2023-12-02T10:03:39Z,631379.744,NULL,Notfall,dharura,d,NA,NA,NA,aäwesfkj,NA,NA,0,NA,NA,NA,NA,NA,NA,NA,NA,NA,NA,NA,NA,NA,NA,NA,NA,NA,NA,NA
b6922,"""Richtig""-Screen",canvas.Screen,5_0_0_0_1_0_1,NA,NA,skipped,NA,631364.5999999,NA,NA,631362.5999999,631364.79999995,2023-12-02T10:03:39Z,631379.744,NULL,Notfall,dharura,d,NA,NA,NA,NA,sdf,NA,0,NA,NA,NA,NA,NA,NA,NA,NA,NA,NA,NA,NA,NA,NA,NA,NA,NA,NA,NA
b6922,"""Falsch""-Screen",canvas.Screen,5_0_0_0_1_0_2,NA,NA,timeout,4995.726,631365.20000005,631358.8,631379.744,636358.795,636359.5999999,2023-12-02T10:03:44Z,636375.47,NULL,Notfall,dharura,d,NA,NA,NA,NA,sdf,0,0,NA,NA,NA,NA,NA,NA,NA,NA,NA,NA,NA,NA,NA,NA,NA,NA,NA,NA,NA
b6922,deep,flow.Sequence,5_0_0_0_1_0,NA,NA,completion,7966.6270000001,628377.0999999,628375.475,628392.168,636358.795,636360,2023-12-02T10:03:44Z,636375.47,NULL,Notfall,dharura,d,NA,NA,NA,NA,sdf,NA,0,NA,NA,NA,NA,NA,NA,NA,NA,NA,NA,NA,NA,NA,NA,NA,NA,NA,NA,NA
b6922,shallow,flow.Sequence,5_0_0_0_1_1,NA,NA,skipped,NA,636360,NA,NA,636358.795,636360.20000005,2023-12-02T10:03:44Z,636375.47,NULL,Notfall,dharura,d,NA,NA,NA,NA,sdf,NA,0,NA,NA,NA,NA,NA,NA,NA,NA,NA,NA,NA,NA,NA,NA,NA,NA,NA,NA,NA
b6922,task,flow.Sequence,5_0_0_0_1,NA,NA,completion,7966.6270000001,628377.0999999,628375.475,628392.168,636358.795,636360.29999995,2023-12-02T10:03:44Z,636375.47,NULL,Notfall,dharura,d,NA,NA,NA,NA,sdf,NA,0,NA,NA,NA,NA,NA,NA,NA,NA,NA,NA,NA,NA,NA,NA,NA,NA,NA,NA,NA
b6922,deep,flow.Sequence,5_0_0_0_2_0,NA,NA,skipped,NA,636360.4000001,NA,NA,636358.795,636360.5,2023-12-02T10:03:44Z,636375.47,NULL,Betrüger,mdanganyifu,s,mwanamuziki,wastani,mahakama,NA,sdf,NA,0,NA,NA,NA,NA,NA,NA,NA,NA,NA,NA,NA,NA,NA,NA,NA,NA,NA,NA,NA
b6922,Shallow Question,html.Page,5_0_0_0_2_1_0,NA,NA,form submission,6331.2300000477,636360.5,636358.795,636375.47,642706.70000005,642706.9000001,2023-12-02T10:03:50Z,642708.662,NULL,Betrüger,mdanganyifu,s,mwanamuziki,wastani,mahakama,wastani,NA,NA,0,NA,NA,NA,NA,NA,NA,NA,NA,NA,NA,NA,NA,NA,NA,NA,NA,NA,NA,NA
b6922,"""Richtig""-Screen",canvas.Screen,5_0_0_0_2_1_1,NA,NA,skipped,NA,642709,NA,NA,642706.70000005,642709.20000005,2023-12-02T10:03:50Z,642708.662,NULL,Betrüger,mdanganyifu,s,mwanamuziki,wastani,mahakama,NA,sdf,NA,0,NA,NA,NA,NA,NA,NA,NA,NA,NA,NA,NA,NA,NA,NA,NA,NA,NA,NA,NA
b6922,"""Falsch""-Screen",canvas.Screen,5_0_0_0_2_1_2,NA,NA,timeout,5000.1799999999,642709.9000001,642692.025,642708.662,647692.027,647692.70000005,2023-12-02T10:03:55Z,647708.842,NULL,Betrüger,mdanganyifu,s,mwanamuziki,wastani,mahakama,NA,sdf,0,0,NA,NA,NA,NA,NA,NA,NA,NA,NA,NA,NA,NA,NA,NA,NA,NA,NA,NA,NA
b6922,shallow,flow.Sequence,5_0_0_0_2_1,NA,NA,completion,11316.557,636360.5,636358.795,636375.47,647692.027,647693,2023-12-02T10:03:55Z,647708.842,NULL,Betrüger,mdanganyifu,s,mwanamuziki,wastani,mahakama,NA,sdf,NA,0,NA,NA,NA,NA,NA,NA,NA,NA,NA,NA,NA,NA,NA,NA,NA,NA,NA,NA,NA
b6922,task,flow.Sequence,5_0_0_0_2,NA,NA,completion,11316.557,636360.29999995,636358.795,636375.47,647692.027,647693,2023-12-02T10:03:55Z,647708.842,NULL,Betrüger,mdanganyifu,s,mwanamuziki,wastani,mahakama,NA,sdf,NA,0,NA,NA,NA,NA,NA,NA,NA,NA,NA,NA,NA,NA,NA,NA,NA,NA,NA,NA,NA
b6922,Deep Question,html.Page,5_0_0_0_3_0_0,NA,NA,form submission,6405.6580000001,647693.0999999,647692.027,647708.842,654114.5,654114.79999995,2023-12-02T10:04:02Z,654125.422,NULL,Respekt,heshima,d,NA,NA,NA,kffdle,NA,NA,0,NA,NA,NA,NA,NA,NA,NA,NA,NA,NA,NA,NA,NA,NA,NA,NA,NA,NA,NA
b6922,"""Richtig""-Screen",canvas.Screen,5_0_0_0_3_0_1,NA,NA,skipped,NA,654116.70000005,NA,NA,654114.5,654116.79999995,2023-12-02T10:04:02Z,654125.422,NULL,Respekt,heshima,d,NA,NA,NA,NA,sdf,NA,0,NA,NA,NA,NA,NA,NA,NA,NA,NA,NA,NA,NA,NA,NA,NA,NA,NA,NA,NA
b6922,"""Falsch""-Screen",canvas.Screen,5_0_0_0_3_0_2,NA,NA,timeout,5012.743,654117.29999995,654108.672,654125.422,659108.788,659109.5999999,2023-12-02T10:04:07Z,659138.165,NULL,Respekt,heshima,d,NA,NA,NA,NA,sdf,0,0,NA,NA,NA,NA,NA,NA,NA,NA,NA,NA,NA,NA,NA,NA,NA,NA,NA,NA,NA
b6922,deep,flow.Sequence,5_0_0_0_3_0,NA,NA,completion,11399.946,647693.0999999,647692.027,647708.842,659108.788,659109.9000001,2023-12-02T10:04:07Z,659138.165,NULL,Respekt,heshima,d,NA,NA,NA,NA,sdf,NA,0,NA,NA,NA,NA,NA,NA,NA,NA,NA,NA,NA,NA,NA,NA,NA,NA,NA,NA,NA
b6922,shallow,flow.Sequence,5_0_0_0_3_1,NA,NA,skipped,NA,659110,NA,NA,659108.788,659110,2023-12-02T10:04:07Z,659138.165,NULL,Respekt,heshima,d,NA,NA,NA,NA,sdf,NA,0,NA,NA,NA,NA,NA,NA,NA,NA,NA,NA,NA,NA,NA,NA,NA,NA,NA,NA,NA
b6922,task,flow.Sequence,5_0_0_0_3,NA,NA,completion,11399.946,647693,647692.027,647708.842,659108.788,659110.20000005,2023-12-02T10:04:07Z,659138.165,NULL,Respekt,heshima,d,NA,NA,NA,NA,sdf,NA,0,NA,NA,NA,NA,NA,NA,NA,NA,NA,NA,NA,NA,NA,NA,NA,NA,NA,NA,NA
b6922,deep,flow.Sequence,5_0_0_0_4_0,NA,NA,skipped,NA,659110.4000001,NA,NA,659108.788,659110.4000001,2023-12-02T10:04:07Z,659138.165,NULL,Wohlstand,mafanikio,s,chimbuko,kumbuko,mapwaji,NA,sdf,NA,0,NA,NA,NA,NA,NA,NA,NA,NA,NA,NA,NA,NA,NA,NA,NA,NA,NA,NA,NA
b6922,Shallow Question,html.Page,5_0_0_0_4_1_0,NA,NA,form submission,8568.5350000476,659110.5999999,659108.788,659138.165,667706.70000005,667706.9000001,2023-12-02T10:04:15Z,667708.652,NULL,Wohlstand,mafanikio,s,chimbuko,kumbuko,mapwaji,chimbuko,NA,NA,0,NA,NA,NA,NA,NA,NA,NA,NA,NA,NA,NA,NA,NA,NA,NA,NA,NA,NA,NA
b6922,"""Richtig""-Screen",canvas.Screen,5_0_0_0_4_1_1,NA,NA,skipped,NA,667708.70000005,NA,NA,667706.70000005,667708.9000001,2023-12-02T10:04:15Z,667708.652,NULL,Wohlstand,mafanikio,s,chimbuko,kumbuko,mapwaji,NA,sdf,NA,0,NA,NA,NA,NA,NA,NA,NA,NA,NA,NA,NA,NA,NA,NA,NA,NA,NA,NA,NA
b6922,"""Falsch""-Screen",canvas.Screen,5_0_0_0_4_1_2,NA,NA,timeout,5000.057,667709.5,667692.131,667708.652,672692.013,672692.9000001,2023-12-02T10:04:20Z,672708.709,NULL,Wohlstand,mafanikio,s,chimbuko,kumbuko,mapwaji,NA,sdf,0,0,NA,NA,NA,NA,NA,NA,NA,NA,NA,NA,NA,NA,NA,NA,NA,NA,NA,NA,NA
b6922,shallow,flow.Sequence,5_0_0_0_4_1,NA,NA,completion,13553.848,659110.5999999,659108.788,659138.165,672692.013,672693.20000005,2023-12-02T10:04:20Z,672708.709,NULL,Wohlstand,mafanikio,s,chimbuko,kumbuko,mapwaji,NA,sdf,NA,0,NA,NA,NA,NA,NA,NA,NA,NA,NA,NA,NA,NA,NA,NA,NA,NA,NA,NA,NA
b6922,task,flow.Sequence,5_0_0_0_4,NA,NA,completion,13553.848,659110.29999995,659108.788,659138.165,672692.013,672693.4000001,2023-12-02T10:04:20Z,672708.709,NULL,Wohlstand,mafanikio,s,chimbuko,kumbuko,mapwaji,NA,sdf,NA,0,NA,NA,NA,NA,NA,NA,NA,NA,NA,NA,NA,NA,NA,NA,NA,NA,NA,NA,NA
b6922,deep,flow.Sequence,5_0_0_0_5_0,NA,NA,skipped,NA,672693.5,NA,NA,672692.013,672693.5999999,2023-12-02T10:04:20Z,672708.709,NULL,Stimmung,kinyongo,s,kilekile,kisambo,madhehebu,NA,sdf,NA,0,NA,NA,NA,NA,NA,NA,NA,NA,NA,NA,NA,NA,NA,NA,NA,NA,NA,NA,NA
b6922,Shallow Question,html.Page,5_0_0_0_5_1_0,NA,NA,form submission,9070.0909999523,672693.79999995,672692.013,672708.709,681778.79999995,681779,2023-12-02T10:04:30Z,681794.613,NULL,Stimmung,kinyongo,s,kilekile,kisambo,madhehebu,kilekile,NA,NA,0,NA,NA,NA,NA,NA,NA,NA,NA,NA,NA,NA,NA,NA,NA,NA,NA,NA,NA,NA
b6922,"""Richtig""-Screen",canvas.Screen,5_0_0_0_5_1_1,NA,NA,skipped,NA,681780.79999995,NA,NA,681778.79999995,681781,2023-12-02T10:04:30Z,681794.613,NULL,Stimmung,kinyongo,s,kilekile,kisambo,madhehebu,NA,sdf,NA,0,NA,NA,NA,NA,NA,NA,NA,NA,NA,NA,NA,NA,NA,NA,NA,NA,NA,NA,NA
b6922,"""Falsch""-Screen",canvas.Screen,5_0_0_0_5_1_2,NA,NA,timeout,4997.546,681781.5,681775.511,681794.613,686775.444,686776.20000005,2023-12-02T10:04:35Z,686792.159,NULL,Stimmung,kinyongo,s,kilekile,kisambo,madhehebu,NA,sdf,0,0,NA,NA,NA,NA,NA,NA,NA,NA,NA,NA,NA,NA,NA,NA,NA,NA,NA,NA,NA
b6922,shallow,flow.Sequence,5_0_0_0_5_1,NA,NA,completion,14066.735,672693.79999995,672692.013,672708.709,686775.444,686776.5999999,2023-12-02T10:04:35Z,686792.159,NULL,Stimmung,kinyongo,s,kilekile,kisambo,madhehebu,NA,sdf,NA,0,NA,NA,NA,NA,NA,NA,NA,NA,NA,NA,NA,NA,NA,NA,NA,NA,NA,NA,NA
b6922,task,flow.Sequence,5_0_0_0_5,NA,NA,completion,14066.735,672693.5,672692.013,672708.709,686775.444,686776.79999995,2023-12-02T10:04:35Z,686792.159,NULL,Stimmung,kinyongo,s,kilekile,kisambo,madhehebu,NA,sdf,NA,0,NA,NA,NA,NA,NA,NA,NA,NA,NA,NA,NA,NA,NA,NA,NA,NA,NA,NA,NA
b6922,Deep Question,html.Page,5_0_0_0_6_0_0,NA,NA,form submission,3554.4409999046,686777,686775.444,686792.159,690346.5999999,690346.79999995,2023-12-02T10:04:38Z,690358.641,NULL,Vergnügen,kichekesho,d,NA,NA,NA,sdfjjd,NA,NA,0,NA,NA,NA,NA,NA,NA,NA,NA,NA,NA,NA,NA,NA,NA,NA,NA,NA,NA,NA
b6922,"""Richtig""-Screen",canvas.Screen,5_0_0_0_6_0_1,NA,NA,skipped,NA,690348.5,NA,NA,690346.5999999,690348.70000005,2023-12-02T10:04:38Z,690358.641,NULL,Vergnügen,kichekesho,d,NA,NA,NA,NA,sdf,NA,0,NA,NA,NA,NA,NA,NA,NA,NA,NA,NA,NA,NA,NA,NA,NA,NA,NA,NA,NA
b6922,"""Falsch""-Screen",canvas.Screen,5_0_0_0_6_0_2,NA,NA,timeout,5000.1590000001,690349.29999995,690342.08,690358.641,695342.076,695343,2023-12-02T10:04:43Z,695358.8,NULL,Vergnügen,kichekesho,d,NA,NA,NA,NA,sdf,0,0,NA,NA,NA,NA,NA,NA,NA,NA,NA,NA,NA,NA,NA,NA,NA,NA,NA,NA,NA
b6922,deep,flow.Sequence,5_0_0_0_6_0,NA,NA,completion,8549.917,686776.9000001,686775.444,686792.159,695342.076,695343.20000005,2023-12-02T10:04:43Z,695358.8,NULL,Vergnügen,kichekesho,d,NA,NA,NA,NA,sdf,NA,0,NA,NA,NA,NA,NA,NA,NA,NA,NA,NA,NA,NA,NA,NA,NA,NA,NA,NA,NA
b6922,shallow,flow.Sequence,5_0_0_0_6_1,NA,NA,skipped,NA,695343.4000001,NA,NA,695342.076,695343.5,2023-12-02T10:04:43Z,695358.8,NULL,Vergnügen,kichekesho,d,NA,NA,NA,NA,sdf,NA,0,NA,NA,NA,NA,NA,NA,NA,NA,NA,NA,NA,NA,NA,NA,NA,NA,NA,NA,NA
b6922,task,flow.Sequence,5_0_0_0_6,NA,NA,completion,8549.917,686776.79999995,686775.444,686792.159,695342.076,695343.70000005,2023-12-02T10:04:43Z,695358.8,NULL,Vergnügen,kichekesho,d,NA,NA,NA,NA,sdf,NA,0,NA,NA,NA,NA,NA,NA,NA,NA,NA,NA,NA,NA,NA,NA,NA,NA,NA,NA,NA
b6922,deep,flow.Sequence,5_0_0_0_7_0,NA,NA,skipped,NA,695343.79999995,NA,NA,695342.076,695343.9000001,2023-12-02T10:04:43Z,695358.8,NULL,Ergänzung,kijalizo,s,ulaghai,mustarehe,matangazo,NA,sdf,NA,0,NA,NA,NA,NA,NA,NA,NA,NA,NA,NA,NA,NA,NA,NA,NA,NA,NA,NA,NA
b6922,Shallow Question,html.Page,5_0_0_0_7_1_0,NA,NA,form submission,7947.9000000476,695344,695342.076,695358.8,703306.70000005,703307,2023-12-02T10:04:51Z,703308.649,NULL,Ergänzung,kijalizo,s,ulaghai,mustarehe,matangazo,kijalizo,NA,NA,0,NA,NA,NA,NA,NA,NA,NA,NA,NA,NA,NA,NA,NA,NA,NA,NA,NA,NA,NA
b6922,"""Richtig""-Screen",canvas.Screen,5_0_0_0_7_1_1,NA,NA,timeout,5006.67,703308.70000005,703292.089,703308.649,708292.026,708292.9000001,2023-12-02T10:04:56Z,708315.319,NULL,Ergänzung,kijalizo,s,ulaghai,mustarehe,matangazo,NA,sdf,1,0,NA,NA,NA,NA,NA,NA,NA,NA,NA,NA,NA,NA,NA,NA,NA,NA,NA,NA,NA
b6922,"""Falsch""-Screen",canvas.Screen,5_0_0_0_7_1_2,NA,NA,skipped,NA,708297,NA,NA,708292.026,708297.29999995,2023-12-02T10:04:56Z,708315.319,NULL,Ergänzung,kijalizo,s,ulaghai,mustarehe,matangazo,NA,sdf,NA,0,NA,NA,NA,NA,NA,NA,NA,NA,NA,NA,NA,NA,NA,NA,NA,NA,NA,NA,NA
b6922,shallow,flow.Sequence,5_0_0_0_7_1,NA,NA,completion,12933.226,695343.9000001,695342.076,695358.8,708292.026,708297.5,2023-12-02T10:04:56Z,708315.319,NULL,Ergänzung,kijalizo,s,ulaghai,mustarehe,matangazo,NA,sdf,NA,0,NA,NA,NA,NA,NA,NA,NA,NA,NA,NA,NA,NA,NA,NA,NA,NA,NA,NA,NA
b6922,task,flow.Sequence,5_0_0_0_7,NA,NA,completion,12933.226,695343.79999995,695342.076,695358.8,708292.026,708297.70000005,2023-12-02T10:04:56Z,708315.319,NULL,Ergänzung,kijalizo,s,ulaghai,mustarehe,matangazo,NA,sdf,NA,0,NA,NA,NA,NA,NA,NA,NA,NA,NA,NA,NA,NA,NA,NA,NA,NA,NA,NA,NA
b6922,block,flow.Loop,5_0_0_0,NA,NA,completion,89216.616,619063.5999999,619057.72,619075.41,708292.026,708297.9000001,2023-12-02T10:04:56Z,708315.319,NULL,NA,NA,NA,NA,NA,NA,NA,sdf,NA,0,NA,NA,NA,NA,NA,NA,NA,NA,NA,NA,NA,NA,NA,NA,NA,NA,NA,NA,NA
b6922,weiter,canvas.Screen,5_0_0_1,sdf,keypress(Space),response,1782.2809999046,708298,708292.026,708315.319,710097.5999999,710098.79999995,2023-12-02T10:04:58Z,710158.796,NULL,NA,NA,NA,NA,NA,NA,NA,sdf,NA,0,NA,NA,NA,NA,NA,NA,NA,NA,NA,NA,NA,NA,NA,NA,NA,NA,NA,NA,NA
b6922,check continue,flow.Sequence,5_0_0,NA,NA,completion,91022.189999905,619063.5999999,619057.72,619075.41,710097.5999999,710099,2023-12-02T10:04:58Z,710158.796,NULL,NA,NA,NA,NA,NA,NA,NA,sdf,NA,0,NA,NA,NA,NA,NA,NA,NA,NA,NA,NA,NA,NA,NA,NA,NA,NA,NA,NA,NA
b6922,Deep Question,html.Page,5_0_1_0_0_0_0,NA,NA,form submission,56891.803999905,710147.5999999,710141.838,710158.796,767050.5999999,767050.9000001,2023-12-02T10:05:55Z,767058.641,NULL,Orientierung,urekebisho,d,NA,NA,NA,urekeiho,NA,NA,1,NA,NA,NA,NA,NA,NA,NA,NA,NA,NA,NA,NA,NA,NA,NA,NA,NA,NA,NA
b6922,"""Richtig""-Screen",canvas.Screen,5_0_1_0_0_0_1,NA,NA,skipped,NA,767052.70000005,NA,NA,767050.5999999,767052.79999995,2023-12-02T10:05:55Z,767058.641,NULL,Orientierung,urekebisho,d,NA,NA,NA,NA,sdfdsf,NA,1,NA,NA,NA,NA,NA,NA,NA,NA,NA,NA,NA,NA,NA,NA,NA,NA,NA,NA,NA
b6922,"""Falsch""-Screen",canvas.Screen,5_0_1_0_0_0_2,NA,NA,timeout,5000.1000000001,767053.29999995,767042.087,767058.641,772042.106,772043,2023-12-02T10:06:00Z,772058.741,NULL,Orientierung,urekebisho,d,NA,NA,NA,NA,sdfdsf,0,1,NA,NA,NA,NA,NA,NA,NA,NA,NA,NA,NA,NA,NA,NA,NA,NA,NA,NA,NA
b6922,deep,flow.Sequence,5_0_1_0_0_0,NA,NA,completion,61883.31,710147.5999999,710141.838,710158.796,772042.106,772043.4000001,2023-12-02T10:06:00Z,772058.741,NULL,Orientierung,urekebisho,d,NA,NA,NA,NA,sdfdsf,NA,1,NA,NA,NA,NA,NA,NA,NA,NA,NA,NA,NA,NA,NA,NA,NA,NA,NA,NA,NA
b6922,shallow,flow.Sequence,5_0_1_0_0_1,NA,NA,skipped,NA,772043.4000001,NA,NA,772042.106,772043.5,2023-12-02T10:06:00Z,772058.741,NULL,Orientierung,urekebisho,d,NA,NA,NA,NA,sdfdsf,NA,1,NA,NA,NA,NA,NA,NA,NA,NA,NA,NA,NA,NA,NA,NA,NA,NA,NA,NA,NA
b6922,task,flow.Sequence,5_0_1_0_0,NA,NA,completion,61883.31,710147.5999999,710141.838,710158.796,772042.106,772043.70000005,2023-12-02T10:06:00Z,772058.741,NULL,Orientierung,urekebisho,d,NA,NA,NA,NA,sdfdsf,NA,1,NA,NA,NA,NA,NA,NA,NA,NA,NA,NA,NA,NA,NA,NA,NA,NA,NA,NA,NA
b6922,deep,flow.Sequence,5_0_1_0_1_0,NA,NA,skipped,NA,772043.79999995,NA,NA,772042.106,772043.9000001,2023-12-02T10:06:00Z,772058.741,NULL,Wohlstand,mafanikio,s,chimbuko,kumbuko,mapwaji,NA,sdfdsf,NA,1,NA,NA,NA,NA,NA,NA,NA,NA,NA,NA,NA,NA,NA,NA,NA,NA,NA,NA,NA
b6922,Shallow Question,html.Page,5_0_1_0_1_1_0,NA,NA,form submission,19095.558999952,772044,772042.106,772058.741,791154.29999995,791154.4000001,2023-12-02T10:06:19Z,791175.294,NULL,Wohlstand,mafanikio,s,chimbuko,kumbuko,mapwaji,mafanikio,NA,NA,1,NA,NA,NA,NA,NA,NA,NA,NA,NA,NA,NA,NA,NA,NA,NA,NA,NA,NA,NA
b6922,"""Richtig""-Screen",canvas.Screen,5_0_1_0_1_1_1,NA,NA,timeout,5000.16,791156.20000005,791158.796,791175.294,796158.701,796159.70000005,2023-12-02T10:06:24Z,796175.454,NULL,Wohlstand,mafanikio,s,chimbuko,kumbuko,mapwaji,NA,sdfdsf,1,1,NA,NA,NA,NA,NA,NA,NA,NA,NA,NA,NA,NA,NA,NA,NA,NA,NA,NA,NA
b6922,"""Falsch""-Screen",canvas.Screen,5_0_1_0_1_1_2,NA,NA,skipped,NA,796163.9000001,NA,NA,796158.701,796164.0999999,2023-12-02T10:06:24Z,796175.454,NULL,Wohlstand,mafanikio,s,chimbuko,kumbuko,mapwaji,NA,sdfdsf,NA,1,NA,NA,NA,NA,NA,NA,NA,NA,NA,NA,NA,NA,NA,NA,NA,NA,NA,NA,NA
b6922,shallow,flow.Sequence,5_0_1_0_1_1,NA,NA,completion,24099.96,772044,772042.106,772058.741,796158.701,796164.29999995,2023-12-02T10:06:24Z,796175.454,NULL,Wohlstand,mafanikio,s,chimbuko,kumbuko,mapwaji,NA,sdfdsf,NA,1,NA,NA,NA,NA,NA,NA,NA,NA,NA,NA,NA,NA,NA,NA,NA,NA,NA,NA,NA
b6922,task,flow.Sequence,5_0_1_0_1,NA,NA,completion,24099.96,772043.79999995,772042.106,772058.741,796158.701,796164.5,2023-12-02T10:06:24Z,796175.454,NULL,Wohlstand,mafanikio,s,chimbuko,kumbuko,mapwaji,NA,sdfdsf,NA,1,NA,NA,NA,NA,NA,NA,NA,NA,NA,NA,NA,NA,NA,NA,NA,NA,NA,NA,NA
b6922,deep,flow.Sequence,5_0_1_0_2_0,NA,NA,skipped,NA,796164.70000005,NA,NA,796158.701,796164.70000005,2023-12-02T10:06:24Z,796175.454,NULL,Ergänzung,kijalizo,s,ulaghai,mustarehe,matangazo,NA,sdfdsf,NA,1,NA,NA,NA,NA,NA,NA,NA,NA,NA,NA,NA,NA,NA,NA,NA,NA,NA,NA,NA
b6922,Shallow Question,html.Page,5_0_1_0_2_1_0,NA,NA,form submission,12875.046,796164.9000001,796158.701,796175.454,809050.5,809050.70000005,2023-12-02T10:06:37Z,809058.737,NULL,Ergänzung,kijalizo,s,ulaghai,mustarehe,matangazo,kijalizo,NA,NA,1,NA,NA,NA,NA,NA,NA,NA,NA,NA,NA,NA,NA,NA,NA,NA,NA,NA,NA,NA
b6922,"""Richtig""-Screen",canvas.Screen,5_0_1_0_2_1_1,NA,NA,timeout,5000.0680000001,809052.5,809042.1,809058.737,814042.106,814043,2023-12-02T10:06:42Z,814058.805,NULL,Ergänzung,kijalizo,s,ulaghai,mustarehe,matangazo,NA,sdfdsf,1,1,NA,NA,NA,NA,NA,NA,NA,NA,NA,NA,NA,NA,NA,NA,NA,NA,NA,NA,NA
b6922,"""Falsch""-Screen",canvas.Screen,5_0_1_0_2_1_2,NA,NA,skipped,NA,814047.5,NA,NA,814042.106,814047.70000005,2023-12-02T10:06:42Z,814058.805,NULL,Ergänzung,kijalizo,s,ulaghai,mustarehe,matangazo,NA,sdfdsf,NA,1,NA,NA,NA,NA,NA,NA,NA,NA,NA,NA,NA,NA,NA,NA,NA,NA,NA,NA,NA
b6922,shallow,flow.Sequence,5_0_1_0_2_1,NA,NA,completion,17866.652,796164.79999995,796158.701,796175.454,814042.106,814047.9000001,2023-12-02T10:06:42Z,814058.805,NULL,Ergänzung,kijalizo,s,ulaghai,mustarehe,matangazo,NA,sdfdsf,NA,1,NA,NA,NA,NA,NA,NA,NA,NA,NA,NA,NA,NA,NA,NA,NA,NA,NA,NA,NA
b6922,task,flow.Sequence,5_0_1_0_2,NA,NA,completion,17866.652,796164.5999999,796158.701,796175.454,814042.106,814048.0999999,2023-12-02T10:06:42Z,814058.805,NULL,Ergänzung,kijalizo,s,ulaghai,mustarehe,matangazo,NA,sdfdsf,NA,1,NA,NA,NA,NA,NA,NA,NA,NA,NA,NA,NA,NA,NA,NA,NA,NA,NA,NA,NA
b6922,deep,flow.Sequence,5_0_1_0_3_0,NA,NA,skipped,NA,814048.20000005,NA,NA,814042.106,814048.29999995,2023-12-02T10:06:42Z,814058.805,NULL,Stimmung,kinyongo,s,kilekile,kisambo,madhehebu,NA,sdfdsf,NA,1,NA,NA,NA,NA,NA,NA,NA,NA,NA,NA,NA,NA,NA,NA,NA,NA,NA,NA,NA
b6922,Shallow Question,html.Page,5_0_1_0_3_1_0,NA,NA,form submission,29479.395000048,814048.4000001,814042.106,814058.805,843538.20000005,843538.5,2023-12-02T10:07:11Z,843541.934,NULL,Stimmung,kinyongo,s,kilekile,kisambo,madhehebu,kinyongo,NA,NA,1,NA,NA,NA,NA,NA,NA,NA,NA,NA,NA,NA,NA,NA,NA,NA,NA,NA,NA,NA
b6922,"""Richtig""-Screen",canvas.Screen,5_0_1_0_3_1_1,NA,NA,timeout,5000.156,843540.20000005,843525.428,843541.934,848525.437,848526.29999995,2023-12-02T10:07:16Z,848542.09,NULL,Stimmung,kinyongo,s,kilekile,kisambo,madhehebu,NA,sdfdsf,1,1,NA,NA,NA,NA,NA,NA,NA,NA,NA,NA,NA,NA,NA,NA,NA,NA,NA,NA,NA
b6922,"""Falsch""-Screen",canvas.Screen,5_0_1_0_3_1_2,NA,NA,skipped,NA,848530.5999999,NA,NA,848525.437,848530.79999995,2023-12-02T10:07:16Z,848542.09,NULL,Stimmung,kinyongo,s,kilekile,kisambo,madhehebu,NA,sdfdsf,NA,1,NA,NA,NA,NA,NA,NA,NA,NA,NA,NA,NA,NA,NA,NA,NA,NA,NA,NA,NA
b6922,shallow,flow.Sequence,5_0_1_0_3_1,NA,NA,completion,34466.632,814048.4000001,814042.106,814058.805,848525.437,848531.0999999,2023-12-02T10:07:16Z,848542.09,NULL,Stimmung,kinyongo,s,kilekile,kisambo,madhehebu,NA,sdfdsf,NA,1,NA,NA,NA,NA,NA,NA,NA,NA,NA,NA,NA,NA,NA,NA,NA,NA,NA,NA,NA
b6922,task,flow.Sequence,5_0_1_0_3,NA,NA,completion,34466.632,814048.20000005,814042.106,814058.805,848525.437,848531.29999995,2023-12-02T10:07:16Z,848542.09,NULL,Stimmung,kinyongo,s,kilekile,kisambo,madhehebu,NA,sdfdsf,NA,1,NA,NA,NA,NA,NA,NA,NA,NA,NA,NA,NA,NA,NA,NA,NA,NA,NA,NA,NA
b6922,Deep Question,html.Page,5_0_1_0_4_0_0,NA,NA,form submission,37180.509999905,848531.4000001,848525.437,848542.09,885722.5999999,885722.9000001,2023-12-02T10:07:53Z,885725.259,NULL,Notfall,dharura,d,NA,NA,NA,dharura,NA,NA,1,NA,NA,NA,NA,NA,NA,NA,NA,NA,NA,NA,NA,NA,NA,NA,NA,NA,NA,NA
b6922,"""Richtig""-Screen",canvas.Screen,5_0_1_0_4_0_1,NA,NA,timeout,5000.061,885724.5999999,885709.662,885725.259,890708.615,890709.5,2023-12-02T10:07:58Z,890725.32,NULL,Notfall,dharura,d,NA,NA,NA,NA,sdfdsf,1,1,NA,NA,NA,NA,NA,NA,NA,NA,NA,NA,NA,NA,NA,NA,NA,NA,NA,NA,NA
b6922,"""Falsch""-Screen",canvas.Screen,5_0_1_0_4_0_2,NA,NA,skipped,NA,890714,NA,NA,890708.615,890714.29999995,2023-12-02T10:07:58Z,890725.32,NULL,Notfall,dharura,d,NA,NA,NA,NA,sdfdsf,NA,1,NA,NA,NA,NA,NA,NA,NA,NA,NA,NA,NA,NA,NA,NA,NA,NA,NA,NA,NA
b6922,deep,flow.Sequence,5_0_1_0_4_0,NA,NA,completion,42166.525,848531.29999995,848525.437,848542.09,890708.615,890714.5,2023-12-02T10:07:58Z,890725.32,NULL,Notfall,dharura,d,NA,NA,NA,NA,sdfdsf,NA,1,NA,NA,NA,NA,NA,NA,NA,NA,NA,NA,NA,NA,NA,NA,NA,NA,NA,NA,NA
b6922,shallow,flow.Sequence,5_0_1_0_4_1,NA,NA,skipped,NA,890714.5,NA,NA,890708.615,890714.5999999,2023-12-02T10:07:58Z,890725.32,NULL,Notfall,dharura,d,NA,NA,NA,NA,sdfdsf,NA,1,NA,NA,NA,NA,NA,NA,NA,NA,NA,NA,NA,NA,NA,NA,NA,NA,NA,NA,NA
b6922,task,flow.Sequence,5_0_1_0_4,NA,NA,completion,42166.525,848531.29999995,848525.437,848542.09,890708.615,890714.79999995,2023-12-02T10:07:58Z,890725.32,NULL,Notfall,dharura,d,NA,NA,NA,NA,sdfdsf,NA,1,NA,NA,NA,NA,NA,NA,NA,NA,NA,NA,NA,NA,NA,NA,NA,NA,NA,NA,NA
b6922,deep,flow.Sequence,5_0_1_0_5_0,NA,NA,skipped,NA,890715,NA,NA,890708.615,890715.0999999,2023-12-02T10:07:58Z,890725.32,NULL,Betrüger,mdanganyifu,s,mwanamuziki,wastani,mahakama,NA,sdfdsf,NA,1,NA,NA,NA,NA,NA,NA,NA,NA,NA,NA,NA,NA,NA,NA,NA,NA,NA,NA,NA
b6922,Shallow Question,html.Page,5_0_1_0_5_1_0,NA,NA,form submission,21581.080000095,890715.20000005,890708.615,890725.32,912306.4000001,912306.70000005,2023-12-02T10:08:20Z,912308.59,NULL,Betrüger,mdanganyifu,s,mwanamuziki,wastani,mahakama,mdanganyifu,NA,NA,1,NA,NA,NA,NA,NA,NA,NA,NA,NA,NA,NA,NA,NA,NA,NA,NA,NA,NA,NA
b6922,"""Richtig""-Screen",canvas.Screen,5_0_1_0_5_1_1,NA,NA,timeout,5000.076,912308.4000001,912292.067,912308.59,917292.159,917293,2023-12-02T10:08:25Z,917308.666,NULL,Betrüger,mdanganyifu,s,mwanamuziki,wastani,mahakama,NA,sdfdsf,1,1,NA,NA,NA,NA,NA,NA,NA,NA,NA,NA,NA,NA,NA,NA,NA,NA,NA,NA,NA
b6922,"""Falsch""-Screen",canvas.Screen,5_0_1_0_5_1_2,NA,NA,skipped,NA,917297.29999995,NA,NA,917292.159,917297.5,2023-12-02T10:08:25Z,917308.666,NULL,Betrüger,mdanganyifu,s,mwanamuziki,wastani,mahakama,NA,sdfdsf,NA,1,NA,NA,NA,NA,NA,NA,NA,NA,NA,NA,NA,NA,NA,NA,NA,NA,NA,NA,NA
b6922,shallow,flow.Sequence,5_0_1_0_5_1,NA,NA,completion,26566.839,890715.0999999,890708.615,890725.32,917292.159,917297.79999995,2023-12-02T10:08:25Z,917308.666,NULL,Betrüger,mdanganyifu,s,mwanamuziki,wastani,mahakama,NA,sdfdsf,NA,1,NA,NA,NA,NA,NA,NA,NA,NA,NA,NA,NA,NA,NA,NA,NA,NA,NA,NA,NA
b6922,task,flow.Sequence,5_0_1_0_5,NA,NA,completion,26566.839,890714.9000001,890708.615,890725.32,917292.159,917298,2023-12-02T10:08:25Z,917308.666,NULL,Betrüger,mdanganyifu,s,mwanamuziki,wastani,mahakama,NA,sdfdsf,NA,1,NA,NA,NA,NA,NA,NA,NA,NA,NA,NA,NA,NA,NA,NA,NA,NA,NA,NA,NA
b6922,Deep Question,html.Page,5_0_1_0_6_0_0,NA,NA,form submission,14566.234000095,917298.0999999,917292.159,917308.666,931874.9000001,931875.20000005,2023-12-02T10:08:40Z,931893.258,NULL,Respekt,heshima,d,NA,NA,NA,heshimba,NA,NA,1,NA,NA,NA,NA,NA,NA,NA,NA,NA,NA,NA,NA,NA,NA,NA,NA,NA,NA,NA
b6922,"""Richtig""-Screen",canvas.Screen,5_0_1_0_6_0_1,NA,NA,skipped,NA,931876.79999995,NA,NA,931874.9000001,931877,2023-12-02T10:08:40Z,931893.258,NULL,Respekt,heshima,d,NA,NA,NA,NA,sdfdsf,NA,1,NA,NA,NA,NA,NA,NA,NA,NA,NA,NA,NA,NA,NA,NA,NA,NA,NA,NA,NA
b6922,"""Falsch""-Screen",canvas.Screen,5_0_1_0_6_0_2,NA,NA,timeout,4998.841,931877.5,931858.748,931893.258,936875.41,936876.20000005,2023-12-02T10:08:45Z,936892.099,NULL,Respekt,heshima,d,NA,NA,NA,NA,sdfdsf,0,1,NA,NA,NA,NA,NA,NA,NA,NA,NA,NA,NA,NA,NA,NA,NA,NA,NA,NA,NA
b6922,deep,flow.Sequence,5_0_1_0_6_0,NA,NA,completion,19566.744,917298.0999999,917292.159,917308.666,936875.41,936876.5,2023-12-02T10:08:45Z,936892.099,NULL,Respekt,heshima,d,NA,NA,NA,NA,sdfdsf,NA,1,NA,NA,NA,NA,NA,NA,NA,NA,NA,NA,NA,NA,NA,NA,NA,NA,NA,NA,NA
b6922,shallow,flow.Sequence,5_0_1_0_6_1,NA,NA,skipped,NA,936876.5999999,NA,NA,936875.41,936876.70000005,2023-12-02T10:08:45Z,936892.099,NULL,Respekt,heshima,d,NA,NA,NA,NA,sdfdsf,NA,1,NA,NA,NA,NA,NA,NA,NA,NA,NA,NA,NA,NA,NA,NA,NA,NA,NA,NA,NA
b6922,task,flow.Sequence,5_0_1_0_6,NA,NA,completion,19566.744,917298,917292.159,917308.666,936875.41,936876.9000001,2023-12-02T10:08:45Z,936892.099,NULL,Respekt,heshima,d,NA,NA,NA,NA,sdfdsf,NA,1,NA,NA,NA,NA,NA,NA,NA,NA,NA,NA,NA,NA,NA,NA,NA,NA,NA,NA,NA
b6922,Deep Question,html.Page,5_0_1_0_7_0_0,NA,NA,form submission,13630.500999905,936877,936875.41,936892.099,950522.5999999,950522.70000005,2023-12-02T10:08:58Z,950525.233,NULL,Vergnügen,kichekesho,d,NA,NA,NA,kicheka,NA,NA,1,NA,NA,NA,NA,NA,NA,NA,NA,NA,NA,NA,NA,NA,NA,NA,NA,NA,NA,NA
b6922,"""Richtig""-Screen",canvas.Screen,5_0_1_0_7_0_1,NA,NA,skipped,NA,950524.5999999,NA,NA,950522.5999999,950524.70000005,2023-12-02T10:08:58Z,950525.233,NULL,Vergnügen,kichekesho,d,NA,NA,NA,NA,sdfdsf,NA,1,NA,NA,NA,NA,NA,NA,NA,NA,NA,NA,NA,NA,NA,NA,NA,NA,NA,NA,NA
b6922,"""Falsch""-Screen",canvas.Screen,5_0_1_0_7_0_2,NA,NA,timeout,5002.684,950525.29999995,950508.774,950525.233,955508.739,955509.5,2023-12-02T10:09:03Z,955527.917,NULL,Vergnügen,kichekesho,d,NA,NA,NA,NA,sdfdsf,0,1,NA,NA,NA,NA,NA,NA,NA,NA,NA,NA,NA,NA,NA,NA,NA,NA,NA,NA,NA
b6922,deep,flow.Sequence,5_0_1_0_7_0,NA,NA,completion,18616.64,936877,936875.41,936892.099,955508.739,955509.79999995,2023-12-02T10:09:03Z,955527.917,NULL,Vergnügen,kichekesho,d,NA,NA,NA,NA,sdfdsf,NA,1,NA,NA,NA,NA,NA,NA,NA,NA,NA,NA,NA,NA,NA,NA,NA,NA,NA,NA,NA
b6922,shallow,flow.Sequence,5_0_1_0_7_1,NA,NA,skipped,NA,955509.9000001,NA,NA,955508.739,955510,2023-12-02T10:09:03Z,955527.917,NULL,Vergnügen,kichekesho,d,NA,NA,NA,NA,sdfdsf,NA,1,NA,NA,NA,NA,NA,NA,NA,NA,NA,NA,NA,NA,NA,NA,NA,NA,NA,NA,NA
b6922,task,flow.Sequence,5_0_1_0_7,NA,NA,completion,18616.64,936876.9000001,936875.41,936892.099,955508.739,955510.20000005,2023-12-02T10:09:03Z,955527.917,NULL,Vergnügen,kichekesho,d,NA,NA,NA,NA,sdfdsf,NA,1,NA,NA,NA,NA,NA,NA,NA,NA,NA,NA,NA,NA,NA,NA,NA,NA,NA,NA,NA
b6922,block,flow.Loop,5_0_1_0,NA,NA,completion,245349.943,710147.5999999,710141.838,710158.796,955508.739,955510.29999995,2023-12-02T10:09:03Z,955527.917,NULL,NA,NA,NA,NA,NA,NA,NA,sdfdsf,NA,1,NA,NA,NA,NA,NA,NA,NA,NA,NA,NA,NA,NA,NA,NA,NA,NA,NA,NA,NA
b6922,weiter,canvas.Screen,5_0_1_1,sdf,keypress(Space),response,1713.583,955510.5,955508.739,955527.917,957241.5,957245.4000001,2023-12-02T10:09:05Z,957291.91,NULL,NA,NA,NA,NA,NA,NA,NA,sdfdsf,NA,1,NA,NA,NA,NA,NA,NA,NA,NA,NA,NA,NA,NA,NA,NA,NA,NA,NA,NA,NA
b6922,check continue,flow.Sequence,5_0_1,NA,NA,completion,247082.704,710147.5,710141.838,710158.796,957241.5,957245.79999995,2023-12-02T10:09:05Z,957291.91,NULL,NA,NA,NA,NA,NA,NA,NA,sdfdsf,NA,1,NA,NA,NA,NA,NA,NA,NA,NA,NA,NA,NA,NA,NA,NA,NA,NA,NA,NA,NA
b6922,Deep Question,html.Page,5_0_2_0_0_0_0,NA,NA,form submission,16751.189999905,957283.20000005,957275.433,957291.91,974043.0999999,974043.29999995,2023-12-02T10:09:22Z,974058.782,NULL,Vergnügen,kichekesho,d,NA,NA,NA,kichekesho,NA,NA,2,NA,NA,NA,NA,NA,NA,NA,NA,NA,NA,NA,NA,NA,NA,NA,NA,NA,NA,NA
b6922,"""Richtig""-Screen",canvas.Screen,5_0_2_0_0_0_1,NA,NA,timeout,5008.1040000001,974045,974042.132,974058.782,979042.073,979042.79999995,2023-12-02T10:09:27Z,979066.886,NULL,Vergnügen,kichekesho,d,NA,NA,NA,NA,sdf,1,2,NA,NA,NA,NA,NA,NA,NA,NA,NA,NA,NA,NA,NA,NA,NA,NA,NA,NA,NA
b6922,"""Falsch""-Screen",canvas.Screen,5_0_2_0_0_0_2,NA,NA,skipped,NA,979046.79999995,NA,NA,979042.073,979047.0999999,2023-12-02T10:09:27Z,979066.886,NULL,Vergnügen,kichekesho,d,NA,NA,NA,NA,sdf,NA,2,NA,NA,NA,NA,NA,NA,NA,NA,NA,NA,NA,NA,NA,NA,NA,NA,NA,NA,NA
b6922,deep,flow.Sequence,5_0_2_0_0_0,NA,NA,completion,21750.163,957283.20000005,957275.433,957291.91,979042.073,979047.20000005,2023-12-02T10:09:27Z,979066.886,NULL,Vergnügen,kichekesho,d,NA,NA,NA,NA,sdf,NA,2,NA,NA,NA,NA,NA,NA,NA,NA,NA,NA,NA,NA,NA,NA,NA,NA,NA,NA,NA
b6922,shallow,flow.Sequence,5_0_2_0_0_1,NA,NA,skipped,NA,979047.4000001,NA,NA,979042.073,979047.5,2023-12-02T10:09:27Z,979066.886,NULL,Vergnügen,kichekesho,d,NA,NA,NA,NA,sdf,NA,2,NA,NA,NA,NA,NA,NA,NA,NA,NA,NA,NA,NA,NA,NA,NA,NA,NA,NA,NA
b6922,task,flow.Sequence,5_0_2_0_0,NA,NA,completion,21750.163,957283.20000005,957275.433,957291.91,979042.073,979047.5999999,2023-12-02T10:09:27Z,979066.886,NULL,Vergnügen,kichekesho,d,NA,NA,NA,NA,sdf,NA,2,NA,NA,NA,NA,NA,NA,NA,NA,NA,NA,NA,NA,NA,NA,NA,NA,NA,NA,NA
b6922,deep,flow.Sequence,5_0_2_0_1_0,NA,NA,skipped,NA,979047.70000005,NA,NA,979042.073,979047.79999995,2023-12-02T10:09:27Z,979066.886,NULL,Betrüger,mdanganyifu,s,mwanamuziki,wastani,mahakama,NA,sdf,NA,2,NA,NA,NA,NA,NA,NA,NA,NA,NA,NA,NA,NA,NA,NA,NA,NA,NA,NA,NA
b6922,Shallow Question,html.Page,5_0_2_0_1_1_0,NA,NA,form submission,11175.713999905,979047.9000001,979042.073,979066.886,990242.5999999,990242.79999995,2023-12-02T10:09:38Z,990259.356,NULL,Betrüger,mdanganyifu,s,mwanamuziki,wastani,mahakama,mdanganyifu,NA,NA,2,NA,NA,NA,NA,NA,NA,NA,NA,NA,NA,NA,NA,NA,NA,NA,NA,NA,NA,NA
b6922,"""Richtig""-Screen",canvas.Screen,5_0_2_0_1_1_1,NA,NA,timeout,4999.4,990244.79999995,990225.402,990259.356,995242.029,995242.9000001,2023-12-02T10:09:43Z,995258.756,NULL,Betrüger,mdanganyifu,s,mwanamuziki,wastani,mahakama,NA,sdf,1,2,NA,NA,NA,NA,NA,NA,NA,NA,NA,NA,NA,NA,NA,NA,NA,NA,NA,NA,NA
b6922,"""Falsch""-Screen",canvas.Screen,5_0_2_0_1_1_2,NA,NA,skipped,NA,995247.20000005,NA,NA,995242.029,995247.5,2023-12-02T10:09:43Z,995258.756,NULL,Betrüger,mdanganyifu,s,mwanamuziki,wastani,mahakama,NA,sdf,NA,2,NA,NA,NA,NA,NA,NA,NA,NA,NA,NA,NA,NA,NA,NA,NA,NA,NA,NA,NA
b6922,shallow,flow.Sequence,5_0_2_0_1_1,NA,NA,completion,16175.143,979047.9000001,979042.073,979066.886,995242.029,995247.70000005,2023-12-02T10:09:43Z,995258.756,NULL,Betrüger,mdanganyifu,s,mwanamuziki,wastani,mahakama,NA,sdf,NA,2,NA,NA,NA,NA,NA,NA,NA,NA,NA,NA,NA,NA,NA,NA,NA,NA,NA,NA,NA
b6922,task,flow.Sequence,5_0_2_0_1,NA,NA,completion,16175.143,979047.70000005,979042.073,979066.886,995242.029,995247.9000001,2023-12-02T10:09:43Z,995258.756,NULL,Betrüger,mdanganyifu,s,mwanamuziki,wastani,mahakama,NA,sdf,NA,2,NA,NA,NA,NA,NA,NA,NA,NA,NA,NA,NA,NA,NA,NA,NA,NA,NA,NA,NA
b6922,deep,flow.Sequence,5_0_2_0_2_0,NA,NA,skipped,NA,995248,NA,NA,995242.029,995248.0999999,2023-12-02T10:09:43Z,995258.756,NULL,Wohlstand,mafanikio,s,chimbuko,kumbuko,mapwaji,NA,sdf,NA,2,NA,NA,NA,NA,NA,NA,NA,NA,NA,NA,NA,NA,NA,NA,NA,NA,NA,NA,NA
b6922,Shallow Question,html.Page,5_0_2_0_2_1_0,NA,NA,form submission,13943.744,995248.20000005,995242.029,995258.756,1009202.5,1009202.7,2023-12-02T10:09:57Z,1009208.552,NULL,Wohlstand,mafanikio,s,chimbuko,kumbuko,mapwaji,mafanikio,NA,NA,2,NA,NA,NA,NA,NA,NA,NA,NA,NA,NA,NA,NA,NA,NA,NA,NA,NA,NA,NA
b6922,"""Richtig""-Screen",canvas.Screen,5_0_2_0_2_1_1,NA,NA,timeout,5000.1039999999,1009204.4000001,1009192.06,1009208.552,1014192.115,1014193,2023-12-02T10:10:02Z,1014208.656,NULL,Wohlstand,mafanikio,s,chimbuko,kumbuko,mapwaji,NA,sdf,1,2,NA,NA,NA,NA,NA,NA,NA,NA,NA,NA,NA,NA,NA,NA,NA,NA,NA,NA,NA
b6922,"""Falsch""-Screen",canvas.Screen,5_0_2_0_2_1_2,NA,NA,skipped,NA,1014197.3,NA,NA,1014192.115,1014197.5,2023-12-02T10:10:02Z,1014208.656,NULL,Wohlstand,mafanikio,s,chimbuko,kumbuko,mapwaji,NA,sdf,NA,2,NA,NA,NA,NA,NA,NA,NA,NA,NA,NA,NA,NA,NA,NA,NA,NA,NA,NA,NA
b6922,shallow,flow.Sequence,5_0_2_0_2_1,NA,NA,completion,18933.359,995248.0999999,995242.029,995258.756,1014192.115,1014197.8,2023-12-02T10:10:02Z,1014208.656,NULL,Wohlstand,mafanikio,s,chimbuko,kumbuko,mapwaji,NA,sdf,NA,2,NA,NA,NA,NA,NA,NA,NA,NA,NA,NA,NA,NA,NA,NA,NA,NA,NA,NA,NA
b6922,task,flow.Sequence,5_0_2_0_2,NA,NA,completion,18933.359,995247.9000001,995242.029,995258.756,1014192.115,1014197.9000001,2023-12-02T10:10:02Z,1014208.656,NULL,Wohlstand,mafanikio,s,chimbuko,kumbuko,mapwaji,NA,sdf,NA,2,NA,NA,NA,NA,NA,NA,NA,NA,NA,NA,NA,NA,NA,NA,NA,NA,NA,NA,NA
b6922,Deep Question,html.Page,5_0_2_0_3_0_0,NA,NA,form submission,26498.044000048,1014198.0999999,1014192.115,1014208.656,1040706.7,1040706.9000001,2023-12-02T10:10:28Z,1040708.595,NULL,Orientierung,urekebisho,d,NA,NA,NA,urekseisho,NA,NA,2,NA,NA,NA,NA,NA,NA,NA,NA,NA,NA,NA,NA,NA,NA,NA,NA,NA,NA,NA
b6922,"""Richtig""-Screen",canvas.Screen,5_0_2_0_3_0_1,NA,NA,skipped,NA,1040708.7,NA,NA,1040706.7,1040708.8,2023-12-02T10:10:28Z,1040708.595,NULL,Orientierung,urekebisho,d,NA,NA,NA,NA,sdf,NA,2,NA,NA,NA,NA,NA,NA,NA,NA,NA,NA,NA,NA,NA,NA,NA,NA,NA,NA,NA
b6922,"""Falsch""-Screen",canvas.Screen,5_0_2_0_3_0_2,NA,NA,timeout,5000.174,1040709.4000001,1040692.081,1040708.595,1045691.996,1045692.7,2023-12-02T10:10:33Z,1045708.769,NULL,Orientierung,urekebisho,d,NA,NA,NA,NA,sdf,0,2,NA,NA,NA,NA,NA,NA,NA,NA,NA,NA,NA,NA,NA,NA,NA,NA,NA,NA,NA
b6922,deep,flow.Sequence,5_0_2_0_3_0,NA,NA,completion,31483.34,1014198,1014192.115,1014208.656,1045691.996,1045693.0999999,2023-12-02T10:10:33Z,1045708.769,NULL,Orientierung,urekebisho,d,NA,NA,NA,NA,sdf,NA,2,NA,NA,NA,NA,NA,NA,NA,NA,NA,NA,NA,NA,NA,NA,NA,NA,NA,NA,NA
b6922,shallow,flow.Sequence,5_0_2_0_3_1,NA,NA,skipped,NA,1045693.2,NA,NA,1045691.996,1045693.3,2023-12-02T10:10:33Z,1045708.769,NULL,Orientierung,urekebisho,d,NA,NA,NA,NA,sdf,NA,2,NA,NA,NA,NA,NA,NA,NA,NA,NA,NA,NA,NA,NA,NA,NA,NA,NA,NA,NA
b6922,task,flow.Sequence,5_0_2_0_3,NA,NA,completion,31483.34,1014198,1014192.115,1014208.656,1045691.996,1045693.4000001,2023-12-02T10:10:33Z,1045708.769,NULL,Orientierung,urekebisho,d,NA,NA,NA,NA,sdf,NA,2,NA,NA,NA,NA,NA,NA,NA,NA,NA,NA,NA,NA,NA,NA,NA,NA,NA,NA,NA
b6922,Deep Question,html.Page,5_0_2_0_4_0_0,NA,NA,form submission,9477.9310000477,1045693.5999999,1045691.996,1045708.769,1055186.7,1055186.9000001,2023-12-02T10:10:43Z,1055191.911,NULL,Notfall,dharura,d,NA,NA,NA,dharura,NA,NA,2,NA,NA,NA,NA,NA,NA,NA,NA,NA,NA,NA,NA,NA,NA,NA,NA,NA,NA,NA
b6922,"""Richtig""-Screen",canvas.Screen,5_0_2_0_4_0_1,NA,NA,timeout,5017.2619999999,1055188.7,1055175.381,1055191.911,1060175.395,1060177.8,2023-12-02T10:10:48Z,1060209.173,NULL,Notfall,dharura,d,NA,NA,NA,NA,sdf,1,2,NA,NA,NA,NA,NA,NA,NA,NA,NA,NA,NA,NA,NA,NA,NA,NA,NA,NA,NA
b6922,"""Falsch""-Screen",canvas.Screen,5_0_2_0_4_0_2,NA,NA,skipped,NA,1060181.9000001,NA,NA,1060175.395,1060182.2,2023-12-02T10:10:48Z,1060209.173,NULL,Notfall,dharura,d,NA,NA,NA,NA,sdf,NA,2,NA,NA,NA,NA,NA,NA,NA,NA,NA,NA,NA,NA,NA,NA,NA,NA,NA,NA,NA
b6922,deep,flow.Sequence,5_0_2_0_4_0,NA,NA,completion,14466.626,1045693.5999999,1045691.996,1045708.769,1060175.395,1060182.4000001,2023-12-02T10:10:48Z,1060209.173,NULL,Notfall,dharura,d,NA,NA,NA,NA,sdf,NA,2,NA,NA,NA,NA,NA,NA,NA,NA,NA,NA,NA,NA,NA,NA,NA,NA,NA,NA,NA
b6922,shallow,flow.Sequence,5_0_2_0_4_1,NA,NA,skipped,NA,1060182.4000001,NA,NA,1060175.395,1060182.5,2023-12-02T10:10:48Z,1060209.173,NULL,Notfall,dharura,d,NA,NA,NA,NA,sdf,NA,2,NA,NA,NA,NA,NA,NA,NA,NA,NA,NA,NA,NA,NA,NA,NA,NA,NA,NA,NA
b6922,task,flow.Sequence,5_0_2_0_4,NA,NA,completion,14466.626,1045693.5999999,1045691.996,1045708.769,1060175.395,1060182.7,2023-12-02T10:10:48Z,1060209.173,NULL,Notfall,dharura,d,NA,NA,NA,NA,sdf,NA,2,NA,NA,NA,NA,NA,NA,NA,NA,NA,NA,NA,NA,NA,NA,NA,NA,NA,NA,NA
b6922,deep,flow.Sequence,5_0_2_0_5_0,NA,NA,skipped,NA,1060182.8,NA,NA,1060175.395,1060182.9000001,2023-12-02T10:10:48Z,1060209.173,NULL,Stimmung,kinyongo,s,kilekile,kisambo,madhehebu,NA,sdf,NA,2,NA,NA,NA,NA,NA,NA,NA,NA,NA,NA,NA,NA,NA,NA,NA,NA,NA,NA,NA
b6922,Shallow Question,html.Page,5_0_2_0_5_1_0,NA,NA,form submission,10761.027000048,1060183,1060175.395,1060209.173,1070970.2,1070970.4000001,2023-12-02T10:10:59Z,1070975.244,NULL,Stimmung,kinyongo,s,kilekile,kisambo,madhehebu,kinyongo,NA,NA,2,NA,NA,NA,NA,NA,NA,NA,NA,NA,NA,NA,NA,NA,NA,NA,NA,NA,NA,NA
b6922,"""Richtig""-Screen",canvas.Screen,5_0_2_0_5_1_1,NA,NA,timeout,5000.1310000001,1070972.2,1070958.635,1070975.244,1075958.721,1075959.5999999,2023-12-02T10:11:04Z,1075975.375,NULL,Stimmung,kinyongo,s,kilekile,kisambo,madhehebu,NA,sdf,1,2,NA,NA,NA,NA,NA,NA,NA,NA,NA,NA,NA,NA,NA,NA,NA,NA,NA,NA,NA
b6922,"""Falsch""-Screen",canvas.Screen,5_0_2_0_5_1_2,NA,NA,skipped,NA,1075964.3,NA,NA,1075958.721,1075964.5,2023-12-02T10:11:04Z,1075975.375,NULL,Stimmung,kinyongo,s,kilekile,kisambo,madhehebu,NA,sdf,NA,2,NA,NA,NA,NA,NA,NA,NA,NA,NA,NA,NA,NA,NA,NA,NA,NA,NA,NA,NA
b6922,shallow,flow.Sequence,5_0_2_0_5_1,NA,NA,completion,15749.548,1060183,1060175.395,1060209.173,1075958.721,1075964.8,2023-12-02T10:11:04Z,1075975.375,NULL,Stimmung,kinyongo,s,kilekile,kisambo,madhehebu,NA,sdf,NA,2,NA,NA,NA,NA,NA,NA,NA,NA,NA,NA,NA,NA,NA,NA,NA,NA,NA,NA,NA
b6922,task,flow.Sequence,5_0_2_0_5,NA,NA,completion,15749.548,1060182.8,1060175.395,1060209.173,1075958.721,1075964.9000001,2023-12-02T10:11:04Z,1075975.375,NULL,Stimmung,kinyongo,s,kilekile,kisambo,madhehebu,NA,sdf,NA,2,NA,NA,NA,NA,NA,NA,NA,NA,NA,NA,NA,NA,NA,NA,NA,NA,NA,NA,NA
b6922,deep,flow.Sequence,5_0_2_0_6_0,NA,NA,skipped,NA,1075965,NA,NA,1075958.721,1075965.2,2023-12-02T10:11:04Z,1075975.375,NULL,Ergänzung,kijalizo,s,ulaghai,mustarehe,matangazo,NA,sdf,NA,2,NA,NA,NA,NA,NA,NA,NA,NA,NA,NA,NA,NA,NA,NA,NA,NA,NA,NA,NA
b6922,Shallow Question,html.Page,5_0_2_0_6_1_0,NA,NA,form submission,13707.025000095,1075965.2,1075958.721,1075975.375,1089682.4000001,1089682.7,2023-12-02T10:11:17Z,1089691.972,NULL,Ergänzung,kijalizo,s,ulaghai,mustarehe,matangazo,kijalizo,NA,NA,2,NA,NA,NA,NA,NA,NA,NA,NA,NA,NA,NA,NA,NA,NA,NA,NA,NA,NA,NA
b6922,"""Richtig""-Screen",canvas.Screen,5_0_2_0_6_1_1,NA,NA,timeout,5000.0789999999,1089684.7,1089675.273,1089691.972,1094675.375,1094676.4000001,2023-12-02T10:11:22Z,1094692.051,NULL,Ergänzung,kijalizo,s,ulaghai,mustarehe,matangazo,NA,sdf,1,2,NA,NA,NA,NA,NA,NA,NA,NA,NA,NA,NA,NA,NA,NA,NA,NA,NA,NA,NA
b6922,"""Falsch""-Screen",canvas.Screen,5_0_2_0_6_1_2,NA,NA,skipped,NA,1094680.3,NA,NA,1094675.375,1094680.5,2023-12-02T10:11:22Z,1094692.051,NULL,Ergänzung,kijalizo,s,ulaghai,mustarehe,matangazo,NA,sdf,NA,2,NA,NA,NA,NA,NA,NA,NA,NA,NA,NA,NA,NA,NA,NA,NA,NA,NA,NA,NA
b6922,shallow,flow.Sequence,5_0_2_0_6_1,NA,NA,completion,18700,1075965.2,1075958.721,1075975.375,1094675.375,1094680.8,2023-12-02T10:11:22Z,1094692.051,NULL,Ergänzung,kijalizo,s,ulaghai,mustarehe,matangazo,NA,sdf,NA,2,NA,NA,NA,NA,NA,NA,NA,NA,NA,NA,NA,NA,NA,NA,NA,NA,NA,NA,NA
b6922,task,flow.Sequence,5_0_2_0_6,NA,NA,completion,18700,1075965,1075958.721,1075975.375,1094675.375,1094681,2023-12-02T10:11:22Z,1094692.051,NULL,Ergänzung,kijalizo,s,ulaghai,mustarehe,matangazo,NA,sdf,NA,2,NA,NA,NA,NA,NA,NA,NA,NA,NA,NA,NA,NA,NA,NA,NA,NA,NA,NA,NA
b6922,Deep Question,html.Page,5_0_2_0_7_0_0,NA,NA,form submission,9670.449,1094681.0999999,1094675.375,1094692.051,1104362.5,1104362.8,2023-12-02T10:11:32Z,1104375.401,NULL,Respekt,heshima,d,NA,NA,NA,heshima,NA,NA,2,NA,NA,NA,NA,NA,NA,NA,NA,NA,NA,NA,NA,NA,NA,NA,NA,NA,NA,NA
b6922,"""Richtig""-Screen",canvas.Screen,5_0_2_0_7_0_1,NA,NA,timeout,5016.4299999999,1104364.5999999,1104358.755,1104375.401,1109358.718,1109359.5,2023-12-02T10:11:37Z,1109391.831,NULL,Respekt,heshima,d,NA,NA,NA,NA,sdf,1,2,NA,NA,NA,NA,NA,NA,NA,NA,NA,NA,NA,NA,NA,NA,NA,NA,NA,NA,NA
b6922,"""Falsch""-Screen",canvas.Screen,5_0_2_0_7_0_2,NA,NA,skipped,NA,1109363.7,NA,NA,1109358.718,1109363.9000001,2023-12-02T10:11:37Z,1109391.831,NULL,Respekt,heshima,d,NA,NA,NA,NA,sdf,NA,2,NA,NA,NA,NA,NA,NA,NA,NA,NA,NA,NA,NA,NA,NA,NA,NA,NA,NA,NA
b6922,deep,flow.Sequence,5_0_2_0_7_0,NA,NA,completion,14666.667,1094681,1094675.375,1094692.051,1109358.718,1109364.0999999,2023-12-02T10:11:37Z,1109391.831,NULL,Respekt,heshima,d,NA,NA,NA,NA,sdf,NA,2,NA,NA,NA,NA,NA,NA,NA,NA,NA,NA,NA,NA,NA,NA,NA,NA,NA,NA,NA
b6922,shallow,flow.Sequence,5_0_2_0_7_1,NA,NA,skipped,NA,1109364.3,NA,NA,1109358.718,1109364.5,2023-12-02T10:11:37Z,1109391.831,NULL,Respekt,heshima,d,NA,NA,NA,NA,sdf,NA,2,NA,NA,NA,NA,NA,NA,NA,NA,NA,NA,NA,NA,NA,NA,NA,NA,NA,NA,NA
b6922,task,flow.Sequence,5_0_2_0_7,NA,NA,completion,14666.667,1094681,1094675.375,1094692.051,1109358.718,1109364.5999999,2023-12-02T10:11:37Z,1109391.831,NULL,Respekt,heshima,d,NA,NA,NA,NA,sdf,NA,2,NA,NA,NA,NA,NA,NA,NA,NA,NA,NA,NA,NA,NA,NA,NA,NA,NA,NA,NA
b6922,block,flow.Loop,5_0_2_0,NA,NA,completion,152066.808,957283.20000005,957275.433,957291.91,1109358.718,1109364.8,2023-12-02T10:11:37Z,1109391.831,NULL,NA,NA,NA,NA,NA,NA,NA,sdf,NA,2,NA,NA,NA,NA,NA,NA,NA,NA,NA,NA,NA,NA,NA,NA,NA,NA,NA,NA,NA
b6922,weiter,canvas.Screen,5_0_2_1,sdf,keypress(Space),response,1193.669,1109364.9000001,1109358.718,1109391.831,1110585.5,1110586.5999999,2023-12-02T10:11:38Z,1111008.559,NULL,NA,NA,NA,NA,NA,NA,NA,sdf,NA,2,NA,NA,NA,NA,NA,NA,NA,NA,NA,NA,NA,NA,NA,NA,NA,NA,NA,NA,NA
b6922,check continue,flow.Sequence,5_0_2,NA,NA,completion,153293.59,957283.0999999,957275.433,957291.91,1110585.5,1110586.8,2023-12-02T10:11:38Z,1111008.559,NULL,NA,NA,NA,NA,NA,NA,NA,sdf,NA,2,NA,NA,NA,NA,NA,NA,NA,NA,NA,NA,NA,NA,NA,NA,NA,NA,NA,NA,NA
b6922,check continue,flow.Sequence,5_0_3,NA,NA,skipped,NA,1110630.2,NA,NA,1110585.5,1110630.3,2023-12-02T10:11:38Z,1111008.559,NULL,NA,NA,NA,NA,NA,NA,NA,qt,NA,3,NA,NA,NA,NA,NA,NA,NA,NA,NA,NA,NA,NA,NA,NA,NA,NA,NA,NA,NA
b6922,check continue,flow.Sequence,5_0_4,NA,NA,skipped,NA,1110649.2,NA,NA,1110585.5,1110649.2,2023-12-02T10:11:38Z,1111008.559,NULL,NA,NA,NA,NA,NA,NA,NA,sd,NA,4,NA,NA,NA,NA,NA,NA,NA,NA,NA,NA,NA,NA,NA,NA,NA,NA,NA,NA,NA
b6922,check continue,flow.Sequence,5_0_5,NA,NA,skipped,NA,1110664.3,NA,NA,1110585.5,1110664.4000001,2023-12-02T10:11:38Z,1111008.559,NULL,NA,NA,NA,NA,NA,NA,NA,sdf,NA,5,NA,NA,NA,NA,NA,NA,NA,NA,NA,NA,NA,NA,NA,NA,NA,NA,NA,NA,NA
b6922,check continue,flow.Sequence,5_0_6,NA,NA,skipped,NA,1110678.2,NA,NA,1110585.5,1110678.3,2023-12-02T10:11:38Z,1111008.559,NULL,NA,NA,NA,NA,NA,NA,NA,dfs,NA,6,NA,NA,NA,NA,NA,NA,NA,NA,NA,NA,NA,NA,NA,NA,NA,NA,NA,NA,NA
b6922,check continue,flow.Sequence,5_0_7,NA,NA,skipped,NA,1110691.3,NA,NA,1110585.5,1110691.3,2023-12-02T10:11:38Z,1111008.559,NULL,NA,NA,NA,NA,NA,NA,NA,df,NA,7,NA,NA,NA,NA,NA,NA,NA,NA,NA,NA,NA,NA,NA,NA,NA,NA,NA,NA,NA
b6922,check continue,flow.Sequence,5_0_8,NA,NA,skipped,NA,1110704.3,NA,NA,1110585.5,1110704.4000001,2023-12-02T10:11:38Z,1111008.559,NULL,NA,NA,NA,NA,NA,NA,NA,dfs,NA,8,NA,NA,NA,NA,NA,NA,NA,NA,NA,NA,NA,NA,NA,NA,NA,NA,NA,NA,NA
b6922,check continue,flow.Sequence,5_0_9,NA,NA,skipped,NA,1110717,NA,NA,1110585.5,1110717.0999999,2023-12-02T10:11:38Z,1111008.559,NULL,NA,NA,NA,NA,NA,NA,NA,dsf,NA,9,NA,NA,NA,NA,NA,NA,NA,NA,NA,NA,NA,NA,NA,NA,NA,NA,NA,NA,NA
b6922,check continue,flow.Sequence,5_0_10,NA,NA,skipped,NA,1110730.0999999,NA,NA,1110585.5,1110730.0999999,2023-12-02T10:11:38Z,1111008.559,NULL,NA,NA,NA,NA,NA,NA,NA,df,NA,10,NA,NA,NA,NA,NA,NA,NA,NA,NA,NA,NA,NA,NA,NA,NA,NA,NA,NA,NA
b6922,check continue,flow.Sequence,5_0_11,NA,NA,skipped,NA,1110742.5,NA,NA,1110585.5,1110742.7,2023-12-02T10:11:38Z,1111008.559,NULL,NA,NA,NA,NA,NA,NA,NA,dfs,NA,11,NA,NA,NA,NA,NA,NA,NA,NA,NA,NA,NA,NA,NA,NA,NA,NA,NA,NA,NA
b6922,check continue,flow.Sequence,5_0_12,NA,NA,skipped,NA,1110754.8,NA,NA,1110585.5,1110754.9000001,2023-12-02T10:11:39Z,1111008.559,NULL,NA,NA,NA,NA,NA,NA,NA,dsf,NA,12,NA,NA,NA,NA,NA,NA,NA,NA,NA,NA,NA,NA,NA,NA,NA,NA,NA,NA,NA
b6922,check continue,flow.Sequence,5_0_13,NA,NA,skipped,NA,1110767.2,NA,NA,1110585.5,1110767.3,2023-12-02T10:11:39Z,1111008.559,NULL,NA,NA,NA,NA,NA,NA,NA,dsf,NA,13,NA,NA,NA,NA,NA,NA,NA,NA,NA,NA,NA,NA,NA,NA,NA,NA,NA,NA,NA
b6922,check continue,flow.Sequence,5_0_14,NA,NA,skipped,NA,1110779.4000001,NA,NA,1110585.5,1110779.4000001,2023-12-02T10:11:39Z,1111008.559,NULL,NA,NA,NA,NA,NA,NA,NA,NA,NA,14,NA,NA,NA,NA,NA,NA,NA,NA,NA,NA,NA,NA,NA,NA,NA,NA,NA,NA,NA
b6922,check continue,flow.Sequence,5_0_15,NA,NA,skipped,NA,1110791.4000001,NA,NA,1110585.5,1110791.5,2023-12-02T10:11:39Z,1111008.559,NULL,NA,NA,NA,NA,NA,NA,NA,NA,NA,15,NA,NA,NA,NA,NA,NA,NA,NA,NA,NA,NA,NA,NA,NA,NA,NA,NA,NA,NA
b6922,check continue,flow.Sequence,5_0_16,NA,NA,skipped,NA,1110803.7,NA,NA,1110585.5,1110803.7,2023-12-02T10:11:39Z,1111008.559,NULL,NA,NA,NA,NA,NA,NA,NA,NA,NA,16,NA,NA,NA,NA,NA,NA,NA,NA,NA,NA,NA,NA,NA,NA,NA,NA,NA,NA,NA
b6922,check continue,flow.Sequence,5_0_17,NA,NA,skipped,NA,1110815.4000001,NA,NA,1110585.5,1110815.5,2023-12-02T10:11:39Z,1111008.559,NULL,NA,NA,NA,NA,NA,NA,NA,NA,NA,17,NA,NA,NA,NA,NA,NA,NA,NA,NA,NA,NA,NA,NA,NA,NA,NA,NA,NA,NA
b6922,check continue,flow.Sequence,5_0_18,NA,NA,skipped,NA,1110828.5999999,NA,NA,1110585.5,1110828.7,2023-12-02T10:11:39Z,1111008.559,NULL,NA,NA,NA,NA,NA,NA,NA,NA,NA,18,NA,NA,NA,NA,NA,NA,NA,NA,NA,NA,NA,NA,NA,NA,NA,NA,NA,NA,NA
b6922,check continue,flow.Sequence,5_0_19,NA,NA,skipped,NA,1110840.2,NA,NA,1110585.5,1110840.3,2023-12-02T10:11:39Z,1111008.559,NULL,NA,NA,NA,NA,NA,NA,NA,NA,NA,19,NA,NA,NA,NA,NA,NA,NA,NA,NA,NA,NA,NA,NA,NA,NA,NA,NA,NA,NA
b6922,check continue,flow.Sequence,5_0_20,NA,NA,skipped,NA,1110853.5999999,NA,NA,1110585.5,1110853.7,2023-12-02T10:11:39Z,1111008.559,NULL,NA,NA,NA,NA,NA,NA,NA,NA,NA,20,NA,NA,NA,NA,NA,NA,NA,NA,NA,NA,NA,NA,NA,NA,NA,NA,NA,NA,NA
b6922,check continue,flow.Sequence,5_0_21,NA,NA,skipped,NA,1110864.4000001,NA,NA,1110585.5,1110864.4000001,2023-12-02T10:11:39Z,1111008.559,NULL,NA,NA,NA,NA,NA,NA,NA,NA,NA,21,NA,NA,NA,NA,NA,NA,NA,NA,NA,NA,NA,NA,NA,NA,NA,NA,NA,NA,NA
b6922,check continue,flow.Sequence,5_0_22,NA,NA,skipped,NA,1110883.4000001,NA,NA,1110585.5,1110883.5999999,2023-12-02T10:11:39Z,1111008.559,NULL,NA,NA,NA,NA,NA,NA,NA,NA,NA,22,NA,NA,NA,NA,NA,NA,NA,NA,NA,NA,NA,NA,NA,NA,NA,NA,NA,NA,NA
b6922,check continue,flow.Sequence,5_0_23,NA,NA,skipped,NA,1110907.8,NA,NA,1110585.5,1110907.9000001,2023-12-02T10:11:39Z,1111008.559,NULL,NA,NA,NA,NA,NA,NA,NA,NA,NA,23,NA,NA,NA,NA,NA,NA,NA,NA,NA,NA,NA,NA,NA,NA,NA,NA,NA,NA,NA
b6922,check continue,flow.Sequence,5_0_24,NA,NA,skipped,NA,1110921.8,NA,NA,1110585.5,1110921.9000001,2023-12-02T10:11:39Z,1111008.559,NULL,NA,NA,NA,NA,NA,NA,NA,NA,NA,24,NA,NA,NA,NA,NA,NA,NA,NA,NA,NA,NA,NA,NA,NA,NA,NA,NA,NA,NA
b6922,check continue,flow.Sequence,5_0_25,NA,NA,skipped,NA,1110937.0999999,NA,NA,1110585.5,1110937.2,2023-12-02T10:11:39Z,1111008.559,NULL,NA,NA,NA,NA,NA,NA,NA,NA,NA,25,NA,NA,NA,NA,NA,NA,NA,NA,NA,NA,NA,NA,NA,NA,NA,NA,NA,NA,NA
b6922,check continue,flow.Sequence,5_0_26,NA,NA,skipped,NA,1110961.4000001,NA,NA,1110585.5,1110961.7,2023-12-02T10:11:39Z,1111008.559,NULL,NA,NA,NA,NA,NA,NA,NA,NA,NA,26,NA,NA,NA,NA,NA,NA,NA,NA,NA,NA,NA,NA,NA,NA,NA,NA,NA,NA,NA
b6922,check continue,flow.Sequence,5_0_27,NA,NA,skipped,NA,1110981.9000001,NA,NA,1110585.5,1110982,2023-12-02T10:11:39Z,1111008.559,NULL,NA,NA,NA,NA,NA,NA,NA,NA,NA,27,NA,NA,NA,NA,NA,NA,NA,NA,NA,NA,NA,NA,NA,NA,NA,NA,NA,NA,NA
b6922,check continue,flow.Sequence,5_0_28,NA,NA,skipped,NA,1110993.2,NA,NA,1110585.5,1110993.4000001,2023-12-02T10:11:39Z,1111008.559,NULL,NA,NA,NA,NA,NA,NA,NA,NA,NA,28,NA,NA,NA,NA,NA,NA,NA,NA,NA,NA,NA,NA,NA,NA,NA,NA,NA,NA,NA
b6922,check continue,flow.Sequence,5_0_29,NA,NA,skipped,NA,1111005.4000001,NA,NA,1110585.5,1111005.5,2023-12-02T10:11:39Z,1111008.559,NULL,NA,NA,NA,NA,NA,NA,NA,NA,NA,29,NA,NA,NA,NA,NA,NA,NA,NA,NA,NA,NA,NA,NA,NA,NA,NA,NA,NA,NA
b6922,until continue,flow.Loop,5_0,NA,NA,completion,491510.09,619049.5999999,619057.72,619075.41,1110585.5,1111005.5,2023-12-02T10:11:39Z,1111008.559,NULL,NA,NA,NA,NA,NA,NA,NA,NA,NA,NA,NA,NA,NA,NA,NA,NA,NA,NA,NA,NA,NA,NA,NA,NA,NA,NA,NA,NA,NA
b6922,block 2,flow.Sequence,5,NA,NA,completion,491510.09,619049.5999999,619057.72,619075.41,1110585.5,1111005.5999999,2023-12-02T10:11:39Z,1111008.559,NULL,NA,NA,NA,NA,NA,NA,NA,NA,NA,NA,NA,NA,NA,NA,NA,NA,NA,NA,NA,NA,NA,NA,NA,NA,NA,NA,NA,NA,NA
b6922,2.Part Over,canvas.Screen,6,NA,keypress(Space),response,14809.540999905,1111005.5999999,1110991.897,1111008.559,1125818.0999999,1125819,2023-12-02T10:11:54Z,1125891.914,NULL,NA,NA,NA,NA,NA,NA,NA,NA,NA,NA,NA,NA,NA,NA,NA,NA,NA,NA,NA,NA,NA,NA,NA,NA,NA,NA,NA,NA,NA
b6922,deep,flow.Sequence,7_0_0_0_0_0,NA,NA,skipped,NA,1125888.8,NA,NA,1125818.0999999,1125888.9000001,2023-12-02T10:11:54Z,1125891.914,NULL,Spionage,upelelezi,s,maslahi,utokazo,magangao,NA,sdf,NA,0,NA,NA,NA,NA,NA,NA,NA,NA,NA,NA,NA,NA,NA,NA,NA,NA,NA,NA,NA
b6922,Shallow Question,html.Page,7_0_0_0_0_1_0,NA,NA,form submission,6654.7860000476,1125888.9000001,1125874.713,1125891.914,1132546.7,1132546.9000001,2023-12-02T10:12:00Z,1132558.755,NULL,Spionage,upelelezi,s,maslahi,utokazo,magangao,upelelezi,NA,NA,0,NA,NA,NA,NA,NA,NA,NA,NA,NA,NA,NA,NA,NA,NA,NA,NA,NA,NA,NA
b6922,"""Richtig""-Screen",canvas.Screen,7_0_0_0_0_1_1,NA,NA,timeout,4999.9800000002,1132549,1132542.016,1132558.755,1137542.05,1137543,2023-12-02T10:12:05Z,1137558.735,NULL,Spionage,upelelezi,s,maslahi,utokazo,magangao,NA,sdf,1,0,NA,NA,NA,NA,NA,NA,NA,NA,NA,NA,NA,NA,NA,NA,NA,NA,NA,NA,NA
b6922,"""Falsch""-Screen",canvas.Screen,7_0_0_0_0_1_2,NA,NA,skipped,NA,1137547.7,NA,NA,1137542.05,1137548,2023-12-02T10:12:05Z,1137558.735,NULL,Spionage,upelelezi,s,maslahi,utokazo,magangao,NA,sdf,NA,0,NA,NA,NA,NA,NA,NA,NA,NA,NA,NA,NA,NA,NA,NA,NA,NA,NA,NA,NA
b6922,shallow,flow.Sequence,7_0_0_0_0_1,NA,NA,completion,11650.136,1125888.9000001,1125874.713,1125891.914,1137542.05,1137548.3,2023-12-02T10:12:05Z,1137558.735,NULL,Spionage,upelelezi,s,maslahi,utokazo,magangao,NA,sdf,NA,0,NA,NA,NA,NA,NA,NA,NA,NA,NA,NA,NA,NA,NA,NA,NA,NA,NA,NA,NA
b6922,task,flow.Sequence,7_0_0_0_0,NA,NA,completion,11650.136,1125888.8,1125874.713,1125891.914,1137542.05,1137548.5,2023-12-02T10:12:05Z,1137558.735,NULL,Spionage,upelelezi,s,maslahi,utokazo,magangao,NA,sdf,NA,0,NA,NA,NA,NA,NA,NA,NA,NA,NA,NA,NA,NA,NA,NA,NA,NA,NA,NA,NA
b6922,Deep Question,html.Page,7_0_0_0_1_0_0,NA,NA,form submission,4331.8649999045,1137548.7,1137542.05,1137558.735,1141890.5999999,1141890.8,2023-12-02T10:12:10Z,1141908.734,NULL,Niveau,kiwango,d,NA,NA,NA,kwsoso,NA,NA,0,NA,NA,NA,NA,NA,NA,NA,NA,NA,NA,NA,NA,NA,NA,NA,NA,NA,NA,NA
b6922,"""Richtig""-Screen",canvas.Screen,7_0_0_0_1_0_1,NA,NA,skipped,NA,1141892.7,NA,NA,1141890.5999999,1141892.8,2023-12-02T10:12:10Z,1141908.734,NULL,Niveau,kiwango,d,NA,NA,NA,NA,sdf,NA,0,NA,NA,NA,NA,NA,NA,NA,NA,NA,NA,NA,NA,NA,NA,NA,NA,NA,NA,NA
b6922,"""Falsch""-Screen",canvas.Screen,7_0_0_0_1_0_2,NA,NA,timeout,5000.004,1141893.5999999,1141891.935,1141908.734,1146892.057,1146892.9000001,2023-12-02T10:12:15Z,1146908.738,NULL,Niveau,kiwango,d,NA,NA,NA,NA,sdf,0,0,NA,NA,NA,NA,NA,NA,NA,NA,NA,NA,NA,NA,NA,NA,NA,NA,NA,NA,NA
b6922,deep,flow.Sequence,7_0_0_0_1_0,NA,NA,completion,9333.3219999999,1137548.5999999,1137542.05,1137558.735,1146892.057,1146893.2,2023-12-02T10:12:15Z,1146908.738,NULL,Niveau,kiwango,d,NA,NA,NA,NA,sdf,NA,0,NA,NA,NA,NA,NA,NA,NA,NA,NA,NA,NA,NA,NA,NA,NA,NA,NA,NA,NA
