observation,sender,sender_type,sender_id,response,response_action,ended_on,duration,time_run,time_render,time_show,time_end,time_commit,timestamp,time_switch,distractors,german,swahili,enc,distractor1,distractor2,distractor3,response_2,x,correct,x_2,url_vp,url_sess,meta_labjs_version,meta_location,meta_user_agent,meta_platform,meta_language,meta_locale,meta_time_zone,meta_timezone_offset,meta_screen_width,meta_screen_height,meta_scroll_width,meta_scroll_height,meta_window_inner_width,meta_window_inner_height,meta_device_pixel_ratio,meta_labjs_build_flavor,meta_labjs_build_commit
21523,Introduction general,canvas.Screen,0,weiter,keypress(q),response,322432.25999998,1114.7999999523,1046.994,1113.64,323545.89999998,323547.69999993,2023-11-11T10:17:22Z,323563.683,NULL,NA,NA,NA,NA,NA,NA,NA,NA,NA,NA,151,1,20.2.4,https://neurocog.fernuni.ch/studies/vweber/jbaenninger/encoding_immediate/index.html?vp=151&sess=1,"Mozilla/5.0 (Windows NT 10.0; Win64; x64) AppleWebKit/537.36 (KHTML, like Gecko) Chrome/119.0.0.0 Safari/537.36 Edg/119.0.0.0",Win32,de,de-CH,Europe/Zurich,-60,1920,1080,1872,910,1872,958,1,production,f5b4a49f956347addd546a832a3327688c2c0fef
21523,Introduction practice,canvas.Screen,1_0,NA,keypress(Space),response,10914.817,323547.89999998,323530.169,323563.683,334478.5,334478.89999998,2023-11-11T10:17:33Z,334496.979,NULL,NA,NA,NA,NA,NA,NA,NA,NA,NA,NA,NA,NA,NA,NA,NA,NA,NA,NA,NA,NA,NA,NA,NA,NA,NA,NA,NA,NA,NA
21523,Deep Question,html.Page,1_1_0_0_0,NA,NA,form submission,18496.320999952,334479.10000002,334480.257,334496.979,352993.29999995,352993.5,2023-11-11T10:17:52Z,352996.754,"c(""distractor1"", ""distractor2"", ""distractor3"")",Schatten,kivuli,d,NA,NA,NA,B,NA,NA,NA,NA,NA,NA,NA,NA,NA,NA,NA,NA,NA,NA,NA,NA,NA,NA,NA,NA,NA,NA
21523,"""Richtig""-Screen",canvas.Screen,1_1_0_0_1,NA,NA,skipped,NA,352994.29999995,NA,NA,352993.29999995,352994.5,2023-11-11T10:17:52Z,352996.754,"c(""distractor1"", ""distractor2"", ""distractor3"")",Schatten,kivuli,d,NA,NA,NA,NA,NA,NA,NA,NA,NA,NA,NA,NA,NA,NA,NA,NA,NA,NA,NA,NA,NA,NA,NA,NA,NA,NA
21523,"""Falsch""-Screen",canvas.Screen,1_1_0_0_2,NA,NA,timeout,5000.336,352995.19999993,352980.307,352996.754,357980.321,357982.69999993,2023-11-11T10:17:57Z,357997.09,"c(""distractor1"", ""distractor2"", ""distractor3"")",Schatten,kivuli,d,NA,NA,NA,NA,NA,0,NA,NA,NA,NA,NA,NA,NA,NA,NA,NA,NA,NA,NA,NA,NA,NA,NA,NA,NA,NA
21523,deep,flow.Sequence,1_1_0_0,NA,NA,completion,23483.342,334479.10000002,334480.257,334496.979,357980.321,357982.79999995,2023-11-11T10:17:57Z,357997.09,"c(""distractor1"", ""distractor2"", ""distractor3"")",Schatten,kivuli,d,NA,NA,NA,NA,NA,NA,NA,NA,NA,NA,NA,NA,NA,NA,NA,NA,NA,NA,NA,NA,NA,NA,NA,NA,NA,NA
21523,shallow,flow.Sequence,1_1_0_1,NA,NA,skipped,NA,357982.79999995,NA,NA,357980.321,357982.89999998,2023-11-11T10:17:57Z,357997.09,"c(""distractor1"", ""distractor2"", ""distractor3"")",Schatten,kivuli,d,NA,NA,NA,NA,NA,NA,NA,NA,NA,NA,NA,NA,NA,NA,NA,NA,NA,NA,NA,NA,NA,NA,NA,NA,NA,NA
21523,task,flow.Sequence,1_1_0,NA,NA,completion,23483.342,334479.10000002,334480.257,334496.979,357980.321,357982.89999998,2023-11-11T10:17:57Z,357997.09,"c(""distractor1"", ""distractor2"", ""distractor3"")",Schatten,kivuli,d,NA,NA,NA,NA,NA,NA,NA,NA,NA,NA,NA,NA,NA,NA,NA,NA,NA,NA,NA,NA,NA,NA,NA,NA,NA,NA
21523,deep,flow.Sequence,1_1_1_0,NA,NA,skipped,NA,357982.89999998,NA,NA,357980.321,357983,2023-11-11T10:17:57Z,357997.09,"c(""distractor1"", ""distractor2"", ""distractor3"")",Kritik,lawama,s,dereva,nafasi,mawazo,NA,NA,NA,NA,NA,NA,NA,NA,NA,NA,NA,NA,NA,NA,NA,NA,NA,NA,NA,NA,NA,NA,NA
21523,Shallow Question,html.Page,1_1_1_1_0,NA,NA,form submission,12498.709999952,357983,357980.321,357997.09,370495.79999995,370496.10000002,2023-11-11T10:18:09Z,370513.782,"c(""distractor1"", ""distractor2"", ""distractor3"")",Kritik,lawama,s,dereva,nafasi,mawazo,nafasi,NA,NA,NA,NA,NA,NA,NA,NA,NA,NA,NA,NA,NA,NA,NA,NA,NA,NA,NA,NA,NA,NA
21523,"""Richtig""-Screen",canvas.Screen,1_1_1_1_1,NA,NA,skipped,NA,370497.5,NA,NA,370495.79999995,370497.5,2023-11-11T10:18:09Z,370513.782,"c(""distractor1"", ""distractor2"", ""distractor3"")",Kritik,lawama,s,dereva,nafasi,mawazo,NA,NA,NA,NA,NA,NA,NA,NA,NA,NA,NA,NA,NA,NA,NA,NA,NA,NA,NA,NA,NA,NA,NA
21523,"""Falsch""-Screen",canvas.Screen,1_1_1_1_2,NA,NA,timeout,4999.726,370498.19999993,370496.785,370513.782,375496.86,375498.29999995,2023-11-11T10:18:14Z,375513.508,"c(""distractor1"", ""distractor2"", ""distractor3"")",Kritik,lawama,s,dereva,nafasi,mawazo,NA,NA,0,NA,NA,NA,NA,NA,NA,NA,NA,NA,NA,NA,NA,NA,NA,NA,NA,NA,NA,NA,NA
21523,shallow,flow.Sequence,1_1_1_1,NA,NA,completion,17499.77,357983,357980.321,357997.09,375496.86,375498.5,2023-11-11T10:18:14Z,375513.508,"c(""distractor1"", ""distractor2"", ""distractor3"")",Kritik,lawama,s,dereva,nafasi,mawazo,NA,NA,NA,NA,NA,NA,NA,NA,NA,NA,NA,NA,NA,NA,NA,NA,NA,NA,NA,NA,NA,NA,NA
21523,task,flow.Sequence,1_1_1,NA,NA,completion,17499.77,357982.89999998,357980.321,357997.09,375496.86,375498.60000002,2023-11-11T10:18:14Z,375513.508,"c(""distractor1"", ""distractor2"", ""distractor3"")",Kritik,lawama,s,dereva,nafasi,mawazo,NA,NA,NA,NA,NA,NA,NA,NA,NA,NA,NA,NA,NA,NA,NA,NA,NA,NA,NA,NA,NA,NA,NA
21523,deep,flow.Sequence,1_1_2_0,NA,NA,skipped,NA,375498.60000002,NA,NA,375496.86,375498.60000002,2023-11-11T10:18:14Z,375513.508,"c(""distractor1"", ""distractor2"", ""distractor3"")",Gegenwart,hadhara,s,katiba,jokofu,mikopo,NA,NA,NA,NA,NA,NA,NA,NA,NA,NA,NA,NA,NA,NA,NA,NA,NA,NA,NA,NA,NA,NA,NA
21523,Shallow Question,html.Page,1_1_2_1_0,NA,NA,form submission,7806.8919999762,375498.60000002,375496.86,375513.508,383320.39999998,383320.60000002,2023-11-11T10:18:22Z,383330.123,"c(""distractor1"", ""distractor2"", ""distractor3"")",Gegenwart,hadhara,s,katiba,jokofu,mikopo,hadhara,NA,NA,NA,NA,NA,NA,NA,NA,NA,NA,NA,NA,NA,NA,NA,NA,NA,NA,NA,NA,NA,NA
21523,"""Richtig""-Screen",canvas.Screen,1_1_2_1_1,NA,NA,timeout,5000.037,383321.69999993,383313.531,383330.123,388313.512,388314.60000002,2023-11-11T10:18:27Z,388330.16,"c(""distractor1"", ""distractor2"", ""distractor3"")",Gegenwart,hadhara,s,katiba,jokofu,mikopo,NA,NA,1,NA,NA,NA,NA,NA,NA,NA,NA,NA,NA,NA,NA,NA,NA,NA,NA,NA,NA,NA,NA
21523,"""Falsch""-Screen",canvas.Screen,1_1_2_1_2,NA,NA,skipped,NA,388315.79999995,NA,NA,388313.512,388315.79999995,2023-11-11T10:18:27Z,388330.16,"c(""distractor1"", ""distractor2"", ""distractor3"")",Gegenwart,hadhara,s,katiba,jokofu,mikopo,NA,NA,NA,NA,NA,NA,NA,NA,NA,NA,NA,NA,NA,NA,NA,NA,NA,NA,NA,NA,NA,NA,NA
21523,shallow,flow.Sequence,1_1_2_1,NA,NA,completion,12800.004,375498.60000002,375496.86,375513.508,388313.512,388315.79999995,2023-11-11T10:18:27Z,388330.16,"c(""distractor1"", ""distractor2"", ""distractor3"")",Gegenwart,hadhara,s,katiba,jokofu,mikopo,NA,NA,NA,NA,NA,NA,NA,NA,NA,NA,NA,NA,NA,NA,NA,NA,NA,NA,NA,NA,NA,NA,NA
21523,task,flow.Sequence,1_1_2,NA,NA,completion,12800.004,375498.60000002,375496.86,375513.508,388313.512,388315.89999998,2023-11-11T10:18:27Z,388330.16,"c(""distractor1"", ""distractor2"", ""distractor3"")",Gegenwart,hadhara,s,katiba,jokofu,mikopo,NA,NA,NA,NA,NA,NA,NA,NA,NA,NA,NA,NA,NA,NA,NA,NA,NA,NA,NA,NA,NA,NA,NA
21523,Deep Question,html.Page,1_1_3_0_0,NA,NA,form submission,5737.7399999762,388316,388313.512,388330.16,394067.89999998,394068,2023-11-11T10:18:33Z,394080.128,"c(""distractor1"", ""distractor2"", ""distractor3"")",Gesundheit,salama,d,NA,NA,NA,Suku,NA,NA,NA,NA,NA,NA,NA,NA,NA,NA,NA,NA,NA,NA,NA,NA,NA,NA,NA,NA,NA,NA
21523,"""Richtig""-Screen",canvas.Screen,1_1_3_0_1,NA,NA,skipped,NA,394069.10000002,NA,NA,394067.89999998,394069.19999993,2023-11-11T10:18:33Z,394080.128,"c(""distractor1"", ""distractor2"", ""distractor3"")",Gesundheit,salama,d,NA,NA,NA,NA,NA,NA,NA,NA,NA,NA,NA,NA,NA,NA,NA,NA,NA,NA,NA,NA,NA,NA,NA,NA,NA,NA
21523,"""Falsch""-Screen",canvas.Screen,1_1_3_0_2,NA,NA,timeout,5000.144,394069.60000002,394063.756,394080.128,399063.791,399065.79999995,2023-11-11T10:18:38Z,399080.272,"c(""distractor1"", ""distractor2"", ""distractor3"")",Gesundheit,salama,d,NA,NA,NA,NA,NA,0,NA,NA,NA,NA,NA,NA,NA,NA,NA,NA,NA,NA,NA,NA,NA,NA,NA,NA,NA,NA
21523,deep,flow.Sequence,1_1_3_0,NA,NA,completion,10733.631,388316,388313.512,388330.16,399063.791,399065.79999995,2023-11-11T10:18:38Z,399080.272,"c(""distractor1"", ""distractor2"", ""distractor3"")",Gesundheit,salama,d,NA,NA,NA,NA,NA,NA,NA,NA,NA,NA,NA,NA,NA,NA,NA,NA,NA,NA,NA,NA,NA,NA,NA,NA,NA,NA
21523,shallow,flow.Sequence,1_1_3_1,NA,NA,skipped,NA,399065.89999998,NA,NA,399063.791,399065.89999998,2023-11-11T10:18:38Z,399080.272,"c(""distractor1"", ""distractor2"", ""distractor3"")",Gesundheit,salama,d,NA,NA,NA,NA,NA,NA,NA,NA,NA,NA,NA,NA,NA,NA,NA,NA,NA,NA,NA,NA,NA,NA,NA,NA,NA,NA
21523,task,flow.Sequence,1_1_3,NA,NA,completion,10733.631,388316,388313.512,388330.16,399063.791,399065.89999998,2023-11-11T10:18:38Z,399080.272,"c(""distractor1"", ""distractor2"", ""distractor3"")",Gesundheit,salama,d,NA,NA,NA,NA,NA,NA,NA,NA,NA,NA,NA,NA,NA,NA,NA,NA,NA,NA,NA,NA,NA,NA,NA,NA,NA,NA
21523,Deep Question,html.Page,1_1_4_0_0,NA,NA,form submission,8836.3280000238,399065.89999998,399063.791,399080.272,407916.60000002,407916.69999993,2023-11-11T10:18:47Z,407930.096,"c(""distractor1"", ""distractor2"", ""distractor3"")",Qualität,mtindo,d,NA,NA,NA,Quli,NA,NA,NA,NA,NA,NA,NA,NA,NA,NA,NA,NA,NA,NA,NA,NA,NA,NA,NA,NA,NA,NA
21523,"""Richtig""-Screen",canvas.Screen,1_1_4_0_1,NA,NA,skipped,NA,407917.89999998,NA,NA,407916.60000002,407917.89999998,2023-11-11T10:18:47Z,407930.096,"c(""distractor1"", ""distractor2"", ""distractor3"")",Qualität,mtindo,d,NA,NA,NA,NA,NA,NA,NA,NA,NA,NA,NA,NA,NA,NA,NA,NA,NA,NA,NA,NA,NA,NA,NA,NA,NA,NA
21523,"""Falsch""-Screen",canvas.Screen,1_1_4_0_2,NA,NA,timeout,5000.045,407918.29999995,407913.553,407930.096,412913.57,412914.60000002,2023-11-11T10:18:52Z,412930.141,"c(""distractor1"", ""distractor2"", ""distractor3"")",Qualität,mtindo,d,NA,NA,NA,NA,NA,0,NA,NA,NA,NA,NA,NA,NA,NA,NA,NA,NA,NA,NA,NA,NA,NA,NA,NA,NA,NA
21523,deep,flow.Sequence,1_1_4_0,NA,NA,completion,13833.298,399065.89999998,399063.791,399080.272,412913.57,412914.79999995,2023-11-11T10:18:52Z,412930.141,"c(""distractor1"", ""distractor2"", ""distractor3"")",Qualität,mtindo,d,NA,NA,NA,NA,NA,NA,NA,NA,NA,NA,NA,NA,NA,NA,NA,NA,NA,NA,NA,NA,NA,NA,NA,NA,NA,NA
21523,shallow,flow.Sequence,1_1_4_1,NA,NA,skipped,NA,412914.89999998,NA,NA,412913.57,412914.89999998,2023-11-11T10:18:52Z,412930.141,"c(""distractor1"", ""distractor2"", ""distractor3"")",Qualität,mtindo,d,NA,NA,NA,NA,NA,NA,NA,NA,NA,NA,NA,NA,NA,NA,NA,NA,NA,NA,NA,NA,NA,NA,NA,NA,NA,NA
21523,task,flow.Sequence,1_1_4,NA,NA,completion,13833.298,399065.89999998,399063.791,399080.272,412913.57,412914.89999998,2023-11-11T10:18:52Z,412930.141,"c(""distractor1"", ""distractor2"", ""distractor3"")",Qualität,mtindo,d,NA,NA,NA,NA,NA,NA,NA,NA,NA,NA,NA,NA,NA,NA,NA,NA,NA,NA,NA,NA,NA,NA,NA,NA,NA,NA
21523,deep,flow.Sequence,1_1_5_0,NA,NA,skipped,NA,412914.89999998,NA,NA,412913.57,412914.89999998,2023-11-11T10:18:52Z,412930.141,"c(""distractor1"", ""distractor2"", ""distractor3"")",Rückhalt,msaada,s,muhula,auwali,kiwimbe,NA,NA,NA,NA,NA,NA,NA,NA,NA,NA,NA,NA,NA,NA,NA,NA,NA,NA,NA,NA,NA,NA,NA
21523,Shallow Question,html.Page,1_1_5_1_0,NA,NA,form submission,8585.4590000238,412915,412913.57,412930.141,421515.60000002,421515.69999993,2023-11-11T10:19:00Z,421530.236,"c(""distractor1"", ""distractor2"", ""distractor3"")",Rückhalt,msaada,s,muhula,auwali,kiwimbe,auwali,NA,NA,NA,NA,NA,NA,NA,NA,NA,NA,NA,NA,NA,NA,NA,NA,NA,NA,NA,NA,NA,NA
21523,"""Richtig""-Screen",canvas.Screen,1_1_5_1_1,NA,NA,skipped,NA,421517.10000002,NA,NA,421515.60000002,421517.10000002,2023-11-11T10:19:00Z,421530.236,"c(""distractor1"", ""distractor2"", ""distractor3"")",Rückhalt,msaada,s,muhula,auwali,kiwimbe,NA,NA,NA,NA,NA,NA,NA,NA,NA,NA,NA,NA,NA,NA,NA,NA,NA,NA,NA,NA,NA,NA,NA
21523,"""Falsch""-Screen",canvas.Screen,1_1_5_1_2,NA,NA,timeout,5000.076,421517.39999998,421513.479,421530.236,426513.586,426514.19999993,2023-11-11T10:19:05Z,426530.312,"c(""distractor1"", ""distractor2"", ""distractor3"")",Rückhalt,msaada,s,muhula,auwali,kiwimbe,NA,NA,0,NA,NA,NA,NA,NA,NA,NA,NA,NA,NA,NA,NA,NA,NA,NA,NA,NA,NA,NA,NA
21523,shallow,flow.Sequence,1_1_5_1,NA,NA,completion,13583.445,412915,412913.57,412930.141,426513.586,426514.29999995,2023-11-11T10:19:05Z,426530.312,"c(""distractor1"", ""distractor2"", ""distractor3"")",Rückhalt,msaada,s,muhula,auwali,kiwimbe,NA,NA,NA,NA,NA,NA,NA,NA,NA,NA,NA,NA,NA,NA,NA,NA,NA,NA,NA,NA,NA,NA,NA
21523,task,flow.Sequence,1_1_5,NA,NA,completion,13583.445,412914.89999998,412913.57,412930.141,426513.586,426514.29999995,2023-11-11T10:19:05Z,426530.312,"c(""distractor1"", ""distractor2"", ""distractor3"")",Rückhalt,msaada,s,muhula,auwali,kiwimbe,NA,NA,NA,NA,NA,NA,NA,NA,NA,NA,NA,NA,NA,NA,NA,NA,NA,NA,NA,NA,NA,NA,NA
21523,block,flow.Loop,1_1,NA,NA,completion,92016.607,334479,334480.257,334496.979,426513.586,426514.39999998,2023-11-11T10:19:05Z,426530.312,"c(""distractor1"", ""distractor2"", ""distractor3"")",NA,NA,NA,NA,NA,NA,NA,NA,NA,NA,NA,NA,NA,NA,NA,NA,NA,NA,NA,NA,NA,NA,NA,NA,NA,NA,NA,NA,NA
21523,Practice,flow.Sequence,1,NA,NA,completion,102949.903,323547.89999998,323530.169,323563.683,426513.586,426514.39999998,2023-11-11T10:19:05Z,426530.312,NULL,NA,NA,NA,NA,NA,NA,NA,NA,NA,NA,NA,NA,NA,NA,NA,NA,NA,NA,NA,NA,NA,NA,NA,NA,NA,NA,NA,NA,NA
21523,Experiment start,canvas.Screen,2,weiter,keypress(q),response,11913.288000024,426514.5,426513.586,426530.312,438443.60000002,438444,2023-11-11T10:19:17Z,438480.119,NULL,NA,NA,NA,NA,NA,NA,NA,NA,NA,NA,NA,NA,NA,NA,NA,NA,NA,NA,NA,NA,NA,NA,NA,NA,NA,NA,NA,NA,NA
21523,deep,flow.Sequence,3_0_0_0_0_0,NA,NA,skipped,NA,438486.60000002,NA,NA,438443.60000002,438486.60000002,2023-11-11T10:19:17Z,438480.119,NULL,Kanzler,diwani,s,rasilmali,mahitaji,maabudu,NA,sdf,NA,0,NA,NA,NA,NA,NA,NA,NA,NA,NA,NA,NA,NA,NA,NA,NA,NA,NA,NA,NA
21523,Shallow Question,html.Page,3_0_0_0_0_1_0,NA,NA,form submission,20212.780999976,438486.69999993,438443.532,438480.119,458692.89999998,458693.10000002,2023-11-11T10:19:38Z,458696.653,NULL,Kanzler,diwani,s,rasilmali,mahitaji,maabudu,diwani,NA,NA,0,NA,NA,NA,NA,NA,NA,NA,NA,NA,NA,NA,NA,NA,NA,NA,NA,NA,NA,NA
21523,"""Richtig""-Screen",canvas.Screen,3_0_0_0_0_1_1,NA,NA,timeout,5000.186,458694,458680.222,458696.653,463680.165,463681.5,2023-11-11T10:19:43Z,463696.839,NULL,Kanzler,diwani,s,rasilmali,mahitaji,maabudu,NA,sdf,1,0,NA,NA,NA,NA,NA,NA,NA,NA,NA,NA,NA,NA,NA,NA,NA,NA,NA,NA,NA
21523,"""Falsch""-Screen",canvas.Screen,3_0_0_0_0_1_2,NA,NA,skipped,NA,463682.60000002,NA,NA,463680.165,463682.60000002,2023-11-11T10:19:43Z,463696.839,NULL,Kanzler,diwani,s,rasilmali,mahitaji,maabudu,NA,sdf,NA,0,NA,NA,NA,NA,NA,NA,NA,NA,NA,NA,NA,NA,NA,NA,NA,NA,NA,NA,NA
21523,shallow,flow.Sequence,3_0_0_0_0_1,NA,NA,completion,25200.046,438486.69999993,438443.532,438480.119,463680.165,463682.69999993,2023-11-11T10:19:43Z,463696.839,NULL,Kanzler,diwani,s,rasilmali,mahitaji,maabudu,NA,sdf,NA,0,NA,NA,NA,NA,NA,NA,NA,NA,NA,NA,NA,NA,NA,NA,NA,NA,NA,NA,NA
21523,task,flow.Sequence,3_0_0_0_0,NA,NA,completion,25200.046,438486.60000002,438443.532,438480.119,463680.165,463682.69999993,2023-11-11T10:19:43Z,463696.839,NULL,Kanzler,diwani,s,rasilmali,mahitaji,maabudu,NA,sdf,NA,0,NA,NA,NA,NA,NA,NA,NA,NA,NA,NA,NA,NA,NA,NA,NA,NA,NA,NA,NA
21523,deep,flow.Sequence,3_0_0_0_1_0,NA,NA,skipped,NA,463682.69999993,NA,NA,463680.165,463682.69999993,2023-11-11T10:19:43Z,463696.839,NULL,Schönheit,kirembo,s,mahojiano,msisimko,jitihadi,NA,sdf,NA,0,NA,NA,NA,NA,NA,NA,NA,NA,NA,NA,NA,NA,NA,NA,NA,NA,NA,NA,NA
21523,Shallow Question,html.Page,3_0_0_0_1_1_0,NA,NA,form submission,6984.8609999285,463682.69999993,463680.165,463696.839,470681.69999993,470681.69999993,2023-11-11T10:19:50Z,470697.047,NULL,Schönheit,kirembo,s,mahojiano,msisimko,jitihadi,mahojiano,NA,NA,0,NA,NA,NA,NA,NA,NA,NA,NA,NA,NA,NA,NA,NA,NA,NA,NA,NA,NA,NA
21523,"""Richtig""-Screen",canvas.Screen,3_0_0_0_1_1_1,NA,NA,skipped,NA,470682.69999993,NA,NA,470681.69999993,470682.69999993,2023-11-11T10:19:50Z,470697.047,NULL,Schönheit,kirembo,s,mahojiano,msisimko,jitihadi,NA,sdf,NA,0,NA,NA,NA,NA,NA,NA,NA,NA,NA,NA,NA,NA,NA,NA,NA,NA,NA,NA,NA
21523,"""Falsch""-Screen",canvas.Screen,3_0_0_0_1_1_2,NA,NA,timeout,4999.816,470683.29999995,470680.246,470697.047,475680.117,475681.5,2023-11-11T10:19:55Z,475696.863,NULL,Schönheit,kirembo,s,mahojiano,msisimko,jitihadi,NA,sdf,0,0,NA,NA,NA,NA,NA,NA,NA,NA,NA,NA,NA,NA,NA,NA,NA,NA,NA,NA,NA
21523,shallow,flow.Sequence,3_0_0_0_1_1,NA,NA,completion,11983.278,463682.69999993,463680.165,463696.839,475680.117,475681.60000002,2023-11-11T10:19:55Z,475696.863,NULL,Schönheit,kirembo,s,mahojiano,msisimko,jitihadi,NA,sdf,NA,0,NA,NA,NA,NA,NA,NA,NA,NA,NA,NA,NA,NA,NA,NA,NA,NA,NA,NA,NA
21523,task,flow.Sequence,3_0_0_0_1,NA,NA,completion,11983.278,463682.69999993,463680.165,463696.839,475680.117,475681.69999993,2023-11-11T10:19:55Z,475696.863,NULL,Schönheit,kirembo,s,mahojiano,msisimko,jitihadi,NA,sdf,NA,0,NA,NA,NA,NA,NA,NA,NA,NA,NA,NA,NA,NA,NA,NA,NA,NA,NA,NA,NA
21523,Deep Question,html.Page,3_0_0_0_2_0_0,NA,NA,form submission,6555.7370000238,475681.69999993,475680.117,475696.863,482252.60000002,482252.69999993,2023-11-11T10:20:01Z,482263.501,NULL,Sänger,mwimbaji,d,NA,NA,NA,Subi,NA,NA,0,NA,NA,NA,NA,NA,NA,NA,NA,NA,NA,NA,NA,NA,NA,NA,NA,NA,NA,NA
21523,"""Richtig""-Screen",canvas.Screen,3_0_0_0_2_0_1,NA,NA,skipped,NA,482254,NA,NA,482252.60000002,482254.10000002,2023-11-11T10:20:01Z,482263.501,NULL,Sänger,mwimbaji,d,NA,NA,NA,NA,sdf,NA,0,NA,NA,NA,NA,NA,NA,NA,NA,NA,NA,NA,NA,NA,NA,NA,NA,NA,NA,NA
21523,"""Falsch""-Screen",canvas.Screen,3_0_0_0_2_0_2,NA,NA,timeout,4999.944,482254.39999998,482246.836,482263.501,487246.723,487249.19999993,2023-11-11T10:20:06Z,487263.445,NULL,Sänger,mwimbaji,d,NA,NA,NA,NA,sdf,0,0,NA,NA,NA,NA,NA,NA,NA,NA,NA,NA,NA,NA,NA,NA,NA,NA,NA,NA,NA
21523,deep,flow.Sequence,3_0_0_0_2_0,NA,NA,completion,11549.86,475681.69999993,475680.117,475696.863,487246.723,487249.29999995,2023-11-11T10:20:06Z,487263.445,NULL,Sänger,mwimbaji,d,NA,NA,NA,NA,sdf,NA,0,NA,NA,NA,NA,NA,NA,NA,NA,NA,NA,NA,NA,NA,NA,NA,NA,NA,NA,NA
21523,shallow,flow.Sequence,3_0_0_0_2_1,NA,NA,skipped,NA,487249.29999995,NA,NA,487246.723,487249.39999998,2023-11-11T10:20:06Z,487263.445,NULL,Sänger,mwimbaji,d,NA,NA,NA,NA,sdf,NA,0,NA,NA,NA,NA,NA,NA,NA,NA,NA,NA,NA,NA,NA,NA,NA,NA,NA,NA,NA
21523,task,flow.Sequence,3_0_0_0_2,NA,NA,completion,11549.86,475681.69999993,475680.117,475696.863,487246.723,487249.39999998,2023-11-11T10:20:06Z,487263.445,NULL,Sänger,mwimbaji,d,NA,NA,NA,NA,sdf,NA,0,NA,NA,NA,NA,NA,NA,NA,NA,NA,NA,NA,NA,NA,NA,NA,NA,NA,NA,NA
21523,deep,flow.Sequence,3_0_0_0_3_0,NA,NA,skipped,NA,487249.5,NA,NA,487246.723,487249.5,2023-11-11T10:20:06Z,487263.445,NULL,Abrechnung,uhasibu,s,kusahihisha,mpambano,mashambulizi,NA,sdf,NA,0,NA,NA,NA,NA,NA,NA,NA,NA,NA,NA,NA,NA,NA,NA,NA,NA,NA,NA,NA
21523,Shallow Question,html.Page,3_0_0_0_3_1_0,NA,NA,form submission,7376.1550000238,487249.5,487246.723,487263.445,494639.60000002,494639.69999993,2023-11-11T10:20:14Z,494646.626,NULL,Abrechnung,uhasibu,s,kusahihisha,mpambano,mashambulizi,kusahihisha,NA,NA,0,NA,NA,NA,NA,NA,NA,NA,NA,NA,NA,NA,NA,NA,NA,NA,NA,NA,NA,NA
21523,"""Richtig""-Screen",canvas.Screen,3_0_0_0_3_1_1,NA,NA,skipped,NA,494640.69999993,NA,NA,494639.60000002,494640.79999995,2023-11-11T10:20:14Z,494646.626,NULL,Abrechnung,uhasibu,s,kusahihisha,mpambano,mashambulizi,NA,sdf,NA,0,NA,NA,NA,NA,NA,NA,NA,NA,NA,NA,NA,NA,NA,NA,NA,NA,NA,NA,NA
21523,"""Falsch""-Screen",canvas.Screen,3_0_0_0_3_1_2,NA,NA,timeout,5000.163,494641.10000002,494630.205,494646.626,499630.186,499631.60000002,2023-11-11T10:20:19Z,499646.789,NULL,Abrechnung,uhasibu,s,kusahihisha,mpambano,mashambulizi,NA,sdf,0,0,NA,NA,NA,NA,NA,NA,NA,NA,NA,NA,NA,NA,NA,NA,NA,NA,NA,NA,NA
21523,shallow,flow.Sequence,3_0_0_0_3_1,NA,NA,completion,12366.741,487249.5,487246.723,487263.445,499630.186,499631.69999993,2023-11-11T10:20:19Z,499646.789,NULL,Abrechnung,uhasibu,s,kusahihisha,mpambano,mashambulizi,NA,sdf,NA,0,NA,NA,NA,NA,NA,NA,NA,NA,NA,NA,NA,NA,NA,NA,NA,NA,NA,NA,NA
21523,task,flow.Sequence,3_0_0_0_3,NA,NA,completion,12366.741,487249.5,487246.723,487263.445,499630.186,499631.69999993,2023-11-11T10:20:19Z,499646.789,NULL,Abrechnung,uhasibu,s,kusahihisha,mpambano,mashambulizi,NA,sdf,NA,0,NA,NA,NA,NA,NA,NA,NA,NA,NA,NA,NA,NA,NA,NA,NA,NA,NA,NA,NA
21523,Deep Question,html.Page,3_0_0_0_4_0_0,NA,NA,form submission,9062.6109999762,499631.69999993,499630.186,499646.789,508709.39999998,508709.5,2023-11-11T10:20:28Z,508730.003,NULL,Angreifer,mshambulizi,d,NA,NA,NA,huntu,NA,NA,0,NA,NA,NA,NA,NA,NA,NA,NA,NA,NA,NA,NA,NA,NA,NA,NA,NA,NA,NA
21523,"""Richtig""-Screen",canvas.Screen,3_0_0_0_4_0_1,NA,NA,skipped,NA,508710.60000002,NA,NA,508709.39999998,508710.69999993,2023-11-11T10:20:28Z,508730.003,NULL,Angreifer,mshambulizi,d,NA,NA,NA,NA,sdf,NA,0,NA,NA,NA,NA,NA,NA,NA,NA,NA,NA,NA,NA,NA,NA,NA,NA,NA,NA,NA
21523,"""Falsch""-Screen",canvas.Screen,3_0_0_0_4_0_2,NA,NA,timeout,5000.308,508711,508696.952,508730.003,513713.454,513714.89999998,2023-11-11T10:20:33Z,513730.311,NULL,Angreifer,mshambulizi,d,NA,NA,NA,NA,sdf,0,0,NA,NA,NA,NA,NA,NA,NA,NA,NA,NA,NA,NA,NA,NA,NA,NA,NA,NA,NA
21523,deep,flow.Sequence,3_0_0_0_4_0,NA,NA,completion,14066.665,499631.69999993,499630.186,499646.789,513713.454,513715,2023-11-11T10:20:33Z,513730.311,NULL,Angreifer,mshambulizi,d,NA,NA,NA,NA,sdf,NA,0,NA,NA,NA,NA,NA,NA,NA,NA,NA,NA,NA,NA,NA,NA,NA,NA,NA,NA,NA
21523,shallow,flow.Sequence,3_0_0_0_4_1,NA,NA,skipped,NA,513715,NA,NA,513713.454,513715.10000002,2023-11-11T10:20:33Z,513730.311,NULL,Angreifer,mshambulizi,d,NA,NA,NA,NA,sdf,NA,0,NA,NA,NA,NA,NA,NA,NA,NA,NA,NA,NA,NA,NA,NA,NA,NA,NA,NA,NA
21523,task,flow.Sequence,3_0_0_0_4,NA,NA,completion,14066.665,499631.69999993,499630.186,499646.789,513713.454,513715.10000002,2023-11-11T10:20:33Z,513730.311,NULL,Angreifer,mshambulizi,d,NA,NA,NA,NA,sdf,NA,0,NA,NA,NA,NA,NA,NA,NA,NA,NA,NA,NA,NA,NA,NA,NA,NA,NA,NA,NA
21523,Deep Question,html.Page,3_0_0_0_5_0_0,NA,NA,form submission,6607.0889999762,513715.19999993,513713.454,513730.311,520337.39999998,520337.69999993,2023-11-11T10:20:39Z,520346.718,NULL,Wettbewerb,ushindani,d,NA,NA,NA,kama,NA,NA,0,NA,NA,NA,NA,NA,NA,NA,NA,NA,NA,NA,NA,NA,NA,NA,NA,NA,NA,NA
21523,"""Richtig""-Screen",canvas.Screen,3_0_0_0_5_0_1,NA,NA,skipped,NA,520338.89999998,NA,NA,520337.39999998,520339,2023-11-11T10:20:39Z,520346.718,NULL,Wettbewerb,ushindani,d,NA,NA,NA,NA,sdf,NA,0,NA,NA,NA,NA,NA,NA,NA,NA,NA,NA,NA,NA,NA,NA,NA,NA,NA,NA,NA
21523,"""Falsch""-Screen",canvas.Screen,3_0_0_0_5_0_2,NA,NA,timeout,4999.987,520339.29999995,520330.123,520346.718,525330.066,525332.39999998,2023-11-11T10:20:44Z,525346.705,NULL,Wettbewerb,ushindani,d,NA,NA,NA,NA,sdf,0,0,NA,NA,NA,NA,NA,NA,NA,NA,NA,NA,NA,NA,NA,NA,NA,NA,NA,NA,NA
21523,deep,flow.Sequence,3_0_0_0_5_0,NA,NA,completion,11599.755,513715.19999993,513713.454,513730.311,525330.066,525332.5,2023-11-11T10:20:44Z,525346.705,NULL,Wettbewerb,ushindani,d,NA,NA,NA,NA,sdf,NA,0,NA,NA,NA,NA,NA,NA,NA,NA,NA,NA,NA,NA,NA,NA,NA,NA,NA,NA,NA
21523,shallow,flow.Sequence,3_0_0_0_5_1,NA,NA,skipped,NA,525332.5,NA,NA,525330.066,525332.5,2023-11-11T10:20:44Z,525346.705,NULL,Wettbewerb,ushindani,d,NA,NA,NA,NA,sdf,NA,0,NA,NA,NA,NA,NA,NA,NA,NA,NA,NA,NA,NA,NA,NA,NA,NA,NA,NA,NA
21523,task,flow.Sequence,3_0_0_0_5,NA,NA,completion,11599.755,513715.19999993,513713.454,513730.311,525330.066,525332.60000002,2023-11-11T10:20:44Z,525346.705,NULL,Wettbewerb,ushindani,d,NA,NA,NA,NA,sdf,NA,0,NA,NA,NA,NA,NA,NA,NA,NA,NA,NA,NA,NA,NA,NA,NA,NA,NA,NA,NA
21523,deep,flow.Sequence,3_0_0_0_6_0,NA,NA,skipped,NA,525332.60000002,NA,NA,525330.066,525332.60000002,2023-11-11T10:20:44Z,525346.705,NULL,Zufall,kikuti,s,kukosekana,uchoraji,leseni,NA,sdf,NA,0,NA,NA,NA,NA,NA,NA,NA,NA,NA,NA,NA,NA,NA,NA,NA,NA,NA,NA,NA
21523,Shallow Question,html.Page,3_0_0_0_6_1_0,NA,NA,form submission,9649.9949999285,525332.60000002,525330.066,525346.705,534996.69999993,534996.79999995,2023-11-11T10:20:54Z,535030.138,NULL,Zufall,kikuti,s,kukosekana,uchoraji,leseni,leseni,NA,NA,0,NA,NA,NA,NA,NA,NA,NA,NA,NA,NA,NA,NA,NA,NA,NA,NA,NA,NA,NA
21523,"""Richtig""-Screen",canvas.Screen,3_0_0_0_6_1_1,NA,NA,skipped,NA,534997.89999998,NA,NA,534996.69999993,534998,2023-11-11T10:20:54Z,535030.138,NULL,Zufall,kikuti,s,kukosekana,uchoraji,leseni,NA,sdf,NA,0,NA,NA,NA,NA,NA,NA,NA,NA,NA,NA,NA,NA,NA,NA,NA,NA,NA,NA,NA
21523,"""Falsch""-Screen",canvas.Screen,3_0_0_0_6_1_2,NA,NA,timeout,5000.019,534998.29999995,535014.731,535030.138,540013.362,540014.29999995,2023-11-11T10:20:59Z,540030.157,NULL,Zufall,kikuti,s,kukosekana,uchoraji,leseni,NA,sdf,0,0,NA,NA,NA,NA,NA,NA,NA,NA,NA,NA,NA,NA,NA,NA,NA,NA,NA,NA,NA
21523,shallow,flow.Sequence,3_0_0_0_6_1,NA,NA,completion,14666.657,525332.60000002,525330.066,525346.705,540013.362,540014.39999998,2023-11-11T10:20:59Z,540030.157,NULL,Zufall,kikuti,s,kukosekana,uchoraji,leseni,NA,sdf,NA,0,NA,NA,NA,NA,NA,NA,NA,NA,NA,NA,NA,NA,NA,NA,NA,NA,NA,NA,NA
21523,task,flow.Sequence,3_0_0_0_6,NA,NA,completion,14666.657,525332.60000002,525330.066,525346.705,540013.362,540014.39999998,2023-11-11T10:20:59Z,540030.157,NULL,Zufall,kikuti,s,kukosekana,uchoraji,leseni,NA,sdf,NA,0,NA,NA,NA,NA,NA,NA,NA,NA,NA,NA,NA,NA,NA,NA,NA,NA,NA,NA,NA
21523,Deep Question,html.Page,3_0_0_0_7_0_0,NA,NA,form submission,6382.4430000238,540014.5,540013.362,540030.157,546412.60000002,546412.79999995,2023-11-11T10:21:05Z,546430.527,NULL,Auftrag,uagizaji,d,NA,NA,NA,lulu,NA,NA,0,NA,NA,NA,NA,NA,NA,NA,NA,NA,NA,NA,NA,NA,NA,NA,NA,NA,NA,NA
21523,"""Richtig""-Screen",canvas.Screen,3_0_0_0_7_0_1,NA,NA,skipped,NA,546414,NA,NA,546412.60000002,546414.10000002,2023-11-11T10:21:05Z,546430.527,NULL,Auftrag,uagizaji,d,NA,NA,NA,NA,sdf,NA,0,NA,NA,NA,NA,NA,NA,NA,NA,NA,NA,NA,NA,NA,NA,NA,NA,NA,NA,NA
21523,"""Falsch""-Screen",canvas.Screen,3_0_0_0_7_0_2,NA,NA,timeout,4999.718,546414.39999998,546396.895,546430.527,551413.403,551414.69999993,2023-11-11T10:21:10Z,551430.245,NULL,Auftrag,uagizaji,d,NA,NA,NA,NA,sdf,0,0,NA,NA,NA,NA,NA,NA,NA,NA,NA,NA,NA,NA,NA,NA,NA,NA,NA,NA,NA
21523,deep,flow.Sequence,3_0_0_0_7_0,NA,NA,completion,11383.246,540014.5,540013.362,540030.157,551413.403,551414.89999998,2023-11-11T10:21:10Z,551430.245,NULL,Auftrag,uagizaji,d,NA,NA,NA,NA,sdf,NA,0,NA,NA,NA,NA,NA,NA,NA,NA,NA,NA,NA,NA,NA,NA,NA,NA,NA,NA,NA
21523,shallow,flow.Sequence,3_0_0_0_7_1,NA,NA,skipped,NA,551414.89999998,NA,NA,551413.403,551414.89999998,2023-11-11T10:21:10Z,551430.245,NULL,Auftrag,uagizaji,d,NA,NA,NA,NA,sdf,NA,0,NA,NA,NA,NA,NA,NA,NA,NA,NA,NA,NA,NA,NA,NA,NA,NA,NA,NA,NA
21523,task,flow.Sequence,3_0_0_0_7,NA,NA,completion,11383.246,540014.5,540013.362,540030.157,551413.403,551415,2023-11-11T10:21:10Z,551430.245,NULL,Auftrag,uagizaji,d,NA,NA,NA,NA,sdf,NA,0,NA,NA,NA,NA,NA,NA,NA,NA,NA,NA,NA,NA,NA,NA,NA,NA,NA,NA,NA
21523,block,flow.Loop,3_0_0_0,NA,NA,completion,112933.284,438486.60000002,438443.532,438480.119,551413.403,551415,2023-11-11T10:21:10Z,551430.245,NULL,NA,NA,NA,NA,NA,NA,NA,sdf,NA,0,NA,NA,NA,NA,NA,NA,NA,NA,NA,NA,NA,NA,NA,NA,NA,NA,NA,NA,NA
21523,weiter,canvas.Screen,3_0_0_1,sdf,keypress(Space),response,3357.5549999523,551415,551413.403,551430.245,554787.79999995,554788.29999995,2023-11-11T10:21:14Z,554813.672,NULL,NA,NA,NA,NA,NA,NA,NA,sdf,NA,0,NA,NA,NA,NA,NA,NA,NA,NA,NA,NA,NA,NA,NA,NA,NA,NA,NA,NA,NA
21523,check continue,flow.Sequence,3_0_0,NA,NA,completion,116307.68099995,438486.60000002,438443.532,438480.119,554787.79999995,554788.29999995,2023-11-11T10:21:14Z,554813.672,NULL,NA,NA,NA,NA,NA,NA,NA,sdf,NA,0,NA,NA,NA,NA,NA,NA,NA,NA,NA,NA,NA,NA,NA,NA,NA,NA,NA,NA,NA
21523,Deep Question,html.Page,3_0_1_0_0_0_0,NA,NA,form submission,8870.1279999523,554800.5,554795.439,554813.672,563683.79999995,563684,2023-11-11T10:21:23Z,563696.746,NULL,Angreifer,mshambulizi,d,NA,NA,NA,meedu,NA,NA,1,NA,NA,NA,NA,NA,NA,NA,NA,NA,NA,NA,NA,NA,NA,NA,NA,NA,NA,NA
21523,"""Richtig""-Screen",canvas.Screen,3_0_1_0_0_0_1,NA,NA,skipped,NA,563685.19999993,NA,NA,563683.79999995,563685.29999995,2023-11-11T10:21:23Z,563696.746,NULL,Angreifer,mshambulizi,d,NA,NA,NA,NA,sdfdsf,NA,1,NA,NA,NA,NA,NA,NA,NA,NA,NA,NA,NA,NA,NA,NA,NA,NA,NA,NA,NA
21523,"""Falsch""-Screen",canvas.Screen,3_0_1_0_0_0_2,NA,NA,timeout,5000.0229999999,563685.69999993,563679.898,563696.746,568680.24,568681.79999995,2023-11-11T10:21:28Z,568696.769,NULL,Angreifer,mshambulizi,d,NA,NA,NA,NA,sdfdsf,0,1,NA,NA,NA,NA,NA,NA,NA,NA,NA,NA,NA,NA,NA,NA,NA,NA,NA,NA,NA
21523,deep,flow.Sequence,3_0_1_0_0_0,NA,NA,completion,13866.568,554800.5,554795.439,554813.672,568680.24,568681.79999995,2023-11-11T10:21:28Z,568696.769,NULL,Angreifer,mshambulizi,d,NA,NA,NA,NA,sdfdsf,NA,1,NA,NA,NA,NA,NA,NA,NA,NA,NA,NA,NA,NA,NA,NA,NA,NA,NA,NA,NA
21523,shallow,flow.Sequence,3_0_1_0_0_1,NA,NA,skipped,NA,568681.89999998,NA,NA,568680.24,568681.89999998,2023-11-11T10:21:28Z,568696.769,NULL,Angreifer,mshambulizi,d,NA,NA,NA,NA,sdfdsf,NA,1,NA,NA,NA,NA,NA,NA,NA,NA,NA,NA,NA,NA,NA,NA,NA,NA,NA,NA,NA
21523,task,flow.Sequence,3_0_1_0_0,NA,NA,completion,13866.568,554800.5,554795.439,554813.672,568680.24,568681.89999998,2023-11-11T10:21:28Z,568696.769,NULL,Angreifer,mshambulizi,d,NA,NA,NA,NA,sdfdsf,NA,1,NA,NA,NA,NA,NA,NA,NA,NA,NA,NA,NA,NA,NA,NA,NA,NA,NA,NA,NA
21523,deep,flow.Sequence,3_0_1_0_1_0,NA,NA,skipped,NA,568681.89999998,NA,NA,568680.24,568681.89999998,2023-11-11T10:21:28Z,568696.769,NULL,Schönheit,kirembo,s,mahojiano,msisimko,jitihadi,NA,sdfdsf,NA,1,NA,NA,NA,NA,NA,NA,NA,NA,NA,NA,NA,NA,NA,NA,NA,NA,NA,NA,NA
21523,Shallow Question,html.Page,3_0_1_0_1_1_0,NA,NA,form submission,8011.1309999762,568682,568680.24,568696.769,576707.89999998,576708,2023-11-11T10:21:36Z,576713.464,NULL,Schönheit,kirembo,s,mahojiano,msisimko,jitihadi,kirembo,NA,NA,1,NA,NA,NA,NA,NA,NA,NA,NA,NA,NA,NA,NA,NA,NA,NA,NA,NA,NA,NA
21523,"""Richtig""-Screen",canvas.Screen,3_0_1_0_1_1_1,NA,NA,timeout,4999.9449999999,576709,576696.713,576713.464,581696.807,581698.29999995,2023-11-11T10:21:41Z,581713.409,NULL,Schönheit,kirembo,s,mahojiano,msisimko,jitihadi,NA,sdfdsf,1,1,NA,NA,NA,NA,NA,NA,NA,NA,NA,NA,NA,NA,NA,NA,NA,NA,NA,NA,NA
21523,"""Falsch""-Screen",canvas.Screen,3_0_1_0_1_1_2,NA,NA,skipped,NA,581699.39999998,NA,NA,581696.807,581699.39999998,2023-11-11T10:21:41Z,581713.409,NULL,Schönheit,kirembo,s,mahojiano,msisimko,jitihadi,NA,sdfdsf,NA,1,NA,NA,NA,NA,NA,NA,NA,NA,NA,NA,NA,NA,NA,NA,NA,NA,NA,NA,NA
21523,shallow,flow.Sequence,3_0_1_0_1_1,NA,NA,completion,13000.038,568682,568680.24,568696.769,581696.807,581699.39999998,2023-11-11T10:21:41Z,581713.409,NULL,Schönheit,kirembo,s,mahojiano,msisimko,jitihadi,NA,sdfdsf,NA,1,NA,NA,NA,NA,NA,NA,NA,NA,NA,NA,NA,NA,NA,NA,NA,NA,NA,NA,NA
21523,task,flow.Sequence,3_0_1_0_1,NA,NA,completion,13000.038,568681.89999998,568680.24,568696.769,581696.807,581699.5,2023-11-11T10:21:41Z,581713.409,NULL,Schönheit,kirembo,s,mahojiano,msisimko,jitihadi,NA,sdfdsf,NA,1,NA,NA,NA,NA,NA,NA,NA,NA,NA,NA,NA,NA,NA,NA,NA,NA,NA,NA,NA
21523,Deep Question,html.Page,3_0_1_0_2_0_0,NA,NA,form submission,14990.890999952,581699.5,581696.807,581713.409,596704.29999995,596704.39999998,2023-11-11T10:21:56Z,596713.261,NULL,Wettbewerb,ushindani,d,NA,NA,NA,medoj,NA,NA,1,NA,NA,NA,NA,NA,NA,NA,NA,NA,NA,NA,NA,NA,NA,NA,NA,NA,NA,NA
21523,"""Richtig""-Screen",canvas.Screen,3_0_1_0_2_0_1,NA,NA,skipped,NA,596705.5,NA,NA,596704.29999995,596705.60000002,2023-11-11T10:21:56Z,596713.261,NULL,Wettbewerb,ushindani,d,NA,NA,NA,NA,sdfdsf,NA,1,NA,NA,NA,NA,NA,NA,NA,NA,NA,NA,NA,NA,NA,NA,NA,NA,NA,NA,NA
21523,"""Falsch""-Screen",canvas.Screen,3_0_1_0_2_0_2,NA,NA,timeout,5000.0769999999,596705.79999995,596696.709,596713.261,601697.325,601698.39999998,2023-11-11T10:22:01Z,601713.338,NULL,Wettbewerb,ushindani,d,NA,NA,NA,NA,sdfdsf,0,1,NA,NA,NA,NA,NA,NA,NA,NA,NA,NA,NA,NA,NA,NA,NA,NA,NA,NA,NA
21523,deep,flow.Sequence,3_0_1_0_2_0,NA,NA,completion,19983.916,581699.5,581696.807,581713.409,601697.325,601698.5,2023-11-11T10:22:01Z,601713.338,NULL,Wettbewerb,ushindani,d,NA,NA,NA,NA,sdfdsf,NA,1,NA,NA,NA,NA,NA,NA,NA,NA,NA,NA,NA,NA,NA,NA,NA,NA,NA,NA,NA
21523,shallow,flow.Sequence,3_0_1_0_2_1,NA,NA,skipped,NA,601698.5,NA,NA,601697.325,601698.5,2023-11-11T10:22:01Z,601713.338,NULL,Wettbewerb,ushindani,d,NA,NA,NA,NA,sdfdsf,NA,1,NA,NA,NA,NA,NA,NA,NA,NA,NA,NA,NA,NA,NA,NA,NA,NA,NA,NA,NA
21523,task,flow.Sequence,3_0_1_0_2,NA,NA,completion,19983.916,581699.5,581696.807,581713.409,601697.325,601698.5,2023-11-11T10:22:01Z,601713.338,NULL,Wettbewerb,ushindani,d,NA,NA,NA,NA,sdfdsf,NA,1,NA,NA,NA,NA,NA,NA,NA,NA,NA,NA,NA,NA,NA,NA,NA,NA,NA,NA,NA
21523,Deep Question,html.Page,3_0_1_0_3_0_0,NA,NA,form submission,11171.961999952,601698.69999993,601697.325,601713.338,612885.29999995,612885.5,2023-11-11T10:22:12Z,612896.668,NULL,Auftrag,uagizaji,d,NA,NA,NA,Meedi,NA,NA,1,NA,NA,NA,NA,NA,NA,NA,NA,NA,NA,NA,NA,NA,NA,NA,NA,NA,NA,NA
21523,"""Richtig""-Screen",canvas.Screen,3_0_1_0_3_0_1,NA,NA,skipped,NA,612886.69999993,NA,NA,612885.29999995,612886.79999995,2023-11-11T10:22:12Z,612896.668,NULL,Auftrag,uagizaji,d,NA,NA,NA,NA,sdfdsf,NA,1,NA,NA,NA,NA,NA,NA,NA,NA,NA,NA,NA,NA,NA,NA,NA,NA,NA,NA,NA
21523,"""Falsch""-Screen",canvas.Screen,3_0_1_0_3_0_2,NA,NA,timeout,4999.956,612887.10000002,612879.918,612896.668,617880.058,617881.29999995,2023-11-11T10:22:17Z,617896.624,NULL,Auftrag,uagizaji,d,NA,NA,NA,NA,sdfdsf,0,1,NA,NA,NA,NA,NA,NA,NA,NA,NA,NA,NA,NA,NA,NA,NA,NA,NA,NA,NA
21523,deep,flow.Sequence,3_0_1_0_3_0,NA,NA,completion,16166.72,601698.69999993,601697.325,601713.338,617880.058,617881.39999998,2023-11-11T10:22:17Z,617896.624,NULL,Auftrag,uagizaji,d,NA,NA,NA,NA,sdfdsf,NA,1,NA,NA,NA,NA,NA,NA,NA,NA,NA,NA,NA,NA,NA,NA,NA,NA,NA,NA,NA
21523,shallow,flow.Sequence,3_0_1_0_3_1,NA,NA,skipped,NA,617881.39999998,NA,NA,617880.058,617881.39999998,2023-11-11T10:22:17Z,617896.624,NULL,Auftrag,uagizaji,d,NA,NA,NA,NA,sdfdsf,NA,1,NA,NA,NA,NA,NA,NA,NA,NA,NA,NA,NA,NA,NA,NA,NA,NA,NA,NA,NA
21523,task,flow.Sequence,3_0_1_0_3,NA,NA,completion,16166.72,601698.60000002,601697.325,601713.338,617880.058,617881.5,2023-11-11T10:22:17Z,617896.624,NULL,Auftrag,uagizaji,d,NA,NA,NA,NA,sdfdsf,NA,1,NA,NA,NA,NA,NA,NA,NA,NA,NA,NA,NA,NA,NA,NA,NA,NA,NA,NA,NA
21523,deep,flow.Sequence,3_0_1_0_4_0,NA,NA,skipped,NA,617881.5,NA,NA,617880.058,617881.5,2023-11-11T10:22:17Z,617896.624,NULL,Zufall,kikuti,s,kukosekana,uchoraji,leseni,NA,sdfdsf,NA,1,NA,NA,NA,NA,NA,NA,NA,NA,NA,NA,NA,NA,NA,NA,NA,NA,NA,NA,NA
21523,Shallow Question,html.Page,3_0_1_0_4_1_0,NA,NA,form submission,6482.7759999762,617881.5,617880.058,617896.624,624379.39999998,624379.5,2023-11-11T10:22:23Z,624397.33,NULL,Zufall,kikuti,s,kukosekana,uchoraji,leseni,kikuti,NA,NA,1,NA,NA,NA,NA,NA,NA,NA,NA,NA,NA,NA,NA,NA,NA,NA,NA,NA,NA,NA
21523,"""Richtig""-Screen",canvas.Screen,3_0_1_0_4_1_1,NA,NA,timeout,4999.322,624380.60000002,624363.519,624397.33,629379.847,629381.19999993,2023-11-11T10:22:28Z,629396.652,NULL,Zufall,kikuti,s,kukosekana,uchoraji,leseni,NA,sdfdsf,1,1,NA,NA,NA,NA,NA,NA,NA,NA,NA,NA,NA,NA,NA,NA,NA,NA,NA,NA,NA
21523,"""Falsch""-Screen",canvas.Screen,3_0_1_0_4_1_2,NA,NA,skipped,NA,629382.29999995,NA,NA,629379.847,629382.5,2023-11-11T10:22:28Z,629396.652,NULL,Zufall,kikuti,s,kukosekana,uchoraji,leseni,NA,sdfdsf,NA,1,NA,NA,NA,NA,NA,NA,NA,NA,NA,NA,NA,NA,NA,NA,NA,NA,NA,NA,NA
21523,shallow,flow.Sequence,3_0_1_0_4_1,NA,NA,completion,11483.223,617881.5,617880.058,617896.624,629379.847,629382.5,2023-11-11T10:22:28Z,629396.652,NULL,Zufall,kikuti,s,kukosekana,uchoraji,leseni,NA,sdfdsf,NA,1,NA,NA,NA,NA,NA,NA,NA,NA,NA,NA,NA,NA,NA,NA,NA,NA,NA,NA,NA
21523,task,flow.Sequence,3_0_1_0_4,NA,NA,completion,11483.223,617881.5,617880.058,617896.624,629379.847,629382.60000002,2023-11-11T10:22:28Z,629396.652,NULL,Zufall,kikuti,s,kukosekana,uchoraji,leseni,NA,sdfdsf,NA,1,NA,NA,NA,NA,NA,NA,NA,NA,NA,NA,NA,NA,NA,NA,NA,NA,NA,NA,NA
21523,deep,flow.Sequence,3_0_1_0_5_0,NA,NA,skipped,NA,629382.60000002,NA,NA,629379.847,629382.60000002,2023-11-11T10:22:28Z,629396.652,NULL,Kanzler,diwani,s,rasilmali,mahitaji,maabudu,NA,sdfdsf,NA,1,NA,NA,NA,NA,NA,NA,NA,NA,NA,NA,NA,NA,NA,NA,NA,NA,NA,NA,NA
21523,Shallow Question,html.Page,3_0_1_0_5_1_0,NA,NA,form submission,5313.5479999285,629382.69999993,629379.847,629396.652,634710.19999993,634710.29999995,2023-11-11T10:22:34Z,634713.248,NULL,Kanzler,diwani,s,rasilmali,mahitaji,maabudu,mahitaji,NA,NA,1,NA,NA,NA,NA,NA,NA,NA,NA,NA,NA,NA,NA,NA,NA,NA,NA,NA,NA,NA
21523,"""Richtig""-Screen",canvas.Screen,3_0_1_0_5_1_1,NA,NA,skipped,NA,634711.39999998,NA,NA,634710.19999993,634711.79999995,2023-11-11T10:22:34Z,634713.248,NULL,Kanzler,diwani,s,rasilmali,mahitaji,maabudu,NA,sdfdsf,NA,1,NA,NA,NA,NA,NA,NA,NA,NA,NA,NA,NA,NA,NA,NA,NA,NA,NA,NA,NA
21523,"""Falsch""-Screen",canvas.Screen,3_0_1_0_5_1_2,NA,NA,timeout,4999.958,634712,634696.806,634713.248,639696.659,639698.19999993,2023-11-11T10:22:39Z,639713.206,NULL,Kanzler,diwani,s,rasilmali,mahitaji,maabudu,NA,sdfdsf,0,1,NA,NA,NA,NA,NA,NA,NA,NA,NA,NA,NA,NA,NA,NA,NA,NA,NA,NA,NA
21523,shallow,flow.Sequence,3_0_1_0_5_1,NA,NA,completion,10300.007,629382.69999993,629379.847,629396.652,639696.659,639698.29999995,2023-11-11T10:22:39Z,639713.206,NULL,Kanzler,diwani,s,rasilmali,mahitaji,maabudu,NA,sdfdsf,NA,1,NA,NA,NA,NA,NA,NA,NA,NA,NA,NA,NA,NA,NA,NA,NA,NA,NA,NA,NA
21523,task,flow.Sequence,3_0_1_0_5,NA,NA,completion,10300.007,629382.60000002,629379.847,629396.652,639696.659,639698.29999995,2023-11-11T10:22:39Z,639713.206,NULL,Kanzler,diwani,s,rasilmali,mahitaji,maabudu,NA,sdfdsf,NA,1,NA,NA,NA,NA,NA,NA,NA,NA,NA,NA,NA,NA,NA,NA,NA,NA,NA,NA,NA
21523,deep,flow.Sequence,3_0_1_0_6_0,NA,NA,skipped,NA,639698.29999995,NA,NA,639696.659,639698.39999998,2023-11-11T10:22:39Z,639713.206,NULL,Abrechnung,uhasibu,s,kusahihisha,mpambano,mashambulizi,NA,sdfdsf,NA,1,NA,NA,NA,NA,NA,NA,NA,NA,NA,NA,NA,NA,NA,NA,NA,NA,NA,NA,NA
21523,Shallow Question,html.Page,3_0_1_0_6_1_0,NA,NA,form submission,6663.294,639698.39999998,639696.659,639713.206,646376.5,646376.5,2023-11-11T10:22:45Z,646379.931,NULL,Abrechnung,uhasibu,s,kusahihisha,mpambano,mashambulizi,uhasibu,NA,NA,1,NA,NA,NA,NA,NA,NA,NA,NA,NA,NA,NA,NA,NA,NA,NA,NA,NA,NA,NA
21523,"""Richtig""-Screen",canvas.Screen,3_0_1_0_6_1_1,NA,NA,timeout,5000.149,646377.5,646363.296,646379.931,651363.306,651364.89999998,2023-11-11T10:22:50Z,651380.08,NULL,Abrechnung,uhasibu,s,kusahihisha,mpambano,mashambulizi,NA,sdfdsf,1,1,NA,NA,NA,NA,NA,NA,NA,NA,NA,NA,NA,NA,NA,NA,NA,NA,NA,NA,NA
21523,"""Falsch""-Screen",canvas.Screen,3_0_1_0_6_1_2,NA,NA,skipped,NA,651365.89999998,NA,NA,651363.306,651366,2023-11-11T10:22:50Z,651380.08,NULL,Abrechnung,uhasibu,s,kusahihisha,mpambano,mashambulizi,NA,sdfdsf,NA,1,NA,NA,NA,NA,NA,NA,NA,NA,NA,NA,NA,NA,NA,NA,NA,NA,NA,NA,NA
21523,shallow,flow.Sequence,3_0_1_0_6_1,NA,NA,completion,11650.1,639698.39999998,639696.659,639713.206,651363.306,651366.10000002,2023-11-11T10:22:50Z,651380.08,NULL,Abrechnung,uhasibu,s,kusahihisha,mpambano,mashambulizi,NA,sdfdsf,NA,1,NA,NA,NA,NA,NA,NA,NA,NA,NA,NA,NA,NA,NA,NA,NA,NA,NA,NA,NA
21523,task,flow.Sequence,3_0_1_0_6,NA,NA,completion,11650.1,639698.29999995,639696.659,639713.206,651363.306,651366.10000002,2023-11-11T10:22:50Z,651380.08,NULL,Abrechnung,uhasibu,s,kusahihisha,mpambano,mashambulizi,NA,sdfdsf,NA,1,NA,NA,NA,NA,NA,NA,NA,NA,NA,NA,NA,NA,NA,NA,NA,NA,NA,NA,NA
21523,Deep Question,html.Page,3_0_1_0_7_0_0,NA,NA,form submission,6219.6199999285,651366.10000002,651363.306,651380.08,657599.69999993,657599.89999998,2023-11-11T10:22:57Z,657613.316,NULL,Sänger,mwimbaji,d,NA,NA,NA,seggr,NA,NA,1,NA,NA,NA,NA,NA,NA,NA,NA,NA,NA,NA,NA,NA,NA,NA,NA,NA,NA,NA
21523,"""Richtig""-Screen",canvas.Screen,3_0_1_0_7_0_1,NA,NA,skipped,NA,657601.10000002,NA,NA,657599.69999993,657601.10000002,2023-11-11T10:22:57Z,657613.316,NULL,Sänger,mwimbaji,d,NA,NA,NA,NA,sdfdsf,NA,1,NA,NA,NA,NA,NA,NA,NA,NA,NA,NA,NA,NA,NA,NA,NA,NA,NA,NA,NA
21523,"""Falsch""-Screen",canvas.Screen,3_0_1_0_7_0_2,NA,NA,timeout,5000.035,657601.39999998,657596.79,657613.316,662596.777,662598.19999993,2023-11-11T10:23:02Z,662613.351,NULL,Sänger,mwimbaji,d,NA,NA,NA,NA,sdfdsf,0,1,NA,NA,NA,NA,NA,NA,NA,NA,NA,NA,NA,NA,NA,NA,NA,NA,NA,NA,NA
21523,deep,flow.Sequence,3_0_1_0_7_0,NA,NA,completion,11216.697,651366.10000002,651363.306,651380.08,662596.777,662598.29999995,2023-11-11T10:23:02Z,662613.351,NULL,Sänger,mwimbaji,d,NA,NA,NA,NA,sdfdsf,NA,1,NA,NA,NA,NA,NA,NA,NA,NA,NA,NA,NA,NA,NA,NA,NA,NA,NA,NA,NA
21523,shallow,flow.Sequence,3_0_1_0_7_1,NA,NA,skipped,NA,662598.29999995,NA,NA,662596.777,662598.29999995,2023-11-11T10:23:02Z,662613.351,NULL,Sänger,mwimbaji,d,NA,NA,NA,NA,sdfdsf,NA,1,NA,NA,NA,NA,NA,NA,NA,NA,NA,NA,NA,NA,NA,NA,NA,NA,NA,NA,NA
21523,task,flow.Sequence,3_0_1_0_7,NA,NA,completion,11216.697,651366.10000002,651363.306,651380.08,662596.777,662598.39999998,2023-11-11T10:23:02Z,662613.351,NULL,Sänger,mwimbaji,d,NA,NA,NA,NA,sdfdsf,NA,1,NA,NA,NA,NA,NA,NA,NA,NA,NA,NA,NA,NA,NA,NA,NA,NA,NA,NA,NA
21523,block,flow.Loop,3_0_1_0,NA,NA,completion,107783.105,554800.5,554795.439,554813.672,662596.777,662598.39999998,2023-11-11T10:23:02Z,662613.351,NULL,NA,NA,NA,NA,NA,NA,NA,sdfdsf,NA,1,NA,NA,NA,NA,NA,NA,NA,NA,NA,NA,NA,NA,NA,NA,NA,NA,NA,NA,NA
21523,weiter,canvas.Screen,3_0_1_1,sdf,keypress(Space),response,2484.4489999523,662598.39999998,662596.777,662613.351,665097.79999995,665098.29999995,2023-11-11T10:23:04Z,665129.997,NULL,NA,NA,NA,NA,NA,NA,NA,sdfdsf,NA,1,NA,NA,NA,NA,NA,NA,NA,NA,NA,NA,NA,NA,NA,NA,NA,NA,NA,NA,NA
21523,check continue,flow.Sequence,3_0_1,NA,NA,completion,110284.12799995,554800.39999998,554795.439,554813.672,665097.79999995,665098.29999995,2023-11-11T10:23:04Z,665129.997,NULL,NA,NA,NA,NA,NA,NA,NA,sdfdsf,NA,1,NA,NA,NA,NA,NA,NA,NA,NA,NA,NA,NA,NA,NA,NA,NA,NA,NA,NA,NA
21523,deep,flow.Sequence,3_0_2_0_0_0,NA,NA,skipped,NA,665113.29999995,NA,NA,665097.79999995,665113.39999998,2023-11-11T10:23:04Z,665129.997,NULL,Schönheit,kirembo,s,mahojiano,msisimko,jitihadi,NA,sdf,NA,2,NA,NA,NA,NA,NA,NA,NA,NA,NA,NA,NA,NA,NA,NA,NA,NA,NA,NA,NA
21523,Shallow Question,html.Page,3_0_2_0_0_1_0,NA,NA,form submission,14669.702999929,665113.39999998,665113.31,665129.997,679799.69999993,679799.79999995,2023-11-11T10:23:19Z,679813.424,NULL,Schönheit,kirembo,s,mahojiano,msisimko,jitihadi,mahojiano,NA,NA,2,NA,NA,NA,NA,NA,NA,NA,NA,NA,NA,NA,NA,NA,NA,NA,NA,NA,NA,NA
21523,"""Richtig""-Screen",canvas.Screen,3_0_2_0_0_1_1,NA,NA,skipped,NA,679800.89999998,NA,NA,679799.69999993,679801,2023-11-11T10:23:19Z,679813.424,NULL,Schönheit,kirembo,s,mahojiano,msisimko,jitihadi,NA,sdf,NA,2,NA,NA,NA,NA,NA,NA,NA,NA,NA,NA,NA,NA,NA,NA,NA,NA,NA,NA,NA
21523,"""Falsch""-Screen",canvas.Screen,3_0_2_0_0_1_2,NA,NA,timeout,4999.932,679801.29999995,679796.692,679813.424,684796.61,684798.69999993,2023-11-11T10:23:24Z,684813.356,NULL,Schönheit,kirembo,s,mahojiano,msisimko,jitihadi,NA,sdf,0,2,NA,NA,NA,NA,NA,NA,NA,NA,NA,NA,NA,NA,NA,NA,NA,NA,NA,NA,NA
21523,shallow,flow.Sequence,3_0_2_0_0_1,NA,NA,completion,19666.613,665113.39999998,665113.31,665129.997,684796.61,684798.79999995,2023-11-11T10:23:24Z,684813.356,NULL,Schönheit,kirembo,s,mahojiano,msisimko,jitihadi,NA,sdf,NA,2,NA,NA,NA,NA,NA,NA,NA,NA,NA,NA,NA,NA,NA,NA,NA,NA,NA,NA,NA
21523,task,flow.Sequence,3_0_2_0_0,NA,NA,completion,19666.613,665113.19999993,665113.31,665129.997,684796.61,684798.89999998,2023-11-11T10:23:24Z,684813.356,NULL,Schönheit,kirembo,s,mahojiano,msisimko,jitihadi,NA,sdf,NA,2,NA,NA,NA,NA,NA,NA,NA,NA,NA,NA,NA,NA,NA,NA,NA,NA,NA,NA,NA
21523,Deep Question,html.Page,3_0_2_0_1_0_0,NA,NA,form submission,8286.4439999523,684798.89999998,684796.61,684813.356,693099.79999995,693100,2023-11-11T10:23:32Z,693113.237,NULL,Sänger,mwimbaji,d,NA,NA,NA,kukit,NA,NA,2,NA,NA,NA,NA,NA,NA,NA,NA,NA,NA,NA,NA,NA,NA,NA,NA,NA,NA,NA
21523,"""Richtig""-Screen",canvas.Screen,3_0_2_0_1_0_1,NA,NA,skipped,NA,693101.10000002,NA,NA,693099.79999995,693101.19999993,2023-11-11T10:23:32Z,693113.237,NULL,Sänger,mwimbaji,d,NA,NA,NA,NA,sdf,NA,2,NA,NA,NA,NA,NA,NA,NA,NA,NA,NA,NA,NA,NA,NA,NA,NA,NA,NA,NA
21523,"""Falsch""-Screen",canvas.Screen,3_0_2_0_1_0_2,NA,NA,timeout,5000.0310000001,693101.5,693096.697,693113.237,698096.766,698098.19999993,2023-11-11T10:23:37Z,698113.268,NULL,Sänger,mwimbaji,d,NA,NA,NA,NA,sdf,0,2,NA,NA,NA,NA,NA,NA,NA,NA,NA,NA,NA,NA,NA,NA,NA,NA,NA,NA,NA
21523,deep,flow.Sequence,3_0_2_0_1_0,NA,NA,completion,13283.41,684798.89999998,684796.61,684813.356,698096.766,698098.19999993,2023-11-11T10:23:37Z,698113.268,NULL,Sänger,mwimbaji,d,NA,NA,NA,NA,sdf,NA,2,NA,NA,NA,NA,NA,NA,NA,NA,NA,NA,NA,NA,NA,NA,NA,NA,NA,NA,NA
21523,shallow,flow.Sequence,3_0_2_0_1_1,NA,NA,skipped,NA,698098.29999995,NA,NA,698096.766,698098.29999995,2023-11-11T10:23:37Z,698113.268,NULL,Sänger,mwimbaji,d,NA,NA,NA,NA,sdf,NA,2,NA,NA,NA,NA,NA,NA,NA,NA,NA,NA,NA,NA,NA,NA,NA,NA,NA,NA,NA
21523,task,flow.Sequence,3_0_2_0_1,NA,NA,completion,13283.41,684798.89999998,684796.61,684813.356,698096.766,698098.29999995,2023-11-11T10:23:37Z,698113.268,NULL,Sänger,mwimbaji,d,NA,NA,NA,NA,sdf,NA,2,NA,NA,NA,NA,NA,NA,NA,NA,NA,NA,NA,NA,NA,NA,NA,NA,NA,NA,NA
21523,deep,flow.Sequence,3_0_2_0_2_0,NA,NA,skipped,NA,698098.39999998,NA,NA,698096.766,698098.39999998,2023-11-11T10:23:37Z,698113.268,NULL,Kanzler,diwani,s,rasilmali,mahitaji,maabudu,NA,sdf,NA,2,NA,NA,NA,NA,NA,NA,NA,NA,NA,NA,NA,NA,NA,NA,NA,NA,NA,NA,NA
21523,Shallow Question,html.Page,3_0_2_0_2_1_0,NA,NA,form submission,11126.931999928,698098.39999998,698096.766,698113.268,709240.19999993,709240.29999995,2023-11-11T10:23:48Z,709246.595,NULL,Kanzler,diwani,s,rasilmali,mahitaji,maabudu,diwani,NA,NA,2,NA,NA,NA,NA,NA,NA,NA,NA,NA,NA,NA,NA,NA,NA,NA,NA,NA,NA,NA
21523,"""Richtig""-Screen",canvas.Screen,3_0_2_0_2_1_1,NA,NA,timeout,5000.177,709241.29999995,709230.096,709246.595,714230.046,714231.69999993,2023-11-11T10:23:53Z,714246.772,NULL,Kanzler,diwani,s,rasilmali,mahitaji,maabudu,NA,sdf,1,2,NA,NA,NA,NA,NA,NA,NA,NA,NA,NA,NA,NA,NA,NA,NA,NA,NA,NA,NA
21523,"""Falsch""-Screen",canvas.Screen,3_0_2_0_2_1_2,NA,NA,skipped,NA,714232.69999993,NA,NA,714230.046,714232.69999993,2023-11-11T10:23:53Z,714246.772,NULL,Kanzler,diwani,s,rasilmali,mahitaji,maabudu,NA,sdf,NA,2,NA,NA,NA,NA,NA,NA,NA,NA,NA,NA,NA,NA,NA,NA,NA,NA,NA,NA,NA
21523,shallow,flow.Sequence,3_0_2_0_2_1,NA,NA,completion,16116.778,698098.39999998,698096.766,698113.268,714230.046,714232.69999993,2023-11-11T10:23:53Z,714246.772,NULL,Kanzler,diwani,s,rasilmali,mahitaji,maabudu,NA,sdf,NA,2,NA,NA,NA,NA,NA,NA,NA,NA,NA,NA,NA,NA,NA,NA,NA,NA,NA,NA,NA
21523,task,flow.Sequence,3_0_2_0_2,NA,NA,completion,16116.778,698098.29999995,698096.766,698113.268,714230.046,714232.79999995,2023-11-11T10:23:53Z,714246.772,NULL,Kanzler,diwani,s,rasilmali,mahitaji,maabudu,NA,sdf,NA,2,NA,NA,NA,NA,NA,NA,NA,NA,NA,NA,NA,NA,NA,NA,NA,NA,NA,NA,NA
21523,deep,flow.Sequence,3_0_2_0_3_0,NA,NA,skipped,NA,714232.79999995,NA,NA,714230.046,714232.89999998,2023-11-11T10:23:53Z,714246.772,NULL,Zufall,kikuti,s,kukosekana,uchoraji,leseni,NA,sdf,NA,2,NA,NA,NA,NA,NA,NA,NA,NA,NA,NA,NA,NA,NA,NA,NA,NA,NA,NA,NA
21523,Shallow Question,html.Page,3_0_2_0_3_1_0,NA,NA,form submission,4697.228,714232.89999998,714230.046,714246.772,718944,718944.10000002,2023-11-11T10:23:58Z,718946.474,NULL,Zufall,kikuti,s,kukosekana,uchoraji,leseni,kikuti,NA,NA,2,NA,NA,NA,NA,NA,NA,NA,NA,NA,NA,NA,NA,NA,NA,NA,NA,NA,NA,NA
21523,"""Richtig""-Screen",canvas.Screen,3_0_2_0_3_1_1,NA,NA,timeout,5000.135,718945.10000002,718930.179,718946.474,723929.848,723930.60000002,2023-11-11T10:24:03Z,723946.609,NULL,Zufall,kikuti,s,kukosekana,uchoraji,leseni,NA,sdf,1,2,NA,NA,NA,NA,NA,NA,NA,NA,NA,NA,NA,NA,NA,NA,NA,NA,NA,NA,NA
21523,"""Falsch""-Screen",canvas.Screen,3_0_2_0_3_1_2,NA,NA,skipped,NA,723932.29999995,NA,NA,723929.848,723932.60000002,2023-11-11T10:24:03Z,723946.609,NULL,Zufall,kikuti,s,kukosekana,uchoraji,leseni,NA,sdf,NA,2,NA,NA,NA,NA,NA,NA,NA,NA,NA,NA,NA,NA,NA,NA,NA,NA,NA,NA,NA
21523,shallow,flow.Sequence,3_0_2_0_3_1,NA,NA,completion,9683.076,714232.89999998,714230.046,714246.772,723929.848,723932.69999993,2023-11-11T10:24:03Z,723946.609,NULL,Zufall,kikuti,s,kukosekana,uchoraji,leseni,NA,sdf,NA,2,NA,NA,NA,NA,NA,NA,NA,NA,NA,NA,NA,NA,NA,NA,NA,NA,NA,NA,NA
21523,task,flow.Sequence,3_0_2_0_3,NA,NA,completion,9683.076,714232.79999995,714230.046,714246.772,723929.848,723932.79999995,2023-11-11T10:24:03Z,723946.609,NULL,Zufall,kikuti,s,kukosekana,uchoraji,leseni,NA,sdf,NA,2,NA,NA,NA,NA,NA,NA,NA,NA,NA,NA,NA,NA,NA,NA,NA,NA,NA,NA,NA
21523,deep,flow.Sequence,3_0_2_0_4_0,NA,NA,skipped,NA,723932.89999998,NA,NA,723929.848,723932.89999998,2023-11-11T10:24:03Z,723946.609,NULL,Abrechnung,uhasibu,s,kusahihisha,mpambano,mashambulizi,NA,sdf,NA,2,NA,NA,NA,NA,NA,NA,NA,NA,NA,NA,NA,NA,NA,NA,NA,NA,NA,NA,NA
21523,Shallow Question,html.Page,3_0_2_0_4_1_0,NA,NA,form submission,6122.3909999999,723933,723929.848,723946.609,730069,730069.10000002,2023-11-11T10:24:09Z,730079.911,NULL,Abrechnung,uhasibu,s,kusahihisha,mpambano,mashambulizi,mashambulizi,NA,NA,2,NA,NA,NA,NA,NA,NA,NA,NA,NA,NA,NA,NA,NA,NA,NA,NA,NA,NA,NA
21523,"""Richtig""-Screen",canvas.Screen,3_0_2_0_4_1_1,NA,NA,skipped,NA,730070.10000002,NA,NA,730069,730070.19999993,2023-11-11T10:24:09Z,730079.911,NULL,Abrechnung,uhasibu,s,kusahihisha,mpambano,mashambulizi,NA,sdf,NA,2,NA,NA,NA,NA,NA,NA,NA,NA,NA,NA,NA,NA,NA,NA,NA,NA,NA,NA,NA
21523,"""Falsch""-Screen",canvas.Screen,3_0_2_0_4_1_2,NA,NA,timeout,5000.108,730070.5,730063.288,730079.911,735063.252,735063.89999998,2023-11-11T10:24:14Z,735080.019,NULL,Abrechnung,uhasibu,s,kusahihisha,mpambano,mashambulizi,NA,sdf,0,2,NA,NA,NA,NA,NA,NA,NA,NA,NA,NA,NA,NA,NA,NA,NA,NA,NA,NA,NA
21523,shallow,flow.Sequence,3_0_2_0_4_1,NA,NA,completion,11116.643,723933,723929.848,723946.609,735063.252,735063.89999998,2023-11-11T10:24:14Z,735080.019,NULL,Abrechnung,uhasibu,s,kusahihisha,mpambano,mashambulizi,NA,sdf,NA,2,NA,NA,NA,NA,NA,NA,NA,NA,NA,NA,NA,NA,NA,NA,NA,NA,NA,NA,NA
21523,task,flow.Sequence,3_0_2_0_4,NA,NA,completion,11116.643,723932.89999998,723929.848,723946.609,735063.252,735064,2023-11-11T10:24:14Z,735080.019,NULL,Abrechnung,uhasibu,s,kusahihisha,mpambano,mashambulizi,NA,sdf,NA,2,NA,NA,NA,NA,NA,NA,NA,NA,NA,NA,NA,NA,NA,NA,NA,NA,NA,NA,NA
21523,Deep Question,html.Page,3_0_2_0_5_0_0,NA,NA,form submission,4621.0810000239,735064.10000002,735063.252,735080.019,739701.10000002,739701.29999995,2023-11-11T10:24:19Z,739713.252,NULL,Angreifer,mshambulizi,d,NA,NA,NA,kreek,NA,NA,2,NA,NA,NA,NA,NA,NA,NA,NA,NA,NA,NA,NA,NA,NA,NA,NA,NA,NA,NA
21523,"""Richtig""-Screen",canvas.Screen,3_0_2_0_5_0_1,NA,NA,skipped,NA,739702.5,NA,NA,739701.10000002,739702.60000002,2023-11-11T10:24:19Z,739713.252,NULL,Angreifer,mshambulizi,d,NA,NA,NA,NA,sdf,NA,2,NA,NA,NA,NA,NA,NA,NA,NA,NA,NA,NA,NA,NA,NA,NA,NA,NA,NA,NA
21523,"""Falsch""-Screen",canvas.Screen,3_0_2_0_5_0_2,NA,NA,timeout,5000.052,739702.89999998,739696.74,739713.252,744696.542,744698.60000002,2023-11-11T10:24:24Z,744713.304,NULL,Angreifer,mshambulizi,d,NA,NA,NA,NA,sdf,0,2,NA,NA,NA,NA,NA,NA,NA,NA,NA,NA,NA,NA,NA,NA,NA,NA,NA,NA,NA
21523,deep,flow.Sequence,3_0_2_0_5_0,NA,NA,completion,9616.523,735064.10000002,735063.252,735080.019,744696.542,744698.60000002,2023-11-11T10:24:24Z,744713.304,NULL,Angreifer,mshambulizi,d,NA,NA,NA,NA,sdf,NA,2,NA,NA,NA,NA,NA,NA,NA,NA,NA,NA,NA,NA,NA,NA,NA,NA,NA,NA,NA
21523,shallow,flow.Sequence,3_0_2_0_5_1,NA,NA,skipped,NA,744698.60000002,NA,NA,744696.542,744698.60000002,2023-11-11T10:24:24Z,744713.304,NULL,Angreifer,mshambulizi,d,NA,NA,NA,NA,sdf,NA,2,NA,NA,NA,NA,NA,NA,NA,NA,NA,NA,NA,NA,NA,NA,NA,NA,NA,NA,NA
21523,task,flow.Sequence,3_0_2_0_5,NA,NA,completion,9616.523,735064,735063.252,735080.019,744696.542,744698.69999993,2023-11-11T10:24:24Z,744713.304,NULL,Angreifer,mshambulizi,d,NA,NA,NA,NA,sdf,NA,2,NA,NA,NA,NA,NA,NA,NA,NA,NA,NA,NA,NA,NA,NA,NA,NA,NA,NA,NA
21523,Deep Question,html.Page,3_0_2_0_6_0_0,NA,NA,form submission,8707.7960000238,744698.69999993,744696.542,744713.304,753421.10000002,753421.19999993,2023-11-11T10:24:32Z,753429.964,NULL,Wettbewerb,ushindani,d,NA,NA,NA,medji,NA,NA,2,NA,NA,NA,NA,NA,NA,NA,NA,NA,NA,NA,NA,NA,NA,NA,NA,NA,NA,NA
21523,"""Richtig""-Screen",canvas.Screen,3_0_2_0_6_0_1,NA,NA,skipped,NA,753422.69999993,NA,NA,753421.10000002,753422.69999993,2023-11-11T10:24:32Z,753429.964,NULL,Wettbewerb,ushindani,d,NA,NA,NA,NA,sdf,NA,2,NA,NA,NA,NA,NA,NA,NA,NA,NA,NA,NA,NA,NA,NA,NA,NA,NA,NA,NA
21523,"""Falsch""-Screen",canvas.Screen,3_0_2_0_6_0_2,NA,NA,timeout,4999.987,753423,753413.351,753429.964,758413.245,758413.89999998,2023-11-11T10:24:37Z,758429.951,NULL,Wettbewerb,ushindani,d,NA,NA,NA,NA,sdf,0,2,NA,NA,NA,NA,NA,NA,NA,NA,NA,NA,NA,NA,NA,NA,NA,NA,NA,NA,NA
21523,deep,flow.Sequence,3_0_2_0_6_0,NA,NA,completion,13699.941,744698.69999993,744696.542,744713.304,758413.245,758414,2023-11-11T10:24:37Z,758429.951,NULL,Wettbewerb,ushindani,d,NA,NA,NA,NA,sdf,NA,2,NA,NA,NA,NA,NA,NA,NA,NA,NA,NA,NA,NA,NA,NA,NA,NA,NA,NA,NA
21523,shallow,flow.Sequence,3_0_2_0_6_1,NA,NA,skipped,NA,758414,NA,NA,758413.245,758414.10000002,2023-11-11T10:24:37Z,758429.951,NULL,Wettbewerb,ushindani,d,NA,NA,NA,NA,sdf,NA,2,NA,NA,NA,NA,NA,NA,NA,NA,NA,NA,NA,NA,NA,NA,NA,NA,NA,NA,NA
21523,task,flow.Sequence,3_0_2_0_6,NA,NA,completion,13699.941,744698.69999993,744696.542,744713.304,758413.245,758414.10000002,2023-11-11T10:24:37Z,758429.951,NULL,Wettbewerb,ushindani,d,NA,NA,NA,NA,sdf,NA,2,NA,NA,NA,NA,NA,NA,NA,NA,NA,NA,NA,NA,NA,NA,NA,NA,NA,NA,NA
21523,Deep Question,html.Page,3_0_2_0_7_0_0,NA,NA,form submission,20980.848999952,758414.19999993,758413.245,758429.951,779410.79999995,779411,2023-11-11T10:24:58Z,779413.109,NULL,Auftrag,uagizaji,d,NA,NA,NA,ushimba,NA,NA,2,NA,NA,NA,NA,NA,NA,NA,NA,NA,NA,NA,NA,NA,NA,NA,NA,NA,NA,NA
21523,"""Richtig""-Screen",canvas.Screen,3_0_2_0_7_0_1,NA,NA,skipped,NA,779412,NA,NA,779410.79999995,779412.10000002,2023-11-11T10:24:58Z,779413.109,NULL,Auftrag,uagizaji,d,NA,NA,NA,NA,sdf,NA,2,NA,NA,NA,NA,NA,NA,NA,NA,NA,NA,NA,NA,NA,NA,NA,NA,NA,NA,NA
21523,"""Falsch""-Screen",canvas.Screen,3_0_2_0_7_0_2,NA,NA,timeout,5000.188,779412.5,779396.58,779413.109,784396.603,784399.39999998,2023-11-11T10:25:03Z,784413.297,NULL,Auftrag,uagizaji,d,NA,NA,NA,NA,sdf,0,2,NA,NA,NA,NA,NA,NA,NA,NA,NA,NA,NA,NA,NA,NA,NA,NA,NA,NA,NA
21523,deep,flow.Sequence,3_0_2_0_7_0,NA,NA,completion,25966.652,758414.19999993,758413.245,758429.951,784396.603,784399.5,2023-11-11T10:25:03Z,784413.297,NULL,Auftrag,uagizaji,d,NA,NA,NA,NA,sdf,NA,2,NA,NA,NA,NA,NA,NA,NA,NA,NA,NA,NA,NA,NA,NA,NA,NA,NA,NA,NA
21523,shallow,flow.Sequence,3_0_2_0_7_1,NA,NA,skipped,NA,784399.5,NA,NA,784396.603,784399.60000002,2023-11-11T10:25:03Z,784413.297,NULL,Auftrag,uagizaji,d,NA,NA,NA,NA,sdf,NA,2,NA,NA,NA,NA,NA,NA,NA,NA,NA,NA,NA,NA,NA,NA,NA,NA,NA,NA,NA
21523,task,flow.Sequence,3_0_2_0_7,NA,NA,completion,25966.652,758414.10000002,758413.245,758429.951,784396.603,784399.60000002,2023-11-11T10:25:03Z,784413.297,NULL,Auftrag,uagizaji,d,NA,NA,NA,NA,sdf,NA,2,NA,NA,NA,NA,NA,NA,NA,NA,NA,NA,NA,NA,NA,NA,NA,NA,NA,NA,NA
21523,block,flow.Loop,3_0_2_0,NA,NA,completion,119266.606,665113.19999993,665113.31,665129.997,784396.603,784399.69999993,2023-11-11T10:25:03Z,784413.297,NULL,NA,NA,NA,NA,NA,NA,NA,sdf,NA,2,NA,NA,NA,NA,NA,NA,NA,NA,NA,NA,NA,NA,NA,NA,NA,NA,NA,NA,NA
21523,weiter,canvas.Screen,3_0_2_1,sdf,keypress(Space),response,9152.9029999285,784399.69999993,784396.603,784413.297,793566.19999993,793566.69999993,2023-11-11T10:25:13Z,793596.728,NULL,NA,NA,NA,NA,NA,NA,NA,sdf,NA,2,NA,NA,NA,NA,NA,NA,NA,NA,NA,NA,NA,NA,NA,NA,NA,NA,NA,NA,NA
21523,check continue,flow.Sequence,3_0_2,NA,NA,completion,128436.20299993,665113.19999993,665113.31,665129.997,793566.19999993,793566.79999995,2023-11-11T10:25:13Z,793596.728,NULL,NA,NA,NA,NA,NA,NA,NA,sdf,NA,2,NA,NA,NA,NA,NA,NA,NA,NA,NA,NA,NA,NA,NA,NA,NA,NA,NA,NA,NA
21523,Deep Question,html.Page,3_0_3_0_0_0_0,NA,NA,form submission,29118.772,793582.69999993,793579.762,793596.728,822715.5,822715.69999993,2023-11-11T10:25:42Z,822729.982,NULL,Sänger,mwimbaji,d,NA,NA,NA,ushambi,NA,NA,3,NA,NA,NA,NA,NA,NA,NA,NA,NA,NA,NA,NA,NA,NA,NA,NA,NA,NA,NA
21523,"""Richtig""-Screen",canvas.Screen,3_0_3_0_0_0_1,NA,NA,skipped,NA,822717,NA,NA,822715.5,822717,2023-11-11T10:25:42Z,822729.982,NULL,Sänger,mwimbaji,d,NA,NA,NA,NA,qt,NA,3,NA,NA,NA,NA,NA,NA,NA,NA,NA,NA,NA,NA,NA,NA,NA,NA,NA,NA,NA
21523,"""Falsch""-Screen",canvas.Screen,3_0_3_0_0_0_2,NA,NA,timeout,4999.8890000001,822717.39999998,822713.293,822729.982,827713.277,827714.89999998,2023-11-11T10:25:47Z,827729.871,NULL,Sänger,mwimbaji,d,NA,NA,NA,NA,qt,0,3,NA,NA,NA,NA,NA,NA,NA,NA,NA,NA,NA,NA,NA,NA,NA,NA,NA,NA,NA
21523,deep,flow.Sequence,3_0_3_0_0_0,NA,NA,completion,34116.549,793582.69999993,793579.762,793596.728,827713.277,827715.10000002,2023-11-11T10:25:47Z,827729.871,NULL,Sänger,mwimbaji,d,NA,NA,NA,NA,qt,NA,3,NA,NA,NA,NA,NA,NA,NA,NA,NA,NA,NA,NA,NA,NA,NA,NA,NA,NA,NA
21523,shallow,flow.Sequence,3_0_3_0_0_1,NA,NA,skipped,NA,827715.10000002,NA,NA,827713.277,827715.19999993,2023-11-11T10:25:47Z,827729.871,NULL,Sänger,mwimbaji,d,NA,NA,NA,NA,qt,NA,3,NA,NA,NA,NA,NA,NA,NA,NA,NA,NA,NA,NA,NA,NA,NA,NA,NA,NA,NA
21523,task,flow.Sequence,3_0_3_0_0,NA,NA,completion,34116.549,793582.69999993,793579.762,793596.728,827713.277,827715.19999993,2023-11-11T10:25:47Z,827729.871,NULL,Sänger,mwimbaji,d,NA,NA,NA,NA,qt,NA,3,NA,NA,NA,NA,NA,NA,NA,NA,NA,NA,NA,NA,NA,NA,NA,NA,NA,NA,NA
21523,deep,flow.Sequence,3_0_3_0_1_0,NA,NA,skipped,NA,827715.19999993,NA,NA,827713.277,827715.19999993,2023-11-11T10:25:47Z,827729.871,NULL,Kanzler,diwani,s,rasilmali,mahitaji,maabudu,NA,qt,NA,3,NA,NA,NA,NA,NA,NA,NA,NA,NA,NA,NA,NA,NA,NA,NA,NA,NA,NA,NA
21523,Shallow Question,html.Page,3_0_3_0_1_1_0,NA,NA,form submission,8732.0289999761,827715.19999993,827713.277,827729.871,836461.89999998,836462,2023-11-11T10:25:55Z,836463.157,NULL,Kanzler,diwani,s,rasilmali,mahitaji,maabudu,diwani,NA,NA,3,NA,NA,NA,NA,NA,NA,NA,NA,NA,NA,NA,NA,NA,NA,NA,NA,NA,NA,NA
21523,"""Richtig""-Screen",canvas.Screen,3_0_3_0_1_1_1,NA,NA,timeout,5000.0159999999,836463.10000002,836446.545,836463.157,841446.687,841448.19999993,2023-11-11T10:26:00Z,841463.173,NULL,Kanzler,diwani,s,rasilmali,mahitaji,maabudu,NA,qt,1,3,NA,NA,NA,NA,NA,NA,NA,NA,NA,NA,NA,NA,NA,NA,NA,NA,NA,NA,NA
21523,"""Falsch""-Screen",canvas.Screen,3_0_3_0_1_1_2,NA,NA,skipped,NA,841449.10000002,NA,NA,841446.687,841449.19999993,2023-11-11T10:26:00Z,841463.173,NULL,Kanzler,diwani,s,rasilmali,mahitaji,maabudu,NA,qt,NA,3,NA,NA,NA,NA,NA,NA,NA,NA,NA,NA,NA,NA,NA,NA,NA,NA,NA,NA,NA
21523,shallow,flow.Sequence,3_0_3_0_1_1,NA,NA,completion,13716.816,827715.19999993,827713.277,827729.871,841446.687,841449.29999995,2023-11-11T10:26:00Z,841463.173,NULL,Kanzler,diwani,s,rasilmali,mahitaji,maabudu,NA,qt,NA,3,NA,NA,NA,NA,NA,NA,NA,NA,NA,NA,NA,NA,NA,NA,NA,NA,NA,NA,NA
21523,task,flow.Sequence,3_0_3_0_1,NA,NA,completion,13716.816,827715.19999993,827713.277,827729.871,841446.687,841449.29999995,2023-11-11T10:26:00Z,841463.173,NULL,Kanzler,diwani,s,rasilmali,mahitaji,maabudu,NA,qt,NA,3,NA,NA,NA,NA,NA,NA,NA,NA,NA,NA,NA,NA,NA,NA,NA,NA,NA,NA,NA
21523,deep,flow.Sequence,3_0_3_0_2_0,NA,NA,skipped,NA,841449.29999995,NA,NA,841446.687,841449.39999998,2023-11-11T10:26:00Z,841463.173,NULL,Zufall,kikuti,s,kukosekana,uchoraji,leseni,NA,qt,NA,3,NA,NA,NA,NA,NA,NA,NA,NA,NA,NA,NA,NA,NA,NA,NA,NA,NA,NA,NA
21523,Shallow Question,html.Page,3_0_3_0_2_1_0,NA,NA,form submission,12732.927000024,841449.39999998,841446.687,841463.173,854196.10000002,854196.19999993,2023-11-11T10:26:13Z,854214.51,NULL,Zufall,kikuti,s,kukosekana,uchoraji,leseni,uchoraji,NA,NA,3,NA,NA,NA,NA,NA,NA,NA,NA,NA,NA,NA,NA,NA,NA,NA,NA,NA,NA,NA
21523,"""Richtig""-Screen",canvas.Screen,3_0_3_0_2_1_1,NA,NA,skipped,NA,854197.39999998,NA,NA,854196.10000002,854197.39999998,2023-11-11T10:26:13Z,854214.51,NULL,Zufall,kikuti,s,kukosekana,uchoraji,leseni,NA,qt,NA,3,NA,NA,NA,NA,NA,NA,NA,NA,NA,NA,NA,NA,NA,NA,NA,NA,NA,NA,NA
21523,"""Falsch""-Screen",canvas.Screen,3_0_3_0_2_1_2,NA,NA,timeout,4998.829,854197.89999998,854179.853,854214.51,859196.642,859198.19999993,2023-11-11T10:26:18Z,859213.339,NULL,Zufall,kikuti,s,kukosekana,uchoraji,leseni,NA,qt,0,3,NA,NA,NA,NA,NA,NA,NA,NA,NA,NA,NA,NA,NA,NA,NA,NA,NA,NA,NA
21523,shallow,flow.Sequence,3_0_3_0_2_1,NA,NA,completion,17733.469,841449.39999998,841446.687,841463.173,859196.642,859198.29999995,2023-11-11T10:26:18Z,859213.339,NULL,Zufall,kikuti,s,kukosekana,uchoraji,leseni,NA,qt,NA,3,NA,NA,NA,NA,NA,NA,NA,NA,NA,NA,NA,NA,NA,NA,NA,NA,NA,NA,NA
21523,task,flow.Sequence,3_0_3_0_2,NA,NA,completion,17733.469,841449.29999995,841446.687,841463.173,859196.642,859198.39999998,2023-11-11T10:26:18Z,859213.339,NULL,Zufall,kikuti,s,kukosekana,uchoraji,leseni,NA,qt,NA,3,NA,NA,NA,NA,NA,NA,NA,NA,NA,NA,NA,NA,NA,NA,NA,NA,NA,NA,NA
21523,deep,flow.Sequence,3_0_3_0_3_0,NA,NA,skipped,NA,859198.39999998,NA,NA,859196.642,859198.39999998,2023-11-11T10:26:18Z,859213.339,NULL,Schönheit,kirembo,s,mahojiano,msisimko,jitihadi,NA,qt,NA,3,NA,NA,NA,NA,NA,NA,NA,NA,NA,NA,NA,NA,NA,NA,NA,NA,NA,NA,NA
21523,Shallow Question,html.Page,3_0_3_0_3_1_0,NA,NA,form submission,6756.8609999284,859198.39999998,859196.642,859213.339,865970.19999993,865970.29999995,2023-11-11T10:26:25Z,865979.896,NULL,Schönheit,kirembo,s,mahojiano,msisimko,jitihadi,mahojiano,NA,NA,3,NA,NA,NA,NA,NA,NA,NA,NA,NA,NA,NA,NA,NA,NA,NA,NA,NA,NA,NA
21523,"""Richtig""-Screen",canvas.Screen,3_0_3_0_3_1_1,NA,NA,skipped,NA,865971.5,NA,NA,865970.19999993,865971.5,2023-11-11T10:26:25Z,865979.896,NULL,Schönheit,kirembo,s,mahojiano,msisimko,jitihadi,NA,qt,NA,3,NA,NA,NA,NA,NA,NA,NA,NA,NA,NA,NA,NA,NA,NA,NA,NA,NA,NA,NA
21523,"""Falsch""-Screen",canvas.Screen,3_0_3_0_3_1_2,NA,NA,timeout,5000,865971.79999995,865963.274,865979.896,870963.126,870965,2023-11-11T10:26:30Z,870979.896,NULL,Schönheit,kirembo,s,mahojiano,msisimko,jitihadi,NA,qt,0,3,NA,NA,NA,NA,NA,NA,NA,NA,NA,NA,NA,NA,NA,NA,NA,NA,NA,NA,NA
21523,shallow,flow.Sequence,3_0_3_0_3_1,NA,NA,completion,11749.787,859198.39999998,859196.642,859213.339,870963.126,870965,2023-11-11T10:26:30Z,870979.896,NULL,Schönheit,kirembo,s,mahojiano,msisimko,jitihadi,NA,qt,NA,3,NA,NA,NA,NA,NA,NA,NA,NA,NA,NA,NA,NA,NA,NA,NA,NA,NA,NA,NA
21523,task,flow.Sequence,3_0_3_0_3,NA,NA,completion,11749.787,859198.39999998,859196.642,859213.339,870963.126,870965.19999993,2023-11-11T10:26:30Z,870979.896,NULL,Schönheit,kirembo,s,mahojiano,msisimko,jitihadi,NA,qt,NA,3,NA,NA,NA,NA,NA,NA,NA,NA,NA,NA,NA,NA,NA,NA,NA,NA,NA,NA,NA
21523,deep,flow.Sequence,3_0_3_0_4_0,NA,NA,skipped,NA,870965.19999993,NA,NA,870963.126,870965.19999993,2023-11-11T10:26:30Z,870979.896,NULL,Abrechnung,uhasibu,s,kusahihisha,mpambano,mashambulizi,NA,qt,NA,3,NA,NA,NA,NA,NA,NA,NA,NA,NA,NA,NA,NA,NA,NA,NA,NA,NA,NA,NA
21523,Shallow Question,html.Page,3_0_3_0_4_1_0,NA,NA,form submission,9375.4039999524,870965.19999993,870963.126,870979.896,880355.29999995,880355.29999995,2023-11-11T10:26:39Z,880363.164,NULL,Abrechnung,uhasibu,s,kusahihisha,mpambano,mashambulizi,kusahihisha,NA,NA,3,NA,NA,NA,NA,NA,NA,NA,NA,NA,NA,NA,NA,NA,NA,NA,NA,NA,NA,NA
21523,"""Richtig""-Screen",canvas.Screen,3_0_3_0_4_1_1,NA,NA,skipped,NA,880356.29999995,NA,NA,880355.29999995,880356.5,2023-11-11T10:26:39Z,880363.164,NULL,Abrechnung,uhasibu,s,kusahihisha,mpambano,mashambulizi,NA,qt,NA,3,NA,NA,NA,NA,NA,NA,NA,NA,NA,NA,NA,NA,NA,NA,NA,NA,NA,NA,NA
21523,"""Falsch""-Screen",canvas.Screen,3_0_3_0_4_1_2,NA,NA,timeout,5000.066,880356.69999993,880346.555,880363.164,885346.468,885347.79999995,2023-11-11T10:26:44Z,885363.23,NULL,Abrechnung,uhasibu,s,kusahihisha,mpambano,mashambulizi,NA,qt,0,3,NA,NA,NA,NA,NA,NA,NA,NA,NA,NA,NA,NA,NA,NA,NA,NA,NA,NA,NA
21523,shallow,flow.Sequence,3_0_3_0_4_1,NA,NA,completion,14366.572,870965.19999993,870963.126,870979.896,885346.468,885347.79999995,2023-11-11T10:26:44Z,885363.23,NULL,Abrechnung,uhasibu,s,kusahihisha,mpambano,mashambulizi,NA,qt,NA,3,NA,NA,NA,NA,NA,NA,NA,NA,NA,NA,NA,NA,NA,NA,NA,NA,NA,NA,NA
21523,task,flow.Sequence,3_0_3_0_4,NA,NA,completion,14366.572,870965.19999993,870963.126,870979.896,885346.468,885347.79999995,2023-11-11T10:26:44Z,885363.23,NULL,Abrechnung,uhasibu,s,kusahihisha,mpambano,mashambulizi,NA,qt,NA,3,NA,NA,NA,NA,NA,NA,NA,NA,NA,NA,NA,NA,NA,NA,NA,NA,NA,NA,NA
21523,Deep Question,html.Page,3_0_3_0_5_0_0,NA,NA,form submission,6379.1699999762,885347.89999998,885346.468,885363.23,891742.39999998,891742.60000002,2023-11-11T10:26:51Z,891763.287,NULL,Wettbewerb,ushindani,d,NA,NA,NA,usambi,NA,NA,3,NA,NA,NA,NA,NA,NA,NA,NA,NA,NA,NA,NA,NA,NA,NA,NA,NA,NA,NA
21523,"""Richtig""-Screen",canvas.Screen,3_0_3_0_5_0_1,NA,NA,skipped,NA,891743.60000002,NA,NA,891742.39999998,891743.60000002,2023-11-11T10:26:51Z,891763.287,NULL,Wettbewerb,ushindani,d,NA,NA,NA,NA,qt,NA,3,NA,NA,NA,NA,NA,NA,NA,NA,NA,NA,NA,NA,NA,NA,NA,NA,NA,NA,NA
21523,"""Falsch""-Screen",canvas.Screen,3_0_3_0_5_0_2,NA,NA,timeout,4999.871,891744,891729.894,891763.287,896746.603,896748,2023-11-11T10:26:56Z,896763.158,NULL,Wettbewerb,ushindani,d,NA,NA,NA,NA,qt,0,3,NA,NA,NA,NA,NA,NA,NA,NA,NA,NA,NA,NA,NA,NA,NA,NA,NA,NA,NA
21523,deep,flow.Sequence,3_0_3_0_5_0,NA,NA,completion,11383.373,885347.89999998,885346.468,885363.23,896746.603,896748.10000002,2023-11-11T10:26:56Z,896763.158,NULL,Wettbewerb,ushindani,d,NA,NA,NA,NA,qt,NA,3,NA,NA,NA,NA,NA,NA,NA,NA,NA,NA,NA,NA,NA,NA,NA,NA,NA,NA,NA
21523,shallow,flow.Sequence,3_0_3_0_5_1,NA,NA,skipped,NA,896748.19999993,NA,NA,896746.603,896748.19999993,2023-11-11T10:26:56Z,896763.158,NULL,Wettbewerb,ushindani,d,NA,NA,NA,NA,qt,NA,3,NA,NA,NA,NA,NA,NA,NA,NA,NA,NA,NA,NA,NA,NA,NA,NA,NA,NA,NA
21523,task,flow.Sequence,3_0_3_0_5,NA,NA,completion,11383.373,885347.89999998,885346.468,885363.23,896746.603,896748.19999993,2023-11-11T10:26:56Z,896763.158,NULL,Wettbewerb,ushindani,d,NA,NA,NA,NA,qt,NA,3,NA,NA,NA,NA,NA,NA,NA,NA,NA,NA,NA,NA,NA,NA,NA,NA,NA,NA,NA
21523,Deep Question,html.Page,3_0_3_0_6_0_0,NA,NA,form submission,7451.4420000238,896748.19999993,896746.603,896763.158,904214.60000002,904214.79999995,2023-11-11T10:27:03Z,904229.781,NULL,Angreifer,mshambulizi,d,NA,NA,NA,Kurii,NA,NA,3,NA,NA,NA,NA,NA,NA,NA,NA,NA,NA,NA,NA,NA,NA,NA,NA,NA,NA,NA
21523,"""Richtig""-Screen",canvas.Screen,3_0_3_0_6_0_1,NA,NA,skipped,NA,904215.89999998,NA,NA,904214.60000002,904216,2023-11-11T10:27:03Z,904229.781,NULL,Angreifer,mshambulizi,d,NA,NA,NA,NA,qt,NA,3,NA,NA,NA,NA,NA,NA,NA,NA,NA,NA,NA,NA,NA,NA,NA,NA,NA,NA,NA
21523,"""Falsch""-Screen",canvas.Screen,3_0_3_0_6_0_2,NA,NA,timeout,5000.0850000001,904216.69999993,904213.333,904229.781,909213.306,909214.69999993,2023-11-11T10:27:08Z,909229.866,NULL,Angreifer,mshambulizi,d,NA,NA,NA,NA,qt,0,3,NA,NA,NA,NA,NA,NA,NA,NA,NA,NA,NA,NA,NA,NA,NA,NA,NA,NA,NA
21523,deep,flow.Sequence,3_0_3_0_6_0,NA,NA,completion,12450.148,896748.19999993,896746.603,896763.158,909213.306,909214.79999995,2023-11-11T10:27:08Z,909229.866,NULL,Angreifer,mshambulizi,d,NA,NA,NA,NA,qt,NA,3,NA,NA,NA,NA,NA,NA,NA,NA,NA,NA,NA,NA,NA,NA,NA,NA,NA,NA,NA
21523,shallow,flow.Sequence,3_0_3_0_6_1,NA,NA,skipped,NA,909214.79999995,NA,NA,909213.306,909214.79999995,2023-11-11T10:27:08Z,909229.866,NULL,Angreifer,mshambulizi,d,NA,NA,NA,NA,qt,NA,3,NA,NA,NA,NA,NA,NA,NA,NA,NA,NA,NA,NA,NA,NA,NA,NA,NA,NA,NA
21523,task,flow.Sequence,3_0_3_0_6,NA,NA,completion,12450.148,896748.19999993,896746.603,896763.158,909213.306,909214.79999995,2023-11-11T10:27:08Z,909229.866,NULL,Angreifer,mshambulizi,d,NA,NA,NA,NA,qt,NA,3,NA,NA,NA,NA,NA,NA,NA,NA,NA,NA,NA,NA,NA,NA,NA,NA,NA,NA,NA
21523,Deep Question,html.Page,3_0_3_0_7_0_0,NA,NA,form submission,3909.7340000238,909214.89999998,909213.306,909229.866,913139.60000002,913139.69999993,2023-11-11T10:27:12Z,913146.387,NULL,Auftrag,uagizaji,d,NA,NA,NA,wetter,NA,NA,3,NA,NA,NA,NA,NA,NA,NA,NA,NA,NA,NA,NA,NA,NA,NA,NA,NA,NA,NA
21523,"""Richtig""-Screen",canvas.Screen,3_0_3_0_7_0_1,NA,NA,skipped,NA,913140.89999998,NA,NA,913139.60000002,913140.89999998,2023-11-11T10:27:12Z,913146.387,NULL,Auftrag,uagizaji,d,NA,NA,NA,NA,qt,NA,3,NA,NA,NA,NA,NA,NA,NA,NA,NA,NA,NA,NA,NA,NA,NA,NA,NA,NA,NA
21523,"""Falsch""-Screen",canvas.Screen,3_0_3_0_7_0_2,NA,NA,timeout,5000.128,913141.19999993,913129.897,913146.387,918129.78,918130.89999998,2023-11-11T10:27:17Z,918146.515,NULL,Auftrag,uagizaji,d,NA,NA,NA,NA,qt,0,3,NA,NA,NA,NA,NA,NA,NA,NA,NA,NA,NA,NA,NA,NA,NA,NA,NA,NA,NA
21523,deep,flow.Sequence,3_0_3_0_7_0,NA,NA,completion,8899.914,909214.89999998,909213.306,909229.866,918129.78,918130.89999998,2023-11-11T10:27:17Z,918146.515,NULL,Auftrag,uagizaji,d,NA,NA,NA,NA,qt,NA,3,NA,NA,NA,NA,NA,NA,NA,NA,NA,NA,NA,NA,NA,NA,NA,NA,NA,NA,NA
21523,shallow,flow.Sequence,3_0_3_0_7_1,NA,NA,skipped,NA,918131,NA,NA,918129.78,918131,2023-11-11T10:27:17Z,918146.515,NULL,Auftrag,uagizaji,d,NA,NA,NA,NA,qt,NA,3,NA,NA,NA,NA,NA,NA,NA,NA,NA,NA,NA,NA,NA,NA,NA,NA,NA,NA,NA
21523,task,flow.Sequence,3_0_3_0_7,NA,NA,completion,8899.914,909214.89999998,909213.306,909229.866,918129.78,918131.10000002,2023-11-11T10:27:17Z,918146.515,NULL,Auftrag,uagizaji,d,NA,NA,NA,NA,qt,NA,3,NA,NA,NA,NA,NA,NA,NA,NA,NA,NA,NA,NA,NA,NA,NA,NA,NA,NA,NA
21523,block,flow.Loop,3_0_3_0,NA,NA,completion,124533.052,793582.60000002,793579.762,793596.728,918129.78,918131.10000002,2023-11-11T10:27:17Z,918146.515,NULL,NA,NA,NA,NA,NA,NA,NA,qt,NA,3,NA,NA,NA,NA,NA,NA,NA,NA,NA,NA,NA,NA,NA,NA,NA,NA,NA,NA,NA
21523,weiter,canvas.Screen,3_0_3_1,sdf,keypress(Space),response,1019.1849999285,918131.10000002,918129.78,918146.515,919165.69999993,919166.29999995,2023-11-11T10:27:18Z,919197.084,NULL,NA,NA,NA,NA,NA,NA,NA,qt,NA,3,NA,NA,NA,NA,NA,NA,NA,NA,NA,NA,NA,NA,NA,NA,NA,NA,NA,NA,NA
21523,check continue,flow.Sequence,3_0_3,NA,NA,completion,125568.97199993,793582.60000002,793579.762,793596.728,919165.69999993,919166.39999998,2023-11-11T10:27:18Z,919197.084,NULL,NA,NA,NA,NA,NA,NA,NA,qt,NA,3,NA,NA,NA,NA,NA,NA,NA,NA,NA,NA,NA,NA,NA,NA,NA,NA,NA,NA,NA
21523,deep,flow.Sequence,3_0_4_0_0_0,NA,NA,skipped,NA,919178.29999995,NA,NA,919165.69999993,919178.29999995,2023-11-11T10:27:18Z,919197.084,NULL,Abrechnung,uhasibu,s,kusahihisha,mpambano,mashambulizi,NA,sd,NA,4,NA,NA,NA,NA,NA,NA,NA,NA,NA,NA,NA,NA,NA,NA,NA,NA,NA,NA,NA
21523,Shallow Question,html.Page,3_0_4_0_0_1_0,NA,NA,form submission,23502.516000024,919178.39999998,919163.398,919197.084,942699.60000002,942699.89999998,2023-11-11T10:27:42Z,942713.207,NULL,Abrechnung,uhasibu,s,kusahihisha,mpambano,mashambulizi,mpambano,NA,NA,4,NA,NA,NA,NA,NA,NA,NA,NA,NA,NA,NA,NA,NA,NA,NA,NA,NA,NA,NA
21523,"""Richtig""-Screen",canvas.Screen,3_0_4_0_0_1_1,NA,NA,skipped,NA,942700.89999998,NA,NA,942699.60000002,942701,2023-11-11T10:27:42Z,942713.207,NULL,Abrechnung,uhasibu,s,kusahihisha,mpambano,mashambulizi,NA,sd,NA,4,NA,NA,NA,NA,NA,NA,NA,NA,NA,NA,NA,NA,NA,NA,NA,NA,NA,NA,NA
21523,"""Falsch""-Screen",canvas.Screen,3_0_4_0_0_1_2,NA,NA,timeout,5000.0149999999,942701.29999995,942696.45,942713.207,947696.461,947698,2023-11-11T10:27:47Z,947713.222,NULL,Abrechnung,uhasibu,s,kusahihisha,mpambano,mashambulizi,NA,sd,0,4,NA,NA,NA,NA,NA,NA,NA,NA,NA,NA,NA,NA,NA,NA,NA,NA,NA,NA,NA
21523,shallow,flow.Sequence,3_0_4_0_0_1,NA,NA,completion,28499.377,919178.39999998,919163.398,919197.084,947696.461,947698,2023-11-11T10:27:47Z,947713.222,NULL,Abrechnung,uhasibu,s,kusahihisha,mpambano,mashambulizi,NA,sd,NA,4,NA,NA,NA,NA,NA,NA,NA,NA,NA,NA,NA,NA,NA,NA,NA,NA,NA,NA,NA
21523,task,flow.Sequence,3_0_4_0_0,NA,NA,completion,28499.377,919178.29999995,919163.398,919197.084,947696.461,947698.10000002,2023-11-11T10:27:47Z,947713.222,NULL,Abrechnung,uhasibu,s,kusahihisha,mpambano,mashambulizi,NA,sd,NA,4,NA,NA,NA,NA,NA,NA,NA,NA,NA,NA,NA,NA,NA,NA,NA,NA,NA,NA,NA
21523,Deep Question,html.Page,3_0_4_0_1_0_0,NA,NA,form submission,23819.778,947698.19999993,947696.461,947713.222,971533,971533.10000002,2023-11-11T10:28:10Z,971546.5,NULL,Auftrag,uagizaji,d,NA,NA,NA,ushima,NA,NA,4,NA,NA,NA,NA,NA,NA,NA,NA,NA,NA,NA,NA,NA,NA,NA,NA,NA,NA,NA
21523,"""Richtig""-Screen",canvas.Screen,3_0_4_0_1_0_1,NA,NA,skipped,NA,971534.29999995,NA,NA,971533,971534.39999998,2023-11-11T10:28:10Z,971546.5,NULL,Auftrag,uagizaji,d,NA,NA,NA,NA,sd,NA,4,NA,NA,NA,NA,NA,NA,NA,NA,NA,NA,NA,NA,NA,NA,NA,NA,NA,NA,NA
21523,"""Falsch""-Screen",canvas.Screen,3_0_4_0_1_0_2,NA,NA,timeout,4999.981,971534.69999993,971529.857,971546.5,976529.806,976531.79999995,2023-11-11T10:28:15Z,976546.481,NULL,Auftrag,uagizaji,d,NA,NA,NA,NA,sd,0,4,NA,NA,NA,NA,NA,NA,NA,NA,NA,NA,NA,NA,NA,NA,NA,NA,NA,NA,NA
21523,deep,flow.Sequence,3_0_4_0_1_0,NA,NA,completion,28816.584,947698.19999993,947696.461,947713.222,976529.806,976531.89999998,2023-11-11T10:28:15Z,976546.481,NULL,Auftrag,uagizaji,d,NA,NA,NA,NA,sd,NA,4,NA,NA,NA,NA,NA,NA,NA,NA,NA,NA,NA,NA,NA,NA,NA,NA,NA,NA,NA
21523,shallow,flow.Sequence,3_0_4_0_1_1,NA,NA,skipped,NA,976531.89999998,NA,NA,976529.806,976531.89999998,2023-11-11T10:28:15Z,976546.481,NULL,Auftrag,uagizaji,d,NA,NA,NA,NA,sd,NA,4,NA,NA,NA,NA,NA,NA,NA,NA,NA,NA,NA,NA,NA,NA,NA,NA,NA,NA,NA
21523,task,flow.Sequence,3_0_4_0_1,NA,NA,completion,28816.584,947698.19999993,947696.461,947713.222,976529.806,976532,2023-11-11T10:28:15Z,976546.481,NULL,Auftrag,uagizaji,d,NA,NA,NA,NA,sd,NA,4,NA,NA,NA,NA,NA,NA,NA,NA,NA,NA,NA,NA,NA,NA,NA,NA,NA,NA,NA
21523,Deep Question,html.Page,3_0_4_0_2_0_0,NA,NA,form submission,21773.918999976,976532,976529.806,976546.481,998320.39999998,998320.5,2023-11-11T10:28:37Z,998329.69,NULL,Sänger,mwimbaji,d,NA,NA,NA,ushimba,NA,NA,4,NA,NA,NA,NA,NA,NA,NA,NA,NA,NA,NA,NA,NA,NA,NA,NA,NA,NA,NA
21523,"""Richtig""-Screen",canvas.Screen,3_0_4_0_2_0_1,NA,NA,skipped,NA,998321.79999995,NA,NA,998320.39999998,998321.79999995,2023-11-11T10:28:37Z,998329.69,NULL,Sänger,mwimbaji,d,NA,NA,NA,NA,sd,NA,4,NA,NA,NA,NA,NA,NA,NA,NA,NA,NA,NA,NA,NA,NA,NA,NA,NA,NA,NA
21523,"""Falsch""-Screen",canvas.Screen,3_0_4_0_2_0_2,NA,NA,timeout,5000.0610000001,998322.10000002,998313.146,998329.69,1003313.103,1003314.4,2023-11-11T10:28:42Z,1003329.751,NULL,Sänger,mwimbaji,d,NA,NA,NA,NA,sd,0,4,NA,NA,NA,NA,NA,NA,NA,NA,NA,NA,NA,NA,NA,NA,NA,NA,NA,NA,NA
21523,deep,flow.Sequence,3_0_4_0_2_0,NA,NA,completion,26766.622,976532,976529.806,976546.481,1003313.103,1003314.5,2023-11-11T10:28:42Z,1003329.751,NULL,Sänger,mwimbaji,d,NA,NA,NA,NA,sd,NA,4,NA,NA,NA,NA,NA,NA,NA,NA,NA,NA,NA,NA,NA,NA,NA,NA,NA,NA,NA
21523,shallow,flow.Sequence,3_0_4_0_2_1,NA,NA,skipped,NA,1003314.6,NA,NA,1003313.103,1003314.6,2023-11-11T10:28:42Z,1003329.751,NULL,Sänger,mwimbaji,d,NA,NA,NA,NA,sd,NA,4,NA,NA,NA,NA,NA,NA,NA,NA,NA,NA,NA,NA,NA,NA,NA,NA,NA,NA,NA
21523,task,flow.Sequence,3_0_4_0_2,NA,NA,completion,26766.622,976532,976529.806,976546.481,1003313.103,1003314.6,2023-11-11T10:28:42Z,1003329.751,NULL,Sänger,mwimbaji,d,NA,NA,NA,NA,sd,NA,4,NA,NA,NA,NA,NA,NA,NA,NA,NA,NA,NA,NA,NA,NA,NA,NA,NA,NA,NA
21523,Deep Question,html.Page,3_0_4_0_3_0_0,NA,NA,form submission,5795.749,1003314.6999999,1003313.103,1003329.751,1009125.5,1009125.6,2023-11-11T10:28:48Z,1009146.371,NULL,Angreifer,mshambulizi,d,NA,NA,NA,ushimba,NA,NA,4,NA,NA,NA,NA,NA,NA,NA,NA,NA,NA,NA,NA,NA,NA,NA,NA,NA,NA,NA
21523,"""Richtig""-Screen",canvas.Screen,3_0_4_0_3_0_1,NA,NA,skipped,NA,1009126.8,NA,NA,1009125.5,1009126.9,2023-11-11T10:28:48Z,1009146.371,NULL,Angreifer,mshambulizi,d,NA,NA,NA,NA,sd,NA,4,NA,NA,NA,NA,NA,NA,NA,NA,NA,NA,NA,NA,NA,NA,NA,NA,NA,NA,NA
21523,"""Falsch""-Screen",canvas.Screen,3_0_4_0_3_0_2,NA,NA,timeout,5000.2409999999,1009127.3,1009113.197,1009146.371,1014129.739,1014131.1999999,2023-11-11T10:28:53Z,1014146.612,NULL,Angreifer,mshambulizi,d,NA,NA,NA,NA,sd,0,4,NA,NA,NA,NA,NA,NA,NA,NA,NA,NA,NA,NA,NA,NA,NA,NA,NA,NA,NA
21523,deep,flow.Sequence,3_0_4_0_3_0,NA,NA,completion,10799.988,1003314.6,1003313.103,1003329.751,1014129.739,1014131.3,2023-11-11T10:28:53Z,1014146.612,NULL,Angreifer,mshambulizi,d,NA,NA,NA,NA,sd,NA,4,NA,NA,NA,NA,NA,NA,NA,NA,NA,NA,NA,NA,NA,NA,NA,NA,NA,NA,NA
21523,shallow,flow.Sequence,3_0_4_0_3_1,NA,NA,skipped,NA,1014131.3,NA,NA,1014129.739,1014131.4,2023-11-11T10:28:53Z,1014146.612,NULL,Angreifer,mshambulizi,d,NA,NA,NA,NA,sd,NA,4,NA,NA,NA,NA,NA,NA,NA,NA,NA,NA,NA,NA,NA,NA,NA,NA,NA,NA,NA
21523,task,flow.Sequence,3_0_4_0_3,NA,NA,completion,10799.988,1003314.6,1003313.103,1003329.751,1014129.739,1014131.4,2023-11-11T10:28:53Z,1014146.612,NULL,Angreifer,mshambulizi,d,NA,NA,NA,NA,sd,NA,4,NA,NA,NA,NA,NA,NA,NA,NA,NA,NA,NA,NA,NA,NA,NA,NA,NA,NA,NA
21523,deep,flow.Sequence,3_0_4_0_4_0,NA,NA,skipped,NA,1014131.4,NA,NA,1014129.739,1014131.4,2023-11-11T10:28:53Z,1014146.612,NULL,Zufall,kikuti,s,kukosekana,uchoraji,leseni,NA,sd,NA,4,NA,NA,NA,NA,NA,NA,NA,NA,NA,NA,NA,NA,NA,NA,NA,NA,NA,NA,NA
21523,Shallow Question,html.Page,3_0_4_0_4_1_0,NA,NA,form submission,4620.6879999524,1014131.5,1014129.739,1014146.612,1018767.3,1018767.5,2023-11-11T10:28:58Z,1018796.316,NULL,Zufall,kikuti,s,kukosekana,uchoraji,leseni,kikuti,NA,NA,4,NA,NA,NA,NA,NA,NA,NA,NA,NA,NA,NA,NA,NA,NA,NA,NA,NA,NA,NA
21523,"""Richtig""-Screen",canvas.Screen,3_0_4_0_4_1_1,NA,NA,timeout,5000.171,1018768.4,1018779.774,1018796.316,1023779.806,1023781.1999999,2023-11-11T10:29:03Z,1023796.487,NULL,Zufall,kikuti,s,kukosekana,uchoraji,leseni,NA,sd,1,4,NA,NA,NA,NA,NA,NA,NA,NA,NA,NA,NA,NA,NA,NA,NA,NA,NA,NA,NA
21523,"""Falsch""-Screen",canvas.Screen,3_0_4_0_4_1_2,NA,NA,skipped,NA,1023782.1999999,NA,NA,1023779.806,1023782.1999999,2023-11-11T10:29:03Z,1023796.487,NULL,Zufall,kikuti,s,kukosekana,uchoraji,leseni,NA,sd,NA,4,NA,NA,NA,NA,NA,NA,NA,NA,NA,NA,NA,NA,NA,NA,NA,NA,NA,NA,NA
21523,shallow,flow.Sequence,3_0_4_0_4_1,NA,NA,completion,9633.194,1014131.5,1014129.739,1014146.612,1023779.806,1023782.1999999,2023-11-11T10:29:03Z,1023796.487,NULL,Zufall,kikuti,s,kukosekana,uchoraji,leseni,NA,sd,NA,4,NA,NA,NA,NA,NA,NA,NA,NA,NA,NA,NA,NA,NA,NA,NA,NA,NA,NA,NA
21523,task,flow.Sequence,3_0_4_0_4,NA,NA,completion,9633.194,1014131.4,1014129.739,1014146.612,1023779.806,1023782.3,2023-11-11T10:29:03Z,1023796.487,NULL,Zufall,kikuti,s,kukosekana,uchoraji,leseni,NA,sd,NA,4,NA,NA,NA,NA,NA,NA,NA,NA,NA,NA,NA,NA,NA,NA,NA,NA,NA,NA,NA
21523,deep,flow.Sequence,3_0_4_0_5_0,NA,NA,skipped,NA,1023782.4,NA,NA,1023779.806,1023782.4,2023-11-11T10:29:03Z,1023796.487,NULL,Kanzler,diwani,s,rasilmali,mahitaji,maabudu,NA,sd,NA,4,NA,NA,NA,NA,NA,NA,NA,NA,NA,NA,NA,NA,NA,NA,NA,NA,NA,NA,NA
21523,Shallow Question,html.Page,3_0_4_0_5_1_0,NA,NA,form submission,6720.013,1023782.4,1023779.806,1023796.487,1030516.5,1030516.6,2023-11-11T10:29:09Z,1030529.842,NULL,Kanzler,diwani,s,rasilmali,mahitaji,maabudu,mahitaji,NA,NA,4,NA,NA,NA,NA,NA,NA,NA,NA,NA,NA,NA,NA,NA,NA,NA,NA,NA,NA,NA
21523,"""Richtig""-Screen",canvas.Screen,3_0_4_0_5_1_1,NA,NA,skipped,NA,1030517.6,NA,NA,1030516.5,1030517.6,2023-11-11T10:29:09Z,1030529.842,NULL,Kanzler,diwani,s,rasilmali,mahitaji,maabudu,NA,sd,NA,4,NA,NA,NA,NA,NA,NA,NA,NA,NA,NA,NA,NA,NA,NA,NA,NA,NA,NA,NA
21523,"""Falsch""-Screen",canvas.Screen,3_0_4_0_5_1_2,NA,NA,timeout,4999.9670000001,1030518.3,1030513.298,1030529.842,1035513.033,1035514.8,2023-11-11T10:29:14Z,1035529.809,NULL,Kanzler,diwani,s,rasilmali,mahitaji,maabudu,NA,sd,0,4,NA,NA,NA,NA,NA,NA,NA,NA,NA,NA,NA,NA,NA,NA,NA,NA,NA,NA,NA
21523,shallow,flow.Sequence,3_0_4_0_5_1,NA,NA,completion,11716.546,1023782.4,1023779.806,1023796.487,1035513.033,1035514.9,2023-11-11T10:29:14Z,1035529.809,NULL,Kanzler,diwani,s,rasilmali,mahitaji,maabudu,NA,sd,NA,4,NA,NA,NA,NA,NA,NA,NA,NA,NA,NA,NA,NA,NA,NA,NA,NA,NA,NA,NA
21523,task,flow.Sequence,3_0_4_0_5,NA,NA,completion,11716.546,1023782.4,1023779.806,1023796.487,1035513.033,1035515,2023-11-11T10:29:14Z,1035529.809,NULL,Kanzler,diwani,s,rasilmali,mahitaji,maabudu,NA,sd,NA,4,NA,NA,NA,NA,NA,NA,NA,NA,NA,NA,NA,NA,NA,NA,NA,NA,NA,NA,NA
21523,Deep Question,html.Page,3_0_4_0_6_0_0,NA,NA,form submission,26296.191,1035515,1035513.033,1035529.809,1061826,1061826.1999999,2023-11-11T10:29:41Z,1061829.581,NULL,Wettbewerb,ushindani,d,NA,NA,NA,ushimba,NA,NA,4,NA,NA,NA,NA,NA,NA,NA,NA,NA,NA,NA,NA,NA,NA,NA,NA,NA,NA,NA
21523,"""Richtig""-Screen",canvas.Screen,3_0_4_0_6_0_1,NA,NA,skipped,NA,1061827.4,NA,NA,1061826,1061827.4,2023-11-11T10:29:41Z,1061829.581,NULL,Wettbewerb,ushindani,d,NA,NA,NA,NA,sd,NA,4,NA,NA,NA,NA,NA,NA,NA,NA,NA,NA,NA,NA,NA,NA,NA,NA,NA,NA,NA
21523,"""Falsch""-Screen",canvas.Screen,3_0_4_0_6_0_2,NA,NA,timeout,5000.868,1061827.6999999,1061813.175,1061829.581,1066813.235,1066814.8,2023-11-11T10:29:46Z,1066830.449,NULL,Wettbewerb,ushindani,d,NA,NA,NA,NA,sd,0,4,NA,NA,NA,NA,NA,NA,NA,NA,NA,NA,NA,NA,NA,NA,NA,NA,NA,NA,NA
21523,deep,flow.Sequence,3_0_4_0_6_0,NA,NA,completion,31283.426,1035515,1035513.033,1035529.809,1066813.235,1066814.9,2023-11-11T10:29:46Z,1066830.449,NULL,Wettbewerb,ushindani,d,NA,NA,NA,NA,sd,NA,4,NA,NA,NA,NA,NA,NA,NA,NA,NA,NA,NA,NA,NA,NA,NA,NA,NA,NA,NA
21523,shallow,flow.Sequence,3_0_4_0_6_1,NA,NA,skipped,NA,1066815,NA,NA,1066813.235,1066815,2023-11-11T10:29:46Z,1066830.449,NULL,Wettbewerb,ushindani,d,NA,NA,NA,NA,sd,NA,4,NA,NA,NA,NA,NA,NA,NA,NA,NA,NA,NA,NA,NA,NA,NA,NA,NA,NA,NA
21523,task,flow.Sequence,3_0_4_0_6,NA,NA,completion,31283.426,1035515,1035513.033,1035529.809,1066813.235,1066815,2023-11-11T10:29:46Z,1066830.449,NULL,Wettbewerb,ushindani,d,NA,NA,NA,NA,sd,NA,4,NA,NA,NA,NA,NA,NA,NA,NA,NA,NA,NA,NA,NA,NA,NA,NA,NA,NA,NA
21523,deep,flow.Sequence,3_0_4_0_7_0,NA,NA,skipped,NA,1066815,NA,NA,1066813.235,1066815.1,2023-11-11T10:29:46Z,1066830.449,NULL,Schönheit,kirembo,s,mahojiano,msisimko,jitihadi,NA,sd,NA,4,NA,NA,NA,NA,NA,NA,NA,NA,NA,NA,NA,NA,NA,NA,NA,NA,NA,NA,NA
21523,Shallow Question,html.Page,3_0_4_0_7_1_0,NA,NA,form submission,4519.051,1066815.1,1066813.235,1066830.449,1071349.5,1071349.6999999,2023-11-11T10:29:50Z,1071363.074,NULL,Schönheit,kirembo,s,mahojiano,msisimko,jitihadi,mahojiano,NA,NA,4,NA,NA,NA,NA,NA,NA,NA,NA,NA,NA,NA,NA,NA,NA,NA,NA,NA,NA,NA
21523,"""Richtig""-Screen",canvas.Screen,3_0_4_0_7_1_1,NA,NA,skipped,NA,1071350.6999999,NA,NA,1071349.5,1071350.6999999,2023-11-11T10:29:50Z,1071363.074,NULL,Schönheit,kirembo,s,mahojiano,msisimko,jitihadi,NA,sd,NA,4,NA,NA,NA,NA,NA,NA,NA,NA,NA,NA,NA,NA,NA,NA,NA,NA,NA,NA,NA
21523,"""Falsch""-Screen",canvas.Screen,3_0_4_0_7_1_2,NA,NA,timeout,4999.9909999999,1071351,1071346.319,1071363.074,1076346.459,1076347.8,2023-11-11T10:29:55Z,1076363.065,NULL,Schönheit,kirembo,s,mahojiano,msisimko,jitihadi,NA,sd,0,4,NA,NA,NA,NA,NA,NA,NA,NA,NA,NA,NA,NA,NA,NA,NA,NA,NA,NA,NA
21523,shallow,flow.Sequence,3_0_4_0_7_1,NA,NA,completion,9516.01,1066815.1,1066813.235,1066830.449,1076346.459,1076347.9,2023-11-11T10:29:55Z,1076363.065,NULL,Schönheit,kirembo,s,mahojiano,msisimko,jitihadi,NA,sd,NA,4,NA,NA,NA,NA,NA,NA,NA,NA,NA,NA,NA,NA,NA,NA,NA,NA,NA,NA,NA
21523,task,flow.Sequence,3_0_4_0_7,NA,NA,completion,9516.01,1066815,1066813.235,1066830.449,1076346.459,1076347.9,2023-11-11T10:29:55Z,1076363.065,NULL,Schönheit,kirembo,s,mahojiano,msisimko,jitihadi,NA,sd,NA,4,NA,NA,NA,NA,NA,NA,NA,NA,NA,NA,NA,NA,NA,NA,NA,NA,NA,NA,NA
21523,block,flow.Loop,3_0_4_0,NA,NA,completion,157149.375,919178.29999995,919163.398,919197.084,1076346.459,1076348,2023-11-11T10:29:55Z,1076363.065,NULL,NA,NA,NA,NA,NA,NA,NA,sd,NA,4,NA,NA,NA,NA,NA,NA,NA,NA,NA,NA,NA,NA,NA,NA,NA,NA,NA,NA,NA
21523,weiter,canvas.Screen,3_0_4_1,sdf,keypress(Space),response,7249.3349999762,1076348,1076346.459,1076363.065,1083612.4,1083613.1999999,2023-11-11T10:30:03Z,1083647.593,NULL,NA,NA,NA,NA,NA,NA,NA,sd,NA,4,NA,NA,NA,NA,NA,NA,NA,NA,NA,NA,NA,NA,NA,NA,NA,NA,NA,NA,NA
21523,check continue,flow.Sequence,3_0_4,NA,NA,completion,164415.31599998,919178.29999995,919163.398,919197.084,1083612.4,1083613.1999999,2023-11-11T10:30:03Z,1083647.593,NULL,NA,NA,NA,NA,NA,NA,NA,sd,NA,4,NA,NA,NA,NA,NA,NA,NA,NA,NA,NA,NA,NA,NA,NA,NA,NA,NA,NA,NA
21523,deep,flow.Sequence,3_0_5_0_0_0,NA,NA,skipped,NA,1083628.8,NA,NA,1083612.4,1083628.9,2023-11-11T10:30:03Z,1083647.593,NULL,Kanzler,diwani,s,rasilmali,mahitaji,maabudu,NA,sdf,NA,5,NA,NA,NA,NA,NA,NA,NA,NA,NA,NA,NA,NA,NA,NA,NA,NA,NA,NA,NA
21523,Shallow Question,html.Page,3_0_5_0_0_1_0,NA,NA,form submission,35595.806999976,1083629,1083629.253,1083647.593,1119243.4,1119243.5,2023-11-11T10:30:38Z,1119262.963,NULL,Kanzler,diwani,s,rasilmali,mahitaji,maabudu,diwani,NA,NA,5,NA,NA,NA,NA,NA,NA,NA,NA,NA,NA,NA,NA,NA,NA,NA,NA,NA,NA,NA
21523,"""Richtig""-Screen",canvas.Screen,3_0_5_0_0_1_1,NA,NA,timeout,5000.0600000001,1119244.9,1119246.463,1119262.963,1124246.426,1124249,2023-11-11T10:30:43Z,1124263.023,NULL,Kanzler,diwani,s,rasilmali,mahitaji,maabudu,NA,sdf,1,5,NA,NA,NA,NA,NA,NA,NA,NA,NA,NA,NA,NA,NA,NA,NA,NA,NA,NA,NA
21523,"""Falsch""-Screen",canvas.Screen,3_0_5_0_0_1_2,NA,NA,skipped,NA,1124250,NA,NA,1124246.426,1124250.1,2023-11-11T10:30:43Z,1124263.023,NULL,Kanzler,diwani,s,rasilmali,mahitaji,maabudu,NA,sdf,NA,5,NA,NA,NA,NA,NA,NA,NA,NA,NA,NA,NA,NA,NA,NA,NA,NA,NA,NA,NA
21523,shallow,flow.Sequence,3_0_5_0_0_1,NA,NA,completion,40598.833,1083629,1083629.253,1083647.593,1124246.426,1124250.1999999,2023-11-11T10:30:43Z,1124263.023,NULL,Kanzler,diwani,s,rasilmali,mahitaji,maabudu,NA,sdf,NA,5,NA,NA,NA,NA,NA,NA,NA,NA,NA,NA,NA,NA,NA,NA,NA,NA,NA,NA,NA
21523,task,flow.Sequence,3_0_5_0_0,NA,NA,completion,40598.833,1083628.8,1083629.253,1083647.593,1124246.426,1124250.1999999,2023-11-11T10:30:43Z,1124263.023,NULL,Kanzler,diwani,s,rasilmali,mahitaji,maabudu,NA,sdf,NA,5,NA,NA,NA,NA,NA,NA,NA,NA,NA,NA,NA,NA,NA,NA,NA,NA,NA,NA,NA
21523,deep,flow.Sequence,3_0_5_0_1_0,NA,NA,skipped,NA,1124250.1999999,NA,NA,1124246.426,1124250.1999999,2023-11-11T10:30:43Z,1124263.023,NULL,Schönheit,kirembo,s,mahojiano,msisimko,jitihadi,NA,sdf,NA,5,NA,NA,NA,NA,NA,NA,NA,NA,NA,NA,NA,NA,NA,NA,NA,NA,NA,NA,NA
21523,Shallow Question,html.Page,3_0_5_0_1_1_0,NA,NA,form submission,12101.776999952,1124250.3,1124246.426,1124263.023,1136364.8,1136365,2023-11-11T10:30:55Z,1136379.764,NULL,Schönheit,kirembo,s,mahojiano,msisimko,jitihadi,kirembo,NA,NA,5,NA,NA,NA,NA,NA,NA,NA,NA,NA,NA,NA,NA,NA,NA,NA,NA,NA,NA,NA
21523,"""Richtig""-Screen",canvas.Screen,3_0_5_0_1_1_1,NA,NA,timeout,5000.0690000001,1136366,1136362.981,1136379.764,1141363.156,1141364.6,2023-11-11T10:31:00Z,1141379.833,NULL,Schönheit,kirembo,s,mahojiano,msisimko,jitihadi,NA,sdf,1,5,NA,NA,NA,NA,NA,NA,NA,NA,NA,NA,NA,NA,NA,NA,NA,NA,NA,NA,NA
21523,"""Falsch""-Screen",canvas.Screen,3_0_5_0_1_1_2,NA,NA,skipped,NA,1141365.6,NA,NA,1141363.156,1141365.6999999,2023-11-11T10:31:00Z,1141379.833,NULL,Schönheit,kirembo,s,mahojiano,msisimko,jitihadi,NA,sdf,NA,5,NA,NA,NA,NA,NA,NA,NA,NA,NA,NA,NA,NA,NA,NA,NA,NA,NA,NA,NA
21523,shallow,flow.Sequence,3_0_5_0_1_1,NA,NA,completion,17100.133,1124250.1999999,1124246.426,1124263.023,1141363.156,1141365.6999999,2023-11-11T10:31:00Z,1141379.833,NULL,Schönheit,kirembo,s,mahojiano,msisimko,jitihadi,NA,sdf,NA,5,NA,NA,NA,NA,NA,NA,NA,NA,NA,NA,NA,NA,NA,NA,NA,NA,NA,NA,NA
21523,task,flow.Sequence,3_0_5_0_1,NA,NA,completion,17100.133,1124250.1999999,1124246.426,1124263.023,1141363.156,1141365.8,2023-11-11T10:31:00Z,1141379.833,NULL,Schönheit,kirembo,s,mahojiano,msisimko,jitihadi,NA,sdf,NA,5,NA,NA,NA,NA,NA,NA,NA,NA,NA,NA,NA,NA,NA,NA,NA,NA,NA,NA,NA
21523,Deep Question,html.Page,3_0_5_0_2_0_0,NA,NA,form submission,35345.167,1141365.8,1141363.156,1141379.833,1176725,1176725,2023-11-11T10:31:36Z,1176729.506,NULL,Angreifer,mshambulizi,d,NA,NA,NA,mshambulizi,NA,NA,5,NA,NA,NA,NA,NA,NA,NA,NA,NA,NA,NA,NA,NA,NA,NA,NA,NA,NA,NA
21523,"""Richtig""-Screen",canvas.Screen,3_0_5_0_2_0_1,NA,NA,timeout,5000.077,1176726.1999999,1176713.104,1176729.506,1181712.958,1181714.5,2023-11-11T10:31:41Z,1181729.583,NULL,Angreifer,mshambulizi,d,NA,NA,NA,NA,sdf,1,5,NA,NA,NA,NA,NA,NA,NA,NA,NA,NA,NA,NA,NA,NA,NA,NA,NA,NA,NA
21523,"""Falsch""-Screen",canvas.Screen,3_0_5_0_2_0_2,NA,NA,skipped,NA,1181715.5,NA,NA,1181712.958,1181715.5,2023-11-11T10:31:41Z,1181729.583,NULL,Angreifer,mshambulizi,d,NA,NA,NA,NA,sdf,NA,5,NA,NA,NA,NA,NA,NA,NA,NA,NA,NA,NA,NA,NA,NA,NA,NA,NA,NA,NA
21523,deep,flow.Sequence,3_0_5_0_2_0,NA,NA,completion,40333.125,1141365.8,1141363.156,1141379.833,1181712.958,1181715.5,2023-11-11T10:31:41Z,1181729.583,NULL,Angreifer,mshambulizi,d,NA,NA,NA,NA,sdf,NA,5,NA,NA,NA,NA,NA,NA,NA,NA,NA,NA,NA,NA,NA,NA,NA,NA,NA,NA,NA
21523,shallow,flow.Sequence,3_0_5_0_2_1,NA,NA,skipped,NA,1181715.5,NA,NA,1181712.958,1181715.6,2023-11-11T10:31:41Z,1181729.583,NULL,Angreifer,mshambulizi,d,NA,NA,NA,NA,sdf,NA,5,NA,NA,NA,NA,NA,NA,NA,NA,NA,NA,NA,NA,NA,NA,NA,NA,NA,NA,NA
21523,task,flow.Sequence,3_0_5_0_2,NA,NA,completion,40333.125,1141365.8,1141363.156,1141379.833,1181712.958,1181715.6,2023-11-11T10:31:41Z,1181729.583,NULL,Angreifer,mshambulizi,d,NA,NA,NA,NA,sdf,NA,5,NA,NA,NA,NA,NA,NA,NA,NA,NA,NA,NA,NA,NA,NA,NA,NA,NA,NA,NA
21523,deep,flow.Sequence,3_0_5_0_3_0,NA,NA,skipped,NA,1181715.6,NA,NA,1181712.958,1181715.6999999,2023-11-11T10:31:41Z,1181729.583,NULL,Zufall,kikuti,s,kukosekana,uchoraji,leseni,NA,sdf,NA,5,NA,NA,NA,NA,NA,NA,NA,NA,NA,NA,NA,NA,NA,NA,NA,NA,NA,NA,NA
21523,Shallow Question,html.Page,3_0_5_0_3_1_0,NA,NA,form submission,13152.417,1181716.1,1181712.958,1181729.583,1194882,1194882,2023-11-11T10:31:54Z,1194896.296,NULL,Zufall,kikuti,s,kukosekana,uchoraji,leseni,kikuti,NA,NA,5,NA,NA,NA,NA,NA,NA,NA,NA,NA,NA,NA,NA,NA,NA,NA,NA,NA,NA,NA
21523,"""Richtig""-Screen",canvas.Screen,3_0_5_0_3_1_1,NA,NA,timeout,5000.2439999999,1194883.1,1194879.708,1194896.296,1199879.773,1199881.1,2023-11-11T10:31:59Z,1199896.54,NULL,Zufall,kikuti,s,kukosekana,uchoraji,leseni,NA,sdf,1,5,NA,NA,NA,NA,NA,NA,NA,NA,NA,NA,NA,NA,NA,NA,NA,NA,NA,NA,NA
21523,"""Falsch""-Screen",canvas.Screen,3_0_5_0_3_1_2,NA,NA,skipped,NA,1199882.4,NA,NA,1199879.773,1199882.4,2023-11-11T10:31:59Z,1199896.54,NULL,Zufall,kikuti,s,kukosekana,uchoraji,leseni,NA,sdf,NA,5,NA,NA,NA,NA,NA,NA,NA,NA,NA,NA,NA,NA,NA,NA,NA,NA,NA,NA,NA
21523,shallow,flow.Sequence,3_0_5_0_3_1,NA,NA,completion,18150.19,1181716.1,1181712.958,1181729.583,1199879.773,1199882.5,2023-11-11T10:31:59Z,1199896.54,NULL,Zufall,kikuti,s,kukosekana,uchoraji,leseni,NA,sdf,NA,5,NA,NA,NA,NA,NA,NA,NA,NA,NA,NA,NA,NA,NA,NA,NA,NA,NA,NA,NA
21523,task,flow.Sequence,3_0_5_0_3,NA,NA,completion,18150.19,1181715.6,1181712.958,1181729.583,1199879.773,1199882.6,2023-11-11T10:31:59Z,1199896.54,NULL,Zufall,kikuti,s,kukosekana,uchoraji,leseni,NA,sdf,NA,5,NA,NA,NA,NA,NA,NA,NA,NA,NA,NA,NA,NA,NA,NA,NA,NA,NA,NA,NA
21523,deep,flow.Sequence,3_0_5_0_4_0,NA,NA,skipped,NA,1199882.6,NA,NA,1199879.773,1199882.6999999,2023-11-11T10:31:59Z,1199896.54,NULL,Abrechnung,uhasibu,s,kusahihisha,mpambano,mashambulizi,NA,sdf,NA,5,NA,NA,NA,NA,NA,NA,NA,NA,NA,NA,NA,NA,NA,NA,NA,NA,NA,NA,NA
21523,Shallow Question,html.Page,3_0_5_0_4_1_0,NA,NA,form submission,12718.859999976,1199882.6999999,1199879.773,1199896.54,1212615.4,1212615.5,2023-11-11T10:32:12Z,1212629.784,NULL,Abrechnung,uhasibu,s,kusahihisha,mpambano,mashambulizi,uhasibu,NA,NA,5,NA,NA,NA,NA,NA,NA,NA,NA,NA,NA,NA,NA,NA,NA,NA,NA,NA,NA,NA
21523,"""Richtig""-Screen",canvas.Screen,3_0_5_0_4_1_1,NA,NA,timeout,4999.7820000001,1212616.5,1212612.973,1212629.784,1217612.942,1217615.8,2023-11-11T10:32:17Z,1217629.566,NULL,Abrechnung,uhasibu,s,kusahihisha,mpambano,mashambulizi,NA,sdf,1,5,NA,NA,NA,NA,NA,NA,NA,NA,NA,NA,NA,NA,NA,NA,NA,NA,NA,NA,NA
21523,"""Falsch""-Screen",canvas.Screen,3_0_5_0_4_1_2,NA,NA,skipped,NA,1217616.9,NA,NA,1217612.942,1217617.1,2023-11-11T10:32:17Z,1217629.566,NULL,Abrechnung,uhasibu,s,kusahihisha,mpambano,mashambulizi,NA,sdf,NA,5,NA,NA,NA,NA,NA,NA,NA,NA,NA,NA,NA,NA,NA,NA,NA,NA,NA,NA,NA
21523,shallow,flow.Sequence,3_0_5_0_4_1,NA,NA,completion,17716.402,1199882.6999999,1199879.773,1199896.54,1217612.942,1217617.1,2023-11-11T10:32:17Z,1217629.566,NULL,Abrechnung,uhasibu,s,kusahihisha,mpambano,mashambulizi,NA,sdf,NA,5,NA,NA,NA,NA,NA,NA,NA,NA,NA,NA,NA,NA,NA,NA,NA,NA,NA,NA,NA
21523,task,flow.Sequence,3_0_5_0_4,NA,NA,completion,17716.402,1199882.6,1199879.773,1199896.54,1217612.942,1217617.1,2023-11-11T10:32:17Z,1217629.566,NULL,Abrechnung,uhasibu,s,kusahihisha,mpambano,mashambulizi,NA,sdf,NA,5,NA,NA,NA,NA,NA,NA,NA,NA,NA,NA,NA,NA,NA,NA,NA,NA,NA,NA,NA
21523,Deep Question,html.Page,3_0_5_0_5_0_0,NA,NA,form submission,24118.934,1217617.1999999,1217612.942,1217629.566,1241748.5,1241748.6,2023-11-11T10:32:41Z,1241762.982,NULL,Sänger,mwimbaji,d,NA,NA,NA,mwimbaji,NA,NA,5,NA,NA,NA,NA,NA,NA,NA,NA,NA,NA,NA,NA,NA,NA,NA,NA,NA,NA,NA
21523,"""Richtig""-Screen",canvas.Screen,3_0_5_0_5_0_1,NA,NA,timeout,5000.159,1241749.6999999,1241746.344,1241762.982,1246746.18,1246747.6999999,2023-11-11T10:32:46Z,1246763.141,NULL,Sänger,mwimbaji,d,NA,NA,NA,NA,sdf,1,5,NA,NA,NA,NA,NA,NA,NA,NA,NA,NA,NA,NA,NA,NA,NA,NA,NA,NA,NA
21523,"""Falsch""-Screen",canvas.Screen,3_0_5_0_5_0_2,NA,NA,skipped,NA,1246748.6999999,NA,NA,1246746.18,1246748.8,2023-11-11T10:32:46Z,1246763.141,NULL,Sänger,mwimbaji,d,NA,NA,NA,NA,sdf,NA,5,NA,NA,NA,NA,NA,NA,NA,NA,NA,NA,NA,NA,NA,NA,NA,NA,NA,NA,NA
21523,deep,flow.Sequence,3_0_5_0_5_0,NA,NA,completion,29116.614,1217617.1999999,1217612.942,1217629.566,1246746.18,1246748.8,2023-11-11T10:32:46Z,1246763.141,NULL,Sänger,mwimbaji,d,NA,NA,NA,NA,sdf,NA,5,NA,NA,NA,NA,NA,NA,NA,NA,NA,NA,NA,NA,NA,NA,NA,NA,NA,NA,NA
21523,shallow,flow.Sequence,3_0_5_0_5_1,NA,NA,skipped,NA,1246748.9,NA,NA,1246746.18,1246748.9,2023-11-11T10:32:46Z,1246763.141,NULL,Sänger,mwimbaji,d,NA,NA,NA,NA,sdf,NA,5,NA,NA,NA,NA,NA,NA,NA,NA,NA,NA,NA,NA,NA,NA,NA,NA,NA,NA,NA
21523,task,flow.Sequence,3_0_5_0_5,NA,NA,completion,29116.614,1217617.1999999,1217612.942,1217629.566,1246746.18,1246748.9,2023-11-11T10:32:46Z,1246763.141,NULL,Sänger,mwimbaji,d,NA,NA,NA,NA,sdf,NA,5,NA,NA,NA,NA,NA,NA,NA,NA,NA,NA,NA,NA,NA,NA,NA,NA,NA,NA,NA
21523,Deep Question,html.Page,3_0_5_0_6_0_0,NA,NA,form submission,24410.859,1246748.9,1246746.18,1246763.141,1271174,1271174.1,2023-11-11T10:33:10Z,1271179.437,NULL,Auftrag,uagizaji,d,NA,NA,NA,uahiza,NA,NA,5,NA,NA,NA,NA,NA,NA,NA,NA,NA,NA,NA,NA,NA,NA,NA,NA,NA,NA,NA
21523,"""Richtig""-Screen",canvas.Screen,3_0_5_0_6_0_1,NA,NA,skipped,NA,1271175.6,NA,NA,1271174,1271175.6,2023-11-11T10:33:10Z,1271179.437,NULL,Auftrag,uagizaji,d,NA,NA,NA,NA,sdf,NA,5,NA,NA,NA,NA,NA,NA,NA,NA,NA,NA,NA,NA,NA,NA,NA,NA,NA,NA,NA
21523,"""Falsch""-Screen",canvas.Screen,3_0_5_0_6_0_2,NA,NA,timeout,5000.226,1271176.1,1271162.896,1271179.437,1276162.895,1276164.8,2023-11-11T10:33:15Z,1276179.663,NULL,Auftrag,uagizaji,d,NA,NA,NA,NA,sdf,0,5,NA,NA,NA,NA,NA,NA,NA,NA,NA,NA,NA,NA,NA,NA,NA,NA,NA,NA,NA
21523,deep,flow.Sequence,3_0_5_0_6_0,NA,NA,completion,29399.754,1246748.9,1246746.18,1246763.141,1276162.895,1276164.9,2023-11-11T10:33:15Z,1276179.663,NULL,Auftrag,uagizaji,d,NA,NA,NA,NA,sdf,NA,5,NA,NA,NA,NA,NA,NA,NA,NA,NA,NA,NA,NA,NA,NA,NA,NA,NA,NA,NA
21523,shallow,flow.Sequence,3_0_5_0_6_1,NA,NA,skipped,NA,1276164.9,NA,NA,1276162.895,1276165,2023-11-11T10:33:15Z,1276179.663,NULL,Auftrag,uagizaji,d,NA,NA,NA,NA,sdf,NA,5,NA,NA,NA,NA,NA,NA,NA,NA,NA,NA,NA,NA,NA,NA,NA,NA,NA,NA,NA
21523,task,flow.Sequence,3_0_5_0_6,NA,NA,completion,29399.754,1246748.9,1246746.18,1246763.141,1276162.895,1276165,2023-11-11T10:33:15Z,1276179.663,NULL,Auftrag,uagizaji,d,NA,NA,NA,NA,sdf,NA,5,NA,NA,NA,NA,NA,NA,NA,NA,NA,NA,NA,NA,NA,NA,NA,NA,NA,NA,NA
21523,Deep Question,html.Page,3_0_5_0_7_0_0,NA,NA,form submission,15015.937000024,1276165,1276162.895,1276179.663,1291195.6,1291195.6999999,2023-11-11T10:33:30Z,1291213.488,NULL,Wettbewerb,ushindani,d,NA,NA,NA,ushindani,NA,NA,5,NA,NA,NA,NA,NA,NA,NA,NA,NA,NA,NA,NA,NA,NA,NA,NA,NA,NA,NA
21523,"""Richtig""-Screen",canvas.Screen,3_0_5_0_7_0_1,NA,NA,timeout,4999.3500000001,1291197,1291179.611,1291213.488,1296196.338,1296197.3,2023-11-11T10:33:35Z,1296212.838,NULL,Wettbewerb,ushindani,d,NA,NA,NA,NA,sdf,1,5,NA,NA,NA,NA,NA,NA,NA,NA,NA,NA,NA,NA,NA,NA,NA,NA,NA,NA,NA
21523,"""Falsch""-Screen",canvas.Screen,3_0_5_0_7_0_2,NA,NA,skipped,NA,1296198.6,NA,NA,1296196.338,1296198.6999999,2023-11-11T10:33:35Z,1296212.838,NULL,Wettbewerb,ushindani,d,NA,NA,NA,NA,sdf,NA,5,NA,NA,NA,NA,NA,NA,NA,NA,NA,NA,NA,NA,NA,NA,NA,NA,NA,NA,NA
21523,deep,flow.Sequence,3_0_5_0_7_0,NA,NA,completion,20016.675,1276165,1276162.895,1276179.663,1296196.338,1296198.6999999,2023-11-11T10:33:35Z,1296212.838,NULL,Wettbewerb,ushindani,d,NA,NA,NA,NA,sdf,NA,5,NA,NA,NA,NA,NA,NA,NA,NA,NA,NA,NA,NA,NA,NA,NA,NA,NA,NA,NA
21523,shallow,flow.Sequence,3_0_5_0_7_1,NA,NA,skipped,NA,1296198.8,NA,NA,1296196.338,1296198.8,2023-11-11T10:33:35Z,1296212.838,NULL,Wettbewerb,ushindani,d,NA,NA,NA,NA,sdf,NA,5,NA,NA,NA,NA,NA,NA,NA,NA,NA,NA,NA,NA,NA,NA,NA,NA,NA,NA,NA
21523,task,flow.Sequence,3_0_5_0_7,NA,NA,completion,20016.675,1276165,1276162.895,1276179.663,1296196.338,1296198.9,2023-11-11T10:33:35Z,1296212.838,NULL,Wettbewerb,ushindani,d,NA,NA,NA,NA,sdf,NA,5,NA,NA,NA,NA,NA,NA,NA,NA,NA,NA,NA,NA,NA,NA,NA,NA,NA,NA,NA
21523,block,flow.Loop,3_0_5_0,NA,NA,completion,212548.745,1083628.8,1083629.253,1083647.593,1296196.338,1296198.9,2023-11-11T10:33:35Z,1296212.838,NULL,NA,NA,NA,NA,NA,NA,NA,sdf,NA,5,NA,NA,NA,NA,NA,NA,NA,NA,NA,NA,NA,NA,NA,NA,NA,NA,NA,NA,NA
21523,weiter,canvas.Screen,3_0_5_1,sdf,keypress(Space),response,5162.8619999285,1296198.9,1296196.338,1296212.838,1301375.6999999,1301376.1999999,2023-11-11T10:33:40Z,1301596.085,NULL,NA,NA,NA,NA,NA,NA,NA,sdf,NA,5,NA,NA,NA,NA,NA,NA,NA,NA,NA,NA,NA,NA,NA,NA,NA,NA,NA,NA,NA
21523,check continue,flow.Sequence,3_0_5,NA,NA,completion,217728.10699993,1083628.8,1083629.253,1083647.593,1301375.6999999,1301376.1999999,2023-11-11T10:33:40Z,1301596.085,NULL,NA,NA,NA,NA,NA,NA,NA,sdf,NA,5,NA,NA,NA,NA,NA,NA,NA,NA,NA,NA,NA,NA,NA,NA,NA,NA,NA,NA,NA
21523,check continue,flow.Sequence,3_0_6,NA,NA,skipped,NA,1301391.8,NA,NA,1301375.6999999,1301391.9,2023-11-11T10:33:40Z,1301596.085,NULL,NA,NA,NA,NA,NA,NA,NA,dfs,NA,6,NA,NA,NA,NA,NA,NA,NA,NA,NA,NA,NA,NA,NA,NA,NA,NA,NA,NA,NA
21523,check continue,flow.Sequence,3_0_7,NA,NA,skipped,NA,1301403.6,NA,NA,1301375.6999999,1301403.6,2023-11-11T10:33:40Z,1301596.085,NULL,NA,NA,NA,NA,NA,NA,NA,df,NA,7,NA,NA,NA,NA,NA,NA,NA,NA,NA,NA,NA,NA,NA,NA,NA,NA,NA,NA,NA
21523,check continue,flow.Sequence,3_0_8,NA,NA,skipped,NA,1301413.4,NA,NA,1301375.6999999,1301413.5,2023-11-11T10:33:40Z,1301596.085,NULL,NA,NA,NA,NA,NA,NA,NA,dfs,NA,8,NA,NA,NA,NA,NA,NA,NA,NA,NA,NA,NA,NA,NA,NA,NA,NA,NA,NA,NA
21523,check continue,flow.Sequence,3_0_9,NA,NA,skipped,NA,1301423.4,NA,NA,1301375.6999999,1301423.4,2023-11-11T10:33:40Z,1301596.085,NULL,NA,NA,NA,NA,NA,NA,NA,dsf,NA,9,NA,NA,NA,NA,NA,NA,NA,NA,NA,NA,NA,NA,NA,NA,NA,NA,NA,NA,NA
21523,check continue,flow.Sequence,3_0_10,NA,NA,skipped,NA,1301433.1999999,NA,NA,1301375.6999999,1301433.3,2023-11-11T10:33:40Z,1301596.085,NULL,NA,NA,NA,NA,NA,NA,NA,df,NA,10,NA,NA,NA,NA,NA,NA,NA,NA,NA,NA,NA,NA,NA,NA,NA,NA,NA,NA,NA
21523,check continue,flow.Sequence,3_0_11,NA,NA,skipped,NA,1301443.1999999,NA,NA,1301375.6999999,1301443.3,2023-11-11T10:33:40Z,1301596.085,NULL,NA,NA,NA,NA,NA,NA,NA,dfs,NA,11,NA,NA,NA,NA,NA,NA,NA,NA,NA,NA,NA,NA,NA,NA,NA,NA,NA,NA,NA
21523,check continue,flow.Sequence,3_0_12,NA,NA,skipped,NA,1301451.8,NA,NA,1301375.6999999,1301451.8,2023-11-11T10:33:40Z,1301596.085,NULL,NA,NA,NA,NA,NA,NA,NA,dsf,NA,12,NA,NA,NA,NA,NA,NA,NA,NA,NA,NA,NA,NA,NA,NA,NA,NA,NA,NA,NA
21523,check continue,flow.Sequence,3_0_13,NA,NA,skipped,NA,1301461.3,NA,NA,1301375.6999999,1301461.3,2023-11-11T10:33:40Z,1301596.085,NULL,NA,NA,NA,NA,NA,NA,NA,dsf,NA,13,NA,NA,NA,NA,NA,NA,NA,NA,NA,NA,NA,NA,NA,NA,NA,NA,NA,NA,NA
21523,check continue,flow.Sequence,3_0_14,NA,NA,skipped,NA,1301470.1999999,NA,NA,1301375.6999999,1301470.1999999,2023-11-11T10:33:40Z,1301596.085,NULL,NA,NA,NA,NA,NA,NA,NA,NA,NA,14,NA,NA,NA,NA,NA,NA,NA,NA,NA,NA,NA,NA,NA,NA,NA,NA,NA,NA,NA
21523,check continue,flow.Sequence,3_0_15,NA,NA,skipped,NA,1301478.3,NA,NA,1301375.6999999,1301478.4,2023-11-11T10:33:40Z,1301596.085,NULL,NA,NA,NA,NA,NA,NA,NA,NA,NA,15,NA,NA,NA,NA,NA,NA,NA,NA,NA,NA,NA,NA,NA,NA,NA,NA,NA,NA,NA
21523,check continue,flow.Sequence,3_0_16,NA,NA,skipped,NA,1301487,NA,NA,1301375.6999999,1301487.1,2023-11-11T10:33:40Z,1301596.085,NULL,NA,NA,NA,NA,NA,NA,NA,NA,NA,16,NA,NA,NA,NA,NA,NA,NA,NA,NA,NA,NA,NA,NA,NA,NA,NA,NA,NA,NA
21523,check continue,flow.Sequence,3_0_17,NA,NA,skipped,NA,1301495.1,NA,NA,1301375.6999999,1301495.1999999,2023-11-11T10:33:40Z,1301596.085,NULL,NA,NA,NA,NA,NA,NA,NA,NA,NA,17,NA,NA,NA,NA,NA,NA,NA,NA,NA,NA,NA,NA,NA,NA,NA,NA,NA,NA,NA
21523,check continue,flow.Sequence,3_0_18,NA,NA,skipped,NA,1301503.1,NA,NA,1301375.6999999,1301503.1999999,2023-11-11T10:33:40Z,1301596.085,NULL,NA,NA,NA,NA,NA,NA,NA,NA,NA,18,NA,NA,NA,NA,NA,NA,NA,NA,NA,NA,NA,NA,NA,NA,NA,NA,NA,NA,NA
21523,check continue,flow.Sequence,3_0_19,NA,NA,skipped,NA,1301510.5,NA,NA,1301375.6999999,1301510.6,2023-11-11T10:33:40Z,1301596.085,NULL,NA,NA,NA,NA,NA,NA,NA,NA,NA,19,NA,NA,NA,NA,NA,NA,NA,NA,NA,NA,NA,NA,NA,NA,NA,NA,NA,NA,NA
21523,check continue,flow.Sequence,3_0_20,NA,NA,skipped,NA,1301519,NA,NA,1301375.6999999,1301519,2023-11-11T10:33:40Z,1301596.085,NULL,NA,NA,NA,NA,NA,NA,NA,NA,NA,20,NA,NA,NA,NA,NA,NA,NA,NA,NA,NA,NA,NA,NA,NA,NA,NA,NA,NA,NA
