observation,sender,sender_type,sender_id,response,response_action,ended_on,duration,time_run,time_render,time_show,time_end,time_commit,timestamp,time_switch,german,swahili,enc,distractor1,distractor2,distractor3,response_2,x,correct,distractors,url_vp,url_sess,meta_labjs_version,meta_location,meta_user_agent,meta_platform,meta_language,meta_locale,meta_time_zone,meta_timezone_offset,meta_screen_width,meta_screen_height,meta_scroll_width,meta_scroll_height,meta_window_inner_width,meta_window_inner_height,meta_device_pixel_ratio,meta_labjs_build_flavor,meta_labjs_build_commit
8cc6e,Introduction delayed retrieval,canvas.Screen,0,weiter,keypress(Space),response,1168.4360000238,829.69999998808,763.988,830.664,1999.1000000238,2000.5,2023-12-04T13:59:04Z,2014.07,NA,NA,NA,NA,NA,NA,NA,NA,NA,NULL,151,4,20.2.4,https://neurocog.fernuni.ch/studies/vweber/jbaenninger/delayed%202/index.html?vp=151&sess=4,"Mozilla/5.0 (Windows NT 10.0; Win64; x64) AppleWebKit/537.36 (KHTML, like Gecko) Chrome/119.0.0.0 Safari/537.36",Win32,de-DE,de,Europe/Zurich,-60,1920,1080,1920,907,1920,955,1,production,f5b4a49f956347addd546a832a3327688c2c0fef
8cc6e,Deep Question,html.Page,1_0_0_0,NA,NA,form submission,62866.93,2000.6000000238,1997.395,2014.07,64881,64881.199999988,2023-12-04T14:00:07Z,64882.925,Hoffnung,matarajio,d,kutaalamika,uratibu,mvumbuzi,Matumaini,NA,NA,NULL,NA,NA,NA,NA,NA,NA,NA,NA,NA,NA,NA,NA,NA,NA,NA,NA,NA,NA,NA
8cc6e,Save data screen,canvas.Screen,1_0_0_1,NA,NA,timeout,500.238,64881.699999988,64866.428,64882.925,65366.267,65366.800000012,2023-12-04T14:00:08Z,65383.163,Hoffnung,matarajio,d,kutaalamika,uratibu,mvumbuzi,NA,NA,0,NULL,NA,NA,NA,NA,NA,NA,NA,NA,NA,NA,NA,NA,NA,NA,NA,NA,NA,NA,NA
8cc6e,deep,flow.Sequence,1_0_0,NA,NA,completion,63352.197,2000.6000000238,1997.395,2014.07,65366.267,65366.899999976,2023-12-04T14:00:08Z,65383.163,Hoffnung,matarajio,d,kutaalamika,uratibu,mvumbuzi,NA,NA,NA,NULL,NA,NA,NA,NA,NA,NA,NA,NA,NA,NA,NA,NA,NA,NA,NA,NA,NA,NA,NA
8cc6e,task,flow.Sequence,1_0,NA,NA,completion,63352.197,2000.6000000238,1997.395,2014.07,65366.267,65367,2023-12-04T14:00:08Z,65383.163,Hoffnung,matarajio,d,kutaalamika,uratibu,mvumbuzi,NA,NA,NA,NULL,NA,NA,NA,NA,NA,NA,NA,NA,NA,NA,NA,NA,NA,NA,NA,NA,NA,NA,NA
8cc6e,Deep Question,html.Page,1_1_0_0,NA,NA,form submission,9968.7369999762,65367.100000024,65366.267,65383.163,75351.899999976,75352,2023-12-04T14:00:18Z,75366.69,Fenster,dirisha,s,walakini,tasawari,maarifa,Diria,NA,NA,NULL,NA,NA,NA,NA,NA,NA,NA,NA,NA,NA,NA,NA,NA,NA,NA,NA,NA,NA,NA
8cc6e,Save data screen,canvas.Screen,1_1_0_1,NA,NA,timeout,500.409,75353.699999988,75335.46,75366.69,75850.159,75850.699999988,2023-12-04T14:00:18Z,75867.099,Fenster,dirisha,s,walakini,tasawari,maarifa,NA,NA,0,NULL,NA,NA,NA,NA,NA,NA,NA,NA,NA,NA,NA,NA,NA,NA,NA,NA,NA,NA,NA
8cc6e,deep,flow.Sequence,1_1_0,NA,NA,completion,10466.996,65367.100000024,65366.267,65383.163,75850.159,75850.800000012,2023-12-04T14:00:18Z,75867.099,Fenster,dirisha,s,walakini,tasawari,maarifa,NA,NA,NA,NULL,NA,NA,NA,NA,NA,NA,NA,NA,NA,NA,NA,NA,NA,NA,NA,NA,NA,NA,NA
8cc6e,task,flow.Sequence,1_1,NA,NA,completion,10466.996,65367,65366.267,65383.163,75850.159,75850.899999976,2023-12-04T14:00:18Z,75867.099,Fenster,dirisha,s,walakini,tasawari,maarifa,NA,NA,NA,NULL,NA,NA,NA,NA,NA,NA,NA,NA,NA,NA,NA,NA,NA,NA,NA,NA,NA,NA,NA
8cc6e,Deep Question,html.Page,1_2_0_0,NA,NA,form submission,15732.401,75851,75850.159,75867.099,91599.5,91599.800000012,2023-12-04T14:00:34Z,91617.632,Schüler,mwanafunzi,d,mwekezaji,matumizi,uaminifu,Wanzi,NA,NA,NULL,NA,NA,NA,NA,NA,NA,NA,NA,NA,NA,NA,NA,NA,NA,NA,NA,NA,NA,NA
8cc6e,Save data screen,canvas.Screen,1_2_0_1,NA,NA,timeout,499.815,91601.199999988,91584.447,91617.632,92100.64,92100.899999976,2023-12-04T14:00:35Z,92117.447,Schüler,mwanafunzi,d,mwekezaji,matumizi,uaminifu,NA,NA,0,NULL,NA,NA,NA,NA,NA,NA,NA,NA,NA,NA,NA,NA,NA,NA,NA,NA,NA,NA,NA
8cc6e,deep,flow.Sequence,1_2_0,NA,NA,completion,16233.541,75851,75850.159,75867.099,92100.64,92101.100000024,2023-12-04T14:00:35Z,92117.447,Schüler,mwanafunzi,d,mwekezaji,matumizi,uaminifu,NA,NA,NA,NULL,NA,NA,NA,NA,NA,NA,NA,NA,NA,NA,NA,NA,NA,NA,NA,NA,NA,NA,NA
8cc6e,task,flow.Sequence,1_2,NA,NA,completion,16233.541,75851,75850.159,75867.099,92100.64,92101.100000024,2023-12-04T14:00:35Z,92117.447,Schüler,mwanafunzi,d,mwekezaji,matumizi,uaminifu,NA,NA,NA,NULL,NA,NA,NA,NA,NA,NA,NA,NA,NA,NA,NA,NA,NA,NA,NA,NA,NA,NA,NA
8cc6e,Deep Question,html.Page,1_3_0_0,NA,NA,form submission,13546.353000012,92101.199999988,92100.64,92117.447,105663.80000001,105664.10000002,2023-12-04T14:00:48Z,105667.767,Verpackung,ufungaji,d,uhusiano,upimaji,uchunguzi,Ufunga,NA,NA,NULL,NA,NA,NA,NA,NA,NA,NA,NA,NA,NA,NA,NA,NA,NA,NA,NA,NA,NA,NA
8cc6e,Save data screen,canvas.Screen,1_3_0_1,NA,NA,timeout,500.09499999999,105665.39999998,105651.234,105667.767,106151.07,106151.69999999,2023-12-04T14:00:49Z,106167.862,Verpackung,ufungaji,d,uhusiano,upimaji,uchunguzi,NA,NA,0,NULL,NA,NA,NA,NA,NA,NA,NA,NA,NA,NA,NA,NA,NA,NA,NA,NA,NA,NA,NA
8cc6e,deep,flow.Sequence,1_3_0,NA,NA,completion,14033.623,92101.199999988,92100.64,92117.447,106151.07,106151.89999998,2023-12-04T14:00:49Z,106167.862,Verpackung,ufungaji,d,uhusiano,upimaji,uchunguzi,NA,NA,NA,NULL,NA,NA,NA,NA,NA,NA,NA,NA,NA,NA,NA,NA,NA,NA,NA,NA,NA,NA,NA
8cc6e,task,flow.Sequence,1_3,NA,NA,completion,14033.623,92101.100000024,92100.64,92117.447,106151.07,106151.89999998,2023-12-04T14:00:49Z,106167.862,Verpackung,ufungaji,d,uhusiano,upimaji,uchunguzi,NA,NA,NA,NULL,NA,NA,NA,NA,NA,NA,NA,NA,NA,NA,NA,NA,NA,NA,NA,NA,NA,NA,NA
8cc6e,Deep Question,html.Page,1_4_0_0,NA,NA,form submission,13711.638,106152.10000002,106151.07,106167.862,119879.5,119879.60000002,2023-12-04T14:01:02Z,119901.476,Spionage,upelelezi,s,maslahi,utokazo,magangao,Karit,NA,NA,NULL,NA,NA,NA,NA,NA,NA,NA,NA,NA,NA,NA,NA,NA,NA,NA,NA,NA,NA,NA
8cc6e,Save data screen,canvas.Screen,1_4_0_1,NA,NA,timeout,500.24000000001,119881.30000001,119885.435,119901.476,120384.797,120386.19999999,2023-12-04T14:01:03Z,120401.716,Spionage,upelelezi,s,maslahi,utokazo,magangao,NA,NA,0,NULL,NA,NA,NA,NA,NA,NA,NA,NA,NA,NA,NA,NA,NA,NA,NA,NA,NA,NA,NA
8cc6e,deep,flow.Sequence,1_4_0,NA,NA,completion,14216.935,106152.10000002,106151.07,106167.862,120384.797,120386.30000001,2023-12-04T14:01:03Z,120401.716,Spionage,upelelezi,s,maslahi,utokazo,magangao,NA,NA,NA,NULL,NA,NA,NA,NA,NA,NA,NA,NA,NA,NA,NA,NA,NA,NA,NA,NA,NA,NA,NA
8cc6e,task,flow.Sequence,1_4,NA,NA,completion,14216.935,106152,106151.07,106167.862,120384.797,120386.30000001,2023-12-04T14:01:03Z,120401.716,Spionage,upelelezi,s,maslahi,utokazo,magangao,NA,NA,NA,NULL,NA,NA,NA,NA,NA,NA,NA,NA,NA,NA,NA,NA,NA,NA,NA,NA,NA,NA,NA
8cc6e,Deep Question,html.Page,1_5_0_0,NA,NA,form submission,10958.784,120386.39999998,120384.797,120401.716,131360.5,131360.60000002,2023-12-04T14:01:14Z,131368.593,Schock,mshtuko,s,biashara,kukataza,vichekesho,mshtuko,NA,NA,NULL,NA,NA,NA,NA,NA,NA,NA,NA,NA,NA,NA,NA,NA,NA,NA,NA,NA,NA,NA
8cc6e,Save data screen,canvas.Screen,1_5_0_1,NA,NA,timeout,499.98300000001,131362,131352.257,131368.593,131851.933,131852.19999999,2023-12-04T14:01:14Z,131868.576,Schock,mshtuko,s,biashara,kukataza,vichekesho,NA,NA,1,NULL,NA,NA,NA,NA,NA,NA,NA,NA,NA,NA,NA,NA,NA,NA,NA,NA,NA,NA,NA
8cc6e,deep,flow.Sequence,1_5_0,NA,NA,completion,11450.217,120386.39999998,120384.797,120401.716,131851.933,131852.30000001,2023-12-04T14:01:14Z,131868.576,Schock,mshtuko,s,biashara,kukataza,vichekesho,NA,NA,NA,NULL,NA,NA,NA,NA,NA,NA,NA,NA,NA,NA,NA,NA,NA,NA,NA,NA,NA,NA,NA
8cc6e,task,flow.Sequence,1_5,NA,NA,completion,11450.217,120386.39999998,120384.797,120401.716,131851.933,131852.39999998,2023-12-04T14:01:14Z,131868.576,Schock,mshtuko,s,biashara,kukataza,vichekesho,NA,NA,NA,NULL,NA,NA,NA,NA,NA,NA,NA,NA,NA,NA,NA,NA,NA,NA,NA,NA,NA,NA,NA
8cc6e,Deep Question,html.Page,1_6_0_0,NA,NA,form submission,14621.823999976,131852.60000002,131851.933,131868.576,146490.39999998,146490.60000002,2023-12-04T14:01:29Z,146502.468,Wohlstand,mafanikio,s,chimbuko,kumbuko,mapwaji,Diwia,NA,NA,NULL,NA,NA,NA,NA,NA,NA,NA,NA,NA,NA,NA,NA,NA,NA,NA,NA,NA,NA,NA
8cc6e,Save data screen,canvas.Screen,1_6_0_1,NA,NA,timeout,500.15700000001,146491.80000001,146485.859,146502.468,146985.789,146986.19999999,2023-12-04T14:01:29Z,147002.625,Wohlstand,mafanikio,s,chimbuko,kumbuko,mapwaji,NA,NA,0,NULL,NA,NA,NA,NA,NA,NA,NA,NA,NA,NA,NA,NA,NA,NA,NA,NA,NA,NA,NA
8cc6e,deep,flow.Sequence,1_6_0,NA,NA,completion,15117.213,131852.5,131851.933,131868.576,146985.789,146986.30000001,2023-12-04T14:01:29Z,147002.625,Wohlstand,mafanikio,s,chimbuko,kumbuko,mapwaji,NA,NA,NA,NULL,NA,NA,NA,NA,NA,NA,NA,NA,NA,NA,NA,NA,NA,NA,NA,NA,NA,NA,NA
8cc6e,task,flow.Sequence,1_6,NA,NA,completion,15117.213,131852.39999998,131851.933,131868.576,146985.789,146986.39999998,2023-12-04T14:01:29Z,147002.625,Wohlstand,mafanikio,s,chimbuko,kumbuko,mapwaji,NA,NA,NA,NULL,NA,NA,NA,NA,NA,NA,NA,NA,NA,NA,NA,NA,NA,NA,NA,NA,NA,NA,NA
8cc6e,Deep Question,html.Page,1_7_0_0,NA,NA,form submission,15692.675000012,146986.39999998,146985.789,147002.625,162695.30000001,162695.39999998,2023-12-04T14:01:45Z,162702.944,Vergnügen,kichekesho,d,dubwana,mpanuko,mtesaji,Stageta,NA,NA,NULL,NA,NA,NA,NA,NA,NA,NA,NA,NA,NA,NA,NA,NA,NA,NA,NA,NA,NA,NA
8cc6e,Save data screen,canvas.Screen,1_7_0_1,NA,NA,timeout,500.057,162696.69999999,162687.165,162702.944,163186.34,163186.60000002,2023-12-04T14:01:46Z,163203.001,Vergnügen,kichekesho,d,dubwana,mpanuko,mtesaji,NA,NA,0,NULL,NA,NA,NA,NA,NA,NA,NA,NA,NA,NA,NA,NA,NA,NA,NA,NA,NA,NA,NA
8cc6e,deep,flow.Sequence,1_7_0,NA,NA,completion,16183.715,146986.39999998,146985.789,147002.625,163186.34,163186.80000001,2023-12-04T14:01:46Z,163203.001,Vergnügen,kichekesho,d,dubwana,mpanuko,mtesaji,NA,NA,NA,NULL,NA,NA,NA,NA,NA,NA,NA,NA,NA,NA,NA,NA,NA,NA,NA,NA,NA,NA,NA
8cc6e,task,flow.Sequence,1_7,NA,NA,completion,16183.715,146986.39999998,146985.789,147002.625,163186.34,163186.80000001,2023-12-04T14:01:46Z,163203.001,Vergnügen,kichekesho,d,dubwana,mpanuko,mtesaji,NA,NA,NA,NULL,NA,NA,NA,NA,NA,NA,NA,NA,NA,NA,NA,NA,NA,NA,NA,NA,NA,NA,NA
8cc6e,Deep Question,html.Page,1_8_0_0,NA,NA,form submission,15428.599000024,163186.80000001,163186.34,163203.001,178631.60000002,178631.69999999,2023-12-04T14:02:01Z,178636.871,Inhalt,yaliyomo,d,kishawishi,hifadhi,kutembea,Yaliyomo,NA,NA,NULL,NA,NA,NA,NA,NA,NA,NA,NA,NA,NA,NA,NA,NA,NA,NA,NA,NA,NA,NA
8cc6e,Save data screen,canvas.Screen,1_8_0_1,NA,NA,timeout,500.01999999999,178633.10000002,178620.355,178636.871,179120.289,179121.30000001,2023-12-04T14:02:02Z,179136.891,Inhalt,yaliyomo,d,kishawishi,hifadhi,kutembea,NA,NA,0,NULL,NA,NA,NA,NA,NA,NA,NA,NA,NA,NA,NA,NA,NA,NA,NA,NA,NA,NA,NA
8cc6e,deep,flow.Sequence,1_8_0,NA,NA,completion,15917.288,163186.80000001,163186.34,163203.001,179120.289,179121.69999999,2023-12-04T14:02:02Z,179136.891,Inhalt,yaliyomo,d,kishawishi,hifadhi,kutembea,NA,NA,NA,NULL,NA,NA,NA,NA,NA,NA,NA,NA,NA,NA,NA,NA,NA,NA,NA,NA,NA,NA,NA
8cc6e,task,flow.Sequence,1_8,NA,NA,completion,15917.288,163186.80000001,163186.34,163203.001,179120.289,179122,2023-12-04T14:02:02Z,179136.891,Inhalt,yaliyomo,d,kishawishi,hifadhi,kutembea,NA,NA,NA,NULL,NA,NA,NA,NA,NA,NA,NA,NA,NA,NA,NA,NA,NA,NA,NA,NA,NA,NA,NA
8cc6e,Deep Question,html.Page,1_9_0_0,NA,NA,form submission,56974.709000024,179122.19999999,179120.289,179136.891,236111.60000002,236111.69999999,2023-12-04T14:02:59Z,236122.213,Notfall,dharura,d,rairai,malalamiko,ahueni,dharura,NA,NA,NULL,NA,NA,NA,NA,NA,NA,NA,NA,NA,NA,NA,NA,NA,NA,NA,NA,NA,NA,NA
8cc6e,Save data screen,canvas.Screen,1_9_0_1,NA,NA,timeout,500.02500000002,236113.39999998,236105.516,236122.213,236605.599,236606.10000002,2023-12-04T14:02:59Z,236622.238,Notfall,dharura,d,rairai,malalamiko,ahueni,NA,NA,1,NULL,NA,NA,NA,NA,NA,NA,NA,NA,NA,NA,NA,NA,NA,NA,NA,NA,NA,NA,NA
8cc6e,deep,flow.Sequence,1_9_0,NA,NA,completion,57468.708,179122.10000002,179120.289,179136.891,236605.599,236606.30000001,2023-12-04T14:02:59Z,236622.238,Notfall,dharura,d,rairai,malalamiko,ahueni,NA,NA,NA,NULL,NA,NA,NA,NA,NA,NA,NA,NA,NA,NA,NA,NA,NA,NA,NA,NA,NA,NA,NA
8cc6e,task,flow.Sequence,1_9,NA,NA,completion,57468.708,179122,179120.289,179136.891,236605.599,236606.39999998,2023-12-04T14:02:59Z,236622.238,Notfall,dharura,d,rairai,malalamiko,ahueni,NA,NA,NA,NULL,NA,NA,NA,NA,NA,NA,NA,NA,NA,NA,NA,NA,NA,NA,NA,NA,NA,NA,NA
8cc6e,Deep Question,html.Page,1_10_0_0,NA,NA,form submission,48114.062000012,236606.69999999,236605.599,236622.238,284736.30000001,284736.5,2023-12-04T14:03:47Z,284740.668,Theorie,nadharia,s,ushungi,mkutano,uwakilishi,nadharia,NA,NA,NULL,NA,NA,NA,NA,NA,NA,NA,NA,NA,NA,NA,NA,NA,NA,NA,NA,NA,NA,NA
8cc6e,Save data screen,canvas.Screen,1_10_0_1,NA,NA,timeout,499.93699999998,284738,284723.779,284740.668,285223.909,285224.30000001,2023-12-04T14:03:48Z,285240.605,Theorie,nadharia,s,ushungi,mkutano,uwakilishi,NA,NA,1,NULL,NA,NA,NA,NA,NA,NA,NA,NA,NA,NA,NA,NA,NA,NA,NA,NA,NA,NA,NA
8cc6e,deep,flow.Sequence,1_10_0,NA,NA,completion,48601.671,236606.69999999,236605.599,236622.238,285223.909,285224.39999998,2023-12-04T14:03:48Z,285240.605,Theorie,nadharia,s,ushungi,mkutano,uwakilishi,NA,NA,NA,NULL,NA,NA,NA,NA,NA,NA,NA,NA,NA,NA,NA,NA,NA,NA,NA,NA,NA,NA,NA
8cc6e,task,flow.Sequence,1_10,NA,NA,completion,48601.671,236606.5,236605.599,236622.238,285223.909,285224.39999998,2023-12-04T14:03:48Z,285240.605,Theorie,nadharia,s,ushungi,mkutano,uwakilishi,NA,NA,NA,NULL,NA,NA,NA,NA,NA,NA,NA,NA,NA,NA,NA,NA,NA,NA,NA,NA,NA,NA,NA
8cc6e,Deep Question,html.Page,1_11_0_0,NA,NA,form submission,26646.695000012,285224.5,285223.909,285240.605,311887.30000001,311887.39999998,2023-12-04T14:04:14Z,311891.504,Schlange,foleni,s,uvumilivu,uteuzi,muuzaji,Fondi,NA,NA,NULL,NA,NA,NA,NA,NA,NA,NA,NA,NA,NA,NA,NA,NA,NA,NA,NA,NA,NA,NA
8cc6e,Save data screen,canvas.Screen,1_11_0_1,NA,NA,timeout,500.17599999998,311889.30000001,311874.939,311891.504,312374.988,312375.89999998,2023-12-04T14:04:15Z,312391.68,Schlange,foleni,s,uvumilivu,uteuzi,muuzaji,NA,NA,0,NULL,NA,NA,NA,NA,NA,NA,NA,NA,NA,NA,NA,NA,NA,NA,NA,NA,NA,NA,NA
8cc6e,deep,flow.Sequence,1_11_0,NA,NA,completion,27134.383,285224.39999998,285223.909,285240.605,312374.988,312376.19999999,2023-12-04T14:04:15Z,312391.68,Schlange,foleni,s,uvumilivu,uteuzi,muuzaji,NA,NA,NA,NULL,NA,NA,NA,NA,NA,NA,NA,NA,NA,NA,NA,NA,NA,NA,NA,NA,NA,NA,NA
8cc6e,task,flow.Sequence,1_11,NA,NA,completion,27134.383,285224.39999998,285223.909,285240.605,312374.988,312376.39999998,2023-12-04T14:04:15Z,312391.68,Schlange,foleni,s,uvumilivu,uteuzi,muuzaji,NA,NA,NA,NULL,NA,NA,NA,NA,NA,NA,NA,NA,NA,NA,NA,NA,NA,NA,NA,NA,NA,NA,NA
8cc6e,Deep Question,html.Page,1_12_0_0,NA,NA,form submission,21799.019999988,312376.60000002,312374.988,312391.68,334190.69999999,334190.89999998,2023-12-04T14:04:37Z,334192.248,Toleranz,kuvumiliana,s,maombolezo,ujasusi,mchekeshaji,uhelilyji,NA,NA,NULL,NA,NA,NA,NA,NA,NA,NA,NA,NA,NA,NA,NA,NA,NA,NA,NA,NA,NA,NA
8cc6e,Save data screen,canvas.Screen,1_12_0_1,NA,NA,timeout,500.01399999997,334192.5,334175.571,334192.248,334675.602,334676.10000002,2023-12-04T14:04:37Z,334692.262,Toleranz,kuvumiliana,s,maombolezo,ujasusi,mchekeshaji,NA,NA,0,NULL,NA,NA,NA,NA,NA,NA,NA,NA,NA,NA,NA,NA,NA,NA,NA,NA,NA,NA,NA
8cc6e,deep,flow.Sequence,1_12_0,NA,NA,completion,22283.922,312376.5,312374.988,312391.68,334675.602,334676.39999998,2023-12-04T14:04:37Z,334692.262,Toleranz,kuvumiliana,s,maombolezo,ujasusi,mchekeshaji,NA,NA,NA,NULL,NA,NA,NA,NA,NA,NA,NA,NA,NA,NA,NA,NA,NA,NA,NA,NA,NA,NA,NA
8cc6e,task,flow.Sequence,1_12,NA,NA,completion,22283.922,312376.5,312374.988,312391.68,334675.602,334676.5,2023-12-04T14:04:37Z,334692.262,Toleranz,kuvumiliana,s,maombolezo,ujasusi,mchekeshaji,NA,NA,NA,NULL,NA,NA,NA,NA,NA,NA,NA,NA,NA,NA,NA,NA,NA,NA,NA,NA,NA,NA,NA
8cc6e,Deep Question,html.Page,1_13_0_0,NA,NA,form submission,22362.937999988,334676.60000002,334675.602,334692.262,357055.19999999,357055.39999998,2023-12-04T14:04:59Z,357059.671,Vermutung,udhanifu,d,haramia,tikisho,itifaki,Dhana,NA,NA,NULL,NA,NA,NA,NA,NA,NA,NA,NA,NA,NA,NA,NA,NA,NA,NA,NA,NA,NA,NA
8cc6e,Save data screen,canvas.Screen,1_13_0_1,NA,NA,timeout,500.16800000001,357057.5,357043.406,357059.671,357543.097,357543.69999999,2023-12-04T14:05:00Z,357559.839,Vermutung,udhanifu,d,haramia,tikisho,itifaki,NA,NA,0,NULL,NA,NA,NA,NA,NA,NA,NA,NA,NA,NA,NA,NA,NA,NA,NA,NA,NA,NA,NA
8cc6e,deep,flow.Sequence,1_13_0,NA,NA,completion,22850.835,334676.60000002,334675.602,334692.262,357543.097,357543.69999999,2023-12-04T14:05:00Z,357559.839,Vermutung,udhanifu,d,haramia,tikisho,itifaki,NA,NA,NA,NULL,NA,NA,NA,NA,NA,NA,NA,NA,NA,NA,NA,NA,NA,NA,NA,NA,NA,NA,NA
8cc6e,task,flow.Sequence,1_13,NA,NA,completion,22850.835,334676.60000002,334675.602,334692.262,357543.097,357543.80000001,2023-12-04T14:05:00Z,357559.839,Vermutung,udhanifu,d,haramia,tikisho,itifaki,NA,NA,NA,NULL,NA,NA,NA,NA,NA,NA,NA,NA,NA,NA,NA,NA,NA,NA,NA,NA,NA,NA,NA
8cc6e,Deep Question,html.Page,1_14_0_0,NA,NA,form submission,7110.7610000239,357543.80000001,357543.097,357559.839,364670.60000002,364670.69999999,2023-12-04T14:05:07Z,364676.593,Ergänzung,kijalizo,s,ulaghai,mustarehe,matangazo,Wiliwi,NA,NA,NULL,NA,NA,NA,NA,NA,NA,NA,NA,NA,NA,NA,NA,NA,NA,NA,NA,NA,NA,NA
8cc6e,Save data screen,canvas.Screen,1_14_0_1,NA,NA,timeout,500.12200000003,364672.10000002,364659.931,364676.593,365160.014,365160.39999998,2023-12-04T14:05:08Z,365176.715,Ergänzung,kijalizo,s,ulaghai,mustarehe,matangazo,NA,NA,0,NULL,NA,NA,NA,NA,NA,NA,NA,NA,NA,NA,NA,NA,NA,NA,NA,NA,NA,NA,NA
8cc6e,deep,flow.Sequence,1_14_0,NA,NA,completion,7600.175,357543.80000001,357543.097,357559.839,365160.014,365160.39999998,2023-12-04T14:05:08Z,365176.715,Ergänzung,kijalizo,s,ulaghai,mustarehe,matangazo,NA,NA,NA,NULL,NA,NA,NA,NA,NA,NA,NA,NA,NA,NA,NA,NA,NA,NA,NA,NA,NA,NA,NA
8cc6e,task,flow.Sequence,1_14,NA,NA,completion,7600.175,357543.80000001,357543.097,357559.839,365160.014,365160.5,2023-12-04T14:05:08Z,365176.715,Ergänzung,kijalizo,s,ulaghai,mustarehe,matangazo,NA,NA,NA,NULL,NA,NA,NA,NA,NA,NA,NA,NA,NA,NA,NA,NA,NA,NA,NA,NA,NA,NA,NA
8cc6e,Deep Question,html.Page,1_15_0_0,NA,NA,form submission,14022.285,365160.5,365160.014,365176.715,379199,379199,2023-12-04T14:05:22Z,379210.552,Tester,wanaojaribu,d,sherti,sihiri,mlipuko,Mjaribi,NA,NA,NULL,NA,NA,NA,NA,NA,NA,NA,NA,NA,NA,NA,NA,NA,NA,NA,NA,NA,NA,NA
8cc6e,Save data screen,canvas.Screen,1_15_0_1,NA,NA,timeout,499.989,379200.39999998,379194.057,379210.552,379694.259,379694.69999999,2023-12-04T14:05:22Z,379710.541,Tester,wanaojaribu,d,sherti,sihiri,mlipuko,NA,NA,0,NULL,NA,NA,NA,NA,NA,NA,NA,NA,NA,NA,NA,NA,NA,NA,NA,NA,NA,NA,NA
8cc6e,deep,flow.Sequence,1_15_0,NA,NA,completion,14517.544,365160.5,365160.014,365176.715,379694.259,379694.89999998,2023-12-04T14:05:22Z,379710.541,Tester,wanaojaribu,d,sherti,sihiri,mlipuko,NA,NA,NA,NULL,NA,NA,NA,NA,NA,NA,NA,NA,NA,NA,NA,NA,NA,NA,NA,NA,NA,NA,NA
8cc6e,task,flow.Sequence,1_15,NA,NA,completion,14517.544,365160.5,365160.014,365176.715,379694.259,379695,2023-12-04T14:05:22Z,379710.541,Tester,wanaojaribu,d,sherti,sihiri,mlipuko,NA,NA,NA,NULL,NA,NA,NA,NA,NA,NA,NA,NA,NA,NA,NA,NA,NA,NA,NA,NA,NA,NA,NA
8cc6e,retrieval block 1 (cued recall),flow.Loop,1,NA,NA,completion,377680.189,2000.6000000238,1997.395,2014.07,379694.259,379695,2023-12-04T14:05:22Z,379710.541,NA,NA,NA,NA,NA,NA,NA,NA,NA,NULL,NA,NA,NA,NA,NA,NA,NA,NA,NA,NA,NA,NA,NA,NA,NA,NA,NA,NA,NA
8cc6e,Shallow Question,html.Page,2_0_0_0,NA,NA,form submission,16348.059000024,379695.10000002,379694.259,379710.541,396058.60000002,396058.80000001,2023-12-04T14:05:38Z,396061.087,Vergnügen,kichekesho,d,dubwana,mpanuko,mtesaji,dubwana,NA,NA,"c(""distractor1"", ""distractor2"", ""distractor3"")",NA,NA,NA,NA,NA,NA,NA,NA,NA,NA,NA,NA,NA,NA,NA,NA,NA,NA,NA
8cc6e,Save data screen,canvas.Screen,2_0_0_1,NA,NA,timeout,500.02799999999,396060.10000002,396044.385,396061.087,396544.941,396545.5,2023-12-04T14:05:39Z,396561.115,Vergnügen,kichekesho,d,dubwana,mpanuko,mtesaji,NA,NA,0,"c(""distractor1"", ""distractor2"", ""distractor3"")",NA,NA,NA,NA,NA,NA,NA,NA,NA,NA,NA,NA,NA,NA,NA,NA,NA,NA,NA
8cc6e,shallow,flow.Sequence,2_0_0,NA,NA,completion,16834.4,379695.10000002,379694.259,379710.541,396544.941,396545.60000002,2023-12-04T14:05:39Z,396561.115,Vergnügen,kichekesho,d,dubwana,mpanuko,mtesaji,NA,NA,NA,"c(""distractor1"", ""distractor2"", ""distractor3"")",NA,NA,NA,NA,NA,NA,NA,NA,NA,NA,NA,NA,NA,NA,NA,NA,NA,NA,NA
8cc6e,task,flow.Sequence,2_0,NA,NA,completion,16834.4,379695.10000002,379694.259,379710.541,396544.941,396545.69999999,2023-12-04T14:05:39Z,396561.115,Vergnügen,kichekesho,d,dubwana,mpanuko,mtesaji,NA,NA,NA,"c(""distractor1"", ""distractor2"", ""distractor3"")",NA,NA,NA,NA,NA,NA,NA,NA,NA,NA,NA,NA,NA,NA,NA,NA,NA,NA,NA
8cc6e,Shallow Question,html.Page,2_1_0_0,NA,NA,form submission,6499.2849999762,396545.69999999,396544.941,396561.115,403060.39999998,403060.80000001,2023-12-04T14:05:45Z,403077.922,Schock,mshtuko,s,biashara,kukataza,vichekesho,vichekesho,NA,NA,"c(""distractor1"", ""distractor2"", ""distractor3"")",NA,NA,NA,NA,NA,NA,NA,NA,NA,NA,NA,NA,NA,NA,NA,NA,NA,NA,NA
8cc6e,Save data screen,canvas.Screen,2_1_0_1,NA,NA,timeout,500.14199999999,403062.10000002,403061.332,403077.922,403561.489,403562.19999999,2023-12-04T14:05:46Z,403578.064,Schock,mshtuko,s,biashara,kukataza,vichekesho,NA,NA,0,"c(""distractor1"", ""distractor2"", ""distractor3"")",NA,NA,NA,NA,NA,NA,NA,NA,NA,NA,NA,NA,NA,NA,NA,NA,NA,NA,NA
8cc6e,shallow,flow.Sequence,2_1_0,NA,NA,completion,7000.374,396545.69999999,396544.941,396561.115,403561.489,403562.5,2023-12-04T14:05:46Z,403578.064,Schock,mshtuko,s,biashara,kukataza,vichekesho,NA,NA,NA,"c(""distractor1"", ""distractor2"", ""distractor3"")",NA,NA,NA,NA,NA,NA,NA,NA,NA,NA,NA,NA,NA,NA,NA,NA,NA,NA,NA
8cc6e,task,flow.Sequence,2_1,NA,NA,completion,7000.374,396545.69999999,396544.941,396561.115,403561.489,403562.80000001,2023-12-04T14:05:46Z,403578.064,Schock,mshtuko,s,biashara,kukataza,vichekesho,NA,NA,NA,"c(""distractor1"", ""distractor2"", ""distractor3"")",NA,NA,NA,NA,NA,NA,NA,NA,NA,NA,NA,NA,NA,NA,NA,NA,NA,NA,NA
8cc6e,Shallow Question,html.Page,2_2_0_0,NA,NA,form submission,7158.3359999761,403563.10000002,403561.489,403578.064,410736.39999998,410736.60000002,2023-12-04T14:05:53Z,410745.011,Ergänzung,kijalizo,s,ulaghai,mustarehe,matangazo,ulaghai,NA,NA,"c(""distractor1"", ""distractor2"", ""distractor3"")",NA,NA,NA,NA,NA,NA,NA,NA,NA,NA,NA,NA,NA,NA,NA,NA,NA,NA,NA
8cc6e,Save data screen,canvas.Screen,2_2_0_1,NA,NA,timeout,500.52299999999,410737.89999998,410728.226,410745.011,411228.738,411229.69999999,2023-12-04T14:05:54Z,411245.534,Ergänzung,kijalizo,s,ulaghai,mustarehe,matangazo,NA,NA,0,"c(""distractor1"", ""distractor2"", ""distractor3"")",NA,NA,NA,NA,NA,NA,NA,NA,NA,NA,NA,NA,NA,NA,NA,NA,NA,NA,NA
8cc6e,shallow,flow.Sequence,2_2_0,NA,NA,completion,7650.674,403562.89999998,403561.489,403578.064,411228.738,411229.89999998,2023-12-04T14:05:54Z,411245.534,Ergänzung,kijalizo,s,ulaghai,mustarehe,matangazo,NA,NA,NA,"c(""distractor1"", ""distractor2"", ""distractor3"")",NA,NA,NA,NA,NA,NA,NA,NA,NA,NA,NA,NA,NA,NA,NA,NA,NA,NA,NA
8cc6e,task,flow.Sequence,2_2,NA,NA,completion,7650.674,403562.89999998,403561.489,403578.064,411228.738,411230.19999999,2023-12-04T14:05:54Z,411245.534,Ergänzung,kijalizo,s,ulaghai,mustarehe,matangazo,NA,NA,NA,"c(""distractor1"", ""distractor2"", ""distractor3"")",NA,NA,NA,NA,NA,NA,NA,NA,NA,NA,NA,NA,NA,NA,NA,NA,NA,NA,NA
8cc6e,Shallow Question,html.Page,2_3_0_0,NA,NA,form submission,3301.2660000119,411230.39999998,411228.738,411245.534,414546.80000001,414547.39999998,2023-12-04T14:05:57Z,414564.142,Schlange,foleni,s,uvumilivu,uteuzi,muuzaji,foleni,NA,NA,"c(""distractor1"", ""distractor2"", ""distractor3"")",NA,NA,NA,NA,NA,NA,NA,NA,NA,NA,NA,NA,NA,NA,NA,NA,NA,NA,NA
8cc6e,Save data screen,canvas.Screen,2_3_0_1,NA,NA,timeout,497.60100000002,414548.60000002,414544.965,414564.142,415045.106,415045.60000002,2023-12-04T14:05:57Z,415061.743,Schlange,foleni,s,uvumilivu,uteuzi,muuzaji,NA,NA,1,"c(""distractor1"", ""distractor2"", ""distractor3"")",NA,NA,NA,NA,NA,NA,NA,NA,NA,NA,NA,NA,NA,NA,NA,NA,NA,NA,NA
8cc6e,shallow,flow.Sequence,2_3_0,NA,NA,completion,3799.572,411230.39999998,411228.738,411245.534,415045.106,415045.80000001,2023-12-04T14:05:57Z,415061.743,Schlange,foleni,s,uvumilivu,uteuzi,muuzaji,NA,NA,NA,"c(""distractor1"", ""distractor2"", ""distractor3"")",NA,NA,NA,NA,NA,NA,NA,NA,NA,NA,NA,NA,NA,NA,NA,NA,NA,NA,NA
8cc6e,task,flow.Sequence,2_3,NA,NA,completion,3799.572,411230.19999999,411228.738,411245.534,415045.106,415046,2023-12-04T14:05:57Z,415061.743,Schlange,foleni,s,uvumilivu,uteuzi,muuzaji,NA,NA,NA,"c(""distractor1"", ""distractor2"", ""distractor3"")",NA,NA,NA,NA,NA,NA,NA,NA,NA,NA,NA,NA,NA,NA,NA,NA,NA,NA,NA
8cc6e,Shallow Question,html.Page,2_4_0_0,NA,NA,form submission,4196.5570000119,415046,415045.106,415061.743,419258.30000001,419258.60000002,2023-12-04T14:06:02Z,419261.859,Verpackung,ufungaji,d,uhusiano,upimaji,uchunguzi,ufungaji,NA,NA,"c(""distractor1"", ""distractor2"", ""distractor3"")",NA,NA,NA,NA,NA,NA,NA,NA,NA,NA,NA,NA,NA,NA,NA,NA,NA,NA,NA
8cc6e,Save data screen,canvas.Screen,2_4_0_1,NA,NA,timeout,500.07299999997,419259.69999999,419245.308,419261.859,419745.371,419746.30000001,2023-12-04T14:06:02Z,419761.932,Verpackung,ufungaji,d,uhusiano,upimaji,uchunguzi,NA,NA,1,"c(""distractor1"", ""distractor2"", ""distractor3"")",NA,NA,NA,NA,NA,NA,NA,NA,NA,NA,NA,NA,NA,NA,NA,NA,NA,NA,NA
8cc6e,shallow,flow.Sequence,2_4_0,NA,NA,completion,4683.628,415046,415045.106,415061.743,419745.371,419746.60000002,2023-12-04T14:06:02Z,419761.932,Verpackung,ufungaji,d,uhusiano,upimaji,uchunguzi,NA,NA,NA,"c(""distractor1"", ""distractor2"", ""distractor3"")",NA,NA,NA,NA,NA,NA,NA,NA,NA,NA,NA,NA,NA,NA,NA,NA,NA,NA,NA
8cc6e,task,flow.Sequence,2_4,NA,NA,completion,4683.628,415046,415045.106,415061.743,419745.371,419746.89999998,2023-12-04T14:06:02Z,419761.932,Verpackung,ufungaji,d,uhusiano,upimaji,uchunguzi,NA,NA,NA,"c(""distractor1"", ""distractor2"", ""distractor3"")",NA,NA,NA,NA,NA,NA,NA,NA,NA,NA,NA,NA,NA,NA,NA,NA,NA,NA,NA
8cc6e,Shallow Question,html.Page,2_5_0_0,NA,NA,form submission,7220.8680000119,419747.10000002,419745.371,419761.932,426982.80000001,426982.89999998,2023-12-04T14:06:09Z,427012.216,Inhalt,yaliyomo,d,kishawishi,hifadhi,kutembea,kishawishi,NA,NA,"c(""distractor1"", ""distractor2"", ""distractor3"")",NA,NA,NA,NA,NA,NA,NA,NA,NA,NA,NA,NA,NA,NA,NA,NA,NA,NA,NA
8cc6e,Save data screen,canvas.Screen,2_5_0_1,NA,NA,timeout,500.10999999999,426984.89999998,426995.598,427012.216,427495.629,427498.19999999,2023-12-04T14:06:10Z,427512.326,Inhalt,yaliyomo,d,kishawishi,hifadhi,kutembea,NA,NA,0,"c(""distractor1"", ""distractor2"", ""distractor3"")",NA,NA,NA,NA,NA,NA,NA,NA,NA,NA,NA,NA,NA,NA,NA,NA,NA,NA,NA
8cc6e,shallow,flow.Sequence,2_5_0,NA,NA,completion,7733.697,419747.10000002,419745.371,419761.932,427495.629,427498.30000001,2023-12-04T14:06:10Z,427512.326,Inhalt,yaliyomo,d,kishawishi,hifadhi,kutembea,NA,NA,NA,"c(""distractor1"", ""distractor2"", ""distractor3"")",NA,NA,NA,NA,NA,NA,NA,NA,NA,NA,NA,NA,NA,NA,NA,NA,NA,NA,NA
8cc6e,task,flow.Sequence,2_5,NA,NA,completion,7733.697,419747,419745.371,419761.932,427495.629,427498.30000001,2023-12-04T14:06:10Z,427512.326,Inhalt,yaliyomo,d,kishawishi,hifadhi,kutembea,NA,NA,NA,"c(""distractor1"", ""distractor2"", ""distractor3"")",NA,NA,NA,NA,NA,NA,NA,NA,NA,NA,NA,NA,NA,NA,NA,NA,NA,NA,NA
8cc6e,Shallow Question,html.Page,2_6_0_0,NA,NA,form submission,5684.174,427498.5,427495.629,427512.326,433196.5,433196.69999999,2023-12-04T14:06:16Z,433212.362,Vermutung,udhanifu,d,haramia,tikisho,itifaki,itifaki,NA,NA,"c(""distractor1"", ""distractor2"", ""distractor3"")",NA,NA,NA,NA,NA,NA,NA,NA,NA,NA,NA,NA,NA,NA,NA,NA,NA,NA,NA
8cc6e,Save data screen,canvas.Screen,2_6_0_1,NA,NA,timeout,500.45899999997,433198.19999999,433195.804,433212.362,433696.31,433697.5,2023-12-04T14:06:16Z,433712.821,Vermutung,udhanifu,d,haramia,tikisho,itifaki,NA,NA,0,"c(""distractor1"", ""distractor2"", ""distractor3"")",NA,NA,NA,NA,NA,NA,NA,NA,NA,NA,NA,NA,NA,NA,NA,NA,NA,NA,NA
8cc6e,shallow,flow.Sequence,2_6_0,NA,NA,completion,6183.984,427498.5,427495.629,427512.326,433696.31,433697.80000001,2023-12-04T14:06:16Z,433712.821,Vermutung,udhanifu,d,haramia,tikisho,itifaki,NA,NA,NA,"c(""distractor1"", ""distractor2"", ""distractor3"")",NA,NA,NA,NA,NA,NA,NA,NA,NA,NA,NA,NA,NA,NA,NA,NA,NA,NA,NA
8cc6e,task,flow.Sequence,2_6,NA,NA,completion,6183.984,427498.30000001,427495.629,427512.326,433696.31,433698.10000002,2023-12-04T14:06:16Z,433712.821,Vermutung,udhanifu,d,haramia,tikisho,itifaki,NA,NA,NA,"c(""distractor1"", ""distractor2"", ""distractor3"")",NA,NA,NA,NA,NA,NA,NA,NA,NA,NA,NA,NA,NA,NA,NA,NA,NA,NA,NA
8cc6e,Shallow Question,html.Page,2_7_0_0,NA,NA,form submission,7987.8789999881,433698.39999998,433696.31,433712.821,441700.69999999,441700.80000001,2023-12-04T14:06:24Z,441712.667,Toleranz,kuvumiliana,s,maombolezo,ujasusi,mchekeshaji,maombolezo,NA,NA,"c(""distractor1"", ""distractor2"", ""distractor3"")",NA,NA,NA,NA,NA,NA,NA,NA,NA,NA,NA,NA,NA,NA,NA,NA,NA,NA,NA
8cc6e,Save data screen,canvas.Screen,2_7_0_1,NA,NA,timeout,499.98300000001,441702.19999999,441696.003,441712.667,442196.031,442196.19999999,2023-12-04T14:06:25Z,442212.65,Toleranz,kuvumiliana,s,maombolezo,ujasusi,mchekeshaji,NA,NA,0,"c(""distractor1"", ""distractor2"", ""distractor3"")",NA,NA,NA,NA,NA,NA,NA,NA,NA,NA,NA,NA,NA,NA,NA,NA,NA,NA,NA
8cc6e,shallow,flow.Sequence,2_7_0,NA,NA,completion,8483.21,433698.30000001,433696.31,433712.821,442196.031,442196.39999998,2023-12-04T14:06:25Z,442212.65,Toleranz,kuvumiliana,s,maombolezo,ujasusi,mchekeshaji,NA,NA,NA,"c(""distractor1"", ""distractor2"", ""distractor3"")",NA,NA,NA,NA,NA,NA,NA,NA,NA,NA,NA,NA,NA,NA,NA,NA,NA,NA,NA
8cc6e,task,flow.Sequence,2_7,NA,NA,completion,8483.21,433698.19999999,433696.31,433712.821,442196.031,442196.39999998,2023-12-04T14:06:25Z,442212.65,Toleranz,kuvumiliana,s,maombolezo,ujasusi,mchekeshaji,NA,NA,NA,"c(""distractor1"", ""distractor2"", ""distractor3"")",NA,NA,NA,NA,NA,NA,NA,NA,NA,NA,NA,NA,NA,NA,NA,NA,NA,NA,NA
8cc6e,Shallow Question,html.Page,2_8_0_0,NA,NA,form submission,8705.6500000119,442196.5,442196.031,442212.65,450918.30000001,450918.39999998,2023-12-04T14:06:33Z,450929.655,Tester,wanaojaribu,d,sherti,sihiri,mlipuko,wanaojaribu,NA,NA,"c(""distractor1"", ""distractor2"", ""distractor3"")",NA,NA,NA,NA,NA,NA,NA,NA,NA,NA,NA,NA,NA,NA,NA,NA,NA,NA,NA
8cc6e,Save data screen,canvas.Screen,2_8_0_1,NA,NA,timeout,500.02299999999,450919.69999999,450913.114,450929.655,451413.479,451414,2023-12-04T14:06:34Z,451429.678,Tester,wanaojaribu,d,sherti,sihiri,mlipuko,NA,NA,1,"c(""distractor1"", ""distractor2"", ""distractor3"")",NA,NA,NA,NA,NA,NA,NA,NA,NA,NA,NA,NA,NA,NA,NA,NA,NA,NA,NA
8cc6e,shallow,flow.Sequence,2_8_0,NA,NA,completion,9200.829,442196.5,442196.031,442212.65,451413.479,451414.19999999,2023-12-04T14:06:34Z,451429.678,Tester,wanaojaribu,d,sherti,sihiri,mlipuko,NA,NA,NA,"c(""distractor1"", ""distractor2"", ""distractor3"")",NA,NA,NA,NA,NA,NA,NA,NA,NA,NA,NA,NA,NA,NA,NA,NA,NA,NA,NA
8cc6e,task,flow.Sequence,2_8,NA,NA,completion,9200.829,442196.39999998,442196.031,442212.65,451413.479,451414.30000001,2023-12-04T14:06:34Z,451429.678,Tester,wanaojaribu,d,sherti,sihiri,mlipuko,NA,NA,NA,"c(""distractor1"", ""distractor2"", ""distractor3"")",NA,NA,NA,NA,NA,NA,NA,NA,NA,NA,NA,NA,NA,NA,NA,NA,NA,NA,NA
8cc6e,Shallow Question,html.Page,2_9_0_0,NA,NA,form submission,38760.322,451414.39999998,451413.479,451429.678,490190,490190.19999999,2023-12-04T14:07:13Z,490197.668,Hoffnung,matarajio,d,kutaalamika,uratibu,mvumbuzi,uratibu,NA,NA,"c(""distractor1"", ""distractor2"", ""distractor3"")",NA,NA,NA,NA,NA,NA,NA,NA,NA,NA,NA,NA,NA,NA,NA,NA,NA,NA,NA
8cc6e,Save data screen,canvas.Screen,2_9_0_1,NA,NA,timeout,500.12099999998,490191.5,490181.025,490197.668,490681.04,490681.39999998,2023-12-04T14:07:13Z,490697.789,Hoffnung,matarajio,d,kutaalamika,uratibu,mvumbuzi,NA,NA,0,"c(""distractor1"", ""distractor2"", ""distractor3"")",NA,NA,NA,NA,NA,NA,NA,NA,NA,NA,NA,NA,NA,NA,NA,NA,NA,NA,NA
8cc6e,shallow,flow.Sequence,2_9_0,NA,NA,completion,39251.362,451414.30000001,451413.479,451429.678,490681.04,490681.60000002,2023-12-04T14:07:13Z,490697.789,Hoffnung,matarajio,d,kutaalamika,uratibu,mvumbuzi,NA,NA,NA,"c(""distractor1"", ""distractor2"", ""distractor3"")",NA,NA,NA,NA,NA,NA,NA,NA,NA,NA,NA,NA,NA,NA,NA,NA,NA,NA,NA
8cc6e,task,flow.Sequence,2_9,NA,NA,completion,39251.362,451414.30000001,451413.479,451429.678,490681.04,490681.60000002,2023-12-04T14:07:13Z,490697.789,Hoffnung,matarajio,d,kutaalamika,uratibu,mvumbuzi,NA,NA,NA,"c(""distractor1"", ""distractor2"", ""distractor3"")",NA,NA,NA,NA,NA,NA,NA,NA,NA,NA,NA,NA,NA,NA,NA,NA,NA,NA,NA
8cc6e,Shallow Question,html.Page,2_10_0_0,NA,NA,form submission,6000.6109999762,490681.69999999,490681.04,490697.789,496698.39999998,496698.60000002,2023-12-04T14:07:19Z,496714.733,Spionage,upelelezi,s,maslahi,utokazo,magangao,utokazo,NA,NA,"c(""distractor1"", ""distractor2"", ""distractor3"")",NA,NA,NA,NA,NA,NA,NA,NA,NA,NA,NA,NA,NA,NA,NA,NA,NA,NA,NA
8cc6e,Save data screen,canvas.Screen,2_10_0_1,NA,NA,timeout,499.97200000001,496699.89999998,496697.936,496714.733,497198.025,497198.69999999,2023-12-04T14:07:20Z,497214.705,Spionage,upelelezi,s,maslahi,utokazo,magangao,NA,NA,0,"c(""distractor1"", ""distractor2"", ""distractor3"")",NA,NA,NA,NA,NA,NA,NA,NA,NA,NA,NA,NA,NA,NA,NA,NA,NA,NA,NA
8cc6e,shallow,flow.Sequence,2_10_0,NA,NA,completion,6500.236,490681.69999999,490681.04,490697.789,497198.025,497198.89999998,2023-12-04T14:07:20Z,497214.705,Spionage,upelelezi,s,maslahi,utokazo,magangao,NA,NA,NA,"c(""distractor1"", ""distractor2"", ""distractor3"")",NA,NA,NA,NA,NA,NA,NA,NA,NA,NA,NA,NA,NA,NA,NA,NA,NA,NA,NA
8cc6e,task,flow.Sequence,2_10,NA,NA,completion,6500.236,490681.60000002,490681.04,490697.789,497198.025,497199,2023-12-04T14:07:20Z,497214.705,Spionage,upelelezi,s,maslahi,utokazo,magangao,NA,NA,NA,"c(""distractor1"", ""distractor2"", ""distractor3"")",NA,NA,NA,NA,NA,NA,NA,NA,NA,NA,NA,NA,NA,NA,NA,NA,NA,NA,NA
8cc6e,Shallow Question,html.Page,2_11_0_0,NA,NA,form submission,5167.3950000238,497199.19999999,497198.025,497214.705,502382.10000002,502382.30000001,2023-12-04T14:07:25Z,502398.159,Wohlstand,mafanikio,s,chimbuko,kumbuko,mapwaji,mafanikio,NA,NA,"c(""distractor1"", ""distractor2"", ""distractor3"")",NA,NA,NA,NA,NA,NA,NA,NA,NA,NA,NA,NA,NA,NA,NA,NA,NA,NA,NA
8cc6e,Save data screen,canvas.Screen,2_11_0_1,NA,NA,timeout,500.02799999999,502383.5,502381.444,502398.159,502881.428,502882.60000002,2023-12-04T14:07:25Z,502898.187,Wohlstand,mafanikio,s,chimbuko,kumbuko,mapwaji,NA,NA,1,"c(""distractor1"", ""distractor2"", ""distractor3"")",NA,NA,NA,NA,NA,NA,NA,NA,NA,NA,NA,NA,NA,NA,NA,NA,NA,NA,NA
8cc6e,shallow,flow.Sequence,2_11_0,NA,NA,completion,5666.723,497199.10000002,497198.025,497214.705,502881.428,502882.60000002,2023-12-04T14:07:25Z,502898.187,Wohlstand,mafanikio,s,chimbuko,kumbuko,mapwaji,NA,NA,NA,"c(""distractor1"", ""distractor2"", ""distractor3"")",NA,NA,NA,NA,NA,NA,NA,NA,NA,NA,NA,NA,NA,NA,NA,NA,NA,NA,NA
8cc6e,task,flow.Sequence,2_11,NA,NA,completion,5666.723,497199.10000002,497198.025,497214.705,502881.428,502882.69999999,2023-12-04T14:07:25Z,502898.187,Wohlstand,mafanikio,s,chimbuko,kumbuko,mapwaji,NA,NA,NA,"c(""distractor1"", ""distractor2"", ""distractor3"")",NA,NA,NA,NA,NA,NA,NA,NA,NA,NA,NA,NA,NA,NA,NA,NA,NA,NA,NA
8cc6e,Shallow Question,html.Page,2_12_0_0,NA,NA,form submission,5410.813,502882.80000001,502881.428,502898.187,508309,508309.19999999,2023-12-04T14:07:31Z,508331.633,Theorie,nadharia,s,ushungi,mkutano,uwakilishi,ushungi,NA,NA,"c(""distractor1"", ""distractor2"", ""distractor3"")",NA,NA,NA,NA,NA,NA,NA,NA,NA,NA,NA,NA,NA,NA,NA,NA,NA,NA,NA
8cc6e,Save data screen,canvas.Screen,2_12_0_1,NA,NA,timeout,500.30100000004,508310.69999999,508315.004,508331.633,508815.134,508815.5,2023-12-04T14:07:31Z,508831.934,Theorie,nadharia,s,ushungi,mkutano,uwakilishi,NA,NA,0,"c(""distractor1"", ""distractor2"", ""distractor3"")",NA,NA,NA,NA,NA,NA,NA,NA,NA,NA,NA,NA,NA,NA,NA,NA,NA,NA,NA
8cc6e,shallow,flow.Sequence,2_12_0,NA,NA,completion,5916.947,502882.80000001,502881.428,502898.187,508815.134,508815.60000002,2023-12-04T14:07:31Z,508831.934,Theorie,nadharia,s,ushungi,mkutano,uwakilishi,NA,NA,NA,"c(""distractor1"", ""distractor2"", ""distractor3"")",NA,NA,NA,NA,NA,NA,NA,NA,NA,NA,NA,NA,NA,NA,NA,NA,NA,NA,NA
8cc6e,task,flow.Sequence,2_12,NA,NA,completion,5916.947,502882.80000001,502881.428,502898.187,508815.134,508815.69999999,2023-12-04T14:07:31Z,508831.934,Theorie,nadharia,s,ushungi,mkutano,uwakilishi,NA,NA,NA,"c(""distractor1"", ""distractor2"", ""distractor3"")",NA,NA,NA,NA,NA,NA,NA,NA,NA,NA,NA,NA,NA,NA,NA,NA,NA,NA,NA
8cc6e,Shallow Question,html.Page,2_13_0_0,NA,NA,form submission,6244.2659999881,508815.80000001,508815.134,508831.934,515076.19999999,515076.30000001,2023-12-04T14:07:37Z,515098.501,Fenster,dirisha,s,walakini,tasawari,maarifa,dirisha,NA,NA,"c(""distractor1"", ""distractor2"", ""distractor3"")",NA,NA,NA,NA,NA,NA,NA,NA,NA,NA,NA,NA,NA,NA,NA,NA,NA,NA,NA
8cc6e,Save data screen,canvas.Screen,2_13_0_1,NA,NA,timeout,500.23300000001,515077.5,515081.884,515098.501,515581.9,515582.5,2023-12-04T14:07:38Z,515598.734,Fenster,dirisha,s,walakini,tasawari,maarifa,NA,NA,1,"c(""distractor1"", ""distractor2"", ""distractor3"")",NA,NA,NA,NA,NA,NA,NA,NA,NA,NA,NA,NA,NA,NA,NA,NA,NA,NA,NA
8cc6e,shallow,flow.Sequence,2_13_0,NA,NA,completion,6749.966,508815.69999999,508815.134,508831.934,515581.9,515582.80000001,2023-12-04T14:07:38Z,515598.734,Fenster,dirisha,s,walakini,tasawari,maarifa,NA,NA,NA,"c(""distractor1"", ""distractor2"", ""distractor3"")",NA,NA,NA,NA,NA,NA,NA,NA,NA,NA,NA,NA,NA,NA,NA,NA,NA,NA,NA
8cc6e,task,flow.Sequence,2_13,NA,NA,completion,6749.966,508815.69999999,508815.134,508831.934,515581.9,515583.10000002,2023-12-04T14:07:38Z,515598.734,Fenster,dirisha,s,walakini,tasawari,maarifa,NA,NA,NA,"c(""distractor1"", ""distractor2"", ""distractor3"")",NA,NA,NA,NA,NA,NA,NA,NA,NA,NA,NA,NA,NA,NA,NA,NA,NA,NA,NA
8cc6e,Shallow Question,html.Page,2_14_0_0,NA,NA,form submission,5533.5660000119,515583.30000001,515581.9,515598.734,521132.30000001,521132.5,2023-12-04T14:07:44Z,521149.544,Notfall,dharura,d,rairai,malalamiko,ahueni,dharura,NA,NA,"c(""distractor1"", ""distractor2"", ""distractor3"")",NA,NA,NA,NA,NA,NA,NA,NA,NA,NA,NA,NA,NA,NA,NA,NA,NA,NA,NA
8cc6e,Save data screen,canvas.Screen,2_14_0_1,NA,NA,timeout,499.30599999998,521133.80000001,521115.425,521149.544,521632.287,521633,2023-12-04T14:07:44Z,521648.85,Notfall,dharura,d,rairai,malalamiko,ahueni,NA,NA,1,"c(""distractor1"", ""distractor2"", ""distractor3"")",NA,NA,NA,NA,NA,NA,NA,NA,NA,NA,NA,NA,NA,NA,NA,NA,NA,NA,NA
8cc6e,shallow,flow.Sequence,2_14_0,NA,NA,completion,6033.553,515583.19999999,515581.9,515598.734,521632.287,521633.30000001,2023-12-04T14:07:44Z,521648.85,Notfall,dharura,d,rairai,malalamiko,ahueni,NA,NA,NA,"c(""distractor1"", ""distractor2"", ""distractor3"")",NA,NA,NA,NA,NA,NA,NA,NA,NA,NA,NA,NA,NA,NA,NA,NA,NA,NA,NA
8cc6e,task,flow.Sequence,2_14,NA,NA,completion,6033.553,515583.10000002,515581.9,515598.734,521632.287,521633.5,2023-12-04T14:07:44Z,521648.85,Notfall,dharura,d,rairai,malalamiko,ahueni,NA,NA,NA,"c(""distractor1"", ""distractor2"", ""distractor3"")",NA,NA,NA,NA,NA,NA,NA,NA,NA,NA,NA,NA,NA,NA,NA,NA,NA,NA,NA
8cc6e,Shallow Question,html.Page,2_15_0_0,NA,NA,form submission,8717.3499999881,521633.69999999,521632.287,521648.85,530366.19999999006,530366.30000001,2023-12-04T14:07:53Z,530365.692,Schüler,mwanafunzi,d,mwekezaji,matumizi,uaminifu,mwanafunzi,NA,NA,"c(""distractor1"", ""distractor2"", ""distractor3"")",NA,NA,NA,NA,NA,NA,NA,NA,NA,NA,NA,NA,NA,NA,NA,NA,NA,NA,NA
8cc6e,Save data screen,canvas.Screen,2_15_0_1,NA,NA,timeout,500.08600000001,530367.60000002,530349.108,530365.692,530849.146,530850.10000002,2023-12-04T14:07:53Z,530865.778,Schüler,mwanafunzi,d,mwekezaji,matumizi,uaminifu,NA,NA,1,"c(""distractor1"", ""distractor2"", ""distractor3"")",NA,NA,NA,NA,NA,NA,NA,NA,NA,NA,NA,NA,NA,NA,NA,NA,NA,NA,NA
8cc6e,shallow,flow.Sequence,2_15_0,NA,NA,completion,9200.296,521633.69999999,521632.287,521648.85,530849.146,530850.19999999006,2023-12-04T14:07:53Z,530865.778,Schüler,mwanafunzi,d,mwekezaji,matumizi,uaminifu,NA,NA,NA,"c(""distractor1"", ""distractor2"", ""distractor3"")",NA,NA,NA,NA,NA,NA,NA,NA,NA,NA,NA,NA,NA,NA,NA,NA,NA,NA,NA
8cc6e,task,flow.Sequence,2_15,NA,NA,completion,9200.296,521633.69999999,521632.287,521648.85,530849.146,530850.19999999006,2023-12-04T14:07:53Z,530865.778,Schüler,mwanafunzi,d,mwekezaji,matumizi,uaminifu,NA,NA,NA,"c(""distractor1"", ""distractor2"", ""distractor3"")",NA,NA,NA,NA,NA,NA,NA,NA,NA,NA,NA,NA,NA,NA,NA,NA,NA,NA,NA
8cc6e,retrieval block 2 (multiple choice),flow.Loop,2,NA,NA,completion,151138.605,379695.10000002,379694.259,379710.541,530849.146,530850.39999998,2023-12-04T14:07:53Z,530865.778,NA,NA,NA,NA,NA,NA,NA,NA,NA,"c(""distractor1"", ""distractor2"", ""distractor3"")",NA,NA,NA,NA,NA,NA,NA,NA,NA,NA,NA,NA,NA,NA,NA,NA,NA,NA,NA
8cc6e,End,canvas.Screen,3,NA,keypress(Space),response,1844.3220000238,530850.39999998,530849.146,530865.778,532710.10000002,532710.80000001,2023-12-04T14:07:55Z,532715.853,NA,NA,NA,NA,NA,NA,NA,NA,NA,NULL,NA,NA,NA,NA,NA,NA,NA,NA,NA,NA,NA,NA,NA,NA,NA,NA,NA,NA,NA
8cc6e,root,flow.Sequence,NA,NA,NA,completion,531879.43600002,829.60000002384,763.988,830.664,532710.10000002,532711.10000002,2023-12-04T14:07:55Z,532715.853,NA,NA,NA,NA,NA,NA,NA,NA,NA,NULL,NA,NA,NA,NA,NA,NA,NA,NA,NA,NA,NA,NA,NA,NA,NA,NA,NA,NA,NA
