observation,sender,sender_type,sender_id,response,response_action,ended_on,duration,time_run,time_render,time_show,time_end,time_commit,timestamp,time_switch,distractors,german,swahili,enc,distractor1,distractor2,distractor3,response_2,x,correct,x_2,url_vp,url_sess,meta_labjs_version,meta_location,meta_user_agent,meta_platform,meta_language,meta_locale,meta_time_zone,meta_timezone_offset,meta_screen_width,meta_screen_height,meta_scroll_width,meta_scroll_height,meta_window_inner_width,meta_window_inner_height,meta_device_pixel_ratio,meta_labjs_build_flavor,meta_labjs_build_commit
a10c2,Introduction general,canvas.Screen,0,weiter,keypress(q),response,48841.04,399,398.32,414.96,49256,49266,2023-10-27T14:23:06Z,49275.7,NULL,NA,NA,NA,NA,NA,NA,NA,NA,NA,NA,182,3,20.2.4,https://neurocog.fernuni.ch/studies/vweber/sliechti/encoding_immediate/index.html?vp=182&sess=3,Mozilla/5.0 (Windows NT 10.0; Win64; x64; rv:109.0) Gecko/20100101 Firefox/119.0,Win32,de,de-CH,Europe/Zurich,-120,1280,720,1280,587,1280,587,1.5,production,f5b4a49f956347addd546a832a3327688c2c0fef
a10c2,Introduction practice,canvas.Screen,1_0,NA,keypress(Space),response,1996.3,49267,49266.74,49275.7,51272,51291,2023-10-27T14:23:08Z,51308.9,NULL,NA,NA,NA,NA,NA,NA,NA,NA,NA,NA,NA,NA,NA,NA,NA,NA,NA,NA,NA,NA,NA,NA,NA,NA,NA,NA,NA,NA,NA
a10c2,deep,flow.Sequence,1_1_0_0,NA,NA,skipped,NA,51291,NA,NA,51272,51291,2023-10-27T14:23:08Z,51308.9,"c(""distractor1"", ""distractor2"", ""distractor3"")",Gegenwart,hadhara,s,katiba,jokofu,mikopo,NA,NA,NA,NA,NA,NA,NA,NA,NA,NA,NA,NA,NA,NA,NA,NA,NA,NA,NA,NA,NA,NA,NA
a10c2,Shallow Question,html.Page,1_1_0_1_0,NA,NA,form submission,10592.1,51293,51293.3,51308.9,61901,61901,2023-10-27T14:23:19Z,61907.64,"c(""distractor1"", ""distractor2"", ""distractor3"")",Gegenwart,hadhara,s,katiba,jokofu,mikopo,katiba,NA,NA,NA,NA,NA,NA,NA,NA,NA,NA,NA,NA,NA,NA,NA,NA,NA,NA,NA,NA,NA,NA
a10c2,"""Richtig""-Screen",canvas.Screen,1_1_0_1_1,NA,NA,skipped,NA,61907,NA,NA,61901,61907,2023-10-27T14:23:19Z,61907.64,"c(""distractor1"", ""distractor2"", ""distractor3"")",Gegenwart,hadhara,s,katiba,jokofu,mikopo,NA,NA,NA,NA,NA,NA,NA,NA,NA,NA,NA,NA,NA,NA,NA,NA,NA,NA,NA,NA,NA,NA,NA
a10c2,"""Falsch""-Screen",canvas.Screen,1_1_0_1_2,NA,NA,timeout,4999.18,61910,61886.54,61907.64,66890.16,66896,2023-10-27T14:23:24Z,66906.82,"c(""distractor1"", ""distractor2"", ""distractor3"")",Gegenwart,hadhara,s,katiba,jokofu,mikopo,NA,NA,0,NA,NA,NA,NA,NA,NA,NA,NA,NA,NA,NA,NA,NA,NA,NA,NA,NA,NA,NA,NA
a10c2,shallow,flow.Sequence,1_1_0_1,NA,NA,completion,15581.26,51293,51293.3,51308.9,66890.16,66897,2023-10-27T14:23:24Z,66906.82,"c(""distractor1"", ""distractor2"", ""distractor3"")",Gegenwart,hadhara,s,katiba,jokofu,mikopo,NA,NA,NA,NA,NA,NA,NA,NA,NA,NA,NA,NA,NA,NA,NA,NA,NA,NA,NA,NA,NA,NA,NA
a10c2,task,flow.Sequence,1_1_0,NA,NA,completion,15581.26,51291,51293.3,51308.9,66890.16,66898,2023-10-27T14:23:24Z,66906.82,"c(""distractor1"", ""distractor2"", ""distractor3"")",Gegenwart,hadhara,s,katiba,jokofu,mikopo,NA,NA,NA,NA,NA,NA,NA,NA,NA,NA,NA,NA,NA,NA,NA,NA,NA,NA,NA,NA,NA,NA,NA
a10c2,Deep Question,html.Page,1_1_1_0_0,NA,NA,form submission,3446.18,66899,66890.16,66906.82,70353,70354,2023-10-27T14:23:27Z,70356.14,"c(""distractor1"", ""distractor2"", ""distractor3"")",Qualität,mtindo,d,NA,NA,NA,jaieke,NA,NA,NA,NA,NA,NA,NA,NA,NA,NA,NA,NA,NA,NA,NA,NA,NA,NA,NA,NA,NA,NA
a10c2,"""Richtig""-Screen",canvas.Screen,1_1_1_0_1,NA,NA,skipped,NA,70364,NA,NA,70353,70364,2023-10-27T14:23:27Z,70356.14,"c(""distractor1"", ""distractor2"", ""distractor3"")",Qualität,mtindo,d,NA,NA,NA,NA,NA,NA,NA,NA,NA,NA,NA,NA,NA,NA,NA,NA,NA,NA,NA,NA,NA,NA,NA,NA,NA,NA
a10c2,"""Falsch""-Screen",canvas.Screen,1_1_1_0_2,NA,NA,timeout,4999.32,70368,70352.36,70356.14,75338.8,75342,2023-10-27T14:23:32Z,75355.46,"c(""distractor1"", ""distractor2"", ""distractor3"")",Qualität,mtindo,d,NA,NA,NA,NA,NA,0,NA,NA,NA,NA,NA,NA,NA,NA,NA,NA,NA,NA,NA,NA,NA,NA,NA,NA,NA,NA
a10c2,deep,flow.Sequence,1_1_1_0,NA,NA,completion,8431.98,66899,66890.16,66906.82,75338.8,75344,2023-10-27T14:23:32Z,75355.46,"c(""distractor1"", ""distractor2"", ""distractor3"")",Qualität,mtindo,d,NA,NA,NA,NA,NA,NA,NA,NA,NA,NA,NA,NA,NA,NA,NA,NA,NA,NA,NA,NA,NA,NA,NA,NA,NA,NA
a10c2,shallow,flow.Sequence,1_1_1_1,NA,NA,skipped,NA,75344,NA,NA,75338.8,75344,2023-10-27T14:23:32Z,75355.46,"c(""distractor1"", ""distractor2"", ""distractor3"")",Qualität,mtindo,d,NA,NA,NA,NA,NA,NA,NA,NA,NA,NA,NA,NA,NA,NA,NA,NA,NA,NA,NA,NA,NA,NA,NA,NA,NA,NA
a10c2,task,flow.Sequence,1_1_1,NA,NA,completion,8431.98,66899,66890.16,66906.82,75338.8,75345,2023-10-27T14:23:32Z,75355.46,"c(""distractor1"", ""distractor2"", ""distractor3"")",Qualität,mtindo,d,NA,NA,NA,NA,NA,NA,NA,NA,NA,NA,NA,NA,NA,NA,NA,NA,NA,NA,NA,NA,NA,NA,NA,NA,NA,NA
a10c2,deep,flow.Sequence,1_1_2_0,NA,NA,skipped,NA,75346,NA,NA,75338.8,75346,2023-10-27T14:23:32Z,75355.46,"c(""distractor1"", ""distractor2"", ""distractor3"")",Kritik,lawama,s,dereva,nafasi,mawazo,NA,NA,NA,NA,NA,NA,NA,NA,NA,NA,NA,NA,NA,NA,NA,NA,NA,NA,NA,NA,NA,NA,NA
a10c2,Shallow Question,html.Page,1_1_2_1_0,NA,NA,form submission,5855.54,75347,75338.8,75355.46,81211,81211,2023-10-27T14:23:38Z,81221.64,"c(""distractor1"", ""distractor2"", ""distractor3"")",Kritik,lawama,s,dereva,nafasi,mawazo,nafasi,NA,NA,NA,NA,NA,NA,NA,NA,NA,NA,NA,NA,NA,NA,NA,NA,NA,NA,NA,NA,NA,NA
a10c2,"""Richtig""-Screen",canvas.Screen,1_1_2_1_1,NA,NA,skipped,NA,81218,NA,NA,81211,81219,2023-10-27T14:23:38Z,81221.64,"c(""distractor1"", ""distractor2"", ""distractor3"")",Kritik,lawama,s,dereva,nafasi,mawazo,NA,NA,NA,NA,NA,NA,NA,NA,NA,NA,NA,NA,NA,NA,NA,NA,NA,NA,NA,NA,NA,NA,NA
a10c2,"""Falsch""-Screen",canvas.Screen,1_1_2_1_2,NA,NA,timeout,4998.14,81226,81205.34,81221.64,86203.12,86205,2023-10-27T14:23:43Z,86219.78,"c(""distractor1"", ""distractor2"", ""distractor3"")",Kritik,lawama,s,dereva,nafasi,mawazo,NA,NA,0,NA,NA,NA,NA,NA,NA,NA,NA,NA,NA,NA,NA,NA,NA,NA,NA,NA,NA,NA,NA
a10c2,shallow,flow.Sequence,1_1_2_1,NA,NA,completion,10847.66,75346,75338.8,75355.46,86203.12,86206,2023-10-27T14:23:43Z,86219.78,"c(""distractor1"", ""distractor2"", ""distractor3"")",Kritik,lawama,s,dereva,nafasi,mawazo,NA,NA,NA,NA,NA,NA,NA,NA,NA,NA,NA,NA,NA,NA,NA,NA,NA,NA,NA,NA,NA,NA,NA
a10c2,task,flow.Sequence,1_1_2,NA,NA,completion,10847.66,75346,75338.8,75355.46,86203.12,86206,2023-10-27T14:23:43Z,86219.78,"c(""distractor1"", ""distractor2"", ""distractor3"")",Kritik,lawama,s,dereva,nafasi,mawazo,NA,NA,NA,NA,NA,NA,NA,NA,NA,NA,NA,NA,NA,NA,NA,NA,NA,NA,NA,NA,NA,NA,NA
a10c2,deep,flow.Sequence,1_1_3_0,NA,NA,skipped,NA,86207,NA,NA,86203.12,86207,2023-10-27T14:23:43Z,86219.78,"c(""distractor1"", ""distractor2"", ""distractor3"")",Rückhalt,msaada,s,muhula,auwali,kiwimbe,NA,NA,NA,NA,NA,NA,NA,NA,NA,NA,NA,NA,NA,NA,NA,NA,NA,NA,NA,NA,NA,NA,NA
a10c2,Shallow Question,html.Page,1_1_3_1_0,NA,NA,form submission,5981.22,86207,86203.12,86219.78,92201,92202,2023-10-27T14:23:49Z,92203.44,"c(""distractor1"", ""distractor2"", ""distractor3"")",Rückhalt,msaada,s,muhula,auwali,kiwimbe,muhula,NA,NA,NA,NA,NA,NA,NA,NA,NA,NA,NA,NA,NA,NA,NA,NA,NA,NA,NA,NA,NA,NA
a10c2,"""Richtig""-Screen",canvas.Screen,1_1_3_1_1,NA,NA,skipped,NA,92203,NA,NA,92201,92203,2023-10-27T14:23:49Z,92203.44,"c(""distractor1"", ""distractor2"", ""distractor3"")",Rückhalt,msaada,s,muhula,auwali,kiwimbe,NA,NA,NA,NA,NA,NA,NA,NA,NA,NA,NA,NA,NA,NA,NA,NA,NA,NA,NA,NA,NA,NA,NA
a10c2,"""Falsch""-Screen",canvas.Screen,1_1_3_1_2,NA,NA,timeout,4998.26,92205,92199.44,92203.44,97185.06,97188,2023-10-27T14:23:54Z,97201.7,"c(""distractor1"", ""distractor2"", ""distractor3"")",Rückhalt,msaada,s,muhula,auwali,kiwimbe,NA,NA,0,NA,NA,NA,NA,NA,NA,NA,NA,NA,NA,NA,NA,NA,NA,NA,NA,NA,NA,NA,NA
a10c2,shallow,flow.Sequence,1_1_3_1,NA,NA,completion,10965.28,86207,86203.12,86219.78,97185.06,97188,2023-10-27T14:23:54Z,97201.7,"c(""distractor1"", ""distractor2"", ""distractor3"")",Rückhalt,msaada,s,muhula,auwali,kiwimbe,NA,NA,NA,NA,NA,NA,NA,NA,NA,NA,NA,NA,NA,NA,NA,NA,NA,NA,NA,NA,NA,NA,NA
a10c2,task,flow.Sequence,1_1_3,NA,NA,completion,10965.28,86207,86203.12,86219.78,97185.06,97189,2023-10-27T14:23:54Z,97201.7,"c(""distractor1"", ""distractor2"", ""distractor3"")",Rückhalt,msaada,s,muhula,auwali,kiwimbe,NA,NA,NA,NA,NA,NA,NA,NA,NA,NA,NA,NA,NA,NA,NA,NA,NA,NA,NA,NA,NA,NA,NA
a10c2,Deep Question,html.Page,1_1_4_0_0,NA,NA,form submission,3118.3,97190,97185.06,97201.7,100320,100321,2023-10-27T14:23:57Z,100335.66,"c(""distractor1"", ""distractor2"", ""distractor3"")",Gesundheit,salama,d,NA,NA,NA,hauele,NA,NA,NA,NA,NA,NA,NA,NA,NA,NA,NA,NA,NA,NA,NA,NA,NA,NA,NA,NA,NA,NA
a10c2,"""Richtig""-Screen",canvas.Screen,1_1_4_0_1,NA,NA,skipped,NA,100323,NA,NA,100320,100324,2023-10-27T14:23:57Z,100335.66,"c(""distractor1"", ""distractor2"", ""distractor3"")",Gesundheit,salama,d,NA,NA,NA,NA,NA,NA,NA,NA,NA,NA,NA,NA,NA,NA,NA,NA,NA,NA,NA,NA,NA,NA,NA,NA,NA,NA
a10c2,"""Falsch""-Screen",canvas.Screen,1_1_4_0_2,NA,NA,timeout,4999.76,100326,100319.18,100335.66,105321.68,105322,2023-10-27T14:24:02Z,105335.42,"c(""distractor1"", ""distractor2"", ""distractor3"")",Gesundheit,salama,d,NA,NA,NA,NA,NA,0,NA,NA,NA,NA,NA,NA,NA,NA,NA,NA,NA,NA,NA,NA,NA,NA,NA,NA,NA,NA
a10c2,deep,flow.Sequence,1_1_4_0,NA,NA,completion,8119.98,97190,97185.06,97201.7,105321.68,105322,2023-10-27T14:24:02Z,105335.42,"c(""distractor1"", ""distractor2"", ""distractor3"")",Gesundheit,salama,d,NA,NA,NA,NA,NA,NA,NA,NA,NA,NA,NA,NA,NA,NA,NA,NA,NA,NA,NA,NA,NA,NA,NA,NA,NA,NA
a10c2,shallow,flow.Sequence,1_1_4_1,NA,NA,skipped,NA,105323,NA,NA,105321.68,105323,2023-10-27T14:24:02Z,105335.42,"c(""distractor1"", ""distractor2"", ""distractor3"")",Gesundheit,salama,d,NA,NA,NA,NA,NA,NA,NA,NA,NA,NA,NA,NA,NA,NA,NA,NA,NA,NA,NA,NA,NA,NA,NA,NA,NA,NA
a10c2,task,flow.Sequence,1_1_4,NA,NA,completion,8119.98,97190,97185.06,97201.7,105321.68,105323,2023-10-27T14:24:02Z,105335.42,"c(""distractor1"", ""distractor2"", ""distractor3"")",Gesundheit,salama,d,NA,NA,NA,NA,NA,NA,NA,NA,NA,NA,NA,NA,NA,NA,NA,NA,NA,NA,NA,NA,NA,NA,NA,NA,NA,NA
a10c2,Deep Question,html.Page,1_1_5_0_0,NA,NA,form submission,3229.58,105323,105321.68,105335.42,108565,108565,2023-10-27T14:24:05Z,108568.22,"c(""distractor1"", ""distractor2"", ""distractor3"")",Schatten,kivuli,d,NA,NA,NA,wnele,NA,NA,NA,NA,NA,NA,NA,NA,NA,NA,NA,NA,NA,NA,NA,NA,NA,NA,NA,NA,NA,NA
a10c2,"""Richtig""-Screen",canvas.Screen,1_1_5_0_1,NA,NA,skipped,NA,108569,NA,NA,108565,108569,2023-10-27T14:24:05Z,108568.22,"c(""distractor1"", ""distractor2"", ""distractor3"")",Schatten,kivuli,d,NA,NA,NA,NA,NA,NA,NA,NA,NA,NA,NA,NA,NA,NA,NA,NA,NA,NA,NA,NA,NA,NA,NA,NA,NA,NA
a10c2,"""Falsch""-Screen",canvas.Screen,1_1_5_0_2,NA,NA,timeout,4998.18,108571,108564.12,108568.22,113549.74,113552,2023-10-27T14:24:10Z,113566.4,"c(""distractor1"", ""distractor2"", ""distractor3"")",Schatten,kivuli,d,NA,NA,NA,NA,NA,0,NA,NA,NA,NA,NA,NA,NA,NA,NA,NA,NA,NA,NA,NA,NA,NA,NA,NA,NA,NA
a10c2,deep,flow.Sequence,1_1_5_0,NA,NA,completion,8214.32,105323,105321.68,105335.42,113549.74,113552,2023-10-27T14:24:10Z,113566.4,"c(""distractor1"", ""distractor2"", ""distractor3"")",Schatten,kivuli,d,NA,NA,NA,NA,NA,NA,NA,NA,NA,NA,NA,NA,NA,NA,NA,NA,NA,NA,NA,NA,NA,NA,NA,NA,NA,NA
a10c2,shallow,flow.Sequence,1_1_5_1,NA,NA,skipped,NA,113552,NA,NA,113549.74,113552,2023-10-27T14:24:10Z,113566.4,"c(""distractor1"", ""distractor2"", ""distractor3"")",Schatten,kivuli,d,NA,NA,NA,NA,NA,NA,NA,NA,NA,NA,NA,NA,NA,NA,NA,NA,NA,NA,NA,NA,NA,NA,NA,NA,NA,NA
a10c2,task,flow.Sequence,1_1_5,NA,NA,completion,8214.32,105323,105321.68,105335.42,113549.74,113552,2023-10-27T14:24:10Z,113566.4,"c(""distractor1"", ""distractor2"", ""distractor3"")",Schatten,kivuli,d,NA,NA,NA,NA,NA,NA,NA,NA,NA,NA,NA,NA,NA,NA,NA,NA,NA,NA,NA,NA,NA,NA,NA,NA,NA,NA
a10c2,block,flow.Loop,1_1,NA,NA,completion,62240.84,51291,51293.3,51308.9,113549.74,113552,2023-10-27T14:24:10Z,113566.4,"c(""distractor1"", ""distractor2"", ""distractor3"")",NA,NA,NA,NA,NA,NA,NA,NA,NA,NA,NA,NA,NA,NA,NA,NA,NA,NA,NA,NA,NA,NA,NA,NA,NA,NA,NA,NA,NA
a10c2,Practice,flow.Sequence,1,NA,NA,completion,64274.04,49266,49266.74,49275.7,113549.74,113553,2023-10-27T14:24:10Z,113566.4,NULL,NA,NA,NA,NA,NA,NA,NA,NA,NA,NA,NA,NA,NA,NA,NA,NA,NA,NA,NA,NA,NA,NA,NA,NA,NA,NA,NA,NA,NA
a10c2,Experiment start,canvas.Screen,2,weiter,keypress(q),response,12659.6,113553,113549.74,113566.4,126226,126233,2023-10-27T14:24:23Z,126315.04,NULL,NA,NA,NA,NA,NA,NA,NA,NA,NA,NA,NA,NA,NA,NA,NA,NA,NA,NA,NA,NA,NA,NA,NA,NA,NA,NA,NA,NA,NA
a10c2,deep,flow.Sequence,3_0_0_0_0_0,NA,NA,skipped,NA,126301,NA,NA,126226,126301,2023-10-27T14:24:23Z,126315.04,NULL,Kultur,utamaduni,s,shetani,gerezani,mazingira,NA,sdf,NA,0,NA,NA,NA,NA,NA,NA,NA,NA,NA,NA,NA,NA,NA,NA,NA,NA,NA,NA,NA
a10c2,Shallow Question,html.Page,3_0_0_0_0_1_0,NA,NA,form submission,8449.96,126301,126300.6,126315.04,134765,134768,2023-10-27T14:24:32Z,134780.32,NULL,Kultur,utamaduni,s,shetani,gerezani,mazingira,gerezani,NA,NA,0,NA,NA,NA,NA,NA,NA,NA,NA,NA,NA,NA,NA,NA,NA,NA,NA,NA,NA,NA
a10c2,"""Richtig""-Screen",canvas.Screen,3_0_0_0_0_1_1,NA,NA,skipped,NA,134777,NA,NA,134765,134778,2023-10-27T14:24:32Z,134780.32,NULL,Kultur,utamaduni,s,shetani,gerezani,mazingira,NA,sdf,NA,0,NA,NA,NA,NA,NA,NA,NA,NA,NA,NA,NA,NA,NA,NA,NA,NA,NA,NA,NA
a10c2,"""Falsch""-Screen",canvas.Screen,3_0_0_0_0_1_2,NA,NA,timeout,4999.76,134780,134759.08,134780.32,139763.42,139766,2023-10-27T14:24:37Z,139780.08,NULL,Kultur,utamaduni,s,shetani,gerezani,mazingira,NA,sdf,0,0,NA,NA,NA,NA,NA,NA,NA,NA,NA,NA,NA,NA,NA,NA,NA,NA,NA,NA,NA
a10c2,shallow,flow.Sequence,3_0_0_0_0_1,NA,NA,completion,13448.38,126301,126300.6,126315.04,139763.42,139767,2023-10-27T14:24:37Z,139780.08,NULL,Kultur,utamaduni,s,shetani,gerezani,mazingira,NA,sdf,NA,0,NA,NA,NA,NA,NA,NA,NA,NA,NA,NA,NA,NA,NA,NA,NA,NA,NA,NA,NA
a10c2,task,flow.Sequence,3_0_0_0_0,NA,NA,completion,13448.38,126300,126300.6,126315.04,139763.42,139767,2023-10-27T14:24:37Z,139780.08,NULL,Kultur,utamaduni,s,shetani,gerezani,mazingira,NA,sdf,NA,0,NA,NA,NA,NA,NA,NA,NA,NA,NA,NA,NA,NA,NA,NA,NA,NA,NA,NA,NA
a10c2,deep,flow.Sequence,3_0_0_0_1_0,NA,NA,skipped,NA,139768,NA,NA,139763.42,139768,2023-10-27T14:24:37Z,139780.08,NULL,Sympathie,mapendano,s,dhamiria,fungamano,maazimio,NA,sdf,NA,0,NA,NA,NA,NA,NA,NA,NA,NA,NA,NA,NA,NA,NA,NA,NA,NA,NA,NA,NA
a10c2,Shallow Question,html.Page,3_0_0_0_1_1_0,NA,NA,form submission,9935.92,139769,139763.42,139780.08,149716,149717,2023-10-27T14:24:46Z,149711.92,NULL,Sympathie,mapendano,s,dhamiria,fungamano,maazimio,mapendano,NA,NA,0,NA,NA,NA,NA,NA,NA,NA,NA,NA,NA,NA,NA,NA,NA,NA,NA,NA,NA,NA
a10c2,"""Richtig""-Screen",canvas.Screen,3_0_0_0_1_1_1,NA,NA,timeout,4999.7,149721,149710.44,149711.92,154694.96,154696,2023-10-27T14:24:51Z,154711.62,NULL,Sympathie,mapendano,s,dhamiria,fungamano,maazimio,NA,sdf,1,0,NA,NA,NA,NA,NA,NA,NA,NA,NA,NA,NA,NA,NA,NA,NA,NA,NA,NA,NA
a10c2,"""Falsch""-Screen",canvas.Screen,3_0_0_0_1_1_2,NA,NA,skipped,NA,154701,NA,NA,154694.96,154701,2023-10-27T14:24:51Z,154711.62,NULL,Sympathie,mapendano,s,dhamiria,fungamano,maazimio,NA,sdf,NA,0,NA,NA,NA,NA,NA,NA,NA,NA,NA,NA,NA,NA,NA,NA,NA,NA,NA,NA,NA
a10c2,shallow,flow.Sequence,3_0_0_0_1_1,NA,NA,completion,14914.88,139769,139763.42,139780.08,154694.96,154702,2023-10-27T14:24:51Z,154711.62,NULL,Sympathie,mapendano,s,dhamiria,fungamano,maazimio,NA,sdf,NA,0,NA,NA,NA,NA,NA,NA,NA,NA,NA,NA,NA,NA,NA,NA,NA,NA,NA,NA,NA
a10c2,task,flow.Sequence,3_0_0_0_1,NA,NA,completion,14914.88,139767,139763.42,139780.08,154694.96,154703,2023-10-27T14:24:51Z,154711.62,NULL,Sympathie,mapendano,s,dhamiria,fungamano,maazimio,NA,sdf,NA,0,NA,NA,NA,NA,NA,NA,NA,NA,NA,NA,NA,NA,NA,NA,NA,NA,NA,NA,NA
a10c2,deep,flow.Sequence,3_0_0_0_2_0,NA,NA,skipped,NA,154703,NA,NA,154694.96,154703,2023-10-27T14:24:51Z,154711.62,NULL,Annäherung,maegesho,s,madahili,kujiamini,mapendekezo,NA,sdf,NA,0,NA,NA,NA,NA,NA,NA,NA,NA,NA,NA,NA,NA,NA,NA,NA,NA,NA,NA,NA
a10c2,Shallow Question,html.Page,3_0_0_0_2_1_0,NA,NA,form submission,7906.38,154704,154694.96,154711.62,162618,162618,2023-10-27T14:24:59Z,162627.74,NULL,Annäherung,maegesho,s,madahili,kujiamini,mapendekezo,maegesho,NA,NA,0,NA,NA,NA,NA,NA,NA,NA,NA,NA,NA,NA,NA,NA,NA,NA,NA,NA,NA,NA
a10c2,"""Richtig""-Screen",canvas.Screen,3_0_0_0_2_1_1,NA,NA,timeout,4998.34,162622,162613.78,162627.74,167609.42,167611,2023-10-27T14:25:04Z,167626.08,NULL,Annäherung,maegesho,s,madahili,kujiamini,mapendekezo,NA,sdf,1,0,NA,NA,NA,NA,NA,NA,NA,NA,NA,NA,NA,NA,NA,NA,NA,NA,NA,NA,NA
a10c2,"""Falsch""-Screen",canvas.Screen,3_0_0_0_2_1_2,NA,NA,skipped,NA,167616,NA,NA,167609.42,167616,2023-10-27T14:25:04Z,167626.08,NULL,Annäherung,maegesho,s,madahili,kujiamini,mapendekezo,NA,sdf,NA,0,NA,NA,NA,NA,NA,NA,NA,NA,NA,NA,NA,NA,NA,NA,NA,NA,NA,NA,NA
a10c2,shallow,flow.Sequence,3_0_0_0_2_1,NA,NA,completion,12897.8,154703,154694.96,154711.62,167609.42,167617,2023-10-27T14:25:04Z,167626.08,NULL,Annäherung,maegesho,s,madahili,kujiamini,mapendekezo,NA,sdf,NA,0,NA,NA,NA,NA,NA,NA,NA,NA,NA,NA,NA,NA,NA,NA,NA,NA,NA,NA,NA
a10c2,task,flow.Sequence,3_0_0_0_2,NA,NA,completion,12897.8,154703,154694.96,154711.62,167609.42,167617,2023-10-27T14:25:04Z,167626.08,NULL,Annäherung,maegesho,s,madahili,kujiamini,mapendekezo,NA,sdf,NA,0,NA,NA,NA,NA,NA,NA,NA,NA,NA,NA,NA,NA,NA,NA,NA,NA,NA,NA,NA
a10c2,Deep Question,html.Page,3_0_0_0_3_0_0,NA,NA,form submission,3292.92,167617,167609.42,167626.08,170919,170919,2023-10-27T14:25:08Z,170926.18,NULL,Prüfung,mtihani,d,NA,NA,NA,jeene,NA,NA,0,NA,NA,NA,NA,NA,NA,NA,NA,NA,NA,NA,NA,NA,NA,NA,NA,NA,NA,NA
a10c2,"""Richtig""-Screen",canvas.Screen,3_0_0_0_3_0_1,NA,NA,skipped,NA,170921,NA,NA,170919,170921,2023-10-27T14:25:08Z,170926.18,NULL,Prüfung,mtihani,d,NA,NA,NA,NA,sdf,NA,0,NA,NA,NA,NA,NA,NA,NA,NA,NA,NA,NA,NA,NA,NA,NA,NA,NA,NA,NA
a10c2,"""Falsch""-Screen",canvas.Screen,3_0_0_0_3_0_2,NA,NA,timeout,4999.08,170922,170918.12,170926.18,175908.6,175911,2023-10-27T14:25:13Z,175925.26,NULL,Prüfung,mtihani,d,NA,NA,NA,NA,sdf,0,0,NA,NA,NA,NA,NA,NA,NA,NA,NA,NA,NA,NA,NA,NA,NA,NA,NA,NA,NA
a10c2,deep,flow.Sequence,3_0_0_0_3_0,NA,NA,completion,8282.52,167617,167609.42,167626.08,175908.6,175911,2023-10-27T14:25:13Z,175925.26,NULL,Prüfung,mtihani,d,NA,NA,NA,NA,sdf,NA,0,NA,NA,NA,NA,NA,NA,NA,NA,NA,NA,NA,NA,NA,NA,NA,NA,NA,NA,NA
a10c2,shallow,flow.Sequence,3_0_0_0_3_1,NA,NA,skipped,NA,175912,NA,NA,175908.6,175916,2023-10-27T14:25:13Z,175925.26,NULL,Prüfung,mtihani,d,NA,NA,NA,NA,sdf,NA,0,NA,NA,NA,NA,NA,NA,NA,NA,NA,NA,NA,NA,NA,NA,NA,NA,NA,NA,NA
a10c2,task,flow.Sequence,3_0_0_0_3,NA,NA,completion,8282.52,167617,167609.42,167626.08,175908.6,175916,2023-10-27T14:25:13Z,175925.26,NULL,Prüfung,mtihani,d,NA,NA,NA,NA,sdf,NA,0,NA,NA,NA,NA,NA,NA,NA,NA,NA,NA,NA,NA,NA,NA,NA,NA,NA,NA,NA
a10c2,Deep Question,html.Page,3_0_0_0_4_0_0,NA,NA,form submission,4216.74,175916,175908.6,175925.26,180142,180143,2023-10-27T14:25:17Z,180142.1,NULL,Beweis,ushahidi,d,NA,NA,NA,urheua,NA,NA,0,NA,NA,NA,NA,NA,NA,NA,NA,NA,NA,NA,NA,NA,NA,NA,NA,NA,NA,NA
a10c2,"""Richtig""-Screen",canvas.Screen,3_0_0_0_4_0_1,NA,NA,skipped,NA,180145,NA,NA,180142,180146,2023-10-27T14:25:17Z,180142.1,NULL,Beweis,ushahidi,d,NA,NA,NA,NA,sdf,NA,0,NA,NA,NA,NA,NA,NA,NA,NA,NA,NA,NA,NA,NA,NA,NA,NA,NA,NA,NA
a10c2,"""Falsch""-Screen",canvas.Screen,3_0_0_0_4_0_2,NA,NA,timeout,4998.7,180148,180141.36,180142.1,185124.14,185127,2023-10-27T14:25:22Z,185140.8,NULL,Beweis,ushahidi,d,NA,NA,NA,NA,sdf,0,0,NA,NA,NA,NA,NA,NA,NA,NA,NA,NA,NA,NA,NA,NA,NA,NA,NA,NA,NA
a10c2,deep,flow.Sequence,3_0_0_0_4_0,NA,NA,completion,9198.88,175916,175908.6,175925.26,185124.14,185127,2023-10-27T14:25:22Z,185140.8,NULL,Beweis,ushahidi,d,NA,NA,NA,NA,sdf,NA,0,NA,NA,NA,NA,NA,NA,NA,NA,NA,NA,NA,NA,NA,NA,NA,NA,NA,NA,NA
a10c2,shallow,flow.Sequence,3_0_0_0_4_1,NA,NA,skipped,NA,185128,NA,NA,185124.14,185128,2023-10-27T14:25:22Z,185140.8,NULL,Beweis,ushahidi,d,NA,NA,NA,NA,sdf,NA,0,NA,NA,NA,NA,NA,NA,NA,NA,NA,NA,NA,NA,NA,NA,NA,NA,NA,NA,NA
a10c2,task,flow.Sequence,3_0_0_0_4,NA,NA,completion,9198.88,175916,175908.6,175925.26,185124.14,185129,2023-10-27T14:25:22Z,185140.8,NULL,Beweis,ushahidi,d,NA,NA,NA,NA,sdf,NA,0,NA,NA,NA,NA,NA,NA,NA,NA,NA,NA,NA,NA,NA,NA,NA,NA,NA,NA,NA
a10c2,Deep Question,html.Page,3_0_0_0_5_0_0,NA,NA,form submission,4196.2,185129,185124.14,185140.8,189337,189338,2023-10-27T14:25:26Z,189340.7,NULL,Aufstand,ugomaji,d,NA,NA,NA,weuril,NA,NA,0,NA,NA,NA,NA,NA,NA,NA,NA,NA,NA,NA,NA,NA,NA,NA,NA,NA,NA,NA
a10c2,"""Richtig""-Screen",canvas.Screen,3_0_0_0_5_0_1,NA,NA,skipped,NA,189339,NA,NA,189337,189339,2023-10-27T14:25:26Z,189340.7,NULL,Aufstand,ugomaji,d,NA,NA,NA,NA,sdf,NA,0,NA,NA,NA,NA,NA,NA,NA,NA,NA,NA,NA,NA,NA,NA,NA,NA,NA,NA,NA
a10c2,"""Falsch""-Screen",canvas.Screen,3_0_0_0_5_0_2,NA,NA,timeout,4998.3,189341,189336.14,189340.7,194322.36,194325,2023-10-27T14:25:31Z,194339,NULL,Aufstand,ugomaji,d,NA,NA,NA,NA,sdf,0,0,NA,NA,NA,NA,NA,NA,NA,NA,NA,NA,NA,NA,NA,NA,NA,NA,NA,NA,NA
a10c2,deep,flow.Sequence,3_0_0_0_5_0,NA,NA,completion,9181.56,185129,185124.14,185140.8,194322.36,194326,2023-10-27T14:25:31Z,194339,NULL,Aufstand,ugomaji,d,NA,NA,NA,NA,sdf,NA,0,NA,NA,NA,NA,NA,NA,NA,NA,NA,NA,NA,NA,NA,NA,NA,NA,NA,NA,NA
a10c2,shallow,flow.Sequence,3_0_0_0_5_1,NA,NA,skipped,NA,194326,NA,NA,194322.36,194326,2023-10-27T14:25:31Z,194339,NULL,Aufstand,ugomaji,d,NA,NA,NA,NA,sdf,NA,0,NA,NA,NA,NA,NA,NA,NA,NA,NA,NA,NA,NA,NA,NA,NA,NA,NA,NA,NA
a10c2,task,flow.Sequence,3_0_0_0_5,NA,NA,completion,9181.56,185129,185124.14,185140.8,194322.36,194327,2023-10-27T14:25:31Z,194339,NULL,Aufstand,ugomaji,d,NA,NA,NA,NA,sdf,NA,0,NA,NA,NA,NA,NA,NA,NA,NA,NA,NA,NA,NA,NA,NA,NA,NA,NA,NA,NA
a10c2,Deep Question,html.Page,3_0_0_0_6_0_0,NA,NA,form submission,4027,194327,194322.36,194339,198366,198368,2023-10-27T14:25:35Z,198373,NULL,Polizist,msongora,d,NA,NA,NA,olipu,NA,NA,0,NA,NA,NA,NA,NA,NA,NA,NA,NA,NA,NA,NA,NA,NA,NA,NA,NA,NA,NA
a10c2,"""Richtig""-Screen",canvas.Screen,3_0_0_0_6_0_1,NA,NA,skipped,NA,198370,NA,NA,198366,198370,2023-10-27T14:25:35Z,198373,NULL,Polizist,msongora,d,NA,NA,NA,NA,sdf,NA,0,NA,NA,NA,NA,NA,NA,NA,NA,NA,NA,NA,NA,NA,NA,NA,NA,NA,NA,NA
a10c2,"""Falsch""-Screen",canvas.Screen,3_0_0_0_6_0_2,NA,NA,timeout,4998.46,198371,198365.68,198373,203354.8,203358,2023-10-27T14:25:40Z,203371.46,NULL,Polizist,msongora,d,NA,NA,NA,NA,sdf,0,0,NA,NA,NA,NA,NA,NA,NA,NA,NA,NA,NA,NA,NA,NA,NA,NA,NA,NA,NA
a10c2,deep,flow.Sequence,3_0_0_0_6_0,NA,NA,completion,9015.8,194327,194322.36,194339,203354.8,203358,2023-10-27T14:25:40Z,203371.46,NULL,Polizist,msongora,d,NA,NA,NA,NA,sdf,NA,0,NA,NA,NA,NA,NA,NA,NA,NA,NA,NA,NA,NA,NA,NA,NA,NA,NA,NA,NA
a10c2,shallow,flow.Sequence,3_0_0_0_6_1,NA,NA,skipped,NA,203358,NA,NA,203354.8,203358,2023-10-27T14:25:40Z,203371.46,NULL,Polizist,msongora,d,NA,NA,NA,NA,sdf,NA,0,NA,NA,NA,NA,NA,NA,NA,NA,NA,NA,NA,NA,NA,NA,NA,NA,NA,NA,NA
a10c2,task,flow.Sequence,3_0_0_0_6,NA,NA,completion,9015.8,194327,194322.36,194339,203354.8,203359,2023-10-27T14:25:40Z,203371.46,NULL,Polizist,msongora,d,NA,NA,NA,NA,sdf,NA,0,NA,NA,NA,NA,NA,NA,NA,NA,NA,NA,NA,NA,NA,NA,NA,NA,NA,NA,NA
a10c2,deep,flow.Sequence,3_0_0_0_7_0,NA,NA,skipped,NA,203359,NA,NA,203354.8,203360,2023-10-27T14:25:40Z,203371.46,NULL,Verzögerung,kuchelewa,s,mwakilishi,mwanauchumi,jaribio,NA,sdf,NA,0,NA,NA,NA,NA,NA,NA,NA,NA,NA,NA,NA,NA,NA,NA,NA,NA,NA,NA,NA
a10c2,Shallow Question,html.Page,3_0_0_0_7_1_0,NA,NA,form submission,8585.54,203360,203354.8,203371.46,211957,211958,2023-10-27T14:25:49Z,211971.46,NULL,Verzögerung,kuchelewa,s,mwakilishi,mwanauchumi,jaribio,mwakilishi,NA,NA,0,NA,NA,NA,NA,NA,NA,NA,NA,NA,NA,NA,NA,NA,NA,NA,NA,NA,NA,NA
a10c2,"""Richtig""-Screen",canvas.Screen,3_0_0_0_7_1_1,NA,NA,skipped,NA,211959,NA,NA,211957,211959,2023-10-27T14:25:49Z,211971.46,NULL,Verzögerung,kuchelewa,s,mwakilishi,mwanauchumi,jaribio,NA,sdf,NA,0,NA,NA,NA,NA,NA,NA,NA,NA,NA,NA,NA,NA,NA,NA,NA,NA,NA,NA,NA
a10c2,"""Falsch""-Screen",canvas.Screen,3_0_0_0_7_1_2,NA,NA,timeout,4999.22,211962,211955.46,211971.46,216954.02,216955,2023-10-27T14:25:54Z,216970.68,NULL,Verzögerung,kuchelewa,s,mwakilishi,mwanauchumi,jaribio,NA,sdf,0,0,NA,NA,NA,NA,NA,NA,NA,NA,NA,NA,NA,NA,NA,NA,NA,NA,NA,NA,NA
a10c2,shallow,flow.Sequence,3_0_0_0_7_1,NA,NA,completion,13582.56,203360,203354.8,203371.46,216954.02,216955,2023-10-27T14:25:54Z,216970.68,NULL,Verzögerung,kuchelewa,s,mwakilishi,mwanauchumi,jaribio,NA,sdf,NA,0,NA,NA,NA,NA,NA,NA,NA,NA,NA,NA,NA,NA,NA,NA,NA,NA,NA,NA,NA
a10c2,task,flow.Sequence,3_0_0_0_7,NA,NA,completion,13582.56,203359,203354.8,203371.46,216954.02,216955,2023-10-27T14:25:54Z,216970.68,NULL,Verzögerung,kuchelewa,s,mwakilishi,mwanauchumi,jaribio,NA,sdf,NA,0,NA,NA,NA,NA,NA,NA,NA,NA,NA,NA,NA,NA,NA,NA,NA,NA,NA,NA,NA
a10c2,block,flow.Loop,3_0_0_0,NA,NA,completion,90638.98,126300,126300.6,126315.04,216954.02,216955,2023-10-27T14:25:54Z,216970.68,NULL,NA,NA,NA,NA,NA,NA,NA,sdf,NA,0,NA,NA,NA,NA,NA,NA,NA,NA,NA,NA,NA,NA,NA,NA,NA,NA,NA,NA,NA
a10c2,weiter,canvas.Screen,3_0_0_1,sdf,keypress(Space),response,1129.32,216955,216954.02,216970.68,218100,218108,2023-10-27T14:25:55Z,218170.18,NULL,NA,NA,NA,NA,NA,NA,NA,sdf,NA,0,NA,NA,NA,NA,NA,NA,NA,NA,NA,NA,NA,NA,NA,NA,NA,NA,NA,NA,NA
a10c2,check continue,flow.Sequence,3_0_0,NA,NA,completion,91784.96,126300,126300.6,126315.04,218100,218109,2023-10-27T14:25:55Z,218170.18,NULL,NA,NA,NA,NA,NA,NA,NA,sdf,NA,0,NA,NA,NA,NA,NA,NA,NA,NA,NA,NA,NA,NA,NA,NA,NA,NA,NA,NA,NA
a10c2,Deep Question,html.Page,3_0_1_0_0_0_0,NA,NA,form submission,4972.82,218155,218155.02,218170.18,223143,223145,2023-10-27T14:26:00Z,223153.32,NULL,Aufstand,ugomaji,d,NA,NA,NA,hazeo,NA,NA,1,NA,NA,NA,NA,NA,NA,NA,NA,NA,NA,NA,NA,NA,NA,NA,NA,NA,NA,NA
a10c2,"""Richtig""-Screen",canvas.Screen,3_0_1_0_0_0_1,NA,NA,skipped,NA,223149,NA,NA,223143,223149,2023-10-27T14:26:00Z,223153.32,NULL,Aufstand,ugomaji,d,NA,NA,NA,NA,sdfdsf,NA,1,NA,NA,NA,NA,NA,NA,NA,NA,NA,NA,NA,NA,NA,NA,NA,NA,NA,NA,NA
a10c2,"""Falsch""-Screen",canvas.Screen,3_0_1_0_0_0_2,NA,NA,timeout,4998.8,223151,223141.76,223153.32,228135.48,228138,2023-10-27T14:26:05Z,228152.12,NULL,Aufstand,ugomaji,d,NA,NA,NA,NA,sdfdsf,0,1,NA,NA,NA,NA,NA,NA,NA,NA,NA,NA,NA,NA,NA,NA,NA,NA,NA,NA,NA
a10c2,deep,flow.Sequence,3_0_1_0_0_0,NA,NA,completion,9965.3,218155,218155.02,218170.18,228135.48,228138,2023-10-27T14:26:05Z,228152.12,NULL,Aufstand,ugomaji,d,NA,NA,NA,NA,sdfdsf,NA,1,NA,NA,NA,NA,NA,NA,NA,NA,NA,NA,NA,NA,NA,NA,NA,NA,NA,NA,NA
a10c2,shallow,flow.Sequence,3_0_1_0_0_1,NA,NA,skipped,NA,228138,NA,NA,228135.48,228139,2023-10-27T14:26:05Z,228152.12,NULL,Aufstand,ugomaji,d,NA,NA,NA,NA,sdfdsf,NA,1,NA,NA,NA,NA,NA,NA,NA,NA,NA,NA,NA,NA,NA,NA,NA,NA,NA,NA,NA
a10c2,task,flow.Sequence,3_0_1_0_0,NA,NA,completion,9965.3,218155,218155.02,218170.18,228135.48,228139,2023-10-27T14:26:05Z,228152.12,NULL,Aufstand,ugomaji,d,NA,NA,NA,NA,sdfdsf,NA,1,NA,NA,NA,NA,NA,NA,NA,NA,NA,NA,NA,NA,NA,NA,NA,NA,NA,NA,NA
a10c2,deep,flow.Sequence,3_0_1_0_1_0,NA,NA,skipped,NA,228139,NA,NA,228135.48,228140,2023-10-27T14:26:05Z,228152.12,NULL,Sympathie,mapendano,s,dhamiria,fungamano,maazimio,NA,sdfdsf,NA,1,NA,NA,NA,NA,NA,NA,NA,NA,NA,NA,NA,NA,NA,NA,NA,NA,NA,NA,NA
a10c2,Shallow Question,html.Page,3_0_1_0_1_1_0,NA,NA,form submission,10747.88,228140,228135.48,228152.12,238900,238900,2023-10-27T14:26:16Z,238901.24,NULL,Sympathie,mapendano,s,dhamiria,fungamano,maazimio,mapendano,NA,NA,1,NA,NA,NA,NA,NA,NA,NA,NA,NA,NA,NA,NA,NA,NA,NA,NA,NA,NA,NA
a10c2,"""Richtig""-Screen",canvas.Screen,3_0_1_0_1_1_1,NA,NA,timeout,4999.38,238907,238894.6,238901.24,243883.98,243885,2023-10-27T14:26:21Z,243900.62,NULL,Sympathie,mapendano,s,dhamiria,fungamano,maazimio,NA,sdfdsf,1,1,NA,NA,NA,NA,NA,NA,NA,NA,NA,NA,NA,NA,NA,NA,NA,NA,NA,NA,NA
a10c2,"""Falsch""-Screen",canvas.Screen,3_0_1_0_1_1_2,NA,NA,skipped,NA,243894,NA,NA,243883.98,243895,2023-10-27T14:26:21Z,243900.62,NULL,Sympathie,mapendano,s,dhamiria,fungamano,maazimio,NA,sdfdsf,NA,1,NA,NA,NA,NA,NA,NA,NA,NA,NA,NA,NA,NA,NA,NA,NA,NA,NA,NA,NA
a10c2,shallow,flow.Sequence,3_0_1_0_1_1,NA,NA,completion,15731.86,228140,228135.48,228152.12,243883.98,243895,2023-10-27T14:26:21Z,243900.62,NULL,Sympathie,mapendano,s,dhamiria,fungamano,maazimio,NA,sdfdsf,NA,1,NA,NA,NA,NA,NA,NA,NA,NA,NA,NA,NA,NA,NA,NA,NA,NA,NA,NA,NA
a10c2,task,flow.Sequence,3_0_1_0_1,NA,NA,completion,15731.86,228139,228135.48,228152.12,243883.98,243895,2023-10-27T14:26:21Z,243900.62,NULL,Sympathie,mapendano,s,dhamiria,fungamano,maazimio,NA,sdfdsf,NA,1,NA,NA,NA,NA,NA,NA,NA,NA,NA,NA,NA,NA,NA,NA,NA,NA,NA,NA,NA
a10c2,deep,flow.Sequence,3_0_1_0_2_0,NA,NA,skipped,NA,243896,NA,NA,243883.98,243896,2023-10-27T14:26:21Z,243900.62,NULL,Annäherung,maegesho,s,madahili,kujiamini,mapendekezo,NA,sdfdsf,NA,1,NA,NA,NA,NA,NA,NA,NA,NA,NA,NA,NA,NA,NA,NA,NA,NA,NA,NA,NA
a10c2,Shallow Question,html.Page,3_0_1_0_2_1_0,NA,NA,form submission,18759.38,243896,243883.98,243900.62,262660,262661,2023-10-27T14:26:39Z,262663.82,NULL,Annäherung,maegesho,s,madahili,kujiamini,mapendekezo,maegesho,NA,NA,1,NA,NA,NA,NA,NA,NA,NA,NA,NA,NA,NA,NA,NA,NA,NA,NA,NA,NA,NA
a10c2,"""Richtig""-Screen",canvas.Screen,3_0_1_0_2_1_1,NA,NA,timeout,4999.92,262664,262657.24,262663.82,267647.08,267650,2023-10-27T14:26:44Z,267663.74,NULL,Annäherung,maegesho,s,madahili,kujiamini,mapendekezo,NA,sdfdsf,1,1,NA,NA,NA,NA,NA,NA,NA,NA,NA,NA,NA,NA,NA,NA,NA,NA,NA,NA,NA
a10c2,"""Falsch""-Screen",canvas.Screen,3_0_1_0_2_1_2,NA,NA,skipped,NA,267657,NA,NA,267647.08,267658,2023-10-27T14:26:44Z,267663.74,NULL,Annäherung,maegesho,s,madahili,kujiamini,mapendekezo,NA,sdfdsf,NA,1,NA,NA,NA,NA,NA,NA,NA,NA,NA,NA,NA,NA,NA,NA,NA,NA,NA,NA,NA
a10c2,shallow,flow.Sequence,3_0_1_0_2_1,NA,NA,completion,23746.46,243896,243883.98,243900.62,267647.08,267659,2023-10-27T14:26:44Z,267663.74,NULL,Annäherung,maegesho,s,madahili,kujiamini,mapendekezo,NA,sdfdsf,NA,1,NA,NA,NA,NA,NA,NA,NA,NA,NA,NA,NA,NA,NA,NA,NA,NA,NA,NA,NA
a10c2,task,flow.Sequence,3_0_1_0_2,NA,NA,completion,23746.46,243896,243883.98,243900.62,267647.08,267659,2023-10-27T14:26:44Z,267663.74,NULL,Annäherung,maegesho,s,madahili,kujiamini,mapendekezo,NA,sdfdsf,NA,1,NA,NA,NA,NA,NA,NA,NA,NA,NA,NA,NA,NA,NA,NA,NA,NA,NA,NA,NA
a10c2,Deep Question,html.Page,3_0_1_0_3_0_0,NA,NA,form submission,5774.26,267660,267647.08,267663.74,273438,273438,2023-10-27T14:26:50Z,273446.84,NULL,Prüfung,mtihani,d,NA,NA,NA,hugumani,NA,NA,1,NA,NA,NA,NA,NA,NA,NA,NA,NA,NA,NA,NA,NA,NA,NA,NA,NA,NA,NA
a10c2,"""Richtig""-Screen",canvas.Screen,3_0_1_0_3_0_1,NA,NA,skipped,NA,273441,NA,NA,273438,273441,2023-10-27T14:26:50Z,273446.84,NULL,Prüfung,mtihani,d,NA,NA,NA,NA,sdfdsf,NA,1,NA,NA,NA,NA,NA,NA,NA,NA,NA,NA,NA,NA,NA,NA,NA,NA,NA,NA,NA
a10c2,"""Falsch""-Screen",canvas.Screen,3_0_1_0_3_0_2,NA,NA,timeout,4999.08,273444,273436.44,273446.84,278429.28,278433,2023-10-27T14:26:55Z,278445.92,NULL,Prüfung,mtihani,d,NA,NA,NA,NA,sdfdsf,0,1,NA,NA,NA,NA,NA,NA,NA,NA,NA,NA,NA,NA,NA,NA,NA,NA,NA,NA,NA
a10c2,deep,flow.Sequence,3_0_1_0_3_0,NA,NA,completion,10765.54,267659,267647.08,267663.74,278429.28,278435,2023-10-27T14:26:55Z,278445.92,NULL,Prüfung,mtihani,d,NA,NA,NA,NA,sdfdsf,NA,1,NA,NA,NA,NA,NA,NA,NA,NA,NA,NA,NA,NA,NA,NA,NA,NA,NA,NA,NA
a10c2,shallow,flow.Sequence,3_0_1_0_3_1,NA,NA,skipped,NA,278436,NA,NA,278429.28,278437,2023-10-27T14:26:55Z,278445.92,NULL,Prüfung,mtihani,d,NA,NA,NA,NA,sdfdsf,NA,1,NA,NA,NA,NA,NA,NA,NA,NA,NA,NA,NA,NA,NA,NA,NA,NA,NA,NA,NA
a10c2,task,flow.Sequence,3_0_1_0_3,NA,NA,completion,10765.54,267659,267647.08,267663.74,278429.28,278437,2023-10-27T14:26:55Z,278445.92,NULL,Prüfung,mtihani,d,NA,NA,NA,NA,sdfdsf,NA,1,NA,NA,NA,NA,NA,NA,NA,NA,NA,NA,NA,NA,NA,NA,NA,NA,NA,NA,NA
a10c2,deep,flow.Sequence,3_0_1_0_4_0,NA,NA,skipped,NA,278437,NA,NA,278429.28,278438,2023-10-27T14:26:55Z,278445.92,NULL,Verzögerung,kuchelewa,s,mwakilishi,mwanauchumi,jaribio,NA,sdfdsf,NA,1,NA,NA,NA,NA,NA,NA,NA,NA,NA,NA,NA,NA,NA,NA,NA,NA,NA,NA,NA
a10c2,Shallow Question,html.Page,3_0_1_0_4_1_0,NA,NA,form submission,6034.08,278438,278429.28,278445.92,284480,284480,2023-10-27T14:27:01Z,284478.68,NULL,Verzögerung,kuchelewa,s,mwakilishi,mwanauchumi,jaribio,kuchelewa,NA,NA,1,NA,NA,NA,NA,NA,NA,NA,NA,NA,NA,NA,NA,NA,NA,NA,NA,NA,NA,NA
a10c2,"""Richtig""-Screen",canvas.Screen,3_0_1_0_4_1_1,NA,NA,timeout,4998.28,284485,284477.04,284478.68,289460.3,289463,2023-10-27T14:27:06Z,289476.96,NULL,Verzögerung,kuchelewa,s,mwakilishi,mwanauchumi,jaribio,NA,sdfdsf,1,1,NA,NA,NA,NA,NA,NA,NA,NA,NA,NA,NA,NA,NA,NA,NA,NA,NA,NA,NA
a10c2,"""Falsch""-Screen",canvas.Screen,3_0_1_0_4_1_2,NA,NA,skipped,NA,289467,NA,NA,289460.3,289468,2023-10-27T14:27:06Z,289476.96,NULL,Verzögerung,kuchelewa,s,mwakilishi,mwanauchumi,jaribio,NA,sdfdsf,NA,1,NA,NA,NA,NA,NA,NA,NA,NA,NA,NA,NA,NA,NA,NA,NA,NA,NA,NA,NA
a10c2,shallow,flow.Sequence,3_0_1_0_4_1,NA,NA,completion,11014.38,278438,278429.28,278445.92,289460.3,289468,2023-10-27T14:27:06Z,289476.96,NULL,Verzögerung,kuchelewa,s,mwakilishi,mwanauchumi,jaribio,NA,sdfdsf,NA,1,NA,NA,NA,NA,NA,NA,NA,NA,NA,NA,NA,NA,NA,NA,NA,NA,NA,NA,NA
a10c2,task,flow.Sequence,3_0_1_0_4,NA,NA,completion,11014.38,278437,278429.28,278445.92,289460.3,289469,2023-10-27T14:27:06Z,289476.96,NULL,Verzögerung,kuchelewa,s,mwakilishi,mwanauchumi,jaribio,NA,sdfdsf,NA,1,NA,NA,NA,NA,NA,NA,NA,NA,NA,NA,NA,NA,NA,NA,NA,NA,NA,NA,NA
a10c2,Deep Question,html.Page,3_0_1_0_5_0_0,NA,NA,form submission,6501.04,289469,289460.3,289476.96,295978,295980,2023-10-27T14:27:13Z,295993.4,NULL,Polizist,msongora,d,NA,NA,NA,mhanien,NA,NA,1,NA,NA,NA,NA,NA,NA,NA,NA,NA,NA,NA,NA,NA,NA,NA,NA,NA,NA,NA
a10c2,"""Richtig""-Screen",canvas.Screen,3_0_1_0_5_0_1,NA,NA,skipped,NA,295983,NA,NA,295978,295983,2023-10-27T14:27:13Z,295993.4,NULL,Polizist,msongora,d,NA,NA,NA,NA,sdfdsf,NA,1,NA,NA,NA,NA,NA,NA,NA,NA,NA,NA,NA,NA,NA,NA,NA,NA,NA,NA,NA
a10c2,"""Falsch""-Screen",canvas.Screen,3_0_1_0_5_0_2,NA,NA,timeout,4998.46,295985,295977.58,295993.4,300975.2,300978,2023-10-27T14:27:18Z,300991.86,NULL,Polizist,msongora,d,NA,NA,NA,NA,sdfdsf,0,1,NA,NA,NA,NA,NA,NA,NA,NA,NA,NA,NA,NA,NA,NA,NA,NA,NA,NA,NA
a10c2,deep,flow.Sequence,3_0_1_0_5_0,NA,NA,completion,11498.24,289469,289460.3,289476.96,300975.2,300978,2023-10-27T14:27:18Z,300991.86,NULL,Polizist,msongora,d,NA,NA,NA,NA,sdfdsf,NA,1,NA,NA,NA,NA,NA,NA,NA,NA,NA,NA,NA,NA,NA,NA,NA,NA,NA,NA,NA
a10c2,shallow,flow.Sequence,3_0_1_0_5_1,NA,NA,skipped,NA,300978,NA,NA,300975.2,300979,2023-10-27T14:27:18Z,300991.86,NULL,Polizist,msongora,d,NA,NA,NA,NA,sdfdsf,NA,1,NA,NA,NA,NA,NA,NA,NA,NA,NA,NA,NA,NA,NA,NA,NA,NA,NA,NA,NA
a10c2,task,flow.Sequence,3_0_1_0_5,NA,NA,completion,11498.24,289469,289460.3,289476.96,300975.2,300979,2023-10-27T14:27:18Z,300991.86,NULL,Polizist,msongora,d,NA,NA,NA,NA,sdfdsf,NA,1,NA,NA,NA,NA,NA,NA,NA,NA,NA,NA,NA,NA,NA,NA,NA,NA,NA,NA,NA
a10c2,deep,flow.Sequence,3_0_1_0_6_0,NA,NA,skipped,NA,300979,NA,NA,300975.2,300979,2023-10-27T14:27:18Z,300991.86,NULL,Kultur,utamaduni,s,shetani,gerezani,mazingira,NA,sdfdsf,NA,1,NA,NA,NA,NA,NA,NA,NA,NA,NA,NA,NA,NA,NA,NA,NA,NA,NA,NA,NA
a10c2,Shallow Question,html.Page,3_0_1_0_6_1_0,NA,NA,form submission,16767.14,300979,300975.2,300991.86,317759,317759,2023-10-27T14:27:35Z,317757.58,NULL,Kultur,utamaduni,s,shetani,gerezani,mazingira,gerezani,NA,NA,1,NA,NA,NA,NA,NA,NA,NA,NA,NA,NA,NA,NA,NA,NA,NA,NA,NA,NA,NA
a10c2,"""Richtig""-Screen",canvas.Screen,3_0_1_0_6_1_1,NA,NA,skipped,NA,317762,NA,NA,317759,317762,2023-10-27T14:27:35Z,317757.58,NULL,Kultur,utamaduni,s,shetani,gerezani,mazingira,NA,sdfdsf,NA,1,NA,NA,NA,NA,NA,NA,NA,NA,NA,NA,NA,NA,NA,NA,NA,NA,NA,NA,NA
a10c2,"""Falsch""-Screen",canvas.Screen,3_0_1_0_6_1_2,NA,NA,timeout,4998.3,317764,317757,317757.58,322739.22,322742,2023-10-27T14:27:40Z,322755.88,NULL,Kultur,utamaduni,s,shetani,gerezani,mazingira,NA,sdfdsf,0,1,NA,NA,NA,NA,NA,NA,NA,NA,NA,NA,NA,NA,NA,NA,NA,NA,NA,NA,NA
a10c2,shallow,flow.Sequence,3_0_1_0_6_1,NA,NA,completion,21747.36,300979,300975.2,300991.86,322739.22,322743,2023-10-27T14:27:40Z,322755.88,NULL,Kultur,utamaduni,s,shetani,gerezani,mazingira,NA,sdfdsf,NA,1,NA,NA,NA,NA,NA,NA,NA,NA,NA,NA,NA,NA,NA,NA,NA,NA,NA,NA,NA
a10c2,task,flow.Sequence,3_0_1_0_6,NA,NA,completion,21747.36,300979,300975.2,300991.86,322739.22,322743,2023-10-27T14:27:40Z,322755.88,NULL,Kultur,utamaduni,s,shetani,gerezani,mazingira,NA,sdfdsf,NA,1,NA,NA,NA,NA,NA,NA,NA,NA,NA,NA,NA,NA,NA,NA,NA,NA,NA,NA,NA
a10c2,Deep Question,html.Page,3_0_1_0_7_0_0,NA,NA,form submission,6114.12,322744,322739.22,322755.88,328870,328870,2023-10-27T14:27:46Z,328871.58,NULL,Beweis,ushahidi,d,NA,NA,NA,mganun,NA,NA,1,NA,NA,NA,NA,NA,NA,NA,NA,NA,NA,NA,NA,NA,NA,NA,NA,NA,NA,NA
a10c2,"""Richtig""-Screen",canvas.Screen,3_0_1_0_7_0_1,NA,NA,skipped,NA,328873,NA,NA,328870,328873,2023-10-27T14:27:46Z,328871.58,NULL,Beweis,ushahidi,d,NA,NA,NA,NA,sdfdsf,NA,1,NA,NA,NA,NA,NA,NA,NA,NA,NA,NA,NA,NA,NA,NA,NA,NA,NA,NA,NA
a10c2,"""Falsch""-Screen",canvas.Screen,3_0_1_0_7_0_2,NA,NA,timeout,5000.64,328876,328868.72,328871.58,333855.56,333857,2023-10-27T14:27:51Z,333872.22,NULL,Beweis,ushahidi,d,NA,NA,NA,NA,sdfdsf,0,1,NA,NA,NA,NA,NA,NA,NA,NA,NA,NA,NA,NA,NA,NA,NA,NA,NA,NA,NA
a10c2,deep,flow.Sequence,3_0_1_0_7_0,NA,NA,completion,11099.68,322744,322739.22,322755.88,333855.56,333857,2023-10-27T14:27:51Z,333872.22,NULL,Beweis,ushahidi,d,NA,NA,NA,NA,sdfdsf,NA,1,NA,NA,NA,NA,NA,NA,NA,NA,NA,NA,NA,NA,NA,NA,NA,NA,NA,NA,NA
a10c2,shallow,flow.Sequence,3_0_1_0_7_1,NA,NA,skipped,NA,333857,NA,NA,333855.56,333857,2023-10-27T14:27:51Z,333872.22,NULL,Beweis,ushahidi,d,NA,NA,NA,NA,sdfdsf,NA,1,NA,NA,NA,NA,NA,NA,NA,NA,NA,NA,NA,NA,NA,NA,NA,NA,NA,NA,NA
a10c2,task,flow.Sequence,3_0_1_0_7,NA,NA,completion,11099.68,322744,322739.22,322755.88,333855.56,333857,2023-10-27T14:27:51Z,333872.22,NULL,Beweis,ushahidi,d,NA,NA,NA,NA,sdfdsf,NA,1,NA,NA,NA,NA,NA,NA,NA,NA,NA,NA,NA,NA,NA,NA,NA,NA,NA,NA,NA
a10c2,block,flow.Loop,3_0_1_0,NA,NA,completion,115685.38,218155,218155.02,218170.18,333855.56,333857,2023-10-27T14:27:51Z,333872.22,NULL,NA,NA,NA,NA,NA,NA,NA,sdfdsf,NA,1,NA,NA,NA,NA,NA,NA,NA,NA,NA,NA,NA,NA,NA,NA,NA,NA,NA,NA,NA
a10c2,weiter,canvas.Screen,3_0_1_1,sdf,keypress(Space),response,1321.78,333857,333855.56,333872.22,335194,335212,2023-10-27T14:27:52Z,335272.14,NULL,NA,NA,NA,NA,NA,NA,NA,sdfdsf,NA,1,NA,NA,NA,NA,NA,NA,NA,NA,NA,NA,NA,NA,NA,NA,NA,NA,NA,NA,NA
a10c2,check continue,flow.Sequence,3_0_1,NA,NA,completion,117023.82,218155,218155.02,218170.18,335194,335212,2023-10-27T14:27:52Z,335272.14,NULL,NA,NA,NA,NA,NA,NA,NA,sdfdsf,NA,1,NA,NA,NA,NA,NA,NA,NA,NA,NA,NA,NA,NA,NA,NA,NA,NA,NA,NA,NA
a10c2,deep,flow.Sequence,3_0_2_0_0_0,NA,NA,skipped,NA,335265,NA,NA,335194,335265,2023-10-27T14:27:52Z,335272.14,NULL,Kultur,utamaduni,s,shetani,gerezani,mazingira,NA,sdf,NA,2,NA,NA,NA,NA,NA,NA,NA,NA,NA,NA,NA,NA,NA,NA,NA,NA,NA,NA,NA
a10c2,Shallow Question,html.Page,3_0_2_0_0_1_0,NA,NA,form submission,13430.86,335265,335264.58,335272.14,348703,348704,2023-10-27T14:28:05Z,348703.4,NULL,Kultur,utamaduni,s,shetani,gerezani,mazingira,utamaduni,NA,NA,2,NA,NA,NA,NA,NA,NA,NA,NA,NA,NA,NA,NA,NA,NA,NA,NA,NA,NA,NA
a10c2,"""Richtig""-Screen",canvas.Screen,3_0_2_0_0_1_1,NA,NA,timeout,4999.4,348707,348699.12,348703.4,353686.14,353689,2023-10-27T14:28:10Z,353702.8,NULL,Kultur,utamaduni,s,shetani,gerezani,mazingira,NA,sdf,1,2,NA,NA,NA,NA,NA,NA,NA,NA,NA,NA,NA,NA,NA,NA,NA,NA,NA,NA,NA
a10c2,"""Falsch""-Screen",canvas.Screen,3_0_2_0_0_1_2,NA,NA,skipped,NA,353693,NA,NA,353686.14,353694,2023-10-27T14:28:10Z,353702.8,NULL,Kultur,utamaduni,s,shetani,gerezani,mazingira,NA,sdf,NA,2,NA,NA,NA,NA,NA,NA,NA,NA,NA,NA,NA,NA,NA,NA,NA,NA,NA,NA,NA
a10c2,shallow,flow.Sequence,3_0_2_0_0_1,NA,NA,completion,18414,335265,335264.58,335272.14,353686.14,353694,2023-10-27T14:28:10Z,353702.8,NULL,Kultur,utamaduni,s,shetani,gerezani,mazingira,NA,sdf,NA,2,NA,NA,NA,NA,NA,NA,NA,NA,NA,NA,NA,NA,NA,NA,NA,NA,NA,NA,NA
a10c2,task,flow.Sequence,3_0_2_0_0,NA,NA,completion,18414,335265,335264.58,335272.14,353686.14,353695,2023-10-27T14:28:10Z,353702.8,NULL,Kultur,utamaduni,s,shetani,gerezani,mazingira,NA,sdf,NA,2,NA,NA,NA,NA,NA,NA,NA,NA,NA,NA,NA,NA,NA,NA,NA,NA,NA,NA,NA
a10c2,Deep Question,html.Page,3_0_2_0_1_0_0,NA,NA,form submission,5973.2,353695,353686.14,353702.8,359676,359677,2023-10-27T14:28:16Z,359685.4,NULL,Aufstand,ugomaji,d,NA,NA,NA,ngomasn,NA,NA,2,NA,NA,NA,NA,NA,NA,NA,NA,NA,NA,NA,NA,NA,NA,NA,NA,NA,NA,NA
a10c2,"""Richtig""-Screen",canvas.Screen,3_0_2_0_1_0_1,NA,NA,skipped,NA,359678,NA,NA,359676,359678,2023-10-27T14:28:16Z,359685.4,NULL,Aufstand,ugomaji,d,NA,NA,NA,NA,sdf,NA,2,NA,NA,NA,NA,NA,NA,NA,NA,NA,NA,NA,NA,NA,NA,NA,NA,NA,NA,NA
a10c2,"""Falsch""-Screen",canvas.Screen,3_0_2_0_1_0_2,NA,NA,timeout,4999.66,359681,359674.82,359685.4,364668.4,364670,2023-10-27T14:28:21Z,364685.06,NULL,Aufstand,ugomaji,d,NA,NA,NA,NA,sdf,0,2,NA,NA,NA,NA,NA,NA,NA,NA,NA,NA,NA,NA,NA,NA,NA,NA,NA,NA,NA
a10c2,deep,flow.Sequence,3_0_2_0_1_0,NA,NA,completion,10965.6,353695,353686.14,353702.8,364668.4,364671,2023-10-27T14:28:21Z,364685.06,NULL,Aufstand,ugomaji,d,NA,NA,NA,NA,sdf,NA,2,NA,NA,NA,NA,NA,NA,NA,NA,NA,NA,NA,NA,NA,NA,NA,NA,NA,NA,NA
a10c2,shallow,flow.Sequence,3_0_2_0_1_1,NA,NA,skipped,NA,364671,NA,NA,364668.4,364671,2023-10-27T14:28:21Z,364685.06,NULL,Aufstand,ugomaji,d,NA,NA,NA,NA,sdf,NA,2,NA,NA,NA,NA,NA,NA,NA,NA,NA,NA,NA,NA,NA,NA,NA,NA,NA,NA,NA
a10c2,task,flow.Sequence,3_0_2_0_1,NA,NA,completion,10965.6,353695,353686.14,353702.8,364668.4,364672,2023-10-27T14:28:21Z,364685.06,NULL,Aufstand,ugomaji,d,NA,NA,NA,NA,sdf,NA,2,NA,NA,NA,NA,NA,NA,NA,NA,NA,NA,NA,NA,NA,NA,NA,NA,NA,NA,NA
a10c2,deep,flow.Sequence,3_0_2_0_2_0,NA,NA,skipped,NA,364672,NA,NA,364668.4,364674,2023-10-27T14:28:21Z,364685.06,NULL,Verzögerung,kuchelewa,s,mwakilishi,mwanauchumi,jaribio,NA,sdf,NA,2,NA,NA,NA,NA,NA,NA,NA,NA,NA,NA,NA,NA,NA,NA,NA,NA,NA,NA,NA
a10c2,Shallow Question,html.Page,3_0_2_0_2_1_0,NA,NA,form submission,4861.94,364674,364668.4,364685.06,369547,369548,2023-10-27T14:28:26Z,369549.56,NULL,Verzögerung,kuchelewa,s,mwakilishi,mwanauchumi,jaribio,kuchelewa,NA,NA,2,NA,NA,NA,NA,NA,NA,NA,NA,NA,NA,NA,NA,NA,NA,NA,NA,NA,NA,NA
a10c2,"""Richtig""-Screen",canvas.Screen,3_0_2_0_2_1_1,NA,NA,timeout,5000.42,369550,369543.68,369549.56,374533.32,374536,2023-10-27T14:28:31Z,374549.98,NULL,Verzögerung,kuchelewa,s,mwakilishi,mwanauchumi,jaribio,NA,sdf,1,2,NA,NA,NA,NA,NA,NA,NA,NA,NA,NA,NA,NA,NA,NA,NA,NA,NA,NA,NA
a10c2,"""Falsch""-Screen",canvas.Screen,3_0_2_0_2_1_2,NA,NA,skipped,NA,374540,NA,NA,374533.32,374541,2023-10-27T14:28:31Z,374549.98,NULL,Verzögerung,kuchelewa,s,mwakilishi,mwanauchumi,jaribio,NA,sdf,NA,2,NA,NA,NA,NA,NA,NA,NA,NA,NA,NA,NA,NA,NA,NA,NA,NA,NA,NA,NA
a10c2,shallow,flow.Sequence,3_0_2_0_2_1,NA,NA,completion,9848.26,364674,364668.4,364685.06,374533.32,374541,2023-10-27T14:28:31Z,374549.98,NULL,Verzögerung,kuchelewa,s,mwakilishi,mwanauchumi,jaribio,NA,sdf,NA,2,NA,NA,NA,NA,NA,NA,NA,NA,NA,NA,NA,NA,NA,NA,NA,NA,NA,NA,NA
a10c2,task,flow.Sequence,3_0_2_0_2,NA,NA,completion,9848.26,364672,364668.4,364685.06,374533.32,374541,2023-10-27T14:28:31Z,374549.98,NULL,Verzögerung,kuchelewa,s,mwakilishi,mwanauchumi,jaribio,NA,sdf,NA,2,NA,NA,NA,NA,NA,NA,NA,NA,NA,NA,NA,NA,NA,NA,NA,NA,NA,NA,NA
a10c2,deep,flow.Sequence,3_0_2_0_3_0,NA,NA,skipped,NA,374541,NA,NA,374533.32,374541,2023-10-27T14:28:31Z,374549.98,NULL,Sympathie,mapendano,s,dhamiria,fungamano,maazimio,NA,sdf,NA,2,NA,NA,NA,NA,NA,NA,NA,NA,NA,NA,NA,NA,NA,NA,NA,NA,NA,NA,NA
a10c2,Shallow Question,html.Page,3_0_2_0_3_1_0,NA,NA,form submission,3788.02,374541,374533.32,374549.98,378338,378339,2023-10-27T14:28:35Z,378348.88,NULL,Sympathie,mapendano,s,dhamiria,fungamano,maazimio,mapendano,NA,NA,2,NA,NA,NA,NA,NA,NA,NA,NA,NA,NA,NA,NA,NA,NA,NA,NA,NA,NA,NA
a10c2,"""Richtig""-Screen",canvas.Screen,3_0_2_0_3_1_1,NA,NA,timeout,5000.2,378342,378333.84,378348.88,383332.42,383334,2023-10-27T14:28:40Z,383349.08,NULL,Sympathie,mapendano,s,dhamiria,fungamano,maazimio,NA,sdf,1,2,NA,NA,NA,NA,NA,NA,NA,NA,NA,NA,NA,NA,NA,NA,NA,NA,NA,NA,NA
a10c2,"""Falsch""-Screen",canvas.Screen,3_0_2_0_3_1_2,NA,NA,skipped,NA,383338,NA,NA,383332.42,383338,2023-10-27T14:28:40Z,383349.08,NULL,Sympathie,mapendano,s,dhamiria,fungamano,maazimio,NA,sdf,NA,2,NA,NA,NA,NA,NA,NA,NA,NA,NA,NA,NA,NA,NA,NA,NA,NA,NA,NA,NA
a10c2,shallow,flow.Sequence,3_0_2_0_3_1,NA,NA,completion,8782.44,374541,374533.32,374549.98,383332.42,383340,2023-10-27T14:28:40Z,383349.08,NULL,Sympathie,mapendano,s,dhamiria,fungamano,maazimio,NA,sdf,NA,2,NA,NA,NA,NA,NA,NA,NA,NA,NA,NA,NA,NA,NA,NA,NA,NA,NA,NA,NA
a10c2,task,flow.Sequence,3_0_2_0_3,NA,NA,completion,8782.44,374541,374533.32,374549.98,383332.42,383340,2023-10-27T14:28:40Z,383349.08,NULL,Sympathie,mapendano,s,dhamiria,fungamano,maazimio,NA,sdf,NA,2,NA,NA,NA,NA,NA,NA,NA,NA,NA,NA,NA,NA,NA,NA,NA,NA,NA,NA,NA
a10c2,Deep Question,html.Page,3_0_2_0_4_0_0,NA,NA,form submission,3378.92,383340,383332.42,383349.08,386728,386728,2023-10-27T14:28:44Z,386731.8,NULL,Prüfung,mtihani,d,NA,NA,NA,huemidn,NA,NA,2,NA,NA,NA,NA,NA,NA,NA,NA,NA,NA,NA,NA,NA,NA,NA,NA,NA,NA,NA
a10c2,"""Richtig""-Screen",canvas.Screen,3_0_2_0_4_0_1,NA,NA,skipped,NA,386730,NA,NA,386728,386730,2023-10-27T14:28:44Z,386731.8,NULL,Prüfung,mtihani,d,NA,NA,NA,NA,sdf,NA,2,NA,NA,NA,NA,NA,NA,NA,NA,NA,NA,NA,NA,NA,NA,NA,NA,NA,NA,NA
a10c2,"""Falsch""-Screen",canvas.Screen,3_0_2_0_4_0_2,NA,NA,timeout,4999.18,386733,386726.36,386731.8,391714.32,391717,2023-10-27T14:28:48Z,391730.98,NULL,Prüfung,mtihani,d,NA,NA,NA,NA,sdf,0,2,NA,NA,NA,NA,NA,NA,NA,NA,NA,NA,NA,NA,NA,NA,NA,NA,NA,NA,NA
a10c2,deep,flow.Sequence,3_0_2_0_4_0,NA,NA,completion,8365.24,383340,383332.42,383349.08,391714.32,391718,2023-10-27T14:28:49Z,391730.98,NULL,Prüfung,mtihani,d,NA,NA,NA,NA,sdf,NA,2,NA,NA,NA,NA,NA,NA,NA,NA,NA,NA,NA,NA,NA,NA,NA,NA,NA,NA,NA
a10c2,shallow,flow.Sequence,3_0_2_0_4_1,NA,NA,skipped,NA,391718,NA,NA,391714.32,391718,2023-10-27T14:28:49Z,391730.98,NULL,Prüfung,mtihani,d,NA,NA,NA,NA,sdf,NA,2,NA,NA,NA,NA,NA,NA,NA,NA,NA,NA,NA,NA,NA,NA,NA,NA,NA,NA,NA
a10c2,task,flow.Sequence,3_0_2_0_4,NA,NA,completion,8365.24,383340,383332.42,383349.08,391714.32,391719,2023-10-27T14:28:49Z,391730.98,NULL,Prüfung,mtihani,d,NA,NA,NA,NA,sdf,NA,2,NA,NA,NA,NA,NA,NA,NA,NA,NA,NA,NA,NA,NA,NA,NA,NA,NA,NA,NA
a10c2,Deep Question,html.Page,3_0_2_0_5_0_0,NA,NA,form submission,8422.02,391719,391714.32,391730.98,400153,400153,2023-10-27T14:28:57Z,400163.26,NULL,Polizist,msongora,d,NA,NA,NA,mholani,NA,NA,2,NA,NA,NA,NA,NA,NA,NA,NA,NA,NA,NA,NA,NA,NA,NA,NA,NA,NA,NA
a10c2,"""Richtig""-Screen",canvas.Screen,3_0_2_0_5_0_1,NA,NA,skipped,NA,400156,NA,NA,400153,400156,2023-10-27T14:28:57Z,400163.26,NULL,Polizist,msongora,d,NA,NA,NA,NA,sdf,NA,2,NA,NA,NA,NA,NA,NA,NA,NA,NA,NA,NA,NA,NA,NA,NA,NA,NA,NA,NA
a10c2,"""Falsch""-Screen",canvas.Screen,3_0_2_0_5_0_2,NA,NA,timeout,4999.32,400159,400151.2,400163.26,405145.92,405148,2023-10-27T14:29:02Z,405162.58,NULL,Polizist,msongora,d,NA,NA,NA,NA,sdf,0,2,NA,NA,NA,NA,NA,NA,NA,NA,NA,NA,NA,NA,NA,NA,NA,NA,NA,NA,NA
a10c2,deep,flow.Sequence,3_0_2_0_5_0,NA,NA,completion,13414.94,391719,391714.32,391730.98,405145.92,405150,2023-10-27T14:29:02Z,405162.58,NULL,Polizist,msongora,d,NA,NA,NA,NA,sdf,NA,2,NA,NA,NA,NA,NA,NA,NA,NA,NA,NA,NA,NA,NA,NA,NA,NA,NA,NA,NA
a10c2,shallow,flow.Sequence,3_0_2_0_5_1,NA,NA,skipped,NA,405150,NA,NA,405145.92,405151,2023-10-27T14:29:02Z,405162.58,NULL,Polizist,msongora,d,NA,NA,NA,NA,sdf,NA,2,NA,NA,NA,NA,NA,NA,NA,NA,NA,NA,NA,NA,NA,NA,NA,NA,NA,NA,NA
a10c2,task,flow.Sequence,3_0_2_0_5,NA,NA,completion,13414.94,391719,391714.32,391730.98,405145.92,405152,2023-10-27T14:29:02Z,405162.58,NULL,Polizist,msongora,d,NA,NA,NA,NA,sdf,NA,2,NA,NA,NA,NA,NA,NA,NA,NA,NA,NA,NA,NA,NA,NA,NA,NA,NA,NA,NA
a10c2,deep,flow.Sequence,3_0_2_0_6_0,NA,NA,skipped,NA,405152,NA,NA,405145.92,405153,2023-10-27T14:29:02Z,405162.58,NULL,Annäherung,maegesho,s,madahili,kujiamini,mapendekezo,NA,sdf,NA,2,NA,NA,NA,NA,NA,NA,NA,NA,NA,NA,NA,NA,NA,NA,NA,NA,NA,NA,NA
a10c2,Shallow Question,html.Page,3_0_2_0_6_1_0,NA,NA,form submission,21037.42,405154,405145.92,405162.58,426200,426200,2023-10-27T14:29:23Z,426209.12,NULL,Annäherung,maegesho,s,madahili,kujiamini,mapendekezo,madahili,NA,NA,2,NA,NA,NA,NA,NA,NA,NA,NA,NA,NA,NA,NA,NA,NA,NA,NA,NA,NA,NA
a10c2,"""Richtig""-Screen",canvas.Screen,3_0_2_0_6_1_1,NA,NA,skipped,NA,426205,NA,NA,426200,426206,2023-10-27T14:29:23Z,426209.12,NULL,Annäherung,maegesho,s,madahili,kujiamini,mapendekezo,NA,sdf,NA,2,NA,NA,NA,NA,NA,NA,NA,NA,NA,NA,NA,NA,NA,NA,NA,NA,NA,NA,NA
a10c2,"""Falsch""-Screen",canvas.Screen,3_0_2_0_6_1_2,NA,NA,timeout,5000.52,426210,426194.64,426209.12,431192.98,431195,2023-10-27T14:29:28Z,431209.64,NULL,Annäherung,maegesho,s,madahili,kujiamini,mapendekezo,NA,sdf,0,2,NA,NA,NA,NA,NA,NA,NA,NA,NA,NA,NA,NA,NA,NA,NA,NA,NA,NA,NA
a10c2,shallow,flow.Sequence,3_0_2_0_6_1,NA,NA,completion,26030.4,405154,405145.92,405162.58,431192.98,431196,2023-10-27T14:29:28Z,431209.64,NULL,Annäherung,maegesho,s,madahili,kujiamini,mapendekezo,NA,sdf,NA,2,NA,NA,NA,NA,NA,NA,NA,NA,NA,NA,NA,NA,NA,NA,NA,NA,NA,NA,NA
a10c2,task,flow.Sequence,3_0_2_0_6,NA,NA,completion,26030.4,405152,405145.92,405162.58,431192.98,431196,2023-10-27T14:29:28Z,431209.64,NULL,Annäherung,maegesho,s,madahili,kujiamini,mapendekezo,NA,sdf,NA,2,NA,NA,NA,NA,NA,NA,NA,NA,NA,NA,NA,NA,NA,NA,NA,NA,NA,NA,NA
a10c2,Deep Question,html.Page,3_0_2_0_7_0_0,NA,NA,form submission,2427.36,431196,431192.98,431209.64,433637,433638,2023-10-27T14:29:30Z,433642.74,NULL,Beweis,ushahidi,d,NA,NA,NA,hneie,NA,NA,2,NA,NA,NA,NA,NA,NA,NA,NA,NA,NA,NA,NA,NA,NA,NA,NA,NA,NA,NA
a10c2,"""Richtig""-Screen",canvas.Screen,3_0_2_0_7_0_1,NA,NA,skipped,NA,433642,NA,NA,433637,433642,2023-10-27T14:29:30Z,433642.74,NULL,Beweis,ushahidi,d,NA,NA,NA,NA,sdf,NA,2,NA,NA,NA,NA,NA,NA,NA,NA,NA,NA,NA,NA,NA,NA,NA,NA,NA,NA,NA
a10c2,"""Falsch""-Screen",canvas.Screen,3_0_2_0_7_0_2,NA,NA,timeout,4998.38,433645,433635.74,433642.74,438624.46,438627,2023-10-27T14:29:35Z,438641.12,NULL,Beweis,ushahidi,d,NA,NA,NA,NA,sdf,0,2,NA,NA,NA,NA,NA,NA,NA,NA,NA,NA,NA,NA,NA,NA,NA,NA,NA,NA,NA
a10c2,deep,flow.Sequence,3_0_2_0_7_0,NA,NA,completion,7414.82,431196,431192.98,431209.64,438624.46,438627,2023-10-27T14:29:35Z,438641.12,NULL,Beweis,ushahidi,d,NA,NA,NA,NA,sdf,NA,2,NA,NA,NA,NA,NA,NA,NA,NA,NA,NA,NA,NA,NA,NA,NA,NA,NA,NA,NA
a10c2,shallow,flow.Sequence,3_0_2_0_7_1,NA,NA,skipped,NA,438627,NA,NA,438624.46,438627,2023-10-27T14:29:35Z,438641.12,NULL,Beweis,ushahidi,d,NA,NA,NA,NA,sdf,NA,2,NA,NA,NA,NA,NA,NA,NA,NA,NA,NA,NA,NA,NA,NA,NA,NA,NA,NA,NA
a10c2,task,flow.Sequence,3_0_2_0_7,NA,NA,completion,7414.82,431196,431192.98,431209.64,438624.46,438627,2023-10-27T14:29:35Z,438641.12,NULL,Beweis,ushahidi,d,NA,NA,NA,NA,sdf,NA,2,NA,NA,NA,NA,NA,NA,NA,NA,NA,NA,NA,NA,NA,NA,NA,NA,NA,NA,NA
a10c2,block,flow.Loop,3_0_2_0,NA,NA,completion,103352.32,335265,335264.58,335272.14,438624.46,438628,2023-10-27T14:29:35Z,438641.12,NULL,NA,NA,NA,NA,NA,NA,NA,sdf,NA,2,NA,NA,NA,NA,NA,NA,NA,NA,NA,NA,NA,NA,NA,NA,NA,NA,NA,NA,NA
a10c2,weiter,canvas.Screen,3_0_2_1,sdf,keypress(Space),response,1270.88,438628,438624.46,438641.12,439912,439917,2023-10-27T14:29:37Z,439974.9,NULL,NA,NA,NA,NA,NA,NA,NA,sdf,NA,2,NA,NA,NA,NA,NA,NA,NA,NA,NA,NA,NA,NA,NA,NA,NA,NA,NA,NA,NA
a10c2,check continue,flow.Sequence,3_0_2,NA,NA,completion,104639.86,335265,335264.58,335272.14,439912,439918,2023-10-27T14:29:37Z,439974.9,NULL,NA,NA,NA,NA,NA,NA,NA,sdf,NA,2,NA,NA,NA,NA,NA,NA,NA,NA,NA,NA,NA,NA,NA,NA,NA,NA,NA,NA,NA
a10c2,deep,flow.Sequence,3_0_3_0_0_0,NA,NA,skipped,NA,439972,NA,NA,439912,439972,2023-10-27T14:29:37Z,439974.9,NULL,Verzögerung,kuchelewa,s,mwakilishi,mwanauchumi,jaribio,NA,qt,NA,3,NA,NA,NA,NA,NA,NA,NA,NA,NA,NA,NA,NA,NA,NA,NA,NA,NA,NA,NA
a10c2,Shallow Question,html.Page,3_0_3_0_0_1_0,NA,NA,form submission,4390.1,439972,439972.3,439974.9,444365,444365,2023-10-27T14:29:41Z,444373.58,NULL,Verzögerung,kuchelewa,s,mwakilishi,mwanauchumi,jaribio,kuchelewa,NA,NA,3,NA,NA,NA,NA,NA,NA,NA,NA,NA,NA,NA,NA,NA,NA,NA,NA,NA,NA,NA
a10c2,"""Richtig""-Screen",canvas.Screen,3_0_3_0_0_1_1,NA,NA,timeout,4999.08,444367,444361.84,444373.58,449356,449359,2023-10-27T14:29:46Z,449372.66,NULL,Verzögerung,kuchelewa,s,mwakilishi,mwanauchumi,jaribio,NA,qt,1,3,NA,NA,NA,NA,NA,NA,NA,NA,NA,NA,NA,NA,NA,NA,NA,NA,NA,NA,NA
a10c2,"""Falsch""-Screen",canvas.Screen,3_0_3_0_0_1_2,NA,NA,skipped,NA,449362,NA,NA,449356,449362,2023-10-27T14:29:46Z,449372.66,NULL,Verzögerung,kuchelewa,s,mwakilishi,mwanauchumi,jaribio,NA,qt,NA,3,NA,NA,NA,NA,NA,NA,NA,NA,NA,NA,NA,NA,NA,NA,NA,NA,NA,NA,NA
a10c2,shallow,flow.Sequence,3_0_3_0_0_1,NA,NA,completion,9381.1,439972,439972.3,439974.9,449356,449363,2023-10-27T14:29:46Z,449372.66,NULL,Verzögerung,kuchelewa,s,mwakilishi,mwanauchumi,jaribio,NA,qt,NA,3,NA,NA,NA,NA,NA,NA,NA,NA,NA,NA,NA,NA,NA,NA,NA,NA,NA,NA,NA
a10c2,task,flow.Sequence,3_0_3_0_0,NA,NA,completion,9381.1,439972,439972.3,439974.9,449356,449363,2023-10-27T14:29:46Z,449372.66,NULL,Verzögerung,kuchelewa,s,mwakilishi,mwanauchumi,jaribio,NA,qt,NA,3,NA,NA,NA,NA,NA,NA,NA,NA,NA,NA,NA,NA,NA,NA,NA,NA,NA,NA,NA
a10c2,Deep Question,html.Page,3_0_3_0_1_0_0,NA,NA,form submission,6347.34,449363,449356,449372.66,455720,455720,2023-10-27T14:29:53Z,455722.1,NULL,Polizist,msongora,d,NA,NA,NA,msomani,NA,NA,3,NA,NA,NA,NA,NA,NA,NA,NA,NA,NA,NA,NA,NA,NA,NA,NA,NA,NA,NA
a10c2,"""Richtig""-Screen",canvas.Screen,3_0_3_0_1_0_1,NA,NA,skipped,NA,455722,NA,NA,455720,455722,2023-10-27T14:29:53Z,455722.1,NULL,Polizist,msongora,d,NA,NA,NA,NA,qt,NA,3,NA,NA,NA,NA,NA,NA,NA,NA,NA,NA,NA,NA,NA,NA,NA,NA,NA,NA,NA
a10c2,"""Falsch""-Screen",canvas.Screen,3_0_3_0_1_0_2,NA,NA,timeout,4999.28,455724,455717.94,455722.1,460704.74,460708,2023-10-27T14:29:57Z,460721.38,NULL,Polizist,msongora,d,NA,NA,NA,NA,qt,0,3,NA,NA,NA,NA,NA,NA,NA,NA,NA,NA,NA,NA,NA,NA,NA,NA,NA,NA,NA
a10c2,deep,flow.Sequence,3_0_3_0_1_0,NA,NA,completion,11332.08,449363,449356,449372.66,460704.74,460709,2023-10-27T14:29:57Z,460721.38,NULL,Polizist,msongora,d,NA,NA,NA,NA,qt,NA,3,NA,NA,NA,NA,NA,NA,NA,NA,NA,NA,NA,NA,NA,NA,NA,NA,NA,NA,NA
a10c2,shallow,flow.Sequence,3_0_3_0_1_1,NA,NA,skipped,NA,460709,NA,NA,460704.74,460709,2023-10-27T14:29:57Z,460721.38,NULL,Polizist,msongora,d,NA,NA,NA,NA,qt,NA,3,NA,NA,NA,NA,NA,NA,NA,NA,NA,NA,NA,NA,NA,NA,NA,NA,NA,NA,NA
a10c2,task,flow.Sequence,3_0_3_0_1,NA,NA,completion,11332.08,449363,449356,449372.66,460704.74,460709,2023-10-27T14:29:57Z,460721.38,NULL,Polizist,msongora,d,NA,NA,NA,NA,qt,NA,3,NA,NA,NA,NA,NA,NA,NA,NA,NA,NA,NA,NA,NA,NA,NA,NA,NA,NA,NA
a10c2,Deep Question,html.Page,3_0_3_0_2_0_0,NA,NA,form submission,3763.62,460709,460704.74,460721.38,464485,464485,2023-10-27T14:30:01Z,464488.52,NULL,Beweis,ushahidi,d,NA,NA,NA,mhaineo,NA,NA,3,NA,NA,NA,NA,NA,NA,NA,NA,NA,NA,NA,NA,NA,NA,NA,NA,NA,NA,NA
a10c2,"""Richtig""-Screen",canvas.Screen,3_0_3_0_2_0_1,NA,NA,skipped,NA,464488,NA,NA,464485,464488,2023-10-27T14:30:01Z,464488.52,NULL,Beweis,ushahidi,d,NA,NA,NA,NA,qt,NA,3,NA,NA,NA,NA,NA,NA,NA,NA,NA,NA,NA,NA,NA,NA,NA,NA,NA,NA,NA
a10c2,"""Falsch""-Screen",canvas.Screen,3_0_3_0_2_0_2,NA,NA,timeout,4998.18,464489,464483.48,464488.52,469470.04,469472,2023-10-27T14:30:06Z,469486.7,NULL,Beweis,ushahidi,d,NA,NA,NA,NA,qt,0,3,NA,NA,NA,NA,NA,NA,NA,NA,NA,NA,NA,NA,NA,NA,NA,NA,NA,NA,NA
a10c2,deep,flow.Sequence,3_0_3_0_2_0,NA,NA,completion,8748.66,460709,460704.74,460721.38,469470.04,469473,2023-10-27T14:30:06Z,469486.7,NULL,Beweis,ushahidi,d,NA,NA,NA,NA,qt,NA,3,NA,NA,NA,NA,NA,NA,NA,NA,NA,NA,NA,NA,NA,NA,NA,NA,NA,NA,NA
a10c2,shallow,flow.Sequence,3_0_3_0_2_1,NA,NA,skipped,NA,469473,NA,NA,469470.04,469473,2023-10-27T14:30:06Z,469486.7,NULL,Beweis,ushahidi,d,NA,NA,NA,NA,qt,NA,3,NA,NA,NA,NA,NA,NA,NA,NA,NA,NA,NA,NA,NA,NA,NA,NA,NA,NA,NA
a10c2,task,flow.Sequence,3_0_3_0_2,NA,NA,completion,8748.66,460709,460704.74,460721.38,469470.04,469473,2023-10-27T14:30:06Z,469486.7,NULL,Beweis,ushahidi,d,NA,NA,NA,NA,qt,NA,3,NA,NA,NA,NA,NA,NA,NA,NA,NA,NA,NA,NA,NA,NA,NA,NA,NA,NA,NA
a10c2,deep,flow.Sequence,3_0_3_0_3_0,NA,NA,skipped,NA,469473,NA,NA,469470.04,469473,2023-10-27T14:30:06Z,469486.7,NULL,Annäherung,maegesho,s,madahili,kujiamini,mapendekezo,NA,qt,NA,3,NA,NA,NA,NA,NA,NA,NA,NA,NA,NA,NA,NA,NA,NA,NA,NA,NA,NA,NA
a10c2,Shallow Question,html.Page,3_0_3_0_3_1_0,NA,NA,form submission,4765.3,469474,469470.04,469486.7,474252,474252,2023-10-27T14:30:11Z,474253.6,NULL,Annäherung,maegesho,s,madahili,kujiamini,mapendekezo,maegesho,NA,NA,3,NA,NA,NA,NA,NA,NA,NA,NA,NA,NA,NA,NA,NA,NA,NA,NA,NA,NA,NA
a10c2,"""Richtig""-Screen",canvas.Screen,3_0_3_0_3_1_1,NA,NA,timeout,4998.3,474255,474249.66,474253.6,479235.24,479238,2023-10-27T14:30:16Z,479251.9,NULL,Annäherung,maegesho,s,madahili,kujiamini,mapendekezo,NA,qt,1,3,NA,NA,NA,NA,NA,NA,NA,NA,NA,NA,NA,NA,NA,NA,NA,NA,NA,NA,NA
a10c2,"""Falsch""-Screen",canvas.Screen,3_0_3_0_3_1_2,NA,NA,skipped,NA,479242,NA,NA,479235.24,479242,2023-10-27T14:30:16Z,479251.9,NULL,Annäherung,maegesho,s,madahili,kujiamini,mapendekezo,NA,qt,NA,3,NA,NA,NA,NA,NA,NA,NA,NA,NA,NA,NA,NA,NA,NA,NA,NA,NA,NA,NA
a10c2,shallow,flow.Sequence,3_0_3_0_3_1,NA,NA,completion,9748.54,469474,469470.04,469486.7,479235.24,479242,2023-10-27T14:30:16Z,479251.9,NULL,Annäherung,maegesho,s,madahili,kujiamini,mapendekezo,NA,qt,NA,3,NA,NA,NA,NA,NA,NA,NA,NA,NA,NA,NA,NA,NA,NA,NA,NA,NA,NA,NA
a10c2,task,flow.Sequence,3_0_3_0_3,NA,NA,completion,9748.54,469473,469470.04,469486.7,479235.24,479243,2023-10-27T14:30:16Z,479251.9,NULL,Annäherung,maegesho,s,madahili,kujiamini,mapendekezo,NA,qt,NA,3,NA,NA,NA,NA,NA,NA,NA,NA,NA,NA,NA,NA,NA,NA,NA,NA,NA,NA,NA
a10c2,deep,flow.Sequence,3_0_3_0_4_0,NA,NA,skipped,NA,479243,NA,NA,479235.24,479243,2023-10-27T14:30:16Z,479251.9,NULL,Sympathie,mapendano,s,dhamiria,fungamano,maazimio,NA,qt,NA,3,NA,NA,NA,NA,NA,NA,NA,NA,NA,NA,NA,NA,NA,NA,NA,NA,NA,NA,NA
a10c2,Shallow Question,html.Page,3_0_3_0_4_1_0,NA,NA,form submission,5104.1,479244,479235.24,479251.9,484356,484357,2023-10-27T14:30:21Z,484368.02,NULL,Sympathie,mapendano,s,dhamiria,fungamano,maazimio,mapendano,NA,NA,3,NA,NA,NA,NA,NA,NA,NA,NA,NA,NA,NA,NA,NA,NA,NA,NA,NA,NA,NA
a10c2,"""Richtig""-Screen",canvas.Screen,3_0_3_0_4_1_1,NA,NA,timeout,4999.58,484359,484353.1,484368.02,489350.96,489353,2023-10-27T14:30:26Z,489367.6,NULL,Sympathie,mapendano,s,dhamiria,fungamano,maazimio,NA,qt,1,3,NA,NA,NA,NA,NA,NA,NA,NA,NA,NA,NA,NA,NA,NA,NA,NA,NA,NA,NA
a10c2,"""Falsch""-Screen",canvas.Screen,3_0_3_0_4_1_2,NA,NA,skipped,NA,489355,NA,NA,489350.96,489355,2023-10-27T14:30:26Z,489367.6,NULL,Sympathie,mapendano,s,dhamiria,fungamano,maazimio,NA,qt,NA,3,NA,NA,NA,NA,NA,NA,NA,NA,NA,NA,NA,NA,NA,NA,NA,NA,NA,NA,NA
a10c2,shallow,flow.Sequence,3_0_3_0_4_1,NA,NA,completion,10099.06,479243,479235.24,479251.9,489350.96,489355,2023-10-27T14:30:26Z,489367.6,NULL,Sympathie,mapendano,s,dhamiria,fungamano,maazimio,NA,qt,NA,3,NA,NA,NA,NA,NA,NA,NA,NA,NA,NA,NA,NA,NA,NA,NA,NA,NA,NA,NA
a10c2,task,flow.Sequence,3_0_3_0_4,NA,NA,completion,10099.06,479243,479235.24,479251.9,489350.96,489355,2023-10-27T14:30:26Z,489367.6,NULL,Sympathie,mapendano,s,dhamiria,fungamano,maazimio,NA,qt,NA,3,NA,NA,NA,NA,NA,NA,NA,NA,NA,NA,NA,NA,NA,NA,NA,NA,NA,NA,NA
a10c2,deep,flow.Sequence,3_0_3_0_5_0,NA,NA,skipped,NA,489355,NA,NA,489350.96,489355,2023-10-27T14:30:26Z,489367.6,NULL,Kultur,utamaduni,s,shetani,gerezani,mazingira,NA,qt,NA,3,NA,NA,NA,NA,NA,NA,NA,NA,NA,NA,NA,NA,NA,NA,NA,NA,NA,NA,NA
a10c2,Shallow Question,html.Page,3_0_3_0_5_1_0,NA,NA,form submission,6681.4,489355,489350.96,489367.6,496049,496050,2023-10-27T14:30:33Z,496051.12,NULL,Kultur,utamaduni,s,shetani,gerezani,mazingira,utamaduni,NA,NA,3,NA,NA,NA,NA,NA,NA,NA,NA,NA,NA,NA,NA,NA,NA,NA,NA,NA,NA,NA
a10c2,"""Richtig""-Screen",canvas.Screen,3_0_3_0_5_1_1,NA,NA,timeout,4998.68,496056,496043.36,496051.12,501033.14,501036,2023-10-27T14:30:38Z,501049.8,NULL,Kultur,utamaduni,s,shetani,gerezani,mazingira,NA,qt,1,3,NA,NA,NA,NA,NA,NA,NA,NA,NA,NA,NA,NA,NA,NA,NA,NA,NA,NA,NA
a10c2,"""Falsch""-Screen",canvas.Screen,3_0_3_0_5_1_2,NA,NA,skipped,NA,501041,NA,NA,501033.14,501041,2023-10-27T14:30:38Z,501049.8,NULL,Kultur,utamaduni,s,shetani,gerezani,mazingira,NA,qt,NA,3,NA,NA,NA,NA,NA,NA,NA,NA,NA,NA,NA,NA,NA,NA,NA,NA,NA,NA,NA
a10c2,shallow,flow.Sequence,3_0_3_0_5_1,NA,NA,completion,11665.54,489355,489350.96,489367.6,501033.14,501041,2023-10-27T14:30:38Z,501049.8,NULL,Kultur,utamaduni,s,shetani,gerezani,mazingira,NA,qt,NA,3,NA,NA,NA,NA,NA,NA,NA,NA,NA,NA,NA,NA,NA,NA,NA,NA,NA,NA,NA
a10c2,task,flow.Sequence,3_0_3_0_5,NA,NA,completion,11665.54,489355,489350.96,489367.6,501033.14,501041,2023-10-27T14:30:38Z,501049.8,NULL,Kultur,utamaduni,s,shetani,gerezani,mazingira,NA,qt,NA,3,NA,NA,NA,NA,NA,NA,NA,NA,NA,NA,NA,NA,NA,NA,NA,NA,NA,NA,NA
a10c2,Deep Question,html.Page,3_0_3_0_6_0_0,NA,NA,form submission,2471.2,501041,501033.14,501049.8,503521,503521,2023-10-27T14:30:40Z,503532.8,NULL,Prüfung,mtihani,d,NA,NA,NA,hneiel,NA,NA,3,NA,NA,NA,NA,NA,NA,NA,NA,NA,NA,NA,NA,NA,NA,NA,NA,NA,NA,NA
a10c2,"""Richtig""-Screen",canvas.Screen,3_0_3_0_6_0_1,NA,NA,skipped,NA,503524,NA,NA,503521,503524,2023-10-27T14:30:40Z,503532.8,NULL,Prüfung,mtihani,d,NA,NA,NA,NA,qt,NA,3,NA,NA,NA,NA,NA,NA,NA,NA,NA,NA,NA,NA,NA,NA,NA,NA,NA,NA,NA
a10c2,"""Falsch""-Screen",canvas.Screen,3_0_3_0_6_0_2,NA,NA,timeout,4999.04,503528,503519.38,503532.8,508515.2,508518,2023-10-27T14:30:45Z,508531.84,NULL,Prüfung,mtihani,d,NA,NA,NA,NA,qt,0,3,NA,NA,NA,NA,NA,NA,NA,NA,NA,NA,NA,NA,NA,NA,NA,NA,NA,NA,NA
a10c2,deep,flow.Sequence,3_0_3_0_6_0,NA,NA,completion,7465.4,501041,501033.14,501049.8,508515.2,508519,2023-10-27T14:30:45Z,508531.84,NULL,Prüfung,mtihani,d,NA,NA,NA,NA,qt,NA,3,NA,NA,NA,NA,NA,NA,NA,NA,NA,NA,NA,NA,NA,NA,NA,NA,NA,NA,NA
a10c2,shallow,flow.Sequence,3_0_3_0_6_1,NA,NA,skipped,NA,508519,NA,NA,508515.2,508519,2023-10-27T14:30:45Z,508531.84,NULL,Prüfung,mtihani,d,NA,NA,NA,NA,qt,NA,3,NA,NA,NA,NA,NA,NA,NA,NA,NA,NA,NA,NA,NA,NA,NA,NA,NA,NA,NA
a10c2,task,flow.Sequence,3_0_3_0_6,NA,NA,completion,7465.4,501041,501033.14,501049.8,508515.2,508519,2023-10-27T14:30:45Z,508531.84,NULL,Prüfung,mtihani,d,NA,NA,NA,NA,qt,NA,3,NA,NA,NA,NA,NA,NA,NA,NA,NA,NA,NA,NA,NA,NA,NA,NA,NA,NA,NA
a10c2,Deep Question,html.Page,3_0_3_0_7_0_0,NA,NA,form submission,4167.16,508519,508515.2,508531.84,512699,512700,2023-10-27T14:30:49Z,512698.74,NULL,Aufstand,ugomaji,d,NA,NA,NA,ksnimano,NA,NA,3,NA,NA,NA,NA,NA,NA,NA,NA,NA,NA,NA,NA,NA,NA,NA,NA,NA,NA,NA
a10c2,"""Richtig""-Screen",canvas.Screen,3_0_3_0_7_0_1,NA,NA,skipped,NA,512703,NA,NA,512699,512703,2023-10-27T14:30:49Z,512698.74,NULL,Aufstand,ugomaji,d,NA,NA,NA,NA,qt,NA,3,NA,NA,NA,NA,NA,NA,NA,NA,NA,NA,NA,NA,NA,NA,NA,NA,NA,NA,NA
a10c2,"""Falsch""-Screen",canvas.Screen,3_0_3_0_7_0_2,NA,NA,timeout,4998.02,512706,512697.76,512698.74,517680.1,517682,2023-10-27T14:30:54Z,517696.76,NULL,Aufstand,ugomaji,d,NA,NA,NA,NA,qt,0,3,NA,NA,NA,NA,NA,NA,NA,NA,NA,NA,NA,NA,NA,NA,NA,NA,NA,NA,NA
a10c2,deep,flow.Sequence,3_0_3_0_7_0,NA,NA,completion,9148.26,508519,508515.2,508531.84,517680.1,517682,2023-10-27T14:30:54Z,517696.76,NULL,Aufstand,ugomaji,d,NA,NA,NA,NA,qt,NA,3,NA,NA,NA,NA,NA,NA,NA,NA,NA,NA,NA,NA,NA,NA,NA,NA,NA,NA,NA
a10c2,shallow,flow.Sequence,3_0_3_0_7_1,NA,NA,skipped,NA,517682,NA,NA,517680.1,517682,2023-10-27T14:30:54Z,517696.76,NULL,Aufstand,ugomaji,d,NA,NA,NA,NA,qt,NA,3,NA,NA,NA,NA,NA,NA,NA,NA,NA,NA,NA,NA,NA,NA,NA,NA,NA,NA,NA
a10c2,task,flow.Sequence,3_0_3_0_7,NA,NA,completion,9148.26,508519,508515.2,508531.84,517680.1,517683,2023-10-27T14:30:54Z,517696.76,NULL,Aufstand,ugomaji,d,NA,NA,NA,NA,qt,NA,3,NA,NA,NA,NA,NA,NA,NA,NA,NA,NA,NA,NA,NA,NA,NA,NA,NA,NA,NA
a10c2,block,flow.Loop,3_0_3_0,NA,NA,completion,77705.2,439972,439972.3,439974.9,517680.1,517683,2023-10-27T14:30:54Z,517696.76,NULL,NA,NA,NA,NA,NA,NA,NA,qt,NA,3,NA,NA,NA,NA,NA,NA,NA,NA,NA,NA,NA,NA,NA,NA,NA,NA,NA,NA,NA
a10c2,weiter,canvas.Screen,3_0_3_1,sdf,keypress(Space),response,1263.24,517683,517680.1,517696.76,518960,518972,2023-10-27T14:30:56Z,519031.04,NULL,NA,NA,NA,NA,NA,NA,NA,qt,NA,3,NA,NA,NA,NA,NA,NA,NA,NA,NA,NA,NA,NA,NA,NA,NA,NA,NA,NA,NA
a10c2,check continue,flow.Sequence,3_0_3,NA,NA,completion,78985.1,439972,439972.3,439974.9,518960,518972,2023-10-27T14:30:56Z,519031.04,NULL,NA,NA,NA,NA,NA,NA,NA,qt,NA,3,NA,NA,NA,NA,NA,NA,NA,NA,NA,NA,NA,NA,NA,NA,NA,NA,NA,NA,NA
a10c2,Deep Question,html.Page,3_0_4_0_0_0_0,NA,NA,form submission,4797.96,519029,519028.86,519031.04,523829,523830,2023-10-27T14:31:01Z,523831.02,NULL,Prüfung,mtihani,d,NA,NA,NA,usiami,NA,NA,4,NA,NA,NA,NA,NA,NA,NA,NA,NA,NA,NA,NA,NA,NA,NA,NA,NA,NA,NA
a10c2,"""Richtig""-Screen",canvas.Screen,3_0_4_0_0_0_1,NA,NA,skipped,NA,523833,NA,NA,523829,523833,2023-10-27T14:31:01Z,523831.02,NULL,Prüfung,mtihani,d,NA,NA,NA,NA,sd,NA,4,NA,NA,NA,NA,NA,NA,NA,NA,NA,NA,NA,NA,NA,NA,NA,NA,NA,NA,NA
a10c2,"""Falsch""-Screen",canvas.Screen,3_0_4_0_0_0_2,NA,NA,timeout,4998.22,523836,523828.1,523831.02,528812.58,528814,2023-10-27T14:31:06Z,528829.24,NULL,Prüfung,mtihani,d,NA,NA,NA,NA,sd,0,4,NA,NA,NA,NA,NA,NA,NA,NA,NA,NA,NA,NA,NA,NA,NA,NA,NA,NA,NA
a10c2,deep,flow.Sequence,3_0_4_0_0_0,NA,NA,completion,9781.54,519029,519028.86,519031.04,528812.58,528815,2023-10-27T14:31:06Z,528829.24,NULL,Prüfung,mtihani,d,NA,NA,NA,NA,sd,NA,4,NA,NA,NA,NA,NA,NA,NA,NA,NA,NA,NA,NA,NA,NA,NA,NA,NA,NA,NA
a10c2,shallow,flow.Sequence,3_0_4_0_0_1,NA,NA,skipped,NA,528815,NA,NA,528812.58,528815,2023-10-27T14:31:06Z,528829.24,NULL,Prüfung,mtihani,d,NA,NA,NA,NA,sd,NA,4,NA,NA,NA,NA,NA,NA,NA,NA,NA,NA,NA,NA,NA,NA,NA,NA,NA,NA,NA
a10c2,task,flow.Sequence,3_0_4_0_0,NA,NA,completion,9781.54,519029,519028.86,519031.04,528812.58,528815,2023-10-27T14:31:06Z,528829.24,NULL,Prüfung,mtihani,d,NA,NA,NA,NA,sd,NA,4,NA,NA,NA,NA,NA,NA,NA,NA,NA,NA,NA,NA,NA,NA,NA,NA,NA,NA,NA
a10c2,deep,flow.Sequence,3_0_4_0_1_0,NA,NA,skipped,NA,528815,NA,NA,528812.58,528815,2023-10-27T14:31:06Z,528829.24,NULL,Kultur,utamaduni,s,shetani,gerezani,mazingira,NA,sd,NA,4,NA,NA,NA,NA,NA,NA,NA,NA,NA,NA,NA,NA,NA,NA,NA,NA,NA,NA,NA
a10c2,Shallow Question,html.Page,3_0_4_0_1_1_0,NA,NA,form submission,5932.76,528815,528812.58,528829.24,534762,534762,2023-10-27T14:31:12Z,534761.98,NULL,Kultur,utamaduni,s,shetani,gerezani,mazingira,utamaduni,NA,NA,4,NA,NA,NA,NA,NA,NA,NA,NA,NA,NA,NA,NA,NA,NA,NA,NA,NA,NA,NA
a10c2,"""Richtig""-Screen",canvas.Screen,3_0_4_0_1_1_1,NA,NA,timeout,4998.8200000001,534764,534759.36,534761.98,539744.16,539746,2023-10-27T14:31:17Z,539760.8,NULL,Kultur,utamaduni,s,shetani,gerezani,mazingira,NA,sd,1,4,NA,NA,NA,NA,NA,NA,NA,NA,NA,NA,NA,NA,NA,NA,NA,NA,NA,NA,NA
a10c2,"""Falsch""-Screen",canvas.Screen,3_0_4_0_1_1_2,NA,NA,skipped,NA,539750,NA,NA,539744.16,539750,2023-10-27T14:31:17Z,539760.8,NULL,Kultur,utamaduni,s,shetani,gerezani,mazingira,NA,sd,NA,4,NA,NA,NA,NA,NA,NA,NA,NA,NA,NA,NA,NA,NA,NA,NA,NA,NA,NA,NA
a10c2,shallow,flow.Sequence,3_0_4_0_1_1,NA,NA,completion,10914.92,528815,528812.58,528829.24,539744.16,539750,2023-10-27T14:31:17Z,539760.8,NULL,Kultur,utamaduni,s,shetani,gerezani,mazingira,NA,sd,NA,4,NA,NA,NA,NA,NA,NA,NA,NA,NA,NA,NA,NA,NA,NA,NA,NA,NA,NA,NA
a10c2,task,flow.Sequence,3_0_4_0_1,NA,NA,completion,10914.92,528815,528812.58,528829.24,539744.16,539750,2023-10-27T14:31:17Z,539760.8,NULL,Kultur,utamaduni,s,shetani,gerezani,mazingira,NA,sd,NA,4,NA,NA,NA,NA,NA,NA,NA,NA,NA,NA,NA,NA,NA,NA,NA,NA,NA,NA,NA
a10c2,Deep Question,html.Page,3_0_4_0_2_0_0,NA,NA,form submission,2203.2,539751,539744.16,539760.8,541964,541964,2023-10-27T14:31:19Z,541978.1,NULL,Aufstand,ugomaji,d,NA,NA,NA,keim,NA,NA,4,NA,NA,NA,NA,NA,NA,NA,NA,NA,NA,NA,NA,NA,NA,NA,NA,NA,NA,NA
a10c2,"""Richtig""-Screen",canvas.Screen,3_0_4_0_2_0_1,NA,NA,skipped,NA,541967,NA,NA,541964,541967,2023-10-27T14:31:19Z,541978.1,NULL,Aufstand,ugomaji,d,NA,NA,NA,NA,sd,NA,4,NA,NA,NA,NA,NA,NA,NA,NA,NA,NA,NA,NA,NA,NA,NA,NA,NA,NA,NA
a10c2,"""Falsch""-Screen",canvas.Screen,3_0_4_0_2_0_2,NA,NA,timeout,4998.3200000001,541970,541963.14,541978.1,546959.76,546963,2023-10-27T14:31:24Z,546976.42,NULL,Aufstand,ugomaji,d,NA,NA,NA,NA,sd,0,4,NA,NA,NA,NA,NA,NA,NA,NA,NA,NA,NA,NA,NA,NA,NA,NA,NA,NA,NA
a10c2,deep,flow.Sequence,3_0_4_0_2_0,NA,NA,completion,7198.96,539751,539744.16,539760.8,546959.76,546963,2023-10-27T14:31:24Z,546976.42,NULL,Aufstand,ugomaji,d,NA,NA,NA,NA,sd,NA,4,NA,NA,NA,NA,NA,NA,NA,NA,NA,NA,NA,NA,NA,NA,NA,NA,NA,NA,NA
a10c2,shallow,flow.Sequence,3_0_4_0_2_1,NA,NA,skipped,NA,546963,NA,NA,546959.76,546963,2023-10-27T14:31:24Z,546976.42,NULL,Aufstand,ugomaji,d,NA,NA,NA,NA,sd,NA,4,NA,NA,NA,NA,NA,NA,NA,NA,NA,NA,NA,NA,NA,NA,NA,NA,NA,NA,NA
a10c2,task,flow.Sequence,3_0_4_0_2,NA,NA,completion,7198.96,539751,539744.16,539760.8,546959.76,546963,2023-10-27T14:31:24Z,546976.42,NULL,Aufstand,ugomaji,d,NA,NA,NA,NA,sd,NA,4,NA,NA,NA,NA,NA,NA,NA,NA,NA,NA,NA,NA,NA,NA,NA,NA,NA,NA,NA
a10c2,Deep Question,html.Page,3_0_4_0_3_0_0,NA,NA,form submission,2762.58,546964,546959.76,546976.42,549739,549739,2023-10-27T14:31:27Z,549742.88,NULL,Beweis,ushahidi,d,NA,NA,NA,heuun,NA,NA,4,NA,NA,NA,NA,NA,NA,NA,NA,NA,NA,NA,NA,NA,NA,NA,NA,NA,NA,NA
a10c2,"""Richtig""-Screen",canvas.Screen,3_0_4_0_3_0_1,NA,NA,skipped,NA,549740,NA,NA,549739,549740,2023-10-27T14:31:27Z,549742.88,NULL,Beweis,ushahidi,d,NA,NA,NA,NA,sd,NA,4,NA,NA,NA,NA,NA,NA,NA,NA,NA,NA,NA,NA,NA,NA,NA,NA,NA,NA,NA
a10c2,"""Falsch""-Screen",canvas.Screen,3_0_4_0_3_0_2,NA,NA,timeout,4999.6800000001,549741,549738.06,549742.88,554725.9,554728,2023-10-27T14:31:32Z,554742.56,NULL,Beweis,ushahidi,d,NA,NA,NA,NA,sd,0,4,NA,NA,NA,NA,NA,NA,NA,NA,NA,NA,NA,NA,NA,NA,NA,NA,NA,NA,NA
a10c2,deep,flow.Sequence,3_0_4_0_3_0,NA,NA,completion,7749.48,546964,546959.76,546976.42,554725.9,554728,2023-10-27T14:31:32Z,554742.56,NULL,Beweis,ushahidi,d,NA,NA,NA,NA,sd,NA,4,NA,NA,NA,NA,NA,NA,NA,NA,NA,NA,NA,NA,NA,NA,NA,NA,NA,NA,NA
a10c2,shallow,flow.Sequence,3_0_4_0_3_1,NA,NA,skipped,NA,554728,NA,NA,554725.9,554728,2023-10-27T14:31:32Z,554742.56,NULL,Beweis,ushahidi,d,NA,NA,NA,NA,sd,NA,4,NA,NA,NA,NA,NA,NA,NA,NA,NA,NA,NA,NA,NA,NA,NA,NA,NA,NA,NA
a10c2,task,flow.Sequence,3_0_4_0_3,NA,NA,completion,7749.48,546963,546959.76,546976.42,554725.9,554729,2023-10-27T14:31:32Z,554742.56,NULL,Beweis,ushahidi,d,NA,NA,NA,NA,sd,NA,4,NA,NA,NA,NA,NA,NA,NA,NA,NA,NA,NA,NA,NA,NA,NA,NA,NA,NA,NA
a10c2,deep,flow.Sequence,3_0_4_0_4_0,NA,NA,skipped,NA,554729,NA,NA,554725.9,554729,2023-10-27T14:31:32Z,554742.56,NULL,Sympathie,mapendano,s,dhamiria,fungamano,maazimio,NA,sd,NA,4,NA,NA,NA,NA,NA,NA,NA,NA,NA,NA,NA,NA,NA,NA,NA,NA,NA,NA,NA
a10c2,Shallow Question,html.Page,3_0_4_0_4_1_0,NA,NA,form submission,6348.4399999999,554729,554725.9,554742.56,561091,561093,2023-10-27T14:31:38Z,561091.28,NULL,Sympathie,mapendano,s,dhamiria,fungamano,maazimio,mapendano,NA,NA,4,NA,NA,NA,NA,NA,NA,NA,NA,NA,NA,NA,NA,NA,NA,NA,NA,NA,NA,NA
a10c2,"""Richtig""-Screen",canvas.Screen,3_0_4_0_4_1_1,NA,NA,timeout,5000,561103,561084.3,561091.28,566074.64,566076,2023-10-27T14:31:43Z,566091.28,NULL,Sympathie,mapendano,s,dhamiria,fungamano,maazimio,NA,sd,1,4,NA,NA,NA,NA,NA,NA,NA,NA,NA,NA,NA,NA,NA,NA,NA,NA,NA,NA,NA
a10c2,"""Falsch""-Screen",canvas.Screen,3_0_4_0_4_1_2,NA,NA,skipped,NA,566080,NA,NA,566074.64,566080,2023-10-27T14:31:43Z,566091.28,NULL,Sympathie,mapendano,s,dhamiria,fungamano,maazimio,NA,sd,NA,4,NA,NA,NA,NA,NA,NA,NA,NA,NA,NA,NA,NA,NA,NA,NA,NA,NA,NA,NA
a10c2,shallow,flow.Sequence,3_0_4_0_4_1,NA,NA,completion,11332.08,554729,554725.9,554742.56,566074.64,566081,2023-10-27T14:31:43Z,566091.28,NULL,Sympathie,mapendano,s,dhamiria,fungamano,maazimio,NA,sd,NA,4,NA,NA,NA,NA,NA,NA,NA,NA,NA,NA,NA,NA,NA,NA,NA,NA,NA,NA,NA
a10c2,task,flow.Sequence,3_0_4_0_4,NA,NA,completion,11332.08,554729,554725.9,554742.56,566074.64,566082,2023-10-27T14:31:43Z,566091.28,NULL,Sympathie,mapendano,s,dhamiria,fungamano,maazimio,NA,sd,NA,4,NA,NA,NA,NA,NA,NA,NA,NA,NA,NA,NA,NA,NA,NA,NA,NA,NA,NA,NA
a10c2,deep,flow.Sequence,3_0_4_0_5_0,NA,NA,skipped,NA,566082,NA,NA,566074.64,566082,2023-10-27T14:31:43Z,566091.28,NULL,Annäherung,maegesho,s,madahili,kujiamini,mapendekezo,NA,sd,NA,4,NA,NA,NA,NA,NA,NA,NA,NA,NA,NA,NA,NA,NA,NA,NA,NA,NA,NA,NA
a10c2,Shallow Question,html.Page,3_0_4_0_5_1_0,NA,NA,form submission,9892.72,566082,566074.64,566091.28,575984,575985,2023-10-27T14:31:53Z,575991,NULL,Annäherung,maegesho,s,madahili,kujiamini,mapendekezo,madahili,NA,NA,4,NA,NA,NA,NA,NA,NA,NA,NA,NA,NA,NA,NA,NA,NA,NA,NA,NA,NA,NA
a10c2,"""Richtig""-Screen",canvas.Screen,3_0_4_0_5_1_1,NA,NA,skipped,NA,575991,NA,NA,575984,575992,2023-10-27T14:31:53Z,575991,NULL,Annäherung,maegesho,s,madahili,kujiamini,mapendekezo,NA,sd,NA,4,NA,NA,NA,NA,NA,NA,NA,NA,NA,NA,NA,NA,NA,NA,NA,NA,NA,NA,NA
a10c2,"""Falsch""-Screen",canvas.Screen,3_0_4_0_5_1_2,NA,NA,timeout,4998.48,575997,575978.7,575991,580972.82,580975,2023-10-27T14:31:58Z,580989.48,NULL,Annäherung,maegesho,s,madahili,kujiamini,mapendekezo,NA,sd,0,4,NA,NA,NA,NA,NA,NA,NA,NA,NA,NA,NA,NA,NA,NA,NA,NA,NA,NA,NA
a10c2,shallow,flow.Sequence,3_0_4_0_5_1,NA,NA,completion,14881.54,566082,566074.64,566091.28,580972.82,580976,2023-10-27T14:31:58Z,580989.48,NULL,Annäherung,maegesho,s,madahili,kujiamini,mapendekezo,NA,sd,NA,4,NA,NA,NA,NA,NA,NA,NA,NA,NA,NA,NA,NA,NA,NA,NA,NA,NA,NA,NA
a10c2,task,flow.Sequence,3_0_4_0_5,NA,NA,completion,14881.54,566082,566074.64,566091.28,580972.82,580976,2023-10-27T14:31:58Z,580989.48,NULL,Annäherung,maegesho,s,madahili,kujiamini,mapendekezo,NA,sd,NA,4,NA,NA,NA,NA,NA,NA,NA,NA,NA,NA,NA,NA,NA,NA,NA,NA,NA,NA,NA
a10c2,Deep Question,html.Page,3_0_4_0_6_0_0,NA,NA,form submission,3772.52,580977,580972.82,580989.48,584762,584762,2023-10-27T14:32:02Z,584772.92,NULL,Polizist,msongora,d,NA,NA,NA,msongora,NA,NA,4,NA,NA,NA,NA,NA,NA,NA,NA,NA,NA,NA,NA,NA,NA,NA,NA,NA,NA,NA
a10c2,"""Richtig""-Screen",canvas.Screen,3_0_4_0_6_0_1,NA,NA,timeout,4998.24,584764,584761.56,584772.92,589754.5,589757,2023-10-27T14:32:07Z,589771.16,NULL,Polizist,msongora,d,NA,NA,NA,NA,sd,1,4,NA,NA,NA,NA,NA,NA,NA,NA,NA,NA,NA,NA,NA,NA,NA,NA,NA,NA,NA
a10c2,"""Falsch""-Screen",canvas.Screen,3_0_4_0_6_0_2,NA,NA,skipped,NA,589765,NA,NA,589754.5,589765,2023-10-27T14:32:07Z,589771.16,NULL,Polizist,msongora,d,NA,NA,NA,NA,sd,NA,4,NA,NA,NA,NA,NA,NA,NA,NA,NA,NA,NA,NA,NA,NA,NA,NA,NA,NA,NA
a10c2,deep,flow.Sequence,3_0_4_0_6_0,NA,NA,completion,8765.02,580977,580972.82,580989.48,589754.5,589766,2023-10-27T14:32:07Z,589771.16,NULL,Polizist,msongora,d,NA,NA,NA,NA,sd,NA,4,NA,NA,NA,NA,NA,NA,NA,NA,NA,NA,NA,NA,NA,NA,NA,NA,NA,NA,NA
a10c2,shallow,flow.Sequence,3_0_4_0_6_1,NA,NA,skipped,NA,589766,NA,NA,589754.5,589766,2023-10-27T14:32:07Z,589771.16,NULL,Polizist,msongora,d,NA,NA,NA,NA,sd,NA,4,NA,NA,NA,NA,NA,NA,NA,NA,NA,NA,NA,NA,NA,NA,NA,NA,NA,NA,NA
a10c2,task,flow.Sequence,3_0_4_0_6,NA,NA,completion,8765.02,580977,580972.82,580989.48,589754.5,589767,2023-10-27T14:32:07Z,589771.16,NULL,Polizist,msongora,d,NA,NA,NA,NA,sd,NA,4,NA,NA,NA,NA,NA,NA,NA,NA,NA,NA,NA,NA,NA,NA,NA,NA,NA,NA,NA
a10c2,deep,flow.Sequence,3_0_4_0_7_0,NA,NA,skipped,NA,589768,NA,NA,589754.5,589769,2023-10-27T14:32:07Z,589771.16,NULL,Verzögerung,kuchelewa,s,mwakilishi,mwanauchumi,jaribio,NA,sd,NA,4,NA,NA,NA,NA,NA,NA,NA,NA,NA,NA,NA,NA,NA,NA,NA,NA,NA,NA,NA
a10c2,Shallow Question,html.Page,3_0_4_0_7_1_0,NA,NA,form submission,4499.84,589769,589754.5,589771.16,594271,594271,2023-10-27T14:32:11Z,594271.76,NULL,Verzögerung,kuchelewa,s,mwakilishi,mwanauchumi,jaribio,kuchelewa,NA,NA,4,NA,NA,NA,NA,NA,NA,NA,NA,NA,NA,NA,NA,NA,NA,NA,NA,NA,NA,NA
a10c2,"""Richtig""-Screen",canvas.Screen,3_0_4_0_7_1_1,NA,NA,timeout,4999.42,594273,594269,594271.76,599254.52,599256,2023-10-27T14:32:16Z,599271.18,NULL,Verzögerung,kuchelewa,s,mwakilishi,mwanauchumi,jaribio,NA,sd,1,4,NA,NA,NA,NA,NA,NA,NA,NA,NA,NA,NA,NA,NA,NA,NA,NA,NA,NA,NA
a10c2,"""Falsch""-Screen",canvas.Screen,3_0_4_0_7_1_2,NA,NA,skipped,NA,599258,NA,NA,599254.52,599258,2023-10-27T14:32:16Z,599271.18,NULL,Verzögerung,kuchelewa,s,mwakilishi,mwanauchumi,jaribio,NA,sd,NA,4,NA,NA,NA,NA,NA,NA,NA,NA,NA,NA,NA,NA,NA,NA,NA,NA,NA,NA,NA
a10c2,shallow,flow.Sequence,3_0_4_0_7_1,NA,NA,completion,9483.36,589769,589754.5,589771.16,599254.52,599259,2023-10-27T14:32:16Z,599271.18,NULL,Verzögerung,kuchelewa,s,mwakilishi,mwanauchumi,jaribio,NA,sd,NA,4,NA,NA,NA,NA,NA,NA,NA,NA,NA,NA,NA,NA,NA,NA,NA,NA,NA,NA,NA
a10c2,task,flow.Sequence,3_0_4_0_7,NA,NA,completion,9483.36,589768,589754.5,589771.16,599254.52,599259,2023-10-27T14:32:16Z,599271.18,NULL,Verzögerung,kuchelewa,s,mwakilishi,mwanauchumi,jaribio,NA,sd,NA,4,NA,NA,NA,NA,NA,NA,NA,NA,NA,NA,NA,NA,NA,NA,NA,NA,NA,NA,NA
a10c2,block,flow.Loop,3_0_4_0,NA,NA,completion,80223.48,519029,519028.86,519031.04,599254.52,599259,2023-10-27T14:32:16Z,599271.18,NULL,NA,NA,NA,NA,NA,NA,NA,sd,NA,4,NA,NA,NA,NA,NA,NA,NA,NA,NA,NA,NA,NA,NA,NA,NA,NA,NA,NA,NA
a10c2,weiter,canvas.Screen,3_0_4_1,sdf,keypress(Space),response,860.81999999995,599259,599254.52,599271.18,600132,600147,2023-10-27T14:32:17Z,600203.84,NULL,NA,NA,NA,NA,NA,NA,NA,sd,NA,4,NA,NA,NA,NA,NA,NA,NA,NA,NA,NA,NA,NA,NA,NA,NA,NA,NA,NA,NA
a10c2,check continue,flow.Sequence,3_0_4,NA,NA,completion,81100.96,519029,519028.86,519031.04,600132,600147,2023-10-27T14:32:17Z,600203.84,NULL,NA,NA,NA,NA,NA,NA,NA,sd,NA,4,NA,NA,NA,NA,NA,NA,NA,NA,NA,NA,NA,NA,NA,NA,NA,NA,NA,NA,NA
a10c2,deep,flow.Sequence,3_0_5_0_0_0,NA,NA,skipped,NA,600201,NA,NA,600132,600201,2023-10-27T14:32:17Z,600203.84,NULL,Sympathie,mapendano,s,dhamiria,fungamano,maazimio,NA,sdf,NA,5,NA,NA,NA,NA,NA,NA,NA,NA,NA,NA,NA,NA,NA,NA,NA,NA,NA,NA,NA
a10c2,Shallow Question,html.Page,3_0_5_0_0_1_0,NA,NA,form submission,3601.16,600201,600201.4,600203.84,603805,603806,2023-10-27T14:32:21Z,603802.98,NULL,Sympathie,mapendano,s,dhamiria,fungamano,maazimio,mapendano,NA,NA,5,NA,NA,NA,NA,NA,NA,NA,NA,NA,NA,NA,NA,NA,NA,NA,NA,NA,NA,NA
a10c2,"""Richtig""-Screen",canvas.Screen,3_0_5_0_0_1_1,NA,NA,timeout,4999.62,603808,603802.44,603802.98,608785.96,608787,2023-10-27T14:32:26Z,608802.6,NULL,Sympathie,mapendano,s,dhamiria,fungamano,maazimio,NA,sdf,1,5,NA,NA,NA,NA,NA,NA,NA,NA,NA,NA,NA,NA,NA,NA,NA,NA,NA,NA,NA
a10c2,"""Falsch""-Screen",canvas.Screen,3_0_5_0_0_1_2,NA,NA,skipped,NA,608791,NA,NA,608785.96,608792,2023-10-27T14:32:26Z,608802.6,NULL,Sympathie,mapendano,s,dhamiria,fungamano,maazimio,NA,sdf,NA,5,NA,NA,NA,NA,NA,NA,NA,NA,NA,NA,NA,NA,NA,NA,NA,NA,NA,NA,NA
a10c2,shallow,flow.Sequence,3_0_5_0_0_1,NA,NA,completion,8582.12,600201,600201.4,600203.84,608785.96,608792,2023-10-27T14:32:26Z,608802.6,NULL,Sympathie,mapendano,s,dhamiria,fungamano,maazimio,NA,sdf,NA,5,NA,NA,NA,NA,NA,NA,NA,NA,NA,NA,NA,NA,NA,NA,NA,NA,NA,NA,NA
a10c2,task,flow.Sequence,3_0_5_0_0,NA,NA,completion,8582.12,600201,600201.4,600203.84,608785.96,608792,2023-10-27T14:32:26Z,608802.6,NULL,Sympathie,mapendano,s,dhamiria,fungamano,maazimio,NA,sdf,NA,5,NA,NA,NA,NA,NA,NA,NA,NA,NA,NA,NA,NA,NA,NA,NA,NA,NA,NA,NA
a10c2,Deep Question,html.Page,3_0_5_0_1_0_0,NA,NA,form submission,3838.4,608792,608785.96,608802.6,612641,612641,2023-10-27T14:32:29Z,612651.36,NULL,Beweis,ushahidi,d,NA,NA,NA,hmueo,NA,NA,5,NA,NA,NA,NA,NA,NA,NA,NA,NA,NA,NA,NA,NA,NA,NA,NA,NA,NA,NA
a10c2,"""Richtig""-Screen",canvas.Screen,3_0_5_0_1_0_1,NA,NA,skipped,NA,612644,NA,NA,612641,612644,2023-10-27T14:32:29Z,612651.36,NULL,Beweis,ushahidi,d,NA,NA,NA,NA,sdf,NA,5,NA,NA,NA,NA,NA,NA,NA,NA,NA,NA,NA,NA,NA,NA,NA,NA,NA,NA,NA
a10c2,"""Falsch""-Screen",canvas.Screen,3_0_5_0_1_0_2,NA,NA,timeout,5000.42,612646,612640.1,612651.36,617635.12,617637,2023-10-27T14:32:34Z,617651.78,NULL,Beweis,ushahidi,d,NA,NA,NA,NA,sdf,0,5,NA,NA,NA,NA,NA,NA,NA,NA,NA,NA,NA,NA,NA,NA,NA,NA,NA,NA,NA
a10c2,deep,flow.Sequence,3_0_5_0_1_0,NA,NA,completion,8832.52,608792,608785.96,608802.6,617635.12,617637,2023-10-27T14:32:34Z,617651.78,NULL,Beweis,ushahidi,d,NA,NA,NA,NA,sdf,NA,5,NA,NA,NA,NA,NA,NA,NA,NA,NA,NA,NA,NA,NA,NA,NA,NA,NA,NA,NA
a10c2,shallow,flow.Sequence,3_0_5_0_1_1,NA,NA,skipped,NA,617638,NA,NA,617635.12,617638,2023-10-27T14:32:34Z,617651.78,NULL,Beweis,ushahidi,d,NA,NA,NA,NA,sdf,NA,5,NA,NA,NA,NA,NA,NA,NA,NA,NA,NA,NA,NA,NA,NA,NA,NA,NA,NA,NA
a10c2,task,flow.Sequence,3_0_5_0_1,NA,NA,completion,8832.52,608792,608785.96,608802.6,617635.12,617638,2023-10-27T14:32:34Z,617651.78,NULL,Beweis,ushahidi,d,NA,NA,NA,NA,sdf,NA,5,NA,NA,NA,NA,NA,NA,NA,NA,NA,NA,NA,NA,NA,NA,NA,NA,NA,NA,NA
a10c2,Deep Question,html.Page,3_0_5_0_2_0_0,NA,NA,form submission,4340.22,617639,617635.12,617651.78,621992,621993,2023-10-27T14:32:39Z,622001.28,NULL,Polizist,msongora,d,NA,NA,NA,msongora,NA,NA,5,NA,NA,NA,NA,NA,NA,NA,NA,NA,NA,NA,NA,NA,NA,NA,NA,NA,NA,NA
a10c2,"""Richtig""-Screen",canvas.Screen,3_0_5_0_2_0_1,NA,NA,timeout,4999.3199999999,621995,621991.3,622001.28,626983.96,626985,2023-10-27T14:32:44Z,627000.6,NULL,Polizist,msongora,d,NA,NA,NA,NA,sdf,1,5,NA,NA,NA,NA,NA,NA,NA,NA,NA,NA,NA,NA,NA,NA,NA,NA,NA,NA,NA
a10c2,"""Falsch""-Screen",canvas.Screen,3_0_5_0_2_0_2,NA,NA,skipped,NA,626987,NA,NA,626983.96,626988,2023-10-27T14:32:44Z,627000.6,NULL,Polizist,msongora,d,NA,NA,NA,NA,sdf,NA,5,NA,NA,NA,NA,NA,NA,NA,NA,NA,NA,NA,NA,NA,NA,NA,NA,NA,NA,NA
a10c2,deep,flow.Sequence,3_0_5_0_2_0,NA,NA,completion,9332.1799999999,617639,617635.12,617651.78,626983.96,626988,2023-10-27T14:32:44Z,627000.6,NULL,Polizist,msongora,d,NA,NA,NA,NA,sdf,NA,5,NA,NA,NA,NA,NA,NA,NA,NA,NA,NA,NA,NA,NA,NA,NA,NA,NA,NA,NA
a10c2,shallow,flow.Sequence,3_0_5_0_2_1,NA,NA,skipped,NA,626988,NA,NA,626983.96,626988,2023-10-27T14:32:44Z,627000.6,NULL,Polizist,msongora,d,NA,NA,NA,NA,sdf,NA,5,NA,NA,NA,NA,NA,NA,NA,NA,NA,NA,NA,NA,NA,NA,NA,NA,NA,NA,NA
a10c2,task,flow.Sequence,3_0_5_0_2,NA,NA,completion,9332.1799999999,617639,617635.12,617651.78,626983.96,626988,2023-10-27T14:32:44Z,627000.6,NULL,Polizist,msongora,d,NA,NA,NA,NA,sdf,NA,5,NA,NA,NA,NA,NA,NA,NA,NA,NA,NA,NA,NA,NA,NA,NA,NA,NA,NA,NA
a10c2,deep,flow.Sequence,3_0_5_0_3_0,NA,NA,skipped,NA,626989,NA,NA,626983.96,626989,2023-10-27T14:32:44Z,627000.6,NULL,Kultur,utamaduni,s,shetani,gerezani,mazingira,NA,sdf,NA,5,NA,NA,NA,NA,NA,NA,NA,NA,NA,NA,NA,NA,NA,NA,NA,NA,NA,NA,NA
a10c2,Shallow Question,html.Page,3_0_5_0_3_1_0,NA,NA,form submission,5445.4,626989,626983.96,627000.6,632446,632448,2023-10-27T14:32:49Z,632449.48,NULL,Kultur,utamaduni,s,shetani,gerezani,mazingira,utamaduni,NA,NA,5,NA,NA,NA,NA,NA,NA,NA,NA,NA,NA,NA,NA,NA,NA,NA,NA,NA,NA,NA
a10c2,"""Richtig""-Screen",canvas.Screen,3_0_5_0_3_1_1,NA,NA,timeout,4998.72,632453,632442.58,632449.48,637431.54,637437,2023-10-27T14:32:54Z,637448.2,NULL,Kultur,utamaduni,s,shetani,gerezani,mazingira,NA,sdf,1,5,NA,NA,NA,NA,NA,NA,NA,NA,NA,NA,NA,NA,NA,NA,NA,NA,NA,NA,NA
a10c2,"""Falsch""-Screen",canvas.Screen,3_0_5_0_3_1_2,NA,NA,skipped,NA,637447,NA,NA,637431.54,637447,2023-10-27T14:32:54Z,637448.2,NULL,Kultur,utamaduni,s,shetani,gerezani,mazingira,NA,sdf,NA,5,NA,NA,NA,NA,NA,NA,NA,NA,NA,NA,NA,NA,NA,NA,NA,NA,NA,NA,NA
a10c2,shallow,flow.Sequence,3_0_5_0_3_1,NA,NA,completion,10430.94,626989,626983.96,627000.6,637431.54,637448,2023-10-27T14:32:54Z,637448.2,NULL,Kultur,utamaduni,s,shetani,gerezani,mazingira,NA,sdf,NA,5,NA,NA,NA,NA,NA,NA,NA,NA,NA,NA,NA,NA,NA,NA,NA,NA,NA,NA,NA
a10c2,task,flow.Sequence,3_0_5_0_3,NA,NA,completion,10430.94,626988,626983.96,627000.6,637431.54,637448,2023-10-27T14:32:54Z,637448.2,NULL,Kultur,utamaduni,s,shetani,gerezani,mazingira,NA,sdf,NA,5,NA,NA,NA,NA,NA,NA,NA,NA,NA,NA,NA,NA,NA,NA,NA,NA,NA,NA,NA
a10c2,Deep Question,html.Page,3_0_5_0_4_0_0,NA,NA,form submission,3092.8,637449,637431.54,637448.2,640541,640541,2023-10-27T14:32:57Z,640547.8,NULL,Aufstand,ugomaji,d,NA,NA,NA,hemael,NA,NA,5,NA,NA,NA,NA,NA,NA,NA,NA,NA,NA,NA,NA,NA,NA,NA,NA,NA,NA,NA
a10c2,"""Richtig""-Screen",canvas.Screen,3_0_5_0_4_0_1,NA,NA,skipped,NA,640544,NA,NA,640541,640544,2023-10-27T14:32:57Z,640547.8,NULL,Aufstand,ugomaji,d,NA,NA,NA,NA,sdf,NA,5,NA,NA,NA,NA,NA,NA,NA,NA,NA,NA,NA,NA,NA,NA,NA,NA,NA,NA,NA
a10c2,"""Falsch""-Screen",canvas.Screen,3_0_5_0_4_0_2,NA,NA,timeout,4999.74,640547,640538.9,640547.8,645530.88,645534,2023-10-27T14:33:02Z,645547.54,NULL,Aufstand,ugomaji,d,NA,NA,NA,NA,sdf,0,5,NA,NA,NA,NA,NA,NA,NA,NA,NA,NA,NA,NA,NA,NA,NA,NA,NA,NA,NA
a10c2,deep,flow.Sequence,3_0_5_0_4_0,NA,NA,completion,8082.6800000001,637449,637431.54,637448.2,645530.88,645534,2023-10-27T14:33:02Z,645547.54,NULL,Aufstand,ugomaji,d,NA,NA,NA,NA,sdf,NA,5,NA,NA,NA,NA,NA,NA,NA,NA,NA,NA,NA,NA,NA,NA,NA,NA,NA,NA,NA
a10c2,shallow,flow.Sequence,3_0_5_0_4_1,NA,NA,skipped,NA,645534,NA,NA,645530.88,645534,2023-10-27T14:33:02Z,645547.54,NULL,Aufstand,ugomaji,d,NA,NA,NA,NA,sdf,NA,5,NA,NA,NA,NA,NA,NA,NA,NA,NA,NA,NA,NA,NA,NA,NA,NA,NA,NA,NA
a10c2,task,flow.Sequence,3_0_5_0_4,NA,NA,completion,8082.6800000001,637448,637431.54,637448.2,645530.88,645536,2023-10-27T14:33:02Z,645547.54,NULL,Aufstand,ugomaji,d,NA,NA,NA,NA,sdf,NA,5,NA,NA,NA,NA,NA,NA,NA,NA,NA,NA,NA,NA,NA,NA,NA,NA,NA,NA,NA
a10c2,deep,flow.Sequence,3_0_5_0_5_0,NA,NA,skipped,NA,645536,NA,NA,645530.88,645536,2023-10-27T14:33:02Z,645547.54,NULL,Verzögerung,kuchelewa,s,mwakilishi,mwanauchumi,jaribio,NA,sdf,NA,5,NA,NA,NA,NA,NA,NA,NA,NA,NA,NA,NA,NA,NA,NA,NA,NA,NA,NA,NA
a10c2,Shallow Question,html.Page,3_0_5_0_5_1_0,NA,NA,form submission,5256.46,645536,645530.88,645547.54,650804,650805,2023-10-27T14:33:08Z,650813.74,NULL,Verzögerung,kuchelewa,s,mwakilishi,mwanauchumi,jaribio,kuchelewa,NA,NA,5,NA,NA,NA,NA,NA,NA,NA,NA,NA,NA,NA,NA,NA,NA,NA,NA,NA,NA,NA
a10c2,"""Richtig""-Screen",canvas.Screen,3_0_5_0_5_1_1,NA,NA,timeout,4999.4400000001,650807,650802.02,650813.74,655796.52,655799,2023-10-27T14:33:13Z,655813.18,NULL,Verzögerung,kuchelewa,s,mwakilishi,mwanauchumi,jaribio,NA,sdf,1,5,NA,NA,NA,NA,NA,NA,NA,NA,NA,NA,NA,NA,NA,NA,NA,NA,NA,NA,NA
a10c2,"""Falsch""-Screen",canvas.Screen,3_0_5_0_5_1_2,NA,NA,skipped,NA,655807,NA,NA,655796.52,655808,2023-10-27T14:33:13Z,655813.18,NULL,Verzögerung,kuchelewa,s,mwakilishi,mwanauchumi,jaribio,NA,sdf,NA,5,NA,NA,NA,NA,NA,NA,NA,NA,NA,NA,NA,NA,NA,NA,NA,NA,NA,NA,NA
a10c2,shallow,flow.Sequence,3_0_5_0_5_1,NA,NA,completion,10248.98,645536,645530.88,645547.54,655796.52,655808,2023-10-27T14:33:13Z,655813.18,NULL,Verzögerung,kuchelewa,s,mwakilishi,mwanauchumi,jaribio,NA,sdf,NA,5,NA,NA,NA,NA,NA,NA,NA,NA,NA,NA,NA,NA,NA,NA,NA,NA,NA,NA,NA
a10c2,task,flow.Sequence,3_0_5_0_5,NA,NA,completion,10248.98,645536,645530.88,645547.54,655796.52,655809,2023-10-27T14:33:13Z,655813.18,NULL,Verzögerung,kuchelewa,s,mwakilishi,mwanauchumi,jaribio,NA,sdf,NA,5,NA,NA,NA,NA,NA,NA,NA,NA,NA,NA,NA,NA,NA,NA,NA,NA,NA,NA,NA
a10c2,Deep Question,html.Page,3_0_5_0_6_0_0,NA,NA,form submission,7406.8199999999,655809,655796.52,655813.18,663220,663221,2023-10-27T14:33:20Z,663228.9,NULL,Prüfung,mtihani,d,NA,NA,NA,ushahidi,NA,NA,5,NA,NA,NA,NA,NA,NA,NA,NA,NA,NA,NA,NA,NA,NA,NA,NA,NA,NA,NA
a10c2,"""Richtig""-Screen",canvas.Screen,3_0_5_0_6_0_1,NA,NA,skipped,NA,663223,NA,NA,663220,663223,2023-10-27T14:33:20Z,663228.9,NULL,Prüfung,mtihani,d,NA,NA,NA,NA,sdf,NA,5,NA,NA,NA,NA,NA,NA,NA,NA,NA,NA,NA,NA,NA,NA,NA,NA,NA,NA,NA
a10c2,"""Falsch""-Screen",canvas.Screen,3_0_5_0_6_0_2,NA,NA,timeout,4998.8199999999,663226,663218.02,663228.9,668211.06,668214,2023-10-27T14:33:25Z,668227.72,NULL,Prüfung,mtihani,d,NA,NA,NA,NA,sdf,0,5,NA,NA,NA,NA,NA,NA,NA,NA,NA,NA,NA,NA,NA,NA,NA,NA,NA,NA,NA
a10c2,deep,flow.Sequence,3_0_5_0_6_0,NA,NA,completion,12397.88,655809,655796.52,655813.18,668211.06,668215,2023-10-27T14:33:25Z,668227.72,NULL,Prüfung,mtihani,d,NA,NA,NA,NA,sdf,NA,5,NA,NA,NA,NA,NA,NA,NA,NA,NA,NA,NA,NA,NA,NA,NA,NA,NA,NA,NA
a10c2,shallow,flow.Sequence,3_0_5_0_6_1,NA,NA,skipped,NA,668216,NA,NA,668211.06,668216,2023-10-27T14:33:25Z,668227.72,NULL,Prüfung,mtihani,d,NA,NA,NA,NA,sdf,NA,5,NA,NA,NA,NA,NA,NA,NA,NA,NA,NA,NA,NA,NA,NA,NA,NA,NA,NA,NA
a10c2,task,flow.Sequence,3_0_5_0_6,NA,NA,completion,12397.88,655809,655796.52,655813.18,668211.06,668217,2023-10-27T14:33:25Z,668227.72,NULL,Prüfung,mtihani,d,NA,NA,NA,NA,sdf,NA,5,NA,NA,NA,NA,NA,NA,NA,NA,NA,NA,NA,NA,NA,NA,NA,NA,NA,NA,NA
a10c2,deep,flow.Sequence,3_0_5_0_7_0,NA,NA,skipped,NA,668218,NA,NA,668211.06,668218,2023-10-27T14:33:25Z,668227.72,NULL,Annäherung,maegesho,s,madahili,kujiamini,mapendekezo,NA,sdf,NA,5,NA,NA,NA,NA,NA,NA,NA,NA,NA,NA,NA,NA,NA,NA,NA,NA,NA,NA,NA
a10c2,Shallow Question,html.Page,3_0_5_0_7_1_0,NA,NA,form submission,7744.28,668219,668211.06,668227.72,675972,675972,2023-10-27T14:33:33Z,675977.24,NULL,Annäherung,maegesho,s,madahili,kujiamini,mapendekezo,maegesho,NA,NA,5,NA,NA,NA,NA,NA,NA,NA,NA,NA,NA,NA,NA,NA,NA,NA,NA,NA,NA,NA
a10c2,"""Richtig""-Screen",canvas.Screen,3_0_5_0_7_1_1,NA,NA,timeout,4999.04,675975,675969.62,675977.24,680959.62,680962,2023-10-27T14:33:38Z,680976.28,NULL,Annäherung,maegesho,s,madahili,kujiamini,mapendekezo,NA,sdf,1,5,NA,NA,NA,NA,NA,NA,NA,NA,NA,NA,NA,NA,NA,NA,NA,NA,NA,NA,NA
a10c2,"""Falsch""-Screen",canvas.Screen,3_0_5_0_7_1_2,NA,NA,skipped,NA,680968,NA,NA,680959.62,680968,2023-10-27T14:33:38Z,680976.28,NULL,Annäherung,maegesho,s,madahili,kujiamini,mapendekezo,NA,sdf,NA,5,NA,NA,NA,NA,NA,NA,NA,NA,NA,NA,NA,NA,NA,NA,NA,NA,NA,NA,NA
a10c2,shallow,flow.Sequence,3_0_5_0_7_1,NA,NA,completion,12731.9,668219,668211.06,668227.72,680959.62,680969,2023-10-27T14:33:38Z,680976.28,NULL,Annäherung,maegesho,s,madahili,kujiamini,mapendekezo,NA,sdf,NA,5,NA,NA,NA,NA,NA,NA,NA,NA,NA,NA,NA,NA,NA,NA,NA,NA,NA,NA,NA
a10c2,task,flow.Sequence,3_0_5_0_7,NA,NA,completion,12731.9,668218,668211.06,668227.72,680959.62,680969,2023-10-27T14:33:38Z,680976.28,NULL,Annäherung,maegesho,s,madahili,kujiamini,mapendekezo,NA,sdf,NA,5,NA,NA,NA,NA,NA,NA,NA,NA,NA,NA,NA,NA,NA,NA,NA,NA,NA,NA,NA
a10c2,block,flow.Loop,3_0_5_0,NA,NA,completion,80755.78,600201,600201.4,600203.84,680959.62,680970,2023-10-27T14:33:38Z,680976.28,NULL,NA,NA,NA,NA,NA,NA,NA,sdf,NA,5,NA,NA,NA,NA,NA,NA,NA,NA,NA,NA,NA,NA,NA,NA,NA,NA,NA,NA,NA
a10c2,weiter,canvas.Screen,3_0_5_1,sdf,keypress(Space),response,982.71999999997,680970,680959.62,680976.28,681959,681974,2023-10-27T14:33:39Z,682042.2,NULL,NA,NA,NA,NA,NA,NA,NA,sdf,NA,5,NA,NA,NA,NA,NA,NA,NA,NA,NA,NA,NA,NA,NA,NA,NA,NA,NA,NA,NA
a10c2,check continue,flow.Sequence,3_0_5,NA,NA,completion,81755.16,600201,600201.4,600203.84,681959,681975,2023-10-27T14:33:39Z,682042.2,NULL,NA,NA,NA,NA,NA,NA,NA,sdf,NA,5,NA,NA,NA,NA,NA,NA,NA,NA,NA,NA,NA,NA,NA,NA,NA,NA,NA,NA,NA
a10c2,Deep Question,html.Page,3_0_6_0_0_0_0,NA,NA,form submission,4575.8,682029,682028.64,682042.2,686618,686618,2023-10-27T14:33:43Z,686625.68,NULL,Prüfung,mtihani,d,NA,NA,NA,ushahidi,NA,NA,6,NA,NA,NA,NA,NA,NA,NA,NA,NA,NA,NA,NA,NA,NA,NA,NA,NA,NA,NA
a10c2,"""Richtig""-Screen",canvas.Screen,3_0_6_0_0_0_1,NA,NA,skipped,NA,686620,NA,NA,686618,686620,2023-10-27T14:33:43Z,686625.68,NULL,Prüfung,mtihani,d,NA,NA,NA,NA,dfs,NA,6,NA,NA,NA,NA,NA,NA,NA,NA,NA,NA,NA,NA,NA,NA,NA,NA,NA,NA,NA
a10c2,"""Falsch""-Screen",canvas.Screen,3_0_6_0_0_0_2,NA,NA,timeout,5000.1,686622,686616,686625.68,691609.12,691615,2023-10-27T14:33:48Z,691625.78,NULL,Prüfung,mtihani,d,NA,NA,NA,NA,dfs,0,6,NA,NA,NA,NA,NA,NA,NA,NA,NA,NA,NA,NA,NA,NA,NA,NA,NA,NA,NA
a10c2,deep,flow.Sequence,3_0_6_0_0_0,NA,NA,completion,9566.92,682029,682028.64,682042.2,691609.12,691617,2023-10-27T14:33:48Z,691625.78,NULL,Prüfung,mtihani,d,NA,NA,NA,NA,dfs,NA,6,NA,NA,NA,NA,NA,NA,NA,NA,NA,NA,NA,NA,NA,NA,NA,NA,NA,NA,NA
a10c2,shallow,flow.Sequence,3_0_6_0_0_1,NA,NA,skipped,NA,691619,NA,NA,691609.12,691620,2023-10-27T14:33:48Z,691625.78,NULL,Prüfung,mtihani,d,NA,NA,NA,NA,dfs,NA,6,NA,NA,NA,NA,NA,NA,NA,NA,NA,NA,NA,NA,NA,NA,NA,NA,NA,NA,NA
a10c2,task,flow.Sequence,3_0_6_0_0,NA,NA,completion,9566.92,682029,682028.64,682042.2,691609.12,691621,2023-10-27T14:33:48Z,691625.78,NULL,Prüfung,mtihani,d,NA,NA,NA,NA,dfs,NA,6,NA,NA,NA,NA,NA,NA,NA,NA,NA,NA,NA,NA,NA,NA,NA,NA,NA,NA,NA
a10c2,deep,flow.Sequence,3_0_6_0_1_0,NA,NA,skipped,NA,691621,NA,NA,691609.12,691622,2023-10-27T14:33:48Z,691625.78,NULL,Verzögerung,kuchelewa,s,mwakilishi,mwanauchumi,jaribio,NA,dfs,NA,6,NA,NA,NA,NA,NA,NA,NA,NA,NA,NA,NA,NA,NA,NA,NA,NA,NA,NA,NA
a10c2,Shallow Question,html.Page,3_0_6_0_1_1_0,NA,NA,form submission,3565.22,691622,691609.12,691625.78,695191,695192,2023-10-27T14:33:52Z,695191.58,NULL,Verzögerung,kuchelewa,s,mwakilishi,mwanauchumi,jaribio,kuchelewa,NA,NA,6,NA,NA,NA,NA,NA,NA,NA,NA,NA,NA,NA,NA,NA,NA,NA,NA,NA,NA,NA
a10c2,"""Richtig""-Screen",canvas.Screen,3_0_6_0_1_1_1,NA,NA,timeout,4999.5600000001,695204,695182.7,695191.58,700174.48,700177,2023-10-27T14:33:57Z,700191.14,NULL,Verzögerung,kuchelewa,s,mwakilishi,mwanauchumi,jaribio,NA,dfs,1,6,NA,NA,NA,NA,NA,NA,NA,NA,NA,NA,NA,NA,NA,NA,NA,NA,NA,NA,NA
a10c2,"""Falsch""-Screen",canvas.Screen,3_0_6_0_1_1_2,NA,NA,skipped,NA,700184,NA,NA,700174.48,700185,2023-10-27T14:33:57Z,700191.14,NULL,Verzögerung,kuchelewa,s,mwakilishi,mwanauchumi,jaribio,NA,dfs,NA,6,NA,NA,NA,NA,NA,NA,NA,NA,NA,NA,NA,NA,NA,NA,NA,NA,NA,NA,NA
a10c2,shallow,flow.Sequence,3_0_6_0_1_1,NA,NA,completion,8548.7,691622,691609.12,691625.78,700174.48,700186,2023-10-27T14:33:57Z,700191.14,NULL,Verzögerung,kuchelewa,s,mwakilishi,mwanauchumi,jaribio,NA,dfs,NA,6,NA,NA,NA,NA,NA,NA,NA,NA,NA,NA,NA,NA,NA,NA,NA,NA,NA,NA,NA
a10c2,task,flow.Sequence,3_0_6_0_1,NA,NA,completion,8548.7,691621,691609.12,691625.78,700174.48,700186,2023-10-27T14:33:57Z,700191.14,NULL,Verzögerung,kuchelewa,s,mwakilishi,mwanauchumi,jaribio,NA,dfs,NA,6,NA,NA,NA,NA,NA,NA,NA,NA,NA,NA,NA,NA,NA,NA,NA,NA,NA,NA,NA
a10c2,Deep Question,html.Page,3_0_6_0_2_0_0,NA,NA,form submission,3443.86,700187,700174.48,700191.14,703635,703635,2023-10-27T14:34:00Z,703640.42,NULL,Beweis,ushahidi,d,NA,NA,NA,ushahidi,NA,NA,6,NA,NA,NA,NA,NA,NA,NA,NA,NA,NA,NA,NA,NA,NA,NA,NA,NA,NA,NA
a10c2,"""Richtig""-Screen",canvas.Screen,3_0_6_0_2_0_1,NA,NA,timeout,4999.74,703639,703633.62,703640.42,708623.5,708626,2023-10-27T14:34:05Z,708640.16,NULL,Beweis,ushahidi,d,NA,NA,NA,NA,dfs,1,6,NA,NA,NA,NA,NA,NA,NA,NA,NA,NA,NA,NA,NA,NA,NA,NA,NA,NA,NA
a10c2,"""Falsch""-Screen",canvas.Screen,3_0_6_0_2_0_2,NA,NA,skipped,NA,708632,NA,NA,708623.5,708633,2023-10-27T14:34:05Z,708640.16,NULL,Beweis,ushahidi,d,NA,NA,NA,NA,dfs,NA,6,NA,NA,NA,NA,NA,NA,NA,NA,NA,NA,NA,NA,NA,NA,NA,NA,NA,NA,NA
a10c2,deep,flow.Sequence,3_0_6_0_2_0,NA,NA,completion,8432.36,700187,700174.48,700191.14,708623.5,708633,2023-10-27T14:34:05Z,708640.16,NULL,Beweis,ushahidi,d,NA,NA,NA,NA,dfs,NA,6,NA,NA,NA,NA,NA,NA,NA,NA,NA,NA,NA,NA,NA,NA,NA,NA,NA,NA,NA
a10c2,shallow,flow.Sequence,3_0_6_0_2_1,NA,NA,skipped,NA,708633,NA,NA,708623.5,708633,2023-10-27T14:34:05Z,708640.16,NULL,Beweis,ushahidi,d,NA,NA,NA,NA,dfs,NA,6,NA,NA,NA,NA,NA,NA,NA,NA,NA,NA,NA,NA,NA,NA,NA,NA,NA,NA,NA
a10c2,task,flow.Sequence,3_0_6_0_2,NA,NA,completion,8432.36,700187,700174.48,700191.14,708623.5,708634,2023-10-27T14:34:05Z,708640.16,NULL,Beweis,ushahidi,d,NA,NA,NA,NA,dfs,NA,6,NA,NA,NA,NA,NA,NA,NA,NA,NA,NA,NA,NA,NA,NA,NA,NA,NA,NA,NA
a10c2,deep,flow.Sequence,3_0_6_0_3_0,NA,NA,skipped,NA,708634,NA,NA,708623.5,708636,2023-10-27T14:34:05Z,708640.16,NULL,Sympathie,mapendano,s,dhamiria,fungamano,maazimio,NA,dfs,NA,6,NA,NA,NA,NA,NA,NA,NA,NA,NA,NA,NA,NA,NA,NA,NA,NA,NA,NA,NA
a10c2,Shallow Question,html.Page,3_0_6_0_3_1_0,NA,NA,form submission,4091.84,708636,708623.5,708640.16,712732,712733,2023-10-27T14:34:10Z,712738.8,NULL,Sympathie,mapendano,s,dhamiria,fungamano,maazimio,mapendano,NA,NA,6,NA,NA,NA,NA,NA,NA,NA,NA,NA,NA,NA,NA,NA,NA,NA,NA,NA,NA,NA
a10c2,"""Richtig""-Screen",canvas.Screen,3_0_6_0_3_1_1,NA,NA,timeout,5000.1399999999,712734,712730.68,712738.8,717722.28,717723,2023-10-27T14:34:15Z,717738.94,NULL,Sympathie,mapendano,s,dhamiria,fungamano,maazimio,NA,dfs,1,6,NA,NA,NA,NA,NA,NA,NA,NA,NA,NA,NA,NA,NA,NA,NA,NA,NA,NA,NA
a10c2,"""Falsch""-Screen",canvas.Screen,3_0_6_0_3_1_2,NA,NA,skipped,NA,717726,NA,NA,717722.28,717726,2023-10-27T14:34:15Z,717738.94,NULL,Sympathie,mapendano,s,dhamiria,fungamano,maazimio,NA,dfs,NA,6,NA,NA,NA,NA,NA,NA,NA,NA,NA,NA,NA,NA,NA,NA,NA,NA,NA,NA,NA
a10c2,shallow,flow.Sequence,3_0_6_0_3_1,NA,NA,completion,9082.12,708636,708623.5,708640.16,717722.28,717726,2023-10-27T14:34:15Z,717738.94,NULL,Sympathie,mapendano,s,dhamiria,fungamano,maazimio,NA,dfs,NA,6,NA,NA,NA,NA,NA,NA,NA,NA,NA,NA,NA,NA,NA,NA,NA,NA,NA,NA,NA
a10c2,task,flow.Sequence,3_0_6_0_3,NA,NA,completion,9082.12,708634,708623.5,708640.16,717722.28,717726,2023-10-27T14:34:15Z,717738.94,NULL,Sympathie,mapendano,s,dhamiria,fungamano,maazimio,NA,dfs,NA,6,NA,NA,NA,NA,NA,NA,NA,NA,NA,NA,NA,NA,NA,NA,NA,NA,NA,NA,NA
a10c2,deep,flow.Sequence,3_0_6_0_4_0,NA,NA,skipped,NA,717727,NA,NA,717722.28,717727,2023-10-27T14:34:15Z,717738.94,NULL,Kultur,utamaduni,s,shetani,gerezani,mazingira,NA,dfs,NA,6,NA,NA,NA,NA,NA,NA,NA,NA,NA,NA,NA,NA,NA,NA,NA,NA,NA,NA,NA
a10c2,Shallow Question,html.Page,3_0_6_0_4_1_0,NA,NA,form submission,9586.0600000001,717727,717722.28,717738.94,727325,727325,2023-10-27T14:34:24Z,727337.02,NULL,Kultur,utamaduni,s,shetani,gerezani,mazingira,utamaduni,NA,NA,6,NA,NA,NA,NA,NA,NA,NA,NA,NA,NA,NA,NA,NA,NA,NA,NA,NA,NA,NA
a10c2,"""Richtig""-Screen",canvas.Screen,3_0_6_0_4_1_1,NA,NA,timeout,5000.0599999999,727328,727320.68,727337.02,732320.42,732322,2023-10-27T14:34:29Z,732337.08,NULL,Kultur,utamaduni,s,shetani,gerezani,mazingira,NA,dfs,1,6,NA,NA,NA,NA,NA,NA,NA,NA,NA,NA,NA,NA,NA,NA,NA,NA,NA,NA,NA
a10c2,"""Falsch""-Screen",canvas.Screen,3_0_6_0_4_1_2,NA,NA,skipped,NA,732326,NA,NA,732320.42,732327,2023-10-27T14:34:29Z,732337.08,NULL,Kultur,utamaduni,s,shetani,gerezani,mazingira,NA,dfs,NA,6,NA,NA,NA,NA,NA,NA,NA,NA,NA,NA,NA,NA,NA,NA,NA,NA,NA,NA,NA
a10c2,shallow,flow.Sequence,3_0_6_0_4_1,NA,NA,completion,14581.48,717727,717722.28,717738.94,732320.42,732327,2023-10-27T14:34:29Z,732337.08,NULL,Kultur,utamaduni,s,shetani,gerezani,mazingira,NA,dfs,NA,6,NA,NA,NA,NA,NA,NA,NA,NA,NA,NA,NA,NA,NA,NA,NA,NA,NA,NA,NA
a10c2,task,flow.Sequence,3_0_6_0_4,NA,NA,completion,14581.48,717727,717722.28,717738.94,732320.42,732327,2023-10-27T14:34:29Z,732337.08,NULL,Kultur,utamaduni,s,shetani,gerezani,mazingira,NA,dfs,NA,6,NA,NA,NA,NA,NA,NA,NA,NA,NA,NA,NA,NA,NA,NA,NA,NA,NA,NA,NA
a10c2,Deep Question,html.Page,3_0_6_0_5_0_0,NA,NA,form submission,4536.92,732329,732320.42,732337.08,736874,736875,2023-10-27T14:34:34Z,736886.46,NULL,Aufstand,ugomaji,d,NA,NA,NA,uhidi,NA,NA,6,NA,NA,NA,NA,NA,NA,NA,NA,NA,NA,NA,NA,NA,NA,NA,NA,NA,NA,NA
a10c2,"""Richtig""-Screen",canvas.Screen,3_0_6_0_5_0_1,NA,NA,skipped,NA,736877,NA,NA,736874,736878,2023-10-27T14:34:34Z,736886.46,NULL,Aufstand,ugomaji,d,NA,NA,NA,NA,dfs,NA,6,NA,NA,NA,NA,NA,NA,NA,NA,NA,NA,NA,NA,NA,NA,NA,NA,NA,NA,NA
a10c2,"""Falsch""-Screen",canvas.Screen,3_0_6_0_5_0_2,NA,NA,timeout,4999.3400000001,736881,736873.14,736886.46,741869.14,741871,2023-10-27T14:34:39Z,741885.8,NULL,Aufstand,ugomaji,d,NA,NA,NA,NA,dfs,0,6,NA,NA,NA,NA,NA,NA,NA,NA,NA,NA,NA,NA,NA,NA,NA,NA,NA,NA,NA
a10c2,deep,flow.Sequence,3_0_6_0_5_0,NA,NA,completion,9532.0600000001,732329,732320.42,732337.08,741869.14,741871,2023-10-27T14:34:39Z,741885.8,NULL,Aufstand,ugomaji,d,NA,NA,NA,NA,dfs,NA,6,NA,NA,NA,NA,NA,NA,NA,NA,NA,NA,NA,NA,NA,NA,NA,NA,NA,NA,NA
a10c2,shallow,flow.Sequence,3_0_6_0_5_1,NA,NA,skipped,NA,741872,NA,NA,741869.14,741872,2023-10-27T14:34:39Z,741885.8,NULL,Aufstand,ugomaji,d,NA,NA,NA,NA,dfs,NA,6,NA,NA,NA,NA,NA,NA,NA,NA,NA,NA,NA,NA,NA,NA,NA,NA,NA,NA,NA
a10c2,task,flow.Sequence,3_0_6_0_5,NA,NA,completion,9532.0600000001,732329,732320.42,732337.08,741869.14,741872,2023-10-27T14:34:39Z,741885.8,NULL,Aufstand,ugomaji,d,NA,NA,NA,NA,dfs,NA,6,NA,NA,NA,NA,NA,NA,NA,NA,NA,NA,NA,NA,NA,NA,NA,NA,NA,NA,NA
a10c2,Deep Question,html.Page,3_0_6_0_6_0_0,NA,NA,form submission,5831.2,741873,741869.14,741885.8,747717,747718,2023-10-27T14:34:44Z,747718.5,NULL,Polizist,msongora,d,NA,NA,NA,msongora,NA,NA,6,NA,NA,NA,NA,NA,NA,NA,NA,NA,NA,NA,NA,NA,NA,NA,NA,NA,NA,NA
a10c2,"""Richtig""-Screen",canvas.Screen,3_0_6_0_6_0_1,NA,NA,timeout,4998.0600000001,747720,747715.84,747718.5,752699.9,752702,2023-10-27T14:34:49Z,752716.56,NULL,Polizist,msongora,d,NA,NA,NA,NA,dfs,1,6,NA,NA,NA,NA,NA,NA,NA,NA,NA,NA,NA,NA,NA,NA,NA,NA,NA,NA,NA
a10c2,"""Falsch""-Screen",canvas.Screen,3_0_6_0_6_0_2,NA,NA,skipped,NA,752705,NA,NA,752699.9,752705,2023-10-27T14:34:49Z,752716.56,NULL,Polizist,msongora,d,NA,NA,NA,NA,dfs,NA,6,NA,NA,NA,NA,NA,NA,NA,NA,NA,NA,NA,NA,NA,NA,NA,NA,NA,NA,NA
a10c2,deep,flow.Sequence,3_0_6_0_6_0,NA,NA,completion,10814.1,741873,741869.14,741885.8,752699.9,752706,2023-10-27T14:34:49Z,752716.56,NULL,Polizist,msongora,d,NA,NA,NA,NA,dfs,NA,6,NA,NA,NA,NA,NA,NA,NA,NA,NA,NA,NA,NA,NA,NA,NA,NA,NA,NA,NA
a10c2,shallow,flow.Sequence,3_0_6_0_6_1,NA,NA,skipped,NA,752706,NA,NA,752699.9,752706,2023-10-27T14:34:49Z,752716.56,NULL,Polizist,msongora,d,NA,NA,NA,NA,dfs,NA,6,NA,NA,NA,NA,NA,NA,NA,NA,NA,NA,NA,NA,NA,NA,NA,NA,NA,NA,NA
a10c2,task,flow.Sequence,3_0_6_0_6,NA,NA,completion,10814.1,741872,741869.14,741885.8,752699.9,752707,2023-10-27T14:34:49Z,752716.56,NULL,Polizist,msongora,d,NA,NA,NA,NA,dfs,NA,6,NA,NA,NA,NA,NA,NA,NA,NA,NA,NA,NA,NA,NA,NA,NA,NA,NA,NA,NA
a10c2,deep,flow.Sequence,3_0_6_0_7_0,NA,NA,skipped,NA,752707,NA,NA,752699.9,752707,2023-10-27T14:34:49Z,752716.56,NULL,Annäherung,maegesho,s,madahili,kujiamini,mapendekezo,NA,dfs,NA,6,NA,NA,NA,NA,NA,NA,NA,NA,NA,NA,NA,NA,NA,NA,NA,NA,NA,NA,NA
a10c2,Shallow Question,html.Page,3_0_6_0_7_1_0,NA,NA,form submission,8795.4399999999,752707,752699.9,752716.56,761512,761513,2023-10-27T14:34:58Z,761516.82,NULL,Annäherung,maegesho,s,madahili,kujiamini,mapendekezo,madahili,NA,NA,6,NA,NA,NA,NA,NA,NA,NA,NA,NA,NA,NA,NA,NA,NA,NA,NA,NA,NA,NA
a10c2,"""Richtig""-Screen",canvas.Screen,3_0_6_0_7_1_1,NA,NA,skipped,NA,761518,NA,NA,761512,761519,2023-10-27T14:34:58Z,761516.82,NULL,Annäherung,maegesho,s,madahili,kujiamini,mapendekezo,NA,dfs,NA,6,NA,NA,NA,NA,NA,NA,NA,NA,NA,NA,NA,NA,NA,NA,NA,NA,NA,NA,NA
