observation,sender,sender_type,sender_id,response,response_action,ended_on,duration,time_run,time_render,time_show,time_end,time_commit,timestamp,time_switch,distractors,german,swahili,enc,distractor1,distractor2,distractor3,response_2,x,correct,x_2,url_vp,url_sess,meta_labjs_version,meta_location,meta_user_agent,meta_platform,meta_language,meta_locale,meta_time_zone,meta_timezone_offset,meta_screen_width,meta_screen_height,meta_scroll_width,meta_scroll_height,meta_window_inner_width,meta_window_inner_height,meta_device_pixel_ratio,meta_labjs_build_flavor,meta_labjs_build_commit
1dd15,Introduction general,canvas.Screen,0,weiter,keypress(q),response,70613.84,561,570.54,587.16,71201,71222,2023-09-27T15:25:46Z,71222.72,NULL,NA,NA,NA,NA,NA,NA,NA,NA,NA,NA,182,1,20.2.4,https://neurocog.fernuni.ch/studies/vweber/sliechti/encoding_immediate/index.html?vp=182&sess=1,Mozilla/5.0 (Windows NT 10.0; Win64; x64; rv:109.0) Gecko/20100101 Firefox/118.0,Win32,de,de-CH,Europe/Zurich,-120,1280,720,1280,587,1280,587,1.5,production,f5b4a49f956347addd546a832a3327688c2c0fef
1dd15,Introduction practice,canvas.Screen,1_0,NA,keypress(Space),response,10196.28,71223,71222.56,71222.72,81419,81436,2023-09-27T15:25:56Z,81443.68,NULL,NA,NA,NA,NA,NA,NA,NA,NA,NA,NA,NA,NA,NA,NA,NA,NA,NA,NA,NA,NA,NA,NA,NA,NA,NA,NA,NA,NA,NA
1dd15,Deep Question,html.Page,1_1_0_0_0,NA,NA,form submission,16360.32,81438,81438.2,81443.68,97804,97804,2023-09-27T15:26:12Z,97808.16,"c(""distractor1"", ""distractor2"", ""distractor3"")",Gesundheit,salama,d,NA,NA,NA,gztre,NA,NA,NA,NA,NA,NA,NA,NA,NA,NA,NA,NA,NA,NA,NA,NA,NA,NA,NA,NA,NA,NA
1dd15,"""Richtig""-Screen",canvas.Screen,1_1_0_0_1,NA,NA,skipped,NA,97812,NA,NA,97804,97812,2023-09-27T15:26:12Z,97808.16,"c(""distractor1"", ""distractor2"", ""distractor3"")",Gesundheit,salama,d,NA,NA,NA,NA,NA,NA,NA,NA,NA,NA,NA,NA,NA,NA,NA,NA,NA,NA,NA,NA,NA,NA,NA,NA,NA,NA
1dd15,"""Falsch""-Screen",canvas.Screen,1_1_0_0_2,NA,NA,timeout,4999.42,97815,97802.58,97808.16,102790.86,102793,2023-09-27T15:26:17Z,102807.58,"c(""distractor1"", ""distractor2"", ""distractor3"")",Gesundheit,salama,d,NA,NA,NA,NA,NA,0,NA,NA,NA,NA,NA,NA,NA,NA,NA,NA,NA,NA,NA,NA,NA,NA,NA,NA,NA,NA
1dd15,deep,flow.Sequence,1_1_0_0,NA,NA,completion,21347.18,81438,81438.2,81443.68,102790.86,102793,2023-09-27T15:26:17Z,102807.58,"c(""distractor1"", ""distractor2"", ""distractor3"")",Gesundheit,salama,d,NA,NA,NA,NA,NA,NA,NA,NA,NA,NA,NA,NA,NA,NA,NA,NA,NA,NA,NA,NA,NA,NA,NA,NA,NA,NA
1dd15,shallow,flow.Sequence,1_1_0_1,NA,NA,skipped,NA,102794,NA,NA,102790.86,102794,2023-09-27T15:26:17Z,102807.58,"c(""distractor1"", ""distractor2"", ""distractor3"")",Gesundheit,salama,d,NA,NA,NA,NA,NA,NA,NA,NA,NA,NA,NA,NA,NA,NA,NA,NA,NA,NA,NA,NA,NA,NA,NA,NA,NA,NA
1dd15,task,flow.Sequence,1_1_0,NA,NA,completion,21347.18,81438,81438.2,81443.68,102790.86,102795,2023-09-27T15:26:17Z,102807.58,"c(""distractor1"", ""distractor2"", ""distractor3"")",Gesundheit,salama,d,NA,NA,NA,NA,NA,NA,NA,NA,NA,NA,NA,NA,NA,NA,NA,NA,NA,NA,NA,NA,NA,NA,NA,NA,NA,NA
1dd15,deep,flow.Sequence,1_1_1_0,NA,NA,skipped,NA,102796,NA,NA,102790.86,102796,2023-09-27T15:26:17Z,102807.58,"c(""distractor1"", ""distractor2"", ""distractor3"")",Kritik,lawama,s,dereva,nafasi,mawazo,NA,NA,NA,NA,NA,NA,NA,NA,NA,NA,NA,NA,NA,NA,NA,NA,NA,NA,NA,NA,NA,NA,NA
1dd15,Shallow Question,html.Page,1_1_1_1_0,NA,NA,form submission,12042.42,102797,102790.86,102807.58,114850,114851,2023-09-27T15:26:29Z,114855.98,"c(""distractor1"", ""distractor2"", ""distractor3"")",Kritik,lawama,s,dereva,nafasi,mawazo,dereva,NA,NA,NA,NA,NA,NA,NA,NA,NA,NA,NA,NA,NA,NA,NA,NA,NA,NA,NA,NA,NA,NA
1dd15,"""Richtig""-Screen",canvas.Screen,1_1_1_1_1,NA,NA,skipped,NA,114853,NA,NA,114850,114854,2023-09-27T15:26:29Z,114855.98,"c(""distractor1"", ""distractor2"", ""distractor3"")",Kritik,lawama,s,dereva,nafasi,mawazo,NA,NA,NA,NA,NA,NA,NA,NA,NA,NA,NA,NA,NA,NA,NA,NA,NA,NA,NA,NA,NA,NA,NA
1dd15,"""Falsch""-Screen",canvas.Screen,1_1_1_1_2,NA,NA,timeout,4999.42,114857,114848.84,114855.98,119839.12,119840,2023-09-27T15:26:34Z,119855.4,"c(""distractor1"", ""distractor2"", ""distractor3"")",Kritik,lawama,s,dereva,nafasi,mawazo,NA,NA,0,NA,NA,NA,NA,NA,NA,NA,NA,NA,NA,NA,NA,NA,NA,NA,NA,NA,NA,NA,NA
1dd15,shallow,flow.Sequence,1_1_1_1,NA,NA,completion,17031.54,102797,102790.86,102807.58,119839.12,119842,2023-09-27T15:26:34Z,119855.4,"c(""distractor1"", ""distractor2"", ""distractor3"")",Kritik,lawama,s,dereva,nafasi,mawazo,NA,NA,NA,NA,NA,NA,NA,NA,NA,NA,NA,NA,NA,NA,NA,NA,NA,NA,NA,NA,NA,NA,NA
1dd15,task,flow.Sequence,1_1_1,NA,NA,completion,17031.54,102796,102790.86,102807.58,119839.12,119842,2023-09-27T15:26:34Z,119855.4,"c(""distractor1"", ""distractor2"", ""distractor3"")",Kritik,lawama,s,dereva,nafasi,mawazo,NA,NA,NA,NA,NA,NA,NA,NA,NA,NA,NA,NA,NA,NA,NA,NA,NA,NA,NA,NA,NA,NA,NA
1dd15,Deep Question,html.Page,1_1_2_0_0,NA,NA,form submission,4819.6,119842,119839.12,119855.4,124675,124675,2023-09-27T15:26:39Z,124674.5,"c(""distractor1"", ""distractor2"", ""distractor3"")",Schatten,kivuli,d,NA,NA,NA,uilppoi,NA,NA,NA,NA,NA,NA,NA,NA,NA,NA,NA,NA,NA,NA,NA,NA,NA,NA,NA,NA,NA,NA
1dd15,"""Richtig""-Screen",canvas.Screen,1_1_2_0_1,NA,NA,skipped,NA,124678,NA,NA,124675,124679,2023-09-27T15:26:39Z,124674.5,"c(""distractor1"", ""distractor2"", ""distractor3"")",Schatten,kivuli,d,NA,NA,NA,NA,NA,NA,NA,NA,NA,NA,NA,NA,NA,NA,NA,NA,NA,NA,NA,NA,NA,NA,NA,NA,NA,NA
1dd15,"""Falsch""-Screen",canvas.Screen,1_1_2_0_2,NA,NA,timeout,4996.26,124682,124674.14,124674.5,129654.4,129656,2023-09-27T15:26:44Z,129670.76,"c(""distractor1"", ""distractor2"", ""distractor3"")",Schatten,kivuli,d,NA,NA,NA,NA,NA,0,NA,NA,NA,NA,NA,NA,NA,NA,NA,NA,NA,NA,NA,NA,NA,NA,NA,NA,NA,NA
1dd15,deep,flow.Sequence,1_1_2_0,NA,NA,completion,9799,119842,119839.12,119855.4,129654.4,129656,2023-09-27T15:26:44Z,129670.76,"c(""distractor1"", ""distractor2"", ""distractor3"")",Schatten,kivuli,d,NA,NA,NA,NA,NA,NA,NA,NA,NA,NA,NA,NA,NA,NA,NA,NA,NA,NA,NA,NA,NA,NA,NA,NA,NA,NA
1dd15,shallow,flow.Sequence,1_1_2_1,NA,NA,skipped,NA,129657,NA,NA,129654.4,129657,2023-09-27T15:26:44Z,129670.76,"c(""distractor1"", ""distractor2"", ""distractor3"")",Schatten,kivuli,d,NA,NA,NA,NA,NA,NA,NA,NA,NA,NA,NA,NA,NA,NA,NA,NA,NA,NA,NA,NA,NA,NA,NA,NA,NA,NA
1dd15,task,flow.Sequence,1_1_2,NA,NA,completion,9799,119842,119839.12,119855.4,129654.4,129657,2023-09-27T15:26:44Z,129670.76,"c(""distractor1"", ""distractor2"", ""distractor3"")",Schatten,kivuli,d,NA,NA,NA,NA,NA,NA,NA,NA,NA,NA,NA,NA,NA,NA,NA,NA,NA,NA,NA,NA,NA,NA,NA,NA,NA,NA
1dd15,deep,flow.Sequence,1_1_3_0,NA,NA,skipped,NA,129658,NA,NA,129654.4,129658,2023-09-27T15:26:44Z,129670.76,"c(""distractor1"", ""distractor2"", ""distractor3"")",Gegenwart,hadhara,s,katiba,jokofu,mikopo,NA,NA,NA,NA,NA,NA,NA,NA,NA,NA,NA,NA,NA,NA,NA,NA,NA,NA,NA,NA,NA,NA,NA
1dd15,Shallow Question,html.Page,1_1_3_1_0,NA,NA,form submission,4323.24,129659,129654.4,129670.76,133994,133994,2023-09-27T15:26:48Z,133992.78,"c(""distractor1"", ""distractor2"", ""distractor3"")",Gegenwart,hadhara,s,katiba,jokofu,mikopo,katiba,NA,NA,NA,NA,NA,NA,NA,NA,NA,NA,NA,NA,NA,NA,NA,NA,NA,NA,NA,NA,NA,NA
1dd15,"""Richtig""-Screen",canvas.Screen,1_1_3_1_1,NA,NA,skipped,NA,133996,NA,NA,133994,133996,2023-09-27T15:26:48Z,133992.78,"c(""distractor1"", ""distractor2"", ""distractor3"")",Gegenwart,hadhara,s,katiba,jokofu,mikopo,NA,NA,NA,NA,NA,NA,NA,NA,NA,NA,NA,NA,NA,NA,NA,NA,NA,NA,NA,NA,NA,NA,NA
1dd15,"""Falsch""-Screen",canvas.Screen,1_1_3_1_2,NA,NA,timeout,4993.42,133999,133992.46,133992.78,138970.06,138971,2023-09-27T15:26:53Z,138986.2,"c(""distractor1"", ""distractor2"", ""distractor3"")",Gegenwart,hadhara,s,katiba,jokofu,mikopo,NA,NA,0,NA,NA,NA,NA,NA,NA,NA,NA,NA,NA,NA,NA,NA,NA,NA,NA,NA,NA,NA,NA
1dd15,shallow,flow.Sequence,1_1_3_1,NA,NA,completion,9299.3,129659,129654.4,129670.76,138970.06,138972,2023-09-27T15:26:53Z,138986.2,"c(""distractor1"", ""distractor2"", ""distractor3"")",Gegenwart,hadhara,s,katiba,jokofu,mikopo,NA,NA,NA,NA,NA,NA,NA,NA,NA,NA,NA,NA,NA,NA,NA,NA,NA,NA,NA,NA,NA,NA,NA
1dd15,task,flow.Sequence,1_1_3,NA,NA,completion,9299.3,129658,129654.4,129670.76,138970.06,138972,2023-09-27T15:26:53Z,138986.2,"c(""distractor1"", ""distractor2"", ""distractor3"")",Gegenwart,hadhara,s,katiba,jokofu,mikopo,NA,NA,NA,NA,NA,NA,NA,NA,NA,NA,NA,NA,NA,NA,NA,NA,NA,NA,NA,NA,NA,NA,NA
1dd15,deep,flow.Sequence,1_1_4_0,NA,NA,skipped,NA,138972,NA,NA,138970.06,138973,2023-09-27T15:26:53Z,138986.2,"c(""distractor1"", ""distractor2"", ""distractor3"")",Rückhalt,msaada,s,muhula,auwali,kiwimbe,NA,NA,NA,NA,NA,NA,NA,NA,NA,NA,NA,NA,NA,NA,NA,NA,NA,NA,NA,NA,NA,NA,NA
1dd15,Shallow Question,html.Page,1_1_4_1_0,NA,NA,form submission,6729.8,138973,138970.06,138986.2,145716,145716,2023-09-27T15:27:00Z,145718.64,"c(""distractor1"", ""distractor2"", ""distractor3"")",Rückhalt,msaada,s,muhula,auwali,kiwimbe,muhula,NA,NA,NA,NA,NA,NA,NA,NA,NA,NA,NA,NA,NA,NA,NA,NA,NA,NA,NA,NA,NA,NA
1dd15,"""Richtig""-Screen",canvas.Screen,1_1_4_1_1,NA,NA,skipped,NA,145721,NA,NA,145716,145722,2023-09-27T15:27:00Z,145718.64,"c(""distractor1"", ""distractor2"", ""distractor3"")",Rückhalt,msaada,s,muhula,auwali,kiwimbe,NA,NA,NA,NA,NA,NA,NA,NA,NA,NA,NA,NA,NA,NA,NA,NA,NA,NA,NA,NA,NA,NA,NA
1dd15,"""Falsch""-Screen",canvas.Screen,1_1_4_1_2,NA,NA,timeout,4999.46,145727,145710.88,145718.64,150701.7,150703,2023-09-27T15:27:05Z,150718.1,"c(""distractor1"", ""distractor2"", ""distractor3"")",Rückhalt,msaada,s,muhula,auwali,kiwimbe,NA,NA,0,NA,NA,NA,NA,NA,NA,NA,NA,NA,NA,NA,NA,NA,NA,NA,NA,NA,NA,NA,NA
1dd15,shallow,flow.Sequence,1_1_4_1,NA,NA,completion,11715.5,138973,138970.06,138986.2,150701.7,150703,2023-09-27T15:27:05Z,150718.1,"c(""distractor1"", ""distractor2"", ""distractor3"")",Rückhalt,msaada,s,muhula,auwali,kiwimbe,NA,NA,NA,NA,NA,NA,NA,NA,NA,NA,NA,NA,NA,NA,NA,NA,NA,NA,NA,NA,NA,NA,NA
1dd15,task,flow.Sequence,1_1_4,NA,NA,completion,11715.5,138972,138970.06,138986.2,150701.7,150704,2023-09-27T15:27:05Z,150718.1,"c(""distractor1"", ""distractor2"", ""distractor3"")",Rückhalt,msaada,s,muhula,auwali,kiwimbe,NA,NA,NA,NA,NA,NA,NA,NA,NA,NA,NA,NA,NA,NA,NA,NA,NA,NA,NA,NA,NA,NA,NA
1dd15,Deep Question,html.Page,1_1_5_0_0,NA,NA,form submission,22615.9,150704,150701.7,150718.1,173334,173334,2023-09-27T15:27:28Z,173333.08,"c(""distractor1"", ""distractor2"", ""distractor3"")",Qualität,mtindo,d,NA,NA,NA,veue,NA,NA,NA,NA,NA,NA,NA,NA,NA,NA,NA,NA,NA,NA,NA,NA,NA,NA,NA,NA,NA,NA
1dd15,"""Richtig""-Screen",canvas.Screen,1_1_5_0_1,NA,NA,skipped,NA,173336,NA,NA,173334,173337,2023-09-27T15:27:28Z,173333.08,"c(""distractor1"", ""distractor2"", ""distractor3"")",Qualität,mtindo,d,NA,NA,NA,NA,NA,NA,NA,NA,NA,NA,NA,NA,NA,NA,NA,NA,NA,NA,NA,NA,NA,NA,NA,NA,NA,NA
1dd15,"""Falsch""-Screen",canvas.Screen,1_1_5_0_2,NA,NA,timeout,4998.14,173339,173332.84,173333.08,178314.9,178316,2023-09-27T15:27:33Z,178331.22,"c(""distractor1"", ""distractor2"", ""distractor3"")",Qualität,mtindo,d,NA,NA,NA,NA,NA,0,NA,NA,NA,NA,NA,NA,NA,NA,NA,NA,NA,NA,NA,NA,NA,NA,NA,NA,NA,NA
1dd15,deep,flow.Sequence,1_1_5_0,NA,NA,completion,27596.8,150704,150701.7,150718.1,178314.9,178317,2023-09-27T15:27:33Z,178331.22,"c(""distractor1"", ""distractor2"", ""distractor3"")",Qualität,mtindo,d,NA,NA,NA,NA,NA,NA,NA,NA,NA,NA,NA,NA,NA,NA,NA,NA,NA,NA,NA,NA,NA,NA,NA,NA,NA,NA
1dd15,shallow,flow.Sequence,1_1_5_1,NA,NA,skipped,NA,178317,NA,NA,178314.9,178318,2023-09-27T15:27:33Z,178331.22,"c(""distractor1"", ""distractor2"", ""distractor3"")",Qualität,mtindo,d,NA,NA,NA,NA,NA,NA,NA,NA,NA,NA,NA,NA,NA,NA,NA,NA,NA,NA,NA,NA,NA,NA,NA,NA,NA,NA
1dd15,task,flow.Sequence,1_1_5,NA,NA,completion,27596.8,150704,150701.7,150718.1,178314.9,178318,2023-09-27T15:27:33Z,178331.22,"c(""distractor1"", ""distractor2"", ""distractor3"")",Qualität,mtindo,d,NA,NA,NA,NA,NA,NA,NA,NA,NA,NA,NA,NA,NA,NA,NA,NA,NA,NA,NA,NA,NA,NA,NA,NA,NA,NA
1dd15,block,flow.Loop,1_1,NA,NA,completion,96871.22,81437,81438.2,81443.68,178314.9,178319,2023-09-27T15:27:33Z,178331.22,"c(""distractor1"", ""distractor2"", ""distractor3"")",NA,NA,NA,NA,NA,NA,NA,NA,NA,NA,NA,NA,NA,NA,NA,NA,NA,NA,NA,NA,NA,NA,NA,NA,NA,NA,NA,NA,NA
1dd15,Practice,flow.Sequence,1,NA,NA,completion,107092.18,71223,71222.56,71222.72,178314.9,178319,2023-09-27T15:27:33Z,178331.22,NULL,NA,NA,NA,NA,NA,NA,NA,NA,NA,NA,NA,NA,NA,NA,NA,NA,NA,NA,NA,NA,NA,NA,NA,NA,NA,NA,NA,NA,NA
1dd15,Experiment start,canvas.Screen,2,weiter,keypress(q),response,88103.78,178319,178314.9,178331.22,266435,266443,2023-09-27T15:29:01Z,266533.7,NULL,NA,NA,NA,NA,NA,NA,NA,NA,NA,NA,NA,NA,NA,NA,NA,NA,NA,NA,NA,NA,NA,NA,NA,NA,NA,NA,NA,NA,NA
1dd15,deep,flow.Sequence,3_0_0_0_0_0,NA,NA,skipped,NA,266533,NA,NA,266435,266533,2023-09-27T15:29:01Z,266533.7,NULL,Begegnung,kukutana,s,mmasihiya,mpiganaji,husiano,NA,sdf,NA,0,NA,NA,NA,NA,NA,NA,NA,NA,NA,NA,NA,NA,NA,NA,NA,NA,NA,NA,NA
1dd15,Shallow Question,html.Page,3_0_0_0_0_1_0,NA,NA,form submission,12514.3,266533,266533.54,266533.7,279048,279049,2023-09-27T15:29:13Z,279051.82,NULL,Begegnung,kukutana,s,mmasihiya,mpiganaji,husiano,kukutana,NA,NA,0,NA,NA,NA,NA,NA,NA,NA,NA,NA,NA,NA,NA,NA,NA,NA,NA,NA,NA,NA
1dd15,"""Richtig""-Screen",canvas.Screen,3_0_0_0_0_1_1,NA,NA,timeout,4999.18,279054,279043.46,279051.82,284034.68,284040,2023-09-27T15:29:18Z,284051,NULL,Begegnung,kukutana,s,mmasihiya,mpiganaji,husiano,NA,sdf,1,0,NA,NA,NA,NA,NA,NA,NA,NA,NA,NA,NA,NA,NA,NA,NA,NA,NA,NA,NA
1dd15,"""Falsch""-Screen",canvas.Screen,3_0_0_0_0_1_2,NA,NA,skipped,NA,284055,NA,NA,284034.68,284056,2023-09-27T15:29:18Z,284051,NULL,Begegnung,kukutana,s,mmasihiya,mpiganaji,husiano,NA,sdf,NA,0,NA,NA,NA,NA,NA,NA,NA,NA,NA,NA,NA,NA,NA,NA,NA,NA,NA,NA,NA
1dd15,shallow,flow.Sequence,3_0_0_0_0_1,NA,NA,completion,17500.98,266533,266533.54,266533.7,284034.68,284056,2023-09-27T15:29:18Z,284051,NULL,Begegnung,kukutana,s,mmasihiya,mpiganaji,husiano,NA,sdf,NA,0,NA,NA,NA,NA,NA,NA,NA,NA,NA,NA,NA,NA,NA,NA,NA,NA,NA,NA,NA
1dd15,task,flow.Sequence,3_0_0_0_0,NA,NA,completion,17500.98,266533,266533.54,266533.7,284034.68,284057,2023-09-27T15:29:18Z,284051,NULL,Begegnung,kukutana,s,mmasihiya,mpiganaji,husiano,NA,sdf,NA,0,NA,NA,NA,NA,NA,NA,NA,NA,NA,NA,NA,NA,NA,NA,NA,NA,NA,NA,NA
1dd15,Deep Question,html.Page,3_0_0_0_1_0_0,NA,NA,form submission,4357,284057,284034.68,284051,288408,288408,2023-09-27T15:29:23Z,288417.1,NULL,Fleisch,mshakiki,d,NA,NA,NA,abami,NA,NA,0,NA,NA,NA,NA,NA,NA,NA,NA,NA,NA,NA,NA,NA,NA,NA,NA,NA,NA,NA
1dd15,"""Richtig""-Screen",canvas.Screen,3_0_0_0_1_0_1,NA,NA,skipped,NA,288411,NA,NA,288408,288411,2023-09-27T15:29:23Z,288417.1,NULL,Fleisch,mshakiki,d,NA,NA,NA,NA,sdf,NA,0,NA,NA,NA,NA,NA,NA,NA,NA,NA,NA,NA,NA,NA,NA,NA,NA,NA,NA,NA
1dd15,"""Falsch""-Screen",canvas.Screen,3_0_0_0_1_0_2,NA,NA,timeout,4999.46,288415,288406.24,288417.1,293400.12,293402,2023-09-27T15:29:28Z,293416.56,NULL,Fleisch,mshakiki,d,NA,NA,NA,NA,sdf,0,0,NA,NA,NA,NA,NA,NA,NA,NA,NA,NA,NA,NA,NA,NA,NA,NA,NA,NA,NA
1dd15,deep,flow.Sequence,3_0_0_0_1_0,NA,NA,completion,9349.12,284057,284034.68,284051,293400.12,293403,2023-09-27T15:29:28Z,293416.56,NULL,Fleisch,mshakiki,d,NA,NA,NA,NA,sdf,NA,0,NA,NA,NA,NA,NA,NA,NA,NA,NA,NA,NA,NA,NA,NA,NA,NA,NA,NA,NA
1dd15,shallow,flow.Sequence,3_0_0_0_1_1,NA,NA,skipped,NA,293403,NA,NA,293400.12,293403,2023-09-27T15:29:28Z,293416.56,NULL,Fleisch,mshakiki,d,NA,NA,NA,NA,sdf,NA,0,NA,NA,NA,NA,NA,NA,NA,NA,NA,NA,NA,NA,NA,NA,NA,NA,NA,NA,NA
1dd15,task,flow.Sequence,3_0_0_0_1,NA,NA,completion,9349.12,284057,284034.68,284051,293400.12,293404,2023-09-27T15:29:28Z,293416.56,NULL,Fleisch,mshakiki,d,NA,NA,NA,NA,sdf,NA,0,NA,NA,NA,NA,NA,NA,NA,NA,NA,NA,NA,NA,NA,NA,NA,NA,NA,NA,NA
1dd15,Deep Question,html.Page,3_0_0_0_2_0_0,NA,NA,form submission,6467.44,293405,293400.12,293416.56,299884,299885,2023-09-27T15:29:34Z,299883.48,NULL,Inhalt,yaliyomo,d,NA,NA,NA,loiutr,NA,NA,0,NA,NA,NA,NA,NA,NA,NA,NA,NA,NA,NA,NA,NA,NA,NA,NA,NA,NA,NA
1dd15,"""Richtig""-Screen",canvas.Screen,3_0_0_0_2_0_1,NA,NA,skipped,NA,299888,NA,NA,299884,299888,2023-09-27T15:29:34Z,299883.48,NULL,Inhalt,yaliyomo,d,NA,NA,NA,NA,sdf,NA,0,NA,NA,NA,NA,NA,NA,NA,NA,NA,NA,NA,NA,NA,NA,NA,NA,NA,NA,NA
1dd15,"""Falsch""-Screen",canvas.Screen,3_0_0_0_2_0_2,NA,NA,timeout,4998.36,299891,299883.14,299883.48,304865.42,304867,2023-09-27T15:29:39Z,304881.84,NULL,Inhalt,yaliyomo,d,NA,NA,NA,NA,sdf,0,0,NA,NA,NA,NA,NA,NA,NA,NA,NA,NA,NA,NA,NA,NA,NA,NA,NA,NA,NA
1dd15,deep,flow.Sequence,3_0_0_0_2_0,NA,NA,completion,11448.86,293405,293400.12,293416.56,304865.42,304868,2023-09-27T15:29:39Z,304881.84,NULL,Inhalt,yaliyomo,d,NA,NA,NA,NA,sdf,NA,0,NA,NA,NA,NA,NA,NA,NA,NA,NA,NA,NA,NA,NA,NA,NA,NA,NA,NA,NA
1dd15,shallow,flow.Sequence,3_0_0_0_2_1,NA,NA,skipped,NA,304868,NA,NA,304865.42,304868,2023-09-27T15:29:39Z,304881.84,NULL,Inhalt,yaliyomo,d,NA,NA,NA,NA,sdf,NA,0,NA,NA,NA,NA,NA,NA,NA,NA,NA,NA,NA,NA,NA,NA,NA,NA,NA,NA,NA
1dd15,task,flow.Sequence,3_0_0_0_2,NA,NA,completion,11448.86,293404,293400.12,293416.56,304865.42,304869,2023-09-27T15:29:39Z,304881.84,NULL,Inhalt,yaliyomo,d,NA,NA,NA,NA,sdf,NA,0,NA,NA,NA,NA,NA,NA,NA,NA,NA,NA,NA,NA,NA,NA,NA,NA,NA,NA,NA
1dd15,deep,flow.Sequence,3_0_0_0_3_0,NA,NA,skipped,NA,304869,NA,NA,304865.42,304869,2023-09-27T15:29:39Z,304881.84,NULL,Schlange,foleni,s,uvumilivu,uteuzi,muuzaji,NA,sdf,NA,0,NA,NA,NA,NA,NA,NA,NA,NA,NA,NA,NA,NA,NA,NA,NA,NA,NA,NA,NA
1dd15,Shallow Question,html.Page,3_0_0_0_3_1_0,NA,NA,form submission,11519.16,304869,304865.42,304881.84,316401,316402,2023-09-27T15:29:51Z,316415.12,NULL,Schlange,foleni,s,uvumilivu,uteuzi,muuzaji,uvumilivu,NA,NA,0,NA,NA,NA,NA,NA,NA,NA,NA,NA,NA,NA,NA,NA,NA,NA,NA,NA,NA,NA
1dd15,"""Richtig""-Screen",canvas.Screen,3_0_0_0_3_1_1,NA,NA,skipped,NA,316408,NA,NA,316401,316409,2023-09-27T15:29:51Z,316415.12,NULL,Schlange,foleni,s,uvumilivu,uteuzi,muuzaji,NA,sdf,NA,0,NA,NA,NA,NA,NA,NA,NA,NA,NA,NA,NA,NA,NA,NA,NA,NA,NA,NA,NA
1dd15,"""Falsch""-Screen",canvas.Screen,3_0_0_0_3_1_2,NA,NA,timeout,4997.82,316416,316396.58,316415.12,321396.74,321398,2023-09-27T15:29:56Z,321412.94,NULL,Schlange,foleni,s,uvumilivu,uteuzi,muuzaji,NA,sdf,0,0,NA,NA,NA,NA,NA,NA,NA,NA,NA,NA,NA,NA,NA,NA,NA,NA,NA,NA,NA
1dd15,shallow,flow.Sequence,3_0_0_0_3_1,NA,NA,completion,16514.9,304869,304865.42,304881.84,321396.74,321398,2023-09-27T15:29:56Z,321412.94,NULL,Schlange,foleni,s,uvumilivu,uteuzi,muuzaji,NA,sdf,NA,0,NA,NA,NA,NA,NA,NA,NA,NA,NA,NA,NA,NA,NA,NA,NA,NA,NA,NA,NA
1dd15,task,flow.Sequence,3_0_0_0_3,NA,NA,completion,16514.9,304869,304865.42,304881.84,321396.74,321399,2023-09-27T15:29:56Z,321412.94,NULL,Schlange,foleni,s,uvumilivu,uteuzi,muuzaji,NA,sdf,NA,0,NA,NA,NA,NA,NA,NA,NA,NA,NA,NA,NA,NA,NA,NA,NA,NA,NA,NA,NA
1dd15,Deep Question,html.Page,3_0_0_0_4_0_0,NA,NA,form submission,5131.06,321399,321396.74,321412.94,326544,326544,2023-09-27T15:30:01Z,326545.6,NULL,Integrität,uadilifu,d,NA,NA,NA,puloin,NA,NA,0,NA,NA,NA,NA,NA,NA,NA,NA,NA,NA,NA,NA,NA,NA,NA,NA,NA,NA,NA
1dd15,"""Richtig""-Screen",canvas.Screen,3_0_0_0_4_0_1,NA,NA,skipped,NA,326547,NA,NA,326544,326547,2023-09-27T15:30:01Z,326545.6,NULL,Integrität,uadilifu,d,NA,NA,NA,NA,sdf,NA,0,NA,NA,NA,NA,NA,NA,NA,NA,NA,NA,NA,NA,NA,NA,NA,NA,NA,NA,NA
1dd15,"""Falsch""-Screen",canvas.Screen,3_0_0_0_4_0_2,NA,NA,timeout,4999.4,326550,326543.36,326545.6,331528.38,331530,2023-09-27T15:30:06Z,331545,NULL,Integrität,uadilifu,d,NA,NA,NA,NA,sdf,0,0,NA,NA,NA,NA,NA,NA,NA,NA,NA,NA,NA,NA,NA,NA,NA,NA,NA,NA,NA
1dd15,deep,flow.Sequence,3_0_0_0_4_0,NA,NA,completion,10115.44,321399,321396.74,321412.94,331528.38,331530,2023-09-27T15:30:06Z,331545,NULL,Integrität,uadilifu,d,NA,NA,NA,NA,sdf,NA,0,NA,NA,NA,NA,NA,NA,NA,NA,NA,NA,NA,NA,NA,NA,NA,NA,NA,NA,NA
1dd15,shallow,flow.Sequence,3_0_0_0_4_1,NA,NA,skipped,NA,331531,NA,NA,331528.38,331531,2023-09-27T15:30:06Z,331545,NULL,Integrität,uadilifu,d,NA,NA,NA,NA,sdf,NA,0,NA,NA,NA,NA,NA,NA,NA,NA,NA,NA,NA,NA,NA,NA,NA,NA,NA,NA,NA
1dd15,task,flow.Sequence,3_0_0_0_4,NA,NA,completion,10115.44,321399,321396.74,321412.94,331528.38,331531,2023-09-27T15:30:06Z,331545,NULL,Integrität,uadilifu,d,NA,NA,NA,NA,sdf,NA,0,NA,NA,NA,NA,NA,NA,NA,NA,NA,NA,NA,NA,NA,NA,NA,NA,NA,NA,NA
1dd15,deep,flow.Sequence,3_0_0_0_5_0,NA,NA,skipped,NA,331531,NA,NA,331528.38,331532,2023-09-27T15:30:06Z,331545,NULL,Toleranz,kuvumiliana,s,maombolezo,ujasusi,mchekeshaji,NA,sdf,NA,0,NA,NA,NA,NA,NA,NA,NA,NA,NA,NA,NA,NA,NA,NA,NA,NA,NA,NA,NA
1dd15,Shallow Question,html.Page,3_0_0_0_5_1_0,NA,NA,form submission,11439,331532,331528.38,331545,342984,342989,2023-09-27T15:30:17Z,342993.56,NULL,Toleranz,kuvumiliana,s,maombolezo,ujasusi,mchekeshaji,ujasusi,NA,NA,0,NA,NA,NA,NA,NA,NA,NA,NA,NA,NA,NA,NA,NA,NA,NA,NA,NA,NA,NA
1dd15,"""Richtig""-Screen",canvas.Screen,3_0_0_0_5_1_1,NA,NA,skipped,NA,343002,NA,NA,342984,343002,2023-09-27T15:30:17Z,342993.56,NULL,Toleranz,kuvumiliana,s,maombolezo,ujasusi,mchekeshaji,NA,sdf,NA,0,NA,NA,NA,NA,NA,NA,NA,NA,NA,NA,NA,NA,NA,NA,NA,NA,NA,NA,NA
1dd15,"""Falsch""-Screen",canvas.Screen,3_0_0_0_5_1_2,NA,NA,timeout,4999.28,343007,342974.9,342993.56,347976.22,347977,2023-09-27T15:30:22Z,347992.84,NULL,Toleranz,kuvumiliana,s,maombolezo,ujasusi,mchekeshaji,NA,sdf,0,0,NA,NA,NA,NA,NA,NA,NA,NA,NA,NA,NA,NA,NA,NA,NA,NA,NA,NA,NA
1dd15,shallow,flow.Sequence,3_0_0_0_5_1,NA,NA,completion,16431.22,331532,331528.38,331545,347976.22,347978,2023-09-27T15:30:22Z,347992.84,NULL,Toleranz,kuvumiliana,s,maombolezo,ujasusi,mchekeshaji,NA,sdf,NA,0,NA,NA,NA,NA,NA,NA,NA,NA,NA,NA,NA,NA,NA,NA,NA,NA,NA,NA,NA
1dd15,task,flow.Sequence,3_0_0_0_5,NA,NA,completion,16431.22,331531,331528.38,331545,347976.22,347979,2023-09-27T15:30:22Z,347992.84,NULL,Toleranz,kuvumiliana,s,maombolezo,ujasusi,mchekeshaji,NA,sdf,NA,0,NA,NA,NA,NA,NA,NA,NA,NA,NA,NA,NA,NA,NA,NA,NA,NA,NA,NA,NA
1dd15,Deep Question,html.Page,3_0_0_0_6_0_0,NA,NA,form submission,5786.16,347980,347976.22,347992.84,353779,353779,2023-09-27T15:30:28Z,353792.02,NULL,Vermutung,udhanifu,d,NA,NA,NA,buzrona,NA,NA,0,NA,NA,NA,NA,NA,NA,NA,NA,NA,NA,NA,NA,NA,NA,NA,NA,NA,NA,NA
1dd15,"""Richtig""-Screen",canvas.Screen,3_0_0_0_6_0_1,NA,NA,skipped,NA,353783,NA,NA,353779,353783,2023-09-27T15:30:28Z,353792.02,NULL,Vermutung,udhanifu,d,NA,NA,NA,NA,sdf,NA,0,NA,NA,NA,NA,NA,NA,NA,NA,NA,NA,NA,NA,NA,NA,NA,NA,NA,NA,NA
1dd15,"""Falsch""-Screen",canvas.Screen,3_0_0_0_6_0_2,NA,NA,timeout,4999.48,353786,353778.3,353792.02,358774.94,358776,2023-09-27T15:30:33Z,358791.5,NULL,Vermutung,udhanifu,d,NA,NA,NA,NA,sdf,0,0,NA,NA,NA,NA,NA,NA,NA,NA,NA,NA,NA,NA,NA,NA,NA,NA,NA,NA,NA
1dd15,deep,flow.Sequence,3_0_0_0_6_0,NA,NA,completion,10782.1,347980,347976.22,347992.84,358774.94,358777,2023-09-27T15:30:33Z,358791.5,NULL,Vermutung,udhanifu,d,NA,NA,NA,NA,sdf,NA,0,NA,NA,NA,NA,NA,NA,NA,NA,NA,NA,NA,NA,NA,NA,NA,NA,NA,NA,NA
1dd15,shallow,flow.Sequence,3_0_0_0_6_1,NA,NA,skipped,NA,358778,NA,NA,358774.94,358778,2023-09-27T15:30:33Z,358791.5,NULL,Vermutung,udhanifu,d,NA,NA,NA,NA,sdf,NA,0,NA,NA,NA,NA,NA,NA,NA,NA,NA,NA,NA,NA,NA,NA,NA,NA,NA,NA,NA
1dd15,task,flow.Sequence,3_0_0_0_6,NA,NA,completion,10782.1,347980,347976.22,347992.84,358774.94,358779,2023-09-27T15:30:33Z,358791.5,NULL,Vermutung,udhanifu,d,NA,NA,NA,NA,sdf,NA,0,NA,NA,NA,NA,NA,NA,NA,NA,NA,NA,NA,NA,NA,NA,NA,NA,NA,NA,NA
1dd15,deep,flow.Sequence,3_0_0_0_7_0,NA,NA,skipped,NA,358779,NA,NA,358774.94,358780,2023-09-27T15:30:33Z,358791.5,NULL,Genehmigung,idhini,s,mwanamke,itikadi,fedheha,NA,sdf,NA,0,NA,NA,NA,NA,NA,NA,NA,NA,NA,NA,NA,NA,NA,NA,NA,NA,NA,NA,NA
1dd15,Shallow Question,html.Page,3_0_0_0_7_1_0,NA,NA,form submission,8077.5,358780,358774.94,358791.5,366869,366870,2023-09-27T15:30:41Z,366873.8,NULL,Genehmigung,idhini,s,mwanamke,itikadi,fedheha,fedheha,NA,NA,0,NA,NA,NA,NA,NA,NA,NA,NA,NA,NA,NA,NA,NA,NA,NA,NA,NA,NA,NA
1dd15,"""Richtig""-Screen",canvas.Screen,3_0_0_0_7_1_1,NA,NA,skipped,NA,366875,NA,NA,366869,366876,2023-09-27T15:30:41Z,366873.8,NULL,Genehmigung,idhini,s,mwanamke,itikadi,fedheha,NA,sdf,NA,0,NA,NA,NA,NA,NA,NA,NA,NA,NA,NA,NA,NA,NA,NA,NA,NA,NA,NA,NA
1dd15,"""Falsch""-Screen",canvas.Screen,3_0_0_0_7_1_2,NA,NA,timeout,4999.32,366880,366863.58,366873.8,371856.9,371858,2023-09-27T15:30:46Z,371873.12,NULL,Genehmigung,idhini,s,mwanamke,itikadi,fedheha,NA,sdf,0,0,NA,NA,NA,NA,NA,NA,NA,NA,NA,NA,NA,NA,NA,NA,NA,NA,NA,NA,NA
1dd15,shallow,flow.Sequence,3_0_0_0_7_1,NA,NA,completion,13065.4,358780,358774.94,358791.5,371856.9,371859,2023-09-27T15:30:46Z,371873.12,NULL,Genehmigung,idhini,s,mwanamke,itikadi,fedheha,NA,sdf,NA,0,NA,NA,NA,NA,NA,NA,NA,NA,NA,NA,NA,NA,NA,NA,NA,NA,NA,NA,NA
1dd15,task,flow.Sequence,3_0_0_0_7,NA,NA,completion,13065.4,358779,358774.94,358791.5,371856.9,371860,2023-09-27T15:30:46Z,371873.12,NULL,Genehmigung,idhini,s,mwanamke,itikadi,fedheha,NA,sdf,NA,0,NA,NA,NA,NA,NA,NA,NA,NA,NA,NA,NA,NA,NA,NA,NA,NA,NA,NA,NA
1dd15,block,flow.Loop,3_0_0_0,NA,NA,completion,105323.2,266533,266533.54,266533.7,371856.9,371860,2023-09-27T15:30:46Z,371873.12,NULL,NA,NA,NA,NA,NA,NA,NA,sdf,NA,0,NA,NA,NA,NA,NA,NA,NA,NA,NA,NA,NA,NA,NA,NA,NA,NA,NA,NA,NA
1dd15,weiter,canvas.Screen,3_0_0_1,sdf,keypress(Space),response,1607.88,371860,371856.9,371873.12,373481,373500,2023-09-27T15:30:48Z,373546.78,NULL,NA,NA,NA,NA,NA,NA,NA,sdf,NA,0,NA,NA,NA,NA,NA,NA,NA,NA,NA,NA,NA,NA,NA,NA,NA,NA,NA,NA,NA
1dd15,check continue,flow.Sequence,3_0_0,NA,NA,completion,106947.3,266533,266533.54,266533.7,373481,373500,2023-09-27T15:30:48Z,373546.78,NULL,NA,NA,NA,NA,NA,NA,NA,sdf,NA,0,NA,NA,NA,NA,NA,NA,NA,NA,NA,NA,NA,NA,NA,NA,NA,NA,NA,NA,NA
1dd15,deep,flow.Sequence,3_0_1_0_0_0,NA,NA,skipped,NA,373546,NA,NA,373481,373546,2023-09-27T15:30:48Z,373546.78,NULL,Genehmigung,idhini,s,mwanamke,itikadi,fedheha,NA,sdfdsf,NA,1,NA,NA,NA,NA,NA,NA,NA,NA,NA,NA,NA,NA,NA,NA,NA,NA,NA,NA,NA
1dd15,Shallow Question,html.Page,3_0_1_0_0_1_0,NA,NA,form submission,11653.22,373547,373546.44,373546.78,385200,385200,2023-09-27T15:31:00Z,385204.72,NULL,Genehmigung,idhini,s,mwanamke,itikadi,fedheha,idhini,NA,NA,1,NA,NA,NA,NA,NA,NA,NA,NA,NA,NA,NA,NA,NA,NA,NA,NA,NA,NA,NA
1dd15,"""Richtig""-Screen",canvas.Screen,3_0_1_0_0_1_1,NA,NA,timeout,4999.48,385203,385197.24,385204.72,390187.9,390189,2023-09-27T15:31:05Z,390204.2,NULL,Genehmigung,idhini,s,mwanamke,itikadi,fedheha,NA,sdfdsf,1,1,NA,NA,NA,NA,NA,NA,NA,NA,NA,NA,NA,NA,NA,NA,NA,NA,NA,NA,NA
1dd15,"""Falsch""-Screen",canvas.Screen,3_0_1_0_0_1_2,NA,NA,skipped,NA,390195,NA,NA,390187.9,390195,2023-09-27T15:31:05Z,390204.2,NULL,Genehmigung,idhini,s,mwanamke,itikadi,fedheha,NA,sdfdsf,NA,1,NA,NA,NA,NA,NA,NA,NA,NA,NA,NA,NA,NA,NA,NA,NA,NA,NA,NA,NA
1dd15,shallow,flow.Sequence,3_0_1_0_0_1,NA,NA,completion,16641.12,373547,373546.44,373546.78,390187.9,390196,2023-09-27T15:31:05Z,390204.2,NULL,Genehmigung,idhini,s,mwanamke,itikadi,fedheha,NA,sdfdsf,NA,1,NA,NA,NA,NA,NA,NA,NA,NA,NA,NA,NA,NA,NA,NA,NA,NA,NA,NA,NA
1dd15,task,flow.Sequence,3_0_1_0_0,NA,NA,completion,16641.12,373546,373546.44,373546.78,390187.9,390196,2023-09-27T15:31:05Z,390204.2,NULL,Genehmigung,idhini,s,mwanamke,itikadi,fedheha,NA,sdfdsf,NA,1,NA,NA,NA,NA,NA,NA,NA,NA,NA,NA,NA,NA,NA,NA,NA,NA,NA,NA,NA
1dd15,Deep Question,html.Page,3_0_1_0_1_0_0,NA,NA,form submission,6055.8,390197,390187.9,390204.2,396260,396260,2023-09-27T15:31:11Z,396270.1,NULL,Fleisch,mshakiki,d,NA,NA,NA,tuzrini,NA,NA,1,NA,NA,NA,NA,NA,NA,NA,NA,NA,NA,NA,NA,NA,NA,NA,NA,NA,NA,NA
1dd15,"""Richtig""-Screen",canvas.Screen,3_0_1_0_1_0_1,NA,NA,skipped,NA,396263,NA,NA,396260,396263,2023-09-27T15:31:11Z,396270.1,NULL,Fleisch,mshakiki,d,NA,NA,NA,NA,sdfdsf,NA,1,NA,NA,NA,NA,NA,NA,NA,NA,NA,NA,NA,NA,NA,NA,NA,NA,NA,NA,NA
1dd15,"""Falsch""-Screen",canvas.Screen,3_0_1_0_1_0_2,NA,NA,timeout,4999.32,396266,396258.54,396270.1,401252.76,401254,2023-09-27T15:31:16Z,401269.42,NULL,Fleisch,mshakiki,d,NA,NA,NA,NA,sdfdsf,0,1,NA,NA,NA,NA,NA,NA,NA,NA,NA,NA,NA,NA,NA,NA,NA,NA,NA,NA,NA
1dd15,deep,flow.Sequence,3_0_1_0_1_0,NA,NA,completion,11048.56,390197,390187.9,390204.2,401252.76,401254,2023-09-27T15:31:16Z,401269.42,NULL,Fleisch,mshakiki,d,NA,NA,NA,NA,sdfdsf,NA,1,NA,NA,NA,NA,NA,NA,NA,NA,NA,NA,NA,NA,NA,NA,NA,NA,NA,NA,NA
1dd15,shallow,flow.Sequence,3_0_1_0_1_1,NA,NA,skipped,NA,401254,NA,NA,401252.76,401255,2023-09-27T15:31:16Z,401269.42,NULL,Fleisch,mshakiki,d,NA,NA,NA,NA,sdfdsf,NA,1,NA,NA,NA,NA,NA,NA,NA,NA,NA,NA,NA,NA,NA,NA,NA,NA,NA,NA,NA
1dd15,task,flow.Sequence,3_0_1_0_1,NA,NA,completion,11048.56,390197,390187.9,390204.2,401252.76,401255,2023-09-27T15:31:16Z,401269.42,NULL,Fleisch,mshakiki,d,NA,NA,NA,NA,sdfdsf,NA,1,NA,NA,NA,NA,NA,NA,NA,NA,NA,NA,NA,NA,NA,NA,NA,NA,NA,NA,NA
1dd15,deep,flow.Sequence,3_0_1_0_2_0,NA,NA,skipped,NA,401255,NA,NA,401252.76,401255,2023-09-27T15:31:16Z,401269.42,NULL,Begegnung,kukutana,s,mmasihiya,mpiganaji,husiano,NA,sdfdsf,NA,1,NA,NA,NA,NA,NA,NA,NA,NA,NA,NA,NA,NA,NA,NA,NA,NA,NA,NA,NA
1dd15,Shallow Question,html.Page,3_0_1_0_2_1_0,NA,NA,form submission,6498.58,401256,401252.76,401269.42,407768,407768,2023-09-27T15:31:22Z,407768.6,NULL,Begegnung,kukutana,s,mmasihiya,mpiganaji,husiano,kukutana,NA,NA,1,NA,NA,NA,NA,NA,NA,NA,NA,NA,NA,NA,NA,NA,NA,NA,NA,NA,NA,NA
1dd15,"""Richtig""-Screen",canvas.Screen,3_0_1_0_2_1_1,NA,NA,timeout,4999.34,407773,407762.64,407768.6,412751.62,412752,2023-09-27T15:31:27Z,412767.94,NULL,Begegnung,kukutana,s,mmasihiya,mpiganaji,husiano,NA,sdfdsf,1,1,NA,NA,NA,NA,NA,NA,NA,NA,NA,NA,NA,NA,NA,NA,NA,NA,NA,NA,NA
1dd15,"""Falsch""-Screen",canvas.Screen,3_0_1_0_2_1_2,NA,NA,skipped,NA,412759,NA,NA,412751.62,412759,2023-09-27T15:31:27Z,412767.94,NULL,Begegnung,kukutana,s,mmasihiya,mpiganaji,husiano,NA,sdfdsf,NA,1,NA,NA,NA,NA,NA,NA,NA,NA,NA,NA,NA,NA,NA,NA,NA,NA,NA,NA,NA
1dd15,shallow,flow.Sequence,3_0_1_0_2_1,NA,NA,completion,11482.2,401256,401252.76,401269.42,412751.62,412759,2023-09-27T15:31:27Z,412767.94,NULL,Begegnung,kukutana,s,mmasihiya,mpiganaji,husiano,NA,sdfdsf,NA,1,NA,NA,NA,NA,NA,NA,NA,NA,NA,NA,NA,NA,NA,NA,NA,NA,NA,NA,NA
1dd15,task,flow.Sequence,3_0_1_0_2,NA,NA,completion,11482.2,401255,401252.76,401269.42,412751.62,412759,2023-09-27T15:31:27Z,412767.94,NULL,Begegnung,kukutana,s,mmasihiya,mpiganaji,husiano,NA,sdfdsf,NA,1,NA,NA,NA,NA,NA,NA,NA,NA,NA,NA,NA,NA,NA,NA,NA,NA,NA,NA,NA
1dd15,deep,flow.Sequence,3_0_1_0_3_0,NA,NA,skipped,NA,412760,NA,NA,412751.62,412760,2023-09-27T15:31:27Z,412767.94,NULL,Toleranz,kuvumiliana,s,maombolezo,ujasusi,mchekeshaji,NA,sdfdsf,NA,1,NA,NA,NA,NA,NA,NA,NA,NA,NA,NA,NA,NA,NA,NA,NA,NA,NA,NA,NA
1dd15,Shallow Question,html.Page,3_0_1_0_3_1_0,NA,NA,form submission,13970.06,412760,412751.62,412767.94,426738,426738,2023-09-27T15:31:41Z,426749.44,NULL,Toleranz,kuvumiliana,s,maombolezo,ujasusi,mchekeshaji,ujasusi,NA,NA,1,NA,NA,NA,NA,NA,NA,NA,NA,NA,NA,NA,NA,NA,NA,NA,NA,NA,NA,NA
1dd15,"""Richtig""-Screen",canvas.Screen,3_0_1_0_3_1_1,NA,NA,skipped,NA,426744,NA,NA,426738,426744,2023-09-27T15:31:41Z,426749.44,NULL,Toleranz,kuvumiliana,s,maombolezo,ujasusi,mchekeshaji,NA,sdfdsf,NA,1,NA,NA,NA,NA,NA,NA,NA,NA,NA,NA,NA,NA,NA,NA,NA,NA,NA,NA,NA
1dd15,"""Falsch""-Screen",canvas.Screen,3_0_1_0_3_1_2,NA,NA,timeout,4999.4,426747,426733.86,426749.44,431732.22,431733,2023-09-27T15:31:46Z,431748.84,NULL,Toleranz,kuvumiliana,s,maombolezo,ujasusi,mchekeshaji,NA,sdfdsf,0,1,NA,NA,NA,NA,NA,NA,NA,NA,NA,NA,NA,NA,NA,NA,NA,NA,NA,NA,NA
1dd15,shallow,flow.Sequence,3_0_1_0_3_1,NA,NA,completion,18964.28,412760,412751.62,412767.94,431732.22,431734,2023-09-27T15:31:46Z,431748.84,NULL,Toleranz,kuvumiliana,s,maombolezo,ujasusi,mchekeshaji,NA,sdfdsf,NA,1,NA,NA,NA,NA,NA,NA,NA,NA,NA,NA,NA,NA,NA,NA,NA,NA,NA,NA,NA
1dd15,task,flow.Sequence,3_0_1_0_3,NA,NA,completion,18964.28,412759,412751.62,412767.94,431732.22,431735,2023-09-27T15:31:46Z,431748.84,NULL,Toleranz,kuvumiliana,s,maombolezo,ujasusi,mchekeshaji,NA,sdfdsf,NA,1,NA,NA,NA,NA,NA,NA,NA,NA,NA,NA,NA,NA,NA,NA,NA,NA,NA,NA,NA
1dd15,Deep Question,html.Page,3_0_1_0_4_0_0,NA,NA,form submission,3927.16,431735,431732.22,431748.84,435676,435676,2023-09-27T15:31:50Z,435681.7,NULL,Inhalt,yaliyomo,d,NA,NA,NA,beuitor,NA,NA,1,NA,NA,NA,NA,NA,NA,NA,NA,NA,NA,NA,NA,NA,NA,NA,NA,NA,NA,NA
1dd15,"""Richtig""-Screen",canvas.Screen,3_0_1_0_4_0_1,NA,NA,skipped,NA,435678,NA,NA,435676,435679,2023-09-27T15:31:50Z,435681.7,NULL,Inhalt,yaliyomo,d,NA,NA,NA,NA,sdfdsf,NA,1,NA,NA,NA,NA,NA,NA,NA,NA,NA,NA,NA,NA,NA,NA,NA,NA,NA,NA,NA
1dd15,"""Falsch""-Screen",canvas.Screen,3_0_1_0_4_0_2,NA,NA,timeout,4999.34,435682,435675,435681.7,440664.76,440669,2023-09-27T15:31:55Z,440681.04,NULL,Inhalt,yaliyomo,d,NA,NA,NA,NA,sdfdsf,0,1,NA,NA,NA,NA,NA,NA,NA,NA,NA,NA,NA,NA,NA,NA,NA,NA,NA,NA,NA
1dd15,deep,flow.Sequence,3_0_1_0_4_0,NA,NA,completion,8915.92,431735,431732.22,431748.84,440664.76,440672,2023-09-27T15:31:55Z,440681.04,NULL,Inhalt,yaliyomo,d,NA,NA,NA,NA,sdfdsf,NA,1,NA,NA,NA,NA,NA,NA,NA,NA,NA,NA,NA,NA,NA,NA,NA,NA,NA,NA,NA
1dd15,shallow,flow.Sequence,3_0_1_0_4_1,NA,NA,skipped,NA,440673,NA,NA,440664.76,440673,2023-09-27T15:31:55Z,440681.04,NULL,Inhalt,yaliyomo,d,NA,NA,NA,NA,sdfdsf,NA,1,NA,NA,NA,NA,NA,NA,NA,NA,NA,NA,NA,NA,NA,NA,NA,NA,NA,NA,NA
1dd15,task,flow.Sequence,3_0_1_0_4,NA,NA,completion,8915.92,431735,431732.22,431748.84,440664.76,440674,2023-09-27T15:31:55Z,440681.04,NULL,Inhalt,yaliyomo,d,NA,NA,NA,NA,sdfdsf,NA,1,NA,NA,NA,NA,NA,NA,NA,NA,NA,NA,NA,NA,NA,NA,NA,NA,NA,NA,NA
1dd15,Deep Question,html.Page,3_0_1_0_5_0_0,NA,NA,form submission,6551.96,440675,440664.76,440681.04,447233,447234,2023-09-27T15:32:02Z,447232.42,NULL,Integrität,uadilifu,d,NA,NA,NA,buoneas,NA,NA,1,NA,NA,NA,NA,NA,NA,NA,NA,NA,NA,NA,NA,NA,NA,NA,NA,NA,NA,NA
1dd15,"""Richtig""-Screen",canvas.Screen,3_0_1_0_5_0_1,NA,NA,skipped,NA,447241,NA,NA,447233,447241,2023-09-27T15:32:02Z,447232.42,NULL,Integrität,uadilifu,d,NA,NA,NA,NA,sdfdsf,NA,1,NA,NA,NA,NA,NA,NA,NA,NA,NA,NA,NA,NA,NA,NA,NA,NA,NA,NA,NA
1dd15,"""Falsch""-Screen",canvas.Screen,3_0_1_0_5_0_2,NA,NA,timeout,4997.12,447244,447232.06,447232.42,452212.94,452214,2023-09-27T15:32:07Z,452229.54,NULL,Integrität,uadilifu,d,NA,NA,NA,NA,sdfdsf,0,1,NA,NA,NA,NA,NA,NA,NA,NA,NA,NA,NA,NA,NA,NA,NA,NA,NA,NA,NA
1dd15,deep,flow.Sequence,3_0_1_0_5_0,NA,NA,completion,11531.9,440675,440664.76,440681.04,452212.94,452215,2023-09-27T15:32:07Z,452229.54,NULL,Integrität,uadilifu,d,NA,NA,NA,NA,sdfdsf,NA,1,NA,NA,NA,NA,NA,NA,NA,NA,NA,NA,NA,NA,NA,NA,NA,NA,NA,NA,NA
1dd15,shallow,flow.Sequence,3_0_1_0_5_1,NA,NA,skipped,NA,452215,NA,NA,452212.94,452215,2023-09-27T15:32:07Z,452229.54,NULL,Integrität,uadilifu,d,NA,NA,NA,NA,sdfdsf,NA,1,NA,NA,NA,NA,NA,NA,NA,NA,NA,NA,NA,NA,NA,NA,NA,NA,NA,NA,NA
1dd15,task,flow.Sequence,3_0_1_0_5,NA,NA,completion,11531.9,440674,440664.76,440681.04,452212.94,452216,2023-09-27T15:32:07Z,452229.54,NULL,Integrität,uadilifu,d,NA,NA,NA,NA,sdfdsf,NA,1,NA,NA,NA,NA,NA,NA,NA,NA,NA,NA,NA,NA,NA,NA,NA,NA,NA,NA,NA
1dd15,Deep Question,html.Page,3_0_1_0_6_0_0,NA,NA,form submission,13680.46,452217,452212.94,452229.54,465910,465910,2023-09-27T15:32:20Z,465911.1,NULL,Vermutung,udhanifu,d,NA,NA,NA,lriuon,NA,NA,1,NA,NA,NA,NA,NA,NA,NA,NA,NA,NA,NA,NA,NA,NA,NA,NA,NA,NA,NA
1dd15,"""Richtig""-Screen",canvas.Screen,3_0_1_0_6_0_1,NA,NA,skipped,NA,465912,NA,NA,465910,465912,2023-09-27T15:32:20Z,465911.1,NULL,Vermutung,udhanifu,d,NA,NA,NA,NA,sdfdsf,NA,1,NA,NA,NA,NA,NA,NA,NA,NA,NA,NA,NA,NA,NA,NA,NA,NA,NA,NA,NA
1dd15,"""Falsch""-Screen",canvas.Screen,3_0_1_0_6_0_2,NA,NA,timeout,4999.38,465914,465909.52,465911.1,470893.82,470895,2023-09-27T15:32:25Z,470910.48,NULL,Vermutung,udhanifu,d,NA,NA,NA,NA,sdfdsf,0,1,NA,NA,NA,NA,NA,NA,NA,NA,NA,NA,NA,NA,NA,NA,NA,NA,NA,NA,NA
1dd15,deep,flow.Sequence,3_0_1_0_6_0,NA,NA,completion,18664.28,452217,452212.94,452229.54,470893.82,470896,2023-09-27T15:32:25Z,470910.48,NULL,Vermutung,udhanifu,d,NA,NA,NA,NA,sdfdsf,NA,1,NA,NA,NA,NA,NA,NA,NA,NA,NA,NA,NA,NA,NA,NA,NA,NA,NA,NA,NA
1dd15,shallow,flow.Sequence,3_0_1_0_6_1,NA,NA,skipped,NA,470896,NA,NA,470893.82,470896,2023-09-27T15:32:25Z,470910.48,NULL,Vermutung,udhanifu,d,NA,NA,NA,NA,sdfdsf,NA,1,NA,NA,NA,NA,NA,NA,NA,NA,NA,NA,NA,NA,NA,NA,NA,NA,NA,NA,NA
1dd15,task,flow.Sequence,3_0_1_0_6,NA,NA,completion,18664.28,452216,452212.94,452229.54,470893.82,470897,2023-09-27T15:32:25Z,470910.48,NULL,Vermutung,udhanifu,d,NA,NA,NA,NA,sdfdsf,NA,1,NA,NA,NA,NA,NA,NA,NA,NA,NA,NA,NA,NA,NA,NA,NA,NA,NA,NA,NA
1dd15,deep,flow.Sequence,3_0_1_0_7_0,NA,NA,skipped,NA,470897,NA,NA,470893.82,470898,2023-09-27T15:32:25Z,470910.48,NULL,Schlange,foleni,s,uvumilivu,uteuzi,muuzaji,NA,sdfdsf,NA,1,NA,NA,NA,NA,NA,NA,NA,NA,NA,NA,NA,NA,NA,NA,NA,NA,NA,NA,NA
1dd15,Shallow Question,html.Page,3_0_1_0_7_1_0,NA,NA,form submission,16065.52,470898,470893.82,470910.48,486976,486976,2023-09-27T15:32:41Z,486975.1,NULL,Schlange,foleni,s,uvumilivu,uteuzi,muuzaji,uvumilivu,NA,NA,1,NA,NA,NA,NA,NA,NA,NA,NA,NA,NA,NA,NA,NA,NA,NA,NA,NA,NA,NA
1dd15,"""Richtig""-Screen",canvas.Screen,3_0_1_0_7_1_1,NA,NA,skipped,NA,486980,NA,NA,486976,486980,2023-09-27T15:32:41Z,486975.1,NULL,Schlange,foleni,s,uvumilivu,uteuzi,muuzaji,NA,sdfdsf,NA,1,NA,NA,NA,NA,NA,NA,NA,NA,NA,NA,NA,NA,NA,NA,NA,NA,NA,NA,NA
1dd15,"""Falsch""-Screen",canvas.Screen,3_0_1_0_7_1_2,NA,NA,timeout,4999.38,486985,486971.84,486975.1,491958.3,491960,2023-09-27T15:32:46Z,491974.48,NULL,Schlange,foleni,s,uvumilivu,uteuzi,muuzaji,NA,sdfdsf,0,1,NA,NA,NA,NA,NA,NA,NA,NA,NA,NA,NA,NA,NA,NA,NA,NA,NA,NA,NA
1dd15,shallow,flow.Sequence,3_0_1_0_7_1,NA,NA,completion,21047.82,470898,470893.82,470910.48,491958.3,491960,2023-09-27T15:32:46Z,491974.48,NULL,Schlange,foleni,s,uvumilivu,uteuzi,muuzaji,NA,sdfdsf,NA,1,NA,NA,NA,NA,NA,NA,NA,NA,NA,NA,NA,NA,NA,NA,NA,NA,NA,NA,NA
1dd15,task,flow.Sequence,3_0_1_0_7,NA,NA,completion,21047.82,470897,470893.82,470910.48,491958.3,491961,2023-09-27T15:32:46Z,491974.48,NULL,Schlange,foleni,s,uvumilivu,uteuzi,muuzaji,NA,sdfdsf,NA,1,NA,NA,NA,NA,NA,NA,NA,NA,NA,NA,NA,NA,NA,NA,NA,NA,NA,NA,NA
1dd15,block,flow.Loop,3_0_1_0,NA,NA,completion,118411.52,373546,373546.44,373546.78,491958.3,491961,2023-09-27T15:32:46Z,491974.48,NULL,NA,NA,NA,NA,NA,NA,NA,sdfdsf,NA,1,NA,NA,NA,NA,NA,NA,NA,NA,NA,NA,NA,NA,NA,NA,NA,NA,NA,NA,NA
1dd15,weiter,canvas.Screen,3_0_1_1,sdf,keypress(Space),response,1256.52,491962,491958.3,491974.48,493231,493244,2023-09-27T15:32:48Z,493307.54,NULL,NA,NA,NA,NA,NA,NA,NA,sdfdsf,NA,1,NA,NA,NA,NA,NA,NA,NA,NA,NA,NA,NA,NA,NA,NA,NA,NA,NA,NA,NA
1dd15,check continue,flow.Sequence,3_0_1,NA,NA,completion,119684.22,373546,373546.44,373546.78,493231,493245,2023-09-27T15:32:48Z,493307.54,NULL,NA,NA,NA,NA,NA,NA,NA,sdfdsf,NA,1,NA,NA,NA,NA,NA,NA,NA,NA,NA,NA,NA,NA,NA,NA,NA,NA,NA,NA,NA
1dd15,Deep Question,html.Page,3_0_2_0_0_0_0,NA,NA,form submission,9468.46,493307,493307.18,493307.54,502776,502778,2023-09-27T15:32:57Z,502789.7,NULL,Fleisch,mshakiki,d,NA,NA,NA,uvumiuo,NA,NA,2,NA,NA,NA,NA,NA,NA,NA,NA,NA,NA,NA,NA,NA,NA,NA,NA,NA,NA,NA
1dd15,"""Richtig""-Screen",canvas.Screen,3_0_2_0_0_0_1,NA,NA,skipped,NA,502785,NA,NA,502776,502786,2023-09-27T15:32:57Z,502789.7,NULL,Fleisch,mshakiki,d,NA,NA,NA,NA,sdf,NA,2,NA,NA,NA,NA,NA,NA,NA,NA,NA,NA,NA,NA,NA,NA,NA,NA,NA,NA,NA
1dd15,"""Falsch""-Screen",canvas.Screen,3_0_2_0_0_0_2,NA,NA,timeout,4999.36,502789,502774.54,502789.7,507772.52,507774,2023-09-27T15:33:02Z,507789.06,NULL,Fleisch,mshakiki,d,NA,NA,NA,NA,sdf,0,2,NA,NA,NA,NA,NA,NA,NA,NA,NA,NA,NA,NA,NA,NA,NA,NA,NA,NA,NA
1dd15,deep,flow.Sequence,3_0_2_0_0_0,NA,NA,completion,14464.98,493307,493307.18,493307.54,507772.52,507775,2023-09-27T15:33:02Z,507789.06,NULL,Fleisch,mshakiki,d,NA,NA,NA,NA,sdf,NA,2,NA,NA,NA,NA,NA,NA,NA,NA,NA,NA,NA,NA,NA,NA,NA,NA,NA,NA,NA
1dd15,shallow,flow.Sequence,3_0_2_0_0_1,NA,NA,skipped,NA,507775,NA,NA,507772.52,507775,2023-09-27T15:33:02Z,507789.06,NULL,Fleisch,mshakiki,d,NA,NA,NA,NA,sdf,NA,2,NA,NA,NA,NA,NA,NA,NA,NA,NA,NA,NA,NA,NA,NA,NA,NA,NA,NA,NA
1dd15,task,flow.Sequence,3_0_2_0_0,NA,NA,completion,14464.98,493307,493307.18,493307.54,507772.52,507776,2023-09-27T15:33:02Z,507789.06,NULL,Fleisch,mshakiki,d,NA,NA,NA,NA,sdf,NA,2,NA,NA,NA,NA,NA,NA,NA,NA,NA,NA,NA,NA,NA,NA,NA,NA,NA,NA,NA
1dd15,deep,flow.Sequence,3_0_2_0_1_0,NA,NA,skipped,NA,507777,NA,NA,507772.52,507777,2023-09-27T15:33:02Z,507789.06,NULL,Begegnung,kukutana,s,mmasihiya,mpiganaji,husiano,NA,sdf,NA,2,NA,NA,NA,NA,NA,NA,NA,NA,NA,NA,NA,NA,NA,NA,NA,NA,NA,NA,NA
1dd15,Shallow Question,html.Page,3_0_2_0_1_1_0,NA,NA,form submission,10335.94,507778,507772.52,507789.06,518125,518126,2023-09-27T15:33:13Z,518121.22,NULL,Begegnung,kukutana,s,mmasihiya,mpiganaji,husiano,kukutana,NA,NA,2,NA,NA,NA,NA,NA,NA,NA,NA,NA,NA,NA,NA,NA,NA,NA,NA,NA,NA,NA
1dd15,"""Richtig""-Screen",canvas.Screen,3_0_2_0_1_1_1,NA,NA,timeout,4999.26,518130,518119.66,518121.22,523103.86,523106,2023-09-27T15:33:17Z,523120.48,NULL,Begegnung,kukutana,s,mmasihiya,mpiganaji,husiano,NA,sdf,1,2,NA,NA,NA,NA,NA,NA,NA,NA,NA,NA,NA,NA,NA,NA,NA,NA,NA,NA,NA
1dd15,"""Falsch""-Screen",canvas.Screen,3_0_2_0_1_1_2,NA,NA,skipped,NA,523112,NA,NA,523103.86,523112,2023-09-27T15:33:18Z,523120.48,NULL,Begegnung,kukutana,s,mmasihiya,mpiganaji,husiano,NA,sdf,NA,2,NA,NA,NA,NA,NA,NA,NA,NA,NA,NA,NA,NA,NA,NA,NA,NA,NA,NA,NA
1dd15,shallow,flow.Sequence,3_0_2_0_1_1,NA,NA,completion,15314.8,507778,507772.52,507789.06,523103.86,523113,2023-09-27T15:33:18Z,523120.48,NULL,Begegnung,kukutana,s,mmasihiya,mpiganaji,husiano,NA,sdf,NA,2,NA,NA,NA,NA,NA,NA,NA,NA,NA,NA,NA,NA,NA,NA,NA,NA,NA,NA,NA
1dd15,task,flow.Sequence,3_0_2_0_1,NA,NA,completion,15314.8,507776,507772.52,507789.06,523103.86,523114,2023-09-27T15:33:18Z,523120.48,NULL,Begegnung,kukutana,s,mmasihiya,mpiganaji,husiano,NA,sdf,NA,2,NA,NA,NA,NA,NA,NA,NA,NA,NA,NA,NA,NA,NA,NA,NA,NA,NA,NA,NA
1dd15,deep,flow.Sequence,3_0_2_0_2_0,NA,NA,skipped,NA,523115,NA,NA,523103.86,523115,2023-09-27T15:33:18Z,523120.48,NULL,Toleranz,kuvumiliana,s,maombolezo,ujasusi,mchekeshaji,NA,sdf,NA,2,NA,NA,NA,NA,NA,NA,NA,NA,NA,NA,NA,NA,NA,NA,NA,NA,NA,NA,NA
1dd15,Shallow Question,html.Page,3_0_2_0_2_1_0,NA,NA,form submission,5484.52,523116,523103.86,523120.48,528605,528605,2023-09-27T15:33:23Z,528621.12,NULL,Toleranz,kuvumiliana,s,maombolezo,ujasusi,mchekeshaji,kuvumiliana,NA,NA,2,NA,NA,NA,NA,NA,NA,NA,NA,NA,NA,NA,NA,NA,NA,NA,NA,NA,NA,NA
1dd15,"""Richtig""-Screen",canvas.Screen,3_0_2_0_2_1_1,NA,NA,timeout,4997.96,528606,528602.28,528621.12,533602.46,533607,2023-09-27T15:33:28Z,533619.08,NULL,Toleranz,kuvumiliana,s,maombolezo,ujasusi,mchekeshaji,NA,sdf,1,2,NA,NA,NA,NA,NA,NA,NA,NA,NA,NA,NA,NA,NA,NA,NA,NA,NA,NA,NA
1dd15,"""Falsch""-Screen",canvas.Screen,3_0_2_0_2_1_2,NA,NA,skipped,NA,533614,NA,NA,533602.46,533614,2023-09-27T15:33:28Z,533619.08,NULL,Toleranz,kuvumiliana,s,maombolezo,ujasusi,mchekeshaji,NA,sdf,NA,2,NA,NA,NA,NA,NA,NA,NA,NA,NA,NA,NA,NA,NA,NA,NA,NA,NA,NA,NA
1dd15,shallow,flow.Sequence,3_0_2_0_2_1,NA,NA,completion,10481.98,523116,523103.86,523120.48,533602.46,533614,2023-09-27T15:33:28Z,533619.08,NULL,Toleranz,kuvumiliana,s,maombolezo,ujasusi,mchekeshaji,NA,sdf,NA,2,NA,NA,NA,NA,NA,NA,NA,NA,NA,NA,NA,NA,NA,NA,NA,NA,NA,NA,NA
1dd15,task,flow.Sequence,3_0_2_0_2,NA,NA,completion,10481.98,523114,523103.86,523120.48,533602.46,533615,2023-09-27T15:33:28Z,533619.08,NULL,Toleranz,kuvumiliana,s,maombolezo,ujasusi,mchekeshaji,NA,sdf,NA,2,NA,NA,NA,NA,NA,NA,NA,NA,NA,NA,NA,NA,NA,NA,NA,NA,NA,NA,NA
1dd15,deep,flow.Sequence,3_0_2_0_3_0,NA,NA,skipped,NA,533616,NA,NA,533602.46,533616,2023-09-27T15:33:28Z,533619.08,NULL,Genehmigung,idhini,s,mwanamke,itikadi,fedheha,NA,sdf,NA,2,NA,NA,NA,NA,NA,NA,NA,NA,NA,NA,NA,NA,NA,NA,NA,NA,NA,NA,NA
1dd15,Shallow Question,html.Page,3_0_2_0_3_1_0,NA,NA,form submission,11640.92,533616,533602.46,533619.08,545260,545261,2023-09-27T15:33:40Z,545267.6,NULL,Genehmigung,idhini,s,mwanamke,itikadi,fedheha,mwanamke,NA,NA,2,NA,NA,NA,NA,NA,NA,NA,NA,NA,NA,NA,NA,NA,NA,NA,NA,NA,NA,NA
1dd15,"""Richtig""-Screen",canvas.Screen,3_0_2_0_3_1_1,NA,NA,skipped,NA,545267,NA,NA,545260,545267,2023-09-27T15:33:40Z,545267.6,NULL,Genehmigung,idhini,s,mwanamke,itikadi,fedheha,NA,sdf,NA,2,NA,NA,NA,NA,NA,NA,NA,NA,NA,NA,NA,NA,NA,NA,NA,NA,NA,NA,NA
1dd15,"""Falsch""-Screen",canvas.Screen,3_0_2_0_3_1_2,NA,NA,timeout,4999.42,545271,545255.44,545267.6,550250.44,550251,2023-09-27T15:33:45Z,550267.02,NULL,Genehmigung,idhini,s,mwanamke,itikadi,fedheha,NA,sdf,0,2,NA,NA,NA,NA,NA,NA,NA,NA,NA,NA,NA,NA,NA,NA,NA,NA,NA,NA,NA
1dd15,shallow,flow.Sequence,3_0_2_0_3_1,NA,NA,completion,16631.36,533616,533602.46,533619.08,550250.44,550252,2023-09-27T15:33:45Z,550267.02,NULL,Genehmigung,idhini,s,mwanamke,itikadi,fedheha,NA,sdf,NA,2,NA,NA,NA,NA,NA,NA,NA,NA,NA,NA,NA,NA,NA,NA,NA,NA,NA,NA,NA
1dd15,task,flow.Sequence,3_0_2_0_3,NA,NA,completion,16631.36,533616,533602.46,533619.08,550250.44,550252,2023-09-27T15:33:45Z,550267.02,NULL,Genehmigung,idhini,s,mwanamke,itikadi,fedheha,NA,sdf,NA,2,NA,NA,NA,NA,NA,NA,NA,NA,NA,NA,NA,NA,NA,NA,NA,NA,NA,NA,NA
1dd15,Deep Question,html.Page,3_0_2_0_4_0_0,NA,NA,form submission,9234.98,550254,550250.44,550267.02,559502,559503,2023-09-27T15:33:54Z,559515.86,NULL,Inhalt,yaliyomo,d,NA,NA,NA,mdhadani,NA,NA,2,NA,NA,NA,NA,NA,NA,NA,NA,NA,NA,NA,NA,NA,NA,NA,NA,NA,NA,NA
1dd15,"""Richtig""-Screen",canvas.Screen,3_0_2_0_4_0_1,NA,NA,skipped,NA,559505,NA,NA,559502,559505,2023-09-27T15:33:54Z,559515.86,NULL,Inhalt,yaliyomo,d,NA,NA,NA,NA,sdf,NA,2,NA,NA,NA,NA,NA,NA,NA,NA,NA,NA,NA,NA,NA,NA,NA,NA,NA,NA,NA
1dd15,"""Falsch""-Screen",canvas.Screen,3_0_2_0_4_0_2,NA,NA,timeout,4999.5600000001,559507,559501.14,559515.86,564499.1,564500,2023-09-27T15:33:59Z,564515.42,NULL,Inhalt,yaliyomo,d,NA,NA,NA,NA,sdf,0,2,NA,NA,NA,NA,NA,NA,NA,NA,NA,NA,NA,NA,NA,NA,NA,NA,NA,NA,NA
1dd15,deep,flow.Sequence,3_0_2_0_4_0,NA,NA,completion,14232.08,550253,550250.44,550267.02,564499.1,564501,2023-09-27T15:33:59Z,564515.42,NULL,Inhalt,yaliyomo,d,NA,NA,NA,NA,sdf,NA,2,NA,NA,NA,NA,NA,NA,NA,NA,NA,NA,NA,NA,NA,NA,NA,NA,NA,NA,NA
1dd15,shallow,flow.Sequence,3_0_2_0_4_1,NA,NA,skipped,NA,564501,NA,NA,564499.1,564501,2023-09-27T15:33:59Z,564515.42,NULL,Inhalt,yaliyomo,d,NA,NA,NA,NA,sdf,NA,2,NA,NA,NA,NA,NA,NA,NA,NA,NA,NA,NA,NA,NA,NA,NA,NA,NA,NA,NA
1dd15,task,flow.Sequence,3_0_2_0_4,NA,NA,completion,14232.08,550253,550250.44,550267.02,564499.1,564501,2023-09-27T15:33:59Z,564515.42,NULL,Inhalt,yaliyomo,d,NA,NA,NA,NA,sdf,NA,2,NA,NA,NA,NA,NA,NA,NA,NA,NA,NA,NA,NA,NA,NA,NA,NA,NA,NA,NA
1dd15,deep,flow.Sequence,3_0_2_0_5_0,NA,NA,skipped,NA,564502,NA,NA,564499.1,564502,2023-09-27T15:33:59Z,564515.42,NULL,Schlange,foleni,s,uvumilivu,uteuzi,muuzaji,NA,sdf,NA,2,NA,NA,NA,NA,NA,NA,NA,NA,NA,NA,NA,NA,NA,NA,NA,NA,NA,NA,NA
1dd15,Shallow Question,html.Page,3_0_2_0_5_1_0,NA,NA,form submission,11374.58,564503,564499.1,564515.42,575890,575891,2023-09-27T15:34:10Z,575897,NULL,Schlange,foleni,s,uvumilivu,uteuzi,muuzaji,foleni,NA,NA,2,NA,NA,NA,NA,NA,NA,NA,NA,NA,NA,NA,NA,NA,NA,NA,NA,NA,NA,NA
1dd15,"""Richtig""-Screen",canvas.Screen,3_0_2_0_5_1_1,NA,NA,timeout,4999.42,575895,575885.26,575897,580880.16,580881,2023-09-27T15:34:15Z,580896.42,NULL,Schlange,foleni,s,uvumilivu,uteuzi,muuzaji,NA,sdf,1,2,NA,NA,NA,NA,NA,NA,NA,NA,NA,NA,NA,NA,NA,NA,NA,NA,NA,NA,NA
1dd15,"""Falsch""-Screen",canvas.Screen,3_0_2_0_5_1_2,NA,NA,skipped,NA,580888,NA,NA,580880.16,580888,2023-09-27T15:34:15Z,580896.42,NULL,Schlange,foleni,s,uvumilivu,uteuzi,muuzaji,NA,sdf,NA,2,NA,NA,NA,NA,NA,NA,NA,NA,NA,NA,NA,NA,NA,NA,NA,NA,NA,NA,NA
1dd15,shallow,flow.Sequence,3_0_2_0_5_1,NA,NA,completion,16364.74,564503,564499.1,564515.42,580880.16,580889,2023-09-27T15:34:15Z,580896.42,NULL,Schlange,foleni,s,uvumilivu,uteuzi,muuzaji,NA,sdf,NA,2,NA,NA,NA,NA,NA,NA,NA,NA,NA,NA,NA,NA,NA,NA,NA,NA,NA,NA,NA
1dd15,task,flow.Sequence,3_0_2_0_5,NA,NA,completion,16364.74,564502,564499.1,564515.42,580880.16,580889,2023-09-27T15:34:15Z,580896.42,NULL,Schlange,foleni,s,uvumilivu,uteuzi,muuzaji,NA,sdf,NA,2,NA,NA,NA,NA,NA,NA,NA,NA,NA,NA,NA,NA,NA,NA,NA,NA,NA,NA,NA
1dd15,Deep Question,html.Page,3_0_2_0_6_0_0,NA,NA,form submission,7515.58,580889,580880.16,580896.42,588412,588412,2023-09-27T15:34:23Z,588412.1,NULL,Integrität,uadilifu,d,NA,NA,NA,muovrani,NA,NA,2,NA,NA,NA,NA,NA,NA,NA,NA,NA,NA,NA,NA,NA,NA,NA,NA,NA,NA,NA
1dd15,"""Richtig""-Screen",canvas.Screen,3_0_2_0_6_0_1,NA,NA,skipped,NA,588414,NA,NA,588412,588414,2023-09-27T15:34:23Z,588412.1,NULL,Integrität,uadilifu,d,NA,NA,NA,NA,sdf,NA,2,NA,NA,NA,NA,NA,NA,NA,NA,NA,NA,NA,NA,NA,NA,NA,NA,NA,NA,NA
1dd15,"""Falsch""-Screen",canvas.Screen,3_0_2_0_6_0_2,NA,NA,timeout,4999.48,588415,588410.86,588412.1,593395.14,593396,2023-09-27T15:34:28Z,593411.58,NULL,Integrität,uadilifu,d,NA,NA,NA,NA,sdf,0,2,NA,NA,NA,NA,NA,NA,NA,NA,NA,NA,NA,NA,NA,NA,NA,NA,NA,NA,NA
1dd15,deep,flow.Sequence,3_0_2_0_6_0,NA,NA,completion,12498.72,580889,580880.16,580896.42,593395.14,593397,2023-09-27T15:34:28Z,593411.58,NULL,Integrität,uadilifu,d,NA,NA,NA,NA,sdf,NA,2,NA,NA,NA,NA,NA,NA,NA,NA,NA,NA,NA,NA,NA,NA,NA,NA,NA,NA,NA
1dd15,shallow,flow.Sequence,3_0_2_0_6_1,NA,NA,skipped,NA,593397,NA,NA,593395.14,593397,2023-09-27T15:34:28Z,593411.58,NULL,Integrität,uadilifu,d,NA,NA,NA,NA,sdf,NA,2,NA,NA,NA,NA,NA,NA,NA,NA,NA,NA,NA,NA,NA,NA,NA,NA,NA,NA,NA
1dd15,task,flow.Sequence,3_0_2_0_6,NA,NA,completion,12498.72,580889,580880.16,580896.42,593395.14,593398,2023-09-27T15:34:28Z,593411.58,NULL,Integrität,uadilifu,d,NA,NA,NA,NA,sdf,NA,2,NA,NA,NA,NA,NA,NA,NA,NA,NA,NA,NA,NA,NA,NA,NA,NA,NA,NA,NA
1dd15,Deep Question,html.Page,3_0_2_0_7_0_0,NA,NA,form submission,10862.42,593398,593395.14,593411.58,604274,604274,2023-09-27T15:34:39Z,604276.78,NULL,Vermutung,udhanifu,d,NA,NA,NA,mdhanati,NA,NA,2,NA,NA,NA,NA,NA,NA,NA,NA,NA,NA,NA,NA,NA,NA,NA,NA,NA,NA,NA
1dd15,"""Richtig""-Screen",canvas.Screen,3_0_2_0_7_0_1,NA,NA,skipped,NA,604277,NA,NA,604274,604277,2023-09-27T15:34:39Z,604276.78,NULL,Vermutung,udhanifu,d,NA,NA,NA,NA,sdf,NA,2,NA,NA,NA,NA,NA,NA,NA,NA,NA,NA,NA,NA,NA,NA,NA,NA,NA,NA,NA
1dd15,"""Falsch""-Screen",canvas.Screen,3_0_2_0_7_0_2,NA,NA,timeout,4999.4,604279,604273.5,604276.78,609260,609261,2023-09-27T15:34:44Z,609276.18,NULL,Vermutung,udhanifu,d,NA,NA,NA,NA,sdf,0,2,NA,NA,NA,NA,NA,NA,NA,NA,NA,NA,NA,NA,NA,NA,NA,NA,NA,NA,NA
1dd15,deep,flow.Sequence,3_0_2_0_7_0,NA,NA,completion,15848.42,593398,593395.14,593411.58,609260,609262,2023-09-27T15:34:44Z,609276.18,NULL,Vermutung,udhanifu,d,NA,NA,NA,NA,sdf,NA,2,NA,NA,NA,NA,NA,NA,NA,NA,NA,NA,NA,NA,NA,NA,NA,NA,NA,NA,NA
1dd15,shallow,flow.Sequence,3_0_2_0_7_1,NA,NA,skipped,NA,609262,NA,NA,609260,609262,2023-09-27T15:34:44Z,609276.18,NULL,Vermutung,udhanifu,d,NA,NA,NA,NA,sdf,NA,2,NA,NA,NA,NA,NA,NA,NA,NA,NA,NA,NA,NA,NA,NA,NA,NA,NA,NA,NA
1dd15,task,flow.Sequence,3_0_2_0_7,NA,NA,completion,15848.42,593398,593395.14,593411.58,609260,609262,2023-09-27T15:34:44Z,609276.18,NULL,Vermutung,udhanifu,d,NA,NA,NA,NA,sdf,NA,2,NA,NA,NA,NA,NA,NA,NA,NA,NA,NA,NA,NA,NA,NA,NA,NA,NA,NA,NA
1dd15,block,flow.Loop,3_0_2_0,NA,NA,completion,115952.46,493307,493307.18,493307.54,609260,609263,2023-09-27T15:34:44Z,609276.18,NULL,NA,NA,NA,NA,NA,NA,NA,sdf,NA,2,NA,NA,NA,NA,NA,NA,NA,NA,NA,NA,NA,NA,NA,NA,NA,NA,NA,NA,NA
1dd15,weiter,canvas.Screen,3_0_2_1,sdf,keypress(Space),response,1329.8199999999,609263,609260,609276.18,610606,610622,2023-09-27T15:34:45Z,610680.08,NULL,NA,NA,NA,NA,NA,NA,NA,sdf,NA,2,NA,NA,NA,NA,NA,NA,NA,NA,NA,NA,NA,NA,NA,NA,NA,NA,NA,NA,NA
1dd15,check continue,flow.Sequence,3_0_2,NA,NA,completion,117298.46,493307,493307.18,493307.54,610606,610624,2023-09-27T15:34:45Z,610680.08,NULL,NA,NA,NA,NA,NA,NA,NA,sdf,NA,2,NA,NA,NA,NA,NA,NA,NA,NA,NA,NA,NA,NA,NA,NA,NA,NA,NA,NA,NA
1dd15,deep,flow.Sequence,3_0_3_0_0_0,NA,NA,skipped,NA,610679,NA,NA,610606,610680,2023-09-27T15:34:45Z,610680.08,NULL,Schlange,foleni,s,uvumilivu,uteuzi,muuzaji,NA,qt,NA,3,NA,NA,NA,NA,NA,NA,NA,NA,NA,NA,NA,NA,NA,NA,NA,NA,NA,NA,NA
1dd15,Shallow Question,html.Page,3_0_3_0_0_1_0,NA,NA,form submission,4543.92,610680,610679.74,610680.08,615224,615227,2023-09-27T15:34:50Z,615225.4,NULL,Schlange,foleni,s,uvumilivu,uteuzi,muuzaji,foleni,NA,NA,3,NA,NA,NA,NA,NA,NA,NA,NA,NA,NA,NA,NA,NA,NA,NA,NA,NA,NA,NA
1dd15,"""Richtig""-Screen",canvas.Screen,3_0_3_0_0_1_1,NA,NA,timeout,4999.4199999999,615238,615218.28,615225.4,620208.54,620210,2023-09-27T15:34:55Z,620224.82,NULL,Schlange,foleni,s,uvumilivu,uteuzi,muuzaji,NA,qt,1,3,NA,NA,NA,NA,NA,NA,NA,NA,NA,NA,NA,NA,NA,NA,NA,NA,NA,NA,NA
1dd15,"""Falsch""-Screen",canvas.Screen,3_0_3_0_0_1_2,NA,NA,skipped,NA,620217,NA,NA,620208.54,620218,2023-09-27T15:34:55Z,620224.82,NULL,Schlange,foleni,s,uvumilivu,uteuzi,muuzaji,NA,qt,NA,3,NA,NA,NA,NA,NA,NA,NA,NA,NA,NA,NA,NA,NA,NA,NA,NA,NA,NA,NA
1dd15,shallow,flow.Sequence,3_0_3_0_0_1,NA,NA,completion,9528.4600000001,610680,610679.74,610680.08,620208.54,620219,2023-09-27T15:34:55Z,620224.82,NULL,Schlange,foleni,s,uvumilivu,uteuzi,muuzaji,NA,qt,NA,3,NA,NA,NA,NA,NA,NA,NA,NA,NA,NA,NA,NA,NA,NA,NA,NA,NA,NA,NA
1dd15,task,flow.Sequence,3_0_3_0_0,NA,NA,completion,9528.4600000001,610679,610679.74,610680.08,620208.54,620219,2023-09-27T15:34:55Z,620224.82,NULL,Schlange,foleni,s,uvumilivu,uteuzi,muuzaji,NA,qt,NA,3,NA,NA,NA,NA,NA,NA,NA,NA,NA,NA,NA,NA,NA,NA,NA,NA,NA,NA,NA
1dd15,Deep Question,html.Page,3_0_3_0_1_0_0,NA,NA,form submission,13710.18,620220,620208.54,620224.82,633935,633935,2023-09-27T15:35:08Z,633939.68,NULL,Integrität,uadilifu,d,NA,NA,NA,uvhatrie,NA,NA,3,NA,NA,NA,NA,NA,NA,NA,NA,NA,NA,NA,NA,NA,NA,NA,NA,NA,NA,NA
1dd15,"""Richtig""-Screen",canvas.Screen,3_0_3_0_1_0_1,NA,NA,skipped,NA,633938,NA,NA,633935,633938,2023-09-27T15:35:08Z,633939.68,NULL,Integrität,uadilifu,d,NA,NA,NA,NA,qt,NA,3,NA,NA,NA,NA,NA,NA,NA,NA,NA,NA,NA,NA,NA,NA,NA,NA,NA,NA,NA
1dd15,"""Falsch""-Screen",canvas.Screen,3_0_3_0_1_0_2,NA,NA,timeout,4999.46,633941,633933.38,633939.68,638922.34,638924,2023-09-27T15:35:13Z,638939.14,NULL,Integrität,uadilifu,d,NA,NA,NA,NA,qt,0,3,NA,NA,NA,NA,NA,NA,NA,NA,NA,NA,NA,NA,NA,NA,NA,NA,NA,NA,NA
1dd15,deep,flow.Sequence,3_0_3_0_1_0,NA,NA,completion,18697.52,620220,620208.54,620224.82,638922.34,638924,2023-09-27T15:35:13Z,638939.14,NULL,Integrität,uadilifu,d,NA,NA,NA,NA,qt,NA,3,NA,NA,NA,NA,NA,NA,NA,NA,NA,NA,NA,NA,NA,NA,NA,NA,NA,NA,NA
1dd15,shallow,flow.Sequence,3_0_3_0_1_1,NA,NA,skipped,NA,638924,NA,NA,638922.34,638924,2023-09-27T15:35:13Z,638939.14,NULL,Integrität,uadilifu,d,NA,NA,NA,NA,qt,NA,3,NA,NA,NA,NA,NA,NA,NA,NA,NA,NA,NA,NA,NA,NA,NA,NA,NA,NA,NA
1dd15,task,flow.Sequence,3_0_3_0_1,NA,NA,completion,18697.52,620220,620208.54,620224.82,638922.34,638924,2023-09-27T15:35:13Z,638939.14,NULL,Integrität,uadilifu,d,NA,NA,NA,NA,qt,NA,3,NA,NA,NA,NA,NA,NA,NA,NA,NA,NA,NA,NA,NA,NA,NA,NA,NA,NA,NA
1dd15,Deep Question,html.Page,3_0_3_0_2_0_0,NA,NA,form submission,10641.86,638924,638922.34,638939.14,649581,649581,2023-09-27T15:35:24Z,649587.68,NULL,Fleisch,mshakiki,d,NA,NA,NA,mdhanani,NA,NA,3,NA,NA,NA,NA,NA,NA,NA,NA,NA,NA,NA,NA,NA,NA,NA,NA,NA,NA,NA
1dd15,"""Richtig""-Screen",canvas.Screen,3_0_3_0_2_0_1,NA,NA,skipped,NA,649584,NA,NA,649581,649585,2023-09-27T15:35:24Z,649587.68,NULL,Fleisch,mshakiki,d,NA,NA,NA,NA,qt,NA,3,NA,NA,NA,NA,NA,NA,NA,NA,NA,NA,NA,NA,NA,NA,NA,NA,NA,NA,NA
1dd15,"""Falsch""-Screen",canvas.Screen,3_0_3_0_2_0_2,NA,NA,timeout,4999.3999999999,649588,649579.98,649587.68,654570.44,654571,2023-09-27T15:35:29Z,654587.08,NULL,Fleisch,mshakiki,d,NA,NA,NA,NA,qt,0,3,NA,NA,NA,NA,NA,NA,NA,NA,NA,NA,NA,NA,NA,NA,NA,NA,NA,NA,NA
1dd15,deep,flow.Sequence,3_0_3_0_2_0,NA,NA,completion,15631.3,638924,638922.34,638939.14,654570.44,654572,2023-09-27T15:35:29Z,654587.08,NULL,Fleisch,mshakiki,d,NA,NA,NA,NA,qt,NA,3,NA,NA,NA,NA,NA,NA,NA,NA,NA,NA,NA,NA,NA,NA,NA,NA,NA,NA,NA
1dd15,shallow,flow.Sequence,3_0_3_0_2_1,NA,NA,skipped,NA,654573,NA,NA,654570.44,654573,2023-09-27T15:35:29Z,654587.08,NULL,Fleisch,mshakiki,d,NA,NA,NA,NA,qt,NA,3,NA,NA,NA,NA,NA,NA,NA,NA,NA,NA,NA,NA,NA,NA,NA,NA,NA,NA,NA
1dd15,task,flow.Sequence,3_0_3_0_2,NA,NA,completion,15631.3,638924,638922.34,638939.14,654570.44,654574,2023-09-27T15:35:29Z,654587.08,NULL,Fleisch,mshakiki,d,NA,NA,NA,NA,qt,NA,3,NA,NA,NA,NA,NA,NA,NA,NA,NA,NA,NA,NA,NA,NA,NA,NA,NA,NA,NA
1dd15,Deep Question,html.Page,3_0_3_0_3_0_0,NA,NA,form submission,8263.92,654575,654570.44,654587.08,662851,662852,2023-09-27T15:35:37Z,662852.6,NULL,Inhalt,yaliyomo,d,NA,NA,NA,hanari,NA,NA,3,NA,NA,NA,NA,NA,NA,NA,NA,NA,NA,NA,NA,NA,NA,NA,NA,NA,NA,NA
1dd15,"""Richtig""-Screen",canvas.Screen,3_0_3_0_3_0_1,NA,NA,skipped,NA,662855,NA,NA,662851,662855,2023-09-27T15:35:37Z,662852.6,NULL,Inhalt,yaliyomo,d,NA,NA,NA,NA,qt,NA,3,NA,NA,NA,NA,NA,NA,NA,NA,NA,NA,NA,NA,NA,NA,NA,NA,NA,NA,NA
1dd15,"""Falsch""-Screen",canvas.Screen,3_0_3_0_3_0_2,NA,NA,timeout,4999.72,662858,662850.54,662852.6,667835.6,667836,2023-09-27T15:35:42Z,667852.32,NULL,Inhalt,yaliyomo,d,NA,NA,NA,NA,qt,0,3,NA,NA,NA,NA,NA,NA,NA,NA,NA,NA,NA,NA,NA,NA,NA,NA,NA,NA,NA
1dd15,deep,flow.Sequence,3_0_3_0_3_0,NA,NA,completion,13248.52,654575,654570.44,654587.08,667835.6,667838,2023-09-27T15:35:42Z,667852.32,NULL,Inhalt,yaliyomo,d,NA,NA,NA,NA,qt,NA,3,NA,NA,NA,NA,NA,NA,NA,NA,NA,NA,NA,NA,NA,NA,NA,NA,NA,NA,NA
1dd15,shallow,flow.Sequence,3_0_3_0_3_1,NA,NA,skipped,NA,667838,NA,NA,667835.6,667838,2023-09-27T15:35:42Z,667852.32,NULL,Inhalt,yaliyomo,d,NA,NA,NA,NA,qt,NA,3,NA,NA,NA,NA,NA,NA,NA,NA,NA,NA,NA,NA,NA,NA,NA,NA,NA,NA,NA
1dd15,task,flow.Sequence,3_0_3_0_3,NA,NA,completion,13248.52,654575,654570.44,654587.08,667835.6,667838,2023-09-27T15:35:42Z,667852.32,NULL,Inhalt,yaliyomo,d,NA,NA,NA,NA,qt,NA,3,NA,NA,NA,NA,NA,NA,NA,NA,NA,NA,NA,NA,NA,NA,NA,NA,NA,NA,NA
1dd15,deep,flow.Sequence,3_0_3_0_4_0,NA,NA,skipped,NA,667839,NA,NA,667835.6,667839,2023-09-27T15:35:42Z,667852.32,NULL,Genehmigung,idhini,s,mwanamke,itikadi,fedheha,NA,qt,NA,3,NA,NA,NA,NA,NA,NA,NA,NA,NA,NA,NA,NA,NA,NA,NA,NA,NA,NA,NA
1dd15,Shallow Question,html.Page,3_0_3_0_4_1_0,NA,NA,form submission,10436.68,667839,667835.6,667852.32,678289,678291,2023-09-27T15:35:53Z,678300.72,NULL,Genehmigung,idhini,s,mwanamke,itikadi,fedheha,mwanamke,NA,NA,3,NA,NA,NA,NA,NA,NA,NA,NA,NA,NA,NA,NA,NA,NA,NA,NA,NA,NA,NA
1dd15,"""Richtig""-Screen",canvas.Screen,3_0_3_0_4_1_1,NA,NA,skipped,NA,678304,NA,NA,678289,678304,2023-09-27T15:35:53Z,678300.72,NULL,Genehmigung,idhini,s,mwanamke,itikadi,fedheha,NA,qt,NA,3,NA,NA,NA,NA,NA,NA,NA,NA,NA,NA,NA,NA,NA,NA,NA,NA,NA,NA,NA
1dd15,"""Falsch""-Screen",canvas.Screen,3_0_3_0_4_1_2,NA,NA,timeout,4999.28,678309,678279.48,678300.72,683283.36,683285,2023-09-27T15:35:58Z,683300,NULL,Genehmigung,idhini,s,mwanamke,itikadi,fedheha,NA,qt,0,3,NA,NA,NA,NA,NA,NA,NA,NA,NA,NA,NA,NA,NA,NA,NA,NA,NA,NA,NA
1dd15,shallow,flow.Sequence,3_0_3_0_4_1,NA,NA,completion,15431.04,667839,667835.6,667852.32,683283.36,683285,2023-09-27T15:35:58Z,683300,NULL,Genehmigung,idhini,s,mwanamke,itikadi,fedheha,NA,qt,NA,3,NA,NA,NA,NA,NA,NA,NA,NA,NA,NA,NA,NA,NA,NA,NA,NA,NA,NA,NA
1dd15,task,flow.Sequence,3_0_3_0_4,NA,NA,completion,15431.04,667839,667835.6,667852.32,683283.36,683287,2023-09-27T15:35:58Z,683300,NULL,Genehmigung,idhini,s,mwanamke,itikadi,fedheha,NA,qt,NA,3,NA,NA,NA,NA,NA,NA,NA,NA,NA,NA,NA,NA,NA,NA,NA,NA,NA,NA,NA
1dd15,deep,flow.Sequence,3_0_3_0_5_0,NA,NA,skipped,NA,683287,NA,NA,683283.36,683287,2023-09-27T15:35:58Z,683300,NULL,Toleranz,kuvumiliana,s,maombolezo,ujasusi,mchekeshaji,NA,qt,NA,3,NA,NA,NA,NA,NA,NA,NA,NA,NA,NA,NA,NA,NA,NA,NA,NA,NA,NA,NA
1dd15,Shallow Question,html.Page,3_0_3_0_5_1_0,NA,NA,form submission,8177,683287,683283.36,683300,691477,691477,2023-09-27T15:36:06Z,691482.24,NULL,Toleranz,kuvumiliana,s,maombolezo,ujasusi,mchekeshaji,kuvumiliana,NA,NA,3,NA,NA,NA,NA,NA,NA,NA,NA,NA,NA,NA,NA,NA,NA,NA,NA,NA,NA,NA
1dd15,"""Richtig""-Screen",canvas.Screen,3_0_3_0_5_1_1,NA,NA,timeout,4999.52,691481,691472.44,691482.24,696465.38,696467,2023-09-27T15:36:11Z,696481.76,NULL,Toleranz,kuvumiliana,s,maombolezo,ujasusi,mchekeshaji,NA,qt,1,3,NA,NA,NA,NA,NA,NA,NA,NA,NA,NA,NA,NA,NA,NA,NA,NA,NA,NA,NA
1dd15,"""Falsch""-Screen",canvas.Screen,3_0_3_0_5_1_2,NA,NA,skipped,NA,696474,NA,NA,696465.38,696475,2023-09-27T15:36:11Z,696481.76,NULL,Toleranz,kuvumiliana,s,maombolezo,ujasusi,mchekeshaji,NA,qt,NA,3,NA,NA,NA,NA,NA,NA,NA,NA,NA,NA,NA,NA,NA,NA,NA,NA,NA,NA,NA
1dd15,shallow,flow.Sequence,3_0_3_0_5_1,NA,NA,completion,13165.38,683287,683283.36,683300,696465.38,696475,2023-09-27T15:36:11Z,696481.76,NULL,Toleranz,kuvumiliana,s,maombolezo,ujasusi,mchekeshaji,NA,qt,NA,3,NA,NA,NA,NA,NA,NA,NA,NA,NA,NA,NA,NA,NA,NA,NA,NA,NA,NA,NA
1dd15,task,flow.Sequence,3_0_3_0_5,NA,NA,completion,13165.38,683287,683283.36,683300,696465.38,696477,2023-09-27T15:36:11Z,696481.76,NULL,Toleranz,kuvumiliana,s,maombolezo,ujasusi,mchekeshaji,NA,qt,NA,3,NA,NA,NA,NA,NA,NA,NA,NA,NA,NA,NA,NA,NA,NA,NA,NA,NA,NA,NA
1dd15,deep,flow.Sequence,3_0_3_0_6_0,NA,NA,skipped,NA,696478,NA,NA,696465.38,696478,2023-09-27T15:36:11Z,696481.76,NULL,Begegnung,kukutana,s,mmasihiya,mpiganaji,husiano,NA,qt,NA,3,NA,NA,NA,NA,NA,NA,NA,NA,NA,NA,NA,NA,NA,NA,NA,NA,NA,NA,NA
1dd15,Shallow Question,html.Page,3_0_3_0_6_1_0,NA,NA,form submission,5552.24,696479,696465.38,696481.76,702034,702035,2023-09-27T15:36:16Z,702030.92,NULL,Begegnung,kukutana,s,mmasihiya,mpiganaji,husiano,kukutana,NA,NA,3,NA,NA,NA,NA,NA,NA,NA,NA,NA,NA,NA,NA,NA,NA,NA,NA,NA,NA,NA
1dd15,"""Richtig""-Screen",canvas.Screen,3_0_3_0_6_1_1,NA,NA,timeout,4999.4199999999,702041,702029.34,702030.92,707013.78,707015,2023-09-27T15:36:21Z,707030.34,NULL,Begegnung,kukutana,s,mmasihiya,mpiganaji,husiano,NA,qt,1,3,NA,NA,NA,NA,NA,NA,NA,NA,NA,NA,NA,NA,NA,NA,NA,NA,NA,NA,NA
1dd15,"""Falsch""-Screen",canvas.Screen,3_0_3_0_6_1_2,NA,NA,skipped,NA,707022,NA,NA,707013.78,707022,2023-09-27T15:36:21Z,707030.34,NULL,Begegnung,kukutana,s,mmasihiya,mpiganaji,husiano,NA,qt,NA,3,NA,NA,NA,NA,NA,NA,NA,NA,NA,NA,NA,NA,NA,NA,NA,NA,NA,NA,NA
1dd15,shallow,flow.Sequence,3_0_3_0_6_1,NA,NA,completion,10532.02,696478,696465.38,696481.76,707013.78,707023,2023-09-27T15:36:21Z,707030.34,NULL,Begegnung,kukutana,s,mmasihiya,mpiganaji,husiano,NA,qt,NA,3,NA,NA,NA,NA,NA,NA,NA,NA,NA,NA,NA,NA,NA,NA,NA,NA,NA,NA,NA
1dd15,task,flow.Sequence,3_0_3_0_6,NA,NA,completion,10532.02,696477,696465.38,696481.76,707013.78,707023,2023-09-27T15:36:21Z,707030.34,NULL,Begegnung,kukutana,s,mmasihiya,mpiganaji,husiano,NA,qt,NA,3,NA,NA,NA,NA,NA,NA,NA,NA,NA,NA,NA,NA,NA,NA,NA,NA,NA,NA,NA
1dd15,Deep Question,html.Page,3_0_3_0_7_0_0,NA,NA,form submission,7223.66,707024,707013.78,707030.34,714254,714254,2023-09-27T15:36:29Z,714262.72,NULL,Vermutung,udhanifu,d,NA,NA,NA,tuorenai,NA,NA,3,NA,NA,NA,NA,NA,NA,NA,NA,NA,NA,NA,NA,NA,NA,NA,NA,NA,NA,NA
1dd15,"""Richtig""-Screen",canvas.Screen,3_0_3_0_7_0_1,NA,NA,skipped,NA,714257,NA,NA,714254,714257,2023-09-27T15:36:29Z,714262.72,NULL,Vermutung,udhanifu,d,NA,NA,NA,NA,qt,NA,3,NA,NA,NA,NA,NA,NA,NA,NA,NA,NA,NA,NA,NA,NA,NA,NA,NA,NA,NA
1dd15,"""Falsch""-Screen",canvas.Screen,3_0_3_0_7_0_2,NA,NA,timeout,4999.4400000001,714260,714252.84,714262.72,719245.84,719248,2023-09-27T15:36:34Z,719262.16,NULL,Vermutung,udhanifu,d,NA,NA,NA,NA,qt,0,3,NA,NA,NA,NA,NA,NA,NA,NA,NA,NA,NA,NA,NA,NA,NA,NA,NA,NA,NA
1dd15,deep,flow.Sequence,3_0_3_0_7_0,NA,NA,completion,12215.5,707024,707013.78,707030.34,719245.84,719248,2023-09-27T15:36:34Z,719262.16,NULL,Vermutung,udhanifu,d,NA,NA,NA,NA,qt,NA,3,NA,NA,NA,NA,NA,NA,NA,NA,NA,NA,NA,NA,NA,NA,NA,NA,NA,NA,NA
1dd15,shallow,flow.Sequence,3_0_3_0_7_1,NA,NA,skipped,NA,719248,NA,NA,719245.84,719249,2023-09-27T15:36:34Z,719262.16,NULL,Vermutung,udhanifu,d,NA,NA,NA,NA,qt,NA,3,NA,NA,NA,NA,NA,NA,NA,NA,NA,NA,NA,NA,NA,NA,NA,NA,NA,NA,NA
1dd15,task,flow.Sequence,3_0_3_0_7,NA,NA,completion,12215.5,707024,707013.78,707030.34,719245.84,719249,2023-09-27T15:36:34Z,719262.16,NULL,Vermutung,udhanifu,d,NA,NA,NA,NA,qt,NA,3,NA,NA,NA,NA,NA,NA,NA,NA,NA,NA,NA,NA,NA,NA,NA,NA,NA,NA,NA
1dd15,block,flow.Loop,3_0_3_0,NA,NA,completion,108565.76,610679,610679.74,610680.08,719245.84,719250,2023-09-27T15:36:34Z,719262.16,NULL,NA,NA,NA,NA,NA,NA,NA,qt,NA,3,NA,NA,NA,NA,NA,NA,NA,NA,NA,NA,NA,NA,NA,NA,NA,NA,NA,NA,NA
1dd15,weiter,canvas.Screen,3_0_3_1,sdf,keypress(Space),response,1172.84,719250,719245.84,719262.16,720435,720445,2023-09-27T15:36:35Z,720509.24,NULL,NA,NA,NA,NA,NA,NA,NA,qt,NA,3,NA,NA,NA,NA,NA,NA,NA,NA,NA,NA,NA,NA,NA,NA,NA,NA,NA,NA,NA
1dd15,check continue,flow.Sequence,3_0_3,NA,NA,completion,109754.92,610679,610679.74,610680.08,720435,720446,2023-09-27T15:36:35Z,720509.24,NULL,NA,NA,NA,NA,NA,NA,NA,qt,NA,3,NA,NA,NA,NA,NA,NA,NA,NA,NA,NA,NA,NA,NA,NA,NA,NA,NA,NA,NA
1dd15,deep,flow.Sequence,3_0_4_0_0_0,NA,NA,skipped,NA,720509,NA,NA,720435,720509,2023-09-27T15:36:35Z,720509.24,NULL,Begegnung,kukutana,s,mmasihiya,mpiganaji,husiano,NA,sd,NA,4,NA,NA,NA,NA,NA,NA,NA,NA,NA,NA,NA,NA,NA,NA,NA,NA,NA,NA,NA
1dd15,Shallow Question,html.Page,3_0_4_0_0_1_0,NA,NA,form submission,6007.76,720509,720508.94,720509.24,726517,726518,2023-09-27T15:36:41Z,726527.74,NULL,Begegnung,kukutana,s,mmasihiya,mpiganaji,husiano,kukutana,NA,NA,4,NA,NA,NA,NA,NA,NA,NA,NA,NA,NA,NA,NA,NA,NA,NA,NA,NA,NA,NA
1dd15,"""Richtig""-Screen",canvas.Screen,3_0_4_0_0_1_1,NA,NA,timeout,4999.5,726521,726513.6,726527.74,731510.94,731512,2023-09-27T15:36:46Z,731527.24,NULL,Begegnung,kukutana,s,mmasihiya,mpiganaji,husiano,NA,sd,1,4,NA,NA,NA,NA,NA,NA,NA,NA,NA,NA,NA,NA,NA,NA,NA,NA,NA,NA,NA
1dd15,"""Falsch""-Screen",canvas.Screen,3_0_4_0_0_1_2,NA,NA,skipped,NA,731517,NA,NA,731510.94,731519,2023-09-27T15:36:46Z,731527.24,NULL,Begegnung,kukutana,s,mmasihiya,mpiganaji,husiano,NA,sd,NA,4,NA,NA,NA,NA,NA,NA,NA,NA,NA,NA,NA,NA,NA,NA,NA,NA,NA,NA,NA
1dd15,shallow,flow.Sequence,3_0_4_0_0_1,NA,NA,completion,11001.7,720509,720508.94,720509.24,731510.94,731519,2023-09-27T15:36:46Z,731527.24,NULL,Begegnung,kukutana,s,mmasihiya,mpiganaji,husiano,NA,sd,NA,4,NA,NA,NA,NA,NA,NA,NA,NA,NA,NA,NA,NA,NA,NA,NA,NA,NA,NA,NA
1dd15,task,flow.Sequence,3_0_4_0_0,NA,NA,completion,11001.7,720509,720508.94,720509.24,731510.94,731519,2023-09-27T15:36:46Z,731527.24,NULL,Begegnung,kukutana,s,mmasihiya,mpiganaji,husiano,NA,sd,NA,4,NA,NA,NA,NA,NA,NA,NA,NA,NA,NA,NA,NA,NA,NA,NA,NA,NA,NA,NA
1dd15,Deep Question,html.Page,3_0_4_0_1_0_0,NA,NA,form submission,5002.76,731519,731510.94,731527.24,736530,736530,2023-09-27T15:36:51Z,736543.32,NULL,Integrität,uadilifu,d,NA,NA,NA,mshakiki,NA,NA,4,NA,NA,NA,NA,NA,NA,NA,NA,NA,NA,NA,NA,NA,NA,NA,NA,NA,NA,NA
1dd15,"""Richtig""-Screen",canvas.Screen,3_0_4_0_1_0_1,NA,NA,skipped,NA,736531,NA,NA,736530,736532,2023-09-27T15:36:51Z,736543.32,NULL,Integrität,uadilifu,d,NA,NA,NA,NA,sd,NA,4,NA,NA,NA,NA,NA,NA,NA,NA,NA,NA,NA,NA,NA,NA,NA,NA,NA,NA,NA
1dd15,"""Falsch""-Screen",canvas.Screen,3_0_4_0_1_0_2,NA,NA,timeout,4999.2200000001,736533,736529.58,736543.32,741525.84,741526,2023-09-27T15:36:56Z,741542.54,NULL,Integrität,uadilifu,d,NA,NA,NA,NA,sd,0,4,NA,NA,NA,NA,NA,NA,NA,NA,NA,NA,NA,NA,NA,NA,NA,NA,NA,NA,NA
1dd15,deep,flow.Sequence,3_0_4_0_1_0,NA,NA,completion,9998.6,731519,731510.94,731527.24,741525.84,741527,2023-09-27T15:36:56Z,741542.54,NULL,Integrität,uadilifu,d,NA,NA,NA,NA,sd,NA,4,NA,NA,NA,NA,NA,NA,NA,NA,NA,NA,NA,NA,NA,NA,NA,NA,NA,NA,NA
1dd15,shallow,flow.Sequence,3_0_4_0_1_1,NA,NA,skipped,NA,741527,NA,NA,741525.84,741527,2023-09-27T15:36:56Z,741542.54,NULL,Integrität,uadilifu,d,NA,NA,NA,NA,sd,NA,4,NA,NA,NA,NA,NA,NA,NA,NA,NA,NA,NA,NA,NA,NA,NA,NA,NA,NA,NA
1dd15,task,flow.Sequence,3_0_4_0_1,NA,NA,completion,9998.6,731519,731510.94,731527.24,741525.84,741527,2023-09-27T15:36:56Z,741542.54,NULL,Integrität,uadilifu,d,NA,NA,NA,NA,sd,NA,4,NA,NA,NA,NA,NA,NA,NA,NA,NA,NA,NA,NA,NA,NA,NA,NA,NA,NA,NA
1dd15,deep,flow.Sequence,3_0_4_0_2_0,NA,NA,skipped,NA,741527,NA,NA,741525.84,741527,2023-09-27T15:36:56Z,741542.54,NULL,Schlange,foleni,s,uvumilivu,uteuzi,muuzaji,NA,sd,NA,4,NA,NA,NA,NA,NA,NA,NA,NA,NA,NA,NA,NA,NA,NA,NA,NA,NA,NA,NA
1dd15,Shallow Question,html.Page,3_0_4_0_2_1_0,NA,NA,form submission,5562.46,741527,741525.84,741542.54,747105,747105,2023-09-27T15:37:01Z,747108.52,NULL,Schlange,foleni,s,uvumilivu,uteuzi,muuzaji,foleni,NA,NA,4,NA,NA,NA,NA,NA,NA,NA,NA,NA,NA,NA,NA,NA,NA,NA,NA,NA,NA,NA
1dd15,"""Richtig""-Screen",canvas.Screen,3_0_4_0_2_1_1,NA,NA,timeout,4999.46,747110,747100.42,747108.52,752091.56,752093,2023-09-27T15:37:06Z,752107.98,NULL,Schlange,foleni,s,uvumilivu,uteuzi,muuzaji,NA,sd,1,4,NA,NA,NA,NA,NA,NA,NA,NA,NA,NA,NA,NA,NA,NA,NA,NA,NA,NA,NA
1dd15,"""Falsch""-Screen",canvas.Screen,3_0_4_0_2_1_2,NA,NA,skipped,NA,752099,NA,NA,752091.56,752099,2023-09-27T15:37:06Z,752107.98,NULL,Schlange,foleni,s,uvumilivu,uteuzi,muuzaji,NA,sd,NA,4,NA,NA,NA,NA,NA,NA,NA,NA,NA,NA,NA,NA,NA,NA,NA,NA,NA,NA,NA
1dd15,shallow,flow.Sequence,3_0_4_0_2_1,NA,NA,completion,10549.02,741527,741525.84,741542.54,752091.56,752100,2023-09-27T15:37:06Z,752107.98,NULL,Schlange,foleni,s,uvumilivu,uteuzi,muuzaji,NA,sd,NA,4,NA,NA,NA,NA,NA,NA,NA,NA,NA,NA,NA,NA,NA,NA,NA,NA,NA,NA,NA
1dd15,task,flow.Sequence,3_0_4_0_2,NA,NA,completion,10549.02,741527,741525.84,741542.54,752091.56,752100,2023-09-27T15:37:06Z,752107.98,NULL,Schlange,foleni,s,uvumilivu,uteuzi,muuzaji,NA,sd,NA,4,NA,NA,NA,NA,NA,NA,NA,NA,NA,NA,NA,NA,NA,NA,NA,NA,NA,NA,NA
1dd15,Deep Question,html.Page,3_0_4_0_3_0_0,NA,NA,form submission,3998.02,752101,752091.56,752107.98,756106,756106,2023-09-27T15:37:11Z,756107.38,NULL,Fleisch,mshakiki,d,NA,NA,NA,mshahiki,NA,NA,4,NA,NA,NA,NA,NA,NA,NA,NA,NA,NA,NA,NA,NA,NA,NA,NA,NA,NA,NA
1dd15,"""Richtig""-Screen",canvas.Screen,3_0_4_0_3_0_1,NA,NA,skipped,NA,756109,NA,NA,756106,756109,2023-09-27T15:37:11Z,756107.38,NULL,Fleisch,mshakiki,d,NA,NA,NA,NA,sd,NA,4,NA,NA,NA,NA,NA,NA,NA,NA,NA,NA,NA,NA,NA,NA,NA,NA,NA,NA,NA
1dd15,"""Falsch""-Screen",canvas.Screen,3_0_4_0_3_0_2,NA,NA,timeout,4999.62,756111,756104.54,756107.38,761090.56,761095,2023-09-27T15:37:15Z,761107,NULL,Fleisch,mshakiki,d,NA,NA,NA,NA,sd,0,4,NA,NA,NA,NA,NA,NA,NA,NA,NA,NA,NA,NA,NA,NA,NA,NA,NA,NA,NA
1dd15,deep,flow.Sequence,3_0_4_0_3_0,NA,NA,completion,8982.5800000001,752101,752091.56,752107.98,761090.56,761097,2023-09-27T15:37:15Z,761107,NULL,Fleisch,mshakiki,d,NA,NA,NA,NA,sd,NA,4,NA,NA,NA,NA,NA,NA,NA,NA,NA,NA,NA,NA,NA,NA,NA,NA,NA,NA,NA
1dd15,shallow,flow.Sequence,3_0_4_0_3_1,NA,NA,skipped,NA,761100,NA,NA,761090.56,761100,2023-09-27T15:37:15Z,761107,NULL,Fleisch,mshakiki,d,NA,NA,NA,NA,sd,NA,4,NA,NA,NA,NA,NA,NA,NA,NA,NA,NA,NA,NA,NA,NA,NA,NA,NA,NA,NA
1dd15,task,flow.Sequence,3_0_4_0_3,NA,NA,completion,8982.5800000001,752101,752091.56,752107.98,761090.56,761100,2023-09-27T15:37:15Z,761107,NULL,Fleisch,mshakiki,d,NA,NA,NA,NA,sd,NA,4,NA,NA,NA,NA,NA,NA,NA,NA,NA,NA,NA,NA,NA,NA,NA,NA,NA,NA,NA
1dd15,deep,flow.Sequence,3_0_4_0_4_0,NA,NA,skipped,NA,761100,NA,NA,761090.56,761100,2023-09-27T15:37:15Z,761107,NULL,Genehmigung,idhini,s,mwanamke,itikadi,fedheha,NA,sd,NA,4,NA,NA,NA,NA,NA,NA,NA,NA,NA,NA,NA,NA,NA,NA,NA,NA,NA,NA,NA
1dd15,Shallow Question,html.Page,3_0_4_0_4_1_0,NA,NA,form submission,16102,761100,761090.56,761107,777209,777210,2023-09-27T15:37:32Z,777221.42,NULL,Genehmigung,idhini,s,mwanamke,itikadi,fedheha,idhini,NA,NA,4,NA,NA,NA,NA,NA,NA,NA,NA,NA,NA,NA,NA,NA,NA,NA,NA,NA,NA,NA
1dd15,"""Richtig""-Screen",canvas.Screen,3_0_4_0_4_1_1,NA,NA,timeout,4999.24,777224,777201.2,777221.42,782204.16,782205,2023-09-27T15:37:37Z,782220.66,NULL,Genehmigung,idhini,s,mwanamke,itikadi,fedheha,NA,sd,1,4,NA,NA,NA,NA,NA,NA,NA,NA,NA,NA,NA,NA,NA,NA,NA,NA,NA,NA,NA
1dd15,"""Falsch""-Screen",canvas.Screen,3_0_4_0_4_1_2,NA,NA,skipped,NA,782212,NA,NA,782204.16,782213,2023-09-27T15:37:37Z,782220.66,NULL,Genehmigung,idhini,s,mwanamke,itikadi,fedheha,NA,sd,NA,4,NA,NA,NA,NA,NA,NA,NA,NA,NA,NA,NA,NA,NA,NA,NA,NA,NA,NA,NA
1dd15,shallow,flow.Sequence,3_0_4_0_4_1,NA,NA,completion,21097.16,761100,761090.56,761107,782204.16,782214,2023-09-27T15:37:37Z,782220.66,NULL,Genehmigung,idhini,s,mwanamke,itikadi,fedheha,NA,sd,NA,4,NA,NA,NA,NA,NA,NA,NA,NA,NA,NA,NA,NA,NA,NA,NA,NA,NA,NA,NA
1dd15,task,flow.Sequence,3_0_4_0_4,NA,NA,completion,21097.16,761100,761090.56,761107,782204.16,782216,2023-09-27T15:37:37Z,782220.66,NULL,Genehmigung,idhini,s,mwanamke,itikadi,fedheha,NA,sd,NA,4,NA,NA,NA,NA,NA,NA,NA,NA,NA,NA,NA,NA,NA,NA,NA,NA,NA,NA,NA
1dd15,deep,flow.Sequence,3_0_4_0_5_0,NA,NA,skipped,NA,782216,NA,NA,782204.16,782217,2023-09-27T15:37:37Z,782220.66,NULL,Toleranz,kuvumiliana,s,maombolezo,ujasusi,mchekeshaji,NA,sd,NA,4,NA,NA,NA,NA,NA,NA,NA,NA,NA,NA,NA,NA,NA,NA,NA,NA,NA,NA,NA
1dd15,Shallow Question,html.Page,3_0_4_0_5_1_0,NA,NA,form submission,16364.34,782218,782204.16,782220.66,798585,798586,2023-09-27T15:37:53Z,798585.26,NULL,Toleranz,kuvumiliana,s,maombolezo,ujasusi,mchekeshaji,ujasusi,NA,NA,4,NA,NA,NA,NA,NA,NA,NA,NA,NA,NA,NA,NA,NA,NA,NA,NA,NA,NA,NA
1dd15,"""Richtig""-Screen",canvas.Screen,3_0_4_0_5_1_1,NA,NA,skipped,NA,798591,NA,NA,798585,798591,2023-09-27T15:37:53Z,798585.26,NULL,Toleranz,kuvumiliana,s,maombolezo,ujasusi,mchekeshaji,NA,sd,NA,4,NA,NA,NA,NA,NA,NA,NA,NA,NA,NA,NA,NA,NA,NA,NA,NA,NA,NA,NA
1dd15,"""Falsch""-Screen",canvas.Screen,3_0_4_0_5_1_2,NA,NA,timeout,4999.4399999999,798596,798580.24,798585.26,803568.42,803570,2023-09-27T15:37:58Z,803584.7,NULL,Toleranz,kuvumiliana,s,maombolezo,ujasusi,mchekeshaji,NA,sd,0,4,NA,NA,NA,NA,NA,NA,NA,NA,NA,NA,NA,NA,NA,NA,NA,NA,NA,NA,NA
1dd15,shallow,flow.Sequence,3_0_4_0_5_1,NA,NA,completion,21347.76,782218,782204.16,782220.66,803568.42,803570,2023-09-27T15:37:58Z,803584.7,NULL,Toleranz,kuvumiliana,s,maombolezo,ujasusi,mchekeshaji,NA,sd,NA,4,NA,NA,NA,NA,NA,NA,NA,NA,NA,NA,NA,NA,NA,NA,NA,NA,NA,NA,NA
1dd15,task,flow.Sequence,3_0_4_0_5,NA,NA,completion,21347.76,782216,782204.16,782220.66,803568.42,803570,2023-09-27T15:37:58Z,803584.7,NULL,Toleranz,kuvumiliana,s,maombolezo,ujasusi,mchekeshaji,NA,sd,NA,4,NA,NA,NA,NA,NA,NA,NA,NA,NA,NA,NA,NA,NA,NA,NA,NA,NA,NA,NA
1dd15,Deep Question,html.Page,3_0_4_0_6_0_0,NA,NA,form submission,4701.3,803571,803568.42,803584.7,808286,808286,2023-09-27T15:38:03Z,808285.32,NULL,Vermutung,udhanifu,d,NA,NA,NA,uikuini,NA,NA,4,NA,NA,NA,NA,NA,NA,NA,NA,NA,NA,NA,NA,NA,NA,NA,NA,NA,NA,NA
1dd15,"""Richtig""-Screen",canvas.Screen,3_0_4_0_6_0_1,NA,NA,skipped,NA,808289,NA,NA,808286,808289,2023-09-27T15:38:03Z,808285.32,NULL,Vermutung,udhanifu,d,NA,NA,NA,NA,sd,NA,4,NA,NA,NA,NA,NA,NA,NA,NA,NA,NA,NA,NA,NA,NA,NA,NA,NA,NA,NA
1dd15,"""Falsch""-Screen",canvas.Screen,3_0_4_0_6_0_2,NA,NA,timeout,4998.0800000001,808292,808284.94,808285.32,813266.82,813268,2023-09-27T15:38:08Z,813283.4,NULL,Vermutung,udhanifu,d,NA,NA,NA,NA,sd,0,4,NA,NA,NA,NA,NA,NA,NA,NA,NA,NA,NA,NA,NA,NA,NA,NA,NA,NA,NA
1dd15,deep,flow.Sequence,3_0_4_0_6_0,NA,NA,completion,9682.12,803571,803568.42,803584.7,813266.82,813269,2023-09-27T15:38:08Z,813283.4,NULL,Vermutung,udhanifu,d,NA,NA,NA,NA,sd,NA,4,NA,NA,NA,NA,NA,NA,NA,NA,NA,NA,NA,NA,NA,NA,NA,NA,NA,NA,NA
1dd15,shallow,flow.Sequence,3_0_4_0_6_1,NA,NA,skipped,NA,813270,NA,NA,813266.82,813270,2023-09-27T15:38:08Z,813283.4,NULL,Vermutung,udhanifu,d,NA,NA,NA,NA,sd,NA,4,NA,NA,NA,NA,NA,NA,NA,NA,NA,NA,NA,NA,NA,NA,NA,NA,NA,NA,NA
1dd15,task,flow.Sequence,3_0_4_0_6,NA,NA,completion,9682.12,803571,803568.42,803584.7,813266.82,813271,2023-09-27T15:38:08Z,813283.4,NULL,Vermutung,udhanifu,d,NA,NA,NA,NA,sd,NA,4,NA,NA,NA,NA,NA,NA,NA,NA,NA,NA,NA,NA,NA,NA,NA,NA,NA,NA,NA
1dd15,Deep Question,html.Page,3_0_4_0_7_0_0,NA,NA,form submission,6015.6,813271,813266.82,813283.4,819299,819301,2023-09-27T15:38:14Z,819315.92,NULL,Inhalt,yaliyomo,d,NA,NA,NA,mshakiki,NA,NA,4,NA,NA,NA,NA,NA,NA,NA,NA,NA,NA,NA,NA,NA,NA,NA,NA,NA,NA,NA
1dd15,"""Richtig""-Screen",canvas.Screen,3_0_4_0_7_0_1,NA,NA,skipped,NA,819309,NA,NA,819299,819309,2023-09-27T15:38:14Z,819315.92,NULL,Inhalt,yaliyomo,d,NA,NA,NA,NA,sd,NA,4,NA,NA,NA,NA,NA,NA,NA,NA,NA,NA,NA,NA,NA,NA,NA,NA,NA,NA,NA
1dd15,"""Falsch""-Screen",canvas.Screen,3_0_4_0_7_0_2,NA,NA,timeout,4999.7,819313,819298.04,819315.92,824298.76,824300,2023-09-27T15:38:19Z,824315.62,NULL,Inhalt,yaliyomo,d,NA,NA,NA,NA,sd,0,4,NA,NA,NA,NA,NA,NA,NA,NA,NA,NA,NA,NA,NA,NA,NA,NA,NA,NA,NA
1dd15,deep,flow.Sequence,3_0_4_0_7_0,NA,NA,completion,11015.36,813271,813266.82,813283.4,824298.76,824300,2023-09-27T15:38:19Z,824315.62,NULL,Inhalt,yaliyomo,d,NA,NA,NA,NA,sd,NA,4,NA,NA,NA,NA,NA,NA,NA,NA,NA,NA,NA,NA,NA,NA,NA,NA,NA,NA,NA
1dd15,shallow,flow.Sequence,3_0_4_0_7_1,NA,NA,skipped,NA,824300,NA,NA,824298.76,824300,2023-09-27T15:38:19Z,824315.62,NULL,Inhalt,yaliyomo,d,NA,NA,NA,NA,sd,NA,4,NA,NA,NA,NA,NA,NA,NA,NA,NA,NA,NA,NA,NA,NA,NA,NA,NA,NA,NA
1dd15,task,flow.Sequence,3_0_4_0_7,NA,NA,completion,11015.36,813271,813266.82,813283.4,824298.76,824300,2023-09-27T15:38:19Z,824315.62,NULL,Inhalt,yaliyomo,d,NA,NA,NA,NA,sd,NA,4,NA,NA,NA,NA,NA,NA,NA,NA,NA,NA,NA,NA,NA,NA,NA,NA,NA,NA,NA
1dd15,block,flow.Loop,3_0_4_0,NA,NA,completion,103789.52,720509,720508.94,720509.24,824298.76,824300,2023-09-27T15:38:19Z,824315.62,NULL,NA,NA,NA,NA,NA,NA,NA,sd,NA,4,NA,NA,NA,NA,NA,NA,NA,NA,NA,NA,NA,NA,NA,NA,NA,NA,NA,NA,NA
1dd15,weiter,canvas.Screen,3_0_4_1,sdf,keypress(Space),response,1134.38,824300,824298.76,824315.62,825450,825457,2023-09-27T15:38:20Z,825519.52,NULL,NA,NA,NA,NA,NA,NA,NA,sd,NA,4,NA,NA,NA,NA,NA,NA,NA,NA,NA,NA,NA,NA,NA,NA,NA,NA,NA,NA,NA
1dd15,check continue,flow.Sequence,3_0_4,NA,NA,completion,104940.76,720509,720508.94,720509.24,825450,825458,2023-09-27T15:38:20Z,825519.52,NULL,NA,NA,NA,NA,NA,NA,NA,sd,NA,4,NA,NA,NA,NA,NA,NA,NA,NA,NA,NA,NA,NA,NA,NA,NA,NA,NA,NA,NA
1dd15,Deep Question,html.Page,3_0_5_0_0_0_0,NA,NA,form submission,8108.48,825519,825519.14,825519.52,833628,833629,2023-09-27T15:38:28Z,833630.82,NULL,Inhalt,yaliyomo,d,NA,NA,NA,mshakiki,NA,NA,5,NA,NA,NA,NA,NA,NA,NA,NA,NA,NA,NA,NA,NA,NA,NA,NA,NA,NA,NA
1dd15,"""Richtig""-Screen",canvas.Screen,3_0_5_0_0_0_1,NA,NA,skipped,NA,833631,NA,NA,833628,833632,2023-09-27T15:38:28Z,833630.82,NULL,Inhalt,yaliyomo,d,NA,NA,NA,NA,sdf,NA,5,NA,NA,NA,NA,NA,NA,NA,NA,NA,NA,NA,NA,NA,NA,NA,NA,NA,NA,NA
1dd15,"""Falsch""-Screen",canvas.Screen,3_0_5_0_0_0_2,NA,NA,timeout,4999.42,833634,833627.36,833630.82,838613.58,838615,2023-09-27T15:38:33Z,838630.24,NULL,Inhalt,yaliyomo,d,NA,NA,NA,NA,sdf,0,5,NA,NA,NA,NA,NA,NA,NA,NA,NA,NA,NA,NA,NA,NA,NA,NA,NA,NA,NA
1dd15,deep,flow.Sequence,3_0_5_0_0_0,NA,NA,completion,13094.06,825519,825519.14,825519.52,838613.58,838616,2023-09-27T15:38:33Z,838630.24,NULL,Inhalt,yaliyomo,d,NA,NA,NA,NA,sdf,NA,5,NA,NA,NA,NA,NA,NA,NA,NA,NA,NA,NA,NA,NA,NA,NA,NA,NA,NA,NA
1dd15,shallow,flow.Sequence,3_0_5_0_0_1,NA,NA,skipped,NA,838616,NA,NA,838613.58,838616,2023-09-27T15:38:33Z,838630.24,NULL,Inhalt,yaliyomo,d,NA,NA,NA,NA,sdf,NA,5,NA,NA,NA,NA,NA,NA,NA,NA,NA,NA,NA,NA,NA,NA,NA,NA,NA,NA,NA
1dd15,task,flow.Sequence,3_0_5_0_0,NA,NA,completion,13094.06,825519,825519.14,825519.52,838613.58,838617,2023-09-27T15:38:33Z,838630.24,NULL,Inhalt,yaliyomo,d,NA,NA,NA,NA,sdf,NA,5,NA,NA,NA,NA,NA,NA,NA,NA,NA,NA,NA,NA,NA,NA,NA,NA,NA,NA,NA
1dd15,deep,flow.Sequence,3_0_5_0_1_0,NA,NA,skipped,NA,838617,NA,NA,838613.58,838617,2023-09-27T15:38:33Z,838630.24,NULL,Schlange,foleni,s,uvumilivu,uteuzi,muuzaji,NA,sdf,NA,5,NA,NA,NA,NA,NA,NA,NA,NA,NA,NA,NA,NA,NA,NA,NA,NA,NA,NA,NA
1dd15,Shallow Question,html.Page,3_0_5_0_1_1_0,NA,NA,form submission,4571.76,838618,838613.58,838630.24,843202,843203,2023-09-27T15:38:38Z,843214.8,NULL,Schlange,foleni,s,uvumilivu,uteuzi,muuzaji,foleni,NA,NA,5,NA,NA,NA,NA,NA,NA,NA,NA,NA,NA,NA,NA,NA,NA,NA,NA,NA,NA,NA
1dd15,"""Richtig""-Screen",canvas.Screen,3_0_5_0_1_1_1,NA,NA,timeout,4997.5199999999,843207,843195.62,843214.8,848196.04,848197,2023-09-27T15:38:43Z,848212.32,NULL,Schlange,foleni,s,uvumilivu,uteuzi,muuzaji,NA,sdf,1,5,NA,NA,NA,NA,NA,NA,NA,NA,NA,NA,NA,NA,NA,NA,NA,NA,NA,NA,NA
1dd15,"""Falsch""-Screen",canvas.Screen,3_0_5_0_1_1_2,NA,NA,skipped,NA,848202,NA,NA,848196.04,848203,2023-09-27T15:38:43Z,848212.32,NULL,Schlange,foleni,s,uvumilivu,uteuzi,muuzaji,NA,sdf,NA,5,NA,NA,NA,NA,NA,NA,NA,NA,NA,NA,NA,NA,NA,NA,NA,NA,NA,NA,NA
1dd15,shallow,flow.Sequence,3_0_5_0_1_1,NA,NA,completion,9565.8,838618,838613.58,838630.24,848196.04,848204,2023-09-27T15:38:43Z,848212.32,NULL,Schlange,foleni,s,uvumilivu,uteuzi,muuzaji,NA,sdf,NA,5,NA,NA,NA,NA,NA,NA,NA,NA,NA,NA,NA,NA,NA,NA,NA,NA,NA,NA,NA
1dd15,task,flow.Sequence,3_0_5_0_1,NA,NA,completion,9565.8,838617,838613.58,838630.24,848196.04,848204,2023-09-27T15:38:43Z,848212.32,NULL,Schlange,foleni,s,uvumilivu,uteuzi,muuzaji,NA,sdf,NA,5,NA,NA,NA,NA,NA,NA,NA,NA,NA,NA,NA,NA,NA,NA,NA,NA,NA,NA,NA
1dd15,Deep Question,html.Page,3_0_5_0_2_0_0,NA,NA,form submission,12812.68,848205,848196.04,848212.32,861025,861025,2023-09-27T15:38:55Z,861027.34,NULL,Vermutung,udhanifu,d,NA,NA,NA,yalikomo,NA,NA,5,NA,NA,NA,NA,NA,NA,NA,NA,NA,NA,NA,NA,NA,NA,NA,NA,NA,NA,NA
1dd15,"""Richtig""-Screen",canvas.Screen,3_0_5_0_2_0_1,NA,NA,skipped,NA,861027,NA,NA,861025,861027,2023-09-27T15:38:55Z,861027.34,NULL,Vermutung,udhanifu,d,NA,NA,NA,NA,sdf,NA,5,NA,NA,NA,NA,NA,NA,NA,NA,NA,NA,NA,NA,NA,NA,NA,NA,NA,NA,NA
1dd15,"""Falsch""-Screen",canvas.Screen,3_0_5_0_2_0_2,NA,NA,timeout,4999.3400000001,861030,861023.96,861027.34,866010.52,866012,2023-09-27T15:39:00Z,866026.68,NULL,Vermutung,udhanifu,d,NA,NA,NA,NA,sdf,0,5,NA,NA,NA,NA,NA,NA,NA,NA,NA,NA,NA,NA,NA,NA,NA,NA,NA,NA,NA
1dd15,deep,flow.Sequence,3_0_5_0_2_0,NA,NA,completion,17798.2,848205,848196.04,848212.32,866010.52,866012,2023-09-27T15:39:00Z,866026.68,NULL,Vermutung,udhanifu,d,NA,NA,NA,NA,sdf,NA,5,NA,NA,NA,NA,NA,NA,NA,NA,NA,NA,NA,NA,NA,NA,NA,NA,NA,NA,NA
1dd15,shallow,flow.Sequence,3_0_5_0_2_1,NA,NA,skipped,NA,866013,NA,NA,866010.52,866013,2023-09-27T15:39:00Z,866026.68,NULL,Vermutung,udhanifu,d,NA,NA,NA,NA,sdf,NA,5,NA,NA,NA,NA,NA,NA,NA,NA,NA,NA,NA,NA,NA,NA,NA,NA,NA,NA,NA
1dd15,task,flow.Sequence,3_0_5_0_2,NA,NA,completion,17798.2,848205,848196.04,848212.32,866010.52,866013,2023-09-27T15:39:00Z,866026.68,NULL,Vermutung,udhanifu,d,NA,NA,NA,NA,sdf,NA,5,NA,NA,NA,NA,NA,NA,NA,NA,NA,NA,NA,NA,NA,NA,NA,NA,NA,NA,NA
1dd15,deep,flow.Sequence,3_0_5_0_3_0,NA,NA,skipped,NA,866014,NA,NA,866010.52,866014,2023-09-27T15:39:00Z,866026.68,NULL,Genehmigung,idhini,s,mwanamke,itikadi,fedheha,NA,sdf,NA,5,NA,NA,NA,NA,NA,NA,NA,NA,NA,NA,NA,NA,NA,NA,NA,NA,NA,NA,NA
1dd15,Shallow Question,html.Page,3_0_5_0_3_1_0,NA,NA,form submission,4844.3199999999,866014,866010.52,866026.68,870871,870872,2023-09-27T15:39:05Z,870876.02,NULL,Genehmigung,idhini,s,mwanamke,itikadi,fedheha,idhini,NA,NA,5,NA,NA,NA,NA,NA,NA,NA,NA,NA,NA,NA,NA,NA,NA,NA,NA,NA,NA,NA
1dd15,"""Richtig""-Screen",canvas.Screen,3_0_5_0_3_1_1,NA,NA,timeout,4999.4199999999,870874,870867.9,870876.02,875859.28,875860,2023-09-27T15:39:10Z,875875.44,NULL,Genehmigung,idhini,s,mwanamke,itikadi,fedheha,NA,sdf,1,5,NA,NA,NA,NA,NA,NA,NA,NA,NA,NA,NA,NA,NA,NA,NA,NA,NA,NA,NA
1dd15,"""Falsch""-Screen",canvas.Screen,3_0_5_0_3_1_2,NA,NA,skipped,NA,875865,NA,NA,875859.28,875866,2023-09-27T15:39:10Z,875875.44,NULL,Genehmigung,idhini,s,mwanamke,itikadi,fedheha,NA,sdf,NA,5,NA,NA,NA,NA,NA,NA,NA,NA,NA,NA,NA,NA,NA,NA,NA,NA,NA,NA,NA
1dd15,shallow,flow.Sequence,3_0_5_0_3_1,NA,NA,completion,9832.6,866014,866010.52,866026.68,875859.28,875866,2023-09-27T15:39:10Z,875875.44,NULL,Genehmigung,idhini,s,mwanamke,itikadi,fedheha,NA,sdf,NA,5,NA,NA,NA,NA,NA,NA,NA,NA,NA,NA,NA,NA,NA,NA,NA,NA,NA,NA,NA
1dd15,task,flow.Sequence,3_0_5_0_3,NA,NA,completion,9832.6,866014,866010.52,866026.68,875859.28,875867,2023-09-27T15:39:10Z,875875.44,NULL,Genehmigung,idhini,s,mwanamke,itikadi,fedheha,NA,sdf,NA,5,NA,NA,NA,NA,NA,NA,NA,NA,NA,NA,NA,NA,NA,NA,NA,NA,NA,NA,NA
1dd15,Deep Question,html.Page,3_0_5_0_4_0_0,NA,NA,form submission,4184.5600000001,875867,875859.28,875875.44,880060,880060,2023-09-27T15:39:14Z,880059.36,NULL,Fleisch,mshakiki,d,NA,NA,NA,mshakiki,NA,NA,5,NA,NA,NA,NA,NA,NA,NA,NA,NA,NA,NA,NA,NA,NA,NA,NA,NA,NA,NA
1dd15,"""Richtig""-Screen",canvas.Screen,3_0_5_0_4_0_1,NA,NA,timeout,4998.2000000001,880062,880059.02,880059.36,885041.3,885043,2023-09-27T15:39:19Z,885057.56,NULL,Fleisch,mshakiki,d,NA,NA,NA,NA,sdf,1,5,NA,NA,NA,NA,NA,NA,NA,NA,NA,NA,NA,NA,NA,NA,NA,NA,NA,NA,NA
1dd15,"""Falsch""-Screen",canvas.Screen,3_0_5_0_4_0_2,NA,NA,skipped,NA,885048,NA,NA,885041.3,885048,2023-09-27T15:39:19Z,885057.56,NULL,Fleisch,mshakiki,d,NA,NA,NA,NA,sdf,NA,5,NA,NA,NA,NA,NA,NA,NA,NA,NA,NA,NA,NA,NA,NA,NA,NA,NA,NA,NA
1dd15,deep,flow.Sequence,3_0_5_0_4_0,NA,NA,completion,9165.8600000001,875867,875859.28,875875.44,885041.3,885048,2023-09-27T15:39:19Z,885057.56,NULL,Fleisch,mshakiki,d,NA,NA,NA,NA,sdf,NA,5,NA,NA,NA,NA,NA,NA,NA,NA,NA,NA,NA,NA,NA,NA,NA,NA,NA,NA,NA
1dd15,shallow,flow.Sequence,3_0_5_0_4_1,NA,NA,skipped,NA,885048,NA,NA,885041.3,885049,2023-09-27T15:39:19Z,885057.56,NULL,Fleisch,mshakiki,d,NA,NA,NA,NA,sdf,NA,5,NA,NA,NA,NA,NA,NA,NA,NA,NA,NA,NA,NA,NA,NA,NA,NA,NA,NA,NA
1dd15,task,flow.Sequence,3_0_5_0_4,NA,NA,completion,9165.8600000001,875867,875859.28,875875.44,885041.3,885049,2023-09-27T15:39:19Z,885057.56,NULL,Fleisch,mshakiki,d,NA,NA,NA,NA,sdf,NA,5,NA,NA,NA,NA,NA,NA,NA,NA,NA,NA,NA,NA,NA,NA,NA,NA,NA,NA,NA
1dd15,deep,flow.Sequence,3_0_5_0_5_0,NA,NA,skipped,NA,885049,NA,NA,885041.3,885049,2023-09-27T15:39:19Z,885057.56,NULL,Toleranz,kuvumiliana,s,maombolezo,ujasusi,mchekeshaji,NA,sdf,NA,5,NA,NA,NA,NA,NA,NA,NA,NA,NA,NA,NA,NA,NA,NA,NA,NA,NA,NA,NA
1dd15,Shallow Question,html.Page,3_0_5_0_5_1_0,NA,NA,form submission,4737.4399999999,885050,885041.3,885057.56,889795,889795,2023-09-27T15:39:24Z,889806.88,NULL,Toleranz,kuvumiliana,s,maombolezo,ujasusi,mchekeshaji,kuvumiliana,NA,NA,5,NA,NA,NA,NA,NA,NA,NA,NA,NA,NA,NA,NA,NA,NA,NA,NA,NA,NA,NA
1dd15,"""Richtig""-Screen",canvas.Screen,3_0_5_0_5_1_1,NA,NA,timeout,4999.5,889797,889793.68,889806.88,894790.06,894791,2023-09-27T15:39:29Z,894806.38,NULL,Toleranz,kuvumiliana,s,maombolezo,ujasusi,mchekeshaji,NA,sdf,1,5,NA,NA,NA,NA,NA,NA,NA,NA,NA,NA,NA,NA,NA,NA,NA,NA,NA,NA,NA
1dd15,"""Falsch""-Screen",canvas.Screen,3_0_5_0_5_1_2,NA,NA,skipped,NA,894796,NA,NA,894790.06,894797,2023-09-27T15:39:29Z,894806.38,NULL,Toleranz,kuvumiliana,s,maombolezo,ujasusi,mchekeshaji,NA,sdf,NA,5,NA,NA,NA,NA,NA,NA,NA,NA,NA,NA,NA,NA,NA,NA,NA,NA,NA,NA,NA
1dd15,shallow,flow.Sequence,3_0_5_0_5_1,NA,NA,completion,9732.5,885050,885041.3,885057.56,894790.06,894797,2023-09-27T15:39:29Z,894806.38,NULL,Toleranz,kuvumiliana,s,maombolezo,ujasusi,mchekeshaji,NA,sdf,NA,5,NA,NA,NA,NA,NA,NA,NA,NA,NA,NA,NA,NA,NA,NA,NA,NA,NA,NA,NA
1dd15,task,flow.Sequence,3_0_5_0_5,NA,NA,completion,9732.5,885049,885041.3,885057.56,894790.06,894798,2023-09-27T15:39:29Z,894806.38,NULL,Toleranz,kuvumiliana,s,maombolezo,ujasusi,mchekeshaji,NA,sdf,NA,5,NA,NA,NA,NA,NA,NA,NA,NA,NA,NA,NA,NA,NA,NA,NA,NA,NA,NA,NA
1dd15,Deep Question,html.Page,3_0_5_0_6_0_0,NA,NA,form submission,26651.62,894798,894790.06,894806.38,921458,921458,2023-09-27T15:39:56Z,921456.6,NULL,Integrität,uadilifu,d,NA,NA,NA,udhakimo,NA,NA,5,NA,NA,NA,NA,NA,NA,NA,NA,NA,NA,NA,NA,NA,NA,NA,NA,NA,NA,NA
1dd15,"""Richtig""-Screen",canvas.Screen,3_0_5_0_6_0_1,NA,NA,skipped,NA,921460,NA,NA,921458,921460,2023-09-27T15:39:56Z,921456.6,NULL,Integrität,uadilifu,d,NA,NA,NA,NA,sdf,NA,5,NA,NA,NA,NA,NA,NA,NA,NA,NA,NA,NA,NA,NA,NA,NA,NA,NA,NA,NA
1dd15,"""Falsch""-Screen",canvas.Screen,3_0_5_0_6_0_2,NA,NA,timeout,4995.6800000001,921463,921456.24,921456.6,926436.04,926441,2023-09-27T15:40:01Z,926452.28,NULL,Integrität,uadilifu,d,NA,NA,NA,NA,sdf,0,5,NA,NA,NA,NA,NA,NA,NA,NA,NA,NA,NA,NA,NA,NA,NA,NA,NA,NA,NA
1dd15,deep,flow.Sequence,3_0_5_0_6_0,NA,NA,completion,31629.66,894798,894790.06,894806.38,926436.04,926443,2023-09-27T15:40:01Z,926452.28,NULL,Integrität,uadilifu,d,NA,NA,NA,NA,sdf,NA,5,NA,NA,NA,NA,NA,NA,NA,NA,NA,NA,NA,NA,NA,NA,NA,NA,NA,NA,NA
1dd15,shallow,flow.Sequence,3_0_5_0_6_1,NA,NA,skipped,NA,926445,NA,NA,926436.04,926445,2023-09-27T15:40:01Z,926452.28,NULL,Integrität,uadilifu,d,NA,NA,NA,NA,sdf,NA,5,NA,NA,NA,NA,NA,NA,NA,NA,NA,NA,NA,NA,NA,NA,NA,NA,NA,NA,NA
1dd15,task,flow.Sequence,3_0_5_0_6,NA,NA,completion,31629.66,894798,894790.06,894806.38,926436.04,926445,2023-09-27T15:40:01Z,926452.28,NULL,Integrität,uadilifu,d,NA,NA,NA,NA,sdf,NA,5,NA,NA,NA,NA,NA,NA,NA,NA,NA,NA,NA,NA,NA,NA,NA,NA,NA,NA,NA
1dd15,deep,flow.Sequence,3_0_5_0_7_0,NA,NA,skipped,NA,926445,NA,NA,926436.04,926445,2023-09-27T15:40:01Z,926452.28,NULL,Begegnung,kukutana,s,mmasihiya,mpiganaji,husiano,NA,sdf,NA,5,NA,NA,NA,NA,NA,NA,NA,NA,NA,NA,NA,NA,NA,NA,NA,NA,NA,NA,NA
1dd15,Shallow Question,html.Page,3_0_5_0_7_1_0,NA,NA,form submission,6615.72,926446,926436.04,926452.28,933068,933069,2023-09-27T15:40:07Z,933068.1,NULL,Begegnung,kukutana,s,mmasihiya,mpiganaji,husiano,kukutana,NA,NA,5,NA,NA,NA,NA,NA,NA,NA,NA,NA,NA,NA,NA,NA,NA,NA,NA,NA,NA,NA
1dd15,"""Richtig""-Screen",canvas.Screen,3_0_5_0_7_1_1,NA,NA,timeout,4999.38,933080,933059.92,933068.1,938050.9,938052,2023-09-27T15:40:12Z,938067.48,NULL,Begegnung,kukutana,s,mmasihiya,mpiganaji,husiano,NA,sdf,1,5,NA,NA,NA,NA,NA,NA,NA,NA,NA,NA,NA,NA,NA,NA,NA,NA,NA,NA,NA
1dd15,"""Falsch""-Screen",canvas.Screen,3_0_5_0_7_1_2,NA,NA,skipped,NA,938059,NA,NA,938050.9,938059,2023-09-27T15:40:12Z,938067.48,NULL,Begegnung,kukutana,s,mmasihiya,mpiganaji,husiano,NA,sdf,NA,5,NA,NA,NA,NA,NA,NA,NA,NA,NA,NA,NA,NA,NA,NA,NA,NA,NA,NA,NA
1dd15,shallow,flow.Sequence,3_0_5_0_7_1,NA,NA,completion,11598.62,926446,926436.04,926452.28,938050.9,938060,2023-09-27T15:40:12Z,938067.48,NULL,Begegnung,kukutana,s,mmasihiya,mpiganaji,husiano,NA,sdf,NA,5,NA,NA,NA,NA,NA,NA,NA,NA,NA,NA,NA,NA,NA,NA,NA,NA,NA,NA,NA
1dd15,task,flow.Sequence,3_0_5_0_7,NA,NA,completion,11598.62,926445,926436.04,926452.28,938050.9,938061,2023-09-27T15:40:12Z,938067.48,NULL,Begegnung,kukutana,s,mmasihiya,mpiganaji,husiano,NA,sdf,NA,5,NA,NA,NA,NA,NA,NA,NA,NA,NA,NA,NA,NA,NA,NA,NA,NA,NA,NA,NA
1dd15,block,flow.Loop,3_0_5_0,NA,NA,completion,112531.38,825519,825519.14,825519.52,938050.9,938062,2023-09-27T15:40:12Z,938067.48,NULL,NA,NA,NA,NA,NA,NA,NA,sdf,NA,5,NA,NA,NA,NA,NA,NA,NA,NA,NA,NA,NA,NA,NA,NA,NA,NA,NA,NA,NA
1dd15,weiter,canvas.Screen,3_0_5_1,sdf,keypress(Space),response,1133.52,938062,938050.9,938067.48,939201,939209,2023-09-27T15:40:14Z,939272.34,NULL,NA,NA,NA,NA,NA,NA,NA,sdf,NA,5,NA,NA,NA,NA,NA,NA,NA,NA,NA,NA,NA,NA,NA,NA,NA,NA,NA,NA,NA
1dd15,check continue,flow.Sequence,3_0_5,NA,NA,completion,113681.48,825518,825519.14,825519.52,939201,939209,2023-09-27T15:40:14Z,939272.34,NULL,NA,NA,NA,NA,NA,NA,NA,sdf,NA,5,NA,NA,NA,NA,NA,NA,NA,NA,NA,NA,NA,NA,NA,NA,NA,NA,NA,NA,NA
1dd15,deep,flow.Sequence,3_0_6_0_0_0,NA,NA,skipped,NA,939272,NA,NA,939201,939272,2023-09-27T15:40:14Z,939272.34,NULL,Begegnung,kukutana,s,mmasihiya,mpiganaji,husiano,NA,dfs,NA,6,NA,NA,NA,NA,NA,NA,NA,NA,NA,NA,NA,NA,NA,NA,NA,NA,NA,NA,NA
1dd15,Shallow Question,html.Page,3_0_6_0_0_1_0,NA,NA,form submission,5904.66,939272,939272.04,939272.34,945177,945177,2023-09-27T15:40:20Z,945183.18,NULL,Begegnung,kukutana,s,mmasihiya,mpiganaji,husiano,kukutana,NA,NA,6,NA,NA,NA,NA,NA,NA,NA,NA,NA,NA,NA,NA,NA,NA,NA,NA,NA,NA,NA
1dd15,"""Richtig""-Screen",canvas.Screen,3_0_6_0_0_1_1,NA,NA,timeout,4999.48,945182,945171.68,945183.18,950166.44,950167,2023-09-27T15:40:25Z,950182.66,NULL,Begegnung,kukutana,s,mmasihiya,mpiganaji,husiano,NA,dfs,1,6,NA,NA,NA,NA,NA,NA,NA,NA,NA,NA,NA,NA,NA,NA,NA,NA,NA,NA,NA
1dd15,"""Falsch""-Screen",canvas.Screen,3_0_6_0_0_1_2,NA,NA,skipped,NA,950174,NA,NA,950166.44,950175,2023-09-27T15:40:25Z,950182.66,NULL,Begegnung,kukutana,s,mmasihiya,mpiganaji,husiano,NA,dfs,NA,6,NA,NA,NA,NA,NA,NA,NA,NA,NA,NA,NA,NA,NA,NA,NA,NA,NA,NA,NA
1dd15,shallow,flow.Sequence,3_0_6_0_0_1,NA,NA,completion,10894.1,939272,939272.04,939272.34,950166.44,950175,2023-09-27T15:40:25Z,950182.66,NULL,Begegnung,kukutana,s,mmasihiya,mpiganaji,husiano,NA,dfs,NA,6,NA,NA,NA,NA,NA,NA,NA,NA,NA,NA,NA,NA,NA,NA,NA,NA,NA,NA,NA
1dd15,task,flow.Sequence,3_0_6_0_0,NA,NA,completion,10894.1,939272,939272.04,939272.34,950166.44,950176,2023-09-27T15:40:25Z,950182.66,NULL,Begegnung,kukutana,s,mmasihiya,mpiganaji,husiano,NA,dfs,NA,6,NA,NA,NA,NA,NA,NA,NA,NA,NA,NA,NA,NA,NA,NA,NA,NA,NA,NA,NA
1dd15,deep,flow.Sequence,3_0_6_0_1_0,NA,NA,skipped,NA,950176,NA,NA,950166.44,950176,2023-09-27T15:40:25Z,950182.66,NULL,Genehmigung,idhini,s,mwanamke,itikadi,fedheha,NA,dfs,NA,6,NA,NA,NA,NA,NA,NA,NA,NA,NA,NA,NA,NA,NA,NA,NA,NA,NA,NA,NA
1dd15,Shallow Question,html.Page,3_0_6_0_1_1_0,NA,NA,form submission,4514.34,950177,950166.44,950182.66,954697,954698,2023-09-27T15:40:29Z,954698.74,NULL,Genehmigung,idhini,s,mwanamke,itikadi,fedheha,idhini,NA,NA,6,NA,NA,NA,NA,NA,NA,NA,NA,NA,NA,NA,NA,NA,NA,NA,NA,NA,NA,NA
1dd15,"""Richtig""-Screen",canvas.Screen,3_0_6_0_1_1_1,NA,NA,timeout,4999.24,954702,954691.98,954698.74,959681.48,959682,2023-09-27T15:40:34Z,959697.98,NULL,Genehmigung,idhini,s,mwanamke,itikadi,fedheha,NA,dfs,1,6,NA,NA,NA,NA,NA,NA,NA,NA,NA,NA,NA,NA,NA,NA,NA,NA,NA,NA,NA
1dd15,"""Falsch""-Screen",canvas.Screen,3_0_6_0_1_1_2,NA,NA,skipped,NA,959687,NA,NA,959681.48,959688,2023-09-27T15:40:34Z,959697.98,NULL,Genehmigung,idhini,s,mwanamke,itikadi,fedheha,NA,dfs,NA,6,NA,NA,NA,NA,NA,NA,NA,NA,NA,NA,NA,NA,NA,NA,NA,NA,NA,NA,NA
1dd15,shallow,flow.Sequence,3_0_6_0_1_1,NA,NA,completion,9498.8199999999,950177,950166.44,950182.66,959681.48,959688,2023-09-27T15:40:34Z,959697.98,NULL,Genehmigung,idhini,s,mwanamke,itikadi,fedheha,NA,dfs,NA,6,NA,NA,NA,NA,NA,NA,NA,NA,NA,NA,NA,NA,NA,NA,NA,NA,NA,NA,NA
1dd15,task,flow.Sequence,3_0_6_0_1,NA,NA,completion,9498.8199999999,950176,950166.44,950182.66,959681.48,959688,2023-09-27T15:40:34Z,959697.98,NULL,Genehmigung,idhini,s,mwanamke,itikadi,fedheha,NA,dfs,NA,6,NA,NA,NA,NA,NA,NA,NA,NA,NA,NA,NA,NA,NA,NA,NA,NA,NA,NA,NA
1dd15,deep,flow.Sequence,3_0_6_0_2_0,NA,NA,skipped,NA,959688,NA,NA,959681.48,959689,2023-09-27T15:40:34Z,959697.98,NULL,Toleranz,kuvumiliana,s,maombolezo,ujasusi,mchekeshaji,NA,dfs,NA,6,NA,NA,NA,NA,NA,NA,NA,NA,NA,NA,NA,NA,NA,NA,NA,NA,NA,NA,NA
1dd15,Shallow Question,html.Page,3_0_6_0_2_1_0,NA,NA,form submission,14123.02,959689,959681.48,959697.98,973821,973822,2023-09-27T15:40:48Z,973829.54,NULL,Toleranz,kuvumiliana,s,maombolezo,ujasusi,mchekeshaji,kuvumiliana,NA,NA,6,NA,NA,NA,NA,NA,NA,NA,NA,NA,NA,NA,NA,NA,NA,NA,NA,NA,NA,NA
1dd15,"""Richtig""-Screen",canvas.Screen,3_0_6_0_2_1_1,NA,NA,timeout,4999.5399999999,973825,973817.2,973829.54,978812.34,978813,2023-09-27T15:40:53Z,978829.08,NULL,Toleranz,kuvumiliana,s,maombolezo,ujasusi,mchekeshaji,NA,dfs,1,6,NA,NA,NA,NA,NA,NA,NA,NA,NA,NA,NA,NA,NA,NA,NA,NA,NA,NA,NA
1dd15,"""Falsch""-Screen",canvas.Screen,3_0_6_0_2_1_2,NA,NA,skipped,NA,978819,NA,NA,978812.34,978820,2023-09-27T15:40:53Z,978829.08,NULL,Toleranz,kuvumiliana,s,maombolezo,ujasusi,mchekeshaji,NA,dfs,NA,6,NA,NA,NA,NA,NA,NA,NA,NA,NA,NA,NA,NA,NA,NA,NA,NA,NA,NA,NA
1dd15,shallow,flow.Sequence,3_0_6_0_2_1,NA,NA,completion,19114.36,959689,959681.48,959697.98,978812.34,978820,2023-09-27T15:40:53Z,978829.08,NULL,Toleranz,kuvumiliana,s,maombolezo,ujasusi,mchekeshaji,NA,dfs,NA,6,NA,NA,NA,NA,NA,NA,NA,NA,NA,NA,NA,NA,NA,NA,NA,NA,NA,NA,NA
1dd15,task,flow.Sequence,3_0_6_0_2,NA,NA,completion,19114.36,959688,959681.48,959697.98,978812.34,978820,2023-09-27T15:40:53Z,978829.08,NULL,Toleranz,kuvumiliana,s,maombolezo,ujasusi,mchekeshaji,NA,dfs,NA,6,NA,NA,NA,NA,NA,NA,NA,NA,NA,NA,NA,NA,NA,NA,NA,NA,NA,NA,NA
1dd15,deep,flow.Sequence,3_0_6_0_3_0,NA,NA,skipped,NA,978820,NA,NA,978812.34,978820,2023-09-27T15:40:53Z,978829.08,NULL,Schlange,foleni,s,uvumilivu,uteuzi,muuzaji,NA,dfs,NA,6,NA,NA,NA,NA,NA,NA,NA,NA,NA,NA,NA,NA,NA,NA,NA,NA,NA,NA,NA
1dd15,Shallow Question,html.Page,3_0_6_0_3_1_0,NA,NA,form submission,4201.92,978820,978812.34,978829.08,983031,983036,2023-09-27T15:40:57Z,983045.06,NULL,Schlange,foleni,s,uvumilivu,uteuzi,muuzaji,foleni,NA,NA,6,NA,NA,NA,NA,NA,NA,NA,NA,NA,NA,NA,NA,NA,NA,NA,NA,NA,NA,NA
1dd15,"""Richtig""-Screen",canvas.Screen,3_0_6_0_3_1_1,NA,NA,timeout,4999.46,983045,983021.42,983045.06,988028.3,988029,2023-09-27T15:41:02Z,988044.52,NULL,Schlange,foleni,s,uvumilivu,uteuzi,muuzaji,NA,dfs,1,6,NA,NA,NA,NA,NA,NA,NA,NA,NA,NA,NA,NA,NA,NA,NA,NA,NA,NA,NA
1dd15,"""Falsch""-Screen",canvas.Screen,3_0_6_0_3_1_2,NA,NA,skipped,NA,988040,NA,NA,988028.3,988040,2023-09-27T15:41:02Z,988044.52,NULL,Schlange,foleni,s,uvumilivu,uteuzi,muuzaji,NA,dfs,NA,6,NA,NA,NA,NA,NA,NA,NA,NA,NA,NA,NA,NA,NA,NA,NA,NA,NA,NA,NA
1dd15,shallow,flow.Sequence,3_0_6_0_3_1,NA,NA,completion,9199.2200000001,978820,978812.34,978829.08,988028.3,988041,2023-09-27T15:41:02Z,988044.52,NULL,Schlange,foleni,s,uvumilivu,uteuzi,muuzaji,NA,dfs,NA,6,NA,NA,NA,NA,NA,NA,NA,NA,NA,NA,NA,NA,NA,NA,NA,NA,NA,NA,NA
1dd15,task,flow.Sequence,3_0_6_0_3,NA,NA,completion,9199.2200000001,978820,978812.34,978829.08,988028.3,988042,2023-09-27T15:41:02Z,988044.52,NULL,Schlange,foleni,s,uvumilivu,uteuzi,muuzaji,NA,dfs,NA,6,NA,NA,NA,NA,NA,NA,NA,NA,NA,NA,NA,NA,NA,NA,NA,NA,NA,NA,NA
1dd15,Deep Question,html.Page,3_0_6_0_4_0_0,NA,NA,form submission,4506.48,988043,988028.3,988044.52,992551,992551,2023-09-27T15:41:07Z,992560.58,NULL,Integrität,uadilifu,d,NA,NA,NA,uadilifu,NA,NA,6,NA,NA,NA,NA,NA,NA,NA,NA,NA,NA,NA,NA,NA,NA,NA,NA,NA,NA,NA
1dd15,"""Richtig""-Screen",canvas.Screen,3_0_6_0_4_0_1,NA,NA,timeout,4999.4,992553,992549.68,992560.58,997543.28,997545,2023-09-27T15:41:12Z,997559.98,NULL,Integrität,uadilifu,d,NA,NA,NA,NA,dfs,1,6,NA,NA,NA,NA,NA,NA,NA,NA,NA,NA,NA,NA,NA,NA,NA,NA,NA,NA,NA
1dd15,"""Falsch""-Screen",canvas.Screen,3_0_6_0_4_0_2,NA,NA,skipped,NA,997551,NA,NA,997543.28,997551,2023-09-27T15:41:12Z,997559.98,NULL,Integrität,uadilifu,d,NA,NA,NA,NA,dfs,NA,6,NA,NA,NA,NA,NA,NA,NA,NA,NA,NA,NA,NA,NA,NA,NA,NA,NA,NA,NA
1dd15,deep,flow.Sequence,3_0_6_0_4_0,NA,NA,completion,9498.76,988042,988028.3,988044.52,997543.28,997552,2023-09-27T15:41:12Z,997559.98,NULL,Integrität,uadilifu,d,NA,NA,NA,NA,dfs,NA,6,NA,NA,NA,NA,NA,NA,NA,NA,NA,NA,NA,NA,NA,NA,NA,NA,NA,NA,NA
1dd15,shallow,flow.Sequence,3_0_6_0_4_1,NA,NA,skipped,NA,997552,NA,NA,997543.28,997552,2023-09-27T15:41:12Z,997559.98,NULL,Integrität,uadilifu,d,NA,NA,NA,NA,dfs,NA,6,NA,NA,NA,NA,NA,NA,NA,NA,NA,NA,NA,NA,NA,NA,NA,NA,NA,NA,NA
1dd15,task,flow.Sequence,3_0_6_0_4,NA,NA,completion,9498.76,988042,988028.3,988044.52,997543.28,997552,2023-09-27T15:41:12Z,997559.98,NULL,Integrität,uadilifu,d,NA,NA,NA,NA,dfs,NA,6,NA,NA,NA,NA,NA,NA,NA,NA,NA,NA,NA,NA,NA,NA,NA,NA,NA,NA,NA
1dd15,Deep Question,html.Page,3_0_6_0_5_0_0,NA,NA,form submission,9899.02,997552,997543.28,997559.98,1007459,1007459,2023-09-27T15:41:22Z,1007459.56,NULL,Inhalt,yaliyomo,d,NA,NA,NA,uafiluom,NA,NA,6,NA,NA,NA,NA,NA,NA,NA,NA,NA,NA,NA,NA,NA,NA,NA,NA,NA,NA,NA
1dd15,"""Richtig""-Screen",canvas.Screen,3_0_6_0_5_0_1,NA,NA,skipped,NA,1007462,NA,NA,1007459,1007463,2023-09-27T15:41:22Z,1007459.56,NULL,Inhalt,yaliyomo,d,NA,NA,NA,NA,dfs,NA,6,NA,NA,NA,NA,NA,NA,NA,NA,NA,NA,NA,NA,NA,NA,NA,NA,NA,NA,NA
1dd15,"""Falsch""-Screen",canvas.Screen,3_0_6_0_5_0_2,NA,NA,timeout,4998.46,1007466,1007458.02,1007459.56,1012441.38,1012443,2023-09-27T15:41:27Z,1012458.02,NULL,Inhalt,yaliyomo,d,NA,NA,NA,NA,dfs,0,6,NA,NA,NA,NA,NA,NA,NA,NA,NA,NA,NA,NA,NA,NA,NA,NA,NA,NA,NA
1dd15,deep,flow.Sequence,3_0_6_0_5_0,NA,NA,completion,14881.4,997552,997543.28,997559.98,1012441.38,1012444,2023-09-27T15:41:27Z,1012458.02,NULL,Inhalt,yaliyomo,d,NA,NA,NA,NA,dfs,NA,6,NA,NA,NA,NA,NA,NA,NA,NA,NA,NA,NA,NA,NA,NA,NA,NA,NA,NA,NA
1dd15,shallow,flow.Sequence,3_0_6_0_5_1,NA,NA,skipped,NA,1012445,NA,NA,1012441.38,1012445,2023-09-27T15:41:27Z,1012458.02,NULL,Inhalt,yaliyomo,d,NA,NA,NA,NA,dfs,NA,6,NA,NA,NA,NA,NA,NA,NA,NA,NA,NA,NA,NA,NA,NA,NA,NA,NA,NA,NA
1dd15,task,flow.Sequence,3_0_6_0_5,NA,NA,completion,14881.4,997552,997543.28,997559.98,1012441.38,1012446,2023-09-27T15:41:27Z,1012458.02,NULL,Inhalt,yaliyomo,d,NA,NA,NA,NA,dfs,NA,6,NA,NA,NA,NA,NA,NA,NA,NA,NA,NA,NA,NA,NA,NA,NA,NA,NA,NA,NA
1dd15,Deep Question,html.Page,3_0_6_0_6_0_0,NA,NA,form submission,6239.98,1012446,1012441.38,1012458.02,1018698,1018699,2023-09-27T15:41:33Z,1018697.48,NULL,Fleisch,mshakiki,d,NA,NA,NA,mshakiki,NA,NA,6,NA,NA,NA,NA,NA,NA,NA,NA,NA,NA,NA,NA,NA,NA,NA,NA,NA,NA,NA
1dd15,"""Richtig""-Screen",canvas.Screen,3_0_6_0_6_0_1,NA,NA,timeout,4992.52,1018701,1018697.12,1018697.48,1023673.28,1023674,2023-09-27T15:41:38Z,1023690,NULL,Fleisch,mshakiki,d,NA,NA,NA,NA,dfs,1,6,NA,NA,NA,NA,NA,NA,NA,NA,NA,NA,NA,NA,NA,NA,NA,NA,NA,NA,NA
1dd15,"""Falsch""-Screen",canvas.Screen,3_0_6_0_6_0_2,NA,NA,skipped,NA,1023680,NA,NA,1023673.28,1023680,2023-09-27T15:41:38Z,1023690,NULL,Fleisch,mshakiki,d,NA,NA,NA,NA,dfs,NA,6,NA,NA,NA,NA,NA,NA,NA,NA,NA,NA,NA,NA,NA,NA,NA,NA,NA,NA,NA
1dd15,deep,flow.Sequence,3_0_6_0_6_0,NA,NA,completion,11215.26,1012446,1012441.38,1012458.02,1023673.28,1023681,2023-09-27T15:41:38Z,1023690,NULL,Fleisch,mshakiki,d,NA,NA,NA,NA,dfs,NA,6,NA,NA,NA,NA,NA,NA,NA,NA,NA,NA,NA,NA,NA,NA,NA,NA,NA,NA,NA
1dd15,shallow,flow.Sequence,3_0_6_0_6_1,NA,NA,skipped,NA,1023681,NA,NA,1023673.28,1023681,2023-09-27T15:41:38Z,1023690,NULL,Fleisch,mshakiki,d,NA,NA,NA,NA,dfs,NA,6,NA,NA,NA,NA,NA,NA,NA,NA,NA,NA,NA,NA,NA,NA,NA,NA,NA,NA,NA
1dd15,task,flow.Sequence,3_0_6_0_6,NA,NA,completion,11215.26,1012446,1012441.38,1012458.02,1023673.28,1023681,2023-09-27T15:41:38Z,1023690,NULL,Fleisch,mshakiki,d,NA,NA,NA,NA,dfs,NA,6,NA,NA,NA,NA,NA,NA,NA,NA,NA,NA,NA,NA,NA,NA,NA,NA,NA,NA,NA
1dd15,Deep Question,html.Page,3_0_6_0_7_0_0,NA,NA,form submission,6530,1023682,1023673.28,1023690,1030220,1030221,2023-09-27T15:41:45Z,1030222.32,NULL,Vermutung,udhanifu,d,NA,NA,NA,yaliyomo,NA,NA,6,NA,NA,NA,NA,NA,NA,NA,NA,NA,NA,NA,NA,NA,NA,NA,NA,NA,NA,NA
1dd15,"""Richtig""-Screen",canvas.Screen,3_0_6_0_7_0_1,NA,NA,skipped,NA,1030222,NA,NA,1030220,1030222,2023-09-27T15:41:45Z,1030222.32,NULL,Vermutung,udhanifu,d,NA,NA,NA,NA,dfs,NA,6,NA,NA,NA,NA,NA,NA,NA,NA,NA,NA,NA,NA,NA,NA,NA,NA,NA,NA,NA
1dd15,"""Falsch""-Screen",canvas.Screen,3_0_6_0_7_0_2,NA,NA,timeout,4999.4600000001,1030224,1030219.42,1030222.32,1035205.4,1035206,2023-09-27T15:41:50Z,1035221.78,NULL,Vermutung,udhanifu,d,NA,NA,NA,NA,dfs,0,6,NA,NA,NA,NA,NA,NA,NA,NA,NA,NA,NA,NA,NA,NA,NA,NA,NA,NA,NA
