observation,sender,sender_type,sender_id,response,response_action,ended_on,duration,time_run,time_render,time_show,time_end,time_commit,timestamp,time_switch,distractors,german,swahili,enc,distractor1,distractor2,distractor3,response_2,x,correct,x_2,url_vp,url_sess,meta_labjs_version,meta_location,meta_user_agent,meta_platform,meta_language,meta_locale,meta_time_zone,meta_timezone_offset,meta_screen_width,meta_screen_height,meta_scroll_width,meta_scroll_height,meta_window_inner_width,meta_window_inner_height,meta_device_pixel_ratio,meta_labjs_build_flavor,meta_labjs_build_commit
Inf,Introduction general,canvas.Screen,0,weiter,keypress(q),response,8011,403,414.34,431,8442,8450,2023-08-06T09:58:21Z,8451.6,NULL,NA,NA,NA,NA,NA,NA,NA,NA,NA,NA,177,3,20.2.4,https://neurocog.fernuni.ch/studies/vweber/sliechti/encoding_immediate/index.html?vp=177&sess=3,Mozilla/5.0 (Windows NT 10.0; Win64; x64; rv:109.0) Gecko/20100101 Firefox/116.0,Win32,de,de-CH,Europe/Zurich,-120,1280,720,1280,587,1280,587,1.5,production,f5b4a49f956347addd546a832a3327688c2c0fef
Inf,Introduction practice,canvas.Screen,1_0,NA,keypress(Space),response,8646.4,8452,8451.32,8451.6,17098,17115,2023-08-06T09:58:30Z,17115.78,NULL,NA,NA,NA,NA,NA,NA,NA,NA,NA,NA,NA,NA,NA,NA,NA,NA,NA,NA,NA,NA,NA,NA,NA,NA,NA,NA,NA,NA,NA
Inf,deep,flow.Sequence,1_1_0_0,NA,NA,skipped,NA,17115,NA,NA,17098,17115,2023-08-06T09:58:30Z,17115.78,"c(""distractor1"", ""distractor2"", ""distractor3"")",Rückhalt,msaada,s,muhula,auwali,kiwimbe,NA,NA,NA,NA,NA,NA,NA,NA,NA,NA,NA,NA,NA,NA,NA,NA,NA,NA,NA,NA,NA,NA,NA
Inf,Shallow Question,html.Page,1_1_0_1_0,NA,NA,form submission,15230.22,17116,17115.44,17115.78,32346,32346,2023-08-06T09:58:45Z,32360.26,"c(""distractor1"", ""distractor2"", ""distractor3"")",Rückhalt,msaada,s,muhula,auwali,kiwimbe,muhula,NA,NA,NA,NA,NA,NA,NA,NA,NA,NA,NA,NA,NA,NA,NA,NA,NA,NA,NA,NA,NA,NA
Inf,"""Richtig""-Screen",canvas.Screen,1_1_0_1_1,NA,NA,skipped,NA,32356,NA,NA,32346,32357,2023-08-06T09:58:45Z,32360.26,"c(""distractor1"", ""distractor2"", ""distractor3"")",Rückhalt,msaada,s,muhula,auwali,kiwimbe,NA,NA,NA,NA,NA,NA,NA,NA,NA,NA,NA,NA,NA,NA,NA,NA,NA,NA,NA,NA,NA,NA,NA
Inf,"""Falsch""-Screen",canvas.Screen,1_1_0_1_2,NA,NA,timeout,4999.38,32360,32339.96,32360.26,37343.08,37345,2023-08-06T09:58:50Z,37359.64,"c(""distractor1"", ""distractor2"", ""distractor3"")",Rückhalt,msaada,s,muhula,auwali,kiwimbe,NA,NA,0,NA,NA,NA,NA,NA,NA,NA,NA,NA,NA,NA,NA,NA,NA,NA,NA,NA,NA,NA,NA
Inf,shallow,flow.Sequence,1_1_0_1,NA,NA,completion,20227.3,17116,17115.44,17115.78,37343.08,37346,2023-08-06T09:58:50Z,37359.64,"c(""distractor1"", ""distractor2"", ""distractor3"")",Rückhalt,msaada,s,muhula,auwali,kiwimbe,NA,NA,NA,NA,NA,NA,NA,NA,NA,NA,NA,NA,NA,NA,NA,NA,NA,NA,NA,NA,NA,NA,NA
Inf,task,flow.Sequence,1_1_0,NA,NA,completion,20227.3,17115,17115.44,17115.78,37343.08,37346,2023-08-06T09:58:50Z,37359.64,"c(""distractor1"", ""distractor2"", ""distractor3"")",Rückhalt,msaada,s,muhula,auwali,kiwimbe,NA,NA,NA,NA,NA,NA,NA,NA,NA,NA,NA,NA,NA,NA,NA,NA,NA,NA,NA,NA,NA,NA,NA
Inf,deep,flow.Sequence,1_1_1_0,NA,NA,skipped,NA,37347,NA,NA,37343.08,37347,2023-08-06T09:58:50Z,37359.64,"c(""distractor1"", ""distractor2"", ""distractor3"")",Kritik,lawama,s,dereva,nafasi,mawazo,NA,NA,NA,NA,NA,NA,NA,NA,NA,NA,NA,NA,NA,NA,NA,NA,NA,NA,NA,NA,NA,NA,NA
Inf,Shallow Question,html.Page,1_1_1_1_0,NA,NA,form submission,13854.36,37348,37343.08,37359.64,51214,51215,2023-08-06T09:59:04Z,51224.48,"c(""distractor1"", ""distractor2"", ""distractor3"")",Kritik,lawama,s,dereva,nafasi,mawazo,nafasi,NA,NA,NA,NA,NA,NA,NA,NA,NA,NA,NA,NA,NA,NA,NA,NA,NA,NA,NA,NA,NA,NA
Inf,"""Richtig""-Screen",canvas.Screen,1_1_1_1_1,NA,NA,skipped,NA,51218,NA,NA,51214,51219,2023-08-06T09:59:04Z,51224.48,"c(""distractor1"", ""distractor2"", ""distractor3"")",Kritik,lawama,s,dereva,nafasi,mawazo,NA,NA,NA,NA,NA,NA,NA,NA,NA,NA,NA,NA,NA,NA,NA,NA,NA,NA,NA,NA,NA,NA,NA
Inf,"""Falsch""-Screen",canvas.Screen,1_1_1_1_2,NA,NA,timeout,4999.42,51222,51212,51224.48,56207.26,56208,2023-08-06T09:59:09Z,56223.9,"c(""distractor1"", ""distractor2"", ""distractor3"")",Kritik,lawama,s,dereva,nafasi,mawazo,NA,NA,0,NA,NA,NA,NA,NA,NA,NA,NA,NA,NA,NA,NA,NA,NA,NA,NA,NA,NA,NA,NA
Inf,shallow,flow.Sequence,1_1_1_1,NA,NA,completion,18847.62,37348,37343.08,37359.64,56207.26,56211,2023-08-06T09:59:09Z,56223.9,"c(""distractor1"", ""distractor2"", ""distractor3"")",Kritik,lawama,s,dereva,nafasi,mawazo,NA,NA,NA,NA,NA,NA,NA,NA,NA,NA,NA,NA,NA,NA,NA,NA,NA,NA,NA,NA,NA,NA,NA
Inf,task,flow.Sequence,1_1_1,NA,NA,completion,18847.62,37347,37343.08,37359.64,56207.26,56211,2023-08-06T09:59:09Z,56223.9,"c(""distractor1"", ""distractor2"", ""distractor3"")",Kritik,lawama,s,dereva,nafasi,mawazo,NA,NA,NA,NA,NA,NA,NA,NA,NA,NA,NA,NA,NA,NA,NA,NA,NA,NA,NA,NA,NA,NA,NA
Inf,deep,flow.Sequence,1_1_2_0,NA,NA,skipped,NA,56211,NA,NA,56207.26,56212,2023-08-06T09:59:09Z,56223.9,"c(""distractor1"", ""distractor2"", ""distractor3"")",Gegenwart,hadhara,s,katiba,jokofu,mikopo,NA,NA,NA,NA,NA,NA,NA,NA,NA,NA,NA,NA,NA,NA,NA,NA,NA,NA,NA,NA,NA,NA,NA
Inf,Shallow Question,html.Page,1_1_2_1_0,NA,NA,form submission,8035.1,56212,56207.26,56223.9,64259,64259,2023-08-06T09:59:17Z,64256.08,"c(""distractor1"", ""distractor2"", ""distractor3"")",Gegenwart,hadhara,s,katiba,jokofu,mikopo,hadhara,NA,NA,NA,NA,NA,NA,NA,NA,NA,NA,NA,NA,NA,NA,NA,NA,NA,NA,NA,NA,NA,NA
Inf,"""Richtig""-Screen",canvas.Screen,1_1_2_1_1,NA,NA,timeout,4999.46,64263,64254.4,64256.08,69238.86,69244,2023-08-06T09:59:22Z,69255.54,"c(""distractor1"", ""distractor2"", ""distractor3"")",Gegenwart,hadhara,s,katiba,jokofu,mikopo,NA,NA,1,NA,NA,NA,NA,NA,NA,NA,NA,NA,NA,NA,NA,NA,NA,NA,NA,NA,NA,NA,NA
Inf,"""Falsch""-Screen",canvas.Screen,1_1_2_1_2,NA,NA,skipped,NA,69257,NA,NA,69238.86,69258,2023-08-06T09:59:22Z,69255.54,"c(""distractor1"", ""distractor2"", ""distractor3"")",Gegenwart,hadhara,s,katiba,jokofu,mikopo,NA,NA,NA,NA,NA,NA,NA,NA,NA,NA,NA,NA,NA,NA,NA,NA,NA,NA,NA,NA,NA,NA,NA
Inf,shallow,flow.Sequence,1_1_2_1,NA,NA,completion,13014.96,56212,56207.26,56223.9,69238.86,69258,2023-08-06T09:59:22Z,69255.54,"c(""distractor1"", ""distractor2"", ""distractor3"")",Gegenwart,hadhara,s,katiba,jokofu,mikopo,NA,NA,NA,NA,NA,NA,NA,NA,NA,NA,NA,NA,NA,NA,NA,NA,NA,NA,NA,NA,NA,NA,NA
Inf,task,flow.Sequence,1_1_2,NA,NA,completion,13014.96,56211,56207.26,56223.9,69238.86,69258,2023-08-06T09:59:22Z,69255.54,"c(""distractor1"", ""distractor2"", ""distractor3"")",Gegenwart,hadhara,s,katiba,jokofu,mikopo,NA,NA,NA,NA,NA,NA,NA,NA,NA,NA,NA,NA,NA,NA,NA,NA,NA,NA,NA,NA,NA,NA,NA
Inf,Deep Question,html.Page,1_1_3_0_0,NA,NA,form submission,7708.46,69259,69238.86,69255.54,76964,76965,2023-08-06T09:59:29Z,76971.08,"c(""distractor1"", ""distractor2"", ""distractor3"")",Qualität,mtindo,d,NA,NA,NA,k,NA,NA,NA,NA,NA,NA,NA,NA,NA,NA,NA,NA,NA,NA,NA,NA,NA,NA,NA,NA,NA,NA
Inf,"""Richtig""-Screen",canvas.Screen,1_1_3_0_1,NA,NA,skipped,NA,76967,NA,NA,76964,76967,2023-08-06T09:59:29Z,76971.08,"c(""distractor1"", ""distractor2"", ""distractor3"")",Qualität,mtindo,d,NA,NA,NA,NA,NA,NA,NA,NA,NA,NA,NA,NA,NA,NA,NA,NA,NA,NA,NA,NA,NA,NA,NA,NA,NA,NA
Inf,"""Falsch""-Screen",canvas.Screen,1_1_3_0_2,NA,NA,timeout,4999.44,76969,76962.68,76971.08,81953.86,81955,2023-08-06T09:59:34Z,81970.52,"c(""distractor1"", ""distractor2"", ""distractor3"")",Qualität,mtindo,d,NA,NA,NA,NA,NA,0,NA,NA,NA,NA,NA,NA,NA,NA,NA,NA,NA,NA,NA,NA,NA,NA,NA,NA,NA,NA
Inf,deep,flow.Sequence,1_1_3_0,NA,NA,completion,12698.32,69259,69238.86,69255.54,81953.86,81956,2023-08-06T09:59:34Z,81970.52,"c(""distractor1"", ""distractor2"", ""distractor3"")",Qualität,mtindo,d,NA,NA,NA,NA,NA,NA,NA,NA,NA,NA,NA,NA,NA,NA,NA,NA,NA,NA,NA,NA,NA,NA,NA,NA,NA,NA
Inf,shallow,flow.Sequence,1_1_3_1,NA,NA,skipped,NA,81956,NA,NA,81953.86,81956,2023-08-06T09:59:34Z,81970.52,"c(""distractor1"", ""distractor2"", ""distractor3"")",Qualität,mtindo,d,NA,NA,NA,NA,NA,NA,NA,NA,NA,NA,NA,NA,NA,NA,NA,NA,NA,NA,NA,NA,NA,NA,NA,NA,NA,NA
Inf,task,flow.Sequence,1_1_3,NA,NA,completion,12698.32,69259,69238.86,69255.54,81953.86,81956,2023-08-06T09:59:34Z,81970.52,"c(""distractor1"", ""distractor2"", ""distractor3"")",Qualität,mtindo,d,NA,NA,NA,NA,NA,NA,NA,NA,NA,NA,NA,NA,NA,NA,NA,NA,NA,NA,NA,NA,NA,NA,NA,NA,NA,NA
Inf,Deep Question,html.Page,1_1_4_0_0,NA,NA,form submission,9176.48,81957,81953.86,81970.52,91147,91147,2023-08-06T09:59:44Z,91152.68,"c(""distractor1"", ""distractor2"", ""distractor3"")",Gesundheit,salama,d,NA,NA,NA,kudhini,NA,NA,NA,NA,NA,NA,NA,NA,NA,NA,NA,NA,NA,NA,NA,NA,NA,NA,NA,NA,NA,NA
Inf,"""Richtig""-Screen",canvas.Screen,1_1_4_0_1,NA,NA,skipped,NA,91150,NA,NA,91147,91151,2023-08-06T09:59:44Z,91152.68,"c(""distractor1"", ""distractor2"", ""distractor3"")",Gesundheit,salama,d,NA,NA,NA,NA,NA,NA,NA,NA,NA,NA,NA,NA,NA,NA,NA,NA,NA,NA,NA,NA,NA,NA,NA,NA,NA,NA
Inf,"""Falsch""-Screen",canvas.Screen,1_1_4_0_2,NA,NA,timeout,4999.34,91154,91146.16,91152.68,96135.36,96137,2023-08-06T09:59:49Z,96152.02,"c(""distractor1"", ""distractor2"", ""distractor3"")",Gesundheit,salama,d,NA,NA,NA,NA,NA,0,NA,NA,NA,NA,NA,NA,NA,NA,NA,NA,NA,NA,NA,NA,NA,NA,NA,NA,NA,NA
Inf,deep,flow.Sequence,1_1_4_0,NA,NA,completion,14164.84,81957,81953.86,81970.52,96135.36,96137,2023-08-06T09:59:49Z,96152.02,"c(""distractor1"", ""distractor2"", ""distractor3"")",Gesundheit,salama,d,NA,NA,NA,NA,NA,NA,NA,NA,NA,NA,NA,NA,NA,NA,NA,NA,NA,NA,NA,NA,NA,NA,NA,NA,NA,NA
Inf,shallow,flow.Sequence,1_1_4_1,NA,NA,skipped,NA,96137,NA,NA,96135.36,96137,2023-08-06T09:59:49Z,96152.02,"c(""distractor1"", ""distractor2"", ""distractor3"")",Gesundheit,salama,d,NA,NA,NA,NA,NA,NA,NA,NA,NA,NA,NA,NA,NA,NA,NA,NA,NA,NA,NA,NA,NA,NA,NA,NA,NA,NA
Inf,task,flow.Sequence,1_1_4,NA,NA,completion,14164.84,81957,81953.86,81970.52,96135.36,96137,2023-08-06T09:59:49Z,96152.02,"c(""distractor1"", ""distractor2"", ""distractor3"")",Gesundheit,salama,d,NA,NA,NA,NA,NA,NA,NA,NA,NA,NA,NA,NA,NA,NA,NA,NA,NA,NA,NA,NA,NA,NA,NA,NA,NA,NA
Inf,Deep Question,html.Page,1_1_5_0_0,NA,NA,form submission,3363.98,96138,96135.36,96152.02,99516,99517,2023-08-06T09:59:52Z,99518.22,"c(""distractor1"", ""distractor2"", ""distractor3"")",Schatten,kivuli,d,NA,NA,NA,k,NA,NA,NA,NA,NA,NA,NA,NA,NA,NA,NA,NA,NA,NA,NA,NA,NA,NA,NA,NA,NA,NA
Inf,"""Richtig""-Screen",canvas.Screen,1_1_5_0_1,NA,NA,skipped,NA,99520,NA,NA,99516,99521,2023-08-06T09:59:52Z,99518.22,"c(""distractor1"", ""distractor2"", ""distractor3"")",Schatten,kivuli,d,NA,NA,NA,NA,NA,NA,NA,NA,NA,NA,NA,NA,NA,NA,NA,NA,NA,NA,NA,NA,NA,NA,NA,NA,NA,NA
Inf,"""Falsch""-Screen",canvas.Screen,1_1_5_0_2,NA,NA,timeout,4999.32,99523,99515.32,99518.22,104500.88,104502,2023-08-06T09:59:57Z,104517.54,"c(""distractor1"", ""distractor2"", ""distractor3"")",Schatten,kivuli,d,NA,NA,NA,NA,NA,0,NA,NA,NA,NA,NA,NA,NA,NA,NA,NA,NA,NA,NA,NA,NA,NA,NA,NA,NA,NA
Inf,deep,flow.Sequence,1_1_5_0,NA,NA,completion,8348.86,96138,96135.36,96152.02,104500.88,104503,2023-08-06T09:59:57Z,104517.54,"c(""distractor1"", ""distractor2"", ""distractor3"")",Schatten,kivuli,d,NA,NA,NA,NA,NA,NA,NA,NA,NA,NA,NA,NA,NA,NA,NA,NA,NA,NA,NA,NA,NA,NA,NA,NA,NA,NA
Inf,shallow,flow.Sequence,1_1_5_1,NA,NA,skipped,NA,104503,NA,NA,104500.88,104504,2023-08-06T09:59:57Z,104517.54,"c(""distractor1"", ""distractor2"", ""distractor3"")",Schatten,kivuli,d,NA,NA,NA,NA,NA,NA,NA,NA,NA,NA,NA,NA,NA,NA,NA,NA,NA,NA,NA,NA,NA,NA,NA,NA,NA,NA
Inf,task,flow.Sequence,1_1_5,NA,NA,completion,8348.86,96138,96135.36,96152.02,104500.88,104504,2023-08-06T09:59:57Z,104517.54,"c(""distractor1"", ""distractor2"", ""distractor3"")",Schatten,kivuli,d,NA,NA,NA,NA,NA,NA,NA,NA,NA,NA,NA,NA,NA,NA,NA,NA,NA,NA,NA,NA,NA,NA,NA,NA,NA,NA
Inf,block,flow.Loop,1_1,NA,NA,completion,87385.1,17115,17115.44,17115.78,104500.88,104505,2023-08-06T09:59:57Z,104517.54,"c(""distractor1"", ""distractor2"", ""distractor3"")",NA,NA,NA,NA,NA,NA,NA,NA,NA,NA,NA,NA,NA,NA,NA,NA,NA,NA,NA,NA,NA,NA,NA,NA,NA,NA,NA,NA,NA
Inf,Practice,flow.Sequence,1,NA,NA,completion,96049.28,8451,8451.32,8451.6,104500.88,104506,2023-08-06T09:59:57Z,104517.54,NULL,NA,NA,NA,NA,NA,NA,NA,NA,NA,NA,NA,NA,NA,NA,NA,NA,NA,NA,NA,NA,NA,NA,NA,NA,NA,NA,NA,NA,NA
Inf,Experiment start,canvas.Screen,2,weiter,keypress(q),response,13565.46,104506,104500.88,104517.54,118083,118103,2023-08-06T10:00:11Z,118201.3,NULL,NA,NA,NA,NA,NA,NA,NA,NA,NA,NA,NA,NA,NA,NA,NA,NA,NA,NA,NA,NA,NA,NA,NA,NA,NA,NA,NA,NA,NA
Inf,deep,flow.Sequence,3_0_0_0_0_0,NA,NA,skipped,NA,118201,NA,NA,118083,118201,2023-08-06T10:00:11Z,118201.3,NULL,Notfall,dharura,s,rairai,malalamiko,ahueni,NA,sdf,NA,0,NA,NA,NA,NA,NA,NA,NA,NA,NA,NA,NA,NA,NA,NA,NA,NA,NA,NA,NA
Inf,Shallow Question,html.Page,3_0_0_0_0_1_0,NA,NA,form submission,32549.7,118201,118200.96,118201.3,150751,150753,2023-08-06T10:00:43Z,150761.58,NULL,Notfall,dharura,s,rairai,malalamiko,ahueni,rairai,NA,NA,0,NA,NA,NA,NA,NA,NA,NA,NA,NA,NA,NA,NA,NA,NA,NA,NA,NA,NA,NA
Inf,"""Richtig""-Screen",canvas.Screen,3_0_0_0_0_1_1,NA,NA,skipped,NA,150760,NA,NA,150751,150760,2023-08-06T10:00:43Z,150761.58,NULL,Notfall,dharura,s,rairai,malalamiko,ahueni,NA,sdf,NA,0,NA,NA,NA,NA,NA,NA,NA,NA,NA,NA,NA,NA,NA,NA,NA,NA,NA,NA,NA
Inf,"""Falsch""-Screen",canvas.Screen,3_0_0_0_0_1_2,NA,NA,timeout,4999.3,150763,150745.78,150761.58,155744.22,155746,2023-08-06T10:00:48Z,155760.88,NULL,Notfall,dharura,s,rairai,malalamiko,ahueni,NA,sdf,0,0,NA,NA,NA,NA,NA,NA,NA,NA,NA,NA,NA,NA,NA,NA,NA,NA,NA,NA,NA
Inf,shallow,flow.Sequence,3_0_0_0_0_1,NA,NA,completion,37542.92,118201,118200.96,118201.3,155744.22,155747,2023-08-06T10:00:48Z,155760.88,NULL,Notfall,dharura,s,rairai,malalamiko,ahueni,NA,sdf,NA,0,NA,NA,NA,NA,NA,NA,NA,NA,NA,NA,NA,NA,NA,NA,NA,NA,NA,NA,NA
Inf,task,flow.Sequence,3_0_0_0_0,NA,NA,completion,37542.92,118201,118200.96,118201.3,155744.22,155748,2023-08-06T10:00:48Z,155760.88,NULL,Notfall,dharura,s,rairai,malalamiko,ahueni,NA,sdf,NA,0,NA,NA,NA,NA,NA,NA,NA,NA,NA,NA,NA,NA,NA,NA,NA,NA,NA,NA,NA
Inf,deep,flow.Sequence,3_0_0_0_1_0,NA,NA,skipped,NA,155749,NA,NA,155744.22,155749,2023-08-06T10:00:48Z,155760.88,NULL,Vergnügen,kichekesho,s,dubwana,mpanuko,mtesaji,NA,sdf,NA,0,NA,NA,NA,NA,NA,NA,NA,NA,NA,NA,NA,NA,NA,NA,NA,NA,NA,NA,NA
Inf,Shallow Question,html.Page,3_0_0_0_1_1_0,NA,NA,form submission,13734.12,155750,155744.22,155760.88,169495,169495,2023-08-06T10:01:02Z,169509.02,NULL,Vergnügen,kichekesho,s,dubwana,mpanuko,mtesaji,kichekesho,NA,NA,0,NA,NA,NA,NA,NA,NA,NA,NA,NA,NA,NA,NA,NA,NA,NA,NA,NA,NA,NA
Inf,"""Richtig""-Screen",canvas.Screen,3_0_0_0_1_1_1,NA,NA,timeout,4999.46,169497,169492.86,169509.02,174491.82,174494,2023-08-06T10:01:07Z,174508.48,NULL,Vergnügen,kichekesho,s,dubwana,mpanuko,mtesaji,NA,sdf,1,0,NA,NA,NA,NA,NA,NA,NA,NA,NA,NA,NA,NA,NA,NA,NA,NA,NA,NA,NA
Inf,"""Falsch""-Screen",canvas.Screen,3_0_0_0_1_1_2,NA,NA,skipped,NA,174502,NA,NA,174491.82,174502,2023-08-06T10:01:07Z,174508.48,NULL,Vergnügen,kichekesho,s,dubwana,mpanuko,mtesaji,NA,sdf,NA,0,NA,NA,NA,NA,NA,NA,NA,NA,NA,NA,NA,NA,NA,NA,NA,NA,NA,NA,NA
Inf,shallow,flow.Sequence,3_0_0_0_1_1,NA,NA,completion,18730.94,155749,155744.22,155760.88,174491.82,174503,2023-08-06T10:01:07Z,174508.48,NULL,Vergnügen,kichekesho,s,dubwana,mpanuko,mtesaji,NA,sdf,NA,0,NA,NA,NA,NA,NA,NA,NA,NA,NA,NA,NA,NA,NA,NA,NA,NA,NA,NA,NA
Inf,task,flow.Sequence,3_0_0_0_1,NA,NA,completion,18730.94,155748,155744.22,155760.88,174491.82,174504,2023-08-06T10:01:07Z,174508.48,NULL,Vergnügen,kichekesho,s,dubwana,mpanuko,mtesaji,NA,sdf,NA,0,NA,NA,NA,NA,NA,NA,NA,NA,NA,NA,NA,NA,NA,NA,NA,NA,NA,NA,NA
Inf,Deep Question,html.Page,3_0_0_0_2_0_0,NA,NA,form submission,10547.52,174505,174491.82,174508.48,185056,185056,2023-08-06T10:01:18Z,185057.06,NULL,Widerstand,usulubu,d,NA,NA,NA,m,NA,NA,0,NA,NA,NA,NA,NA,NA,NA,NA,NA,NA,NA,NA,NA,NA,NA,NA,NA,NA,NA
Inf,"""Richtig""-Screen",canvas.Screen,3_0_0_0_2_0_1,NA,NA,skipped,NA,185059,NA,NA,185056,185059,2023-08-06T10:01:18Z,185057.06,NULL,Widerstand,usulubu,d,NA,NA,NA,NA,sdf,NA,0,NA,NA,NA,NA,NA,NA,NA,NA,NA,NA,NA,NA,NA,NA,NA,NA,NA,NA,NA
Inf,"""Falsch""-Screen",canvas.Screen,3_0_0_0_2_0_2,NA,NA,timeout,4999.38,185062,185054.74,185057.06,190039.78,190041,2023-08-06T10:01:23Z,190056.44,NULL,Widerstand,usulubu,d,NA,NA,NA,NA,sdf,0,0,NA,NA,NA,NA,NA,NA,NA,NA,NA,NA,NA,NA,NA,NA,NA,NA,NA,NA,NA
Inf,deep,flow.Sequence,3_0_0_0_2_0,NA,NA,completion,15531.3,174505,174491.82,174508.48,190039.78,190042,2023-08-06T10:01:23Z,190056.44,NULL,Widerstand,usulubu,d,NA,NA,NA,NA,sdf,NA,0,NA,NA,NA,NA,NA,NA,NA,NA,NA,NA,NA,NA,NA,NA,NA,NA,NA,NA,NA
Inf,shallow,flow.Sequence,3_0_0_0_2_1,NA,NA,skipped,NA,190042,NA,NA,190039.78,190043,2023-08-06T10:01:23Z,190056.44,NULL,Widerstand,usulubu,d,NA,NA,NA,NA,sdf,NA,0,NA,NA,NA,NA,NA,NA,NA,NA,NA,NA,NA,NA,NA,NA,NA,NA,NA,NA,NA
Inf,task,flow.Sequence,3_0_0_0_2,NA,NA,completion,15531.3,174505,174491.82,174508.48,190039.78,190043,2023-08-06T10:01:23Z,190056.44,NULL,Widerstand,usulubu,d,NA,NA,NA,NA,sdf,NA,0,NA,NA,NA,NA,NA,NA,NA,NA,NA,NA,NA,NA,NA,NA,NA,NA,NA,NA,NA
Inf,deep,flow.Sequence,3_0_0_0_3_0,NA,NA,skipped,NA,190044,NA,NA,190039.78,190044,2023-08-06T10:01:23Z,190056.44,NULL,Gelegenheit,wakati,s,mchanganyiko,kipaumbele,kushuku,NA,sdf,NA,0,NA,NA,NA,NA,NA,NA,NA,NA,NA,NA,NA,NA,NA,NA,NA,NA,NA,NA,NA
Inf,Shallow Question,html.Page,3_0_0_0_3_1_0,NA,NA,form submission,11785.56,190045,190039.78,190056.44,201842,201842,2023-08-06T10:01:34Z,201854.78,NULL,Gelegenheit,wakati,s,mchanganyiko,kipaumbele,kushuku,mchanganyiko,NA,NA,0,NA,NA,NA,NA,NA,NA,NA,NA,NA,NA,NA,NA,NA,NA,NA,NA,NA,NA,NA
Inf,"""Richtig""-Screen",canvas.Screen,3_0_0_0_3_1_1,NA,NA,skipped,NA,201844,NA,NA,201842,201844,2023-08-06T10:01:34Z,201854.78,NULL,Gelegenheit,wakati,s,mchanganyiko,kipaumbele,kushuku,NA,sdf,NA,0,NA,NA,NA,NA,NA,NA,NA,NA,NA,NA,NA,NA,NA,NA,NA,NA,NA,NA,NA
Inf,"""Falsch""-Screen",canvas.Screen,3_0_0_0_3_1_2,NA,NA,timeout,4999.44,201847,201839.68,201854.78,206837.56,206839,2023-08-06T10:01:39Z,206854.22,NULL,Gelegenheit,wakati,s,mchanganyiko,kipaumbele,kushuku,NA,sdf,0,0,NA,NA,NA,NA,NA,NA,NA,NA,NA,NA,NA,NA,NA,NA,NA,NA,NA,NA,NA
Inf,shallow,flow.Sequence,3_0_0_0_3_1,NA,NA,completion,16781.12,190044,190039.78,190056.44,206837.56,206840,2023-08-06T10:01:39Z,206854.22,NULL,Gelegenheit,wakati,s,mchanganyiko,kipaumbele,kushuku,NA,sdf,NA,0,NA,NA,NA,NA,NA,NA,NA,NA,NA,NA,NA,NA,NA,NA,NA,NA,NA,NA,NA
Inf,task,flow.Sequence,3_0_0_0_3,NA,NA,completion,16781.12,190043,190039.78,190056.44,206837.56,206840,2023-08-06T10:01:39Z,206854.22,NULL,Gelegenheit,wakati,s,mchanganyiko,kipaumbele,kushuku,NA,sdf,NA,0,NA,NA,NA,NA,NA,NA,NA,NA,NA,NA,NA,NA,NA,NA,NA,NA,NA,NA,NA
Inf,Deep Question,html.Page,3_0_0_0_4_0_0,NA,NA,form submission,6184.78,206841,206837.56,206854.22,213039,213039,2023-08-06T10:01:46Z,213053.36,NULL,Verstand,ufahamivu,d,NA,NA,NA,k,NA,NA,0,NA,NA,NA,NA,NA,NA,NA,NA,NA,NA,NA,NA,NA,NA,NA,NA,NA,NA,NA
Inf,"""Richtig""-Screen",canvas.Screen,3_0_0_0_4_0_1,NA,NA,skipped,NA,213042,NA,NA,213039,213042,2023-08-06T10:01:46Z,213053.36,NULL,Verstand,ufahamivu,d,NA,NA,NA,NA,sdf,NA,0,NA,NA,NA,NA,NA,NA,NA,NA,NA,NA,NA,NA,NA,NA,NA,NA,NA,NA,NA
Inf,"""Falsch""-Screen",canvas.Screen,3_0_0_0_4_0_2,NA,NA,timeout,4999.42,213045,213037.16,213053.36,218036.12,218037,2023-08-06T10:01:51Z,218052.78,NULL,Verstand,ufahamivu,d,NA,NA,NA,NA,sdf,0,0,NA,NA,NA,NA,NA,NA,NA,NA,NA,NA,NA,NA,NA,NA,NA,NA,NA,NA,NA
Inf,deep,flow.Sequence,3_0_0_0_4_0,NA,NA,completion,11181.9,206841,206837.56,206854.22,218036.12,218038,2023-08-06T10:01:51Z,218052.78,NULL,Verstand,ufahamivu,d,NA,NA,NA,NA,sdf,NA,0,NA,NA,NA,NA,NA,NA,NA,NA,NA,NA,NA,NA,NA,NA,NA,NA,NA,NA,NA
Inf,shallow,flow.Sequence,3_0_0_0_4_1,NA,NA,skipped,NA,218038,NA,NA,218036.12,218039,2023-08-06T10:01:51Z,218052.78,NULL,Verstand,ufahamivu,d,NA,NA,NA,NA,sdf,NA,0,NA,NA,NA,NA,NA,NA,NA,NA,NA,NA,NA,NA,NA,NA,NA,NA,NA,NA,NA
Inf,task,flow.Sequence,3_0_0_0_4,NA,NA,completion,11181.9,206841,206837.56,206854.22,218036.12,218040,2023-08-06T10:01:51Z,218052.78,NULL,Verstand,ufahamivu,d,NA,NA,NA,NA,sdf,NA,0,NA,NA,NA,NA,NA,NA,NA,NA,NA,NA,NA,NA,NA,NA,NA,NA,NA,NA,NA
Inf,Deep Question,html.Page,3_0_0_0_5_0_0,NA,NA,form submission,5566.22,218040,218036.12,218052.78,223619,223619,2023-08-06T10:01:56Z,223618.64,NULL,Wohlstand,mafanikio,d,NA,NA,NA,k,NA,NA,0,NA,NA,NA,NA,NA,NA,NA,NA,NA,NA,NA,NA,NA,NA,NA,NA,NA,NA,NA
Inf,"""Richtig""-Screen",canvas.Screen,3_0_0_0_5_0_1,NA,NA,skipped,NA,223622,NA,NA,223619,223622,2023-08-06T10:01:56Z,223618.64,NULL,Wohlstand,mafanikio,d,NA,NA,NA,NA,sdf,NA,0,NA,NA,NA,NA,NA,NA,NA,NA,NA,NA,NA,NA,NA,NA,NA,NA,NA,NA,NA
Inf,"""Falsch""-Screen",canvas.Screen,3_0_0_0_5_0_2,NA,NA,timeout,4999.4,223624,223617.58,223618.64,228601.38,228603,2023-08-06T10:02:01Z,228618.04,NULL,Wohlstand,mafanikio,d,NA,NA,NA,NA,sdf,0,0,NA,NA,NA,NA,NA,NA,NA,NA,NA,NA,NA,NA,NA,NA,NA,NA,NA,NA,NA
Inf,deep,flow.Sequence,3_0_0_0_5_0,NA,NA,completion,10548.6,218040,218036.12,218052.78,228601.38,228605,2023-08-06T10:02:01Z,228618.04,NULL,Wohlstand,mafanikio,d,NA,NA,NA,NA,sdf,NA,0,NA,NA,NA,NA,NA,NA,NA,NA,NA,NA,NA,NA,NA,NA,NA,NA,NA,NA,NA
Inf,shallow,flow.Sequence,3_0_0_0_5_1,NA,NA,skipped,NA,228605,NA,NA,228601.38,228605,2023-08-06T10:02:01Z,228618.04,NULL,Wohlstand,mafanikio,d,NA,NA,NA,NA,sdf,NA,0,NA,NA,NA,NA,NA,NA,NA,NA,NA,NA,NA,NA,NA,NA,NA,NA,NA,NA,NA
Inf,task,flow.Sequence,3_0_0_0_5,NA,NA,completion,10548.6,218040,218036.12,218052.78,228601.38,228606,2023-08-06T10:02:01Z,228618.04,NULL,Wohlstand,mafanikio,d,NA,NA,NA,NA,sdf,NA,0,NA,NA,NA,NA,NA,NA,NA,NA,NA,NA,NA,NA,NA,NA,NA,NA,NA,NA,NA
Inf,deep,flow.Sequence,3_0_0_0_6_0,NA,NA,skipped,NA,228606,NA,NA,228601.38,228606,2023-08-06T10:02:01Z,228618.04,NULL,Ausschluss,kutengwa,s,ununuzi,taratibu,madeni,NA,sdf,NA,0,NA,NA,NA,NA,NA,NA,NA,NA,NA,NA,NA,NA,NA,NA,NA,NA,NA,NA,NA
Inf,Shallow Question,html.Page,3_0_0_0_6_1_0,NA,NA,form submission,8016.96,228606,228601.38,228618.04,236635,236636,2023-08-06T10:02:09Z,236633.76,NULL,Ausschluss,kutengwa,s,ununuzi,taratibu,madeni,taratibu,NA,NA,0,NA,NA,NA,NA,NA,NA,NA,NA,NA,NA,NA,NA,NA,NA,NA,NA,NA,NA,NA
Inf,"""Richtig""-Screen",canvas.Screen,3_0_0_0_6_1_1,NA,NA,skipped,NA,236641,NA,NA,236635,236641,2023-08-06T10:02:09Z,236633.76,NULL,Ausschluss,kutengwa,s,ununuzi,taratibu,madeni,NA,sdf,NA,0,NA,NA,NA,NA,NA,NA,NA,NA,NA,NA,NA,NA,NA,NA,NA,NA,NA,NA,NA
Inf,"""Falsch""-Screen",canvas.Screen,3_0_0_0_6_1_2,NA,NA,timeout,4999.28,236645,236631.42,236633.76,241616.38,241618,2023-08-06T10:02:14Z,241633.04,NULL,Ausschluss,kutengwa,s,ununuzi,taratibu,madeni,NA,sdf,0,0,NA,NA,NA,NA,NA,NA,NA,NA,NA,NA,NA,NA,NA,NA,NA,NA,NA,NA,NA
Inf,shallow,flow.Sequence,3_0_0_0_6_1,NA,NA,completion,12998.34,228606,228601.38,228618.04,241616.38,241618,2023-08-06T10:02:14Z,241633.04,NULL,Ausschluss,kutengwa,s,ununuzi,taratibu,madeni,NA,sdf,NA,0,NA,NA,NA,NA,NA,NA,NA,NA,NA,NA,NA,NA,NA,NA,NA,NA,NA,NA,NA
Inf,task,flow.Sequence,3_0_0_0_6,NA,NA,completion,12998.34,228606,228601.38,228618.04,241616.38,241619,2023-08-06T10:02:14Z,241633.04,NULL,Ausschluss,kutengwa,s,ununuzi,taratibu,madeni,NA,sdf,NA,0,NA,NA,NA,NA,NA,NA,NA,NA,NA,NA,NA,NA,NA,NA,NA,NA,NA,NA,NA
Inf,Deep Question,html.Page,3_0_0_0_7_0_0,NA,NA,form submission,4484.96,241619,241616.38,241633.04,246118,246118,2023-08-06T10:02:19Z,246132.5,NULL,Ergänzung,kijalizo,d,NA,NA,NA,k,NA,NA,0,NA,NA,NA,NA,NA,NA,NA,NA,NA,NA,NA,NA,NA,NA,NA,NA,NA,NA,NA
Inf,"""Richtig""-Screen",canvas.Screen,3_0_0_0_7_0_1,NA,NA,skipped,NA,246120,NA,NA,246118,246120,2023-08-06T10:02:19Z,246132.5,NULL,Ergänzung,kijalizo,d,NA,NA,NA,NA,sdf,NA,0,NA,NA,NA,NA,NA,NA,NA,NA,NA,NA,NA,NA,NA,NA,NA,NA,NA,NA,NA
Inf,"""Falsch""-Screen",canvas.Screen,3_0_0_0_7_0_2,NA,NA,timeout,4999.34,246122,246115.84,246132.5,251115.18,251117,2023-08-06T10:02:24Z,251131.84,NULL,Ergänzung,kijalizo,d,NA,NA,NA,NA,sdf,0,0,NA,NA,NA,NA,NA,NA,NA,NA,NA,NA,NA,NA,NA,NA,NA,NA,NA,NA,NA
Inf,deep,flow.Sequence,3_0_0_0_7_0,NA,NA,completion,9482.14,241619,241616.38,241633.04,251115.18,251117,2023-08-06T10:02:24Z,251131.84,NULL,Ergänzung,kijalizo,d,NA,NA,NA,NA,sdf,NA,0,NA,NA,NA,NA,NA,NA,NA,NA,NA,NA,NA,NA,NA,NA,NA,NA,NA,NA,NA
Inf,shallow,flow.Sequence,3_0_0_0_7_1,NA,NA,skipped,NA,251117,NA,NA,251115.18,251118,2023-08-06T10:02:24Z,251131.84,NULL,Ergänzung,kijalizo,d,NA,NA,NA,NA,sdf,NA,0,NA,NA,NA,NA,NA,NA,NA,NA,NA,NA,NA,NA,NA,NA,NA,NA,NA,NA,NA
Inf,task,flow.Sequence,3_0_0_0_7,NA,NA,completion,9482.14,241619,241616.38,241633.04,251115.18,251118,2023-08-06T10:02:24Z,251131.84,NULL,Ergänzung,kijalizo,d,NA,NA,NA,NA,sdf,NA,0,NA,NA,NA,NA,NA,NA,NA,NA,NA,NA,NA,NA,NA,NA,NA,NA,NA,NA,NA
Inf,block,flow.Loop,3_0_0_0,NA,NA,completion,132913.88,118201,118200.96,118201.3,251115.18,251119,2023-08-06T10:02:24Z,251131.84,NULL,NA,NA,NA,NA,NA,NA,NA,sdf,NA,0,NA,NA,NA,NA,NA,NA,NA,NA,NA,NA,NA,NA,NA,NA,NA,NA,NA,NA,NA
Inf,weiter,canvas.Screen,3_0_0_1,sdf,keypress(Space),response,1466.16,251119,251115.18,251131.84,252598,252606,2023-08-06T10:02:25Z,252664.86,NULL,NA,NA,NA,NA,NA,NA,NA,sdf,NA,0,NA,NA,NA,NA,NA,NA,NA,NA,NA,NA,NA,NA,NA,NA,NA,NA,NA,NA,NA
Inf,check continue,flow.Sequence,3_0_0,NA,NA,completion,134396.7,118201,118200.96,118201.3,252598,252608,2023-08-06T10:02:25Z,252664.86,NULL,NA,NA,NA,NA,NA,NA,NA,sdf,NA,0,NA,NA,NA,NA,NA,NA,NA,NA,NA,NA,NA,NA,NA,NA,NA,NA,NA,NA,NA
Inf,Deep Question,html.Page,3_0_1_0_0_0_0,NA,NA,form submission,7948.14,252664,252664.48,252664.86,260613,260615,2023-08-06T10:02:33Z,260630.62,NULL,Widerstand,usulubu,d,NA,NA,NA,k,NA,NA,1,NA,NA,NA,NA,NA,NA,NA,NA,NA,NA,NA,NA,NA,NA,NA,NA,NA,NA,NA
Inf,"""Richtig""-Screen",canvas.Screen,3_0_1_0_0_0_1,NA,NA,skipped,NA,260623,NA,NA,260613,260624,2023-08-06T10:02:33Z,260630.62,NULL,Widerstand,usulubu,d,NA,NA,NA,NA,sdfdsf,NA,1,NA,NA,NA,NA,NA,NA,NA,NA,NA,NA,NA,NA,NA,NA,NA,NA,NA,NA,NA
Inf,"""Falsch""-Screen",canvas.Screen,3_0_1_0_0_0_2,NA,NA,timeout,4999.3,260628,260611.32,260630.62,265613.26,265615,2023-08-06T10:02:38Z,265629.92,NULL,Widerstand,usulubu,d,NA,NA,NA,NA,sdfdsf,0,1,NA,NA,NA,NA,NA,NA,NA,NA,NA,NA,NA,NA,NA,NA,NA,NA,NA,NA,NA
Inf,deep,flow.Sequence,3_0_1_0_0_0,NA,NA,completion,12948.4,252664,252664.48,252664.86,265613.26,265616,2023-08-06T10:02:38Z,265629.92,NULL,Widerstand,usulubu,d,NA,NA,NA,NA,sdfdsf,NA,1,NA,NA,NA,NA,NA,NA,NA,NA,NA,NA,NA,NA,NA,NA,NA,NA,NA,NA,NA
Inf,shallow,flow.Sequence,3_0_1_0_0_1,NA,NA,skipped,NA,265616,NA,NA,265613.26,265617,2023-08-06T10:02:38Z,265629.92,NULL,Widerstand,usulubu,d,NA,NA,NA,NA,sdfdsf,NA,1,NA,NA,NA,NA,NA,NA,NA,NA,NA,NA,NA,NA,NA,NA,NA,NA,NA,NA,NA
Inf,task,flow.Sequence,3_0_1_0_0,NA,NA,completion,12948.4,252664,252664.48,252664.86,265613.26,265618,2023-08-06T10:02:38Z,265629.92,NULL,Widerstand,usulubu,d,NA,NA,NA,NA,sdfdsf,NA,1,NA,NA,NA,NA,NA,NA,NA,NA,NA,NA,NA,NA,NA,NA,NA,NA,NA,NA,NA
Inf,Deep Question,html.Page,3_0_1_0_1_0_0,NA,NA,form submission,8804.08,265619,265613.26,265629.92,274434,274435,2023-08-06T10:02:47Z,274445.46,NULL,Verstand,ufahamivu,d,NA,NA,NA,usulubu,NA,NA,1,NA,NA,NA,NA,NA,NA,NA,NA,NA,NA,NA,NA,NA,NA,NA,NA,NA,NA,NA
Inf,"""Richtig""-Screen",canvas.Screen,3_0_1_0_1_0_1,NA,NA,skipped,NA,274438,NA,NA,274434,274440,2023-08-06T10:02:47Z,274445.46,NULL,Verstand,ufahamivu,d,NA,NA,NA,NA,sdfdsf,NA,1,NA,NA,NA,NA,NA,NA,NA,NA,NA,NA,NA,NA,NA,NA,NA,NA,NA,NA,NA
Inf,"""Falsch""-Screen",canvas.Screen,3_0_1_0_1_0_2,NA,NA,timeout,4999.32,274443,274433.68,274445.46,279428.12,279430,2023-08-06T10:02:52Z,279444.78,NULL,Verstand,ufahamivu,d,NA,NA,NA,NA,sdfdsf,0,1,NA,NA,NA,NA,NA,NA,NA,NA,NA,NA,NA,NA,NA,NA,NA,NA,NA,NA,NA
Inf,deep,flow.Sequence,3_0_1_0_1_0,NA,NA,completion,13798.2,265619,265613.26,265629.92,279428.12,279430,2023-08-06T10:02:52Z,279444.78,NULL,Verstand,ufahamivu,d,NA,NA,NA,NA,sdfdsf,NA,1,NA,NA,NA,NA,NA,NA,NA,NA,NA,NA,NA,NA,NA,NA,NA,NA,NA,NA,NA
Inf,shallow,flow.Sequence,3_0_1_0_1_1,NA,NA,skipped,NA,279431,NA,NA,279428.12,279431,2023-08-06T10:02:52Z,279444.78,NULL,Verstand,ufahamivu,d,NA,NA,NA,NA,sdfdsf,NA,1,NA,NA,NA,NA,NA,NA,NA,NA,NA,NA,NA,NA,NA,NA,NA,NA,NA,NA,NA
Inf,task,flow.Sequence,3_0_1_0_1,NA,NA,completion,13798.2,265619,265613.26,265629.92,279428.12,279431,2023-08-06T10:02:52Z,279444.78,NULL,Verstand,ufahamivu,d,NA,NA,NA,NA,sdfdsf,NA,1,NA,NA,NA,NA,NA,NA,NA,NA,NA,NA,NA,NA,NA,NA,NA,NA,NA,NA,NA
Inf,deep,flow.Sequence,3_0_1_0_2_0,NA,NA,skipped,NA,279432,NA,NA,279428.12,279432,2023-08-06T10:02:52Z,279444.78,NULL,Notfall,dharura,s,rairai,malalamiko,ahueni,NA,sdfdsf,NA,1,NA,NA,NA,NA,NA,NA,NA,NA,NA,NA,NA,NA,NA,NA,NA,NA,NA,NA,NA
Inf,Shallow Question,html.Page,3_0_1_0_2_1_0,NA,NA,form submission,5714.22,279432,279428.12,279444.78,285159,285159,2023-08-06T10:02:58Z,285160.66,NULL,Notfall,dharura,s,rairai,malalamiko,ahueni,dharura,NA,NA,1,NA,NA,NA,NA,NA,NA,NA,NA,NA,NA,NA,NA,NA,NA,NA,NA,NA,NA,NA
Inf,"""Richtig""-Screen",canvas.Screen,3_0_1_0_2_1_1,NA,NA,timeout,4999.34,285162,285156.56,285160.66,290143.34,290145,2023-08-06T10:03:03Z,290160,NULL,Notfall,dharura,s,rairai,malalamiko,ahueni,NA,sdfdsf,1,1,NA,NA,NA,NA,NA,NA,NA,NA,NA,NA,NA,NA,NA,NA,NA,NA,NA,NA,NA
Inf,"""Falsch""-Screen",canvas.Screen,3_0_1_0_2_1_2,NA,NA,skipped,NA,290153,NA,NA,290143.34,290153,2023-08-06T10:03:03Z,290160,NULL,Notfall,dharura,s,rairai,malalamiko,ahueni,NA,sdfdsf,NA,1,NA,NA,NA,NA,NA,NA,NA,NA,NA,NA,NA,NA,NA,NA,NA,NA,NA,NA,NA
Inf,shallow,flow.Sequence,3_0_1_0_2_1,NA,NA,completion,10698.56,279432,279428.12,279444.78,290143.34,290154,2023-08-06T10:03:03Z,290160,NULL,Notfall,dharura,s,rairai,malalamiko,ahueni,NA,sdfdsf,NA,1,NA,NA,NA,NA,NA,NA,NA,NA,NA,NA,NA,NA,NA,NA,NA,NA,NA,NA,NA
Inf,task,flow.Sequence,3_0_1_0_2,NA,NA,completion,10698.56,279432,279428.12,279444.78,290143.34,290154,2023-08-06T10:03:03Z,290160,NULL,Notfall,dharura,s,rairai,malalamiko,ahueni,NA,sdfdsf,NA,1,NA,NA,NA,NA,NA,NA,NA,NA,NA,NA,NA,NA,NA,NA,NA,NA,NA,NA,NA
Inf,deep,flow.Sequence,3_0_1_0_3_0,NA,NA,skipped,NA,290155,NA,NA,290143.34,290156,2023-08-06T10:03:03Z,290160,NULL,Ausschluss,kutengwa,s,ununuzi,taratibu,madeni,NA,sdfdsf,NA,1,NA,NA,NA,NA,NA,NA,NA,NA,NA,NA,NA,NA,NA,NA,NA,NA,NA,NA,NA
Inf,Shallow Question,html.Page,3_0_1_0_3_1_0,NA,NA,form submission,12989,290156,290143.34,290160,303149,303149,2023-08-06T10:03:16Z,303158.38,NULL,Ausschluss,kutengwa,s,ununuzi,taratibu,madeni,kutengwa,NA,NA,1,NA,NA,NA,NA,NA,NA,NA,NA,NA,NA,NA,NA,NA,NA,NA,NA,NA,NA,NA
Inf,"""Richtig""-Screen",canvas.Screen,3_0_1_0_3_1_1,NA,NA,timeout,4999.34,303153,303144.06,303158.38,308141.08,308143,2023-08-06T10:03:21Z,308157.72,NULL,Ausschluss,kutengwa,s,ununuzi,taratibu,madeni,NA,sdfdsf,1,1,NA,NA,NA,NA,NA,NA,NA,NA,NA,NA,NA,NA,NA,NA,NA,NA,NA,NA,NA
Inf,"""Falsch""-Screen",canvas.Screen,3_0_1_0_3_1_2,NA,NA,skipped,NA,308151,NA,NA,308141.08,308151,2023-08-06T10:03:21Z,308157.72,NULL,Ausschluss,kutengwa,s,ununuzi,taratibu,madeni,NA,sdfdsf,NA,1,NA,NA,NA,NA,NA,NA,NA,NA,NA,NA,NA,NA,NA,NA,NA,NA,NA,NA,NA
Inf,shallow,flow.Sequence,3_0_1_0_3_1,NA,NA,completion,17981.08,290156,290143.34,290160,308141.08,308151,2023-08-06T10:03:21Z,308157.72,NULL,Ausschluss,kutengwa,s,ununuzi,taratibu,madeni,NA,sdfdsf,NA,1,NA,NA,NA,NA,NA,NA,NA,NA,NA,NA,NA,NA,NA,NA,NA,NA,NA,NA,NA
Inf,task,flow.Sequence,3_0_1_0_3,NA,NA,completion,17981.08,290155,290143.34,290160,308141.08,308151,2023-08-06T10:03:21Z,308157.72,NULL,Ausschluss,kutengwa,s,ununuzi,taratibu,madeni,NA,sdfdsf,NA,1,NA,NA,NA,NA,NA,NA,NA,NA,NA,NA,NA,NA,NA,NA,NA,NA,NA,NA,NA
Inf,deep,flow.Sequence,3_0_1_0_4_0,NA,NA,skipped,NA,308152,NA,NA,308141.08,308152,2023-08-06T10:03:21Z,308157.72,NULL,Gelegenheit,wakati,s,mchanganyiko,kipaumbele,kushuku,NA,sdfdsf,NA,1,NA,NA,NA,NA,NA,NA,NA,NA,NA,NA,NA,NA,NA,NA,NA,NA,NA,NA,NA
Inf,Shallow Question,html.Page,3_0_1_0_4_1_0,NA,NA,form submission,8978.28,308152,308141.08,308157.72,317136,317142,2023-08-06T10:03:30Z,317139.92,NULL,Gelegenheit,wakati,s,mchanganyiko,kipaumbele,kushuku,wakati,NA,NA,1,NA,NA,NA,NA,NA,NA,NA,NA,NA,NA,NA,NA,NA,NA,NA,NA,NA,NA,NA
Inf,"""Richtig""-Screen",canvas.Screen,3_0_1_0_4_1_1,NA,NA,timeout,4999.32,317151,317126.42,317139.92,322122.58,322125,2023-08-06T10:03:35Z,322139.24,NULL,Gelegenheit,wakati,s,mchanganyiko,kipaumbele,kushuku,NA,sdfdsf,1,1,NA,NA,NA,NA,NA,NA,NA,NA,NA,NA,NA,NA,NA,NA,NA,NA,NA,NA,NA
Inf,"""Falsch""-Screen",canvas.Screen,3_0_1_0_4_1_2,NA,NA,skipped,NA,322134,NA,NA,322122.58,322134,2023-08-06T10:03:35Z,322139.24,NULL,Gelegenheit,wakati,s,mchanganyiko,kipaumbele,kushuku,NA,sdfdsf,NA,1,NA,NA,NA,NA,NA,NA,NA,NA,NA,NA,NA,NA,NA,NA,NA,NA,NA,NA,NA
Inf,shallow,flow.Sequence,3_0_1_0_4_1,NA,NA,completion,13964.86,308152,308141.08,308157.72,322122.58,322135,2023-08-06T10:03:35Z,322139.24,NULL,Gelegenheit,wakati,s,mchanganyiko,kipaumbele,kushuku,NA,sdfdsf,NA,1,NA,NA,NA,NA,NA,NA,NA,NA,NA,NA,NA,NA,NA,NA,NA,NA,NA,NA,NA
Inf,task,flow.Sequence,3_0_1_0_4,NA,NA,completion,13964.86,308151,308141.08,308157.72,322122.58,322135,2023-08-06T10:03:35Z,322139.24,NULL,Gelegenheit,wakati,s,mchanganyiko,kipaumbele,kushuku,NA,sdfdsf,NA,1,NA,NA,NA,NA,NA,NA,NA,NA,NA,NA,NA,NA,NA,NA,NA,NA,NA,NA,NA
Inf,Deep Question,html.Page,3_0_1_0_5_0_0,NA,NA,form submission,5092.76,322136,322122.58,322139.24,327232,327232,2023-08-06T10:03:40Z,327238.54,NULL,Ergänzung,kijalizo,d,NA,NA,NA,k,NA,NA,1,NA,NA,NA,NA,NA,NA,NA,NA,NA,NA,NA,NA,NA,NA,NA,NA,NA,NA,NA
Inf,"""Richtig""-Screen",canvas.Screen,3_0_1_0_5_0_1,NA,NA,skipped,NA,327235,NA,NA,327232,327235,2023-08-06T10:03:40Z,327238.54,NULL,Ergänzung,kijalizo,d,NA,NA,NA,NA,sdfdsf,NA,1,NA,NA,NA,NA,NA,NA,NA,NA,NA,NA,NA,NA,NA,NA,NA,NA,NA,NA,NA
Inf,"""Falsch""-Screen",canvas.Screen,3_0_1_0_5_0_2,NA,NA,timeout,4999.28,327239,327238.54,327238.54,332221.16,332223,2023-08-06T10:03:45Z,332237.82,NULL,Ergänzung,kijalizo,d,NA,NA,NA,NA,sdfdsf,0,1,NA,NA,NA,NA,NA,NA,NA,NA,NA,NA,NA,NA,NA,NA,NA,NA,NA,NA,NA
Inf,deep,flow.Sequence,3_0_1_0_5_0,NA,NA,completion,10081.92,322136,322122.58,322139.24,332221.16,332223,2023-08-06T10:03:45Z,332237.82,NULL,Ergänzung,kijalizo,d,NA,NA,NA,NA,sdfdsf,NA,1,NA,NA,NA,NA,NA,NA,NA,NA,NA,NA,NA,NA,NA,NA,NA,NA,NA,NA,NA
Inf,shallow,flow.Sequence,3_0_1_0_5_1,NA,NA,skipped,NA,332224,NA,NA,332221.16,332224,2023-08-06T10:03:45Z,332237.82,NULL,Ergänzung,kijalizo,d,NA,NA,NA,NA,sdfdsf,NA,1,NA,NA,NA,NA,NA,NA,NA,NA,NA,NA,NA,NA,NA,NA,NA,NA,NA,NA,NA
Inf,task,flow.Sequence,3_0_1_0_5,NA,NA,completion,10081.92,322136,322122.58,322139.24,332221.16,332226,2023-08-06T10:03:45Z,332237.82,NULL,Ergänzung,kijalizo,d,NA,NA,NA,NA,sdfdsf,NA,1,NA,NA,NA,NA,NA,NA,NA,NA,NA,NA,NA,NA,NA,NA,NA,NA,NA,NA,NA
Inf,Deep Question,html.Page,3_0_1_0_6_0_0,NA,NA,form submission,11174.18,332226,332221.16,332237.82,343412,343412,2023-08-06T10:03:56Z,343419.74,NULL,Wohlstand,mafanikio,d,NA,NA,NA,usulubu,NA,NA,1,NA,NA,NA,NA,NA,NA,NA,NA,NA,NA,NA,NA,NA,NA,NA,NA,NA,NA,NA
Inf,"""Richtig""-Screen",canvas.Screen,3_0_1_0_6_0_1,NA,NA,skipped,NA,343415,NA,NA,343412,343415,2023-08-06T10:03:56Z,343419.74,NULL,Wohlstand,mafanikio,d,NA,NA,NA,NA,sdfdsf,NA,1,NA,NA,NA,NA,NA,NA,NA,NA,NA,NA,NA,NA,NA,NA,NA,NA,NA,NA,NA
Inf,"""Falsch""-Screen",canvas.Screen,3_0_1_0_6_0_2,NA,NA,timeout,4999.34,343418,343410.54,343419.74,348402.42,348404,2023-08-06T10:04:01Z,348419.08,NULL,Wohlstand,mafanikio,d,NA,NA,NA,NA,sdfdsf,0,1,NA,NA,NA,NA,NA,NA,NA,NA,NA,NA,NA,NA,NA,NA,NA,NA,NA,NA,NA
Inf,deep,flow.Sequence,3_0_1_0_6_0,NA,NA,completion,16164.6,332226,332221.16,332237.82,348402.42,348405,2023-08-06T10:04:01Z,348419.08,NULL,Wohlstand,mafanikio,d,NA,NA,NA,NA,sdfdsf,NA,1,NA,NA,NA,NA,NA,NA,NA,NA,NA,NA,NA,NA,NA,NA,NA,NA,NA,NA,NA
Inf,shallow,flow.Sequence,3_0_1_0_6_1,NA,NA,skipped,NA,348405,NA,NA,348402.42,348406,2023-08-06T10:04:01Z,348419.08,NULL,Wohlstand,mafanikio,d,NA,NA,NA,NA,sdfdsf,NA,1,NA,NA,NA,NA,NA,NA,NA,NA,NA,NA,NA,NA,NA,NA,NA,NA,NA,NA,NA
Inf,task,flow.Sequence,3_0_1_0_6,NA,NA,completion,16164.6,332226,332221.16,332237.82,348402.42,348406,2023-08-06T10:04:01Z,348419.08,NULL,Wohlstand,mafanikio,d,NA,NA,NA,NA,sdfdsf,NA,1,NA,NA,NA,NA,NA,NA,NA,NA,NA,NA,NA,NA,NA,NA,NA,NA,NA,NA,NA
Inf,deep,flow.Sequence,3_0_1_0_7_0,NA,NA,skipped,NA,348406,NA,NA,348402.42,348407,2023-08-06T10:04:01Z,348419.08,NULL,Vergnügen,kichekesho,s,dubwana,mpanuko,mtesaji,NA,sdfdsf,NA,1,NA,NA,NA,NA,NA,NA,NA,NA,NA,NA,NA,NA,NA,NA,NA,NA,NA,NA,NA
Inf,Shallow Question,html.Page,3_0_1_0_7_1_0,NA,NA,form submission,16569.92,348407,348402.42,348419.08,364989,364990,2023-08-06T10:04:17Z,365000.34,NULL,Vergnügen,kichekesho,s,dubwana,mpanuko,mtesaji,kichekesho,NA,NA,1,NA,NA,NA,NA,NA,NA,NA,NA,NA,NA,NA,NA,NA,NA,NA,NA,NA,NA,NA
Inf,"""Richtig""-Screen",canvas.Screen,3_0_1_0_7_1_1,NA,NA,timeout,4999.34,364995,364985.12,365000.34,369983.02,369985,2023-08-06T10:04:22Z,369999.68,NULL,Vergnügen,kichekesho,s,dubwana,mpanuko,mtesaji,NA,sdfdsf,1,1,NA,NA,NA,NA,NA,NA,NA,NA,NA,NA,NA,NA,NA,NA,NA,NA,NA,NA,NA
Inf,"""Falsch""-Screen",canvas.Screen,3_0_1_0_7_1_2,NA,NA,skipped,NA,369992,NA,NA,369983.02,369992,2023-08-06T10:04:23Z,369999.68,NULL,Vergnügen,kichekesho,s,dubwana,mpanuko,mtesaji,NA,sdfdsf,NA,1,NA,NA,NA,NA,NA,NA,NA,NA,NA,NA,NA,NA,NA,NA,NA,NA,NA,NA,NA
Inf,shallow,flow.Sequence,3_0_1_0_7_1,NA,NA,completion,21563.94,348407,348402.42,348419.08,369983.02,369993,2023-08-06T10:04:23Z,369999.68,NULL,Vergnügen,kichekesho,s,dubwana,mpanuko,mtesaji,NA,sdfdsf,NA,1,NA,NA,NA,NA,NA,NA,NA,NA,NA,NA,NA,NA,NA,NA,NA,NA,NA,NA,NA
Inf,task,flow.Sequence,3_0_1_0_7,NA,NA,completion,21563.94,348406,348402.42,348419.08,369983.02,369994,2023-08-06T10:04:23Z,369999.68,NULL,Vergnügen,kichekesho,s,dubwana,mpanuko,mtesaji,NA,sdfdsf,NA,1,NA,NA,NA,NA,NA,NA,NA,NA,NA,NA,NA,NA,NA,NA,NA,NA,NA,NA,NA
Inf,block,flow.Loop,3_0_1_0,NA,NA,completion,117318.16,252664,252664.48,252664.86,369983.02,369995,2023-08-06T10:04:23Z,369999.68,NULL,NA,NA,NA,NA,NA,NA,NA,sdfdsf,NA,1,NA,NA,NA,NA,NA,NA,NA,NA,NA,NA,NA,NA,NA,NA,NA,NA,NA,NA,NA
Inf,weiter,canvas.Screen,3_0_1_1,sdf,keypress(Space),response,1848.32,369995,369983.02,369999.68,371848,371853,2023-08-06T10:04:24Z,371905.74,NULL,NA,NA,NA,NA,NA,NA,NA,sdfdsf,NA,1,NA,NA,NA,NA,NA,NA,NA,NA,NA,NA,NA,NA,NA,NA,NA,NA,NA,NA,NA
Inf,check continue,flow.Sequence,3_0_1,NA,NA,completion,119183.14,252664,252664.48,252664.86,371848,371854,2023-08-06T10:04:24Z,371905.74,NULL,NA,NA,NA,NA,NA,NA,NA,sdfdsf,NA,1,NA,NA,NA,NA,NA,NA,NA,NA,NA,NA,NA,NA,NA,NA,NA,NA,NA,NA,NA
Inf,deep,flow.Sequence,3_0_2_0_0_0,NA,NA,skipped,NA,371904,NA,NA,371848,371904,2023-08-06T10:04:24Z,371905.74,NULL,Ausschluss,kutengwa,s,ununuzi,taratibu,madeni,NA,sdf,NA,2,NA,NA,NA,NA,NA,NA,NA,NA,NA,NA,NA,NA,NA,NA,NA,NA,NA,NA,NA
Inf,Shallow Question,html.Page,3_0_2_0_0_1_0,NA,NA,form submission,21833.26,371905,371904.98,371905.74,393739,393742,2023-08-06T10:04:46Z,393746.56,NULL,Ausschluss,kutengwa,s,ununuzi,taratibu,madeni,kutengwa,NA,NA,2,NA,NA,NA,NA,NA,NA,NA,NA,NA,NA,NA,NA,NA,NA,NA,NA,NA,NA,NA
Inf,"""Richtig""-Screen",canvas.Screen,3_0_2_0_0_1_1,NA,NA,timeout,4999.38,393751,393729.9,393746.56,398729.32,398731,2023-08-06T10:04:51Z,398745.94,NULL,Ausschluss,kutengwa,s,ununuzi,taratibu,madeni,NA,sdf,1,2,NA,NA,NA,NA,NA,NA,NA,NA,NA,NA,NA,NA,NA,NA,NA,NA,NA,NA,NA
Inf,"""Falsch""-Screen",canvas.Screen,3_0_2_0_0_1_2,NA,NA,skipped,NA,398740,NA,NA,398729.32,398740,2023-08-06T10:04:51Z,398745.94,NULL,Ausschluss,kutengwa,s,ununuzi,taratibu,madeni,NA,sdf,NA,2,NA,NA,NA,NA,NA,NA,NA,NA,NA,NA,NA,NA,NA,NA,NA,NA,NA,NA,NA
Inf,shallow,flow.Sequence,3_0_2_0_0_1,NA,NA,completion,26823.58,371904,371904.98,371905.74,398729.32,398741,2023-08-06T10:04:51Z,398745.94,NULL,Ausschluss,kutengwa,s,ununuzi,taratibu,madeni,NA,sdf,NA,2,NA,NA,NA,NA,NA,NA,NA,NA,NA,NA,NA,NA,NA,NA,NA,NA,NA,NA,NA
Inf,task,flow.Sequence,3_0_2_0_0,NA,NA,completion,26823.58,371904,371904.98,371905.74,398729.32,398742,2023-08-06T10:04:51Z,398745.94,NULL,Ausschluss,kutengwa,s,ununuzi,taratibu,madeni,NA,sdf,NA,2,NA,NA,NA,NA,NA,NA,NA,NA,NA,NA,NA,NA,NA,NA,NA,NA,NA,NA,NA
Inf,deep,flow.Sequence,3_0_2_0_1_0,NA,NA,skipped,NA,398742,NA,NA,398729.32,398742,2023-08-06T10:04:51Z,398745.94,NULL,Notfall,dharura,s,rairai,malalamiko,ahueni,NA,sdf,NA,2,NA,NA,NA,NA,NA,NA,NA,NA,NA,NA,NA,NA,NA,NA,NA,NA,NA,NA,NA
Inf,Shallow Question,html.Page,3_0_2_0_1_1_0,NA,NA,form submission,4898.06,398742,398729.32,398745.94,403644,403644,2023-08-06T10:04:56Z,403645.26,NULL,Notfall,dharura,s,rairai,malalamiko,ahueni,dharura,NA,NA,2,NA,NA,NA,NA,NA,NA,NA,NA,NA,NA,NA,NA,NA,NA,NA,NA,NA,NA,NA
Inf,"""Richtig""-Screen",canvas.Screen,3_0_2_0_1_1_1,NA,NA,timeout,4999.34,403647,403642.42,403645.26,408627.96,408629,2023-08-06T10:05:01Z,408644.6,NULL,Notfall,dharura,s,rairai,malalamiko,ahueni,NA,sdf,1,2,NA,NA,NA,NA,NA,NA,NA,NA,NA,NA,NA,NA,NA,NA,NA,NA,NA,NA,NA
Inf,"""Falsch""-Screen",canvas.Screen,3_0_2_0_1_1_2,NA,NA,skipped,NA,408637,NA,NA,408627.96,408637,2023-08-06T10:05:01Z,408644.6,NULL,Notfall,dharura,s,rairai,malalamiko,ahueni,NA,sdf,NA,2,NA,NA,NA,NA,NA,NA,NA,NA,NA,NA,NA,NA,NA,NA,NA,NA,NA,NA,NA
Inf,shallow,flow.Sequence,3_0_2_0_1_1,NA,NA,completion,9882.02,398742,398729.32,398745.94,408627.96,408639,2023-08-06T10:05:01Z,408644.6,NULL,Notfall,dharura,s,rairai,malalamiko,ahueni,NA,sdf,NA,2,NA,NA,NA,NA,NA,NA,NA,NA,NA,NA,NA,NA,NA,NA,NA,NA,NA,NA,NA
Inf,task,flow.Sequence,3_0_2_0_1,NA,NA,completion,9882.02,398742,398729.32,398745.94,408627.96,408640,2023-08-06T10:05:01Z,408644.6,NULL,Notfall,dharura,s,rairai,malalamiko,ahueni,NA,sdf,NA,2,NA,NA,NA,NA,NA,NA,NA,NA,NA,NA,NA,NA,NA,NA,NA,NA,NA,NA,NA
Inf,Deep Question,html.Page,3_0_2_0_2_0_0,NA,NA,form submission,16818.4,408640,408627.96,408644.6,425463,425463,2023-08-06T10:05:18Z,425461.82,NULL,Verstand,ufahamivu,d,NA,NA,NA,usulubu,NA,NA,2,NA,NA,NA,NA,NA,NA,NA,NA,NA,NA,NA,NA,NA,NA,NA,NA,NA,NA,NA
Inf,"""Richtig""-Screen",canvas.Screen,3_0_2_0_2_0_1,NA,NA,skipped,NA,425466,NA,NA,425463,425466,2023-08-06T10:05:18Z,425461.82,NULL,Verstand,ufahamivu,d,NA,NA,NA,NA,sdf,NA,2,NA,NA,NA,NA,NA,NA,NA,NA,NA,NA,NA,NA,NA,NA,NA,NA,NA,NA,NA
Inf,"""Falsch""-Screen",canvas.Screen,3_0_2_0_2_0_2,NA,NA,timeout,4996.7,425469,425461.4,425461.82,430441.88,430443,2023-08-06T10:05:23Z,430458.52,NULL,Verstand,ufahamivu,d,NA,NA,NA,NA,sdf,0,2,NA,NA,NA,NA,NA,NA,NA,NA,NA,NA,NA,NA,NA,NA,NA,NA,NA,NA,NA
Inf,deep,flow.Sequence,3_0_2_0_2_0,NA,NA,completion,21797.28,408640,408627.96,408644.6,430441.88,430444,2023-08-06T10:05:23Z,430458.52,NULL,Verstand,ufahamivu,d,NA,NA,NA,NA,sdf,NA,2,NA,NA,NA,NA,NA,NA,NA,NA,NA,NA,NA,NA,NA,NA,NA,NA,NA,NA,NA
Inf,shallow,flow.Sequence,3_0_2_0_2_1,NA,NA,skipped,NA,430444,NA,NA,430441.88,430445,2023-08-06T10:05:23Z,430458.52,NULL,Verstand,ufahamivu,d,NA,NA,NA,NA,sdf,NA,2,NA,NA,NA,NA,NA,NA,NA,NA,NA,NA,NA,NA,NA,NA,NA,NA,NA,NA,NA
Inf,task,flow.Sequence,3_0_2_0_2,NA,NA,completion,21797.28,408640,408627.96,408644.6,430441.88,430445,2023-08-06T10:05:23Z,430458.52,NULL,Verstand,ufahamivu,d,NA,NA,NA,NA,sdf,NA,2,NA,NA,NA,NA,NA,NA,NA,NA,NA,NA,NA,NA,NA,NA,NA,NA,NA,NA,NA
Inf,Deep Question,html.Page,3_0_2_0_3_0_0,NA,NA,form submission,15004.48,430446,430441.88,430458.52,445463,445463,2023-08-06T10:05:38Z,445461.52,NULL,Ergänzung,kijalizo,d,NA,NA,NA,u,NA,NA,2,NA,NA,NA,NA,NA,NA,NA,NA,NA,NA,NA,NA,NA,NA,NA,NA,NA,NA,NA
Inf,"""Richtig""-Screen",canvas.Screen,3_0_2_0_3_0_1,NA,NA,skipped,NA,445465,NA,NA,445463,445465,2023-08-06T10:05:38Z,445461.52,NULL,Ergänzung,kijalizo,d,NA,NA,NA,NA,sdf,NA,2,NA,NA,NA,NA,NA,NA,NA,NA,NA,NA,NA,NA,NA,NA,NA,NA,NA,NA,NA
Inf,"""Falsch""-Screen",canvas.Screen,3_0_2_0_3_0_2,NA,NA,timeout,4994.36,445469,445461.12,445461.52,450439.22,450440,2023-08-06T10:05:43Z,450455.88,NULL,Ergänzung,kijalizo,d,NA,NA,NA,NA,sdf,0,2,NA,NA,NA,NA,NA,NA,NA,NA,NA,NA,NA,NA,NA,NA,NA,NA,NA,NA,NA
Inf,deep,flow.Sequence,3_0_2_0_3_0,NA,NA,completion,19980.7,430446,430441.88,430458.52,450439.22,450441,2023-08-06T10:05:43Z,450455.88,NULL,Ergänzung,kijalizo,d,NA,NA,NA,NA,sdf,NA,2,NA,NA,NA,NA,NA,NA,NA,NA,NA,NA,NA,NA,NA,NA,NA,NA,NA,NA,NA
Inf,shallow,flow.Sequence,3_0_2_0_3_1,NA,NA,skipped,NA,450441,NA,NA,450439.22,450442,2023-08-06T10:05:43Z,450455.88,NULL,Ergänzung,kijalizo,d,NA,NA,NA,NA,sdf,NA,2,NA,NA,NA,NA,NA,NA,NA,NA,NA,NA,NA,NA,NA,NA,NA,NA,NA,NA,NA
Inf,task,flow.Sequence,3_0_2_0_3,NA,NA,completion,19980.7,430445,430441.88,430458.52,450439.22,450443,2023-08-06T10:05:43Z,450455.88,NULL,Ergänzung,kijalizo,d,NA,NA,NA,NA,sdf,NA,2,NA,NA,NA,NA,NA,NA,NA,NA,NA,NA,NA,NA,NA,NA,NA,NA,NA,NA,NA
Inf,deep,flow.Sequence,3_0_2_0_4_0,NA,NA,skipped,NA,450444,NA,NA,450439.22,450444,2023-08-06T10:05:43Z,450455.88,NULL,Vergnügen,kichekesho,s,dubwana,mpanuko,mtesaji,NA,sdf,NA,2,NA,NA,NA,NA,NA,NA,NA,NA,NA,NA,NA,NA,NA,NA,NA,NA,NA,NA,NA
Inf,Shallow Question,html.Page,3_0_2_0_4_1_0,NA,NA,form submission,18457.12,450445,450439.22,450455.88,468913,468914,2023-08-06T10:06:01Z,468920.08,NULL,Vergnügen,kichekesho,s,dubwana,mpanuko,mtesaji,kichekesho,NA,NA,2,NA,NA,NA,NA,NA,NA,NA,NA,NA,NA,NA,NA,NA,NA,NA,NA,NA,NA,NA
Inf,"""Richtig""-Screen",canvas.Screen,3_0_2_0_4_1_1,NA,NA,timeout,4999.42,468915,468911.22,468920.08,473902.84,473904,2023-08-06T10:06:06Z,473919.5,NULL,Vergnügen,kichekesho,s,dubwana,mpanuko,mtesaji,NA,sdf,1,2,NA,NA,NA,NA,NA,NA,NA,NA,NA,NA,NA,NA,NA,NA,NA,NA,NA,NA,NA
Inf,"""Falsch""-Screen",canvas.Screen,3_0_2_0_4_1_2,NA,NA,skipped,NA,473910,NA,NA,473902.84,473910,2023-08-06T10:06:06Z,473919.5,NULL,Vergnügen,kichekesho,s,dubwana,mpanuko,mtesaji,NA,sdf,NA,2,NA,NA,NA,NA,NA,NA,NA,NA,NA,NA,NA,NA,NA,NA,NA,NA,NA,NA,NA
Inf,shallow,flow.Sequence,3_0_2_0_4_1,NA,NA,completion,23446.96,450444,450439.22,450455.88,473902.84,473911,2023-08-06T10:06:06Z,473919.5,NULL,Vergnügen,kichekesho,s,dubwana,mpanuko,mtesaji,NA,sdf,NA,2,NA,NA,NA,NA,NA,NA,NA,NA,NA,NA,NA,NA,NA,NA,NA,NA,NA,NA,NA
Inf,task,flow.Sequence,3_0_2_0_4,NA,NA,completion,23446.96,450444,450439.22,450455.88,473902.84,473912,2023-08-06T10:06:06Z,473919.5,NULL,Vergnügen,kichekesho,s,dubwana,mpanuko,mtesaji,NA,sdf,NA,2,NA,NA,NA,NA,NA,NA,NA,NA,NA,NA,NA,NA,NA,NA,NA,NA,NA,NA,NA
Inf,Deep Question,html.Page,3_0_2_0_5_0_0,NA,NA,form submission,9925.5,473912,473902.84,473919.5,483845,483846,2023-08-06T10:06:16Z,483851.5,NULL,Wohlstand,mafanikio,d,NA,NA,NA,kji,NA,NA,2,NA,NA,NA,NA,NA,NA,NA,NA,NA,NA,NA,NA,NA,NA,NA,NA,NA,NA,NA
Inf,"""Richtig""-Screen",canvas.Screen,3_0_2_0_5_0_1,NA,NA,skipped,NA,483848,NA,NA,483845,483848,2023-08-06T10:06:16Z,483851.5,NULL,Wohlstand,mafanikio,d,NA,NA,NA,NA,sdf,NA,2,NA,NA,NA,NA,NA,NA,NA,NA,NA,NA,NA,NA,NA,NA,NA,NA,NA,NA,NA
Inf,"""Falsch""-Screen",canvas.Screen,3_0_2_0_5_0_2,NA,NA,timeout,4999.4,483851,483844.32,483851.5,488834.24,488836,2023-08-06T10:06:21Z,488850.9,NULL,Wohlstand,mafanikio,d,NA,NA,NA,NA,sdf,0,2,NA,NA,NA,NA,NA,NA,NA,NA,NA,NA,NA,NA,NA,NA,NA,NA,NA,NA,NA
Inf,deep,flow.Sequence,3_0_2_0_5_0,NA,NA,completion,14914.74,473912,473902.84,473919.5,488834.24,488837,2023-08-06T10:06:21Z,488850.9,NULL,Wohlstand,mafanikio,d,NA,NA,NA,NA,sdf,NA,2,NA,NA,NA,NA,NA,NA,NA,NA,NA,NA,NA,NA,NA,NA,NA,NA,NA,NA,NA
Inf,shallow,flow.Sequence,3_0_2_0_5_1,NA,NA,skipped,NA,488837,NA,NA,488834.24,488837,2023-08-06T10:06:21Z,488850.9,NULL,Wohlstand,mafanikio,d,NA,NA,NA,NA,sdf,NA,2,NA,NA,NA,NA,NA,NA,NA,NA,NA,NA,NA,NA,NA,NA,NA,NA,NA,NA,NA
Inf,task,flow.Sequence,3_0_2_0_5,NA,NA,completion,14914.74,473912,473902.84,473919.5,488834.24,488837,2023-08-06T10:06:21Z,488850.9,NULL,Wohlstand,mafanikio,d,NA,NA,NA,NA,sdf,NA,2,NA,NA,NA,NA,NA,NA,NA,NA,NA,NA,NA,NA,NA,NA,NA,NA,NA,NA,NA
Inf,deep,flow.Sequence,3_0_2_0_6_0,NA,NA,skipped,NA,488838,NA,NA,488834.24,488838,2023-08-06T10:06:21Z,488850.9,NULL,Gelegenheit,wakati,s,mchanganyiko,kipaumbele,kushuku,NA,sdf,NA,2,NA,NA,NA,NA,NA,NA,NA,NA,NA,NA,NA,NA,NA,NA,NA,NA,NA,NA,NA
Inf,Shallow Question,html.Page,3_0_2_0_6_1_0,NA,NA,form submission,6771.1,488838,488834.24,488850.9,495622,495622,2023-08-06T10:06:28Z,495621.78,NULL,Gelegenheit,wakati,s,mchanganyiko,kipaumbele,kushuku,wakati,NA,NA,2,NA,NA,NA,NA,NA,NA,NA,NA,NA,NA,NA,NA,NA,NA,NA,NA,NA,NA,NA
Inf,"""Richtig""-Screen",canvas.Screen,3_0_2_0_6_1_1,NA,NA,timeout,4994.18,495625,495621.44,495621.78,500599.3,500602,2023-08-06T10:06:33Z,500615.96,NULL,Gelegenheit,wakati,s,mchanganyiko,kipaumbele,kushuku,NA,sdf,1,2,NA,NA,NA,NA,NA,NA,NA,NA,NA,NA,NA,NA,NA,NA,NA,NA,NA,NA,NA
Inf,"""Falsch""-Screen",canvas.Screen,3_0_2_0_6_1_2,NA,NA,skipped,NA,500615,NA,NA,500599.3,500616,2023-08-06T10:06:33Z,500615.96,NULL,Gelegenheit,wakati,s,mchanganyiko,kipaumbele,kushuku,NA,sdf,NA,2,NA,NA,NA,NA,NA,NA,NA,NA,NA,NA,NA,NA,NA,NA,NA,NA,NA,NA,NA
Inf,shallow,flow.Sequence,3_0_2_0_6_1,NA,NA,completion,11748.4,488838,488834.24,488850.9,500599.3,500616,2023-08-06T10:06:33Z,500615.96,NULL,Gelegenheit,wakati,s,mchanganyiko,kipaumbele,kushuku,NA,sdf,NA,2,NA,NA,NA,NA,NA,NA,NA,NA,NA,NA,NA,NA,NA,NA,NA,NA,NA,NA,NA
Inf,task,flow.Sequence,3_0_2_0_6,NA,NA,completion,11748.4,488838,488834.24,488850.9,500599.3,500617,2023-08-06T10:06:33Z,500615.96,NULL,Gelegenheit,wakati,s,mchanganyiko,kipaumbele,kushuku,NA,sdf,NA,2,NA,NA,NA,NA,NA,NA,NA,NA,NA,NA,NA,NA,NA,NA,NA,NA,NA,NA,NA
Inf,Deep Question,html.Page,3_0_2_0_7_0_0,NA,NA,form submission,19065.04,500617,500599.3,500615.96,519681,519682,2023-08-06T10:06:52Z,519680.1,NULL,Widerstand,usulubu,d,NA,NA,NA,ufatsi,NA,NA,2,NA,NA,NA,NA,NA,NA,NA,NA,NA,NA,NA,NA,NA,NA,NA,NA,NA,NA,NA
Inf,"""Richtig""-Screen",canvas.Screen,3_0_2_0_7_0_1,NA,NA,skipped,NA,519690,NA,NA,519681,519690,2023-08-06T10:06:52Z,519680.1,NULL,Widerstand,usulubu,d,NA,NA,NA,NA,sdf,NA,2,NA,NA,NA,NA,NA,NA,NA,NA,NA,NA,NA,NA,NA,NA,NA,NA,NA,NA,NA
Inf,"""Falsch""-Screen",canvas.Screen,3_0_2_0_7_0_2,NA,NA,timeout,4999.4600000001,519692,519679.38,519680.1,524662.92,524664,2023-08-06T10:06:57Z,524679.56,NULL,Widerstand,usulubu,d,NA,NA,NA,NA,sdf,0,2,NA,NA,NA,NA,NA,NA,NA,NA,NA,NA,NA,NA,NA,NA,NA,NA,NA,NA,NA
Inf,deep,flow.Sequence,3_0_2_0_7_0,NA,NA,completion,24046.96,500617,500599.3,500615.96,524662.92,524666,2023-08-06T10:06:57Z,524679.56,NULL,Widerstand,usulubu,d,NA,NA,NA,NA,sdf,NA,2,NA,NA,NA,NA,NA,NA,NA,NA,NA,NA,NA,NA,NA,NA,NA,NA,NA,NA,NA
Inf,shallow,flow.Sequence,3_0_2_0_7_1,NA,NA,skipped,NA,524666,NA,NA,524662.92,524666,2023-08-06T10:06:57Z,524679.56,NULL,Widerstand,usulubu,d,NA,NA,NA,NA,sdf,NA,2,NA,NA,NA,NA,NA,NA,NA,NA,NA,NA,NA,NA,NA,NA,NA,NA,NA,NA,NA
Inf,task,flow.Sequence,3_0_2_0_7,NA,NA,completion,24046.96,500617,500599.3,500615.96,524662.92,524667,2023-08-06T10:06:57Z,524679.56,NULL,Widerstand,usulubu,d,NA,NA,NA,NA,sdf,NA,2,NA,NA,NA,NA,NA,NA,NA,NA,NA,NA,NA,NA,NA,NA,NA,NA,NA,NA,NA
Inf,block,flow.Loop,3_0_2_0,NA,NA,completion,152757.18,371904,371904.98,371905.74,524662.92,524668,2023-08-06T10:06:57Z,524679.56,NULL,NA,NA,NA,NA,NA,NA,NA,sdf,NA,2,NA,NA,NA,NA,NA,NA,NA,NA,NA,NA,NA,NA,NA,NA,NA,NA,NA,NA,NA
Inf,weiter,canvas.Screen,3_0_2_1,sdf,keypress(Space),response,1481.4399999999,524669,524662.92,524679.56,526161,526169,2023-08-06T10:06:59Z,526233.1,NULL,NA,NA,NA,NA,NA,NA,NA,sdf,NA,2,NA,NA,NA,NA,NA,NA,NA,NA,NA,NA,NA,NA,NA,NA,NA,NA,NA,NA,NA
Inf,check continue,flow.Sequence,3_0_2,NA,NA,completion,154255.26,371904,371904.98,371905.74,526161,526170,2023-08-06T10:06:59Z,526233.1,NULL,NA,NA,NA,NA,NA,NA,NA,sdf,NA,2,NA,NA,NA,NA,NA,NA,NA,NA,NA,NA,NA,NA,NA,NA,NA,NA,NA,NA,NA
Inf,deep,flow.Sequence,3_0_3_0_0_0,NA,NA,skipped,NA,526233,NA,NA,526161,526233,2023-08-06T10:06:59Z,526233.1,NULL,Gelegenheit,wakati,s,mchanganyiko,kipaumbele,kushuku,NA,qt,NA,3,NA,NA,NA,NA,NA,NA,NA,NA,NA,NA,NA,NA,NA,NA,NA,NA,NA,NA,NA
Inf,Shallow Question,html.Page,3_0_3_0_0_1_0,NA,NA,form submission,20328.9,526233,526232.72,526233.1,546562,546563,2023-08-06T10:07:19Z,546559.88,NULL,Gelegenheit,wakati,s,mchanganyiko,kipaumbele,kushuku,wakati,NA,NA,3,NA,NA,NA,NA,NA,NA,NA,NA,NA,NA,NA,NA,NA,NA,NA,NA,NA,NA,NA
Inf,"""Richtig""-Screen",canvas.Screen,3_0_3_0_0_1_1,NA,NA,timeout,4999.52,546569,546556.72,546559.88,551542.74,551545,2023-08-06T10:07:24Z,551559.4,NULL,Gelegenheit,wakati,s,mchanganyiko,kipaumbele,kushuku,NA,qt,1,3,NA,NA,NA,NA,NA,NA,NA,NA,NA,NA,NA,NA,NA,NA,NA,NA,NA,NA,NA
Inf,"""Falsch""-Screen",canvas.Screen,3_0_3_0_0_1_2,NA,NA,skipped,NA,551551,NA,NA,551542.74,551551,2023-08-06T10:07:24Z,551559.4,NULL,Gelegenheit,wakati,s,mchanganyiko,kipaumbele,kushuku,NA,qt,NA,3,NA,NA,NA,NA,NA,NA,NA,NA,NA,NA,NA,NA,NA,NA,NA,NA,NA,NA,NA
Inf,shallow,flow.Sequence,3_0_3_0_0_1,NA,NA,completion,25309.64,526233,526232.72,526233.1,551542.74,551551,2023-08-06T10:07:24Z,551559.4,NULL,Gelegenheit,wakati,s,mchanganyiko,kipaumbele,kushuku,NA,qt,NA,3,NA,NA,NA,NA,NA,NA,NA,NA,NA,NA,NA,NA,NA,NA,NA,NA,NA,NA,NA
Inf,task,flow.Sequence,3_0_3_0_0,NA,NA,completion,25309.64,526232,526232.72,526233.1,551542.74,551552,2023-08-06T10:07:24Z,551559.4,NULL,Gelegenheit,wakati,s,mchanganyiko,kipaumbele,kushuku,NA,qt,NA,3,NA,NA,NA,NA,NA,NA,NA,NA,NA,NA,NA,NA,NA,NA,NA,NA,NA,NA,NA
Inf,deep,flow.Sequence,3_0_3_0_1_0,NA,NA,skipped,NA,551552,NA,NA,551542.74,551552,2023-08-06T10:07:24Z,551559.4,NULL,Vergnügen,kichekesho,s,dubwana,mpanuko,mtesaji,NA,qt,NA,3,NA,NA,NA,NA,NA,NA,NA,NA,NA,NA,NA,NA,NA,NA,NA,NA,NA,NA,NA
Inf,Shallow Question,html.Page,3_0_3_0_1_1_0,NA,NA,form submission,10658.6,551553,551542.74,551559.4,562218,562219,2023-08-06T10:07:35Z,562224.62,NULL,Vergnügen,kichekesho,s,dubwana,mpanuko,mtesaji,kichekesho,NA,NA,3,NA,NA,NA,NA,NA,NA,NA,NA,NA,NA,NA,NA,NA,NA,NA,NA,NA,NA,NA
Inf,"""Richtig""-Screen",canvas.Screen,3_0_3_0_1_1_1,NA,NA,timeout,4999.34,562221,562210.98,562224.62,567207.34,567209,2023-08-06T10:07:40Z,567223.96,NULL,Vergnügen,kichekesho,s,dubwana,mpanuko,mtesaji,NA,qt,1,3,NA,NA,NA,NA,NA,NA,NA,NA,NA,NA,NA,NA,NA,NA,NA,NA,NA,NA,NA
Inf,"""Falsch""-Screen",canvas.Screen,3_0_3_0_1_1_2,NA,NA,skipped,NA,567216,NA,NA,567207.34,567216,2023-08-06T10:07:40Z,567223.96,NULL,Vergnügen,kichekesho,s,dubwana,mpanuko,mtesaji,NA,qt,NA,3,NA,NA,NA,NA,NA,NA,NA,NA,NA,NA,NA,NA,NA,NA,NA,NA,NA,NA,NA
Inf,shallow,flow.Sequence,3_0_3_0_1_1,NA,NA,completion,15647.94,551552,551542.74,551559.4,567207.34,567216,2023-08-06T10:07:40Z,567223.96,NULL,Vergnügen,kichekesho,s,dubwana,mpanuko,mtesaji,NA,qt,NA,3,NA,NA,NA,NA,NA,NA,NA,NA,NA,NA,NA,NA,NA,NA,NA,NA,NA,NA,NA
Inf,task,flow.Sequence,3_0_3_0_1,NA,NA,completion,15647.94,551552,551542.74,551559.4,567207.34,567217,2023-08-06T10:07:40Z,567223.96,NULL,Vergnügen,kichekesho,s,dubwana,mpanuko,mtesaji,NA,qt,NA,3,NA,NA,NA,NA,NA,NA,NA,NA,NA,NA,NA,NA,NA,NA,NA,NA,NA,NA,NA
Inf,deep,flow.Sequence,3_0_3_0_2_0,NA,NA,skipped,NA,567217,NA,NA,567207.34,567218,2023-08-06T10:07:40Z,567223.96,NULL,Notfall,dharura,s,rairai,malalamiko,ahueni,NA,qt,NA,3,NA,NA,NA,NA,NA,NA,NA,NA,NA,NA,NA,NA,NA,NA,NA,NA,NA,NA,NA
Inf,Shallow Question,html.Page,3_0_3_0_2_1_0,NA,NA,form submission,7159.04,567218,567207.34,567223.96,574383,574384,2023-08-06T10:07:47Z,574389.68,NULL,Notfall,dharura,s,rairai,malalamiko,ahueni,dharura,NA,NA,3,NA,NA,NA,NA,NA,NA,NA,NA,NA,NA,NA,NA,NA,NA,NA,NA,NA,NA,NA
Inf,"""Richtig""-Screen",canvas.Screen,3_0_3_0_2_1_1,NA,NA,timeout,4999.38,574391,574378.72,574389.68,579372.42,579374,2023-08-06T10:07:52Z,579389.06,NULL,Notfall,dharura,s,rairai,malalamiko,ahueni,NA,qt,1,3,NA,NA,NA,NA,NA,NA,NA,NA,NA,NA,NA,NA,NA,NA,NA,NA,NA,NA,NA
Inf,"""Falsch""-Screen",canvas.Screen,3_0_3_0_2_1_2,NA,NA,skipped,NA,579382,NA,NA,579372.42,579382,2023-08-06T10:07:52Z,579389.06,NULL,Notfall,dharura,s,rairai,malalamiko,ahueni,NA,qt,NA,3,NA,NA,NA,NA,NA,NA,NA,NA,NA,NA,NA,NA,NA,NA,NA,NA,NA,NA,NA
Inf,shallow,flow.Sequence,3_0_3_0_2_1,NA,NA,completion,12148.46,567218,567207.34,567223.96,579372.42,579382,2023-08-06T10:07:52Z,579389.06,NULL,Notfall,dharura,s,rairai,malalamiko,ahueni,NA,qt,NA,3,NA,NA,NA,NA,NA,NA,NA,NA,NA,NA,NA,NA,NA,NA,NA,NA,NA,NA,NA
Inf,task,flow.Sequence,3_0_3_0_2,NA,NA,completion,12148.46,567217,567207.34,567223.96,579372.42,579383,2023-08-06T10:07:52Z,579389.06,NULL,Notfall,dharura,s,rairai,malalamiko,ahueni,NA,qt,NA,3,NA,NA,NA,NA,NA,NA,NA,NA,NA,NA,NA,NA,NA,NA,NA,NA,NA,NA,NA
Inf,Deep Question,html.Page,3_0_3_0_3_0_0,NA,NA,form submission,12303.94,579383,579372.42,579389.06,591693,591693,2023-08-06T10:08:04Z,591704.1,NULL,Ergänzung,kijalizo,d,NA,NA,NA,wakati,NA,NA,3,NA,NA,NA,NA,NA,NA,NA,NA,NA,NA,NA,NA,NA,NA,NA,NA,NA,NA,NA
Inf,"""Richtig""-Screen",canvas.Screen,3_0_3_0_3_0_1,NA,NA,skipped,NA,591697,NA,NA,591693,591697,2023-08-06T10:08:04Z,591704.1,NULL,Ergänzung,kijalizo,d,NA,NA,NA,NA,qt,NA,3,NA,NA,NA,NA,NA,NA,NA,NA,NA,NA,NA,NA,NA,NA,NA,NA,NA,NA,NA
Inf,"""Falsch""-Screen",canvas.Screen,3_0_3_0_3_0_2,NA,NA,timeout,4999.38,591701,591692.2,591704.1,596686.82,596688,2023-08-06T10:08:09Z,596703.48,NULL,Ergänzung,kijalizo,d,NA,NA,NA,NA,qt,0,3,NA,NA,NA,NA,NA,NA,NA,NA,NA,NA,NA,NA,NA,NA,NA,NA,NA,NA,NA
Inf,deep,flow.Sequence,3_0_3_0_3_0,NA,NA,completion,17297.76,579383,579372.42,579389.06,596686.82,596689,2023-08-06T10:08:09Z,596703.48,NULL,Ergänzung,kijalizo,d,NA,NA,NA,NA,qt,NA,3,NA,NA,NA,NA,NA,NA,NA,NA,NA,NA,NA,NA,NA,NA,NA,NA,NA,NA,NA
Inf,shallow,flow.Sequence,3_0_3_0_3_1,NA,NA,skipped,NA,596689,NA,NA,596686.82,596690,2023-08-06T10:08:09Z,596703.48,NULL,Ergänzung,kijalizo,d,NA,NA,NA,NA,qt,NA,3,NA,NA,NA,NA,NA,NA,NA,NA,NA,NA,NA,NA,NA,NA,NA,NA,NA,NA,NA
Inf,task,flow.Sequence,3_0_3_0_3,NA,NA,completion,17297.76,579383,579372.42,579389.06,596686.82,596690,2023-08-06T10:08:09Z,596703.48,NULL,Ergänzung,kijalizo,d,NA,NA,NA,NA,qt,NA,3,NA,NA,NA,NA,NA,NA,NA,NA,NA,NA,NA,NA,NA,NA,NA,NA,NA,NA,NA
Inf,deep,flow.Sequence,3_0_3_0_4_0,NA,NA,skipped,NA,596691,NA,NA,596686.82,596691,2023-08-06T10:08:09Z,596703.48,NULL,Ausschluss,kutengwa,s,ununuzi,taratibu,madeni,NA,qt,NA,3,NA,NA,NA,NA,NA,NA,NA,NA,NA,NA,NA,NA,NA,NA,NA,NA,NA,NA,NA
Inf,Shallow Question,html.Page,3_0_3_0_4_1_0,NA,NA,form submission,8598.52,596692,596686.82,596703.48,605302,605303,2023-08-06T10:08:18Z,605302.28,NULL,Ausschluss,kutengwa,s,ununuzi,taratibu,madeni,kutengwa,NA,NA,3,NA,NA,NA,NA,NA,NA,NA,NA,NA,NA,NA,NA,NA,NA,NA,NA,NA,NA,NA
Inf,"""Richtig""-Screen",canvas.Screen,3_0_3_0_4_1_1,NA,NA,timeout,4999.5,605306,605298,605302.28,610285.1,610286,2023-08-06T10:08:23Z,610301.78,NULL,Ausschluss,kutengwa,s,ununuzi,taratibu,madeni,NA,qt,1,3,NA,NA,NA,NA,NA,NA,NA,NA,NA,NA,NA,NA,NA,NA,NA,NA,NA,NA,NA
Inf,"""Falsch""-Screen",canvas.Screen,3_0_3_0_4_1_2,NA,NA,skipped,NA,610291,NA,NA,610285.1,610291,2023-08-06T10:08:23Z,610301.78,NULL,Ausschluss,kutengwa,s,ununuzi,taratibu,madeni,NA,qt,NA,3,NA,NA,NA,NA,NA,NA,NA,NA,NA,NA,NA,NA,NA,NA,NA,NA,NA,NA,NA
Inf,shallow,flow.Sequence,3_0_3_0_4_1,NA,NA,completion,13581.62,596691,596686.82,596703.48,610285.1,610292,2023-08-06T10:08:23Z,610301.78,NULL,Ausschluss,kutengwa,s,ununuzi,taratibu,madeni,NA,qt,NA,3,NA,NA,NA,NA,NA,NA,NA,NA,NA,NA,NA,NA,NA,NA,NA,NA,NA,NA,NA
Inf,task,flow.Sequence,3_0_3_0_4,NA,NA,completion,13581.62,596691,596686.82,596703.48,610285.1,610292,2023-08-06T10:08:23Z,610301.78,NULL,Ausschluss,kutengwa,s,ununuzi,taratibu,madeni,NA,qt,NA,3,NA,NA,NA,NA,NA,NA,NA,NA,NA,NA,NA,NA,NA,NA,NA,NA,NA,NA,NA
Inf,Deep Question,html.Page,3_0_3_0_5_0_0,NA,NA,form submission,14255.22,610292,610285.1,610301.78,624557,624558,2023-08-06T10:08:37Z,624566.48,NULL,Verstand,ufahamivu,d,NA,NA,NA,wakati,NA,NA,3,NA,NA,NA,NA,NA,NA,NA,NA,NA,NA,NA,NA,NA,NA,NA,NA,NA,NA,NA
Inf,"""Richtig""-Screen",canvas.Screen,3_0_3_0_5_0_1,NA,NA,skipped,NA,624560,NA,NA,624557,624560,2023-08-06T10:08:37Z,624566.48,NULL,Verstand,ufahamivu,d,NA,NA,NA,NA,qt,NA,3,NA,NA,NA,NA,NA,NA,NA,NA,NA,NA,NA,NA,NA,NA,NA,NA,NA,NA,NA
Inf,"""Falsch""-Screen",canvas.Screen,3_0_3_0_5_0_2,NA,NA,timeout,4999.42,624563,624556.76,624566.48,629549.24,629550,2023-08-06T10:08:42Z,629565.9,NULL,Verstand,ufahamivu,d,NA,NA,NA,NA,qt,0,3,NA,NA,NA,NA,NA,NA,NA,NA,NA,NA,NA,NA,NA,NA,NA,NA,NA,NA,NA
Inf,deep,flow.Sequence,3_0_3_0_5_0,NA,NA,completion,19247.46,610292,610285.1,610301.78,629549.24,629551,2023-08-06T10:08:42Z,629565.9,NULL,Verstand,ufahamivu,d,NA,NA,NA,NA,qt,NA,3,NA,NA,NA,NA,NA,NA,NA,NA,NA,NA,NA,NA,NA,NA,NA,NA,NA,NA,NA
Inf,shallow,flow.Sequence,3_0_3_0_5_1,NA,NA,skipped,NA,629551,NA,NA,629549.24,629552,2023-08-06T10:08:42Z,629565.9,NULL,Verstand,ufahamivu,d,NA,NA,NA,NA,qt,NA,3,NA,NA,NA,NA,NA,NA,NA,NA,NA,NA,NA,NA,NA,NA,NA,NA,NA,NA,NA
Inf,task,flow.Sequence,3_0_3_0_5,NA,NA,completion,19247.46,610292,610285.1,610301.78,629549.24,629552,2023-08-06T10:08:42Z,629565.9,NULL,Verstand,ufahamivu,d,NA,NA,NA,NA,qt,NA,3,NA,NA,NA,NA,NA,NA,NA,NA,NA,NA,NA,NA,NA,NA,NA,NA,NA,NA,NA
Inf,Deep Question,html.Page,3_0_3_0_6_0_0,NA,NA,form submission,6344.1,629553,629549.24,629565.9,635910,635910,2023-08-06T10:08:48Z,635915.14,NULL,Wohlstand,mafanikio,d,NA,NA,NA,maha,NA,NA,3,NA,NA,NA,NA,NA,NA,NA,NA,NA,NA,NA,NA,NA,NA,NA,NA,NA,NA,NA
Inf,"""Richtig""-Screen",canvas.Screen,3_0_3_0_6_0_1,NA,NA,skipped,NA,635912,NA,NA,635910,635912,2023-08-06T10:08:48Z,635915.14,NULL,Wohlstand,mafanikio,d,NA,NA,NA,NA,qt,NA,3,NA,NA,NA,NA,NA,NA,NA,NA,NA,NA,NA,NA,NA,NA,NA,NA,NA,NA,NA
Inf,"""Falsch""-Screen",canvas.Screen,3_0_3_0_6_0_2,NA,NA,timeout,4999.26,635915,635908.76,635915.14,640897.74,640899,2023-08-06T10:08:53Z,640914.4,NULL,Wohlstand,mafanikio,d,NA,NA,NA,NA,qt,0,3,NA,NA,NA,NA,NA,NA,NA,NA,NA,NA,NA,NA,NA,NA,NA,NA,NA,NA,NA
Inf,deep,flow.Sequence,3_0_3_0_6_0,NA,NA,completion,11331.84,629552,629549.24,629565.9,640897.74,640900,2023-08-06T10:08:53Z,640914.4,NULL,Wohlstand,mafanikio,d,NA,NA,NA,NA,qt,NA,3,NA,NA,NA,NA,NA,NA,NA,NA,NA,NA,NA,NA,NA,NA,NA,NA,NA,NA,NA
Inf,shallow,flow.Sequence,3_0_3_0_6_1,NA,NA,skipped,NA,640900,NA,NA,640897.74,640900,2023-08-06T10:08:53Z,640914.4,NULL,Wohlstand,mafanikio,d,NA,NA,NA,NA,qt,NA,3,NA,NA,NA,NA,NA,NA,NA,NA,NA,NA,NA,NA,NA,NA,NA,NA,NA,NA,NA
Inf,task,flow.Sequence,3_0_3_0_6,NA,NA,completion,11331.84,629552,629549.24,629565.9,640897.74,640900,2023-08-06T10:08:53Z,640914.4,NULL,Wohlstand,mafanikio,d,NA,NA,NA,NA,qt,NA,3,NA,NA,NA,NA,NA,NA,NA,NA,NA,NA,NA,NA,NA,NA,NA,NA,NA,NA,NA
Inf,Deep Question,html.Page,3_0_3_0_7_0_0,NA,NA,form submission,14779.6,640901,640897.74,640914.4,655694,655694,2023-08-06T10:09:08Z,655695.74,NULL,Widerstand,usulubu,d,NA,NA,NA,kajiz,NA,NA,3,NA,NA,NA,NA,NA,NA,NA,NA,NA,NA,NA,NA,NA,NA,NA,NA,NA,NA,NA
Inf,"""Richtig""-Screen",canvas.Screen,3_0_3_0_7_0_1,NA,NA,skipped,NA,655697,NA,NA,655694,655697,2023-08-06T10:09:08Z,655695.74,NULL,Widerstand,usulubu,d,NA,NA,NA,NA,qt,NA,3,NA,NA,NA,NA,NA,NA,NA,NA,NA,NA,NA,NA,NA,NA,NA,NA,NA,NA,NA
Inf,"""Falsch""-Screen",canvas.Screen,3_0_3_0_7_0_2,NA,NA,timeout,4999.42,655700,655692.6,655695.74,660678.5,660679,2023-08-06T10:09:13Z,660695.16,NULL,Widerstand,usulubu,d,NA,NA,NA,NA,qt,0,3,NA,NA,NA,NA,NA,NA,NA,NA,NA,NA,NA,NA,NA,NA,NA,NA,NA,NA,NA
Inf,deep,flow.Sequence,3_0_3_0_7_0,NA,NA,completion,19764.1,640901,640897.74,640914.4,660678.5,660680,2023-08-06T10:09:13Z,660695.16,NULL,Widerstand,usulubu,d,NA,NA,NA,NA,qt,NA,3,NA,NA,NA,NA,NA,NA,NA,NA,NA,NA,NA,NA,NA,NA,NA,NA,NA,NA,NA
Inf,shallow,flow.Sequence,3_0_3_0_7_1,NA,NA,skipped,NA,660680,NA,NA,660678.5,660681,2023-08-06T10:09:13Z,660695.16,NULL,Widerstand,usulubu,d,NA,NA,NA,NA,qt,NA,3,NA,NA,NA,NA,NA,NA,NA,NA,NA,NA,NA,NA,NA,NA,NA,NA,NA,NA,NA
Inf,task,flow.Sequence,3_0_3_0_7,NA,NA,completion,19764.1,640901,640897.74,640914.4,660678.5,660681,2023-08-06T10:09:13Z,660695.16,NULL,Widerstand,usulubu,d,NA,NA,NA,NA,qt,NA,3,NA,NA,NA,NA,NA,NA,NA,NA,NA,NA,NA,NA,NA,NA,NA,NA,NA,NA,NA
Inf,block,flow.Loop,3_0_3_0,NA,NA,completion,134445.4,526232,526232.72,526233.1,660678.5,660682,2023-08-06T10:09:13Z,660695.16,NULL,NA,NA,NA,NA,NA,NA,NA,qt,NA,3,NA,NA,NA,NA,NA,NA,NA,NA,NA,NA,NA,NA,NA,NA,NA,NA,NA,NA,NA
Inf,weiter,canvas.Screen,3_0_3_1,sdf,keypress(Space),response,1824.84,660682,660678.5,660695.16,662520,662534,2023-08-06T10:09:15Z,662601.74,NULL,NA,NA,NA,NA,NA,NA,NA,qt,NA,3,NA,NA,NA,NA,NA,NA,NA,NA,NA,NA,NA,NA,NA,NA,NA,NA,NA,NA,NA
Inf,check continue,flow.Sequence,3_0_3,NA,NA,completion,136286.9,526232,526232.72,526233.1,662520,662535,2023-08-06T10:09:15Z,662601.74,NULL,NA,NA,NA,NA,NA,NA,NA,qt,NA,3,NA,NA,NA,NA,NA,NA,NA,NA,NA,NA,NA,NA,NA,NA,NA,NA,NA,NA,NA
Inf,Deep Question,html.Page,3_0_4_0_0_0_0,NA,NA,form submission,13955.26,662601,662601.36,662601.74,676557,676557,2023-08-06T10:09:29Z,676559.76,NULL,Wohlstand,mafanikio,d,NA,NA,NA,mafan,NA,NA,4,NA,NA,NA,NA,NA,NA,NA,NA,NA,NA,NA,NA,NA,NA,NA,NA,NA,NA,NA
Inf,"""Richtig""-Screen",canvas.Screen,3_0_4_0_0_0_1,NA,NA,skipped,NA,676560,NA,NA,676557,676560,2023-08-06T10:09:29Z,676559.76,NULL,Wohlstand,mafanikio,d,NA,NA,NA,NA,sd,NA,4,NA,NA,NA,NA,NA,NA,NA,NA,NA,NA,NA,NA,NA,NA,NA,NA,NA,NA,NA
Inf,"""Falsch""-Screen",canvas.Screen,3_0_4_0_0_0_2,NA,NA,timeout,4999.34,676563,676556.08,676559.76,681542.42,681547,2023-08-06T10:09:34Z,681559.1,NULL,Wohlstand,mafanikio,d,NA,NA,NA,NA,sd,0,4,NA,NA,NA,NA,NA,NA,NA,NA,NA,NA,NA,NA,NA,NA,NA,NA,NA,NA,NA
Inf,deep,flow.Sequence,3_0_4_0_0_0,NA,NA,completion,18940.68,662601,662601.36,662601.74,681542.42,681548,2023-08-06T10:09:34Z,681559.1,NULL,Wohlstand,mafanikio,d,NA,NA,NA,NA,sd,NA,4,NA,NA,NA,NA,NA,NA,NA,NA,NA,NA,NA,NA,NA,NA,NA,NA,NA,NA,NA
Inf,shallow,flow.Sequence,3_0_4_0_0_1,NA,NA,skipped,NA,681548,NA,NA,681542.42,681549,2023-08-06T10:09:34Z,681559.1,NULL,Wohlstand,mafanikio,d,NA,NA,NA,NA,sd,NA,4,NA,NA,NA,NA,NA,NA,NA,NA,NA,NA,NA,NA,NA,NA,NA,NA,NA,NA,NA
Inf,task,flow.Sequence,3_0_4_0_0,NA,NA,completion,18940.68,662601,662601.36,662601.74,681542.42,681549,2023-08-06T10:09:34Z,681559.1,NULL,Wohlstand,mafanikio,d,NA,NA,NA,NA,sd,NA,4,NA,NA,NA,NA,NA,NA,NA,NA,NA,NA,NA,NA,NA,NA,NA,NA,NA,NA,NA
Inf,deep,flow.Sequence,3_0_4_0_1_0,NA,NA,skipped,NA,681550,NA,NA,681542.42,681550,2023-08-06T10:09:34Z,681559.1,NULL,Ausschluss,kutengwa,s,ununuzi,taratibu,madeni,NA,sd,NA,4,NA,NA,NA,NA,NA,NA,NA,NA,NA,NA,NA,NA,NA,NA,NA,NA,NA,NA,NA
Inf,Shallow Question,html.Page,3_0_4_0_1_1_0,NA,NA,form submission,6570.9,681551,681542.42,681559.1,688130,688131,2023-08-06T10:09:41Z,688141.46,NULL,Ausschluss,kutengwa,s,ununuzi,taratibu,madeni,kutengwa,NA,NA,4,NA,NA,NA,NA,NA,NA,NA,NA,NA,NA,NA,NA,NA,NA,NA,NA,NA,NA,NA
Inf,"""Richtig""-Screen",canvas.Screen,3_0_4_0_1_1_1,NA,NA,timeout,4999.42,688143,688120.78,688141.46,693124.22,693126,2023-08-06T10:09:46Z,693140.88,NULL,Ausschluss,kutengwa,s,ununuzi,taratibu,madeni,NA,sd,1,4,NA,NA,NA,NA,NA,NA,NA,NA,NA,NA,NA,NA,NA,NA,NA,NA,NA,NA,NA
Inf,"""Falsch""-Screen",canvas.Screen,3_0_4_0_1_1_2,NA,NA,skipped,NA,693133,NA,NA,693124.22,693134,2023-08-06T10:09:46Z,693140.88,NULL,Ausschluss,kutengwa,s,ununuzi,taratibu,madeni,NA,sd,NA,4,NA,NA,NA,NA,NA,NA,NA,NA,NA,NA,NA,NA,NA,NA,NA,NA,NA,NA,NA
Inf,shallow,flow.Sequence,3_0_4_0_1_1,NA,NA,completion,11565.12,681551,681542.42,681559.1,693124.22,693134,2023-08-06T10:09:46Z,693140.88,NULL,Ausschluss,kutengwa,s,ununuzi,taratibu,madeni,NA,sd,NA,4,NA,NA,NA,NA,NA,NA,NA,NA,NA,NA,NA,NA,NA,NA,NA,NA,NA,NA,NA
Inf,task,flow.Sequence,3_0_4_0_1,NA,NA,completion,11565.12,681550,681542.42,681559.1,693124.22,693134,2023-08-06T10:09:46Z,693140.88,NULL,Ausschluss,kutengwa,s,ununuzi,taratibu,madeni,NA,sd,NA,4,NA,NA,NA,NA,NA,NA,NA,NA,NA,NA,NA,NA,NA,NA,NA,NA,NA,NA,NA
Inf,deep,flow.Sequence,3_0_4_0_2_0,NA,NA,skipped,NA,693135,NA,NA,693124.22,693135,2023-08-06T10:09:46Z,693140.88,NULL,Gelegenheit,wakati,s,mchanganyiko,kipaumbele,kushuku,NA,sd,NA,4,NA,NA,NA,NA,NA,NA,NA,NA,NA,NA,NA,NA,NA,NA,NA,NA,NA,NA,NA
Inf,Shallow Question,html.Page,3_0_4_0_2_1_0,NA,NA,form submission,5922.12,693137,693124.22,693140.88,699063,699063,2023-08-06T10:09:52Z,699073.46,NULL,Gelegenheit,wakati,s,mchanganyiko,kipaumbele,kushuku,wakati,NA,NA,4,NA,NA,NA,NA,NA,NA,NA,NA,NA,NA,NA,NA,NA,NA,NA,NA,NA,NA,NA
Inf,"""Richtig""-Screen",canvas.Screen,3_0_4_0_2_1_1,NA,NA,timeout,4999.38,699065,699061.8,699073.46,704056.18,704058,2023-08-06T10:09:57Z,704072.84,NULL,Gelegenheit,wakati,s,mchanganyiko,kipaumbele,kushuku,NA,sd,1,4,NA,NA,NA,NA,NA,NA,NA,NA,NA,NA,NA,NA,NA,NA,NA,NA,NA,NA,NA
Inf,"""Falsch""-Screen",canvas.Screen,3_0_4_0_2_1_2,NA,NA,skipped,NA,704065,NA,NA,704056.18,704065,2023-08-06T10:09:57Z,704072.84,NULL,Gelegenheit,wakati,s,mchanganyiko,kipaumbele,kushuku,NA,sd,NA,4,NA,NA,NA,NA,NA,NA,NA,NA,NA,NA,NA,NA,NA,NA,NA,NA,NA,NA,NA
Inf,shallow,flow.Sequence,3_0_4_0_2_1,NA,NA,completion,10915.3,693136,693124.22,693140.88,704056.18,704066,2023-08-06T10:09:57Z,704072.84,NULL,Gelegenheit,wakati,s,mchanganyiko,kipaumbele,kushuku,NA,sd,NA,4,NA,NA,NA,NA,NA,NA,NA,NA,NA,NA,NA,NA,NA,NA,NA,NA,NA,NA,NA
Inf,task,flow.Sequence,3_0_4_0_2,NA,NA,completion,10915.3,693134,693124.22,693140.88,704056.18,704067,2023-08-06T10:09:57Z,704072.84,NULL,Gelegenheit,wakati,s,mchanganyiko,kipaumbele,kushuku,NA,sd,NA,4,NA,NA,NA,NA,NA,NA,NA,NA,NA,NA,NA,NA,NA,NA,NA,NA,NA,NA,NA
Inf,Deep Question,html.Page,3_0_4_0_3_0_0,NA,NA,form submission,9263.16,704068,704056.18,704072.84,713336,713337,2023-08-06T10:10:06Z,713338.2,NULL,Widerstand,usulubu,d,NA,NA,NA,mafanikio,NA,NA,4,NA,NA,NA,NA,NA,NA,NA,NA,NA,NA,NA,NA,NA,NA,NA,NA,NA,NA,NA
Inf,"""Richtig""-Screen",canvas.Screen,3_0_4_0_3_0_1,NA,NA,skipped,NA,713340,NA,NA,713336,713340,2023-08-06T10:10:06Z,713338.2,NULL,Widerstand,usulubu,d,NA,NA,NA,NA,sd,NA,4,NA,NA,NA,NA,NA,NA,NA,NA,NA,NA,NA,NA,NA,NA,NA,NA,NA,NA,NA
Inf,"""Falsch""-Screen",canvas.Screen,3_0_4_0_3_0_2,NA,NA,timeout,4999.4600000001,713343,713334.48,713338.2,718321.02,718323,2023-08-06T10:10:11Z,718337.66,NULL,Widerstand,usulubu,d,NA,NA,NA,NA,sd,0,4,NA,NA,NA,NA,NA,NA,NA,NA,NA,NA,NA,NA,NA,NA,NA,NA,NA,NA,NA
Inf,deep,flow.Sequence,3_0_4_0_3_0,NA,NA,completion,14248.18,704068,704056.18,704072.84,718321.02,718323,2023-08-06T10:10:11Z,718337.66,NULL,Widerstand,usulubu,d,NA,NA,NA,NA,sd,NA,4,NA,NA,NA,NA,NA,NA,NA,NA,NA,NA,NA,NA,NA,NA,NA,NA,NA,NA,NA
Inf,shallow,flow.Sequence,3_0_4_0_3_1,NA,NA,skipped,NA,718323,NA,NA,718321.02,718323,2023-08-06T10:10:11Z,718337.66,NULL,Widerstand,usulubu,d,NA,NA,NA,NA,sd,NA,4,NA,NA,NA,NA,NA,NA,NA,NA,NA,NA,NA,NA,NA,NA,NA,NA,NA,NA,NA
Inf,task,flow.Sequence,3_0_4_0_3,NA,NA,completion,14248.18,704067,704056.18,704072.84,718321.02,718324,2023-08-06T10:10:11Z,718337.66,NULL,Widerstand,usulubu,d,NA,NA,NA,NA,sd,NA,4,NA,NA,NA,NA,NA,NA,NA,NA,NA,NA,NA,NA,NA,NA,NA,NA,NA,NA,NA
Inf,Deep Question,html.Page,3_0_4_0_4_0_0,NA,NA,form submission,5954.34,718325,718321.02,718337.66,724292,724292,2023-08-06T10:10:17Z,724303.5,NULL,Ergänzung,kijalizo,d,NA,NA,NA,k¨,NA,NA,4,NA,NA,NA,NA,NA,NA,NA,NA,NA,NA,NA,NA,NA,NA,NA,NA,NA,NA,NA
Inf,"""Richtig""-Screen",canvas.Screen,3_0_4_0_4_0_1,NA,NA,skipped,NA,724295,NA,NA,724292,724296,2023-08-06T10:10:17Z,724303.5,NULL,Ergänzung,kijalizo,d,NA,NA,NA,NA,sd,NA,4,NA,NA,NA,NA,NA,NA,NA,NA,NA,NA,NA,NA,NA,NA,NA,NA,NA,NA,NA
Inf,"""Falsch""-Screen",canvas.Screen,3_0_4_0_4_0_2,NA,NA,timeout,4999.36,724299,724290.88,724303.5,729286.2,729288,2023-08-06T10:10:22Z,729302.86,NULL,Ergänzung,kijalizo,d,NA,NA,NA,NA,sd,0,4,NA,NA,NA,NA,NA,NA,NA,NA,NA,NA,NA,NA,NA,NA,NA,NA,NA,NA,NA
Inf,deep,flow.Sequence,3_0_4_0_4_0,NA,NA,completion,10948.54,718324,718321.02,718337.66,729286.2,729288,2023-08-06T10:10:22Z,729302.86,NULL,Ergänzung,kijalizo,d,NA,NA,NA,NA,sd,NA,4,NA,NA,NA,NA,NA,NA,NA,NA,NA,NA,NA,NA,NA,NA,NA,NA,NA,NA,NA
Inf,shallow,flow.Sequence,3_0_4_0_4_1,NA,NA,skipped,NA,729289,NA,NA,729286.2,729289,2023-08-06T10:10:22Z,729302.86,NULL,Ergänzung,kijalizo,d,NA,NA,NA,NA,sd,NA,4,NA,NA,NA,NA,NA,NA,NA,NA,NA,NA,NA,NA,NA,NA,NA,NA,NA,NA,NA
Inf,task,flow.Sequence,3_0_4_0_4,NA,NA,completion,10948.54,718324,718321.02,718337.66,729286.2,729289,2023-08-06T10:10:22Z,729302.86,NULL,Ergänzung,kijalizo,d,NA,NA,NA,NA,sd,NA,4,NA,NA,NA,NA,NA,NA,NA,NA,NA,NA,NA,NA,NA,NA,NA,NA,NA,NA,NA
Inf,deep,flow.Sequence,3_0_4_0_5_0,NA,NA,skipped,NA,729289,NA,NA,729286.2,729290,2023-08-06T10:10:22Z,729302.86,NULL,Vergnügen,kichekesho,s,dubwana,mpanuko,mtesaji,NA,sd,NA,4,NA,NA,NA,NA,NA,NA,NA,NA,NA,NA,NA,NA,NA,NA,NA,NA,NA,NA,NA
Inf,Shallow Question,html.Page,3_0_4_0_5_1_0,NA,NA,form submission,4393.14,729290,729286.2,729302.86,733696,733696,2023-08-06T10:10:26Z,733702.3,NULL,Vergnügen,kichekesho,s,dubwana,mpanuko,mtesaji,kichekesho,NA,NA,4,NA,NA,NA,NA,NA,NA,NA,NA,NA,NA,NA,NA,NA,NA,NA,NA,NA,NA,NA
Inf,"""Richtig""-Screen",canvas.Screen,3_0_4_0_5_1_1,NA,NA,timeout,4999.36,733698,733693.7,733702.3,738685.04,738688,2023-08-06T10:10:31Z,738701.66,NULL,Vergnügen,kichekesho,s,dubwana,mpanuko,mtesaji,NA,sd,1,4,NA,NA,NA,NA,NA,NA,NA,NA,NA,NA,NA,NA,NA,NA,NA,NA,NA,NA,NA
Inf,"""Falsch""-Screen",canvas.Screen,3_0_4_0_5_1_2,NA,NA,skipped,NA,738697,NA,NA,738685.04,738697,2023-08-06T10:10:31Z,738701.66,NULL,Vergnügen,kichekesho,s,dubwana,mpanuko,mtesaji,NA,sd,NA,4,NA,NA,NA,NA,NA,NA,NA,NA,NA,NA,NA,NA,NA,NA,NA,NA,NA,NA,NA
Inf,shallow,flow.Sequence,3_0_4_0_5_1,NA,NA,completion,9382.1800000001,729290,729286.2,729302.86,738685.04,738698,2023-08-06T10:10:31Z,738701.66,NULL,Vergnügen,kichekesho,s,dubwana,mpanuko,mtesaji,NA,sd,NA,4,NA,NA,NA,NA,NA,NA,NA,NA,NA,NA,NA,NA,NA,NA,NA,NA,NA,NA,NA
Inf,task,flow.Sequence,3_0_4_0_5,NA,NA,completion,9382.1800000001,729289,729286.2,729302.86,738685.04,738698,2023-08-06T10:10:31Z,738701.66,NULL,Vergnügen,kichekesho,s,dubwana,mpanuko,mtesaji,NA,sd,NA,4,NA,NA,NA,NA,NA,NA,NA,NA,NA,NA,NA,NA,NA,NA,NA,NA,NA,NA,NA
Inf,Deep Question,html.Page,3_0_4_0_6_0_0,NA,NA,form submission,6009.34,738699,738685.04,738701.66,744711,744711,2023-08-06T10:10:37Z,744717.54,NULL,Verstand,ufahamivu,d,NA,NA,NA,k,NA,NA,4,NA,NA,NA,NA,NA,NA,NA,NA,NA,NA,NA,NA,NA,NA,NA,NA,NA,NA,NA
Inf,"""Richtig""-Screen",canvas.Screen,3_0_4_0_6_0_1,NA,NA,skipped,NA,744714,NA,NA,744711,744715,2023-08-06T10:10:37Z,744717.54,NULL,Verstand,ufahamivu,d,NA,NA,NA,NA,sd,NA,4,NA,NA,NA,NA,NA,NA,NA,NA,NA,NA,NA,NA,NA,NA,NA,NA,NA,NA,NA
Inf,"""Falsch""-Screen",canvas.Screen,3_0_4_0_6_0_2,NA,NA,timeout,4999.3199999999,744718,744709.46,744717.54,749700.2,749702,2023-08-06T10:10:42Z,749716.86,NULL,Verstand,ufahamivu,d,NA,NA,NA,NA,sd,0,4,NA,NA,NA,NA,NA,NA,NA,NA,NA,NA,NA,NA,NA,NA,NA,NA,NA,NA,NA
Inf,deep,flow.Sequence,3_0_4_0_6_0,NA,NA,completion,10998.54,738699,738685.04,738701.66,749700.2,749703,2023-08-06T10:10:42Z,749716.86,NULL,Verstand,ufahamivu,d,NA,NA,NA,NA,sd,NA,4,NA,NA,NA,NA,NA,NA,NA,NA,NA,NA,NA,NA,NA,NA,NA,NA,NA,NA,NA
Inf,shallow,flow.Sequence,3_0_4_0_6_1,NA,NA,skipped,NA,749703,NA,NA,749700.2,749704,2023-08-06T10:10:42Z,749716.86,NULL,Verstand,ufahamivu,d,NA,NA,NA,NA,sd,NA,4,NA,NA,NA,NA,NA,NA,NA,NA,NA,NA,NA,NA,NA,NA,NA,NA,NA,NA,NA
Inf,task,flow.Sequence,3_0_4_0_6,NA,NA,completion,10998.54,738699,738685.04,738701.66,749700.2,749705,2023-08-06T10:10:42Z,749716.86,NULL,Verstand,ufahamivu,d,NA,NA,NA,NA,sd,NA,4,NA,NA,NA,NA,NA,NA,NA,NA,NA,NA,NA,NA,NA,NA,NA,NA,NA,NA,NA
Inf,deep,flow.Sequence,3_0_4_0_7_0,NA,NA,skipped,NA,749705,NA,NA,749700.2,749706,2023-08-06T10:10:42Z,749716.86,NULL,Notfall,dharura,s,rairai,malalamiko,ahueni,NA,sd,NA,4,NA,NA,NA,NA,NA,NA,NA,NA,NA,NA,NA,NA,NA,NA,NA,NA,NA,NA,NA
Inf,Shallow Question,html.Page,3_0_4_0_7_1_0,NA,NA,form submission,6041.14,749707,749700.2,749716.86,755758,755758,2023-08-06T10:10:48Z,755766.12,NULL,Notfall,dharura,s,rairai,malalamiko,ahueni,dharura,NA,NA,4,NA,NA,NA,NA,NA,NA,NA,NA,NA,NA,NA,NA,NA,NA,NA,NA,NA,NA,NA
Inf,"""Richtig""-Screen",canvas.Screen,3_0_4_0_7_1_1,NA,NA,timeout,4999.3199999999,755760,755754.94,755766.12,760748.82,760751,2023-08-06T10:10:53Z,760765.44,NULL,Notfall,dharura,s,rairai,malalamiko,ahueni,NA,sd,1,4,NA,NA,NA,NA,NA,NA,NA,NA,NA,NA,NA,NA,NA,NA,NA,NA,NA,NA,NA
Inf,"""Falsch""-Screen",canvas.Screen,3_0_4_0_7_1_2,NA,NA,skipped,NA,760758,NA,NA,760748.82,760758,2023-08-06T10:10:53Z,760765.44,NULL,Notfall,dharura,s,rairai,malalamiko,ahueni,NA,sd,NA,4,NA,NA,NA,NA,NA,NA,NA,NA,NA,NA,NA,NA,NA,NA,NA,NA,NA,NA,NA
Inf,shallow,flow.Sequence,3_0_4_0_7_1,NA,NA,completion,11031.96,749706,749700.2,749716.86,760748.82,760758,2023-08-06T10:10:53Z,760765.44,NULL,Notfall,dharura,s,rairai,malalamiko,ahueni,NA,sd,NA,4,NA,NA,NA,NA,NA,NA,NA,NA,NA,NA,NA,NA,NA,NA,NA,NA,NA,NA,NA
Inf,task,flow.Sequence,3_0_4_0_7,NA,NA,completion,11031.96,749705,749700.2,749716.86,760748.82,760758,2023-08-06T10:10:53Z,760765.44,NULL,Notfall,dharura,s,rairai,malalamiko,ahueni,NA,sd,NA,4,NA,NA,NA,NA,NA,NA,NA,NA,NA,NA,NA,NA,NA,NA,NA,NA,NA,NA,NA
Inf,block,flow.Loop,3_0_4_0,NA,NA,completion,98147.08,662601,662601.36,662601.74,760748.82,760759,2023-08-06T10:10:53Z,760765.44,NULL,NA,NA,NA,NA,NA,NA,NA,sd,NA,4,NA,NA,NA,NA,NA,NA,NA,NA,NA,NA,NA,NA,NA,NA,NA,NA,NA,NA,NA
Inf,weiter,canvas.Screen,3_0_4_1,sdf,keypress(Space),response,1020.5600000001,760759,760748.82,760765.44,761786,761790,2023-08-06T10:10:54Z,761839.32,NULL,NA,NA,NA,NA,NA,NA,NA,sd,NA,4,NA,NA,NA,NA,NA,NA,NA,NA,NA,NA,NA,NA,NA,NA,NA,NA,NA,NA,NA
Inf,check continue,flow.Sequence,3_0_4,NA,NA,completion,99184.26,662601,662601.36,662601.74,761786,761791,2023-08-06T10:10:54Z,761839.32,NULL,NA,NA,NA,NA,NA,NA,NA,sd,NA,4,NA,NA,NA,NA,NA,NA,NA,NA,NA,NA,NA,NA,NA,NA,NA,NA,NA,NA,NA
Inf,Deep Question,html.Page,3_0_5_0_0_0_0,NA,NA,form submission,10745.68,761839,761838.94,761839.32,772585,772586,2023-08-06T10:11:05Z,772584.46,NULL,Wohlstand,mafanikio,d,NA,NA,NA,mafanikio,NA,NA,5,NA,NA,NA,NA,NA,NA,NA,NA,NA,NA,NA,NA,NA,NA,NA,NA,NA,NA,NA
Inf,"""Richtig""-Screen",canvas.Screen,3_0_5_0_0_0_1,NA,NA,timeout,4995.48,772588,772584.18,772584.46,777563.28,777565,2023-08-06T10:11:10Z,777579.94,NULL,Wohlstand,mafanikio,d,NA,NA,NA,NA,sdf,1,5,NA,NA,NA,NA,NA,NA,NA,NA,NA,NA,NA,NA,NA,NA,NA,NA,NA,NA,NA
Inf,"""Falsch""-Screen",canvas.Screen,3_0_5_0_0_0_2,NA,NA,skipped,NA,777572,NA,NA,777563.28,777572,2023-08-06T10:11:10Z,777579.94,NULL,Wohlstand,mafanikio,d,NA,NA,NA,NA,sdf,NA,5,NA,NA,NA,NA,NA,NA,NA,NA,NA,NA,NA,NA,NA,NA,NA,NA,NA,NA,NA
Inf,deep,flow.Sequence,3_0_5_0_0_0,NA,NA,completion,15723.96,761839,761838.94,761839.32,777563.28,777573,2023-08-06T10:11:10Z,777579.94,NULL,Wohlstand,mafanikio,d,NA,NA,NA,NA,sdf,NA,5,NA,NA,NA,NA,NA,NA,NA,NA,NA,NA,NA,NA,NA,NA,NA,NA,NA,NA,NA
Inf,shallow,flow.Sequence,3_0_5_0_0_1,NA,NA,skipped,NA,777573,NA,NA,777563.28,777573,2023-08-06T10:11:10Z,777579.94,NULL,Wohlstand,mafanikio,d,NA,NA,NA,NA,sdf,NA,5,NA,NA,NA,NA,NA,NA,NA,NA,NA,NA,NA,NA,NA,NA,NA,NA,NA,NA,NA
Inf,task,flow.Sequence,3_0_5_0_0,NA,NA,completion,15723.96,761839,761838.94,761839.32,777563.28,777574,2023-08-06T10:11:10Z,777579.94,NULL,Wohlstand,mafanikio,d,NA,NA,NA,NA,sdf,NA,5,NA,NA,NA,NA,NA,NA,NA,NA,NA,NA,NA,NA,NA,NA,NA,NA,NA,NA,NA
Inf,Deep Question,html.Page,3_0_5_0_1_0_0,NA,NA,form submission,17743.06,777574,777563.28,777579.94,795323,795324,2023-08-06T10:11:28Z,795327.66,NULL,Ergänzung,kijalizo,d,NA,NA,NA,usulubu,NA,NA,5,NA,NA,NA,NA,NA,NA,NA,NA,NA,NA,NA,NA,NA,NA,NA,NA,NA,NA,NA
Inf,"""Richtig""-Screen",canvas.Screen,3_0_5_0_1_0_1,NA,NA,skipped,NA,795326,NA,NA,795323,795327,2023-08-06T10:11:28Z,795327.66,NULL,Ergänzung,kijalizo,d,NA,NA,NA,NA,sdf,NA,5,NA,NA,NA,NA,NA,NA,NA,NA,NA,NA,NA,NA,NA,NA,NA,NA,NA,NA,NA
Inf,"""Falsch""-Screen",canvas.Screen,3_0_5_0_1_0_2,NA,NA,timeout,4999.2999999999,795330,795322.84,795327.66,800310.3,800311,2023-08-06T10:11:33Z,800326.96,NULL,Ergänzung,kijalizo,d,NA,NA,NA,NA,sdf,0,5,NA,NA,NA,NA,NA,NA,NA,NA,NA,NA,NA,NA,NA,NA,NA,NA,NA,NA,NA
Inf,deep,flow.Sequence,3_0_5_0_1_0,NA,NA,completion,22730.36,777574,777563.28,777579.94,800310.3,800312,2023-08-06T10:11:33Z,800326.96,NULL,Ergänzung,kijalizo,d,NA,NA,NA,NA,sdf,NA,5,NA,NA,NA,NA,NA,NA,NA,NA,NA,NA,NA,NA,NA,NA,NA,NA,NA,NA,NA
Inf,shallow,flow.Sequence,3_0_5_0_1_1,NA,NA,skipped,NA,800312,NA,NA,800310.3,800312,2023-08-06T10:11:33Z,800326.96,NULL,Ergänzung,kijalizo,d,NA,NA,NA,NA,sdf,NA,5,NA,NA,NA,NA,NA,NA,NA,NA,NA,NA,NA,NA,NA,NA,NA,NA,NA,NA,NA
Inf,task,flow.Sequence,3_0_5_0_1,NA,NA,completion,22730.36,777574,777563.28,777579.94,800310.3,800312,2023-08-06T10:11:33Z,800326.96,NULL,Ergänzung,kijalizo,d,NA,NA,NA,NA,sdf,NA,5,NA,NA,NA,NA,NA,NA,NA,NA,NA,NA,NA,NA,NA,NA,NA,NA,NA,NA,NA
Inf,Deep Question,html.Page,3_0_5_0_2_0_0,NA,NA,form submission,18285.04,800313,800310.3,800326.96,818612,818612,2023-08-06T10:11:51Z,818610.98,NULL,Verstand,ufahamivu,d,NA,NA,NA,usulubu,NA,NA,5,NA,NA,NA,NA,NA,NA,NA,NA,NA,NA,NA,NA,NA,NA,NA,NA,NA,NA,NA
Inf,"""Richtig""-Screen",canvas.Screen,3_0_5_0_2_0_1,NA,NA,skipped,NA,818615,NA,NA,818612,818615,2023-08-06T10:11:51Z,818610.98,NULL,Verstand,ufahamivu,d,NA,NA,NA,NA,sdf,NA,5,NA,NA,NA,NA,NA,NA,NA,NA,NA,NA,NA,NA,NA,NA,NA,NA,NA,NA,NA
Inf,"""Falsch""-Screen",canvas.Screen,3_0_5_0_2_0_2,NA,NA,timeout,4996.3200000001,818617,818610.6,818610.98,823590.62,823592,2023-08-06T10:11:56Z,823607.3,NULL,Verstand,ufahamivu,d,NA,NA,NA,NA,sdf,0,5,NA,NA,NA,NA,NA,NA,NA,NA,NA,NA,NA,NA,NA,NA,NA,NA,NA,NA,NA
Inf,deep,flow.Sequence,3_0_5_0_2_0,NA,NA,completion,23263.66,800313,800310.3,800326.96,823590.62,823593,2023-08-06T10:11:56Z,823607.3,NULL,Verstand,ufahamivu,d,NA,NA,NA,NA,sdf,NA,5,NA,NA,NA,NA,NA,NA,NA,NA,NA,NA,NA,NA,NA,NA,NA,NA,NA,NA,NA
Inf,shallow,flow.Sequence,3_0_5_0_2_1,NA,NA,skipped,NA,823593,NA,NA,823590.62,823593,2023-08-06T10:11:56Z,823607.3,NULL,Verstand,ufahamivu,d,NA,NA,NA,NA,sdf,NA,5,NA,NA,NA,NA,NA,NA,NA,NA,NA,NA,NA,NA,NA,NA,NA,NA,NA,NA,NA
Inf,task,flow.Sequence,3_0_5_0_2,NA,NA,completion,23263.66,800312,800310.3,800326.96,823590.62,823594,2023-08-06T10:11:56Z,823607.3,NULL,Verstand,ufahamivu,d,NA,NA,NA,NA,sdf,NA,5,NA,NA,NA,NA,NA,NA,NA,NA,NA,NA,NA,NA,NA,NA,NA,NA,NA,NA,NA
Inf,deep,flow.Sequence,3_0_5_0_3_0,NA,NA,skipped,NA,823594,NA,NA,823590.62,823594,2023-08-06T10:11:56Z,823607.3,NULL,Vergnügen,kichekesho,s,dubwana,mpanuko,mtesaji,NA,sdf,NA,5,NA,NA,NA,NA,NA,NA,NA,NA,NA,NA,NA,NA,NA,NA,NA,NA,NA,NA,NA
Inf,Shallow Question,html.Page,3_0_5_0_3_1_0,NA,NA,form submission,6304.7,823594,823590.62,823607.3,829912,829913,2023-08-06T10:12:02Z,829923.12,NULL,Vergnügen,kichekesho,s,dubwana,mpanuko,mtesaji,kichekesho,NA,NA,5,NA,NA,NA,NA,NA,NA,NA,NA,NA,NA,NA,NA,NA,NA,NA,NA,NA,NA,NA
Inf,"""Richtig""-Screen",canvas.Screen,3_0_5_0_3_1_1,NA,NA,timeout,4999.34,829915,829909.22,829923.12,834905.78,834907,2023-08-06T10:12:07Z,834922.46,NULL,Vergnügen,kichekesho,s,dubwana,mpanuko,mtesaji,NA,sdf,1,5,NA,NA,NA,NA,NA,NA,NA,NA,NA,NA,NA,NA,NA,NA,NA,NA,NA,NA,NA
Inf,"""Falsch""-Screen",canvas.Screen,3_0_5_0_3_1_2,NA,NA,skipped,NA,834913,NA,NA,834905.78,834914,2023-08-06T10:12:07Z,834922.46,NULL,Vergnügen,kichekesho,s,dubwana,mpanuko,mtesaji,NA,sdf,NA,5,NA,NA,NA,NA,NA,NA,NA,NA,NA,NA,NA,NA,NA,NA,NA,NA,NA,NA,NA
Inf,shallow,flow.Sequence,3_0_5_0_3_1,NA,NA,completion,11298.48,823594,823590.62,823607.3,834905.78,834915,2023-08-06T10:12:07Z,834922.46,NULL,Vergnügen,kichekesho,s,dubwana,mpanuko,mtesaji,NA,sdf,NA,5,NA,NA,NA,NA,NA,NA,NA,NA,NA,NA,NA,NA,NA,NA,NA,NA,NA,NA,NA
Inf,task,flow.Sequence,3_0_5_0_3,NA,NA,completion,11298.48,823594,823590.62,823607.3,834905.78,834915,2023-08-06T10:12:07Z,834922.46,NULL,Vergnügen,kichekesho,s,dubwana,mpanuko,mtesaji,NA,sdf,NA,5,NA,NA,NA,NA,NA,NA,NA,NA,NA,NA,NA,NA,NA,NA,NA,NA,NA,NA,NA
Inf,Deep Question,html.Page,3_0_5_0_4_0_0,NA,NA,form submission,21525.54,834915,834905.78,834922.46,856448,856448,2023-08-06T10:12:29Z,856453,NULL,Widerstand,usulubu,d,NA,NA,NA,usulibu,NA,NA,5,NA,NA,NA,NA,NA,NA,NA,NA,NA,NA,NA,NA,NA,NA,NA,NA,NA,NA,NA
Inf,"""Richtig""-Screen",canvas.Screen,3_0_5_0_4_0_1,NA,NA,skipped,NA,856451,NA,NA,856448,856451,2023-08-06T10:12:29Z,856453,NULL,Widerstand,usulubu,d,NA,NA,NA,NA,sdf,NA,5,NA,NA,NA,NA,NA,NA,NA,NA,NA,NA,NA,NA,NA,NA,NA,NA,NA,NA,NA
Inf,"""Falsch""-Screen",canvas.Screen,3_0_5_0_4_0_2,NA,NA,timeout,4999.38,856454,856447.08,856453,861435.72,861438,2023-08-06T10:12:34Z,861452.38,NULL,Widerstand,usulubu,d,NA,NA,NA,NA,sdf,0,5,NA,NA,NA,NA,NA,NA,NA,NA,NA,NA,NA,NA,NA,NA,NA,NA,NA,NA,NA
Inf,deep,flow.Sequence,3_0_5_0_4_0,NA,NA,completion,26513.26,834915,834905.78,834922.46,861435.72,861440,2023-08-06T10:12:34Z,861452.38,NULL,Widerstand,usulubu,d,NA,NA,NA,NA,sdf,NA,5,NA,NA,NA,NA,NA,NA,NA,NA,NA,NA,NA,NA,NA,NA,NA,NA,NA,NA,NA
Inf,shallow,flow.Sequence,3_0_5_0_4_1,NA,NA,skipped,NA,861441,NA,NA,861435.72,861442,2023-08-06T10:12:34Z,861452.38,NULL,Widerstand,usulubu,d,NA,NA,NA,NA,sdf,NA,5,NA,NA,NA,NA,NA,NA,NA,NA,NA,NA,NA,NA,NA,NA,NA,NA,NA,NA,NA
Inf,task,flow.Sequence,3_0_5_0_4,NA,NA,completion,26513.26,834915,834905.78,834922.46,861435.72,861444,2023-08-06T10:12:34Z,861452.38,NULL,Widerstand,usulubu,d,NA,NA,NA,NA,sdf,NA,5,NA,NA,NA,NA,NA,NA,NA,NA,NA,NA,NA,NA,NA,NA,NA,NA,NA,NA,NA
Inf,deep,flow.Sequence,3_0_5_0_5_0,NA,NA,skipped,NA,861444,NA,NA,861435.72,861445,2023-08-06T10:12:34Z,861452.38,NULL,Gelegenheit,wakati,s,mchanganyiko,kipaumbele,kushuku,NA,sdf,NA,5,NA,NA,NA,NA,NA,NA,NA,NA,NA,NA,NA,NA,NA,NA,NA,NA,NA,NA,NA
Inf,Shallow Question,html.Page,3_0_5_0_5_1_0,NA,NA,form submission,7498.62,861445,861435.72,861452.38,868951,868952,2023-08-06T10:12:41Z,868951.3,NULL,Gelegenheit,wakati,s,mchanganyiko,kipaumbele,kushuku,wakati,NA,NA,5,NA,NA,NA,NA,NA,NA,NA,NA,NA,NA,NA,NA,NA,NA,NA,NA,NA,NA,NA
Inf,"""Richtig""-Screen",canvas.Screen,3_0_5_0_5_1_1,NA,NA,timeout,4999.4399999999,868955,868948.9,868951.3,873934.06,873936,2023-08-06T10:12:46Z,873950.74,NULL,Gelegenheit,wakati,s,mchanganyiko,kipaumbele,kushuku,NA,sdf,1,5,NA,NA,NA,NA,NA,NA,NA,NA,NA,NA,NA,NA,NA,NA,NA,NA,NA,NA,NA
Inf,"""Falsch""-Screen",canvas.Screen,3_0_5_0_5_1_2,NA,NA,skipped,NA,873942,NA,NA,873934.06,873942,2023-08-06T10:12:46Z,873950.74,NULL,Gelegenheit,wakati,s,mchanganyiko,kipaumbele,kushuku,NA,sdf,NA,5,NA,NA,NA,NA,NA,NA,NA,NA,NA,NA,NA,NA,NA,NA,NA,NA,NA,NA,NA
Inf,shallow,flow.Sequence,3_0_5_0_5_1,NA,NA,completion,12481.68,861445,861435.72,861452.38,873934.06,873943,2023-08-06T10:12:46Z,873950.74,NULL,Gelegenheit,wakati,s,mchanganyiko,kipaumbele,kushuku,NA,sdf,NA,5,NA,NA,NA,NA,NA,NA,NA,NA,NA,NA,NA,NA,NA,NA,NA,NA,NA,NA,NA
Inf,task,flow.Sequence,3_0_5_0_5,NA,NA,completion,12481.68,861444,861435.72,861452.38,873934.06,873944,2023-08-06T10:12:46Z,873950.74,NULL,Gelegenheit,wakati,s,mchanganyiko,kipaumbele,kushuku,NA,sdf,NA,5,NA,NA,NA,NA,NA,NA,NA,NA,NA,NA,NA,NA,NA,NA,NA,NA,NA,NA,NA
Inf,deep,flow.Sequence,3_0_5_0_6_0,NA,NA,skipped,NA,873944,NA,NA,873934.06,873945,2023-08-06T10:12:46Z,873950.74,NULL,Ausschluss,kutengwa,s,ununuzi,taratibu,madeni,NA,sdf,NA,5,NA,NA,NA,NA,NA,NA,NA,NA,NA,NA,NA,NA,NA,NA,NA,NA,NA,NA,NA
Inf,Shallow Question,html.Page,3_0_5_0_6_1_0,NA,NA,form submission,4783.26,873946,873934.06,873950.74,878734,878735,2023-08-06T10:12:51Z,878733.48,NULL,Ausschluss,kutengwa,s,ununuzi,taratibu,madeni,kutengwa,NA,NA,5,NA,NA,NA,NA,NA,NA,NA,NA,NA,NA,NA,NA,NA,NA,NA,NA,NA,NA,NA
Inf,"""Richtig""-Screen",canvas.Screen,3_0_5_0_6_1_1,NA,NA,timeout,4999.34,878741,878728.32,878733.48,883716.14,883718,2023-08-06T10:12:56Z,883732.82,NULL,Ausschluss,kutengwa,s,ununuzi,taratibu,madeni,NA,sdf,1,5,NA,NA,NA,NA,NA,NA,NA,NA,NA,NA,NA,NA,NA,NA,NA,NA,NA,NA,NA
Inf,"""Falsch""-Screen",canvas.Screen,3_0_5_0_6_1_2,NA,NA,skipped,NA,883724,NA,NA,883716.14,883725,2023-08-06T10:12:56Z,883732.82,NULL,Ausschluss,kutengwa,s,ununuzi,taratibu,madeni,NA,sdf,NA,5,NA,NA,NA,NA,NA,NA,NA,NA,NA,NA,NA,NA,NA,NA,NA,NA,NA,NA,NA
Inf,shallow,flow.Sequence,3_0_5_0_6_1,NA,NA,completion,9765.4,873946,873934.06,873950.74,883716.14,883726,2023-08-06T10:12:56Z,883732.82,NULL,Ausschluss,kutengwa,s,ununuzi,taratibu,madeni,NA,sdf,NA,5,NA,NA,NA,NA,NA,NA,NA,NA,NA,NA,NA,NA,NA,NA,NA,NA,NA,NA,NA
Inf,task,flow.Sequence,3_0_5_0_6,NA,NA,completion,9765.4,873944,873934.06,873950.74,883716.14,883726,2023-08-06T10:12:56Z,883732.82,NULL,Ausschluss,kutengwa,s,ununuzi,taratibu,madeni,NA,sdf,NA,5,NA,NA,NA,NA,NA,NA,NA,NA,NA,NA,NA,NA,NA,NA,NA,NA,NA,NA,NA
Inf,deep,flow.Sequence,3_0_5_0_7_0,NA,NA,skipped,NA,883727,NA,NA,883716.14,883727,2023-08-06T10:12:56Z,883732.82,NULL,Notfall,dharura,s,rairai,malalamiko,ahueni,NA,sdf,NA,5,NA,NA,NA,NA,NA,NA,NA,NA,NA,NA,NA,NA,NA,NA,NA,NA,NA,NA,NA
Inf,Shallow Question,html.Page,3_0_5_0_7_1_0,NA,NA,form submission,2774.1800000001,883728,883716.14,883732.82,886507,886508,2023-08-06T10:12:59Z,886506.02,NULL,Notfall,dharura,s,rairai,malalamiko,ahueni,dharura,NA,NA,5,NA,NA,NA,NA,NA,NA,NA,NA,NA,NA,NA,NA,NA,NA,NA,NA,NA,NA,NA
Inf,"""Richtig""-Screen",canvas.Screen,3_0_5_0_7_1_1,NA,NA,timeout,4992.4199999999,886510,886505.62,886506.02,891481.8,891483,2023-08-06T10:13:04Z,891498.44,NULL,Notfall,dharura,s,rairai,malalamiko,ahueni,NA,sdf,1,5,NA,NA,NA,NA,NA,NA,NA,NA,NA,NA,NA,NA,NA,NA,NA,NA,NA,NA,NA
Inf,"""Falsch""-Screen",canvas.Screen,3_0_5_0_7_1_2,NA,NA,skipped,NA,891491,NA,NA,891481.8,891492,2023-08-06T10:13:04Z,891498.44,NULL,Notfall,dharura,s,rairai,malalamiko,ahueni,NA,sdf,NA,5,NA,NA,NA,NA,NA,NA,NA,NA,NA,NA,NA,NA,NA,NA,NA,NA,NA,NA,NA
Inf,shallow,flow.Sequence,3_0_5_0_7_1,NA,NA,completion,7748.9800000001,883727,883716.14,883732.82,891481.8,891492,2023-08-06T10:13:04Z,891498.44,NULL,Notfall,dharura,s,rairai,malalamiko,ahueni,NA,sdf,NA,5,NA,NA,NA,NA,NA,NA,NA,NA,NA,NA,NA,NA,NA,NA,NA,NA,NA,NA,NA
Inf,task,flow.Sequence,3_0_5_0_7,NA,NA,completion,7748.9800000001,883727,883716.14,883732.82,891481.8,891493,2023-08-06T10:13:04Z,891498.44,NULL,Notfall,dharura,s,rairai,malalamiko,ahueni,NA,sdf,NA,5,NA,NA,NA,NA,NA,NA,NA,NA,NA,NA,NA,NA,NA,NA,NA,NA,NA,NA,NA
Inf,block,flow.Loop,3_0_5_0,NA,NA,completion,129642.48,761839,761838.94,761839.32,891481.8,891493,2023-08-06T10:13:04Z,891498.44,NULL,NA,NA,NA,NA,NA,NA,NA,sdf,NA,5,NA,NA,NA,NA,NA,NA,NA,NA,NA,NA,NA,NA,NA,NA,NA,NA,NA,NA,NA
Inf,weiter,canvas.Screen,3_0_5_1,sdf,keypress(Space),response,1193.5600000001,891493,891481.8,891498.44,892692,892706,2023-08-06T10:13:05Z,892764.84,NULL,NA,NA,NA,NA,NA,NA,NA,sdf,NA,5,NA,NA,NA,NA,NA,NA,NA,NA,NA,NA,NA,NA,NA,NA,NA,NA,NA,NA,NA
Inf,check continue,flow.Sequence,3_0_5,NA,NA,completion,130852.68,761839,761838.94,761839.32,892692,892707,2023-08-06T10:13:05Z,892764.84,NULL,NA,NA,NA,NA,NA,NA,NA,sdf,NA,5,NA,NA,NA,NA,NA,NA,NA,NA,NA,NA,NA,NA,NA,NA,NA,NA,NA,NA,NA
Inf,deep,flow.Sequence,3_0_6_0_0_0,NA,NA,skipped,NA,892764,NA,NA,892692,892764,2023-08-06T10:13:05Z,892764.84,NULL,Notfall,dharura,s,rairai,malalamiko,ahueni,NA,dfs,NA,6,NA,NA,NA,NA,NA,NA,NA,NA,NA,NA,NA,NA,NA,NA,NA,NA,NA,NA,NA
Inf,Shallow Question,html.Page,3_0_6_0_0_1_0,NA,NA,form submission,3085.16,892764,892763.72,892764.84,895850,895851,2023-08-06T10:13:08Z,895849.76,NULL,Notfall,dharura,s,rairai,malalamiko,ahueni,dharura,NA,NA,6,NA,NA,NA,NA,NA,NA,NA,NA,NA,NA,NA,NA,NA,NA,NA,NA,NA,NA,NA
Inf,"""Richtig""-Screen",canvas.Screen,3_0_6_0_0_1_1,NA,NA,timeout,4997.48,895853,895849.34,895849.76,900830.58,900832,2023-08-06T10:13:13Z,900847.24,NULL,Notfall,dharura,s,rairai,malalamiko,ahueni,NA,dfs,1,6,NA,NA,NA,NA,NA,NA,NA,NA,NA,NA,NA,NA,NA,NA,NA,NA,NA,NA,NA
Inf,"""Falsch""-Screen",canvas.Screen,3_0_6_0_0_1_2,NA,NA,skipped,NA,900838,NA,NA,900830.58,900838,2023-08-06T10:13:13Z,900847.24,NULL,Notfall,dharura,s,rairai,malalamiko,ahueni,NA,dfs,NA,6,NA,NA,NA,NA,NA,NA,NA,NA,NA,NA,NA,NA,NA,NA,NA,NA,NA,NA,NA
Inf,shallow,flow.Sequence,3_0_6_0_0_1,NA,NA,completion,8065.74,892764,892763.72,892764.84,900830.58,900839,2023-08-06T10:13:13Z,900847.24,NULL,Notfall,dharura,s,rairai,malalamiko,ahueni,NA,dfs,NA,6,NA,NA,NA,NA,NA,NA,NA,NA,NA,NA,NA,NA,NA,NA,NA,NA,NA,NA,NA
Inf,task,flow.Sequence,3_0_6_0_0,NA,NA,completion,8065.74,892764,892763.72,892764.84,900830.58,900839,2023-08-06T10:13:13Z,900847.24,NULL,Notfall,dharura,s,rairai,malalamiko,ahueni,NA,dfs,NA,6,NA,NA,NA,NA,NA,NA,NA,NA,NA,NA,NA,NA,NA,NA,NA,NA,NA,NA,NA
Inf,Deep Question,html.Page,3_0_6_0_1_0_0,NA,NA,form submission,10829.76,900839,900830.58,900847.24,911677,911678,2023-08-06T10:13:24Z,911679.02,NULL,Wohlstand,mafanikio,d,NA,NA,NA,kutwenga,NA,NA,6,NA,NA,NA,NA,NA,NA,NA,NA,NA,NA,NA,NA,NA,NA,NA,NA,NA,NA,NA
Inf,"""Richtig""-Screen",canvas.Screen,3_0_6_0_1_0_1,NA,NA,skipped,NA,911680,NA,NA,911677,911680,2023-08-06T10:13:24Z,911679.02,NULL,Wohlstand,mafanikio,d,NA,NA,NA,NA,dfs,NA,6,NA,NA,NA,NA,NA,NA,NA,NA,NA,NA,NA,NA,NA,NA,NA,NA,NA,NA,NA
Inf,"""Falsch""-Screen",canvas.Screen,3_0_6_0_1_0_2,NA,NA,timeout,4999.46,911683,911676.18,911679.02,916661.84,916663,2023-08-06T10:13:29Z,916678.48,NULL,Wohlstand,mafanikio,d,NA,NA,NA,NA,dfs,0,6,NA,NA,NA,NA,NA,NA,NA,NA,NA,NA,NA,NA,NA,NA,NA,NA,NA,NA,NA
Inf,deep,flow.Sequence,3_0_6_0_1_0,NA,NA,completion,15814.6,900839,900830.58,900847.24,916661.84,916664,2023-08-06T10:13:29Z,916678.48,NULL,Wohlstand,mafanikio,d,NA,NA,NA,NA,dfs,NA,6,NA,NA,NA,NA,NA,NA,NA,NA,NA,NA,NA,NA,NA,NA,NA,NA,NA,NA,NA
Inf,shallow,flow.Sequence,3_0_6_0_1_1,NA,NA,skipped,NA,916664,NA,NA,916661.84,916665,2023-08-06T10:13:29Z,916678.48,NULL,Wohlstand,mafanikio,d,NA,NA,NA,NA,dfs,NA,6,NA,NA,NA,NA,NA,NA,NA,NA,NA,NA,NA,NA,NA,NA,NA,NA,NA,NA,NA
Inf,task,flow.Sequence,3_0_6_0_1,NA,NA,completion,15814.6,900839,900830.58,900847.24,916661.84,916665,2023-08-06T10:13:29Z,916678.48,NULL,Wohlstand,mafanikio,d,NA,NA,NA,NA,dfs,NA,6,NA,NA,NA,NA,NA,NA,NA,NA,NA,NA,NA,NA,NA,NA,NA,NA,NA,NA,NA
Inf,deep,flow.Sequence,3_0_6_0_2_0,NA,NA,skipped,NA,916666,NA,NA,916661.84,916666,2023-08-06T10:13:29Z,916678.48,NULL,Ausschluss,kutengwa,s,ununuzi,taratibu,madeni,NA,dfs,NA,6,NA,NA,NA,NA,NA,NA,NA,NA,NA,NA,NA,NA,NA,NA,NA,NA,NA,NA,NA
Inf,Shallow Question,html.Page,3_0_6_0_2_1_0,NA,NA,form submission,7195.52,916666,916661.84,916678.48,923874,923877,2023-08-06T10:13:36Z,923877.56,NULL,Ausschluss,kutengwa,s,ununuzi,taratibu,madeni,kutengwa,NA,NA,6,NA,NA,NA,NA,NA,NA,NA,NA,NA,NA,NA,NA,NA,NA,NA,NA,NA,NA,NA
Inf,"""Richtig""-Screen",canvas.Screen,3_0_6_0_2_1_1,NA,NA,timeout,4999.3199999999,923886,923864.54,923877.56,928860.22,928862,2023-08-06T10:13:41Z,928876.88,NULL,Ausschluss,kutengwa,s,ununuzi,taratibu,madeni,NA,dfs,1,6,NA,NA,NA,NA,NA,NA,NA,NA,NA,NA,NA,NA,NA,NA,NA,NA,NA,NA,NA
Inf,"""Falsch""-Screen",canvas.Screen,3_0_6_0_2_1_2,NA,NA,skipped,NA,928870,NA,NA,928860.22,928871,2023-08-06T10:13:41Z,928876.88,NULL,Ausschluss,kutengwa,s,ununuzi,taratibu,madeni,NA,dfs,NA,6,NA,NA,NA,NA,NA,NA,NA,NA,NA,NA,NA,NA,NA,NA,NA,NA,NA,NA,NA
Inf,shallow,flow.Sequence,3_0_6_0_2_1,NA,NA,completion,12181.74,916666,916661.84,916678.48,928860.22,928872,2023-08-06T10:13:41Z,928876.88,NULL,Ausschluss,kutengwa,s,ununuzi,taratibu,madeni,NA,dfs,NA,6,NA,NA,NA,NA,NA,NA,NA,NA,NA,NA,NA,NA,NA,NA,NA,NA,NA,NA,NA
Inf,task,flow.Sequence,3_0_6_0_2,NA,NA,completion,12181.74,916666,916661.84,916678.48,928860.22,928872,2023-08-06T10:13:41Z,928876.88,NULL,Ausschluss,kutengwa,s,ununuzi,taratibu,madeni,NA,dfs,NA,6,NA,NA,NA,NA,NA,NA,NA,NA,NA,NA,NA,NA,NA,NA,NA,NA,NA,NA,NA
Inf,deep,flow.Sequence,3_0_6_0_3_0,NA,NA,skipped,NA,928873,NA,NA,928860.22,928873,2023-08-06T10:13:41Z,928876.88,NULL,Vergnügen,kichekesho,s,dubwana,mpanuko,mtesaji,NA,dfs,NA,6,NA,NA,NA,NA,NA,NA,NA,NA,NA,NA,NA,NA,NA,NA,NA,NA,NA,NA,NA
Inf,Shallow Question,html.Page,3_0_6_0_3_1_0,NA,NA,form submission,4651.12,928874,928860.22,928876.88,933528,933528,2023-08-06T10:13:46Z,933526.24,NULL,Vergnügen,kichekesho,s,dubwana,mpanuko,mtesaji,kichekesho,NA,NA,6,NA,NA,NA,NA,NA,NA,NA,NA,NA,NA,NA,NA,NA,NA,NA,NA,NA,NA,NA
Inf,"""Richtig""-Screen",canvas.Screen,3_0_6_0_3_1_1,NA,NA,timeout,4999.42,933530,933525.98,933526.24,938509,938510,2023-08-06T10:13:51Z,938525.66,NULL,Vergnügen,kichekesho,s,dubwana,mpanuko,mtesaji,NA,dfs,1,6,NA,NA,NA,NA,NA,NA,NA,NA,NA,NA,NA,NA,NA,NA,NA,NA,NA,NA,NA
Inf,"""Falsch""-Screen",canvas.Screen,3_0_6_0_3_1_2,NA,NA,skipped,NA,938519,NA,NA,938509,938519,2023-08-06T10:13:51Z,938525.66,NULL,Vergnügen,kichekesho,s,dubwana,mpanuko,mtesaji,NA,dfs,NA,6,NA,NA,NA,NA,NA,NA,NA,NA,NA,NA,NA,NA,NA,NA,NA,NA,NA,NA,NA
Inf,shallow,flow.Sequence,3_0_6_0_3_1,NA,NA,completion,9632.12,928873,928860.22,928876.88,938509,938520,2023-08-06T10:13:51Z,938525.66,NULL,Vergnügen,kichekesho,s,dubwana,mpanuko,mtesaji,NA,dfs,NA,6,NA,NA,NA,NA,NA,NA,NA,NA,NA,NA,NA,NA,NA,NA,NA,NA,NA,NA,NA
Inf,task,flow.Sequence,3_0_6_0_3,NA,NA,completion,9632.12,928873,928860.22,928876.88,938509,938521,2023-08-06T10:13:51Z,938525.66,NULL,Vergnügen,kichekesho,s,dubwana,mpanuko,mtesaji,NA,dfs,NA,6,NA,NA,NA,NA,NA,NA,NA,NA,NA,NA,NA,NA,NA,NA,NA,NA,NA,NA,NA
Inf,deep,flow.Sequence,3_0_6_0_4_0,NA,NA,skipped,NA,938522,NA,NA,938509,938522,2023-08-06T10:13:51Z,938525.66,NULL,Gelegenheit,wakati,s,mchanganyiko,kipaumbele,kushuku,NA,dfs,NA,6,NA,NA,NA,NA,NA,NA,NA,NA,NA,NA,NA,NA,NA,NA,NA,NA,NA,NA,NA
Inf,Shallow Question,html.Page,3_0_6_0_4_1_0,NA,NA,form submission,10512.34,938523,938509,938525.66,949038,949038,2023-08-06T10:14:02Z,949040.94,NULL,Gelegenheit,wakati,s,mchanganyiko,kipaumbele,kushuku,wakati,NA,NA,6,NA,NA,NA,NA,NA,NA,NA,NA,NA,NA,NA,NA,NA,NA,NA,NA,NA,NA,NA
Inf,"""Richtig""-Screen",canvas.Screen,3_0_6_0_4_1_1,NA,NA,timeout,4999.3400000001,949041,949036,949040.94,954023.62,954025,2023-08-06T10:14:07Z,954040.28,NULL,Gelegenheit,wakati,s,mchanganyiko,kipaumbele,kushuku,NA,dfs,1,6,NA,NA,NA,NA,NA,NA,NA,NA,NA,NA,NA,NA,NA,NA,NA,NA,NA,NA,NA
Inf,"""Falsch""-Screen",canvas.Screen,3_0_6_0_4_1_2,NA,NA,skipped,NA,954033,NA,NA,954023.62,954033,2023-08-06T10:14:07Z,954040.28,NULL,Gelegenheit,wakati,s,mchanganyiko,kipaumbele,kushuku,NA,dfs,NA,6,NA,NA,NA,NA,NA,NA,NA,NA,NA,NA,NA,NA,NA,NA,NA,NA,NA,NA,NA
Inf,shallow,flow.Sequence,3_0_6_0_4_1,NA,NA,completion,15497.96,938523,938509,938525.66,954023.62,954034,2023-08-06T10:14:07Z,954040.28,NULL,Gelegenheit,wakati,s,mchanganyiko,kipaumbele,kushuku,NA,dfs,NA,6,NA,NA,NA,NA,NA,NA,NA,NA,NA,NA,NA,NA,NA,NA,NA,NA,NA,NA,NA
Inf,task,flow.Sequence,3_0_6_0_4,NA,NA,completion,15497.96,938522,938509,938525.66,954023.62,954035,2023-08-06T10:14:07Z,954040.28,NULL,Gelegenheit,wakati,s,mchanganyiko,kipaumbele,kushuku,NA,dfs,NA,6,NA,NA,NA,NA,NA,NA,NA,NA,NA,NA,NA,NA,NA,NA,NA,NA,NA,NA,NA
Inf,Deep Question,html.Page,3_0_6_0_5_0_0,NA,NA,form submission,5504.72,954035,954023.62,954040.28,959545,959545,2023-08-06T10:14:12Z,959544.82,NULL,Verstand,ufahamivu,d,NA,NA,NA,usulubu,NA,NA,6,NA,NA,NA,NA,NA,NA,NA,NA,NA,NA,NA,NA,NA,NA,NA,NA,NA,NA,NA
Inf,"""Richtig""-Screen",canvas.Screen,3_0_6_0_5_0_1,NA,NA,skipped,NA,959549,NA,NA,959545,959549,2023-08-06T10:14:12Z,959544.82,NULL,Verstand,ufahamivu,d,NA,NA,NA,NA,dfs,NA,6,NA,NA,NA,NA,NA,NA,NA,NA,NA,NA,NA,NA,NA,NA,NA,NA,NA,NA,NA
Inf,"""Falsch""-Screen",canvas.Screen,3_0_6_0_5_0_2,NA,NA,timeout,4994.1000000001,959552,959544.46,959544.82,964522.26,964524,2023-08-06T10:14:17Z,964538.92,NULL,Verstand,ufahamivu,d,NA,NA,NA,NA,dfs,0,6,NA,NA,NA,NA,NA,NA,NA,NA,NA,NA,NA,NA,NA,NA,NA,NA,NA,NA,NA
Inf,deep,flow.Sequence,3_0_6_0_5_0,NA,NA,completion,10481.98,954035,954023.62,954040.28,964522.26,964525,2023-08-06T10:14:17Z,964538.92,NULL,Verstand,ufahamivu,d,NA,NA,NA,NA,dfs,NA,6,NA,NA,NA,NA,NA,NA,NA,NA,NA,NA,NA,NA,NA,NA,NA,NA,NA,NA,NA
Inf,shallow,flow.Sequence,3_0_6_0_5_1,NA,NA,skipped,NA,964525,NA,NA,964522.26,964526,2023-08-06T10:14:17Z,964538.92,NULL,Verstand,ufahamivu,d,NA,NA,NA,NA,dfs,NA,6,NA,NA,NA,NA,NA,NA,NA,NA,NA,NA,NA,NA,NA,NA,NA,NA,NA,NA,NA
Inf,task,flow.Sequence,3_0_6_0_5,NA,NA,completion,10481.98,954035,954023.62,954040.28,964522.26,964527,2023-08-06T10:14:17Z,964538.92,NULL,Verstand,ufahamivu,d,NA,NA,NA,NA,dfs,NA,6,NA,NA,NA,NA,NA,NA,NA,NA,NA,NA,NA,NA,NA,NA,NA,NA,NA,NA,NA
Inf,Deep Question,html.Page,3_0_6_0_6_0_0,NA,NA,form submission,6971.08,964527,964522.26,964538.92,971510,971510,2023-08-06T10:14:24Z,971521.34,NULL,Widerstand,usulubu,d,NA,NA,NA,usulubu,NA,NA,6,NA,NA,NA,NA,NA,NA,NA,NA,NA,NA,NA,NA,NA,NA,NA,NA,NA,NA,NA
Inf,"""Richtig""-Screen",canvas.Screen,3_0_6_0_6_0_1,NA,NA,timeout,4999.4,971511,971508.72,971521.34,976504.08,976506,2023-08-06T10:14:29Z,976520.74,NULL,Widerstand,usulubu,d,NA,NA,NA,NA,dfs,1,6,NA,NA,NA,NA,NA,NA,NA,NA,NA,NA,NA,NA,NA,NA,NA,NA,NA,NA,NA
Inf,"""Falsch""-Screen",canvas.Screen,3_0_6_0_6_0_2,NA,NA,skipped,NA,976513,NA,NA,976504.08,976513,2023-08-06T10:14:29Z,976520.74,NULL,Widerstand,usulubu,d,NA,NA,NA,NA,dfs,NA,6,NA,NA,NA,NA,NA,NA,NA,NA,NA,NA,NA,NA,NA,NA,NA,NA,NA,NA,NA
Inf,deep,flow.Sequence,3_0_6_0_6_0,NA,NA,completion,11965.16,964527,964522.26,964538.92,976504.08,976515,2023-08-06T10:14:29Z,976520.74,NULL,Widerstand,usulubu,d,NA,NA,NA,NA,dfs,NA,6,NA,NA,NA,NA,NA,NA,NA,NA,NA,NA,NA,NA,NA,NA,NA,NA,NA,NA,NA
Inf,shallow,flow.Sequence,3_0_6_0_6_1,NA,NA,skipped,NA,976515,NA,NA,976504.08,976515,2023-08-06T10:14:29Z,976520.74,NULL,Widerstand,usulubu,d,NA,NA,NA,NA,dfs,NA,6,NA,NA,NA,NA,NA,NA,NA,NA,NA,NA,NA,NA,NA,NA,NA,NA,NA,NA,NA
Inf,task,flow.Sequence,3_0_6_0_6,NA,NA,completion,11965.16,964527,964522.26,964538.92,976504.08,976515,2023-08-06T10:14:29Z,976520.74,NULL,Widerstand,usulubu,d,NA,NA,NA,NA,dfs,NA,6,NA,NA,NA,NA,NA,NA,NA,NA,NA,NA,NA,NA,NA,NA,NA,NA,NA,NA,NA
Inf,Deep Question,html.Page,3_0_6_0_7_0_0,NA,NA,form submission,24059.26,976516,976504.08,976520.74,1000580,1000580,2023-08-06T10:14:53Z,1000584.22,NULL,Ergänzung,kijalizo,d,NA,NA,NA,mafatiki,NA,NA,6,NA,NA,NA,NA,NA,NA,NA,NA,NA,NA,NA,NA,NA,NA,NA,NA,NA,NA,NA
Inf,"""Richtig""-Screen",canvas.Screen,3_0_6_0_7_0_1,NA,NA,skipped,NA,1000582,NA,NA,1000580,1000583,2023-08-06T10:14:53Z,1000584.22,NULL,Ergänzung,kijalizo,d,NA,NA,NA,NA,dfs,NA,6,NA,NA,NA,NA,NA,NA,NA,NA,NA,NA,NA,NA,NA,NA,NA,NA,NA,NA,NA
Inf,"""Falsch""-Screen",canvas.Screen,3_0_6_0_7_0_2,NA,NA,timeout,4999.36,1000585,1000578.62,1000584.22,1005566.92,1005568,2023-08-06T10:14:58Z,1005583.58,NULL,Ergänzung,kijalizo,d,NA,NA,NA,NA,dfs,0,6,NA,NA,NA,NA,NA,NA,NA,NA,NA,NA,NA,NA,NA,NA,NA,NA,NA,NA,NA
Inf,deep,flow.Sequence,3_0_6_0_7_0,NA,NA,completion,29046.18,976516,976504.08,976520.74,1005566.92,1005569,2023-08-06T10:14:58Z,1005583.58,NULL,Ergänzung,kijalizo,d,NA,NA,NA,NA,dfs,NA,6,NA,NA,NA,NA,NA,NA,NA,NA,NA,NA,NA,NA,NA,NA,NA,NA,NA,NA,NA
Inf,shallow,flow.Sequence,3_0_6_0_7_1,NA,NA,skipped,NA,1005569,NA,NA,1005566.92,1005569,2023-08-06T10:14:58Z,1005583.58,NULL,Ergänzung,kijalizo,d,NA,NA,NA,NA,dfs,NA,6,NA,NA,NA,NA,NA,NA,NA,NA,NA,NA,NA,NA,NA,NA,NA,NA,NA,NA,NA
Inf,task,flow.Sequence,3_0_6_0_7,NA,NA,completion,29046.18,976516,976504.08,976520.74,1005566.92,1005569,2023-08-06T10:14:58Z,1005583.58,NULL,Ergänzung,kijalizo,d,NA,NA,NA,NA,dfs,NA,6,NA,NA,NA,NA,NA,NA,NA,NA,NA,NA,NA,NA,NA,NA,NA,NA,NA,NA,NA
Inf,block,flow.Loop,3_0_6_0,NA,NA,completion,112802.08,892764,892763.72,892764.84,1005566.92,1005569,2023-08-06T10:14:58Z,1005583.58,NULL,NA,NA,NA,NA,NA,NA,NA,dfs,NA,6,NA,NA,NA,NA,NA,NA,NA,NA,NA,NA,NA,NA,NA,NA,NA,NA,NA,NA,NA
