observation,sender,sender_type,sender_id,response,response_action,ended_on,duration,time_run,time_render,time_show,time_end,time_commit,timestamp,time_switch,distractors,german,swahili,enc,distractor1,distractor2,distractor3,response_2,x,correct,x_2,url_vp,url_sess,meta_labjs_version,meta_location,meta_user_agent,meta_platform,meta_language,meta_locale,meta_time_zone,meta_timezone_offset,meta_screen_width,meta_screen_height,meta_scroll_width,meta_scroll_height,meta_window_inner_width,meta_window_inner_height,meta_device_pixel_ratio,meta_labjs_build_flavor,meta_labjs_build_commit
b7c4f,Introduction general,canvas.Screen,0,weiter,keypress(q),response,77149.18,265,260.16,276.82,77426,77447,2023-07-12T09:23:33Z,77450.24,NULL,NA,NA,NA,NA,NA,NA,NA,NA,NA,NA,177,1,20.2.4,https://neurocog.fernuni.ch/studies/vweber/sliechti/encoding_immediate/index.html?vp=177&sess=1,Mozilla/5.0 (Windows NT 10.0; Win64; x64; rv:109.0) Gecko/20100101 Firefox/115.0,Win32,de,de-CH,Europe/Zurich,-120,1280,720,1280,587,1280,587,1.5,production,f5b4a49f956347addd546a832a3327688c2c0fef
b7c4f,Introduction practice,canvas.Screen,1_0,NA,keypress(Space),response,9161.76,77447,77447.78,77450.24,86612,86620,2023-07-12T09:23:43Z,86622.26,NULL,NA,NA,NA,NA,NA,NA,NA,NA,NA,NA,NA,NA,NA,NA,NA,NA,NA,NA,NA,NA,NA,NA,NA,NA,NA,NA,NA,NA,NA
b7c4f,deep,flow.Sequence,1_1_0_0,NA,NA,skipped,NA,86621,NA,NA,86612,86621,2023-07-12T09:23:43Z,86622.26,"c(""distractor1"", ""distractor2"", ""distractor3"")",Rückhalt,msaada,s,muhula,auwali,kiwimbe,NA,NA,NA,NA,NA,NA,NA,NA,NA,NA,NA,NA,NA,NA,NA,NA,NA,NA,NA,NA,NA,NA,NA
b7c4f,Shallow Question,html.Page,1_1_0_1_0,NA,NA,form submission,17893.74,86622,86621.92,86622.26,104516,104516,2023-07-12T09:24:01Z,104513.42,"c(""distractor1"", ""distractor2"", ""distractor3"")",Rückhalt,msaada,s,muhula,auwali,kiwimbe,muhula,NA,NA,NA,NA,NA,NA,NA,NA,NA,NA,NA,NA,NA,NA,NA,NA,NA,NA,NA,NA,NA,NA
b7c4f,"""Richtig""-Screen",canvas.Screen,1_1_0_1_1,NA,NA,skipped,NA,104521,NA,NA,104516,104521,2023-07-12T09:24:01Z,104513.42,"c(""distractor1"", ""distractor2"", ""distractor3"")",Rückhalt,msaada,s,muhula,auwali,kiwimbe,NA,NA,NA,NA,NA,NA,NA,NA,NA,NA,NA,NA,NA,NA,NA,NA,NA,NA,NA,NA,NA,NA,NA
b7c4f,"""Falsch""-Screen",canvas.Screen,1_1_0_1_2,NA,NA,timeout,4999.42,104523,104497.5,104513.42,109496.16,109498,2023-07-12T09:24:06Z,109512.84,"c(""distractor1"", ""distractor2"", ""distractor3"")",Rückhalt,msaada,s,muhula,auwali,kiwimbe,NA,NA,0,NA,NA,NA,NA,NA,NA,NA,NA,NA,NA,NA,NA,NA,NA,NA,NA,NA,NA,NA,NA
b7c4f,shallow,flow.Sequence,1_1_0_1,NA,NA,completion,22873.9,86622,86621.92,86622.26,109496.16,109499,2023-07-12T09:24:06Z,109512.84,"c(""distractor1"", ""distractor2"", ""distractor3"")",Rückhalt,msaada,s,muhula,auwali,kiwimbe,NA,NA,NA,NA,NA,NA,NA,NA,NA,NA,NA,NA,NA,NA,NA,NA,NA,NA,NA,NA,NA,NA,NA
b7c4f,task,flow.Sequence,1_1_0,NA,NA,completion,22873.9,86621,86621.92,86622.26,109496.16,109499,2023-07-12T09:24:06Z,109512.84,"c(""distractor1"", ""distractor2"", ""distractor3"")",Rückhalt,msaada,s,muhula,auwali,kiwimbe,NA,NA,NA,NA,NA,NA,NA,NA,NA,NA,NA,NA,NA,NA,NA,NA,NA,NA,NA,NA,NA,NA,NA
b7c4f,deep,flow.Sequence,1_1_1_0,NA,NA,skipped,NA,109500,NA,NA,109496.16,109500,2023-07-12T09:24:06Z,109512.84,"c(""distractor1"", ""distractor2"", ""distractor3"")",Kritik,lawama,s,dereva,nafasi,mawazo,NA,NA,NA,NA,NA,NA,NA,NA,NA,NA,NA,NA,NA,NA,NA,NA,NA,NA,NA,NA,NA,NA,NA
b7c4f,Shallow Question,html.Page,1_1_1_1_0,NA,NA,form submission,23866.16,109501,109496.16,109512.84,133379,133380,2023-07-12T09:24:29Z,133376.38,"c(""distractor1"", ""distractor2"", ""distractor3"")",Kritik,lawama,s,dereva,nafasi,mawazo,nafasi,NA,NA,NA,NA,NA,NA,NA,NA,NA,NA,NA,NA,NA,NA,NA,NA,NA,NA,NA,NA,NA,NA
b7c4f,"""Richtig""-Screen",canvas.Screen,1_1_1_1_1,NA,NA,skipped,NA,133383,NA,NA,133379,133383,2023-07-12T09:24:29Z,133376.38,"c(""distractor1"", ""distractor2"", ""distractor3"")",Kritik,lawama,s,dereva,nafasi,mawazo,NA,NA,NA,NA,NA,NA,NA,NA,NA,NA,NA,NA,NA,NA,NA,NA,NA,NA,NA,NA,NA,NA,NA
b7c4f,"""Falsch""-Screen",canvas.Screen,1_1_1_1_2,NA,NA,timeout,4999.4,133387,133376.18,133376.38,138359.16,138361,2023-07-12T09:24:34Z,138375.78,"c(""distractor1"", ""distractor2"", ""distractor3"")",Kritik,lawama,s,dereva,nafasi,mawazo,NA,NA,0,NA,NA,NA,NA,NA,NA,NA,NA,NA,NA,NA,NA,NA,NA,NA,NA,NA,NA,NA,NA
b7c4f,shallow,flow.Sequence,1_1_1_1,NA,NA,completion,28846.32,109501,109496.16,109512.84,138359.16,138362,2023-07-12T09:24:34Z,138375.78,"c(""distractor1"", ""distractor2"", ""distractor3"")",Kritik,lawama,s,dereva,nafasi,mawazo,NA,NA,NA,NA,NA,NA,NA,NA,NA,NA,NA,NA,NA,NA,NA,NA,NA,NA,NA,NA,NA,NA,NA
b7c4f,task,flow.Sequence,1_1_1,NA,NA,completion,28846.32,109500,109496.16,109512.84,138359.16,138363,2023-07-12T09:24:34Z,138375.78,"c(""distractor1"", ""distractor2"", ""distractor3"")",Kritik,lawama,s,dereva,nafasi,mawazo,NA,NA,NA,NA,NA,NA,NA,NA,NA,NA,NA,NA,NA,NA,NA,NA,NA,NA,NA,NA,NA,NA,NA
b7c4f,deep,flow.Sequence,1_1_2_0,NA,NA,skipped,NA,138363,NA,NA,138359.16,138363,2023-07-12T09:24:34Z,138375.78,"c(""distractor1"", ""distractor2"", ""distractor3"")",Gegenwart,hadhara,s,katiba,jokofu,mikopo,NA,NA,NA,NA,NA,NA,NA,NA,NA,NA,NA,NA,NA,NA,NA,NA,NA,NA,NA,NA,NA,NA,NA
b7c4f,Shallow Question,html.Page,1_1_2_1_0,NA,NA,form submission,12150.22,138363,138359.16,138375.78,150526,150527,2023-07-12T09:24:47Z,150540.8,"c(""distractor1"", ""distractor2"", ""distractor3"")",Gegenwart,hadhara,s,katiba,jokofu,mikopo,hadhara,NA,NA,NA,NA,NA,NA,NA,NA,NA,NA,NA,NA,NA,NA,NA,NA,NA,NA,NA,NA,NA,NA
b7c4f,"""Richtig""-Screen",canvas.Screen,1_1_2_1_1,NA,NA,timeout,4999.42,150530,150524.06,150540.8,155523.6,155525,2023-07-12T09:24:52Z,155540.22,"c(""distractor1"", ""distractor2"", ""distractor3"")",Gegenwart,hadhara,s,katiba,jokofu,mikopo,NA,NA,1,NA,NA,NA,NA,NA,NA,NA,NA,NA,NA,NA,NA,NA,NA,NA,NA,NA,NA,NA,NA
b7c4f,"""Falsch""-Screen",canvas.Screen,1_1_2_1_2,NA,NA,skipped,NA,155533,NA,NA,155523.6,155533,2023-07-12T09:24:52Z,155540.22,"c(""distractor1"", ""distractor2"", ""distractor3"")",Gegenwart,hadhara,s,katiba,jokofu,mikopo,NA,NA,NA,NA,NA,NA,NA,NA,NA,NA,NA,NA,NA,NA,NA,NA,NA,NA,NA,NA,NA,NA,NA
b7c4f,shallow,flow.Sequence,1_1_2_1,NA,NA,completion,17147.82,138363,138359.16,138375.78,155523.6,155535,2023-07-12T09:24:52Z,155540.22,"c(""distractor1"", ""distractor2"", ""distractor3"")",Gegenwart,hadhara,s,katiba,jokofu,mikopo,NA,NA,NA,NA,NA,NA,NA,NA,NA,NA,NA,NA,NA,NA,NA,NA,NA,NA,NA,NA,NA,NA,NA
b7c4f,task,flow.Sequence,1_1_2,NA,NA,completion,17147.82,138363,138359.16,138375.78,155523.6,155536,2023-07-12T09:24:52Z,155540.22,"c(""distractor1"", ""distractor2"", ""distractor3"")",Gegenwart,hadhara,s,katiba,jokofu,mikopo,NA,NA,NA,NA,NA,NA,NA,NA,NA,NA,NA,NA,NA,NA,NA,NA,NA,NA,NA,NA,NA,NA,NA
b7c4f,Deep Question,html.Page,1_1_3_0_0,NA,NA,form submission,47422.78,155536,155523.6,155540.22,202963,202963,2023-07-12T09:25:39Z,202967.44,"c(""distractor1"", ""distractor2"", ""distractor3"")",Qualität,mtindo,d,NA,NA,NA,hadhara,NA,NA,NA,NA,NA,NA,NA,NA,NA,NA,NA,NA,NA,NA,NA,NA,NA,NA,NA,NA,NA,NA
b7c4f,"""Richtig""-Screen",canvas.Screen,1_1_3_0_1,NA,NA,skipped,NA,202967,NA,NA,202963,202967,2023-07-12T09:25:39Z,202967.44,"c(""distractor1"", ""distractor2"", ""distractor3"")",Qualität,mtindo,d,NA,NA,NA,NA,NA,NA,NA,NA,NA,NA,NA,NA,NA,NA,NA,NA,NA,NA,NA,NA,NA,NA,NA,NA,NA,NA
b7c4f,"""Falsch""-Screen",canvas.Screen,1_1_3_0_2,NA,NA,timeout,4999.34,202970,202962.5,202967.44,207950.12,207952,2023-07-12T09:25:44Z,207966.78,"c(""distractor1"", ""distractor2"", ""distractor3"")",Qualität,mtindo,d,NA,NA,NA,NA,NA,0,NA,NA,NA,NA,NA,NA,NA,NA,NA,NA,NA,NA,NA,NA,NA,NA,NA,NA,NA,NA
b7c4f,deep,flow.Sequence,1_1_3_0,NA,NA,completion,52409.9,155536,155523.6,155540.22,207950.12,207953,2023-07-12T09:25:44Z,207966.78,"c(""distractor1"", ""distractor2"", ""distractor3"")",Qualität,mtindo,d,NA,NA,NA,NA,NA,NA,NA,NA,NA,NA,NA,NA,NA,NA,NA,NA,NA,NA,NA,NA,NA,NA,NA,NA,NA,NA
b7c4f,shallow,flow.Sequence,1_1_3_1,NA,NA,skipped,NA,207953,NA,NA,207950.12,207953,2023-07-12T09:25:44Z,207966.78,"c(""distractor1"", ""distractor2"", ""distractor3"")",Qualität,mtindo,d,NA,NA,NA,NA,NA,NA,NA,NA,NA,NA,NA,NA,NA,NA,NA,NA,NA,NA,NA,NA,NA,NA,NA,NA,NA,NA
b7c4f,task,flow.Sequence,1_1_3,NA,NA,completion,52409.9,155536,155523.6,155540.22,207950.12,207954,2023-07-12T09:25:44Z,207966.78,"c(""distractor1"", ""distractor2"", ""distractor3"")",Qualität,mtindo,d,NA,NA,NA,NA,NA,NA,NA,NA,NA,NA,NA,NA,NA,NA,NA,NA,NA,NA,NA,NA,NA,NA,NA,NA,NA,NA
b7c4f,Deep Question,html.Page,1_1_4_0_0,NA,NA,form submission,16679.22,207954,207950.12,207966.78,224646,224646,2023-07-12T09:26:01Z,224648,"c(""distractor1"", ""distractor2"", ""distractor3"")",Schatten,kivuli,d,NA,NA,NA,mahula,NA,NA,NA,NA,NA,NA,NA,NA,NA,NA,NA,NA,NA,NA,NA,NA,NA,NA,NA,NA,NA,NA
b7c4f,"""Richtig""-Screen",canvas.Screen,1_1_4_0_1,NA,NA,skipped,NA,224649,NA,NA,224646,224649,2023-07-12T09:26:01Z,224648,"c(""distractor1"", ""distractor2"", ""distractor3"")",Schatten,kivuli,d,NA,NA,NA,NA,NA,NA,NA,NA,NA,NA,NA,NA,NA,NA,NA,NA,NA,NA,NA,NA,NA,NA,NA,NA,NA,NA
b7c4f,"""Falsch""-Screen",canvas.Screen,1_1_4_0_2,NA,NA,timeout,4999.36,224652,224645.2,224648,229630.7,229633,2023-07-12T09:26:06Z,229647.36,"c(""distractor1"", ""distractor2"", ""distractor3"")",Schatten,kivuli,d,NA,NA,NA,NA,NA,0,NA,NA,NA,NA,NA,NA,NA,NA,NA,NA,NA,NA,NA,NA,NA,NA,NA,NA,NA,NA
b7c4f,deep,flow.Sequence,1_1_4_0,NA,NA,completion,21663.92,207954,207950.12,207966.78,229630.7,229633,2023-07-12T09:26:06Z,229647.36,"c(""distractor1"", ""distractor2"", ""distractor3"")",Schatten,kivuli,d,NA,NA,NA,NA,NA,NA,NA,NA,NA,NA,NA,NA,NA,NA,NA,NA,NA,NA,NA,NA,NA,NA,NA,NA,NA,NA
b7c4f,shallow,flow.Sequence,1_1_4_1,NA,NA,skipped,NA,229634,NA,NA,229630.7,229634,2023-07-12T09:26:06Z,229647.36,"c(""distractor1"", ""distractor2"", ""distractor3"")",Schatten,kivuli,d,NA,NA,NA,NA,NA,NA,NA,NA,NA,NA,NA,NA,NA,NA,NA,NA,NA,NA,NA,NA,NA,NA,NA,NA,NA,NA
b7c4f,task,flow.Sequence,1_1_4,NA,NA,completion,21663.92,207954,207950.12,207966.78,229630.7,229634,2023-07-12T09:26:06Z,229647.36,"c(""distractor1"", ""distractor2"", ""distractor3"")",Schatten,kivuli,d,NA,NA,NA,NA,NA,NA,NA,NA,NA,NA,NA,NA,NA,NA,NA,NA,NA,NA,NA,NA,NA,NA,NA,NA,NA,NA
b7c4f,Deep Question,html.Page,1_1_5_0_0,NA,NA,form submission,21667.64,229635,229630.7,229647.36,251315,251316,2023-07-12T09:26:27Z,251314.94,"c(""distractor1"", ""distractor2"", ""distractor3"")",Gesundheit,salama,d,NA,NA,NA,kivuri,NA,NA,NA,NA,NA,NA,NA,NA,NA,NA,NA,NA,NA,NA,NA,NA,NA,NA,NA,NA,NA,NA
b7c4f,"""Richtig""-Screen",canvas.Screen,1_1_5_0_1,NA,NA,skipped,NA,251318,NA,NA,251315,251318,2023-07-12T09:26:27Z,251314.94,"c(""distractor1"", ""distractor2"", ""distractor3"")",Gesundheit,salama,d,NA,NA,NA,NA,NA,NA,NA,NA,NA,NA,NA,NA,NA,NA,NA,NA,NA,NA,NA,NA,NA,NA,NA,NA,NA,NA
b7c4f,"""Falsch""-Screen",canvas.Screen,1_1_5_0_2,NA,NA,timeout,4995.6,251321,251314.56,251314.94,256293.88,256295,2023-07-12T09:26:32Z,256310.54,"c(""distractor1"", ""distractor2"", ""distractor3"")",Gesundheit,salama,d,NA,NA,NA,NA,NA,0,NA,NA,NA,NA,NA,NA,NA,NA,NA,NA,NA,NA,NA,NA,NA,NA,NA,NA,NA,NA
b7c4f,deep,flow.Sequence,1_1_5_0,NA,NA,completion,26646.52,229635,229630.7,229647.36,256293.88,256296,2023-07-12T09:26:32Z,256310.54,"c(""distractor1"", ""distractor2"", ""distractor3"")",Gesundheit,salama,d,NA,NA,NA,NA,NA,NA,NA,NA,NA,NA,NA,NA,NA,NA,NA,NA,NA,NA,NA,NA,NA,NA,NA,NA,NA,NA
b7c4f,shallow,flow.Sequence,1_1_5_1,NA,NA,skipped,NA,256296,NA,NA,256293.88,256296,2023-07-12T09:26:32Z,256310.54,"c(""distractor1"", ""distractor2"", ""distractor3"")",Gesundheit,salama,d,NA,NA,NA,NA,NA,NA,NA,NA,NA,NA,NA,NA,NA,NA,NA,NA,NA,NA,NA,NA,NA,NA,NA,NA,NA,NA
b7c4f,task,flow.Sequence,1_1_5,NA,NA,completion,26646.52,229635,229630.7,229647.36,256293.88,256297,2023-07-12T09:26:32Z,256310.54,"c(""distractor1"", ""distractor2"", ""distractor3"")",Gesundheit,salama,d,NA,NA,NA,NA,NA,NA,NA,NA,NA,NA,NA,NA,NA,NA,NA,NA,NA,NA,NA,NA,NA,NA,NA,NA,NA,NA
b7c4f,block,flow.Loop,1_1,NA,NA,completion,169671.62,86621,86621.92,86622.26,256293.88,256298,2023-07-12T09:26:32Z,256310.54,"c(""distractor1"", ""distractor2"", ""distractor3"")",NA,NA,NA,NA,NA,NA,NA,NA,NA,NA,NA,NA,NA,NA,NA,NA,NA,NA,NA,NA,NA,NA,NA,NA,NA,NA,NA,NA,NA
b7c4f,Practice,flow.Sequence,1,NA,NA,completion,178843.64,77447,77447.78,77450.24,256293.88,256298,2023-07-12T09:26:32Z,256310.54,NULL,NA,NA,NA,NA,NA,NA,NA,NA,NA,NA,NA,NA,NA,NA,NA,NA,NA,NA,NA,NA,NA,NA,NA,NA,NA,NA,NA,NA,NA
b7c4f,Experiment start,canvas.Screen,2,weiter,keypress(q),response,56005.46,256298,256293.88,256310.54,312316,312328,2023-07-12T09:27:28Z,312432.06,NULL,NA,NA,NA,NA,NA,NA,NA,NA,NA,NA,NA,NA,NA,NA,NA,NA,NA,NA,NA,NA,NA,NA,NA,NA,NA,NA,NA,NA,NA
b7c4f,deep,flow.Sequence,3_0_0_0_0_0,NA,NA,skipped,NA,312431,NA,NA,312316,312431,2023-07-12T09:27:28Z,312432.06,NULL,Orientierung,urekebisho,s,uelekeo,marekebisho,utunzaji,NA,sdf,NA,0,NA,NA,NA,NA,NA,NA,NA,NA,NA,NA,NA,NA,NA,NA,NA,NA,NA,NA,NA
b7c4f,Shallow Question,html.Page,3_0_0_0_0_1_0,NA,NA,form submission,21371.94,312431,312431.74,312432.06,333804,333806,2023-07-12T09:27:50Z,333817.24,NULL,Orientierung,urekebisho,s,uelekeo,marekebisho,utunzaji,marekebisho,NA,NA,0,NA,NA,NA,NA,NA,NA,NA,NA,NA,NA,NA,NA,NA,NA,NA,NA,NA,NA,NA
b7c4f,"""Richtig""-Screen",canvas.Screen,3_0_0_0_0_1_1,NA,NA,skipped,NA,333816,NA,NA,333804,333816,2023-07-12T09:27:50Z,333817.24,NULL,Orientierung,urekebisho,s,uelekeo,marekebisho,utunzaji,NA,sdf,NA,0,NA,NA,NA,NA,NA,NA,NA,NA,NA,NA,NA,NA,NA,NA,NA,NA,NA,NA,NA
b7c4f,"""Falsch""-Screen",canvas.Screen,3_0_0_0_0_1_2,NA,NA,timeout,4999.36,333818,333798.06,333817.24,338799.94,338802,2023-07-12T09:27:55Z,338816.6,NULL,Orientierung,urekebisho,s,uelekeo,marekebisho,utunzaji,NA,sdf,0,0,NA,NA,NA,NA,NA,NA,NA,NA,NA,NA,NA,NA,NA,NA,NA,NA,NA,NA,NA
b7c4f,shallow,flow.Sequence,3_0_0_0_0_1,NA,NA,completion,26367.88,312431,312431.74,312432.06,338799.94,338803,2023-07-12T09:27:55Z,338816.6,NULL,Orientierung,urekebisho,s,uelekeo,marekebisho,utunzaji,NA,sdf,NA,0,NA,NA,NA,NA,NA,NA,NA,NA,NA,NA,NA,NA,NA,NA,NA,NA,NA,NA,NA
b7c4f,task,flow.Sequence,3_0_0_0_0,NA,NA,completion,26367.88,312431,312431.74,312432.06,338799.94,338804,2023-07-12T09:27:55Z,338816.6,NULL,Orientierung,urekebisho,s,uelekeo,marekebisho,utunzaji,NA,sdf,NA,0,NA,NA,NA,NA,NA,NA,NA,NA,NA,NA,NA,NA,NA,NA,NA,NA,NA,NA,NA
b7c4f,Deep Question,html.Page,3_0_0_0_1_0_0,NA,NA,form submission,9216.4,338805,338799.94,338816.6,348033,348033,2023-07-12T09:28:04Z,348032.26,NULL,Gefährdung,kuhatarisha,d,NA,NA,NA,urekhebisho,NA,NA,0,NA,NA,NA,NA,NA,NA,NA,NA,NA,NA,NA,NA,NA,NA,NA,NA,NA,NA,NA
b7c4f,"""Richtig""-Screen",canvas.Screen,3_0_0_0_1_0_1,NA,NA,skipped,NA,348036,NA,NA,348033,348036,2023-07-12T09:28:04Z,348032.26,NULL,Gefährdung,kuhatarisha,d,NA,NA,NA,NA,sdf,NA,0,NA,NA,NA,NA,NA,NA,NA,NA,NA,NA,NA,NA,NA,NA,NA,NA,NA,NA,NA
b7c4f,"""Falsch""-Screen",canvas.Screen,3_0_0_0_1_0_2,NA,NA,timeout,4999.1,348039,348031.88,348032.26,353014.7,353017,2023-07-12T09:28:09Z,353031.36,NULL,Gefährdung,kuhatarisha,d,NA,NA,NA,NA,sdf,0,0,NA,NA,NA,NA,NA,NA,NA,NA,NA,NA,NA,NA,NA,NA,NA,NA,NA,NA,NA
b7c4f,deep,flow.Sequence,3_0_0_0_1_0,NA,NA,completion,14198.1,338805,338799.94,338816.6,353014.7,353017,2023-07-12T09:28:09Z,353031.36,NULL,Gefährdung,kuhatarisha,d,NA,NA,NA,NA,sdf,NA,0,NA,NA,NA,NA,NA,NA,NA,NA,NA,NA,NA,NA,NA,NA,NA,NA,NA,NA,NA
b7c4f,shallow,flow.Sequence,3_0_0_0_1_1,NA,NA,skipped,NA,353017,NA,NA,353014.7,353018,2023-07-12T09:28:09Z,353031.36,NULL,Gefährdung,kuhatarisha,d,NA,NA,NA,NA,sdf,NA,0,NA,NA,NA,NA,NA,NA,NA,NA,NA,NA,NA,NA,NA,NA,NA,NA,NA,NA,NA
b7c4f,task,flow.Sequence,3_0_0_0_1,NA,NA,completion,14198.1,338805,338799.94,338816.6,353014.7,353019,2023-07-12T09:28:09Z,353031.36,NULL,Gefährdung,kuhatarisha,d,NA,NA,NA,NA,sdf,NA,0,NA,NA,NA,NA,NA,NA,NA,NA,NA,NA,NA,NA,NA,NA,NA,NA,NA,NA,NA
b7c4f,deep,flow.Sequence,3_0_0_0_2_0,NA,NA,skipped,NA,353019,NA,NA,353014.7,353019,2023-07-12T09:28:09Z,353031.36,NULL,Respekt,heshima,s,changamnao,upinzani,ufanisi,NA,sdf,NA,0,NA,NA,NA,NA,NA,NA,NA,NA,NA,NA,NA,NA,NA,NA,NA,NA,NA,NA,NA
b7c4f,Shallow Question,html.Page,3_0_0_0_2_1_0,NA,NA,form submission,7899.64,353019,353014.7,353031.36,360931,360932,2023-07-12T09:28:17Z,360930.34,NULL,Respekt,heshima,s,changamnao,upinzani,ufanisi,ufanisi,NA,NA,0,NA,NA,NA,NA,NA,NA,NA,NA,NA,NA,NA,NA,NA,NA,NA,NA,NA,NA,NA
b7c4f,"""Richtig""-Screen",canvas.Screen,3_0_0_0_2_1_1,NA,NA,skipped,NA,360938,NA,NA,360931,360938,2023-07-12T09:28:17Z,360930.34,NULL,Respekt,heshima,s,changamnao,upinzani,ufanisi,NA,sdf,NA,0,NA,NA,NA,NA,NA,NA,NA,NA,NA,NA,NA,NA,NA,NA,NA,NA,NA,NA,NA
b7c4f,"""Falsch""-Screen",canvas.Screen,3_0_0_0_2_1_2,NA,NA,timeout,4999.36,360943,360925.74,360930.34,365913.04,365914,2023-07-12T09:28:22Z,365929.7,NULL,Respekt,heshima,s,changamnao,upinzani,ufanisi,NA,sdf,0,0,NA,NA,NA,NA,NA,NA,NA,NA,NA,NA,NA,NA,NA,NA,NA,NA,NA,NA,NA
b7c4f,shallow,flow.Sequence,3_0_0_0_2_1,NA,NA,completion,12881.68,353019,353014.7,353031.36,365913.04,365915,2023-07-12T09:28:22Z,365929.7,NULL,Respekt,heshima,s,changamnao,upinzani,ufanisi,NA,sdf,NA,0,NA,NA,NA,NA,NA,NA,NA,NA,NA,NA,NA,NA,NA,NA,NA,NA,NA,NA,NA
b7c4f,task,flow.Sequence,3_0_0_0_2,NA,NA,completion,12881.68,353019,353014.7,353031.36,365913.04,365915,2023-07-12T09:28:22Z,365929.7,NULL,Respekt,heshima,s,changamnao,upinzani,ufanisi,NA,sdf,NA,0,NA,NA,NA,NA,NA,NA,NA,NA,NA,NA,NA,NA,NA,NA,NA,NA,NA,NA,NA
b7c4f,deep,flow.Sequence,3_0_0_0_3_0,NA,NA,skipped,NA,365916,NA,NA,365913.04,365916,2023-07-12T09:28:22Z,365929.7,NULL,Können,unaweza,s,kiongozi,bustani,mienendo,NA,sdf,NA,0,NA,NA,NA,NA,NA,NA,NA,NA,NA,NA,NA,NA,NA,NA,NA,NA,NA,NA,NA
b7c4f,Shallow Question,html.Page,3_0_0_0_3_1_0,NA,NA,form submission,13390.3,365916,365913.04,365929.7,379320,379321,2023-07-12T09:28:35Z,379328,NULL,Können,unaweza,s,kiongozi,bustani,mienendo,bustani,NA,NA,0,NA,NA,NA,NA,NA,NA,NA,NA,NA,NA,NA,NA,NA,NA,NA,NA,NA,NA,NA
b7c4f,"""Richtig""-Screen",canvas.Screen,3_0_0_0_3_1_1,NA,NA,skipped,NA,379326,NA,NA,379320,379326,2023-07-12T09:28:35Z,379328,NULL,Können,unaweza,s,kiongozi,bustani,mienendo,NA,sdf,NA,0,NA,NA,NA,NA,NA,NA,NA,NA,NA,NA,NA,NA,NA,NA,NA,NA,NA,NA,NA
b7c4f,"""Falsch""-Screen",canvas.Screen,3_0_0_0_3_1_2,NA,NA,timeout,4999.38,379332,379314.68,379328,384310.78,384312,2023-07-12T09:28:40Z,384327.38,NULL,Können,unaweza,s,kiongozi,bustani,mienendo,NA,sdf,0,0,NA,NA,NA,NA,NA,NA,NA,NA,NA,NA,NA,NA,NA,NA,NA,NA,NA,NA,NA
b7c4f,shallow,flow.Sequence,3_0_0_0_3_1,NA,NA,completion,18381.08,365916,365913.04,365929.7,384310.78,384313,2023-07-12T09:28:40Z,384327.38,NULL,Können,unaweza,s,kiongozi,bustani,mienendo,NA,sdf,NA,0,NA,NA,NA,NA,NA,NA,NA,NA,NA,NA,NA,NA,NA,NA,NA,NA,NA,NA,NA
b7c4f,task,flow.Sequence,3_0_0_0_3,NA,NA,completion,18381.08,365915,365913.04,365929.7,384310.78,384314,2023-07-12T09:28:40Z,384327.38,NULL,Können,unaweza,s,kiongozi,bustani,mienendo,NA,sdf,NA,0,NA,NA,NA,NA,NA,NA,NA,NA,NA,NA,NA,NA,NA,NA,NA,NA,NA,NA,NA
b7c4f,Deep Question,html.Page,3_0_0_0_4_0_0,NA,NA,form submission,28657.62,384314,384310.78,384327.38,412985,412985,2023-07-12T09:29:09Z,412990.32,NULL,Kontrolle,kudhibiti,d,NA,NA,NA,kuvali,NA,NA,0,NA,NA,NA,NA,NA,NA,NA,NA,NA,NA,NA,NA,NA,NA,NA,NA,NA,NA,NA
b7c4f,"""Richtig""-Screen",canvas.Screen,3_0_0_0_4_0_1,NA,NA,skipped,NA,412988,NA,NA,412985,412988,2023-07-12T09:29:09Z,412990.32,NULL,Kontrolle,kudhibiti,d,NA,NA,NA,NA,sdf,NA,0,NA,NA,NA,NA,NA,NA,NA,NA,NA,NA,NA,NA,NA,NA,NA,NA,NA,NA,NA
b7c4f,"""Falsch""-Screen",canvas.Screen,3_0_0_0_4_0_2,NA,NA,timeout,4999.36,412992,412983.76,412990.32,417973.02,417975,2023-07-12T09:29:14Z,417989.68,NULL,Kontrolle,kudhibiti,d,NA,NA,NA,NA,sdf,0,0,NA,NA,NA,NA,NA,NA,NA,NA,NA,NA,NA,NA,NA,NA,NA,NA,NA,NA,NA
b7c4f,deep,flow.Sequence,3_0_0_0_4_0,NA,NA,completion,33645.64,384314,384310.78,384327.38,417973.02,417976,2023-07-12T09:29:14Z,417989.68,NULL,Kontrolle,kudhibiti,d,NA,NA,NA,NA,sdf,NA,0,NA,NA,NA,NA,NA,NA,NA,NA,NA,NA,NA,NA,NA,NA,NA,NA,NA,NA,NA
b7c4f,shallow,flow.Sequence,3_0_0_0_4_1,NA,NA,skipped,NA,417976,NA,NA,417973.02,417976,2023-07-12T09:29:14Z,417989.68,NULL,Kontrolle,kudhibiti,d,NA,NA,NA,NA,sdf,NA,0,NA,NA,NA,NA,NA,NA,NA,NA,NA,NA,NA,NA,NA,NA,NA,NA,NA,NA,NA
b7c4f,task,flow.Sequence,3_0_0_0_4,NA,NA,completion,33645.64,384314,384310.78,384327.38,417973.02,417977,2023-07-12T09:29:14Z,417989.68,NULL,Kontrolle,kudhibiti,d,NA,NA,NA,NA,sdf,NA,0,NA,NA,NA,NA,NA,NA,NA,NA,NA,NA,NA,NA,NA,NA,NA,NA,NA,NA,NA
b7c4f,Deep Question,html.Page,3_0_0_0_5_0_0,NA,NA,form submission,10406.32,417977,417973.02,417989.68,428396,428396,2023-07-12T09:29:24Z,428405,NULL,Stimmung,kinyongo,d,NA,NA,NA,kuhibiti,NA,NA,0,NA,NA,NA,NA,NA,NA,NA,NA,NA,NA,NA,NA,NA,NA,NA,NA,NA,NA,NA
b7c4f,"""Richtig""-Screen",canvas.Screen,3_0_0_0_5_0_1,NA,NA,skipped,NA,428399,NA,NA,428396,428399,2023-07-12T09:29:24Z,428405,NULL,Stimmung,kinyongo,d,NA,NA,NA,NA,sdf,NA,0,NA,NA,NA,NA,NA,NA,NA,NA,NA,NA,NA,NA,NA,NA,NA,NA,NA,NA,NA
b7c4f,"""Falsch""-Screen",canvas.Screen,3_0_0_0_5_0_2,NA,NA,timeout,4999.36,428402,428394.56,428405,433387.78,433390,2023-07-12T09:29:29Z,433404.36,NULL,Stimmung,kinyongo,d,NA,NA,NA,NA,sdf,0,0,NA,NA,NA,NA,NA,NA,NA,NA,NA,NA,NA,NA,NA,NA,NA,NA,NA,NA,NA
b7c4f,deep,flow.Sequence,3_0_0_0_5_0,NA,NA,completion,15398.1,417977,417973.02,417989.68,433387.78,433390,2023-07-12T09:29:29Z,433404.36,NULL,Stimmung,kinyongo,d,NA,NA,NA,NA,sdf,NA,0,NA,NA,NA,NA,NA,NA,NA,NA,NA,NA,NA,NA,NA,NA,NA,NA,NA,NA,NA
b7c4f,shallow,flow.Sequence,3_0_0_0_5_1,NA,NA,skipped,NA,433390,NA,NA,433387.78,433391,2023-07-12T09:29:29Z,433404.36,NULL,Stimmung,kinyongo,d,NA,NA,NA,NA,sdf,NA,0,NA,NA,NA,NA,NA,NA,NA,NA,NA,NA,NA,NA,NA,NA,NA,NA,NA,NA,NA
b7c4f,task,flow.Sequence,3_0_0_0_5,NA,NA,completion,15398.1,417977,417973.02,417989.68,433387.78,433392,2023-07-12T09:29:29Z,433404.36,NULL,Stimmung,kinyongo,d,NA,NA,NA,NA,sdf,NA,0,NA,NA,NA,NA,NA,NA,NA,NA,NA,NA,NA,NA,NA,NA,NA,NA,NA,NA,NA
b7c4f,Deep Question,html.Page,3_0_0_0_6_0_0,NA,NA,form submission,36721.64,433392,433387.78,433404.36,470126,470129,2023-07-12T09:30:06Z,470132.98,NULL,Betrüger,mdanganyifu,d,NA,NA,NA,kuyjongo,NA,NA,0,NA,NA,NA,NA,NA,NA,NA,NA,NA,NA,NA,NA,NA,NA,NA,NA,NA,NA,NA
b7c4f,"""Richtig""-Screen",canvas.Screen,3_0_0_0_6_0_1,NA,NA,skipped,NA,470138,NA,NA,470126,470138,2023-07-12T09:30:06Z,470132.98,NULL,Betrüger,mdanganyifu,d,NA,NA,NA,NA,sdf,NA,0,NA,NA,NA,NA,NA,NA,NA,NA,NA,NA,NA,NA,NA,NA,NA,NA,NA,NA,NA
b7c4f,"""Falsch""-Screen",canvas.Screen,3_0_0_0_6_0_2,NA,NA,timeout,4999.4,470142,470123.9,470132.98,475115.72,475117,2023-07-12T09:30:11Z,475132.38,NULL,Betrüger,mdanganyifu,d,NA,NA,NA,NA,sdf,0,0,NA,NA,NA,NA,NA,NA,NA,NA,NA,NA,NA,NA,NA,NA,NA,NA,NA,NA,NA
b7c4f,deep,flow.Sequence,3_0_0_0_6_0,NA,NA,completion,41711.36,433392,433387.78,433404.36,475115.72,475118,2023-07-12T09:30:11Z,475132.38,NULL,Betrüger,mdanganyifu,d,NA,NA,NA,NA,sdf,NA,0,NA,NA,NA,NA,NA,NA,NA,NA,NA,NA,NA,NA,NA,NA,NA,NA,NA,NA,NA
b7c4f,shallow,flow.Sequence,3_0_0_0_6_1,NA,NA,skipped,NA,475118,NA,NA,475115.72,475118,2023-07-12T09:30:11Z,475132.38,NULL,Betrüger,mdanganyifu,d,NA,NA,NA,NA,sdf,NA,0,NA,NA,NA,NA,NA,NA,NA,NA,NA,NA,NA,NA,NA,NA,NA,NA,NA,NA,NA
b7c4f,task,flow.Sequence,3_0_0_0_6,NA,NA,completion,41711.36,433392,433387.78,433404.36,475115.72,475119,2023-07-12T09:30:11Z,475132.38,NULL,Betrüger,mdanganyifu,d,NA,NA,NA,NA,sdf,NA,0,NA,NA,NA,NA,NA,NA,NA,NA,NA,NA,NA,NA,NA,NA,NA,NA,NA,NA,NA
b7c4f,deep,flow.Sequence,3_0_0_0_7_0,NA,NA,skipped,NA,475120,NA,NA,475115.72,475120,2023-07-12T09:30:11Z,475132.38,NULL,Kreativität,ubunifu,s,mratibu,mwendelezo,makubaliano,NA,sdf,NA,0,NA,NA,NA,NA,NA,NA,NA,NA,NA,NA,NA,NA,NA,NA,NA,NA,NA,NA,NA
b7c4f,Shallow Question,html.Page,3_0_0_0_7_1_0,NA,NA,form submission,22799.62,475121,475115.72,475132.38,497932,497932,2023-07-12T09:30:34Z,497929.3,NULL,Kreativität,ubunifu,s,mratibu,mwendelezo,makubaliano,mwendelezo,NA,NA,0,NA,NA,NA,NA,NA,NA,NA,NA,NA,NA,NA,NA,NA,NA,NA,NA,NA,NA,NA
b7c4f,"""Richtig""-Screen",canvas.Screen,3_0_0_0_7_1_1,NA,NA,skipped,NA,497935,NA,NA,497932,497935,2023-07-12T09:30:34Z,497929.3,NULL,Kreativität,ubunifu,s,mratibu,mwendelezo,makubaliano,NA,sdf,NA,0,NA,NA,NA,NA,NA,NA,NA,NA,NA,NA,NA,NA,NA,NA,NA,NA,NA,NA,NA
b7c4f,"""Falsch""-Screen",canvas.Screen,3_0_0_0_7_1_2,NA,NA,timeout,4999.44,497938,497928.34,497929.3,502912.08,502920,2023-07-12T09:30:39Z,502928.74,NULL,Kreativität,ubunifu,s,mratibu,mwendelezo,makubaliano,NA,sdf,0,0,NA,NA,NA,NA,NA,NA,NA,NA,NA,NA,NA,NA,NA,NA,NA,NA,NA,NA,NA
b7c4f,shallow,flow.Sequence,3_0_0_0_7_1,NA,NA,completion,27779.7,475121,475115.72,475132.38,502912.08,502924,2023-07-12T09:30:39Z,502928.74,NULL,Kreativität,ubunifu,s,mratibu,mwendelezo,makubaliano,NA,sdf,NA,0,NA,NA,NA,NA,NA,NA,NA,NA,NA,NA,NA,NA,NA,NA,NA,NA,NA,NA,NA
b7c4f,task,flow.Sequence,3_0_0_0_7,NA,NA,completion,27779.7,475119,475115.72,475132.38,502912.08,502925,2023-07-12T09:30:39Z,502928.74,NULL,Kreativität,ubunifu,s,mratibu,mwendelezo,makubaliano,NA,sdf,NA,0,NA,NA,NA,NA,NA,NA,NA,NA,NA,NA,NA,NA,NA,NA,NA,NA,NA,NA,NA
b7c4f,block,flow.Loop,3_0_0_0,NA,NA,completion,190480.02,312431,312431.74,312432.06,502912.08,502926,2023-07-12T09:30:39Z,502928.74,NULL,NA,NA,NA,NA,NA,NA,NA,sdf,NA,0,NA,NA,NA,NA,NA,NA,NA,NA,NA,NA,NA,NA,NA,NA,NA,NA,NA,NA,NA
b7c4f,weiter,canvas.Screen,3_0_0_1,sdf,keypress(Space),response,1652.26,502926,502912.08,502928.74,504581,504593,2023-07-12T09:30:41Z,504667.86,NULL,NA,NA,NA,NA,NA,NA,NA,sdf,NA,0,NA,NA,NA,NA,NA,NA,NA,NA,NA,NA,NA,NA,NA,NA,NA,NA,NA,NA,NA
b7c4f,check continue,flow.Sequence,3_0_0,NA,NA,completion,192148.94,312431,312431.74,312432.06,504581,504593,2023-07-12T09:30:41Z,504667.86,NULL,NA,NA,NA,NA,NA,NA,NA,sdf,NA,0,NA,NA,NA,NA,NA,NA,NA,NA,NA,NA,NA,NA,NA,NA,NA,NA,NA,NA,NA
b7c4f,Deep Question,html.Page,3_0_1_0_0_0_0,NA,NA,form submission,18581.14,504668,504667.6,504667.86,523249,523250,2023-07-12T09:30:59Z,523259.46,NULL,Kontrolle,kudhibiti,d,NA,NA,NA,ubuhnitu,NA,NA,1,NA,NA,NA,NA,NA,NA,NA,NA,NA,NA,NA,NA,NA,NA,NA,NA,NA,NA,NA
b7c4f,"""Richtig""-Screen",canvas.Screen,3_0_1_0_0_0_1,NA,NA,skipped,NA,523253,NA,NA,523249,523253,2023-07-12T09:30:59Z,523259.46,NULL,Kontrolle,kudhibiti,d,NA,NA,NA,NA,sdfdsf,NA,1,NA,NA,NA,NA,NA,NA,NA,NA,NA,NA,NA,NA,NA,NA,NA,NA,NA,NA,NA
b7c4f,"""Falsch""-Screen",canvas.Screen,3_0_1_0_0_0_2,NA,NA,timeout,4999.3599999999,523256,523247.48,523259.46,528242.18,528244,2023-07-12T09:31:04Z,528258.82,NULL,Kontrolle,kudhibiti,d,NA,NA,NA,NA,sdfdsf,0,1,NA,NA,NA,NA,NA,NA,NA,NA,NA,NA,NA,NA,NA,NA,NA,NA,NA,NA,NA
b7c4f,deep,flow.Sequence,3_0_1_0_0_0,NA,NA,completion,23574.32,504668,504667.6,504667.86,528242.18,528244,2023-07-12T09:31:04Z,528258.82,NULL,Kontrolle,kudhibiti,d,NA,NA,NA,NA,sdfdsf,NA,1,NA,NA,NA,NA,NA,NA,NA,NA,NA,NA,NA,NA,NA,NA,NA,NA,NA,NA,NA
b7c4f,shallow,flow.Sequence,3_0_1_0_0_1,NA,NA,skipped,NA,528245,NA,NA,528242.18,528245,2023-07-12T09:31:04Z,528258.82,NULL,Kontrolle,kudhibiti,d,NA,NA,NA,NA,sdfdsf,NA,1,NA,NA,NA,NA,NA,NA,NA,NA,NA,NA,NA,NA,NA,NA,NA,NA,NA,NA,NA
b7c4f,task,flow.Sequence,3_0_1_0_0,NA,NA,completion,23574.32,504668,504667.6,504667.86,528242.18,528245,2023-07-12T09:31:04Z,528258.82,NULL,Kontrolle,kudhibiti,d,NA,NA,NA,NA,sdfdsf,NA,1,NA,NA,NA,NA,NA,NA,NA,NA,NA,NA,NA,NA,NA,NA,NA,NA,NA,NA,NA
b7c4f,Deep Question,html.Page,3_0_1_0_1_0_0,NA,NA,form submission,15671.18,528246,528242.18,528258.82,543930,543931,2023-07-12T09:31:20Z,543929.52,NULL,Stimmung,kinyongo,d,NA,NA,NA,k,NA,NA,1,NA,NA,NA,NA,NA,NA,NA,NA,NA,NA,NA,NA,NA,NA,NA,NA,NA,NA,NA
b7c4f,"""Richtig""-Screen",canvas.Screen,3_0_1_0_1_0_1,NA,NA,skipped,NA,543934,NA,NA,543930,543934,2023-07-12T09:31:20Z,543929.52,NULL,Stimmung,kinyongo,d,NA,NA,NA,NA,sdfdsf,NA,1,NA,NA,NA,NA,NA,NA,NA,NA,NA,NA,NA,NA,NA,NA,NA,NA,NA,NA,NA
b7c4f,"""Falsch""-Screen",canvas.Screen,3_0_1_0_1_0_2,NA,NA,timeout,4993.28,543936,543929.28,543929.52,548906.14,548908,2023-07-12T09:31:25Z,548922.8,NULL,Stimmung,kinyongo,d,NA,NA,NA,NA,sdfdsf,0,1,NA,NA,NA,NA,NA,NA,NA,NA,NA,NA,NA,NA,NA,NA,NA,NA,NA,NA,NA
b7c4f,deep,flow.Sequence,3_0_1_0_1_0,NA,NA,completion,20647.32,528245,528242.18,528258.82,548906.14,548908,2023-07-12T09:31:25Z,548922.8,NULL,Stimmung,kinyongo,d,NA,NA,NA,NA,sdfdsf,NA,1,NA,NA,NA,NA,NA,NA,NA,NA,NA,NA,NA,NA,NA,NA,NA,NA,NA,NA,NA
b7c4f,shallow,flow.Sequence,3_0_1_0_1_1,NA,NA,skipped,NA,548908,NA,NA,548906.14,548908,2023-07-12T09:31:25Z,548922.8,NULL,Stimmung,kinyongo,d,NA,NA,NA,NA,sdfdsf,NA,1,NA,NA,NA,NA,NA,NA,NA,NA,NA,NA,NA,NA,NA,NA,NA,NA,NA,NA,NA
b7c4f,task,flow.Sequence,3_0_1_0_1,NA,NA,completion,20647.32,528245,528242.18,528258.82,548906.14,548908,2023-07-12T09:31:25Z,548922.8,NULL,Stimmung,kinyongo,d,NA,NA,NA,NA,sdfdsf,NA,1,NA,NA,NA,NA,NA,NA,NA,NA,NA,NA,NA,NA,NA,NA,NA,NA,NA,NA,NA
b7c4f,Deep Question,html.Page,3_0_1_0_2_0_0,NA,NA,form submission,11847.2,548908,548906.14,548922.8,560770,560770,2023-07-12T09:31:37Z,560771.34,NULL,Betrüger,mdanganyifu,d,NA,NA,NA,ubhitu,NA,NA,1,NA,NA,NA,NA,NA,NA,NA,NA,NA,NA,NA,NA,NA,NA,NA,NA,NA,NA,NA
b7c4f,"""Richtig""-Screen",canvas.Screen,3_0_1_0_2_0_1,NA,NA,skipped,NA,560772,NA,NA,560770,560772,2023-07-12T09:31:37Z,560771.34,NULL,Betrüger,mdanganyifu,d,NA,NA,NA,NA,sdfdsf,NA,1,NA,NA,NA,NA,NA,NA,NA,NA,NA,NA,NA,NA,NA,NA,NA,NA,NA,NA,NA
b7c4f,"""Falsch""-Screen",canvas.Screen,3_0_1_0_2_0_2,NA,NA,timeout,4999.3200000001,560775,560769.2,560771.34,565754,565756,2023-07-12T09:31:42Z,565770.66,NULL,Betrüger,mdanganyifu,d,NA,NA,NA,NA,sdfdsf,0,1,NA,NA,NA,NA,NA,NA,NA,NA,NA,NA,NA,NA,NA,NA,NA,NA,NA,NA,NA
b7c4f,deep,flow.Sequence,3_0_1_0_2_0,NA,NA,completion,16831.2,548908,548906.14,548922.8,565754,565756,2023-07-12T09:31:42Z,565770.66,NULL,Betrüger,mdanganyifu,d,NA,NA,NA,NA,sdfdsf,NA,1,NA,NA,NA,NA,NA,NA,NA,NA,NA,NA,NA,NA,NA,NA,NA,NA,NA,NA,NA
b7c4f,shallow,flow.Sequence,3_0_1_0_2_1,NA,NA,skipped,NA,565756,NA,NA,565754,565756,2023-07-12T09:31:42Z,565770.66,NULL,Betrüger,mdanganyifu,d,NA,NA,NA,NA,sdfdsf,NA,1,NA,NA,NA,NA,NA,NA,NA,NA,NA,NA,NA,NA,NA,NA,NA,NA,NA,NA,NA
b7c4f,task,flow.Sequence,3_0_1_0_2,NA,NA,completion,16831.2,548908,548906.14,548922.8,565754,565757,2023-07-12T09:31:42Z,565770.66,NULL,Betrüger,mdanganyifu,d,NA,NA,NA,NA,sdfdsf,NA,1,NA,NA,NA,NA,NA,NA,NA,NA,NA,NA,NA,NA,NA,NA,NA,NA,NA,NA,NA
b7c4f,deep,flow.Sequence,3_0_1_0_3_0,NA,NA,skipped,NA,565757,NA,NA,565754,565757,2023-07-12T09:31:42Z,565770.66,NULL,Respekt,heshima,s,changamnao,upinzani,ufanisi,NA,sdfdsf,NA,1,NA,NA,NA,NA,NA,NA,NA,NA,NA,NA,NA,NA,NA,NA,NA,NA,NA,NA,NA
b7c4f,Shallow Question,html.Page,3_0_1_0_3_1_0,NA,NA,form submission,19755.34,565758,565754,565770.66,585526,585527,2023-07-12T09:32:02Z,585534.68,NULL,Respekt,heshima,s,changamnao,upinzani,ufanisi,ufanisi,NA,NA,1,NA,NA,NA,NA,NA,NA,NA,NA,NA,NA,NA,NA,NA,NA,NA,NA,NA,NA,NA
b7c4f,"""Richtig""-Screen",canvas.Screen,3_0_1_0_3_1_1,NA,NA,skipped,NA,585533,NA,NA,585526,585533,2023-07-12T09:32:02Z,585534.68,NULL,Respekt,heshima,s,changamnao,upinzani,ufanisi,NA,sdfdsf,NA,1,NA,NA,NA,NA,NA,NA,NA,NA,NA,NA,NA,NA,NA,NA,NA,NA,NA,NA,NA
b7c4f,"""Falsch""-Screen",canvas.Screen,3_0_1_0_3_1_2,NA,NA,timeout,4999.46,585539,585520.58,585534.68,590517.48,590519,2023-07-12T09:32:07Z,590534.14,NULL,Respekt,heshima,s,changamnao,upinzani,ufanisi,NA,sdfdsf,0,1,NA,NA,NA,NA,NA,NA,NA,NA,NA,NA,NA,NA,NA,NA,NA,NA,NA,NA,NA
b7c4f,shallow,flow.Sequence,3_0_1_0_3_1,NA,NA,completion,24746.82,565758,565754,565770.66,590517.48,590520,2023-07-12T09:32:07Z,590534.14,NULL,Respekt,heshima,s,changamnao,upinzani,ufanisi,NA,sdfdsf,NA,1,NA,NA,NA,NA,NA,NA,NA,NA,NA,NA,NA,NA,NA,NA,NA,NA,NA,NA,NA
b7c4f,task,flow.Sequence,3_0_1_0_3,NA,NA,completion,24746.82,565757,565754,565770.66,590517.48,590520,2023-07-12T09:32:07Z,590534.14,NULL,Respekt,heshima,s,changamnao,upinzani,ufanisi,NA,sdfdsf,NA,1,NA,NA,NA,NA,NA,NA,NA,NA,NA,NA,NA,NA,NA,NA,NA,NA,NA,NA,NA
b7c4f,deep,flow.Sequence,3_0_1_0_4_0,NA,NA,skipped,NA,590520,NA,NA,590517.48,590520,2023-07-12T09:32:07Z,590534.14,NULL,Orientierung,urekebisho,s,uelekeo,marekebisho,utunzaji,NA,sdfdsf,NA,1,NA,NA,NA,NA,NA,NA,NA,NA,NA,NA,NA,NA,NA,NA,NA,NA,NA,NA,NA
b7c4f,Shallow Question,html.Page,3_0_1_0_4_1_0,NA,NA,form submission,15289.86,590520,590517.48,590534.14,605824,605825,2023-07-12T09:32:22Z,605832.08,NULL,Orientierung,urekebisho,s,uelekeo,marekebisho,utunzaji,urekebisho,NA,NA,1,NA,NA,NA,NA,NA,NA,NA,NA,NA,NA,NA,NA,NA,NA,NA,NA,NA,NA,NA
b7c4f,"""Richtig""-Screen",canvas.Screen,3_0_1_0_4_1_1,NA,NA,timeout,4999.38,605830,605819.68,605832.08,610814.82,610815,2023-07-12T09:32:27Z,610831.46,NULL,Orientierung,urekebisho,s,uelekeo,marekebisho,utunzaji,NA,sdfdsf,1,1,NA,NA,NA,NA,NA,NA,NA,NA,NA,NA,NA,NA,NA,NA,NA,NA,NA,NA,NA
b7c4f,"""Falsch""-Screen",canvas.Screen,3_0_1_0_4_1_2,NA,NA,skipped,NA,610820,NA,NA,610814.82,610820,2023-07-12T09:32:27Z,610831.46,NULL,Orientierung,urekebisho,s,uelekeo,marekebisho,utunzaji,NA,sdfdsf,NA,1,NA,NA,NA,NA,NA,NA,NA,NA,NA,NA,NA,NA,NA,NA,NA,NA,NA,NA,NA
b7c4f,shallow,flow.Sequence,3_0_1_0_4_1,NA,NA,completion,20280.68,590520,590517.48,590534.14,610814.82,610820,2023-07-12T09:32:27Z,610831.46,NULL,Orientierung,urekebisho,s,uelekeo,marekebisho,utunzaji,NA,sdfdsf,NA,1,NA,NA,NA,NA,NA,NA,NA,NA,NA,NA,NA,NA,NA,NA,NA,NA,NA,NA,NA
b7c4f,task,flow.Sequence,3_0_1_0_4,NA,NA,completion,20280.68,590520,590517.48,590534.14,610814.82,610820,2023-07-12T09:32:27Z,610831.46,NULL,Orientierung,urekebisho,s,uelekeo,marekebisho,utunzaji,NA,sdfdsf,NA,1,NA,NA,NA,NA,NA,NA,NA,NA,NA,NA,NA,NA,NA,NA,NA,NA,NA,NA,NA
b7c4f,deep,flow.Sequence,3_0_1_0_5_0,NA,NA,skipped,NA,610821,NA,NA,610814.82,610821,2023-07-12T09:32:27Z,610831.46,NULL,Kreativität,ubunifu,s,mratibu,mwendelezo,makubaliano,NA,sdfdsf,NA,1,NA,NA,NA,NA,NA,NA,NA,NA,NA,NA,NA,NA,NA,NA,NA,NA,NA,NA,NA
b7c4f,Shallow Question,html.Page,3_0_1_0_5_1_0,NA,NA,form submission,10722.54,610821,610814.82,610831.46,621554,621555,2023-07-12T09:32:38Z,621563.44,NULL,Kreativität,ubunifu,s,mratibu,mwendelezo,makubaliano,ubunifu,NA,NA,1,NA,NA,NA,NA,NA,NA,NA,NA,NA,NA,NA,NA,NA,NA,NA,NA,NA,NA,NA
b7c4f,"""Richtig""-Screen",canvas.Screen,3_0_1_0_5_1_1,NA,NA,timeout,4999.3200000001,621561,621549.56,621563.44,626546.1,626547,2023-07-12T09:32:43Z,626562.76,NULL,Kreativität,ubunifu,s,mratibu,mwendelezo,makubaliano,NA,sdfdsf,1,1,NA,NA,NA,NA,NA,NA,NA,NA,NA,NA,NA,NA,NA,NA,NA,NA,NA,NA,NA
b7c4f,"""Falsch""-Screen",canvas.Screen,3_0_1_0_5_1_2,NA,NA,skipped,NA,626549,NA,NA,626546.1,626549,2023-07-12T09:32:43Z,626562.76,NULL,Kreativität,ubunifu,s,mratibu,mwendelezo,makubaliano,NA,sdfdsf,NA,1,NA,NA,NA,NA,NA,NA,NA,NA,NA,NA,NA,NA,NA,NA,NA,NA,NA,NA,NA
b7c4f,shallow,flow.Sequence,3_0_1_0_5_1,NA,NA,completion,15714.64,610821,610814.82,610831.46,626546.1,626549,2023-07-12T09:32:43Z,626562.76,NULL,Kreativität,ubunifu,s,mratibu,mwendelezo,makubaliano,NA,sdfdsf,NA,1,NA,NA,NA,NA,NA,NA,NA,NA,NA,NA,NA,NA,NA,NA,NA,NA,NA,NA,NA
b7c4f,task,flow.Sequence,3_0_1_0_5,NA,NA,completion,15714.64,610821,610814.82,610831.46,626546.1,626549,2023-07-12T09:32:43Z,626562.76,NULL,Kreativität,ubunifu,s,mratibu,mwendelezo,makubaliano,NA,sdfdsf,NA,1,NA,NA,NA,NA,NA,NA,NA,NA,NA,NA,NA,NA,NA,NA,NA,NA,NA,NA,NA
b7c4f,Deep Question,html.Page,3_0_1_0_6_0_0,NA,NA,form submission,4584.24,626550,626546.1,626562.76,631147,631147,2023-07-12T09:32:47Z,631162.12,NULL,Gefährdung,kuhatarisha,d,NA,NA,NA,mw,NA,NA,1,NA,NA,NA,NA,NA,NA,NA,NA,NA,NA,NA,NA,NA,NA,NA,NA,NA,NA,NA
b7c4f,"""Richtig""-Screen",canvas.Screen,3_0_1_0_6_0_1,NA,NA,skipped,NA,631149,NA,NA,631147,631149,2023-07-12T09:32:47Z,631162.12,NULL,Gefährdung,kuhatarisha,d,NA,NA,NA,NA,sdfdsf,NA,1,NA,NA,NA,NA,NA,NA,NA,NA,NA,NA,NA,NA,NA,NA,NA,NA,NA,NA,NA
b7c4f,"""Falsch""-Screen",canvas.Screen,3_0_1_0_6_0_2,NA,NA,timeout,4999.3199999999,631152,631145.5,631162.12,636144.92,636148,2023-07-12T09:32:52Z,636161.44,NULL,Gefährdung,kuhatarisha,d,NA,NA,NA,NA,sdfdsf,0,1,NA,NA,NA,NA,NA,NA,NA,NA,NA,NA,NA,NA,NA,NA,NA,NA,NA,NA,NA
b7c4f,deep,flow.Sequence,3_0_1_0_6_0,NA,NA,completion,9582.16,626549,626546.1,626562.76,636144.92,636149,2023-07-12T09:32:52Z,636161.44,NULL,Gefährdung,kuhatarisha,d,NA,NA,NA,NA,sdfdsf,NA,1,NA,NA,NA,NA,NA,NA,NA,NA,NA,NA,NA,NA,NA,NA,NA,NA,NA,NA,NA
b7c4f,shallow,flow.Sequence,3_0_1_0_6_1,NA,NA,skipped,NA,636149,NA,NA,636144.92,636149,2023-07-12T09:32:52Z,636161.44,NULL,Gefährdung,kuhatarisha,d,NA,NA,NA,NA,sdfdsf,NA,1,NA,NA,NA,NA,NA,NA,NA,NA,NA,NA,NA,NA,NA,NA,NA,NA,NA,NA,NA
b7c4f,task,flow.Sequence,3_0_1_0_6,NA,NA,completion,9582.16,626549,626546.1,626562.76,636144.92,636150,2023-07-12T09:32:52Z,636161.44,NULL,Gefährdung,kuhatarisha,d,NA,NA,NA,NA,sdfdsf,NA,1,NA,NA,NA,NA,NA,NA,NA,NA,NA,NA,NA,NA,NA,NA,NA,NA,NA,NA,NA
b7c4f,deep,flow.Sequence,3_0_1_0_7_0,NA,NA,skipped,NA,636150,NA,NA,636144.92,636150,2023-07-12T09:32:52Z,636161.44,NULL,Können,unaweza,s,kiongozi,bustani,mienendo,NA,sdfdsf,NA,1,NA,NA,NA,NA,NA,NA,NA,NA,NA,NA,NA,NA,NA,NA,NA,NA,NA,NA,NA
b7c4f,Shallow Question,html.Page,3_0_1_0_7_1_0,NA,NA,form submission,18541.56,636151,636144.92,636161.44,654703,654703,2023-07-12T09:33:11Z,654709.06,NULL,Können,unaweza,s,kiongozi,bustani,mienendo,unaweza,NA,NA,1,NA,NA,NA,NA,NA,NA,NA,NA,NA,NA,NA,NA,NA,NA,NA,NA,NA,NA,NA
b7c4f,"""Richtig""-Screen",canvas.Screen,3_0_1_0_7_1_1,NA,NA,timeout,4999.4399999999,654707,654699.72,654709.06,659691.84,659694,2023-07-12T09:33:16Z,659708.5,NULL,Können,unaweza,s,kiongozi,bustani,mienendo,NA,sdfdsf,1,1,NA,NA,NA,NA,NA,NA,NA,NA,NA,NA,NA,NA,NA,NA,NA,NA,NA,NA,NA
b7c4f,"""Falsch""-Screen",canvas.Screen,3_0_1_0_7_1_2,NA,NA,skipped,NA,659700,NA,NA,659691.84,659701,2023-07-12T09:33:16Z,659708.5,NULL,Können,unaweza,s,kiongozi,bustani,mienendo,NA,sdfdsf,NA,1,NA,NA,NA,NA,NA,NA,NA,NA,NA,NA,NA,NA,NA,NA,NA,NA,NA,NA,NA
b7c4f,shallow,flow.Sequence,3_0_1_0_7_1,NA,NA,completion,23530.4,636151,636144.92,636161.44,659691.84,659702,2023-07-12T09:33:16Z,659708.5,NULL,Können,unaweza,s,kiongozi,bustani,mienendo,NA,sdfdsf,NA,1,NA,NA,NA,NA,NA,NA,NA,NA,NA,NA,NA,NA,NA,NA,NA,NA,NA,NA,NA
b7c4f,task,flow.Sequence,3_0_1_0_7,NA,NA,completion,23530.4,636150,636144.92,636161.44,659691.84,659702,2023-07-12T09:33:16Z,659708.5,NULL,Können,unaweza,s,kiongozi,bustani,mienendo,NA,sdfdsf,NA,1,NA,NA,NA,NA,NA,NA,NA,NA,NA,NA,NA,NA,NA,NA,NA,NA,NA,NA,NA
b7c4f,block,flow.Loop,3_0_1_0,NA,NA,completion,155023.98,504668,504667.6,504667.86,659691.84,659704,2023-07-12T09:33:16Z,659708.5,NULL,NA,NA,NA,NA,NA,NA,NA,sdfdsf,NA,1,NA,NA,NA,NA,NA,NA,NA,NA,NA,NA,NA,NA,NA,NA,NA,NA,NA,NA,NA
b7c4f,weiter,canvas.Screen,3_0_1_1,sdf,keypress(Space),response,1185.5,659704,659691.84,659708.5,660894,660903,2023-07-12T09:33:17Z,660978.08,NULL,NA,NA,NA,NA,NA,NA,NA,sdfdsf,NA,1,NA,NA,NA,NA,NA,NA,NA,NA,NA,NA,NA,NA,NA,NA,NA,NA,NA,NA,NA
b7c4f,check continue,flow.Sequence,3_0_1,NA,NA,completion,156226.14,504667,504667.6,504667.86,660894,660904,2023-07-12T09:33:17Z,660978.08,NULL,NA,NA,NA,NA,NA,NA,NA,sdfdsf,NA,1,NA,NA,NA,NA,NA,NA,NA,NA,NA,NA,NA,NA,NA,NA,NA,NA,NA,NA,NA
b7c4f,Deep Question,html.Page,3_0_2_0_0_0_0,NA,NA,form submission,6405.92,660978,660977.7,660978.08,667384,667384,2023-07-12T09:33:23Z,667390.86,NULL,Gefährdung,kuhatarisha,d,NA,NA,NA,k,NA,NA,2,NA,NA,NA,NA,NA,NA,NA,NA,NA,NA,NA,NA,NA,NA,NA,NA,NA,NA,NA
b7c4f,"""Richtig""-Screen",canvas.Screen,3_0_2_0_0_0_1,NA,NA,skipped,NA,667387,NA,NA,667384,667387,2023-07-12T09:33:23Z,667390.86,NULL,Gefährdung,kuhatarisha,d,NA,NA,NA,NA,sdf,NA,2,NA,NA,NA,NA,NA,NA,NA,NA,NA,NA,NA,NA,NA,NA,NA,NA,NA,NA,NA
b7c4f,"""Falsch""-Screen",canvas.Screen,3_0_2_0_0_0_2,NA,NA,timeout,4999.24,667390,667383.28,667390.86,672373.6,672374,2023-07-12T09:33:28Z,672390.1,NULL,Gefährdung,kuhatarisha,d,NA,NA,NA,NA,sdf,0,2,NA,NA,NA,NA,NA,NA,NA,NA,NA,NA,NA,NA,NA,NA,NA,NA,NA,NA,NA
b7c4f,deep,flow.Sequence,3_0_2_0_0_0,NA,NA,completion,11395.52,660978,660977.7,660978.08,672373.6,672376,2023-07-12T09:33:28Z,672390.1,NULL,Gefährdung,kuhatarisha,d,NA,NA,NA,NA,sdf,NA,2,NA,NA,NA,NA,NA,NA,NA,NA,NA,NA,NA,NA,NA,NA,NA,NA,NA,NA,NA
b7c4f,shallow,flow.Sequence,3_0_2_0_0_1,NA,NA,skipped,NA,672376,NA,NA,672373.6,672376,2023-07-12T09:33:28Z,672390.1,NULL,Gefährdung,kuhatarisha,d,NA,NA,NA,NA,sdf,NA,2,NA,NA,NA,NA,NA,NA,NA,NA,NA,NA,NA,NA,NA,NA,NA,NA,NA,NA,NA
b7c4f,task,flow.Sequence,3_0_2_0_0,NA,NA,completion,11395.52,660978,660977.7,660978.08,672373.6,672377,2023-07-12T09:33:28Z,672390.1,NULL,Gefährdung,kuhatarisha,d,NA,NA,NA,NA,sdf,NA,2,NA,NA,NA,NA,NA,NA,NA,NA,NA,NA,NA,NA,NA,NA,NA,NA,NA,NA,NA
b7c4f,Deep Question,html.Page,3_0_2_0_1_0_0,NA,NA,form submission,8779.9,672377,672373.6,672390.1,681170,681170,2023-07-12T09:33:37Z,681172.42,NULL,Stimmung,kinyongo,d,NA,NA,NA,u,NA,NA,2,NA,NA,NA,NA,NA,NA,NA,NA,NA,NA,NA,NA,NA,NA,NA,NA,NA,NA,NA
b7c4f,"""Richtig""-Screen",canvas.Screen,3_0_2_0_1_0_1,NA,NA,skipped,NA,681173,NA,NA,681170,681173,2023-07-12T09:33:37Z,681172.42,NULL,Stimmung,kinyongo,d,NA,NA,NA,NA,sdf,NA,2,NA,NA,NA,NA,NA,NA,NA,NA,NA,NA,NA,NA,NA,NA,NA,NA,NA,NA,NA
b7c4f,"""Falsch""-Screen",canvas.Screen,3_0_2_0_1_0_2,NA,NA,timeout,4999.34,681175,681168.16,681172.42,686155.1,686157,2023-07-12T09:33:42Z,686171.76,NULL,Stimmung,kinyongo,d,NA,NA,NA,NA,sdf,0,2,NA,NA,NA,NA,NA,NA,NA,NA,NA,NA,NA,NA,NA,NA,NA,NA,NA,NA,NA
b7c4f,deep,flow.Sequence,3_0_2_0_1_0,NA,NA,completion,13765,672377,672373.6,672390.1,686155.1,686158,2023-07-12T09:33:42Z,686171.76,NULL,Stimmung,kinyongo,d,NA,NA,NA,NA,sdf,NA,2,NA,NA,NA,NA,NA,NA,NA,NA,NA,NA,NA,NA,NA,NA,NA,NA,NA,NA,NA
b7c4f,shallow,flow.Sequence,3_0_2_0_1_1,NA,NA,skipped,NA,686158,NA,NA,686155.1,686158,2023-07-12T09:33:42Z,686171.76,NULL,Stimmung,kinyongo,d,NA,NA,NA,NA,sdf,NA,2,NA,NA,NA,NA,NA,NA,NA,NA,NA,NA,NA,NA,NA,NA,NA,NA,NA,NA,NA
b7c4f,task,flow.Sequence,3_0_2_0_1,NA,NA,completion,13765,672377,672373.6,672390.1,686155.1,686158,2023-07-12T09:33:42Z,686171.76,NULL,Stimmung,kinyongo,d,NA,NA,NA,NA,sdf,NA,2,NA,NA,NA,NA,NA,NA,NA,NA,NA,NA,NA,NA,NA,NA,NA,NA,NA,NA,NA
b7c4f,deep,flow.Sequence,3_0_2_0_2_0,NA,NA,skipped,NA,686159,NA,NA,686155.1,686159,2023-07-12T09:33:42Z,686171.76,NULL,Orientierung,urekebisho,s,uelekeo,marekebisho,utunzaji,NA,sdf,NA,2,NA,NA,NA,NA,NA,NA,NA,NA,NA,NA,NA,NA,NA,NA,NA,NA,NA,NA,NA
b7c4f,Shallow Question,html.Page,3_0_2_0_2_1_0,NA,NA,form submission,11605.24,686159,686155.1,686171.76,697777,697781,2023-07-12T09:33:54Z,697786.82,NULL,Orientierung,urekebisho,s,uelekeo,marekebisho,utunzaji,urekebisho,NA,NA,2,NA,NA,NA,NA,NA,NA,NA,NA,NA,NA,NA,NA,NA,NA,NA,NA,NA,NA,NA
b7c4f,"""Richtig""-Screen",canvas.Screen,3_0_2_0_2_1_1,NA,NA,timeout,4999.5,697788,697772.2,697786.82,702769.66,702772,2023-07-12T09:33:59Z,702786.32,NULL,Orientierung,urekebisho,s,uelekeo,marekebisho,utunzaji,NA,sdf,1,2,NA,NA,NA,NA,NA,NA,NA,NA,NA,NA,NA,NA,NA,NA,NA,NA,NA,NA,NA
b7c4f,"""Falsch""-Screen",canvas.Screen,3_0_2_0_2_1_2,NA,NA,skipped,NA,702779,NA,NA,702769.66,702780,2023-07-12T09:33:59Z,702786.32,NULL,Orientierung,urekebisho,s,uelekeo,marekebisho,utunzaji,NA,sdf,NA,2,NA,NA,NA,NA,NA,NA,NA,NA,NA,NA,NA,NA,NA,NA,NA,NA,NA,NA,NA
b7c4f,shallow,flow.Sequence,3_0_2_0_2_1,NA,NA,completion,16597.9,686159,686155.1,686171.76,702769.66,702781,2023-07-12T09:33:59Z,702786.32,NULL,Orientierung,urekebisho,s,uelekeo,marekebisho,utunzaji,NA,sdf,NA,2,NA,NA,NA,NA,NA,NA,NA,NA,NA,NA,NA,NA,NA,NA,NA,NA,NA,NA,NA
b7c4f,task,flow.Sequence,3_0_2_0_2,NA,NA,completion,16597.9,686159,686155.1,686171.76,702769.66,702781,2023-07-12T09:33:59Z,702786.32,NULL,Orientierung,urekebisho,s,uelekeo,marekebisho,utunzaji,NA,sdf,NA,2,NA,NA,NA,NA,NA,NA,NA,NA,NA,NA,NA,NA,NA,NA,NA,NA,NA,NA,NA
b7c4f,deep,flow.Sequence,3_0_2_0_3_0,NA,NA,skipped,NA,702782,NA,NA,702769.66,702783,2023-07-12T09:33:59Z,702786.32,NULL,Respekt,heshima,s,changamnao,upinzani,ufanisi,NA,sdf,NA,2,NA,NA,NA,NA,NA,NA,NA,NA,NA,NA,NA,NA,NA,NA,NA,NA,NA,NA,NA
b7c4f,Shallow Question,html.Page,3_0_2_0_3_1_0,NA,NA,form submission,7602.6800000001,702783,702769.66,702786.32,710389,710389,2023-07-12T09:34:06Z,710401.94,NULL,Respekt,heshima,s,changamnao,upinzani,ufanisi,heshima,NA,NA,2,NA,NA,NA,NA,NA,NA,NA,NA,NA,NA,NA,NA,NA,NA,NA,NA,NA,NA,NA
b7c4f,"""Richtig""-Screen",canvas.Screen,3_0_2_0_3_1_1,NA,NA,timeout,4999.3600000001,710393,710386.04,710401.94,715384.68,715386,2023-07-12T09:34:11Z,715401.3,NULL,Respekt,heshima,s,changamnao,upinzani,ufanisi,NA,sdf,1,2,NA,NA,NA,NA,NA,NA,NA,NA,NA,NA,NA,NA,NA,NA,NA,NA,NA,NA,NA
b7c4f,"""Falsch""-Screen",canvas.Screen,3_0_2_0_3_1_2,NA,NA,skipped,NA,715393,NA,NA,715384.68,715393,2023-07-12T09:34:11Z,715401.3,NULL,Respekt,heshima,s,changamnao,upinzani,ufanisi,NA,sdf,NA,2,NA,NA,NA,NA,NA,NA,NA,NA,NA,NA,NA,NA,NA,NA,NA,NA,NA,NA,NA
b7c4f,shallow,flow.Sequence,3_0_2_0_3_1,NA,NA,completion,12598.36,702783,702769.66,702786.32,715384.68,715394,2023-07-12T09:34:11Z,715401.3,NULL,Respekt,heshima,s,changamnao,upinzani,ufanisi,NA,sdf,NA,2,NA,NA,NA,NA,NA,NA,NA,NA,NA,NA,NA,NA,NA,NA,NA,NA,NA,NA,NA
b7c4f,task,flow.Sequence,3_0_2_0_3,NA,NA,completion,12598.36,702782,702769.66,702786.32,715384.68,715395,2023-07-12T09:34:11Z,715401.3,NULL,Respekt,heshima,s,changamnao,upinzani,ufanisi,NA,sdf,NA,2,NA,NA,NA,NA,NA,NA,NA,NA,NA,NA,NA,NA,NA,NA,NA,NA,NA,NA,NA
b7c4f,Deep Question,html.Page,3_0_2_0_4_0_0,NA,NA,form submission,3092.7,715396,715384.68,715401.3,718494,718495,2023-07-12T09:34:15Z,718500.9,NULL,Betrüger,mdanganyifu,d,NA,NA,NA,mw,NA,NA,2,NA,NA,NA,NA,NA,NA,NA,NA,NA,NA,NA,NA,NA,NA,NA,NA,NA,NA,NA
b7c4f,"""Richtig""-Screen",canvas.Screen,3_0_2_0_4_0_1,NA,NA,skipped,NA,718497,NA,NA,718494,718497,2023-07-12T09:34:15Z,718500.9,NULL,Betrüger,mdanganyifu,d,NA,NA,NA,NA,sdf,NA,2,NA,NA,NA,NA,NA,NA,NA,NA,NA,NA,NA,NA,NA,NA,NA,NA,NA,NA,NA
b7c4f,"""Falsch""-Screen",canvas.Screen,3_0_2_0_4_0_2,NA,NA,timeout,4999.3199999999,718500,718492.82,718500.9,723483.62,723485,2023-07-12T09:34:20Z,723500.22,NULL,Betrüger,mdanganyifu,d,NA,NA,NA,NA,sdf,0,2,NA,NA,NA,NA,NA,NA,NA,NA,NA,NA,NA,NA,NA,NA,NA,NA,NA,NA,NA
b7c4f,deep,flow.Sequence,3_0_2_0_4_0,NA,NA,completion,8082.3199999999,715396,715384.68,715401.3,723483.62,723486,2023-07-12T09:34:20Z,723500.22,NULL,Betrüger,mdanganyifu,d,NA,NA,NA,NA,sdf,NA,2,NA,NA,NA,NA,NA,NA,NA,NA,NA,NA,NA,NA,NA,NA,NA,NA,NA,NA,NA
b7c4f,shallow,flow.Sequence,3_0_2_0_4_1,NA,NA,skipped,NA,723486,NA,NA,723483.62,723486,2023-07-12T09:34:20Z,723500.22,NULL,Betrüger,mdanganyifu,d,NA,NA,NA,NA,sdf,NA,2,NA,NA,NA,NA,NA,NA,NA,NA,NA,NA,NA,NA,NA,NA,NA,NA,NA,NA,NA
b7c4f,task,flow.Sequence,3_0_2_0_4,NA,NA,completion,8082.3199999999,715396,715384.68,715401.3,723483.62,723486,2023-07-12T09:34:20Z,723500.22,NULL,Betrüger,mdanganyifu,d,NA,NA,NA,NA,sdf,NA,2,NA,NA,NA,NA,NA,NA,NA,NA,NA,NA,NA,NA,NA,NA,NA,NA,NA,NA,NA
b7c4f,Deep Question,html.Page,3_0_2_0_5_0_0,NA,NA,form submission,8102.78,723486,723483.62,723500.22,731603,731603,2023-07-12T09:34:28Z,731602.78,NULL,Kontrolle,kudhibiti,d,NA,NA,NA,konyongo,NA,NA,2,NA,NA,NA,NA,NA,NA,NA,NA,NA,NA,NA,NA,NA,NA,NA,NA,NA,NA,NA
b7c4f,"""Richtig""-Screen",canvas.Screen,3_0_2_0_5_0_1,NA,NA,skipped,NA,731607,NA,NA,731603,731607,2023-07-12T09:34:28Z,731602.78,NULL,Kontrolle,kudhibiti,d,NA,NA,NA,NA,sdf,NA,2,NA,NA,NA,NA,NA,NA,NA,NA,NA,NA,NA,NA,NA,NA,NA,NA,NA,NA,NA
b7c4f,"""Falsch""-Screen",canvas.Screen,3_0_2_0_5_0_2,NA,NA,timeout,4995.84,731610,731602.42,731602.78,736581.96,736583,2023-07-12T09:34:33Z,736598.62,NULL,Kontrolle,kudhibiti,d,NA,NA,NA,NA,sdf,0,2,NA,NA,NA,NA,NA,NA,NA,NA,NA,NA,NA,NA,NA,NA,NA,NA,NA,NA,NA
b7c4f,deep,flow.Sequence,3_0_2_0_5_0,NA,NA,completion,13081.74,723486,723483.62,723500.22,736581.96,736583,2023-07-12T09:34:33Z,736598.62,NULL,Kontrolle,kudhibiti,d,NA,NA,NA,NA,sdf,NA,2,NA,NA,NA,NA,NA,NA,NA,NA,NA,NA,NA,NA,NA,NA,NA,NA,NA,NA,NA
b7c4f,shallow,flow.Sequence,3_0_2_0_5_1,NA,NA,skipped,NA,736583,NA,NA,736581.96,736583,2023-07-12T09:34:33Z,736598.62,NULL,Kontrolle,kudhibiti,d,NA,NA,NA,NA,sdf,NA,2,NA,NA,NA,NA,NA,NA,NA,NA,NA,NA,NA,NA,NA,NA,NA,NA,NA,NA,NA
b7c4f,task,flow.Sequence,3_0_2_0_5,NA,NA,completion,13081.74,723486,723483.62,723500.22,736581.96,736584,2023-07-12T09:34:33Z,736598.62,NULL,Kontrolle,kudhibiti,d,NA,NA,NA,NA,sdf,NA,2,NA,NA,NA,NA,NA,NA,NA,NA,NA,NA,NA,NA,NA,NA,NA,NA,NA,NA,NA
b7c4f,deep,flow.Sequence,3_0_2_0_6_0,NA,NA,skipped,NA,736585,NA,NA,736581.96,736585,2023-07-12T09:34:33Z,736598.62,NULL,Kreativität,ubunifu,s,mratibu,mwendelezo,makubaliano,NA,sdf,NA,2,NA,NA,NA,NA,NA,NA,NA,NA,NA,NA,NA,NA,NA,NA,NA,NA,NA,NA,NA
b7c4f,Shallow Question,html.Page,3_0_2_0_6_1_0,NA,NA,form submission,11848.38,736585,736581.96,736598.62,748447,748448,2023-07-12T09:34:44Z,748447.04,NULL,Kreativität,ubunifu,s,mratibu,mwendelezo,makubaliano,ubunifu,NA,NA,2,NA,NA,NA,NA,NA,NA,NA,NA,NA,NA,NA,NA,NA,NA,NA,NA,NA,NA,NA
b7c4f,"""Richtig""-Screen",canvas.Screen,3_0_2_0_6_1_1,NA,NA,timeout,4999.38,748454,748442.36,748447.04,753429.76,753430,2023-07-12T09:34:49Z,753446.42,NULL,Kreativität,ubunifu,s,mratibu,mwendelezo,makubaliano,NA,sdf,1,2,NA,NA,NA,NA,NA,NA,NA,NA,NA,NA,NA,NA,NA,NA,NA,NA,NA,NA,NA
b7c4f,"""Falsch""-Screen",canvas.Screen,3_0_2_0_6_1_2,NA,NA,skipped,NA,753436,NA,NA,753429.76,753437,2023-07-12T09:34:49Z,753446.42,NULL,Kreativität,ubunifu,s,mratibu,mwendelezo,makubaliano,NA,sdf,NA,2,NA,NA,NA,NA,NA,NA,NA,NA,NA,NA,NA,NA,NA,NA,NA,NA,NA,NA,NA
b7c4f,shallow,flow.Sequence,3_0_2_0_6_1,NA,NA,completion,16831.14,736585,736581.96,736598.62,753429.76,753437,2023-07-12T09:34:49Z,753446.42,NULL,Kreativität,ubunifu,s,mratibu,mwendelezo,makubaliano,NA,sdf,NA,2,NA,NA,NA,NA,NA,NA,NA,NA,NA,NA,NA,NA,NA,NA,NA,NA,NA,NA,NA
b7c4f,task,flow.Sequence,3_0_2_0_6,NA,NA,completion,16831.14,736585,736581.96,736598.62,753429.76,753437,2023-07-12T09:34:49Z,753446.42,NULL,Kreativität,ubunifu,s,mratibu,mwendelezo,makubaliano,NA,sdf,NA,2,NA,NA,NA,NA,NA,NA,NA,NA,NA,NA,NA,NA,NA,NA,NA,NA,NA,NA,NA
b7c4f,deep,flow.Sequence,3_0_2_0_7_0,NA,NA,skipped,NA,753438,NA,NA,753429.76,753438,2023-07-12T09:34:49Z,753446.42,NULL,Können,unaweza,s,kiongozi,bustani,mienendo,NA,sdf,NA,2,NA,NA,NA,NA,NA,NA,NA,NA,NA,NA,NA,NA,NA,NA,NA,NA,NA,NA,NA
b7c4f,Shallow Question,html.Page,3_0_2_0_7_1_0,NA,NA,form submission,14863.58,753438,753429.76,753446.42,768310,768310,2023-07-12T09:35:04Z,768311.1,NULL,Können,unaweza,s,kiongozi,bustani,mienendo,unaweza,NA,NA,2,NA,NA,NA,NA,NA,NA,NA,NA,NA,NA,NA,NA,NA,NA,NA,NA,NA,NA,NA
b7c4f,"""Richtig""-Screen",canvas.Screen,3_0_2_0_7_1_1,NA,NA,timeout,4999.34,768314,768305.74,768311.1,773293.78,773295,2023-07-12T09:35:09Z,773310.44,NULL,Können,unaweza,s,kiongozi,bustani,mienendo,NA,sdf,1,2,NA,NA,NA,NA,NA,NA,NA,NA,NA,NA,NA,NA,NA,NA,NA,NA,NA,NA,NA
b7c4f,"""Falsch""-Screen",canvas.Screen,3_0_2_0_7_1_2,NA,NA,skipped,NA,773297,NA,NA,773293.78,773297,2023-07-12T09:35:09Z,773310.44,NULL,Können,unaweza,s,kiongozi,bustani,mienendo,NA,sdf,NA,2,NA,NA,NA,NA,NA,NA,NA,NA,NA,NA,NA,NA,NA,NA,NA,NA,NA,NA,NA
b7c4f,shallow,flow.Sequence,3_0_2_0_7_1,NA,NA,completion,19847.36,753438,753429.76,753446.42,773293.78,773297,2023-07-12T09:35:09Z,773310.44,NULL,Können,unaweza,s,kiongozi,bustani,mienendo,NA,sdf,NA,2,NA,NA,NA,NA,NA,NA,NA,NA,NA,NA,NA,NA,NA,NA,NA,NA,NA,NA,NA
b7c4f,task,flow.Sequence,3_0_2_0_7,NA,NA,completion,19847.36,753438,753429.76,753446.42,773293.78,773297,2023-07-12T09:35:09Z,773310.44,NULL,Können,unaweza,s,kiongozi,bustani,mienendo,NA,sdf,NA,2,NA,NA,NA,NA,NA,NA,NA,NA,NA,NA,NA,NA,NA,NA,NA,NA,NA,NA,NA
b7c4f,block,flow.Loop,3_0_2_0,NA,NA,completion,112315.7,660978,660977.7,660978.08,773293.78,773298,2023-07-12T09:35:09Z,773310.44,NULL,NA,NA,NA,NA,NA,NA,NA,sdf,NA,2,NA,NA,NA,NA,NA,NA,NA,NA,NA,NA,NA,NA,NA,NA,NA,NA,NA,NA,NA
b7c4f,weiter,canvas.Screen,3_0_2_1,sdf,keypress(Space),response,1004.5600000001,773298,773293.78,773310.44,774315,774335,2023-07-12T09:35:10Z,774401.44,NULL,NA,NA,NA,NA,NA,NA,NA,sdf,NA,2,NA,NA,NA,NA,NA,NA,NA,NA,NA,NA,NA,NA,NA,NA,NA,NA,NA,NA,NA
b7c4f,check continue,flow.Sequence,3_0_2,NA,NA,completion,113336.92,660978,660977.7,660978.08,774315,774336,2023-07-12T09:35:10Z,774401.44,NULL,NA,NA,NA,NA,NA,NA,NA,sdf,NA,2,NA,NA,NA,NA,NA,NA,NA,NA,NA,NA,NA,NA,NA,NA,NA,NA,NA,NA,NA
b7c4f,deep,flow.Sequence,3_0_3_0_0_0,NA,NA,skipped,NA,774401,NA,NA,774315,774401,2023-07-12T09:35:10Z,774401.44,NULL,Können,unaweza,s,kiongozi,bustani,mienendo,NA,qt,NA,3,NA,NA,NA,NA,NA,NA,NA,NA,NA,NA,NA,NA,NA,NA,NA,NA,NA,NA,NA
b7c4f,Shallow Question,html.Page,3_0_3_0_0_1_0,NA,NA,form submission,3091.5600000001,774401,774401,774401.44,777493,777494,2023-07-12T09:35:14Z,777492.66,NULL,Können,unaweza,s,kiongozi,bustani,mienendo,unaweza,NA,NA,3,NA,NA,NA,NA,NA,NA,NA,NA,NA,NA,NA,NA,NA,NA,NA,NA,NA,NA,NA
b7c4f,"""Richtig""-Screen",canvas.Screen,3_0_3_0_0_1_1,NA,NA,timeout,5000,777496,777492.24,777492.66,782475.98,782478,2023-07-12T09:35:18Z,782492.66,NULL,Können,unaweza,s,kiongozi,bustani,mienendo,NA,qt,1,3,NA,NA,NA,NA,NA,NA,NA,NA,NA,NA,NA,NA,NA,NA,NA,NA,NA,NA,NA
b7c4f,"""Falsch""-Screen",canvas.Screen,3_0_3_0_0_1_2,NA,NA,skipped,NA,782484,NA,NA,782475.98,782484,2023-07-12T09:35:19Z,782492.66,NULL,Können,unaweza,s,kiongozi,bustani,mienendo,NA,qt,NA,3,NA,NA,NA,NA,NA,NA,NA,NA,NA,NA,NA,NA,NA,NA,NA,NA,NA,NA,NA
b7c4f,shallow,flow.Sequence,3_0_3_0_0_1,NA,NA,completion,8074.54,774401,774401,774401.44,782475.98,782484,2023-07-12T09:35:19Z,782492.66,NULL,Können,unaweza,s,kiongozi,bustani,mienendo,NA,qt,NA,3,NA,NA,NA,NA,NA,NA,NA,NA,NA,NA,NA,NA,NA,NA,NA,NA,NA,NA,NA
b7c4f,task,flow.Sequence,3_0_3_0_0,NA,NA,completion,8074.54,774401,774401,774401.44,782475.98,782485,2023-07-12T09:35:19Z,782492.66,NULL,Können,unaweza,s,kiongozi,bustani,mienendo,NA,qt,NA,3,NA,NA,NA,NA,NA,NA,NA,NA,NA,NA,NA,NA,NA,NA,NA,NA,NA,NA,NA
b7c4f,Deep Question,html.Page,3_0_3_0_1_0_0,NA,NA,form submission,5753.34,782485,782475.98,782492.66,788246,788247,2023-07-12T09:35:24Z,788245.36,NULL,Kontrolle,kudhibiti,d,NA,NA,NA,kudhibti,NA,NA,3,NA,NA,NA,NA,NA,NA,NA,NA,NA,NA,NA,NA,NA,NA,NA,NA,NA,NA,NA
b7c4f,"""Richtig""-Screen",canvas.Screen,3_0_3_0_1_0_1,NA,NA,skipped,NA,788249,NA,NA,788246,788249,2023-07-12T09:35:24Z,788245.36,NULL,Kontrolle,kudhibiti,d,NA,NA,NA,NA,qt,NA,3,NA,NA,NA,NA,NA,NA,NA,NA,NA,NA,NA,NA,NA,NA,NA,NA,NA,NA,NA
b7c4f,"""Falsch""-Screen",canvas.Screen,3_0_3_0_1_0_2,NA,NA,timeout,4995.92,788251,788245.08,788245.36,793224.64,793229,2023-07-12T09:35:29Z,793241.28,NULL,Kontrolle,kudhibiti,d,NA,NA,NA,NA,qt,0,3,NA,NA,NA,NA,NA,NA,NA,NA,NA,NA,NA,NA,NA,NA,NA,NA,NA,NA,NA
b7c4f,deep,flow.Sequence,3_0_3_0_1_0,NA,NA,completion,10731.98,782485,782475.98,782492.66,793224.64,793231,2023-07-12T09:35:29Z,793241.28,NULL,Kontrolle,kudhibiti,d,NA,NA,NA,NA,qt,NA,3,NA,NA,NA,NA,NA,NA,NA,NA,NA,NA,NA,NA,NA,NA,NA,NA,NA,NA,NA
b7c4f,shallow,flow.Sequence,3_0_3_0_1_1,NA,NA,skipped,NA,793231,NA,NA,793224.64,793232,2023-07-12T09:35:29Z,793241.28,NULL,Kontrolle,kudhibiti,d,NA,NA,NA,NA,qt,NA,3,NA,NA,NA,NA,NA,NA,NA,NA,NA,NA,NA,NA,NA,NA,NA,NA,NA,NA,NA
b7c4f,task,flow.Sequence,3_0_3_0_1,NA,NA,completion,10731.98,782485,782475.98,782492.66,793224.64,793233,2023-07-12T09:35:29Z,793241.28,NULL,Kontrolle,kudhibiti,d,NA,NA,NA,NA,qt,NA,3,NA,NA,NA,NA,NA,NA,NA,NA,NA,NA,NA,NA,NA,NA,NA,NA,NA,NA,NA
b7c4f,Deep Question,html.Page,3_0_3_0_2_0_0,NA,NA,form submission,21958.72,793234,793224.64,793241.28,815200,815201,2023-07-12T09:35:51Z,815205.14,NULL,Gefährdung,kuhatarisha,d,NA,NA,NA,ubunifu,NA,NA,3,NA,NA,NA,NA,NA,NA,NA,NA,NA,NA,NA,NA,NA,NA,NA,NA,NA,NA,NA
b7c4f,"""Richtig""-Screen",canvas.Screen,3_0_3_0_2_0_1,NA,NA,skipped,NA,815209,NA,NA,815200,815209,2023-07-12T09:35:51Z,815205.14,NULL,Gefährdung,kuhatarisha,d,NA,NA,NA,NA,qt,NA,3,NA,NA,NA,NA,NA,NA,NA,NA,NA,NA,NA,NA,NA,NA,NA,NA,NA,NA,NA
b7c4f,"""Falsch""-Screen",canvas.Screen,3_0_3_0_2_0_2,NA,NA,timeout,4999.28,815213,815199.26,815205.14,820187.76,820190,2023-07-12T09:35:56Z,820204.42,NULL,Gefährdung,kuhatarisha,d,NA,NA,NA,NA,qt,0,3,NA,NA,NA,NA,NA,NA,NA,NA,NA,NA,NA,NA,NA,NA,NA,NA,NA,NA,NA
b7c4f,deep,flow.Sequence,3_0_3_0_2_0,NA,NA,completion,26946.48,793234,793224.64,793241.28,820187.76,820190,2023-07-12T09:35:56Z,820204.42,NULL,Gefährdung,kuhatarisha,d,NA,NA,NA,NA,qt,NA,3,NA,NA,NA,NA,NA,NA,NA,NA,NA,NA,NA,NA,NA,NA,NA,NA,NA,NA,NA
b7c4f,shallow,flow.Sequence,3_0_3_0_2_1,NA,NA,skipped,NA,820191,NA,NA,820187.76,820191,2023-07-12T09:35:56Z,820204.42,NULL,Gefährdung,kuhatarisha,d,NA,NA,NA,NA,qt,NA,3,NA,NA,NA,NA,NA,NA,NA,NA,NA,NA,NA,NA,NA,NA,NA,NA,NA,NA,NA
b7c4f,task,flow.Sequence,3_0_3_0_2,NA,NA,completion,26946.48,793234,793224.64,793241.28,820187.76,820192,2023-07-12T09:35:56Z,820204.42,NULL,Gefährdung,kuhatarisha,d,NA,NA,NA,NA,qt,NA,3,NA,NA,NA,NA,NA,NA,NA,NA,NA,NA,NA,NA,NA,NA,NA,NA,NA,NA,NA
b7c4f,deep,flow.Sequence,3_0_3_0_3_0,NA,NA,skipped,NA,820192,NA,NA,820187.76,820194,2023-07-12T09:35:56Z,820204.42,NULL,Kreativität,ubunifu,s,mratibu,mwendelezo,makubaliano,NA,qt,NA,3,NA,NA,NA,NA,NA,NA,NA,NA,NA,NA,NA,NA,NA,NA,NA,NA,NA,NA,NA
b7c4f,Shallow Question,html.Page,3_0_3_0_3_1_0,NA,NA,form submission,4011.58,820195,820187.76,820204.42,824216,824217,2023-07-12T09:36:00Z,824220.66,NULL,Kreativität,ubunifu,s,mratibu,mwendelezo,makubaliano,ubunifu,NA,NA,3,NA,NA,NA,NA,NA,NA,NA,NA,NA,NA,NA,NA,NA,NA,NA,NA,NA,NA,NA
b7c4f,"""Richtig""-Screen",canvas.Screen,3_0_3_0_3_1_1,NA,NA,timeout,4999.2799999999,824221,824209.56,824220.66,829203.34,829205,2023-07-12T09:36:05Z,829219.94,NULL,Kreativität,ubunifu,s,mratibu,mwendelezo,makubaliano,NA,qt,1,3,NA,NA,NA,NA,NA,NA,NA,NA,NA,NA,NA,NA,NA,NA,NA,NA,NA,NA,NA
b7c4f,"""Falsch""-Screen",canvas.Screen,3_0_3_0_3_1_2,NA,NA,skipped,NA,829211,NA,NA,829203.34,829212,2023-07-12T09:36:05Z,829219.94,NULL,Kreativität,ubunifu,s,mratibu,mwendelezo,makubaliano,NA,qt,NA,3,NA,NA,NA,NA,NA,NA,NA,NA,NA,NA,NA,NA,NA,NA,NA,NA,NA,NA,NA
b7c4f,shallow,flow.Sequence,3_0_3_0_3_1,NA,NA,completion,8998.9199999999,820195,820187.76,820204.42,829203.34,829212,2023-07-12T09:36:05Z,829219.94,NULL,Kreativität,ubunifu,s,mratibu,mwendelezo,makubaliano,NA,qt,NA,3,NA,NA,NA,NA,NA,NA,NA,NA,NA,NA,NA,NA,NA,NA,NA,NA,NA,NA,NA
b7c4f,task,flow.Sequence,3_0_3_0_3,NA,NA,completion,8998.9199999999,820192,820187.76,820204.42,829203.34,829212,2023-07-12T09:36:05Z,829219.94,NULL,Kreativität,ubunifu,s,mratibu,mwendelezo,makubaliano,NA,qt,NA,3,NA,NA,NA,NA,NA,NA,NA,NA,NA,NA,NA,NA,NA,NA,NA,NA,NA,NA,NA
b7c4f,Deep Question,html.Page,3_0_3_0_4_0_0,NA,NA,form submission,3833.0600000001,829213,829203.34,829219.94,833053,833054,2023-07-12T09:36:09Z,833052.8,NULL,Betrüger,mdanganyifu,d,NA,NA,NA,kd,NA,NA,3,NA,NA,NA,NA,NA,NA,NA,NA,NA,NA,NA,NA,NA,NA,NA,NA,NA,NA,NA
b7c4f,"""Richtig""-Screen",canvas.Screen,3_0_3_0_4_0_1,NA,NA,skipped,NA,833056,NA,NA,833053,833056,2023-07-12T09:36:09Z,833052.8,NULL,Betrüger,mdanganyifu,d,NA,NA,NA,NA,qt,NA,3,NA,NA,NA,NA,NA,NA,NA,NA,NA,NA,NA,NA,NA,NA,NA,NA,NA,NA,NA
b7c4f,"""Falsch""-Screen",canvas.Screen,3_0_3_0_4_0_2,NA,NA,timeout,4999.34,833060,833051.92,833052.8,838035.52,838037,2023-07-12T09:36:14Z,838052.14,NULL,Betrüger,mdanganyifu,d,NA,NA,NA,NA,qt,0,3,NA,NA,NA,NA,NA,NA,NA,NA,NA,NA,NA,NA,NA,NA,NA,NA,NA,NA,NA
b7c4f,deep,flow.Sequence,3_0_3_0_4_0,NA,NA,completion,8815.5800000001,829213,829203.34,829219.94,838035.52,838037,2023-07-12T09:36:14Z,838052.14,NULL,Betrüger,mdanganyifu,d,NA,NA,NA,NA,qt,NA,3,NA,NA,NA,NA,NA,NA,NA,NA,NA,NA,NA,NA,NA,NA,NA,NA,NA,NA,NA
b7c4f,shallow,flow.Sequence,3_0_3_0_4_1,NA,NA,skipped,NA,838038,NA,NA,838035.52,838038,2023-07-12T09:36:14Z,838052.14,NULL,Betrüger,mdanganyifu,d,NA,NA,NA,NA,qt,NA,3,NA,NA,NA,NA,NA,NA,NA,NA,NA,NA,NA,NA,NA,NA,NA,NA,NA,NA,NA
b7c4f,task,flow.Sequence,3_0_3_0_4,NA,NA,completion,8815.5800000001,829213,829203.34,829219.94,838035.52,838039,2023-07-12T09:36:14Z,838052.14,NULL,Betrüger,mdanganyifu,d,NA,NA,NA,NA,qt,NA,3,NA,NA,NA,NA,NA,NA,NA,NA,NA,NA,NA,NA,NA,NA,NA,NA,NA,NA,NA
b7c4f,Deep Question,html.Page,3_0_3_0_5_0_0,NA,NA,form submission,10735.86,838039,838035.52,838052.14,848788,848791,2023-07-12T09:36:25Z,848800.8,NULL,Stimmung,kinyongo,d,NA,NA,NA,k,NA,NA,3,NA,NA,NA,NA,NA,NA,NA,NA,NA,NA,NA,NA,NA,NA,NA,NA,NA,NA,NA
b7c4f,"""Richtig""-Screen",canvas.Screen,3_0_3_0_5_0_1,NA,NA,skipped,NA,848800,NA,NA,848788,848800,2023-07-12T09:36:25Z,848800.8,NULL,Stimmung,kinyongo,d,NA,NA,NA,NA,qt,NA,3,NA,NA,NA,NA,NA,NA,NA,NA,NA,NA,NA,NA,NA,NA,NA,NA,NA,NA,NA
b7c4f,"""Falsch""-Screen",canvas.Screen,3_0_3_0_5_0_2,NA,NA,timeout,4999.38,848802,848785.96,848800.8,853783.52,853785,2023-07-12T09:36:30Z,853800.18,NULL,Stimmung,kinyongo,d,NA,NA,NA,NA,qt,0,3,NA,NA,NA,NA,NA,NA,NA,NA,NA,NA,NA,NA,NA,NA,NA,NA,NA,NA,NA
b7c4f,deep,flow.Sequence,3_0_3_0_5_0,NA,NA,completion,15731.38,838039,838035.52,838052.14,853783.52,853786,2023-07-12T09:36:30Z,853800.18,NULL,Stimmung,kinyongo,d,NA,NA,NA,NA,qt,NA,3,NA,NA,NA,NA,NA,NA,NA,NA,NA,NA,NA,NA,NA,NA,NA,NA,NA,NA,NA
b7c4f,shallow,flow.Sequence,3_0_3_0_5_1,NA,NA,skipped,NA,853786,NA,NA,853783.52,853786,2023-07-12T09:36:30Z,853800.18,NULL,Stimmung,kinyongo,d,NA,NA,NA,NA,qt,NA,3,NA,NA,NA,NA,NA,NA,NA,NA,NA,NA,NA,NA,NA,NA,NA,NA,NA,NA,NA
b7c4f,task,flow.Sequence,3_0_3_0_5,NA,NA,completion,15731.38,838039,838035.52,838052.14,853783.52,853787,2023-07-12T09:36:30Z,853800.18,NULL,Stimmung,kinyongo,d,NA,NA,NA,NA,qt,NA,3,NA,NA,NA,NA,NA,NA,NA,NA,NA,NA,NA,NA,NA,NA,NA,NA,NA,NA,NA
b7c4f,deep,flow.Sequence,3_0_3_0_6_0,NA,NA,skipped,NA,853788,NA,NA,853783.52,853788,2023-07-12T09:36:30Z,853800.18,NULL,Respekt,heshima,s,changamnao,upinzani,ufanisi,NA,qt,NA,3,NA,NA,NA,NA,NA,NA,NA,NA,NA,NA,NA,NA,NA,NA,NA,NA,NA,NA,NA
b7c4f,Shallow Question,html.Page,3_0_3_0_6_1_0,NA,NA,form submission,11070.82,853789,853783.52,853800.18,864871,864872,2023-07-12T09:36:41Z,864882,NULL,Respekt,heshima,s,changamnao,upinzani,ufanisi,heshima,NA,NA,3,NA,NA,NA,NA,NA,NA,NA,NA,NA,NA,NA,NA,NA,NA,NA,NA,NA,NA,NA
b7c4f,"""Richtig""-Screen",canvas.Screen,3_0_3_0_6_1_1,NA,NA,timeout,4999.26,864874,864868.44,864882,869864.6,869866,2023-07-12T09:36:46Z,869881.26,NULL,Respekt,heshima,s,changamnao,upinzani,ufanisi,NA,qt,1,3,NA,NA,NA,NA,NA,NA,NA,NA,NA,NA,NA,NA,NA,NA,NA,NA,NA,NA,NA
b7c4f,"""Falsch""-Screen",canvas.Screen,3_0_3_0_6_1_2,NA,NA,skipped,NA,869873,NA,NA,869864.6,869874,2023-07-12T09:36:46Z,869881.26,NULL,Respekt,heshima,s,changamnao,upinzani,ufanisi,NA,qt,NA,3,NA,NA,NA,NA,NA,NA,NA,NA,NA,NA,NA,NA,NA,NA,NA,NA,NA,NA,NA
b7c4f,shallow,flow.Sequence,3_0_3_0_6_1,NA,NA,completion,16064.42,853789,853783.52,853800.18,869864.6,869875,2023-07-12T09:36:46Z,869881.26,NULL,Respekt,heshima,s,changamnao,upinzani,ufanisi,NA,qt,NA,3,NA,NA,NA,NA,NA,NA,NA,NA,NA,NA,NA,NA,NA,NA,NA,NA,NA,NA,NA
b7c4f,task,flow.Sequence,3_0_3_0_6,NA,NA,completion,16064.42,853788,853783.52,853800.18,869864.6,869876,2023-07-12T09:36:46Z,869881.26,NULL,Respekt,heshima,s,changamnao,upinzani,ufanisi,NA,qt,NA,3,NA,NA,NA,NA,NA,NA,NA,NA,NA,NA,NA,NA,NA,NA,NA,NA,NA,NA,NA
b7c4f,deep,flow.Sequence,3_0_3_0_7_0,NA,NA,skipped,NA,869876,NA,NA,869864.6,869876,2023-07-12T09:36:46Z,869881.26,NULL,Orientierung,urekebisho,s,uelekeo,marekebisho,utunzaji,NA,qt,NA,3,NA,NA,NA,NA,NA,NA,NA,NA,NA,NA,NA,NA,NA,NA,NA,NA,NA,NA,NA
b7c4f,Shallow Question,html.Page,3_0_3_0_7_1_0,NA,NA,form submission,18166.74,869876,869864.6,869881.26,888048,888049,2023-07-12T09:37:04Z,888045.62,NULL,Orientierung,urekebisho,s,uelekeo,marekebisho,utunzaji,urekebisho,NA,NA,3,NA,NA,NA,NA,NA,NA,NA,NA,NA,NA,NA,NA,NA,NA,NA,NA,NA,NA,NA
b7c4f,"""Richtig""-Screen",canvas.Screen,3_0_3_0_7_1_1,NA,NA,timeout,4999.4,888052,888045.3,888045.62,893028.42,893030,2023-07-12T09:37:09Z,893045.02,NULL,Orientierung,urekebisho,s,uelekeo,marekebisho,utunzaji,NA,qt,1,3,NA,NA,NA,NA,NA,NA,NA,NA,NA,NA,NA,NA,NA,NA,NA,NA,NA,NA,NA
b7c4f,"""Falsch""-Screen",canvas.Screen,3_0_3_0_7_1_2,NA,NA,skipped,NA,893037,NA,NA,893028.42,893038,2023-07-12T09:37:09Z,893045.02,NULL,Orientierung,urekebisho,s,uelekeo,marekebisho,utunzaji,NA,qt,NA,3,NA,NA,NA,NA,NA,NA,NA,NA,NA,NA,NA,NA,NA,NA,NA,NA,NA,NA,NA
b7c4f,shallow,flow.Sequence,3_0_3_0_7_1,NA,NA,completion,23147.16,869876,869864.6,869881.26,893028.42,893038,2023-07-12T09:37:09Z,893045.02,NULL,Orientierung,urekebisho,s,uelekeo,marekebisho,utunzaji,NA,qt,NA,3,NA,NA,NA,NA,NA,NA,NA,NA,NA,NA,NA,NA,NA,NA,NA,NA,NA,NA,NA
b7c4f,task,flow.Sequence,3_0_3_0_7,NA,NA,completion,23147.16,869876,869864.6,869881.26,893028.42,893038,2023-07-12T09:37:09Z,893045.02,NULL,Orientierung,urekebisho,s,uelekeo,marekebisho,utunzaji,NA,qt,NA,3,NA,NA,NA,NA,NA,NA,NA,NA,NA,NA,NA,NA,NA,NA,NA,NA,NA,NA,NA
b7c4f,block,flow.Loop,3_0_3_0,NA,NA,completion,118626.98,774401,774401,774401.44,893028.42,893039,2023-07-12T09:37:09Z,893045.02,NULL,NA,NA,NA,NA,NA,NA,NA,qt,NA,3,NA,NA,NA,NA,NA,NA,NA,NA,NA,NA,NA,NA,NA,NA,NA,NA,NA,NA,NA
b7c4f,weiter,canvas.Screen,3_0_3_1,sdf,keypress(Space),response,1129.98,893039,893028.42,893045.02,894175,894194,2023-07-12T09:37:10Z,894259.22,NULL,NA,NA,NA,NA,NA,NA,NA,qt,NA,3,NA,NA,NA,NA,NA,NA,NA,NA,NA,NA,NA,NA,NA,NA,NA,NA,NA,NA,NA
b7c4f,check continue,flow.Sequence,3_0_3,NA,NA,completion,119773.56,774401,774401,774401.44,894175,894195,2023-07-12T09:37:10Z,894259.22,NULL,NA,NA,NA,NA,NA,NA,NA,qt,NA,3,NA,NA,NA,NA,NA,NA,NA,NA,NA,NA,NA,NA,NA,NA,NA,NA,NA,NA,NA
b7c4f,Deep Question,html.Page,3_0_4_0_0_0_0,NA,NA,form submission,12542.78,894259,894258.9,894259.22,906802,906802,2023-07-12T09:37:23Z,906801.86,NULL,Kontrolle,kudhibiti,d,NA,NA,NA,kudhibiti,NA,NA,4,NA,NA,NA,NA,NA,NA,NA,NA,NA,NA,NA,NA,NA,NA,NA,NA,NA,NA,NA
b7c4f,"""Richtig""-Screen",canvas.Screen,3_0_4_0_0_0_1,NA,NA,timeout,5007.34,906805,906801.48,906801.86,911792.54,911794,2023-07-12T09:37:28Z,911809.2,NULL,Kontrolle,kudhibiti,d,NA,NA,NA,NA,sd,1,4,NA,NA,NA,NA,NA,NA,NA,NA,NA,NA,NA,NA,NA,NA,NA,NA,NA,NA,NA
b7c4f,"""Falsch""-Screen",canvas.Screen,3_0_4_0_0_0_2,NA,NA,skipped,NA,911797,NA,NA,911792.54,911797,2023-07-12T09:37:28Z,911809.2,NULL,Kontrolle,kudhibiti,d,NA,NA,NA,NA,sd,NA,4,NA,NA,NA,NA,NA,NA,NA,NA,NA,NA,NA,NA,NA,NA,NA,NA,NA,NA,NA
b7c4f,deep,flow.Sequence,3_0_4_0_0_0,NA,NA,completion,17533.32,894259,894258.9,894259.22,911792.54,911797,2023-07-12T09:37:28Z,911809.2,NULL,Kontrolle,kudhibiti,d,NA,NA,NA,NA,sd,NA,4,NA,NA,NA,NA,NA,NA,NA,NA,NA,NA,NA,NA,NA,NA,NA,NA,NA,NA,NA
b7c4f,shallow,flow.Sequence,3_0_4_0_0_1,NA,NA,skipped,NA,911797,NA,NA,911792.54,911798,2023-07-12T09:37:28Z,911809.2,NULL,Kontrolle,kudhibiti,d,NA,NA,NA,NA,sd,NA,4,NA,NA,NA,NA,NA,NA,NA,NA,NA,NA,NA,NA,NA,NA,NA,NA,NA,NA,NA
b7c4f,task,flow.Sequence,3_0_4_0_0,NA,NA,completion,17533.32,894259,894258.9,894259.22,911792.54,911798,2023-07-12T09:37:28Z,911809.2,NULL,Kontrolle,kudhibiti,d,NA,NA,NA,NA,sd,NA,4,NA,NA,NA,NA,NA,NA,NA,NA,NA,NA,NA,NA,NA,NA,NA,NA,NA,NA,NA
b7c4f,deep,flow.Sequence,3_0_4_0_1_0,NA,NA,skipped,NA,911798,NA,NA,911792.54,911799,2023-07-12T09:37:28Z,911809.2,NULL,Kreativität,ubunifu,s,mratibu,mwendelezo,makubaliano,NA,sd,NA,4,NA,NA,NA,NA,NA,NA,NA,NA,NA,NA,NA,NA,NA,NA,NA,NA,NA,NA,NA
b7c4f,Shallow Question,html.Page,3_0_4_0_1_1_0,NA,NA,form submission,3544.8,911799,911792.54,911809.2,915354,915355,2023-07-12T09:37:31Z,915358.9,NULL,Kreativität,ubunifu,s,mratibu,mwendelezo,makubaliano,ubunifu,NA,NA,4,NA,NA,NA,NA,NA,NA,NA,NA,NA,NA,NA,NA,NA,NA,NA,NA,NA,NA,NA
b7c4f,"""Richtig""-Screen",canvas.Screen,3_0_4_0_1_1_1,NA,NA,timeout,4999.36,915357,915349.6,915358.9,920341.62,920342,2023-07-12T09:37:36Z,920358.26,NULL,Kreativität,ubunifu,s,mratibu,mwendelezo,makubaliano,NA,sd,1,4,NA,NA,NA,NA,NA,NA,NA,NA,NA,NA,NA,NA,NA,NA,NA,NA,NA,NA,NA
b7c4f,"""Falsch""-Screen",canvas.Screen,3_0_4_0_1_1_2,NA,NA,skipped,NA,920349,NA,NA,920341.62,920350,2023-07-12T09:37:36Z,920358.26,NULL,Kreativität,ubunifu,s,mratibu,mwendelezo,makubaliano,NA,sd,NA,4,NA,NA,NA,NA,NA,NA,NA,NA,NA,NA,NA,NA,NA,NA,NA,NA,NA,NA,NA
b7c4f,shallow,flow.Sequence,3_0_4_0_1_1,NA,NA,completion,8532.42,911799,911792.54,911809.2,920341.62,920350,2023-07-12T09:37:36Z,920358.26,NULL,Kreativität,ubunifu,s,mratibu,mwendelezo,makubaliano,NA,sd,NA,4,NA,NA,NA,NA,NA,NA,NA,NA,NA,NA,NA,NA,NA,NA,NA,NA,NA,NA,NA
b7c4f,task,flow.Sequence,3_0_4_0_1,NA,NA,completion,8532.42,911798,911792.54,911809.2,920341.62,920350,2023-07-12T09:37:36Z,920358.26,NULL,Kreativität,ubunifu,s,mratibu,mwendelezo,makubaliano,NA,sd,NA,4,NA,NA,NA,NA,NA,NA,NA,NA,NA,NA,NA,NA,NA,NA,NA,NA,NA,NA,NA
b7c4f,deep,flow.Sequence,3_0_4_0_2_0,NA,NA,skipped,NA,920350,NA,NA,920341.62,920350,2023-07-12T09:37:36Z,920358.26,NULL,Respekt,heshima,s,changamnao,upinzani,ufanisi,NA,sd,NA,4,NA,NA,NA,NA,NA,NA,NA,NA,NA,NA,NA,NA,NA,NA,NA,NA,NA,NA,NA
b7c4f,Shallow Question,html.Page,3_0_4_0_2_1_0,NA,NA,form submission,6718.74,920351,920341.62,920358.26,927077,927078,2023-07-12T09:37:43Z,927090.62,NULL,Respekt,heshima,s,changamnao,upinzani,ufanisi,heshima,NA,NA,4,NA,NA,NA,NA,NA,NA,NA,NA,NA,NA,NA,NA,NA,NA,NA,NA,NA,NA,NA
b7c4f,"""Richtig""-Screen",canvas.Screen,3_0_4_0_2_1_1,NA,NA,timeout,4999.36,927081,927074.72,927090.62,932073.42,932075,2023-07-12T09:37:48Z,932089.98,NULL,Respekt,heshima,s,changamnao,upinzani,ufanisi,NA,sd,1,4,NA,NA,NA,NA,NA,NA,NA,NA,NA,NA,NA,NA,NA,NA,NA,NA,NA,NA,NA
b7c4f,"""Falsch""-Screen",canvas.Screen,3_0_4_0_2_1_2,NA,NA,skipped,NA,932081,NA,NA,932073.42,932081,2023-07-12T09:37:48Z,932089.98,NULL,Respekt,heshima,s,changamnao,upinzani,ufanisi,NA,sd,NA,4,NA,NA,NA,NA,NA,NA,NA,NA,NA,NA,NA,NA,NA,NA,NA,NA,NA,NA,NA
b7c4f,shallow,flow.Sequence,3_0_4_0_2_1,NA,NA,completion,11715.16,920350,920341.62,920358.26,932073.42,932081,2023-07-12T09:37:48Z,932089.98,NULL,Respekt,heshima,s,changamnao,upinzani,ufanisi,NA,sd,NA,4,NA,NA,NA,NA,NA,NA,NA,NA,NA,NA,NA,NA,NA,NA,NA,NA,NA,NA,NA
b7c4f,task,flow.Sequence,3_0_4_0_2,NA,NA,completion,11715.16,920350,920341.62,920358.26,932073.42,932081,2023-07-12T09:37:48Z,932089.98,NULL,Respekt,heshima,s,changamnao,upinzani,ufanisi,NA,sd,NA,4,NA,NA,NA,NA,NA,NA,NA,NA,NA,NA,NA,NA,NA,NA,NA,NA,NA,NA,NA
b7c4f,Deep Question,html.Page,3_0_4_0_3_0_0,NA,NA,form submission,20522.02,932081,932073.42,932089.98,952612,952612,2023-07-12T09:38:09Z,952620.66,NULL,Gefährdung,kuhatarisha,d,NA,NA,NA,kunyong,NA,NA,4,NA,NA,NA,NA,NA,NA,NA,NA,NA,NA,NA,NA,NA,NA,NA,NA,NA,NA,NA
b7c4f,"""Richtig""-Screen",canvas.Screen,3_0_4_0_3_0_1,NA,NA,skipped,NA,952615,NA,NA,952612,952615,2023-07-12T09:38:09Z,952620.66,NULL,Gefährdung,kuhatarisha,d,NA,NA,NA,NA,sd,NA,4,NA,NA,NA,NA,NA,NA,NA,NA,NA,NA,NA,NA,NA,NA,NA,NA,NA,NA,NA
b7c4f,"""Falsch""-Screen",canvas.Screen,3_0_4_0_3_0_2,NA,NA,timeout,4999.38,952619,952611.42,952620.66,957603.46,957605,2023-07-12T09:38:14Z,957620.04,NULL,Gefährdung,kuhatarisha,d,NA,NA,NA,NA,sd,0,4,NA,NA,NA,NA,NA,NA,NA,NA,NA,NA,NA,NA,NA,NA,NA,NA,NA,NA,NA
b7c4f,deep,flow.Sequence,3_0_4_0_3_0,NA,NA,completion,25513.48,932081,932073.42,932089.98,957603.46,957605,2023-07-12T09:38:14Z,957620.04,NULL,Gefährdung,kuhatarisha,d,NA,NA,NA,NA,sd,NA,4,NA,NA,NA,NA,NA,NA,NA,NA,NA,NA,NA,NA,NA,NA,NA,NA,NA,NA,NA
b7c4f,shallow,flow.Sequence,3_0_4_0_3_1,NA,NA,skipped,NA,957605,NA,NA,957603.46,957606,2023-07-12T09:38:14Z,957620.04,NULL,Gefährdung,kuhatarisha,d,NA,NA,NA,NA,sd,NA,4,NA,NA,NA,NA,NA,NA,NA,NA,NA,NA,NA,NA,NA,NA,NA,NA,NA,NA,NA
b7c4f,task,flow.Sequence,3_0_4_0_3,NA,NA,completion,25513.48,932081,932073.42,932089.98,957603.46,957606,2023-07-12T09:38:14Z,957620.04,NULL,Gefährdung,kuhatarisha,d,NA,NA,NA,NA,sd,NA,4,NA,NA,NA,NA,NA,NA,NA,NA,NA,NA,NA,NA,NA,NA,NA,NA,NA,NA,NA
b7c4f,deep,flow.Sequence,3_0_4_0_4_0,NA,NA,skipped,NA,957606,NA,NA,957603.46,957607,2023-07-12T09:38:14Z,957620.04,NULL,Können,unaweza,s,kiongozi,bustani,mienendo,NA,sd,NA,4,NA,NA,NA,NA,NA,NA,NA,NA,NA,NA,NA,NA,NA,NA,NA,NA,NA,NA,NA
b7c4f,Shallow Question,html.Page,3_0_4_0_4_1_0,NA,NA,form submission,12995.96,957607,957603.46,957620.04,970616,970616,2023-07-12T09:38:27Z,970618.38,NULL,Können,unaweza,s,kiongozi,bustani,mienendo,unaweza,NA,NA,4,NA,NA,NA,NA,NA,NA,NA,NA,NA,NA,NA,NA,NA,NA,NA,NA,NA,NA,NA
b7c4f,"""Richtig""-Screen",canvas.Screen,3_0_4_0_4_1_1,NA,NA,timeout,4999.3199999999,970622,970611.52,970618.38,975601.14,975605,2023-07-12T09:38:32Z,975617.7,NULL,Können,unaweza,s,kiongozi,bustani,mienendo,NA,sd,1,4,NA,NA,NA,NA,NA,NA,NA,NA,NA,NA,NA,NA,NA,NA,NA,NA,NA,NA,NA
b7c4f,"""Falsch""-Screen",canvas.Screen,3_0_4_0_4_1_2,NA,NA,skipped,NA,975621,NA,NA,975601.14,975622,2023-07-12T09:38:32Z,975617.7,NULL,Können,unaweza,s,kiongozi,bustani,mienendo,NA,sd,NA,4,NA,NA,NA,NA,NA,NA,NA,NA,NA,NA,NA,NA,NA,NA,NA,NA,NA,NA,NA
b7c4f,shallow,flow.Sequence,3_0_4_0_4_1,NA,NA,completion,17981.1,957607,957603.46,957620.04,975601.14,975623,2023-07-12T09:38:32Z,975617.7,NULL,Können,unaweza,s,kiongozi,bustani,mienendo,NA,sd,NA,4,NA,NA,NA,NA,NA,NA,NA,NA,NA,NA,NA,NA,NA,NA,NA,NA,NA,NA,NA
b7c4f,task,flow.Sequence,3_0_4_0_4,NA,NA,completion,17981.1,957606,957603.46,957620.04,975601.14,975623,2023-07-12T09:38:32Z,975617.7,NULL,Können,unaweza,s,kiongozi,bustani,mienendo,NA,sd,NA,4,NA,NA,NA,NA,NA,NA,NA,NA,NA,NA,NA,NA,NA,NA,NA,NA,NA,NA,NA
b7c4f,Deep Question,html.Page,3_0_4_0_5_0_0,NA,NA,form submission,6208.3,975624,975601.14,975617.7,981826,981826,2023-07-12T09:38:38Z,981833.56,NULL,Stimmung,kinyongo,d,NA,NA,NA,kunyong,NA,NA,4,NA,NA,NA,NA,NA,NA,NA,NA,NA,NA,NA,NA,NA,NA,NA,NA,NA,NA,NA
b7c4f,"""Richtig""-Screen",canvas.Screen,3_0_4_0_5_0_1,NA,NA,skipped,NA,981829,NA,NA,981826,981829,2023-07-12T09:38:38Z,981833.56,NULL,Stimmung,kinyongo,d,NA,NA,NA,NA,sd,NA,4,NA,NA,NA,NA,NA,NA,NA,NA,NA,NA,NA,NA,NA,NA,NA,NA,NA,NA,NA
b7c4f,"""Falsch""-Screen",canvas.Screen,3_0_4_0_5_0_2,NA,NA,timeout,4999.3199999999,981833,981825.04,981833.56,986816.26,986817,2023-07-12T09:38:43Z,986832.88,NULL,Stimmung,kinyongo,d,NA,NA,NA,NA,sd,0,4,NA,NA,NA,NA,NA,NA,NA,NA,NA,NA,NA,NA,NA,NA,NA,NA,NA,NA,NA
b7c4f,deep,flow.Sequence,3_0_4_0_5_0,NA,NA,completion,11198.56,975624,975601.14,975617.7,986816.26,986817,2023-07-12T09:38:43Z,986832.88,NULL,Stimmung,kinyongo,d,NA,NA,NA,NA,sd,NA,4,NA,NA,NA,NA,NA,NA,NA,NA,NA,NA,NA,NA,NA,NA,NA,NA,NA,NA,NA
b7c4f,shallow,flow.Sequence,3_0_4_0_5_1,NA,NA,skipped,NA,986817,NA,NA,986816.26,986818,2023-07-12T09:38:43Z,986832.88,NULL,Stimmung,kinyongo,d,NA,NA,NA,NA,sd,NA,4,NA,NA,NA,NA,NA,NA,NA,NA,NA,NA,NA,NA,NA,NA,NA,NA,NA,NA,NA
b7c4f,task,flow.Sequence,3_0_4_0_5,NA,NA,completion,11198.56,975623,975601.14,975617.7,986816.26,986818,2023-07-12T09:38:43Z,986832.88,NULL,Stimmung,kinyongo,d,NA,NA,NA,NA,sd,NA,4,NA,NA,NA,NA,NA,NA,NA,NA,NA,NA,NA,NA,NA,NA,NA,NA,NA,NA,NA
b7c4f,Deep Question,html.Page,3_0_4_0_6_0_0,NA,NA,form submission,11633.12,986818,986816.26,986832.88,998466,998467,2023-07-12T09:38:54Z,998464.92,NULL,Betrüger,mdanganyifu,d,NA,NA,NA,mdangery,NA,NA,4,NA,NA,NA,NA,NA,NA,NA,NA,NA,NA,NA,NA,NA,NA,NA,NA,NA,NA,NA
b7c4f,"""Richtig""-Screen",canvas.Screen,3_0_4_0_6_0_1,NA,NA,skipped,NA,998469,NA,NA,998466,998469,2023-07-12T09:38:54Z,998464.92,NULL,Betrüger,mdanganyifu,d,NA,NA,NA,NA,sd,NA,4,NA,NA,NA,NA,NA,NA,NA,NA,NA,NA,NA,NA,NA,NA,NA,NA,NA,NA,NA
b7c4f,"""Falsch""-Screen",canvas.Screen,3_0_4_0_6_0_2,NA,NA,timeout,4999.26,998473,998464.56,998464.92,1003447.54,1003449,2023-07-12T09:38:59Z,1003464.18,NULL,Betrüger,mdanganyifu,d,NA,NA,NA,NA,sd,0,4,NA,NA,NA,NA,NA,NA,NA,NA,NA,NA,NA,NA,NA,NA,NA,NA,NA,NA,NA
b7c4f,deep,flow.Sequence,3_0_4_0_6_0,NA,NA,completion,16614.66,986818,986816.26,986832.88,1003447.54,1003450,2023-07-12T09:38:59Z,1003464.18,NULL,Betrüger,mdanganyifu,d,NA,NA,NA,NA,sd,NA,4,NA,NA,NA,NA,NA,NA,NA,NA,NA,NA,NA,NA,NA,NA,NA,NA,NA,NA,NA
b7c4f,shallow,flow.Sequence,3_0_4_0_6_1,NA,NA,skipped,NA,1003450,NA,NA,1003447.54,1003450,2023-07-12T09:38:59Z,1003464.18,NULL,Betrüger,mdanganyifu,d,NA,NA,NA,NA,sd,NA,4,NA,NA,NA,NA,NA,NA,NA,NA,NA,NA,NA,NA,NA,NA,NA,NA,NA,NA,NA
b7c4f,task,flow.Sequence,3_0_4_0_6,NA,NA,completion,16614.66,986818,986816.26,986832.88,1003447.54,1003451,2023-07-12T09:38:59Z,1003464.18,NULL,Betrüger,mdanganyifu,d,NA,NA,NA,NA,sd,NA,4,NA,NA,NA,NA,NA,NA,NA,NA,NA,NA,NA,NA,NA,NA,NA,NA,NA,NA,NA
b7c4f,deep,flow.Sequence,3_0_4_0_7_0,NA,NA,skipped,NA,1003451,NA,NA,1003447.54,1003452,2023-07-12T09:38:59Z,1003464.18,NULL,Orientierung,urekebisho,s,uelekeo,marekebisho,utunzaji,NA,sd,NA,4,NA,NA,NA,NA,NA,NA,NA,NA,NA,NA,NA,NA,NA,NA,NA,NA,NA,NA,NA
b7c4f,Shallow Question,html.Page,3_0_4_0_7_1_0,NA,NA,form submission,6696.8199999999,1003453,1003447.54,1003464.18,1010161,1010161,2023-07-12T09:39:06Z,1010163.26,NULL,Orientierung,urekebisho,s,uelekeo,marekebisho,utunzaji,urekebisho,NA,NA,4,NA,NA,NA,NA,NA,NA,NA,NA,NA,NA,NA,NA,NA,NA,NA,NA,NA,NA,NA
b7c4f,"""Richtig""-Screen",canvas.Screen,3_0_4_0_7_1_1,NA,NA,timeout,4999.36,1010163,1010159.3,1010163.26,1015146,1015147,2023-07-12T09:39:11Z,1015162.62,NULL,Orientierung,urekebisho,s,uelekeo,marekebisho,utunzaji,NA,sd,1,4,NA,NA,NA,NA,NA,NA,NA,NA,NA,NA,NA,NA,NA,NA,NA,NA,NA,NA,NA
b7c4f,"""Falsch""-Screen",canvas.Screen,3_0_4_0_7_1_2,NA,NA,skipped,NA,1015154,NA,NA,1015146,1015154,2023-07-12T09:39:11Z,1015162.62,NULL,Orientierung,urekebisho,s,uelekeo,marekebisho,utunzaji,NA,sd,NA,4,NA,NA,NA,NA,NA,NA,NA,NA,NA,NA,NA,NA,NA,NA,NA,NA,NA,NA,NA
b7c4f,shallow,flow.Sequence,3_0_4_0_7_1,NA,NA,completion,11681.82,1003453,1003447.54,1003464.18,1015146,1015154,2023-07-12T09:39:11Z,1015162.62,NULL,Orientierung,urekebisho,s,uelekeo,marekebisho,utunzaji,NA,sd,NA,4,NA,NA,NA,NA,NA,NA,NA,NA,NA,NA,NA,NA,NA,NA,NA,NA,NA,NA,NA
b7c4f,task,flow.Sequence,3_0_4_0_7,NA,NA,completion,11681.82,1003451,1003447.54,1003464.18,1015146,1015155,2023-07-12T09:39:11Z,1015162.62,NULL,Orientierung,urekebisho,s,uelekeo,marekebisho,utunzaji,NA,sd,NA,4,NA,NA,NA,NA,NA,NA,NA,NA,NA,NA,NA,NA,NA,NA,NA,NA,NA,NA,NA
b7c4f,block,flow.Loop,3_0_4_0,NA,NA,completion,120886.78,894259,894258.9,894259.22,1015146,1015155,2023-07-12T09:39:11Z,1015162.62,NULL,NA,NA,NA,NA,NA,NA,NA,sd,NA,4,NA,NA,NA,NA,NA,NA,NA,NA,NA,NA,NA,NA,NA,NA,NA,NA,NA,NA,NA
b7c4f,weiter,canvas.Screen,3_0_4_1,sdf,keypress(Space),response,982.38,1015156,1015146,1015162.62,1016145,1016149,2023-07-12T09:39:12Z,1016224.9,NULL,NA,NA,NA,NA,NA,NA,NA,sd,NA,4,NA,NA,NA,NA,NA,NA,NA,NA,NA,NA,NA,NA,NA,NA,NA,NA,NA,NA,NA
b7c4f,check continue,flow.Sequence,3_0_4,NA,NA,completion,121885.78,894259,894258.9,894259.22,1016145,1016150,2023-07-12T09:39:12Z,1016224.9,NULL,NA,NA,NA,NA,NA,NA,NA,sd,NA,4,NA,NA,NA,NA,NA,NA,NA,NA,NA,NA,NA,NA,NA,NA,NA,NA,NA,NA,NA
b7c4f,deep,flow.Sequence,3_0_5_0_0_0,NA,NA,skipped,NA,1016224,NA,NA,1016145,1016224,2023-07-12T09:39:12Z,1016224.9,NULL,Respekt,heshima,s,changamnao,upinzani,ufanisi,NA,sdf,NA,5,NA,NA,NA,NA,NA,NA,NA,NA,NA,NA,NA,NA,NA,NA,NA,NA,NA,NA,NA
b7c4f,Shallow Question,html.Page,3_0_5_0_0_1_0,NA,NA,form submission,7041.1,1016224,1016224.56,1016224.9,1023266,1023266,2023-07-12T09:39:19Z,1023278.34,NULL,Respekt,heshima,s,changamnao,upinzani,ufanisi,heshima,NA,NA,5,NA,NA,NA,NA,NA,NA,NA,NA,NA,NA,NA,NA,NA,NA,NA,NA,NA,NA,NA
b7c4f,"""Richtig""-Screen",canvas.Screen,3_0_5_0_0_1_1,NA,NA,timeout,4999.3,1023270,1023262.58,1023278.34,1028260.98,1028263,2023-07-12T09:39:24Z,1028277.64,NULL,Respekt,heshima,s,changamnao,upinzani,ufanisi,NA,sdf,1,5,NA,NA,NA,NA,NA,NA,NA,NA,NA,NA,NA,NA,NA,NA,NA,NA,NA,NA,NA
b7c4f,"""Falsch""-Screen",canvas.Screen,3_0_5_0_0_1_2,NA,NA,skipped,NA,1028269,NA,NA,1028260.98,1028270,2023-07-12T09:39:24Z,1028277.64,NULL,Respekt,heshima,s,changamnao,upinzani,ufanisi,NA,sdf,NA,5,NA,NA,NA,NA,NA,NA,NA,NA,NA,NA,NA,NA,NA,NA,NA,NA,NA,NA,NA
b7c4f,shallow,flow.Sequence,3_0_5_0_0_1,NA,NA,completion,12036.08,1016224,1016224.56,1016224.9,1028260.98,1028270,2023-07-12T09:39:24Z,1028277.64,NULL,Respekt,heshima,s,changamnao,upinzani,ufanisi,NA,sdf,NA,5,NA,NA,NA,NA,NA,NA,NA,NA,NA,NA,NA,NA,NA,NA,NA,NA,NA,NA,NA
b7c4f,task,flow.Sequence,3_0_5_0_0,NA,NA,completion,12036.08,1016224,1016224.56,1016224.9,1028260.98,1028271,2023-07-12T09:39:24Z,1028277.64,NULL,Respekt,heshima,s,changamnao,upinzani,ufanisi,NA,sdf,NA,5,NA,NA,NA,NA,NA,NA,NA,NA,NA,NA,NA,NA,NA,NA,NA,NA,NA,NA,NA
b7c4f,Deep Question,html.Page,3_0_5_0_1_0_0,NA,NA,form submission,14762.36,1028271,1028260.98,1028277.64,1043040,1043042,2023-07-12T09:39:39Z,1043042.36,NULL,Stimmung,kinyongo,d,NA,NA,NA,k,NA,NA,5,NA,NA,NA,NA,NA,NA,NA,NA,NA,NA,NA,NA,NA,NA,NA,NA,NA,NA,NA
b7c4f,"""Richtig""-Screen",canvas.Screen,3_0_5_0_1_0_1,NA,NA,skipped,NA,1043050,NA,NA,1043040,1043050,2023-07-12T09:39:39Z,1043042.36,NULL,Stimmung,kinyongo,d,NA,NA,NA,NA,sdf,NA,5,NA,NA,NA,NA,NA,NA,NA,NA,NA,NA,NA,NA,NA,NA,NA,NA,NA,NA,NA
b7c4f,"""Falsch""-Screen",canvas.Screen,3_0_5_0_1_0_2,NA,NA,timeout,4999.34,1043052,1043038.14,1043042.36,1048025.04,1048027,2023-07-12T09:39:44Z,1048041.7,NULL,Stimmung,kinyongo,d,NA,NA,NA,NA,sdf,0,5,NA,NA,NA,NA,NA,NA,NA,NA,NA,NA,NA,NA,NA,NA,NA,NA,NA,NA,NA
b7c4f,deep,flow.Sequence,3_0_5_0_1_0,NA,NA,completion,19747.4,1028271,1028260.98,1028277.64,1048025.04,1048028,2023-07-12T09:39:44Z,1048041.7,NULL,Stimmung,kinyongo,d,NA,NA,NA,NA,sdf,NA,5,NA,NA,NA,NA,NA,NA,NA,NA,NA,NA,NA,NA,NA,NA,NA,NA,NA,NA,NA
b7c4f,shallow,flow.Sequence,3_0_5_0_1_1,NA,NA,skipped,NA,1048029,NA,NA,1048025.04,1048029,2023-07-12T09:39:44Z,1048041.7,NULL,Stimmung,kinyongo,d,NA,NA,NA,NA,sdf,NA,5,NA,NA,NA,NA,NA,NA,NA,NA,NA,NA,NA,NA,NA,NA,NA,NA,NA,NA,NA
b7c4f,task,flow.Sequence,3_0_5_0_1,NA,NA,completion,19747.4,1028271,1028260.98,1028277.64,1048025.04,1048029,2023-07-12T09:39:44Z,1048041.7,NULL,Stimmung,kinyongo,d,NA,NA,NA,NA,sdf,NA,5,NA,NA,NA,NA,NA,NA,NA,NA,NA,NA,NA,NA,NA,NA,NA,NA,NA,NA,NA
b7c4f,Deep Question,html.Page,3_0_5_0_2_0_0,NA,NA,form submission,8773.3,1048029,1048025.04,1048041.7,1056815,1056816,2023-07-12T09:39:53Z,1056823.9,NULL,Kontrolle,kudhibiti,d,NA,NA,NA,kudhibiti,NA,NA,5,NA,NA,NA,NA,NA,NA,NA,NA,NA,NA,NA,NA,NA,NA,NA,NA,NA,NA,NA
b7c4f,"""Richtig""-Screen",canvas.Screen,3_0_5_0_2_0_1,NA,NA,timeout,4999.4200000002,1056817,1056813.14,1056823.9,1061806.68,1061808,2023-07-12T09:39:58Z,1061823.32,NULL,Kontrolle,kudhibiti,d,NA,NA,NA,NA,sdf,1,5,NA,NA,NA,NA,NA,NA,NA,NA,NA,NA,NA,NA,NA,NA,NA,NA,NA,NA,NA
b7c4f,"""Falsch""-Screen",canvas.Screen,3_0_5_0_2_0_2,NA,NA,skipped,NA,1061815,NA,NA,1061806.68,1061816,2023-07-12T09:39:58Z,1061823.32,NULL,Kontrolle,kudhibiti,d,NA,NA,NA,NA,sdf,NA,5,NA,NA,NA,NA,NA,NA,NA,NA,NA,NA,NA,NA,NA,NA,NA,NA,NA,NA,NA
b7c4f,deep,flow.Sequence,3_0_5_0_2_0,NA,NA,completion,13764.98,1048029,1048025.04,1048041.7,1061806.68,1061816,2023-07-12T09:39:58Z,1061823.32,NULL,Kontrolle,kudhibiti,d,NA,NA,NA,NA,sdf,NA,5,NA,NA,NA,NA,NA,NA,NA,NA,NA,NA,NA,NA,NA,NA,NA,NA,NA,NA,NA
b7c4f,shallow,flow.Sequence,3_0_5_0_2_1,NA,NA,skipped,NA,1061817,NA,NA,1061806.68,1061817,2023-07-12T09:39:58Z,1061823.32,NULL,Kontrolle,kudhibiti,d,NA,NA,NA,NA,sdf,NA,5,NA,NA,NA,NA,NA,NA,NA,NA,NA,NA,NA,NA,NA,NA,NA,NA,NA,NA,NA
b7c4f,task,flow.Sequence,3_0_5_0_2,NA,NA,completion,13764.98,1048029,1048025.04,1048041.7,1061806.68,1061818,2023-07-12T09:39:58Z,1061823.32,NULL,Kontrolle,kudhibiti,d,NA,NA,NA,NA,sdf,NA,5,NA,NA,NA,NA,NA,NA,NA,NA,NA,NA,NA,NA,NA,NA,NA,NA,NA,NA,NA
b7c4f,deep,flow.Sequence,3_0_5_0_3_0,NA,NA,skipped,NA,1061818,NA,NA,1061806.68,1061818,2023-07-12T09:39:58Z,1061823.32,NULL,Können,unaweza,s,kiongozi,bustani,mienendo,NA,sdf,NA,5,NA,NA,NA,NA,NA,NA,NA,NA,NA,NA,NA,NA,NA,NA,NA,NA,NA,NA,NA
b7c4f,Shallow Question,html.Page,3_0_5_0_3_1_0,NA,NA,form submission,10592.68,1061819,1061806.68,1061823.32,1072416,1072417,2023-07-12T09:40:08Z,1072421.88,NULL,Können,unaweza,s,kiongozi,bustani,mienendo,unaweza,NA,NA,5,NA,NA,NA,NA,NA,NA,NA,NA,NA,NA,NA,NA,NA,NA,NA,NA,NA,NA,NA
b7c4f,"""Richtig""-Screen",canvas.Screen,3_0_5_0_3_1_1,NA,NA,timeout,4999.3800000001,1072423,1072409.6,1072421.88,1077404.6,1077407,2023-07-12T09:40:13Z,1077421.26,NULL,Können,unaweza,s,kiongozi,bustani,mienendo,NA,sdf,1,5,NA,NA,NA,NA,NA,NA,NA,NA,NA,NA,NA,NA,NA,NA,NA,NA,NA,NA,NA
b7c4f,"""Falsch""-Screen",canvas.Screen,3_0_5_0_3_1_2,NA,NA,skipped,NA,1077414,NA,NA,1077404.6,1077414,2023-07-12T09:40:13Z,1077421.26,NULL,Können,unaweza,s,kiongozi,bustani,mienendo,NA,sdf,NA,5,NA,NA,NA,NA,NA,NA,NA,NA,NA,NA,NA,NA,NA,NA,NA,NA,NA,NA,NA
b7c4f,shallow,flow.Sequence,3_0_5_0_3_1,NA,NA,completion,15581.28,1061819,1061806.68,1061823.32,1077404.6,1077415,2023-07-12T09:40:13Z,1077421.26,NULL,Können,unaweza,s,kiongozi,bustani,mienendo,NA,sdf,NA,5,NA,NA,NA,NA,NA,NA,NA,NA,NA,NA,NA,NA,NA,NA,NA,NA,NA,NA,NA
b7c4f,task,flow.Sequence,3_0_5_0_3,NA,NA,completion,15581.28,1061818,1061806.68,1061823.32,1077404.6,1077415,2023-07-12T09:40:13Z,1077421.26,NULL,Können,unaweza,s,kiongozi,bustani,mienendo,NA,sdf,NA,5,NA,NA,NA,NA,NA,NA,NA,NA,NA,NA,NA,NA,NA,NA,NA,NA,NA,NA,NA
b7c4f,Deep Question,html.Page,3_0_5_0_4_0_0,NA,NA,form submission,8384.74,1077416,1077404.6,1077421.26,1085806,1085807,2023-07-12T09:40:22Z,1085805.84,NULL,Betrüger,mdanganyifu,d,NA,NA,NA,mdangany,NA,NA,5,NA,NA,NA,NA,NA,NA,NA,NA,NA,NA,NA,NA,NA,NA,NA,NA,NA,NA,NA
b7c4f,"""Richtig""-Screen",canvas.Screen,3_0_5_0_4_0_1,NA,NA,skipped,NA,1085810,NA,NA,1085806,1085810,2023-07-12T09:40:22Z,1085805.84,NULL,Betrüger,mdanganyifu,d,NA,NA,NA,NA,sdf,NA,5,NA,NA,NA,NA,NA,NA,NA,NA,NA,NA,NA,NA,NA,NA,NA,NA,NA,NA,NA
b7c4f,"""Falsch""-Screen",canvas.Screen,3_0_5_0_4_0_2,NA,NA,timeout,4997.0399999998,1085812,1085805.48,1085805.84,1090786.22,1090787,2023-07-12T09:40:27Z,1090802.88,NULL,Betrüger,mdanganyifu,d,NA,NA,NA,NA,sdf,0,5,NA,NA,NA,NA,NA,NA,NA,NA,NA,NA,NA,NA,NA,NA,NA,NA,NA,NA,NA
b7c4f,deep,flow.Sequence,3_0_5_0_4_0,NA,NA,completion,13364.96,1077416,1077404.6,1077421.26,1090786.22,1090788,2023-07-12T09:40:27Z,1090802.88,NULL,Betrüger,mdanganyifu,d,NA,NA,NA,NA,sdf,NA,5,NA,NA,NA,NA,NA,NA,NA,NA,NA,NA,NA,NA,NA,NA,NA,NA,NA,NA,NA
b7c4f,shallow,flow.Sequence,3_0_5_0_4_1,NA,NA,skipped,NA,1090788,NA,NA,1090786.22,1090788,2023-07-12T09:40:27Z,1090802.88,NULL,Betrüger,mdanganyifu,d,NA,NA,NA,NA,sdf,NA,5,NA,NA,NA,NA,NA,NA,NA,NA,NA,NA,NA,NA,NA,NA,NA,NA,NA,NA,NA
b7c4f,task,flow.Sequence,3_0_5_0_4,NA,NA,completion,13364.96,1077416,1077404.6,1077421.26,1090786.22,1090788,2023-07-12T09:40:27Z,1090802.88,NULL,Betrüger,mdanganyifu,d,NA,NA,NA,NA,sdf,NA,5,NA,NA,NA,NA,NA,NA,NA,NA,NA,NA,NA,NA,NA,NA,NA,NA,NA,NA,NA
b7c4f,Deep Question,html.Page,3_0_5_0_5_0_0,NA,NA,form submission,8741.1200000001,1090788,1090786.22,1090802.88,1099544,1099544,2023-07-12T09:40:36Z,1099551.64,NULL,Gefährdung,kuhatarisha,d,NA,NA,NA,k,NA,NA,5,NA,NA,NA,NA,NA,NA,NA,NA,NA,NA,NA,NA,NA,NA,NA,NA,NA,NA,NA
b7c4f,"""Richtig""-Screen",canvas.Screen,3_0_5_0_5_0_1,NA,NA,skipped,NA,1099548,NA,NA,1099544,1099548,2023-07-12T09:40:36Z,1099551.64,NULL,Gefährdung,kuhatarisha,d,NA,NA,NA,NA,sdf,NA,5,NA,NA,NA,NA,NA,NA,NA,NA,NA,NA,NA,NA,NA,NA,NA,NA,NA,NA,NA
b7c4f,"""Falsch""-Screen",canvas.Screen,3_0_5_0_5_0_2,NA,NA,timeout,4999.4800000002,1099550,1099542.94,1099551.64,1104534.5,1104536,2023-07-12T09:40:41Z,1104551.12,NULL,Gefährdung,kuhatarisha,d,NA,NA,NA,NA,sdf,0,5,NA,NA,NA,NA,NA,NA,NA,NA,NA,NA,NA,NA,NA,NA,NA,NA,NA,NA,NA
b7c4f,deep,flow.Sequence,3_0_5_0_5_0,NA,NA,completion,13731.62,1090788,1090786.22,1090802.88,1104534.5,1104537,2023-07-12T09:40:41Z,1104551.12,NULL,Gefährdung,kuhatarisha,d,NA,NA,NA,NA,sdf,NA,5,NA,NA,NA,NA,NA,NA,NA,NA,NA,NA,NA,NA,NA,NA,NA,NA,NA,NA,NA
b7c4f,shallow,flow.Sequence,3_0_5_0_5_1,NA,NA,skipped,NA,1104537,NA,NA,1104534.5,1104537,2023-07-12T09:40:41Z,1104551.12,NULL,Gefährdung,kuhatarisha,d,NA,NA,NA,NA,sdf,NA,5,NA,NA,NA,NA,NA,NA,NA,NA,NA,NA,NA,NA,NA,NA,NA,NA,NA,NA,NA
b7c4f,task,flow.Sequence,3_0_5_0_5,NA,NA,completion,13731.62,1090788,1090786.22,1090802.88,1104534.5,1104538,2023-07-12T09:40:41Z,1104551.12,NULL,Gefährdung,kuhatarisha,d,NA,NA,NA,NA,sdf,NA,5,NA,NA,NA,NA,NA,NA,NA,NA,NA,NA,NA,NA,NA,NA,NA,NA,NA,NA,NA
b7c4f,deep,flow.Sequence,3_0_5_0_6_0,NA,NA,skipped,NA,1104538,NA,NA,1104534.5,1104538,2023-07-12T09:40:41Z,1104551.12,NULL,Orientierung,urekebisho,s,uelekeo,marekebisho,utunzaji,NA,sdf,NA,5,NA,NA,NA,NA,NA,NA,NA,NA,NA,NA,NA,NA,NA,NA,NA,NA,NA,NA,NA
b7c4f,Shallow Question,html.Page,3_0_5_0_6_1_0,NA,NA,form submission,6844.8799999999,1104539,1104534.5,1104551.12,1111396,1111396,2023-07-12T09:40:47Z,1111400.14,NULL,Orientierung,urekebisho,s,uelekeo,marekebisho,utunzaji,urekebisho,NA,NA,5,NA,NA,NA,NA,NA,NA,NA,NA,NA,NA,NA,NA,NA,NA,NA,NA,NA,NA,NA
b7c4f,"""Richtig""-Screen",canvas.Screen,3_0_5_0_6_1_1,NA,NA,timeout,4999.4600000002,1111403,1111390.98,1111400.14,1116382.92,1116385,2023-07-12T09:40:52Z,1116399.6,NULL,Orientierung,urekebisho,s,uelekeo,marekebisho,utunzaji,NA,sdf,1,5,NA,NA,NA,NA,NA,NA,NA,NA,NA,NA,NA,NA,NA,NA,NA,NA,NA,NA,NA
b7c4f,"""Falsch""-Screen",canvas.Screen,3_0_5_0_6_1_2,NA,NA,skipped,NA,1116388,NA,NA,1116382.92,1116388,2023-07-12T09:40:52Z,1116399.6,NULL,Orientierung,urekebisho,s,uelekeo,marekebisho,utunzaji,NA,sdf,NA,5,NA,NA,NA,NA,NA,NA,NA,NA,NA,NA,NA,NA,NA,NA,NA,NA,NA,NA,NA
b7c4f,shallow,flow.Sequence,3_0_5_0_6_1,NA,NA,completion,11831.8,1104539,1104534.5,1104551.12,1116382.92,1116389,2023-07-12T09:40:52Z,1116399.6,NULL,Orientierung,urekebisho,s,uelekeo,marekebisho,utunzaji,NA,sdf,NA,5,NA,NA,NA,NA,NA,NA,NA,NA,NA,NA,NA,NA,NA,NA,NA,NA,NA,NA,NA
b7c4f,task,flow.Sequence,3_0_5_0_6,NA,NA,completion,11831.8,1104538,1104534.5,1104551.12,1116382.92,1116389,2023-07-12T09:40:52Z,1116399.6,NULL,Orientierung,urekebisho,s,uelekeo,marekebisho,utunzaji,NA,sdf,NA,5,NA,NA,NA,NA,NA,NA,NA,NA,NA,NA,NA,NA,NA,NA,NA,NA,NA,NA,NA
b7c4f,deep,flow.Sequence,3_0_5_0_7_0,NA,NA,skipped,NA,1116389,NA,NA,1116382.92,1116389,2023-07-12T09:40:52Z,1116399.6,NULL,Kreativität,ubunifu,s,mratibu,mwendelezo,makubaliano,NA,sdf,NA,5,NA,NA,NA,NA,NA,NA,NA,NA,NA,NA,NA,NA,NA,NA,NA,NA,NA,NA,NA
b7c4f,Shallow Question,html.Page,3_0_5_0_7_1_0,NA,NA,form submission,5705.3999999999,1116390,1116382.92,1116399.6,1122105,1122106,2023-07-12T09:40:58Z,1122115.5,NULL,Kreativität,ubunifu,s,mratibu,mwendelezo,makubaliano,ubunifu,NA,NA,5,NA,NA,NA,NA,NA,NA,NA,NA,NA,NA,NA,NA,NA,NA,NA,NA,NA,NA,NA
b7c4f,"""Richtig""-Screen",canvas.Screen,3_0_5_0_7_1_1,NA,NA,timeout,4999.3799999999,1122109,1122099.08,1122115.5,1127098.22,1127099,2023-07-12T09:41:03Z,1127114.88,NULL,Kreativität,ubunifu,s,mratibu,mwendelezo,makubaliano,NA,sdf,1,5,NA,NA,NA,NA,NA,NA,NA,NA,NA,NA,NA,NA,NA,NA,NA,NA,NA,NA,NA
b7c4f,"""Falsch""-Screen",canvas.Screen,3_0_5_0_7_1_2,NA,NA,skipped,NA,1127106,NA,NA,1127098.22,1127106,2023-07-12T09:41:03Z,1127114.88,NULL,Kreativität,ubunifu,s,mratibu,mwendelezo,makubaliano,NA,sdf,NA,5,NA,NA,NA,NA,NA,NA,NA,NA,NA,NA,NA,NA,NA,NA,NA,NA,NA,NA,NA
b7c4f,shallow,flow.Sequence,3_0_5_0_7_1,NA,NA,completion,10698.62,1116390,1116382.92,1116399.6,1127098.22,1127106,2023-07-12T09:41:03Z,1127114.88,NULL,Kreativität,ubunifu,s,mratibu,mwendelezo,makubaliano,NA,sdf,NA,5,NA,NA,NA,NA,NA,NA,NA,NA,NA,NA,NA,NA,NA,NA,NA,NA,NA,NA,NA
b7c4f,task,flow.Sequence,3_0_5_0_7,NA,NA,completion,10698.62,1116389,1116382.92,1116399.6,1127098.22,1127107,2023-07-12T09:41:03Z,1127114.88,NULL,Kreativität,ubunifu,s,mratibu,mwendelezo,makubaliano,NA,sdf,NA,5,NA,NA,NA,NA,NA,NA,NA,NA,NA,NA,NA,NA,NA,NA,NA,NA,NA,NA,NA
b7c4f,block,flow.Loop,3_0_5_0,NA,NA,completion,110873.32,1016224,1016224.56,1016224.9,1127098.22,1127107,2023-07-12T09:41:03Z,1127114.88,NULL,NA,NA,NA,NA,NA,NA,NA,sdf,NA,5,NA,NA,NA,NA,NA,NA,NA,NA,NA,NA,NA,NA,NA,NA,NA,NA,NA,NA,NA
b7c4f,weiter,canvas.Screen,3_0_5_1,sdf,keypress(Space),response,998.12000000011,1127108,1127098.22,1127114.88,1128113,1128118,2023-07-12T09:41:04Z,1128179.54,NULL,NA,NA,NA,NA,NA,NA,NA,sdf,NA,5,NA,NA,NA,NA,NA,NA,NA,NA,NA,NA,NA,NA,NA,NA,NA,NA,NA,NA,NA
b7c4f,check continue,flow.Sequence,3_0_5,NA,NA,completion,111888.1,1016224,1016224.56,1016224.9,1128113,1128118,2023-07-12T09:41:04Z,1128179.54,NULL,NA,NA,NA,NA,NA,NA,NA,sdf,NA,5,NA,NA,NA,NA,NA,NA,NA,NA,NA,NA,NA,NA,NA,NA,NA,NA,NA,NA,NA
b7c4f,Deep Question,html.Page,3_0_6_0_0_0_0,NA,NA,form submission,18415.46,1128180,1128179.22,1128179.54,1146595,1146596,2023-07-12T09:41:23Z,1146595.7,NULL,Gefährdung,kuhatarisha,d,NA,NA,NA,katharisha,NA,NA,6,NA,NA,NA,NA,NA,NA,NA,NA,NA,NA,NA,NA,NA,NA,NA,NA,NA,NA,NA
b7c4f,"""Richtig""-Screen",canvas.Screen,3_0_6_0_0_0_1,NA,NA,skipped,NA,1146599,NA,NA,1146595,1146599,2023-07-12T09:41:23Z,1146595.7,NULL,Gefährdung,kuhatarisha,d,NA,NA,NA,NA,dfs,NA,6,NA,NA,NA,NA,NA,NA,NA,NA,NA,NA,NA,NA,NA,NA,NA,NA,NA,NA,NA
b7c4f,"""Falsch""-Screen",canvas.Screen,3_0_6_0_0_0_2,NA,NA,timeout,4999.3200000001,1146601,1146594,1146595.7,1151578.36,1151583,2023-07-12T09:41:28Z,1151595.02,NULL,Gefährdung,kuhatarisha,d,NA,NA,NA,NA,dfs,0,6,NA,NA,NA,NA,NA,NA,NA,NA,NA,NA,NA,NA,NA,NA,NA,NA,NA,NA,NA
b7c4f,deep,flow.Sequence,3_0_6_0_0_0,NA,NA,completion,23398.82,1128180,1128179.22,1128179.54,1151578.36,1151584,2023-07-12T09:41:28Z,1151595.02,NULL,Gefährdung,kuhatarisha,d,NA,NA,NA,NA,dfs,NA,6,NA,NA,NA,NA,NA,NA,NA,NA,NA,NA,NA,NA,NA,NA,NA,NA,NA,NA,NA
b7c4f,shallow,flow.Sequence,3_0_6_0_0_1,NA,NA,skipped,NA,1151585,NA,NA,1151578.36,1151586,2023-07-12T09:41:28Z,1151595.02,NULL,Gefährdung,kuhatarisha,d,NA,NA,NA,NA,dfs,NA,6,NA,NA,NA,NA,NA,NA,NA,NA,NA,NA,NA,NA,NA,NA,NA,NA,NA,NA,NA
b7c4f,task,flow.Sequence,3_0_6_0_0,NA,NA,completion,23398.82,1128180,1128179.22,1128179.54,1151578.36,1151587,2023-07-12T09:41:28Z,1151595.02,NULL,Gefährdung,kuhatarisha,d,NA,NA,NA,NA,dfs,NA,6,NA,NA,NA,NA,NA,NA,NA,NA,NA,NA,NA,NA,NA,NA,NA,NA,NA,NA,NA
b7c4f,deep,flow.Sequence,3_0_6_0_1_0,NA,NA,skipped,NA,1151588,NA,NA,1151578.36,1151588,2023-07-12T09:41:28Z,1151595.02,NULL,Orientierung,urekebisho,s,uelekeo,marekebisho,utunzaji,NA,dfs,NA,6,NA,NA,NA,NA,NA,NA,NA,NA,NA,NA,NA,NA,NA,NA,NA,NA,NA,NA,NA
b7c4f,Shallow Question,html.Page,3_0_6_0_1_1_0,NA,NA,form submission,7609.98,1151589,1151578.36,1151595.02,1159205,1159205,2023-07-12T09:41:35Z,1159210.7,NULL,Orientierung,urekebisho,s,uelekeo,marekebisho,utunzaji,urekebisho,NA,NA,6,NA,NA,NA,NA,NA,NA,NA,NA,NA,NA,NA,NA,NA,NA,NA,NA,NA,NA,NA
b7c4f,"""Richtig""-Screen",canvas.Screen,3_0_6_0_1_1_1,NA,NA,timeout,4999.3600000001,1159214,1159195.9,1159210.7,1164193.42,1164195,2023-07-12T09:41:40Z,1164210.06,NULL,Orientierung,urekebisho,s,uelekeo,marekebisho,utunzaji,NA,dfs,1,6,NA,NA,NA,NA,NA,NA,NA,NA,NA,NA,NA,NA,NA,NA,NA,NA,NA,NA,NA
b7c4f,"""Falsch""-Screen",canvas.Screen,3_0_6_0_1_1_2,NA,NA,skipped,NA,1164202,NA,NA,1164193.42,1164202,2023-07-12T09:41:40Z,1164210.06,NULL,Orientierung,urekebisho,s,uelekeo,marekebisho,utunzaji,NA,dfs,NA,6,NA,NA,NA,NA,NA,NA,NA,NA,NA,NA,NA,NA,NA,NA,NA,NA,NA,NA,NA
b7c4f,shallow,flow.Sequence,3_0_6_0_1_1,NA,NA,completion,12598.4,1151588,1151578.36,1151595.02,1164193.42,1164204,2023-07-12T09:41:40Z,1164210.06,NULL,Orientierung,urekebisho,s,uelekeo,marekebisho,utunzaji,NA,dfs,NA,6,NA,NA,NA,NA,NA,NA,NA,NA,NA,NA,NA,NA,NA,NA,NA,NA,NA,NA,NA
b7c4f,task,flow.Sequence,3_0_6_0_1,NA,NA,completion,12598.4,1151587,1151578.36,1151595.02,1164193.42,1164204,2023-07-12T09:41:40Z,1164210.06,NULL,Orientierung,urekebisho,s,uelekeo,marekebisho,utunzaji,NA,dfs,NA,6,NA,NA,NA,NA,NA,NA,NA,NA,NA,NA,NA,NA,NA,NA,NA,NA,NA,NA,NA
b7c4f,Deep Question,html.Page,3_0_6_0_2_0_0,NA,NA,form submission,41971.94,1164205,1164193.42,1164210.06,1206182,1206183,2023-07-12T09:42:22Z,1206187.94,NULL,Betrüger,mdanganyifu,d,NA,NA,NA,mdanganyifu,NA,NA,6,NA,NA,NA,NA,NA,NA,NA,NA,NA,NA,NA,NA,NA,NA,NA,NA,NA,NA,NA
b7c4f,"""Richtig""-Screen",canvas.Screen,3_0_6_0_2_0_1,NA,NA,timeout,4999.46,1206186,1206181,1206187.94,1211170.72,1211175,2023-07-12T09:42:27Z,1211187.4,NULL,Betrüger,mdanganyifu,d,NA,NA,NA,NA,dfs,1,6,NA,NA,NA,NA,NA,NA,NA,NA,NA,NA,NA,NA,NA,NA,NA,NA,NA,NA,NA
b7c4f,"""Falsch""-Screen",canvas.Screen,3_0_6_0_2_0_2,NA,NA,skipped,NA,1211192,NA,NA,1211170.72,1211192,2023-07-12T09:42:27Z,1211187.4,NULL,Betrüger,mdanganyifu,d,NA,NA,NA,NA,dfs,NA,6,NA,NA,NA,NA,NA,NA,NA,NA,NA,NA,NA,NA,NA,NA,NA,NA,NA,NA,NA
b7c4f,deep,flow.Sequence,3_0_6_0_2_0,NA,NA,completion,46960.66,1164205,1164193.42,1164210.06,1211170.72,1211193,2023-07-12T09:42:27Z,1211187.4,NULL,Betrüger,mdanganyifu,d,NA,NA,NA,NA,dfs,NA,6,NA,NA,NA,NA,NA,NA,NA,NA,NA,NA,NA,NA,NA,NA,NA,NA,NA,NA,NA
b7c4f,shallow,flow.Sequence,3_0_6_0_2_1,NA,NA,skipped,NA,1211193,NA,NA,1211170.72,1211194,2023-07-12T09:42:27Z,1211187.4,NULL,Betrüger,mdanganyifu,d,NA,NA,NA,NA,dfs,NA,6,NA,NA,NA,NA,NA,NA,NA,NA,NA,NA,NA,NA,NA,NA,NA,NA,NA,NA,NA
b7c4f,task,flow.Sequence,3_0_6_0_2,NA,NA,completion,46960.66,1164205,1164193.42,1164210.06,1211170.72,1211194,2023-07-12T09:42:27Z,1211187.4,NULL,Betrüger,mdanganyifu,d,NA,NA,NA,NA,dfs,NA,6,NA,NA,NA,NA,NA,NA,NA,NA,NA,NA,NA,NA,NA,NA,NA,NA,NA,NA,NA
b7c4f,Deep Question,html.Page,3_0_6_0_3_0_0,NA,NA,form submission,12439.6,1211195,1211170.72,1211187.4,1223627,1223627,2023-07-12T09:42:40Z,1223635.64,NULL,Stimmung,kinyongo,d,NA,NA,NA,kinyongo,NA,NA,6,NA,NA,NA,NA,NA,NA,NA,NA,NA,NA,NA,NA,NA,NA,NA,NA,NA,NA,NA
b7c4f,"""Richtig""-Screen",canvas.Screen,3_0_6_0_3_0_1,NA,NA,timeout,4999.4000000001,1223630,1223625.1,1223635.64,1228618.38,1228619,2023-07-12T09:42:45Z,1228635.04,NULL,Stimmung,kinyongo,d,NA,NA,NA,NA,dfs,1,6,NA,NA,NA,NA,NA,NA,NA,NA,NA,NA,NA,NA,NA,NA,NA,NA,NA,NA,NA
b7c4f,"""Falsch""-Screen",canvas.Screen,3_0_6_0_3_0_2,NA,NA,skipped,NA,1228625,NA,NA,1228618.38,1228625,2023-07-12T09:42:45Z,1228635.04,NULL,Stimmung,kinyongo,d,NA,NA,NA,NA,dfs,NA,6,NA,NA,NA,NA,NA,NA,NA,NA,NA,NA,NA,NA,NA,NA,NA,NA,NA,NA,NA
b7c4f,deep,flow.Sequence,3_0_6_0_3_0,NA,NA,completion,17430.98,1211194,1211170.72,1211187.4,1228618.38,1228626,2023-07-12T09:42:45Z,1228635.04,NULL,Stimmung,kinyongo,d,NA,NA,NA,NA,dfs,NA,6,NA,NA,NA,NA,NA,NA,NA,NA,NA,NA,NA,NA,NA,NA,NA,NA,NA,NA,NA
b7c4f,shallow,flow.Sequence,3_0_6_0_3_1,NA,NA,skipped,NA,1228626,NA,NA,1228618.38,1228626,2023-07-12T09:42:45Z,1228635.04,NULL,Stimmung,kinyongo,d,NA,NA,NA,NA,dfs,NA,6,NA,NA,NA,NA,NA,NA,NA,NA,NA,NA,NA,NA,NA,NA,NA,NA,NA,NA,NA
b7c4f,task,flow.Sequence,3_0_6_0_3,NA,NA,completion,17430.98,1211194,1211170.72,1211187.4,1228618.38,1228627,2023-07-12T09:42:45Z,1228635.04,NULL,Stimmung,kinyongo,d,NA,NA,NA,NA,dfs,NA,6,NA,NA,NA,NA,NA,NA,NA,NA,NA,NA,NA,NA,NA,NA,NA,NA,NA,NA,NA
b7c4f,Deep Question,html.Page,3_0_6_0_4_0_0,NA,NA,form submission,7159.96,1228628,1228618.38,1228635.04,1235795,1235795,2023-07-12T09:42:52Z,1235800.8,NULL,Kontrolle,kudhibiti,d,NA,NA,NA,kudhibiti,NA,NA,6,NA,NA,NA,NA,NA,NA,NA,NA,NA,NA,NA,NA,NA,NA,NA,NA,NA,NA,NA
b7c4f,"""Richtig""-Screen",canvas.Screen,3_0_6_0_4_0_1,NA,NA,timeout,4999.3999999999,1235798,1235794.16,1235800.8,1240783.54,1240785,2023-07-12T09:42:57Z,1240800.2,NULL,Kontrolle,kudhibiti,d,NA,NA,NA,NA,dfs,1,6,NA,NA,NA,NA,NA,NA,NA,NA,NA,NA,NA,NA,NA,NA,NA,NA,NA,NA,NA
b7c4f,"""Falsch""-Screen",canvas.Screen,3_0_6_0_4_0_2,NA,NA,skipped,NA,1240793,NA,NA,1240783.54,1240793,2023-07-12T09:42:57Z,1240800.2,NULL,Kontrolle,kudhibiti,d,NA,NA,NA,NA,dfs,NA,6,NA,NA,NA,NA,NA,NA,NA,NA,NA,NA,NA,NA,NA,NA,NA,NA,NA,NA,NA
b7c4f,deep,flow.Sequence,3_0_6_0_4_0,NA,NA,completion,12148.5,1228628,1228618.38,1228635.04,1240783.54,1240794,2023-07-12T09:42:57Z,1240800.2,NULL,Kontrolle,kudhibiti,d,NA,NA,NA,NA,dfs,NA,6,NA,NA,NA,NA,NA,NA,NA,NA,NA,NA,NA,NA,NA,NA,NA,NA,NA,NA,NA
b7c4f,shallow,flow.Sequence,3_0_6_0_4_1,NA,NA,skipped,NA,1240794,NA,NA,1240783.54,1240794,2023-07-12T09:42:57Z,1240800.2,NULL,Kontrolle,kudhibiti,d,NA,NA,NA,NA,dfs,NA,6,NA,NA,NA,NA,NA,NA,NA,NA,NA,NA,NA,NA,NA,NA,NA,NA,NA,NA,NA
b7c4f,task,flow.Sequence,3_0_6_0_4,NA,NA,completion,12148.5,1228628,1228618.38,1228635.04,1240783.54,1240795,2023-07-12T09:42:57Z,1240800.2,NULL,Kontrolle,kudhibiti,d,NA,NA,NA,NA,dfs,NA,6,NA,NA,NA,NA,NA,NA,NA,NA,NA,NA,NA,NA,NA,NA,NA,NA,NA,NA,NA
b7c4f,deep,flow.Sequence,3_0_6_0_5_0,NA,NA,skipped,NA,1240796,NA,NA,1240783.54,1240796,2023-07-12T09:42:57Z,1240800.2,NULL,Kreativität,ubunifu,s,mratibu,mwendelezo,makubaliano,NA,dfs,NA,6,NA,NA,NA,NA,NA,NA,NA,NA,NA,NA,NA,NA,NA,NA,NA,NA,NA,NA,NA
b7c4f,Shallow Question,html.Page,3_0_6_0_5_1_0,NA,NA,form submission,5261.8,1240796,1240783.54,1240800.2,1246062,1246063,2023-07-12T09:43:02Z,1246066.16,NULL,Kreativität,ubunifu,s,mratibu,mwendelezo,makubaliano,ubunifu,NA,NA,6,NA,NA,NA,NA,NA,NA,NA,NA,NA,NA,NA,NA,NA,NA,NA,NA,NA,NA,NA
b7c4f,"""Richtig""-Screen",canvas.Screen,3_0_6_0_5_1_1,NA,NA,timeout,4999.3200000001,1246067,1246059.18,1246066.16,1251048.82,1251051,2023-07-12T09:43:07Z,1251065.48,NULL,Kreativität,ubunifu,s,mratibu,mwendelezo,makubaliano,NA,dfs,1,6,NA,NA,NA,NA,NA,NA,NA,NA,NA,NA,NA,NA,NA,NA,NA,NA,NA,NA,NA
b7c4f,"""Falsch""-Screen",canvas.Screen,3_0_6_0_5_1_2,NA,NA,skipped,NA,1251057,NA,NA,1251048.82,1251057,2023-07-12T09:43:07Z,1251065.48,NULL,Kreativität,ubunifu,s,mratibu,mwendelezo,makubaliano,NA,dfs,NA,6,NA,NA,NA,NA,NA,NA,NA,NA,NA,NA,NA,NA,NA,NA,NA,NA,NA,NA,NA
b7c4f,shallow,flow.Sequence,3_0_6_0_5_1,NA,NA,completion,10248.62,1240796,1240783.54,1240800.2,1251048.82,1251058,2023-07-12T09:43:07Z,1251065.48,NULL,Kreativität,ubunifu,s,mratibu,mwendelezo,makubaliano,NA,dfs,NA,6,NA,NA,NA,NA,NA,NA,NA,NA,NA,NA,NA,NA,NA,NA,NA,NA,NA,NA,NA
b7c4f,task,flow.Sequence,3_0_6_0_5,NA,NA,completion,10248.62,1240796,1240783.54,1240800.2,1251048.82,1251058,2023-07-12T09:43:07Z,1251065.48,NULL,Kreativität,ubunifu,s,mratibu,mwendelezo,makubaliano,NA,dfs,NA,6,NA,NA,NA,NA,NA,NA,NA,NA,NA,NA,NA,NA,NA,NA,NA,NA,NA,NA,NA
b7c4f,deep,flow.Sequence,3_0_6_0_6_0,NA,NA,skipped,NA,1251058,NA,NA,1251048.82,1251059,2023-07-12T09:43:07Z,1251065.48,NULL,Respekt,heshima,s,changamnao,upinzani,ufanisi,NA,dfs,NA,6,NA,NA,NA,NA,NA,NA,NA,NA,NA,NA,NA,NA,NA,NA,NA,NA,NA,NA,NA
b7c4f,Shallow Question,html.Page,3_0_6_0_6_1_0,NA,NA,form submission,5091.52,1251059,1251048.82,1251065.48,1256157,1256157,2023-07-12T09:43:12Z,1256164.92,NULL,Respekt,heshima,s,changamnao,upinzani,ufanisi,heshima,NA,NA,6,NA,NA,NA,NA,NA,NA,NA,NA,NA,NA,NA,NA,NA,NA,NA,NA,NA,NA,NA
b7c4f,"""Richtig""-Screen",canvas.Screen,3_0_6_0_6_1_1,NA,NA,timeout,4999.24,1256160,1256153.42,1256164.92,1261147.5,1261150,2023-07-12T09:43:17Z,1261164.16,NULL,Respekt,heshima,s,changamnao,upinzani,ufanisi,NA,dfs,1,6,NA,NA,NA,NA,NA,NA,NA,NA,NA,NA,NA,NA,NA,NA,NA,NA,NA,NA,NA
b7c4f,"""Falsch""-Screen",canvas.Screen,3_0_6_0_6_1_2,NA,NA,skipped,NA,1261157,NA,NA,1261147.5,1261157,2023-07-12T09:43:17Z,1261164.16,NULL,Respekt,heshima,s,changamnao,upinzani,ufanisi,NA,dfs,NA,6,NA,NA,NA,NA,NA,NA,NA,NA,NA,NA,NA,NA,NA,NA,NA,NA,NA,NA,NA
