observation,sender,sender_type,sender_id,response,response_action,ended_on,duration,time_run,time_render,time_show,time_end,time_commit,timestamp,time_switch,german,swahili,enc,distractor1,distractor2,distractor3,response_2,x,correct,distractors,url_vp,url_sess,meta_labjs_version,meta_location,meta_user_agent,meta_platform,meta_language,meta_locale,meta_time_zone,meta_timezone_offset,meta_screen_width,meta_screen_height,meta_scroll_width,meta_scroll_height,meta_window_inner_width,meta_window_inner_height,meta_device_pixel_ratio,meta_labjs_build_flavor,meta_labjs_build_commit
255c9,Introduction delayed retrieval,canvas.Screen,0,weiter,keypress(Space),response,2106.538,901.59999999998,900.488,917.162,3023.7,3025.7,2023-08-08T18:03:05Z,3032.116,NA,NA,NA,NA,NA,NA,NA,NA,NA,NULL,177,4,20.2.4,https://neurocog.fernuni.ch/studies/vweber/sliechti/delayed%202/index.html?vp=177&sess=4,"Mozilla/5.0 (Windows NT 10.0; Win64; x64) AppleWebKit/537.36 (KHTML, like Gecko) Chrome/115.0.0.0 Safari/537.36",Win32,de-CH,de,Europe/Zurich,-120,1280,720,1280,563,1280,563,1.5,production,f5b4a49f956347addd546a832a3327688c2c0fef
255c9,Deep Question,html.Page,1_0_0_0,NA,NA,form submission,8813.984,3025.9,3015.302,3032.116,11846.1,11846.3,2023-08-08T18:03:14Z,11858.157,Verstand,ufahamivu,d,shakawa,hadhari,mhandisi,kielezo,NA,NA,NULL,NA,NA,NA,NA,NA,NA,NA,NA,NA,NA,NA,NA,NA,NA,NA,NA,NA,NA,NA
255c9,Save data screen,canvas.Screen,1_0_0_1,NA,NA,timeout,499.753,11846.8,11841.601,11858.157,12341.252,12342.1,2023-08-08T18:03:15Z,12357.91,Verstand,ufahamivu,d,shakawa,hadhari,mhandisi,NA,NA,0,NULL,NA,NA,NA,NA,NA,NA,NA,NA,NA,NA,NA,NA,NA,NA,NA,NA,NA,NA,NA
255c9,deep,flow.Sequence,1_0_0,NA,NA,completion,9309.136,3025.9,3015.302,3032.116,12341.252,12342.2,2023-08-08T18:03:15Z,12357.91,Verstand,ufahamivu,d,shakawa,hadhari,mhandisi,NA,NA,NA,NULL,NA,NA,NA,NA,NA,NA,NA,NA,NA,NA,NA,NA,NA,NA,NA,NA,NA,NA,NA
255c9,task,flow.Sequence,1_0,NA,NA,completion,9309.136,3025.9,3015.302,3032.116,12341.252,12342.2,2023-08-08T18:03:15Z,12357.91,Verstand,ufahamivu,d,shakawa,hadhari,mhandisi,NA,NA,NA,NULL,NA,NA,NA,NA,NA,NA,NA,NA,NA,NA,NA,NA,NA,NA,NA,NA,NA,NA,NA
255c9,Deep Question,html.Page,1_1_0_0,NA,NA,form submission,8176.19,12342.3,12341.252,12357.91,20534.1,20534.4,2023-08-08T18:03:23Z,20534.339,Konkurrent,mshindani,s,msemaji,mvutaji,kipukusa,kuwati,NA,NA,NULL,NA,NA,NA,NA,NA,NA,NA,NA,NA,NA,NA,NA,NA,NA,NA,NA,NA,NA,NA
255c9,Save data screen,canvas.Screen,1_1_0_1,NA,NA,timeout,499.893,20534.9,20517.802,20534.339,21017.387,21018.2,2023-08-08T18:03:23Z,21034.232,Konkurrent,mshindani,s,msemaji,mvutaji,kipukusa,NA,NA,0,NULL,NA,NA,NA,NA,NA,NA,NA,NA,NA,NA,NA,NA,NA,NA,NA,NA,NA,NA,NA
255c9,deep,flow.Sequence,1_1_0,NA,NA,completion,8659.477,12342.3,12341.252,12357.91,21017.387,21018.4,2023-08-08T18:03:23Z,21034.232,Konkurrent,mshindani,s,msemaji,mvutaji,kipukusa,NA,NA,NA,NULL,NA,NA,NA,NA,NA,NA,NA,NA,NA,NA,NA,NA,NA,NA,NA,NA,NA,NA,NA
255c9,task,flow.Sequence,1_1,NA,NA,completion,8659.477,12342.3,12341.252,12357.91,21017.387,21018.5,2023-08-08T18:03:23Z,21034.232,Konkurrent,mshindani,s,msemaji,mvutaji,kipukusa,NA,NA,NA,NULL,NA,NA,NA,NA,NA,NA,NA,NA,NA,NA,NA,NA,NA,NA,NA,NA,NA,NA,NA
255c9,Deep Question,html.Page,1_2_0_0,NA,NA,form submission,5132.768,21018.7,21017.387,21034.232,26167,26167.2,2023-08-08T18:03:28Z,26196.376,Zuwachs,nyongeza,d,matilaba,udhibiti,hudhurio,udhini,NA,NA,NULL,NA,NA,NA,NA,NA,NA,NA,NA,NA,NA,NA,NA,NA,NA,NA,NA,NA,NA,NA
255c9,Save data screen,canvas.Screen,1_2_0_1,NA,NA,timeout,499.66,26167.6,26179.895,26196.376,26679.538,26680.2,2023-08-08T18:03:29Z,26696.036,Zuwachs,nyongeza,d,matilaba,udhibiti,hudhurio,NA,NA,0,NULL,NA,NA,NA,NA,NA,NA,NA,NA,NA,NA,NA,NA,NA,NA,NA,NA,NA,NA,NA
255c9,deep,flow.Sequence,1_2_0,NA,NA,completion,5645.306,21018.6,21017.387,21034.232,26679.538,26680.4,2023-08-08T18:03:29Z,26696.036,Zuwachs,nyongeza,d,matilaba,udhibiti,hudhurio,NA,NA,NA,NULL,NA,NA,NA,NA,NA,NA,NA,NA,NA,NA,NA,NA,NA,NA,NA,NA,NA,NA,NA
255c9,task,flow.Sequence,1_2,NA,NA,completion,5645.306,21018.6,21017.387,21034.232,26679.538,26680.4,2023-08-08T18:03:29Z,26696.036,Zuwachs,nyongeza,d,matilaba,udhibiti,hudhurio,NA,NA,NA,NULL,NA,NA,NA,NA,NA,NA,NA,NA,NA,NA,NA,NA,NA,NA,NA,NA,NA,NA,NA
255c9,Deep Question,html.Page,1_3_0_0,NA,NA,form submission,14015.564,26680.4,26679.538,26696.036,40711.6,40712,2023-08-08T18:03:43Z,40718.027,Vorsorge,tahadhari,s,ufafanuzi,makini,mashambani,uhandi,NA,NA,NULL,NA,NA,NA,NA,NA,NA,NA,NA,NA,NA,NA,NA,NA,NA,NA,NA,NA,NA,NA
255c9,Save data screen,canvas.Screen,1_3_0_1,NA,NA,timeout,499.415,40712.5,40701.234,40718.027,41200.894,41201.6,2023-08-08T18:03:43Z,41217.442,Vorsorge,tahadhari,s,ufafanuzi,makini,mashambani,NA,NA,0,NULL,NA,NA,NA,NA,NA,NA,NA,NA,NA,NA,NA,NA,NA,NA,NA,NA,NA,NA,NA
255c9,deep,flow.Sequence,1_3_0,NA,NA,completion,14504.858,26680.4,26679.538,26696.036,41200.894,41201.6,2023-08-08T18:03:43Z,41217.442,Vorsorge,tahadhari,s,ufafanuzi,makini,mashambani,NA,NA,NA,NULL,NA,NA,NA,NA,NA,NA,NA,NA,NA,NA,NA,NA,NA,NA,NA,NA,NA,NA,NA
255c9,task,flow.Sequence,1_3,NA,NA,completion,14504.858,26680.4,26679.538,26696.036,41200.894,41201.6,2023-08-08T18:03:43Z,41217.442,Vorsorge,tahadhari,s,ufafanuzi,makini,mashambani,NA,NA,NA,NULL,NA,NA,NA,NA,NA,NA,NA,NA,NA,NA,NA,NA,NA,NA,NA,NA,NA,NA,NA
255c9,Deep Question,html.Page,1_4_0_0,NA,NA,form submission,4789.858,41201.8,41200.894,41217.442,46007.3,46010.7,2023-08-08T18:03:48Z,46013.458,Wettbewerb,ushindani,s,mapendezi,kichocheo,ubaguzi,usulubu,NA,NA,NULL,NA,NA,NA,NA,NA,NA,NA,NA,NA,NA,NA,NA,NA,NA,NA,NA,NA,NA,NA
255c9,Save data screen,canvas.Screen,1_4_0_1,NA,NA,timeout,499.709,46011.1,45996.816,46013.458,46496.551,46497.2,2023-08-08T18:03:49Z,46513.167,Wettbewerb,ushindani,s,mapendezi,kichocheo,ubaguzi,NA,NA,0,NULL,NA,NA,NA,NA,NA,NA,NA,NA,NA,NA,NA,NA,NA,NA,NA,NA,NA,NA,NA
255c9,deep,flow.Sequence,1_4_0,NA,NA,completion,5279.109,41201.8,41200.894,41217.442,46496.551,46497.2,2023-08-08T18:03:49Z,46513.167,Wettbewerb,ushindani,s,mapendezi,kichocheo,ubaguzi,NA,NA,NA,NULL,NA,NA,NA,NA,NA,NA,NA,NA,NA,NA,NA,NA,NA,NA,NA,NA,NA,NA,NA
255c9,task,flow.Sequence,1_4,NA,NA,completion,5279.109,41201.7,41200.894,41217.442,46496.551,46497.4,2023-08-08T18:03:49Z,46513.167,Wettbewerb,ushindani,s,mapendezi,kichocheo,ubaguzi,NA,NA,NA,NULL,NA,NA,NA,NA,NA,NA,NA,NA,NA,NA,NA,NA,NA,NA,NA,NA,NA,NA,NA
255c9,Deep Question,html.Page,1_5_0_0,NA,NA,form submission,6674.233,46497.4,46496.551,46513.167,53187.4,53187.6,2023-08-08T18:03:55Z,53190.844,Beweis,ushahidi,s,marudio,kizuizi,mtendaji,kawati,NA,NA,NULL,NA,NA,NA,NA,NA,NA,NA,NA,NA,NA,NA,NA,NA,NA,NA,NA,NA,NA,NA
255c9,Save data screen,canvas.Screen,1_5_0_1,NA,NA,timeout,499.643,53188.1,53174.11,53190.844,53673.953,53674.6,2023-08-08T18:03:56Z,53690.487,Beweis,ushahidi,s,marudio,kizuizi,mtendaji,NA,NA,0,NULL,NA,NA,NA,NA,NA,NA,NA,NA,NA,NA,NA,NA,NA,NA,NA,NA,NA,NA,NA
255c9,deep,flow.Sequence,1_5_0,NA,NA,completion,7160.786,46497.4,46496.551,46513.167,53673.953,53674.7,2023-08-08T18:03:56Z,53690.487,Beweis,ushahidi,s,marudio,kizuizi,mtendaji,NA,NA,NA,NULL,NA,NA,NA,NA,NA,NA,NA,NA,NA,NA,NA,NA,NA,NA,NA,NA,NA,NA,NA
255c9,task,flow.Sequence,1_5,NA,NA,completion,7160.786,46497.4,46496.551,46513.167,53673.953,53674.9,2023-08-08T18:03:56Z,53690.487,Beweis,ushahidi,s,marudio,kizuizi,mtendaji,NA,NA,NA,NULL,NA,NA,NA,NA,NA,NA,NA,NA,NA,NA,NA,NA,NA,NA,NA,NA,NA,NA,NA
255c9,Deep Question,html.Page,1_6_0_0,NA,NA,form submission,6173.813,53674.9,53673.953,53690.487,59864.3,59864.5,2023-08-08T18:04:02Z,59868.701,Ausschluss,kutengwa,s,ununuzi,taratibu,madeni,adisha,NA,NA,NULL,NA,NA,NA,NA,NA,NA,NA,NA,NA,NA,NA,NA,NA,NA,NA,NA,NA,NA,NA
255c9,Save data screen,canvas.Screen,1_6_0_1,NA,NA,timeout,499.662,59864.9,59852.058,59868.701,60351.796,60352.4,2023-08-08T18:04:03Z,60368.363,Ausschluss,kutengwa,s,ununuzi,taratibu,madeni,NA,NA,0,NULL,NA,NA,NA,NA,NA,NA,NA,NA,NA,NA,NA,NA,NA,NA,NA,NA,NA,NA,NA
255c9,deep,flow.Sequence,1_6_0,NA,NA,completion,6661.309,53674.9,53673.953,53690.487,60351.796,60352.5,2023-08-08T18:04:03Z,60368.363,Ausschluss,kutengwa,s,ununuzi,taratibu,madeni,NA,NA,NA,NULL,NA,NA,NA,NA,NA,NA,NA,NA,NA,NA,NA,NA,NA,NA,NA,NA,NA,NA,NA
255c9,task,flow.Sequence,1_6,NA,NA,completion,6661.309,53674.9,53673.953,53690.487,60351.796,60352.5,2023-08-08T18:04:03Z,60368.363,Ausschluss,kutengwa,s,ununuzi,taratibu,madeni,NA,NA,NA,NULL,NA,NA,NA,NA,NA,NA,NA,NA,NA,NA,NA,NA,NA,NA,NA,NA,NA,NA,NA
255c9,Deep Question,html.Page,1_7_0_0,NA,NA,form submission,7043.137,60352.6,60351.796,60368.363,67411.5,67411.7,2023-08-08T18:04:10Z,67412.516,Annäherung,maegesho,d,madahili,kujiamini,mapendekezo,kilezo,NA,NA,NULL,NA,NA,NA,NA,NA,NA,NA,NA,NA,NA,NA,NA,NA,NA,NA,NA,NA,NA,NA
255c9,Save data screen,canvas.Screen,1_7_0_1,NA,NA,timeout,499.693,67413.1,67395.976,67412.516,67895.552,67896.2,2023-08-08T18:04:10Z,67912.209,Annäherung,maegesho,d,madahili,kujiamini,mapendekezo,NA,NA,0,NULL,NA,NA,NA,NA,NA,NA,NA,NA,NA,NA,NA,NA,NA,NA,NA,NA,NA,NA,NA
255c9,deep,flow.Sequence,1_7_0,NA,NA,completion,7527.189,60352.6,60351.796,60368.363,67895.552,67896.3,2023-08-08T18:04:10Z,67912.209,Annäherung,maegesho,d,madahili,kujiamini,mapendekezo,NA,NA,NA,NULL,NA,NA,NA,NA,NA,NA,NA,NA,NA,NA,NA,NA,NA,NA,NA,NA,NA,NA,NA
255c9,task,flow.Sequence,1_7,NA,NA,completion,7527.189,60352.6,60351.796,60368.363,67895.552,67896.4,2023-08-08T18:04:10Z,67912.209,Annäherung,maegesho,d,madahili,kujiamini,mapendekezo,NA,NA,NA,NULL,NA,NA,NA,NA,NA,NA,NA,NA,NA,NA,NA,NA,NA,NA,NA,NA,NA,NA,NA
255c9,Deep Question,html.Page,1_8_0_0,NA,NA,form submission,6929.791,67896.4,67895.552,67912.209,74842,74842.2,2023-08-08T18:04:17Z,74856.466,Polizist,msongora,s,simanzi,mandhari,nidhamu,garo,NA,NA,NULL,NA,NA,NA,NA,NA,NA,NA,NA,NA,NA,NA,NA,NA,NA,NA,NA,NA,NA,NA
255c9,Save data screen,canvas.Screen,1_8_0_1,NA,NA,timeout,499.643,74843.4,74839.769,74856.466,75339.337,75339.8,2023-08-08T18:04:18Z,75356.109,Polizist,msongora,s,simanzi,mandhari,nidhamu,NA,NA,0,NULL,NA,NA,NA,NA,NA,NA,NA,NA,NA,NA,NA,NA,NA,NA,NA,NA,NA,NA,NA
255c9,deep,flow.Sequence,1_8_0,NA,NA,completion,7427.128,67896.4,67895.552,67912.209,75339.337,75340,2023-08-08T18:04:18Z,75356.109,Polizist,msongora,s,simanzi,mandhari,nidhamu,NA,NA,NA,NULL,NA,NA,NA,NA,NA,NA,NA,NA,NA,NA,NA,NA,NA,NA,NA,NA,NA,NA,NA
255c9,task,flow.Sequence,1_8,NA,NA,completion,7427.128,67896.4,67895.552,67912.209,75339.337,75340,2023-08-08T18:04:18Z,75356.109,Polizist,msongora,s,simanzi,mandhari,nidhamu,NA,NA,NA,NULL,NA,NA,NA,NA,NA,NA,NA,NA,NA,NA,NA,NA,NA,NA,NA,NA,NA,NA,NA
255c9,Deep Question,html.Page,1_9_0_0,NA,NA,form submission,13585.791,75340.1,75339.337,75356.109,88941.9,88942.1,2023-08-08T18:04:31Z,88944.81,Symbol,kielezo,d,kinyume,nderemo,utayari,kielezo,NA,NA,NULL,NA,NA,NA,NA,NA,NA,NA,NA,NA,NA,NA,NA,NA,NA,NA,NA,NA,NA,NA
255c9,Save data screen,canvas.Screen,1_9_0_1,NA,NA,timeout,499.64600000001,88943.9,88928.12,88944.81,89427.853,89428.4,2023-08-08T18:04:32Z,89444.456,Symbol,kielezo,d,kinyume,nderemo,utayari,NA,NA,1,NULL,NA,NA,NA,NA,NA,NA,NA,NA,NA,NA,NA,NA,NA,NA,NA,NA,NA,NA,NA
255c9,deep,flow.Sequence,1_9_0,NA,NA,completion,14071.744,75340.1,75339.337,75356.109,89427.853,89428.5,2023-08-08T18:04:32Z,89444.456,Symbol,kielezo,d,kinyume,nderemo,utayari,NA,NA,NA,NULL,NA,NA,NA,NA,NA,NA,NA,NA,NA,NA,NA,NA,NA,NA,NA,NA,NA,NA,NA
255c9,task,flow.Sequence,1_9,NA,NA,completion,14071.744,75340,75339.337,75356.109,89427.853,89428.6,2023-08-08T18:04:32Z,89444.456,Symbol,kielezo,d,kinyume,nderemo,utayari,NA,NA,NA,NULL,NA,NA,NA,NA,NA,NA,NA,NA,NA,NA,NA,NA,NA,NA,NA,NA,NA,NA,NA
255c9,Deep Question,html.Page,1_10_0_0,NA,NA,form submission,5131.2439999999,89428.6,89427.853,89444.456,94575.7,94575.9,2023-08-08T18:04:37Z,94590.201,Widerstand,usulubu,d,kusababisha,mwalimu,mwenendo,adishi,NA,NA,NULL,NA,NA,NA,NA,NA,NA,NA,NA,NA,NA,NA,NA,NA,NA,NA,NA,NA,NA,NA
255c9,Save data screen,canvas.Screen,1_10_0_1,NA,NA,timeout,499.63800000001,94577.1,94573.539,94590.201,95073.247,95074,2023-08-08T18:04:37Z,95089.839,Widerstand,usulubu,d,kusababisha,mwalimu,mwenendo,NA,NA,0,NULL,NA,NA,NA,NA,NA,NA,NA,NA,NA,NA,NA,NA,NA,NA,NA,NA,NA,NA,NA
255c9,deep,flow.Sequence,1_10_0,NA,NA,completion,5628.791,89428.6,89427.853,89444.456,95073.247,95074.1,2023-08-08T18:04:37Z,95089.839,Widerstand,usulubu,d,kusababisha,mwalimu,mwenendo,NA,NA,NA,NULL,NA,NA,NA,NA,NA,NA,NA,NA,NA,NA,NA,NA,NA,NA,NA,NA,NA,NA,NA
255c9,task,flow.Sequence,1_10,NA,NA,completion,5628.791,89428.6,89427.853,89444.456,95073.247,95074.2,2023-08-08T18:04:37Z,95089.839,Widerstand,usulubu,d,kusababisha,mwalimu,mwenendo,NA,NA,NA,NULL,NA,NA,NA,NA,NA,NA,NA,NA,NA,NA,NA,NA,NA,NA,NA,NA,NA,NA,NA
255c9,Deep Question,html.Page,1_11_0_0,NA,NA,form submission,10686.461,95074.3,95073.247,95089.839,105776.3,105776.5,2023-08-08T18:04:48Z,105781.09,Sympathie,mapendano,d,dhamiria,fungamano,maazimio,kiwili,NA,NA,NULL,NA,NA,NA,NA,NA,NA,NA,NA,NA,NA,NA,NA,NA,NA,NA,NA,NA,NA,NA
255c9,Save data screen,canvas.Screen,1_11_0_1,NA,NA,timeout,499.501,105777.8,105764.308,105781.09,106263.962,106264.5,2023-08-08T18:04:48Z,106280.591,Sympathie,mapendano,d,dhamiria,fungamano,maazimio,NA,NA,0,NULL,NA,NA,NA,NA,NA,NA,NA,NA,NA,NA,NA,NA,NA,NA,NA,NA,NA,NA,NA
255c9,deep,flow.Sequence,1_11_0,NA,NA,completion,11174.123,95074.3,95073.247,95089.839,106263.962,106264.6,2023-08-08T18:04:48Z,106280.591,Sympathie,mapendano,d,dhamiria,fungamano,maazimio,NA,NA,NA,NULL,NA,NA,NA,NA,NA,NA,NA,NA,NA,NA,NA,NA,NA,NA,NA,NA,NA,NA,NA
255c9,task,flow.Sequence,1_11,NA,NA,completion,11174.123,95074.2,95073.247,95089.839,106263.962,106264.8,2023-08-08T18:04:48Z,106280.591,Sympathie,mapendano,d,dhamiria,fungamano,maazimio,NA,NA,NA,NULL,NA,NA,NA,NA,NA,NA,NA,NA,NA,NA,NA,NA,NA,NA,NA,NA,NA,NA,NA
255c9,Deep Question,html.Page,1_12_0_0,NA,NA,form submission,12201.209,106264.8,106263.962,106280.591,118481.8,118481.9,2023-08-08T18:05:01Z,118487.425,Zufall,kikuti,d,kukosekana,uchoraji,leseni,redisha,NA,NA,NULL,NA,NA,NA,NA,NA,NA,NA,NA,NA,NA,NA,NA,NA,NA,NA,NA,NA,NA,NA
255c9,Save data screen,canvas.Screen,1_12_0_1,NA,NA,timeout,499.61899999999,118483.2,118470.636,118487.425,118970.324,118970.9,2023-08-08T18:05:01Z,118987.044,Zufall,kikuti,d,kukosekana,uchoraji,leseni,NA,NA,0,NULL,NA,NA,NA,NA,NA,NA,NA,NA,NA,NA,NA,NA,NA,NA,NA,NA,NA,NA,NA
255c9,deep,flow.Sequence,1_12_0,NA,NA,completion,12689.733,106264.8,106263.962,106280.591,118970.324,118971.1,2023-08-08T18:05:01Z,118987.044,Zufall,kikuti,d,kukosekana,uchoraji,leseni,NA,NA,NA,NULL,NA,NA,NA,NA,NA,NA,NA,NA,NA,NA,NA,NA,NA,NA,NA,NA,NA,NA,NA
255c9,task,flow.Sequence,1_12,NA,NA,completion,12689.733,106264.8,106263.962,106280.591,118970.324,118971.1,2023-08-08T18:05:01Z,118987.044,Zufall,kikuti,d,kukosekana,uchoraji,leseni,NA,NA,NA,NULL,NA,NA,NA,NA,NA,NA,NA,NA,NA,NA,NA,NA,NA,NA,NA,NA,NA,NA,NA
255c9,Deep Question,html.Page,1_13_0_0,NA,NA,form submission,5694.956,118971.2,118970.324,118987.044,124682,124682.2,2023-08-08T18:05:07Z,124699.798,Schönheit,kirembo,d,mahojiano,msisimko,jitihadi,kirembo,NA,NA,NULL,NA,NA,NA,NA,NA,NA,NA,NA,NA,NA,NA,NA,NA,NA,NA,NA,NA,NA,NA
255c9,Save data screen,canvas.Screen,1_13_0_1,NA,NA,timeout,498.70300000001,124684.1,124665.609,124699.798,125181.806,125182.5,2023-08-08T18:05:07Z,125198.501,Schönheit,kirembo,d,mahojiano,msisimko,jitihadi,NA,NA,1,NULL,NA,NA,NA,NA,NA,NA,NA,NA,NA,NA,NA,NA,NA,NA,NA,NA,NA,NA,NA
255c9,deep,flow.Sequence,1_13_0,NA,NA,completion,6194.762,118971.2,118970.324,118987.044,125181.806,125182.5,2023-08-08T18:05:07Z,125198.501,Schönheit,kirembo,d,mahojiano,msisimko,jitihadi,NA,NA,NA,NULL,NA,NA,NA,NA,NA,NA,NA,NA,NA,NA,NA,NA,NA,NA,NA,NA,NA,NA,NA
255c9,task,flow.Sequence,1_13,NA,NA,completion,6194.762,118971.2,118970.324,118987.044,125181.806,125182.6,2023-08-08T18:05:07Z,125198.501,Schönheit,kirembo,d,mahojiano,msisimko,jitihadi,NA,NA,NA,NULL,NA,NA,NA,NA,NA,NA,NA,NA,NA,NA,NA,NA,NA,NA,NA,NA,NA,NA,NA
255c9,Deep Question,html.Page,1_14_0_0,NA,NA,form submission,5883.499,125182.8,125181.806,125198.501,131082,131082.2,2023-08-08T18:05:13Z,131093.546,Gelegenheit,wakati,s,mchanganyiko,kipaumbele,kushuku,kiwani,NA,NA,NULL,NA,NA,NA,NA,NA,NA,NA,NA,NA,NA,NA,NA,NA,NA,NA,NA,NA,NA,NA
255c9,Save data screen,canvas.Screen,1_14_0_1,NA,NA,timeout,499.69099999999,131083.7,131076.998,131093.546,131576.561,131577.1,2023-08-08T18:05:14Z,131593.237,Gelegenheit,wakati,s,mchanganyiko,kipaumbele,kushuku,NA,NA,0,NULL,NA,NA,NA,NA,NA,NA,NA,NA,NA,NA,NA,NA,NA,NA,NA,NA,NA,NA,NA
255c9,deep,flow.Sequence,1_14_0,NA,NA,completion,6378.06,125182.7,125181.806,125198.501,131576.561,131577.2,2023-08-08T18:05:14Z,131593.237,Gelegenheit,wakati,s,mchanganyiko,kipaumbele,kushuku,NA,NA,NA,NULL,NA,NA,NA,NA,NA,NA,NA,NA,NA,NA,NA,NA,NA,NA,NA,NA,NA,NA,NA
255c9,task,flow.Sequence,1_14,NA,NA,completion,6378.06,125182.6,125181.806,125198.501,131576.561,131577.2,2023-08-08T18:05:14Z,131593.237,Gelegenheit,wakati,s,mchanganyiko,kipaumbele,kushuku,NA,NA,NA,NULL,NA,NA,NA,NA,NA,NA,NA,NA,NA,NA,NA,NA,NA,NA,NA,NA,NA,NA,NA
255c9,Deep Question,html.Page,1_15_0_0,NA,NA,form submission,9590.263,131577.4,131576.561,131593.237,141183.5,141183.6,2023-08-08T18:05:23Z,141185.268,Auftrag,uagizaji,s,ghanima,kuzingatia,msukani,hamani,NA,NA,NULL,NA,NA,NA,NA,NA,NA,NA,NA,NA,NA,NA,NA,NA,NA,NA,NA,NA,NA,NA
255c9,Save data screen,canvas.Screen,1_15_0_1,NA,NA,timeout,499.658,141184.8,141168.773,141185.268,141668.228,141668.8,2023-08-08T18:05:24Z,141684.926,Auftrag,uagizaji,s,ghanima,kuzingatia,msukani,NA,NA,0,NULL,NA,NA,NA,NA,NA,NA,NA,NA,NA,NA,NA,NA,NA,NA,NA,NA,NA,NA,NA
255c9,deep,flow.Sequence,1_15_0,NA,NA,completion,10074.991,131577.4,131576.561,131593.237,141668.228,141669,2023-08-08T18:05:24Z,141684.926,Auftrag,uagizaji,s,ghanima,kuzingatia,msukani,NA,NA,NA,NULL,NA,NA,NA,NA,NA,NA,NA,NA,NA,NA,NA,NA,NA,NA,NA,NA,NA,NA,NA
255c9,task,flow.Sequence,1_15,NA,NA,completion,10074.991,131577.3,131576.561,131593.237,141668.228,141669.1,2023-08-08T18:05:24Z,141684.926,Auftrag,uagizaji,s,ghanima,kuzingatia,msukani,NA,NA,NA,NULL,NA,NA,NA,NA,NA,NA,NA,NA,NA,NA,NA,NA,NA,NA,NA,NA,NA,NA,NA
255c9,retrieval block 1 (cued recall),flow.Loop,1,NA,NA,completion,138636.112,3025.9,3015.302,3032.116,141668.228,141669.2,2023-08-08T18:05:24Z,141684.926,NA,NA,NA,NA,NA,NA,NA,NA,NA,NULL,NA,NA,NA,NA,NA,NA,NA,NA,NA,NA,NA,NA,NA,NA,NA,NA,NA,NA,NA
255c9,Shallow Question,html.Page,2_0_0_0,NA,NA,form submission,9898.074,141669.3,141668.228,141684.926,151583,151583.3,2023-08-08T18:05:34Z,151593.461,Wettbewerb,ushindani,s,mapendezi,kichocheo,ubaguzi,ushindani,NA,NA,"c(""distractor1"", ""distractor2"", ""distractor3"")",NA,NA,NA,NA,NA,NA,NA,NA,NA,NA,NA,NA,NA,NA,NA,NA,NA,NA,NA
255c9,Save data screen,canvas.Screen,2_0_0_1,NA,NA,timeout,499.603,151585,151576.975,151593.461,152076.351,152076.9,2023-08-08T18:05:34Z,152093.064,Wettbewerb,ushindani,s,mapendezi,kichocheo,ubaguzi,NA,NA,1,"c(""distractor1"", ""distractor2"", ""distractor3"")",NA,NA,NA,NA,NA,NA,NA,NA,NA,NA,NA,NA,NA,NA,NA,NA,NA,NA,NA
255c9,shallow,flow.Sequence,2_0_0,NA,NA,completion,10391.425,141669.3,141668.228,141684.926,152076.351,152077.1,2023-08-08T18:05:34Z,152093.064,Wettbewerb,ushindani,s,mapendezi,kichocheo,ubaguzi,NA,NA,NA,"c(""distractor1"", ""distractor2"", ""distractor3"")",NA,NA,NA,NA,NA,NA,NA,NA,NA,NA,NA,NA,NA,NA,NA,NA,NA,NA,NA
255c9,task,flow.Sequence,2_0,NA,NA,completion,10391.425,141669.3,141668.228,141684.926,152076.351,152077.3,2023-08-08T18:05:34Z,152093.064,Wettbewerb,ushindani,s,mapendezi,kichocheo,ubaguzi,NA,NA,NA,"c(""distractor1"", ""distractor2"", ""distractor3"")",NA,NA,NA,NA,NA,NA,NA,NA,NA,NA,NA,NA,NA,NA,NA,NA,NA,NA,NA
255c9,Shallow Question,html.Page,2_1_0_0,NA,NA,form submission,8432.8359999999,152077.3,152076.351,152093.064,160525.9,160526,2023-08-08T18:05:43Z,160536.101,Zuwachs,nyongeza,d,matilaba,udhibiti,hudhurio,udhibiti,NA,NA,"c(""distractor1"", ""distractor2"", ""distractor3"")",NA,NA,NA,NA,NA,NA,NA,NA,NA,NA,NA,NA,NA,NA,NA,NA,NA,NA,NA
255c9,Save data screen,canvas.Screen,2_1_0_1,NA,NA,timeout,499.535,160527.2,160519.518,160536.101,161019.025,161019.6,2023-08-08T18:05:43Z,161035.636,Zuwachs,nyongeza,d,matilaba,udhibiti,hudhurio,NA,NA,0,"c(""distractor1"", ""distractor2"", ""distractor3"")",NA,NA,NA,NA,NA,NA,NA,NA,NA,NA,NA,NA,NA,NA,NA,NA,NA,NA,NA
255c9,shallow,flow.Sequence,2_1_0,NA,NA,completion,8925.961,152077.3,152076.351,152093.064,161019.025,161019.8,2023-08-08T18:05:43Z,161035.636,Zuwachs,nyongeza,d,matilaba,udhibiti,hudhurio,NA,NA,NA,"c(""distractor1"", ""distractor2"", ""distractor3"")",NA,NA,NA,NA,NA,NA,NA,NA,NA,NA,NA,NA,NA,NA,NA,NA,NA,NA,NA
255c9,task,flow.Sequence,2_1,NA,NA,completion,8925.961,152077.3,152076.351,152093.064,161019.025,161019.8,2023-08-08T18:05:43Z,161035.636,Zuwachs,nyongeza,d,matilaba,udhibiti,hudhurio,NA,NA,NA,"c(""distractor1"", ""distractor2"", ""distractor3"")",NA,NA,NA,NA,NA,NA,NA,NA,NA,NA,NA,NA,NA,NA,NA,NA,NA,NA,NA
255c9,Shallow Question,html.Page,2_2_0_0,NA,NA,form submission,15676.464,161020,161019.025,161035.636,176712.1,176712.3,2023-08-08T18:05:59Z,176723.079,Ausschluss,kutengwa,s,ununuzi,taratibu,madeni,ununuzi,NA,NA,"c(""distractor1"", ""distractor2"", ""distractor3"")",NA,NA,NA,NA,NA,NA,NA,NA,NA,NA,NA,NA,NA,NA,NA,NA,NA,NA,NA
255c9,Save data screen,canvas.Screen,2_2_0_1,NA,NA,timeout,499.32800000001,176713.6,176706.212,176723.079,177205.745,177206.4,2023-08-08T18:05:59Z,177222.407,Ausschluss,kutengwa,s,ununuzi,taratibu,madeni,NA,NA,0,"c(""distractor1"", ""distractor2"", ""distractor3"")",NA,NA,NA,NA,NA,NA,NA,NA,NA,NA,NA,NA,NA,NA,NA,NA,NA,NA,NA
255c9,shallow,flow.Sequence,2_2_0,NA,NA,completion,16170.109,161020,161019.025,161035.636,177205.745,177206.5,2023-08-08T18:05:59Z,177222.407,Ausschluss,kutengwa,s,ununuzi,taratibu,madeni,NA,NA,NA,"c(""distractor1"", ""distractor2"", ""distractor3"")",NA,NA,NA,NA,NA,NA,NA,NA,NA,NA,NA,NA,NA,NA,NA,NA,NA,NA,NA
255c9,task,flow.Sequence,2_2,NA,NA,completion,16170.109,161019.8,161019.025,161035.636,177205.745,177206.6,2023-08-08T18:05:59Z,177222.407,Ausschluss,kutengwa,s,ununuzi,taratibu,madeni,NA,NA,NA,"c(""distractor1"", ""distractor2"", ""distractor3"")",NA,NA,NA,NA,NA,NA,NA,NA,NA,NA,NA,NA,NA,NA,NA,NA,NA,NA,NA
255c9,Shallow Question,html.Page,2_3_0_0,NA,NA,form submission,3885.893,177206.6,177205.745,177222.407,181108.3,181108.3,2023-08-08T18:06:03Z,181119.168,Gelegenheit,wakati,s,mchanganyiko,kipaumbele,kushuku,wakati,NA,NA,"c(""distractor1"", ""distractor2"", ""distractor3"")",NA,NA,NA,NA,NA,NA,NA,NA,NA,NA,NA,NA,NA,NA,NA,NA,NA,NA,NA
255c9,Save data screen,canvas.Screen,2_3_0_1,NA,NA,timeout,499.62700000001,181109.9,181102.524,181119.168,181602.104,181602.5,2023-08-08T18:06:04Z,181618.795,Gelegenheit,wakati,s,mchanganyiko,kipaumbele,kushuku,NA,NA,1,"c(""distractor1"", ""distractor2"", ""distractor3"")",NA,NA,NA,NA,NA,NA,NA,NA,NA,NA,NA,NA,NA,NA,NA,NA,NA,NA,NA
255c9,shallow,flow.Sequence,2_3_0,NA,NA,completion,4379.697,177206.6,177205.745,177222.407,181602.104,181602.6,2023-08-08T18:06:04Z,181618.795,Gelegenheit,wakati,s,mchanganyiko,kipaumbele,kushuku,NA,NA,NA,"c(""distractor1"", ""distractor2"", ""distractor3"")",NA,NA,NA,NA,NA,NA,NA,NA,NA,NA,NA,NA,NA,NA,NA,NA,NA,NA,NA
255c9,task,flow.Sequence,2_3,NA,NA,completion,4379.697,177206.6,177205.745,177222.407,181602.104,181602.7,2023-08-08T18:06:04Z,181618.795,Gelegenheit,wakati,s,mchanganyiko,kipaumbele,kushuku,NA,NA,NA,"c(""distractor1"", ""distractor2"", ""distractor3"")",NA,NA,NA,NA,NA,NA,NA,NA,NA,NA,NA,NA,NA,NA,NA,NA,NA,NA,NA
255c9,Shallow Question,html.Page,2_4_0_0,NA,NA,form submission,4333.005,181602.8,181602.104,181618.795,185951.8,185951.9,2023-08-08T18:06:08Z,185965.238,Symbol,kielezo,d,kinyume,nderemo,utayari,kielezo,NA,NA,"c(""distractor1"", ""distractor2"", ""distractor3"")",NA,NA,NA,NA,NA,NA,NA,NA,NA,NA,NA,NA,NA,NA,NA,NA,NA,NA,NA
255c9,Save data screen,canvas.Screen,2_4_0_1,NA,NA,timeout,499.5,185953.5,185948.524,185965.238,186448.058,186450.1,2023-08-08T18:06:09Z,186464.738,Symbol,kielezo,d,kinyume,nderemo,utayari,NA,NA,1,"c(""distractor1"", ""distractor2"", ""distractor3"")",NA,NA,NA,NA,NA,NA,NA,NA,NA,NA,NA,NA,NA,NA,NA,NA,NA,NA,NA
255c9,shallow,flow.Sequence,2_4_0,NA,NA,completion,4829.263,181602.8,181602.104,181618.795,186448.058,186450.2,2023-08-08T18:06:09Z,186464.738,Symbol,kielezo,d,kinyume,nderemo,utayari,NA,NA,NA,"c(""distractor1"", ""distractor2"", ""distractor3"")",NA,NA,NA,NA,NA,NA,NA,NA,NA,NA,NA,NA,NA,NA,NA,NA,NA,NA,NA
255c9,task,flow.Sequence,2_4,NA,NA,completion,4829.263,181602.7,181602.104,181618.795,186448.058,186450.2,2023-08-08T18:06:09Z,186464.738,Symbol,kielezo,d,kinyume,nderemo,utayari,NA,NA,NA,"c(""distractor1"", ""distractor2"", ""distractor3"")",NA,NA,NA,NA,NA,NA,NA,NA,NA,NA,NA,NA,NA,NA,NA,NA,NA,NA,NA
255c9,Shallow Question,html.Page,2_5_0_0,NA,NA,form submission,6337.9619999999,186450.3,186448.058,186464.738,192802.7,192802.9,2023-08-08T18:06:15Z,192809.846,Beweis,ushahidi,s,marudio,kizuizi,mtendaji,ushahidi,NA,NA,"c(""distractor1"", ""distractor2"", ""distractor3"")",NA,NA,NA,NA,NA,NA,NA,NA,NA,NA,NA,NA,NA,NA,NA,NA,NA,NA,NA
255c9,Save data screen,canvas.Screen,2_5_0_1,NA,NA,timeout,499.31200000001,192804.4,192792.866,192809.846,193292.536,193293,2023-08-08T18:06:15Z,193309.158,Beweis,ushahidi,s,marudio,kizuizi,mtendaji,NA,NA,1,"c(""distractor1"", ""distractor2"", ""distractor3"")",NA,NA,NA,NA,NA,NA,NA,NA,NA,NA,NA,NA,NA,NA,NA,NA,NA,NA,NA
255c9,shallow,flow.Sequence,2_5_0,NA,NA,completion,6827.798,186450.3,186448.058,186464.738,193292.536,193293.1,2023-08-08T18:06:15Z,193309.158,Beweis,ushahidi,s,marudio,kizuizi,mtendaji,NA,NA,NA,"c(""distractor1"", ""distractor2"", ""distractor3"")",NA,NA,NA,NA,NA,NA,NA,NA,NA,NA,NA,NA,NA,NA,NA,NA,NA,NA,NA
255c9,task,flow.Sequence,2_5,NA,NA,completion,6827.798,186450.3,186448.058,186464.738,193292.536,193293.2,2023-08-08T18:06:15Z,193309.158,Beweis,ushahidi,s,marudio,kizuizi,mtendaji,NA,NA,NA,"c(""distractor1"", ""distractor2"", ""distractor3"")",NA,NA,NA,NA,NA,NA,NA,NA,NA,NA,NA,NA,NA,NA,NA,NA,NA,NA,NA
255c9,Shallow Question,html.Page,2_6_0_0,NA,NA,form submission,8487.542,193293.2,193292.536,193309.158,201796.7,201796.9,2023-08-08T18:06:24Z,201802.446,Zufall,kikuti,d,kukosekana,uchoraji,leseni,uchoraji,NA,NA,"c(""distractor1"", ""distractor2"", ""distractor3"")",NA,NA,NA,NA,NA,NA,NA,NA,NA,NA,NA,NA,NA,NA,NA,NA,NA,NA,NA
255c9,Save data screen,canvas.Screen,2_6_0_1,NA,NA,timeout,499.264,201798.1,201785.471,201802.446,202285.172,202285.7,2023-08-08T18:06:24Z,202301.71,Zufall,kikuti,d,kukosekana,uchoraji,leseni,NA,NA,0,"c(""distractor1"", ""distractor2"", ""distractor3"")",NA,NA,NA,NA,NA,NA,NA,NA,NA,NA,NA,NA,NA,NA,NA,NA,NA,NA,NA
255c9,shallow,flow.Sequence,2_6_0,NA,NA,completion,8976.014,193293.2,193292.536,193309.158,202285.172,202285.8,2023-08-08T18:06:24Z,202301.71,Zufall,kikuti,d,kukosekana,uchoraji,leseni,NA,NA,NA,"c(""distractor1"", ""distractor2"", ""distractor3"")",NA,NA,NA,NA,NA,NA,NA,NA,NA,NA,NA,NA,NA,NA,NA,NA,NA,NA,NA
255c9,task,flow.Sequence,2_6,NA,NA,completion,8976.014,193293.2,193292.536,193309.158,202285.172,202285.9,2023-08-08T18:06:24Z,202301.71,Zufall,kikuti,d,kukosekana,uchoraji,leseni,NA,NA,NA,"c(""distractor1"", ""distractor2"", ""distractor3"")",NA,NA,NA,NA,NA,NA,NA,NA,NA,NA,NA,NA,NA,NA,NA,NA,NA,NA,NA
255c9,Shallow Question,html.Page,2_7_0_0,NA,NA,form submission,6092.79,202286,202285.172,202301.71,208394.5,208394.8,2023-08-08T18:06:31Z,208396.743,Widerstand,usulubu,d,kusababisha,mwalimu,mwenendo,usulubu,NA,NA,"c(""distractor1"", ""distractor2"", ""distractor3"")",NA,NA,NA,NA,NA,NA,NA,NA,NA,NA,NA,NA,NA,NA,NA,NA,NA,NA,NA
255c9,Save data screen,canvas.Screen,2_7_0_1,NA,NA,timeout,499.62700000001,208396.2,208380.051,208396.743,208879.742,208880.3,2023-08-08T18:06:31Z,208896.37,Widerstand,usulubu,d,kusababisha,mwalimu,mwenendo,NA,NA,1,"c(""distractor1"", ""distractor2"", ""distractor3"")",NA,NA,NA,NA,NA,NA,NA,NA,NA,NA,NA,NA,NA,NA,NA,NA,NA,NA,NA
255c9,shallow,flow.Sequence,2_7_0,NA,NA,completion,6578.032,202286,202285.172,202301.71,208879.742,208880.4,2023-08-08T18:06:31Z,208896.37,Widerstand,usulubu,d,kusababisha,mwalimu,mwenendo,NA,NA,NA,"c(""distractor1"", ""distractor2"", ""distractor3"")",NA,NA,NA,NA,NA,NA,NA,NA,NA,NA,NA,NA,NA,NA,NA,NA,NA,NA,NA
255c9,task,flow.Sequence,2_7,NA,NA,completion,6578.032,202286,202285.172,202301.71,208879.742,208880.5,2023-08-08T18:06:31Z,208896.37,Widerstand,usulubu,d,kusababisha,mwalimu,mwenendo,NA,NA,NA,"c(""distractor1"", ""distractor2"", ""distractor3"")",NA,NA,NA,NA,NA,NA,NA,NA,NA,NA,NA,NA,NA,NA,NA,NA,NA,NA,NA
255c9,Shallow Question,html.Page,2_8_0_0,NA,NA,form submission,9301.63,208880.5,208879.742,208896.37,218198,218198.1,2023-08-08T18:06:40Z,218205.468,Auftrag,uagizaji,s,ghanima,kuzingatia,msukani,uagizaji,NA,NA,"c(""distractor1"", ""distractor2"", ""distractor3"")",NA,NA,NA,NA,NA,NA,NA,NA,NA,NA,NA,NA,NA,NA,NA,NA,NA,NA,NA
255c9,Save data screen,canvas.Screen,2_8_0_1,NA,NA,timeout,499.78900000002,218199.4,218188.72,218205.468,218688.357,218689.1,2023-08-08T18:06:41Z,218705.257,Auftrag,uagizaji,s,ghanima,kuzingatia,msukani,NA,NA,1,"c(""distractor1"", ""distractor2"", ""distractor3"")",NA,NA,NA,NA,NA,NA,NA,NA,NA,NA,NA,NA,NA,NA,NA,NA,NA,NA,NA
255c9,shallow,flow.Sequence,2_8_0,NA,NA,completion,9791.987,208880.5,208879.742,208896.37,218688.357,218689.4,2023-08-08T18:06:41Z,218705.257,Auftrag,uagizaji,s,ghanima,kuzingatia,msukani,NA,NA,NA,"c(""distractor1"", ""distractor2"", ""distractor3"")",NA,NA,NA,NA,NA,NA,NA,NA,NA,NA,NA,NA,NA,NA,NA,NA,NA,NA,NA
255c9,task,flow.Sequence,2_8,NA,NA,completion,9791.987,208880.5,208879.742,208896.37,218688.357,218689.4,2023-08-08T18:06:41Z,218705.257,Auftrag,uagizaji,s,ghanima,kuzingatia,msukani,NA,NA,NA,"c(""distractor1"", ""distractor2"", ""distractor3"")",NA,NA,NA,NA,NA,NA,NA,NA,NA,NA,NA,NA,NA,NA,NA,NA,NA,NA,NA
255c9,Shallow Question,html.Page,2_9_0_0,NA,NA,form submission,12757.943,218689.5,218688.357,218705.257,231463.2,231463.4,2023-08-08T18:06:54Z,231477.825,Vorsorge,tahadhari,s,ufafanuzi,makini,mashambani,tahadhari,NA,NA,"c(""distractor1"", ""distractor2"", ""distractor3"")",NA,NA,NA,NA,NA,NA,NA,NA,NA,NA,NA,NA,NA,NA,NA,NA,NA,NA,NA
255c9,Save data screen,canvas.Screen,2_9_0_1,NA,NA,timeout,499.57699999999,231465.1,231461.11,231477.825,231960.673,231961.1,2023-08-08T18:06:54Z,231977.402,Vorsorge,tahadhari,s,ufafanuzi,makini,mashambani,NA,NA,1,"c(""distractor1"", ""distractor2"", ""distractor3"")",NA,NA,NA,NA,NA,NA,NA,NA,NA,NA,NA,NA,NA,NA,NA,NA,NA,NA,NA
255c9,shallow,flow.Sequence,2_9_0,NA,NA,completion,13255.416,218689.5,218688.357,218705.257,231960.673,231961.2,2023-08-08T18:06:54Z,231977.402,Vorsorge,tahadhari,s,ufafanuzi,makini,mashambani,NA,NA,NA,"c(""distractor1"", ""distractor2"", ""distractor3"")",NA,NA,NA,NA,NA,NA,NA,NA,NA,NA,NA,NA,NA,NA,NA,NA,NA,NA,NA
255c9,task,flow.Sequence,2_9,NA,NA,completion,13255.416,218689.4,218688.357,218705.257,231960.673,231961.3,2023-08-08T18:06:54Z,231977.402,Vorsorge,tahadhari,s,ufafanuzi,makini,mashambani,NA,NA,NA,"c(""distractor1"", ""distractor2"", ""distractor3"")",NA,NA,NA,NA,NA,NA,NA,NA,NA,NA,NA,NA,NA,NA,NA,NA,NA,NA,NA
255c9,Shallow Question,html.Page,2_10_0_0,NA,NA,form submission,9703.4979999999,231961.4,231960.673,231977.402,241680.9,241681.1,2023-08-08T18:07:04Z,241686.098,Verstand,ufahamivu,d,shakawa,hadhari,mhandisi,ufahamivu,NA,NA,"c(""distractor1"", ""distractor2"", ""distractor3"")",NA,NA,NA,NA,NA,NA,NA,NA,NA,NA,NA,NA,NA,NA,NA,NA,NA,NA,NA
255c9,Save data screen,canvas.Screen,2_10_0_1,NA,NA,timeout,499.61799999999,241682.3,241669.405,241686.098,242169.059,242169.5,2023-08-08T18:07:04Z,242185.716,Verstand,ufahamivu,d,shakawa,hadhari,mhandisi,NA,NA,1,"c(""distractor1"", ""distractor2"", ""distractor3"")",NA,NA,NA,NA,NA,NA,NA,NA,NA,NA,NA,NA,NA,NA,NA,NA,NA,NA,NA
255c9,shallow,flow.Sequence,2_10_0,NA,NA,completion,10191.657,231961.4,231960.673,231977.402,242169.059,242169.7,2023-08-08T18:07:04Z,242185.716,Verstand,ufahamivu,d,shakawa,hadhari,mhandisi,NA,NA,NA,"c(""distractor1"", ""distractor2"", ""distractor3"")",NA,NA,NA,NA,NA,NA,NA,NA,NA,NA,NA,NA,NA,NA,NA,NA,NA,NA,NA
255c9,task,flow.Sequence,2_10,NA,NA,completion,10191.657,231961.3,231960.673,231977.402,242169.059,242169.7,2023-08-08T18:07:04Z,242185.716,Verstand,ufahamivu,d,shakawa,hadhari,mhandisi,NA,NA,NA,"c(""distractor1"", ""distractor2"", ""distractor3"")",NA,NA,NA,NA,NA,NA,NA,NA,NA,NA,NA,NA,NA,NA,NA,NA,NA,NA,NA
255c9,Shallow Question,html.Page,2_11_0_0,NA,NA,form submission,5240.5840000001,242169.8,242169.059,242185.716,247426.3,247426.5,2023-08-08T18:07:10Z,247431.538,Annäherung,maegesho,d,madahili,kujiamini,mapendekezo,maegesho,NA,NA,"c(""distractor1"", ""distractor2"", ""distractor3"")",NA,NA,NA,NA,NA,NA,NA,NA,NA,NA,NA,NA,NA,NA,NA,NA,NA,NA,NA
255c9,Save data screen,canvas.Screen,2_11_0_1,NA,NA,timeout,499.44899999999,247427.6,247415.305,247431.538,247914.338,247914.8,2023-08-08T18:07:10Z,247930.987,Annäherung,maegesho,d,madahili,kujiamini,mapendekezo,NA,NA,1,"c(""distractor1"", ""distractor2"", ""distractor3"")",NA,NA,NA,NA,NA,NA,NA,NA,NA,NA,NA,NA,NA,NA,NA,NA,NA,NA,NA
255c9,shallow,flow.Sequence,2_11_0,NA,NA,completion,5728.622,242169.8,242169.059,242185.716,247914.338,247915,2023-08-08T18:07:10Z,247930.987,Annäherung,maegesho,d,madahili,kujiamini,mapendekezo,NA,NA,NA,"c(""distractor1"", ""distractor2"", ""distractor3"")",NA,NA,NA,NA,NA,NA,NA,NA,NA,NA,NA,NA,NA,NA,NA,NA,NA,NA,NA
255c9,task,flow.Sequence,2_11,NA,NA,completion,5728.622,242169.8,242169.059,242185.716,247914.338,247915.1,2023-08-08T18:07:10Z,247930.987,Annäherung,maegesho,d,madahili,kujiamini,mapendekezo,NA,NA,NA,"c(""distractor1"", ""distractor2"", ""distractor3"")",NA,NA,NA,NA,NA,NA,NA,NA,NA,NA,NA,NA,NA,NA,NA,NA,NA,NA,NA
255c9,Shallow Question,html.Page,2_12_0_0,NA,NA,form submission,6095.9129999999,247915.1,247914.338,247930.987,254026.9,254027,2023-08-08T18:07:16Z,254042.615,Polizist,msongora,s,simanzi,mandhari,nidhamu,msongora,NA,NA,"c(""distractor1"", ""distractor2"", ""distractor3"")",NA,NA,NA,NA,NA,NA,NA,NA,NA,NA,NA,NA,NA,NA,NA,NA,NA,NA,NA
255c9,Save data screen,canvas.Screen,2_12_0_1,NA,NA,timeout,499.614,254028.8,254025.984,254042.615,254525.595,254526.5,2023-08-08T18:07:17Z,254542.229,Polizist,msongora,s,simanzi,mandhari,nidhamu,NA,NA,1,"c(""distractor1"", ""distractor2"", ""distractor3"")",NA,NA,NA,NA,NA,NA,NA,NA,NA,NA,NA,NA,NA,NA,NA,NA,NA,NA,NA
255c9,shallow,flow.Sequence,2_12_0,NA,NA,completion,6594.608,247915.1,247914.338,247930.987,254525.595,254526.7,2023-08-08T18:07:17Z,254542.229,Polizist,msongora,s,simanzi,mandhari,nidhamu,NA,NA,NA,"c(""distractor1"", ""distractor2"", ""distractor3"")",NA,NA,NA,NA,NA,NA,NA,NA,NA,NA,NA,NA,NA,NA,NA,NA,NA,NA,NA
255c9,task,flow.Sequence,2_12,NA,NA,completion,6594.608,247915.1,247914.338,247930.987,254525.595,254526.8,2023-08-08T18:07:17Z,254542.229,Polizist,msongora,s,simanzi,mandhari,nidhamu,NA,NA,NA,"c(""distractor1"", ""distractor2"", ""distractor3"")",NA,NA,NA,NA,NA,NA,NA,NA,NA,NA,NA,NA,NA,NA,NA,NA,NA,NA,NA
255c9,Shallow Question,html.Page,2_13_0_0,NA,NA,form submission,13863.471,254526.9,254525.595,254542.229,268405.7,268405.9,2023-08-08T18:07:31Z,268414.168,Sympathie,mapendano,d,dhamiria,fungamano,maazimio,dhamiria,NA,NA,"c(""distractor1"", ""distractor2"", ""distractor3"")",NA,NA,NA,NA,NA,NA,NA,NA,NA,NA,NA,NA,NA,NA,NA,NA,NA,NA,NA
255c9,Save data screen,canvas.Screen,2_13_0_1,NA,NA,timeout,499.53100000002,268406.9,268397.466,268414.168,268897.078,268897.7,2023-08-08T18:07:31Z,268913.699,Sympathie,mapendano,d,dhamiria,fungamano,maazimio,NA,NA,0,"c(""distractor1"", ""distractor2"", ""distractor3"")",NA,NA,NA,NA,NA,NA,NA,NA,NA,NA,NA,NA,NA,NA,NA,NA,NA,NA,NA
255c9,shallow,flow.Sequence,2_13_0,NA,NA,completion,14354.849,254526.9,254525.595,254542.229,268897.078,268897.8,2023-08-08T18:07:31Z,268913.699,Sympathie,mapendano,d,dhamiria,fungamano,maazimio,NA,NA,NA,"c(""distractor1"", ""distractor2"", ""distractor3"")",NA,NA,NA,NA,NA,NA,NA,NA,NA,NA,NA,NA,NA,NA,NA,NA,NA,NA,NA
255c9,task,flow.Sequence,2_13,NA,NA,completion,14354.849,254526.9,254525.595,254542.229,268897.078,268897.8,2023-08-08T18:07:31Z,268913.699,Sympathie,mapendano,d,dhamiria,fungamano,maazimio,NA,NA,NA,"c(""distractor1"", ""distractor2"", ""distractor3"")",NA,NA,NA,NA,NA,NA,NA,NA,NA,NA,NA,NA,NA,NA,NA,NA,NA,NA,NA
255c9,Shallow Question,html.Page,2_14_0_0,NA,NA,form submission,4080.0009999999,268897.9,268897.078,268913.699,272993.7,272993.8,2023-08-08T18:07:35Z,273011.144,Schönheit,kirembo,d,mahojiano,msisimko,jitihadi,kirembo,NA,NA,"c(""distractor1"", ""distractor2"", ""distractor3"")",NA,NA,NA,NA,NA,NA,NA,NA,NA,NA,NA,NA,NA,NA,NA,NA,NA,NA,NA
255c9,Save data screen,canvas.Screen,2_14_0_1,NA,NA,timeout,498.76100000006,272995.2,272976.991,273011.144,273493.328,273494,2023-08-08T18:07:36Z,273509.905,Schönheit,kirembo,d,mahojiano,msisimko,jitihadi,NA,NA,1,"c(""distractor1"", ""distractor2"", ""distractor3"")",NA,NA,NA,NA,NA,NA,NA,NA,NA,NA,NA,NA,NA,NA,NA,NA,NA,NA,NA
255c9,shallow,flow.Sequence,2_14_0,NA,NA,completion,4579.629,268897.9,268897.078,268913.699,273493.328,273494.1,2023-08-08T18:07:36Z,273509.905,Schönheit,kirembo,d,mahojiano,msisimko,jitihadi,NA,NA,NA,"c(""distractor1"", ""distractor2"", ""distractor3"")",NA,NA,NA,NA,NA,NA,NA,NA,NA,NA,NA,NA,NA,NA,NA,NA,NA,NA,NA
255c9,task,flow.Sequence,2_14,NA,NA,completion,4579.629,268897.9,268897.078,268913.699,273493.328,273494.1,2023-08-08T18:07:36Z,273509.905,Schönheit,kirembo,d,mahojiano,msisimko,jitihadi,NA,NA,NA,"c(""distractor1"", ""distractor2"", ""distractor3"")",NA,NA,NA,NA,NA,NA,NA,NA,NA,NA,NA,NA,NA,NA,NA,NA,NA,NA,NA
255c9,Shallow Question,html.Page,2_15_0_0,NA,NA,form submission,7322.9949999999,273494.1,273493.328,273509.905,280832.9,280833.1,2023-08-08T18:07:43Z,280837.282,Konkurrent,mshindani,s,msemaji,mvutaji,kipukusa,mshindani,NA,NA,"c(""distractor1"", ""distractor2"", ""distractor3"")",NA,NA,NA,NA,NA,NA,NA,NA,NA,NA,NA,NA,NA,NA,NA,NA,NA,NA,NA
255c9,Save data screen,canvas.Screen,2_15_0_1,NA,NA,timeout,499.50699999998,280834.4,280820.524,280837.282,281320.151,281320.8,2023-08-08T18:07:43Z,281336.789,Konkurrent,mshindani,s,msemaji,mvutaji,kipukusa,NA,NA,1,"c(""distractor1"", ""distractor2"", ""distractor3"")",NA,NA,NA,NA,NA,NA,NA,NA,NA,NA,NA,NA,NA,NA,NA,NA,NA,NA,NA
255c9,shallow,flow.Sequence,2_15_0,NA,NA,completion,7810.246,273494.1,273493.328,273509.905,281320.151,281320.9,2023-08-08T18:07:43Z,281336.789,Konkurrent,mshindani,s,msemaji,mvutaji,kipukusa,NA,NA,NA,"c(""distractor1"", ""distractor2"", ""distractor3"")",NA,NA,NA,NA,NA,NA,NA,NA,NA,NA,NA,NA,NA,NA,NA,NA,NA,NA,NA
255c9,task,flow.Sequence,2_15,NA,NA,completion,7810.246,273494.1,273493.328,273509.905,281320.151,281321,2023-08-08T18:07:43Z,281336.789,Konkurrent,mshindani,s,msemaji,mvutaji,kipukusa,NA,NA,NA,"c(""distractor1"", ""distractor2"", ""distractor3"")",NA,NA,NA,NA,NA,NA,NA,NA,NA,NA,NA,NA,NA,NA,NA,NA,NA,NA,NA
255c9,retrieval block 2 (multiple choice),flow.Loop,2,NA,NA,completion,139635.225,141669.3,141668.228,141684.926,281320.151,281321,2023-08-08T18:07:43Z,281336.789,NA,NA,NA,NA,NA,NA,NA,NA,NA,"c(""distractor1"", ""distractor2"", ""distractor3"")",NA,NA,NA,NA,NA,NA,NA,NA,NA,NA,NA,NA,NA,NA,NA,NA,NA,NA,NA
255c9,End,canvas.Screen,3,NA,keypress(Space),response,2269.411,281321.1,281320.151,281336.789,283606.2,283606.8,2023-08-08T18:07:46Z,283618.44,NA,NA,NA,NA,NA,NA,NA,NA,NA,NULL,NA,NA,NA,NA,NA,NA,NA,NA,NA,NA,NA,NA,NA,NA,NA,NA,NA,NA,NA
255c9,root,flow.Sequence,NA,NA,NA,completion,282689.038,901.5,900.488,917.162,283606.2,283607,2023-08-08T18:07:46Z,283618.44,NA,NA,NA,NA,NA,NA,NA,NA,NA,NULL,NA,NA,NA,NA,NA,NA,NA,NA,NA,NA,NA,NA,NA,NA,NA,NA,NA,NA,NA
2954a,Introduction delayed retrieval,canvas.Screen,0,weiter,keypress(Space),response,1435.512,1229.9,1232.042,1248.688,2684.2,2688.6,2023-08-08T17:51:07Z,2697.503,NA,NA,NA,NA,NA,NA,NA,NA,NA,NULL,177,4,20.2.4,https://neurocog.fernuni.ch/studies/vweber/sliechti/delayed%202/index.html?vp=177&sess=4,"Mozilla/5.0 (Windows NT 10.0; Win64; x64) AppleWebKit/537.36 (KHTML, like Gecko) Chrome/115.0.0.0 Safari/537.36",Win32,de-CH,de,Europe/Zurich,-120,1280,720,1280,563,1280,563,1.5,production,f5b4a49f956347addd546a832a3327688c2c0fef
2954a,Deep Question,html.Page,1_0_0_0,NA,NA,form submission,22357.397,2689,2680.864,2697.503,25054.9,25055.5,2023-08-08T17:51:30Z,25062.508,Gelegenheit,wakati,s,mchanganyiko,kipaumbele,kushuku,mang,NA,NA,NULL,NA,NA,NA,NA,NA,NA,NA,NA,NA,NA,NA,NA,NA,NA,NA,NA,NA,NA,NA
2954a,Save data screen,canvas.Screen,1_0_0_1,NA,NA,timeout,499.546,25059.1,25045.817,25062.508,25545.476,25546.5,2023-08-08T17:51:30Z,25562.054,Gelegenheit,wakati,s,mchanganyiko,kipaumbele,kushuku,NA,NA,0,NULL,NA,NA,NA,NA,NA,NA,NA,NA,NA,NA,NA,NA,NA,NA,NA,NA,NA,NA,NA
2954a,deep,flow.Sequence,1_0_0,NA,NA,completion,22847.973,2688.9,2680.864,2697.503,25545.476,25547,2023-08-08T17:51:30Z,25562.054,Gelegenheit,wakati,s,mchanganyiko,kipaumbele,kushuku,NA,NA,NA,NULL,NA,NA,NA,NA,NA,NA,NA,NA,NA,NA,NA,NA,NA,NA,NA,NA,NA,NA,NA
2954a,task,flow.Sequence,1_0,NA,NA,completion,22847.973,2688.9,2680.864,2697.503,25545.476,25547,2023-08-08T17:51:30Z,25562.054,Gelegenheit,wakati,s,mchanganyiko,kipaumbele,kushuku,NA,NA,NA,NULL,NA,NA,NA,NA,NA,NA,NA,NA,NA,NA,NA,NA,NA,NA,NA,NA,NA,NA,NA
2954a,Deep Question,html.Page,1_1_0_0,NA,NA,form submission,18939.046,25547.1,25545.476,25562.054,44501.1,44501.5,2023-08-08T17:51:49Z,44513.159,Verstand,ufahamivu,d,shakawa,hadhari,mhandisi,ufea,NA,NA,NULL,NA,NA,NA,NA,NA,NA,NA,NA,NA,NA,NA,NA,NA,NA,NA,NA,NA,NA,NA
2954a,Save data screen,canvas.Screen,1_1_0_1,NA,NA,timeout,499.596,44502.7,44496.536,44513.159,44996.106,44996.9,2023-08-08T17:51:50Z,45012.755,Verstand,ufahamivu,d,shakawa,hadhari,mhandisi,NA,NA,0,NULL,NA,NA,NA,NA,NA,NA,NA,NA,NA,NA,NA,NA,NA,NA,NA,NA,NA,NA,NA
2954a,deep,flow.Sequence,1_1_0,NA,NA,completion,19434.052,25547.1,25545.476,25562.054,44996.106,44997.2,2023-08-08T17:51:50Z,45012.755,Verstand,ufahamivu,d,shakawa,hadhari,mhandisi,NA,NA,NA,NULL,NA,NA,NA,NA,NA,NA,NA,NA,NA,NA,NA,NA,NA,NA,NA,NA,NA,NA,NA
2954a,task,flow.Sequence,1_1,NA,NA,completion,19434.052,25547,25545.476,25562.054,44996.106,44997.3,2023-08-08T17:51:50Z,45012.755,Verstand,ufahamivu,d,shakawa,hadhari,mhandisi,NA,NA,NA,NULL,NA,NA,NA,NA,NA,NA,NA,NA,NA,NA,NA,NA,NA,NA,NA,NA,NA,NA,NA
2954a,Deep Question,html.Page,1_2_0_0,NA,NA,form submission,45903.845,44997.4,44996.106,45012.755,90916.6,90920.3,2023-08-08T17:52:36Z,90925.044,Zufall,kikuti,d,kukosekana,uchoraji,leseni,uan,NA,NA,NULL,NA,NA,NA,NA,NA,NA,NA,NA,NA,NA,NA,NA,NA,NA,NA,NA,NA,NA,NA
2954a,Save data screen,canvas.Screen,1_2_0_1,NA,NA,timeout,499.56300000001,90923.5,90908.385,90925.044,91407.965,91408.8,2023-08-08T17:52:36Z,91424.607,Zufall,kikuti,d,kukosekana,uchoraji,leseni,NA,NA,0,NULL,NA,NA,NA,NA,NA,NA,NA,NA,NA,NA,NA,NA,NA,NA,NA,NA,NA,NA,NA
2954a,deep,flow.Sequence,1_2_0,NA,NA,completion,46395.21,44997.4,44996.106,45012.755,91407.965,91409,2023-08-08T17:52:36Z,91424.607,Zufall,kikuti,d,kukosekana,uchoraji,leseni,NA,NA,NA,NULL,NA,NA,NA,NA,NA,NA,NA,NA,NA,NA,NA,NA,NA,NA,NA,NA,NA,NA,NA
2954a,task,flow.Sequence,1_2,NA,NA,completion,46395.21,44997.4,44996.106,45012.755,91407.965,91409.1,2023-08-08T17:52:36Z,91424.607,Zufall,kikuti,d,kukosekana,uchoraji,leseni,NA,NA,NA,NULL,NA,NA,NA,NA,NA,NA,NA,NA,NA,NA,NA,NA,NA,NA,NA,NA,NA,NA,NA
2954a,Deep Question,html.Page,1_3_0_0,NA,NA,form submission,7927.293,91409.2,91407.965,91424.607,99351.9,99352.3,2023-08-08T17:52:44Z,99368.117,Schönheit,kirembo,d,mahojiano,msisimko,jitihadi,dirisha,NA,NA,NULL,NA,NA,NA,NA,NA,NA,NA,NA,NA,NA,NA,NA,NA,NA,NA,NA,NA,NA,NA
2954a,Save data screen,canvas.Screen,1_3_0_1,NA,NA,timeout,499.573,99353.7,99351.318,99368.117,99851.042,99852.5,2023-08-08T17:52:45Z,99867.69,Schönheit,kirembo,d,mahojiano,msisimko,jitihadi,NA,NA,0,NULL,NA,NA,NA,NA,NA,NA,NA,NA,NA,NA,NA,NA,NA,NA,NA,NA,NA,NA,NA
2954a,deep,flow.Sequence,1_3_0,NA,NA,completion,8426.435,91409.2,91407.965,91424.607,99851.042,99852.8,2023-08-08T17:52:45Z,99867.69,Schönheit,kirembo,d,mahojiano,msisimko,jitihadi,NA,NA,NA,NULL,NA,NA,NA,NA,NA,NA,NA,NA,NA,NA,NA,NA,NA,NA,NA,NA,NA,NA,NA
2954a,task,flow.Sequence,1_3,NA,NA,completion,8426.435,91409.2,91407.965,91424.607,99851.042,99852.9,2023-08-08T17:52:45Z,99867.69,Schönheit,kirembo,d,mahojiano,msisimko,jitihadi,NA,NA,NA,NULL,NA,NA,NA,NA,NA,NA,NA,NA,NA,NA,NA,NA,NA,NA,NA,NA,NA,NA,NA
2954a,Deep Question,html.Page,1_4_0_0,NA,NA,form submission,19423.31,99852.9,99851.042,99867.69,119291,119291.4,2023-08-08T17:53:04Z,119301.715,Wettbewerb,ushindani,s,mapendezi,kichocheo,ubaguzi,muefang,NA,NA,NULL,NA,NA,NA,NA,NA,NA,NA,NA,NA,NA,NA,NA,NA,NA,NA,NA,NA,NA,NA
2954a,Save data screen,canvas.Screen,1_4_0_1,NA,NA,timeout,499.75600000001,119293.1,119285.069,119301.715,119784.722,119785.5,2023-08-08T17:53:05Z,119801.471,Wettbewerb,ushindani,s,mapendezi,kichocheo,ubaguzi,NA,NA,0,NULL,NA,NA,NA,NA,NA,NA,NA,NA,NA,NA,NA,NA,NA,NA,NA,NA,NA,NA,NA
2954a,deep,flow.Sequence,1_4_0,NA,NA,completion,19917.032,99852.9,99851.042,99867.69,119784.722,119785.8,2023-08-08T17:53:05Z,119801.471,Wettbewerb,ushindani,s,mapendezi,kichocheo,ubaguzi,NA,NA,NA,NULL,NA,NA,NA,NA,NA,NA,NA,NA,NA,NA,NA,NA,NA,NA,NA,NA,NA,NA,NA
2954a,task,flow.Sequence,1_4,NA,NA,completion,19917.032,99852.9,99851.042,99867.69,119784.722,119786,2023-08-08T17:53:05Z,119801.471,Wettbewerb,ushindani,s,mapendezi,kichocheo,ubaguzi,NA,NA,NA,NULL,NA,NA,NA,NA,NA,NA,NA,NA,NA,NA,NA,NA,NA,NA,NA,NA,NA,NA,NA
2954a,Deep Question,html.Page,1_5_0_0,NA,NA,form submission,22828.829,119786.2,119784.722,119801.471,142630.3,142630.8,2023-08-08T17:53:27Z,142632.59,Symbol,kielezo,d,kinyume,nderemo,utayari,bufeng,NA,NA,NULL,NA,NA,NA,NA,NA,NA,NA,NA,NA,NA,NA,NA,NA,NA,NA,NA,NA,NA,NA
2954a,Save data screen,canvas.Screen,1_5_0_1,NA,NA,timeout,499.59700000001,142634.3,142615.917,142632.59,143115.502,143116.1,2023-08-08T17:53:28Z,143132.187,Symbol,kielezo,d,kinyume,nderemo,utayari,NA,NA,0,NULL,NA,NA,NA,NA,NA,NA,NA,NA,NA,NA,NA,NA,NA,NA,NA,NA,NA,NA,NA
2954a,deep,flow.Sequence,1_5_0,NA,NA,completion,23314.031,119786.2,119784.722,119801.471,143115.502,143116.3,2023-08-08T17:53:28Z,143132.187,Symbol,kielezo,d,kinyume,nderemo,utayari,NA,NA,NA,NULL,NA,NA,NA,NA,NA,NA,NA,NA,NA,NA,NA,NA,NA,NA,NA,NA,NA,NA,NA
2954a,task,flow.Sequence,1_5,NA,NA,completion,23314.031,119786.2,119784.722,119801.471,143115.502,143116.4,2023-08-08T17:53:28Z,143132.187,Symbol,kielezo,d,kinyume,nderemo,utayari,NA,NA,NA,NULL,NA,NA,NA,NA,NA,NA,NA,NA,NA,NA,NA,NA,NA,NA,NA,NA,NA,NA,NA
2954a,Deep Question,html.Page,1_6_0_0,NA,NA,form submission,27121.313,143116.6,143115.502,143132.187,170253.5,170253.7,2023-08-08T17:53:55Z,170259.894,Beweis,ushahidi,s,marudio,kizuizi,mtendaji,fuer,NA,NA,NULL,NA,NA,NA,NA,NA,NA,NA,NA,NA,NA,NA,NA,NA,NA,NA,NA,NA,NA,NA
2954a,Save data screen,canvas.Screen,1_6_0_1,NA,NA,timeout,499.755,170255.5,170243.318,170259.894,170742.876,170743.5,2023-08-08T17:53:56Z,170759.649,Beweis,ushahidi,s,marudio,kizuizi,mtendaji,NA,NA,0,NULL,NA,NA,NA,NA,NA,NA,NA,NA,NA,NA,NA,NA,NA,NA,NA,NA,NA,NA,NA
2954a,deep,flow.Sequence,1_6_0,NA,NA,completion,27610.689,143116.6,143115.502,143132.187,170742.876,170743.6,2023-08-08T17:53:56Z,170759.649,Beweis,ushahidi,s,marudio,kizuizi,mtendaji,NA,NA,NA,NULL,NA,NA,NA,NA,NA,NA,NA,NA,NA,NA,NA,NA,NA,NA,NA,NA,NA,NA,NA
2954a,task,flow.Sequence,1_6,NA,NA,completion,27610.689,143116.6,143115.502,143132.187,170742.876,170743.8,2023-08-08T17:53:56Z,170759.649,Beweis,ushahidi,s,marudio,kizuizi,mtendaji,NA,NA,NA,NULL,NA,NA,NA,NA,NA,NA,NA,NA,NA,NA,NA,NA,NA,NA,NA,NA,NA,NA,NA
2954a,Deep Question,html.Page,1_7_0_0,NA,NA,form submission,8736.051,170743.9,170742.876,170759.649,179495.7,179496,2023-08-08T17:54:04Z,179502.28,Polizist,msongora,s,simanzi,mandhari,nidhamu,mbefa,NA,NA,NULL,NA,NA,NA,NA,NA,NA,NA,NA,NA,NA,NA,NA,NA,NA,NA,NA,NA,NA,NA
2954a,Save data screen,canvas.Screen,1_7_0_1,NA,NA,timeout,499.64000000001,179497.7,179485.76,179502.28,179985.249,179985.8,2023-08-08T17:54:05Z,180001.92,Polizist,msongora,s,simanzi,mandhari,nidhamu,NA,NA,0,NULL,NA,NA,NA,NA,NA,NA,NA,NA,NA,NA,NA,NA,NA,NA,NA,NA,NA,NA,NA
2954a,deep,flow.Sequence,1_7_0,NA,NA,completion,9225.6,170743.9,170742.876,170759.649,179985.249,179985.9,2023-08-08T17:54:05Z,180001.92,Polizist,msongora,s,simanzi,mandhari,nidhamu,NA,NA,NA,NULL,NA,NA,NA,NA,NA,NA,NA,NA,NA,NA,NA,NA,NA,NA,NA,NA,NA,NA,NA
2954a,task,flow.Sequence,1_7,NA,NA,completion,9225.6,170743.8,170742.876,170759.649,179985.249,179986,2023-08-08T17:54:05Z,180001.92,Polizist,msongora,s,simanzi,mandhari,nidhamu,NA,NA,NA,NULL,NA,NA,NA,NA,NA,NA,NA,NA,NA,NA,NA,NA,NA,NA,NA,NA,NA,NA,NA
2954a,Deep Question,html.Page,1_8_0_0,NA,NA,form submission,26325.58,179986.1,179985.249,180001.92,206327.5,206327.8,2023-08-08T17:54:31Z,206330.28,Widerstand,usulubu,d,kusababisha,mwalimu,mwenendo,ufelele,NA,NA,NULL,NA,NA,NA,NA,NA,NA,NA,NA,NA,NA,NA,NA,NA,NA,NA,NA,NA,NA,NA
2954a,Save data screen,canvas.Screen,1_8_0_1,NA,NA,timeout,499.55300000001,206329.4,206313.575,206330.28,206813.169,206813.6,2023-08-08T17:54:32Z,206829.833,Widerstand,usulubu,d,kusababisha,mwalimu,mwenendo,NA,NA,0,NULL,NA,NA,NA,NA,NA,NA,NA,NA,NA,NA,NA,NA,NA,NA,NA,NA,NA,NA,NA
2954a,deep,flow.Sequence,1_8_0,NA,NA,completion,26811.249,179986.1,179985.249,180001.92,206813.169,206813.7,2023-08-08T17:54:32Z,206829.833,Widerstand,usulubu,d,kusababisha,mwalimu,mwenendo,NA,NA,NA,NULL,NA,NA,NA,NA,NA,NA,NA,NA,NA,NA,NA,NA,NA,NA,NA,NA,NA,NA,NA
2954a,task,flow.Sequence,1_8,NA,NA,completion,26811.249,179986.1,179985.249,180001.92,206813.169,206813.8,2023-08-08T17:54:32Z,206829.833,Widerstand,usulubu,d,kusababisha,mwalimu,mwenendo,NA,NA,NA,NULL,NA,NA,NA,NA,NA,NA,NA,NA,NA,NA,NA,NA,NA,NA,NA,NA,NA,NA,NA
2954a,Deep Question,html.Page,1_9_0_0,NA,NA,form submission,30253.067,206814,206813.169,206829.833,237082.9,237083.1,2023-08-08T17:55:02Z,237088.359,Sympathie,mapendano,d,dhamiria,fungamano,maazimio,kiwiliwili,NA,NA,NULL,NA,NA,NA,NA,NA,NA,NA,NA,NA,NA,NA,NA,NA,NA,NA,NA,NA,NA,NA
2954a,Save data screen,canvas.Screen,1_9_0_1,NA,NA,timeout,499.75599999999,237085.4,237071.762,237088.359,237571.361,237571.8,2023-08-08T17:55:02Z,237588.115,Sympathie,mapendano,d,dhamiria,fungamano,maazimio,NA,NA,0,NULL,NA,NA,NA,NA,NA,NA,NA,NA,NA,NA,NA,NA,NA,NA,NA,NA,NA,NA,NA
2954a,deep,flow.Sequence,1_9_0,NA,NA,completion,30741.528,206814,206813.169,206829.833,237571.361,237572.1,2023-08-08T17:55:02Z,237588.115,Sympathie,mapendano,d,dhamiria,fungamano,maazimio,NA,NA,NA,NULL,NA,NA,NA,NA,NA,NA,NA,NA,NA,NA,NA,NA,NA,NA,NA,NA,NA,NA,NA
2954a,task,flow.Sequence,1_9,NA,NA,completion,30741.528,206813.9,206813.169,206829.833,237571.361,237572.1,2023-08-08T17:55:02Z,237588.115,Sympathie,mapendano,d,dhamiria,fungamano,maazimio,NA,NA,NA,NULL,NA,NA,NA,NA,NA,NA,NA,NA,NA,NA,NA,NA,NA,NA,NA,NA,NA,NA,NA
2954a,Deep Question,html.Page,1_10_0_0,NA,NA,form submission,9991.085,237572.2,237571.361,237588.115,247579.2,247579.5,2023-08-08T17:55:12Z,247596.414,Konkurrent,mshindani,s,msemaji,mvutaji,kipukusa,muefesi,NA,NA,NULL,NA,NA,NA,NA,NA,NA,NA,NA,NA,NA,NA,NA,NA,NA,NA,NA,NA,NA,NA
2954a,Save data screen,canvas.Screen,1_10_0_1,NA,NA,timeout,499.516,247581.3,247579.696,247596.414,248079.287,248079.9,2023-08-08T17:55:13Z,248095.93,Konkurrent,mshindani,s,msemaji,mvutaji,kipukusa,NA,NA,0,NULL,NA,NA,NA,NA,NA,NA,NA,NA,NA,NA,NA,NA,NA,NA,NA,NA,NA,NA,NA
2954a,deep,flow.Sequence,1_10_0,NA,NA,completion,10491.172,237572.2,237571.361,237588.115,248079.287,248079.9,2023-08-08T17:55:13Z,248095.93,Konkurrent,mshindani,s,msemaji,mvutaji,kipukusa,NA,NA,NA,NULL,NA,NA,NA,NA,NA,NA,NA,NA,NA,NA,NA,NA,NA,NA,NA,NA,NA,NA,NA
2954a,task,flow.Sequence,1_10,NA,NA,completion,10491.172,237572.2,237571.361,237588.115,248079.287,248080.1,2023-08-08T17:55:13Z,248095.93,Konkurrent,mshindani,s,msemaji,mvutaji,kipukusa,NA,NA,NA,NULL,NA,NA,NA,NA,NA,NA,NA,NA,NA,NA,NA,NA,NA,NA,NA,NA,NA,NA,NA
2954a,Deep Question,html.Page,1_11_0_0,NA,NA,form submission,25144.07,248080.2,248079.287,248095.93,273240,273240.4,2023-08-08T17:55:38Z,273241.967,Vorsorge,tahadhari,s,ufafanuzi,makini,mashambani,ufasa,NA,NA,NULL,NA,NA,NA,NA,NA,NA,NA,NA,NA,NA,NA,NA,NA,NA,NA,NA,NA,NA,NA
2954a,Save data screen,canvas.Screen,1_11_0_1,NA,NA,timeout,499.56300000002,273243.9,273225.331,273241.967,273724.898,273725.5,2023-08-08T17:55:39Z,273741.53,Vorsorge,tahadhari,s,ufafanuzi,makini,mashambani,NA,NA,0,NULL,NA,NA,NA,NA,NA,NA,NA,NA,NA,NA,NA,NA,NA,NA,NA,NA,NA,NA,NA
2954a,deep,flow.Sequence,1_11_0,NA,NA,completion,25628.968,248080.2,248079.287,248095.93,273724.898,273725.8,2023-08-08T17:55:39Z,273741.53,Vorsorge,tahadhari,s,ufafanuzi,makini,mashambani,NA,NA,NA,NULL,NA,NA,NA,NA,NA,NA,NA,NA,NA,NA,NA,NA,NA,NA,NA,NA,NA,NA,NA
2954a,task,flow.Sequence,1_11,NA,NA,completion,25628.968,248080.1,248079.287,248095.93,273724.898,273725.8,2023-08-08T17:55:39Z,273741.53,Vorsorge,tahadhari,s,ufafanuzi,makini,mashambani,NA,NA,NA,NULL,NA,NA,NA,NA,NA,NA,NA,NA,NA,NA,NA,NA,NA,NA,NA,NA,NA,NA,NA
2954a,Deep Question,html.Page,1_12_0_0,NA,NA,form submission,16300.57,273726.6,273724.898,273741.53,290042.1,290042.5,2023-08-08T17:55:55Z,290044.88,Auftrag,uagizaji,s,ghanima,kuzingatia,msukani,muefeki,NA,NA,NULL,NA,NA,NA,NA,NA,NA,NA,NA,NA,NA,NA,NA,NA,NA,NA,NA,NA,NA,NA
2954a,Save data screen,canvas.Screen,1_12_0_1,NA,NA,timeout,499.54099999997,290047.9,290028.13,290044.88,290527.858,290528.5,2023-08-08T17:55:55Z,290544.421,Auftrag,uagizaji,s,ghanima,kuzingatia,msukani,NA,NA,0,NULL,NA,NA,NA,NA,NA,NA,NA,NA,NA,NA,NA,NA,NA,NA,NA,NA,NA,NA,NA
2954a,deep,flow.Sequence,1_12_0,NA,NA,completion,16786.328,273726.5,273724.898,273741.53,290527.858,290528.7,2023-08-08T17:55:55Z,290544.421,Auftrag,uagizaji,s,ghanima,kuzingatia,msukani,NA,NA,NA,NULL,NA,NA,NA,NA,NA,NA,NA,NA,NA,NA,NA,NA,NA,NA,NA,NA,NA,NA,NA
2954a,task,flow.Sequence,1_12,NA,NA,completion,16786.328,273726.2,273724.898,273741.53,290527.858,290528.8,2023-08-08T17:55:55Z,290544.421,Auftrag,uagizaji,s,ghanima,kuzingatia,msukani,NA,NA,NA,NULL,NA,NA,NA,NA,NA,NA,NA,NA,NA,NA,NA,NA,NA,NA,NA,NA,NA,NA,NA
2954a,Deep Question,html.Page,1_13_0_0,NA,NA,form submission,22705.479,290529,290527.858,290544.421,313249.9,313250.3,2023-08-08T17:56:18Z,313259.197,Zuwachs,nyongeza,d,matilaba,udhibiti,hudhurio,urekeshi,NA,NA,NULL,NA,NA,NA,NA,NA,NA,NA,NA,NA,NA,NA,NA,NA,NA,NA,NA,NA,NA,NA
2954a,Save data screen,canvas.Screen,1_13_0_1,NA,NA,timeout,499.473,313252.2,313242.442,313259.197,313742.047,313742.6,2023-08-08T17:56:19Z,313758.67,Zuwachs,nyongeza,d,matilaba,udhibiti,hudhurio,NA,NA,0,NULL,NA,NA,NA,NA,NA,NA,NA,NA,NA,NA,NA,NA,NA,NA,NA,NA,NA,NA,NA
2954a,deep,flow.Sequence,1_13_0,NA,NA,completion,23197.626,290529,290527.858,290544.421,313742.047,313742.8,2023-08-08T17:56:19Z,313758.67,Zuwachs,nyongeza,d,matilaba,udhibiti,hudhurio,NA,NA,NA,NULL,NA,NA,NA,NA,NA,NA,NA,NA,NA,NA,NA,NA,NA,NA,NA,NA,NA,NA,NA
2954a,task,flow.Sequence,1_13,NA,NA,completion,23197.626,290528.9,290527.858,290544.421,313742.047,313743,2023-08-08T17:56:19Z,313758.67,Zuwachs,nyongeza,d,matilaba,udhibiti,hudhurio,NA,NA,NA,NULL,NA,NA,NA,NA,NA,NA,NA,NA,NA,NA,NA,NA,NA,NA,NA,NA,NA,NA,NA
2954a,Deep Question,html.Page,1_14_0_0,NA,NA,form submission,28948.13,313743.2,313742.047,313758.67,342706.8,342707.1,2023-08-08T17:56:47Z,342718.272,Ausschluss,kutengwa,s,ununuzi,taratibu,madeni,kefifi,NA,NA,NULL,NA,NA,NA,NA,NA,NA,NA,NA,NA,NA,NA,NA,NA,NA,NA,NA,NA,NA,NA
2954a,Save data screen,canvas.Screen,1_14_0_1,NA,NA,timeout,499.54200000002,342709.9,342701.633,342718.272,343201.164,343201.8,2023-08-08T17:56:48Z,343217.814,Ausschluss,kutengwa,s,ununuzi,taratibu,madeni,NA,NA,0,NULL,NA,NA,NA,NA,NA,NA,NA,NA,NA,NA,NA,NA,NA,NA,NA,NA,NA,NA,NA
2954a,deep,flow.Sequence,1_14_0,NA,NA,completion,29442.494,313743.1,313742.047,313758.67,343201.164,343202,2023-08-08T17:56:48Z,343217.814,Ausschluss,kutengwa,s,ununuzi,taratibu,madeni,NA,NA,NA,NULL,NA,NA,NA,NA,NA,NA,NA,NA,NA,NA,NA,NA,NA,NA,NA,NA,NA,NA,NA
2954a,task,flow.Sequence,1_14,NA,NA,completion,29442.494,313743,313742.047,313758.67,343201.164,343202.1,2023-08-08T17:56:48Z,343217.814,Ausschluss,kutengwa,s,ununuzi,taratibu,madeni,NA,NA,NA,NULL,NA,NA,NA,NA,NA,NA,NA,NA,NA,NA,NA,NA,NA,NA,NA,NA,NA,NA,NA
2954a,Deep Question,html.Page,1_15_0_0,NA,NA,form submission,11548.486,343202.2,343201.164,343217.814,354766.3,354766.6,2023-08-08T17:57:00Z,354775.061,Annäherung,maegesho,d,madahili,kujiamini,mapendekezo,mubefek,NA,NA,NULL,NA,NA,NA,NA,NA,NA,NA,NA,NA,NA,NA,NA,NA,NA,NA,NA,NA,NA,NA
2954a,Save data screen,canvas.Screen,1_15_0_1,NA,NA,timeout,499.52299999999,354769.2,354758.344,354775.061,355257.961,355258.8,2023-08-08T17:57:00Z,355274.584,Annäherung,maegesho,d,madahili,kujiamini,mapendekezo,NA,NA,0,NULL,NA,NA,NA,NA,NA,NA,NA,NA,NA,NA,NA,NA,NA,NA,NA,NA,NA,NA,NA
2954a,deep,flow.Sequence,1_15_0,NA,NA,completion,12040.147,343202.2,343201.164,343217.814,355257.961,355259,2023-08-08T17:57:00Z,355274.584,Annäherung,maegesho,d,madahili,kujiamini,mapendekezo,NA,NA,NA,NULL,NA,NA,NA,NA,NA,NA,NA,NA,NA,NA,NA,NA,NA,NA,NA,NA,NA,NA,NA
2954a,task,flow.Sequence,1_15,NA,NA,completion,12040.147,343202.2,343201.164,343217.814,355257.961,355259.2,2023-08-08T17:57:00Z,355274.584,Annäherung,maegesho,d,madahili,kujiamini,mapendekezo,NA,NA,NA,NULL,NA,NA,NA,NA,NA,NA,NA,NA,NA,NA,NA,NA,NA,NA,NA,NA,NA,NA,NA
2954a,retrieval block 1 (cued recall),flow.Loop,1,NA,NA,completion,352560.458,2688.8,2680.864,2697.503,355257.961,355259.4,2023-08-08T17:57:00Z,355274.584,NA,NA,NA,NA,NA,NA,NA,NA,NA,NULL,NA,NA,NA,NA,NA,NA,NA,NA,NA,NA,NA,NA,NA,NA,NA,NA,NA,NA,NA
2954a,Shallow Question,html.Page,2_0_0_0,NA,NA,form submission,19546.516,355259.6,355257.961,355274.584,374821.1,374821.4,2023-08-08T17:57:20Z,375191.692,Sympathie,mapendano,d,dhamiria,fungamano,maazimio,dhamiria,NA,NA,"c(""distractor1"", ""distractor2"", ""distractor3"")",NA,NA,NA,NA,NA,NA,NA,NA,NA,NA,NA,NA,NA,NA,NA,NA,NA,NA,NA
2954a,Save data screen,canvas.Screen,2_0_0_1,NA,NA,timeout,532.85500000004,374822.8,374625.342,375191.692,375674.593,375675.1,2023-08-08T17:57:20Z,375724.547,Sympathie,mapendano,d,dhamiria,fungamano,maazimio,NA,NA,0,"c(""distractor1"", ""distractor2"", ""distractor3"")",NA,NA,NA,NA,NA,NA,NA,NA,NA,NA,NA,NA,NA,NA,NA,NA,NA,NA,NA
2954a,shallow,flow.Sequence,2_0_0,NA,NA,completion,20400.009,355259.6,355257.961,355274.584,375674.593,375675.3,2023-08-08T17:57:20Z,375724.547,Sympathie,mapendano,d,dhamiria,fungamano,maazimio,NA,NA,NA,"c(""distractor1"", ""distractor2"", ""distractor3"")",NA,NA,NA,NA,NA,NA,NA,NA,NA,NA,NA,NA,NA,NA,NA,NA,NA,NA,NA
2954a,task,flow.Sequence,2_0,NA,NA,completion,20400.009,355259.5,355257.961,355274.584,375674.593,375675.5,2023-08-08T17:57:20Z,375724.547,Sympathie,mapendano,d,dhamiria,fungamano,maazimio,NA,NA,NA,"c(""distractor1"", ""distractor2"", ""distractor3"")",NA,NA,NA,NA,NA,NA,NA,NA,NA,NA,NA,NA,NA,NA,NA,NA,NA,NA,NA
2954a,Shallow Question,html.Page,2_1_0_0,NA,NA,form submission,22555.853,375675.6,375674.593,375724.547,398280.4,398280.7,2023-08-08T17:57:43Z,398289.253,Verstand,ufahamivu,d,shakawa,hadhari,mhandisi,ufahamivu,NA,NA,"c(""distractor1"", ""distractor2"", ""distractor3"")",NA,NA,NA,NA,NA,NA,NA,NA,NA,NA,NA,NA,NA,NA,NA,NA,NA,NA,NA
2954a,Save data screen,canvas.Screen,2_1_0_1,NA,NA,timeout,499.67699999997,398282.2,398272.528,398289.253,398772.235,398772.9,2023-08-08T17:57:44Z,398788.93,Verstand,ufahamivu,d,shakawa,hadhari,mhandisi,NA,NA,1,"c(""distractor1"", ""distractor2"", ""distractor3"")",NA,NA,NA,NA,NA,NA,NA,NA,NA,NA,NA,NA,NA,NA,NA,NA,NA,NA,NA
2954a,shallow,flow.Sequence,2_1_0,NA,NA,completion,23047.688,375675.6,375674.593,375724.547,398772.235,398773,2023-08-08T17:57:44Z,398788.93,Verstand,ufahamivu,d,shakawa,hadhari,mhandisi,NA,NA,NA,"c(""distractor1"", ""distractor2"", ""distractor3"")",NA,NA,NA,NA,NA,NA,NA,NA,NA,NA,NA,NA,NA,NA,NA,NA,NA,NA,NA
2954a,task,flow.Sequence,2_1,NA,NA,completion,23047.688,375675.6,375674.593,375724.547,398772.235,398773.2,2023-08-08T17:57:44Z,398788.93,Verstand,ufahamivu,d,shakawa,hadhari,mhandisi,NA,NA,NA,"c(""distractor1"", ""distractor2"", ""distractor3"")",NA,NA,NA,NA,NA,NA,NA,NA,NA,NA,NA,NA,NA,NA,NA,NA,NA,NA,NA
2954a,Shallow Question,html.Page,2_2_0_0,NA,NA,form submission,17433.57,398773.3,398772.235,398788.93,416222.5,416222.9,2023-08-08T17:58:01Z,416224.539,Polizist,msongora,s,simanzi,mandhari,nidhamu,mandhari,NA,NA,"c(""distractor1"", ""distractor2"", ""distractor3"")",NA,NA,NA,NA,NA,NA,NA,NA,NA,NA,NA,NA,NA,NA,NA,NA,NA,NA,NA
2954a,Save data screen,canvas.Screen,2_2_0_1,NA,NA,timeout,499.65500000003,416225,416207.759,416224.539,416707.532,416708.1,2023-08-08T17:58:01Z,416724.194,Polizist,msongora,s,simanzi,mandhari,nidhamu,NA,NA,0,"c(""distractor1"", ""distractor2"", ""distractor3"")",NA,NA,NA,NA,NA,NA,NA,NA,NA,NA,NA,NA,NA,NA,NA,NA,NA,NA,NA
2954a,shallow,flow.Sequence,2_2_0,NA,NA,completion,17918.602,398773.3,398772.235,398788.93,416707.532,416708.3,2023-08-08T17:58:01Z,416724.194,Polizist,msongora,s,simanzi,mandhari,nidhamu,NA,NA,NA,"c(""distractor1"", ""distractor2"", ""distractor3"")",NA,NA,NA,NA,NA,NA,NA,NA,NA,NA,NA,NA,NA,NA,NA,NA,NA,NA,NA
2954a,task,flow.Sequence,2_2,NA,NA,completion,17918.602,398773.2,398772.235,398788.93,416707.532,416708.4,2023-08-08T17:58:01Z,416724.194,Polizist,msongora,s,simanzi,mandhari,nidhamu,NA,NA,NA,"c(""distractor1"", ""distractor2"", ""distractor3"")",NA,NA,NA,NA,NA,NA,NA,NA,NA,NA,NA,NA,NA,NA,NA,NA,NA,NA,NA
2954a,Shallow Question,html.Page,2_3_0_0,NA,NA,form submission,19272.406,416708.5,416707.532,416724.194,435996.6,435996.8,2023-08-08T17:58:21Z,436008.311,Vorsorge,tahadhari,s,ufafanuzi,makini,mashambani,mashambani,NA,NA,"c(""distractor1"", ""distractor2"", ""distractor3"")",NA,NA,NA,NA,NA,NA,NA,NA,NA,NA,NA,NA,NA,NA,NA,NA,NA,NA,NA
2954a,Save data screen,canvas.Screen,2_3_0_1,NA,NA,timeout,499.58400000003,435998.1,435991.611,436008.311,436491.247,436491.8,2023-08-08T17:58:21Z,436507.895,Vorsorge,tahadhari,s,ufafanuzi,makini,mashambani,NA,NA,0,"c(""distractor1"", ""distractor2"", ""distractor3"")",NA,NA,NA,NA,NA,NA,NA,NA,NA,NA,NA,NA,NA,NA,NA,NA,NA,NA,NA
2954a,shallow,flow.Sequence,2_3_0,NA,NA,completion,19767.053,416708.5,416707.532,416724.194,436491.247,436491.9,2023-08-08T17:58:21Z,436507.895,Vorsorge,tahadhari,s,ufafanuzi,makini,mashambani,NA,NA,NA,"c(""distractor1"", ""distractor2"", ""distractor3"")",NA,NA,NA,NA,NA,NA,NA,NA,NA,NA,NA,NA,NA,NA,NA,NA,NA,NA,NA
2954a,task,flow.Sequence,2_3,NA,NA,completion,19767.053,416708.5,416707.532,416724.194,436491.247,436492,2023-08-08T17:58:21Z,436507.895,Vorsorge,tahadhari,s,ufafanuzi,makini,mashambani,NA,NA,NA,"c(""distractor1"", ""distractor2"", ""distractor3"")",NA,NA,NA,NA,NA,NA,NA,NA,NA,NA,NA,NA,NA,NA,NA,NA,NA,NA,NA
2954a,Shallow Question,html.Page,2_4_0_0,NA,NA,form submission,4447.705,436492.1,436491.247,436507.895,440955.6,440955.7,2023-08-08T17:58:26Z,440970.873,Wettbewerb,ushindani,s,mapendezi,kichocheo,ubaguzi,ushindani,NA,NA,"c(""distractor1"", ""distractor2"", ""distractor3"")",NA,NA,NA,NA,NA,NA,NA,NA,NA,NA,NA,NA,NA,NA,NA,NA,NA,NA,NA
2954a,Save data screen,canvas.Screen,2_4_0_1,NA,NA,timeout,499.67099999997,440957.1,440954.224,440970.873,441453.936,441454.6,2023-08-08T17:58:26Z,441470.544,Wettbewerb,ushindani,s,mapendezi,kichocheo,ubaguzi,NA,NA,1,"c(""distractor1"", ""distractor2"", ""distractor3"")",NA,NA,NA,NA,NA,NA,NA,NA,NA,NA,NA,NA,NA,NA,NA,NA,NA,NA,NA
2954a,shallow,flow.Sequence,2_4_0,NA,NA,completion,4946.041,436492.1,436491.247,436507.895,441453.936,441454.9,2023-08-08T17:58:26Z,441470.544,Wettbewerb,ushindani,s,mapendezi,kichocheo,ubaguzi,NA,NA,NA,"c(""distractor1"", ""distractor2"", ""distractor3"")",NA,NA,NA,NA,NA,NA,NA,NA,NA,NA,NA,NA,NA,NA,NA,NA,NA,NA,NA
2954a,task,flow.Sequence,2_4,NA,NA,completion,4946.041,436492.1,436491.247,436507.895,441453.936,441455.1,2023-08-08T17:58:26Z,441470.544,Wettbewerb,ushindani,s,mapendezi,kichocheo,ubaguzi,NA,NA,NA,"c(""distractor1"", ""distractor2"", ""distractor3"")",NA,NA,NA,NA,NA,NA,NA,NA,NA,NA,NA,NA,NA,NA,NA,NA,NA,NA,NA
2954a,Shallow Question,html.Page,2_5_0_0,NA,NA,form submission,10302.756,441455.3,441453.936,441470.544,451773.3,451773.5,2023-08-08T17:58:37Z,451778.701,Zufall,kikuti,d,kukosekana,uchoraji,leseni,kikuti,NA,NA,"c(""distractor1"", ""distractor2"", ""distractor3"")",NA,NA,NA,NA,NA,NA,NA,NA,NA,NA,NA,NA,NA,NA,NA,NA,NA,NA,NA
2954a,Save data screen,canvas.Screen,2_5_0_1,NA,NA,timeout,499.61300000001,451775.6,451761.662,451778.701,452261.624,452262.5,2023-08-08T17:58:37Z,452278.314,Zufall,kikuti,d,kukosekana,uchoraji,leseni,NA,NA,1,"c(""distractor1"", ""distractor2"", ""distractor3"")",NA,NA,NA,NA,NA,NA,NA,NA,NA,NA,NA,NA,NA,NA,NA,NA,NA,NA,NA
2954a,shallow,flow.Sequence,2_5_0,NA,NA,completion,10791.08,441455.3,441453.936,441470.544,452261.624,452262.7,2023-08-08T17:58:37Z,452278.314,Zufall,kikuti,d,kukosekana,uchoraji,leseni,NA,NA,NA,"c(""distractor1"", ""distractor2"", ""distractor3"")",NA,NA,NA,NA,NA,NA,NA,NA,NA,NA,NA,NA,NA,NA,NA,NA,NA,NA,NA
2954a,task,flow.Sequence,2_5,NA,NA,completion,10791.08,441455.2,441453.936,441470.544,452261.624,452262.9,2023-08-08T17:58:37Z,452278.314,Zufall,kikuti,d,kukosekana,uchoraji,leseni,NA,NA,NA,"c(""distractor1"", ""distractor2"", ""distractor3"")",NA,NA,NA,NA,NA,NA,NA,NA,NA,NA,NA,NA,NA,NA,NA,NA,NA,NA,NA
2954a,Shallow Question,html.Page,2_6_0_0,NA,NA,form submission,21296.686,452262.9,452261.624,452278.314,473575,473575.1,2023-08-08T17:58:58Z,473577.496,Symbol,kielezo,d,kinyume,nderemo,utayari,utayari,NA,NA,"c(""distractor1"", ""distractor2"", ""distractor3"")",NA,NA,NA,NA,NA,NA,NA,NA,NA,NA,NA,NA,NA,NA,NA,NA,NA,NA,NA
2954a,Save data screen,canvas.Screen,2_6_0_1,NA,NA,timeout,666.13400000002,473577,473560.782,473577.496,474060.382,474060.9,2023-08-08T17:58:59Z,474243.63,Symbol,kielezo,d,kinyume,nderemo,utayari,NA,NA,0,"c(""distractor1"", ""distractor2"", ""distractor3"")",NA,NA,NA,NA,NA,NA,NA,NA,NA,NA,NA,NA,NA,NA,NA,NA,NA,NA,NA
2954a,shallow,flow.Sequence,2_6_0,NA,NA,completion,21782.068,452262.9,452261.624,452278.314,474060.382,474061,2023-08-08T17:58:59Z,474243.63,Symbol,kielezo,d,kinyume,nderemo,utayari,NA,NA,NA,"c(""distractor1"", ""distractor2"", ""distractor3"")",NA,NA,NA,NA,NA,NA,NA,NA,NA,NA,NA,NA,NA,NA,NA,NA,NA,NA,NA
2954a,task,flow.Sequence,2_6,NA,NA,completion,21782.068,452262.9,452261.624,452278.314,474060.382,474061.1,2023-08-08T17:58:59Z,474243.63,Symbol,kielezo,d,kinyume,nderemo,utayari,NA,NA,NA,"c(""distractor1"", ""distractor2"", ""distractor3"")",NA,NA,NA,NA,NA,NA,NA,NA,NA,NA,NA,NA,NA,NA,NA,NA,NA,NA,NA
2954a,Shallow Question,html.Page,2_7_0_0,NA,NA,form submission,15012.77,474061.2,474060.382,474243.63,489256.4,489256.9,2023-08-08T17:59:14Z,489264.553,Annäherung,maegesho,d,madahili,kujiamini,mapendekezo,mapendekezo,NA,NA,"c(""distractor1"", ""distractor2"", ""distractor3"")",NA,NA,NA,NA,NA,NA,NA,NA,NA,NA,NA,NA,NA,NA,NA,NA,NA,NA,NA
2954a,Save data screen,canvas.Screen,2_7_0_1,NA,NA,timeout,499.57699999999,489259.1,489247.824,489264.553,489747.479,489748.5,2023-08-08T17:59:15Z,489764.13,Annäherung,maegesho,d,madahili,kujiamini,mapendekezo,NA,NA,0,"c(""distractor1"", ""distractor2"", ""distractor3"")",NA,NA,NA,NA,NA,NA,NA,NA,NA,NA,NA,NA,NA,NA,NA,NA,NA,NA,NA
2954a,shallow,flow.Sequence,2_7_0,NA,NA,completion,15503.849,474061.2,474060.382,474243.63,489747.479,489748.7,2023-08-08T17:59:15Z,489764.13,Annäherung,maegesho,d,madahili,kujiamini,mapendekezo,NA,NA,NA,"c(""distractor1"", ""distractor2"", ""distractor3"")",NA,NA,NA,NA,NA,NA,NA,NA,NA,NA,NA,NA,NA,NA,NA,NA,NA,NA,NA
2954a,task,flow.Sequence,2_7,NA,NA,completion,15503.849,474061.2,474060.382,474243.63,489747.479,489748.8,2023-08-08T17:59:15Z,489764.13,Annäherung,maegesho,d,madahili,kujiamini,mapendekezo,NA,NA,NA,"c(""distractor1"", ""distractor2"", ""distractor3"")",NA,NA,NA,NA,NA,NA,NA,NA,NA,NA,NA,NA,NA,NA,NA,NA,NA,NA,NA
2954a,Shallow Question,html.Page,2_8_0_0,NA,NA,form submission,8028.97,489749,489747.479,489764.13,497793.1,497793.4,2023-08-08T17:59:23Z,497807.621,Auftrag,uagizaji,s,ghanima,kuzingatia,msukani,uagizaji,NA,NA,"c(""distractor1"", ""distractor2"", ""distractor3"")",NA,NA,NA,NA,NA,NA,NA,NA,NA,NA,NA,NA,NA,NA,NA,NA,NA,NA,NA
2954a,Save data screen,canvas.Screen,2_8_0_1,NA,NA,timeout,499.68400000001,497795.2,497790.92,497807.621,498290.489,498290.9,2023-08-08T17:59:23Z,498307.305,Auftrag,uagizaji,s,ghanima,kuzingatia,msukani,NA,NA,1,"c(""distractor1"", ""distractor2"", ""distractor3"")",NA,NA,NA,NA,NA,NA,NA,NA,NA,NA,NA,NA,NA,NA,NA,NA,NA,NA,NA
2954a,shallow,flow.Sequence,2_8_0,NA,NA,completion,8526.359,489749,489747.479,489764.13,498290.489,498291,2023-08-08T17:59:23Z,498307.305,Auftrag,uagizaji,s,ghanima,kuzingatia,msukani,NA,NA,NA,"c(""distractor1"", ""distractor2"", ""distractor3"")",NA,NA,NA,NA,NA,NA,NA,NA,NA,NA,NA,NA,NA,NA,NA,NA,NA,NA,NA
2954a,task,flow.Sequence,2_8,NA,NA,completion,8526.359,489748.9,489747.479,489764.13,498290.489,498291.1,2023-08-08T17:59:23Z,498307.305,Auftrag,uagizaji,s,ghanima,kuzingatia,msukani,NA,NA,NA,"c(""distractor1"", ""distractor2"", ""distractor3"")",NA,NA,NA,NA,NA,NA,NA,NA,NA,NA,NA,NA,NA,NA,NA,NA,NA,NA,NA
2954a,Shallow Question,html.Page,2_9_0_0,NA,NA,form submission,9533.9950000001,498291.1,498290.489,498307.305,507841.3,507841.5,2023-08-08T17:59:33Z,507849.385,Widerstand,usulubu,d,kusababisha,mwalimu,mwenendo,usulubu,NA,NA,"c(""distractor1"", ""distractor2"", ""distractor3"")",NA,NA,NA,NA,NA,NA,NA,NA,NA,NA,NA,NA,NA,NA,NA,NA,NA,NA,NA
2954a,Save data screen,canvas.Screen,2_9_0_1,NA,NA,timeout,499.49799999996,507842.8,507832.786,507849.385,508332.21,508332.8,2023-08-08T17:59:33Z,508348.883,Widerstand,usulubu,d,kusababisha,mwalimu,mwenendo,NA,NA,1,"c(""distractor1"", ""distractor2"", ""distractor3"")",NA,NA,NA,NA,NA,NA,NA,NA,NA,NA,NA,NA,NA,NA,NA,NA,NA,NA,NA
2954a,shallow,flow.Sequence,2_9_0,NA,NA,completion,10024.905,498291.1,498290.489,498307.305,508332.21,508332.9,2023-08-08T17:59:33Z,508348.883,Widerstand,usulubu,d,kusababisha,mwalimu,mwenendo,NA,NA,NA,"c(""distractor1"", ""distractor2"", ""distractor3"")",NA,NA,NA,NA,NA,NA,NA,NA,NA,NA,NA,NA,NA,NA,NA,NA,NA,NA,NA
2954a,task,flow.Sequence,2_9,NA,NA,completion,10024.905,498291.1,498290.489,498307.305,508332.21,508333,2023-08-08T17:59:33Z,508348.883,Widerstand,usulubu,d,kusababisha,mwalimu,mwenendo,NA,NA,NA,"c(""distractor1"", ""distractor2"", ""distractor3"")",NA,NA,NA,NA,NA,NA,NA,NA,NA,NA,NA,NA,NA,NA,NA,NA,NA,NA,NA
2954a,Shallow Question,html.Page,2_10_0_0,NA,NA,form submission,14415.117,508333,508332.21,508348.883,522764,522764.2,2023-08-08T17:59:48Z,522770.339,Konkurrent,mshindani,s,msemaji,mvutaji,kipukusa,kipukusa,NA,NA,"c(""distractor1"", ""distractor2"", ""distractor3"")",NA,NA,NA,NA,NA,NA,NA,NA,NA,NA,NA,NA,NA,NA,NA,NA,NA,NA,NA
2954a,Save data screen,canvas.Screen,2_10_0_1,NA,NA,timeout,499.58199999999,522765.5,522753.714,522770.339,523253.289,523253.8,2023-08-08T17:59:48Z,523269.921,Konkurrent,mshindani,s,msemaji,mvutaji,kipukusa,NA,NA,0,"c(""distractor1"", ""distractor2"", ""distractor3"")",NA,NA,NA,NA,NA,NA,NA,NA,NA,NA,NA,NA,NA,NA,NA,NA,NA,NA,NA
2954a,shallow,flow.Sequence,2_10_0,NA,NA,completion,14904.406,508333,508332.21,508348.883,523253.289,523254,2023-08-08T17:59:48Z,523269.921,Konkurrent,mshindani,s,msemaji,mvutaji,kipukusa,NA,NA,NA,"c(""distractor1"", ""distractor2"", ""distractor3"")",NA,NA,NA,NA,NA,NA,NA,NA,NA,NA,NA,NA,NA,NA,NA,NA,NA,NA,NA
2954a,task,flow.Sequence,2_10,NA,NA,completion,14904.406,508333,508332.21,508348.883,523253.289,523254.1,2023-08-08T17:59:48Z,523269.921,Konkurrent,mshindani,s,msemaji,mvutaji,kipukusa,NA,NA,NA,"c(""distractor1"", ""distractor2"", ""distractor3"")",NA,NA,NA,NA,NA,NA,NA,NA,NA,NA,NA,NA,NA,NA,NA,NA,NA,NA,NA
2954a,Shallow Question,html.Page,2_11_0_0,NA,NA,form submission,19945.179,523254.1,523253.289,523269.921,543215.1,543215.3,2023-08-08T18:00:08Z,543220.294,Gelegenheit,wakati,s,mchanganyiko,kipaumbele,kushuku,kushuku,NA,NA,"c(""distractor1"", ""distractor2"", ""distractor3"")",NA,NA,NA,NA,NA,NA,NA,NA,NA,NA,NA,NA,NA,NA,NA,NA,NA,NA,NA
2954a,Save data screen,canvas.Screen,2_11_0_1,NA,NA,timeout,499.52099999995,543216.7,543203.639,543220.294,543703.169,543703.6,2023-08-08T18:00:08Z,543719.815,Gelegenheit,wakati,s,mchanganyiko,kipaumbele,kushuku,NA,NA,0,"c(""distractor1"", ""distractor2"", ""distractor3"")",NA,NA,NA,NA,NA,NA,NA,NA,NA,NA,NA,NA,NA,NA,NA,NA,NA,NA,NA
2954a,shallow,flow.Sequence,2_11_0,NA,NA,completion,20433.248,523254.1,523253.289,523269.921,543703.169,543703.8,2023-08-08T18:00:08Z,543719.815,Gelegenheit,wakati,s,mchanganyiko,kipaumbele,kushuku,NA,NA,NA,"c(""distractor1"", ""distractor2"", ""distractor3"")",NA,NA,NA,NA,NA,NA,NA,NA,NA,NA,NA,NA,NA,NA,NA,NA,NA,NA,NA
2954a,task,flow.Sequence,2_11,NA,NA,completion,20433.248,523254.1,523253.289,523269.921,543703.169,543703.9,2023-08-08T18:00:08Z,543719.815,Gelegenheit,wakati,s,mchanganyiko,kipaumbele,kushuku,NA,NA,NA,"c(""distractor1"", ""distractor2"", ""distractor3"")",NA,NA,NA,NA,NA,NA,NA,NA,NA,NA,NA,NA,NA,NA,NA,NA,NA,NA,NA
2954a,Shallow Question,html.Page,2_12_0_0,NA,NA,form submission,6146.785,543704,543703.169,543719.815,549866.6,549866.9,2023-08-08T18:00:15Z,549881.483,Ausschluss,kutengwa,s,ununuzi,taratibu,madeni,kutengwa,NA,NA,"c(""distractor1"", ""distractor2"", ""distractor3"")",NA,NA,NA,NA,NA,NA,NA,NA,NA,NA,NA,NA,NA,NA,NA,NA,NA,NA,NA
2954a,Save data screen,canvas.Screen,2_12_0_1,NA,NA,timeout,499.56499999994,549868.2,549864.759,549881.483,550364.358,550364.9,2023-08-08T18:00:15Z,550381.048,Ausschluss,kutengwa,s,ununuzi,taratibu,madeni,NA,NA,1,"c(""distractor1"", ""distractor2"", ""distractor3"")",NA,NA,NA,NA,NA,NA,NA,NA,NA,NA,NA,NA,NA,NA,NA,NA,NA,NA,NA
2954a,shallow,flow.Sequence,2_12_0,NA,NA,completion,6644.5430000001,543704,543703.169,543719.815,550364.358,550365,2023-08-08T18:00:15Z,550381.048,Ausschluss,kutengwa,s,ununuzi,taratibu,madeni,NA,NA,NA,"c(""distractor1"", ""distractor2"", ""distractor3"")",NA,NA,NA,NA,NA,NA,NA,NA,NA,NA,NA,NA,NA,NA,NA,NA,NA,NA,NA
2954a,task,flow.Sequence,2_12,NA,NA,completion,6644.5430000001,543704,543703.169,543719.815,550364.358,550365.1,2023-08-08T18:00:15Z,550381.048,Ausschluss,kutengwa,s,ununuzi,taratibu,madeni,NA,NA,NA,"c(""distractor1"", ""distractor2"", ""distractor3"")",NA,NA,NA,NA,NA,NA,NA,NA,NA,NA,NA,NA,NA,NA,NA,NA,NA,NA,NA
2954a,Shallow Question,html.Page,2_13_0_0,NA,NA,form submission,10436.652,550365.1,550364.358,550381.048,560817.7,560817.9,2023-08-08T18:00:26Z,560905.844,Beweis,ushahidi,s,marudio,kizuizi,mtendaji,mtendaji,NA,NA,"c(""distractor1"", ""distractor2"", ""distractor3"")",NA,NA,NA,NA,NA,NA,NA,NA,NA,NA,NA,NA,NA,NA,NA,NA,NA,NA,NA
2954a,Save data screen,canvas.Screen,2_13_0_1,NA,NA,timeout,499.43099999998,560819.2,560805.909,560905.844,561388.758,561389.3,2023-08-08T18:00:26Z,561405.275,Beweis,ushahidi,s,marudio,kizuizi,mtendaji,NA,NA,0,"c(""distractor1"", ""distractor2"", ""distractor3"")",NA,NA,NA,NA,NA,NA,NA,NA,NA,NA,NA,NA,NA,NA,NA,NA,NA,NA,NA
2954a,shallow,flow.Sequence,2_13_0,NA,NA,completion,11007.71,550365.1,550364.358,550381.048,561388.758,561389.5,2023-08-08T18:00:26Z,561405.275,Beweis,ushahidi,s,marudio,kizuizi,mtendaji,NA,NA,NA,"c(""distractor1"", ""distractor2"", ""distractor3"")",NA,NA,NA,NA,NA,NA,NA,NA,NA,NA,NA,NA,NA,NA,NA,NA,NA,NA,NA
2954a,task,flow.Sequence,2_13,NA,NA,completion,11007.71,550365.1,550364.358,550381.048,561388.758,561389.6,2023-08-08T18:00:26Z,561405.275,Beweis,ushahidi,s,marudio,kizuizi,mtendaji,NA,NA,NA,"c(""distractor1"", ""distractor2"", ""distractor3"")",NA,NA,NA,NA,NA,NA,NA,NA,NA,NA,NA,NA,NA,NA,NA,NA,NA,NA,NA
2954a,Shallow Question,html.Page,2_14_0_0,NA,NA,form submission,11481.525,561389.8,561388.758,561405.275,572886.8,572886.9,2023-08-08T18:00:38Z,572895.837,Zuwachs,nyongeza,d,matilaba,udhibiti,hudhurio,nyongeza,NA,NA,"c(""distractor1"", ""distractor2"", ""distractor3"")",NA,NA,NA,NA,NA,NA,NA,NA,NA,NA,NA,NA,NA,NA,NA,NA,NA,NA,NA
2954a,Save data screen,canvas.Screen,2_14_0_1,NA,NA,timeout,499.57699999993,572888.2,572879.201,572895.837,573378.768,573379.2,2023-08-08T18:00:38Z,573395.414,Zuwachs,nyongeza,d,matilaba,udhibiti,hudhurio,NA,NA,1,"c(""distractor1"", ""distractor2"", ""distractor3"")",NA,NA,NA,NA,NA,NA,NA,NA,NA,NA,NA,NA,NA,NA,NA,NA,NA,NA,NA
2954a,shallow,flow.Sequence,2_14_0,NA,NA,completion,11973.493,561389.7,561388.758,561405.275,573378.768,573379.3,2023-08-08T18:00:38Z,573395.414,Zuwachs,nyongeza,d,matilaba,udhibiti,hudhurio,NA,NA,NA,"c(""distractor1"", ""distractor2"", ""distractor3"")",NA,NA,NA,NA,NA,NA,NA,NA,NA,NA,NA,NA,NA,NA,NA,NA,NA,NA,NA
2954a,task,flow.Sequence,2_14,NA,NA,completion,11973.493,561389.7,561388.758,561405.275,573378.768,573379.4,2023-08-08T18:00:38Z,573395.414,Zuwachs,nyongeza,d,matilaba,udhibiti,hudhurio,NA,NA,NA,"c(""distractor1"", ""distractor2"", ""distractor3"")",NA,NA,NA,NA,NA,NA,NA,NA,NA,NA,NA,NA,NA,NA,NA,NA,NA,NA,NA
2954a,Shallow Question,html.Page,2_15_0_0,NA,NA,form submission,4179.2860000001,573379.5,573378.768,573395.414,577574.7,577574.9,2023-08-08T18:00:42Z,577575.359,Schönheit,kirembo,d,mahojiano,msisimko,jitihadi,kirembo,NA,NA,"c(""distractor1"", ""distractor2"", ""distractor3"")",NA,NA,NA,NA,NA,NA,NA,NA,NA,NA,NA,NA,NA,NA,NA,NA,NA,NA,NA
2954a,Save data screen,canvas.Screen,2_15_0_1,NA,NA,timeout,499.75099999993,577576.5,577558.585,577575.359,578058.299,578058.9,2023-08-08T18:00:43Z,578075.11,Schönheit,kirembo,d,mahojiano,msisimko,jitihadi,NA,NA,1,"c(""distractor1"", ""distractor2"", ""distractor3"")",NA,NA,NA,NA,NA,NA,NA,NA,NA,NA,NA,NA,NA,NA,NA,NA,NA,NA,NA
2954a,shallow,flow.Sequence,2_15_0,NA,NA,completion,4662.885,573379.5,573378.768,573395.414,578058.299,578059.1,2023-08-08T18:00:43Z,578075.11,Schönheit,kirembo,d,mahojiano,msisimko,jitihadi,NA,NA,NA,"c(""distractor1"", ""distractor2"", ""distractor3"")",NA,NA,NA,NA,NA,NA,NA,NA,NA,NA,NA,NA,NA,NA,NA,NA,NA,NA,NA
2954a,task,flow.Sequence,2_15,NA,NA,completion,4662.885,573379.5,573378.768,573395.414,578058.299,578059.1,2023-08-08T18:00:43Z,578075.11,Schönheit,kirembo,d,mahojiano,msisimko,jitihadi,NA,NA,NA,"c(""distractor1"", ""distractor2"", ""distractor3"")",NA,NA,NA,NA,NA,NA,NA,NA,NA,NA,NA,NA,NA,NA,NA,NA,NA,NA,NA
2954a,retrieval block 2 (multiple choice),flow.Loop,2,NA,NA,completion,222783.715,355259.4,355257.961,355274.584,578058.299,578059.2,2023-08-08T18:00:43Z,578075.11,NA,NA,NA,NA,NA,NA,NA,NA,NA,"c(""distractor1"", ""distractor2"", ""distractor3"")",NA,NA,NA,NA,NA,NA,NA,NA,NA,NA,NA,NA,NA,NA,NA,NA,NA,NA,NA
2954a,End,canvas.Screen,3,NA,keypress(Space),response,11008.99,578059.3,578058.299,578075.11,589084.1,589086.7,2023-08-08T18:00:54Z,589099.247,NA,NA,NA,NA,NA,NA,NA,NA,NA,NULL,NA,NA,NA,NA,NA,NA,NA,NA,NA,NA,NA,NA,NA,NA,NA,NA,NA,NA,NA
2954a,root,flow.Sequence,NA,NA,NA,completion,587835.412,1229.7,1232.042,1248.688,589084.1,589086.9,2023-08-08T18:00:54Z,589099.247,NA,NA,NA,NA,NA,NA,NA,NA,NA,NULL,NA,NA,NA,NA,NA,NA,NA,NA,NA,NA,NA,NA,NA,NA,NA,NA,NA,NA,NA
