observation,sender,sender_type,sender_id,response,response_action,ended_on,duration,time_run,time_render,time_show,time_end,time_commit,timestamp,time_switch,german,swahili,enc,distractor1,distractor2,distractor3,response_2,x,correct,distractors,url_vp,url_sess,meta_labjs_version,meta_location,meta_user_agent,meta_platform,meta_language,meta_locale,meta_time_zone,meta_timezone_offset,meta_screen_width,meta_screen_height,meta_scroll_width,meta_scroll_height,meta_window_inner_width,meta_window_inner_height,meta_device_pixel_ratio,meta_labjs_build_flavor,meta_labjs_build_commit
1ae9c,Introduction delayed retrieval,canvas.Screen,0,weiter,keypress(Space),response,1373.972000003,1446,1331.426,1464.728,2838.700000003,2841.700000003,2023-08-13T19:13:18Z,2848.073,NA,NA,NA,NA,NA,NA,NA,NA,NA,NULL,173,4,20.2.4,https://neurocog.fernuni.ch/studies/vweber/sliechti/delayed/index.html?vp=173&sess=4,"Mozilla/5.0 (Windows NT 10.0; Win64; x64) AppleWebKit/537.36 (KHTML, like Gecko) Chrome/115.0.0.0 Safari/537.36",Win32,de-DE,de,Europe/Zurich,-120,1280,720,1280,571,1280,571,1.5,production,f5b4a49f956347addd546a832a3327688c2c0fef
1ae9c,Deep Question,html.Page,1_0_0_0,NA,NA,form submission,6707.327000006,2842.200000003,2831.418,2848.073,9555.400000006,9555.900000006,2023-08-13T19:13:25Z,9564.827,Annäherung,maegesho,d,madahili,kujiamini,mapendekezo,d,NA,NA,NULL,NA,NA,NA,NA,NA,NA,NA,NA,NA,NA,NA,NA,NA,NA,NA,NA,NA,NA,NA
1ae9c,Save data screen,canvas.Screen,1_0_0_1,NA,NA,timeout,499.983,9557.299999997,9548.121,9564.827,10048.186,10049,2023-08-13T19:13:26Z,10064.81,Annäherung,maegesho,d,madahili,kujiamini,mapendekezo,NA,NA,0,NULL,NA,NA,NA,NA,NA,NA,NA,NA,NA,NA,NA,NA,NA,NA,NA,NA,NA,NA,NA
1ae9c,deep,flow.Sequence,1_0_0,NA,NA,completion,7200.113,2842.200000003,2831.418,2848.073,10048.186,10049.299999997,2023-08-13T19:13:26Z,10064.81,Annäherung,maegesho,d,madahili,kujiamini,mapendekezo,NA,NA,NA,NULL,NA,NA,NA,NA,NA,NA,NA,NA,NA,NA,NA,NA,NA,NA,NA,NA,NA,NA,NA
1ae9c,task,flow.Sequence,1_0,NA,NA,completion,7200.113,2842.200000003,2831.418,2848.073,10048.186,10049.5,2023-08-13T19:13:26Z,10064.81,Annäherung,maegesho,d,madahili,kujiamini,mapendekezo,NA,NA,NA,NULL,NA,NA,NA,NA,NA,NA,NA,NA,NA,NA,NA,NA,NA,NA,NA,NA,NA,NA,NA
1ae9c,Deep Question,html.Page,1_1_0_0,NA,NA,form submission,16337.590000006,10049.700000003,10048.186,10064.81,26402.400000006,26402.900000006,2023-08-13T19:13:42Z,26415.091,Polizist,msongora,s,simanzi,mandhari,nidhamu,daelelem,NA,NA,NULL,NA,NA,NA,NA,NA,NA,NA,NA,NA,NA,NA,NA,NA,NA,NA,NA,NA,NA,NA
1ae9c,Save data screen,canvas.Screen,1_1_0_1,NA,NA,timeout,500.521,26404.400000006,26398.452,26415.091,26899.077,26899.799999997,2023-08-13T19:13:42Z,26915.612,Polizist,msongora,s,simanzi,mandhari,nidhamu,NA,NA,0,NULL,NA,NA,NA,NA,NA,NA,NA,NA,NA,NA,NA,NA,NA,NA,NA,NA,NA,NA,NA
1ae9c,deep,flow.Sequence,1_1_0,NA,NA,completion,16834.267,10049.700000003,10048.186,10064.81,26899.077,26900.099999994,2023-08-13T19:13:42Z,26915.612,Polizist,msongora,s,simanzi,mandhari,nidhamu,NA,NA,NA,NULL,NA,NA,NA,NA,NA,NA,NA,NA,NA,NA,NA,NA,NA,NA,NA,NA,NA,NA,NA
1ae9c,task,flow.Sequence,1_1,NA,NA,completion,16834.267,10049.599999994,10048.186,10064.81,26899.077,26900.299999997,2023-08-13T19:13:42Z,26915.612,Polizist,msongora,s,simanzi,mandhari,nidhamu,NA,NA,NA,NULL,NA,NA,NA,NA,NA,NA,NA,NA,NA,NA,NA,NA,NA,NA,NA,NA,NA,NA,NA
1ae9c,Deep Question,html.Page,1_2_0_0,NA,NA,form submission,2575.288000006,26900.599999994,26899.077,26915.612,29490.900000006,29491.5,2023-08-13T19:13:45Z,29498.469,Verstand,ufahamivu,d,shakawa,hadhari,mhandisi,d,NA,NA,NULL,NA,NA,NA,NA,NA,NA,NA,NA,NA,NA,NA,NA,NA,NA,NA,NA,NA,NA,NA
1ae9c,Save data screen,canvas.Screen,1_2_0_1,NA,NA,timeout,500.667,29492.599999994,29482.39,29498.469,29982.378,29983.200000003,2023-08-13T19:13:46Z,29999.136,Verstand,ufahamivu,d,shakawa,hadhari,mhandisi,NA,NA,0,NULL,NA,NA,NA,NA,NA,NA,NA,NA,NA,NA,NA,NA,NA,NA,NA,NA,NA,NA,NA
1ae9c,deep,flow.Sequence,1_2_0,NA,NA,completion,3066.766,26900.5,26899.077,26915.612,29982.378,29983.5,2023-08-13T19:13:46Z,29999.136,Verstand,ufahamivu,d,shakawa,hadhari,mhandisi,NA,NA,NA,NULL,NA,NA,NA,NA,NA,NA,NA,NA,NA,NA,NA,NA,NA,NA,NA,NA,NA,NA,NA
1ae9c,task,flow.Sequence,1_2,NA,NA,completion,3066.766,26900.400000006,26899.077,26915.612,29982.378,29983.799999997,2023-08-13T19:13:46Z,29999.136,Verstand,ufahamivu,d,shakawa,hadhari,mhandisi,NA,NA,NA,NULL,NA,NA,NA,NA,NA,NA,NA,NA,NA,NA,NA,NA,NA,NA,NA,NA,NA,NA,NA
1ae9c,Deep Question,html.Page,1_3_0_0,NA,NA,form submission,1459.564000003,29984.799999997,29982.378,29999.136,31458.700000003,31459.099999994,2023-08-13T19:13:47Z,31465.639,Beweis,ushahidi,s,marudio,kizuizi,mtendaji,d,NA,NA,NULL,NA,NA,NA,NA,NA,NA,NA,NA,NA,NA,NA,NA,NA,NA,NA,NA,NA,NA,NA
1ae9c,Save data screen,canvas.Screen,1_3_0_1,NA,NA,timeout,499.568,31460,31448.535,31465.639,31948.89,31949.599999994,2023-08-13T19:13:47Z,31965.207,Beweis,ushahidi,s,marudio,kizuizi,mtendaji,NA,NA,0,NULL,NA,NA,NA,NA,NA,NA,NA,NA,NA,NA,NA,NA,NA,NA,NA,NA,NA,NA,NA
1ae9c,deep,flow.Sequence,1_3_0,NA,NA,completion,1949.754,29984.700000003,29982.378,29999.136,31948.89,31949.900000006,2023-08-13T19:13:47Z,31965.207,Beweis,ushahidi,s,marudio,kizuizi,mtendaji,NA,NA,NA,NULL,NA,NA,NA,NA,NA,NA,NA,NA,NA,NA,NA,NA,NA,NA,NA,NA,NA,NA,NA
1ae9c,task,flow.Sequence,1_3,NA,NA,completion,1949.754,29984.700000003,29982.378,29999.136,31948.89,31950.099999994,2023-08-13T19:13:47Z,31965.207,Beweis,ushahidi,s,marudio,kizuizi,mtendaji,NA,NA,NA,NULL,NA,NA,NA,NA,NA,NA,NA,NA,NA,NA,NA,NA,NA,NA,NA,NA,NA,NA,NA
1ae9c,Deep Question,html.Page,1_4_0_0,NA,NA,form submission,4721.293,31950.200000003,31948.89,31965.207,36686.5,36687,2023-08-13T19:13:52Z,36698.716,Sympathie,mapendano,d,dhamiria,fungamano,maazimio,d,NA,NA,NULL,NA,NA,NA,NA,NA,NA,NA,NA,NA,NA,NA,NA,NA,NA,NA,NA,NA,NA,NA
1ae9c,Save data screen,canvas.Screen,1_4_0_1,NA,NA,timeout,499.971,36688.599999994,36682.552,36698.716,37182.597,37183.299999997,2023-08-13T19:13:53Z,37198.687,Sympathie,mapendano,d,dhamiria,fungamano,maazimio,NA,NA,0,NULL,NA,NA,NA,NA,NA,NA,NA,NA,NA,NA,NA,NA,NA,NA,NA,NA,NA,NA,NA
1ae9c,deep,flow.Sequence,1_4_0,NA,NA,completion,5217.39,31950.099999994,31948.89,31965.207,37182.597,37183.700000003,2023-08-13T19:13:53Z,37198.687,Sympathie,mapendano,d,dhamiria,fungamano,maazimio,NA,NA,NA,NULL,NA,NA,NA,NA,NA,NA,NA,NA,NA,NA,NA,NA,NA,NA,NA,NA,NA,NA,NA
1ae9c,task,flow.Sequence,1_4,NA,NA,completion,5217.39,31950.099999994,31948.89,31965.207,37182.597,37184,2023-08-13T19:13:53Z,37198.687,Sympathie,mapendano,d,dhamiria,fungamano,maazimio,NA,NA,NA,NULL,NA,NA,NA,NA,NA,NA,NA,NA,NA,NA,NA,NA,NA,NA,NA,NA,NA,NA,NA
1ae9c,Deep Question,html.Page,1_5_0_0,NA,NA,form submission,18023.813,37184.099999994,37182.597,37198.687,55222.5,55222.900000006,2023-08-13T19:14:11Z,55232.314,Schönheit,kirembo,d,mahojiano,msisimko,jitihadi,kirembo,NA,NA,NULL,NA,NA,NA,NA,NA,NA,NA,NA,NA,NA,NA,NA,NA,NA,NA,NA,NA,NA,NA
1ae9c,Save data screen,canvas.Screen,1_5_0_1,NA,NA,timeout,500.041,55224.099999994,55216.255,55232.314,55716.219,55716.900000006,2023-08-13T19:14:11Z,55732.355,Schönheit,kirembo,d,mahojiano,msisimko,jitihadi,NA,NA,1,NULL,NA,NA,NA,NA,NA,NA,NA,NA,NA,NA,NA,NA,NA,NA,NA,NA,NA,NA,NA
1ae9c,deep,flow.Sequence,1_5_0,NA,NA,completion,18517.532,37184.099999994,37182.597,37198.687,55716.219,55717.599999994,2023-08-13T19:14:11Z,55732.355,Schönheit,kirembo,d,mahojiano,msisimko,jitihadi,NA,NA,NA,NULL,NA,NA,NA,NA,NA,NA,NA,NA,NA,NA,NA,NA,NA,NA,NA,NA,NA,NA,NA
1ae9c,task,flow.Sequence,1_5,NA,NA,completion,18517.532,37184,37182.597,37198.687,55716.219,55717.900000006,2023-08-13T19:14:11Z,55732.355,Schönheit,kirembo,d,mahojiano,msisimko,jitihadi,NA,NA,NA,NULL,NA,NA,NA,NA,NA,NA,NA,NA,NA,NA,NA,NA,NA,NA,NA,NA,NA,NA,NA
1ae9c,Deep Question,html.Page,1_6_0_0,NA,NA,form submission,1409.345000003,55718.200000003,55716.219,55732.355,57141.700000003,57142,2023-08-13T19:14:13Z,57148.968,Ausschluss,kutengwa,s,ununuzi,taratibu,madeni,d,NA,NA,NULL,NA,NA,NA,NA,NA,NA,NA,NA,NA,NA,NA,NA,NA,NA,NA,NA,NA,NA,NA
1ae9c,Save data screen,canvas.Screen,1_6_0_1,NA,NA,timeout,500.651,57143.099999994,57132.934,57148.968,57632.934,57633.599999994,2023-08-13T19:14:13Z,57649.619,Ausschluss,kutengwa,s,ununuzi,taratibu,madeni,NA,NA,0,NULL,NA,NA,NA,NA,NA,NA,NA,NA,NA,NA,NA,NA,NA,NA,NA,NA,NA,NA,NA
1ae9c,deep,flow.Sequence,1_6_0,NA,NA,completion,1900.579,55718.200000003,55716.219,55732.355,57632.934,57633.900000006,2023-08-13T19:14:13Z,57649.619,Ausschluss,kutengwa,s,ununuzi,taratibu,madeni,NA,NA,NA,NULL,NA,NA,NA,NA,NA,NA,NA,NA,NA,NA,NA,NA,NA,NA,NA,NA,NA,NA,NA
1ae9c,task,flow.Sequence,1_6,NA,NA,completion,1900.579,55718.099999994,55716.219,55732.355,57632.934,57634.099999994,2023-08-13T19:14:13Z,57649.619,Ausschluss,kutengwa,s,ununuzi,taratibu,madeni,NA,NA,NA,NULL,NA,NA,NA,NA,NA,NA,NA,NA,NA,NA,NA,NA,NA,NA,NA,NA,NA,NA,NA
1ae9c,Deep Question,html.Page,1_7_0_0,NA,NA,form submission,1598.480999994,57634.299999997,57632.934,57649.619,59248.099999994,59248.400000006,2023-08-13T19:14:15Z,59248.976,Vorsorge,tahadhari,s,ufafanuzi,makini,mashambani,d,NA,NA,NULL,NA,NA,NA,NA,NA,NA,NA,NA,NA,NA,NA,NA,NA,NA,NA,NA,NA,NA,NA
1ae9c,Save data screen,canvas.Screen,1_7_0_1,NA,NA,timeout,500.675,59249.700000003,59233.009,59248.976,59732.984,59733.700000003,2023-08-13T19:14:15Z,59749.651,Vorsorge,tahadhari,s,ufafanuzi,makini,mashambani,NA,NA,0,NULL,NA,NA,NA,NA,NA,NA,NA,NA,NA,NA,NA,NA,NA,NA,NA,NA,NA,NA,NA
1ae9c,deep,flow.Sequence,1_7_0,NA,NA,completion,2083.365,57634.299999997,57632.934,57649.619,59732.984,59734.099999994,2023-08-13T19:14:15Z,59749.651,Vorsorge,tahadhari,s,ufafanuzi,makini,mashambani,NA,NA,NA,NULL,NA,NA,NA,NA,NA,NA,NA,NA,NA,NA,NA,NA,NA,NA,NA,NA,NA,NA,NA
1ae9c,task,flow.Sequence,1_7,NA,NA,completion,2083.365,57634.200000003,57632.934,57649.619,59732.984,59734.299999997,2023-08-13T19:14:15Z,59749.651,Vorsorge,tahadhari,s,ufafanuzi,makini,mashambani,NA,NA,NA,NULL,NA,NA,NA,NA,NA,NA,NA,NA,NA,NA,NA,NA,NA,NA,NA,NA,NA,NA,NA
1ae9c,Deep Question,html.Page,1_8_0_0,NA,NA,form submission,4785.948999994,59734.400000006,59732.984,59749.651,64535.599999994,64536,2023-08-13T19:14:20Z,64549.072,Konkurrent,mshindani,s,msemaji,mvutaji,kipukusa,d,NA,NA,NULL,NA,NA,NA,NA,NA,NA,NA,NA,NA,NA,NA,NA,NA,NA,NA,NA,NA,NA,NA
1ae9c,Save data screen,canvas.Screen,1_8_0_1,NA,NA,timeout,500.128,64539.700000003,64532.41,64549.072,65032.459,65033.099999994,2023-08-13T19:14:21Z,65049.2,Konkurrent,mshindani,s,msemaji,mvutaji,kipukusa,NA,NA,0,NULL,NA,NA,NA,NA,NA,NA,NA,NA,NA,NA,NA,NA,NA,NA,NA,NA,NA,NA,NA
1ae9c,deep,flow.Sequence,1_8_0,NA,NA,completion,5282.808,59734.400000006,59732.984,59749.651,65032.459,65033.400000006,2023-08-13T19:14:21Z,65049.2,Konkurrent,mshindani,s,msemaji,mvutaji,kipukusa,NA,NA,NA,NULL,NA,NA,NA,NA,NA,NA,NA,NA,NA,NA,NA,NA,NA,NA,NA,NA,NA,NA,NA
1ae9c,task,flow.Sequence,1_8,NA,NA,completion,5282.808,59734.400000006,59732.984,59749.651,65032.459,65033.5,2023-08-13T19:14:21Z,65049.2,Konkurrent,mshindani,s,msemaji,mvutaji,kipukusa,NA,NA,NA,NULL,NA,NA,NA,NA,NA,NA,NA,NA,NA,NA,NA,NA,NA,NA,NA,NA,NA,NA,NA
1ae9c,Deep Question,html.Page,1_9_0_0,NA,NA,form submission,6664.500000003,65033.799999997,65032.459,65049.2,71713.700000003,71714,2023-08-13T19:14:27Z,71715.903,Zufall,kikuti,d,kukosekana,uchoraji,leseni,d,NA,NA,NULL,NA,NA,NA,NA,NA,NA,NA,NA,NA,NA,NA,NA,NA,NA,NA,NA,NA,NA,NA
1ae9c,Save data screen,canvas.Screen,1_9_0_1,NA,NA,timeout,500.7,71718,71699.831,71715.903,72199.832,72200.5,2023-08-13T19:14:28Z,72216.603,Zufall,kikuti,d,kukosekana,uchoraji,leseni,NA,NA,0,NULL,NA,NA,NA,NA,NA,NA,NA,NA,NA,NA,NA,NA,NA,NA,NA,NA,NA,NA,NA
1ae9c,deep,flow.Sequence,1_9_0,NA,NA,completion,7150.632,65033.700000003,65032.459,65049.2,72199.832,72200.700000003,2023-08-13T19:14:28Z,72216.603,Zufall,kikuti,d,kukosekana,uchoraji,leseni,NA,NA,NA,NULL,NA,NA,NA,NA,NA,NA,NA,NA,NA,NA,NA,NA,NA,NA,NA,NA,NA,NA,NA
1ae9c,task,flow.Sequence,1_9,NA,NA,completion,7150.632,65033.700000003,65032.459,65049.2,72199.832,72200.900000006,2023-08-13T19:14:28Z,72216.603,Zufall,kikuti,d,kukosekana,uchoraji,leseni,NA,NA,NA,NULL,NA,NA,NA,NA,NA,NA,NA,NA,NA,NA,NA,NA,NA,NA,NA,NA,NA,NA,NA
1ae9c,Deep Question,html.Page,1_10_0_0,NA,NA,form submission,3165.196999997,72201.099999994,72199.832,72216.603,75381.799999997,75382.200000003,2023-08-13T19:14:31Z,75382.579,Widerstand,usulubu,d,kusababisha,mwalimu,mwenendo,d,NA,NA,NULL,NA,NA,NA,NA,NA,NA,NA,NA,NA,NA,NA,NA,NA,NA,NA,NA,NA,NA,NA
1ae9c,Save data screen,canvas.Screen,1_10_0_1,NA,NA,timeout,500.69500000001,75386,75365.993,75382.579,75866.585,75867.299999997,2023-08-13T19:14:31Z,75883.274,Widerstand,usulubu,d,kusababisha,mwalimu,mwenendo,NA,NA,0,NULL,NA,NA,NA,NA,NA,NA,NA,NA,NA,NA,NA,NA,NA,NA,NA,NA,NA,NA,NA
1ae9c,deep,flow.Sequence,1_10_0,NA,NA,completion,3649.982,72201.099999994,72199.832,72216.603,75866.585,75867.599999994,2023-08-13T19:14:31Z,75883.274,Widerstand,usulubu,d,kusababisha,mwalimu,mwenendo,NA,NA,NA,NULL,NA,NA,NA,NA,NA,NA,NA,NA,NA,NA,NA,NA,NA,NA,NA,NA,NA,NA,NA
1ae9c,task,flow.Sequence,1_10,NA,NA,completion,3649.982,72201,72199.832,72216.603,75866.585,75867.799999997,2023-08-13T19:14:31Z,75883.274,Widerstand,usulubu,d,kusababisha,mwalimu,mwenendo,NA,NA,NA,NULL,NA,NA,NA,NA,NA,NA,NA,NA,NA,NA,NA,NA,NA,NA,NA,NA,NA,NA,NA
1ae9c,Deep Question,html.Page,1_11_0_0,NA,NA,form submission,6381.126000006,75868.099999994,75866.585,75883.274,82264.400000006,82265,2023-08-13T19:14:38Z,82266.079,Wettbewerb,ushindani,s,mapendezi,kichocheo,ubaguzi,d,NA,NA,NULL,NA,NA,NA,NA,NA,NA,NA,NA,NA,NA,NA,NA,NA,NA,NA,NA,NA,NA,NA
1ae9c,Save data screen,canvas.Screen,1_11_0_1,NA,NA,timeout,500.118,82268.599999994,82250.003,82266.079,82749.426,82750.099999994,2023-08-13T19:14:38Z,82766.197,Wettbewerb,ushindani,s,mapendezi,kichocheo,ubaguzi,NA,NA,0,NULL,NA,NA,NA,NA,NA,NA,NA,NA,NA,NA,NA,NA,NA,NA,NA,NA,NA,NA,NA
1ae9c,deep,flow.Sequence,1_11_0,NA,NA,completion,6866.152,75868,75866.585,75883.274,82749.426,82750.400000006,2023-08-13T19:14:38Z,82766.197,Wettbewerb,ushindani,s,mapendezi,kichocheo,ubaguzi,NA,NA,NA,NULL,NA,NA,NA,NA,NA,NA,NA,NA,NA,NA,NA,NA,NA,NA,NA,NA,NA,NA,NA
1ae9c,task,flow.Sequence,1_11,NA,NA,completion,6866.152,75868,75866.585,75883.274,82749.426,82750.599999994,2023-08-13T19:14:38Z,82766.197,Wettbewerb,ushindani,s,mapendezi,kichocheo,ubaguzi,NA,NA,NA,NULL,NA,NA,NA,NA,NA,NA,NA,NA,NA,NA,NA,NA,NA,NA,NA,NA,NA,NA,NA
1ae9c,Deep Question,html.Page,1_12_0_0,NA,NA,form submission,1755.803,82750.700000003,82749.426,82766.197,84522,84522.299999997,2023-08-13T19:14:40Z,84532.833,Auftrag,uagizaji,s,ghanima,kuzingatia,msukani,d,NA,NA,NULL,NA,NA,NA,NA,NA,NA,NA,NA,NA,NA,NA,NA,NA,NA,NA,NA,NA,NA,NA
1ae9c,Save data screen,canvas.Screen,1_12_0_1,NA,NA,timeout,500.56299999999,84523.599999994,84516.731,84532.833,85016.715,85017.5,2023-08-13T19:14:41Z,85033.396,Auftrag,uagizaji,s,ghanima,kuzingatia,msukani,NA,NA,0,NULL,NA,NA,NA,NA,NA,NA,NA,NA,NA,NA,NA,NA,NA,NA,NA,NA,NA,NA,NA
1ae9c,deep,flow.Sequence,1_12_0,NA,NA,completion,2250.518,82750.700000003,82749.426,82766.197,85016.715,85017.799999997,2023-08-13T19:14:41Z,85033.396,Auftrag,uagizaji,s,ghanima,kuzingatia,msukani,NA,NA,NA,NULL,NA,NA,NA,NA,NA,NA,NA,NA,NA,NA,NA,NA,NA,NA,NA,NA,NA,NA,NA
1ae9c,task,flow.Sequence,1_12,NA,NA,completion,2250.518,82750.700000003,82749.426,82766.197,85016.715,85018,2023-08-13T19:14:41Z,85033.396,Auftrag,uagizaji,s,ghanima,kuzingatia,msukani,NA,NA,NA,NULL,NA,NA,NA,NA,NA,NA,NA,NA,NA,NA,NA,NA,NA,NA,NA,NA,NA,NA,NA
1ae9c,Deep Question,html.Page,1_13_0_0,NA,NA,form submission,2372.104,85018.200000003,85016.715,85033.396,87405.5,87405.799999997,2023-08-13T19:14:43Z,87416.183,Zuwachs,nyongeza,d,matilaba,udhibiti,hudhurio,d,NA,NA,NULL,NA,NA,NA,NA,NA,NA,NA,NA,NA,NA,NA,NA,NA,NA,NA,NA,NA,NA,NA
1ae9c,Save data screen,canvas.Screen,1_13_0_1,NA,NA,timeout,500.618,87409.299999997,87400.101,87416.183,87900.117,87900.799999997,2023-08-13T19:14:43Z,87916.801,Zuwachs,nyongeza,d,matilaba,udhibiti,hudhurio,NA,NA,0,NULL,NA,NA,NA,NA,NA,NA,NA,NA,NA,NA,NA,NA,NA,NA,NA,NA,NA,NA,NA
1ae9c,deep,flow.Sequence,1_13_0,NA,NA,completion,2866.721,85018.200000003,85016.715,85033.396,87900.117,87901.099999994,2023-08-13T19:14:43Z,87916.801,Zuwachs,nyongeza,d,matilaba,udhibiti,hudhurio,NA,NA,NA,NULL,NA,NA,NA,NA,NA,NA,NA,NA,NA,NA,NA,NA,NA,NA,NA,NA,NA,NA,NA
1ae9c,task,flow.Sequence,1_13,NA,NA,completion,2866.721,85018.200000003,85016.715,85033.396,87900.117,87901.299999997,2023-08-13T19:14:43Z,87916.801,Zuwachs,nyongeza,d,matilaba,udhibiti,hudhurio,NA,NA,NA,NULL,NA,NA,NA,NA,NA,NA,NA,NA,NA,NA,NA,NA,NA,NA,NA,NA,NA,NA,NA
1ae9c,Deep Question,html.Page,1_14_0_0,NA,NA,form submission,9428.199,87901.400000006,87900.117,87916.801,97345,97345.400000006,2023-08-13T19:14:53Z,97349.631,Symbol,kielezo,d,kinyume,nderemo,utayari,kijrez,NA,NA,NULL,NA,NA,NA,NA,NA,NA,NA,NA,NA,NA,NA,NA,NA,NA,NA,NA,NA,NA,NA
1ae9c,Save data screen,canvas.Screen,1_14_0_1,NA,NA,timeout,500.65000000001,97349.299999997,97333.605,97349.631,97833.32,97833.900000006,2023-08-13T19:14:53Z,97850.281,Symbol,kielezo,d,kinyume,nderemo,utayari,NA,NA,0,NULL,NA,NA,NA,NA,NA,NA,NA,NA,NA,NA,NA,NA,NA,NA,NA,NA,NA,NA,NA
1ae9c,deep,flow.Sequence,1_14_0,NA,NA,completion,9916.519,87901.400000006,87900.117,87916.801,97833.32,97834.200000003,2023-08-13T19:14:53Z,97850.281,Symbol,kielezo,d,kinyume,nderemo,utayari,NA,NA,NA,NULL,NA,NA,NA,NA,NA,NA,NA,NA,NA,NA,NA,NA,NA,NA,NA,NA,NA,NA,NA
1ae9c,task,flow.Sequence,1_14,NA,NA,completion,9916.519,87901.400000006,87900.117,87916.801,97833.32,97834.400000006,2023-08-13T19:14:53Z,97850.281,Symbol,kielezo,d,kinyume,nderemo,utayari,NA,NA,NA,NULL,NA,NA,NA,NA,NA,NA,NA,NA,NA,NA,NA,NA,NA,NA,NA,NA,NA,NA,NA
1ae9c,Deep Question,html.Page,1_15_0_0,NA,NA,form submission,1228.119000006,97834.599999994,97833.32,97850.281,99078.400000006,99078.900000006,2023-08-13T19:14:55Z,99083.043,Gelegenheit,wakati,s,mchanganyiko,kipaumbele,kushuku,d,NA,NA,NULL,NA,NA,NA,NA,NA,NA,NA,NA,NA,NA,NA,NA,NA,NA,NA,NA,NA,NA,NA
1ae9c,Save data screen,canvas.Screen,1_15_0_1,NA,NA,timeout,500.61099999999,99079.799999997,99066.962,99083.043,99566.672,99567.299999997,2023-08-13T19:14:55Z,99583.654,Gelegenheit,wakati,s,mchanganyiko,kipaumbele,kushuku,NA,NA,0,NULL,NA,NA,NA,NA,NA,NA,NA,NA,NA,NA,NA,NA,NA,NA,NA,NA,NA,NA,NA
1ae9c,deep,flow.Sequence,1_15_0,NA,NA,completion,1716.391,97834.599999994,97833.32,97850.281,99566.672,99567.700000003,2023-08-13T19:14:55Z,99583.654,Gelegenheit,wakati,s,mchanganyiko,kipaumbele,kushuku,NA,NA,NA,NULL,NA,NA,NA,NA,NA,NA,NA,NA,NA,NA,NA,NA,NA,NA,NA,NA,NA,NA,NA
1ae9c,task,flow.Sequence,1_15,NA,NA,completion,1716.391,97834.5,97833.32,97850.281,99566.672,99567.900000006,2023-08-13T19:14:55Z,99583.654,Gelegenheit,wakati,s,mchanganyiko,kipaumbele,kushuku,NA,NA,NA,NULL,NA,NA,NA,NA,NA,NA,NA,NA,NA,NA,NA,NA,NA,NA,NA,NA,NA,NA,NA
1ae9c,retrieval block 1 (cued recall),flow.Loop,1,NA,NA,completion,96718.599,2842.099999994,2831.418,2848.073,99566.672,99568,2023-08-13T19:14:55Z,99583.654,NA,NA,NA,NA,NA,NA,NA,NA,NA,NULL,NA,NA,NA,NA,NA,NA,NA,NA,NA,NA,NA,NA,NA,NA,NA,NA,NA,NA,NA
1ae9c,Shallow Question,html.Page,2_0_0_0,NA,NA,form submission,17167.546000003,99568.200000003,99566.672,99583.654,116751.2,116751.59999999,2023-08-13T19:15:12Z,116766.923,Zuwachs,nyongeza,d,matilaba,udhibiti,hudhurio,udhibiti,NA,NA,"c(""distractor1"", ""distractor2"", ""distractor3"")",NA,NA,NA,NA,NA,NA,NA,NA,NA,NA,NA,NA,NA,NA,NA,NA,NA,NA,NA
1ae9c,Save data screen,canvas.Screen,2_0_0_1,NA,NA,timeout,500.353,116754.90000001,116749.931,116766.923,117250.597,117251.3,2023-08-13T19:15:13Z,117267.276,Zuwachs,nyongeza,d,matilaba,udhibiti,hudhurio,NA,NA,0,"c(""distractor1"", ""distractor2"", ""distractor3"")",NA,NA,NA,NA,NA,NA,NA,NA,NA,NA,NA,NA,NA,NA,NA,NA,NA,NA,NA
1ae9c,shallow,flow.Sequence,2_0_0,NA,NA,completion,17666.943,99568.200000003,99566.672,99583.654,117250.597,117251.59999999,2023-08-13T19:15:13Z,117267.276,Zuwachs,nyongeza,d,matilaba,udhibiti,hudhurio,NA,NA,NA,"c(""distractor1"", ""distractor2"", ""distractor3"")",NA,NA,NA,NA,NA,NA,NA,NA,NA,NA,NA,NA,NA,NA,NA,NA,NA,NA,NA
1ae9c,task,flow.Sequence,2_0,NA,NA,completion,17666.943,99568.200000003,99566.672,99583.654,117250.597,117251.8,2023-08-13T19:15:13Z,117267.276,Zuwachs,nyongeza,d,matilaba,udhibiti,hudhurio,NA,NA,NA,"c(""distractor1"", ""distractor2"", ""distractor3"")",NA,NA,NA,NA,NA,NA,NA,NA,NA,NA,NA,NA,NA,NA,NA,NA,NA,NA,NA
1ae9c,Shallow Question,html.Page,2_1_0_0,NA,NA,form submission,6047.724,117251.90000001,117250.597,117267.276,123315,123315.5,2023-08-13T19:15:19Z,123316.74,Widerstand,usulubu,d,kusababisha,mwalimu,mwenendo,usulubu,NA,NA,"c(""distractor1"", ""distractor2"", ""distractor3"")",NA,NA,NA,NA,NA,NA,NA,NA,NA,NA,NA,NA,NA,NA,NA,NA,NA,NA,NA
1ae9c,Save data screen,canvas.Screen,2_1_0_1,NA,NA,timeout,500.64,123319.09999999,123300.58,123316.74,123800.707,123801.40000001,2023-08-13T19:15:19Z,123817.38,Widerstand,usulubu,d,kusababisha,mwalimu,mwenendo,NA,NA,1,"c(""distractor1"", ""distractor2"", ""distractor3"")",NA,NA,NA,NA,NA,NA,NA,NA,NA,NA,NA,NA,NA,NA,NA,NA,NA,NA,NA
1ae9c,shallow,flow.Sequence,2_1_0,NA,NA,completion,6533.431,117251.90000001,117250.597,117267.276,123800.707,123801.7,2023-08-13T19:15:19Z,123817.38,Widerstand,usulubu,d,kusababisha,mwalimu,mwenendo,NA,NA,NA,"c(""distractor1"", ""distractor2"", ""distractor3"")",NA,NA,NA,NA,NA,NA,NA,NA,NA,NA,NA,NA,NA,NA,NA,NA,NA,NA,NA
1ae9c,task,flow.Sequence,2_1,NA,NA,completion,6533.431,117251.90000001,117250.597,117267.276,123800.707,123801.90000001,2023-08-13T19:15:19Z,123817.38,Widerstand,usulubu,d,kusababisha,mwalimu,mwenendo,NA,NA,NA,"c(""distractor1"", ""distractor2"", ""distractor3"")",NA,NA,NA,NA,NA,NA,NA,NA,NA,NA,NA,NA,NA,NA,NA,NA,NA,NA,NA
1ae9c,Shallow Question,html.Page,2_2_0_0,NA,NA,form submission,6347.520000006,123802.09999999,123800.707,123817.38,130164.90000001,130165.3,2023-08-13T19:15:26Z,130166.834,Konkurrent,mshindani,s,msemaji,mvutaji,kipukusa,mshindani,NA,NA,"c(""distractor1"", ""distractor2"", ""distractor3"")",NA,NA,NA,NA,NA,NA,NA,NA,NA,NA,NA,NA,NA,NA,NA,NA,NA,NA,NA
1ae9c,Save data screen,canvas.Screen,2_2_0_1,NA,NA,timeout,500.64899999999,130168.8,130150.825,130166.834,130650.825,130651.5,2023-08-13T19:15:26Z,130667.483,Konkurrent,mshindani,s,msemaji,mvutaji,kipukusa,NA,NA,1,"c(""distractor1"", ""distractor2"", ""distractor3"")",NA,NA,NA,NA,NA,NA,NA,NA,NA,NA,NA,NA,NA,NA,NA,NA,NA,NA,NA
1ae9c,shallow,flow.Sequence,2_2_0,NA,NA,completion,6833.445,123802,123800.707,123817.38,130650.825,130651.8,2023-08-13T19:15:26Z,130667.483,Konkurrent,mshindani,s,msemaji,mvutaji,kipukusa,NA,NA,NA,"c(""distractor1"", ""distractor2"", ""distractor3"")",NA,NA,NA,NA,NA,NA,NA,NA,NA,NA,NA,NA,NA,NA,NA,NA,NA,NA,NA
1ae9c,task,flow.Sequence,2_2,NA,NA,completion,6833.445,123802,123800.707,123817.38,130650.825,130652,2023-08-13T19:15:26Z,130667.483,Konkurrent,mshindani,s,msemaji,mvutaji,kipukusa,NA,NA,NA,"c(""distractor1"", ""distractor2"", ""distractor3"")",NA,NA,NA,NA,NA,NA,NA,NA,NA,NA,NA,NA,NA,NA,NA,NA,NA,NA,NA
1ae9c,Shallow Question,html.Page,2_3_0_0,NA,NA,form submission,5656.816999997,130652.09999999,130650.825,130667.483,136324.3,136324.8,2023-08-13T19:15:32Z,136333.649,Ausschluss,kutengwa,s,ununuzi,taratibu,madeni,kutengwa,NA,NA,"c(""distractor1"", ""distractor2"", ""distractor3"")",NA,NA,NA,NA,NA,NA,NA,NA,NA,NA,NA,NA,NA,NA,NA,NA,NA,NA,NA
1ae9c,Save data screen,canvas.Screen,2_3_0_1,NA,NA,timeout,500.136,136327.90000001,136317.422,136333.649,136816.998,136817.90000001,2023-08-13T19:15:32Z,136833.785,Ausschluss,kutengwa,s,ununuzi,taratibu,madeni,NA,NA,1,"c(""distractor1"", ""distractor2"", ""distractor3"")",NA,NA,NA,NA,NA,NA,NA,NA,NA,NA,NA,NA,NA,NA,NA,NA,NA,NA,NA
1ae9c,shallow,flow.Sequence,2_3_0,NA,NA,completion,6149.515,130652.09999999,130650.825,130667.483,136816.998,136818.2,2023-08-13T19:15:32Z,136833.785,Ausschluss,kutengwa,s,ununuzi,taratibu,madeni,NA,NA,NA,"c(""distractor1"", ""distractor2"", ""distractor3"")",NA,NA,NA,NA,NA,NA,NA,NA,NA,NA,NA,NA,NA,NA,NA,NA,NA,NA,NA
1ae9c,task,flow.Sequence,2_3,NA,NA,completion,6149.515,130652.09999999,130650.825,130667.483,136816.998,136818.40000001,2023-08-13T19:15:32Z,136833.785,Ausschluss,kutengwa,s,ununuzi,taratibu,madeni,NA,NA,NA,"c(""distractor1"", ""distractor2"", ""distractor3"")",NA,NA,NA,NA,NA,NA,NA,NA,NA,NA,NA,NA,NA,NA,NA,NA,NA,NA,NA
1ae9c,Shallow Question,html.Page,2_4_0_0,NA,NA,form submission,7277.715,136818.5,136816.998,136833.785,144111.5,144111.8,2023-08-13T19:15:40Z,144117.087,Wettbewerb,ushindani,s,mapendezi,kichocheo,ubaguzi,ubaguzi,NA,NA,"c(""distractor1"", ""distractor2"", ""distractor3"")",NA,NA,NA,NA,NA,NA,NA,NA,NA,NA,NA,NA,NA,NA,NA,NA,NA,NA,NA
1ae9c,Save data screen,canvas.Screen,2_4_0_1,NA,NA,timeout,500.02799999999,144115.2,144101.058,144117.087,144600.843,144601.59999999,2023-08-13T19:15:40Z,144617.115,Wettbewerb,ushindani,s,mapendezi,kichocheo,ubaguzi,NA,NA,0,"c(""distractor1"", ""distractor2"", ""distractor3"")",NA,NA,NA,NA,NA,NA,NA,NA,NA,NA,NA,NA,NA,NA,NA,NA,NA,NA,NA
1ae9c,shallow,flow.Sequence,2_4_0,NA,NA,completion,7767.058,136818.5,136816.998,136833.785,144600.843,144602,2023-08-13T19:15:40Z,144617.115,Wettbewerb,ushindani,s,mapendezi,kichocheo,ubaguzi,NA,NA,NA,"c(""distractor1"", ""distractor2"", ""distractor3"")",NA,NA,NA,NA,NA,NA,NA,NA,NA,NA,NA,NA,NA,NA,NA,NA,NA,NA,NA
1ae9c,task,flow.Sequence,2_4,NA,NA,completion,7767.058,136818.40000001,136816.998,136833.785,144600.843,144602.09999999,2023-08-13T19:15:40Z,144617.115,Wettbewerb,ushindani,s,mapendezi,kichocheo,ubaguzi,NA,NA,NA,"c(""distractor1"", ""distractor2"", ""distractor3"")",NA,NA,NA,NA,NA,NA,NA,NA,NA,NA,NA,NA,NA,NA,NA,NA,NA,NA,NA
1ae9c,Shallow Question,html.Page,2_5_0_0,NA,NA,form submission,6753.984999994,144602.2,144600.843,144617.115,151371.09999999,151371.40000001,2023-08-13T19:15:47Z,151383.886,Schönheit,kirembo,d,mahojiano,msisimko,jitihadi,kirembo,NA,NA,"c(""distractor1"", ""distractor2"", ""distractor3"")",NA,NA,NA,NA,NA,NA,NA,NA,NA,NA,NA,NA,NA,NA,NA,NA,NA,NA,NA
1ae9c,Save data screen,canvas.Screen,2_5_0_1,NA,NA,timeout,499.967,151374.7,151367.819,151383.886,151867.344,151875.40000001,2023-08-13T19:15:47Z,151883.853,Schönheit,kirembo,d,mahojiano,msisimko,jitihadi,NA,NA,1,"c(""distractor1"", ""distractor2"", ""distractor3"")",NA,NA,NA,NA,NA,NA,NA,NA,NA,NA,NA,NA,NA,NA,NA,NA,NA,NA,NA
1ae9c,shallow,flow.Sequence,2_5_0,NA,NA,completion,7250.229,144602.2,144600.843,144617.115,151867.344,151875.59999999,2023-08-13T19:15:47Z,151883.853,Schönheit,kirembo,d,mahojiano,msisimko,jitihadi,NA,NA,NA,"c(""distractor1"", ""distractor2"", ""distractor3"")",NA,NA,NA,NA,NA,NA,NA,NA,NA,NA,NA,NA,NA,NA,NA,NA,NA,NA,NA
1ae9c,task,flow.Sequence,2_5,NA,NA,completion,7250.229,144602.2,144600.843,144617.115,151867.344,151875.8,2023-08-13T19:15:47Z,151883.853,Schönheit,kirembo,d,mahojiano,msisimko,jitihadi,NA,NA,NA,"c(""distractor1"", ""distractor2"", ""distractor3"")",NA,NA,NA,NA,NA,NA,NA,NA,NA,NA,NA,NA,NA,NA,NA,NA,NA,NA,NA
1ae9c,Shallow Question,html.Page,2_6_0_0,NA,NA,form submission,8102.147,151876,151867.344,151883.853,159986,159986.40000001,2023-08-13T19:15:56Z,160001.312,Verstand,ufahamivu,d,shakawa,hadhari,mhandisi,mhandisi,NA,NA,"c(""distractor1"", ""distractor2"", ""distractor3"")",NA,NA,NA,NA,NA,NA,NA,NA,NA,NA,NA,NA,NA,NA,NA,NA,NA,NA,NA
1ae9c,Save data screen,canvas.Screen,2_6_0_1,NA,NA,timeout,499.34700000001,159989.8,159984.515,160001.312,160484.637,160485.40000001,2023-08-13T19:15:56Z,160500.659,Verstand,ufahamivu,d,shakawa,hadhari,mhandisi,NA,NA,0,"c(""distractor1"", ""distractor2"", ""distractor3"")",NA,NA,NA,NA,NA,NA,NA,NA,NA,NA,NA,NA,NA,NA,NA,NA,NA,NA,NA
1ae9c,shallow,flow.Sequence,2_6_0,NA,NA,completion,8600.784,151876,151867.344,151883.853,160484.637,160485.7,2023-08-13T19:15:56Z,160500.659,Verstand,ufahamivu,d,shakawa,hadhari,mhandisi,NA,NA,NA,"c(""distractor1"", ""distractor2"", ""distractor3"")",NA,NA,NA,NA,NA,NA,NA,NA,NA,NA,NA,NA,NA,NA,NA,NA,NA,NA,NA
1ae9c,task,flow.Sequence,2_6,NA,NA,completion,8600.784,151876,151867.344,151883.853,160484.637,160485.90000001,2023-08-13T19:15:56Z,160500.659,Verstand,ufahamivu,d,shakawa,hadhari,mhandisi,NA,NA,NA,"c(""distractor1"", ""distractor2"", ""distractor3"")",NA,NA,NA,NA,NA,NA,NA,NA,NA,NA,NA,NA,NA,NA,NA,NA,NA,NA,NA
1ae9c,Shallow Question,html.Page,2_7_0_0,NA,NA,form submission,2870.041000003,160486.09999999,160484.637,160500.659,163370.7,163371,2023-08-13T19:15:59Z,163384.133,Vorsorge,tahadhari,s,ufafanuzi,makini,mashambani,tahadhari,NA,NA,"c(""distractor1"", ""distractor2"", ""distractor3"")",NA,NA,NA,NA,NA,NA,NA,NA,NA,NA,NA,NA,NA,NA,NA,NA,NA,NA,NA
1ae9c,Save data screen,canvas.Screen,2_7_0_1,NA,NA,timeout,500.58499999999,163372,163367.438,163384.133,163868.047,163868.8,2023-08-13T19:15:59Z,163884.718,Vorsorge,tahadhari,s,ufafanuzi,makini,mashambani,NA,NA,1,"c(""distractor1"", ""distractor2"", ""distractor3"")",NA,NA,NA,NA,NA,NA,NA,NA,NA,NA,NA,NA,NA,NA,NA,NA,NA,NA,NA
1ae9c,shallow,flow.Sequence,2_7_0,NA,NA,completion,3367.388,160486.09999999,160484.637,160500.659,163868.047,163869,2023-08-13T19:15:59Z,163884.718,Vorsorge,tahadhari,s,ufafanuzi,makini,mashambani,NA,NA,NA,"c(""distractor1"", ""distractor2"", ""distractor3"")",NA,NA,NA,NA,NA,NA,NA,NA,NA,NA,NA,NA,NA,NA,NA,NA,NA,NA,NA
1ae9c,task,flow.Sequence,2_7,NA,NA,completion,3367.388,160486.09999999,160484.637,160500.659,163868.047,163869.2,2023-08-13T19:15:59Z,163884.718,Vorsorge,tahadhari,s,ufafanuzi,makini,mashambani,NA,NA,NA,"c(""distractor1"", ""distractor2"", ""distractor3"")",NA,NA,NA,NA,NA,NA,NA,NA,NA,NA,NA,NA,NA,NA,NA,NA,NA,NA,NA
1ae9c,Shallow Question,html.Page,2_8_0_0,NA,NA,form submission,17412.381999994,163869.7,163868.047,163884.718,181297.09999999,181297.5,2023-08-13T19:16:17Z,181301.059,Auftrag,uagizaji,s,ghanima,kuzingatia,msukani,msukani,NA,NA,"c(""distractor1"", ""distractor2"", ""distractor3"")",NA,NA,NA,NA,NA,NA,NA,NA,NA,NA,NA,NA,NA,NA,NA,NA,NA,NA,NA
1ae9c,Save data screen,canvas.Screen,2_8_0_1,NA,NA,timeout,500.62299999999,181300.90000001,181284.551,181301.059,181785.004,181785.59999999,2023-08-13T19:16:17Z,181801.682,Auftrag,uagizaji,s,ghanima,kuzingatia,msukani,NA,NA,0,"c(""distractor1"", ""distractor2"", ""distractor3"")",NA,NA,NA,NA,NA,NA,NA,NA,NA,NA,NA,NA,NA,NA,NA,NA,NA,NA,NA
1ae9c,shallow,flow.Sequence,2_8_0,NA,NA,completion,17900.286,163869.59999999,163868.047,163884.718,181785.004,181785.90000001,2023-08-13T19:16:17Z,181801.682,Auftrag,uagizaji,s,ghanima,kuzingatia,msukani,NA,NA,NA,"c(""distractor1"", ""distractor2"", ""distractor3"")",NA,NA,NA,NA,NA,NA,NA,NA,NA,NA,NA,NA,NA,NA,NA,NA,NA,NA,NA
1ae9c,task,flow.Sequence,2_8,NA,NA,completion,17900.286,163869.5,163868.047,163884.718,181785.004,181786.09999999,2023-08-13T19:16:17Z,181801.682,Auftrag,uagizaji,s,ghanima,kuzingatia,msukani,NA,NA,NA,"c(""distractor1"", ""distractor2"", ""distractor3"")",NA,NA,NA,NA,NA,NA,NA,NA,NA,NA,NA,NA,NA,NA,NA,NA,NA,NA,NA
1ae9c,Shallow Question,html.Page,2_9_0_0,NA,NA,form submission,3511.417999994,181786.3,181785.004,181801.682,185313.09999999,185313.3,2023-08-13T19:16:21Z,185317.773,Gelegenheit,wakati,s,mchanganyiko,kipaumbele,kushuku,wakati,NA,NA,"c(""distractor1"", ""distractor2"", ""distractor3"")",NA,NA,NA,NA,NA,NA,NA,NA,NA,NA,NA,NA,NA,NA,NA,NA,NA,NA,NA
1ae9c,Save data screen,canvas.Screen,2_9_0_1,NA,NA,timeout,500.65000000002,185316.59999999,185301.704,185317.773,185801.481,185802.09999999,2023-08-13T19:16:21Z,185818.423,Gelegenheit,wakati,s,mchanganyiko,kipaumbele,kushuku,NA,NA,1,"c(""distractor1"", ""distractor2"", ""distractor3"")",NA,NA,NA,NA,NA,NA,NA,NA,NA,NA,NA,NA,NA,NA,NA,NA,NA,NA,NA
1ae9c,shallow,flow.Sequence,2_9_0,NA,NA,completion,3999.799,181786.3,181785.004,181801.682,185801.481,185802.5,2023-08-13T19:16:21Z,185818.423,Gelegenheit,wakati,s,mchanganyiko,kipaumbele,kushuku,NA,NA,NA,"c(""distractor1"", ""distractor2"", ""distractor3"")",NA,NA,NA,NA,NA,NA,NA,NA,NA,NA,NA,NA,NA,NA,NA,NA,NA,NA,NA
1ae9c,task,flow.Sequence,2_9,NA,NA,completion,3999.799,181786.2,181785.004,181801.682,185801.481,185802.7,2023-08-13T19:16:21Z,185818.423,Gelegenheit,wakati,s,mchanganyiko,kipaumbele,kushuku,NA,NA,NA,"c(""distractor1"", ""distractor2"", ""distractor3"")",NA,NA,NA,NA,NA,NA,NA,NA,NA,NA,NA,NA,NA,NA,NA,NA,NA,NA,NA
1ae9c,Shallow Question,html.Page,2_10_0_0,NA,NA,form submission,9692.777000003,185802.8,185801.481,185818.423,195511.2,195511.59999999,2023-08-13T19:16:31Z,195517.98,Annäherung,maegesho,d,madahili,kujiamini,mapendekezo,maegesho,NA,NA,"c(""distractor1"", ""distractor2"", ""distractor3"")",NA,NA,NA,NA,NA,NA,NA,NA,NA,NA,NA,NA,NA,NA,NA,NA,NA,NA,NA
1ae9c,Save data screen,canvas.Screen,2_10_0_1,NA,NA,timeout,500.61799999999,195514.8,195501.228,195517.98,196001.923,196002.59999999,2023-08-13T19:16:32Z,196018.598,Annäherung,maegesho,d,madahili,kujiamini,mapendekezo,NA,NA,1,"c(""distractor1"", ""distractor2"", ""distractor3"")",NA,NA,NA,NA,NA,NA,NA,NA,NA,NA,NA,NA,NA,NA,NA,NA,NA,NA,NA
1ae9c,shallow,flow.Sequence,2_10_0,NA,NA,completion,10183.5,185802.8,185801.481,185818.423,196001.923,196002.90000001,2023-08-13T19:16:32Z,196018.598,Annäherung,maegesho,d,madahili,kujiamini,mapendekezo,NA,NA,NA,"c(""distractor1"", ""distractor2"", ""distractor3"")",NA,NA,NA,NA,NA,NA,NA,NA,NA,NA,NA,NA,NA,NA,NA,NA,NA,NA,NA
1ae9c,task,flow.Sequence,2_10,NA,NA,completion,10183.5,185802.8,185801.481,185818.423,196001.923,196003.09999999,2023-08-13T19:16:32Z,196018.598,Annäherung,maegesho,d,madahili,kujiamini,mapendekezo,NA,NA,NA,"c(""distractor1"", ""distractor2"", ""distractor3"")",NA,NA,NA,NA,NA,NA,NA,NA,NA,NA,NA,NA,NA,NA,NA,NA,NA,NA,NA
1ae9c,Shallow Question,html.Page,2_11_0_0,NA,NA,form submission,8426.201999997,196003.3,196001.923,196018.598,204444.8,204445.2,2023-08-13T19:16:40Z,204451.384,Polizist,msongora,s,simanzi,mandhari,nidhamu,msongora,NA,NA,"c(""distractor1"", ""distractor2"", ""distractor3"")",NA,NA,NA,NA,NA,NA,NA,NA,NA,NA,NA,NA,NA,NA,NA,NA,NA,NA,NA
1ae9c,Save data screen,canvas.Screen,2_11_0_1,NA,NA,timeout,500.69100000002,204448.5,204435.383,204451.384,204935.399,204936,2023-08-13T19:16:40Z,204952.075,Polizist,msongora,s,simanzi,mandhari,nidhamu,NA,NA,1,"c(""distractor1"", ""distractor2"", ""distractor3"")",NA,NA,NA,NA,NA,NA,NA,NA,NA,NA,NA,NA,NA,NA,NA,NA,NA,NA,NA
1ae9c,shallow,flow.Sequence,2_11_0,NA,NA,completion,8916.801,196003.3,196001.923,196018.598,204935.399,204936.3,2023-08-13T19:16:40Z,204952.075,Polizist,msongora,s,simanzi,mandhari,nidhamu,NA,NA,NA,"c(""distractor1"", ""distractor2"", ""distractor3"")",NA,NA,NA,NA,NA,NA,NA,NA,NA,NA,NA,NA,NA,NA,NA,NA,NA,NA,NA
1ae9c,task,flow.Sequence,2_11,NA,NA,completion,8916.801,196003.2,196001.923,196018.598,204935.399,204936.5,2023-08-13T19:16:40Z,204952.075,Polizist,msongora,s,simanzi,mandhari,nidhamu,NA,NA,NA,"c(""distractor1"", ""distractor2"", ""distractor3"")",NA,NA,NA,NA,NA,NA,NA,NA,NA,NA,NA,NA,NA,NA,NA,NA,NA,NA,NA
1ae9c,Shallow Question,html.Page,2_12_0_0,NA,NA,form submission,6642.925,204936.59999999,204935.399,204952.075,211595,211595.3,2023-08-13T19:16:47Z,211601.567,Zufall,kikuti,d,kukosekana,uchoraji,leseni,kukosekana,NA,NA,"c(""distractor1"", ""distractor2"", ""distractor3"")",NA,NA,NA,NA,NA,NA,NA,NA,NA,NA,NA,NA,NA,NA,NA,NA,NA,NA,NA
1ae9c,Save data screen,canvas.Screen,2_12_0_1,NA,NA,timeout,500.03099999999,211598.59999999,211585.416,211601.567,212085.529,212086.2,2023-08-13T19:16:48Z,212101.598,Zufall,kikuti,d,kukosekana,uchoraji,leseni,NA,NA,0,"c(""distractor1"", ""distractor2"", ""distractor3"")",NA,NA,NA,NA,NA,NA,NA,NA,NA,NA,NA,NA,NA,NA,NA,NA,NA,NA,NA
1ae9c,shallow,flow.Sequence,2_12_0,NA,NA,completion,7133.454,204936.59999999,204935.399,204952.075,212085.529,212086.5,2023-08-13T19:16:48Z,212101.598,Zufall,kikuti,d,kukosekana,uchoraji,leseni,NA,NA,NA,"c(""distractor1"", ""distractor2"", ""distractor3"")",NA,NA,NA,NA,NA,NA,NA,NA,NA,NA,NA,NA,NA,NA,NA,NA,NA,NA,NA
1ae9c,task,flow.Sequence,2_12,NA,NA,completion,7133.454,204936.59999999,204935.399,204952.075,212085.529,212086.7,2023-08-13T19:16:48Z,212101.598,Zufall,kikuti,d,kukosekana,uchoraji,leseni,NA,NA,NA,"c(""distractor1"", ""distractor2"", ""distractor3"")",NA,NA,NA,NA,NA,NA,NA,NA,NA,NA,NA,NA,NA,NA,NA,NA,NA,NA,NA
1ae9c,Shallow Question,html.Page,2_13_0_0,NA,NA,form submission,8646.102000003,212086.90000001,212085.529,212101.598,220747.7,220748.09999999,2023-08-13T19:16:56Z,220751.755,Beweis,ushahidi,s,marudio,kizuizi,mtendaji,ushahidi,NA,NA,"c(""distractor1"", ""distractor2"", ""distractor3"")",NA,NA,NA,NA,NA,NA,NA,NA,NA,NA,NA,NA,NA,NA,NA,NA,NA,NA,NA
1ae9c,Save data screen,canvas.Screen,2_13_0_1,NA,NA,timeout,500.58299999998,220751.5,220735.635,220751.755,221235.656,221236.3,2023-08-13T19:16:57Z,221252.338,Beweis,ushahidi,s,marudio,kizuizi,mtendaji,NA,NA,1,"c(""distractor1"", ""distractor2"", ""distractor3"")",NA,NA,NA,NA,NA,NA,NA,NA,NA,NA,NA,NA,NA,NA,NA,NA,NA,NA,NA
1ae9c,shallow,flow.Sequence,2_13_0,NA,NA,completion,9134.058,212086.8,212085.529,212101.598,221235.656,221236.7,2023-08-13T19:16:57Z,221252.338,Beweis,ushahidi,s,marudio,kizuizi,mtendaji,NA,NA,NA,"c(""distractor1"", ""distractor2"", ""distractor3"")",NA,NA,NA,NA,NA,NA,NA,NA,NA,NA,NA,NA,NA,NA,NA,NA,NA,NA,NA
1ae9c,task,flow.Sequence,2_13,NA,NA,completion,9134.058,212086.8,212085.529,212101.598,221235.656,221236.8,2023-08-13T19:16:57Z,221252.338,Beweis,ushahidi,s,marudio,kizuizi,mtendaji,NA,NA,NA,"c(""distractor1"", ""distractor2"", ""distractor3"")",NA,NA,NA,NA,NA,NA,NA,NA,NA,NA,NA,NA,NA,NA,NA,NA,NA,NA,NA
1ae9c,Shallow Question,html.Page,2_14_0_0,NA,NA,form submission,8513.162,221237,221235.656,221252.338,229765.5,229765.8,2023-08-13T19:17:05Z,229768.551,Sympathie,mapendano,d,dhamiria,fungamano,maazimio,mapendano,NA,NA,"c(""distractor1"", ""distractor2"", ""distractor3"")",NA,NA,NA,NA,NA,NA,NA,NA,NA,NA,NA,NA,NA,NA,NA,NA,NA,NA,NA
1ae9c,Save data screen,canvas.Screen,2_14_0_1,NA,NA,timeout,500.61799999999,229769.3,229752.459,229768.551,230252.464,230253.2,2023-08-13T19:17:06Z,230269.169,Sympathie,mapendano,d,dhamiria,fungamano,maazimio,NA,NA,1,"c(""distractor1"", ""distractor2"", ""distractor3"")",NA,NA,NA,NA,NA,NA,NA,NA,NA,NA,NA,NA,NA,NA,NA,NA,NA,NA,NA
1ae9c,shallow,flow.Sequence,2_14_0,NA,NA,completion,9000.126,221237,221235.656,221252.338,230252.464,230253.40000001,2023-08-13T19:17:06Z,230269.169,Sympathie,mapendano,d,dhamiria,fungamano,maazimio,NA,NA,NA,"c(""distractor1"", ""distractor2"", ""distractor3"")",NA,NA,NA,NA,NA,NA,NA,NA,NA,NA,NA,NA,NA,NA,NA,NA,NA,NA,NA
1ae9c,task,flow.Sequence,2_14,NA,NA,completion,9000.126,221236.90000001,221235.656,221252.338,230252.464,230253.59999999,2023-08-13T19:17:06Z,230269.169,Sympathie,mapendano,d,dhamiria,fungamano,maazimio,NA,NA,NA,"c(""distractor1"", ""distractor2"", ""distractor3"")",NA,NA,NA,NA,NA,NA,NA,NA,NA,NA,NA,NA,NA,NA,NA,NA,NA,NA,NA
1ae9c,Shallow Question,html.Page,2_15_0_0,NA,NA,form submission,8108.031000003,230253.90000001,230252.464,230269.169,238377.2,238377.5,2023-08-13T19:17:14Z,238385.319,Symbol,kielezo,d,kinyume,nderemo,utayari,kielezo,NA,NA,"c(""distractor1"", ""distractor2"", ""distractor3"")",NA,NA,NA,NA,NA,NA,NA,NA,NA,NA,NA,NA,NA,NA,NA,NA,NA,NA,NA
1ae9c,Save data screen,canvas.Screen,2_15_0_1,NA,NA,timeout,500.63700000002,238380.90000001,238369.278,238385.319,238869.385,238870.3,2023-08-13T19:17:14Z,238885.956,Symbol,kielezo,d,kinyume,nderemo,utayari,NA,NA,1,"c(""distractor1"", ""distractor2"", ""distractor3"")",NA,NA,NA,NA,NA,NA,NA,NA,NA,NA,NA,NA,NA,NA,NA,NA,NA,NA,NA
1ae9c,shallow,flow.Sequence,2_15_0,NA,NA,completion,8600.216,230253.8,230252.464,230269.169,238869.385,238870.59999999,2023-08-13T19:17:14Z,238885.956,Symbol,kielezo,d,kinyume,nderemo,utayari,NA,NA,NA,"c(""distractor1"", ""distractor2"", ""distractor3"")",NA,NA,NA,NA,NA,NA,NA,NA,NA,NA,NA,NA,NA,NA,NA,NA,NA,NA,NA
1ae9c,task,flow.Sequence,2_15,NA,NA,completion,8600.216,230253.8,230252.464,230269.169,238869.385,238870.90000001,2023-08-13T19:17:14Z,238885.956,Symbol,kielezo,d,kinyume,nderemo,utayari,NA,NA,NA,"c(""distractor1"", ""distractor2"", ""distractor3"")",NA,NA,NA,NA,NA,NA,NA,NA,NA,NA,NA,NA,NA,NA,NA,NA,NA,NA,NA
1ae9c,retrieval block 2 (multiple choice),flow.Loop,2,NA,NA,completion,139285.731,99568.099999994,99566.672,99583.654,238869.385,238871,2023-08-13T19:17:14Z,238885.956,NA,NA,NA,NA,NA,NA,NA,NA,NA,"c(""distractor1"", ""distractor2"", ""distractor3"")",NA,NA,NA,NA,NA,NA,NA,NA,NA,NA,NA,NA,NA,NA,NA,NA,NA,NA,NA
1ae9c,End,canvas.Screen,3,NA,keypress(Space),response,4134.143999994,238871.2,238869.385,238885.956,243020.09999999,243021.5,2023-08-13T19:17:19Z,243036.025,NA,NA,NA,NA,NA,NA,NA,NA,NA,NULL,NA,NA,NA,NA,NA,NA,NA,NA,NA,NA,NA,NA,NA,NA,NA,NA,NA,NA,NA
1ae9c,root,flow.Sequence,NA,NA,NA,completion,241555.37199999,1445.700000003,1331.426,1464.728,243020.09999999,243022,2023-08-13T19:17:19Z,243036.025,NA,NA,NA,NA,NA,NA,NA,NA,NA,NULL,NA,NA,NA,NA,NA,NA,NA,NA,NA,NA,NA,NA,NA,NA,NA,NA,NA,NA,NA
