observation,sender,sender_type,sender_id,response,response_action,ended_on,duration,time_run,time_render,time_show,time_end,time_commit,timestamp,time_switch,distractors,german,swahili,enc,distractor1,distractor2,distractor3,response_2,x,correct,x_2,url_vp,url_sess,meta_labjs_version,meta_location,meta_user_agent,meta_platform,meta_language,meta_locale,meta_time_zone,meta_timezone_offset,meta_screen_width,meta_screen_height,meta_scroll_width,meta_scroll_height,meta_window_inner_width,meta_window_inner_height,meta_device_pixel_ratio,meta_labjs_build_flavor,meta_labjs_build_commit
7f47d,Introduction general,canvas.Screen,0,weiter,keypress(q),response,1602720.561,934.80000001192,44.718,927.339,1603647.9,1603653.8,2023-04-09T08:57:57Z,1603656.382,NULL,NA,NA,NA,NA,NA,NA,NA,NA,NA,NA,208,1,20.2.4,https://neurocog.fernuni.ch/studies/vweber/sfink/encoding_immediate/index.html?vp=208&sess=1,"Mozilla/5.0 (Windows NT 10.0; Win64; x64) AppleWebKit/537.36 (KHTML, like Gecko) Chrome/111.0.0.0 Safari/537.36",Win32,de-CH,de,Europe/Zurich,-120,1536,864,1536,706,1536,754,1.25,production,f5b4a49f956347addd546a832a3327688c2c0fef
7f47d,Introduction practice,canvas.Screen,1_0,NA,keypress(Space),response,7457.0180000358,1603654.3,1603645.853,1603656.382,1611113.4,1611114.6,2023-04-09T08:58:05Z,1611134.242,NULL,NA,NA,NA,NA,NA,NA,NA,NA,NA,NA,NA,NA,NA,NA,NA,NA,NA,NA,NA,NA,NA,NA,NA,NA,NA,NA,NA,NA,NA
7f47d,Deep Question,html.Page,1_1_0_0_0,NA,NA,form submission,10221.957999988,1611114.9,1611116.504,1611134.242,1621356.2,1621356.6,2023-04-09T08:58:15Z,1621358.513,"c(""distractor1"", ""distractor2"", ""distractor3"")",Gesundheit,salama,d,NA,NA,NA,a,NA,NA,NA,NA,NA,NA,NA,NA,NA,NA,NA,NA,NA,NA,NA,NA,NA,NA,NA,NA,NA,NA
7f47d,"""Richtig""-Screen",canvas.Screen,1_1_0_0_1,NA,NA,skipped,NA,1621358.3,NA,NA,1621356.2,1621358.5,2023-04-09T08:58:15Z,1621358.513,"c(""distractor1"", ""distractor2"", ""distractor3"")",Gesundheit,salama,d,NA,NA,NA,NA,NA,NA,NA,NA,NA,NA,NA,NA,NA,NA,NA,NA,NA,NA,NA,NA,NA,NA,NA,NA,NA,NA
7f47d,"""Falsch""-Screen",canvas.Screen,1_1_0_0_2,NA,NA,timeout,4995.939,1621360,1621342.464,1621358.513,1626338.315,1626343.3,2023-04-09T08:58:20Z,1626354.452,"c(""distractor1"", ""distractor2"", ""distractor3"")",Gesundheit,salama,d,NA,NA,NA,NA,NA,0,NA,NA,NA,NA,NA,NA,NA,NA,NA,NA,NA,NA,NA,NA,NA,NA,NA,NA,NA,NA
7f47d,deep,flow.Sequence,1_1_0_0,NA,NA,completion,15204.073,1611114.9,1611116.504,1611134.242,1626338.315,1626343.9,2023-04-09T08:58:20Z,1626354.452,"c(""distractor1"", ""distractor2"", ""distractor3"")",Gesundheit,salama,d,NA,NA,NA,NA,NA,NA,NA,NA,NA,NA,NA,NA,NA,NA,NA,NA,NA,NA,NA,NA,NA,NA,NA,NA,NA,NA
7f47d,shallow,flow.Sequence,1_1_0_1,NA,NA,skipped,NA,1626344.1,NA,NA,1626338.315,1626344.3,2023-04-09T08:58:20Z,1626354.452,"c(""distractor1"", ""distractor2"", ""distractor3"")",Gesundheit,salama,d,NA,NA,NA,NA,NA,NA,NA,NA,NA,NA,NA,NA,NA,NA,NA,NA,NA,NA,NA,NA,NA,NA,NA,NA,NA,NA
7f47d,task,flow.Sequence,1_1_0,NA,NA,completion,15204.073,1611114.9,1611116.504,1611134.242,1626338.315,1626344.6,2023-04-09T08:58:20Z,1626354.452,"c(""distractor1"", ""distractor2"", ""distractor3"")",Gesundheit,salama,d,NA,NA,NA,NA,NA,NA,NA,NA,NA,NA,NA,NA,NA,NA,NA,NA,NA,NA,NA,NA,NA,NA,NA,NA,NA,NA
7f47d,Deep Question,html.Page,1_1_1_0_0,NA,NA,form submission,10214.747999988,1626345,1626338.315,1626354.452,1636569.2,1636569.5,2023-04-09T08:58:30Z,1636579.38,"c(""distractor1"", ""distractor2"", ""distractor3"")",Schatten,kivuli,d,NA,NA,NA,ge,NA,NA,NA,NA,NA,NA,NA,NA,NA,NA,NA,NA,NA,NA,NA,NA,NA,NA,NA,NA,NA,NA
7f47d,"""Richtig""-Screen",canvas.Screen,1_1_1_0_1,NA,NA,skipped,NA,1636571.8,NA,NA,1636569.2,1636572,2023-04-09T08:58:30Z,1636579.38,"c(""distractor1"", ""distractor2"", ""distractor3"")",Schatten,kivuli,d,NA,NA,NA,NA,NA,NA,NA,NA,NA,NA,NA,NA,NA,NA,NA,NA,NA,NA,NA,NA,NA,NA,NA,NA,NA,NA
7f47d,"""Falsch""-Screen",canvas.Screen,1_1_1_0_2,NA,NA,timeout,4996.5900000001,1636572.9,1636562.82,1636579.38,1641558.955,1641560.1,2023-04-09T08:58:35Z,1641575.97,"c(""distractor1"", ""distractor2"", ""distractor3"")",Schatten,kivuli,d,NA,NA,NA,NA,NA,0,NA,NA,NA,NA,NA,NA,NA,NA,NA,NA,NA,NA,NA,NA,NA,NA,NA,NA,NA,NA
7f47d,deep,flow.Sequence,1_1_1_0,NA,NA,completion,15204.503,1626344.8,1626338.315,1626354.452,1641558.955,1641560.5,2023-04-09T08:58:35Z,1641575.97,"c(""distractor1"", ""distractor2"", ""distractor3"")",Schatten,kivuli,d,NA,NA,NA,NA,NA,NA,NA,NA,NA,NA,NA,NA,NA,NA,NA,NA,NA,NA,NA,NA,NA,NA,NA,NA,NA,NA
7f47d,shallow,flow.Sequence,1_1_1_1,NA,NA,skipped,NA,1641560.8,NA,NA,1641558.955,1641561.1,2023-04-09T08:58:35Z,1641575.97,"c(""distractor1"", ""distractor2"", ""distractor3"")",Schatten,kivuli,d,NA,NA,NA,NA,NA,NA,NA,NA,NA,NA,NA,NA,NA,NA,NA,NA,NA,NA,NA,NA,NA,NA,NA,NA,NA,NA
7f47d,task,flow.Sequence,1_1_1,NA,NA,completion,15204.503,1626344.7,1626338.315,1626354.452,1641558.955,1641561.4,2023-04-09T08:58:35Z,1641575.97,"c(""distractor1"", ""distractor2"", ""distractor3"")",Schatten,kivuli,d,NA,NA,NA,NA,NA,NA,NA,NA,NA,NA,NA,NA,NA,NA,NA,NA,NA,NA,NA,NA,NA,NA,NA,NA,NA,NA
7f47d,deep,flow.Sequence,1_1_2_0,NA,NA,skipped,NA,1641561.7,NA,NA,1641558.955,1641561.9,2023-04-09T08:58:35Z,1641575.97,"c(""distractor1"", ""distractor2"", ""distractor3"")",Rückhalt,msaada,s,muhula,auwali,kiwimbe,NA,NA,NA,NA,NA,NA,NA,NA,NA,NA,NA,NA,NA,NA,NA,NA,NA,NA,NA,NA,NA,NA,NA
7f47d,Shallow Question,html.Page,1_1_2_1_0,NA,NA,form submission,8696.1300000239,1641562.1,1641558.955,1641575.97,1650272.1,1650272.4,2023-04-09T08:58:44Z,1650285.035,"c(""distractor1"", ""distractor2"", ""distractor3"")",Rückhalt,msaada,s,muhula,auwali,kiwimbe,auwali,NA,NA,NA,NA,NA,NA,NA,NA,NA,NA,NA,NA,NA,NA,NA,NA,NA,NA,NA,NA,NA,NA
7f47d,"""Richtig""-Screen",canvas.Screen,1_1_2_1_1,NA,NA,skipped,NA,1650274.2,NA,NA,1650272.1,1650274.3,2023-04-09T08:58:44Z,1650285.035,"c(""distractor1"", ""distractor2"", ""distractor3"")",Rückhalt,msaada,s,muhula,auwali,kiwimbe,NA,NA,NA,NA,NA,NA,NA,NA,NA,NA,NA,NA,NA,NA,NA,NA,NA,NA,NA,NA,NA,NA,NA
7f47d,"""Falsch""-Screen",canvas.Screen,1_1_2_1_2,NA,NA,timeout,4995.9850000001,1650275,1650268.64,1650285.035,1655264.344,1655265.3,2023-04-09T08:58:49Z,1655281.02,"c(""distractor1"", ""distractor2"", ""distractor3"")",Rückhalt,msaada,s,muhula,auwali,kiwimbe,NA,NA,0,NA,NA,NA,NA,NA,NA,NA,NA,NA,NA,NA,NA,NA,NA,NA,NA,NA,NA,NA,NA
7f47d,shallow,flow.Sequence,1_1_2_1,NA,NA,completion,13688.374,1641562,1641558.955,1641575.97,1655264.344,1655265.7,2023-04-09T08:58:49Z,1655281.02,"c(""distractor1"", ""distractor2"", ""distractor3"")",Rückhalt,msaada,s,muhula,auwali,kiwimbe,NA,NA,NA,NA,NA,NA,NA,NA,NA,NA,NA,NA,NA,NA,NA,NA,NA,NA,NA,NA,NA,NA,NA
7f47d,task,flow.Sequence,1_1_2,NA,NA,completion,13688.374,1641561.6,1641558.955,1641575.97,1655264.344,1655266,2023-04-09T08:58:49Z,1655281.02,"c(""distractor1"", ""distractor2"", ""distractor3"")",Rückhalt,msaada,s,muhula,auwali,kiwimbe,NA,NA,NA,NA,NA,NA,NA,NA,NA,NA,NA,NA,NA,NA,NA,NA,NA,NA,NA,NA,NA,NA,NA
7f47d,deep,flow.Sequence,1_1_3_0,NA,NA,skipped,NA,1655266.2,NA,NA,1655264.344,1655266.4,2023-04-09T08:58:49Z,1655281.02,"c(""distractor1"", ""distractor2"", ""distractor3"")",Kritik,lawama,s,dereva,nafasi,mawazo,NA,NA,NA,NA,NA,NA,NA,NA,NA,NA,NA,NA,NA,NA,NA,NA,NA,NA,NA,NA,NA,NA,NA
7f47d,Shallow Question,html.Page,1_1_3_1_0,NA,NA,form submission,7704.3800000357,1655266.6,1655264.344,1655281.02,1662985.4,1662985.5,2023-04-09T08:58:57Z,1662991.039,"c(""distractor1"", ""distractor2"", ""distractor3"")",Kritik,lawama,s,dereva,nafasi,mawazo,lawama,NA,NA,NA,NA,NA,NA,NA,NA,NA,NA,NA,NA,NA,NA,NA,NA,NA,NA,NA,NA,NA,NA
7f47d,"""Richtig""-Screen",canvas.Screen,1_1_3_1_1,NA,NA,timeout,4996.4489999998,1662987.5,1662974.717,1662991.039,1667970.836,1667971.8,2023-04-09T08:59:02Z,1667987.488,"c(""distractor1"", ""distractor2"", ""distractor3"")",Kritik,lawama,s,dereva,nafasi,mawazo,NA,NA,1,NA,NA,NA,NA,NA,NA,NA,NA,NA,NA,NA,NA,NA,NA,NA,NA,NA,NA,NA,NA
7f47d,"""Falsch""-Screen",canvas.Screen,1_1_3_1_2,NA,NA,skipped,NA,1667976.6,NA,NA,1667970.836,1667976.8,2023-04-09T08:59:02Z,1667987.488,"c(""distractor1"", ""distractor2"", ""distractor3"")",Kritik,lawama,s,dereva,nafasi,mawazo,NA,NA,NA,NA,NA,NA,NA,NA,NA,NA,NA,NA,NA,NA,NA,NA,NA,NA,NA,NA,NA,NA,NA
7f47d,shallow,flow.Sequence,1_1_3_1,NA,NA,completion,12689.816,1655266.5,1655264.344,1655281.02,1667970.836,1667976.8,2023-04-09T08:59:02Z,1667987.488,"c(""distractor1"", ""distractor2"", ""distractor3"")",Kritik,lawama,s,dereva,nafasi,mawazo,NA,NA,NA,NA,NA,NA,NA,NA,NA,NA,NA,NA,NA,NA,NA,NA,NA,NA,NA,NA,NA,NA,NA
7f47d,task,flow.Sequence,1_1_3,NA,NA,completion,12689.816,1655266.2,1655264.344,1655281.02,1667970.836,1667976.9,2023-04-09T08:59:02Z,1667987.488,"c(""distractor1"", ""distractor2"", ""distractor3"")",Kritik,lawama,s,dereva,nafasi,mawazo,NA,NA,NA,NA,NA,NA,NA,NA,NA,NA,NA,NA,NA,NA,NA,NA,NA,NA,NA,NA,NA,NA,NA
7f47d,deep,flow.Sequence,1_1_4_0,NA,NA,skipped,NA,1667977,NA,NA,1667970.836,1667977,2023-04-09T08:59:02Z,1667987.488,"c(""distractor1"", ""distractor2"", ""distractor3"")",Gegenwart,hadhara,s,katiba,jokofu,mikopo,NA,NA,NA,NA,NA,NA,NA,NA,NA,NA,NA,NA,NA,NA,NA,NA,NA,NA,NA,NA,NA,NA,NA
7f47d,Shallow Question,html.Page,1_1_4_1_0,NA,NA,form submission,6412.0120000001,1667977.1,1667970.836,1667987.488,1674399.5,1674399.6,2023-04-09T08:59:08Z,1674415.002,"c(""distractor1"", ""distractor2"", ""distractor3"")",Gegenwart,hadhara,s,katiba,jokofu,mikopo,katiba,NA,NA,NA,NA,NA,NA,NA,NA,NA,NA,NA,NA,NA,NA,NA,NA,NA,NA,NA,NA,NA,NA
7f47d,"""Richtig""-Screen",canvas.Screen,1_1_4_1_1,NA,NA,skipped,NA,1674401.4,NA,NA,1674399.5,1674401.5,2023-04-09T08:59:08Z,1674415.002,"c(""distractor1"", ""distractor2"", ""distractor3"")",Gegenwart,hadhara,s,katiba,jokofu,mikopo,NA,NA,NA,NA,NA,NA,NA,NA,NA,NA,NA,NA,NA,NA,NA,NA,NA,NA,NA,NA,NA,NA,NA
7f47d,"""Falsch""-Screen",canvas.Screen,1_1_4_1_2,NA,NA,timeout,4996.645,1674402.2,1674398.525,1674415.002,1679394.435,1679395.4,2023-04-09T08:59:13Z,1679411.647,"c(""distractor1"", ""distractor2"", ""distractor3"")",Gegenwart,hadhara,s,katiba,jokofu,mikopo,NA,NA,0,NA,NA,NA,NA,NA,NA,NA,NA,NA,NA,NA,NA,NA,NA,NA,NA,NA,NA,NA,NA
7f47d,shallow,flow.Sequence,1_1_4_1,NA,NA,completion,11406.947,1667977.1,1667970.836,1667987.488,1679394.435,1679396,2023-04-09T08:59:13Z,1679411.647,"c(""distractor1"", ""distractor2"", ""distractor3"")",Gegenwart,hadhara,s,katiba,jokofu,mikopo,NA,NA,NA,NA,NA,NA,NA,NA,NA,NA,NA,NA,NA,NA,NA,NA,NA,NA,NA,NA,NA,NA,NA
7f47d,task,flow.Sequence,1_1_4,NA,NA,completion,11406.947,1667977,1667970.836,1667987.488,1679394.435,1679396.3,2023-04-09T08:59:13Z,1679411.647,"c(""distractor1"", ""distractor2"", ""distractor3"")",Gegenwart,hadhara,s,katiba,jokofu,mikopo,NA,NA,NA,NA,NA,NA,NA,NA,NA,NA,NA,NA,NA,NA,NA,NA,NA,NA,NA,NA,NA,NA,NA
7f47d,Deep Question,html.Page,1_1_5_0_0,NA,NA,form submission,4702.4530000237,1679396.6,1679394.435,1679411.647,1684114.1,1684114.3,2023-04-09T08:59:18Z,1684140.969,"c(""distractor1"", ""distractor2"", ""distractor3"")",Qualität,mtindo,d,NA,NA,NA,se,NA,NA,NA,NA,NA,NA,NA,NA,NA,NA,NA,NA,NA,NA,NA,NA,NA,NA,NA,NA,NA,NA
7f47d,"""Richtig""-Screen",canvas.Screen,1_1_5_0_1,NA,NA,skipped,NA,1684116.2,NA,NA,1684114.1,1684116.3,2023-04-09T08:59:18Z,1684140.969,"c(""distractor1"", ""distractor2"", ""distractor3"")",Qualität,mtindo,d,NA,NA,NA,NA,NA,NA,NA,NA,NA,NA,NA,NA,NA,NA,NA,NA,NA,NA,NA,NA,NA,NA,NA,NA,NA,NA
7f47d,"""Falsch""-Screen",canvas.Screen,1_1_5_0_2,NA,NA,timeout,4995.3429999999,1684116.9,1684124.263,1684140.969,1689119.701,1689120.8,2023-04-09T08:59:23Z,1689136.312,"c(""distractor1"", ""distractor2"", ""distractor3"")",Qualität,mtindo,d,NA,NA,NA,NA,NA,0,NA,NA,NA,NA,NA,NA,NA,NA,NA,NA,NA,NA,NA,NA,NA,NA,NA,NA,NA,NA
7f47d,deep,flow.Sequence,1_1_5_0,NA,NA,completion,9708.0539999998,1679396.5,1679394.435,1679411.647,1689119.701,1689121.2,2023-04-09T08:59:23Z,1689136.312,"c(""distractor1"", ""distractor2"", ""distractor3"")",Qualität,mtindo,d,NA,NA,NA,NA,NA,NA,NA,NA,NA,NA,NA,NA,NA,NA,NA,NA,NA,NA,NA,NA,NA,NA,NA,NA,NA,NA
7f47d,shallow,flow.Sequence,1_1_5_1,NA,NA,skipped,NA,1689121.4,NA,NA,1689119.701,1689121.5,2023-04-09T08:59:23Z,1689136.312,"c(""distractor1"", ""distractor2"", ""distractor3"")",Qualität,mtindo,d,NA,NA,NA,NA,NA,NA,NA,NA,NA,NA,NA,NA,NA,NA,NA,NA,NA,NA,NA,NA,NA,NA,NA,NA,NA,NA
7f47d,task,flow.Sequence,1_1_5,NA,NA,completion,9708.0539999998,1679396.5,1679394.435,1679411.647,1689119.701,1689121.9,2023-04-09T08:59:23Z,1689136.312,"c(""distractor1"", ""distractor2"", ""distractor3"")",Qualität,mtindo,d,NA,NA,NA,NA,NA,NA,NA,NA,NA,NA,NA,NA,NA,NA,NA,NA,NA,NA,NA,NA,NA,NA,NA,NA,NA,NA
7f47d,block,flow.Loop,1_1,NA,NA,completion,77985.459,1611114.8,1611116.504,1611134.242,1689119.701,1689122.2,2023-04-09T08:59:23Z,1689136.312,"c(""distractor1"", ""distractor2"", ""distractor3"")",NA,NA,NA,NA,NA,NA,NA,NA,NA,NA,NA,NA,NA,NA,NA,NA,NA,NA,NA,NA,NA,NA,NA,NA,NA,NA,NA,NA,NA
7f47d,Practice,flow.Sequence,1,NA,NA,completion,85463.319,1603654.3,1603645.853,1603656.382,1689119.701,1689122.5,2023-04-09T08:59:23Z,1689136.312,NULL,NA,NA,NA,NA,NA,NA,NA,NA,NA,NA,NA,NA,NA,NA,NA,NA,NA,NA,NA,NA,NA,NA,NA,NA,NA,NA,NA,NA,NA
7f47d,Experiment start,canvas.Screen,2,weiter,keypress(q),response,6177.488000012,1689122.6,1689119.701,1689136.312,1695313.8,1695315,2023-04-09T08:59:29Z,1695414.429,NULL,NA,NA,NA,NA,NA,NA,NA,NA,NA,NA,NA,NA,NA,NA,NA,NA,NA,NA,NA,NA,NA,NA,NA,NA,NA,NA,NA,NA,NA
7f47d,deep,flow.Sequence,3_0_0_0_0_0,NA,NA,skipped,NA,1695397.1,NA,NA,1695313.8,1695397.2,2023-04-09T08:59:29Z,1695414.429,NULL,Auftrag,uagizaji,s,ghanima,kuzingatia,msukani,NA,sdf,NA,0,NA,NA,NA,NA,NA,NA,NA,NA,NA,NA,NA,NA,NA,NA,NA,NA,NA,NA,NA
7f47d,Shallow Question,html.Page,3_0_0_0_0_1_0,NA,NA,form submission,4780.8710000119,1695397.3,1695381.341,1695414.429,1700195.3,1700195.6,2023-04-09T08:59:34Z,1700211.122,NULL,Auftrag,uagizaji,s,ghanima,kuzingatia,msukani,uagizaji,NA,NA,0,NA,NA,NA,NA,NA,NA,NA,NA,NA,NA,NA,NA,NA,NA,NA,NA,NA,NA,NA
7f47d,"""Richtig""-Screen",canvas.Screen,3_0_0_0_0_1_1,NA,NA,timeout,4996.0209999999,1700197.3,1700194.519,1700211.122,1705190.345,1705190.8,2023-04-09T08:59:39Z,1705207.143,NULL,Auftrag,uagizaji,s,ghanima,kuzingatia,msukani,NA,sdf,1,0,NA,NA,NA,NA,NA,NA,NA,NA,NA,NA,NA,NA,NA,NA,NA,NA,NA,NA,NA
7f47d,"""Falsch""-Screen",canvas.Screen,3_0_0_0_0_1_2,NA,NA,skipped,NA,1705193.4,NA,NA,1705190.345,1705193.5,2023-04-09T08:59:39Z,1705207.143,NULL,Auftrag,uagizaji,s,ghanima,kuzingatia,msukani,NA,sdf,NA,0,NA,NA,NA,NA,NA,NA,NA,NA,NA,NA,NA,NA,NA,NA,NA,NA,NA,NA,NA
7f47d,shallow,flow.Sequence,3_0_0_0_0_1,NA,NA,completion,9775.916,1695397.3,1695381.341,1695414.429,1705190.345,1705193.7,2023-04-09T08:59:39Z,1705207.143,NULL,Auftrag,uagizaji,s,ghanima,kuzingatia,msukani,NA,sdf,NA,0,NA,NA,NA,NA,NA,NA,NA,NA,NA,NA,NA,NA,NA,NA,NA,NA,NA,NA,NA
7f47d,task,flow.Sequence,3_0_0_0_0,NA,NA,completion,9775.916,1695397,1695381.341,1695414.429,1705190.345,1705193.8,2023-04-09T08:59:39Z,1705207.143,NULL,Auftrag,uagizaji,s,ghanima,kuzingatia,msukani,NA,sdf,NA,0,NA,NA,NA,NA,NA,NA,NA,NA,NA,NA,NA,NA,NA,NA,NA,NA,NA,NA,NA
7f47d,deep,flow.Sequence,3_0_0_0_1_0,NA,NA,skipped,NA,1705193.9,NA,NA,1705190.345,1705194,2023-04-09T08:59:39Z,1705207.143,NULL,Verpackung,ufungaji,s,uhusiano,upimaji,uchunguzi,NA,sdf,NA,0,NA,NA,NA,NA,NA,NA,NA,NA,NA,NA,NA,NA,NA,NA,NA,NA,NA,NA,NA
7f47d,Shallow Question,html.Page,3_0_0_0_1_1_0,NA,NA,form submission,6214.157000012,1705194,1705190.345,1705207.143,1711421.3,1711421.4,2023-04-09T08:59:45Z,1711434.759,NULL,Verpackung,ufungaji,s,uhusiano,upimaji,uchunguzi,uchunguzi,NA,NA,0,NA,NA,NA,NA,NA,NA,NA,NA,NA,NA,NA,NA,NA,NA,NA,NA,NA,NA,NA
7f47d,"""Richtig""-Screen",canvas.Screen,3_0_0_0_1_1_1,NA,NA,skipped,NA,1711423.3,NA,NA,1711421.3,1711423.4,2023-04-09T08:59:45Z,1711434.759,NULL,Verpackung,ufungaji,s,uhusiano,upimaji,uchunguzi,NA,sdf,NA,0,NA,NA,NA,NA,NA,NA,NA,NA,NA,NA,NA,NA,NA,NA,NA,NA,NA,NA,NA
7f47d,"""Falsch""-Screen",canvas.Screen,3_0_0_0_1_1_2,NA,NA,timeout,4996.2949999999,1711423.9,1711418.638,1711434.759,1716414.376,1716415,2023-04-09T08:59:50Z,1716431.054,NULL,Verpackung,ufungaji,s,uhusiano,upimaji,uchunguzi,NA,sdf,0,0,NA,NA,NA,NA,NA,NA,NA,NA,NA,NA,NA,NA,NA,NA,NA,NA,NA,NA,NA
7f47d,shallow,flow.Sequence,3_0_0_0_1_1,NA,NA,completion,11207.233,1705194,1705190.345,1705207.143,1716414.376,1716415.3,2023-04-09T08:59:50Z,1716431.054,NULL,Verpackung,ufungaji,s,uhusiano,upimaji,uchunguzi,NA,sdf,NA,0,NA,NA,NA,NA,NA,NA,NA,NA,NA,NA,NA,NA,NA,NA,NA,NA,NA,NA,NA
7f47d,task,flow.Sequence,3_0_0_0_1,NA,NA,completion,11207.233,1705193.9,1705190.345,1705207.143,1716414.376,1716415.4,2023-04-09T08:59:50Z,1716431.054,NULL,Verpackung,ufungaji,s,uhusiano,upimaji,uchunguzi,NA,sdf,NA,0,NA,NA,NA,NA,NA,NA,NA,NA,NA,NA,NA,NA,NA,NA,NA,NA,NA,NA,NA
7f47d,deep,flow.Sequence,3_0_0_0_2_0,NA,NA,skipped,NA,1716415.6,NA,NA,1716414.376,1716415.7,2023-04-09T08:59:50Z,1716431.054,NULL,Hoffnung,matarajio,s,kutaalamika,uratibu,mvumbuzi,NA,sdf,NA,0,NA,NA,NA,NA,NA,NA,NA,NA,NA,NA,NA,NA,NA,NA,NA,NA,NA,NA,NA
7f47d,Shallow Question,html.Page,3_0_0_0_2_1_0,NA,NA,form submission,5776.946,1716415.8,1716414.376,1716431.054,1722208,1722208.2,2023-04-09T08:59:56Z,1722209.097,NULL,Hoffnung,matarajio,s,kutaalamika,uratibu,mvumbuzi,kutaalamika,NA,NA,0,NA,NA,NA,NA,NA,NA,NA,NA,NA,NA,NA,NA,NA,NA,NA,NA,NA,NA,NA
7f47d,"""Richtig""-Screen",canvas.Screen,3_0_0_0_2_1_1,NA,NA,skipped,NA,1722210.2,NA,NA,1722208,1722210.2,2023-04-09T08:59:56Z,1722209.097,NULL,Hoffnung,matarajio,s,kutaalamika,uratibu,mvumbuzi,NA,sdf,NA,0,NA,NA,NA,NA,NA,NA,NA,NA,NA,NA,NA,NA,NA,NA,NA,NA,NA,NA,NA
7f47d,"""Falsch""-Screen",canvas.Screen,3_0_0_0_2_1_2,NA,NA,timeout,4996.6359999999,1722210.9,1722192.424,1722209.097,1727188.755,1727189.5,2023-04-09T09:00:01Z,1727205.733,NULL,Hoffnung,matarajio,s,kutaalamika,uratibu,mvumbuzi,NA,sdf,0,0,NA,NA,NA,NA,NA,NA,NA,NA,NA,NA,NA,NA,NA,NA,NA,NA,NA,NA,NA
7f47d,shallow,flow.Sequence,3_0_0_0_2_1,NA,NA,completion,10757.701,1716415.7,1716414.376,1716431.054,1727188.755,1727189.9,2023-04-09T09:00:01Z,1727205.733,NULL,Hoffnung,matarajio,s,kutaalamika,uratibu,mvumbuzi,NA,sdf,NA,0,NA,NA,NA,NA,NA,NA,NA,NA,NA,NA,NA,NA,NA,NA,NA,NA,NA,NA,NA
7f47d,task,flow.Sequence,3_0_0_0_2,NA,NA,completion,10757.701,1716415.6,1716414.376,1716431.054,1727188.755,1727190.1,2023-04-09T09:00:01Z,1727205.733,NULL,Hoffnung,matarajio,s,kutaalamika,uratibu,mvumbuzi,NA,sdf,NA,0,NA,NA,NA,NA,NA,NA,NA,NA,NA,NA,NA,NA,NA,NA,NA,NA,NA,NA,NA
7f47d,Deep Question,html.Page,3_0_0_0_3_0_0,NA,NA,form submission,7908.8670000238,1727190.3,1727188.755,1727205.733,1735114.6,1735114.8,2023-04-09T09:00:09Z,1735136.672,NULL,Schönheit,kirembo,d,NA,NA,NA,er,NA,NA,0,NA,NA,NA,NA,NA,NA,NA,NA,NA,NA,NA,NA,NA,NA,NA,NA,NA,NA,NA
7f47d,"""Richtig""-Screen",canvas.Screen,3_0_0_0_3_0_1,NA,NA,skipped,NA,1735117.3,NA,NA,1735114.6,1735117.4,2023-04-09T09:00:09Z,1735136.672,NULL,Schönheit,kirembo,d,NA,NA,NA,NA,sdf,NA,0,NA,NA,NA,NA,NA,NA,NA,NA,NA,NA,NA,NA,NA,NA,NA,NA,NA,NA,NA
7f47d,"""Falsch""-Screen",canvas.Screen,3_0_0_0_3_0_2,NA,NA,timeout,4991.622,1735117.9,1735098.619,1735136.672,1740111.529,1740112.3,2023-04-09T09:00:14Z,1740128.294,NULL,Schönheit,kirembo,d,NA,NA,NA,NA,sdf,0,0,NA,NA,NA,NA,NA,NA,NA,NA,NA,NA,NA,NA,NA,NA,NA,NA,NA,NA,NA
7f47d,deep,flow.Sequence,3_0_0_0_3_0,NA,NA,completion,12905.796,1727190.3,1727188.755,1727205.733,1740111.529,1740112.8,2023-04-09T09:00:14Z,1740128.294,NULL,Schönheit,kirembo,d,NA,NA,NA,NA,sdf,NA,0,NA,NA,NA,NA,NA,NA,NA,NA,NA,NA,NA,NA,NA,NA,NA,NA,NA,NA,NA
7f47d,shallow,flow.Sequence,3_0_0_0_3_1,NA,NA,skipped,NA,1740113,NA,NA,1740111.529,1740113.1,2023-04-09T09:00:14Z,1740128.294,NULL,Schönheit,kirembo,d,NA,NA,NA,NA,sdf,NA,0,NA,NA,NA,NA,NA,NA,NA,NA,NA,NA,NA,NA,NA,NA,NA,NA,NA,NA,NA
7f47d,task,flow.Sequence,3_0_0_0_3,NA,NA,completion,12905.796,1727190.2,1727188.755,1727205.733,1740111.529,1740113.4,2023-04-09T09:00:14Z,1740128.294,NULL,Schönheit,kirembo,d,NA,NA,NA,NA,sdf,NA,0,NA,NA,NA,NA,NA,NA,NA,NA,NA,NA,NA,NA,NA,NA,NA,NA,NA,NA,NA
7f47d,Deep Question,html.Page,3_0_0_0_4_0_0,NA,NA,form submission,8592.8060000238,1740113.6,1740111.529,1740128.294,1748721.1,1748721.2,2023-04-09T09:00:22Z,1748738.023,NULL,Zufall,kikuti,d,NA,NA,NA,ul,NA,NA,0,NA,NA,NA,NA,NA,NA,NA,NA,NA,NA,NA,NA,NA,NA,NA,NA,NA,NA,NA
7f47d,"""Richtig""-Screen",canvas.Screen,3_0_0_0_4_0_1,NA,NA,skipped,NA,1748723.3,NA,NA,1748721.1,1748723.4,2023-04-09T09:00:22Z,1748738.023,NULL,Zufall,kikuti,d,NA,NA,NA,NA,sdf,NA,0,NA,NA,NA,NA,NA,NA,NA,NA,NA,NA,NA,NA,NA,NA,NA,NA,NA,NA,NA
7f47d,"""Falsch""-Screen",canvas.Screen,3_0_0_0_4_0_2,NA,NA,timeout,4995.635,1748723.9,1748704.588,1748738.023,1753717.172,1753717.9,2023-04-09T09:00:27Z,1753733.658,NULL,Zufall,kikuti,d,NA,NA,NA,NA,sdf,0,0,NA,NA,NA,NA,NA,NA,NA,NA,NA,NA,NA,NA,NA,NA,NA,NA,NA,NA,NA
7f47d,deep,flow.Sequence,3_0_0_0_4_0,NA,NA,completion,13588.878,1740113.6,1740111.529,1740128.294,1753717.172,1753718.4,2023-04-09T09:00:27Z,1753733.658,NULL,Zufall,kikuti,d,NA,NA,NA,NA,sdf,NA,0,NA,NA,NA,NA,NA,NA,NA,NA,NA,NA,NA,NA,NA,NA,NA,NA,NA,NA,NA
7f47d,shallow,flow.Sequence,3_0_0_0_4_1,NA,NA,skipped,NA,1753718.5,NA,NA,1753717.172,1753718.7,2023-04-09T09:00:27Z,1753733.658,NULL,Zufall,kikuti,d,NA,NA,NA,NA,sdf,NA,0,NA,NA,NA,NA,NA,NA,NA,NA,NA,NA,NA,NA,NA,NA,NA,NA,NA,NA,NA
7f47d,task,flow.Sequence,3_0_0_0_4,NA,NA,completion,13588.878,1740113.6,1740111.529,1740128.294,1753717.172,1753718.9,2023-04-09T09:00:27Z,1753733.658,NULL,Zufall,kikuti,d,NA,NA,NA,NA,sdf,NA,0,NA,NA,NA,NA,NA,NA,NA,NA,NA,NA,NA,NA,NA,NA,NA,NA,NA,NA,NA
7f47d,Deep Question,html.Page,3_0_0_0_5_0_0,NA,NA,form submission,5430.1420000119,1753719.1,1753717.172,1753733.658,1759163.8,1759164,2023-04-09T09:00:33Z,1759179.336,NULL,Schock,mshtuko,d,NA,NA,NA,sa,NA,NA,0,NA,NA,NA,NA,NA,NA,NA,NA,NA,NA,NA,NA,NA,NA,NA,NA,NA,NA,NA
7f47d,"""Richtig""-Screen",canvas.Screen,3_0_0_0_5_0_1,NA,NA,skipped,NA,1759166.4,NA,NA,1759163.8,1759166.6,2023-04-09T09:00:33Z,1759179.336,NULL,Schock,mshtuko,d,NA,NA,NA,NA,sdf,NA,0,NA,NA,NA,NA,NA,NA,NA,NA,NA,NA,NA,NA,NA,NA,NA,NA,NA,NA,NA
7f47d,"""Falsch""-Screen",canvas.Screen,3_0_0_0_5_0_2,NA,NA,timeout,4995.321,1759167.5,1759162.672,1759179.336,1764158.034,1764159.8,2023-04-09T09:00:38Z,1764174.657,NULL,Schock,mshtuko,d,NA,NA,NA,NA,sdf,0,0,NA,NA,NA,NA,NA,NA,NA,NA,NA,NA,NA,NA,NA,NA,NA,NA,NA,NA,NA
7f47d,deep,flow.Sequence,3_0_0_0_5_0,NA,NA,completion,10424.376,1753719,1753717.172,1753733.658,1764158.034,1764160.3,2023-04-09T09:00:38Z,1764174.657,NULL,Schock,mshtuko,d,NA,NA,NA,NA,sdf,NA,0,NA,NA,NA,NA,NA,NA,NA,NA,NA,NA,NA,NA,NA,NA,NA,NA,NA,NA,NA
7f47d,shallow,flow.Sequence,3_0_0_0_5_1,NA,NA,skipped,NA,1764160.4,NA,NA,1764158.034,1764160.6,2023-04-09T09:00:38Z,1764174.657,NULL,Schock,mshtuko,d,NA,NA,NA,NA,sdf,NA,0,NA,NA,NA,NA,NA,NA,NA,NA,NA,NA,NA,NA,NA,NA,NA,NA,NA,NA,NA
7f47d,task,flow.Sequence,3_0_0_0_5,NA,NA,completion,10424.376,1753719,1753717.172,1753733.658,1764158.034,1764160.9,2023-04-09T09:00:38Z,1764174.657,NULL,Schock,mshtuko,d,NA,NA,NA,NA,sdf,NA,0,NA,NA,NA,NA,NA,NA,NA,NA,NA,NA,NA,NA,NA,NA,NA,NA,NA,NA,NA
7f47d,Deep Question,html.Page,3_0_0_0_6_0_0,NA,NA,form submission,8425.7430000359,1764161.1,1764158.034,1764174.657,1772600.4,1772600.6,2023-04-09T09:00:46Z,1772621.955,NULL,Theorie,nadharia,d,NA,NA,NA,na,NA,NA,0,NA,NA,NA,NA,NA,NA,NA,NA,NA,NA,NA,NA,NA,NA,NA,NA,NA,NA,NA
7f47d,"""Richtig""-Screen",canvas.Screen,3_0_0_0_6_0_1,NA,NA,skipped,NA,1772603.3,NA,NA,1772600.4,1772603.4,2023-04-09T09:00:46Z,1772621.955,NULL,Theorie,nadharia,d,NA,NA,NA,NA,sdf,NA,0,NA,NA,NA,NA,NA,NA,NA,NA,NA,NA,NA,NA,NA,NA,NA,NA,NA,NA,NA
7f47d,"""Falsch""-Screen",canvas.Screen,3_0_0_0_6_0_2,NA,NA,timeout,4992.0889999999,1772604,1772585.034,1772621.955,1777597.562,1777598.3,2023-04-09T09:00:51Z,1777614.044,NULL,Theorie,nadharia,d,NA,NA,NA,NA,sdf,0,0,NA,NA,NA,NA,NA,NA,NA,NA,NA,NA,NA,NA,NA,NA,NA,NA,NA,NA,NA
7f47d,deep,flow.Sequence,3_0_0_0_6_0,NA,NA,completion,13422.905,1764161.1,1764158.034,1764174.657,1777597.562,1777598.8,2023-04-09T09:00:51Z,1777614.044,NULL,Theorie,nadharia,d,NA,NA,NA,NA,sdf,NA,0,NA,NA,NA,NA,NA,NA,NA,NA,NA,NA,NA,NA,NA,NA,NA,NA,NA,NA,NA
7f47d,shallow,flow.Sequence,3_0_0_0_6_1,NA,NA,skipped,NA,1777598.9,NA,NA,1777597.562,1777599,2023-04-09T09:00:51Z,1777614.044,NULL,Theorie,nadharia,d,NA,NA,NA,NA,sdf,NA,0,NA,NA,NA,NA,NA,NA,NA,NA,NA,NA,NA,NA,NA,NA,NA,NA,NA,NA,NA
7f47d,task,flow.Sequence,3_0_0_0_6,NA,NA,completion,13422.905,1764161,1764158.034,1764174.657,1777597.562,1777599.3,2023-04-09T09:00:51Z,1777614.044,NULL,Theorie,nadharia,d,NA,NA,NA,NA,sdf,NA,0,NA,NA,NA,NA,NA,NA,NA,NA,NA,NA,NA,NA,NA,NA,NA,NA,NA,NA,NA
7f47d,deep,flow.Sequence,3_0_0_0_7_0,NA,NA,skipped,NA,1777599.4,NA,NA,1777597.562,1777599.6,2023-04-09T09:00:51Z,1777614.044,NULL,Wettbewerb,ushindani,s,mapendezi,kichocheo,ubaguzi,NA,sdf,NA,0,NA,NA,NA,NA,NA,NA,NA,NA,NA,NA,NA,NA,NA,NA,NA,NA,NA,NA,NA
7f47d,Shallow Question,html.Page,3_0_0_0_7_1_0,NA,NA,form submission,8267.1559999881,1777599.7,1777597.562,1777614.044,1785881.2,1785881.4,2023-04-09T09:01:00Z,1785890.353,NULL,Wettbewerb,ushindani,s,mapendezi,kichocheo,ubaguzi,ubaguzi,NA,NA,0,NA,NA,NA,NA,NA,NA,NA,NA,NA,NA,NA,NA,NA,NA,NA,NA,NA,NA,NA
7f47d,"""Richtig""-Screen",canvas.Screen,3_0_0_0_7_1_1,NA,NA,skipped,NA,1785883.2,NA,NA,1785881.2,1785883.4,2023-04-09T09:01:00Z,1785890.353,NULL,Wettbewerb,ushindani,s,mapendezi,kichocheo,ubaguzi,NA,sdf,NA,0,NA,NA,NA,NA,NA,NA,NA,NA,NA,NA,NA,NA,NA,NA,NA,NA,NA,NA,NA
7f47d,"""Falsch""-Screen",canvas.Screen,3_0_0_0_7_1_2,NA,NA,timeout,4996.452,1785883.9,1785873.688,1785890.353,1790869.993,1790870.8,2023-04-09T09:01:05Z,1790886.805,NULL,Wettbewerb,ushindani,s,mapendezi,kichocheo,ubaguzi,NA,sdf,0,0,NA,NA,NA,NA,NA,NA,NA,NA,NA,NA,NA,NA,NA,NA,NA,NA,NA,NA,NA
7f47d,shallow,flow.Sequence,3_0_0_0_7_1,NA,NA,completion,13255.949,1777599.7,1777597.562,1777614.044,1790869.993,1790871.2,2023-04-09T09:01:05Z,1790886.805,NULL,Wettbewerb,ushindani,s,mapendezi,kichocheo,ubaguzi,NA,sdf,NA,0,NA,NA,NA,NA,NA,NA,NA,NA,NA,NA,NA,NA,NA,NA,NA,NA,NA,NA,NA
7f47d,task,flow.Sequence,3_0_0_0_7,NA,NA,completion,13255.949,1777599.4,1777597.562,1777614.044,1790869.993,1790871.6,2023-04-09T09:01:05Z,1790886.805,NULL,Wettbewerb,ushindani,s,mapendezi,kichocheo,ubaguzi,NA,sdf,NA,0,NA,NA,NA,NA,NA,NA,NA,NA,NA,NA,NA,NA,NA,NA,NA,NA,NA,NA,NA
7f47d,block,flow.Loop,3_0_0_0,NA,NA,completion,95455.564,1695397,1695381.341,1695414.429,1790869.993,1790871.9,2023-04-09T09:01:05Z,1790886.805,NULL,NA,NA,NA,NA,NA,NA,NA,sdf,NA,0,NA,NA,NA,NA,NA,NA,NA,NA,NA,NA,NA,NA,NA,NA,NA,NA,NA,NA,NA
7f47d,weiter,canvas.Screen,3_0_0_1,sdf,keypress(Space),response,1781.6950000001,1790872,1790869.993,1790886.805,1792668.5,1792669.4,2023-04-09T09:01:06Z,1792734.855,NULL,NA,NA,NA,NA,NA,NA,NA,sdf,NA,0,NA,NA,NA,NA,NA,NA,NA,NA,NA,NA,NA,NA,NA,NA,NA,NA,NA,NA,NA
7f47d,check continue,flow.Sequence,3_0_0,NA,NA,completion,97254.071,1695396.9,1695381.341,1695414.429,1792668.5,1792669.8,2023-04-09T09:01:06Z,1792734.855,NULL,NA,NA,NA,NA,NA,NA,NA,sdf,NA,0,NA,NA,NA,NA,NA,NA,NA,NA,NA,NA,NA,NA,NA,NA,NA,NA,NA,NA,NA
7f47d,Deep Question,html.Page,3_0_1_0_0_0_0,NA,NA,form submission,10006.844999988,1792719.1,1792718.412,1792734.855,1802741.7,1802741.9,2023-04-09T09:01:17Z,1802742.966,NULL,Zufall,kikuti,d,NA,NA,NA,un,NA,NA,1,NA,NA,NA,NA,NA,NA,NA,NA,NA,NA,NA,NA,NA,NA,NA,NA,NA,NA,NA
7f47d,"""Richtig""-Screen",canvas.Screen,3_0_1_0_0_0_1,NA,NA,skipped,NA,1802744.1,NA,NA,1802741.7,1802744.2,2023-04-09T09:01:17Z,1802742.966,NULL,Zufall,kikuti,d,NA,NA,NA,NA,sdfdsf,NA,1,NA,NA,NA,NA,NA,NA,NA,NA,NA,NA,NA,NA,NA,NA,NA,NA,NA,NA,NA
7f47d,"""Falsch""-Screen",canvas.Screen,3_0_1_0_0_0_2,NA,NA,timeout,4996.433,1802744.9,1802726.33,1802742.966,1807722.395,1807724.1,2023-04-09T09:01:21Z,1807739.399,NULL,Zufall,kikuti,d,NA,NA,NA,NA,sdfdsf,0,1,NA,NA,NA,NA,NA,NA,NA,NA,NA,NA,NA,NA,NA,NA,NA,NA,NA,NA,NA
7f47d,deep,flow.Sequence,3_0_1_0_0_0,NA,NA,completion,14987.54,1792719.1,1792718.412,1792734.855,1807722.395,1807724.6,2023-04-09T09:01:21Z,1807739.399,NULL,Zufall,kikuti,d,NA,NA,NA,NA,sdfdsf,NA,1,NA,NA,NA,NA,NA,NA,NA,NA,NA,NA,NA,NA,NA,NA,NA,NA,NA,NA,NA
7f47d,shallow,flow.Sequence,3_0_1_0_0_1,NA,NA,skipped,NA,1807724.7,NA,NA,1807722.395,1807724.9,2023-04-09T09:01:21Z,1807739.399,NULL,Zufall,kikuti,d,NA,NA,NA,NA,sdfdsf,NA,1,NA,NA,NA,NA,NA,NA,NA,NA,NA,NA,NA,NA,NA,NA,NA,NA,NA,NA,NA
7f47d,task,flow.Sequence,3_0_1_0_0,NA,NA,completion,14987.54,1792719.1,1792718.412,1792734.855,1807722.395,1807725.1,2023-04-09T09:01:21Z,1807739.399,NULL,Zufall,kikuti,d,NA,NA,NA,NA,sdfdsf,NA,1,NA,NA,NA,NA,NA,NA,NA,NA,NA,NA,NA,NA,NA,NA,NA,NA,NA,NA,NA
7f47d,deep,flow.Sequence,3_0_1_0_1_0,NA,NA,skipped,NA,1807725.2,NA,NA,1807722.395,1807725.4,2023-04-09T09:01:21Z,1807739.399,NULL,Wettbewerb,ushindani,s,mapendezi,kichocheo,ubaguzi,NA,sdfdsf,NA,1,NA,NA,NA,NA,NA,NA,NA,NA,NA,NA,NA,NA,NA,NA,NA,NA,NA,NA,NA
7f47d,Shallow Question,html.Page,3_0_1_0_1_1_0,NA,NA,form submission,6065.7010000239,1807725.5,1807722.395,1807739.399,1813805.1,1813805.4,2023-04-09T09:01:28Z,1813817.663,NULL,Wettbewerb,ushindani,s,mapendezi,kichocheo,ubaguzi,mapendezi,NA,NA,1,NA,NA,NA,NA,NA,NA,NA,NA,NA,NA,NA,NA,NA,NA,NA,NA,NA,NA,NA
7f47d,"""Richtig""-Screen",canvas.Screen,3_0_1_0_1_1_1,NA,NA,skipped,NA,1813807.2,NA,NA,1813805.1,1813807.4,2023-04-09T09:01:28Z,1813817.663,NULL,Wettbewerb,ushindani,s,mapendezi,kichocheo,ubaguzi,NA,sdfdsf,NA,1,NA,NA,NA,NA,NA,NA,NA,NA,NA,NA,NA,NA,NA,NA,NA,NA,NA,NA,NA
7f47d,"""Falsch""-Screen",canvas.Screen,3_0_1_0_1_1_2,NA,NA,timeout,4995.723,1813807.9,1813800.827,1813817.663,1818797.189,1818798,2023-04-09T09:01:33Z,1818813.386,NULL,Wettbewerb,ushindani,s,mapendezi,kichocheo,ubaguzi,NA,sdfdsf,0,1,NA,NA,NA,NA,NA,NA,NA,NA,NA,NA,NA,NA,NA,NA,NA,NA,NA,NA,NA
7f47d,shallow,flow.Sequence,3_0_1_0_1_1,NA,NA,completion,11057.79,1807725.5,1807722.395,1807739.399,1818797.189,1818798.4,2023-04-09T09:01:33Z,1818813.386,NULL,Wettbewerb,ushindani,s,mapendezi,kichocheo,ubaguzi,NA,sdfdsf,NA,1,NA,NA,NA,NA,NA,NA,NA,NA,NA,NA,NA,NA,NA,NA,NA,NA,NA,NA,NA
7f47d,task,flow.Sequence,3_0_1_0_1,NA,NA,completion,11057.79,1807725.2,1807722.395,1807739.399,1818797.189,1818798.6,2023-04-09T09:01:33Z,1818813.386,NULL,Wettbewerb,ushindani,s,mapendezi,kichocheo,ubaguzi,NA,sdfdsf,NA,1,NA,NA,NA,NA,NA,NA,NA,NA,NA,NA,NA,NA,NA,NA,NA,NA,NA,NA,NA
7f47d,deep,flow.Sequence,3_0_1_0_2_0,NA,NA,skipped,NA,1818798.9,NA,NA,1818797.189,1818799,2023-04-09T09:01:33Z,1818813.386,NULL,Hoffnung,matarajio,s,kutaalamika,uratibu,mvumbuzi,NA,sdfdsf,NA,1,NA,NA,NA,NA,NA,NA,NA,NA,NA,NA,NA,NA,NA,NA,NA,NA,NA,NA,NA
7f47d,Shallow Question,html.Page,3_0_1_0_2_1_0,NA,NA,form submission,10326.114,1818799.1,1818797.189,1818813.386,1829139.5,1829139.6,2023-04-09T09:01:43Z,1829155.298,NULL,Hoffnung,matarajio,s,kutaalamika,uratibu,mvumbuzi,mvumbuzi,NA,NA,1,NA,NA,NA,NA,NA,NA,NA,NA,NA,NA,NA,NA,NA,NA,NA,NA,NA,NA,NA
7f47d,"""Richtig""-Screen",canvas.Screen,3_0_1_0_2_1_1,NA,NA,skipped,NA,1829141.5,NA,NA,1829139.5,1829141.7,2023-04-09T09:01:43Z,1829155.298,NULL,Hoffnung,matarajio,s,kutaalamika,uratibu,mvumbuzi,NA,sdfdsf,NA,1,NA,NA,NA,NA,NA,NA,NA,NA,NA,NA,NA,NA,NA,NA,NA,NA,NA,NA,NA
7f47d,"""Falsch""-Screen",canvas.Screen,3_0_1_0_2_1_2,NA,NA,timeout,4995.6459999999,1829142.2,1829138.004,1829155.298,1834134.178,1834135.2,2023-04-09T09:01:48Z,1834150.944,NULL,Hoffnung,matarajio,s,kutaalamika,uratibu,mvumbuzi,NA,sdfdsf,0,1,NA,NA,NA,NA,NA,NA,NA,NA,NA,NA,NA,NA,NA,NA,NA,NA,NA,NA,NA
7f47d,shallow,flow.Sequence,3_0_1_0_2_1,NA,NA,completion,15320.792,1818799.1,1818797.189,1818813.386,1834134.178,1834135.4,2023-04-09T09:01:48Z,1834150.944,NULL,Hoffnung,matarajio,s,kutaalamika,uratibu,mvumbuzi,NA,sdfdsf,NA,1,NA,NA,NA,NA,NA,NA,NA,NA,NA,NA,NA,NA,NA,NA,NA,NA,NA,NA,NA
7f47d,task,flow.Sequence,3_0_1_0_2,NA,NA,completion,15320.792,1818798.8,1818797.189,1818813.386,1834134.178,1834135.7,2023-04-09T09:01:48Z,1834150.944,NULL,Hoffnung,matarajio,s,kutaalamika,uratibu,mvumbuzi,NA,sdfdsf,NA,1,NA,NA,NA,NA,NA,NA,NA,NA,NA,NA,NA,NA,NA,NA,NA,NA,NA,NA,NA
7f47d,deep,flow.Sequence,3_0_1_0_3_0,NA,NA,skipped,NA,1834135.9,NA,NA,1834134.178,1834136.1,2023-04-09T09:01:48Z,1834150.944,NULL,Verpackung,ufungaji,s,uhusiano,upimaji,uchunguzi,NA,sdfdsf,NA,1,NA,NA,NA,NA,NA,NA,NA,NA,NA,NA,NA,NA,NA,NA,NA,NA,NA,NA,NA
7f47d,Shallow Question,html.Page,3_0_1_0_3_1_0,NA,NA,form submission,8921.4560000359,1834136.2,1834134.178,1834150.944,1843072.4,1843072.6,2023-04-09T09:01:57Z,1843076.559,NULL,Verpackung,ufungaji,s,uhusiano,upimaji,uchunguzi,uhusiano,NA,NA,1,NA,NA,NA,NA,NA,NA,NA,NA,NA,NA,NA,NA,NA,NA,NA,NA,NA,NA,NA
7f47d,"""Richtig""-Screen",canvas.Screen,3_0_1_0_3_1_1,NA,NA,skipped,NA,1843074.3,NA,NA,1843072.4,1843074.5,2023-04-09T09:01:57Z,1843076.559,NULL,Verpackung,ufungaji,s,uhusiano,upimaji,uchunguzi,NA,sdfdsf,NA,1,NA,NA,NA,NA,NA,NA,NA,NA,NA,NA,NA,NA,NA,NA,NA,NA,NA,NA,NA
7f47d,"""Falsch""-Screen",canvas.Screen,3_0_1_0_3_1_2,NA,NA,timeout,4996.2170000002,1843075,1843059.981,1843076.559,1848056.5,1848056.9,2023-04-09T09:02:02Z,1848072.776,NULL,Verpackung,ufungaji,s,uhusiano,upimaji,uchunguzi,NA,sdfdsf,0,1,NA,NA,NA,NA,NA,NA,NA,NA,NA,NA,NA,NA,NA,NA,NA,NA,NA,NA,NA
7f47d,shallow,flow.Sequence,3_0_1_0_3_1,NA,NA,completion,13905.556,1834136.2,1834134.178,1834150.944,1848056.5,1848057.2,2023-04-09T09:02:02Z,1848072.776,NULL,Verpackung,ufungaji,s,uhusiano,upimaji,uchunguzi,NA,sdfdsf,NA,1,NA,NA,NA,NA,NA,NA,NA,NA,NA,NA,NA,NA,NA,NA,NA,NA,NA,NA,NA
7f47d,task,flow.Sequence,3_0_1_0_3,NA,NA,completion,13905.556,1834135.8,1834134.178,1834150.944,1848056.5,1848057.4,2023-04-09T09:02:02Z,1848072.776,NULL,Verpackung,ufungaji,s,uhusiano,upimaji,uchunguzi,NA,sdfdsf,NA,1,NA,NA,NA,NA,NA,NA,NA,NA,NA,NA,NA,NA,NA,NA,NA,NA,NA,NA,NA
7f47d,Deep Question,html.Page,3_0_1_0_4_0_0,NA,NA,form submission,14230.624000036,1848057.4,1848056.5,1848072.776,1862303.4,1862303.5,2023-04-09T09:02:16Z,1862310.769,NULL,Theorie,nadharia,d,NA,NA,NA,uns,NA,NA,1,NA,NA,NA,NA,NA,NA,NA,NA,NA,NA,NA,NA,NA,NA,NA,NA,NA,NA,NA
7f47d,"""Richtig""-Screen",canvas.Screen,3_0_1_0_4_0_1,NA,NA,skipped,NA,1862305.2,NA,NA,1862303.4,1862305.4,2023-04-09T09:02:16Z,1862310.769,NULL,Theorie,nadharia,d,NA,NA,NA,NA,sdfdsf,NA,1,NA,NA,NA,NA,NA,NA,NA,NA,NA,NA,NA,NA,NA,NA,NA,NA,NA,NA,NA
7f47d,"""Falsch""-Screen",canvas.Screen,3_0_1_0_4_0_2,NA,NA,timeout,4996.6539999999,1862305.8,1862294.665,1862310.769,1867290.59,1867291.3,2023-04-09T09:02:21Z,1867307.423,NULL,Theorie,nadharia,d,NA,NA,NA,NA,sdfdsf,0,1,NA,NA,NA,NA,NA,NA,NA,NA,NA,NA,NA,NA,NA,NA,NA,NA,NA,NA,NA
7f47d,deep,flow.Sequence,3_0_1_0_4_0,NA,NA,completion,19217.814,1848057.4,1848056.5,1848072.776,1867290.59,1867291.8,2023-04-09T09:02:21Z,1867307.423,NULL,Theorie,nadharia,d,NA,NA,NA,NA,sdfdsf,NA,1,NA,NA,NA,NA,NA,NA,NA,NA,NA,NA,NA,NA,NA,NA,NA,NA,NA,NA,NA
7f47d,shallow,flow.Sequence,3_0_1_0_4_1,NA,NA,skipped,NA,1867292.1,NA,NA,1867290.59,1867292.3,2023-04-09T09:02:21Z,1867307.423,NULL,Theorie,nadharia,d,NA,NA,NA,NA,sdfdsf,NA,1,NA,NA,NA,NA,NA,NA,NA,NA,NA,NA,NA,NA,NA,NA,NA,NA,NA,NA,NA
7f47d,task,flow.Sequence,3_0_1_0_4,NA,NA,completion,19217.814,1848057.4,1848056.5,1848072.776,1867290.59,1867292.5,2023-04-09T09:02:21Z,1867307.423,NULL,Theorie,nadharia,d,NA,NA,NA,NA,sdfdsf,NA,1,NA,NA,NA,NA,NA,NA,NA,NA,NA,NA,NA,NA,NA,NA,NA,NA,NA,NA,NA
7f47d,Deep Question,html.Page,3_0_1_0_5_0_0,NA,NA,form submission,9066.6770000239,1867292.7,1867290.59,1867307.423,1876374.1,1876374.2,2023-04-09T09:02:30Z,1876382.527,NULL,Schock,mshtuko,d,NA,NA,NA,usa,NA,NA,1,NA,NA,NA,NA,NA,NA,NA,NA,NA,NA,NA,NA,NA,NA,NA,NA,NA,NA,NA
7f47d,"""Richtig""-Screen",canvas.Screen,3_0_1_0_5_0_1,NA,NA,skipped,NA,1876376.3,NA,NA,1876374.1,1876376.5,2023-04-09T09:02:30Z,1876382.527,NULL,Schock,mshtuko,d,NA,NA,NA,NA,sdfdsf,NA,1,NA,NA,NA,NA,NA,NA,NA,NA,NA,NA,NA,NA,NA,NA,NA,NA,NA,NA,NA
7f47d,"""Falsch""-Screen",canvas.Screen,3_0_1_0_5_0_2,NA,NA,timeout,4996.3430000001,1876377.1,1876366.287,1876382.527,1881361.873,1881362.7,2023-04-09T09:02:35Z,1881378.87,NULL,Schock,mshtuko,d,NA,NA,NA,NA,sdfdsf,0,1,NA,NA,NA,NA,NA,NA,NA,NA,NA,NA,NA,NA,NA,NA,NA,NA,NA,NA,NA
7f47d,deep,flow.Sequence,3_0_1_0_5_0,NA,NA,completion,14054.45,1867292.6,1867290.59,1867307.423,1881361.873,1881363.2,2023-04-09T09:02:35Z,1881378.87,NULL,Schock,mshtuko,d,NA,NA,NA,NA,sdfdsf,NA,1,NA,NA,NA,NA,NA,NA,NA,NA,NA,NA,NA,NA,NA,NA,NA,NA,NA,NA,NA
7f47d,shallow,flow.Sequence,3_0_1_0_5_1,NA,NA,skipped,NA,1881363.3,NA,NA,1881361.873,1881363.5,2023-04-09T09:02:35Z,1881378.87,NULL,Schock,mshtuko,d,NA,NA,NA,NA,sdfdsf,NA,1,NA,NA,NA,NA,NA,NA,NA,NA,NA,NA,NA,NA,NA,NA,NA,NA,NA,NA,NA
7f47d,task,flow.Sequence,3_0_1_0_5,NA,NA,completion,14054.45,1867292.6,1867290.59,1867307.423,1881361.873,1881363.5,2023-04-09T09:02:35Z,1881378.87,NULL,Schock,mshtuko,d,NA,NA,NA,NA,sdfdsf,NA,1,NA,NA,NA,NA,NA,NA,NA,NA,NA,NA,NA,NA,NA,NA,NA,NA,NA,NA,NA
7f47d,deep,flow.Sequence,3_0_1_0_6_0,NA,NA,skipped,NA,1881363.6,NA,NA,1881361.873,1881363.6,2023-04-09T09:02:35Z,1881378.87,NULL,Auftrag,uagizaji,s,ghanima,kuzingatia,msukani,NA,sdfdsf,NA,1,NA,NA,NA,NA,NA,NA,NA,NA,NA,NA,NA,NA,NA,NA,NA,NA,NA,NA,NA
7f47d,Shallow Question,html.Page,3_0_1_0_6_1_0,NA,NA,form submission,6627.7300000237,1881363.7,1881361.873,1881378.87,1888006.6,1888006.8,2023-04-09T09:02:42Z,1888030.802,NULL,Auftrag,uagizaji,s,ghanima,kuzingatia,msukani,uagizaji,NA,NA,1,NA,NA,NA,NA,NA,NA,NA,NA,NA,NA,NA,NA,NA,NA,NA,NA,NA,NA,NA
7f47d,"""Richtig""-Screen",canvas.Screen,3_0_1_0_6_1_1,NA,NA,timeout,5004.851,1888008.8,1887989.831,1888030.802,1893019.463,1893020.3,2023-04-09T09:02:47Z,1893035.653,NULL,Auftrag,uagizaji,s,ghanima,kuzingatia,msukani,NA,sdfdsf,1,1,NA,NA,NA,NA,NA,NA,NA,NA,NA,NA,NA,NA,NA,NA,NA,NA,NA,NA,NA
7f47d,"""Falsch""-Screen",canvas.Screen,3_0_1_0_6_1_2,NA,NA,skipped,NA,1893025.2,NA,NA,1893019.463,1893025.6,2023-04-09T09:02:47Z,1893035.653,NULL,Auftrag,uagizaji,s,ghanima,kuzingatia,msukani,NA,sdfdsf,NA,1,NA,NA,NA,NA,NA,NA,NA,NA,NA,NA,NA,NA,NA,NA,NA,NA,NA,NA,NA
7f47d,shallow,flow.Sequence,3_0_1_0_6_1,NA,NA,completion,11640.593,1881363.6,1881361.873,1881378.87,1893019.463,1893025.8,2023-04-09T09:02:47Z,1893035.653,NULL,Auftrag,uagizaji,s,ghanima,kuzingatia,msukani,NA,sdfdsf,NA,1,NA,NA,NA,NA,NA,NA,NA,NA,NA,NA,NA,NA,NA,NA,NA,NA,NA,NA,NA
7f47d,task,flow.Sequence,3_0_1_0_6,NA,NA,completion,11640.593,1881363.6,1881361.873,1881378.87,1893019.463,1893026.1,2023-04-09T09:02:47Z,1893035.653,NULL,Auftrag,uagizaji,s,ghanima,kuzingatia,msukani,NA,sdfdsf,NA,1,NA,NA,NA,NA,NA,NA,NA,NA,NA,NA,NA,NA,NA,NA,NA,NA,NA,NA,NA
7f47d,Deep Question,html.Page,3_0_1_0_7_0_0,NA,NA,form submission,10604.046999988,1893026.3,1893019.463,1893035.653,1903639.7,1903639.9,2023-04-09T09:02:57Z,1903643.488,NULL,Schönheit,kirembo,d,NA,NA,NA,mahaarej,NA,NA,1,NA,NA,NA,NA,NA,NA,NA,NA,NA,NA,NA,NA,NA,NA,NA,NA,NA,NA,NA
7f47d,"""Richtig""-Screen",canvas.Screen,3_0_1_0_7_0_1,NA,NA,skipped,NA,1903641.9,NA,NA,1903639.7,1903642.1,2023-04-09T09:02:57Z,1903643.488,NULL,Schönheit,kirembo,d,NA,NA,NA,NA,sdfdsf,NA,1,NA,NA,NA,NA,NA,NA,NA,NA,NA,NA,NA,NA,NA,NA,NA,NA,NA,NA,NA
7f47d,"""Falsch""-Screen",canvas.Screen,3_0_1_0_7_0_2,NA,NA,timeout,4996.5150000001,1903642.8,1903627.412,1903643.488,1908623.149,1908624,2023-04-09T09:03:02Z,1908640.003,NULL,Schönheit,kirembo,d,NA,NA,NA,NA,sdfdsf,0,1,NA,NA,NA,NA,NA,NA,NA,NA,NA,NA,NA,NA,NA,NA,NA,NA,NA,NA,NA
7f47d,deep,flow.Sequence,3_0_1_0_7_0,NA,NA,completion,15587.496,1893026.2,1893019.463,1893035.653,1908623.149,1908624.4,2023-04-09T09:03:02Z,1908640.003,NULL,Schönheit,kirembo,d,NA,NA,NA,NA,sdfdsf,NA,1,NA,NA,NA,NA,NA,NA,NA,NA,NA,NA,NA,NA,NA,NA,NA,NA,NA,NA,NA
7f47d,shallow,flow.Sequence,3_0_1_0_7_1,NA,NA,skipped,NA,1908624.6,NA,NA,1908623.149,1908624.8,2023-04-09T09:03:02Z,1908640.003,NULL,Schönheit,kirembo,d,NA,NA,NA,NA,sdfdsf,NA,1,NA,NA,NA,NA,NA,NA,NA,NA,NA,NA,NA,NA,NA,NA,NA,NA,NA,NA,NA
7f47d,task,flow.Sequence,3_0_1_0_7,NA,NA,completion,15587.496,1893026.2,1893019.463,1893035.653,1908623.149,1908625,2023-04-09T09:03:02Z,1908640.003,NULL,Schönheit,kirembo,d,NA,NA,NA,NA,sdfdsf,NA,1,NA,NA,NA,NA,NA,NA,NA,NA,NA,NA,NA,NA,NA,NA,NA,NA,NA,NA,NA
7f47d,block,flow.Loop,3_0_1_0,NA,NA,completion,115888.294,1792719.1,1792718.412,1792734.855,1908623.149,1908625.3,2023-04-09T09:03:02Z,1908640.003,NULL,NA,NA,NA,NA,NA,NA,NA,sdfdsf,NA,1,NA,NA,NA,NA,NA,NA,NA,NA,NA,NA,NA,NA,NA,NA,NA,NA,NA,NA,NA
7f47d,weiter,canvas.Screen,3_0_1_1,sdf,keypress(Space),response,1400.8970000357,1908625.4,1908623.149,1908640.003,1910040.9,1910041.5,2023-04-09T09:03:04Z,1910088.824,NULL,NA,NA,NA,NA,NA,NA,NA,sdfdsf,NA,1,NA,NA,NA,NA,NA,NA,NA,NA,NA,NA,NA,NA,NA,NA,NA,NA,NA,NA,NA
7f47d,check continue,flow.Sequence,3_0_1,NA,NA,completion,117306.04500004,1792718.9,1792718.412,1792734.855,1910040.9,1910041.6,2023-04-09T09:03:04Z,1910088.824,NULL,NA,NA,NA,NA,NA,NA,NA,sdfdsf,NA,1,NA,NA,NA,NA,NA,NA,NA,NA,NA,NA,NA,NA,NA,NA,NA,NA,NA,NA,NA
7f47d,Deep Question,html.Page,3_0_2_0_0_0_0,NA,NA,form submission,10222.076000036,1910075.3,1910071.811,1910088.824,1920310.9,1920311.1,2023-04-09T09:03:14Z,1920313.144,NULL,Schönheit,kirembo,d,NA,NA,NA,kituki,NA,NA,2,NA,NA,NA,NA,NA,NA,NA,NA,NA,NA,NA,NA,NA,NA,NA,NA,NA,NA,NA
7f47d,"""Richtig""-Screen",canvas.Screen,3_0_2_0_0_0_1,NA,NA,skipped,NA,1920313.3,NA,NA,1920310.9,1920313.4,2023-04-09T09:03:14Z,1920313.144,NULL,Schönheit,kirembo,d,NA,NA,NA,NA,sdf,NA,2,NA,NA,NA,NA,NA,NA,NA,NA,NA,NA,NA,NA,NA,NA,NA,NA,NA,NA,NA
7f47d,"""Falsch""-Screen",canvas.Screen,3_0_2_0_0_0_2,NA,NA,timeout,4996.5009999999,1920314,1920296.845,1920313.144,1925292.603,1925293.5,2023-04-09T09:03:19Z,1925309.645,NULL,Schönheit,kirembo,d,NA,NA,NA,NA,sdf,0,2,NA,NA,NA,NA,NA,NA,NA,NA,NA,NA,NA,NA,NA,NA,NA,NA,NA,NA,NA
7f47d,deep,flow.Sequence,3_0_2_0_0_0,NA,NA,completion,15203.779,1910075.3,1910071.811,1910088.824,1925292.603,1925293.9,2023-04-09T09:03:19Z,1925309.645,NULL,Schönheit,kirembo,d,NA,NA,NA,NA,sdf,NA,2,NA,NA,NA,NA,NA,NA,NA,NA,NA,NA,NA,NA,NA,NA,NA,NA,NA,NA,NA
7f47d,shallow,flow.Sequence,3_0_2_0_0_1,NA,NA,skipped,NA,1925294.1,NA,NA,1925292.603,1925294.3,2023-04-09T09:03:19Z,1925309.645,NULL,Schönheit,kirembo,d,NA,NA,NA,NA,sdf,NA,2,NA,NA,NA,NA,NA,NA,NA,NA,NA,NA,NA,NA,NA,NA,NA,NA,NA,NA,NA
7f47d,task,flow.Sequence,3_0_2_0_0,NA,NA,completion,15203.779,1910075.3,1910071.811,1910088.824,1925292.603,1925294.5,2023-04-09T09:03:19Z,1925309.645,NULL,Schönheit,kirembo,d,NA,NA,NA,NA,sdf,NA,2,NA,NA,NA,NA,NA,NA,NA,NA,NA,NA,NA,NA,NA,NA,NA,NA,NA,NA,NA
7f47d,Deep Question,html.Page,3_0_2_0_1_0_0,NA,NA,form submission,19786.755000036,1925294.7,1925292.603,1925309.645,1945096.4,1945096.7,2023-04-09T09:03:39Z,1945109.834,NULL,Zufall,kikuti,d,NA,NA,NA,kirembo,NA,NA,2,NA,NA,NA,NA,NA,NA,NA,NA,NA,NA,NA,NA,NA,NA,NA,NA,NA,NA,NA
7f47d,"""Richtig""-Screen",canvas.Screen,3_0_2_0_1_0_1,NA,NA,skipped,NA,1945098.7,NA,NA,1945096.4,1945098.9,2023-04-09T09:03:39Z,1945109.834,NULL,Zufall,kikuti,d,NA,NA,NA,NA,sdf,NA,2,NA,NA,NA,NA,NA,NA,NA,NA,NA,NA,NA,NA,NA,NA,NA,NA,NA,NA,NA
7f47d,"""Falsch""-Screen",canvas.Screen,3_0_2_0_1_0_2,NA,NA,timeout,4996.2819999999,1945099.5,1945093.425,1945109.834,1950089.315,1950090,2023-04-09T09:03:44Z,1950106.116,NULL,Zufall,kikuti,d,NA,NA,NA,NA,sdf,0,2,NA,NA,NA,NA,NA,NA,NA,NA,NA,NA,NA,NA,NA,NA,NA,NA,NA,NA,NA
7f47d,deep,flow.Sequence,3_0_2_0_1_0,NA,NA,completion,24779.67,1925294.7,1925292.603,1925309.645,1950089.315,1950090.6,2023-04-09T09:03:44Z,1950106.116,NULL,Zufall,kikuti,d,NA,NA,NA,NA,sdf,NA,2,NA,NA,NA,NA,NA,NA,NA,NA,NA,NA,NA,NA,NA,NA,NA,NA,NA,NA,NA
7f47d,shallow,flow.Sequence,3_0_2_0_1_1,NA,NA,skipped,NA,1950090.7,NA,NA,1950089.315,1950090.9,2023-04-09T09:03:44Z,1950106.116,NULL,Zufall,kikuti,d,NA,NA,NA,NA,sdf,NA,2,NA,NA,NA,NA,NA,NA,NA,NA,NA,NA,NA,NA,NA,NA,NA,NA,NA,NA,NA
7f47d,task,flow.Sequence,3_0_2_0_1,NA,NA,completion,24779.67,1925294.6,1925292.603,1925309.645,1950089.315,1950091,2023-04-09T09:03:44Z,1950106.116,NULL,Zufall,kikuti,d,NA,NA,NA,NA,sdf,NA,2,NA,NA,NA,NA,NA,NA,NA,NA,NA,NA,NA,NA,NA,NA,NA,NA,NA,NA,NA
7f47d,deep,flow.Sequence,3_0_2_0_2_0,NA,NA,skipped,NA,1950091.3,NA,NA,1950089.315,1950091.5,2023-04-09T09:03:44Z,1950106.116,NULL,Hoffnung,matarajio,s,kutaalamika,uratibu,mvumbuzi,NA,sdf,NA,2,NA,NA,NA,NA,NA,NA,NA,NA,NA,NA,NA,NA,NA,NA,NA,NA,NA,NA,NA
7f47d,Shallow Question,html.Page,3_0_2_0_2_1_0,NA,NA,form submission,5461.684000012,1950091.7,1950089.315,1950106.116,1955567.8,1955568,2023-04-09T09:03:49Z,1955596.362,NULL,Hoffnung,matarajio,s,kutaalamika,uratibu,mvumbuzi,matarajio,NA,NA,2,NA,NA,NA,NA,NA,NA,NA,NA,NA,NA,NA,NA,NA,NA,NA,NA,NA,NA,NA
7f47d,"""Richtig""-Screen",canvas.Screen,3_0_2_0_2_1_1,NA,NA,timeout,5001.0080000001,1955569.9,1955551.492,1955596.362,1960580.698,1960581.2,2023-04-09T09:03:54Z,1960597.37,NULL,Hoffnung,matarajio,s,kutaalamika,uratibu,mvumbuzi,NA,sdf,1,2,NA,NA,NA,NA,NA,NA,NA,NA,NA,NA,NA,NA,NA,NA,NA,NA,NA,NA,NA
7f47d,"""Falsch""-Screen",canvas.Screen,3_0_2_0_2_1_2,NA,NA,skipped,NA,1960583.2,NA,NA,1960580.698,1960583.4,2023-04-09T09:03:54Z,1960597.37,NULL,Hoffnung,matarajio,s,kutaalamika,uratibu,mvumbuzi,NA,sdf,NA,2,NA,NA,NA,NA,NA,NA,NA,NA,NA,NA,NA,NA,NA,NA,NA,NA,NA,NA,NA
7f47d,shallow,flow.Sequence,3_0_2_0_2_1,NA,NA,completion,10474.582,1950091.6,1950089.315,1950106.116,1960580.698,1960583.5,2023-04-09T09:03:54Z,1960597.37,NULL,Hoffnung,matarajio,s,kutaalamika,uratibu,mvumbuzi,NA,sdf,NA,2,NA,NA,NA,NA,NA,NA,NA,NA,NA,NA,NA,NA,NA,NA,NA,NA,NA,NA,NA
7f47d,task,flow.Sequence,3_0_2_0_2,NA,NA,completion,10474.582,1950091.2,1950089.315,1950106.116,1960580.698,1960583.6,2023-04-09T09:03:54Z,1960597.37,NULL,Hoffnung,matarajio,s,kutaalamika,uratibu,mvumbuzi,NA,sdf,NA,2,NA,NA,NA,NA,NA,NA,NA,NA,NA,NA,NA,NA,NA,NA,NA,NA,NA,NA,NA
7f47d,Deep Question,html.Page,3_0_2_0_3_0_0,NA,NA,form submission,11274.030000036,1960583.7,1960580.698,1960597.37,1971871.4,1971871.6,2023-04-09T09:04:06Z,1971887.512,NULL,Schock,mshtuko,d,NA,NA,NA,kir,NA,NA,2,NA,NA,NA,NA,NA,NA,NA,NA,NA,NA,NA,NA,NA,NA,NA,NA,NA,NA,NA
7f47d,"""Richtig""-Screen",canvas.Screen,3_0_2_0_3_0_1,NA,NA,skipped,NA,1971873.8,NA,NA,1971871.4,1971873.9,2023-04-09T09:04:06Z,1971887.512,NULL,Schock,mshtuko,d,NA,NA,NA,NA,sdf,NA,2,NA,NA,NA,NA,NA,NA,NA,NA,NA,NA,NA,NA,NA,NA,NA,NA,NA,NA,NA
7f47d,"""Falsch""-Screen",canvas.Screen,3_0_2_0_3_0_2,NA,NA,timeout,4996.4109999998,1971874.5,1971854.631,1971887.512,1976867.345,1976868.2,2023-04-09T09:04:11Z,1976883.923,NULL,Schock,mshtuko,d,NA,NA,NA,NA,sdf,0,2,NA,NA,NA,NA,NA,NA,NA,NA,NA,NA,NA,NA,NA,NA,NA,NA,NA,NA,NA
7f47d,deep,flow.Sequence,3_0_2_0_3_0,NA,NA,completion,16269.975,1960583.7,1960580.698,1960597.37,1976867.345,1976868.6,2023-04-09T09:04:11Z,1976883.923,NULL,Schock,mshtuko,d,NA,NA,NA,NA,sdf,NA,2,NA,NA,NA,NA,NA,NA,NA,NA,NA,NA,NA,NA,NA,NA,NA,NA,NA,NA,NA
7f47d,shallow,flow.Sequence,3_0_2_0_3_1,NA,NA,skipped,NA,1976868.7,NA,NA,1976867.345,1976868.9,2023-04-09T09:04:11Z,1976883.923,NULL,Schock,mshtuko,d,NA,NA,NA,NA,sdf,NA,2,NA,NA,NA,NA,NA,NA,NA,NA,NA,NA,NA,NA,NA,NA,NA,NA,NA,NA,NA
7f47d,task,flow.Sequence,3_0_2_0_3,NA,NA,completion,16269.975,1960583.7,1960580.698,1960597.37,1976867.345,1976869.2,2023-04-09T09:04:11Z,1976883.923,NULL,Schock,mshtuko,d,NA,NA,NA,NA,sdf,NA,2,NA,NA,NA,NA,NA,NA,NA,NA,NA,NA,NA,NA,NA,NA,NA,NA,NA,NA,NA
7f47d,deep,flow.Sequence,3_0_2_0_4_0,NA,NA,skipped,NA,1976869.3,NA,NA,1976867.345,1976869.5,2023-04-09T09:04:11Z,1976883.923,NULL,Verpackung,ufungaji,s,uhusiano,upimaji,uchunguzi,NA,sdf,NA,2,NA,NA,NA,NA,NA,NA,NA,NA,NA,NA,NA,NA,NA,NA,NA,NA,NA,NA,NA
7f47d,Shallow Question,html.Page,3_0_2_0_4_1_0,NA,NA,form submission,5613.4770000358,1976869.6,1976867.345,1976883.923,1982497.4,1982497.6,2023-04-09T09:04:16Z,1982512.091,NULL,Verpackung,ufungaji,s,uhusiano,upimaji,uchunguzi,ufungaji,NA,NA,2,NA,NA,NA,NA,NA,NA,NA,NA,NA,NA,NA,NA,NA,NA,NA,NA,NA,NA,NA
7f47d,"""Richtig""-Screen",canvas.Screen,3_0_2_0_4_1_1,NA,NA,timeout,4996.0079999999,1982499.5,1982495.84,1982512.091,1987491.684,1987492.6,2023-04-09T09:04:21Z,1987508.099,NULL,Verpackung,ufungaji,s,uhusiano,upimaji,uchunguzi,NA,sdf,1,2,NA,NA,NA,NA,NA,NA,NA,NA,NA,NA,NA,NA,NA,NA,NA,NA,NA,NA,NA
7f47d,"""Falsch""-Screen",canvas.Screen,3_0_2_0_4_1_2,NA,NA,skipped,NA,1987498,NA,NA,1987491.684,1987498.4,2023-04-09T09:04:21Z,1987508.099,NULL,Verpackung,ufungaji,s,uhusiano,upimaji,uchunguzi,NA,sdf,NA,2,NA,NA,NA,NA,NA,NA,NA,NA,NA,NA,NA,NA,NA,NA,NA,NA,NA,NA,NA
7f47d,shallow,flow.Sequence,3_0_2_0_4_1,NA,NA,completion,10607.761,1976869.6,1976867.345,1976883.923,1987491.684,1987498.7,2023-04-09T09:04:21Z,1987508.099,NULL,Verpackung,ufungaji,s,uhusiano,upimaji,uchunguzi,NA,sdf,NA,2,NA,NA,NA,NA,NA,NA,NA,NA,NA,NA,NA,NA,NA,NA,NA,NA,NA,NA,NA
7f47d,task,flow.Sequence,3_0_2_0_4,NA,NA,completion,10607.761,1976869.3,1976867.345,1976883.923,1987491.684,1987499,2023-04-09T09:04:21Z,1987508.099,NULL,Verpackung,ufungaji,s,uhusiano,upimaji,uchunguzi,NA,sdf,NA,2,NA,NA,NA,NA,NA,NA,NA,NA,NA,NA,NA,NA,NA,NA,NA,NA,NA,NA,NA
7f47d,deep,flow.Sequence,3_0_2_0_5_0,NA,NA,skipped,NA,1987499.2,NA,NA,1987491.684,1987499.3,2023-04-09T09:04:21Z,1987508.099,NULL,Auftrag,uagizaji,s,ghanima,kuzingatia,msukani,NA,sdf,NA,2,NA,NA,NA,NA,NA,NA,NA,NA,NA,NA,NA,NA,NA,NA,NA,NA,NA,NA,NA
7f47d,Shallow Question,html.Page,3_0_2_0_5_1_0,NA,NA,form submission,5479.1009999881,1987499.5,1987491.684,1987508.099,1992987.2,1992987.4,2023-04-09T09:04:27Z,1993019.189,NULL,Auftrag,uagizaji,s,ghanima,kuzingatia,msukani,uagizaji,NA,NA,2,NA,NA,NA,NA,NA,NA,NA,NA,NA,NA,NA,NA,NA,NA,NA,NA,NA,NA,NA
7f47d,"""Richtig""-Screen",canvas.Screen,3_0_2_0_5_1_1,NA,NA,timeout,4996.878,1992989.1,1992970.444,1993019.189,1997999.521,1998000.4,2023-04-09T09:04:32Z,1998016.067,NULL,Auftrag,uagizaji,s,ghanima,kuzingatia,msukani,NA,sdf,1,2,NA,NA,NA,NA,NA,NA,NA,NA,NA,NA,NA,NA,NA,NA,NA,NA,NA,NA,NA
7f47d,"""Falsch""-Screen",canvas.Screen,3_0_2_0_5_1_2,NA,NA,skipped,NA,1998005.9,NA,NA,1997999.521,1998006.2,2023-04-09T09:04:32Z,1998016.067,NULL,Auftrag,uagizaji,s,ghanima,kuzingatia,msukani,NA,sdf,NA,2,NA,NA,NA,NA,NA,NA,NA,NA,NA,NA,NA,NA,NA,NA,NA,NA,NA,NA,NA
7f47d,shallow,flow.Sequence,3_0_2_0_5_1,NA,NA,completion,10491.422,1987499.5,1987491.684,1987508.099,1997999.521,1998006.5,2023-04-09T09:04:32Z,1998016.067,NULL,Auftrag,uagizaji,s,ghanima,kuzingatia,msukani,NA,sdf,NA,2,NA,NA,NA,NA,NA,NA,NA,NA,NA,NA,NA,NA,NA,NA,NA,NA,NA,NA,NA
7f47d,task,flow.Sequence,3_0_2_0_5,NA,NA,completion,10491.422,1987499.2,1987491.684,1987508.099,1997999.521,1998006.7,2023-04-09T09:04:32Z,1998016.067,NULL,Auftrag,uagizaji,s,ghanima,kuzingatia,msukani,NA,sdf,NA,2,NA,NA,NA,NA,NA,NA,NA,NA,NA,NA,NA,NA,NA,NA,NA,NA,NA,NA,NA
7f47d,deep,flow.Sequence,3_0_2_0_6_0,NA,NA,skipped,NA,1998006.9,NA,NA,1997999.521,1998007.1,2023-04-09T09:04:32Z,1998016.067,NULL,Wettbewerb,ushindani,s,mapendezi,kichocheo,ubaguzi,NA,sdf,NA,2,NA,NA,NA,NA,NA,NA,NA,NA,NA,NA,NA,NA,NA,NA,NA,NA,NA,NA,NA
7f47d,Shallow Question,html.Page,3_0_2_0_6_1_0,NA,NA,form submission,12701.132999988,1998007.3,1997999.521,1998016.067,2010717.2,2010717.4,2023-04-09T09:04:44Z,2010722.316,NULL,Wettbewerb,ushindani,s,mapendezi,kichocheo,ubaguzi,mapendezi,NA,NA,2,NA,NA,NA,NA,NA,NA,NA,NA,NA,NA,NA,NA,NA,NA,NA,NA,NA,NA,NA
7f47d,"""Richtig""-Screen",canvas.Screen,3_0_2_0_6_1_1,NA,NA,skipped,NA,2010719.3,NA,NA,2010717.2,2010719.4,2023-04-09T09:04:44Z,2010722.316,NULL,Wettbewerb,ushindani,s,mapendezi,kichocheo,ubaguzi,NA,sdf,NA,2,NA,NA,NA,NA,NA,NA,NA,NA,NA,NA,NA,NA,NA,NA,NA,NA,NA,NA,NA
7f47d,"""Falsch""-Screen",canvas.Screen,3_0_2_0_6_1_2,NA,NA,timeout,4996.4309999999,2010719.9,2010706.201,2010722.316,2015702.194,2015702.8,2023-04-09T09:04:49Z,2015718.747,NULL,Wettbewerb,ushindani,s,mapendezi,kichocheo,ubaguzi,NA,sdf,0,2,NA,NA,NA,NA,NA,NA,NA,NA,NA,NA,NA,NA,NA,NA,NA,NA,NA,NA,NA
7f47d,shallow,flow.Sequence,3_0_2_0_6_1,NA,NA,completion,17686.127,1998007.3,1997999.521,1998016.067,2015702.194,2015703.2,2023-04-09T09:04:49Z,2015718.747,NULL,Wettbewerb,ushindani,s,mapendezi,kichocheo,ubaguzi,NA,sdf,NA,2,NA,NA,NA,NA,NA,NA,NA,NA,NA,NA,NA,NA,NA,NA,NA,NA,NA,NA,NA
7f47d,task,flow.Sequence,3_0_2_0_6,NA,NA,completion,17686.127,1998006.8,1997999.521,1998016.067,2015702.194,2015703.3,2023-04-09T09:04:49Z,2015718.747,NULL,Wettbewerb,ushindani,s,mapendezi,kichocheo,ubaguzi,NA,sdf,NA,2,NA,NA,NA,NA,NA,NA,NA,NA,NA,NA,NA,NA,NA,NA,NA,NA,NA,NA,NA
7f47d,Deep Question,html.Page,3_0_2_0_7_0_0,NA,NA,form submission,6087.0530000119,2015703.6,2015702.194,2015718.747,2021805.8,2021805.9,2023-04-09T09:04:56Z,2021813.164,NULL,Theorie,nadharia,d,NA,NA,NA,kirembo,NA,NA,2,NA,NA,NA,NA,NA,NA,NA,NA,NA,NA,NA,NA,NA,NA,NA,NA,NA,NA,NA
7f47d,"""Richtig""-Screen",canvas.Screen,3_0_2_0_7_0_1,NA,NA,skipped,NA,2021808.1,NA,NA,2021805.8,2021808.2,2023-04-09T09:04:56Z,2021813.164,NULL,Theorie,nadharia,d,NA,NA,NA,NA,sdf,NA,2,NA,NA,NA,NA,NA,NA,NA,NA,NA,NA,NA,NA,NA,NA,NA,NA,NA,NA,NA
7f47d,"""Falsch""-Screen",canvas.Screen,3_0_2_0_7_0_2,NA,NA,timeout,4995.9539999999,2021808.8,2021797.333,2021813.164,2026792.674,2026793.6,2023-04-09T09:05:01Z,2026809.118,NULL,Theorie,nadharia,d,NA,NA,NA,NA,sdf,0,2,NA,NA,NA,NA,NA,NA,NA,NA,NA,NA,NA,NA,NA,NA,NA,NA,NA,NA,NA
7f47d,deep,flow.Sequence,3_0_2_0_7_0,NA,NA,completion,11073.927,2015703.5,2015702.194,2015718.747,2026792.674,2026794.1,2023-04-09T09:05:01Z,2026809.118,NULL,Theorie,nadharia,d,NA,NA,NA,NA,sdf,NA,2,NA,NA,NA,NA,NA,NA,NA,NA,NA,NA,NA,NA,NA,NA,NA,NA,NA,NA,NA
7f47d,shallow,flow.Sequence,3_0_2_0_7_1,NA,NA,skipped,NA,2026794.3,NA,NA,2026792.674,2026794.5,2023-04-09T09:05:01Z,2026809.118,NULL,Theorie,nadharia,d,NA,NA,NA,NA,sdf,NA,2,NA,NA,NA,NA,NA,NA,NA,NA,NA,NA,NA,NA,NA,NA,NA,NA,NA,NA,NA
7f47d,task,flow.Sequence,3_0_2_0_7,NA,NA,completion,11073.927,2015703.5,2015702.194,2015718.747,2026792.674,2026794.7,2023-04-09T09:05:01Z,2026809.118,NULL,Theorie,nadharia,d,NA,NA,NA,NA,sdf,NA,2,NA,NA,NA,NA,NA,NA,NA,NA,NA,NA,NA,NA,NA,NA,NA,NA,NA,NA,NA
7f47d,block,flow.Loop,3_0_2_0,NA,NA,completion,116703.85,1910075.2,1910071.811,1910088.824,2026792.674,2026794.9,2023-04-09T09:05:01Z,2026809.118,NULL,NA,NA,NA,NA,NA,NA,NA,sdf,NA,2,NA,NA,NA,NA,NA,NA,NA,NA,NA,NA,NA,NA,NA,NA,NA,NA,NA,NA,NA
7f47d,weiter,canvas.Screen,3_0_2_1,sdf,keypress(Space),response,1339.882,2026795.1,2026792.674,2026809.118,2028149,2028150,2023-04-09T09:05:02Z,2028191.824,NULL,NA,NA,NA,NA,NA,NA,NA,sdf,NA,2,NA,NA,NA,NA,NA,NA,NA,NA,NA,NA,NA,NA,NA,NA,NA,NA,NA,NA,NA
7f47d,check continue,flow.Sequence,3_0_2,NA,NA,completion,118060.176,1910075.2,1910071.811,1910088.824,2028149,2028150.4,2023-04-09T09:05:02Z,2028191.824,NULL,NA,NA,NA,NA,NA,NA,NA,sdf,NA,2,NA,NA,NA,NA,NA,NA,NA,NA,NA,NA,NA,NA,NA,NA,NA,NA,NA,NA,NA
7f47d,deep,flow.Sequence,3_0_3_0_0_0,NA,NA,skipped,NA,2028181.7,NA,NA,2028149,2028181.8,2023-04-09T09:05:02Z,2028191.824,NULL,Auftrag,uagizaji,s,ghanima,kuzingatia,msukani,NA,qt,NA,3,NA,NA,NA,NA,NA,NA,NA,NA,NA,NA,NA,NA,NA,NA,NA,NA,NA,NA,NA
7f47d,Shallow Question,html.Page,3_0_3_0_0_1_0,NA,NA,form submission,3897.3759999881,2028181.8,2028174.555,2028191.824,2032089.2,2032089.3,2023-04-09T09:05:06Z,2032105.148,NULL,Auftrag,uagizaji,s,ghanima,kuzingatia,msukani,uagizaji,NA,NA,3,NA,NA,NA,NA,NA,NA,NA,NA,NA,NA,NA,NA,NA,NA,NA,NA,NA,NA,NA
7f47d,"""Richtig""-Screen",canvas.Screen,3_0_3_0_0_1_1,NA,NA,timeout,4995.9639999999,2032091.2,2032088.156,2032105.148,2037084.067,2037085,2023-04-09T09:05:11Z,2037101.112,NULL,Auftrag,uagizaji,s,ghanima,kuzingatia,msukani,NA,qt,1,3,NA,NA,NA,NA,NA,NA,NA,NA,NA,NA,NA,NA,NA,NA,NA,NA,NA,NA,NA
7f47d,"""Falsch""-Screen",canvas.Screen,3_0_3_0_0_1_2,NA,NA,skipped,NA,2037089.2,NA,NA,2037084.067,2037089.3,2023-04-09T09:05:11Z,2037101.112,NULL,Auftrag,uagizaji,s,ghanima,kuzingatia,msukani,NA,qt,NA,3,NA,NA,NA,NA,NA,NA,NA,NA,NA,NA,NA,NA,NA,NA,NA,NA,NA,NA,NA
7f47d,shallow,flow.Sequence,3_0_3_0_0_1,NA,NA,completion,8892.243,2028181.8,2028174.555,2028191.824,2037084.067,2037089.5,2023-04-09T09:05:11Z,2037101.112,NULL,Auftrag,uagizaji,s,ghanima,kuzingatia,msukani,NA,qt,NA,3,NA,NA,NA,NA,NA,NA,NA,NA,NA,NA,NA,NA,NA,NA,NA,NA,NA,NA,NA
7f47d,task,flow.Sequence,3_0_3_0_0,NA,NA,completion,8892.243,2028181.7,2028174.555,2028191.824,2037084.067,2037089.6,2023-04-09T09:05:11Z,2037101.112,NULL,Auftrag,uagizaji,s,ghanima,kuzingatia,msukani,NA,qt,NA,3,NA,NA,NA,NA,NA,NA,NA,NA,NA,NA,NA,NA,NA,NA,NA,NA,NA,NA,NA
7f47d,deep,flow.Sequence,3_0_3_0_1_0,NA,NA,skipped,NA,2037089.6,NA,NA,2037084.067,2037089.7,2023-04-09T09:05:11Z,2037101.112,NULL,Verpackung,ufungaji,s,uhusiano,upimaji,uchunguzi,NA,qt,NA,3,NA,NA,NA,NA,NA,NA,NA,NA,NA,NA,NA,NA,NA,NA,NA,NA,NA,NA,NA
7f47d,Shallow Question,html.Page,3_0_3_0_1_1_0,NA,NA,form submission,10346.788000036,2037089.7,2037084.067,2037101.112,2047447.9,2047448.1,2023-04-09T09:05:21Z,2047459.021,NULL,Verpackung,ufungaji,s,uhusiano,upimaji,uchunguzi,upimaji,NA,NA,3,NA,NA,NA,NA,NA,NA,NA,NA,NA,NA,NA,NA,NA,NA,NA,NA,NA,NA,NA
7f47d,"""Richtig""-Screen",canvas.Screen,3_0_3_0_1_1_1,NA,NA,skipped,NA,2047450,NA,NA,2047447.9,2047450.1,2023-04-09T09:05:21Z,2047459.021,NULL,Verpackung,ufungaji,s,uhusiano,upimaji,uchunguzi,NA,qt,NA,3,NA,NA,NA,NA,NA,NA,NA,NA,NA,NA,NA,NA,NA,NA,NA,NA,NA,NA,NA
7f47d,"""Falsch""-Screen",canvas.Screen,3_0_3_0_1_1_2,NA,NA,timeout,4995.7990000001,2047450.6,2047442.151,2047459.021,2052438.56,2052439.6,2023-04-09T09:05:26Z,2052454.82,NULL,Verpackung,ufungaji,s,uhusiano,upimaji,uchunguzi,NA,qt,0,3,NA,NA,NA,NA,NA,NA,NA,NA,NA,NA,NA,NA,NA,NA,NA,NA,NA,NA,NA
7f47d,shallow,flow.Sequence,3_0_3_0_1_1,NA,NA,completion,15337.448,2037089.7,2037084.067,2037101.112,2052438.56,2052440.1,2023-04-09T09:05:26Z,2052454.82,NULL,Verpackung,ufungaji,s,uhusiano,upimaji,uchunguzi,NA,qt,NA,3,NA,NA,NA,NA,NA,NA,NA,NA,NA,NA,NA,NA,NA,NA,NA,NA,NA,NA,NA
7f47d,task,flow.Sequence,3_0_3_0_1,NA,NA,completion,15337.448,2037089.6,2037084.067,2037101.112,2052438.56,2052440.4,2023-04-09T09:05:26Z,2052454.82,NULL,Verpackung,ufungaji,s,uhusiano,upimaji,uchunguzi,NA,qt,NA,3,NA,NA,NA,NA,NA,NA,NA,NA,NA,NA,NA,NA,NA,NA,NA,NA,NA,NA,NA
7f47d,deep,flow.Sequence,3_0_3_0_2_0,NA,NA,skipped,NA,2052440.6,NA,NA,2052438.56,2052440.7,2023-04-09T09:05:26Z,2052454.82,NULL,Hoffnung,matarajio,s,kutaalamika,uratibu,mvumbuzi,NA,qt,NA,3,NA,NA,NA,NA,NA,NA,NA,NA,NA,NA,NA,NA,NA,NA,NA,NA,NA,NA,NA
7f47d,Shallow Question,html.Page,3_0_3_0_2_1_0,NA,NA,form submission,4569.1799999999,2052441,2052438.56,2052454.82,2057024,2057024.2,2023-04-09T09:05:31Z,2057034.712,NULL,Hoffnung,matarajio,s,kutaalamika,uratibu,mvumbuzi,matarajio,NA,NA,3,NA,NA,NA,NA,NA,NA,NA,NA,NA,NA,NA,NA,NA,NA,NA,NA,NA,NA,NA
7f47d,"""Richtig""-Screen",canvas.Screen,3_0_3_0_2_1_1,NA,NA,timeout,4995.4669999999,2057026,2057017.641,2057034.712,2062014.022,2062014.9,2023-04-09T09:05:36Z,2062030.179,NULL,Hoffnung,matarajio,s,kutaalamika,uratibu,mvumbuzi,NA,qt,1,3,NA,NA,NA,NA,NA,NA,NA,NA,NA,NA,NA,NA,NA,NA,NA,NA,NA,NA,NA
7f47d,"""Falsch""-Screen",canvas.Screen,3_0_3_0_2_1_2,NA,NA,skipped,NA,2062020,NA,NA,2062014.022,2062020.1,2023-04-09T09:05:36Z,2062030.179,NULL,Hoffnung,matarajio,s,kutaalamika,uratibu,mvumbuzi,NA,qt,NA,3,NA,NA,NA,NA,NA,NA,NA,NA,NA,NA,NA,NA,NA,NA,NA,NA,NA,NA,NA
7f47d,shallow,flow.Sequence,3_0_3_0_2_1,NA,NA,completion,9559.202,2052440.9,2052438.56,2052454.82,2062014.022,2062020.3,2023-04-09T09:05:36Z,2062030.179,NULL,Hoffnung,matarajio,s,kutaalamika,uratibu,mvumbuzi,NA,qt,NA,3,NA,NA,NA,NA,NA,NA,NA,NA,NA,NA,NA,NA,NA,NA,NA,NA,NA,NA,NA
7f47d,task,flow.Sequence,3_0_3_0_2,NA,NA,completion,9559.202,2052440.6,2052438.56,2052454.82,2062014.022,2062020.3,2023-04-09T09:05:36Z,2062030.179,NULL,Hoffnung,matarajio,s,kutaalamika,uratibu,mvumbuzi,NA,qt,NA,3,NA,NA,NA,NA,NA,NA,NA,NA,NA,NA,NA,NA,NA,NA,NA,NA,NA,NA,NA
7f47d,deep,flow.Sequence,3_0_3_0_3_0,NA,NA,skipped,NA,2062020.4,NA,NA,2062014.022,2062020.4,2023-04-09T09:05:36Z,2062030.179,NULL,Wettbewerb,ushindani,s,mapendezi,kichocheo,ubaguzi,NA,qt,NA,3,NA,NA,NA,NA,NA,NA,NA,NA,NA,NA,NA,NA,NA,NA,NA,NA,NA,NA,NA
7f47d,Shallow Question,html.Page,3_0_3_0_3_1_0,NA,NA,form submission,7102.1210000119,2062020.5,2062014.022,2062030.179,2069132.3,2069132.4,2023-04-09T09:05:43Z,2069141.335,NULL,Wettbewerb,ushindani,s,mapendezi,kichocheo,ubaguzi,ushindani,NA,NA,3,NA,NA,NA,NA,NA,NA,NA,NA,NA,NA,NA,NA,NA,NA,NA,NA,NA,NA,NA
7f47d,"""Richtig""-Screen",canvas.Screen,3_0_3_0_3_1_1,NA,NA,timeout,4995.733,2069134.4,2069124.918,2069141.335,2074120.446,2074121.5,2023-04-09T09:05:48Z,2074137.068,NULL,Wettbewerb,ushindani,s,mapendezi,kichocheo,ubaguzi,NA,qt,1,3,NA,NA,NA,NA,NA,NA,NA,NA,NA,NA,NA,NA,NA,NA,NA,NA,NA,NA,NA
7f47d,"""Falsch""-Screen",canvas.Screen,3_0_3_0_3_1_2,NA,NA,skipped,NA,2074126,NA,NA,2074120.446,2074126.1,2023-04-09T09:05:48Z,2074137.068,NULL,Wettbewerb,ushindani,s,mapendezi,kichocheo,ubaguzi,NA,qt,NA,3,NA,NA,NA,NA,NA,NA,NA,NA,NA,NA,NA,NA,NA,NA,NA,NA,NA,NA,NA
7f47d,shallow,flow.Sequence,3_0_3_0_3_1,NA,NA,completion,12090.267,2062020.5,2062014.022,2062030.179,2074120.446,2074126.2,2023-04-09T09:05:48Z,2074137.068,NULL,Wettbewerb,ushindani,s,mapendezi,kichocheo,ubaguzi,NA,qt,NA,3,NA,NA,NA,NA,NA,NA,NA,NA,NA,NA,NA,NA,NA,NA,NA,NA,NA,NA,NA
7f47d,task,flow.Sequence,3_0_3_0_3,NA,NA,completion,12090.267,2062020.3,2062014.022,2062030.179,2074120.446,2074126.3,2023-04-09T09:05:48Z,2074137.068,NULL,Wettbewerb,ushindani,s,mapendezi,kichocheo,ubaguzi,NA,qt,NA,3,NA,NA,NA,NA,NA,NA,NA,NA,NA,NA,NA,NA,NA,NA,NA,NA,NA,NA,NA
7f47d,Deep Question,html.Page,3_0_3_0_4_0_0,NA,NA,form submission,21143.732000012,2074126.4,2074120.446,2074137.068,2095280.8,2095280.9,2023-04-09T09:06:09Z,2095286.209,NULL,Schönheit,kirembo,d,NA,NA,NA,kirmbo,NA,NA,3,NA,NA,NA,NA,NA,NA,NA,NA,NA,NA,NA,NA,NA,NA,NA,NA,NA,NA,NA
7f47d,"""Richtig""-Screen",canvas.Screen,3_0_3_0_4_0_1,NA,NA,skipped,NA,2095282.6,NA,NA,2095280.8,2095282.7,2023-04-09T09:06:09Z,2095286.209,NULL,Schönheit,kirembo,d,NA,NA,NA,NA,qt,NA,3,NA,NA,NA,NA,NA,NA,NA,NA,NA,NA,NA,NA,NA,NA,NA,NA,NA,NA,NA
7f47d,"""Falsch""-Screen",canvas.Screen,3_0_3_0_4_0_2,NA,NA,timeout,4996.3409999998,2095283.5,2095270.445,2095286.209,2100265.492,2100267.3,2023-04-09T09:06:14Z,2100282.55,NULL,Schönheit,kirembo,d,NA,NA,NA,NA,qt,0,3,NA,NA,NA,NA,NA,NA,NA,NA,NA,NA,NA,NA,NA,NA,NA,NA,NA,NA,NA
7f47d,deep,flow.Sequence,3_0_3_0_4_0,NA,NA,completion,26128.424,2074126.3,2074120.446,2074137.068,2100265.492,2100267.7,2023-04-09T09:06:14Z,2100282.55,NULL,Schönheit,kirembo,d,NA,NA,NA,NA,qt,NA,3,NA,NA,NA,NA,NA,NA,NA,NA,NA,NA,NA,NA,NA,NA,NA,NA,NA,NA,NA
7f47d,shallow,flow.Sequence,3_0_3_0_4_1,NA,NA,skipped,NA,2100267.9,NA,NA,2100265.492,2100268.1,2023-04-09T09:06:14Z,2100282.55,NULL,Schönheit,kirembo,d,NA,NA,NA,NA,qt,NA,3,NA,NA,NA,NA,NA,NA,NA,NA,NA,NA,NA,NA,NA,NA,NA,NA,NA,NA,NA
7f47d,task,flow.Sequence,3_0_3_0_4,NA,NA,completion,26128.424,2074126.3,2074120.446,2074137.068,2100265.492,2100268.3,2023-04-09T09:06:14Z,2100282.55,NULL,Schönheit,kirembo,d,NA,NA,NA,NA,qt,NA,3,NA,NA,NA,NA,NA,NA,NA,NA,NA,NA,NA,NA,NA,NA,NA,NA,NA,NA,NA
7f47d,Deep Question,html.Page,3_0_3_0_5_0_0,NA,NA,form submission,16834.850000036,2100268.6,2100265.492,2100282.55,2117117.4,2117117.6,2023-04-09T09:06:31Z,2117150.266,NULL,Schock,mshtuko,d,NA,NA,NA,kituki,NA,NA,3,NA,NA,NA,NA,NA,NA,NA,NA,NA,NA,NA,NA,NA,NA,NA,NA,NA,NA,NA
7f47d,"""Richtig""-Screen",canvas.Screen,3_0_3_0_5_0_1,NA,NA,skipped,NA,2117119.9,NA,NA,2117117.4,2117120,2023-04-09T09:06:31Z,2117150.266,NULL,Schock,mshtuko,d,NA,NA,NA,NA,qt,NA,3,NA,NA,NA,NA,NA,NA,NA,NA,NA,NA,NA,NA,NA,NA,NA,NA,NA,NA,NA
7f47d,"""Falsch""-Screen",canvas.Screen,3_0_3_0_5_0_2,NA,NA,timeout,4997.335,2117120.5,2117102.243,2117150.266,2122130.914,2122132.4,2023-04-09T09:06:36Z,2122147.601,NULL,Schock,mshtuko,d,NA,NA,NA,NA,qt,0,3,NA,NA,NA,NA,NA,NA,NA,NA,NA,NA,NA,NA,NA,NA,NA,NA,NA,NA,NA
7f47d,deep,flow.Sequence,3_0_3_0_5_0,NA,NA,completion,21848.364,2100268.6,2100265.492,2100282.55,2122130.914,2122133,2023-04-09T09:06:36Z,2122147.601,NULL,Schock,mshtuko,d,NA,NA,NA,NA,qt,NA,3,NA,NA,NA,NA,NA,NA,NA,NA,NA,NA,NA,NA,NA,NA,NA,NA,NA,NA,NA
7f47d,shallow,flow.Sequence,3_0_3_0_5_1,NA,NA,skipped,NA,2122133.3,NA,NA,2122130.914,2122133.6,2023-04-09T09:06:36Z,2122147.601,NULL,Schock,mshtuko,d,NA,NA,NA,NA,qt,NA,3,NA,NA,NA,NA,NA,NA,NA,NA,NA,NA,NA,NA,NA,NA,NA,NA,NA,NA,NA
7f47d,task,flow.Sequence,3_0_3_0_5,NA,NA,completion,21848.364,2100268.5,2100265.492,2100282.55,2122130.914,2122134,2023-04-09T09:06:36Z,2122147.601,NULL,Schock,mshtuko,d,NA,NA,NA,NA,qt,NA,3,NA,NA,NA,NA,NA,NA,NA,NA,NA,NA,NA,NA,NA,NA,NA,NA,NA,NA,NA
7f47d,Deep Question,html.Page,3_0_3_0_6_0_0,NA,NA,form submission,14388.999000024,2122134.5,2122130.914,2122147.601,2136536.6,2136536.7,2023-04-09T09:06:50Z,2136552.362,NULL,Theorie,nadharia,d,NA,NA,NA,kituki,NA,NA,3,NA,NA,NA,NA,NA,NA,NA,NA,NA,NA,NA,NA,NA,NA,NA,NA,NA,NA,NA
7f47d,"""Richtig""-Screen",canvas.Screen,3_0_3_0_6_0_1,NA,NA,skipped,NA,2136538.6,NA,NA,2136536.6,2136538.7,2023-04-09T09:06:50Z,2136552.362,NULL,Theorie,nadharia,d,NA,NA,NA,NA,qt,NA,3,NA,NA,NA,NA,NA,NA,NA,NA,NA,NA,NA,NA,NA,NA,NA,NA,NA,NA,NA
7f47d,"""Falsch""-Screen",canvas.Screen,3_0_3_0_6_0_2,NA,NA,timeout,4996.3259999999,2136539.3,2136535.749,2136552.362,2141531.897,2141532.9,2023-04-09T09:06:55Z,2141548.688,NULL,Theorie,nadharia,d,NA,NA,NA,NA,qt,0,3,NA,NA,NA,NA,NA,NA,NA,NA,NA,NA,NA,NA,NA,NA,NA,NA,NA,NA,NA
7f47d,deep,flow.Sequence,3_0_3_0_6_0,NA,NA,completion,19384.296,2122134.4,2122130.914,2122147.601,2141531.897,2141533.4,2023-04-09T09:06:55Z,2141548.688,NULL,Theorie,nadharia,d,NA,NA,NA,NA,qt,NA,3,NA,NA,NA,NA,NA,NA,NA,NA,NA,NA,NA,NA,NA,NA,NA,NA,NA,NA,NA
7f47d,shallow,flow.Sequence,3_0_3_0_6_1,NA,NA,skipped,NA,2141533.6,NA,NA,2141531.897,2141533.8,2023-04-09T09:06:55Z,2141548.688,NULL,Theorie,nadharia,d,NA,NA,NA,NA,qt,NA,3,NA,NA,NA,NA,NA,NA,NA,NA,NA,NA,NA,NA,NA,NA,NA,NA,NA,NA,NA
7f47d,task,flow.Sequence,3_0_3_0_6,NA,NA,completion,19384.296,2122134.3,2122130.914,2122147.601,2141531.897,2141534,2023-04-09T09:06:55Z,2141548.688,NULL,Theorie,nadharia,d,NA,NA,NA,NA,qt,NA,3,NA,NA,NA,NA,NA,NA,NA,NA,NA,NA,NA,NA,NA,NA,NA,NA,NA,NA,NA
7f47d,Deep Question,html.Page,3_0_3_0_7_0_0,NA,NA,form submission,11677.312,2141534.2,2141531.897,2141548.688,2153226,2153226.2,2023-04-09T09:07:07Z,2153238.635,NULL,Zufall,kikuti,d,NA,NA,NA,kituki,NA,NA,3,NA,NA,NA,NA,NA,NA,NA,NA,NA,NA,NA,NA,NA,NA,NA,NA,NA,NA,NA
7f47d,"""Richtig""-Screen",canvas.Screen,3_0_3_0_7_0_1,NA,NA,skipped,NA,2153228.3,NA,NA,2153226,2153228.5,2023-04-09T09:07:07Z,2153238.635,NULL,Zufall,kikuti,d,NA,NA,NA,NA,qt,NA,3,NA,NA,NA,NA,NA,NA,NA,NA,NA,NA,NA,NA,NA,NA,NA,NA,NA,NA,NA
7f47d,"""Falsch""-Screen",canvas.Screen,3_0_3_0_7_0_2,NA,NA,timeout,4996.3690000004,2153229.4,2153222.275,2153238.635,2158217.98,2158219.1,2023-04-09T09:07:12Z,2158235.004,NULL,Zufall,kikuti,d,NA,NA,NA,NA,qt,0,3,NA,NA,NA,NA,NA,NA,NA,NA,NA,NA,NA,NA,NA,NA,NA,NA,NA,NA,NA
7f47d,deep,flow.Sequence,3_0_3_0_7_0,NA,NA,completion,16669.292,2141534.1,2141531.897,2141548.688,2158217.98,2158219.4,2023-04-09T09:07:12Z,2158235.004,NULL,Zufall,kikuti,d,NA,NA,NA,NA,qt,NA,3,NA,NA,NA,NA,NA,NA,NA,NA,NA,NA,NA,NA,NA,NA,NA,NA,NA,NA,NA
7f47d,shallow,flow.Sequence,3_0_3_0_7_1,NA,NA,skipped,NA,2158219.6,NA,NA,2158217.98,2158219.8,2023-04-09T09:07:12Z,2158235.004,NULL,Zufall,kikuti,d,NA,NA,NA,NA,qt,NA,3,NA,NA,NA,NA,NA,NA,NA,NA,NA,NA,NA,NA,NA,NA,NA,NA,NA,NA,NA
7f47d,task,flow.Sequence,3_0_3_0_7,NA,NA,completion,16669.292,2141534.1,2141531.897,2141548.688,2158217.98,2158220,2023-04-09T09:07:12Z,2158235.004,NULL,Zufall,kikuti,d,NA,NA,NA,NA,qt,NA,3,NA,NA,NA,NA,NA,NA,NA,NA,NA,NA,NA,NA,NA,NA,NA,NA,NA,NA,NA
7f47d,block,flow.Loop,3_0_3_0,NA,NA,completion,130026.156,2028181.7,2028174.555,2028191.824,2158217.98,2158220.3,2023-04-09T09:07:12Z,2158235.004,NULL,NA,NA,NA,NA,NA,NA,NA,qt,NA,3,NA,NA,NA,NA,NA,NA,NA,NA,NA,NA,NA,NA,NA,NA,NA,NA,NA,NA,NA
7f47d,weiter,canvas.Screen,3_0_3_1,sdf,keypress(Space),response,1689.3960000356,2158220.4,2158217.98,2158235.004,2159924.4,2159925.4,2023-04-09T09:07:14Z,2159966.617,NULL,NA,NA,NA,NA,NA,NA,NA,qt,NA,3,NA,NA,NA,NA,NA,NA,NA,NA,NA,NA,NA,NA,NA,NA,NA,NA,NA,NA,NA
7f47d,check continue,flow.Sequence,3_0_3,NA,NA,completion,131732.57600004,2028181.6,2028174.555,2028191.824,2159924.4,2159925.8,2023-04-09T09:07:14Z,2159966.617,NULL,NA,NA,NA,NA,NA,NA,NA,qt,NA,3,NA,NA,NA,NA,NA,NA,NA,NA,NA,NA,NA,NA,NA,NA,NA,NA,NA,NA,NA
7f47d,Deep Question,html.Page,3_0_4_0_0_0_0,NA,NA,form submission,15979.883,2159961.8,2159950.262,2159966.617,2175946.5,2175946.8,2023-04-09T09:07:30Z,2175953.302,NULL,Schock,mshtuko,d,NA,NA,NA,kikuti,NA,NA,4,NA,NA,NA,NA,NA,NA,NA,NA,NA,NA,NA,NA,NA,NA,NA,NA,NA,NA,NA
7f47d,"""Richtig""-Screen",canvas.Screen,3_0_4_0_0_0_1,NA,NA,skipped,NA,2175948.8,NA,NA,2175946.5,2175949,2023-04-09T09:07:30Z,2175953.302,NULL,Schock,mshtuko,d,NA,NA,NA,NA,sd,NA,4,NA,NA,NA,NA,NA,NA,NA,NA,NA,NA,NA,NA,NA,NA,NA,NA,NA,NA,NA
7f47d,"""Falsch""-Screen",canvas.Screen,3_0_4_0_0_0_2,NA,NA,timeout,4996.4979999997,2175949.7,2175937.137,2175953.302,2180932.611,2180933.6,2023-04-09T09:07:35Z,2180949.8,NULL,Schock,mshtuko,d,NA,NA,NA,NA,sd,0,4,NA,NA,NA,NA,NA,NA,NA,NA,NA,NA,NA,NA,NA,NA,NA,NA,NA,NA,NA
7f47d,deep,flow.Sequence,3_0_4_0_0_0,NA,NA,completion,20965.994,2159961.8,2159950.262,2159966.617,2180932.611,2180934.2,2023-04-09T09:07:35Z,2180949.8,NULL,Schock,mshtuko,d,NA,NA,NA,NA,sd,NA,4,NA,NA,NA,NA,NA,NA,NA,NA,NA,NA,NA,NA,NA,NA,NA,NA,NA,NA,NA
7f47d,shallow,flow.Sequence,3_0_4_0_0_1,NA,NA,skipped,NA,2180934.5,NA,NA,2180932.611,2180934.8,2023-04-09T09:07:35Z,2180949.8,NULL,Schock,mshtuko,d,NA,NA,NA,NA,sd,NA,4,NA,NA,NA,NA,NA,NA,NA,NA,NA,NA,NA,NA,NA,NA,NA,NA,NA,NA,NA
7f47d,task,flow.Sequence,3_0_4_0_0,NA,NA,completion,20965.994,2159961.8,2159950.262,2159966.617,2180932.611,2180935.2,2023-04-09T09:07:35Z,2180949.8,NULL,Schock,mshtuko,d,NA,NA,NA,NA,sd,NA,4,NA,NA,NA,NA,NA,NA,NA,NA,NA,NA,NA,NA,NA,NA,NA,NA,NA,NA,NA
7f47d,Deep Question,html.Page,3_0_4_0_1_0_0,NA,NA,form submission,13998.399999988,2180935.6,2180932.611,2180949.8,2194948.2,2194948.4,2023-04-09T09:07:49Z,2194954.381,NULL,Theorie,nadharia,d,NA,NA,NA,kikuti,NA,NA,4,NA,NA,NA,NA,NA,NA,NA,NA,NA,NA,NA,NA,NA,NA,NA,NA,NA,NA,NA
7f47d,"""Richtig""-Screen",canvas.Screen,3_0_4_0_1_0_1,NA,NA,skipped,NA,2194950.9,NA,NA,2194948.2,2194951.1,2023-04-09T09:07:49Z,2194954.381,NULL,Theorie,nadharia,d,NA,NA,NA,NA,sd,NA,4,NA,NA,NA,NA,NA,NA,NA,NA,NA,NA,NA,NA,NA,NA,NA,NA,NA,NA,NA
7f47d,"""Falsch""-Screen",canvas.Screen,3_0_4_0_1_0_2,NA,NA,timeout,4996.5049999999,2194952,2194938.325,2194954.381,2199933.933,2199934.7,2023-04-09T09:07:54Z,2199950.886,NULL,Theorie,nadharia,d,NA,NA,NA,NA,sd,0,4,NA,NA,NA,NA,NA,NA,NA,NA,NA,NA,NA,NA,NA,NA,NA,NA,NA,NA,NA
7f47d,deep,flow.Sequence,3_0_4_0_1_0,NA,NA,completion,18984.133,2180935.6,2180932.611,2180949.8,2199933.933,2199935.1,2023-04-09T09:07:54Z,2199950.886,NULL,Theorie,nadharia,d,NA,NA,NA,NA,sd,NA,4,NA,NA,NA,NA,NA,NA,NA,NA,NA,NA,NA,NA,NA,NA,NA,NA,NA,NA,NA
7f47d,shallow,flow.Sequence,3_0_4_0_1_1,NA,NA,skipped,NA,2199935.3,NA,NA,2199933.933,2199935.4,2023-04-09T09:07:54Z,2199950.886,NULL,Theorie,nadharia,d,NA,NA,NA,NA,sd,NA,4,NA,NA,NA,NA,NA,NA,NA,NA,NA,NA,NA,NA,NA,NA,NA,NA,NA,NA,NA
7f47d,task,flow.Sequence,3_0_4_0_1,NA,NA,completion,18984.133,2180935.4,2180932.611,2180949.8,2199933.933,2199935.7,2023-04-09T09:07:54Z,2199950.886,NULL,Theorie,nadharia,d,NA,NA,NA,NA,sd,NA,4,NA,NA,NA,NA,NA,NA,NA,NA,NA,NA,NA,NA,NA,NA,NA,NA,NA,NA,NA
7f47d,Deep Question,html.Page,3_0_4_0_2_0_0,NA,NA,form submission,24858.514000036,2199935.9,2199933.933,2199950.886,2224809.4,2224809.6,2023-04-09T09:08:19Z,2224813.2,NULL,Schönheit,kirembo,d,NA,NA,NA,mashe,NA,NA,4,NA,NA,NA,NA,NA,NA,NA,NA,NA,NA,NA,NA,NA,NA,NA,NA,NA,NA,NA
7f47d,"""Richtig""-Screen",canvas.Screen,3_0_4_0_2_0_1,NA,NA,skipped,NA,2224811.7,NA,NA,2224809.4,2224811.8,2023-04-09T09:08:19Z,2224813.2,NULL,Schönheit,kirembo,d,NA,NA,NA,NA,sd,NA,4,NA,NA,NA,NA,NA,NA,NA,NA,NA,NA,NA,NA,NA,NA,NA,NA,NA,NA,NA
7f47d,"""Falsch""-Screen",canvas.Screen,3_0_4_0_2_0_2,NA,NA,timeout,4996.5259999996,2224812.4,2224797.178,2224813.2,2229792.586,2229794.4,2023-04-09T09:08:24Z,2229809.726,NULL,Schönheit,kirembo,d,NA,NA,NA,NA,sd,0,4,NA,NA,NA,NA,NA,NA,NA,NA,NA,NA,NA,NA,NA,NA,NA,NA,NA,NA,NA
7f47d,deep,flow.Sequence,3_0_4_0_2_0,NA,NA,completion,29841.7,2199935.9,2199933.933,2199950.886,2229792.586,2229794.7,2023-04-09T09:08:24Z,2229809.726,NULL,Schönheit,kirembo,d,NA,NA,NA,NA,sd,NA,4,NA,NA,NA,NA,NA,NA,NA,NA,NA,NA,NA,NA,NA,NA,NA,NA,NA,NA,NA
7f47d,shallow,flow.Sequence,3_0_4_0_2_1,NA,NA,skipped,NA,2229795,NA,NA,2229792.586,2229795.1,2023-04-09T09:08:24Z,2229809.726,NULL,Schönheit,kirembo,d,NA,NA,NA,NA,sd,NA,4,NA,NA,NA,NA,NA,NA,NA,NA,NA,NA,NA,NA,NA,NA,NA,NA,NA,NA,NA
7f47d,task,flow.Sequence,3_0_4_0_2,NA,NA,completion,29841.7,2199935.8,2199933.933,2199950.886,2229792.586,2229795.4,2023-04-09T09:08:24Z,2229809.726,NULL,Schönheit,kirembo,d,NA,NA,NA,NA,sd,NA,4,NA,NA,NA,NA,NA,NA,NA,NA,NA,NA,NA,NA,NA,NA,NA,NA,NA,NA,NA
7f47d,deep,flow.Sequence,3_0_4_0_3_0,NA,NA,skipped,NA,2229795.6,NA,NA,2229792.586,2229795.6,2023-04-09T09:08:24Z,2229809.726,NULL,Wettbewerb,ushindani,s,mapendezi,kichocheo,ubaguzi,NA,sd,NA,4,NA,NA,NA,NA,NA,NA,NA,NA,NA,NA,NA,NA,NA,NA,NA,NA,NA,NA,NA
7f47d,Shallow Question,html.Page,3_0_4_0_3_1_0,NA,NA,form submission,6371.0740000121,2229795.8,2229792.586,2229809.726,2236180.8,2236181.1,2023-04-09T09:08:30Z,2236187.396,NULL,Wettbewerb,ushindani,s,mapendezi,kichocheo,ubaguzi,ushindani,NA,NA,4,NA,NA,NA,NA,NA,NA,NA,NA,NA,NA,NA,NA,NA,NA,NA,NA,NA,NA,NA
7f47d,"""Richtig""-Screen",canvas.Screen,3_0_4_0_3_1_1,NA,NA,timeout,4996.1599999997,2236183,2236171.025,2236187.396,2241166.601,2241167.5,2023-04-09T09:08:35Z,2241183.556,NULL,Wettbewerb,ushindani,s,mapendezi,kichocheo,ubaguzi,NA,sd,1,4,NA,NA,NA,NA,NA,NA,NA,NA,NA,NA,NA,NA,NA,NA,NA,NA,NA,NA,NA
7f47d,"""Falsch""-Screen",canvas.Screen,3_0_4_0_3_1_2,NA,NA,skipped,NA,2241172.2,NA,NA,2241166.601,2241172.3,2023-04-09T09:08:35Z,2241183.556,NULL,Wettbewerb,ushindani,s,mapendezi,kichocheo,ubaguzi,NA,sd,NA,4,NA,NA,NA,NA,NA,NA,NA,NA,NA,NA,NA,NA,NA,NA,NA,NA,NA,NA,NA
7f47d,shallow,flow.Sequence,3_0_4_0_3_1,NA,NA,completion,11356.875,2229795.8,2229792.586,2229809.726,2241166.601,2241172.5,2023-04-09T09:08:35Z,2241183.556,NULL,Wettbewerb,ushindani,s,mapendezi,kichocheo,ubaguzi,NA,sd,NA,4,NA,NA,NA,NA,NA,NA,NA,NA,NA,NA,NA,NA,NA,NA,NA,NA,NA,NA,NA
7f47d,task,flow.Sequence,3_0_4_0_3,NA,NA,completion,11356.875,2229795.4,2229792.586,2229809.726,2241166.601,2241172.5,2023-04-09T09:08:35Z,2241183.556,NULL,Wettbewerb,ushindani,s,mapendezi,kichocheo,ubaguzi,NA,sd,NA,4,NA,NA,NA,NA,NA,NA,NA,NA,NA,NA,NA,NA,NA,NA,NA,NA,NA,NA,NA
7f47d,deep,flow.Sequence,3_0_4_0_4_0,NA,NA,skipped,NA,2241172.6,NA,NA,2241166.601,2241172.6,2023-04-09T09:08:35Z,2241183.556,NULL,Hoffnung,matarajio,s,kutaalamika,uratibu,mvumbuzi,NA,sd,NA,4,NA,NA,NA,NA,NA,NA,NA,NA,NA,NA,NA,NA,NA,NA,NA,NA,NA,NA,NA
7f47d,Shallow Question,html.Page,3_0_4_0_4_1_0,NA,NA,form submission,8328.4440000001,2241172.6,2241166.601,2241183.556,2249512,2249512.2,2023-04-09T09:08:43Z,2249526.804,NULL,Hoffnung,matarajio,s,kutaalamika,uratibu,mvumbuzi,kutaalamika,NA,NA,4,NA,NA,NA,NA,NA,NA,NA,NA,NA,NA,NA,NA,NA,NA,NA,NA,NA,NA,NA
7f47d,"""Richtig""-Screen",canvas.Screen,3_0_4_0_4_1_1,NA,NA,skipped,NA,2249514,NA,NA,2249512,2249514.1,2023-04-09T09:08:43Z,2249526.804,NULL,Hoffnung,matarajio,s,kutaalamika,uratibu,mvumbuzi,NA,sd,NA,4,NA,NA,NA,NA,NA,NA,NA,NA,NA,NA,NA,NA,NA,NA,NA,NA,NA,NA,NA
7f47d,"""Falsch""-Screen",canvas.Screen,3_0_4_0_4_1_2,NA,NA,timeout,4995.77,2249514.7,2249510.192,2249526.804,2254506.042,2254506.9,2023-04-09T09:08:48Z,2254522.574,NULL,Hoffnung,matarajio,s,kutaalamika,uratibu,mvumbuzi,NA,sd,0,4,NA,NA,NA,NA,NA,NA,NA,NA,NA,NA,NA,NA,NA,NA,NA,NA,NA,NA,NA
7f47d,shallow,flow.Sequence,3_0_4_0_4_1,NA,NA,completion,13322.486,2241172.6,2241166.601,2241183.556,2254506.042,2254507.3,2023-04-09T09:08:48Z,2254522.574,NULL,Hoffnung,matarajio,s,kutaalamika,uratibu,mvumbuzi,NA,sd,NA,4,NA,NA,NA,NA,NA,NA,NA,NA,NA,NA,NA,NA,NA,NA,NA,NA,NA,NA,NA
7f47d,task,flow.Sequence,3_0_4_0_4,NA,NA,completion,13322.486,2241172.6,2241166.601,2241183.556,2254506.042,2254507.5,2023-04-09T09:08:48Z,2254522.574,NULL,Hoffnung,matarajio,s,kutaalamika,uratibu,mvumbuzi,NA,sd,NA,4,NA,NA,NA,NA,NA,NA,NA,NA,NA,NA,NA,NA,NA,NA,NA,NA,NA,NA,NA
7f47d,deep,flow.Sequence,3_0_4_0_5_0,NA,NA,skipped,NA,2254507.8,NA,NA,2254506.042,2254507.9,2023-04-09T09:08:48Z,2254522.574,NULL,Verpackung,ufungaji,s,uhusiano,upimaji,uchunguzi,NA,sd,NA,4,NA,NA,NA,NA,NA,NA,NA,NA,NA,NA,NA,NA,NA,NA,NA,NA,NA,NA,NA
7f47d,Shallow Question,html.Page,3_0_4_0_5_1_0,NA,NA,form submission,4337.8260000357,2254508,2254506.042,2254522.574,2258860.4,2258860.6,2023-04-09T09:08:53Z,2258868.848,NULL,Verpackung,ufungaji,s,uhusiano,upimaji,uchunguzi,upimaji,NA,NA,4,NA,NA,NA,NA,NA,NA,NA,NA,NA,NA,NA,NA,NA,NA,NA,NA,NA,NA,NA
7f47d,"""Richtig""-Screen",canvas.Screen,3_0_4_0_5_1_1,NA,NA,skipped,NA,2258862.5,NA,NA,2258860.4,2258862.6,2023-04-09T09:08:53Z,2258868.848,NULL,Verpackung,ufungaji,s,uhusiano,upimaji,uchunguzi,NA,sd,NA,4,NA,NA,NA,NA,NA,NA,NA,NA,NA,NA,NA,NA,NA,NA,NA,NA,NA,NA,NA
7f47d,"""Falsch""-Screen",canvas.Screen,3_0_4_0_5_1_2,NA,NA,timeout,4996.4119999995,2258863.4,2258852.294,2258868.848,2263848.12,2263849,2023-04-09T09:08:58Z,2263865.26,NULL,Verpackung,ufungaji,s,uhusiano,upimaji,uchunguzi,NA,sd,0,4,NA,NA,NA,NA,NA,NA,NA,NA,NA,NA,NA,NA,NA,NA,NA,NA,NA,NA,NA
7f47d,shallow,flow.Sequence,3_0_4_0_5_1,NA,NA,completion,9325.5460000001,2254508,2254506.042,2254522.574,2263848.12,2263849.4,2023-04-09T09:08:58Z,2263865.26,NULL,Verpackung,ufungaji,s,uhusiano,upimaji,uchunguzi,NA,sd,NA,4,NA,NA,NA,NA,NA,NA,NA,NA,NA,NA,NA,NA,NA,NA,NA,NA,NA,NA,NA
7f47d,task,flow.Sequence,3_0_4_0_5,NA,NA,completion,9325.5460000001,2254507.7,2254506.042,2254522.574,2263848.12,2263849.6,2023-04-09T09:08:58Z,2263865.26,NULL,Verpackung,ufungaji,s,uhusiano,upimaji,uchunguzi,NA,sd,NA,4,NA,NA,NA,NA,NA,NA,NA,NA,NA,NA,NA,NA,NA,NA,NA,NA,NA,NA,NA
7f47d,deep,flow.Sequence,3_0_4_0_6_0,NA,NA,skipped,NA,2263849.9,NA,NA,2263848.12,2263850,2023-04-09T09:08:58Z,2263865.26,NULL,Auftrag,uagizaji,s,ghanima,kuzingatia,msukani,NA,sd,NA,4,NA,NA,NA,NA,NA,NA,NA,NA,NA,NA,NA,NA,NA,NA,NA,NA,NA,NA,NA
7f47d,Shallow Question,html.Page,3_0_4_0_6_1_0,NA,NA,form submission,6171.4399999883,2263850.2,2263848.12,2263865.26,2270036.7,2270036.8,2023-04-09T09:09:04Z,2270042.823,NULL,Auftrag,uagizaji,s,ghanima,kuzingatia,msukani,uagizaji,NA,NA,4,NA,NA,NA,NA,NA,NA,NA,NA,NA,NA,NA,NA,NA,NA,NA,NA,NA,NA,NA
7f47d,"""Richtig""-Screen",canvas.Screen,3_0_4_0_6_1_1,NA,NA,timeout,4996.588,2270038.7,2270026.233,2270042.823,2275022.144,2275023.3,2023-04-09T09:09:09Z,2275039.411,NULL,Auftrag,uagizaji,s,ghanima,kuzingatia,msukani,NA,sd,1,4,NA,NA,NA,NA,NA,NA,NA,NA,NA,NA,NA,NA,NA,NA,NA,NA,NA,NA,NA
7f47d,"""Falsch""-Screen",canvas.Screen,3_0_4_0_6_1_2,NA,NA,skipped,NA,2275028.5,NA,NA,2275022.144,2275028.8,2023-04-09T09:09:09Z,2275039.411,NULL,Auftrag,uagizaji,s,ghanima,kuzingatia,msukani,NA,sd,NA,4,NA,NA,NA,NA,NA,NA,NA,NA,NA,NA,NA,NA,NA,NA,NA,NA,NA,NA,NA
7f47d,shallow,flow.Sequence,3_0_4_0_6_1,NA,NA,completion,11156.884,2263850.2,2263848.12,2263865.26,2275022.144,2275028.9,2023-04-09T09:09:09Z,2275039.411,NULL,Auftrag,uagizaji,s,ghanima,kuzingatia,msukani,NA,sd,NA,4,NA,NA,NA,NA,NA,NA,NA,NA,NA,NA,NA,NA,NA,NA,NA,NA,NA,NA,NA
7f47d,task,flow.Sequence,3_0_4_0_6,NA,NA,completion,11156.884,2263849.8,2263848.12,2263865.26,2275022.144,2275029.1,2023-04-09T09:09:09Z,2275039.411,NULL,Auftrag,uagizaji,s,ghanima,kuzingatia,msukani,NA,sd,NA,4,NA,NA,NA,NA,NA,NA,NA,NA,NA,NA,NA,NA,NA,NA,NA,NA,NA,NA,NA
7f47d,Deep Question,html.Page,3_0_4_0_7_0_0,NA,NA,form submission,12277.889000012001,2275029.1,2275022.144,2275039.411,2287317.3,2287317.5,2023-04-09T09:09:21Z,2287328.948,NULL,Zufall,kikuti,d,NA,NA,NA,mshe,NA,NA,4,NA,NA,NA,NA,NA,NA,NA,NA,NA,NA,NA,NA,NA,NA,NA,NA,NA,NA,NA
7f47d,"""Richtig""-Screen",canvas.Screen,3_0_4_0_7_0_1,NA,NA,skipped,NA,2287319.6,NA,NA,2287317.3,2287319.7,2023-04-09T09:09:21Z,2287328.948,NULL,Zufall,kikuti,d,NA,NA,NA,NA,sd,NA,4,NA,NA,NA,NA,NA,NA,NA,NA,NA,NA,NA,NA,NA,NA,NA,NA,NA,NA,NA
7f47d,"""Falsch""-Screen",canvas.Screen,3_0_4_0_7_0_2,NA,NA,timeout,4995.9880000004,2287320.3,2287312.625,2287328.948,2292307.956,2292310.1,2023-04-09T09:09:26Z,2292324.936,NULL,Zufall,kikuti,d,NA,NA,NA,NA,sd,0,4,NA,NA,NA,NA,NA,NA,NA,NA,NA,NA,NA,NA,NA,NA,NA,NA,NA,NA,NA
7f47d,deep,flow.Sequence,3_0_4_0_7_0,NA,NA,completion,17268.545,2275029.1,2275022.144,2275039.411,2292307.956,2292310.6,2023-04-09T09:09:26Z,2292324.936,NULL,Zufall,kikuti,d,NA,NA,NA,NA,sd,NA,4,NA,NA,NA,NA,NA,NA,NA,NA,NA,NA,NA,NA,NA,NA,NA,NA,NA,NA,NA
7f47d,shallow,flow.Sequence,3_0_4_0_7_1,NA,NA,skipped,NA,2292310.8,NA,NA,2292307.956,2292311,2023-04-09T09:09:26Z,2292324.936,NULL,Zufall,kikuti,d,NA,NA,NA,NA,sd,NA,4,NA,NA,NA,NA,NA,NA,NA,NA,NA,NA,NA,NA,NA,NA,NA,NA,NA,NA,NA
7f47d,task,flow.Sequence,3_0_4_0_7,NA,NA,completion,17268.545,2275029.1,2275022.144,2275039.411,2292307.956,2292311.2,2023-04-09T09:09:26Z,2292324.936,NULL,Zufall,kikuti,d,NA,NA,NA,NA,sd,NA,4,NA,NA,NA,NA,NA,NA,NA,NA,NA,NA,NA,NA,NA,NA,NA,NA,NA,NA,NA
7f47d,block,flow.Loop,3_0_4_0,NA,NA,completion,132341.339,2159961.8,2159950.262,2159966.617,2292307.956,2292311.5,2023-04-09T09:09:26Z,2292324.936,NULL,NA,NA,NA,NA,NA,NA,NA,sd,NA,4,NA,NA,NA,NA,NA,NA,NA,NA,NA,NA,NA,NA,NA,NA,NA,NA,NA,NA,NA
7f47d,weiter,canvas.Screen,3_0_4_1,sdf,keypress(Space),response,1264.0639999998,2292311.7,2292307.956,2292324.936,2293589,2293590.3,2023-04-09T09:09:27Z,2293657.458,NULL,NA,NA,NA,NA,NA,NA,NA,sd,NA,4,NA,NA,NA,NA,NA,NA,NA,NA,NA,NA,NA,NA,NA,NA,NA,NA,NA,NA,NA
7f47d,check continue,flow.Sequence,3_0_4,NA,NA,completion,133622.383,2159961.8,2159950.262,2159966.617,2293589,2293590.6,2023-04-09T09:09:27Z,2293657.458,NULL,NA,NA,NA,NA,NA,NA,NA,sd,NA,4,NA,NA,NA,NA,NA,NA,NA,NA,NA,NA,NA,NA,NA,NA,NA,NA,NA,NA,NA
7f47d,deep,flow.Sequence,3_0_5_0_0_0,NA,NA,skipped,NA,2293635.6,NA,NA,2293589,2293635.6,2023-04-09T09:09:27Z,2293657.458,NULL,Hoffnung,matarajio,s,kutaalamika,uratibu,mvumbuzi,NA,sdf,NA,5,NA,NA,NA,NA,NA,NA,NA,NA,NA,NA,NA,NA,NA,NA,NA,NA,NA,NA,NA
7f47d,Shallow Question,html.Page,3_0_5_0_0_1_0,NA,NA,form submission,5733.4420000357,2293635.8,2293640.59,2293657.458,2299390.9,2299391.1,2023-04-09T09:09:33Z,2299402.308,NULL,Hoffnung,matarajio,s,kutaalamika,uratibu,mvumbuzi,matarajio,NA,NA,5,NA,NA,NA,NA,NA,NA,NA,NA,NA,NA,NA,NA,NA,NA,NA,NA,NA,NA,NA
7f47d,"""Richtig""-Screen",canvas.Screen,3_0_5_0_0_1_1,NA,NA,timeout,4996.3559999997,2299392.9,2299385.606,2299402.308,2304381.672,2304382.3,2023-04-09T09:09:38Z,2304398.664,NULL,Hoffnung,matarajio,s,kutaalamika,uratibu,mvumbuzi,NA,sdf,1,5,NA,NA,NA,NA,NA,NA,NA,NA,NA,NA,NA,NA,NA,NA,NA,NA,NA,NA,NA
7f47d,"""Falsch""-Screen",canvas.Screen,3_0_5_0_0_1_2,NA,NA,skipped,NA,2304385.7,NA,NA,2304381.672,2304386,2023-04-09T09:09:38Z,2304398.664,NULL,Hoffnung,matarajio,s,kutaalamika,uratibu,mvumbuzi,NA,sdf,NA,5,NA,NA,NA,NA,NA,NA,NA,NA,NA,NA,NA,NA,NA,NA,NA,NA,NA,NA,NA
7f47d,shallow,flow.Sequence,3_0_5_0_0_1,NA,NA,completion,10724.214,2293635.8,2293640.59,2293657.458,2304381.672,2304386.1,2023-04-09T09:09:38Z,2304398.664,NULL,Hoffnung,matarajio,s,kutaalamika,uratibu,mvumbuzi,NA,sdf,NA,5,NA,NA,NA,NA,NA,NA,NA,NA,NA,NA,NA,NA,NA,NA,NA,NA,NA,NA,NA
7f47d,task,flow.Sequence,3_0_5_0_0,NA,NA,completion,10724.214,2293635.5,2293640.59,2293657.458,2304381.672,2304386.1,2023-04-09T09:09:38Z,2304398.664,NULL,Hoffnung,matarajio,s,kutaalamika,uratibu,mvumbuzi,NA,sdf,NA,5,NA,NA,NA,NA,NA,NA,NA,NA,NA,NA,NA,NA,NA,NA,NA,NA,NA,NA,NA
7f47d,deep,flow.Sequence,3_0_5_0_1_0,NA,NA,skipped,NA,2304386.2,NA,NA,2304381.672,2304386.3,2023-04-09T09:09:38Z,2304398.664,NULL,Auftrag,uagizaji,s,ghanima,kuzingatia,msukani,NA,sdf,NA,5,NA,NA,NA,NA,NA,NA,NA,NA,NA,NA,NA,NA,NA,NA,NA,NA,NA,NA,NA
7f47d,Shallow Question,html.Page,3_0_5_0_1_1_0,NA,NA,form submission,4307.2360000359,2304386.3,2304381.672,2304398.664,2308705.9,2308706.1,2023-04-09T09:09:42Z,2308711.001,NULL,Auftrag,uagizaji,s,ghanima,kuzingatia,msukani,uagizaji,NA,NA,5,NA,NA,NA,NA,NA,NA,NA,NA,NA,NA,NA,NA,NA,NA,NA,NA,NA,NA,NA
7f47d,"""Richtig""-Screen",canvas.Screen,3_0_5_0_1_1_1,NA,NA,timeout,4996.0209999997,2308707.7,2308694.633,2308711.001,2313690.815,2313691.6,2023-04-09T09:09:47Z,2313707.022,NULL,Auftrag,uagizaji,s,ghanima,kuzingatia,msukani,NA,sdf,1,5,NA,NA,NA,NA,NA,NA,NA,NA,NA,NA,NA,NA,NA,NA,NA,NA,NA,NA,NA
7f47d,"""Falsch""-Screen",canvas.Screen,3_0_5_0_1_1_2,NA,NA,skipped,NA,2313696.8,NA,NA,2313690.815,2313697.1,2023-04-09T09:09:47Z,2313707.022,NULL,Auftrag,uagizaji,s,ghanima,kuzingatia,msukani,NA,sdf,NA,5,NA,NA,NA,NA,NA,NA,NA,NA,NA,NA,NA,NA,NA,NA,NA,NA,NA,NA,NA
7f47d,shallow,flow.Sequence,3_0_5_0_1_1,NA,NA,completion,9292.1510000001,2304386.3,2304381.672,2304398.664,2313690.815,2313697.5,2023-04-09T09:09:47Z,2313707.022,NULL,Auftrag,uagizaji,s,ghanima,kuzingatia,msukani,NA,sdf,NA,5,NA,NA,NA,NA,NA,NA,NA,NA,NA,NA,NA,NA,NA,NA,NA,NA,NA,NA,NA
7f47d,task,flow.Sequence,3_0_5_0_1,NA,NA,completion,9292.1510000001,2304386.2,2304381.672,2304398.664,2313690.815,2313697.8,2023-04-09T09:09:47Z,2313707.022,NULL,Auftrag,uagizaji,s,ghanima,kuzingatia,msukani,NA,sdf,NA,5,NA,NA,NA,NA,NA,NA,NA,NA,NA,NA,NA,NA,NA,NA,NA,NA,NA,NA,NA
7f47d,deep,flow.Sequence,3_0_5_0_2_0,NA,NA,skipped,NA,2313697.9,NA,NA,2313690.815,2313698.1,2023-04-09T09:09:47Z,2313707.022,NULL,Wettbewerb,ushindani,s,mapendezi,kichocheo,ubaguzi,NA,sdf,NA,5,NA,NA,NA,NA,NA,NA,NA,NA,NA,NA,NA,NA,NA,NA,NA,NA,NA,NA,NA
7f47d,Shallow Question,html.Page,3_0_5_0_2_1_0,NA,NA,form submission,5444.078000024,2313698.2,2313690.815,2313707.022,2319151.1,2319151.3,2023-04-09T09:09:53Z,2319152.429,NULL,Wettbewerb,ushindani,s,mapendezi,kichocheo,ubaguzi,ushindani,NA,NA,5,NA,NA,NA,NA,NA,NA,NA,NA,NA,NA,NA,NA,NA,NA,NA,NA,NA,NA,NA
7f47d,"""Richtig""-Screen",canvas.Screen,3_0_5_0_2_1_1,NA,NA,timeout,4995.892,2319153.2,2319136.362,2319152.429,2324131.824,2324133.5,2023-04-09T09:09:58Z,2324148.321,NULL,Wettbewerb,ushindani,s,mapendezi,kichocheo,ubaguzi,NA,sdf,1,5,NA,NA,NA,NA,NA,NA,NA,NA,NA,NA,NA,NA,NA,NA,NA,NA,NA,NA,NA
7f47d,"""Falsch""-Screen",canvas.Screen,3_0_5_0_2_1_2,NA,NA,skipped,NA,2324138.2,NA,NA,2324131.824,2324138.3,2023-04-09T09:09:58Z,2324148.321,NULL,Wettbewerb,ushindani,s,mapendezi,kichocheo,ubaguzi,NA,sdf,NA,5,NA,NA,NA,NA,NA,NA,NA,NA,NA,NA,NA,NA,NA,NA,NA,NA,NA,NA,NA
7f47d,shallow,flow.Sequence,3_0_5_0_2_1,NA,NA,completion,10424.802,2313698.2,2313690.815,2313707.022,2324131.824,2324138.5,2023-04-09T09:09:58Z,2324148.321,NULL,Wettbewerb,ushindani,s,mapendezi,kichocheo,ubaguzi,NA,sdf,NA,5,NA,NA,NA,NA,NA,NA,NA,NA,NA,NA,NA,NA,NA,NA,NA,NA,NA,NA,NA
7f47d,task,flow.Sequence,3_0_5_0_2,NA,NA,completion,10424.802,2313697.9,2313690.815,2313707.022,2324131.824,2324138.6,2023-04-09T09:09:58Z,2324148.321,NULL,Wettbewerb,ushindani,s,mapendezi,kichocheo,ubaguzi,NA,sdf,NA,5,NA,NA,NA,NA,NA,NA,NA,NA,NA,NA,NA,NA,NA,NA,NA,NA,NA,NA,NA
7f47d,Deep Question,html.Page,3_0_5_0_3_0_0,NA,NA,form submission,29858.279000024,2324138.6,2324131.824,2324148.321,2354006.6,2354006.8,2023-04-09T09:10:28Z,2354037.59,NULL,Schönheit,kirembo,d,NA,NA,NA,kiromdo,NA,NA,5,NA,NA,NA,NA,NA,NA,NA,NA,NA,NA,NA,NA,NA,NA,NA,NA,NA,NA,NA
7f47d,"""Richtig""-Screen",canvas.Screen,3_0_5_0_3_0_1,NA,NA,skipped,NA,2354008.9,NA,NA,2354006.6,2354009.1,2023-04-09T09:10:28Z,2354037.59,NULL,Schönheit,kirembo,d,NA,NA,NA,NA,sdf,NA,5,NA,NA,NA,NA,NA,NA,NA,NA,NA,NA,NA,NA,NA,NA,NA,NA,NA,NA,NA
7f47d,"""Falsch""-Screen",canvas.Screen,3_0_5_0_3_0_2,NA,NA,timeout,4998.8540000003,2354009.9,2353991.142,2354037.59,2359020.302,2359021.2,2023-04-09T09:10:33Z,2359036.444,NULL,Schönheit,kirembo,d,NA,NA,NA,NA,sdf,0,5,NA,NA,NA,NA,NA,NA,NA,NA,NA,NA,NA,NA,NA,NA,NA,NA,NA,NA,NA
7f47d,deep,flow.Sequence,3_0_5_0_3_0,NA,NA,completion,34871.981,2324138.6,2324131.824,2324148.321,2359020.302,2359021.6,2023-04-09T09:10:33Z,2359036.444,NULL,Schönheit,kirembo,d,NA,NA,NA,NA,sdf,NA,5,NA,NA,NA,NA,NA,NA,NA,NA,NA,NA,NA,NA,NA,NA,NA,NA,NA,NA,NA
7f47d,shallow,flow.Sequence,3_0_5_0_3_1,NA,NA,skipped,NA,2359021.7,NA,NA,2359020.302,2359022,2023-04-09T09:10:33Z,2359036.444,NULL,Schönheit,kirembo,d,NA,NA,NA,NA,sdf,NA,5,NA,NA,NA,NA,NA,NA,NA,NA,NA,NA,NA,NA,NA,NA,NA,NA,NA,NA,NA
7f47d,task,flow.Sequence,3_0_5_0_3,NA,NA,completion,34871.981,2324138.6,2324131.824,2324148.321,2359020.302,2359022.3,2023-04-09T09:10:33Z,2359036.444,NULL,Schönheit,kirembo,d,NA,NA,NA,NA,sdf,NA,5,NA,NA,NA,NA,NA,NA,NA,NA,NA,NA,NA,NA,NA,NA,NA,NA,NA,NA,NA
7f47d,deep,flow.Sequence,3_0_5_0_4_0,NA,NA,skipped,NA,2359022.5,NA,NA,2359020.302,2359022.6,2023-04-09T09:10:33Z,2359036.444,NULL,Verpackung,ufungaji,s,uhusiano,upimaji,uchunguzi,NA,sdf,NA,5,NA,NA,NA,NA,NA,NA,NA,NA,NA,NA,NA,NA,NA,NA,NA,NA,NA,NA,NA
7f47d,Shallow Question,html.Page,3_0_5_0_4_1_0,NA,NA,form submission,5159.4560000356,2359022.8,2359020.302,2359036.444,2364195.9,2364196.2,2023-04-09T09:10:38Z,2364198.818,NULL,Verpackung,ufungaji,s,uhusiano,upimaji,uchunguzi,ufungaji,NA,NA,5,NA,NA,NA,NA,NA,NA,NA,NA,NA,NA,NA,NA,NA,NA,NA,NA,NA,NA,NA
7f47d,"""Richtig""-Screen",canvas.Screen,3_0_5_0_4_1_1,NA,NA,timeout,4996.469,2364198,2364182.262,2364198.818,2369178.358,2369179.3,2023-04-09T09:10:43Z,2369195.287,NULL,Verpackung,ufungaji,s,uhusiano,upimaji,uchunguzi,NA,sdf,1,5,NA,NA,NA,NA,NA,NA,NA,NA,NA,NA,NA,NA,NA,NA,NA,NA,NA,NA,NA
7f47d,"""Falsch""-Screen",canvas.Screen,3_0_5_0_4_1_2,NA,NA,skipped,NA,2369184.4,NA,NA,2369178.358,2369184.4,2023-04-09T09:10:43Z,2369195.287,NULL,Verpackung,ufungaji,s,uhusiano,upimaji,uchunguzi,NA,sdf,NA,5,NA,NA,NA,NA,NA,NA,NA,NA,NA,NA,NA,NA,NA,NA,NA,NA,NA,NA,NA
7f47d,shallow,flow.Sequence,3_0_5_0_4_1,NA,NA,completion,10141.914,2359022.7,2359020.302,2359036.444,2369178.358,2369184.6,2023-04-09T09:10:43Z,2369195.287,NULL,Verpackung,ufungaji,s,uhusiano,upimaji,uchunguzi,NA,sdf,NA,5,NA,NA,NA,NA,NA,NA,NA,NA,NA,NA,NA,NA,NA,NA,NA,NA,NA,NA,NA
7f47d,task,flow.Sequence,3_0_5_0_4,NA,NA,completion,10141.914,2359022.4,2359020.302,2359036.444,2369178.358,2369184.7,2023-04-09T09:10:43Z,2369195.287,NULL,Verpackung,ufungaji,s,uhusiano,upimaji,uchunguzi,NA,sdf,NA,5,NA,NA,NA,NA,NA,NA,NA,NA,NA,NA,NA,NA,NA,NA,NA,NA,NA,NA,NA
7f47d,Deep Question,html.Page,3_0_5_0_5_0_0,NA,NA,form submission,5789.1130000358,2369184.7,2369178.358,2369195.287,2374984.4,2374984.5,2023-04-09T09:10:49Z,2374989.933,NULL,Zufall,kikuti,d,NA,NA,NA,kikitu,NA,NA,5,NA,NA,NA,NA,NA,NA,NA,NA,NA,NA,NA,NA,NA,NA,NA,NA,NA,NA,NA
7f47d,"""Richtig""-Screen",canvas.Screen,3_0_5_0_5_0_1,NA,NA,skipped,NA,2374986.4,NA,NA,2374984.4,2374986.5,2023-04-09T09:10:49Z,2374989.933,NULL,Zufall,kikuti,d,NA,NA,NA,NA,sdf,NA,5,NA,NA,NA,NA,NA,NA,NA,NA,NA,NA,NA,NA,NA,NA,NA,NA,NA,NA,NA
7f47d,"""Falsch""-Screen",canvas.Screen,3_0_5_0_5_0_2,NA,NA,timeout,4996.1479999996,2374987.1,2374973.902,2374989.933,2379969.529,2379970.3,2023-04-09T09:10:54Z,2379986.081,NULL,Zufall,kikuti,d,NA,NA,NA,NA,sdf,0,5,NA,NA,NA,NA,NA,NA,NA,NA,NA,NA,NA,NA,NA,NA,NA,NA,NA,NA,NA
7f47d,deep,flow.Sequence,3_0_5_0_5_0,NA,NA,completion,10774.242,2369184.7,2369178.358,2369195.287,2379969.529,2379970.8,2023-04-09T09:10:54Z,2379986.081,NULL,Zufall,kikuti,d,NA,NA,NA,NA,sdf,NA,5,NA,NA,NA,NA,NA,NA,NA,NA,NA,NA,NA,NA,NA,NA,NA,NA,NA,NA,NA
7f47d,shallow,flow.Sequence,3_0_5_0_5_1,NA,NA,skipped,NA,2379970.9,NA,NA,2379969.529,2379971,2023-04-09T09:10:54Z,2379986.081,NULL,Zufall,kikuti,d,NA,NA,NA,NA,sdf,NA,5,NA,NA,NA,NA,NA,NA,NA,NA,NA,NA,NA,NA,NA,NA,NA,NA,NA,NA,NA
7f47d,task,flow.Sequence,3_0_5_0_5,NA,NA,completion,10774.242,2369184.7,2369178.358,2369195.287,2379969.529,2379971.3,2023-04-09T09:10:54Z,2379986.081,NULL,Zufall,kikuti,d,NA,NA,NA,NA,sdf,NA,5,NA,NA,NA,NA,NA,NA,NA,NA,NA,NA,NA,NA,NA,NA,NA,NA,NA,NA,NA
7f47d,Deep Question,html.Page,3_0_5_0_6_0_0,NA,NA,form submission,9392.7190000121,2379971.6,2379969.529,2379986.081,2389378.8,2389379,2023-04-09T09:11:03Z,2389395.304,NULL,Schock,mshtuko,d,NA,NA,NA,se,NA,NA,5,NA,NA,NA,NA,NA,NA,NA,NA,NA,NA,NA,NA,NA,NA,NA,NA,NA,NA,NA
7f47d,"""Richtig""-Screen",canvas.Screen,3_0_5_0_6_0_1,NA,NA,skipped,NA,2389381.1,NA,NA,2389378.8,2389381.2,2023-04-09T09:11:03Z,2389395.304,NULL,Schock,mshtuko,d,NA,NA,NA,NA,sdf,NA,5,NA,NA,NA,NA,NA,NA,NA,NA,NA,NA,NA,NA,NA,NA,NA,NA,NA,NA,NA
7f47d,"""Falsch""-Screen",canvas.Screen,3_0_5_0_6_0_2,NA,NA,timeout,4996.003,2389381.8,2389362.254,2389395.304,2394374.304,2394375.2,2023-04-09T09:11:08Z,2394391.307,NULL,Schock,mshtuko,d,NA,NA,NA,NA,sdf,0,5,NA,NA,NA,NA,NA,NA,NA,NA,NA,NA,NA,NA,NA,NA,NA,NA,NA,NA,NA
7f47d,deep,flow.Sequence,3_0_5_0_6_0,NA,NA,completion,14388.223,2379971.5,2379969.529,2379986.081,2394374.304,2394375.6,2023-04-09T09:11:08Z,2394391.307,NULL,Schock,mshtuko,d,NA,NA,NA,NA,sdf,NA,5,NA,NA,NA,NA,NA,NA,NA,NA,NA,NA,NA,NA,NA,NA,NA,NA,NA,NA,NA
7f47d,shallow,flow.Sequence,3_0_5_0_6_1,NA,NA,skipped,NA,2394375.8,NA,NA,2394374.304,2394375.9,2023-04-09T09:11:08Z,2394391.307,NULL,Schock,mshtuko,d,NA,NA,NA,NA,sdf,NA,5,NA,NA,NA,NA,NA,NA,NA,NA,NA,NA,NA,NA,NA,NA,NA,NA,NA,NA,NA
7f47d,task,flow.Sequence,3_0_5_0_6,NA,NA,completion,14388.223,2379971.5,2379969.529,2379986.081,2394374.304,2394376.1,2023-04-09T09:11:08Z,2394391.307,NULL,Schock,mshtuko,d,NA,NA,NA,NA,sdf,NA,5,NA,NA,NA,NA,NA,NA,NA,NA,NA,NA,NA,NA,NA,NA,NA,NA,NA,NA,NA
7f47d,Deep Question,html.Page,3_0_5_0_7_0_0,NA,NA,form submission,6106.2930000238,2394376.4,2394374.304,2394391.307,2400497.6,2400497.9,2023-04-09T09:11:14Z,2400502.323,NULL,Theorie,nadharia,d,NA,NA,NA,gr,NA,NA,5,NA,NA,NA,NA,NA,NA,NA,NA,NA,NA,NA,NA,NA,NA,NA,NA,NA,NA,NA
7f47d,"""Richtig""-Screen",canvas.Screen,3_0_5_0_7_0_1,NA,NA,skipped,NA,2400499.7,NA,NA,2400497.6,2400499.9,2023-04-09T09:11:14Z,2400502.323,NULL,Theorie,nadharia,d,NA,NA,NA,NA,sdf,NA,5,NA,NA,NA,NA,NA,NA,NA,NA,NA,NA,NA,NA,NA,NA,NA,NA,NA,NA,NA
7f47d,"""Falsch""-Screen",canvas.Screen,3_0_5_0_7_0_2,NA,NA,timeout,4996.2790000001,2400500.4,2400486.328,2400502.323,2405481.658,2405483.2,2023-04-09T09:11:19Z,2405498.602,NULL,Theorie,nadharia,d,NA,NA,NA,NA,sdf,0,5,NA,NA,NA,NA,NA,NA,NA,NA,NA,NA,NA,NA,NA,NA,NA,NA,NA,NA,NA
7f47d,deep,flow.Sequence,3_0_5_0_7_0,NA,NA,completion,11090.351,2394376.3,2394374.304,2394391.307,2405481.658,2405483.5,2023-04-09T09:11:19Z,2405498.602,NULL,Theorie,nadharia,d,NA,NA,NA,NA,sdf,NA,5,NA,NA,NA,NA,NA,NA,NA,NA,NA,NA,NA,NA,NA,NA,NA,NA,NA,NA,NA
7f47d,shallow,flow.Sequence,3_0_5_0_7_1,NA,NA,skipped,NA,2405483.7,NA,NA,2405481.658,2405483.9,2023-04-09T09:11:19Z,2405498.602,NULL,Theorie,nadharia,d,NA,NA,NA,NA,sdf,NA,5,NA,NA,NA,NA,NA,NA,NA,NA,NA,NA,NA,NA,NA,NA,NA,NA,NA,NA,NA
7f47d,task,flow.Sequence,3_0_5_0_7,NA,NA,completion,11090.351,2394376.3,2394374.304,2394391.307,2405481.658,2405484.2,2023-04-09T09:11:19Z,2405498.602,NULL,Theorie,nadharia,d,NA,NA,NA,NA,sdf,NA,5,NA,NA,NA,NA,NA,NA,NA,NA,NA,NA,NA,NA,NA,NA,NA,NA,NA,NA,NA
7f47d,block,flow.Loop,3_0_5_0,NA,NA,completion,111824.2,2293635.5,2293640.59,2293657.458,2405481.658,2405484.4,2023-04-09T09:11:19Z,2405498.602,NULL,NA,NA,NA,NA,NA,NA,NA,sdf,NA,5,NA,NA,NA,NA,NA,NA,NA,NA,NA,NA,NA,NA,NA,NA,NA,NA,NA,NA,NA
7f47d,weiter,canvas.Screen,3_0_5_1,sdf,keypress(Space),response,1227.4980000239,2405484.5,2405481.658,2405498.602,2406726.1,2406727.2,2023-04-09T09:11:21Z,2406764.033,NULL,NA,NA,NA,NA,NA,NA,NA,sdf,NA,5,NA,NA,NA,NA,NA,NA,NA,NA,NA,NA,NA,NA,NA,NA,NA,NA,NA,NA,NA
7f47d,check continue,flow.Sequence,3_0_5,NA,NA,completion,113068.64200002,2293635.5,2293640.59,2293657.458,2406726.1,2406727.7,2023-04-09T09:11:21Z,2406764.033,NULL,NA,NA,NA,NA,NA,NA,NA,sdf,NA,5,NA,NA,NA,NA,NA,NA,NA,NA,NA,NA,NA,NA,NA,NA,NA,NA,NA,NA,NA
7f47d,deep,flow.Sequence,3_0_6_0_0_0,NA,NA,skipped,NA,2406755.5,NA,NA,2406726.1,2406755.5,2023-04-09T09:11:21Z,2406764.033,NULL,Hoffnung,matarajio,s,kutaalamika,uratibu,mvumbuzi,NA,dfs,NA,6,NA,NA,NA,NA,NA,NA,NA,NA,NA,NA,NA,NA,NA,NA,NA,NA,NA,NA,NA
7f47d,Shallow Question,html.Page,3_0_6_0_0_1_0,NA,NA,form submission,4730.9670000002,2406755.7,2406747.185,2406764.033,2411495,2411495.1,2023-04-09T09:11:25Z,2411510.417,NULL,Hoffnung,matarajio,s,kutaalamika,uratibu,mvumbuzi,matarajio,NA,NA,6,NA,NA,NA,NA,NA,NA,NA,NA,NA,NA,NA,NA,NA,NA,NA,NA,NA,NA,NA
7f47d,"""Richtig""-Screen",canvas.Screen,3_0_6_0_0_1_1,NA,NA,timeout,4995.4720000001,2411497.1,2411493.899,2411510.417,2416489.759,2416490.5,2023-04-09T09:11:30Z,2416505.889,NULL,Hoffnung,matarajio,s,kutaalamika,uratibu,mvumbuzi,NA,dfs,1,6,NA,NA,NA,NA,NA,NA,NA,NA,NA,NA,NA,NA,NA,NA,NA,NA,NA,NA,NA
7f47d,"""Falsch""-Screen",canvas.Screen,3_0_6_0_0_1_2,NA,NA,skipped,NA,2416495.9,NA,NA,2416489.759,2416496.3,2023-04-09T09:11:30Z,2416505.889,NULL,Hoffnung,matarajio,s,kutaalamika,uratibu,mvumbuzi,NA,dfs,NA,6,NA,NA,NA,NA,NA,NA,NA,NA,NA,NA,NA,NA,NA,NA,NA,NA,NA,NA,NA
7f47d,shallow,flow.Sequence,3_0_6_0_0_1,NA,NA,completion,9725.7260000003,2406755.7,2406747.185,2406764.033,2416489.759,2416496.6,2023-04-09T09:11:30Z,2416505.889,NULL,Hoffnung,matarajio,s,kutaalamika,uratibu,mvumbuzi,NA,dfs,NA,6,NA,NA,NA,NA,NA,NA,NA,NA,NA,NA,NA,NA,NA,NA,NA,NA,NA,NA,NA
7f47d,task,flow.Sequence,3_0_6_0_0,NA,NA,completion,9725.7260000003,2406755.5,2406747.185,2406764.033,2416489.759,2416496.9,2023-04-09T09:11:30Z,2416505.889,NULL,Hoffnung,matarajio,s,kutaalamika,uratibu,mvumbuzi,NA,dfs,NA,6,NA,NA,NA,NA,NA,NA,NA,NA,NA,NA,NA,NA,NA,NA,NA,NA,NA,NA,NA
7f47d,deep,flow.Sequence,3_0_6_0_1_0,NA,NA,skipped,NA,2416497.1,NA,NA,2416489.759,2416497.2,2023-04-09T09:11:30Z,2416505.889,NULL,Auftrag,uagizaji,s,ghanima,kuzingatia,msukani,NA,dfs,NA,6,NA,NA,NA,NA,NA,NA,NA,NA,NA,NA,NA,NA,NA,NA,NA,NA,NA,NA,NA
7f47d,Shallow Question,html.Page,3_0_6_0_1_1_0,NA,NA,form submission,5718.8109999881,2416497.3,2416489.759,2416505.889,2422224.7,2422224.9,2023-04-09T09:11:36Z,2422234.509,NULL,Auftrag,uagizaji,s,ghanima,kuzingatia,msukani,uagizaji,NA,NA,6,NA,NA,NA,NA,NA,NA,NA,NA,NA,NA,NA,NA,NA,NA,NA,NA,NA,NA,NA
7f47d,"""Richtig""-Screen",canvas.Screen,3_0_6_0_1_1_1,NA,NA,timeout,4996.0179999997,2422226.6,2422218.438,2422234.509,2427213.967,2427214.8,2023-04-09T09:11:41Z,2427230.527,NULL,Auftrag,uagizaji,s,ghanima,kuzingatia,msukani,NA,dfs,1,6,NA,NA,NA,NA,NA,NA,NA,NA,NA,NA,NA,NA,NA,NA,NA,NA,NA,NA,NA
7f47d,"""Falsch""-Screen",canvas.Screen,3_0_6_0_1_1_2,NA,NA,skipped,NA,2427220.1,NA,NA,2427213.967,2427220.5,2023-04-09T09:11:41Z,2427230.527,NULL,Auftrag,uagizaji,s,ghanima,kuzingatia,msukani,NA,dfs,NA,6,NA,NA,NA,NA,NA,NA,NA,NA,NA,NA,NA,NA,NA,NA,NA,NA,NA,NA,NA
7f47d,shallow,flow.Sequence,3_0_6_0_1_1,NA,NA,completion,10708.078,2416497.3,2416489.759,2416505.889,2427213.967,2427220.9,2023-04-09T09:11:41Z,2427230.527,NULL,Auftrag,uagizaji,s,ghanima,kuzingatia,msukani,NA,dfs,NA,6,NA,NA,NA,NA,NA,NA,NA,NA,NA,NA,NA,NA,NA,NA,NA,NA,NA,NA,NA
7f47d,task,flow.Sequence,3_0_6_0_1,NA,NA,completion,10708.078,2416497.1,2416489.759,2416505.889,2427213.967,2427221.1,2023-04-09T09:11:41Z,2427230.527,NULL,Auftrag,uagizaji,s,ghanima,kuzingatia,msukani,NA,dfs,NA,6,NA,NA,NA,NA,NA,NA,NA,NA,NA,NA,NA,NA,NA,NA,NA,NA,NA,NA,NA
7f47d,Deep Question,html.Page,3_0_6_0_2_0_0,NA,NA,form submission,13033.373000036,2427221.4,2427213.967,2427230.527,2440263.9,2440264,2023-04-09T09:11:54Z,2440269.743,NULL,Schock,mshtuko,d,NA,NA,NA,nu,NA,NA,6,NA,NA,NA,NA,NA,NA,NA,NA,NA,NA,NA,NA,NA,NA,NA,NA,NA,NA,NA
7f47d,"""Richtig""-Screen",canvas.Screen,3_0_6_0_2_0_1,NA,NA,skipped,NA,2440266.1,NA,NA,2440263.9,2440266.2,2023-04-09T09:11:54Z,2440269.743,NULL,Schock,mshtuko,d,NA,NA,NA,NA,dfs,NA,6,NA,NA,NA,NA,NA,NA,NA,NA,NA,NA,NA,NA,NA,NA,NA,NA,NA,NA,NA
7f47d,"""Falsch""-Screen",canvas.Screen,3_0_6_0_2_0_2,NA,NA,timeout,4996.3390000002,2440266.8,2440253.467,2440269.743,2445249.334,2445250.2,2023-04-09T09:11:59Z,2445266.082,NULL,Schock,mshtuko,d,NA,NA,NA,NA,dfs,0,6,NA,NA,NA,NA,NA,NA,NA,NA,NA,NA,NA,NA,NA,NA,NA,NA,NA,NA,NA
7f47d,deep,flow.Sequence,3_0_6_0_2_0,NA,NA,completion,18018.807,2427221.3,2427213.967,2427230.527,2445249.334,2445250.5,2023-04-09T09:11:59Z,2445266.082,NULL,Schock,mshtuko,d,NA,NA,NA,NA,dfs,NA,6,NA,NA,NA,NA,NA,NA,NA,NA,NA,NA,NA,NA,NA,NA,NA,NA,NA,NA,NA
7f47d,shallow,flow.Sequence,3_0_6_0_2_1,NA,NA,skipped,NA,2445250.6,NA,NA,2445249.334,2445250.8,2023-04-09T09:11:59Z,2445266.082,NULL,Schock,mshtuko,d,NA,NA,NA,NA,dfs,NA,6,NA,NA,NA,NA,NA,NA,NA,NA,NA,NA,NA,NA,NA,NA,NA,NA,NA,NA,NA
7f47d,task,flow.Sequence,3_0_6_0_2,NA,NA,completion,18018.807,2427221.2,2427213.967,2427230.527,2445249.334,2445251,2023-04-09T09:11:59Z,2445266.082,NULL,Schock,mshtuko,d,NA,NA,NA,NA,dfs,NA,6,NA,NA,NA,NA,NA,NA,NA,NA,NA,NA,NA,NA,NA,NA,NA,NA,NA,NA,NA
7f47d,deep,flow.Sequence,3_0_6_0_3_0,NA,NA,skipped,NA,2445251.1,NA,NA,2445249.334,2445251.3,2023-04-09T09:11:59Z,2445266.082,NULL,Wettbewerb,ushindani,s,mapendezi,kichocheo,ubaguzi,NA,dfs,NA,6,NA,NA,NA,NA,NA,NA,NA,NA,NA,NA,NA,NA,NA,NA,NA,NA,NA,NA,NA
7f47d,Shallow Question,html.Page,3_0_6_0_3_1_0,NA,NA,form submission,5017.6179999881,2445251.4,2445249.334,2445266.082,2450283.7,2450283.9,2023-04-09T09:12:04Z,2450295.231,NULL,Wettbewerb,ushindani,s,mapendezi,kichocheo,ubaguzi,ushindani,NA,NA,6,NA,NA,NA,NA,NA,NA,NA,NA,NA,NA,NA,NA,NA,NA,NA,NA,NA,NA,NA
7f47d,"""Richtig""-Screen",canvas.Screen,3_0_6_0_3_1_1,NA,NA,timeout,4996.0299999998,2450285.8,2450278.408,2450295.231,2455274.196,2455276.4,2023-04-09T09:12:09Z,2455291.261,NULL,Wettbewerb,ushindani,s,mapendezi,kichocheo,ubaguzi,NA,dfs,1,6,NA,NA,NA,NA,NA,NA,NA,NA,NA,NA,NA,NA,NA,NA,NA,NA,NA,NA,NA
7f47d,"""Falsch""-Screen",canvas.Screen,3_0_6_0_3_1_2,NA,NA,skipped,NA,2455281.8,NA,NA,2455274.196,2455282,2023-04-09T09:12:09Z,2455291.261,NULL,Wettbewerb,ushindani,s,mapendezi,kichocheo,ubaguzi,NA,dfs,NA,6,NA,NA,NA,NA,NA,NA,NA,NA,NA,NA,NA,NA,NA,NA,NA,NA,NA,NA,NA
7f47d,shallow,flow.Sequence,3_0_6_0_3_1,NA,NA,completion,10008.114,2445251.4,2445249.334,2445266.082,2455274.196,2455282.1,2023-04-09T09:12:09Z,2455291.261,NULL,Wettbewerb,ushindani,s,mapendezi,kichocheo,ubaguzi,NA,dfs,NA,6,NA,NA,NA,NA,NA,NA,NA,NA,NA,NA,NA,NA,NA,NA,NA,NA,NA,NA,NA
