observation,sender,sender_type,sender_id,response,response_action,ended_on,duration,time_run,time_render,time_show,time_end,time_commit,timestamp,time_switch,german,swahili,enc,distractor1,distractor2,distractor3,response_2,x,correct,distractors,url_vp,url_sess,meta_labjs_version,meta_location,meta_user_agent,meta_platform,meta_language,meta_locale,meta_time_zone,meta_timezone_offset,meta_screen_width,meta_screen_height,meta_scroll_width,meta_scroll_height,meta_window_inner_width,meta_window_inner_height,meta_device_pixel_ratio,meta_labjs_build_flavor,meta_labjs_build_commit
1efca,Introduction delayed retrieval,canvas.Screen,0,weiter,keypress(Space),response,18340.62,1054,1061.72,1078.38,19419,19463,2023-04-11T17:21:13Z,19465.92,NA,NA,NA,NA,NA,NA,NA,NA,NA,NULL,208,2,20.2.4,https://neurocog.fernuni.ch/studies/vweber/sfink/delayed/index.html?vp=208&sess=2,Mozilla/5.0 (Windows NT 10.0; Win64; x64; rv:109.0) Gecko/20100101 Firefox/111.0,Win32,de,de-CH,Europe/Zurich,-120,1536,864,1536,683,1536,731,1.25,production,f5b4a49f956347addd546a832a3327688c2c0fef
1efca,Deep Question,html.Page,1_0_0_0,NA,NA,form submission,17957.08,19464,19464.02,19465.92,37423,37424,2023-04-11T17:21:31Z,37418.9,Polizist,msongora,s,simanzi,mandhari,nidhamu,oplitete,NA,NA,NULL,NA,NA,NA,NA,NA,NA,NA,NA,NA,NA,NA,NA,NA,NA,NA,NA,NA,NA,NA
1efca,Save data screen,canvas.Screen,1_0_0_1,NA,NA,timeout,500.84,37426,37418.62,37418.9,37903.08,37904,2023-04-11T17:21:32Z,37919.74,Polizist,msongora,s,simanzi,mandhari,nidhamu,NA,NA,0,NULL,NA,NA,NA,NA,NA,NA,NA,NA,NA,NA,NA,NA,NA,NA,NA,NA,NA,NA,NA
1efca,deep,flow.Sequence,1_0_0,NA,NA,completion,18437.16,19464,19464.02,19465.92,37903.08,37905,2023-04-11T17:21:32Z,37919.74,Polizist,msongora,s,simanzi,mandhari,nidhamu,NA,NA,NA,NULL,NA,NA,NA,NA,NA,NA,NA,NA,NA,NA,NA,NA,NA,NA,NA,NA,NA,NA,NA
1efca,task,flow.Sequence,1_0,NA,NA,completion,18437.16,19464,19464.02,19465.92,37903.08,37906,2023-04-11T17:21:32Z,37919.74,Polizist,msongora,s,simanzi,mandhari,nidhamu,NA,NA,NA,NULL,NA,NA,NA,NA,NA,NA,NA,NA,NA,NA,NA,NA,NA,NA,NA,NA,NA,NA,NA
1efca,Deep Question,html.Page,1_1_0_0,NA,NA,form submission,6222.26,37907,37903.08,37919.74,44142,44142,2023-04-11T17:21:38Z,44141.1,Zuwachs,nyongeza,d,matilaba,udhibiti,hudhurio,naher,NA,NA,NULL,NA,NA,NA,NA,NA,NA,NA,NA,NA,NA,NA,NA,NA,NA,NA,NA,NA,NA,NA
1efca,Save data screen,canvas.Screen,1_1_0_1,NA,NA,timeout,503.48,44144,44140.82,44141.1,44627.92,44629,2023-04-11T17:21:39Z,44644.58,Zuwachs,nyongeza,d,matilaba,udhibiti,hudhurio,NA,NA,0,NULL,NA,NA,NA,NA,NA,NA,NA,NA,NA,NA,NA,NA,NA,NA,NA,NA,NA,NA,NA
1efca,deep,flow.Sequence,1_1_0,NA,NA,completion,6708.18,37907,37903.08,37919.74,44627.92,44629,2023-04-11T17:21:39Z,44644.58,Zuwachs,nyongeza,d,matilaba,udhibiti,hudhurio,NA,NA,NA,NULL,NA,NA,NA,NA,NA,NA,NA,NA,NA,NA,NA,NA,NA,NA,NA,NA,NA,NA,NA
1efca,task,flow.Sequence,1_1,NA,NA,completion,6708.18,37906,37903.08,37919.74,44627.92,44629,2023-04-11T17:21:39Z,44644.58,Zuwachs,nyongeza,d,matilaba,udhibiti,hudhurio,NA,NA,NA,NULL,NA,NA,NA,NA,NA,NA,NA,NA,NA,NA,NA,NA,NA,NA,NA,NA,NA,NA,NA
1efca,Deep Question,html.Page,1_2_0_0,NA,NA,form submission,15171.42,44630,44627.92,44644.58,59816,59816,2023-04-11T17:21:54Z,59815.22,Verstand,ufahamivu,d,shakawa,hadhari,mhandisi,nahgera,NA,NA,NULL,NA,NA,NA,NA,NA,NA,NA,NA,NA,NA,NA,NA,NA,NA,NA,NA,NA,NA,NA
1efca,Save data screen,canvas.Screen,1_2_0_1,NA,NA,timeout,499.64,59817,59815.04,59815.22,60298.18,60298,2023-04-11T17:21:54Z,60314.86,Verstand,ufahamivu,d,shakawa,hadhari,mhandisi,NA,NA,0,NULL,NA,NA,NA,NA,NA,NA,NA,NA,NA,NA,NA,NA,NA,NA,NA,NA,NA,NA,NA
1efca,deep,flow.Sequence,1_2_0,NA,NA,completion,15653.6,44630,44627.92,44644.58,60298.18,60299,2023-04-11T17:21:54Z,60314.86,Verstand,ufahamivu,d,shakawa,hadhari,mhandisi,NA,NA,NA,NULL,NA,NA,NA,NA,NA,NA,NA,NA,NA,NA,NA,NA,NA,NA,NA,NA,NA,NA,NA
1efca,task,flow.Sequence,1_2,NA,NA,completion,15653.6,44629,44627.92,44644.58,60298.18,60300,2023-04-11T17:21:54Z,60314.86,Verstand,ufahamivu,d,shakawa,hadhari,mhandisi,NA,NA,NA,NULL,NA,NA,NA,NA,NA,NA,NA,NA,NA,NA,NA,NA,NA,NA,NA,NA,NA,NA,NA
1efca,Deep Question,html.Page,1_3_0_0,NA,NA,form submission,12016.14,60300,60298.18,60314.86,72331,72332,2023-04-11T17:22:06Z,72335.4,Widerstand,usulubu,d,kusababisha,mwalimu,mwenendo,kijutki,NA,NA,NULL,NA,NA,NA,NA,NA,NA,NA,NA,NA,NA,NA,NA,NA,NA,NA,NA,NA,NA,NA
1efca,Save data screen,canvas.Screen,1_3_0_1,NA,NA,timeout,504.10000000001,72332,72330.5,72335.4,72822.84,72824,2023-04-11T17:22:07Z,72839.5,Widerstand,usulubu,d,kusababisha,mwalimu,mwenendo,NA,NA,0,NULL,NA,NA,NA,NA,NA,NA,NA,NA,NA,NA,NA,NA,NA,NA,NA,NA,NA,NA,NA
1efca,deep,flow.Sequence,1_3_0,NA,NA,completion,12507.98,60300,60298.18,60314.86,72822.84,72825,2023-04-11T17:22:07Z,72839.5,Widerstand,usulubu,d,kusababisha,mwalimu,mwenendo,NA,NA,NA,NULL,NA,NA,NA,NA,NA,NA,NA,NA,NA,NA,NA,NA,NA,NA,NA,NA,NA,NA,NA
1efca,task,flow.Sequence,1_3,NA,NA,completion,12507.98,60300,60298.18,60314.86,72822.84,72826,2023-04-11T17:22:07Z,72839.5,Widerstand,usulubu,d,kusababisha,mwalimu,mwenendo,NA,NA,NA,NULL,NA,NA,NA,NA,NA,NA,NA,NA,NA,NA,NA,NA,NA,NA,NA,NA,NA,NA,NA
1efca,Deep Question,html.Page,1_4_0_0,NA,NA,form submission,9828.5,72826,72822.84,72839.5,82668,82669,2023-04-11T17:22:17Z,82667.76,Ausschluss,kutengwa,s,ununuzi,taratibu,madeni,upsulaji,NA,NA,NULL,NA,NA,NA,NA,NA,NA,NA,NA,NA,NA,NA,NA,NA,NA,NA,NA,NA,NA,NA
1efca,Save data screen,canvas.Screen,1_4_0_1,NA,NA,timeout,500.60000000001,82671,82667.56,82667.76,83151.7,83152,2023-04-11T17:22:17Z,83168.36,Ausschluss,kutengwa,s,ununuzi,taratibu,madeni,NA,NA,0,NULL,NA,NA,NA,NA,NA,NA,NA,NA,NA,NA,NA,NA,NA,NA,NA,NA,NA,NA,NA
1efca,deep,flow.Sequence,1_4_0,NA,NA,completion,10312.2,72826,72822.84,72839.5,83151.7,83153,2023-04-11T17:22:17Z,83168.36,Ausschluss,kutengwa,s,ununuzi,taratibu,madeni,NA,NA,NA,NULL,NA,NA,NA,NA,NA,NA,NA,NA,NA,NA,NA,NA,NA,NA,NA,NA,NA,NA,NA
1efca,task,flow.Sequence,1_4,NA,NA,completion,10312.2,72826,72822.84,72839.5,83151.7,83153,2023-04-11T17:22:17Z,83168.36,Ausschluss,kutengwa,s,ununuzi,taratibu,madeni,NA,NA,NA,NULL,NA,NA,NA,NA,NA,NA,NA,NA,NA,NA,NA,NA,NA,NA,NA,NA,NA,NA,NA
1efca,Deep Question,html.Page,1_5_0_0,NA,NA,form submission,11087.64,83153,83151.7,83168.36,94256,94257,2023-04-11T17:22:28Z,94256.44,Wettbewerb,ushindani,s,mapendezi,kichocheo,ubaguzi,mesohar,NA,NA,NULL,NA,NA,NA,NA,NA,NA,NA,NA,NA,NA,NA,NA,NA,NA,NA,NA,NA,NA,NA
1efca,Save data screen,canvas.Screen,1_5_0_1,NA,NA,timeout,503.22,94259,94256.12,94256.44,94743,94744,2023-04-11T17:22:29Z,94759.66,Wettbewerb,ushindani,s,mapendezi,kichocheo,ubaguzi,NA,NA,0,NULL,NA,NA,NA,NA,NA,NA,NA,NA,NA,NA,NA,NA,NA,NA,NA,NA,NA,NA,NA
1efca,deep,flow.Sequence,1_5_0,NA,NA,completion,11574.64,83153,83151.7,83168.36,94743,94744,2023-04-11T17:22:29Z,94759.66,Wettbewerb,ushindani,s,mapendezi,kichocheo,ubaguzi,NA,NA,NA,NULL,NA,NA,NA,NA,NA,NA,NA,NA,NA,NA,NA,NA,NA,NA,NA,NA,NA,NA,NA
1efca,task,flow.Sequence,1_5,NA,NA,completion,11574.64,83153,83151.7,83168.36,94743,94745,2023-04-11T17:22:29Z,94759.66,Wettbewerb,ushindani,s,mapendezi,kichocheo,ubaguzi,NA,NA,NA,NULL,NA,NA,NA,NA,NA,NA,NA,NA,NA,NA,NA,NA,NA,NA,NA,NA,NA,NA,NA
1efca,Deep Question,html.Page,1_6_0_0,NA,NA,form submission,9034.34,94745,94743,94759.66,103794,103794,2023-04-11T17:22:38Z,103793.2,Auftrag,uagizaji,s,ghanima,kuzingatia,msukani,waiti,NA,NA,NULL,NA,NA,NA,NA,NA,NA,NA,NA,NA,NA,NA,NA,NA,NA,NA,NA,NA,NA,NA
1efca,Save data screen,canvas.Screen,1_6_0_1,NA,NA,timeout,507.86,103795,103793.04,103793.2,104284.4,104285,2023-04-11T17:22:38Z,104301.06,Auftrag,uagizaji,s,ghanima,kuzingatia,msukani,NA,NA,0,NULL,NA,NA,NA,NA,NA,NA,NA,NA,NA,NA,NA,NA,NA,NA,NA,NA,NA,NA,NA
1efca,deep,flow.Sequence,1_6_0,NA,NA,completion,9524.74,94745,94743,94759.66,104284.4,104285,2023-04-11T17:22:38Z,104301.06,Auftrag,uagizaji,s,ghanima,kuzingatia,msukani,NA,NA,NA,NULL,NA,NA,NA,NA,NA,NA,NA,NA,NA,NA,NA,NA,NA,NA,NA,NA,NA,NA,NA
1efca,task,flow.Sequence,1_6,NA,NA,completion,9524.74,94745,94743,94759.66,104284.4,104286,2023-04-11T17:22:38Z,104301.06,Auftrag,uagizaji,s,ghanima,kuzingatia,msukani,NA,NA,NA,NULL,NA,NA,NA,NA,NA,NA,NA,NA,NA,NA,NA,NA,NA,NA,NA,NA,NA,NA,NA
1efca,Deep Question,html.Page,1_7_0_0,NA,NA,form submission,22128.94,104286,104284.4,104301.06,126430,126432,2023-04-11T17:23:00Z,126438.14,Sympathie,mapendano,d,dhamiria,fungamano,maazimio,kukuvami,NA,NA,NULL,NA,NA,NA,NA,NA,NA,NA,NA,NA,NA,NA,NA,NA,NA,NA,NA,NA,NA,NA
1efca,Save data screen,canvas.Screen,1_7_0_1,NA,NA,timeout,504.18000000001,126435,126429.42,126438.14,126925.64,126927,2023-04-11T17:23:01Z,126942.32,Sympathie,mapendano,d,dhamiria,fungamano,maazimio,NA,NA,0,NULL,NA,NA,NA,NA,NA,NA,NA,NA,NA,NA,NA,NA,NA,NA,NA,NA,NA,NA,NA
1efca,deep,flow.Sequence,1_7_0,NA,NA,completion,22624.58,104286,104284.4,104301.06,126925.64,126927,2023-04-11T17:23:01Z,126942.32,Sympathie,mapendano,d,dhamiria,fungamano,maazimio,NA,NA,NA,NULL,NA,NA,NA,NA,NA,NA,NA,NA,NA,NA,NA,NA,NA,NA,NA,NA,NA,NA,NA
1efca,task,flow.Sequence,1_7,NA,NA,completion,22624.58,104286,104284.4,104301.06,126925.64,126927,2023-04-11T17:23:01Z,126942.32,Sympathie,mapendano,d,dhamiria,fungamano,maazimio,NA,NA,NA,NULL,NA,NA,NA,NA,NA,NA,NA,NA,NA,NA,NA,NA,NA,NA,NA,NA,NA,NA,NA
1efca,Deep Question,html.Page,1_8_0_0,NA,NA,form submission,16207.68,126928,126925.64,126942.32,143150,143150,2023-04-11T17:23:17Z,143150.28,Schönheit,kirembo,d,mahojiano,msisimko,jitihadi,kimbera,NA,NA,NULL,NA,NA,NA,NA,NA,NA,NA,NA,NA,NA,NA,NA,NA,NA,NA,NA,NA,NA,NA
1efca,Save data screen,canvas.Screen,1_8_0_1,NA,NA,timeout,508.28,143152,143149.3,143150.28,143641.9,143643,2023-04-11T17:23:18Z,143658.56,Schönheit,kirembo,d,mahojiano,msisimko,jitihadi,NA,NA,0,NULL,NA,NA,NA,NA,NA,NA,NA,NA,NA,NA,NA,NA,NA,NA,NA,NA,NA,NA,NA
1efca,deep,flow.Sequence,1_8_0,NA,NA,completion,16699.58,126928,126925.64,126942.32,143641.9,143643,2023-04-11T17:23:18Z,143658.56,Schönheit,kirembo,d,mahojiano,msisimko,jitihadi,NA,NA,NA,NULL,NA,NA,NA,NA,NA,NA,NA,NA,NA,NA,NA,NA,NA,NA,NA,NA,NA,NA,NA
1efca,task,flow.Sequence,1_8,NA,NA,completion,16699.58,126927,126925.64,126942.32,143641.9,143643,2023-04-11T17:23:18Z,143658.56,Schönheit,kirembo,d,mahojiano,msisimko,jitihadi,NA,NA,NA,NULL,NA,NA,NA,NA,NA,NA,NA,NA,NA,NA,NA,NA,NA,NA,NA,NA,NA,NA,NA
1efca,Deep Question,html.Page,1_9_0_0,NA,NA,form submission,11153.44,143643,143641.9,143658.56,154812,154812,2023-04-11T17:23:29Z,154816.72,Konkurrent,mshindani,s,msemaji,mvutaji,kipukusa,usanghini,NA,NA,NULL,NA,NA,NA,NA,NA,NA,NA,NA,NA,NA,NA,NA,NA,NA,NA,NA,NA,NA,NA
1efca,Save data screen,canvas.Screen,1_9_0_1,NA,NA,timeout,508.22,154816,154809.94,154816.72,155308.28,155309,2023-04-11T17:23:29Z,155324.94,Konkurrent,mshindani,s,msemaji,mvutaji,kipukusa,NA,NA,0,NULL,NA,NA,NA,NA,NA,NA,NA,NA,NA,NA,NA,NA,NA,NA,NA,NA,NA,NA,NA
1efca,deep,flow.Sequence,1_9_0,NA,NA,completion,11649.72,143643,143641.9,143658.56,155308.28,155310,2023-04-11T17:23:29Z,155324.94,Konkurrent,mshindani,s,msemaji,mvutaji,kipukusa,NA,NA,NA,NULL,NA,NA,NA,NA,NA,NA,NA,NA,NA,NA,NA,NA,NA,NA,NA,NA,NA,NA,NA
1efca,task,flow.Sequence,1_9,NA,NA,completion,11649.72,143643,143641.9,143658.56,155308.28,155310,2023-04-11T17:23:29Z,155324.94,Konkurrent,mshindani,s,msemaji,mvutaji,kipukusa,NA,NA,NA,NULL,NA,NA,NA,NA,NA,NA,NA,NA,NA,NA,NA,NA,NA,NA,NA,NA,NA,NA,NA
1efca,Deep Question,html.Page,1_10_0_0,NA,NA,form submission,15563.06,155310,155308.28,155324.94,170888,170888,2023-04-11T17:23:45Z,170891.2,Zufall,kikuti,d,kukosekana,uchoraji,leseni,dharare,NA,NA,NULL,NA,NA,NA,NA,NA,NA,NA,NA,NA,NA,NA,NA,NA,NA,NA,NA,NA,NA,NA
1efca,Save data screen,canvas.Screen,1_10_0_1,NA,NA,timeout,491.67999999999,170892,170886.86,170891.2,171366.22,171368,2023-04-11T17:23:45Z,171382.88,Zufall,kikuti,d,kukosekana,uchoraji,leseni,NA,NA,0,NULL,NA,NA,NA,NA,NA,NA,NA,NA,NA,NA,NA,NA,NA,NA,NA,NA,NA,NA,NA
1efca,deep,flow.Sequence,1_10_0,NA,NA,completion,16041.28,155310,155308.28,155324.94,171366.22,171368,2023-04-11T17:23:45Z,171382.88,Zufall,kikuti,d,kukosekana,uchoraji,leseni,NA,NA,NA,NULL,NA,NA,NA,NA,NA,NA,NA,NA,NA,NA,NA,NA,NA,NA,NA,NA,NA,NA,NA
1efca,task,flow.Sequence,1_10,NA,NA,completion,16041.28,155310,155308.28,155324.94,171366.22,171369,2023-04-11T17:23:45Z,171382.88,Zufall,kikuti,d,kukosekana,uchoraji,leseni,NA,NA,NA,NULL,NA,NA,NA,NA,NA,NA,NA,NA,NA,NA,NA,NA,NA,NA,NA,NA,NA,NA,NA
1efca,Deep Question,html.Page,1_11_0_0,NA,NA,form submission,23936.12,171369,171366.22,171382.88,195319,195320,2023-04-11T17:24:09Z,195318.76,Beweis,ushahidi,s,marudio,kizuizi,mtendaji,yoyoma,NA,NA,NULL,NA,NA,NA,NA,NA,NA,NA,NA,NA,NA,NA,NA,NA,NA,NA,NA,NA,NA,NA
1efca,Save data screen,canvas.Screen,1_11_0_1,NA,NA,timeout,505.28,195323,195318.54,195318.76,195807.38,195808,2023-04-11T17:24:10Z,195824.04,Beweis,ushahidi,s,marudio,kizuizi,mtendaji,NA,NA,0,NULL,NA,NA,NA,NA,NA,NA,NA,NA,NA,NA,NA,NA,NA,NA,NA,NA,NA,NA,NA
1efca,deep,flow.Sequence,1_11_0,NA,NA,completion,24424.5,171369,171366.22,171382.88,195807.38,195808,2023-04-11T17:24:10Z,195824.04,Beweis,ushahidi,s,marudio,kizuizi,mtendaji,NA,NA,NA,NULL,NA,NA,NA,NA,NA,NA,NA,NA,NA,NA,NA,NA,NA,NA,NA,NA,NA,NA,NA
1efca,task,flow.Sequence,1_11,NA,NA,completion,24424.5,171369,171366.22,171382.88,195807.38,195809,2023-04-11T17:24:10Z,195824.04,Beweis,ushahidi,s,marudio,kizuizi,mtendaji,NA,NA,NA,NULL,NA,NA,NA,NA,NA,NA,NA,NA,NA,NA,NA,NA,NA,NA,NA,NA,NA,NA,NA
1efca,Deep Question,html.Page,1_12_0_0,NA,NA,form submission,14771.96,195809,195807.38,195824.04,210596,210596,2023-04-11T17:24:24Z,210595.26,Vorsorge,tahadhari,s,ufafanuzi,makini,mashambani,mashare,NA,NA,NULL,NA,NA,NA,NA,NA,NA,NA,NA,NA,NA,NA,NA,NA,NA,NA,NA,NA,NA,NA
1efca,Save data screen,canvas.Screen,1_12_0_1,NA,NA,timeout,495.03999999998,210598,210595.08,210595.26,211073.62,211074,2023-04-11T17:24:25Z,211090.3,Vorsorge,tahadhari,s,ufafanuzi,makini,mashambani,NA,NA,0,NULL,NA,NA,NA,NA,NA,NA,NA,NA,NA,NA,NA,NA,NA,NA,NA,NA,NA,NA,NA
1efca,deep,flow.Sequence,1_12_0,NA,NA,completion,15249.58,195809,195807.38,195824.04,211073.62,211075,2023-04-11T17:24:25Z,211090.3,Vorsorge,tahadhari,s,ufafanuzi,makini,mashambani,NA,NA,NA,NULL,NA,NA,NA,NA,NA,NA,NA,NA,NA,NA,NA,NA,NA,NA,NA,NA,NA,NA,NA
1efca,task,flow.Sequence,1_12,NA,NA,completion,15249.58,195809,195807.38,195824.04,211073.62,211075,2023-04-11T17:24:25Z,211090.3,Vorsorge,tahadhari,s,ufafanuzi,makini,mashambani,NA,NA,NA,NULL,NA,NA,NA,NA,NA,NA,NA,NA,NA,NA,NA,NA,NA,NA,NA,NA,NA,NA,NA
1efca,Deep Question,html.Page,1_13_0_0,NA,NA,form submission,20003.7,211075,211073.62,211090.3,231094,231094,2023-04-11T17:24:45Z,231094.12,Gelegenheit,wakati,s,mchanganyiko,kipaumbele,kushuku,nhakater,NA,NA,NULL,NA,NA,NA,NA,NA,NA,NA,NA,NA,NA,NA,NA,NA,NA,NA,NA,NA,NA,NA
1efca,Save data screen,canvas.Screen,1_13_0_1,NA,NA,timeout,504.10000000001,231095,231093.02,231094.12,231581.56,231582,2023-04-11T17:24:45Z,231598.22,Gelegenheit,wakati,s,mchanganyiko,kipaumbele,kushuku,NA,NA,0,NULL,NA,NA,NA,NA,NA,NA,NA,NA,NA,NA,NA,NA,NA,NA,NA,NA,NA,NA,NA
1efca,deep,flow.Sequence,1_13_0,NA,NA,completion,20491.26,211075,211073.62,211090.3,231581.56,231582,2023-04-11T17:24:45Z,231598.22,Gelegenheit,wakati,s,mchanganyiko,kipaumbele,kushuku,NA,NA,NA,NULL,NA,NA,NA,NA,NA,NA,NA,NA,NA,NA,NA,NA,NA,NA,NA,NA,NA,NA,NA
1efca,task,flow.Sequence,1_13,NA,NA,completion,20491.26,211075,211073.62,211090.3,231581.56,231582,2023-04-11T17:24:45Z,231598.22,Gelegenheit,wakati,s,mchanganyiko,kipaumbele,kushuku,NA,NA,NA,NULL,NA,NA,NA,NA,NA,NA,NA,NA,NA,NA,NA,NA,NA,NA,NA,NA,NA,NA,NA
1efca,Deep Question,html.Page,1_14_0_0,NA,NA,form submission,16962.78,231583,231581.56,231598.22,248561,248561,2023-04-11T17:25:02Z,248572.9,Symbol,kielezo,d,kinyume,nderemo,utayari,mshoe,NA,NA,NULL,NA,NA,NA,NA,NA,NA,NA,NA,NA,NA,NA,NA,NA,NA,NA,NA,NA,NA,NA
1efca,Save data screen,canvas.Screen,1_14_0_1,NA,NA,timeout,508.30000000002,248562,248559.84,248572.9,249064.54,249066,2023-04-11T17:25:03Z,249081.2,Symbol,kielezo,d,kinyume,nderemo,utayari,NA,NA,0,NULL,NA,NA,NA,NA,NA,NA,NA,NA,NA,NA,NA,NA,NA,NA,NA,NA,NA,NA,NA
1efca,deep,flow.Sequence,1_14_0,NA,NA,completion,17466.32,231583,231581.56,231598.22,249064.54,249066,2023-04-11T17:25:03Z,249081.2,Symbol,kielezo,d,kinyume,nderemo,utayari,NA,NA,NA,NULL,NA,NA,NA,NA,NA,NA,NA,NA,NA,NA,NA,NA,NA,NA,NA,NA,NA,NA,NA
1efca,task,flow.Sequence,1_14,NA,NA,completion,17466.32,231583,231581.56,231598.22,249064.54,249066,2023-04-11T17:25:03Z,249081.2,Symbol,kielezo,d,kinyume,nderemo,utayari,NA,NA,NA,NULL,NA,NA,NA,NA,NA,NA,NA,NA,NA,NA,NA,NA,NA,NA,NA,NA,NA,NA,NA
1efca,Deep Question,html.Page,1_15_0_0,NA,NA,form submission,24746.8,249066,249064.54,249081.2,273828,273828,2023-04-11T17:25:28Z,273830.66,Annäherung,maegesho,d,madahili,kujiamini,mapendekezo,mashoe,NA,NA,NULL,NA,NA,NA,NA,NA,NA,NA,NA,NA,NA,NA,NA,NA,NA,NA,NA,NA,NA,NA
1efca,Save data screen,canvas.Screen,1_15_0_1,NA,NA,timeout,508.22000000003,273829,273827.96,273830.66,274322.22,274323,2023-04-11T17:25:28Z,274338.88,Annäherung,maegesho,d,madahili,kujiamini,mapendekezo,NA,NA,0,NULL,NA,NA,NA,NA,NA,NA,NA,NA,NA,NA,NA,NA,NA,NA,NA,NA,NA,NA,NA
1efca,deep,flow.Sequence,1_15_0,NA,NA,completion,25241.02,249066,249064.54,249081.2,274322.22,274323,2023-04-11T17:25:28Z,274338.88,Annäherung,maegesho,d,madahili,kujiamini,mapendekezo,NA,NA,NA,NULL,NA,NA,NA,NA,NA,NA,NA,NA,NA,NA,NA,NA,NA,NA,NA,NA,NA,NA,NA
1efca,task,flow.Sequence,1_15,NA,NA,completion,25241.02,249066,249064.54,249081.2,274322.22,274323,2023-04-11T17:25:28Z,274338.88,Annäherung,maegesho,d,madahili,kujiamini,mapendekezo,NA,NA,NA,NULL,NA,NA,NA,NA,NA,NA,NA,NA,NA,NA,NA,NA,NA,NA,NA,NA,NA,NA,NA
1efca,retrieval block 1 (cued recall),flow.Loop,1,NA,NA,completion,254856.3,19464,19464.02,19465.92,274322.22,274323,2023-04-11T17:25:28Z,274338.88,NA,NA,NA,NA,NA,NA,NA,NA,NA,NULL,NA,NA,NA,NA,NA,NA,NA,NA,NA,NA,NA,NA,NA,NA,NA,NA,NA,NA,NA
1efca,Shallow Question,html.Page,2_0_0_0,NA,NA,form submission,17873.12,274323,274322.22,274338.88,292212,292212,2023-04-11T17:25:46Z,292217.78,Zufall,kikuti,d,kukosekana,uchoraji,leseni,kikuti,NA,NA,"c(""distractor1"", ""distractor2"", ""distractor3"")",NA,NA,NA,NA,NA,NA,NA,NA,NA,NA,NA,NA,NA,NA,NA,NA,NA,NA,NA
1efca,Save data screen,canvas.Screen,2_0_0_1,NA,NA,timeout,491.69999999995,292213,292210.96,292217.78,292692.82,292693,2023-04-11T17:25:47Z,292709.48,Zufall,kikuti,d,kukosekana,uchoraji,leseni,NA,NA,1,"c(""distractor1"", ""distractor2"", ""distractor3"")",NA,NA,NA,NA,NA,NA,NA,NA,NA,NA,NA,NA,NA,NA,NA,NA,NA,NA,NA
1efca,shallow,flow.Sequence,2_0_0,NA,NA,completion,18353.94,274323,274322.22,274338.88,292692.82,292694,2023-04-11T17:25:47Z,292709.48,Zufall,kikuti,d,kukosekana,uchoraji,leseni,NA,NA,NA,"c(""distractor1"", ""distractor2"", ""distractor3"")",NA,NA,NA,NA,NA,NA,NA,NA,NA,NA,NA,NA,NA,NA,NA,NA,NA,NA,NA
1efca,task,flow.Sequence,2_0,NA,NA,completion,18353.94,274323,274322.22,274338.88,292692.82,292694,2023-04-11T17:25:47Z,292709.48,Zufall,kikuti,d,kukosekana,uchoraji,leseni,NA,NA,NA,"c(""distractor1"", ""distractor2"", ""distractor3"")",NA,NA,NA,NA,NA,NA,NA,NA,NA,NA,NA,NA,NA,NA,NA,NA,NA,NA,NA
1efca,Shallow Question,html.Page,2_1_0_0,NA,NA,form submission,8617.52,292695,292692.82,292709.48,301327,301327,2023-04-11T17:25:55Z,301334.14,Sympathie,mapendano,d,dhamiria,fungamano,maazimio,mapendano,NA,NA,"c(""distractor1"", ""distractor2"", ""distractor3"")",NA,NA,NA,NA,NA,NA,NA,NA,NA,NA,NA,NA,NA,NA,NA,NA,NA,NA,NA
1efca,Save data screen,canvas.Screen,2_1_0_1,NA,NA,timeout,495.83999999997,301328,301326.2,301334.14,301813.32,301814,2023-04-11T17:25:56Z,301829.98,Sympathie,mapendano,d,dhamiria,fungamano,maazimio,NA,NA,1,"c(""distractor1"", ""distractor2"", ""distractor3"")",NA,NA,NA,NA,NA,NA,NA,NA,NA,NA,NA,NA,NA,NA,NA,NA,NA,NA,NA
1efca,shallow,flow.Sequence,2_1_0,NA,NA,completion,9103.84,292695,292692.82,292709.48,301813.32,301814,2023-04-11T17:25:56Z,301829.98,Sympathie,mapendano,d,dhamiria,fungamano,maazimio,NA,NA,NA,"c(""distractor1"", ""distractor2"", ""distractor3"")",NA,NA,NA,NA,NA,NA,NA,NA,NA,NA,NA,NA,NA,NA,NA,NA,NA,NA,NA
1efca,task,flow.Sequence,2_1,NA,NA,completion,9103.84,292694,292692.82,292709.48,301813.32,301815,2023-04-11T17:25:56Z,301829.98,Sympathie,mapendano,d,dhamiria,fungamano,maazimio,NA,NA,NA,"c(""distractor1"", ""distractor2"", ""distractor3"")",NA,NA,NA,NA,NA,NA,NA,NA,NA,NA,NA,NA,NA,NA,NA,NA,NA,NA,NA
1efca,Shallow Question,html.Page,2_2_0_0,NA,NA,form submission,6583.02,301815,301813.32,301829.98,308413,308413,2023-04-11T17:26:02Z,308417.22,Konkurrent,mshindani,s,msemaji,mvutaji,kipukusa,msemaji,NA,NA,"c(""distractor1"", ""distractor2"", ""distractor3"")",NA,NA,NA,NA,NA,NA,NA,NA,NA,NA,NA,NA,NA,NA,NA,NA,NA,NA,NA
1efca,Save data screen,canvas.Screen,2_2_0_1,NA,NA,timeout,504.14000000001,308413,308411.18,308417.22,308904.7,308905,2023-04-11T17:26:03Z,308921.36,Konkurrent,mshindani,s,msemaji,mvutaji,kipukusa,NA,NA,0,"c(""distractor1"", ""distractor2"", ""distractor3"")",NA,NA,NA,NA,NA,NA,NA,NA,NA,NA,NA,NA,NA,NA,NA,NA,NA,NA,NA
1efca,shallow,flow.Sequence,2_2_0,NA,NA,completion,7074.72,301815,301813.32,301829.98,308904.7,308906,2023-04-11T17:26:03Z,308921.36,Konkurrent,mshindani,s,msemaji,mvutaji,kipukusa,NA,NA,NA,"c(""distractor1"", ""distractor2"", ""distractor3"")",NA,NA,NA,NA,NA,NA,NA,NA,NA,NA,NA,NA,NA,NA,NA,NA,NA,NA,NA
1efca,task,flow.Sequence,2_2,NA,NA,completion,7074.72,301815,301813.32,301829.98,308904.7,308906,2023-04-11T17:26:03Z,308921.36,Konkurrent,mshindani,s,msemaji,mvutaji,kipukusa,NA,NA,NA,"c(""distractor1"", ""distractor2"", ""distractor3"")",NA,NA,NA,NA,NA,NA,NA,NA,NA,NA,NA,NA,NA,NA,NA,NA,NA,NA,NA
1efca,Shallow Question,html.Page,2_3_0_0,NA,NA,form submission,6598.64,308906,308904.7,308921.36,315520,315521,2023-04-11T17:26:09Z,315525.22,Widerstand,usulubu,d,kusababisha,mwalimu,mwenendo,usulubu,NA,NA,"c(""distractor1"", ""distractor2"", ""distractor3"")",NA,NA,NA,NA,NA,NA,NA,NA,NA,NA,NA,NA,NA,NA,NA,NA,NA,NA,NA
1efca,Save data screen,canvas.Screen,2_3_0_1,NA,NA,timeout,491.70000000001,315522,315519.54,315525.22,316000.24,316001,2023-04-11T17:26:10Z,316016.92,Widerstand,usulubu,d,kusababisha,mwalimu,mwenendo,NA,NA,1,"c(""distractor1"", ""distractor2"", ""distractor3"")",NA,NA,NA,NA,NA,NA,NA,NA,NA,NA,NA,NA,NA,NA,NA,NA,NA,NA,NA
1efca,shallow,flow.Sequence,2_3_0,NA,NA,completion,7078.88,308906,308904.7,308921.36,316000.24,316002,2023-04-11T17:26:10Z,316016.92,Widerstand,usulubu,d,kusababisha,mwalimu,mwenendo,NA,NA,NA,"c(""distractor1"", ""distractor2"", ""distractor3"")",NA,NA,NA,NA,NA,NA,NA,NA,NA,NA,NA,NA,NA,NA,NA,NA,NA,NA,NA
1efca,task,flow.Sequence,2_3,NA,NA,completion,7078.88,308906,308904.7,308921.36,316000.24,316003,2023-04-11T17:26:10Z,316016.92,Widerstand,usulubu,d,kusababisha,mwalimu,mwenendo,NA,NA,NA,"c(""distractor1"", ""distractor2"", ""distractor3"")",NA,NA,NA,NA,NA,NA,NA,NA,NA,NA,NA,NA,NA,NA,NA,NA,NA,NA,NA
1efca,Shallow Question,html.Page,2_4_0_0,NA,NA,form submission,8042.08,316004,316000.24,316016.92,324059,324059,2023-04-11T17:26:18Z,324066.58,Wettbewerb,ushindani,s,mapendezi,kichocheo,ubaguzi,ushindani,NA,NA,"c(""distractor1"", ""distractor2"", ""distractor3"")",NA,NA,NA,NA,NA,NA,NA,NA,NA,NA,NA,NA,NA,NA,NA,NA,NA,NA,NA
1efca,Save data screen,canvas.Screen,2_4_0_1,NA,NA,timeout,491.70000000001,324063,324056.9,324066.58,324541.6,324542,2023-04-11T17:26:18Z,324558.28,Wettbewerb,ushindani,s,mapendezi,kichocheo,ubaguzi,NA,NA,1,"c(""distractor1"", ""distractor2"", ""distractor3"")",NA,NA,NA,NA,NA,NA,NA,NA,NA,NA,NA,NA,NA,NA,NA,NA,NA,NA,NA
1efca,shallow,flow.Sequence,2_4_0,NA,NA,completion,8524.68,316004,316000.24,316016.92,324541.6,324543,2023-04-11T17:26:18Z,324558.28,Wettbewerb,ushindani,s,mapendezi,kichocheo,ubaguzi,NA,NA,NA,"c(""distractor1"", ""distractor2"", ""distractor3"")",NA,NA,NA,NA,NA,NA,NA,NA,NA,NA,NA,NA,NA,NA,NA,NA,NA,NA,NA
1efca,task,flow.Sequence,2_4,NA,NA,completion,8524.68,316004,316000.24,316016.92,324541.6,324543,2023-04-11T17:26:18Z,324558.28,Wettbewerb,ushindani,s,mapendezi,kichocheo,ubaguzi,NA,NA,NA,"c(""distractor1"", ""distractor2"", ""distractor3"")",NA,NA,NA,NA,NA,NA,NA,NA,NA,NA,NA,NA,NA,NA,NA,NA,NA,NA,NA
1efca,Shallow Question,html.Page,2_5_0_0,NA,NA,form submission,11069.72,324544,324541.6,324558.28,335628,335628,2023-04-11T17:26:30Z,335624.66,Zuwachs,nyongeza,d,matilaba,udhibiti,hudhurio,nyongeza,NA,NA,"c(""distractor1"", ""distractor2"", ""distractor3"")",NA,NA,NA,NA,NA,NA,NA,NA,NA,NA,NA,NA,NA,NA,NA,NA,NA,NA,NA
1efca,Save data screen,canvas.Screen,2_5_0_1,NA,NA,timeout,491.70000000001,335633,335624.26,335624.66,336099.7,336101,2023-04-11T17:26:30Z,336116.36,Zuwachs,nyongeza,d,matilaba,udhibiti,hudhurio,NA,NA,1,"c(""distractor1"", ""distractor2"", ""distractor3"")",NA,NA,NA,NA,NA,NA,NA,NA,NA,NA,NA,NA,NA,NA,NA,NA,NA,NA,NA
1efca,shallow,flow.Sequence,2_5_0,NA,NA,completion,11541.42,324544,324541.6,324558.28,336099.7,336102,2023-04-11T17:26:30Z,336116.36,Zuwachs,nyongeza,d,matilaba,udhibiti,hudhurio,NA,NA,NA,"c(""distractor1"", ""distractor2"", ""distractor3"")",NA,NA,NA,NA,NA,NA,NA,NA,NA,NA,NA,NA,NA,NA,NA,NA,NA,NA,NA
1efca,task,flow.Sequence,2_5,NA,NA,completion,11541.42,324544,324541.6,324558.28,336099.7,336102,2023-04-11T17:26:30Z,336116.36,Zuwachs,nyongeza,d,matilaba,udhibiti,hudhurio,NA,NA,NA,"c(""distractor1"", ""distractor2"", ""distractor3"")",NA,NA,NA,NA,NA,NA,NA,NA,NA,NA,NA,NA,NA,NA,NA,NA,NA,NA,NA
1efca,Shallow Question,html.Page,2_6_0_0,NA,NA,form submission,7993.64,336105,336099.7,336116.36,344110,344110,2023-04-11T17:26:38Z,344120.12,Auftrag,uagizaji,s,ghanima,kuzingatia,msukani,uagizaji,NA,NA,"c(""distractor1"", ""distractor2"", ""distractor3"")",NA,NA,NA,NA,NA,NA,NA,NA,NA,NA,NA,NA,NA,NA,NA,NA,NA,NA,NA
1efca,Save data screen,canvas.Screen,2_6_0_1,NA,NA,timeout,508.29999999999,344112,344108.24,344120.12,344611.76,344613,2023-04-11T17:26:38Z,344628.42,Auftrag,uagizaji,s,ghanima,kuzingatia,msukani,NA,NA,1,"c(""distractor1"", ""distractor2"", ""distractor3"")",NA,NA,NA,NA,NA,NA,NA,NA,NA,NA,NA,NA,NA,NA,NA,NA,NA,NA,NA
1efca,shallow,flow.Sequence,2_6_0,NA,NA,completion,8495.4,336104,336099.7,336116.36,344611.76,344613,2023-04-11T17:26:38Z,344628.42,Auftrag,uagizaji,s,ghanima,kuzingatia,msukani,NA,NA,NA,"c(""distractor1"", ""distractor2"", ""distractor3"")",NA,NA,NA,NA,NA,NA,NA,NA,NA,NA,NA,NA,NA,NA,NA,NA,NA,NA,NA
1efca,task,flow.Sequence,2_6,NA,NA,completion,8495.4,336104,336099.7,336116.36,344611.76,344613,2023-04-11T17:26:38Z,344628.42,Auftrag,uagizaji,s,ghanima,kuzingatia,msukani,NA,NA,NA,"c(""distractor1"", ""distractor2"", ""distractor3"")",NA,NA,NA,NA,NA,NA,NA,NA,NA,NA,NA,NA,NA,NA,NA,NA,NA,NA,NA
1efca,Shallow Question,html.Page,2_7_0_0,NA,NA,form submission,8104.58,344613,344611.76,344628.42,352733,352733,2023-04-11T17:26:47Z,352732.32,Vorsorge,tahadhari,s,ufafanuzi,makini,mashambani,tahadhari,NA,NA,"c(""distractor1"", ""distractor2"", ""distractor3"")",NA,NA,NA,NA,NA,NA,NA,NA,NA,NA,NA,NA,NA,NA,NA,NA,NA,NA,NA
1efca,Save data screen,canvas.Screen,2_7_0_1,NA,NA,timeout,504.15999999997,352735,352732.06,352732.32,353219.82,353220,2023-04-11T17:26:47Z,353236.48,Vorsorge,tahadhari,s,ufafanuzi,makini,mashambani,NA,NA,1,"c(""distractor1"", ""distractor2"", ""distractor3"")",NA,NA,NA,NA,NA,NA,NA,NA,NA,NA,NA,NA,NA,NA,NA,NA,NA,NA,NA
1efca,shallow,flow.Sequence,2_7_0,NA,NA,completion,8591.4,344613,344611.76,344628.42,353219.82,353220,2023-04-11T17:26:47Z,353236.48,Vorsorge,tahadhari,s,ufafanuzi,makini,mashambani,NA,NA,NA,"c(""distractor1"", ""distractor2"", ""distractor3"")",NA,NA,NA,NA,NA,NA,NA,NA,NA,NA,NA,NA,NA,NA,NA,NA,NA,NA,NA
1efca,task,flow.Sequence,2_7,NA,NA,completion,8591.4,344613,344611.76,344628.42,353219.82,353221,2023-04-11T17:26:47Z,353236.48,Vorsorge,tahadhari,s,ufafanuzi,makini,mashambani,NA,NA,NA,"c(""distractor1"", ""distractor2"", ""distractor3"")",NA,NA,NA,NA,NA,NA,NA,NA,NA,NA,NA,NA,NA,NA,NA,NA,NA,NA,NA
1efca,Shallow Question,html.Page,2_8_0_0,NA,NA,form submission,6598.52,353221,353219.82,353236.48,359835,359835,2023-04-11T17:26:54Z,359840.32,Symbol,kielezo,d,kinyume,nderemo,utayari,kielezo,NA,NA,"c(""distractor1"", ""distractor2"", ""distractor3"")",NA,NA,NA,NA,NA,NA,NA,NA,NA,NA,NA,NA,NA,NA,NA,NA,NA,NA,NA
1efca,Save data screen,canvas.Screen,2_8_0_1,NA,NA,timeout,491.70000000001,359836,359833.54,359840.32,360315.36,360316,2023-04-11T17:26:54Z,360332.02,Symbol,kielezo,d,kinyume,nderemo,utayari,NA,NA,1,"c(""distractor1"", ""distractor2"", ""distractor3"")",NA,NA,NA,NA,NA,NA,NA,NA,NA,NA,NA,NA,NA,NA,NA,NA,NA,NA,NA
1efca,shallow,flow.Sequence,2_8_0,NA,NA,completion,7078.88,353221,353219.82,353236.48,360315.36,360316,2023-04-11T17:26:54Z,360332.02,Symbol,kielezo,d,kinyume,nderemo,utayari,NA,NA,NA,"c(""distractor1"", ""distractor2"", ""distractor3"")",NA,NA,NA,NA,NA,NA,NA,NA,NA,NA,NA,NA,NA,NA,NA,NA,NA,NA,NA
1efca,task,flow.Sequence,2_8,NA,NA,completion,7078.88,353221,353219.82,353236.48,360315.36,360316,2023-04-11T17:26:54Z,360332.02,Symbol,kielezo,d,kinyume,nderemo,utayari,NA,NA,NA,"c(""distractor1"", ""distractor2"", ""distractor3"")",NA,NA,NA,NA,NA,NA,NA,NA,NA,NA,NA,NA,NA,NA,NA,NA,NA,NA,NA
1efca,Shallow Question,html.Page,2_9_0_0,NA,NA,form submission,8055.98,360317,360315.36,360332.02,368388,368388,2023-04-11T17:27:02Z,368402.52,Gelegenheit,wakati,s,mchanganyiko,kipaumbele,kushuku,wakati,NA,NA,"c(""distractor1"", ""distractor2"", ""distractor3"")",NA,NA,NA,NA,NA,NA,NA,NA,NA,NA,NA,NA,NA,NA,NA,NA,NA,NA,NA
1efca,Save data screen,canvas.Screen,2_9_0_1,NA,NA,timeout,508.32000000001,368390,368386.94,368402.52,368894.16,368895,2023-04-11T17:27:03Z,368910.84,Gelegenheit,wakati,s,mchanganyiko,kipaumbele,kushuku,NA,NA,1,"c(""distractor1"", ""distractor2"", ""distractor3"")",NA,NA,NA,NA,NA,NA,NA,NA,NA,NA,NA,NA,NA,NA,NA,NA,NA,NA,NA
1efca,shallow,flow.Sequence,2_9_0,NA,NA,completion,8562.14,360317,360315.36,360332.02,368894.16,368895,2023-04-11T17:27:03Z,368910.84,Gelegenheit,wakati,s,mchanganyiko,kipaumbele,kushuku,NA,NA,NA,"c(""distractor1"", ""distractor2"", ""distractor3"")",NA,NA,NA,NA,NA,NA,NA,NA,NA,NA,NA,NA,NA,NA,NA,NA,NA,NA,NA
1efca,task,flow.Sequence,2_9,NA,NA,completion,8562.14,360316,360315.36,360332.02,368894.16,368895,2023-04-11T17:27:03Z,368910.84,Gelegenheit,wakati,s,mchanganyiko,kipaumbele,kushuku,NA,NA,NA,"c(""distractor1"", ""distractor2"", ""distractor3"")",NA,NA,NA,NA,NA,NA,NA,NA,NA,NA,NA,NA,NA,NA,NA,NA,NA,NA,NA
1efca,Shallow Question,html.Page,2_10_0_0,NA,NA,form submission,8977.16,368895,368894.16,368910.84,377888,377888,2023-04-11T17:27:12Z,377902.14,Annäherung,maegesho,d,madahili,kujiamini,mapendekezo,maegesho,NA,NA,"c(""distractor1"", ""distractor2"", ""distractor3"")",NA,NA,NA,NA,NA,NA,NA,NA,NA,NA,NA,NA,NA,NA,NA,NA,NA,NA,NA
1efca,Save data screen,canvas.Screen,2_10_0_1,NA,NA,timeout,491.70000000001,377892,377885.64,377902.14,378377.18,378378,2023-04-11T17:27:12Z,378393.84,Annäherung,maegesho,d,madahili,kujiamini,mapendekezo,NA,NA,1,"c(""distractor1"", ""distractor2"", ""distractor3"")",NA,NA,NA,NA,NA,NA,NA,NA,NA,NA,NA,NA,NA,NA,NA,NA,NA,NA,NA
1efca,shallow,flow.Sequence,2_10_0,NA,NA,completion,9466.34,368895,368894.16,368910.84,378377.18,378379,2023-04-11T17:27:12Z,378393.84,Annäherung,maegesho,d,madahili,kujiamini,mapendekezo,NA,NA,NA,"c(""distractor1"", ""distractor2"", ""distractor3"")",NA,NA,NA,NA,NA,NA,NA,NA,NA,NA,NA,NA,NA,NA,NA,NA,NA,NA,NA
1efca,task,flow.Sequence,2_10,NA,NA,completion,9466.34,368895,368894.16,368910.84,378377.18,378379,2023-04-11T17:27:12Z,378393.84,Annäherung,maegesho,d,madahili,kujiamini,mapendekezo,NA,NA,NA,"c(""distractor1"", ""distractor2"", ""distractor3"")",NA,NA,NA,NA,NA,NA,NA,NA,NA,NA,NA,NA,NA,NA,NA,NA,NA,NA,NA
1efca,Shallow Question,html.Page,2_11_0_0,NA,NA,form submission,8739.16,378379,378377.18,378393.84,387133,387133,2023-04-11T17:27:21Z,387135.14,Polizist,msongora,s,simanzi,mandhari,nidhamu,msongora,NA,NA,"c(""distractor1"", ""distractor2"", ""distractor3"")",NA,NA,NA,NA,NA,NA,NA,NA,NA,NA,NA,NA,NA,NA,NA,NA,NA,NA,NA
1efca,Save data screen,canvas.Screen,2_11_0_1,NA,NA,timeout,504.15999999997,387136,387130.5,387135.14,387622.66,387624,2023-04-11T17:27:21Z,387639.3,Polizist,msongora,s,simanzi,mandhari,nidhamu,NA,NA,1,"c(""distractor1"", ""distractor2"", ""distractor3"")",NA,NA,NA,NA,NA,NA,NA,NA,NA,NA,NA,NA,NA,NA,NA,NA,NA,NA,NA
1efca,shallow,flow.Sequence,2_11_0,NA,NA,completion,9228.8199999999,378379,378377.18,378393.84,387622.66,387624,2023-04-11T17:27:21Z,387639.3,Polizist,msongora,s,simanzi,mandhari,nidhamu,NA,NA,NA,"c(""distractor1"", ""distractor2"", ""distractor3"")",NA,NA,NA,NA,NA,NA,NA,NA,NA,NA,NA,NA,NA,NA,NA,NA,NA,NA,NA
1efca,task,flow.Sequence,2_11,NA,NA,completion,9228.8199999999,378379,378377.18,378393.84,387622.66,387625,2023-04-11T17:27:21Z,387639.3,Polizist,msongora,s,simanzi,mandhari,nidhamu,NA,NA,NA,"c(""distractor1"", ""distractor2"", ""distractor3"")",NA,NA,NA,NA,NA,NA,NA,NA,NA,NA,NA,NA,NA,NA,NA,NA,NA,NA,NA
1efca,Shallow Question,html.Page,2_12_0_0,NA,NA,form submission,10171.7,387625,387622.66,387639.3,397811,397811,2023-04-11T17:27:32Z,397822.2,Verstand,ufahamivu,d,shakawa,hadhari,mhandisi,ufahamivu,NA,NA,"c(""distractor1"", ""distractor2"", ""distractor3"")",NA,NA,NA,NA,NA,NA,NA,NA,NA,NA,NA,NA,NA,NA,NA,NA,NA,NA,NA
1efca,Save data screen,canvas.Screen,2_12_0_1,NA,NA,timeout,504.26000000001,397813,397809.2,397822.2,398309.78,398310,2023-04-11T17:27:32Z,398326.46,Verstand,ufahamivu,d,shakawa,hadhari,mhandisi,NA,NA,1,"c(""distractor1"", ""distractor2"", ""distractor3"")",NA,NA,NA,NA,NA,NA,NA,NA,NA,NA,NA,NA,NA,NA,NA,NA,NA,NA,NA
1efca,shallow,flow.Sequence,2_12_0,NA,NA,completion,10670.48,387625,387622.66,387639.3,398309.78,398310,2023-04-11T17:27:32Z,398326.46,Verstand,ufahamivu,d,shakawa,hadhari,mhandisi,NA,NA,NA,"c(""distractor1"", ""distractor2"", ""distractor3"")",NA,NA,NA,NA,NA,NA,NA,NA,NA,NA,NA,NA,NA,NA,NA,NA,NA,NA,NA
1efca,task,flow.Sequence,2_12,NA,NA,completion,10670.48,387625,387622.66,387639.3,398309.78,398312,2023-04-11T17:27:32Z,398326.46,Verstand,ufahamivu,d,shakawa,hadhari,mhandisi,NA,NA,NA,"c(""distractor1"", ""distractor2"", ""distractor3"")",NA,NA,NA,NA,NA,NA,NA,NA,NA,NA,NA,NA,NA,NA,NA,NA,NA,NA,NA
1efca,Shallow Question,html.Page,2_13_0_0,NA,NA,form submission,9138.54,398312,398309.78,398326.46,407465,407465,2023-04-11T17:27:41Z,407471.92,Schönheit,kirembo,d,mahojiano,msisimko,jitihadi,kirembo,NA,NA,"c(""distractor1"", ""distractor2"", ""distractor3"")",NA,NA,NA,NA,NA,NA,NA,NA,NA,NA,NA,NA,NA,NA,NA,NA,NA,NA,NA
1efca,Save data screen,canvas.Screen,2_13_0_1,NA,NA,timeout,491.70000000001,407466,407463.16,407471.92,407946.96,407948,2023-04-11T17:27:42Z,407963.62,Schönheit,kirembo,d,mahojiano,msisimko,jitihadi,NA,NA,1,"c(""distractor1"", ""distractor2"", ""distractor3"")",NA,NA,NA,NA,NA,NA,NA,NA,NA,NA,NA,NA,NA,NA,NA,NA,NA,NA,NA
1efca,shallow,flow.Sequence,2_13_0,NA,NA,completion,9620.5,398312,398309.78,398326.46,407946.96,407948,2023-04-11T17:27:42Z,407963.62,Schönheit,kirembo,d,mahojiano,msisimko,jitihadi,NA,NA,NA,"c(""distractor1"", ""distractor2"", ""distractor3"")",NA,NA,NA,NA,NA,NA,NA,NA,NA,NA,NA,NA,NA,NA,NA,NA,NA,NA,NA
1efca,task,flow.Sequence,2_13,NA,NA,completion,9620.5,398312,398309.78,398326.46,407946.96,407948,2023-04-11T17:27:42Z,407963.62,Schönheit,kirembo,d,mahojiano,msisimko,jitihadi,NA,NA,NA,"c(""distractor1"", ""distractor2"", ""distractor3"")",NA,NA,NA,NA,NA,NA,NA,NA,NA,NA,NA,NA,NA,NA,NA,NA,NA,NA,NA
1efca,Shallow Question,html.Page,2_14_0_0,NA,NA,form submission,7795.38,407949,407946.96,407963.62,415759,415759,2023-04-11T17:27:50Z,415759.12,Beweis,ushahidi,s,marudio,kizuizi,mtendaji,kizuizi,NA,NA,"c(""distractor1"", ""distractor2"", ""distractor3"")",NA,NA,NA,NA,NA,NA,NA,NA,NA,NA,NA,NA,NA,NA,NA,NA,NA,NA,NA
1efca,Save data screen,canvas.Screen,2_14_0_1,NA,NA,timeout,504.20000000001,415760,415757.34,415759.12,416246.64,416247,2023-04-11T17:27:50Z,416263.32,Beweis,ushahidi,s,marudio,kizuizi,mtendaji,NA,NA,0,"c(""distractor1"", ""distractor2"", ""distractor3"")",NA,NA,NA,NA,NA,NA,NA,NA,NA,NA,NA,NA,NA,NA,NA,NA,NA,NA,NA
1efca,shallow,flow.Sequence,2_14_0,NA,NA,completion,8283.02,407949,407946.96,407963.62,416246.64,416247,2023-04-11T17:27:50Z,416263.32,Beweis,ushahidi,s,marudio,kizuizi,mtendaji,NA,NA,NA,"c(""distractor1"", ""distractor2"", ""distractor3"")",NA,NA,NA,NA,NA,NA,NA,NA,NA,NA,NA,NA,NA,NA,NA,NA,NA,NA,NA
1efca,task,flow.Sequence,2_14,NA,NA,completion,8283.02,407949,407946.96,407963.62,416246.64,416247,2023-04-11T17:27:50Z,416263.32,Beweis,ushahidi,s,marudio,kizuizi,mtendaji,NA,NA,NA,"c(""distractor1"", ""distractor2"", ""distractor3"")",NA,NA,NA,NA,NA,NA,NA,NA,NA,NA,NA,NA,NA,NA,NA,NA,NA,NA,NA
1efca,Shallow Question,html.Page,2_15_0_0,NA,NA,form submission,8522.68,416248,416246.64,416263.32,424786,424786,2023-04-11T17:27:59Z,424800.4,Ausschluss,kutengwa,s,ununuzi,taratibu,madeni,kutengwa,NA,NA,"c(""distractor1"", ""distractor2"", ""distractor3"")",NA,NA,NA,NA,NA,NA,NA,NA,NA,NA,NA,NA,NA,NA,NA,NA,NA,NA,NA
1efca,Save data screen,canvas.Screen,2_15_0_1,NA,NA,timeout,491.67999999999,424787,424784.34,424800.4,425275.42,425276,2023-04-11T17:27:59Z,425292.08,Ausschluss,kutengwa,s,ununuzi,taratibu,madeni,NA,NA,1,"c(""distractor1"", ""distractor2"", ""distractor3"")",NA,NA,NA,NA,NA,NA,NA,NA,NA,NA,NA,NA,NA,NA,NA,NA,NA,NA,NA
1efca,shallow,flow.Sequence,2_15_0,NA,NA,completion,9012.1,416248,416246.64,416263.32,425275.42,425276,2023-04-11T17:27:59Z,425292.08,Ausschluss,kutengwa,s,ununuzi,taratibu,madeni,NA,NA,NA,"c(""distractor1"", ""distractor2"", ""distractor3"")",NA,NA,NA,NA,NA,NA,NA,NA,NA,NA,NA,NA,NA,NA,NA,NA,NA,NA,NA
1efca,task,flow.Sequence,2_15,NA,NA,completion,9012.1,416248,416246.64,416263.32,425275.42,425276,2023-04-11T17:27:59Z,425292.08,Ausschluss,kutengwa,s,ununuzi,taratibu,madeni,NA,NA,NA,"c(""distractor1"", ""distractor2"", ""distractor3"")",NA,NA,NA,NA,NA,NA,NA,NA,NA,NA,NA,NA,NA,NA,NA,NA,NA,NA,NA
1efca,retrieval block 2 (multiple choice),flow.Loop,2,NA,NA,completion,150936.54,274323,274322.22,274338.88,425275.42,425276,2023-04-11T17:27:59Z,425292.08,NA,NA,NA,NA,NA,NA,NA,NA,NA,"c(""distractor1"", ""distractor2"", ""distractor3"")",NA,NA,NA,NA,NA,NA,NA,NA,NA,NA,NA,NA,NA,NA,NA,NA,NA,NA,NA
1efca,End,canvas.Screen,3,NA,keypress(Space),response,2626.92,425276,425275.42,425292.08,427919,427921,2023-04-11T17:28:02Z,427921.58,NA,NA,NA,NA,NA,NA,NA,NA,NA,NULL,NA,NA,NA,NA,NA,NA,NA,NA,NA,NA,NA,NA,NA,NA,NA,NA,NA,NA,NA
1efca,root,flow.Sequence,NA,NA,NA,completion,426840.62,1054,1061.72,1078.38,427919,427921,2023-04-11T17:28:02Z,427921.58,NA,NA,NA,NA,NA,NA,NA,NA,NA,NULL,NA,NA,NA,NA,NA,NA,NA,NA,NA,NA,NA,NA,NA,NA,NA,NA,NA,NA,NA
