observation,sender,sender_type,sender_id,response,response_action,ended_on,duration,time_run,time_render,time_show,time_end,time_commit,timestamp,time_switch,distractors,german,swahili,enc,distractor1,distractor2,distractor3,response_2,x,correct,x_2,url_vp,url_sess,meta_labjs_version,meta_location,meta_user_agent,meta_platform,meta_language,meta_locale,meta_time_zone,meta_timezone_offset,meta_screen_width,meta_screen_height,meta_scroll_width,meta_scroll_height,meta_window_inner_width,meta_window_inner_height,meta_device_pixel_ratio,meta_labjs_build_flavor,meta_labjs_build_commit
2b311,Introduction general,canvas.Screen,0,weiter,keypress(q),response,1247118.143,119,106.191,122.857,1247241,1247245.5,2023-02-16T12:45:17Z,1247260.796,NULL,NA,NA,NA,NA,NA,NA,NA,NA,NA,NA,114,1,20.2.4,https://neurocog.fernuni.ch/studies/vweber/encoding_immediate/index.html?vp=114&sess=1,"Mozilla/5.0 (Macintosh; Intel Mac OS X 10_15_7) AppleWebKit/537.36 (KHTML, like Gecko) Chrome/109.0.0.0 Safari/537.36",MacIntel,de-DE,de,Europe/Zurich,-60,1440,900,1440,681,1440,729,2,production,f5b4a49f956347addd546a832a3327688c2c0fef
2b311,Introduction practice,canvas.Screen,1_0,NA,keypress(Space),response,1508.7039999999,1247245.7,1247244.13,1247260.796,1248769.5,1248771.6,2023-02-16T12:45:19Z,1248794.068,NULL,NA,NA,NA,NA,NA,NA,NA,NA,NA,NA,NA,NA,NA,NA,NA,NA,NA,NA,NA,NA,NA,NA,NA,NA,NA,NA,NA,NA,NA
2b311,deep,flow.Sequence,1_1_0_0,NA,NA,skipped,NA,1248771.7,NA,NA,1248769.5,1248771.8,2023-02-16T12:45:19Z,1248794.068,"c(""distractor1"", ""distractor2"", ""distractor3"")",Rückhalt,msaada,s,muhula,auwali,kiwimbe,NA,NA,NA,NA,NA,NA,NA,NA,NA,NA,NA,NA,NA,NA,NA,NA,NA,NA,NA,NA,NA,NA,NA
2b311,Shallow Question,html.Page,1_1_0_1_0,NA,NA,form submission,22243.032,1248771.8,1248777.402,1248794.068,1271037.1,1271037.6,2023-02-16T12:45:41Z,1271043.956,"c(""distractor1"", ""distractor2"", ""distractor3"")",Rückhalt,msaada,s,muhula,auwali,kiwimbe,muhula,NA,NA,NA,NA,NA,NA,NA,NA,NA,NA,NA,NA,NA,NA,NA,NA,NA,NA,NA,NA,NA,NA
2b311,"""Richtig""-Screen",canvas.Screen,1_1_0_1_1,NA,NA,skipped,NA,1271039.7,NA,NA,1271037.1,1271039.8,2023-02-16T12:45:41Z,1271043.956,"c(""distractor1"", ""distractor2"", ""distractor3"")",Rückhalt,msaada,s,muhula,auwali,kiwimbe,NA,NA,NA,NA,NA,NA,NA,NA,NA,NA,NA,NA,NA,NA,NA,NA,NA,NA,NA,NA,NA,NA,NA
2b311,"""Falsch""-Screen",canvas.Screen,1_1_0_1_2,NA,NA,timeout,4999.8,1271041.7,1271027.29,1271043.956,1276027.09,1276033.4,2023-02-16T12:45:46Z,1276043.756,"c(""distractor1"", ""distractor2"", ""distractor3"")",Rückhalt,msaada,s,muhula,auwali,kiwimbe,NA,NA,0,NA,NA,NA,NA,NA,NA,NA,NA,NA,NA,NA,NA,NA,NA,NA,NA,NA,NA,NA,NA
2b311,shallow,flow.Sequence,1_1_0_1,NA,NA,completion,27233.022,1248771.8,1248777.402,1248794.068,1276027.09,1276033.8,2023-02-16T12:45:46Z,1276043.756,"c(""distractor1"", ""distractor2"", ""distractor3"")",Rückhalt,msaada,s,muhula,auwali,kiwimbe,NA,NA,NA,NA,NA,NA,NA,NA,NA,NA,NA,NA,NA,NA,NA,NA,NA,NA,NA,NA,NA,NA,NA
2b311,task,flow.Sequence,1_1_0,NA,NA,completion,27233.022,1248771.7,1248777.402,1248794.068,1276027.09,1276034.1,2023-02-16T12:45:46Z,1276043.756,"c(""distractor1"", ""distractor2"", ""distractor3"")",Rückhalt,msaada,s,muhula,auwali,kiwimbe,NA,NA,NA,NA,NA,NA,NA,NA,NA,NA,NA,NA,NA,NA,NA,NA,NA,NA,NA,NA,NA,NA,NA
2b311,deep,flow.Sequence,1_1_1_0,NA,NA,skipped,NA,1276034.3,NA,NA,1276027.09,1276034.4,2023-02-16T12:45:46Z,1276043.756,"c(""distractor1"", ""distractor2"", ""distractor3"")",Gegenwart,hadhara,s,katiba,jokofu,mikopo,NA,NA,NA,NA,NA,NA,NA,NA,NA,NA,NA,NA,NA,NA,NA,NA,NA,NA,NA,NA,NA,NA,NA
2b311,Shallow Question,html.Page,1_1_1_1_0,NA,NA,form submission,4489.4439999997,1276034.6,1276027.09,1276043.756,1280533.2,1280534,2023-02-16T12:45:51Z,1280544.353,"c(""distractor1"", ""distractor2"", ""distractor3"")",Gegenwart,hadhara,s,katiba,jokofu,mikopo,hadhara,NA,NA,NA,NA,NA,NA,NA,NA,NA,NA,NA,NA,NA,NA,NA,NA,NA,NA,NA,NA,NA,NA
2b311,"""Richtig""-Screen",canvas.Screen,1_1_1_1_1,NA,NA,timeout,4999.8,1280537.2,1280527.687,1280544.353,1285527.487,1285530.6,2023-02-16T12:45:56Z,1285544.153,"c(""distractor1"", ""distractor2"", ""distractor3"")",Gegenwart,hadhara,s,katiba,jokofu,mikopo,NA,NA,1,NA,NA,NA,NA,NA,NA,NA,NA,NA,NA,NA,NA,NA,NA,NA,NA,NA,NA,NA,NA
2b311,"""Falsch""-Screen",canvas.Screen,1_1_1_1_2,NA,NA,skipped,NA,1285534.6,NA,NA,1285527.487,1285534.8,2023-02-16T12:45:56Z,1285544.153,"c(""distractor1"", ""distractor2"", ""distractor3"")",Gegenwart,hadhara,s,katiba,jokofu,mikopo,NA,NA,NA,NA,NA,NA,NA,NA,NA,NA,NA,NA,NA,NA,NA,NA,NA,NA,NA,NA,NA,NA,NA
2b311,shallow,flow.Sequence,1_1_1_1,NA,NA,completion,9483.7309999999,1276034.6,1276027.09,1276043.756,1285527.487,1285535,2023-02-16T12:45:56Z,1285544.153,"c(""distractor1"", ""distractor2"", ""distractor3"")",Gegenwart,hadhara,s,katiba,jokofu,mikopo,NA,NA,NA,NA,NA,NA,NA,NA,NA,NA,NA,NA,NA,NA,NA,NA,NA,NA,NA,NA,NA,NA,NA
2b311,task,flow.Sequence,1_1_1,NA,NA,completion,9483.7309999999,1276034.2,1276027.09,1276043.756,1285527.487,1285535.1,2023-02-16T12:45:56Z,1285544.153,"c(""distractor1"", ""distractor2"", ""distractor3"")",Gegenwart,hadhara,s,katiba,jokofu,mikopo,NA,NA,NA,NA,NA,NA,NA,NA,NA,NA,NA,NA,NA,NA,NA,NA,NA,NA,NA,NA,NA,NA,NA
2b311,Deep Question,html.Page,1_1_2_0_0,NA,NA,form submission,6139.747,1285535.3,1285527.487,1285544.153,1291683.9,1291684.4,2023-02-16T12:46:02Z,1291693.907,"c(""distractor1"", ""distractor2"", ""distractor3"")",Gesundheit,salama,d,NA,NA,NA,hua,NA,NA,NA,NA,NA,NA,NA,NA,NA,NA,NA,NA,NA,NA,NA,NA,NA,NA,NA,NA,NA,NA
2b311,"""Richtig""-Screen",canvas.Screen,1_1_2_0_1,NA,NA,skipped,NA,1291686.7,NA,NA,1291683.9,1291686.9,2023-02-16T12:46:02Z,1291693.907,"c(""distractor1"", ""distractor2"", ""distractor3"")",Gesundheit,salama,d,NA,NA,NA,NA,NA,NA,NA,NA,NA,NA,NA,NA,NA,NA,NA,NA,NA,NA,NA,NA,NA,NA,NA,NA,NA,NA
2b311,"""Falsch""-Screen",canvas.Screen,1_1_2_0_2,NA,NA,timeout,4999.8,1291687.9,1291677.241,1291693.907,1296677.041,1296679.1,2023-02-16T12:46:07Z,1296693.707,"c(""distractor1"", ""distractor2"", ""distractor3"")",Gesundheit,salama,d,NA,NA,NA,NA,NA,0,NA,NA,NA,NA,NA,NA,NA,NA,NA,NA,NA,NA,NA,NA,NA,NA,NA,NA,NA,NA
2b311,deep,flow.Sequence,1_1_2_0,NA,NA,completion,11132.888,1285535.3,1285527.487,1285544.153,1296677.041,1296679.7,2023-02-16T12:46:07Z,1296693.707,"c(""distractor1"", ""distractor2"", ""distractor3"")",Gesundheit,salama,d,NA,NA,NA,NA,NA,NA,NA,NA,NA,NA,NA,NA,NA,NA,NA,NA,NA,NA,NA,NA,NA,NA,NA,NA,NA,NA
2b311,shallow,flow.Sequence,1_1_2_1,NA,NA,skipped,NA,1296679.8,NA,NA,1296677.041,1296680,2023-02-16T12:46:07Z,1296693.707,"c(""distractor1"", ""distractor2"", ""distractor3"")",Gesundheit,salama,d,NA,NA,NA,NA,NA,NA,NA,NA,NA,NA,NA,NA,NA,NA,NA,NA,NA,NA,NA,NA,NA,NA,NA,NA,NA,NA
2b311,task,flow.Sequence,1_1_2,NA,NA,completion,11132.888,1285535.2,1285527.487,1285544.153,1296677.041,1296680.1,2023-02-16T12:46:07Z,1296693.707,"c(""distractor1"", ""distractor2"", ""distractor3"")",Gesundheit,salama,d,NA,NA,NA,NA,NA,NA,NA,NA,NA,NA,NA,NA,NA,NA,NA,NA,NA,NA,NA,NA,NA,NA,NA,NA,NA,NA
2b311,deep,flow.Sequence,1_1_3_0,NA,NA,skipped,NA,1296680.4,NA,NA,1296677.041,1296680.5,2023-02-16T12:46:07Z,1296693.707,"c(""distractor1"", ""distractor2"", ""distractor3"")",Kritik,lawama,s,dereva,nafasi,mawazo,NA,NA,NA,NA,NA,NA,NA,NA,NA,NA,NA,NA,NA,NA,NA,NA,NA,NA,NA,NA,NA,NA,NA
2b311,Shallow Question,html.Page,1_1_3_1_0,NA,NA,form submission,5981.5929999999,1296680.6,1296677.041,1296693.707,1302675.3,1302675.8,2023-02-16T12:46:13Z,1302677.775,"c(""distractor1"", ""distractor2"", ""distractor3"")",Kritik,lawama,s,dereva,nafasi,mawazo,nafasi,NA,NA,NA,NA,NA,NA,NA,NA,NA,NA,NA,NA,NA,NA,NA,NA,NA,NA,NA,NA,NA,NA
2b311,"""Richtig""-Screen",canvas.Screen,1_1_3_1_1,NA,NA,skipped,NA,1302678.8,NA,NA,1302675.3,1302679,2023-02-16T12:46:13Z,1302677.775,"c(""distractor1"", ""distractor2"", ""distractor3"")",Kritik,lawama,s,dereva,nafasi,mawazo,NA,NA,NA,NA,NA,NA,NA,NA,NA,NA,NA,NA,NA,NA,NA,NA,NA,NA,NA,NA,NA,NA,NA
2b311,"""Falsch""-Screen",canvas.Screen,1_1_3_1_2,NA,NA,timeout,4999.8,1302680.1,1302661.109,1302677.775,1307660.909,1307663.3,2023-02-16T12:46:18Z,1307677.575,"c(""distractor1"", ""distractor2"", ""distractor3"")",Kritik,lawama,s,dereva,nafasi,mawazo,NA,NA,0,NA,NA,NA,NA,NA,NA,NA,NA,NA,NA,NA,NA,NA,NA,NA,NA,NA,NA,NA,NA
2b311,shallow,flow.Sequence,1_1_3_1,NA,NA,completion,10967.202,1296680.6,1296677.041,1296693.707,1307660.909,1307663.8,2023-02-16T12:46:18Z,1307677.575,"c(""distractor1"", ""distractor2"", ""distractor3"")",Kritik,lawama,s,dereva,nafasi,mawazo,NA,NA,NA,NA,NA,NA,NA,NA,NA,NA,NA,NA,NA,NA,NA,NA,NA,NA,NA,NA,NA,NA,NA
2b311,task,flow.Sequence,1_1_3,NA,NA,completion,10967.202,1296680.4,1296677.041,1296693.707,1307660.909,1307664,2023-02-16T12:46:18Z,1307677.575,"c(""distractor1"", ""distractor2"", ""distractor3"")",Kritik,lawama,s,dereva,nafasi,mawazo,NA,NA,NA,NA,NA,NA,NA,NA,NA,NA,NA,NA,NA,NA,NA,NA,NA,NA,NA,NA,NA,NA,NA
2b311,Deep Question,html.Page,1_1_4_0_0,NA,NA,form submission,3465.825,1307664.4,1307660.909,1307677.575,1311143.4,1311143.9,2023-02-16T12:46:21Z,1311144.761,"c(""distractor1"", ""distractor2"", ""distractor3"")",Qualität,mtindo,d,NA,NA,NA,huhu,NA,NA,NA,NA,NA,NA,NA,NA,NA,NA,NA,NA,NA,NA,NA,NA,NA,NA,NA,NA,NA,NA
2b311,"""Richtig""-Screen",canvas.Screen,1_1_4_0_1,NA,NA,skipped,NA,1311147.9,NA,NA,1311143.4,1311148.2,2023-02-16T12:46:21Z,1311144.761,"c(""distractor1"", ""distractor2"", ""distractor3"")",Qualität,mtindo,d,NA,NA,NA,NA,NA,NA,NA,NA,NA,NA,NA,NA,NA,NA,NA,NA,NA,NA,NA,NA,NA,NA,NA,NA,NA,NA
2b311,"""Falsch""-Screen",canvas.Screen,1_1_4_0_2,NA,NA,timeout,4999.8,1311149.2,1311128.095,1311144.761,1316127.895,1316130.4,2023-02-16T12:46:26Z,1316144.561,"c(""distractor1"", ""distractor2"", ""distractor3"")",Qualität,mtindo,d,NA,NA,NA,NA,NA,0,NA,NA,NA,NA,NA,NA,NA,NA,NA,NA,NA,NA,NA,NA,NA,NA,NA,NA,NA,NA
2b311,deep,flow.Sequence,1_1_4_0,NA,NA,completion,8450.3200000001,1307664.3,1307660.909,1307677.575,1316127.895,1316130.8,2023-02-16T12:46:26Z,1316144.561,"c(""distractor1"", ""distractor2"", ""distractor3"")",Qualität,mtindo,d,NA,NA,NA,NA,NA,NA,NA,NA,NA,NA,NA,NA,NA,NA,NA,NA,NA,NA,NA,NA,NA,NA,NA,NA,NA,NA
2b311,shallow,flow.Sequence,1_1_4_1,NA,NA,skipped,NA,1316131,NA,NA,1316127.895,1316131.1,2023-02-16T12:46:26Z,1316144.561,"c(""distractor1"", ""distractor2"", ""distractor3"")",Qualität,mtindo,d,NA,NA,NA,NA,NA,NA,NA,NA,NA,NA,NA,NA,NA,NA,NA,NA,NA,NA,NA,NA,NA,NA,NA,NA,NA,NA
2b311,task,flow.Sequence,1_1_4,NA,NA,completion,8450.3200000001,1307664.2,1307660.909,1307677.575,1316127.895,1316131.4,2023-02-16T12:46:26Z,1316144.561,"c(""distractor1"", ""distractor2"", ""distractor3"")",Qualität,mtindo,d,NA,NA,NA,NA,NA,NA,NA,NA,NA,NA,NA,NA,NA,NA,NA,NA,NA,NA,NA,NA,NA,NA,NA,NA,NA,NA
2b311,Deep Question,html.Page,1_1_5_0_0,NA,NA,form submission,4878.939,1316131.8,1316127.895,1316144.561,1321023.5,1321024,2023-02-16T12:46:31Z,1321028.282,"c(""distractor1"", ""distractor2"", ""distractor3"")",Schatten,kivuli,d,NA,NA,NA,gaga,NA,NA,NA,NA,NA,NA,NA,NA,NA,NA,NA,NA,NA,NA,NA,NA,NA,NA,NA,NA,NA,NA
2b311,"""Richtig""-Screen",canvas.Screen,1_1_5_0_1,NA,NA,skipped,NA,1321027.1,NA,NA,1321023.5,1321027.2,2023-02-16T12:46:31Z,1321028.282,"c(""distractor1"", ""distractor2"", ""distractor3"")",Schatten,kivuli,d,NA,NA,NA,NA,NA,NA,NA,NA,NA,NA,NA,NA,NA,NA,NA,NA,NA,NA,NA,NA,NA,NA,NA,NA,NA,NA
2b311,"""Falsch""-Screen",canvas.Screen,1_1_5_0_2,NA,NA,timeout,4999.8,1321028.3,1321011.616,1321028.282,1326011.416,1326013.7,2023-02-16T12:46:36Z,1326028.082,"c(""distractor1"", ""distractor2"", ""distractor3"")",Schatten,kivuli,d,NA,NA,NA,NA,NA,0,NA,NA,NA,NA,NA,NA,NA,NA,NA,NA,NA,NA,NA,NA,NA,NA,NA,NA,NA,NA
2b311,deep,flow.Sequence,1_1_5_0,NA,NA,completion,9866.855,1316131.6,1316127.895,1316144.561,1326011.416,1326014,2023-02-16T12:46:36Z,1326028.082,"c(""distractor1"", ""distractor2"", ""distractor3"")",Schatten,kivuli,d,NA,NA,NA,NA,NA,NA,NA,NA,NA,NA,NA,NA,NA,NA,NA,NA,NA,NA,NA,NA,NA,NA,NA,NA,NA,NA
2b311,shallow,flow.Sequence,1_1_5_1,NA,NA,skipped,NA,1326014,NA,NA,1326011.416,1326014.1,2023-02-16T12:46:36Z,1326028.082,"c(""distractor1"", ""distractor2"", ""distractor3"")",Schatten,kivuli,d,NA,NA,NA,NA,NA,NA,NA,NA,NA,NA,NA,NA,NA,NA,NA,NA,NA,NA,NA,NA,NA,NA,NA,NA,NA,NA
2b311,task,flow.Sequence,1_1_5,NA,NA,completion,9866.855,1316131.6,1316127.895,1316144.561,1326011.416,1326014.2,2023-02-16T12:46:36Z,1326028.082,"c(""distractor1"", ""distractor2"", ""distractor3"")",Schatten,kivuli,d,NA,NA,NA,NA,NA,NA,NA,NA,NA,NA,NA,NA,NA,NA,NA,NA,NA,NA,NA,NA,NA,NA,NA,NA,NA,NA
2b311,block,flow.Loop,1_1,NA,NA,completion,77217.348,1248771.7,1248777.402,1248794.068,1326011.416,1326014.4,2023-02-16T12:46:36Z,1326028.082,"c(""distractor1"", ""distractor2"", ""distractor3"")",NA,NA,NA,NA,NA,NA,NA,NA,NA,NA,NA,NA,NA,NA,NA,NA,NA,NA,NA,NA,NA,NA,NA,NA,NA,NA,NA,NA,NA
2b311,Practice,flow.Sequence,1,NA,NA,completion,78750.62,1247245.7,1247244.13,1247260.796,1326011.416,1326014.6,2023-02-16T12:46:36Z,1326028.082,NULL,NA,NA,NA,NA,NA,NA,NA,NA,NA,NA,NA,NA,NA,NA,NA,NA,NA,NA,NA,NA,NA,NA,NA,NA,NA,NA,NA,NA,NA
2b311,Experiment start,canvas.Screen,2,weiter,keypress(q),response,23682.318,1326014.6,1326011.416,1326028.082,1349710.4,1349714.7,2023-02-16T12:47:00Z,1349777.939,NULL,NA,NA,NA,NA,NA,NA,NA,NA,NA,NA,NA,NA,NA,NA,NA,NA,NA,NA,NA,NA,NA,NA,NA,NA,NA,NA,NA,NA,NA
2b311,Deep Question,html.Page,3_0_0_0_0_0_0,NA,NA,form submission,6264.7609999997,1349775,1349761.273,1349777.939,1356042.7,1356042.9,2023-02-16T12:47:06Z,1356061.8,NULL,Kontrolle,kudhibiti,d,NA,NA,NA,twa,NA,NA,0,NA,NA,NA,NA,NA,NA,NA,NA,NA,NA,NA,NA,NA,NA,NA,NA,NA,NA,NA
2b311,"""Richtig""-Screen",canvas.Screen,3_0_0_0_0_0_1,NA,NA,skipped,NA,1356044,NA,NA,1356042.7,1356044,2023-02-16T12:47:06Z,1356061.8,NULL,Kontrolle,kudhibiti,d,NA,NA,NA,NA,sdf,NA,0,NA,NA,NA,NA,NA,NA,NA,NA,NA,NA,NA,NA,NA,NA,NA,NA,NA,NA,NA
2b311,"""Falsch""-Screen",canvas.Screen,3_0_0_0_0_0_2,NA,NA,timeout,4999.8,1356044.3,1356045.134,1356061.8,1361044.934,1361047.4,2023-02-16T12:47:11Z,1361061.6,NULL,Kontrolle,kudhibiti,d,NA,NA,NA,NA,sdf,0,0,NA,NA,NA,NA,NA,NA,NA,NA,NA,NA,NA,NA,NA,NA,NA,NA,NA,NA,NA
2b311,deep,flow.Sequence,3_0_0_0_0_0,NA,NA,completion,11266.995,1349775,1349761.273,1349777.939,1361044.934,1361047.8,2023-02-16T12:47:11Z,1361061.6,NULL,Kontrolle,kudhibiti,d,NA,NA,NA,NA,sdf,NA,0,NA,NA,NA,NA,NA,NA,NA,NA,NA,NA,NA,NA,NA,NA,NA,NA,NA,NA,NA
2b311,shallow,flow.Sequence,3_0_0_0_0_1,NA,NA,skipped,NA,1361048,NA,NA,1361044.934,1361048.1,2023-02-16T12:47:11Z,1361061.6,NULL,Kontrolle,kudhibiti,d,NA,NA,NA,NA,sdf,NA,0,NA,NA,NA,NA,NA,NA,NA,NA,NA,NA,NA,NA,NA,NA,NA,NA,NA,NA,NA
2b311,task,flow.Sequence,3_0_0_0_0,NA,NA,completion,11266.995,1349774.9,1349761.273,1349777.939,1361044.934,1361048.3,2023-02-16T12:47:11Z,1361061.6,NULL,Kontrolle,kudhibiti,d,NA,NA,NA,NA,sdf,NA,0,NA,NA,NA,NA,NA,NA,NA,NA,NA,NA,NA,NA,NA,NA,NA,NA,NA,NA,NA
2b311,deep,flow.Sequence,3_0_0_0_1_0,NA,NA,skipped,NA,1361048.5,NA,NA,1361044.934,1361048.6,2023-02-16T12:47:11Z,1361061.6,NULL,Orientierung,urekebisho,s,uelekeo,marekebisho,utunzaji,NA,sdf,NA,0,NA,NA,NA,NA,NA,NA,NA,NA,NA,NA,NA,NA,NA,NA,NA,NA,NA,NA,NA
2b311,Shallow Question,html.Page,3_0_0_0_1_1_0,NA,NA,form submission,6706.7999999998,1361048.7,1361044.934,1361061.6,1367768.4,1367768.9,2023-02-16T12:47:18Z,1367778.52,NULL,Orientierung,urekebisho,s,uelekeo,marekebisho,utunzaji,urekebisho,NA,NA,0,NA,NA,NA,NA,NA,NA,NA,NA,NA,NA,NA,NA,NA,NA,NA,NA,NA,NA,NA
2b311,"""Richtig""-Screen",canvas.Screen,3_0_0_0_1_1_1,NA,NA,timeout,4999.8,1367771.6,1367761.854,1367778.52,1372761.654,1372763.5,2023-02-16T12:47:23Z,1372778.32,NULL,Orientierung,urekebisho,s,uelekeo,marekebisho,utunzaji,NA,sdf,1,0,NA,NA,NA,NA,NA,NA,NA,NA,NA,NA,NA,NA,NA,NA,NA,NA,NA,NA,NA
2b311,"""Falsch""-Screen",canvas.Screen,3_0_0_0_1_1_2,NA,NA,skipped,NA,1372767.2,NA,NA,1372761.654,1372767.5,2023-02-16T12:47:23Z,1372778.32,NULL,Orientierung,urekebisho,s,uelekeo,marekebisho,utunzaji,NA,sdf,NA,0,NA,NA,NA,NA,NA,NA,NA,NA,NA,NA,NA,NA,NA,NA,NA,NA,NA,NA,NA
2b311,shallow,flow.Sequence,3_0_0_0_1_1,NA,NA,completion,11700.054,1361048.7,1361044.934,1361061.6,1372761.654,1372767.8,2023-02-16T12:47:23Z,1372778.32,NULL,Orientierung,urekebisho,s,uelekeo,marekebisho,utunzaji,NA,sdf,NA,0,NA,NA,NA,NA,NA,NA,NA,NA,NA,NA,NA,NA,NA,NA,NA,NA,NA,NA,NA
2b311,task,flow.Sequence,3_0_0_0_1,NA,NA,completion,11700.054,1361048.4,1361044.934,1361061.6,1372761.654,1372767.8,2023-02-16T12:47:23Z,1372778.32,NULL,Orientierung,urekebisho,s,uelekeo,marekebisho,utunzaji,NA,sdf,NA,0,NA,NA,NA,NA,NA,NA,NA,NA,NA,NA,NA,NA,NA,NA,NA,NA,NA,NA,NA
2b311,deep,flow.Sequence,3_0_0_0_2_0,NA,NA,skipped,NA,1372768,NA,NA,1372761.654,1372768.1,2023-02-16T12:47:23Z,1372778.32,NULL,Kreativität,ubunifu,s,mratibu,mwendelezo,makubaliano,NA,sdf,NA,0,NA,NA,NA,NA,NA,NA,NA,NA,NA,NA,NA,NA,NA,NA,NA,NA,NA,NA,NA
2b311,Shallow Question,html.Page,3_0_0_0_2_1_0,NA,NA,form submission,3848.8799999997,1372768.2,1372761.654,1372778.32,1376627.2,1376627.8,2023-02-16T12:47:27Z,1376628.823,NULL,Kreativität,ubunifu,s,mratibu,mwendelezo,makubaliano,mratibu,NA,NA,0,NA,NA,NA,NA,NA,NA,NA,NA,NA,NA,NA,NA,NA,NA,NA,NA,NA,NA,NA
2b311,"""Richtig""-Screen",canvas.Screen,3_0_0_0_2_1_1,NA,NA,skipped,NA,1376630.5,NA,NA,1376627.2,1376630.6,2023-02-16T12:47:27Z,1376628.823,NULL,Kreativität,ubunifu,s,mratibu,mwendelezo,makubaliano,NA,sdf,NA,0,NA,NA,NA,NA,NA,NA,NA,NA,NA,NA,NA,NA,NA,NA,NA,NA,NA,NA,NA
2b311,"""Falsch""-Screen",canvas.Screen,3_0_0_0_2_1_2,NA,NA,timeout,4999.7999999998,1376631.3,1376612.157,1376628.823,1381611.957,1381614.6,2023-02-16T12:47:32Z,1381628.623,NULL,Kreativität,ubunifu,s,mratibu,mwendelezo,makubaliano,NA,sdf,0,0,NA,NA,NA,NA,NA,NA,NA,NA,NA,NA,NA,NA,NA,NA,NA,NA,NA,NA,NA
2b311,shallow,flow.Sequence,3_0_0_0_2_1,NA,NA,completion,8833.6369999999,1372768.2,1372761.654,1372778.32,1381611.957,1381615,2023-02-16T12:47:32Z,1381628.623,NULL,Kreativität,ubunifu,s,mratibu,mwendelezo,makubaliano,NA,sdf,NA,0,NA,NA,NA,NA,NA,NA,NA,NA,NA,NA,NA,NA,NA,NA,NA,NA,NA,NA,NA
2b311,task,flow.Sequence,3_0_0_0_2,NA,NA,completion,8833.6369999999,1372767.9,1372761.654,1372778.32,1381611.957,1381615.3,2023-02-16T12:47:32Z,1381628.623,NULL,Kreativität,ubunifu,s,mratibu,mwendelezo,makubaliano,NA,sdf,NA,0,NA,NA,NA,NA,NA,NA,NA,NA,NA,NA,NA,NA,NA,NA,NA,NA,NA,NA,NA
2b311,Deep Question,html.Page,3_0_0_0_3_0_0,NA,NA,form submission,3879.277,1381615.5,1381611.957,1381628.623,1385507.9,1385508.4,2023-02-16T12:47:36Z,1385512.254,NULL,Betrüger,mdanganyifu,d,NA,NA,NA,tha,NA,NA,0,NA,NA,NA,NA,NA,NA,NA,NA,NA,NA,NA,NA,NA,NA,NA,NA,NA,NA,NA
2b311,"""Richtig""-Screen",canvas.Screen,3_0_0_0_3_0_1,NA,NA,skipped,NA,1385511.4,NA,NA,1385507.9,1385511.5,2023-02-16T12:47:36Z,1385512.254,NULL,Betrüger,mdanganyifu,d,NA,NA,NA,NA,sdf,NA,0,NA,NA,NA,NA,NA,NA,NA,NA,NA,NA,NA,NA,NA,NA,NA,NA,NA,NA,NA
2b311,"""Falsch""-Screen",canvas.Screen,3_0_0_0_3_0_2,NA,NA,timeout,4999.8,1385512.1,1385495.588,1385512.254,1390495.388,1390497.6,2023-02-16T12:47:41Z,1390512.054,NULL,Betrüger,mdanganyifu,d,NA,NA,NA,NA,sdf,0,0,NA,NA,NA,NA,NA,NA,NA,NA,NA,NA,NA,NA,NA,NA,NA,NA,NA,NA,NA
2b311,deep,flow.Sequence,3_0_0_0_3_0,NA,NA,completion,8866.7650000001,1381615.4,1381611.957,1381628.623,1390495.388,1390497.7,2023-02-16T12:47:41Z,1390512.054,NULL,Betrüger,mdanganyifu,d,NA,NA,NA,NA,sdf,NA,0,NA,NA,NA,NA,NA,NA,NA,NA,NA,NA,NA,NA,NA,NA,NA,NA,NA,NA,NA
2b311,shallow,flow.Sequence,3_0_0_0_3_1,NA,NA,skipped,NA,1390497.8,NA,NA,1390495.388,1390497.9,2023-02-16T12:47:41Z,1390512.054,NULL,Betrüger,mdanganyifu,d,NA,NA,NA,NA,sdf,NA,0,NA,NA,NA,NA,NA,NA,NA,NA,NA,NA,NA,NA,NA,NA,NA,NA,NA,NA,NA
2b311,task,flow.Sequence,3_0_0_0_3,NA,NA,completion,8866.7650000001,1381615.4,1381611.957,1381628.623,1390495.388,1390498,2023-02-16T12:47:41Z,1390512.054,NULL,Betrüger,mdanganyifu,d,NA,NA,NA,NA,sdf,NA,0,NA,NA,NA,NA,NA,NA,NA,NA,NA,NA,NA,NA,NA,NA,NA,NA,NA,NA,NA
2b311,Deep Question,html.Page,3_0_0_0_4_0_0,NA,NA,form submission,6586.8459999999,1390498.1,1390495.388,1390512.054,1397098.9,1397099.5,2023-02-16T12:47:47Z,1397112.297,NULL,Stimmung,kinyongo,d,NA,NA,NA,masf,NA,NA,0,NA,NA,NA,NA,NA,NA,NA,NA,NA,NA,NA,NA,NA,NA,NA,NA,NA,NA,NA
2b311,"""Richtig""-Screen",canvas.Screen,3_0_0_0_4_0_1,NA,NA,skipped,NA,1397103.5,NA,NA,1397098.9,1397103.8,2023-02-16T12:47:47Z,1397112.297,NULL,Stimmung,kinyongo,d,NA,NA,NA,NA,sdf,NA,0,NA,NA,NA,NA,NA,NA,NA,NA,NA,NA,NA,NA,NA,NA,NA,NA,NA,NA,NA
2b311,"""Falsch""-Screen",canvas.Screen,3_0_0_0_4_0_2,NA,NA,timeout,4999.8,1397104.6,1397095.631,1397112.297,1402095.431,1402098.2,2023-02-16T12:47:52Z,1402112.097,NULL,Stimmung,kinyongo,d,NA,NA,NA,NA,sdf,0,0,NA,NA,NA,NA,NA,NA,NA,NA,NA,NA,NA,NA,NA,NA,NA,NA,NA,NA,NA
2b311,deep,flow.Sequence,3_0_0_0_4_0,NA,NA,completion,11583.377,1390498,1390495.388,1390512.054,1402095.431,1402098.6,2023-02-16T12:47:52Z,1402112.097,NULL,Stimmung,kinyongo,d,NA,NA,NA,NA,sdf,NA,0,NA,NA,NA,NA,NA,NA,NA,NA,NA,NA,NA,NA,NA,NA,NA,NA,NA,NA,NA
2b311,shallow,flow.Sequence,3_0_0_0_4_1,NA,NA,skipped,NA,1402098.7,NA,NA,1402095.431,1402099,2023-02-16T12:47:52Z,1402112.097,NULL,Stimmung,kinyongo,d,NA,NA,NA,NA,sdf,NA,0,NA,NA,NA,NA,NA,NA,NA,NA,NA,NA,NA,NA,NA,NA,NA,NA,NA,NA,NA
2b311,task,flow.Sequence,3_0_0_0_4,NA,NA,completion,11583.377,1390498,1390495.388,1390512.054,1402095.431,1402099.1,2023-02-16T12:47:52Z,1402112.097,NULL,Stimmung,kinyongo,d,NA,NA,NA,NA,sdf,NA,0,NA,NA,NA,NA,NA,NA,NA,NA,NA,NA,NA,NA,NA,NA,NA,NA,NA,NA,NA
2b311,deep,flow.Sequence,3_0_0_0_5_0,NA,NA,skipped,NA,1402099.3,NA,NA,1402095.431,1402099.4,2023-02-16T12:47:52Z,1402112.097,NULL,Können,unaweza,s,kiongozi,bustani,mienendo,NA,sdf,NA,0,NA,NA,NA,NA,NA,NA,NA,NA,NA,NA,NA,NA,NA,NA,NA,NA,NA,NA,NA
2b311,Shallow Question,html.Page,3_0_0_0_5_1_0,NA,NA,form submission,4580.7029999997,1402099.6,1402095.431,1402112.097,1406692.8,1406693.5,2023-02-16T12:47:57Z,1406695.817,NULL,Können,unaweza,s,kiongozi,bustani,mienendo,kiongozi,NA,NA,0,NA,NA,NA,NA,NA,NA,NA,NA,NA,NA,NA,NA,NA,NA,NA,NA,NA,NA,NA
2b311,"""Richtig""-Screen",canvas.Screen,3_0_0_0_5_1_1,NA,NA,skipped,NA,1406696.6,NA,NA,1406692.8,1406696.8,2023-02-16T12:47:57Z,1406695.817,NULL,Können,unaweza,s,kiongozi,bustani,mienendo,NA,sdf,NA,0,NA,NA,NA,NA,NA,NA,NA,NA,NA,NA,NA,NA,NA,NA,NA,NA,NA,NA,NA
2b311,"""Falsch""-Screen",canvas.Screen,3_0_0_0_5_1_2,NA,NA,timeout,4999.8,1406697.5,1406679.151,1406695.817,1411678.951,1411680.8,2023-02-16T12:48:02Z,1411695.617,NULL,Können,unaweza,s,kiongozi,bustani,mienendo,NA,sdf,0,0,NA,NA,NA,NA,NA,NA,NA,NA,NA,NA,NA,NA,NA,NA,NA,NA,NA,NA,NA
2b311,shallow,flow.Sequence,3_0_0_0_5_1,NA,NA,completion,9566.8539999998,1402099.5,1402095.431,1402112.097,1411678.951,1411681.4,2023-02-16T12:48:02Z,1411695.617,NULL,Können,unaweza,s,kiongozi,bustani,mienendo,NA,sdf,NA,0,NA,NA,NA,NA,NA,NA,NA,NA,NA,NA,NA,NA,NA,NA,NA,NA,NA,NA,NA
2b311,task,flow.Sequence,3_0_0_0_5,NA,NA,completion,9566.8539999998,1402099.2,1402095.431,1402112.097,1411678.951,1411681.6,2023-02-16T12:48:02Z,1411695.617,NULL,Können,unaweza,s,kiongozi,bustani,mienendo,NA,sdf,NA,0,NA,NA,NA,NA,NA,NA,NA,NA,NA,NA,NA,NA,NA,NA,NA,NA,NA,NA,NA
2b311,deep,flow.Sequence,3_0_0_0_6_0,NA,NA,skipped,NA,1411681.8,NA,NA,1411678.951,1411682,2023-02-16T12:48:02Z,1411695.617,NULL,Respekt,heshima,s,changamnao,upinzani,ufanisi,NA,sdf,NA,0,NA,NA,NA,NA,NA,NA,NA,NA,NA,NA,NA,NA,NA,NA,NA,NA,NA,NA,NA
2b311,Shallow Question,html.Page,3_0_0_0_6_1_0,NA,NA,form submission,4807.6829999997,1411682,1411678.951,1411695.617,1416503.3,1416503.9,2023-02-16T12:48:07Z,1416512.771,NULL,Respekt,heshima,s,changamnao,upinzani,ufanisi,heshima,NA,NA,0,NA,NA,NA,NA,NA,NA,NA,NA,NA,NA,NA,NA,NA,NA,NA,NA,NA,NA,NA
2b311,"""Richtig""-Screen",canvas.Screen,3_0_0_0_6_1_1,NA,NA,timeout,4999.8,1416506.9,1416496.105,1416512.771,1421495.905,1421498,2023-02-16T12:48:12Z,1421512.571,NULL,Respekt,heshima,s,changamnao,upinzani,ufanisi,NA,sdf,1,0,NA,NA,NA,NA,NA,NA,NA,NA,NA,NA,NA,NA,NA,NA,NA,NA,NA,NA,NA
2b311,"""Falsch""-Screen",canvas.Screen,3_0_0_0_6_1_2,NA,NA,skipped,NA,1421501.8,NA,NA,1421495.905,1421501.9,2023-02-16T12:48:12Z,1421512.571,NULL,Respekt,heshima,s,changamnao,upinzani,ufanisi,NA,sdf,NA,0,NA,NA,NA,NA,NA,NA,NA,NA,NA,NA,NA,NA,NA,NA,NA,NA,NA,NA,NA
2b311,shallow,flow.Sequence,3_0_0_0_6_1,NA,NA,completion,9800.2879999999,1411682,1411678.951,1411695.617,1421495.905,1421502.1,2023-02-16T12:48:12Z,1421512.571,NULL,Respekt,heshima,s,changamnao,upinzani,ufanisi,NA,sdf,NA,0,NA,NA,NA,NA,NA,NA,NA,NA,NA,NA,NA,NA,NA,NA,NA,NA,NA,NA,NA
2b311,task,flow.Sequence,3_0_0_0_6,NA,NA,completion,9800.2879999999,1411681.8,1411678.951,1411695.617,1421495.905,1421502.2,2023-02-16T12:48:12Z,1421512.571,NULL,Respekt,heshima,s,changamnao,upinzani,ufanisi,NA,sdf,NA,0,NA,NA,NA,NA,NA,NA,NA,NA,NA,NA,NA,NA,NA,NA,NA,NA,NA,NA,NA
2b311,Deep Question,html.Page,3_0_0_0_7_0_0,NA,NA,form submission,7149.6289999997,1421502.3,1421495.905,1421512.571,1428662.2,1428662.3,2023-02-16T12:48:19Z,1428679.483,NULL,Gefährdung,kuhatarisha,d,NA,NA,NA,sadg,NA,NA,0,NA,NA,NA,NA,NA,NA,NA,NA,NA,NA,NA,NA,NA,NA,NA,NA,NA,NA,NA
2b311,"""Richtig""-Screen",canvas.Screen,3_0_0_0_7_0_1,NA,NA,skipped,NA,1428663.4,NA,NA,1428662.2,1428663.4,2023-02-16T12:48:19Z,1428679.483,NULL,Gefährdung,kuhatarisha,d,NA,NA,NA,NA,sdf,NA,0,NA,NA,NA,NA,NA,NA,NA,NA,NA,NA,NA,NA,NA,NA,NA,NA,NA,NA,NA
2b311,"""Falsch""-Screen",canvas.Screen,3_0_0_0_7_0_2,NA,NA,timeout,4999.8,1428663.6,1428662.817,1428679.483,1433662.617,1433664.9,2023-02-16T12:48:24Z,1433679.283,NULL,Gefährdung,kuhatarisha,d,NA,NA,NA,NA,sdf,0,0,NA,NA,NA,NA,NA,NA,NA,NA,NA,NA,NA,NA,NA,NA,NA,NA,NA,NA,NA
2b311,deep,flow.Sequence,3_0_0_0_7_0,NA,NA,completion,12150.046,1421502.3,1421495.905,1421512.571,1433662.617,1433665.3,2023-02-16T12:48:24Z,1433679.283,NULL,Gefährdung,kuhatarisha,d,NA,NA,NA,NA,sdf,NA,0,NA,NA,NA,NA,NA,NA,NA,NA,NA,NA,NA,NA,NA,NA,NA,NA,NA,NA,NA
2b311,shallow,flow.Sequence,3_0_0_0_7_1,NA,NA,skipped,NA,1433665.7,NA,NA,1433662.617,1433665.8,2023-02-16T12:48:24Z,1433679.283,NULL,Gefährdung,kuhatarisha,d,NA,NA,NA,NA,sdf,NA,0,NA,NA,NA,NA,NA,NA,NA,NA,NA,NA,NA,NA,NA,NA,NA,NA,NA,NA,NA
2b311,task,flow.Sequence,3_0_0_0_7,NA,NA,completion,12150.046,1421502.3,1421495.905,1421512.571,1433662.617,1433666,2023-02-16T12:48:24Z,1433679.283,NULL,Gefährdung,kuhatarisha,d,NA,NA,NA,NA,sdf,NA,0,NA,NA,NA,NA,NA,NA,NA,NA,NA,NA,NA,NA,NA,NA,NA,NA,NA,NA,NA
2b311,block,flow.Loop,3_0_0_0,NA,NA,completion,83884.678,1349774.9,1349761.273,1349777.939,1433662.617,1433666.3,2023-02-16T12:48:24Z,1433679.283,NULL,NA,NA,NA,NA,NA,NA,NA,sdf,NA,0,NA,NA,NA,NA,NA,NA,NA,NA,NA,NA,NA,NA,NA,NA,NA,NA,NA,NA,NA
2b311,weiter,canvas.Screen,3_0_0_1,sdf,keypress(Space),response,2415.5169999998,1433666.4,1433662.617,1433679.283,1436094.8,1436100.2,2023-02-16T12:48:26Z,1436129.185,NULL,NA,NA,NA,NA,NA,NA,NA,sdf,NA,0,NA,NA,NA,NA,NA,NA,NA,NA,NA,NA,NA,NA,NA,NA,NA,NA,NA,NA,NA
2b311,check continue,flow.Sequence,3_0_0,NA,NA,completion,86316.861,1349774.8,1349761.273,1349777.939,1436094.8,1436100.7,2023-02-16T12:48:26Z,1436129.185,NULL,NA,NA,NA,NA,NA,NA,NA,sdf,NA,0,NA,NA,NA,NA,NA,NA,NA,NA,NA,NA,NA,NA,NA,NA,NA,NA,NA,NA,NA
2b311,Deep Question,html.Page,3_0_1_0_0_0_0,NA,NA,form submission,5002.5149999997,1436128.5,1436112.519,1436129.185,1441131.7,1441132.1,2023-02-16T12:48:31Z,1441146.238,NULL,Kontrolle,kudhibiti,d,NA,NA,NA,kwa,NA,NA,1,NA,NA,NA,NA,NA,NA,NA,NA,NA,NA,NA,NA,NA,NA,NA,NA,NA,NA,NA
2b311,"""Richtig""-Screen",canvas.Screen,3_0_1_0_0_0_1,NA,NA,skipped,NA,1441134.8,NA,NA,1441131.7,1441135,2023-02-16T12:48:31Z,1441146.238,NULL,Kontrolle,kudhibiti,d,NA,NA,NA,NA,sdfdsf,NA,1,NA,NA,NA,NA,NA,NA,NA,NA,NA,NA,NA,NA,NA,NA,NA,NA,NA,NA,NA
2b311,"""Falsch""-Screen",canvas.Screen,3_0_1_0_0_0_2,NA,NA,timeout,4999.8,1441135.6,1441129.572,1441146.238,1446129.372,1446132.2,2023-02-16T12:48:36Z,1446146.038,NULL,Kontrolle,kudhibiti,d,NA,NA,NA,NA,sdfdsf,0,1,NA,NA,NA,NA,NA,NA,NA,NA,NA,NA,NA,NA,NA,NA,NA,NA,NA,NA,NA
2b311,deep,flow.Sequence,3_0_1_0_0_0,NA,NA,completion,10000.187,1436128.5,1436112.519,1436129.185,1446129.372,1446132.6,2023-02-16T12:48:36Z,1446146.038,NULL,Kontrolle,kudhibiti,d,NA,NA,NA,NA,sdfdsf,NA,1,NA,NA,NA,NA,NA,NA,NA,NA,NA,NA,NA,NA,NA,NA,NA,NA,NA,NA,NA
2b311,shallow,flow.Sequence,3_0_1_0_0_1,NA,NA,skipped,NA,1446132.7,NA,NA,1446129.372,1446132.8,2023-02-16T12:48:36Z,1446146.038,NULL,Kontrolle,kudhibiti,d,NA,NA,NA,NA,sdfdsf,NA,1,NA,NA,NA,NA,NA,NA,NA,NA,NA,NA,NA,NA,NA,NA,NA,NA,NA,NA,NA
2b311,task,flow.Sequence,3_0_1_0_0,NA,NA,completion,10000.187,1436128.5,1436112.519,1436129.185,1446129.372,1446133,2023-02-16T12:48:36Z,1446146.038,NULL,Kontrolle,kudhibiti,d,NA,NA,NA,NA,sdfdsf,NA,1,NA,NA,NA,NA,NA,NA,NA,NA,NA,NA,NA,NA,NA,NA,NA,NA,NA,NA,NA
2b311,Deep Question,html.Page,3_0_1_0_1_0_0,NA,NA,form submission,5671.2619999999,1446133.2,1446129.372,1446146.038,1451817.3,1451817.9,2023-02-16T12:48:42Z,1451829.731,NULL,Stimmung,kinyongo,d,NA,NA,NA,m,NA,NA,1,NA,NA,NA,NA,NA,NA,NA,NA,NA,NA,NA,NA,NA,NA,NA,NA,NA,NA,NA
2b311,"""Richtig""-Screen",canvas.Screen,3_0_1_0_1_0_1,NA,NA,skipped,NA,1451821.1,NA,NA,1451817.3,1451821.3,2023-02-16T12:48:42Z,1451829.731,NULL,Stimmung,kinyongo,d,NA,NA,NA,NA,sdfdsf,NA,1,NA,NA,NA,NA,NA,NA,NA,NA,NA,NA,NA,NA,NA,NA,NA,NA,NA,NA,NA
2b311,"""Falsch""-Screen",canvas.Screen,3_0_1_0_1_0_2,NA,NA,timeout,4999.8,1451822.1,1451813.065,1451829.731,1456812.865,1456815.5,2023-02-16T12:48:47Z,1456829.531,NULL,Stimmung,kinyongo,d,NA,NA,NA,NA,sdfdsf,0,1,NA,NA,NA,NA,NA,NA,NA,NA,NA,NA,NA,NA,NA,NA,NA,NA,NA,NA,NA
2b311,deep,flow.Sequence,3_0_1_0_1_0,NA,NA,completion,10666.827,1446133.2,1446129.372,1446146.038,1456812.865,1456815.9,2023-02-16T12:48:47Z,1456829.531,NULL,Stimmung,kinyongo,d,NA,NA,NA,NA,sdfdsf,NA,1,NA,NA,NA,NA,NA,NA,NA,NA,NA,NA,NA,NA,NA,NA,NA,NA,NA,NA,NA
2b311,shallow,flow.Sequence,3_0_1_0_1_1,NA,NA,skipped,NA,1456816.1,NA,NA,1456812.865,1456816.4,2023-02-16T12:48:47Z,1456829.531,NULL,Stimmung,kinyongo,d,NA,NA,NA,NA,sdfdsf,NA,1,NA,NA,NA,NA,NA,NA,NA,NA,NA,NA,NA,NA,NA,NA,NA,NA,NA,NA,NA
2b311,task,flow.Sequence,3_0_1_0_1,NA,NA,completion,10666.827,1446133.1,1446129.372,1446146.038,1456812.865,1456816.6,2023-02-16T12:48:47Z,1456829.531,NULL,Stimmung,kinyongo,d,NA,NA,NA,NA,sdfdsf,NA,1,NA,NA,NA,NA,NA,NA,NA,NA,NA,NA,NA,NA,NA,NA,NA,NA,NA,NA,NA
2b311,deep,flow.Sequence,3_0_1_0_2_0,NA,NA,skipped,NA,1456816.7,NA,NA,1456812.865,1456816.8,2023-02-16T12:48:47Z,1456829.531,NULL,Können,unaweza,s,kiongozi,bustani,mienendo,NA,sdfdsf,NA,1,NA,NA,NA,NA,NA,NA,NA,NA,NA,NA,NA,NA,NA,NA,NA,NA,NA,NA,NA
2b311,Shallow Question,html.Page,3_0_1_0_2_1_0,NA,NA,form submission,6578.0689999997,1456817,1456812.865,1456829.531,1463407.6,1463408.1,2023-02-16T12:48:54Z,1463412.601,NULL,Können,unaweza,s,kiongozi,bustani,mienendo,unaweza,NA,NA,1,NA,NA,NA,NA,NA,NA,NA,NA,NA,NA,NA,NA,NA,NA,NA,NA,NA,NA,NA
2b311,"""Richtig""-Screen",canvas.Screen,3_0_1_0_2_1_1,NA,NA,timeout,4999.8,1463410.7,1463395.935,1463412.601,1468395.735,1468397.8,2023-02-16T12:48:59Z,1468412.401,NULL,Können,unaweza,s,kiongozi,bustani,mienendo,NA,sdfdsf,1,1,NA,NA,NA,NA,NA,NA,NA,NA,NA,NA,NA,NA,NA,NA,NA,NA,NA,NA,NA
2b311,"""Falsch""-Screen",canvas.Screen,3_0_1_0_2_1_2,NA,NA,skipped,NA,1468402.1,NA,NA,1468395.735,1468402.2,2023-02-16T12:48:59Z,1468412.401,NULL,Können,unaweza,s,kiongozi,bustani,mienendo,NA,sdfdsf,NA,1,NA,NA,NA,NA,NA,NA,NA,NA,NA,NA,NA,NA,NA,NA,NA,NA,NA,NA,NA
2b311,shallow,flow.Sequence,3_0_1_0_2_1,NA,NA,completion,11566.204,1456816.9,1456812.865,1456829.531,1468395.735,1468402.5,2023-02-16T12:48:59Z,1468412.401,NULL,Können,unaweza,s,kiongozi,bustani,mienendo,NA,sdfdsf,NA,1,NA,NA,NA,NA,NA,NA,NA,NA,NA,NA,NA,NA,NA,NA,NA,NA,NA,NA,NA
2b311,task,flow.Sequence,3_0_1_0_2,NA,NA,completion,11566.204,1456816.6,1456812.865,1456829.531,1468395.735,1468402.6,2023-02-16T12:48:59Z,1468412.401,NULL,Können,unaweza,s,kiongozi,bustani,mienendo,NA,sdfdsf,NA,1,NA,NA,NA,NA,NA,NA,NA,NA,NA,NA,NA,NA,NA,NA,NA,NA,NA,NA,NA
2b311,Deep Question,html.Page,3_0_1_0_3_0_0,NA,NA,form submission,3351.8989999997,1468402.6,1468395.735,1468412.401,1471764.3,1471765,2023-02-16T12:49:02Z,1471779.955,NULL,Gefährdung,kuhatarisha,d,NA,NA,NA,ahgfdh,NA,NA,1,NA,NA,NA,NA,NA,NA,NA,NA,NA,NA,NA,NA,NA,NA,NA,NA,NA,NA,NA
2b311,"""Richtig""-Screen",canvas.Screen,3_0_1_0_3_0_1,NA,NA,skipped,NA,1471767.7,NA,NA,1471764.3,1471767.9,2023-02-16T12:49:02Z,1471779.955,NULL,Gefährdung,kuhatarisha,d,NA,NA,NA,NA,sdfdsf,NA,1,NA,NA,NA,NA,NA,NA,NA,NA,NA,NA,NA,NA,NA,NA,NA,NA,NA,NA,NA
2b311,"""Falsch""-Screen",canvas.Screen,3_0_1_0_3_0_2,NA,NA,timeout,4999.7999999998,1471768.4,1471763.289,1471779.955,1476763.089,1476764.6,2023-02-16T12:49:07Z,1476779.755,NULL,Gefährdung,kuhatarisha,d,NA,NA,NA,NA,sdfdsf,0,1,NA,NA,NA,NA,NA,NA,NA,NA,NA,NA,NA,NA,NA,NA,NA,NA,NA,NA,NA
2b311,deep,flow.Sequence,3_0_1_0_3_0,NA,NA,completion,8350.6879999998,1468402.6,1468395.735,1468412.401,1476763.089,1476765.2,2023-02-16T12:49:07Z,1476779.755,NULL,Gefährdung,kuhatarisha,d,NA,NA,NA,NA,sdfdsf,NA,1,NA,NA,NA,NA,NA,NA,NA,NA,NA,NA,NA,NA,NA,NA,NA,NA,NA,NA,NA
2b311,shallow,flow.Sequence,3_0_1_0_3_1,NA,NA,skipped,NA,1476765.3,NA,NA,1476763.089,1476765.5,2023-02-16T12:49:07Z,1476779.755,NULL,Gefährdung,kuhatarisha,d,NA,NA,NA,NA,sdfdsf,NA,1,NA,NA,NA,NA,NA,NA,NA,NA,NA,NA,NA,NA,NA,NA,NA,NA,NA,NA,NA
2b311,task,flow.Sequence,3_0_1_0_3,NA,NA,completion,8350.6879999998,1468402.6,1468395.735,1468412.401,1476763.089,1476765.7,2023-02-16T12:49:07Z,1476779.755,NULL,Gefährdung,kuhatarisha,d,NA,NA,NA,NA,sdfdsf,NA,1,NA,NA,NA,NA,NA,NA,NA,NA,NA,NA,NA,NA,NA,NA,NA,NA,NA,NA,NA
2b311,deep,flow.Sequence,3_0_1_0_4_0,NA,NA,skipped,NA,1476765.9,NA,NA,1476763.089,1476766,2023-02-16T12:49:07Z,1476779.755,NULL,Orientierung,urekebisho,s,uelekeo,marekebisho,utunzaji,NA,sdfdsf,NA,1,NA,NA,NA,NA,NA,NA,NA,NA,NA,NA,NA,NA,NA,NA,NA,NA,NA,NA,NA
2b311,Shallow Question,html.Page,3_0_1_0_4_1_0,NA,NA,form submission,6107.7450000001,1476766.2,1476763.089,1476779.755,1482887.5,1482888,2023-02-16T12:49:13Z,1482896.751,NULL,Orientierung,urekebisho,s,uelekeo,marekebisho,utunzaji,urekebisho,NA,NA,1,NA,NA,NA,NA,NA,NA,NA,NA,NA,NA,NA,NA,NA,NA,NA,NA,NA,NA,NA
2b311,"""Richtig""-Screen",canvas.Screen,3_0_1_0_4_1_1,NA,NA,timeout,4999.8,1482890.8,1482880.085,1482896.751,1487879.885,1487882.4,2023-02-16T12:49:18Z,1487896.551,NULL,Orientierung,urekebisho,s,uelekeo,marekebisho,utunzaji,NA,sdfdsf,1,1,NA,NA,NA,NA,NA,NA,NA,NA,NA,NA,NA,NA,NA,NA,NA,NA,NA,NA,NA
2b311,"""Falsch""-Screen",canvas.Screen,3_0_1_0_4_1_2,NA,NA,skipped,NA,1487885.9,NA,NA,1487879.885,1487886,2023-02-16T12:49:18Z,1487896.551,NULL,Orientierung,urekebisho,s,uelekeo,marekebisho,utunzaji,NA,sdfdsf,NA,1,NA,NA,NA,NA,NA,NA,NA,NA,NA,NA,NA,NA,NA,NA,NA,NA,NA,NA,NA
2b311,shallow,flow.Sequence,3_0_1_0_4_1,NA,NA,completion,11100.13,1476766.1,1476763.089,1476779.755,1487879.885,1487886.2,2023-02-16T12:49:18Z,1487896.551,NULL,Orientierung,urekebisho,s,uelekeo,marekebisho,utunzaji,NA,sdfdsf,NA,1,NA,NA,NA,NA,NA,NA,NA,NA,NA,NA,NA,NA,NA,NA,NA,NA,NA,NA,NA
2b311,task,flow.Sequence,3_0_1_0_4,NA,NA,completion,11100.13,1476765.8,1476763.089,1476779.755,1487879.885,1487886.3,2023-02-16T12:49:18Z,1487896.551,NULL,Orientierung,urekebisho,s,uelekeo,marekebisho,utunzaji,NA,sdfdsf,NA,1,NA,NA,NA,NA,NA,NA,NA,NA,NA,NA,NA,NA,NA,NA,NA,NA,NA,NA,NA
2b311,deep,flow.Sequence,3_0_1_0_5_0,NA,NA,skipped,NA,1487886.4,NA,NA,1487879.885,1487886.4,2023-02-16T12:49:18Z,1487896.551,NULL,Respekt,heshima,s,changamnao,upinzani,ufanisi,NA,sdfdsf,NA,1,NA,NA,NA,NA,NA,NA,NA,NA,NA,NA,NA,NA,NA,NA,NA,NA,NA,NA,NA
2b311,Shallow Question,html.Page,3_0_1_0_5_1_0,NA,NA,form submission,5917.2489999998,1487886.6,1487879.885,1487896.551,1493813.8,1493814.5,2023-02-16T12:49:24Z,1493813.519,NULL,Respekt,heshima,s,changamnao,upinzani,ufanisi,ufanisi,NA,NA,1,NA,NA,NA,NA,NA,NA,NA,NA,NA,NA,NA,NA,NA,NA,NA,NA,NA,NA,NA
2b311,"""Richtig""-Screen",canvas.Screen,3_0_1_0_5_1_1,NA,NA,skipped,NA,1493817.3,NA,NA,1493813.8,1493817.4,2023-02-16T12:49:24Z,1493813.519,NULL,Respekt,heshima,s,changamnao,upinzani,ufanisi,NA,sdfdsf,NA,1,NA,NA,NA,NA,NA,NA,NA,NA,NA,NA,NA,NA,NA,NA,NA,NA,NA,NA,NA
2b311,"""Falsch""-Screen",canvas.Screen,3_0_1_0_5_1_2,NA,NA,timeout,4999.7999999998,1493818.1,1493796.853,1493813.519,1498796.653,1498798.8,2023-02-16T12:49:29Z,1498813.319,NULL,Respekt,heshima,s,changamnao,upinzani,ufanisi,NA,sdfdsf,0,1,NA,NA,NA,NA,NA,NA,NA,NA,NA,NA,NA,NA,NA,NA,NA,NA,NA,NA,NA
2b311,shallow,flow.Sequence,3_0_1_0_5_1,NA,NA,completion,10900.102,1487886.5,1487879.885,1487896.551,1498796.653,1498799,2023-02-16T12:49:29Z,1498813.319,NULL,Respekt,heshima,s,changamnao,upinzani,ufanisi,NA,sdfdsf,NA,1,NA,NA,NA,NA,NA,NA,NA,NA,NA,NA,NA,NA,NA,NA,NA,NA,NA,NA,NA
2b311,task,flow.Sequence,3_0_1_0_5,NA,NA,completion,10900.102,1487886.4,1487879.885,1487896.551,1498796.653,1498799.1,2023-02-16T12:49:29Z,1498813.319,NULL,Respekt,heshima,s,changamnao,upinzani,ufanisi,NA,sdfdsf,NA,1,NA,NA,NA,NA,NA,NA,NA,NA,NA,NA,NA,NA,NA,NA,NA,NA,NA,NA,NA
2b311,deep,flow.Sequence,3_0_1_0_6_0,NA,NA,skipped,NA,1498799.2,NA,NA,1498796.653,1498799.3,2023-02-16T12:49:29Z,1498813.319,NULL,Kreativität,ubunifu,s,mratibu,mwendelezo,makubaliano,NA,sdfdsf,NA,1,NA,NA,NA,NA,NA,NA,NA,NA,NA,NA,NA,NA,NA,NA,NA,NA,NA,NA,NA
2b311,Shallow Question,html.Page,3_0_1_0_6_1_0,NA,NA,form submission,9086.9809999999,1498799.3,1498796.653,1498813.319,1507900.3,1507900.9,2023-02-16T12:49:38Z,1507913.491,NULL,Kreativität,ubunifu,s,mratibu,mwendelezo,makubaliano,mratibu,NA,NA,1,NA,NA,NA,NA,NA,NA,NA,NA,NA,NA,NA,NA,NA,NA,NA,NA,NA,NA,NA
2b311,"""Richtig""-Screen",canvas.Screen,3_0_1_0_6_1_1,NA,NA,skipped,NA,1507903.9,NA,NA,1507900.3,1507904,2023-02-16T12:49:38Z,1507913.491,NULL,Kreativität,ubunifu,s,mratibu,mwendelezo,makubaliano,NA,sdfdsf,NA,1,NA,NA,NA,NA,NA,NA,NA,NA,NA,NA,NA,NA,NA,NA,NA,NA,NA,NA,NA
2b311,"""Falsch""-Screen",canvas.Screen,3_0_1_0_6_1_2,NA,NA,timeout,4999.8,1507905.3,1507896.825,1507913.491,1512896.625,1512898.7,2023-02-16T12:49:43Z,1512913.291,NULL,Kreativität,ubunifu,s,mratibu,mwendelezo,makubaliano,NA,sdfdsf,0,1,NA,NA,NA,NA,NA,NA,NA,NA,NA,NA,NA,NA,NA,NA,NA,NA,NA,NA,NA
2b311,shallow,flow.Sequence,3_0_1_0_6_1,NA,NA,completion,14083.306,1498799.3,1498796.653,1498813.319,1512896.625,1512899.1,2023-02-16T12:49:43Z,1512913.291,NULL,Kreativität,ubunifu,s,mratibu,mwendelezo,makubaliano,NA,sdfdsf,NA,1,NA,NA,NA,NA,NA,NA,NA,NA,NA,NA,NA,NA,NA,NA,NA,NA,NA,NA,NA
2b311,task,flow.Sequence,3_0_1_0_6,NA,NA,completion,14083.306,1498799.2,1498796.653,1498813.319,1512896.625,1512899.3,2023-02-16T12:49:43Z,1512913.291,NULL,Kreativität,ubunifu,s,mratibu,mwendelezo,makubaliano,NA,sdfdsf,NA,1,NA,NA,NA,NA,NA,NA,NA,NA,NA,NA,NA,NA,NA,NA,NA,NA,NA,NA,NA
2b311,Deep Question,html.Page,3_0_1_0_7_0_0,NA,NA,form submission,2953.9090000002,1512899.6,1512896.625,1512913.291,1515867.2,1515867.7,2023-02-16T12:49:46Z,1515880.543,NULL,Betrüger,mdanganyifu,d,NA,NA,NA,hgdjh,NA,NA,1,NA,NA,NA,NA,NA,NA,NA,NA,NA,NA,NA,NA,NA,NA,NA,NA,NA,NA,NA
2b311,"""Richtig""-Screen",canvas.Screen,3_0_1_0_7_0_1,NA,NA,skipped,NA,1515870.9,NA,NA,1515867.2,1515871.2,2023-02-16T12:49:46Z,1515880.543,NULL,Betrüger,mdanganyifu,d,NA,NA,NA,NA,sdfdsf,NA,1,NA,NA,NA,NA,NA,NA,NA,NA,NA,NA,NA,NA,NA,NA,NA,NA,NA,NA,NA
2b311,"""Falsch""-Screen",canvas.Screen,3_0_1_0_7_0_2,NA,NA,timeout,4999.8,1515872.5,1515863.877,1515880.543,1520863.677,1520866.1,2023-02-16T12:49:51Z,1520880.343,NULL,Betrüger,mdanganyifu,d,NA,NA,NA,NA,sdfdsf,0,1,NA,NA,NA,NA,NA,NA,NA,NA,NA,NA,NA,NA,NA,NA,NA,NA,NA,NA,NA
2b311,deep,flow.Sequence,3_0_1_0_7_0,NA,NA,completion,7950.3859999999,1512899.6,1512896.625,1512913.291,1520863.677,1520866.6,2023-02-16T12:49:51Z,1520880.343,NULL,Betrüger,mdanganyifu,d,NA,NA,NA,NA,sdfdsf,NA,1,NA,NA,NA,NA,NA,NA,NA,NA,NA,NA,NA,NA,NA,NA,NA,NA,NA,NA,NA
2b311,shallow,flow.Sequence,3_0_1_0_7_1,NA,NA,skipped,NA,1520866.6,NA,NA,1520863.677,1520866.8,2023-02-16T12:49:51Z,1520880.343,NULL,Betrüger,mdanganyifu,d,NA,NA,NA,NA,sdfdsf,NA,1,NA,NA,NA,NA,NA,NA,NA,NA,NA,NA,NA,NA,NA,NA,NA,NA,NA,NA,NA
2b311,task,flow.Sequence,3_0_1_0_7,NA,NA,completion,7950.3859999999,1512899.4,1512896.625,1512913.291,1520863.677,1520866.9,2023-02-16T12:49:51Z,1520880.343,NULL,Betrüger,mdanganyifu,d,NA,NA,NA,NA,sdfdsf,NA,1,NA,NA,NA,NA,NA,NA,NA,NA,NA,NA,NA,NA,NA,NA,NA,NA,NA,NA,NA
2b311,block,flow.Loop,3_0_1_0,NA,NA,completion,84734.492,1436128.5,1436112.519,1436129.185,1520863.677,1520867.2,2023-02-16T12:49:51Z,1520880.343,NULL,NA,NA,NA,NA,NA,NA,NA,sdfdsf,NA,1,NA,NA,NA,NA,NA,NA,NA,NA,NA,NA,NA,NA,NA,NA,NA,NA,NA,NA,NA
2b311,weiter,canvas.Screen,3_0_1_1,sdf,keypress(Space),response,1970.8570000001,1520867.4,1520863.677,1520880.343,1522851.2,1522857.2,2023-02-16T12:49:53Z,1522896.929,NULL,NA,NA,NA,NA,NA,NA,NA,sdfdsf,NA,1,NA,NA,NA,NA,NA,NA,NA,NA,NA,NA,NA,NA,NA,NA,NA,NA,NA,NA,NA
2b311,check continue,flow.Sequence,3_0_1,NA,NA,completion,86722.015,1436128.5,1436112.519,1436129.185,1522851.2,1522857.6,2023-02-16T12:49:53Z,1522896.929,NULL,NA,NA,NA,NA,NA,NA,NA,sdfdsf,NA,1,NA,NA,NA,NA,NA,NA,NA,NA,NA,NA,NA,NA,NA,NA,NA,NA,NA,NA,NA
2b311,Deep Question,html.Page,3_0_2_0_0_0_0,NA,NA,form submission,6054.8709999998,1522884.5,1522880.263,1522896.929,1528951.8,1528952.2,2023-02-16T12:49:59Z,1528963.866,NULL,Gefährdung,kuhatarisha,d,NA,NA,NA,mdangayifu,NA,NA,2,NA,NA,NA,NA,NA,NA,NA,NA,NA,NA,NA,NA,NA,NA,NA,NA,NA,NA,NA
2b311,"""Richtig""-Screen",canvas.Screen,3_0_2_0_0_0_1,NA,NA,skipped,NA,1528955,NA,NA,1528951.8,1528955.1,2023-02-16T12:49:59Z,1528963.866,NULL,Gefährdung,kuhatarisha,d,NA,NA,NA,NA,sdf,NA,2,NA,NA,NA,NA,NA,NA,NA,NA,NA,NA,NA,NA,NA,NA,NA,NA,NA,NA,NA
2b311,"""Falsch""-Screen",canvas.Screen,3_0_2_0_0_0_2,NA,NA,timeout,4999.8,1528956.2,1528947.2,1528963.866,1533947,1533949.9,2023-02-16T12:50:04Z,1533963.666,NULL,Gefährdung,kuhatarisha,d,NA,NA,NA,NA,sdf,0,2,NA,NA,NA,NA,NA,NA,NA,NA,NA,NA,NA,NA,NA,NA,NA,NA,NA,NA,NA
2b311,deep,flow.Sequence,3_0_2_0_0_0,NA,NA,completion,11050.071,1522884.5,1522880.263,1522896.929,1533947,1533950.3,2023-02-16T12:50:04Z,1533963.666,NULL,Gefährdung,kuhatarisha,d,NA,NA,NA,NA,sdf,NA,2,NA,NA,NA,NA,NA,NA,NA,NA,NA,NA,NA,NA,NA,NA,NA,NA,NA,NA,NA
2b311,shallow,flow.Sequence,3_0_2_0_0_1,NA,NA,skipped,NA,1533950.4,NA,NA,1533947,1533950.6,2023-02-16T12:50:04Z,1533963.666,NULL,Gefährdung,kuhatarisha,d,NA,NA,NA,NA,sdf,NA,2,NA,NA,NA,NA,NA,NA,NA,NA,NA,NA,NA,NA,NA,NA,NA,NA,NA,NA,NA
2b311,task,flow.Sequence,3_0_2_0_0,NA,NA,completion,11050.071,1522884.5,1522880.263,1522896.929,1533947,1533950.8,2023-02-16T12:50:04Z,1533963.666,NULL,Gefährdung,kuhatarisha,d,NA,NA,NA,NA,sdf,NA,2,NA,NA,NA,NA,NA,NA,NA,NA,NA,NA,NA,NA,NA,NA,NA,NA,NA,NA,NA
2b311,Deep Question,html.Page,3_0_2_0_1_0_0,NA,NA,form submission,6182.334,1533950.9,1533947,1533963.666,1540146,1540146.6,2023-02-16T12:50:10Z,1540147.311,NULL,Betrüger,mdanganyifu,d,NA,NA,NA,mdangayifu,NA,NA,2,NA,NA,NA,NA,NA,NA,NA,NA,NA,NA,NA,NA,NA,NA,NA,NA,NA,NA,NA
2b311,"""Richtig""-Screen",canvas.Screen,3_0_2_0_1_0_1,NA,NA,skipped,NA,1540149.5,NA,NA,1540146,1540149.7,2023-02-16T12:50:10Z,1540147.311,NULL,Betrüger,mdanganyifu,d,NA,NA,NA,NA,sdf,NA,2,NA,NA,NA,NA,NA,NA,NA,NA,NA,NA,NA,NA,NA,NA,NA,NA,NA,NA,NA
2b311,"""Falsch""-Screen",canvas.Screen,3_0_2_0_1_0_2,NA,NA,timeout,4999.8,1540150.2,1540130.645,1540147.311,1545130.445,1545133.2,2023-02-16T12:50:15Z,1545147.111,NULL,Betrüger,mdanganyifu,d,NA,NA,NA,NA,sdf,0,2,NA,NA,NA,NA,NA,NA,NA,NA,NA,NA,NA,NA,NA,NA,NA,NA,NA,NA,NA
2b311,deep,flow.Sequence,3_0_2_0_1_0,NA,NA,completion,11166.779,1533950.9,1533947,1533963.666,1545130.445,1545133.7,2023-02-16T12:50:15Z,1545147.111,NULL,Betrüger,mdanganyifu,d,NA,NA,NA,NA,sdf,NA,2,NA,NA,NA,NA,NA,NA,NA,NA,NA,NA,NA,NA,NA,NA,NA,NA,NA,NA,NA
2b311,shallow,flow.Sequence,3_0_2_0_1_1,NA,NA,skipped,NA,1545133.8,NA,NA,1545130.445,1545134,2023-02-16T12:50:15Z,1545147.111,NULL,Betrüger,mdanganyifu,d,NA,NA,NA,NA,sdf,NA,2,NA,NA,NA,NA,NA,NA,NA,NA,NA,NA,NA,NA,NA,NA,NA,NA,NA,NA,NA
2b311,task,flow.Sequence,3_0_2_0_1,NA,NA,completion,11166.779,1533950.8,1533947,1533963.666,1545130.445,1545134.1,2023-02-16T12:50:15Z,1545147.111,NULL,Betrüger,mdanganyifu,d,NA,NA,NA,NA,sdf,NA,2,NA,NA,NA,NA,NA,NA,NA,NA,NA,NA,NA,NA,NA,NA,NA,NA,NA,NA,NA
2b311,deep,flow.Sequence,3_0_2_0_2_0,NA,NA,skipped,NA,1545134.4,NA,NA,1545130.445,1545134.4,2023-02-16T12:50:15Z,1545147.111,NULL,Können,unaweza,s,kiongozi,bustani,mienendo,NA,sdf,NA,2,NA,NA,NA,NA,NA,NA,NA,NA,NA,NA,NA,NA,NA,NA,NA,NA,NA,NA,NA
2b311,Shallow Question,html.Page,3_0_2_0_2_1_0,NA,NA,form submission,8012.0890000002,1545134.6,1545130.445,1545147.111,1553159.2,1553159.7,2023-02-16T12:50:23Z,1553164.166,NULL,Können,unaweza,s,kiongozi,bustani,mienendo,unaweza,NA,NA,2,NA,NA,NA,NA,NA,NA,NA,NA,NA,NA,NA,NA,NA,NA,NA,NA,NA,NA,NA
2b311,"""Richtig""-Screen",canvas.Screen,3_0_2_0_2_1_1,NA,NA,timeout,4999.8,1553162.4,1553147.5,1553164.166,1558147.3,1558148.6,2023-02-16T12:50:28Z,1558163.966,NULL,Können,unaweza,s,kiongozi,bustani,mienendo,NA,sdf,1,2,NA,NA,NA,NA,NA,NA,NA,NA,NA,NA,NA,NA,NA,NA,NA,NA,NA,NA,NA
2b311,"""Falsch""-Screen",canvas.Screen,3_0_2_0_2_1_2,NA,NA,skipped,NA,1558151.6,NA,NA,1558147.3,1558151.8,2023-02-16T12:50:28Z,1558163.966,NULL,Können,unaweza,s,kiongozi,bustani,mienendo,NA,sdf,NA,2,NA,NA,NA,NA,NA,NA,NA,NA,NA,NA,NA,NA,NA,NA,NA,NA,NA,NA,NA
2b311,shallow,flow.Sequence,3_0_2_0_2_1,NA,NA,completion,13000.189,1545134.6,1545130.445,1545147.111,1558147.3,1558151.9,2023-02-16T12:50:28Z,1558163.966,NULL,Können,unaweza,s,kiongozi,bustani,mienendo,NA,sdf,NA,2,NA,NA,NA,NA,NA,NA,NA,NA,NA,NA,NA,NA,NA,NA,NA,NA,NA,NA,NA
2b311,task,flow.Sequence,3_0_2_0_2,NA,NA,completion,13000.189,1545134.3,1545130.445,1545147.111,1558147.3,1558152,2023-02-16T12:50:28Z,1558163.966,NULL,Können,unaweza,s,kiongozi,bustani,mienendo,NA,sdf,NA,2,NA,NA,NA,NA,NA,NA,NA,NA,NA,NA,NA,NA,NA,NA,NA,NA,NA,NA,NA
2b311,deep,flow.Sequence,3_0_2_0_3_0,NA,NA,skipped,NA,1558152.1,NA,NA,1558147.3,1558152.2,2023-02-16T12:50:28Z,1558163.966,NULL,Kreativität,ubunifu,s,mratibu,mwendelezo,makubaliano,NA,sdf,NA,2,NA,NA,NA,NA,NA,NA,NA,NA,NA,NA,NA,NA,NA,NA,NA,NA,NA,NA,NA
2b311,Shallow Question,html.Page,3_0_2_0_3_1_0,NA,NA,form submission,4560.7340000002,1558152.3,1558147.3,1558163.966,1562724.7,1562725.3,2023-02-16T12:50:33Z,1562730.969,NULL,Kreativität,ubunifu,s,mratibu,mwendelezo,makubaliano,ubunifu,NA,NA,2,NA,NA,NA,NA,NA,NA,NA,NA,NA,NA,NA,NA,NA,NA,NA,NA,NA,NA,NA
2b311,"""Richtig""-Screen",canvas.Screen,3_0_2_0_3_1_1,NA,NA,timeout,4999.8,1562728.4,1562714.303,1562730.969,1567714.103,1567716.4,2023-02-16T12:50:38Z,1567730.769,NULL,Kreativität,ubunifu,s,mratibu,mwendelezo,makubaliano,NA,sdf,1,2,NA,NA,NA,NA,NA,NA,NA,NA,NA,NA,NA,NA,NA,NA,NA,NA,NA,NA,NA
2b311,"""Falsch""-Screen",canvas.Screen,3_0_2_0_3_1_2,NA,NA,skipped,NA,1567720.1,NA,NA,1567714.103,1567720.3,2023-02-16T12:50:38Z,1567730.769,NULL,Kreativität,ubunifu,s,mratibu,mwendelezo,makubaliano,NA,sdf,NA,2,NA,NA,NA,NA,NA,NA,NA,NA,NA,NA,NA,NA,NA,NA,NA,NA,NA,NA,NA
2b311,shallow,flow.Sequence,3_0_2_0_3_1,NA,NA,completion,9550.1369999999,1558152.2,1558147.3,1558163.966,1567714.103,1567720.4,2023-02-16T12:50:38Z,1567730.769,NULL,Kreativität,ubunifu,s,mratibu,mwendelezo,makubaliano,NA,sdf,NA,2,NA,NA,NA,NA,NA,NA,NA,NA,NA,NA,NA,NA,NA,NA,NA,NA,NA,NA,NA
2b311,task,flow.Sequence,3_0_2_0_3,NA,NA,completion,9550.1369999999,1558152.1,1558147.3,1558163.966,1567714.103,1567720.6,2023-02-16T12:50:38Z,1567730.769,NULL,Kreativität,ubunifu,s,mratibu,mwendelezo,makubaliano,NA,sdf,NA,2,NA,NA,NA,NA,NA,NA,NA,NA,NA,NA,NA,NA,NA,NA,NA,NA,NA,NA,NA
2b311,deep,flow.Sequence,3_0_2_0_4_0,NA,NA,skipped,NA,1567720.8,NA,NA,1567714.103,1567720.8,2023-02-16T12:50:38Z,1567730.769,NULL,Orientierung,urekebisho,s,uelekeo,marekebisho,utunzaji,NA,sdf,NA,2,NA,NA,NA,NA,NA,NA,NA,NA,NA,NA,NA,NA,NA,NA,NA,NA,NA,NA,NA
2b311,Shallow Question,html.Page,3_0_2_0_4_1_0,NA,NA,form submission,5539.3309999995,1567721,1567714.103,1567730.769,1573270.1,1573270.7,2023-02-16T12:50:43Z,1573281.063,NULL,Orientierung,urekebisho,s,uelekeo,marekebisho,utunzaji,urekebisho,NA,NA,2,NA,NA,NA,NA,NA,NA,NA,NA,NA,NA,NA,NA,NA,NA,NA,NA,NA,NA,NA
2b311,"""Richtig""-Screen",canvas.Screen,3_0_2_0_4_1_1,NA,NA,timeout,4999.7999999998,1573274.6,1573264.397,1573281.063,1578264.197,1578266.8,2023-02-16T12:50:48Z,1578280.863,NULL,Orientierung,urekebisho,s,uelekeo,marekebisho,utunzaji,NA,sdf,1,2,NA,NA,NA,NA,NA,NA,NA,NA,NA,NA,NA,NA,NA,NA,NA,NA,NA,NA,NA
2b311,"""Falsch""-Screen",canvas.Screen,3_0_2_0_4_1_2,NA,NA,skipped,NA,1578270.4,NA,NA,1578264.197,1578270.6,2023-02-16T12:50:48Z,1578280.863,NULL,Orientierung,urekebisho,s,uelekeo,marekebisho,utunzaji,NA,sdf,NA,2,NA,NA,NA,NA,NA,NA,NA,NA,NA,NA,NA,NA,NA,NA,NA,NA,NA,NA,NA
2b311,shallow,flow.Sequence,3_0_2_0_4_1,NA,NA,completion,10533.428,1567720.9,1567714.103,1567730.769,1578264.197,1578270.8,2023-02-16T12:50:48Z,1578280.863,NULL,Orientierung,urekebisho,s,uelekeo,marekebisho,utunzaji,NA,sdf,NA,2,NA,NA,NA,NA,NA,NA,NA,NA,NA,NA,NA,NA,NA,NA,NA,NA,NA,NA,NA
2b311,task,flow.Sequence,3_0_2_0_4,NA,NA,completion,10533.428,1567720.7,1567714.103,1567730.769,1578264.197,1578270.9,2023-02-16T12:50:48Z,1578280.863,NULL,Orientierung,urekebisho,s,uelekeo,marekebisho,utunzaji,NA,sdf,NA,2,NA,NA,NA,NA,NA,NA,NA,NA,NA,NA,NA,NA,NA,NA,NA,NA,NA,NA,NA
2b311,Deep Question,html.Page,3_0_2_0_5_0_0,NA,NA,form submission,6352.2369999997,1578271,1578264.197,1578280.863,1584633.1,1584633.3,2023-02-16T12:50:55Z,1584647.776,NULL,Kontrolle,kudhibiti,d,NA,NA,NA,k,NA,NA,2,NA,NA,NA,NA,NA,NA,NA,NA,NA,NA,NA,NA,NA,NA,NA,NA,NA,NA,NA
2b311,"""Richtig""-Screen",canvas.Screen,3_0_2_0_5_0_1,NA,NA,skipped,NA,1584635.1,NA,NA,1584633.1,1584635.2,2023-02-16T12:50:55Z,1584647.776,NULL,Kontrolle,kudhibiti,d,NA,NA,NA,NA,sdf,NA,2,NA,NA,NA,NA,NA,NA,NA,NA,NA,NA,NA,NA,NA,NA,NA,NA,NA,NA,NA
2b311,"""Falsch""-Screen",canvas.Screen,3_0_2_0_5_0_2,NA,NA,timeout,4999.7999999998,1584635.5,1584631.11,1584647.776,1589630.91,1589632.9,2023-02-16T12:51:00Z,1589647.576,NULL,Kontrolle,kudhibiti,d,NA,NA,NA,NA,sdf,0,2,NA,NA,NA,NA,NA,NA,NA,NA,NA,NA,NA,NA,NA,NA,NA,NA,NA,NA,NA
2b311,deep,flow.Sequence,3_0_2_0_5_0,NA,NA,completion,11350.047,1578271,1578264.197,1578280.863,1589630.91,1589633.4,2023-02-16T12:51:00Z,1589647.576,NULL,Kontrolle,kudhibiti,d,NA,NA,NA,NA,sdf,NA,2,NA,NA,NA,NA,NA,NA,NA,NA,NA,NA,NA,NA,NA,NA,NA,NA,NA,NA,NA
2b311,shallow,flow.Sequence,3_0_2_0_5_1,NA,NA,skipped,NA,1589633.5,NA,NA,1589630.91,1589633.6,2023-02-16T12:51:00Z,1589647.576,NULL,Kontrolle,kudhibiti,d,NA,NA,NA,NA,sdf,NA,2,NA,NA,NA,NA,NA,NA,NA,NA,NA,NA,NA,NA,NA,NA,NA,NA,NA,NA,NA
2b311,task,flow.Sequence,3_0_2_0_5,NA,NA,completion,11350.047,1578270.9,1578264.197,1578280.863,1589630.91,1589633.9,2023-02-16T12:51:00Z,1589647.576,NULL,Kontrolle,kudhibiti,d,NA,NA,NA,NA,sdf,NA,2,NA,NA,NA,NA,NA,NA,NA,NA,NA,NA,NA,NA,NA,NA,NA,NA,NA,NA,NA
2b311,deep,flow.Sequence,3_0_2_0_6_0,NA,NA,skipped,NA,1589634,NA,NA,1589630.91,1589634.1,2023-02-16T12:51:00Z,1589647.576,NULL,Respekt,heshima,s,changamnao,upinzani,ufanisi,NA,sdf,NA,2,NA,NA,NA,NA,NA,NA,NA,NA,NA,NA,NA,NA,NA,NA,NA,NA,NA,NA,NA
2b311,Shallow Question,html.Page,3_0_2_0_6_1_0,NA,NA,form submission,3993.1240000003,1589634.3,1589630.91,1589647.576,1593640.7,1593641.3,2023-02-16T12:51:04Z,1593648.061,NULL,Respekt,heshima,s,changamnao,upinzani,ufanisi,heshima,NA,NA,2,NA,NA,NA,NA,NA,NA,NA,NA,NA,NA,NA,NA,NA,NA,NA,NA,NA,NA,NA
2b311,"""Richtig""-Screen",canvas.Screen,3_0_2_0_6_1_1,NA,NA,timeout,4999.8,1593644.4,1593631.395,1593648.061,1598631.195,1598633.3,2023-02-16T12:51:09Z,1598647.861,NULL,Respekt,heshima,s,changamnao,upinzani,ufanisi,NA,sdf,1,2,NA,NA,NA,NA,NA,NA,NA,NA,NA,NA,NA,NA,NA,NA,NA,NA,NA,NA,NA
2b311,"""Falsch""-Screen",canvas.Screen,3_0_2_0_6_1_2,NA,NA,skipped,NA,1598637.6,NA,NA,1598631.195,1598637.7,2023-02-16T12:51:09Z,1598647.861,NULL,Respekt,heshima,s,changamnao,upinzani,ufanisi,NA,sdf,NA,2,NA,NA,NA,NA,NA,NA,NA,NA,NA,NA,NA,NA,NA,NA,NA,NA,NA,NA,NA
2b311,shallow,flow.Sequence,3_0_2_0_6_1,NA,NA,completion,8983.6190000002,1589634.2,1589630.91,1589647.576,1598631.195,1598637.9,2023-02-16T12:51:09Z,1598647.861,NULL,Respekt,heshima,s,changamnao,upinzani,ufanisi,NA,sdf,NA,2,NA,NA,NA,NA,NA,NA,NA,NA,NA,NA,NA,NA,NA,NA,NA,NA,NA,NA,NA
2b311,task,flow.Sequence,3_0_2_0_6,NA,NA,completion,8983.6190000002,1589634,1589630.91,1589647.576,1598631.195,1598638.1,2023-02-16T12:51:09Z,1598647.861,NULL,Respekt,heshima,s,changamnao,upinzani,ufanisi,NA,sdf,NA,2,NA,NA,NA,NA,NA,NA,NA,NA,NA,NA,NA,NA,NA,NA,NA,NA,NA,NA,NA
2b311,Deep Question,html.Page,3_0_2_0_7_0_0,NA,NA,form submission,11386.639,1598638.3,1598631.195,1598647.861,1610034.5,1610035.1,2023-02-16T12:51:20Z,1610047.91,NULL,Stimmung,kinyongo,d,NA,NA,NA,sdfjs,NA,NA,2,NA,NA,NA,NA,NA,NA,NA,NA,NA,NA,NA,NA,NA,NA,NA,NA,NA,NA,NA
2b311,"""Richtig""-Screen",canvas.Screen,3_0_2_0_7_0_1,NA,NA,skipped,NA,1610037.9,NA,NA,1610034.5,1610038.1,2023-02-16T12:51:20Z,1610047.91,NULL,Stimmung,kinyongo,d,NA,NA,NA,NA,sdf,NA,2,NA,NA,NA,NA,NA,NA,NA,NA,NA,NA,NA,NA,NA,NA,NA,NA,NA,NA,NA
2b311,"""Falsch""-Screen",canvas.Screen,3_0_2_0_7_0_2,NA,NA,timeout,4999.8,1610038.8,1610031.244,1610047.91,1615031.044,1615032.6,2023-02-16T12:51:25Z,1615047.71,NULL,Stimmung,kinyongo,d,NA,NA,NA,NA,sdf,0,2,NA,NA,NA,NA,NA,NA,NA,NA,NA,NA,NA,NA,NA,NA,NA,NA,NA,NA,NA
2b311,deep,flow.Sequence,3_0_2_0_7_0,NA,NA,completion,16383.183,1598638.2,1598631.195,1598647.861,1615031.044,1615033,2023-02-16T12:51:25Z,1615047.71,NULL,Stimmung,kinyongo,d,NA,NA,NA,NA,sdf,NA,2,NA,NA,NA,NA,NA,NA,NA,NA,NA,NA,NA,NA,NA,NA,NA,NA,NA,NA,NA
2b311,shallow,flow.Sequence,3_0_2_0_7_1,NA,NA,skipped,NA,1615033.2,NA,NA,1615031.044,1615033.4,2023-02-16T12:51:25Z,1615047.71,NULL,Stimmung,kinyongo,d,NA,NA,NA,NA,sdf,NA,2,NA,NA,NA,NA,NA,NA,NA,NA,NA,NA,NA,NA,NA,NA,NA,NA,NA,NA,NA
2b311,task,flow.Sequence,3_0_2_0_7,NA,NA,completion,16383.183,1598638.2,1598631.195,1598647.861,1615031.044,1615033.6,2023-02-16T12:51:25Z,1615047.71,NULL,Stimmung,kinyongo,d,NA,NA,NA,NA,sdf,NA,2,NA,NA,NA,NA,NA,NA,NA,NA,NA,NA,NA,NA,NA,NA,NA,NA,NA,NA,NA
2b311,block,flow.Loop,3_0_2_0,NA,NA,completion,92134.115,1522884.5,1522880.263,1522896.929,1615031.044,1615033.8,2023-02-16T12:51:25Z,1615047.71,NULL,NA,NA,NA,NA,NA,NA,NA,sdf,NA,2,NA,NA,NA,NA,NA,NA,NA,NA,NA,NA,NA,NA,NA,NA,NA,NA,NA,NA,NA
2b311,weiter,canvas.Screen,3_0_2_1,sdf,keypress(Space),response,731.29000000004,1615033.9,1615031.044,1615047.71,1615779,1615784.5,2023-02-16T12:51:26Z,1615815.03,NULL,NA,NA,NA,NA,NA,NA,NA,sdf,NA,2,NA,NA,NA,NA,NA,NA,NA,NA,NA,NA,NA,NA,NA,NA,NA,NA,NA,NA,NA
2b311,check continue,flow.Sequence,3_0_2,NA,NA,completion,92882.071,1522884.5,1522880.263,1522896.929,1615779,1615784.8,2023-02-16T12:51:26Z,1615815.03,NULL,NA,NA,NA,NA,NA,NA,NA,sdf,NA,2,NA,NA,NA,NA,NA,NA,NA,NA,NA,NA,NA,NA,NA,NA,NA,NA,NA,NA,NA
2b311,Deep Question,html.Page,3_0_3_0_0_0_0,NA,NA,form submission,7632.3699999994,1615810.8,1615798.364,1615815.03,1623447.4,1623448,2023-02-16T12:51:34Z,1623448.058,NULL,Gefährdung,kuhatarisha,d,NA,NA,NA,kudhibiti,NA,NA,3,NA,NA,NA,NA,NA,NA,NA,NA,NA,NA,NA,NA,NA,NA,NA,NA,NA,NA,NA
2b311,"""Richtig""-Screen",canvas.Screen,3_0_3_0_0_0_1,NA,NA,skipped,NA,1623450.8,NA,NA,1623447.4,1623451.1,2023-02-16T12:51:34Z,1623448.058,NULL,Gefährdung,kuhatarisha,d,NA,NA,NA,NA,qt,NA,3,NA,NA,NA,NA,NA,NA,NA,NA,NA,NA,NA,NA,NA,NA,NA,NA,NA,NA,NA
2b311,"""Falsch""-Screen",canvas.Screen,3_0_3_0_0_0_2,NA,NA,timeout,4999.8,1623452.4,1623431.392,1623448.058,1628431.192,1628433.9,2023-02-16T12:51:39Z,1628447.858,NULL,Gefährdung,kuhatarisha,d,NA,NA,NA,NA,qt,0,3,NA,NA,NA,NA,NA,NA,NA,NA,NA,NA,NA,NA,NA,NA,NA,NA,NA,NA,NA
2b311,deep,flow.Sequence,3_0_3_0_0_0,NA,NA,completion,12616.162,1615810.8,1615798.364,1615815.03,1628431.192,1628434.3,2023-02-16T12:51:39Z,1628447.858,NULL,Gefährdung,kuhatarisha,d,NA,NA,NA,NA,qt,NA,3,NA,NA,NA,NA,NA,NA,NA,NA,NA,NA,NA,NA,NA,NA,NA,NA,NA,NA,NA
2b311,shallow,flow.Sequence,3_0_3_0_0_1,NA,NA,skipped,NA,1628434.4,NA,NA,1628431.192,1628434.6,2023-02-16T12:51:39Z,1628447.858,NULL,Gefährdung,kuhatarisha,d,NA,NA,NA,NA,qt,NA,3,NA,NA,NA,NA,NA,NA,NA,NA,NA,NA,NA,NA,NA,NA,NA,NA,NA,NA,NA
2b311,task,flow.Sequence,3_0_3_0_0,NA,NA,completion,12616.162,1615810.8,1615798.364,1615815.03,1628431.192,1628434.8,2023-02-16T12:51:39Z,1628447.858,NULL,Gefährdung,kuhatarisha,d,NA,NA,NA,NA,qt,NA,3,NA,NA,NA,NA,NA,NA,NA,NA,NA,NA,NA,NA,NA,NA,NA,NA,NA,NA,NA
2b311,Deep Question,html.Page,3_0_3_0_1_0_0,NA,NA,form submission,7175.142,1628435,1628431.192,1628447.858,1635623,1635623.8,2023-02-16T12:51:46Z,1635631.574,NULL,Kontrolle,kudhibiti,d,NA,NA,NA,kudhibiti,NA,NA,3,NA,NA,NA,NA,NA,NA,NA,NA,NA,NA,NA,NA,NA,NA,NA,NA,NA,NA,NA
2b311,"""Richtig""-Screen",canvas.Screen,3_0_3_0_1_0_1,NA,NA,timeout,4999.8,1635627.2,1635614.908,1635631.574,1640614.708,1640616.8,2023-02-16T12:51:51Z,1640631.374,NULL,Kontrolle,kudhibiti,d,NA,NA,NA,NA,qt,1,3,NA,NA,NA,NA,NA,NA,NA,NA,NA,NA,NA,NA,NA,NA,NA,NA,NA,NA,NA
2b311,"""Falsch""-Screen",canvas.Screen,3_0_3_0_1_0_2,NA,NA,skipped,NA,1640620.6,NA,NA,1640614.708,1640620.7,2023-02-16T12:51:51Z,1640631.374,NULL,Kontrolle,kudhibiti,d,NA,NA,NA,NA,qt,NA,3,NA,NA,NA,NA,NA,NA,NA,NA,NA,NA,NA,NA,NA,NA,NA,NA,NA,NA,NA
2b311,deep,flow.Sequence,3_0_3_0_1_0,NA,NA,completion,12166.85,1628434.9,1628431.192,1628447.858,1640614.708,1640620.8,2023-02-16T12:51:51Z,1640631.374,NULL,Kontrolle,kudhibiti,d,NA,NA,NA,NA,qt,NA,3,NA,NA,NA,NA,NA,NA,NA,NA,NA,NA,NA,NA,NA,NA,NA,NA,NA,NA,NA
2b311,shallow,flow.Sequence,3_0_3_0_1_1,NA,NA,skipped,NA,1640620.9,NA,NA,1640614.708,1640621,2023-02-16T12:51:51Z,1640631.374,NULL,Kontrolle,kudhibiti,d,NA,NA,NA,NA,qt,NA,3,NA,NA,NA,NA,NA,NA,NA,NA,NA,NA,NA,NA,NA,NA,NA,NA,NA,NA,NA
2b311,task,flow.Sequence,3_0_3_0_1,NA,NA,completion,12166.85,1628434.9,1628431.192,1628447.858,1640614.708,1640621,2023-02-16T12:51:51Z,1640631.374,NULL,Kontrolle,kudhibiti,d,NA,NA,NA,NA,qt,NA,3,NA,NA,NA,NA,NA,NA,NA,NA,NA,NA,NA,NA,NA,NA,NA,NA,NA,NA,NA
2b311,deep,flow.Sequence,3_0_3_0_2_0,NA,NA,skipped,NA,1640621.2,NA,NA,1640614.708,1640621.2,2023-02-16T12:51:51Z,1640631.374,NULL,Respekt,heshima,s,changamnao,upinzani,ufanisi,NA,qt,NA,3,NA,NA,NA,NA,NA,NA,NA,NA,NA,NA,NA,NA,NA,NA,NA,NA,NA,NA,NA
2b311,Shallow Question,html.Page,3_0_3_0_2_1_0,NA,NA,form submission,3750.4259999997,1640621.3,1640614.708,1640631.374,1644381.8,1644382.2,2023-02-16T12:51:55Z,1644381.833,NULL,Respekt,heshima,s,changamnao,upinzani,ufanisi,heshima,NA,NA,3,NA,NA,NA,NA,NA,NA,NA,NA,NA,NA,NA,NA,NA,NA,NA,NA,NA,NA,NA
2b311,"""Richtig""-Screen",canvas.Screen,3_0_3_0_2_1_1,NA,NA,timeout,4999.7999999998,1644385,1644365.167,1644381.833,1649364.967,1649367.2,2023-02-16T12:51:59Z,1649381.633,NULL,Respekt,heshima,s,changamnao,upinzani,ufanisi,NA,qt,1,3,NA,NA,NA,NA,NA,NA,NA,NA,NA,NA,NA,NA,NA,NA,NA,NA,NA,NA,NA
2b311,"""Falsch""-Screen",canvas.Screen,3_0_3_0_2_1_2,NA,NA,skipped,NA,1649371.6,NA,NA,1649364.967,1649371.8,2023-02-16T12:51:59Z,1649381.633,NULL,Respekt,heshima,s,changamnao,upinzani,ufanisi,NA,qt,NA,3,NA,NA,NA,NA,NA,NA,NA,NA,NA,NA,NA,NA,NA,NA,NA,NA,NA,NA,NA
2b311,shallow,flow.Sequence,3_0_3_0_2_1,NA,NA,completion,8733.5929999999,1640621.3,1640614.708,1640631.374,1649364.967,1649372,2023-02-16T12:51:59Z,1649381.633,NULL,Respekt,heshima,s,changamnao,upinzani,ufanisi,NA,qt,NA,3,NA,NA,NA,NA,NA,NA,NA,NA,NA,NA,NA,NA,NA,NA,NA,NA,NA,NA,NA
2b311,task,flow.Sequence,3_0_3_0_2,NA,NA,completion,8733.5929999999,1640621.2,1640614.708,1640631.374,1649364.967,1649372.1,2023-02-16T12:51:59Z,1649381.633,NULL,Respekt,heshima,s,changamnao,upinzani,ufanisi,NA,qt,NA,3,NA,NA,NA,NA,NA,NA,NA,NA,NA,NA,NA,NA,NA,NA,NA,NA,NA,NA,NA
2b311,Deep Question,html.Page,3_0_3_0_3_0_0,NA,NA,form submission,8398.8670000001,1649372.3,1649364.967,1649381.633,1657780.5,1657781.1,2023-02-16T12:52:08Z,1657781.803,NULL,Betrüger,mdanganyifu,d,NA,NA,NA,mdangenyifu,NA,NA,3,NA,NA,NA,NA,NA,NA,NA,NA,NA,NA,NA,NA,NA,NA,NA,NA,NA,NA,NA
2b311,"""Richtig""-Screen",canvas.Screen,3_0_3_0_3_0_1,NA,NA,skipped,NA,1657784,NA,NA,1657780.5,1657784.2,2023-02-16T12:52:08Z,1657781.803,NULL,Betrüger,mdanganyifu,d,NA,NA,NA,NA,qt,NA,3,NA,NA,NA,NA,NA,NA,NA,NA,NA,NA,NA,NA,NA,NA,NA,NA,NA,NA,NA
2b311,"""Falsch""-Screen",canvas.Screen,3_0_3_0_3_0_2,NA,NA,timeout,4999.7999999998,1657784.8,1657765.137,1657781.803,1662764.937,1662767.1,2023-02-16T12:52:13Z,1662781.603,NULL,Betrüger,mdanganyifu,d,NA,NA,NA,NA,qt,0,3,NA,NA,NA,NA,NA,NA,NA,NA,NA,NA,NA,NA,NA,NA,NA,NA,NA,NA,NA
2b311,deep,flow.Sequence,3_0_3_0_3_0,NA,NA,completion,13383.304,1649372.3,1649364.967,1649381.633,1662764.937,1662767.5,2023-02-16T12:52:13Z,1662781.603,NULL,Betrüger,mdanganyifu,d,NA,NA,NA,NA,qt,NA,3,NA,NA,NA,NA,NA,NA,NA,NA,NA,NA,NA,NA,NA,NA,NA,NA,NA,NA,NA
2b311,shallow,flow.Sequence,3_0_3_0_3_1,NA,NA,skipped,NA,1662767.7,NA,NA,1662764.937,1662767.9,2023-02-16T12:52:13Z,1662781.603,NULL,Betrüger,mdanganyifu,d,NA,NA,NA,NA,qt,NA,3,NA,NA,NA,NA,NA,NA,NA,NA,NA,NA,NA,NA,NA,NA,NA,NA,NA,NA,NA
2b311,task,flow.Sequence,3_0_3_0_3,NA,NA,completion,13383.304,1649372.2,1649364.967,1649381.633,1662764.937,1662768.1,2023-02-16T12:52:13Z,1662781.603,NULL,Betrüger,mdanganyifu,d,NA,NA,NA,NA,qt,NA,3,NA,NA,NA,NA,NA,NA,NA,NA,NA,NA,NA,NA,NA,NA,NA,NA,NA,NA,NA
2b311,deep,flow.Sequence,3_0_3_0_4_0,NA,NA,skipped,NA,1662768.3,NA,NA,1662764.937,1662768.4,2023-02-16T12:52:13Z,1662781.603,NULL,Orientierung,urekebisho,s,uelekeo,marekebisho,utunzaji,NA,qt,NA,3,NA,NA,NA,NA,NA,NA,NA,NA,NA,NA,NA,NA,NA,NA,NA,NA,NA,NA,NA
2b311,Shallow Question,html.Page,3_0_3_0_4_1_0,NA,NA,form submission,4096.6969999999,1662768.5,1662764.937,1662781.603,1666878.3,1666879,2023-02-16T12:52:17Z,1666882.164,NULL,Orientierung,urekebisho,s,uelekeo,marekebisho,utunzaji,urekebisho,NA,NA,3,NA,NA,NA,NA,NA,NA,NA,NA,NA,NA,NA,NA,NA,NA,NA,NA,NA,NA,NA
2b311,"""Richtig""-Screen",canvas.Screen,3_0_3_0_4_1_1,NA,NA,timeout,4999.7999999998,1666881.9,1666865.498,1666882.164,1671865.298,1671868.1,2023-02-16T12:52:22Z,1671881.964,NULL,Orientierung,urekebisho,s,uelekeo,marekebisho,utunzaji,NA,qt,1,3,NA,NA,NA,NA,NA,NA,NA,NA,NA,NA,NA,NA,NA,NA,NA,NA,NA,NA,NA
2b311,"""Falsch""-Screen",canvas.Screen,3_0_3_0_4_1_2,NA,NA,skipped,NA,1671872.1,NA,NA,1671865.298,1671872.3,2023-02-16T12:52:22Z,1671881.964,NULL,Orientierung,urekebisho,s,uelekeo,marekebisho,utunzaji,NA,qt,NA,3,NA,NA,NA,NA,NA,NA,NA,NA,NA,NA,NA,NA,NA,NA,NA,NA,NA,NA,NA
2b311,shallow,flow.Sequence,3_0_3_0_4_1,NA,NA,completion,9083.6950000001,1662768.4,1662764.937,1662781.603,1671865.298,1671872.5,2023-02-16T12:52:22Z,1671881.964,NULL,Orientierung,urekebisho,s,uelekeo,marekebisho,utunzaji,NA,qt,NA,3,NA,NA,NA,NA,NA,NA,NA,NA,NA,NA,NA,NA,NA,NA,NA,NA,NA,NA,NA
2b311,task,flow.Sequence,3_0_3_0_4,NA,NA,completion,9083.6950000001,1662768.2,1662764.937,1662781.603,1671865.298,1671872.6,2023-02-16T12:52:22Z,1671881.964,NULL,Orientierung,urekebisho,s,uelekeo,marekebisho,utunzaji,NA,qt,NA,3,NA,NA,NA,NA,NA,NA,NA,NA,NA,NA,NA,NA,NA,NA,NA,NA,NA,NA,NA
2b311,deep,flow.Sequence,3_0_3_0_5_0,NA,NA,skipped,NA,1671872.8,NA,NA,1671865.298,1671872.8,2023-02-16T12:52:22Z,1671881.964,NULL,Können,unaweza,s,kiongozi,bustani,mienendo,NA,qt,NA,3,NA,NA,NA,NA,NA,NA,NA,NA,NA,NA,NA,NA,NA,NA,NA,NA,NA,NA,NA
2b311,Shallow Question,html.Page,3_0_3_0_5_1_0,NA,NA,form submission,5177.7360000003,1671873,1671865.298,1671881.964,1677059.7,1677060.2,2023-02-16T12:52:27Z,1677065.705,NULL,Können,unaweza,s,kiongozi,bustani,mienendo,unaweza,NA,NA,3,NA,NA,NA,NA,NA,NA,NA,NA,NA,NA,NA,NA,NA,NA,NA,NA,NA,NA,NA
2b311,"""Richtig""-Screen",canvas.Screen,3_0_3_0_5_1_1,NA,NA,timeout,4999.7999999998,1677062.6,1677049.039,1677065.705,1682048.839,1682051.1,2023-02-16T12:52:32Z,1682065.505,NULL,Können,unaweza,s,kiongozi,bustani,mienendo,NA,qt,1,3,NA,NA,NA,NA,NA,NA,NA,NA,NA,NA,NA,NA,NA,NA,NA,NA,NA,NA,NA
2b311,"""Falsch""-Screen",canvas.Screen,3_0_3_0_5_1_2,NA,NA,skipped,NA,1682054.9,NA,NA,1682048.839,1682055,2023-02-16T12:52:32Z,1682065.505,NULL,Können,unaweza,s,kiongozi,bustani,mienendo,NA,qt,NA,3,NA,NA,NA,NA,NA,NA,NA,NA,NA,NA,NA,NA,NA,NA,NA,NA,NA,NA,NA
2b311,shallow,flow.Sequence,3_0_3_0_5_1,NA,NA,completion,10166.875,1671872.9,1671865.298,1671881.964,1682048.839,1682055.2,2023-02-16T12:52:32Z,1682065.505,NULL,Können,unaweza,s,kiongozi,bustani,mienendo,NA,qt,NA,3,NA,NA,NA,NA,NA,NA,NA,NA,NA,NA,NA,NA,NA,NA,NA,NA,NA,NA,NA
2b311,task,flow.Sequence,3_0_3_0_5,NA,NA,completion,10166.875,1671872.8,1671865.298,1671881.964,1682048.839,1682055.3,2023-02-16T12:52:32Z,1682065.505,NULL,Können,unaweza,s,kiongozi,bustani,mienendo,NA,qt,NA,3,NA,NA,NA,NA,NA,NA,NA,NA,NA,NA,NA,NA,NA,NA,NA,NA,NA,NA,NA
2b311,deep,flow.Sequence,3_0_3_0_6_0,NA,NA,skipped,NA,1682055.5,NA,NA,1682048.839,1682055.5,2023-02-16T12:52:32Z,1682065.505,NULL,Kreativität,ubunifu,s,mratibu,mwendelezo,makubaliano,NA,qt,NA,3,NA,NA,NA,NA,NA,NA,NA,NA,NA,NA,NA,NA,NA,NA,NA,NA,NA,NA,NA
2b311,Shallow Question,html.Page,3_0_3_0_6_1_0,NA,NA,form submission,4471.7949999999,1682055.7,1682048.839,1682065.505,1686537.3,1686537.8,2023-02-16T12:52:37Z,1686549.169,NULL,Kreativität,ubunifu,s,mratibu,mwendelezo,makubaliano,ubunifu,NA,NA,3,NA,NA,NA,NA,NA,NA,NA,NA,NA,NA,NA,NA,NA,NA,NA,NA,NA,NA,NA
2b311,"""Richtig""-Screen",canvas.Screen,3_0_3_0_6_1_1,NA,NA,timeout,4999.8,1686541.5,1686532.503,1686549.169,1691532.303,1691534.5,2023-02-16T12:52:42Z,1691548.969,NULL,Kreativität,ubunifu,s,mratibu,mwendelezo,makubaliano,NA,qt,1,3,NA,NA,NA,NA,NA,NA,NA,NA,NA,NA,NA,NA,NA,NA,NA,NA,NA,NA,NA
2b311,"""Falsch""-Screen",canvas.Screen,3_0_3_0_6_1_2,NA,NA,skipped,NA,1691538.3,NA,NA,1691532.303,1691538.5,2023-02-16T12:52:42Z,1691548.969,NULL,Kreativität,ubunifu,s,mratibu,mwendelezo,makubaliano,NA,qt,NA,3,NA,NA,NA,NA,NA,NA,NA,NA,NA,NA,NA,NA,NA,NA,NA,NA,NA,NA,NA
2b311,shallow,flow.Sequence,3_0_3_0_6_1,NA,NA,completion,9466.7980000002,1682055.6,1682048.839,1682065.505,1691532.303,1691538.6,2023-02-16T12:52:42Z,1691548.969,NULL,Kreativität,ubunifu,s,mratibu,mwendelezo,makubaliano,NA,qt,NA,3,NA,NA,NA,NA,NA,NA,NA,NA,NA,NA,NA,NA,NA,NA,NA,NA,NA,NA,NA
2b311,task,flow.Sequence,3_0_3_0_6,NA,NA,completion,9466.7980000002,1682055.4,1682048.839,1682065.505,1691532.303,1691538.7,2023-02-16T12:52:42Z,1691548.969,NULL,Kreativität,ubunifu,s,mratibu,mwendelezo,makubaliano,NA,qt,NA,3,NA,NA,NA,NA,NA,NA,NA,NA,NA,NA,NA,NA,NA,NA,NA,NA,NA,NA,NA
2b311,Deep Question,html.Page,3_0_3_0_7_0_0,NA,NA,form submission,12467.430999999,1691538.9,1691532.303,1691548.969,1704016.4,1704016.7,2023-02-16T12:52:54Z,1704032.377,NULL,Stimmung,kinyongo,d,NA,NA,NA,unaweza,NA,NA,3,NA,NA,NA,NA,NA,NA,NA,NA,NA,NA,NA,NA,NA,NA,NA,NA,NA,NA,NA
2b311,"""Richtig""-Screen",canvas.Screen,3_0_3_0_7_0_1,NA,NA,skipped,NA,1704019,NA,NA,1704016.4,1704019.1,2023-02-16T12:52:54Z,1704032.377,NULL,Stimmung,kinyongo,d,NA,NA,NA,NA,qt,NA,3,NA,NA,NA,NA,NA,NA,NA,NA,NA,NA,NA,NA,NA,NA,NA,NA,NA,NA,NA
2b311,"""Falsch""-Screen",canvas.Screen,3_0_3_0_7_0_2,NA,NA,timeout,4999.7999999998,1704019.5,1704015.711,1704032.377,1709015.511,1709017.9,2023-02-16T12:52:59Z,1709032.177,NULL,Stimmung,kinyongo,d,NA,NA,NA,NA,qt,0,3,NA,NA,NA,NA,NA,NA,NA,NA,NA,NA,NA,NA,NA,NA,NA,NA,NA,NA,NA
2b311,deep,flow.Sequence,3_0_3_0_7_0,NA,NA,completion,17466.542,1691538.9,1691532.303,1691548.969,1709015.511,1709018.4,2023-02-16T12:52:59Z,1709032.177,NULL,Stimmung,kinyongo,d,NA,NA,NA,NA,qt,NA,3,NA,NA,NA,NA,NA,NA,NA,NA,NA,NA,NA,NA,NA,NA,NA,NA,NA,NA,NA
2b311,shallow,flow.Sequence,3_0_3_0_7_1,NA,NA,skipped,NA,1709018.5,NA,NA,1709015.511,1709018.7,2023-02-16T12:52:59Z,1709032.177,NULL,Stimmung,kinyongo,d,NA,NA,NA,NA,qt,NA,3,NA,NA,NA,NA,NA,NA,NA,NA,NA,NA,NA,NA,NA,NA,NA,NA,NA,NA,NA
2b311,task,flow.Sequence,3_0_3_0_7,NA,NA,completion,17466.542,1691538.9,1691532.303,1691548.969,1709015.511,1709019,2023-02-16T12:52:59Z,1709032.177,NULL,Stimmung,kinyongo,d,NA,NA,NA,NA,qt,NA,3,NA,NA,NA,NA,NA,NA,NA,NA,NA,NA,NA,NA,NA,NA,NA,NA,NA,NA,NA
2b311,block,flow.Loop,3_0_3_0,NA,NA,completion,93200.481,1615810.7,1615798.364,1615815.03,1709015.511,1709019.2,2023-02-16T12:52:59Z,1709032.177,NULL,NA,NA,NA,NA,NA,NA,NA,qt,NA,3,NA,NA,NA,NA,NA,NA,NA,NA,NA,NA,NA,NA,NA,NA,NA,NA,NA,NA,NA
2b311,weiter,canvas.Screen,3_0_3_1,sdf,keypress(Space),response,954.82300000009,1709019.3,1709015.511,1709032.177,1709987,1709992.3,2023-02-16T12:53:00Z,1710032.759,NULL,NA,NA,NA,NA,NA,NA,NA,qt,NA,3,NA,NA,NA,NA,NA,NA,NA,NA,NA,NA,NA,NA,NA,NA,NA,NA,NA,NA,NA
2b311,check continue,flow.Sequence,3_0_3,NA,NA,completion,94171.97,1615810.7,1615798.364,1615815.03,1709987,1709992.6,2023-02-16T12:53:00Z,1710032.759,NULL,NA,NA,NA,NA,NA,NA,NA,qt,NA,3,NA,NA,NA,NA,NA,NA,NA,NA,NA,NA,NA,NA,NA,NA,NA,NA,NA,NA,NA
2b311,deep,flow.Sequence,3_0_4_0_0_0,NA,NA,skipped,NA,1710020.1,NA,NA,1709987,1710020.2,2023-02-16T12:53:00Z,1710032.759,NULL,Respekt,heshima,s,changamnao,upinzani,ufanisi,NA,sd,NA,4,NA,NA,NA,NA,NA,NA,NA,NA,NA,NA,NA,NA,NA,NA,NA,NA,NA,NA,NA
2b311,Shallow Question,html.Page,3_0_4_0_0_1_0,NA,NA,form submission,2629.6409999994,1710020.3,1710016.093,1710032.759,1712662.4,1712663,2023-02-16T12:53:03Z,1712665.987,NULL,Respekt,heshima,s,changamnao,upinzani,ufanisi,heshima,NA,NA,4,NA,NA,NA,NA,NA,NA,NA,NA,NA,NA,NA,NA,NA,NA,NA,NA,NA,NA,NA
2b311,"""Richtig""-Screen",canvas.Screen,3_0_4_0_0_1_1,NA,NA,timeout,4999.8,1712665.9,1712649.321,1712665.987,1717649.121,1717651.4,2023-02-16T12:53:08Z,1717665.787,NULL,Respekt,heshima,s,changamnao,upinzani,ufanisi,NA,sd,1,4,NA,NA,NA,NA,NA,NA,NA,NA,NA,NA,NA,NA,NA,NA,NA,NA,NA,NA,NA
2b311,"""Falsch""-Screen",canvas.Screen,3_0_4_0_0_1_2,NA,NA,skipped,NA,1717655.5,NA,NA,1717649.121,1717655.7,2023-02-16T12:53:08Z,1717665.787,NULL,Respekt,heshima,s,changamnao,upinzani,ufanisi,NA,sd,NA,4,NA,NA,NA,NA,NA,NA,NA,NA,NA,NA,NA,NA,NA,NA,NA,NA,NA,NA,NA
2b311,shallow,flow.Sequence,3_0_4_0_0_1,NA,NA,completion,7616.362,1710020.3,1710016.093,1710032.759,1717649.121,1717655.9,2023-02-16T12:53:08Z,1717665.787,NULL,Respekt,heshima,s,changamnao,upinzani,ufanisi,NA,sd,NA,4,NA,NA,NA,NA,NA,NA,NA,NA,NA,NA,NA,NA,NA,NA,NA,NA,NA,NA,NA
2b311,task,flow.Sequence,3_0_4_0_0,NA,NA,completion,7616.362,1710020.1,1710016.093,1710032.759,1717649.121,1717656.1,2023-02-16T12:53:08Z,1717665.787,NULL,Respekt,heshima,s,changamnao,upinzani,ufanisi,NA,sd,NA,4,NA,NA,NA,NA,NA,NA,NA,NA,NA,NA,NA,NA,NA,NA,NA,NA,NA,NA,NA
2b311,Deep Question,html.Page,3_0_4_0_1_0_0,NA,NA,form submission,3373.4130000002,1717656.2,1717649.121,1717665.787,1721039.2,1721039.6,2023-02-16T12:53:11Z,1721049.488,NULL,Stimmung,kinyongo,d,NA,NA,NA,kinyongo,NA,NA,4,NA,NA,NA,NA,NA,NA,NA,NA,NA,NA,NA,NA,NA,NA,NA,NA,NA,NA,NA
2b311,"""Richtig""-Screen",canvas.Screen,3_0_4_0_1_0_1,NA,NA,timeout,4999.8,1721042.2,1721032.822,1721049.488,1726032.622,1726034,2023-02-16T12:53:16Z,1726049.288,NULL,Stimmung,kinyongo,d,NA,NA,NA,NA,sd,1,4,NA,NA,NA,NA,NA,NA,NA,NA,NA,NA,NA,NA,NA,NA,NA,NA,NA,NA,NA
2b311,"""Falsch""-Screen",canvas.Screen,3_0_4_0_1_0_2,NA,NA,skipped,NA,1726038,NA,NA,1726032.622,1726038.2,2023-02-16T12:53:16Z,1726049.288,NULL,Stimmung,kinyongo,d,NA,NA,NA,NA,sd,NA,4,NA,NA,NA,NA,NA,NA,NA,NA,NA,NA,NA,NA,NA,NA,NA,NA,NA,NA,NA
2b311,deep,flow.Sequence,3_0_4_0_1_0,NA,NA,completion,8366.835,1717656.1,1717649.121,1717665.787,1726032.622,1726038.3,2023-02-16T12:53:16Z,1726049.288,NULL,Stimmung,kinyongo,d,NA,NA,NA,NA,sd,NA,4,NA,NA,NA,NA,NA,NA,NA,NA,NA,NA,NA,NA,NA,NA,NA,NA,NA,NA,NA
2b311,shallow,flow.Sequence,3_0_4_0_1_1,NA,NA,skipped,NA,1726038.4,NA,NA,1726032.622,1726038.5,2023-02-16T12:53:16Z,1726049.288,NULL,Stimmung,kinyongo,d,NA,NA,NA,NA,sd,NA,4,NA,NA,NA,NA,NA,NA,NA,NA,NA,NA,NA,NA,NA,NA,NA,NA,NA,NA,NA
2b311,task,flow.Sequence,3_0_4_0_1,NA,NA,completion,8366.835,1717656.1,1717649.121,1717665.787,1726032.622,1726038.6,2023-02-16T12:53:16Z,1726049.288,NULL,Stimmung,kinyongo,d,NA,NA,NA,NA,sd,NA,4,NA,NA,NA,NA,NA,NA,NA,NA,NA,NA,NA,NA,NA,NA,NA,NA,NA,NA,NA
2b311,Deep Question,html.Page,3_0_4_0_2_0_0,NA,NA,form submission,5633.8119999997,1726038.8,1726032.622,1726049.288,1731683.1,1731683.6,2023-02-16T12:53:22Z,1731699.062,NULL,Kontrolle,kudhibiti,d,NA,NA,NA,unaweza,NA,NA,4,NA,NA,NA,NA,NA,NA,NA,NA,NA,NA,NA,NA,NA,NA,NA,NA,NA,NA,NA
2b311,"""Richtig""-Screen",canvas.Screen,3_0_4_0_2_0_1,NA,NA,skipped,NA,1731686,NA,NA,1731683.1,1731686.2,2023-02-16T12:53:22Z,1731699.062,NULL,Kontrolle,kudhibiti,d,NA,NA,NA,NA,sd,NA,4,NA,NA,NA,NA,NA,NA,NA,NA,NA,NA,NA,NA,NA,NA,NA,NA,NA,NA,NA
2b311,"""Falsch""-Screen",canvas.Screen,3_0_4_0_2_0_2,NA,NA,timeout,4999.8,1731686.8,1731682.396,1731699.062,1736682.196,1736684.9,2023-02-16T12:53:27Z,1736698.862,NULL,Kontrolle,kudhibiti,d,NA,NA,NA,NA,sd,0,4,NA,NA,NA,NA,NA,NA,NA,NA,NA,NA,NA,NA,NA,NA,NA,NA,NA,NA,NA
2b311,deep,flow.Sequence,3_0_4_0_2_0,NA,NA,completion,10632.908,1726038.8,1726032.622,1726049.288,1736682.196,1736685.5,2023-02-16T12:53:27Z,1736698.862,NULL,Kontrolle,kudhibiti,d,NA,NA,NA,NA,sd,NA,4,NA,NA,NA,NA,NA,NA,NA,NA,NA,NA,NA,NA,NA,NA,NA,NA,NA,NA,NA
2b311,shallow,flow.Sequence,3_0_4_0_2_1,NA,NA,skipped,NA,1736685.6,NA,NA,1736682.196,1736685.8,2023-02-16T12:53:27Z,1736698.862,NULL,Kontrolle,kudhibiti,d,NA,NA,NA,NA,sd,NA,4,NA,NA,NA,NA,NA,NA,NA,NA,NA,NA,NA,NA,NA,NA,NA,NA,NA,NA,NA
2b311,task,flow.Sequence,3_0_4_0_2,NA,NA,completion,10632.908,1726038.8,1726032.622,1726049.288,1736682.196,1736686,2023-02-16T12:53:27Z,1736698.862,NULL,Kontrolle,kudhibiti,d,NA,NA,NA,NA,sd,NA,4,NA,NA,NA,NA,NA,NA,NA,NA,NA,NA,NA,NA,NA,NA,NA,NA,NA,NA,NA
2b311,deep,flow.Sequence,3_0_4_0_3_0,NA,NA,skipped,NA,1736686.2,NA,NA,1736682.196,1736686.3,2023-02-16T12:53:27Z,1736698.862,NULL,Orientierung,urekebisho,s,uelekeo,marekebisho,utunzaji,NA,sd,NA,4,NA,NA,NA,NA,NA,NA,NA,NA,NA,NA,NA,NA,NA,NA,NA,NA,NA,NA,NA
2b311,Shallow Question,html.Page,3_0_4_0_3_1_0,NA,NA,form submission,6754.4379999998,1736686.5,1736682.196,1736698.862,1743453.3,1743453.9,2023-02-16T12:53:34Z,1743466.375,NULL,Orientierung,urekebisho,s,uelekeo,marekebisho,utunzaji,urekebisho,NA,NA,4,NA,NA,NA,NA,NA,NA,NA,NA,NA,NA,NA,NA,NA,NA,NA,NA,NA,NA,NA
2b311,"""Richtig""-Screen",canvas.Screen,3_0_4_0_3_1_1,NA,NA,timeout,4999.8,1743456.8,1743449.709,1743466.375,1748449.509,1748450.7,2023-02-16T12:53:39Z,1748466.175,NULL,Orientierung,urekebisho,s,uelekeo,marekebisho,utunzaji,NA,sd,1,4,NA,NA,NA,NA,NA,NA,NA,NA,NA,NA,NA,NA,NA,NA,NA,NA,NA,NA,NA
2b311,"""Falsch""-Screen",canvas.Screen,3_0_4_0_3_1_2,NA,NA,skipped,NA,1748454.5,NA,NA,1748449.509,1748454.6,2023-02-16T12:53:39Z,1748466.175,NULL,Orientierung,urekebisho,s,uelekeo,marekebisho,utunzaji,NA,sd,NA,4,NA,NA,NA,NA,NA,NA,NA,NA,NA,NA,NA,NA,NA,NA,NA,NA,NA,NA,NA
2b311,shallow,flow.Sequence,3_0_4_0_3_1,NA,NA,completion,11750.647,1736686.4,1736682.196,1736698.862,1748449.509,1748454.9,2023-02-16T12:53:39Z,1748466.175,NULL,Orientierung,urekebisho,s,uelekeo,marekebisho,utunzaji,NA,sd,NA,4,NA,NA,NA,NA,NA,NA,NA,NA,NA,NA,NA,NA,NA,NA,NA,NA,NA,NA,NA
2b311,task,flow.Sequence,3_0_4_0_3,NA,NA,completion,11750.647,1736686.1,1736682.196,1736698.862,1748449.509,1748454.9,2023-02-16T12:53:39Z,1748466.175,NULL,Orientierung,urekebisho,s,uelekeo,marekebisho,utunzaji,NA,sd,NA,4,NA,NA,NA,NA,NA,NA,NA,NA,NA,NA,NA,NA,NA,NA,NA,NA,NA,NA,NA
2b311,Deep Question,html.Page,3_0_4_0_4_0_0,NA,NA,form submission,5681.4249999996,1748455,1748449.509,1748466.175,1754147.6,1754148.2,2023-02-16T12:53:44Z,1754149.932,NULL,Gefährdung,kuhatarisha,d,NA,NA,NA,mdanganyifu,NA,NA,4,NA,NA,NA,NA,NA,NA,NA,NA,NA,NA,NA,NA,NA,NA,NA,NA,NA,NA,NA
2b311,"""Richtig""-Screen",canvas.Screen,3_0_4_0_4_0_1,NA,NA,skipped,NA,1754151.1,NA,NA,1754147.6,1754151.2,2023-02-16T12:53:44Z,1754149.932,NULL,Gefährdung,kuhatarisha,d,NA,NA,NA,NA,sd,NA,4,NA,NA,NA,NA,NA,NA,NA,NA,NA,NA,NA,NA,NA,NA,NA,NA,NA,NA,NA
2b311,"""Falsch""-Screen",canvas.Screen,3_0_4_0_4_0_2,NA,NA,timeout,4999.8,1754152.1,1754133.266,1754149.932,1759133.066,1759135.9,2023-02-16T12:53:49Z,1759149.732,NULL,Gefährdung,kuhatarisha,d,NA,NA,NA,NA,sd,0,4,NA,NA,NA,NA,NA,NA,NA,NA,NA,NA,NA,NA,NA,NA,NA,NA,NA,NA,NA
2b311,deep,flow.Sequence,3_0_4_0_4_0,NA,NA,completion,10666.891,1748455,1748449.509,1748466.175,1759133.066,1759136.4,2023-02-16T12:53:49Z,1759149.732,NULL,Gefährdung,kuhatarisha,d,NA,NA,NA,NA,sd,NA,4,NA,NA,NA,NA,NA,NA,NA,NA,NA,NA,NA,NA,NA,NA,NA,NA,NA,NA,NA
2b311,shallow,flow.Sequence,3_0_4_0_4_1,NA,NA,skipped,NA,1759136.6,NA,NA,1759133.066,1759136.7,2023-02-16T12:53:49Z,1759149.732,NULL,Gefährdung,kuhatarisha,d,NA,NA,NA,NA,sd,NA,4,NA,NA,NA,NA,NA,NA,NA,NA,NA,NA,NA,NA,NA,NA,NA,NA,NA,NA,NA
2b311,task,flow.Sequence,3_0_4_0_4,NA,NA,completion,10666.891,1748455,1748449.509,1748466.175,1759133.066,1759136.8,2023-02-16T12:53:49Z,1759149.732,NULL,Gefährdung,kuhatarisha,d,NA,NA,NA,NA,sd,NA,4,NA,NA,NA,NA,NA,NA,NA,NA,NA,NA,NA,NA,NA,NA,NA,NA,NA,NA,NA
2b311,deep,flow.Sequence,3_0_4_0_5_0,NA,NA,skipped,NA,1759137,NA,NA,1759133.066,1759137,2023-02-16T12:53:49Z,1759149.732,NULL,Kreativität,ubunifu,s,mratibu,mwendelezo,makubaliano,NA,sd,NA,4,NA,NA,NA,NA,NA,NA,NA,NA,NA,NA,NA,NA,NA,NA,NA,NA,NA,NA,NA
2b311,Shallow Question,html.Page,3_0_4_0_5_1_0,NA,NA,form submission,8310.2679999999,1759137.2,1759133.066,1759149.732,1767460,1767460.6,2023-02-16T12:53:58Z,1767466.751,NULL,Kreativität,ubunifu,s,mratibu,mwendelezo,makubaliano,ubunifu,NA,NA,4,NA,NA,NA,NA,NA,NA,NA,NA,NA,NA,NA,NA,NA,NA,NA,NA,NA,NA,NA
2b311,"""Richtig""-Screen",canvas.Screen,3_0_4_0_5_1_1,NA,NA,timeout,4999.8,1767463.4,1767450.085,1767466.751,1772449.885,1772451.9,2023-02-16T12:54:03Z,1772466.551,NULL,Kreativität,ubunifu,s,mratibu,mwendelezo,makubaliano,NA,sd,1,4,NA,NA,NA,NA,NA,NA,NA,NA,NA,NA,NA,NA,NA,NA,NA,NA,NA,NA,NA
2b311,"""Falsch""-Screen",canvas.Screen,3_0_4_0_5_1_2,NA,NA,skipped,NA,1772456.2,NA,NA,1772449.885,1772456.4,2023-02-16T12:54:03Z,1772466.551,NULL,Kreativität,ubunifu,s,mratibu,mwendelezo,makubaliano,NA,sd,NA,4,NA,NA,NA,NA,NA,NA,NA,NA,NA,NA,NA,NA,NA,NA,NA,NA,NA,NA,NA
2b311,shallow,flow.Sequence,3_0_4_0_5_1,NA,NA,completion,13300.153,1759137.2,1759133.066,1759149.732,1772449.885,1772456.6,2023-02-16T12:54:03Z,1772466.551,NULL,Kreativität,ubunifu,s,mratibu,mwendelezo,makubaliano,NA,sd,NA,4,NA,NA,NA,NA,NA,NA,NA,NA,NA,NA,NA,NA,NA,NA,NA,NA,NA,NA,NA
2b311,task,flow.Sequence,3_0_4_0_5,NA,NA,completion,13300.153,1759136.9,1759133.066,1759149.732,1772449.885,1772456.7,2023-02-16T12:54:03Z,1772466.551,NULL,Kreativität,ubunifu,s,mratibu,mwendelezo,makubaliano,NA,sd,NA,4,NA,NA,NA,NA,NA,NA,NA,NA,NA,NA,NA,NA,NA,NA,NA,NA,NA,NA,NA
2b311,deep,flow.Sequence,3_0_4_0_6_0,NA,NA,skipped,NA,1772456.8,NA,NA,1772449.885,1772456.9,2023-02-16T12:54:03Z,1772466.551,NULL,Können,unaweza,s,kiongozi,bustani,mienendo,NA,sd,NA,4,NA,NA,NA,NA,NA,NA,NA,NA,NA,NA,NA,NA,NA,NA,NA,NA,NA,NA,NA
2b311,Shallow Question,html.Page,3_0_4_0_6_1_0,NA,NA,form submission,4198.8489999995,1772457,1772449.885,1772466.551,1776665.4,1776666,2023-02-16T12:54:07Z,1776666.912,NULL,Können,unaweza,s,kiongozi,bustani,mienendo,unaweza,NA,NA,4,NA,NA,NA,NA,NA,NA,NA,NA,NA,NA,NA,NA,NA,NA,NA,NA,NA,NA,NA
2b311,"""Richtig""-Screen",canvas.Screen,3_0_4_0_6_1_1,NA,NA,timeout,4999.8,1776668.6,1776650.246,1776666.912,1781650.046,1781652.5,2023-02-16T12:54:12Z,1781666.712,NULL,Können,unaweza,s,kiongozi,bustani,mienendo,NA,sd,1,4,NA,NA,NA,NA,NA,NA,NA,NA,NA,NA,NA,NA,NA,NA,NA,NA,NA,NA,NA
2b311,"""Falsch""-Screen",canvas.Screen,3_0_4_0_6_1_2,NA,NA,skipped,NA,1781656.2,NA,NA,1781650.046,1781656.4,2023-02-16T12:54:12Z,1781666.712,NULL,Können,unaweza,s,kiongozi,bustani,mienendo,NA,sd,NA,4,NA,NA,NA,NA,NA,NA,NA,NA,NA,NA,NA,NA,NA,NA,NA,NA,NA,NA,NA
2b311,shallow,flow.Sequence,3_0_4_0_6_1,NA,NA,completion,9183.4950000001,1772456.9,1772449.885,1772466.551,1781650.046,1781656.4,2023-02-16T12:54:12Z,1781666.712,NULL,Können,unaweza,s,kiongozi,bustani,mienendo,NA,sd,NA,4,NA,NA,NA,NA,NA,NA,NA,NA,NA,NA,NA,NA,NA,NA,NA,NA,NA,NA,NA
2b311,task,flow.Sequence,3_0_4_0_6,NA,NA,completion,9183.4950000001,1772456.7,1772449.885,1772466.551,1781650.046,1781656.5,2023-02-16T12:54:12Z,1781666.712,NULL,Können,unaweza,s,kiongozi,bustani,mienendo,NA,sd,NA,4,NA,NA,NA,NA,NA,NA,NA,NA,NA,NA,NA,NA,NA,NA,NA,NA,NA,NA,NA
2b311,Deep Question,html.Page,3_0_4_0_7_0_0,NA,NA,form submission,4948.4880000001,1781656.7,1781650.046,1781666.712,1786615.2,1786615.8,2023-02-16T12:54:17Z,1786617.018,NULL,Betrüger,mdanganyifu,d,NA,NA,NA,mdanganyifu,NA,NA,4,NA,NA,NA,NA,NA,NA,NA,NA,NA,NA,NA,NA,NA,NA,NA,NA,NA,NA,NA
2b311,"""Richtig""-Screen",canvas.Screen,3_0_4_0_7_0_1,NA,NA,timeout,4999.8,1786618.3,1786600.352,1786617.018,1791600.152,1791602.5,2023-02-16T12:54:22Z,1791616.818,NULL,Betrüger,mdanganyifu,d,NA,NA,NA,NA,sd,1,4,NA,NA,NA,NA,NA,NA,NA,NA,NA,NA,NA,NA,NA,NA,NA,NA,NA,NA,NA
2b311,"""Falsch""-Screen",canvas.Screen,3_0_4_0_7_0_2,NA,NA,skipped,NA,1791607,NA,NA,1791600.152,1791607.1,2023-02-16T12:54:22Z,1791616.818,NULL,Betrüger,mdanganyifu,d,NA,NA,NA,NA,sd,NA,4,NA,NA,NA,NA,NA,NA,NA,NA,NA,NA,NA,NA,NA,NA,NA,NA,NA,NA,NA
2b311,deep,flow.Sequence,3_0_4_0_7_0,NA,NA,completion,9933.4399999999,1781656.7,1781650.046,1781666.712,1791600.152,1791607.3,2023-02-16T12:54:22Z,1791616.818,NULL,Betrüger,mdanganyifu,d,NA,NA,NA,NA,sd,NA,4,NA,NA,NA,NA,NA,NA,NA,NA,NA,NA,NA,NA,NA,NA,NA,NA,NA,NA,NA
2b311,shallow,flow.Sequence,3_0_4_0_7_1,NA,NA,skipped,NA,1791607.4,NA,NA,1791600.152,1791607.5,2023-02-16T12:54:22Z,1791616.818,NULL,Betrüger,mdanganyifu,d,NA,NA,NA,NA,sd,NA,4,NA,NA,NA,NA,NA,NA,NA,NA,NA,NA,NA,NA,NA,NA,NA,NA,NA,NA,NA
2b311,task,flow.Sequence,3_0_4_0_7,NA,NA,completion,9933.4399999999,1781656.6,1781650.046,1781666.712,1791600.152,1791607.6,2023-02-16T12:54:22Z,1791616.818,NULL,Betrüger,mdanganyifu,d,NA,NA,NA,NA,sd,NA,4,NA,NA,NA,NA,NA,NA,NA,NA,NA,NA,NA,NA,NA,NA,NA,NA,NA,NA,NA
2b311,block,flow.Loop,3_0_4_0,NA,NA,completion,81567.393,1710020,1710016.093,1710032.759,1791600.152,1791607.7,2023-02-16T12:54:22Z,1791616.818,NULL,NA,NA,NA,NA,NA,NA,NA,sd,NA,4,NA,NA,NA,NA,NA,NA,NA,NA,NA,NA,NA,NA,NA,NA,NA,NA,NA,NA,NA
2b311,weiter,canvas.Screen,3_0_4_1,sdf,keypress(Space),response,1202.182,1791607.8,1791600.152,1791616.818,1792819,1792822.4,2023-02-16T12:54:23Z,1793050.094,NULL,NA,NA,NA,NA,NA,NA,NA,sd,NA,4,NA,NA,NA,NA,NA,NA,NA,NA,NA,NA,NA,NA,NA,NA,NA,NA,NA,NA,NA
2b311,check continue,flow.Sequence,3_0_4,NA,NA,completion,82786.241,1710020,1710016.093,1710032.759,1792819,1792822.8,2023-02-16T12:54:23Z,1793050.094,NULL,NA,NA,NA,NA,NA,NA,NA,sd,NA,4,NA,NA,NA,NA,NA,NA,NA,NA,NA,NA,NA,NA,NA,NA,NA,NA,NA,NA,NA
2b311,check continue,flow.Sequence,3_0_5,NA,NA,skipped,NA,1792849.9,NA,NA,1792819,1792850.1,2023-02-16T12:54:23Z,1793050.094,NULL,NA,NA,NA,NA,NA,NA,NA,sdf,NA,5,NA,NA,NA,NA,NA,NA,NA,NA,NA,NA,NA,NA,NA,NA,NA,NA,NA,NA,NA
2b311,check continue,flow.Sequence,3_0_6,NA,NA,skipped,NA,1792864.3,NA,NA,1792819,1792864.4,2023-02-16T12:54:23Z,1793050.094,NULL,NA,NA,NA,NA,NA,NA,NA,dfs,NA,6,NA,NA,NA,NA,NA,NA,NA,NA,NA,NA,NA,NA,NA,NA,NA,NA,NA,NA,NA
2b311,check continue,flow.Sequence,3_0_7,NA,NA,skipped,NA,1792878.9,NA,NA,1792819,1792879,2023-02-16T12:54:23Z,1793050.094,NULL,NA,NA,NA,NA,NA,NA,NA,df,NA,7,NA,NA,NA,NA,NA,NA,NA,NA,NA,NA,NA,NA,NA,NA,NA,NA,NA,NA,NA
2b311,check continue,flow.Sequence,3_0_8,NA,NA,skipped,NA,1792889.1,NA,NA,1792819,1792889.2,2023-02-16T12:54:23Z,1793050.094,NULL,NA,NA,NA,NA,NA,NA,NA,dfs,NA,8,NA,NA,NA,NA,NA,NA,NA,NA,NA,NA,NA,NA,NA,NA,NA,NA,NA,NA,NA
2b311,check continue,flow.Sequence,3_0_9,NA,NA,skipped,NA,1792897.9,NA,NA,1792819,1792898,2023-02-16T12:54:23Z,1793050.094,NULL,NA,NA,NA,NA,NA,NA,NA,dsf,NA,9,NA,NA,NA,NA,NA,NA,NA,NA,NA,NA,NA,NA,NA,NA,NA,NA,NA,NA,NA
2b311,check continue,flow.Sequence,3_0_10,NA,NA,skipped,NA,1792906.3,NA,NA,1792819,1792906.4,2023-02-16T12:54:23Z,1793050.094,NULL,NA,NA,NA,NA,NA,NA,NA,df,NA,10,NA,NA,NA,NA,NA,NA,NA,NA,NA,NA,NA,NA,NA,NA,NA,NA,NA,NA,NA
2b311,check continue,flow.Sequence,3_0_11,NA,NA,skipped,NA,1792913.7,NA,NA,1792819,1792913.8,2023-02-16T12:54:23Z,1793050.094,NULL,NA,NA,NA,NA,NA,NA,NA,dfs,NA,11,NA,NA,NA,NA,NA,NA,NA,NA,NA,NA,NA,NA,NA,NA,NA,NA,NA,NA,NA
2b311,check continue,flow.Sequence,3_0_12,NA,NA,skipped,NA,1792921.4,NA,NA,1792819,1792921.4,2023-02-16T12:54:23Z,1793050.094,NULL,NA,NA,NA,NA,NA,NA,NA,dsf,NA,12,NA,NA,NA,NA,NA,NA,NA,NA,NA,NA,NA,NA,NA,NA,NA,NA,NA,NA,NA
2b311,check continue,flow.Sequence,3_0_13,NA,NA,skipped,NA,1792928.4,NA,NA,1792819,1792928.4,2023-02-16T12:54:23Z,1793050.094,NULL,NA,NA,NA,NA,NA,NA,NA,dsf,NA,13,NA,NA,NA,NA,NA,NA,NA,NA,NA,NA,NA,NA,NA,NA,NA,NA,NA,NA,NA
2b311,check continue,flow.Sequence,3_0_14,NA,NA,skipped,NA,1792934.9,NA,NA,1792819,1792934.9,2023-02-16T12:54:23Z,1793050.094,NULL,NA,NA,NA,NA,NA,NA,NA,NA,NA,14,NA,NA,NA,NA,NA,NA,NA,NA,NA,NA,NA,NA,NA,NA,NA,NA,NA,NA,NA
2b311,check continue,flow.Sequence,3_0_15,NA,NA,skipped,NA,1792941.3,NA,NA,1792819,1792941.4,2023-02-16T12:54:23Z,1793050.094,NULL,NA,NA,NA,NA,NA,NA,NA,NA,NA,15,NA,NA,NA,NA,NA,NA,NA,NA,NA,NA,NA,NA,NA,NA,NA,NA,NA,NA,NA
2b311,check continue,flow.Sequence,3_0_16,NA,NA,skipped,NA,1792948.1,NA,NA,1792819,1792948.1,2023-02-16T12:54:23Z,1793050.094,NULL,NA,NA,NA,NA,NA,NA,NA,NA,NA,16,NA,NA,NA,NA,NA,NA,NA,NA,NA,NA,NA,NA,NA,NA,NA,NA,NA,NA,NA
2b311,check continue,flow.Sequence,3_0_17,NA,NA,skipped,NA,1792954.5,NA,NA,1792819,1792954.5,2023-02-16T12:54:23Z,1793050.094,NULL,NA,NA,NA,NA,NA,NA,NA,NA,NA,17,NA,NA,NA,NA,NA,NA,NA,NA,NA,NA,NA,NA,NA,NA,NA,NA,NA,NA,NA
2b311,check continue,flow.Sequence,3_0_18,NA,NA,skipped,NA,1792961,NA,NA,1792819,1792961,2023-02-16T12:54:23Z,1793050.094,NULL,NA,NA,NA,NA,NA,NA,NA,NA,NA,18,NA,NA,NA,NA,NA,NA,NA,NA,NA,NA,NA,NA,NA,NA,NA,NA,NA,NA,NA
2b311,check continue,flow.Sequence,3_0_19,NA,NA,skipped,NA,1792967.7,NA,NA,1792819,1792967.7,2023-02-16T12:54:23Z,1793050.094,NULL,NA,NA,NA,NA,NA,NA,NA,NA,NA,19,NA,NA,NA,NA,NA,NA,NA,NA,NA,NA,NA,NA,NA,NA,NA,NA,NA,NA,NA
2b311,check continue,flow.Sequence,3_0_20,NA,NA,skipped,NA,1792974,NA,NA,1792819,1792974,2023-02-16T12:54:23Z,1793050.094,NULL,NA,NA,NA,NA,NA,NA,NA,NA,NA,20,NA,NA,NA,NA,NA,NA,NA,NA,NA,NA,NA,NA,NA,NA,NA,NA,NA,NA,NA
2b311,check continue,flow.Sequence,3_0_21,NA,NA,skipped,NA,1792980.7,NA,NA,1792819,1792980.7,2023-02-16T12:54:23Z,1793050.094,NULL,NA,NA,NA,NA,NA,NA,NA,NA,NA,21,NA,NA,NA,NA,NA,NA,NA,NA,NA,NA,NA,NA,NA,NA,NA,NA,NA,NA,NA
2b311,check continue,flow.Sequence,3_0_22,NA,NA,skipped,NA,1792986.7,NA,NA,1792819,1792986.7,2023-02-16T12:54:23Z,1793050.094,NULL,NA,NA,NA,NA,NA,NA,NA,NA,NA,22,NA,NA,NA,NA,NA,NA,NA,NA,NA,NA,NA,NA,NA,NA,NA,NA,NA,NA,NA
2b311,check continue,flow.Sequence,3_0_23,NA,NA,skipped,NA,1792992.9,NA,NA,1792819,1792993,2023-02-16T12:54:23Z,1793050.094,NULL,NA,NA,NA,NA,NA,NA,NA,NA,NA,23,NA,NA,NA,NA,NA,NA,NA,NA,NA,NA,NA,NA,NA,NA,NA,NA,NA,NA,NA
2b311,check continue,flow.Sequence,3_0_24,NA,NA,skipped,NA,1792998.7,NA,NA,1792819,1792998.7,2023-02-16T12:54:23Z,1793050.094,NULL,NA,NA,NA,NA,NA,NA,NA,NA,NA,24,NA,NA,NA,NA,NA,NA,NA,NA,NA,NA,NA,NA,NA,NA,NA,NA,NA,NA,NA
2b311,check continue,flow.Sequence,3_0_25,NA,NA,skipped,NA,1793005.1,NA,NA,1792819,1793005.1,2023-02-16T12:54:23Z,1793050.094,NULL,NA,NA,NA,NA,NA,NA,NA,NA,NA,25,NA,NA,NA,NA,NA,NA,NA,NA,NA,NA,NA,NA,NA,NA,NA,NA,NA,NA,NA
2b311,check continue,flow.Sequence,3_0_26,NA,NA,skipped,NA,1793011.3,NA,NA,1792819,1793011.3,2023-02-16T12:54:23Z,1793050.094,NULL,NA,NA,NA,NA,NA,NA,NA,NA,NA,26,NA,NA,NA,NA,NA,NA,NA,NA,NA,NA,NA,NA,NA,NA,NA,NA,NA,NA,NA
2b311,check continue,flow.Sequence,3_0_27,NA,NA,skipped,NA,1793023.4,NA,NA,1792819,1793023.5,2023-02-16T12:54:23Z,1793050.094,NULL,NA,NA,NA,NA,NA,NA,NA,NA,NA,27,NA,NA,NA,NA,NA,NA,NA,NA,NA,NA,NA,NA,NA,NA,NA,NA,NA,NA,NA
2b311,check continue,flow.Sequence,3_0_28,NA,NA,skipped,NA,1793029.7,NA,NA,1792819,1793029.7,2023-02-16T12:54:23Z,1793050.094,NULL,NA,NA,NA,NA,NA,NA,NA,NA,NA,28,NA,NA,NA,NA,NA,NA,NA,NA,NA,NA,NA,NA,NA,NA,NA,NA,NA,NA,NA
2b311,check continue,flow.Sequence,3_0_29,NA,NA,skipped,NA,1793035.7,NA,NA,1792819,1793035.7,2023-02-16T12:54:23Z,1793050.094,NULL,NA,NA,NA,NA,NA,NA,NA,NA,NA,29,NA,NA,NA,NA,NA,NA,NA,NA,NA,NA,NA,NA,NA,NA,NA,NA,NA,NA,NA
2b311,until continue,flow.Loop,3_0,NA,NA,completion,443041.061,1349758.8,1349761.273,1349777.939,1792819,1793035.7,2023-02-16T12:54:23Z,1793050.094,NULL,NA,NA,NA,NA,NA,NA,NA,NA,NA,NA,NA,NA,NA,NA,NA,NA,NA,NA,NA,NA,NA,NA,NA,NA,NA,NA,NA,NA,NA
2b311,block 1,flow.Sequence,3,NA,NA,completion,443041.061,1349758.7,1349761.273,1349777.939,1792819,1793035.8,2023-02-16T12:54:23Z,1793050.094,NULL,NA,NA,NA,NA,NA,NA,NA,NA,NA,NA,NA,NA,NA,NA,NA,NA,NA,NA,NA,NA,NA,NA,NA,NA,NA,NA,NA,NA,NA
2b311,1.Part Over,canvas.Screen,4,NA,keypress(Space),response,3018.6060000001,1793035.8,1793033.428,1793050.094,1796068.7,1796072.5,2023-02-16T12:54:26Z,1796133.304,NULL,NA,NA,NA,NA,NA,NA,NA,NA,NA,NA,NA,NA,NA,NA,NA,NA,NA,NA,NA,NA,NA,NA,NA,NA,NA,NA,NA,NA,NA
2b311,Deep Question,html.Page,5_0_0_0_0_0_0,NA,NA,form submission,3520.696,1796124.8,1796116.638,1796133.304,1799654,1799654.4,2023-02-16T12:54:30Z,1799667.076,NULL,Vorwurf,mashtaka,d,NA,NA,NA,fjslkgh,NA,NA,0,NA,NA,NA,NA,NA,NA,NA,NA,NA,NA,NA,NA,NA,NA,NA,NA,NA,NA,NA
2b311,"""Richtig""-Screen",canvas.Screen,5_0_0_0_0_0_1,NA,NA,skipped,NA,1799657.7,NA,NA,1799654,1799657.8,2023-02-16T12:54:30Z,1799667.076,NULL,Vorwurf,mashtaka,d,NA,NA,NA,NA,sdf,NA,0,NA,NA,NA,NA,NA,NA,NA,NA,NA,NA,NA,NA,NA,NA,NA,NA,NA,NA,NA
2b311,"""Falsch""-Screen",canvas.Screen,5_0_0_0_0_0_2,NA,NA,timeout,4999.8,1799658.4,1799650.41,1799667.076,1804650.21,1804652.3,2023-02-16T12:54:35Z,1804666.876,NULL,Vorwurf,mashtaka,d,NA,NA,NA,NA,sdf,0,0,NA,NA,NA,NA,NA,NA,NA,NA,NA,NA,NA,NA,NA,NA,NA,NA,NA,NA,NA
2b311,deep,flow.Sequence,5_0_0_0_0_0,NA,NA,completion,8516.906,1796124.8,1796116.638,1796133.304,1804650.21,1804652.8,2023-02-16T12:54:35Z,1804666.876,NULL,Vorwurf,mashtaka,d,NA,NA,NA,NA,sdf,NA,0,NA,NA,NA,NA,NA,NA,NA,NA,NA,NA,NA,NA,NA,NA,NA,NA,NA,NA,NA
2b311,shallow,flow.Sequence,5_0_0_0_0_1,NA,NA,skipped,NA,1804652.9,NA,NA,1804650.21,1804653.1,2023-02-16T12:54:35Z,1804666.876,NULL,Vorwurf,mashtaka,d,NA,NA,NA,NA,sdf,NA,0,NA,NA,NA,NA,NA,NA,NA,NA,NA,NA,NA,NA,NA,NA,NA,NA,NA,NA,NA
2b311,task,flow.Sequence,5_0_0_0_0,NA,NA,completion,8516.906,1796124.7,1796116.638,1796133.304,1804650.21,1804653.3,2023-02-16T12:54:35Z,1804666.876,NULL,Vorwurf,mashtaka,d,NA,NA,NA,NA,sdf,NA,0,NA,NA,NA,NA,NA,NA,NA,NA,NA,NA,NA,NA,NA,NA,NA,NA,NA,NA,NA
2b311,Deep Question,html.Page,5_0_0_0_1_0_0,NA,NA,form submission,5958.4239999999,1804653.5,1804650.21,1804666.876,1810625.3,1810625.9,2023-02-16T12:54:41Z,1810633.875,NULL,Entwicklung,maendeleo,d,NA,NA,NA,sflsd,NA,NA,0,NA,NA,NA,NA,NA,NA,NA,NA,NA,NA,NA,NA,NA,NA,NA,NA,NA,NA,NA
2b311,"""Richtig""-Screen",canvas.Screen,5_0_0_0_1_0_1,NA,NA,skipped,NA,1810629.1,NA,NA,1810625.3,1810629.2,2023-02-16T12:54:41Z,1810633.875,NULL,Entwicklung,maendeleo,d,NA,NA,NA,NA,sdf,NA,0,NA,NA,NA,NA,NA,NA,NA,NA,NA,NA,NA,NA,NA,NA,NA,NA,NA,NA,NA
2b311,"""Falsch""-Screen",canvas.Screen,5_0_0_0_1_0_2,NA,NA,timeout,4999.8,1810630.2,1810617.209,1810633.875,1815617.009,1815619.7,2023-02-16T12:54:46Z,1815633.675,NULL,Entwicklung,maendeleo,d,NA,NA,NA,NA,sdf,0,0,NA,NA,NA,NA,NA,NA,NA,NA,NA,NA,NA,NA,NA,NA,NA,NA,NA,NA,NA
2b311,deep,flow.Sequence,5_0_0_0_1_0,NA,NA,completion,10950.133,1804653.5,1804650.21,1804666.876,1815617.009,1815620.1,2023-02-16T12:54:46Z,1815633.675,NULL,Entwicklung,maendeleo,d,NA,NA,NA,NA,sdf,NA,0,NA,NA,NA,NA,NA,NA,NA,NA,NA,NA,NA,NA,NA,NA,NA,NA,NA,NA,NA
2b311,shallow,flow.Sequence,5_0_0_0_1_1,NA,NA,skipped,NA,1815620.2,NA,NA,1815617.009,1815620.5,2023-02-16T12:54:46Z,1815633.675,NULL,Entwicklung,maendeleo,d,NA,NA,NA,NA,sdf,NA,0,NA,NA,NA,NA,NA,NA,NA,NA,NA,NA,NA,NA,NA,NA,NA,NA,NA,NA,NA
2b311,task,flow.Sequence,5_0_0_0_1,NA,NA,completion,10950.133,1804653.4,1804650.21,1804666.876,1815617.009,1815620.6,2023-02-16T12:54:46Z,1815633.675,NULL,Entwicklung,maendeleo,d,NA,NA,NA,NA,sdf,NA,0,NA,NA,NA,NA,NA,NA,NA,NA,NA,NA,NA,NA,NA,NA,NA,NA,NA,NA,NA
2b311,deep,flow.Sequence,5_0_0_0_2_0,NA,NA,skipped,NA,1815620.7,NA,NA,1815617.009,1815620.8,2023-02-16T12:54:46Z,1815633.675,NULL,Papier,karatasi,s,uchambuzi,usalama,kukataliwa,NA,sdf,NA,0,NA,NA,NA,NA,NA,NA,NA,NA,NA,NA,NA,NA,NA,NA,NA,NA,NA,NA,NA
2b311,Shallow Question,html.Page,5_0_0_0_2_1_0,NA,NA,form submission,5900.6249999998,1815620.9,1815617.009,1815633.675,1821534.3,1821535,2023-02-16T12:54:52Z,1821550.105,NULL,Papier,karatasi,s,uchambuzi,usalama,kukataliwa,karatasi,NA,NA,0,NA,NA,NA,NA,NA,NA,NA,NA,NA,NA,NA,NA,NA,NA,NA,NA,NA,NA,NA
2b311,"""Richtig""-Screen",canvas.Screen,5_0_0_0_2_1_1,NA,NA,timeout,4999.8,1821538.2,1821516.773,1821550.105,1826533.239,1826536.2,2023-02-16T12:54:57Z,1826549.905,NULL,Papier,karatasi,s,uchambuzi,usalama,kukataliwa,NA,sdf,1,0,NA,NA,NA,NA,NA,NA,NA,NA,NA,NA,NA,NA,NA,NA,NA,NA,NA,NA,NA
2b311,"""Falsch""-Screen",canvas.Screen,5_0_0_0_2_1_2,NA,NA,skipped,NA,1826541,NA,NA,1826533.239,1826541.1,2023-02-16T12:54:57Z,1826549.905,NULL,Papier,karatasi,s,uchambuzi,usalama,kukataliwa,NA,sdf,NA,0,NA,NA,NA,NA,NA,NA,NA,NA,NA,NA,NA,NA,NA,NA,NA,NA,NA,NA,NA
2b311,shallow,flow.Sequence,5_0_0_0_2_1,NA,NA,completion,10899.564,1815620.8,1815617.009,1815633.675,1826533.239,1826541.2,2023-02-16T12:54:57Z,1826549.905,NULL,Papier,karatasi,s,uchambuzi,usalama,kukataliwa,NA,sdf,NA,0,NA,NA,NA,NA,NA,NA,NA,NA,NA,NA,NA,NA,NA,NA,NA,NA,NA,NA,NA
2b311,task,flow.Sequence,5_0_0_0_2,NA,NA,completion,10899.564,1815620.7,1815617.009,1815633.675,1826533.239,1826541.3,2023-02-16T12:54:57Z,1826549.905,NULL,Papier,karatasi,s,uchambuzi,usalama,kukataliwa,NA,sdf,NA,0,NA,NA,NA,NA,NA,NA,NA,NA,NA,NA,NA,NA,NA,NA,NA,NA,NA,NA,NA
2b311,Deep Question,html.Page,5_0_0_0_3_0_0,NA,NA,form submission,3816.6949999996,1826541.4,1826533.239,1826549.905,1830366.6,1830367,2023-02-16T12:55:00Z,1830367.574,NULL,Körper,kiwiliwili,d,NA,NA,NA,jsdf,NA,NA,0,NA,NA,NA,NA,NA,NA,NA,NA,NA,NA,NA,NA,NA,NA,NA,NA,NA,NA,NA
2b311,"""Richtig""-Screen",canvas.Screen,5_0_0_0_3_0_1,NA,NA,skipped,NA,1830369.9,NA,NA,1830366.6,1830370.1,2023-02-16T12:55:00Z,1830367.574,NULL,Körper,kiwiliwili,d,NA,NA,NA,NA,sdf,NA,0,NA,NA,NA,NA,NA,NA,NA,NA,NA,NA,NA,NA,NA,NA,NA,NA,NA,NA,NA
2b311,"""Falsch""-Screen",canvas.Screen,5_0_0_0_3_0_2,NA,NA,timeout,4999.8,1830370.9,1830350.908,1830367.574,1835350.708,1835353,2023-02-16T12:55:05Z,1835367.374,NULL,Körper,kiwiliwili,d,NA,NA,NA,NA,sdf,0,0,NA,NA,NA,NA,NA,NA,NA,NA,NA,NA,NA,NA,NA,NA,NA,NA,NA,NA,NA
2b311,deep,flow.Sequence,5_0_0_0_3_0,NA,NA,completion,8800.8030000001,1826541.4,1826533.239,1826549.905,1835350.708,1835353.5,2023-02-16T12:55:05Z,1835367.374,NULL,Körper,kiwiliwili,d,NA,NA,NA,NA,sdf,NA,0,NA,NA,NA,NA,NA,NA,NA,NA,NA,NA,NA,NA,NA,NA,NA,NA,NA,NA,NA
2b311,shallow,flow.Sequence,5_0_0_0_3_1,NA,NA,skipped,NA,1835353.6,NA,NA,1835350.708,1835353.8,2023-02-16T12:55:05Z,1835367.374,NULL,Körper,kiwiliwili,d,NA,NA,NA,NA,sdf,NA,0,NA,NA,NA,NA,NA,NA,NA,NA,NA,NA,NA,NA,NA,NA,NA,NA,NA,NA,NA
2b311,task,flow.Sequence,5_0_0_0_3,NA,NA,completion,8800.8030000001,1826541.4,1826533.239,1826549.905,1835350.708,1835354,2023-02-16T12:55:05Z,1835367.374,NULL,Körper,kiwiliwili,d,NA,NA,NA,NA,sdf,NA,0,NA,NA,NA,NA,NA,NA,NA,NA,NA,NA,NA,NA,NA,NA,NA,NA,NA,NA,NA
2b311,deep,flow.Sequence,5_0_0_0_4_0,NA,NA,skipped,NA,1835354.2,NA,NA,1835350.708,1835354.3,2023-02-16T12:55:05Z,1835367.374,NULL,Niveau,kiwango,s,usimamizi,mwamali,mshairi,NA,sdf,NA,0,NA,NA,NA,NA,NA,NA,NA,NA,NA,NA,NA,NA,NA,NA,NA,NA,NA,NA,NA
2b311,Shallow Question,html.Page,5_0_0_0_4_1_0,NA,NA,form submission,4157.8260000001,1835354.4,1835350.708,1835367.374,1839525.2,1839525.8,2023-02-16T12:55:10Z,1839533.874,NULL,Niveau,kiwango,s,usimamizi,mwamali,mshairi,mshairi,NA,NA,0,NA,NA,NA,NA,NA,NA,NA,NA,NA,NA,NA,NA,NA,NA,NA,NA,NA,NA,NA
2b311,"""Richtig""-Screen",canvas.Screen,5_0_0_0_4_1_1,NA,NA,skipped,NA,1839529.4,NA,NA,1839525.2,1839529.6,2023-02-16T12:55:10Z,1839533.874,NULL,Niveau,kiwango,s,usimamizi,mwamali,mshairi,NA,sdf,NA,0,NA,NA,NA,NA,NA,NA,NA,NA,NA,NA,NA,NA,NA,NA,NA,NA,NA,NA,NA
2b311,"""Falsch""-Screen",canvas.Screen,5_0_0_0_4_1_2,NA,NA,timeout,5000.3159999999,1839530.8,1839517.208,1839533.874,1844517.524,1844518.8,2023-02-16T12:55:15Z,1844534.19,NULL,Niveau,kiwango,s,usimamizi,mwamali,mshairi,NA,sdf,0,0,NA,NA,NA,NA,NA,NA,NA,NA,NA,NA,NA,NA,NA,NA,NA,NA,NA,NA,NA
2b311,shallow,flow.Sequence,5_0_0_0_4_1,NA,NA,completion,9150.1499999999,1835354.3,1835350.708,1835367.374,1844517.524,1844519.2,2023-02-16T12:55:15Z,1844534.19,NULL,Niveau,kiwango,s,usimamizi,mwamali,mshairi,NA,sdf,NA,0,NA,NA,NA,NA,NA,NA,NA,NA,NA,NA,NA,NA,NA,NA,NA,NA,NA,NA,NA
2b311,task,flow.Sequence,5_0_0_0_4,NA,NA,completion,9150.1499999999,1835354,1835350.708,1835367.374,1844517.524,1844519.4,2023-02-16T12:55:15Z,1844534.19,NULL,Niveau,kiwango,s,usimamizi,mwamali,mshairi,NA,sdf,NA,0,NA,NA,NA,NA,NA,NA,NA,NA,NA,NA,NA,NA,NA,NA,NA,NA,NA,NA,NA
2b311,deep,flow.Sequence,5_0_0_0_5_0,NA,NA,skipped,NA,1844519.6,NA,NA,1844517.524,1844519.7,2023-02-16T12:55:15Z,1844534.19,NULL,Lawine,banguko,s,maambukizi,usuluhishi,chekechea,NA,sdf,NA,0,NA,NA,NA,NA,NA,NA,NA,NA,NA,NA,NA,NA,NA,NA,NA,NA,NA,NA,NA
2b311,Shallow Question,html.Page,5_0_0_0_5_1_0,NA,NA,form submission,8839.0100000002,1844519.9,1844517.524,1844534.19,1853373.2,1853373.9,2023-02-16T12:55:23Z,1853384.433,NULL,Lawine,banguko,s,maambukizi,usuluhishi,chekechea,usuluhishi,NA,NA,0,NA,NA,NA,NA,NA,NA,NA,NA,NA,NA,NA,NA,NA,NA,NA,NA,NA,NA,NA
2b311,"""Richtig""-Screen",canvas.Screen,5_0_0_0_5_1_1,NA,NA,skipped,NA,1853377.3,NA,NA,1853373.2,1853377.5,2023-02-16T12:55:23Z,1853384.433,NULL,Lawine,banguko,s,maambukizi,usuluhishi,chekechea,NA,sdf,NA,0,NA,NA,NA,NA,NA,NA,NA,NA,NA,NA,NA,NA,NA,NA,NA,NA,NA,NA,NA
2b311,"""Falsch""-Screen",canvas.Screen,5_0_0_0_5_1_2,NA,NA,timeout,4999.8,1853378.5,1853367.767,1853384.433,1858367.567,1858370.1,2023-02-16T12:55:28Z,1858384.233,NULL,Lawine,banguko,s,maambukizi,usuluhishi,chekechea,NA,sdf,0,0,NA,NA,NA,NA,NA,NA,NA,NA,NA,NA,NA,NA,NA,NA,NA,NA,NA,NA,NA
2b311,shallow,flow.Sequence,5_0_0_0_5_1,NA,NA,completion,13833.377,1844519.8,1844517.524,1844534.19,1858367.567,1858370.6,2023-02-16T12:55:28Z,1858384.233,NULL,Lawine,banguko,s,maambukizi,usuluhishi,chekechea,NA,sdf,NA,0,NA,NA,NA,NA,NA,NA,NA,NA,NA,NA,NA,NA,NA,NA,NA,NA,NA,NA,NA
2b311,task,flow.Sequence,5_0_0_0_5,NA,NA,completion,13833.377,1844519.5,1844517.524,1844534.19,1858367.567,1858370.8,2023-02-16T12:55:28Z,1858384.233,NULL,Lawine,banguko,s,maambukizi,usuluhishi,chekechea,NA,sdf,NA,0,NA,NA,NA,NA,NA,NA,NA,NA,NA,NA,NA,NA,NA,NA,NA,NA,NA,NA,NA
2b311,Deep Question,html.Page,5_0_0_0_6_0_0,NA,NA,form submission,4741.4670000002,1858371.1,1858367.567,1858384.233,1863125.7,1863126.3,2023-02-16T12:55:33Z,1863151.268,NULL,Übersicht,kilindo,d,NA,NA,NA,sjöfs,NA,NA,0,NA,NA,NA,NA,NA,NA,NA,NA,NA,NA,NA,NA,NA,NA,NA,NA,NA,NA,NA
2b311,"""Richtig""-Screen",canvas.Screen,5_0_0_0_6_0_1,NA,NA,skipped,NA,1863130.1,NA,NA,1863125.7,1863130.4,2023-02-16T12:55:33Z,1863151.268,NULL,Übersicht,kilindo,d,NA,NA,NA,NA,sdf,NA,0,NA,NA,NA,NA,NA,NA,NA,NA,NA,NA,NA,NA,NA,NA,NA,NA,NA,NA,NA
2b311,"""Falsch""-Screen",canvas.Screen,5_0_0_0_6_0_2,NA,NA,timeout,4999.8,1863131.3,1863134.602,1863151.268,1868134.402,1868137,2023-02-16T12:55:38Z,1868151.068,NULL,Übersicht,kilindo,d,NA,NA,NA,NA,sdf,0,0,NA,NA,NA,NA,NA,NA,NA,NA,NA,NA,NA,NA,NA,NA,NA,NA,NA,NA,NA
2b311,deep,flow.Sequence,5_0_0_0_6_0,NA,NA,completion,9750.169,1858371,1858367.567,1858384.233,1868134.402,1868137.6,2023-02-16T12:55:38Z,1868151.068,NULL,Übersicht,kilindo,d,NA,NA,NA,NA,sdf,NA,0,NA,NA,NA,NA,NA,NA,NA,NA,NA,NA,NA,NA,NA,NA,NA,NA,NA,NA,NA
2b311,shallow,flow.Sequence,5_0_0_0_6_1,NA,NA,skipped,NA,1868137.7,NA,NA,1868134.402,1868137.8,2023-02-16T12:55:38Z,1868151.068,NULL,Übersicht,kilindo,d,NA,NA,NA,NA,sdf,NA,0,NA,NA,NA,NA,NA,NA,NA,NA,NA,NA,NA,NA,NA,NA,NA,NA,NA,NA,NA
2b311,task,flow.Sequence,5_0_0_0_6,NA,NA,completion,9750.169,1858371,1858367.567,1858384.233,1868134.402,1868138.1,2023-02-16T12:55:38Z,1868151.068,NULL,Übersicht,kilindo,d,NA,NA,NA,NA,sdf,NA,0,NA,NA,NA,NA,NA,NA,NA,NA,NA,NA,NA,NA,NA,NA,NA,NA,NA,NA,NA
2b311,deep,flow.Sequence,5_0_0_0_7_0,NA,NA,skipped,NA,1868138.2,NA,NA,1868134.402,1868138.2,2023-02-16T12:55:38Z,1868151.068,NULL,System,maongozi,s,chokochoko,nuksani,mitaani,NA,sdf,NA,0,NA,NA,NA,NA,NA,NA,NA,NA,NA,NA,NA,NA,NA,NA,NA,NA,NA,NA,NA
2b311,Shallow Question,html.Page,5_0_0_0_7_1_0,NA,NA,form submission,4466.2319999998,1868138.4,1868134.402,1868151.068,1872617.3,1872617.6,2023-02-16T12:55:43Z,1872618.013,NULL,System,maongozi,s,chokochoko,nuksani,mitaani,mitaani,NA,NA,0,NA,NA,NA,NA,NA,NA,NA,NA,NA,NA,NA,NA,NA,NA,NA,NA,NA,NA,NA
2b311,"""Richtig""-Screen",canvas.Screen,5_0_0_0_7_1_1,NA,NA,skipped,NA,1872619.9,NA,NA,1872617.3,1872620,2023-02-16T12:55:43Z,1872618.013,NULL,System,maongozi,s,chokochoko,nuksani,mitaani,NA,sdf,NA,0,NA,NA,NA,NA,NA,NA,NA,NA,NA,NA,NA,NA,NA,NA,NA,NA,NA,NA,NA
2b311,"""Falsch""-Screen",canvas.Screen,5_0_0_0_7_1_2,NA,NA,timeout,4999.8,1872620.6,1872601.347,1872618.013,1877601.147,1877603,2023-02-16T12:55:48Z,1877617.813,NULL,System,maongozi,s,chokochoko,nuksani,mitaani,NA,sdf,0,0,NA,NA,NA,NA,NA,NA,NA,NA,NA,NA,NA,NA,NA,NA,NA,NA,NA,NA,NA
2b311,shallow,flow.Sequence,5_0_0_0_7_1,NA,NA,completion,9450.0790000001,1868138.3,1868134.402,1868151.068,1877601.147,1877603.2,2023-02-16T12:55:48Z,1877617.813,NULL,System,maongozi,s,chokochoko,nuksani,mitaani,NA,sdf,NA,0,NA,NA,NA,NA,NA,NA,NA,NA,NA,NA,NA,NA,NA,NA,NA,NA,NA,NA,NA
2b311,task,flow.Sequence,5_0_0_0_7,NA,NA,completion,9450.0790000001,1868138.1,1868134.402,1868151.068,1877601.147,1877603.3,2023-02-16T12:55:48Z,1877617.813,NULL,System,maongozi,s,chokochoko,nuksani,mitaani,NA,sdf,NA,0,NA,NA,NA,NA,NA,NA,NA,NA,NA,NA,NA,NA,NA,NA,NA,NA,NA,NA,NA
2b311,block,flow.Loop,5_0_0_0,NA,NA,completion,81467.843,1796124.7,1796116.638,1796133.304,1877601.147,1877603.5,2023-02-16T12:55:48Z,1877617.813,NULL,NA,NA,NA,NA,NA,NA,NA,sdf,NA,0,NA,NA,NA,NA,NA,NA,NA,NA,NA,NA,NA,NA,NA,NA,NA,NA,NA,NA,NA
