observation,sender,sender_type,sender_id,response,response_action,ended_on,duration,time_run,time_render,time_show,time_end,time_commit,timestamp,time_switch,german,swahili,enc,distractor1,distractor2,distractor3,response_2,x,correct,distractors,url_vp,url_sess,meta_labjs_version,meta_location,meta_user_agent,meta_platform,meta_language,meta_locale,meta_time_zone,meta_timezone_offset,meta_screen_width,meta_screen_height,meta_scroll_width,meta_scroll_height,meta_window_inner_width,meta_window_inner_height,meta_device_pixel_ratio,meta_labjs_build_flavor,meta_labjs_build_commit
32a83,Introduction delayed retrieval,canvas.Screen,0,weiter,keypress(Space),response,1585.2140000715,3287.8000000715,3285.435,3318.586,4903.8000000715,4907.3000000715,2023-09-29T16:34:22Z,4935.261,NA,NA,NA,NA,NA,NA,NA,NA,NA,NULL,178,4,20.2.4,https://neurocog.fernuni.ch/studies/vweber/sliechti/delayed/index.html?vp=178&sess=4,"Mozilla/5.0 (Windows NT 10.0; Win64; x64) AppleWebKit/537.36 (KHTML, like Gecko) Chrome/117.0.0.0 Safari/537.36",Win32,de-DE,de,Europe/Zurich,-120,1280,720,1280,563,1280,563,1.5,production,f5b4a49f956347addd546a832a3327688c2c0fef
32a83,Deep Question,html.Page,1_0_0_0,NA,NA,form submission,4627.6390000954,4907.9000000954,4901.896,4935.261,9562.9000000954,9563.7000000477,2023-09-29T16:34:27Z,9568.404,Verstand,ufahamivu,d,shakawa,hadhari,mhandisi,mandanyifu,NA,NA,NULL,NA,NA,NA,NA,NA,NA,NA,NA,NA,NA,NA,NA,NA,NA,NA,NA,NA,NA,NA
32a83,Save data screen,canvas.Screen,1_0_0_1,NA,NA,timeout,499.994,9564.6000000238,9551.728,9568.404,10051.733,10052.5,2023-09-29T16:34:28Z,10068.398,Verstand,ufahamivu,d,shakawa,hadhari,mhandisi,NA,NA,0,NULL,NA,NA,NA,NA,NA,NA,NA,NA,NA,NA,NA,NA,NA,NA,NA,NA,NA,NA,NA
32a83,deep,flow.Sequence,1_0_0,NA,NA,completion,5116.472,4907.8000000715,4901.896,4935.261,10051.733,10052.700000048,2023-09-29T16:34:28Z,10068.398,Verstand,ufahamivu,d,shakawa,hadhari,mhandisi,NA,NA,NA,NULL,NA,NA,NA,NA,NA,NA,NA,NA,NA,NA,NA,NA,NA,NA,NA,NA,NA,NA,NA
32a83,task,flow.Sequence,1_0,NA,NA,completion,5116.472,4907.7000000477,4901.896,4935.261,10051.733,10052.800000072,2023-09-29T16:34:28Z,10068.398,Verstand,ufahamivu,d,shakawa,hadhari,mhandisi,NA,NA,NA,NULL,NA,NA,NA,NA,NA,NA,NA,NA,NA,NA,NA,NA,NA,NA,NA,NA,NA,NA,NA
32a83,Deep Question,html.Page,1_1_0_0,NA,NA,form submission,4327.5020000954,10052.900000095,10051.733,10068.398,14395.900000095,14396.300000072,2023-09-29T16:34:32Z,14402.527,Konkurrent,mshindani,s,msemaji,mvutaji,kipukusa,mtoufanki,NA,NA,NULL,NA,NA,NA,NA,NA,NA,NA,NA,NA,NA,NA,NA,NA,NA,NA,NA,NA,NA,NA
32a83,Save data screen,canvas.Screen,1_1_0_1,NA,NA,timeout,499.214,14397.100000024,14384.965,14402.527,14885.015,14885.700000048,2023-09-29T16:34:32Z,14901.741,Konkurrent,mshindani,s,msemaji,mvutaji,kipukusa,NA,NA,0,NULL,NA,NA,NA,NA,NA,NA,NA,NA,NA,NA,NA,NA,NA,NA,NA,NA,NA,NA,NA
32a83,deep,flow.Sequence,1_1_0,NA,NA,completion,4816.617,10052.800000072,10051.733,10068.398,14885.015,14885.900000095,2023-09-29T16:34:32Z,14901.741,Konkurrent,mshindani,s,msemaji,mvutaji,kipukusa,NA,NA,NA,NULL,NA,NA,NA,NA,NA,NA,NA,NA,NA,NA,NA,NA,NA,NA,NA,NA,NA,NA,NA
32a83,task,flow.Sequence,1_1,NA,NA,completion,4816.617,10052.800000072,10051.733,10068.398,14885.015,14886,2023-09-29T16:34:32Z,14901.741,Konkurrent,mshindani,s,msemaji,mvutaji,kipukusa,NA,NA,NA,NULL,NA,NA,NA,NA,NA,NA,NA,NA,NA,NA,NA,NA,NA,NA,NA,NA,NA,NA,NA
32a83,Deep Question,html.Page,1_2_0_0,NA,NA,form submission,5677.4590000477,14886.200000048,14885.015,14901.741,20579.200000048,20579.800000072,2023-09-29T16:34:38Z,20584.83,Zufall,kikuti,d,kukosekana,uchoraji,leseni,zapako,NA,NA,NULL,NA,NA,NA,NA,NA,NA,NA,NA,NA,NA,NA,NA,NA,NA,NA,NA,NA,NA,NA
32a83,Save data screen,canvas.Screen,1_2_0_1,NA,NA,timeout,500.038,20580.400000095,20568.165,20584.83,21068.196,21069.100000024,2023-09-29T16:34:39Z,21084.868,Zufall,kikuti,d,kukosekana,uchoraji,leseni,NA,NA,0,NULL,NA,NA,NA,NA,NA,NA,NA,NA,NA,NA,NA,NA,NA,NA,NA,NA,NA,NA,NA
32a83,deep,flow.Sequence,1_2_0,NA,NA,completion,6166.455,14886.200000048,14885.015,14901.741,21068.196,21069.400000095,2023-09-29T16:34:39Z,21084.868,Zufall,kikuti,d,kukosekana,uchoraji,leseni,NA,NA,NA,NULL,NA,NA,NA,NA,NA,NA,NA,NA,NA,NA,NA,NA,NA,NA,NA,NA,NA,NA,NA
32a83,task,flow.Sequence,1_2,NA,NA,completion,6166.455,14886.200000048,14885.015,14901.741,21068.196,21069.5,2023-09-29T16:34:39Z,21084.868,Zufall,kikuti,d,kukosekana,uchoraji,leseni,NA,NA,NA,NULL,NA,NA,NA,NA,NA,NA,NA,NA,NA,NA,NA,NA,NA,NA,NA,NA,NA,NA,NA
32a83,Deep Question,html.Page,1_3_0_0,NA,NA,form submission,3101.2320000238,21069.800000072,21068.196,21084.868,24186.100000024,24186.400000095,2023-09-29T16:34:42Z,24201.521,Auftrag,uagizaji,s,ghanima,kuzingatia,msukani,idhini,NA,NA,NULL,NA,NA,NA,NA,NA,NA,NA,NA,NA,NA,NA,NA,NA,NA,NA,NA,NA,NA,NA
32a83,Save data screen,canvas.Screen,1_3_0_1,NA,NA,timeout,499.893,24187.200000048,24184.861,24201.521,24684.817,24685.600000024,2023-09-29T16:34:42Z,24701.414,Auftrag,uagizaji,s,ghanima,kuzingatia,msukani,NA,NA,0,NULL,NA,NA,NA,NA,NA,NA,NA,NA,NA,NA,NA,NA,NA,NA,NA,NA,NA,NA,NA
32a83,deep,flow.Sequence,1_3_0,NA,NA,completion,3599.949,21069.700000048,21068.196,21084.868,24684.817,24685.700000048,2023-09-29T16:34:42Z,24701.414,Auftrag,uagizaji,s,ghanima,kuzingatia,msukani,NA,NA,NA,NULL,NA,NA,NA,NA,NA,NA,NA,NA,NA,NA,NA,NA,NA,NA,NA,NA,NA,NA,NA
32a83,task,flow.Sequence,1_3,NA,NA,completion,3599.949,21069.700000048,21068.196,21084.868,24684.817,24685.800000072,2023-09-29T16:34:42Z,24701.414,Auftrag,uagizaji,s,ghanima,kuzingatia,msukani,NA,NA,NA,NULL,NA,NA,NA,NA,NA,NA,NA,NA,NA,NA,NA,NA,NA,NA,NA,NA,NA,NA,NA
32a83,Deep Question,html.Page,1_4_0_0,NA,NA,form submission,7067.586,24685.900000095,24684.817,24701.414,31769,31769.300000072,2023-09-29T16:34:49Z,31784.761,Beweis,ushahidi,s,marudio,kizuizi,mtendaji,moustaki,NA,NA,NULL,NA,NA,NA,NA,NA,NA,NA,NA,NA,NA,NA,NA,NA,NA,NA,NA,NA,NA,NA
32a83,Save data screen,canvas.Screen,1_4_0_1,NA,NA,timeout,500.002,31769.800000072,31768.174,31784.761,32268.019,32269.300000072,2023-09-29T16:34:50Z,32284.763,Beweis,ushahidi,s,marudio,kizuizi,mtendaji,NA,NA,0,NULL,NA,NA,NA,NA,NA,NA,NA,NA,NA,NA,NA,NA,NA,NA,NA,NA,NA,NA,NA
32a83,deep,flow.Sequence,1_4_0,NA,NA,completion,7566.605,24685.900000095,24684.817,24701.414,32268.019,32269.600000024,2023-09-29T16:34:50Z,32284.763,Beweis,ushahidi,s,marudio,kizuizi,mtendaji,NA,NA,NA,NULL,NA,NA,NA,NA,NA,NA,NA,NA,NA,NA,NA,NA,NA,NA,NA,NA,NA,NA,NA
32a83,task,flow.Sequence,1_4,NA,NA,completion,7566.605,24685.900000095,24684.817,24701.414,32268.019,32269.800000072,2023-09-29T16:34:50Z,32284.763,Beweis,ushahidi,s,marudio,kizuizi,mtendaji,NA,NA,NA,NULL,NA,NA,NA,NA,NA,NA,NA,NA,NA,NA,NA,NA,NA,NA,NA,NA,NA,NA,NA
32a83,Deep Question,html.Page,1_5_0_0,NA,NA,form submission,11410.637000095,32270,32268.019,32284.763,43695.400000095004,43695.600000024,2023-09-29T16:35:01Z,43701.603,Symbol,kielezo,d,kinyume,nderemo,utayari,salato,NA,NA,NULL,NA,NA,NA,NA,NA,NA,NA,NA,NA,NA,NA,NA,NA,NA,NA,NA,NA,NA,NA
32a83,Save data screen,canvas.Screen,1_5_0_1,NA,NA,timeout,499.765,43696.300000072,43684.507,43701.603,44184.697,44185.800000072,2023-09-29T16:35:02Z,44201.368,Symbol,kielezo,d,kinyume,nderemo,utayari,NA,NA,0,NULL,NA,NA,NA,NA,NA,NA,NA,NA,NA,NA,NA,NA,NA,NA,NA,NA,NA,NA,NA
32a83,deep,flow.Sequence,1_5_0,NA,NA,completion,11899.934,32270,32268.019,32284.763,44184.697,44186.100000024,2023-09-29T16:35:02Z,44201.368,Symbol,kielezo,d,kinyume,nderemo,utayari,NA,NA,NA,NULL,NA,NA,NA,NA,NA,NA,NA,NA,NA,NA,NA,NA,NA,NA,NA,NA,NA,NA,NA
32a83,task,flow.Sequence,1_5,NA,NA,completion,11899.934,32270,32268.019,32284.763,44184.697,44186.300000072,2023-09-29T16:35:02Z,44201.368,Symbol,kielezo,d,kinyume,nderemo,utayari,NA,NA,NA,NULL,NA,NA,NA,NA,NA,NA,NA,NA,NA,NA,NA,NA,NA,NA,NA,NA,NA,NA,NA
32a83,Deep Question,html.Page,1_6_0_0,NA,NA,form submission,4479.632,44186.400000095004,44184.697,44201.368,48681,48681.300000072,2023-09-29T16:35:06Z,48684.291,Vorsorge,tahadhari,s,ufafanuzi,makini,mashambani,kiyogo,NA,NA,NULL,NA,NA,NA,NA,NA,NA,NA,NA,NA,NA,NA,NA,NA,NA,NA,NA,NA,NA,NA
32a83,Save data screen,canvas.Screen,1_6_0_1,NA,NA,timeout,500.137,48687.700000048,48667.629,48684.291,49167.682,49168.900000095004,2023-09-29T16:35:07Z,49184.428,Vorsorge,tahadhari,s,ufafanuzi,makini,mashambani,NA,NA,0,NULL,NA,NA,NA,NA,NA,NA,NA,NA,NA,NA,NA,NA,NA,NA,NA,NA,NA,NA,NA
32a83,deep,flow.Sequence,1_6_0,NA,NA,completion,4966.314,44186.400000095004,44184.697,44201.368,49167.682,49169.300000072,2023-09-29T16:35:07Z,49184.428,Vorsorge,tahadhari,s,ufafanuzi,makini,mashambani,NA,NA,NA,NULL,NA,NA,NA,NA,NA,NA,NA,NA,NA,NA,NA,NA,NA,NA,NA,NA,NA,NA,NA
32a83,task,flow.Sequence,1_6,NA,NA,completion,4966.314,44186.400000095004,44184.697,44201.368,49167.682,49169.400000095004,2023-09-29T16:35:07Z,49184.428,Vorsorge,tahadhari,s,ufafanuzi,makini,mashambani,NA,NA,NA,NULL,NA,NA,NA,NA,NA,NA,NA,NA,NA,NA,NA,NA,NA,NA,NA,NA,NA,NA,NA
32a83,Deep Question,html.Page,1_7_0_0,NA,NA,form submission,8395.8720000715,49169.5,49167.682,49184.428,57580.300000072,57580.5,2023-09-29T16:35:15Z,57584.065,Gelegenheit,wakati,s,mchanganyiko,kipaumbele,kushuku,vakata,NA,NA,NULL,NA,NA,NA,NA,NA,NA,NA,NA,NA,NA,NA,NA,NA,NA,NA,NA,NA,NA,NA
32a83,Save data screen,canvas.Screen,1_7_0_1,NA,NA,timeout,500.361,57581.200000048,57567.815,57584.065,58067.788,58069,2023-09-29T16:35:16Z,58084.426,Gelegenheit,wakati,s,mchanganyiko,kipaumbele,kushuku,NA,NA,0,NULL,NA,NA,NA,NA,NA,NA,NA,NA,NA,NA,NA,NA,NA,NA,NA,NA,NA,NA,NA
32a83,deep,flow.Sequence,1_7_0,NA,NA,completion,8883.36,49169.5,49167.682,49184.428,58067.788,58069.300000072,2023-09-29T16:35:16Z,58084.426,Gelegenheit,wakati,s,mchanganyiko,kipaumbele,kushuku,NA,NA,NA,NULL,NA,NA,NA,NA,NA,NA,NA,NA,NA,NA,NA,NA,NA,NA,NA,NA,NA,NA,NA
32a83,task,flow.Sequence,1_7,NA,NA,completion,8883.36,49169.400000095004,49167.682,49184.428,58067.788,58069.400000095004,2023-09-29T16:35:16Z,58084.426,Gelegenheit,wakati,s,mchanganyiko,kipaumbele,kushuku,NA,NA,NA,NULL,NA,NA,NA,NA,NA,NA,NA,NA,NA,NA,NA,NA,NA,NA,NA,NA,NA,NA,NA
32a83,Deep Question,html.Page,1_8_0_0,NA,NA,form submission,3705.6740000238,58069.5,58067.788,58084.426,61790.100000024,61790.400000095004,2023-09-29T16:35:19Z,61800.65,Widerstand,usulubu,d,kusababisha,mwalimu,mwenendo,mtoufani,NA,NA,NULL,NA,NA,NA,NA,NA,NA,NA,NA,NA,NA,NA,NA,NA,NA,NA,NA,NA,NA,NA
32a83,Save data screen,canvas.Screen,1_8_0_1,NA,NA,timeout,500.079,61791.100000024,61783.992,61800.65,62284.153,62285,2023-09-29T16:35:20Z,62300.729,Widerstand,usulubu,d,kusababisha,mwalimu,mwenendo,NA,NA,0,NULL,NA,NA,NA,NA,NA,NA,NA,NA,NA,NA,NA,NA,NA,NA,NA,NA,NA,NA,NA
32a83,deep,flow.Sequence,1_8_0,NA,NA,completion,4199.727,58069.5,58067.788,58084.426,62284.153,62285.200000048,2023-09-29T16:35:20Z,62300.729,Widerstand,usulubu,d,kusababisha,mwalimu,mwenendo,NA,NA,NA,NULL,NA,NA,NA,NA,NA,NA,NA,NA,NA,NA,NA,NA,NA,NA,NA,NA,NA,NA,NA
32a83,task,flow.Sequence,1_8,NA,NA,completion,4199.727,58069.5,58067.788,58084.426,62284.153,62285.400000095004,2023-09-29T16:35:20Z,62300.729,Widerstand,usulubu,d,kusababisha,mwalimu,mwenendo,NA,NA,NA,NULL,NA,NA,NA,NA,NA,NA,NA,NA,NA,NA,NA,NA,NA,NA,NA,NA,NA,NA,NA
32a83,Deep Question,html.Page,1_9_0_0,NA,NA,form submission,5182.8710000238,62285.5,62284.153,62300.729,67483.600000024,67483.800000072,2023-09-29T16:35:25Z,67502.401,Ausschluss,kutengwa,s,ununuzi,taratibu,madeni,kenyifu,NA,NA,NULL,NA,NA,NA,NA,NA,NA,NA,NA,NA,NA,NA,NA,NA,NA,NA,NA,NA,NA,NA
32a83,Save data screen,canvas.Screen,1_9_0_1,NA,NA,timeout,498.469,67485.400000095,67467.569,67502.401,67984.182,67985.5,2023-09-29T16:35:26Z,68000.87,Ausschluss,kutengwa,s,ununuzi,taratibu,madeni,NA,NA,0,NULL,NA,NA,NA,NA,NA,NA,NA,NA,NA,NA,NA,NA,NA,NA,NA,NA,NA,NA,NA
32a83,deep,flow.Sequence,1_9_0,NA,NA,completion,5683.453,62285.5,62284.153,62300.729,67984.182,67985.600000024,2023-09-29T16:35:26Z,68000.87,Ausschluss,kutengwa,s,ununuzi,taratibu,madeni,NA,NA,NA,NULL,NA,NA,NA,NA,NA,NA,NA,NA,NA,NA,NA,NA,NA,NA,NA,NA,NA,NA,NA
32a83,task,flow.Sequence,1_9,NA,NA,completion,5683.453,62285.5,62284.153,62300.729,67984.182,67985.800000072,2023-09-29T16:35:26Z,68000.87,Ausschluss,kutengwa,s,ununuzi,taratibu,madeni,NA,NA,NA,NULL,NA,NA,NA,NA,NA,NA,NA,NA,NA,NA,NA,NA,NA,NA,NA,NA,NA,NA,NA
32a83,Deep Question,html.Page,1_10_0_0,NA,NA,form submission,4189.7300000238,67986.100000024,67984.182,68000.87,72190.600000024,72190.900000095,2023-09-29T16:35:30Z,72200.425,Annäherung,maegesho,d,madahili,kujiamini,mapendekezo,kinyofo,NA,NA,NULL,NA,NA,NA,NA,NA,NA,NA,NA,NA,NA,NA,NA,NA,NA,NA,NA,NA,NA,NA
32a83,Save data screen,canvas.Screen,1_10_0_1,NA,NA,timeout,500.004,72192.900000095,72183.801,72200.425,72683.782,72684.400000095,2023-09-29T16:35:30Z,72700.429,Annäherung,maegesho,d,madahili,kujiamini,mapendekezo,NA,NA,0,NULL,NA,NA,NA,NA,NA,NA,NA,NA,NA,NA,NA,NA,NA,NA,NA,NA,NA,NA,NA
32a83,deep,flow.Sequence,1_10_0,NA,NA,completion,4682.912,67986,67984.182,68000.87,72683.782,72684.600000024,2023-09-29T16:35:30Z,72700.429,Annäherung,maegesho,d,madahili,kujiamini,mapendekezo,NA,NA,NA,NULL,NA,NA,NA,NA,NA,NA,NA,NA,NA,NA,NA,NA,NA,NA,NA,NA,NA,NA,NA
32a83,task,flow.Sequence,1_10,NA,NA,completion,4682.912,67985.800000072,67984.182,68000.87,72683.782,72684.700000048,2023-09-29T16:35:30Z,72700.429,Annäherung,maegesho,d,madahili,kujiamini,mapendekezo,NA,NA,NA,NULL,NA,NA,NA,NA,NA,NA,NA,NA,NA,NA,NA,NA,NA,NA,NA,NA,NA,NA,NA
32a83,Deep Question,html.Page,1_11_0_0,NA,NA,form submission,5255.3710000715,72684.900000095,72683.782,72700.429,77955.800000072,77956.100000024,2023-09-29T16:35:35Z,77967.022,Schönheit,kirembo,d,mahojiano,msisimko,jitihadi,yokoyoma,NA,NA,NULL,NA,NA,NA,NA,NA,NA,NA,NA,NA,NA,NA,NA,NA,NA,NA,NA,NA,NA,NA
32a83,Save data screen,canvas.Screen,1_11_0_1,NA,NA,timeout,500.037,77957.800000072,77950.383,77967.022,78450.379,78451.400000095,2023-09-29T16:35:36Z,78467.059,Schönheit,kirembo,d,mahojiano,msisimko,jitihadi,NA,NA,0,NULL,NA,NA,NA,NA,NA,NA,NA,NA,NA,NA,NA,NA,NA,NA,NA,NA,NA,NA,NA
32a83,deep,flow.Sequence,1_11_0,NA,NA,completion,5749.95,72684.800000072,72683.782,72700.429,78450.379,78451.700000048,2023-09-29T16:35:36Z,78467.059,Schönheit,kirembo,d,mahojiano,msisimko,jitihadi,NA,NA,NA,NULL,NA,NA,NA,NA,NA,NA,NA,NA,NA,NA,NA,NA,NA,NA,NA,NA,NA,NA,NA
32a83,task,flow.Sequence,1_11,NA,NA,completion,5749.95,72684.800000072,72683.782,72700.429,78450.379,78451.900000095,2023-09-29T16:35:36Z,78467.059,Schönheit,kirembo,d,mahojiano,msisimko,jitihadi,NA,NA,NA,NULL,NA,NA,NA,NA,NA,NA,NA,NA,NA,NA,NA,NA,NA,NA,NA,NA,NA,NA,NA
32a83,Deep Question,html.Page,1_12_0_0,NA,NA,form submission,3846.2410000715,78452.100000024,78450.379,78467.059,82313.300000072,82313.600000024,2023-09-29T16:35:40Z,82316.907,Sympathie,mapendano,d,dhamiria,fungamano,maazimio,habibu,NA,NA,NULL,NA,NA,NA,NA,NA,NA,NA,NA,NA,NA,NA,NA,NA,NA,NA,NA,NA,NA,NA
32a83,Save data screen,canvas.Screen,1_12_0_1,NA,NA,timeout,500.17999999999,82315.200000048,82300.29,82316.907,82800.381,82801.400000095,2023-09-29T16:35:40Z,82817.087,Sympathie,mapendano,d,dhamiria,fungamano,maazimio,NA,NA,0,NULL,NA,NA,NA,NA,NA,NA,NA,NA,NA,NA,NA,NA,NA,NA,NA,NA,NA,NA,NA
32a83,deep,flow.Sequence,1_12_0,NA,NA,completion,4333.322,78452.100000024,78450.379,78467.059,82800.381,82801.700000048,2023-09-29T16:35:40Z,82817.087,Sympathie,mapendano,d,dhamiria,fungamano,maazimio,NA,NA,NA,NULL,NA,NA,NA,NA,NA,NA,NA,NA,NA,NA,NA,NA,NA,NA,NA,NA,NA,NA,NA
32a83,task,flow.Sequence,1_12,NA,NA,completion,4333.322,78452,78450.379,78467.059,82800.381,82801.800000072,2023-09-29T16:35:40Z,82817.087,Sympathie,mapendano,d,dhamiria,fungamano,maazimio,NA,NA,NA,NULL,NA,NA,NA,NA,NA,NA,NA,NA,NA,NA,NA,NA,NA,NA,NA,NA,NA,NA,NA
32a83,Deep Question,html.Page,1_13_0_0,NA,NA,form submission,4068.7130000715,82802,82800.381,82817.087,86885.800000072,86886.100000024,2023-09-29T16:35:44Z,86900.238,Polizist,msongora,s,simanzi,mandhari,nidhamu,mshtukani,NA,NA,NULL,NA,NA,NA,NA,NA,NA,NA,NA,NA,NA,NA,NA,NA,NA,NA,NA,NA,NA,NA
32a83,Save data screen,canvas.Screen,1_13_0_1,NA,NA,timeout,500.196,86888,86883.804,86900.238,87383.779,87384.800000072,2023-09-29T16:35:45Z,87400.434,Polizist,msongora,s,simanzi,mandhari,nidhamu,NA,NA,0,NULL,NA,NA,NA,NA,NA,NA,NA,NA,NA,NA,NA,NA,NA,NA,NA,NA,NA,NA,NA
32a83,deep,flow.Sequence,1_13_0,NA,NA,completion,4566.692,82802,82800.381,82817.087,87383.779,87385.100000024,2023-09-29T16:35:45Z,87400.434,Polizist,msongora,s,simanzi,mandhari,nidhamu,NA,NA,NA,NULL,NA,NA,NA,NA,NA,NA,NA,NA,NA,NA,NA,NA,NA,NA,NA,NA,NA,NA,NA
32a83,task,flow.Sequence,1_13,NA,NA,completion,4566.692,82801.800000072,82800.381,82817.087,87383.779,87385.300000072,2023-09-29T16:35:45Z,87400.434,Polizist,msongora,s,simanzi,mandhari,nidhamu,NA,NA,NA,NULL,NA,NA,NA,NA,NA,NA,NA,NA,NA,NA,NA,NA,NA,NA,NA,NA,NA,NA,NA
32a83,Deep Question,html.Page,1_14_0_0,NA,NA,form submission,9659.4660000954,87385.400000095,87383.779,87400.434,97059.900000095,97060.100000024,2023-09-29T16:35:55Z,97066.874,Wettbewerb,ushindani,s,mapendezi,kichocheo,ubaguzi,akala,NA,NA,NULL,NA,NA,NA,NA,NA,NA,NA,NA,NA,NA,NA,NA,NA,NA,NA,NA,NA,NA,NA
32a83,Save data screen,canvas.Screen,1_14_0_1,NA,NA,timeout,500.13,97061.800000072,97050.33,97066.874,97550.339,97551.5,2023-09-29T16:35:55Z,97567.004,Wettbewerb,ushindani,s,mapendezi,kichocheo,ubaguzi,NA,NA,0,NULL,NA,NA,NA,NA,NA,NA,NA,NA,NA,NA,NA,NA,NA,NA,NA,NA,NA,NA,NA
32a83,deep,flow.Sequence,1_14_0,NA,NA,completion,10149.905,87385.400000095,87383.779,87400.434,97550.339,97551.800000072,2023-09-29T16:35:55Z,97567.004,Wettbewerb,ushindani,s,mapendezi,kichocheo,ubaguzi,NA,NA,NA,NULL,NA,NA,NA,NA,NA,NA,NA,NA,NA,NA,NA,NA,NA,NA,NA,NA,NA,NA,NA
32a83,task,flow.Sequence,1_14,NA,NA,completion,10149.905,87385.300000072,87383.779,87400.434,97550.339,97551.900000095,2023-09-29T16:35:55Z,97567.004,Wettbewerb,ushindani,s,mapendezi,kichocheo,ubaguzi,NA,NA,NA,NULL,NA,NA,NA,NA,NA,NA,NA,NA,NA,NA,NA,NA,NA,NA,NA,NA,NA,NA,NA
32a83,Deep Question,html.Page,1_15_0_0,NA,NA,form submission,3871.5960000238,97552.100000024,97550.339,97567.004,101438.60000002,101438.9000001,2023-09-29T16:35:59Z,101450.013,Zuwachs,nyongeza,d,matilaba,udhibiti,hudhurio,sawara,NA,NA,NULL,NA,NA,NA,NA,NA,NA,NA,NA,NA,NA,NA,NA,NA,NA,NA,NA,NA,NA,NA
32a83,Save data screen,canvas.Screen,1_15_0_1,NA,NA,timeout,499.855,101440.9000001,101433.56,101450.013,101933.204,101934,2023-09-29T16:35:59Z,101949.868,Zuwachs,nyongeza,d,matilaba,udhibiti,hudhurio,NA,NA,0,NULL,NA,NA,NA,NA,NA,NA,NA,NA,NA,NA,NA,NA,NA,NA,NA,NA,NA,NA,NA
32a83,deep,flow.Sequence,1_15_0,NA,NA,completion,4366.2,97552,97550.339,97567.004,101933.204,101934.30000007,2023-09-29T16:35:59Z,101949.868,Zuwachs,nyongeza,d,matilaba,udhibiti,hudhurio,NA,NA,NA,NULL,NA,NA,NA,NA,NA,NA,NA,NA,NA,NA,NA,NA,NA,NA,NA,NA,NA,NA,NA
32a83,task,flow.Sequence,1_15,NA,NA,completion,4366.2,97552,97550.339,97567.004,101933.204,101934.4000001,2023-09-29T16:35:59Z,101949.868,Zuwachs,nyongeza,d,matilaba,udhibiti,hudhurio,NA,NA,NA,NULL,NA,NA,NA,NA,NA,NA,NA,NA,NA,NA,NA,NA,NA,NA,NA,NA,NA,NA,NA
32a83,retrieval block 1 (cued recall),flow.Loop,1,NA,NA,completion,96997.943,4907.7000000477,4901.896,4935.261,101933.204,101934.5,2023-09-29T16:35:59Z,101949.868,NA,NA,NA,NA,NA,NA,NA,NA,NA,NULL,NA,NA,NA,NA,NA,NA,NA,NA,NA,NA,NA,NA,NA,NA,NA,NA,NA,NA,NA
32a83,Shallow Question,html.Page,2_0_0_0,NA,NA,form submission,10698.332000048,101934.80000007,101933.204,101949.868,112648.20000005,112648.70000005,2023-09-29T16:36:10Z,112649.655,Zufall,kikuti,d,kukosekana,uchoraji,leseni,uchoraji,NA,NA,"c(""distractor1"", ""distractor2"", ""distractor3"")",NA,NA,NA,NA,NA,NA,NA,NA,NA,NA,NA,NA,NA,NA,NA,NA,NA,NA,NA
32a83,Save data screen,canvas.Screen,2_0_0_1,NA,NA,timeout,500.16,112652.30000007,112633.27,112649.655,113133.254,113134.5,2023-09-29T16:36:11Z,113149.815,Zufall,kikuti,d,kukosekana,uchoraji,leseni,NA,NA,0,"c(""distractor1"", ""distractor2"", ""distractor3"")",NA,NA,NA,NA,NA,NA,NA,NA,NA,NA,NA,NA,NA,NA,NA,NA,NA,NA,NA
32a83,shallow,flow.Sequence,2_0_0,NA,NA,completion,11183.386,101934.80000007,101933.204,101949.868,113133.254,113134.70000005,2023-09-29T16:36:11Z,113149.815,Zufall,kikuti,d,kukosekana,uchoraji,leseni,NA,NA,NA,"c(""distractor1"", ""distractor2"", ""distractor3"")",NA,NA,NA,NA,NA,NA,NA,NA,NA,NA,NA,NA,NA,NA,NA,NA,NA,NA,NA
32a83,task,flow.Sequence,2_0,NA,NA,completion,11183.386,101934.70000005,101933.204,101949.868,113133.254,113134.80000007,2023-09-29T16:36:11Z,113149.815,Zufall,kikuti,d,kukosekana,uchoraji,leseni,NA,NA,NA,"c(""distractor1"", ""distractor2"", ""distractor3"")",NA,NA,NA,NA,NA,NA,NA,NA,NA,NA,NA,NA,NA,NA,NA,NA,NA,NA,NA
32a83,Shallow Question,html.Page,2_1_0_0,NA,NA,form submission,5819.685,113135,113133.254,113149.815,118969.5,118969.9000001,2023-09-29T16:36:17Z,118982.943,Wettbewerb,ushindani,s,mapendezi,kichocheo,ubaguzi,ushindani,NA,NA,"c(""distractor1"", ""distractor2"", ""distractor3"")",NA,NA,NA,NA,NA,NA,NA,NA,NA,NA,NA,NA,NA,NA,NA,NA,NA,NA,NA
32a83,Save data screen,canvas.Screen,2_1_0_1,NA,NA,timeout,500.14999999999,118973.10000002,118966.305,118982.943,119466.184,119467.5,2023-09-29T16:36:17Z,119483.093,Wettbewerb,ushindani,s,mapendezi,kichocheo,ubaguzi,NA,NA,1,"c(""distractor1"", ""distractor2"", ""distractor3"")",NA,NA,NA,NA,NA,NA,NA,NA,NA,NA,NA,NA,NA,NA,NA,NA,NA,NA,NA
32a83,shallow,flow.Sequence,2_1_0,NA,NA,completion,6316.369,113135,113133.254,113149.815,119466.184,119467.80000007,2023-09-29T16:36:17Z,119483.093,Wettbewerb,ushindani,s,mapendezi,kichocheo,ubaguzi,NA,NA,NA,"c(""distractor1"", ""distractor2"", ""distractor3"")",NA,NA,NA,NA,NA,NA,NA,NA,NA,NA,NA,NA,NA,NA,NA,NA,NA,NA,NA
32a83,task,flow.Sequence,2_1,NA,NA,completion,6316.369,113134.9000001,113133.254,113149.815,119466.184,119467.9000001,2023-09-29T16:36:17Z,119483.093,Wettbewerb,ushindani,s,mapendezi,kichocheo,ubaguzi,NA,NA,NA,"c(""distractor1"", ""distractor2"", ""distractor3"")",NA,NA,NA,NA,NA,NA,NA,NA,NA,NA,NA,NA,NA,NA,NA,NA,NA,NA,NA
32a83,Shallow Question,html.Page,2_2_0_0,NA,NA,form submission,2675.3070000954,119468,119466.184,119483.093,122158.4000001,122158.70000005,2023-09-29T16:36:20Z,122166.106,Schönheit,kirembo,d,mahojiano,msisimko,jitihadi,kirembo,NA,NA,"c(""distractor1"", ""distractor2"", ""distractor3"")",NA,NA,NA,NA,NA,NA,NA,NA,NA,NA,NA,NA,NA,NA,NA,NA,NA,NA,NA
32a83,Save data screen,canvas.Screen,2_2_0_1,NA,NA,timeout,500.00900000001,122159.10000002,122149.501,122166.106,122649.635,122650.80000007,2023-09-29T16:36:20Z,122666.115,Schönheit,kirembo,d,mahojiano,msisimko,jitihadi,NA,NA,1,"c(""distractor1"", ""distractor2"", ""distractor3"")",NA,NA,NA,NA,NA,NA,NA,NA,NA,NA,NA,NA,NA,NA,NA,NA,NA,NA,NA
32a83,shallow,flow.Sequence,2_2_0,NA,NA,completion,3166.542,119468,119466.184,119483.093,122649.635,122651,2023-09-29T16:36:20Z,122666.115,Schönheit,kirembo,d,mahojiano,msisimko,jitihadi,NA,NA,NA,"c(""distractor1"", ""distractor2"", ""distractor3"")",NA,NA,NA,NA,NA,NA,NA,NA,NA,NA,NA,NA,NA,NA,NA,NA,NA,NA,NA
32a83,task,flow.Sequence,2_2,NA,NA,completion,3166.542,119467.9000001,119466.184,119483.093,122649.635,122651.20000005,2023-09-29T16:36:20Z,122666.115,Schönheit,kirembo,d,mahojiano,msisimko,jitihadi,NA,NA,NA,"c(""distractor1"", ""distractor2"", ""distractor3"")",NA,NA,NA,NA,NA,NA,NA,NA,NA,NA,NA,NA,NA,NA,NA,NA,NA,NA,NA
32a83,Shallow Question,html.Page,2_3_0_0,NA,NA,form submission,3974.385,122651.30000007,122649.635,122666.115,126640.5,126641.10000002,2023-09-29T16:36:24Z,126649.353,Widerstand,usulubu,d,kusababisha,mwalimu,mwenendo,usulubu,NA,NA,"c(""distractor1"", ""distractor2"", ""distractor3"")",NA,NA,NA,NA,NA,NA,NA,NA,NA,NA,NA,NA,NA,NA,NA,NA,NA,NA,NA
32a83,Save data screen,canvas.Screen,2_3_0_1,NA,NA,timeout,500.10399999999,126644.70000005,126632.883,126649.353,127132.829,127133.9000001,2023-09-29T16:36:25Z,127149.457,Widerstand,usulubu,d,kusababisha,mwalimu,mwenendo,NA,NA,1,"c(""distractor1"", ""distractor2"", ""distractor3"")",NA,NA,NA,NA,NA,NA,NA,NA,NA,NA,NA,NA,NA,NA,NA,NA,NA,NA,NA
32a83,shallow,flow.Sequence,2_3_0,NA,NA,completion,4466.714,122651.30000007,122649.635,122666.115,127132.829,127134.10000002,2023-09-29T16:36:25Z,127149.457,Widerstand,usulubu,d,kusababisha,mwalimu,mwenendo,NA,NA,NA,"c(""distractor1"", ""distractor2"", ""distractor3"")",NA,NA,NA,NA,NA,NA,NA,NA,NA,NA,NA,NA,NA,NA,NA,NA,NA,NA,NA
32a83,task,flow.Sequence,2_3,NA,NA,completion,4466.714,122651.30000007,122649.635,122666.115,127132.829,127134.30000007,2023-09-29T16:36:25Z,127149.457,Widerstand,usulubu,d,kusababisha,mwalimu,mwenendo,NA,NA,NA,"c(""distractor1"", ""distractor2"", ""distractor3"")",NA,NA,NA,NA,NA,NA,NA,NA,NA,NA,NA,NA,NA,NA,NA,NA,NA,NA,NA
32a83,Shallow Question,html.Page,2_4_0_0,NA,NA,form submission,3440.9430000954,127134.5,127132.829,127149.457,130590.4000001,130590.60000002,2023-09-29T16:36:28Z,130599.487,Vorsorge,tahadhari,s,ufafanuzi,makini,mashambani,tahadhari,NA,NA,"c(""distractor1"", ""distractor2"", ""distractor3"")",NA,NA,NA,NA,NA,NA,NA,NA,NA,NA,NA,NA,NA,NA,NA,NA,NA,NA,NA
32a83,Save data screen,canvas.Screen,2_4_0_1,NA,NA,timeout,499.92200000002,130592.60000002,130582.561,130599.487,131082.808,131083.70000005,2023-09-29T16:36:29Z,131099.409,Vorsorge,tahadhari,s,ufafanuzi,makini,mashambani,NA,NA,1,"c(""distractor1"", ""distractor2"", ""distractor3"")",NA,NA,NA,NA,NA,NA,NA,NA,NA,NA,NA,NA,NA,NA,NA,NA,NA,NA,NA
32a83,shallow,flow.Sequence,2_4_0,NA,NA,completion,3933.351,127134.4000001,127132.829,127149.457,131082.808,131084.20000005,2023-09-29T16:36:29Z,131099.409,Vorsorge,tahadhari,s,ufafanuzi,makini,mashambani,NA,NA,NA,"c(""distractor1"", ""distractor2"", ""distractor3"")",NA,NA,NA,NA,NA,NA,NA,NA,NA,NA,NA,NA,NA,NA,NA,NA,NA,NA,NA
32a83,task,flow.Sequence,2_4,NA,NA,completion,3933.351,127134.4000001,127132.829,127149.457,131082.808,131084.30000007,2023-09-29T16:36:29Z,131099.409,Vorsorge,tahadhari,s,ufafanuzi,makini,mashambani,NA,NA,NA,"c(""distractor1"", ""distractor2"", ""distractor3"")",NA,NA,NA,NA,NA,NA,NA,NA,NA,NA,NA,NA,NA,NA,NA,NA,NA,NA,NA
32a83,Shallow Question,html.Page,2_5_0_0,NA,NA,form submission,3424.9910000954,131084.4000001,131082.808,131099.409,134524.4000001,134524.9000001,2023-09-29T16:36:32Z,134532.523,Verstand,ufahamivu,d,shakawa,hadhari,mhandisi,ufahamivu,NA,NA,"c(""distractor1"", ""distractor2"", ""distractor3"")",NA,NA,NA,NA,NA,NA,NA,NA,NA,NA,NA,NA,NA,NA,NA,NA,NA,NA,NA
32a83,Save data screen,canvas.Screen,2_5_0_1,NA,NA,timeout,500.04000000001,134528.20000005,134516.1,134532.523,135016.106,135017.30000007,2023-09-29T16:36:33Z,135032.563,Verstand,ufahamivu,d,shakawa,hadhari,mhandisi,NA,NA,1,"c(""distractor1"", ""distractor2"", ""distractor3"")",NA,NA,NA,NA,NA,NA,NA,NA,NA,NA,NA,NA,NA,NA,NA,NA,NA,NA,NA
32a83,shallow,flow.Sequence,2_5_0,NA,NA,completion,3916.697,131084.4000001,131082.808,131099.409,135016.106,135017.60000002,2023-09-29T16:36:33Z,135032.563,Verstand,ufahamivu,d,shakawa,hadhari,mhandisi,NA,NA,NA,"c(""distractor1"", ""distractor2"", ""distractor3"")",NA,NA,NA,NA,NA,NA,NA,NA,NA,NA,NA,NA,NA,NA,NA,NA,NA,NA,NA
32a83,task,flow.Sequence,2_5,NA,NA,completion,3916.697,131084.4000001,131082.808,131099.409,135016.106,135017.80000007,2023-09-29T16:36:33Z,135032.563,Verstand,ufahamivu,d,shakawa,hadhari,mhandisi,NA,NA,NA,"c(""distractor1"", ""distractor2"", ""distractor3"")",NA,NA,NA,NA,NA,NA,NA,NA,NA,NA,NA,NA,NA,NA,NA,NA,NA,NA,NA
32a83,Shallow Question,html.Page,2_6_0_0,NA,NA,form submission,7612.1370000477,135017.9000001,135016.106,135032.563,142644.70000005,142645.30000007,2023-09-29T16:36:40Z,142649.038,Polizist,msongora,s,simanzi,mandhari,nidhamu,msongora,NA,NA,"c(""distractor1"", ""distractor2"", ""distractor3"")",NA,NA,NA,NA,NA,NA,NA,NA,NA,NA,NA,NA,NA,NA,NA,NA,NA,NA,NA
32a83,Save data screen,canvas.Screen,2_6_0_1,NA,NA,timeout,500.20800000001,142648.70000005,142632.362,142649.038,143132.486,143133.80000007,2023-09-29T16:36:41Z,143149.246,Polizist,msongora,s,simanzi,mandhari,nidhamu,NA,NA,1,"c(""distractor1"", ""distractor2"", ""distractor3"")",NA,NA,NA,NA,NA,NA,NA,NA,NA,NA,NA,NA,NA,NA,NA,NA,NA,NA,NA
32a83,shallow,flow.Sequence,2_6_0,NA,NA,completion,8099.923,135017.9000001,135016.106,135032.563,143132.486,143134.10000002,2023-09-29T16:36:41Z,143149.246,Polizist,msongora,s,simanzi,mandhari,nidhamu,NA,NA,NA,"c(""distractor1"", ""distractor2"", ""distractor3"")",NA,NA,NA,NA,NA,NA,NA,NA,NA,NA,NA,NA,NA,NA,NA,NA,NA,NA,NA
32a83,task,flow.Sequence,2_6,NA,NA,completion,8099.923,135017.80000007,135016.106,135032.563,143132.486,143134.4000001,2023-09-29T16:36:41Z,143149.246,Polizist,msongora,s,simanzi,mandhari,nidhamu,NA,NA,NA,"c(""distractor1"", ""distractor2"", ""distractor3"")",NA,NA,NA,NA,NA,NA,NA,NA,NA,NA,NA,NA,NA,NA,NA,NA,NA,NA,NA
32a83,Shallow Question,html.Page,2_7_0_0,NA,NA,form submission,3773.9540000477,143134.5,143132.486,143149.246,146923.20000005,146923.70000005,2023-09-29T16:36:44Z,146932.254,Beweis,ushahidi,s,marudio,kizuizi,mtendaji,ushahidi,NA,NA,"c(""distractor1"", ""distractor2"", ""distractor3"")",NA,NA,NA,NA,NA,NA,NA,NA,NA,NA,NA,NA,NA,NA,NA,NA,NA,NA,NA
32a83,Save data screen,canvas.Screen,2_7_0_1,NA,NA,timeout,500.36900000001,146927.20000005,146915.905,146932.254,147415.688,147416.9000001,2023-09-29T16:36:45Z,147432.623,Beweis,ushahidi,s,marudio,kizuizi,mtendaji,NA,NA,1,"c(""distractor1"", ""distractor2"", ""distractor3"")",NA,NA,NA,NA,NA,NA,NA,NA,NA,NA,NA,NA,NA,NA,NA,NA,NA,NA,NA
32a83,shallow,flow.Sequence,2_7_0,NA,NA,completion,4266.442,143134.5,143132.486,143149.246,147415.688,147417.20000005,2023-09-29T16:36:45Z,147432.623,Beweis,ushahidi,s,marudio,kizuizi,mtendaji,NA,NA,NA,"c(""distractor1"", ""distractor2"", ""distractor3"")",NA,NA,NA,NA,NA,NA,NA,NA,NA,NA,NA,NA,NA,NA,NA,NA,NA,NA,NA
32a83,task,flow.Sequence,2_7,NA,NA,completion,4266.442,143134.5,143132.486,143149.246,147415.688,147417.20000005,2023-09-29T16:36:45Z,147432.623,Beweis,ushahidi,s,marudio,kizuizi,mtendaji,NA,NA,NA,"c(""distractor1"", ""distractor2"", ""distractor3"")",NA,NA,NA,NA,NA,NA,NA,NA,NA,NA,NA,NA,NA,NA,NA,NA,NA,NA,NA
32a83,Shallow Question,html.Page,2_8_0_0,NA,NA,form submission,3214.6770000715,147417.4000001,147415.688,147432.623,150647.30000007,150647.9000001,2023-09-29T16:36:48Z,150648.881,Auftrag,uagizaji,s,ghanima,kuzingatia,msukani,uagizaji,NA,NA,"c(""distractor1"", ""distractor2"", ""distractor3"")",NA,NA,NA,NA,NA,NA,NA,NA,NA,NA,NA,NA,NA,NA,NA,NA,NA,NA,NA
32a83,Save data screen,canvas.Screen,2_8_0_1,NA,NA,timeout,500.31700000001,150648.70000005,150632.302,150648.881,151132.544,151134,2023-09-29T16:36:49Z,151149.198,Auftrag,uagizaji,s,ghanima,kuzingatia,msukani,NA,NA,1,"c(""distractor1"", ""distractor2"", ""distractor3"")",NA,NA,NA,NA,NA,NA,NA,NA,NA,NA,NA,NA,NA,NA,NA,NA,NA,NA,NA
32a83,shallow,flow.Sequence,2_8_0,NA,NA,completion,3699.921,147417.4000001,147415.688,147432.623,151132.544,151134.20000005,2023-09-29T16:36:49Z,151149.198,Auftrag,uagizaji,s,ghanima,kuzingatia,msukani,NA,NA,NA,"c(""distractor1"", ""distractor2"", ""distractor3"")",NA,NA,NA,NA,NA,NA,NA,NA,NA,NA,NA,NA,NA,NA,NA,NA,NA,NA,NA
32a83,task,flow.Sequence,2_8,NA,NA,completion,3699.921,147417.4000001,147415.688,147432.623,151132.544,151134.4000001,2023-09-29T16:36:49Z,151149.198,Auftrag,uagizaji,s,ghanima,kuzingatia,msukani,NA,NA,NA,"c(""distractor1"", ""distractor2"", ""distractor3"")",NA,NA,NA,NA,NA,NA,NA,NA,NA,NA,NA,NA,NA,NA,NA,NA,NA,NA,NA
32a83,Shallow Question,html.Page,2_9_0_0,NA,NA,form submission,4773.4020000238,151134.5,151132.544,151149.198,155922.60000002,155923.10000002,2023-09-29T16:36:53Z,155932.31,Symbol,kielezo,d,kinyume,nderemo,utayari,kielezo,NA,NA,"c(""distractor1"", ""distractor2"", ""distractor3"")",NA,NA,NA,NA,NA,NA,NA,NA,NA,NA,NA,NA,NA,NA,NA,NA,NA,NA,NA
32a83,Save data screen,canvas.Screen,2_9_0_1,NA,NA,timeout,500.01699999999,155926.70000005,155915.564,155932.31,156415.738,156417.5,2023-09-29T16:36:54Z,156432.327,Symbol,kielezo,d,kinyume,nderemo,utayari,NA,NA,1,"c(""distractor1"", ""distractor2"", ""distractor3"")",NA,NA,NA,NA,NA,NA,NA,NA,NA,NA,NA,NA,NA,NA,NA,NA,NA,NA,NA
32a83,shallow,flow.Sequence,2_9_0,NA,NA,completion,5266.54,151134.4000001,151132.544,151149.198,156415.738,156417.9000001,2023-09-29T16:36:54Z,156432.327,Symbol,kielezo,d,kinyume,nderemo,utayari,NA,NA,NA,"c(""distractor1"", ""distractor2"", ""distractor3"")",NA,NA,NA,NA,NA,NA,NA,NA,NA,NA,NA,NA,NA,NA,NA,NA,NA,NA,NA
32a83,task,flow.Sequence,2_9,NA,NA,completion,5266.54,151134.4000001,151132.544,151149.198,156415.738,156418.30000007,2023-09-29T16:36:54Z,156432.327,Symbol,kielezo,d,kinyume,nderemo,utayari,NA,NA,NA,"c(""distractor1"", ""distractor2"", ""distractor3"")",NA,NA,NA,NA,NA,NA,NA,NA,NA,NA,NA,NA,NA,NA,NA,NA,NA,NA,NA
32a83,Shallow Question,html.Page,2_10_0_0,NA,NA,form submission,3886.3730000477,156418.5,156415.738,156432.327,160318.70000005,160319.20000005,2023-09-29T16:36:58Z,160332.085,Zuwachs,nyongeza,d,matilaba,udhibiti,hudhurio,nyongeza,NA,NA,"c(""distractor1"", ""distractor2"", ""distractor3"")",NA,NA,NA,NA,NA,NA,NA,NA,NA,NA,NA,NA,NA,NA,NA,NA,NA,NA,NA
32a83,Save data screen,canvas.Screen,2_10_0_1,NA,NA,timeout,499.94900000002,160322.5,160315.586,160332.085,160815.339,160816,2023-09-29T16:36:58Z,160832.034,Zuwachs,nyongeza,d,matilaba,udhibiti,hudhurio,NA,NA,1,"c(""distractor1"", ""distractor2"", ""distractor3"")",NA,NA,NA,NA,NA,NA,NA,NA,NA,NA,NA,NA,NA,NA,NA,NA,NA,NA,NA
32a83,shallow,flow.Sequence,2_10_0,NA,NA,completion,4383.012,156418.4000001,156415.738,156432.327,160815.339,160816.20000005,2023-09-29T16:36:58Z,160832.034,Zuwachs,nyongeza,d,matilaba,udhibiti,hudhurio,NA,NA,NA,"c(""distractor1"", ""distractor2"", ""distractor3"")",NA,NA,NA,NA,NA,NA,NA,NA,NA,NA,NA,NA,NA,NA,NA,NA,NA,NA,NA
32a83,task,flow.Sequence,2_10,NA,NA,completion,4383.012,156418.4000001,156415.738,156432.327,160815.339,160816.30000007,2023-09-29T16:36:58Z,160832.034,Zuwachs,nyongeza,d,matilaba,udhibiti,hudhurio,NA,NA,NA,"c(""distractor1"", ""distractor2"", ""distractor3"")",NA,NA,NA,NA,NA,NA,NA,NA,NA,NA,NA,NA,NA,NA,NA,NA,NA,NA,NA
32a83,Shallow Question,html.Page,2_11_0_0,NA,NA,form submission,5148.8660000954,160816.5,160815.339,160832.034,165980.9000001,165981.5,2023-09-29T16:37:04Z,165981.993,Gelegenheit,wakati,s,mchanganyiko,kipaumbele,kushuku,wakati,NA,NA,"c(""distractor1"", ""distractor2"", ""distractor3"")",NA,NA,NA,NA,NA,NA,NA,NA,NA,NA,NA,NA,NA,NA,NA,NA,NA,NA,NA
32a83,Save data screen,canvas.Screen,2_11_0_1,NA,NA,timeout,500.01200000002,165984.9000001,165965.458,165981.993,166465.323,166466.4000001,2023-09-29T16:37:04Z,166482.005,Gelegenheit,wakati,s,mchanganyiko,kipaumbele,kushuku,NA,NA,1,"c(""distractor1"", ""distractor2"", ""distractor3"")",NA,NA,NA,NA,NA,NA,NA,NA,NA,NA,NA,NA,NA,NA,NA,NA,NA,NA,NA
32a83,shallow,flow.Sequence,2_11_0,NA,NA,completion,5633.289,160816.5,160815.339,160832.034,166465.323,166466.60000002,2023-09-29T16:37:04Z,166482.005,Gelegenheit,wakati,s,mchanganyiko,kipaumbele,kushuku,NA,NA,NA,"c(""distractor1"", ""distractor2"", ""distractor3"")",NA,NA,NA,NA,NA,NA,NA,NA,NA,NA,NA,NA,NA,NA,NA,NA,NA,NA,NA
32a83,task,flow.Sequence,2_11,NA,NA,completion,5633.289,160816.5,160815.339,160832.034,166465.323,166466.80000007,2023-09-29T16:37:04Z,166482.005,Gelegenheit,wakati,s,mchanganyiko,kipaumbele,kushuku,NA,NA,NA,"c(""distractor1"", ""distractor2"", ""distractor3"")",NA,NA,NA,NA,NA,NA,NA,NA,NA,NA,NA,NA,NA,NA,NA,NA,NA,NA,NA
32a83,Shallow Question,html.Page,2_12_0_0,NA,NA,form submission,3617.995,166467,166465.323,166482.005,170100,170100.5,2023-09-29T16:37:08Z,170132.012,Annäherung,maegesho,d,madahili,kujiamini,mapendekezo,maegesho,NA,NA,"c(""distractor1"", ""distractor2"", ""distractor3"")",NA,NA,NA,NA,NA,NA,NA,NA,NA,NA,NA,NA,NA,NA,NA,NA,NA,NA,NA
32a83,Save data screen,canvas.Screen,2_12_0_1,NA,NA,timeout,499.93600000002,170104,170115.177,170132.012,170615.457,170616.5,2023-09-29T16:37:08Z,170631.948,Annäherung,maegesho,d,madahili,kujiamini,mapendekezo,NA,NA,1,"c(""distractor1"", ""distractor2"", ""distractor3"")",NA,NA,NA,NA,NA,NA,NA,NA,NA,NA,NA,NA,NA,NA,NA,NA,NA,NA,NA
32a83,shallow,flow.Sequence,2_12_0,NA,NA,completion,4133.452,166467,166465.323,166482.005,170615.457,170616.80000007,2023-09-29T16:37:08Z,170631.948,Annäherung,maegesho,d,madahili,kujiamini,mapendekezo,NA,NA,NA,"c(""distractor1"", ""distractor2"", ""distractor3"")",NA,NA,NA,NA,NA,NA,NA,NA,NA,NA,NA,NA,NA,NA,NA,NA,NA,NA,NA
32a83,task,flow.Sequence,2_12,NA,NA,completion,4133.452,166466.9000001,166465.323,166482.005,170615.457,170616.9000001,2023-09-29T16:37:08Z,170631.948,Annäherung,maegesho,d,madahili,kujiamini,mapendekezo,NA,NA,NA,"c(""distractor1"", ""distractor2"", ""distractor3"")",NA,NA,NA,NA,NA,NA,NA,NA,NA,NA,NA,NA,NA,NA,NA,NA,NA,NA,NA
32a83,Shallow Question,html.Page,2_13_0_0,NA,NA,form submission,10842.252000048,170617,170615.457,170631.948,181474.20000005,181474.80000007,2023-09-29T16:37:19Z,181481.562,Ausschluss,kutengwa,s,ununuzi,taratibu,madeni,kutengwa,NA,NA,"c(""distractor1"", ""distractor2"", ""distractor3"")",NA,NA,NA,NA,NA,NA,NA,NA,NA,NA,NA,NA,NA,NA,NA,NA,NA,NA,NA
32a83,Save data screen,canvas.Screen,2_13_0_1,NA,NA,timeout,500.02100000001,181478.20000005,181464.999,181481.562,181965.246,181966.60000002,2023-09-29T16:37:20Z,181981.583,Ausschluss,kutengwa,s,ununuzi,taratibu,madeni,NA,NA,1,"c(""distractor1"", ""distractor2"", ""distractor3"")",NA,NA,NA,NA,NA,NA,NA,NA,NA,NA,NA,NA,NA,NA,NA,NA,NA,NA,NA
32a83,shallow,flow.Sequence,2_13_0,NA,NA,completion,11333.298,170617,170615.457,170631.948,181965.246,181966.9000001,2023-09-29T16:37:20Z,181981.583,Ausschluss,kutengwa,s,ununuzi,taratibu,madeni,NA,NA,NA,"c(""distractor1"", ""distractor2"", ""distractor3"")",NA,NA,NA,NA,NA,NA,NA,NA,NA,NA,NA,NA,NA,NA,NA,NA,NA,NA,NA
32a83,task,flow.Sequence,2_13,NA,NA,completion,11333.298,170616.9000001,170615.457,170631.948,181965.246,181967.20000005,2023-09-29T16:37:20Z,181981.583,Ausschluss,kutengwa,s,ununuzi,taratibu,madeni,NA,NA,NA,"c(""distractor1"", ""distractor2"", ""distractor3"")",NA,NA,NA,NA,NA,NA,NA,NA,NA,NA,NA,NA,NA,NA,NA,NA,NA,NA,NA
32a83,Shallow Question,html.Page,2_14_0_0,NA,NA,form submission,2371.1170000477,181967.4000001,181965.246,181981.583,184352.70000005,184353.10000002,2023-09-29T16:37:22Z,184365.154,Konkurrent,mshindani,s,msemaji,mvutaji,kipukusa,mshindani,NA,NA,"c(""distractor1"", ""distractor2"", ""distractor3"")",NA,NA,NA,NA,NA,NA,NA,NA,NA,NA,NA,NA,NA,NA,NA,NA,NA,NA,NA
32a83,Save data screen,canvas.Screen,2_14_0_1,NA,NA,timeout,499.91699999999,184354,184348.19,184365.154,184848.401,184849.60000002,2023-09-29T16:37:22Z,184865.071,Konkurrent,mshindani,s,msemaji,mvutaji,kipukusa,NA,NA,1,"c(""distractor1"", ""distractor2"", ""distractor3"")",NA,NA,NA,NA,NA,NA,NA,NA,NA,NA,NA,NA,NA,NA,NA,NA,NA,NA,NA
32a83,shallow,flow.Sequence,2_14_0,NA,NA,completion,2866.818,181967.4000001,181965.246,181981.583,184848.401,184849.9000001,2023-09-29T16:37:22Z,184865.071,Konkurrent,mshindani,s,msemaji,mvutaji,kipukusa,NA,NA,NA,"c(""distractor1"", ""distractor2"", ""distractor3"")",NA,NA,NA,NA,NA,NA,NA,NA,NA,NA,NA,NA,NA,NA,NA,NA,NA,NA,NA
32a83,task,flow.Sequence,2_14,NA,NA,completion,2866.818,181967.30000007,181965.246,181981.583,184848.401,184850.10000002,2023-09-29T16:37:22Z,184865.071,Konkurrent,mshindani,s,msemaji,mvutaji,kipukusa,NA,NA,NA,"c(""distractor1"", ""distractor2"", ""distractor3"")",NA,NA,NA,NA,NA,NA,NA,NA,NA,NA,NA,NA,NA,NA,NA,NA,NA,NA,NA
32a83,Shallow Question,html.Page,2_15_0_0,NA,NA,form submission,8168.929,184850.20000005,184848.401,184865.071,193034,193034.4000001,2023-09-29T16:37:31Z,193048.355,Sympathie,mapendano,d,dhamiria,fungamano,maazimio,mapendano,NA,NA,"c(""distractor1"", ""distractor2"", ""distractor3"")",NA,NA,NA,NA,NA,NA,NA,NA,NA,NA,NA,NA,NA,NA,NA,NA,NA,NA,NA
32a83,Save data screen,canvas.Screen,2_15_0_1,NA,NA,timeout,499.68599999999,193037.60000002,193031.303,193048.355,193531.333,193532.30000007,2023-09-29T16:37:31Z,193548.041,Sympathie,mapendano,d,dhamiria,fungamano,maazimio,NA,NA,1,"c(""distractor1"", ""distractor2"", ""distractor3"")",NA,NA,NA,NA,NA,NA,NA,NA,NA,NA,NA,NA,NA,NA,NA,NA,NA,NA,NA
32a83,shallow,flow.Sequence,2_15_0,NA,NA,completion,8666.262,184850.20000005,184848.401,184865.071,193531.333,193532.5,2023-09-29T16:37:31Z,193548.041,Sympathie,mapendano,d,dhamiria,fungamano,maazimio,NA,NA,NA,"c(""distractor1"", ""distractor2"", ""distractor3"")",NA,NA,NA,NA,NA,NA,NA,NA,NA,NA,NA,NA,NA,NA,NA,NA,NA,NA,NA
32a83,task,flow.Sequence,2_15,NA,NA,completion,8666.262,184850.20000005,184848.401,184865.071,193531.333,193532.70000005,2023-09-29T16:37:31Z,193548.041,Sympathie,mapendano,d,dhamiria,fungamano,maazimio,NA,NA,NA,"c(""distractor1"", ""distractor2"", ""distractor3"")",NA,NA,NA,NA,NA,NA,NA,NA,NA,NA,NA,NA,NA,NA,NA,NA,NA,NA,NA
32a83,retrieval block 2 (multiple choice),flow.Loop,2,NA,NA,completion,91581.465,101934.70000005,101933.204,101949.868,193531.333,193532.9000001,2023-09-29T16:37:31Z,193548.041,NA,NA,NA,NA,NA,NA,NA,NA,NA,"c(""distractor1"", ""distractor2"", ""distractor3"")",NA,NA,NA,NA,NA,NA,NA,NA,NA,NA,NA,NA,NA,NA,NA,NA,NA,NA,NA
32a83,End,canvas.Screen,3,NA,keypress(Space),response,2291.959,193533,193531.333,193548.041,195840,195842.30000007,2023-09-29T16:37:33Z,195847.889,NA,NA,NA,NA,NA,NA,NA,NA,NA,NULL,NA,NA,NA,NA,NA,NA,NA,NA,NA,NA,NA,NA,NA,NA,NA,NA,NA,NA,NA
32a83,root,flow.Sequence,NA,NA,NA,completion,192521.414,3281.1000000238,3285.435,3318.586,195840,195842.70000005,2023-09-29T16:37:33Z,195847.889,NA,NA,NA,NA,NA,NA,NA,NA,NA,NULL,NA,NA,NA,NA,NA,NA,NA,NA,NA,NA,NA,NA,NA,NA,NA,NA,NA,NA,NA
