observation,sender,sender_type,sender_id,response,response_action,ended_on,duration,time_run,time_render,time_show,time_end,time_commit,timestamp,time_switch,distractors,german,swahili,enc,distractor1,distractor2,distractor3,response_2,x,correct,x_2,url_vp,url_sess,meta_labjs_version,meta_location,meta_user_agent,meta_platform,meta_language,meta_locale,meta_time_zone,meta_timezone_offset,meta_screen_width,meta_screen_height,meta_scroll_width,meta_scroll_height,meta_window_inner_width,meta_window_inner_height,meta_device_pixel_ratio,meta_labjs_build_flavor,meta_labjs_build_commit
58588,Introduction general,canvas.Screen,0,weiter,keypress(q),response,30165.86,641,639.5,656.14,30822,30844,2023-09-01T11:28:52Z,30852.3,NULL,NA,NA,NA,NA,NA,NA,NA,NA,NA,NA,178,1,20.2.4,https://neurocog.fernuni.ch/studies/vweber/sliechti/encoding_immediate/index.html?vp=178&sess=1,Mozilla/5.0 (Windows NT 10.0; Win64; x64; rv:109.0) Gecko/20100101 Firefox/117.0,Win32,de,de-CH,Europe/Zurich,-120,1280,720,1280,587,1280,587,1.5,production,f5b4a49f956347addd546a832a3327688c2c0fef
58588,Introduction practice,canvas.Screen,1_0,NA,keypress(Space),response,9672.7,30847,30846.7,30852.3,40525,40537,2023-09-01T11:29:02Z,40551.12,NULL,NA,NA,NA,NA,NA,NA,NA,NA,NA,NA,NA,NA,NA,NA,NA,NA,NA,NA,NA,NA,NA,NA,NA,NA,NA,NA,NA,NA,NA
58588,deep,flow.Sequence,1_1_0_0,NA,NA,skipped,NA,40538,NA,NA,40525,40539,2023-09-01T11:29:02Z,40551.12,"c(""distractor1"", ""distractor2"", ""distractor3"")",Rückhalt,msaada,s,muhula,auwali,kiwimbe,NA,NA,NA,NA,NA,NA,NA,NA,NA,NA,NA,NA,NA,NA,NA,NA,NA,NA,NA,NA,NA,NA,NA
58588,Shallow Question,html.Page,1_1_0_1_0,NA,NA,form submission,5925.88,40539,40539.12,40551.12,46477,46478,2023-09-01T11:29:08Z,46483.58,"c(""distractor1"", ""distractor2"", ""distractor3"")",Rückhalt,msaada,s,muhula,auwali,kiwimbe,auwali,NA,NA,NA,NA,NA,NA,NA,NA,NA,NA,NA,NA,NA,NA,NA,NA,NA,NA,NA,NA,NA,NA
58588,"""Richtig""-Screen",canvas.Screen,1_1_0_1_1,NA,NA,skipped,NA,46484,NA,NA,46477,46484,2023-09-01T11:29:08Z,46483.58,"c(""distractor1"", ""distractor2"", ""distractor3"")",Rückhalt,msaada,s,muhula,auwali,kiwimbe,NA,NA,NA,NA,NA,NA,NA,NA,NA,NA,NA,NA,NA,NA,NA,NA,NA,NA,NA,NA,NA,NA,NA
58588,"""Falsch""-Screen",canvas.Screen,1_1_0_1_2,NA,NA,timeout,4999.4,46486,46447.64,46483.58,51466.32,51468,2023-09-01T11:29:13Z,51482.98,"c(""distractor1"", ""distractor2"", ""distractor3"")",Rückhalt,msaada,s,muhula,auwali,kiwimbe,NA,NA,0,NA,NA,NA,NA,NA,NA,NA,NA,NA,NA,NA,NA,NA,NA,NA,NA,NA,NA,NA,NA
58588,shallow,flow.Sequence,1_1_0_1,NA,NA,completion,10915.2,40539,40539.12,40551.12,51466.32,51468,2023-09-01T11:29:13Z,51482.98,"c(""distractor1"", ""distractor2"", ""distractor3"")",Rückhalt,msaada,s,muhula,auwali,kiwimbe,NA,NA,NA,NA,NA,NA,NA,NA,NA,NA,NA,NA,NA,NA,NA,NA,NA,NA,NA,NA,NA,NA,NA
58588,task,flow.Sequence,1_1_0,NA,NA,completion,10915.2,40538,40539.12,40551.12,51466.32,51469,2023-09-01T11:29:13Z,51482.98,"c(""distractor1"", ""distractor2"", ""distractor3"")",Rückhalt,msaada,s,muhula,auwali,kiwimbe,NA,NA,NA,NA,NA,NA,NA,NA,NA,NA,NA,NA,NA,NA,NA,NA,NA,NA,NA,NA,NA,NA,NA
58588,Deep Question,html.Page,1_1_1_0_0,NA,NA,form submission,6973.02,51469,51466.32,51482.98,58456,58456,2023-09-01T11:29:20Z,58465.38,"c(""distractor1"", ""distractor2"", ""distractor3"")",Schatten,kivuli,d,NA,NA,NA,malassa,NA,NA,NA,NA,NA,NA,NA,NA,NA,NA,NA,NA,NA,NA,NA,NA,NA,NA,NA,NA,NA,NA
58588,"""Richtig""-Screen",canvas.Screen,1_1_1_0_1,NA,NA,skipped,NA,58458,NA,NA,58456,58458,2023-09-01T11:29:20Z,58465.38,"c(""distractor1"", ""distractor2"", ""distractor3"")",Schatten,kivuli,d,NA,NA,NA,NA,NA,NA,NA,NA,NA,NA,NA,NA,NA,NA,NA,NA,NA,NA,NA,NA,NA,NA,NA,NA,NA,NA
58588,"""Falsch""-Screen",canvas.Screen,1_1_1_0_2,NA,NA,timeout,4999.38,58460,58453.88,58465.38,63448.1,63450,2023-09-01T11:29:25Z,63464.76,"c(""distractor1"", ""distractor2"", ""distractor3"")",Schatten,kivuli,d,NA,NA,NA,NA,NA,0,NA,NA,NA,NA,NA,NA,NA,NA,NA,NA,NA,NA,NA,NA,NA,NA,NA,NA,NA,NA
58588,deep,flow.Sequence,1_1_1_0,NA,NA,completion,11965.12,51469,51466.32,51482.98,63448.1,63452,2023-09-01T11:29:25Z,63464.76,"c(""distractor1"", ""distractor2"", ""distractor3"")",Schatten,kivuli,d,NA,NA,NA,NA,NA,NA,NA,NA,NA,NA,NA,NA,NA,NA,NA,NA,NA,NA,NA,NA,NA,NA,NA,NA,NA,NA
58588,shallow,flow.Sequence,1_1_1_1,NA,NA,skipped,NA,63452,NA,NA,63448.1,63453,2023-09-01T11:29:25Z,63464.76,"c(""distractor1"", ""distractor2"", ""distractor3"")",Schatten,kivuli,d,NA,NA,NA,NA,NA,NA,NA,NA,NA,NA,NA,NA,NA,NA,NA,NA,NA,NA,NA,NA,NA,NA,NA,NA,NA,NA
58588,task,flow.Sequence,1_1_1,NA,NA,completion,11965.12,51469,51466.32,51482.98,63448.1,63453,2023-09-01T11:29:25Z,63464.76,"c(""distractor1"", ""distractor2"", ""distractor3"")",Schatten,kivuli,d,NA,NA,NA,NA,NA,NA,NA,NA,NA,NA,NA,NA,NA,NA,NA,NA,NA,NA,NA,NA,NA,NA,NA,NA,NA,NA
58588,Deep Question,html.Page,1_1_2_0_0,NA,NA,form submission,5593.24,63453,63448.1,63464.76,69058,69059,2023-09-01T11:29:30Z,69063.98,"c(""distractor1"", ""distractor2"", ""distractor3"")",Gesundheit,salama,d,NA,NA,NA,salata,NA,NA,NA,NA,NA,NA,NA,NA,NA,NA,NA,NA,NA,NA,NA,NA,NA,NA,NA,NA,NA,NA
58588,"""Richtig""-Screen",canvas.Screen,1_1_2_0_1,NA,NA,skipped,NA,69062,NA,NA,69058,69062,2023-09-01T11:29:30Z,69063.98,"c(""distractor1"", ""distractor2"", ""distractor3"")",Gesundheit,salama,d,NA,NA,NA,NA,NA,NA,NA,NA,NA,NA,NA,NA,NA,NA,NA,NA,NA,NA,NA,NA,NA,NA,NA,NA,NA,NA
58588,"""Falsch""-Screen",canvas.Screen,1_1_2_0_2,NA,NA,timeout,4999.36,69065,69055.14,69063.98,74046.76,74053,2023-09-01T11:29:35Z,74063.34,"c(""distractor1"", ""distractor2"", ""distractor3"")",Gesundheit,salama,d,NA,NA,NA,NA,NA,0,NA,NA,NA,NA,NA,NA,NA,NA,NA,NA,NA,NA,NA,NA,NA,NA,NA,NA,NA,NA
58588,deep,flow.Sequence,1_1_2_0,NA,NA,completion,10582,63453,63448.1,63464.76,74046.76,74054,2023-09-01T11:29:35Z,74063.34,"c(""distractor1"", ""distractor2"", ""distractor3"")",Gesundheit,salama,d,NA,NA,NA,NA,NA,NA,NA,NA,NA,NA,NA,NA,NA,NA,NA,NA,NA,NA,NA,NA,NA,NA,NA,NA,NA,NA
58588,shallow,flow.Sequence,1_1_2_1,NA,NA,skipped,NA,74055,NA,NA,74046.76,74055,2023-09-01T11:29:35Z,74063.34,"c(""distractor1"", ""distractor2"", ""distractor3"")",Gesundheit,salama,d,NA,NA,NA,NA,NA,NA,NA,NA,NA,NA,NA,NA,NA,NA,NA,NA,NA,NA,NA,NA,NA,NA,NA,NA,NA,NA
58588,task,flow.Sequence,1_1_2,NA,NA,completion,10582,63453,63448.1,63464.76,74046.76,74056,2023-09-01T11:29:35Z,74063.34,"c(""distractor1"", ""distractor2"", ""distractor3"")",Gesundheit,salama,d,NA,NA,NA,NA,NA,NA,NA,NA,NA,NA,NA,NA,NA,NA,NA,NA,NA,NA,NA,NA,NA,NA,NA,NA,NA,NA
58588,deep,flow.Sequence,1_1_3_0,NA,NA,skipped,NA,74057,NA,NA,74046.76,74057,2023-09-01T11:29:35Z,74063.34,"c(""distractor1"", ""distractor2"", ""distractor3"")",Kritik,lawama,s,dereva,nafasi,mawazo,NA,NA,NA,NA,NA,NA,NA,NA,NA,NA,NA,NA,NA,NA,NA,NA,NA,NA,NA,NA,NA,NA,NA
58588,Shallow Question,html.Page,1_1_3_1_0,NA,NA,form submission,4510.66,74057,74046.76,74063.34,78574,78575,2023-09-01T11:29:40Z,78579.48,"c(""distractor1"", ""distractor2"", ""distractor3"")",Kritik,lawama,s,dereva,nafasi,mawazo,mawazo,NA,NA,NA,NA,NA,NA,NA,NA,NA,NA,NA,NA,NA,NA,NA,NA,NA,NA,NA,NA,NA,NA
58588,"""Richtig""-Screen",canvas.Screen,1_1_3_1_1,NA,NA,skipped,NA,78585,NA,NA,78574,78585,2023-09-01T11:29:40Z,78579.48,"c(""distractor1"", ""distractor2"", ""distractor3"")",Kritik,lawama,s,dereva,nafasi,mawazo,NA,NA,NA,NA,NA,NA,NA,NA,NA,NA,NA,NA,NA,NA,NA,NA,NA,NA,NA,NA,NA,NA,NA
58588,"""Falsch""-Screen",canvas.Screen,1_1_3_1_2,NA,NA,timeout,4999.34,78587,78563.16,78579.48,83562.2,83564,2023-09-01T11:29:45Z,83578.82,"c(""distractor1"", ""distractor2"", ""distractor3"")",Kritik,lawama,s,dereva,nafasi,mawazo,NA,NA,0,NA,NA,NA,NA,NA,NA,NA,NA,NA,NA,NA,NA,NA,NA,NA,NA,NA,NA,NA,NA
58588,shallow,flow.Sequence,1_1_3_1,NA,NA,completion,9498.86,74057,74046.76,74063.34,83562.2,83565,2023-09-01T11:29:45Z,83578.82,"c(""distractor1"", ""distractor2"", ""distractor3"")",Kritik,lawama,s,dereva,nafasi,mawazo,NA,NA,NA,NA,NA,NA,NA,NA,NA,NA,NA,NA,NA,NA,NA,NA,NA,NA,NA,NA,NA,NA,NA
58588,task,flow.Sequence,1_1_3,NA,NA,completion,9498.86,74056,74046.76,74063.34,83562.2,83565,2023-09-01T11:29:45Z,83578.82,"c(""distractor1"", ""distractor2"", ""distractor3"")",Kritik,lawama,s,dereva,nafasi,mawazo,NA,NA,NA,NA,NA,NA,NA,NA,NA,NA,NA,NA,NA,NA,NA,NA,NA,NA,NA,NA,NA,NA,NA
58588,Deep Question,html.Page,1_1_4_0_0,NA,NA,form submission,5201.18,83566,83562.2,83578.82,88780,88780,2023-09-01T11:29:50Z,88778.16,"c(""distractor1"", ""distractor2"", ""distractor3"")",Qualität,mtindo,d,NA,NA,NA,zafiiri,NA,NA,NA,NA,NA,NA,NA,NA,NA,NA,NA,NA,NA,NA,NA,NA,NA,NA,NA,NA,NA,NA
58588,"""Richtig""-Screen",canvas.Screen,1_1_4_0_1,NA,NA,skipped,NA,88784,NA,NA,88780,88784,2023-09-01T11:29:50Z,88778.16,"c(""distractor1"", ""distractor2"", ""distractor3"")",Qualität,mtindo,d,NA,NA,NA,NA,NA,NA,NA,NA,NA,NA,NA,NA,NA,NA,NA,NA,NA,NA,NA,NA,NA,NA,NA,NA,NA,NA
58588,"""Falsch""-Screen",canvas.Screen,1_1_4_0_2,NA,NA,timeout,4999.42,88788,88776.74,88778.16,93760.92,93762,2023-09-01T11:29:55Z,93777.58,"c(""distractor1"", ""distractor2"", ""distractor3"")",Qualität,mtindo,d,NA,NA,NA,NA,NA,0,NA,NA,NA,NA,NA,NA,NA,NA,NA,NA,NA,NA,NA,NA,NA,NA,NA,NA,NA,NA
58588,deep,flow.Sequence,1_1_4_0,NA,NA,completion,10182.1,83566,83562.2,83578.82,93760.92,93764,2023-09-01T11:29:55Z,93777.58,"c(""distractor1"", ""distractor2"", ""distractor3"")",Qualität,mtindo,d,NA,NA,NA,NA,NA,NA,NA,NA,NA,NA,NA,NA,NA,NA,NA,NA,NA,NA,NA,NA,NA,NA,NA,NA,NA,NA
58588,shallow,flow.Sequence,1_1_4_1,NA,NA,skipped,NA,93764,NA,NA,93760.92,93765,2023-09-01T11:29:55Z,93777.58,"c(""distractor1"", ""distractor2"", ""distractor3"")",Qualität,mtindo,d,NA,NA,NA,NA,NA,NA,NA,NA,NA,NA,NA,NA,NA,NA,NA,NA,NA,NA,NA,NA,NA,NA,NA,NA,NA,NA
58588,task,flow.Sequence,1_1_4,NA,NA,completion,10182.1,83566,83562.2,83578.82,93760.92,93765,2023-09-01T11:29:55Z,93777.58,"c(""distractor1"", ""distractor2"", ""distractor3"")",Qualität,mtindo,d,NA,NA,NA,NA,NA,NA,NA,NA,NA,NA,NA,NA,NA,NA,NA,NA,NA,NA,NA,NA,NA,NA,NA,NA,NA,NA
58588,deep,flow.Sequence,1_1_5_0,NA,NA,skipped,NA,93766,NA,NA,93760.92,93766,2023-09-01T11:29:55Z,93777.58,"c(""distractor1"", ""distractor2"", ""distractor3"")",Gegenwart,hadhara,s,katiba,jokofu,mikopo,NA,NA,NA,NA,NA,NA,NA,NA,NA,NA,NA,NA,NA,NA,NA,NA,NA,NA,NA,NA,NA,NA,NA
58588,Shallow Question,html.Page,1_1_5_1_0,NA,NA,form submission,3515.42,93766,93760.92,93777.58,97293,97294,2023-09-01T11:29:58Z,97293.68,"c(""distractor1"", ""distractor2"", ""distractor3"")",Gegenwart,hadhara,s,katiba,jokofu,mikopo,katiba,NA,NA,NA,NA,NA,NA,NA,NA,NA,NA,NA,NA,NA,NA,NA,NA,NA,NA,NA,NA,NA,NA
58588,"""Richtig""-Screen",canvas.Screen,1_1_5_1_1,NA,NA,skipped,NA,97297,NA,NA,97293,97298,2023-09-01T11:29:58Z,97293.68,"c(""distractor1"", ""distractor2"", ""distractor3"")",Gegenwart,hadhara,s,katiba,jokofu,mikopo,NA,NA,NA,NA,NA,NA,NA,NA,NA,NA,NA,NA,NA,NA,NA,NA,NA,NA,NA,NA,NA,NA,NA
58588,"""Falsch""-Screen",canvas.Screen,1_1_5_1_2,NA,NA,timeout,4999.42,97301,97288.72,97293.68,102276.46,102278,2023-09-01T11:30:03Z,102293.1,"c(""distractor1"", ""distractor2"", ""distractor3"")",Gegenwart,hadhara,s,katiba,jokofu,mikopo,NA,NA,0,NA,NA,NA,NA,NA,NA,NA,NA,NA,NA,NA,NA,NA,NA,NA,NA,NA,NA,NA,NA
58588,shallow,flow.Sequence,1_1_5_1,NA,NA,completion,8498.88,93766,93760.92,93777.58,102276.46,102279,2023-09-01T11:30:03Z,102293.1,"c(""distractor1"", ""distractor2"", ""distractor3"")",Gegenwart,hadhara,s,katiba,jokofu,mikopo,NA,NA,NA,NA,NA,NA,NA,NA,NA,NA,NA,NA,NA,NA,NA,NA,NA,NA,NA,NA,NA,NA,NA
58588,task,flow.Sequence,1_1_5,NA,NA,completion,8498.88,93766,93760.92,93777.58,102276.46,102280,2023-09-01T11:30:03Z,102293.1,"c(""distractor1"", ""distractor2"", ""distractor3"")",Gegenwart,hadhara,s,katiba,jokofu,mikopo,NA,NA,NA,NA,NA,NA,NA,NA,NA,NA,NA,NA,NA,NA,NA,NA,NA,NA,NA,NA,NA,NA,NA
58588,block,flow.Loop,1_1,NA,NA,completion,61725.34,40538,40539.12,40551.12,102276.46,102281,2023-09-01T11:30:03Z,102293.1,"c(""distractor1"", ""distractor2"", ""distractor3"")",NA,NA,NA,NA,NA,NA,NA,NA,NA,NA,NA,NA,NA,NA,NA,NA,NA,NA,NA,NA,NA,NA,NA,NA,NA,NA,NA,NA,NA
58588,Practice,flow.Sequence,1,NA,NA,completion,71424.16,30846,30846.7,30852.3,102276.46,102281,2023-09-01T11:30:03Z,102293.1,NULL,NA,NA,NA,NA,NA,NA,NA,NA,NA,NA,NA,NA,NA,NA,NA,NA,NA,NA,NA,NA,NA,NA,NA,NA,NA,NA,NA,NA,NA
58588,Experiment start,canvas.Screen,2,weiter,keypress(q),response,131450.9,102281,102276.46,102293.1,233744,233749,2023-09-01T11:32:15Z,233836.56,NULL,NA,NA,NA,NA,NA,NA,NA,NA,NA,NA,NA,NA,NA,NA,NA,NA,NA,NA,NA,NA,NA,NA,NA,NA,NA,NA,NA,NA,NA
58588,deep,flow.Sequence,3_0_0_0_0_0,NA,NA,skipped,NA,233836,NA,NA,233744,233836,2023-09-01T11:32:15Z,233836.56,NULL,Respekt,heshima,s,changamnao,upinzani,ufanisi,NA,sdf,NA,0,NA,NA,NA,NA,NA,NA,NA,NA,NA,NA,NA,NA,NA,NA,NA,NA,NA,NA,NA
58588,Shallow Question,html.Page,3_0_0_0_0_1_0,NA,NA,form submission,5904.44,233836,233836.18,233836.56,239741,239741,2023-09-01T11:32:21Z,239742.02,NULL,Respekt,heshima,s,changamnao,upinzani,ufanisi,heshima,NA,NA,0,NA,NA,NA,NA,NA,NA,NA,NA,NA,NA,NA,NA,NA,NA,NA,NA,NA,NA,NA
58588,"""Richtig""-Screen",canvas.Screen,3_0_0_0_0_1_1,NA,NA,timeout,4999.36,239747,239735.72,239742.02,244724.72,244726,2023-09-01T11:32:26Z,244741.38,NULL,Respekt,heshima,s,changamnao,upinzani,ufanisi,NA,sdf,1,0,NA,NA,NA,NA,NA,NA,NA,NA,NA,NA,NA,NA,NA,NA,NA,NA,NA,NA,NA
58588,"""Falsch""-Screen",canvas.Screen,3_0_0_0_0_1_2,NA,NA,skipped,NA,244732,NA,NA,244724.72,244733,2023-09-01T11:32:26Z,244741.38,NULL,Respekt,heshima,s,changamnao,upinzani,ufanisi,NA,sdf,NA,0,NA,NA,NA,NA,NA,NA,NA,NA,NA,NA,NA,NA,NA,NA,NA,NA,NA,NA,NA
58588,shallow,flow.Sequence,3_0_0_0_0_1,NA,NA,completion,10888.16,233836,233836.18,233836.56,244724.72,244733,2023-09-01T11:32:26Z,244741.38,NULL,Respekt,heshima,s,changamnao,upinzani,ufanisi,NA,sdf,NA,0,NA,NA,NA,NA,NA,NA,NA,NA,NA,NA,NA,NA,NA,NA,NA,NA,NA,NA,NA
58588,task,flow.Sequence,3_0_0_0_0,NA,NA,completion,10888.16,233835,233836.18,233836.56,244724.72,244734,2023-09-01T11:32:26Z,244741.38,NULL,Respekt,heshima,s,changamnao,upinzani,ufanisi,NA,sdf,NA,0,NA,NA,NA,NA,NA,NA,NA,NA,NA,NA,NA,NA,NA,NA,NA,NA,NA,NA,NA
58588,deep,flow.Sequence,3_0_0_0_1_0,NA,NA,skipped,NA,244734,NA,NA,244724.72,244735,2023-09-01T11:32:26Z,244741.38,NULL,Können,unaweza,s,kiongozi,bustani,mienendo,NA,sdf,NA,0,NA,NA,NA,NA,NA,NA,NA,NA,NA,NA,NA,NA,NA,NA,NA,NA,NA,NA,NA
58588,Shallow Question,html.Page,3_0_0_0_1_1_0,NA,NA,form submission,4438.62,244735,244724.72,244741.38,249180,249180,2023-09-01T11:32:30Z,249190.78,NULL,Können,unaweza,s,kiongozi,bustani,mienendo,mienendo,NA,NA,0,NA,NA,NA,NA,NA,NA,NA,NA,NA,NA,NA,NA,NA,NA,NA,NA,NA,NA,NA
58588,"""Richtig""-Screen",canvas.Screen,3_0_0_0_1_1_1,NA,NA,skipped,NA,249184,NA,NA,249180,249184,2023-09-01T11:32:30Z,249190.78,NULL,Können,unaweza,s,kiongozi,bustani,mienendo,NA,sdf,NA,0,NA,NA,NA,NA,NA,NA,NA,NA,NA,NA,NA,NA,NA,NA,NA,NA,NA,NA,NA
58588,"""Falsch""-Screen",canvas.Screen,3_0_0_0_1_1_2,NA,NA,timeout,4999.38,249187,249176.32,249190.78,254173.5,254175,2023-09-01T11:32:35Z,254190.16,NULL,Können,unaweza,s,kiongozi,bustani,mienendo,NA,sdf,0,0,NA,NA,NA,NA,NA,NA,NA,NA,NA,NA,NA,NA,NA,NA,NA,NA,NA,NA,NA
58588,shallow,flow.Sequence,3_0_0_0_1_1,NA,NA,completion,9432.12,244735,244724.72,244741.38,254173.5,254176,2023-09-01T11:32:35Z,254190.16,NULL,Können,unaweza,s,kiongozi,bustani,mienendo,NA,sdf,NA,0,NA,NA,NA,NA,NA,NA,NA,NA,NA,NA,NA,NA,NA,NA,NA,NA,NA,NA,NA
58588,task,flow.Sequence,3_0_0_0_1,NA,NA,completion,9432.12,244734,244724.72,244741.38,254173.5,254176,2023-09-01T11:32:35Z,254190.16,NULL,Können,unaweza,s,kiongozi,bustani,mienendo,NA,sdf,NA,0,NA,NA,NA,NA,NA,NA,NA,NA,NA,NA,NA,NA,NA,NA,NA,NA,NA,NA,NA
58588,deep,flow.Sequence,3_0_0_0_2_0,NA,NA,skipped,NA,254177,NA,NA,254173.5,254177,2023-09-01T11:32:35Z,254190.16,NULL,Kreativität,ubunifu,s,mratibu,mwendelezo,makubaliano,NA,sdf,NA,0,NA,NA,NA,NA,NA,NA,NA,NA,NA,NA,NA,NA,NA,NA,NA,NA,NA,NA,NA
58588,Shallow Question,html.Page,3_0_0_0_2_1_0,NA,NA,form submission,3841.84,254177,254173.5,254190.16,258032,258032,2023-09-01T11:32:39Z,258039.36,NULL,Kreativität,ubunifu,s,mratibu,mwendelezo,makubaliano,makubaliano,NA,NA,0,NA,NA,NA,NA,NA,NA,NA,NA,NA,NA,NA,NA,NA,NA,NA,NA,NA,NA,NA
58588,"""Richtig""-Screen",canvas.Screen,3_0_0_0_2_1_1,NA,NA,skipped,NA,258035,NA,NA,258032,258035,2023-09-01T11:32:39Z,258039.36,NULL,Kreativität,ubunifu,s,mratibu,mwendelezo,makubaliano,NA,sdf,NA,0,NA,NA,NA,NA,NA,NA,NA,NA,NA,NA,NA,NA,NA,NA,NA,NA,NA,NA,NA
58588,"""Falsch""-Screen",canvas.Screen,3_0_0_0_2_1_2,NA,NA,timeout,4999.6,258038,258029.84,258039.36,263022.38,263023,2023-09-01T11:32:44Z,263038.96,NULL,Kreativität,ubunifu,s,mratibu,mwendelezo,makubaliano,NA,sdf,0,0,NA,NA,NA,NA,NA,NA,NA,NA,NA,NA,NA,NA,NA,NA,NA,NA,NA,NA,NA
58588,shallow,flow.Sequence,3_0_0_0_2_1,NA,NA,completion,8832.22,254177,254173.5,254190.16,263022.38,263024,2023-09-01T11:32:44Z,263038.96,NULL,Kreativität,ubunifu,s,mratibu,mwendelezo,makubaliano,NA,sdf,NA,0,NA,NA,NA,NA,NA,NA,NA,NA,NA,NA,NA,NA,NA,NA,NA,NA,NA,NA,NA
58588,task,flow.Sequence,3_0_0_0_2,NA,NA,completion,8832.22,254177,254173.5,254190.16,263022.38,263024,2023-09-01T11:32:44Z,263038.96,NULL,Kreativität,ubunifu,s,mratibu,mwendelezo,makubaliano,NA,sdf,NA,0,NA,NA,NA,NA,NA,NA,NA,NA,NA,NA,NA,NA,NA,NA,NA,NA,NA,NA,NA
58588,Deep Question,html.Page,3_0_0_0_3_0_0,NA,NA,form submission,3933.04,263024,263022.38,263038.96,266972,266973,2023-09-01T11:32:48Z,266971.84,NULL,Gefährdung,kuhatarisha,d,NA,NA,NA,salama,NA,NA,0,NA,NA,NA,NA,NA,NA,NA,NA,NA,NA,NA,NA,NA,NA,NA,NA,NA,NA,NA
58588,"""Richtig""-Screen",canvas.Screen,3_0_0_0_3_0_1,NA,NA,skipped,NA,266975,NA,NA,266972,266975,2023-09-01T11:32:48Z,266971.84,NULL,Gefährdung,kuhatarisha,d,NA,NA,NA,NA,sdf,NA,0,NA,NA,NA,NA,NA,NA,NA,NA,NA,NA,NA,NA,NA,NA,NA,NA,NA,NA,NA
58588,"""Falsch""-Screen",canvas.Screen,3_0_0_0_3_0_2,NA,NA,timeout,4999.28,266978,266971.42,266971.84,271954.5,271960,2023-09-01T11:32:53Z,271971.12,NULL,Gefährdung,kuhatarisha,d,NA,NA,NA,NA,sdf,0,0,NA,NA,NA,NA,NA,NA,NA,NA,NA,NA,NA,NA,NA,NA,NA,NA,NA,NA,NA
58588,deep,flow.Sequence,3_0_0_0_3_0,NA,NA,completion,8915.54,263024,263022.38,263038.96,271954.5,271961,2023-09-01T11:32:53Z,271971.12,NULL,Gefährdung,kuhatarisha,d,NA,NA,NA,NA,sdf,NA,0,NA,NA,NA,NA,NA,NA,NA,NA,NA,NA,NA,NA,NA,NA,NA,NA,NA,NA,NA
58588,shallow,flow.Sequence,3_0_0_0_3_1,NA,NA,skipped,NA,271961,NA,NA,271954.5,271961,2023-09-01T11:32:53Z,271971.12,NULL,Gefährdung,kuhatarisha,d,NA,NA,NA,NA,sdf,NA,0,NA,NA,NA,NA,NA,NA,NA,NA,NA,NA,NA,NA,NA,NA,NA,NA,NA,NA,NA
58588,task,flow.Sequence,3_0_0_0_3,NA,NA,completion,8915.54,263024,263022.38,263038.96,271954.5,271963,2023-09-01T11:32:53Z,271971.12,NULL,Gefährdung,kuhatarisha,d,NA,NA,NA,NA,sdf,NA,0,NA,NA,NA,NA,NA,NA,NA,NA,NA,NA,NA,NA,NA,NA,NA,NA,NA,NA,NA
58588,deep,flow.Sequence,3_0_0_0_4_0,NA,NA,skipped,NA,271963,NA,NA,271954.5,271963,2023-09-01T11:32:53Z,271971.12,NULL,Orientierung,urekebisho,s,uelekeo,marekebisho,utunzaji,NA,sdf,NA,0,NA,NA,NA,NA,NA,NA,NA,NA,NA,NA,NA,NA,NA,NA,NA,NA,NA,NA,NA
58588,Shallow Question,html.Page,3_0_0_0_4_1_0,NA,NA,form submission,3544.88,271963,271954.5,271971.12,275516,275516,2023-09-01T11:32:57Z,275520.36,NULL,Orientierung,urekebisho,s,uelekeo,marekebisho,utunzaji,uelekeo,NA,NA,0,NA,NA,NA,NA,NA,NA,NA,NA,NA,NA,NA,NA,NA,NA,NA,NA,NA,NA,NA
58588,"""Richtig""-Screen",canvas.Screen,3_0_0_0_4_1_1,NA,NA,skipped,NA,275519,NA,NA,275516,275520,2023-09-01T11:32:57Z,275520.36,NULL,Orientierung,urekebisho,s,uelekeo,marekebisho,utunzaji,NA,sdf,NA,0,NA,NA,NA,NA,NA,NA,NA,NA,NA,NA,NA,NA,NA,NA,NA,NA,NA,NA,NA
58588,"""Falsch""-Screen",canvas.Screen,3_0_0_0_4_1_2,NA,NA,timeout,4999.72,275521,275514.04,275520.36,280503.52,280505,2023-09-01T11:33:02Z,280520.08,NULL,Orientierung,urekebisho,s,uelekeo,marekebisho,utunzaji,NA,sdf,0,0,NA,NA,NA,NA,NA,NA,NA,NA,NA,NA,NA,NA,NA,NA,NA,NA,NA,NA,NA
58588,shallow,flow.Sequence,3_0_0_0_4_1,NA,NA,completion,8532.4,271963,271954.5,271971.12,280503.52,280505,2023-09-01T11:33:02Z,280520.08,NULL,Orientierung,urekebisho,s,uelekeo,marekebisho,utunzaji,NA,sdf,NA,0,NA,NA,NA,NA,NA,NA,NA,NA,NA,NA,NA,NA,NA,NA,NA,NA,NA,NA,NA
58588,task,flow.Sequence,3_0_0_0_4,NA,NA,completion,8532.4,271963,271954.5,271971.12,280503.52,280506,2023-09-01T11:33:02Z,280520.08,NULL,Orientierung,urekebisho,s,uelekeo,marekebisho,utunzaji,NA,sdf,NA,0,NA,NA,NA,NA,NA,NA,NA,NA,NA,NA,NA,NA,NA,NA,NA,NA,NA,NA,NA
58588,Deep Question,html.Page,3_0_0_0_5_0_0,NA,NA,form submission,5047.92,280506,280503.52,280520.08,285568,285570,2023-09-01T11:33:07Z,285568.9,NULL,Betrüger,mdanganyifu,d,NA,NA,NA,salata,NA,NA,0,NA,NA,NA,NA,NA,NA,NA,NA,NA,NA,NA,NA,NA,NA,NA,NA,NA,NA,NA
58588,"""Richtig""-Screen",canvas.Screen,3_0_0_0_5_0_1,NA,NA,skipped,NA,285576,NA,NA,285568,285576,2023-09-01T11:33:07Z,285568.9,NULL,Betrüger,mdanganyifu,d,NA,NA,NA,NA,sdf,NA,0,NA,NA,NA,NA,NA,NA,NA,NA,NA,NA,NA,NA,NA,NA,NA,NA,NA,NA,NA
58588,"""Falsch""-Screen",canvas.Screen,3_0_0_0_5_0_2,NA,NA,timeout,4999.84,285581,285561.94,285568.9,290552.14,290553,2023-09-01T11:33:12Z,290568.74,NULL,Betrüger,mdanganyifu,d,NA,NA,NA,NA,sdf,0,0,NA,NA,NA,NA,NA,NA,NA,NA,NA,NA,NA,NA,NA,NA,NA,NA,NA,NA,NA
58588,deep,flow.Sequence,3_0_0_0_5_0,NA,NA,completion,10032.06,280506,280503.52,280520.08,290552.14,290553,2023-09-01T11:33:12Z,290568.74,NULL,Betrüger,mdanganyifu,d,NA,NA,NA,NA,sdf,NA,0,NA,NA,NA,NA,NA,NA,NA,NA,NA,NA,NA,NA,NA,NA,NA,NA,NA,NA,NA
58588,shallow,flow.Sequence,3_0_0_0_5_1,NA,NA,skipped,NA,290553,NA,NA,290552.14,290554,2023-09-01T11:33:12Z,290568.74,NULL,Betrüger,mdanganyifu,d,NA,NA,NA,NA,sdf,NA,0,NA,NA,NA,NA,NA,NA,NA,NA,NA,NA,NA,NA,NA,NA,NA,NA,NA,NA,NA
58588,task,flow.Sequence,3_0_0_0_5,NA,NA,completion,10032.06,280506,280503.52,280520.08,290552.14,290554,2023-09-01T11:33:12Z,290568.74,NULL,Betrüger,mdanganyifu,d,NA,NA,NA,NA,sdf,NA,0,NA,NA,NA,NA,NA,NA,NA,NA,NA,NA,NA,NA,NA,NA,NA,NA,NA,NA,NA
58588,Deep Question,html.Page,3_0_0_0_6_0_0,NA,NA,form submission,5062.26,290554,290552.14,290568.74,295631,295632,2023-09-01T11:33:17Z,295634.32,NULL,Kontrolle,kudhibiti,d,NA,NA,NA,mdanganyfu,NA,NA,0,NA,NA,NA,NA,NA,NA,NA,NA,NA,NA,NA,NA,NA,NA,NA,NA,NA,NA,NA
58588,"""Richtig""-Screen",canvas.Screen,3_0_0_0_6_0_1,NA,NA,skipped,NA,295634,NA,NA,295631,295634,2023-09-01T11:33:17Z,295634.32,NULL,Kontrolle,kudhibiti,d,NA,NA,NA,NA,sdf,NA,0,NA,NA,NA,NA,NA,NA,NA,NA,NA,NA,NA,NA,NA,NA,NA,NA,NA,NA,NA
58588,"""Falsch""-Screen",canvas.Screen,3_0_0_0_6_0_2,NA,NA,timeout,4999.9,295638,295629.6,295634.32,300617.58,300619,2023-09-01T11:33:22Z,300634.22,NULL,Kontrolle,kudhibiti,d,NA,NA,NA,NA,sdf,0,0,NA,NA,NA,NA,NA,NA,NA,NA,NA,NA,NA,NA,NA,NA,NA,NA,NA,NA,NA
58588,deep,flow.Sequence,3_0_0_0_6_0,NA,NA,completion,10048.84,290554,290552.14,290568.74,300617.58,300620,2023-09-01T11:33:22Z,300634.22,NULL,Kontrolle,kudhibiti,d,NA,NA,NA,NA,sdf,NA,0,NA,NA,NA,NA,NA,NA,NA,NA,NA,NA,NA,NA,NA,NA,NA,NA,NA,NA,NA
58588,shallow,flow.Sequence,3_0_0_0_6_1,NA,NA,skipped,NA,300620,NA,NA,300617.58,300621,2023-09-01T11:33:22Z,300634.22,NULL,Kontrolle,kudhibiti,d,NA,NA,NA,NA,sdf,NA,0,NA,NA,NA,NA,NA,NA,NA,NA,NA,NA,NA,NA,NA,NA,NA,NA,NA,NA,NA
58588,task,flow.Sequence,3_0_0_0_6,NA,NA,completion,10048.84,290554,290552.14,290568.74,300617.58,300622,2023-09-01T11:33:22Z,300634.22,NULL,Kontrolle,kudhibiti,d,NA,NA,NA,NA,sdf,NA,0,NA,NA,NA,NA,NA,NA,NA,NA,NA,NA,NA,NA,NA,NA,NA,NA,NA,NA,NA
58588,Deep Question,html.Page,3_0_0_0_7_0_0,NA,NA,form submission,6617.78,300622,300617.58,300634.22,307252,307253,2023-09-01T11:33:28Z,307266.6,NULL,Stimmung,kinyongo,d,NA,NA,NA,zalaa,NA,NA,0,NA,NA,NA,NA,NA,NA,NA,NA,NA,NA,NA,NA,NA,NA,NA,NA,NA,NA,NA
58588,"""Richtig""-Screen",canvas.Screen,3_0_0_0_7_0_1,NA,NA,skipped,NA,307258,NA,NA,307252,307259,2023-09-01T11:33:28Z,307266.6,NULL,Stimmung,kinyongo,d,NA,NA,NA,NA,sdf,NA,0,NA,NA,NA,NA,NA,NA,NA,NA,NA,NA,NA,NA,NA,NA,NA,NA,NA,NA,NA
58588,"""Falsch""-Screen",canvas.Screen,3_0_0_0_7_0_2,NA,NA,timeout,4999.42,307265,307247.38,307266.6,312249.36,312251,2023-09-01T11:33:33Z,312266.02,NULL,Stimmung,kinyongo,d,NA,NA,NA,NA,sdf,0,0,NA,NA,NA,NA,NA,NA,NA,NA,NA,NA,NA,NA,NA,NA,NA,NA,NA,NA,NA
58588,deep,flow.Sequence,3_0_0_0_7_0,NA,NA,completion,11615.14,300622,300617.58,300634.22,312249.36,312251,2023-09-01T11:33:33Z,312266.02,NULL,Stimmung,kinyongo,d,NA,NA,NA,NA,sdf,NA,0,NA,NA,NA,NA,NA,NA,NA,NA,NA,NA,NA,NA,NA,NA,NA,NA,NA,NA,NA
58588,shallow,flow.Sequence,3_0_0_0_7_1,NA,NA,skipped,NA,312252,NA,NA,312249.36,312252,2023-09-01T11:33:33Z,312266.02,NULL,Stimmung,kinyongo,d,NA,NA,NA,NA,sdf,NA,0,NA,NA,NA,NA,NA,NA,NA,NA,NA,NA,NA,NA,NA,NA,NA,NA,NA,NA,NA
58588,task,flow.Sequence,3_0_0_0_7,NA,NA,completion,11615.14,300622,300617.58,300634.22,312249.36,312253,2023-09-01T11:33:33Z,312266.02,NULL,Stimmung,kinyongo,d,NA,NA,NA,NA,sdf,NA,0,NA,NA,NA,NA,NA,NA,NA,NA,NA,NA,NA,NA,NA,NA,NA,NA,NA,NA,NA
58588,block,flow.Loop,3_0_0_0,NA,NA,completion,78412.8,233835,233836.18,233836.56,312249.36,312253,2023-09-01T11:33:33Z,312266.02,NULL,NA,NA,NA,NA,NA,NA,NA,sdf,NA,0,NA,NA,NA,NA,NA,NA,NA,NA,NA,NA,NA,NA,NA,NA,NA,NA,NA,NA,NA
58588,weiter,canvas.Screen,3_0_0_1,sdf,keypress(Space),response,1008.98,312254,312249.36,312266.02,313275,313291,2023-09-01T11:33:34Z,313349.98,NULL,NA,NA,NA,NA,NA,NA,NA,sdf,NA,0,NA,NA,NA,NA,NA,NA,NA,NA,NA,NA,NA,NA,NA,NA,NA,NA,NA,NA,NA
58588,check continue,flow.Sequence,3_0_0,NA,NA,completion,79438.44,233835,233836.18,233836.56,313275,313292,2023-09-01T11:33:34Z,313349.98,NULL,NA,NA,NA,NA,NA,NA,NA,sdf,NA,0,NA,NA,NA,NA,NA,NA,NA,NA,NA,NA,NA,NA,NA,NA,NA,NA,NA,NA,NA
58588,deep,flow.Sequence,3_0_1_0_0_0,NA,NA,skipped,NA,313349,NA,NA,313275,313349,2023-09-01T11:33:35Z,313349.98,NULL,Orientierung,urekebisho,s,uelekeo,marekebisho,utunzaji,NA,sdfdsf,NA,1,NA,NA,NA,NA,NA,NA,NA,NA,NA,NA,NA,NA,NA,NA,NA,NA,NA,NA,NA
58588,Shallow Question,html.Page,3_0_1_0_0_1_0,NA,NA,form submission,8842.02,313350,313349.68,313349.98,322192,322192,2023-09-01T11:33:43Z,322198.04,NULL,Orientierung,urekebisho,s,uelekeo,marekebisho,utunzaji,urekebisho,NA,NA,1,NA,NA,NA,NA,NA,NA,NA,NA,NA,NA,NA,NA,NA,NA,NA,NA,NA,NA,NA
58588,"""Richtig""-Screen",canvas.Screen,3_0_1_0_0_1_1,NA,NA,timeout,4999.24,322195,322187.64,322198.04,327180.6,327181,2023-09-01T11:33:48Z,327197.28,NULL,Orientierung,urekebisho,s,uelekeo,marekebisho,utunzaji,NA,sdfdsf,1,1,NA,NA,NA,NA,NA,NA,NA,NA,NA,NA,NA,NA,NA,NA,NA,NA,NA,NA,NA
58588,"""Falsch""-Screen",canvas.Screen,3_0_1_0_0_1_2,NA,NA,skipped,NA,327188,NA,NA,327180.6,327188,2023-09-01T11:33:48Z,327197.28,NULL,Orientierung,urekebisho,s,uelekeo,marekebisho,utunzaji,NA,sdfdsf,NA,1,NA,NA,NA,NA,NA,NA,NA,NA,NA,NA,NA,NA,NA,NA,NA,NA,NA,NA,NA
58588,shallow,flow.Sequence,3_0_1_0_0_1,NA,NA,completion,13830.62,313350,313349.68,313349.98,327180.6,327189,2023-09-01T11:33:48Z,327197.28,NULL,Orientierung,urekebisho,s,uelekeo,marekebisho,utunzaji,NA,sdfdsf,NA,1,NA,NA,NA,NA,NA,NA,NA,NA,NA,NA,NA,NA,NA,NA,NA,NA,NA,NA,NA
58588,task,flow.Sequence,3_0_1_0_0,NA,NA,completion,13830.62,313349,313349.68,313349.98,327180.6,327189,2023-09-01T11:33:48Z,327197.28,NULL,Orientierung,urekebisho,s,uelekeo,marekebisho,utunzaji,NA,sdfdsf,NA,1,NA,NA,NA,NA,NA,NA,NA,NA,NA,NA,NA,NA,NA,NA,NA,NA,NA,NA,NA
58588,Deep Question,html.Page,3_0_1_0_1_0_0,NA,NA,form submission,7879.72,327189,327180.6,327197.28,335077,335080,2023-09-01T11:33:56Z,335096.34,NULL,Betrüger,mdanganyifu,d,NA,NA,NA,mdangazylie,NA,NA,1,NA,NA,NA,NA,NA,NA,NA,NA,NA,NA,NA,NA,NA,NA,NA,NA,NA,NA,NA
58588,"""Richtig""-Screen",canvas.Screen,3_0_1_0_1_0_1,NA,NA,skipped,NA,335090,NA,NA,335077,335091,2023-09-01T11:33:56Z,335096.34,NULL,Betrüger,mdanganyifu,d,NA,NA,NA,NA,sdfdsf,NA,1,NA,NA,NA,NA,NA,NA,NA,NA,NA,NA,NA,NA,NA,NA,NA,NA,NA,NA,NA
58588,"""Falsch""-Screen",canvas.Screen,3_0_1_0_1_0_2,NA,NA,timeout,4999.46,335095,335067.12,335096.34,340079.12,340081,2023-09-01T11:34:01Z,340095.8,NULL,Betrüger,mdanganyifu,d,NA,NA,NA,NA,sdfdsf,0,1,NA,NA,NA,NA,NA,NA,NA,NA,NA,NA,NA,NA,NA,NA,NA,NA,NA,NA,NA
58588,deep,flow.Sequence,3_0_1_0_1_0,NA,NA,completion,12881.84,327189,327180.6,327197.28,340079.12,340082,2023-09-01T11:34:01Z,340095.8,NULL,Betrüger,mdanganyifu,d,NA,NA,NA,NA,sdfdsf,NA,1,NA,NA,NA,NA,NA,NA,NA,NA,NA,NA,NA,NA,NA,NA,NA,NA,NA,NA,NA
58588,shallow,flow.Sequence,3_0_1_0_1_1,NA,NA,skipped,NA,340082,NA,NA,340079.12,340083,2023-09-01T11:34:01Z,340095.8,NULL,Betrüger,mdanganyifu,d,NA,NA,NA,NA,sdfdsf,NA,1,NA,NA,NA,NA,NA,NA,NA,NA,NA,NA,NA,NA,NA,NA,NA,NA,NA,NA,NA
58588,task,flow.Sequence,3_0_1_0_1,NA,NA,completion,12881.84,327189,327180.6,327197.28,340079.12,340083,2023-09-01T11:34:01Z,340095.8,NULL,Betrüger,mdanganyifu,d,NA,NA,NA,NA,sdfdsf,NA,1,NA,NA,NA,NA,NA,NA,NA,NA,NA,NA,NA,NA,NA,NA,NA,NA,NA,NA,NA
58588,deep,flow.Sequence,3_0_1_0_2_0,NA,NA,skipped,NA,340084,NA,NA,340079.12,340085,2023-09-01T11:34:01Z,340095.8,NULL,Respekt,heshima,s,changamnao,upinzani,ufanisi,NA,sdfdsf,NA,1,NA,NA,NA,NA,NA,NA,NA,NA,NA,NA,NA,NA,NA,NA,NA,NA,NA,NA,NA
58588,Shallow Question,html.Page,3_0_1_0_2_1_0,NA,NA,form submission,8416.2,340085,340079.12,340095.8,348512,348513,2023-09-01T11:34:10Z,348511.34,NULL,Respekt,heshima,s,changamnao,upinzani,ufanisi,ufanisi,NA,NA,1,NA,NA,NA,NA,NA,NA,NA,NA,NA,NA,NA,NA,NA,NA,NA,NA,NA,NA,NA
58588,"""Richtig""-Screen",canvas.Screen,3_0_1_0_2_1_1,NA,NA,skipped,NA,348519,NA,NA,348512,348520,2023-09-01T11:34:10Z,348511.34,NULL,Respekt,heshima,s,changamnao,upinzani,ufanisi,NA,sdfdsf,NA,1,NA,NA,NA,NA,NA,NA,NA,NA,NA,NA,NA,NA,NA,NA,NA,NA,NA,NA,NA
58588,"""Falsch""-Screen",canvas.Screen,3_0_1_0_2_1_2,NA,NA,timeout,4999.36,348525,348506.66,348511.34,353494.04,353495,2023-09-01T11:34:15Z,353510.7,NULL,Respekt,heshima,s,changamnao,upinzani,ufanisi,NA,sdfdsf,0,1,NA,NA,NA,NA,NA,NA,NA,NA,NA,NA,NA,NA,NA,NA,NA,NA,NA,NA,NA
58588,shallow,flow.Sequence,3_0_1_0_2_1,NA,NA,completion,13398.24,340085,340079.12,340095.8,353494.04,353497,2023-09-01T11:34:15Z,353510.7,NULL,Respekt,heshima,s,changamnao,upinzani,ufanisi,NA,sdfdsf,NA,1,NA,NA,NA,NA,NA,NA,NA,NA,NA,NA,NA,NA,NA,NA,NA,NA,NA,NA,NA
58588,task,flow.Sequence,3_0_1_0_2,NA,NA,completion,13398.24,340084,340079.12,340095.8,353494.04,353498,2023-09-01T11:34:15Z,353510.7,NULL,Respekt,heshima,s,changamnao,upinzani,ufanisi,NA,sdfdsf,NA,1,NA,NA,NA,NA,NA,NA,NA,NA,NA,NA,NA,NA,NA,NA,NA,NA,NA,NA,NA
58588,Deep Question,html.Page,3_0_1_0_3_0_0,NA,NA,form submission,4957.3,353498,353494.04,353510.7,358468,358468,2023-09-01T11:34:20Z,358476.54,NULL,Stimmung,kinyongo,d,NA,NA,NA,mandofo,NA,NA,1,NA,NA,NA,NA,NA,NA,NA,NA,NA,NA,NA,NA,NA,NA,NA,NA,NA,NA,NA
58588,"""Richtig""-Screen",canvas.Screen,3_0_1_0_3_0_1,NA,NA,skipped,NA,358471,NA,NA,358468,358472,2023-09-01T11:34:20Z,358476.54,NULL,Stimmung,kinyongo,d,NA,NA,NA,NA,sdfdsf,NA,1,NA,NA,NA,NA,NA,NA,NA,NA,NA,NA,NA,NA,NA,NA,NA,NA,NA,NA,NA
58588,"""Falsch""-Screen",canvas.Screen,3_0_1_0_3_0_2,NA,NA,timeout,4999.5,358475,358466.62,358476.54,363459.44,363461,2023-09-01T11:34:25Z,363476.04,NULL,Stimmung,kinyongo,d,NA,NA,NA,NA,sdfdsf,0,1,NA,NA,NA,NA,NA,NA,NA,NA,NA,NA,NA,NA,NA,NA,NA,NA,NA,NA,NA
58588,deep,flow.Sequence,3_0_1_0_3_0,NA,NA,completion,9948.74,353498,353494.04,353510.7,363459.44,363462,2023-09-01T11:34:25Z,363476.04,NULL,Stimmung,kinyongo,d,NA,NA,NA,NA,sdfdsf,NA,1,NA,NA,NA,NA,NA,NA,NA,NA,NA,NA,NA,NA,NA,NA,NA,NA,NA,NA,NA
58588,shallow,flow.Sequence,3_0_1_0_3_1,NA,NA,skipped,NA,363463,NA,NA,363459.44,363463,2023-09-01T11:34:25Z,363476.04,NULL,Stimmung,kinyongo,d,NA,NA,NA,NA,sdfdsf,NA,1,NA,NA,NA,NA,NA,NA,NA,NA,NA,NA,NA,NA,NA,NA,NA,NA,NA,NA,NA
58588,task,flow.Sequence,3_0_1_0_3,NA,NA,completion,9948.74,353498,353494.04,353510.7,363459.44,363464,2023-09-01T11:34:25Z,363476.04,NULL,Stimmung,kinyongo,d,NA,NA,NA,NA,sdfdsf,NA,1,NA,NA,NA,NA,NA,NA,NA,NA,NA,NA,NA,NA,NA,NA,NA,NA,NA,NA,NA
58588,Deep Question,html.Page,3_0_1_0_4_0_0,NA,NA,form submission,4958.96,363464,363459.44,363476.04,368435,368436,2023-09-01T11:34:30Z,368441.86,NULL,Gefährdung,kuhatarisha,d,NA,NA,NA,kinyanga,NA,NA,1,NA,NA,NA,NA,NA,NA,NA,NA,NA,NA,NA,NA,NA,NA,NA,NA,NA,NA,NA
58588,"""Richtig""-Screen",canvas.Screen,3_0_1_0_4_0_1,NA,NA,skipped,NA,368440,NA,NA,368435,368440,2023-09-01T11:34:30Z,368441.86,NULL,Gefährdung,kuhatarisha,d,NA,NA,NA,NA,sdfdsf,NA,1,NA,NA,NA,NA,NA,NA,NA,NA,NA,NA,NA,NA,NA,NA,NA,NA,NA,NA,NA
58588,"""Falsch""-Screen",canvas.Screen,3_0_1_0_4_0_2,NA,NA,timeout,4999.56,368443,368434.76,368441.86,373424.86,373426,2023-09-01T11:34:35Z,373441.42,NULL,Gefährdung,kuhatarisha,d,NA,NA,NA,NA,sdfdsf,0,1,NA,NA,NA,NA,NA,NA,NA,NA,NA,NA,NA,NA,NA,NA,NA,NA,NA,NA,NA
58588,deep,flow.Sequence,3_0_1_0_4_0,NA,NA,completion,9948.82,363464,363459.44,363476.04,373424.86,373427,2023-09-01T11:34:35Z,373441.42,NULL,Gefährdung,kuhatarisha,d,NA,NA,NA,NA,sdfdsf,NA,1,NA,NA,NA,NA,NA,NA,NA,NA,NA,NA,NA,NA,NA,NA,NA,NA,NA,NA,NA
58588,shallow,flow.Sequence,3_0_1_0_4_1,NA,NA,skipped,NA,373427,NA,NA,373424.86,373427,2023-09-01T11:34:35Z,373441.42,NULL,Gefährdung,kuhatarisha,d,NA,NA,NA,NA,sdfdsf,NA,1,NA,NA,NA,NA,NA,NA,NA,NA,NA,NA,NA,NA,NA,NA,NA,NA,NA,NA,NA
58588,task,flow.Sequence,3_0_1_0_4,NA,NA,completion,9948.82,363464,363459.44,363476.04,373424.86,373428,2023-09-01T11:34:35Z,373441.42,NULL,Gefährdung,kuhatarisha,d,NA,NA,NA,NA,sdfdsf,NA,1,NA,NA,NA,NA,NA,NA,NA,NA,NA,NA,NA,NA,NA,NA,NA,NA,NA,NA,NA
58588,Deep Question,html.Page,3_0_1_0_5_0_0,NA,NA,form submission,3969.58,373428,373424.86,373441.42,377411,377411,2023-09-01T11:34:39Z,377424.14,NULL,Kontrolle,kudhibiti,d,NA,NA,NA,chaoshi,NA,NA,1,NA,NA,NA,NA,NA,NA,NA,NA,NA,NA,NA,NA,NA,NA,NA,NA,NA,NA,NA
58588,"""Richtig""-Screen",canvas.Screen,3_0_1_0_5_0_1,NA,NA,skipped,NA,377414,NA,NA,377411,377414,2023-09-01T11:34:39Z,377424.14,NULL,Kontrolle,kudhibiti,d,NA,NA,NA,NA,sdfdsf,NA,1,NA,NA,NA,NA,NA,NA,NA,NA,NA,NA,NA,NA,NA,NA,NA,NA,NA,NA,NA
58588,"""Falsch""-Screen",canvas.Screen,3_0_1_0_5_0_2,NA,NA,timeout,4999.44,377416,377409.08,377424.14,382406.92,382408,2023-09-01T11:34:44Z,382423.58,NULL,Kontrolle,kudhibiti,d,NA,NA,NA,NA,sdfdsf,0,1,NA,NA,NA,NA,NA,NA,NA,NA,NA,NA,NA,NA,NA,NA,NA,NA,NA,NA,NA
58588,deep,flow.Sequence,3_0_1_0_5_0,NA,NA,completion,8965.5,373428,373424.86,373441.42,382406.92,382408,2023-09-01T11:34:44Z,382423.58,NULL,Kontrolle,kudhibiti,d,NA,NA,NA,NA,sdfdsf,NA,1,NA,NA,NA,NA,NA,NA,NA,NA,NA,NA,NA,NA,NA,NA,NA,NA,NA,NA,NA
58588,shallow,flow.Sequence,3_0_1_0_5_1,NA,NA,skipped,NA,382408,NA,NA,382406.92,382409,2023-09-01T11:34:44Z,382423.58,NULL,Kontrolle,kudhibiti,d,NA,NA,NA,NA,sdfdsf,NA,1,NA,NA,NA,NA,NA,NA,NA,NA,NA,NA,NA,NA,NA,NA,NA,NA,NA,NA,NA
58588,task,flow.Sequence,3_0_1_0_5,NA,NA,completion,8965.5,373428,373424.86,373441.42,382406.92,382409,2023-09-01T11:34:44Z,382423.58,NULL,Kontrolle,kudhibiti,d,NA,NA,NA,NA,sdfdsf,NA,1,NA,NA,NA,NA,NA,NA,NA,NA,NA,NA,NA,NA,NA,NA,NA,NA,NA,NA,NA
58588,deep,flow.Sequence,3_0_1_0_6_0,NA,NA,skipped,NA,382409,NA,NA,382406.92,382409,2023-09-01T11:34:44Z,382423.58,NULL,Kreativität,ubunifu,s,mratibu,mwendelezo,makubaliano,NA,sdfdsf,NA,1,NA,NA,NA,NA,NA,NA,NA,NA,NA,NA,NA,NA,NA,NA,NA,NA,NA,NA,NA
58588,Shallow Question,html.Page,3_0_1_0_6_1_0,NA,NA,form submission,4708.42,382409,382406.92,382423.58,387132,387133,2023-09-01T11:34:48Z,387139.62,NULL,Kreativität,ubunifu,s,mratibu,mwendelezo,makubaliano,ubunifu,NA,NA,1,NA,NA,NA,NA,NA,NA,NA,NA,NA,NA,NA,NA,NA,NA,NA,NA,NA,NA,NA
58588,"""Richtig""-Screen",canvas.Screen,3_0_1_0_6_1_1,NA,NA,timeout,4999.38,387137,387128.36,387139.62,392122.4,392124,2023-09-01T11:34:53Z,392139,NULL,Kreativität,ubunifu,s,mratibu,mwendelezo,makubaliano,NA,sdfdsf,1,1,NA,NA,NA,NA,NA,NA,NA,NA,NA,NA,NA,NA,NA,NA,NA,NA,NA,NA,NA
58588,"""Falsch""-Screen",canvas.Screen,3_0_1_0_6_1_2,NA,NA,skipped,NA,392130,NA,NA,392122.4,392130,2023-09-01T11:34:53Z,392139,NULL,Kreativität,ubunifu,s,mratibu,mwendelezo,makubaliano,NA,sdfdsf,NA,1,NA,NA,NA,NA,NA,NA,NA,NA,NA,NA,NA,NA,NA,NA,NA,NA,NA,NA,NA
58588,shallow,flow.Sequence,3_0_1_0_6_1,NA,NA,completion,9698.82,382409,382406.92,382423.58,392122.4,392131,2023-09-01T11:34:53Z,392139,NULL,Kreativität,ubunifu,s,mratibu,mwendelezo,makubaliano,NA,sdfdsf,NA,1,NA,NA,NA,NA,NA,NA,NA,NA,NA,NA,NA,NA,NA,NA,NA,NA,NA,NA,NA
58588,task,flow.Sequence,3_0_1_0_6,NA,NA,completion,9698.82,382409,382406.92,382423.58,392122.4,392131,2023-09-01T11:34:53Z,392139,NULL,Kreativität,ubunifu,s,mratibu,mwendelezo,makubaliano,NA,sdfdsf,NA,1,NA,NA,NA,NA,NA,NA,NA,NA,NA,NA,NA,NA,NA,NA,NA,NA,NA,NA,NA
58588,deep,flow.Sequence,3_0_1_0_7_0,NA,NA,skipped,NA,392131,NA,NA,392122.4,392132,2023-09-01T11:34:53Z,392139,NULL,Können,unaweza,s,kiongozi,bustani,mienendo,NA,sdfdsf,NA,1,NA,NA,NA,NA,NA,NA,NA,NA,NA,NA,NA,NA,NA,NA,NA,NA,NA,NA,NA
58588,Shallow Question,html.Page,3_0_1_0_7_1_0,NA,NA,form submission,4194,392132,392122.4,392139,396333,396334,2023-09-01T11:34:58Z,396338.5,NULL,Können,unaweza,s,kiongozi,bustani,mienendo,unaweza,NA,NA,1,NA,NA,NA,NA,NA,NA,NA,NA,NA,NA,NA,NA,NA,NA,NA,NA,NA,NA,NA
58588,"""Richtig""-Screen",canvas.Screen,3_0_1_0_7_1_1,NA,NA,timeout,4999.32,396339,396328.86,396338.5,401321.16,401323,2023-09-01T11:35:03Z,401337.82,NULL,Können,unaweza,s,kiongozi,bustani,mienendo,NA,sdfdsf,1,1,NA,NA,NA,NA,NA,NA,NA,NA,NA,NA,NA,NA,NA,NA,NA,NA,NA,NA,NA
58588,"""Falsch""-Screen",canvas.Screen,3_0_1_0_7_1_2,NA,NA,skipped,NA,401330,NA,NA,401321.16,401330,2023-09-01T11:35:03Z,401337.82,NULL,Können,unaweza,s,kiongozi,bustani,mienendo,NA,sdfdsf,NA,1,NA,NA,NA,NA,NA,NA,NA,NA,NA,NA,NA,NA,NA,NA,NA,NA,NA,NA,NA
58588,shallow,flow.Sequence,3_0_1_0_7_1,NA,NA,completion,9182.16,392132,392122.4,392139,401321.16,401331,2023-09-01T11:35:03Z,401337.82,NULL,Können,unaweza,s,kiongozi,bustani,mienendo,NA,sdfdsf,NA,1,NA,NA,NA,NA,NA,NA,NA,NA,NA,NA,NA,NA,NA,NA,NA,NA,NA,NA,NA
58588,task,flow.Sequence,3_0_1_0_7,NA,NA,completion,9182.16,392131,392122.4,392139,401321.16,401331,2023-09-01T11:35:03Z,401337.82,NULL,Können,unaweza,s,kiongozi,bustani,mienendo,NA,sdfdsf,NA,1,NA,NA,NA,NA,NA,NA,NA,NA,NA,NA,NA,NA,NA,NA,NA,NA,NA,NA,NA
58588,block,flow.Loop,3_0_1_0,NA,NA,completion,87971.18,313349,313349.68,313349.98,401321.16,401332,2023-09-01T11:35:03Z,401337.82,NULL,NA,NA,NA,NA,NA,NA,NA,sdfdsf,NA,1,NA,NA,NA,NA,NA,NA,NA,NA,NA,NA,NA,NA,NA,NA,NA,NA,NA,NA,NA
58588,weiter,canvas.Screen,3_0_1_1,sdf,keypress(Space),response,671.17999999999,401332,401321.16,401337.82,402009,402022,2023-09-01T11:35:03Z,402081.88,NULL,NA,NA,NA,NA,NA,NA,NA,sdfdsf,NA,1,NA,NA,NA,NA,NA,NA,NA,NA,NA,NA,NA,NA,NA,NA,NA,NA,NA,NA,NA
58588,check continue,flow.Sequence,3_0_1,NA,NA,completion,88659.02,313349,313349.68,313349.98,402009,402023,2023-09-01T11:35:03Z,402081.88,NULL,NA,NA,NA,NA,NA,NA,NA,sdfdsf,NA,1,NA,NA,NA,NA,NA,NA,NA,NA,NA,NA,NA,NA,NA,NA,NA,NA,NA,NA,NA
58588,deep,flow.Sequence,3_0_2_0_0_0,NA,NA,skipped,NA,402081,NA,NA,402009,402081,2023-09-01T11:35:03Z,402081.88,NULL,Kreativität,ubunifu,s,mratibu,mwendelezo,makubaliano,NA,sdf,NA,2,NA,NA,NA,NA,NA,NA,NA,NA,NA,NA,NA,NA,NA,NA,NA,NA,NA,NA,NA
58588,Shallow Question,html.Page,3_0_2_0_0_1_0,NA,NA,form submission,6692.12,402081,402081.56,402081.88,408774,408775,2023-09-01T11:35:10Z,408770.22,NULL,Kreativität,ubunifu,s,mratibu,mwendelezo,makubaliano,ubunifu,NA,NA,2,NA,NA,NA,NA,NA,NA,NA,NA,NA,NA,NA,NA,NA,NA,NA,NA,NA,NA,NA
58588,"""Richtig""-Screen",canvas.Screen,3_0_2_0_0_1_1,NA,NA,timeout,4999.28,408778,408767.84,408770.22,413752.9,413755,2023-09-01T11:35:15Z,413769.5,NULL,Kreativität,ubunifu,s,mratibu,mwendelezo,makubaliano,NA,sdf,1,2,NA,NA,NA,NA,NA,NA,NA,NA,NA,NA,NA,NA,NA,NA,NA,NA,NA,NA,NA
58588,"""Falsch""-Screen",canvas.Screen,3_0_2_0_0_1_2,NA,NA,skipped,NA,413760,NA,NA,413752.9,413761,2023-09-01T11:35:15Z,413769.5,NULL,Kreativität,ubunifu,s,mratibu,mwendelezo,makubaliano,NA,sdf,NA,2,NA,NA,NA,NA,NA,NA,NA,NA,NA,NA,NA,NA,NA,NA,NA,NA,NA,NA,NA
58588,shallow,flow.Sequence,3_0_2_0_0_1,NA,NA,completion,11671.02,402081,402081.56,402081.88,413752.9,413762,2023-09-01T11:35:15Z,413769.5,NULL,Kreativität,ubunifu,s,mratibu,mwendelezo,makubaliano,NA,sdf,NA,2,NA,NA,NA,NA,NA,NA,NA,NA,NA,NA,NA,NA,NA,NA,NA,NA,NA,NA,NA
58588,task,flow.Sequence,3_0_2_0_0,NA,NA,completion,11671.02,402081,402081.56,402081.88,413752.9,413762,2023-09-01T11:35:15Z,413769.5,NULL,Kreativität,ubunifu,s,mratibu,mwendelezo,makubaliano,NA,sdf,NA,2,NA,NA,NA,NA,NA,NA,NA,NA,NA,NA,NA,NA,NA,NA,NA,NA,NA,NA,NA
58588,Deep Question,html.Page,3_0_2_0_1_0_0,NA,NA,form submission,6854.5,413763,413752.9,413769.5,420624,420624,2023-09-01T11:35:22Z,420635.3,NULL,Betrüger,mdanganyifu,d,NA,NA,NA,mdangeyifu,NA,NA,2,NA,NA,NA,NA,NA,NA,NA,NA,NA,NA,NA,NA,NA,NA,NA,NA,NA,NA,NA
58588,"""Richtig""-Screen",canvas.Screen,3_0_2_0_1_0_1,NA,NA,skipped,NA,420626,NA,NA,420624,420627,2023-09-01T11:35:22Z,420635.3,NULL,Betrüger,mdanganyifu,d,NA,NA,NA,NA,sdf,NA,2,NA,NA,NA,NA,NA,NA,NA,NA,NA,NA,NA,NA,NA,NA,NA,NA,NA,NA,NA
58588,"""Falsch""-Screen",canvas.Screen,3_0_2_0_1_0_2,NA,NA,timeout,4999.44,420628,420622.14,420635.3,425618.1,425619,2023-09-01T11:35:27Z,425634.74,NULL,Betrüger,mdanganyifu,d,NA,NA,NA,NA,sdf,0,2,NA,NA,NA,NA,NA,NA,NA,NA,NA,NA,NA,NA,NA,NA,NA,NA,NA,NA,NA
58588,deep,flow.Sequence,3_0_2_0_1_0,NA,NA,completion,11848.6,413763,413752.9,413769.5,425618.1,425620,2023-09-01T11:35:27Z,425634.74,NULL,Betrüger,mdanganyifu,d,NA,NA,NA,NA,sdf,NA,2,NA,NA,NA,NA,NA,NA,NA,NA,NA,NA,NA,NA,NA,NA,NA,NA,NA,NA,NA
58588,shallow,flow.Sequence,3_0_2_0_1_1,NA,NA,skipped,NA,425620,NA,NA,425618.1,425620,2023-09-01T11:35:27Z,425634.74,NULL,Betrüger,mdanganyifu,d,NA,NA,NA,NA,sdf,NA,2,NA,NA,NA,NA,NA,NA,NA,NA,NA,NA,NA,NA,NA,NA,NA,NA,NA,NA,NA
58588,task,flow.Sequence,3_0_2_0_1,NA,NA,completion,11848.6,413762,413752.9,413769.5,425618.1,425621,2023-09-01T11:35:27Z,425634.74,NULL,Betrüger,mdanganyifu,d,NA,NA,NA,NA,sdf,NA,2,NA,NA,NA,NA,NA,NA,NA,NA,NA,NA,NA,NA,NA,NA,NA,NA,NA,NA,NA
58588,deep,flow.Sequence,3_0_2_0_2_0,NA,NA,skipped,NA,425621,NA,NA,425618.1,425621,2023-09-01T11:35:27Z,425634.74,NULL,Respekt,heshima,s,changamnao,upinzani,ufanisi,NA,sdf,NA,2,NA,NA,NA,NA,NA,NA,NA,NA,NA,NA,NA,NA,NA,NA,NA,NA,NA,NA,NA
58588,Shallow Question,html.Page,3_0_2_0_2_1_0,NA,NA,form submission,3769.26,425621,425618.1,425634.74,429404,429405,2023-09-01T11:35:31Z,429400.66,NULL,Respekt,heshima,s,changamnao,upinzani,ufanisi,heshima,NA,NA,2,NA,NA,NA,NA,NA,NA,NA,NA,NA,NA,NA,NA,NA,NA,NA,NA,NA,NA,NA
58588,"""Richtig""-Screen",canvas.Screen,3_0_2_0_2_1_1,NA,NA,timeout,4999.6,429410,429399.1,429400.66,434383.58,434384,2023-09-01T11:35:36Z,434400.26,NULL,Respekt,heshima,s,changamnao,upinzani,ufanisi,NA,sdf,1,2,NA,NA,NA,NA,NA,NA,NA,NA,NA,NA,NA,NA,NA,NA,NA,NA,NA,NA,NA
58588,"""Falsch""-Screen",canvas.Screen,3_0_2_0_2_1_2,NA,NA,skipped,NA,434387,NA,NA,434383.58,434388,2023-09-01T11:35:36Z,434400.26,NULL,Respekt,heshima,s,changamnao,upinzani,ufanisi,NA,sdf,NA,2,NA,NA,NA,NA,NA,NA,NA,NA,NA,NA,NA,NA,NA,NA,NA,NA,NA,NA,NA
58588,shallow,flow.Sequence,3_0_2_0_2_1,NA,NA,completion,8748.84,425621,425618.1,425634.74,434383.58,434388,2023-09-01T11:35:36Z,434400.26,NULL,Respekt,heshima,s,changamnao,upinzani,ufanisi,NA,sdf,NA,2,NA,NA,NA,NA,NA,NA,NA,NA,NA,NA,NA,NA,NA,NA,NA,NA,NA,NA,NA
58588,task,flow.Sequence,3_0_2_0_2,NA,NA,completion,8748.84,425621,425618.1,425634.74,434383.58,434388,2023-09-01T11:35:36Z,434400.26,NULL,Respekt,heshima,s,changamnao,upinzani,ufanisi,NA,sdf,NA,2,NA,NA,NA,NA,NA,NA,NA,NA,NA,NA,NA,NA,NA,NA,NA,NA,NA,NA,NA
58588,Deep Question,html.Page,3_0_2_0_3_0_0,NA,NA,form submission,4075.74,434388,434383.58,434400.26,438476,438477,2023-09-01T11:35:40Z,438482.98,NULL,Gefährdung,kuhatarisha,d,NA,NA,NA,kidhiti,NA,NA,2,NA,NA,NA,NA,NA,NA,NA,NA,NA,NA,NA,NA,NA,NA,NA,NA,NA,NA,NA
58588,"""Richtig""-Screen",canvas.Screen,3_0_2_0_3_0_1,NA,NA,skipped,NA,438479,NA,NA,438476,438479,2023-09-01T11:35:40Z,438482.98,NULL,Gefährdung,kuhatarisha,d,NA,NA,NA,NA,sdf,NA,2,NA,NA,NA,NA,NA,NA,NA,NA,NA,NA,NA,NA,NA,NA,NA,NA,NA,NA,NA
58588,"""Falsch""-Screen",canvas.Screen,3_0_2_0_3_0_2,NA,NA,timeout,4999.46,438481,438474.82,438482.98,443465.8,443468,2023-09-01T11:35:45Z,443482.44,NULL,Gefährdung,kuhatarisha,d,NA,NA,NA,NA,sdf,0,2,NA,NA,NA,NA,NA,NA,NA,NA,NA,NA,NA,NA,NA,NA,NA,NA,NA,NA,NA
58588,deep,flow.Sequence,3_0_2_0_3_0,NA,NA,completion,9065.54,434388,434383.58,434400.26,443465.8,443468,2023-09-01T11:35:45Z,443482.44,NULL,Gefährdung,kuhatarisha,d,NA,NA,NA,NA,sdf,NA,2,NA,NA,NA,NA,NA,NA,NA,NA,NA,NA,NA,NA,NA,NA,NA,NA,NA,NA,NA
58588,shallow,flow.Sequence,3_0_2_0_3_1,NA,NA,skipped,NA,443468,NA,NA,443465.8,443469,2023-09-01T11:35:45Z,443482.44,NULL,Gefährdung,kuhatarisha,d,NA,NA,NA,NA,sdf,NA,2,NA,NA,NA,NA,NA,NA,NA,NA,NA,NA,NA,NA,NA,NA,NA,NA,NA,NA,NA
58588,task,flow.Sequence,3_0_2_0_3,NA,NA,completion,9065.54,434388,434383.58,434400.26,443465.8,443469,2023-09-01T11:35:45Z,443482.44,NULL,Gefährdung,kuhatarisha,d,NA,NA,NA,NA,sdf,NA,2,NA,NA,NA,NA,NA,NA,NA,NA,NA,NA,NA,NA,NA,NA,NA,NA,NA,NA,NA
58588,Deep Question,html.Page,3_0_2_0_4_0_0,NA,NA,form submission,4279.56,443470,443465.8,443482.44,447762,447762,2023-09-01T11:35:49Z,447765.16,NULL,Stimmung,kinyongo,d,NA,NA,NA,mdofo,NA,NA,2,NA,NA,NA,NA,NA,NA,NA,NA,NA,NA,NA,NA,NA,NA,NA,NA,NA,NA,NA
58588,"""Richtig""-Screen",canvas.Screen,3_0_2_0_4_0_1,NA,NA,skipped,NA,447764,NA,NA,447762,447765,2023-09-01T11:35:49Z,447765.16,NULL,Stimmung,kinyongo,d,NA,NA,NA,NA,sdf,NA,2,NA,NA,NA,NA,NA,NA,NA,NA,NA,NA,NA,NA,NA,NA,NA,NA,NA,NA,NA
58588,"""Falsch""-Screen",canvas.Screen,3_0_2_0_4_0_2,NA,NA,timeout,4999.38,447767,447760.86,447765.16,452747.92,452749,2023-09-01T11:35:54Z,452764.54,NULL,Stimmung,kinyongo,d,NA,NA,NA,NA,sdf,0,2,NA,NA,NA,NA,NA,NA,NA,NA,NA,NA,NA,NA,NA,NA,NA,NA,NA,NA,NA
58588,deep,flow.Sequence,3_0_2_0_4_0,NA,NA,completion,9265.48,443469,443465.8,443482.44,452747.92,452749,2023-09-01T11:35:54Z,452764.54,NULL,Stimmung,kinyongo,d,NA,NA,NA,NA,sdf,NA,2,NA,NA,NA,NA,NA,NA,NA,NA,NA,NA,NA,NA,NA,NA,NA,NA,NA,NA,NA
58588,shallow,flow.Sequence,3_0_2_0_4_1,NA,NA,skipped,NA,452750,NA,NA,452747.92,452750,2023-09-01T11:35:54Z,452764.54,NULL,Stimmung,kinyongo,d,NA,NA,NA,NA,sdf,NA,2,NA,NA,NA,NA,NA,NA,NA,NA,NA,NA,NA,NA,NA,NA,NA,NA,NA,NA,NA
58588,task,flow.Sequence,3_0_2_0_4,NA,NA,completion,9265.48,443469,443465.8,443482.44,452747.92,452750,2023-09-01T11:35:54Z,452764.54,NULL,Stimmung,kinyongo,d,NA,NA,NA,NA,sdf,NA,2,NA,NA,NA,NA,NA,NA,NA,NA,NA,NA,NA,NA,NA,NA,NA,NA,NA,NA,NA
58588,deep,flow.Sequence,3_0_2_0_5_0,NA,NA,skipped,NA,452751,NA,NA,452747.92,452751,2023-09-01T11:35:54Z,452764.54,NULL,Orientierung,urekebisho,s,uelekeo,marekebisho,utunzaji,NA,sdf,NA,2,NA,NA,NA,NA,NA,NA,NA,NA,NA,NA,NA,NA,NA,NA,NA,NA,NA,NA,NA
58588,Shallow Question,html.Page,3_0_2_0_5_1_0,NA,NA,form submission,5994.46,452751,452747.92,452764.54,458759,458760,2023-09-01T11:36:00Z,458763.74,NULL,Orientierung,urekebisho,s,uelekeo,marekebisho,utunzaji,marekebisho,NA,NA,2,NA,NA,NA,NA,NA,NA,NA,NA,NA,NA,NA,NA,NA,NA,NA,NA,NA,NA,NA
58588,"""Richtig""-Screen",canvas.Screen,3_0_2_0_5_1_1,NA,NA,skipped,NA,458764,NA,NA,458759,458764,2023-09-01T11:36:00Z,458763.74,NULL,Orientierung,urekebisho,s,uelekeo,marekebisho,utunzaji,NA,sdf,NA,2,NA,NA,NA,NA,NA,NA,NA,NA,NA,NA,NA,NA,NA,NA,NA,NA,NA,NA,NA
58588,"""Falsch""-Screen",canvas.Screen,3_0_2_0_5_1_2,NA,NA,timeout,4999.36,458766,458755.14,458763.74,463746.48,463747,2023-09-01T11:36:05Z,463763.1,NULL,Orientierung,urekebisho,s,uelekeo,marekebisho,utunzaji,NA,sdf,0,2,NA,NA,NA,NA,NA,NA,NA,NA,NA,NA,NA,NA,NA,NA,NA,NA,NA,NA,NA
58588,shallow,flow.Sequence,3_0_2_0_5_1,NA,NA,completion,10981.94,452751,452747.92,452764.54,463746.48,463748,2023-09-01T11:36:05Z,463763.1,NULL,Orientierung,urekebisho,s,uelekeo,marekebisho,utunzaji,NA,sdf,NA,2,NA,NA,NA,NA,NA,NA,NA,NA,NA,NA,NA,NA,NA,NA,NA,NA,NA,NA,NA
58588,task,flow.Sequence,3_0_2_0_5,NA,NA,completion,10981.94,452751,452747.92,452764.54,463746.48,463749,2023-09-01T11:36:05Z,463763.1,NULL,Orientierung,urekebisho,s,uelekeo,marekebisho,utunzaji,NA,sdf,NA,2,NA,NA,NA,NA,NA,NA,NA,NA,NA,NA,NA,NA,NA,NA,NA,NA,NA,NA,NA
58588,deep,flow.Sequence,3_0_2_0_6_0,NA,NA,skipped,NA,463749,NA,NA,463746.48,463749,2023-09-01T11:36:05Z,463763.1,NULL,Können,unaweza,s,kiongozi,bustani,mienendo,NA,sdf,NA,2,NA,NA,NA,NA,NA,NA,NA,NA,NA,NA,NA,NA,NA,NA,NA,NA,NA,NA,NA
58588,Shallow Question,html.Page,3_0_2_0_6_1_0,NA,NA,form submission,4230.9,463750,463746.48,463763.1,467994,467994,2023-09-01T11:36:09Z,467995.82,NULL,Können,unaweza,s,kiongozi,bustani,mienendo,unaweza,NA,NA,2,NA,NA,NA,NA,NA,NA,NA,NA,NA,NA,NA,NA,NA,NA,NA,NA,NA,NA,NA
58588,"""Richtig""-Screen",canvas.Screen,3_0_2_0_6_1_1,NA,NA,timeout,4999.46,467999,467989.34,467995.82,472978.62,472980,2023-09-01T11:36:14Z,472995.28,NULL,Können,unaweza,s,kiongozi,bustani,mienendo,NA,sdf,1,2,NA,NA,NA,NA,NA,NA,NA,NA,NA,NA,NA,NA,NA,NA,NA,NA,NA,NA,NA
58588,"""Falsch""-Screen",canvas.Screen,3_0_2_0_6_1_2,NA,NA,skipped,NA,472987,NA,NA,472978.62,472988,2023-09-01T11:36:14Z,472995.28,NULL,Können,unaweza,s,kiongozi,bustani,mienendo,NA,sdf,NA,2,NA,NA,NA,NA,NA,NA,NA,NA,NA,NA,NA,NA,NA,NA,NA,NA,NA,NA,NA
58588,shallow,flow.Sequence,3_0_2_0_6_1,NA,NA,completion,9215.52,463750,463746.48,463763.1,472978.62,472989,2023-09-01T11:36:14Z,472995.28,NULL,Können,unaweza,s,kiongozi,bustani,mienendo,NA,sdf,NA,2,NA,NA,NA,NA,NA,NA,NA,NA,NA,NA,NA,NA,NA,NA,NA,NA,NA,NA,NA
58588,task,flow.Sequence,3_0_2_0_6,NA,NA,completion,9215.52,463749,463746.48,463763.1,472978.62,472990,2023-09-01T11:36:14Z,472995.28,NULL,Können,unaweza,s,kiongozi,bustani,mienendo,NA,sdf,NA,2,NA,NA,NA,NA,NA,NA,NA,NA,NA,NA,NA,NA,NA,NA,NA,NA,NA,NA,NA
58588,Deep Question,html.Page,3_0_2_0_7_0_0,NA,NA,form submission,4645.72,472991,472978.62,472995.28,477641,477642,2023-09-01T11:36:19Z,477644.6,NULL,Kontrolle,kudhibiti,d,NA,NA,NA,kidhiti,NA,NA,2,NA,NA,NA,NA,NA,NA,NA,NA,NA,NA,NA,NA,NA,NA,NA,NA,NA,NA,NA
58588,"""Richtig""-Screen",canvas.Screen,3_0_2_0_7_0_1,NA,NA,skipped,NA,477645,NA,NA,477641,477645,2023-09-01T11:36:19Z,477644.6,NULL,Kontrolle,kudhibiti,d,NA,NA,NA,NA,sdf,NA,2,NA,NA,NA,NA,NA,NA,NA,NA,NA,NA,NA,NA,NA,NA,NA,NA,NA,NA,NA
58588,"""Falsch""-Screen",canvas.Screen,3_0_2_0_7_0_2,NA,NA,timeout,4999.38,477648,477640.52,477644.6,482627.38,482630,2023-09-01T11:36:24Z,482643.98,NULL,Kontrolle,kudhibiti,d,NA,NA,NA,NA,sdf,0,2,NA,NA,NA,NA,NA,NA,NA,NA,NA,NA,NA,NA,NA,NA,NA,NA,NA,NA,NA
58588,deep,flow.Sequence,3_0_2_0_7_0,NA,NA,completion,9632.1,472990,472978.62,472995.28,482627.38,482630,2023-09-01T11:36:24Z,482643.98,NULL,Kontrolle,kudhibiti,d,NA,NA,NA,NA,sdf,NA,2,NA,NA,NA,NA,NA,NA,NA,NA,NA,NA,NA,NA,NA,NA,NA,NA,NA,NA,NA
58588,shallow,flow.Sequence,3_0_2_0_7_1,NA,NA,skipped,NA,482630,NA,NA,482627.38,482631,2023-09-01T11:36:24Z,482643.98,NULL,Kontrolle,kudhibiti,d,NA,NA,NA,NA,sdf,NA,2,NA,NA,NA,NA,NA,NA,NA,NA,NA,NA,NA,NA,NA,NA,NA,NA,NA,NA,NA
58588,task,flow.Sequence,3_0_2_0_7,NA,NA,completion,9632.1,472990,472978.62,472995.28,482627.38,482631,2023-09-01T11:36:24Z,482643.98,NULL,Kontrolle,kudhibiti,d,NA,NA,NA,NA,sdf,NA,2,NA,NA,NA,NA,NA,NA,NA,NA,NA,NA,NA,NA,NA,NA,NA,NA,NA,NA,NA
58588,block,flow.Loop,3_0_2_0,NA,NA,completion,80545.5,402081,402081.56,402081.88,482627.38,482632,2023-09-01T11:36:24Z,482643.98,NULL,NA,NA,NA,NA,NA,NA,NA,sdf,NA,2,NA,NA,NA,NA,NA,NA,NA,NA,NA,NA,NA,NA,NA,NA,NA,NA,NA,NA,NA
58588,weiter,canvas.Screen,3_0_2_1,sdf,keypress(Space),response,943.02000000002,482633,482627.38,482643.98,483587,483607,2023-09-01T11:36:25Z,483678.16,NULL,NA,NA,NA,NA,NA,NA,NA,sdf,NA,2,NA,NA,NA,NA,NA,NA,NA,NA,NA,NA,NA,NA,NA,NA,NA,NA,NA,NA,NA
58588,check continue,flow.Sequence,3_0_2,NA,NA,completion,81505.12,402081,402081.56,402081.88,483587,483607,2023-09-01T11:36:25Z,483678.16,NULL,NA,NA,NA,NA,NA,NA,NA,sdf,NA,2,NA,NA,NA,NA,NA,NA,NA,NA,NA,NA,NA,NA,NA,NA,NA,NA,NA,NA,NA
58588,Deep Question,html.Page,3_0_3_0_0_0_0,NA,NA,form submission,7960.84,483677,483677.86,483678.16,491639,491640,2023-09-01T11:36:33Z,491642.82,NULL,Stimmung,kinyongo,d,NA,NA,NA,kushiti,NA,NA,3,NA,NA,NA,NA,NA,NA,NA,NA,NA,NA,NA,NA,NA,NA,NA,NA,NA,NA,NA
58588,"""Richtig""-Screen",canvas.Screen,3_0_3_0_0_0_1,NA,NA,skipped,NA,491642,NA,NA,491639,491643,2023-09-01T11:36:33Z,491642.82,NULL,Stimmung,kinyongo,d,NA,NA,NA,NA,qt,NA,3,NA,NA,NA,NA,NA,NA,NA,NA,NA,NA,NA,NA,NA,NA,NA,NA,NA,NA,NA
58588,"""Falsch""-Screen",canvas.Screen,3_0_3_0_0_0_2,NA,NA,timeout,4999.4,491645,491638.8,491642.82,496625.58,496627,2023-09-01T11:36:38Z,496642.22,NULL,Stimmung,kinyongo,d,NA,NA,NA,NA,qt,0,3,NA,NA,NA,NA,NA,NA,NA,NA,NA,NA,NA,NA,NA,NA,NA,NA,NA,NA,NA
58588,deep,flow.Sequence,3_0_3_0_0_0,NA,NA,completion,12947.42,483677,483677.86,483678.16,496625.58,496627,2023-09-01T11:36:38Z,496642.22,NULL,Stimmung,kinyongo,d,NA,NA,NA,NA,qt,NA,3,NA,NA,NA,NA,NA,NA,NA,NA,NA,NA,NA,NA,NA,NA,NA,NA,NA,NA,NA
58588,shallow,flow.Sequence,3_0_3_0_0_1,NA,NA,skipped,NA,496627,NA,NA,496625.58,496628,2023-09-01T11:36:38Z,496642.22,NULL,Stimmung,kinyongo,d,NA,NA,NA,NA,qt,NA,3,NA,NA,NA,NA,NA,NA,NA,NA,NA,NA,NA,NA,NA,NA,NA,NA,NA,NA,NA
58588,task,flow.Sequence,3_0_3_0_0,NA,NA,completion,12947.42,483677,483677.86,483678.16,496625.58,496628,2023-09-01T11:36:38Z,496642.22,NULL,Stimmung,kinyongo,d,NA,NA,NA,NA,qt,NA,3,NA,NA,NA,NA,NA,NA,NA,NA,NA,NA,NA,NA,NA,NA,NA,NA,NA,NA,NA
58588,Deep Question,html.Page,3_0_3_0_1_0_0,NA,NA,form submission,7633.78,496628,496625.58,496642.22,504276,504276,2023-09-01T11:36:45Z,504291.1,NULL,Kontrolle,kudhibiti,d,NA,NA,NA,kinyongo,NA,NA,3,NA,NA,NA,NA,NA,NA,NA,NA,NA,NA,NA,NA,NA,NA,NA,NA,NA,NA,NA
58588,"""Richtig""-Screen",canvas.Screen,3_0_3_0_1_0_1,NA,NA,skipped,NA,504279,NA,NA,504276,504279,2023-09-01T11:36:45Z,504291.1,NULL,Kontrolle,kudhibiti,d,NA,NA,NA,NA,qt,NA,3,NA,NA,NA,NA,NA,NA,NA,NA,NA,NA,NA,NA,NA,NA,NA,NA,NA,NA,NA
58588,"""Falsch""-Screen",canvas.Screen,3_0_3_0_1_0_2,NA,NA,timeout,4999.42,504282,504275.02,504291.1,509273.96,509275,2023-09-01T11:36:50Z,509290.52,NULL,Kontrolle,kudhibiti,d,NA,NA,NA,NA,qt,0,3,NA,NA,NA,NA,NA,NA,NA,NA,NA,NA,NA,NA,NA,NA,NA,NA,NA,NA,NA
58588,deep,flow.Sequence,3_0_3_0_1_0,NA,NA,completion,12631.74,496628,496625.58,496642.22,509273.96,509276,2023-09-01T11:36:50Z,509290.52,NULL,Kontrolle,kudhibiti,d,NA,NA,NA,NA,qt,NA,3,NA,NA,NA,NA,NA,NA,NA,NA,NA,NA,NA,NA,NA,NA,NA,NA,NA,NA,NA
58588,shallow,flow.Sequence,3_0_3_0_1_1,NA,NA,skipped,NA,509276,NA,NA,509273.96,509276,2023-09-01T11:36:50Z,509290.52,NULL,Kontrolle,kudhibiti,d,NA,NA,NA,NA,qt,NA,3,NA,NA,NA,NA,NA,NA,NA,NA,NA,NA,NA,NA,NA,NA,NA,NA,NA,NA,NA
58588,task,flow.Sequence,3_0_3_0_1,NA,NA,completion,12631.74,496628,496625.58,496642.22,509273.96,509277,2023-09-01T11:36:50Z,509290.52,NULL,Kontrolle,kudhibiti,d,NA,NA,NA,NA,qt,NA,3,NA,NA,NA,NA,NA,NA,NA,NA,NA,NA,NA,NA,NA,NA,NA,NA,NA,NA,NA
58588,deep,flow.Sequence,3_0_3_0_2_0,NA,NA,skipped,NA,509277,NA,NA,509273.96,509277,2023-09-01T11:36:50Z,509290.52,NULL,Respekt,heshima,s,changamnao,upinzani,ufanisi,NA,qt,NA,3,NA,NA,NA,NA,NA,NA,NA,NA,NA,NA,NA,NA,NA,NA,NA,NA,NA,NA,NA
58588,Shallow Question,html.Page,3_0_3_0_2_1_0,NA,NA,form submission,3495.48,509278,509273.96,509290.52,512786,512786,2023-09-01T11:36:54Z,512789.92,NULL,Respekt,heshima,s,changamnao,upinzani,ufanisi,heshima,NA,NA,3,NA,NA,NA,NA,NA,NA,NA,NA,NA,NA,NA,NA,NA,NA,NA,NA,NA,NA,NA
58588,"""Richtig""-Screen",canvas.Screen,3_0_3_0_2_1_1,NA,NA,timeout,4999.48,512789,512781.2,512789.92,517772.86,517774,2023-09-01T11:36:59Z,517789.4,NULL,Respekt,heshima,s,changamnao,upinzani,ufanisi,NA,qt,1,3,NA,NA,NA,NA,NA,NA,NA,NA,NA,NA,NA,NA,NA,NA,NA,NA,NA,NA,NA
58588,"""Falsch""-Screen",canvas.Screen,3_0_3_0_2_1_2,NA,NA,skipped,NA,517780,NA,NA,517772.86,517781,2023-09-01T11:36:59Z,517789.4,NULL,Respekt,heshima,s,changamnao,upinzani,ufanisi,NA,qt,NA,3,NA,NA,NA,NA,NA,NA,NA,NA,NA,NA,NA,NA,NA,NA,NA,NA,NA,NA,NA
58588,shallow,flow.Sequence,3_0_3_0_2_1,NA,NA,completion,8482.34,509278,509273.96,509290.52,517772.86,517781,2023-09-01T11:36:59Z,517789.4,NULL,Respekt,heshima,s,changamnao,upinzani,ufanisi,NA,qt,NA,3,NA,NA,NA,NA,NA,NA,NA,NA,NA,NA,NA,NA,NA,NA,NA,NA,NA,NA,NA
58588,task,flow.Sequence,3_0_3_0_2,NA,NA,completion,8482.34,509277,509273.96,509290.52,517772.86,517782,2023-09-01T11:36:59Z,517789.4,NULL,Respekt,heshima,s,changamnao,upinzani,ufanisi,NA,qt,NA,3,NA,NA,NA,NA,NA,NA,NA,NA,NA,NA,NA,NA,NA,NA,NA,NA,NA,NA,NA
58588,deep,flow.Sequence,3_0_3_0_3_0,NA,NA,skipped,NA,517782,NA,NA,517772.86,517782,2023-09-01T11:36:59Z,517789.4,NULL,Kreativität,ubunifu,s,mratibu,mwendelezo,makubaliano,NA,qt,NA,3,NA,NA,NA,NA,NA,NA,NA,NA,NA,NA,NA,NA,NA,NA,NA,NA,NA,NA,NA
58588,Shallow Question,html.Page,3_0_3_0_3_1_0,NA,NA,form submission,3765.6,517783,517772.86,517789.4,521555,521555,2023-09-01T11:37:03Z,521555.66,NULL,Kreativität,ubunifu,s,mratibu,mwendelezo,makubaliano,ubunifu,NA,NA,3,NA,NA,NA,NA,NA,NA,NA,NA,NA,NA,NA,NA,NA,NA,NA,NA,NA,NA,NA
58588,"""Richtig""-Screen",canvas.Screen,3_0_3_0_3_1_1,NA,NA,timeout,4999.36,521558,521551.84,521555.66,526538.38,526540,2023-09-01T11:37:08Z,526555.02,NULL,Kreativität,ubunifu,s,mratibu,mwendelezo,makubaliano,NA,qt,1,3,NA,NA,NA,NA,NA,NA,NA,NA,NA,NA,NA,NA,NA,NA,NA,NA,NA,NA,NA
58588,"""Falsch""-Screen",canvas.Screen,3_0_3_0_3_1_2,NA,NA,skipped,NA,526546,NA,NA,526538.38,526546,2023-09-01T11:37:08Z,526555.02,NULL,Kreativität,ubunifu,s,mratibu,mwendelezo,makubaliano,NA,qt,NA,3,NA,NA,NA,NA,NA,NA,NA,NA,NA,NA,NA,NA,NA,NA,NA,NA,NA,NA,NA
58588,shallow,flow.Sequence,3_0_3_0_3_1,NA,NA,completion,8748.98,517782,517772.86,517789.4,526538.38,526547,2023-09-01T11:37:08Z,526555.02,NULL,Kreativität,ubunifu,s,mratibu,mwendelezo,makubaliano,NA,qt,NA,3,NA,NA,NA,NA,NA,NA,NA,NA,NA,NA,NA,NA,NA,NA,NA,NA,NA,NA,NA
58588,task,flow.Sequence,3_0_3_0_3,NA,NA,completion,8748.98,517782,517772.86,517789.4,526538.38,526547,2023-09-01T11:37:08Z,526555.02,NULL,Kreativität,ubunifu,s,mratibu,mwendelezo,makubaliano,NA,qt,NA,3,NA,NA,NA,NA,NA,NA,NA,NA,NA,NA,NA,NA,NA,NA,NA,NA,NA,NA,NA
58588,Deep Question,html.Page,3_0_3_0_4_0_0,NA,NA,form submission,8520.98,526548,526538.38,526555.02,535076,535076,2023-09-01T11:37:16Z,535087.24,NULL,Gefährdung,kuhatarisha,d,NA,NA,NA,kuhshidi,NA,NA,3,NA,NA,NA,NA,NA,NA,NA,NA,NA,NA,NA,NA,NA,NA,NA,NA,NA,NA,NA
58588,"""Richtig""-Screen",canvas.Screen,3_0_3_0_4_0_1,NA,NA,skipped,NA,535078,NA,NA,535076,535079,2023-09-01T11:37:16Z,535087.24,NULL,Gefährdung,kuhatarisha,d,NA,NA,NA,NA,qt,NA,3,NA,NA,NA,NA,NA,NA,NA,NA,NA,NA,NA,NA,NA,NA,NA,NA,NA,NA,NA
58588,"""Falsch""-Screen",canvas.Screen,3_0_3_0_4_0_2,NA,NA,timeout,4999.36,535081,535074.68,535087.24,540069.94,540073,2023-09-01T11:37:21Z,540086.6,NULL,Gefährdung,kuhatarisha,d,NA,NA,NA,NA,qt,0,3,NA,NA,NA,NA,NA,NA,NA,NA,NA,NA,NA,NA,NA,NA,NA,NA,NA,NA,NA
58588,deep,flow.Sequence,3_0_3_0_4_0,NA,NA,completion,13514.92,526548,526538.38,526555.02,540069.94,540075,2023-09-01T11:37:21Z,540086.6,NULL,Gefährdung,kuhatarisha,d,NA,NA,NA,NA,qt,NA,3,NA,NA,NA,NA,NA,NA,NA,NA,NA,NA,NA,NA,NA,NA,NA,NA,NA,NA,NA
58588,shallow,flow.Sequence,3_0_3_0_4_1,NA,NA,skipped,NA,540075,NA,NA,540069.94,540077,2023-09-01T11:37:21Z,540086.6,NULL,Gefährdung,kuhatarisha,d,NA,NA,NA,NA,qt,NA,3,NA,NA,NA,NA,NA,NA,NA,NA,NA,NA,NA,NA,NA,NA,NA,NA,NA,NA,NA
58588,task,flow.Sequence,3_0_3_0_4,NA,NA,completion,13514.92,526548,526538.38,526555.02,540069.94,540077,2023-09-01T11:37:21Z,540086.6,NULL,Gefährdung,kuhatarisha,d,NA,NA,NA,NA,qt,NA,3,NA,NA,NA,NA,NA,NA,NA,NA,NA,NA,NA,NA,NA,NA,NA,NA,NA,NA,NA
58588,Deep Question,html.Page,3_0_3_0_5_0_0,NA,NA,form submission,6000.4,540078,540069.94,540086.6,546087,546087,2023-09-01T11:37:27Z,546085.76,NULL,Betrüger,mdanganyifu,d,NA,NA,NA,mdongenyifu,NA,NA,3,NA,NA,NA,NA,NA,NA,NA,NA,NA,NA,NA,NA,NA,NA,NA,NA,NA,NA,NA
58588,"""Richtig""-Screen",canvas.Screen,3_0_3_0_5_0_1,NA,NA,skipped,NA,546093,NA,NA,546087,546093,2023-09-01T11:37:27Z,546085.76,NULL,Betrüger,mdanganyifu,d,NA,NA,NA,NA,qt,NA,3,NA,NA,NA,NA,NA,NA,NA,NA,NA,NA,NA,NA,NA,NA,NA,NA,NA,NA,NA
58588,"""Falsch""-Screen",canvas.Screen,3_0_3_0_5_0_2,NA,NA,timeout,4999.46,546097,546085.02,546085.76,551068.54,551070,2023-09-01T11:37:32Z,551085.22,NULL,Betrüger,mdanganyifu,d,NA,NA,NA,NA,qt,0,3,NA,NA,NA,NA,NA,NA,NA,NA,NA,NA,NA,NA,NA,NA,NA,NA,NA,NA,NA
58588,deep,flow.Sequence,3_0_3_0_5_0,NA,NA,completion,10981.94,540078,540069.94,540086.6,551068.54,551071,2023-09-01T11:37:32Z,551085.22,NULL,Betrüger,mdanganyifu,d,NA,NA,NA,NA,qt,NA,3,NA,NA,NA,NA,NA,NA,NA,NA,NA,NA,NA,NA,NA,NA,NA,NA,NA,NA,NA
58588,shallow,flow.Sequence,3_0_3_0_5_1,NA,NA,skipped,NA,551071,NA,NA,551068.54,551071,2023-09-01T11:37:32Z,551085.22,NULL,Betrüger,mdanganyifu,d,NA,NA,NA,NA,qt,NA,3,NA,NA,NA,NA,NA,NA,NA,NA,NA,NA,NA,NA,NA,NA,NA,NA,NA,NA,NA
58588,task,flow.Sequence,3_0_3_0_5,NA,NA,completion,10981.94,540077,540069.94,540086.6,551068.54,551072,2023-09-01T11:37:32Z,551085.22,NULL,Betrüger,mdanganyifu,d,NA,NA,NA,NA,qt,NA,3,NA,NA,NA,NA,NA,NA,NA,NA,NA,NA,NA,NA,NA,NA,NA,NA,NA,NA,NA
58588,deep,flow.Sequence,3_0_3_0_6_0,NA,NA,skipped,NA,551073,NA,NA,551068.54,551074,2023-09-01T11:37:32Z,551085.22,NULL,Orientierung,urekebisho,s,uelekeo,marekebisho,utunzaji,NA,qt,NA,3,NA,NA,NA,NA,NA,NA,NA,NA,NA,NA,NA,NA,NA,NA,NA,NA,NA,NA,NA
58588,Shallow Question,html.Page,3_0_3_0_6_1_0,NA,NA,form submission,4087.78,551074,551068.54,551085.22,555173,555174,2023-09-01T11:37:36Z,555184.66,NULL,Orientierung,urekebisho,s,uelekeo,marekebisho,utunzaji,urekebisho,NA,NA,3,NA,NA,NA,NA,NA,NA,NA,NA,NA,NA,NA,NA,NA,NA,NA,NA,NA,NA,NA
58588,"""Richtig""-Screen",canvas.Screen,3_0_3_0_6_1_1,NA,NA,timeout,4999.34,555182,555167.26,555184.66,560167.44,560169,2023-09-01T11:37:41Z,560184,NULL,Orientierung,urekebisho,s,uelekeo,marekebisho,utunzaji,NA,qt,1,3,NA,NA,NA,NA,NA,NA,NA,NA,NA,NA,NA,NA,NA,NA,NA,NA,NA,NA,NA
58588,"""Falsch""-Screen",canvas.Screen,3_0_3_0_6_1_2,NA,NA,skipped,NA,560176,NA,NA,560167.44,560176,2023-09-01T11:37:41Z,560184,NULL,Orientierung,urekebisho,s,uelekeo,marekebisho,utunzaji,NA,qt,NA,3,NA,NA,NA,NA,NA,NA,NA,NA,NA,NA,NA,NA,NA,NA,NA,NA,NA,NA,NA
58588,shallow,flow.Sequence,3_0_3_0_6_1,NA,NA,completion,9082.22,551074,551068.54,551085.22,560167.44,560177,2023-09-01T11:37:41Z,560184,NULL,Orientierung,urekebisho,s,uelekeo,marekebisho,utunzaji,NA,qt,NA,3,NA,NA,NA,NA,NA,NA,NA,NA,NA,NA,NA,NA,NA,NA,NA,NA,NA,NA,NA
58588,task,flow.Sequence,3_0_3_0_6,NA,NA,completion,9082.22,551073,551068.54,551085.22,560167.44,560178,2023-09-01T11:37:41Z,560184,NULL,Orientierung,urekebisho,s,uelekeo,marekebisho,utunzaji,NA,qt,NA,3,NA,NA,NA,NA,NA,NA,NA,NA,NA,NA,NA,NA,NA,NA,NA,NA,NA,NA,NA
58588,deep,flow.Sequence,3_0_3_0_7_0,NA,NA,skipped,NA,560178,NA,NA,560167.44,560178,2023-09-01T11:37:41Z,560184,NULL,Können,unaweza,s,kiongozi,bustani,mienendo,NA,qt,NA,3,NA,NA,NA,NA,NA,NA,NA,NA,NA,NA,NA,NA,NA,NA,NA,NA,NA,NA,NA
58588,Shallow Question,html.Page,3_0_3_0_7_1_0,NA,NA,form submission,4793,560179,560167.44,560184,564977,564978,2023-09-01T11:37:46Z,564983.38,NULL,Können,unaweza,s,kiongozi,bustani,mienendo,unaweza,NA,NA,3,NA,NA,NA,NA,NA,NA,NA,NA,NA,NA,NA,NA,NA,NA,NA,NA,NA,NA,NA
58588,"""Richtig""-Screen",canvas.Screen,3_0_3_0_7_1_1,NA,NA,timeout,4999.34,564984,564970.94,564983.38,569966.06,569968,2023-09-01T11:37:51Z,569982.72,NULL,Können,unaweza,s,kiongozi,bustani,mienendo,NA,qt,1,3,NA,NA,NA,NA,NA,NA,NA,NA,NA,NA,NA,NA,NA,NA,NA,NA,NA,NA,NA
58588,"""Falsch""-Screen",canvas.Screen,3_0_3_0_7_1_2,NA,NA,skipped,NA,569975,NA,NA,569966.06,569976,2023-09-01T11:37:51Z,569982.72,NULL,Können,unaweza,s,kiongozi,bustani,mienendo,NA,qt,NA,3,NA,NA,NA,NA,NA,NA,NA,NA,NA,NA,NA,NA,NA,NA,NA,NA,NA,NA,NA
58588,shallow,flow.Sequence,3_0_3_0_7_1,NA,NA,completion,9782.0600000001,560179,560167.44,560184,569966.06,569977,2023-09-01T11:37:51Z,569982.72,NULL,Können,unaweza,s,kiongozi,bustani,mienendo,NA,qt,NA,3,NA,NA,NA,NA,NA,NA,NA,NA,NA,NA,NA,NA,NA,NA,NA,NA,NA,NA,NA
58588,task,flow.Sequence,3_0_3_0_7,NA,NA,completion,9782.0600000001,560178,560167.44,560184,569966.06,569977,2023-09-01T11:37:51Z,569982.72,NULL,Können,unaweza,s,kiongozi,bustani,mienendo,NA,qt,NA,3,NA,NA,NA,NA,NA,NA,NA,NA,NA,NA,NA,NA,NA,NA,NA,NA,NA,NA,NA
58588,block,flow.Loop,3_0_3_0,NA,NA,completion,86287.9,483677,483677.86,483678.16,569966.06,569978,2023-09-01T11:37:51Z,569982.72,NULL,NA,NA,NA,NA,NA,NA,NA,qt,NA,3,NA,NA,NA,NA,NA,NA,NA,NA,NA,NA,NA,NA,NA,NA,NA,NA,NA,NA,NA
58588,weiter,canvas.Screen,3_0_3_1,sdf,keypress(Space),response,682.28000000003,569978,569966.06,569982.72,570665,570672,2023-09-01T11:37:52Z,570729.64,NULL,NA,NA,NA,NA,NA,NA,NA,qt,NA,3,NA,NA,NA,NA,NA,NA,NA,NA,NA,NA,NA,NA,NA,NA,NA,NA,NA,NA,NA
58588,check continue,flow.Sequence,3_0_3,NA,NA,completion,86986.84,483677,483677.86,483678.16,570665,570673,2023-09-01T11:37:52Z,570729.64,NULL,NA,NA,NA,NA,NA,NA,NA,qt,NA,3,NA,NA,NA,NA,NA,NA,NA,NA,NA,NA,NA,NA,NA,NA,NA,NA,NA,NA,NA
58588,deep,flow.Sequence,3_0_4_0_0_0,NA,NA,skipped,NA,570730,NA,NA,570665,570730,2023-09-01T11:37:52Z,570729.64,NULL,Respekt,heshima,s,changamnao,upinzani,ufanisi,NA,sd,NA,4,NA,NA,NA,NA,NA,NA,NA,NA,NA,NA,NA,NA,NA,NA,NA,NA,NA,NA,NA
58588,Shallow Question,html.Page,3_0_4_0_0_1_0,NA,NA,form submission,3858.36,570730,570729.3,570729.64,574588,574589,2023-09-01T11:37:56Z,574598.78,NULL,Respekt,heshima,s,changamnao,upinzani,ufanisi,heshima,NA,NA,4,NA,NA,NA,NA,NA,NA,NA,NA,NA,NA,NA,NA,NA,NA,NA,NA,NA,NA,NA
58588,"""Richtig""-Screen",canvas.Screen,3_0_4_0_0_1_1,NA,NA,timeout,4999.4199999999,574593,574582.4,574598.78,579581.56,579583,2023-09-01T11:38:01Z,579598.2,NULL,Respekt,heshima,s,changamnao,upinzani,ufanisi,NA,sd,1,4,NA,NA,NA,NA,NA,NA,NA,NA,NA,NA,NA,NA,NA,NA,NA,NA,NA,NA,NA
58588,"""Falsch""-Screen",canvas.Screen,3_0_4_0_0_1_2,NA,NA,skipped,NA,579589,NA,NA,579581.56,579589,2023-09-01T11:38:01Z,579598.2,NULL,Respekt,heshima,s,changamnao,upinzani,ufanisi,NA,sd,NA,4,NA,NA,NA,NA,NA,NA,NA,NA,NA,NA,NA,NA,NA,NA,NA,NA,NA,NA,NA
58588,shallow,flow.Sequence,3_0_4_0_0_1,NA,NA,completion,8851.92,570730,570729.3,570729.64,579581.56,579589,2023-09-01T11:38:01Z,579598.2,NULL,Respekt,heshima,s,changamnao,upinzani,ufanisi,NA,sd,NA,4,NA,NA,NA,NA,NA,NA,NA,NA,NA,NA,NA,NA,NA,NA,NA,NA,NA,NA,NA
58588,task,flow.Sequence,3_0_4_0_0,NA,NA,completion,8851.92,570730,570729.3,570729.64,579581.56,579590,2023-09-01T11:38:01Z,579598.2,NULL,Respekt,heshima,s,changamnao,upinzani,ufanisi,NA,sd,NA,4,NA,NA,NA,NA,NA,NA,NA,NA,NA,NA,NA,NA,NA,NA,NA,NA,NA,NA,NA
58588,Deep Question,html.Page,3_0_4_0_1_0_0,NA,NA,form submission,10380.8,579590,579581.56,579598.2,589979,589979,2023-09-01T11:38:11Z,589980.16,NULL,Stimmung,kinyongo,d,NA,NA,NA,kinyongo,NA,NA,4,NA,NA,NA,NA,NA,NA,NA,NA,NA,NA,NA,NA,NA,NA,NA,NA,NA,NA,NA
58588,"""Richtig""-Screen",canvas.Screen,3_0_4_0_1_0_1,NA,NA,timeout,4999.2999999999,589982,589977.68,589980.16,594962.88,594964,2023-09-01T11:38:16Z,594979.46,NULL,Stimmung,kinyongo,d,NA,NA,NA,NA,sd,1,4,NA,NA,NA,NA,NA,NA,NA,NA,NA,NA,NA,NA,NA,NA,NA,NA,NA,NA,NA
58588,"""Falsch""-Screen",canvas.Screen,3_0_4_0_1_0_2,NA,NA,skipped,NA,594969,NA,NA,594962.88,594970,2023-09-01T11:38:16Z,594979.46,NULL,Stimmung,kinyongo,d,NA,NA,NA,NA,sd,NA,4,NA,NA,NA,NA,NA,NA,NA,NA,NA,NA,NA,NA,NA,NA,NA,NA,NA,NA,NA
58588,deep,flow.Sequence,3_0_4_0_1_0,NA,NA,completion,15364.68,579590,579581.56,579598.2,594962.88,594970,2023-09-01T11:38:16Z,594979.46,NULL,Stimmung,kinyongo,d,NA,NA,NA,NA,sd,NA,4,NA,NA,NA,NA,NA,NA,NA,NA,NA,NA,NA,NA,NA,NA,NA,NA,NA,NA,NA
58588,shallow,flow.Sequence,3_0_4_0_1_1,NA,NA,skipped,NA,594971,NA,NA,594962.88,594971,2023-09-01T11:38:16Z,594979.46,NULL,Stimmung,kinyongo,d,NA,NA,NA,NA,sd,NA,4,NA,NA,NA,NA,NA,NA,NA,NA,NA,NA,NA,NA,NA,NA,NA,NA,NA,NA,NA
58588,task,flow.Sequence,3_0_4_0_1,NA,NA,completion,15364.68,579590,579581.56,579598.2,594962.88,594971,2023-09-01T11:38:16Z,594979.46,NULL,Stimmung,kinyongo,d,NA,NA,NA,NA,sd,NA,4,NA,NA,NA,NA,NA,NA,NA,NA,NA,NA,NA,NA,NA,NA,NA,NA,NA,NA,NA
58588,deep,flow.Sequence,3_0_4_0_2_0,NA,NA,skipped,NA,594972,NA,NA,594962.88,594972,2023-09-01T11:38:16Z,594979.46,NULL,Können,unaweza,s,kiongozi,bustani,mienendo,NA,sd,NA,4,NA,NA,NA,NA,NA,NA,NA,NA,NA,NA,NA,NA,NA,NA,NA,NA,NA,NA,NA
58588,Shallow Question,html.Page,3_0_4_0_2_1_0,NA,NA,form submission,4534.54,594972,594962.88,594979.46,599514,599517,2023-09-01T11:38:21Z,599528.92,NULL,Können,unaweza,s,kiongozi,bustani,mienendo,unaweza,NA,NA,4,NA,NA,NA,NA,NA,NA,NA,NA,NA,NA,NA,NA,NA,NA,NA,NA,NA,NA,NA
58588,"""Richtig""-Screen",canvas.Screen,3_0_4_0_2_1_1,NA,NA,timeout,4999.36,599529,599504.42,599528.92,604511.66,604513,2023-09-01T11:38:26Z,604528.28,NULL,Können,unaweza,s,kiongozi,bustani,mienendo,NA,sd,1,4,NA,NA,NA,NA,NA,NA,NA,NA,NA,NA,NA,NA,NA,NA,NA,NA,NA,NA,NA
58588,"""Falsch""-Screen",canvas.Screen,3_0_4_0_2_1_2,NA,NA,skipped,NA,604520,NA,NA,604511.66,604521,2023-09-01T11:38:26Z,604528.28,NULL,Können,unaweza,s,kiongozi,bustani,mienendo,NA,sd,NA,4,NA,NA,NA,NA,NA,NA,NA,NA,NA,NA,NA,NA,NA,NA,NA,NA,NA,NA,NA
58588,shallow,flow.Sequence,3_0_4_0_2_1,NA,NA,completion,9532.2000000001,594972,594962.88,594979.46,604511.66,604522,2023-09-01T11:38:26Z,604528.28,NULL,Können,unaweza,s,kiongozi,bustani,mienendo,NA,sd,NA,4,NA,NA,NA,NA,NA,NA,NA,NA,NA,NA,NA,NA,NA,NA,NA,NA,NA,NA,NA
58588,task,flow.Sequence,3_0_4_0_2,NA,NA,completion,9532.2000000001,594972,594962.88,594979.46,604511.66,604523,2023-09-01T11:38:26Z,604528.28,NULL,Können,unaweza,s,kiongozi,bustani,mienendo,NA,sd,NA,4,NA,NA,NA,NA,NA,NA,NA,NA,NA,NA,NA,NA,NA,NA,NA,NA,NA,NA,NA
58588,deep,flow.Sequence,3_0_4_0_3_0,NA,NA,skipped,NA,604523,NA,NA,604511.66,604524,2023-09-01T11:38:26Z,604528.28,NULL,Orientierung,urekebisho,s,uelekeo,marekebisho,utunzaji,NA,sd,NA,4,NA,NA,NA,NA,NA,NA,NA,NA,NA,NA,NA,NA,NA,NA,NA,NA,NA,NA,NA
58588,Shallow Question,html.Page,3_0_4_0_3_1_0,NA,NA,form submission,5001.72,604524,604511.66,604528.28,609530,609530,2023-09-01T11:38:31Z,609544.28,NULL,Orientierung,urekebisho,s,uelekeo,marekebisho,utunzaji,uelekeo,NA,NA,4,NA,NA,NA,NA,NA,NA,NA,NA,NA,NA,NA,NA,NA,NA,NA,NA,NA,NA,NA
58588,"""Richtig""-Screen",canvas.Screen,3_0_4_0_3_1_1,NA,NA,skipped,NA,609532,NA,NA,609530,609532,2023-09-01T11:38:31Z,609544.28,NULL,Orientierung,urekebisho,s,uelekeo,marekebisho,utunzaji,NA,sd,NA,4,NA,NA,NA,NA,NA,NA,NA,NA,NA,NA,NA,NA,NA,NA,NA,NA,NA,NA,NA
58588,"""Falsch""-Screen",canvas.Screen,3_0_4_0_3_1_2,NA,NA,timeout,4999.38,609534,609527.82,609544.28,614527.04,614529,2023-09-01T11:38:36Z,614543.66,NULL,Orientierung,urekebisho,s,uelekeo,marekebisho,utunzaji,NA,sd,0,4,NA,NA,NA,NA,NA,NA,NA,NA,NA,NA,NA,NA,NA,NA,NA,NA,NA,NA,NA
58588,shallow,flow.Sequence,3_0_4_0_3_1,NA,NA,completion,9998.76,604524,604511.66,604528.28,614527.04,614530,2023-09-01T11:38:36Z,614543.66,NULL,Orientierung,urekebisho,s,uelekeo,marekebisho,utunzaji,NA,sd,NA,4,NA,NA,NA,NA,NA,NA,NA,NA,NA,NA,NA,NA,NA,NA,NA,NA,NA,NA,NA
58588,task,flow.Sequence,3_0_4_0_3,NA,NA,completion,9998.76,604523,604511.66,604528.28,614527.04,614531,2023-09-01T11:38:36Z,614543.66,NULL,Orientierung,urekebisho,s,uelekeo,marekebisho,utunzaji,NA,sd,NA,4,NA,NA,NA,NA,NA,NA,NA,NA,NA,NA,NA,NA,NA,NA,NA,NA,NA,NA,NA
58588,Deep Question,html.Page,3_0_4_0_4_0_0,NA,NA,form submission,11516.34,614532,614527.04,614543.66,626060,626061,2023-09-01T11:38:47Z,626075.46,NULL,Gefährdung,kuhatarisha,d,NA,NA,NA,kkulashima,NA,NA,4,NA,NA,NA,NA,NA,NA,NA,NA,NA,NA,NA,NA,NA,NA,NA,NA,NA,NA,NA
58588,"""Richtig""-Screen",canvas.Screen,3_0_4_0_4_0_1,NA,NA,skipped,NA,626064,NA,NA,626060,626064,2023-09-01T11:38:47Z,626075.46,NULL,Gefährdung,kuhatarisha,d,NA,NA,NA,NA,sd,NA,4,NA,NA,NA,NA,NA,NA,NA,NA,NA,NA,NA,NA,NA,NA,NA,NA,NA,NA,NA
58588,"""Falsch""-Screen",canvas.Screen,3_0_4_0_4_0_2,NA,NA,timeout,4999.4400000001,626067,626059.34,626075.46,631058.22,631060,2023-09-01T11:38:52Z,631074.9,NULL,Gefährdung,kuhatarisha,d,NA,NA,NA,NA,sd,0,4,NA,NA,NA,NA,NA,NA,NA,NA,NA,NA,NA,NA,NA,NA,NA,NA,NA,NA,NA
58588,deep,flow.Sequence,3_0_4_0_4_0,NA,NA,completion,16514.56,614531,614527.04,614543.66,631058.22,631061,2023-09-01T11:38:52Z,631074.9,NULL,Gefährdung,kuhatarisha,d,NA,NA,NA,NA,sd,NA,4,NA,NA,NA,NA,NA,NA,NA,NA,NA,NA,NA,NA,NA,NA,NA,NA,NA,NA,NA
58588,shallow,flow.Sequence,3_0_4_0_4_1,NA,NA,skipped,NA,631061,NA,NA,631058.22,631062,2023-09-01T11:38:52Z,631074.9,NULL,Gefährdung,kuhatarisha,d,NA,NA,NA,NA,sd,NA,4,NA,NA,NA,NA,NA,NA,NA,NA,NA,NA,NA,NA,NA,NA,NA,NA,NA,NA,NA
58588,task,flow.Sequence,3_0_4_0_4,NA,NA,completion,16514.56,614531,614527.04,614543.66,631058.22,631062,2023-09-01T11:38:52Z,631074.9,NULL,Gefährdung,kuhatarisha,d,NA,NA,NA,NA,sd,NA,4,NA,NA,NA,NA,NA,NA,NA,NA,NA,NA,NA,NA,NA,NA,NA,NA,NA,NA,NA
58588,deep,flow.Sequence,3_0_4_0_5_0,NA,NA,skipped,NA,631063,NA,NA,631058.22,631063,2023-09-01T11:38:52Z,631074.9,NULL,Kreativität,ubunifu,s,mratibu,mwendelezo,makubaliano,NA,sd,NA,4,NA,NA,NA,NA,NA,NA,NA,NA,NA,NA,NA,NA,NA,NA,NA,NA,NA,NA,NA
58588,Shallow Question,html.Page,3_0_4_0_5_1_0,NA,NA,form submission,3569.1,631064,631058.22,631074.9,634644,634645,2023-09-01T11:38:56Z,634641.08,NULL,Kreativität,ubunifu,s,mratibu,mwendelezo,makubaliano,ubunifu,NA,NA,4,NA,NA,NA,NA,NA,NA,NA,NA,NA,NA,NA,NA,NA,NA,NA,NA,NA,NA,NA
58588,"""Richtig""-Screen",canvas.Screen,3_0_4_0_5_1_1,NA,NA,timeout,4999.2200000001,634651,634638.44,634641.08,639623.82,639625,2023-09-01T11:39:01Z,639640.3,NULL,Kreativität,ubunifu,s,mratibu,mwendelezo,makubaliano,NA,sd,1,4,NA,NA,NA,NA,NA,NA,NA,NA,NA,NA,NA,NA,NA,NA,NA,NA,NA,NA,NA
58588,"""Falsch""-Screen",canvas.Screen,3_0_4_0_5_1_2,NA,NA,skipped,NA,639629,NA,NA,639623.82,639630,2023-09-01T11:39:01Z,639640.3,NULL,Kreativität,ubunifu,s,mratibu,mwendelezo,makubaliano,NA,sd,NA,4,NA,NA,NA,NA,NA,NA,NA,NA,NA,NA,NA,NA,NA,NA,NA,NA,NA,NA,NA
58588,shallow,flow.Sequence,3_0_4_0_5_1,NA,NA,completion,8548.9199999999,631063,631058.22,631074.9,639623.82,639630,2023-09-01T11:39:01Z,639640.3,NULL,Kreativität,ubunifu,s,mratibu,mwendelezo,makubaliano,NA,sd,NA,4,NA,NA,NA,NA,NA,NA,NA,NA,NA,NA,NA,NA,NA,NA,NA,NA,NA,NA,NA
58588,task,flow.Sequence,3_0_4_0_5,NA,NA,completion,8548.9199999999,631063,631058.22,631074.9,639623.82,639630,2023-09-01T11:39:01Z,639640.3,NULL,Kreativität,ubunifu,s,mratibu,mwendelezo,makubaliano,NA,sd,NA,4,NA,NA,NA,NA,NA,NA,NA,NA,NA,NA,NA,NA,NA,NA,NA,NA,NA,NA,NA
58588,Deep Question,html.Page,3_0_4_0_6_0_0,NA,NA,form submission,13561.7,639631,639623.82,639640.3,653202,653203,2023-09-01T11:39:14Z,653205.32,NULL,Betrüger,mdanganyifu,d,NA,NA,NA,mydenyifu,NA,NA,4,NA,NA,NA,NA,NA,NA,NA,NA,NA,NA,NA,NA,NA,NA,NA,NA,NA,NA,NA
58588,"""Richtig""-Screen",canvas.Screen,3_0_4_0_6_0_1,NA,NA,skipped,NA,653205,NA,NA,653202,653205,2023-09-01T11:39:14Z,653205.32,NULL,Betrüger,mdanganyifu,d,NA,NA,NA,NA,sd,NA,4,NA,NA,NA,NA,NA,NA,NA,NA,NA,NA,NA,NA,NA,NA,NA,NA,NA,NA,NA
58588,"""Falsch""-Screen",canvas.Screen,3_0_4_0_6_0_2,NA,NA,timeout,4999.4,653208,653201.12,653205.32,658188.12,658189,2023-09-01T11:39:19Z,658204.72,NULL,Betrüger,mdanganyifu,d,NA,NA,NA,NA,sd,0,4,NA,NA,NA,NA,NA,NA,NA,NA,NA,NA,NA,NA,NA,NA,NA,NA,NA,NA,NA
58588,deep,flow.Sequence,3_0_4_0_6_0,NA,NA,completion,18547.82,639631,639623.82,639640.3,658188.12,658189,2023-09-01T11:39:19Z,658204.72,NULL,Betrüger,mdanganyifu,d,NA,NA,NA,NA,sd,NA,4,NA,NA,NA,NA,NA,NA,NA,NA,NA,NA,NA,NA,NA,NA,NA,NA,NA,NA,NA
58588,shallow,flow.Sequence,3_0_4_0_6_1,NA,NA,skipped,NA,658190,NA,NA,658188.12,658190,2023-09-01T11:39:19Z,658204.72,NULL,Betrüger,mdanganyifu,d,NA,NA,NA,NA,sd,NA,4,NA,NA,NA,NA,NA,NA,NA,NA,NA,NA,NA,NA,NA,NA,NA,NA,NA,NA,NA
58588,task,flow.Sequence,3_0_4_0_6,NA,NA,completion,18547.82,639630,639623.82,639640.3,658188.12,658190,2023-09-01T11:39:19Z,658204.72,NULL,Betrüger,mdanganyifu,d,NA,NA,NA,NA,sd,NA,4,NA,NA,NA,NA,NA,NA,NA,NA,NA,NA,NA,NA,NA,NA,NA,NA,NA,NA,NA
58588,Deep Question,html.Page,3_0_4_0_7_0_0,NA,NA,form submission,6669.28,658191,658188.12,658204.72,664874,664875,2023-09-01T11:39:26Z,664887.08,NULL,Kontrolle,kudhibiti,d,NA,NA,NA,ubowoza,NA,NA,4,NA,NA,NA,NA,NA,NA,NA,NA,NA,NA,NA,NA,NA,NA,NA,NA,NA,NA,NA
58588,"""Richtig""-Screen",canvas.Screen,3_0_4_0_7_0_1,NA,NA,skipped,NA,664877,NA,NA,664874,664877,2023-09-01T11:39:26Z,664887.08,NULL,Kontrolle,kudhibiti,d,NA,NA,NA,NA,sd,NA,4,NA,NA,NA,NA,NA,NA,NA,NA,NA,NA,NA,NA,NA,NA,NA,NA,NA,NA,NA
58588,"""Falsch""-Screen",canvas.Screen,3_0_4_0_7_0_2,NA,NA,timeout,4999.4400000001,664880,664872.98,664887.08,669869.84,669871,2023-09-01T11:39:31Z,669886.52,NULL,Kontrolle,kudhibiti,d,NA,NA,NA,NA,sd,0,4,NA,NA,NA,NA,NA,NA,NA,NA,NA,NA,NA,NA,NA,NA,NA,NA,NA,NA,NA
58588,deep,flow.Sequence,3_0_4_0_7_0,NA,NA,completion,11665.12,658190,658188.12,658204.72,669869.84,669872,2023-09-01T11:39:31Z,669886.52,NULL,Kontrolle,kudhibiti,d,NA,NA,NA,NA,sd,NA,4,NA,NA,NA,NA,NA,NA,NA,NA,NA,NA,NA,NA,NA,NA,NA,NA,NA,NA,NA
58588,shallow,flow.Sequence,3_0_4_0_7_1,NA,NA,skipped,NA,669872,NA,NA,669869.84,669872,2023-09-01T11:39:31Z,669886.52,NULL,Kontrolle,kudhibiti,d,NA,NA,NA,NA,sd,NA,4,NA,NA,NA,NA,NA,NA,NA,NA,NA,NA,NA,NA,NA,NA,NA,NA,NA,NA,NA
58588,task,flow.Sequence,3_0_4_0_7,NA,NA,completion,11665.12,658190,658188.12,658204.72,669869.84,669872,2023-09-01T11:39:31Z,669886.52,NULL,Kontrolle,kudhibiti,d,NA,NA,NA,NA,sd,NA,4,NA,NA,NA,NA,NA,NA,NA,NA,NA,NA,NA,NA,NA,NA,NA,NA,NA,NA,NA
58588,block,flow.Loop,3_0_4_0,NA,NA,completion,99140.2,570730,570729.3,570729.64,669869.84,669873,2023-09-01T11:39:31Z,669886.52,NULL,NA,NA,NA,NA,NA,NA,NA,sd,NA,4,NA,NA,NA,NA,NA,NA,NA,NA,NA,NA,NA,NA,NA,NA,NA,NA,NA,NA,NA
58588,weiter,canvas.Screen,3_0_4_1,sdf,keypress(Space),response,793.47999999998,669873,669869.84,669886.52,670680,670687,2023-09-01T11:39:32Z,670757.7,NULL,NA,NA,NA,NA,NA,NA,NA,sd,NA,4,NA,NA,NA,NA,NA,NA,NA,NA,NA,NA,NA,NA,NA,NA,NA,NA,NA,NA,NA
58588,check continue,flow.Sequence,3_0_4,NA,NA,completion,99950.36,570729,570729.3,570729.64,670680,670687,2023-09-01T11:39:32Z,670757.7,NULL,NA,NA,NA,NA,NA,NA,NA,sd,NA,4,NA,NA,NA,NA,NA,NA,NA,NA,NA,NA,NA,NA,NA,NA,NA,NA,NA,NA,NA
58588,deep,flow.Sequence,3_0_5_0_0_0,NA,NA,skipped,NA,670758,NA,NA,670680,670758,2023-09-01T11:39:32Z,670757.7,NULL,Können,unaweza,s,kiongozi,bustani,mienendo,NA,sdf,NA,5,NA,NA,NA,NA,NA,NA,NA,NA,NA,NA,NA,NA,NA,NA,NA,NA,NA,NA,NA
58588,Shallow Question,html.Page,3_0_5_0_0_1_0,NA,NA,form submission,4014.3,670758,670757.34,670757.7,674772,674773,2023-09-01T11:39:36Z,674769.2,NULL,Können,unaweza,s,kiongozi,bustani,mienendo,unaweza,NA,NA,5,NA,NA,NA,NA,NA,NA,NA,NA,NA,NA,NA,NA,NA,NA,NA,NA,NA,NA,NA
58588,"""Richtig""-Screen",canvas.Screen,3_0_5_0_0_1_1,NA,NA,timeout,4999.3400000001,674777,674767.36,674769.2,679751.94,679753,2023-09-01T11:39:41Z,679768.54,NULL,Können,unaweza,s,kiongozi,bustani,mienendo,NA,sdf,1,5,NA,NA,NA,NA,NA,NA,NA,NA,NA,NA,NA,NA,NA,NA,NA,NA,NA,NA,NA
58588,"""Falsch""-Screen",canvas.Screen,3_0_5_0_0_1_2,NA,NA,skipped,NA,679759,NA,NA,679751.94,679760,2023-09-01T11:39:41Z,679768.54,NULL,Können,unaweza,s,kiongozi,bustani,mienendo,NA,sdf,NA,5,NA,NA,NA,NA,NA,NA,NA,NA,NA,NA,NA,NA,NA,NA,NA,NA,NA,NA,NA
58588,shallow,flow.Sequence,3_0_5_0_0_1,NA,NA,completion,8994.24,670758,670757.34,670757.7,679751.94,679760,2023-09-01T11:39:41Z,679768.54,NULL,Können,unaweza,s,kiongozi,bustani,mienendo,NA,sdf,NA,5,NA,NA,NA,NA,NA,NA,NA,NA,NA,NA,NA,NA,NA,NA,NA,NA,NA,NA,NA
58588,task,flow.Sequence,3_0_5_0_0,NA,NA,completion,8994.24,670758,670757.34,670757.7,679751.94,679761,2023-09-01T11:39:41Z,679768.54,NULL,Können,unaweza,s,kiongozi,bustani,mienendo,NA,sdf,NA,5,NA,NA,NA,NA,NA,NA,NA,NA,NA,NA,NA,NA,NA,NA,NA,NA,NA,NA,NA
58588,Deep Question,html.Page,3_0_5_0_1_0_0,NA,NA,form submission,10153.46,679761,679751.94,679768.54,689922,689922,2023-09-01T11:39:51Z,689920.88,NULL,Gefährdung,kuhatarisha,d,NA,NA,NA,kishidi,NA,NA,5,NA,NA,NA,NA,NA,NA,NA,NA,NA,NA,NA,NA,NA,NA,NA,NA,NA,NA,NA
58588,"""Richtig""-Screen",canvas.Screen,3_0_5_0_1_0_1,NA,NA,skipped,NA,689924,NA,NA,689922,689924,2023-09-01T11:39:51Z,689920.88,NULL,Gefährdung,kuhatarisha,d,NA,NA,NA,NA,sdf,NA,5,NA,NA,NA,NA,NA,NA,NA,NA,NA,NA,NA,NA,NA,NA,NA,NA,NA,NA,NA
58588,"""Falsch""-Screen",canvas.Screen,3_0_5_0_1_0_2,NA,NA,timeout,4995.76,689926,689920.52,689920.88,694899.98,694903,2023-09-01T11:39:56Z,694916.64,NULL,Gefährdung,kuhatarisha,d,NA,NA,NA,NA,sdf,0,5,NA,NA,NA,NA,NA,NA,NA,NA,NA,NA,NA,NA,NA,NA,NA,NA,NA,NA,NA
58588,deep,flow.Sequence,3_0_5_0_1_0,NA,NA,completion,15131.44,679761,679751.94,679768.54,694899.98,694905,2023-09-01T11:39:56Z,694916.64,NULL,Gefährdung,kuhatarisha,d,NA,NA,NA,NA,sdf,NA,5,NA,NA,NA,NA,NA,NA,NA,NA,NA,NA,NA,NA,NA,NA,NA,NA,NA,NA,NA
58588,shallow,flow.Sequence,3_0_5_0_1_1,NA,NA,skipped,NA,694906,NA,NA,694899.98,694907,2023-09-01T11:39:56Z,694916.64,NULL,Gefährdung,kuhatarisha,d,NA,NA,NA,NA,sdf,NA,5,NA,NA,NA,NA,NA,NA,NA,NA,NA,NA,NA,NA,NA,NA,NA,NA,NA,NA,NA
58588,task,flow.Sequence,3_0_5_0_1,NA,NA,completion,15131.44,679761,679751.94,679768.54,694899.98,694907,2023-09-01T11:39:56Z,694916.64,NULL,Gefährdung,kuhatarisha,d,NA,NA,NA,NA,sdf,NA,5,NA,NA,NA,NA,NA,NA,NA,NA,NA,NA,NA,NA,NA,NA,NA,NA,NA,NA,NA
58588,deep,flow.Sequence,3_0_5_0_2_0,NA,NA,skipped,NA,694908,NA,NA,694899.98,694908,2023-09-01T11:39:56Z,694916.64,NULL,Kreativität,ubunifu,s,mratibu,mwendelezo,makubaliano,NA,sdf,NA,5,NA,NA,NA,NA,NA,NA,NA,NA,NA,NA,NA,NA,NA,NA,NA,NA,NA,NA,NA
58588,Shallow Question,html.Page,3_0_5_0_2_1_0,NA,NA,form submission,3716.36,694908,694899.98,694916.64,698633,698634,2023-09-01T11:40:00Z,698632.8,NULL,Kreativität,ubunifu,s,mratibu,mwendelezo,makubaliano,ubunifu,NA,NA,5,NA,NA,NA,NA,NA,NA,NA,NA,NA,NA,NA,NA,NA,NA,NA,NA,NA,NA,NA
58588,"""Richtig""-Screen",canvas.Screen,3_0_5_0_2_1_1,NA,NA,timeout,4999.34,698644,698625.34,698632.8,703615.52,703618,2023-09-01T11:40:05Z,703632.14,NULL,Kreativität,ubunifu,s,mratibu,mwendelezo,makubaliano,NA,sdf,1,5,NA,NA,NA,NA,NA,NA,NA,NA,NA,NA,NA,NA,NA,NA,NA,NA,NA,NA,NA
58588,"""Falsch""-Screen",canvas.Screen,3_0_5_0_2_1_2,NA,NA,skipped,NA,703625,NA,NA,703615.52,703625,2023-09-01T11:40:05Z,703632.14,NULL,Kreativität,ubunifu,s,mratibu,mwendelezo,makubaliano,NA,sdf,NA,5,NA,NA,NA,NA,NA,NA,NA,NA,NA,NA,NA,NA,NA,NA,NA,NA,NA,NA,NA
58588,shallow,flow.Sequence,3_0_5_0_2_1,NA,NA,completion,8698.88,694908,694899.98,694916.64,703615.52,703626,2023-09-01T11:40:05Z,703632.14,NULL,Kreativität,ubunifu,s,mratibu,mwendelezo,makubaliano,NA,sdf,NA,5,NA,NA,NA,NA,NA,NA,NA,NA,NA,NA,NA,NA,NA,NA,NA,NA,NA,NA,NA
58588,task,flow.Sequence,3_0_5_0_2,NA,NA,completion,8698.88,694908,694899.98,694916.64,703615.52,703627,2023-09-01T11:40:05Z,703632.14,NULL,Kreativität,ubunifu,s,mratibu,mwendelezo,makubaliano,NA,sdf,NA,5,NA,NA,NA,NA,NA,NA,NA,NA,NA,NA,NA,NA,NA,NA,NA,NA,NA,NA,NA
58588,Deep Question,html.Page,3_0_5_0_3_0_0,NA,NA,form submission,17585.86,703628,703615.52,703632.14,721218,721219,2023-09-01T11:40:22Z,721229.9,NULL,Kontrolle,kudhibiti,d,NA,NA,NA,kuhatarisha,NA,NA,5,NA,NA,NA,NA,NA,NA,NA,NA,NA,NA,NA,NA,NA,NA,NA,NA,NA,NA,NA
58588,"""Richtig""-Screen",canvas.Screen,3_0_5_0_3_0_1,NA,NA,skipped,NA,721222,NA,NA,721218,721222,2023-09-01T11:40:22Z,721229.9,NULL,Kontrolle,kudhibiti,d,NA,NA,NA,NA,sdf,NA,5,NA,NA,NA,NA,NA,NA,NA,NA,NA,NA,NA,NA,NA,NA,NA,NA,NA,NA,NA
58588,"""Falsch""-Screen",canvas.Screen,3_0_5_0_3_0_2,NA,NA,timeout,4999.38,721225,721216.76,721229.9,726212.6,726215,2023-09-01T11:40:27Z,726229.28,NULL,Kontrolle,kudhibiti,d,NA,NA,NA,NA,sdf,0,5,NA,NA,NA,NA,NA,NA,NA,NA,NA,NA,NA,NA,NA,NA,NA,NA,NA,NA,NA
58588,deep,flow.Sequence,3_0_5_0_3_0,NA,NA,completion,22580.46,703627,703615.52,703632.14,726212.6,726215,2023-09-01T11:40:27Z,726229.28,NULL,Kontrolle,kudhibiti,d,NA,NA,NA,NA,sdf,NA,5,NA,NA,NA,NA,NA,NA,NA,NA,NA,NA,NA,NA,NA,NA,NA,NA,NA,NA,NA
58588,shallow,flow.Sequence,3_0_5_0_3_1,NA,NA,skipped,NA,726216,NA,NA,726212.6,726216,2023-09-01T11:40:27Z,726229.28,NULL,Kontrolle,kudhibiti,d,NA,NA,NA,NA,sdf,NA,5,NA,NA,NA,NA,NA,NA,NA,NA,NA,NA,NA,NA,NA,NA,NA,NA,NA,NA,NA
58588,task,flow.Sequence,3_0_5_0_3,NA,NA,completion,22580.46,703627,703615.52,703632.14,726212.6,726217,2023-09-01T11:40:27Z,726229.28,NULL,Kontrolle,kudhibiti,d,NA,NA,NA,NA,sdf,NA,5,NA,NA,NA,NA,NA,NA,NA,NA,NA,NA,NA,NA,NA,NA,NA,NA,NA,NA,NA
58588,Deep Question,html.Page,3_0_5_0_4_0_0,NA,NA,form submission,9205.72,726217,726212.6,726229.28,735435,735435,2023-09-01T11:40:37Z,735444.66,NULL,Betrüger,mdanganyifu,d,NA,NA,NA,mdengenyifu,NA,NA,5,NA,NA,NA,NA,NA,NA,NA,NA,NA,NA,NA,NA,NA,NA,NA,NA,NA,NA,NA
58588,"""Richtig""-Screen",canvas.Screen,3_0_5_0_4_0_1,NA,NA,skipped,NA,735438,NA,NA,735435,735438,2023-09-01T11:40:37Z,735444.66,NULL,Betrüger,mdanganyifu,d,NA,NA,NA,NA,sdf,NA,5,NA,NA,NA,NA,NA,NA,NA,NA,NA,NA,NA,NA,NA,NA,NA,NA,NA,NA,NA
58588,"""Falsch""-Screen",canvas.Screen,3_0_5_0_4_0_2,NA,NA,timeout,4999.4,735442,735433.88,735444.66,740427.4,740428,2023-09-01T11:40:42Z,740444.06,NULL,Betrüger,mdanganyifu,d,NA,NA,NA,NA,sdf,0,5,NA,NA,NA,NA,NA,NA,NA,NA,NA,NA,NA,NA,NA,NA,NA,NA,NA,NA,NA
58588,deep,flow.Sequence,3_0_5_0_4_0,NA,NA,completion,14198.12,726217,726212.6,726229.28,740427.4,740428,2023-09-01T11:40:42Z,740444.06,NULL,Betrüger,mdanganyifu,d,NA,NA,NA,NA,sdf,NA,5,NA,NA,NA,NA,NA,NA,NA,NA,NA,NA,NA,NA,NA,NA,NA,NA,NA,NA,NA
58588,shallow,flow.Sequence,3_0_5_0_4_1,NA,NA,skipped,NA,740429,NA,NA,740427.4,740429,2023-09-01T11:40:42Z,740444.06,NULL,Betrüger,mdanganyifu,d,NA,NA,NA,NA,sdf,NA,5,NA,NA,NA,NA,NA,NA,NA,NA,NA,NA,NA,NA,NA,NA,NA,NA,NA,NA,NA
58588,task,flow.Sequence,3_0_5_0_4,NA,NA,completion,14198.12,726217,726212.6,726229.28,740427.4,740430,2023-09-01T11:40:42Z,740444.06,NULL,Betrüger,mdanganyifu,d,NA,NA,NA,NA,sdf,NA,5,NA,NA,NA,NA,NA,NA,NA,NA,NA,NA,NA,NA,NA,NA,NA,NA,NA,NA,NA
58588,Deep Question,html.Page,3_0_5_0_5_0_0,NA,NA,form submission,3539.9399999999,740430,740427.4,740444.06,743984,743984,2023-09-01T11:40:45Z,743993.6,NULL,Stimmung,kinyongo,d,NA,NA,NA,kinyongo,NA,NA,5,NA,NA,NA,NA,NA,NA,NA,NA,NA,NA,NA,NA,NA,NA,NA,NA,NA,NA,NA
58588,"""Richtig""-Screen",canvas.Screen,3_0_5_0_5_0_1,NA,NA,timeout,4999.38,743987,743982.96,743993.6,748976.34,748978,2023-09-01T11:40:50Z,748992.98,NULL,Stimmung,kinyongo,d,NA,NA,NA,NA,sdf,1,5,NA,NA,NA,NA,NA,NA,NA,NA,NA,NA,NA,NA,NA,NA,NA,NA,NA,NA,NA
58588,"""Falsch""-Screen",canvas.Screen,3_0_5_0_5_0_2,NA,NA,skipped,NA,748985,NA,NA,748976.34,748985,2023-09-01T11:40:50Z,748992.98,NULL,Stimmung,kinyongo,d,NA,NA,NA,NA,sdf,NA,5,NA,NA,NA,NA,NA,NA,NA,NA,NA,NA,NA,NA,NA,NA,NA,NA,NA,NA,NA
58588,deep,flow.Sequence,3_0_5_0_5_0,NA,NA,completion,8532.2799999999,740430,740427.4,740444.06,748976.34,748986,2023-09-01T11:40:50Z,748992.98,NULL,Stimmung,kinyongo,d,NA,NA,NA,NA,sdf,NA,5,NA,NA,NA,NA,NA,NA,NA,NA,NA,NA,NA,NA,NA,NA,NA,NA,NA,NA,NA
58588,shallow,flow.Sequence,3_0_5_0_5_1,NA,NA,skipped,NA,748986,NA,NA,748976.34,748986,2023-09-01T11:40:50Z,748992.98,NULL,Stimmung,kinyongo,d,NA,NA,NA,NA,sdf,NA,5,NA,NA,NA,NA,NA,NA,NA,NA,NA,NA,NA,NA,NA,NA,NA,NA,NA,NA,NA
58588,task,flow.Sequence,3_0_5_0_5,NA,NA,completion,8532.2799999999,740430,740427.4,740444.06,748976.34,748986,2023-09-01T11:40:50Z,748992.98,NULL,Stimmung,kinyongo,d,NA,NA,NA,NA,sdf,NA,5,NA,NA,NA,NA,NA,NA,NA,NA,NA,NA,NA,NA,NA,NA,NA,NA,NA,NA,NA
58588,deep,flow.Sequence,3_0_5_0_6_0,NA,NA,skipped,NA,748987,NA,NA,748976.34,748987,2023-09-01T11:40:50Z,748992.98,NULL,Orientierung,urekebisho,s,uelekeo,marekebisho,utunzaji,NA,sdf,NA,5,NA,NA,NA,NA,NA,NA,NA,NA,NA,NA,NA,NA,NA,NA,NA,NA,NA,NA,NA
58588,Shallow Question,html.Page,3_0_5_0_6_1_0,NA,NA,form submission,4198.02,748987,748976.34,748992.98,753191,753193,2023-09-01T11:40:54Z,753192.46,NULL,Orientierung,urekebisho,s,uelekeo,marekebisho,utunzaji,urekebisho,NA,NA,5,NA,NA,NA,NA,NA,NA,NA,NA,NA,NA,NA,NA,NA,NA,NA,NA,NA,NA,NA
58588,"""Richtig""-Screen",canvas.Screen,3_0_5_0_6_1_1,NA,NA,timeout,4999.38,753203,753183.08,753192.46,758175.16,758177,2023-09-01T11:40:59Z,758191.84,NULL,Orientierung,urekebisho,s,uelekeo,marekebisho,utunzaji,NA,sdf,1,5,NA,NA,NA,NA,NA,NA,NA,NA,NA,NA,NA,NA,NA,NA,NA,NA,NA,NA,NA
58588,"""Falsch""-Screen",canvas.Screen,3_0_5_0_6_1_2,NA,NA,skipped,NA,758184,NA,NA,758175.16,758185,2023-09-01T11:40:59Z,758191.84,NULL,Orientierung,urekebisho,s,uelekeo,marekebisho,utunzaji,NA,sdf,NA,5,NA,NA,NA,NA,NA,NA,NA,NA,NA,NA,NA,NA,NA,NA,NA,NA,NA,NA,NA
58588,shallow,flow.Sequence,3_0_5_0_6_1,NA,NA,completion,9182.1800000001,748987,748976.34,748992.98,758175.16,758186,2023-09-01T11:40:59Z,758191.84,NULL,Orientierung,urekebisho,s,uelekeo,marekebisho,utunzaji,NA,sdf,NA,5,NA,NA,NA,NA,NA,NA,NA,NA,NA,NA,NA,NA,NA,NA,NA,NA,NA,NA,NA
58588,task,flow.Sequence,3_0_5_0_6,NA,NA,completion,9182.1800000001,748987,748976.34,748992.98,758175.16,758186,2023-09-01T11:40:59Z,758191.84,NULL,Orientierung,urekebisho,s,uelekeo,marekebisho,utunzaji,NA,sdf,NA,5,NA,NA,NA,NA,NA,NA,NA,NA,NA,NA,NA,NA,NA,NA,NA,NA,NA,NA,NA
58588,deep,flow.Sequence,3_0_5_0_7_0,NA,NA,skipped,NA,758187,NA,NA,758175.16,758187,2023-09-01T11:40:59Z,758191.84,NULL,Respekt,heshima,s,changamnao,upinzani,ufanisi,NA,sdf,NA,5,NA,NA,NA,NA,NA,NA,NA,NA,NA,NA,NA,NA,NA,NA,NA,NA,NA,NA,NA
58588,Shallow Question,html.Page,3_0_5_0_7_1_0,NA,NA,form submission,3629.16,758188,758175.16,758191.84,761821,761822,2023-09-01T11:41:03Z,761824.56,NULL,Respekt,heshima,s,changamnao,upinzani,ufanisi,heshima,NA,NA,5,NA,NA,NA,NA,NA,NA,NA,NA,NA,NA,NA,NA,NA,NA,NA,NA,NA,NA,NA
58588,"""Richtig""-Screen",canvas.Screen,3_0_5_0_7_1_1,NA,NA,timeout,4999.48,761826,761817.36,761824.56,766807.44,766809,2023-09-01T11:41:08Z,766824.04,NULL,Respekt,heshima,s,changamnao,upinzani,ufanisi,NA,sdf,1,5,NA,NA,NA,NA,NA,NA,NA,NA,NA,NA,NA,NA,NA,NA,NA,NA,NA,NA,NA
58588,"""Falsch""-Screen",canvas.Screen,3_0_5_0_7_1_2,NA,NA,skipped,NA,766816,NA,NA,766807.44,766817,2023-09-01T11:41:08Z,766824.04,NULL,Respekt,heshima,s,changamnao,upinzani,ufanisi,NA,sdf,NA,5,NA,NA,NA,NA,NA,NA,NA,NA,NA,NA,NA,NA,NA,NA,NA,NA,NA,NA,NA
58588,shallow,flow.Sequence,3_0_5_0_7_1,NA,NA,completion,8615.6,758187,758175.16,758191.84,766807.44,766818,2023-09-01T11:41:08Z,766824.04,NULL,Respekt,heshima,s,changamnao,upinzani,ufanisi,NA,sdf,NA,5,NA,NA,NA,NA,NA,NA,NA,NA,NA,NA,NA,NA,NA,NA,NA,NA,NA,NA,NA
58588,task,flow.Sequence,3_0_5_0_7,NA,NA,completion,8615.6,758187,758175.16,758191.84,766807.44,766819,2023-09-01T11:41:08Z,766824.04,NULL,Respekt,heshima,s,changamnao,upinzani,ufanisi,NA,sdf,NA,5,NA,NA,NA,NA,NA,NA,NA,NA,NA,NA,NA,NA,NA,NA,NA,NA,NA,NA,NA
58588,block,flow.Loop,3_0_5_0,NA,NA,completion,96049.74,670757,670757.34,670757.7,766807.44,766819,2023-09-01T11:41:08Z,766824.04,NULL,NA,NA,NA,NA,NA,NA,NA,sdf,NA,5,NA,NA,NA,NA,NA,NA,NA,NA,NA,NA,NA,NA,NA,NA,NA,NA,NA,NA,NA
58588,weiter,canvas.Screen,3_0_5_1,sdf,keypress(Space),response,888.95999999996,766819,766807.44,766824.04,767713,767721,2023-09-01T11:41:09Z,767773.9,NULL,NA,NA,NA,NA,NA,NA,NA,sdf,NA,5,NA,NA,NA,NA,NA,NA,NA,NA,NA,NA,NA,NA,NA,NA,NA,NA,NA,NA,NA
58588,check continue,flow.Sequence,3_0_5,NA,NA,completion,96955.3,670757,670757.34,670757.7,767713,767721,2023-09-01T11:41:09Z,767773.9,NULL,NA,NA,NA,NA,NA,NA,NA,sdf,NA,5,NA,NA,NA,NA,NA,NA,NA,NA,NA,NA,NA,NA,NA,NA,NA,NA,NA,NA,NA
58588,deep,flow.Sequence,3_0_6_0_0_0,NA,NA,skipped,NA,767773,NA,NA,767713,767773,2023-09-01T11:41:09Z,767773.9,NULL,Respekt,heshima,s,changamnao,upinzani,ufanisi,NA,dfs,NA,6,NA,NA,NA,NA,NA,NA,NA,NA,NA,NA,NA,NA,NA,NA,NA,NA,NA,NA,NA
58588,Shallow Question,html.Page,3_0_6_0_0_1_0,NA,NA,form submission,2603.1,767773,767773.54,767773.9,770377,770377,2023-09-01T11:41:12Z,770390.18,NULL,Respekt,heshima,s,changamnao,upinzani,ufanisi,heshima,NA,NA,6,NA,NA,NA,NA,NA,NA,NA,NA,NA,NA,NA,NA,NA,NA,NA,NA,NA,NA,NA
58588,"""Richtig""-Screen",canvas.Screen,3_0_6_0_0_1_1,NA,NA,timeout,4999.4399999999,770378,770375.3,770390.18,775372.94,775375,2023-09-01T11:41:17Z,775389.62,NULL,Respekt,heshima,s,changamnao,upinzani,ufanisi,NA,dfs,1,6,NA,NA,NA,NA,NA,NA,NA,NA,NA,NA,NA,NA,NA,NA,NA,NA,NA,NA,NA
58588,"""Falsch""-Screen",canvas.Screen,3_0_6_0_0_1_2,NA,NA,skipped,NA,775380,NA,NA,775372.94,775380,2023-09-01T11:41:17Z,775389.62,NULL,Respekt,heshima,s,changamnao,upinzani,ufanisi,NA,dfs,NA,6,NA,NA,NA,NA,NA,NA,NA,NA,NA,NA,NA,NA,NA,NA,NA,NA,NA,NA,NA
58588,shallow,flow.Sequence,3_0_6_0_0_1,NA,NA,completion,7599.0399999999,767773,767773.54,767773.9,775372.94,775381,2023-09-01T11:41:17Z,775389.62,NULL,Respekt,heshima,s,changamnao,upinzani,ufanisi,NA,dfs,NA,6,NA,NA,NA,NA,NA,NA,NA,NA,NA,NA,NA,NA,NA,NA,NA,NA,NA,NA,NA
58588,task,flow.Sequence,3_0_6_0_0,NA,NA,completion,7599.0399999999,767773,767773.54,767773.9,775372.94,775381,2023-09-01T11:41:17Z,775389.62,NULL,Respekt,heshima,s,changamnao,upinzani,ufanisi,NA,dfs,NA,6,NA,NA,NA,NA,NA,NA,NA,NA,NA,NA,NA,NA,NA,NA,NA,NA,NA,NA,NA
58588,deep,flow.Sequence,3_0_6_0_1_0,NA,NA,skipped,NA,775381,NA,NA,775372.94,775381,2023-09-01T11:41:17Z,775389.62,NULL,Können,unaweza,s,kiongozi,bustani,mienendo,NA,dfs,NA,6,NA,NA,NA,NA,NA,NA,NA,NA,NA,NA,NA,NA,NA,NA,NA,NA,NA,NA,NA
58588,Shallow Question,html.Page,3_0_6_0_1_1_0,NA,NA,form submission,5326.38,775382,775372.94,775389.62,780716,780716,2023-09-01T11:41:22Z,780722.14,NULL,Können,unaweza,s,kiongozi,bustani,mienendo,unaweza,NA,NA,6,NA,NA,NA,NA,NA,NA,NA,NA,NA,NA,NA,NA,NA,NA,NA,NA,NA,NA,NA
58588,"""Richtig""-Screen",canvas.Screen,3_0_6_0_1_1_1,NA,NA,timeout,4999.4,780719,780712.28,780722.14,785704.86,785707,2023-09-01T11:41:27Z,785721.54,NULL,Können,unaweza,s,kiongozi,bustani,mienendo,NA,dfs,1,6,NA,NA,NA,NA,NA,NA,NA,NA,NA,NA,NA,NA,NA,NA,NA,NA,NA,NA,NA
58588,"""Falsch""-Screen",canvas.Screen,3_0_6_0_1_1_2,NA,NA,skipped,NA,785712,NA,NA,785704.86,785712,2023-09-01T11:41:27Z,785721.54,NULL,Können,unaweza,s,kiongozi,bustani,mienendo,NA,dfs,NA,6,NA,NA,NA,NA,NA,NA,NA,NA,NA,NA,NA,NA,NA,NA,NA,NA,NA,NA,NA
58588,shallow,flow.Sequence,3_0_6_0_1_1,NA,NA,completion,10315.24,775382,775372.94,775389.62,785704.86,785712,2023-09-01T11:41:27Z,785721.54,NULL,Können,unaweza,s,kiongozi,bustani,mienendo,NA,dfs,NA,6,NA,NA,NA,NA,NA,NA,NA,NA,NA,NA,NA,NA,NA,NA,NA,NA,NA,NA,NA
58588,task,flow.Sequence,3_0_6_0_1,NA,NA,completion,10315.24,775381,775372.94,775389.62,785704.86,785712,2023-09-01T11:41:27Z,785721.54,NULL,Können,unaweza,s,kiongozi,bustani,mienendo,NA,dfs,NA,6,NA,NA,NA,NA,NA,NA,NA,NA,NA,NA,NA,NA,NA,NA,NA,NA,NA,NA,NA
58588,Deep Question,html.Page,3_0_6_0_2_0_0,NA,NA,form submission,3802.46,785713,785704.86,785721.54,789524,789524,2023-09-01T11:41:31Z,789537.64,NULL,Stimmung,kinyongo,d,NA,NA,NA,kinyongo,NA,NA,6,NA,NA,NA,NA,NA,NA,NA,NA,NA,NA,NA,NA,NA,NA,NA,NA,NA,NA,NA
58588,"""Richtig""-Screen",canvas.Screen,3_0_6_0_2_0_1,NA,NA,timeout,4999.4,789526,789522.78,789537.64,794520.46,794521,2023-09-01T11:41:36Z,794537.04,NULL,Stimmung,kinyongo,d,NA,NA,NA,NA,dfs,1,6,NA,NA,NA,NA,NA,NA,NA,NA,NA,NA,NA,NA,NA,NA,NA,NA,NA,NA,NA
58588,"""Falsch""-Screen",canvas.Screen,3_0_6_0_2_0_2,NA,NA,skipped,NA,794525,NA,NA,794520.46,794526,2023-09-01T11:41:36Z,794537.04,NULL,Stimmung,kinyongo,d,NA,NA,NA,NA,dfs,NA,6,NA,NA,NA,NA,NA,NA,NA,NA,NA,NA,NA,NA,NA,NA,NA,NA,NA,NA,NA
58588,deep,flow.Sequence,3_0_6_0_2_0,NA,NA,completion,8798.9199999999,785713,785704.86,785721.54,794520.46,794526,2023-09-01T11:41:36Z,794537.04,NULL,Stimmung,kinyongo,d,NA,NA,NA,NA,dfs,NA,6,NA,NA,NA,NA,NA,NA,NA,NA,NA,NA,NA,NA,NA,NA,NA,NA,NA,NA,NA
58588,shallow,flow.Sequence,3_0_6_0_2_1,NA,NA,skipped,NA,794526,NA,NA,794520.46,794527,2023-09-01T11:41:36Z,794537.04,NULL,Stimmung,kinyongo,d,NA,NA,NA,NA,dfs,NA,6,NA,NA,NA,NA,NA,NA,NA,NA,NA,NA,NA,NA,NA,NA,NA,NA,NA,NA,NA
58588,task,flow.Sequence,3_0_6_0_2,NA,NA,completion,8798.9199999999,785713,785704.86,785721.54,794520.46,794527,2023-09-01T11:41:36Z,794537.04,NULL,Stimmung,kinyongo,d,NA,NA,NA,NA,dfs,NA,6,NA,NA,NA,NA,NA,NA,NA,NA,NA,NA,NA,NA,NA,NA,NA,NA,NA,NA,NA
58588,deep,flow.Sequence,3_0_6_0_3_0,NA,NA,skipped,NA,794527,NA,NA,794520.46,794527,2023-09-01T11:41:36Z,794537.04,NULL,Kreativität,ubunifu,s,mratibu,mwendelezo,makubaliano,NA,dfs,NA,6,NA,NA,NA,NA,NA,NA,NA,NA,NA,NA,NA,NA,NA,NA,NA,NA,NA,NA,NA
58588,Shallow Question,html.Page,3_0_6_0_3_1_0,NA,NA,form submission,3486.96,794527,794520.46,794537.04,798024,798025,2023-09-01T11:41:39Z,798036.56,NULL,Kreativität,ubunifu,s,mratibu,mwendelezo,makubaliano,ubunifu,NA,NA,6,NA,NA,NA,NA,NA,NA,NA,NA,NA,NA,NA,NA,NA,NA,NA,NA,NA,NA,NA
58588,"""Richtig""-Screen",canvas.Screen,3_0_6_0_3_1_1,NA,NA,timeout,4999.3999999999,798028,798021.2,798036.56,803019.32,803020,2023-09-01T11:41:44Z,803035.96,NULL,Kreativität,ubunifu,s,mratibu,mwendelezo,makubaliano,NA,dfs,1,6,NA,NA,NA,NA,NA,NA,NA,NA,NA,NA,NA,NA,NA,NA,NA,NA,NA,NA,NA
58588,"""Falsch""-Screen",canvas.Screen,3_0_6_0_3_1_2,NA,NA,skipped,NA,803025,NA,NA,803019.32,803026,2023-09-01T11:41:44Z,803035.96,NULL,Kreativität,ubunifu,s,mratibu,mwendelezo,makubaliano,NA,dfs,NA,6,NA,NA,NA,NA,NA,NA,NA,NA,NA,NA,NA,NA,NA,NA,NA,NA,NA,NA,NA
58588,shallow,flow.Sequence,3_0_6_0_3_1,NA,NA,completion,8482.2799999999,794527,794520.46,794537.04,803019.32,803026,2023-09-01T11:41:44Z,803035.96,NULL,Kreativität,ubunifu,s,mratibu,mwendelezo,makubaliano,NA,dfs,NA,6,NA,NA,NA,NA,NA,NA,NA,NA,NA,NA,NA,NA,NA,NA,NA,NA,NA,NA,NA
58588,task,flow.Sequence,3_0_6_0_3,NA,NA,completion,8482.2799999999,794527,794520.46,794537.04,803019.32,803027,2023-09-01T11:41:44Z,803035.96,NULL,Kreativität,ubunifu,s,mratibu,mwendelezo,makubaliano,NA,dfs,NA,6,NA,NA,NA,NA,NA,NA,NA,NA,NA,NA,NA,NA,NA,NA,NA,NA,NA,NA,NA
58588,Deep Question,html.Page,3_0_6_0_4_0_0,NA,NA,form submission,9307.04,803027,803019.32,803035.96,812343,812343,2023-09-01T11:41:54Z,812351.38,NULL,Gefährdung,kuhatarisha,d,NA,NA,NA,kuhatarisha,NA,NA,6,NA,NA,NA,NA,NA,NA,NA,NA,NA,NA,NA,NA,NA,NA,NA,NA,NA,NA,NA
58588,"""Richtig""-Screen",canvas.Screen,3_0_6_0_4_0_1,NA,NA,timeout,4999.42,812345,812342.1,812351.38,817334.12,817336,2023-09-01T11:41:59Z,817350.8,NULL,Gefährdung,kuhatarisha,d,NA,NA,NA,NA,dfs,1,6,NA,NA,NA,NA,NA,NA,NA,NA,NA,NA,NA,NA,NA,NA,NA,NA,NA,NA,NA
58588,"""Falsch""-Screen",canvas.Screen,3_0_6_0_4_0_2,NA,NA,skipped,NA,817342,NA,NA,817334.12,817342,2023-09-01T11:41:59Z,817350.8,NULL,Gefährdung,kuhatarisha,d,NA,NA,NA,NA,dfs,NA,6,NA,NA,NA,NA,NA,NA,NA,NA,NA,NA,NA,NA,NA,NA,NA,NA,NA,NA,NA
58588,deep,flow.Sequence,3_0_6_0_4_0,NA,NA,completion,14298.16,803027,803019.32,803035.96,817334.12,817343,2023-09-01T11:41:59Z,817350.8,NULL,Gefährdung,kuhatarisha,d,NA,NA,NA,NA,dfs,NA,6,NA,NA,NA,NA,NA,NA,NA,NA,NA,NA,NA,NA,NA,NA,NA,NA,NA,NA,NA
58588,shallow,flow.Sequence,3_0_6_0_4_1,NA,NA,skipped,NA,817343,NA,NA,817334.12,817343,2023-09-01T11:41:59Z,817350.8,NULL,Gefährdung,kuhatarisha,d,NA,NA,NA,NA,dfs,NA,6,NA,NA,NA,NA,NA,NA,NA,NA,NA,NA,NA,NA,NA,NA,NA,NA,NA,NA,NA
58588,task,flow.Sequence,3_0_6_0_4,NA,NA,completion,14298.16,803027,803019.32,803035.96,817334.12,817344,2023-09-01T11:41:59Z,817350.8,NULL,Gefährdung,kuhatarisha,d,NA,NA,NA,NA,dfs,NA,6,NA,NA,NA,NA,NA,NA,NA,NA,NA,NA,NA,NA,NA,NA,NA,NA,NA,NA,NA
58588,deep,flow.Sequence,3_0_6_0_5_0,NA,NA,skipped,NA,817344,NA,NA,817334.12,817344,2023-09-01T11:41:59Z,817350.8,NULL,Orientierung,urekebisho,s,uelekeo,marekebisho,utunzaji,NA,dfs,NA,6,NA,NA,NA,NA,NA,NA,NA,NA,NA,NA,NA,NA,NA,NA,NA,NA,NA,NA,NA
58588,Shallow Question,html.Page,3_0_6_0_5_1_0,NA,NA,form submission,3644.2,817345,817334.12,817350.8,820995,820995,2023-09-01T11:42:02Z,821000.34,NULL,Orientierung,urekebisho,s,uelekeo,marekebisho,utunzaji,urekebisho,NA,NA,6,NA,NA,NA,NA,NA,NA,NA,NA,NA,NA,NA,NA,NA,NA,NA,NA,NA,NA,NA
58588,"""Richtig""-Screen",canvas.Screen,3_0_6_0_5_1_1,NA,NA,timeout,4999.3200000001,821000,820989.4,821000.34,825983.06,825988,2023-09-01T11:42:07Z,825999.66,NULL,Orientierung,urekebisho,s,uelekeo,marekebisho,utunzaji,NA,dfs,1,6,NA,NA,NA,NA,NA,NA,NA,NA,NA,NA,NA,NA,NA,NA,NA,NA,NA,NA,NA
58588,"""Falsch""-Screen",canvas.Screen,3_0_6_0_5_1_2,NA,NA,skipped,NA,826001,NA,NA,825983.06,826001,2023-09-01T11:42:07Z,825999.66,NULL,Orientierung,urekebisho,s,uelekeo,marekebisho,utunzaji,NA,dfs,NA,6,NA,NA,NA,NA,NA,NA,NA,NA,NA,NA,NA,NA,NA,NA,NA,NA,NA,NA,NA
58588,shallow,flow.Sequence,3_0_6_0_5_1,NA,NA,completion,8632.26,817345,817334.12,817350.8,825983.06,826001,2023-09-01T11:42:07Z,825999.66,NULL,Orientierung,urekebisho,s,uelekeo,marekebisho,utunzaji,NA,dfs,NA,6,NA,NA,NA,NA,NA,NA,NA,NA,NA,NA,NA,NA,NA,NA,NA,NA,NA,NA,NA
58588,task,flow.Sequence,3_0_6_0_5,NA,NA,completion,8632.26,817344,817334.12,817350.8,825983.06,826002,2023-09-01T11:42:07Z,825999.66,NULL,Orientierung,urekebisho,s,uelekeo,marekebisho,utunzaji,NA,dfs,NA,6,NA,NA,NA,NA,NA,NA,NA,NA,NA,NA,NA,NA,NA,NA,NA,NA,NA,NA,NA
58588,Deep Question,html.Page,3_0_6_0_6_0_0,NA,NA,form submission,18902.34,826002,825983.06,825999.66,844902,844903,2023-09-01T11:42:26Z,844901.48,NULL,Betrüger,mdanganyifu,d,NA,NA,NA,mdanganyifu,NA,NA,6,NA,NA,NA,NA,NA,NA,NA,NA,NA,NA,NA,NA,NA,NA,NA,NA,NA,NA,NA
58588,"""Richtig""-Screen",canvas.Screen,3_0_6_0_6_0_1,NA,NA,timeout,4995.1,844906,844901.12,844901.48,849879.96,849882,2023-09-01T11:42:31Z,849896.58,NULL,Betrüger,mdanganyifu,d,NA,NA,NA,NA,dfs,1,6,NA,NA,NA,NA,NA,NA,NA,NA,NA,NA,NA,NA,NA,NA,NA,NA,NA,NA,NA
58588,"""Falsch""-Screen",canvas.Screen,3_0_6_0_6_0_2,NA,NA,skipped,NA,849889,NA,NA,849879.96,849889,2023-09-01T11:42:31Z,849896.58,NULL,Betrüger,mdanganyifu,d,NA,NA,NA,NA,dfs,NA,6,NA,NA,NA,NA,NA,NA,NA,NA,NA,NA,NA,NA,NA,NA,NA,NA,NA,NA,NA
58588,deep,flow.Sequence,3_0_6_0_6_0,NA,NA,completion,23880.3,826002,825983.06,825999.66,849879.96,849889,2023-09-01T11:42:31Z,849896.58,NULL,Betrüger,mdanganyifu,d,NA,NA,NA,NA,dfs,NA,6,NA,NA,NA,NA,NA,NA,NA,NA,NA,NA,NA,NA,NA,NA,NA,NA,NA,NA,NA
58588,shallow,flow.Sequence,3_0_6_0_6_1,NA,NA,skipped,NA,849889,NA,NA,849879.96,849890,2023-09-01T11:42:31Z,849896.58,NULL,Betrüger,mdanganyifu,d,NA,NA,NA,NA,dfs,NA,6,NA,NA,NA,NA,NA,NA,NA,NA,NA,NA,NA,NA,NA,NA,NA,NA,NA,NA,NA
58588,task,flow.Sequence,3_0_6_0_6,NA,NA,completion,23880.3,826002,825983.06,825999.66,849879.96,849890,2023-09-01T11:42:31Z,849896.58,NULL,Betrüger,mdanganyifu,d,NA,NA,NA,NA,dfs,NA,6,NA,NA,NA,NA,NA,NA,NA,NA,NA,NA,NA,NA,NA,NA,NA,NA,NA,NA,NA
58588,Deep Question,html.Page,3_0_6_0_7_0_0,NA,NA,form submission,14182.42,849891,849879.96,849896.58,864079,864079,2023-09-01T11:42:45Z,864078.1,NULL,Kontrolle,kudhibiti,d,NA,NA,NA,kidhiti,NA,NA,6,NA,NA,NA,NA,NA,NA,NA,NA,NA,NA,NA,NA,NA,NA,NA,NA,NA,NA,NA
