observation,sender,sender_type,sender_id,response,response_action,ended_on,duration,time_run,time_render,time_show,time_end,time_commit,timestamp,time_switch,distractors,german,swahili,enc,distractor1,distractor2,distractor3,response_2,x,correct,x_2,url_vp,url_sess,meta_labjs_version,meta_location,meta_user_agent,meta_platform,meta_language,meta_locale,meta_time_zone,meta_timezone_offset,meta_screen_width,meta_screen_height,meta_scroll_width,meta_scroll_height,meta_window_inner_width,meta_window_inner_height,meta_device_pixel_ratio,meta_labjs_build_flavor,meta_labjs_build_commit
805b2,Introduction general,canvas.Screen,0,weiter,keypress(q),response,6758.5000000954,742.40000009537,160.4,743.4,7501.9000000954,7504.2999999523,2024-05-08T19:35:43Z,7524.3,NULL,NA,NA,NA,NA,NA,NA,NA,NA,NA,NA,228,1,20.2.4,https://neurocog.fernuni.ch/studies/vweber/aberisha/encoding_immediate/index.html?vp=228&sess=1,"Mozilla/5.0 (Windows NT 10.0; Win64; x64) AppleWebKit/537.36 (KHTML, like Gecko) Chrome/124.0.0.0 Safari/537.36",Win32,de-DE,de,Europe/Zurich,-120,1536,864,1536,682,1536,730,1.25,production,f5b4a49f956347addd546a832a3327688c2c0fef
805b2,Introduction practice,canvas.Screen,1_0,NA,keypress(Space),response,2916.6000000954,7504.9000000954,7489.798,7524.3,10440.900000095,10442,2024-05-08T19:35:46Z,10471.5,NULL,NA,NA,NA,NA,NA,NA,NA,NA,NA,NA,NA,NA,NA,NA,NA,NA,NA,NA,NA,NA,NA,NA,NA,NA,NA,NA,NA,NA,NA
805b2,Deep Question,html.Page,1_1_0_0_0,NA,NA,form submission,5444.5999999046,10442.400000095,10455.046,10471.5,15916.099999905,15916.400000095,2024-05-08T19:35:52Z,15918.208,"c(""distractor1"", ""distractor2"", ""distractor3"")",Qualität,mtindo,d,NA,NA,NA,d,NA,NA,NA,NA,NA,NA,NA,NA,NA,NA,NA,NA,NA,NA,NA,NA,NA,NA,NA,NA,NA,NA
805b2,"""Richtig""-Screen",canvas.Screen,1_1_0_0_1,NA,NA,skipped,NA,15917.900000095,NA,NA,15916.099999905,15918.099999905,2024-05-08T19:35:52Z,15918.208,"c(""distractor1"", ""distractor2"", ""distractor3"")",Qualität,mtindo,d,NA,NA,NA,NA,NA,NA,NA,NA,NA,NA,NA,NA,NA,NA,NA,NA,NA,NA,NA,NA,NA,NA,NA,NA,NA,NA
805b2,"""Falsch""-Screen",canvas.Screen,1_1_0_0_2,NA,NA,timeout,4996.692,15919.400000095,15918.208,15918.208,20898.1,20899.900000095,2024-05-08T19:35:57Z,20914.9,"c(""distractor1"", ""distractor2"", ""distractor3"")",Qualität,mtindo,d,NA,NA,NA,NA,NA,0,NA,NA,NA,NA,NA,NA,NA,NA,NA,NA,NA,NA,NA,NA,NA,NA,NA,NA,NA,NA
805b2,deep,flow.Sequence,1_1_0_0,NA,NA,completion,10426.6,10442.299999952,10455.046,10471.5,20898.1,20900.400000095,2024-05-08T19:35:57Z,20914.9,"c(""distractor1"", ""distractor2"", ""distractor3"")",Qualität,mtindo,d,NA,NA,NA,NA,NA,NA,NA,NA,NA,NA,NA,NA,NA,NA,NA,NA,NA,NA,NA,NA,NA,NA,NA,NA,NA,NA
805b2,shallow,flow.Sequence,1_1_0_1,NA,NA,skipped,NA,20900.599999905,NA,NA,20898.1,20900.799999952,2024-05-08T19:35:57Z,20914.9,"c(""distractor1"", ""distractor2"", ""distractor3"")",Qualität,mtindo,d,NA,NA,NA,NA,NA,NA,NA,NA,NA,NA,NA,NA,NA,NA,NA,NA,NA,NA,NA,NA,NA,NA,NA,NA,NA,NA
805b2,task,flow.Sequence,1_1_0,NA,NA,completion,10426.6,10442.299999952,10455.046,10471.5,20898.1,20901,2024-05-08T19:35:57Z,20914.9,"c(""distractor1"", ""distractor2"", ""distractor3"")",Qualität,mtindo,d,NA,NA,NA,NA,NA,NA,NA,NA,NA,NA,NA,NA,NA,NA,NA,NA,NA,NA,NA,NA,NA,NA,NA,NA,NA,NA
805b2,deep,flow.Sequence,1_1_1_0,NA,NA,skipped,NA,20901.299999952,NA,NA,20898.1,20901.5,2024-05-08T19:35:57Z,20914.9,"c(""distractor1"", ""distractor2"", ""distractor3"")",Rückhalt,msaada,s,muhula,auwali,kiwimbe,NA,NA,NA,NA,NA,NA,NA,NA,NA,NA,NA,NA,NA,NA,NA,NA,NA,NA,NA,NA,NA,NA,NA
805b2,Shallow Question,html.Page,1_1_1_1_0,NA,NA,form submission,4460.1,20901.599999905,20898.1,20914.9,25375,25375.400000095,2024-05-08T19:36:01Z,25379.196,"c(""distractor1"", ""distractor2"", ""distractor3"")",Rückhalt,msaada,s,muhula,auwali,kiwimbe,muhula,NA,NA,NA,NA,NA,NA,NA,NA,NA,NA,NA,NA,NA,NA,NA,NA,NA,NA,NA,NA,NA,NA
805b2,"""Richtig""-Screen",canvas.Screen,1_1_1_1_1,NA,NA,skipped,NA,25376.5,NA,NA,25375,25376.599999905,2024-05-08T19:36:01Z,25379.196,"c(""distractor1"", ""distractor2"", ""distractor3"")",Rückhalt,msaada,s,muhula,auwali,kiwimbe,NA,NA,NA,NA,NA,NA,NA,NA,NA,NA,NA,NA,NA,NA,NA,NA,NA,NA,NA,NA,NA,NA,NA
805b2,"""Falsch""-Screen",canvas.Screen,1_1_1_1_2,NA,NA,timeout,4996.504,25377.599999905,25379.196,25379.196,30359.1,30360.400000095,2024-05-08T19:36:06Z,30375.7,"c(""distractor1"", ""distractor2"", ""distractor3"")",Rückhalt,msaada,s,muhula,auwali,kiwimbe,NA,NA,0,NA,NA,NA,NA,NA,NA,NA,NA,NA,NA,NA,NA,NA,NA,NA,NA,NA,NA,NA,NA
805b2,shallow,flow.Sequence,1_1_1_1,NA,NA,completion,9444.2,20901.599999905,20898.1,20914.9,30359.1,30360.799999952,2024-05-08T19:36:06Z,30375.7,"c(""distractor1"", ""distractor2"", ""distractor3"")",Rückhalt,msaada,s,muhula,auwali,kiwimbe,NA,NA,NA,NA,NA,NA,NA,NA,NA,NA,NA,NA,NA,NA,NA,NA,NA,NA,NA,NA,NA,NA,NA
805b2,task,flow.Sequence,1_1_1,NA,NA,completion,9444.2,20901.200000048,20898.1,20914.9,30359.1,30361,2024-05-08T19:36:06Z,30375.7,"c(""distractor1"", ""distractor2"", ""distractor3"")",Rückhalt,msaada,s,muhula,auwali,kiwimbe,NA,NA,NA,NA,NA,NA,NA,NA,NA,NA,NA,NA,NA,NA,NA,NA,NA,NA,NA,NA,NA,NA,NA
805b2,Deep Question,html.Page,1_1_2_0_0,NA,NA,form submission,2718.7000000954,30361.400000095,30359.1,30375.7,33094.400000095004,33094.599999904996,2024-05-08T19:36:09Z,33107.3,"c(""distractor1"", ""distractor2"", ""distractor3"")",Gesundheit,salama,d,NA,NA,NA,s,NA,NA,NA,NA,NA,NA,NA,NA,NA,NA,NA,NA,NA,NA,NA,NA,NA,NA,NA,NA,NA,NA
805b2,"""Richtig""-Screen",canvas.Screen,1_1_2_0_1,NA,NA,skipped,NA,33095.599999904996,NA,NA,33094.400000095004,33095.700000048,2024-05-08T19:36:09Z,33107.3,"c(""distractor1"", ""distractor2"", ""distractor3"")",Gesundheit,salama,d,NA,NA,NA,NA,NA,NA,NA,NA,NA,NA,NA,NA,NA,NA,NA,NA,NA,NA,NA,NA,NA,NA,NA,NA,NA,NA
805b2,"""Falsch""-Screen",canvas.Screen,1_1_2_0_2,NA,NA,timeout,4996.9,33096.599999904996,33090.994,33107.3,38087.5,38088.700000048,2024-05-08T19:36:14Z,38104.2,"c(""distractor1"", ""distractor2"", ""distractor3"")",Gesundheit,salama,d,NA,NA,NA,NA,NA,0,NA,NA,NA,NA,NA,NA,NA,NA,NA,NA,NA,NA,NA,NA,NA,NA,NA,NA,NA,NA
805b2,deep,flow.Sequence,1_1_2_0,NA,NA,completion,7711.8,30361.299999952,30359.1,30375.7,38087.5,38089,2024-05-08T19:36:14Z,38104.2,"c(""distractor1"", ""distractor2"", ""distractor3"")",Gesundheit,salama,d,NA,NA,NA,NA,NA,NA,NA,NA,NA,NA,NA,NA,NA,NA,NA,NA,NA,NA,NA,NA,NA,NA,NA,NA,NA,NA
805b2,shallow,flow.Sequence,1_1_2_1,NA,NA,skipped,NA,38089.200000048,NA,NA,38087.5,38089.400000095004,2024-05-08T19:36:14Z,38104.2,"c(""distractor1"", ""distractor2"", ""distractor3"")",Gesundheit,salama,d,NA,NA,NA,NA,NA,NA,NA,NA,NA,NA,NA,NA,NA,NA,NA,NA,NA,NA,NA,NA,NA,NA,NA,NA,NA,NA
805b2,task,flow.Sequence,1_1_2,NA,NA,completion,7711.8,30361.200000048,30359.1,30375.7,38087.5,38089.700000048,2024-05-08T19:36:14Z,38104.2,"c(""distractor1"", ""distractor2"", ""distractor3"")",Gesundheit,salama,d,NA,NA,NA,NA,NA,NA,NA,NA,NA,NA,NA,NA,NA,NA,NA,NA,NA,NA,NA,NA,NA,NA,NA,NA,NA,NA
805b2,deep,flow.Sequence,1_1_3_0,NA,NA,skipped,NA,38089.900000095004,NA,NA,38087.5,38090.099999904996,2024-05-08T19:36:14Z,38104.2,"c(""distractor1"", ""distractor2"", ""distractor3"")",Kritik,lawama,s,dereva,nafasi,mawazo,NA,NA,NA,NA,NA,NA,NA,NA,NA,NA,NA,NA,NA,NA,NA,NA,NA,NA,NA,NA,NA,NA,NA
805b2,Shallow Question,html.Page,1_1_3_1_0,NA,NA,form submission,4197.8999999046,38090.200000048,38087.5,38104.2,42302.099999904996,42302.200000048,2024-05-08T19:36:18Z,42318.6,"c(""distractor1"", ""distractor2"", ""distractor3"")",Kritik,lawama,s,dereva,nafasi,mawazo,lawama,NA,NA,NA,NA,NA,NA,NA,NA,NA,NA,NA,NA,NA,NA,NA,NA,NA,NA,NA,NA,NA,NA
805b2,"""Richtig""-Screen",canvas.Screen,1_1_3_1_1,NA,NA,timeout,4996.8,42303.400000095004,42301.996,42318.6,47298.7,47300,2024-05-08T19:36:23Z,47315.4,"c(""distractor1"", ""distractor2"", ""distractor3"")",Kritik,lawama,s,dereva,nafasi,mawazo,NA,NA,1,NA,NA,NA,NA,NA,NA,NA,NA,NA,NA,NA,NA,NA,NA,NA,NA,NA,NA,NA,NA
805b2,"""Falsch""-Screen",canvas.Screen,1_1_3_1_2,NA,NA,skipped,NA,47307.200000048,NA,NA,47298.7,47307.299999952,2024-05-08T19:36:23Z,47315.4,"c(""distractor1"", ""distractor2"", ""distractor3"")",Kritik,lawama,s,dereva,nafasi,mawazo,NA,NA,NA,NA,NA,NA,NA,NA,NA,NA,NA,NA,NA,NA,NA,NA,NA,NA,NA,NA,NA,NA,NA
805b2,shallow,flow.Sequence,1_1_3_1,NA,NA,completion,9194.5,38090.200000048,38087.5,38104.2,47298.7,47307.5,2024-05-08T19:36:23Z,47315.4,"c(""distractor1"", ""distractor2"", ""distractor3"")",Kritik,lawama,s,dereva,nafasi,mawazo,NA,NA,NA,NA,NA,NA,NA,NA,NA,NA,NA,NA,NA,NA,NA,NA,NA,NA,NA,NA,NA,NA,NA
805b2,task,flow.Sequence,1_1_3,NA,NA,completion,9194.5,38089.900000095004,38087.5,38104.2,47298.7,47307.5,2024-05-08T19:36:23Z,47315.4,"c(""distractor1"", ""distractor2"", ""distractor3"")",Kritik,lawama,s,dereva,nafasi,mawazo,NA,NA,NA,NA,NA,NA,NA,NA,NA,NA,NA,NA,NA,NA,NA,NA,NA,NA,NA,NA,NA,NA,NA
805b2,deep,flow.Sequence,1_1_4_0,NA,NA,skipped,NA,47307.599999904996,NA,NA,47298.7,47307.599999904996,2024-05-08T19:36:23Z,47315.4,"c(""distractor1"", ""distractor2"", ""distractor3"")",Gegenwart,hadhara,s,katiba,jokofu,mikopo,NA,NA,NA,NA,NA,NA,NA,NA,NA,NA,NA,NA,NA,NA,NA,NA,NA,NA,NA,NA,NA,NA,NA
805b2,Shallow Question,html.Page,1_1_4_1_0,NA,NA,form submission,3788.1,47307.599999904996,47298.7,47315.4,51103.5,51103.799999952,2024-05-08T19:36:27Z,51112.9,"c(""distractor1"", ""distractor2"", ""distractor3"")",Gegenwart,hadhara,s,katiba,jokofu,mikopo,katiba,NA,NA,NA,NA,NA,NA,NA,NA,NA,NA,NA,NA,NA,NA,NA,NA,NA,NA,NA,NA,NA,NA
805b2,"""Richtig""-Screen",canvas.Screen,1_1_4_1_1,NA,NA,skipped,NA,51104.799999952,NA,NA,51103.5,51104.900000095004,2024-05-08T19:36:27Z,51112.9,"c(""distractor1"", ""distractor2"", ""distractor3"")",Gegenwart,hadhara,s,katiba,jokofu,mikopo,NA,NA,NA,NA,NA,NA,NA,NA,NA,NA,NA,NA,NA,NA,NA,NA,NA,NA,NA,NA,NA,NA,NA
805b2,"""Falsch""-Screen",canvas.Screen,1_1_4_1_2,NA,NA,timeout,4996.8,51105.799999952,51096.724,51112.9,56093.5,56094.200000048,2024-05-08T19:36:32Z,56109.7,"c(""distractor1"", ""distractor2"", ""distractor3"")",Gegenwart,hadhara,s,katiba,jokofu,mikopo,NA,NA,0,NA,NA,NA,NA,NA,NA,NA,NA,NA,NA,NA,NA,NA,NA,NA,NA,NA,NA,NA,NA
805b2,shallow,flow.Sequence,1_1_4_1,NA,NA,completion,8778.1,47307.599999904996,47298.7,47315.4,56093.5,56094.400000095004,2024-05-08T19:36:32Z,56109.7,"c(""distractor1"", ""distractor2"", ""distractor3"")",Gegenwart,hadhara,s,katiba,jokofu,mikopo,NA,NA,NA,NA,NA,NA,NA,NA,NA,NA,NA,NA,NA,NA,NA,NA,NA,NA,NA,NA,NA,NA,NA
805b2,task,flow.Sequence,1_1_4,NA,NA,completion,8778.1,47307.599999904996,47298.7,47315.4,56093.5,56094.599999904996,2024-05-08T19:36:32Z,56109.7,"c(""distractor1"", ""distractor2"", ""distractor3"")",Gegenwart,hadhara,s,katiba,jokofu,mikopo,NA,NA,NA,NA,NA,NA,NA,NA,NA,NA,NA,NA,NA,NA,NA,NA,NA,NA,NA,NA,NA,NA,NA
805b2,Deep Question,html.Page,1_1_5_0_0,NA,NA,form submission,3104.3999999046,56094.700000048,56093.5,56109.7,59214.099999904996,59214.299999952,2024-05-08T19:36:35Z,59224.8,"c(""distractor1"", ""distractor2"", ""distractor3"")",Schatten,kivuli,d,NA,NA,NA,f,NA,NA,NA,NA,NA,NA,NA,NA,NA,NA,NA,NA,NA,NA,NA,NA,NA,NA,NA,NA,NA,NA
805b2,"""Richtig""-Screen",canvas.Screen,1_1_5_0_1,NA,NA,skipped,NA,59215.200000048,NA,NA,59214.099999904996,59215.299999952,2024-05-08T19:36:35Z,59224.8,"c(""distractor1"", ""distractor2"", ""distractor3"")",Schatten,kivuli,d,NA,NA,NA,NA,NA,NA,NA,NA,NA,NA,NA,NA,NA,NA,NA,NA,NA,NA,NA,NA,NA,NA,NA,NA,NA,NA
805b2,"""Falsch""-Screen",canvas.Screen,1_1_5_0_2,NA,NA,timeout,4997.1,59216.200000048,59208.636,59224.8,64205,64206.099999904996,2024-05-08T19:36:40Z,64221.9,"c(""distractor1"", ""distractor2"", ""distractor3"")",Schatten,kivuli,d,NA,NA,NA,NA,NA,0,NA,NA,NA,NA,NA,NA,NA,NA,NA,NA,NA,NA,NA,NA,NA,NA,NA,NA,NA,NA
805b2,deep,flow.Sequence,1_1_5_0,NA,NA,completion,8095.3,56094.599999904996,56093.5,56109.7,64205,64206.400000095004,2024-05-08T19:36:40Z,64221.9,"c(""distractor1"", ""distractor2"", ""distractor3"")",Schatten,kivuli,d,NA,NA,NA,NA,NA,NA,NA,NA,NA,NA,NA,NA,NA,NA,NA,NA,NA,NA,NA,NA,NA,NA,NA,NA,NA,NA
805b2,shallow,flow.Sequence,1_1_5_1,NA,NA,skipped,NA,64206.599999904996,NA,NA,64205,64206.799999952,2024-05-08T19:36:40Z,64221.9,"c(""distractor1"", ""distractor2"", ""distractor3"")",Schatten,kivuli,d,NA,NA,NA,NA,NA,NA,NA,NA,NA,NA,NA,NA,NA,NA,NA,NA,NA,NA,NA,NA,NA,NA,NA,NA,NA,NA
805b2,task,flow.Sequence,1_1_5,NA,NA,completion,8095.3,56094.599999904996,56093.5,56109.7,64205,64207,2024-05-08T19:36:40Z,64221.9,"c(""distractor1"", ""distractor2"", ""distractor3"")",Schatten,kivuli,d,NA,NA,NA,NA,NA,NA,NA,NA,NA,NA,NA,NA,NA,NA,NA,NA,NA,NA,NA,NA,NA,NA,NA,NA,NA,NA
805b2,block,flow.Loop,1_1,NA,NA,completion,53733.5,10442.200000048,10455.046,10471.5,64205,64207.299999952,2024-05-08T19:36:40Z,64221.9,"c(""distractor1"", ""distractor2"", ""distractor3"")",NA,NA,NA,NA,NA,NA,NA,NA,NA,NA,NA,NA,NA,NA,NA,NA,NA,NA,NA,NA,NA,NA,NA,NA,NA,NA,NA,NA,NA
805b2,Practice,flow.Sequence,1,NA,NA,completion,56680.7,7504.7999999523,7489.798,7524.3,64205,64207.599999904996,2024-05-08T19:36:40Z,64221.9,NULL,NA,NA,NA,NA,NA,NA,NA,NA,NA,NA,NA,NA,NA,NA,NA,NA,NA,NA,NA,NA,NA,NA,NA,NA,NA,NA,NA,NA,NA
805b2,Experiment start,canvas.Screen,2,weiter,keypress(q),response,11698.300000048,64207.799999952,64205,64221.9,75920.200000048,75921.299999952,2024-05-08T19:36:52Z,75980.8,NULL,NA,NA,NA,NA,NA,NA,NA,NA,NA,NA,NA,NA,NA,NA,NA,NA,NA,NA,NA,NA,NA,NA,NA,NA,NA,NA,NA,NA,NA
805b2,Deep Question,html.Page,3_0_0_0_0_0_0,NA,NA,form submission,5904.9999999523,75979.5,75964.706,75980.8,81885.799999952,81886.099999905,2024-05-08T19:36:58Z,81893.9,NULL,Symbol,kielezo,d,NA,NA,NA,symbol,NA,NA,0,NA,NA,NA,NA,NA,NA,NA,NA,NA,NA,NA,NA,NA,NA,NA,NA,NA,NA,NA
805b2,"""Richtig""-Screen",canvas.Screen,3_0_0_0_0_0_1,NA,NA,skipped,NA,81889.099999905,NA,NA,81885.799999952,81889.200000048,2024-05-08T19:36:58Z,81893.9,NULL,Symbol,kielezo,d,NA,NA,NA,NA,sdf,NA,0,NA,NA,NA,NA,NA,NA,NA,NA,NA,NA,NA,NA,NA,NA,NA,NA,NA,NA,NA
805b2,"""Falsch""-Screen",canvas.Screen,3_0_0_0_0_0_2,NA,NA,timeout,4997.3,81889.799999952,81877.926,81893.9,86874.3,86875.700000048,2024-05-08T19:37:03Z,86891.2,NULL,Symbol,kielezo,d,NA,NA,NA,NA,sdf,0,0,NA,NA,NA,NA,NA,NA,NA,NA,NA,NA,NA,NA,NA,NA,NA,NA,NA,NA,NA
805b2,deep,flow.Sequence,3_0_0_0_0_0,NA,NA,completion,10893.5,75979.5,75964.706,75980.8,86874.3,86876.099999905,2024-05-08T19:37:03Z,86891.2,NULL,Symbol,kielezo,d,NA,NA,NA,NA,sdf,NA,0,NA,NA,NA,NA,NA,NA,NA,NA,NA,NA,NA,NA,NA,NA,NA,NA,NA,NA,NA
805b2,shallow,flow.Sequence,3_0_0_0_0_1,NA,NA,skipped,NA,86876.299999952,NA,NA,86874.3,86876.5,2024-05-08T19:37:03Z,86891.2,NULL,Symbol,kielezo,d,NA,NA,NA,NA,sdf,NA,0,NA,NA,NA,NA,NA,NA,NA,NA,NA,NA,NA,NA,NA,NA,NA,NA,NA,NA,NA
805b2,task,flow.Sequence,3_0_0_0_0,NA,NA,completion,10893.5,75979.5,75964.706,75980.8,86874.3,86876.700000048,2024-05-08T19:37:03Z,86891.2,NULL,Symbol,kielezo,d,NA,NA,NA,NA,sdf,NA,0,NA,NA,NA,NA,NA,NA,NA,NA,NA,NA,NA,NA,NA,NA,NA,NA,NA,NA,NA
805b2,deep,flow.Sequence,3_0_0_0_1_0,NA,NA,skipped,NA,86876.799999952,NA,NA,86874.3,86876.900000095,2024-05-08T19:37:03Z,86891.2,NULL,System,maongozi,s,chokochoko,nuksani,mitaani,NA,sdf,NA,0,NA,NA,NA,NA,NA,NA,NA,NA,NA,NA,NA,NA,NA,NA,NA,NA,NA,NA,NA
805b2,Shallow Question,html.Page,3_0_0_0_1_1_0,NA,NA,form submission,3786.0000000477,86877.099999905,86874.3,86891.2,90677.200000048,90677.5,2024-05-08T19:37:06Z,90688.5,NULL,System,maongozi,s,chokochoko,nuksani,mitaani,mitaani,NA,NA,0,NA,NA,NA,NA,NA,NA,NA,NA,NA,NA,NA,NA,NA,NA,NA,NA,NA,NA,NA
805b2,"""Richtig""-Screen",canvas.Screen,3_0_0_0_1_1_1,NA,NA,skipped,NA,90680.299999952,NA,NA,90677.200000048,90680.5,2024-05-08T19:37:06Z,90688.5,NULL,System,maongozi,s,chokochoko,nuksani,mitaani,NA,sdf,NA,0,NA,NA,NA,NA,NA,NA,NA,NA,NA,NA,NA,NA,NA,NA,NA,NA,NA,NA,NA
805b2,"""Falsch""-Screen",canvas.Screen,3_0_0_0_1_1_2,NA,NA,timeout,4997,90681,90672.428,90688.5,95669.3,95670.299999952,2024-05-08T19:37:11Z,95685.5,NULL,System,maongozi,s,chokochoko,nuksani,mitaani,NA,sdf,0,0,NA,NA,NA,NA,NA,NA,NA,NA,NA,NA,NA,NA,NA,NA,NA,NA,NA,NA,NA
805b2,shallow,flow.Sequence,3_0_0_0_1_1,NA,NA,completion,8778.1,86877,86874.3,86891.2,95669.3,95670.599999905,2024-05-08T19:37:11Z,95685.5,NULL,System,maongozi,s,chokochoko,nuksani,mitaani,NA,sdf,NA,0,NA,NA,NA,NA,NA,NA,NA,NA,NA,NA,NA,NA,NA,NA,NA,NA,NA,NA,NA
805b2,task,flow.Sequence,3_0_0_0_1,NA,NA,completion,8778.1,86876.799999952,86874.3,86891.2,95669.3,95670.799999952,2024-05-08T19:37:11Z,95685.5,NULL,System,maongozi,s,chokochoko,nuksani,mitaani,NA,sdf,NA,0,NA,NA,NA,NA,NA,NA,NA,NA,NA,NA,NA,NA,NA,NA,NA,NA,NA,NA,NA
805b2,deep,flow.Sequence,3_0_0_0_2_0,NA,NA,skipped,NA,95671,NA,NA,95669.3,95671.099999905,2024-05-08T19:37:11Z,95685.5,NULL,Lawine,banguko,s,maambukizi,usuluhishi,chekechea,NA,sdf,NA,0,NA,NA,NA,NA,NA,NA,NA,NA,NA,NA,NA,NA,NA,NA,NA,NA,NA,NA,NA
805b2,Shallow Question,html.Page,3_0_0_0_2_1_0,NA,NA,form submission,4612,95671.299999952,95669.3,95685.5,100297.5,100297.70000005,2024-05-08T19:37:16Z,100299.662,NULL,Lawine,banguko,s,maambukizi,usuluhishi,chekechea,maambukizi,NA,NA,0,NA,NA,NA,NA,NA,NA,NA,NA,NA,NA,NA,NA,NA,NA,NA,NA,NA,NA,NA
805b2,"""Richtig""-Screen",canvas.Screen,3_0_0_0_2_1_1,NA,NA,skipped,NA,100300.70000005,NA,NA,100297.5,100300.70000005,2024-05-08T19:37:16Z,100299.662,NULL,Lawine,banguko,s,maambukizi,usuluhishi,chekechea,NA,sdf,NA,0,NA,NA,NA,NA,NA,NA,NA,NA,NA,NA,NA,NA,NA,NA,NA,NA,NA,NA,NA
805b2,"""Falsch""-Screen",canvas.Screen,3_0_0_0_2_1_2,NA,NA,timeout,4997.138,100301.4000001,100299.662,100299.662,105280.2,105281.20000005,2024-05-08T19:37:21Z,105296.8,NULL,Lawine,banguko,s,maambukizi,usuluhishi,chekechea,NA,sdf,0,0,NA,NA,NA,NA,NA,NA,NA,NA,NA,NA,NA,NA,NA,NA,NA,NA,NA,NA,NA
805b2,shallow,flow.Sequence,3_0_0_0_2_1,NA,NA,completion,9594.7,95671.099999905,95669.3,95685.5,105280.2,105281.5,2024-05-08T19:37:21Z,105296.8,NULL,Lawine,banguko,s,maambukizi,usuluhishi,chekechea,NA,sdf,NA,0,NA,NA,NA,NA,NA,NA,NA,NA,NA,NA,NA,NA,NA,NA,NA,NA,NA,NA,NA
805b2,task,flow.Sequence,3_0_0_0_2,NA,NA,completion,9594.7,95670.900000095,95669.3,95685.5,105280.2,105281.70000005,2024-05-08T19:37:21Z,105296.8,NULL,Lawine,banguko,s,maambukizi,usuluhishi,chekechea,NA,sdf,NA,0,NA,NA,NA,NA,NA,NA,NA,NA,NA,NA,NA,NA,NA,NA,NA,NA,NA,NA,NA
805b2,deep,flow.Sequence,3_0_0_0_3_0,NA,NA,skipped,NA,105281.9000001,NA,NA,105280.2,105282,2024-05-08T19:37:21Z,105296.8,NULL,Vorsorge,tahadhari,s,ufafanuzi,makini,mashambani,NA,sdf,NA,0,NA,NA,NA,NA,NA,NA,NA,NA,NA,NA,NA,NA,NA,NA,NA,NA,NA,NA,NA
805b2,Shallow Question,html.Page,3_0_0_0_3_1_0,NA,NA,form submission,4582.4999999523,105282.20000005,105280.2,105296.8,109879.29999995,109879.4000001,2024-05-08T19:37:26Z,109893.4,NULL,Vorsorge,tahadhari,s,ufafanuzi,makini,mashambani,ufafanuzi,NA,NA,0,NA,NA,NA,NA,NA,NA,NA,NA,NA,NA,NA,NA,NA,NA,NA,NA,NA,NA,NA
805b2,"""Richtig""-Screen",canvas.Screen,3_0_0_0_3_1_1,NA,NA,skipped,NA,109882.5,NA,NA,109879.29999995,109882.5999999,2024-05-08T19:37:26Z,109893.4,NULL,Vorsorge,tahadhari,s,ufafanuzi,makini,mashambani,NA,sdf,NA,0,NA,NA,NA,NA,NA,NA,NA,NA,NA,NA,NA,NA,NA,NA,NA,NA,NA,NA,NA
805b2,"""Falsch""-Screen",canvas.Screen,3_0_0_0_3_1_2,NA,NA,timeout,4997,109883.4000001,109877.422,109893.4,114873.9,114874.9000001,2024-05-08T19:37:31Z,114890.4,NULL,Vorsorge,tahadhari,s,ufafanuzi,makini,mashambani,NA,sdf,0,0,NA,NA,NA,NA,NA,NA,NA,NA,NA,NA,NA,NA,NA,NA,NA,NA,NA,NA,NA
805b2,shallow,flow.Sequence,3_0_0_0_3_1,NA,NA,completion,9577.1,105282.0999999,105280.2,105296.8,114873.9,114875.4000001,2024-05-08T19:37:31Z,114890.4,NULL,Vorsorge,tahadhari,s,ufafanuzi,makini,mashambani,NA,sdf,NA,0,NA,NA,NA,NA,NA,NA,NA,NA,NA,NA,NA,NA,NA,NA,NA,NA,NA,NA,NA
805b2,task,flow.Sequence,3_0_0_0_3,NA,NA,completion,9577.1,105281.79999995,105280.2,105296.8,114873.9,114875.5999999,2024-05-08T19:37:31Z,114890.4,NULL,Vorsorge,tahadhari,s,ufafanuzi,makini,mashambani,NA,sdf,NA,0,NA,NA,NA,NA,NA,NA,NA,NA,NA,NA,NA,NA,NA,NA,NA,NA,NA,NA,NA
805b2,deep,flow.Sequence,3_0_0_0_4_0,NA,NA,skipped,NA,114875.79999995,NA,NA,114873.9,114876,2024-05-08T19:37:31Z,114890.4,NULL,Konkurrent,mshindani,s,msemaji,mvutaji,kipukusa,NA,sdf,NA,0,NA,NA,NA,NA,NA,NA,NA,NA,NA,NA,NA,NA,NA,NA,NA,NA,NA,NA,NA
805b2,Shallow Question,html.Page,3_0_0_0_4_1_0,NA,NA,form submission,5347.0000000954,114876.0999999,114873.9,114890.4,120237.4000001,120237.5999999,2024-05-08T19:37:36Z,120254.4,NULL,Konkurrent,mshindani,s,msemaji,mvutaji,kipukusa,mshindani,NA,NA,0,NA,NA,NA,NA,NA,NA,NA,NA,NA,NA,NA,NA,NA,NA,NA,NA,NA,NA,NA
805b2,"""Richtig""-Screen",canvas.Screen,3_0_0_0_4_1_1,NA,NA,timeout,4997,120240.70000005,120237.756,120254.4,125234.2,125235.20000005,2024-05-08T19:37:41Z,125251.4,NULL,Konkurrent,mshindani,s,msemaji,mvutaji,kipukusa,NA,sdf,1,0,NA,NA,NA,NA,NA,NA,NA,NA,NA,NA,NA,NA,NA,NA,NA,NA,NA,NA,NA
805b2,"""Falsch""-Screen",canvas.Screen,3_0_0_0_4_1_2,NA,NA,skipped,NA,125240.29999995,NA,NA,125234.2,125240.4000001,2024-05-08T19:37:41Z,125251.4,NULL,Konkurrent,mshindani,s,msemaji,mvutaji,kipukusa,NA,sdf,NA,0,NA,NA,NA,NA,NA,NA,NA,NA,NA,NA,NA,NA,NA,NA,NA,NA,NA,NA,NA
805b2,shallow,flow.Sequence,3_0_0_0_4_1,NA,NA,completion,10343.8,114876.0999999,114873.9,114890.4,125234.2,125240.5,2024-05-08T19:37:41Z,125251.4,NULL,Konkurrent,mshindani,s,msemaji,mvutaji,kipukusa,NA,sdf,NA,0,NA,NA,NA,NA,NA,NA,NA,NA,NA,NA,NA,NA,NA,NA,NA,NA,NA,NA,NA
805b2,task,flow.Sequence,3_0_0_0_4,NA,NA,completion,10343.8,114875.70000005,114873.9,114890.4,125234.2,125240.5,2024-05-08T19:37:41Z,125251.4,NULL,Konkurrent,mshindani,s,msemaji,mvutaji,kipukusa,NA,sdf,NA,0,NA,NA,NA,NA,NA,NA,NA,NA,NA,NA,NA,NA,NA,NA,NA,NA,NA,NA,NA
805b2,Deep Question,html.Page,3_0_0_0_5_0_0,NA,NA,form submission,3035.6999999046,125240.5999999,125234.2,125251.4,128287.0999999,128287.29999995,2024-05-08T19:37:44Z,128298.9,NULL,Körper,kiwiliwili,d,NA,NA,NA,körper,NA,NA,0,NA,NA,NA,NA,NA,NA,NA,NA,NA,NA,NA,NA,NA,NA,NA,NA,NA,NA,NA
805b2,"""Richtig""-Screen",canvas.Screen,3_0_0_0_5_0_1,NA,NA,skipped,NA,128290.0999999,NA,NA,128287.0999999,128290.29999995,2024-05-08T19:37:44Z,128298.9,NULL,Körper,kiwiliwili,d,NA,NA,NA,NA,sdf,NA,0,NA,NA,NA,NA,NA,NA,NA,NA,NA,NA,NA,NA,NA,NA,NA,NA,NA,NA,NA
805b2,"""Falsch""-Screen",canvas.Screen,3_0_0_0_5_0_2,NA,NA,timeout,4997.2,128291.0999999,128282.426,128298.9,133279.5,133280.29999995,2024-05-08T19:37:49Z,133296.1,NULL,Körper,kiwiliwili,d,NA,NA,NA,NA,sdf,0,0,NA,NA,NA,NA,NA,NA,NA,NA,NA,NA,NA,NA,NA,NA,NA,NA,NA,NA,NA
805b2,deep,flow.Sequence,3_0_0_0_5_0,NA,NA,completion,8028.1,125240.5,125234.2,125251.4,133279.5,133280.70000005,2024-05-08T19:37:49Z,133296.1,NULL,Körper,kiwiliwili,d,NA,NA,NA,NA,sdf,NA,0,NA,NA,NA,NA,NA,NA,NA,NA,NA,NA,NA,NA,NA,NA,NA,NA,NA,NA,NA
805b2,shallow,flow.Sequence,3_0_0_0_5_1,NA,NA,skipped,NA,133280.79999995,NA,NA,133279.5,133280.9000001,2024-05-08T19:37:49Z,133296.1,NULL,Körper,kiwiliwili,d,NA,NA,NA,NA,sdf,NA,0,NA,NA,NA,NA,NA,NA,NA,NA,NA,NA,NA,NA,NA,NA,NA,NA,NA,NA,NA
805b2,task,flow.Sequence,3_0_0_0_5,NA,NA,completion,8028.1,125240.5,125234.2,125251.4,133279.5,133281.0999999,2024-05-08T19:37:49Z,133296.1,NULL,Körper,kiwiliwili,d,NA,NA,NA,NA,sdf,NA,0,NA,NA,NA,NA,NA,NA,NA,NA,NA,NA,NA,NA,NA,NA,NA,NA,NA,NA,NA
805b2,Deep Question,html.Page,3_0_0_0_6_0_0,NA,NA,form submission,4189.1000000477,133281.4000001,133279.5,133296.1,137485.20000005,137485.5,2024-05-08T19:37:53Z,137493.5,NULL,Zuwachs,nyongeza,d,NA,NA,NA,zuwachs,NA,NA,0,NA,NA,NA,NA,NA,NA,NA,NA,NA,NA,NA,NA,NA,NA,NA,NA,NA,NA,NA
805b2,"""Richtig""-Screen",canvas.Screen,3_0_0_0_6_0_1,NA,NA,skipped,NA,137488.70000005,NA,NA,137485.20000005,137488.79999995,2024-05-08T19:37:53Z,137493.5,NULL,Zuwachs,nyongeza,d,NA,NA,NA,NA,sdf,NA,0,NA,NA,NA,NA,NA,NA,NA,NA,NA,NA,NA,NA,NA,NA,NA,NA,NA,NA,NA
805b2,"""Falsch""-Screen",canvas.Screen,3_0_0_0_6_0_2,NA,NA,timeout,4997.3,137489.5999999,137477.906,137493.5,142474.2,142474.70000005,2024-05-08T19:37:58Z,142490.8,NULL,Zuwachs,nyongeza,d,NA,NA,NA,NA,sdf,0,0,NA,NA,NA,NA,NA,NA,NA,NA,NA,NA,NA,NA,NA,NA,NA,NA,NA,NA,NA
805b2,deep,flow.Sequence,3_0_0_0_6_0,NA,NA,completion,9178.1,133281.29999995,133279.5,133296.1,142474.2,142474.79999995,2024-05-08T19:37:58Z,142490.8,NULL,Zuwachs,nyongeza,d,NA,NA,NA,NA,sdf,NA,0,NA,NA,NA,NA,NA,NA,NA,NA,NA,NA,NA,NA,NA,NA,NA,NA,NA,NA,NA
805b2,shallow,flow.Sequence,3_0_0_0_6_1,NA,NA,skipped,NA,142474.79999995,NA,NA,142474.2,142474.9000001,2024-05-08T19:37:58Z,142490.8,NULL,Zuwachs,nyongeza,d,NA,NA,NA,NA,sdf,NA,0,NA,NA,NA,NA,NA,NA,NA,NA,NA,NA,NA,NA,NA,NA,NA,NA,NA,NA,NA
805b2,task,flow.Sequence,3_0_0_0_6,NA,NA,completion,9178.1,133281.29999995,133279.5,133296.1,142474.2,142474.9000001,2024-05-08T19:37:58Z,142490.8,NULL,Zuwachs,nyongeza,d,NA,NA,NA,NA,sdf,NA,0,NA,NA,NA,NA,NA,NA,NA,NA,NA,NA,NA,NA,NA,NA,NA,NA,NA,NA,NA
805b2,Deep Question,html.Page,3_0_0_0_7_0_0,NA,NA,form submission,5061.2,142475,142474.2,142490.8,147552,147552.20000005,2024-05-08T19:38:03Z,147554.892,NULL,Übersicht,kilindo,d,NA,NA,NA,übersicht,NA,NA,0,NA,NA,NA,NA,NA,NA,NA,NA,NA,NA,NA,NA,NA,NA,NA,NA,NA,NA,NA
805b2,"""Richtig""-Screen",canvas.Screen,3_0_0_0_7_0_1,NA,NA,skipped,NA,147555.0999999,NA,NA,147552,147555.29999995,2024-05-08T19:38:03Z,147554.892,NULL,Übersicht,kilindo,d,NA,NA,NA,NA,sdf,NA,0,NA,NA,NA,NA,NA,NA,NA,NA,NA,NA,NA,NA,NA,NA,NA,NA,NA,NA,NA
805b2,"""Falsch""-Screen",canvas.Screen,3_0_0_0_7_0_2,NA,NA,timeout,4996.508,147556.20000005,147554.892,147554.892,152534.3,152535.29999995,2024-05-08T19:38:08Z,152551.4,NULL,Übersicht,kilindo,d,NA,NA,NA,NA,sdf,0,0,NA,NA,NA,NA,NA,NA,NA,NA,NA,NA,NA,NA,NA,NA,NA,NA,NA,NA,NA
805b2,deep,flow.Sequence,3_0_0_0_7_0,NA,NA,completion,10043.5,142475,142474.2,142490.8,152534.3,152535.70000005,2024-05-08T19:38:08Z,152551.4,NULL,Übersicht,kilindo,d,NA,NA,NA,NA,sdf,NA,0,NA,NA,NA,NA,NA,NA,NA,NA,NA,NA,NA,NA,NA,NA,NA,NA,NA,NA,NA
805b2,shallow,flow.Sequence,3_0_0_0_7_1,NA,NA,skipped,NA,152535.9000001,NA,NA,152534.3,152536,2024-05-08T19:38:08Z,152551.4,NULL,Übersicht,kilindo,d,NA,NA,NA,NA,sdf,NA,0,NA,NA,NA,NA,NA,NA,NA,NA,NA,NA,NA,NA,NA,NA,NA,NA,NA,NA,NA
805b2,task,flow.Sequence,3_0_0_0_7,NA,NA,completion,10043.5,142475,142474.2,142490.8,152534.3,152536.29999995,2024-05-08T19:38:08Z,152551.4,NULL,Übersicht,kilindo,d,NA,NA,NA,NA,sdf,NA,0,NA,NA,NA,NA,NA,NA,NA,NA,NA,NA,NA,NA,NA,NA,NA,NA,NA,NA,NA
805b2,block,flow.Loop,3_0_0_0,NA,NA,completion,76553.5,75979.400000095,75964.706,75980.8,152534.3,152536.5,2024-05-08T19:38:08Z,152551.4,NULL,NA,NA,NA,NA,NA,NA,NA,sdf,NA,0,NA,NA,NA,NA,NA,NA,NA,NA,NA,NA,NA,NA,NA,NA,NA,NA,NA,NA,NA
805b2,weiter,canvas.Screen,3_0_0_1,sdf,keypress(Space),response,63262.000000095,152536.70000005,152534.3,152551.4,215813.4000001,215814.4000001,2024-05-08T19:39:12Z,215845.6,NULL,NA,NA,NA,NA,NA,NA,NA,sdf,NA,0,NA,NA,NA,NA,NA,NA,NA,NA,NA,NA,NA,NA,NA,NA,NA,NA,NA,NA,NA
805b2,check continue,flow.Sequence,3_0_0,NA,NA,completion,139832.6000001,75979.400000095,75964.706,75980.8,215813.4000001,215814.70000005,2024-05-08T19:39:12Z,215845.6,NULL,NA,NA,NA,NA,NA,NA,NA,sdf,NA,0,NA,NA,NA,NA,NA,NA,NA,NA,NA,NA,NA,NA,NA,NA,NA,NA,NA,NA,NA
805b2,Deep Question,html.Page,3_0_1_0_0_0_0,NA,NA,form submission,9089.9999999046,215834.20000005,215824.188,215845.6,224935.5999999,224935.79999995,2024-05-08T19:39:21Z,224939.9,NULL,Übersicht,kilindo,d,NA,NA,NA,übersicht,NA,NA,1,NA,NA,NA,NA,NA,NA,NA,NA,NA,NA,NA,NA,NA,NA,NA,NA,NA,NA,NA
805b2,"""Richtig""-Screen",canvas.Screen,3_0_1_0_0_0_1,NA,NA,skipped,NA,224937.0999999,NA,NA,224935.5999999,224937.20000005,2024-05-08T19:39:21Z,224939.9,NULL,Übersicht,kilindo,d,NA,NA,NA,NA,sdfdsf,NA,1,NA,NA,NA,NA,NA,NA,NA,NA,NA,NA,NA,NA,NA,NA,NA,NA,NA,NA,NA
805b2,"""Falsch""-Screen",canvas.Screen,3_0_1_0_0_0_2,NA,NA,timeout,4997.3,224937.5999999,224924.512,224939.9,229920.6,229921.5,2024-05-08T19:39:26Z,229937.2,NULL,Übersicht,kilindo,d,NA,NA,NA,NA,sdfdsf,0,1,NA,NA,NA,NA,NA,NA,NA,NA,NA,NA,NA,NA,NA,NA,NA,NA,NA,NA,NA
805b2,deep,flow.Sequence,3_0_1_0_0_0,NA,NA,completion,14075,215834.20000005,215824.188,215845.6,229920.6,229921.9000001,2024-05-08T19:39:26Z,229937.2,NULL,Übersicht,kilindo,d,NA,NA,NA,NA,sdfdsf,NA,1,NA,NA,NA,NA,NA,NA,NA,NA,NA,NA,NA,NA,NA,NA,NA,NA,NA,NA,NA
805b2,shallow,flow.Sequence,3_0_1_0_0_1,NA,NA,skipped,NA,229922,NA,NA,229920.6,229922.0999999,2024-05-08T19:39:26Z,229937.2,NULL,Übersicht,kilindo,d,NA,NA,NA,NA,sdfdsf,NA,1,NA,NA,NA,NA,NA,NA,NA,NA,NA,NA,NA,NA,NA,NA,NA,NA,NA,NA,NA
805b2,task,flow.Sequence,3_0_1_0_0,NA,NA,completion,14075,215834.20000005,215824.188,215845.6,229920.6,229922.20000005,2024-05-08T19:39:26Z,229937.2,NULL,Übersicht,kilindo,d,NA,NA,NA,NA,sdfdsf,NA,1,NA,NA,NA,NA,NA,NA,NA,NA,NA,NA,NA,NA,NA,NA,NA,NA,NA,NA,NA
805b2,deep,flow.Sequence,3_0_1_0_1_0,NA,NA,skipped,NA,229922.4000001,NA,NA,229920.6,229922.5,2024-05-08T19:39:26Z,229937.2,NULL,Vorsorge,tahadhari,s,ufafanuzi,makini,mashambani,NA,sdfdsf,NA,1,NA,NA,NA,NA,NA,NA,NA,NA,NA,NA,NA,NA,NA,NA,NA,NA,NA,NA,NA
805b2,Shallow Question,html.Page,3_0_1_0_1_1_0,NA,NA,form submission,5484.0999999523,229922.5999999,229920.6,229937.2,235421.29999995,235421.4000001,2024-05-08T19:39:31Z,235433.7,NULL,Vorsorge,tahadhari,s,ufafanuzi,makini,mashambani,tahadhari,NA,NA,1,NA,NA,NA,NA,NA,NA,NA,NA,NA,NA,NA,NA,NA,NA,NA,NA,NA,NA,NA
805b2,"""Richtig""-Screen",canvas.Screen,3_0_1_0_1_1_1,NA,NA,timeout,4996.8,235424.4000001,235417.3,235433.7,240413.9,240415.20000005,2024-05-08T19:39:36Z,240430.5,NULL,Vorsorge,tahadhari,s,ufafanuzi,makini,mashambani,NA,sdfdsf,1,1,NA,NA,NA,NA,NA,NA,NA,NA,NA,NA,NA,NA,NA,NA,NA,NA,NA,NA,NA
805b2,"""Falsch""-Screen",canvas.Screen,3_0_1_0_1_1_2,NA,NA,skipped,NA,240420.5,NA,NA,240413.9,240420.70000005,2024-05-08T19:39:36Z,240430.5,NULL,Vorsorge,tahadhari,s,ufafanuzi,makini,mashambani,NA,sdfdsf,NA,1,NA,NA,NA,NA,NA,NA,NA,NA,NA,NA,NA,NA,NA,NA,NA,NA,NA,NA,NA
805b2,shallow,flow.Sequence,3_0_1_0_1_1,NA,NA,completion,10476.7,229922.5999999,229920.6,229937.2,240413.9,240421,2024-05-08T19:39:36Z,240430.5,NULL,Vorsorge,tahadhari,s,ufafanuzi,makini,mashambani,NA,sdfdsf,NA,1,NA,NA,NA,NA,NA,NA,NA,NA,NA,NA,NA,NA,NA,NA,NA,NA,NA,NA,NA
805b2,task,flow.Sequence,3_0_1_0_1,NA,NA,completion,10476.7,229922.29999995,229920.6,229937.2,240413.9,240421.20000005,2024-05-08T19:39:36Z,240430.5,NULL,Vorsorge,tahadhari,s,ufafanuzi,makini,mashambani,NA,sdfdsf,NA,1,NA,NA,NA,NA,NA,NA,NA,NA,NA,NA,NA,NA,NA,NA,NA,NA,NA,NA,NA
805b2,Deep Question,html.Page,3_0_1_0_2_0_0,NA,NA,form submission,3236.7000000477,240421.4000001,240413.9,240430.5,243667.20000005,243667.4000001,2024-05-08T19:39:39Z,243678.5,NULL,Zuwachs,nyongeza,d,NA,NA,NA,zuwachs,NA,NA,1,NA,NA,NA,NA,NA,NA,NA,NA,NA,NA,NA,NA,NA,NA,NA,NA,NA,NA,NA
805b2,"""Richtig""-Screen",canvas.Screen,3_0_1_0_2_0_1,NA,NA,skipped,NA,243670.20000005,NA,NA,243667.20000005,243670.4000001,2024-05-08T19:39:39Z,243678.5,NULL,Zuwachs,nyongeza,d,NA,NA,NA,NA,sdfdsf,NA,1,NA,NA,NA,NA,NA,NA,NA,NA,NA,NA,NA,NA,NA,NA,NA,NA,NA,NA,NA
805b2,"""Falsch""-Screen",canvas.Screen,3_0_1_0_2_0_2,NA,NA,timeout,4997.4,243671,243663.84,243678.5,248658.7,248660.20000005,2024-05-08T19:39:44Z,248675.9,NULL,Zuwachs,nyongeza,d,NA,NA,NA,NA,sdfdsf,0,1,NA,NA,NA,NA,NA,NA,NA,NA,NA,NA,NA,NA,NA,NA,NA,NA,NA,NA,NA
805b2,deep,flow.Sequence,3_0_1_0_2_0,NA,NA,completion,8228.2,240421.4000001,240413.9,240430.5,248658.7,248660.4000001,2024-05-08T19:39:44Z,248675.9,NULL,Zuwachs,nyongeza,d,NA,NA,NA,NA,sdfdsf,NA,1,NA,NA,NA,NA,NA,NA,NA,NA,NA,NA,NA,NA,NA,NA,NA,NA,NA,NA,NA
805b2,shallow,flow.Sequence,3_0_1_0_2_1,NA,NA,skipped,NA,248660.5,NA,NA,248658.7,248660.5,2024-05-08T19:39:44Z,248675.9,NULL,Zuwachs,nyongeza,d,NA,NA,NA,NA,sdfdsf,NA,1,NA,NA,NA,NA,NA,NA,NA,NA,NA,NA,NA,NA,NA,NA,NA,NA,NA,NA,NA
805b2,task,flow.Sequence,3_0_1_0_2,NA,NA,completion,8228.2,240421.29999995,240413.9,240430.5,248658.7,248660.5,2024-05-08T19:39:44Z,248675.9,NULL,Zuwachs,nyongeza,d,NA,NA,NA,NA,sdfdsf,NA,1,NA,NA,NA,NA,NA,NA,NA,NA,NA,NA,NA,NA,NA,NA,NA,NA,NA,NA,NA
805b2,deep,flow.Sequence,3_0_1_0_3_0,NA,NA,skipped,NA,248660.5999999,NA,NA,248658.7,248660.5999999,2024-05-08T19:39:44Z,248675.9,NULL,Lawine,banguko,s,maambukizi,usuluhishi,chekechea,NA,sdfdsf,NA,1,NA,NA,NA,NA,NA,NA,NA,NA,NA,NA,NA,NA,NA,NA,NA,NA,NA,NA,NA
805b2,Shallow Question,html.Page,3_0_1_0_3_1_0,NA,NA,form submission,6135.1,248660.70000005,248658.7,248675.9,254811,254811.0999999,2024-05-08T19:39:51Z,254822,NULL,Lawine,banguko,s,maambukizi,usuluhishi,chekechea,banguko,NA,NA,1,NA,NA,NA,NA,NA,NA,NA,NA,NA,NA,NA,NA,NA,NA,NA,NA,NA,NA,NA
805b2,"""Richtig""-Screen",canvas.Screen,3_0_1_0_3_1_1,NA,NA,timeout,4997,254812.5999999,254805.816,254822,259802.5,259803.4000001,2024-05-08T19:39:56Z,259819,NULL,Lawine,banguko,s,maambukizi,usuluhishi,chekechea,NA,sdfdsf,1,1,NA,NA,NA,NA,NA,NA,NA,NA,NA,NA,NA,NA,NA,NA,NA,NA,NA,NA,NA
805b2,"""Falsch""-Screen",canvas.Screen,3_0_1_0_3_1_2,NA,NA,skipped,NA,259808.5,NA,NA,259802.5,259808.5999999,2024-05-08T19:39:56Z,259819,NULL,Lawine,banguko,s,maambukizi,usuluhishi,chekechea,NA,sdfdsf,NA,1,NA,NA,NA,NA,NA,NA,NA,NA,NA,NA,NA,NA,NA,NA,NA,NA,NA,NA,NA
805b2,shallow,flow.Sequence,3_0_1_0_3_1,NA,NA,completion,11126.6,248660.70000005,248658.7,248675.9,259802.5,259808.70000005,2024-05-08T19:39:56Z,259819,NULL,Lawine,banguko,s,maambukizi,usuluhishi,chekechea,NA,sdfdsf,NA,1,NA,NA,NA,NA,NA,NA,NA,NA,NA,NA,NA,NA,NA,NA,NA,NA,NA,NA,NA
805b2,task,flow.Sequence,3_0_1_0_3,NA,NA,completion,11126.6,248660.5999999,248658.7,248675.9,259802.5,259808.79999995,2024-05-08T19:39:56Z,259819,NULL,Lawine,banguko,s,maambukizi,usuluhishi,chekechea,NA,sdfdsf,NA,1,NA,NA,NA,NA,NA,NA,NA,NA,NA,NA,NA,NA,NA,NA,NA,NA,NA,NA,NA
805b2,deep,flow.Sequence,3_0_1_0_4_0,NA,NA,skipped,NA,259808.79999995,NA,NA,259802.5,259808.79999995,2024-05-08T19:39:56Z,259819,NULL,System,maongozi,s,chokochoko,nuksani,mitaani,NA,sdfdsf,NA,1,NA,NA,NA,NA,NA,NA,NA,NA,NA,NA,NA,NA,NA,NA,NA,NA,NA,NA,NA
805b2,Shallow Question,html.Page,3_0_1_0_4_1_0,NA,NA,form submission,5767.0999999046,259808.79999995,259802.5,259819,265586.0999999,265586.20000005,2024-05-08T19:40:01Z,265598.9,NULL,System,maongozi,s,chokochoko,nuksani,mitaani,maongozi,NA,NA,1,NA,NA,NA,NA,NA,NA,NA,NA,NA,NA,NA,NA,NA,NA,NA,NA,NA,NA,NA
805b2,"""Richtig""-Screen",canvas.Screen,3_0_1_0_4_1_1,NA,NA,timeout,4996.9,265589.20000005,265582.4,265598.9,270578.9,270580,2024-05-08T19:40:06Z,270595.8,NULL,System,maongozi,s,chokochoko,nuksani,mitaani,NA,sdfdsf,1,1,NA,NA,NA,NA,NA,NA,NA,NA,NA,NA,NA,NA,NA,NA,NA,NA,NA,NA,NA
805b2,"""Falsch""-Screen",canvas.Screen,3_0_1_0_4_1_2,NA,NA,skipped,NA,270585.20000005,NA,NA,270578.9,270585.29999995,2024-05-08T19:40:06Z,270595.8,NULL,System,maongozi,s,chokochoko,nuksani,mitaani,NA,sdfdsf,NA,1,NA,NA,NA,NA,NA,NA,NA,NA,NA,NA,NA,NA,NA,NA,NA,NA,NA,NA,NA
805b2,shallow,flow.Sequence,3_0_1_0_4_1,NA,NA,completion,10759.9,259808.79999995,259802.5,259819,270578.9,270585.4000001,2024-05-08T19:40:06Z,270595.8,NULL,System,maongozi,s,chokochoko,nuksani,mitaani,NA,sdfdsf,NA,1,NA,NA,NA,NA,NA,NA,NA,NA,NA,NA,NA,NA,NA,NA,NA,NA,NA,NA,NA
805b2,task,flow.Sequence,3_0_1_0_4,NA,NA,completion,10759.9,259808.79999995,259802.5,259819,270578.9,270585.5,2024-05-08T19:40:06Z,270595.8,NULL,System,maongozi,s,chokochoko,nuksani,mitaani,NA,sdfdsf,NA,1,NA,NA,NA,NA,NA,NA,NA,NA,NA,NA,NA,NA,NA,NA,NA,NA,NA,NA,NA
805b2,deep,flow.Sequence,3_0_1_0_5_0,NA,NA,skipped,NA,270585.5,NA,NA,270578.9,270585.5999999,2024-05-08T19:40:06Z,270595.8,NULL,Konkurrent,mshindani,s,msemaji,mvutaji,kipukusa,NA,sdfdsf,NA,1,NA,NA,NA,NA,NA,NA,NA,NA,NA,NA,NA,NA,NA,NA,NA,NA,NA,NA,NA
805b2,Shallow Question,html.Page,3_0_1_0_5_1_0,NA,NA,form submission,4609.6000000954,270585.5999999,270578.9,270595.8,275205.4000001,275205.5,2024-05-08T19:40:11Z,275226.2,NULL,Konkurrent,mshindani,s,msemaji,mvutaji,kipukusa,mshindani,NA,NA,1,NA,NA,NA,NA,NA,NA,NA,NA,NA,NA,NA,NA,NA,NA,NA,NA,NA,NA,NA
805b2,"""Richtig""-Screen",canvas.Screen,3_0_1_0_5_1_1,NA,NA,timeout,4996.6,275207.5999999,275209.5,275226.2,280206.3,280207.29999995,2024-05-08T19:40:16Z,280222.8,NULL,Konkurrent,mshindani,s,msemaji,mvutaji,kipukusa,NA,sdfdsf,1,1,NA,NA,NA,NA,NA,NA,NA,NA,NA,NA,NA,NA,NA,NA,NA,NA,NA,NA,NA
805b2,"""Falsch""-Screen",canvas.Screen,3_0_1_0_5_1_2,NA,NA,skipped,NA,280212.29999995,NA,NA,280206.3,280212.5999999,2024-05-08T19:40:16Z,280222.8,NULL,Konkurrent,mshindani,s,msemaji,mvutaji,kipukusa,NA,sdfdsf,NA,1,NA,NA,NA,NA,NA,NA,NA,NA,NA,NA,NA,NA,NA,NA,NA,NA,NA,NA,NA
805b2,shallow,flow.Sequence,3_0_1_0_5_1,NA,NA,completion,9610.5,270585.5999999,270578.9,270595.8,280206.3,280212.79999995,2024-05-08T19:40:16Z,280222.8,NULL,Konkurrent,mshindani,s,msemaji,mvutaji,kipukusa,NA,sdfdsf,NA,1,NA,NA,NA,NA,NA,NA,NA,NA,NA,NA,NA,NA,NA,NA,NA,NA,NA,NA,NA
805b2,task,flow.Sequence,3_0_1_0_5,NA,NA,completion,9610.5,270585.5,270578.9,270595.8,280206.3,280212.9000001,2024-05-08T19:40:16Z,280222.8,NULL,Konkurrent,mshindani,s,msemaji,mvutaji,kipukusa,NA,sdfdsf,NA,1,NA,NA,NA,NA,NA,NA,NA,NA,NA,NA,NA,NA,NA,NA,NA,NA,NA,NA,NA
805b2,Deep Question,html.Page,3_0_1_0_6_0_0,NA,NA,form submission,4477.9000000477,280212.9000001,280206.3,280222.8,284700.70000005,284700.79999995,2024-05-08T19:40:20Z,284703.4,NULL,Symbol,kielezo,d,NA,NA,NA,symbol,NA,NA,1,NA,NA,NA,NA,NA,NA,NA,NA,NA,NA,NA,NA,NA,NA,NA,NA,NA,NA,NA
805b2,"""Richtig""-Screen",canvas.Screen,3_0_1_0_6_0_1,NA,NA,skipped,NA,284703.5999999,NA,NA,284700.70000005,284703.79999995,2024-05-08T19:40:20Z,284703.4,NULL,Symbol,kielezo,d,NA,NA,NA,NA,sdfdsf,NA,1,NA,NA,NA,NA,NA,NA,NA,NA,NA,NA,NA,NA,NA,NA,NA,NA,NA,NA,NA
805b2,"""Falsch""-Screen",canvas.Screen,3_0_1_0_6_0_2,NA,NA,timeout,4997,284704.70000005,284689.294,284703.4,289683.8,289685.79999995,2024-05-08T19:40:25Z,289700.4,NULL,Symbol,kielezo,d,NA,NA,NA,NA,sdfdsf,0,1,NA,NA,NA,NA,NA,NA,NA,NA,NA,NA,NA,NA,NA,NA,NA,NA,NA,NA,NA
805b2,deep,flow.Sequence,3_0_1_0_6_0,NA,NA,completion,9461,280212.9000001,280206.3,280222.8,289683.8,289686,2024-05-08T19:40:25Z,289700.4,NULL,Symbol,kielezo,d,NA,NA,NA,NA,sdfdsf,NA,1,NA,NA,NA,NA,NA,NA,NA,NA,NA,NA,NA,NA,NA,NA,NA,NA,NA,NA,NA
805b2,shallow,flow.Sequence,3_0_1_0_6_1,NA,NA,skipped,NA,289686.0999999,NA,NA,289683.8,289686.0999999,2024-05-08T19:40:25Z,289700.4,NULL,Symbol,kielezo,d,NA,NA,NA,NA,sdfdsf,NA,1,NA,NA,NA,NA,NA,NA,NA,NA,NA,NA,NA,NA,NA,NA,NA,NA,NA,NA,NA
805b2,task,flow.Sequence,3_0_1_0_6,NA,NA,completion,9461,280212.9000001,280206.3,280222.8,289683.8,289686.0999999,2024-05-08T19:40:25Z,289700.4,NULL,Symbol,kielezo,d,NA,NA,NA,NA,sdfdsf,NA,1,NA,NA,NA,NA,NA,NA,NA,NA,NA,NA,NA,NA,NA,NA,NA,NA,NA,NA,NA
805b2,Deep Question,html.Page,3_0_1_0_7_0_0,NA,NA,form submission,7734.0000000953,289686.29999995,289683.8,289700.4,297434.4000001,297434.70000005,2024-05-08T19:40:33Z,297445.7,NULL,Körper,kiwiliwili,d,NA,NA,NA,kiliwiliki,NA,NA,1,NA,NA,NA,NA,NA,NA,NA,NA,NA,NA,NA,NA,NA,NA,NA,NA,NA,NA,NA
805b2,"""Richtig""-Screen",canvas.Screen,3_0_1_0_7_0_1,NA,NA,skipped,NA,297437.79999995,NA,NA,297434.4000001,297438,2024-05-08T19:40:33Z,297445.7,NULL,Körper,kiwiliwili,d,NA,NA,NA,NA,sdfdsf,NA,1,NA,NA,NA,NA,NA,NA,NA,NA,NA,NA,NA,NA,NA,NA,NA,NA,NA,NA,NA
805b2,"""Falsch""-Screen",canvas.Screen,3_0_1_0_7_0_2,NA,NA,timeout,4997,297438.70000005,297429.838,297445.7,302426.3,302427.70000005,2024-05-08T19:40:38Z,302442.7,NULL,Körper,kiwiliwili,d,NA,NA,NA,NA,sdfdsf,0,1,NA,NA,NA,NA,NA,NA,NA,NA,NA,NA,NA,NA,NA,NA,NA,NA,NA,NA,NA
805b2,deep,flow.Sequence,3_0_1_0_7_0,NA,NA,completion,12725.9,289686.29999995,289683.8,289700.4,302426.3,302428.0999999,2024-05-08T19:40:38Z,302442.7,NULL,Körper,kiwiliwili,d,NA,NA,NA,NA,sdfdsf,NA,1,NA,NA,NA,NA,NA,NA,NA,NA,NA,NA,NA,NA,NA,NA,NA,NA,NA,NA,NA
805b2,shallow,flow.Sequence,3_0_1_0_7_1,NA,NA,skipped,NA,302428.20000005,NA,NA,302426.3,302428.4000001,2024-05-08T19:40:38Z,302442.7,NULL,Körper,kiwiliwili,d,NA,NA,NA,NA,sdfdsf,NA,1,NA,NA,NA,NA,NA,NA,NA,NA,NA,NA,NA,NA,NA,NA,NA,NA,NA,NA,NA
805b2,task,flow.Sequence,3_0_1_0_7,NA,NA,completion,12725.9,289686.20000005,289683.8,289700.4,302426.3,302428.5,2024-05-08T19:40:38Z,302442.7,NULL,Körper,kiwiliwili,d,NA,NA,NA,NA,sdfdsf,NA,1,NA,NA,NA,NA,NA,NA,NA,NA,NA,NA,NA,NA,NA,NA,NA,NA,NA,NA,NA
805b2,block,flow.Loop,3_0_1_0,NA,NA,completion,86580.7,215834.20000005,215824.188,215845.6,302426.3,302428.70000005,2024-05-08T19:40:38Z,302442.7,NULL,NA,NA,NA,NA,NA,NA,NA,sdfdsf,NA,1,NA,NA,NA,NA,NA,NA,NA,NA,NA,NA,NA,NA,NA,NA,NA,NA,NA,NA,NA
805b2,weiter,canvas.Screen,3_0_1_1,sdf,keypress(Space),response,1249.8,302428.9000001,302426.3,302442.7,303692.5,303693.29999995,2024-05-08T19:40:39Z,303725.7,NULL,NA,NA,NA,NA,NA,NA,NA,sdfdsf,NA,1,NA,NA,NA,NA,NA,NA,NA,NA,NA,NA,NA,NA,NA,NA,NA,NA,NA,NA,NA
805b2,check continue,flow.Sequence,3_0_1,NA,NA,completion,87846.9,215834.20000005,215824.188,215845.6,303692.5,303693.5,2024-05-08T19:40:39Z,303725.7,NULL,NA,NA,NA,NA,NA,NA,NA,sdfdsf,NA,1,NA,NA,NA,NA,NA,NA,NA,NA,NA,NA,NA,NA,NA,NA,NA,NA,NA,NA,NA
805b2,deep,flow.Sequence,3_0_2_0_0_0,NA,NA,skipped,NA,303713.5,NA,NA,303692.5,303713.5999999,2024-05-08T19:40:39Z,303725.7,NULL,Lawine,banguko,s,maambukizi,usuluhishi,chekechea,NA,sdf,NA,2,NA,NA,NA,NA,NA,NA,NA,NA,NA,NA,NA,NA,NA,NA,NA,NA,NA,NA,NA
805b2,Shallow Question,html.Page,3_0_2_0_0_1_0,NA,NA,form submission,3061.3,303713.5999999,303709.4,303725.7,306787,306787.0999999,2024-05-08T19:40:42Z,306790.2,NULL,Lawine,banguko,s,maambukizi,usuluhishi,chekechea,banguko,NA,NA,2,NA,NA,NA,NA,NA,NA,NA,NA,NA,NA,NA,NA,NA,NA,NA,NA,NA,NA,NA
805b2,"""Richtig""-Screen",canvas.Screen,3_0_2_0_0_1_1,NA,NA,timeout,4997.2,306787.5,306773.9,306790.2,311770.6,311771.5999999,2024-05-08T19:40:47Z,311787.4,NULL,Lawine,banguko,s,maambukizi,usuluhishi,chekechea,NA,sdf,1,2,NA,NA,NA,NA,NA,NA,NA,NA,NA,NA,NA,NA,NA,NA,NA,NA,NA,NA,NA
805b2,"""Falsch""-Screen",canvas.Screen,3_0_2_0_0_1_2,NA,NA,skipped,NA,311776.5999999,NA,NA,311770.6,311776.70000005,2024-05-08T19:40:47Z,311787.4,NULL,Lawine,banguko,s,maambukizi,usuluhishi,chekechea,NA,sdf,NA,2,NA,NA,NA,NA,NA,NA,NA,NA,NA,NA,NA,NA,NA,NA,NA,NA,NA,NA,NA
805b2,shallow,flow.Sequence,3_0_2_0_0_1,NA,NA,completion,8044.9,303713.5999999,303709.4,303725.7,311770.6,311776.70000005,2024-05-08T19:40:47Z,311787.4,NULL,Lawine,banguko,s,maambukizi,usuluhishi,chekechea,NA,sdf,NA,2,NA,NA,NA,NA,NA,NA,NA,NA,NA,NA,NA,NA,NA,NA,NA,NA,NA,NA,NA
805b2,task,flow.Sequence,3_0_2_0_0,NA,NA,completion,8044.9,303713.5,303709.4,303725.7,311770.6,311776.79999995,2024-05-08T19:40:47Z,311787.4,NULL,Lawine,banguko,s,maambukizi,usuluhishi,chekechea,NA,sdf,NA,2,NA,NA,NA,NA,NA,NA,NA,NA,NA,NA,NA,NA,NA,NA,NA,NA,NA,NA,NA
805b2,Deep Question,html.Page,3_0_2_0_1_0_0,NA,NA,form submission,4862.1999999046,311776.79999995,311770.6,311787.4,316649.5999999,316649.79999995,2024-05-08T19:40:52Z,316651.382,NULL,Zuwachs,nyongeza,d,NA,NA,NA,nyanazo,NA,NA,2,NA,NA,NA,NA,NA,NA,NA,NA,NA,NA,NA,NA,NA,NA,NA,NA,NA,NA,NA
805b2,"""Richtig""-Screen",canvas.Screen,3_0_2_0_1_0_1,NA,NA,skipped,NA,316652.5999999,NA,NA,316649.5999999,316652.70000005,2024-05-08T19:40:52Z,316651.382,NULL,Zuwachs,nyongeza,d,NA,NA,NA,NA,sdf,NA,2,NA,NA,NA,NA,NA,NA,NA,NA,NA,NA,NA,NA,NA,NA,NA,NA,NA,NA,NA
805b2,"""Falsch""-Screen",canvas.Screen,3_0_2_0_1_0_2,NA,NA,timeout,4996.618,316653.0999999,316651.382,316651.382,321631.4,321632.29999995,2024-05-08T19:40:57Z,321648,NULL,Zuwachs,nyongeza,d,NA,NA,NA,NA,sdf,0,2,NA,NA,NA,NA,NA,NA,NA,NA,NA,NA,NA,NA,NA,NA,NA,NA,NA,NA,NA
805b2,deep,flow.Sequence,3_0_2_0_1_0,NA,NA,completion,9844,311776.79999995,311770.6,311787.4,321631.4,321632.79999995,2024-05-08T19:40:57Z,321648,NULL,Zuwachs,nyongeza,d,NA,NA,NA,NA,sdf,NA,2,NA,NA,NA,NA,NA,NA,NA,NA,NA,NA,NA,NA,NA,NA,NA,NA,NA,NA,NA
805b2,shallow,flow.Sequence,3_0_2_0_1_1,NA,NA,skipped,NA,321632.9000001,NA,NA,321631.4,321633,2024-05-08T19:40:57Z,321648,NULL,Zuwachs,nyongeza,d,NA,NA,NA,NA,sdf,NA,2,NA,NA,NA,NA,NA,NA,NA,NA,NA,NA,NA,NA,NA,NA,NA,NA,NA,NA,NA
805b2,task,flow.Sequence,3_0_2_0_1,NA,NA,completion,9844,311776.79999995,311770.6,311787.4,321631.4,321633.20000005,2024-05-08T19:40:57Z,321648,NULL,Zuwachs,nyongeza,d,NA,NA,NA,NA,sdf,NA,2,NA,NA,NA,NA,NA,NA,NA,NA,NA,NA,NA,NA,NA,NA,NA,NA,NA,NA,NA
805b2,deep,flow.Sequence,3_0_2_0_2_0,NA,NA,skipped,NA,321633.29999995,NA,NA,321631.4,321633.5,2024-05-08T19:40:57Z,321648,NULL,Konkurrent,mshindani,s,msemaji,mvutaji,kipukusa,NA,sdf,NA,2,NA,NA,NA,NA,NA,NA,NA,NA,NA,NA,NA,NA,NA,NA,NA,NA,NA,NA,NA
805b2,Shallow Question,html.Page,3_0_2_0_2_1_0,NA,NA,form submission,3431.2000000477,321633.5999999,321631.4,321648,325079.20000005,325079.4000001,2024-05-08T19:41:01Z,325095.8,NULL,Konkurrent,mshindani,s,msemaji,mvutaji,kipukusa,mshindani,NA,NA,2,NA,NA,NA,NA,NA,NA,NA,NA,NA,NA,NA,NA,NA,NA,NA,NA,NA,NA,NA
805b2,"""Richtig""-Screen",canvas.Screen,3_0_2_0_2_1_1,NA,NA,timeout,4997.2,325081.79999995,325079.396,325095.8,330076,330077.0999999,2024-05-08T19:41:06Z,330093,NULL,Konkurrent,mshindani,s,msemaji,mvutaji,kipukusa,NA,sdf,1,2,NA,NA,NA,NA,NA,NA,NA,NA,NA,NA,NA,NA,NA,NA,NA,NA,NA,NA,NA
805b2,"""Falsch""-Screen",canvas.Screen,3_0_2_0_2_1_2,NA,NA,skipped,NA,330082.4000001,NA,NA,330076,330082.5999999,2024-05-08T19:41:06Z,330093,NULL,Konkurrent,mshindani,s,msemaji,mvutaji,kipukusa,NA,sdf,NA,2,NA,NA,NA,NA,NA,NA,NA,NA,NA,NA,NA,NA,NA,NA,NA,NA,NA,NA,NA
805b2,shallow,flow.Sequence,3_0_2_0_2_1,NA,NA,completion,8428,321633.5999999,321631.4,321648,330076,330082.5999999,2024-05-08T19:41:06Z,330093,NULL,Konkurrent,mshindani,s,msemaji,mvutaji,kipukusa,NA,sdf,NA,2,NA,NA,NA,NA,NA,NA,NA,NA,NA,NA,NA,NA,NA,NA,NA,NA,NA,NA,NA
805b2,task,flow.Sequence,3_0_2_0_2,NA,NA,completion,8428,321633.29999995,321631.4,321648,330076,330082.70000005,2024-05-08T19:41:06Z,330093,NULL,Konkurrent,mshindani,s,msemaji,mvutaji,kipukusa,NA,sdf,NA,2,NA,NA,NA,NA,NA,NA,NA,NA,NA,NA,NA,NA,NA,NA,NA,NA,NA,NA,NA
805b2,deep,flow.Sequence,3_0_2_0_3_0,NA,NA,skipped,NA,330082.70000005,NA,NA,330076,330082.79999995,2024-05-08T19:41:06Z,330093,NULL,Vorsorge,tahadhari,s,ufafanuzi,makini,mashambani,NA,sdf,NA,2,NA,NA,NA,NA,NA,NA,NA,NA,NA,NA,NA,NA,NA,NA,NA,NA,NA,NA,NA
805b2,Shallow Question,html.Page,3_0_2_0_3_1_0,NA,NA,form submission,4618.5,330082.79999995,330076,330093,334711.5,334711.70000005,2024-05-08T19:41:10Z,334723.5,NULL,Vorsorge,tahadhari,s,ufafanuzi,makini,mashambani,tahadhari,NA,NA,2,NA,NA,NA,NA,NA,NA,NA,NA,NA,NA,NA,NA,NA,NA,NA,NA,NA,NA,NA
805b2,"""Richtig""-Screen",canvas.Screen,3_0_2_0_3_1_1,NA,NA,timeout,4996.9,334714.5999999,334706.8,334723.5,339703.7,339704.70000005,2024-05-08T19:41:15Z,339720.4,NULL,Vorsorge,tahadhari,s,ufafanuzi,makini,mashambani,NA,sdf,1,2,NA,NA,NA,NA,NA,NA,NA,NA,NA,NA,NA,NA,NA,NA,NA,NA,NA,NA,NA
805b2,"""Falsch""-Screen",canvas.Screen,3_0_2_0_3_1_2,NA,NA,skipped,NA,339709.29999995,NA,NA,339703.7,339709.4000001,2024-05-08T19:41:15Z,339720.4,NULL,Vorsorge,tahadhari,s,ufafanuzi,makini,mashambani,NA,sdf,NA,2,NA,NA,NA,NA,NA,NA,NA,NA,NA,NA,NA,NA,NA,NA,NA,NA,NA,NA,NA
805b2,shallow,flow.Sequence,3_0_2_0_3_1,NA,NA,completion,9610.7,330082.79999995,330076,330093,339703.7,339709.5,2024-05-08T19:41:15Z,339720.4,NULL,Vorsorge,tahadhari,s,ufafanuzi,makini,mashambani,NA,sdf,NA,2,NA,NA,NA,NA,NA,NA,NA,NA,NA,NA,NA,NA,NA,NA,NA,NA,NA,NA,NA
805b2,task,flow.Sequence,3_0_2_0_3,NA,NA,completion,9610.7,330082.70000005,330076,330093,339703.7,339709.5,2024-05-08T19:41:15Z,339720.4,NULL,Vorsorge,tahadhari,s,ufafanuzi,makini,mashambani,NA,sdf,NA,2,NA,NA,NA,NA,NA,NA,NA,NA,NA,NA,NA,NA,NA,NA,NA,NA,NA,NA,NA
805b2,deep,flow.Sequence,3_0_2_0_4_0,NA,NA,skipped,NA,339709.5,NA,NA,339703.7,339709.5,2024-05-08T19:41:15Z,339720.4,NULL,System,maongozi,s,chokochoko,nuksani,mitaani,NA,sdf,NA,2,NA,NA,NA,NA,NA,NA,NA,NA,NA,NA,NA,NA,NA,NA,NA,NA,NA,NA,NA
805b2,Shallow Question,html.Page,3_0_2_0_4_1_0,NA,NA,form submission,3855.6,339709.5999999,339703.7,339720.4,343576,343576.29999995,2024-05-08T19:41:19Z,343584.5,NULL,System,maongozi,s,chokochoko,nuksani,mitaani,maongozi,NA,NA,2,NA,NA,NA,NA,NA,NA,NA,NA,NA,NA,NA,NA,NA,NA,NA,NA,NA,NA,NA
805b2,"""Richtig""-Screen",canvas.Screen,3_0_2_0_4_1_1,NA,NA,timeout,4997,343579.20000005,343568.188,343584.5,348564.7,348565.70000005,2024-05-08T19:41:24Z,348581.5,NULL,System,maongozi,s,chokochoko,nuksani,mitaani,NA,sdf,1,2,NA,NA,NA,NA,NA,NA,NA,NA,NA,NA,NA,NA,NA,NA,NA,NA,NA,NA,NA
805b2,"""Falsch""-Screen",canvas.Screen,3_0_2_0_4_1_2,NA,NA,skipped,NA,348570.20000005,NA,NA,348564.7,348570.29999995,2024-05-08T19:41:24Z,348581.5,NULL,System,maongozi,s,chokochoko,nuksani,mitaani,NA,sdf,NA,2,NA,NA,NA,NA,NA,NA,NA,NA,NA,NA,NA,NA,NA,NA,NA,NA,NA,NA,NA
805b2,shallow,flow.Sequence,3_0_2_0_4_1,NA,NA,completion,8844.3,339709.5999999,339703.7,339720.4,348564.7,348570.4000001,2024-05-08T19:41:24Z,348581.5,NULL,System,maongozi,s,chokochoko,nuksani,mitaani,NA,sdf,NA,2,NA,NA,NA,NA,NA,NA,NA,NA,NA,NA,NA,NA,NA,NA,NA,NA,NA,NA,NA
805b2,task,flow.Sequence,3_0_2_0_4,NA,NA,completion,8844.3,339709.5,339703.7,339720.4,348564.7,348570.5,2024-05-08T19:41:24Z,348581.5,NULL,System,maongozi,s,chokochoko,nuksani,mitaani,NA,sdf,NA,2,NA,NA,NA,NA,NA,NA,NA,NA,NA,NA,NA,NA,NA,NA,NA,NA,NA,NA,NA
805b2,Deep Question,html.Page,3_0_2_0_5_0_0,NA,NA,form submission,6171.9000000954,348570.5,348564.7,348581.5,354753.4000001,354753.5999999,2024-05-08T19:41:30Z,354760.7,NULL,Körper,kiwiliwili,d,NA,NA,NA,kiwiliwili,NA,NA,2,NA,NA,NA,NA,NA,NA,NA,NA,NA,NA,NA,NA,NA,NA,NA,NA,NA,NA,NA
805b2,"""Richtig""-Screen",canvas.Screen,3_0_2_0_5_0_1,NA,NA,timeout,4997.4,354756.4000001,354747.398,354760.7,359741.5,359742.5999999,2024-05-08T19:41:35Z,359758.1,NULL,Körper,kiwiliwili,d,NA,NA,NA,NA,sdf,1,2,NA,NA,NA,NA,NA,NA,NA,NA,NA,NA,NA,NA,NA,NA,NA,NA,NA,NA,NA
805b2,"""Falsch""-Screen",canvas.Screen,3_0_2_0_5_0_2,NA,NA,skipped,NA,359747.79999995,NA,NA,359741.5,359747.9000001,2024-05-08T19:41:35Z,359758.1,NULL,Körper,kiwiliwili,d,NA,NA,NA,NA,sdf,NA,2,NA,NA,NA,NA,NA,NA,NA,NA,NA,NA,NA,NA,NA,NA,NA,NA,NA,NA,NA
805b2,deep,flow.Sequence,3_0_2_0_5_0,NA,NA,completion,11160,348570.5,348564.7,348581.5,359741.5,359748.0999999,2024-05-08T19:41:35Z,359758.1,NULL,Körper,kiwiliwili,d,NA,NA,NA,NA,sdf,NA,2,NA,NA,NA,NA,NA,NA,NA,NA,NA,NA,NA,NA,NA,NA,NA,NA,NA,NA,NA
805b2,shallow,flow.Sequence,3_0_2_0_5_1,NA,NA,skipped,NA,359748.0999999,NA,NA,359741.5,359748.0999999,2024-05-08T19:41:35Z,359758.1,NULL,Körper,kiwiliwili,d,NA,NA,NA,NA,sdf,NA,2,NA,NA,NA,NA,NA,NA,NA,NA,NA,NA,NA,NA,NA,NA,NA,NA,NA,NA,NA
805b2,task,flow.Sequence,3_0_2_0_5,NA,NA,completion,11160,348570.5,348564.7,348581.5,359741.5,359748.0999999,2024-05-08T19:41:35Z,359758.1,NULL,Körper,kiwiliwili,d,NA,NA,NA,NA,sdf,NA,2,NA,NA,NA,NA,NA,NA,NA,NA,NA,NA,NA,NA,NA,NA,NA,NA,NA,NA,NA
805b2,Deep Question,html.Page,3_0_2_0_6_0_0,NA,NA,form submission,10842.800000095,359748.20000005,359741.5,359758.1,370600.9000001,370601.20000005,2024-05-08T19:41:46Z,370618.3,NULL,Übersicht,kilindo,d,NA,NA,NA,übersicht,NA,NA,2,NA,NA,NA,NA,NA,NA,NA,NA,NA,NA,NA,NA,NA,NA,NA,NA,NA,NA,NA
805b2,"""Richtig""-Screen",canvas.Screen,3_0_2_0_6_0_1,NA,NA,skipped,NA,370604.0999999,NA,NA,370600.9000001,370604.29999995,2024-05-08T19:41:46Z,370618.3,NULL,Übersicht,kilindo,d,NA,NA,NA,NA,sdf,NA,2,NA,NA,NA,NA,NA,NA,NA,NA,NA,NA,NA,NA,NA,NA,NA,NA,NA,NA,NA
805b2,"""Falsch""-Screen",canvas.Screen,3_0_2_0_6_0_2,NA,NA,timeout,4996.4,370605.0999999,370601.696,370618.3,375598.3,375599.29999995,2024-05-08T19:41:51Z,375614.7,NULL,Übersicht,kilindo,d,NA,NA,NA,NA,sdf,0,2,NA,NA,NA,NA,NA,NA,NA,NA,NA,NA,NA,NA,NA,NA,NA,NA,NA,NA,NA
805b2,deep,flow.Sequence,3_0_2_0_6_0,NA,NA,completion,15840.2,359748.20000005,359741.5,359758.1,375598.3,375599.70000005,2024-05-08T19:41:51Z,375614.7,NULL,Übersicht,kilindo,d,NA,NA,NA,NA,sdf,NA,2,NA,NA,NA,NA,NA,NA,NA,NA,NA,NA,NA,NA,NA,NA,NA,NA,NA,NA,NA
805b2,shallow,flow.Sequence,3_0_2_0_6_1,NA,NA,skipped,NA,375599.79999995,NA,NA,375598.3,375599.9000001,2024-05-08T19:41:51Z,375614.7,NULL,Übersicht,kilindo,d,NA,NA,NA,NA,sdf,NA,2,NA,NA,NA,NA,NA,NA,NA,NA,NA,NA,NA,NA,NA,NA,NA,NA,NA,NA,NA
805b2,task,flow.Sequence,3_0_2_0_6,NA,NA,completion,15840.2,359748.20000005,359741.5,359758.1,375598.3,375600.0999999,2024-05-08T19:41:51Z,375614.7,NULL,Übersicht,kilindo,d,NA,NA,NA,NA,sdf,NA,2,NA,NA,NA,NA,NA,NA,NA,NA,NA,NA,NA,NA,NA,NA,NA,NA,NA,NA,NA
805b2,Deep Question,html.Page,3_0_2_0_7_0_0,NA,NA,form submission,4857.7000000954,375600.29999995,375598.3,375614.7,380472.4000001,380472.5999999,2024-05-08T19:41:56Z,380478.3,NULL,Symbol,kielezo,d,NA,NA,NA,kiwiliwili,NA,NA,2,NA,NA,NA,NA,NA,NA,NA,NA,NA,NA,NA,NA,NA,NA,NA,NA,NA,NA,NA
805b2,"""Richtig""-Screen",canvas.Screen,3_0_2_0_7_0_1,NA,NA,skipped,NA,380475.5,NA,NA,380472.4000001,380475.70000005,2024-05-08T19:41:56Z,380478.3,NULL,Symbol,kielezo,d,NA,NA,NA,NA,sdf,NA,2,NA,NA,NA,NA,NA,NA,NA,NA,NA,NA,NA,NA,NA,NA,NA,NA,NA,NA,NA
805b2,"""Falsch""-Screen",canvas.Screen,3_0_2_0_7_0_2,NA,NA,timeout,4997.3,380476.4000001,380465.512,380478.3,385459.1,385460.0999999,2024-05-08T19:42:01Z,385475.6,NULL,Symbol,kielezo,d,NA,NA,NA,NA,sdf,0,2,NA,NA,NA,NA,NA,NA,NA,NA,NA,NA,NA,NA,NA,NA,NA,NA,NA,NA,NA
805b2,deep,flow.Sequence,3_0_2_0_7_0,NA,NA,completion,9844.4,375600.29999995,375598.3,375614.7,385459.1,385460.5,2024-05-08T19:42:01Z,385475.6,NULL,Symbol,kielezo,d,NA,NA,NA,NA,sdf,NA,2,NA,NA,NA,NA,NA,NA,NA,NA,NA,NA,NA,NA,NA,NA,NA,NA,NA,NA,NA
805b2,shallow,flow.Sequence,3_0_2_0_7_1,NA,NA,skipped,NA,385460.5999999,NA,NA,385459.1,385460.79999995,2024-05-08T19:42:01Z,385475.6,NULL,Symbol,kielezo,d,NA,NA,NA,NA,sdf,NA,2,NA,NA,NA,NA,NA,NA,NA,NA,NA,NA,NA,NA,NA,NA,NA,NA,NA,NA,NA
805b2,task,flow.Sequence,3_0_2_0_7,NA,NA,completion,9844.4,375600.29999995,375598.3,375614.7,385459.1,385460.9000001,2024-05-08T19:42:01Z,385475.6,NULL,Symbol,kielezo,d,NA,NA,NA,NA,sdf,NA,2,NA,NA,NA,NA,NA,NA,NA,NA,NA,NA,NA,NA,NA,NA,NA,NA,NA,NA,NA
805b2,block,flow.Loop,3_0_2_0,NA,NA,completion,81733.4,303713.5,303709.4,303725.7,385459.1,385461.20000005,2024-05-08T19:42:01Z,385475.6,NULL,NA,NA,NA,NA,NA,NA,NA,sdf,NA,2,NA,NA,NA,NA,NA,NA,NA,NA,NA,NA,NA,NA,NA,NA,NA,NA,NA,NA,NA
805b2,weiter,canvas.Screen,3_0_2_1,sdf,keypress(Space),response,1958.6999999523,385461.29999995,385459.1,385475.6,387434.29999995,387434.9000001,2024-05-08T19:42:03Z,387457.4,NULL,NA,NA,NA,NA,NA,NA,NA,sdf,NA,2,NA,NA,NA,NA,NA,NA,NA,NA,NA,NA,NA,NA,NA,NA,NA,NA,NA,NA,NA
805b2,check continue,flow.Sequence,3_0_2,NA,NA,completion,83708.599999952,303713.5,303709.4,303725.7,387434.29999995,387435,2024-05-08T19:42:03Z,387457.4,NULL,NA,NA,NA,NA,NA,NA,NA,sdf,NA,2,NA,NA,NA,NA,NA,NA,NA,NA,NA,NA,NA,NA,NA,NA,NA,NA,NA,NA,NA
805b2,Deep Question,html.Page,3_0_3_0_0_0_0,NA,NA,form submission,6038.1999999046,387453.70000005,387442.188,387457.4,393495.5999999,393495.79999995,2024-05-08T19:42:09Z,393503.7,NULL,Körper,kiwiliwili,d,NA,NA,NA,kiendezo,NA,NA,3,NA,NA,NA,NA,NA,NA,NA,NA,NA,NA,NA,NA,NA,NA,NA,NA,NA,NA,NA
805b2,"""Richtig""-Screen",canvas.Screen,3_0_3_0_0_0_1,NA,NA,skipped,NA,393498.5999999,NA,NA,393495.5999999,393498.79999995,2024-05-08T19:42:09Z,393503.7,NULL,Körper,kiwiliwili,d,NA,NA,NA,NA,qt,NA,3,NA,NA,NA,NA,NA,NA,NA,NA,NA,NA,NA,NA,NA,NA,NA,NA,NA,NA,NA
805b2,"""Falsch""-Screen",canvas.Screen,3_0_3_0_0_0_2,NA,NA,timeout,4997.5,393499.5,393487.52,393503.7,398484.1,398485.0999999,2024-05-08T19:42:14Z,398501.2,NULL,Körper,kiwiliwili,d,NA,NA,NA,NA,qt,0,3,NA,NA,NA,NA,NA,NA,NA,NA,NA,NA,NA,NA,NA,NA,NA,NA,NA,NA,NA
805b2,deep,flow.Sequence,3_0_3_0_0_0,NA,NA,completion,11026.7,387453.70000005,387442.188,387457.4,398484.1,398485.5999999,2024-05-08T19:42:14Z,398501.2,NULL,Körper,kiwiliwili,d,NA,NA,NA,NA,qt,NA,3,NA,NA,NA,NA,NA,NA,NA,NA,NA,NA,NA,NA,NA,NA,NA,NA,NA,NA,NA
805b2,shallow,flow.Sequence,3_0_3_0_0_1,NA,NA,skipped,NA,398485.70000005,NA,NA,398484.1,398485.9000001,2024-05-08T19:42:14Z,398501.2,NULL,Körper,kiwiliwili,d,NA,NA,NA,NA,qt,NA,3,NA,NA,NA,NA,NA,NA,NA,NA,NA,NA,NA,NA,NA,NA,NA,NA,NA,NA,NA
805b2,task,flow.Sequence,3_0_3_0_0,NA,NA,completion,11026.7,387453.70000005,387442.188,387457.4,398484.1,398486.0999999,2024-05-08T19:42:14Z,398501.2,NULL,Körper,kiwiliwili,d,NA,NA,NA,NA,qt,NA,3,NA,NA,NA,NA,NA,NA,NA,NA,NA,NA,NA,NA,NA,NA,NA,NA,NA,NA,NA
805b2,Deep Question,html.Page,3_0_3_0_1_0_0,NA,NA,form submission,12042.200000095,398486.29999995,398484.1,398501.2,410543.4000001,410543.5999999,2024-05-08T19:42:26Z,410560.4,NULL,Zuwachs,nyongeza,d,NA,NA,NA,ngenyonzo,NA,NA,3,NA,NA,NA,NA,NA,NA,NA,NA,NA,NA,NA,NA,NA,NA,NA,NA,NA,NA,NA
805b2,"""Richtig""-Screen",canvas.Screen,3_0_3_0_1_0_1,NA,NA,skipped,NA,410546.79999995,NA,NA,410543.4000001,410546.9000001,2024-05-08T19:42:26Z,410560.4,NULL,Zuwachs,nyongeza,d,NA,NA,NA,NA,qt,NA,3,NA,NA,NA,NA,NA,NA,NA,NA,NA,NA,NA,NA,NA,NA,NA,NA,NA,NA,NA
805b2,"""Falsch""-Screen",canvas.Screen,3_0_3_0_1_0_2,NA,NA,timeout,4996.9,410547.4000001,410544.448,410560.4,415540.4,415541.79999995,2024-05-08T19:42:31Z,415557.3,NULL,Zuwachs,nyongeza,d,NA,NA,NA,NA,qt,0,3,NA,NA,NA,NA,NA,NA,NA,NA,NA,NA,NA,NA,NA,NA,NA,NA,NA,NA,NA
805b2,deep,flow.Sequence,3_0_3_0_1_0,NA,NA,completion,17039.2,398486.20000005,398484.1,398501.2,415540.4,415542.20000005,2024-05-08T19:42:31Z,415557.3,NULL,Zuwachs,nyongeza,d,NA,NA,NA,NA,qt,NA,3,NA,NA,NA,NA,NA,NA,NA,NA,NA,NA,NA,NA,NA,NA,NA,NA,NA,NA,NA
805b2,shallow,flow.Sequence,3_0_3_0_1_1,NA,NA,skipped,NA,415542.29999995,NA,NA,415540.4,415542.4000001,2024-05-08T19:42:31Z,415557.3,NULL,Zuwachs,nyongeza,d,NA,NA,NA,NA,qt,NA,3,NA,NA,NA,NA,NA,NA,NA,NA,NA,NA,NA,NA,NA,NA,NA,NA,NA,NA,NA
805b2,task,flow.Sequence,3_0_3_0_1,NA,NA,completion,17039.2,398486.20000005,398484.1,398501.2,415540.4,415542.70000005,2024-05-08T19:42:31Z,415557.3,NULL,Zuwachs,nyongeza,d,NA,NA,NA,NA,qt,NA,3,NA,NA,NA,NA,NA,NA,NA,NA,NA,NA,NA,NA,NA,NA,NA,NA,NA,NA,NA
805b2,deep,flow.Sequence,3_0_3_0_2_0,NA,NA,skipped,NA,415542.9000001,NA,NA,415540.4,415543,2024-05-08T19:42:31Z,415557.3,NULL,Konkurrent,mshindani,s,msemaji,mvutaji,kipukusa,NA,qt,NA,3,NA,NA,NA,NA,NA,NA,NA,NA,NA,NA,NA,NA,NA,NA,NA,NA,NA,NA,NA
805b2,Shallow Question,html.Page,3_0_3_0_2_1_0,NA,NA,form submission,9329.2999999046,415543.0999999,415540.4,415557.3,424886.5999999,424886.79999995,2024-05-08T19:42:41Z,424901.8,NULL,Konkurrent,mshindani,s,msemaji,mvutaji,kipukusa,mshindani,NA,NA,3,NA,NA,NA,NA,NA,NA,NA,NA,NA,NA,NA,NA,NA,NA,NA,NA,NA,NA,NA
805b2,"""Richtig""-Screen",canvas.Screen,3_0_3_0_2_1_1,NA,NA,timeout,4997,424888.5999999,424885.62,424901.8,429881.8,429882.79999995,2024-05-08T19:42:46Z,429898.8,NULL,Konkurrent,mshindani,s,msemaji,mvutaji,kipukusa,NA,qt,1,3,NA,NA,NA,NA,NA,NA,NA,NA,NA,NA,NA,NA,NA,NA,NA,NA,NA,NA,NA
805b2,"""Falsch""-Screen",canvas.Screen,3_0_3_0_2_1_2,NA,NA,skipped,NA,429887.9000001,NA,NA,429881.8,429888.0999999,2024-05-08T19:42:46Z,429898.8,NULL,Konkurrent,mshindani,s,msemaji,mvutaji,kipukusa,NA,qt,NA,3,NA,NA,NA,NA,NA,NA,NA,NA,NA,NA,NA,NA,NA,NA,NA,NA,NA,NA,NA
805b2,shallow,flow.Sequence,3_0_3_0_2_1,NA,NA,completion,14324.5,415543.0999999,415540.4,415557.3,429881.8,429888.29999995,2024-05-08T19:42:46Z,429898.8,NULL,Konkurrent,mshindani,s,msemaji,mvutaji,kipukusa,NA,qt,NA,3,NA,NA,NA,NA,NA,NA,NA,NA,NA,NA,NA,NA,NA,NA,NA,NA,NA,NA,NA
805b2,task,flow.Sequence,3_0_3_0_2,NA,NA,completion,14324.5,415542.79999995,415540.4,415557.3,429881.8,429888.4000001,2024-05-08T19:42:46Z,429898.8,NULL,Konkurrent,mshindani,s,msemaji,mvutaji,kipukusa,NA,qt,NA,3,NA,NA,NA,NA,NA,NA,NA,NA,NA,NA,NA,NA,NA,NA,NA,NA,NA,NA,NA
805b2,Deep Question,html.Page,3_0_3_0_3_0_0,NA,NA,form submission,5008.9999999523,429888.4000001,429881.8,429898.8,434907.79999995,434908.0999999,2024-05-08T19:42:51Z,434911.8,NULL,Symbol,kielezo,d,NA,NA,NA,kilindo,NA,NA,3,NA,NA,NA,NA,NA,NA,NA,NA,NA,NA,NA,NA,NA,NA,NA,NA,NA,NA,NA
805b2,"""Richtig""-Screen",canvas.Screen,3_0_3_0_3_0_1,NA,NA,skipped,NA,434910.79999995,NA,NA,434907.79999995,434910.9000001,2024-05-08T19:42:51Z,434911.8,NULL,Symbol,kielezo,d,NA,NA,NA,NA,qt,NA,3,NA,NA,NA,NA,NA,NA,NA,NA,NA,NA,NA,NA,NA,NA,NA,NA,NA,NA,NA
805b2,"""Falsch""-Screen",canvas.Screen,3_0_3_0_3_0_2,NA,NA,timeout,4997.5,434911.5999999,434903.7,434911.8,439892,439892.4000001,2024-05-08T19:42:56Z,439909.3,NULL,Symbol,kielezo,d,NA,NA,NA,NA,qt,0,3,NA,NA,NA,NA,NA,NA,NA,NA,NA,NA,NA,NA,NA,NA,NA,NA,NA,NA,NA
805b2,deep,flow.Sequence,3_0_3_0_3_0,NA,NA,completion,9993.2,429888.4000001,429881.8,429898.8,439892,439892.5,2024-05-08T19:42:56Z,439909.3,NULL,Symbol,kielezo,d,NA,NA,NA,NA,qt,NA,3,NA,NA,NA,NA,NA,NA,NA,NA,NA,NA,NA,NA,NA,NA,NA,NA,NA,NA,NA
805b2,shallow,flow.Sequence,3_0_3_0_3_1,NA,NA,skipped,NA,439892.5999999,NA,NA,439892,439892.5999999,2024-05-08T19:42:56Z,439909.3,NULL,Symbol,kielezo,d,NA,NA,NA,NA,qt,NA,3,NA,NA,NA,NA,NA,NA,NA,NA,NA,NA,NA,NA,NA,NA,NA,NA,NA,NA,NA
805b2,task,flow.Sequence,3_0_3_0_3,NA,NA,completion,9993.2,429888.4000001,429881.8,429898.8,439892,439892.70000005,2024-05-08T19:42:56Z,439909.3,NULL,Symbol,kielezo,d,NA,NA,NA,NA,qt,NA,3,NA,NA,NA,NA,NA,NA,NA,NA,NA,NA,NA,NA,NA,NA,NA,NA,NA,NA,NA
805b2,deep,flow.Sequence,3_0_3_0_4_0,NA,NA,skipped,NA,439892.70000005,NA,NA,439892,439892.79999995,2024-05-08T19:42:56Z,439909.3,NULL,System,maongozi,s,chokochoko,nuksani,mitaani,NA,qt,NA,3,NA,NA,NA,NA,NA,NA,NA,NA,NA,NA,NA,NA,NA,NA,NA,NA,NA,NA,NA
805b2,Shallow Question,html.Page,3_0_3_0_4_1_0,NA,NA,form submission,4098.2,439892.79999995,439892,439909.3,444007.5,444007.5999999,2024-05-08T19:43:00Z,444040.2,NULL,System,maongozi,s,chokochoko,nuksani,mitaani,maongozi,NA,NA,3,NA,NA,NA,NA,NA,NA,NA,NA,NA,NA,NA,NA,NA,NA,NA,NA,NA,NA,NA
805b2,"""Richtig""-Screen",canvas.Screen,3_0_3_0_4_1_1,NA,NA,timeout,4996.8,444010.5999999,444023.5,444040.2,449020.4,449021.4000001,2024-05-08T19:43:05Z,449037,NULL,System,maongozi,s,chokochoko,nuksani,mitaani,NA,qt,1,3,NA,NA,NA,NA,NA,NA,NA,NA,NA,NA,NA,NA,NA,NA,NA,NA,NA,NA,NA
805b2,"""Falsch""-Screen",canvas.Screen,3_0_3_0_4_1_2,NA,NA,skipped,NA,449026.79999995,NA,NA,449020.4,449026.9000001,2024-05-08T19:43:05Z,449037,NULL,System,maongozi,s,chokochoko,nuksani,mitaani,NA,qt,NA,3,NA,NA,NA,NA,NA,NA,NA,NA,NA,NA,NA,NA,NA,NA,NA,NA,NA,NA,NA
805b2,shallow,flow.Sequence,3_0_3_0_4_1,NA,NA,completion,9111.1,439892.79999995,439892,439909.3,449020.4,449027,2024-05-08T19:43:05Z,449037,NULL,System,maongozi,s,chokochoko,nuksani,mitaani,NA,qt,NA,3,NA,NA,NA,NA,NA,NA,NA,NA,NA,NA,NA,NA,NA,NA,NA,NA,NA,NA,NA
805b2,task,flow.Sequence,3_0_3_0_4,NA,NA,completion,9111.1,439892.70000005,439892,439909.3,449020.4,449027,2024-05-08T19:43:05Z,449037,NULL,System,maongozi,s,chokochoko,nuksani,mitaani,NA,qt,NA,3,NA,NA,NA,NA,NA,NA,NA,NA,NA,NA,NA,NA,NA,NA,NA,NA,NA,NA,NA
805b2,deep,flow.Sequence,3_0_3_0_5_0,NA,NA,skipped,NA,449027.0999999,NA,NA,449020.4,449027.20000005,2024-05-08T19:43:05Z,449037,NULL,Vorsorge,tahadhari,s,ufafanuzi,makini,mashambani,NA,qt,NA,3,NA,NA,NA,NA,NA,NA,NA,NA,NA,NA,NA,NA,NA,NA,NA,NA,NA,NA,NA
805b2,Shallow Question,html.Page,3_0_3_0_5_1_0,NA,NA,form submission,3776.5999999046,449027.20000005,449020.4,449037,452813.5999999,452813.9000001,2024-05-08T19:43:08Z,452817.6,NULL,Vorsorge,tahadhari,s,ufafanuzi,makini,mashambani,tahadhari,NA,NA,3,NA,NA,NA,NA,NA,NA,NA,NA,NA,NA,NA,NA,NA,NA,NA,NA,NA,NA,NA
805b2,"""Richtig""-Screen",canvas.Screen,3_0_3_0_5_1_1,NA,NA,timeout,4997.2,452816.70000005,452802.4,452817.6,457798.3,457799.20000005,2024-05-08T19:43:13Z,457814.8,NULL,Vorsorge,tahadhari,s,ufafanuzi,makini,mashambani,NA,qt,1,3,NA,NA,NA,NA,NA,NA,NA,NA,NA,NA,NA,NA,NA,NA,NA,NA,NA,NA,NA
805b2,"""Falsch""-Screen",canvas.Screen,3_0_3_0_5_1_2,NA,NA,skipped,NA,457804.29999995,NA,NA,457798.3,457804.5,2024-05-08T19:43:13Z,457814.8,NULL,Vorsorge,tahadhari,s,ufafanuzi,makini,mashambani,NA,qt,NA,3,NA,NA,NA,NA,NA,NA,NA,NA,NA,NA,NA,NA,NA,NA,NA,NA,NA,NA,NA
805b2,shallow,flow.Sequence,3_0_3_0_5_1,NA,NA,completion,8761.3,449027.20000005,449020.4,449037,457798.3,457804.70000005,2024-05-08T19:43:13Z,457814.8,NULL,Vorsorge,tahadhari,s,ufafanuzi,makini,mashambani,NA,qt,NA,3,NA,NA,NA,NA,NA,NA,NA,NA,NA,NA,NA,NA,NA,NA,NA,NA,NA,NA,NA
805b2,task,flow.Sequence,3_0_3_0_5,NA,NA,completion,8761.3,449027,449020.4,449037,457798.3,457804.79999995,2024-05-08T19:43:13Z,457814.8,NULL,Vorsorge,tahadhari,s,ufafanuzi,makini,mashambani,NA,qt,NA,3,NA,NA,NA,NA,NA,NA,NA,NA,NA,NA,NA,NA,NA,NA,NA,NA,NA,NA,NA
805b2,deep,flow.Sequence,3_0_3_0_6_0,NA,NA,skipped,NA,457804.79999995,NA,NA,457798.3,457804.79999995,2024-05-08T19:43:13Z,457814.8,NULL,Lawine,banguko,s,maambukizi,usuluhishi,chekechea,NA,qt,NA,3,NA,NA,NA,NA,NA,NA,NA,NA,NA,NA,NA,NA,NA,NA,NA,NA,NA,NA,NA
805b2,Shallow Question,html.Page,3_0_3_0_6_1_0,NA,NA,form submission,3012.7,457804.9000001,457798.3,457814.8,460827.5,460827.70000005,2024-05-08T19:43:16Z,460829.894,NULL,Lawine,banguko,s,maambukizi,usuluhishi,chekechea,banguko,NA,NA,3,NA,NA,NA,NA,NA,NA,NA,NA,NA,NA,NA,NA,NA,NA,NA,NA,NA,NA,NA
805b2,"""Richtig""-Screen",canvas.Screen,3_0_3_0_6_1_1,NA,NA,timeout,4996.5060000001,460830.5,460829.894,460829.894,465810,465811,2024-05-08T19:43:21Z,465826.4,NULL,Lawine,banguko,s,maambukizi,usuluhishi,chekechea,NA,qt,1,3,NA,NA,NA,NA,NA,NA,NA,NA,NA,NA,NA,NA,NA,NA,NA,NA,NA,NA,NA
805b2,"""Falsch""-Screen",canvas.Screen,3_0_3_0_6_1_2,NA,NA,skipped,NA,465816,NA,NA,465810,465816.29999995,2024-05-08T19:43:21Z,465826.4,NULL,Lawine,banguko,s,maambukizi,usuluhishi,chekechea,NA,qt,NA,3,NA,NA,NA,NA,NA,NA,NA,NA,NA,NA,NA,NA,NA,NA,NA,NA,NA,NA,NA
805b2,shallow,flow.Sequence,3_0_3_0_6_1,NA,NA,completion,7995.2,457804.79999995,457798.3,457814.8,465810,465816.4000001,2024-05-08T19:43:21Z,465826.4,NULL,Lawine,banguko,s,maambukizi,usuluhishi,chekechea,NA,qt,NA,3,NA,NA,NA,NA,NA,NA,NA,NA,NA,NA,NA,NA,NA,NA,NA,NA,NA,NA,NA
805b2,task,flow.Sequence,3_0_3_0_6,NA,NA,completion,7995.2,457804.79999995,457798.3,457814.8,465810,465816.4000001,2024-05-08T19:43:21Z,465826.4,NULL,Lawine,banguko,s,maambukizi,usuluhishi,chekechea,NA,qt,NA,3,NA,NA,NA,NA,NA,NA,NA,NA,NA,NA,NA,NA,NA,NA,NA,NA,NA,NA,NA
805b2,Deep Question,html.Page,3_0_3_0_7_0_0,NA,NA,form submission,3440.6,465816.5,465810,465826.4,469267,469267.20000005,2024-05-08T19:43:25Z,469274.1,NULL,Übersicht,kilindo,d,NA,NA,NA,ka,NA,NA,3,NA,NA,NA,NA,NA,NA,NA,NA,NA,NA,NA,NA,NA,NA,NA,NA,NA,NA,NA
805b2,"""Richtig""-Screen",canvas.Screen,3_0_3_0_7_0_1,NA,NA,skipped,NA,469270,NA,NA,469267,469270.20000005,2024-05-08T19:43:25Z,469274.1,NULL,Übersicht,kilindo,d,NA,NA,NA,NA,qt,NA,3,NA,NA,NA,NA,NA,NA,NA,NA,NA,NA,NA,NA,NA,NA,NA,NA,NA,NA,NA
805b2,"""Falsch""-Screen",canvas.Screen,3_0_3_0_7_0_2,NA,NA,timeout,4997.5,469270.79999995,469257.8,469274.1,474254.6,474255.5999999,2024-05-08T19:43:30Z,474271.6,NULL,Übersicht,kilindo,d,NA,NA,NA,NA,qt,0,3,NA,NA,NA,NA,NA,NA,NA,NA,NA,NA,NA,NA,NA,NA,NA,NA,NA,NA,NA
805b2,deep,flow.Sequence,3_0_3_0_7_0,NA,NA,completion,8428.2,465816.4000001,465810,465826.4,474254.6,474255.9000001,2024-05-08T19:43:30Z,474271.6,NULL,Übersicht,kilindo,d,NA,NA,NA,NA,qt,NA,3,NA,NA,NA,NA,NA,NA,NA,NA,NA,NA,NA,NA,NA,NA,NA,NA,NA,NA,NA
805b2,shallow,flow.Sequence,3_0_3_0_7_1,NA,NA,skipped,NA,474256,NA,NA,474254.6,474256.20000005,2024-05-08T19:43:30Z,474271.6,NULL,Übersicht,kilindo,d,NA,NA,NA,NA,qt,NA,3,NA,NA,NA,NA,NA,NA,NA,NA,NA,NA,NA,NA,NA,NA,NA,NA,NA,NA,NA
805b2,task,flow.Sequence,3_0_3_0_7,NA,NA,completion,8428.2,465816.4000001,465810,465826.4,474254.6,474256.4000001,2024-05-08T19:43:30Z,474271.6,NULL,Übersicht,kilindo,d,NA,NA,NA,NA,qt,NA,3,NA,NA,NA,NA,NA,NA,NA,NA,NA,NA,NA,NA,NA,NA,NA,NA,NA,NA,NA
805b2,block,flow.Loop,3_0_3_0,NA,NA,completion,86797.2,387453.70000005,387442.188,387457.4,474254.6,474256.5,2024-05-08T19:43:30Z,474271.6,NULL,NA,NA,NA,NA,NA,NA,NA,qt,NA,3,NA,NA,NA,NA,NA,NA,NA,NA,NA,NA,NA,NA,NA,NA,NA,NA,NA,NA,NA
805b2,weiter,canvas.Screen,3_0_3_1,sdf,keypress(Space),response,407.19999995234,474256.70000005,474254.6,474271.6,474678.79999995,474679.70000005,2024-05-08T19:43:30Z,474704.4,NULL,NA,NA,NA,NA,NA,NA,NA,qt,NA,3,NA,NA,NA,NA,NA,NA,NA,NA,NA,NA,NA,NA,NA,NA,NA,NA,NA,NA,NA
805b2,check continue,flow.Sequence,3_0_3,NA,NA,completion,87221.399999952,387453.70000005,387442.188,387457.4,474678.79999995,474680,2024-05-08T19:43:30Z,474704.4,NULL,NA,NA,NA,NA,NA,NA,NA,qt,NA,3,NA,NA,NA,NA,NA,NA,NA,NA,NA,NA,NA,NA,NA,NA,NA,NA,NA,NA,NA
805b2,deep,flow.Sequence,3_0_4_0_0_0,NA,NA,skipped,NA,474698.9000001,NA,NA,474678.79999995,474699.0999999,2024-05-08T19:43:30Z,474704.4,NULL,Konkurrent,mshindani,s,msemaji,mvutaji,kipukusa,NA,sd,NA,4,NA,NA,NA,NA,NA,NA,NA,NA,NA,NA,NA,NA,NA,NA,NA,NA,NA,NA,NA
805b2,Shallow Question,html.Page,3_0_4_0_0_1_0,NA,NA,form submission,3273.3000000477,474699.20000005,474688.25,474704.4,477977.70000005,477977.9000001,2024-05-08T19:43:34Z,477985.5,NULL,Konkurrent,mshindani,s,msemaji,mvutaji,kipukusa,mshindani,NA,NA,4,NA,NA,NA,NA,NA,NA,NA,NA,NA,NA,NA,NA,NA,NA,NA,NA,NA,NA,NA
805b2,"""Richtig""-Screen",canvas.Screen,3_0_4_0_0_1_1,NA,NA,timeout,4997.4,477978.70000005,477969.394,477985.5,482966.1,482967.0999999,2024-05-08T19:43:39Z,482982.9,NULL,Konkurrent,mshindani,s,msemaji,mvutaji,kipukusa,NA,sd,1,4,NA,NA,NA,NA,NA,NA,NA,NA,NA,NA,NA,NA,NA,NA,NA,NA,NA,NA,NA
805b2,"""Falsch""-Screen",canvas.Screen,3_0_4_0_0_1_2,NA,NA,skipped,NA,482972.29999995,NA,NA,482966.1,482972.4000001,2024-05-08T19:43:39Z,482982.9,NULL,Konkurrent,mshindani,s,msemaji,mvutaji,kipukusa,NA,sd,NA,4,NA,NA,NA,NA,NA,NA,NA,NA,NA,NA,NA,NA,NA,NA,NA,NA,NA,NA,NA
805b2,shallow,flow.Sequence,3_0_4_0_0_1,NA,NA,completion,8261.7,474699.20000005,474688.25,474704.4,482966.1,482972.5,2024-05-08T19:43:39Z,482982.9,NULL,Konkurrent,mshindani,s,msemaji,mvutaji,kipukusa,NA,sd,NA,4,NA,NA,NA,NA,NA,NA,NA,NA,NA,NA,NA,NA,NA,NA,NA,NA,NA,NA,NA
805b2,task,flow.Sequence,3_0_4_0_0,NA,NA,completion,8261.7,474698.79999995,474688.25,474704.4,482966.1,482972.5999999,2024-05-08T19:43:39Z,482982.9,NULL,Konkurrent,mshindani,s,msemaji,mvutaji,kipukusa,NA,sd,NA,4,NA,NA,NA,NA,NA,NA,NA,NA,NA,NA,NA,NA,NA,NA,NA,NA,NA,NA,NA
805b2,deep,flow.Sequence,3_0_4_0_1_0,NA,NA,skipped,NA,482972.5999999,NA,NA,482966.1,482972.5999999,2024-05-08T19:43:39Z,482982.9,NULL,Vorsorge,tahadhari,s,ufafanuzi,makini,mashambani,NA,sd,NA,4,NA,NA,NA,NA,NA,NA,NA,NA,NA,NA,NA,NA,NA,NA,NA,NA,NA,NA,NA
805b2,Shallow Question,html.Page,3_0_4_0_1_1_0,NA,NA,form submission,4407.3000000477,482972.5999999,482966.1,482982.9,487390.20000005,487390.4000001,2024-05-08T19:43:43Z,487396.5,NULL,Vorsorge,tahadhari,s,ufafanuzi,makini,mashambani,tahadhari,NA,NA,4,NA,NA,NA,NA,NA,NA,NA,NA,NA,NA,NA,NA,NA,NA,NA,NA,NA,NA,NA
805b2,"""Richtig""-Screen",canvas.Screen,3_0_4_0_1_1_1,NA,NA,timeout,4997.2,487393.0999999,487380.556,487396.5,492376.7,492378.4000001,2024-05-08T19:43:48Z,492393.7,NULL,Vorsorge,tahadhari,s,ufafanuzi,makini,mashambani,NA,sd,1,4,NA,NA,NA,NA,NA,NA,NA,NA,NA,NA,NA,NA,NA,NA,NA,NA,NA,NA,NA
805b2,"""Falsch""-Screen",canvas.Screen,3_0_4_0_1_1_2,NA,NA,skipped,NA,492379.9000001,NA,NA,492376.7,492380,2024-05-08T19:43:48Z,492393.7,NULL,Vorsorge,tahadhari,s,ufafanuzi,makini,mashambani,NA,sd,NA,4,NA,NA,NA,NA,NA,NA,NA,NA,NA,NA,NA,NA,NA,NA,NA,NA,NA,NA,NA
805b2,shallow,flow.Sequence,3_0_4_0_1_1,NA,NA,completion,9393.8,482972.5999999,482966.1,482982.9,492376.7,492380,2024-05-08T19:43:48Z,492393.7,NULL,Vorsorge,tahadhari,s,ufafanuzi,makini,mashambani,NA,sd,NA,4,NA,NA,NA,NA,NA,NA,NA,NA,NA,NA,NA,NA,NA,NA,NA,NA,NA,NA,NA
805b2,task,flow.Sequence,3_0_4_0_1,NA,NA,completion,9393.8,482972.5999999,482966.1,482982.9,492376.7,492380.0999999,2024-05-08T19:43:48Z,492393.7,NULL,Vorsorge,tahadhari,s,ufafanuzi,makini,mashambani,NA,sd,NA,4,NA,NA,NA,NA,NA,NA,NA,NA,NA,NA,NA,NA,NA,NA,NA,NA,NA,NA,NA
805b2,Deep Question,html.Page,3_0_4_0_2_0_0,NA,NA,form submission,3061.8999999046,492380.20000005,492376.7,492393.7,495455.5999999,495455.9000001,2024-05-08T19:43:51Z,495458.2,NULL,Übersicht,kilindo,d,NA,NA,NA,kilindo,NA,NA,4,NA,NA,NA,NA,NA,NA,NA,NA,NA,NA,NA,NA,NA,NA,NA,NA,NA,NA,NA
805b2,"""Richtig""-Screen",canvas.Screen,3_0_4_0_2_0_1,NA,NA,timeout,4997.2,495456.5999999,495443.186,495458.2,500439.1,500439.5,2024-05-08T19:43:56Z,500455.4,NULL,Übersicht,kilindo,d,NA,NA,NA,NA,sd,1,4,NA,NA,NA,NA,NA,NA,NA,NA,NA,NA,NA,NA,NA,NA,NA,NA,NA,NA,NA
805b2,"""Falsch""-Screen",canvas.Screen,3_0_4_0_2_0_2,NA,NA,skipped,NA,500441.0999999,NA,NA,500439.1,500441.20000005,2024-05-08T19:43:56Z,500455.4,NULL,Übersicht,kilindo,d,NA,NA,NA,NA,sd,NA,4,NA,NA,NA,NA,NA,NA,NA,NA,NA,NA,NA,NA,NA,NA,NA,NA,NA,NA,NA
805b2,deep,flow.Sequence,3_0_4_0_2_0,NA,NA,completion,8045.4,492380.20000005,492376.7,492393.7,500439.1,500441.29999995,2024-05-08T19:43:56Z,500455.4,NULL,Übersicht,kilindo,d,NA,NA,NA,NA,sd,NA,4,NA,NA,NA,NA,NA,NA,NA,NA,NA,NA,NA,NA,NA,NA,NA,NA,NA,NA,NA
805b2,shallow,flow.Sequence,3_0_4_0_2_1,NA,NA,skipped,NA,500441.29999995,NA,NA,500439.1,500441.4000001,2024-05-08T19:43:56Z,500455.4,NULL,Übersicht,kilindo,d,NA,NA,NA,NA,sd,NA,4,NA,NA,NA,NA,NA,NA,NA,NA,NA,NA,NA,NA,NA,NA,NA,NA,NA,NA,NA
805b2,task,flow.Sequence,3_0_4_0_2,NA,NA,completion,8045.4,492380.20000005,492376.7,492393.7,500439.1,500441.4000001,2024-05-08T19:43:56Z,500455.4,NULL,Übersicht,kilindo,d,NA,NA,NA,NA,sd,NA,4,NA,NA,NA,NA,NA,NA,NA,NA,NA,NA,NA,NA,NA,NA,NA,NA,NA,NA,NA
805b2,Deep Question,html.Page,3_0_4_0_3_0_0,NA,NA,form submission,3569.1999999046,500441.4000001,500439.1,500455.4,504024.5999999,504024.70000005,2024-05-08T19:44:00Z,504036.4,NULL,Symbol,kielezo,d,NA,NA,NA,kielezo,NA,NA,4,NA,NA,NA,NA,NA,NA,NA,NA,NA,NA,NA,NA,NA,NA,NA,NA,NA,NA,NA
805b2,"""Richtig""-Screen",canvas.Screen,3_0_4_0_3_0_1,NA,NA,timeout,4997.2,504025.5999999,504020.548,504036.4,509016.8,509018.5,2024-05-08T19:44:05Z,509033.6,NULL,Symbol,kielezo,d,NA,NA,NA,NA,sd,1,4,NA,NA,NA,NA,NA,NA,NA,NA,NA,NA,NA,NA,NA,NA,NA,NA,NA,NA,NA
805b2,"""Falsch""-Screen",canvas.Screen,3_0_4_0_3_0_2,NA,NA,skipped,NA,509023.4000001,NA,NA,509016.8,509023.5999999,2024-05-08T19:44:05Z,509033.6,NULL,Symbol,kielezo,d,NA,NA,NA,NA,sd,NA,4,NA,NA,NA,NA,NA,NA,NA,NA,NA,NA,NA,NA,NA,NA,NA,NA,NA,NA,NA
805b2,deep,flow.Sequence,3_0_4_0_3_0,NA,NA,completion,8561.4,500441.4000001,500439.1,500455.4,509016.8,509023.70000005,2024-05-08T19:44:05Z,509033.6,NULL,Symbol,kielezo,d,NA,NA,NA,NA,sd,NA,4,NA,NA,NA,NA,NA,NA,NA,NA,NA,NA,NA,NA,NA,NA,NA,NA,NA,NA,NA
805b2,shallow,flow.Sequence,3_0_4_0_3_1,NA,NA,skipped,NA,509023.79999995,NA,NA,509016.8,509023.9000001,2024-05-08T19:44:05Z,509033.6,NULL,Symbol,kielezo,d,NA,NA,NA,NA,sd,NA,4,NA,NA,NA,NA,NA,NA,NA,NA,NA,NA,NA,NA,NA,NA,NA,NA,NA,NA,NA
805b2,task,flow.Sequence,3_0_4_0_3,NA,NA,completion,8561.4,500441.4000001,500439.1,500455.4,509016.8,509023.9000001,2024-05-08T19:44:05Z,509033.6,NULL,Symbol,kielezo,d,NA,NA,NA,NA,sd,NA,4,NA,NA,NA,NA,NA,NA,NA,NA,NA,NA,NA,NA,NA,NA,NA,NA,NA,NA,NA
805b2,deep,flow.Sequence,3_0_4_0_4_0,NA,NA,skipped,NA,509023.9000001,NA,NA,509016.8,509024.0999999,2024-05-08T19:44:05Z,509033.6,NULL,Lawine,banguko,s,maambukizi,usuluhishi,chekechea,NA,sd,NA,4,NA,NA,NA,NA,NA,NA,NA,NA,NA,NA,NA,NA,NA,NA,NA,NA,NA,NA,NA
805b2,Shallow Question,html.Page,3_0_4_0_4_1_0,NA,NA,form submission,5008.6999999523,509024.0999999,509016.8,509033.6,514042.29999995,514042.5,2024-05-08T19:44:10Z,514046.8,NULL,Lawine,banguko,s,maambukizi,usuluhishi,chekechea,banguko,NA,NA,4,NA,NA,NA,NA,NA,NA,NA,NA,NA,NA,NA,NA,NA,NA,NA,NA,NA,NA,NA
805b2,"""Richtig""-Screen",canvas.Screen,3_0_4_0_4_1_1,NA,NA,timeout,4997.3,514045.29999995,514030.792,514046.8,519027.4,519028.4000001,2024-05-08T19:44:15Z,519044.1,NULL,Lawine,banguko,s,maambukizi,usuluhishi,chekechea,NA,sd,1,4,NA,NA,NA,NA,NA,NA,NA,NA,NA,NA,NA,NA,NA,NA,NA,NA,NA,NA,NA
805b2,"""Falsch""-Screen",canvas.Screen,3_0_4_0_4_1_2,NA,NA,skipped,NA,519033.29999995,NA,NA,519027.4,519033.29999995,2024-05-08T19:44:15Z,519044.1,NULL,Lawine,banguko,s,maambukizi,usuluhishi,chekechea,NA,sd,NA,4,NA,NA,NA,NA,NA,NA,NA,NA,NA,NA,NA,NA,NA,NA,NA,NA,NA,NA,NA
805b2,shallow,flow.Sequence,3_0_4_0_4_1,NA,NA,completion,9993.8,509024.0999999,509016.8,509033.6,519027.4,519033.4000001,2024-05-08T19:44:15Z,519044.1,NULL,Lawine,banguko,s,maambukizi,usuluhishi,chekechea,NA,sd,NA,4,NA,NA,NA,NA,NA,NA,NA,NA,NA,NA,NA,NA,NA,NA,NA,NA,NA,NA,NA
805b2,task,flow.Sequence,3_0_4_0_4,NA,NA,completion,9993.8,509023.9000001,509016.8,509033.6,519027.4,519033.5,2024-05-08T19:44:15Z,519044.1,NULL,Lawine,banguko,s,maambukizi,usuluhishi,chekechea,NA,sd,NA,4,NA,NA,NA,NA,NA,NA,NA,NA,NA,NA,NA,NA,NA,NA,NA,NA,NA,NA,NA
805b2,Deep Question,html.Page,3_0_4_0_5_0_0,NA,NA,form submission,7593.8000000954,519033.5999999,519027.4,519044.1,526637.9000001,526638.0999999,2024-05-08T19:44:22Z,526639.838,NULL,Zuwachs,nyongeza,d,NA,NA,NA,nyganzo,NA,NA,4,NA,NA,NA,NA,NA,NA,NA,NA,NA,NA,NA,NA,NA,NA,NA,NA,NA,NA,NA
805b2,"""Richtig""-Screen",canvas.Screen,3_0_4_0_5_0_1,NA,NA,skipped,NA,526640.9000001,NA,NA,526637.9000001,526641,2024-05-08T19:44:22Z,526639.838,NULL,Zuwachs,nyongeza,d,NA,NA,NA,NA,sd,NA,4,NA,NA,NA,NA,NA,NA,NA,NA,NA,NA,NA,NA,NA,NA,NA,NA,NA,NA,NA
805b2,"""Falsch""-Screen",canvas.Screen,3_0_4_0_5_0_2,NA,NA,timeout,4996.562,526641.79999995,526639.838,526639.838,531619.5,531620.4000001,2024-05-08T19:44:27Z,531636.4,NULL,Zuwachs,nyongeza,d,NA,NA,NA,NA,sd,0,4,NA,NA,NA,NA,NA,NA,NA,NA,NA,NA,NA,NA,NA,NA,NA,NA,NA,NA,NA
805b2,deep,flow.Sequence,3_0_4_0_5_0,NA,NA,completion,12575.4,519033.5999999,519027.4,519044.1,531619.5,531620.79999995,2024-05-08T19:44:27Z,531636.4,NULL,Zuwachs,nyongeza,d,NA,NA,NA,NA,sd,NA,4,NA,NA,NA,NA,NA,NA,NA,NA,NA,NA,NA,NA,NA,NA,NA,NA,NA,NA,NA
805b2,shallow,flow.Sequence,3_0_4_0_5_1,NA,NA,skipped,NA,531620.79999995,NA,NA,531619.5,531621,2024-05-08T19:44:27Z,531636.4,NULL,Zuwachs,nyongeza,d,NA,NA,NA,NA,sd,NA,4,NA,NA,NA,NA,NA,NA,NA,NA,NA,NA,NA,NA,NA,NA,NA,NA,NA,NA,NA
805b2,task,flow.Sequence,3_0_4_0_5,NA,NA,completion,12575.4,519033.5,519027.4,519044.1,531619.5,531621.20000005,2024-05-08T19:44:27Z,531636.4,NULL,Zuwachs,nyongeza,d,NA,NA,NA,NA,sd,NA,4,NA,NA,NA,NA,NA,NA,NA,NA,NA,NA,NA,NA,NA,NA,NA,NA,NA,NA,NA
805b2,Deep Question,html.Page,3_0_4_0_6_0_0,NA,NA,form submission,4323.8000000477,531621.29999995,531619.5,531636.4,535960.20000005,535960.5,2024-05-08T19:44:32Z,535966.8,NULL,Körper,kiwiliwili,d,NA,NA,NA,kiwiliwili,NA,NA,4,NA,NA,NA,NA,NA,NA,NA,NA,NA,NA,NA,NA,NA,NA,NA,NA,NA,NA,NA
805b2,"""Richtig""-Screen",canvas.Screen,3_0_4_0_6_0_1,NA,NA,timeout,4997.2999999999,535963.4000001,535952.782,535966.8,540947.5,540948.5,2024-05-08T19:44:37Z,540964.1,NULL,Körper,kiwiliwili,d,NA,NA,NA,NA,sd,1,4,NA,NA,NA,NA,NA,NA,NA,NA,NA,NA,NA,NA,NA,NA,NA,NA,NA,NA,NA
805b2,"""Falsch""-Screen",canvas.Screen,3_0_4_0_6_0_2,NA,NA,skipped,NA,540953.4000001,NA,NA,540947.5,540953.5,2024-05-08T19:44:37Z,540964.1,NULL,Körper,kiwiliwili,d,NA,NA,NA,NA,sd,NA,4,NA,NA,NA,NA,NA,NA,NA,NA,NA,NA,NA,NA,NA,NA,NA,NA,NA,NA,NA
805b2,deep,flow.Sequence,3_0_4_0_6_0,NA,NA,completion,9311.1,531621.29999995,531619.5,531636.4,540947.5,540953.5999999,2024-05-08T19:44:37Z,540964.1,NULL,Körper,kiwiliwili,d,NA,NA,NA,NA,sd,NA,4,NA,NA,NA,NA,NA,NA,NA,NA,NA,NA,NA,NA,NA,NA,NA,NA,NA,NA,NA
805b2,shallow,flow.Sequence,3_0_4_0_6_1,NA,NA,skipped,NA,540953.5999999,NA,NA,540947.5,540953.5999999,2024-05-08T19:44:37Z,540964.1,NULL,Körper,kiwiliwili,d,NA,NA,NA,NA,sd,NA,4,NA,NA,NA,NA,NA,NA,NA,NA,NA,NA,NA,NA,NA,NA,NA,NA,NA,NA,NA
805b2,task,flow.Sequence,3_0_4_0_6,NA,NA,completion,9311.1,531621.29999995,531619.5,531636.4,540947.5,540953.70000005,2024-05-08T19:44:37Z,540964.1,NULL,Körper,kiwiliwili,d,NA,NA,NA,NA,sd,NA,4,NA,NA,NA,NA,NA,NA,NA,NA,NA,NA,NA,NA,NA,NA,NA,NA,NA,NA,NA
805b2,deep,flow.Sequence,3_0_4_0_7_0,NA,NA,skipped,NA,540953.79999995,NA,NA,540947.5,540953.79999995,2024-05-08T19:44:37Z,540964.1,NULL,System,maongozi,s,chokochoko,nuksani,mitaani,NA,sd,NA,4,NA,NA,NA,NA,NA,NA,NA,NA,NA,NA,NA,NA,NA,NA,NA,NA,NA,NA,NA
805b2,Shallow Question,html.Page,3_0_4_0_7_1_0,NA,NA,form submission,3695.8000000954,540953.79999995,540947.5,540964.1,544659.9000001,544660.0999999,2024-05-08T19:44:40Z,544661.79,NULL,System,maongozi,s,chokochoko,nuksani,mitaani,maongozi,NA,NA,4,NA,NA,NA,NA,NA,NA,NA,NA,NA,NA,NA,NA,NA,NA,NA,NA,NA,NA,NA
805b2,"""Richtig""-Screen",canvas.Screen,3_0_4_0_7_1_1,NA,NA,timeout,4997.11,544662.9000001,544661.79,544661.79,549642.3,549643.29999995,2024-05-08T19:44:45Z,549658.9,NULL,System,maongozi,s,chokochoko,nuksani,mitaani,NA,sd,1,4,NA,NA,NA,NA,NA,NA,NA,NA,NA,NA,NA,NA,NA,NA,NA,NA,NA,NA,NA
805b2,"""Falsch""-Screen",canvas.Screen,3_0_4_0_7_1_2,NA,NA,skipped,NA,549648.70000005,NA,NA,549642.3,549648.79999995,2024-05-08T19:44:45Z,549658.9,NULL,System,maongozi,s,chokochoko,nuksani,mitaani,NA,sd,NA,4,NA,NA,NA,NA,NA,NA,NA,NA,NA,NA,NA,NA,NA,NA,NA,NA,NA,NA,NA
805b2,shallow,flow.Sequence,3_0_4_0_7_1,NA,NA,completion,8678.2000000001,540953.79999995,540947.5,540964.1,549642.3,549648.9000001,2024-05-08T19:44:45Z,549658.9,NULL,System,maongozi,s,chokochoko,nuksani,mitaani,NA,sd,NA,4,NA,NA,NA,NA,NA,NA,NA,NA,NA,NA,NA,NA,NA,NA,NA,NA,NA,NA,NA
805b2,task,flow.Sequence,3_0_4_0_7,NA,NA,completion,8678.2000000001,540953.70000005,540947.5,540964.1,549642.3,549649,2024-05-08T19:44:45Z,549658.9,NULL,System,maongozi,s,chokochoko,nuksani,mitaani,NA,sd,NA,4,NA,NA,NA,NA,NA,NA,NA,NA,NA,NA,NA,NA,NA,NA,NA,NA,NA,NA,NA
805b2,block,flow.Loop,3_0_4_0,NA,NA,completion,74937.9,474698.79999995,474688.25,474704.4,549642.3,549649,2024-05-08T19:44:45Z,549658.9,NULL,NA,NA,NA,NA,NA,NA,NA,sd,NA,4,NA,NA,NA,NA,NA,NA,NA,NA,NA,NA,NA,NA,NA,NA,NA,NA,NA,NA,NA
805b2,weiter,canvas.Screen,3_0_4_1,sdf,keypress(Space),response,861.19999990461,549649.0999999,549642.3,549658.9,550520.0999999,550520.5999999,2024-05-08T19:44:46Z,550892.184,NULL,NA,NA,NA,NA,NA,NA,NA,sd,NA,4,NA,NA,NA,NA,NA,NA,NA,NA,NA,NA,NA,NA,NA,NA,NA,NA,NA,NA,NA
805b2,check continue,flow.Sequence,3_0_4,NA,NA,completion,75815.699999905,474698.79999995,474688.25,474704.4,550520.0999999,550520.79999995,2024-05-08T19:44:46Z,550892.184,NULL,NA,NA,NA,NA,NA,NA,NA,sd,NA,4,NA,NA,NA,NA,NA,NA,NA,NA,NA,NA,NA,NA,NA,NA,NA,NA,NA,NA,NA
805b2,check continue,flow.Sequence,3_0_5,NA,NA,skipped,NA,550537.29999995,NA,NA,550520.0999999,550537.29999995,2024-05-08T19:44:46Z,550892.184,NULL,NA,NA,NA,NA,NA,NA,NA,sdf,NA,5,NA,NA,NA,NA,NA,NA,NA,NA,NA,NA,NA,NA,NA,NA,NA,NA,NA,NA,NA
805b2,check continue,flow.Sequence,3_0_6,NA,NA,skipped,NA,550555.20000005,NA,NA,550520.0999999,550555.29999995,2024-05-08T19:44:46Z,550892.184,NULL,NA,NA,NA,NA,NA,NA,NA,dfs,NA,6,NA,NA,NA,NA,NA,NA,NA,NA,NA,NA,NA,NA,NA,NA,NA,NA,NA,NA,NA
805b2,check continue,flow.Sequence,3_0_7,NA,NA,skipped,NA,550569.0999999,NA,NA,550520.0999999,550569.20000005,2024-05-08T19:44:46Z,550892.184,NULL,NA,NA,NA,NA,NA,NA,NA,df,NA,7,NA,NA,NA,NA,NA,NA,NA,NA,NA,NA,NA,NA,NA,NA,NA,NA,NA,NA,NA
805b2,check continue,flow.Sequence,3_0_8,NA,NA,skipped,NA,550582.79999995,NA,NA,550520.0999999,550582.9000001,2024-05-08T19:44:46Z,550892.184,NULL,NA,NA,NA,NA,NA,NA,NA,dfs,NA,8,NA,NA,NA,NA,NA,NA,NA,NA,NA,NA,NA,NA,NA,NA,NA,NA,NA,NA,NA
805b2,check continue,flow.Sequence,3_0_9,NA,NA,skipped,NA,550595.0999999,NA,NA,550520.0999999,550595.20000005,2024-05-08T19:44:46Z,550892.184,NULL,NA,NA,NA,NA,NA,NA,NA,dsf,NA,9,NA,NA,NA,NA,NA,NA,NA,NA,NA,NA,NA,NA,NA,NA,NA,NA,NA,NA,NA
805b2,check continue,flow.Sequence,3_0_10,NA,NA,skipped,NA,550607,NA,NA,550520.0999999,550607,2024-05-08T19:44:46Z,550892.184,NULL,NA,NA,NA,NA,NA,NA,NA,df,NA,10,NA,NA,NA,NA,NA,NA,NA,NA,NA,NA,NA,NA,NA,NA,NA,NA,NA,NA,NA
805b2,check continue,flow.Sequence,3_0_11,NA,NA,skipped,NA,550619.20000005,NA,NA,550520.0999999,550619.20000005,2024-05-08T19:44:46Z,550892.184,NULL,NA,NA,NA,NA,NA,NA,NA,dfs,NA,11,NA,NA,NA,NA,NA,NA,NA,NA,NA,NA,NA,NA,NA,NA,NA,NA,NA,NA,NA
805b2,check continue,flow.Sequence,3_0_12,NA,NA,skipped,NA,550631.9000001,NA,NA,550520.0999999,550631.9000001,2024-05-08T19:44:46Z,550892.184,NULL,NA,NA,NA,NA,NA,NA,NA,dsf,NA,12,NA,NA,NA,NA,NA,NA,NA,NA,NA,NA,NA,NA,NA,NA,NA,NA,NA,NA,NA
805b2,check continue,flow.Sequence,3_0_13,NA,NA,skipped,NA,550643.9000001,NA,NA,550520.0999999,550643.9000001,2024-05-08T19:44:46Z,550892.184,NULL,NA,NA,NA,NA,NA,NA,NA,dsf,NA,13,NA,NA,NA,NA,NA,NA,NA,NA,NA,NA,NA,NA,NA,NA,NA,NA,NA,NA,NA
805b2,check continue,flow.Sequence,3_0_14,NA,NA,skipped,NA,550655.5,NA,NA,550520.0999999,550655.5999999,2024-05-08T19:44:46Z,550892.184,NULL,NA,NA,NA,NA,NA,NA,NA,NA,NA,14,NA,NA,NA,NA,NA,NA,NA,NA,NA,NA,NA,NA,NA,NA,NA,NA,NA,NA,NA
805b2,check continue,flow.Sequence,3_0_15,NA,NA,skipped,NA,550666.5,NA,NA,550520.0999999,550666.5999999,2024-05-08T19:44:46Z,550892.184,NULL,NA,NA,NA,NA,NA,NA,NA,NA,NA,15,NA,NA,NA,NA,NA,NA,NA,NA,NA,NA,NA,NA,NA,NA,NA,NA,NA,NA,NA
805b2,check continue,flow.Sequence,3_0_16,NA,NA,skipped,NA,550678,NA,NA,550520.0999999,550678,2024-05-08T19:44:46Z,550892.184,NULL,NA,NA,NA,NA,NA,NA,NA,NA,NA,16,NA,NA,NA,NA,NA,NA,NA,NA,NA,NA,NA,NA,NA,NA,NA,NA,NA,NA,NA
805b2,check continue,flow.Sequence,3_0_17,NA,NA,skipped,NA,550689.29999995,NA,NA,550520.0999999,550689.4000001,2024-05-08T19:44:46Z,550892.184,NULL,NA,NA,NA,NA,NA,NA,NA,NA,NA,17,NA,NA,NA,NA,NA,NA,NA,NA,NA,NA,NA,NA,NA,NA,NA,NA,NA,NA,NA
805b2,check continue,flow.Sequence,3_0_18,NA,NA,skipped,NA,550700.5999999,NA,NA,550520.0999999,550700.70000005,2024-05-08T19:44:46Z,550892.184,NULL,NA,NA,NA,NA,NA,NA,NA,NA,NA,18,NA,NA,NA,NA,NA,NA,NA,NA,NA,NA,NA,NA,NA,NA,NA,NA,NA,NA,NA
805b2,check continue,flow.Sequence,3_0_19,NA,NA,skipped,NA,550711.70000005,NA,NA,550520.0999999,550711.79999995,2024-05-08T19:44:46Z,550892.184,NULL,NA,NA,NA,NA,NA,NA,NA,NA,NA,19,NA,NA,NA,NA,NA,NA,NA,NA,NA,NA,NA,NA,NA,NA,NA,NA,NA,NA,NA
805b2,check continue,flow.Sequence,3_0_20,NA,NA,skipped,NA,550723.79999995,NA,NA,550520.0999999,550723.79999995,2024-05-08T19:44:46Z,550892.184,NULL,NA,NA,NA,NA,NA,NA,NA,NA,NA,20,NA,NA,NA,NA,NA,NA,NA,NA,NA,NA,NA,NA,NA,NA,NA,NA,NA,NA,NA
805b2,check continue,flow.Sequence,3_0_21,NA,NA,skipped,NA,550734.29999995,NA,NA,550520.0999999,550734.29999995,2024-05-08T19:44:46Z,550892.184,NULL,NA,NA,NA,NA,NA,NA,NA,NA,NA,21,NA,NA,NA,NA,NA,NA,NA,NA,NA,NA,NA,NA,NA,NA,NA,NA,NA,NA,NA
805b2,check continue,flow.Sequence,3_0_22,NA,NA,skipped,NA,550762.5,NA,NA,550520.0999999,550762.70000005,2024-05-08T19:44:46Z,550892.184,NULL,NA,NA,NA,NA,NA,NA,NA,NA,NA,22,NA,NA,NA,NA,NA,NA,NA,NA,NA,NA,NA,NA,NA,NA,NA,NA,NA,NA,NA
805b2,check continue,flow.Sequence,3_0_23,NA,NA,skipped,NA,550787.5,NA,NA,550520.0999999,550787.5999999,2024-05-08T19:44:46Z,550892.184,NULL,NA,NA,NA,NA,NA,NA,NA,NA,NA,23,NA,NA,NA,NA,NA,NA,NA,NA,NA,NA,NA,NA,NA,NA,NA,NA,NA,NA,NA
805b2,check continue,flow.Sequence,3_0_24,NA,NA,skipped,NA,550814.29999995,NA,NA,550520.0999999,550814.4000001,2024-05-08T19:44:46Z,550892.184,NULL,NA,NA,NA,NA,NA,NA,NA,NA,NA,24,NA,NA,NA,NA,NA,NA,NA,NA,NA,NA,NA,NA,NA,NA,NA,NA,NA,NA,NA
805b2,check continue,flow.Sequence,3_0_25,NA,NA,skipped,NA,550838.9000001,NA,NA,550520.0999999,550839,2024-05-08T19:44:46Z,550892.184,NULL,NA,NA,NA,NA,NA,NA,NA,NA,NA,25,NA,NA,NA,NA,NA,NA,NA,NA,NA,NA,NA,NA,NA,NA,NA,NA,NA,NA,NA
805b2,check continue,flow.Sequence,3_0_26,NA,NA,skipped,NA,550856.0999999,NA,NA,550520.0999999,550856.29999995,2024-05-08T19:44:47Z,550892.184,NULL,NA,NA,NA,NA,NA,NA,NA,NA,NA,26,NA,NA,NA,NA,NA,NA,NA,NA,NA,NA,NA,NA,NA,NA,NA,NA,NA,NA,NA
805b2,check continue,flow.Sequence,3_0_27,NA,NA,skipped,NA,550870.70000005,NA,NA,550520.0999999,550870.79999995,2024-05-08T19:44:47Z,550892.184,NULL,NA,NA,NA,NA,NA,NA,NA,NA,NA,27,NA,NA,NA,NA,NA,NA,NA,NA,NA,NA,NA,NA,NA,NA,NA,NA,NA,NA,NA
805b2,check continue,flow.Sequence,3_0_28,NA,NA,skipped,NA,550883.29999995,NA,NA,550520.0999999,550883.29999995,2024-05-08T19:44:47Z,550892.184,NULL,NA,NA,NA,NA,NA,NA,NA,NA,NA,28,NA,NA,NA,NA,NA,NA,NA,NA,NA,NA,NA,NA,NA,NA,NA,NA,NA,NA,NA
805b2,check continue,flow.Sequence,3_0_29,NA,NA,skipped,NA,550898.4000001,NA,NA,550520.0999999,550898.5,2024-05-08T19:44:47Z,550892.184,NULL,NA,NA,NA,NA,NA,NA,NA,NA,NA,29,NA,NA,NA,NA,NA,NA,NA,NA,NA,NA,NA,NA,NA,NA,NA,NA,NA,NA,NA
805b2,until continue,flow.Loop,3_0,NA,NA,completion,474539.2999999,75963.599999905,75964.706,75980.8,550520.0999999,550898.5,2024-05-08T19:44:47Z,550892.184,NULL,NA,NA,NA,NA,NA,NA,NA,NA,NA,NA,NA,NA,NA,NA,NA,NA,NA,NA,NA,NA,NA,NA,NA,NA,NA,NA,NA,NA,NA
805b2,block 1,flow.Sequence,3,NA,NA,completion,474539.2999999,75963.599999905,75964.706,75980.8,550520.0999999,550898.70000005,2024-05-08T19:44:47Z,550892.184,NULL,NA,NA,NA,NA,NA,NA,NA,NA,NA,NA,NA,NA,NA,NA,NA,NA,NA,NA,NA,NA,NA,NA,NA,NA,NA,NA,NA,NA,NA
805b2,1.Part Over,canvas.Screen,4,NA,keypress(Space),response,3135.9159999046,550898.79999995,550892.184,550892.184,554028.0999999,554029.0999999,2024-05-08T19:44:50Z,554089.7,NULL,NA,NA,NA,NA,NA,NA,NA,NA,NA,NA,NA,NA,NA,NA,NA,NA,NA,NA,NA,NA,NA,NA,NA,NA,NA,NA,NA,NA,NA
805b2,Deep Question,html.Page,5_0_0_0_0_0_0,NA,NA,form submission,3121.7000000954,554072.5,554073.084,554089.7,557211.4000001,557211.70000005,2024-05-08T19:44:53Z,557220.6,NULL,Kultur,utamaduni,d,NA,NA,NA,kultur,NA,NA,0,NA,NA,NA,NA,NA,NA,NA,NA,NA,NA,NA,NA,NA,NA,NA,NA,NA,NA,NA
805b2,"""Richtig""-Screen",canvas.Screen,5_0_0_0_0_0_1,NA,NA,skipped,NA,557212.4000001,NA,NA,557211.4000001,557212.5999999,2024-05-08T19:44:53Z,557220.6,NULL,Kultur,utamaduni,d,NA,NA,NA,NA,sdf,NA,0,NA,NA,NA,NA,NA,NA,NA,NA,NA,NA,NA,NA,NA,NA,NA,NA,NA,NA,NA
805b2,"""Falsch""-Screen",canvas.Screen,5_0_0_0_0_0_2,NA,NA,timeout,4997.3,557213.5,557208.23,557220.6,562201.3,562202.29999995,2024-05-08T19:44:58Z,562217.9,NULL,Kultur,utamaduni,d,NA,NA,NA,NA,sdf,0,0,NA,NA,NA,NA,NA,NA,NA,NA,NA,NA,NA,NA,NA,NA,NA,NA,NA,NA,NA
805b2,deep,flow.Sequence,5_0_0_0_0_0,NA,NA,completion,8111.6000000001,554072.5,554073.084,554089.7,562201.3,562202.70000005,2024-05-08T19:44:58Z,562217.9,NULL,Kultur,utamaduni,d,NA,NA,NA,NA,sdf,NA,0,NA,NA,NA,NA,NA,NA,NA,NA,NA,NA,NA,NA,NA,NA,NA,NA,NA,NA,NA
805b2,shallow,flow.Sequence,5_0_0_0_0_1,NA,NA,skipped,NA,562202.79999995,NA,NA,562201.3,562203,2024-05-08T19:44:58Z,562217.9,NULL,Kultur,utamaduni,d,NA,NA,NA,NA,sdf,NA,0,NA,NA,NA,NA,NA,NA,NA,NA,NA,NA,NA,NA,NA,NA,NA,NA,NA,NA,NA
805b2,task,flow.Sequence,5_0_0_0_0,NA,NA,completion,8111.6000000001,554072.5,554073.084,554089.7,562201.3,562203.0999999,2024-05-08T19:44:58Z,562217.9,NULL,Kultur,utamaduni,d,NA,NA,NA,NA,sdf,NA,0,NA,NA,NA,NA,NA,NA,NA,NA,NA,NA,NA,NA,NA,NA,NA,NA,NA,NA,NA
805b2,deep,flow.Sequence,5_0_0_0_1_0,NA,NA,skipped,NA,562203.29999995,NA,NA,562201.3,562203.4000001,2024-05-08T19:44:58Z,562217.9,NULL,Prüfung,mtihani,s,mkulima,mtizamo,ufumbuzi,NA,sdf,NA,0,NA,NA,NA,NA,NA,NA,NA,NA,NA,NA,NA,NA,NA,NA,NA,NA,NA,NA,NA
805b2,Shallow Question,html.Page,5_0_0_0_1_1_0,NA,NA,form submission,6551.3999999523,562203.5,562201.3,562217.9,568769.29999995,568769.5,2024-05-08T19:45:04Z,568780.1,NULL,Prüfung,mtihani,s,mkulima,mtizamo,ufumbuzi,mtihani,NA,NA,0,NA,NA,NA,NA,NA,NA,NA,NA,NA,NA,NA,NA,NA,NA,NA,NA,NA,NA,NA
805b2,"""Richtig""-Screen",canvas.Screen,5_0_0_0_1_1_1,NA,NA,timeout,4997.3,568772.79999995,568764.7,568780.1,573760.9,573763.5999999,2024-05-08T19:45:09Z,573777.4,NULL,Prüfung,mtihani,s,mkulima,mtizamo,ufumbuzi,NA,sdf,1,0,NA,NA,NA,NA,NA,NA,NA,NA,NA,NA,NA,NA,NA,NA,NA,NA,NA,NA,NA
805b2,"""Falsch""-Screen",canvas.Screen,5_0_0_0_1_1_2,NA,NA,skipped,NA,573768.5,NA,NA,573760.9,573768.5999999,2024-05-08T19:45:09Z,573777.4,NULL,Prüfung,mtihani,s,mkulima,mtizamo,ufumbuzi,NA,sdf,NA,0,NA,NA,NA,NA,NA,NA,NA,NA,NA,NA,NA,NA,NA,NA,NA,NA,NA,NA,NA
805b2,shallow,flow.Sequence,5_0_0_0_1_1,NA,NA,completion,11543,562203.4000001,562201.3,562217.9,573760.9,573768.70000005,2024-05-08T19:45:09Z,573777.4,NULL,Prüfung,mtihani,s,mkulima,mtizamo,ufumbuzi,NA,sdf,NA,0,NA,NA,NA,NA,NA,NA,NA,NA,NA,NA,NA,NA,NA,NA,NA,NA,NA,NA,NA
805b2,task,flow.Sequence,5_0_0_0_1,NA,NA,completion,11543,562203.29999995,562201.3,562217.9,573760.9,573768.79999995,2024-05-08T19:45:09Z,573777.4,NULL,Prüfung,mtihani,s,mkulima,mtizamo,ufumbuzi,NA,sdf,NA,0,NA,NA,NA,NA,NA,NA,NA,NA,NA,NA,NA,NA,NA,NA,NA,NA,NA,NA,NA
805b2,deep,flow.Sequence,5_0_0_0_2_0,NA,NA,skipped,NA,573768.79999995,NA,NA,573760.9,573768.79999995,2024-05-08T19:45:09Z,573777.4,NULL,Aufstand,ugomaji,s,mazidio,msingi,kujieleza,NA,sdf,NA,0,NA,NA,NA,NA,NA,NA,NA,NA,NA,NA,NA,NA,NA,NA,NA,NA,NA,NA,NA
805b2,Shallow Question,html.Page,5_0_0_0_2_1_0,NA,NA,form submission,6972.3999999523,573768.9000001,573760.9,573777.4,580749.79999995,580750,2024-05-08T19:45:16Z,580756.2,NULL,Aufstand,ugomaji,s,mazidio,msingi,kujieleza,mazidio,NA,NA,0,NA,NA,NA,NA,NA,NA,NA,NA,NA,NA,NA,NA,NA,NA,NA,NA,NA,NA,NA
805b2,"""Richtig""-Screen",canvas.Screen,5_0_0_0_2_1_1,NA,NA,skipped,NA,580752.9000001,NA,NA,580749.79999995,580753.0999999,2024-05-08T19:45:16Z,580756.2,NULL,Aufstand,ugomaji,s,mazidio,msingi,kujieleza,NA,sdf,NA,0,NA,NA,NA,NA,NA,NA,NA,NA,NA,NA,NA,NA,NA,NA,NA,NA,NA,NA,NA
805b2,"""Falsch""-Screen",canvas.Screen,5_0_0_0_2_1_2,NA,NA,timeout,4997.3,580753.5999999,580742.1,580756.2,585736.9,585738.20000005,2024-05-08T19:45:21Z,585753.5,NULL,Aufstand,ugomaji,s,mazidio,msingi,kujieleza,NA,sdf,0,0,NA,NA,NA,NA,NA,NA,NA,NA,NA,NA,NA,NA,NA,NA,NA,NA,NA,NA,NA
805b2,shallow,flow.Sequence,5_0_0_0_2_1,NA,NA,completion,11959.5,573768.9000001,573760.9,573777.4,585736.9,585738.70000005,2024-05-08T19:45:21Z,585753.5,NULL,Aufstand,ugomaji,s,mazidio,msingi,kujieleza,NA,sdf,NA,0,NA,NA,NA,NA,NA,NA,NA,NA,NA,NA,NA,NA,NA,NA,NA,NA,NA,NA,NA
805b2,task,flow.Sequence,5_0_0_0_2,NA,NA,completion,11959.5,573768.79999995,573760.9,573777.4,585736.9,585738.9000001,2024-05-08T19:45:21Z,585753.5,NULL,Aufstand,ugomaji,s,mazidio,msingi,kujieleza,NA,sdf,NA,0,NA,NA,NA,NA,NA,NA,NA,NA,NA,NA,NA,NA,NA,NA,NA,NA,NA,NA,NA
805b2,Deep Question,html.Page,5_0_0_0_3_0_0,NA,NA,form submission,4335.5999999046,585739.20000005,585736.9,585753.5,590089.0999999,590089.20000005,2024-05-08T19:45:26Z,590100.5,NULL,Sympathie,mapendano,d,NA,NA,NA,sympathie,NA,NA,0,NA,NA,NA,NA,NA,NA,NA,NA,NA,NA,NA,NA,NA,NA,NA,NA,NA,NA,NA
805b2,"""Richtig""-Screen",canvas.Screen,5_0_0_0_3_0_1,NA,NA,skipped,NA,590091.70000005,NA,NA,590089.0999999,590091.9000001,2024-05-08T19:45:26Z,590100.5,NULL,Sympathie,mapendano,d,NA,NA,NA,NA,sdf,NA,0,NA,NA,NA,NA,NA,NA,NA,NA,NA,NA,NA,NA,NA,NA,NA,NA,NA,NA,NA
805b2,"""Falsch""-Screen",canvas.Screen,5_0_0_0_3_0_2,NA,NA,timeout,4997.3,590092.5,590087.9,590100.5,595081.3,595082.29999995,2024-05-08T19:45:31Z,595097.8,NULL,Sympathie,mapendano,d,NA,NA,NA,NA,sdf,0,0,NA,NA,NA,NA,NA,NA,NA,NA,NA,NA,NA,NA,NA,NA,NA,NA,NA,NA,NA
805b2,deep,flow.Sequence,5_0_0_0_3_0,NA,NA,completion,9327.8,585739.20000005,585736.9,585753.5,595081.3,595082.70000005,2024-05-08T19:45:31Z,595097.8,NULL,Sympathie,mapendano,d,NA,NA,NA,NA,sdf,NA,0,NA,NA,NA,NA,NA,NA,NA,NA,NA,NA,NA,NA,NA,NA,NA,NA,NA,NA,NA
805b2,shallow,flow.Sequence,5_0_0_0_3_1,NA,NA,skipped,NA,595082.9000001,NA,NA,595081.3,595083.0999999,2024-05-08T19:45:31Z,595097.8,NULL,Sympathie,mapendano,d,NA,NA,NA,NA,sdf,NA,0,NA,NA,NA,NA,NA,NA,NA,NA,NA,NA,NA,NA,NA,NA,NA,NA,NA,NA,NA
805b2,task,flow.Sequence,5_0_0_0_3,NA,NA,completion,9327.8,585739.0999999,585736.9,585753.5,595081.3,595083.29999995,2024-05-08T19:45:31Z,595097.8,NULL,Sympathie,mapendano,d,NA,NA,NA,NA,sdf,NA,0,NA,NA,NA,NA,NA,NA,NA,NA,NA,NA,NA,NA,NA,NA,NA,NA,NA,NA,NA
805b2,Deep Question,html.Page,5_0_0_0_4_0_0,NA,NA,form submission,5558.4000000476,595083.5,595081.3,595097.8,600656.20000005,600656.5,2024-05-08T19:45:36Z,600660.828,NULL,Annäherung,maegesho,d,NA,NA,NA,annäherung,NA,NA,0,NA,NA,NA,NA,NA,NA,NA,NA,NA,NA,NA,NA,NA,NA,NA,NA,NA,NA,NA
805b2,"""Richtig""-Screen",canvas.Screen,5_0_0_0_4_0_1,NA,NA,skipped,NA,600659.5,NA,NA,600656.20000005,600659.5999999,2024-05-08T19:45:36Z,600660.828,NULL,Annäherung,maegesho,d,NA,NA,NA,NA,sdf,NA,0,NA,NA,NA,NA,NA,NA,NA,NA,NA,NA,NA,NA,NA,NA,NA,NA,NA,NA,NA
805b2,"""Falsch""-Screen",canvas.Screen,5_0_0_0_4_0_2,NA,NA,timeout,4997.272,600660.20000005,600660.828,600660.828,605641.4,605642.4000001,2024-05-08T19:45:41Z,605658.1,NULL,Annäherung,maegesho,d,NA,NA,NA,NA,sdf,0,0,NA,NA,NA,NA,NA,NA,NA,NA,NA,NA,NA,NA,NA,NA,NA,NA,NA,NA,NA
805b2,deep,flow.Sequence,5_0_0_0_4_0,NA,NA,completion,10543.6,595083.5,595081.3,595097.8,605641.4,605642.79999995,2024-05-08T19:45:41Z,605658.1,NULL,Annäherung,maegesho,d,NA,NA,NA,NA,sdf,NA,0,NA,NA,NA,NA,NA,NA,NA,NA,NA,NA,NA,NA,NA,NA,NA,NA,NA,NA,NA
805b2,shallow,flow.Sequence,5_0_0_0_4_1,NA,NA,skipped,NA,605643,NA,NA,605641.4,605643.0999999,2024-05-08T19:45:41Z,605658.1,NULL,Annäherung,maegesho,d,NA,NA,NA,NA,sdf,NA,0,NA,NA,NA,NA,NA,NA,NA,NA,NA,NA,NA,NA,NA,NA,NA,NA,NA,NA,NA
805b2,task,flow.Sequence,5_0_0_0_4,NA,NA,completion,10543.6,595083.4000001,595081.3,595097.8,605641.4,605643.29999995,2024-05-08T19:45:41Z,605658.1,NULL,Annäherung,maegesho,d,NA,NA,NA,NA,sdf,NA,0,NA,NA,NA,NA,NA,NA,NA,NA,NA,NA,NA,NA,NA,NA,NA,NA,NA,NA,NA
805b2,deep,flow.Sequence,5_0_0_0_5_0,NA,NA,skipped,NA,605643.4000001,NA,NA,605641.4,605643.5,2024-05-08T19:45:41Z,605658.1,NULL,Beweis,ushahidi,s,marudio,kizuizi,mtendaji,NA,sdf,NA,0,NA,NA,NA,NA,NA,NA,NA,NA,NA,NA,NA,NA,NA,NA,NA,NA,NA,NA,NA
805b2,Shallow Question,html.Page,5_0_0_0_5_1_0,NA,NA,form submission,14813.4,605643.70000005,605641.4,605658.1,620471.5,620471.70000005,2024-05-08T19:45:56Z,620481.8,NULL,Beweis,ushahidi,s,marudio,kizuizi,mtendaji,mtendaji,NA,NA,0,NA,NA,NA,NA,NA,NA,NA,NA,NA,NA,NA,NA,NA,NA,NA,NA,NA,NA,NA
805b2,"""Richtig""-Screen",canvas.Screen,5_0_0_0_5_1_1,NA,NA,skipped,NA,620473.29999995,NA,NA,620471.5,620473.29999995,2024-05-08T19:45:56Z,620481.8,NULL,Beweis,ushahidi,s,marudio,kizuizi,mtendaji,NA,sdf,NA,0,NA,NA,NA,NA,NA,NA,NA,NA,NA,NA,NA,NA,NA,NA,NA,NA,NA,NA,NA
805b2,"""Falsch""-Screen",canvas.Screen,5_0_0_0_5_1_2,NA,NA,timeout,4997.3999999999,620473.70000005,620465.858,620481.8,625462.5,625464,2024-05-08T19:46:01Z,625479.2,NULL,Beweis,ushahidi,s,marudio,kizuizi,mtendaji,NA,sdf,0,0,NA,NA,NA,NA,NA,NA,NA,NA,NA,NA,NA,NA,NA,NA,NA,NA,NA,NA,NA
805b2,shallow,flow.Sequence,5_0_0_0_5_1,NA,NA,completion,19804.4,605643.5999999,605641.4,605658.1,625462.5,625464.4000001,2024-05-08T19:46:01Z,625479.2,NULL,Beweis,ushahidi,s,marudio,kizuizi,mtendaji,NA,sdf,NA,0,NA,NA,NA,NA,NA,NA,NA,NA,NA,NA,NA,NA,NA,NA,NA,NA,NA,NA,NA
805b2,task,flow.Sequence,5_0_0_0_5,NA,NA,completion,19804.4,605643.4000001,605641.4,605658.1,625462.5,625464.5999999,2024-05-08T19:46:01Z,625479.2,NULL,Beweis,ushahidi,s,marudio,kizuizi,mtendaji,NA,sdf,NA,0,NA,NA,NA,NA,NA,NA,NA,NA,NA,NA,NA,NA,NA,NA,NA,NA,NA,NA,NA
805b2,Deep Question,html.Page,5_0_0_0_6_0_0,NA,NA,form submission,3747.3,625464.79999995,625462.5,625479.2,629226.5,629226.79999995,2024-05-08T19:46:05Z,629243.7,NULL,Verzögerung,kuchelewa,d,NA,NA,NA,verzögerung,NA,NA,0,NA,NA,NA,NA,NA,NA,NA,NA,NA,NA,NA,NA,NA,NA,NA,NA,NA,NA,NA
805b2,"""Richtig""-Screen",canvas.Screen,5_0_0_0_6_0_1,NA,NA,skipped,NA,629229.70000005,NA,NA,629226.5,629229.79999995,2024-05-08T19:46:05Z,629243.7,NULL,Verzögerung,kuchelewa,d,NA,NA,NA,NA,sdf,NA,0,NA,NA,NA,NA,NA,NA,NA,NA,NA,NA,NA,NA,NA,NA,NA,NA,NA,NA,NA
805b2,"""Falsch""-Screen",canvas.Screen,5_0_0_0_6_0_2,NA,NA,timeout,4996.5,629230.5999999,629227.028,629243.7,634224.1,634225.20000005,2024-05-08T19:46:10Z,634240.2,NULL,Verzögerung,kuchelewa,d,NA,NA,NA,NA,sdf,0,0,NA,NA,NA,NA,NA,NA,NA,NA,NA,NA,NA,NA,NA,NA,NA,NA,NA,NA,NA
805b2,deep,flow.Sequence,5_0_0_0_6_0,NA,NA,completion,8744.9,625464.79999995,625462.5,625479.2,634224.1,634225.70000005,2024-05-08T19:46:10Z,634240.2,NULL,Verzögerung,kuchelewa,d,NA,NA,NA,NA,sdf,NA,0,NA,NA,NA,NA,NA,NA,NA,NA,NA,NA,NA,NA,NA,NA,NA,NA,NA,NA,NA
805b2,shallow,flow.Sequence,5_0_0_0_6_1,NA,NA,skipped,NA,634225.79999995,NA,NA,634224.1,634226.0999999,2024-05-08T19:46:10Z,634240.2,NULL,Verzögerung,kuchelewa,d,NA,NA,NA,NA,sdf,NA,0,NA,NA,NA,NA,NA,NA,NA,NA,NA,NA,NA,NA,NA,NA,NA,NA,NA,NA,NA
805b2,task,flow.Sequence,5_0_0_0_6,NA,NA,completion,8744.9,625464.70000005,625462.5,625479.2,634224.1,634226.20000005,2024-05-08T19:46:10Z,634240.2,NULL,Verzögerung,kuchelewa,d,NA,NA,NA,NA,sdf,NA,0,NA,NA,NA,NA,NA,NA,NA,NA,NA,NA,NA,NA,NA,NA,NA,NA,NA,NA,NA
805b2,deep,flow.Sequence,5_0_0_0_7_0,NA,NA,skipped,NA,634226.4000001,NA,NA,634224.1,634226.5,2024-05-08T19:46:10Z,634240.2,NULL,Polizist,msongora,s,simanzi,mandhari,nidhamu,NA,sdf,NA,0,NA,NA,NA,NA,NA,NA,NA,NA,NA,NA,NA,NA,NA,NA,NA,NA,NA,NA,NA
805b2,Shallow Question,html.Page,5_0_0_0_7_1_0,NA,NA,form submission,5672.2000000954,634226.70000005,634224.1,634240.2,639912.4000001,639912.5999999,2024-05-08T19:46:16Z,639937.1,NULL,Polizist,msongora,s,simanzi,mandhari,nidhamu,nidhamu,NA,NA,0,NA,NA,NA,NA,NA,NA,NA,NA,NA,NA,NA,NA,NA,NA,NA,NA,NA,NA,NA
805b2,"""Richtig""-Screen",canvas.Screen,5_0_0_0_7_1_1,NA,NA,skipped,NA,639915.79999995,NA,NA,639912.4000001,639915.79999995,2024-05-08T19:46:16Z,639937.1,NULL,Polizist,msongora,s,simanzi,mandhari,nidhamu,NA,sdf,NA,0,NA,NA,NA,NA,NA,NA,NA,NA,NA,NA,NA,NA,NA,NA,NA,NA,NA,NA,NA
805b2,"""Falsch""-Screen",canvas.Screen,5_0_0_0_7_1_2,NA,NA,timeout,4996.8,639916.5999999,639920.4,639937.1,644917.4,644918.29999995,2024-05-08T19:46:21Z,644933.9,NULL,Polizist,msongora,s,simanzi,mandhari,nidhamu,NA,sdf,0,0,NA,NA,NA,NA,NA,NA,NA,NA,NA,NA,NA,NA,NA,NA,NA,NA,NA,NA,NA
805b2,shallow,flow.Sequence,5_0_0_0_7_1,NA,NA,completion,10677.2,634226.70000005,634224.1,634240.2,644917.4,644918.70000005,2024-05-08T19:46:21Z,644933.9,NULL,Polizist,msongora,s,simanzi,mandhari,nidhamu,NA,sdf,NA,0,NA,NA,NA,NA,NA,NA,NA,NA,NA,NA,NA,NA,NA,NA,NA,NA,NA,NA,NA
805b2,task,flow.Sequence,5_0_0_0_7,NA,NA,completion,10677.2,634226.29999995,634224.1,634240.2,644917.4,644918.9000001,2024-05-08T19:46:21Z,644933.9,NULL,Polizist,msongora,s,simanzi,mandhari,nidhamu,NA,sdf,NA,0,NA,NA,NA,NA,NA,NA,NA,NA,NA,NA,NA,NA,NA,NA,NA,NA,NA,NA,NA
805b2,block,flow.Loop,5_0_0_0,NA,NA,completion,90827.7,554072.4000001,554073.084,554089.7,644917.4,644919.0999999,2024-05-08T19:46:21Z,644933.9,NULL,NA,NA,NA,NA,NA,NA,NA,sdf,NA,0,NA,NA,NA,NA,NA,NA,NA,NA,NA,NA,NA,NA,NA,NA,NA,NA,NA,NA,NA
805b2,weiter,canvas.Screen,5_0_0_1,sdf,keypress(Space),response,1401.6,644919.20000005,644917.4,644933.9,646335.5,646336.5,2024-05-08T19:46:22Z,646366.3,NULL,NA,NA,NA,NA,NA,NA,NA,sdf,NA,0,NA,NA,NA,NA,NA,NA,NA,NA,NA,NA,NA,NA,NA,NA,NA,NA,NA,NA,NA
805b2,check continue,flow.Sequence,5_0_0,NA,NA,completion,92245.8,554072.4000001,554073.084,554089.7,646335.5,646336.79999995,2024-05-08T19:46:22Z,646366.3,NULL,NA,NA,NA,NA,NA,NA,NA,sdf,NA,0,NA,NA,NA,NA,NA,NA,NA,NA,NA,NA,NA,NA,NA,NA,NA,NA,NA,NA,NA
