observation,sender,sender_type,sender_id,response,response_action,ended_on,duration,time_run,time_render,time_show,time_end,time_commit,timestamp,time_switch,german,swahili,enc,distractor1,distractor2,distractor3,response_2,x,correct,distractors,url_vp,url_sess,meta_labjs_version,meta_location,meta_user_agent,meta_platform,meta_language,meta_locale,meta_time_zone,meta_timezone_offset,meta_screen_width,meta_screen_height,meta_scroll_width,meta_scroll_height,meta_window_inner_width,meta_window_inner_height,meta_device_pixel_ratio,meta_labjs_build_flavor,meta_labjs_build_commit
4e190,Introduction delayed retrieval,canvas.Screen,0,weiter,keypress(Space),response,1469.9999999911,255.29999999702,267.7,284.4,1754.3999999911,1759.799999997,2024-06-11T16:00:03Z,1767.8,NA,NA,NA,NA,NA,NA,NA,NA,NA,NULL,228,4,20.2.4,https://neurocog.fernuni.ch/studies/vweber/aberisha/delayed/index.html?vp=228&sess=4,"Mozilla/5.0 (Windows NT 10.0; Win64; x64) AppleWebKit/537.36 (KHTML, like Gecko) Chrome/125.0.0.0 Safari/537.36",Win32,en-US,en-US,Europe/Zurich,-120,1920,1080,1920,871,1920,919,1,production,f5b4a49f956347addd546a832a3327688c2c0fef
4e190,Deep Question,html.Page,1_0_0_0,NA,NA,form submission,16713.2,1760.599999994,1751.4,1767.8,18481,18481.399999991,2024-06-11T16:00:20Z,18484.3,Toleranz,kuvumiliana,d,maombolezo,ujasusi,mchekeshaji,kinyongo,NA,NA,NULL,NA,NA,NA,NA,NA,NA,NA,NA,NA,NA,NA,NA,NA,NA,NA,NA,NA,NA,NA
4e190,Save data screen,canvas.Screen,1_0_0_1,NA,NA,timeout,500.1,18482.299999997,18467.958,18484.3,18968,18970.099999994,2024-06-11T16:00:20Z,18984.4,Toleranz,kuvumiliana,d,maombolezo,ujasusi,mchekeshaji,NA,NA,0,NULL,NA,NA,NA,NA,NA,NA,NA,NA,NA,NA,NA,NA,NA,NA,NA,NA,NA,NA,NA
4e190,deep,flow.Sequence,1_0_0,NA,NA,completion,17200.2,1760.5,1751.4,1767.8,18968,18970.899999991,2024-06-11T16:00:20Z,18984.4,Toleranz,kuvumiliana,d,maombolezo,ujasusi,mchekeshaji,NA,NA,NA,NULL,NA,NA,NA,NA,NA,NA,NA,NA,NA,NA,NA,NA,NA,NA,NA,NA,NA,NA,NA
4e190,task,flow.Sequence,1_0,NA,NA,completion,17200.2,1760.5,1751.4,1767.8,18968,18971.399999991,2024-06-11T16:00:20Z,18984.4,Toleranz,kuvumiliana,d,maombolezo,ujasusi,mchekeshaji,NA,NA,NA,NULL,NA,NA,NA,NA,NA,NA,NA,NA,NA,NA,NA,NA,NA,NA,NA,NA,NA,NA,NA
4e190,Deep Question,html.Page,1_1_0_0,NA,NA,form submission,5555.699999994,18971.799999997,18968,18984.4,24540.099999994,24540.299999997,2024-06-11T16:00:26Z,24551,Spionage,upelelezi,d,maslahi,utokazo,magangao,ka,NA,NA,NULL,NA,NA,NA,NA,NA,NA,NA,NA,NA,NA,NA,NA,NA,NA,NA,NA,NA,NA,NA
4e190,Save data screen,canvas.Screen,1_1_0_1,NA,NA,timeout,500.3,24541.200000003,24534.532,24551,25034.5,25036.599999994,2024-06-11T16:00:26Z,25051.3,Spionage,upelelezi,d,maslahi,utokazo,magangao,NA,NA,0,NULL,NA,NA,NA,NA,NA,NA,NA,NA,NA,NA,NA,NA,NA,NA,NA,NA,NA,NA,NA
4e190,deep,flow.Sequence,1_1_0,NA,NA,completion,6050.1,18971.700000003,18968,18984.4,25034.5,25037.299999997,2024-06-11T16:00:26Z,25051.3,Spionage,upelelezi,d,maslahi,utokazo,magangao,NA,NA,NA,NULL,NA,NA,NA,NA,NA,NA,NA,NA,NA,NA,NA,NA,NA,NA,NA,NA,NA,NA,NA
4e190,task,flow.Sequence,1_1,NA,NA,completion,6050.1,18971.5,18968,18984.4,25034.5,25038,2024-06-11T16:00:26Z,25051.3,Spionage,upelelezi,d,maslahi,utokazo,magangao,NA,NA,NA,NULL,NA,NA,NA,NA,NA,NA,NA,NA,NA,NA,NA,NA,NA,NA,NA,NA,NA,NA,NA
4e190,Deep Question,html.Page,1_2_0_0,NA,NA,form submission,27007.7,25038.399999991,25034.5,25051.3,52059,52059.299999997,2024-06-11T16:00:53Z,52067.5,Schlange,foleni,d,uvumilivu,uteuzi,muuzaji,foleni,NA,NA,NULL,NA,NA,NA,NA,NA,NA,NA,NA,NA,NA,NA,NA,NA,NA,NA,NA,NA,NA,NA
4e190,Save data screen,canvas.Screen,1_2_0_1,NA,NA,timeout,500,52060.200000003,52051.312,52067.5,52550.8,52551.399999991,2024-06-11T16:00:54Z,52567.5,Schlange,foleni,d,uvumilivu,uteuzi,muuzaji,NA,NA,1,NULL,NA,NA,NA,NA,NA,NA,NA,NA,NA,NA,NA,NA,NA,NA,NA,NA,NA,NA,NA
4e190,deep,flow.Sequence,1_2_0,NA,NA,completion,27499.5,25038.399999991,25034.5,25051.3,52550.8,52551.5,2024-06-11T16:00:54Z,52567.5,Schlange,foleni,d,uvumilivu,uteuzi,muuzaji,NA,NA,NA,NULL,NA,NA,NA,NA,NA,NA,NA,NA,NA,NA,NA,NA,NA,NA,NA,NA,NA,NA,NA
4e190,task,flow.Sequence,1_2,NA,NA,completion,27499.5,25038.299999997,25034.5,25051.3,52550.8,52551.599999994,2024-06-11T16:00:54Z,52567.5,Schlange,foleni,d,uvumilivu,uteuzi,muuzaji,NA,NA,NA,NULL,NA,NA,NA,NA,NA,NA,NA,NA,NA,NA,NA,NA,NA,NA,NA,NA,NA,NA,NA
4e190,Deep Question,html.Page,1_3_0_0,NA,NA,form submission,12684.200000003,52551.700000003,52550.8,52567.5,65251.700000003,65252,2024-06-11T16:01:06Z,65267.5,Vergnügen,kichekesho,s,dubwana,mpanuko,mtesaji,kinyongo,NA,NA,NULL,NA,NA,NA,NA,NA,NA,NA,NA,NA,NA,NA,NA,NA,NA,NA,NA,NA,NA,NA
4e190,Save data screen,canvas.Screen,1_3_0_1,NA,NA,timeout,500,65254.700000003,65251.258,65267.5,65751,65751.599999994,2024-06-11T16:01:07Z,65767.5,Vergnügen,kichekesho,s,dubwana,mpanuko,mtesaji,NA,NA,0,NULL,NA,NA,NA,NA,NA,NA,NA,NA,NA,NA,NA,NA,NA,NA,NA,NA,NA,NA,NA
4e190,deep,flow.Sequence,1_3_0,NA,NA,completion,13183.5,52551.599999994,52550.8,52567.5,65751,65751.899999991,2024-06-11T16:01:07Z,65767.5,Vergnügen,kichekesho,s,dubwana,mpanuko,mtesaji,NA,NA,NA,NULL,NA,NA,NA,NA,NA,NA,NA,NA,NA,NA,NA,NA,NA,NA,NA,NA,NA,NA,NA
4e190,task,flow.Sequence,1_3,NA,NA,completion,13183.5,52551.599999994,52550.8,52567.5,65751,65752.200000003,2024-06-11T16:01:07Z,65767.5,Vergnügen,kichekesho,s,dubwana,mpanuko,mtesaji,NA,NA,NA,NULL,NA,NA,NA,NA,NA,NA,NA,NA,NA,NA,NA,NA,NA,NA,NA,NA,NA,NA,NA
4e190,Deep Question,html.Page,1_4_0_0,NA,NA,form submission,14027.799999997,65752.399999991,65751,65767.5,79795.299999997,79795.5,2024-06-11T16:01:21Z,79800.8,Wohlstand,mafanikio,d,chimbuko,kumbuko,mapwaji,ka,NA,NA,NULL,NA,NA,NA,NA,NA,NA,NA,NA,NA,NA,NA,NA,NA,NA,NA,NA,NA,NA,NA
4e190,Save data screen,canvas.Screen,1_4_0_1,NA,NA,timeout,499.89999999999,79797.799999997,79784.468,79800.8,80284,80284.5,2024-06-11T16:01:21Z,80300.7,Wohlstand,mafanikio,d,chimbuko,kumbuko,mapwaji,NA,NA,0,NULL,NA,NA,NA,NA,NA,NA,NA,NA,NA,NA,NA,NA,NA,NA,NA,NA,NA,NA,NA
4e190,deep,flow.Sequence,1_4_0,NA,NA,completion,14516.5,65752.299999997,65751,65767.5,80284,80284.599999994,2024-06-11T16:01:21Z,80300.7,Wohlstand,mafanikio,d,chimbuko,kumbuko,mapwaji,NA,NA,NA,NULL,NA,NA,NA,NA,NA,NA,NA,NA,NA,NA,NA,NA,NA,NA,NA,NA,NA,NA,NA
4e190,task,flow.Sequence,1_4,NA,NA,completion,14516.5,65752.200000003,65751,65767.5,80284,80284.700000003,2024-06-11T16:01:21Z,80300.7,Wohlstand,mafanikio,d,chimbuko,kumbuko,mapwaji,NA,NA,NA,NULL,NA,NA,NA,NA,NA,NA,NA,NA,NA,NA,NA,NA,NA,NA,NA,NA,NA,NA,NA
4e190,Deep Question,html.Page,1_5_0_0,NA,NA,form submission,2551.399999994,80284.799999997,80284,80300.7,82852.099999994,82852.299999997,2024-06-11T16:01:24Z,82867.4,Notfall,dharura,s,rairai,malalamiko,ahueni,ka,NA,NA,NULL,NA,NA,NA,NA,NA,NA,NA,NA,NA,NA,NA,NA,NA,NA,NA,NA,NA,NA,NA
4e190,Save data screen,canvas.Screen,1_5_0_1,NA,NA,timeout,500.10000000001,82852.899999991,82851.222,82867.4,83350.7,83351.200000003,2024-06-11T16:01:24Z,83367.5,Notfall,dharura,s,rairai,malalamiko,ahueni,NA,NA,0,NULL,NA,NA,NA,NA,NA,NA,NA,NA,NA,NA,NA,NA,NA,NA,NA,NA,NA,NA,NA
4e190,deep,flow.Sequence,1_5_0,NA,NA,completion,3050,80284.799999997,80284,80300.7,83350.7,83351.299999997,2024-06-11T16:01:24Z,83367.5,Notfall,dharura,s,rairai,malalamiko,ahueni,NA,NA,NA,NULL,NA,NA,NA,NA,NA,NA,NA,NA,NA,NA,NA,NA,NA,NA,NA,NA,NA,NA,NA
4e190,task,flow.Sequence,1_5,NA,NA,completion,3050,80284.799999997,80284,80300.7,83350.7,83351.399999991,2024-06-11T16:01:24Z,83367.5,Notfall,dharura,s,rairai,malalamiko,ahueni,NA,NA,NA,NULL,NA,NA,NA,NA,NA,NA,NA,NA,NA,NA,NA,NA,NA,NA,NA,NA,NA,NA,NA
4e190,Deep Question,html.Page,1_6_0_0,NA,NA,form submission,2187.299999997,83351.5,83350.7,83367.5,85554.799999997,85554.899999991,2024-06-11T16:01:27Z,85567.4,Theorie,nadharia,d,ushungi,mkutano,uwakilishi,ka,NA,NA,NULL,NA,NA,NA,NA,NA,NA,NA,NA,NA,NA,NA,NA,NA,NA,NA,NA,NA,NA,NA
4e190,Save data screen,canvas.Screen,1_6_0_1,NA,NA,timeout,500,85555.299999997,85550.822,85567.4,86050.8,86051.099999994,2024-06-11T16:01:27Z,86067.4,Theorie,nadharia,d,ushungi,mkutano,uwakilishi,NA,NA,0,NULL,NA,NA,NA,NA,NA,NA,NA,NA,NA,NA,NA,NA,NA,NA,NA,NA,NA,NA,NA
4e190,deep,flow.Sequence,1_6_0,NA,NA,completion,2683.3,83351.5,83350.7,83367.5,86050.8,86051.299999997,2024-06-11T16:01:27Z,86067.4,Theorie,nadharia,d,ushungi,mkutano,uwakilishi,NA,NA,NA,NULL,NA,NA,NA,NA,NA,NA,NA,NA,NA,NA,NA,NA,NA,NA,NA,NA,NA,NA,NA
4e190,task,flow.Sequence,1_6,NA,NA,completion,2683.3,83351.5,83350.7,83367.5,86050.8,86051.299999997,2024-06-11T16:01:27Z,86067.4,Theorie,nadharia,d,ushungi,mkutano,uwakilishi,NA,NA,NA,NULL,NA,NA,NA,NA,NA,NA,NA,NA,NA,NA,NA,NA,NA,NA,NA,NA,NA,NA,NA
4e190,Deep Question,html.Page,1_7_0_0,NA,NA,form submission,2103.4999999911,86051.399999991,86050.8,86067.4,88170.899999991,88171.099999994,2024-06-11T16:01:29Z,88184.1,Tester,wanaojaribu,s,sherti,sihiri,mlipuko,ka,NA,NA,NULL,NA,NA,NA,NA,NA,NA,NA,NA,NA,NA,NA,NA,NA,NA,NA,NA,NA,NA,NA
4e190,Save data screen,canvas.Screen,1_7_0_1,NA,NA,timeout,500,88172.899999991,88167.5,88184.1,88667.4,88667.799999997,2024-06-11T16:01:30Z,88684.1,Tester,wanaojaribu,s,sherti,sihiri,mlipuko,NA,NA,0,NULL,NA,NA,NA,NA,NA,NA,NA,NA,NA,NA,NA,NA,NA,NA,NA,NA,NA,NA,NA
4e190,deep,flow.Sequence,1_7_0,NA,NA,completion,2600,86051.399999991,86050.8,86067.4,88667.4,88667.899999991,2024-06-11T16:01:30Z,88684.1,Tester,wanaojaribu,s,sherti,sihiri,mlipuko,NA,NA,NA,NULL,NA,NA,NA,NA,NA,NA,NA,NA,NA,NA,NA,NA,NA,NA,NA,NA,NA,NA,NA
4e190,task,flow.Sequence,1_7,NA,NA,completion,2600,86051.399999991,86050.8,86067.4,88667.4,88667.899999991,2024-06-11T16:01:30Z,88684.1,Tester,wanaojaribu,s,sherti,sihiri,mlipuko,NA,NA,NA,NULL,NA,NA,NA,NA,NA,NA,NA,NA,NA,NA,NA,NA,NA,NA,NA,NA,NA,NA,NA
4e190,Deep Question,html.Page,1_8_0_0,NA,NA,form submission,2637.999999994,88668,88667.4,88684.1,91322.099999994,91322.399999991,2024-06-11T16:01:32Z,91334,Ergänzung,kijalizo,d,ulaghai,mustarehe,matangazo,-,NA,NA,NULL,NA,NA,NA,NA,NA,NA,NA,NA,NA,NA,NA,NA,NA,NA,NA,NA,NA,NA,NA
4e190,Save data screen,canvas.Screen,1_8_0_1,NA,NA,timeout,500.10000000001,91322.799999997,91317.45,91334,91817.4,91817.899999991,2024-06-11T16:01:33Z,91834.1,Ergänzung,kijalizo,d,ulaghai,mustarehe,matangazo,NA,NA,0,NULL,NA,NA,NA,NA,NA,NA,NA,NA,NA,NA,NA,NA,NA,NA,NA,NA,NA,NA,NA
4e190,deep,flow.Sequence,1_8_0,NA,NA,completion,3133.3,88668,88667.4,88684.1,91817.4,91818,2024-06-11T16:01:33Z,91834.1,Ergänzung,kijalizo,d,ulaghai,mustarehe,matangazo,NA,NA,NA,NULL,NA,NA,NA,NA,NA,NA,NA,NA,NA,NA,NA,NA,NA,NA,NA,NA,NA,NA,NA
4e190,task,flow.Sequence,1_8,NA,NA,completion,3133.3,88668,88667.4,88684.1,91817.4,91818.099999994,2024-06-11T16:01:33Z,91834.1,Ergänzung,kijalizo,d,ulaghai,mustarehe,matangazo,NA,NA,NA,NULL,NA,NA,NA,NA,NA,NA,NA,NA,NA,NA,NA,NA,NA,NA,NA,NA,NA,NA,NA
4e190,Deep Question,html.Page,1_9_0_0,NA,NA,form submission,3962.7999999911,91818.200000003,91817.4,91834.1,95796.899999991,95797,2024-06-11T16:01:37Z,95800.7,Inhalt,yaliyomo,s,kishawishi,hifadhi,kutembea,-,NA,NA,NULL,NA,NA,NA,NA,NA,NA,NA,NA,NA,NA,NA,NA,NA,NA,NA,NA,NA,NA,NA
4e190,Save data screen,canvas.Screen,1_9_0_1,NA,NA,timeout,500,95798.799999997,95784.124,95800.7,96284.1,96284.5,2024-06-11T16:01:37Z,96300.7,Inhalt,yaliyomo,s,kishawishi,hifadhi,kutembea,NA,NA,0,NULL,NA,NA,NA,NA,NA,NA,NA,NA,NA,NA,NA,NA,NA,NA,NA,NA,NA,NA,NA
4e190,deep,flow.Sequence,1_9_0,NA,NA,completion,4450,91818.200000003,91817.4,91834.1,96284.1,96284.700000003,2024-06-11T16:01:37Z,96300.7,Inhalt,yaliyomo,s,kishawishi,hifadhi,kutembea,NA,NA,NA,NULL,NA,NA,NA,NA,NA,NA,NA,NA,NA,NA,NA,NA,NA,NA,NA,NA,NA,NA,NA
4e190,task,flow.Sequence,1_9,NA,NA,completion,4450,91818.200000003,91817.4,91834.1,96284.1,96284.799999997,2024-06-11T16:01:37Z,96300.7,Inhalt,yaliyomo,s,kishawishi,hifadhi,kutembea,NA,NA,NA,NULL,NA,NA,NA,NA,NA,NA,NA,NA,NA,NA,NA,NA,NA,NA,NA,NA,NA,NA,NA
4e190,Deep Question,html.Page,1_10_0_0,NA,NA,form submission,1593.6999999911,96284.899999991,96284.1,96300.7,97894.399999991,97894.700000003,2024-06-11T16:01:39Z,97900.6,Fenster,dirisha,d,walakini,tasawari,maarifa,-,NA,NA,NULL,NA,NA,NA,NA,NA,NA,NA,NA,NA,NA,NA,NA,NA,NA,NA,NA,NA,NA,NA
4e190,Save data screen,canvas.Screen,1_10_0_1,NA,NA,timeout,500.09999999999,97896,97884.058,97900.6,98384.1,98384.5,2024-06-11T16:01:40Z,98400.7,Fenster,dirisha,d,walakini,tasawari,maarifa,NA,NA,0,NULL,NA,NA,NA,NA,NA,NA,NA,NA,NA,NA,NA,NA,NA,NA,NA,NA,NA,NA,NA
4e190,deep,flow.Sequence,1_10_0,NA,NA,completion,2083.4,96284.899999991,96284.1,96300.7,98384.1,98384.700000003,2024-06-11T16:01:40Z,98400.7,Fenster,dirisha,d,walakini,tasawari,maarifa,NA,NA,NA,NULL,NA,NA,NA,NA,NA,NA,NA,NA,NA,NA,NA,NA,NA,NA,NA,NA,NA,NA,NA
4e190,task,flow.Sequence,1_10,NA,NA,completion,2083.4,96284.899999991,96284.1,96300.7,98384.1,98384.799999997,2024-06-11T16:01:40Z,98400.7,Fenster,dirisha,d,walakini,tasawari,maarifa,NA,NA,NA,NULL,NA,NA,NA,NA,NA,NA,NA,NA,NA,NA,NA,NA,NA,NA,NA,NA,NA,NA,NA
4e190,Deep Question,html.Page,1_11_0_0,NA,NA,form submission,1775.000000003,98384.799999997,98384.1,98400.7,100175.7,100175.89999999,2024-06-11T16:01:41Z,100184.1,Vermutung,udhanifu,s,haramia,tikisho,itifaki,-,NA,NA,NULL,NA,NA,NA,NA,NA,NA,NA,NA,NA,NA,NA,NA,NA,NA,NA,NA,NA,NA,NA
4e190,Save data screen,canvas.Screen,1_11_0_1,NA,NA,timeout,500,100176.39999999,100167.4,100184.1,100667.3,100667.89999999,2024-06-11T16:01:42Z,100684.1,Vermutung,udhanifu,s,haramia,tikisho,itifaki,NA,NA,0,NULL,NA,NA,NA,NA,NA,NA,NA,NA,NA,NA,NA,NA,NA,NA,NA,NA,NA,NA,NA
4e190,deep,flow.Sequence,1_11_0,NA,NA,completion,2266.6,98384.799999997,98384.1,98400.7,100667.3,100668,2024-06-11T16:01:42Z,100684.1,Vermutung,udhanifu,s,haramia,tikisho,itifaki,NA,NA,NA,NULL,NA,NA,NA,NA,NA,NA,NA,NA,NA,NA,NA,NA,NA,NA,NA,NA,NA,NA,NA
4e190,task,flow.Sequence,1_11,NA,NA,completion,2266.6,98384.799999997,98384.1,98400.7,100667.3,100668.09999999,2024-06-11T16:01:42Z,100684.1,Vermutung,udhanifu,s,haramia,tikisho,itifaki,NA,NA,NA,NULL,NA,NA,NA,NA,NA,NA,NA,NA,NA,NA,NA,NA,NA,NA,NA,NA,NA,NA,NA
4e190,Deep Question,html.Page,1_12_0_0,NA,NA,form submission,1589.999999994,100668.09999999,100667.3,100684.1,102274.09999999,102274.3,2024-06-11T16:01:43Z,102284,Hoffnung,matarajio,s,kutaalamika,uratibu,mvumbuzi,-,NA,NA,NULL,NA,NA,NA,NA,NA,NA,NA,NA,NA,NA,NA,NA,NA,NA,NA,NA,NA,NA,NA
4e190,Save data screen,canvas.Screen,1_12_0_1,NA,NA,timeout,500.10000000001,102274.8,102267.428,102284,102767.4,102767.89999999,2024-06-11T16:01:44Z,102784.1,Hoffnung,matarajio,s,kutaalamika,uratibu,mvumbuzi,NA,NA,0,NULL,NA,NA,NA,NA,NA,NA,NA,NA,NA,NA,NA,NA,NA,NA,NA,NA,NA,NA,NA
4e190,deep,flow.Sequence,1_12_0,NA,NA,completion,2083.3,100668.09999999,100667.3,100684.1,102767.4,102768.09999999,2024-06-11T16:01:44Z,102784.1,Hoffnung,matarajio,s,kutaalamika,uratibu,mvumbuzi,NA,NA,NA,NULL,NA,NA,NA,NA,NA,NA,NA,NA,NA,NA,NA,NA,NA,NA,NA,NA,NA,NA,NA
4e190,task,flow.Sequence,1_12,NA,NA,completion,2083.3,100668.09999999,100667.3,100684.1,102767.4,102768.2,2024-06-11T16:01:44Z,102784.1,Hoffnung,matarajio,s,kutaalamika,uratibu,mvumbuzi,NA,NA,NA,NULL,NA,NA,NA,NA,NA,NA,NA,NA,NA,NA,NA,NA,NA,NA,NA,NA,NA,NA,NA
4e190,Deep Question,html.Page,1_13_0_0,NA,NA,form submission,1695.9,102768.3,102767.4,102784.1,104480,104480.2,2024-06-11T16:01:46Z,104484,Verpackung,ufungaji,s,uhusiano,upimaji,uchunguzi,-,NA,NA,NULL,NA,NA,NA,NA,NA,NA,NA,NA,NA,NA,NA,NA,NA,NA,NA,NA,NA,NA,NA
4e190,Save data screen,canvas.Screen,1_13_0_1,NA,NA,timeout,500,104480.7,104467.394,104484,104967.3,104967.89999999,2024-06-11T16:01:46Z,104984,Verpackung,ufungaji,s,uhusiano,upimaji,uchunguzi,NA,NA,0,NULL,NA,NA,NA,NA,NA,NA,NA,NA,NA,NA,NA,NA,NA,NA,NA,NA,NA,NA,NA
4e190,deep,flow.Sequence,1_13_0,NA,NA,completion,2183.2,102768.3,102767.4,102784.1,104967.3,104968,2024-06-11T16:01:46Z,104984,Verpackung,ufungaji,s,uhusiano,upimaji,uchunguzi,NA,NA,NA,NULL,NA,NA,NA,NA,NA,NA,NA,NA,NA,NA,NA,NA,NA,NA,NA,NA,NA,NA,NA
4e190,task,flow.Sequence,1_13,NA,NA,completion,2183.2,102768.2,102767.4,102784.1,104967.3,104968.09999999,2024-06-11T16:01:46Z,104984,Verpackung,ufungaji,s,uhusiano,upimaji,uchunguzi,NA,NA,NA,NULL,NA,NA,NA,NA,NA,NA,NA,NA,NA,NA,NA,NA,NA,NA,NA,NA,NA,NA,NA
4e190,Deep Question,html.Page,1_14_0_0,NA,NA,form submission,1613.200000003,104968.2,104967.3,104984,106597.2,106597.3,2024-06-11T16:01:48Z,106600.8,Schock,mshtuko,d,biashara,kukataza,vichekesho,-,NA,NA,NULL,NA,NA,NA,NA,NA,NA,NA,NA,NA,NA,NA,NA,NA,NA,NA,NA,NA,NA,NA
4e190,Save data screen,canvas.Screen,1_14_0_1,NA,NA,timeout,499.89999999999,106597.8,106600.694,106600.8,107084.1,107084.59999999,2024-06-11T16:01:48Z,107100.7,Schock,mshtuko,d,biashara,kukataza,vichekesho,NA,NA,0,NULL,NA,NA,NA,NA,NA,NA,NA,NA,NA,NA,NA,NA,NA,NA,NA,NA,NA,NA,NA
4e190,deep,flow.Sequence,1_14_0,NA,NA,completion,2100.1,104968.2,104967.3,104984,107084.1,107084.7,2024-06-11T16:01:48Z,107100.7,Schock,mshtuko,d,biashara,kukataza,vichekesho,NA,NA,NA,NULL,NA,NA,NA,NA,NA,NA,NA,NA,NA,NA,NA,NA,NA,NA,NA,NA,NA,NA,NA
4e190,task,flow.Sequence,1_14,NA,NA,completion,2100.1,104968.2,104967.3,104984,107084.1,107084.89999999,2024-06-11T16:01:48Z,107100.7,Schock,mshtuko,d,biashara,kukataza,vichekesho,NA,NA,NA,NULL,NA,NA,NA,NA,NA,NA,NA,NA,NA,NA,NA,NA,NA,NA,NA,NA,NA,NA,NA
4e190,Deep Question,html.Page,1_15_0_0,NA,NA,form submission,18194.199999991,107084.89999999,107084.1,107100.7,125294.89999999,125295.09999999,2024-06-11T16:02:06Z,125300.6,Schüler,mwanafunzi,s,mwekezaji,matumizi,uaminifu,-,NA,NA,NULL,NA,NA,NA,NA,NA,NA,NA,NA,NA,NA,NA,NA,NA,NA,NA,NA,NA,NA,NA
4e190,Save data screen,canvas.Screen,1_15_0_1,NA,NA,timeout,500.09999999999,125297.3,125284.04,125300.6,125784,125784.7,2024-06-11T16:02:07Z,125800.7,Schüler,mwanafunzi,s,mwekezaji,matumizi,uaminifu,NA,NA,0,NULL,NA,NA,NA,NA,NA,NA,NA,NA,NA,NA,NA,NA,NA,NA,NA,NA,NA,NA,NA
4e190,deep,flow.Sequence,1_15_0,NA,NA,completion,18683.3,107084.89999999,107084.1,107100.7,125784,125784.8,2024-06-11T16:02:07Z,125800.7,Schüler,mwanafunzi,s,mwekezaji,matumizi,uaminifu,NA,NA,NA,NULL,NA,NA,NA,NA,NA,NA,NA,NA,NA,NA,NA,NA,NA,NA,NA,NA,NA,NA,NA
4e190,task,flow.Sequence,1_15,NA,NA,completion,18683.3,107084.89999999,107084.1,107100.7,125784,125784.89999999,2024-06-11T16:02:07Z,125800.7,Schüler,mwanafunzi,s,mwekezaji,matumizi,uaminifu,NA,NA,NA,NULL,NA,NA,NA,NA,NA,NA,NA,NA,NA,NA,NA,NA,NA,NA,NA,NA,NA,NA,NA
4e190,retrieval block 1 (cued recall),flow.Loop,1,NA,NA,completion,124016.2,1760.3999999911,1751.4,1767.8,125784,125785.3,2024-06-11T16:02:07Z,125800.7,NA,NA,NA,NA,NA,NA,NA,NA,NA,NULL,NA,NA,NA,NA,NA,NA,NA,NA,NA,NA,NA,NA,NA,NA,NA,NA,NA,NA,NA
4e190,Shallow Question,html.Page,2_0_0_0,NA,NA,form submission,5722.500000003,125785.5,125784,125800.7,131523.2,131523.39999999,2024-06-11T16:02:13Z,131533.9,Tester,wanaojaribu,s,sherti,sihiri,mlipuko,wanaojaribu,NA,NA,"c(""distractor1"", ""distractor2"", ""distractor3"")",NA,NA,NA,NA,NA,NA,NA,NA,NA,NA,NA,NA,NA,NA,NA,NA,NA,NA,NA
4e190,Save data screen,canvas.Screen,2_0_0_1,NA,NA,timeout,500.10000000001,131525.09999999,131517.38,131533.9,132017.4,132017.8,2024-06-11T16:02:13Z,132034,Tester,wanaojaribu,s,sherti,sihiri,mlipuko,NA,NA,1,"c(""distractor1"", ""distractor2"", ""distractor3"")",NA,NA,NA,NA,NA,NA,NA,NA,NA,NA,NA,NA,NA,NA,NA,NA,NA,NA,NA
4e190,shallow,flow.Sequence,2_0_0,NA,NA,completion,6216.7,125785.5,125784,125800.7,132017.4,132018,2024-06-11T16:02:13Z,132034,Tester,wanaojaribu,s,sherti,sihiri,mlipuko,NA,NA,NA,"c(""distractor1"", ""distractor2"", ""distractor3"")",NA,NA,NA,NA,NA,NA,NA,NA,NA,NA,NA,NA,NA,NA,NA,NA,NA,NA,NA
4e190,task,flow.Sequence,2_0,NA,NA,completion,6216.7,125785.39999999,125784,125800.7,132017.4,132018.09999999,2024-06-11T16:02:13Z,132034,Tester,wanaojaribu,s,sherti,sihiri,mlipuko,NA,NA,NA,"c(""distractor1"", ""distractor2"", ""distractor3"")",NA,NA,NA,NA,NA,NA,NA,NA,NA,NA,NA,NA,NA,NA,NA,NA,NA,NA,NA
4e190,Shallow Question,html.Page,2_1_0_0,NA,NA,form submission,4870.599999994,132018.09999999,132017.4,132034,136904.59999999,136904.8,2024-06-11T16:02:18Z,136917.3,Fenster,dirisha,d,walakini,tasawari,maarifa,dirisha,NA,NA,"c(""distractor1"", ""distractor2"", ""distractor3"")",NA,NA,NA,NA,NA,NA,NA,NA,NA,NA,NA,NA,NA,NA,NA,NA,NA,NA,NA
4e190,Save data screen,canvas.Screen,2_1_0_1,NA,NA,timeout,499.90000000002,136907,136900.654,136917.3,137400.5,137400.89999999,2024-06-11T16:02:19Z,137417.2,Fenster,dirisha,d,walakini,tasawari,maarifa,NA,NA,1,"c(""distractor1"", ""distractor2"", ""distractor3"")",NA,NA,NA,NA,NA,NA,NA,NA,NA,NA,NA,NA,NA,NA,NA,NA,NA,NA,NA
4e190,shallow,flow.Sequence,2_1_0,NA,NA,completion,5366.5,132018.09999999,132017.4,132034,137400.5,137401.09999999,2024-06-11T16:02:19Z,137417.2,Fenster,dirisha,d,walakini,tasawari,maarifa,NA,NA,NA,"c(""distractor1"", ""distractor2"", ""distractor3"")",NA,NA,NA,NA,NA,NA,NA,NA,NA,NA,NA,NA,NA,NA,NA,NA,NA,NA,NA
4e190,task,flow.Sequence,2_1,NA,NA,completion,5366.5,132018.09999999,132017.4,132034,137400.5,137401.09999999,2024-06-11T16:02:19Z,137417.2,Fenster,dirisha,d,walakini,tasawari,maarifa,NA,NA,NA,"c(""distractor1"", ""distractor2"", ""distractor3"")",NA,NA,NA,NA,NA,NA,NA,NA,NA,NA,NA,NA,NA,NA,NA,NA,NA,NA,NA
4e190,Shallow Question,html.Page,2_2_0_0,NA,NA,form submission,5217.899999994,137401.3,137400.5,137417.2,142635.09999999,142635.2,2024-06-11T16:02:24Z,142650.6,Spionage,upelelezi,d,maslahi,utokazo,magangao,upelelezi,NA,NA,"c(""distractor1"", ""distractor2"", ""distractor3"")",NA,NA,NA,NA,NA,NA,NA,NA,NA,NA,NA,NA,NA,NA,NA,NA,NA,NA,NA
4e190,Save data screen,canvas.Screen,2_2_0_1,NA,NA,timeout,499.89999999999,142636.8,142634.038,142650.6,143133.9,143134.3,2024-06-11T16:02:24Z,143150.5,Spionage,upelelezi,d,maslahi,utokazo,magangao,NA,NA,1,"c(""distractor1"", ""distractor2"", ""distractor3"")",NA,NA,NA,NA,NA,NA,NA,NA,NA,NA,NA,NA,NA,NA,NA,NA,NA,NA,NA
4e190,shallow,flow.Sequence,2_2_0,NA,NA,completion,5716.7,137401.2,137400.5,137417.2,143133.9,143134.39999999,2024-06-11T16:02:24Z,143150.5,Spionage,upelelezi,d,maslahi,utokazo,magangao,NA,NA,NA,"c(""distractor1"", ""distractor2"", ""distractor3"")",NA,NA,NA,NA,NA,NA,NA,NA,NA,NA,NA,NA,NA,NA,NA,NA,NA,NA,NA
4e190,task,flow.Sequence,2_2,NA,NA,completion,5716.7,137401.2,137400.5,137417.2,143133.9,143134.5,2024-06-11T16:02:24Z,143150.5,Spionage,upelelezi,d,maslahi,utokazo,magangao,NA,NA,NA,"c(""distractor1"", ""distractor2"", ""distractor3"")",NA,NA,NA,NA,NA,NA,NA,NA,NA,NA,NA,NA,NA,NA,NA,NA,NA,NA,NA
4e190,Shallow Question,html.Page,2_3_0_0,NA,NA,form submission,4140.3999999911,143134.5,143133.9,143150.5,147290.89999999,147291.09999999,2024-06-11T16:02:28Z,147300.6,Vermutung,udhanifu,s,haramia,tikisho,itifaki,udhanifu,NA,NA,"c(""distractor1"", ""distractor2"", ""distractor3"")",NA,NA,NA,NA,NA,NA,NA,NA,NA,NA,NA,NA,NA,NA,NA,NA,NA,NA,NA
4e190,Save data screen,canvas.Screen,2_3_0_1,NA,NA,timeout,499.89999999999,147292.89999999,147283.944,147300.6,147783.9,147784.3,2024-06-11T16:02:29Z,147800.5,Vermutung,udhanifu,s,haramia,tikisho,itifaki,NA,NA,1,"c(""distractor1"", ""distractor2"", ""distractor3"")",NA,NA,NA,NA,NA,NA,NA,NA,NA,NA,NA,NA,NA,NA,NA,NA,NA,NA,NA
4e190,shallow,flow.Sequence,2_3_0,NA,NA,completion,4633.4,143134.5,143133.9,143150.5,147783.9,147784.39999999,2024-06-11T16:02:29Z,147800.5,Vermutung,udhanifu,s,haramia,tikisho,itifaki,NA,NA,NA,"c(""distractor1"", ""distractor2"", ""distractor3"")",NA,NA,NA,NA,NA,NA,NA,NA,NA,NA,NA,NA,NA,NA,NA,NA,NA,NA,NA
4e190,task,flow.Sequence,2_3,NA,NA,completion,4633.4,143134.5,143133.9,143150.5,147783.9,147784.39999999,2024-06-11T16:02:29Z,147800.5,Vermutung,udhanifu,s,haramia,tikisho,itifaki,NA,NA,NA,"c(""distractor1"", ""distractor2"", ""distractor3"")",NA,NA,NA,NA,NA,NA,NA,NA,NA,NA,NA,NA,NA,NA,NA,NA,NA,NA,NA
4e190,Shallow Question,html.Page,2_4_0_0,NA,NA,form submission,3740,147784.5,147783.9,147800.5,151540.5,151540.7,2024-06-11T16:02:33Z,151550.6,Vergnügen,kichekesho,s,dubwana,mpanuko,mtesaji,kichekesho,NA,NA,"c(""distractor1"", ""distractor2"", ""distractor3"")",NA,NA,NA,NA,NA,NA,NA,NA,NA,NA,NA,NA,NA,NA,NA,NA,NA,NA,NA
4e190,Save data screen,canvas.Screen,2_4_0_1,NA,NA,timeout,499.89999999999,151542.8,151533.866,151550.6,152033.9,152034.2,2024-06-11T16:02:33Z,152050.5,Vergnügen,kichekesho,s,dubwana,mpanuko,mtesaji,NA,NA,1,"c(""distractor1"", ""distractor2"", ""distractor3"")",NA,NA,NA,NA,NA,NA,NA,NA,NA,NA,NA,NA,NA,NA,NA,NA,NA,NA,NA
4e190,shallow,flow.Sequence,2_4_0,NA,NA,completion,4233.4,147784.5,147783.9,147800.5,152033.9,152034.3,2024-06-11T16:02:33Z,152050.5,Vergnügen,kichekesho,s,dubwana,mpanuko,mtesaji,NA,NA,NA,"c(""distractor1"", ""distractor2"", ""distractor3"")",NA,NA,NA,NA,NA,NA,NA,NA,NA,NA,NA,NA,NA,NA,NA,NA,NA,NA,NA
4e190,task,flow.Sequence,2_4,NA,NA,completion,4233.4,147784.5,147783.9,147800.5,152033.9,152034.39999999,2024-06-11T16:02:33Z,152050.5,Vergnügen,kichekesho,s,dubwana,mpanuko,mtesaji,NA,NA,NA,"c(""distractor1"", ""distractor2"", ""distractor3"")",NA,NA,NA,NA,NA,NA,NA,NA,NA,NA,NA,NA,NA,NA,NA,NA,NA,NA,NA
4e190,Shallow Question,html.Page,2_5_0_0,NA,NA,form submission,7016.5,152034.39999999,152033.9,152050.5,159067,159067.09999999,2024-06-11T16:02:40Z,159084.8,Toleranz,kuvumiliana,d,maombolezo,ujasusi,mchekeshaji,kuvumiliana,NA,NA,"c(""distractor1"", ""distractor2"", ""distractor3"")",NA,NA,NA,NA,NA,NA,NA,NA,NA,NA,NA,NA,NA,NA,NA,NA,NA,NA,NA
4e190,Save data screen,canvas.Screen,2_5_0_1,NA,NA,timeout,499,159068.5,159067.228,159084.8,159567.2,159567.59999999,2024-06-11T16:02:41Z,159583.8,Toleranz,kuvumiliana,d,maombolezo,ujasusi,mchekeshaji,NA,NA,1,"c(""distractor1"", ""distractor2"", ""distractor3"")",NA,NA,NA,NA,NA,NA,NA,NA,NA,NA,NA,NA,NA,NA,NA,NA,NA,NA,NA
4e190,shallow,flow.Sequence,2_5_0,NA,NA,completion,7516.7,152034.39999999,152033.9,152050.5,159567.2,159567.7,2024-06-11T16:02:41Z,159583.8,Toleranz,kuvumiliana,d,maombolezo,ujasusi,mchekeshaji,NA,NA,NA,"c(""distractor1"", ""distractor2"", ""distractor3"")",NA,NA,NA,NA,NA,NA,NA,NA,NA,NA,NA,NA,NA,NA,NA,NA,NA,NA,NA
4e190,task,flow.Sequence,2_5,NA,NA,completion,7516.7,152034.39999999,152033.9,152050.5,159567.2,159567.7,2024-06-11T16:02:41Z,159583.8,Toleranz,kuvumiliana,d,maombolezo,ujasusi,mchekeshaji,NA,NA,NA,"c(""distractor1"", ""distractor2"", ""distractor3"")",NA,NA,NA,NA,NA,NA,NA,NA,NA,NA,NA,NA,NA,NA,NA,NA,NA,NA,NA
4e190,Shallow Question,html.Page,2_6_0_0,NA,NA,form submission,10500.999999997,159567.89999999,159567.2,159583.8,170084.8,170085,2024-06-11T16:02:51Z,170100.5,Notfall,dharura,s,rairai,malalamiko,ahueni,dharura,NA,NA,"c(""distractor1"", ""distractor2"", ""distractor3"")",NA,NA,NA,NA,NA,NA,NA,NA,NA,NA,NA,NA,NA,NA,NA,NA,NA,NA,NA
4e190,Save data screen,canvas.Screen,2_6_0_1,NA,NA,timeout,500.29999999999,170087.2,170084.246,170100.5,170584.3,170585.59999999,2024-06-11T16:02:52Z,170600.8,Notfall,dharura,s,rairai,malalamiko,ahueni,NA,NA,1,"c(""distractor1"", ""distractor2"", ""distractor3"")",NA,NA,NA,NA,NA,NA,NA,NA,NA,NA,NA,NA,NA,NA,NA,NA,NA,NA,NA
4e190,shallow,flow.Sequence,2_6_0,NA,NA,completion,11000.5,159567.89999999,159567.2,159583.8,170584.3,170586.09999999,2024-06-11T16:02:52Z,170600.8,Notfall,dharura,s,rairai,malalamiko,ahueni,NA,NA,NA,"c(""distractor1"", ""distractor2"", ""distractor3"")",NA,NA,NA,NA,NA,NA,NA,NA,NA,NA,NA,NA,NA,NA,NA,NA,NA,NA,NA
4e190,task,flow.Sequence,2_6,NA,NA,completion,11000.5,159567.89999999,159567.2,159583.8,170584.3,170586.39999999,2024-06-11T16:02:52Z,170600.8,Notfall,dharura,s,rairai,malalamiko,ahueni,NA,NA,NA,"c(""distractor1"", ""distractor2"", ""distractor3"")",NA,NA,NA,NA,NA,NA,NA,NA,NA,NA,NA,NA,NA,NA,NA,NA,NA,NA,NA
4e190,Shallow Question,html.Page,2_7_0_0,NA,NA,form submission,6286.7999999941,170586.8,170584.3,170600.8,176887.59999999,176887.89999999,2024-06-11T16:02:58Z,176900.5,Theorie,nadharia,d,ushungi,mkutano,uwakilishi,nadharia,NA,NA,"c(""distractor1"", ""distractor2"", ""distractor3"")",NA,NA,NA,NA,NA,NA,NA,NA,NA,NA,NA,NA,NA,NA,NA,NA,NA,NA,NA
4e190,Save data screen,canvas.Screen,2_7_0_1,NA,NA,timeout,500.10000000001,176889.8,176884.174,176900.5,177383.9,177385.3,2024-06-11T16:02:59Z,177400.6,Theorie,nadharia,d,ushungi,mkutano,uwakilishi,NA,NA,1,"c(""distractor1"", ""distractor2"", ""distractor3"")",NA,NA,NA,NA,NA,NA,NA,NA,NA,NA,NA,NA,NA,NA,NA,NA,NA,NA,NA
4e190,shallow,flow.Sequence,2_7_0,NA,NA,completion,6783.1,170586.7,170584.3,170600.8,177383.9,177385.8,2024-06-11T16:02:59Z,177400.6,Theorie,nadharia,d,ushungi,mkutano,uwakilishi,NA,NA,NA,"c(""distractor1"", ""distractor2"", ""distractor3"")",NA,NA,NA,NA,NA,NA,NA,NA,NA,NA,NA,NA,NA,NA,NA,NA,NA,NA,NA
4e190,task,flow.Sequence,2_7,NA,NA,completion,6783.1,170586.59999999,170584.3,170600.8,177383.9,177386.09999999,2024-06-11T16:02:59Z,177400.6,Theorie,nadharia,d,ushungi,mkutano,uwakilishi,NA,NA,NA,"c(""distractor1"", ""distractor2"", ""distractor3"")",NA,NA,NA,NA,NA,NA,NA,NA,NA,NA,NA,NA,NA,NA,NA,NA,NA,NA,NA
4e190,Shallow Question,html.Page,2_8_0_0,NA,NA,form submission,7271.199999997,177386.39999999,177383.9,177400.6,184671.8,184672,2024-06-11T16:03:06Z,184683.9,Hoffnung,matarajio,s,kutaalamika,uratibu,mvumbuzi,matarajio,NA,NA,"c(""distractor1"", ""distractor2"", ""distractor3"")",NA,NA,NA,NA,NA,NA,NA,NA,NA,NA,NA,NA,NA,NA,NA,NA,NA,NA,NA
4e190,Save data screen,canvas.Screen,2_8_0_1,NA,NA,timeout,500.20000000001,184674.3,184667.01,184683.9,185167.6,185168.7,2024-06-11T16:03:06Z,185184.1,Hoffnung,matarajio,s,kutaalamika,uratibu,mvumbuzi,NA,NA,1,"c(""distractor1"", ""distractor2"", ""distractor3"")",NA,NA,NA,NA,NA,NA,NA,NA,NA,NA,NA,NA,NA,NA,NA,NA,NA,NA,NA
4e190,shallow,flow.Sequence,2_8_0,NA,NA,completion,7767,177386.39999999,177383.9,177400.6,185167.6,185169.09999999,2024-06-11T16:03:06Z,185184.1,Hoffnung,matarajio,s,kutaalamika,uratibu,mvumbuzi,NA,NA,NA,"c(""distractor1"", ""distractor2"", ""distractor3"")",NA,NA,NA,NA,NA,NA,NA,NA,NA,NA,NA,NA,NA,NA,NA,NA,NA,NA,NA
4e190,task,flow.Sequence,2_8,NA,NA,completion,7767,177386.3,177383.9,177400.6,185167.6,185169.3,2024-06-11T16:03:06Z,185184.1,Hoffnung,matarajio,s,kutaalamika,uratibu,mvumbuzi,NA,NA,NA,"c(""distractor1"", ""distractor2"", ""distractor3"")",NA,NA,NA,NA,NA,NA,NA,NA,NA,NA,NA,NA,NA,NA,NA,NA,NA,NA,NA
4e190,Shallow Question,html.Page,2_9_0_0,NA,NA,form submission,9703.699999997,185169.59999999,185167.6,185184.1,194887.8,194888,2024-06-11T16:03:16Z,194900.5,Inhalt,yaliyomo,s,kishawishi,hifadhi,kutembea,hifadhi,NA,NA,"c(""distractor1"", ""distractor2"", ""distractor3"")",NA,NA,NA,NA,NA,NA,NA,NA,NA,NA,NA,NA,NA,NA,NA,NA,NA,NA,NA
4e190,Save data screen,canvas.Screen,2_9_0_1,NA,NA,timeout,499.89999999999,194890.2,194884.022,194900.5,195383.8,195384.3,2024-06-11T16:03:17Z,195400.4,Inhalt,yaliyomo,s,kishawishi,hifadhi,kutembea,NA,NA,0,"c(""distractor1"", ""distractor2"", ""distractor3"")",NA,NA,NA,NA,NA,NA,NA,NA,NA,NA,NA,NA,NA,NA,NA,NA,NA,NA,NA
4e190,shallow,flow.Sequence,2_9_0,NA,NA,completion,10199.7,185169.59999999,185167.6,185184.1,195383.8,195384.5,2024-06-11T16:03:17Z,195400.4,Inhalt,yaliyomo,s,kishawishi,hifadhi,kutembea,NA,NA,NA,"c(""distractor1"", ""distractor2"", ""distractor3"")",NA,NA,NA,NA,NA,NA,NA,NA,NA,NA,NA,NA,NA,NA,NA,NA,NA,NA,NA
4e190,task,flow.Sequence,2_9,NA,NA,completion,10199.7,185169.5,185167.6,185184.1,195383.8,195384.5,2024-06-11T16:03:17Z,195400.4,Inhalt,yaliyomo,s,kishawishi,hifadhi,kutembea,NA,NA,NA,"c(""distractor1"", ""distractor2"", ""distractor3"")",NA,NA,NA,NA,NA,NA,NA,NA,NA,NA,NA,NA,NA,NA,NA,NA,NA,NA,NA
4e190,Shallow Question,html.Page,2_10_0_0,NA,NA,form submission,5177.699999994,195384.59999999,195383.8,195400.4,200578.09999999,200578.3,2024-06-11T16:03:22Z,200583.7,Schock,mshtuko,d,biashara,kukataza,vichekesho,mshtuko,NA,NA,"c(""distractor1"", ""distractor2"", ""distractor3"")",NA,NA,NA,NA,NA,NA,NA,NA,NA,NA,NA,NA,NA,NA,NA,NA,NA,NA,NA
4e190,Save data screen,canvas.Screen,2_10_0_1,NA,NA,timeout,500,200579.59999999,200567.104,200583.7,201067.1,201067.5,2024-06-11T16:03:22Z,201083.7,Schock,mshtuko,d,biashara,kukataza,vichekesho,NA,NA,1,"c(""distractor1"", ""distractor2"", ""distractor3"")",NA,NA,NA,NA,NA,NA,NA,NA,NA,NA,NA,NA,NA,NA,NA,NA,NA,NA,NA
4e190,shallow,flow.Sequence,2_10_0,NA,NA,completion,5666.7,195384.59999999,195383.8,195400.4,201067.1,201067.59999999,2024-06-11T16:03:22Z,201083.7,Schock,mshtuko,d,biashara,kukataza,vichekesho,NA,NA,NA,"c(""distractor1"", ""distractor2"", ""distractor3"")",NA,NA,NA,NA,NA,NA,NA,NA,NA,NA,NA,NA,NA,NA,NA,NA,NA,NA,NA
4e190,task,flow.Sequence,2_10,NA,NA,completion,5666.7,195384.59999999,195383.8,195400.4,201067.1,201067.7,2024-06-11T16:03:22Z,201083.7,Schock,mshtuko,d,biashara,kukataza,vichekesho,NA,NA,NA,"c(""distractor1"", ""distractor2"", ""distractor3"")",NA,NA,NA,NA,NA,NA,NA,NA,NA,NA,NA,NA,NA,NA,NA,NA,NA,NA,NA
4e190,Shallow Question,html.Page,2_11_0_0,NA,NA,form submission,4567.8,201067.8,201067.1,201083.7,205651.5,205651.7,2024-06-11T16:03:27Z,205667.3,Verpackung,ufungaji,s,uhusiano,upimaji,uchunguzi,ufungaji,NA,NA,"c(""distractor1"", ""distractor2"", ""distractor3"")",NA,NA,NA,NA,NA,NA,NA,NA,NA,NA,NA,NA,NA,NA,NA,NA,NA,NA,NA
4e190,Save data screen,canvas.Screen,2_11_0_1,NA,NA,timeout,500.10000000001,205654,205650.756,205667.3,206150.6,206151.7,2024-06-11T16:03:27Z,206167.4,Verpackung,ufungaji,s,uhusiano,upimaji,uchunguzi,NA,NA,1,"c(""distractor1"", ""distractor2"", ""distractor3"")",NA,NA,NA,NA,NA,NA,NA,NA,NA,NA,NA,NA,NA,NA,NA,NA,NA,NA,NA
4e190,shallow,flow.Sequence,2_11_0,NA,NA,completion,5066.9,201067.8,201067.1,201083.7,206150.6,206152.2,2024-06-11T16:03:27Z,206167.4,Verpackung,ufungaji,s,uhusiano,upimaji,uchunguzi,NA,NA,NA,"c(""distractor1"", ""distractor2"", ""distractor3"")",NA,NA,NA,NA,NA,NA,NA,NA,NA,NA,NA,NA,NA,NA,NA,NA,NA,NA,NA
4e190,task,flow.Sequence,2_11,NA,NA,completion,5066.9,201067.7,201067.1,201083.7,206150.6,206152.5,2024-06-11T16:03:27Z,206167.4,Verpackung,ufungaji,s,uhusiano,upimaji,uchunguzi,NA,NA,NA,"c(""distractor1"", ""distractor2"", ""distractor3"")",NA,NA,NA,NA,NA,NA,NA,NA,NA,NA,NA,NA,NA,NA,NA,NA,NA,NA,NA
4e190,Shallow Question,html.Page,2_12_0_0,NA,NA,form submission,9252.300000003,206152.7,206150.6,206167.4,215419.7,215419.89999999,2024-06-11T16:03:37Z,215434,Wohlstand,mafanikio,d,chimbuko,kumbuko,mapwaji,mafanikio,NA,NA,"c(""distractor1"", ""distractor2"", ""distractor3"")",NA,NA,NA,NA,NA,NA,NA,NA,NA,NA,NA,NA,NA,NA,NA,NA,NA,NA,NA
4e190,Save data screen,canvas.Screen,2_12_0_1,NA,NA,timeout,499.70000000001,215422.2,215417,215434,215917.2,215918.39999999,2024-06-11T16:03:37Z,215933.7,Wohlstand,mafanikio,d,chimbuko,kumbuko,mapwaji,NA,NA,1,"c(""distractor1"", ""distractor2"", ""distractor3"")",NA,NA,NA,NA,NA,NA,NA,NA,NA,NA,NA,NA,NA,NA,NA,NA,NA,NA,NA
4e190,shallow,flow.Sequence,2_12_0,NA,NA,completion,9749.8,206152.7,206150.6,206167.4,215917.2,215919,2024-06-11T16:03:37Z,215933.7,Wohlstand,mafanikio,d,chimbuko,kumbuko,mapwaji,NA,NA,NA,"c(""distractor1"", ""distractor2"", ""distractor3"")",NA,NA,NA,NA,NA,NA,NA,NA,NA,NA,NA,NA,NA,NA,NA,NA,NA,NA,NA
4e190,task,flow.Sequence,2_12,NA,NA,completion,9749.8,206152.59999999,206150.6,206167.4,215917.2,215919.2,2024-06-11T16:03:37Z,215933.7,Wohlstand,mafanikio,d,chimbuko,kumbuko,mapwaji,NA,NA,NA,"c(""distractor1"", ""distractor2"", ""distractor3"")",NA,NA,NA,NA,NA,NA,NA,NA,NA,NA,NA,NA,NA,NA,NA,NA,NA,NA,NA
4e190,Shallow Question,html.Page,2_13_0_0,NA,NA,form submission,3848.099999997,215919.5,215917.2,215933.7,219781.8,219782,2024-06-11T16:03:41Z,219783.966,Schüler,mwanafunzi,s,mwekezaji,matumizi,uaminifu,mwanafunzi,NA,NA,"c(""distractor1"", ""distractor2"", ""distractor3"")",NA,NA,NA,NA,NA,NA,NA,NA,NA,NA,NA,NA,NA,NA,NA,NA,NA,NA,NA
4e190,Save data screen,canvas.Screen,2_13_0_1,NA,NA,timeout,500.03400000001,219784.2,219783.966,219783.966,220267.4,220268,2024-06-11T16:03:41Z,220284,Schüler,mwanafunzi,s,mwekezaji,matumizi,uaminifu,NA,NA,1,"c(""distractor1"", ""distractor2"", ""distractor3"")",NA,NA,NA,NA,NA,NA,NA,NA,NA,NA,NA,NA,NA,NA,NA,NA,NA,NA,NA
4e190,shallow,flow.Sequence,2_13_0,NA,NA,completion,4333.7,215919.39999999,215917.2,215933.7,220267.4,220268.2,2024-06-11T16:03:41Z,220284,Schüler,mwanafunzi,s,mwekezaji,matumizi,uaminifu,NA,NA,NA,"c(""distractor1"", ""distractor2"", ""distractor3"")",NA,NA,NA,NA,NA,NA,NA,NA,NA,NA,NA,NA,NA,NA,NA,NA,NA,NA,NA
4e190,task,flow.Sequence,2_13,NA,NA,completion,4333.7,215919.39999999,215917.2,215933.7,220267.4,220268.3,2024-06-11T16:03:41Z,220284,Schüler,mwanafunzi,s,mwekezaji,matumizi,uaminifu,NA,NA,NA,"c(""distractor1"", ""distractor2"", ""distractor3"")",NA,NA,NA,NA,NA,NA,NA,NA,NA,NA,NA,NA,NA,NA,NA,NA,NA,NA,NA
4e190,Shallow Question,html.Page,2_14_0_0,NA,NA,form submission,2988.799999997,220268.39999999,220267.4,220284,223272.8,223272.89999999,2024-06-11T16:03:44Z,223283.6,Schlange,foleni,d,uvumilivu,uteuzi,muuzaji,foleni,NA,NA,"c(""distractor1"", ""distractor2"", ""distractor3"")",NA,NA,NA,NA,NA,NA,NA,NA,NA,NA,NA,NA,NA,NA,NA,NA,NA,NA,NA
4e190,Save data screen,canvas.Screen,2_14_0_1,NA,NA,timeout,500.39999999999,223273.39999999,223267.276,223283.6,223767.4,223768.59999999,2024-06-11T16:03:45Z,223784,Schlange,foleni,d,uvumilivu,uteuzi,muuzaji,NA,NA,1,"c(""distractor1"", ""distractor2"", ""distractor3"")",NA,NA,NA,NA,NA,NA,NA,NA,NA,NA,NA,NA,NA,NA,NA,NA,NA,NA,NA
4e190,shallow,flow.Sequence,2_14_0,NA,NA,completion,3483.4,220268.39999999,220267.4,220284,223767.4,223769.09999999,2024-06-11T16:03:45Z,223784,Schlange,foleni,d,uvumilivu,uteuzi,muuzaji,NA,NA,NA,"c(""distractor1"", ""distractor2"", ""distractor3"")",NA,NA,NA,NA,NA,NA,NA,NA,NA,NA,NA,NA,NA,NA,NA,NA,NA,NA,NA
4e190,task,flow.Sequence,2_14,NA,NA,completion,3483.4,220268.39999999,220267.4,220284,223767.4,223769.39999999,2024-06-11T16:03:45Z,223784,Schlange,foleni,d,uvumilivu,uteuzi,muuzaji,NA,NA,NA,"c(""distractor1"", ""distractor2"", ""distractor3"")",NA,NA,NA,NA,NA,NA,NA,NA,NA,NA,NA,NA,NA,NA,NA,NA,NA,NA,NA
4e190,Shallow Question,html.Page,2_15_0_0,NA,NA,form submission,4582.700000003,223769.59999999,223767.4,223784,228366.7,228366.89999999,2024-06-11T16:03:49Z,228384.4,Ergänzung,kijalizo,d,ulaghai,mustarehe,matangazo,kijalizo,NA,NA,"c(""distractor1"", ""distractor2"", ""distractor3"")",NA,NA,NA,NA,NA,NA,NA,NA,NA,NA,NA,NA,NA,NA,NA,NA,NA,NA,NA
4e190,Save data screen,canvas.Screen,2_15_0_1,NA,NA,timeout,499.39999999999,228369.09999999,228366.988,228384.4,228867.2,228868.5,2024-06-11T16:03:50Z,228883.8,Ergänzung,kijalizo,d,ulaghai,mustarehe,matangazo,NA,NA,1,"c(""distractor1"", ""distractor2"", ""distractor3"")",NA,NA,NA,NA,NA,NA,NA,NA,NA,NA,NA,NA,NA,NA,NA,NA,NA,NA,NA
4e190,shallow,flow.Sequence,2_15_0,NA,NA,completion,5083.2,223769.59999999,223767.4,223784,228867.2,228869,2024-06-11T16:03:50Z,228883.8,Ergänzung,kijalizo,d,ulaghai,mustarehe,matangazo,NA,NA,NA,"c(""distractor1"", ""distractor2"", ""distractor3"")",NA,NA,NA,NA,NA,NA,NA,NA,NA,NA,NA,NA,NA,NA,NA,NA,NA,NA,NA
4e190,task,flow.Sequence,2_15,NA,NA,completion,5083.2,223769.5,223767.4,223784,228867.2,228869.2,2024-06-11T16:03:50Z,228883.8,Ergänzung,kijalizo,d,ulaghai,mustarehe,matangazo,NA,NA,NA,"c(""distractor1"", ""distractor2"", ""distractor3"")",NA,NA,NA,NA,NA,NA,NA,NA,NA,NA,NA,NA,NA,NA,NA,NA,NA,NA,NA
4e190,retrieval block 2 (multiple choice),flow.Loop,2,NA,NA,completion,103066.5,125785.39999999,125784,125800.7,228867.2,228869.5,2024-06-11T16:03:50Z,228883.8,NA,NA,NA,NA,NA,NA,NA,NA,NA,"c(""distractor1"", ""distractor2"", ""distractor3"")",NA,NA,NA,NA,NA,NA,NA,NA,NA,NA,NA,NA,NA,NA,NA,NA,NA,NA,NA
4e190,End,canvas.Screen,3,NA,keypress(Space),response,1858.900000003,228869.8,228867.2,228883.8,230742.7,230744.3,2024-06-11T16:03:52Z,230750.4,NA,NA,NA,NA,NA,NA,NA,NA,NA,NULL,NA,NA,NA,NA,NA,NA,NA,NA,NA,NA,NA,NA,NA,NA,NA,NA,NA,NA,NA
4e190,root,flow.Sequence,NA,NA,NA,completion,230458.3,255.09999999404,267.7,284.4,230742.7,230745.39999999,2024-06-11T16:03:52Z,230750.4,NA,NA,NA,NA,NA,NA,NA,NA,NA,NULL,NA,NA,NA,NA,NA,NA,NA,NA,NA,NA,NA,NA,NA,NA,NA,NA,NA,NA,NA
