observation,sender,sender_type,sender_id,response,response_action,ended_on,duration,time_run,time_render,time_show,time_end,time_commit,timestamp,time_switch,distractors,german,swahili,enc,distractor1,distractor2,distractor3,response_2,x,correct,x_2,url_vp,url_sess,meta_labjs_version,meta_location,meta_user_agent,meta_platform,meta_language,meta_locale,meta_time_zone,meta_timezone_offset,meta_screen_width,meta_screen_height,meta_scroll_width,meta_scroll_height,meta_window_inner_width,meta_window_inner_height,meta_device_pixel_ratio,meta_labjs_build_flavor,meta_labjs_build_commit
c9347,Introduction general,canvas.Screen,0,weiter,keypress(q),response,25796.8,405.89999999991,170.4,420.2,26217,26219.3,2024-06-09T12:44:37Z,26239,NULL,NA,NA,NA,NA,NA,NA,NA,NA,NA,NA,228,3,20.2.4,https://neurocog.fernuni.ch/studies/vweber/aberisha/encoding_immediate/index.html?vp=228&sess=3,"Mozilla/5.0 (Windows NT 10.0; Win64; x64) AppleWebKit/537.36 (KHTML, like Gecko) Chrome/125.0.0.0 Safari/537.36",Win32,de-DE,de,Europe/Zurich,-120,1536,864,1536,682,1536,730,1.25,production,f5b4a49f956347addd546a832a3327688c2c0fef
c9347,Introduction practice,canvas.Screen,1_0,NA,keypress(Space),response,3159.7000000002,26219.8,26205.76,26239,29398.7,29400,2024-06-09T12:44:40Z,29419.2,NULL,NA,NA,NA,NA,NA,NA,NA,NA,NA,NA,NA,NA,NA,NA,NA,NA,NA,NA,NA,NA,NA,NA,NA,NA,NA,NA,NA,NA,NA
c9347,deep,flow.Sequence,1_1_0_0,NA,NA,skipped,NA,29400.5,NA,NA,29398.7,29400.9,2024-06-09T12:44:40Z,29419.2,"c(""distractor1"", ""distractor2"", ""distractor3"")",Rückhalt,msaada,s,muhula,auwali,kiwimbe,NA,NA,NA,NA,NA,NA,NA,NA,NA,NA,NA,NA,NA,NA,NA,NA,NA,NA,NA,NA,NA,NA,NA
c9347,Shallow Question,html.Page,1_1_0_1_0,NA,NA,form submission,11057.1,29401.2,29402.4,29419.2,40476.3,40476.7,2024-06-09T12:44:51Z,40479.728,"c(""distractor1"", ""distractor2"", ""distractor3"")",Rückhalt,msaada,s,muhula,auwali,kiwimbe,kiwimbe,NA,NA,NA,NA,NA,NA,NA,NA,NA,NA,NA,NA,NA,NA,NA,NA,NA,NA,NA,NA,NA,NA
c9347,"""Richtig""-Screen",canvas.Screen,1_1_0_1_1,NA,NA,skipped,NA,40478.4,NA,NA,40476.3,40478.6,2024-06-09T12:44:51Z,40479.728,"c(""distractor1"", ""distractor2"", ""distractor3"")",Rückhalt,msaada,s,muhula,auwali,kiwimbe,NA,NA,NA,NA,NA,NA,NA,NA,NA,NA,NA,NA,NA,NA,NA,NA,NA,NA,NA,NA,NA,NA,NA
c9347,"""Falsch""-Screen",canvas.Screen,1_1_0_1_2,NA,NA,timeout,4996.872,40479.5,40479.728,40479.728,45459.7,45461.2,2024-06-09T12:44:56Z,45476.6,"c(""distractor1"", ""distractor2"", ""distractor3"")",Rückhalt,msaada,s,muhula,auwali,kiwimbe,NA,NA,0,NA,NA,NA,NA,NA,NA,NA,NA,NA,NA,NA,NA,NA,NA,NA,NA,NA,NA,NA,NA
c9347,shallow,flow.Sequence,1_1_0_1,NA,NA,completion,16040.5,29401.2,29402.4,29419.2,45459.7,45461.6,2024-06-09T12:44:56Z,45476.6,"c(""distractor1"", ""distractor2"", ""distractor3"")",Rückhalt,msaada,s,muhula,auwali,kiwimbe,NA,NA,NA,NA,NA,NA,NA,NA,NA,NA,NA,NA,NA,NA,NA,NA,NA,NA,NA,NA,NA,NA,NA
c9347,task,flow.Sequence,1_1_0,NA,NA,completion,16040.5,29400.4,29402.4,29419.2,45459.7,45462,2024-06-09T12:44:56Z,45476.6,"c(""distractor1"", ""distractor2"", ""distractor3"")",Rückhalt,msaada,s,muhula,auwali,kiwimbe,NA,NA,NA,NA,NA,NA,NA,NA,NA,NA,NA,NA,NA,NA,NA,NA,NA,NA,NA,NA,NA,NA,NA
c9347,deep,flow.Sequence,1_1_1_0,NA,NA,skipped,NA,45462.2,NA,NA,45459.7,45462.5,2024-06-09T12:44:56Z,45476.6,"c(""distractor1"", ""distractor2"", ""distractor3"")",Gegenwart,hadhara,s,katiba,jokofu,mikopo,NA,NA,NA,NA,NA,NA,NA,NA,NA,NA,NA,NA,NA,NA,NA,NA,NA,NA,NA,NA,NA,NA,NA
c9347,Shallow Question,html.Page,1_1_1_1_0,NA,NA,form submission,5526.7000000003,45462.7,45459.7,45476.6,51003.3,51003.6,2024-06-09T12:45:02Z,51022.8,"c(""distractor1"", ""distractor2"", ""distractor3"")",Gegenwart,hadhara,s,katiba,jokofu,mikopo,hadhara,NA,NA,NA,NA,NA,NA,NA,NA,NA,NA,NA,NA,NA,NA,NA,NA,NA,NA,NA,NA,NA,NA
c9347,"""Richtig""-Screen",canvas.Screen,1_1_1_1_1,NA,NA,timeout,4997.5,51005,51006.76,51022.8,56003.3,56004.5,2024-06-09T12:45:07Z,56020.3,"c(""distractor1"", ""distractor2"", ""distractor3"")",Gegenwart,hadhara,s,katiba,jokofu,mikopo,NA,NA,1,NA,NA,NA,NA,NA,NA,NA,NA,NA,NA,NA,NA,NA,NA,NA,NA,NA,NA,NA,NA
c9347,"""Falsch""-Screen",canvas.Screen,1_1_1_1_2,NA,NA,skipped,NA,56006.9,NA,NA,56003.3,56007.2,2024-06-09T12:45:07Z,56020.3,"c(""distractor1"", ""distractor2"", ""distractor3"")",Gegenwart,hadhara,s,katiba,jokofu,mikopo,NA,NA,NA,NA,NA,NA,NA,NA,NA,NA,NA,NA,NA,NA,NA,NA,NA,NA,NA,NA,NA,NA,NA
c9347,shallow,flow.Sequence,1_1_1_1,NA,NA,completion,10526.7,45462.6,45459.7,45476.6,56003.3,56007.6,2024-06-09T12:45:07Z,56020.3,"c(""distractor1"", ""distractor2"", ""distractor3"")",Gegenwart,hadhara,s,katiba,jokofu,mikopo,NA,NA,NA,NA,NA,NA,NA,NA,NA,NA,NA,NA,NA,NA,NA,NA,NA,NA,NA,NA,NA,NA,NA
c9347,task,flow.Sequence,1_1_1,NA,NA,completion,10526.7,45462.2,45459.7,45476.6,56003.3,56007.9,2024-06-09T12:45:07Z,56020.3,"c(""distractor1"", ""distractor2"", ""distractor3"")",Gegenwart,hadhara,s,katiba,jokofu,mikopo,NA,NA,NA,NA,NA,NA,NA,NA,NA,NA,NA,NA,NA,NA,NA,NA,NA,NA,NA,NA,NA,NA,NA
c9347,deep,flow.Sequence,1_1_2_0,NA,NA,skipped,NA,56008.1,NA,NA,56003.3,56008.2,2024-06-09T12:45:07Z,56020.3,"c(""distractor1"", ""distractor2"", ""distractor3"")",Kritik,lawama,s,dereva,nafasi,mawazo,NA,NA,NA,NA,NA,NA,NA,NA,NA,NA,NA,NA,NA,NA,NA,NA,NA,NA,NA,NA,NA,NA,NA
c9347,Shallow Question,html.Page,1_1_2_1_0,NA,NA,form submission,5160.4000000002,56008.4,56003.3,56020.3,61180.7,61180.9,2024-06-09T12:45:12Z,61183.924,"c(""distractor1"", ""distractor2"", ""distractor3"")",Kritik,lawama,s,dereva,nafasi,mawazo,mawazo,NA,NA,NA,NA,NA,NA,NA,NA,NA,NA,NA,NA,NA,NA,NA,NA,NA,NA,NA,NA,NA,NA
c9347,"""Richtig""-Screen",canvas.Screen,1_1_2_1_1,NA,NA,skipped,NA,61181.8,NA,NA,61180.7,61182,2024-06-09T12:45:12Z,61183.924,"c(""distractor1"", ""distractor2"", ""distractor3"")",Kritik,lawama,s,dereva,nafasi,mawazo,NA,NA,NA,NA,NA,NA,NA,NA,NA,NA,NA,NA,NA,NA,NA,NA,NA,NA,NA,NA,NA,NA,NA
c9347,"""Falsch""-Screen",canvas.Screen,1_1_2_1_2,NA,NA,timeout,4996.676,61182.9,61183.924,61183.924,66164,66165.2,2024-06-09T12:45:17Z,66180.6,"c(""distractor1"", ""distractor2"", ""distractor3"")",Kritik,lawama,s,dereva,nafasi,mawazo,NA,NA,0,NA,NA,NA,NA,NA,NA,NA,NA,NA,NA,NA,NA,NA,NA,NA,NA,NA,NA,NA,NA
c9347,shallow,flow.Sequence,1_1_2_1,NA,NA,completion,10143.7,56008.4,56003.3,56020.3,66164,66165.5,2024-06-09T12:45:17Z,66180.6,"c(""distractor1"", ""distractor2"", ""distractor3"")",Kritik,lawama,s,dereva,nafasi,mawazo,NA,NA,NA,NA,NA,NA,NA,NA,NA,NA,NA,NA,NA,NA,NA,NA,NA,NA,NA,NA,NA,NA,NA
c9347,task,flow.Sequence,1_1_2,NA,NA,completion,10143.7,56008,56003.3,56020.3,66164,66165.8,2024-06-09T12:45:17Z,66180.6,"c(""distractor1"", ""distractor2"", ""distractor3"")",Kritik,lawama,s,dereva,nafasi,mawazo,NA,NA,NA,NA,NA,NA,NA,NA,NA,NA,NA,NA,NA,NA,NA,NA,NA,NA,NA,NA,NA,NA,NA
c9347,Deep Question,html.Page,1_1_3_0_0,NA,NA,form submission,6809.5000000001,66166.1,66164,66180.6,72990.1,72990.3,2024-06-09T12:45:23Z,72994.254,"c(""distractor1"", ""distractor2"", ""distractor3"")",Qualität,mtindo,d,NA,NA,NA,qualität,NA,NA,NA,NA,NA,NA,NA,NA,NA,NA,NA,NA,NA,NA,NA,NA,NA,NA,NA,NA,NA,NA
c9347,"""Richtig""-Screen",canvas.Screen,1_1_3_0_1,NA,NA,skipped,NA,72993.5,NA,NA,72990.1,72993.7,2024-06-09T12:45:24Z,72994.254,"c(""distractor1"", ""distractor2"", ""distractor3"")",Qualität,mtindo,d,NA,NA,NA,NA,NA,NA,NA,NA,NA,NA,NA,NA,NA,NA,NA,NA,NA,NA,NA,NA,NA,NA,NA,NA,NA,NA
c9347,"""Falsch""-Screen",canvas.Screen,1_1_3_0_2,NA,NA,timeout,4996.046,72994.7,72994.254,72994.254,77973.2,77974.1,2024-06-09T12:45:28Z,77990.3,"c(""distractor1"", ""distractor2"", ""distractor3"")",Qualität,mtindo,d,NA,NA,NA,NA,NA,0,NA,NA,NA,NA,NA,NA,NA,NA,NA,NA,NA,NA,NA,NA,NA,NA,NA,NA,NA,NA
c9347,deep,flow.Sequence,1_1_3_0,NA,NA,completion,11792.6,66166,66164,66180.6,77973.2,77974.4,2024-06-09T12:45:28Z,77990.3,"c(""distractor1"", ""distractor2"", ""distractor3"")",Qualität,mtindo,d,NA,NA,NA,NA,NA,NA,NA,NA,NA,NA,NA,NA,NA,NA,NA,NA,NA,NA,NA,NA,NA,NA,NA,NA,NA,NA
c9347,shallow,flow.Sequence,1_1_3_1,NA,NA,skipped,NA,77974.5,NA,NA,77973.2,77974.7,2024-06-09T12:45:28Z,77990.3,"c(""distractor1"", ""distractor2"", ""distractor3"")",Qualität,mtindo,d,NA,NA,NA,NA,NA,NA,NA,NA,NA,NA,NA,NA,NA,NA,NA,NA,NA,NA,NA,NA,NA,NA,NA,NA,NA,NA
c9347,task,flow.Sequence,1_1_3,NA,NA,completion,11792.6,66165.9,66164,66180.6,77973.2,77974.9,2024-06-09T12:45:28Z,77990.3,"c(""distractor1"", ""distractor2"", ""distractor3"")",Qualität,mtindo,d,NA,NA,NA,NA,NA,NA,NA,NA,NA,NA,NA,NA,NA,NA,NA,NA,NA,NA,NA,NA,NA,NA,NA,NA,NA,NA
c9347,Deep Question,html.Page,1_1_4_0_0,NA,NA,form submission,2605.2,77975.1,77973.2,77990.3,80595.5,80595.8,2024-06-09T12:45:31Z,80604.7,"c(""distractor1"", ""distractor2"", ""distractor3"")",Gesundheit,salama,d,NA,NA,NA,gesundheit,NA,NA,NA,NA,NA,NA,NA,NA,NA,NA,NA,NA,NA,NA,NA,NA,NA,NA,NA,NA,NA,NA
c9347,"""Richtig""-Screen",canvas.Screen,1_1_4_0_1,NA,NA,skipped,NA,80598.8,NA,NA,80595.5,80598.9,2024-06-09T12:45:31Z,80604.7,"c(""distractor1"", ""distractor2"", ""distractor3"")",Gesundheit,salama,d,NA,NA,NA,NA,NA,NA,NA,NA,NA,NA,NA,NA,NA,NA,NA,NA,NA,NA,NA,NA,NA,NA,NA,NA,NA,NA
c9347,"""Falsch""-Screen",canvas.Screen,1_1_4_0_2,NA,NA,timeout,4997.2,80600.1,80590.788,80604.7,85585.5,85586.3,2024-06-09T12:45:36Z,85601.9,"c(""distractor1"", ""distractor2"", ""distractor3"")",Gesundheit,salama,d,NA,NA,NA,NA,NA,0,NA,NA,NA,NA,NA,NA,NA,NA,NA,NA,NA,NA,NA,NA,NA,NA,NA,NA,NA,NA
c9347,deep,flow.Sequence,1_1_4_0,NA,NA,completion,7595.2,77975,77973.2,77990.3,85585.5,85586.7,2024-06-09T12:45:36Z,85601.9,"c(""distractor1"", ""distractor2"", ""distractor3"")",Gesundheit,salama,d,NA,NA,NA,NA,NA,NA,NA,NA,NA,NA,NA,NA,NA,NA,NA,NA,NA,NA,NA,NA,NA,NA,NA,NA,NA,NA
c9347,shallow,flow.Sequence,1_1_4_1,NA,NA,skipped,NA,85586.9,NA,NA,85585.5,85587,2024-06-09T12:45:36Z,85601.9,"c(""distractor1"", ""distractor2"", ""distractor3"")",Gesundheit,salama,d,NA,NA,NA,NA,NA,NA,NA,NA,NA,NA,NA,NA,NA,NA,NA,NA,NA,NA,NA,NA,NA,NA,NA,NA,NA,NA
c9347,task,flow.Sequence,1_1_4,NA,NA,completion,7595.2,77975,77973.2,77990.3,85585.5,85587.2,2024-06-09T12:45:36Z,85601.9,"c(""distractor1"", ""distractor2"", ""distractor3"")",Gesundheit,salama,d,NA,NA,NA,NA,NA,NA,NA,NA,NA,NA,NA,NA,NA,NA,NA,NA,NA,NA,NA,NA,NA,NA,NA,NA,NA,NA
c9347,Deep Question,html.Page,1_1_5_0_0,NA,NA,form submission,3076.8000000002,85587.4,85585.5,85601.9,88678.7,88678.8,2024-06-09T12:45:39Z,88683.2,"c(""distractor1"", ""distractor2"", ""distractor3"")",Schatten,kivuli,d,NA,NA,NA,schatten,NA,NA,NA,NA,NA,NA,NA,NA,NA,NA,NA,NA,NA,NA,NA,NA,NA,NA,NA,NA,NA,NA
c9347,"""Richtig""-Screen",canvas.Screen,1_1_5_0_1,NA,NA,skipped,NA,88682.1,NA,NA,88678.7,88682.2,2024-06-09T12:45:39Z,88683.2,"c(""distractor1"", ""distractor2"", ""distractor3"")",Schatten,kivuli,d,NA,NA,NA,NA,NA,NA,NA,NA,NA,NA,NA,NA,NA,NA,NA,NA,NA,NA,NA,NA,NA,NA,NA,NA,NA,NA
c9347,"""Falsch""-Screen",canvas.Screen,1_1_5_0_2,NA,NA,timeout,4997.2,88683,88667.96,88683.2,93663.5,93664.7,2024-06-09T12:45:44Z,93680.4,"c(""distractor1"", ""distractor2"", ""distractor3"")",Schatten,kivuli,d,NA,NA,NA,NA,NA,0,NA,NA,NA,NA,NA,NA,NA,NA,NA,NA,NA,NA,NA,NA,NA,NA,NA,NA,NA,NA
c9347,deep,flow.Sequence,1_1_5_0,NA,NA,completion,8061.6,85587.3,85585.5,85601.9,93663.5,93665.1,2024-06-09T12:45:44Z,93680.4,"c(""distractor1"", ""distractor2"", ""distractor3"")",Schatten,kivuli,d,NA,NA,NA,NA,NA,NA,NA,NA,NA,NA,NA,NA,NA,NA,NA,NA,NA,NA,NA,NA,NA,NA,NA,NA,NA,NA
c9347,shallow,flow.Sequence,1_1_5_1,NA,NA,skipped,NA,93665.3,NA,NA,93663.5,93665.4,2024-06-09T12:45:44Z,93680.4,"c(""distractor1"", ""distractor2"", ""distractor3"")",Schatten,kivuli,d,NA,NA,NA,NA,NA,NA,NA,NA,NA,NA,NA,NA,NA,NA,NA,NA,NA,NA,NA,NA,NA,NA,NA,NA,NA,NA
c9347,task,flow.Sequence,1_1_5,NA,NA,completion,8061.6,85587.3,85585.5,85601.9,93663.5,93665.7,2024-06-09T12:45:44Z,93680.4,"c(""distractor1"", ""distractor2"", ""distractor3"")",Schatten,kivuli,d,NA,NA,NA,NA,NA,NA,NA,NA,NA,NA,NA,NA,NA,NA,NA,NA,NA,NA,NA,NA,NA,NA,NA,NA,NA,NA
c9347,block,flow.Loop,1_1,NA,NA,completion,64244.3,29400.4,29402.4,29419.2,93663.5,93666,2024-06-09T12:45:44Z,93680.4,"c(""distractor1"", ""distractor2"", ""distractor3"")",NA,NA,NA,NA,NA,NA,NA,NA,NA,NA,NA,NA,NA,NA,NA,NA,NA,NA,NA,NA,NA,NA,NA,NA,NA,NA,NA,NA,NA
c9347,Practice,flow.Sequence,1,NA,NA,completion,67424.5,26219.8,26205.76,26239,93663.5,93666.3,2024-06-09T12:45:44Z,93680.4,NULL,NA,NA,NA,NA,NA,NA,NA,NA,NA,NA,NA,NA,NA,NA,NA,NA,NA,NA,NA,NA,NA,NA,NA,NA,NA,NA,NA,NA,NA
c9347,Experiment start,canvas.Screen,2,weiter,keypress(q),response,8870.3000000002,93666.5,93663.5,93680.4,102550.7,102551.7,2024-06-09T12:45:53Z,102624.7,NULL,NA,NA,NA,NA,NA,NA,NA,NA,NA,NA,NA,NA,NA,NA,NA,NA,NA,NA,NA,NA,NA,NA,NA,NA,NA,NA,NA,NA,NA
c9347,Deep Question,html.Page,3_0_0_0_0_0_0,NA,NA,form submission,3451.1000000003,102610.9,102608.73,102624.7,106075.8,106076,2024-06-09T12:45:57Z,106089.5,NULL,Fenster,dirisha,d,NA,NA,NA,Fenster,NA,NA,0,NA,NA,NA,NA,NA,NA,NA,NA,NA,NA,NA,NA,NA,NA,NA,NA,NA,NA,NA
c9347,"""Richtig""-Screen",canvas.Screen,3_0_0_0_0_0_1,NA,NA,skipped,NA,106077.1,NA,NA,106075.8,106077.2,2024-06-09T12:45:57Z,106089.5,NULL,Fenster,dirisha,d,NA,NA,NA,NA,sdf,NA,0,NA,NA,NA,NA,NA,NA,NA,NA,NA,NA,NA,NA,NA,NA,NA,NA,NA,NA,NA
c9347,"""Falsch""-Screen",canvas.Screen,3_0_0_0_0_0_2,NA,NA,timeout,4997.1,106077.9,106074.986,106089.5,111069.9,111070.7,2024-06-09T12:46:02Z,111086.6,NULL,Fenster,dirisha,d,NA,NA,NA,NA,sdf,0,0,NA,NA,NA,NA,NA,NA,NA,NA,NA,NA,NA,NA,NA,NA,NA,NA,NA,NA,NA
c9347,deep,flow.Sequence,3_0_0_0_0_0,NA,NA,completion,8445.2,102610.9,102608.73,102624.7,111069.9,111071.1,2024-06-09T12:46:02Z,111086.6,NULL,Fenster,dirisha,d,NA,NA,NA,NA,sdf,NA,0,NA,NA,NA,NA,NA,NA,NA,NA,NA,NA,NA,NA,NA,NA,NA,NA,NA,NA,NA
c9347,shallow,flow.Sequence,3_0_0_0_0_1,NA,NA,skipped,NA,111071.1,NA,NA,111069.9,111071.2,2024-06-09T12:46:02Z,111086.6,NULL,Fenster,dirisha,d,NA,NA,NA,NA,sdf,NA,0,NA,NA,NA,NA,NA,NA,NA,NA,NA,NA,NA,NA,NA,NA,NA,NA,NA,NA,NA
c9347,task,flow.Sequence,3_0_0_0_0,NA,NA,completion,8445.2,102610.9,102608.73,102624.7,111069.9,111071.5,2024-06-09T12:46:02Z,111086.6,NULL,Fenster,dirisha,d,NA,NA,NA,NA,sdf,NA,0,NA,NA,NA,NA,NA,NA,NA,NA,NA,NA,NA,NA,NA,NA,NA,NA,NA,NA,NA
c9347,deep,flow.Sequence,3_0_0_0_1_0,NA,NA,skipped,NA,111071.6,NA,NA,111069.9,111071.6,2024-06-09T12:46:02Z,111086.6,NULL,Schüler,mwanafunzi,s,mwekezaji,matumizi,uaminifu,NA,sdf,NA,0,NA,NA,NA,NA,NA,NA,NA,NA,NA,NA,NA,NA,NA,NA,NA,NA,NA,NA,NA
c9347,Shallow Question,html.Page,3_0_0_0_1_1_0,NA,NA,form submission,14664.6,111071.8,111069.9,111086.6,125751.2,125751.4,2024-06-09T12:46:16Z,125760.5,NULL,Schüler,mwanafunzi,s,mwekezaji,matumizi,uaminifu,mwanafunzi,NA,NA,0,NA,NA,NA,NA,NA,NA,NA,NA,NA,NA,NA,NA,NA,NA,NA,NA,NA,NA,NA
c9347,"""Richtig""-Screen",canvas.Screen,3_0_0_0_1_1_1,NA,NA,timeout,4997.6,125754.6,125744.228,125760.5,130740.9,130741.8,2024-06-09T12:46:21Z,130758.1,NULL,Schüler,mwanafunzi,s,mwekezaji,matumizi,uaminifu,NA,sdf,1,0,NA,NA,NA,NA,NA,NA,NA,NA,NA,NA,NA,NA,NA,NA,NA,NA,NA,NA,NA
c9347,"""Falsch""-Screen",canvas.Screen,3_0_0_0_1_1_2,NA,NA,skipped,NA,130746.8,NA,NA,130740.9,130747,2024-06-09T12:46:21Z,130758.1,NULL,Schüler,mwanafunzi,s,mwekezaji,matumizi,uaminifu,NA,sdf,NA,0,NA,NA,NA,NA,NA,NA,NA,NA,NA,NA,NA,NA,NA,NA,NA,NA,NA,NA,NA
c9347,shallow,flow.Sequence,3_0_0_0_1_1,NA,NA,completion,19654.3,111071.8,111069.9,111086.6,130740.9,130747.1,2024-06-09T12:46:21Z,130758.1,NULL,Schüler,mwanafunzi,s,mwekezaji,matumizi,uaminifu,NA,sdf,NA,0,NA,NA,NA,NA,NA,NA,NA,NA,NA,NA,NA,NA,NA,NA,NA,NA,NA,NA,NA
c9347,task,flow.Sequence,3_0_0_0_1,NA,NA,completion,19654.3,111071.6,111069.9,111086.6,130740.9,130747.1,2024-06-09T12:46:21Z,130758.1,NULL,Schüler,mwanafunzi,s,mwekezaji,matumizi,uaminifu,NA,sdf,NA,0,NA,NA,NA,NA,NA,NA,NA,NA,NA,NA,NA,NA,NA,NA,NA,NA,NA,NA,NA
c9347,deep,flow.Sequence,3_0_0_0_2_0,NA,NA,skipped,NA,130747.1,NA,NA,130740.9,130747.2,2024-06-09T12:46:21Z,130758.1,NULL,Niveau,kiwango,s,usimamizi,mwamali,mshairi,NA,sdf,NA,0,NA,NA,NA,NA,NA,NA,NA,NA,NA,NA,NA,NA,NA,NA,NA,NA,NA,NA,NA
c9347,Shallow Question,html.Page,3_0_0_0_2_1_0,NA,NA,form submission,7641.2999999999,130747.3,130740.9,130758.1,138399.4,138399.6,2024-06-09T12:46:29Z,138403.058,NULL,Niveau,kiwango,s,usimamizi,mwamali,mshairi,kiwango,NA,NA,0,NA,NA,NA,NA,NA,NA,NA,NA,NA,NA,NA,NA,NA,NA,NA,NA,NA,NA,NA
c9347,"""Richtig""-Screen",canvas.Screen,3_0_0_0_2_1_1,NA,NA,timeout,4997.342,138402.7,138403.058,138403.058,143383.4,143384,2024-06-09T12:46:34Z,143400.4,NULL,Niveau,kiwango,s,usimamizi,mwamali,mshairi,NA,sdf,1,0,NA,NA,NA,NA,NA,NA,NA,NA,NA,NA,NA,NA,NA,NA,NA,NA,NA,NA,NA
c9347,"""Falsch""-Screen",canvas.Screen,3_0_0_0_2_1_2,NA,NA,skipped,NA,143386,NA,NA,143383.4,143386.1,2024-06-09T12:46:34Z,143400.4,NULL,Niveau,kiwango,s,usimamizi,mwamali,mshairi,NA,sdf,NA,0,NA,NA,NA,NA,NA,NA,NA,NA,NA,NA,NA,NA,NA,NA,NA,NA,NA,NA,NA
c9347,shallow,flow.Sequence,3_0_0_0_2_1,NA,NA,completion,12625.3,130747.2,130740.9,130758.1,143383.4,143386.2,2024-06-09T12:46:34Z,143400.4,NULL,Niveau,kiwango,s,usimamizi,mwamali,mshairi,NA,sdf,NA,0,NA,NA,NA,NA,NA,NA,NA,NA,NA,NA,NA,NA,NA,NA,NA,NA,NA,NA,NA
c9347,task,flow.Sequence,3_0_0_0_2,NA,NA,completion,12625.3,130747.1,130740.9,130758.1,143383.4,143386.3,2024-06-09T12:46:34Z,143400.4,NULL,Niveau,kiwango,s,usimamizi,mwamali,mshairi,NA,sdf,NA,0,NA,NA,NA,NA,NA,NA,NA,NA,NA,NA,NA,NA,NA,NA,NA,NA,NA,NA,NA
c9347,deep,flow.Sequence,3_0_0_0_3_0,NA,NA,skipped,NA,143386.3,NA,NA,143383.4,143386.4,2024-06-09T12:46:34Z,143400.4,NULL,Papier,karatasi,s,uchambuzi,usalama,kukataliwa,NA,sdf,NA,0,NA,NA,NA,NA,NA,NA,NA,NA,NA,NA,NA,NA,NA,NA,NA,NA,NA,NA,NA
c9347,Shallow Question,html.Page,3_0_0_0_3_1_0,NA,NA,form submission,4512.9999999999,143386.5,143383.4,143400.4,147913.4,147913.6,2024-06-09T12:46:38Z,147931.5,NULL,Papier,karatasi,s,uchambuzi,usalama,kukataliwa,usalama,NA,NA,0,NA,NA,NA,NA,NA,NA,NA,NA,NA,NA,NA,NA,NA,NA,NA,NA,NA,NA,NA
c9347,"""Richtig""-Screen",canvas.Screen,3_0_0_0_3_1_1,NA,NA,skipped,NA,147916.7,NA,NA,147913.4,147916.9,2024-06-09T12:46:38Z,147931.5,NULL,Papier,karatasi,s,uchambuzi,usalama,kukataliwa,NA,sdf,NA,0,NA,NA,NA,NA,NA,NA,NA,NA,NA,NA,NA,NA,NA,NA,NA,NA,NA,NA,NA
c9347,"""Falsch""-Screen",canvas.Screen,3_0_0_0_3_1_2,NA,NA,timeout,4996.3,147917.5,147914.358,147931.5,152910.7,152911.7,2024-06-09T12:46:43Z,152927.8,NULL,Papier,karatasi,s,uchambuzi,usalama,kukataliwa,NA,sdf,0,0,NA,NA,NA,NA,NA,NA,NA,NA,NA,NA,NA,NA,NA,NA,NA,NA,NA,NA,NA
c9347,shallow,flow.Sequence,3_0_0_0_3_1,NA,NA,completion,9510.3,143386.5,143383.4,143400.4,152910.7,152912.2,2024-06-09T12:46:43Z,152927.8,NULL,Papier,karatasi,s,uchambuzi,usalama,kukataliwa,NA,sdf,NA,0,NA,NA,NA,NA,NA,NA,NA,NA,NA,NA,NA,NA,NA,NA,NA,NA,NA,NA,NA
c9347,task,flow.Sequence,3_0_0_0_3,NA,NA,completion,9510.3,143386.3,143383.4,143400.4,152910.7,152912.3,2024-06-09T12:46:43Z,152927.8,NULL,Papier,karatasi,s,uchambuzi,usalama,kukataliwa,NA,sdf,NA,0,NA,NA,NA,NA,NA,NA,NA,NA,NA,NA,NA,NA,NA,NA,NA,NA,NA,NA,NA
c9347,Deep Question,html.Page,3_0_0_0_4_0_0,NA,NA,form submission,7788.0999999999,152912.6,152910.7,152927.8,160715.9,160716,2024-06-09T12:46:51Z,160722.6,NULL,Vorwurf,mashtaka,d,NA,NA,NA,Vorwurf,NA,NA,0,NA,NA,NA,NA,NA,NA,NA,NA,NA,NA,NA,NA,NA,NA,NA,NA,NA,NA,NA
c9347,"""Richtig""-Screen",canvas.Screen,3_0_0_0_4_0_1,NA,NA,skipped,NA,160719.2,NA,NA,160715.9,160719.3,2024-06-09T12:46:51Z,160722.6,NULL,Vorwurf,mashtaka,d,NA,NA,NA,NA,sdf,NA,0,NA,NA,NA,NA,NA,NA,NA,NA,NA,NA,NA,NA,NA,NA,NA,NA,NA,NA,NA
c9347,"""Falsch""-Screen",canvas.Screen,3_0_0_0_4_0_2,NA,NA,timeout,4997.1,160720.1,160707.068,160722.6,165703.2,165704.6,2024-06-09T12:46:56Z,165719.7,NULL,Vorwurf,mashtaka,d,NA,NA,NA,NA,sdf,0,0,NA,NA,NA,NA,NA,NA,NA,NA,NA,NA,NA,NA,NA,NA,NA,NA,NA,NA,NA
c9347,deep,flow.Sequence,3_0_0_0_4_0,NA,NA,completion,12775.4,152912.6,152910.7,152927.8,165703.2,165704.9,2024-06-09T12:46:56Z,165719.7,NULL,Vorwurf,mashtaka,d,NA,NA,NA,NA,sdf,NA,0,NA,NA,NA,NA,NA,NA,NA,NA,NA,NA,NA,NA,NA,NA,NA,NA,NA,NA,NA
c9347,shallow,flow.Sequence,3_0_0_0_4_1,NA,NA,skipped,NA,165705.1,NA,NA,165703.2,165705.3,2024-06-09T12:46:56Z,165719.7,NULL,Vorwurf,mashtaka,d,NA,NA,NA,NA,sdf,NA,0,NA,NA,NA,NA,NA,NA,NA,NA,NA,NA,NA,NA,NA,NA,NA,NA,NA,NA,NA
c9347,task,flow.Sequence,3_0_0_0_4,NA,NA,completion,12775.4,152912.5,152910.7,152927.8,165703.2,165705.5,2024-06-09T12:46:56Z,165719.7,NULL,Vorwurf,mashtaka,d,NA,NA,NA,NA,sdf,NA,0,NA,NA,NA,NA,NA,NA,NA,NA,NA,NA,NA,NA,NA,NA,NA,NA,NA,NA,NA
c9347,deep,flow.Sequence,3_0_0_0_5_0,NA,NA,skipped,NA,165705.6,NA,NA,165703.2,165705.7,2024-06-09T12:46:56Z,165719.7,NULL,Tester,wanaojaribu,s,sherti,sihiri,mlipuko,NA,sdf,NA,0,NA,NA,NA,NA,NA,NA,NA,NA,NA,NA,NA,NA,NA,NA,NA,NA,NA,NA,NA
c9347,Shallow Question,html.Page,3_0_0_0_5_1_0,NA,NA,form submission,7853.4000000001,165705.8,165703.2,165719.7,173573.1,173573.4,2024-06-09T12:47:04Z,173581.3,NULL,Tester,wanaojaribu,s,sherti,sihiri,mlipuko,sihiri,NA,NA,0,NA,NA,NA,NA,NA,NA,NA,NA,NA,NA,NA,NA,NA,NA,NA,NA,NA,NA,NA
c9347,"""Richtig""-Screen",canvas.Screen,3_0_0_0_5_1_1,NA,NA,skipped,NA,173576.4,NA,NA,173573.1,173576.5,2024-06-09T12:47:04Z,173581.3,NULL,Tester,wanaojaribu,s,sherti,sihiri,mlipuko,NA,sdf,NA,0,NA,NA,NA,NA,NA,NA,NA,NA,NA,NA,NA,NA,NA,NA,NA,NA,NA,NA,NA
c9347,"""Falsch""-Screen",canvas.Screen,3_0_0_0_5_1_2,NA,NA,timeout,4997.3,173577.2,173565.36,173581.3,178561.7,178563.8,2024-06-09T12:47:09Z,178578.6,NULL,Tester,wanaojaribu,s,sherti,sihiri,mlipuko,NA,sdf,0,0,NA,NA,NA,NA,NA,NA,NA,NA,NA,NA,NA,NA,NA,NA,NA,NA,NA,NA,NA
c9347,shallow,flow.Sequence,3_0_0_0_5_1,NA,NA,completion,12842,165705.8,165703.2,165719.7,178561.7,178564.1,2024-06-09T12:47:09Z,178578.6,NULL,Tester,wanaojaribu,s,sherti,sihiri,mlipuko,NA,sdf,NA,0,NA,NA,NA,NA,NA,NA,NA,NA,NA,NA,NA,NA,NA,NA,NA,NA,NA,NA,NA
c9347,task,flow.Sequence,3_0_0_0_5,NA,NA,completion,12842,165705.6,165703.2,165719.7,178561.7,178564.3,2024-06-09T12:47:09Z,178578.6,NULL,Tester,wanaojaribu,s,sherti,sihiri,mlipuko,NA,sdf,NA,0,NA,NA,NA,NA,NA,NA,NA,NA,NA,NA,NA,NA,NA,NA,NA,NA,NA,NA,NA
c9347,Deep Question,html.Page,3_0_0_0_6_0_0,NA,NA,form submission,5550.5000000001,178564.5,178561.7,178578.6,184129.1,184129.3,2024-06-09T12:47:15Z,184141.6,NULL,Spionage,upelelezi,d,NA,NA,NA,spionage,NA,NA,0,NA,NA,NA,NA,NA,NA,NA,NA,NA,NA,NA,NA,NA,NA,NA,NA,NA,NA,NA
c9347,"""Richtig""-Screen",canvas.Screen,3_0_0_0_6_0_1,NA,NA,skipped,NA,184132.8,NA,NA,184129.1,184132.8,2024-06-09T12:47:15Z,184141.6,NULL,Spionage,upelelezi,d,NA,NA,NA,NA,sdf,NA,0,NA,NA,NA,NA,NA,NA,NA,NA,NA,NA,NA,NA,NA,NA,NA,NA,NA,NA,NA
c9347,"""Falsch""-Screen",canvas.Screen,3_0_0_0_6_0_2,NA,NA,timeout,4997.2,184133.2,184125.618,184141.6,189122.1,189122.9,2024-06-09T12:47:20Z,189138.8,NULL,Spionage,upelelezi,d,NA,NA,NA,NA,sdf,0,0,NA,NA,NA,NA,NA,NA,NA,NA,NA,NA,NA,NA,NA,NA,NA,NA,NA,NA,NA
c9347,deep,flow.Sequence,3_0_0_0_6_0,NA,NA,completion,10543.5,178564.5,178561.7,178578.6,189122.1,189123.2,2024-06-09T12:47:20Z,189138.8,NULL,Spionage,upelelezi,d,NA,NA,NA,NA,sdf,NA,0,NA,NA,NA,NA,NA,NA,NA,NA,NA,NA,NA,NA,NA,NA,NA,NA,NA,NA,NA
c9347,shallow,flow.Sequence,3_0_0_0_6_1,NA,NA,skipped,NA,189123.3,NA,NA,189122.1,189123.5,2024-06-09T12:47:20Z,189138.8,NULL,Spionage,upelelezi,d,NA,NA,NA,NA,sdf,NA,0,NA,NA,NA,NA,NA,NA,NA,NA,NA,NA,NA,NA,NA,NA,NA,NA,NA,NA,NA
c9347,task,flow.Sequence,3_0_0_0_6,NA,NA,completion,10543.5,178564.4,178561.7,178578.6,189122.1,189123.6,2024-06-09T12:47:20Z,189138.8,NULL,Spionage,upelelezi,d,NA,NA,NA,NA,sdf,NA,0,NA,NA,NA,NA,NA,NA,NA,NA,NA,NA,NA,NA,NA,NA,NA,NA,NA,NA,NA
c9347,Deep Question,html.Page,3_0_0_0_7_0_0,NA,NA,form submission,6824.0999999999,189123.8,189122.1,189138.8,195962.9,195963.1,2024-06-09T12:47:26Z,195969.626,NULL,Entwicklung,maendeleo,d,NA,NA,NA,entwicklung,NA,NA,0,NA,NA,NA,NA,NA,NA,NA,NA,NA,NA,NA,NA,NA,NA,NA,NA,NA,NA,NA
c9347,"""Richtig""-Screen",canvas.Screen,3_0_0_0_7_0_1,NA,NA,skipped,NA,195966.1,NA,NA,195962.9,195966.2,2024-06-09T12:47:26Z,195969.626,NULL,Entwicklung,maendeleo,d,NA,NA,NA,NA,sdf,NA,0,NA,NA,NA,NA,NA,NA,NA,NA,NA,NA,NA,NA,NA,NA,NA,NA,NA,NA,NA
c9347,"""Falsch""-Screen",canvas.Screen,3_0_0_0_7_0_2,NA,NA,timeout,4994.974,195967,195969.626,195969.626,200948,200948.4,2024-06-09T12:47:31Z,200964.6,NULL,Entwicklung,maendeleo,d,NA,NA,NA,NA,sdf,0,0,NA,NA,NA,NA,NA,NA,NA,NA,NA,NA,NA,NA,NA,NA,NA,NA,NA,NA,NA
c9347,deep,flow.Sequence,3_0_0_0_7_0,NA,NA,completion,11809.2,189123.8,189122.1,189138.8,200948,200948.5,2024-06-09T12:47:31Z,200964.6,NULL,Entwicklung,maendeleo,d,NA,NA,NA,NA,sdf,NA,0,NA,NA,NA,NA,NA,NA,NA,NA,NA,NA,NA,NA,NA,NA,NA,NA,NA,NA,NA
c9347,shallow,flow.Sequence,3_0_0_0_7_1,NA,NA,skipped,NA,200948.6,NA,NA,200948,200948.6,2024-06-09T12:47:31Z,200964.6,NULL,Entwicklung,maendeleo,d,NA,NA,NA,NA,sdf,NA,0,NA,NA,NA,NA,NA,NA,NA,NA,NA,NA,NA,NA,NA,NA,NA,NA,NA,NA,NA
c9347,task,flow.Sequence,3_0_0_0_7,NA,NA,completion,11809.2,189123.8,189122.1,189138.8,200948,200948.6,2024-06-09T12:47:31Z,200964.6,NULL,Entwicklung,maendeleo,d,NA,NA,NA,NA,sdf,NA,0,NA,NA,NA,NA,NA,NA,NA,NA,NA,NA,NA,NA,NA,NA,NA,NA,NA,NA,NA
c9347,block,flow.Loop,3_0_0_0,NA,NA,completion,98323.3,102610.9,102608.73,102624.7,200948,200948.7,2024-06-09T12:47:31Z,200964.6,NULL,NA,NA,NA,NA,NA,NA,NA,sdf,NA,0,NA,NA,NA,NA,NA,NA,NA,NA,NA,NA,NA,NA,NA,NA,NA,NA,NA,NA,NA
c9347,weiter,canvas.Screen,3_0_0_1,sdf,keypress(Space),response,3457.9,200948.8,200948,200964.6,204422.5,204423.1,2024-06-09T12:47:35Z,204462.5,NULL,NA,NA,NA,NA,NA,NA,NA,sdf,NA,0,NA,NA,NA,NA,NA,NA,NA,NA,NA,NA,NA,NA,NA,NA,NA,NA,NA,NA,NA
c9347,check continue,flow.Sequence,3_0_0,NA,NA,completion,101797.8,102610.9,102608.73,102624.7,204422.5,204423.3,2024-06-09T12:47:35Z,204462.5,NULL,NA,NA,NA,NA,NA,NA,NA,sdf,NA,0,NA,NA,NA,NA,NA,NA,NA,NA,NA,NA,NA,NA,NA,NA,NA,NA,NA,NA,NA
c9347,deep,flow.Sequence,3_0_1_0_0_0,NA,NA,skipped,NA,204458.3,NA,NA,204422.5,204458.4,2024-06-09T12:47:35Z,204462.5,NULL,Tester,wanaojaribu,s,sherti,sihiri,mlipuko,NA,sdfdsf,NA,1,NA,NA,NA,NA,NA,NA,NA,NA,NA,NA,NA,NA,NA,NA,NA,NA,NA,NA,NA
c9347,Shallow Question,html.Page,3_0_1_0_0_1_0,NA,NA,form submission,13114.7,204458.5,204445.794,204462.5,217577.2,217577.5,2024-06-09T12:47:48Z,217587.9,NULL,Tester,wanaojaribu,s,sherti,sihiri,mlipuko,sihiri,NA,NA,1,NA,NA,NA,NA,NA,NA,NA,NA,NA,NA,NA,NA,NA,NA,NA,NA,NA,NA,NA
c9347,"""Richtig""-Screen",canvas.Screen,3_0_1_0_0_1_1,NA,NA,skipped,NA,217580.8,NA,NA,217577.2,217581,2024-06-09T12:47:48Z,217587.9,NULL,Tester,wanaojaribu,s,sherti,sihiri,mlipuko,NA,sdfdsf,NA,1,NA,NA,NA,NA,NA,NA,NA,NA,NA,NA,NA,NA,NA,NA,NA,NA,NA,NA,NA
c9347,"""Falsch""-Screen",canvas.Screen,3_0_1_0_0_1_2,NA,NA,timeout,4997.2,217581.7,217580.028,217587.9,222568.6,222569.6,2024-06-09T12:47:53Z,222585.1,NULL,Tester,wanaojaribu,s,sherti,sihiri,mlipuko,NA,sdfdsf,0,1,NA,NA,NA,NA,NA,NA,NA,NA,NA,NA,NA,NA,NA,NA,NA,NA,NA,NA,NA
c9347,shallow,flow.Sequence,3_0_1_0_0_1,NA,NA,completion,18106.1,204458.5,204445.794,204462.5,222568.6,222570,2024-06-09T12:47:53Z,222585.1,NULL,Tester,wanaojaribu,s,sherti,sihiri,mlipuko,NA,sdfdsf,NA,1,NA,NA,NA,NA,NA,NA,NA,NA,NA,NA,NA,NA,NA,NA,NA,NA,NA,NA,NA
c9347,task,flow.Sequence,3_0_1_0_0,NA,NA,completion,18106.1,204458.3,204445.794,204462.5,222568.6,222570.2,2024-06-09T12:47:53Z,222585.1,NULL,Tester,wanaojaribu,s,sherti,sihiri,mlipuko,NA,sdfdsf,NA,1,NA,NA,NA,NA,NA,NA,NA,NA,NA,NA,NA,NA,NA,NA,NA,NA,NA,NA,NA
c9347,Deep Question,html.Page,3_0_1_0_1_0_0,NA,NA,form submission,4952.6000000002005,222570.4,222568.6,222585.1,227537.7,227537.9,2024-06-09T12:47:58Z,227548.6,NULL,Spionage,upelelezi,d,NA,NA,NA,spionage,NA,NA,1,NA,NA,NA,NA,NA,NA,NA,NA,NA,NA,NA,NA,NA,NA,NA,NA,NA,NA,NA
c9347,"""Richtig""-Screen",canvas.Screen,3_0_1_0_1_0_1,NA,NA,skipped,NA,227540.9,NA,NA,227537.7,227541,2024-06-09T12:47:58Z,227548.6,NULL,Spionage,upelelezi,d,NA,NA,NA,NA,sdfdsf,NA,1,NA,NA,NA,NA,NA,NA,NA,NA,NA,NA,NA,NA,NA,NA,NA,NA,NA,NA,NA
c9347,"""Falsch""-Screen",canvas.Screen,3_0_1_0_1_0_2,NA,NA,timeout,4997.2,227541.9,227534.7,227548.6,232529.2,232530.3,2024-06-09T12:48:03Z,232545.8,NULL,Spionage,upelelezi,d,NA,NA,NA,NA,sdfdsf,0,1,NA,NA,NA,NA,NA,NA,NA,NA,NA,NA,NA,NA,NA,NA,NA,NA,NA,NA,NA
c9347,deep,flow.Sequence,3_0_1_0_1_0,NA,NA,completion,9944.1,222570.3,222568.6,222585.1,232529.2,232530.5,2024-06-09T12:48:03Z,232545.8,NULL,Spionage,upelelezi,d,NA,NA,NA,NA,sdfdsf,NA,1,NA,NA,NA,NA,NA,NA,NA,NA,NA,NA,NA,NA,NA,NA,NA,NA,NA,NA,NA
c9347,shallow,flow.Sequence,3_0_1_0_1_1,NA,NA,skipped,NA,232530.7,NA,NA,232529.2,232530.9,2024-06-09T12:48:03Z,232545.8,NULL,Spionage,upelelezi,d,NA,NA,NA,NA,sdfdsf,NA,1,NA,NA,NA,NA,NA,NA,NA,NA,NA,NA,NA,NA,NA,NA,NA,NA,NA,NA,NA
c9347,task,flow.Sequence,3_0_1_0_1,NA,NA,completion,9944.1,222570.3,222568.6,222585.1,232529.2,232531.1,2024-06-09T12:48:03Z,232545.8,NULL,Spionage,upelelezi,d,NA,NA,NA,NA,sdfdsf,NA,1,NA,NA,NA,NA,NA,NA,NA,NA,NA,NA,NA,NA,NA,NA,NA,NA,NA,NA,NA
c9347,deep,flow.Sequence,3_0_1_0_2_0,NA,NA,skipped,NA,232531.3,NA,NA,232529.2,232531.4,2024-06-09T12:48:03Z,232545.8,NULL,Papier,karatasi,s,uchambuzi,usalama,kukataliwa,NA,sdfdsf,NA,1,NA,NA,NA,NA,NA,NA,NA,NA,NA,NA,NA,NA,NA,NA,NA,NA,NA,NA,NA
c9347,Shallow Question,html.Page,3_0_1_0_2_1_0,NA,NA,form submission,23425.5,232531.5,232529.2,232545.8,255971.3,255971.5,2024-06-09T12:48:26Z,255981.1,NULL,Papier,karatasi,s,uchambuzi,usalama,kukataliwa,karatasi,NA,NA,1,NA,NA,NA,NA,NA,NA,NA,NA,NA,NA,NA,NA,NA,NA,NA,NA,NA,NA,NA
c9347,"""Richtig""-Screen",canvas.Screen,3_0_1_0_2_1_1,NA,NA,timeout,4997.5,255974.5,255965.088,255981.1,260961.7,260963.6,2024-06-09T12:48:31Z,260978.6,NULL,Papier,karatasi,s,uchambuzi,usalama,kukataliwa,NA,sdfdsf,1,1,NA,NA,NA,NA,NA,NA,NA,NA,NA,NA,NA,NA,NA,NA,NA,NA,NA,NA,NA
c9347,"""Falsch""-Screen",canvas.Screen,3_0_1_0_2_1_2,NA,NA,skipped,NA,260968.8,NA,NA,260961.7,260969,2024-06-09T12:48:31Z,260978.6,NULL,Papier,karatasi,s,uchambuzi,usalama,kukataliwa,NA,sdfdsf,NA,1,NA,NA,NA,NA,NA,NA,NA,NA,NA,NA,NA,NA,NA,NA,NA,NA,NA,NA,NA
c9347,shallow,flow.Sequence,3_0_1_0_2_1,NA,NA,completion,28415.9,232531.5,232529.2,232545.8,260961.7,260969,2024-06-09T12:48:31Z,260978.6,NULL,Papier,karatasi,s,uchambuzi,usalama,kukataliwa,NA,sdfdsf,NA,1,NA,NA,NA,NA,NA,NA,NA,NA,NA,NA,NA,NA,NA,NA,NA,NA,NA,NA,NA
c9347,task,flow.Sequence,3_0_1_0_2,NA,NA,completion,28415.9,232531.2,232529.2,232545.8,260961.7,260969.1,2024-06-09T12:48:31Z,260978.6,NULL,Papier,karatasi,s,uchambuzi,usalama,kukataliwa,NA,sdfdsf,NA,1,NA,NA,NA,NA,NA,NA,NA,NA,NA,NA,NA,NA,NA,NA,NA,NA,NA,NA,NA
c9347,Deep Question,html.Page,3_0_1_0_3_0_0,NA,NA,form submission,21710.9,260969.2,260961.7,260978.6,282689.5,282689.7,2024-06-09T12:48:53Z,282698.2,NULL,Entwicklung,maendeleo,d,NA,NA,NA,Entwicklung,NA,NA,1,NA,NA,NA,NA,NA,NA,NA,NA,NA,NA,NA,NA,NA,NA,NA,NA,NA,NA,NA
c9347,"""Richtig""-Screen",canvas.Screen,3_0_1_0_3_0_1,NA,NA,skipped,NA,282692.9,NA,NA,282689.5,282693,2024-06-09T12:48:53Z,282698.2,NULL,Entwicklung,maendeleo,d,NA,NA,NA,NA,sdfdsf,NA,1,NA,NA,NA,NA,NA,NA,NA,NA,NA,NA,NA,NA,NA,NA,NA,NA,NA,NA,NA
c9347,"""Falsch""-Screen",canvas.Screen,3_0_1_0_3_0_2,NA,NA,timeout,4997.5,282693.8,282687.726,282698.2,287678.9,287680,2024-06-09T12:48:58Z,287695.7,NULL,Entwicklung,maendeleo,d,NA,NA,NA,NA,sdfdsf,0,1,NA,NA,NA,NA,NA,NA,NA,NA,NA,NA,NA,NA,NA,NA,NA,NA,NA,NA,NA
c9347,deep,flow.Sequence,3_0_1_0_3_0,NA,NA,completion,26700.3,260969.2,260961.7,260978.6,287678.9,287680.3,2024-06-09T12:48:58Z,287695.7,NULL,Entwicklung,maendeleo,d,NA,NA,NA,NA,sdfdsf,NA,1,NA,NA,NA,NA,NA,NA,NA,NA,NA,NA,NA,NA,NA,NA,NA,NA,NA,NA,NA
c9347,shallow,flow.Sequence,3_0_1_0_3_1,NA,NA,skipped,NA,287680.4,NA,NA,287678.9,287680.6,2024-06-09T12:48:58Z,287695.7,NULL,Entwicklung,maendeleo,d,NA,NA,NA,NA,sdfdsf,NA,1,NA,NA,NA,NA,NA,NA,NA,NA,NA,NA,NA,NA,NA,NA,NA,NA,NA,NA,NA
c9347,task,flow.Sequence,3_0_1_0_3,NA,NA,completion,26700.3,260969.2,260961.7,260978.6,287678.9,287680.8,2024-06-09T12:48:58Z,287695.7,NULL,Entwicklung,maendeleo,d,NA,NA,NA,NA,sdfdsf,NA,1,NA,NA,NA,NA,NA,NA,NA,NA,NA,NA,NA,NA,NA,NA,NA,NA,NA,NA,NA
c9347,deep,flow.Sequence,3_0_1_0_4_0,NA,NA,skipped,NA,287680.9,NA,NA,287678.9,287681.1,2024-06-09T12:48:58Z,287695.7,NULL,Niveau,kiwango,s,usimamizi,mwamali,mshairi,NA,sdfdsf,NA,1,NA,NA,NA,NA,NA,NA,NA,NA,NA,NA,NA,NA,NA,NA,NA,NA,NA,NA,NA
c9347,Shallow Question,html.Page,3_0_1_0_4_1_0,NA,NA,form submission,12624,287681.2,287678.9,287695.7,300319.7,300319.9,2024-06-09T12:49:11Z,300321.35,NULL,Niveau,kiwango,s,usimamizi,mwamali,mshairi,kiwango,NA,NA,1,NA,NA,NA,NA,NA,NA,NA,NA,NA,NA,NA,NA,NA,NA,NA,NA,NA,NA,NA
c9347,"""Richtig""-Screen",canvas.Screen,3_0_1_0_4_1_1,NA,NA,timeout,4996.95,300323,300321.35,300321.35,305301.2,305303.4,2024-06-09T12:49:16Z,305318.3,NULL,Niveau,kiwango,s,usimamizi,mwamali,mshairi,NA,sdfdsf,1,1,NA,NA,NA,NA,NA,NA,NA,NA,NA,NA,NA,NA,NA,NA,NA,NA,NA,NA,NA
c9347,"""Falsch""-Screen",canvas.Screen,3_0_1_0_4_1_2,NA,NA,skipped,NA,305308,NA,NA,305301.2,305308.1,2024-06-09T12:49:16Z,305318.3,NULL,Niveau,kiwango,s,usimamizi,mwamali,mshairi,NA,sdfdsf,NA,1,NA,NA,NA,NA,NA,NA,NA,NA,NA,NA,NA,NA,NA,NA,NA,NA,NA,NA,NA
c9347,shallow,flow.Sequence,3_0_1_0_4_1,NA,NA,completion,17605.5,287681.1,287678.9,287695.7,305301.2,305308.2,2024-06-09T12:49:16Z,305318.3,NULL,Niveau,kiwango,s,usimamizi,mwamali,mshairi,NA,sdfdsf,NA,1,NA,NA,NA,NA,NA,NA,NA,NA,NA,NA,NA,NA,NA,NA,NA,NA,NA,NA,NA
c9347,task,flow.Sequence,3_0_1_0_4,NA,NA,completion,17605.5,287680.9,287678.9,287695.7,305301.2,305308.3,2024-06-09T12:49:16Z,305318.3,NULL,Niveau,kiwango,s,usimamizi,mwamali,mshairi,NA,sdfdsf,NA,1,NA,NA,NA,NA,NA,NA,NA,NA,NA,NA,NA,NA,NA,NA,NA,NA,NA,NA,NA
c9347,deep,flow.Sequence,3_0_1_0_5_0,NA,NA,skipped,NA,305308.4,NA,NA,305301.2,305308.4,2024-06-09T12:49:16Z,305318.3,NULL,Schüler,mwanafunzi,s,mwekezaji,matumizi,uaminifu,NA,sdfdsf,NA,1,NA,NA,NA,NA,NA,NA,NA,NA,NA,NA,NA,NA,NA,NA,NA,NA,NA,NA,NA
c9347,Shallow Question,html.Page,3_0_1_0_5_1_0,NA,NA,form submission,32983,305308.4,305301.2,305318.3,338301.3,338301.5,2024-06-09T12:49:49Z,338314.7,NULL,Schüler,mwanafunzi,s,mwekezaji,matumizi,uaminifu,mwanafunzi,NA,NA,1,NA,NA,NA,NA,NA,NA,NA,NA,NA,NA,NA,NA,NA,NA,NA,NA,NA,NA,NA
c9347,"""Richtig""-Screen",canvas.Screen,3_0_1_0_5_1_1,NA,NA,timeout,4996.8,338304.5,338297.8,338314.7,343294.9,343296.8,2024-06-09T12:49:54Z,343311.5,NULL,Schüler,mwanafunzi,s,mwekezaji,matumizi,uaminifu,NA,sdfdsf,1,1,NA,NA,NA,NA,NA,NA,NA,NA,NA,NA,NA,NA,NA,NA,NA,NA,NA,NA,NA
c9347,"""Falsch""-Screen",canvas.Screen,3_0_1_0_5_1_2,NA,NA,skipped,NA,343301.7,NA,NA,343294.9,343301.8,2024-06-09T12:49:54Z,343311.5,NULL,Schüler,mwanafunzi,s,mwekezaji,matumizi,uaminifu,NA,sdfdsf,NA,1,NA,NA,NA,NA,NA,NA,NA,NA,NA,NA,NA,NA,NA,NA,NA,NA,NA,NA,NA
c9347,shallow,flow.Sequence,3_0_1_0_5_1,NA,NA,completion,37976.6,305308.4,305301.2,305318.3,343294.9,343301.9,2024-06-09T12:49:54Z,343311.5,NULL,Schüler,mwanafunzi,s,mwekezaji,matumizi,uaminifu,NA,sdfdsf,NA,1,NA,NA,NA,NA,NA,NA,NA,NA,NA,NA,NA,NA,NA,NA,NA,NA,NA,NA,NA
c9347,task,flow.Sequence,3_0_1_0_5,NA,NA,completion,37976.6,305308.3,305301.2,305318.3,343294.9,343301.9,2024-06-09T12:49:54Z,343311.5,NULL,Schüler,mwanafunzi,s,mwekezaji,matumizi,uaminifu,NA,sdfdsf,NA,1,NA,NA,NA,NA,NA,NA,NA,NA,NA,NA,NA,NA,NA,NA,NA,NA,NA,NA,NA
c9347,Deep Question,html.Page,3_0_1_0_6_0_0,NA,NA,form submission,7180.6000000001,343302.1,343294.9,343311.5,350492.1,350492.4,2024-06-09T12:50:01Z,350507.1,NULL,Fenster,dirisha,d,NA,NA,NA,Fenster,NA,NA,1,NA,NA,NA,NA,NA,NA,NA,NA,NA,NA,NA,NA,NA,NA,NA,NA,NA,NA,NA
c9347,"""Richtig""-Screen",canvas.Screen,3_0_1_0_6_0_1,NA,NA,skipped,NA,350495.6,NA,NA,350492.1,350495.8,2024-06-09T12:50:01Z,350507.1,NULL,Fenster,dirisha,d,NA,NA,NA,NA,sdfdsf,NA,1,NA,NA,NA,NA,NA,NA,NA,NA,NA,NA,NA,NA,NA,NA,NA,NA,NA,NA,NA
c9347,"""Falsch""-Screen",canvas.Screen,3_0_1_0_6_0_2,NA,NA,timeout,4997,350496.5,350491.888,350507.1,355487.6,355488.6,2024-06-09T12:50:06Z,355504.1,NULL,Fenster,dirisha,d,NA,NA,NA,NA,sdfdsf,0,1,NA,NA,NA,NA,NA,NA,NA,NA,NA,NA,NA,NA,NA,NA,NA,NA,NA,NA,NA
c9347,deep,flow.Sequence,3_0_1_0_6_0,NA,NA,completion,12176.1,343302,343294.9,343311.5,355487.6,355489,2024-06-09T12:50:06Z,355504.1,NULL,Fenster,dirisha,d,NA,NA,NA,NA,sdfdsf,NA,1,NA,NA,NA,NA,NA,NA,NA,NA,NA,NA,NA,NA,NA,NA,NA,NA,NA,NA,NA
c9347,shallow,flow.Sequence,3_0_1_0_6_1,NA,NA,skipped,NA,355489.2,NA,NA,355487.6,355489.3,2024-06-09T12:50:06Z,355504.1,NULL,Fenster,dirisha,d,NA,NA,NA,NA,sdfdsf,NA,1,NA,NA,NA,NA,NA,NA,NA,NA,NA,NA,NA,NA,NA,NA,NA,NA,NA,NA,NA
c9347,task,flow.Sequence,3_0_1_0_6,NA,NA,completion,12176.1,343302,343294.9,343311.5,355487.6,355489.5,2024-06-09T12:50:06Z,355504.1,NULL,Fenster,dirisha,d,NA,NA,NA,NA,sdfdsf,NA,1,NA,NA,NA,NA,NA,NA,NA,NA,NA,NA,NA,NA,NA,NA,NA,NA,NA,NA,NA
c9347,Deep Question,html.Page,3_0_1_0_7_0_0,NA,NA,form submission,21024.5,355489.8,355487.6,355504.1,376528.6,376528.8,2024-06-09T12:50:27Z,376541,NULL,Vorwurf,mashtaka,d,NA,NA,NA,Vorwurf,NA,NA,1,NA,NA,NA,NA,NA,NA,NA,NA,NA,NA,NA,NA,NA,NA,NA,NA,NA,NA,NA
c9347,"""Richtig""-Screen",canvas.Screen,3_0_1_0_7_0_1,NA,NA,skipped,NA,376532,NA,NA,376528.6,376532.2,2024-06-09T12:50:27Z,376541,NULL,Vorwurf,mashtaka,d,NA,NA,NA,NA,sdfdsf,NA,1,NA,NA,NA,NA,NA,NA,NA,NA,NA,NA,NA,NA,NA,NA,NA,NA,NA,NA,NA
c9347,"""Falsch""-Screen",canvas.Screen,3_0_1_0_7_0_2,NA,NA,timeout,4997.3,376533.1,376525.752,376541,381521.2,381523,2024-06-09T12:50:32Z,381538.3,NULL,Vorwurf,mashtaka,d,NA,NA,NA,NA,sdfdsf,0,1,NA,NA,NA,NA,NA,NA,NA,NA,NA,NA,NA,NA,NA,NA,NA,NA,NA,NA,NA
c9347,deep,flow.Sequence,3_0_1_0_7_0,NA,NA,completion,26017.1,355489.7,355487.6,355504.1,381521.2,381523.3,2024-06-09T12:50:32Z,381538.3,NULL,Vorwurf,mashtaka,d,NA,NA,NA,NA,sdfdsf,NA,1,NA,NA,NA,NA,NA,NA,NA,NA,NA,NA,NA,NA,NA,NA,NA,NA,NA,NA,NA
c9347,shallow,flow.Sequence,3_0_1_0_7_1,NA,NA,skipped,NA,381523.4,NA,NA,381521.2,381523.6,2024-06-09T12:50:32Z,381538.3,NULL,Vorwurf,mashtaka,d,NA,NA,NA,NA,sdfdsf,NA,1,NA,NA,NA,NA,NA,NA,NA,NA,NA,NA,NA,NA,NA,NA,NA,NA,NA,NA,NA
c9347,task,flow.Sequence,3_0_1_0_7,NA,NA,completion,26017.1,355489.7,355487.6,355504.1,381521.2,381523.8,2024-06-09T12:50:32Z,381538.3,NULL,Vorwurf,mashtaka,d,NA,NA,NA,NA,sdfdsf,NA,1,NA,NA,NA,NA,NA,NA,NA,NA,NA,NA,NA,NA,NA,NA,NA,NA,NA,NA,NA
c9347,block,flow.Loop,3_0_1_0,NA,NA,completion,177058.7,204458.3,204445.794,204462.5,381521.2,381523.9,2024-06-09T12:50:32Z,381538.3,NULL,NA,NA,NA,NA,NA,NA,NA,sdfdsf,NA,1,NA,NA,NA,NA,NA,NA,NA,NA,NA,NA,NA,NA,NA,NA,NA,NA,NA,NA,NA
c9347,weiter,canvas.Screen,3_0_1_1,sdf,keypress(Space),response,3116.3000000001002,381524.1,381521.2,381538.3,384654.6,384655.7,2024-06-09T12:50:35Z,384686.2,NULL,NA,NA,NA,NA,NA,NA,NA,sdfdsf,NA,1,NA,NA,NA,NA,NA,NA,NA,NA,NA,NA,NA,NA,NA,NA,NA,NA,NA,NA,NA
c9347,check continue,flow.Sequence,3_0_1,NA,NA,completion,180192.1,204458.2,204445.794,204462.5,384654.6,384656,2024-06-09T12:50:35Z,384686.2,NULL,NA,NA,NA,NA,NA,NA,NA,sdfdsf,NA,1,NA,NA,NA,NA,NA,NA,NA,NA,NA,NA,NA,NA,NA,NA,NA,NA,NA,NA,NA
c9347,Deep Question,html.Page,3_0_2_0_0_0_0,NA,NA,form submission,3541.4000000001,384675.6,384671.508,384686.2,388227.6,388227.9,2024-06-09T12:50:39Z,388233.7,NULL,Vorwurf,mashtaka,d,NA,NA,NA,mashatak,NA,NA,2,NA,NA,NA,NA,NA,NA,NA,NA,NA,NA,NA,NA,NA,NA,NA,NA,NA,NA,NA
c9347,"""Richtig""-Screen",canvas.Screen,3_0_2_0_0_0_1,NA,NA,skipped,NA,388228.7,NA,NA,388227.6,388228.8,2024-06-09T12:50:39Z,388233.7,NULL,Vorwurf,mashtaka,d,NA,NA,NA,NA,sdf,NA,2,NA,NA,NA,NA,NA,NA,NA,NA,NA,NA,NA,NA,NA,NA,NA,NA,NA,NA,NA
c9347,"""Falsch""-Screen",canvas.Screen,3_0_2_0_0_0_2,NA,NA,timeout,4997.5,388229.7,388219.358,388233.7,393214.5,393215.3,2024-06-09T12:50:44Z,393231.2,NULL,Vorwurf,mashtaka,d,NA,NA,NA,NA,sdf,0,2,NA,NA,NA,NA,NA,NA,NA,NA,NA,NA,NA,NA,NA,NA,NA,NA,NA,NA,NA
c9347,deep,flow.Sequence,3_0_2_0_0_0,NA,NA,completion,8528.3,384675.6,384671.508,384686.2,393214.5,393215.6,2024-06-09T12:50:44Z,393231.2,NULL,Vorwurf,mashtaka,d,NA,NA,NA,NA,sdf,NA,2,NA,NA,NA,NA,NA,NA,NA,NA,NA,NA,NA,NA,NA,NA,NA,NA,NA,NA,NA
c9347,shallow,flow.Sequence,3_0_2_0_0_1,NA,NA,skipped,NA,393215.7,NA,NA,393214.5,393215.9,2024-06-09T12:50:44Z,393231.2,NULL,Vorwurf,mashtaka,d,NA,NA,NA,NA,sdf,NA,2,NA,NA,NA,NA,NA,NA,NA,NA,NA,NA,NA,NA,NA,NA,NA,NA,NA,NA,NA
c9347,task,flow.Sequence,3_0_2_0_0,NA,NA,completion,8528.3,384675.6,384671.508,384686.2,393214.5,393216.1,2024-06-09T12:50:44Z,393231.2,NULL,Vorwurf,mashtaka,d,NA,NA,NA,NA,sdf,NA,2,NA,NA,NA,NA,NA,NA,NA,NA,NA,NA,NA,NA,NA,NA,NA,NA,NA,NA,NA
c9347,deep,flow.Sequence,3_0_2_0_1_0,NA,NA,skipped,NA,393216.2,NA,NA,393214.5,393216.4,2024-06-09T12:50:44Z,393231.2,NULL,Niveau,kiwango,s,usimamizi,mwamali,mshairi,NA,sdf,NA,2,NA,NA,NA,NA,NA,NA,NA,NA,NA,NA,NA,NA,NA,NA,NA,NA,NA,NA,NA
c9347,Shallow Question,html.Page,3_0_2_0_1_1_0,NA,NA,form submission,5938.1000000003,393216.4,393214.5,393231.2,399169.3,399169.5,2024-06-09T12:50:50Z,399177.1,NULL,Niveau,kiwango,s,usimamizi,mwamali,mshairi,kiwango,NA,NA,2,NA,NA,NA,NA,NA,NA,NA,NA,NA,NA,NA,NA,NA,NA,NA,NA,NA,NA,NA
c9347,"""Richtig""-Screen",canvas.Screen,3_0_2_0_1_1_1,NA,NA,timeout,4997.6,399172.5,399161.126,399177.1,404157.9,404158.8,2024-06-09T12:50:55Z,404174.7,NULL,Niveau,kiwango,s,usimamizi,mwamali,mshairi,NA,sdf,1,2,NA,NA,NA,NA,NA,NA,NA,NA,NA,NA,NA,NA,NA,NA,NA,NA,NA,NA,NA
c9347,"""Falsch""-Screen",canvas.Screen,3_0_2_0_1_1_2,NA,NA,skipped,NA,404164.1,NA,NA,404157.9,404164.1,2024-06-09T12:50:55Z,404174.7,NULL,Niveau,kiwango,s,usimamizi,mwamali,mshairi,NA,sdf,NA,2,NA,NA,NA,NA,NA,NA,NA,NA,NA,NA,NA,NA,NA,NA,NA,NA,NA,NA,NA
c9347,shallow,flow.Sequence,3_0_2_0_1_1,NA,NA,completion,10926.7,393216.4,393214.5,393231.2,404157.9,404164.3,2024-06-09T12:50:55Z,404174.7,NULL,Niveau,kiwango,s,usimamizi,mwamali,mshairi,NA,sdf,NA,2,NA,NA,NA,NA,NA,NA,NA,NA,NA,NA,NA,NA,NA,NA,NA,NA,NA,NA,NA
c9347,task,flow.Sequence,3_0_2_0_1,NA,NA,completion,10926.7,393216.2,393214.5,393231.2,404157.9,404164.3,2024-06-09T12:50:55Z,404174.7,NULL,Niveau,kiwango,s,usimamizi,mwamali,mshairi,NA,sdf,NA,2,NA,NA,NA,NA,NA,NA,NA,NA,NA,NA,NA,NA,NA,NA,NA,NA,NA,NA,NA
c9347,deep,flow.Sequence,3_0_2_0_2_0,NA,NA,skipped,NA,404164.4,NA,NA,404157.9,404164.4,2024-06-09T12:50:55Z,404174.7,NULL,Papier,karatasi,s,uchambuzi,usalama,kukataliwa,NA,sdf,NA,2,NA,NA,NA,NA,NA,NA,NA,NA,NA,NA,NA,NA,NA,NA,NA,NA,NA,NA,NA
c9347,Shallow Question,html.Page,3_0_2_0_2_1_0,NA,NA,form submission,12956.8,404164.4,404157.9,404174.7,417131.5,417131.7,2024-06-09T12:51:08Z,417133.226,NULL,Papier,karatasi,s,uchambuzi,usalama,kukataliwa,kukataliwa,NA,NA,2,NA,NA,NA,NA,NA,NA,NA,NA,NA,NA,NA,NA,NA,NA,NA,NA,NA,NA,NA
c9347,"""Richtig""-Screen",canvas.Screen,3_0_2_0_2_1_1,NA,NA,skipped,NA,417135,NA,NA,417131.5,417135.2,2024-06-09T12:51:08Z,417133.226,NULL,Papier,karatasi,s,uchambuzi,usalama,kukataliwa,NA,sdf,NA,2,NA,NA,NA,NA,NA,NA,NA,NA,NA,NA,NA,NA,NA,NA,NA,NA,NA,NA,NA
c9347,"""Falsch""-Screen",canvas.Screen,3_0_2_0_2_1_2,NA,NA,timeout,4997.074,417135.9,417133.226,417133.226,422113.4,422114.4,2024-06-09T12:51:13Z,422130.3,NULL,Papier,karatasi,s,uchambuzi,usalama,kukataliwa,NA,sdf,0,2,NA,NA,NA,NA,NA,NA,NA,NA,NA,NA,NA,NA,NA,NA,NA,NA,NA,NA,NA
c9347,shallow,flow.Sequence,3_0_2_0_2_1,NA,NA,completion,17938.7,404164.4,404157.9,404174.7,422113.4,422114.7,2024-06-09T12:51:13Z,422130.3,NULL,Papier,karatasi,s,uchambuzi,usalama,kukataliwa,NA,sdf,NA,2,NA,NA,NA,NA,NA,NA,NA,NA,NA,NA,NA,NA,NA,NA,NA,NA,NA,NA,NA
c9347,task,flow.Sequence,3_0_2_0_2,NA,NA,completion,17938.7,404164.4,404157.9,404174.7,422113.4,422114.9,2024-06-09T12:51:13Z,422130.3,NULL,Papier,karatasi,s,uchambuzi,usalama,kukataliwa,NA,sdf,NA,2,NA,NA,NA,NA,NA,NA,NA,NA,NA,NA,NA,NA,NA,NA,NA,NA,NA,NA,NA
c9347,deep,flow.Sequence,3_0_2_0_3_0,NA,NA,skipped,NA,422115.1,NA,NA,422113.4,422115.2,2024-06-09T12:51:13Z,422130.3,NULL,Schüler,mwanafunzi,s,mwekezaji,matumizi,uaminifu,NA,sdf,NA,2,NA,NA,NA,NA,NA,NA,NA,NA,NA,NA,NA,NA,NA,NA,NA,NA,NA,NA,NA
c9347,Shallow Question,html.Page,3_0_2_0_3_1_0,NA,NA,form submission,6949.3000000001,422115.4,422113.4,422130.3,429079.6,429079.7,2024-06-09T12:51:20Z,429092.2,NULL,Schüler,mwanafunzi,s,mwekezaji,matumizi,uaminifu,mwanafunzi,NA,NA,2,NA,NA,NA,NA,NA,NA,NA,NA,NA,NA,NA,NA,NA,NA,NA,NA,NA,NA,NA
c9347,"""Richtig""-Screen",canvas.Screen,3_0_2_0_3_1_1,NA,NA,timeout,4997.4,429082.8,429076.8,429092.2,434072.9,434073.5,2024-06-09T12:51:25Z,434089.6,NULL,Schüler,mwanafunzi,s,mwekezaji,matumizi,uaminifu,NA,sdf,1,2,NA,NA,NA,NA,NA,NA,NA,NA,NA,NA,NA,NA,NA,NA,NA,NA,NA,NA,NA
c9347,"""Falsch""-Screen",canvas.Screen,3_0_2_0_3_1_2,NA,NA,skipped,NA,434075,NA,NA,434072.9,434075.1,2024-06-09T12:51:25Z,434089.6,NULL,Schüler,mwanafunzi,s,mwekezaji,matumizi,uaminifu,NA,sdf,NA,2,NA,NA,NA,NA,NA,NA,NA,NA,NA,NA,NA,NA,NA,NA,NA,NA,NA,NA,NA
c9347,shallow,flow.Sequence,3_0_2_0_3_1,NA,NA,completion,11942.6,422115.4,422113.4,422130.3,434072.9,434075.2,2024-06-09T12:51:25Z,434089.6,NULL,Schüler,mwanafunzi,s,mwekezaji,matumizi,uaminifu,NA,sdf,NA,2,NA,NA,NA,NA,NA,NA,NA,NA,NA,NA,NA,NA,NA,NA,NA,NA,NA,NA,NA
c9347,task,flow.Sequence,3_0_2_0_3,NA,NA,completion,11942.6,422115.1,422113.4,422130.3,434072.9,434075.2,2024-06-09T12:51:25Z,434089.6,NULL,Schüler,mwanafunzi,s,mwekezaji,matumizi,uaminifu,NA,sdf,NA,2,NA,NA,NA,NA,NA,NA,NA,NA,NA,NA,NA,NA,NA,NA,NA,NA,NA,NA,NA
c9347,Deep Question,html.Page,3_0_2_0_4_0_0,NA,NA,form submission,10541.2,434075.2,434072.9,434089.6,444630.8,444631,2024-06-09T12:51:35Z,444635.348,NULL,Entwicklung,maendeleo,d,NA,NA,NA,maepenelo,NA,NA,2,NA,NA,NA,NA,NA,NA,NA,NA,NA,NA,NA,NA,NA,NA,NA,NA,NA,NA,NA
c9347,"""Richtig""-Screen",canvas.Screen,3_0_2_0_4_0_1,NA,NA,skipped,NA,444634.2,NA,NA,444630.8,444634.4,2024-06-09T12:51:35Z,444635.348,NULL,Entwicklung,maendeleo,d,NA,NA,NA,NA,sdf,NA,2,NA,NA,NA,NA,NA,NA,NA,NA,NA,NA,NA,NA,NA,NA,NA,NA,NA,NA,NA
c9347,"""Falsch""-Screen",canvas.Screen,3_0_2_0_4_0_2,NA,NA,timeout,4994.652,444635.2,444635.348,444635.348,449613.3,449614.3,2024-06-09T12:51:40Z,449630,NULL,Entwicklung,maendeleo,d,NA,NA,NA,NA,sdf,0,2,NA,NA,NA,NA,NA,NA,NA,NA,NA,NA,NA,NA,NA,NA,NA,NA,NA,NA,NA
c9347,deep,flow.Sequence,3_0_2_0_4_0,NA,NA,completion,15523.7,434075.2,434072.9,434089.6,449613.3,449614.6,2024-06-09T12:51:40Z,449630,NULL,Entwicklung,maendeleo,d,NA,NA,NA,NA,sdf,NA,2,NA,NA,NA,NA,NA,NA,NA,NA,NA,NA,NA,NA,NA,NA,NA,NA,NA,NA,NA
c9347,shallow,flow.Sequence,3_0_2_0_4_1,NA,NA,skipped,NA,449614.7,NA,NA,449613.3,449614.8,2024-06-09T12:51:40Z,449630,NULL,Entwicklung,maendeleo,d,NA,NA,NA,NA,sdf,NA,2,NA,NA,NA,NA,NA,NA,NA,NA,NA,NA,NA,NA,NA,NA,NA,NA,NA,NA,NA
c9347,task,flow.Sequence,3_0_2_0_4,NA,NA,completion,15523.7,434075.2,434072.9,434089.6,449613.3,449615,2024-06-09T12:51:40Z,449630,NULL,Entwicklung,maendeleo,d,NA,NA,NA,NA,sdf,NA,2,NA,NA,NA,NA,NA,NA,NA,NA,NA,NA,NA,NA,NA,NA,NA,NA,NA,NA,NA
c9347,deep,flow.Sequence,3_0_2_0_5_0,NA,NA,skipped,NA,449615.2,NA,NA,449613.3,449615.3,2024-06-09T12:51:40Z,449630,NULL,Tester,wanaojaribu,s,sherti,sihiri,mlipuko,NA,sdf,NA,2,NA,NA,NA,NA,NA,NA,NA,NA,NA,NA,NA,NA,NA,NA,NA,NA,NA,NA,NA
c9347,Shallow Question,html.Page,3_0_2_0_5_1_0,NA,NA,form submission,7863.8999999999,449615.4,449613.3,449630,457493.9,457494.1,2024-06-09T12:51:48Z,457508.3,NULL,Tester,wanaojaribu,s,sherti,sihiri,mlipuko,wanaojaribu,NA,NA,2,NA,NA,NA,NA,NA,NA,NA,NA,NA,NA,NA,NA,NA,NA,NA,NA,NA,NA,NA
c9347,"""Richtig""-Screen",canvas.Screen,3_0_2_0_5_1_1,NA,NA,timeout,4997.2,457497.1,457492.34,457508.3,462488.8,462489.6,2024-06-09T12:51:53Z,462505.5,NULL,Tester,wanaojaribu,s,sherti,sihiri,mlipuko,NA,sdf,1,2,NA,NA,NA,NA,NA,NA,NA,NA,NA,NA,NA,NA,NA,NA,NA,NA,NA,NA,NA
c9347,"""Falsch""-Screen",canvas.Screen,3_0_2_0_5_1_2,NA,NA,skipped,NA,462494.7,NA,NA,462488.8,462494.8,2024-06-09T12:51:53Z,462505.5,NULL,Tester,wanaojaribu,s,sherti,sihiri,mlipuko,NA,sdf,NA,2,NA,NA,NA,NA,NA,NA,NA,NA,NA,NA,NA,NA,NA,NA,NA,NA,NA,NA,NA
c9347,shallow,flow.Sequence,3_0_2_0_5_1,NA,NA,completion,12858.8,449615.4,449613.3,449630,462488.8,462495.1,2024-06-09T12:51:53Z,462505.5,NULL,Tester,wanaojaribu,s,sherti,sihiri,mlipuko,NA,sdf,NA,2,NA,NA,NA,NA,NA,NA,NA,NA,NA,NA,NA,NA,NA,NA,NA,NA,NA,NA,NA
c9347,task,flow.Sequence,3_0_2_0_5,NA,NA,completion,12858.8,449615.1,449613.3,449630,462488.8,462495.3,2024-06-09T12:51:53Z,462505.5,NULL,Tester,wanaojaribu,s,sherti,sihiri,mlipuko,NA,sdf,NA,2,NA,NA,NA,NA,NA,NA,NA,NA,NA,NA,NA,NA,NA,NA,NA,NA,NA,NA,NA
c9347,Deep Question,html.Page,3_0_2_0_6_0_0,NA,NA,form submission,13381.2,462495.5,462488.8,462505.5,475886.7,475886.9,2024-06-09T12:52:06Z,475897.1,NULL,Fenster,dirisha,d,NA,NA,NA,wa,NA,NA,2,NA,NA,NA,NA,NA,NA,NA,NA,NA,NA,NA,NA,NA,NA,NA,NA,NA,NA,NA
c9347,"""Richtig""-Screen",canvas.Screen,3_0_2_0_6_0_1,NA,NA,skipped,NA,475889.9,NA,NA,475886.7,475890,2024-06-09T12:52:06Z,475897.1,NULL,Fenster,dirisha,d,NA,NA,NA,NA,sdf,NA,2,NA,NA,NA,NA,NA,NA,NA,NA,NA,NA,NA,NA,NA,NA,NA,NA,NA,NA,NA
c9347,"""Falsch""-Screen",canvas.Screen,3_0_2_0_6_0_2,NA,NA,timeout,4997.2,475890.9,475886.308,475897.1,480877.4,480879.1,2024-06-09T12:52:11Z,480894.3,NULL,Fenster,dirisha,d,NA,NA,NA,NA,sdf,0,2,NA,NA,NA,NA,NA,NA,NA,NA,NA,NA,NA,NA,NA,NA,NA,NA,NA,NA,NA
c9347,deep,flow.Sequence,3_0_2_0_6_0,NA,NA,completion,18371.9,462495.5,462488.8,462505.5,480877.4,480879.4,2024-06-09T12:52:11Z,480894.3,NULL,Fenster,dirisha,d,NA,NA,NA,NA,sdf,NA,2,NA,NA,NA,NA,NA,NA,NA,NA,NA,NA,NA,NA,NA,NA,NA,NA,NA,NA,NA
c9347,shallow,flow.Sequence,3_0_2_0_6_1,NA,NA,skipped,NA,480879.6,NA,NA,480877.4,480879.7,2024-06-09T12:52:11Z,480894.3,NULL,Fenster,dirisha,d,NA,NA,NA,NA,sdf,NA,2,NA,NA,NA,NA,NA,NA,NA,NA,NA,NA,NA,NA,NA,NA,NA,NA,NA,NA,NA
c9347,task,flow.Sequence,3_0_2_0_6,NA,NA,completion,18371.9,462495.4,462488.8,462505.5,480877.4,480879.9,2024-06-09T12:52:11Z,480894.3,NULL,Fenster,dirisha,d,NA,NA,NA,NA,sdf,NA,2,NA,NA,NA,NA,NA,NA,NA,NA,NA,NA,NA,NA,NA,NA,NA,NA,NA,NA,NA
c9347,Deep Question,html.Page,3_0_2_0_7_0_0,NA,NA,form submission,13950.5,480880,480877.4,480894.3,494844.8,494845.1,2024-06-09T12:52:25Z,494852.2,NULL,Spionage,upelelezi,d,NA,NA,NA,Spionage,NA,NA,2,NA,NA,NA,NA,NA,NA,NA,NA,NA,NA,NA,NA,NA,NA,NA,NA,NA,NA,NA
c9347,"""Richtig""-Screen",canvas.Screen,3_0_2_0_7_0_1,NA,NA,skipped,NA,494848.1,NA,NA,494844.8,494848.3,2024-06-09T12:52:25Z,494852.2,NULL,Spionage,upelelezi,d,NA,NA,NA,NA,sdf,NA,2,NA,NA,NA,NA,NA,NA,NA,NA,NA,NA,NA,NA,NA,NA,NA,NA,NA,NA,NA
c9347,"""Falsch""-Screen",canvas.Screen,3_0_2_0_7_0_2,NA,NA,timeout,4997.1,494849,494838.242,494852.2,499832.7,499833.4,2024-06-09T12:52:30Z,499849.3,NULL,Spionage,upelelezi,d,NA,NA,NA,NA,sdf,0,2,NA,NA,NA,NA,NA,NA,NA,NA,NA,NA,NA,NA,NA,NA,NA,NA,NA,NA,NA
c9347,deep,flow.Sequence,3_0_2_0_7_0,NA,NA,completion,18938.4,480880,480877.4,480894.3,499832.7,499833.7,2024-06-09T12:52:30Z,499849.3,NULL,Spionage,upelelezi,d,NA,NA,NA,NA,sdf,NA,2,NA,NA,NA,NA,NA,NA,NA,NA,NA,NA,NA,NA,NA,NA,NA,NA,NA,NA,NA
c9347,shallow,flow.Sequence,3_0_2_0_7_1,NA,NA,skipped,NA,499833.8,NA,NA,499832.7,499833.8,2024-06-09T12:52:30Z,499849.3,NULL,Spionage,upelelezi,d,NA,NA,NA,NA,sdf,NA,2,NA,NA,NA,NA,NA,NA,NA,NA,NA,NA,NA,NA,NA,NA,NA,NA,NA,NA,NA
c9347,task,flow.Sequence,3_0_2_0_7,NA,NA,completion,18938.4,480879.9,480877.4,480894.3,499832.7,499833.8,2024-06-09T12:52:30Z,499849.3,NULL,Spionage,upelelezi,d,NA,NA,NA,NA,sdf,NA,2,NA,NA,NA,NA,NA,NA,NA,NA,NA,NA,NA,NA,NA,NA,NA,NA,NA,NA,NA
c9347,block,flow.Loop,3_0_2_0,NA,NA,completion,115146.5,384675.6,384671.508,384686.2,499832.7,499834,2024-06-09T12:52:30Z,499849.3,NULL,NA,NA,NA,NA,NA,NA,NA,sdf,NA,2,NA,NA,NA,NA,NA,NA,NA,NA,NA,NA,NA,NA,NA,NA,NA,NA,NA,NA,NA
c9347,weiter,canvas.Screen,3_0_2_1,sdf,keypress(Space),response,8050.3000000001,499834.1,499832.7,499849.3,507899.6,507900.6,2024-06-09T12:52:38Z,507927.7,NULL,NA,NA,NA,NA,NA,NA,NA,sdf,NA,2,NA,NA,NA,NA,NA,NA,NA,NA,NA,NA,NA,NA,NA,NA,NA,NA,NA,NA,NA
c9347,check continue,flow.Sequence,3_0_2,NA,NA,completion,123213.4,384675.6,384671.508,384686.2,507899.6,507900.8,2024-06-09T12:52:38Z,507927.7,NULL,NA,NA,NA,NA,NA,NA,NA,sdf,NA,2,NA,NA,NA,NA,NA,NA,NA,NA,NA,NA,NA,NA,NA,NA,NA,NA,NA,NA,NA
c9347,deep,flow.Sequence,3_0_3_0_0_0,NA,NA,skipped,NA,507919.7,NA,NA,507899.6,507919.7,2024-06-09T12:52:38Z,507927.7,NULL,Papier,karatasi,s,uchambuzi,usalama,kukataliwa,NA,qt,NA,3,NA,NA,NA,NA,NA,NA,NA,NA,NA,NA,NA,NA,NA,NA,NA,NA,NA,NA,NA
c9347,Shallow Question,html.Page,3_0_3_0_0_1_0,NA,NA,form submission,7578.3,507919.8,507919.8,507927.7,515506,515506.2,2024-06-09T12:52:46Z,515523.3,NULL,Papier,karatasi,s,uchambuzi,usalama,kukataliwa,karatasi,NA,NA,3,NA,NA,NA,NA,NA,NA,NA,NA,NA,NA,NA,NA,NA,NA,NA,NA,NA,NA,NA
c9347,"""Richtig""-Screen",canvas.Screen,3_0_3_0_0_1_1,NA,NA,timeout,4997,515509.1,515506.694,515523.3,520503.4,520504.2,2024-06-09T12:52:51Z,520520.3,NULL,Papier,karatasi,s,uchambuzi,usalama,kukataliwa,NA,qt,1,3,NA,NA,NA,NA,NA,NA,NA,NA,NA,NA,NA,NA,NA,NA,NA,NA,NA,NA,NA
c9347,"""Falsch""-Screen",canvas.Screen,3_0_3_0_0_1_2,NA,NA,skipped,NA,520509.3,NA,NA,520503.4,520509.3,2024-06-09T12:52:51Z,520520.3,NULL,Papier,karatasi,s,uchambuzi,usalama,kukataliwa,NA,qt,NA,3,NA,NA,NA,NA,NA,NA,NA,NA,NA,NA,NA,NA,NA,NA,NA,NA,NA,NA,NA
c9347,shallow,flow.Sequence,3_0_3_0_0_1,NA,NA,completion,12575.7,507919.8,507919.8,507927.7,520503.4,520509.4,2024-06-09T12:52:51Z,520520.3,NULL,Papier,karatasi,s,uchambuzi,usalama,kukataliwa,NA,qt,NA,3,NA,NA,NA,NA,NA,NA,NA,NA,NA,NA,NA,NA,NA,NA,NA,NA,NA,NA,NA
c9347,task,flow.Sequence,3_0_3_0_0,NA,NA,completion,12575.7,507919.7,507919.8,507927.7,520503.4,520509.5,2024-06-09T12:52:51Z,520520.3,NULL,Papier,karatasi,s,uchambuzi,usalama,kukataliwa,NA,qt,NA,3,NA,NA,NA,NA,NA,NA,NA,NA,NA,NA,NA,NA,NA,NA,NA,NA,NA,NA,NA
c9347,deep,flow.Sequence,3_0_3_0_1_0,NA,NA,skipped,NA,520509.6,NA,NA,520503.4,520509.6,2024-06-09T12:52:51Z,520520.3,NULL,Schüler,mwanafunzi,s,mwekezaji,matumizi,uaminifu,NA,qt,NA,3,NA,NA,NA,NA,NA,NA,NA,NA,NA,NA,NA,NA,NA,NA,NA,NA,NA,NA,NA
c9347,Shallow Question,html.Page,3_0_3_0_1_1_0,NA,NA,form submission,4602.4000000002,520509.7,520503.4,520520.3,525122.7,525123,2024-06-09T12:52:56Z,525133.7,NULL,Schüler,mwanafunzi,s,mwekezaji,matumizi,uaminifu,mwanafunzi,NA,NA,3,NA,NA,NA,NA,NA,NA,NA,NA,NA,NA,NA,NA,NA,NA,NA,NA,NA,NA,NA
c9347,"""Richtig""-Screen",canvas.Screen,3_0_3_0_1_1_1,NA,NA,timeout,4997,525126,525117.6,525133.7,530114,530115.9,2024-06-09T12:53:01Z,530130.7,NULL,Schüler,mwanafunzi,s,mwekezaji,matumizi,uaminifu,NA,qt,1,3,NA,NA,NA,NA,NA,NA,NA,NA,NA,NA,NA,NA,NA,NA,NA,NA,NA,NA,NA
c9347,"""Falsch""-Screen",canvas.Screen,3_0_3_0_1_1_2,NA,NA,skipped,NA,530121.2,NA,NA,530114,530121.4,2024-06-09T12:53:01Z,530130.7,NULL,Schüler,mwanafunzi,s,mwekezaji,matumizi,uaminifu,NA,qt,NA,3,NA,NA,NA,NA,NA,NA,NA,NA,NA,NA,NA,NA,NA,NA,NA,NA,NA,NA,NA
c9347,shallow,flow.Sequence,3_0_3_0_1_1,NA,NA,completion,9593.7,520509.6,520503.4,520520.3,530114,530121.7,2024-06-09T12:53:01Z,530130.7,NULL,Schüler,mwanafunzi,s,mwekezaji,matumizi,uaminifu,NA,qt,NA,3,NA,NA,NA,NA,NA,NA,NA,NA,NA,NA,NA,NA,NA,NA,NA,NA,NA,NA,NA
c9347,task,flow.Sequence,3_0_3_0_1,NA,NA,completion,9593.7,520509.6,520503.4,520520.3,530114,530122,2024-06-09T12:53:01Z,530130.7,NULL,Schüler,mwanafunzi,s,mwekezaji,matumizi,uaminifu,NA,qt,NA,3,NA,NA,NA,NA,NA,NA,NA,NA,NA,NA,NA,NA,NA,NA,NA,NA,NA,NA,NA
c9347,deep,flow.Sequence,3_0_3_0_2_0,NA,NA,skipped,NA,530122.2,NA,NA,530114,530122.3,2024-06-09T12:53:01Z,530130.7,NULL,Niveau,kiwango,s,usimamizi,mwamali,mshairi,NA,qt,NA,3,NA,NA,NA,NA,NA,NA,NA,NA,NA,NA,NA,NA,NA,NA,NA,NA,NA,NA,NA
c9347,Shallow Question,html.Page,3_0_3_0_2_1_0,NA,NA,form submission,4250.2,530122.4,530114,530130.7,534380.9,534381.1,2024-06-09T12:53:05Z,534395,NULL,Niveau,kiwango,s,usimamizi,mwamali,mshairi,kiwango,NA,NA,3,NA,NA,NA,NA,NA,NA,NA,NA,NA,NA,NA,NA,NA,NA,NA,NA,NA,NA,NA
c9347,"""Richtig""-Screen",canvas.Screen,3_0_3_0_2_1_1,NA,NA,timeout,4996.7,534384,534378.7,534395,539375.4,539376.3,2024-06-09T12:53:10Z,539391.7,NULL,Niveau,kiwango,s,usimamizi,mwamali,mshairi,NA,qt,1,3,NA,NA,NA,NA,NA,NA,NA,NA,NA,NA,NA,NA,NA,NA,NA,NA,NA,NA,NA
c9347,"""Falsch""-Screen",canvas.Screen,3_0_3_0_2_1_2,NA,NA,skipped,NA,539381.5,NA,NA,539375.4,539381.7,2024-06-09T12:53:10Z,539391.7,NULL,Niveau,kiwango,s,usimamizi,mwamali,mshairi,NA,qt,NA,3,NA,NA,NA,NA,NA,NA,NA,NA,NA,NA,NA,NA,NA,NA,NA,NA,NA,NA,NA
c9347,shallow,flow.Sequence,3_0_3_0_2_1,NA,NA,completion,9244.7000000001,530122.4,530114,530130.7,539375.4,539382,2024-06-09T12:53:10Z,539391.7,NULL,Niveau,kiwango,s,usimamizi,mwamali,mshairi,NA,qt,NA,3,NA,NA,NA,NA,NA,NA,NA,NA,NA,NA,NA,NA,NA,NA,NA,NA,NA,NA,NA
c9347,task,flow.Sequence,3_0_3_0_2,NA,NA,completion,9244.7000000001,530122.1,530114,530130.7,539375.4,539382.2,2024-06-09T12:53:10Z,539391.7,NULL,Niveau,kiwango,s,usimamizi,mwamali,mshairi,NA,qt,NA,3,NA,NA,NA,NA,NA,NA,NA,NA,NA,NA,NA,NA,NA,NA,NA,NA,NA,NA,NA
c9347,Deep Question,html.Page,3_0_3_0_3_0_0,NA,NA,form submission,8410.0000000002,539382.3,539375.4,539391.7,547801.7,547801.7,2024-06-09T12:53:18Z,547820,NULL,Vorwurf,mashtaka,d,NA,NA,NA,kata,NA,NA,3,NA,NA,NA,NA,NA,NA,NA,NA,NA,NA,NA,NA,NA,NA,NA,NA,NA,NA,NA
c9347,"""Richtig""-Screen",canvas.Screen,3_0_3_0_3_0_1,NA,NA,skipped,NA,547803.2,NA,NA,547801.7,547803.3,2024-06-09T12:53:18Z,547820,NULL,Vorwurf,mashtaka,d,NA,NA,NA,NA,qt,NA,3,NA,NA,NA,NA,NA,NA,NA,NA,NA,NA,NA,NA,NA,NA,NA,NA,NA,NA,NA
c9347,"""Falsch""-Screen",canvas.Screen,3_0_3_0_3_0_2,NA,NA,timeout,4997.3,547803.6,547803.2,547820,552800.3,552801.1,2024-06-09T12:53:23Z,552817.3,NULL,Vorwurf,mashtaka,d,NA,NA,NA,NA,qt,0,3,NA,NA,NA,NA,NA,NA,NA,NA,NA,NA,NA,NA,NA,NA,NA,NA,NA,NA,NA
c9347,deep,flow.Sequence,3_0_3_0_3_0,NA,NA,completion,13408.6,539382.3,539375.4,539391.7,552800.3,552801.5,2024-06-09T12:53:23Z,552817.3,NULL,Vorwurf,mashtaka,d,NA,NA,NA,NA,qt,NA,3,NA,NA,NA,NA,NA,NA,NA,NA,NA,NA,NA,NA,NA,NA,NA,NA,NA,NA,NA
c9347,shallow,flow.Sequence,3_0_3_0_3_1,NA,NA,skipped,NA,552801.6,NA,NA,552800.3,552801.7,2024-06-09T12:53:23Z,552817.3,NULL,Vorwurf,mashtaka,d,NA,NA,NA,NA,qt,NA,3,NA,NA,NA,NA,NA,NA,NA,NA,NA,NA,NA,NA,NA,NA,NA,NA,NA,NA,NA
c9347,task,flow.Sequence,3_0_3_0_3,NA,NA,completion,13408.6,539382.3,539375.4,539391.7,552800.3,552802,2024-06-09T12:53:23Z,552817.3,NULL,Vorwurf,mashtaka,d,NA,NA,NA,NA,qt,NA,3,NA,NA,NA,NA,NA,NA,NA,NA,NA,NA,NA,NA,NA,NA,NA,NA,NA,NA,NA
c9347,Deep Question,html.Page,3_0_3_0_4_0_0,NA,NA,form submission,22328.3,552802.2,552800.3,552817.3,575145.6,575145.8,2024-06-09T12:53:46Z,575153.1,NULL,Entwicklung,maendeleo,d,NA,NA,NA,entwicklung,NA,NA,3,NA,NA,NA,NA,NA,NA,NA,NA,NA,NA,NA,NA,NA,NA,NA,NA,NA,NA,NA
c9347,"""Richtig""-Screen",canvas.Screen,3_0_3_0_4_0_1,NA,NA,skipped,NA,575148.8,NA,NA,575145.6,575149,2024-06-09T12:53:46Z,575153.1,NULL,Entwicklung,maendeleo,d,NA,NA,NA,NA,qt,NA,3,NA,NA,NA,NA,NA,NA,NA,NA,NA,NA,NA,NA,NA,NA,NA,NA,NA,NA,NA
c9347,"""Falsch""-Screen",canvas.Screen,3_0_3_0_4_0_2,NA,NA,timeout,4997.7000000001,575149.7,575138.592,575153.1,580133.5,580134.6,2024-06-09T12:53:51Z,580150.8,NULL,Entwicklung,maendeleo,d,NA,NA,NA,NA,qt,0,3,NA,NA,NA,NA,NA,NA,NA,NA,NA,NA,NA,NA,NA,NA,NA,NA,NA,NA,NA
c9347,deep,flow.Sequence,3_0_3_0_4_0,NA,NA,completion,27316.2,552802.2,552800.3,552817.3,580133.5,580135,2024-06-09T12:53:51Z,580150.8,NULL,Entwicklung,maendeleo,d,NA,NA,NA,NA,qt,NA,3,NA,NA,NA,NA,NA,NA,NA,NA,NA,NA,NA,NA,NA,NA,NA,NA,NA,NA,NA
c9347,shallow,flow.Sequence,3_0_3_0_4_1,NA,NA,skipped,NA,580135.1,NA,NA,580133.5,580135.3,2024-06-09T12:53:51Z,580150.8,NULL,Entwicklung,maendeleo,d,NA,NA,NA,NA,qt,NA,3,NA,NA,NA,NA,NA,NA,NA,NA,NA,NA,NA,NA,NA,NA,NA,NA,NA,NA,NA
c9347,task,flow.Sequence,3_0_3_0_4,NA,NA,completion,27316.2,552802.1,552800.3,552817.3,580133.5,580135.5,2024-06-09T12:53:51Z,580150.8,NULL,Entwicklung,maendeleo,d,NA,NA,NA,NA,qt,NA,3,NA,NA,NA,NA,NA,NA,NA,NA,NA,NA,NA,NA,NA,NA,NA,NA,NA,NA,NA
c9347,Deep Question,html.Page,3_0_3_0_5_0_0,NA,NA,form submission,24314.5,580135.7,580133.5,580150.8,604465.3,604465.6,2024-06-09T12:54:15Z,604468.7,NULL,Fenster,dirisha,d,NA,NA,NA,dirisha,NA,NA,3,NA,NA,NA,NA,NA,NA,NA,NA,NA,NA,NA,NA,NA,NA,NA,NA,NA,NA,NA
c9347,"""Richtig""-Screen",canvas.Screen,3_0_3_0_5_0_1,NA,NA,timeout,4997.4,604469,604455.122,604468.7,609449.4,609450.2,2024-06-09T12:54:20Z,609466.1,NULL,Fenster,dirisha,d,NA,NA,NA,NA,qt,1,3,NA,NA,NA,NA,NA,NA,NA,NA,NA,NA,NA,NA,NA,NA,NA,NA,NA,NA,NA
c9347,"""Falsch""-Screen",canvas.Screen,3_0_3_0_5_0_2,NA,NA,skipped,NA,609454.9,NA,NA,609449.4,609455.2,2024-06-09T12:54:20Z,609466.1,NULL,Fenster,dirisha,d,NA,NA,NA,NA,qt,NA,3,NA,NA,NA,NA,NA,NA,NA,NA,NA,NA,NA,NA,NA,NA,NA,NA,NA,NA,NA
c9347,deep,flow.Sequence,3_0_3_0_5_0,NA,NA,completion,29298.6,580135.7,580133.5,580150.8,609449.4,609455.4,2024-06-09T12:54:20Z,609466.1,NULL,Fenster,dirisha,d,NA,NA,NA,NA,qt,NA,3,NA,NA,NA,NA,NA,NA,NA,NA,NA,NA,NA,NA,NA,NA,NA,NA,NA,NA,NA
c9347,shallow,flow.Sequence,3_0_3_0_5_1,NA,NA,skipped,NA,609455.5,NA,NA,609449.4,609455.6,2024-06-09T12:54:20Z,609466.1,NULL,Fenster,dirisha,d,NA,NA,NA,NA,qt,NA,3,NA,NA,NA,NA,NA,NA,NA,NA,NA,NA,NA,NA,NA,NA,NA,NA,NA,NA,NA
c9347,task,flow.Sequence,3_0_3_0_5,NA,NA,completion,29298.6,580135.6,580133.5,580150.8,609449.4,609455.6,2024-06-09T12:54:20Z,609466.1,NULL,Fenster,dirisha,d,NA,NA,NA,NA,qt,NA,3,NA,NA,NA,NA,NA,NA,NA,NA,NA,NA,NA,NA,NA,NA,NA,NA,NA,NA,NA
c9347,deep,flow.Sequence,3_0_3_0_6_0,NA,NA,skipped,NA,609455.7,NA,NA,609449.4,609455.7,2024-06-09T12:54:20Z,609466.1,NULL,Tester,wanaojaribu,s,sherti,sihiri,mlipuko,NA,qt,NA,3,NA,NA,NA,NA,NA,NA,NA,NA,NA,NA,NA,NA,NA,NA,NA,NA,NA,NA,NA
c9347,Shallow Question,html.Page,3_0_3_0_6_1_0,NA,NA,form submission,6854.9000000005,609455.7,609449.4,609466.1,616321,616321.2,2024-06-09T12:54:27Z,616328.1,NULL,Tester,wanaojaribu,s,sherti,sihiri,mlipuko,wanaojaribu,NA,NA,3,NA,NA,NA,NA,NA,NA,NA,NA,NA,NA,NA,NA,NA,NA,NA,NA,NA,NA,NA
c9347,"""Richtig""-Screen",canvas.Screen,3_0_3_0_6_1_1,NA,NA,timeout,4997.5,616324.1,616312.128,616328.1,621308.9,621309.7,2024-06-09T12:54:32Z,621325.6,NULL,Tester,wanaojaribu,s,sherti,sihiri,mlipuko,NA,qt,1,3,NA,NA,NA,NA,NA,NA,NA,NA,NA,NA,NA,NA,NA,NA,NA,NA,NA,NA,NA
c9347,"""Falsch""-Screen",canvas.Screen,3_0_3_0_6_1_2,NA,NA,skipped,NA,621314.6,NA,NA,621308.9,621314.8,2024-06-09T12:54:32Z,621325.6,NULL,Tester,wanaojaribu,s,sherti,sihiri,mlipuko,NA,qt,NA,3,NA,NA,NA,NA,NA,NA,NA,NA,NA,NA,NA,NA,NA,NA,NA,NA,NA,NA,NA
c9347,shallow,flow.Sequence,3_0_3_0_6_1,NA,NA,completion,11842.8,609455.7,609449.4,609466.1,621308.9,621315,2024-06-09T12:54:32Z,621325.6,NULL,Tester,wanaojaribu,s,sherti,sihiri,mlipuko,NA,qt,NA,3,NA,NA,NA,NA,NA,NA,NA,NA,NA,NA,NA,NA,NA,NA,NA,NA,NA,NA,NA
c9347,task,flow.Sequence,3_0_3_0_6,NA,NA,completion,11842.8,609455.7,609449.4,609466.1,621308.9,621315.1,2024-06-09T12:54:32Z,621325.6,NULL,Tester,wanaojaribu,s,sherti,sihiri,mlipuko,NA,qt,NA,3,NA,NA,NA,NA,NA,NA,NA,NA,NA,NA,NA,NA,NA,NA,NA,NA,NA,NA,NA
c9347,Deep Question,html.Page,3_0_3_0_7_0_0,NA,NA,form submission,10479.3,621315.1,621308.9,621325.6,631804.9,631805.1,2024-06-09T12:54:42Z,631818.8,NULL,Spionage,upelelezi,d,NA,NA,NA,Spionage,NA,NA,3,NA,NA,NA,NA,NA,NA,NA,NA,NA,NA,NA,NA,NA,NA,NA,NA,NA,NA,NA
c9347,"""Richtig""-Screen",canvas.Screen,3_0_3_0_7_0_1,NA,NA,skipped,NA,631808.1,NA,NA,631804.9,631808.3,2024-06-09T12:54:42Z,631818.8,NULL,Spionage,upelelezi,d,NA,NA,NA,NA,qt,NA,3,NA,NA,NA,NA,NA,NA,NA,NA,NA,NA,NA,NA,NA,NA,NA,NA,NA,NA,NA
c9347,"""Falsch""-Screen",canvas.Screen,3_0_3_0_7_0_2,NA,NA,timeout,4997.2,631809.1,631805.446,631818.8,636799.4,636800.2,2024-06-09T12:54:47Z,636816,NULL,Spionage,upelelezi,d,NA,NA,NA,NA,qt,0,3,NA,NA,NA,NA,NA,NA,NA,NA,NA,NA,NA,NA,NA,NA,NA,NA,NA,NA,NA
c9347,deep,flow.Sequence,3_0_3_0_7_0,NA,NA,completion,15473.8,621315.1,621308.9,621325.6,636799.4,636800.5,2024-06-09T12:54:47Z,636816,NULL,Spionage,upelelezi,d,NA,NA,NA,NA,qt,NA,3,NA,NA,NA,NA,NA,NA,NA,NA,NA,NA,NA,NA,NA,NA,NA,NA,NA,NA,NA
c9347,shallow,flow.Sequence,3_0_3_0_7_1,NA,NA,skipped,NA,636800.7,NA,NA,636799.4,636800.8,2024-06-09T12:54:47Z,636816,NULL,Spionage,upelelezi,d,NA,NA,NA,NA,qt,NA,3,NA,NA,NA,NA,NA,NA,NA,NA,NA,NA,NA,NA,NA,NA,NA,NA,NA,NA,NA
c9347,task,flow.Sequence,3_0_3_0_7,NA,NA,completion,15473.8,621315.1,621308.9,621325.6,636799.4,636800.9,2024-06-09T12:54:47Z,636816,NULL,Spionage,upelelezi,d,NA,NA,NA,NA,qt,NA,3,NA,NA,NA,NA,NA,NA,NA,NA,NA,NA,NA,NA,NA,NA,NA,NA,NA,NA,NA
c9347,block,flow.Loop,3_0_3_0,NA,NA,completion,128871.7,507919.7,507919.8,507927.7,636799.4,636801.1,2024-06-09T12:54:47Z,636816,NULL,NA,NA,NA,NA,NA,NA,NA,qt,NA,3,NA,NA,NA,NA,NA,NA,NA,NA,NA,NA,NA,NA,NA,NA,NA,NA,NA,NA,NA
c9347,weiter,canvas.Screen,3_0_3_1,sdf,keypress(Space),response,13074,636801.3,636799.4,636816,649890,649890.9,2024-06-09T12:55:00Z,649924.3,NULL,NA,NA,NA,NA,NA,NA,NA,qt,NA,3,NA,NA,NA,NA,NA,NA,NA,NA,NA,NA,NA,NA,NA,NA,NA,NA,NA,NA,NA
c9347,check continue,flow.Sequence,3_0_3,NA,NA,completion,141962.3,507919.6,507919.8,507927.7,649890,649891.1,2024-06-09T12:55:00Z,649924.3,NULL,NA,NA,NA,NA,NA,NA,NA,qt,NA,3,NA,NA,NA,NA,NA,NA,NA,NA,NA,NA,NA,NA,NA,NA,NA,NA,NA,NA,NA
c9347,deep,flow.Sequence,3_0_4_0_0_0,NA,NA,skipped,NA,649921.2,NA,NA,649890,649921.4,2024-06-09T12:55:00Z,649924.3,NULL,Papier,karatasi,s,uchambuzi,usalama,kukataliwa,NA,sd,NA,4,NA,NA,NA,NA,NA,NA,NA,NA,NA,NA,NA,NA,NA,NA,NA,NA,NA,NA,NA
c9347,Shallow Question,html.Page,3_0_4_0_0_1_0,NA,NA,form submission,8653.3,649921.4,649915.476,649924.3,658577.6,658577.8,2024-06-09T12:55:09Z,658585.8,NULL,Papier,karatasi,s,uchambuzi,usalama,kukataliwa,karatasi,NA,NA,4,NA,NA,NA,NA,NA,NA,NA,NA,NA,NA,NA,NA,NA,NA,NA,NA,NA,NA,NA
c9347,"""Richtig""-Screen",canvas.Screen,3_0_4_0_0_1_1,NA,NA,timeout,4997.1,658580.8,658569.626,658585.8,663566.4,663567,2024-06-09T12:55:14Z,663582.9,NULL,Papier,karatasi,s,uchambuzi,usalama,kukataliwa,NA,sd,1,4,NA,NA,NA,NA,NA,NA,NA,NA,NA,NA,NA,NA,NA,NA,NA,NA,NA,NA,NA
c9347,"""Falsch""-Screen",canvas.Screen,3_0_4_0_0_1_2,NA,NA,skipped,NA,663568.5,NA,NA,663566.4,663568.6,2024-06-09T12:55:14Z,663582.9,NULL,Papier,karatasi,s,uchambuzi,usalama,kukataliwa,NA,sd,NA,4,NA,NA,NA,NA,NA,NA,NA,NA,NA,NA,NA,NA,NA,NA,NA,NA,NA,NA,NA
c9347,shallow,flow.Sequence,3_0_4_0_0_1,NA,NA,completion,13642.1,649921.4,649915.476,649924.3,663566.4,663568.6,2024-06-09T12:55:14Z,663582.9,NULL,Papier,karatasi,s,uchambuzi,usalama,kukataliwa,NA,sd,NA,4,NA,NA,NA,NA,NA,NA,NA,NA,NA,NA,NA,NA,NA,NA,NA,NA,NA,NA,NA
c9347,task,flow.Sequence,3_0_4_0_0,NA,NA,completion,13642.1,649921.2,649915.476,649924.3,663566.4,663568.7,2024-06-09T12:55:14Z,663582.9,NULL,Papier,karatasi,s,uchambuzi,usalama,kukataliwa,NA,sd,NA,4,NA,NA,NA,NA,NA,NA,NA,NA,NA,NA,NA,NA,NA,NA,NA,NA,NA,NA,NA
c9347,Deep Question,html.Page,3_0_4_0_1_0_0,NA,NA,form submission,3850.7999999997,663568.7,663566.4,663582.9,667433.7,667433.9,2024-06-09T12:55:18Z,667447.3,NULL,Fenster,dirisha,d,NA,NA,NA,dirisha,NA,NA,4,NA,NA,NA,NA,NA,NA,NA,NA,NA,NA,NA,NA,NA,NA,NA,NA,NA,NA,NA
c9347,"""Richtig""-Screen",canvas.Screen,3_0_4_0_1_0_1,NA,NA,timeout,4996.7,667436.8,667430.6,667447.3,672427.3,672429.3,2024-06-09T12:55:23Z,672444,NULL,Fenster,dirisha,d,NA,NA,NA,NA,sd,1,4,NA,NA,NA,NA,NA,NA,NA,NA,NA,NA,NA,NA,NA,NA,NA,NA,NA,NA,NA
c9347,"""Falsch""-Screen",canvas.Screen,3_0_4_0_1_0_2,NA,NA,skipped,NA,672434.2,NA,NA,672427.3,672434.3,2024-06-09T12:55:23Z,672444,NULL,Fenster,dirisha,d,NA,NA,NA,NA,sd,NA,4,NA,NA,NA,NA,NA,NA,NA,NA,NA,NA,NA,NA,NA,NA,NA,NA,NA,NA,NA
c9347,deep,flow.Sequence,3_0_4_0_1_0,NA,NA,completion,8844.4,663568.7,663566.4,663582.9,672427.3,672434.4,2024-06-09T12:55:23Z,672444,NULL,Fenster,dirisha,d,NA,NA,NA,NA,sd,NA,4,NA,NA,NA,NA,NA,NA,NA,NA,NA,NA,NA,NA,NA,NA,NA,NA,NA,NA,NA
c9347,shallow,flow.Sequence,3_0_4_0_1_1,NA,NA,skipped,NA,672434.4,NA,NA,672427.3,672434.5,2024-06-09T12:55:23Z,672444,NULL,Fenster,dirisha,d,NA,NA,NA,NA,sd,NA,4,NA,NA,NA,NA,NA,NA,NA,NA,NA,NA,NA,NA,NA,NA,NA,NA,NA,NA,NA
c9347,task,flow.Sequence,3_0_4_0_1,NA,NA,completion,8844.4,663568.7,663566.4,663582.9,672427.3,672434.5,2024-06-09T12:55:23Z,672444,NULL,Fenster,dirisha,d,NA,NA,NA,NA,sd,NA,4,NA,NA,NA,NA,NA,NA,NA,NA,NA,NA,NA,NA,NA,NA,NA,NA,NA,NA,NA
c9347,Deep Question,html.Page,3_0_4_0_2_0_0,NA,NA,form submission,24189,672434.5,672427.3,672444,696633,696633.2,2024-06-09T12:55:47Z,696645.8,NULL,Entwicklung,maendeleo,d,NA,NA,NA,maepeleo,NA,NA,4,NA,NA,NA,NA,NA,NA,NA,NA,NA,NA,NA,NA,NA,NA,NA,NA,NA,NA,NA
c9347,"""Richtig""-Screen",canvas.Screen,3_0_4_0_2_0_1,NA,NA,skipped,NA,696636.2,NA,NA,696633,696636.3,2024-06-09T12:55:47Z,696645.8,NULL,Entwicklung,maendeleo,d,NA,NA,NA,NA,sd,NA,4,NA,NA,NA,NA,NA,NA,NA,NA,NA,NA,NA,NA,NA,NA,NA,NA,NA,NA,NA
c9347,"""Falsch""-Screen",canvas.Screen,3_0_4_0_2_0_2,NA,NA,timeout,4997.3999999999,696637.1,696629.2,696645.8,701626.3,701627.3,2024-06-09T12:55:52Z,701643.2,NULL,Entwicklung,maendeleo,d,NA,NA,NA,NA,sd,0,4,NA,NA,NA,NA,NA,NA,NA,NA,NA,NA,NA,NA,NA,NA,NA,NA,NA,NA,NA
c9347,deep,flow.Sequence,3_0_4_0_2_0,NA,NA,completion,29182.3,672434.5,672427.3,672444,701626.3,701627.6,2024-06-09T12:55:52Z,701643.2,NULL,Entwicklung,maendeleo,d,NA,NA,NA,NA,sd,NA,4,NA,NA,NA,NA,NA,NA,NA,NA,NA,NA,NA,NA,NA,NA,NA,NA,NA,NA,NA
c9347,shallow,flow.Sequence,3_0_4_0_2_1,NA,NA,skipped,NA,701627.7,NA,NA,701626.3,701627.8,2024-06-09T12:55:52Z,701643.2,NULL,Entwicklung,maendeleo,d,NA,NA,NA,NA,sd,NA,4,NA,NA,NA,NA,NA,NA,NA,NA,NA,NA,NA,NA,NA,NA,NA,NA,NA,NA,NA
c9347,task,flow.Sequence,3_0_4_0_2,NA,NA,completion,29182.3,672434.5,672427.3,672444,701626.3,701628.1,2024-06-09T12:55:52Z,701643.2,NULL,Entwicklung,maendeleo,d,NA,NA,NA,NA,sd,NA,4,NA,NA,NA,NA,NA,NA,NA,NA,NA,NA,NA,NA,NA,NA,NA,NA,NA,NA,NA
c9347,Deep Question,html.Page,3_0_4_0_3_0_0,NA,NA,form submission,23708.800000001,701628.3,701626.3,701643.2,725352,725352.2,2024-06-09T12:56:16Z,725361.5,NULL,Vorwurf,mashtaka,d,NA,NA,NA,upelelezi,NA,NA,4,NA,NA,NA,NA,NA,NA,NA,NA,NA,NA,NA,NA,NA,NA,NA,NA,NA,NA,NA
c9347,"""Richtig""-Screen",canvas.Screen,3_0_4_0_3_0_1,NA,NA,skipped,NA,725355.2,NA,NA,725352,725355.4,2024-06-09T12:56:16Z,725361.5,NULL,Vorwurf,mashtaka,d,NA,NA,NA,NA,sd,NA,4,NA,NA,NA,NA,NA,NA,NA,NA,NA,NA,NA,NA,NA,NA,NA,NA,NA,NA,NA
c9347,"""Falsch""-Screen",canvas.Screen,3_0_4_0_3_0_2,NA,NA,timeout,4997.6,725356.1,725347.632,725361.5,730342.1,730343.1,2024-06-09T12:56:21Z,730359.1,NULL,Vorwurf,mashtaka,d,NA,NA,NA,NA,sd,0,4,NA,NA,NA,NA,NA,NA,NA,NA,NA,NA,NA,NA,NA,NA,NA,NA,NA,NA,NA
c9347,deep,flow.Sequence,3_0_4_0_3_0,NA,NA,completion,28698.9,701628.2,701626.3,701643.2,730342.1,730343.5,2024-06-09T12:56:21Z,730359.1,NULL,Vorwurf,mashtaka,d,NA,NA,NA,NA,sd,NA,4,NA,NA,NA,NA,NA,NA,NA,NA,NA,NA,NA,NA,NA,NA,NA,NA,NA,NA,NA
c9347,shallow,flow.Sequence,3_0_4_0_3_1,NA,NA,skipped,NA,730343.6,NA,NA,730342.1,730343.8,2024-06-09T12:56:21Z,730359.1,NULL,Vorwurf,mashtaka,d,NA,NA,NA,NA,sd,NA,4,NA,NA,NA,NA,NA,NA,NA,NA,NA,NA,NA,NA,NA,NA,NA,NA,NA,NA,NA
c9347,task,flow.Sequence,3_0_4_0_3,NA,NA,completion,28698.9,701628.2,701626.3,701643.2,730342.1,730344,2024-06-09T12:56:21Z,730359.1,NULL,Vorwurf,mashtaka,d,NA,NA,NA,NA,sd,NA,4,NA,NA,NA,NA,NA,NA,NA,NA,NA,NA,NA,NA,NA,NA,NA,NA,NA,NA,NA
c9347,deep,flow.Sequence,3_0_4_0_4_0,NA,NA,skipped,NA,730344.1,NA,NA,730342.1,730344.2,2024-06-09T12:56:21Z,730359.1,NULL,Schüler,mwanafunzi,s,mwekezaji,matumizi,uaminifu,NA,sd,NA,4,NA,NA,NA,NA,NA,NA,NA,NA,NA,NA,NA,NA,NA,NA,NA,NA,NA,NA,NA
c9347,Shallow Question,html.Page,3_0_4_0_4_1_0,NA,NA,form submission,13158.6,730344.4,730342.1,730359.1,743517.7,743517.8,2024-06-09T12:56:34Z,743534.3,NULL,Schüler,mwanafunzi,s,mwekezaji,matumizi,uaminifu,mwanafunzi,NA,NA,4,NA,NA,NA,NA,NA,NA,NA,NA,NA,NA,NA,NA,NA,NA,NA,NA,NA,NA,NA
c9347,"""Richtig""-Screen",canvas.Screen,3_0_4_0_4_1_1,NA,NA,timeout,4996.8999999999,743520.9,743518.1,743534.3,748514.5,748515.4,2024-06-09T12:56:39Z,748531.2,NULL,Schüler,mwanafunzi,s,mwekezaji,matumizi,uaminifu,NA,sd,1,4,NA,NA,NA,NA,NA,NA,NA,NA,NA,NA,NA,NA,NA,NA,NA,NA,NA,NA,NA
c9347,"""Falsch""-Screen",canvas.Screen,3_0_4_0_4_1_2,NA,NA,skipped,NA,748520.3,NA,NA,748514.5,748520.4,2024-06-09T12:56:39Z,748531.2,NULL,Schüler,mwanafunzi,s,mwekezaji,matumizi,uaminifu,NA,sd,NA,4,NA,NA,NA,NA,NA,NA,NA,NA,NA,NA,NA,NA,NA,NA,NA,NA,NA,NA,NA
c9347,shallow,flow.Sequence,3_0_4_0_4_1,NA,NA,completion,18155.4,730344.3,730342.1,730359.1,748514.5,748520.5,2024-06-09T12:56:39Z,748531.2,NULL,Schüler,mwanafunzi,s,mwekezaji,matumizi,uaminifu,NA,sd,NA,4,NA,NA,NA,NA,NA,NA,NA,NA,NA,NA,NA,NA,NA,NA,NA,NA,NA,NA,NA
c9347,task,flow.Sequence,3_0_4_0_4,NA,NA,completion,18155.4,730344.1,730342.1,730359.1,748514.5,748520.5,2024-06-09T12:56:39Z,748531.2,NULL,Schüler,mwanafunzi,s,mwekezaji,matumizi,uaminifu,NA,sd,NA,4,NA,NA,NA,NA,NA,NA,NA,NA,NA,NA,NA,NA,NA,NA,NA,NA,NA,NA,NA
c9347,deep,flow.Sequence,3_0_4_0_5_0,NA,NA,skipped,NA,748520.5,NA,NA,748514.5,748520.5,2024-06-09T12:56:39Z,748531.2,NULL,Niveau,kiwango,s,usimamizi,mwamali,mshairi,NA,sd,NA,4,NA,NA,NA,NA,NA,NA,NA,NA,NA,NA,NA,NA,NA,NA,NA,NA,NA,NA,NA
c9347,Shallow Question,html.Page,3_0_4_0_5_1_0,NA,NA,form submission,3173.2,748520.6,748514.5,748531.2,751704.4,751704.7,2024-06-09T12:56:42Z,751729.1,NULL,Niveau,kiwango,s,usimamizi,mwamali,mshairi,kiwango,NA,NA,4,NA,NA,NA,NA,NA,NA,NA,NA,NA,NA,NA,NA,NA,NA,NA,NA,NA,NA,NA
c9347,"""Richtig""-Screen",canvas.Screen,3_0_4_0_5_1_1,NA,NA,timeout,4997.1,751707.5,751712.3,751729.1,756709.3,756710.1,2024-06-09T12:56:47Z,756726.2,NULL,Niveau,kiwango,s,usimamizi,mwamali,mshairi,NA,sd,1,4,NA,NA,NA,NA,NA,NA,NA,NA,NA,NA,NA,NA,NA,NA,NA,NA,NA,NA,NA
c9347,"""Falsch""-Screen",canvas.Screen,3_0_4_0_5_1_2,NA,NA,skipped,NA,756714.8,NA,NA,756709.3,756715.1,2024-06-09T12:56:47Z,756726.2,NULL,Niveau,kiwango,s,usimamizi,mwamali,mshairi,NA,sd,NA,4,NA,NA,NA,NA,NA,NA,NA,NA,NA,NA,NA,NA,NA,NA,NA,NA,NA,NA,NA
c9347,shallow,flow.Sequence,3_0_4_0_5_1,NA,NA,completion,8178.1000000001,748520.5,748514.5,748531.2,756709.3,756715.2,2024-06-09T12:56:47Z,756726.2,NULL,Niveau,kiwango,s,usimamizi,mwamali,mshairi,NA,sd,NA,4,NA,NA,NA,NA,NA,NA,NA,NA,NA,NA,NA,NA,NA,NA,NA,NA,NA,NA,NA
c9347,task,flow.Sequence,3_0_4_0_5,NA,NA,completion,8178.1000000001,748520.5,748514.5,748531.2,756709.3,756715.2,2024-06-09T12:56:47Z,756726.2,NULL,Niveau,kiwango,s,usimamizi,mwamali,mshairi,NA,sd,NA,4,NA,NA,NA,NA,NA,NA,NA,NA,NA,NA,NA,NA,NA,NA,NA,NA,NA,NA,NA
c9347,deep,flow.Sequence,3_0_4_0_6_0,NA,NA,skipped,NA,756715.3,NA,NA,756709.3,756715.3,2024-06-09T12:56:47Z,756726.2,NULL,Tester,wanaojaribu,s,sherti,sihiri,mlipuko,NA,sd,NA,4,NA,NA,NA,NA,NA,NA,NA,NA,NA,NA,NA,NA,NA,NA,NA,NA,NA,NA,NA
c9347,Shallow Question,html.Page,3_0_4_0_6_1_0,NA,NA,form submission,4379.7,756715.3,756709.3,756726.2,761105.9,761106.1,2024-06-09T12:56:52Z,761107.16,NULL,Tester,wanaojaribu,s,sherti,sihiri,mlipuko,wanaojaribu,NA,NA,4,NA,NA,NA,NA,NA,NA,NA,NA,NA,NA,NA,NA,NA,NA,NA,NA,NA,NA,NA
c9347,"""Richtig""-Screen",canvas.Screen,3_0_4_0_6_1_1,NA,NA,timeout,4996.74,761109,761107.16,761107.16,766087.3,766088.1,2024-06-09T12:56:57Z,766103.9,NULL,Tester,wanaojaribu,s,sherti,sihiri,mlipuko,NA,sd,1,4,NA,NA,NA,NA,NA,NA,NA,NA,NA,NA,NA,NA,NA,NA,NA,NA,NA,NA,NA
c9347,"""Falsch""-Screen",canvas.Screen,3_0_4_0_6_1_2,NA,NA,skipped,NA,766092.8,NA,NA,766087.3,766093,2024-06-09T12:56:57Z,766103.9,NULL,Tester,wanaojaribu,s,sherti,sihiri,mlipuko,NA,sd,NA,4,NA,NA,NA,NA,NA,NA,NA,NA,NA,NA,NA,NA,NA,NA,NA,NA,NA,NA,NA
c9347,shallow,flow.Sequence,3_0_4_0_6_1,NA,NA,completion,9361.1000000001,756715.3,756709.3,756726.2,766087.3,766093.3,2024-06-09T12:56:57Z,766103.9,NULL,Tester,wanaojaribu,s,sherti,sihiri,mlipuko,NA,sd,NA,4,NA,NA,NA,NA,NA,NA,NA,NA,NA,NA,NA,NA,NA,NA,NA,NA,NA,NA,NA
c9347,task,flow.Sequence,3_0_4_0_6,NA,NA,completion,9361.1000000001,756715.3,756709.3,756726.2,766087.3,766093.5,2024-06-09T12:56:57Z,766103.9,NULL,Tester,wanaojaribu,s,sherti,sihiri,mlipuko,NA,sd,NA,4,NA,NA,NA,NA,NA,NA,NA,NA,NA,NA,NA,NA,NA,NA,NA,NA,NA,NA,NA
c9347,Deep Question,html.Page,3_0_4_0_7_0_0,NA,NA,form submission,12701.2,766093.5,766087.3,766103.9,778805.1,778805.3,2024-06-09T12:57:09Z,778812.3,NULL,Spionage,upelelezi,d,NA,NA,NA,upelelezi,NA,NA,4,NA,NA,NA,NA,NA,NA,NA,NA,NA,NA,NA,NA,NA,NA,NA,NA,NA,NA,NA
c9347,"""Richtig""-Screen",canvas.Screen,3_0_4_0_7_0_1,NA,NA,timeout,4997.2999999999,778808.3,778796.354,778812.3,783792.9,783793.7,2024-06-09T12:57:14Z,783809.6,NULL,Spionage,upelelezi,d,NA,NA,NA,NA,sd,1,4,NA,NA,NA,NA,NA,NA,NA,NA,NA,NA,NA,NA,NA,NA,NA,NA,NA,NA,NA
c9347,"""Falsch""-Screen",canvas.Screen,3_0_4_0_7_0_2,NA,NA,skipped,NA,783799.1,NA,NA,783792.9,783799.2,2024-06-09T12:57:14Z,783809.6,NULL,Spionage,upelelezi,d,NA,NA,NA,NA,sd,NA,4,NA,NA,NA,NA,NA,NA,NA,NA,NA,NA,NA,NA,NA,NA,NA,NA,NA,NA,NA
c9347,deep,flow.Sequence,3_0_4_0_7_0,NA,NA,completion,17689,766093.5,766087.3,766103.9,783792.9,783799.3,2024-06-09T12:57:14Z,783809.6,NULL,Spionage,upelelezi,d,NA,NA,NA,NA,sd,NA,4,NA,NA,NA,NA,NA,NA,NA,NA,NA,NA,NA,NA,NA,NA,NA,NA,NA,NA,NA
c9347,shallow,flow.Sequence,3_0_4_0_7_1,NA,NA,skipped,NA,783799.4,NA,NA,783792.9,783799.4,2024-06-09T12:57:14Z,783809.6,NULL,Spionage,upelelezi,d,NA,NA,NA,NA,sd,NA,4,NA,NA,NA,NA,NA,NA,NA,NA,NA,NA,NA,NA,NA,NA,NA,NA,NA,NA,NA
c9347,task,flow.Sequence,3_0_4_0_7,NA,NA,completion,17689,766093.5,766087.3,766103.9,783792.9,783799.5,2024-06-09T12:57:14Z,783809.6,NULL,Spionage,upelelezi,d,NA,NA,NA,NA,sd,NA,4,NA,NA,NA,NA,NA,NA,NA,NA,NA,NA,NA,NA,NA,NA,NA,NA,NA,NA,NA
c9347,block,flow.Loop,3_0_4_0,NA,NA,completion,133868.6,649921.2,649915.476,649924.3,783792.9,783799.5,2024-06-09T12:57:14Z,783809.6,NULL,NA,NA,NA,NA,NA,NA,NA,sd,NA,4,NA,NA,NA,NA,NA,NA,NA,NA,NA,NA,NA,NA,NA,NA,NA,NA,NA,NA,NA
c9347,weiter,canvas.Screen,3_0_4_1,sdf,keypress(Space),response,874.2000000003,783799.5,783792.9,783809.6,784683.8,784684.7,2024-06-09T12:57:15Z,785008.8,NULL,NA,NA,NA,NA,NA,NA,NA,sd,NA,4,NA,NA,NA,NA,NA,NA,NA,NA,NA,NA,NA,NA,NA,NA,NA,NA,NA,NA,NA
c9347,check continue,flow.Sequence,3_0_4,NA,NA,completion,134759.5,649921.2,649915.476,649924.3,784683.8,784684.9,2024-06-09T12:57:15Z,785008.8,NULL,NA,NA,NA,NA,NA,NA,NA,sd,NA,4,NA,NA,NA,NA,NA,NA,NA,NA,NA,NA,NA,NA,NA,NA,NA,NA,NA,NA,NA
c9347,check continue,flow.Sequence,3_0_5,NA,NA,skipped,NA,784703.3,NA,NA,784683.8,784703.4,2024-06-09T12:57:15Z,785008.8,NULL,NA,NA,NA,NA,NA,NA,NA,sdf,NA,5,NA,NA,NA,NA,NA,NA,NA,NA,NA,NA,NA,NA,NA,NA,NA,NA,NA,NA,NA
c9347,check continue,flow.Sequence,3_0_6,NA,NA,skipped,NA,784722,NA,NA,784683.8,784722.2,2024-06-09T12:57:15Z,785008.8,NULL,NA,NA,NA,NA,NA,NA,NA,dfs,NA,6,NA,NA,NA,NA,NA,NA,NA,NA,NA,NA,NA,NA,NA,NA,NA,NA,NA,NA,NA
c9347,check continue,flow.Sequence,3_0_7,NA,NA,skipped,NA,784735.3,NA,NA,784683.8,784735.4,2024-06-09T12:57:15Z,785008.8,NULL,NA,NA,NA,NA,NA,NA,NA,df,NA,7,NA,NA,NA,NA,NA,NA,NA,NA,NA,NA,NA,NA,NA,NA,NA,NA,NA,NA,NA
c9347,check continue,flow.Sequence,3_0_8,NA,NA,skipped,NA,784748.7,NA,NA,784683.8,784748.7,2024-06-09T12:57:15Z,785008.8,NULL,NA,NA,NA,NA,NA,NA,NA,dfs,NA,8,NA,NA,NA,NA,NA,NA,NA,NA,NA,NA,NA,NA,NA,NA,NA,NA,NA,NA,NA
c9347,check continue,flow.Sequence,3_0_9,NA,NA,skipped,NA,784761.7,NA,NA,784683.8,784761.8,2024-06-09T12:57:15Z,785008.8,NULL,NA,NA,NA,NA,NA,NA,NA,dsf,NA,9,NA,NA,NA,NA,NA,NA,NA,NA,NA,NA,NA,NA,NA,NA,NA,NA,NA,NA,NA
c9347,check continue,flow.Sequence,3_0_10,NA,NA,skipped,NA,784773.8,NA,NA,784683.8,784773.9,2024-06-09T12:57:15Z,785008.8,NULL,NA,NA,NA,NA,NA,NA,NA,df,NA,10,NA,NA,NA,NA,NA,NA,NA,NA,NA,NA,NA,NA,NA,NA,NA,NA,NA,NA,NA
c9347,check continue,flow.Sequence,3_0_11,NA,NA,skipped,NA,784787.1,NA,NA,784683.8,784787.1,2024-06-09T12:57:15Z,785008.8,NULL,NA,NA,NA,NA,NA,NA,NA,dfs,NA,11,NA,NA,NA,NA,NA,NA,NA,NA,NA,NA,NA,NA,NA,NA,NA,NA,NA,NA,NA
c9347,check continue,flow.Sequence,3_0_12,NA,NA,skipped,NA,784800.2,NA,NA,784683.8,784800.2,2024-06-09T12:57:15Z,785008.8,NULL,NA,NA,NA,NA,NA,NA,NA,dsf,NA,12,NA,NA,NA,NA,NA,NA,NA,NA,NA,NA,NA,NA,NA,NA,NA,NA,NA,NA,NA
c9347,check continue,flow.Sequence,3_0_13,NA,NA,skipped,NA,784811.9,NA,NA,784683.8,784812,2024-06-09T12:57:15Z,785008.8,NULL,NA,NA,NA,NA,NA,NA,NA,dsf,NA,13,NA,NA,NA,NA,NA,NA,NA,NA,NA,NA,NA,NA,NA,NA,NA,NA,NA,NA,NA
c9347,check continue,flow.Sequence,3_0_14,NA,NA,skipped,NA,784824.2,NA,NA,784683.8,784824.3,2024-06-09T12:57:15Z,785008.8,NULL,NA,NA,NA,NA,NA,NA,NA,NA,NA,14,NA,NA,NA,NA,NA,NA,NA,NA,NA,NA,NA,NA,NA,NA,NA,NA,NA,NA,NA
c9347,check continue,flow.Sequence,3_0_15,NA,NA,skipped,NA,784835.4,NA,NA,784683.8,784835.4,2024-06-09T12:57:15Z,785008.8,NULL,NA,NA,NA,NA,NA,NA,NA,NA,NA,15,NA,NA,NA,NA,NA,NA,NA,NA,NA,NA,NA,NA,NA,NA,NA,NA,NA,NA,NA
c9347,check continue,flow.Sequence,3_0_16,NA,NA,skipped,NA,784847.5,NA,NA,784683.8,784847.5,2024-06-09T12:57:15Z,785008.8,NULL,NA,NA,NA,NA,NA,NA,NA,NA,NA,16,NA,NA,NA,NA,NA,NA,NA,NA,NA,NA,NA,NA,NA,NA,NA,NA,NA,NA,NA
c9347,check continue,flow.Sequence,3_0_17,NA,NA,skipped,NA,784859.6,NA,NA,784683.8,784859.6,2024-06-09T12:57:15Z,785008.8,NULL,NA,NA,NA,NA,NA,NA,NA,NA,NA,17,NA,NA,NA,NA,NA,NA,NA,NA,NA,NA,NA,NA,NA,NA,NA,NA,NA,NA,NA
c9347,check continue,flow.Sequence,3_0_18,NA,NA,skipped,NA,784870.3,NA,NA,784683.8,784870.4,2024-06-09T12:57:15Z,785008.8,NULL,NA,NA,NA,NA,NA,NA,NA,NA,NA,18,NA,NA,NA,NA,NA,NA,NA,NA,NA,NA,NA,NA,NA,NA,NA,NA,NA,NA,NA
c9347,check continue,flow.Sequence,3_0_19,NA,NA,skipped,NA,784882.1,NA,NA,784683.8,784882.2,2024-06-09T12:57:15Z,785008.8,NULL,NA,NA,NA,NA,NA,NA,NA,NA,NA,19,NA,NA,NA,NA,NA,NA,NA,NA,NA,NA,NA,NA,NA,NA,NA,NA,NA,NA,NA
c9347,check continue,flow.Sequence,3_0_20,NA,NA,skipped,NA,784894,NA,NA,784683.8,784894.1,2024-06-09T12:57:15Z,785008.8,NULL,NA,NA,NA,NA,NA,NA,NA,NA,NA,20,NA,NA,NA,NA,NA,NA,NA,NA,NA,NA,NA,NA,NA,NA,NA,NA,NA,NA,NA
c9347,check continue,flow.Sequence,3_0_21,NA,NA,skipped,NA,784906.2,NA,NA,784683.8,784906.2,2024-06-09T12:57:15Z,785008.8,NULL,NA,NA,NA,NA,NA,NA,NA,NA,NA,21,NA,NA,NA,NA,NA,NA,NA,NA,NA,NA,NA,NA,NA,NA,NA,NA,NA,NA,NA
c9347,check continue,flow.Sequence,3_0_22,NA,NA,skipped,NA,784917.6,NA,NA,784683.8,784917.6,2024-06-09T12:57:15Z,785008.8,NULL,NA,NA,NA,NA,NA,NA,NA,NA,NA,22,NA,NA,NA,NA,NA,NA,NA,NA,NA,NA,NA,NA,NA,NA,NA,NA,NA,NA,NA
c9347,check continue,flow.Sequence,3_0_23,NA,NA,skipped,NA,784927.9,NA,NA,784683.8,784928,2024-06-09T12:57:15Z,785008.8,NULL,NA,NA,NA,NA,NA,NA,NA,NA,NA,23,NA,NA,NA,NA,NA,NA,NA,NA,NA,NA,NA,NA,NA,NA,NA,NA,NA,NA,NA
c9347,check continue,flow.Sequence,3_0_24,NA,NA,skipped,NA,784939.6,NA,NA,784683.8,784939.7,2024-06-09T12:57:15Z,785008.8,NULL,NA,NA,NA,NA,NA,NA,NA,NA,NA,24,NA,NA,NA,NA,NA,NA,NA,NA,NA,NA,NA,NA,NA,NA,NA,NA,NA,NA,NA
c9347,check continue,flow.Sequence,3_0_25,NA,NA,skipped,NA,784950.2,NA,NA,784683.8,784950.3,2024-06-09T12:57:15Z,785008.8,NULL,NA,NA,NA,NA,NA,NA,NA,NA,NA,25,NA,NA,NA,NA,NA,NA,NA,NA,NA,NA,NA,NA,NA,NA,NA,NA,NA,NA,NA
c9347,check continue,flow.Sequence,3_0_26,NA,NA,skipped,NA,784961.5,NA,NA,784683.8,784961.5,2024-06-09T12:57:15Z,785008.8,NULL,NA,NA,NA,NA,NA,NA,NA,NA,NA,26,NA,NA,NA,NA,NA,NA,NA,NA,NA,NA,NA,NA,NA,NA,NA,NA,NA,NA,NA
c9347,check continue,flow.Sequence,3_0_27,NA,NA,skipped,NA,784972,NA,NA,784683.8,784972,2024-06-09T12:57:15Z,785008.8,NULL,NA,NA,NA,NA,NA,NA,NA,NA,NA,27,NA,NA,NA,NA,NA,NA,NA,NA,NA,NA,NA,NA,NA,NA,NA,NA,NA,NA,NA
c9347,check continue,flow.Sequence,3_0_28,NA,NA,skipped,NA,784983.9,NA,NA,784683.8,784983.9,2024-06-09T12:57:15Z,785008.8,NULL,NA,NA,NA,NA,NA,NA,NA,NA,NA,28,NA,NA,NA,NA,NA,NA,NA,NA,NA,NA,NA,NA,NA,NA,NA,NA,NA,NA,NA
c9347,check continue,flow.Sequence,3_0_29,NA,NA,skipped,NA,784994.7,NA,NA,784683.8,784994.8,2024-06-09T12:57:16Z,785008.8,NULL,NA,NA,NA,NA,NA,NA,NA,NA,NA,29,NA,NA,NA,NA,NA,NA,NA,NA,NA,NA,NA,NA,NA,NA,NA,NA,NA,NA,NA
c9347,until continue,flow.Loop,3_0,NA,NA,completion,682059.1,102590.5,102608.73,102624.7,784683.8,784995,2024-06-09T12:57:16Z,785008.8,NULL,NA,NA,NA,NA,NA,NA,NA,NA,NA,NA,NA,NA,NA,NA,NA,NA,NA,NA,NA,NA,NA,NA,NA,NA,NA,NA,NA,NA,NA
c9347,block 1,flow.Sequence,3,NA,NA,completion,682059.1,102590.5,102608.73,102624.7,784683.8,784995,2024-06-09T12:57:16Z,785008.8,NULL,NA,NA,NA,NA,NA,NA,NA,NA,NA,NA,NA,NA,NA,NA,NA,NA,NA,NA,NA,NA,NA,NA,NA,NA,NA,NA,NA,NA,NA
c9347,1.Part Over,canvas.Screen,4,NA,keypress(Space),response,8893.2000000004009,784995,784993.8,785008.8,793902,793903,2024-06-09T12:57:24Z,793986.7,NULL,NA,NA,NA,NA,NA,NA,NA,NA,NA,NA,NA,NA,NA,NA,NA,NA,NA,NA,NA,NA,NA,NA,NA,NA,NA,NA,NA,NA,NA
c9347,deep,flow.Sequence,5_0_0_0_0_0,NA,NA,skipped,NA,793974.7,NA,NA,793902,793974.8,2024-06-09T12:57:24Z,793986.7,NULL,Fleisch,mshakiki,s,kizunguzungu,mshikamano,angusho,NA,sdf,NA,0,NA,NA,NA,NA,NA,NA,NA,NA,NA,NA,NA,NA,NA,NA,NA,NA,NA,NA,NA
c9347,Shallow Question,html.Page,5_0_0_0_0_1_0,NA,NA,form submission,17799.2,793974.8,793975.108,793986.7,811785.9,811786.2,2024-06-09T12:57:42Z,811792.1,NULL,Fleisch,mshakiki,s,kizunguzungu,mshikamano,angusho,mshakiki,NA,NA,0,NA,NA,NA,NA,NA,NA,NA,NA,NA,NA,NA,NA,NA,NA,NA,NA,NA,NA,NA
c9347,"""Richtig""-Screen",canvas.Screen,5_0_0_0_0_1_1,NA,NA,timeout,4997.7000000001,811789.4,811776.4,811792.1,816772.8,816773.7,2024-06-09T12:57:47Z,816789.8,NULL,Fleisch,mshakiki,s,kizunguzungu,mshikamano,angusho,NA,sdf,1,0,NA,NA,NA,NA,NA,NA,NA,NA,NA,NA,NA,NA,NA,NA,NA,NA,NA,NA,NA
c9347,"""Falsch""-Screen",canvas.Screen,5_0_0_0_0_1_2,NA,NA,skipped,NA,816778.8,NA,NA,816772.8,816778.9,2024-06-09T12:57:47Z,816789.8,NULL,Fleisch,mshakiki,s,kizunguzungu,mshikamano,angusho,NA,sdf,NA,0,NA,NA,NA,NA,NA,NA,NA,NA,NA,NA,NA,NA,NA,NA,NA,NA,NA,NA,NA
c9347,shallow,flow.Sequence,5_0_0_0_0_1,NA,NA,completion,22786.1,793974.8,793975.108,793986.7,816772.8,816779,2024-06-09T12:57:47Z,816789.8,NULL,Fleisch,mshakiki,s,kizunguzungu,mshikamano,angusho,NA,sdf,NA,0,NA,NA,NA,NA,NA,NA,NA,NA,NA,NA,NA,NA,NA,NA,NA,NA,NA,NA,NA
c9347,task,flow.Sequence,5_0_0_0_0,NA,NA,completion,22786.1,793974.7,793975.108,793986.7,816772.8,816779,2024-06-09T12:57:47Z,816789.8,NULL,Fleisch,mshakiki,s,kizunguzungu,mshikamano,angusho,NA,sdf,NA,0,NA,NA,NA,NA,NA,NA,NA,NA,NA,NA,NA,NA,NA,NA,NA,NA,NA,NA,NA
c9347,Deep Question,html.Page,5_0_0_0_1_0_0,NA,NA,form submission,3533.0000000002,816779.1,816772.8,816789.8,820322.8,820323,2024-06-09T12:57:51Z,820336.9,NULL,Genehmigung,idhini,d,NA,NA,NA,Genehmigung,NA,NA,0,NA,NA,NA,NA,NA,NA,NA,NA,NA,NA,NA,NA,NA,NA,NA,NA,NA,NA,NA
c9347,"""Richtig""-Screen",canvas.Screen,5_0_0_0_1_0_1,NA,NA,skipped,NA,820325.8,NA,NA,820322.8,820326,2024-06-09T12:57:51Z,820336.9,NULL,Genehmigung,idhini,d,NA,NA,NA,NA,sdf,NA,0,NA,NA,NA,NA,NA,NA,NA,NA,NA,NA,NA,NA,NA,NA,NA,NA,NA,NA,NA
c9347,"""Falsch""-Screen",canvas.Screen,5_0_0_0_1_0_2,NA,NA,timeout,4997.4,820327.1,820322.258,820336.9,825317.7,825318.7,2024-06-09T12:57:56Z,825334.3,NULL,Genehmigung,idhini,d,NA,NA,NA,NA,sdf,0,0,NA,NA,NA,NA,NA,NA,NA,NA,NA,NA,NA,NA,NA,NA,NA,NA,NA,NA,NA
c9347,deep,flow.Sequence,5_0_0_0_1_0,NA,NA,completion,8527.8999999999,816779.1,816772.8,816789.8,825317.7,825319,2024-06-09T12:57:56Z,825334.3,NULL,Genehmigung,idhini,d,NA,NA,NA,NA,sdf,NA,0,NA,NA,NA,NA,NA,NA,NA,NA,NA,NA,NA,NA,NA,NA,NA,NA,NA,NA,NA
c9347,shallow,flow.Sequence,5_0_0_0_1_1,NA,NA,skipped,NA,825319.2,NA,NA,825317.7,825319.4,2024-06-09T12:57:56Z,825334.3,NULL,Genehmigung,idhini,d,NA,NA,NA,NA,sdf,NA,0,NA,NA,NA,NA,NA,NA,NA,NA,NA,NA,NA,NA,NA,NA,NA,NA,NA,NA,NA
c9347,task,flow.Sequence,5_0_0_0_1,NA,NA,completion,8527.8999999999,816779.1,816772.8,816789.8,825317.7,825319.5,2024-06-09T12:57:56Z,825334.3,NULL,Genehmigung,idhini,d,NA,NA,NA,NA,sdf,NA,0,NA,NA,NA,NA,NA,NA,NA,NA,NA,NA,NA,NA,NA,NA,NA,NA,NA,NA,NA
c9347,deep,flow.Sequence,5_0_0_0_2_0,NA,NA,skipped,NA,825319.7,NA,NA,825317.7,825319.7,2024-06-09T12:57:56Z,825334.3,NULL,Integrität,uadilifu,s,muungano,mtiririko,upunguaji,NA,sdf,NA,0,NA,NA,NA,NA,NA,NA,NA,NA,NA,NA,NA,NA,NA,NA,NA,NA,NA,NA,NA
c9347,Shallow Question,html.Page,5_0_0_0_2_1_0,NA,NA,form submission,25655.5,825319.8,825317.7,825334.3,850989.8,850990,2024-06-09T12:58:21Z,851001.8,NULL,Integrität,uadilifu,s,muungano,mtiririko,upunguaji,upunguaji,NA,NA,0,NA,NA,NA,NA,NA,NA,NA,NA,NA,NA,NA,NA,NA,NA,NA,NA,NA,NA,NA
c9347,"""Richtig""-Screen",canvas.Screen,5_0_0_0_2_1_1,NA,NA,skipped,NA,850993,NA,NA,850989.8,850993.2,2024-06-09T12:58:22Z,851001.8,NULL,Integrität,uadilifu,s,muungano,mtiririko,upunguaji,NA,sdf,NA,0,NA,NA,NA,NA,NA,NA,NA,NA,NA,NA,NA,NA,NA,NA,NA,NA,NA,NA,NA
c9347,"""Falsch""-Screen",canvas.Screen,5_0_0_0_2_1_2,NA,NA,timeout,4997.2,850994.2,850986.9,851001.8,855982.2,855983.3,2024-06-09T12:58:26Z,855999,NULL,Integrität,uadilifu,s,muungano,mtiririko,upunguaji,NA,sdf,0,0,NA,NA,NA,NA,NA,NA,NA,NA,NA,NA,NA,NA,NA,NA,NA,NA,NA,NA,NA
c9347,shallow,flow.Sequence,5_0_0_0_2_1,NA,NA,completion,30647.9,825319.8,825317.7,825334.3,855982.2,855983.6,2024-06-09T12:58:26Z,855999,NULL,Integrität,uadilifu,s,muungano,mtiririko,upunguaji,NA,sdf,NA,0,NA,NA,NA,NA,NA,NA,NA,NA,NA,NA,NA,NA,NA,NA,NA,NA,NA,NA,NA
c9347,task,flow.Sequence,5_0_0_0_2,NA,NA,completion,30647.9,825319.6,825317.7,825334.3,855982.2,855983.8,2024-06-09T12:58:26Z,855999,NULL,Integrität,uadilifu,s,muungano,mtiririko,upunguaji,NA,sdf,NA,0,NA,NA,NA,NA,NA,NA,NA,NA,NA,NA,NA,NA,NA,NA,NA,NA,NA,NA,NA
c9347,Deep Question,html.Page,5_0_0_0_3_0_0,NA,NA,form submission,6928.1999999997,855984.1,855982.2,855999,862927.2,862927.5,2024-06-09T12:58:33Z,862944.8,NULL,Toleranz,kuvumiliana,d,NA,NA,NA,Toleranz,NA,NA,0,NA,NA,NA,NA,NA,NA,NA,NA,NA,NA,NA,NA,NA,NA,NA,NA,NA,NA,NA
c9347,"""Richtig""-Screen",canvas.Screen,5_0_0_0_3_0_1,NA,NA,skipped,NA,862930.7,NA,NA,862927.2,862930.8,2024-06-09T12:58:33Z,862944.8,NULL,Toleranz,kuvumiliana,d,NA,NA,NA,NA,sdf,NA,0,NA,NA,NA,NA,NA,NA,NA,NA,NA,NA,NA,NA,NA,NA,NA,NA,NA,NA,NA
c9347,"""Falsch""-Screen",canvas.Screen,5_0_0_0_3_0_2,NA,NA,timeout,4996.8999999999,862931.6,862928.81,862944.8,867924.8,867925.6,2024-06-09T12:58:38Z,867941.7,NULL,Toleranz,kuvumiliana,d,NA,NA,NA,NA,sdf,0,0,NA,NA,NA,NA,NA,NA,NA,NA,NA,NA,NA,NA,NA,NA,NA,NA,NA,NA,NA
c9347,deep,flow.Sequence,5_0_0_0_3_0,NA,NA,completion,11925.8,855984,855982.2,855999,867924.8,867926,2024-06-09T12:58:38Z,867941.7,NULL,Toleranz,kuvumiliana,d,NA,NA,NA,NA,sdf,NA,0,NA,NA,NA,NA,NA,NA,NA,NA,NA,NA,NA,NA,NA,NA,NA,NA,NA,NA,NA
c9347,shallow,flow.Sequence,5_0_0_0_3_1,NA,NA,skipped,NA,867926.1,NA,NA,867924.8,867926.2,2024-06-09T12:58:38Z,867941.7,NULL,Toleranz,kuvumiliana,d,NA,NA,NA,NA,sdf,NA,0,NA,NA,NA,NA,NA,NA,NA,NA,NA,NA,NA,NA,NA,NA,NA,NA,NA,NA,NA
c9347,task,flow.Sequence,5_0_0_0_3,NA,NA,completion,11925.8,855983.9,855982.2,855999,867924.8,867926.4,2024-06-09T12:58:38Z,867941.7,NULL,Toleranz,kuvumiliana,d,NA,NA,NA,NA,sdf,NA,0,NA,NA,NA,NA,NA,NA,NA,NA,NA,NA,NA,NA,NA,NA,NA,NA,NA,NA,NA
c9347,Deep Question,html.Page,5_0_0_0_4_0_0,NA,NA,form submission,5820.8000000005,867926.6,867924.8,867941.7,873762.5,873762.9,2024-06-09T12:58:44Z,873771.1,NULL,Schlange,foleni,d,NA,NA,NA,Schlange,NA,NA,0,NA,NA,NA,NA,NA,NA,NA,NA,NA,NA,NA,NA,NA,NA,NA,NA,NA,NA,NA
c9347,"""Richtig""-Screen",canvas.Screen,5_0_0_0_4_0_1,NA,NA,skipped,NA,873766.2,NA,NA,873762.5,873766.3,2024-06-09T12:58:44Z,873771.1,NULL,Schlange,foleni,d,NA,NA,NA,NA,sdf,NA,0,NA,NA,NA,NA,NA,NA,NA,NA,NA,NA,NA,NA,NA,NA,NA,NA,NA,NA,NA
c9347,"""Falsch""-Screen",canvas.Screen,5_0_0_0_4_0_2,NA,NA,timeout,4997.2000000001,873767.5,873754.958,873771.1,878751.5,878752.4,2024-06-09T12:58:49Z,878768.3,NULL,Schlange,foleni,d,NA,NA,NA,NA,sdf,0,0,NA,NA,NA,NA,NA,NA,NA,NA,NA,NA,NA,NA,NA,NA,NA,NA,NA,NA,NA
c9347,deep,flow.Sequence,5_0_0_0_4_0,NA,NA,completion,10809.8,867926.6,867924.8,867941.7,878751.5,878752.7,2024-06-09T12:58:49Z,878768.3,NULL,Schlange,foleni,d,NA,NA,NA,NA,sdf,NA,0,NA,NA,NA,NA,NA,NA,NA,NA,NA,NA,NA,NA,NA,NA,NA,NA,NA,NA,NA
c9347,shallow,flow.Sequence,5_0_0_0_4_1,NA,NA,skipped,NA,878752.8,NA,NA,878751.5,878753,2024-06-09T12:58:49Z,878768.3,NULL,Schlange,foleni,d,NA,NA,NA,NA,sdf,NA,0,NA,NA,NA,NA,NA,NA,NA,NA,NA,NA,NA,NA,NA,NA,NA,NA,NA,NA,NA
c9347,task,flow.Sequence,5_0_0_0_4,NA,NA,completion,10809.8,867926.5,867924.8,867941.7,878751.5,878753.2,2024-06-09T12:58:49Z,878768.3,NULL,Schlange,foleni,d,NA,NA,NA,NA,sdf,NA,0,NA,NA,NA,NA,NA,NA,NA,NA,NA,NA,NA,NA,NA,NA,NA,NA,NA,NA,NA
c9347,Deep Question,html.Page,5_0_0_0_5_0_0,NA,NA,form submission,12799.1,878753.3,878751.5,878768.3,891567.4,891567.6,2024-06-09T12:59:02Z,891576.9,NULL,Begegnung,kukutana,d,NA,NA,NA,Begegnung,NA,NA,0,NA,NA,NA,NA,NA,NA,NA,NA,NA,NA,NA,NA,NA,NA,NA,NA,NA,NA,NA
c9347,"""Richtig""-Screen",canvas.Screen,5_0_0_0_5_0_1,NA,NA,skipped,NA,891570.8,NA,NA,891567.4,891570.9,2024-06-09T12:59:02Z,891576.9,NULL,Begegnung,kukutana,d,NA,NA,NA,NA,sdf,NA,0,NA,NA,NA,NA,NA,NA,NA,NA,NA,NA,NA,NA,NA,NA,NA,NA,NA,NA,NA
c9347,"""Falsch""-Screen",canvas.Screen,5_0_0_0_5_0_2,NA,NA,timeout,4997.4,891572.1,891560.716,891576.9,896557.3,896559,2024-06-09T12:59:07Z,896574.3,NULL,Begegnung,kukutana,d,NA,NA,NA,NA,sdf,0,0,NA,NA,NA,NA,NA,NA,NA,NA,NA,NA,NA,NA,NA,NA,NA,NA,NA,NA,NA
c9347,deep,flow.Sequence,5_0_0_0_5_0,NA,NA,completion,17789,878753.3,878751.5,878768.3,896557.3,896559.6,2024-06-09T12:59:07Z,896574.3,NULL,Begegnung,kukutana,d,NA,NA,NA,NA,sdf,NA,0,NA,NA,NA,NA,NA,NA,NA,NA,NA,NA,NA,NA,NA,NA,NA,NA,NA,NA,NA
c9347,shallow,flow.Sequence,5_0_0_0_5_1,NA,NA,skipped,NA,896559.7,NA,NA,896557.3,896559.9,2024-06-09T12:59:07Z,896574.3,NULL,Begegnung,kukutana,d,NA,NA,NA,NA,sdf,NA,0,NA,NA,NA,NA,NA,NA,NA,NA,NA,NA,NA,NA,NA,NA,NA,NA,NA,NA,NA
c9347,task,flow.Sequence,5_0_0_0_5,NA,NA,completion,17789,878753.2,878751.5,878768.3,896557.3,896560,2024-06-09T12:59:07Z,896574.3,NULL,Begegnung,kukutana,d,NA,NA,NA,NA,sdf,NA,0,NA,NA,NA,NA,NA,NA,NA,NA,NA,NA,NA,NA,NA,NA,NA,NA,NA,NA,NA
c9347,deep,flow.Sequence,5_0_0_0_6_0,NA,NA,skipped,NA,896560.2,NA,NA,896557.3,896560.4,2024-06-09T12:59:07Z,896574.3,NULL,Inhalt,yaliyomo,s,kishawishi,hifadhi,kutembea,NA,sdf,NA,0,NA,NA,NA,NA,NA,NA,NA,NA,NA,NA,NA,NA,NA,NA,NA,NA,NA,NA,NA
c9347,Shallow Question,html.Page,5_0_0_0_6_1_0,NA,NA,form submission,24943.5,896560.5,896557.3,896574.3,921517.8,921518.1,2024-06-09T12:59:32Z,921525.3,NULL,Inhalt,yaliyomo,s,kishawishi,hifadhi,kutembea,kishawishi,NA,NA,0,NA,NA,NA,NA,NA,NA,NA,NA,NA,NA,NA,NA,NA,NA,NA,NA,NA,NA,NA
c9347,"""Richtig""-Screen",canvas.Screen,5_0_0_0_6_1_1,NA,NA,skipped,NA,921521.1,NA,NA,921517.8,921521.3,2024-06-09T12:59:32Z,921525.3,NULL,Inhalt,yaliyomo,s,kishawishi,hifadhi,kutembea,NA,sdf,NA,0,NA,NA,NA,NA,NA,NA,NA,NA,NA,NA,NA,NA,NA,NA,NA,NA,NA,NA,NA
c9347,"""Falsch""-Screen",canvas.Screen,5_0_0_0_6_1_2,NA,NA,timeout,4997.3999999999,921521.9,921509.538,921525.3,926505.9,926507,2024-06-09T12:59:37Z,926522.7,NULL,Inhalt,yaliyomo,s,kishawishi,hifadhi,kutembea,NA,sdf,0,0,NA,NA,NA,NA,NA,NA,NA,NA,NA,NA,NA,NA,NA,NA,NA,NA,NA,NA,NA
c9347,shallow,flow.Sequence,5_0_0_0_6_1,NA,NA,completion,29931.6,896560.4,896557.3,896574.3,926505.9,926507.4,2024-06-09T12:59:37Z,926522.7,NULL,Inhalt,yaliyomo,s,kishawishi,hifadhi,kutembea,NA,sdf,NA,0,NA,NA,NA,NA,NA,NA,NA,NA,NA,NA,NA,NA,NA,NA,NA,NA,NA,NA,NA
c9347,task,flow.Sequence,5_0_0_0_6,NA,NA,completion,29931.6,896560.2,896557.3,896574.3,926505.9,926507.7,2024-06-09T12:59:37Z,926522.7,NULL,Inhalt,yaliyomo,s,kishawishi,hifadhi,kutembea,NA,sdf,NA,0,NA,NA,NA,NA,NA,NA,NA,NA,NA,NA,NA,NA,NA,NA,NA,NA,NA,NA,NA
c9347,deep,flow.Sequence,5_0_0_0_7_0,NA,NA,skipped,NA,926507.8,NA,NA,926505.9,926507.9,2024-06-09T12:59:37Z,926522.7,NULL,Vermutung,udhanifu,s,haramia,tikisho,itifaki,NA,sdf,NA,0,NA,NA,NA,NA,NA,NA,NA,NA,NA,NA,NA,NA,NA,NA,NA,NA,NA,NA,NA
c9347,Shallow Question,html.Page,5_0_0_0_7_1_0,NA,NA,form submission,10166.300000001,926508.1,926505.9,926522.7,936689,936689.2,2024-06-09T12:59:47Z,936699.4,NULL,Vermutung,udhanifu,s,haramia,tikisho,itifaki,udhanifu,NA,NA,0,NA,NA,NA,NA,NA,NA,NA,NA,NA,NA,NA,NA,NA,NA,NA,NA,NA,NA,NA
c9347,"""Richtig""-Screen",canvas.Screen,5_0_0_0_7_1_1,NA,NA,timeout,4997,936692.3,936683.128,936699.4,941679.7,941680.6,2024-06-09T12:59:52Z,941696.4,NULL,Vermutung,udhanifu,s,haramia,tikisho,itifaki,NA,sdf,1,0,NA,NA,NA,NA,NA,NA,NA,NA,NA,NA,NA,NA,NA,NA,NA,NA,NA,NA,NA
c9347,"""Falsch""-Screen",canvas.Screen,5_0_0_0_7_1_2,NA,NA,skipped,NA,941685.8,NA,NA,941679.7,941686,2024-06-09T12:59:52Z,941696.4,NULL,Vermutung,udhanifu,s,haramia,tikisho,itifaki,NA,sdf,NA,0,NA,NA,NA,NA,NA,NA,NA,NA,NA,NA,NA,NA,NA,NA,NA,NA,NA,NA,NA
c9347,shallow,flow.Sequence,5_0_0_0_7_1,NA,NA,completion,15157,926508,926505.9,926522.7,941679.7,941686.1,2024-06-09T12:59:52Z,941696.4,NULL,Vermutung,udhanifu,s,haramia,tikisho,itifaki,NA,sdf,NA,0,NA,NA,NA,NA,NA,NA,NA,NA,NA,NA,NA,NA,NA,NA,NA,NA,NA,NA,NA
c9347,task,flow.Sequence,5_0_0_0_7,NA,NA,completion,15157,926507.8,926505.9,926522.7,941679.7,941686.1,2024-06-09T12:59:52Z,941696.4,NULL,Vermutung,udhanifu,s,haramia,tikisho,itifaki,NA,sdf,NA,0,NA,NA,NA,NA,NA,NA,NA,NA,NA,NA,NA,NA,NA,NA,NA,NA,NA,NA,NA
c9347,block,flow.Loop,5_0_0_0,NA,NA,completion,147693,793974.7,793975.108,793986.7,941679.7,941686.2,2024-06-09T12:59:52Z,941696.4,NULL,NA,NA,NA,NA,NA,NA,NA,sdf,NA,0,NA,NA,NA,NA,NA,NA,NA,NA,NA,NA,NA,NA,NA,NA,NA,NA,NA,NA,NA
c9347,weiter,canvas.Screen,5_0_0_1,sdf,keypress(Space),response,1195.2999999997,941686.2,941679.7,941696.4,942891.7,942893.5,2024-06-09T12:59:53Z,942913.018,NULL,NA,NA,NA,NA,NA,NA,NA,sdf,NA,0,NA,NA,NA,NA,NA,NA,NA,NA,NA,NA,NA,NA,NA,NA,NA,NA,NA,NA,NA
c9347,check continue,flow.Sequence,5_0_0,NA,NA,completion,148905,793974.6,793975.108,793986.7,942891.7,942893.9,2024-06-09T12:59:53Z,942913.018,NULL,NA,NA,NA,NA,NA,NA,NA,sdf,NA,0,NA,NA,NA,NA,NA,NA,NA,NA,NA,NA,NA,NA,NA,NA,NA,NA,NA,NA,NA
c9347,deep,flow.Sequence,5_0_1_0_0_0,NA,NA,skipped,NA,942922,NA,NA,942891.7,942922,2024-06-09T12:59:53Z,942913.018,NULL,Vermutung,udhanifu,s,haramia,tikisho,itifaki,NA,sdfdsf,NA,1,NA,NA,NA,NA,NA,NA,NA,NA,NA,NA,NA,NA,NA,NA,NA,NA,NA,NA,NA
c9347,Shallow Question,html.Page,5_0_1_0_0_1_0,NA,NA,form submission,5856.3819999999,942922.1,942913.018,942913.018,948769.4,948769.7,2024-06-09T12:59:59Z,948775.4,NULL,Vermutung,udhanifu,s,haramia,tikisho,itifaki,udhanifu,NA,NA,1,NA,NA,NA,NA,NA,NA,NA,NA,NA,NA,NA,NA,NA,NA,NA,NA,NA,NA,NA
c9347,"""Richtig""-Screen",canvas.Screen,5_0_1_0_0_1_1,NA,NA,timeout,4997.4,948772.7,948759.16,948775.4,953756,953756.9,2024-06-09T13:00:04Z,953772.8,NULL,Vermutung,udhanifu,s,haramia,tikisho,itifaki,NA,sdfdsf,1,1,NA,NA,NA,NA,NA,NA,NA,NA,NA,NA,NA,NA,NA,NA,NA,NA,NA,NA,NA
c9347,"""Falsch""-Screen",canvas.Screen,5_0_1_0_0_1_2,NA,NA,skipped,NA,953762.1,NA,NA,953756,953762.3,2024-06-09T13:00:04Z,953772.8,NULL,Vermutung,udhanifu,s,haramia,tikisho,itifaki,NA,sdfdsf,NA,1,NA,NA,NA,NA,NA,NA,NA,NA,NA,NA,NA,NA,NA,NA,NA,NA,NA,NA,NA
c9347,shallow,flow.Sequence,5_0_1_0_0_1,NA,NA,completion,10842.982,942922.1,942913.018,942913.018,953756,953762.4,2024-06-09T13:00:04Z,953772.8,NULL,Vermutung,udhanifu,s,haramia,tikisho,itifaki,NA,sdfdsf,NA,1,NA,NA,NA,NA,NA,NA,NA,NA,NA,NA,NA,NA,NA,NA,NA,NA,NA,NA,NA
c9347,task,flow.Sequence,5_0_1_0_0,NA,NA,completion,10842.982,942922,942913.018,942913.018,953756,953762.4,2024-06-09T13:00:04Z,953772.8,NULL,Vermutung,udhanifu,s,haramia,tikisho,itifaki,NA,sdfdsf,NA,1,NA,NA,NA,NA,NA,NA,NA,NA,NA,NA,NA,NA,NA,NA,NA,NA,NA,NA,NA
c9347,Deep Question,html.Page,5_0_1_0_1_0_0,NA,NA,form submission,4254.8999999997,953762.5,953756,953772.8,958027.7,958027.9,2024-06-09T13:00:09Z,958036.4,NULL,Toleranz,kuvumiliana,d,NA,NA,NA,Toleranz,NA,NA,1,NA,NA,NA,NA,NA,NA,NA,NA,NA,NA,NA,NA,NA,NA,NA,NA,NA,NA,NA
c9347,"""Richtig""-Screen",canvas.Screen,5_0_1_0_1_0_1,NA,NA,skipped,NA,958029.5,NA,NA,958027.7,958029.6,2024-06-09T13:00:09Z,958036.4,NULL,Toleranz,kuvumiliana,d,NA,NA,NA,NA,sdfdsf,NA,1,NA,NA,NA,NA,NA,NA,NA,NA,NA,NA,NA,NA,NA,NA,NA,NA,NA,NA,NA
c9347,"""Falsch""-Screen",canvas.Screen,5_0_1_0_1_0_2,NA,NA,timeout,4997.1,958030.1,958025.7,958036.4,963017,963017.8,2024-06-09T13:00:14Z,963033.5,NULL,Toleranz,kuvumiliana,d,NA,NA,NA,NA,sdfdsf,0,1,NA,NA,NA,NA,NA,NA,NA,NA,NA,NA,NA,NA,NA,NA,NA,NA,NA,NA,NA
c9347,deep,flow.Sequence,5_0_1_0_1_0,NA,NA,completion,9244.2,953762.5,953756,953772.8,963017,963018.2,2024-06-09T13:00:14Z,963033.5,NULL,Toleranz,kuvumiliana,d,NA,NA,NA,NA,sdfdsf,NA,1,NA,NA,NA,NA,NA,NA,NA,NA,NA,NA,NA,NA,NA,NA,NA,NA,NA,NA,NA
c9347,shallow,flow.Sequence,5_0_1_0_1_1,NA,NA,skipped,NA,963018.4,NA,NA,963017,963018.4,2024-06-09T13:00:14Z,963033.5,NULL,Toleranz,kuvumiliana,d,NA,NA,NA,NA,sdfdsf,NA,1,NA,NA,NA,NA,NA,NA,NA,NA,NA,NA,NA,NA,NA,NA,NA,NA,NA,NA,NA
c9347,task,flow.Sequence,5_0_1_0_1,NA,NA,completion,9244.2,953762.4,953756,953772.8,963017,963018.6,2024-06-09T13:00:14Z,963033.5,NULL,Toleranz,kuvumiliana,d,NA,NA,NA,NA,sdfdsf,NA,1,NA,NA,NA,NA,NA,NA,NA,NA,NA,NA,NA,NA,NA,NA,NA,NA,NA,NA,NA
c9347,Deep Question,html.Page,5_0_1_0_2_0_0,NA,NA,form submission,18218.3,963018.8,963017,963033.5,981251.8,981252.1,2024-06-09T13:00:32Z,981255.5,NULL,Genehmigung,idhini,d,NA,NA,NA,Genehmigung,NA,NA,1,NA,NA,NA,NA,NA,NA,NA,NA,NA,NA,NA,NA,NA,NA,NA,NA,NA,NA,NA
c9347,"""Richtig""-Screen",canvas.Screen,5_0_1_0_2_0_1,NA,NA,skipped,NA,981254.9,NA,NA,981251.8,981255,2024-06-09T13:00:32Z,981255.5,NULL,Genehmigung,idhini,d,NA,NA,NA,NA,sdfdsf,NA,1,NA,NA,NA,NA,NA,NA,NA,NA,NA,NA,NA,NA,NA,NA,NA,NA,NA,NA,NA
c9347,"""Falsch""-Screen",canvas.Screen,5_0_1_0_2_0_2,NA,NA,timeout,4997.5,981255.6,981252.94,981255.5,986236.2,986237.1,2024-06-09T13:00:37Z,986253,NULL,Genehmigung,idhini,d,NA,NA,NA,NA,sdfdsf,0,1,NA,NA,NA,NA,NA,NA,NA,NA,NA,NA,NA,NA,NA,NA,NA,NA,NA,NA,NA
c9347,deep,flow.Sequence,5_0_1_0_2_0,NA,NA,completion,23202.7,963018.8,963017,963033.5,986236.2,986237.4,2024-06-09T13:00:37Z,986253,NULL,Genehmigung,idhini,d,NA,NA,NA,NA,sdfdsf,NA,1,NA,NA,NA,NA,NA,NA,NA,NA,NA,NA,NA,NA,NA,NA,NA,NA,NA,NA,NA
c9347,shallow,flow.Sequence,5_0_1_0_2_1,NA,NA,skipped,NA,986237.5,NA,NA,986236.2,986237.6,2024-06-09T13:00:37Z,986253,NULL,Genehmigung,idhini,d,NA,NA,NA,NA,sdfdsf,NA,1,NA,NA,NA,NA,NA,NA,NA,NA,NA,NA,NA,NA,NA,NA,NA,NA,NA,NA,NA
c9347,task,flow.Sequence,5_0_1_0_2,NA,NA,completion,23202.7,963018.7,963017,963033.5,986236.2,986237.8,2024-06-09T13:00:37Z,986253,NULL,Genehmigung,idhini,d,NA,NA,NA,NA,sdfdsf,NA,1,NA,NA,NA,NA,NA,NA,NA,NA,NA,NA,NA,NA,NA,NA,NA,NA,NA,NA,NA
c9347,deep,flow.Sequence,5_0_1_0_3_0,NA,NA,skipped,NA,986237.9,NA,NA,986236.2,986238,2024-06-09T13:00:37Z,986253,NULL,Inhalt,yaliyomo,s,kishawishi,hifadhi,kutembea,NA,sdfdsf,NA,1,NA,NA,NA,NA,NA,NA,NA,NA,NA,NA,NA,NA,NA,NA,NA,NA,NA,NA,NA
