observation,sender,sender_type,sender_id,response,response_action,ended_on,duration,time_run,time_render,time_show,time_end,time_commit,timestamp,time_switch,german,swahili,enc,distractor1,distractor2,distractor3,response_2,x,correct,distractors,url_vp,url_sess,meta_labjs_version,meta_location,meta_user_agent,meta_platform,meta_language,meta_locale,meta_time_zone,meta_timezone_offset,meta_screen_width,meta_screen_height,meta_scroll_width,meta_scroll_height,meta_window_inner_width,meta_window_inner_height,meta_device_pixel_ratio,meta_labjs_build_flavor,meta_labjs_build_commit
567d1,Introduction delayed retrieval,canvas.Screen,0,weiter,keypress(Space),response,29161.12,1129,1199.58,1232.88,30394,30405,2023-06-03T12:21:04Z,30406.76,NA,NA,NA,NA,NA,NA,NA,NA,NA,NULL,121,4,20.2.4,https://neurocog.fernuni.ch/studies/vweber/delayed/index.html?vp=121&sess=4,Mozilla/5.0 (Macintosh; Intel Mac OS X 10.15; rv:109.0) Gecko/20100101 Firefox/113.0,MacIntel,de,de,Europe/Zurich,-120,1440,900,1440,714,1440,762,2,production,f5b4a49f956347addd546a832a3327688c2c0fef
567d1,Deep Question,html.Page,1_0_0_0,NA,NA,form submission,5453.24,30406,30406.46,30406.76,35860,35861,2023-06-03T12:21:10Z,35859.5,System,maongozi,d,chokochoko,nuksani,mitaani,mshandini,NA,NA,NULL,NA,NA,NA,NA,NA,NA,NA,NA,NA,NA,NA,NA,NA,NA,NA,NA,NA,NA,NA
567d1,Save data screen,canvas.Screen,1_0_0_1,NA,NA,timeout,506.36,35865,35859.24,35859.5,36349.26,36350,2023-06-03T12:21:10Z,36365.86,System,maongozi,d,chokochoko,nuksani,mitaani,NA,NA,0,NULL,NA,NA,NA,NA,NA,NA,NA,NA,NA,NA,NA,NA,NA,NA,NA,NA,NA,NA,NA
567d1,deep,flow.Sequence,1_0_0,NA,NA,completion,5942.5,30406,30406.46,30406.76,36349.26,36351,2023-06-03T12:21:10Z,36365.86,System,maongozi,d,chokochoko,nuksani,mitaani,NA,NA,NA,NULL,NA,NA,NA,NA,NA,NA,NA,NA,NA,NA,NA,NA,NA,NA,NA,NA,NA,NA,NA
567d1,task,flow.Sequence,1_0,NA,NA,completion,5942.5,30406,30406.46,30406.76,36349.26,36351,2023-06-03T12:21:10Z,36365.86,System,maongozi,d,chokochoko,nuksani,mitaani,NA,NA,NA,NULL,NA,NA,NA,NA,NA,NA,NA,NA,NA,NA,NA,NA,NA,NA,NA,NA,NA,NA,NA
567d1,Deep Question,html.Page,1_1_0_0,NA,NA,form submission,8318.14,36352,36349.26,36365.86,44684,44684,2023-06-03T12:21:18Z,44683.76,Kultur,utamaduni,s,shetani,gerezani,mazingira,Mshidani,NA,NA,NULL,NA,NA,NA,NA,NA,NA,NA,NA,NA,NA,NA,NA,NA,NA,NA,NA,NA,NA,NA
567d1,Save data screen,canvas.Screen,1_1_0_1,NA,NA,timeout,499.7,44687,44683.48,44683.76,45166.18,45167,2023-06-03T12:21:19Z,45183.46,Kultur,utamaduni,s,shetani,gerezani,mazingira,NA,NA,0,NULL,NA,NA,NA,NA,NA,NA,NA,NA,NA,NA,NA,NA,NA,NA,NA,NA,NA,NA,NA
567d1,deep,flow.Sequence,1_1_0,NA,NA,completion,8800.32,36352,36349.26,36365.86,45166.18,45167,2023-06-03T12:21:19Z,45183.46,Kultur,utamaduni,s,shetani,gerezani,mazingira,NA,NA,NA,NULL,NA,NA,NA,NA,NA,NA,NA,NA,NA,NA,NA,NA,NA,NA,NA,NA,NA,NA,NA
567d1,task,flow.Sequence,1_1,NA,NA,completion,8800.32,36352,36349.26,36365.86,45166.18,45168,2023-06-03T12:21:19Z,45183.46,Kultur,utamaduni,s,shetani,gerezani,mazingira,NA,NA,NA,NULL,NA,NA,NA,NA,NA,NA,NA,NA,NA,NA,NA,NA,NA,NA,NA,NA,NA,NA,NA
567d1,Deep Question,html.Page,1_2_0_0,NA,NA,form submission,6677.54,45168,45166.18,45183.46,51861,51862,2023-06-03T12:21:26Z,51861.36,Können,unaweza,d,kiongozi,bustani,mienendo,Mguaro,NA,NA,NULL,NA,NA,NA,NA,NA,NA,NA,NA,NA,NA,NA,NA,NA,NA,NA,NA,NA,NA,NA
567d1,Save data screen,canvas.Screen,1_2_0_1,NA,NA,timeout,505.32,51864,51861.08,51861.36,52350.02,52352,2023-06-03T12:21:26Z,52366.68,Können,unaweza,d,kiongozi,bustani,mienendo,NA,NA,0,NULL,NA,NA,NA,NA,NA,NA,NA,NA,NA,NA,NA,NA,NA,NA,NA,NA,NA,NA,NA
567d1,deep,flow.Sequence,1_2_0,NA,NA,completion,7166.56,45168,45166.18,45183.46,52350.02,52352,2023-06-03T12:21:26Z,52366.68,Können,unaweza,d,kiongozi,bustani,mienendo,NA,NA,NA,NULL,NA,NA,NA,NA,NA,NA,NA,NA,NA,NA,NA,NA,NA,NA,NA,NA,NA,NA,NA
567d1,task,flow.Sequence,1_2,NA,NA,completion,7166.56,45168,45166.18,45183.46,52350.02,52352,2023-06-03T12:21:26Z,52366.68,Können,unaweza,d,kiongozi,bustani,mienendo,NA,NA,NA,NULL,NA,NA,NA,NA,NA,NA,NA,NA,NA,NA,NA,NA,NA,NA,NA,NA,NA,NA,NA
567d1,Deep Question,html.Page,1_3_0_0,NA,NA,form submission,6447.32,52353,52350.02,52366.68,58814,58814,2023-06-03T12:21:33Z,58813.4,Lawine,banguko,d,maambukizi,usuluhishi,chekechea,bukualo,NA,NA,NULL,NA,NA,NA,NA,NA,NA,NA,NA,NA,NA,NA,NA,NA,NA,NA,NA,NA,NA,NA
567d1,Save data screen,canvas.Screen,1_3_0_1,NA,NA,timeout,502.98,58816,58813.14,58813.4,59299.06,59300,2023-06-03T12:21:33Z,59316.38,Lawine,banguko,d,maambukizi,usuluhishi,chekechea,NA,NA,0,NULL,NA,NA,NA,NA,NA,NA,NA,NA,NA,NA,NA,NA,NA,NA,NA,NA,NA,NA,NA
567d1,deep,flow.Sequence,1_3_0,NA,NA,completion,6932.38,52353,52350.02,52366.68,59299.06,59300,2023-06-03T12:21:33Z,59316.38,Lawine,banguko,d,maambukizi,usuluhishi,chekechea,NA,NA,NA,NULL,NA,NA,NA,NA,NA,NA,NA,NA,NA,NA,NA,NA,NA,NA,NA,NA,NA,NA,NA
567d1,task,flow.Sequence,1_3,NA,NA,completion,6932.38,52352,52350.02,52366.68,59299.06,59301,2023-06-03T12:21:33Z,59316.38,Lawine,banguko,d,maambukizi,usuluhishi,chekechea,NA,NA,NA,NULL,NA,NA,NA,NA,NA,NA,NA,NA,NA,NA,NA,NA,NA,NA,NA,NA,NA,NA,NA
567d1,Deep Question,html.Page,1_4_0_0,NA,NA,form submission,7584.62,59301,59299.06,59316.38,66901,66902,2023-06-03T12:21:41Z,66915.42,Prüfung,mtihani,d,mkulima,mtizamo,ufumbuzi,abhandani,NA,NA,NULL,NA,NA,NA,NA,NA,NA,NA,NA,NA,NA,NA,NA,NA,NA,NA,NA,NA,NA,NA
567d1,Save data screen,canvas.Screen,1_4_0_1,NA,NA,timeout,501.08,66902,66900.34,66915.42,67399.8,67401,2023-06-03T12:21:41Z,67416.5,Prüfung,mtihani,d,mkulima,mtizamo,ufumbuzi,NA,NA,0,NULL,NA,NA,NA,NA,NA,NA,NA,NA,NA,NA,NA,NA,NA,NA,NA,NA,NA,NA,NA
567d1,deep,flow.Sequence,1_4_0,NA,NA,completion,8083.42,59301,59299.06,59316.38,67399.8,67401,2023-06-03T12:21:41Z,67416.5,Prüfung,mtihani,d,mkulima,mtizamo,ufumbuzi,NA,NA,NA,NULL,NA,NA,NA,NA,NA,NA,NA,NA,NA,NA,NA,NA,NA,NA,NA,NA,NA,NA,NA
567d1,task,flow.Sequence,1_4,NA,NA,completion,8083.42,59301,59299.06,59316.38,67399.8,67402,2023-06-03T12:21:41Z,67416.5,Prüfung,mtihani,d,mkulima,mtizamo,ufumbuzi,NA,NA,NA,NULL,NA,NA,NA,NA,NA,NA,NA,NA,NA,NA,NA,NA,NA,NA,NA,NA,NA,NA,NA
567d1,Deep Question,html.Page,1_5_0_0,NA,NA,form submission,5212.5,67402,67399.8,67416.5,72629,72629,2023-06-03T12:21:46Z,72628.24,Kanzler,diwani,s,rasilmali,mahitaji,maabudu,devani,NA,NA,NULL,NA,NA,NA,NA,NA,NA,NA,NA,NA,NA,NA,NA,NA,NA,NA,NA,NA,NA,NA
567d1,Save data screen,canvas.Screen,1_5_0_1,NA,NA,timeout,503.87999999999,72630,72627.96,72628.24,73115.68,73116,2023-06-03T12:21:47Z,73132.12,Kanzler,diwani,s,rasilmali,mahitaji,maabudu,NA,NA,0,NULL,NA,NA,NA,NA,NA,NA,NA,NA,NA,NA,NA,NA,NA,NA,NA,NA,NA,NA,NA
567d1,deep,flow.Sequence,1_5_0,NA,NA,completion,5699.18,67402,67399.8,67416.5,73115.68,73117,2023-06-03T12:21:47Z,73132.12,Kanzler,diwani,s,rasilmali,mahitaji,maabudu,NA,NA,NA,NULL,NA,NA,NA,NA,NA,NA,NA,NA,NA,NA,NA,NA,NA,NA,NA,NA,NA,NA,NA
567d1,task,flow.Sequence,1_5,NA,NA,completion,5699.18,67402,67399.8,67416.5,73115.68,73117,2023-06-03T12:21:47Z,73132.12,Kanzler,diwani,s,rasilmali,mahitaji,maabudu,NA,NA,NA,NULL,NA,NA,NA,NA,NA,NA,NA,NA,NA,NA,NA,NA,NA,NA,NA,NA,NA,NA,NA
567d1,Deep Question,html.Page,1_6_0_0,NA,NA,form submission,9706.88,73117,73115.68,73132.12,82839,82839,2023-06-03T12:21:57Z,82838.7,Kreativität,ubunifu,d,mratibu,mwendelezo,makubaliano,bahani,NA,NA,NULL,NA,NA,NA,NA,NA,NA,NA,NA,NA,NA,NA,NA,NA,NA,NA,NA,NA,NA,NA
567d1,Save data screen,canvas.Screen,1_6_0_1,NA,NA,timeout,510.38,82840,82838.42,82838.7,83331.82,83332,2023-06-03T12:21:57Z,83349.08,Kreativität,ubunifu,d,mratibu,mwendelezo,makubaliano,NA,NA,0,NULL,NA,NA,NA,NA,NA,NA,NA,NA,NA,NA,NA,NA,NA,NA,NA,NA,NA,NA,NA
567d1,deep,flow.Sequence,1_6_0,NA,NA,completion,10199.7,73117,73115.68,73132.12,83331.82,83332,2023-06-03T12:21:57Z,83349.08,Kreativität,ubunifu,d,mratibu,mwendelezo,makubaliano,NA,NA,NA,NULL,NA,NA,NA,NA,NA,NA,NA,NA,NA,NA,NA,NA,NA,NA,NA,NA,NA,NA,NA
567d1,task,flow.Sequence,1_6,NA,NA,completion,10199.7,73117,73115.68,73132.12,83331.82,83333,2023-06-03T12:21:57Z,83349.08,Kreativität,ubunifu,d,mratibu,mwendelezo,makubaliano,NA,NA,NA,NULL,NA,NA,NA,NA,NA,NA,NA,NA,NA,NA,NA,NA,NA,NA,NA,NA,NA,NA,NA
567d1,Deep Question,html.Page,1_7_0_0,NA,NA,form submission,3064.92,83333,83331.82,83349.08,86414,86414,2023-06-03T12:22:00Z,86413.42,Aufstand,ugomaji,d,mazidio,msingi,kujieleza,nimani,NA,NA,NULL,NA,NA,NA,NA,NA,NA,NA,NA,NA,NA,NA,NA,NA,NA,NA,NA,NA,NA,NA
567d1,Save data screen,canvas.Screen,1_7_0_1,NA,NA,timeout,502.36,86416,86413.12,86413.42,86899.54,86900,2023-06-03T12:22:01Z,86915.78,Aufstand,ugomaji,d,mazidio,msingi,kujieleza,NA,NA,0,NULL,NA,NA,NA,NA,NA,NA,NA,NA,NA,NA,NA,NA,NA,NA,NA,NA,NA,NA,NA
567d1,deep,flow.Sequence,1_7_0,NA,NA,completion,3550.46,83333,83331.82,83349.08,86899.54,86901,2023-06-03T12:22:01Z,86915.78,Aufstand,ugomaji,d,mazidio,msingi,kujieleza,NA,NA,NA,NULL,NA,NA,NA,NA,NA,NA,NA,NA,NA,NA,NA,NA,NA,NA,NA,NA,NA,NA,NA
567d1,task,flow.Sequence,1_7,NA,NA,completion,3550.46,83333,83331.82,83349.08,86899.54,86901,2023-06-03T12:22:01Z,86915.78,Aufstand,ugomaji,d,mazidio,msingi,kujieleza,NA,NA,NA,NULL,NA,NA,NA,NA,NA,NA,NA,NA,NA,NA,NA,NA,NA,NA,NA,NA,NA,NA,NA
567d1,Deep Question,html.Page,1_8_0_0,NA,NA,form submission,4647.22,86901,86899.54,86915.78,91563,91564,2023-06-03T12:22:05Z,91565.7,Übersicht,kilindo,s,mgusano,chipukizi,kulinganisha,nomani,NA,NA,NULL,NA,NA,NA,NA,NA,NA,NA,NA,NA,NA,NA,NA,NA,NA,NA,NA,NA,NA,NA
567d1,Save data screen,canvas.Screen,1_8_0_1,NA,NA,timeout,499.72,91565,91562.62,91565.7,92049.5,92050,2023-06-03T12:22:06Z,92065.42,Übersicht,kilindo,s,mgusano,chipukizi,kulinganisha,NA,NA,0,NULL,NA,NA,NA,NA,NA,NA,NA,NA,NA,NA,NA,NA,NA,NA,NA,NA,NA,NA,NA
567d1,deep,flow.Sequence,1_8_0,NA,NA,completion,5133.72,86901,86899.54,86915.78,92049.5,92050,2023-06-03T12:22:06Z,92065.42,Übersicht,kilindo,s,mgusano,chipukizi,kulinganisha,NA,NA,NA,NULL,NA,NA,NA,NA,NA,NA,NA,NA,NA,NA,NA,NA,NA,NA,NA,NA,NA,NA,NA
567d1,task,flow.Sequence,1_8,NA,NA,completion,5133.72,86901,86899.54,86915.78,92049.5,92050,2023-06-03T12:22:06Z,92065.42,Übersicht,kilindo,s,mgusano,chipukizi,kulinganisha,NA,NA,NA,NULL,NA,NA,NA,NA,NA,NA,NA,NA,NA,NA,NA,NA,NA,NA,NA,NA,NA,NA,NA
567d1,Deep Question,html.Page,1_9_0_0,NA,NA,form submission,7398.58,92051,92049.5,92065.42,99464,99465,2023-06-03T12:22:13Z,99464.34,Verzögerung,kuchelewa,s,mwakilishi,mwanauchumi,jaribio,mgomoro,NA,NA,NULL,NA,NA,NA,NA,NA,NA,NA,NA,NA,NA,NA,NA,NA,NA,NA,NA,NA,NA,NA
567d1,Save data screen,canvas.Screen,1_9_0_1,NA,NA,timeout,501.68000000001,99466,99464,99464.34,99949.4,99951,2023-06-03T12:22:14Z,99966.02,Verzögerung,kuchelewa,s,mwakilishi,mwanauchumi,jaribio,NA,NA,0,NULL,NA,NA,NA,NA,NA,NA,NA,NA,NA,NA,NA,NA,NA,NA,NA,NA,NA,NA,NA
567d1,deep,flow.Sequence,1_9_0,NA,NA,completion,7883.98,92051,92049.5,92065.42,99949.4,99951,2023-06-03T12:22:14Z,99966.02,Verzögerung,kuchelewa,s,mwakilishi,mwanauchumi,jaribio,NA,NA,NA,NULL,NA,NA,NA,NA,NA,NA,NA,NA,NA,NA,NA,NA,NA,NA,NA,NA,NA,NA,NA
567d1,task,flow.Sequence,1_9,NA,NA,completion,7883.98,92051,92049.5,92065.42,99949.4,99951,2023-06-03T12:22:14Z,99966.02,Verzögerung,kuchelewa,s,mwakilishi,mwanauchumi,jaribio,NA,NA,NA,NULL,NA,NA,NA,NA,NA,NA,NA,NA,NA,NA,NA,NA,NA,NA,NA,NA,NA,NA,NA
567d1,Deep Question,html.Page,1_10_0_0,NA,NA,form submission,7275.98,99951,99949.4,99966.02,107242,107242,2023-06-03T12:22:21Z,107241.38,Sänger,mwimbaji,d,msichana,shughuli,mshirika,mbajaki,NA,NA,NULL,NA,NA,NA,NA,NA,NA,NA,NA,NA,NA,NA,NA,NA,NA,NA,NA,NA,NA,NA
567d1,Save data screen,canvas.Screen,1_10_0_1,NA,NA,timeout,507.72,107243,107241.12,107241.38,107731.98,107734,2023-06-03T12:22:21Z,107749.1,Sänger,mwimbaji,d,msichana,shughuli,mshirika,NA,NA,0,NULL,NA,NA,NA,NA,NA,NA,NA,NA,NA,NA,NA,NA,NA,NA,NA,NA,NA,NA,NA
567d1,deep,flow.Sequence,1_10_0,NA,NA,completion,7765.96,99951,99949.4,99966.02,107731.98,107736,2023-06-03T12:22:21Z,107749.1,Sänger,mwimbaji,d,msichana,shughuli,mshirika,NA,NA,NA,NULL,NA,NA,NA,NA,NA,NA,NA,NA,NA,NA,NA,NA,NA,NA,NA,NA,NA,NA,NA
567d1,task,flow.Sequence,1_10,NA,NA,completion,7765.96,99951,99949.4,99966.02,107731.98,107737,2023-06-03T12:22:21Z,107749.1,Sänger,mwimbaji,d,msichana,shughuli,mshirika,NA,NA,NA,NULL,NA,NA,NA,NA,NA,NA,NA,NA,NA,NA,NA,NA,NA,NA,NA,NA,NA,NA,NA
567d1,Deep Question,html.Page,1_11_0_0,NA,NA,form submission,4152.9,107737,107731.98,107749.1,111902,111903,2023-06-03T12:22:26Z,111915.22,Gefährdung,kuhatarisha,s,uchokozi,udhaifu,makorowezo,nolani,NA,NA,NULL,NA,NA,NA,NA,NA,NA,NA,NA,NA,NA,NA,NA,NA,NA,NA,NA,NA,NA,NA
567d1,Save data screen,canvas.Screen,1_11_0_1,NA,NA,timeout,499.56,111907,111900.36,111915.22,112399.18,112401,2023-06-03T12:22:26Z,112414.78,Gefährdung,kuhatarisha,s,uchokozi,udhaifu,makorowezo,NA,NA,0,NULL,NA,NA,NA,NA,NA,NA,NA,NA,NA,NA,NA,NA,NA,NA,NA,NA,NA,NA,NA
567d1,deep,flow.Sequence,1_11_0,NA,NA,completion,4650.08,107737,107731.98,107749.1,112399.18,112401,2023-06-03T12:22:26Z,112414.78,Gefährdung,kuhatarisha,s,uchokozi,udhaifu,makorowezo,NA,NA,NA,NULL,NA,NA,NA,NA,NA,NA,NA,NA,NA,NA,NA,NA,NA,NA,NA,NA,NA,NA,NA
567d1,task,flow.Sequence,1_11,NA,NA,completion,4650.08,107737,107731.98,107749.1,112399.18,112401,2023-06-03T12:22:26Z,112414.78,Gefährdung,kuhatarisha,s,uchokozi,udhaifu,makorowezo,NA,NA,NA,NULL,NA,NA,NA,NA,NA,NA,NA,NA,NA,NA,NA,NA,NA,NA,NA,NA,NA,NA,NA
567d1,Deep Question,html.Page,1_12_0_0,NA,NA,form submission,7044.22,112401,112399.18,112414.78,119459,119460,2023-06-03T12:22:33Z,119457.38,Abrechnung,uhasibu,s,kusahihisha,mpambano,mashambulizi,abhandani,NA,NA,NULL,NA,NA,NA,NA,NA,NA,NA,NA,NA,NA,NA,NA,NA,NA,NA,NA,NA,NA,NA
567d1,Save data screen,canvas.Screen,1_12_0_1,NA,NA,timeout,491.73999999999,119464,119457.08,119457.38,119932.26,119933,2023-06-03T12:22:34Z,119949.12,Abrechnung,uhasibu,s,kusahihisha,mpambano,mashambulizi,NA,NA,0,NULL,NA,NA,NA,NA,NA,NA,NA,NA,NA,NA,NA,NA,NA,NA,NA,NA,NA,NA,NA
567d1,deep,flow.Sequence,1_12_0,NA,NA,completion,7517.48,112401,112399.18,112414.78,119932.26,119934,2023-06-03T12:22:34Z,119949.12,Abrechnung,uhasibu,s,kusahihisha,mpambano,mashambulizi,NA,NA,NA,NULL,NA,NA,NA,NA,NA,NA,NA,NA,NA,NA,NA,NA,NA,NA,NA,NA,NA,NA,NA
567d1,task,flow.Sequence,1_12,NA,NA,completion,7517.48,112401,112399.18,112414.78,119932.26,119934,2023-06-03T12:22:34Z,119949.12,Abrechnung,uhasibu,s,kusahihisha,mpambano,mashambulizi,NA,NA,NA,NULL,NA,NA,NA,NA,NA,NA,NA,NA,NA,NA,NA,NA,NA,NA,NA,NA,NA,NA,NA
567d1,Deep Question,html.Page,1_13_0_0,NA,NA,form submission,10415.88,119935,119932.26,119949.12,130365,130365,2023-06-03T12:22:44Z,130364.8,Angreifer,mshambulizi,d,kitengo,tasinia,usafirishaji,wasulelee,NA,NA,NULL,NA,NA,NA,NA,NA,NA,NA,NA,NA,NA,NA,NA,NA,NA,NA,NA,NA,NA,NA
567d1,Save data screen,canvas.Screen,1_13_0_1,NA,NA,timeout,500.22,130367,130364.54,130364.8,130848.06,130849,2023-06-03T12:22:45Z,130865.02,Angreifer,mshambulizi,d,kitengo,tasinia,usafirishaji,NA,NA,0,NULL,NA,NA,NA,NA,NA,NA,NA,NA,NA,NA,NA,NA,NA,NA,NA,NA,NA,NA,NA
567d1,deep,flow.Sequence,1_13_0,NA,NA,completion,10898.94,119935,119932.26,119949.12,130848.06,130850,2023-06-03T12:22:45Z,130865.02,Angreifer,mshambulizi,d,kitengo,tasinia,usafirishaji,NA,NA,NA,NULL,NA,NA,NA,NA,NA,NA,NA,NA,NA,NA,NA,NA,NA,NA,NA,NA,NA,NA,NA
567d1,task,flow.Sequence,1_13,NA,NA,completion,10898.94,119935,119932.26,119949.12,130848.06,130850,2023-06-03T12:22:45Z,130865.02,Angreifer,mshambulizi,d,kitengo,tasinia,usafirishaji,NA,NA,NA,NULL,NA,NA,NA,NA,NA,NA,NA,NA,NA,NA,NA,NA,NA,NA,NA,NA,NA,NA,NA
567d1,Deep Question,html.Page,1_14_0_0,NA,NA,form submission,3537.98,130851,130848.06,130865.02,134403,134403,2023-06-03T12:22:48Z,134415.22,Körper,kiwiliwili,s,mapambano,mpatanishi,kiolezo,abhandani,NA,NA,NULL,NA,NA,NA,NA,NA,NA,NA,NA,NA,NA,NA,NA,NA,NA,NA,NA,NA,NA,NA
567d1,Save data screen,canvas.Screen,1_14_0_1,NA,NA,timeout,499.13999999998,134405,134401.92,134415.22,134897.86,134898,2023-06-03T12:22:49Z,134914.36,Körper,kiwiliwili,s,mapambano,mpatanishi,kiolezo,NA,NA,0,NULL,NA,NA,NA,NA,NA,NA,NA,NA,NA,NA,NA,NA,NA,NA,NA,NA,NA,NA,NA
567d1,deep,flow.Sequence,1_14_0,NA,NA,completion,4032.84,130850,130848.06,130865.02,134897.86,134898,2023-06-03T12:22:49Z,134914.36,Körper,kiwiliwili,s,mapambano,mpatanishi,kiolezo,NA,NA,NA,NULL,NA,NA,NA,NA,NA,NA,NA,NA,NA,NA,NA,NA,NA,NA,NA,NA,NA,NA,NA
567d1,task,flow.Sequence,1_14,NA,NA,completion,4032.84,130850,130848.06,130865.02,134897.86,134898,2023-06-03T12:22:49Z,134914.36,Körper,kiwiliwili,s,mapambano,mpatanishi,kiolezo,NA,NA,NA,NULL,NA,NA,NA,NA,NA,NA,NA,NA,NA,NA,NA,NA,NA,NA,NA,NA,NA,NA,NA
567d1,Deep Question,html.Page,1_15_0_0,NA,NA,form submission,2297.64,134898,134897.86,134914.36,137212,137212,2023-06-03T12:22:51Z,137211.32,Kontrolle,kudhibiti,s,mbinguni,kufunga,utegemezi,nomani,NA,NA,NULL,NA,NA,NA,NA,NA,NA,NA,NA,NA,NA,NA,NA,NA,NA,NA,NA,NA,NA,NA
567d1,Save data screen,canvas.Screen,1_15_0_1,NA,NA,timeout,504.03999999998,137213,137211.08,137211.32,137698.84,137699,2023-06-03T12:22:51Z,137715.36,Kontrolle,kudhibiti,s,mbinguni,kufunga,utegemezi,NA,NA,0,NULL,NA,NA,NA,NA,NA,NA,NA,NA,NA,NA,NA,NA,NA,NA,NA,NA,NA,NA,NA
567d1,deep,flow.Sequence,1_15_0,NA,NA,completion,2784.48,134898,134897.86,134914.36,137698.84,137700,2023-06-03T12:22:51Z,137715.36,Kontrolle,kudhibiti,s,mbinguni,kufunga,utegemezi,NA,NA,NA,NULL,NA,NA,NA,NA,NA,NA,NA,NA,NA,NA,NA,NA,NA,NA,NA,NA,NA,NA,NA
567d1,task,flow.Sequence,1_15,NA,NA,completion,2784.48,134898,134897.86,134914.36,137698.84,137700,2023-06-03T12:22:51Z,137715.36,Kontrolle,kudhibiti,s,mbinguni,kufunga,utegemezi,NA,NA,NA,NULL,NA,NA,NA,NA,NA,NA,NA,NA,NA,NA,NA,NA,NA,NA,NA,NA,NA,NA,NA
567d1,retrieval block 1 (cued recall),flow.Loop,1,NA,NA,completion,107292.08,30406,30406.46,30406.76,137698.84,137701,2023-06-03T12:22:51Z,137715.36,NA,NA,NA,NA,NA,NA,NA,NA,NA,NULL,NA,NA,NA,NA,NA,NA,NA,NA,NA,NA,NA,NA,NA,NA,NA,NA,NA,NA,NA
567d1,Shallow Question,html.Page,2_0_0_0,NA,NA,form submission,11772.64,137701,137698.84,137715.36,149488,149488,2023-06-03T12:23:03Z,149497.98,Angreifer,mshambulizi,d,kitengo,tasinia,usafirishaji,mshambulizi,NA,NA,"c(""distractor1"", ""distractor2"", ""distractor3"")",NA,NA,NA,NA,NA,NA,NA,NA,NA,NA,NA,NA,NA,NA,NA,NA,NA,NA,NA
567d1,Save data screen,canvas.Screen,2_0_0_1,NA,NA,timeout,500.69999999998,149490,149484.68,149497.98,149982,149983,2023-06-03T12:23:04Z,149998.68,Angreifer,mshambulizi,d,kitengo,tasinia,usafirishaji,NA,NA,1,"c(""distractor1"", ""distractor2"", ""distractor3"")",NA,NA,NA,NA,NA,NA,NA,NA,NA,NA,NA,NA,NA,NA,NA,NA,NA,NA,NA
567d1,shallow,flow.Sequence,2_0_0,NA,NA,completion,12266.64,137701,137698.84,137715.36,149982,149983,2023-06-03T12:23:04Z,149998.68,Angreifer,mshambulizi,d,kitengo,tasinia,usafirishaji,NA,NA,NA,"c(""distractor1"", ""distractor2"", ""distractor3"")",NA,NA,NA,NA,NA,NA,NA,NA,NA,NA,NA,NA,NA,NA,NA,NA,NA,NA,NA
567d1,task,flow.Sequence,2_0,NA,NA,completion,12266.64,137701,137698.84,137715.36,149982,149984,2023-06-03T12:23:04Z,149998.68,Angreifer,mshambulizi,d,kitengo,tasinia,usafirishaji,NA,NA,NA,"c(""distractor1"", ""distractor2"", ""distractor3"")",NA,NA,NA,NA,NA,NA,NA,NA,NA,NA,NA,NA,NA,NA,NA,NA,NA,NA,NA
567d1,Shallow Question,html.Page,2_1_0_0,NA,NA,form submission,5984.32,149984,149982,149998.68,155983,155983,2023-06-03T12:23:10Z,156014.48,System,maongozi,d,chokochoko,nuksani,mitaani,maongozi,NA,NA,"c(""distractor1"", ""distractor2"", ""distractor3"")",NA,NA,NA,NA,NA,NA,NA,NA,NA,NA,NA,NA,NA,NA,NA,NA,NA,NA,NA
567d1,Save data screen,canvas.Screen,2_1_0_1,NA,NA,timeout,499.87999999998,155985,155981.38,156014.48,156497.92,156499,2023-06-03T12:23:10Z,156514.36,System,maongozi,d,chokochoko,nuksani,mitaani,NA,NA,1,"c(""distractor1"", ""distractor2"", ""distractor3"")",NA,NA,NA,NA,NA,NA,NA,NA,NA,NA,NA,NA,NA,NA,NA,NA,NA,NA,NA
567d1,shallow,flow.Sequence,2_1_0,NA,NA,completion,6499.24,149984,149982,149998.68,156497.92,156499,2023-06-03T12:23:10Z,156514.36,System,maongozi,d,chokochoko,nuksani,mitaani,NA,NA,NA,"c(""distractor1"", ""distractor2"", ""distractor3"")",NA,NA,NA,NA,NA,NA,NA,NA,NA,NA,NA,NA,NA,NA,NA,NA,NA,NA,NA
567d1,task,flow.Sequence,2_1,NA,NA,completion,6499.24,149984,149982,149998.68,156497.92,156499,2023-06-03T12:23:10Z,156514.36,System,maongozi,d,chokochoko,nuksani,mitaani,NA,NA,NA,"c(""distractor1"", ""distractor2"", ""distractor3"")",NA,NA,NA,NA,NA,NA,NA,NA,NA,NA,NA,NA,NA,NA,NA,NA,NA,NA,NA
567d1,Shallow Question,html.Page,2_2_0_0,NA,NA,form submission,7254.64,156499,156497.92,156514.36,163769,163770,2023-06-03T12:23:17Z,163781.82,Gefährdung,kuhatarisha,s,uchokozi,udhaifu,makorowezo,kuhatarisha,NA,NA,"c(""distractor1"", ""distractor2"", ""distractor3"")",NA,NA,NA,NA,NA,NA,NA,NA,NA,NA,NA,NA,NA,NA,NA,NA,NA,NA,NA
567d1,Save data screen,canvas.Screen,2_2_0_1,NA,NA,timeout,500,163771,163767.04,163781.82,164264.88,164266,2023-06-03T12:23:18Z,164281.82,Gefährdung,kuhatarisha,s,uchokozi,udhaifu,makorowezo,NA,NA,1,"c(""distractor1"", ""distractor2"", ""distractor3"")",NA,NA,NA,NA,NA,NA,NA,NA,NA,NA,NA,NA,NA,NA,NA,NA,NA,NA,NA
567d1,shallow,flow.Sequence,2_2_0,NA,NA,completion,7750.52,156499,156497.92,156514.36,164264.88,164266,2023-06-03T12:23:18Z,164281.82,Gefährdung,kuhatarisha,s,uchokozi,udhaifu,makorowezo,NA,NA,NA,"c(""distractor1"", ""distractor2"", ""distractor3"")",NA,NA,NA,NA,NA,NA,NA,NA,NA,NA,NA,NA,NA,NA,NA,NA,NA,NA,NA
567d1,task,flow.Sequence,2_2,NA,NA,completion,7750.52,156499,156497.92,156514.36,164264.88,164266,2023-06-03T12:23:18Z,164281.82,Gefährdung,kuhatarisha,s,uchokozi,udhaifu,makorowezo,NA,NA,NA,"c(""distractor1"", ""distractor2"", ""distractor3"")",NA,NA,NA,NA,NA,NA,NA,NA,NA,NA,NA,NA,NA,NA,NA,NA,NA,NA,NA
567d1,Shallow Question,html.Page,2_3_0_0,NA,NA,form submission,6261.18,164266,164264.88,164281.82,170543,170544,2023-06-03T12:23:24Z,170547.28,Körper,kiwiliwili,s,mapambano,mpatanishi,kiolezo,kiwiliwili,NA,NA,"c(""distractor1"", ""distractor2"", ""distractor3"")",NA,NA,NA,NA,NA,NA,NA,NA,NA,NA,NA,NA,NA,NA,NA,NA,NA,NA,NA
567d1,Save data screen,canvas.Screen,2_3_0_1,NA,NA,timeout,500.84,170544,170541.92,170547.28,171031.7,171032,2023-06-03T12:23:25Z,171048.12,Körper,kiwiliwili,s,mapambano,mpatanishi,kiolezo,NA,NA,1,"c(""distractor1"", ""distractor2"", ""distractor3"")",NA,NA,NA,NA,NA,NA,NA,NA,NA,NA,NA,NA,NA,NA,NA,NA,NA,NA,NA
567d1,shallow,flow.Sequence,2_3_0,NA,NA,completion,6749.88,164266,164264.88,164281.82,171031.7,171033,2023-06-03T12:23:25Z,171048.12,Körper,kiwiliwili,s,mapambano,mpatanishi,kiolezo,NA,NA,NA,"c(""distractor1"", ""distractor2"", ""distractor3"")",NA,NA,NA,NA,NA,NA,NA,NA,NA,NA,NA,NA,NA,NA,NA,NA,NA,NA,NA
567d1,task,flow.Sequence,2_3,NA,NA,completion,6749.88,164266,164264.88,164281.82,171031.7,171033,2023-06-03T12:23:25Z,171048.12,Körper,kiwiliwili,s,mapambano,mpatanishi,kiolezo,NA,NA,NA,"c(""distractor1"", ""distractor2"", ""distractor3"")",NA,NA,NA,NA,NA,NA,NA,NA,NA,NA,NA,NA,NA,NA,NA,NA,NA,NA,NA
567d1,Shallow Question,html.Page,2_4_0_0,NA,NA,form submission,3032.88,171033,171031.7,171048.12,174081,174081,2023-06-03T12:23:28Z,174080.56,Kanzler,diwani,s,rasilmali,mahitaji,maabudu,diwani,NA,NA,"c(""distractor1"", ""distractor2"", ""distractor3"")",NA,NA,NA,NA,NA,NA,NA,NA,NA,NA,NA,NA,NA,NA,NA,NA,NA,NA,NA
567d1,Save data screen,canvas.Screen,2_4_0_1,NA,NA,timeout,500.14000000001,174082,174078.74,174080.56,174564.42,174565,2023-06-03T12:23:28Z,174580.7,Kanzler,diwani,s,rasilmali,mahitaji,maabudu,NA,NA,1,"c(""distractor1"", ""distractor2"", ""distractor3"")",NA,NA,NA,NA,NA,NA,NA,NA,NA,NA,NA,NA,NA,NA,NA,NA,NA,NA,NA
567d1,shallow,flow.Sequence,2_4_0,NA,NA,completion,3516.3,171033,171031.7,171048.12,174564.42,174566,2023-06-03T12:23:28Z,174580.7,Kanzler,diwani,s,rasilmali,mahitaji,maabudu,NA,NA,NA,"c(""distractor1"", ""distractor2"", ""distractor3"")",NA,NA,NA,NA,NA,NA,NA,NA,NA,NA,NA,NA,NA,NA,NA,NA,NA,NA,NA
567d1,task,flow.Sequence,2_4,NA,NA,completion,3516.3,171033,171031.7,171048.12,174564.42,174566,2023-06-03T12:23:28Z,174580.7,Kanzler,diwani,s,rasilmali,mahitaji,maabudu,NA,NA,NA,"c(""distractor1"", ""distractor2"", ""distractor3"")",NA,NA,NA,NA,NA,NA,NA,NA,NA,NA,NA,NA,NA,NA,NA,NA,NA,NA,NA
567d1,Shallow Question,html.Page,2_5_0_0,NA,NA,form submission,6610.3,174566,174564.42,174580.7,181191,181191,2023-06-03T12:23:35Z,181197.22,Sänger,mwimbaji,d,msichana,shughuli,mshirika,mwimbaji,NA,NA,"c(""distractor1"", ""distractor2"", ""distractor3"")",NA,NA,NA,NA,NA,NA,NA,NA,NA,NA,NA,NA,NA,NA,NA,NA,NA,NA,NA
567d1,Save data screen,canvas.Screen,2_5_0_1,NA,NA,timeout,500.01999999999,181192,181188.82,181197.22,181680.5,181681,2023-06-03T12:23:35Z,181697.24,Sänger,mwimbaji,d,msichana,shughuli,mshirika,NA,NA,1,"c(""distractor1"", ""distractor2"", ""distractor3"")",NA,NA,NA,NA,NA,NA,NA,NA,NA,NA,NA,NA,NA,NA,NA,NA,NA,NA,NA
567d1,shallow,flow.Sequence,2_5_0,NA,NA,completion,7099.8,174566,174564.42,174580.7,181680.5,181681,2023-06-03T12:23:35Z,181697.24,Sänger,mwimbaji,d,msichana,shughuli,mshirika,NA,NA,NA,"c(""distractor1"", ""distractor2"", ""distractor3"")",NA,NA,NA,NA,NA,NA,NA,NA,NA,NA,NA,NA,NA,NA,NA,NA,NA,NA,NA
567d1,task,flow.Sequence,2_5,NA,NA,completion,7099.8,174566,174564.42,174580.7,181680.5,181681,2023-06-03T12:23:35Z,181697.24,Sänger,mwimbaji,d,msichana,shughuli,mshirika,NA,NA,NA,"c(""distractor1"", ""distractor2"", ""distractor3"")",NA,NA,NA,NA,NA,NA,NA,NA,NA,NA,NA,NA,NA,NA,NA,NA,NA,NA,NA
567d1,Shallow Question,html.Page,2_6_0_0,NA,NA,form submission,7696.76,181681,181680.5,181697.24,189394,189394,2023-06-03T12:23:43Z,189397.98,Abrechnung,uhasibu,s,kusahihisha,mpambano,mashambulizi,uhasibu,NA,NA,"c(""distractor1"", ""distractor2"", ""distractor3"")",NA,NA,NA,NA,NA,NA,NA,NA,NA,NA,NA,NA,NA,NA,NA,NA,NA,NA,NA
567d1,Save data screen,canvas.Screen,2_6_0_1,NA,NA,timeout,500.13999999998,189395,189392.34,189397.98,189881.46,189885,2023-06-03T12:23:44Z,189898.12,Abrechnung,uhasibu,s,kusahihisha,mpambano,mashambulizi,NA,NA,1,"c(""distractor1"", ""distractor2"", ""distractor3"")",NA,NA,NA,NA,NA,NA,NA,NA,NA,NA,NA,NA,NA,NA,NA,NA,NA,NA,NA
567d1,shallow,flow.Sequence,2_6_0,NA,NA,completion,8184.22,181681,181680.5,181697.24,189881.46,189887,2023-06-03T12:23:44Z,189898.12,Abrechnung,uhasibu,s,kusahihisha,mpambano,mashambulizi,NA,NA,NA,"c(""distractor1"", ""distractor2"", ""distractor3"")",NA,NA,NA,NA,NA,NA,NA,NA,NA,NA,NA,NA,NA,NA,NA,NA,NA,NA,NA
567d1,task,flow.Sequence,2_6,NA,NA,completion,8184.22,181681,181680.5,181697.24,189881.46,189887,2023-06-03T12:23:44Z,189898.12,Abrechnung,uhasibu,s,kusahihisha,mpambano,mashambulizi,NA,NA,NA,"c(""distractor1"", ""distractor2"", ""distractor3"")",NA,NA,NA,NA,NA,NA,NA,NA,NA,NA,NA,NA,NA,NA,NA,NA,NA,NA,NA
567d1,Shallow Question,html.Page,2_7_0_0,NA,NA,form submission,6052.88,189888,189881.46,189898.12,195951,195952,2023-06-03T12:23:50Z,195964.28,Lawine,banguko,d,maambukizi,usuluhishi,chekechea,banguko,NA,NA,"c(""distractor1"", ""distractor2"", ""distractor3"")",NA,NA,NA,NA,NA,NA,NA,NA,NA,NA,NA,NA,NA,NA,NA,NA,NA,NA,NA
567d1,Save data screen,canvas.Screen,2_7_0_1,NA,NA,timeout,499.79999999999,195955,195947.9,195964.28,196447.68,196449,2023-06-03T12:23:50Z,196464.08,Lawine,banguko,d,maambukizi,usuluhishi,chekechea,NA,NA,1,"c(""distractor1"", ""distractor2"", ""distractor3"")",NA,NA,NA,NA,NA,NA,NA,NA,NA,NA,NA,NA,NA,NA,NA,NA,NA,NA,NA
567d1,shallow,flow.Sequence,2_7_0,NA,NA,completion,6549.56,189888,189881.46,189898.12,196447.68,196450,2023-06-03T12:23:50Z,196464.08,Lawine,banguko,d,maambukizi,usuluhishi,chekechea,NA,NA,NA,"c(""distractor1"", ""distractor2"", ""distractor3"")",NA,NA,NA,NA,NA,NA,NA,NA,NA,NA,NA,NA,NA,NA,NA,NA,NA,NA,NA
567d1,task,flow.Sequence,2_7,NA,NA,completion,6549.56,189888,189881.46,189898.12,196447.68,196450,2023-06-03T12:23:50Z,196464.08,Lawine,banguko,d,maambukizi,usuluhishi,chekechea,NA,NA,NA,"c(""distractor1"", ""distractor2"", ""distractor3"")",NA,NA,NA,NA,NA,NA,NA,NA,NA,NA,NA,NA,NA,NA,NA,NA,NA,NA,NA
567d1,Shallow Question,html.Page,2_8_0_0,NA,NA,form submission,5090.92,196451,196447.68,196464.08,201555,201555,2023-06-03T12:23:55Z,201564.64,Prüfung,mtihani,d,mkulima,mtizamo,ufumbuzi,mtihani,NA,NA,"c(""distractor1"", ""distractor2"", ""distractor3"")",NA,NA,NA,NA,NA,NA,NA,NA,NA,NA,NA,NA,NA,NA,NA,NA,NA,NA,NA
567d1,Save data screen,canvas.Screen,2_8_0_1,NA,NA,timeout,499.85999999999,201558,201552.52,201564.64,202046.96,202048,2023-06-03T12:23:56Z,202064.5,Prüfung,mtihani,d,mkulima,mtizamo,ufumbuzi,NA,NA,1,"c(""distractor1"", ""distractor2"", ""distractor3"")",NA,NA,NA,NA,NA,NA,NA,NA,NA,NA,NA,NA,NA,NA,NA,NA,NA,NA,NA
567d1,shallow,flow.Sequence,2_8_0,NA,NA,completion,5582.88,196451,196447.68,196464.08,202046.96,202048,2023-06-03T12:23:56Z,202064.5,Prüfung,mtihani,d,mkulima,mtizamo,ufumbuzi,NA,NA,NA,"c(""distractor1"", ""distractor2"", ""distractor3"")",NA,NA,NA,NA,NA,NA,NA,NA,NA,NA,NA,NA,NA,NA,NA,NA,NA,NA,NA
567d1,task,flow.Sequence,2_8,NA,NA,completion,5582.88,196450,196447.68,196464.08,202046.96,202048,2023-06-03T12:23:56Z,202064.5,Prüfung,mtihani,d,mkulima,mtizamo,ufumbuzi,NA,NA,NA,"c(""distractor1"", ""distractor2"", ""distractor3"")",NA,NA,NA,NA,NA,NA,NA,NA,NA,NA,NA,NA,NA,NA,NA,NA,NA,NA,NA
567d1,Shallow Question,html.Page,2_9_0_0,NA,NA,form submission,8728.5,202050,202046.96,202064.5,210793,210793,2023-06-03T12:24:05Z,210797.46,Kultur,utamaduni,s,shetani,gerezani,mazingira,utamaduni,NA,NA,"c(""distractor1"", ""distractor2"", ""distractor3"")",NA,NA,NA,NA,NA,NA,NA,NA,NA,NA,NA,NA,NA,NA,NA,NA,NA,NA,NA
567d1,Save data screen,canvas.Screen,2_9_0_1,NA,NA,timeout,499.54000000001,210797,210789.98,210797.46,211280.1,211281,2023-06-03T12:24:05Z,211297,Kultur,utamaduni,s,shetani,gerezani,mazingira,NA,NA,1,"c(""distractor1"", ""distractor2"", ""distractor3"")",NA,NA,NA,NA,NA,NA,NA,NA,NA,NA,NA,NA,NA,NA,NA,NA,NA,NA,NA
567d1,shallow,flow.Sequence,2_9_0,NA,NA,completion,9215.6,202049,202046.96,202064.5,211280.1,211281,2023-06-03T12:24:05Z,211297,Kultur,utamaduni,s,shetani,gerezani,mazingira,NA,NA,NA,"c(""distractor1"", ""distractor2"", ""distractor3"")",NA,NA,NA,NA,NA,NA,NA,NA,NA,NA,NA,NA,NA,NA,NA,NA,NA,NA,NA
567d1,task,flow.Sequence,2_9,NA,NA,completion,9215.6,202049,202046.96,202064.5,211280.1,211282,2023-06-03T12:24:05Z,211297,Kultur,utamaduni,s,shetani,gerezani,mazingira,NA,NA,NA,"c(""distractor1"", ""distractor2"", ""distractor3"")",NA,NA,NA,NA,NA,NA,NA,NA,NA,NA,NA,NA,NA,NA,NA,NA,NA,NA,NA
567d1,Shallow Question,html.Page,2_10_0_0,NA,NA,form submission,7526,211282,211280.1,211297,218823,218823,2023-06-03T12:24:13Z,218821.96,Kreativität,ubunifu,d,mratibu,mwendelezo,makubaliano,mwendelezo,NA,NA,"c(""distractor1"", ""distractor2"", ""distractor3"")",NA,NA,NA,NA,NA,NA,NA,NA,NA,NA,NA,NA,NA,NA,NA,NA,NA,NA,NA
567d1,Save data screen,canvas.Screen,2_10_0_1,NA,NA,timeout,509,218824,218821.92,218821.96,219313.48,219314,2023-06-03T12:24:13Z,219330.96,Kreativität,ubunifu,d,mratibu,mwendelezo,makubaliano,NA,NA,0,"c(""distractor1"", ""distractor2"", ""distractor3"")",NA,NA,NA,NA,NA,NA,NA,NA,NA,NA,NA,NA,NA,NA,NA,NA,NA,NA,NA
567d1,shallow,flow.Sequence,2_10_0,NA,NA,completion,8016.48,211282,211280.1,211297,219313.48,219314,2023-06-03T12:24:13Z,219330.96,Kreativität,ubunifu,d,mratibu,mwendelezo,makubaliano,NA,NA,NA,"c(""distractor1"", ""distractor2"", ""distractor3"")",NA,NA,NA,NA,NA,NA,NA,NA,NA,NA,NA,NA,NA,NA,NA,NA,NA,NA,NA
567d1,task,flow.Sequence,2_10,NA,NA,completion,8016.48,211282,211280.1,211297,219313.48,219315,2023-06-03T12:24:13Z,219330.96,Kreativität,ubunifu,d,mratibu,mwendelezo,makubaliano,NA,NA,NA,"c(""distractor1"", ""distractor2"", ""distractor3"")",NA,NA,NA,NA,NA,NA,NA,NA,NA,NA,NA,NA,NA,NA,NA,NA,NA,NA,NA
567d1,Shallow Question,html.Page,2_11_0_0,NA,NA,form submission,4932.04,219315,219313.48,219330.96,224263,224264,2023-06-03T12:24:18Z,224263.22,Können,unaweza,d,kiongozi,bustani,mienendo,unaweza,NA,NA,"c(""distractor1"", ""distractor2"", ""distractor3"")",NA,NA,NA,NA,NA,NA,NA,NA,NA,NA,NA,NA,NA,NA,NA,NA,NA,NA,NA
567d1,Save data screen,canvas.Screen,2_11_0_1,NA,NA,timeout,500.32000000001,224265,224261.48,224263.22,224746.46,224749,2023-06-03T12:24:18Z,224763.54,Können,unaweza,d,kiongozi,bustani,mienendo,NA,NA,1,"c(""distractor1"", ""distractor2"", ""distractor3"")",NA,NA,NA,NA,NA,NA,NA,NA,NA,NA,NA,NA,NA,NA,NA,NA,NA,NA,NA
567d1,shallow,flow.Sequence,2_11_0,NA,NA,completion,5415.5,219315,219313.48,219330.96,224746.46,224750,2023-06-03T12:24:18Z,224763.54,Können,unaweza,d,kiongozi,bustani,mienendo,NA,NA,NA,"c(""distractor1"", ""distractor2"", ""distractor3"")",NA,NA,NA,NA,NA,NA,NA,NA,NA,NA,NA,NA,NA,NA,NA,NA,NA,NA,NA
567d1,task,flow.Sequence,2_11,NA,NA,completion,5415.5,219315,219313.48,219330.96,224746.46,224751,2023-06-03T12:24:18Z,224763.54,Können,unaweza,d,kiongozi,bustani,mienendo,NA,NA,NA,"c(""distractor1"", ""distractor2"", ""distractor3"")",NA,NA,NA,NA,NA,NA,NA,NA,NA,NA,NA,NA,NA,NA,NA,NA,NA,NA,NA
567d1,Shallow Question,html.Page,2_12_0_0,NA,NA,form submission,4676.46,224751,224746.46,224763.54,229440,229440,2023-06-03T12:24:23Z,229446.46,Aufstand,ugomaji,d,mazidio,msingi,kujieleza,ugomaji,NA,NA,"c(""distractor1"", ""distractor2"", ""distractor3"")",NA,NA,NA,NA,NA,NA,NA,NA,NA,NA,NA,NA,NA,NA,NA,NA,NA,NA,NA
567d1,Save data screen,canvas.Screen,2_12_0_1,NA,NA,timeout,501.12,229443,229435.82,229446.46,229930.84,229932,2023-06-03T12:24:24Z,229947.58,Aufstand,ugomaji,d,mazidio,msingi,kujieleza,NA,NA,1,"c(""distractor1"", ""distractor2"", ""distractor3"")",NA,NA,NA,NA,NA,NA,NA,NA,NA,NA,NA,NA,NA,NA,NA,NA,NA,NA,NA
567d1,shallow,flow.Sequence,2_12_0,NA,NA,completion,5167.3,224751,224746.46,224763.54,229930.84,229933,2023-06-03T12:24:24Z,229947.58,Aufstand,ugomaji,d,mazidio,msingi,kujieleza,NA,NA,NA,"c(""distractor1"", ""distractor2"", ""distractor3"")",NA,NA,NA,NA,NA,NA,NA,NA,NA,NA,NA,NA,NA,NA,NA,NA,NA,NA,NA
567d1,task,flow.Sequence,2_12,NA,NA,completion,5167.3,224751,224746.46,224763.54,229930.84,229933,2023-06-03T12:24:24Z,229947.58,Aufstand,ugomaji,d,mazidio,msingi,kujieleza,NA,NA,NA,"c(""distractor1"", ""distractor2"", ""distractor3"")",NA,NA,NA,NA,NA,NA,NA,NA,NA,NA,NA,NA,NA,NA,NA,NA,NA,NA,NA
567d1,Shallow Question,html.Page,2_13_0_0,NA,NA,form submission,7185.42,229933,229930.84,229947.58,237133,237133,2023-06-03T12:24:31Z,237146.4,Übersicht,kilindo,s,mgusano,chipukizi,kulinganisha,kilindo,NA,NA,"c(""distractor1"", ""distractor2"", ""distractor3"")",NA,NA,NA,NA,NA,NA,NA,NA,NA,NA,NA,NA,NA,NA,NA,NA,NA,NA,NA
567d1,Save data screen,canvas.Screen,2_13_0_1,NA,NA,timeout,500.84,237135,237130.84,237146.4,237630.8,237631,2023-06-03T12:24:31Z,237647.24,Übersicht,kilindo,s,mgusano,chipukizi,kulinganisha,NA,NA,1,"c(""distractor1"", ""distractor2"", ""distractor3"")",NA,NA,NA,NA,NA,NA,NA,NA,NA,NA,NA,NA,NA,NA,NA,NA,NA,NA,NA
567d1,shallow,flow.Sequence,2_13_0,NA,NA,completion,7683.22,229933,229930.84,229947.58,237630.8,237632,2023-06-03T12:24:31Z,237647.24,Übersicht,kilindo,s,mgusano,chipukizi,kulinganisha,NA,NA,NA,"c(""distractor1"", ""distractor2"", ""distractor3"")",NA,NA,NA,NA,NA,NA,NA,NA,NA,NA,NA,NA,NA,NA,NA,NA,NA,NA,NA
567d1,task,flow.Sequence,2_13,NA,NA,completion,7683.22,229933,229930.84,229947.58,237630.8,237633,2023-06-03T12:24:31Z,237647.24,Übersicht,kilindo,s,mgusano,chipukizi,kulinganisha,NA,NA,NA,"c(""distractor1"", ""distractor2"", ""distractor3"")",NA,NA,NA,NA,NA,NA,NA,NA,NA,NA,NA,NA,NA,NA,NA,NA,NA,NA,NA
567d1,Shallow Question,html.Page,2_14_0_0,NA,NA,form submission,4881.76,237633,237630.8,237647.24,242529,242529,2023-06-03T12:24:36Z,242529.72,Kontrolle,kudhibiti,s,mbinguni,kufunga,utegemezi,kudhibiti,NA,NA,"c(""distractor1"", ""distractor2"", ""distractor3"")",NA,NA,NA,NA,NA,NA,NA,NA,NA,NA,NA,NA,NA,NA,NA,NA,NA,NA,NA
567d1,Save data screen,canvas.Screen,2_14_0_1,NA,NA,timeout,501,242530,242526.42,242529.72,243014.04,243014,2023-06-03T12:24:37Z,243030.72,Kontrolle,kudhibiti,s,mbinguni,kufunga,utegemezi,NA,NA,1,"c(""distractor1"", ""distractor2"", ""distractor3"")",NA,NA,NA,NA,NA,NA,NA,NA,NA,NA,NA,NA,NA,NA,NA,NA,NA,NA,NA
567d1,shallow,flow.Sequence,2_14_0,NA,NA,completion,5366.8,237633,237630.8,237647.24,243014.04,243015,2023-06-03T12:24:37Z,243030.72,Kontrolle,kudhibiti,s,mbinguni,kufunga,utegemezi,NA,NA,NA,"c(""distractor1"", ""distractor2"", ""distractor3"")",NA,NA,NA,NA,NA,NA,NA,NA,NA,NA,NA,NA,NA,NA,NA,NA,NA,NA,NA
567d1,task,flow.Sequence,2_14,NA,NA,completion,5366.8,237633,237630.8,237647.24,243014.04,243015,2023-06-03T12:24:37Z,243030.72,Kontrolle,kudhibiti,s,mbinguni,kufunga,utegemezi,NA,NA,NA,"c(""distractor1"", ""distractor2"", ""distractor3"")",NA,NA,NA,NA,NA,NA,NA,NA,NA,NA,NA,NA,NA,NA,NA,NA,NA,NA,NA
567d1,Shallow Question,html.Page,2_15_0_0,NA,NA,form submission,6931.28,243015,243014.04,243030.72,249962,249962,2023-06-03T12:24:44Z,249963.74,Verzögerung,kuchelewa,s,mwakilishi,mwanauchumi,jaribio,kuchelewa,NA,NA,"c(""distractor1"", ""distractor2"", ""distractor3"")",NA,NA,NA,NA,NA,NA,NA,NA,NA,NA,NA,NA,NA,NA,NA,NA,NA,NA,NA
567d1,Save data screen,canvas.Screen,2_15_0_1,NA,NA,timeout,499.24000000002,249964,249960.6,249963.74,250446.34,250447,2023-06-03T12:24:44Z,250462.98,Verzögerung,kuchelewa,s,mwakilishi,mwanauchumi,jaribio,NA,NA,1,"c(""distractor1"", ""distractor2"", ""distractor3"")",NA,NA,NA,NA,NA,NA,NA,NA,NA,NA,NA,NA,NA,NA,NA,NA,NA,NA,NA
567d1,shallow,flow.Sequence,2_15_0,NA,NA,completion,7415.62,243015,243014.04,243030.72,250446.34,250447,2023-06-03T12:24:44Z,250462.98,Verzögerung,kuchelewa,s,mwakilishi,mwanauchumi,jaribio,NA,NA,NA,"c(""distractor1"", ""distractor2"", ""distractor3"")",NA,NA,NA,NA,NA,NA,NA,NA,NA,NA,NA,NA,NA,NA,NA,NA,NA,NA,NA
567d1,task,flow.Sequence,2_15,NA,NA,completion,7415.62,243015,243014.04,243030.72,250446.34,250447,2023-06-03T12:24:44Z,250462.98,Verzögerung,kuchelewa,s,mwakilishi,mwanauchumi,jaribio,NA,NA,NA,"c(""distractor1"", ""distractor2"", ""distractor3"")",NA,NA,NA,NA,NA,NA,NA,NA,NA,NA,NA,NA,NA,NA,NA,NA,NA,NA,NA
567d1,retrieval block 2 (multiple choice),flow.Loop,2,NA,NA,completion,112730.98,137701,137698.84,137715.36,250446.34,250447,2023-06-03T12:24:44Z,250462.98,NA,NA,NA,NA,NA,NA,NA,NA,NA,"c(""distractor1"", ""distractor2"", ""distractor3"")",NA,NA,NA,NA,NA,NA,NA,NA,NA,NA,NA,NA,NA,NA,NA,NA,NA,NA,NA
567d1,End,canvas.Screen,3,NA,keypress(Space),response,1496.02,250448,250446.34,250462.98,251959,251965,2023-06-03T12:24:46Z,251965.52,NA,NA,NA,NA,NA,NA,NA,NA,NA,NULL,NA,NA,NA,NA,NA,NA,NA,NA,NA,NA,NA,NA,NA,NA,NA,NA,NA,NA,NA
567d1,root,flow.Sequence,NA,NA,NA,completion,250726.12,1129,1199.58,1232.88,251959,251965,2023-06-03T12:24:46Z,251965.52,NA,NA,NA,NA,NA,NA,NA,NA,NA,NULL,NA,NA,NA,NA,NA,NA,NA,NA,NA,NA,NA,NA,NA,NA,NA,NA,NA,NA,NA
