observation,sender,sender_type,sender_id,response,response_action,ended_on,duration,time_run,time_render,time_show,time_end,time_commit,timestamp,time_switch,distractors,german,swahili,enc,distractor1,distractor2,distractor3,response_2,x,correct,x_2,url_vp,url_sess,meta_labjs_version,meta_location,meta_user_agent,meta_platform,meta_language,meta_locale,meta_time_zone,meta_timezone_offset,meta_screen_width,meta_screen_height,meta_scroll_width,meta_scroll_height,meta_window_inner_width,meta_window_inner_height,meta_device_pixel_ratio,meta_labjs_build_flavor,meta_labjs_build_commit
09b9e,Introduction general,canvas.Screen,0,weiter,keypress(q),response,50475.84,615,610.46,627.16,51103,51122,2024-06-22T17:36:32Z,51122.5,NULL,NA,NA,NA,NA,NA,NA,NA,NA,NA,NA,159,3,20.2.4,https://neurocog.fernuni.ch/studies/vweber/jbaenninger/encoding_immediate/index.html?vp=159&sess=3,Mozilla/5.0 (Windows NT 10.0; Win64; x64; rv:127.0) Gecko/20100101 Firefox/127.0,Win32,de,de-CH,Europe/Zurich,-120,1280,800,1280,591,1280,639,1.5,production,f5b4a49f956347addd546a832a3327688c2c0fef
09b9e,Introduction practice,canvas.Screen,1_0,NA,keypress(Space),response,7432.5,51123,51122.28,51122.5,58555,58569,2024-06-22T17:36:39Z,58613.62,NULL,NA,NA,NA,NA,NA,NA,NA,NA,NA,NA,NA,NA,NA,NA,NA,NA,NA,NA,NA,NA,NA,NA,NA,NA,NA,NA,NA,NA,NA
09b9e,Deep Question,html.Page,1_1_0_0_0,NA,NA,form submission,16328.38,58570,58569.82,58613.62,74942,74943,2024-06-22T17:36:55Z,74938.76,"c(""distractor1"", ""distractor2"", ""distractor3"")",Qualität,mtindo,d,NA,NA,NA,NA,NA,NA,NA,NA,NA,NA,NA,NA,NA,NA,NA,NA,NA,NA,NA,NA,NA,NA,NA,NA,NA,NA
09b9e,"""Richtig""-Screen",canvas.Screen,1_1_0_0_1,NA,NA,skipped,NA,74949,NA,NA,74942,74949,2024-06-22T17:36:55Z,74938.76,"c(""distractor1"", ""distractor2"", ""distractor3"")",Qualität,mtindo,d,NA,NA,NA,NA,NA,NA,NA,NA,NA,NA,NA,NA,NA,NA,NA,NA,NA,NA,NA,NA,NA,NA,NA,NA,NA,NA
09b9e,"""Falsch""-Screen",canvas.Screen,1_1_0_0_2,NA,NA,timeout,5004.28,74952,74933.86,74938.76,79926.48,79928,2024-06-22T17:37:00Z,79943.04,"c(""distractor1"", ""distractor2"", ""distractor3"")",Qualität,mtindo,d,NA,NA,NA,NA,NA,0,NA,NA,NA,NA,NA,NA,NA,NA,NA,NA,NA,NA,NA,NA,NA,NA,NA,NA,NA,NA
09b9e,deep,flow.Sequence,1_1_0_0,NA,NA,completion,21312.86,58570,58569.82,58613.62,79926.48,79928,2024-06-22T17:37:00Z,79943.04,"c(""distractor1"", ""distractor2"", ""distractor3"")",Qualität,mtindo,d,NA,NA,NA,NA,NA,NA,NA,NA,NA,NA,NA,NA,NA,NA,NA,NA,NA,NA,NA,NA,NA,NA,NA,NA,NA,NA
09b9e,shallow,flow.Sequence,1_1_0_1,NA,NA,skipped,NA,79928,NA,NA,79926.48,79929,2024-06-22T17:37:00Z,79943.04,"c(""distractor1"", ""distractor2"", ""distractor3"")",Qualität,mtindo,d,NA,NA,NA,NA,NA,NA,NA,NA,NA,NA,NA,NA,NA,NA,NA,NA,NA,NA,NA,NA,NA,NA,NA,NA,NA,NA
09b9e,task,flow.Sequence,1_1_0,NA,NA,completion,21312.86,58570,58569.82,58613.62,79926.48,79930,2024-06-22T17:37:00Z,79943.04,"c(""distractor1"", ""distractor2"", ""distractor3"")",Qualität,mtindo,d,NA,NA,NA,NA,NA,NA,NA,NA,NA,NA,NA,NA,NA,NA,NA,NA,NA,NA,NA,NA,NA,NA,NA,NA,NA,NA
09b9e,Deep Question,html.Page,1_1_1_0_0,NA,NA,form submission,1953.96,79930,79926.48,79943.04,81897,81897,2024-06-22T17:37:02Z,81894.42,"c(""distractor1"", ""distractor2"", ""distractor3"")",Schatten,kivuli,d,NA,NA,NA,NA,NA,NA,NA,NA,NA,NA,NA,NA,NA,NA,NA,NA,NA,NA,NA,NA,NA,NA,NA,NA,NA,NA
09b9e,"""Richtig""-Screen",canvas.Screen,1_1_1_0_1,NA,NA,skipped,NA,81900,NA,NA,81897,81900,2024-06-22T17:37:02Z,81894.42,"c(""distractor1"", ""distractor2"", ""distractor3"")",Schatten,kivuli,d,NA,NA,NA,NA,NA,NA,NA,NA,NA,NA,NA,NA,NA,NA,NA,NA,NA,NA,NA,NA,NA,NA,NA,NA,NA,NA
09b9e,"""Falsch""-Screen",canvas.Screen,1_1_1_0_2,NA,NA,timeout,5004.24,81902,81893.84,81894.42,86882.18,86883,2024-06-22T17:37:07Z,86898.66,"c(""distractor1"", ""distractor2"", ""distractor3"")",Schatten,kivuli,d,NA,NA,NA,NA,NA,0,NA,NA,NA,NA,NA,NA,NA,NA,NA,NA,NA,NA,NA,NA,NA,NA,NA,NA,NA,NA
09b9e,deep,flow.Sequence,1_1_1_0,NA,NA,completion,6939.14,79930,79926.48,79943.04,86882.18,86884,2024-06-22T17:37:07Z,86898.66,"c(""distractor1"", ""distractor2"", ""distractor3"")",Schatten,kivuli,d,NA,NA,NA,NA,NA,NA,NA,NA,NA,NA,NA,NA,NA,NA,NA,NA,NA,NA,NA,NA,NA,NA,NA,NA,NA,NA
09b9e,shallow,flow.Sequence,1_1_1_1,NA,NA,skipped,NA,86885,NA,NA,86882.18,86885,2024-06-22T17:37:07Z,86898.66,"c(""distractor1"", ""distractor2"", ""distractor3"")",Schatten,kivuli,d,NA,NA,NA,NA,NA,NA,NA,NA,NA,NA,NA,NA,NA,NA,NA,NA,NA,NA,NA,NA,NA,NA,NA,NA,NA,NA
09b9e,task,flow.Sequence,1_1_1,NA,NA,completion,6939.14,79930,79926.48,79943.04,86882.18,86885,2024-06-22T17:37:07Z,86898.66,"c(""distractor1"", ""distractor2"", ""distractor3"")",Schatten,kivuli,d,NA,NA,NA,NA,NA,NA,NA,NA,NA,NA,NA,NA,NA,NA,NA,NA,NA,NA,NA,NA,NA,NA,NA,NA,NA,NA
09b9e,deep,flow.Sequence,1_1_2_0,NA,NA,skipped,NA,86886,NA,NA,86882.18,86886,2024-06-22T17:37:07Z,86898.66,"c(""distractor1"", ""distractor2"", ""distractor3"")",Rückhalt,msaada,s,muhula,auwali,kiwimbe,NA,NA,NA,NA,NA,NA,NA,NA,NA,NA,NA,NA,NA,NA,NA,NA,NA,NA,NA,NA,NA,NA,NA
09b9e,Shallow Question,html.Page,1_1_2_1_0,NA,NA,form submission,3999.34,86886,86882.18,86898.66,90898,90898,2024-06-22T17:37:11Z,90901.88,"c(""distractor1"", ""distractor2"", ""distractor3"")",Rückhalt,msaada,s,muhula,auwali,kiwimbe,kiwimbe,NA,NA,NA,NA,NA,NA,NA,NA,NA,NA,NA,NA,NA,NA,NA,NA,NA,NA,NA,NA,NA,NA
09b9e,"""Richtig""-Screen",canvas.Screen,1_1_2_1_1,NA,NA,skipped,NA,90900,NA,NA,90898,90900,2024-06-22T17:37:11Z,90901.88,"c(""distractor1"", ""distractor2"", ""distractor3"")",Rückhalt,msaada,s,muhula,auwali,kiwimbe,NA,NA,NA,NA,NA,NA,NA,NA,NA,NA,NA,NA,NA,NA,NA,NA,NA,NA,NA,NA,NA,NA,NA
09b9e,"""Falsch""-Screen",canvas.Screen,1_1_2_1_2,NA,NA,timeout,5004.16,90901,90894.4,90901.88,95889.34,95890,2024-06-22T17:37:16Z,95906.04,"c(""distractor1"", ""distractor2"", ""distractor3"")",Rückhalt,msaada,s,muhula,auwali,kiwimbe,NA,NA,0,NA,NA,NA,NA,NA,NA,NA,NA,NA,NA,NA,NA,NA,NA,NA,NA,NA,NA,NA,NA
09b9e,shallow,flow.Sequence,1_1_2_1,NA,NA,completion,8990.68,86886,86882.18,86898.66,95889.34,95890,2024-06-22T17:37:16Z,95906.04,"c(""distractor1"", ""distractor2"", ""distractor3"")",Rückhalt,msaada,s,muhula,auwali,kiwimbe,NA,NA,NA,NA,NA,NA,NA,NA,NA,NA,NA,NA,NA,NA,NA,NA,NA,NA,NA,NA,NA,NA,NA
09b9e,task,flow.Sequence,1_1_2,NA,NA,completion,8990.68,86886,86882.18,86898.66,95889.34,95891,2024-06-22T17:37:16Z,95906.04,"c(""distractor1"", ""distractor2"", ""distractor3"")",Rückhalt,msaada,s,muhula,auwali,kiwimbe,NA,NA,NA,NA,NA,NA,NA,NA,NA,NA,NA,NA,NA,NA,NA,NA,NA,NA,NA,NA,NA,NA,NA
09b9e,deep,flow.Sequence,1_1_3_0,NA,NA,skipped,NA,95891,NA,NA,95889.34,95891,2024-06-22T17:37:16Z,95906.04,"c(""distractor1"", ""distractor2"", ""distractor3"")",Gegenwart,hadhara,s,katiba,jokofu,mikopo,NA,NA,NA,NA,NA,NA,NA,NA,NA,NA,NA,NA,NA,NA,NA,NA,NA,NA,NA,NA,NA,NA,NA
09b9e,Shallow Question,html.Page,1_1_3_1_0,NA,NA,form submission,1876.96,95891,95889.34,95906.04,97783,97783,2024-06-22T17:37:18Z,97790.96,"c(""distractor1"", ""distractor2"", ""distractor3"")",Gegenwart,hadhara,s,katiba,jokofu,mikopo,katiba,NA,NA,NA,NA,NA,NA,NA,NA,NA,NA,NA,NA,NA,NA,NA,NA,NA,NA,NA,NA,NA,NA
09b9e,"""Richtig""-Screen",canvas.Screen,1_1_3_1_1,NA,NA,skipped,NA,97785,NA,NA,97783,97786,2024-06-22T17:37:18Z,97790.96,"c(""distractor1"", ""distractor2"", ""distractor3"")",Gegenwart,hadhara,s,katiba,jokofu,mikopo,NA,NA,NA,NA,NA,NA,NA,NA,NA,NA,NA,NA,NA,NA,NA,NA,NA,NA,NA,NA,NA,NA,NA
09b9e,"""Falsch""-Screen",canvas.Screen,1_1_3_1_2,NA,NA,timeout,5004.18,97787,97779.92,97790.96,102778.44,102780,2024-06-22T17:37:23Z,102795.14,"c(""distractor1"", ""distractor2"", ""distractor3"")",Gegenwart,hadhara,s,katiba,jokofu,mikopo,NA,NA,0,NA,NA,NA,NA,NA,NA,NA,NA,NA,NA,NA,NA,NA,NA,NA,NA,NA,NA,NA,NA
09b9e,shallow,flow.Sequence,1_1_3_1,NA,NA,completion,6872.4,95891,95889.34,95906.04,102778.44,102780,2024-06-22T17:37:23Z,102795.14,"c(""distractor1"", ""distractor2"", ""distractor3"")",Gegenwart,hadhara,s,katiba,jokofu,mikopo,NA,NA,NA,NA,NA,NA,NA,NA,NA,NA,NA,NA,NA,NA,NA,NA,NA,NA,NA,NA,NA,NA,NA
09b9e,task,flow.Sequence,1_1_3,NA,NA,completion,6872.4,95891,95889.34,95906.04,102778.44,102780,2024-06-22T17:37:23Z,102795.14,"c(""distractor1"", ""distractor2"", ""distractor3"")",Gegenwart,hadhara,s,katiba,jokofu,mikopo,NA,NA,NA,NA,NA,NA,NA,NA,NA,NA,NA,NA,NA,NA,NA,NA,NA,NA,NA,NA,NA,NA,NA
09b9e,deep,flow.Sequence,1_1_4_0,NA,NA,skipped,NA,102780,NA,NA,102778.44,102780,2024-06-22T17:37:23Z,102795.14,"c(""distractor1"", ""distractor2"", ""distractor3"")",Kritik,lawama,s,dereva,nafasi,mawazo,NA,NA,NA,NA,NA,NA,NA,NA,NA,NA,NA,NA,NA,NA,NA,NA,NA,NA,NA,NA,NA,NA,NA
09b9e,Shallow Question,html.Page,1_1_4_1_0,NA,NA,form submission,2188.86,102781,102778.44,102795.14,104984,104984,2024-06-22T17:37:26Z,104996.86,"c(""distractor1"", ""distractor2"", ""distractor3"")",Kritik,lawama,s,dereva,nafasi,mawazo,lawama,NA,NA,NA,NA,NA,NA,NA,NA,NA,NA,NA,NA,NA,NA,NA,NA,NA,NA,NA,NA,NA,NA
09b9e,"""Richtig""-Screen",canvas.Screen,1_1_4_1_1,NA,NA,timeout,5004.2,104985,104980.34,104996.86,109984.36,109985,2024-06-22T17:37:31Z,110001.06,"c(""distractor1"", ""distractor2"", ""distractor3"")",Kritik,lawama,s,dereva,nafasi,mawazo,NA,NA,1,NA,NA,NA,NA,NA,NA,NA,NA,NA,NA,NA,NA,NA,NA,NA,NA,NA,NA,NA,NA
09b9e,"""Falsch""-Screen",canvas.Screen,1_1_4_1_2,NA,NA,skipped,NA,109989,NA,NA,109984.36,109989,2024-06-22T17:37:31Z,110001.06,"c(""distractor1"", ""distractor2"", ""distractor3"")",Kritik,lawama,s,dereva,nafasi,mawazo,NA,NA,NA,NA,NA,NA,NA,NA,NA,NA,NA,NA,NA,NA,NA,NA,NA,NA,NA,NA,NA,NA,NA
09b9e,shallow,flow.Sequence,1_1_4_1,NA,NA,completion,7189.22,102781,102778.44,102795.14,109984.36,109989,2024-06-22T17:37:31Z,110001.06,"c(""distractor1"", ""distractor2"", ""distractor3"")",Kritik,lawama,s,dereva,nafasi,mawazo,NA,NA,NA,NA,NA,NA,NA,NA,NA,NA,NA,NA,NA,NA,NA,NA,NA,NA,NA,NA,NA,NA,NA
09b9e,task,flow.Sequence,1_1_4,NA,NA,completion,7189.22,102780,102778.44,102795.14,109984.36,109989,2024-06-22T17:37:31Z,110001.06,"c(""distractor1"", ""distractor2"", ""distractor3"")",Kritik,lawama,s,dereva,nafasi,mawazo,NA,NA,NA,NA,NA,NA,NA,NA,NA,NA,NA,NA,NA,NA,NA,NA,NA,NA,NA,NA,NA,NA,NA
09b9e,Deep Question,html.Page,1_1_5_0_0,NA,NA,form submission,2075.94,109989,109984.36,110001.06,112077,112077,2024-06-22T17:37:33Z,112086.12,"c(""distractor1"", ""distractor2"", ""distractor3"")",Gesundheit,salama,d,NA,NA,NA,NA,NA,NA,NA,NA,NA,NA,NA,NA,NA,NA,NA,NA,NA,NA,NA,NA,NA,NA,NA,NA,NA,NA
09b9e,"""Richtig""-Screen",canvas.Screen,1_1_5_0_1,NA,NA,skipped,NA,112079,NA,NA,112077,112079,2024-06-22T17:37:33Z,112086.12,"c(""distractor1"", ""distractor2"", ""distractor3"")",Gesundheit,salama,d,NA,NA,NA,NA,NA,NA,NA,NA,NA,NA,NA,NA,NA,NA,NA,NA,NA,NA,NA,NA,NA,NA,NA,NA,NA,NA
09b9e,"""Falsch""-Screen",canvas.Screen,1_1_5_0_2,NA,NA,timeout,5004.24,112080,112073.84,112086.12,117073.66,117075,2024-06-22T17:37:38Z,117090.36,"c(""distractor1"", ""distractor2"", ""distractor3"")",Gesundheit,salama,d,NA,NA,NA,NA,NA,0,NA,NA,NA,NA,NA,NA,NA,NA,NA,NA,NA,NA,NA,NA,NA,NA,NA,NA,NA,NA
09b9e,deep,flow.Sequence,1_1_5_0,NA,NA,completion,7072.6,109989,109984.36,110001.06,117073.66,117075,2024-06-22T17:37:38Z,117090.36,"c(""distractor1"", ""distractor2"", ""distractor3"")",Gesundheit,salama,d,NA,NA,NA,NA,NA,NA,NA,NA,NA,NA,NA,NA,NA,NA,NA,NA,NA,NA,NA,NA,NA,NA,NA,NA,NA,NA
09b9e,shallow,flow.Sequence,1_1_5_1,NA,NA,skipped,NA,117076,NA,NA,117073.66,117076,2024-06-22T17:37:38Z,117090.36,"c(""distractor1"", ""distractor2"", ""distractor3"")",Gesundheit,salama,d,NA,NA,NA,NA,NA,NA,NA,NA,NA,NA,NA,NA,NA,NA,NA,NA,NA,NA,NA,NA,NA,NA,NA,NA,NA,NA
09b9e,task,flow.Sequence,1_1_5,NA,NA,completion,7072.6,109989,109984.36,110001.06,117073.66,117076,2024-06-22T17:37:38Z,117090.36,"c(""distractor1"", ""distractor2"", ""distractor3"")",Gesundheit,salama,d,NA,NA,NA,NA,NA,NA,NA,NA,NA,NA,NA,NA,NA,NA,NA,NA,NA,NA,NA,NA,NA,NA,NA,NA,NA,NA
09b9e,block,flow.Loop,1_1,NA,NA,completion,58460.04,58569,58569.82,58613.62,117073.66,117076,2024-06-22T17:37:38Z,117090.36,"c(""distractor1"", ""distractor2"", ""distractor3"")",NA,NA,NA,NA,NA,NA,NA,NA,NA,NA,NA,NA,NA,NA,NA,NA,NA,NA,NA,NA,NA,NA,NA,NA,NA,NA,NA,NA,NA
09b9e,Practice,flow.Sequence,1,NA,NA,completion,65951.16,51123,51122.28,51122.5,117073.66,117076,2024-06-22T17:37:38Z,117090.36,NULL,NA,NA,NA,NA,NA,NA,NA,NA,NA,NA,NA,NA,NA,NA,NA,NA,NA,NA,NA,NA,NA,NA,NA,NA,NA,NA,NA,NA,NA
09b9e,Experiment start,canvas.Screen,2,weiter,keypress(q),response,20121.64,117076,117073.66,117090.36,137212,137232,2024-06-22T17:37:58Z,137340.26,NULL,NA,NA,NA,NA,NA,NA,NA,NA,NA,NA,NA,NA,NA,NA,NA,NA,NA,NA,NA,NA,NA,NA,NA,NA,NA,NA,NA,NA,NA
09b9e,Deep Question,html.Page,3_0_0_0_0_0_0,NA,NA,form submission,5832.74,137334,137323.58,137340.26,143173,143173,2024-06-22T17:38:04Z,143178.54,NULL,Theorie,nadharia,d,NA,NA,NA,NA,NA,NA,0,NA,NA,NA,NA,NA,NA,NA,NA,NA,NA,NA,NA,NA,NA,NA,NA,NA,NA,NA
09b9e,"""Richtig""-Screen",canvas.Screen,3_0_0_0_0_0_1,NA,NA,skipped,NA,143175,NA,NA,143173,143175,2024-06-22T17:38:04Z,143178.54,NULL,Theorie,nadharia,d,NA,NA,NA,NA,sdf,NA,0,NA,NA,NA,NA,NA,NA,NA,NA,NA,NA,NA,NA,NA,NA,NA,NA,NA,NA,NA
09b9e,"""Falsch""-Screen",canvas.Screen,3_0_0_0_0_0_2,NA,NA,timeout,5004.12,143177,143169.94,143178.54,148165.96,148168,2024-06-22T17:38:09Z,148182.66,NULL,Theorie,nadharia,d,NA,NA,NA,NA,sdf,0,0,NA,NA,NA,NA,NA,NA,NA,NA,NA,NA,NA,NA,NA,NA,NA,NA,NA,NA,NA
09b9e,deep,flow.Sequence,3_0_0_0_0_0,NA,NA,completion,10825.7,137334,137323.58,137340.26,148165.96,148168,2024-06-22T17:38:09Z,148182.66,NULL,Theorie,nadharia,d,NA,NA,NA,NA,sdf,NA,0,NA,NA,NA,NA,NA,NA,NA,NA,NA,NA,NA,NA,NA,NA,NA,NA,NA,NA,NA
09b9e,shallow,flow.Sequence,3_0_0_0_0_1,NA,NA,skipped,NA,148168,NA,NA,148165.96,148168,2024-06-22T17:38:09Z,148182.66,NULL,Theorie,nadharia,d,NA,NA,NA,NA,sdf,NA,0,NA,NA,NA,NA,NA,NA,NA,NA,NA,NA,NA,NA,NA,NA,NA,NA,NA,NA,NA
09b9e,task,flow.Sequence,3_0_0_0_0,NA,NA,completion,10825.7,137334,137323.58,137340.26,148165.96,148168,2024-06-22T17:38:09Z,148182.66,NULL,Theorie,nadharia,d,NA,NA,NA,NA,sdf,NA,0,NA,NA,NA,NA,NA,NA,NA,NA,NA,NA,NA,NA,NA,NA,NA,NA,NA,NA,NA
09b9e,Deep Question,html.Page,3_0_0_0_1_0_0,NA,NA,form submission,2596.34,148168,148165.96,148182.66,150779,150779,2024-06-22T17:38:11Z,150784.8,NULL,Atmosphäre,angahewa,d,NA,NA,NA,NA,NA,NA,0,NA,NA,NA,NA,NA,NA,NA,NA,NA,NA,NA,NA,NA,NA,NA,NA,NA,NA,NA
09b9e,"""Richtig""-Screen",canvas.Screen,3_0_0_0_1_0_1,NA,NA,skipped,NA,150780,NA,NA,150779,150780,2024-06-22T17:38:11Z,150784.8,NULL,Atmosphäre,angahewa,d,NA,NA,NA,NA,sdf,NA,0,NA,NA,NA,NA,NA,NA,NA,NA,NA,NA,NA,NA,NA,NA,NA,NA,NA,NA,NA
09b9e,"""Falsch""-Screen",canvas.Screen,3_0_0_0_1_0_2,NA,NA,timeout,5004.1,150781,150775.64,150784.8,155772.22,155775,2024-06-22T17:38:16Z,155788.9,NULL,Atmosphäre,angahewa,d,NA,NA,NA,NA,sdf,0,0,NA,NA,NA,NA,NA,NA,NA,NA,NA,NA,NA,NA,NA,NA,NA,NA,NA,NA,NA
09b9e,deep,flow.Sequence,3_0_0_0_1_0,NA,NA,completion,7589.56,148168,148165.96,148182.66,155772.22,155777,2024-06-22T17:38:16Z,155788.9,NULL,Atmosphäre,angahewa,d,NA,NA,NA,NA,sdf,NA,0,NA,NA,NA,NA,NA,NA,NA,NA,NA,NA,NA,NA,NA,NA,NA,NA,NA,NA,NA
09b9e,shallow,flow.Sequence,3_0_0_0_1_1,NA,NA,skipped,NA,155777,NA,NA,155772.22,155777,2024-06-22T17:38:16Z,155788.9,NULL,Atmosphäre,angahewa,d,NA,NA,NA,NA,sdf,NA,0,NA,NA,NA,NA,NA,NA,NA,NA,NA,NA,NA,NA,NA,NA,NA,NA,NA,NA,NA
09b9e,task,flow.Sequence,3_0_0_0_1,NA,NA,completion,7589.56,148168,148165.96,148182.66,155772.22,155777,2024-06-22T17:38:16Z,155788.9,NULL,Atmosphäre,angahewa,d,NA,NA,NA,NA,sdf,NA,0,NA,NA,NA,NA,NA,NA,NA,NA,NA,NA,NA,NA,NA,NA,NA,NA,NA,NA,NA
09b9e,deep,flow.Sequence,3_0_0_0_2_0,NA,NA,skipped,NA,155779,NA,NA,155772.22,155779,2024-06-22T17:38:16Z,155788.9,NULL,Erneuerung,ukarabati,s,ushawishi,ukalifu,unyonyaji,NA,sdf,NA,0,NA,NA,NA,NA,NA,NA,NA,NA,NA,NA,NA,NA,NA,NA,NA,NA,NA,NA,NA
09b9e,Shallow Question,html.Page,3_0_0_0_2_1_0,NA,NA,form submission,3386.1,155779,155772.22,155788.9,159175,159176,2024-06-22T17:38:20Z,159174.94,NULL,Erneuerung,ukarabati,s,ushawishi,ukalifu,unyonyaji,ukalifu,NA,NA,0,NA,NA,NA,NA,NA,NA,NA,NA,NA,NA,NA,NA,NA,NA,NA,NA,NA,NA,NA
09b9e,"""Richtig""-Screen",canvas.Screen,3_0_0_0_2_1_1,NA,NA,skipped,NA,159180,NA,NA,159175,159180,2024-06-22T17:38:20Z,159174.94,NULL,Erneuerung,ukarabati,s,ushawishi,ukalifu,unyonyaji,NA,sdf,NA,0,NA,NA,NA,NA,NA,NA,NA,NA,NA,NA,NA,NA,NA,NA,NA,NA,NA,NA,NA
09b9e,"""Falsch""-Screen",canvas.Screen,3_0_0_0_2_1_2,NA,NA,timeout,5004.34,159181,159172.38,159174.94,164162.58,164165,2024-06-22T17:38:25Z,164179.28,NULL,Erneuerung,ukarabati,s,ushawishi,ukalifu,unyonyaji,NA,sdf,0,0,NA,NA,NA,NA,NA,NA,NA,NA,NA,NA,NA,NA,NA,NA,NA,NA,NA,NA,NA
09b9e,shallow,flow.Sequence,3_0_0_0_2_1,NA,NA,completion,8373.68,155779,155772.22,155788.9,164162.58,164165,2024-06-22T17:38:25Z,164179.28,NULL,Erneuerung,ukarabati,s,ushawishi,ukalifu,unyonyaji,NA,sdf,NA,0,NA,NA,NA,NA,NA,NA,NA,NA,NA,NA,NA,NA,NA,NA,NA,NA,NA,NA,NA
09b9e,task,flow.Sequence,3_0_0_0_2,NA,NA,completion,8373.68,155778,155772.22,155788.9,164162.58,164166,2024-06-22T17:38:25Z,164179.28,NULL,Erneuerung,ukarabati,s,ushawishi,ukalifu,unyonyaji,NA,sdf,NA,0,NA,NA,NA,NA,NA,NA,NA,NA,NA,NA,NA,NA,NA,NA,NA,NA,NA,NA,NA
09b9e,deep,flow.Sequence,3_0_0_0_3_0,NA,NA,skipped,NA,164166,NA,NA,164162.58,164166,2024-06-22T17:38:25Z,164179.28,NULL,Wechsel,ugeuzaji,s,utambulisho,kujenga,wasiwasi,NA,sdf,NA,0,NA,NA,NA,NA,NA,NA,NA,NA,NA,NA,NA,NA,NA,NA,NA,NA,NA,NA,NA
09b9e,Shallow Question,html.Page,3_0_0_0_3_1_0,NA,NA,form submission,2274.72,164166,164162.58,164179.28,166454,166454,2024-06-22T17:38:27Z,166464.46,NULL,Wechsel,ugeuzaji,s,utambulisho,kujenga,wasiwasi,utambulisho,NA,NA,0,NA,NA,NA,NA,NA,NA,NA,NA,NA,NA,NA,NA,NA,NA,NA,NA,NA,NA,NA
09b9e,"""Richtig""-Screen",canvas.Screen,3_0_0_0_3_1_1,NA,NA,skipped,NA,166456,NA,NA,166454,166456,2024-06-22T17:38:27Z,166464.46,NULL,Wechsel,ugeuzaji,s,utambulisho,kujenga,wasiwasi,NA,sdf,NA,0,NA,NA,NA,NA,NA,NA,NA,NA,NA,NA,NA,NA,NA,NA,NA,NA,NA,NA,NA
09b9e,"""Falsch""-Screen",canvas.Screen,3_0_0_0_3_1_2,NA,NA,timeout,5004.02,166458,166450.22,166464.46,171451.84,171453,2024-06-22T17:38:32Z,171468.48,NULL,Wechsel,ugeuzaji,s,utambulisho,kujenga,wasiwasi,NA,sdf,0,0,NA,NA,NA,NA,NA,NA,NA,NA,NA,NA,NA,NA,NA,NA,NA,NA,NA,NA,NA
09b9e,shallow,flow.Sequence,3_0_0_0_3_1,NA,NA,completion,7272.56,164166,164162.58,164179.28,171451.84,171453,2024-06-22T17:38:32Z,171468.48,NULL,Wechsel,ugeuzaji,s,utambulisho,kujenga,wasiwasi,NA,sdf,NA,0,NA,NA,NA,NA,NA,NA,NA,NA,NA,NA,NA,NA,NA,NA,NA,NA,NA,NA,NA
09b9e,task,flow.Sequence,3_0_0_0_3,NA,NA,completion,7272.56,164166,164162.58,164179.28,171451.84,171454,2024-06-22T17:38:32Z,171468.48,NULL,Wechsel,ugeuzaji,s,utambulisho,kujenga,wasiwasi,NA,sdf,NA,0,NA,NA,NA,NA,NA,NA,NA,NA,NA,NA,NA,NA,NA,NA,NA,NA,NA,NA,NA
09b9e,deep,flow.Sequence,3_0_0_0_4_0,NA,NA,skipped,NA,171454,NA,NA,171451.84,171454,2024-06-22T17:38:32Z,171468.48,NULL,Hoffnung,matarajio,s,kutaalamika,uratibu,mvumbuzi,NA,sdf,NA,0,NA,NA,NA,NA,NA,NA,NA,NA,NA,NA,NA,NA,NA,NA,NA,NA,NA,NA,NA
09b9e,Shallow Question,html.Page,3_0_0_0_4_1_0,NA,NA,form submission,4481.52,171454,171451.84,171468.48,175950,175950,2024-06-22T17:38:36Z,175955.6,NULL,Hoffnung,matarajio,s,kutaalamika,uratibu,mvumbuzi,uratibu,NA,NA,0,NA,NA,NA,NA,NA,NA,NA,NA,NA,NA,NA,NA,NA,NA,NA,NA,NA,NA,NA
09b9e,"""Richtig""-Screen",canvas.Screen,3_0_0_0_4_1_1,NA,NA,skipped,NA,175951,NA,NA,175950,175951,2024-06-22T17:38:37Z,175955.6,NULL,Hoffnung,matarajio,s,kutaalamika,uratibu,mvumbuzi,NA,sdf,NA,0,NA,NA,NA,NA,NA,NA,NA,NA,NA,NA,NA,NA,NA,NA,NA,NA,NA,NA,NA
09b9e,"""Falsch""-Screen",canvas.Screen,3_0_0_0_4_1_2,NA,NA,timeout,5004.2,175953,175946.24,175955.6,180943.12,180944,2024-06-22T17:38:41Z,180959.8,NULL,Hoffnung,matarajio,s,kutaalamika,uratibu,mvumbuzi,NA,sdf,0,0,NA,NA,NA,NA,NA,NA,NA,NA,NA,NA,NA,NA,NA,NA,NA,NA,NA,NA,NA
09b9e,shallow,flow.Sequence,3_0_0_0_4_1,NA,NA,completion,9474.64,171454,171451.84,171468.48,180943.12,180944,2024-06-22T17:38:41Z,180959.8,NULL,Hoffnung,matarajio,s,kutaalamika,uratibu,mvumbuzi,NA,sdf,NA,0,NA,NA,NA,NA,NA,NA,NA,NA,NA,NA,NA,NA,NA,NA,NA,NA,NA,NA,NA
09b9e,task,flow.Sequence,3_0_0_0_4,NA,NA,completion,9474.64,171454,171451.84,171468.48,180943.12,180945,2024-06-22T17:38:41Z,180959.8,NULL,Hoffnung,matarajio,s,kutaalamika,uratibu,mvumbuzi,NA,sdf,NA,0,NA,NA,NA,NA,NA,NA,NA,NA,NA,NA,NA,NA,NA,NA,NA,NA,NA,NA,NA
09b9e,deep,flow.Sequence,3_0_0_0_5_0,NA,NA,skipped,NA,180945,NA,NA,180943.12,180945,2024-06-22T17:38:41Z,180959.8,NULL,Verpackung,ufungaji,s,uhusiano,upimaji,uchunguzi,NA,sdf,NA,0,NA,NA,NA,NA,NA,NA,NA,NA,NA,NA,NA,NA,NA,NA,NA,NA,NA,NA,NA
09b9e,Shallow Question,html.Page,3_0_0_0_5_1_0,NA,NA,form submission,7627.2,180945,180943.12,180959.8,188587,188587,2024-06-22T17:38:49Z,188599.38,NULL,Verpackung,ufungaji,s,uhusiano,upimaji,uchunguzi,ufungaji,NA,NA,0,NA,NA,NA,NA,NA,NA,NA,NA,NA,NA,NA,NA,NA,NA,NA,NA,NA,NA,NA
09b9e,"""Richtig""-Screen",canvas.Screen,3_0_0_0_5_1_1,NA,NA,timeout,5004.22,188589,188582.54,188599.38,193586.9,193589,2024-06-22T17:38:54Z,193603.6,NULL,Verpackung,ufungaji,s,uhusiano,upimaji,uchunguzi,NA,sdf,1,0,NA,NA,NA,NA,NA,NA,NA,NA,NA,NA,NA,NA,NA,NA,NA,NA,NA,NA,NA
09b9e,"""Falsch""-Screen",canvas.Screen,3_0_0_0_5_1_2,NA,NA,skipped,NA,193591,NA,NA,193586.9,193591,2024-06-22T17:38:54Z,193603.6,NULL,Verpackung,ufungaji,s,uhusiano,upimaji,uchunguzi,NA,sdf,NA,0,NA,NA,NA,NA,NA,NA,NA,NA,NA,NA,NA,NA,NA,NA,NA,NA,NA,NA,NA
09b9e,shallow,flow.Sequence,3_0_0_0_5_1,NA,NA,completion,12627.1,180945,180943.12,180959.8,193586.9,193592,2024-06-22T17:38:54Z,193603.6,NULL,Verpackung,ufungaji,s,uhusiano,upimaji,uchunguzi,NA,sdf,NA,0,NA,NA,NA,NA,NA,NA,NA,NA,NA,NA,NA,NA,NA,NA,NA,NA,NA,NA,NA
09b9e,task,flow.Sequence,3_0_0_0_5,NA,NA,completion,12627.1,180945,180943.12,180959.8,193586.9,193592,2024-06-22T17:38:54Z,193603.6,NULL,Verpackung,ufungaji,s,uhusiano,upimaji,uchunguzi,NA,sdf,NA,0,NA,NA,NA,NA,NA,NA,NA,NA,NA,NA,NA,NA,NA,NA,NA,NA,NA,NA,NA
09b9e,Deep Question,html.Page,3_0_0_0_6_0_0,NA,NA,form submission,2633.4,193592,193586.9,193603.6,196237,196238,2024-06-22T17:38:57Z,196238.98,NULL,Schock,mshtuko,d,NA,NA,NA,NA,NA,NA,0,NA,NA,NA,NA,NA,NA,NA,NA,NA,NA,NA,NA,NA,NA,NA,NA,NA,NA,NA
09b9e,"""Richtig""-Screen",canvas.Screen,3_0_0_0_6_0_1,NA,NA,skipped,NA,196239,NA,NA,196237,196239,2024-06-22T17:38:57Z,196238.98,NULL,Schock,mshtuko,d,NA,NA,NA,NA,sdf,NA,0,NA,NA,NA,NA,NA,NA,NA,NA,NA,NA,NA,NA,NA,NA,NA,NA,NA,NA,NA
09b9e,"""Falsch""-Screen",canvas.Screen,3_0_0_0_6_0_2,NA,NA,timeout,5004.4,196241,196233.42,196238.98,201226.68,201229,2024-06-22T17:39:02Z,201243.38,NULL,Schock,mshtuko,d,NA,NA,NA,NA,sdf,0,0,NA,NA,NA,NA,NA,NA,NA,NA,NA,NA,NA,NA,NA,NA,NA,NA,NA,NA,NA
09b9e,deep,flow.Sequence,3_0_0_0_6_0,NA,NA,completion,7623.08,193592,193586.9,193603.6,201226.68,201229,2024-06-22T17:39:02Z,201243.38,NULL,Schock,mshtuko,d,NA,NA,NA,NA,sdf,NA,0,NA,NA,NA,NA,NA,NA,NA,NA,NA,NA,NA,NA,NA,NA,NA,NA,NA,NA,NA
09b9e,shallow,flow.Sequence,3_0_0_0_6_1,NA,NA,skipped,NA,201230,NA,NA,201226.68,201230,2024-06-22T17:39:02Z,201243.38,NULL,Schock,mshtuko,d,NA,NA,NA,NA,sdf,NA,0,NA,NA,NA,NA,NA,NA,NA,NA,NA,NA,NA,NA,NA,NA,NA,NA,NA,NA,NA
09b9e,task,flow.Sequence,3_0_0_0_6,NA,NA,completion,7623.08,193592,193586.9,193603.6,201226.68,201230,2024-06-22T17:39:02Z,201243.38,NULL,Schock,mshtuko,d,NA,NA,NA,NA,sdf,NA,0,NA,NA,NA,NA,NA,NA,NA,NA,NA,NA,NA,NA,NA,NA,NA,NA,NA,NA,NA
09b9e,Deep Question,html.Page,3_0_0_0_7_0_0,NA,NA,form submission,2335.62,201230,201226.68,201243.38,203579,203579,2024-06-22T17:39:04Z,203578.38,NULL,Flexibilität,kubadilika,d,NA,NA,NA,NA,NA,NA,0,NA,NA,NA,NA,NA,NA,NA,NA,NA,NA,NA,NA,NA,NA,NA,NA,NA,NA,NA
09b9e,"""Richtig""-Screen",canvas.Screen,3_0_0_0_7_0_1,NA,NA,skipped,NA,203581,NA,NA,203579,203581,2024-06-22T17:39:04Z,203578.38,NULL,Flexibilität,kubadilika,d,NA,NA,NA,NA,sdf,NA,0,NA,NA,NA,NA,NA,NA,NA,NA,NA,NA,NA,NA,NA,NA,NA,NA,NA,NA,NA
09b9e,"""Falsch""-Screen",canvas.Screen,3_0_0_0_7_0_2,NA,NA,timeout,5004.44,203583,203575.42,203578.38,208566.12,208568,2024-06-22T17:39:09Z,208582.82,NULL,Flexibilität,kubadilika,d,NA,NA,NA,NA,sdf,0,0,NA,NA,NA,NA,NA,NA,NA,NA,NA,NA,NA,NA,NA,NA,NA,NA,NA,NA,NA
09b9e,deep,flow.Sequence,3_0_0_0_7_0,NA,NA,completion,7322.74,201230,201226.68,201243.38,208566.12,208568,2024-06-22T17:39:09Z,208582.82,NULL,Flexibilität,kubadilika,d,NA,NA,NA,NA,sdf,NA,0,NA,NA,NA,NA,NA,NA,NA,NA,NA,NA,NA,NA,NA,NA,NA,NA,NA,NA,NA
09b9e,shallow,flow.Sequence,3_0_0_0_7_1,NA,NA,skipped,NA,208569,NA,NA,208566.12,208569,2024-06-22T17:39:09Z,208582.82,NULL,Flexibilität,kubadilika,d,NA,NA,NA,NA,sdf,NA,0,NA,NA,NA,NA,NA,NA,NA,NA,NA,NA,NA,NA,NA,NA,NA,NA,NA,NA,NA
09b9e,task,flow.Sequence,3_0_0_0_7,NA,NA,completion,7322.74,201230,201226.68,201243.38,208566.12,208569,2024-06-22T17:39:09Z,208582.82,NULL,Flexibilität,kubadilika,d,NA,NA,NA,NA,sdf,NA,0,NA,NA,NA,NA,NA,NA,NA,NA,NA,NA,NA,NA,NA,NA,NA,NA,NA,NA,NA
09b9e,block,flow.Loop,3_0_0_0,NA,NA,completion,71225.86,137334,137323.58,137340.26,208566.12,208569,2024-06-22T17:39:09Z,208582.82,NULL,NA,NA,NA,NA,NA,NA,NA,sdf,NA,0,NA,NA,NA,NA,NA,NA,NA,NA,NA,NA,NA,NA,NA,NA,NA,NA,NA,NA,NA
09b9e,weiter,canvas.Screen,3_0_0_1,sdf,keypress(Space),response,1457.18,208569,208566.12,208582.82,210040,210052,2024-06-22T17:39:11Z,210100.48,NULL,NA,NA,NA,NA,NA,NA,NA,sdf,NA,0,NA,NA,NA,NA,NA,NA,NA,NA,NA,NA,NA,NA,NA,NA,NA,NA,NA,NA,NA
09b9e,check continue,flow.Sequence,3_0_0,NA,NA,completion,72699.74,137334,137323.58,137340.26,210040,210053,2024-06-22T17:39:11Z,210100.48,NULL,NA,NA,NA,NA,NA,NA,NA,sdf,NA,0,NA,NA,NA,NA,NA,NA,NA,NA,NA,NA,NA,NA,NA,NA,NA,NA,NA,NA,NA
09b9e,deep,flow.Sequence,3_0_1_0_0_0,NA,NA,skipped,NA,210097,NA,NA,210040,210097,2024-06-22T17:39:11Z,210100.48,NULL,Verpackung,ufungaji,s,uhusiano,upimaji,uchunguzi,NA,sdfdsf,NA,1,NA,NA,NA,NA,NA,NA,NA,NA,NA,NA,NA,NA,NA,NA,NA,NA,NA,NA,NA
09b9e,Shallow Question,html.Page,3_0_1_0_0_1_0,NA,NA,form submission,4986.52,210097,210097.02,210100.48,215087,215088,2024-06-22T17:39:16Z,215087.98,NULL,Verpackung,ufungaji,s,uhusiano,upimaji,uchunguzi,ufungaji,NA,NA,1,NA,NA,NA,NA,NA,NA,NA,NA,NA,NA,NA,NA,NA,NA,NA,NA,NA,NA,NA
09b9e,"""Richtig""-Screen",canvas.Screen,3_0_1_0_0_1_1,NA,NA,timeout,5004.2,215094,215081.68,215087.98,220075.48,220077,2024-06-22T17:39:21Z,220092.18,NULL,Verpackung,ufungaji,s,uhusiano,upimaji,uchunguzi,NA,sdfdsf,1,1,NA,NA,NA,NA,NA,NA,NA,NA,NA,NA,NA,NA,NA,NA,NA,NA,NA,NA,NA
09b9e,"""Falsch""-Screen",canvas.Screen,3_0_1_0_0_1_2,NA,NA,skipped,NA,220080,NA,NA,220075.48,220080,2024-06-22T17:39:21Z,220092.18,NULL,Verpackung,ufungaji,s,uhusiano,upimaji,uchunguzi,NA,sdfdsf,NA,1,NA,NA,NA,NA,NA,NA,NA,NA,NA,NA,NA,NA,NA,NA,NA,NA,NA,NA,NA
09b9e,shallow,flow.Sequence,3_0_1_0_0_1,NA,NA,completion,9975,210097,210097.02,210100.48,220075.48,220081,2024-06-22T17:39:21Z,220092.18,NULL,Verpackung,ufungaji,s,uhusiano,upimaji,uchunguzi,NA,sdfdsf,NA,1,NA,NA,NA,NA,NA,NA,NA,NA,NA,NA,NA,NA,NA,NA,NA,NA,NA,NA,NA
09b9e,task,flow.Sequence,3_0_1_0_0,NA,NA,completion,9975,210097,210097.02,210100.48,220075.48,220081,2024-06-22T17:39:21Z,220092.18,NULL,Verpackung,ufungaji,s,uhusiano,upimaji,uchunguzi,NA,sdfdsf,NA,1,NA,NA,NA,NA,NA,NA,NA,NA,NA,NA,NA,NA,NA,NA,NA,NA,NA,NA,NA
09b9e,Deep Question,html.Page,3_0_1_0_1_0_0,NA,NA,form submission,2912.82,220081,220075.48,220092.18,223005,223006,2024-06-22T17:39:24Z,223011.18,NULL,Atmosphäre,angahewa,d,NA,NA,NA,NA,NA,NA,1,NA,NA,NA,NA,NA,NA,NA,NA,NA,NA,NA,NA,NA,NA,NA,NA,NA,NA,NA
09b9e,"""Richtig""-Screen",canvas.Screen,3_0_1_0_1_0_1,NA,NA,skipped,NA,223007,NA,NA,223005,223008,2024-06-22T17:39:24Z,223011.18,NULL,Atmosphäre,angahewa,d,NA,NA,NA,NA,sdfdsf,NA,1,NA,NA,NA,NA,NA,NA,NA,NA,NA,NA,NA,NA,NA,NA,NA,NA,NA,NA,NA
09b9e,"""Falsch""-Screen",canvas.Screen,3_0_1_0_1_0_2,NA,NA,timeout,5004.14,223009,223001.3,223011.18,227998.74,228000,2024-06-22T17:39:29Z,228015.32,NULL,Atmosphäre,angahewa,d,NA,NA,NA,NA,sdfdsf,0,1,NA,NA,NA,NA,NA,NA,NA,NA,NA,NA,NA,NA,NA,NA,NA,NA,NA,NA,NA
09b9e,deep,flow.Sequence,3_0_1_0_1_0,NA,NA,completion,7906.56,220081,220075.48,220092.18,227998.74,228001,2024-06-22T17:39:29Z,228015.32,NULL,Atmosphäre,angahewa,d,NA,NA,NA,NA,sdfdsf,NA,1,NA,NA,NA,NA,NA,NA,NA,NA,NA,NA,NA,NA,NA,NA,NA,NA,NA,NA,NA
09b9e,shallow,flow.Sequence,3_0_1_0_1_1,NA,NA,skipped,NA,228001,NA,NA,227998.74,228001,2024-06-22T17:39:29Z,228015.32,NULL,Atmosphäre,angahewa,d,NA,NA,NA,NA,sdfdsf,NA,1,NA,NA,NA,NA,NA,NA,NA,NA,NA,NA,NA,NA,NA,NA,NA,NA,NA,NA,NA
09b9e,task,flow.Sequence,3_0_1_0_1,NA,NA,completion,7906.56,220081,220075.48,220092.18,227998.74,228001,2024-06-22T17:39:29Z,228015.32,NULL,Atmosphäre,angahewa,d,NA,NA,NA,NA,sdfdsf,NA,1,NA,NA,NA,NA,NA,NA,NA,NA,NA,NA,NA,NA,NA,NA,NA,NA,NA,NA,NA
09b9e,Deep Question,html.Page,3_0_1_0_2_0_0,NA,NA,form submission,4828.68,228002,227998.74,228015.32,232844,232845,2024-06-22T17:39:33Z,232852.66,NULL,Theorie,nadharia,d,NA,NA,NA,nadharia,NA,NA,1,NA,NA,NA,NA,NA,NA,NA,NA,NA,NA,NA,NA,NA,NA,NA,NA,NA,NA,NA
09b9e,"""Richtig""-Screen",canvas.Screen,3_0_1_0_2_0_1,NA,NA,timeout,5004.14,232846,232841.02,232852.66,237840.1,237841,2024-06-22T17:39:38Z,237856.8,NULL,Theorie,nadharia,d,NA,NA,NA,NA,sdfdsf,1,1,NA,NA,NA,NA,NA,NA,NA,NA,NA,NA,NA,NA,NA,NA,NA,NA,NA,NA,NA
09b9e,"""Falsch""-Screen",canvas.Screen,3_0_1_0_2_0_2,NA,NA,skipped,NA,237844,NA,NA,237840.1,237844,2024-06-22T17:39:38Z,237856.8,NULL,Theorie,nadharia,d,NA,NA,NA,NA,sdfdsf,NA,1,NA,NA,NA,NA,NA,NA,NA,NA,NA,NA,NA,NA,NA,NA,NA,NA,NA,NA,NA
09b9e,deep,flow.Sequence,3_0_1_0_2_0,NA,NA,completion,9824.78,228001,227998.74,228015.32,237840.1,237844,2024-06-22T17:39:38Z,237856.8,NULL,Theorie,nadharia,d,NA,NA,NA,NA,sdfdsf,NA,1,NA,NA,NA,NA,NA,NA,NA,NA,NA,NA,NA,NA,NA,NA,NA,NA,NA,NA,NA
09b9e,shallow,flow.Sequence,3_0_1_0_2_1,NA,NA,skipped,NA,237844,NA,NA,237840.1,237844,2024-06-22T17:39:38Z,237856.8,NULL,Theorie,nadharia,d,NA,NA,NA,NA,sdfdsf,NA,1,NA,NA,NA,NA,NA,NA,NA,NA,NA,NA,NA,NA,NA,NA,NA,NA,NA,NA,NA
09b9e,task,flow.Sequence,3_0_1_0_2,NA,NA,completion,9824.78,228001,227998.74,228015.32,237840.1,237844,2024-06-22T17:39:38Z,237856.8,NULL,Theorie,nadharia,d,NA,NA,NA,NA,sdfdsf,NA,1,NA,NA,NA,NA,NA,NA,NA,NA,NA,NA,NA,NA,NA,NA,NA,NA,NA,NA,NA
09b9e,deep,flow.Sequence,3_0_1_0_3_0,NA,NA,skipped,NA,237844,NA,NA,237840.1,237844,2024-06-22T17:39:38Z,237856.8,NULL,Wechsel,ugeuzaji,s,utambulisho,kujenga,wasiwasi,NA,sdfdsf,NA,1,NA,NA,NA,NA,NA,NA,NA,NA,NA,NA,NA,NA,NA,NA,NA,NA,NA,NA,NA
09b9e,Shallow Question,html.Page,3_0_1_0_3_1_0,NA,NA,form submission,6177.2,237845,237840.1,237856.8,244034,244035,2024-06-22T17:39:45Z,244045.32,NULL,Wechsel,ugeuzaji,s,utambulisho,kujenga,wasiwasi,ugeuzaji,NA,NA,1,NA,NA,NA,NA,NA,NA,NA,NA,NA,NA,NA,NA,NA,NA,NA,NA,NA,NA,NA
09b9e,"""Richtig""-Screen",canvas.Screen,3_0_1_0_3_1_1,NA,NA,timeout,5004.08,244036,244030.86,244045.32,249032.7,249035,2024-06-22T17:39:50Z,249049.4,NULL,Wechsel,ugeuzaji,s,utambulisho,kujenga,wasiwasi,NA,sdfdsf,1,1,NA,NA,NA,NA,NA,NA,NA,NA,NA,NA,NA,NA,NA,NA,NA,NA,NA,NA,NA
09b9e,"""Falsch""-Screen",canvas.Screen,3_0_1_0_3_1_2,NA,NA,skipped,NA,249037,NA,NA,249032.7,249038,2024-06-22T17:39:50Z,249049.4,NULL,Wechsel,ugeuzaji,s,utambulisho,kujenga,wasiwasi,NA,sdfdsf,NA,1,NA,NA,NA,NA,NA,NA,NA,NA,NA,NA,NA,NA,NA,NA,NA,NA,NA,NA,NA
09b9e,shallow,flow.Sequence,3_0_1_0_3_1,NA,NA,completion,11175.9,237845,237840.1,237856.8,249032.7,249038,2024-06-22T17:39:50Z,249049.4,NULL,Wechsel,ugeuzaji,s,utambulisho,kujenga,wasiwasi,NA,sdfdsf,NA,1,NA,NA,NA,NA,NA,NA,NA,NA,NA,NA,NA,NA,NA,NA,NA,NA,NA,NA,NA
09b9e,task,flow.Sequence,3_0_1_0_3,NA,NA,completion,11175.9,237844,237840.1,237856.8,249032.7,249038,2024-06-22T17:39:50Z,249049.4,NULL,Wechsel,ugeuzaji,s,utambulisho,kujenga,wasiwasi,NA,sdfdsf,NA,1,NA,NA,NA,NA,NA,NA,NA,NA,NA,NA,NA,NA,NA,NA,NA,NA,NA,NA,NA
09b9e,deep,flow.Sequence,3_0_1_0_4_0,NA,NA,skipped,NA,249038,NA,NA,249032.7,249038,2024-06-22T17:39:50Z,249049.4,NULL,Hoffnung,matarajio,s,kutaalamika,uratibu,mvumbuzi,NA,sdfdsf,NA,1,NA,NA,NA,NA,NA,NA,NA,NA,NA,NA,NA,NA,NA,NA,NA,NA,NA,NA,NA
09b9e,Shallow Question,html.Page,3_0_1_0_4_1_0,NA,NA,form submission,8928.6,249038,249032.7,249049.4,257978,257979,2024-06-22T17:39:59Z,257990.22,NULL,Hoffnung,matarajio,s,kutaalamika,uratibu,mvumbuzi,matarajio,NA,NA,1,NA,NA,NA,NA,NA,NA,NA,NA,NA,NA,NA,NA,NA,NA,NA,NA,NA,NA,NA
09b9e,"""Richtig""-Screen",canvas.Screen,3_0_1_0_4_1_1,NA,NA,timeout,5004.04,257981,257974.56,257990.22,262977.58,262978,2024-06-22T17:40:04Z,262994.26,NULL,Hoffnung,matarajio,s,kutaalamika,uratibu,mvumbuzi,NA,sdfdsf,1,1,NA,NA,NA,NA,NA,NA,NA,NA,NA,NA,NA,NA,NA,NA,NA,NA,NA,NA,NA
09b9e,"""Falsch""-Screen",canvas.Screen,3_0_1_0_4_1_2,NA,NA,skipped,NA,262981,NA,NA,262977.58,262981,2024-06-22T17:40:04Z,262994.26,NULL,Hoffnung,matarajio,s,kutaalamika,uratibu,mvumbuzi,NA,sdfdsf,NA,1,NA,NA,NA,NA,NA,NA,NA,NA,NA,NA,NA,NA,NA,NA,NA,NA,NA,NA,NA
09b9e,shallow,flow.Sequence,3_0_1_0_4_1,NA,NA,completion,13928.18,249038,249032.7,249049.4,262977.58,262981,2024-06-22T17:40:04Z,262994.26,NULL,Hoffnung,matarajio,s,kutaalamika,uratibu,mvumbuzi,NA,sdfdsf,NA,1,NA,NA,NA,NA,NA,NA,NA,NA,NA,NA,NA,NA,NA,NA,NA,NA,NA,NA,NA
09b9e,task,flow.Sequence,3_0_1_0_4,NA,NA,completion,13928.18,249038,249032.7,249049.4,262977.58,262981,2024-06-22T17:40:04Z,262994.26,NULL,Hoffnung,matarajio,s,kutaalamika,uratibu,mvumbuzi,NA,sdfdsf,NA,1,NA,NA,NA,NA,NA,NA,NA,NA,NA,NA,NA,NA,NA,NA,NA,NA,NA,NA,NA
09b9e,Deep Question,html.Page,3_0_1_0_5_0_0,NA,NA,form submission,8916.74,262981,262977.58,262994.26,271911,271911,2024-06-22T17:40:12Z,271918.22,NULL,Schock,mshtuko,d,NA,NA,NA,mshtuko,NA,NA,1,NA,NA,NA,NA,NA,NA,NA,NA,NA,NA,NA,NA,NA,NA,NA,NA,NA,NA,NA
09b9e,"""Richtig""-Screen",canvas.Screen,3_0_1_0_5_0_1,NA,NA,timeout,5004.3,271913,271907.6,271918.22,276905.84,276907,2024-06-22T17:40:17Z,276922.52,NULL,Schock,mshtuko,d,NA,NA,NA,NA,sdfdsf,1,1,NA,NA,NA,NA,NA,NA,NA,NA,NA,NA,NA,NA,NA,NA,NA,NA,NA,NA,NA
09b9e,"""Falsch""-Screen",canvas.Screen,3_0_1_0_5_0_2,NA,NA,skipped,NA,276909,NA,NA,276905.84,276909,2024-06-22T17:40:17Z,276922.52,NULL,Schock,mshtuko,d,NA,NA,NA,NA,sdfdsf,NA,1,NA,NA,NA,NA,NA,NA,NA,NA,NA,NA,NA,NA,NA,NA,NA,NA,NA,NA,NA
09b9e,deep,flow.Sequence,3_0_1_0_5_0,NA,NA,completion,13911.58,262981,262977.58,262994.26,276905.84,276910,2024-06-22T17:40:17Z,276922.52,NULL,Schock,mshtuko,d,NA,NA,NA,NA,sdfdsf,NA,1,NA,NA,NA,NA,NA,NA,NA,NA,NA,NA,NA,NA,NA,NA,NA,NA,NA,NA,NA
09b9e,shallow,flow.Sequence,3_0_1_0_5_1,NA,NA,skipped,NA,276910,NA,NA,276905.84,276910,2024-06-22T17:40:17Z,276922.52,NULL,Schock,mshtuko,d,NA,NA,NA,NA,sdfdsf,NA,1,NA,NA,NA,NA,NA,NA,NA,NA,NA,NA,NA,NA,NA,NA,NA,NA,NA,NA,NA
09b9e,task,flow.Sequence,3_0_1_0_5,NA,NA,completion,13911.58,262981,262977.58,262994.26,276905.84,276910,2024-06-22T17:40:17Z,276922.52,NULL,Schock,mshtuko,d,NA,NA,NA,NA,sdfdsf,NA,1,NA,NA,NA,NA,NA,NA,NA,NA,NA,NA,NA,NA,NA,NA,NA,NA,NA,NA,NA
09b9e,deep,flow.Sequence,3_0_1_0_6_0,NA,NA,skipped,NA,276910,NA,NA,276905.84,276910,2024-06-22T17:40:17Z,276922.52,NULL,Erneuerung,ukarabati,s,ushawishi,ukalifu,unyonyaji,NA,sdfdsf,NA,1,NA,NA,NA,NA,NA,NA,NA,NA,NA,NA,NA,NA,NA,NA,NA,NA,NA,NA,NA
09b9e,Shallow Question,html.Page,3_0_1_0_6_1_0,NA,NA,form submission,6651.48,276910,276905.84,276922.52,283574,283575,2024-06-22T17:40:24Z,283577.94,NULL,Erneuerung,ukarabati,s,ushawishi,ukalifu,unyonyaji,ukarabati,NA,NA,1,NA,NA,NA,NA,NA,NA,NA,NA,NA,NA,NA,NA,NA,NA,NA,NA,NA,NA,NA
09b9e,"""Richtig""-Screen",canvas.Screen,3_0_1_0_6_1_1,NA,NA,timeout,5004.16,283576,283571.48,283577.94,288565.56,288567,2024-06-22T17:40:29Z,288582.1,NULL,Erneuerung,ukarabati,s,ushawishi,ukalifu,unyonyaji,NA,sdfdsf,1,1,NA,NA,NA,NA,NA,NA,NA,NA,NA,NA,NA,NA,NA,NA,NA,NA,NA,NA,NA
09b9e,"""Falsch""-Screen",canvas.Screen,3_0_1_0_6_1_2,NA,NA,skipped,NA,288569,NA,NA,288565.56,288569,2024-06-22T17:40:29Z,288582.1,NULL,Erneuerung,ukarabati,s,ushawishi,ukalifu,unyonyaji,NA,sdfdsf,NA,1,NA,NA,NA,NA,NA,NA,NA,NA,NA,NA,NA,NA,NA,NA,NA,NA,NA,NA,NA
09b9e,shallow,flow.Sequence,3_0_1_0_6_1,NA,NA,completion,11643.04,276910,276905.84,276922.52,288565.56,288570,2024-06-22T17:40:29Z,288582.1,NULL,Erneuerung,ukarabati,s,ushawishi,ukalifu,unyonyaji,NA,sdfdsf,NA,1,NA,NA,NA,NA,NA,NA,NA,NA,NA,NA,NA,NA,NA,NA,NA,NA,NA,NA,NA
09b9e,task,flow.Sequence,3_0_1_0_6,NA,NA,completion,11643.04,276910,276905.84,276922.52,288565.56,288570,2024-06-22T17:40:29Z,288582.1,NULL,Erneuerung,ukarabati,s,ushawishi,ukalifu,unyonyaji,NA,sdfdsf,NA,1,NA,NA,NA,NA,NA,NA,NA,NA,NA,NA,NA,NA,NA,NA,NA,NA,NA,NA,NA
09b9e,Deep Question,html.Page,3_0_1_0_7_0_0,NA,NA,form submission,2611.9,288570,288565.56,288582.1,291194,291195,2024-06-22T17:40:32Z,291200.86,NULL,Flexibilität,kubadilika,d,NA,NA,NA,NA,NA,NA,1,NA,NA,NA,NA,NA,NA,NA,NA,NA,NA,NA,NA,NA,NA,NA,NA,NA,NA,NA
09b9e,"""Richtig""-Screen",canvas.Screen,3_0_1_0_7_0_1,NA,NA,skipped,NA,291197,NA,NA,291194,291197,2024-06-22T17:40:32Z,291200.86,NULL,Flexibilität,kubadilika,d,NA,NA,NA,NA,sdfdsf,NA,1,NA,NA,NA,NA,NA,NA,NA,NA,NA,NA,NA,NA,NA,NA,NA,NA,NA,NA,NA
09b9e,"""Falsch""-Screen",canvas.Screen,3_0_1_0_7_0_2,NA,NA,timeout,5004.28,291198,291191.6,291200.86,296188.52,296190,2024-06-22T17:40:37Z,296205.14,NULL,Flexibilität,kubadilika,d,NA,NA,NA,NA,sdfdsf,0,1,NA,NA,NA,NA,NA,NA,NA,NA,NA,NA,NA,NA,NA,NA,NA,NA,NA,NA,NA
09b9e,deep,flow.Sequence,3_0_1_0_7_0,NA,NA,completion,7606.42,288570,288565.56,288582.1,296188.52,296190,2024-06-22T17:40:37Z,296205.14,NULL,Flexibilität,kubadilika,d,NA,NA,NA,NA,sdfdsf,NA,1,NA,NA,NA,NA,NA,NA,NA,NA,NA,NA,NA,NA,NA,NA,NA,NA,NA,NA,NA
09b9e,shallow,flow.Sequence,3_0_1_0_7_1,NA,NA,skipped,NA,296190,NA,NA,296188.52,296190,2024-06-22T17:40:37Z,296205.14,NULL,Flexibilität,kubadilika,d,NA,NA,NA,NA,sdfdsf,NA,1,NA,NA,NA,NA,NA,NA,NA,NA,NA,NA,NA,NA,NA,NA,NA,NA,NA,NA,NA
09b9e,task,flow.Sequence,3_0_1_0_7,NA,NA,completion,7606.42,288570,288565.56,288582.1,296188.52,296190,2024-06-22T17:40:37Z,296205.14,NULL,Flexibilität,kubadilika,d,NA,NA,NA,NA,sdfdsf,NA,1,NA,NA,NA,NA,NA,NA,NA,NA,NA,NA,NA,NA,NA,NA,NA,NA,NA,NA,NA
09b9e,block,flow.Loop,3_0_1_0,NA,NA,completion,86088.04,210097,210097.02,210100.48,296188.52,296191,2024-06-22T17:40:37Z,296205.14,NULL,NA,NA,NA,NA,NA,NA,NA,sdfdsf,NA,1,NA,NA,NA,NA,NA,NA,NA,NA,NA,NA,NA,NA,NA,NA,NA,NA,NA,NA,NA
09b9e,weiter,canvas.Screen,3_0_1_1,sdf,keypress(Space),response,1099.86,296191,296188.52,296205.14,297305,297315,2024-06-22T17:40:38Z,297367.58,NULL,NA,NA,NA,NA,NA,NA,NA,sdfdsf,NA,1,NA,NA,NA,NA,NA,NA,NA,NA,NA,NA,NA,NA,NA,NA,NA,NA,NA,NA,NA
09b9e,check continue,flow.Sequence,3_0_1,NA,NA,completion,87204.52,210097,210097.02,210100.48,297305,297316,2024-06-22T17:40:38Z,297367.58,NULL,NA,NA,NA,NA,NA,NA,NA,sdfdsf,NA,1,NA,NA,NA,NA,NA,NA,NA,NA,NA,NA,NA,NA,NA,NA,NA,NA,NA,NA,NA
09b9e,Deep Question,html.Page,3_0_2_0_0_0_0,NA,NA,form submission,5297.42,297367,297367.12,297367.58,302665,302667,2024-06-22T17:40:43Z,302660.44,NULL,Schock,mshtuko,d,NA,NA,NA,mshtuko,NA,NA,2,NA,NA,NA,NA,NA,NA,NA,NA,NA,NA,NA,NA,NA,NA,NA,NA,NA,NA,NA
09b9e,"""Richtig""-Screen",canvas.Screen,3_0_2_0_0_0_1,NA,NA,timeout,5004.32,302673,302659.5,302660.44,307648.06,307651,2024-06-22T17:40:48Z,307664.76,NULL,Schock,mshtuko,d,NA,NA,NA,NA,sdf,1,2,NA,NA,NA,NA,NA,NA,NA,NA,NA,NA,NA,NA,NA,NA,NA,NA,NA,NA,NA
09b9e,"""Falsch""-Screen",canvas.Screen,3_0_2_0_0_0_2,NA,NA,skipped,NA,307658,NA,NA,307648.06,307658,2024-06-22T17:40:48Z,307664.76,NULL,Schock,mshtuko,d,NA,NA,NA,NA,sdf,NA,2,NA,NA,NA,NA,NA,NA,NA,NA,NA,NA,NA,NA,NA,NA,NA,NA,NA,NA,NA
09b9e,deep,flow.Sequence,3_0_2_0_0_0,NA,NA,completion,10280.48,297367,297367.12,297367.58,307648.06,307659,2024-06-22T17:40:48Z,307664.76,NULL,Schock,mshtuko,d,NA,NA,NA,NA,sdf,NA,2,NA,NA,NA,NA,NA,NA,NA,NA,NA,NA,NA,NA,NA,NA,NA,NA,NA,NA,NA
09b9e,shallow,flow.Sequence,3_0_2_0_0_1,NA,NA,skipped,NA,307659,NA,NA,307648.06,307659,2024-06-22T17:40:48Z,307664.76,NULL,Schock,mshtuko,d,NA,NA,NA,NA,sdf,NA,2,NA,NA,NA,NA,NA,NA,NA,NA,NA,NA,NA,NA,NA,NA,NA,NA,NA,NA,NA
09b9e,task,flow.Sequence,3_0_2_0_0,NA,NA,completion,10280.48,297367,297367.12,297367.58,307648.06,307659,2024-06-22T17:40:48Z,307664.76,NULL,Schock,mshtuko,d,NA,NA,NA,NA,sdf,NA,2,NA,NA,NA,NA,NA,NA,NA,NA,NA,NA,NA,NA,NA,NA,NA,NA,NA,NA,NA
09b9e,deep,flow.Sequence,3_0_2_0_1_0,NA,NA,skipped,NA,307659,NA,NA,307648.06,307659,2024-06-22T17:40:48Z,307664.76,NULL,Erneuerung,ukarabati,s,ushawishi,ukalifu,unyonyaji,NA,sdf,NA,2,NA,NA,NA,NA,NA,NA,NA,NA,NA,NA,NA,NA,NA,NA,NA,NA,NA,NA,NA
09b9e,Shallow Question,html.Page,3_0_2_0_1_1_0,NA,NA,form submission,6655.24,307659,307648.06,307664.76,314320,314320,2024-06-22T17:40:55Z,314320.06,NULL,Erneuerung,ukarabati,s,ushawishi,ukalifu,unyonyaji,ukarabati,NA,NA,2,NA,NA,NA,NA,NA,NA,NA,NA,NA,NA,NA,NA,NA,NA,NA,NA,NA,NA,NA
09b9e,"""Richtig""-Screen",canvas.Screen,3_0_2_0_1_1_1,NA,NA,timeout,5004.08,314323,314315.1,314320.06,319307.44,319310,2024-06-22T17:41:00Z,319324.14,NULL,Erneuerung,ukarabati,s,ushawishi,ukalifu,unyonyaji,NA,sdf,1,2,NA,NA,NA,NA,NA,NA,NA,NA,NA,NA,NA,NA,NA,NA,NA,NA,NA,NA,NA
09b9e,"""Falsch""-Screen",canvas.Screen,3_0_2_0_1_1_2,NA,NA,skipped,NA,319312,NA,NA,319307.44,319312,2024-06-22T17:41:00Z,319324.14,NULL,Erneuerung,ukarabati,s,ushawishi,ukalifu,unyonyaji,NA,sdf,NA,2,NA,NA,NA,NA,NA,NA,NA,NA,NA,NA,NA,NA,NA,NA,NA,NA,NA,NA,NA
09b9e,shallow,flow.Sequence,3_0_2_0_1_1,NA,NA,completion,11642.68,307659,307648.06,307664.76,319307.44,319312,2024-06-22T17:41:00Z,319324.14,NULL,Erneuerung,ukarabati,s,ushawishi,ukalifu,unyonyaji,NA,sdf,NA,2,NA,NA,NA,NA,NA,NA,NA,NA,NA,NA,NA,NA,NA,NA,NA,NA,NA,NA,NA
09b9e,task,flow.Sequence,3_0_2_0_1,NA,NA,completion,11642.68,307659,307648.06,307664.76,319307.44,319313,2024-06-22T17:41:00Z,319324.14,NULL,Erneuerung,ukarabati,s,ushawishi,ukalifu,unyonyaji,NA,sdf,NA,2,NA,NA,NA,NA,NA,NA,NA,NA,NA,NA,NA,NA,NA,NA,NA,NA,NA,NA,NA
09b9e,deep,flow.Sequence,3_0_2_0_2_0,NA,NA,skipped,NA,319313,NA,NA,319307.44,319313,2024-06-22T17:41:00Z,319324.14,NULL,Wechsel,ugeuzaji,s,utambulisho,kujenga,wasiwasi,NA,sdf,NA,2,NA,NA,NA,NA,NA,NA,NA,NA,NA,NA,NA,NA,NA,NA,NA,NA,NA,NA,NA
09b9e,Shallow Question,html.Page,3_0_2_0_2_1_0,NA,NA,form submission,4691.86,319313,319307.44,319324.14,324016,324016,2024-06-22T17:41:05Z,324028.02,NULL,Wechsel,ugeuzaji,s,utambulisho,kujenga,wasiwasi,ugeuzaji,NA,NA,2,NA,NA,NA,NA,NA,NA,NA,NA,NA,NA,NA,NA,NA,NA,NA,NA,NA,NA,NA
09b9e,"""Richtig""-Screen",canvas.Screen,3_0_2_0_2_1_1,NA,NA,timeout,5004.1,324017,324011.56,324028.02,329015.42,329017,2024-06-22T17:41:10Z,329032.12,NULL,Wechsel,ugeuzaji,s,utambulisho,kujenga,wasiwasi,NA,sdf,1,2,NA,NA,NA,NA,NA,NA,NA,NA,NA,NA,NA,NA,NA,NA,NA,NA,NA,NA,NA
09b9e,"""Falsch""-Screen",canvas.Screen,3_0_2_0_2_1_2,NA,NA,skipped,NA,329019,NA,NA,329015.42,329019,2024-06-22T17:41:10Z,329032.12,NULL,Wechsel,ugeuzaji,s,utambulisho,kujenga,wasiwasi,NA,sdf,NA,2,NA,NA,NA,NA,NA,NA,NA,NA,NA,NA,NA,NA,NA,NA,NA,NA,NA,NA,NA
09b9e,shallow,flow.Sequence,3_0_2_0_2_1,NA,NA,completion,9691.28,319313,319307.44,319324.14,329015.42,329020,2024-06-22T17:41:10Z,329032.12,NULL,Wechsel,ugeuzaji,s,utambulisho,kujenga,wasiwasi,NA,sdf,NA,2,NA,NA,NA,NA,NA,NA,NA,NA,NA,NA,NA,NA,NA,NA,NA,NA,NA,NA,NA
09b9e,task,flow.Sequence,3_0_2_0_2,NA,NA,completion,9691.28,319313,319307.44,319324.14,329015.42,329020,2024-06-22T17:41:10Z,329032.12,NULL,Wechsel,ugeuzaji,s,utambulisho,kujenga,wasiwasi,NA,sdf,NA,2,NA,NA,NA,NA,NA,NA,NA,NA,NA,NA,NA,NA,NA,NA,NA,NA,NA,NA,NA
09b9e,Deep Question,html.Page,3_0_2_0_3_0_0,NA,NA,form submission,3502.88,329020,329015.42,329032.12,332535,332535,2024-06-22T17:41:13Z,332535.08,NULL,Atmosphäre,angahewa,d,NA,NA,NA,NA,NA,NA,2,NA,NA,NA,NA,NA,NA,NA,NA,NA,NA,NA,NA,NA,NA,NA,NA,NA,NA,NA
09b9e,"""Richtig""-Screen",canvas.Screen,3_0_2_0_3_0_1,NA,NA,skipped,NA,332538,NA,NA,332535,332538,2024-06-22T17:41:13Z,332535.08,NULL,Atmosphäre,angahewa,d,NA,NA,NA,NA,sdf,NA,2,NA,NA,NA,NA,NA,NA,NA,NA,NA,NA,NA,NA,NA,NA,NA,NA,NA,NA,NA
09b9e,"""Falsch""-Screen",canvas.Screen,3_0_2_0_3_0_2,NA,NA,timeout,5004.06,332539,332531.8,332535.08,337522.44,337524,2024-06-22T17:41:18Z,337539.14,NULL,Atmosphäre,angahewa,d,NA,NA,NA,NA,sdf,0,2,NA,NA,NA,NA,NA,NA,NA,NA,NA,NA,NA,NA,NA,NA,NA,NA,NA,NA,NA
09b9e,deep,flow.Sequence,3_0_2_0_3_0,NA,NA,completion,8490.32,329020,329015.42,329032.12,337522.44,337525,2024-06-22T17:41:18Z,337539.14,NULL,Atmosphäre,angahewa,d,NA,NA,NA,NA,sdf,NA,2,NA,NA,NA,NA,NA,NA,NA,NA,NA,NA,NA,NA,NA,NA,NA,NA,NA,NA,NA
09b9e,shallow,flow.Sequence,3_0_2_0_3_1,NA,NA,skipped,NA,337525,NA,NA,337522.44,337525,2024-06-22T17:41:18Z,337539.14,NULL,Atmosphäre,angahewa,d,NA,NA,NA,NA,sdf,NA,2,NA,NA,NA,NA,NA,NA,NA,NA,NA,NA,NA,NA,NA,NA,NA,NA,NA,NA,NA
09b9e,task,flow.Sequence,3_0_2_0_3,NA,NA,completion,8490.32,329020,329015.42,329032.12,337522.44,337525,2024-06-22T17:41:18Z,337539.14,NULL,Atmosphäre,angahewa,d,NA,NA,NA,NA,sdf,NA,2,NA,NA,NA,NA,NA,NA,NA,NA,NA,NA,NA,NA,NA,NA,NA,NA,NA,NA,NA
09b9e,deep,flow.Sequence,3_0_2_0_4_0,NA,NA,skipped,NA,337525,NA,NA,337522.44,337526,2024-06-22T17:41:18Z,337539.14,NULL,Verpackung,ufungaji,s,uhusiano,upimaji,uchunguzi,NA,sdf,NA,2,NA,NA,NA,NA,NA,NA,NA,NA,NA,NA,NA,NA,NA,NA,NA,NA,NA,NA,NA
09b9e,Shallow Question,html.Page,3_0_2_0_4_1_0,NA,NA,form submission,4595.86,337526,337522.44,337539.14,342135,342136,2024-06-22T17:41:23Z,342143.14,NULL,Verpackung,ufungaji,s,uhusiano,upimaji,uchunguzi,ufungaji,NA,NA,2,NA,NA,NA,NA,NA,NA,NA,NA,NA,NA,NA,NA,NA,NA,NA,NA,NA,NA,NA
09b9e,"""Richtig""-Screen",canvas.Screen,3_0_2_0_4_1_1,NA,NA,timeout,5004.22,342137,342132.02,342143.14,347130.66,347132,2024-06-22T17:41:28Z,347147.36,NULL,Verpackung,ufungaji,s,uhusiano,upimaji,uchunguzi,NA,sdf,1,2,NA,NA,NA,NA,NA,NA,NA,NA,NA,NA,NA,NA,NA,NA,NA,NA,NA,NA,NA
09b9e,"""Falsch""-Screen",canvas.Screen,3_0_2_0_4_1_2,NA,NA,skipped,NA,347134,NA,NA,347130.66,347135,2024-06-22T17:41:28Z,347147.36,NULL,Verpackung,ufungaji,s,uhusiano,upimaji,uchunguzi,NA,sdf,NA,2,NA,NA,NA,NA,NA,NA,NA,NA,NA,NA,NA,NA,NA,NA,NA,NA,NA,NA,NA
09b9e,shallow,flow.Sequence,3_0_2_0_4_1,NA,NA,completion,9591.52,337526,337522.44,337539.14,347130.66,347135,2024-06-22T17:41:28Z,347147.36,NULL,Verpackung,ufungaji,s,uhusiano,upimaji,uchunguzi,NA,sdf,NA,2,NA,NA,NA,NA,NA,NA,NA,NA,NA,NA,NA,NA,NA,NA,NA,NA,NA,NA,NA
09b9e,task,flow.Sequence,3_0_2_0_4,NA,NA,completion,9591.52,337525,337522.44,337539.14,347130.66,347135,2024-06-22T17:41:28Z,347147.36,NULL,Verpackung,ufungaji,s,uhusiano,upimaji,uchunguzi,NA,sdf,NA,2,NA,NA,NA,NA,NA,NA,NA,NA,NA,NA,NA,NA,NA,NA,NA,NA,NA,NA,NA
09b9e,deep,flow.Sequence,3_0_2_0_5_0,NA,NA,skipped,NA,347135,NA,NA,347130.66,347135,2024-06-22T17:41:28Z,347147.36,NULL,Hoffnung,matarajio,s,kutaalamika,uratibu,mvumbuzi,NA,sdf,NA,2,NA,NA,NA,NA,NA,NA,NA,NA,NA,NA,NA,NA,NA,NA,NA,NA,NA,NA,NA
09b9e,Shallow Question,html.Page,3_0_2_0_5_1_0,NA,NA,form submission,7229.64,347135,347130.66,347147.36,354377,354377,2024-06-22T17:41:35Z,354386.42,NULL,Hoffnung,matarajio,s,kutaalamika,uratibu,mvumbuzi,matarajio,NA,NA,2,NA,NA,NA,NA,NA,NA,NA,NA,NA,NA,NA,NA,NA,NA,NA,NA,NA,NA,NA
09b9e,"""Richtig""-Screen",canvas.Screen,3_0_2_0_5_1_1,NA,NA,timeout,5004.16,354378,354372.86,354386.42,359373.92,359378,2024-06-22T17:41:40Z,359390.58,NULL,Hoffnung,matarajio,s,kutaalamika,uratibu,mvumbuzi,NA,sdf,1,2,NA,NA,NA,NA,NA,NA,NA,NA,NA,NA,NA,NA,NA,NA,NA,NA,NA,NA,NA
09b9e,"""Falsch""-Screen",canvas.Screen,3_0_2_0_5_1_2,NA,NA,skipped,NA,359391,NA,NA,359373.92,359391,2024-06-22T17:41:40Z,359390.58,NULL,Hoffnung,matarajio,s,kutaalamika,uratibu,mvumbuzi,NA,sdf,NA,2,NA,NA,NA,NA,NA,NA,NA,NA,NA,NA,NA,NA,NA,NA,NA,NA,NA,NA,NA
09b9e,shallow,flow.Sequence,3_0_2_0_5_1,NA,NA,completion,12226.56,347135,347130.66,347147.36,359373.92,359391,2024-06-22T17:41:40Z,359390.58,NULL,Hoffnung,matarajio,s,kutaalamika,uratibu,mvumbuzi,NA,sdf,NA,2,NA,NA,NA,NA,NA,NA,NA,NA,NA,NA,NA,NA,NA,NA,NA,NA,NA,NA,NA
09b9e,task,flow.Sequence,3_0_2_0_5,NA,NA,completion,12226.56,347135,347130.66,347147.36,359373.92,359392,2024-06-22T17:41:40Z,359390.58,NULL,Hoffnung,matarajio,s,kutaalamika,uratibu,mvumbuzi,NA,sdf,NA,2,NA,NA,NA,NA,NA,NA,NA,NA,NA,NA,NA,NA,NA,NA,NA,NA,NA,NA,NA
09b9e,Deep Question,html.Page,3_0_2_0_6_0_0,NA,NA,form submission,12507.42,359393,359373.92,359390.58,371898,371898,2024-06-22T17:41:52Z,371901.06,NULL,Flexibilität,kubadilika,d,NA,NA,NA,NA,NA,NA,2,NA,NA,NA,NA,NA,NA,NA,NA,NA,NA,NA,NA,NA,NA,NA,NA,NA,NA,NA
09b9e,"""Richtig""-Screen",canvas.Screen,3_0_2_0_6_0_1,NA,NA,skipped,NA,371899,NA,NA,371898,371899,2024-06-22T17:41:52Z,371901.06,NULL,Flexibilität,kubadilika,d,NA,NA,NA,NA,sdf,NA,2,NA,NA,NA,NA,NA,NA,NA,NA,NA,NA,NA,NA,NA,NA,NA,NA,NA,NA,NA
09b9e,"""Falsch""-Screen",canvas.Screen,3_0_2_0_6_0_2,NA,NA,timeout,5004.16,371902,371892.7,371901.06,376888.52,376890,2024-06-22T17:41:57Z,376905.22,NULL,Flexibilität,kubadilika,d,NA,NA,NA,NA,sdf,0,2,NA,NA,NA,NA,NA,NA,NA,NA,NA,NA,NA,NA,NA,NA,NA,NA,NA,NA,NA
09b9e,deep,flow.Sequence,3_0_2_0_6_0,NA,NA,completion,17497.94,359393,359373.92,359390.58,376888.52,376890,2024-06-22T17:41:57Z,376905.22,NULL,Flexibilität,kubadilika,d,NA,NA,NA,NA,sdf,NA,2,NA,NA,NA,NA,NA,NA,NA,NA,NA,NA,NA,NA,NA,NA,NA,NA,NA,NA,NA
09b9e,shallow,flow.Sequence,3_0_2_0_6_1,NA,NA,skipped,NA,376890,NA,NA,376888.52,376890,2024-06-22T17:41:57Z,376905.22,NULL,Flexibilität,kubadilika,d,NA,NA,NA,NA,sdf,NA,2,NA,NA,NA,NA,NA,NA,NA,NA,NA,NA,NA,NA,NA,NA,NA,NA,NA,NA,NA
09b9e,task,flow.Sequence,3_0_2_0_6,NA,NA,completion,17497.94,359393,359373.92,359390.58,376888.52,376890,2024-06-22T17:41:57Z,376905.22,NULL,Flexibilität,kubadilika,d,NA,NA,NA,NA,sdf,NA,2,NA,NA,NA,NA,NA,NA,NA,NA,NA,NA,NA,NA,NA,NA,NA,NA,NA,NA,NA
09b9e,Deep Question,html.Page,3_0_2_0_7_0_0,NA,NA,form submission,4770.78,376891,376888.52,376905.22,381676,381676,2024-06-22T17:42:02Z,381675.7,NULL,Theorie,nadharia,d,NA,NA,NA,nadharia,NA,NA,2,NA,NA,NA,NA,NA,NA,NA,NA,NA,NA,NA,NA,NA,NA,NA,NA,NA,NA,NA
09b9e,"""Richtig""-Screen",canvas.Screen,3_0_2_0_7_0_1,NA,NA,timeout,5004.22,381678,381671.98,381675.7,386663.3,386666,2024-06-22T17:42:07Z,386679.92,NULL,Theorie,nadharia,d,NA,NA,NA,NA,sdf,1,2,NA,NA,NA,NA,NA,NA,NA,NA,NA,NA,NA,NA,NA,NA,NA,NA,NA,NA,NA
09b9e,"""Falsch""-Screen",canvas.Screen,3_0_2_0_7_0_2,NA,NA,skipped,NA,386669,NA,NA,386663.3,386669,2024-06-22T17:42:07Z,386679.92,NULL,Theorie,nadharia,d,NA,NA,NA,NA,sdf,NA,2,NA,NA,NA,NA,NA,NA,NA,NA,NA,NA,NA,NA,NA,NA,NA,NA,NA,NA,NA
09b9e,deep,flow.Sequence,3_0_2_0_7_0,NA,NA,completion,9758.08,376891,376888.52,376905.22,386663.3,386669,2024-06-22T17:42:07Z,386679.92,NULL,Theorie,nadharia,d,NA,NA,NA,NA,sdf,NA,2,NA,NA,NA,NA,NA,NA,NA,NA,NA,NA,NA,NA,NA,NA,NA,NA,NA,NA,NA
09b9e,shallow,flow.Sequence,3_0_2_0_7_1,NA,NA,skipped,NA,386670,NA,NA,386663.3,386670,2024-06-22T17:42:07Z,386679.92,NULL,Theorie,nadharia,d,NA,NA,NA,NA,sdf,NA,2,NA,NA,NA,NA,NA,NA,NA,NA,NA,NA,NA,NA,NA,NA,NA,NA,NA,NA,NA
09b9e,task,flow.Sequence,3_0_2_0_7,NA,NA,completion,9758.08,376891,376888.52,376905.22,386663.3,386670,2024-06-22T17:42:07Z,386679.92,NULL,Theorie,nadharia,d,NA,NA,NA,NA,sdf,NA,2,NA,NA,NA,NA,NA,NA,NA,NA,NA,NA,NA,NA,NA,NA,NA,NA,NA,NA,NA
09b9e,block,flow.Loop,3_0_2_0,NA,NA,completion,89295.72,297367,297367.12,297367.58,386663.3,386670,2024-06-22T17:42:07Z,386679.92,NULL,NA,NA,NA,NA,NA,NA,NA,sdf,NA,2,NA,NA,NA,NA,NA,NA,NA,NA,NA,NA,NA,NA,NA,NA,NA,NA,NA,NA,NA
09b9e,weiter,canvas.Screen,3_0_2_1,sdf,keypress(Space),response,1093.08,386670,386663.3,386679.92,387773,387788,2024-06-22T17:42:08Z,388527.42,NULL,NA,NA,NA,NA,NA,NA,NA,sdf,NA,2,NA,NA,NA,NA,NA,NA,NA,NA,NA,NA,NA,NA,NA,NA,NA,NA,NA,NA,NA
09b9e,check continue,flow.Sequence,3_0_2,NA,NA,completion,90405.42,297367,297367.12,297367.58,387773,387788,2024-06-22T17:42:08Z,388527.42,NULL,NA,NA,NA,NA,NA,NA,NA,sdf,NA,2,NA,NA,NA,NA,NA,NA,NA,NA,NA,NA,NA,NA,NA,NA,NA,NA,NA,NA,NA
09b9e,check continue,flow.Sequence,3_0_3,NA,NA,skipped,NA,387835,NA,NA,387773,387835,2024-06-22T17:42:08Z,388527.42,NULL,NA,NA,NA,NA,NA,NA,NA,qt,NA,3,NA,NA,NA,NA,NA,NA,NA,NA,NA,NA,NA,NA,NA,NA,NA,NA,NA,NA,NA
09b9e,check continue,flow.Sequence,3_0_4,NA,NA,skipped,NA,387864,NA,NA,387773,387864,2024-06-22T17:42:08Z,388527.42,NULL,NA,NA,NA,NA,NA,NA,NA,sd,NA,4,NA,NA,NA,NA,NA,NA,NA,NA,NA,NA,NA,NA,NA,NA,NA,NA,NA,NA,NA
09b9e,check continue,flow.Sequence,3_0_5,NA,NA,skipped,NA,387892,NA,NA,387773,387892,2024-06-22T17:42:08Z,388527.42,NULL,NA,NA,NA,NA,NA,NA,NA,sdf,NA,5,NA,NA,NA,NA,NA,NA,NA,NA,NA,NA,NA,NA,NA,NA,NA,NA,NA,NA,NA
09b9e,check continue,flow.Sequence,3_0_6,NA,NA,skipped,NA,387921,NA,NA,387773,387921,2024-06-22T17:42:08Z,388527.42,NULL,NA,NA,NA,NA,NA,NA,NA,dfs,NA,6,NA,NA,NA,NA,NA,NA,NA,NA,NA,NA,NA,NA,NA,NA,NA,NA,NA,NA,NA
09b9e,check continue,flow.Sequence,3_0_7,NA,NA,skipped,NA,387951,NA,NA,387773,387951,2024-06-22T17:42:08Z,388527.42,NULL,NA,NA,NA,NA,NA,NA,NA,df,NA,7,NA,NA,NA,NA,NA,NA,NA,NA,NA,NA,NA,NA,NA,NA,NA,NA,NA,NA,NA
09b9e,check continue,flow.Sequence,3_0_8,NA,NA,skipped,NA,387976,NA,NA,387773,387976,2024-06-22T17:42:09Z,388527.42,NULL,NA,NA,NA,NA,NA,NA,NA,dfs,NA,8,NA,NA,NA,NA,NA,NA,NA,NA,NA,NA,NA,NA,NA,NA,NA,NA,NA,NA,NA
09b9e,check continue,flow.Sequence,3_0_9,NA,NA,skipped,NA,388003,NA,NA,387773,388003,2024-06-22T17:42:09Z,388527.42,NULL,NA,NA,NA,NA,NA,NA,NA,dsf,NA,9,NA,NA,NA,NA,NA,NA,NA,NA,NA,NA,NA,NA,NA,NA,NA,NA,NA,NA,NA
09b9e,check continue,flow.Sequence,3_0_10,NA,NA,skipped,NA,388027,NA,NA,387773,388027,2024-06-22T17:42:09Z,388527.42,NULL,NA,NA,NA,NA,NA,NA,NA,df,NA,10,NA,NA,NA,NA,NA,NA,NA,NA,NA,NA,NA,NA,NA,NA,NA,NA,NA,NA,NA
09b9e,check continue,flow.Sequence,3_0_11,NA,NA,skipped,NA,388056,NA,NA,387773,388056,2024-06-22T17:42:09Z,388527.42,NULL,NA,NA,NA,NA,NA,NA,NA,dfs,NA,11,NA,NA,NA,NA,NA,NA,NA,NA,NA,NA,NA,NA,NA,NA,NA,NA,NA,NA,NA
09b9e,check continue,flow.Sequence,3_0_12,NA,NA,skipped,NA,388082,NA,NA,387773,388082,2024-06-22T17:42:09Z,388527.42,NULL,NA,NA,NA,NA,NA,NA,NA,dsf,NA,12,NA,NA,NA,NA,NA,NA,NA,NA,NA,NA,NA,NA,NA,NA,NA,NA,NA,NA,NA
09b9e,check continue,flow.Sequence,3_0_13,NA,NA,skipped,NA,388105,NA,NA,387773,388105,2024-06-22T17:42:09Z,388527.42,NULL,NA,NA,NA,NA,NA,NA,NA,dsf,NA,13,NA,NA,NA,NA,NA,NA,NA,NA,NA,NA,NA,NA,NA,NA,NA,NA,NA,NA,NA
09b9e,check continue,flow.Sequence,3_0_14,NA,NA,skipped,NA,388135,NA,NA,387773,388135,2024-06-22T17:42:09Z,388527.42,NULL,NA,NA,NA,NA,NA,NA,NA,NA,NA,14,NA,NA,NA,NA,NA,NA,NA,NA,NA,NA,NA,NA,NA,NA,NA,NA,NA,NA,NA
09b9e,check continue,flow.Sequence,3_0_15,NA,NA,skipped,NA,388159,NA,NA,387773,388159,2024-06-22T17:42:09Z,388527.42,NULL,NA,NA,NA,NA,NA,NA,NA,NA,NA,15,NA,NA,NA,NA,NA,NA,NA,NA,NA,NA,NA,NA,NA,NA,NA,NA,NA,NA,NA
09b9e,check continue,flow.Sequence,3_0_16,NA,NA,skipped,NA,388185,NA,NA,387773,388185,2024-06-22T17:42:09Z,388527.42,NULL,NA,NA,NA,NA,NA,NA,NA,NA,NA,16,NA,NA,NA,NA,NA,NA,NA,NA,NA,NA,NA,NA,NA,NA,NA,NA,NA,NA,NA
09b9e,check continue,flow.Sequence,3_0_17,NA,NA,skipped,NA,388209,NA,NA,387773,388209,2024-06-22T17:42:09Z,388527.42,NULL,NA,NA,NA,NA,NA,NA,NA,NA,NA,17,NA,NA,NA,NA,NA,NA,NA,NA,NA,NA,NA,NA,NA,NA,NA,NA,NA,NA,NA
09b9e,check continue,flow.Sequence,3_0_18,NA,NA,skipped,NA,388235,NA,NA,387773,388235,2024-06-22T17:42:09Z,388527.42,NULL,NA,NA,NA,NA,NA,NA,NA,NA,NA,18,NA,NA,NA,NA,NA,NA,NA,NA,NA,NA,NA,NA,NA,NA,NA,NA,NA,NA,NA
09b9e,check continue,flow.Sequence,3_0_19,NA,NA,skipped,NA,388264,NA,NA,387773,388264,2024-06-22T17:42:09Z,388527.42,NULL,NA,NA,NA,NA,NA,NA,NA,NA,NA,19,NA,NA,NA,NA,NA,NA,NA,NA,NA,NA,NA,NA,NA,NA,NA,NA,NA,NA,NA
09b9e,check continue,flow.Sequence,3_0_20,NA,NA,skipped,NA,388291,NA,NA,387773,388291,2024-06-22T17:42:09Z,388527.42,NULL,NA,NA,NA,NA,NA,NA,NA,NA,NA,20,NA,NA,NA,NA,NA,NA,NA,NA,NA,NA,NA,NA,NA,NA,NA,NA,NA,NA,NA
09b9e,check continue,flow.Sequence,3_0_21,NA,NA,skipped,NA,388320,NA,NA,387773,388320,2024-06-22T17:42:09Z,388527.42,NULL,NA,NA,NA,NA,NA,NA,NA,NA,NA,21,NA,NA,NA,NA,NA,NA,NA,NA,NA,NA,NA,NA,NA,NA,NA,NA,NA,NA,NA
09b9e,check continue,flow.Sequence,3_0_22,NA,NA,skipped,NA,388344,NA,NA,387773,388344,2024-06-22T17:42:09Z,388527.42,NULL,NA,NA,NA,NA,NA,NA,NA,NA,NA,22,NA,NA,NA,NA,NA,NA,NA,NA,NA,NA,NA,NA,NA,NA,NA,NA,NA,NA,NA
09b9e,check continue,flow.Sequence,3_0_23,NA,NA,skipped,NA,388377,NA,NA,387773,388377,2024-06-22T17:42:09Z,388527.42,NULL,NA,NA,NA,NA,NA,NA,NA,NA,NA,23,NA,NA,NA,NA,NA,NA,NA,NA,NA,NA,NA,NA,NA,NA,NA,NA,NA,NA,NA
09b9e,check continue,flow.Sequence,3_0_24,NA,NA,skipped,NA,388402,NA,NA,387773,388402,2024-06-22T17:42:09Z,388527.42,NULL,NA,NA,NA,NA,NA,NA,NA,NA,NA,24,NA,NA,NA,NA,NA,NA,NA,NA,NA,NA,NA,NA,NA,NA,NA,NA,NA,NA,NA
09b9e,check continue,flow.Sequence,3_0_25,NA,NA,skipped,NA,388425,NA,NA,387773,388425,2024-06-22T17:42:09Z,388527.42,NULL,NA,NA,NA,NA,NA,NA,NA,NA,NA,25,NA,NA,NA,NA,NA,NA,NA,NA,NA,NA,NA,NA,NA,NA,NA,NA,NA,NA,NA
09b9e,check continue,flow.Sequence,3_0_26,NA,NA,skipped,NA,388452,NA,NA,387773,388452,2024-06-22T17:42:09Z,388527.42,NULL,NA,NA,NA,NA,NA,NA,NA,NA,NA,26,NA,NA,NA,NA,NA,NA,NA,NA,NA,NA,NA,NA,NA,NA,NA,NA,NA,NA,NA
09b9e,check continue,flow.Sequence,3_0_27,NA,NA,skipped,NA,388479,NA,NA,387773,388479,2024-06-22T17:42:09Z,388527.42,NULL,NA,NA,NA,NA,NA,NA,NA,NA,NA,27,NA,NA,NA,NA,NA,NA,NA,NA,NA,NA,NA,NA,NA,NA,NA,NA,NA,NA,NA
09b9e,check continue,flow.Sequence,3_0_28,NA,NA,skipped,NA,388504,NA,NA,387773,388504,2024-06-22T17:42:09Z,388527.42,NULL,NA,NA,NA,NA,NA,NA,NA,NA,NA,28,NA,NA,NA,NA,NA,NA,NA,NA,NA,NA,NA,NA,NA,NA,NA,NA,NA,NA,NA
09b9e,check continue,flow.Sequence,3_0_29,NA,NA,skipped,NA,388526,NA,NA,387773,388527,2024-06-22T17:42:09Z,388527.42,NULL,NA,NA,NA,NA,NA,NA,NA,NA,NA,29,NA,NA,NA,NA,NA,NA,NA,NA,NA,NA,NA,NA,NA,NA,NA,NA,NA,NA,NA
09b9e,until continue,flow.Loop,3_0,NA,NA,completion,250432.74,137288,137323.58,137340.26,387773,388527,2024-06-22T17:42:09Z,388527.42,NULL,NA,NA,NA,NA,NA,NA,NA,NA,NA,NA,NA,NA,NA,NA,NA,NA,NA,NA,NA,NA,NA,NA,NA,NA,NA,NA,NA,NA,NA
09b9e,block 1,flow.Sequence,3,NA,NA,completion,250432.74,137288,137323.58,137340.26,387773,388527,2024-06-22T17:42:09Z,388527.42,NULL,NA,NA,NA,NA,NA,NA,NA,NA,NA,NA,NA,NA,NA,NA,NA,NA,NA,NA,NA,NA,NA,NA,NA,NA,NA,NA,NA,NA,NA
09b9e,1.Part Over,canvas.Screen,4,NA,keypress(Space),response,1917.58,388527,388526.74,388527.42,390445,390467,2024-06-22T17:42:11Z,390533.24,NULL,NA,NA,NA,NA,NA,NA,NA,NA,NA,NA,NA,NA,NA,NA,NA,NA,NA,NA,NA,NA,NA,NA,NA,NA,NA,NA,NA,NA,NA
09b9e,deep,flow.Sequence,5_0_0_0_0_0,NA,NA,skipped,NA,390520,NA,NA,390445,390520,2024-06-22T17:42:11Z,390533.24,NULL,Respekt,heshima,s,changamnao,upinzani,ufanisi,NA,sdf,NA,0,NA,NA,NA,NA,NA,NA,NA,NA,NA,NA,NA,NA,NA,NA,NA,NA,NA,NA,NA
09b9e,Shallow Question,html.Page,5_0_0_0_0_1_0,NA,NA,form submission,3105.76,390520,390520.18,390533.24,393639,393639,2024-06-22T17:42:14Z,393652.28,NULL,Respekt,heshima,s,changamnao,upinzani,ufanisi,heshima,NA,NA,0,NA,NA,NA,NA,NA,NA,NA,NA,NA,NA,NA,NA,NA,NA,NA,NA,NA,NA,NA
09b9e,"""Richtig""-Screen",canvas.Screen,5_0_0_0_0_1_1,NA,NA,timeout,5004.2,393641,393635.34,393652.28,398639.78,398642,2024-06-22T17:42:19Z,398656.48,NULL,Respekt,heshima,s,changamnao,upinzani,ufanisi,NA,sdf,1,0,NA,NA,NA,NA,NA,NA,NA,NA,NA,NA,NA,NA,NA,NA,NA,NA,NA,NA,NA
09b9e,"""Falsch""-Screen",canvas.Screen,5_0_0_0_0_1_2,NA,NA,skipped,NA,398644,NA,NA,398639.78,398644,2024-06-22T17:42:19Z,398656.48,NULL,Respekt,heshima,s,changamnao,upinzani,ufanisi,NA,sdf,NA,0,NA,NA,NA,NA,NA,NA,NA,NA,NA,NA,NA,NA,NA,NA,NA,NA,NA,NA,NA
09b9e,shallow,flow.Sequence,5_0_0_0_0_1,NA,NA,completion,8106.54,390520,390520.18,390533.24,398639.78,398644,2024-06-22T17:42:19Z,398656.48,NULL,Respekt,heshima,s,changamnao,upinzani,ufanisi,NA,sdf,NA,0,NA,NA,NA,NA,NA,NA,NA,NA,NA,NA,NA,NA,NA,NA,NA,NA,NA,NA,NA
09b9e,task,flow.Sequence,5_0_0_0_0,NA,NA,completion,8106.54,390520,390520.18,390533.24,398639.78,398645,2024-06-22T17:42:19Z,398656.48,NULL,Respekt,heshima,s,changamnao,upinzani,ufanisi,NA,sdf,NA,0,NA,NA,NA,NA,NA,NA,NA,NA,NA,NA,NA,NA,NA,NA,NA,NA,NA,NA,NA
09b9e,deep,flow.Sequence,5_0_0_0_1_0,NA,NA,skipped,NA,398645,NA,NA,398639.78,398645,2024-06-22T17:42:19Z,398656.48,NULL,Vergnügen,kichekesho,s,dubwana,mpanuko,mtesaji,NA,sdf,NA,0,NA,NA,NA,NA,NA,NA,NA,NA,NA,NA,NA,NA,NA,NA,NA,NA,NA,NA,NA
09b9e,Shallow Question,html.Page,5_0_0_0_1_1_0,NA,NA,form submission,8865.52,398645,398639.78,398656.48,407522,407522,2024-06-22T17:42:28Z,407530.34,NULL,Vergnügen,kichekesho,s,dubwana,mpanuko,mtesaji,mpanuko,NA,NA,0,NA,NA,NA,NA,NA,NA,NA,NA,NA,NA,NA,NA,NA,NA,NA,NA,NA,NA,NA
09b9e,"""Richtig""-Screen",canvas.Screen,5_0_0_0_1_1_1,NA,NA,skipped,NA,407523,NA,NA,407522,407523,2024-06-22T17:42:28Z,407530.34,NULL,Vergnügen,kichekesho,s,dubwana,mpanuko,mtesaji,NA,sdf,NA,0,NA,NA,NA,NA,NA,NA,NA,NA,NA,NA,NA,NA,NA,NA,NA,NA,NA,NA,NA
09b9e,"""Falsch""-Screen",canvas.Screen,5_0_0_0_1_1_2,NA,NA,timeout,5004.34,407524,407518.08,407530.34,412517.98,412521,2024-06-22T17:42:33Z,412534.68,NULL,Vergnügen,kichekesho,s,dubwana,mpanuko,mtesaji,NA,sdf,0,0,NA,NA,NA,NA,NA,NA,NA,NA,NA,NA,NA,NA,NA,NA,NA,NA,NA,NA,NA
09b9e,shallow,flow.Sequence,5_0_0_0_1_1,NA,NA,completion,13861.5,398645,398639.78,398656.48,412517.98,412521,2024-06-22T17:42:33Z,412534.68,NULL,Vergnügen,kichekesho,s,dubwana,mpanuko,mtesaji,NA,sdf,NA,0,NA,NA,NA,NA,NA,NA,NA,NA,NA,NA,NA,NA,NA,NA,NA,NA,NA,NA,NA
09b9e,task,flow.Sequence,5_0_0_0_1,NA,NA,completion,13861.5,398645,398639.78,398656.48,412517.98,412521,2024-06-22T17:42:33Z,412534.68,NULL,Vergnügen,kichekesho,s,dubwana,mpanuko,mtesaji,NA,sdf,NA,0,NA,NA,NA,NA,NA,NA,NA,NA,NA,NA,NA,NA,NA,NA,NA,NA,NA,NA,NA
09b9e,Deep Question,html.Page,5_0_0_0_2_0_0,NA,NA,form submission,2397.32,412521,412517.98,412534.68,414932,414932,2024-06-22T17:42:35Z,414936.52,NULL,Stimmung,kinyongo,d,NA,NA,NA,NA,NA,NA,0,NA,NA,NA,NA,NA,NA,NA,NA,NA,NA,NA,NA,NA,NA,NA,NA,NA,NA,NA
09b9e,"""Richtig""-Screen",canvas.Screen,5_0_0_0_2_0_1,NA,NA,skipped,NA,414934,NA,NA,414932,414934,2024-06-22T17:42:35Z,414936.52,NULL,Stimmung,kinyongo,d,NA,NA,NA,NA,sdf,NA,0,NA,NA,NA,NA,NA,NA,NA,NA,NA,NA,NA,NA,NA,NA,NA,NA,NA,NA,NA
09b9e,"""Falsch""-Screen",canvas.Screen,5_0_0_0_2_0_2,NA,NA,timeout,5004.2,414935,414928.6,414936.52,419924.02,419927,2024-06-22T17:42:40Z,419940.72,NULL,Stimmung,kinyongo,d,NA,NA,NA,NA,sdf,0,0,NA,NA,NA,NA,NA,NA,NA,NA,NA,NA,NA,NA,NA,NA,NA,NA,NA,NA,NA
09b9e,deep,flow.Sequence,5_0_0_0_2_0,NA,NA,completion,7389.34,412521,412517.98,412534.68,419924.02,419928,2024-06-22T17:42:40Z,419940.72,NULL,Stimmung,kinyongo,d,NA,NA,NA,NA,sdf,NA,0,NA,NA,NA,NA,NA,NA,NA,NA,NA,NA,NA,NA,NA,NA,NA,NA,NA,NA,NA
09b9e,shallow,flow.Sequence,5_0_0_0_2_1,NA,NA,skipped,NA,419928,NA,NA,419924.02,419928,2024-06-22T17:42:40Z,419940.72,NULL,Stimmung,kinyongo,d,NA,NA,NA,NA,sdf,NA,0,NA,NA,NA,NA,NA,NA,NA,NA,NA,NA,NA,NA,NA,NA,NA,NA,NA,NA,NA
09b9e,task,flow.Sequence,5_0_0_0_2,NA,NA,completion,7389.34,412521,412517.98,412534.68,419924.02,419929,2024-06-22T17:42:40Z,419940.72,NULL,Stimmung,kinyongo,d,NA,NA,NA,NA,sdf,NA,0,NA,NA,NA,NA,NA,NA,NA,NA,NA,NA,NA,NA,NA,NA,NA,NA,NA,NA,NA
09b9e,deep,flow.Sequence,5_0_0_0_3_0,NA,NA,skipped,NA,419929,NA,NA,419924.02,419929,2024-06-22T17:42:40Z,419940.72,NULL,Notfall,dharura,s,rairai,malalamiko,ahueni,NA,sdf,NA,0,NA,NA,NA,NA,NA,NA,NA,NA,NA,NA,NA,NA,NA,NA,NA,NA,NA,NA,NA
09b9e,Shallow Question,html.Page,5_0_0_0_3_1_0,NA,NA,form submission,5260.28,419930,419924.02,419940.72,425201,425201,2024-06-22T17:42:46Z,425211.74,NULL,Notfall,dharura,s,rairai,malalamiko,ahueni,dharura,NA,NA,0,NA,NA,NA,NA,NA,NA,NA,NA,NA,NA,NA,NA,NA,NA,NA,NA,NA,NA,NA
09b9e,"""Richtig""-Screen",canvas.Screen,5_0_0_0_3_1_1,NA,NA,timeout,5004.16,425208,425195.4,425211.74,430199.2,430201,2024-06-22T17:42:51Z,430215.9,NULL,Notfall,dharura,s,rairai,malalamiko,ahueni,NA,sdf,1,0,NA,NA,NA,NA,NA,NA,NA,NA,NA,NA,NA,NA,NA,NA,NA,NA,NA,NA,NA
09b9e,"""Falsch""-Screen",canvas.Screen,5_0_0_0_3_1_2,NA,NA,skipped,NA,430204,NA,NA,430199.2,430204,2024-06-22T17:42:51Z,430215.9,NULL,Notfall,dharura,s,rairai,malalamiko,ahueni,NA,sdf,NA,0,NA,NA,NA,NA,NA,NA,NA,NA,NA,NA,NA,NA,NA,NA,NA,NA,NA,NA,NA
09b9e,shallow,flow.Sequence,5_0_0_0_3_1,NA,NA,completion,10258.48,419929,419924.02,419940.72,430199.2,430204,2024-06-22T17:42:51Z,430215.9,NULL,Notfall,dharura,s,rairai,malalamiko,ahueni,NA,sdf,NA,0,NA,NA,NA,NA,NA,NA,NA,NA,NA,NA,NA,NA,NA,NA,NA,NA,NA,NA,NA
09b9e,task,flow.Sequence,5_0_0_0_3,NA,NA,completion,10258.48,419929,419924.02,419940.72,430199.2,430204,2024-06-22T17:42:51Z,430215.9,NULL,Notfall,dharura,s,rairai,malalamiko,ahueni,NA,sdf,NA,0,NA,NA,NA,NA,NA,NA,NA,NA,NA,NA,NA,NA,NA,NA,NA,NA,NA,NA,NA
09b9e,Deep Question,html.Page,5_0_0_0_4_0_0,NA,NA,form submission,2027.1,430205,430199.2,430215.9,432243,432243,2024-06-22T17:42:53Z,432250.92,NULL,Ergänzung,kijalizo,d,NA,NA,NA,NA,NA,NA,0,NA,NA,NA,NA,NA,NA,NA,NA,NA,NA,NA,NA,NA,NA,NA,NA,NA,NA,NA
09b9e,"""Richtig""-Screen",canvas.Screen,5_0_0_0_4_0_1,NA,NA,skipped,NA,432245,NA,NA,432243,432245,2024-06-22T17:42:53Z,432250.92,NULL,Ergänzung,kijalizo,d,NA,NA,NA,NA,sdf,NA,0,NA,NA,NA,NA,NA,NA,NA,NA,NA,NA,NA,NA,NA,NA,NA,NA,NA,NA,NA
09b9e,"""Falsch""-Screen",canvas.Screen,5_0_0_0_4_0_2,NA,NA,timeout,5004.14,432247,432238.48,432250.92,437238.38,437240,2024-06-22T17:42:58Z,437255.06,NULL,Ergänzung,kijalizo,d,NA,NA,NA,NA,sdf,0,0,NA,NA,NA,NA,NA,NA,NA,NA,NA,NA,NA,NA,NA,NA,NA,NA,NA,NA,NA
09b9e,deep,flow.Sequence,5_0_0_0_4_0,NA,NA,completion,7022.48,430205,430199.2,430215.9,437238.38,437240,2024-06-22T17:42:58Z,437255.06,NULL,Ergänzung,kijalizo,d,NA,NA,NA,NA,sdf,NA,0,NA,NA,NA,NA,NA,NA,NA,NA,NA,NA,NA,NA,NA,NA,NA,NA,NA,NA,NA
09b9e,shallow,flow.Sequence,5_0_0_0_4_1,NA,NA,skipped,NA,437240,NA,NA,437238.38,437240,2024-06-22T17:42:58Z,437255.06,NULL,Ergänzung,kijalizo,d,NA,NA,NA,NA,sdf,NA,0,NA,NA,NA,NA,NA,NA,NA,NA,NA,NA,NA,NA,NA,NA,NA,NA,NA,NA,NA
09b9e,task,flow.Sequence,5_0_0_0_4,NA,NA,completion,7022.48,430205,430199.2,430215.9,437238.38,437240,2024-06-22T17:42:58Z,437255.06,NULL,Ergänzung,kijalizo,d,NA,NA,NA,NA,sdf,NA,0,NA,NA,NA,NA,NA,NA,NA,NA,NA,NA,NA,NA,NA,NA,NA,NA,NA,NA,NA
09b9e,Deep Question,html.Page,5_0_0_0_5_0_0,NA,NA,form submission,2561.94,437240,437238.38,437255.06,439817,439818,2024-06-22T17:43:00Z,439823.82,NULL,Wohlstand,mafanikio,d,NA,NA,NA,NA,NA,NA,0,NA,NA,NA,NA,NA,NA,NA,NA,NA,NA,NA,NA,NA,NA,NA,NA,NA,NA,NA
09b9e,"""Richtig""-Screen",canvas.Screen,5_0_0_0_5_0_1,NA,NA,skipped,NA,439820,NA,NA,439817,439820,2024-06-22T17:43:00Z,439823.82,NULL,Wohlstand,mafanikio,d,NA,NA,NA,NA,sdf,NA,0,NA,NA,NA,NA,NA,NA,NA,NA,NA,NA,NA,NA,NA,NA,NA,NA,NA,NA,NA
09b9e,"""Falsch""-Screen",canvas.Screen,5_0_0_0_5_0_2,NA,NA,timeout,5004.02,439822,439814.06,439823.82,444811.36,444814,2024-06-22T17:43:05Z,444827.84,NULL,Wohlstand,mafanikio,d,NA,NA,NA,NA,sdf,0,0,NA,NA,NA,NA,NA,NA,NA,NA,NA,NA,NA,NA,NA,NA,NA,NA,NA,NA,NA
09b9e,deep,flow.Sequence,5_0_0_0_5_0,NA,NA,completion,7556.3,437240,437238.38,437255.06,444811.36,444814,2024-06-22T17:43:05Z,444827.84,NULL,Wohlstand,mafanikio,d,NA,NA,NA,NA,sdf,NA,0,NA,NA,NA,NA,NA,NA,NA,NA,NA,NA,NA,NA,NA,NA,NA,NA,NA,NA,NA
09b9e,shallow,flow.Sequence,5_0_0_0_5_1,NA,NA,skipped,NA,444814,NA,NA,444811.36,444814,2024-06-22T17:43:05Z,444827.84,NULL,Wohlstand,mafanikio,d,NA,NA,NA,NA,sdf,NA,0,NA,NA,NA,NA,NA,NA,NA,NA,NA,NA,NA,NA,NA,NA,NA,NA,NA,NA,NA
09b9e,task,flow.Sequence,5_0_0_0_5,NA,NA,completion,7556.3,437240,437238.38,437255.06,444811.36,444815,2024-06-22T17:43:05Z,444827.84,NULL,Wohlstand,mafanikio,d,NA,NA,NA,NA,sdf,NA,0,NA,NA,NA,NA,NA,NA,NA,NA,NA,NA,NA,NA,NA,NA,NA,NA,NA,NA,NA
09b9e,Deep Question,html.Page,5_0_0_0_6_0_0,NA,NA,form submission,3224.16,444816,444811.36,444827.84,448052,448052,2024-06-22T17:43:09Z,448063.88,NULL,Betrüger,mdanganyifu,d,NA,NA,NA,NA,NA,NA,0,NA,NA,NA,NA,NA,NA,NA,NA,NA,NA,NA,NA,NA,NA,NA,NA,NA,NA,NA
09b9e,"""Richtig""-Screen",canvas.Screen,5_0_0_0_6_0_1,NA,NA,skipped,NA,448054,NA,NA,448052,448054,2024-06-22T17:43:09Z,448063.88,NULL,Betrüger,mdanganyifu,d,NA,NA,NA,NA,sdf,NA,0,NA,NA,NA,NA,NA,NA,NA,NA,NA,NA,NA,NA,NA,NA,NA,NA,NA,NA,NA
09b9e,"""Falsch""-Screen",canvas.Screen,5_0_0_0_6_0_2,NA,NA,timeout,5004.22,448055,448048.7,448063.88,453051.4,453052,2024-06-22T17:43:14Z,453068.1,NULL,Betrüger,mdanganyifu,d,NA,NA,NA,NA,sdf,0,0,NA,NA,NA,NA,NA,NA,NA,NA,NA,NA,NA,NA,NA,NA,NA,NA,NA,NA,NA
09b9e,deep,flow.Sequence,5_0_0_0_6_0,NA,NA,completion,8223.56,444815,444811.36,444827.84,453051.4,453053,2024-06-22T17:43:14Z,453068.1,NULL,Betrüger,mdanganyifu,d,NA,NA,NA,NA,sdf,NA,0,NA,NA,NA,NA,NA,NA,NA,NA,NA,NA,NA,NA,NA,NA,NA,NA,NA,NA,NA
09b9e,shallow,flow.Sequence,5_0_0_0_6_1,NA,NA,skipped,NA,453053,NA,NA,453051.4,453053,2024-06-22T17:43:14Z,453068.1,NULL,Betrüger,mdanganyifu,d,NA,NA,NA,NA,sdf,NA,0,NA,NA,NA,NA,NA,NA,NA,NA,NA,NA,NA,NA,NA,NA,NA,NA,NA,NA,NA
09b9e,task,flow.Sequence,5_0_0_0_6,NA,NA,completion,8223.56,444815,444811.36,444827.84,453051.4,453053,2024-06-22T17:43:14Z,453068.1,NULL,Betrüger,mdanganyifu,d,NA,NA,NA,NA,sdf,NA,0,NA,NA,NA,NA,NA,NA,NA,NA,NA,NA,NA,NA,NA,NA,NA,NA,NA,NA,NA
09b9e,deep,flow.Sequence,5_0_0_0_7_0,NA,NA,skipped,NA,453053,NA,NA,453051.4,453053,2024-06-22T17:43:14Z,453068.1,NULL,Orientierung,urekebisho,s,uelekeo,marekebisho,utunzaji,NA,sdf,NA,0,NA,NA,NA,NA,NA,NA,NA,NA,NA,NA,NA,NA,NA,NA,NA,NA,NA,NA,NA
09b9e,Shallow Question,html.Page,5_0_0_0_7_1_0,NA,NA,form submission,4652.9,453053,453051.4,453068.1,457721,457721,2024-06-22T17:43:18Z,457721.94,NULL,Orientierung,urekebisho,s,uelekeo,marekebisho,utunzaji,marekebisho,NA,NA,0,NA,NA,NA,NA,NA,NA,NA,NA,NA,NA,NA,NA,NA,NA,NA,NA,NA,NA,NA
09b9e,"""Richtig""-Screen",canvas.Screen,5_0_0_0_7_1_1,NA,NA,skipped,NA,457723,NA,NA,457721,457723,2024-06-22T17:43:18Z,457721.94,NULL,Orientierung,urekebisho,s,uelekeo,marekebisho,utunzaji,NA,sdf,NA,0,NA,NA,NA,NA,NA,NA,NA,NA,NA,NA,NA,NA,NA,NA,NA,NA,NA,NA,NA
09b9e,"""Falsch""-Screen",canvas.Screen,5_0_0_0_7_1_2,NA,NA,timeout,5004.12,457724,457717.2,457721.94,462709.38,462711,2024-06-22T17:43:23Z,462726.06,NULL,Orientierung,urekebisho,s,uelekeo,marekebisho,utunzaji,NA,sdf,0,0,NA,NA,NA,NA,NA,NA,NA,NA,NA,NA,NA,NA,NA,NA,NA,NA,NA,NA,NA
09b9e,shallow,flow.Sequence,5_0_0_0_7_1,NA,NA,completion,9641.28,453053,453051.4,453068.1,462709.38,462711,2024-06-22T17:43:23Z,462726.06,NULL,Orientierung,urekebisho,s,uelekeo,marekebisho,utunzaji,NA,sdf,NA,0,NA,NA,NA,NA,NA,NA,NA,NA,NA,NA,NA,NA,NA,NA,NA,NA,NA,NA,NA
09b9e,task,flow.Sequence,5_0_0_0_7,NA,NA,completion,9641.28,453053,453051.4,453068.1,462709.38,462711,2024-06-22T17:43:23Z,462726.06,NULL,Orientierung,urekebisho,s,uelekeo,marekebisho,utunzaji,NA,sdf,NA,0,NA,NA,NA,NA,NA,NA,NA,NA,NA,NA,NA,NA,NA,NA,NA,NA,NA,NA,NA
09b9e,block,flow.Loop,5_0_0_0,NA,NA,completion,72176.14,390520,390520.18,390533.24,462709.38,462712,2024-06-22T17:43:23Z,462726.06,NULL,NA,NA,NA,NA,NA,NA,NA,sdf,NA,0,NA,NA,NA,NA,NA,NA,NA,NA,NA,NA,NA,NA,NA,NA,NA,NA,NA,NA,NA
09b9e,weiter,canvas.Screen,5_0_0_1,sdf,keypress(Space),response,1155.94,462712,462709.38,462726.06,463882,463892,2024-06-22T17:43:24Z,463957.96,NULL,NA,NA,NA,NA,NA,NA,NA,sdf,NA,0,NA,NA,NA,NA,NA,NA,NA,NA,NA,NA,NA,NA,NA,NA,NA,NA,NA,NA,NA
09b9e,check continue,flow.Sequence,5_0_0,NA,NA,completion,73348.76,390520,390520.18,390533.24,463882,463893,2024-06-22T17:43:24Z,463957.96,NULL,NA,NA,NA,NA,NA,NA,NA,sdf,NA,0,NA,NA,NA,NA,NA,NA,NA,NA,NA,NA,NA,NA,NA,NA,NA,NA,NA,NA,NA
09b9e,Deep Question,html.Page,5_0_1_0_0_0_0,NA,NA,form submission,8012.04,463958,463957.48,463957.96,471970,471970,2024-06-22T17:43:33Z,471967.16,NULL,Stimmung,kinyongo,d,NA,NA,NA,kinyongo,NA,NA,1,NA,NA,NA,NA,NA,NA,NA,NA,NA,NA,NA,NA,NA,NA,NA,NA,NA,NA,NA
09b9e,"""Richtig""-Screen",canvas.Screen,5_0_1_0_0_0_1,NA,NA,timeout,5003.94,471972,471967.1,471967.16,476954.54,476960,2024-06-22T17:43:38Z,476971.1,NULL,Stimmung,kinyongo,d,NA,NA,NA,NA,sdfdsf,1,1,NA,NA,NA,NA,NA,NA,NA,NA,NA,NA,NA,NA,NA,NA,NA,NA,NA,NA,NA
09b9e,"""Falsch""-Screen",canvas.Screen,5_0_1_0_0_0_2,NA,NA,skipped,NA,476969,NA,NA,476954.54,476969,2024-06-22T17:43:38Z,476971.1,NULL,Stimmung,kinyongo,d,NA,NA,NA,NA,sdfdsf,NA,1,NA,NA,NA,NA,NA,NA,NA,NA,NA,NA,NA,NA,NA,NA,NA,NA,NA,NA,NA
09b9e,deep,flow.Sequence,5_0_1_0_0_0,NA,NA,completion,12996.58,463958,463957.48,463957.96,476954.54,476969,2024-06-22T17:43:38Z,476971.1,NULL,Stimmung,kinyongo,d,NA,NA,NA,NA,sdfdsf,NA,1,NA,NA,NA,NA,NA,NA,NA,NA,NA,NA,NA,NA,NA,NA,NA,NA,NA,NA,NA
09b9e,shallow,flow.Sequence,5_0_1_0_0_1,NA,NA,skipped,NA,476969,NA,NA,476954.54,476969,2024-06-22T17:43:38Z,476971.1,NULL,Stimmung,kinyongo,d,NA,NA,NA,NA,sdfdsf,NA,1,NA,NA,NA,NA,NA,NA,NA,NA,NA,NA,NA,NA,NA,NA,NA,NA,NA,NA,NA
09b9e,task,flow.Sequence,5_0_1_0_0,NA,NA,completion,12996.58,463958,463957.48,463957.96,476954.54,476969,2024-06-22T17:43:38Z,476971.1,NULL,Stimmung,kinyongo,d,NA,NA,NA,NA,sdfdsf,NA,1,NA,NA,NA,NA,NA,NA,NA,NA,NA,NA,NA,NA,NA,NA,NA,NA,NA,NA,NA
09b9e,deep,flow.Sequence,5_0_1_0_1_0,NA,NA,skipped,NA,476970,NA,NA,476954.54,476970,2024-06-22T17:43:38Z,476971.1,NULL,Notfall,dharura,s,rairai,malalamiko,ahueni,NA,sdfdsf,NA,1,NA,NA,NA,NA,NA,NA,NA,NA,NA,NA,NA,NA,NA,NA,NA,NA,NA,NA,NA
09b9e,Shallow Question,html.Page,5_0_1_0_1_1_0,NA,NA,form submission,3272.9,476970,476954.54,476971.1,480244,480245,2024-06-22T17:43:41Z,480240.5,NULL,Notfall,dharura,s,rairai,malalamiko,ahueni,dharura,NA,NA,1,NA,NA,NA,NA,NA,NA,NA,NA,NA,NA,NA,NA,NA,NA,NA,NA,NA,NA,NA
09b9e,"""Richtig""-Screen",canvas.Screen,5_0_1_0_1_1_1,NA,NA,timeout,5004.32,480252,480239.52,480240.5,485228.12,485230,2024-06-22T17:43:46Z,485244.82,NULL,Notfall,dharura,s,rairai,malalamiko,ahueni,NA,sdfdsf,1,1,NA,NA,NA,NA,NA,NA,NA,NA,NA,NA,NA,NA,NA,NA,NA,NA,NA,NA,NA
09b9e,"""Falsch""-Screen",canvas.Screen,5_0_1_0_1_1_2,NA,NA,skipped,NA,485232,NA,NA,485228.12,485232,2024-06-22T17:43:46Z,485244.82,NULL,Notfall,dharura,s,rairai,malalamiko,ahueni,NA,sdfdsf,NA,1,NA,NA,NA,NA,NA,NA,NA,NA,NA,NA,NA,NA,NA,NA,NA,NA,NA,NA,NA
09b9e,shallow,flow.Sequence,5_0_1_0_1_1,NA,NA,completion,8257.02,476970,476954.54,476971.1,485228.12,485233,2024-06-22T17:43:46Z,485244.82,NULL,Notfall,dharura,s,rairai,malalamiko,ahueni,NA,sdfdsf,NA,1,NA,NA,NA,NA,NA,NA,NA,NA,NA,NA,NA,NA,NA,NA,NA,NA,NA,NA,NA
09b9e,task,flow.Sequence,5_0_1_0_1,NA,NA,completion,8257.02,476969,476954.54,476971.1,485228.12,485233,2024-06-22T17:43:46Z,485244.82,NULL,Notfall,dharura,s,rairai,malalamiko,ahueni,NA,sdfdsf,NA,1,NA,NA,NA,NA,NA,NA,NA,NA,NA,NA,NA,NA,NA,NA,NA,NA,NA,NA,NA
09b9e,deep,flow.Sequence,5_0_1_0_2_0,NA,NA,skipped,NA,485233,NA,NA,485228.12,485233,2024-06-22T17:43:46Z,485244.82,NULL,Respekt,heshima,s,changamnao,upinzani,ufanisi,NA,sdfdsf,NA,1,NA,NA,NA,NA,NA,NA,NA,NA,NA,NA,NA,NA,NA,NA,NA,NA,NA,NA,NA
09b9e,Shallow Question,html.Page,5_0_1_0_2_1_0,NA,NA,form submission,5452.18,485233,485228.12,485244.82,490697,490698,2024-06-22T17:43:51Z,490699.36,NULL,Respekt,heshima,s,changamnao,upinzani,ufanisi,heshima,NA,NA,1,NA,NA,NA,NA,NA,NA,NA,NA,NA,NA,NA,NA,NA,NA,NA,NA,NA,NA,NA
09b9e,"""Richtig""-Screen",canvas.Screen,5_0_1_0_2_1_1,NA,NA,timeout,5004.12,490700,490694.06,490699.36,495686.8,495688,2024-06-22T17:43:56Z,495703.48,NULL,Respekt,heshima,s,changamnao,upinzani,ufanisi,NA,sdfdsf,1,1,NA,NA,NA,NA,NA,NA,NA,NA,NA,NA,NA,NA,NA,NA,NA,NA,NA,NA,NA
09b9e,"""Falsch""-Screen",canvas.Screen,5_0_1_0_2_1_2,NA,NA,skipped,NA,495690,NA,NA,495686.8,495690,2024-06-22T17:43:56Z,495703.48,NULL,Respekt,heshima,s,changamnao,upinzani,ufanisi,NA,sdfdsf,NA,1,NA,NA,NA,NA,NA,NA,NA,NA,NA,NA,NA,NA,NA,NA,NA,NA,NA,NA,NA
09b9e,shallow,flow.Sequence,5_0_1_0_2_1,NA,NA,completion,10441.98,485233,485228.12,485244.82,495686.8,495690,2024-06-22T17:43:56Z,495703.48,NULL,Respekt,heshima,s,changamnao,upinzani,ufanisi,NA,sdfdsf,NA,1,NA,NA,NA,NA,NA,NA,NA,NA,NA,NA,NA,NA,NA,NA,NA,NA,NA,NA,NA
09b9e,task,flow.Sequence,5_0_1_0_2,NA,NA,completion,10441.98,485233,485228.12,485244.82,495686.8,495691,2024-06-22T17:43:56Z,495703.48,NULL,Respekt,heshima,s,changamnao,upinzani,ufanisi,NA,sdfdsf,NA,1,NA,NA,NA,NA,NA,NA,NA,NA,NA,NA,NA,NA,NA,NA,NA,NA,NA,NA,NA
09b9e,Deep Question,html.Page,5_0_1_0_3_0_0,NA,NA,form submission,5008.52,495691,495686.8,495703.48,500712,500712,2024-06-22T17:44:01Z,500707.66,NULL,Ergänzung,kijalizo,d,NA,NA,NA,NA,NA,NA,1,NA,NA,NA,NA,NA,NA,NA,NA,NA,NA,NA,NA,NA,NA,NA,NA,NA,NA,NA
09b9e,"""Richtig""-Screen",canvas.Screen,5_0_1_0_3_0_1,NA,NA,skipped,NA,500713,NA,NA,500712,500713,2024-06-22T17:44:01Z,500707.66,NULL,Ergänzung,kijalizo,d,NA,NA,NA,NA,sdfdsf,NA,1,NA,NA,NA,NA,NA,NA,NA,NA,NA,NA,NA,NA,NA,NA,NA,NA,NA,NA,NA
09b9e,"""Falsch""-Screen",canvas.Screen,5_0_1_0_3_0_2,NA,NA,timeout,5004.04,500714,500707.22,500707.66,505695.02,505697,2024-06-22T17:44:06Z,505711.7,NULL,Ergänzung,kijalizo,d,NA,NA,NA,NA,sdfdsf,0,1,NA,NA,NA,NA,NA,NA,NA,NA,NA,NA,NA,NA,NA,NA,NA,NA,NA,NA,NA
09b9e,deep,flow.Sequence,5_0_1_0_3_0,NA,NA,completion,9991.54,495691,495686.8,495703.48,505695.02,505698,2024-06-22T17:44:06Z,505711.7,NULL,Ergänzung,kijalizo,d,NA,NA,NA,NA,sdfdsf,NA,1,NA,NA,NA,NA,NA,NA,NA,NA,NA,NA,NA,NA,NA,NA,NA,NA,NA,NA,NA
09b9e,shallow,flow.Sequence,5_0_1_0_3_1,NA,NA,skipped,NA,505698,NA,NA,505695.02,505698,2024-06-22T17:44:06Z,505711.7,NULL,Ergänzung,kijalizo,d,NA,NA,NA,NA,sdfdsf,NA,1,NA,NA,NA,NA,NA,NA,NA,NA,NA,NA,NA,NA,NA,NA,NA,NA,NA,NA,NA
09b9e,task,flow.Sequence,5_0_1_0_3,NA,NA,completion,9991.54,495691,495686.8,495703.48,505695.02,505698,2024-06-22T17:44:06Z,505711.7,NULL,Ergänzung,kijalizo,d,NA,NA,NA,NA,sdfdsf,NA,1,NA,NA,NA,NA,NA,NA,NA,NA,NA,NA,NA,NA,NA,NA,NA,NA,NA,NA,NA
09b9e,deep,flow.Sequence,5_0_1_0_4_0,NA,NA,skipped,NA,505698,NA,NA,505695.02,505698,2024-06-22T17:44:06Z,505711.7,NULL,Vergnügen,kichekesho,s,dubwana,mpanuko,mtesaji,NA,sdfdsf,NA,1,NA,NA,NA,NA,NA,NA,NA,NA,NA,NA,NA,NA,NA,NA,NA,NA,NA,NA,NA
09b9e,Shallow Question,html.Page,5_0_1_0_4_1_0,NA,NA,form submission,8528.3,505698,505695.02,505711.7,514240,514241,2024-06-22T17:44:15Z,514252.02,NULL,Vergnügen,kichekesho,s,dubwana,mpanuko,mtesaji,kichekesho,NA,NA,1,NA,NA,NA,NA,NA,NA,NA,NA,NA,NA,NA,NA,NA,NA,NA,NA,NA,NA,NA
09b9e,"""Richtig""-Screen",canvas.Screen,5_0_1_0_4_1_1,NA,NA,timeout,5004.22,514242,514237.34,514252.02,519239.56,519241,2024-06-22T17:44:20Z,519256.24,NULL,Vergnügen,kichekesho,s,dubwana,mpanuko,mtesaji,NA,sdfdsf,1,1,NA,NA,NA,NA,NA,NA,NA,NA,NA,NA,NA,NA,NA,NA,NA,NA,NA,NA,NA
09b9e,"""Falsch""-Screen",canvas.Screen,5_0_1_0_4_1_2,NA,NA,skipped,NA,519243,NA,NA,519239.56,519243,2024-06-22T17:44:20Z,519256.24,NULL,Vergnügen,kichekesho,s,dubwana,mpanuko,mtesaji,NA,sdfdsf,NA,1,NA,NA,NA,NA,NA,NA,NA,NA,NA,NA,NA,NA,NA,NA,NA,NA,NA,NA,NA
09b9e,shallow,flow.Sequence,5_0_1_0_4_1,NA,NA,completion,13527.86,505698,505695.02,505711.7,519239.56,519243,2024-06-22T17:44:20Z,519256.24,NULL,Vergnügen,kichekesho,s,dubwana,mpanuko,mtesaji,NA,sdfdsf,NA,1,NA,NA,NA,NA,NA,NA,NA,NA,NA,NA,NA,NA,NA,NA,NA,NA,NA,NA,NA
09b9e,task,flow.Sequence,5_0_1_0_4,NA,NA,completion,13527.86,505698,505695.02,505711.7,519239.56,519243,2024-06-22T17:44:20Z,519256.24,NULL,Vergnügen,kichekesho,s,dubwana,mpanuko,mtesaji,NA,sdfdsf,NA,1,NA,NA,NA,NA,NA,NA,NA,NA,NA,NA,NA,NA,NA,NA,NA,NA,NA,NA,NA
09b9e,Deep Question,html.Page,5_0_1_0_5_0_0,NA,NA,form submission,2431.76,519244,519239.56,519256.24,521688,521688,2024-06-22T17:44:22Z,521691.5,NULL,Wohlstand,mafanikio,d,NA,NA,NA,NA,NA,NA,1,NA,NA,NA,NA,NA,NA,NA,NA,NA,NA,NA,NA,NA,NA,NA,NA,NA,NA,NA
09b9e,"""Richtig""-Screen",canvas.Screen,5_0_1_0_5_0_1,NA,NA,skipped,NA,521691,NA,NA,521688,521691,2024-06-22T17:44:22Z,521691.5,NULL,Wohlstand,mafanikio,d,NA,NA,NA,NA,sdfdsf,NA,1,NA,NA,NA,NA,NA,NA,NA,NA,NA,NA,NA,NA,NA,NA,NA,NA,NA,NA,NA
09b9e,"""Falsch""-Screen",canvas.Screen,5_0_1_0_5_0_2,NA,NA,timeout,5004.1800000001,521691,521684.8,521691.5,526678.98,526681,2024-06-22T17:44:27Z,526695.68,NULL,Wohlstand,mafanikio,d,NA,NA,NA,NA,sdfdsf,0,1,NA,NA,NA,NA,NA,NA,NA,NA,NA,NA,NA,NA,NA,NA,NA,NA,NA,NA,NA
09b9e,deep,flow.Sequence,5_0_1_0_5_0,NA,NA,completion,7422.74,519243,519239.56,519256.24,526678.98,526681,2024-06-22T17:44:27Z,526695.68,NULL,Wohlstand,mafanikio,d,NA,NA,NA,NA,sdfdsf,NA,1,NA,NA,NA,NA,NA,NA,NA,NA,NA,NA,NA,NA,NA,NA,NA,NA,NA,NA,NA
09b9e,shallow,flow.Sequence,5_0_1_0_5_1,NA,NA,skipped,NA,526681,NA,NA,526678.98,526681,2024-06-22T17:44:27Z,526695.68,NULL,Wohlstand,mafanikio,d,NA,NA,NA,NA,sdfdsf,NA,1,NA,NA,NA,NA,NA,NA,NA,NA,NA,NA,NA,NA,NA,NA,NA,NA,NA,NA,NA
09b9e,task,flow.Sequence,5_0_1_0_5,NA,NA,completion,7422.74,519243,519239.56,519256.24,526678.98,526682,2024-06-22T17:44:27Z,526695.68,NULL,Wohlstand,mafanikio,d,NA,NA,NA,NA,sdfdsf,NA,1,NA,NA,NA,NA,NA,NA,NA,NA,NA,NA,NA,NA,NA,NA,NA,NA,NA,NA,NA
09b9e,Deep Question,html.Page,5_0_1_0_6_0_0,NA,NA,form submission,2356.3199999999,526682,526678.98,526695.68,529052,529053,2024-06-22T17:44:30Z,529064.36,NULL,Betrüger,mdanganyifu,d,NA,NA,NA,NA,NA,NA,1,NA,NA,NA,NA,NA,NA,NA,NA,NA,NA,NA,NA,NA,NA,NA,NA,NA,NA,NA
09b9e,"""Richtig""-Screen",canvas.Screen,5_0_1_0_6_0_1,NA,NA,skipped,NA,529054,NA,NA,529052,529054,2024-06-22T17:44:30Z,529064.36,NULL,Betrüger,mdanganyifu,d,NA,NA,NA,NA,sdfdsf,NA,1,NA,NA,NA,NA,NA,NA,NA,NA,NA,NA,NA,NA,NA,NA,NA,NA,NA,NA,NA
09b9e,"""Falsch""-Screen",canvas.Screen,5_0_1_0_6_0_2,NA,NA,timeout,5004.16,529055,529048.92,529064.36,534051.82,534054,2024-06-22T17:44:35Z,534068.52,NULL,Betrüger,mdanganyifu,d,NA,NA,NA,NA,sdfdsf,0,1,NA,NA,NA,NA,NA,NA,NA,NA,NA,NA,NA,NA,NA,NA,NA,NA,NA,NA,NA
09b9e,deep,flow.Sequence,5_0_1_0_6_0,NA,NA,completion,7356.1399999999,526682,526678.98,526695.68,534051.82,534054,2024-06-22T17:44:35Z,534068.52,NULL,Betrüger,mdanganyifu,d,NA,NA,NA,NA,sdfdsf,NA,1,NA,NA,NA,NA,NA,NA,NA,NA,NA,NA,NA,NA,NA,NA,NA,NA,NA,NA,NA
09b9e,shallow,flow.Sequence,5_0_1_0_6_1,NA,NA,skipped,NA,534054,NA,NA,534051.82,534054,2024-06-22T17:44:35Z,534068.52,NULL,Betrüger,mdanganyifu,d,NA,NA,NA,NA,sdfdsf,NA,1,NA,NA,NA,NA,NA,NA,NA,NA,NA,NA,NA,NA,NA,NA,NA,NA,NA,NA,NA
09b9e,task,flow.Sequence,5_0_1_0_6,NA,NA,completion,7356.1399999999,526682,526678.98,526695.68,534051.82,534054,2024-06-22T17:44:35Z,534068.52,NULL,Betrüger,mdanganyifu,d,NA,NA,NA,NA,sdfdsf,NA,1,NA,NA,NA,NA,NA,NA,NA,NA,NA,NA,NA,NA,NA,NA,NA,NA,NA,NA,NA
09b9e,deep,flow.Sequence,5_0_1_0_7_0,NA,NA,skipped,NA,534055,NA,NA,534051.82,534055,2024-06-22T17:44:35Z,534068.52,NULL,Orientierung,urekebisho,s,uelekeo,marekebisho,utunzaji,NA,sdfdsf,NA,1,NA,NA,NA,NA,NA,NA,NA,NA,NA,NA,NA,NA,NA,NA,NA,NA,NA,NA,NA
09b9e,Shallow Question,html.Page,5_0_1_0_7_1_0,NA,NA,form submission,8275.48,534055,534051.82,534068.52,542344,542346,2024-06-22T17:44:43Z,542341.9,NULL,Orientierung,urekebisho,s,uelekeo,marekebisho,utunzaji,urekebisho,NA,NA,1,NA,NA,NA,NA,NA,NA,NA,NA,NA,NA,NA,NA,NA,NA,NA,NA,NA,NA,NA
09b9e,"""Richtig""-Screen",canvas.Screen,5_0_1_0_7_1_1,NA,NA,timeout,5004.1799999999,542353,542338.8,542341.9,547329.38,547331,2024-06-22T17:44:48Z,547346.08,NULL,Orientierung,urekebisho,s,uelekeo,marekebisho,utunzaji,NA,sdfdsf,1,1,NA,NA,NA,NA,NA,NA,NA,NA,NA,NA,NA,NA,NA,NA,NA,NA,NA,NA,NA
09b9e,"""Falsch""-Screen",canvas.Screen,5_0_1_0_7_1_2,NA,NA,skipped,NA,547334,NA,NA,547329.38,547334,2024-06-22T17:44:48Z,547346.08,NULL,Orientierung,urekebisho,s,uelekeo,marekebisho,utunzaji,NA,sdfdsf,NA,1,NA,NA,NA,NA,NA,NA,NA,NA,NA,NA,NA,NA,NA,NA,NA,NA,NA,NA,NA
09b9e,shallow,flow.Sequence,5_0_1_0_7_1,NA,NA,completion,13260.86,534055,534051.82,534068.52,547329.38,547335,2024-06-22T17:44:48Z,547346.08,NULL,Orientierung,urekebisho,s,uelekeo,marekebisho,utunzaji,NA,sdfdsf,NA,1,NA,NA,NA,NA,NA,NA,NA,NA,NA,NA,NA,NA,NA,NA,NA,NA,NA,NA,NA
09b9e,task,flow.Sequence,5_0_1_0_7,NA,NA,completion,13260.86,534055,534051.82,534068.52,547329.38,547336,2024-06-22T17:44:48Z,547346.08,NULL,Orientierung,urekebisho,s,uelekeo,marekebisho,utunzaji,NA,sdfdsf,NA,1,NA,NA,NA,NA,NA,NA,NA,NA,NA,NA,NA,NA,NA,NA,NA,NA,NA,NA,NA
09b9e,block,flow.Loop,5_0_1_0,NA,NA,completion,83371.42,463958,463957.48,463957.96,547329.38,547336,2024-06-22T17:44:48Z,547346.08,NULL,NA,NA,NA,NA,NA,NA,NA,sdfdsf,NA,1,NA,NA,NA,NA,NA,NA,NA,NA,NA,NA,NA,NA,NA,NA,NA,NA,NA,NA,NA
09b9e,weiter,canvas.Screen,5_0_1_1,sdf,keypress(Space),response,1207.92,547336,547329.38,547346.08,548554,548564,2024-06-22T17:44:49Z,548616.66,NULL,NA,NA,NA,NA,NA,NA,NA,sdfdsf,NA,1,NA,NA,NA,NA,NA,NA,NA,NA,NA,NA,NA,NA,NA,NA,NA,NA,NA,NA,NA
09b9e,check continue,flow.Sequence,5_0_1,NA,NA,completion,84596.04,463958,463957.48,463957.96,548554,548565,2024-06-22T17:44:49Z,548616.66,NULL,NA,NA,NA,NA,NA,NA,NA,sdfdsf,NA,1,NA,NA,NA,NA,NA,NA,NA,NA,NA,NA,NA,NA,NA,NA,NA,NA,NA,NA,NA
09b9e,Deep Question,html.Page,5_0_2_0_0_0_0,NA,NA,form submission,3941.34,548617,548616.18,548616.66,552558,552559,2024-06-22T17:44:53Z,552566.96,NULL,Ergänzung,kijalizo,d,NA,NA,NA,NA,NA,NA,2,NA,NA,NA,NA,NA,NA,NA,NA,NA,NA,NA,NA,NA,NA,NA,NA,NA,NA,NA
09b9e,"""Richtig""-Screen",canvas.Screen,5_0_2_0_0_0_1,NA,NA,skipped,NA,552560,NA,NA,552558,552560,2024-06-22T17:44:53Z,552566.96,NULL,Ergänzung,kijalizo,d,NA,NA,NA,NA,sdf,NA,2,NA,NA,NA,NA,NA,NA,NA,NA,NA,NA,NA,NA,NA,NA,NA,NA,NA,NA,NA
09b9e,"""Falsch""-Screen",canvas.Screen,5_0_2_0_0_0_2,NA,NA,timeout,5004.3400000001,552561,552554.4,552566.96,557554.6,557557,2024-06-22T17:44:58Z,557571.3,NULL,Ergänzung,kijalizo,d,NA,NA,NA,NA,sdf,0,2,NA,NA,NA,NA,NA,NA,NA,NA,NA,NA,NA,NA,NA,NA,NA,NA,NA,NA,NA
09b9e,deep,flow.Sequence,5_0_2_0_0_0,NA,NA,completion,8937.9399999999,548617,548616.18,548616.66,557554.6,557557,2024-06-22T17:44:58Z,557571.3,NULL,Ergänzung,kijalizo,d,NA,NA,NA,NA,sdf,NA,2,NA,NA,NA,NA,NA,NA,NA,NA,NA,NA,NA,NA,NA,NA,NA,NA,NA,NA,NA
09b9e,shallow,flow.Sequence,5_0_2_0_0_1,NA,NA,skipped,NA,557557,NA,NA,557554.6,557558,2024-06-22T17:44:58Z,557571.3,NULL,Ergänzung,kijalizo,d,NA,NA,NA,NA,sdf,NA,2,NA,NA,NA,NA,NA,NA,NA,NA,NA,NA,NA,NA,NA,NA,NA,NA,NA,NA,NA
09b9e,task,flow.Sequence,5_0_2_0_0,NA,NA,completion,8937.9399999999,548617,548616.18,548616.66,557554.6,557558,2024-06-22T17:44:58Z,557571.3,NULL,Ergänzung,kijalizo,d,NA,NA,NA,NA,sdf,NA,2,NA,NA,NA,NA,NA,NA,NA,NA,NA,NA,NA,NA,NA,NA,NA,NA,NA,NA,NA
09b9e,Deep Question,html.Page,5_0_2_0_1_0_0,NA,NA,form submission,8636.7,557558,557554.6,557571.3,566208,566209,2024-06-22T17:45:07Z,566211.58,NULL,Betrüger,mdanganyifu,d,NA,NA,NA,kinyongo,NA,NA,2,NA,NA,NA,NA,NA,NA,NA,NA,NA,NA,NA,NA,NA,NA,NA,NA,NA,NA,NA
09b9e,"""Richtig""-Screen",canvas.Screen,5_0_2_0_1_0_1,NA,NA,skipped,NA,566210,NA,NA,566208,566210,2024-06-22T17:45:07Z,566211.58,NULL,Betrüger,mdanganyifu,d,NA,NA,NA,NA,sdf,NA,2,NA,NA,NA,NA,NA,NA,NA,NA,NA,NA,NA,NA,NA,NA,NA,NA,NA,NA,NA
09b9e,"""Falsch""-Screen",canvas.Screen,5_0_2_0_1_0_2,NA,NA,timeout,5004.3,566211,566204.24,566211.58,571199.18,571201,2024-06-22T17:45:12Z,571215.88,NULL,Betrüger,mdanganyifu,d,NA,NA,NA,NA,sdf,0,2,NA,NA,NA,NA,NA,NA,NA,NA,NA,NA,NA,NA,NA,NA,NA,NA,NA,NA,NA
09b9e,deep,flow.Sequence,5_0_2_0_1_0,NA,NA,completion,13627.88,557558,557554.6,557571.3,571199.18,571201,2024-06-22T17:45:12Z,571215.88,NULL,Betrüger,mdanganyifu,d,NA,NA,NA,NA,sdf,NA,2,NA,NA,NA,NA,NA,NA,NA,NA,NA,NA,NA,NA,NA,NA,NA,NA,NA,NA,NA
09b9e,shallow,flow.Sequence,5_0_2_0_1_1,NA,NA,skipped,NA,571201,NA,NA,571199.18,571201,2024-06-22T17:45:12Z,571215.88,NULL,Betrüger,mdanganyifu,d,NA,NA,NA,NA,sdf,NA,2,NA,NA,NA,NA,NA,NA,NA,NA,NA,NA,NA,NA,NA,NA,NA,NA,NA,NA,NA
09b9e,task,flow.Sequence,5_0_2_0_1,NA,NA,completion,13627.88,557558,557554.6,557571.3,571199.18,571201,2024-06-22T17:45:12Z,571215.88,NULL,Betrüger,mdanganyifu,d,NA,NA,NA,NA,sdf,NA,2,NA,NA,NA,NA,NA,NA,NA,NA,NA,NA,NA,NA,NA,NA,NA,NA,NA,NA,NA
09b9e,deep,flow.Sequence,5_0_2_0_2_0,NA,NA,skipped,NA,571201,NA,NA,571199.18,571202,2024-06-22T17:45:12Z,571215.88,NULL,Notfall,dharura,s,rairai,malalamiko,ahueni,NA,sdf,NA,2,NA,NA,NA,NA,NA,NA,NA,NA,NA,NA,NA,NA,NA,NA,NA,NA,NA,NA,NA
09b9e,Shallow Question,html.Page,5_0_2_0_2_1_0,NA,NA,form submission,2925.12,571203,571199.18,571215.88,574141,574141,2024-06-22T17:45:15Z,574151.52,NULL,Notfall,dharura,s,rairai,malalamiko,ahueni,dharura,NA,NA,2,NA,NA,NA,NA,NA,NA,NA,NA,NA,NA,NA,NA,NA,NA,NA,NA,NA,NA,NA
09b9e,"""Richtig""-Screen",canvas.Screen,5_0_2_0_2_1_1,NA,NA,timeout,5004.28,574143,574138.28,574151.52,579139.1,579140,2024-06-22T17:45:20Z,579155.8,NULL,Notfall,dharura,s,rairai,malalamiko,ahueni,NA,sdf,1,2,NA,NA,NA,NA,NA,NA,NA,NA,NA,NA,NA,NA,NA,NA,NA,NA,NA,NA,NA
09b9e,"""Falsch""-Screen",canvas.Screen,5_0_2_0_2_1_2,NA,NA,skipped,NA,579143,NA,NA,579139.1,579143,2024-06-22T17:45:20Z,579155.8,NULL,Notfall,dharura,s,rairai,malalamiko,ahueni,NA,sdf,NA,2,NA,NA,NA,NA,NA,NA,NA,NA,NA,NA,NA,NA,NA,NA,NA,NA,NA,NA,NA
09b9e,shallow,flow.Sequence,5_0_2_0_2_1,NA,NA,completion,7923.22,571203,571199.18,571215.88,579139.1,579143,2024-06-22T17:45:20Z,579155.8,NULL,Notfall,dharura,s,rairai,malalamiko,ahueni,NA,sdf,NA,2,NA,NA,NA,NA,NA,NA,NA,NA,NA,NA,NA,NA,NA,NA,NA,NA,NA,NA,NA
09b9e,task,flow.Sequence,5_0_2_0_2,NA,NA,completion,7923.22,571201,571199.18,571215.88,579139.1,579143,2024-06-22T17:45:20Z,579155.8,NULL,Notfall,dharura,s,rairai,malalamiko,ahueni,NA,sdf,NA,2,NA,NA,NA,NA,NA,NA,NA,NA,NA,NA,NA,NA,NA,NA,NA,NA,NA,NA,NA
09b9e,deep,flow.Sequence,5_0_2_0_3_0,NA,NA,skipped,NA,579143,NA,NA,579139.1,579143,2024-06-22T17:45:20Z,579155.8,NULL,Orientierung,urekebisho,s,uelekeo,marekebisho,utunzaji,NA,sdf,NA,2,NA,NA,NA,NA,NA,NA,NA,NA,NA,NA,NA,NA,NA,NA,NA,NA,NA,NA,NA
09b9e,Shallow Question,html.Page,5_0_2_0_3_1_0,NA,NA,form submission,2827.2,579144,579139.1,579155.8,581983,581983,2024-06-22T17:45:23Z,581991.46,NULL,Orientierung,urekebisho,s,uelekeo,marekebisho,utunzaji,urekebisho,NA,NA,2,NA,NA,NA,NA,NA,NA,NA,NA,NA,NA,NA,NA,NA,NA,NA,NA,NA,NA,NA
09b9e,"""Richtig""-Screen",canvas.Screen,5_0_2_0_3_1_1,NA,NA,timeout,5004.12,581984,581978.02,581991.46,586978.9,586980,2024-06-22T17:45:28Z,586995.58,NULL,Orientierung,urekebisho,s,uelekeo,marekebisho,utunzaji,NA,sdf,1,2,NA,NA,NA,NA,NA,NA,NA,NA,NA,NA,NA,NA,NA,NA,NA,NA,NA,NA,NA
09b9e,"""Falsch""-Screen",canvas.Screen,5_0_2_0_3_1_2,NA,NA,skipped,NA,586982,NA,NA,586978.9,586982,2024-06-22T17:45:28Z,586995.58,NULL,Orientierung,urekebisho,s,uelekeo,marekebisho,utunzaji,NA,sdf,NA,2,NA,NA,NA,NA,NA,NA,NA,NA,NA,NA,NA,NA,NA,NA,NA,NA,NA,NA,NA
09b9e,shallow,flow.Sequence,5_0_2_0_3_1,NA,NA,completion,7823.1,579144,579139.1,579155.8,586978.9,586983,2024-06-22T17:45:28Z,586995.58,NULL,Orientierung,urekebisho,s,uelekeo,marekebisho,utunzaji,NA,sdf,NA,2,NA,NA,NA,NA,NA,NA,NA,NA,NA,NA,NA,NA,NA,NA,NA,NA,NA,NA,NA
09b9e,task,flow.Sequence,5_0_2_0_3,NA,NA,completion,7823.1,579143,579139.1,579155.8,586978.9,586983,2024-06-22T17:45:28Z,586995.58,NULL,Orientierung,urekebisho,s,uelekeo,marekebisho,utunzaji,NA,sdf,NA,2,NA,NA,NA,NA,NA,NA,NA,NA,NA,NA,NA,NA,NA,NA,NA,NA,NA,NA,NA
09b9e,deep,flow.Sequence,5_0_2_0_4_0,NA,NA,skipped,NA,586983,NA,NA,586978.9,586983,2024-06-22T17:45:28Z,586995.58,NULL,Respekt,heshima,s,changamnao,upinzani,ufanisi,NA,sdf,NA,2,NA,NA,NA,NA,NA,NA,NA,NA,NA,NA,NA,NA,NA,NA,NA,NA,NA,NA,NA
09b9e,Shallow Question,html.Page,5_0_2_0_4_1_0,NA,NA,form submission,6715.42,586983,586978.9,586995.58,593711,593711,2024-06-22T17:45:34Z,593717.82,NULL,Respekt,heshima,s,changamnao,upinzani,ufanisi,heshima,NA,NA,2,NA,NA,NA,NA,NA,NA,NA,NA,NA,NA,NA,NA,NA,NA,NA,NA,NA,NA,NA
09b9e,"""Richtig""-Screen",canvas.Screen,5_0_2_0_4_1_1,NA,NA,timeout,5004.12,593713,593707.96,593717.82,598705.24,598706,2024-06-22T17:45:39Z,598721.94,NULL,Respekt,heshima,s,changamnao,upinzani,ufanisi,NA,sdf,1,2,NA,NA,NA,NA,NA,NA,NA,NA,NA,NA,NA,NA,NA,NA,NA,NA,NA,NA,NA
09b9e,"""Falsch""-Screen",canvas.Screen,5_0_2_0_4_1_2,NA,NA,skipped,NA,598708,NA,NA,598705.24,598709,2024-06-22T17:45:39Z,598721.94,NULL,Respekt,heshima,s,changamnao,upinzani,ufanisi,NA,sdf,NA,2,NA,NA,NA,NA,NA,NA,NA,NA,NA,NA,NA,NA,NA,NA,NA,NA,NA,NA,NA
09b9e,shallow,flow.Sequence,5_0_2_0_4_1,NA,NA,completion,11709.66,586983,586978.9,586995.58,598705.24,598709,2024-06-22T17:45:39Z,598721.94,NULL,Respekt,heshima,s,changamnao,upinzani,ufanisi,NA,sdf,NA,2,NA,NA,NA,NA,NA,NA,NA,NA,NA,NA,NA,NA,NA,NA,NA,NA,NA,NA,NA
09b9e,task,flow.Sequence,5_0_2_0_4,NA,NA,completion,11709.66,586983,586978.9,586995.58,598705.24,598709,2024-06-22T17:45:39Z,598721.94,NULL,Respekt,heshima,s,changamnao,upinzani,ufanisi,NA,sdf,NA,2,NA,NA,NA,NA,NA,NA,NA,NA,NA,NA,NA,NA,NA,NA,NA,NA,NA,NA,NA
09b9e,Deep Question,html.Page,5_0_2_0_5_0_0,NA,NA,form submission,6997.0600000001,598709,598705.24,598721.94,605719,605719,2024-06-22T17:45:46Z,605727.68,NULL,Stimmung,kinyongo,d,NA,NA,NA,kubadilika,NA,NA,2,NA,NA,NA,NA,NA,NA,NA,NA,NA,NA,NA,NA,NA,NA,NA,NA,NA,NA,NA
09b9e,"""Richtig""-Screen",canvas.Screen,5_0_2_0_5_0_1,NA,NA,skipped,NA,605720,NA,NA,605719,605721,2024-06-22T17:45:46Z,605727.68,NULL,Stimmung,kinyongo,d,NA,NA,NA,NA,sdf,NA,2,NA,NA,NA,NA,NA,NA,NA,NA,NA,NA,NA,NA,NA,NA,NA,NA,NA,NA,NA
09b9e,"""Falsch""-Screen",canvas.Screen,5_0_2_0_5_0_2,NA,NA,timeout,5004.1599999999,605721,605715.98,605727.68,610715.22,610716,2024-06-22T17:45:51Z,610731.84,NULL,Stimmung,kinyongo,d,NA,NA,NA,NA,sdf,0,2,NA,NA,NA,NA,NA,NA,NA,NA,NA,NA,NA,NA,NA,NA,NA,NA,NA,NA,NA
09b9e,deep,flow.Sequence,5_0_2_0_5_0,NA,NA,completion,11993.28,598709,598705.24,598721.94,610715.22,610716,2024-06-22T17:45:51Z,610731.84,NULL,Stimmung,kinyongo,d,NA,NA,NA,NA,sdf,NA,2,NA,NA,NA,NA,NA,NA,NA,NA,NA,NA,NA,NA,NA,NA,NA,NA,NA,NA,NA
09b9e,shallow,flow.Sequence,5_0_2_0_5_1,NA,NA,skipped,NA,610716,NA,NA,610715.22,610716,2024-06-22T17:45:51Z,610731.84,NULL,Stimmung,kinyongo,d,NA,NA,NA,NA,sdf,NA,2,NA,NA,NA,NA,NA,NA,NA,NA,NA,NA,NA,NA,NA,NA,NA,NA,NA,NA,NA
09b9e,task,flow.Sequence,5_0_2_0_5,NA,NA,completion,11993.28,598709,598705.24,598721.94,610715.22,610716,2024-06-22T17:45:51Z,610731.84,NULL,Stimmung,kinyongo,d,NA,NA,NA,NA,sdf,NA,2,NA,NA,NA,NA,NA,NA,NA,NA,NA,NA,NA,NA,NA,NA,NA,NA,NA,NA,NA
09b9e,deep,flow.Sequence,5_0_2_0_6_0,NA,NA,skipped,NA,610717,NA,NA,610715.22,610717,2024-06-22T17:45:51Z,610731.84,NULL,Vergnügen,kichekesho,s,dubwana,mpanuko,mtesaji,NA,sdf,NA,2,NA,NA,NA,NA,NA,NA,NA,NA,NA,NA,NA,NA,NA,NA,NA,NA,NA,NA,NA
09b9e,Shallow Question,html.Page,5_0_2_0_6_1_0,NA,NA,form submission,4428.16,610717,610715.22,610731.84,615160,615160,2024-06-22T17:45:56Z,615168.92,NULL,Vergnügen,kichekesho,s,dubwana,mpanuko,mtesaji,kichekesho,NA,NA,2,NA,NA,NA,NA,NA,NA,NA,NA,NA,NA,NA,NA,NA,NA,NA,NA,NA,NA,NA
09b9e,"""Richtig""-Screen",canvas.Screen,5_0_2_0_6_1_1,NA,NA,timeout,5003.9399999999,615161,615157,615168.92,620156.48,620160,2024-06-22T17:46:01Z,620172.86,NULL,Vergnügen,kichekesho,s,dubwana,mpanuko,mtesaji,NA,sdf,1,2,NA,NA,NA,NA,NA,NA,NA,NA,NA,NA,NA,NA,NA,NA,NA,NA,NA,NA,NA
09b9e,"""Falsch""-Screen",canvas.Screen,5_0_2_0_6_1_2,NA,NA,skipped,NA,620171,NA,NA,620156.48,620172,2024-06-22T17:46:01Z,620172.86,NULL,Vergnügen,kichekesho,s,dubwana,mpanuko,mtesaji,NA,sdf,NA,2,NA,NA,NA,NA,NA,NA,NA,NA,NA,NA,NA,NA,NA,NA,NA,NA,NA,NA,NA
09b9e,shallow,flow.Sequence,5_0_2_0_6_1,NA,NA,completion,9424.64,610717,610715.22,610731.84,620156.48,620172,2024-06-22T17:46:01Z,620172.86,NULL,Vergnügen,kichekesho,s,dubwana,mpanuko,mtesaji,NA,sdf,NA,2,NA,NA,NA,NA,NA,NA,NA,NA,NA,NA,NA,NA,NA,NA,NA,NA,NA,NA,NA
09b9e,task,flow.Sequence,5_0_2_0_6,NA,NA,completion,9424.64,610717,610715.22,610731.84,620156.48,620172,2024-06-22T17:46:01Z,620172.86,NULL,Vergnügen,kichekesho,s,dubwana,mpanuko,mtesaji,NA,sdf,NA,2,NA,NA,NA,NA,NA,NA,NA,NA,NA,NA,NA,NA,NA,NA,NA,NA,NA,NA,NA
09b9e,Deep Question,html.Page,5_0_2_0_7_0_0,NA,NA,form submission,5235.14,620180,620156.48,620172.86,625408,625408,2024-06-22T17:46:06Z,625410.6,NULL,Wohlstand,mafanikio,d,NA,NA,NA,kubadilika,NA,NA,2,NA,NA,NA,NA,NA,NA,NA,NA,NA,NA,NA,NA,NA,NA,NA,NA,NA,NA,NA
09b9e,"""Richtig""-Screen",canvas.Screen,5_0_2_0_7_0_1,NA,NA,skipped,NA,625410,NA,NA,625408,625410,2024-06-22T17:46:06Z,625410.6,NULL,Wohlstand,mafanikio,d,NA,NA,NA,NA,sdf,NA,2,NA,NA,NA,NA,NA,NA,NA,NA,NA,NA,NA,NA,NA,NA,NA,NA,NA,NA,NA
09b9e,"""Falsch""-Screen",canvas.Screen,5_0_2_0_7_0_2,NA,NA,timeout,5004.16,625413,625402.9,625410.6,630398.1,630400,2024-06-22T17:46:11Z,630414.76,NULL,Wohlstand,mafanikio,d,NA,NA,NA,NA,sdf,0,2,NA,NA,NA,NA,NA,NA,NA,NA,NA,NA,NA,NA,NA,NA,NA,NA,NA,NA,NA
09b9e,deep,flow.Sequence,5_0_2_0_7_0,NA,NA,completion,10225.24,620173,620156.48,620172.86,630398.1,630401,2024-06-22T17:46:11Z,630414.76,NULL,Wohlstand,mafanikio,d,NA,NA,NA,NA,sdf,NA,2,NA,NA,NA,NA,NA,NA,NA,NA,NA,NA,NA,NA,NA,NA,NA,NA,NA,NA,NA
09b9e,shallow,flow.Sequence,5_0_2_0_7_1,NA,NA,skipped,NA,630401,NA,NA,630398.1,630401,2024-06-22T17:46:11Z,630414.76,NULL,Wohlstand,mafanikio,d,NA,NA,NA,NA,sdf,NA,2,NA,NA,NA,NA,NA,NA,NA,NA,NA,NA,NA,NA,NA,NA,NA,NA,NA,NA,NA
09b9e,task,flow.Sequence,5_0_2_0_7,NA,NA,completion,10225.24,620172,620156.48,620172.86,630398.1,630401,2024-06-22T17:46:11Z,630414.76,NULL,Wohlstand,mafanikio,d,NA,NA,NA,NA,sdf,NA,2,NA,NA,NA,NA,NA,NA,NA,NA,NA,NA,NA,NA,NA,NA,NA,NA,NA,NA,NA
09b9e,block,flow.Loop,5_0_2_0,NA,NA,completion,81781.44,548616,548616.18,548616.66,630398.1,630401,2024-06-22T17:46:11Z,630414.76,NULL,NA,NA,NA,NA,NA,NA,NA,sdf,NA,2,NA,NA,NA,NA,NA,NA,NA,NA,NA,NA,NA,NA,NA,NA,NA,NA,NA,NA,NA
09b9e,weiter,canvas.Screen,5_0_2_1,sdf,keypress(Space),response,1264.24,630402,630398.1,630414.76,631679,631695,2024-06-22T17:46:12Z,631748.8,NULL,NA,NA,NA,NA,NA,NA,NA,sdf,NA,2,NA,NA,NA,NA,NA,NA,NA,NA,NA,NA,NA,NA,NA,NA,NA,NA,NA,NA,NA
09b9e,check continue,flow.Sequence,5_0_2,NA,NA,completion,83062.34,548616,548616.18,548616.66,631679,631695,2024-06-22T17:46:12Z,631748.8,NULL,NA,NA,NA,NA,NA,NA,NA,sdf,NA,2,NA,NA,NA,NA,NA,NA,NA,NA,NA,NA,NA,NA,NA,NA,NA,NA,NA,NA,NA
09b9e,deep,flow.Sequence,5_0_3_0_0_0,NA,NA,skipped,NA,631748,NA,NA,631679,631748,2024-06-22T17:46:12Z,631748.8,NULL,Vergnügen,kichekesho,s,dubwana,mpanuko,mtesaji,NA,qt,NA,3,NA,NA,NA,NA,NA,NA,NA,NA,NA,NA,NA,NA,NA,NA,NA,NA,NA,NA,NA
09b9e,Shallow Question,html.Page,5_0_3_0_0_1_0,NA,NA,form submission,2936.2,631748,631748.36,631748.8,634685,634685,2024-06-22T17:46:15Z,634684.98,NULL,Vergnügen,kichekesho,s,dubwana,mpanuko,mtesaji,kichekesho,NA,NA,3,NA,NA,NA,NA,NA,NA,NA,NA,NA,NA,NA,NA,NA,NA,NA,NA,NA,NA,NA
09b9e,"""Richtig""-Screen",canvas.Screen,5_0_3_0_0_1_1,NA,NA,timeout,5004.16,634687,634681.1,634684.98,639672.46,639674,2024-06-22T17:46:20Z,639689.14,NULL,Vergnügen,kichekesho,s,dubwana,mpanuko,mtesaji,NA,qt,1,3,NA,NA,NA,NA,NA,NA,NA,NA,NA,NA,NA,NA,NA,NA,NA,NA,NA,NA,NA
09b9e,"""Falsch""-Screen",canvas.Screen,5_0_3_0_0_1_2,NA,NA,skipped,NA,639677,NA,NA,639672.46,639677,2024-06-22T17:46:20Z,639689.14,NULL,Vergnügen,kichekesho,s,dubwana,mpanuko,mtesaji,NA,qt,NA,3,NA,NA,NA,NA,NA,NA,NA,NA,NA,NA,NA,NA,NA,NA,NA,NA,NA,NA,NA
09b9e,shallow,flow.Sequence,5_0_3_0_0_1,NA,NA,completion,7923.6599999999,631748,631748.36,631748.8,639672.46,639677,2024-06-22T17:46:20Z,639689.14,NULL,Vergnügen,kichekesho,s,dubwana,mpanuko,mtesaji,NA,qt,NA,3,NA,NA,NA,NA,NA,NA,NA,NA,NA,NA,NA,NA,NA,NA,NA,NA,NA,NA,NA
09b9e,task,flow.Sequence,5_0_3_0_0,NA,NA,completion,7923.6599999999,631748,631748.36,631748.8,639672.46,639677,2024-06-22T17:46:20Z,639689.14,NULL,Vergnügen,kichekesho,s,dubwana,mpanuko,mtesaji,NA,qt,NA,3,NA,NA,NA,NA,NA,NA,NA,NA,NA,NA,NA,NA,NA,NA,NA,NA,NA,NA,NA
09b9e,Deep Question,html.Page,5_0_3_0_1_0_0,NA,NA,form submission,15132.86,639677,639672.46,639689.14,654822,654822,2024-06-22T17:46:35Z,654834.9,NULL,Ergänzung,kijalizo,d,NA,NA,NA,kinyongo,NA,NA,3,NA,NA,NA,NA,NA,NA,NA,NA,NA,NA,NA,NA,NA,NA,NA,NA,NA,NA,NA
09b9e,"""Richtig""-Screen",canvas.Screen,5_0_3_0_1_0_1,NA,NA,skipped,NA,654824,NA,NA,654822,654824,2024-06-22T17:46:35Z,654834.9,NULL,Ergänzung,kijalizo,d,NA,NA,NA,NA,qt,NA,3,NA,NA,NA,NA,NA,NA,NA,NA,NA,NA,NA,NA,NA,NA,NA,NA,NA,NA,NA
09b9e,"""Falsch""-Screen",canvas.Screen,5_0_3_0_1_0_2,NA,NA,timeout,5004.26,654825,654818.58,654834.9,659822.46,659825,2024-06-22T17:46:40Z,659839.16,NULL,Ergänzung,kijalizo,d,NA,NA,NA,NA,qt,0,3,NA,NA,NA,NA,NA,NA,NA,NA,NA,NA,NA,NA,NA,NA,NA,NA,NA,NA,NA
09b9e,deep,flow.Sequence,5_0_3_0_1_0,NA,NA,completion,20133.32,639677,639672.46,639689.14,659822.46,659826,2024-06-22T17:46:40Z,659839.16,NULL,Ergänzung,kijalizo,d,NA,NA,NA,NA,qt,NA,3,NA,NA,NA,NA,NA,NA,NA,NA,NA,NA,NA,NA,NA,NA,NA,NA,NA,NA,NA
09b9e,shallow,flow.Sequence,5_0_3_0_1_1,NA,NA,skipped,NA,659826,NA,NA,659822.46,659826,2024-06-22T17:46:40Z,659839.16,NULL,Ergänzung,kijalizo,d,NA,NA,NA,NA,qt,NA,3,NA,NA,NA,NA,NA,NA,NA,NA,NA,NA,NA,NA,NA,NA,NA,NA,NA,NA,NA
09b9e,task,flow.Sequence,5_0_3_0_1,NA,NA,completion,20133.32,639677,639672.46,639689.14,659822.46,659826,2024-06-22T17:46:40Z,659839.16,NULL,Ergänzung,kijalizo,d,NA,NA,NA,NA,qt,NA,3,NA,NA,NA,NA,NA,NA,NA,NA,NA,NA,NA,NA,NA,NA,NA,NA,NA,NA,NA
09b9e,Deep Question,html.Page,5_0_3_0_2_0_0,NA,NA,form submission,7717.84,659826,659822.46,659839.16,667557,667557,2024-06-22T17:46:48Z,667562.22,NULL,Wohlstand,mafanikio,d,NA,NA,NA,kinyongo,NA,NA,3,NA,NA,NA,NA,NA,NA,NA,NA,NA,NA,NA,NA,NA,NA,NA,NA,NA,NA,NA
09b9e,"""Richtig""-Screen",canvas.Screen,5_0_3_0_2_0_1,NA,NA,skipped,NA,667559,NA,NA,667557,667559,2024-06-22T17:46:48Z,667562.22,NULL,Wohlstand,mafanikio,d,NA,NA,NA,NA,qt,NA,3,NA,NA,NA,NA,NA,NA,NA,NA,NA,NA,NA,NA,NA,NA,NA,NA,NA,NA,NA
09b9e,"""Falsch""-Screen",canvas.Screen,5_0_3_0_2_0_2,NA,NA,timeout,5004.0800000001,667560,667553.24,667562.22,672549.6,672551,2024-06-22T17:46:53Z,672566.3,NULL,Wohlstand,mafanikio,d,NA,NA,NA,NA,qt,0,3,NA,NA,NA,NA,NA,NA,NA,NA,NA,NA,NA,NA,NA,NA,NA,NA,NA,NA,NA
09b9e,deep,flow.Sequence,5_0_3_0_2_0,NA,NA,completion,12710.44,659826,659822.46,659839.16,672549.6,672551,2024-06-22T17:46:53Z,672566.3,NULL,Wohlstand,mafanikio,d,NA,NA,NA,NA,qt,NA,3,NA,NA,NA,NA,NA,NA,NA,NA,NA,NA,NA,NA,NA,NA,NA,NA,NA,NA,NA
09b9e,shallow,flow.Sequence,5_0_3_0_2_1,NA,NA,skipped,NA,672551,NA,NA,672549.6,672551,2024-06-22T17:46:53Z,672566.3,NULL,Wohlstand,mafanikio,d,NA,NA,NA,NA,qt,NA,3,NA,NA,NA,NA,NA,NA,NA,NA,NA,NA,NA,NA,NA,NA,NA,NA,NA,NA,NA
09b9e,task,flow.Sequence,5_0_3_0_2,NA,NA,completion,12710.44,659826,659822.46,659839.16,672549.6,672551,2024-06-22T17:46:53Z,672566.3,NULL,Wohlstand,mafanikio,d,NA,NA,NA,NA,qt,NA,3,NA,NA,NA,NA,NA,NA,NA,NA,NA,NA,NA,NA,NA,NA,NA,NA,NA,NA,NA
09b9e,Deep Question,html.Page,5_0_3_0_3_0_0,NA,NA,form submission,4960.7,672551,672549.6,672566.3,677527,677529,2024-06-22T17:46:58Z,677537.1,NULL,Betrüger,mdanganyifu,d,NA,NA,NA,kinyongo,NA,NA,3,NA,NA,NA,NA,NA,NA,NA,NA,NA,NA,NA,NA,NA,NA,NA,NA,NA,NA,NA
