observation,sender,sender_type,sender_id,response,response_action,ended_on,duration,time_run,time_render,time_show,time_end,time_commit,timestamp,time_switch,distractors,german,swahili,enc,distractor1,distractor2,distractor3,response_2,x,correct,x_2,url_vp,url_sess,meta_labjs_version,meta_location,meta_user_agent,meta_platform,meta_language,meta_locale,meta_time_zone,meta_timezone_offset,meta_screen_width,meta_screen_height,meta_scroll_width,meta_scroll_height,meta_window_inner_width,meta_window_inner_height,meta_device_pixel_ratio,meta_labjs_build_flavor,meta_labjs_build_commit
27063,Introduction general,canvas.Screen,0,weiter,keypress(q),response,35962.000000006,804.60000000149,1884.7,1901.4,37863.400000006,37867.400000006,2024-04-04T09:25:57Z,37879.8,NULL,NA,NA,NA,NA,NA,NA,NA,NA,NA,NA,143,3,20.2.4,https://neurocog.fernuni.ch/studies/vweber/aberisha/encoding_immediate/index.html?vp=143&sess=3,"Mozilla/5.0 (Windows NT 10.0; Win64; x64) AppleWebKit/537.36 (KHTML, like Gecko) Chrome/123.0.0.0 Safari/537.36",Win32,de-DE,de,Europe/Zurich,-120,1739,979,1740,763,1740,811,1.1041666269302,production,f5b4a49f956347addd546a832a3327688c2c0fef
27063,Introduction practice,canvas.Screen,1_0,NA,keypress(Space),response,5071.100000006,37868,37866.194,37879.8,42950.900000006,42951.900000006,2024-04-04T09:26:02Z,42959.9,NULL,NA,NA,NA,NA,NA,NA,NA,NA,NA,NA,NA,NA,NA,NA,NA,NA,NA,NA,NA,NA,NA,NA,NA,NA,NA,NA,NA,NA,NA
27063,Deep Question,html.Page,1_1_0_0_0,NA,NA,form submission,9412.000000006,42952.300000004,42946.564,42959.9,52371.900000006,52372.300000004,2024-04-04T09:26:12Z,52387.9,"c(""distractor1"", ""distractor2"", ""distractor3"")",Qualität,mtindo,d,NA,NA,NA,xx,NA,NA,NA,NA,NA,NA,NA,NA,NA,NA,NA,NA,NA,NA,NA,NA,NA,NA,NA,NA,NA,NA
27063,"""Richtig""-Screen",canvas.Screen,1_1_0_0_1,NA,NA,skipped,NA,52374,NA,NA,52371.900000006,52374.200000003,2024-04-04T09:26:12Z,52387.9,"c(""distractor1"", ""distractor2"", ""distractor3"")",Qualität,mtindo,d,NA,NA,NA,NA,NA,NA,NA,NA,NA,NA,NA,NA,NA,NA,NA,NA,NA,NA,NA,NA,NA,NA,NA,NA,NA,NA
27063,"""Falsch""-Screen",canvas.Screen,1_1_0_0_2,NA,NA,timeout,4996.7,52375.600000001,52371.28,52387.9,57367.7,57368.700000003,2024-04-04T09:26:17Z,57384.6,"c(""distractor1"", ""distractor2"", ""distractor3"")",Qualität,mtindo,d,NA,NA,NA,NA,NA,0,NA,NA,NA,NA,NA,NA,NA,NA,NA,NA,NA,NA,NA,NA,NA,NA,NA,NA,NA,NA
27063,deep,flow.Sequence,1_1_0_0,NA,NA,completion,14407.8,42952.200000003,42946.564,42959.9,57367.7,57369,2024-04-04T09:26:17Z,57384.6,"c(""distractor1"", ""distractor2"", ""distractor3"")",Qualität,mtindo,d,NA,NA,NA,NA,NA,NA,NA,NA,NA,NA,NA,NA,NA,NA,NA,NA,NA,NA,NA,NA,NA,NA,NA,NA,NA,NA
27063,shallow,flow.Sequence,1_1_0_1,NA,NA,skipped,NA,57369.200000003,NA,NA,57367.7,57369.300000004,2024-04-04T09:26:17Z,57384.6,"c(""distractor1"", ""distractor2"", ""distractor3"")",Qualität,mtindo,d,NA,NA,NA,NA,NA,NA,NA,NA,NA,NA,NA,NA,NA,NA,NA,NA,NA,NA,NA,NA,NA,NA,NA,NA,NA,NA
27063,task,flow.Sequence,1_1_0,NA,NA,completion,14407.8,42952.200000003,42946.564,42959.9,57367.7,57369.400000006,2024-04-04T09:26:17Z,57384.6,"c(""distractor1"", ""distractor2"", ""distractor3"")",Qualität,mtindo,d,NA,NA,NA,NA,NA,NA,NA,NA,NA,NA,NA,NA,NA,NA,NA,NA,NA,NA,NA,NA,NA,NA,NA,NA,NA,NA
27063,deep,flow.Sequence,1_1_1_0,NA,NA,skipped,NA,57369.600000001,NA,NA,57367.7,57369.800000004,2024-04-04T09:26:17Z,57384.6,"c(""distractor1"", ""distractor2"", ""distractor3"")",Rückhalt,msaada,s,muhula,auwali,kiwimbe,NA,NA,NA,NA,NA,NA,NA,NA,NA,NA,NA,NA,NA,NA,NA,NA,NA,NA,NA,NA,NA,NA,NA
27063,Shallow Question,html.Page,1_1_1_1_0,NA,NA,form submission,8290.4,57369.800000004,57367.7,57384.6,65675,65675.300000004,2024-04-04T09:26:25Z,65679.91,"c(""distractor1"", ""distractor2"", ""distractor3"")",Rückhalt,msaada,s,muhula,auwali,kiwimbe,muhula,NA,NA,NA,NA,NA,NA,NA,NA,NA,NA,NA,NA,NA,NA,NA,NA,NA,NA,NA,NA,NA,NA
27063,"""Richtig""-Screen",canvas.Screen,1_1_1_1_1,NA,NA,skipped,NA,65678.600000001,NA,NA,65675,65678.800000004,2024-04-04T09:26:25Z,65679.91,"c(""distractor1"", ""distractor2"", ""distractor3"")",Rückhalt,msaada,s,muhula,auwali,kiwimbe,NA,NA,NA,NA,NA,NA,NA,NA,NA,NA,NA,NA,NA,NA,NA,NA,NA,NA,NA,NA,NA,NA,NA
27063,"""Falsch""-Screen",canvas.Screen,1_1_1_1_2,NA,NA,timeout,4996.69,65679.600000001,65679.91,65679.91,70659.8,70660.300000004,2024-04-04T09:26:30Z,70676.6,"c(""distractor1"", ""distractor2"", ""distractor3"")",Rückhalt,msaada,s,muhula,auwali,kiwimbe,NA,NA,0,NA,NA,NA,NA,NA,NA,NA,NA,NA,NA,NA,NA,NA,NA,NA,NA,NA,NA,NA,NA
27063,shallow,flow.Sequence,1_1_1_1,NA,NA,completion,13275.2,57369.800000004,57367.7,57384.6,70659.8,70660.5,2024-04-04T09:26:30Z,70676.6,"c(""distractor1"", ""distractor2"", ""distractor3"")",Rückhalt,msaada,s,muhula,auwali,kiwimbe,NA,NA,NA,NA,NA,NA,NA,NA,NA,NA,NA,NA,NA,NA,NA,NA,NA,NA,NA,NA,NA,NA,NA
27063,task,flow.Sequence,1_1_1,NA,NA,completion,13275.2,57369.600000001,57367.7,57384.6,70659.8,70660.700000003,2024-04-04T09:26:30Z,70676.6,"c(""distractor1"", ""distractor2"", ""distractor3"")",Rückhalt,msaada,s,muhula,auwali,kiwimbe,NA,NA,NA,NA,NA,NA,NA,NA,NA,NA,NA,NA,NA,NA,NA,NA,NA,NA,NA,NA,NA,NA,NA
27063,Deep Question,html.Page,1_1_2_0_0,NA,NA,form submission,8684.7000000045009,70660.700000003,70659.8,70676.6,79361.300000004,79361.5,2024-04-04T09:26:39Z,79370.8,"c(""distractor1"", ""distractor2"", ""distractor3"")",Schatten,kivuli,d,NA,NA,NA,xx,NA,NA,NA,NA,NA,NA,NA,NA,NA,NA,NA,NA,NA,NA,NA,NA,NA,NA,NA,NA,NA,NA
27063,"""Richtig""-Screen",canvas.Screen,1_1_2_0_1,NA,NA,skipped,NA,79364.600000001,NA,NA,79361.300000004,79364.800000004,2024-04-04T09:26:39Z,79370.8,"c(""distractor1"", ""distractor2"", ""distractor3"")",Schatten,kivuli,d,NA,NA,NA,NA,NA,NA,NA,NA,NA,NA,NA,NA,NA,NA,NA,NA,NA,NA,NA,NA,NA,NA,NA,NA,NA,NA
27063,"""Falsch""-Screen",canvas.Screen,1_1_2_0_2,NA,NA,timeout,4997.3,79365.400000006,79354.686,79370.8,84351.3,84352.200000003,2024-04-04T09:26:44Z,84368.1,"c(""distractor1"", ""distractor2"", ""distractor3"")",Schatten,kivuli,d,NA,NA,NA,NA,NA,0,NA,NA,NA,NA,NA,NA,NA,NA,NA,NA,NA,NA,NA,NA,NA,NA,NA,NA,NA,NA
27063,deep,flow.Sequence,1_1_2_0,NA,NA,completion,13674.7,70660.700000003,70659.8,70676.6,84351.3,84352.600000001,2024-04-04T09:26:44Z,84368.1,"c(""distractor1"", ""distractor2"", ""distractor3"")",Schatten,kivuli,d,NA,NA,NA,NA,NA,NA,NA,NA,NA,NA,NA,NA,NA,NA,NA,NA,NA,NA,NA,NA,NA,NA,NA,NA,NA,NA
27063,shallow,flow.Sequence,1_1_2_1,NA,NA,skipped,NA,84352.800000004,NA,NA,84351.3,84353,2024-04-04T09:26:44Z,84368.1,"c(""distractor1"", ""distractor2"", ""distractor3"")",Schatten,kivuli,d,NA,NA,NA,NA,NA,NA,NA,NA,NA,NA,NA,NA,NA,NA,NA,NA,NA,NA,NA,NA,NA,NA,NA,NA,NA,NA
27063,task,flow.Sequence,1_1_2,NA,NA,completion,13674.7,70660.700000003,70659.8,70676.6,84351.3,84353.200000003,2024-04-04T09:26:44Z,84368.1,"c(""distractor1"", ""distractor2"", ""distractor3"")",Schatten,kivuli,d,NA,NA,NA,NA,NA,NA,NA,NA,NA,NA,NA,NA,NA,NA,NA,NA,NA,NA,NA,NA,NA,NA,NA,NA,NA,NA
27063,deep,flow.Sequence,1_1_3_0,NA,NA,skipped,NA,84353.300000004,NA,NA,84351.3,84353.5,2024-04-04T09:26:44Z,84368.1,"c(""distractor1"", ""distractor2"", ""distractor3"")",Kritik,lawama,s,dereva,nafasi,mawazo,NA,NA,NA,NA,NA,NA,NA,NA,NA,NA,NA,NA,NA,NA,NA,NA,NA,NA,NA,NA,NA,NA,NA
27063,Shallow Question,html.Page,1_1_3_1_0,NA,NA,form submission,9014.100000003,84353.600000001,84351.3,84368.1,93382.200000003,93382.5,2024-04-04T09:26:53Z,93412.7,"c(""distractor1"", ""distractor2"", ""distractor3"")",Kritik,lawama,s,dereva,nafasi,mawazo,dereva,NA,NA,NA,NA,NA,NA,NA,NA,NA,NA,NA,NA,NA,NA,NA,NA,NA,NA,NA,NA,NA,NA
27063,"""Richtig""-Screen",canvas.Screen,1_1_3_1_1,NA,NA,skipped,NA,93385.5,NA,NA,93382.200000003,93385.700000003,2024-04-04T09:26:53Z,93412.7,"c(""distractor1"", ""distractor2"", ""distractor3"")",Kritik,lawama,s,dereva,nafasi,mawazo,NA,NA,NA,NA,NA,NA,NA,NA,NA,NA,NA,NA,NA,NA,NA,NA,NA,NA,NA,NA,NA,NA,NA
27063,"""Falsch""-Screen",canvas.Screen,1_1_3_1_2,NA,NA,timeout,4996.8,93386.100000001,93396.374,93412.7,98392.8,98393.800000004,2024-04-04T09:26:58Z,98409.5,"c(""distractor1"", ""distractor2"", ""distractor3"")",Kritik,lawama,s,dereva,nafasi,mawazo,NA,NA,0,NA,NA,NA,NA,NA,NA,NA,NA,NA,NA,NA,NA,NA,NA,NA,NA,NA,NA,NA,NA
27063,shallow,flow.Sequence,1_1_3_1,NA,NA,completion,14024.7,84353.600000001,84351.3,84368.1,98392.8,98394.200000003,2024-04-04T09:26:58Z,98409.5,"c(""distractor1"", ""distractor2"", ""distractor3"")",Kritik,lawama,s,dereva,nafasi,mawazo,NA,NA,NA,NA,NA,NA,NA,NA,NA,NA,NA,NA,NA,NA,NA,NA,NA,NA,NA,NA,NA,NA,NA
27063,task,flow.Sequence,1_1_3,NA,NA,completion,14024.7,84353.300000004,84351.3,84368.1,98392.8,98394.400000006,2024-04-04T09:26:58Z,98409.5,"c(""distractor1"", ""distractor2"", ""distractor3"")",Kritik,lawama,s,dereva,nafasi,mawazo,NA,NA,NA,NA,NA,NA,NA,NA,NA,NA,NA,NA,NA,NA,NA,NA,NA,NA,NA,NA,NA,NA,NA
27063,deep,flow.Sequence,1_1_4_0,NA,NA,skipped,NA,98394.600000001,NA,NA,98392.8,98394.800000004,2024-04-04T09:26:58Z,98409.5,"c(""distractor1"", ""distractor2"", ""distractor3"")",Gegenwart,hadhara,s,katiba,jokofu,mikopo,NA,NA,NA,NA,NA,NA,NA,NA,NA,NA,NA,NA,NA,NA,NA,NA,NA,NA,NA,NA,NA,NA,NA
27063,Shallow Question,html.Page,1_1_4_1_0,NA,NA,form submission,10965.600000001,98395,98392.8,98409.5,109375.1,109375.3,2024-04-04T09:27:09Z,109386,"c(""distractor1"", ""distractor2"", ""distractor3"")",Gegenwart,hadhara,s,katiba,jokofu,mikopo,katiba,NA,NA,NA,NA,NA,NA,NA,NA,NA,NA,NA,NA,NA,NA,NA,NA,NA,NA,NA,NA,NA,NA
27063,"""Richtig""-Screen",canvas.Screen,1_1_4_1_1,NA,NA,skipped,NA,109378.3,NA,NA,109375.1,109378.40000001,2024-04-04T09:27:09Z,109386,"c(""distractor1"", ""distractor2"", ""distractor3"")",Gegenwart,hadhara,s,katiba,jokofu,mikopo,NA,NA,NA,NA,NA,NA,NA,NA,NA,NA,NA,NA,NA,NA,NA,NA,NA,NA,NA,NA,NA,NA,NA
27063,"""Falsch""-Screen",canvas.Screen,1_1_4_1_2,NA,NA,timeout,4997.1,109379.2,109369.728,109386,114366.5,114367.5,2024-04-04T09:27:14Z,114383.1,"c(""distractor1"", ""distractor2"", ""distractor3"")",Gegenwart,hadhara,s,katiba,jokofu,mikopo,NA,NA,0,NA,NA,NA,NA,NA,NA,NA,NA,NA,NA,NA,NA,NA,NA,NA,NA,NA,NA,NA,NA
27063,shallow,flow.Sequence,1_1_4_1,NA,NA,completion,15957,98394.900000006,98392.8,98409.5,114366.5,114367.90000001,2024-04-04T09:27:14Z,114383.1,"c(""distractor1"", ""distractor2"", ""distractor3"")",Gegenwart,hadhara,s,katiba,jokofu,mikopo,NA,NA,NA,NA,NA,NA,NA,NA,NA,NA,NA,NA,NA,NA,NA,NA,NA,NA,NA,NA,NA,NA,NA
27063,task,flow.Sequence,1_1_4,NA,NA,completion,15957,98394.600000001,98392.8,98409.5,114366.5,114368.1,2024-04-04T09:27:14Z,114383.1,"c(""distractor1"", ""distractor2"", ""distractor3"")",Gegenwart,hadhara,s,katiba,jokofu,mikopo,NA,NA,NA,NA,NA,NA,NA,NA,NA,NA,NA,NA,NA,NA,NA,NA,NA,NA,NA,NA,NA,NA,NA
27063,Deep Question,html.Page,1_1_5_0_0,NA,NA,form submission,2968.2000000045,114368.40000001,114366.5,114383.1,117351.3,117351.6,2024-04-04T09:27:17Z,117364.4,"c(""distractor1"", ""distractor2"", ""distractor3"")",Gesundheit,salama,d,NA,NA,NA,NA,NA,NA,NA,NA,NA,NA,NA,NA,NA,NA,NA,NA,NA,NA,NA,NA,NA,NA,NA,NA,NA,NA
27063,"""Richtig""-Screen",canvas.Screen,1_1_5_0_1,NA,NA,skipped,NA,117354.40000001,NA,NA,117351.3,117354.6,2024-04-04T09:27:17Z,117364.4,"c(""distractor1"", ""distractor2"", ""distractor3"")",Gesundheit,salama,d,NA,NA,NA,NA,NA,NA,NA,NA,NA,NA,NA,NA,NA,NA,NA,NA,NA,NA,NA,NA,NA,NA,NA,NA,NA,NA
27063,"""Falsch""-Screen",canvas.Screen,1_1_5_0_2,NA,NA,timeout,4997,117355.2,117348.122,117364.4,122344.7,122345.7,2024-04-04T09:27:22Z,122361.4,"c(""distractor1"", ""distractor2"", ""distractor3"")",Gesundheit,salama,d,NA,NA,NA,NA,NA,0,NA,NA,NA,NA,NA,NA,NA,NA,NA,NA,NA,NA,NA,NA,NA,NA,NA,NA,NA,NA
27063,deep,flow.Sequence,1_1_5_0,NA,NA,completion,7961.6,114368.40000001,114366.5,114383.1,122344.7,122346,2024-04-04T09:27:22Z,122361.4,"c(""distractor1"", ""distractor2"", ""distractor3"")",Gesundheit,salama,d,NA,NA,NA,NA,NA,NA,NA,NA,NA,NA,NA,NA,NA,NA,NA,NA,NA,NA,NA,NA,NA,NA,NA,NA,NA,NA
27063,shallow,flow.Sequence,1_1_5_1,NA,NA,skipped,NA,122346.1,NA,NA,122344.7,122346.40000001,2024-04-04T09:27:22Z,122361.4,"c(""distractor1"", ""distractor2"", ""distractor3"")",Gesundheit,salama,d,NA,NA,NA,NA,NA,NA,NA,NA,NA,NA,NA,NA,NA,NA,NA,NA,NA,NA,NA,NA,NA,NA,NA,NA,NA,NA
27063,task,flow.Sequence,1_1_5,NA,NA,completion,7961.6,114368.2,114366.5,114383.1,122344.7,122346.5,2024-04-04T09:27:22Z,122361.4,"c(""distractor1"", ""distractor2"", ""distractor3"")",Gesundheit,salama,d,NA,NA,NA,NA,NA,NA,NA,NA,NA,NA,NA,NA,NA,NA,NA,NA,NA,NA,NA,NA,NA,NA,NA,NA,NA,NA
27063,block,flow.Loop,1_1,NA,NA,completion,79384.8,42952.100000001,42946.564,42959.9,122344.7,122346.90000001,2024-04-04T09:27:22Z,122361.4,"c(""distractor1"", ""distractor2"", ""distractor3"")",NA,NA,NA,NA,NA,NA,NA,NA,NA,NA,NA,NA,NA,NA,NA,NA,NA,NA,NA,NA,NA,NA,NA,NA,NA,NA,NA,NA,NA
27063,Practice,flow.Sequence,1,NA,NA,completion,84464.9,37868,37866.194,37879.8,122344.7,122347.2,2024-04-04T09:27:22Z,122361.4,NULL,NA,NA,NA,NA,NA,NA,NA,NA,NA,NA,NA,NA,NA,NA,NA,NA,NA,NA,NA,NA,NA,NA,NA,NA,NA,NA,NA,NA,NA
27063,Experiment start,canvas.Screen,2,weiter,keypress(q),response,9854.800000003,122347.3,122344.7,122361.4,132216.2,132217.1,2024-04-04T09:27:32Z,132271.8,NULL,NA,NA,NA,NA,NA,NA,NA,NA,NA,NA,NA,NA,NA,NA,NA,NA,NA,NA,NA,NA,NA,NA,NA,NA,NA,NA,NA,NA,NA
27063,Deep Question,html.Page,3_0_0_0_0_0_0,NA,NA,form submission,56153.900000003,132271.5,132259.248,132271.8,188425.7,188426,2024-04-04T09:28:28Z,188437.6,NULL,Atmosphäre,angahewa,d,NA,NA,NA,xx,NA,NA,0,NA,NA,NA,NA,NA,NA,NA,NA,NA,NA,NA,NA,NA,NA,NA,NA,NA,NA,NA
27063,"""Richtig""-Screen",canvas.Screen,3_0_0_0_0_0_1,NA,NA,skipped,NA,188429,NA,NA,188425.7,188429.2,2024-04-04T09:28:28Z,188437.6,NULL,Atmosphäre,angahewa,d,NA,NA,NA,NA,sdf,NA,0,NA,NA,NA,NA,NA,NA,NA,NA,NA,NA,NA,NA,NA,NA,NA,NA,NA,NA,NA
27063,"""Falsch""-Screen",canvas.Screen,3_0_0_0_0_0_2,NA,NA,timeout,4997.3,188430,188421.4,188437.6,193418.3,193419.2,2024-04-04T09:28:33Z,193434.9,NULL,Atmosphäre,angahewa,d,NA,NA,NA,NA,sdf,0,0,NA,NA,NA,NA,NA,NA,NA,NA,NA,NA,NA,NA,NA,NA,NA,NA,NA,NA,NA
27063,deep,flow.Sequence,3_0_0_0_0_0,NA,NA,completion,61146.5,132271.5,132259.248,132271.8,193418.3,193419.7,2024-04-04T09:28:33Z,193434.9,NULL,Atmosphäre,angahewa,d,NA,NA,NA,NA,sdf,NA,0,NA,NA,NA,NA,NA,NA,NA,NA,NA,NA,NA,NA,NA,NA,NA,NA,NA,NA,NA
27063,shallow,flow.Sequence,3_0_0_0_0_1,NA,NA,skipped,NA,193419.8,NA,NA,193418.3,193420,2024-04-04T09:28:33Z,193434.9,NULL,Atmosphäre,angahewa,d,NA,NA,NA,NA,sdf,NA,0,NA,NA,NA,NA,NA,NA,NA,NA,NA,NA,NA,NA,NA,NA,NA,NA,NA,NA,NA
27063,task,flow.Sequence,3_0_0_0_0,NA,NA,completion,61146.5,132271.5,132259.248,132271.8,193418.3,193420.2,2024-04-04T09:28:33Z,193434.9,NULL,Atmosphäre,angahewa,d,NA,NA,NA,NA,sdf,NA,0,NA,NA,NA,NA,NA,NA,NA,NA,NA,NA,NA,NA,NA,NA,NA,NA,NA,NA,NA
27063,deep,flow.Sequence,3_0_0_0_1_0,NA,NA,skipped,NA,193420.40000001,NA,NA,193418.3,193420.5,2024-04-04T09:28:33Z,193434.9,NULL,Wechsel,ugeuzaji,s,utambulisho,kujenga,wasiwasi,NA,sdf,NA,0,NA,NA,NA,NA,NA,NA,NA,NA,NA,NA,NA,NA,NA,NA,NA,NA,NA,NA,NA
27063,Shallow Question,html.Page,3_0_0_0_1_1_0,NA,NA,form submission,13966.200000001,193420.7,193418.3,193434.9,207401.1,207401.3,2024-04-04T09:28:47Z,207409.2,NULL,Wechsel,ugeuzaji,s,utambulisho,kujenga,wasiwasi,wasiwasi,NA,NA,0,NA,NA,NA,NA,NA,NA,NA,NA,NA,NA,NA,NA,NA,NA,NA,NA,NA,NA,NA
27063,"""Richtig""-Screen",canvas.Screen,3_0_0_0_1_1_1,NA,NA,skipped,NA,207404.3,NA,NA,207401.1,207404.40000001,2024-04-04T09:28:47Z,207409.2,NULL,Wechsel,ugeuzaji,s,utambulisho,kujenga,wasiwasi,NA,sdf,NA,0,NA,NA,NA,NA,NA,NA,NA,NA,NA,NA,NA,NA,NA,NA,NA,NA,NA,NA,NA
27063,"""Falsch""-Screen",canvas.Screen,3_0_0_0_1_1_2,NA,NA,timeout,4997.5,207405.2,207393.3,207409.2,212389.7,212390.6,2024-04-04T09:28:52Z,212406.7,NULL,Wechsel,ugeuzaji,s,utambulisho,kujenga,wasiwasi,NA,sdf,0,0,NA,NA,NA,NA,NA,NA,NA,NA,NA,NA,NA,NA,NA,NA,NA,NA,NA,NA,NA
27063,shallow,flow.Sequence,3_0_0_0_1_1,NA,NA,completion,18954.8,193420.6,193418.3,193434.9,212389.7,212391,2024-04-04T09:28:52Z,212406.7,NULL,Wechsel,ugeuzaji,s,utambulisho,kujenga,wasiwasi,NA,sdf,NA,0,NA,NA,NA,NA,NA,NA,NA,NA,NA,NA,NA,NA,NA,NA,NA,NA,NA,NA,NA
27063,task,flow.Sequence,3_0_0_0_1,NA,NA,completion,18954.8,193420.40000001,193418.3,193434.9,212389.7,212391.3,2024-04-04T09:28:52Z,212406.7,NULL,Wechsel,ugeuzaji,s,utambulisho,kujenga,wasiwasi,NA,sdf,NA,0,NA,NA,NA,NA,NA,NA,NA,NA,NA,NA,NA,NA,NA,NA,NA,NA,NA,NA,NA
27063,deep,flow.Sequence,3_0_0_0_2_0,NA,NA,skipped,NA,212391.40000001,NA,NA,212389.7,212391.5,2024-04-04T09:28:52Z,212406.7,NULL,Erneuerung,ukarabati,s,ushawishi,ukalifu,unyonyaji,NA,sdf,NA,0,NA,NA,NA,NA,NA,NA,NA,NA,NA,NA,NA,NA,NA,NA,NA,NA,NA,NA,NA
27063,Shallow Question,html.Page,3_0_0_0_2_1_0,NA,NA,form submission,10381.8,212391.7,212389.7,212406.7,222788.5,222788.8,2024-04-04T09:29:02Z,222800,NULL,Erneuerung,ukarabati,s,ushawishi,ukalifu,unyonyaji,ushawishi,NA,NA,0,NA,NA,NA,NA,NA,NA,NA,NA,NA,NA,NA,NA,NA,NA,NA,NA,NA,NA,NA
27063,"""Richtig""-Screen",canvas.Screen,3_0_0_0_2_1_1,NA,NA,skipped,NA,222791.8,NA,NA,222788.5,222791.90000001,2024-04-04T09:29:02Z,222800,NULL,Erneuerung,ukarabati,s,ushawishi,ukalifu,unyonyaji,NA,sdf,NA,0,NA,NA,NA,NA,NA,NA,NA,NA,NA,NA,NA,NA,NA,NA,NA,NA,NA,NA,NA
27063,"""Falsch""-Screen",canvas.Screen,3_0_0_0_2_1_2,NA,NA,timeout,4997.2,222792.7,222783.684,222800,227780.4,227781.5,2024-04-04T09:29:07Z,227797.2,NULL,Erneuerung,ukarabati,s,ushawishi,ukalifu,unyonyaji,NA,sdf,0,0,NA,NA,NA,NA,NA,NA,NA,NA,NA,NA,NA,NA,NA,NA,NA,NA,NA,NA,NA
27063,shallow,flow.Sequence,3_0_0_0_2_1,NA,NA,completion,15373.7,212391.7,212389.7,212406.7,227780.4,227782,2024-04-04T09:29:07Z,227797.2,NULL,Erneuerung,ukarabati,s,ushawishi,ukalifu,unyonyaji,NA,sdf,NA,0,NA,NA,NA,NA,NA,NA,NA,NA,NA,NA,NA,NA,NA,NA,NA,NA,NA,NA,NA
27063,task,flow.Sequence,3_0_0_0_2,NA,NA,completion,15373.7,212391.40000001,212389.7,212406.7,227780.4,227782.1,2024-04-04T09:29:07Z,227797.2,NULL,Erneuerung,ukarabati,s,ushawishi,ukalifu,unyonyaji,NA,sdf,NA,0,NA,NA,NA,NA,NA,NA,NA,NA,NA,NA,NA,NA,NA,NA,NA,NA,NA,NA,NA
27063,Deep Question,html.Page,3_0_0_0_3_0_0,NA,NA,form submission,6092.4000000015,227782.40000001,227780.4,227797.2,233889.6,233889.8,2024-04-04T09:29:13Z,233893.394,NULL,Abrechnung,uhasibu,d,NA,NA,NA,NA,NA,NA,0,NA,NA,NA,NA,NA,NA,NA,NA,NA,NA,NA,NA,NA,NA,NA,NA,NA,NA,NA
27063,"""Richtig""-Screen",canvas.Screen,3_0_0_0_3_0_1,NA,NA,skipped,NA,233893.2,NA,NA,233889.6,233893.40000001,2024-04-04T09:29:13Z,233893.394,NULL,Abrechnung,uhasibu,d,NA,NA,NA,NA,sdf,NA,0,NA,NA,NA,NA,NA,NA,NA,NA,NA,NA,NA,NA,NA,NA,NA,NA,NA,NA,NA
27063,"""Falsch""-Screen",canvas.Screen,3_0_0_0_3_0_2,NA,NA,timeout,4996.706,233894.2,233893.394,233893.394,238873.8,238874.90000001,2024-04-04T09:29:18Z,238890.1,NULL,Abrechnung,uhasibu,d,NA,NA,NA,NA,sdf,0,0,NA,NA,NA,NA,NA,NA,NA,NA,NA,NA,NA,NA,NA,NA,NA,NA,NA,NA,NA
27063,deep,flow.Sequence,3_0_0_0_3_0,NA,NA,completion,11076.6,227782.3,227780.4,227797.2,238873.8,238875.40000001,2024-04-04T09:29:18Z,238890.1,NULL,Abrechnung,uhasibu,d,NA,NA,NA,NA,sdf,NA,0,NA,NA,NA,NA,NA,NA,NA,NA,NA,NA,NA,NA,NA,NA,NA,NA,NA,NA,NA
27063,shallow,flow.Sequence,3_0_0_0_3_1,NA,NA,skipped,NA,238875.5,NA,NA,238873.8,238875.7,2024-04-04T09:29:18Z,238890.1,NULL,Abrechnung,uhasibu,d,NA,NA,NA,NA,sdf,NA,0,NA,NA,NA,NA,NA,NA,NA,NA,NA,NA,NA,NA,NA,NA,NA,NA,NA,NA,NA
27063,task,flow.Sequence,3_0_0_0_3,NA,NA,completion,11076.6,227782.3,227780.4,227797.2,238873.8,238875.90000001,2024-04-04T09:29:18Z,238890.1,NULL,Abrechnung,uhasibu,d,NA,NA,NA,NA,sdf,NA,0,NA,NA,NA,NA,NA,NA,NA,NA,NA,NA,NA,NA,NA,NA,NA,NA,NA,NA,NA
27063,Deep Question,html.Page,3_0_0_0_4_0_0,NA,NA,form submission,5838.800000006,238876.2,238873.8,238890.1,244728.90000001,244729.1,2024-04-04T09:29:24Z,244736.6,NULL,Kanzler,diwani,d,NA,NA,NA,NA,NA,NA,0,NA,NA,NA,NA,NA,NA,NA,NA,NA,NA,NA,NA,NA,NA,NA,NA,NA,NA,NA
27063,"""Richtig""-Screen",canvas.Screen,3_0_0_0_4_0_1,NA,NA,skipped,NA,244730.7,NA,NA,244728.90000001,244730.7,2024-04-04T09:29:24Z,244736.6,NULL,Kanzler,diwani,d,NA,NA,NA,NA,sdf,NA,0,NA,NA,NA,NA,NA,NA,NA,NA,NA,NA,NA,NA,NA,NA,NA,NA,NA,NA,NA
27063,"""Falsch""-Screen",canvas.Screen,3_0_0_0_4_0_2,NA,NA,timeout,4997,244731.1,244720.608,244736.6,249716.8,249717.90000001,2024-04-04T09:29:29Z,249733.6,NULL,Kanzler,diwani,d,NA,NA,NA,NA,sdf,0,0,NA,NA,NA,NA,NA,NA,NA,NA,NA,NA,NA,NA,NA,NA,NA,NA,NA,NA,NA
27063,deep,flow.Sequence,3_0_0_0_4_0,NA,NA,completion,10826.7,238876.2,238873.8,238890.1,249716.8,249718.1,2024-04-04T09:29:29Z,249733.6,NULL,Kanzler,diwani,d,NA,NA,NA,NA,sdf,NA,0,NA,NA,NA,NA,NA,NA,NA,NA,NA,NA,NA,NA,NA,NA,NA,NA,NA,NA,NA
27063,shallow,flow.Sequence,3_0_0_0_4_1,NA,NA,skipped,NA,249718.1,NA,NA,249716.8,249718.2,2024-04-04T09:29:29Z,249733.6,NULL,Kanzler,diwani,d,NA,NA,NA,NA,sdf,NA,0,NA,NA,NA,NA,NA,NA,NA,NA,NA,NA,NA,NA,NA,NA,NA,NA,NA,NA,NA
27063,task,flow.Sequence,3_0_0_0_4,NA,NA,completion,10826.7,238876.1,238873.8,238890.1,249716.8,249718.3,2024-04-04T09:29:29Z,249733.6,NULL,Kanzler,diwani,d,NA,NA,NA,NA,sdf,NA,0,NA,NA,NA,NA,NA,NA,NA,NA,NA,NA,NA,NA,NA,NA,NA,NA,NA,NA,NA
27063,Deep Question,html.Page,3_0_0_0_5_0_0,NA,NA,form submission,5675.7000000045,249718.3,249716.8,249733.6,255409.3,255409.6,2024-04-04T09:29:35Z,255414.046,NULL,Flexibilität,kubadilika,d,NA,NA,NA,NA,NA,NA,0,NA,NA,NA,NA,NA,NA,NA,NA,NA,NA,NA,NA,NA,NA,NA,NA,NA,NA,NA
27063,"""Richtig""-Screen",canvas.Screen,3_0_0_0_5_0_1,NA,NA,skipped,NA,255412.5,NA,NA,255409.3,255412.7,2024-04-04T09:29:35Z,255414.046,NULL,Flexibilität,kubadilika,d,NA,NA,NA,NA,sdf,NA,0,NA,NA,NA,NA,NA,NA,NA,NA,NA,NA,NA,NA,NA,NA,NA,NA,NA,NA,NA
27063,"""Falsch""-Screen",canvas.Screen,3_0_0_0_5_0_2,NA,NA,timeout,4996.454,255413.40000001,255414.046,255414.046,260393.9,260394.8,2024-04-04T09:29:40Z,260410.5,NULL,Flexibilität,kubadilika,d,NA,NA,NA,NA,sdf,0,0,NA,NA,NA,NA,NA,NA,NA,NA,NA,NA,NA,NA,NA,NA,NA,NA,NA,NA,NA
27063,deep,flow.Sequence,3_0_0_0_5_0,NA,NA,completion,10660.3,249718.3,249716.8,249733.6,260393.9,260395.1,2024-04-04T09:29:40Z,260410.5,NULL,Flexibilität,kubadilika,d,NA,NA,NA,NA,sdf,NA,0,NA,NA,NA,NA,NA,NA,NA,NA,NA,NA,NA,NA,NA,NA,NA,NA,NA,NA,NA
27063,shallow,flow.Sequence,3_0_0_0_5_1,NA,NA,skipped,NA,260395.3,NA,NA,260393.9,260395.40000001,2024-04-04T09:29:40Z,260410.5,NULL,Flexibilität,kubadilika,d,NA,NA,NA,NA,sdf,NA,0,NA,NA,NA,NA,NA,NA,NA,NA,NA,NA,NA,NA,NA,NA,NA,NA,NA,NA,NA
27063,task,flow.Sequence,3_0_0_0_5,NA,NA,completion,10660.3,249718.3,249716.8,249733.6,260393.9,260395.6,2024-04-04T09:29:40Z,260410.5,NULL,Flexibilität,kubadilika,d,NA,NA,NA,NA,sdf,NA,0,NA,NA,NA,NA,NA,NA,NA,NA,NA,NA,NA,NA,NA,NA,NA,NA,NA,NA,NA
27063,deep,flow.Sequence,3_0_0_0_6_0,NA,NA,skipped,NA,260395.7,NA,NA,260393.9,260395.8,2024-04-04T09:29:40Z,260410.5,NULL,Sänger,mwimbaji,s,msichana,shughuli,mshirika,NA,sdf,NA,0,NA,NA,NA,NA,NA,NA,NA,NA,NA,NA,NA,NA,NA,NA,NA,NA,NA,NA,NA
27063,Shallow Question,html.Page,3_0_0_0_6_1_0,NA,NA,form submission,12968.600000001,260396,260393.9,260410.5,273379.1,273379.2,2024-04-04T09:29:53Z,273385.6,NULL,Sänger,mwimbaji,s,msichana,shughuli,mshirika,shughuli,NA,NA,0,NA,NA,NA,NA,NA,NA,NA,NA,NA,NA,NA,NA,NA,NA,NA,NA,NA,NA,NA
27063,"""Richtig""-Screen",canvas.Screen,3_0_0_0_6_1_1,NA,NA,skipped,NA,273382.3,NA,NA,273379.1,273382.40000001,2024-04-04T09:29:53Z,273385.6,NULL,Sänger,mwimbaji,s,msichana,shughuli,mshirika,NA,sdf,NA,0,NA,NA,NA,NA,NA,NA,NA,NA,NA,NA,NA,NA,NA,NA,NA,NA,NA,NA,NA
27063,"""Falsch""-Screen",canvas.Screen,3_0_0_0_6_1_2,NA,NA,timeout,4997.5,273383.2,273369.69,273385.6,278366.4,278367.5,2024-04-04T09:29:58Z,278383.1,NULL,Sänger,mwimbaji,s,msichana,shughuli,mshirika,NA,sdf,0,0,NA,NA,NA,NA,NA,NA,NA,NA,NA,NA,NA,NA,NA,NA,NA,NA,NA,NA,NA
27063,shallow,flow.Sequence,3_0_0_0_6_1,NA,NA,completion,17955.9,260395.90000001,260393.9,260410.5,278366.4,278367.90000001,2024-04-04T09:29:58Z,278383.1,NULL,Sänger,mwimbaji,s,msichana,shughuli,mshirika,NA,sdf,NA,0,NA,NA,NA,NA,NA,NA,NA,NA,NA,NA,NA,NA,NA,NA,NA,NA,NA,NA,NA
27063,task,flow.Sequence,3_0_0_0_6,NA,NA,completion,17955.9,260395.7,260393.9,260410.5,278366.4,278368.1,2024-04-04T09:29:58Z,278383.1,NULL,Sänger,mwimbaji,s,msichana,shughuli,mshirika,NA,sdf,NA,0,NA,NA,NA,NA,NA,NA,NA,NA,NA,NA,NA,NA,NA,NA,NA,NA,NA,NA,NA
27063,deep,flow.Sequence,3_0_0_0_7_0,NA,NA,skipped,NA,278368.2,NA,NA,278366.4,278368.40000001,2024-04-04T09:29:58Z,278383.1,NULL,Angreifer,mshambulizi,s,kitengo,tasinia,usafirishaji,NA,sdf,NA,0,NA,NA,NA,NA,NA,NA,NA,NA,NA,NA,NA,NA,NA,NA,NA,NA,NA,NA,NA
27063,Shallow Question,html.Page,3_0_0_0_7_1_0,NA,NA,form submission,9789.5000000015,278368.6,278366.4,278383.1,288172.6,288172.8,2024-04-04T09:30:08Z,288177.222,NULL,Angreifer,mshambulizi,s,kitengo,tasinia,usafirishaji,kitengo,NA,NA,0,NA,NA,NA,NA,NA,NA,NA,NA,NA,NA,NA,NA,NA,NA,NA,NA,NA,NA,NA
27063,"""Richtig""-Screen",canvas.Screen,3_0_0_0_7_1_1,NA,NA,skipped,NA,288176.90000001,NA,NA,288172.6,288177.1,2024-04-04T09:30:08Z,288177.222,NULL,Angreifer,mshambulizi,s,kitengo,tasinia,usafirishaji,NA,sdf,NA,0,NA,NA,NA,NA,NA,NA,NA,NA,NA,NA,NA,NA,NA,NA,NA,NA,NA,NA,NA
27063,"""Falsch""-Screen",canvas.Screen,3_0_0_0_7_1_2,NA,NA,timeout,4996.278,288178.90000001,288177.222,288177.222,293156.9,293157.2,2024-04-04T09:30:13Z,293173.5,NULL,Angreifer,mshambulizi,s,kitengo,tasinia,usafirishaji,NA,sdf,0,0,NA,NA,NA,NA,NA,NA,NA,NA,NA,NA,NA,NA,NA,NA,NA,NA,NA,NA,NA
27063,shallow,flow.Sequence,3_0_0_0_7_1,NA,NA,completion,14773.8,278368.5,278366.4,278383.1,293156.9,293157.40000001,2024-04-04T09:30:13Z,293173.5,NULL,Angreifer,mshambulizi,s,kitengo,tasinia,usafirishaji,NA,sdf,NA,0,NA,NA,NA,NA,NA,NA,NA,NA,NA,NA,NA,NA,NA,NA,NA,NA,NA,NA,NA
27063,task,flow.Sequence,3_0_0_0_7,NA,NA,completion,14773.8,278368.2,278366.4,278383.1,293156.9,293157.40000001,2024-04-04T09:30:13Z,293173.5,NULL,Angreifer,mshambulizi,s,kitengo,tasinia,usafirishaji,NA,sdf,NA,0,NA,NA,NA,NA,NA,NA,NA,NA,NA,NA,NA,NA,NA,NA,NA,NA,NA,NA,NA
27063,block,flow.Loop,3_0_0_0,NA,NA,completion,160885.1,132271.40000001,132259.248,132271.8,293156.9,293157.5,2024-04-04T09:30:13Z,293173.5,NULL,NA,NA,NA,NA,NA,NA,NA,sdf,NA,0,NA,NA,NA,NA,NA,NA,NA,NA,NA,NA,NA,NA,NA,NA,NA,NA,NA,NA,NA
27063,weiter,canvas.Screen,3_0_0_1,sdf,keypress(Space),response,1259.3000000045,293157.5,293156.9,293173.5,294432.8,294433.90000001,2024-04-04T09:30:14Z,294440.116,NULL,NA,NA,NA,NA,NA,NA,NA,sdf,NA,0,NA,NA,NA,NA,NA,NA,NA,NA,NA,NA,NA,NA,NA,NA,NA,NA,NA,NA,NA
27063,check continue,flow.Sequence,3_0_0,NA,NA,completion,162161,132271.40000001,132259.248,132271.8,294432.8,294434.2,2024-04-04T09:30:14Z,294440.116,NULL,NA,NA,NA,NA,NA,NA,NA,sdf,NA,0,NA,NA,NA,NA,NA,NA,NA,NA,NA,NA,NA,NA,NA,NA,NA,NA,NA,NA,NA
27063,deep,flow.Sequence,3_0_1_0_0_0,NA,NA,skipped,NA,294453.2,NA,NA,294432.8,294453.3,2024-04-04T09:30:14Z,294440.116,NULL,Angreifer,mshambulizi,s,kitengo,tasinia,usafirishaji,NA,sdfdsf,NA,1,NA,NA,NA,NA,NA,NA,NA,NA,NA,NA,NA,NA,NA,NA,NA,NA,NA,NA,NA
27063,Shallow Question,html.Page,3_0_1_0_0_1_0,NA,NA,form submission,7886.9840000015,294453.3,294440.116,294440.116,302327.1,302327.40000001,2024-04-04T09:30:22Z,302334.6,NULL,Angreifer,mshambulizi,s,kitengo,tasinia,usafirishaji,mshambulizi,NA,NA,1,NA,NA,NA,NA,NA,NA,NA,NA,NA,NA,NA,NA,NA,NA,NA,NA,NA,NA,NA
27063,"""Richtig""-Screen",canvas.Screen,3_0_1_0_0_1_1,NA,NA,timeout,4997.4,302330.40000001,302320.448,302334.6,307315,307316.1,2024-04-04T09:30:27Z,307332,NULL,Angreifer,mshambulizi,s,kitengo,tasinia,usafirishaji,NA,sdfdsf,1,1,NA,NA,NA,NA,NA,NA,NA,NA,NA,NA,NA,NA,NA,NA,NA,NA,NA,NA,NA
27063,"""Falsch""-Screen",canvas.Screen,3_0_1_0_0_1_2,NA,NA,skipped,NA,307321.40000001,NA,NA,307315,307321.5,2024-04-04T09:30:27Z,307332,NULL,Angreifer,mshambulizi,s,kitengo,tasinia,usafirishaji,NA,sdfdsf,NA,1,NA,NA,NA,NA,NA,NA,NA,NA,NA,NA,NA,NA,NA,NA,NA,NA,NA,NA,NA
27063,shallow,flow.Sequence,3_0_1_0_0_1,NA,NA,completion,12874.884,294453.3,294440.116,294440.116,307315,307321.6,2024-04-04T09:30:27Z,307332,NULL,Angreifer,mshambulizi,s,kitengo,tasinia,usafirishaji,NA,sdfdsf,NA,1,NA,NA,NA,NA,NA,NA,NA,NA,NA,NA,NA,NA,NA,NA,NA,NA,NA,NA,NA
27063,task,flow.Sequence,3_0_1_0_0,NA,NA,completion,12874.884,294453.2,294440.116,294440.116,307315,307321.6,2024-04-04T09:30:27Z,307332,NULL,Angreifer,mshambulizi,s,kitengo,tasinia,usafirishaji,NA,sdfdsf,NA,1,NA,NA,NA,NA,NA,NA,NA,NA,NA,NA,NA,NA,NA,NA,NA,NA,NA,NA,NA
27063,deep,flow.Sequence,3_0_1_0_1_0,NA,NA,skipped,NA,307321.7,NA,NA,307315,307321.7,2024-04-04T09:30:27Z,307332,NULL,Wechsel,ugeuzaji,s,utambulisho,kujenga,wasiwasi,NA,sdfdsf,NA,1,NA,NA,NA,NA,NA,NA,NA,NA,NA,NA,NA,NA,NA,NA,NA,NA,NA,NA,NA
27063,Shallow Question,html.Page,3_0_1_0_1_1_0,NA,NA,form submission,4434.900000006,307321.7,307315,307332,311766.90000001,311767.1,2024-04-04T09:30:31Z,311778.9,NULL,Wechsel,ugeuzaji,s,utambulisho,kujenga,wasiwasi,ugeuzaji,NA,NA,1,NA,NA,NA,NA,NA,NA,NA,NA,NA,NA,NA,NA,NA,NA,NA,NA,NA,NA,NA
27063,"""Richtig""-Screen",canvas.Screen,3_0_1_0_1_1_1,NA,NA,timeout,4997.4,311769.90000001,311762.858,311778.9,316759.2,316760.2,2024-04-04T09:30:36Z,316776.3,NULL,Wechsel,ugeuzaji,s,utambulisho,kujenga,wasiwasi,NA,sdfdsf,1,1,NA,NA,NA,NA,NA,NA,NA,NA,NA,NA,NA,NA,NA,NA,NA,NA,NA,NA,NA
27063,"""Falsch""-Screen",canvas.Screen,3_0_1_0_1_1_2,NA,NA,skipped,NA,316765,NA,NA,316759.2,316765.2,2024-04-04T09:30:36Z,316776.3,NULL,Wechsel,ugeuzaji,s,utambulisho,kujenga,wasiwasi,NA,sdfdsf,NA,1,NA,NA,NA,NA,NA,NA,NA,NA,NA,NA,NA,NA,NA,NA,NA,NA,NA,NA,NA
27063,shallow,flow.Sequence,3_0_1_0_1_1,NA,NA,completion,9427.2,307321.7,307315,307332,316759.2,316765.3,2024-04-04T09:30:36Z,316776.3,NULL,Wechsel,ugeuzaji,s,utambulisho,kujenga,wasiwasi,NA,sdfdsf,NA,1,NA,NA,NA,NA,NA,NA,NA,NA,NA,NA,NA,NA,NA,NA,NA,NA,NA,NA,NA
27063,task,flow.Sequence,3_0_1_0_1,NA,NA,completion,9427.2,307321.7,307315,307332,316759.2,316765.3,2024-04-04T09:30:36Z,316776.3,NULL,Wechsel,ugeuzaji,s,utambulisho,kujenga,wasiwasi,NA,sdfdsf,NA,1,NA,NA,NA,NA,NA,NA,NA,NA,NA,NA,NA,NA,NA,NA,NA,NA,NA,NA,NA
27063,Deep Question,html.Page,3_0_1_0_2_0_0,NA,NA,form submission,28529.100000006,316765.40000001,316759.2,316776.3,345305.40000001,345305.6,2024-04-04T09:31:05Z,345308.4,NULL,Flexibilität,kubadilika,d,NA,NA,NA,NA,NA,NA,1,NA,NA,NA,NA,NA,NA,NA,NA,NA,NA,NA,NA,NA,NA,NA,NA,NA,NA,NA
27063,"""Richtig""-Screen",canvas.Screen,3_0_1_0_2_0_1,NA,NA,skipped,NA,345307.40000001,NA,NA,345305.40000001,345307.5,2024-04-04T09:31:05Z,345308.4,NULL,Flexibilität,kubadilika,d,NA,NA,NA,NA,sdfdsf,NA,1,NA,NA,NA,NA,NA,NA,NA,NA,NA,NA,NA,NA,NA,NA,NA,NA,NA,NA,NA
27063,"""Falsch""-Screen",canvas.Screen,3_0_1_0_2_0_2,NA,NA,timeout,4997.3,345308,345293.486,345308.4,350288.9,350289.90000001,2024-04-04T09:31:10Z,350305.7,NULL,Flexibilität,kubadilika,d,NA,NA,NA,NA,sdfdsf,0,1,NA,NA,NA,NA,NA,NA,NA,NA,NA,NA,NA,NA,NA,NA,NA,NA,NA,NA,NA
27063,deep,flow.Sequence,3_0_1_0_2_0,NA,NA,completion,33512.6,316765.40000001,316759.2,316776.3,350288.9,350290.2,2024-04-04T09:31:10Z,350305.7,NULL,Flexibilität,kubadilika,d,NA,NA,NA,NA,sdfdsf,NA,1,NA,NA,NA,NA,NA,NA,NA,NA,NA,NA,NA,NA,NA,NA,NA,NA,NA,NA,NA
27063,shallow,flow.Sequence,3_0_1_0_2_1,NA,NA,skipped,NA,350290.40000001,NA,NA,350288.9,350290.6,2024-04-04T09:31:10Z,350305.7,NULL,Flexibilität,kubadilika,d,NA,NA,NA,NA,sdfdsf,NA,1,NA,NA,NA,NA,NA,NA,NA,NA,NA,NA,NA,NA,NA,NA,NA,NA,NA,NA,NA
27063,task,flow.Sequence,3_0_1_0_2,NA,NA,completion,33512.6,316765.40000001,316759.2,316776.3,350288.9,350290.8,2024-04-04T09:31:10Z,350305.7,NULL,Flexibilität,kubadilika,d,NA,NA,NA,NA,sdfdsf,NA,1,NA,NA,NA,NA,NA,NA,NA,NA,NA,NA,NA,NA,NA,NA,NA,NA,NA,NA,NA
27063,Deep Question,html.Page,3_0_1_0_3_0_0,NA,NA,form submission,15705.900000001,350291.1,350288.9,350305.7,366011.6,366011.8,2024-04-04T09:31:26Z,366013.928,NULL,Abrechnung,uhasibu,d,NA,NA,NA,x,NA,NA,1,NA,NA,NA,NA,NA,NA,NA,NA,NA,NA,NA,NA,NA,NA,NA,NA,NA,NA,NA
27063,"""Richtig""-Screen",canvas.Screen,3_0_1_0_3_0_1,NA,NA,skipped,NA,366014.6,NA,NA,366011.6,366014.7,2024-04-04T09:31:26Z,366013.928,NULL,Abrechnung,uhasibu,d,NA,NA,NA,NA,sdfdsf,NA,1,NA,NA,NA,NA,NA,NA,NA,NA,NA,NA,NA,NA,NA,NA,NA,NA,NA,NA,NA
27063,"""Falsch""-Screen",canvas.Screen,3_0_1_0_3_0_2,NA,NA,timeout,4995.572,366015.1,366013.928,366013.928,370992.8,370993.7,2024-04-04T09:31:30Z,371009.5,NULL,Abrechnung,uhasibu,d,NA,NA,NA,NA,sdfdsf,0,1,NA,NA,NA,NA,NA,NA,NA,NA,NA,NA,NA,NA,NA,NA,NA,NA,NA,NA,NA
27063,deep,flow.Sequence,3_0_1_0_3_0,NA,NA,completion,20687.1,350291,350288.9,350305.7,370992.8,370994.1,2024-04-04T09:31:30Z,371009.5,NULL,Abrechnung,uhasibu,d,NA,NA,NA,NA,sdfdsf,NA,1,NA,NA,NA,NA,NA,NA,NA,NA,NA,NA,NA,NA,NA,NA,NA,NA,NA,NA,NA
27063,shallow,flow.Sequence,3_0_1_0_3_1,NA,NA,skipped,NA,370994.2,NA,NA,370992.8,370994.40000001,2024-04-04T09:31:30Z,371009.5,NULL,Abrechnung,uhasibu,d,NA,NA,NA,NA,sdfdsf,NA,1,NA,NA,NA,NA,NA,NA,NA,NA,NA,NA,NA,NA,NA,NA,NA,NA,NA,NA,NA
27063,task,flow.Sequence,3_0_1_0_3,NA,NA,completion,20687.1,350291,350288.9,350305.7,370992.8,370994.6,2024-04-04T09:31:30Z,371009.5,NULL,Abrechnung,uhasibu,d,NA,NA,NA,NA,sdfdsf,NA,1,NA,NA,NA,NA,NA,NA,NA,NA,NA,NA,NA,NA,NA,NA,NA,NA,NA,NA,NA
27063,Deep Question,html.Page,3_0_1_0_4_0_0,NA,NA,form submission,20487.700000003,370994.7,370992.8,371009.5,391497.2,391497.5,2024-04-04T09:31:51Z,391515,NULL,Kanzler,diwani,d,NA,NA,NA,x,NA,NA,1,NA,NA,NA,NA,NA,NA,NA,NA,NA,NA,NA,NA,NA,NA,NA,NA,NA,NA,NA
27063,"""Richtig""-Screen",canvas.Screen,3_0_1_0_4_0_1,NA,NA,skipped,NA,391500.6,NA,NA,391497.2,391500.7,2024-04-04T09:31:51Z,391515,NULL,Kanzler,diwani,d,NA,NA,NA,NA,sdfdsf,NA,1,NA,NA,NA,NA,NA,NA,NA,NA,NA,NA,NA,NA,NA,NA,NA,NA,NA,NA,NA
27063,"""Falsch""-Screen",canvas.Screen,3_0_1_0_4_0_2,NA,NA,timeout,4995.8,391501.6,391497.636,391515,396494.1,396495.1,2024-04-04T09:31:56Z,396510.8,NULL,Kanzler,diwani,d,NA,NA,NA,NA,sdfdsf,0,1,NA,NA,NA,NA,NA,NA,NA,NA,NA,NA,NA,NA,NA,NA,NA,NA,NA,NA,NA
27063,deep,flow.Sequence,3_0_1_0_4_0,NA,NA,completion,25484.6,370994.7,370992.8,371009.5,396494.1,396495.6,2024-04-04T09:31:56Z,396510.8,NULL,Kanzler,diwani,d,NA,NA,NA,NA,sdfdsf,NA,1,NA,NA,NA,NA,NA,NA,NA,NA,NA,NA,NA,NA,NA,NA,NA,NA,NA,NA,NA
27063,shallow,flow.Sequence,3_0_1_0_4_1,NA,NA,skipped,NA,396495.7,NA,NA,396494.1,396495.90000001,2024-04-04T09:31:56Z,396510.8,NULL,Kanzler,diwani,d,NA,NA,NA,NA,sdfdsf,NA,1,NA,NA,NA,NA,NA,NA,NA,NA,NA,NA,NA,NA,NA,NA,NA,NA,NA,NA,NA
27063,task,flow.Sequence,3_0_1_0_4,NA,NA,completion,25484.6,370994.7,370992.8,371009.5,396494.1,396496.1,2024-04-04T09:31:56Z,396510.8,NULL,Kanzler,diwani,d,NA,NA,NA,NA,sdfdsf,NA,1,NA,NA,NA,NA,NA,NA,NA,NA,NA,NA,NA,NA,NA,NA,NA,NA,NA,NA,NA
27063,deep,flow.Sequence,3_0_1_0_5_0,NA,NA,skipped,NA,396496.2,NA,NA,396494.1,396496.40000001,2024-04-04T09:31:56Z,396510.8,NULL,Erneuerung,ukarabati,s,ushawishi,ukalifu,unyonyaji,NA,sdfdsf,NA,1,NA,NA,NA,NA,NA,NA,NA,NA,NA,NA,NA,NA,NA,NA,NA,NA,NA,NA,NA
27063,Shallow Question,html.Page,3_0_1_0_5_1_0,NA,NA,form submission,6594.7,396496.40000001,396494.1,396510.8,403105.5,403105.6,2024-04-04T09:32:03Z,403123.5,NULL,Erneuerung,ukarabati,s,ushawishi,ukalifu,unyonyaji,ukarabati,NA,NA,1,NA,NA,NA,NA,NA,NA,NA,NA,NA,NA,NA,NA,NA,NA,NA,NA,NA,NA,NA
27063,"""Richtig""-Screen",canvas.Screen,3_0_1_0_5_1_1,NA,NA,timeout,4996.9,403107.5,403106.4,403123.5,408103.7,408104.5,2024-04-04T09:32:08Z,408120.4,NULL,Erneuerung,ukarabati,s,ushawishi,ukalifu,unyonyaji,NA,sdfdsf,1,1,NA,NA,NA,NA,NA,NA,NA,NA,NA,NA,NA,NA,NA,NA,NA,NA,NA,NA,NA
27063,"""Falsch""-Screen",canvas.Screen,3_0_1_0_5_1_2,NA,NA,skipped,NA,408109.3,NA,NA,408103.7,408109.6,2024-04-04T09:32:08Z,408120.4,NULL,Erneuerung,ukarabati,s,ushawishi,ukalifu,unyonyaji,NA,sdfdsf,NA,1,NA,NA,NA,NA,NA,NA,NA,NA,NA,NA,NA,NA,NA,NA,NA,NA,NA,NA,NA
27063,shallow,flow.Sequence,3_0_1_0_5_1,NA,NA,completion,11592.9,396496.40000001,396494.1,396510.8,408103.7,408109.7,2024-04-04T09:32:08Z,408120.4,NULL,Erneuerung,ukarabati,s,ushawishi,ukalifu,unyonyaji,NA,sdfdsf,NA,1,NA,NA,NA,NA,NA,NA,NA,NA,NA,NA,NA,NA,NA,NA,NA,NA,NA,NA,NA
27063,task,flow.Sequence,3_0_1_0_5,NA,NA,completion,11592.9,396496.1,396494.1,396510.8,408103.7,408109.7,2024-04-04T09:32:08Z,408120.4,NULL,Erneuerung,ukarabati,s,ushawishi,ukalifu,unyonyaji,NA,sdfdsf,NA,1,NA,NA,NA,NA,NA,NA,NA,NA,NA,NA,NA,NA,NA,NA,NA,NA,NA,NA,NA
27063,Deep Question,html.Page,3_0_1_0_6_0_0,NA,NA,form submission,12243.800000003,408109.8,408103.7,408120.4,420364.2,420364.40000001,2024-04-04T09:32:20Z,420379.6,NULL,Atmosphäre,angahewa,d,NA,NA,NA,x,NA,NA,1,NA,NA,NA,NA,NA,NA,NA,NA,NA,NA,NA,NA,NA,NA,NA,NA,NA,NA,NA
27063,"""Richtig""-Screen",canvas.Screen,3_0_1_0_6_0_1,NA,NA,skipped,NA,420366.1,NA,NA,420364.2,420366.2,2024-04-04T09:32:20Z,420379.6,NULL,Atmosphäre,angahewa,d,NA,NA,NA,NA,sdfdsf,NA,1,NA,NA,NA,NA,NA,NA,NA,NA,NA,NA,NA,NA,NA,NA,NA,NA,NA,NA,NA
27063,"""Falsch""-Screen",canvas.Screen,3_0_1_0_6_0_2,NA,NA,timeout,4997.2,420366.6,420362.962,420379.6,425359.7,425360.6,2024-04-04T09:32:25Z,425376.8,NULL,Atmosphäre,angahewa,d,NA,NA,NA,NA,sdfdsf,0,1,NA,NA,NA,NA,NA,NA,NA,NA,NA,NA,NA,NA,NA,NA,NA,NA,NA,NA,NA
27063,deep,flow.Sequence,3_0_1_0_6_0,NA,NA,completion,17239.3,408109.7,408103.7,408120.4,425359.7,425360.90000001,2024-04-04T09:32:25Z,425376.8,NULL,Atmosphäre,angahewa,d,NA,NA,NA,NA,sdfdsf,NA,1,NA,NA,NA,NA,NA,NA,NA,NA,NA,NA,NA,NA,NA,NA,NA,NA,NA,NA,NA
27063,shallow,flow.Sequence,3_0_1_0_6_1,NA,NA,skipped,NA,425361,NA,NA,425359.7,425361.2,2024-04-04T09:32:25Z,425376.8,NULL,Atmosphäre,angahewa,d,NA,NA,NA,NA,sdfdsf,NA,1,NA,NA,NA,NA,NA,NA,NA,NA,NA,NA,NA,NA,NA,NA,NA,NA,NA,NA,NA
27063,task,flow.Sequence,3_0_1_0_6,NA,NA,completion,17239.3,408109.7,408103.7,408120.4,425359.7,425361.3,2024-04-04T09:32:25Z,425376.8,NULL,Atmosphäre,angahewa,d,NA,NA,NA,NA,sdfdsf,NA,1,NA,NA,NA,NA,NA,NA,NA,NA,NA,NA,NA,NA,NA,NA,NA,NA,NA,NA,NA
27063,deep,flow.Sequence,3_0_1_0_7_0,NA,NA,skipped,NA,425361.5,NA,NA,425359.7,425361.6,2024-04-04T09:32:25Z,425376.8,NULL,Sänger,mwimbaji,s,msichana,shughuli,mshirika,NA,sdfdsf,NA,1,NA,NA,NA,NA,NA,NA,NA,NA,NA,NA,NA,NA,NA,NA,NA,NA,NA,NA,NA
27063,Shallow Question,html.Page,3_0_1_0_7_1_0,NA,NA,form submission,18867.000000004,425361.7,425359.7,425376.8,444243.8,444243.90000001,2024-04-04T09:32:44Z,444247.9,NULL,Sänger,mwimbaji,s,msichana,shughuli,mshirika,mwimbaji,NA,NA,1,NA,NA,NA,NA,NA,NA,NA,NA,NA,NA,NA,NA,NA,NA,NA,NA,NA,NA,NA
27063,"""Richtig""-Screen",canvas.Screen,3_0_1_0_7_1_1,NA,NA,timeout,4997.5,444245.3,444232.014,444247.9,449228.4,449229.3,2024-04-04T09:32:49Z,449245.4,NULL,Sänger,mwimbaji,s,msichana,shughuli,mshirika,NA,sdfdsf,1,1,NA,NA,NA,NA,NA,NA,NA,NA,NA,NA,NA,NA,NA,NA,NA,NA,NA,NA,NA
27063,"""Falsch""-Screen",canvas.Screen,3_0_1_0_7_1_2,NA,NA,skipped,NA,449234.5,NA,NA,449228.4,449234.6,2024-04-04T09:32:49Z,449245.4,NULL,Sänger,mwimbaji,s,msichana,shughuli,mshirika,NA,sdfdsf,NA,1,NA,NA,NA,NA,NA,NA,NA,NA,NA,NA,NA,NA,NA,NA,NA,NA,NA,NA,NA
27063,shallow,flow.Sequence,3_0_1_0_7_1,NA,NA,completion,23851.6,425361.7,425359.7,425376.8,449228.4,449234.8,2024-04-04T09:32:49Z,449245.4,NULL,Sänger,mwimbaji,s,msichana,shughuli,mshirika,NA,sdfdsf,NA,1,NA,NA,NA,NA,NA,NA,NA,NA,NA,NA,NA,NA,NA,NA,NA,NA,NA,NA,NA
27063,task,flow.Sequence,3_0_1_0_7,NA,NA,completion,23851.6,425361.5,425359.7,425376.8,449228.4,449234.8,2024-04-04T09:32:49Z,449245.4,NULL,Sänger,mwimbaji,s,msichana,shughuli,mshirika,NA,sdfdsf,NA,1,NA,NA,NA,NA,NA,NA,NA,NA,NA,NA,NA,NA,NA,NA,NA,NA,NA,NA,NA
27063,block,flow.Loop,3_0_1_0,NA,NA,completion,154788.284,294453.2,294440.116,294440.116,449228.4,449234.90000001,2024-04-04T09:32:49Z,449245.4,NULL,NA,NA,NA,NA,NA,NA,NA,sdfdsf,NA,1,NA,NA,NA,NA,NA,NA,NA,NA,NA,NA,NA,NA,NA,NA,NA,NA,NA,NA,NA
27063,weiter,canvas.Screen,3_0_1_1,sdf,keypress(Space),response,1245.7000000015,449234.90000001,449228.4,449245.4,450491.1,450492.1,2024-04-04T09:32:50Z,450511.83,NULL,NA,NA,NA,NA,NA,NA,NA,sdfdsf,NA,1,NA,NA,NA,NA,NA,NA,NA,NA,NA,NA,NA,NA,NA,NA,NA,NA,NA,NA,NA
27063,check continue,flow.Sequence,3_0_1,NA,NA,completion,156050.984,294453.2,294440.116,294440.116,450491.1,450492.40000001,2024-04-04T09:32:50Z,450511.83,NULL,NA,NA,NA,NA,NA,NA,NA,sdfdsf,NA,1,NA,NA,NA,NA,NA,NA,NA,NA,NA,NA,NA,NA,NA,NA,NA,NA,NA,NA,NA
27063,deep,flow.Sequence,3_0_2_0_0_0,NA,NA,skipped,NA,450515.40000001,NA,NA,450491.1,450515.5,2024-04-04T09:32:50Z,450511.83,NULL,Angreifer,mshambulizi,s,kitengo,tasinia,usafirishaji,NA,sdf,NA,2,NA,NA,NA,NA,NA,NA,NA,NA,NA,NA,NA,NA,NA,NA,NA,NA,NA,NA,NA
27063,Shallow Question,html.Page,3_0_2_0_0_1_0,NA,NA,form submission,3656.67,450515.6,450511.83,450511.83,454168.5,454168.7,2024-04-04T09:32:54Z,454175.3,NULL,Angreifer,mshambulizi,s,kitengo,tasinia,usafirishaji,mshambulizi,NA,NA,2,NA,NA,NA,NA,NA,NA,NA,NA,NA,NA,NA,NA,NA,NA,NA,NA,NA,NA,NA
27063,"""Richtig""-Screen",canvas.Screen,3_0_2_0_0_1_1,NA,NA,timeout,4996.9,454169.7,454159.2,454175.3,459155.5,459155.8,2024-04-04T09:32:59Z,459172.2,NULL,Angreifer,mshambulizi,s,kitengo,tasinia,usafirishaji,NA,sdf,1,2,NA,NA,NA,NA,NA,NA,NA,NA,NA,NA,NA,NA,NA,NA,NA,NA,NA,NA,NA
27063,"""Falsch""-Screen",canvas.Screen,3_0_2_0_0_1_2,NA,NA,skipped,NA,459157.1,NA,NA,459155.5,459157.2,2024-04-04T09:32:59Z,459172.2,NULL,Angreifer,mshambulizi,s,kitengo,tasinia,usafirishaji,NA,sdf,NA,2,NA,NA,NA,NA,NA,NA,NA,NA,NA,NA,NA,NA,NA,NA,NA,NA,NA,NA,NA
27063,shallow,flow.Sequence,3_0_2_0_0_1,NA,NA,completion,8643.67,450515.6,450511.83,450511.83,459155.5,459157.3,2024-04-04T09:32:59Z,459172.2,NULL,Angreifer,mshambulizi,s,kitengo,tasinia,usafirishaji,NA,sdf,NA,2,NA,NA,NA,NA,NA,NA,NA,NA,NA,NA,NA,NA,NA,NA,NA,NA,NA,NA,NA
27063,task,flow.Sequence,3_0_2_0_0,NA,NA,completion,8643.67,450515.40000001,450511.83,450511.83,459155.5,459157.3,2024-04-04T09:32:59Z,459172.2,NULL,Angreifer,mshambulizi,s,kitengo,tasinia,usafirishaji,NA,sdf,NA,2,NA,NA,NA,NA,NA,NA,NA,NA,NA,NA,NA,NA,NA,NA,NA,NA,NA,NA,NA
27063,deep,flow.Sequence,3_0_2_0_1_0,NA,NA,skipped,NA,459157.3,NA,NA,459155.5,459157.3,2024-04-04T09:32:59Z,459172.2,NULL,Sänger,mwimbaji,s,msichana,shughuli,mshirika,NA,sdf,NA,2,NA,NA,NA,NA,NA,NA,NA,NA,NA,NA,NA,NA,NA,NA,NA,NA,NA,NA,NA
27063,Shallow Question,html.Page,3_0_2_0_1_1_0,NA,NA,form submission,4470.1000000045,459157.40000001,459155.5,459172.2,463642.3,463642.40000001,2024-04-04T09:33:03Z,463652.8,NULL,Sänger,mwimbaji,s,msichana,shughuli,mshirika,mwimbaji,NA,NA,2,NA,NA,NA,NA,NA,NA,NA,NA,NA,NA,NA,NA,NA,NA,NA,NA,NA,NA,NA
27063,"""Richtig""-Screen",canvas.Screen,3_0_2_0_1_1_1,NA,NA,timeout,4996.9,463644.3,463636.35,463652.8,468633,468633.40000001,2024-04-04T09:33:08Z,468649.7,NULL,Sänger,mwimbaji,s,msichana,shughuli,mshirika,NA,sdf,1,2,NA,NA,NA,NA,NA,NA,NA,NA,NA,NA,NA,NA,NA,NA,NA,NA,NA,NA,NA
27063,"""Falsch""-Screen",canvas.Screen,3_0_2_0_1_1_2,NA,NA,skipped,NA,468634.7,NA,NA,468633,468634.8,2024-04-04T09:33:08Z,468649.7,NULL,Sänger,mwimbaji,s,msichana,shughuli,mshirika,NA,sdf,NA,2,NA,NA,NA,NA,NA,NA,NA,NA,NA,NA,NA,NA,NA,NA,NA,NA,NA,NA,NA
27063,shallow,flow.Sequence,3_0_2_0_1_1,NA,NA,completion,9460.8,459157.40000001,459155.5,459172.2,468633,468634.90000001,2024-04-04T09:33:08Z,468649.7,NULL,Sänger,mwimbaji,s,msichana,shughuli,mshirika,NA,sdf,NA,2,NA,NA,NA,NA,NA,NA,NA,NA,NA,NA,NA,NA,NA,NA,NA,NA,NA,NA,NA
27063,task,flow.Sequence,3_0_2_0_1,NA,NA,completion,9460.8,459157.3,459155.5,459172.2,468633,468634.90000001,2024-04-04T09:33:08Z,468649.7,NULL,Sänger,mwimbaji,s,msichana,shughuli,mshirika,NA,sdf,NA,2,NA,NA,NA,NA,NA,NA,NA,NA,NA,NA,NA,NA,NA,NA,NA,NA,NA,NA,NA
27063,deep,flow.Sequence,3_0_2_0_2_0,NA,NA,skipped,NA,468635,NA,NA,468633,468635,2024-04-04T09:33:08Z,468649.7,NULL,Erneuerung,ukarabati,s,ushawishi,ukalifu,unyonyaji,NA,sdf,NA,2,NA,NA,NA,NA,NA,NA,NA,NA,NA,NA,NA,NA,NA,NA,NA,NA,NA,NA,NA
27063,Shallow Question,html.Page,3_0_2_0_2_1_0,NA,NA,form submission,3911.4000000015,468635.1,468633,468649.7,472561.1,472561.3,2024-04-04T09:33:12Z,472564.558,NULL,Erneuerung,ukarabati,s,ushawishi,ukalifu,unyonyaji,ukarabati,NA,NA,2,NA,NA,NA,NA,NA,NA,NA,NA,NA,NA,NA,NA,NA,NA,NA,NA,NA,NA,NA
27063,"""Richtig""-Screen",canvas.Screen,3_0_2_0_2_1_1,NA,NA,timeout,4996.442,472564.1,472564.558,472564.558,477544.3,477544.6,2024-04-04T09:33:17Z,477561,NULL,Erneuerung,ukarabati,s,ushawishi,ukalifu,unyonyaji,NA,sdf,1,2,NA,NA,NA,NA,NA,NA,NA,NA,NA,NA,NA,NA,NA,NA,NA,NA,NA,NA,NA
27063,"""Falsch""-Screen",canvas.Screen,3_0_2_0_2_1_2,NA,NA,skipped,NA,477546,NA,NA,477544.3,477546.2,2024-04-04T09:33:17Z,477561,NULL,Erneuerung,ukarabati,s,ushawishi,ukalifu,unyonyaji,NA,sdf,NA,2,NA,NA,NA,NA,NA,NA,NA,NA,NA,NA,NA,NA,NA,NA,NA,NA,NA,NA,NA
27063,shallow,flow.Sequence,3_0_2_0_2_1,NA,NA,completion,8894.6,468635,468633,468649.7,477544.3,477546.2,2024-04-04T09:33:17Z,477561,NULL,Erneuerung,ukarabati,s,ushawishi,ukalifu,unyonyaji,NA,sdf,NA,2,NA,NA,NA,NA,NA,NA,NA,NA,NA,NA,NA,NA,NA,NA,NA,NA,NA,NA,NA
27063,task,flow.Sequence,3_0_2_0_2,NA,NA,completion,8894.6,468635,468633,468649.7,477544.3,477546.3,2024-04-04T09:33:17Z,477561,NULL,Erneuerung,ukarabati,s,ushawishi,ukalifu,unyonyaji,NA,sdf,NA,2,NA,NA,NA,NA,NA,NA,NA,NA,NA,NA,NA,NA,NA,NA,NA,NA,NA,NA,NA
27063,Deep Question,html.Page,3_0_2_0_3_0_0,NA,NA,form submission,16174,477546.40000001,477544.3,477561,493735,493735.3,2024-04-04T09:33:33Z,493734.932,NULL,Abrechnung,uhasibu,d,NA,NA,NA,uhasinba,NA,NA,2,NA,NA,NA,NA,NA,NA,NA,NA,NA,NA,NA,NA,NA,NA,NA,NA,NA,NA,NA
27063,"""Richtig""-Screen",canvas.Screen,3_0_2_0_3_0_1,NA,NA,skipped,NA,493738.5,NA,NA,493735,493738.7,2024-04-04T09:33:33Z,493734.932,NULL,Abrechnung,uhasibu,d,NA,NA,NA,NA,sdf,NA,2,NA,NA,NA,NA,NA,NA,NA,NA,NA,NA,NA,NA,NA,NA,NA,NA,NA,NA,NA
27063,"""Falsch""-Screen",canvas.Screen,3_0_2_0_3_0_2,NA,NA,timeout,4996.9680000001,493739.40000001,493734.932,493734.932,498715.1,498716,2024-04-04T09:33:38Z,498731.9,NULL,Abrechnung,uhasibu,d,NA,NA,NA,NA,sdf,0,2,NA,NA,NA,NA,NA,NA,NA,NA,NA,NA,NA,NA,NA,NA,NA,NA,NA,NA,NA
27063,deep,flow.Sequence,3_0_2_0_3_0,NA,NA,completion,21154.1,477546.40000001,477544.3,477561,498715.1,498716.40000001,2024-04-04T09:33:38Z,498731.9,NULL,Abrechnung,uhasibu,d,NA,NA,NA,NA,sdf,NA,2,NA,NA,NA,NA,NA,NA,NA,NA,NA,NA,NA,NA,NA,NA,NA,NA,NA,NA,NA
27063,shallow,flow.Sequence,3_0_2_0_3_1,NA,NA,skipped,NA,498716.5,NA,NA,498715.1,498716.7,2024-04-04T09:33:38Z,498731.9,NULL,Abrechnung,uhasibu,d,NA,NA,NA,NA,sdf,NA,2,NA,NA,NA,NA,NA,NA,NA,NA,NA,NA,NA,NA,NA,NA,NA,NA,NA,NA,NA
27063,task,flow.Sequence,3_0_2_0_3,NA,NA,completion,21154.1,477546.40000001,477544.3,477561,498715.1,498716.8,2024-04-04T09:33:38Z,498731.9,NULL,Abrechnung,uhasibu,d,NA,NA,NA,NA,sdf,NA,2,NA,NA,NA,NA,NA,NA,NA,NA,NA,NA,NA,NA,NA,NA,NA,NA,NA,NA,NA
27063,deep,flow.Sequence,3_0_2_0_4_0,NA,NA,skipped,NA,498717.1,NA,NA,498715.1,498717.1,2024-04-04T09:33:38Z,498731.9,NULL,Wechsel,ugeuzaji,s,utambulisho,kujenga,wasiwasi,NA,sdf,NA,2,NA,NA,NA,NA,NA,NA,NA,NA,NA,NA,NA,NA,NA,NA,NA,NA,NA,NA,NA
27063,Shallow Question,html.Page,3_0_2_0_4_1_0,NA,NA,form submission,5837.4000000044,498717.3,498715.1,498731.9,504569.3,504569.5,2024-04-04T09:33:44Z,504578,NULL,Wechsel,ugeuzaji,s,utambulisho,kujenga,wasiwasi,ugeuzaji,NA,NA,2,NA,NA,NA,NA,NA,NA,NA,NA,NA,NA,NA,NA,NA,NA,NA,NA,NA,NA,NA
27063,"""Richtig""-Screen",canvas.Screen,3_0_2_0_4_1_1,NA,NA,timeout,4996.7,504572.5,504561.822,504578,509558.4,509559.2,2024-04-04T09:33:49Z,509574.7,NULL,Wechsel,ugeuzaji,s,utambulisho,kujenga,wasiwasi,NA,sdf,1,2,NA,NA,NA,NA,NA,NA,NA,NA,NA,NA,NA,NA,NA,NA,NA,NA,NA,NA,NA
27063,"""Falsch""-Screen",canvas.Screen,3_0_2_0_4_1_2,NA,NA,skipped,NA,509564.2,NA,NA,509558.4,509564.3,2024-04-04T09:33:49Z,509574.7,NULL,Wechsel,ugeuzaji,s,utambulisho,kujenga,wasiwasi,NA,sdf,NA,2,NA,NA,NA,NA,NA,NA,NA,NA,NA,NA,NA,NA,NA,NA,NA,NA,NA,NA,NA
27063,shallow,flow.Sequence,3_0_2_0_4_1,NA,NA,completion,10826.5,498717.2,498715.1,498731.9,509558.4,509564.40000001,2024-04-04T09:33:49Z,509574.7,NULL,Wechsel,ugeuzaji,s,utambulisho,kujenga,wasiwasi,NA,sdf,NA,2,NA,NA,NA,NA,NA,NA,NA,NA,NA,NA,NA,NA,NA,NA,NA,NA,NA,NA,NA
27063,task,flow.Sequence,3_0_2_0_4,NA,NA,completion,10826.5,498717,498715.1,498731.9,509558.4,509564.5,2024-04-04T09:33:49Z,509574.7,NULL,Wechsel,ugeuzaji,s,utambulisho,kujenga,wasiwasi,NA,sdf,NA,2,NA,NA,NA,NA,NA,NA,NA,NA,NA,NA,NA,NA,NA,NA,NA,NA,NA,NA,NA
27063,Deep Question,html.Page,3_0_2_0_5_0_0,NA,NA,form submission,10628.900000001,509564.6,509558.4,509574.7,520203.6,520203.7,2024-04-04T09:34:00Z,520218.2,NULL,Flexibilität,kubadilika,d,NA,NA,NA,kubadiliki,NA,NA,2,NA,NA,NA,NA,NA,NA,NA,NA,NA,NA,NA,NA,NA,NA,NA,NA,NA,NA,NA
27063,"""Richtig""-Screen",canvas.Screen,3_0_2_0_5_0_1,NA,NA,skipped,NA,520205.5,NA,NA,520203.6,520205.7,2024-04-04T09:34:00Z,520218.2,NULL,Flexibilität,kubadilika,d,NA,NA,NA,NA,sdf,NA,2,NA,NA,NA,NA,NA,NA,NA,NA,NA,NA,NA,NA,NA,NA,NA,NA,NA,NA,NA
27063,"""Falsch""-Screen",canvas.Screen,3_0_2_0_5_0_2,NA,NA,timeout,4997.3,520206.2,520201.792,520218.2,525198.6,525199.40000001,2024-04-04T09:34:05Z,525215.5,NULL,Flexibilität,kubadilika,d,NA,NA,NA,NA,sdf,0,2,NA,NA,NA,NA,NA,NA,NA,NA,NA,NA,NA,NA,NA,NA,NA,NA,NA,NA,NA
27063,deep,flow.Sequence,3_0_2_0_5_0,NA,NA,completion,15623.9,509564.6,509558.4,509574.7,525198.6,525199.8,2024-04-04T09:34:05Z,525215.5,NULL,Flexibilität,kubadilika,d,NA,NA,NA,NA,sdf,NA,2,NA,NA,NA,NA,NA,NA,NA,NA,NA,NA,NA,NA,NA,NA,NA,NA,NA,NA,NA
27063,shallow,flow.Sequence,3_0_2_0_5_1,NA,NA,skipped,NA,525199.90000001,NA,NA,525198.6,525200,2024-04-04T09:34:05Z,525215.5,NULL,Flexibilität,kubadilika,d,NA,NA,NA,NA,sdf,NA,2,NA,NA,NA,NA,NA,NA,NA,NA,NA,NA,NA,NA,NA,NA,NA,NA,NA,NA,NA
27063,task,flow.Sequence,3_0_2_0_5,NA,NA,completion,15623.9,509564.5,509558.4,509574.7,525198.6,525200.2,2024-04-04T09:34:05Z,525215.5,NULL,Flexibilität,kubadilika,d,NA,NA,NA,NA,sdf,NA,2,NA,NA,NA,NA,NA,NA,NA,NA,NA,NA,NA,NA,NA,NA,NA,NA,NA,NA,NA
27063,Deep Question,html.Page,3_0_2_0_6_0_0,NA,NA,form submission,8459.900000006,525200.40000001,525198.6,525215.5,533675.40000001,533675.6,2024-04-04T09:34:13Z,533677.13,NULL,Atmosphäre,angahewa,d,NA,NA,NA,anghahewa,NA,NA,2,NA,NA,NA,NA,NA,NA,NA,NA,NA,NA,NA,NA,NA,NA,NA,NA,NA,NA,NA
27063,"""Richtig""-Screen",canvas.Screen,3_0_2_0_6_0_1,NA,NA,skipped,NA,533677.6,NA,NA,533675.40000001,533677.7,2024-04-04T09:34:13Z,533677.13,NULL,Atmosphäre,angahewa,d,NA,NA,NA,NA,sdf,NA,2,NA,NA,NA,NA,NA,NA,NA,NA,NA,NA,NA,NA,NA,NA,NA,NA,NA,NA,NA
27063,"""Falsch""-Screen",canvas.Screen,3_0_2_0_6_0_2,NA,NA,timeout,4996.87,533678.1,533677.13,533677.13,538657.5,538658.40000001,2024-04-04T09:34:18Z,538674,NULL,Atmosphäre,angahewa,d,NA,NA,NA,NA,sdf,0,2,NA,NA,NA,NA,NA,NA,NA,NA,NA,NA,NA,NA,NA,NA,NA,NA,NA,NA,NA
27063,deep,flow.Sequence,3_0_2_0_6_0,NA,NA,completion,13442,525200.40000001,525198.6,525215.5,538657.5,538658.8,2024-04-04T09:34:18Z,538674,NULL,Atmosphäre,angahewa,d,NA,NA,NA,NA,sdf,NA,2,NA,NA,NA,NA,NA,NA,NA,NA,NA,NA,NA,NA,NA,NA,NA,NA,NA,NA,NA
27063,shallow,flow.Sequence,3_0_2_0_6_1,NA,NA,skipped,NA,538659,NA,NA,538657.5,538659.1,2024-04-04T09:34:18Z,538674,NULL,Atmosphäre,angahewa,d,NA,NA,NA,NA,sdf,NA,2,NA,NA,NA,NA,NA,NA,NA,NA,NA,NA,NA,NA,NA,NA,NA,NA,NA,NA,NA
27063,task,flow.Sequence,3_0_2_0_6,NA,NA,completion,13442,525200.3,525198.6,525215.5,538657.5,538659.3,2024-04-04T09:34:18Z,538674,NULL,Atmosphäre,angahewa,d,NA,NA,NA,NA,sdf,NA,2,NA,NA,NA,NA,NA,NA,NA,NA,NA,NA,NA,NA,NA,NA,NA,NA,NA,NA,NA
27063,Deep Question,html.Page,3_0_2_0_7_0_0,NA,NA,form submission,9251.700000003,538659.5,538657.5,538674,547925.7,547926,2024-04-04T09:34:27Z,547934.9,NULL,Kanzler,diwani,d,NA,NA,NA,diwani,NA,NA,2,NA,NA,NA,NA,NA,NA,NA,NA,NA,NA,NA,NA,NA,NA,NA,NA,NA,NA,NA
27063,"""Richtig""-Screen",canvas.Screen,3_0_2_0_7_0_1,NA,NA,timeout,4996.7,547929,547918.6,547934.9,552914.9,552915.40000001,2024-04-04T09:34:32Z,552931.6,NULL,Kanzler,diwani,d,NA,NA,NA,NA,sdf,1,2,NA,NA,NA,NA,NA,NA,NA,NA,NA,NA,NA,NA,NA,NA,NA,NA,NA,NA,NA
27063,"""Falsch""-Screen",canvas.Screen,3_0_2_0_7_0_2,NA,NA,skipped,NA,552916.8,NA,NA,552914.9,552916.90000001,2024-04-04T09:34:32Z,552931.6,NULL,Kanzler,diwani,d,NA,NA,NA,NA,sdf,NA,2,NA,NA,NA,NA,NA,NA,NA,NA,NA,NA,NA,NA,NA,NA,NA,NA,NA,NA,NA
27063,deep,flow.Sequence,3_0_2_0_7_0,NA,NA,completion,14240.9,538659.5,538657.5,538674,552914.9,552917,2024-04-04T09:34:32Z,552931.6,NULL,Kanzler,diwani,d,NA,NA,NA,NA,sdf,NA,2,NA,NA,NA,NA,NA,NA,NA,NA,NA,NA,NA,NA,NA,NA,NA,NA,NA,NA,NA
27063,shallow,flow.Sequence,3_0_2_0_7_1,NA,NA,skipped,NA,552917,NA,NA,552914.9,552917,2024-04-04T09:34:32Z,552931.6,NULL,Kanzler,diwani,d,NA,NA,NA,NA,sdf,NA,2,NA,NA,NA,NA,NA,NA,NA,NA,NA,NA,NA,NA,NA,NA,NA,NA,NA,NA,NA
27063,task,flow.Sequence,3_0_2_0_7,NA,NA,completion,14240.9,538659.40000001,538657.5,538674,552914.9,552917.1,2024-04-04T09:34:32Z,552931.6,NULL,Kanzler,diwani,d,NA,NA,NA,NA,sdf,NA,2,NA,NA,NA,NA,NA,NA,NA,NA,NA,NA,NA,NA,NA,NA,NA,NA,NA,NA,NA
27063,block,flow.Loop,3_0_2_0,NA,NA,completion,102403.07,450515.40000001,450511.83,450511.83,552914.9,552917.1,2024-04-04T09:34:32Z,552931.6,NULL,NA,NA,NA,NA,NA,NA,NA,sdf,NA,2,NA,NA,NA,NA,NA,NA,NA,NA,NA,NA,NA,NA,NA,NA,NA,NA,NA,NA,NA
27063,weiter,canvas.Screen,3_0_2_1,sdf,keypress(Space),response,1150.2000000045,552917.1,552914.9,552931.6,554081.8,554082.3,2024-04-04T09:34:34Z,554097.5,NULL,NA,NA,NA,NA,NA,NA,NA,sdf,NA,2,NA,NA,NA,NA,NA,NA,NA,NA,NA,NA,NA,NA,NA,NA,NA,NA,NA,NA,NA
27063,check continue,flow.Sequence,3_0_2,NA,NA,completion,103569.97,450515.40000001,450511.83,450511.83,554081.8,554082.3,2024-04-04T09:34:34Z,554097.5,NULL,NA,NA,NA,NA,NA,NA,NA,sdf,NA,2,NA,NA,NA,NA,NA,NA,NA,NA,NA,NA,NA,NA,NA,NA,NA,NA,NA,NA,NA
27063,deep,flow.Sequence,3_0_3_0_0_0,NA,NA,skipped,NA,554097.1,NA,NA,554081.8,554097.1,2024-04-04T09:34:34Z,554097.5,NULL,Wechsel,ugeuzaji,s,utambulisho,kujenga,wasiwasi,NA,qt,NA,3,NA,NA,NA,NA,NA,NA,NA,NA,NA,NA,NA,NA,NA,NA,NA,NA,NA,NA,NA
27063,Shallow Question,html.Page,3_0_3_0_0_1_0,NA,NA,form submission,6223,554097.2,554081.558,554097.5,560320.5,560320.7,2024-04-04T09:34:40Z,560327.1,NULL,Wechsel,ugeuzaji,s,utambulisho,kujenga,wasiwasi,ugeuzaji,NA,NA,3,NA,NA,NA,NA,NA,NA,NA,NA,NA,NA,NA,NA,NA,NA,NA,NA,NA,NA,NA
27063,"""Richtig""-Screen",canvas.Screen,3_0_3_0_0_1_1,NA,NA,timeout,4997.5,560322.8,560311.438,560327.1,565307.5,565308.40000001,2024-04-04T09:34:45Z,565324.6,NULL,Wechsel,ugeuzaji,s,utambulisho,kujenga,wasiwasi,NA,qt,1,3,NA,NA,NA,NA,NA,NA,NA,NA,NA,NA,NA,NA,NA,NA,NA,NA,NA,NA,NA
27063,"""Falsch""-Screen",canvas.Screen,3_0_3_0_0_1_2,NA,NA,skipped,NA,565313.2,NA,NA,565307.5,565313.3,2024-04-04T09:34:45Z,565324.6,NULL,Wechsel,ugeuzaji,s,utambulisho,kujenga,wasiwasi,NA,qt,NA,3,NA,NA,NA,NA,NA,NA,NA,NA,NA,NA,NA,NA,NA,NA,NA,NA,NA,NA,NA
27063,shallow,flow.Sequence,3_0_3_0_0_1,NA,NA,completion,11210,554097.1,554081.558,554097.5,565307.5,565313.40000001,2024-04-04T09:34:45Z,565324.6,NULL,Wechsel,ugeuzaji,s,utambulisho,kujenga,wasiwasi,NA,qt,NA,3,NA,NA,NA,NA,NA,NA,NA,NA,NA,NA,NA,NA,NA,NA,NA,NA,NA,NA,NA
27063,task,flow.Sequence,3_0_3_0_0,NA,NA,completion,11210,554097,554081.558,554097.5,565307.5,565313.5,2024-04-04T09:34:45Z,565324.6,NULL,Wechsel,ugeuzaji,s,utambulisho,kujenga,wasiwasi,NA,qt,NA,3,NA,NA,NA,NA,NA,NA,NA,NA,NA,NA,NA,NA,NA,NA,NA,NA,NA,NA,NA
27063,deep,flow.Sequence,3_0_3_0_1_0,NA,NA,skipped,NA,565313.5,NA,NA,565307.5,565313.5,2024-04-04T09:34:45Z,565324.6,NULL,Sänger,mwimbaji,s,msichana,shughuli,mshirika,NA,qt,NA,3,NA,NA,NA,NA,NA,NA,NA,NA,NA,NA,NA,NA,NA,NA,NA,NA,NA,NA,NA
27063,Shallow Question,html.Page,3_0_3_0_1_1_0,NA,NA,form submission,3740.2000000045,565313.6,565307.5,565324.6,569064.8,569065.2,2024-04-04T09:34:49Z,569071.7,NULL,Sänger,mwimbaji,s,msichana,shughuli,mshirika,mwimbaji,NA,NA,3,NA,NA,NA,NA,NA,NA,NA,NA,NA,NA,NA,NA,NA,NA,NA,NA,NA,NA,NA
27063,"""Richtig""-Screen",canvas.Screen,3_0_3_0_1_1_1,NA,NA,timeout,4997.5,569067.90000001,569055.76,569071.7,574052.3,574053.2,2024-04-04T09:34:54Z,574069.2,NULL,Sänger,mwimbaji,s,msichana,shughuli,mshirika,NA,qt,1,3,NA,NA,NA,NA,NA,NA,NA,NA,NA,NA,NA,NA,NA,NA,NA,NA,NA,NA,NA
27063,"""Falsch""-Screen",canvas.Screen,3_0_3_0_1_1_2,NA,NA,skipped,NA,574058.2,NA,NA,574052.3,574058.40000001,2024-04-04T09:34:54Z,574069.2,NULL,Sänger,mwimbaji,s,msichana,shughuli,mshirika,NA,qt,NA,3,NA,NA,NA,NA,NA,NA,NA,NA,NA,NA,NA,NA,NA,NA,NA,NA,NA,NA,NA
27063,shallow,flow.Sequence,3_0_3_0_1_1,NA,NA,completion,8727.7000000001,565313.6,565307.5,565324.6,574052.3,574058.40000001,2024-04-04T09:34:54Z,574069.2,NULL,Sänger,mwimbaji,s,msichana,shughuli,mshirika,NA,qt,NA,3,NA,NA,NA,NA,NA,NA,NA,NA,NA,NA,NA,NA,NA,NA,NA,NA,NA,NA,NA
27063,task,flow.Sequence,3_0_3_0_1,NA,NA,completion,8727.7000000001,565313.5,565307.5,565324.6,574052.3,574058.5,2024-04-04T09:34:54Z,574069.2,NULL,Sänger,mwimbaji,s,msichana,shughuli,mshirika,NA,qt,NA,3,NA,NA,NA,NA,NA,NA,NA,NA,NA,NA,NA,NA,NA,NA,NA,NA,NA,NA,NA
27063,Deep Question,html.Page,3_0_3_0_2_0_0,NA,NA,form submission,3995.700000006,574058.6,574052.3,574069.2,578064.90000001,578065.2,2024-04-04T09:34:58Z,578066.892,NULL,Kanzler,diwani,d,NA,NA,NA,diwani,NA,NA,3,NA,NA,NA,NA,NA,NA,NA,NA,NA,NA,NA,NA,NA,NA,NA,NA,NA,NA,NA
27063,"""Richtig""-Screen",canvas.Screen,3_0_3_0_2_0_1,NA,NA,timeout,4996.808,578068,578066.892,578066.892,583047,583047.90000001,2024-04-04T09:35:03Z,583063.7,NULL,Kanzler,diwani,d,NA,NA,NA,NA,qt,1,3,NA,NA,NA,NA,NA,NA,NA,NA,NA,NA,NA,NA,NA,NA,NA,NA,NA,NA,NA
27063,"""Falsch""-Screen",canvas.Screen,3_0_3_0_2_0_2,NA,NA,skipped,NA,583052.7,NA,NA,583047,583052.7,2024-04-04T09:35:03Z,583063.7,NULL,Kanzler,diwani,d,NA,NA,NA,NA,qt,NA,3,NA,NA,NA,NA,NA,NA,NA,NA,NA,NA,NA,NA,NA,NA,NA,NA,NA,NA,NA
27063,deep,flow.Sequence,3_0_3_0_2_0,NA,NA,completion,8977.8,574058.5,574052.3,574069.2,583047,583052.90000001,2024-04-04T09:35:03Z,583063.7,NULL,Kanzler,diwani,d,NA,NA,NA,NA,qt,NA,3,NA,NA,NA,NA,NA,NA,NA,NA,NA,NA,NA,NA,NA,NA,NA,NA,NA,NA,NA
27063,shallow,flow.Sequence,3_0_3_0_2_1,NA,NA,skipped,NA,583052.90000001,NA,NA,583047,583052.90000001,2024-04-04T09:35:03Z,583063.7,NULL,Kanzler,diwani,d,NA,NA,NA,NA,qt,NA,3,NA,NA,NA,NA,NA,NA,NA,NA,NA,NA,NA,NA,NA,NA,NA,NA,NA,NA,NA
27063,task,flow.Sequence,3_0_3_0_2,NA,NA,completion,8977.8,574058.5,574052.3,574069.2,583047,583052.90000001,2024-04-04T09:35:03Z,583063.7,NULL,Kanzler,diwani,d,NA,NA,NA,NA,qt,NA,3,NA,NA,NA,NA,NA,NA,NA,NA,NA,NA,NA,NA,NA,NA,NA,NA,NA,NA,NA
27063,Deep Question,html.Page,3_0_3_0_3_0_0,NA,NA,form submission,13637.500000003,583052.90000001,583047,583063.7,596701.2,596701.3,2024-04-04T09:35:16Z,596705,NULL,Abrechnung,uhasibu,d,NA,NA,NA,uhasibu,NA,NA,3,NA,NA,NA,NA,NA,NA,NA,NA,NA,NA,NA,NA,NA,NA,NA,NA,NA,NA,NA
27063,"""Richtig""-Screen",canvas.Screen,3_0_3_0_3_0_1,NA,NA,timeout,4997.2,596704.3,596688.892,596705,601685.7,601686.7,2024-04-04T09:35:21Z,601702.2,NULL,Abrechnung,uhasibu,d,NA,NA,NA,NA,qt,1,3,NA,NA,NA,NA,NA,NA,NA,NA,NA,NA,NA,NA,NA,NA,NA,NA,NA,NA,NA
27063,"""Falsch""-Screen",canvas.Screen,3_0_3_0_3_0_2,NA,NA,skipped,NA,601691.5,NA,NA,601685.7,601691.8,2024-04-04T09:35:21Z,601702.2,NULL,Abrechnung,uhasibu,d,NA,NA,NA,NA,qt,NA,3,NA,NA,NA,NA,NA,NA,NA,NA,NA,NA,NA,NA,NA,NA,NA,NA,NA,NA,NA
27063,deep,flow.Sequence,3_0_3_0_3_0,NA,NA,completion,18622,583052.90000001,583047,583063.7,601685.7,601692,2024-04-04T09:35:21Z,601702.2,NULL,Abrechnung,uhasibu,d,NA,NA,NA,NA,qt,NA,3,NA,NA,NA,NA,NA,NA,NA,NA,NA,NA,NA,NA,NA,NA,NA,NA,NA,NA,NA
27063,shallow,flow.Sequence,3_0_3_0_3_1,NA,NA,skipped,NA,601692,NA,NA,601685.7,601692,2024-04-04T09:35:21Z,601702.2,NULL,Abrechnung,uhasibu,d,NA,NA,NA,NA,qt,NA,3,NA,NA,NA,NA,NA,NA,NA,NA,NA,NA,NA,NA,NA,NA,NA,NA,NA,NA,NA
27063,task,flow.Sequence,3_0_3_0_3,NA,NA,completion,18622,583052.90000001,583047,583063.7,601685.7,601692,2024-04-04T09:35:21Z,601702.2,NULL,Abrechnung,uhasibu,d,NA,NA,NA,NA,qt,NA,3,NA,NA,NA,NA,NA,NA,NA,NA,NA,NA,NA,NA,NA,NA,NA,NA,NA,NA,NA
27063,deep,flow.Sequence,3_0_3_0_4_0,NA,NA,skipped,NA,601692.1,NA,NA,601685.7,601692.1,2024-04-04T09:35:21Z,601702.2,NULL,Erneuerung,ukarabati,s,ushawishi,ukalifu,unyonyaji,NA,qt,NA,3,NA,NA,NA,NA,NA,NA,NA,NA,NA,NA,NA,NA,NA,NA,NA,NA,NA,NA,NA
27063,Shallow Question,html.Page,3_0_3_0_4_1_0,NA,NA,form submission,5450.6000000045,601692.2,601685.7,601702.2,607152.8,607153,2024-04-04T09:35:27Z,607165.6,NULL,Erneuerung,ukarabati,s,ushawishi,ukalifu,unyonyaji,ukarabati,NA,NA,3,NA,NA,NA,NA,NA,NA,NA,NA,NA,NA,NA,NA,NA,NA,NA,NA,NA,NA,NA
27063,"""Richtig""-Screen",canvas.Screen,3_0_3_0_4_1_1,NA,NA,timeout,4996.8,607155.8,607149.228,607165.6,612145.9,612147.1,2024-04-04T09:35:32Z,612162.4,NULL,Erneuerung,ukarabati,s,ushawishi,ukalifu,unyonyaji,NA,qt,1,3,NA,NA,NA,NA,NA,NA,NA,NA,NA,NA,NA,NA,NA,NA,NA,NA,NA,NA,NA
27063,"""Falsch""-Screen",canvas.Screen,3_0_3_0_4_1_2,NA,NA,skipped,NA,612151.8,NA,NA,612145.9,612152,2024-04-04T09:35:32Z,612162.4,NULL,Erneuerung,ukarabati,s,ushawishi,ukalifu,unyonyaji,NA,qt,NA,3,NA,NA,NA,NA,NA,NA,NA,NA,NA,NA,NA,NA,NA,NA,NA,NA,NA,NA,NA
27063,shallow,flow.Sequence,3_0_3_0_4_1,NA,NA,completion,10443.7,601692.2,601685.7,601702.2,612145.9,612152,2024-04-04T09:35:32Z,612162.4,NULL,Erneuerung,ukarabati,s,ushawishi,ukalifu,unyonyaji,NA,qt,NA,3,NA,NA,NA,NA,NA,NA,NA,NA,NA,NA,NA,NA,NA,NA,NA,NA,NA,NA,NA
27063,task,flow.Sequence,3_0_3_0_4,NA,NA,completion,10443.7,601692,601685.7,601702.2,612145.9,612152,2024-04-04T09:35:32Z,612162.4,NULL,Erneuerung,ukarabati,s,ushawishi,ukalifu,unyonyaji,NA,qt,NA,3,NA,NA,NA,NA,NA,NA,NA,NA,NA,NA,NA,NA,NA,NA,NA,NA,NA,NA,NA
27063,deep,flow.Sequence,3_0_3_0_5_0,NA,NA,skipped,NA,612152.1,NA,NA,612145.9,612152.1,2024-04-04T09:35:32Z,612162.4,NULL,Angreifer,mshambulizi,s,kitengo,tasinia,usafirishaji,NA,qt,NA,3,NA,NA,NA,NA,NA,NA,NA,NA,NA,NA,NA,NA,NA,NA,NA,NA,NA,NA,NA
27063,Shallow Question,html.Page,3_0_3_0_5_1_0,NA,NA,form submission,5312.7000000015,612152.1,612145.9,612162.4,617475.1,617475.40000001,2024-04-04T09:35:37Z,617476.162,NULL,Angreifer,mshambulizi,s,kitengo,tasinia,usafirishaji,mshambulizi,NA,NA,3,NA,NA,NA,NA,NA,NA,NA,NA,NA,NA,NA,NA,NA,NA,NA,NA,NA,NA,NA
27063,"""Richtig""-Screen",canvas.Screen,3_0_3_0_5_1_1,NA,NA,timeout,4996.838,617478.1,617476.162,617476.162,622456.1,622457,2024-04-04T09:35:42Z,622473,NULL,Angreifer,mshambulizi,s,kitengo,tasinia,usafirishaji,NA,qt,1,3,NA,NA,NA,NA,NA,NA,NA,NA,NA,NA,NA,NA,NA,NA,NA,NA,NA,NA,NA
27063,"""Falsch""-Screen",canvas.Screen,3_0_3_0_5_1_2,NA,NA,skipped,NA,622461.8,NA,NA,622456.1,622461.8,2024-04-04T09:35:42Z,622473,NULL,Angreifer,mshambulizi,s,kitengo,tasinia,usafirishaji,NA,qt,NA,3,NA,NA,NA,NA,NA,NA,NA,NA,NA,NA,NA,NA,NA,NA,NA,NA,NA,NA,NA
27063,shallow,flow.Sequence,3_0_3_0_5_1,NA,NA,completion,10293.7,612152.1,612145.9,612162.4,622456.1,622461.90000001,2024-04-04T09:35:42Z,622473,NULL,Angreifer,mshambulizi,s,kitengo,tasinia,usafirishaji,NA,qt,NA,3,NA,NA,NA,NA,NA,NA,NA,NA,NA,NA,NA,NA,NA,NA,NA,NA,NA,NA,NA
27063,task,flow.Sequence,3_0_3_0_5,NA,NA,completion,10293.7,612152.1,612145.9,612162.4,622456.1,622462,2024-04-04T09:35:42Z,622473,NULL,Angreifer,mshambulizi,s,kitengo,tasinia,usafirishaji,NA,qt,NA,3,NA,NA,NA,NA,NA,NA,NA,NA,NA,NA,NA,NA,NA,NA,NA,NA,NA,NA,NA
27063,Deep Question,html.Page,3_0_3_0_6_0_0,NA,NA,form submission,8189.3000000045,622462,622456.1,622473,630662.3,630662.40000001,2024-04-04T09:35:50Z,630667.6,NULL,Atmosphäre,angahewa,d,NA,NA,NA,angahewa,NA,NA,3,NA,NA,NA,NA,NA,NA,NA,NA,NA,NA,NA,NA,NA,NA,NA,NA,NA,NA,NA
27063,"""Richtig""-Screen",canvas.Screen,3_0_3_0_6_0_1,NA,NA,timeout,4997.5,630664,630651.394,630667.6,635647.8,635648.8,2024-04-04T09:35:55Z,635665.1,NULL,Atmosphäre,angahewa,d,NA,NA,NA,NA,qt,1,3,NA,NA,NA,NA,NA,NA,NA,NA,NA,NA,NA,NA,NA,NA,NA,NA,NA,NA,NA
27063,"""Falsch""-Screen",canvas.Screen,3_0_3_0_6_0_2,NA,NA,skipped,NA,635653.90000001,NA,NA,635647.8,635654,2024-04-04T09:35:55Z,635665.1,NULL,Atmosphäre,angahewa,d,NA,NA,NA,NA,qt,NA,3,NA,NA,NA,NA,NA,NA,NA,NA,NA,NA,NA,NA,NA,NA,NA,NA,NA,NA,NA
27063,deep,flow.Sequence,3_0_3_0_6_0,NA,NA,completion,13174.8,622462,622456.1,622473,635647.8,635654.1,2024-04-04T09:35:55Z,635665.1,NULL,Atmosphäre,angahewa,d,NA,NA,NA,NA,qt,NA,3,NA,NA,NA,NA,NA,NA,NA,NA,NA,NA,NA,NA,NA,NA,NA,NA,NA,NA,NA
27063,shallow,flow.Sequence,3_0_3_0_6_1,NA,NA,skipped,NA,635654.1,NA,NA,635647.8,635654.1,2024-04-04T09:35:55Z,635665.1,NULL,Atmosphäre,angahewa,d,NA,NA,NA,NA,qt,NA,3,NA,NA,NA,NA,NA,NA,NA,NA,NA,NA,NA,NA,NA,NA,NA,NA,NA,NA,NA
27063,task,flow.Sequence,3_0_3_0_6,NA,NA,completion,13174.8,622462,622456.1,622473,635647.8,635654.2,2024-04-04T09:35:55Z,635665.1,NULL,Atmosphäre,angahewa,d,NA,NA,NA,NA,qt,NA,3,NA,NA,NA,NA,NA,NA,NA,NA,NA,NA,NA,NA,NA,NA,NA,NA,NA,NA,NA
27063,Deep Question,html.Page,3_0_3_0_7_0_0,NA,NA,form submission,6657.9,635654.2,635647.8,635665.1,642323,642323.1,2024-04-04T09:36:02Z,642327.1,NULL,Flexibilität,kubadilika,d,NA,NA,NA,kubadilika,NA,NA,3,NA,NA,NA,NA,NA,NA,NA,NA,NA,NA,NA,NA,NA,NA,NA,NA,NA,NA,NA
27063,"""Richtig""-Screen",canvas.Screen,3_0_3_0_7_0_1,NA,NA,timeout,4997.4,642324.5,642311.054,642327.1,647307.8,647308.7,2024-04-04T09:36:07Z,647324.5,NULL,Flexibilität,kubadilika,d,NA,NA,NA,NA,qt,1,3,NA,NA,NA,NA,NA,NA,NA,NA,NA,NA,NA,NA,NA,NA,NA,NA,NA,NA,NA
27063,"""Falsch""-Screen",canvas.Screen,3_0_3_0_7_0_2,NA,NA,skipped,NA,647313.6,NA,NA,647307.8,647313.8,2024-04-04T09:36:07Z,647324.5,NULL,Flexibilität,kubadilika,d,NA,NA,NA,NA,qt,NA,3,NA,NA,NA,NA,NA,NA,NA,NA,NA,NA,NA,NA,NA,NA,NA,NA,NA,NA,NA
27063,deep,flow.Sequence,3_0_3_0_7_0,NA,NA,completion,11642.7,635654.2,635647.8,635665.1,647307.8,647314,2024-04-04T09:36:07Z,647324.5,NULL,Flexibilität,kubadilika,d,NA,NA,NA,NA,qt,NA,3,NA,NA,NA,NA,NA,NA,NA,NA,NA,NA,NA,NA,NA,NA,NA,NA,NA,NA,NA
27063,shallow,flow.Sequence,3_0_3_0_7_1,NA,NA,skipped,NA,647314,NA,NA,647307.8,647314,2024-04-04T09:36:07Z,647324.5,NULL,Flexibilität,kubadilika,d,NA,NA,NA,NA,qt,NA,3,NA,NA,NA,NA,NA,NA,NA,NA,NA,NA,NA,NA,NA,NA,NA,NA,NA,NA,NA
27063,task,flow.Sequence,3_0_3_0_7,NA,NA,completion,11642.7,635654.2,635647.8,635665.1,647307.8,647314.1,2024-04-04T09:36:07Z,647324.5,NULL,Flexibilität,kubadilika,d,NA,NA,NA,NA,qt,NA,3,NA,NA,NA,NA,NA,NA,NA,NA,NA,NA,NA,NA,NA,NA,NA,NA,NA,NA,NA
27063,block,flow.Loop,3_0_3_0,NA,NA,completion,93210.3,554097,554081.558,554097.5,647307.8,647314.2,2024-04-04T09:36:07Z,647324.5,NULL,NA,NA,NA,NA,NA,NA,NA,qt,NA,3,NA,NA,NA,NA,NA,NA,NA,NA,NA,NA,NA,NA,NA,NA,NA,NA,NA,NA,NA
27063,weiter,canvas.Screen,3_0_3_1,sdf,keypress(Space),response,4933.8000000045,647314.2,647307.8,647324.5,652258.3,652259.5,2024-04-04T09:36:12Z,652587.4,NULL,NA,NA,NA,NA,NA,NA,NA,qt,NA,3,NA,NA,NA,NA,NA,NA,NA,NA,NA,NA,NA,NA,NA,NA,NA,NA,NA,NA,NA
27063,check continue,flow.Sequence,3_0_3,NA,NA,completion,98160.800000004,554097,554081.558,554097.5,652258.3,652259.8,2024-04-04T09:36:12Z,652587.4,NULL,NA,NA,NA,NA,NA,NA,NA,qt,NA,3,NA,NA,NA,NA,NA,NA,NA,NA,NA,NA,NA,NA,NA,NA,NA,NA,NA,NA,NA
27063,check continue,flow.Sequence,3_0_4,NA,NA,skipped,NA,652278.6,NA,NA,652258.3,652278.7,2024-04-04T09:36:12Z,652587.4,NULL,NA,NA,NA,NA,NA,NA,NA,sd,NA,4,NA,NA,NA,NA,NA,NA,NA,NA,NA,NA,NA,NA,NA,NA,NA,NA,NA,NA,NA
27063,check continue,flow.Sequence,3_0_5,NA,NA,skipped,NA,652292.5,NA,NA,652258.3,652292.6,2024-04-04T09:36:12Z,652587.4,NULL,NA,NA,NA,NA,NA,NA,NA,sdf,NA,5,NA,NA,NA,NA,NA,NA,NA,NA,NA,NA,NA,NA,NA,NA,NA,NA,NA,NA,NA
27063,check continue,flow.Sequence,3_0_6,NA,NA,skipped,NA,652312,NA,NA,652258.3,652312,2024-04-04T09:36:12Z,652587.4,NULL,NA,NA,NA,NA,NA,NA,NA,dfs,NA,6,NA,NA,NA,NA,NA,NA,NA,NA,NA,NA,NA,NA,NA,NA,NA,NA,NA,NA,NA
27063,check continue,flow.Sequence,3_0_7,NA,NA,skipped,NA,652330.6,NA,NA,652258.3,652330.7,2024-04-04T09:36:12Z,652587.4,NULL,NA,NA,NA,NA,NA,NA,NA,df,NA,7,NA,NA,NA,NA,NA,NA,NA,NA,NA,NA,NA,NA,NA,NA,NA,NA,NA,NA,NA
27063,check continue,flow.Sequence,3_0_8,NA,NA,skipped,NA,652343.1,NA,NA,652258.3,652343.2,2024-04-04T09:36:12Z,652587.4,NULL,NA,NA,NA,NA,NA,NA,NA,dfs,NA,8,NA,NA,NA,NA,NA,NA,NA,NA,NA,NA,NA,NA,NA,NA,NA,NA,NA,NA,NA
27063,check continue,flow.Sequence,3_0_9,NA,NA,skipped,NA,652355.8,NA,NA,652258.3,652356,2024-04-04T09:36:12Z,652587.4,NULL,NA,NA,NA,NA,NA,NA,NA,dsf,NA,9,NA,NA,NA,NA,NA,NA,NA,NA,NA,NA,NA,NA,NA,NA,NA,NA,NA,NA,NA
27063,check continue,flow.Sequence,3_0_10,NA,NA,skipped,NA,652368.1,NA,NA,652258.3,652368.1,2024-04-04T09:36:12Z,652587.4,NULL,NA,NA,NA,NA,NA,NA,NA,df,NA,10,NA,NA,NA,NA,NA,NA,NA,NA,NA,NA,NA,NA,NA,NA,NA,NA,NA,NA,NA
27063,check continue,flow.Sequence,3_0_11,NA,NA,skipped,NA,652380.2,NA,NA,652258.3,652380.3,2024-04-04T09:36:12Z,652587.4,NULL,NA,NA,NA,NA,NA,NA,NA,dfs,NA,11,NA,NA,NA,NA,NA,NA,NA,NA,NA,NA,NA,NA,NA,NA,NA,NA,NA,NA,NA
27063,check continue,flow.Sequence,3_0_12,NA,NA,skipped,NA,652392.2,NA,NA,652258.3,652392.3,2024-04-04T09:36:12Z,652587.4,NULL,NA,NA,NA,NA,NA,NA,NA,dsf,NA,12,NA,NA,NA,NA,NA,NA,NA,NA,NA,NA,NA,NA,NA,NA,NA,NA,NA,NA,NA
27063,check continue,flow.Sequence,3_0_13,NA,NA,skipped,NA,652404,NA,NA,652258.3,652404,2024-04-04T09:36:12Z,652587.4,NULL,NA,NA,NA,NA,NA,NA,NA,dsf,NA,13,NA,NA,NA,NA,NA,NA,NA,NA,NA,NA,NA,NA,NA,NA,NA,NA,NA,NA,NA
27063,check continue,flow.Sequence,3_0_14,NA,NA,skipped,NA,652415.6,NA,NA,652258.3,652415.7,2024-04-04T09:36:12Z,652587.4,NULL,NA,NA,NA,NA,NA,NA,NA,NA,NA,14,NA,NA,NA,NA,NA,NA,NA,NA,NA,NA,NA,NA,NA,NA,NA,NA,NA,NA,NA
27063,check continue,flow.Sequence,3_0_15,NA,NA,skipped,NA,652427.3,NA,NA,652258.3,652427.40000001,2024-04-04T09:36:12Z,652587.4,NULL,NA,NA,NA,NA,NA,NA,NA,NA,NA,15,NA,NA,NA,NA,NA,NA,NA,NA,NA,NA,NA,NA,NA,NA,NA,NA,NA,NA,NA
27063,check continue,flow.Sequence,3_0_16,NA,NA,skipped,NA,652439.3,NA,NA,652258.3,652439.3,2024-04-04T09:36:12Z,652587.4,NULL,NA,NA,NA,NA,NA,NA,NA,NA,NA,16,NA,NA,NA,NA,NA,NA,NA,NA,NA,NA,NA,NA,NA,NA,NA,NA,NA,NA,NA
27063,check continue,flow.Sequence,3_0_17,NA,NA,skipped,NA,652450.3,NA,NA,652258.3,652450.3,2024-04-04T09:36:12Z,652587.4,NULL,NA,NA,NA,NA,NA,NA,NA,NA,NA,17,NA,NA,NA,NA,NA,NA,NA,NA,NA,NA,NA,NA,NA,NA,NA,NA,NA,NA,NA
27063,check continue,flow.Sequence,3_0_18,NA,NA,skipped,NA,652462.2,NA,NA,652258.3,652462.3,2024-04-04T09:36:12Z,652587.4,NULL,NA,NA,NA,NA,NA,NA,NA,NA,NA,18,NA,NA,NA,NA,NA,NA,NA,NA,NA,NA,NA,NA,NA,NA,NA,NA,NA,NA,NA
27063,check continue,flow.Sequence,3_0_19,NA,NA,skipped,NA,652473.5,NA,NA,652258.3,652473.6,2024-04-04T09:36:12Z,652587.4,NULL,NA,NA,NA,NA,NA,NA,NA,NA,NA,19,NA,NA,NA,NA,NA,NA,NA,NA,NA,NA,NA,NA,NA,NA,NA,NA,NA,NA,NA
27063,check continue,flow.Sequence,3_0_20,NA,NA,skipped,NA,652485.3,NA,NA,652258.3,652485.3,2024-04-04T09:36:12Z,652587.4,NULL,NA,NA,NA,NA,NA,NA,NA,NA,NA,20,NA,NA,NA,NA,NA,NA,NA,NA,NA,NA,NA,NA,NA,NA,NA,NA,NA,NA,NA
27063,check continue,flow.Sequence,3_0_21,NA,NA,skipped,NA,652497.5,NA,NA,652258.3,652497.5,2024-04-04T09:36:12Z,652587.4,NULL,NA,NA,NA,NA,NA,NA,NA,NA,NA,21,NA,NA,NA,NA,NA,NA,NA,NA,NA,NA,NA,NA,NA,NA,NA,NA,NA,NA,NA
27063,check continue,flow.Sequence,3_0_22,NA,NA,skipped,NA,652508.1,NA,NA,652258.3,652508.2,2024-04-04T09:36:12Z,652587.4,NULL,NA,NA,NA,NA,NA,NA,NA,NA,NA,22,NA,NA,NA,NA,NA,NA,NA,NA,NA,NA,NA,NA,NA,NA,NA,NA,NA,NA,NA
27063,check continue,flow.Sequence,3_0_23,NA,NA,skipped,NA,652519.7,NA,NA,652258.3,652519.7,2024-04-04T09:36:12Z,652587.4,NULL,NA,NA,NA,NA,NA,NA,NA,NA,NA,23,NA,NA,NA,NA,NA,NA,NA,NA,NA,NA,NA,NA,NA,NA,NA,NA,NA,NA,NA
27063,check continue,flow.Sequence,3_0_24,NA,NA,skipped,NA,652530.7,NA,NA,652258.3,652530.7,2024-04-04T09:36:12Z,652587.4,NULL,NA,NA,NA,NA,NA,NA,NA,NA,NA,24,NA,NA,NA,NA,NA,NA,NA,NA,NA,NA,NA,NA,NA,NA,NA,NA,NA,NA,NA
27063,check continue,flow.Sequence,3_0_25,NA,NA,skipped,NA,652542.5,NA,NA,652258.3,652542.5,2024-04-04T09:36:12Z,652587.4,NULL,NA,NA,NA,NA,NA,NA,NA,NA,NA,25,NA,NA,NA,NA,NA,NA,NA,NA,NA,NA,NA,NA,NA,NA,NA,NA,NA,NA,NA
27063,check continue,flow.Sequence,3_0_26,NA,NA,skipped,NA,652553,NA,NA,652258.3,652553,2024-04-04T09:36:12Z,652587.4,NULL,NA,NA,NA,NA,NA,NA,NA,NA,NA,26,NA,NA,NA,NA,NA,NA,NA,NA,NA,NA,NA,NA,NA,NA,NA,NA,NA,NA,NA
27063,check continue,flow.Sequence,3_0_27,NA,NA,skipped,NA,652564.5,NA,NA,652258.3,652564.5,2024-04-04T09:36:12Z,652587.4,NULL,NA,NA,NA,NA,NA,NA,NA,NA,NA,27,NA,NA,NA,NA,NA,NA,NA,NA,NA,NA,NA,NA,NA,NA,NA,NA,NA,NA,NA
27063,check continue,flow.Sequence,3_0_28,NA,NA,skipped,NA,652574.7,NA,NA,652258.3,652574.7,2024-04-04T09:36:12Z,652587.4,NULL,NA,NA,NA,NA,NA,NA,NA,NA,NA,28,NA,NA,NA,NA,NA,NA,NA,NA,NA,NA,NA,NA,NA,NA,NA,NA,NA,NA,NA
27063,check continue,flow.Sequence,3_0_29,NA,NA,skipped,NA,652586.2,NA,NA,652258.3,652586.2,2024-04-04T09:36:12Z,652587.4,NULL,NA,NA,NA,NA,NA,NA,NA,NA,NA,29,NA,NA,NA,NA,NA,NA,NA,NA,NA,NA,NA,NA,NA,NA,NA,NA,NA,NA,NA
27063,until continue,flow.Loop,3_0,NA,NA,completion,519986.5,132256.1,132259.248,132271.8,652258.3,652586.3,2024-04-04T09:36:12Z,652587.4,NULL,NA,NA,NA,NA,NA,NA,NA,NA,NA,NA,NA,NA,NA,NA,NA,NA,NA,NA,NA,NA,NA,NA,NA,NA,NA,NA,NA,NA,NA
27063,block 1,flow.Sequence,3,NA,NA,completion,519986.5,132256,132259.248,132271.8,652258.3,652586.40000001,2024-04-04T09:36:12Z,652587.4,NULL,NA,NA,NA,NA,NA,NA,NA,NA,NA,NA,NA,NA,NA,NA,NA,NA,NA,NA,NA,NA,NA,NA,NA,NA,NA,NA,NA,NA,NA
27063,1.Part Over,canvas.Screen,4,NA,keypress(Space),response,37802.500000006,652586.40000001,652573.914,652587.4,690389.90000001,690390.2,2024-04-04T09:36:50Z,690447.9,NULL,NA,NA,NA,NA,NA,NA,NA,NA,NA,NA,NA,NA,NA,NA,NA,NA,NA,NA,NA,NA,NA,NA,NA,NA,NA,NA,NA,NA,NA
27063,deep,flow.Sequence,5_0_0_0_0_0,NA,NA,skipped,NA,690441,NA,NA,690389.90000001,690441.1,2024-04-04T09:36:50Z,690447.9,NULL,Respekt,heshima,s,changamnao,upinzani,ufanisi,NA,sdf,NA,0,NA,NA,NA,NA,NA,NA,NA,NA,NA,NA,NA,NA,NA,NA,NA,NA,NA,NA,NA
27063,Shallow Question,html.Page,5_0_0_0_0_1_0,NA,NA,form submission,7073.4000000044,690441.2,690435.886,690447.9,697521.3,697521.5,2024-04-04T09:36:57Z,697527.29,NULL,Respekt,heshima,s,changamnao,upinzani,ufanisi,ufanisi,NA,NA,0,NA,NA,NA,NA,NA,NA,NA,NA,NA,NA,NA,NA,NA,NA,NA,NA,NA,NA,NA
27063,"""Richtig""-Screen",canvas.Screen,5_0_0_0_0_1_1,NA,NA,skipped,NA,697524.3,NA,NA,697521.3,697524.40000001,2024-04-04T09:36:57Z,697527.29,NULL,Respekt,heshima,s,changamnao,upinzani,ufanisi,NA,sdf,NA,0,NA,NA,NA,NA,NA,NA,NA,NA,NA,NA,NA,NA,NA,NA,NA,NA,NA,NA,NA
27063,"""Falsch""-Screen",canvas.Screen,5_0_0_0_0_1_2,NA,NA,timeout,4996.9099999999,697525.2,697527.29,697527.29,702507.5,702508.40000001,2024-04-04T09:37:02Z,702524.2,NULL,Respekt,heshima,s,changamnao,upinzani,ufanisi,NA,sdf,0,0,NA,NA,NA,NA,NA,NA,NA,NA,NA,NA,NA,NA,NA,NA,NA,NA,NA,NA,NA
27063,shallow,flow.Sequence,5_0_0_0_0_1,NA,NA,completion,12059.6,690441.2,690435.886,690447.9,702507.5,702508.90000001,2024-04-04T09:37:02Z,702524.2,NULL,Respekt,heshima,s,changamnao,upinzani,ufanisi,NA,sdf,NA,0,NA,NA,NA,NA,NA,NA,NA,NA,NA,NA,NA,NA,NA,NA,NA,NA,NA,NA,NA
27063,task,flow.Sequence,5_0_0_0_0,NA,NA,completion,12059.6,690441,690435.886,690447.9,702507.5,702509.1,2024-04-04T09:37:02Z,702524.2,NULL,Respekt,heshima,s,changamnao,upinzani,ufanisi,NA,sdf,NA,0,NA,NA,NA,NA,NA,NA,NA,NA,NA,NA,NA,NA,NA,NA,NA,NA,NA,NA,NA
27063,deep,flow.Sequence,5_0_0_0_1_0,NA,NA,skipped,NA,702509.3,NA,NA,702507.5,702509.40000001,2024-04-04T09:37:02Z,702524.2,NULL,Kreativität,ubunifu,s,mratibu,mwendelezo,makubaliano,NA,sdf,NA,0,NA,NA,NA,NA,NA,NA,NA,NA,NA,NA,NA,NA,NA,NA,NA,NA,NA,NA,NA
27063,Shallow Question,html.Page,5_0_0_0_1_1_0,NA,NA,form submission,6550.700000006,702509.5,702507.5,702524.2,709074.90000001,709075.1,2024-04-04T09:37:09Z,709086.3,NULL,Kreativität,ubunifu,s,mratibu,mwendelezo,makubaliano,ubunifu,NA,NA,0,NA,NA,NA,NA,NA,NA,NA,NA,NA,NA,NA,NA,NA,NA,NA,NA,NA,NA,NA
27063,"""Richtig""-Screen",canvas.Screen,5_0_0_0_1_1_1,NA,NA,timeout,4997.2999999999,709078.2,709070.2,709086.3,714066.9,714067.8,2024-04-04T09:37:14Z,714083.6,NULL,Kreativität,ubunifu,s,mratibu,mwendelezo,makubaliano,NA,sdf,1,0,NA,NA,NA,NA,NA,NA,NA,NA,NA,NA,NA,NA,NA,NA,NA,NA,NA,NA,NA
27063,"""Falsch""-Screen",canvas.Screen,5_0_0_0_1_1_2,NA,NA,skipped,NA,714072.7,NA,NA,714066.9,714072.90000001,2024-04-04T09:37:14Z,714083.6,NULL,Kreativität,ubunifu,s,mratibu,mwendelezo,makubaliano,NA,sdf,NA,0,NA,NA,NA,NA,NA,NA,NA,NA,NA,NA,NA,NA,NA,NA,NA,NA,NA,NA,NA
27063,shallow,flow.Sequence,5_0_0_0_1_1,NA,NA,completion,11542.7,702509.5,702507.5,702524.2,714066.9,714073.1,2024-04-04T09:37:14Z,714083.6,NULL,Kreativität,ubunifu,s,mratibu,mwendelezo,makubaliano,NA,sdf,NA,0,NA,NA,NA,NA,NA,NA,NA,NA,NA,NA,NA,NA,NA,NA,NA,NA,NA,NA,NA
27063,task,flow.Sequence,5_0_0_0_1,NA,NA,completion,11542.7,702509.2,702507.5,702524.2,714066.9,714073.1,2024-04-04T09:37:14Z,714083.6,NULL,Kreativität,ubunifu,s,mratibu,mwendelezo,makubaliano,NA,sdf,NA,0,NA,NA,NA,NA,NA,NA,NA,NA,NA,NA,NA,NA,NA,NA,NA,NA,NA,NA,NA
27063,Deep Question,html.Page,5_0_0_0_2_0_0,NA,NA,form submission,3607.600000003,714073.1,714066.9,714083.6,717691.2,717691.5,2024-04-04T09:37:17Z,717697.7,NULL,Stimmung,kinyongo,d,NA,NA,NA,xx,NA,NA,0,NA,NA,NA,NA,NA,NA,NA,NA,NA,NA,NA,NA,NA,NA,NA,NA,NA,NA,NA
27063,"""Richtig""-Screen",canvas.Screen,5_0_0_0_2_0_1,NA,NA,skipped,NA,717694.2,NA,NA,717691.2,717694.40000001,2024-04-04T09:37:17Z,717697.7,NULL,Stimmung,kinyongo,d,NA,NA,NA,NA,sdf,NA,0,NA,NA,NA,NA,NA,NA,NA,NA,NA,NA,NA,NA,NA,NA,NA,NA,NA,NA,NA
27063,"""Falsch""-Screen",canvas.Screen,5_0_0_0_2_0_2,NA,NA,timeout,4997.5,717695.3,717695.08,717697.7,722678.1,722679.2,2024-04-04T09:37:22Z,722695.2,NULL,Stimmung,kinyongo,d,NA,NA,NA,NA,sdf,0,0,NA,NA,NA,NA,NA,NA,NA,NA,NA,NA,NA,NA,NA,NA,NA,NA,NA,NA,NA
27063,deep,flow.Sequence,5_0_0_0_2_0,NA,NA,completion,8594.5,714073.1,714066.9,714083.6,722678.1,722679.5,2024-04-04T09:37:22Z,722695.2,NULL,Stimmung,kinyongo,d,NA,NA,NA,NA,sdf,NA,0,NA,NA,NA,NA,NA,NA,NA,NA,NA,NA,NA,NA,NA,NA,NA,NA,NA,NA,NA
27063,shallow,flow.Sequence,5_0_0_0_2_1,NA,NA,skipped,NA,722679.6,NA,NA,722678.1,722679.8,2024-04-04T09:37:22Z,722695.2,NULL,Stimmung,kinyongo,d,NA,NA,NA,NA,sdf,NA,0,NA,NA,NA,NA,NA,NA,NA,NA,NA,NA,NA,NA,NA,NA,NA,NA,NA,NA,NA
27063,task,flow.Sequence,5_0_0_0_2,NA,NA,completion,8594.5,714073.1,714066.9,714083.6,722678.1,722680.1,2024-04-04T09:37:22Z,722695.2,NULL,Stimmung,kinyongo,d,NA,NA,NA,NA,sdf,NA,0,NA,NA,NA,NA,NA,NA,NA,NA,NA,NA,NA,NA,NA,NA,NA,NA,NA,NA,NA
27063,Deep Question,html.Page,5_0_0_0_3_0_0,NA,NA,form submission,16478.100000005,722680.3,722678.1,722695.2,739173.3,739173.7,2024-04-04T09:37:39Z,739184.6,NULL,Gefährdung,kuhatarisha,d,NA,NA,NA,xx,NA,NA,0,NA,NA,NA,NA,NA,NA,NA,NA,NA,NA,NA,NA,NA,NA,NA,NA,NA,NA,NA
27063,"""Richtig""-Screen",canvas.Screen,5_0_0_0_3_0_1,NA,NA,skipped,NA,739176.7,NA,NA,739173.3,739176.8,2024-04-04T09:37:39Z,739184.6,NULL,Gefährdung,kuhatarisha,d,NA,NA,NA,NA,sdf,NA,0,NA,NA,NA,NA,NA,NA,NA,NA,NA,NA,NA,NA,NA,NA,NA,NA,NA,NA,NA
27063,"""Falsch""-Screen",canvas.Screen,5_0_0_0_3_0_2,NA,NA,timeout,4997.4,739177.8,739168.736,739184.6,744165,744166,2024-04-04T09:37:44Z,744182,NULL,Gefährdung,kuhatarisha,d,NA,NA,NA,NA,sdf,0,0,NA,NA,NA,NA,NA,NA,NA,NA,NA,NA,NA,NA,NA,NA,NA,NA,NA,NA,NA
27063,deep,flow.Sequence,5_0_0_0_3_0,NA,NA,completion,21469.8,722680.2,722678.1,722695.2,744165,744166.40000001,2024-04-04T09:37:44Z,744182,NULL,Gefährdung,kuhatarisha,d,NA,NA,NA,NA,sdf,NA,0,NA,NA,NA,NA,NA,NA,NA,NA,NA,NA,NA,NA,NA,NA,NA,NA,NA,NA,NA
27063,shallow,flow.Sequence,5_0_0_0_3_1,NA,NA,skipped,NA,744166.5,NA,NA,744165,744166.7,2024-04-04T09:37:44Z,744182,NULL,Gefährdung,kuhatarisha,d,NA,NA,NA,NA,sdf,NA,0,NA,NA,NA,NA,NA,NA,NA,NA,NA,NA,NA,NA,NA,NA,NA,NA,NA,NA,NA
27063,task,flow.Sequence,5_0_0_0_3,NA,NA,completion,21469.8,722680.2,722678.1,722695.2,744165,744166.90000001,2024-04-04T09:37:44Z,744182,NULL,Gefährdung,kuhatarisha,d,NA,NA,NA,NA,sdf,NA,0,NA,NA,NA,NA,NA,NA,NA,NA,NA,NA,NA,NA,NA,NA,NA,NA,NA,NA,NA
27063,Deep Question,html.Page,5_0_0_0_4_0_0,NA,NA,form submission,16941,744167.1,744165,744182,761123,761123.2,2024-04-04T09:38:01Z,761138.5,NULL,Kontrolle,kudhibiti,d,NA,NA,NA,xx,NA,NA,0,NA,NA,NA,NA,NA,NA,NA,NA,NA,NA,NA,NA,NA,NA,NA,NA,NA,NA,NA
27063,"""Richtig""-Screen",canvas.Screen,5_0_0_0_4_0_1,NA,NA,skipped,NA,761126.3,NA,NA,761123,761126.40000001,2024-04-04T09:38:01Z,761138.5,NULL,Kontrolle,kudhibiti,d,NA,NA,NA,NA,sdf,NA,0,NA,NA,NA,NA,NA,NA,NA,NA,NA,NA,NA,NA,NA,NA,NA,NA,NA,NA,NA
27063,"""Falsch""-Screen",canvas.Screen,5_0_0_0_4_0_2,NA,NA,timeout,4996.8,761127.2,761122.228,761138.5,766118.6,766119.6,2024-04-04T09:38:06Z,766135.3,NULL,Kontrolle,kudhibiti,d,NA,NA,NA,NA,sdf,0,0,NA,NA,NA,NA,NA,NA,NA,NA,NA,NA,NA,NA,NA,NA,NA,NA,NA,NA,NA
27063,deep,flow.Sequence,5_0_0_0_4_0,NA,NA,completion,21936.6,744167.1,744165,744182,766118.6,766120,2024-04-04T09:38:06Z,766135.3,NULL,Kontrolle,kudhibiti,d,NA,NA,NA,NA,sdf,NA,0,NA,NA,NA,NA,NA,NA,NA,NA,NA,NA,NA,NA,NA,NA,NA,NA,NA,NA,NA
27063,shallow,flow.Sequence,5_0_0_0_4_1,NA,NA,skipped,NA,766120.2,NA,NA,766118.6,766120.3,2024-04-04T09:38:06Z,766135.3,NULL,Kontrolle,kudhibiti,d,NA,NA,NA,NA,sdf,NA,0,NA,NA,NA,NA,NA,NA,NA,NA,NA,NA,NA,NA,NA,NA,NA,NA,NA,NA,NA
27063,task,flow.Sequence,5_0_0_0_4,NA,NA,completion,21936.6,744167,744165,744182,766118.6,766120.6,2024-04-04T09:38:06Z,766135.3,NULL,Kontrolle,kudhibiti,d,NA,NA,NA,NA,sdf,NA,0,NA,NA,NA,NA,NA,NA,NA,NA,NA,NA,NA,NA,NA,NA,NA,NA,NA,NA,NA
27063,Deep Question,html.Page,5_0_0_0_5_0_0,NA,NA,form submission,14224.2,766120.7,766118.6,766135.3,780359.5,780359.7,2024-04-04T09:38:20Z,780378.2,NULL,Betrüger,mdanganyifu,d,NA,NA,NA,xx,NA,NA,0,NA,NA,NA,NA,NA,NA,NA,NA,NA,NA,NA,NA,NA,NA,NA,NA,NA,NA,NA
27063,"""Richtig""-Screen",canvas.Screen,5_0_0_0_5_0_1,NA,NA,skipped,NA,780362.8,NA,NA,780359.5,780363,2024-04-04T09:38:20Z,780378.2,NULL,Betrüger,mdanganyifu,d,NA,NA,NA,NA,sdf,NA,0,NA,NA,NA,NA,NA,NA,NA,NA,NA,NA,NA,NA,NA,NA,NA,NA,NA,NA,NA
27063,"""Falsch""-Screen",canvas.Screen,5_0_0_0_5_0_2,NA,NA,timeout,4995.4,780363.5,780358.1,780378.2,785356.9,785357.8,2024-04-04T09:38:25Z,785373.6,NULL,Betrüger,mdanganyifu,d,NA,NA,NA,NA,sdf,0,0,NA,NA,NA,NA,NA,NA,NA,NA,NA,NA,NA,NA,NA,NA,NA,NA,NA,NA,NA
27063,deep,flow.Sequence,5_0_0_0_5_0,NA,NA,completion,19221.6,766120.7,766118.6,766135.3,785356.9,785358.2,2024-04-04T09:38:25Z,785373.6,NULL,Betrüger,mdanganyifu,d,NA,NA,NA,NA,sdf,NA,0,NA,NA,NA,NA,NA,NA,NA,NA,NA,NA,NA,NA,NA,NA,NA,NA,NA,NA,NA
27063,shallow,flow.Sequence,5_0_0_0_5_1,NA,NA,skipped,NA,785358.40000001,NA,NA,785356.9,785358.5,2024-04-04T09:38:25Z,785373.6,NULL,Betrüger,mdanganyifu,d,NA,NA,NA,NA,sdf,NA,0,NA,NA,NA,NA,NA,NA,NA,NA,NA,NA,NA,NA,NA,NA,NA,NA,NA,NA,NA
27063,task,flow.Sequence,5_0_0_0_5,NA,NA,completion,19221.6,766120.7,766118.6,766135.3,785356.9,785358.7,2024-04-04T09:38:25Z,785373.6,NULL,Betrüger,mdanganyifu,d,NA,NA,NA,NA,sdf,NA,0,NA,NA,NA,NA,NA,NA,NA,NA,NA,NA,NA,NA,NA,NA,NA,NA,NA,NA,NA
27063,deep,flow.Sequence,5_0_0_0_6_0,NA,NA,skipped,NA,785358.90000001,NA,NA,785356.9,785358.90000001,2024-04-04T09:38:25Z,785373.6,NULL,Können,unaweza,s,kiongozi,bustani,mienendo,NA,sdf,NA,0,NA,NA,NA,NA,NA,NA,NA,NA,NA,NA,NA,NA,NA,NA,NA,NA,NA,NA,NA
27063,Shallow Question,html.Page,5_0_0_0_6_1_0,NA,NA,form submission,4295.4,785359.1,785356.9,785373.6,789669,789669.2,2024-04-04T09:38:29Z,789687.4,NULL,Können,unaweza,s,kiongozi,bustani,mienendo,bustani,NA,NA,0,NA,NA,NA,NA,NA,NA,NA,NA,NA,NA,NA,NA,NA,NA,NA,NA,NA,NA,NA
27063,"""Richtig""-Screen",canvas.Screen,5_0_0_0_6_1_1,NA,NA,skipped,NA,789672.40000001,NA,NA,789669,789672.40000001,2024-04-04T09:38:29Z,789687.4,NULL,Können,unaweza,s,kiongozi,bustani,mienendo,NA,sdf,NA,0,NA,NA,NA,NA,NA,NA,NA,NA,NA,NA,NA,NA,NA,NA,NA,NA,NA,NA,NA
27063,"""Falsch""-Screen",canvas.Screen,5_0_0_0_6_1_2,NA,NA,timeout,4996.6,789673.3,789671.152,789687.4,794667.4,794667.8,2024-04-04T09:38:34Z,794684,NULL,Können,unaweza,s,kiongozi,bustani,mienendo,NA,sdf,0,0,NA,NA,NA,NA,NA,NA,NA,NA,NA,NA,NA,NA,NA,NA,NA,NA,NA,NA,NA
27063,shallow,flow.Sequence,5_0_0_0_6_1,NA,NA,completion,9293.8,785359.1,785356.9,785373.6,794667.4,794667.90000001,2024-04-04T09:38:34Z,794684,NULL,Können,unaweza,s,kiongozi,bustani,mienendo,NA,sdf,NA,0,NA,NA,NA,NA,NA,NA,NA,NA,NA,NA,NA,NA,NA,NA,NA,NA,NA,NA,NA
27063,task,flow.Sequence,5_0_0_0_6,NA,NA,completion,9293.8,785358.8,785356.9,785373.6,794667.4,794668,2024-04-04T09:38:34Z,794684,NULL,Können,unaweza,s,kiongozi,bustani,mienendo,NA,sdf,NA,0,NA,NA,NA,NA,NA,NA,NA,NA,NA,NA,NA,NA,NA,NA,NA,NA,NA,NA,NA
27063,deep,flow.Sequence,5_0_0_0_7_0,NA,NA,skipped,NA,794668,NA,NA,794667.4,794668.1,2024-04-04T09:38:34Z,794684,NULL,Orientierung,urekebisho,s,uelekeo,marekebisho,utunzaji,NA,sdf,NA,0,NA,NA,NA,NA,NA,NA,NA,NA,NA,NA,NA,NA,NA,NA,NA,NA,NA,NA,NA
27063,Shallow Question,html.Page,5_0_0_0_7_1_0,NA,NA,form submission,6014.200000003,794668.1,794667.4,794684,800698.2,800698.40000001,2024-04-04T09:38:40Z,800714.1,NULL,Orientierung,urekebisho,s,uelekeo,marekebisho,utunzaji,uelekeo,NA,NA,0,NA,NA,NA,NA,NA,NA,NA,NA,NA,NA,NA,NA,NA,NA,NA,NA,NA,NA,NA
27063,"""Richtig""-Screen",canvas.Screen,5_0_0_0_7_1_1,NA,NA,skipped,NA,800699.7,NA,NA,800698.2,800699.7,2024-04-04T09:38:40Z,800714.1,NULL,Orientierung,urekebisho,s,uelekeo,marekebisho,utunzaji,NA,sdf,NA,0,NA,NA,NA,NA,NA,NA,NA,NA,NA,NA,NA,NA,NA,NA,NA,NA,NA,NA,NA
27063,"""Falsch""-Screen",canvas.Screen,5_0_0_0_7_1_2,NA,NA,timeout,4996.6,800700.1,800686.46,800714.1,805694,805695.6,2024-04-04T09:38:45Z,805710.7,NULL,Orientierung,urekebisho,s,uelekeo,marekebisho,utunzaji,NA,sdf,0,0,NA,NA,NA,NA,NA,NA,NA,NA,NA,NA,NA,NA,NA,NA,NA,NA,NA,NA,NA
27063,shallow,flow.Sequence,5_0_0_0_7_1,NA,NA,completion,11010,794668.1,794667.4,794684,805694,805696,2024-04-04T09:38:45Z,805710.7,NULL,Orientierung,urekebisho,s,uelekeo,marekebisho,utunzaji,NA,sdf,NA,0,NA,NA,NA,NA,NA,NA,NA,NA,NA,NA,NA,NA,NA,NA,NA,NA,NA,NA,NA
27063,task,flow.Sequence,5_0_0_0_7,NA,NA,completion,11010,794668,794667.4,794684,805694,805696.2,2024-04-04T09:38:45Z,805710.7,NULL,Orientierung,urekebisho,s,uelekeo,marekebisho,utunzaji,NA,sdf,NA,0,NA,NA,NA,NA,NA,NA,NA,NA,NA,NA,NA,NA,NA,NA,NA,NA,NA,NA,NA
27063,block,flow.Loop,5_0_0_0,NA,NA,completion,115246.1,690441,690435.886,690447.9,805694,805696.7,2024-04-04T09:38:45Z,805710.7,NULL,NA,NA,NA,NA,NA,NA,NA,sdf,NA,0,NA,NA,NA,NA,NA,NA,NA,NA,NA,NA,NA,NA,NA,NA,NA,NA,NA,NA,NA
27063,weiter,canvas.Screen,5_0_0_1,sdf,keypress(Space),response,1147.3,805696.8,805694,805710.7,806858,806862.8,2024-04-04T09:38:46Z,806876.6,NULL,NA,NA,NA,NA,NA,NA,NA,sdf,NA,0,NA,NA,NA,NA,NA,NA,NA,NA,NA,NA,NA,NA,NA,NA,NA,NA,NA,NA,NA
27063,check continue,flow.Sequence,5_0_0,NA,NA,completion,116410.1,690441,690435.886,690447.9,806858,806863,2024-04-04T09:38:46Z,806876.6,NULL,NA,NA,NA,NA,NA,NA,NA,sdf,NA,0,NA,NA,NA,NA,NA,NA,NA,NA,NA,NA,NA,NA,NA,NA,NA,NA,NA,NA,NA
27063,deep,flow.Sequence,5_0_1_0_0_0,NA,NA,skipped,NA,806878.2,NA,NA,806858,806878.3,2024-04-04T09:38:46Z,806876.6,NULL,Können,unaweza,s,kiongozi,bustani,mienendo,NA,sdfdsf,NA,1,NA,NA,NA,NA,NA,NA,NA,NA,NA,NA,NA,NA,NA,NA,NA,NA,NA,NA,NA
27063,Shallow Question,html.Page,5_0_1_0_0_1_0,NA,NA,form submission,3772.100000003,806878.3,806869.278,806876.6,810648.7,810648.8,2024-04-04T09:38:50Z,810657.6,NULL,Können,unaweza,s,kiongozi,bustani,mienendo,unaweza,NA,NA,1,NA,NA,NA,NA,NA,NA,NA,NA,NA,NA,NA,NA,NA,NA,NA,NA,NA,NA,NA
27063,"""Richtig""-Screen",canvas.Screen,5_0_1_0_0_1_1,NA,NA,timeout,4997.2000000001,810649.40000001,810641.1,810657.6,815638.3,815639.8,2024-04-04T09:38:55Z,815654.8,NULL,Können,unaweza,s,kiongozi,bustani,mienendo,NA,sdfdsf,1,1,NA,NA,NA,NA,NA,NA,NA,NA,NA,NA,NA,NA,NA,NA,NA,NA,NA,NA,NA
27063,"""Falsch""-Screen",canvas.Screen,5_0_1_0_0_1_2,NA,NA,skipped,NA,815644.6,NA,NA,815638.3,815644.7,2024-04-04T09:38:55Z,815654.8,NULL,Können,unaweza,s,kiongozi,bustani,mienendo,NA,sdfdsf,NA,1,NA,NA,NA,NA,NA,NA,NA,NA,NA,NA,NA,NA,NA,NA,NA,NA,NA,NA,NA
27063,shallow,flow.Sequence,5_0_1_0_0_1,NA,NA,completion,8761.7000000001,806878.3,806869.278,806876.6,815638.3,815644.90000001,2024-04-04T09:38:55Z,815654.8,NULL,Können,unaweza,s,kiongozi,bustani,mienendo,NA,sdfdsf,NA,1,NA,NA,NA,NA,NA,NA,NA,NA,NA,NA,NA,NA,NA,NA,NA,NA,NA,NA,NA
27063,task,flow.Sequence,5_0_1_0_0,NA,NA,completion,8761.7000000001,806878.1,806869.278,806876.6,815638.3,815645,2024-04-04T09:38:55Z,815654.8,NULL,Können,unaweza,s,kiongozi,bustani,mienendo,NA,sdfdsf,NA,1,NA,NA,NA,NA,NA,NA,NA,NA,NA,NA,NA,NA,NA,NA,NA,NA,NA,NA,NA
27063,deep,flow.Sequence,5_0_1_0_1_0,NA,NA,skipped,NA,815645,NA,NA,815638.3,815645,2024-04-04T09:38:55Z,815654.8,NULL,Kreativität,ubunifu,s,mratibu,mwendelezo,makubaliano,NA,sdfdsf,NA,1,NA,NA,NA,NA,NA,NA,NA,NA,NA,NA,NA,NA,NA,NA,NA,NA,NA,NA,NA
27063,Shallow Question,html.Page,5_0_1_0_1_1_0,NA,NA,form submission,3366.1000000059,815645,815638.3,815654.8,819020.90000001,819021.1,2024-04-04T09:38:59Z,819036.3,NULL,Kreativität,ubunifu,s,mratibu,mwendelezo,makubaliano,ubunifu,NA,NA,1,NA,NA,NA,NA,NA,NA,NA,NA,NA,NA,NA,NA,NA,NA,NA,NA,NA,NA,NA
27063,"""Richtig""-Screen",canvas.Screen,5_0_1_0_1_1_1,NA,NA,timeout,4996.8999999999,819023.90000001,819019.824,819036.3,824016.4,824017.3,2024-04-04T09:39:04Z,824033.2,NULL,Kreativität,ubunifu,s,mratibu,mwendelezo,makubaliano,NA,sdfdsf,1,1,NA,NA,NA,NA,NA,NA,NA,NA,NA,NA,NA,NA,NA,NA,NA,NA,NA,NA,NA
27063,"""Falsch""-Screen",canvas.Screen,5_0_1_0_1_1_2,NA,NA,skipped,NA,824022.6,NA,NA,824016.4,824022.7,2024-04-04T09:39:04Z,824033.2,NULL,Kreativität,ubunifu,s,mratibu,mwendelezo,makubaliano,NA,sdfdsf,NA,1,NA,NA,NA,NA,NA,NA,NA,NA,NA,NA,NA,NA,NA,NA,NA,NA,NA,NA,NA
27063,shallow,flow.Sequence,5_0_1_0_1_1,NA,NA,completion,8361.6,815645,815638.3,815654.8,824016.4,824022.8,2024-04-04T09:39:04Z,824033.2,NULL,Kreativität,ubunifu,s,mratibu,mwendelezo,makubaliano,NA,sdfdsf,NA,1,NA,NA,NA,NA,NA,NA,NA,NA,NA,NA,NA,NA,NA,NA,NA,NA,NA,NA,NA
27063,task,flow.Sequence,5_0_1_0_1,NA,NA,completion,8361.6,815645,815638.3,815654.8,824016.4,824022.90000001,2024-04-04T09:39:04Z,824033.2,NULL,Kreativität,ubunifu,s,mratibu,mwendelezo,makubaliano,NA,sdfdsf,NA,1,NA,NA,NA,NA,NA,NA,NA,NA,NA,NA,NA,NA,NA,NA,NA,NA,NA,NA,NA
27063,Deep Question,html.Page,5_0_1_0_2_0_0,NA,NA,form submission,9880.200000006,824022.90000001,824016.4,824033.2,833913.40000001,833913.5,2024-04-04T09:39:13Z,833926.7,NULL,Stimmung,kinyongo,d,NA,NA,NA,kinyongo,NA,NA,1,NA,NA,NA,NA,NA,NA,NA,NA,NA,NA,NA,NA,NA,NA,NA,NA,NA,NA,NA
27063,"""Richtig""-Screen",canvas.Screen,5_0_1_0_2_0_1,NA,NA,timeout,4997.3,833916.40000001,833910.656,833926.7,838907.3,838908.2,2024-04-04T09:39:18Z,838924,NULL,Stimmung,kinyongo,d,NA,NA,NA,NA,sdfdsf,1,1,NA,NA,NA,NA,NA,NA,NA,NA,NA,NA,NA,NA,NA,NA,NA,NA,NA,NA,NA
27063,"""Falsch""-Screen",canvas.Screen,5_0_1_0_2_0_2,NA,NA,skipped,NA,838913.1,NA,NA,838907.3,838913.1,2024-04-04T09:39:18Z,838924,NULL,Stimmung,kinyongo,d,NA,NA,NA,NA,sdfdsf,NA,1,NA,NA,NA,NA,NA,NA,NA,NA,NA,NA,NA,NA,NA,NA,NA,NA,NA,NA,NA
27063,deep,flow.Sequence,5_0_1_0_2_0,NA,NA,completion,14874.1,824022.90000001,824016.4,824033.2,838907.3,838913.3,2024-04-04T09:39:18Z,838924,NULL,Stimmung,kinyongo,d,NA,NA,NA,NA,sdfdsf,NA,1,NA,NA,NA,NA,NA,NA,NA,NA,NA,NA,NA,NA,NA,NA,NA,NA,NA,NA,NA
27063,shallow,flow.Sequence,5_0_1_0_2_1,NA,NA,skipped,NA,838913.3,NA,NA,838907.3,838913.40000001,2024-04-04T09:39:18Z,838924,NULL,Stimmung,kinyongo,d,NA,NA,NA,NA,sdfdsf,NA,1,NA,NA,NA,NA,NA,NA,NA,NA,NA,NA,NA,NA,NA,NA,NA,NA,NA,NA,NA
27063,task,flow.Sequence,5_0_1_0_2,NA,NA,completion,14874.1,824022.90000001,824016.4,824033.2,838907.3,838913.40000001,2024-04-04T09:39:18Z,838924,NULL,Stimmung,kinyongo,d,NA,NA,NA,NA,sdfdsf,NA,1,NA,NA,NA,NA,NA,NA,NA,NA,NA,NA,NA,NA,NA,NA,NA,NA,NA,NA,NA
27063,Deep Question,html.Page,5_0_1_0_3_0_0,NA,NA,form submission,13495.400000006,838913.40000001,838907.3,838924,852419.40000001,852419.7,2024-04-04T09:39:32Z,852432,NULL,Gefährdung,kuhatarisha,d,NA,NA,NA,uhukatashi,NA,NA,1,NA,NA,NA,NA,NA,NA,NA,NA,NA,NA,NA,NA,NA,NA,NA,NA,NA,NA,NA
27063,"""Richtig""-Screen",canvas.Screen,5_0_1_0_3_0_1,NA,NA,skipped,NA,852422.6,NA,NA,852419.40000001,852422.7,2024-04-04T09:39:32Z,852432,NULL,Gefährdung,kuhatarisha,d,NA,NA,NA,NA,sdfdsf,NA,1,NA,NA,NA,NA,NA,NA,NA,NA,NA,NA,NA,NA,NA,NA,NA,NA,NA,NA,NA
27063,"""Falsch""-Screen",canvas.Screen,5_0_1_0_3_0_2,NA,NA,timeout,4997.4,852423.3,852416.5,852432,857412.7,857413.8,2024-04-04T09:39:37Z,857429.4,NULL,Gefährdung,kuhatarisha,d,NA,NA,NA,NA,sdfdsf,0,1,NA,NA,NA,NA,NA,NA,NA,NA,NA,NA,NA,NA,NA,NA,NA,NA,NA,NA,NA
27063,deep,flow.Sequence,5_0_1_0_3_0,NA,NA,completion,18488.7,838913.40000001,838907.3,838924,857412.7,857414.2,2024-04-04T09:39:37Z,857429.4,NULL,Gefährdung,kuhatarisha,d,NA,NA,NA,NA,sdfdsf,NA,1,NA,NA,NA,NA,NA,NA,NA,NA,NA,NA,NA,NA,NA,NA,NA,NA,NA,NA,NA
27063,shallow,flow.Sequence,5_0_1_0_3_1,NA,NA,skipped,NA,857414.3,NA,NA,857412.7,857414.40000001,2024-04-04T09:39:37Z,857429.4,NULL,Gefährdung,kuhatarisha,d,NA,NA,NA,NA,sdfdsf,NA,1,NA,NA,NA,NA,NA,NA,NA,NA,NA,NA,NA,NA,NA,NA,NA,NA,NA,NA,NA
27063,task,flow.Sequence,5_0_1_0_3,NA,NA,completion,18488.7,838913.40000001,838907.3,838924,857412.7,857414.7,2024-04-04T09:39:37Z,857429.4,NULL,Gefährdung,kuhatarisha,d,NA,NA,NA,NA,sdfdsf,NA,1,NA,NA,NA,NA,NA,NA,NA,NA,NA,NA,NA,NA,NA,NA,NA,NA,NA,NA,NA
27063,Deep Question,html.Page,5_0_1_0_4_0_0,NA,NA,form submission,14410.000000006,857414.8,857412.7,857429.4,871839.40000001,871839.7,2024-04-04T09:39:51Z,871854.1,NULL,Betrüger,mdanganyifu,d,NA,NA,NA,kudhiti,NA,NA,1,NA,NA,NA,NA,NA,NA,NA,NA,NA,NA,NA,NA,NA,NA,NA,NA,NA,NA,NA
27063,"""Richtig""-Screen",canvas.Screen,5_0_1_0_4_0_1,NA,NA,skipped,NA,871842.7,NA,NA,871839.40000001,871842.8,2024-04-04T09:39:51Z,871854.1,NULL,Betrüger,mdanganyifu,d,NA,NA,NA,NA,sdfdsf,NA,1,NA,NA,NA,NA,NA,NA,NA,NA,NA,NA,NA,NA,NA,NA,NA,NA,NA,NA,NA
27063,"""Falsch""-Screen",canvas.Screen,5_0_1_0_4_0_2,NA,NA,timeout,4996.7000000001,871843.40000001,871837.3,871854.1,876834,876834.90000001,2024-04-04T09:39:56Z,876850.8,NULL,Betrüger,mdanganyifu,d,NA,NA,NA,NA,sdfdsf,0,1,NA,NA,NA,NA,NA,NA,NA,NA,NA,NA,NA,NA,NA,NA,NA,NA,NA,NA,NA
27063,deep,flow.Sequence,5_0_1_0_4_0,NA,NA,completion,19404.6,857414.8,857412.7,857429.4,876834,876835.3,2024-04-04T09:39:56Z,876850.8,NULL,Betrüger,mdanganyifu,d,NA,NA,NA,NA,sdfdsf,NA,1,NA,NA,NA,NA,NA,NA,NA,NA,NA,NA,NA,NA,NA,NA,NA,NA,NA,NA,NA
27063,shallow,flow.Sequence,5_0_1_0_4_1,NA,NA,skipped,NA,876835.40000001,NA,NA,876834,876835.5,2024-04-04T09:39:56Z,876850.8,NULL,Betrüger,mdanganyifu,d,NA,NA,NA,NA,sdfdsf,NA,1,NA,NA,NA,NA,NA,NA,NA,NA,NA,NA,NA,NA,NA,NA,NA,NA,NA,NA,NA
27063,task,flow.Sequence,5_0_1_0_4,NA,NA,completion,19404.6,857414.8,857412.7,857429.4,876834,876835.7,2024-04-04T09:39:56Z,876850.8,NULL,Betrüger,mdanganyifu,d,NA,NA,NA,NA,sdfdsf,NA,1,NA,NA,NA,NA,NA,NA,NA,NA,NA,NA,NA,NA,NA,NA,NA,NA,NA,NA,NA
27063,deep,flow.Sequence,5_0_1_0_5_0,NA,NA,skipped,NA,876835.8,NA,NA,876834,876835.90000001,2024-04-04T09:39:56Z,876850.8,NULL,Orientierung,urekebisho,s,uelekeo,marekebisho,utunzaji,NA,sdfdsf,NA,1,NA,NA,NA,NA,NA,NA,NA,NA,NA,NA,NA,NA,NA,NA,NA,NA,NA,NA,NA
27063,Shallow Question,html.Page,5_0_1_0_5_1_0,NA,NA,form submission,15341.800000001,876836,876834,876850.8,892192.6,892192.8,2024-04-04T09:40:12Z,892207.8,NULL,Orientierung,urekebisho,s,uelekeo,marekebisho,utunzaji,urekebisho,NA,NA,1,NA,NA,NA,NA,NA,NA,NA,NA,NA,NA,NA,NA,NA,NA,NA,NA,NA,NA,NA
27063,"""Richtig""-Screen",canvas.Screen,5_0_1_0_5_1_1,NA,NA,timeout,4997.2999999999,892196,892191.788,892207.8,897188.6,897189.7,2024-04-04T09:40:17Z,897205.1,NULL,Orientierung,urekebisho,s,uelekeo,marekebisho,utunzaji,NA,sdfdsf,1,1,NA,NA,NA,NA,NA,NA,NA,NA,NA,NA,NA,NA,NA,NA,NA,NA,NA,NA,NA
27063,"""Falsch""-Screen",canvas.Screen,5_0_1_0_5_1_2,NA,NA,skipped,NA,897194.90000001,NA,NA,897188.6,897194.90000001,2024-04-04T09:40:17Z,897205.1,NULL,Orientierung,urekebisho,s,uelekeo,marekebisho,utunzaji,NA,sdfdsf,NA,1,NA,NA,NA,NA,NA,NA,NA,NA,NA,NA,NA,NA,NA,NA,NA,NA,NA,NA,NA
27063,shallow,flow.Sequence,5_0_1_0_5_1,NA,NA,completion,20337.8,876836,876834,876850.8,897188.6,897195.1,2024-04-04T09:40:17Z,897205.1,NULL,Orientierung,urekebisho,s,uelekeo,marekebisho,utunzaji,NA,sdfdsf,NA,1,NA,NA,NA,NA,NA,NA,NA,NA,NA,NA,NA,NA,NA,NA,NA,NA,NA,NA,NA
27063,task,flow.Sequence,5_0_1_0_5,NA,NA,completion,20337.8,876835.8,876834,876850.8,897188.6,897195.1,2024-04-04T09:40:17Z,897205.1,NULL,Orientierung,urekebisho,s,uelekeo,marekebisho,utunzaji,NA,sdfdsf,NA,1,NA,NA,NA,NA,NA,NA,NA,NA,NA,NA,NA,NA,NA,NA,NA,NA,NA,NA,NA
27063,deep,flow.Sequence,5_0_1_0_6_0,NA,NA,skipped,NA,897195.2,NA,NA,897188.6,897195.2,2024-04-04T09:40:17Z,897205.1,NULL,Respekt,heshima,s,changamnao,upinzani,ufanisi,NA,sdfdsf,NA,1,NA,NA,NA,NA,NA,NA,NA,NA,NA,NA,NA,NA,NA,NA,NA,NA,NA,NA,NA
27063,Shallow Question,html.Page,5_0_1_0_6_1_0,NA,NA,form submission,5979.7000000045,897195.2,897188.6,897205.1,903184.8,903185,2024-04-04T09:40:23Z,903201.1,NULL,Respekt,heshima,s,changamnao,upinzani,ufanisi,heshima,NA,NA,1,NA,NA,NA,NA,NA,NA,NA,NA,NA,NA,NA,NA,NA,NA,NA,NA,NA,NA,NA
27063,"""Richtig""-Screen",canvas.Screen,5_0_1_0_6_1_1,NA,NA,timeout,4997.3,903187.7,903185.092,903201.1,908181.5,908182.7,2024-04-04T09:40:28Z,908198.4,NULL,Respekt,heshima,s,changamnao,upinzani,ufanisi,NA,sdfdsf,1,1,NA,NA,NA,NA,NA,NA,NA,NA,NA,NA,NA,NA,NA,NA,NA,NA,NA,NA,NA
27063,"""Falsch""-Screen",canvas.Screen,5_0_1_0_6_1_2,NA,NA,skipped,NA,908187.7,NA,NA,908181.5,908187.8,2024-04-04T09:40:28Z,908198.4,NULL,Respekt,heshima,s,changamnao,upinzani,ufanisi,NA,sdfdsf,NA,1,NA,NA,NA,NA,NA,NA,NA,NA,NA,NA,NA,NA,NA,NA,NA,NA,NA,NA,NA
27063,shallow,flow.Sequence,5_0_1_0_6_1,NA,NA,completion,10976.4,897195.2,897188.6,897205.1,908181.5,908188,2024-04-04T09:40:28Z,908198.4,NULL,Respekt,heshima,s,changamnao,upinzani,ufanisi,NA,sdfdsf,NA,1,NA,NA,NA,NA,NA,NA,NA,NA,NA,NA,NA,NA,NA,NA,NA,NA,NA,NA,NA
27063,task,flow.Sequence,5_0_1_0_6,NA,NA,completion,10976.4,897195.1,897188.6,897205.1,908181.5,908188,2024-04-04T09:40:28Z,908198.4,NULL,Respekt,heshima,s,changamnao,upinzani,ufanisi,NA,sdfdsf,NA,1,NA,NA,NA,NA,NA,NA,NA,NA,NA,NA,NA,NA,NA,NA,NA,NA,NA,NA,NA
27063,Deep Question,html.Page,5_0_1_0_7_0_0,NA,NA,form submission,4860.800000003,908188,908181.5,908198.4,913059.2,913059.40000001,2024-04-04T09:40:33Z,913062.45,NULL,Kontrolle,kudhibiti,d,NA,NA,NA,xx,NA,NA,1,NA,NA,NA,NA,NA,NA,NA,NA,NA,NA,NA,NA,NA,NA,NA,NA,NA,NA,NA
27063,"""Richtig""-Screen",canvas.Screen,5_0_1_0_7_0_1,NA,NA,skipped,NA,913062.5,NA,NA,913059.2,913062.6,2024-04-04T09:40:33Z,913062.45,NULL,Kontrolle,kudhibiti,d,NA,NA,NA,NA,sdfdsf,NA,1,NA,NA,NA,NA,NA,NA,NA,NA,NA,NA,NA,NA,NA,NA,NA,NA,NA,NA,NA
27063,"""Falsch""-Screen",canvas.Screen,5_0_1_0_7_0_2,NA,NA,timeout,4996.4500000001,913063.5,913062.45,913062.45,918042.2,918043.1,2024-04-04T09:40:38Z,918058.9,NULL,Kontrolle,kudhibiti,d,NA,NA,NA,NA,sdfdsf,0,1,NA,NA,NA,NA,NA,NA,NA,NA,NA,NA,NA,NA,NA,NA,NA,NA,NA,NA,NA
27063,deep,flow.Sequence,5_0_1_0_7_0,NA,NA,completion,9843.7999999999,908188,908181.5,908198.4,918042.2,918043.5,2024-04-04T09:40:38Z,918058.9,NULL,Kontrolle,kudhibiti,d,NA,NA,NA,NA,sdfdsf,NA,1,NA,NA,NA,NA,NA,NA,NA,NA,NA,NA,NA,NA,NA,NA,NA,NA,NA,NA,NA
27063,shallow,flow.Sequence,5_0_1_0_7_1,NA,NA,skipped,NA,918043.6,NA,NA,918042.2,918043.7,2024-04-04T09:40:38Z,918058.9,NULL,Kontrolle,kudhibiti,d,NA,NA,NA,NA,sdfdsf,NA,1,NA,NA,NA,NA,NA,NA,NA,NA,NA,NA,NA,NA,NA,NA,NA,NA,NA,NA,NA
27063,task,flow.Sequence,5_0_1_0_7,NA,NA,completion,9843.7999999999,908188,908181.5,908198.4,918042.2,918043.90000001,2024-04-04T09:40:38Z,918058.9,NULL,Kontrolle,kudhibiti,d,NA,NA,NA,NA,sdfdsf,NA,1,NA,NA,NA,NA,NA,NA,NA,NA,NA,NA,NA,NA,NA,NA,NA,NA,NA,NA,NA
27063,block,flow.Loop,5_0_1_0,NA,NA,completion,111165.6,806878.1,806869.278,806876.6,918042.2,918044.1,2024-04-04T09:40:38Z,918058.9,NULL,NA,NA,NA,NA,NA,NA,NA,sdfdsf,NA,1,NA,NA,NA,NA,NA,NA,NA,NA,NA,NA,NA,NA,NA,NA,NA,NA,NA,NA,NA
27063,weiter,canvas.Screen,5_0_1_1,sdf,keypress(Space),response,6119.1,918044.2,918042.2,918058.9,924178,924182.6,2024-04-04T09:40:44Z,924191.988,NULL,NA,NA,NA,NA,NA,NA,NA,sdfdsf,NA,1,NA,NA,NA,NA,NA,NA,NA,NA,NA,NA,NA,NA,NA,NA,NA,NA,NA,NA,NA
27063,check continue,flow.Sequence,5_0_1,NA,NA,completion,117301.4,806878.1,806869.278,806876.6,924178,924182.90000001,2024-04-04T09:40:44Z,924191.988,NULL,NA,NA,NA,NA,NA,NA,NA,sdfdsf,NA,1,NA,NA,NA,NA,NA,NA,NA,NA,NA,NA,NA,NA,NA,NA,NA,NA,NA,NA,NA
27063,deep,flow.Sequence,5_0_2_0_0_0,NA,NA,skipped,NA,924197.6,NA,NA,924178,924197.7,2024-04-04T09:40:44Z,924191.988,NULL,Können,unaweza,s,kiongozi,bustani,mienendo,NA,sdf,NA,2,NA,NA,NA,NA,NA,NA,NA,NA,NA,NA,NA,NA,NA,NA,NA,NA,NA,NA,NA
27063,Shallow Question,html.Page,5_0_2_0_0_1_0,NA,NA,form submission,4156.9120000059,924197.8,924191.988,924191.988,928348.90000001,928349.3,2024-04-04T09:40:48Z,928353.088,NULL,Können,unaweza,s,kiongozi,bustani,mienendo,unaweza,NA,NA,2,NA,NA,NA,NA,NA,NA,NA,NA,NA,NA,NA,NA,NA,NA,NA,NA,NA,NA,NA
27063,"""Richtig""-Screen",canvas.Screen,5_0_2_0_0_1_1,NA,NA,timeout,4996.7120000001,928352.3,928353.088,928353.088,933332.9,933333.90000001,2024-04-04T09:40:53Z,933349.8,NULL,Können,unaweza,s,kiongozi,bustani,mienendo,NA,sdf,1,2,NA,NA,NA,NA,NA,NA,NA,NA,NA,NA,NA,NA,NA,NA,NA,NA,NA,NA,NA
27063,"""Falsch""-Screen",canvas.Screen,5_0_2_0_0_1_2,NA,NA,skipped,NA,933338.7,NA,NA,933332.9,933338.8,2024-04-04T09:40:53Z,933349.8,NULL,Können,unaweza,s,kiongozi,bustani,mienendo,NA,sdf,NA,2,NA,NA,NA,NA,NA,NA,NA,NA,NA,NA,NA,NA,NA,NA,NA,NA,NA,NA,NA
27063,shallow,flow.Sequence,5_0_2_0_0_1,NA,NA,completion,9140.912,924197.8,924191.988,924191.988,933332.9,933338.90000001,2024-04-04T09:40:53Z,933349.8,NULL,Können,unaweza,s,kiongozi,bustani,mienendo,NA,sdf,NA,2,NA,NA,NA,NA,NA,NA,NA,NA,NA,NA,NA,NA,NA,NA,NA,NA,NA,NA,NA
27063,task,flow.Sequence,5_0_2_0_0,NA,NA,completion,9140.912,924197.6,924191.988,924191.988,933332.9,933338.90000001,2024-04-04T09:40:53Z,933349.8,NULL,Können,unaweza,s,kiongozi,bustani,mienendo,NA,sdf,NA,2,NA,NA,NA,NA,NA,NA,NA,NA,NA,NA,NA,NA,NA,NA,NA,NA,NA,NA,NA
27063,Deep Question,html.Page,5_0_2_0_1_0_0,NA,NA,form submission,4939.2,933339,933332.9,933349.8,938289,938289.2,2024-04-04T09:40:58Z,938296.3,NULL,Kontrolle,kudhibiti,d,NA,NA,NA,kudhibiti,NA,NA,2,NA,NA,NA,NA,NA,NA,NA,NA,NA,NA,NA,NA,NA,NA,NA,NA,NA,NA,NA
27063,"""Richtig""-Screen",canvas.Screen,5_0_2_0_1_0_1,NA,NA,timeout,4997.3999999999,938292.90000001,938280.1,938296.3,943276.7,943277.8,2024-04-04T09:41:03Z,943293.7,NULL,Kontrolle,kudhibiti,d,NA,NA,NA,NA,sdf,1,2,NA,NA,NA,NA,NA,NA,NA,NA,NA,NA,NA,NA,NA,NA,NA,NA,NA,NA,NA
27063,"""Falsch""-Screen",canvas.Screen,5_0_2_0_1_0_2,NA,NA,skipped,NA,943283.1,NA,NA,943276.7,943283.2,2024-04-04T09:41:03Z,943293.7,NULL,Kontrolle,kudhibiti,d,NA,NA,NA,NA,sdf,NA,2,NA,NA,NA,NA,NA,NA,NA,NA,NA,NA,NA,NA,NA,NA,NA,NA,NA,NA,NA
