observation,sender,sender_type,sender_id,response,response_action,ended_on,duration,time_run,time_render,time_show,time_end,time_commit,timestamp,time_switch,distractors,german,swahili,enc,distractor1,distractor2,distractor3,response_2,x,correct,x_2,url_vp,url_sess,meta_labjs_version,meta_location,meta_user_agent,meta_platform,meta_language,meta_locale,meta_time_zone,meta_timezone_offset,meta_screen_width,meta_screen_height,meta_scroll_width,meta_scroll_height,meta_window_inner_width,meta_window_inner_height,meta_device_pixel_ratio,meta_labjs_build_flavor,meta_labjs_build_commit
8fd59,Introduction general,canvas.Screen,0,weiter,keypress(q),response,1867615.872,1092.3000000715,257.849,1107.128,1868723,1868736.8000001,2023-04-28T15:56:08Z,1868740.667,NULL,NA,NA,NA,NA,NA,NA,NA,NA,NA,NA,209,3,20.2.4,https://neurocog.fernuni.ch/studies/vweber/sfink/encoding_immediate/index.html?vp=209&sess=3,"Mozilla/5.0 (Windows NT 10.0; Win64; x64) AppleWebKit/537.36 (KHTML, like Gecko) Chrome/112.0.0.0 Safari/537.36",Win32,de-CH,de,Europe/Zurich,-120,1536,864,1536,706,1536,754,1.25,production,f5b4a49f956347addd546a832a3327688c2c0fef
8fd59,Introduction practice,canvas.Screen,1_0,NA,keypress(Space),response,4231.9330000239,1868737.8000001,1868718.84,1868740.667,1872972.6,1872973.9000001,2023-04-28T15:56:13Z,1872987.454,NULL,NA,NA,NA,NA,NA,NA,NA,NA,NA,NA,NA,NA,NA,NA,NA,NA,NA,NA,NA,NA,NA,NA,NA,NA,NA,NA,NA,NA,NA
8fd59,Deep Question,html.Page,1_1_0_0_0,NA,NA,form submission,4719.4460000955,1872974.5,1872970.213,1872987.454,1877706.9000001,1877707.1,2023-04-28T15:56:17Z,1877716.57,"c(""distractor1"", ""distractor2"", ""distractor3"")",Qualität,mtindo,d,NA,NA,NA,h,NA,NA,NA,NA,NA,NA,NA,NA,NA,NA,NA,NA,NA,NA,NA,NA,NA,NA,NA,NA,NA,NA
8fd59,"""Richtig""-Screen",canvas.Screen,1_1_0_0_1,NA,NA,skipped,NA,1877708.5,NA,NA,1877706.9000001,1877708.7,2023-04-28T15:56:17Z,1877716.57,"c(""distractor1"", ""distractor2"", ""distractor3"")",Qualität,mtindo,d,NA,NA,NA,NA,NA,NA,NA,NA,NA,NA,NA,NA,NA,NA,NA,NA,NA,NA,NA,NA,NA,NA,NA,NA,NA,NA
8fd59,"""Falsch""-Screen",canvas.Screen,1_1_0_0_2,NA,NA,timeout,4995.8929999999,1877709.9000001,1877700.037,1877716.57,1882696.252,1882701.1,2023-04-28T15:56:22Z,1882712.463,"c(""distractor1"", ""distractor2"", ""distractor3"")",Qualität,mtindo,d,NA,NA,NA,NA,NA,0,NA,NA,NA,NA,NA,NA,NA,NA,NA,NA,NA,NA,NA,NA,NA,NA,NA,NA,NA,NA
8fd59,deep,flow.Sequence,1_1_0_0,NA,NA,completion,9708.7980000002,1872974.4000001,1872970.213,1872987.454,1882696.252,1882701.7,2023-04-28T15:56:22Z,1882712.463,"c(""distractor1"", ""distractor2"", ""distractor3"")",Qualität,mtindo,d,NA,NA,NA,NA,NA,NA,NA,NA,NA,NA,NA,NA,NA,NA,NA,NA,NA,NA,NA,NA,NA,NA,NA,NA,NA,NA
8fd59,shallow,flow.Sequence,1_1_0_1,NA,NA,skipped,NA,1882701.9000001,NA,NA,1882696.252,1882702.1,2023-04-28T15:56:22Z,1882712.463,"c(""distractor1"", ""distractor2"", ""distractor3"")",Qualität,mtindo,d,NA,NA,NA,NA,NA,NA,NA,NA,NA,NA,NA,NA,NA,NA,NA,NA,NA,NA,NA,NA,NA,NA,NA,NA,NA,NA
8fd59,task,flow.Sequence,1_1_0,NA,NA,completion,9708.7980000002,1872974.3000001,1872970.213,1872987.454,1882696.252,1882702.4000001,2023-04-28T15:56:22Z,1882712.463,"c(""distractor1"", ""distractor2"", ""distractor3"")",Qualität,mtindo,d,NA,NA,NA,NA,NA,NA,NA,NA,NA,NA,NA,NA,NA,NA,NA,NA,NA,NA,NA,NA,NA,NA,NA,NA,NA,NA
8fd59,Deep Question,html.Page,1_1_1_0_0,NA,NA,form submission,3672.9370000954,1882702.8000001,1882696.252,1882712.463,1886385.4000001,1886385.7,2023-04-28T15:56:26Z,1886409.489,"c(""distractor1"", ""distractor2"", ""distractor3"")",Gesundheit,salama,d,NA,NA,NA,h,NA,NA,NA,NA,NA,NA,NA,NA,NA,NA,NA,NA,NA,NA,NA,NA,NA,NA,NA,NA,NA,NA
8fd59,"""Richtig""-Screen",canvas.Screen,1_1_1_0_1,NA,NA,skipped,NA,1886388.7,NA,NA,1886385.4000001,1886388.9000001,2023-04-28T15:56:26Z,1886409.489,"c(""distractor1"", ""distractor2"", ""distractor3"")",Gesundheit,salama,d,NA,NA,NA,NA,NA,NA,NA,NA,NA,NA,NA,NA,NA,NA,NA,NA,NA,NA,NA,NA,NA,NA,NA,NA,NA,NA
8fd59,"""Falsch""-Screen",canvas.Screen,1_1_1_0_2,NA,NA,timeout,4995.868,1886390.1,1886392.751,1886409.489,1891388.801,1891390.3000001,2023-04-28T15:56:31Z,1891405.357,"c(""distractor1"", ""distractor2"", ""distractor3"")",Gesundheit,salama,d,NA,NA,NA,NA,NA,0,NA,NA,NA,NA,NA,NA,NA,NA,NA,NA,NA,NA,NA,NA,NA,NA,NA,NA,NA,NA
8fd59,deep,flow.Sequence,1_1_1_0,NA,NA,completion,8676.338,1882702.6,1882696.252,1882712.463,1891388.801,1891391.1,2023-04-28T15:56:31Z,1891405.357,"c(""distractor1"", ""distractor2"", ""distractor3"")",Gesundheit,salama,d,NA,NA,NA,NA,NA,NA,NA,NA,NA,NA,NA,NA,NA,NA,NA,NA,NA,NA,NA,NA,NA,NA,NA,NA,NA,NA
8fd59,shallow,flow.Sequence,1_1_1_1,NA,NA,skipped,NA,1891391.4000001,NA,NA,1891388.801,1891391.6,2023-04-28T15:56:31Z,1891405.357,"c(""distractor1"", ""distractor2"", ""distractor3"")",Gesundheit,salama,d,NA,NA,NA,NA,NA,NA,NA,NA,NA,NA,NA,NA,NA,NA,NA,NA,NA,NA,NA,NA,NA,NA,NA,NA,NA,NA
8fd59,task,flow.Sequence,1_1_1,NA,NA,completion,8676.338,1882702.5,1882696.252,1882712.463,1891388.801,1891391.9000001,2023-04-28T15:56:31Z,1891405.357,"c(""distractor1"", ""distractor2"", ""distractor3"")",Gesundheit,salama,d,NA,NA,NA,NA,NA,NA,NA,NA,NA,NA,NA,NA,NA,NA,NA,NA,NA,NA,NA,NA,NA,NA,NA,NA,NA,NA
8fd59,deep,flow.Sequence,1_1_2_0,NA,NA,skipped,NA,1891392.3000001,NA,NA,1891388.801,1891392.5,2023-04-28T15:56:31Z,1891405.357,"c(""distractor1"", ""distractor2"", ""distractor3"")",Gegenwart,hadhara,s,katiba,jokofu,mikopo,NA,NA,NA,NA,NA,NA,NA,NA,NA,NA,NA,NA,NA,NA,NA,NA,NA,NA,NA,NA,NA,NA,NA
8fd59,Shallow Question,html.Page,1_1_2_1_0,NA,NA,form submission,4622.9430000714,1891392.7,1891388.801,1891405.357,1896028.3000001,1896028.5,2023-04-28T15:56:36Z,1896034.849,"c(""distractor1"", ""distractor2"", ""distractor3"")",Gegenwart,hadhara,s,katiba,jokofu,mikopo,katiba,NA,NA,NA,NA,NA,NA,NA,NA,NA,NA,NA,NA,NA,NA,NA,NA,NA,NA,NA,NA,NA,NA
8fd59,"""Richtig""-Screen",canvas.Screen,1_1_2_1_1,NA,NA,skipped,NA,1896030.3000001,NA,NA,1896028.3000001,1896030.5,2023-04-28T15:56:36Z,1896034.849,"c(""distractor1"", ""distractor2"", ""distractor3"")",Gegenwart,hadhara,s,katiba,jokofu,mikopo,NA,NA,NA,NA,NA,NA,NA,NA,NA,NA,NA,NA,NA,NA,NA,NA,NA,NA,NA,NA,NA,NA,NA
8fd59,"""Falsch""-Screen",canvas.Screen,1_1_2_1_2,NA,NA,timeout,4996.4540000001,1896031.2,1896018.718,1896034.849,1901014.642,1901015.4000001,2023-04-28T15:56:41Z,1901031.303,"c(""distractor1"", ""distractor2"", ""distractor3"")",Gegenwart,hadhara,s,katiba,jokofu,mikopo,NA,NA,0,NA,NA,NA,NA,NA,NA,NA,NA,NA,NA,NA,NA,NA,NA,NA,NA,NA,NA,NA,NA
8fd59,shallow,flow.Sequence,1_1_2_1,NA,NA,completion,9609.2849999999,1891392.7,1891388.801,1891405.357,1901014.642,1901015.8000001,2023-04-28T15:56:41Z,1901031.303,"c(""distractor1"", ""distractor2"", ""distractor3"")",Gegenwart,hadhara,s,katiba,jokofu,mikopo,NA,NA,NA,NA,NA,NA,NA,NA,NA,NA,NA,NA,NA,NA,NA,NA,NA,NA,NA,NA,NA,NA,NA
8fd59,task,flow.Sequence,1_1_2,NA,NA,completion,9609.2849999999,1891392.3000001,1891388.801,1891405.357,1901014.642,1901016,2023-04-28T15:56:41Z,1901031.303,"c(""distractor1"", ""distractor2"", ""distractor3"")",Gegenwart,hadhara,s,katiba,jokofu,mikopo,NA,NA,NA,NA,NA,NA,NA,NA,NA,NA,NA,NA,NA,NA,NA,NA,NA,NA,NA,NA,NA,NA,NA
8fd59,Deep Question,html.Page,1_1_3_0_0,NA,NA,form submission,2343.6969999999,1901016.2,1901014.642,1901031.303,1903375,1903375.2,2023-04-28T15:56:43Z,1903378.769,"c(""distractor1"", ""distractor2"", ""distractor3"")",Schatten,kivuli,d,NA,NA,NA,h,NA,NA,NA,NA,NA,NA,NA,NA,NA,NA,NA,NA,NA,NA,NA,NA,NA,NA,NA,NA,NA,NA
8fd59,"""Richtig""-Screen",canvas.Screen,1_1_3_0_1,NA,NA,skipped,NA,1903377.3000001,NA,NA,1903375,1903377.5,2023-04-28T15:56:43Z,1903378.769,"c(""distractor1"", ""distractor2"", ""distractor3"")",Schatten,kivuli,d,NA,NA,NA,NA,NA,NA,NA,NA,NA,NA,NA,NA,NA,NA,NA,NA,NA,NA,NA,NA,NA,NA,NA,NA,NA,NA
8fd59,"""Falsch""-Screen",canvas.Screen,1_1_3_0_2,NA,NA,timeout,4996.578,1903378.2,1903362.737,1903378.769,1908358.787,1908359.3000001,2023-04-28T15:56:48Z,1908375.347,"c(""distractor1"", ""distractor2"", ""distractor3"")",Schatten,kivuli,d,NA,NA,NA,NA,NA,0,NA,NA,NA,NA,NA,NA,NA,NA,NA,NA,NA,NA,NA,NA,NA,NA,NA,NA,NA,NA
8fd59,deep,flow.Sequence,1_1_3_0,NA,NA,completion,7327.4839999999,1901016.1,1901014.642,1901031.303,1908358.787,1908359.4000001,2023-04-28T15:56:48Z,1908375.347,"c(""distractor1"", ""distractor2"", ""distractor3"")",Schatten,kivuli,d,NA,NA,NA,NA,NA,NA,NA,NA,NA,NA,NA,NA,NA,NA,NA,NA,NA,NA,NA,NA,NA,NA,NA,NA,NA,NA
8fd59,shallow,flow.Sequence,1_1_3_1,NA,NA,skipped,NA,1908359.5,NA,NA,1908358.787,1908359.5,2023-04-28T15:56:48Z,1908375.347,"c(""distractor1"", ""distractor2"", ""distractor3"")",Schatten,kivuli,d,NA,NA,NA,NA,NA,NA,NA,NA,NA,NA,NA,NA,NA,NA,NA,NA,NA,NA,NA,NA,NA,NA,NA,NA,NA,NA
8fd59,task,flow.Sequence,1_1_3,NA,NA,completion,7327.4839999999,1901016.1,1901014.642,1901031.303,1908358.787,1908359.6,2023-04-28T15:56:48Z,1908375.347,"c(""distractor1"", ""distractor2"", ""distractor3"")",Schatten,kivuli,d,NA,NA,NA,NA,NA,NA,NA,NA,NA,NA,NA,NA,NA,NA,NA,NA,NA,NA,NA,NA,NA,NA,NA,NA,NA,NA
8fd59,deep,flow.Sequence,1_1_4_0,NA,NA,skipped,NA,1908359.7,NA,NA,1908358.787,1908359.8000001,2023-04-28T15:56:48Z,1908375.347,"c(""distractor1"", ""distractor2"", ""distractor3"")",Kritik,lawama,s,dereva,nafasi,mawazo,NA,NA,NA,NA,NA,NA,NA,NA,NA,NA,NA,NA,NA,NA,NA,NA,NA,NA,NA,NA,NA,NA,NA
8fd59,Shallow Question,html.Page,1_1_4_1_0,NA,NA,form submission,5419.2530000238,1908359.9000001,1908358.787,1908375.347,1913794.6,1913794.8000001,2023-04-28T15:56:53Z,1913803.569,"c(""distractor1"", ""distractor2"", ""distractor3"")",Kritik,lawama,s,dereva,nafasi,mawazo,mawazo,NA,NA,NA,NA,NA,NA,NA,NA,NA,NA,NA,NA,NA,NA,NA,NA,NA,NA,NA,NA,NA,NA
8fd59,"""Richtig""-Screen",canvas.Screen,1_1_4_1_1,NA,NA,skipped,NA,1913796.7,NA,NA,1913794.6,1913796.9000001,2023-04-28T15:56:53Z,1913803.569,"c(""distractor1"", ""distractor2"", ""distractor3"")",Kritik,lawama,s,dereva,nafasi,mawazo,NA,NA,NA,NA,NA,NA,NA,NA,NA,NA,NA,NA,NA,NA,NA,NA,NA,NA,NA,NA,NA,NA,NA
8fd59,"""Falsch""-Screen",canvas.Screen,1_1_4_1_2,NA,NA,timeout,4995.8640000001,1913797.5,1913787.406,1913803.569,1918782.918,1918785.6,2023-04-28T15:56:58Z,1918799.433,"c(""distractor1"", ""distractor2"", ""distractor3"")",Kritik,lawama,s,dereva,nafasi,mawazo,NA,NA,0,NA,NA,NA,NA,NA,NA,NA,NA,NA,NA,NA,NA,NA,NA,NA,NA,NA,NA,NA,NA
8fd59,shallow,flow.Sequence,1_1_4_1,NA,NA,completion,10407.571,1908359.9000001,1908358.787,1908375.347,1918782.918,1918786,2023-04-28T15:56:58Z,1918799.433,"c(""distractor1"", ""distractor2"", ""distractor3"")",Kritik,lawama,s,dereva,nafasi,mawazo,NA,NA,NA,NA,NA,NA,NA,NA,NA,NA,NA,NA,NA,NA,NA,NA,NA,NA,NA,NA,NA,NA,NA
8fd59,task,flow.Sequence,1_1_4,NA,NA,completion,10407.571,1908359.7,1908358.787,1908375.347,1918782.918,1918786.3000001,2023-04-28T15:56:58Z,1918799.433,"c(""distractor1"", ""distractor2"", ""distractor3"")",Kritik,lawama,s,dereva,nafasi,mawazo,NA,NA,NA,NA,NA,NA,NA,NA,NA,NA,NA,NA,NA,NA,NA,NA,NA,NA,NA,NA,NA,NA,NA
8fd59,deep,flow.Sequence,1_1_5_0,NA,NA,skipped,NA,1918786.6,NA,NA,1918782.918,1918786.7,2023-04-28T15:56:58Z,1918799.433,"c(""distractor1"", ""distractor2"", ""distractor3"")",Rückhalt,msaada,s,muhula,auwali,kiwimbe,NA,NA,NA,NA,NA,NA,NA,NA,NA,NA,NA,NA,NA,NA,NA,NA,NA,NA,NA,NA,NA,NA,NA
8fd59,Shallow Question,html.Page,1_1_5_1_0,NA,NA,form submission,4825.4670000954,1918786.9000001,1918782.918,1918799.433,1923624.9000001,1923625.1,2023-04-28T15:57:03Z,1923628.794,"c(""distractor1"", ""distractor2"", ""distractor3"")",Rückhalt,msaada,s,muhula,auwali,kiwimbe,auwali,NA,NA,NA,NA,NA,NA,NA,NA,NA,NA,NA,NA,NA,NA,NA,NA,NA,NA,NA,NA,NA,NA
8fd59,"""Richtig""-Screen",canvas.Screen,1_1_5_1_1,NA,NA,skipped,NA,1923627.1,NA,NA,1923624.9000001,1923627.3000001,2023-04-28T15:57:03Z,1923628.794,"c(""distractor1"", ""distractor2"", ""distractor3"")",Rückhalt,msaada,s,muhula,auwali,kiwimbe,NA,NA,NA,NA,NA,NA,NA,NA,NA,NA,NA,NA,NA,NA,NA,NA,NA,NA,NA,NA,NA,NA,NA
8fd59,"""Falsch""-Screen",canvas.Screen,1_1_5_1_2,NA,NA,timeout,4996.47,1923628,1923612.255,1923628.794,1928608.28,1928609.2,2023-04-28T15:57:08Z,1928625.264,"c(""distractor1"", ""distractor2"", ""distractor3"")",Rückhalt,msaada,s,muhula,auwali,kiwimbe,NA,NA,0,NA,NA,NA,NA,NA,NA,NA,NA,NA,NA,NA,NA,NA,NA,NA,NA,NA,NA,NA,NA
8fd59,shallow,flow.Sequence,1_1_5_1,NA,NA,completion,9808.8470000001,1918786.9000001,1918782.918,1918799.433,1928608.28,1928609.6,2023-04-28T15:57:08Z,1928625.264,"c(""distractor1"", ""distractor2"", ""distractor3"")",Rückhalt,msaada,s,muhula,auwali,kiwimbe,NA,NA,NA,NA,NA,NA,NA,NA,NA,NA,NA,NA,NA,NA,NA,NA,NA,NA,NA,NA,NA,NA,NA
8fd59,task,flow.Sequence,1_1_5,NA,NA,completion,9808.8470000001,1918786.5,1918782.918,1918799.433,1928608.28,1928610,2023-04-28T15:57:08Z,1928625.264,"c(""distractor1"", ""distractor2"", ""distractor3"")",Rückhalt,msaada,s,muhula,auwali,kiwimbe,NA,NA,NA,NA,NA,NA,NA,NA,NA,NA,NA,NA,NA,NA,NA,NA,NA,NA,NA,NA,NA,NA,NA
8fd59,block,flow.Loop,1_1,NA,NA,completion,55620.826,1872974.2,1872970.213,1872987.454,1928608.28,1928610.4000001,2023-04-28T15:57:08Z,1928625.264,"c(""distractor1"", ""distractor2"", ""distractor3"")",NA,NA,NA,NA,NA,NA,NA,NA,NA,NA,NA,NA,NA,NA,NA,NA,NA,NA,NA,NA,NA,NA,NA,NA,NA,NA,NA,NA,NA
8fd59,Practice,flow.Sequence,1,NA,NA,completion,59867.613,1868737.7,1868718.84,1868740.667,1928608.28,1928610.7,2023-04-28T15:57:08Z,1928625.264,NULL,NA,NA,NA,NA,NA,NA,NA,NA,NA,NA,NA,NA,NA,NA,NA,NA,NA,NA,NA,NA,NA,NA,NA,NA,NA,NA,NA,NA,NA
8fd59,Experiment start,canvas.Screen,2,weiter,keypress(q),response,8182.4360000477,1928610.9000001,1928608.28,1928625.264,1936807.7,1936809.1,2023-04-28T15:57:16Z,1936933.355,NULL,NA,NA,NA,NA,NA,NA,NA,NA,NA,NA,NA,NA,NA,NA,NA,NA,NA,NA,NA,NA,NA,NA,NA,NA,NA,NA,NA,NA,NA
8fd59,Deep Question,html.Page,3_0_0_0_0_0_0,NA,NA,form submission,3765.145,1936900,1936884.721,1936933.355,1940698.5,1940698.7,2023-04-28T15:57:20Z,1940731.745,NULL,Gefährdung,kuhatarisha,d,NA,NA,NA,h,NA,NA,0,NA,NA,NA,NA,NA,NA,NA,NA,NA,NA,NA,NA,NA,NA,NA,NA,NA,NA,NA
8fd59,"""Richtig""-Screen",canvas.Screen,3_0_0_0_0_0_1,NA,NA,skipped,NA,1940699.4000001,NA,NA,1940698.5,1940699.5,2023-04-28T15:57:20Z,1940731.745,NULL,Gefährdung,kuhatarisha,d,NA,NA,NA,NA,sdf,NA,0,NA,NA,NA,NA,NA,NA,NA,NA,NA,NA,NA,NA,NA,NA,NA,NA,NA,NA,NA
8fd59,"""Falsch""-Screen",canvas.Screen,3_0_0_0_0_0_2,NA,NA,timeout,4995.6339999998,1940700.2,1940715.525,1940731.745,1945711.197,1945712.1,2023-04-28T15:57:25Z,1945727.379,NULL,Gefährdung,kuhatarisha,d,NA,NA,NA,NA,sdf,0,0,NA,NA,NA,NA,NA,NA,NA,NA,NA,NA,NA,NA,NA,NA,NA,NA,NA,NA,NA
8fd59,deep,flow.Sequence,3_0_0_0_0_0,NA,NA,completion,8777.8419999999,1936900,1936884.721,1936933.355,1945711.197,1945712.6,2023-04-28T15:57:25Z,1945727.379,NULL,Gefährdung,kuhatarisha,d,NA,NA,NA,NA,sdf,NA,0,NA,NA,NA,NA,NA,NA,NA,NA,NA,NA,NA,NA,NA,NA,NA,NA,NA,NA,NA
8fd59,shallow,flow.Sequence,3_0_0_0_0_1,NA,NA,skipped,NA,1945712.8000001,NA,NA,1945711.197,1945712.9000001,2023-04-28T15:57:25Z,1945727.379,NULL,Gefährdung,kuhatarisha,d,NA,NA,NA,NA,sdf,NA,0,NA,NA,NA,NA,NA,NA,NA,NA,NA,NA,NA,NA,NA,NA,NA,NA,NA,NA,NA
8fd59,task,flow.Sequence,3_0_0_0_0,NA,NA,completion,8777.8419999999,1936899.9000001,1936884.721,1936933.355,1945711.197,1945713.2,2023-04-28T15:57:25Z,1945727.379,NULL,Gefährdung,kuhatarisha,d,NA,NA,NA,NA,sdf,NA,0,NA,NA,NA,NA,NA,NA,NA,NA,NA,NA,NA,NA,NA,NA,NA,NA,NA,NA,NA
8fd59,deep,flow.Sequence,3_0_0_0_1_0,NA,NA,skipped,NA,1945713.4000001,NA,NA,1945711.197,1945713.5,2023-04-28T15:57:25Z,1945727.379,NULL,Respekt,heshima,s,changamnao,upinzani,ufanisi,NA,sdf,NA,0,NA,NA,NA,NA,NA,NA,NA,NA,NA,NA,NA,NA,NA,NA,NA,NA,NA,NA,NA
8fd59,Shallow Question,html.Page,3_0_0_0_1_1_0,NA,NA,form submission,5655.0210000954,1945713.6,1945711.197,1945727.379,1951382.4000001,1951382.6,2023-04-28T15:57:31Z,1951389.324,NULL,Respekt,heshima,s,changamnao,upinzani,ufanisi,changamnao,NA,NA,0,NA,NA,NA,NA,NA,NA,NA,NA,NA,NA,NA,NA,NA,NA,NA,NA,NA,NA,NA
8fd59,"""Richtig""-Screen",canvas.Screen,3_0_0_0_1_1_1,NA,NA,skipped,NA,1951384.5,NA,NA,1951382.4000001,1951384.6,2023-04-28T15:57:31Z,1951389.324,NULL,Respekt,heshima,s,changamnao,upinzani,ufanisi,NA,sdf,NA,0,NA,NA,NA,NA,NA,NA,NA,NA,NA,NA,NA,NA,NA,NA,NA,NA,NA,NA,NA
8fd59,"""Falsch""-Screen",canvas.Screen,3_0_0_0_1_1_2,NA,NA,timeout,4996.1410000001,1951385.1,1951373.158,1951389.324,1956369.163,1956370.2,2023-04-28T15:57:36Z,1956385.465,NULL,Respekt,heshima,s,changamnao,upinzani,ufanisi,NA,sdf,0,0,NA,NA,NA,NA,NA,NA,NA,NA,NA,NA,NA,NA,NA,NA,NA,NA,NA,NA,NA
8fd59,shallow,flow.Sequence,3_0_0_0_1_1,NA,NA,completion,10641.784,1945713.6,1945711.197,1945727.379,1956369.163,1956370.6,2023-04-28T15:57:36Z,1956385.465,NULL,Respekt,heshima,s,changamnao,upinzani,ufanisi,NA,sdf,NA,0,NA,NA,NA,NA,NA,NA,NA,NA,NA,NA,NA,NA,NA,NA,NA,NA,NA,NA,NA
8fd59,task,flow.Sequence,3_0_0_0_1,NA,NA,completion,10641.784,1945713.3000001,1945711.197,1945727.379,1956369.163,1956370.8000001,2023-04-28T15:57:36Z,1956385.465,NULL,Respekt,heshima,s,changamnao,upinzani,ufanisi,NA,sdf,NA,0,NA,NA,NA,NA,NA,NA,NA,NA,NA,NA,NA,NA,NA,NA,NA,NA,NA,NA,NA
8fd59,Deep Question,html.Page,3_0_0_0_2_0_0,NA,NA,form submission,2573.0349999999,1956371,1956369.163,1956385.465,1958958.5,1958958.7,2023-04-28T15:57:39Z,1958966.426,NULL,Stimmung,kinyongo,d,NA,NA,NA,h,NA,NA,0,NA,NA,NA,NA,NA,NA,NA,NA,NA,NA,NA,NA,NA,NA,NA,NA,NA,NA,NA
8fd59,"""Richtig""-Screen",canvas.Screen,3_0_0_0_2_0_1,NA,NA,skipped,NA,1958960.8000001,NA,NA,1958958.5,1958961,2023-04-28T15:57:39Z,1958966.426,NULL,Stimmung,kinyongo,d,NA,NA,NA,NA,sdf,NA,0,NA,NA,NA,NA,NA,NA,NA,NA,NA,NA,NA,NA,NA,NA,NA,NA,NA,NA,NA
8fd59,"""Falsch""-Screen",canvas.Screen,3_0_0_0_2_0_2,NA,NA,timeout,4996.2220000001,1958961.5,1958950.385,1958966.426,1963946.21,1963947.1,2023-04-28T15:57:44Z,1963962.648,NULL,Stimmung,kinyongo,d,NA,NA,NA,NA,sdf,0,0,NA,NA,NA,NA,NA,NA,NA,NA,NA,NA,NA,NA,NA,NA,NA,NA,NA,NA,NA
8fd59,deep,flow.Sequence,3_0_0_0_2_0,NA,NA,completion,7560.7449999999,1956371,1956369.163,1956385.465,1963946.21,1963947.4000001,2023-04-28T15:57:44Z,1963962.648,NULL,Stimmung,kinyongo,d,NA,NA,NA,NA,sdf,NA,0,NA,NA,NA,NA,NA,NA,NA,NA,NA,NA,NA,NA,NA,NA,NA,NA,NA,NA,NA
8fd59,shallow,flow.Sequence,3_0_0_0_2_1,NA,NA,skipped,NA,1963947.6,NA,NA,1963946.21,1963947.8000001,2023-04-28T15:57:44Z,1963962.648,NULL,Stimmung,kinyongo,d,NA,NA,NA,NA,sdf,NA,0,NA,NA,NA,NA,NA,NA,NA,NA,NA,NA,NA,NA,NA,NA,NA,NA,NA,NA,NA
8fd59,task,flow.Sequence,3_0_0_0_2,NA,NA,completion,7560.7449999999,1956371,1956369.163,1956385.465,1963946.21,1963948,2023-04-28T15:57:44Z,1963962.648,NULL,Stimmung,kinyongo,d,NA,NA,NA,NA,sdf,NA,0,NA,NA,NA,NA,NA,NA,NA,NA,NA,NA,NA,NA,NA,NA,NA,NA,NA,NA,NA
8fd59,deep,flow.Sequence,3_0_0_0_3_0,NA,NA,skipped,NA,1963948.2,NA,NA,1963946.21,1963948.3000001,2023-04-28T15:57:44Z,1963962.648,NULL,Können,unaweza,s,kiongozi,bustani,mienendo,NA,sdf,NA,0,NA,NA,NA,NA,NA,NA,NA,NA,NA,NA,NA,NA,NA,NA,NA,NA,NA,NA,NA
8fd59,Shallow Question,html.Page,3_0_0_0_3_1_0,NA,NA,form submission,4490.5520000476,1963948.5,1963946.21,1963962.648,1968453.2,1968453.4000001,2023-04-28T15:57:48Z,1968458.617,NULL,Können,unaweza,s,kiongozi,bustani,mienendo,bustani,NA,NA,0,NA,NA,NA,NA,NA,NA,NA,NA,NA,NA,NA,NA,NA,NA,NA,NA,NA,NA,NA
8fd59,"""Richtig""-Screen",canvas.Screen,3_0_0_0_3_1_1,NA,NA,skipped,NA,1968455.3000001,NA,NA,1968453.2,1968455.3000001,2023-04-28T15:57:48Z,1968458.617,NULL,Können,unaweza,s,kiongozi,bustani,mienendo,NA,sdf,NA,0,NA,NA,NA,NA,NA,NA,NA,NA,NA,NA,NA,NA,NA,NA,NA,NA,NA,NA,NA
8fd59,"""Falsch""-Screen",canvas.Screen,3_0_0_0_3_1_2,NA,NA,timeout,4996.351,1968456.3000001,1968442.527,1968458.617,1973437.996,1973439.9000001,2023-04-28T15:57:53Z,1973454.968,NULL,Können,unaweza,s,kiongozi,bustani,mienendo,NA,sdf,0,0,NA,NA,NA,NA,NA,NA,NA,NA,NA,NA,NA,NA,NA,NA,NA,NA,NA,NA,NA
8fd59,shallow,flow.Sequence,3_0_0_0_3_1,NA,NA,completion,9475.348,1963948.5,1963946.21,1963962.648,1973437.996,1973440.4000001,2023-04-28T15:57:53Z,1973454.968,NULL,Können,unaweza,s,kiongozi,bustani,mienendo,NA,sdf,NA,0,NA,NA,NA,NA,NA,NA,NA,NA,NA,NA,NA,NA,NA,NA,NA,NA,NA,NA,NA
8fd59,task,flow.Sequence,3_0_0_0_3,NA,NA,completion,9475.348,1963948.2,1963946.21,1963962.648,1973437.996,1973440.6,2023-04-28T15:57:53Z,1973454.968,NULL,Können,unaweza,s,kiongozi,bustani,mienendo,NA,sdf,NA,0,NA,NA,NA,NA,NA,NA,NA,NA,NA,NA,NA,NA,NA,NA,NA,NA,NA,NA,NA
8fd59,Deep Question,html.Page,3_0_0_0_4_0_0,NA,NA,form submission,2634.2320000476,1973441,1973437.996,1973454.968,1976089.2,1976089.4000001,2023-04-28T15:57:56Z,1976102.649,NULL,Kontrolle,kudhibiti,d,NA,NA,NA,h,NA,NA,0,NA,NA,NA,NA,NA,NA,NA,NA,NA,NA,NA,NA,NA,NA,NA,NA,NA,NA,NA
8fd59,"""Richtig""-Screen",canvas.Screen,3_0_0_0_4_0_1,NA,NA,skipped,NA,1976091.3000001,NA,NA,1976089.2,1976091.5,2023-04-28T15:57:56Z,1976102.649,NULL,Kontrolle,kudhibiti,d,NA,NA,NA,NA,sdf,NA,0,NA,NA,NA,NA,NA,NA,NA,NA,NA,NA,NA,NA,NA,NA,NA,NA,NA,NA,NA
8fd59,"""Falsch""-Screen",canvas.Screen,3_0_0_0_4_0_2,NA,NA,timeout,4996.2560000001,1976091.9000001,1976086.091,1976102.649,1981081.644,1981083.5,2023-04-28T15:58:01Z,1981098.905,NULL,Kontrolle,kudhibiti,d,NA,NA,NA,NA,sdf,0,0,NA,NA,NA,NA,NA,NA,NA,NA,NA,NA,NA,NA,NA,NA,NA,NA,NA,NA,NA
8fd59,deep,flow.Sequence,3_0_0_0_4_0,NA,NA,completion,7626.676,1973440.8000001,1973437.996,1973454.968,1981081.644,1981083.6,2023-04-28T15:58:01Z,1981098.905,NULL,Kontrolle,kudhibiti,d,NA,NA,NA,NA,sdf,NA,0,NA,NA,NA,NA,NA,NA,NA,NA,NA,NA,NA,NA,NA,NA,NA,NA,NA,NA,NA
8fd59,shallow,flow.Sequence,3_0_0_0_4_1,NA,NA,skipped,NA,1981083.7,NA,NA,1981081.644,1981083.7,2023-04-28T15:58:01Z,1981098.905,NULL,Kontrolle,kudhibiti,d,NA,NA,NA,NA,sdf,NA,0,NA,NA,NA,NA,NA,NA,NA,NA,NA,NA,NA,NA,NA,NA,NA,NA,NA,NA,NA
8fd59,task,flow.Sequence,3_0_0_0_4,NA,NA,completion,7626.676,1973440.8000001,1973437.996,1973454.968,1981081.644,1981083.8000001,2023-04-28T15:58:01Z,1981098.905,NULL,Kontrolle,kudhibiti,d,NA,NA,NA,NA,sdf,NA,0,NA,NA,NA,NA,NA,NA,NA,NA,NA,NA,NA,NA,NA,NA,NA,NA,NA,NA,NA
8fd59,Deep Question,html.Page,3_0_0_0_5_0_0,NA,NA,form submission,2718.6950000238,1981083.9000001,1981081.644,1981098.905,1983817.6,1983817.9000001,2023-04-28T15:58:03Z,1983829.521,NULL,Betrüger,mdanganyifu,d,NA,NA,NA,h,NA,NA,0,NA,NA,NA,NA,NA,NA,NA,NA,NA,NA,NA,NA,NA,NA,NA,NA,NA,NA,NA
8fd59,"""Richtig""-Screen",canvas.Screen,3_0_0_0_5_0_1,NA,NA,skipped,NA,1983819.9000001,NA,NA,1983817.6,1983820,2023-04-28T15:58:03Z,1983829.521,NULL,Betrüger,mdanganyifu,d,NA,NA,NA,NA,sdf,NA,0,NA,NA,NA,NA,NA,NA,NA,NA,NA,NA,NA,NA,NA,NA,NA,NA,NA,NA,NA
8fd59,"""Falsch""-Screen",canvas.Screen,3_0_0_0_5_0_2,NA,NA,timeout,4996.135,1983820.6,1983813.278,1983829.521,1988809.206,1988809.7,2023-04-28T15:58:08Z,1988825.656,NULL,Betrüger,mdanganyifu,d,NA,NA,NA,NA,sdf,0,0,NA,NA,NA,NA,NA,NA,NA,NA,NA,NA,NA,NA,NA,NA,NA,NA,NA,NA,NA
8fd59,deep,flow.Sequence,3_0_0_0_5_0,NA,NA,completion,7710.301,1981083.9000001,1981081.644,1981098.905,1988809.206,1988810,2023-04-28T15:58:08Z,1988825.656,NULL,Betrüger,mdanganyifu,d,NA,NA,NA,NA,sdf,NA,0,NA,NA,NA,NA,NA,NA,NA,NA,NA,NA,NA,NA,NA,NA,NA,NA,NA,NA,NA
8fd59,shallow,flow.Sequence,3_0_0_0_5_1,NA,NA,skipped,NA,1988810.1,NA,NA,1988809.206,1988810.2,2023-04-28T15:58:08Z,1988825.656,NULL,Betrüger,mdanganyifu,d,NA,NA,NA,NA,sdf,NA,0,NA,NA,NA,NA,NA,NA,NA,NA,NA,NA,NA,NA,NA,NA,NA,NA,NA,NA,NA
8fd59,task,flow.Sequence,3_0_0_0_5,NA,NA,completion,7710.301,1981083.8000001,1981081.644,1981098.905,1988809.206,1988810.3000001,2023-04-28T15:58:08Z,1988825.656,NULL,Betrüger,mdanganyifu,d,NA,NA,NA,NA,sdf,NA,0,NA,NA,NA,NA,NA,NA,NA,NA,NA,NA,NA,NA,NA,NA,NA,NA,NA,NA,NA
8fd59,deep,flow.Sequence,3_0_0_0_6_0,NA,NA,skipped,NA,1988810.4000001,NA,NA,1988809.206,1988810.4000001,2023-04-28T15:58:08Z,1988825.656,NULL,Orientierung,urekebisho,s,uelekeo,marekebisho,utunzaji,NA,sdf,NA,0,NA,NA,NA,NA,NA,NA,NA,NA,NA,NA,NA,NA,NA,NA,NA,NA,NA,NA,NA
8fd59,Shallow Question,html.Page,3_0_0_0_6_1_0,NA,NA,form submission,4591.7440000954,1988810.5,1988809.206,1988825.656,1993417.4000001,1993417.6,2023-04-28T15:58:13Z,1993421.429,NULL,Orientierung,urekebisho,s,uelekeo,marekebisho,utunzaji,marekebisho,NA,NA,0,NA,NA,NA,NA,NA,NA,NA,NA,NA,NA,NA,NA,NA,NA,NA,NA,NA,NA,NA
8fd59,"""Richtig""-Screen",canvas.Screen,3_0_0_0_6_1_1,NA,NA,skipped,NA,1993419.5,NA,NA,1993417.4000001,1993419.6,2023-04-28T15:58:13Z,1993421.429,NULL,Orientierung,urekebisho,s,uelekeo,marekebisho,utunzaji,NA,sdf,NA,0,NA,NA,NA,NA,NA,NA,NA,NA,NA,NA,NA,NA,NA,NA,NA,NA,NA,NA,NA
8fd59,"""Falsch""-Screen",canvas.Screen,3_0_0_0_6_1_2,NA,NA,timeout,4996.416,1993420.2,1993405.293,1993421.429,1998401.277,1998402.2,2023-04-28T15:58:18Z,1998417.845,NULL,Orientierung,urekebisho,s,uelekeo,marekebisho,utunzaji,NA,sdf,0,0,NA,NA,NA,NA,NA,NA,NA,NA,NA,NA,NA,NA,NA,NA,NA,NA,NA,NA,NA
8fd59,shallow,flow.Sequence,3_0_0_0_6_1,NA,NA,completion,9575.621,1988810.5,1988809.206,1988825.656,1998401.277,1998402.7,2023-04-28T15:58:18Z,1998417.845,NULL,Orientierung,urekebisho,s,uelekeo,marekebisho,utunzaji,NA,sdf,NA,0,NA,NA,NA,NA,NA,NA,NA,NA,NA,NA,NA,NA,NA,NA,NA,NA,NA,NA,NA
8fd59,task,flow.Sequence,3_0_0_0_6,NA,NA,completion,9575.621,1988810.3000001,1988809.206,1988825.656,1998401.277,1998403,2023-04-28T15:58:18Z,1998417.845,NULL,Orientierung,urekebisho,s,uelekeo,marekebisho,utunzaji,NA,sdf,NA,0,NA,NA,NA,NA,NA,NA,NA,NA,NA,NA,NA,NA,NA,NA,NA,NA,NA,NA,NA
8fd59,deep,flow.Sequence,3_0_0_0_7_0,NA,NA,skipped,NA,1998403.2,NA,NA,1998401.277,1998403.4000001,2023-04-28T15:58:18Z,1998417.845,NULL,Kreativität,ubunifu,s,mratibu,mwendelezo,makubaliano,NA,sdf,NA,0,NA,NA,NA,NA,NA,NA,NA,NA,NA,NA,NA,NA,NA,NA,NA,NA,NA,NA,NA
8fd59,Shallow Question,html.Page,3_0_0_0_7_1_0,NA,NA,form submission,7053.655,1998403.6,1998401.277,1998417.845,2005471.5,2005471.7,2023-04-28T15:58:25Z,2005478.175,NULL,Kreativität,ubunifu,s,mratibu,mwendelezo,makubaliano,mratibu,NA,NA,0,NA,NA,NA,NA,NA,NA,NA,NA,NA,NA,NA,NA,NA,NA,NA,NA,NA,NA,NA
8fd59,"""Richtig""-Screen",canvas.Screen,3_0_0_0_7_1_1,NA,NA,skipped,NA,2005473.7,NA,NA,2005471.5,2005473.7,2023-04-28T15:58:25Z,2005478.175,NULL,Kreativität,ubunifu,s,mratibu,mwendelezo,makubaliano,NA,sdf,NA,0,NA,NA,NA,NA,NA,NA,NA,NA,NA,NA,NA,NA,NA,NA,NA,NA,NA,NA,NA
8fd59,"""Falsch""-Screen",canvas.Screen,3_0_0_0_7_1_2,NA,NA,timeout,4996.6739999999,2005474.4000001,2005462.262,2005478.175,2010458.077,2010459,2023-04-28T15:58:30Z,2010474.849,NULL,Kreativität,ubunifu,s,mratibu,mwendelezo,makubaliano,NA,sdf,0,0,NA,NA,NA,NA,NA,NA,NA,NA,NA,NA,NA,NA,NA,NA,NA,NA,NA,NA,NA
8fd59,shallow,flow.Sequence,3_0_0_0_7_1,NA,NA,completion,12040.232,1998403.6,1998401.277,1998417.845,2010458.077,2010459.6,2023-04-28T15:58:30Z,2010474.849,NULL,Kreativität,ubunifu,s,mratibu,mwendelezo,makubaliano,NA,sdf,NA,0,NA,NA,NA,NA,NA,NA,NA,NA,NA,NA,NA,NA,NA,NA,NA,NA,NA,NA,NA
8fd59,task,flow.Sequence,3_0_0_0_7,NA,NA,completion,12040.232,1998403.2,1998401.277,1998417.845,2010458.077,2010459.8000001,2023-04-28T15:58:30Z,2010474.849,NULL,Kreativität,ubunifu,s,mratibu,mwendelezo,makubaliano,NA,sdf,NA,0,NA,NA,NA,NA,NA,NA,NA,NA,NA,NA,NA,NA,NA,NA,NA,NA,NA,NA,NA
8fd59,block,flow.Loop,3_0_0_0,NA,NA,completion,73524.722,1936899.9000001,1936884.721,1936933.355,2010458.077,2010460,2023-04-28T15:58:30Z,2010474.849,NULL,NA,NA,NA,NA,NA,NA,NA,sdf,NA,0,NA,NA,NA,NA,NA,NA,NA,NA,NA,NA,NA,NA,NA,NA,NA,NA,NA,NA,NA
8fd59,weiter,canvas.Screen,3_0_0_1,sdf,keypress(Space),response,1235.2510000239,2010460.2,2010458.077,2010474.849,2011710.1,2011710.6,2023-04-28T15:58:31Z,2011739.686,NULL,NA,NA,NA,NA,NA,NA,NA,sdf,NA,0,NA,NA,NA,NA,NA,NA,NA,NA,NA,NA,NA,NA,NA,NA,NA,NA,NA,NA,NA
8fd59,check continue,flow.Sequence,3_0_0,NA,NA,completion,74776.745000024,1936899.9000001,1936884.721,1936933.355,2011710.1,2011710.8000001,2023-04-28T15:58:31Z,2011739.686,NULL,NA,NA,NA,NA,NA,NA,NA,sdf,NA,0,NA,NA,NA,NA,NA,NA,NA,NA,NA,NA,NA,NA,NA,NA,NA,NA,NA,NA,NA
8fd59,deep,flow.Sequence,3_0_1_0_0_0,NA,NA,skipped,NA,2011736.4000001,NA,NA,2011710.1,2011736.4000001,2023-04-28T15:58:31Z,2011739.686,NULL,Kreativität,ubunifu,s,mratibu,mwendelezo,makubaliano,NA,sdfdsf,NA,1,NA,NA,NA,NA,NA,NA,NA,NA,NA,NA,NA,NA,NA,NA,NA,NA,NA,NA,NA
8fd59,Shallow Question,html.Page,3_0_1_0_0_1_0,NA,NA,form submission,3931.5140000477,2011736.4000001,2011723.674,2011739.686,2015671.2,2015671.5,2023-04-28T15:58:35Z,2015686.929,NULL,Kreativität,ubunifu,s,mratibu,mwendelezo,makubaliano,ubunifu,NA,NA,1,NA,NA,NA,NA,NA,NA,NA,NA,NA,NA,NA,NA,NA,NA,NA,NA,NA,NA,NA
8fd59,"""Richtig""-Screen",canvas.Screen,3_0_1_0_0_1_1,NA,NA,timeout,4995.8640000001,2015673.3000001,2015669.882,2015686.929,2020665.808,2020668,2023-04-28T15:58:40Z,2020682.793,NULL,Kreativität,ubunifu,s,mratibu,mwendelezo,makubaliano,NA,sdfdsf,1,1,NA,NA,NA,NA,NA,NA,NA,NA,NA,NA,NA,NA,NA,NA,NA,NA,NA,NA,NA
8fd59,"""Falsch""-Screen",canvas.Screen,3_0_1_0_0_1_2,NA,NA,skipped,NA,2020670.7,NA,NA,2020665.808,2020670.8000001,2023-04-28T15:58:40Z,2020682.793,NULL,Kreativität,ubunifu,s,mratibu,mwendelezo,makubaliano,NA,sdfdsf,NA,1,NA,NA,NA,NA,NA,NA,NA,NA,NA,NA,NA,NA,NA,NA,NA,NA,NA,NA,NA
8fd59,shallow,flow.Sequence,3_0_1_0_0_1,NA,NA,completion,8926.122,2011736.4000001,2011723.674,2011739.686,2020665.808,2020671,2023-04-28T15:58:40Z,2020682.793,NULL,Kreativität,ubunifu,s,mratibu,mwendelezo,makubaliano,NA,sdfdsf,NA,1,NA,NA,NA,NA,NA,NA,NA,NA,NA,NA,NA,NA,NA,NA,NA,NA,NA,NA,NA
8fd59,task,flow.Sequence,3_0_1_0_0,NA,NA,completion,8926.122,2011736.3000001,2011723.674,2011739.686,2020665.808,2020671.2,2023-04-28T15:58:40Z,2020682.793,NULL,Kreativität,ubunifu,s,mratibu,mwendelezo,makubaliano,NA,sdfdsf,NA,1,NA,NA,NA,NA,NA,NA,NA,NA,NA,NA,NA,NA,NA,NA,NA,NA,NA,NA,NA
8fd59,Deep Question,html.Page,3_0_1_0_1_0_0,NA,NA,form submission,2766.0070000715,2020671.4000001,2020665.808,2020682.793,2023448.8000001,2023449.1,2023-04-28T15:58:43Z,2023464.007,NULL,Betrüger,mdanganyifu,d,NA,NA,NA,h,NA,NA,1,NA,NA,NA,NA,NA,NA,NA,NA,NA,NA,NA,NA,NA,NA,NA,NA,NA,NA,NA
8fd59,"""Richtig""-Screen",canvas.Screen,3_0_1_0_1_0_1,NA,NA,skipped,NA,2023449.8000001,NA,NA,2023448.8000001,2023449.9000001,2023-04-28T15:58:43Z,2023464.007,NULL,Betrüger,mdanganyifu,d,NA,NA,NA,NA,sdfdsf,NA,1,NA,NA,NA,NA,NA,NA,NA,NA,NA,NA,NA,NA,NA,NA,NA,NA,NA,NA,NA
8fd59,"""Falsch""-Screen",canvas.Screen,3_0_1_0_1_0_2,NA,NA,timeout,4995.9890000001,2023450.5,2023447.318,2023464.007,2028442.742,2028443.7,2023-04-28T15:58:48Z,2028459.996,NULL,Betrüger,mdanganyifu,d,NA,NA,NA,NA,sdfdsf,0,1,NA,NA,NA,NA,NA,NA,NA,NA,NA,NA,NA,NA,NA,NA,NA,NA,NA,NA,NA
8fd59,deep,flow.Sequence,3_0_1_0_1_0,NA,NA,completion,7759.949,2020671.3000001,2020665.808,2020682.793,2028442.742,2028444.1,2023-04-28T15:58:48Z,2028459.996,NULL,Betrüger,mdanganyifu,d,NA,NA,NA,NA,sdfdsf,NA,1,NA,NA,NA,NA,NA,NA,NA,NA,NA,NA,NA,NA,NA,NA,NA,NA,NA,NA,NA
8fd59,shallow,flow.Sequence,3_0_1_0_1_1,NA,NA,skipped,NA,2028444.3000001,NA,NA,2028442.742,2028444.4000001,2023-04-28T15:58:48Z,2028459.996,NULL,Betrüger,mdanganyifu,d,NA,NA,NA,NA,sdfdsf,NA,1,NA,NA,NA,NA,NA,NA,NA,NA,NA,NA,NA,NA,NA,NA,NA,NA,NA,NA,NA
8fd59,task,flow.Sequence,3_0_1_0_1,NA,NA,completion,7759.949,2020671.2,2020665.808,2020682.793,2028442.742,2028444.7,2023-04-28T15:58:48Z,2028459.996,NULL,Betrüger,mdanganyifu,d,NA,NA,NA,NA,sdfdsf,NA,1,NA,NA,NA,NA,NA,NA,NA,NA,NA,NA,NA,NA,NA,NA,NA,NA,NA,NA,NA
8fd59,Deep Question,html.Page,3_0_1_0_2_0_0,NA,NA,form submission,3578.6040000238,2028444.9000001,2028442.742,2028459.996,2032038.6,2032038.7,2023-04-28T15:58:52Z,2032039.688,NULL,Gefährdung,kuhatarisha,d,NA,NA,NA,h,NA,NA,1,NA,NA,NA,NA,NA,NA,NA,NA,NA,NA,NA,NA,NA,NA,NA,NA,NA,NA,NA
8fd59,"""Richtig""-Screen",canvas.Screen,3_0_1_0_2_0_1,NA,NA,skipped,NA,2032040.7,NA,NA,2032038.6,2032040.9000001,2023-04-28T15:58:52Z,2032039.688,NULL,Gefährdung,kuhatarisha,d,NA,NA,NA,NA,sdfdsf,NA,1,NA,NA,NA,NA,NA,NA,NA,NA,NA,NA,NA,NA,NA,NA,NA,NA,NA,NA,NA
8fd59,"""Falsch""-Screen",canvas.Screen,3_0_1_0_2_0_2,NA,NA,timeout,4996.3809999998,2032041.5,2032023.576,2032039.688,2037019.388,2037020.3000001,2023-04-28T15:58:57Z,2037036.069,NULL,Gefährdung,kuhatarisha,d,NA,NA,NA,NA,sdfdsf,0,1,NA,NA,NA,NA,NA,NA,NA,NA,NA,NA,NA,NA,NA,NA,NA,NA,NA,NA,NA
8fd59,deep,flow.Sequence,3_0_1_0_2_0,NA,NA,completion,8559.392,2028444.9000001,2028442.742,2028459.996,2037019.388,2037020.8000001,2023-04-28T15:58:57Z,2037036.069,NULL,Gefährdung,kuhatarisha,d,NA,NA,NA,NA,sdfdsf,NA,1,NA,NA,NA,NA,NA,NA,NA,NA,NA,NA,NA,NA,NA,NA,NA,NA,NA,NA,NA
8fd59,shallow,flow.Sequence,3_0_1_0_2_1,NA,NA,skipped,NA,2037020.9000001,NA,NA,2037019.388,2037021.1,2023-04-28T15:58:57Z,2037036.069,NULL,Gefährdung,kuhatarisha,d,NA,NA,NA,NA,sdfdsf,NA,1,NA,NA,NA,NA,NA,NA,NA,NA,NA,NA,NA,NA,NA,NA,NA,NA,NA,NA,NA
8fd59,task,flow.Sequence,3_0_1_0_2,NA,NA,completion,8559.392,2028444.8000001,2028442.742,2028459.996,2037019.388,2037021.5,2023-04-28T15:58:57Z,2037036.069,NULL,Gefährdung,kuhatarisha,d,NA,NA,NA,NA,sdfdsf,NA,1,NA,NA,NA,NA,NA,NA,NA,NA,NA,NA,NA,NA,NA,NA,NA,NA,NA,NA,NA
8fd59,deep,flow.Sequence,3_0_1_0_3_0,NA,NA,skipped,NA,2037021.7,NA,NA,2037019.388,2037021.8000001,2023-04-28T15:58:57Z,2037036.069,NULL,Respekt,heshima,s,changamnao,upinzani,ufanisi,NA,sdfdsf,NA,1,NA,NA,NA,NA,NA,NA,NA,NA,NA,NA,NA,NA,NA,NA,NA,NA,NA,NA,NA
8fd59,Shallow Question,html.Page,3_0_1_0_3_1_0,NA,NA,form submission,6989.9310000001,2037022.1,2037019.388,2037036.069,2044026,2044026.3000001,2023-04-28T15:59:04Z,2044029.835,NULL,Respekt,heshima,s,changamnao,upinzani,ufanisi,ufanisi,NA,NA,1,NA,NA,NA,NA,NA,NA,NA,NA,NA,NA,NA,NA,NA,NA,NA,NA,NA,NA,NA
8fd59,"""Richtig""-Screen",canvas.Screen,3_0_1_0_3_1_1,NA,NA,skipped,NA,2044028.2,NA,NA,2044026,2044028.4000001,2023-04-28T15:59:04Z,2044029.835,NULL,Respekt,heshima,s,changamnao,upinzani,ufanisi,NA,sdfdsf,NA,1,NA,NA,NA,NA,NA,NA,NA,NA,NA,NA,NA,NA,NA,NA,NA,NA,NA,NA,NA
8fd59,"""Falsch""-Screen",canvas.Screen,3_0_1_0_3_1_2,NA,NA,timeout,4996.291,2044028.9000001,2044013.269,2044029.835,2049009.391,2049010.4000001,2023-04-28T15:59:09Z,2049026.126,NULL,Respekt,heshima,s,changamnao,upinzani,ufanisi,NA,sdfdsf,0,1,NA,NA,NA,NA,NA,NA,NA,NA,NA,NA,NA,NA,NA,NA,NA,NA,NA,NA,NA
8fd59,shallow,flow.Sequence,3_0_1_0_3_1,NA,NA,completion,11973.322,2037022,2037019.388,2037036.069,2049009.391,2049010.8000001,2023-04-28T15:59:09Z,2049026.126,NULL,Respekt,heshima,s,changamnao,upinzani,ufanisi,NA,sdfdsf,NA,1,NA,NA,NA,NA,NA,NA,NA,NA,NA,NA,NA,NA,NA,NA,NA,NA,NA,NA,NA
8fd59,task,flow.Sequence,3_0_1_0_3,NA,NA,completion,11973.322,2037021.7,2037019.388,2037036.069,2049009.391,2049011.1,2023-04-28T15:59:09Z,2049026.126,NULL,Respekt,heshima,s,changamnao,upinzani,ufanisi,NA,sdfdsf,NA,1,NA,NA,NA,NA,NA,NA,NA,NA,NA,NA,NA,NA,NA,NA,NA,NA,NA,NA,NA
8fd59,deep,flow.Sequence,3_0_1_0_4_0,NA,NA,skipped,NA,2049011.3000001,NA,NA,2049009.391,2049011.5,2023-04-28T15:59:09Z,2049026.126,NULL,Können,unaweza,s,kiongozi,bustani,mienendo,NA,sdfdsf,NA,1,NA,NA,NA,NA,NA,NA,NA,NA,NA,NA,NA,NA,NA,NA,NA,NA,NA,NA,NA
8fd59,Shallow Question,html.Page,3_0_1_0_4_1_0,NA,NA,form submission,7689.8740000001,2049011.6,2049009.391,2049026.126,2056716,2056716.2,2023-04-28T15:59:16Z,2056719.401,NULL,Können,unaweza,s,kiongozi,bustani,mienendo,unaweza,NA,NA,1,NA,NA,NA,NA,NA,NA,NA,NA,NA,NA,NA,NA,NA,NA,NA,NA,NA,NA,NA
8fd59,"""Richtig""-Screen",canvas.Screen,3_0_1_0_4_1_1,NA,NA,timeout,4996.4779999999,2056717.8000001,2056703.247,2056719.401,2061699.155,2061699.8000001,2023-04-28T15:59:21Z,2061715.879,NULL,Können,unaweza,s,kiongozi,bustani,mienendo,NA,sdfdsf,1,1,NA,NA,NA,NA,NA,NA,NA,NA,NA,NA,NA,NA,NA,NA,NA,NA,NA,NA,NA
8fd59,"""Falsch""-Screen",canvas.Screen,3_0_1_0_4_1_2,NA,NA,skipped,NA,2061703.3000001,NA,NA,2061699.155,2061703.5,2023-04-28T15:59:21Z,2061715.879,NULL,Können,unaweza,s,kiongozi,bustani,mienendo,NA,sdfdsf,NA,1,NA,NA,NA,NA,NA,NA,NA,NA,NA,NA,NA,NA,NA,NA,NA,NA,NA,NA,NA
8fd59,shallow,flow.Sequence,3_0_1_0_4_1,NA,NA,completion,12673.029,2049011.6,2049009.391,2049026.126,2061699.155,2061703.8000001,2023-04-28T15:59:21Z,2061715.879,NULL,Können,unaweza,s,kiongozi,bustani,mienendo,NA,sdfdsf,NA,1,NA,NA,NA,NA,NA,NA,NA,NA,NA,NA,NA,NA,NA,NA,NA,NA,NA,NA,NA
8fd59,task,flow.Sequence,3_0_1_0_4,NA,NA,completion,12673.029,2049011.2,2049009.391,2049026.126,2061699.155,2061703.9000001,2023-04-28T15:59:21Z,2061715.879,NULL,Können,unaweza,s,kiongozi,bustani,mienendo,NA,sdfdsf,NA,1,NA,NA,NA,NA,NA,NA,NA,NA,NA,NA,NA,NA,NA,NA,NA,NA,NA,NA,NA
8fd59,deep,flow.Sequence,3_0_1_0_5_0,NA,NA,skipped,NA,2061704.1,NA,NA,2061699.155,2061704.2,2023-04-28T15:59:21Z,2061715.879,NULL,Orientierung,urekebisho,s,uelekeo,marekebisho,utunzaji,NA,sdfdsf,NA,1,NA,NA,NA,NA,NA,NA,NA,NA,NA,NA,NA,NA,NA,NA,NA,NA,NA,NA,NA
8fd59,Shallow Question,html.Page,3_0_1_0_5_1_0,NA,NA,form submission,6641.0210000954,2061704.3000001,2061699.155,2061715.879,2068356.9000001,2068357.1,2023-04-28T15:59:28Z,2068359.893,NULL,Orientierung,urekebisho,s,uelekeo,marekebisho,utunzaji,urekebisho,NA,NA,1,NA,NA,NA,NA,NA,NA,NA,NA,NA,NA,NA,NA,NA,NA,NA,NA,NA,NA,NA
8fd59,"""Richtig""-Screen",canvas.Screen,3_0_1_0_5_1_1,NA,NA,timeout,4995.9620000001,2068358.5,2068343.74,2068359.893,2073339.651,2073340.5,2023-04-28T15:59:33Z,2073355.855,NULL,Orientierung,urekebisho,s,uelekeo,marekebisho,utunzaji,NA,sdfdsf,1,1,NA,NA,NA,NA,NA,NA,NA,NA,NA,NA,NA,NA,NA,NA,NA,NA,NA,NA,NA
8fd59,"""Falsch""-Screen",canvas.Screen,3_0_1_0_5_1_2,NA,NA,skipped,NA,2073345.8000001,NA,NA,2073339.651,2073346,2023-04-28T15:59:33Z,2073355.855,NULL,Orientierung,urekebisho,s,uelekeo,marekebisho,utunzaji,NA,sdfdsf,NA,1,NA,NA,NA,NA,NA,NA,NA,NA,NA,NA,NA,NA,NA,NA,NA,NA,NA,NA,NA
8fd59,shallow,flow.Sequence,3_0_1_0_5_1,NA,NA,completion,11623.772,2061704.2,2061699.155,2061715.879,2073339.651,2073346.4000001,2023-04-28T15:59:33Z,2073355.855,NULL,Orientierung,urekebisho,s,uelekeo,marekebisho,utunzaji,NA,sdfdsf,NA,1,NA,NA,NA,NA,NA,NA,NA,NA,NA,NA,NA,NA,NA,NA,NA,NA,NA,NA,NA
8fd59,task,flow.Sequence,3_0_1_0_5,NA,NA,completion,11623.772,2061704,2061699.155,2061715.879,2073339.651,2073346.7,2023-04-28T15:59:33Z,2073355.855,NULL,Orientierung,urekebisho,s,uelekeo,marekebisho,utunzaji,NA,sdfdsf,NA,1,NA,NA,NA,NA,NA,NA,NA,NA,NA,NA,NA,NA,NA,NA,NA,NA,NA,NA,NA
8fd59,Deep Question,html.Page,3_0_1_0_6_0_0,NA,NA,form submission,2301.145,2073346.9000001,2073339.651,2073355.855,2075657,2075657.3000001,2023-04-28T15:59:35Z,2075671.258,NULL,Kontrolle,kudhibiti,d,NA,NA,NA,h,NA,NA,1,NA,NA,NA,NA,NA,NA,NA,NA,NA,NA,NA,NA,NA,NA,NA,NA,NA,NA,NA
8fd59,"""Richtig""-Screen",canvas.Screen,3_0_1_0_6_0_1,NA,NA,skipped,NA,2075658,NA,NA,2075657,2075658.1,2023-04-28T15:59:35Z,2075671.258,NULL,Kontrolle,kudhibiti,d,NA,NA,NA,NA,sdfdsf,NA,1,NA,NA,NA,NA,NA,NA,NA,NA,NA,NA,NA,NA,NA,NA,NA,NA,NA,NA,NA
8fd59,"""Falsch""-Screen",canvas.Screen,3_0_1_0_6_0_2,NA,NA,timeout,4995.1900000002,2075658.7,2075654.437,2075671.258,2080650.342,2080651.2,2023-04-28T15:59:40Z,2080666.448,NULL,Kontrolle,kudhibiti,d,NA,NA,NA,NA,sdfdsf,0,1,NA,NA,NA,NA,NA,NA,NA,NA,NA,NA,NA,NA,NA,NA,NA,NA,NA,NA,NA
8fd59,deep,flow.Sequence,3_0_1_0_6_0,NA,NA,completion,7294.487,2073346.9000001,2073339.651,2073355.855,2080650.342,2080651.6,2023-04-28T15:59:40Z,2080666.448,NULL,Kontrolle,kudhibiti,d,NA,NA,NA,NA,sdfdsf,NA,1,NA,NA,NA,NA,NA,NA,NA,NA,NA,NA,NA,NA,NA,NA,NA,NA,NA,NA,NA
8fd59,shallow,flow.Sequence,3_0_1_0_6_1,NA,NA,skipped,NA,2080651.8000001,NA,NA,2080650.342,2080651.9000001,2023-04-28T15:59:40Z,2080666.448,NULL,Kontrolle,kudhibiti,d,NA,NA,NA,NA,sdfdsf,NA,1,NA,NA,NA,NA,NA,NA,NA,NA,NA,NA,NA,NA,NA,NA,NA,NA,NA,NA,NA
8fd59,task,flow.Sequence,3_0_1_0_6,NA,NA,completion,7294.487,2073346.8000001,2073339.651,2073355.855,2080650.342,2080652.2,2023-04-28T15:59:40Z,2080666.448,NULL,Kontrolle,kudhibiti,d,NA,NA,NA,NA,sdfdsf,NA,1,NA,NA,NA,NA,NA,NA,NA,NA,NA,NA,NA,NA,NA,NA,NA,NA,NA,NA,NA
8fd59,Deep Question,html.Page,3_0_1_0_7_0_0,NA,NA,form submission,3076.8520000714,2080652.4000001,2080650.342,2080666.448,2083743.3000001,2083743.5,2023-04-28T15:59:43Z,2083747.192,NULL,Stimmung,kinyongo,d,NA,NA,NA,h,NA,NA,1,NA,NA,NA,NA,NA,NA,NA,NA,NA,NA,NA,NA,NA,NA,NA,NA,NA,NA,NA
8fd59,"""Richtig""-Screen",canvas.Screen,3_0_1_0_7_0_1,NA,NA,skipped,NA,2083745.7,NA,NA,2083743.3000001,2083745.9000001,2023-04-28T15:59:43Z,2083747.192,NULL,Stimmung,kinyongo,d,NA,NA,NA,NA,sdfdsf,NA,1,NA,NA,NA,NA,NA,NA,NA,NA,NA,NA,NA,NA,NA,NA,NA,NA,NA,NA,NA
8fd59,"""Falsch""-Screen",canvas.Screen,3_0_1_0_7_0_2,NA,NA,timeout,4996.3869999999,2083746.4000001,2083731.31,2083747.192,2088726.681,2088727.1,2023-04-28T15:59:48Z,2088743.579,NULL,Stimmung,kinyongo,d,NA,NA,NA,NA,sdfdsf,0,1,NA,NA,NA,NA,NA,NA,NA,NA,NA,NA,NA,NA,NA,NA,NA,NA,NA,NA,NA
8fd59,deep,flow.Sequence,3_0_1_0_7_0,NA,NA,completion,8060.233,2080652.4000001,2080650.342,2080666.448,2088726.681,2088727.3000001,2023-04-28T15:59:48Z,2088743.579,NULL,Stimmung,kinyongo,d,NA,NA,NA,NA,sdfdsf,NA,1,NA,NA,NA,NA,NA,NA,NA,NA,NA,NA,NA,NA,NA,NA,NA,NA,NA,NA,NA
8fd59,shallow,flow.Sequence,3_0_1_0_7_1,NA,NA,skipped,NA,2088727.4000001,NA,NA,2088726.681,2088727.4000001,2023-04-28T15:59:48Z,2088743.579,NULL,Stimmung,kinyongo,d,NA,NA,NA,NA,sdfdsf,NA,1,NA,NA,NA,NA,NA,NA,NA,NA,NA,NA,NA,NA,NA,NA,NA,NA,NA,NA,NA
8fd59,task,flow.Sequence,3_0_1_0_7,NA,NA,completion,8060.233,2080652.3000001,2080650.342,2080666.448,2088726.681,2088727.5,2023-04-28T15:59:48Z,2088743.579,NULL,Stimmung,kinyongo,d,NA,NA,NA,NA,sdfdsf,NA,1,NA,NA,NA,NA,NA,NA,NA,NA,NA,NA,NA,NA,NA,NA,NA,NA,NA,NA,NA
8fd59,block,flow.Loop,3_0_1_0,NA,NA,completion,76986.995,2011736.2,2011723.674,2011739.686,2088726.681,2088727.6,2023-04-28T15:59:48Z,2088743.579,NULL,NA,NA,NA,NA,NA,NA,NA,sdfdsf,NA,1,NA,NA,NA,NA,NA,NA,NA,NA,NA,NA,NA,NA,NA,NA,NA,NA,NA,NA,NA
8fd59,weiter,canvas.Screen,3_0_1_1,sdf,keypress(Space),response,879.32100009546,2088727.6,2088726.681,2088743.579,2089622.9000001,2089624,2023-04-28T15:59:49Z,2089659.368,NULL,NA,NA,NA,NA,NA,NA,NA,sdfdsf,NA,1,NA,NA,NA,NA,NA,NA,NA,NA,NA,NA,NA,NA,NA,NA,NA,NA,NA,NA,NA
8fd59,check continue,flow.Sequence,3_0_1,NA,NA,completion,77883.214000095,2011736.2,2011723.674,2011739.686,2089622.9000001,2089624.3000001,2023-04-28T15:59:49Z,2089659.368,NULL,NA,NA,NA,NA,NA,NA,NA,sdfdsf,NA,1,NA,NA,NA,NA,NA,NA,NA,NA,NA,NA,NA,NA,NA,NA,NA,NA,NA,NA,NA
8fd59,Deep Question,html.Page,3_0_2_0_0_0_0,NA,NA,form submission,14218.132,2089653.8000001,2089643.032,2089659.368,2103877.5,2103877.7,2023-04-28T16:00:03Z,2103880.665,NULL,Stimmung,kinyongo,d,NA,NA,NA,kinyongo,NA,NA,2,NA,NA,NA,NA,NA,NA,NA,NA,NA,NA,NA,NA,NA,NA,NA,NA,NA,NA,NA
8fd59,"""Richtig""-Screen",canvas.Screen,3_0_2_0_0_0_1,NA,NA,timeout,4995.9079999998,2103879.6,2103864.306,2103880.665,2108860.452,2108861.4000001,2023-04-28T16:00:08Z,2108876.573,NULL,Stimmung,kinyongo,d,NA,NA,NA,NA,sdf,1,2,NA,NA,NA,NA,NA,NA,NA,NA,NA,NA,NA,NA,NA,NA,NA,NA,NA,NA,NA
8fd59,"""Falsch""-Screen",canvas.Screen,3_0_2_0_0_0_2,NA,NA,skipped,NA,2108865.9000001,NA,NA,2108860.452,2108866.1,2023-04-28T16:00:08Z,2108876.573,NULL,Stimmung,kinyongo,d,NA,NA,NA,NA,sdf,NA,2,NA,NA,NA,NA,NA,NA,NA,NA,NA,NA,NA,NA,NA,NA,NA,NA,NA,NA,NA
8fd59,deep,flow.Sequence,3_0_2_0_0_0,NA,NA,completion,19201.084,2089653.8000001,2089643.032,2089659.368,2108860.452,2108866.2,2023-04-28T16:00:08Z,2108876.573,NULL,Stimmung,kinyongo,d,NA,NA,NA,NA,sdf,NA,2,NA,NA,NA,NA,NA,NA,NA,NA,NA,NA,NA,NA,NA,NA,NA,NA,NA,NA,NA
8fd59,shallow,flow.Sequence,3_0_2_0_0_1,NA,NA,skipped,NA,2108866.2,NA,NA,2108860.452,2108866.3000001,2023-04-28T16:00:08Z,2108876.573,NULL,Stimmung,kinyongo,d,NA,NA,NA,NA,sdf,NA,2,NA,NA,NA,NA,NA,NA,NA,NA,NA,NA,NA,NA,NA,NA,NA,NA,NA,NA,NA
8fd59,task,flow.Sequence,3_0_2_0_0,NA,NA,completion,19201.084,2089653.8000001,2089643.032,2089659.368,2108860.452,2108866.4000001,2023-04-28T16:00:08Z,2108876.573,NULL,Stimmung,kinyongo,d,NA,NA,NA,NA,sdf,NA,2,NA,NA,NA,NA,NA,NA,NA,NA,NA,NA,NA,NA,NA,NA,NA,NA,NA,NA,NA
8fd59,deep,flow.Sequence,3_0_2_0_1_0,NA,NA,skipped,NA,2108866.4000001,NA,NA,2108860.452,2108866.4000001,2023-04-28T16:00:08Z,2108876.573,NULL,Können,unaweza,s,kiongozi,bustani,mienendo,NA,sdf,NA,2,NA,NA,NA,NA,NA,NA,NA,NA,NA,NA,NA,NA,NA,NA,NA,NA,NA,NA,NA
8fd59,Shallow Question,html.Page,3_0_2_0_1_1_0,NA,NA,form submission,4995.3270000955,2108866.5,2108860.452,2108876.573,2113871.9000001,2113872.1,2023-04-28T16:00:13Z,2113872.452,NULL,Können,unaweza,s,kiongozi,bustani,mienendo,unaweza,NA,NA,2,NA,NA,NA,NA,NA,NA,NA,NA,NA,NA,NA,NA,NA,NA,NA,NA,NA,NA,NA
8fd59,"""Richtig""-Screen",canvas.Screen,3_0_2_0_1_1_1,NA,NA,timeout,4996.6340000001,2113875,2113856.367,2113872.452,2118851.82,2118853,2023-04-28T16:00:18Z,2118869.086,NULL,Können,unaweza,s,kiongozi,bustani,mienendo,NA,sdf,1,2,NA,NA,NA,NA,NA,NA,NA,NA,NA,NA,NA,NA,NA,NA,NA,NA,NA,NA,NA
8fd59,"""Falsch""-Screen",canvas.Screen,3_0_2_0_1_1_2,NA,NA,skipped,NA,2118858,NA,NA,2118851.82,2118858.1,2023-04-28T16:00:18Z,2118869.086,NULL,Können,unaweza,s,kiongozi,bustani,mienendo,NA,sdf,NA,2,NA,NA,NA,NA,NA,NA,NA,NA,NA,NA,NA,NA,NA,NA,NA,NA,NA,NA,NA
8fd59,shallow,flow.Sequence,3_0_2_0_1_1,NA,NA,completion,9975.247,2108866.4000001,2108860.452,2108876.573,2118851.82,2118858.2,2023-04-28T16:00:18Z,2118869.086,NULL,Können,unaweza,s,kiongozi,bustani,mienendo,NA,sdf,NA,2,NA,NA,NA,NA,NA,NA,NA,NA,NA,NA,NA,NA,NA,NA,NA,NA,NA,NA,NA
8fd59,task,flow.Sequence,3_0_2_0_1,NA,NA,completion,9975.247,2108866.4000001,2108860.452,2108876.573,2118851.82,2118858.3000001,2023-04-28T16:00:18Z,2118869.086,NULL,Können,unaweza,s,kiongozi,bustani,mienendo,NA,sdf,NA,2,NA,NA,NA,NA,NA,NA,NA,NA,NA,NA,NA,NA,NA,NA,NA,NA,NA,NA,NA
8fd59,Deep Question,html.Page,3_0_2_0_2_0_0,NA,NA,form submission,2810.6140000476,2118858.4000001,2118851.82,2118869.086,2121679.7,2121679.9000001,2023-04-28T16:00:21Z,2121682.688,NULL,Betrüger,mdanganyifu,d,NA,NA,NA,h,NA,NA,2,NA,NA,NA,NA,NA,NA,NA,NA,NA,NA,NA,NA,NA,NA,NA,NA,NA,NA,NA
8fd59,"""Richtig""-Screen",canvas.Screen,3_0_2_0_2_0_1,NA,NA,skipped,NA,2121680.6,NA,NA,2121679.7,2121680.7,2023-04-28T16:00:21Z,2121682.688,NULL,Betrüger,mdanganyifu,d,NA,NA,NA,NA,sdf,NA,2,NA,NA,NA,NA,NA,NA,NA,NA,NA,NA,NA,NA,NA,NA,NA,NA,NA,NA,NA
8fd59,"""Falsch""-Screen",canvas.Screen,3_0_2_0_2_0_2,NA,NA,timeout,4995.9219999998,2121681.3000001,2121666.292,2121682.688,2126662.065,2126663,2023-04-28T16:00:26Z,2126678.61,NULL,Betrüger,mdanganyifu,d,NA,NA,NA,NA,sdf,0,2,NA,NA,NA,NA,NA,NA,NA,NA,NA,NA,NA,NA,NA,NA,NA,NA,NA,NA,NA
8fd59,deep,flow.Sequence,3_0_2_0_2_0,NA,NA,completion,7792.9789999998,2118858.4000001,2118851.82,2118869.086,2126662.065,2126663.4000001,2023-04-28T16:00:26Z,2126678.61,NULL,Betrüger,mdanganyifu,d,NA,NA,NA,NA,sdf,NA,2,NA,NA,NA,NA,NA,NA,NA,NA,NA,NA,NA,NA,NA,NA,NA,NA,NA,NA,NA
8fd59,shallow,flow.Sequence,3_0_2_0_2_1,NA,NA,skipped,NA,2126663.6,NA,NA,2126662.065,2126663.8000001,2023-04-28T16:00:26Z,2126678.61,NULL,Betrüger,mdanganyifu,d,NA,NA,NA,NA,sdf,NA,2,NA,NA,NA,NA,NA,NA,NA,NA,NA,NA,NA,NA,NA,NA,NA,NA,NA,NA,NA
8fd59,task,flow.Sequence,3_0_2_0_2,NA,NA,completion,7792.9789999998,2118858.4000001,2118851.82,2118869.086,2126662.065,2126664,2023-04-28T16:00:26Z,2126678.61,NULL,Betrüger,mdanganyifu,d,NA,NA,NA,NA,sdf,NA,2,NA,NA,NA,NA,NA,NA,NA,NA,NA,NA,NA,NA,NA,NA,NA,NA,NA,NA,NA
8fd59,Deep Question,html.Page,3_0_2_0_3_0_0,NA,NA,form submission,3106.3900000001,2126664.3000001,2126662.065,2126678.61,2129785,2129785.2,2023-04-28T16:00:29Z,2129792.705,NULL,Kontrolle,kudhibiti,d,NA,NA,NA,h,NA,NA,2,NA,NA,NA,NA,NA,NA,NA,NA,NA,NA,NA,NA,NA,NA,NA,NA,NA,NA,NA
8fd59,"""Richtig""-Screen",canvas.Screen,3_0_2_0_3_0_1,NA,NA,skipped,NA,2129787.1,NA,NA,2129785,2129787.2,2023-04-28T16:00:29Z,2129792.705,NULL,Kontrolle,kudhibiti,d,NA,NA,NA,NA,sdf,NA,2,NA,NA,NA,NA,NA,NA,NA,NA,NA,NA,NA,NA,NA,NA,NA,NA,NA,NA,NA
8fd59,"""Falsch""-Screen",canvas.Screen,3_0_2_0_3_0_2,NA,NA,timeout,4995.8829999999,2129787.8000001,2129776.711,2129792.705,2134772.079,2134773,2023-04-28T16:00:34Z,2134788.588,NULL,Kontrolle,kudhibiti,d,NA,NA,NA,NA,sdf,0,2,NA,NA,NA,NA,NA,NA,NA,NA,NA,NA,NA,NA,NA,NA,NA,NA,NA,NA,NA
8fd59,deep,flow.Sequence,3_0_2_0_3_0,NA,NA,completion,8093.469,2126664.3000001,2126662.065,2126678.61,2134772.079,2134773.5,2023-04-28T16:00:34Z,2134788.588,NULL,Kontrolle,kudhibiti,d,NA,NA,NA,NA,sdf,NA,2,NA,NA,NA,NA,NA,NA,NA,NA,NA,NA,NA,NA,NA,NA,NA,NA,NA,NA,NA
8fd59,shallow,flow.Sequence,3_0_2_0_3_1,NA,NA,skipped,NA,2134773.6,NA,NA,2134772.079,2134773.8000001,2023-04-28T16:00:34Z,2134788.588,NULL,Kontrolle,kudhibiti,d,NA,NA,NA,NA,sdf,NA,2,NA,NA,NA,NA,NA,NA,NA,NA,NA,NA,NA,NA,NA,NA,NA,NA,NA,NA,NA
8fd59,task,flow.Sequence,3_0_2_0_3,NA,NA,completion,8093.469,2126664.1,2126662.065,2126678.61,2134772.079,2134774,2023-04-28T16:00:34Z,2134788.588,NULL,Kontrolle,kudhibiti,d,NA,NA,NA,NA,sdf,NA,2,NA,NA,NA,NA,NA,NA,NA,NA,NA,NA,NA,NA,NA,NA,NA,NA,NA,NA,NA
8fd59,deep,flow.Sequence,3_0_2_0_4_0,NA,NA,skipped,NA,2134774.2,NA,NA,2134772.079,2134774.3000001,2023-04-28T16:00:34Z,2134788.588,NULL,Kreativität,ubunifu,s,mratibu,mwendelezo,makubaliano,NA,sdf,NA,2,NA,NA,NA,NA,NA,NA,NA,NA,NA,NA,NA,NA,NA,NA,NA,NA,NA,NA,NA
8fd59,Shallow Question,html.Page,3_0_2_0_4_1_0,NA,NA,form submission,8209.412,2134774.5,2134772.079,2134788.588,2142998,2142998.2,2023-04-28T16:00:43Z,2142998.512,NULL,Kreativität,ubunifu,s,mratibu,mwendelezo,makubaliano,ubunifu,NA,NA,2,NA,NA,NA,NA,NA,NA,NA,NA,NA,NA,NA,NA,NA,NA,NA,NA,NA,NA,NA
8fd59,"""Richtig""-Screen",canvas.Screen,3_0_2_0_4_1_1,NA,NA,timeout,4995.8849999998,2143000.3000001,2142981.831,2142998.512,2147977.896,2147979.4000001,2023-04-28T16:00:48Z,2147994.397,NULL,Kreativität,ubunifu,s,mratibu,mwendelezo,makubaliano,NA,sdf,1,2,NA,NA,NA,NA,NA,NA,NA,NA,NA,NA,NA,NA,NA,NA,NA,NA,NA,NA,NA
8fd59,"""Falsch""-Screen",canvas.Screen,3_0_2_0_4_1_2,NA,NA,skipped,NA,2147983.4000001,NA,NA,2147977.896,2147983.5,2023-04-28T16:00:48Z,2147994.397,NULL,Kreativität,ubunifu,s,mratibu,mwendelezo,makubaliano,NA,sdf,NA,2,NA,NA,NA,NA,NA,NA,NA,NA,NA,NA,NA,NA,NA,NA,NA,NA,NA,NA,NA
8fd59,shallow,flow.Sequence,3_0_2_0_4_1,NA,NA,completion,13189.308,2134774.4000001,2134772.079,2134788.588,2147977.896,2147983.7,2023-04-28T16:00:48Z,2147994.397,NULL,Kreativität,ubunifu,s,mratibu,mwendelezo,makubaliano,NA,sdf,NA,2,NA,NA,NA,NA,NA,NA,NA,NA,NA,NA,NA,NA,NA,NA,NA,NA,NA,NA,NA
8fd59,task,flow.Sequence,3_0_2_0_4,NA,NA,completion,13189.308,2134774.2,2134772.079,2134788.588,2147977.896,2147983.7,2023-04-28T16:00:48Z,2147994.397,NULL,Kreativität,ubunifu,s,mratibu,mwendelezo,makubaliano,NA,sdf,NA,2,NA,NA,NA,NA,NA,NA,NA,NA,NA,NA,NA,NA,NA,NA,NA,NA,NA,NA,NA
8fd59,deep,flow.Sequence,3_0_2_0_5_0,NA,NA,skipped,NA,2147983.8000001,NA,NA,2147977.896,2147983.8000001,2023-04-28T16:00:48Z,2147994.397,NULL,Orientierung,urekebisho,s,uelekeo,marekebisho,utunzaji,NA,sdf,NA,2,NA,NA,NA,NA,NA,NA,NA,NA,NA,NA,NA,NA,NA,NA,NA,NA,NA,NA,NA
8fd59,Shallow Question,html.Page,3_0_2_0_5_1_0,NA,NA,form submission,7840.703000024,2147983.9000001,2147977.896,2147994.397,2155835.1,2155835.3000001,2023-04-28T16:00:55Z,2155837.972,NULL,Orientierung,urekebisho,s,uelekeo,marekebisho,utunzaji,urekebisho,NA,NA,2,NA,NA,NA,NA,NA,NA,NA,NA,NA,NA,NA,NA,NA,NA,NA,NA,NA,NA,NA
8fd59,"""Richtig""-Screen",canvas.Screen,3_0_2_0_5_1_1,NA,NA,timeout,4996.0039999997,2155837.1,2155821.395,2155837.972,2160817.475,2160818.3000001,2023-04-28T16:01:00Z,2160833.976,NULL,Orientierung,urekebisho,s,uelekeo,marekebisho,utunzaji,NA,sdf,1,2,NA,NA,NA,NA,NA,NA,NA,NA,NA,NA,NA,NA,NA,NA,NA,NA,NA,NA,NA
8fd59,"""Falsch""-Screen",canvas.Screen,3_0_2_0_5_1_2,NA,NA,skipped,NA,2160823.8000001,NA,NA,2160817.475,2160824.1,2023-04-28T16:01:00Z,2160833.976,NULL,Orientierung,urekebisho,s,uelekeo,marekebisho,utunzaji,NA,sdf,NA,2,NA,NA,NA,NA,NA,NA,NA,NA,NA,NA,NA,NA,NA,NA,NA,NA,NA,NA,NA
8fd59,shallow,flow.Sequence,3_0_2_0_5_1,NA,NA,completion,12823.078,2147983.9000001,2147977.896,2147994.397,2160817.475,2160824.4000001,2023-04-28T16:01:00Z,2160833.976,NULL,Orientierung,urekebisho,s,uelekeo,marekebisho,utunzaji,NA,sdf,NA,2,NA,NA,NA,NA,NA,NA,NA,NA,NA,NA,NA,NA,NA,NA,NA,NA,NA,NA,NA
8fd59,task,flow.Sequence,3_0_2_0_5,NA,NA,completion,12823.078,2147983.8000001,2147977.896,2147994.397,2160817.475,2160824.7,2023-04-28T16:01:00Z,2160833.976,NULL,Orientierung,urekebisho,s,uelekeo,marekebisho,utunzaji,NA,sdf,NA,2,NA,NA,NA,NA,NA,NA,NA,NA,NA,NA,NA,NA,NA,NA,NA,NA,NA,NA,NA
8fd59,Deep Question,html.Page,3_0_2_0_6_0_0,NA,NA,form submission,3708.7240000479,2160824.9000001,2160817.475,2160833.976,2164542.7,2164542.9000001,2023-04-28T16:01:04Z,2164547.442,NULL,Gefährdung,kuhatarisha,d,NA,NA,NA,h,NA,NA,2,NA,NA,NA,NA,NA,NA,NA,NA,NA,NA,NA,NA,NA,NA,NA,NA,NA,NA,NA
8fd59,"""Richtig""-Screen",canvas.Screen,3_0_2_0_6_0_1,NA,NA,skipped,NA,2164544.7,NA,NA,2164542.7,2164544.8000001,2023-04-28T16:01:04Z,2164547.442,NULL,Gefährdung,kuhatarisha,d,NA,NA,NA,NA,sdf,NA,2,NA,NA,NA,NA,NA,NA,NA,NA,NA,NA,NA,NA,NA,NA,NA,NA,NA,NA,NA
8fd59,"""Falsch""-Screen",canvas.Screen,3_0_2_0_6_0_2,NA,NA,timeout,4995.9360000002,2164545.4000001,2164531.428,2164547.442,2169526.801,2169527.9000001,2023-04-28T16:01:09Z,2169543.378,NULL,Gefährdung,kuhatarisha,d,NA,NA,NA,NA,sdf,0,2,NA,NA,NA,NA,NA,NA,NA,NA,NA,NA,NA,NA,NA,NA,NA,NA,NA,NA,NA
8fd59,deep,flow.Sequence,3_0_2_0_6_0,NA,NA,completion,8692.8250000002,2160824.9000001,2160817.475,2160833.976,2169526.801,2169528.3000001,2023-04-28T16:01:09Z,2169543.378,NULL,Gefährdung,kuhatarisha,d,NA,NA,NA,NA,sdf,NA,2,NA,NA,NA,NA,NA,NA,NA,NA,NA,NA,NA,NA,NA,NA,NA,NA,NA,NA,NA
8fd59,shallow,flow.Sequence,3_0_2_0_6_1,NA,NA,skipped,NA,2169528.5,NA,NA,2169526.801,2169528.7,2023-04-28T16:01:09Z,2169543.378,NULL,Gefährdung,kuhatarisha,d,NA,NA,NA,NA,sdf,NA,2,NA,NA,NA,NA,NA,NA,NA,NA,NA,NA,NA,NA,NA,NA,NA,NA,NA,NA,NA
8fd59,task,flow.Sequence,3_0_2_0_6,NA,NA,completion,8692.8250000002,2160824.8000001,2160817.475,2160833.976,2169526.801,2169528.9000001,2023-04-28T16:01:09Z,2169543.378,NULL,Gefährdung,kuhatarisha,d,NA,NA,NA,NA,sdf,NA,2,NA,NA,NA,NA,NA,NA,NA,NA,NA,NA,NA,NA,NA,NA,NA,NA,NA,NA,NA
8fd59,deep,flow.Sequence,3_0_2_0_7_0,NA,NA,skipped,NA,2169529.1,NA,NA,2169526.801,2169529.2,2023-04-28T16:01:09Z,2169543.378,NULL,Respekt,heshima,s,changamnao,upinzani,ufanisi,NA,sdf,NA,2,NA,NA,NA,NA,NA,NA,NA,NA,NA,NA,NA,NA,NA,NA,NA,NA,NA,NA,NA
8fd59,Shallow Question,html.Page,3_0_2_0_7_1_0,NA,NA,form submission,9420.0220000953,2169529.4000001,2169526.801,2169543.378,2178963.4000001,2178963.5,2023-04-28T16:01:19Z,2178968.974,NULL,Respekt,heshima,s,changamnao,upinzani,ufanisi,heshima,NA,NA,2,NA,NA,NA,NA,NA,NA,NA,NA,NA,NA,NA,NA,NA,NA,NA,NA,NA,NA,NA
8fd59,"""Richtig""-Screen",canvas.Screen,3_0_2_0_7_1_1,NA,NA,timeout,4996.5580000002,2178965.5,2178952.68,2178968.974,2183948.718,2183949.6,2023-04-28T16:01:24Z,2183965.532,NULL,Respekt,heshima,s,changamnao,upinzani,ufanisi,NA,sdf,1,2,NA,NA,NA,NA,NA,NA,NA,NA,NA,NA,NA,NA,NA,NA,NA,NA,NA,NA,NA
8fd59,"""Falsch""-Screen",canvas.Screen,3_0_2_0_7_1_2,NA,NA,skipped,NA,2183954.7,NA,NA,2183948.718,2183954.8000001,2023-04-28T16:01:24Z,2183965.532,NULL,Respekt,heshima,s,changamnao,upinzani,ufanisi,NA,sdf,NA,2,NA,NA,NA,NA,NA,NA,NA,NA,NA,NA,NA,NA,NA,NA,NA,NA,NA,NA,NA
8fd59,shallow,flow.Sequence,3_0_2_0_7_1,NA,NA,completion,14405.34,2169529.3000001,2169526.801,2169543.378,2183948.718,2183954.9000001,2023-04-28T16:01:24Z,2183965.532,NULL,Respekt,heshima,s,changamnao,upinzani,ufanisi,NA,sdf,NA,2,NA,NA,NA,NA,NA,NA,NA,NA,NA,NA,NA,NA,NA,NA,NA,NA,NA,NA,NA
8fd59,task,flow.Sequence,3_0_2_0_7,NA,NA,completion,14405.34,2169529.1,2169526.801,2169543.378,2183948.718,2183955,2023-04-28T16:01:24Z,2183965.532,NULL,Respekt,heshima,s,changamnao,upinzani,ufanisi,NA,sdf,NA,2,NA,NA,NA,NA,NA,NA,NA,NA,NA,NA,NA,NA,NA,NA,NA,NA,NA,NA,NA
8fd59,block,flow.Loop,3_0_2_0,NA,NA,completion,94289.35,2089653.8000001,2089643.032,2089659.368,2183948.718,2183955,2023-04-28T16:01:24Z,2183965.532,NULL,NA,NA,NA,NA,NA,NA,NA,sdf,NA,2,NA,NA,NA,NA,NA,NA,NA,NA,NA,NA,NA,NA,NA,NA,NA,NA,NA,NA,NA
8fd59,weiter,canvas.Screen,3_0_2_1,sdf,keypress(Space),response,865.96799999988,2183955.1,2183948.718,2183965.532,2184831.5,2184832.7,2023-04-28T16:01:24Z,2184880.916,NULL,NA,NA,NA,NA,NA,NA,NA,sdf,NA,2,NA,NA,NA,NA,NA,NA,NA,NA,NA,NA,NA,NA,NA,NA,NA,NA,NA,NA,NA
8fd59,check continue,flow.Sequence,3_0_2,NA,NA,completion,95172.132,2089653.7,2089643.032,2089659.368,2184831.5,2184833,2023-04-28T16:01:24Z,2184880.916,NULL,NA,NA,NA,NA,NA,NA,NA,sdf,NA,2,NA,NA,NA,NA,NA,NA,NA,NA,NA,NA,NA,NA,NA,NA,NA,NA,NA,NA,NA
8fd59,Deep Question,html.Page,3_0_3_0_0_0_0,NA,NA,form submission,6533.9840000952,2184875.4000001,2184864.078,2184880.916,2191414.9000001,2191415,2023-04-28T16:01:31Z,2191425.383,NULL,Betrüger,mdanganyifu,d,NA,NA,NA,m,NA,NA,3,NA,NA,NA,NA,NA,NA,NA,NA,NA,NA,NA,NA,NA,NA,NA,NA,NA,NA,NA
8fd59,"""Richtig""-Screen",canvas.Screen,3_0_3_0_0_0_1,NA,NA,skipped,NA,2191417.2,NA,NA,2191414.9000001,2191417.3000001,2023-04-28T16:01:31Z,2191425.383,NULL,Betrüger,mdanganyifu,d,NA,NA,NA,NA,qt,NA,3,NA,NA,NA,NA,NA,NA,NA,NA,NA,NA,NA,NA,NA,NA,NA,NA,NA,NA,NA
8fd59,"""Falsch""-Screen",canvas.Screen,3_0_3_0_0_0_2,NA,NA,timeout,4996.2609999999,2191417.9000001,2191408.789,2191425.383,2196404.794,2196405.7,2023-04-28T16:01:36Z,2196421.644,NULL,Betrüger,mdanganyifu,d,NA,NA,NA,NA,qt,0,3,NA,NA,NA,NA,NA,NA,NA,NA,NA,NA,NA,NA,NA,NA,NA,NA,NA,NA,NA
8fd59,deep,flow.Sequence,3_0_3_0_0_0,NA,NA,completion,11523.878,2184875.4000001,2184864.078,2184880.916,2196404.794,2196406.2,2023-04-28T16:01:36Z,2196421.644,NULL,Betrüger,mdanganyifu,d,NA,NA,NA,NA,qt,NA,3,NA,NA,NA,NA,NA,NA,NA,NA,NA,NA,NA,NA,NA,NA,NA,NA,NA,NA,NA
8fd59,shallow,flow.Sequence,3_0_3_0_0_1,NA,NA,skipped,NA,2196406.4000001,NA,NA,2196404.794,2196406.6,2023-04-28T16:01:36Z,2196421.644,NULL,Betrüger,mdanganyifu,d,NA,NA,NA,NA,qt,NA,3,NA,NA,NA,NA,NA,NA,NA,NA,NA,NA,NA,NA,NA,NA,NA,NA,NA,NA,NA
8fd59,task,flow.Sequence,3_0_3_0_0,NA,NA,completion,11523.878,2184875.4000001,2184864.078,2184880.916,2196404.794,2196406.9000001,2023-04-28T16:01:36Z,2196421.644,NULL,Betrüger,mdanganyifu,d,NA,NA,NA,NA,qt,NA,3,NA,NA,NA,NA,NA,NA,NA,NA,NA,NA,NA,NA,NA,NA,NA,NA,NA,NA,NA
8fd59,deep,flow.Sequence,3_0_3_0_1_0,NA,NA,skipped,NA,2196407.1,NA,NA,2196404.794,2196407.2,2023-04-28T16:01:36Z,2196421.644,NULL,Respekt,heshima,s,changamnao,upinzani,ufanisi,NA,qt,NA,3,NA,NA,NA,NA,NA,NA,NA,NA,NA,NA,NA,NA,NA,NA,NA,NA,NA,NA,NA
8fd59,Shallow Question,html.Page,3_0_3_0_1_1_0,NA,NA,form submission,4509.456000024,2196407.3000001,2196404.794,2196421.644,2200931.1,2200931.4000001,2023-04-28T16:01:41Z,2200934.212,NULL,Respekt,heshima,s,changamnao,upinzani,ufanisi,heshima,NA,NA,3,NA,NA,NA,NA,NA,NA,NA,NA,NA,NA,NA,NA,NA,NA,NA,NA,NA,NA,NA
8fd59,"""Richtig""-Screen",canvas.Screen,3_0_3_0_1_1_1,NA,NA,timeout,4995.9640000002,2200933.3000001,2200918.145,2200934.212,2205913.688,2205914.7,2023-04-28T16:01:46Z,2205930.176,NULL,Respekt,heshima,s,changamnao,upinzani,ufanisi,NA,qt,1,3,NA,NA,NA,NA,NA,NA,NA,NA,NA,NA,NA,NA,NA,NA,NA,NA,NA,NA,NA
8fd59,"""Falsch""-Screen",canvas.Screen,3_0_3_0_1_1_2,NA,NA,skipped,NA,2205920.2,NA,NA,2205913.688,2205920.5,2023-04-28T16:01:46Z,2205930.176,NULL,Respekt,heshima,s,changamnao,upinzani,ufanisi,NA,qt,NA,3,NA,NA,NA,NA,NA,NA,NA,NA,NA,NA,NA,NA,NA,NA,NA,NA,NA,NA,NA
8fd59,shallow,flow.Sequence,3_0_3_0_1_1,NA,NA,completion,9492.0440000002,2196407.3000001,2196404.794,2196421.644,2205913.688,2205920.9000001,2023-04-28T16:01:46Z,2205930.176,NULL,Respekt,heshima,s,changamnao,upinzani,ufanisi,NA,qt,NA,3,NA,NA,NA,NA,NA,NA,NA,NA,NA,NA,NA,NA,NA,NA,NA,NA,NA,NA,NA
8fd59,task,flow.Sequence,3_0_3_0_1,NA,NA,completion,9492.0440000002,2196407,2196404.794,2196421.644,2205913.688,2205921.2,2023-04-28T16:01:46Z,2205930.176,NULL,Respekt,heshima,s,changamnao,upinzani,ufanisi,NA,qt,NA,3,NA,NA,NA,NA,NA,NA,NA,NA,NA,NA,NA,NA,NA,NA,NA,NA,NA,NA,NA
8fd59,deep,flow.Sequence,3_0_3_0_2_0,NA,NA,skipped,NA,2205921.4000001,NA,NA,2205913.688,2205921.6,2023-04-28T16:01:46Z,2205930.176,NULL,Können,unaweza,s,kiongozi,bustani,mienendo,NA,qt,NA,3,NA,NA,NA,NA,NA,NA,NA,NA,NA,NA,NA,NA,NA,NA,NA,NA,NA,NA,NA
8fd59,Shallow Question,html.Page,3_0_3_0_2_1_0,NA,NA,form submission,5976.2240000954,2205921.7,2205913.688,2205930.176,2211906.4000001,2211906.7,2023-04-28T16:01:52Z,2211908.561,NULL,Können,unaweza,s,kiongozi,bustani,mienendo,unaweza,NA,NA,3,NA,NA,NA,NA,NA,NA,NA,NA,NA,NA,NA,NA,NA,NA,NA,NA,NA,NA,NA
8fd59,"""Richtig""-Screen",canvas.Screen,3_0_3_0_2_1_1,NA,NA,timeout,4995.983,2211908.3000001,2211892.1,2211908.561,2216888.032,2216889,2023-04-28T16:01:56Z,2216904.544,NULL,Können,unaweza,s,kiongozi,bustani,mienendo,NA,qt,1,3,NA,NA,NA,NA,NA,NA,NA,NA,NA,NA,NA,NA,NA,NA,NA,NA,NA,NA,NA
8fd59,"""Falsch""-Screen",canvas.Screen,3_0_3_0_2_1_2,NA,NA,skipped,NA,2216894.3000001,NA,NA,2216888.032,2216894.4000001,2023-04-28T16:01:56Z,2216904.544,NULL,Können,unaweza,s,kiongozi,bustani,mienendo,NA,qt,NA,3,NA,NA,NA,NA,NA,NA,NA,NA,NA,NA,NA,NA,NA,NA,NA,NA,NA,NA,NA
8fd59,shallow,flow.Sequence,3_0_3_0_2_1,NA,NA,completion,10957.856,2205921.6,2205913.688,2205930.176,2216888.032,2216894.4000001,2023-04-28T16:01:56Z,2216904.544,NULL,Können,unaweza,s,kiongozi,bustani,mienendo,NA,qt,NA,3,NA,NA,NA,NA,NA,NA,NA,NA,NA,NA,NA,NA,NA,NA,NA,NA,NA,NA,NA
8fd59,task,flow.Sequence,3_0_3_0_2,NA,NA,completion,10957.856,2205921.4000001,2205913.688,2205930.176,2216888.032,2216894.5,2023-04-28T16:01:56Z,2216904.544,NULL,Können,unaweza,s,kiongozi,bustani,mienendo,NA,qt,NA,3,NA,NA,NA,NA,NA,NA,NA,NA,NA,NA,NA,NA,NA,NA,NA,NA,NA,NA,NA
8fd59,Deep Question,html.Page,3_0_3_0_3_0_0,NA,NA,form submission,4287.6560000475,2216894.7,2216888.032,2216904.544,2221192.2,2221192.4000001,2023-04-28T16:02:01Z,2221201.024,NULL,Kontrolle,kudhibiti,d,NA,NA,NA,h,NA,NA,3,NA,NA,NA,NA,NA,NA,NA,NA,NA,NA,NA,NA,NA,NA,NA,NA,NA,NA,NA
8fd59,"""Richtig""-Screen",canvas.Screen,3_0_3_0_3_0_1,NA,NA,skipped,NA,2221194.9000001,NA,NA,2221192.2,2221194.9000001,2023-04-28T16:02:01Z,2221201.024,NULL,Kontrolle,kudhibiti,d,NA,NA,NA,NA,qt,NA,3,NA,NA,NA,NA,NA,NA,NA,NA,NA,NA,NA,NA,NA,NA,NA,NA,NA,NA,NA
8fd59,"""Falsch""-Screen",canvas.Screen,3_0_3_0_3_0_2,NA,NA,timeout,4996.3599999999,2221195.5,2221185.087,2221201.024,2226180.749,2226181.7,2023-04-28T16:02:06Z,2226197.384,NULL,Kontrolle,kudhibiti,d,NA,NA,NA,NA,qt,0,3,NA,NA,NA,NA,NA,NA,NA,NA,NA,NA,NA,NA,NA,NA,NA,NA,NA,NA,NA
8fd59,deep,flow.Sequence,3_0_3_0_3_0,NA,NA,completion,9276.2049999996,2216894.6,2216888.032,2216904.544,2226180.749,2226182.2,2023-04-28T16:02:06Z,2226197.384,NULL,Kontrolle,kudhibiti,d,NA,NA,NA,NA,qt,NA,3,NA,NA,NA,NA,NA,NA,NA,NA,NA,NA,NA,NA,NA,NA,NA,NA,NA,NA,NA
8fd59,shallow,flow.Sequence,3_0_3_0_3_1,NA,NA,skipped,NA,2226182.4000001,NA,NA,2226180.749,2226182.5,2023-04-28T16:02:06Z,2226197.384,NULL,Kontrolle,kudhibiti,d,NA,NA,NA,NA,qt,NA,3,NA,NA,NA,NA,NA,NA,NA,NA,NA,NA,NA,NA,NA,NA,NA,NA,NA,NA,NA
8fd59,task,flow.Sequence,3_0_3_0_3,NA,NA,completion,9276.2049999996,2216894.6,2216888.032,2216904.544,2226180.749,2226182.8000001,2023-04-28T16:02:06Z,2226197.384,NULL,Kontrolle,kudhibiti,d,NA,NA,NA,NA,qt,NA,3,NA,NA,NA,NA,NA,NA,NA,NA,NA,NA,NA,NA,NA,NA,NA,NA,NA,NA,NA
8fd59,deep,flow.Sequence,3_0_3_0_4_0,NA,NA,skipped,NA,2226183,NA,NA,2226180.749,2226183.1,2023-04-28T16:02:06Z,2226197.384,NULL,Kreativität,ubunifu,s,mratibu,mwendelezo,makubaliano,NA,qt,NA,3,NA,NA,NA,NA,NA,NA,NA,NA,NA,NA,NA,NA,NA,NA,NA,NA,NA,NA,NA
8fd59,Shallow Question,html.Page,3_0_3_0_4_1_0,NA,NA,form submission,6830.5160000953,2226183.3000001,2226180.749,2226197.384,2233027.9000001,2233028,2023-04-28T16:02:13Z,2233041.841,NULL,Kreativität,ubunifu,s,mratibu,mwendelezo,makubaliano,ubunifu,NA,NA,3,NA,NA,NA,NA,NA,NA,NA,NA,NA,NA,NA,NA,NA,NA,NA,NA,NA,NA,NA
8fd59,"""Richtig""-Screen",canvas.Screen,3_0_3_0_4_1_1,NA,NA,timeout,4995.3479999998,2233030,2233024.769,2233041.841,2238020.671,2238021.6,2023-04-28T16:02:18Z,2238037.189,NULL,Kreativität,ubunifu,s,mratibu,mwendelezo,makubaliano,NA,qt,1,3,NA,NA,NA,NA,NA,NA,NA,NA,NA,NA,NA,NA,NA,NA,NA,NA,NA,NA,NA
8fd59,"""Falsch""-Screen",canvas.Screen,3_0_3_0_4_1_2,NA,NA,skipped,NA,2238027.1,NA,NA,2238020.671,2238027.5,2023-04-28T16:02:18Z,2238037.189,NULL,Kreativität,ubunifu,s,mratibu,mwendelezo,makubaliano,NA,qt,NA,3,NA,NA,NA,NA,NA,NA,NA,NA,NA,NA,NA,NA,NA,NA,NA,NA,NA,NA,NA
8fd59,shallow,flow.Sequence,3_0_3_0_4_1,NA,NA,completion,11823.287,2226183.3000001,2226180.749,2226197.384,2238020.671,2238027.9000001,2023-04-28T16:02:18Z,2238037.189,NULL,Kreativität,ubunifu,s,mratibu,mwendelezo,makubaliano,NA,qt,NA,3,NA,NA,NA,NA,NA,NA,NA,NA,NA,NA,NA,NA,NA,NA,NA,NA,NA,NA,NA
8fd59,task,flow.Sequence,3_0_3_0_4,NA,NA,completion,11823.287,2226183,2226180.749,2226197.384,2238020.671,2238028.2,2023-04-28T16:02:18Z,2238037.189,NULL,Kreativität,ubunifu,s,mratibu,mwendelezo,makubaliano,NA,qt,NA,3,NA,NA,NA,NA,NA,NA,NA,NA,NA,NA,NA,NA,NA,NA,NA,NA,NA,NA,NA
8fd59,Deep Question,html.Page,3_0_3_0_5_0_0,NA,NA,form submission,3259.8110000002,2238028.5,2238020.671,2238037.189,2241297,2241297.1,2023-04-28T16:02:21Z,2241301.03,NULL,Gefährdung,kuhatarisha,d,NA,NA,NA,h,NA,NA,3,NA,NA,NA,NA,NA,NA,NA,NA,NA,NA,NA,NA,NA,NA,NA,NA,NA,NA,NA
8fd59,"""Richtig""-Screen",canvas.Screen,3_0_3_0_5_0_1,NA,NA,skipped,NA,2241299.4000001,NA,NA,2241297,2241299.7,2023-04-28T16:02:21Z,2241301.03,NULL,Gefährdung,kuhatarisha,d,NA,NA,NA,NA,qt,NA,3,NA,NA,NA,NA,NA,NA,NA,NA,NA,NA,NA,NA,NA,NA,NA,NA,NA,NA,NA
8fd59,"""Falsch""-Screen",canvas.Screen,3_0_3_0_5_0_2,NA,NA,timeout,4996.4020000002,2241300.8000001,2241285.013,2241301.03,2246280.458,2246281.3000001,2023-04-28T16:02:26Z,2246297.432,NULL,Gefährdung,kuhatarisha,d,NA,NA,NA,NA,qt,0,3,NA,NA,NA,NA,NA,NA,NA,NA,NA,NA,NA,NA,NA,NA,NA,NA,NA,NA,NA
8fd59,deep,flow.Sequence,3_0_3_0_5_0,NA,NA,completion,8243.2690000003,2238028.4000001,2238020.671,2238037.189,2246280.458,2246281.8000001,2023-04-28T16:02:26Z,2246297.432,NULL,Gefährdung,kuhatarisha,d,NA,NA,NA,NA,qt,NA,3,NA,NA,NA,NA,NA,NA,NA,NA,NA,NA,NA,NA,NA,NA,NA,NA,NA,NA,NA
8fd59,shallow,flow.Sequence,3_0_3_0_5_1,NA,NA,skipped,NA,2246281.9000001,NA,NA,2246280.458,2246282.1,2023-04-28T16:02:26Z,2246297.432,NULL,Gefährdung,kuhatarisha,d,NA,NA,NA,NA,qt,NA,3,NA,NA,NA,NA,NA,NA,NA,NA,NA,NA,NA,NA,NA,NA,NA,NA,NA,NA,NA
8fd59,task,flow.Sequence,3_0_3_0_5,NA,NA,completion,8243.2690000003,2238028.3000001,2238020.671,2238037.189,2246280.458,2246282.4000001,2023-04-28T16:02:26Z,2246297.432,NULL,Gefährdung,kuhatarisha,d,NA,NA,NA,NA,qt,NA,3,NA,NA,NA,NA,NA,NA,NA,NA,NA,NA,NA,NA,NA,NA,NA,NA,NA,NA,NA
8fd59,Deep Question,html.Page,3_0_3_0_6_0_0,NA,NA,form submission,8262.9680000953,2246282.6,2246280.458,2246297.432,2254560.4000001,2254560.7,2023-04-28T16:02:34Z,2254574.075,NULL,Stimmung,kinyongo,d,NA,NA,NA,kinyongo,NA,NA,3,NA,NA,NA,NA,NA,NA,NA,NA,NA,NA,NA,NA,NA,NA,NA,NA,NA,NA,NA
8fd59,"""Richtig""-Screen",canvas.Screen,3_0_3_0_6_0_1,NA,NA,timeout,4995.3939999999,2254562.7,2254557.399,2254574.075,2259553.059,2259554.1,2023-04-28T16:02:39Z,2259569.469,NULL,Stimmung,kinyongo,d,NA,NA,NA,NA,qt,1,3,NA,NA,NA,NA,NA,NA,NA,NA,NA,NA,NA,NA,NA,NA,NA,NA,NA,NA,NA
8fd59,"""Falsch""-Screen",canvas.Screen,3_0_3_0_6_0_2,NA,NA,skipped,NA,2259559.8000001,NA,NA,2259553.059,2259560.2,2023-04-28T16:02:39Z,2259569.469,NULL,Stimmung,kinyongo,d,NA,NA,NA,NA,qt,NA,3,NA,NA,NA,NA,NA,NA,NA,NA,NA,NA,NA,NA,NA,NA,NA,NA,NA,NA,NA
8fd59,deep,flow.Sequence,3_0_3_0_6_0,NA,NA,completion,13255.627,2246282.6,2246280.458,2246297.432,2259553.059,2259560.4000001,2023-04-28T16:02:39Z,2259569.469,NULL,Stimmung,kinyongo,d,NA,NA,NA,NA,qt,NA,3,NA,NA,NA,NA,NA,NA,NA,NA,NA,NA,NA,NA,NA,NA,NA,NA,NA,NA,NA
8fd59,shallow,flow.Sequence,3_0_3_0_6_1,NA,NA,skipped,NA,2259560.6,NA,NA,2259553.059,2259560.9000001,2023-04-28T16:02:39Z,2259569.469,NULL,Stimmung,kinyongo,d,NA,NA,NA,NA,qt,NA,3,NA,NA,NA,NA,NA,NA,NA,NA,NA,NA,NA,NA,NA,NA,NA,NA,NA,NA,NA
8fd59,task,flow.Sequence,3_0_3_0_6,NA,NA,completion,13255.627,2246282.5,2246280.458,2246297.432,2259553.059,2259561.2,2023-04-28T16:02:39Z,2259569.469,NULL,Stimmung,kinyongo,d,NA,NA,NA,NA,qt,NA,3,NA,NA,NA,NA,NA,NA,NA,NA,NA,NA,NA,NA,NA,NA,NA,NA,NA,NA,NA
8fd59,deep,flow.Sequence,3_0_3_0_7_0,NA,NA,skipped,NA,2259561.3000001,NA,NA,2259553.059,2259561.5,2023-04-28T16:02:39Z,2259569.469,NULL,Orientierung,urekebisho,s,uelekeo,marekebisho,utunzaji,NA,qt,NA,3,NA,NA,NA,NA,NA,NA,NA,NA,NA,NA,NA,NA,NA,NA,NA,NA,NA,NA,NA
8fd59,Shallow Question,html.Page,3_0_3_0_7_1_0,NA,NA,form submission,9484.531,2259561.6,2259553.059,2259569.469,2269054,2269054.3000001,2023-04-28T16:02:49Z,2269061.752,NULL,Orientierung,urekebisho,s,uelekeo,marekebisho,utunzaji,urekebisho,NA,NA,3,NA,NA,NA,NA,NA,NA,NA,NA,NA,NA,NA,NA,NA,NA,NA,NA,NA,NA,NA
8fd59,"""Richtig""-Screen",canvas.Screen,3_0_3_0_7_1_1,NA,NA,timeout,4995.9750000001,2269056,2269044.917,2269061.752,2274041.21,2274042.1,2023-04-28T16:02:54Z,2274057.727,NULL,Orientierung,urekebisho,s,uelekeo,marekebisho,utunzaji,NA,qt,1,3,NA,NA,NA,NA,NA,NA,NA,NA,NA,NA,NA,NA,NA,NA,NA,NA,NA,NA,NA
8fd59,"""Falsch""-Screen",canvas.Screen,3_0_3_0_7_1_2,NA,NA,skipped,NA,2274047.5,NA,NA,2274041.21,2274047.8000001,2023-04-28T16:02:54Z,2274057.727,NULL,Orientierung,urekebisho,s,uelekeo,marekebisho,utunzaji,NA,qt,NA,3,NA,NA,NA,NA,NA,NA,NA,NA,NA,NA,NA,NA,NA,NA,NA,NA,NA,NA,NA
8fd59,shallow,flow.Sequence,3_0_3_0_7_1,NA,NA,completion,14471.741,2259561.6,2259553.059,2259569.469,2274041.21,2274048.2,2023-04-28T16:02:54Z,2274057.727,NULL,Orientierung,urekebisho,s,uelekeo,marekebisho,utunzaji,NA,qt,NA,3,NA,NA,NA,NA,NA,NA,NA,NA,NA,NA,NA,NA,NA,NA,NA,NA,NA,NA,NA
8fd59,task,flow.Sequence,3_0_3_0_7,NA,NA,completion,14471.741,2259561.2,2259553.059,2259569.469,2274041.21,2274048.5,2023-04-28T16:02:54Z,2274057.727,NULL,Orientierung,urekebisho,s,uelekeo,marekebisho,utunzaji,NA,qt,NA,3,NA,NA,NA,NA,NA,NA,NA,NA,NA,NA,NA,NA,NA,NA,NA,NA,NA,NA,NA
8fd59,block,flow.Loop,3_0_3_0,NA,NA,completion,89160.294,2184875.4000001,2184864.078,2184880.916,2274041.21,2274048.8000001,2023-04-28T16:02:54Z,2274057.727,NULL,NA,NA,NA,NA,NA,NA,NA,qt,NA,3,NA,NA,NA,NA,NA,NA,NA,NA,NA,NA,NA,NA,NA,NA,NA,NA,NA,NA,NA
8fd59,weiter,canvas.Screen,3_0_3_1,sdf,keypress(Space),response,1374.773,2274049,2274041.21,2274057.727,2275432.5,2275433.7,2023-04-28T16:02:55Z,2275472.931,NULL,NA,NA,NA,NA,NA,NA,NA,qt,NA,3,NA,NA,NA,NA,NA,NA,NA,NA,NA,NA,NA,NA,NA,NA,NA,NA,NA,NA,NA
8fd59,check continue,flow.Sequence,3_0_3,NA,NA,completion,90551.584,2184875.3000001,2184864.078,2184880.916,2275432.5,2275434,2023-04-28T16:02:55Z,2275472.931,NULL,NA,NA,NA,NA,NA,NA,NA,qt,NA,3,NA,NA,NA,NA,NA,NA,NA,NA,NA,NA,NA,NA,NA,NA,NA,NA,NA,NA,NA
8fd59,deep,flow.Sequence,3_0_4_0_0_0,NA,NA,skipped,NA,2275470.4000001,NA,NA,2275432.5,2275470.6,2023-04-28T16:02:55Z,2275472.931,NULL,Können,unaweza,s,kiongozi,bustani,mienendo,NA,sd,NA,4,NA,NA,NA,NA,NA,NA,NA,NA,NA,NA,NA,NA,NA,NA,NA,NA,NA,NA,NA
8fd59,Shallow Question,html.Page,3_0_4_0_0_1_0,NA,NA,form submission,7963.5690000001,2275470.6,2275456.947,2275472.931,2283436.5,2283436.6,2023-04-28T16:03:03Z,2283450.364,NULL,Können,unaweza,s,kiongozi,bustani,mienendo,unaweza,NA,NA,4,NA,NA,NA,NA,NA,NA,NA,NA,NA,NA,NA,NA,NA,NA,NA,NA,NA,NA,NA
8fd59,"""Richtig""-Screen",canvas.Screen,3_0_4_0_0_1_1,NA,NA,timeout,4995.335,2283438.5,2283433.648,2283450.364,2288429.452,2288430.4000001,2023-04-28T16:03:08Z,2288445.699,NULL,Können,unaweza,s,kiongozi,bustani,mienendo,NA,sd,1,4,NA,NA,NA,NA,NA,NA,NA,NA,NA,NA,NA,NA,NA,NA,NA,NA,NA,NA,NA
8fd59,"""Falsch""-Screen",canvas.Screen,3_0_4_0_0_1_2,NA,NA,skipped,NA,2288435.9000001,NA,NA,2288429.452,2288436.3000001,2023-04-28T16:03:08Z,2288445.699,NULL,Können,unaweza,s,kiongozi,bustani,mienendo,NA,sd,NA,4,NA,NA,NA,NA,NA,NA,NA,NA,NA,NA,NA,NA,NA,NA,NA,NA,NA,NA,NA
8fd59,shallow,flow.Sequence,3_0_4_0_0_1,NA,NA,completion,12956.521,2275470.6,2275456.947,2275472.931,2288429.452,2288436.6,2023-04-28T16:03:08Z,2288445.699,NULL,Können,unaweza,s,kiongozi,bustani,mienendo,NA,sd,NA,4,NA,NA,NA,NA,NA,NA,NA,NA,NA,NA,NA,NA,NA,NA,NA,NA,NA,NA,NA
8fd59,task,flow.Sequence,3_0_4_0_0,NA,NA,completion,12956.521,2275470.4000001,2275456.947,2275472.931,2288429.452,2288436.9000001,2023-04-28T16:03:08Z,2288445.699,NULL,Können,unaweza,s,kiongozi,bustani,mienendo,NA,sd,NA,4,NA,NA,NA,NA,NA,NA,NA,NA,NA,NA,NA,NA,NA,NA,NA,NA,NA,NA,NA
8fd59,deep,flow.Sequence,3_0_4_0_1_0,NA,NA,skipped,NA,2288437,NA,NA,2288429.452,2288437.2,2023-04-28T16:03:08Z,2288445.699,NULL,Respekt,heshima,s,changamnao,upinzani,ufanisi,NA,sd,NA,4,NA,NA,NA,NA,NA,NA,NA,NA,NA,NA,NA,NA,NA,NA,NA,NA,NA,NA,NA
8fd59,Shallow Question,html.Page,3_0_4_0_1_1_0,NA,NA,form submission,6078.2010000953,2288437.4000001,2288429.452,2288445.699,2294523.9000001,2294524.2,2023-04-28T16:03:14Z,2294541.315,NULL,Respekt,heshima,s,changamnao,upinzani,ufanisi,heshima,NA,NA,4,NA,NA,NA,NA,NA,NA,NA,NA,NA,NA,NA,NA,NA,NA,NA,NA,NA,NA,NA
8fd59,"""Richtig""-Screen",canvas.Screen,3_0_4_0_1_1_1,NA,NA,timeout,4995.952,2294527,2294507.866,2294541.315,2299520.486,2299521.3000001,2023-04-28T16:03:19Z,2299537.267,NULL,Respekt,heshima,s,changamnao,upinzani,ufanisi,NA,sd,1,4,NA,NA,NA,NA,NA,NA,NA,NA,NA,NA,NA,NA,NA,NA,NA,NA,NA,NA,NA
8fd59,"""Falsch""-Screen",canvas.Screen,3_0_4_0_1_1_2,NA,NA,skipped,NA,2299526,NA,NA,2299520.486,2299526.2,2023-04-28T16:03:19Z,2299537.267,NULL,Respekt,heshima,s,changamnao,upinzani,ufanisi,NA,sd,NA,4,NA,NA,NA,NA,NA,NA,NA,NA,NA,NA,NA,NA,NA,NA,NA,NA,NA,NA,NA
8fd59,shallow,flow.Sequence,3_0_4_0_1_1,NA,NA,completion,11074.787,2288437.4000001,2288429.452,2288445.699,2299520.486,2299526.3000001,2023-04-28T16:03:19Z,2299537.267,NULL,Respekt,heshima,s,changamnao,upinzani,ufanisi,NA,sd,NA,4,NA,NA,NA,NA,NA,NA,NA,NA,NA,NA,NA,NA,NA,NA,NA,NA,NA,NA,NA
8fd59,task,flow.Sequence,3_0_4_0_1,NA,NA,completion,11074.787,2288437,2288429.452,2288445.699,2299520.486,2299526.4000001,2023-04-28T16:03:19Z,2299537.267,NULL,Respekt,heshima,s,changamnao,upinzani,ufanisi,NA,sd,NA,4,NA,NA,NA,NA,NA,NA,NA,NA,NA,NA,NA,NA,NA,NA,NA,NA,NA,NA,NA
8fd59,Deep Question,html.Page,3_0_4_0_2_0_0,NA,NA,form submission,4679.4330000477,2299526.4000001,2299520.486,2299537.267,2304216.7,2304216.9000001,2023-04-28T16:03:24Z,2304233.08,NULL,Betrüger,mdanganyifu,d,NA,NA,NA,md,NA,NA,4,NA,NA,NA,NA,NA,NA,NA,NA,NA,NA,NA,NA,NA,NA,NA,NA,NA,NA,NA
8fd59,"""Richtig""-Screen",canvas.Screen,3_0_4_0_2_0_1,NA,NA,skipped,NA,2304218.8000001,NA,NA,2304216.7,2304219,2023-04-28T16:03:24Z,2304233.08,NULL,Betrüger,mdanganyifu,d,NA,NA,NA,NA,sd,NA,4,NA,NA,NA,NA,NA,NA,NA,NA,NA,NA,NA,NA,NA,NA,NA,NA,NA,NA,NA
8fd59,"""Falsch""-Screen",canvas.Screen,3_0_4_0_2_0_2,NA,NA,timeout,4996.1200000001,2304219.8000001,2304199.981,2304233.08,2309212.201,2309213.5,2023-04-28T16:03:29Z,2309229.2,NULL,Betrüger,mdanganyifu,d,NA,NA,NA,NA,sd,0,4,NA,NA,NA,NA,NA,NA,NA,NA,NA,NA,NA,NA,NA,NA,NA,NA,NA,NA,NA
8fd59,deep,flow.Sequence,3_0_4_0_2_0,NA,NA,completion,9674.9339999999,2299526.4000001,2299520.486,2299537.267,2309212.201,2309213.7,2023-04-28T16:03:29Z,2309229.2,NULL,Betrüger,mdanganyifu,d,NA,NA,NA,NA,sd,NA,4,NA,NA,NA,NA,NA,NA,NA,NA,NA,NA,NA,NA,NA,NA,NA,NA,NA,NA,NA
8fd59,shallow,flow.Sequence,3_0_4_0_2_1,NA,NA,skipped,NA,2309213.7,NA,NA,2309212.201,2309213.9000001,2023-04-28T16:03:29Z,2309229.2,NULL,Betrüger,mdanganyifu,d,NA,NA,NA,NA,sd,NA,4,NA,NA,NA,NA,NA,NA,NA,NA,NA,NA,NA,NA,NA,NA,NA,NA,NA,NA,NA
8fd59,task,flow.Sequence,3_0_4_0_2,NA,NA,completion,9674.9339999999,2299526.4000001,2299520.486,2299537.267,2309212.201,2309214,2023-04-28T16:03:29Z,2309229.2,NULL,Betrüger,mdanganyifu,d,NA,NA,NA,NA,sd,NA,4,NA,NA,NA,NA,NA,NA,NA,NA,NA,NA,NA,NA,NA,NA,NA,NA,NA,NA,NA
8fd59,Deep Question,html.Page,3_0_4_0_3_0_0,NA,NA,form submission,7467.0000000475,2309214.1,2309212.201,2309229.2,2316696.2,2316696.4000001,2023-04-28T16:03:36Z,2316706.045,NULL,Stimmung,kinyongo,d,NA,NA,NA,kinyongo,NA,NA,4,NA,NA,NA,NA,NA,NA,NA,NA,NA,NA,NA,NA,NA,NA,NA,NA,NA,NA,NA
8fd59,"""Richtig""-Screen",canvas.Screen,3_0_4_0_3_0_1,NA,NA,timeout,4996.0950000002,2316698.5,2316689.665,2316706.045,2321685.437,2321686.4000001,2023-04-28T16:03:41Z,2321702.14,NULL,Stimmung,kinyongo,d,NA,NA,NA,NA,sd,1,4,NA,NA,NA,NA,NA,NA,NA,NA,NA,NA,NA,NA,NA,NA,NA,NA,NA,NA,NA
8fd59,"""Falsch""-Screen",canvas.Screen,3_0_4_0_3_0_2,NA,NA,skipped,NA,2321691.5,NA,NA,2321685.437,2321691.6,2023-04-28T16:03:41Z,2321702.14,NULL,Stimmung,kinyongo,d,NA,NA,NA,NA,sd,NA,4,NA,NA,NA,NA,NA,NA,NA,NA,NA,NA,NA,NA,NA,NA,NA,NA,NA,NA,NA
8fd59,deep,flow.Sequence,3_0_4_0_3_0,NA,NA,completion,12456.237,2309214.1,2309212.201,2309229.2,2321685.437,2321691.7,2023-04-28T16:03:41Z,2321702.14,NULL,Stimmung,kinyongo,d,NA,NA,NA,NA,sd,NA,4,NA,NA,NA,NA,NA,NA,NA,NA,NA,NA,NA,NA,NA,NA,NA,NA,NA,NA,NA
8fd59,shallow,flow.Sequence,3_0_4_0_3_1,NA,NA,skipped,NA,2321691.8000001,NA,NA,2321685.437,2321691.9000001,2023-04-28T16:03:41Z,2321702.14,NULL,Stimmung,kinyongo,d,NA,NA,NA,NA,sd,NA,4,NA,NA,NA,NA,NA,NA,NA,NA,NA,NA,NA,NA,NA,NA,NA,NA,NA,NA,NA
8fd59,task,flow.Sequence,3_0_4_0_3,NA,NA,completion,12456.237,2309214.1,2309212.201,2309229.2,2321685.437,2321691.9000001,2023-04-28T16:03:41Z,2321702.14,NULL,Stimmung,kinyongo,d,NA,NA,NA,NA,sd,NA,4,NA,NA,NA,NA,NA,NA,NA,NA,NA,NA,NA,NA,NA,NA,NA,NA,NA,NA,NA
8fd59,deep,flow.Sequence,3_0_4_0_4_0,NA,NA,skipped,NA,2321692,NA,NA,2321685.437,2321692,2023-04-28T16:03:41Z,2321702.14,NULL,Orientierung,urekebisho,s,uelekeo,marekebisho,utunzaji,NA,sd,NA,4,NA,NA,NA,NA,NA,NA,NA,NA,NA,NA,NA,NA,NA,NA,NA,NA,NA,NA,NA
8fd59,Shallow Question,html.Page,3_0_4_0_4_1_0,NA,NA,form submission,4349.0600000476,2321692.1,2321685.437,2321702.14,2326051.2,2326051.5,2023-04-28T16:03:46Z,2326065.463,NULL,Orientierung,urekebisho,s,uelekeo,marekebisho,utunzaji,urekebisho,NA,NA,4,NA,NA,NA,NA,NA,NA,NA,NA,NA,NA,NA,NA,NA,NA,NA,NA,NA,NA,NA
8fd59,"""Richtig""-Screen",canvas.Screen,3_0_4_0_4_1_1,NA,NA,timeout,4995.642,2326053.1,2326048.125,2326065.463,2331044.256,2331045.2,2023-04-28T16:03:51Z,2331061.105,NULL,Orientierung,urekebisho,s,uelekeo,marekebisho,utunzaji,NA,sd,1,4,NA,NA,NA,NA,NA,NA,NA,NA,NA,NA,NA,NA,NA,NA,NA,NA,NA,NA,NA
8fd59,"""Falsch""-Screen",canvas.Screen,3_0_4_0_4_1_2,NA,NA,skipped,NA,2331049.8000001,NA,NA,2331044.256,2331049.9000001,2023-04-28T16:03:51Z,2331061.105,NULL,Orientierung,urekebisho,s,uelekeo,marekebisho,utunzaji,NA,sd,NA,4,NA,NA,NA,NA,NA,NA,NA,NA,NA,NA,NA,NA,NA,NA,NA,NA,NA,NA,NA
8fd59,shallow,flow.Sequence,3_0_4_0_4_1,NA,NA,completion,9342.1159999999,2321692.1,2321685.437,2321702.14,2331044.256,2331050,2023-04-28T16:03:51Z,2331061.105,NULL,Orientierung,urekebisho,s,uelekeo,marekebisho,utunzaji,NA,sd,NA,4,NA,NA,NA,NA,NA,NA,NA,NA,NA,NA,NA,NA,NA,NA,NA,NA,NA,NA,NA
8fd59,task,flow.Sequence,3_0_4_0_4,NA,NA,completion,9342.1159999999,2321692,2321685.437,2321702.14,2331044.256,2331050.1,2023-04-28T16:03:51Z,2331061.105,NULL,Orientierung,urekebisho,s,uelekeo,marekebisho,utunzaji,NA,sd,NA,4,NA,NA,NA,NA,NA,NA,NA,NA,NA,NA,NA,NA,NA,NA,NA,NA,NA,NA,NA
8fd59,Deep Question,html.Page,3_0_4_0_5_0_0,NA,NA,form submission,5002.2950000954,2331050.2,2331044.256,2331061.105,2336063.4000001,2336063.6,2023-04-28T16:03:56Z,2336073.321,NULL,Gefährdung,kuhatarisha,d,NA,NA,NA,k,NA,NA,4,NA,NA,NA,NA,NA,NA,NA,NA,NA,NA,NA,NA,NA,NA,NA,NA,NA,NA,NA
8fd59,"""Richtig""-Screen",canvas.Screen,3_0_4_0_5_0_1,NA,NA,skipped,NA,2336065.6,NA,NA,2336063.4000001,2336065.6,2023-04-28T16:03:56Z,2336073.321,NULL,Gefährdung,kuhatarisha,d,NA,NA,NA,NA,sd,NA,4,NA,NA,NA,NA,NA,NA,NA,NA,NA,NA,NA,NA,NA,NA,NA,NA,NA,NA,NA
8fd59,"""Falsch""-Screen",canvas.Screen,3_0_4_0_5_0_2,NA,NA,timeout,4995.8930000002,2336066.4000001,2336056.917,2336073.321,2341052.724,2341055.3000001,2023-04-28T16:04:01Z,2341069.214,NULL,Gefährdung,kuhatarisha,d,NA,NA,NA,NA,sd,0,4,NA,NA,NA,NA,NA,NA,NA,NA,NA,NA,NA,NA,NA,NA,NA,NA,NA,NA,NA
8fd59,deep,flow.Sequence,3_0_4_0_5_0,NA,NA,completion,9991.6189999999,2331050.2,2331044.256,2331061.105,2341052.724,2341055.7,2023-04-28T16:04:01Z,2341069.214,NULL,Gefährdung,kuhatarisha,d,NA,NA,NA,NA,sd,NA,4,NA,NA,NA,NA,NA,NA,NA,NA,NA,NA,NA,NA,NA,NA,NA,NA,NA,NA,NA
8fd59,shallow,flow.Sequence,3_0_4_0_5_1,NA,NA,skipped,NA,2341055.9000001,NA,NA,2341052.724,2341056,2023-04-28T16:04:01Z,2341069.214,NULL,Gefährdung,kuhatarisha,d,NA,NA,NA,NA,sd,NA,4,NA,NA,NA,NA,NA,NA,NA,NA,NA,NA,NA,NA,NA,NA,NA,NA,NA,NA,NA
8fd59,task,flow.Sequence,3_0_4_0_5,NA,NA,completion,9991.6189999999,2331050.1,2331044.256,2331061.105,2341052.724,2341056.3000001,2023-04-28T16:04:01Z,2341069.214,NULL,Gefährdung,kuhatarisha,d,NA,NA,NA,NA,sd,NA,4,NA,NA,NA,NA,NA,NA,NA,NA,NA,NA,NA,NA,NA,NA,NA,NA,NA,NA,NA
8fd59,deep,flow.Sequence,3_0_4_0_6_0,NA,NA,skipped,NA,2341056.5,NA,NA,2341052.724,2341056.6,2023-04-28T16:04:01Z,2341069.214,NULL,Kreativität,ubunifu,s,mratibu,mwendelezo,makubaliano,NA,sd,NA,4,NA,NA,NA,NA,NA,NA,NA,NA,NA,NA,NA,NA,NA,NA,NA,NA,NA,NA,NA
8fd59,Shallow Question,html.Page,3_0_4_0_6_1_0,NA,NA,form submission,4640.7859999998,2341056.8000001,2341052.724,2341069.214,2345710,2345710.1,2023-04-28T16:04:05Z,2345715.2,NULL,Kreativität,ubunifu,s,mratibu,mwendelezo,makubaliano,ubunifu,NA,NA,4,NA,NA,NA,NA,NA,NA,NA,NA,NA,NA,NA,NA,NA,NA,NA,NA,NA,NA,NA
8fd59,"""Richtig""-Screen",canvas.Screen,3_0_4_0_6_1_1,NA,NA,timeout,4996.0389999999,2345712,2345699.168,2345715.2,2350695.079,2350696,2023-04-28T16:04:10Z,2350711.239,NULL,Kreativität,ubunifu,s,mratibu,mwendelezo,makubaliano,NA,sd,1,4,NA,NA,NA,NA,NA,NA,NA,NA,NA,NA,NA,NA,NA,NA,NA,NA,NA,NA,NA
8fd59,"""Falsch""-Screen",canvas.Screen,3_0_4_0_6_1_2,NA,NA,skipped,NA,2350701.3000001,NA,NA,2350695.079,2350701.7,2023-04-28T16:04:10Z,2350711.239,NULL,Kreativität,ubunifu,s,mratibu,mwendelezo,makubaliano,NA,sd,NA,4,NA,NA,NA,NA,NA,NA,NA,NA,NA,NA,NA,NA,NA,NA,NA,NA,NA,NA,NA
8fd59,shallow,flow.Sequence,3_0_4_0_6_1,NA,NA,completion,9625.8649999998,2341056.8000001,2341052.724,2341069.214,2350695.079,2350702.1,2023-04-28T16:04:10Z,2350711.239,NULL,Kreativität,ubunifu,s,mratibu,mwendelezo,makubaliano,NA,sd,NA,4,NA,NA,NA,NA,NA,NA,NA,NA,NA,NA,NA,NA,NA,NA,NA,NA,NA,NA,NA
8fd59,task,flow.Sequence,3_0_4_0_6,NA,NA,completion,9625.8649999998,2341056.4000001,2341052.724,2341069.214,2350695.079,2350702.3000001,2023-04-28T16:04:10Z,2350711.239,NULL,Kreativität,ubunifu,s,mratibu,mwendelezo,makubaliano,NA,sd,NA,4,NA,NA,NA,NA,NA,NA,NA,NA,NA,NA,NA,NA,NA,NA,NA,NA,NA,NA,NA
8fd59,Deep Question,html.Page,3_0_4_0_7_0_0,NA,NA,form submission,10909.161000095,2350702.6,2350695.079,2350711.239,2361620.4000001,2361620.6,2023-04-28T16:04:21Z,2361636.223,NULL,Kontrolle,kudhibiti,d,NA,NA,NA,kidhibiti,NA,NA,4,NA,NA,NA,NA,NA,NA,NA,NA,NA,NA,NA,NA,NA,NA,NA,NA,NA,NA,NA
8fd59,"""Richtig""-Screen",canvas.Screen,3_0_4_0_7_0_1,NA,NA,skipped,NA,2361622.7,NA,NA,2361620.4000001,2361622.9000001,2023-04-28T16:04:21Z,2361636.223,NULL,Kontrolle,kudhibiti,d,NA,NA,NA,NA,sd,NA,4,NA,NA,NA,NA,NA,NA,NA,NA,NA,NA,NA,NA,NA,NA,NA,NA,NA,NA,NA
8fd59,"""Falsch""-Screen",canvas.Screen,3_0_4_0_7_0_2,NA,NA,timeout,4995.7409999999,2361623.5,2361619.279,2361636.223,2366615.328,2366616.3000001,2023-04-28T16:04:26Z,2366631.964,NULL,Kontrolle,kudhibiti,d,NA,NA,NA,NA,sd,0,4,NA,NA,NA,NA,NA,NA,NA,NA,NA,NA,NA,NA,NA,NA,NA,NA,NA,NA,NA
8fd59,deep,flow.Sequence,3_0_4_0_7_0,NA,NA,completion,15904.089,2350702.5,2350695.079,2350711.239,2366615.328,2366616.7,2023-04-28T16:04:26Z,2366631.964,NULL,Kontrolle,kudhibiti,d,NA,NA,NA,NA,sd,NA,4,NA,NA,NA,NA,NA,NA,NA,NA,NA,NA,NA,NA,NA,NA,NA,NA,NA,NA,NA
8fd59,shallow,flow.Sequence,3_0_4_0_7_1,NA,NA,skipped,NA,2366616.9000001,NA,NA,2366615.328,2366617,2023-04-28T16:04:26Z,2366631.964,NULL,Kontrolle,kudhibiti,d,NA,NA,NA,NA,sd,NA,4,NA,NA,NA,NA,NA,NA,NA,NA,NA,NA,NA,NA,NA,NA,NA,NA,NA,NA,NA
8fd59,task,flow.Sequence,3_0_4_0_7,NA,NA,completion,15904.089,2350702.5,2350695.079,2350711.239,2366615.328,2366617.3000001,2023-04-28T16:04:26Z,2366631.964,NULL,Kontrolle,kudhibiti,d,NA,NA,NA,NA,sd,NA,4,NA,NA,NA,NA,NA,NA,NA,NA,NA,NA,NA,NA,NA,NA,NA,NA,NA,NA,NA
8fd59,block,flow.Loop,3_0_4_0,NA,NA,completion,91142.397,2275470.4000001,2275456.947,2275472.931,2366615.328,2366617.6,2023-04-28T16:04:26Z,2366631.964,NULL,NA,NA,NA,NA,NA,NA,NA,sd,NA,4,NA,NA,NA,NA,NA,NA,NA,NA,NA,NA,NA,NA,NA,NA,NA,NA,NA,NA,NA
8fd59,weiter,canvas.Screen,3_0_4_1,sdf,keypress(Space),response,1056.5359999998,2366617.7,2366615.328,2366631.964,2367688.5,2367689.7,2023-04-28T16:04:27Z,2368163.418,NULL,NA,NA,NA,NA,NA,NA,NA,sd,NA,4,NA,NA,NA,NA,NA,NA,NA,NA,NA,NA,NA,NA,NA,NA,NA,NA,NA,NA,NA
8fd59,check continue,flow.Sequence,3_0_4,NA,NA,completion,92215.569,2275470.4000001,2275456.947,2275472.931,2367688.5,2367690,2023-04-28T16:04:27Z,2368163.418,NULL,NA,NA,NA,NA,NA,NA,NA,sd,NA,4,NA,NA,NA,NA,NA,NA,NA,NA,NA,NA,NA,NA,NA,NA,NA,NA,NA,NA,NA
8fd59,check continue,flow.Sequence,3_0_5,NA,NA,skipped,NA,2367726.5,NA,NA,2367688.5,2367726.6,2023-04-28T16:04:27Z,2368163.418,NULL,NA,NA,NA,NA,NA,NA,NA,sdf,NA,5,NA,NA,NA,NA,NA,NA,NA,NA,NA,NA,NA,NA,NA,NA,NA,NA,NA,NA,NA
8fd59,check continue,flow.Sequence,3_0_6,NA,NA,skipped,NA,2367749,NA,NA,2367688.5,2367749.1,2023-04-28T16:04:27Z,2368163.418,NULL,NA,NA,NA,NA,NA,NA,NA,dfs,NA,6,NA,NA,NA,NA,NA,NA,NA,NA,NA,NA,NA,NA,NA,NA,NA,NA,NA,NA,NA
8fd59,check continue,flow.Sequence,3_0_7,NA,NA,skipped,NA,2367769,NA,NA,2367688.5,2367769.1,2023-04-28T16:04:27Z,2368163.418,NULL,NA,NA,NA,NA,NA,NA,NA,df,NA,7,NA,NA,NA,NA,NA,NA,NA,NA,NA,NA,NA,NA,NA,NA,NA,NA,NA,NA,NA
8fd59,check continue,flow.Sequence,3_0_8,NA,NA,skipped,NA,2367786.1,NA,NA,2367688.5,2367786.2,2023-04-28T16:04:27Z,2368163.418,NULL,NA,NA,NA,NA,NA,NA,NA,dfs,NA,8,NA,NA,NA,NA,NA,NA,NA,NA,NA,NA,NA,NA,NA,NA,NA,NA,NA,NA,NA
8fd59,check continue,flow.Sequence,3_0_9,NA,NA,skipped,NA,2367812.7,NA,NA,2367688.5,2367812.9000001,2023-04-28T16:04:27Z,2368163.418,NULL,NA,NA,NA,NA,NA,NA,NA,dsf,NA,9,NA,NA,NA,NA,NA,NA,NA,NA,NA,NA,NA,NA,NA,NA,NA,NA,NA,NA,NA
8fd59,check continue,flow.Sequence,3_0_10,NA,NA,skipped,NA,2367829.3000001,NA,NA,2367688.5,2367829.3000001,2023-04-28T16:04:27Z,2368163.418,NULL,NA,NA,NA,NA,NA,NA,NA,df,NA,10,NA,NA,NA,NA,NA,NA,NA,NA,NA,NA,NA,NA,NA,NA,NA,NA,NA,NA,NA
8fd59,check continue,flow.Sequence,3_0_11,NA,NA,skipped,NA,2367845.2,NA,NA,2367688.5,2367845.4000001,2023-04-28T16:04:27Z,2368163.418,NULL,NA,NA,NA,NA,NA,NA,NA,dfs,NA,11,NA,NA,NA,NA,NA,NA,NA,NA,NA,NA,NA,NA,NA,NA,NA,NA,NA,NA,NA
8fd59,check continue,flow.Sequence,3_0_12,NA,NA,skipped,NA,2367862.1,NA,NA,2367688.5,2367862.3000001,2023-04-28T16:04:27Z,2368163.418,NULL,NA,NA,NA,NA,NA,NA,NA,dsf,NA,12,NA,NA,NA,NA,NA,NA,NA,NA,NA,NA,NA,NA,NA,NA,NA,NA,NA,NA,NA
8fd59,check continue,flow.Sequence,3_0_13,NA,NA,skipped,NA,2367881.6,NA,NA,2367688.5,2367881.7,2023-04-28T16:04:27Z,2368163.418,NULL,NA,NA,NA,NA,NA,NA,NA,dsf,NA,13,NA,NA,NA,NA,NA,NA,NA,NA,NA,NA,NA,NA,NA,NA,NA,NA,NA,NA,NA
8fd59,check continue,flow.Sequence,3_0_14,NA,NA,skipped,NA,2367898.6,NA,NA,2367688.5,2367898.7,2023-04-28T16:04:27Z,2368163.418,NULL,NA,NA,NA,NA,NA,NA,NA,NA,NA,14,NA,NA,NA,NA,NA,NA,NA,NA,NA,NA,NA,NA,NA,NA,NA,NA,NA,NA,NA
8fd59,check continue,flow.Sequence,3_0_15,NA,NA,skipped,NA,2367919,NA,NA,2367688.5,2367919.1,2023-04-28T16:04:28Z,2368163.418,NULL,NA,NA,NA,NA,NA,NA,NA,NA,NA,15,NA,NA,NA,NA,NA,NA,NA,NA,NA,NA,NA,NA,NA,NA,NA,NA,NA,NA,NA
8fd59,check continue,flow.Sequence,3_0_16,NA,NA,skipped,NA,2367934.8000001,NA,NA,2367688.5,2367935.1,2023-04-28T16:04:28Z,2368163.418,NULL,NA,NA,NA,NA,NA,NA,NA,NA,NA,16,NA,NA,NA,NA,NA,NA,NA,NA,NA,NA,NA,NA,NA,NA,NA,NA,NA,NA,NA
8fd59,check continue,flow.Sequence,3_0_17,NA,NA,skipped,NA,2367949.5,NA,NA,2367688.5,2367949.7,2023-04-28T16:04:28Z,2368163.418,NULL,NA,NA,NA,NA,NA,NA,NA,NA,NA,17,NA,NA,NA,NA,NA,NA,NA,NA,NA,NA,NA,NA,NA,NA,NA,NA,NA,NA,NA
8fd59,check continue,flow.Sequence,3_0_18,NA,NA,skipped,NA,2367965.2,NA,NA,2367688.5,2367965.3000001,2023-04-28T16:04:28Z,2368163.418,NULL,NA,NA,NA,NA,NA,NA,NA,NA,NA,18,NA,NA,NA,NA,NA,NA,NA,NA,NA,NA,NA,NA,NA,NA,NA,NA,NA,NA,NA
8fd59,check continue,flow.Sequence,3_0_19,NA,NA,skipped,NA,2367982.9000001,NA,NA,2367688.5,2367983,2023-04-28T16:04:28Z,2368163.418,NULL,NA,NA,NA,NA,NA,NA,NA,NA,NA,19,NA,NA,NA,NA,NA,NA,NA,NA,NA,NA,NA,NA,NA,NA,NA,NA,NA,NA,NA
8fd59,check continue,flow.Sequence,3_0_20,NA,NA,skipped,NA,2367999.8000001,NA,NA,2367688.5,2367999.9000001,2023-04-28T16:04:28Z,2368163.418,NULL,NA,NA,NA,NA,NA,NA,NA,NA,NA,20,NA,NA,NA,NA,NA,NA,NA,NA,NA,NA,NA,NA,NA,NA,NA,NA,NA,NA,NA
8fd59,check continue,flow.Sequence,3_0_21,NA,NA,skipped,NA,2368017.9000001,NA,NA,2367688.5,2368018,2023-04-28T16:04:28Z,2368163.418,NULL,NA,NA,NA,NA,NA,NA,NA,NA,NA,21,NA,NA,NA,NA,NA,NA,NA,NA,NA,NA,NA,NA,NA,NA,NA,NA,NA,NA,NA
8fd59,check continue,flow.Sequence,3_0_22,NA,NA,skipped,NA,2368032.6,NA,NA,2367688.5,2368032.7,2023-04-28T16:04:28Z,2368163.418,NULL,NA,NA,NA,NA,NA,NA,NA,NA,NA,22,NA,NA,NA,NA,NA,NA,NA,NA,NA,NA,NA,NA,NA,NA,NA,NA,NA,NA,NA
8fd59,check continue,flow.Sequence,3_0_23,NA,NA,skipped,NA,2368050.2,NA,NA,2367688.5,2368050.3000001,2023-04-28T16:04:28Z,2368163.418,NULL,NA,NA,NA,NA,NA,NA,NA,NA,NA,23,NA,NA,NA,NA,NA,NA,NA,NA,NA,NA,NA,NA,NA,NA,NA,NA,NA,NA,NA
8fd59,check continue,flow.Sequence,3_0_24,NA,NA,skipped,NA,2368069.1,NA,NA,2367688.5,2368069.3000001,2023-04-28T16:04:28Z,2368163.418,NULL,NA,NA,NA,NA,NA,NA,NA,NA,NA,24,NA,NA,NA,NA,NA,NA,NA,NA,NA,NA,NA,NA,NA,NA,NA,NA,NA,NA,NA
8fd59,check continue,flow.Sequence,3_0_25,NA,NA,skipped,NA,2368084.8000001,NA,NA,2367688.5,2368085,2023-04-28T16:04:28Z,2368163.418,NULL,NA,NA,NA,NA,NA,NA,NA,NA,NA,25,NA,NA,NA,NA,NA,NA,NA,NA,NA,NA,NA,NA,NA,NA,NA,NA,NA,NA,NA
8fd59,check continue,flow.Sequence,3_0_26,NA,NA,skipped,NA,2368099.8000001,NA,NA,2367688.5,2368100,2023-04-28T16:04:28Z,2368163.418,NULL,NA,NA,NA,NA,NA,NA,NA,NA,NA,26,NA,NA,NA,NA,NA,NA,NA,NA,NA,NA,NA,NA,NA,NA,NA,NA,NA,NA,NA
8fd59,check continue,flow.Sequence,3_0_27,NA,NA,skipped,NA,2368118.2,NA,NA,2367688.5,2368118.3000001,2023-04-28T16:04:28Z,2368163.418,NULL,NA,NA,NA,NA,NA,NA,NA,NA,NA,27,NA,NA,NA,NA,NA,NA,NA,NA,NA,NA,NA,NA,NA,NA,NA,NA,NA,NA,NA
8fd59,check continue,flow.Sequence,3_0_28,NA,NA,skipped,NA,2368134,NA,NA,2367688.5,2368134.2,2023-04-28T16:04:28Z,2368163.418,NULL,NA,NA,NA,NA,NA,NA,NA,NA,NA,28,NA,NA,NA,NA,NA,NA,NA,NA,NA,NA,NA,NA,NA,NA,NA,NA,NA,NA,NA
8fd59,check continue,flow.Sequence,3_0_29,NA,NA,skipped,NA,2368150.5,NA,NA,2367688.5,2368150.6,2023-04-28T16:04:28Z,2368163.418,NULL,NA,NA,NA,NA,NA,NA,NA,NA,NA,29,NA,NA,NA,NA,NA,NA,NA,NA,NA,NA,NA,NA,NA,NA,NA,NA,NA,NA,NA
8fd59,until continue,flow.Loop,3_0,NA,NA,completion,430755.145,1936876.9000001,1936884.721,1936933.355,2367688.5,2368150.8000001,2023-04-28T16:04:28Z,2368163.418,NULL,NA,NA,NA,NA,NA,NA,NA,NA,NA,NA,NA,NA,NA,NA,NA,NA,NA,NA,NA,NA,NA,NA,NA,NA,NA,NA,NA,NA,NA
8fd59,block 1,flow.Sequence,3,NA,NA,completion,430755.145,1936876.9000001,1936884.721,1936933.355,2367688.5,2368150.8000001,2023-04-28T16:04:28Z,2368163.418,NULL,NA,NA,NA,NA,NA,NA,NA,NA,NA,NA,NA,NA,NA,NA,NA,NA,NA,NA,NA,NA,NA,NA,NA,NA,NA,NA,NA,NA,NA
8fd59,1.Part Over,canvas.Screen,4,NA,keypress(Space),response,3152.1820000238,2368150.8000001,2368147.311,2368163.418,2371315.6,2371316.6,2023-04-28T16:04:31Z,2371394.187,NULL,NA,NA,NA,NA,NA,NA,NA,NA,NA,NA,NA,NA,NA,NA,NA,NA,NA,NA,NA,NA,NA,NA,NA,NA,NA,NA,NA,NA,NA
8fd59,deep,flow.Sequence,5_0_0_0_0_0,NA,NA,skipped,NA,2371386.6,NA,NA,2371315.6,2371386.7,2023-04-28T16:04:31Z,2371394.187,NULL,Papier,karatasi,s,uchambuzi,usalama,kukataliwa,NA,sdf,NA,0,NA,NA,NA,NA,NA,NA,NA,NA,NA,NA,NA,NA,NA,NA,NA,NA,NA,NA,NA
8fd59,Shallow Question,html.Page,5_0_0_0_0_1_0,NA,NA,form submission,3854.0130000478,2371386.8000001,2371377.6,2371394.187,2375248.2,2375248.4000001,2023-04-28T16:04:35Z,2375257.832,NULL,Papier,karatasi,s,uchambuzi,usalama,kukataliwa,karatasi,NA,NA,0,NA,NA,NA,NA,NA,NA,NA,NA,NA,NA,NA,NA,NA,NA,NA,NA,NA,NA,NA
8fd59,"""Richtig""-Screen",canvas.Screen,5_0_0_0_0_1_1,NA,NA,timeout,4995.648,2375250.2,2375241.54,2375257.832,2380236.832,2380237.3000001,2023-04-28T16:04:40Z,2380253.48,NULL,Papier,karatasi,s,uchambuzi,usalama,kukataliwa,NA,sdf,1,0,NA,NA,NA,NA,NA,NA,NA,NA,NA,NA,NA,NA,NA,NA,NA,NA,NA,NA,NA
8fd59,"""Falsch""-Screen",canvas.Screen,5_0_0_0_0_1_2,NA,NA,skipped,NA,2380240.3000001,NA,NA,2380236.832,2380240.5,2023-04-28T16:04:40Z,2380253.48,NULL,Papier,karatasi,s,uchambuzi,usalama,kukataliwa,NA,sdf,NA,0,NA,NA,NA,NA,NA,NA,NA,NA,NA,NA,NA,NA,NA,NA,NA,NA,NA,NA,NA
8fd59,shallow,flow.Sequence,5_0_0_0_0_1,NA,NA,completion,8842.645,2371386.8000001,2371377.6,2371394.187,2380236.832,2380240.7,2023-04-28T16:04:40Z,2380253.48,NULL,Papier,karatasi,s,uchambuzi,usalama,kukataliwa,NA,sdf,NA,0,NA,NA,NA,NA,NA,NA,NA,NA,NA,NA,NA,NA,NA,NA,NA,NA,NA,NA,NA
8fd59,task,flow.Sequence,5_0_0_0_0,NA,NA,completion,8842.645,2371386.6,2371377.6,2371394.187,2380236.832,2380240.8000001,2023-04-28T16:04:40Z,2380253.48,NULL,Papier,karatasi,s,uchambuzi,usalama,kukataliwa,NA,sdf,NA,0,NA,NA,NA,NA,NA,NA,NA,NA,NA,NA,NA,NA,NA,NA,NA,NA,NA,NA,NA
8fd59,deep,flow.Sequence,5_0_0_0_1_0,NA,NA,skipped,NA,2380240.9000001,NA,NA,2380236.832,2380240.9000001,2023-04-28T16:04:40Z,2380253.48,NULL,System,maongozi,s,chokochoko,nuksani,mitaani,NA,sdf,NA,0,NA,NA,NA,NA,NA,NA,NA,NA,NA,NA,NA,NA,NA,NA,NA,NA,NA,NA,NA
8fd59,Shallow Question,html.Page,5_0_0_0_1_1_0,NA,NA,form submission,4545.7200000477,2380241,2380236.832,2380253.48,2384799.2,2384799.3000001,2023-04-28T16:04:44Z,2384799.773,NULL,System,maongozi,s,chokochoko,nuksani,mitaani,chokochoko,NA,NA,0,NA,NA,NA,NA,NA,NA,NA,NA,NA,NA,NA,NA,NA,NA,NA,NA,NA,NA,NA
8fd59,"""Richtig""-Screen",canvas.Screen,5_0_0_0_1_1_1,NA,NA,skipped,NA,2384801.4000001,NA,NA,2384799.2,2384801.5,2023-04-28T16:04:44Z,2384799.773,NULL,System,maongozi,s,chokochoko,nuksani,mitaani,NA,sdf,NA,0,NA,NA,NA,NA,NA,NA,NA,NA,NA,NA,NA,NA,NA,NA,NA,NA,NA,NA,NA
8fd59,"""Falsch""-Screen",canvas.Screen,5_0_0_0_1_1_2,NA,NA,timeout,4996.5290000001,2384802,2384783.651,2384799.773,2389779.188,2389779.7,2023-04-28T16:04:49Z,2389796.302,NULL,System,maongozi,s,chokochoko,nuksani,mitaani,NA,sdf,0,0,NA,NA,NA,NA,NA,NA,NA,NA,NA,NA,NA,NA,NA,NA,NA,NA,NA,NA,NA
8fd59,shallow,flow.Sequence,5_0_0_0_1_1,NA,NA,completion,9525.7080000001,2380241,2380236.832,2380253.48,2389779.188,2389779.9000001,2023-04-28T16:04:49Z,2389796.302,NULL,System,maongozi,s,chokochoko,nuksani,mitaani,NA,sdf,NA,0,NA,NA,NA,NA,NA,NA,NA,NA,NA,NA,NA,NA,NA,NA,NA,NA,NA,NA,NA
8fd59,task,flow.Sequence,5_0_0_0_1,NA,NA,completion,9525.7080000001,2380240.9000001,2380236.832,2380253.48,2389779.188,2389780,2023-04-28T16:04:49Z,2389796.302,NULL,System,maongozi,s,chokochoko,nuksani,mitaani,NA,sdf,NA,0,NA,NA,NA,NA,NA,NA,NA,NA,NA,NA,NA,NA,NA,NA,NA,NA,NA,NA,NA
8fd59,deep,flow.Sequence,5_0_0_0_2_0,NA,NA,skipped,NA,2389780.1,NA,NA,2389779.188,2389780.1,2023-04-28T16:04:49Z,2389796.302,NULL,Niveau,kiwango,s,usimamizi,mwamali,mshairi,NA,sdf,NA,0,NA,NA,NA,NA,NA,NA,NA,NA,NA,NA,NA,NA,NA,NA,NA,NA,NA,NA,NA
8fd59,Shallow Question,html.Page,5_0_0_0_2_1_0,NA,NA,form submission,3865.3980000475,2389780.1,2389779.188,2389796.302,2393661.7,2393661.8000001,2023-04-28T16:04:53Z,2393675.788,NULL,Niveau,kiwango,s,usimamizi,mwamali,mshairi,usimamizi,NA,NA,0,NA,NA,NA,NA,NA,NA,NA,NA,NA,NA,NA,NA,NA,NA,NA,NA,NA,NA,NA
8fd59,"""Richtig""-Screen",canvas.Screen,5_0_0_0_2_1_1,NA,NA,skipped,NA,2393663.6,NA,NA,2393661.7,2393663.7,2023-04-28T16:04:53Z,2393675.788,NULL,Niveau,kiwango,s,usimamizi,mwamali,mshairi,NA,sdf,NA,0,NA,NA,NA,NA,NA,NA,NA,NA,NA,NA,NA,NA,NA,NA,NA,NA,NA,NA,NA
8fd59,"""Falsch""-Screen",canvas.Screen,5_0_0_0_2_1_2,NA,NA,timeout,4996.267,2393664.2,2393659.716,2393675.788,2398655.512,2398656.6,2023-04-28T16:04:58Z,2398672.055,NULL,Niveau,kiwango,s,usimamizi,mwamali,mshairi,NA,sdf,0,0,NA,NA,NA,NA,NA,NA,NA,NA,NA,NA,NA,NA,NA,NA,NA,NA,NA,NA,NA
8fd59,shallow,flow.Sequence,5_0_0_0_2_1,NA,NA,completion,8859.21,2389780.1,2389779.188,2389796.302,2398655.512,2398657.1,2023-04-28T16:04:58Z,2398672.055,NULL,Niveau,kiwango,s,usimamizi,mwamali,mshairi,NA,sdf,NA,0,NA,NA,NA,NA,NA,NA,NA,NA,NA,NA,NA,NA,NA,NA,NA,NA,NA,NA,NA
8fd59,task,flow.Sequence,5_0_0_0_2,NA,NA,completion,8859.21,2389780.1,2389779.188,2389796.302,2398655.512,2398657.4000001,2023-04-28T16:04:58Z,2398672.055,NULL,Niveau,kiwango,s,usimamizi,mwamali,mshairi,NA,sdf,NA,0,NA,NA,NA,NA,NA,NA,NA,NA,NA,NA,NA,NA,NA,NA,NA,NA,NA,NA,NA
8fd59,Deep Question,html.Page,5_0_0_0_3_0_0,NA,NA,form submission,4063.1450000475,2398657.6,2398655.512,2398672.055,2402735.2,2402735.4000001,2023-04-28T16:05:02Z,2402752.301,NULL,Körper,kiwiliwili,d,NA,NA,NA,h,NA,NA,0,NA,NA,NA,NA,NA,NA,NA,NA,NA,NA,NA,NA,NA,NA,NA,NA,NA,NA,NA
8fd59,"""Richtig""-Screen",canvas.Screen,5_0_0_0_3_0_1,NA,NA,skipped,NA,2402737.7,NA,NA,2402735.2,2402737.9000001,2023-04-28T16:05:02Z,2402752.301,NULL,Körper,kiwiliwili,d,NA,NA,NA,NA,sdf,NA,0,NA,NA,NA,NA,NA,NA,NA,NA,NA,NA,NA,NA,NA,NA,NA,NA,NA,NA,NA
8fd59,"""Falsch""-Screen",canvas.Screen,5_0_0_0_3_0_2,NA,NA,timeout,4995.8149999999,2402738.5,2402719.053,2402752.301,2407731.425,2407732.3000001,2023-04-28T16:05:07Z,2407748.116,NULL,Körper,kiwiliwili,d,NA,NA,NA,NA,sdf,0,0,NA,NA,NA,NA,NA,NA,NA,NA,NA,NA,NA,NA,NA,NA,NA,NA,NA,NA,NA
8fd59,deep,flow.Sequence,5_0_0_0_3_0,NA,NA,completion,9059.3699999996,2398657.6,2398655.512,2398672.055,2407731.425,2407732.7,2023-04-28T16:05:07Z,2407748.116,NULL,Körper,kiwiliwili,d,NA,NA,NA,NA,sdf,NA,0,NA,NA,NA,NA,NA,NA,NA,NA,NA,NA,NA,NA,NA,NA,NA,NA,NA,NA,NA
8fd59,shallow,flow.Sequence,5_0_0_0_3_1,NA,NA,skipped,NA,2407732.9000001,NA,NA,2407731.425,2407733,2023-04-28T16:05:07Z,2407748.116,NULL,Körper,kiwiliwili,d,NA,NA,NA,NA,sdf,NA,0,NA,NA,NA,NA,NA,NA,NA,NA,NA,NA,NA,NA,NA,NA,NA,NA,NA,NA,NA
8fd59,task,flow.Sequence,5_0_0_0_3,NA,NA,completion,9059.3699999996,2398657.5,2398655.512,2398672.055,2407731.425,2407733.4000001,2023-04-28T16:05:07Z,2407748.116,NULL,Körper,kiwiliwili,d,NA,NA,NA,NA,sdf,NA,0,NA,NA,NA,NA,NA,NA,NA,NA,NA,NA,NA,NA,NA,NA,NA,NA,NA,NA,NA
8fd59,deep,flow.Sequence,5_0_0_0_4_0,NA,NA,skipped,NA,2407733.5,NA,NA,2407731.425,2407733.7,2023-04-28T16:05:07Z,2407748.116,NULL,Lawine,banguko,s,maambukizi,usuluhishi,chekechea,NA,sdf,NA,0,NA,NA,NA,NA,NA,NA,NA,NA,NA,NA,NA,NA,NA,NA,NA,NA,NA,NA,NA
8fd59,Shallow Question,html.Page,5_0_0_0_4_1_0,NA,NA,form submission,4693.4840000239,2407733.8000001,2407731.425,2407748.116,2412441.6,2412441.9000001,2023-04-28T16:05:12Z,2412443.719,NULL,Lawine,banguko,s,maambukizi,usuluhishi,chekechea,maambukizi,NA,NA,0,NA,NA,NA,NA,NA,NA,NA,NA,NA,NA,NA,NA,NA,NA,NA,NA,NA,NA,NA
8fd59,"""Richtig""-Screen",canvas.Screen,5_0_0_0_4_1_1,NA,NA,skipped,NA,2412444,NA,NA,2412441.6,2412444.1,2023-04-28T16:05:12Z,2412443.719,NULL,Lawine,banguko,s,maambukizi,usuluhishi,chekechea,NA,sdf,NA,0,NA,NA,NA,NA,NA,NA,NA,NA,NA,NA,NA,NA,NA,NA,NA,NA,NA,NA,NA
8fd59,"""Falsch""-Screen",canvas.Screen,5_0_0_0_4_1_2,NA,NA,timeout,4996.642,2412444.7,2412427.582,2412443.719,2417423.074,2417424.8000001,2023-04-28T16:05:17Z,2417440.361,NULL,Lawine,banguko,s,maambukizi,usuluhishi,chekechea,NA,sdf,0,0,NA,NA,NA,NA,NA,NA,NA,NA,NA,NA,NA,NA,NA,NA,NA,NA,NA,NA,NA
8fd59,shallow,flow.Sequence,5_0_0_0_4_1,NA,NA,completion,9674.9580000001,2407733.7,2407731.425,2407748.116,2417423.074,2417425.3000001,2023-04-28T16:05:17Z,2417440.361,NULL,Lawine,banguko,s,maambukizi,usuluhishi,chekechea,NA,sdf,NA,0,NA,NA,NA,NA,NA,NA,NA,NA,NA,NA,NA,NA,NA,NA,NA,NA,NA,NA,NA
8fd59,task,flow.Sequence,5_0_0_0_4,NA,NA,completion,9674.9580000001,2407733.5,2407731.425,2407748.116,2417423.074,2417425.6,2023-04-28T16:05:17Z,2417440.361,NULL,Lawine,banguko,s,maambukizi,usuluhishi,chekechea,NA,sdf,NA,0,NA,NA,NA,NA,NA,NA,NA,NA,NA,NA,NA,NA,NA,NA,NA,NA,NA,NA,NA
8fd59,Deep Question,html.Page,5_0_0_0_5_0_0,NA,NA,form submission,3132.0390000953,2417425.8000001,2417423.074,2417440.361,2420572.4000001,2420572.5,2023-04-28T16:05:20Z,2420587.201,NULL,Übersicht,kilindo,d,NA,NA,NA,h,NA,NA,0,NA,NA,NA,NA,NA,NA,NA,NA,NA,NA,NA,NA,NA,NA,NA,NA,NA,NA,NA
8fd59,"""Richtig""-Screen",canvas.Screen,5_0_0_0_5_0_1,NA,NA,skipped,NA,2420574.7,NA,NA,2420572.4000001,2420574.9000001,2023-04-28T16:05:20Z,2420587.201,NULL,Übersicht,kilindo,d,NA,NA,NA,NA,sdf,NA,0,NA,NA,NA,NA,NA,NA,NA,NA,NA,NA,NA,NA,NA,NA,NA,NA,NA,NA,NA
8fd59,"""Falsch""-Screen",canvas.Screen,5_0_0_0_5_0_2,NA,NA,timeout,4996.2779999999,2420575.5,2420571.074,2420587.201,2425566.85,2425567.3000001,2023-04-28T16:05:25Z,2425583.479,NULL,Übersicht,kilindo,d,NA,NA,NA,NA,sdf,0,0,NA,NA,NA,NA,NA,NA,NA,NA,NA,NA,NA,NA,NA,NA,NA,NA,NA,NA,NA
8fd59,deep,flow.Sequence,5_0_0_0_5_0,NA,NA,completion,8126.4890000001,2417425.8000001,2417423.074,2417440.361,2425566.85,2425567.5,2023-04-28T16:05:25Z,2425583.479,NULL,Übersicht,kilindo,d,NA,NA,NA,NA,sdf,NA,0,NA,NA,NA,NA,NA,NA,NA,NA,NA,NA,NA,NA,NA,NA,NA,NA,NA,NA,NA
8fd59,shallow,flow.Sequence,5_0_0_0_5_1,NA,NA,skipped,NA,2425567.6,NA,NA,2425566.85,2425567.6,2023-04-28T16:05:25Z,2425583.479,NULL,Übersicht,kilindo,d,NA,NA,NA,NA,sdf,NA,0,NA,NA,NA,NA,NA,NA,NA,NA,NA,NA,NA,NA,NA,NA,NA,NA,NA,NA,NA
8fd59,task,flow.Sequence,5_0_0_0_5,NA,NA,completion,8126.4890000001,2417425.7,2417423.074,2417440.361,2425566.85,2425567.7,2023-04-28T16:05:25Z,2425583.479,NULL,Übersicht,kilindo,d,NA,NA,NA,NA,sdf,NA,0,NA,NA,NA,NA,NA,NA,NA,NA,NA,NA,NA,NA,NA,NA,NA,NA,NA,NA,NA
8fd59,Deep Question,html.Page,5_0_0_0_6_0_0,NA,NA,form submission,3441.4210000955,2425567.8000001,2425566.85,2425583.479,2429024.9000001,2429025.1,2023-04-28T16:05:29Z,2429046.761,NULL,Vorwurf,mashtaka,d,NA,NA,NA,h,NA,NA,0,NA,NA,NA,NA,NA,NA,NA,NA,NA,NA,NA,NA,NA,NA,NA,NA,NA,NA,NA
8fd59,"""Richtig""-Screen",canvas.Screen,5_0_0_0_6_0_1,NA,NA,skipped,NA,2429027.2,NA,NA,2429024.9000001,2429027.3000001,2023-04-28T16:05:29Z,2429046.761,NULL,Vorwurf,mashtaka,d,NA,NA,NA,NA,sdf,NA,0,NA,NA,NA,NA,NA,NA,NA,NA,NA,NA,NA,NA,NA,NA,NA,NA,NA,NA,NA
8fd59,"""Falsch""-Screen",canvas.Screen,5_0_0_0_6_0_2,NA,NA,timeout,4996.5210000002,2429027.9000001,2429030.091,2429046.761,2434026.402,2434027.3000001,2023-04-28T16:05:34Z,2434043.282,NULL,Vorwurf,mashtaka,d,NA,NA,NA,NA,sdf,0,0,NA,NA,NA,NA,NA,NA,NA,NA,NA,NA,NA,NA,NA,NA,NA,NA,NA,NA,NA
8fd59,deep,flow.Sequence,5_0_0_0_6_0,NA,NA,completion,8442.923,2425567.8000001,2425566.85,2425583.479,2434026.402,2434027.9000001,2023-04-28T16:05:34Z,2434043.282,NULL,Vorwurf,mashtaka,d,NA,NA,NA,NA,sdf,NA,0,NA,NA,NA,NA,NA,NA,NA,NA,NA,NA,NA,NA,NA,NA,NA,NA,NA,NA,NA
