observation,sender,sender_type,sender_id,response,response_action,ended_on,duration,time_run,time_render,time_show,time_end,time_commit,timestamp,time_switch,distractors,german,swahili,enc,distractor1,distractor2,distractor3,response_2,x,correct,x_2,url_vp,url_sess,meta_labjs_version,meta_location,meta_user_agent,meta_platform,meta_language,meta_locale,meta_time_zone,meta_timezone_offset,meta_screen_width,meta_screen_height,meta_scroll_width,meta_scroll_height,meta_window_inner_width,meta_window_inner_height,meta_device_pixel_ratio,meta_labjs_build_flavor,meta_labjs_build_commit
40881,Introduction general,canvas.Screen,0,weiter,keypress(q),response,126300.78,589,596.4,617.22,126918,126939,2024-11-02T10:04:20Z,126951.18,NULL,NA,NA,NA,NA,NA,NA,NA,NA,NA,NA,165,1,20.2.4,https://neurocog.fernuni.ch/studies/vweber/encoding_immediate/index.html?vp=165&sess=1,Mozilla/5.0 (Windows NT 10.0; Win64; x64; rv:132.0) Gecko/20100101 Firefox/132.0,Win32,de,de-CH,Europe/Zurich,-60,1920,1080,1920,871,1920,919,1,production,f5b4a49f956347addd546a832a3327688c2c0fef
40881,Introduction practice,canvas.Screen,1_0,NA,keypress(Space),response,3326.82,126942,126941.54,126951.18,130278,130294,2024-11-02T10:04:23Z,130305.08,NULL,NA,NA,NA,NA,NA,NA,NA,NA,NA,NA,NA,NA,NA,NA,NA,NA,NA,NA,NA,NA,NA,NA,NA,NA,NA,NA,NA,NA,NA
40881,deep,flow.Sequence,1_1_0_0,NA,NA,skipped,NA,130296,NA,NA,130278,130296,2024-11-02T10:04:23Z,130305.08,"c(""distractor1"", ""distractor2"", ""distractor3"")",Gegenwart,hadhara,s,katiba,jokofu,mikopo,NA,NA,NA,NA,NA,NA,NA,NA,NA,NA,NA,NA,NA,NA,NA,NA,NA,NA,NA,NA,NA,NA,NA
40881,Shallow Question,html.Page,1_1_0_1_0,NA,NA,form submission,11162.92,130296,130296.86,130305.08,141468,141468,2024-11-02T10:04:35Z,141486.56,"c(""distractor1"", ""distractor2"", ""distractor3"")",Gegenwart,hadhara,s,katiba,jokofu,mikopo,katiba,NA,NA,NA,NA,NA,NA,NA,NA,NA,NA,NA,NA,NA,NA,NA,NA,NA,NA,NA,NA,NA,NA
40881,"""Richtig""-Screen",canvas.Screen,1_1_0_1_1,NA,NA,skipped,NA,141479,NA,NA,141468,141480,2024-11-02T10:04:35Z,141486.56,"c(""distractor1"", ""distractor2"", ""distractor3"")",Gegenwart,hadhara,s,katiba,jokofu,mikopo,NA,NA,NA,NA,NA,NA,NA,NA,NA,NA,NA,NA,NA,NA,NA,NA,NA,NA,NA,NA,NA,NA,NA
40881,"""Falsch""-Screen",canvas.Screen,1_1_0_1_2,NA,NA,timeout,4997.3,141485,141463.74,141486.56,146463.04,146466,2024-11-02T10:04:40Z,146483.86,"c(""distractor1"", ""distractor2"", ""distractor3"")",Gegenwart,hadhara,s,katiba,jokofu,mikopo,NA,NA,0,NA,NA,NA,NA,NA,NA,NA,NA,NA,NA,NA,NA,NA,NA,NA,NA,NA,NA,NA,NA
40881,shallow,flow.Sequence,1_1_0_1,NA,NA,completion,16157.96,130296,130296.86,130305.08,146463.04,146466,2024-11-02T10:04:40Z,146483.86,"c(""distractor1"", ""distractor2"", ""distractor3"")",Gegenwart,hadhara,s,katiba,jokofu,mikopo,NA,NA,NA,NA,NA,NA,NA,NA,NA,NA,NA,NA,NA,NA,NA,NA,NA,NA,NA,NA,NA,NA,NA
40881,task,flow.Sequence,1_1_0,NA,NA,completion,16157.96,130296,130296.86,130305.08,146463.04,146467,2024-11-02T10:04:40Z,146483.86,"c(""distractor1"", ""distractor2"", ""distractor3"")",Gegenwart,hadhara,s,katiba,jokofu,mikopo,NA,NA,NA,NA,NA,NA,NA,NA,NA,NA,NA,NA,NA,NA,NA,NA,NA,NA,NA,NA,NA,NA,NA
40881,Deep Question,html.Page,1_1_1_0_0,NA,NA,form submission,5996.14,146468,146463.04,146483.86,152480,152481,2024-11-02T10:04:46Z,152480.62,"c(""distractor1"", ""distractor2"", ""distractor3"")",Qualität,mtindo,d,NA,NA,NA,kafobu,NA,NA,NA,NA,NA,NA,NA,NA,NA,NA,NA,NA,NA,NA,NA,NA,NA,NA,NA,NA,NA,NA
40881,"""Richtig""-Screen",canvas.Screen,1_1_1_0_1,NA,NA,skipped,NA,152482,NA,NA,152480,152482,2024-11-02T10:04:46Z,152480.62,"c(""distractor1"", ""distractor2"", ""distractor3"")",Qualität,mtindo,d,NA,NA,NA,NA,NA,NA,NA,NA,NA,NA,NA,NA,NA,NA,NA,NA,NA,NA,NA,NA,NA,NA,NA,NA,NA,NA
40881,"""Falsch""-Screen",canvas.Screen,1_1_1_0_2,NA,NA,timeout,4997.3,152484,152480.14,152480.62,157457.1,157460,2024-11-02T10:04:51Z,157477.92,"c(""distractor1"", ""distractor2"", ""distractor3"")",Qualität,mtindo,d,NA,NA,NA,NA,NA,0,NA,NA,NA,NA,NA,NA,NA,NA,NA,NA,NA,NA,NA,NA,NA,NA,NA,NA,NA,NA
40881,deep,flow.Sequence,1_1_1_0,NA,NA,completion,10973.24,146468,146463.04,146483.86,157457.1,157461,2024-11-02T10:04:51Z,157477.92,"c(""distractor1"", ""distractor2"", ""distractor3"")",Qualität,mtindo,d,NA,NA,NA,NA,NA,NA,NA,NA,NA,NA,NA,NA,NA,NA,NA,NA,NA,NA,NA,NA,NA,NA,NA,NA,NA,NA
40881,shallow,flow.Sequence,1_1_1_1,NA,NA,skipped,NA,157461,NA,NA,157457.1,157461,2024-11-02T10:04:51Z,157477.92,"c(""distractor1"", ""distractor2"", ""distractor3"")",Qualität,mtindo,d,NA,NA,NA,NA,NA,NA,NA,NA,NA,NA,NA,NA,NA,NA,NA,NA,NA,NA,NA,NA,NA,NA,NA,NA,NA,NA
40881,task,flow.Sequence,1_1_1,NA,NA,completion,10973.24,146468,146463.04,146483.86,157457.1,157462,2024-11-02T10:04:51Z,157477.92,"c(""distractor1"", ""distractor2"", ""distractor3"")",Qualität,mtindo,d,NA,NA,NA,NA,NA,NA,NA,NA,NA,NA,NA,NA,NA,NA,NA,NA,NA,NA,NA,NA,NA,NA,NA,NA,NA,NA
40881,deep,flow.Sequence,1_1_2_0,NA,NA,skipped,NA,157462,NA,NA,157457.1,157462,2024-11-02T10:04:51Z,157477.92,"c(""distractor1"", ""distractor2"", ""distractor3"")",Rückhalt,msaada,s,muhula,auwali,kiwimbe,NA,NA,NA,NA,NA,NA,NA,NA,NA,NA,NA,NA,NA,NA,NA,NA,NA,NA,NA,NA,NA,NA,NA
40881,Shallow Question,html.Page,1_1_2_1_0,NA,NA,form submission,7299.08,157463,157457.1,157477.92,164777,164778,2024-11-02T10:04:58Z,164788.12,"c(""distractor1"", ""distractor2"", ""distractor3"")",Rückhalt,msaada,s,muhula,auwali,kiwimbe,muhula,NA,NA,NA,NA,NA,NA,NA,NA,NA,NA,NA,NA,NA,NA,NA,NA,NA,NA,NA,NA,NA,NA
40881,"""Richtig""-Screen",canvas.Screen,1_1_2_1_1,NA,NA,skipped,NA,164782,NA,NA,164777,164783,2024-11-02T10:04:58Z,164788.12,"c(""distractor1"", ""distractor2"", ""distractor3"")",Rückhalt,msaada,s,muhula,auwali,kiwimbe,NA,NA,NA,NA,NA,NA,NA,NA,NA,NA,NA,NA,NA,NA,NA,NA,NA,NA,NA,NA,NA,NA,NA
40881,"""Falsch""-Screen",canvas.Screen,1_1_2_1_2,NA,NA,timeout,4997.3,164786,164774.1,164788.12,169764.6,169767,2024-11-02T10:05:03Z,169785.42,"c(""distractor1"", ""distractor2"", ""distractor3"")",Rückhalt,msaada,s,muhula,auwali,kiwimbe,NA,NA,0,NA,NA,NA,NA,NA,NA,NA,NA,NA,NA,NA,NA,NA,NA,NA,NA,NA,NA,NA,NA
40881,shallow,flow.Sequence,1_1_2_1,NA,NA,completion,12286.68,157463,157457.1,157477.92,169764.6,169767,2024-11-02T10:05:03Z,169785.42,"c(""distractor1"", ""distractor2"", ""distractor3"")",Rückhalt,msaada,s,muhula,auwali,kiwimbe,NA,NA,NA,NA,NA,NA,NA,NA,NA,NA,NA,NA,NA,NA,NA,NA,NA,NA,NA,NA,NA,NA,NA
40881,task,flow.Sequence,1_1_2,NA,NA,completion,12286.68,157462,157457.1,157477.92,169764.6,169767,2024-11-02T10:05:03Z,169785.42,"c(""distractor1"", ""distractor2"", ""distractor3"")",Rückhalt,msaada,s,muhula,auwali,kiwimbe,NA,NA,NA,NA,NA,NA,NA,NA,NA,NA,NA,NA,NA,NA,NA,NA,NA,NA,NA,NA,NA,NA,NA
40881,Deep Question,html.Page,1_1_3_0_0,NA,NA,form submission,5109.58,169768,169764.6,169785.42,174895,174895,2024-11-02T10:05:08Z,174907.66,"c(""distractor1"", ""distractor2"", ""distractor3"")",Gesundheit,salama,d,NA,NA,NA,fubudi,NA,NA,NA,NA,NA,NA,NA,NA,NA,NA,NA,NA,NA,NA,NA,NA,NA,NA,NA,NA,NA,NA
40881,"""Richtig""-Screen",canvas.Screen,1_1_3_0_1,NA,NA,skipped,NA,174897,NA,NA,174895,174897,2024-11-02T10:05:08Z,174907.66,"c(""distractor1"", ""distractor2"", ""distractor3"")",Gesundheit,salama,d,NA,NA,NA,NA,NA,NA,NA,NA,NA,NA,NA,NA,NA,NA,NA,NA,NA,NA,NA,NA,NA,NA,NA,NA,NA,NA
40881,"""Falsch""-Screen",canvas.Screen,1_1_3_0_2,NA,NA,timeout,4997.3,174899,174894.5,174907.66,179884.14,179886,2024-11-02T10:05:13Z,179904.96,"c(""distractor1"", ""distractor2"", ""distractor3"")",Gesundheit,salama,d,NA,NA,NA,NA,NA,0,NA,NA,NA,NA,NA,NA,NA,NA,NA,NA,NA,NA,NA,NA,NA,NA,NA,NA,NA,NA
40881,deep,flow.Sequence,1_1_3_0,NA,NA,completion,10098.72,169768,169764.6,169785.42,179884.14,179887,2024-11-02T10:05:13Z,179904.96,"c(""distractor1"", ""distractor2"", ""distractor3"")",Gesundheit,salama,d,NA,NA,NA,NA,NA,NA,NA,NA,NA,NA,NA,NA,NA,NA,NA,NA,NA,NA,NA,NA,NA,NA,NA,NA,NA,NA
40881,shallow,flow.Sequence,1_1_3_1,NA,NA,skipped,NA,179887,NA,NA,179884.14,179887,2024-11-02T10:05:13Z,179904.96,"c(""distractor1"", ""distractor2"", ""distractor3"")",Gesundheit,salama,d,NA,NA,NA,NA,NA,NA,NA,NA,NA,NA,NA,NA,NA,NA,NA,NA,NA,NA,NA,NA,NA,NA,NA,NA,NA,NA
40881,task,flow.Sequence,1_1_3,NA,NA,completion,10098.72,169768,169764.6,169785.42,179884.14,179888,2024-11-02T10:05:13Z,179904.96,"c(""distractor1"", ""distractor2"", ""distractor3"")",Gesundheit,salama,d,NA,NA,NA,NA,NA,NA,NA,NA,NA,NA,NA,NA,NA,NA,NA,NA,NA,NA,NA,NA,NA,NA,NA,NA,NA,NA
40881,Deep Question,html.Page,1_1_4_0_0,NA,NA,form submission,4786.04,179888,179884.14,179904.96,184691,184691,2024-11-02T10:05:18Z,184694.04,"c(""distractor1"", ""distractor2"", ""distractor3"")",Schatten,kivuli,d,NA,NA,NA,dubiro,NA,NA,NA,NA,NA,NA,NA,NA,NA,NA,NA,NA,NA,NA,NA,NA,NA,NA,NA,NA,NA,NA
40881,"""Richtig""-Screen",canvas.Screen,1_1_4_0_1,NA,NA,skipped,NA,184693,NA,NA,184691,184693,2024-11-02T10:05:18Z,184694.04,"c(""distractor1"", ""distractor2"", ""distractor3"")",Schatten,kivuli,d,NA,NA,NA,NA,NA,NA,NA,NA,NA,NA,NA,NA,NA,NA,NA,NA,NA,NA,NA,NA,NA,NA,NA,NA,NA,NA
40881,"""Falsch""-Screen",canvas.Screen,1_1_4_0_2,NA,NA,timeout,4997.3,184695,184690.26,184694.04,189670.52,189673,2024-11-02T10:05:23Z,189691.34,"c(""distractor1"", ""distractor2"", ""distractor3"")",Schatten,kivuli,d,NA,NA,NA,NA,NA,0,NA,NA,NA,NA,NA,NA,NA,NA,NA,NA,NA,NA,NA,NA,NA,NA,NA,NA,NA,NA
40881,deep,flow.Sequence,1_1_4_0,NA,NA,completion,9765.56,179888,179884.14,179904.96,189670.52,189674,2024-11-02T10:05:23Z,189691.34,"c(""distractor1"", ""distractor2"", ""distractor3"")",Schatten,kivuli,d,NA,NA,NA,NA,NA,NA,NA,NA,NA,NA,NA,NA,NA,NA,NA,NA,NA,NA,NA,NA,NA,NA,NA,NA,NA,NA
40881,shallow,flow.Sequence,1_1_4_1,NA,NA,skipped,NA,189674,NA,NA,189670.52,189674,2024-11-02T10:05:23Z,189691.34,"c(""distractor1"", ""distractor2"", ""distractor3"")",Schatten,kivuli,d,NA,NA,NA,NA,NA,NA,NA,NA,NA,NA,NA,NA,NA,NA,NA,NA,NA,NA,NA,NA,NA,NA,NA,NA,NA,NA
40881,task,flow.Sequence,1_1_4,NA,NA,completion,9765.56,179888,179884.14,179904.96,189670.52,189674,2024-11-02T10:05:23Z,189691.34,"c(""distractor1"", ""distractor2"", ""distractor3"")",Schatten,kivuli,d,NA,NA,NA,NA,NA,NA,NA,NA,NA,NA,NA,NA,NA,NA,NA,NA,NA,NA,NA,NA,NA,NA,NA,NA,NA,NA
40881,deep,flow.Sequence,1_1_5_0,NA,NA,skipped,NA,189674,NA,NA,189670.52,189675,2024-11-02T10:05:23Z,189691.34,"c(""distractor1"", ""distractor2"", ""distractor3"")",Kritik,lawama,s,dereva,nafasi,mawazo,NA,NA,NA,NA,NA,NA,NA,NA,NA,NA,NA,NA,NA,NA,NA,NA,NA,NA,NA,NA,NA,NA,NA
40881,Shallow Question,html.Page,1_1_5_1_0,NA,NA,form submission,4885.66,189675,189670.52,189691.34,194577,194578,2024-11-02T10:05:28Z,194586.18,"c(""distractor1"", ""distractor2"", ""distractor3"")",Kritik,lawama,s,dereva,nafasi,mawazo,dereva,NA,NA,NA,NA,NA,NA,NA,NA,NA,NA,NA,NA,NA,NA,NA,NA,NA,NA,NA,NA,NA,NA
40881,"""Richtig""-Screen",canvas.Screen,1_1_5_1_1,NA,NA,skipped,NA,194581,NA,NA,194577,194581,2024-11-02T10:05:28Z,194586.18,"c(""distractor1"", ""distractor2"", ""distractor3"")",Kritik,lawama,s,dereva,nafasi,mawazo,NA,NA,NA,NA,NA,NA,NA,NA,NA,NA,NA,NA,NA,NA,NA,NA,NA,NA,NA,NA,NA,NA,NA
40881,"""Falsch""-Screen",canvas.Screen,1_1_5_1_2,NA,NA,timeout,4997.3,194582,194574.72,194586.18,199562.66,199565,2024-11-02T10:05:33Z,199583.48,"c(""distractor1"", ""distractor2"", ""distractor3"")",Kritik,lawama,s,dereva,nafasi,mawazo,NA,NA,0,NA,NA,NA,NA,NA,NA,NA,NA,NA,NA,NA,NA,NA,NA,NA,NA,NA,NA,NA,NA
40881,shallow,flow.Sequence,1_1_5_1,NA,NA,completion,9871.32,189675,189670.52,189691.34,199562.66,199565,2024-11-02T10:05:33Z,199583.48,"c(""distractor1"", ""distractor2"", ""distractor3"")",Kritik,lawama,s,dereva,nafasi,mawazo,NA,NA,NA,NA,NA,NA,NA,NA,NA,NA,NA,NA,NA,NA,NA,NA,NA,NA,NA,NA,NA,NA,NA
40881,task,flow.Sequence,1_1_5,NA,NA,completion,9871.32,189674,189670.52,189691.34,199562.66,199565,2024-11-02T10:05:33Z,199583.48,"c(""distractor1"", ""distractor2"", ""distractor3"")",Kritik,lawama,s,dereva,nafasi,mawazo,NA,NA,NA,NA,NA,NA,NA,NA,NA,NA,NA,NA,NA,NA,NA,NA,NA,NA,NA,NA,NA,NA,NA
40881,block,flow.Loop,1_1,NA,NA,completion,69257.58,130296,130296.86,130305.08,199562.66,199566,2024-11-02T10:05:33Z,199583.48,"c(""distractor1"", ""distractor2"", ""distractor3"")",NA,NA,NA,NA,NA,NA,NA,NA,NA,NA,NA,NA,NA,NA,NA,NA,NA,NA,NA,NA,NA,NA,NA,NA,NA,NA,NA,NA,NA
40881,Practice,flow.Sequence,1,NA,NA,completion,72611.48,126941,126941.54,126951.18,199562.66,199566,2024-11-02T10:05:33Z,199583.48,NULL,NA,NA,NA,NA,NA,NA,NA,NA,NA,NA,NA,NA,NA,NA,NA,NA,NA,NA,NA,NA,NA,NA,NA,NA,NA,NA,NA,NA,NA
40881,Experiment start,canvas.Screen,2,weiter,keypress(q),response,75036.52,199566,199562.66,199583.48,274620,274630,2024-11-02T10:06:48Z,274689.48,NULL,NA,NA,NA,NA,NA,NA,NA,NA,NA,NA,NA,NA,NA,NA,NA,NA,NA,NA,NA,NA,NA,NA,NA,NA,NA,NA,NA,NA,NA
40881,Deep Question,html.Page,3_0_0_0_0_0_0,NA,NA,form submission,5370.52,274682,274682.08,274689.48,280060,280061,2024-11-02T10:06:53Z,280068.34,NULL,Prüfung,mtihani,d,NA,NA,NA,dofuli,NA,NA,0,NA,NA,NA,NA,NA,NA,NA,NA,NA,NA,NA,NA,NA,NA,NA,NA,NA,NA,NA
40881,"""Richtig""-Screen",canvas.Screen,3_0_0_0_0_0_1,NA,NA,skipped,NA,280063,NA,NA,280060,280063,2024-11-02T10:06:53Z,280068.34,NULL,Prüfung,mtihani,d,NA,NA,NA,NA,sdf,NA,0,NA,NA,NA,NA,NA,NA,NA,NA,NA,NA,NA,NA,NA,NA,NA,NA,NA,NA,NA
40881,"""Falsch""-Screen",canvas.Screen,3_0_0_0_0_0_2,NA,NA,timeout,4995.94,280065,280059.98,280068.34,285047.8,285048,2024-11-02T10:06:58Z,285064.28,NULL,Prüfung,mtihani,d,NA,NA,NA,NA,sdf,0,0,NA,NA,NA,NA,NA,NA,NA,NA,NA,NA,NA,NA,NA,NA,NA,NA,NA,NA,NA
40881,deep,flow.Sequence,3_0_0_0_0_0,NA,NA,completion,10358.32,274682,274682.08,274689.48,285047.8,285048,2024-11-02T10:06:58Z,285064.28,NULL,Prüfung,mtihani,d,NA,NA,NA,NA,sdf,NA,0,NA,NA,NA,NA,NA,NA,NA,NA,NA,NA,NA,NA,NA,NA,NA,NA,NA,NA,NA
40881,shallow,flow.Sequence,3_0_0_0_0_1,NA,NA,skipped,NA,285048,NA,NA,285047.8,285048,2024-11-02T10:06:58Z,285064.28,NULL,Prüfung,mtihani,d,NA,NA,NA,NA,sdf,NA,0,NA,NA,NA,NA,NA,NA,NA,NA,NA,NA,NA,NA,NA,NA,NA,NA,NA,NA,NA
40881,task,flow.Sequence,3_0_0_0_0,NA,NA,completion,10358.32,274682,274682.08,274689.48,285047.8,285048,2024-11-02T10:06:58Z,285064.28,NULL,Prüfung,mtihani,d,NA,NA,NA,NA,sdf,NA,0,NA,NA,NA,NA,NA,NA,NA,NA,NA,NA,NA,NA,NA,NA,NA,NA,NA,NA,NA
40881,Deep Question,html.Page,3_0_0_0_1_0_0,NA,NA,form submission,4436.72,285049,285047.8,285064.28,289501,289501,2024-11-02T10:07:03Z,289510.62,NULL,Fleisch,mshakiki,d,NA,NA,NA,duri,NA,NA,0,NA,NA,NA,NA,NA,NA,NA,NA,NA,NA,NA,NA,NA,NA,NA,NA,NA,NA,NA
40881,"""Richtig""-Screen",canvas.Screen,3_0_0_0_1_0_1,NA,NA,skipped,NA,289503,NA,NA,289501,289503,2024-11-02T10:07:03Z,289510.62,NULL,Fleisch,mshakiki,d,NA,NA,NA,NA,sdf,NA,0,NA,NA,NA,NA,NA,NA,NA,NA,NA,NA,NA,NA,NA,NA,NA,NA,NA,NA,NA
40881,"""Falsch""-Screen",canvas.Screen,3_0_0_0_1_0_2,NA,NA,timeout,4996,289504,289500,289510.62,294489.94,294491,2024-11-02T10:07:08Z,294506.62,NULL,Fleisch,mshakiki,d,NA,NA,NA,NA,sdf,0,0,NA,NA,NA,NA,NA,NA,NA,NA,NA,NA,NA,NA,NA,NA,NA,NA,NA,NA,NA
40881,deep,flow.Sequence,3_0_0_0_1_0,NA,NA,completion,9425.66,285049,285047.8,285064.28,294489.94,294492,2024-11-02T10:07:08Z,294506.62,NULL,Fleisch,mshakiki,d,NA,NA,NA,NA,sdf,NA,0,NA,NA,NA,NA,NA,NA,NA,NA,NA,NA,NA,NA,NA,NA,NA,NA,NA,NA,NA
40881,shallow,flow.Sequence,3_0_0_0_1_1,NA,NA,skipped,NA,294492,NA,NA,294489.94,294492,2024-11-02T10:07:08Z,294506.62,NULL,Fleisch,mshakiki,d,NA,NA,NA,NA,sdf,NA,0,NA,NA,NA,NA,NA,NA,NA,NA,NA,NA,NA,NA,NA,NA,NA,NA,NA,NA,NA
40881,task,flow.Sequence,3_0_0_0_1,NA,NA,completion,9425.66,285048,285047.8,285064.28,294489.94,294493,2024-11-02T10:07:08Z,294506.62,NULL,Fleisch,mshakiki,d,NA,NA,NA,NA,sdf,NA,0,NA,NA,NA,NA,NA,NA,NA,NA,NA,NA,NA,NA,NA,NA,NA,NA,NA,NA,NA
40881,Deep Question,html.Page,3_0_0_0_2_0_0,NA,NA,form submission,4389.38,294493,294489.94,294506.62,298896,298896,2024-11-02T10:07:12Z,298902.82,NULL,Aufstand,ugomaji,d,NA,NA,NA,fobuti,NA,NA,0,NA,NA,NA,NA,NA,NA,NA,NA,NA,NA,NA,NA,NA,NA,NA,NA,NA,NA,NA
40881,"""Richtig""-Screen",canvas.Screen,3_0_0_0_2_0_1,NA,NA,skipped,NA,298896,NA,NA,298896,298896,2024-11-02T10:07:12Z,298902.82,NULL,Aufstand,ugomaji,d,NA,NA,NA,NA,sdf,NA,0,NA,NA,NA,NA,NA,NA,NA,NA,NA,NA,NA,NA,NA,NA,NA,NA,NA,NA,NA
40881,"""Falsch""-Screen",canvas.Screen,3_0_0_0_2_0_2,NA,NA,timeout,4996.02,298898,298894.64,298902.82,303882.18,303883,2024-11-02T10:07:17Z,303898.84,NULL,Aufstand,ugomaji,d,NA,NA,NA,NA,sdf,0,0,NA,NA,NA,NA,NA,NA,NA,NA,NA,NA,NA,NA,NA,NA,NA,NA,NA,NA,NA
40881,deep,flow.Sequence,3_0_0_0_2_0,NA,NA,completion,9375.56,294493,294489.94,294506.62,303882.18,303883,2024-11-02T10:07:17Z,303898.84,NULL,Aufstand,ugomaji,d,NA,NA,NA,NA,sdf,NA,0,NA,NA,NA,NA,NA,NA,NA,NA,NA,NA,NA,NA,NA,NA,NA,NA,NA,NA,NA
40881,shallow,flow.Sequence,3_0_0_0_2_1,NA,NA,skipped,NA,303883,NA,NA,303882.18,303884,2024-11-02T10:07:17Z,303898.84,NULL,Aufstand,ugomaji,d,NA,NA,NA,NA,sdf,NA,0,NA,NA,NA,NA,NA,NA,NA,NA,NA,NA,NA,NA,NA,NA,NA,NA,NA,NA,NA
40881,task,flow.Sequence,3_0_0_0_2,NA,NA,completion,9375.56,294493,294489.94,294506.62,303882.18,303884,2024-11-02T10:07:17Z,303898.84,NULL,Aufstand,ugomaji,d,NA,NA,NA,NA,sdf,NA,0,NA,NA,NA,NA,NA,NA,NA,NA,NA,NA,NA,NA,NA,NA,NA,NA,NA,NA,NA
40881,deep,flow.Sequence,3_0_0_0_3_0,NA,NA,skipped,NA,303884,NA,NA,303882.18,303884,2024-11-02T10:07:17Z,303898.84,NULL,Begegnung,kukutana,s,mmasihiya,mpiganaji,husiano,NA,sdf,NA,0,NA,NA,NA,NA,NA,NA,NA,NA,NA,NA,NA,NA,NA,NA,NA,NA,NA,NA,NA
40881,Shallow Question,html.Page,3_0_0_0_3_1_0,NA,NA,form submission,4032.16,303885,303882.18,303898.84,307931,307931,2024-11-02T10:07:21Z,307945.48,NULL,Begegnung,kukutana,s,mmasihiya,mpiganaji,husiano,kukutana,NA,NA,0,NA,NA,NA,NA,NA,NA,NA,NA,NA,NA,NA,NA,NA,NA,NA,NA,NA,NA,NA
40881,"""Richtig""-Screen",canvas.Screen,3_0_0_0_3_1_1,NA,NA,timeout,4995.94,307932,307930.6,307945.48,312924.76,312926,2024-11-02T10:07:26Z,312941.42,NULL,Begegnung,kukutana,s,mmasihiya,mpiganaji,husiano,NA,sdf,1,0,NA,NA,NA,NA,NA,NA,NA,NA,NA,NA,NA,NA,NA,NA,NA,NA,NA,NA,NA
40881,"""Falsch""-Screen",canvas.Screen,3_0_0_0_3_1_2,NA,NA,skipped,NA,312931,NA,NA,312924.76,312931,2024-11-02T10:07:26Z,312941.42,NULL,Begegnung,kukutana,s,mmasihiya,mpiganaji,husiano,NA,sdf,NA,0,NA,NA,NA,NA,NA,NA,NA,NA,NA,NA,NA,NA,NA,NA,NA,NA,NA,NA,NA
40881,shallow,flow.Sequence,3_0_0_0_3_1,NA,NA,completion,9025.92,303884,303882.18,303898.84,312924.76,312931,2024-11-02T10:07:26Z,312941.42,NULL,Begegnung,kukutana,s,mmasihiya,mpiganaji,husiano,NA,sdf,NA,0,NA,NA,NA,NA,NA,NA,NA,NA,NA,NA,NA,NA,NA,NA,NA,NA,NA,NA,NA
40881,task,flow.Sequence,3_0_0_0_3,NA,NA,completion,9025.92,303884,303882.18,303898.84,312924.76,312931,2024-11-02T10:07:26Z,312941.42,NULL,Begegnung,kukutana,s,mmasihiya,mpiganaji,husiano,NA,sdf,NA,0,NA,NA,NA,NA,NA,NA,NA,NA,NA,NA,NA,NA,NA,NA,NA,NA,NA,NA,NA
40881,deep,flow.Sequence,3_0_0_0_4_0,NA,NA,skipped,NA,312931,NA,NA,312924.76,312931,2024-11-02T10:07:26Z,312941.42,NULL,Verzögerung,kuchelewa,s,mwakilishi,mwanauchumi,jaribio,NA,sdf,NA,0,NA,NA,NA,NA,NA,NA,NA,NA,NA,NA,NA,NA,NA,NA,NA,NA,NA,NA,NA
40881,Shallow Question,html.Page,3_0_0_0_4_1_0,NA,NA,form submission,7232.58,312931,312924.76,312941.42,320174,320174,2024-11-02T10:07:33Z,320185.38,NULL,Verzögerung,kuchelewa,s,mwakilishi,mwanauchumi,jaribio,mwanauchumi,NA,NA,0,NA,NA,NA,NA,NA,NA,NA,NA,NA,NA,NA,NA,NA,NA,NA,NA,NA,NA,NA
40881,"""Richtig""-Screen",canvas.Screen,3_0_0_0_4_1_1,NA,NA,skipped,NA,320176,NA,NA,320174,320176,2024-11-02T10:07:33Z,320185.38,NULL,Verzögerung,kuchelewa,s,mwakilishi,mwanauchumi,jaribio,NA,sdf,NA,0,NA,NA,NA,NA,NA,NA,NA,NA,NA,NA,NA,NA,NA,NA,NA,NA,NA,NA,NA
40881,"""Falsch""-Screen",canvas.Screen,3_0_0_0_4_1_2,NA,NA,timeout,4995.82,320178,320173.48,320185.38,325164.86,325166,2024-11-02T10:07:38Z,325181.2,NULL,Verzögerung,kuchelewa,s,mwakilishi,mwanauchumi,jaribio,NA,sdf,0,0,NA,NA,NA,NA,NA,NA,NA,NA,NA,NA,NA,NA,NA,NA,NA,NA,NA,NA,NA
40881,shallow,flow.Sequence,3_0_0_0_4_1,NA,NA,completion,12223.44,312931,312924.76,312941.42,325164.86,325166,2024-11-02T10:07:38Z,325181.2,NULL,Verzögerung,kuchelewa,s,mwakilishi,mwanauchumi,jaribio,NA,sdf,NA,0,NA,NA,NA,NA,NA,NA,NA,NA,NA,NA,NA,NA,NA,NA,NA,NA,NA,NA,NA
40881,task,flow.Sequence,3_0_0_0_4,NA,NA,completion,12223.44,312931,312924.76,312941.42,325164.86,325167,2024-11-02T10:07:38Z,325181.2,NULL,Verzögerung,kuchelewa,s,mwakilishi,mwanauchumi,jaribio,NA,sdf,NA,0,NA,NA,NA,NA,NA,NA,NA,NA,NA,NA,NA,NA,NA,NA,NA,NA,NA,NA,NA
40881,Deep Question,html.Page,3_0_0_0_5_0_0,NA,NA,form submission,4448.8,325167,325164.86,325181.2,329630,329631,2024-11-02T10:07:43Z,329644.2,NULL,Integrität,uadilifu,d,NA,NA,NA,dubondi,NA,NA,0,NA,NA,NA,NA,NA,NA,NA,NA,NA,NA,NA,NA,NA,NA,NA,NA,NA,NA,NA
40881,"""Richtig""-Screen",canvas.Screen,3_0_0_0_5_0_1,NA,NA,skipped,NA,329632,NA,NA,329630,329632,2024-11-02T10:07:43Z,329644.2,NULL,Integrität,uadilifu,d,NA,NA,NA,NA,sdf,NA,0,NA,NA,NA,NA,NA,NA,NA,NA,NA,NA,NA,NA,NA,NA,NA,NA,NA,NA,NA
40881,"""Falsch""-Screen",canvas.Screen,3_0_0_0_5_0_2,NA,NA,timeout,4995.9,329633,329629.86,329644.2,334623.52,334624,2024-11-02T10:07:48Z,334640.1,NULL,Integrität,uadilifu,d,NA,NA,NA,NA,sdf,0,0,NA,NA,NA,NA,NA,NA,NA,NA,NA,NA,NA,NA,NA,NA,NA,NA,NA,NA,NA
40881,deep,flow.Sequence,3_0_0_0_5_0,NA,NA,completion,9442.32,325167,325164.86,325181.2,334623.52,334625,2024-11-02T10:07:48Z,334640.1,NULL,Integrität,uadilifu,d,NA,NA,NA,NA,sdf,NA,0,NA,NA,NA,NA,NA,NA,NA,NA,NA,NA,NA,NA,NA,NA,NA,NA,NA,NA,NA
40881,shallow,flow.Sequence,3_0_0_0_5_1,NA,NA,skipped,NA,334626,NA,NA,334623.52,334626,2024-11-02T10:07:48Z,334640.1,NULL,Integrität,uadilifu,d,NA,NA,NA,NA,sdf,NA,0,NA,NA,NA,NA,NA,NA,NA,NA,NA,NA,NA,NA,NA,NA,NA,NA,NA,NA,NA
40881,task,flow.Sequence,3_0_0_0_5,NA,NA,completion,9442.32,325167,325164.86,325181.2,334623.52,334626,2024-11-02T10:07:48Z,334640.1,NULL,Integrität,uadilifu,d,NA,NA,NA,NA,sdf,NA,0,NA,NA,NA,NA,NA,NA,NA,NA,NA,NA,NA,NA,NA,NA,NA,NA,NA,NA,NA
40881,deep,flow.Sequence,3_0_0_0_6_0,NA,NA,skipped,NA,334626,NA,NA,334623.52,334626,2024-11-02T10:07:48Z,334640.1,NULL,Genehmigung,idhini,s,mwanamke,itikadi,fedheha,NA,sdf,NA,0,NA,NA,NA,NA,NA,NA,NA,NA,NA,NA,NA,NA,NA,NA,NA,NA,NA,NA,NA
40881,Shallow Question,html.Page,3_0_0_0_6_1_0,NA,NA,form submission,5117.9,334627,334623.52,334640.1,339758,339759,2024-11-02T10:07:53Z,339769.26,NULL,Genehmigung,idhini,s,mwanamke,itikadi,fedheha,itikadi,NA,NA,0,NA,NA,NA,NA,NA,NA,NA,NA,NA,NA,NA,NA,NA,NA,NA,NA,NA,NA,NA
40881,"""Richtig""-Screen",canvas.Screen,3_0_0_0_6_1_1,NA,NA,skipped,NA,339760,NA,NA,339758,339760,2024-11-02T10:07:53Z,339769.26,NULL,Genehmigung,idhini,s,mwanamke,itikadi,fedheha,NA,sdf,NA,0,NA,NA,NA,NA,NA,NA,NA,NA,NA,NA,NA,NA,NA,NA,NA,NA,NA,NA,NA
40881,"""Falsch""-Screen",canvas.Screen,3_0_0_0_6_1_2,NA,NA,timeout,4996.12,339761,339757.98,339769.26,344748.74,344749,2024-11-02T10:07:58Z,344765.38,NULL,Genehmigung,idhini,s,mwanamke,itikadi,fedheha,NA,sdf,0,0,NA,NA,NA,NA,NA,NA,NA,NA,NA,NA,NA,NA,NA,NA,NA,NA,NA,NA,NA
40881,shallow,flow.Sequence,3_0_0_0_6_1,NA,NA,completion,10108.64,334627,334623.52,334640.1,344748.74,344750,2024-11-02T10:07:58Z,344765.38,NULL,Genehmigung,idhini,s,mwanamke,itikadi,fedheha,NA,sdf,NA,0,NA,NA,NA,NA,NA,NA,NA,NA,NA,NA,NA,NA,NA,NA,NA,NA,NA,NA,NA
40881,task,flow.Sequence,3_0_0_0_6,NA,NA,completion,10108.64,334626,334623.52,334640.1,344748.74,344750,2024-11-02T10:07:58Z,344765.38,NULL,Genehmigung,idhini,s,mwanamke,itikadi,fedheha,NA,sdf,NA,0,NA,NA,NA,NA,NA,NA,NA,NA,NA,NA,NA,NA,NA,NA,NA,NA,NA,NA,NA
40881,deep,flow.Sequence,3_0_0_0_7_0,NA,NA,skipped,NA,344750,NA,NA,344748.74,344751,2024-11-02T10:07:58Z,344765.38,NULL,Kultur,utamaduni,s,shetani,gerezani,mazingira,NA,sdf,NA,0,NA,NA,NA,NA,NA,NA,NA,NA,NA,NA,NA,NA,NA,NA,NA,NA,NA,NA,NA
40881,Shallow Question,html.Page,3_0_0_0_7_1_0,NA,NA,form submission,4662.62,344751,344748.74,344765.38,349428,349428,2024-11-02T10:08:03Z,349427.86,NULL,Kultur,utamaduni,s,shetani,gerezani,mazingira,gerezani,NA,NA,0,NA,NA,NA,NA,NA,NA,NA,NA,NA,NA,NA,NA,NA,NA,NA,NA,NA,NA,NA
40881,"""Richtig""-Screen",canvas.Screen,3_0_0_0_7_1_1,NA,NA,skipped,NA,349428,NA,NA,349428,349428,2024-11-02T10:08:03Z,349427.86,NULL,Kultur,utamaduni,s,shetani,gerezani,mazingira,NA,sdf,NA,0,NA,NA,NA,NA,NA,NA,NA,NA,NA,NA,NA,NA,NA,NA,NA,NA,NA,NA,NA
40881,"""Falsch""-Screen",canvas.Screen,3_0_0_0_7_1_2,NA,NA,timeout,4995.9,349430,349426.78,349427.86,354407.56,354410,2024-11-02T10:08:08Z,354423.76,NULL,Kultur,utamaduni,s,shetani,gerezani,mazingira,NA,sdf,0,0,NA,NA,NA,NA,NA,NA,NA,NA,NA,NA,NA,NA,NA,NA,NA,NA,NA,NA,NA
40881,shallow,flow.Sequence,3_0_0_0_7_1,NA,NA,completion,9642.18,344751,344748.74,344765.38,354407.56,354411,2024-11-02T10:08:08Z,354423.76,NULL,Kultur,utamaduni,s,shetani,gerezani,mazingira,NA,sdf,NA,0,NA,NA,NA,NA,NA,NA,NA,NA,NA,NA,NA,NA,NA,NA,NA,NA,NA,NA,NA
40881,task,flow.Sequence,3_0_0_0_7,NA,NA,completion,9642.18,344750,344748.74,344765.38,354407.56,354412,2024-11-02T10:08:08Z,354423.76,NULL,Kultur,utamaduni,s,shetani,gerezani,mazingira,NA,sdf,NA,0,NA,NA,NA,NA,NA,NA,NA,NA,NA,NA,NA,NA,NA,NA,NA,NA,NA,NA,NA
40881,block,flow.Loop,3_0_0_0,NA,NA,completion,79718.08,274682,274682.08,274689.48,354407.56,354413,2024-11-02T10:08:08Z,354423.76,NULL,NA,NA,NA,NA,NA,NA,NA,sdf,NA,0,NA,NA,NA,NA,NA,NA,NA,NA,NA,NA,NA,NA,NA,NA,NA,NA,NA,NA,NA
40881,weiter,canvas.Screen,3_0_0_1,sdf,keypress(Space),response,1603.24,354413,354407.56,354423.76,356027,356035,2024-11-02T10:08:09Z,356072.36,NULL,NA,NA,NA,NA,NA,NA,NA,sdf,NA,0,NA,NA,NA,NA,NA,NA,NA,NA,NA,NA,NA,NA,NA,NA,NA,NA,NA,NA,NA
40881,check continue,flow.Sequence,3_0_0,NA,NA,completion,81337.52,274682,274682.08,274689.48,356027,356036,2024-11-02T10:08:09Z,356072.36,NULL,NA,NA,NA,NA,NA,NA,NA,sdf,NA,0,NA,NA,NA,NA,NA,NA,NA,NA,NA,NA,NA,NA,NA,NA,NA,NA,NA,NA,NA
40881,Deep Question,html.Page,3_0_1_0_0_0_0,NA,NA,form submission,8692.64,356071,356070.9,356072.36,364765,364766,2024-11-02T10:08:18Z,364765.2,NULL,Fleisch,mshakiki,d,NA,NA,NA,shtani,NA,NA,1,NA,NA,NA,NA,NA,NA,NA,NA,NA,NA,NA,NA,NA,NA,NA,NA,NA,NA,NA
40881,"""Richtig""-Screen",canvas.Screen,3_0_1_0_0_0_1,NA,NA,skipped,NA,364767,NA,NA,364765,364767,2024-11-02T10:08:18Z,364765.2,NULL,Fleisch,mshakiki,d,NA,NA,NA,NA,sdfdsf,NA,1,NA,NA,NA,NA,NA,NA,NA,NA,NA,NA,NA,NA,NA,NA,NA,NA,NA,NA,NA
40881,"""Falsch""-Screen",canvas.Screen,3_0_1_0_0_0_2,NA,NA,timeout,4995.96,364768,364764.46,364765.2,369744.8,369745,2024-11-02T10:08:23Z,369761.16,NULL,Fleisch,mshakiki,d,NA,NA,NA,NA,sdfdsf,0,1,NA,NA,NA,NA,NA,NA,NA,NA,NA,NA,NA,NA,NA,NA,NA,NA,NA,NA,NA
40881,deep,flow.Sequence,3_0_1_0_0_0,NA,NA,completion,13672.44,356071,356070.9,356072.36,369744.8,369745,2024-11-02T10:08:23Z,369761.16,NULL,Fleisch,mshakiki,d,NA,NA,NA,NA,sdfdsf,NA,1,NA,NA,NA,NA,NA,NA,NA,NA,NA,NA,NA,NA,NA,NA,NA,NA,NA,NA,NA
40881,shallow,flow.Sequence,3_0_1_0_0_1,NA,NA,skipped,NA,369745,NA,NA,369744.8,369746,2024-11-02T10:08:23Z,369761.16,NULL,Fleisch,mshakiki,d,NA,NA,NA,NA,sdfdsf,NA,1,NA,NA,NA,NA,NA,NA,NA,NA,NA,NA,NA,NA,NA,NA,NA,NA,NA,NA,NA
40881,task,flow.Sequence,3_0_1_0_0,NA,NA,completion,13672.44,356071,356070.9,356072.36,369744.8,369746,2024-11-02T10:08:23Z,369761.16,NULL,Fleisch,mshakiki,d,NA,NA,NA,NA,sdfdsf,NA,1,NA,NA,NA,NA,NA,NA,NA,NA,NA,NA,NA,NA,NA,NA,NA,NA,NA,NA,NA
40881,Deep Question,html.Page,3_0_1_0_1_0_0,NA,NA,form submission,8461.84,369746,369744.8,369761.16,378223,378223,2024-11-02T10:08:31Z,378237.46,NULL,Prüfung,mtihani,d,NA,NA,NA,hsiniri,NA,NA,1,NA,NA,NA,NA,NA,NA,NA,NA,NA,NA,NA,NA,NA,NA,NA,NA,NA,NA,NA
40881,"""Richtig""-Screen",canvas.Screen,3_0_1_0_1_0_1,NA,NA,skipped,NA,378224,NA,NA,378223,378224,2024-11-02T10:08:31Z,378237.46,NULL,Prüfung,mtihani,d,NA,NA,NA,NA,sdfdsf,NA,1,NA,NA,NA,NA,NA,NA,NA,NA,NA,NA,NA,NA,NA,NA,NA,NA,NA,NA,NA
40881,"""Falsch""-Screen",canvas.Screen,3_0_1_0_1_0_2,NA,NA,timeout,4995.94,378225,378222.46,378237.46,383217,383218,2024-11-02T10:08:36Z,383233.4,NULL,Prüfung,mtihani,d,NA,NA,NA,NA,sdfdsf,0,1,NA,NA,NA,NA,NA,NA,NA,NA,NA,NA,NA,NA,NA,NA,NA,NA,NA,NA,NA
40881,deep,flow.Sequence,3_0_1_0_1_0,NA,NA,completion,13455.84,369746,369744.8,369761.16,383217,383218,2024-11-02T10:08:36Z,383233.4,NULL,Prüfung,mtihani,d,NA,NA,NA,NA,sdfdsf,NA,1,NA,NA,NA,NA,NA,NA,NA,NA,NA,NA,NA,NA,NA,NA,NA,NA,NA,NA,NA
40881,shallow,flow.Sequence,3_0_1_0_1_1,NA,NA,skipped,NA,383218,NA,NA,383217,383218,2024-11-02T10:08:36Z,383233.4,NULL,Prüfung,mtihani,d,NA,NA,NA,NA,sdfdsf,NA,1,NA,NA,NA,NA,NA,NA,NA,NA,NA,NA,NA,NA,NA,NA,NA,NA,NA,NA,NA
40881,task,flow.Sequence,3_0_1_0_1,NA,NA,completion,13455.84,369746,369744.8,369761.16,383217,383219,2024-11-02T10:08:36Z,383233.4,NULL,Prüfung,mtihani,d,NA,NA,NA,NA,sdfdsf,NA,1,NA,NA,NA,NA,NA,NA,NA,NA,NA,NA,NA,NA,NA,NA,NA,NA,NA,NA,NA
40881,deep,flow.Sequence,3_0_1_0_2_0,NA,NA,skipped,NA,383219,NA,NA,383217,383219,2024-11-02T10:08:36Z,383233.4,NULL,Genehmigung,idhini,s,mwanamke,itikadi,fedheha,NA,sdfdsf,NA,1,NA,NA,NA,NA,NA,NA,NA,NA,NA,NA,NA,NA,NA,NA,NA,NA,NA,NA,NA
40881,Shallow Question,html.Page,3_0_1_0_2_1_0,NA,NA,form submission,8728.6,383220,383217,383233.4,391962,391963,2024-11-02T10:08:45Z,391976.18,NULL,Genehmigung,idhini,s,mwanamke,itikadi,fedheha,mwanamke,NA,NA,1,NA,NA,NA,NA,NA,NA,NA,NA,NA,NA,NA,NA,NA,NA,NA,NA,NA,NA,NA
40881,"""Richtig""-Screen",canvas.Screen,3_0_1_0_2_1_1,NA,NA,skipped,NA,391964,NA,NA,391962,391964,2024-11-02T10:08:45Z,391976.18,NULL,Genehmigung,idhini,s,mwanamke,itikadi,fedheha,NA,sdfdsf,NA,1,NA,NA,NA,NA,NA,NA,NA,NA,NA,NA,NA,NA,NA,NA,NA,NA,NA,NA,NA
40881,"""Falsch""-Screen",canvas.Screen,3_0_1_0_2_1_2,NA,NA,timeout,4995.88,391966,391962.02,391976.18,396955.46,396956,2024-11-02T10:08:50Z,396972.06,NULL,Genehmigung,idhini,s,mwanamke,itikadi,fedheha,NA,sdfdsf,0,1,NA,NA,NA,NA,NA,NA,NA,NA,NA,NA,NA,NA,NA,NA,NA,NA,NA,NA,NA
40881,shallow,flow.Sequence,3_0_1_0_2_1,NA,NA,completion,13722.06,383220,383217,383233.4,396955.46,396957,2024-11-02T10:08:50Z,396972.06,NULL,Genehmigung,idhini,s,mwanamke,itikadi,fedheha,NA,sdfdsf,NA,1,NA,NA,NA,NA,NA,NA,NA,NA,NA,NA,NA,NA,NA,NA,NA,NA,NA,NA,NA
40881,task,flow.Sequence,3_0_1_0_2,NA,NA,completion,13722.06,383219,383217,383233.4,396955.46,396957,2024-11-02T10:08:50Z,396972.06,NULL,Genehmigung,idhini,s,mwanamke,itikadi,fedheha,NA,sdfdsf,NA,1,NA,NA,NA,NA,NA,NA,NA,NA,NA,NA,NA,NA,NA,NA,NA,NA,NA,NA,NA
40881,Deep Question,html.Page,3_0_1_0_3_0_0,NA,NA,form submission,5220.94,396958,396955.46,396972.06,402193,402193,2024-11-02T10:08:55Z,402200.96,NULL,Integrität,uadilifu,d,NA,NA,NA,fugoti,NA,NA,1,NA,NA,NA,NA,NA,NA,NA,NA,NA,NA,NA,NA,NA,NA,NA,NA,NA,NA,NA
40881,"""Richtig""-Screen",canvas.Screen,3_0_1_0_3_0_1,NA,NA,skipped,NA,402194,NA,NA,402193,402194,2024-11-02T10:08:55Z,402200.96,NULL,Integrität,uadilifu,d,NA,NA,NA,NA,sdfdsf,NA,1,NA,NA,NA,NA,NA,NA,NA,NA,NA,NA,NA,NA,NA,NA,NA,NA,NA,NA,NA
40881,"""Falsch""-Screen",canvas.Screen,3_0_1_0_3_0_2,NA,NA,timeout,4996.24,402196,402191.8,402200.96,407180.24,407182,2024-11-02T10:09:00Z,407197.2,NULL,Integrität,uadilifu,d,NA,NA,NA,NA,sdfdsf,0,1,NA,NA,NA,NA,NA,NA,NA,NA,NA,NA,NA,NA,NA,NA,NA,NA,NA,NA,NA
40881,deep,flow.Sequence,3_0_1_0_3_0,NA,NA,completion,10208.18,396957,396955.46,396972.06,407180.24,407182,2024-11-02T10:09:00Z,407197.2,NULL,Integrität,uadilifu,d,NA,NA,NA,NA,sdfdsf,NA,1,NA,NA,NA,NA,NA,NA,NA,NA,NA,NA,NA,NA,NA,NA,NA,NA,NA,NA,NA
40881,shallow,flow.Sequence,3_0_1_0_3_1,NA,NA,skipped,NA,407183,NA,NA,407180.24,407183,2024-11-02T10:09:00Z,407197.2,NULL,Integrität,uadilifu,d,NA,NA,NA,NA,sdfdsf,NA,1,NA,NA,NA,NA,NA,NA,NA,NA,NA,NA,NA,NA,NA,NA,NA,NA,NA,NA,NA
40881,task,flow.Sequence,3_0_1_0_3,NA,NA,completion,10208.18,396957,396955.46,396972.06,407180.24,407183,2024-11-02T10:09:00Z,407197.2,NULL,Integrität,uadilifu,d,NA,NA,NA,NA,sdfdsf,NA,1,NA,NA,NA,NA,NA,NA,NA,NA,NA,NA,NA,NA,NA,NA,NA,NA,NA,NA,NA
40881,deep,flow.Sequence,3_0_1_0_4_0,NA,NA,skipped,NA,407184,NA,NA,407180.24,407184,2024-11-02T10:09:00Z,407197.2,NULL,Begegnung,kukutana,s,mmasihiya,mpiganaji,husiano,NA,sdfdsf,NA,1,NA,NA,NA,NA,NA,NA,NA,NA,NA,NA,NA,NA,NA,NA,NA,NA,NA,NA,NA
40881,Shallow Question,html.Page,3_0_1_0_4_1_0,NA,NA,form submission,7387.8,407184,407180.24,407197.2,414585,414586,2024-11-02T10:09:08Z,414590.82,NULL,Begegnung,kukutana,s,mmasihiya,mpiganaji,husiano,kukutana,NA,NA,1,NA,NA,NA,NA,NA,NA,NA,NA,NA,NA,NA,NA,NA,NA,NA,NA,NA,NA,NA
40881,"""Richtig""-Screen",canvas.Screen,3_0_1_0_4_1_1,NA,NA,timeout,4995.88,414589,414584.06,414590.82,419570.4,419571,2024-11-02T10:09:13Z,419586.7,NULL,Begegnung,kukutana,s,mmasihiya,mpiganaji,husiano,NA,sdfdsf,1,1,NA,NA,NA,NA,NA,NA,NA,NA,NA,NA,NA,NA,NA,NA,NA,NA,NA,NA,NA
40881,"""Falsch""-Screen",canvas.Screen,3_0_1_0_4_1_2,NA,NA,skipped,NA,419574,NA,NA,419570.4,419574,2024-11-02T10:09:13Z,419586.7,NULL,Begegnung,kukutana,s,mmasihiya,mpiganaji,husiano,NA,sdfdsf,NA,1,NA,NA,NA,NA,NA,NA,NA,NA,NA,NA,NA,NA,NA,NA,NA,NA,NA,NA,NA
40881,shallow,flow.Sequence,3_0_1_0_4_1,NA,NA,completion,12373.2,407184,407180.24,407197.2,419570.4,419575,2024-11-02T10:09:13Z,419586.7,NULL,Begegnung,kukutana,s,mmasihiya,mpiganaji,husiano,NA,sdfdsf,NA,1,NA,NA,NA,NA,NA,NA,NA,NA,NA,NA,NA,NA,NA,NA,NA,NA,NA,NA,NA
40881,task,flow.Sequence,3_0_1_0_4,NA,NA,completion,12373.2,407183,407180.24,407197.2,419570.4,419575,2024-11-02T10:09:13Z,419586.7,NULL,Begegnung,kukutana,s,mmasihiya,mpiganaji,husiano,NA,sdfdsf,NA,1,NA,NA,NA,NA,NA,NA,NA,NA,NA,NA,NA,NA,NA,NA,NA,NA,NA,NA,NA
40881,Deep Question,html.Page,3_0_1_0_5_0_0,NA,NA,form submission,4571.3,419575,419570.4,419586.7,424158,424158,2024-11-02T10:09:17Z,424166.28,NULL,Aufstand,ugomaji,d,NA,NA,NA,doburi,NA,NA,1,NA,NA,NA,NA,NA,NA,NA,NA,NA,NA,NA,NA,NA,NA,NA,NA,NA,NA,NA
40881,"""Richtig""-Screen",canvas.Screen,3_0_1_0_5_0_1,NA,NA,skipped,NA,424160,NA,NA,424158,424160,2024-11-02T10:09:17Z,424166.28,NULL,Aufstand,ugomaji,d,NA,NA,NA,NA,sdfdsf,NA,1,NA,NA,NA,NA,NA,NA,NA,NA,NA,NA,NA,NA,NA,NA,NA,NA,NA,NA,NA
40881,"""Falsch""-Screen",canvas.Screen,3_0_1_0_5_0_2,NA,NA,timeout,4996.16,424162,424157.36,424166.28,429145.86,429147,2024-11-02T10:09:22Z,429162.44,NULL,Aufstand,ugomaji,d,NA,NA,NA,NA,sdfdsf,0,1,NA,NA,NA,NA,NA,NA,NA,NA,NA,NA,NA,NA,NA,NA,NA,NA,NA,NA,NA
40881,deep,flow.Sequence,3_0_1_0_5_0,NA,NA,completion,9559.16,419575,419570.4,419586.7,429145.86,429147,2024-11-02T10:09:22Z,429162.44,NULL,Aufstand,ugomaji,d,NA,NA,NA,NA,sdfdsf,NA,1,NA,NA,NA,NA,NA,NA,NA,NA,NA,NA,NA,NA,NA,NA,NA,NA,NA,NA,NA
40881,shallow,flow.Sequence,3_0_1_0_5_1,NA,NA,skipped,NA,429148,NA,NA,429145.86,429148,2024-11-02T10:09:22Z,429162.44,NULL,Aufstand,ugomaji,d,NA,NA,NA,NA,sdfdsf,NA,1,NA,NA,NA,NA,NA,NA,NA,NA,NA,NA,NA,NA,NA,NA,NA,NA,NA,NA,NA
40881,task,flow.Sequence,3_0_1_0_5,NA,NA,completion,9559.16,419575,419570.4,419586.7,429145.86,429149,2024-11-02T10:09:22Z,429162.44,NULL,Aufstand,ugomaji,d,NA,NA,NA,NA,sdfdsf,NA,1,NA,NA,NA,NA,NA,NA,NA,NA,NA,NA,NA,NA,NA,NA,NA,NA,NA,NA,NA
40881,deep,flow.Sequence,3_0_1_0_6_0,NA,NA,skipped,NA,429150,NA,NA,429145.86,429150,2024-11-02T10:09:22Z,429162.44,NULL,Kultur,utamaduni,s,shetani,gerezani,mazingira,NA,sdfdsf,NA,1,NA,NA,NA,NA,NA,NA,NA,NA,NA,NA,NA,NA,NA,NA,NA,NA,NA,NA,NA
40881,Shallow Question,html.Page,3_0_1_0_6_1_0,NA,NA,form submission,6130.56,429151,429145.86,429162.44,435293,435294,2024-11-02T10:09:28Z,435307.04,NULL,Kultur,utamaduni,s,shetani,gerezani,mazingira,utamaduni,NA,NA,1,NA,NA,NA,NA,NA,NA,NA,NA,NA,NA,NA,NA,NA,NA,NA,NA,NA,NA,NA
40881,"""Richtig""-Screen",canvas.Screen,3_0_1_0_6_1_1,NA,NA,timeout,4995.96,435295,435292.94,435307.04,440286.6,440288,2024-11-02T10:09:33Z,440303,NULL,Kultur,utamaduni,s,shetani,gerezani,mazingira,NA,sdfdsf,1,1,NA,NA,NA,NA,NA,NA,NA,NA,NA,NA,NA,NA,NA,NA,NA,NA,NA,NA,NA
40881,"""Falsch""-Screen",canvas.Screen,3_0_1_0_6_1_2,NA,NA,skipped,NA,440293,NA,NA,440286.6,440293,2024-11-02T10:09:33Z,440303,NULL,Kultur,utamaduni,s,shetani,gerezani,mazingira,NA,sdfdsf,NA,1,NA,NA,NA,NA,NA,NA,NA,NA,NA,NA,NA,NA,NA,NA,NA,NA,NA,NA,NA
40881,shallow,flow.Sequence,3_0_1_0_6_1,NA,NA,completion,11124.16,429151,429145.86,429162.44,440286.6,440294,2024-11-02T10:09:33Z,440303,NULL,Kultur,utamaduni,s,shetani,gerezani,mazingira,NA,sdfdsf,NA,1,NA,NA,NA,NA,NA,NA,NA,NA,NA,NA,NA,NA,NA,NA,NA,NA,NA,NA,NA
40881,task,flow.Sequence,3_0_1_0_6,NA,NA,completion,11124.16,429150,429145.86,429162.44,440286.6,440294,2024-11-02T10:09:33Z,440303,NULL,Kultur,utamaduni,s,shetani,gerezani,mazingira,NA,sdfdsf,NA,1,NA,NA,NA,NA,NA,NA,NA,NA,NA,NA,NA,NA,NA,NA,NA,NA,NA,NA,NA
40881,deep,flow.Sequence,3_0_1_0_7_0,NA,NA,skipped,NA,440294,NA,NA,440286.6,440294,2024-11-02T10:09:33Z,440303,NULL,Verzögerung,kuchelewa,s,mwakilishi,mwanauchumi,jaribio,NA,sdfdsf,NA,1,NA,NA,NA,NA,NA,NA,NA,NA,NA,NA,NA,NA,NA,NA,NA,NA,NA,NA,NA
40881,Shallow Question,html.Page,3_0_1_0_7_1_0,NA,NA,form submission,8058,440295,440286.6,440303,448361,448361,2024-11-02T10:09:41Z,448362.96,NULL,Verzögerung,kuchelewa,s,mwakilishi,mwanauchumi,jaribio,mwanauchumi,NA,NA,1,NA,NA,NA,NA,NA,NA,NA,NA,NA,NA,NA,NA,NA,NA,NA,NA,NA,NA,NA
40881,"""Richtig""-Screen",canvas.Screen,3_0_1_0_7_1_1,NA,NA,skipped,NA,448363,NA,NA,448361,448363,2024-11-02T10:09:41Z,448362.96,NULL,Verzögerung,kuchelewa,s,mwakilishi,mwanauchumi,jaribio,NA,sdfdsf,NA,1,NA,NA,NA,NA,NA,NA,NA,NA,NA,NA,NA,NA,NA,NA,NA,NA,NA,NA,NA
40881,"""Falsch""-Screen",canvas.Screen,3_0_1_0_7_1_2,NA,NA,timeout,4996.16,448364,448360.44,448362.96,453342.42,453343,2024-11-02T10:09:46Z,453359.12,NULL,Verzögerung,kuchelewa,s,mwakilishi,mwanauchumi,jaribio,NA,sdfdsf,0,1,NA,NA,NA,NA,NA,NA,NA,NA,NA,NA,NA,NA,NA,NA,NA,NA,NA,NA,NA
40881,shallow,flow.Sequence,3_0_1_0_7_1,NA,NA,completion,13039.42,440295,440286.6,440303,453342.42,453343,2024-11-02T10:09:46Z,453359.12,NULL,Verzögerung,kuchelewa,s,mwakilishi,mwanauchumi,jaribio,NA,sdfdsf,NA,1,NA,NA,NA,NA,NA,NA,NA,NA,NA,NA,NA,NA,NA,NA,NA,NA,NA,NA,NA
40881,task,flow.Sequence,3_0_1_0_7,NA,NA,completion,13039.42,440294,440286.6,440303,453342.42,453344,2024-11-02T10:09:46Z,453359.12,NULL,Verzögerung,kuchelewa,s,mwakilishi,mwanauchumi,jaribio,NA,sdfdsf,NA,1,NA,NA,NA,NA,NA,NA,NA,NA,NA,NA,NA,NA,NA,NA,NA,NA,NA,NA,NA
40881,block,flow.Loop,3_0_1_0,NA,NA,completion,97270.06,356071,356070.9,356072.36,453342.42,453344,2024-11-02T10:09:46Z,453359.12,NULL,NA,NA,NA,NA,NA,NA,NA,sdfdsf,NA,1,NA,NA,NA,NA,NA,NA,NA,NA,NA,NA,NA,NA,NA,NA,NA,NA,NA,NA,NA
40881,weiter,canvas.Screen,3_0_1_1,sdf,keypress(Space),response,1307.88,453344,453342.42,453359.12,454667,454670,2024-11-02T10:09:48Z,454707.82,NULL,NA,NA,NA,NA,NA,NA,NA,sdfdsf,NA,1,NA,NA,NA,NA,NA,NA,NA,NA,NA,NA,NA,NA,NA,NA,NA,NA,NA,NA,NA
40881,check continue,flow.Sequence,3_0_1,NA,NA,completion,98594.64,356071,356070.9,356072.36,454667,454671,2024-11-02T10:09:48Z,454707.82,NULL,NA,NA,NA,NA,NA,NA,NA,sdfdsf,NA,1,NA,NA,NA,NA,NA,NA,NA,NA,NA,NA,NA,NA,NA,NA,NA,NA,NA,NA,NA
40881,Deep Question,html.Page,3_0_2_0_0_0_0,NA,NA,form submission,6136.18,454703,454702.42,454707.82,460844,460845,2024-11-02T10:09:54Z,460852.6,NULL,Integrität,uadilifu,d,NA,NA,NA,udomaji,NA,NA,2,NA,NA,NA,NA,NA,NA,NA,NA,NA,NA,NA,NA,NA,NA,NA,NA,NA,NA,NA
40881,"""Richtig""-Screen",canvas.Screen,3_0_2_0_0_0_1,NA,NA,skipped,NA,460846,NA,NA,460844,460846,2024-11-02T10:09:54Z,460852.6,NULL,Integrität,uadilifu,d,NA,NA,NA,NA,sdf,NA,2,NA,NA,NA,NA,NA,NA,NA,NA,NA,NA,NA,NA,NA,NA,NA,NA,NA,NA,NA
40881,"""Falsch""-Screen",canvas.Screen,3_0_2_0_0_0_2,NA,NA,timeout,4996.24,460848,460843.8,460852.6,465832.26,465833,2024-11-02T10:09:59Z,465848.84,NULL,Integrität,uadilifu,d,NA,NA,NA,NA,sdf,0,2,NA,NA,NA,NA,NA,NA,NA,NA,NA,NA,NA,NA,NA,NA,NA,NA,NA,NA,NA
40881,deep,flow.Sequence,3_0_2_0_0_0,NA,NA,completion,11124.44,454703,454702.42,454707.82,465832.26,465833,2024-11-02T10:09:59Z,465848.84,NULL,Integrität,uadilifu,d,NA,NA,NA,NA,sdf,NA,2,NA,NA,NA,NA,NA,NA,NA,NA,NA,NA,NA,NA,NA,NA,NA,NA,NA,NA,NA
40881,shallow,flow.Sequence,3_0_2_0_0_1,NA,NA,skipped,NA,465833,NA,NA,465832.26,465833,2024-11-02T10:09:59Z,465848.84,NULL,Integrität,uadilifu,d,NA,NA,NA,NA,sdf,NA,2,NA,NA,NA,NA,NA,NA,NA,NA,NA,NA,NA,NA,NA,NA,NA,NA,NA,NA,NA
40881,task,flow.Sequence,3_0_2_0_0,NA,NA,completion,11124.44,454703,454702.42,454707.82,465832.26,465833,2024-11-02T10:09:59Z,465848.84,NULL,Integrität,uadilifu,d,NA,NA,NA,NA,sdf,NA,2,NA,NA,NA,NA,NA,NA,NA,NA,NA,NA,NA,NA,NA,NA,NA,NA,NA,NA,NA
40881,deep,flow.Sequence,3_0_2_0_1_0,NA,NA,skipped,NA,465834,NA,NA,465832.26,465834,2024-11-02T10:09:59Z,465848.84,NULL,Kultur,utamaduni,s,shetani,gerezani,mazingira,NA,sdf,NA,2,NA,NA,NA,NA,NA,NA,NA,NA,NA,NA,NA,NA,NA,NA,NA,NA,NA,NA,NA
40881,Shallow Question,html.Page,3_0_2_0_1_1_0,NA,NA,form submission,11910.16,465834,465832.26,465848.84,477759,477760,2024-11-02T10:10:11Z,477772.12,NULL,Kultur,utamaduni,s,shetani,gerezani,mazingira,utamaduni,NA,NA,2,NA,NA,NA,NA,NA,NA,NA,NA,NA,NA,NA,NA,NA,NA,NA,NA,NA,NA,NA
40881,"""Richtig""-Screen",canvas.Screen,3_0_2_0_1_1_1,NA,NA,timeout,4995.88,477764,477757.08,477772.12,482751.32,482753,2024-11-02T10:10:16Z,482768,NULL,Kultur,utamaduni,s,shetani,gerezani,mazingira,NA,sdf,1,2,NA,NA,NA,NA,NA,NA,NA,NA,NA,NA,NA,NA,NA,NA,NA,NA,NA,NA,NA
40881,"""Falsch""-Screen",canvas.Screen,3_0_2_0_1_1_2,NA,NA,skipped,NA,482758,NA,NA,482751.32,482758,2024-11-02T10:10:16Z,482768,NULL,Kultur,utamaduni,s,shetani,gerezani,mazingira,NA,sdf,NA,2,NA,NA,NA,NA,NA,NA,NA,NA,NA,NA,NA,NA,NA,NA,NA,NA,NA,NA,NA
40881,shallow,flow.Sequence,3_0_2_0_1_1,NA,NA,completion,16902.48,465834,465832.26,465848.84,482751.32,482758,2024-11-02T10:10:16Z,482768,NULL,Kultur,utamaduni,s,shetani,gerezani,mazingira,NA,sdf,NA,2,NA,NA,NA,NA,NA,NA,NA,NA,NA,NA,NA,NA,NA,NA,NA,NA,NA,NA,NA
40881,task,flow.Sequence,3_0_2_0_1,NA,NA,completion,16902.48,465834,465832.26,465848.84,482751.32,482758,2024-11-02T10:10:16Z,482768,NULL,Kultur,utamaduni,s,shetani,gerezani,mazingira,NA,sdf,NA,2,NA,NA,NA,NA,NA,NA,NA,NA,NA,NA,NA,NA,NA,NA,NA,NA,NA,NA,NA
40881,Deep Question,html.Page,3_0_2_0_2_0_0,NA,NA,form submission,9137,482759,482751.32,482768,491905,491905,2024-11-02T10:10:25Z,491910.32,NULL,Fleisch,mshakiki,d,NA,NA,NA,shimatoku,NA,NA,2,NA,NA,NA,NA,NA,NA,NA,NA,NA,NA,NA,NA,NA,NA,NA,NA,NA,NA,NA
40881,"""Richtig""-Screen",canvas.Screen,3_0_2_0_2_0_1,NA,NA,skipped,NA,491907,NA,NA,491905,491907,2024-11-02T10:10:25Z,491910.32,NULL,Fleisch,mshakiki,d,NA,NA,NA,NA,sdf,NA,2,NA,NA,NA,NA,NA,NA,NA,NA,NA,NA,NA,NA,NA,NA,NA,NA,NA,NA,NA
40881,"""Falsch""-Screen",canvas.Screen,3_0_2_0_2_0_2,NA,NA,timeout,4996.02,491908,491904.76,491910.32,496889.94,496891,2024-11-02T10:10:30Z,496906.34,NULL,Fleisch,mshakiki,d,NA,NA,NA,NA,sdf,0,2,NA,NA,NA,NA,NA,NA,NA,NA,NA,NA,NA,NA,NA,NA,NA,NA,NA,NA,NA
40881,deep,flow.Sequence,3_0_2_0_2_0,NA,NA,completion,14121.94,482759,482751.32,482768,496889.94,496892,2024-11-02T10:10:30Z,496906.34,NULL,Fleisch,mshakiki,d,NA,NA,NA,NA,sdf,NA,2,NA,NA,NA,NA,NA,NA,NA,NA,NA,NA,NA,NA,NA,NA,NA,NA,NA,NA,NA
40881,shallow,flow.Sequence,3_0_2_0_2_1,NA,NA,skipped,NA,496892,NA,NA,496889.94,496893,2024-11-02T10:10:30Z,496906.34,NULL,Fleisch,mshakiki,d,NA,NA,NA,NA,sdf,NA,2,NA,NA,NA,NA,NA,NA,NA,NA,NA,NA,NA,NA,NA,NA,NA,NA,NA,NA,NA
40881,task,flow.Sequence,3_0_2_0_2,NA,NA,completion,14121.94,482759,482751.32,482768,496889.94,496893,2024-11-02T10:10:30Z,496906.34,NULL,Fleisch,mshakiki,d,NA,NA,NA,NA,sdf,NA,2,NA,NA,NA,NA,NA,NA,NA,NA,NA,NA,NA,NA,NA,NA,NA,NA,NA,NA,NA
40881,deep,flow.Sequence,3_0_2_0_3_0,NA,NA,skipped,NA,496894,NA,NA,496889.94,496894,2024-11-02T10:10:30Z,496906.34,NULL,Genehmigung,idhini,s,mwanamke,itikadi,fedheha,NA,sdf,NA,2,NA,NA,NA,NA,NA,NA,NA,NA,NA,NA,NA,NA,NA,NA,NA,NA,NA,NA,NA
40881,Shallow Question,html.Page,3_0_2_0_3_1_0,NA,NA,form submission,3931.66,496895,496889.94,496906.34,500838,500838,2024-11-02T10:10:34Z,500852.98,NULL,Genehmigung,idhini,s,mwanamke,itikadi,fedheha,idhini,NA,NA,2,NA,NA,NA,NA,NA,NA,NA,NA,NA,NA,NA,NA,NA,NA,NA,NA,NA,NA,NA
40881,"""Richtig""-Screen",canvas.Screen,3_0_2_0_3_1_1,NA,NA,timeout,4995.98,500840,500836.66,500852.98,505832.54,505834,2024-11-02T10:10:39Z,505848.96,NULL,Genehmigung,idhini,s,mwanamke,itikadi,fedheha,NA,sdf,1,2,NA,NA,NA,NA,NA,NA,NA,NA,NA,NA,NA,NA,NA,NA,NA,NA,NA,NA,NA
40881,"""Falsch""-Screen",canvas.Screen,3_0_2_0_3_1_2,NA,NA,skipped,NA,505838,NA,NA,505832.54,505838,2024-11-02T10:10:39Z,505848.96,NULL,Genehmigung,idhini,s,mwanamke,itikadi,fedheha,NA,sdf,NA,2,NA,NA,NA,NA,NA,NA,NA,NA,NA,NA,NA,NA,NA,NA,NA,NA,NA,NA,NA
40881,shallow,flow.Sequence,3_0_2_0_3_1,NA,NA,completion,8926.2,496895,496889.94,496906.34,505832.54,505838,2024-11-02T10:10:39Z,505848.96,NULL,Genehmigung,idhini,s,mwanamke,itikadi,fedheha,NA,sdf,NA,2,NA,NA,NA,NA,NA,NA,NA,NA,NA,NA,NA,NA,NA,NA,NA,NA,NA,NA,NA
40881,task,flow.Sequence,3_0_2_0_3,NA,NA,completion,8926.2,496894,496889.94,496906.34,505832.54,505838,2024-11-02T10:10:39Z,505848.96,NULL,Genehmigung,idhini,s,mwanamke,itikadi,fedheha,NA,sdf,NA,2,NA,NA,NA,NA,NA,NA,NA,NA,NA,NA,NA,NA,NA,NA,NA,NA,NA,NA,NA
40881,Deep Question,html.Page,3_0_2_0_4_0_0,NA,NA,form submission,4727.04,505838,505832.54,505848.96,510576,510577,2024-11-02T10:10:44Z,510578.34,NULL,Prüfung,mtihani,d,NA,NA,NA,foguti,NA,NA,2,NA,NA,NA,NA,NA,NA,NA,NA,NA,NA,NA,NA,NA,NA,NA,NA,NA,NA,NA
40881,"""Richtig""-Screen",canvas.Screen,3_0_2_0_4_0_1,NA,NA,skipped,NA,510578,NA,NA,510576,510578,2024-11-02T10:10:44Z,510578.34,NULL,Prüfung,mtihani,d,NA,NA,NA,NA,sdf,NA,2,NA,NA,NA,NA,NA,NA,NA,NA,NA,NA,NA,NA,NA,NA,NA,NA,NA,NA,NA
40881,"""Falsch""-Screen",canvas.Screen,3_0_2_0_4_0_2,NA,NA,timeout,4995.94,510580,510575.3,510578.34,515557.84,515559,2024-11-02T10:10:49Z,515574.28,NULL,Prüfung,mtihani,d,NA,NA,NA,NA,sdf,0,2,NA,NA,NA,NA,NA,NA,NA,NA,NA,NA,NA,NA,NA,NA,NA,NA,NA,NA,NA
40881,deep,flow.Sequence,3_0_2_0_4_0,NA,NA,completion,9708.88,505838,505832.54,505848.96,515557.84,515560,2024-11-02T10:10:49Z,515574.28,NULL,Prüfung,mtihani,d,NA,NA,NA,NA,sdf,NA,2,NA,NA,NA,NA,NA,NA,NA,NA,NA,NA,NA,NA,NA,NA,NA,NA,NA,NA,NA
40881,shallow,flow.Sequence,3_0_2_0_4_1,NA,NA,skipped,NA,515560,NA,NA,515557.84,515560,2024-11-02T10:10:49Z,515574.28,NULL,Prüfung,mtihani,d,NA,NA,NA,NA,sdf,NA,2,NA,NA,NA,NA,NA,NA,NA,NA,NA,NA,NA,NA,NA,NA,NA,NA,NA,NA,NA
40881,task,flow.Sequence,3_0_2_0_4,NA,NA,completion,9708.88,505838,505832.54,505848.96,515557.84,515561,2024-11-02T10:10:49Z,515574.28,NULL,Prüfung,mtihani,d,NA,NA,NA,NA,sdf,NA,2,NA,NA,NA,NA,NA,NA,NA,NA,NA,NA,NA,NA,NA,NA,NA,NA,NA,NA,NA
40881,deep,flow.Sequence,3_0_2_0_5_0,NA,NA,skipped,NA,515561,NA,NA,515557.84,515561,2024-11-02T10:10:49Z,515574.28,NULL,Verzögerung,kuchelewa,s,mwakilishi,mwanauchumi,jaribio,NA,sdf,NA,2,NA,NA,NA,NA,NA,NA,NA,NA,NA,NA,NA,NA,NA,NA,NA,NA,NA,NA,NA
40881,Shallow Question,html.Page,3_0_2_0_5_1_0,NA,NA,form submission,10829.72,515562,515557.84,515574.28,526404,526404,2024-11-02T10:11:00Z,526415.18,NULL,Verzögerung,kuchelewa,s,mwakilishi,mwanauchumi,jaribio,kuchelewa,NA,NA,2,NA,NA,NA,NA,NA,NA,NA,NA,NA,NA,NA,NA,NA,NA,NA,NA,NA,NA,NA
40881,"""Richtig""-Screen",canvas.Screen,3_0_2_0_5_1_1,NA,NA,timeout,4995.96,526405,526403.54,526415.18,531394.84,531395,2024-11-02T10:11:05Z,531411.14,NULL,Verzögerung,kuchelewa,s,mwakilishi,mwanauchumi,jaribio,NA,sdf,1,2,NA,NA,NA,NA,NA,NA,NA,NA,NA,NA,NA,NA,NA,NA,NA,NA,NA,NA,NA
40881,"""Falsch""-Screen",canvas.Screen,3_0_2_0_5_1_2,NA,NA,skipped,NA,531396,NA,NA,531394.84,531397,2024-11-02T10:11:05Z,531411.14,NULL,Verzögerung,kuchelewa,s,mwakilishi,mwanauchumi,jaribio,NA,sdf,NA,2,NA,NA,NA,NA,NA,NA,NA,NA,NA,NA,NA,NA,NA,NA,NA,NA,NA,NA,NA
40881,shallow,flow.Sequence,3_0_2_0_5_1,NA,NA,completion,15820.56,515561,515557.84,515574.28,531394.84,531397,2024-11-02T10:11:05Z,531411.14,NULL,Verzögerung,kuchelewa,s,mwakilishi,mwanauchumi,jaribio,NA,sdf,NA,2,NA,NA,NA,NA,NA,NA,NA,NA,NA,NA,NA,NA,NA,NA,NA,NA,NA,NA,NA
40881,task,flow.Sequence,3_0_2_0_5,NA,NA,completion,15820.56,515561,515557.84,515574.28,531394.84,531397,2024-11-02T10:11:05Z,531411.14,NULL,Verzögerung,kuchelewa,s,mwakilishi,mwanauchumi,jaribio,NA,sdf,NA,2,NA,NA,NA,NA,NA,NA,NA,NA,NA,NA,NA,NA,NA,NA,NA,NA,NA,NA,NA
40881,deep,flow.Sequence,3_0_2_0_6_0,NA,NA,skipped,NA,531397,NA,NA,531394.84,531397,2024-11-02T10:11:05Z,531411.14,NULL,Begegnung,kukutana,s,mmasihiya,mpiganaji,husiano,NA,sdf,NA,2,NA,NA,NA,NA,NA,NA,NA,NA,NA,NA,NA,NA,NA,NA,NA,NA,NA,NA,NA
40881,Shallow Question,html.Page,3_0_2_0_6_1_0,NA,NA,form submission,7180.86,531397,531394.84,531411.14,538592,538593,2024-11-02T10:11:12Z,538605.32,NULL,Begegnung,kukutana,s,mmasihiya,mpiganaji,husiano,kukutana,NA,NA,2,NA,NA,NA,NA,NA,NA,NA,NA,NA,NA,NA,NA,NA,NA,NA,NA,NA,NA,NA
40881,"""Richtig""-Screen",canvas.Screen,3_0_2_0_6_1_1,NA,NA,timeout,4995.8200000001,538596,538589.98,538605.32,543584.76,543590,2024-11-02T10:11:17Z,543601.14,NULL,Begegnung,kukutana,s,mmasihiya,mpiganaji,husiano,NA,sdf,1,2,NA,NA,NA,NA,NA,NA,NA,NA,NA,NA,NA,NA,NA,NA,NA,NA,NA,NA,NA
40881,"""Falsch""-Screen",canvas.Screen,3_0_2_0_6_1_2,NA,NA,skipped,NA,543594,NA,NA,543584.76,543594,2024-11-02T10:11:17Z,543601.14,NULL,Begegnung,kukutana,s,mmasihiya,mpiganaji,husiano,NA,sdf,NA,2,NA,NA,NA,NA,NA,NA,NA,NA,NA,NA,NA,NA,NA,NA,NA,NA,NA,NA,NA
40881,shallow,flow.Sequence,3_0_2_0_6_1,NA,NA,completion,12173.62,531397,531394.84,531411.14,543584.76,543594,2024-11-02T10:11:17Z,543601.14,NULL,Begegnung,kukutana,s,mmasihiya,mpiganaji,husiano,NA,sdf,NA,2,NA,NA,NA,NA,NA,NA,NA,NA,NA,NA,NA,NA,NA,NA,NA,NA,NA,NA,NA
40881,task,flow.Sequence,3_0_2_0_6,NA,NA,completion,12173.62,531397,531394.84,531411.14,543584.76,543594,2024-11-02T10:11:17Z,543601.14,NULL,Begegnung,kukutana,s,mmasihiya,mpiganaji,husiano,NA,sdf,NA,2,NA,NA,NA,NA,NA,NA,NA,NA,NA,NA,NA,NA,NA,NA,NA,NA,NA,NA,NA
40881,Deep Question,html.Page,3_0_2_0_7_0_0,NA,NA,form submission,4752.86,543595,543584.76,543601.14,548354,548354,2024-11-02T10:11:21Z,548363.8,NULL,Aufstand,ugomaji,d,NA,NA,NA,doburi,NA,NA,2,NA,NA,NA,NA,NA,NA,NA,NA,NA,NA,NA,NA,NA,NA,NA,NA,NA,NA,NA
40881,"""Richtig""-Screen",canvas.Screen,3_0_2_0_7_0_1,NA,NA,skipped,NA,548356,NA,NA,548354,548357,2024-11-02T10:11:21Z,548363.8,NULL,Aufstand,ugomaji,d,NA,NA,NA,NA,sdf,NA,2,NA,NA,NA,NA,NA,NA,NA,NA,NA,NA,NA,NA,NA,NA,NA,NA,NA,NA,NA
40881,"""Falsch""-Screen",canvas.Screen,3_0_2_0_7_0_2,NA,NA,timeout,4996,548358,548353.02,548363.8,553343.14,553345,2024-11-02T10:11:26Z,553359.8,NULL,Aufstand,ugomaji,d,NA,NA,NA,NA,sdf,0,2,NA,NA,NA,NA,NA,NA,NA,NA,NA,NA,NA,NA,NA,NA,NA,NA,NA,NA,NA
40881,deep,flow.Sequence,3_0_2_0_7_0,NA,NA,completion,9742,543595,543584.76,543601.14,553343.14,553345,2024-11-02T10:11:26Z,553359.8,NULL,Aufstand,ugomaji,d,NA,NA,NA,NA,sdf,NA,2,NA,NA,NA,NA,NA,NA,NA,NA,NA,NA,NA,NA,NA,NA,NA,NA,NA,NA,NA
40881,shallow,flow.Sequence,3_0_2_0_7_1,NA,NA,skipped,NA,553345,NA,NA,553343.14,553345,2024-11-02T10:11:26Z,553359.8,NULL,Aufstand,ugomaji,d,NA,NA,NA,NA,sdf,NA,2,NA,NA,NA,NA,NA,NA,NA,NA,NA,NA,NA,NA,NA,NA,NA,NA,NA,NA,NA
40881,task,flow.Sequence,3_0_2_0_7,NA,NA,completion,9742,543594,543584.76,543601.14,553343.14,553347,2024-11-02T10:11:26Z,553359.8,NULL,Aufstand,ugomaji,d,NA,NA,NA,NA,sdf,NA,2,NA,NA,NA,NA,NA,NA,NA,NA,NA,NA,NA,NA,NA,NA,NA,NA,NA,NA,NA
40881,block,flow.Loop,3_0_2_0,NA,NA,completion,98635.32,454703,454702.42,454707.82,553343.14,553348,2024-11-02T10:11:26Z,553359.8,NULL,NA,NA,NA,NA,NA,NA,NA,sdf,NA,2,NA,NA,NA,NA,NA,NA,NA,NA,NA,NA,NA,NA,NA,NA,NA,NA,NA,NA,NA
40881,weiter,canvas.Screen,3_0_2_1,sdf,keypress(Space),response,1104.2,553348,553343.14,553359.8,554464,554479,2024-11-02T10:11:28Z,554525.38,NULL,NA,NA,NA,NA,NA,NA,NA,sdf,NA,2,NA,NA,NA,NA,NA,NA,NA,NA,NA,NA,NA,NA,NA,NA,NA,NA,NA,NA,NA
40881,check continue,flow.Sequence,3_0_2,NA,NA,completion,99756.18,454703,454702.42,454707.82,554464,554480,2024-11-02T10:11:28Z,554525.38,NULL,NA,NA,NA,NA,NA,NA,NA,sdf,NA,2,NA,NA,NA,NA,NA,NA,NA,NA,NA,NA,NA,NA,NA,NA,NA,NA,NA,NA,NA
40881,Deep Question,html.Page,3_0_3_0_0_0_0,NA,NA,form submission,7105.62,554509,554508.9,554525.38,561631,561632,2024-11-02T10:11:35Z,561636.2,NULL,Integrität,uadilifu,d,NA,NA,NA,isotoku,NA,NA,3,NA,NA,NA,NA,NA,NA,NA,NA,NA,NA,NA,NA,NA,NA,NA,NA,NA,NA,NA
40881,"""Richtig""-Screen",canvas.Screen,3_0_3_0_0_0_1,NA,NA,skipped,NA,561633,NA,NA,561631,561633,2024-11-02T10:11:35Z,561636.2,NULL,Integrität,uadilifu,d,NA,NA,NA,NA,qt,NA,3,NA,NA,NA,NA,NA,NA,NA,NA,NA,NA,NA,NA,NA,NA,NA,NA,NA,NA,NA
40881,"""Falsch""-Screen",canvas.Screen,3_0_3_0_0_0_2,NA,NA,timeout,4995.9600000001,561634,561631.14,561636.2,566615.82,566617,2024-11-02T10:11:40Z,566632.16,NULL,Integrität,uadilifu,d,NA,NA,NA,NA,qt,0,3,NA,NA,NA,NA,NA,NA,NA,NA,NA,NA,NA,NA,NA,NA,NA,NA,NA,NA,NA
40881,deep,flow.Sequence,3_0_3_0_0_0,NA,NA,completion,12090.44,554509,554508.9,554525.38,566615.82,566618,2024-11-02T10:11:40Z,566632.16,NULL,Integrität,uadilifu,d,NA,NA,NA,NA,qt,NA,3,NA,NA,NA,NA,NA,NA,NA,NA,NA,NA,NA,NA,NA,NA,NA,NA,NA,NA,NA
40881,shallow,flow.Sequence,3_0_3_0_0_1,NA,NA,skipped,NA,566618,NA,NA,566615.82,566618,2024-11-02T10:11:40Z,566632.16,NULL,Integrität,uadilifu,d,NA,NA,NA,NA,qt,NA,3,NA,NA,NA,NA,NA,NA,NA,NA,NA,NA,NA,NA,NA,NA,NA,NA,NA,NA,NA
40881,task,flow.Sequence,3_0_3_0_0,NA,NA,completion,12090.44,554509,554508.9,554525.38,566615.82,566618,2024-11-02T10:11:40Z,566632.16,NULL,Integrität,uadilifu,d,NA,NA,NA,NA,qt,NA,3,NA,NA,NA,NA,NA,NA,NA,NA,NA,NA,NA,NA,NA,NA,NA,NA,NA,NA,NA
40881,Deep Question,html.Page,3_0_3_0_1_0_0,NA,NA,form submission,11087.84,566619,566615.82,566632.16,577720,577721,2024-11-02T10:11:51Z,577722.96,NULL,Aufstand,ugomaji,d,NA,NA,NA,udomaji,NA,NA,3,NA,NA,NA,NA,NA,NA,NA,NA,NA,NA,NA,NA,NA,NA,NA,NA,NA,NA,NA
40881,"""Richtig""-Screen",canvas.Screen,3_0_3_0_1_0_1,NA,NA,skipped,NA,577722,NA,NA,577720,577722,2024-11-02T10:11:51Z,577722.96,NULL,Aufstand,ugomaji,d,NA,NA,NA,NA,qt,NA,3,NA,NA,NA,NA,NA,NA,NA,NA,NA,NA,NA,NA,NA,NA,NA,NA,NA,NA,NA
40881,"""Falsch""-Screen",canvas.Screen,3_0_3_0_1_0_2,NA,NA,timeout,4995.92,577724,577719.24,577722.96,582702.18,582703,2024-11-02T10:11:56Z,582718.88,NULL,Aufstand,ugomaji,d,NA,NA,NA,NA,qt,0,3,NA,NA,NA,NA,NA,NA,NA,NA,NA,NA,NA,NA,NA,NA,NA,NA,NA,NA,NA
40881,deep,flow.Sequence,3_0_3_0_1_0,NA,NA,completion,16070.02,566619,566615.82,566632.16,582702.18,582704,2024-11-02T10:11:56Z,582718.88,NULL,Aufstand,ugomaji,d,NA,NA,NA,NA,qt,NA,3,NA,NA,NA,NA,NA,NA,NA,NA,NA,NA,NA,NA,NA,NA,NA,NA,NA,NA,NA
40881,shallow,flow.Sequence,3_0_3_0_1_1,NA,NA,skipped,NA,582704,NA,NA,582702.18,582704,2024-11-02T10:11:56Z,582718.88,NULL,Aufstand,ugomaji,d,NA,NA,NA,NA,qt,NA,3,NA,NA,NA,NA,NA,NA,NA,NA,NA,NA,NA,NA,NA,NA,NA,NA,NA,NA,NA
40881,task,flow.Sequence,3_0_3_0_1,NA,NA,completion,16070.02,566619,566615.82,566632.16,582702.18,582704,2024-11-02T10:11:56Z,582718.88,NULL,Aufstand,ugomaji,d,NA,NA,NA,NA,qt,NA,3,NA,NA,NA,NA,NA,NA,NA,NA,NA,NA,NA,NA,NA,NA,NA,NA,NA,NA,NA
40881,deep,flow.Sequence,3_0_3_0_2_0,NA,NA,skipped,NA,582704,NA,NA,582702.18,582704,2024-11-02T10:11:56Z,582718.88,NULL,Begegnung,kukutana,s,mmasihiya,mpiganaji,husiano,NA,qt,NA,3,NA,NA,NA,NA,NA,NA,NA,NA,NA,NA,NA,NA,NA,NA,NA,NA,NA,NA,NA
40881,Shallow Question,html.Page,3_0_3_0_2_1_0,NA,NA,form submission,4468.12,582705,582702.18,582718.88,587187,587187,2024-11-02T10:12:00Z,587198.46,NULL,Begegnung,kukutana,s,mmasihiya,mpiganaji,husiano,kukutana,NA,NA,3,NA,NA,NA,NA,NA,NA,NA,NA,NA,NA,NA,NA,NA,NA,NA,NA,NA,NA,NA
40881,"""Richtig""-Screen",canvas.Screen,3_0_3_0_2_1_1,NA,NA,timeout,4995.9400000001,587188,587186.22,587198.46,592178.02,592179,2024-11-02T10:12:05Z,592194.4,NULL,Begegnung,kukutana,s,mmasihiya,mpiganaji,husiano,NA,qt,1,3,NA,NA,NA,NA,NA,NA,NA,NA,NA,NA,NA,NA,NA,NA,NA,NA,NA,NA,NA
40881,"""Falsch""-Screen",canvas.Screen,3_0_3_0_2_1_2,NA,NA,skipped,NA,592183,NA,NA,592178.02,592183,2024-11-02T10:12:05Z,592194.4,NULL,Begegnung,kukutana,s,mmasihiya,mpiganaji,husiano,NA,qt,NA,3,NA,NA,NA,NA,NA,NA,NA,NA,NA,NA,NA,NA,NA,NA,NA,NA,NA,NA,NA
40881,shallow,flow.Sequence,3_0_3_0_2_1,NA,NA,completion,9459.14,582704,582702.18,582718.88,592178.02,592185,2024-11-02T10:12:05Z,592194.4,NULL,Begegnung,kukutana,s,mmasihiya,mpiganaji,husiano,NA,qt,NA,3,NA,NA,NA,NA,NA,NA,NA,NA,NA,NA,NA,NA,NA,NA,NA,NA,NA,NA,NA
40881,task,flow.Sequence,3_0_3_0_2,NA,NA,completion,9459.14,582704,582702.18,582718.88,592178.02,592185,2024-11-02T10:12:05Z,592194.4,NULL,Begegnung,kukutana,s,mmasihiya,mpiganaji,husiano,NA,qt,NA,3,NA,NA,NA,NA,NA,NA,NA,NA,NA,NA,NA,NA,NA,NA,NA,NA,NA,NA,NA
40881,deep,flow.Sequence,3_0_3_0_3_0,NA,NA,skipped,NA,592185,NA,NA,592178.02,592186,2024-11-02T10:12:05Z,592194.4,NULL,Kultur,utamaduni,s,shetani,gerezani,mazingira,NA,qt,NA,3,NA,NA,NA,NA,NA,NA,NA,NA,NA,NA,NA,NA,NA,NA,NA,NA,NA,NA,NA
40881,Shallow Question,html.Page,3_0_3_0_3_1_0,NA,NA,form submission,4530.6,592186,592178.02,592194.4,596725,596725,2024-11-02T10:12:10Z,596740.72,NULL,Kultur,utamaduni,s,shetani,gerezani,mazingira,utamaduni,NA,NA,3,NA,NA,NA,NA,NA,NA,NA,NA,NA,NA,NA,NA,NA,NA,NA,NA,NA,NA,NA
40881,"""Richtig""-Screen",canvas.Screen,3_0_3_0_3_1_1,NA,NA,timeout,4995.8400000001,596726,596724.46,596740.72,601719.9,601721,2024-11-02T10:12:15Z,601736.56,NULL,Kultur,utamaduni,s,shetani,gerezani,mazingira,NA,qt,1,3,NA,NA,NA,NA,NA,NA,NA,NA,NA,NA,NA,NA,NA,NA,NA,NA,NA,NA,NA
40881,"""Falsch""-Screen",canvas.Screen,3_0_3_0_3_1_2,NA,NA,skipped,NA,601725,NA,NA,601719.9,601725,2024-11-02T10:12:15Z,601736.56,NULL,Kultur,utamaduni,s,shetani,gerezani,mazingira,NA,qt,NA,3,NA,NA,NA,NA,NA,NA,NA,NA,NA,NA,NA,NA,NA,NA,NA,NA,NA,NA,NA
40881,shallow,flow.Sequence,3_0_3_0_3_1,NA,NA,completion,9525.5,592186,592178.02,592194.4,601719.9,601725,2024-11-02T10:12:15Z,601736.56,NULL,Kultur,utamaduni,s,shetani,gerezani,mazingira,NA,qt,NA,3,NA,NA,NA,NA,NA,NA,NA,NA,NA,NA,NA,NA,NA,NA,NA,NA,NA,NA,NA
40881,task,flow.Sequence,3_0_3_0_3,NA,NA,completion,9525.5,592185,592178.02,592194.4,601719.9,601725,2024-11-02T10:12:15Z,601736.56,NULL,Kultur,utamaduni,s,shetani,gerezani,mazingira,NA,qt,NA,3,NA,NA,NA,NA,NA,NA,NA,NA,NA,NA,NA,NA,NA,NA,NA,NA,NA,NA,NA
40881,Deep Question,html.Page,3_0_3_0_4_0_0,NA,NA,form submission,11685.44,601726,601719.9,601736.56,613422,613423,2024-11-02T10:12:27Z,613426.84,NULL,Fleisch,mshakiki,d,NA,NA,NA,mshawahi,NA,NA,3,NA,NA,NA,NA,NA,NA,NA,NA,NA,NA,NA,NA,NA,NA,NA,NA,NA,NA,NA
40881,"""Richtig""-Screen",canvas.Screen,3_0_3_0_4_0_1,NA,NA,skipped,NA,613427,NA,NA,613422,613427,2024-11-02T10:12:27Z,613426.84,NULL,Fleisch,mshakiki,d,NA,NA,NA,NA,qt,NA,3,NA,NA,NA,NA,NA,NA,NA,NA,NA,NA,NA,NA,NA,NA,NA,NA,NA,NA,NA
40881,"""Falsch""-Screen",canvas.Screen,3_0_3_0_4_0_2,NA,NA,timeout,4995.98,613428,613420.9,613426.84,618406.3,618407,2024-11-02T10:12:32Z,618422.82,NULL,Fleisch,mshakiki,d,NA,NA,NA,NA,qt,0,3,NA,NA,NA,NA,NA,NA,NA,NA,NA,NA,NA,NA,NA,NA,NA,NA,NA,NA,NA
40881,deep,flow.Sequence,3_0_3_0_4_0,NA,NA,completion,16669.74,601726,601719.9,601736.56,618406.3,618407,2024-11-02T10:12:32Z,618422.82,NULL,Fleisch,mshakiki,d,NA,NA,NA,NA,qt,NA,3,NA,NA,NA,NA,NA,NA,NA,NA,NA,NA,NA,NA,NA,NA,NA,NA,NA,NA,NA
40881,shallow,flow.Sequence,3_0_3_0_4_1,NA,NA,skipped,NA,618407,NA,NA,618406.3,618407,2024-11-02T10:12:32Z,618422.82,NULL,Fleisch,mshakiki,d,NA,NA,NA,NA,qt,NA,3,NA,NA,NA,NA,NA,NA,NA,NA,NA,NA,NA,NA,NA,NA,NA,NA,NA,NA,NA
40881,task,flow.Sequence,3_0_3_0_4,NA,NA,completion,16669.74,601725,601719.9,601736.56,618406.3,618408,2024-11-02T10:12:32Z,618422.82,NULL,Fleisch,mshakiki,d,NA,NA,NA,NA,qt,NA,3,NA,NA,NA,NA,NA,NA,NA,NA,NA,NA,NA,NA,NA,NA,NA,NA,NA,NA,NA
40881,Deep Question,html.Page,3_0_3_0_5_0_0,NA,NA,form submission,7560.1800000001,618408,618406.3,618422.82,625983,625984,2024-11-02T10:12:39Z,625983.16,NULL,Prüfung,mtihani,d,NA,NA,NA,uadugu,NA,NA,3,NA,NA,NA,NA,NA,NA,NA,NA,NA,NA,NA,NA,NA,NA,NA,NA,NA,NA,NA
40881,"""Richtig""-Screen",canvas.Screen,3_0_3_0_5_0_1,NA,NA,skipped,NA,625985,NA,NA,625983,625986,2024-11-02T10:12:39Z,625983.16,NULL,Prüfung,mtihani,d,NA,NA,NA,NA,qt,NA,3,NA,NA,NA,NA,NA,NA,NA,NA,NA,NA,NA,NA,NA,NA,NA,NA,NA,NA,NA
40881,"""Falsch""-Screen",canvas.Screen,3_0_3_0_5_0_2,NA,NA,timeout,4996,625986,625982.86,625983.16,630962.44,630963,2024-11-02T10:12:44Z,630979.16,NULL,Prüfung,mtihani,d,NA,NA,NA,NA,qt,0,3,NA,NA,NA,NA,NA,NA,NA,NA,NA,NA,NA,NA,NA,NA,NA,NA,NA,NA,NA
40881,deep,flow.Sequence,3_0_3_0_5_0,NA,NA,completion,12539.62,618408,618406.3,618422.82,630962.44,630964,2024-11-02T10:12:44Z,630979.16,NULL,Prüfung,mtihani,d,NA,NA,NA,NA,qt,NA,3,NA,NA,NA,NA,NA,NA,NA,NA,NA,NA,NA,NA,NA,NA,NA,NA,NA,NA,NA
40881,shallow,flow.Sequence,3_0_3_0_5_1,NA,NA,skipped,NA,630964,NA,NA,630962.44,630965,2024-11-02T10:12:44Z,630979.16,NULL,Prüfung,mtihani,d,NA,NA,NA,NA,qt,NA,3,NA,NA,NA,NA,NA,NA,NA,NA,NA,NA,NA,NA,NA,NA,NA,NA,NA,NA,NA
40881,task,flow.Sequence,3_0_3_0_5,NA,NA,completion,12539.62,618408,618406.3,618422.82,630962.44,630966,2024-11-02T10:12:44Z,630979.16,NULL,Prüfung,mtihani,d,NA,NA,NA,NA,qt,NA,3,NA,NA,NA,NA,NA,NA,NA,NA,NA,NA,NA,NA,NA,NA,NA,NA,NA,NA,NA
40881,deep,flow.Sequence,3_0_3_0_6_0,NA,NA,skipped,NA,630967,NA,NA,630962.44,630967,2024-11-02T10:12:44Z,630979.16,NULL,Verzögerung,kuchelewa,s,mwakilishi,mwanauchumi,jaribio,NA,qt,NA,3,NA,NA,NA,NA,NA,NA,NA,NA,NA,NA,NA,NA,NA,NA,NA,NA,NA,NA,NA
40881,Shallow Question,html.Page,3_0_3_0_6_1_0,NA,NA,form submission,3962.84,630967,630962.44,630979.16,634942,634943,2024-11-02T10:12:48Z,634942.4,NULL,Verzögerung,kuchelewa,s,mwakilishi,mwanauchumi,jaribio,kuchelewa,NA,NA,3,NA,NA,NA,NA,NA,NA,NA,NA,NA,NA,NA,NA,NA,NA,NA,NA,NA,NA,NA
40881,"""Richtig""-Screen",canvas.Screen,3_0_3_0_6_1_1,NA,NA,timeout,4995.9399999999,634945,634941.48,634942.4,639921.7,639923,2024-11-02T10:12:53Z,639938.34,NULL,Verzögerung,kuchelewa,s,mwakilishi,mwanauchumi,jaribio,NA,qt,1,3,NA,NA,NA,NA,NA,NA,NA,NA,NA,NA,NA,NA,NA,NA,NA,NA,NA,NA,NA
40881,"""Falsch""-Screen",canvas.Screen,3_0_3_0_6_1_2,NA,NA,skipped,NA,639927,NA,NA,639921.7,639927,2024-11-02T10:12:53Z,639938.34,NULL,Verzögerung,kuchelewa,s,mwakilishi,mwanauchumi,jaribio,NA,qt,NA,3,NA,NA,NA,NA,NA,NA,NA,NA,NA,NA,NA,NA,NA,NA,NA,NA,NA,NA,NA
40881,shallow,flow.Sequence,3_0_3_0_6_1,NA,NA,completion,8942.5399999999,630967,630962.44,630979.16,639921.7,639927,2024-11-02T10:12:53Z,639938.34,NULL,Verzögerung,kuchelewa,s,mwakilishi,mwanauchumi,jaribio,NA,qt,NA,3,NA,NA,NA,NA,NA,NA,NA,NA,NA,NA,NA,NA,NA,NA,NA,NA,NA,NA,NA
40881,task,flow.Sequence,3_0_3_0_6,NA,NA,completion,8942.5399999999,630966,630962.44,630979.16,639921.7,639928,2024-11-02T10:12:53Z,639938.34,NULL,Verzögerung,kuchelewa,s,mwakilishi,mwanauchumi,jaribio,NA,qt,NA,3,NA,NA,NA,NA,NA,NA,NA,NA,NA,NA,NA,NA,NA,NA,NA,NA,NA,NA,NA
40881,deep,flow.Sequence,3_0_3_0_7_0,NA,NA,skipped,NA,639928,NA,NA,639921.7,639928,2024-11-02T10:12:53Z,639938.34,NULL,Genehmigung,idhini,s,mwanamke,itikadi,fedheha,NA,qt,NA,3,NA,NA,NA,NA,NA,NA,NA,NA,NA,NA,NA,NA,NA,NA,NA,NA,NA,NA,NA
40881,Shallow Question,html.Page,3_0_3_0_7_1_0,NA,NA,form submission,4794.66,639928,639921.7,639938.34,644733,644733,2024-11-02T10:12:58Z,644734.34,NULL,Genehmigung,idhini,s,mwanamke,itikadi,fedheha,idhini,NA,NA,3,NA,NA,NA,NA,NA,NA,NA,NA,NA,NA,NA,NA,NA,NA,NA,NA,NA,NA,NA
40881,"""Richtig""-Screen",canvas.Screen,3_0_3_0_7_1_1,NA,NA,timeout,4995.8400000001,644734,644732.62,644734.34,649713.9,649715,2024-11-02T10:13:03Z,649730.18,NULL,Genehmigung,idhini,s,mwanamke,itikadi,fedheha,NA,qt,1,3,NA,NA,NA,NA,NA,NA,NA,NA,NA,NA,NA,NA,NA,NA,NA,NA,NA,NA,NA
40881,"""Falsch""-Screen",canvas.Screen,3_0_3_0_7_1_2,NA,NA,skipped,NA,649719,NA,NA,649713.9,649720,2024-11-02T10:13:03Z,649730.18,NULL,Genehmigung,idhini,s,mwanamke,itikadi,fedheha,NA,qt,NA,3,NA,NA,NA,NA,NA,NA,NA,NA,NA,NA,NA,NA,NA,NA,NA,NA,NA,NA,NA
40881,shallow,flow.Sequence,3_0_3_0_7_1,NA,NA,completion,9775.5600000001,639928,639921.7,639938.34,649713.9,649720,2024-11-02T10:13:03Z,649730.18,NULL,Genehmigung,idhini,s,mwanamke,itikadi,fedheha,NA,qt,NA,3,NA,NA,NA,NA,NA,NA,NA,NA,NA,NA,NA,NA,NA,NA,NA,NA,NA,NA,NA
40881,task,flow.Sequence,3_0_3_0_7,NA,NA,completion,9775.5600000001,639928,639921.7,639938.34,649713.9,649720,2024-11-02T10:13:03Z,649730.18,NULL,Genehmigung,idhini,s,mwanamke,itikadi,fedheha,NA,qt,NA,3,NA,NA,NA,NA,NA,NA,NA,NA,NA,NA,NA,NA,NA,NA,NA,NA,NA,NA,NA
40881,block,flow.Loop,3_0_3_0,NA,NA,completion,95188.52,554509,554508.9,554525.38,649713.9,649720,2024-11-02T10:13:03Z,649730.18,NULL,NA,NA,NA,NA,NA,NA,NA,qt,NA,3,NA,NA,NA,NA,NA,NA,NA,NA,NA,NA,NA,NA,NA,NA,NA,NA,NA,NA,NA
40881,weiter,canvas.Screen,3_0_3_1,sdf,keypress(Space),response,1061.8199999999,649720,649713.9,649730.18,650792,650804,2024-11-02T10:13:04Z,650846.42,NULL,NA,NA,NA,NA,NA,NA,NA,qt,NA,3,NA,NA,NA,NA,NA,NA,NA,NA,NA,NA,NA,NA,NA,NA,NA,NA,NA,NA,NA
40881,check continue,flow.Sequence,3_0_3,NA,NA,completion,96266.62,554509,554508.9,554525.38,650792,650805,2024-11-02T10:13:04Z,650846.42,NULL,NA,NA,NA,NA,NA,NA,NA,qt,NA,3,NA,NA,NA,NA,NA,NA,NA,NA,NA,NA,NA,NA,NA,NA,NA,NA,NA,NA,NA
40881,Deep Question,html.Page,3_0_4_0_0_0_0,NA,NA,form submission,4485.58,650838,650837.44,650846.42,655332,655332,2024-11-02T10:13:08Z,655342.2,NULL,Prüfung,mtihani,d,NA,NA,NA,gugu,NA,NA,4,NA,NA,NA,NA,NA,NA,NA,NA,NA,NA,NA,NA,NA,NA,NA,NA,NA,NA,NA
40881,"""Richtig""-Screen",canvas.Screen,3_0_4_0_0_0_1,NA,NA,skipped,NA,655334,NA,NA,655332,655334,2024-11-02T10:13:08Z,655342.2,NULL,Prüfung,mtihani,d,NA,NA,NA,NA,sd,NA,4,NA,NA,NA,NA,NA,NA,NA,NA,NA,NA,NA,NA,NA,NA,NA,NA,NA,NA,NA
40881,"""Falsch""-Screen",canvas.Screen,3_0_4_0_0_0_2,NA,NA,timeout,4996,655336,655331.78,655342.2,660321.54,660323,2024-11-02T10:13:13Z,660338.2,NULL,Prüfung,mtihani,d,NA,NA,NA,NA,sd,0,4,NA,NA,NA,NA,NA,NA,NA,NA,NA,NA,NA,NA,NA,NA,NA,NA,NA,NA,NA
40881,deep,flow.Sequence,3_0_4_0_0_0,NA,NA,completion,9475.12,650838,650837.44,650846.42,660321.54,660323,2024-11-02T10:13:13Z,660338.2,NULL,Prüfung,mtihani,d,NA,NA,NA,NA,sd,NA,4,NA,NA,NA,NA,NA,NA,NA,NA,NA,NA,NA,NA,NA,NA,NA,NA,NA,NA,NA
40881,shallow,flow.Sequence,3_0_4_0_0_1,NA,NA,skipped,NA,660323,NA,NA,660321.54,660323,2024-11-02T10:13:13Z,660338.2,NULL,Prüfung,mtihani,d,NA,NA,NA,NA,sd,NA,4,NA,NA,NA,NA,NA,NA,NA,NA,NA,NA,NA,NA,NA,NA,NA,NA,NA,NA,NA
40881,task,flow.Sequence,3_0_4_0_0,NA,NA,completion,9475.12,650838,650837.44,650846.42,660321.54,660323,2024-11-02T10:13:13Z,660338.2,NULL,Prüfung,mtihani,d,NA,NA,NA,NA,sd,NA,4,NA,NA,NA,NA,NA,NA,NA,NA,NA,NA,NA,NA,NA,NA,NA,NA,NA,NA,NA
40881,Deep Question,html.Page,3_0_4_0_1_0_0,NA,NA,form submission,8524.8,660324,660321.54,660338.2,668863,668864,2024-11-02T10:13:22Z,668864.44,NULL,Fleisch,mshakiki,d,NA,NA,NA,mshakiki,NA,NA,4,NA,NA,NA,NA,NA,NA,NA,NA,NA,NA,NA,NA,NA,NA,NA,NA,NA,NA,NA
40881,"""Richtig""-Screen",canvas.Screen,3_0_4_0_1_0_1,NA,NA,timeout,4995.8600000001,668868,668860.76,668864.44,673843.96,673846,2024-11-02T10:13:27Z,673860.3,NULL,Fleisch,mshakiki,d,NA,NA,NA,NA,sd,1,4,NA,NA,NA,NA,NA,NA,NA,NA,NA,NA,NA,NA,NA,NA,NA,NA,NA,NA,NA
40881,"""Falsch""-Screen",canvas.Screen,3_0_4_0_1_0_2,NA,NA,skipped,NA,673852,NA,NA,673843.96,673852,2024-11-02T10:13:27Z,673860.3,NULL,Fleisch,mshakiki,d,NA,NA,NA,NA,sd,NA,4,NA,NA,NA,NA,NA,NA,NA,NA,NA,NA,NA,NA,NA,NA,NA,NA,NA,NA,NA
40881,deep,flow.Sequence,3_0_4_0_1_0,NA,NA,completion,13505.76,660324,660321.54,660338.2,673843.96,673853,2024-11-02T10:13:27Z,673860.3,NULL,Fleisch,mshakiki,d,NA,NA,NA,NA,sd,NA,4,NA,NA,NA,NA,NA,NA,NA,NA,NA,NA,NA,NA,NA,NA,NA,NA,NA,NA,NA
40881,shallow,flow.Sequence,3_0_4_0_1_1,NA,NA,skipped,NA,673854,NA,NA,673843.96,673854,2024-11-02T10:13:27Z,673860.3,NULL,Fleisch,mshakiki,d,NA,NA,NA,NA,sd,NA,4,NA,NA,NA,NA,NA,NA,NA,NA,NA,NA,NA,NA,NA,NA,NA,NA,NA,NA,NA
40881,task,flow.Sequence,3_0_4_0_1,NA,NA,completion,13505.76,660324,660321.54,660338.2,673843.96,673854,2024-11-02T10:13:27Z,673860.3,NULL,Fleisch,mshakiki,d,NA,NA,NA,NA,sd,NA,4,NA,NA,NA,NA,NA,NA,NA,NA,NA,NA,NA,NA,NA,NA,NA,NA,NA,NA,NA
40881,deep,flow.Sequence,3_0_4_0_2_0,NA,NA,skipped,NA,673854,NA,NA,673843.96,673854,2024-11-02T10:13:27Z,673860.3,NULL,Begegnung,kukutana,s,mmasihiya,mpiganaji,husiano,NA,sd,NA,4,NA,NA,NA,NA,NA,NA,NA,NA,NA,NA,NA,NA,NA,NA,NA,NA,NA,NA,NA
40881,Shallow Question,html.Page,3_0_4_0_2_1_0,NA,NA,form submission,3246.7,673854,673843.96,673860.3,677107,677108,2024-11-02T10:13:30Z,677107.66,NULL,Begegnung,kukutana,s,mmasihiya,mpiganaji,husiano,kukutana,NA,NA,4,NA,NA,NA,NA,NA,NA,NA,NA,NA,NA,NA,NA,NA,NA,NA,NA,NA,NA,NA
40881,"""Richtig""-Screen",canvas.Screen,3_0_4_0_2_1_1,NA,NA,timeout,4995.96,677110,677106.36,677107.66,682087.16,682087,2024-11-02T10:13:35Z,682103.62,NULL,Begegnung,kukutana,s,mmasihiya,mpiganaji,husiano,NA,sd,1,4,NA,NA,NA,NA,NA,NA,NA,NA,NA,NA,NA,NA,NA,NA,NA,NA,NA,NA,NA
40881,"""Falsch""-Screen",canvas.Screen,3_0_4_0_2_1_2,NA,NA,skipped,NA,682090,NA,NA,682087.16,682090,2024-11-02T10:13:35Z,682103.62,NULL,Begegnung,kukutana,s,mmasihiya,mpiganaji,husiano,NA,sd,NA,4,NA,NA,NA,NA,NA,NA,NA,NA,NA,NA,NA,NA,NA,NA,NA,NA,NA,NA,NA
40881,shallow,flow.Sequence,3_0_4_0_2_1,NA,NA,completion,8226.86,673854,673843.96,673860.3,682087.16,682090,2024-11-02T10:13:35Z,682103.62,NULL,Begegnung,kukutana,s,mmasihiya,mpiganaji,husiano,NA,sd,NA,4,NA,NA,NA,NA,NA,NA,NA,NA,NA,NA,NA,NA,NA,NA,NA,NA,NA,NA,NA
40881,task,flow.Sequence,3_0_4_0_2,NA,NA,completion,8226.86,673854,673843.96,673860.3,682087.16,682090,2024-11-02T10:13:35Z,682103.62,NULL,Begegnung,kukutana,s,mmasihiya,mpiganaji,husiano,NA,sd,NA,4,NA,NA,NA,NA,NA,NA,NA,NA,NA,NA,NA,NA,NA,NA,NA,NA,NA,NA,NA
40881,Deep Question,html.Page,3_0_4_0_3_0_0,NA,NA,form submission,7210.38,682091,682087.16,682103.62,689314,689314,2024-11-02T10:13:42Z,689314.28,NULL,Integrität,uadilifu,d,NA,NA,NA,wogo,NA,NA,4,NA,NA,NA,NA,NA,NA,NA,NA,NA,NA,NA,NA,NA,NA,NA,NA,NA,NA,NA
40881,"""Richtig""-Screen",canvas.Screen,3_0_4_0_3_0_1,NA,NA,skipped,NA,689315,NA,NA,689314,689315,2024-11-02T10:13:42Z,689314.28,NULL,Integrität,uadilifu,d,NA,NA,NA,NA,sd,NA,4,NA,NA,NA,NA,NA,NA,NA,NA,NA,NA,NA,NA,NA,NA,NA,NA,NA,NA,NA
40881,"""Falsch""-Screen",canvas.Screen,3_0_4_0_3_0_2,NA,NA,timeout,4995.9,689317,689312.78,689314.28,694293.78,694294,2024-11-02T10:13:47Z,694310.18,NULL,Integrität,uadilifu,d,NA,NA,NA,NA,sd,0,4,NA,NA,NA,NA,NA,NA,NA,NA,NA,NA,NA,NA,NA,NA,NA,NA,NA,NA,NA
40881,deep,flow.Sequence,3_0_4_0_3_0,NA,NA,completion,12190.16,682091,682087.16,682103.62,694293.78,694295,2024-11-02T10:13:47Z,694310.18,NULL,Integrität,uadilifu,d,NA,NA,NA,NA,sd,NA,4,NA,NA,NA,NA,NA,NA,NA,NA,NA,NA,NA,NA,NA,NA,NA,NA,NA,NA,NA
40881,shallow,flow.Sequence,3_0_4_0_3_1,NA,NA,skipped,NA,694295,NA,NA,694293.78,694296,2024-11-02T10:13:47Z,694310.18,NULL,Integrität,uadilifu,d,NA,NA,NA,NA,sd,NA,4,NA,NA,NA,NA,NA,NA,NA,NA,NA,NA,NA,NA,NA,NA,NA,NA,NA,NA,NA
40881,task,flow.Sequence,3_0_4_0_3,NA,NA,completion,12190.16,682090,682087.16,682103.62,694293.78,694296,2024-11-02T10:13:47Z,694310.18,NULL,Integrität,uadilifu,d,NA,NA,NA,NA,sd,NA,4,NA,NA,NA,NA,NA,NA,NA,NA,NA,NA,NA,NA,NA,NA,NA,NA,NA,NA,NA
40881,deep,flow.Sequence,3_0_4_0_4_0,NA,NA,skipped,NA,694296,NA,NA,694293.78,694296,2024-11-02T10:13:47Z,694310.18,NULL,Kultur,utamaduni,s,shetani,gerezani,mazingira,NA,sd,NA,4,NA,NA,NA,NA,NA,NA,NA,NA,NA,NA,NA,NA,NA,NA,NA,NA,NA,NA,NA
40881,Shallow Question,html.Page,3_0_4_0_4_1_0,NA,NA,form submission,5521.8199999999,694297,694293.78,694310.18,699832,699832,2024-11-02T10:13:53Z,699838.9,NULL,Kultur,utamaduni,s,shetani,gerezani,mazingira,utamaduni,NA,NA,4,NA,NA,NA,NA,NA,NA,NA,NA,NA,NA,NA,NA,NA,NA,NA,NA,NA,NA,NA
40881,"""Richtig""-Screen",canvas.Screen,3_0_4_0_4_1_1,NA,NA,timeout,4995.9399999999,699833,699831.3,699838.9,704818.56,704819,2024-11-02T10:13:58Z,704834.84,NULL,Kultur,utamaduni,s,shetani,gerezani,mazingira,NA,sd,1,4,NA,NA,NA,NA,NA,NA,NA,NA,NA,NA,NA,NA,NA,NA,NA,NA,NA,NA,NA
40881,"""Falsch""-Screen",canvas.Screen,3_0_4_0_4_1_2,NA,NA,skipped,NA,704824,NA,NA,704818.56,704824,2024-11-02T10:13:58Z,704834.84,NULL,Kultur,utamaduni,s,shetani,gerezani,mazingira,NA,sd,NA,4,NA,NA,NA,NA,NA,NA,NA,NA,NA,NA,NA,NA,NA,NA,NA,NA,NA,NA,NA
40881,shallow,flow.Sequence,3_0_4_0_4_1,NA,NA,completion,10508.38,694297,694293.78,694310.18,704818.56,704825,2024-11-02T10:13:58Z,704834.84,NULL,Kultur,utamaduni,s,shetani,gerezani,mazingira,NA,sd,NA,4,NA,NA,NA,NA,NA,NA,NA,NA,NA,NA,NA,NA,NA,NA,NA,NA,NA,NA,NA
40881,task,flow.Sequence,3_0_4_0_4,NA,NA,completion,10508.38,694296,694293.78,694310.18,704818.56,704825,2024-11-02T10:13:58Z,704834.84,NULL,Kultur,utamaduni,s,shetani,gerezani,mazingira,NA,sd,NA,4,NA,NA,NA,NA,NA,NA,NA,NA,NA,NA,NA,NA,NA,NA,NA,NA,NA,NA,NA
40881,deep,flow.Sequence,3_0_4_0_5_0,NA,NA,skipped,NA,704825,NA,NA,704818.56,704825,2024-11-02T10:13:58Z,704834.84,NULL,Genehmigung,idhini,s,mwanamke,itikadi,fedheha,NA,sd,NA,4,NA,NA,NA,NA,NA,NA,NA,NA,NA,NA,NA,NA,NA,NA,NA,NA,NA,NA,NA
40881,Shallow Question,html.Page,3_0_4_0_5_1_0,NA,NA,form submission,5851.16,704825,704818.56,704834.84,710686,710686,2024-11-02T10:14:04Z,710696.62,NULL,Genehmigung,idhini,s,mwanamke,itikadi,fedheha,idhini,NA,NA,4,NA,NA,NA,NA,NA,NA,NA,NA,NA,NA,NA,NA,NA,NA,NA,NA,NA,NA,NA
40881,"""Richtig""-Screen",canvas.Screen,3_0_4_0_5_1_1,NA,NA,timeout,4996.1800000001,710688,710685.2,710696.62,715676.22,715677,2024-11-02T10:14:09Z,715692.8,NULL,Genehmigung,idhini,s,mwanamke,itikadi,fedheha,NA,sd,1,4,NA,NA,NA,NA,NA,NA,NA,NA,NA,NA,NA,NA,NA,NA,NA,NA,NA,NA,NA
40881,"""Falsch""-Screen",canvas.Screen,3_0_4_0_5_1_2,NA,NA,skipped,NA,715681,NA,NA,715676.22,715681,2024-11-02T10:14:09Z,715692.8,NULL,Genehmigung,idhini,s,mwanamke,itikadi,fedheha,NA,sd,NA,4,NA,NA,NA,NA,NA,NA,NA,NA,NA,NA,NA,NA,NA,NA,NA,NA,NA,NA,NA
40881,shallow,flow.Sequence,3_0_4_0_5_1,NA,NA,completion,10841.38,704825,704818.56,704834.84,715676.22,715681,2024-11-02T10:14:09Z,715692.8,NULL,Genehmigung,idhini,s,mwanamke,itikadi,fedheha,NA,sd,NA,4,NA,NA,NA,NA,NA,NA,NA,NA,NA,NA,NA,NA,NA,NA,NA,NA,NA,NA,NA
40881,task,flow.Sequence,3_0_4_0_5,NA,NA,completion,10841.38,704825,704818.56,704834.84,715676.22,715681,2024-11-02T10:14:09Z,715692.8,NULL,Genehmigung,idhini,s,mwanamke,itikadi,fedheha,NA,sd,NA,4,NA,NA,NA,NA,NA,NA,NA,NA,NA,NA,NA,NA,NA,NA,NA,NA,NA,NA,NA
40881,Deep Question,html.Page,3_0_4_0_6_0_0,NA,NA,form submission,6814.2,715682,715676.22,715692.8,722507,722507,2024-11-02T10:14:16Z,722520.16,NULL,Aufstand,ugomaji,d,NA,NA,NA,udomaji,NA,NA,4,NA,NA,NA,NA,NA,NA,NA,NA,NA,NA,NA,NA,NA,NA,NA,NA,NA,NA,NA
40881,"""Richtig""-Screen",canvas.Screen,3_0_4_0_6_0_1,NA,NA,skipped,NA,722508,NA,NA,722507,722508,2024-11-02T10:14:16Z,722520.16,NULL,Aufstand,ugomaji,d,NA,NA,NA,NA,sd,NA,4,NA,NA,NA,NA,NA,NA,NA,NA,NA,NA,NA,NA,NA,NA,NA,NA,NA,NA,NA
40881,"""Falsch""-Screen",canvas.Screen,3_0_4_0_6_0_2,NA,NA,timeout,4995.96,722509,722506.94,722520.16,727499.8,727501,2024-11-02T10:14:21Z,727516.12,NULL,Aufstand,ugomaji,d,NA,NA,NA,NA,sd,0,4,NA,NA,NA,NA,NA,NA,NA,NA,NA,NA,NA,NA,NA,NA,NA,NA,NA,NA,NA
40881,deep,flow.Sequence,3_0_4_0_6_0,NA,NA,completion,11807,715682,715676.22,715692.8,727499.8,727501,2024-11-02T10:14:21Z,727516.12,NULL,Aufstand,ugomaji,d,NA,NA,NA,NA,sd,NA,4,NA,NA,NA,NA,NA,NA,NA,NA,NA,NA,NA,NA,NA,NA,NA,NA,NA,NA,NA
40881,shallow,flow.Sequence,3_0_4_0_6_1,NA,NA,skipped,NA,727501,NA,NA,727499.8,727502,2024-11-02T10:14:21Z,727516.12,NULL,Aufstand,ugomaji,d,NA,NA,NA,NA,sd,NA,4,NA,NA,NA,NA,NA,NA,NA,NA,NA,NA,NA,NA,NA,NA,NA,NA,NA,NA,NA
40881,task,flow.Sequence,3_0_4_0_6,NA,NA,completion,11807,715682,715676.22,715692.8,727499.8,727502,2024-11-02T10:14:21Z,727516.12,NULL,Aufstand,ugomaji,d,NA,NA,NA,NA,sd,NA,4,NA,NA,NA,NA,NA,NA,NA,NA,NA,NA,NA,NA,NA,NA,NA,NA,NA,NA,NA
40881,deep,flow.Sequence,3_0_4_0_7_0,NA,NA,skipped,NA,727502,NA,NA,727499.8,727503,2024-11-02T10:14:21Z,727516.12,NULL,Verzögerung,kuchelewa,s,mwakilishi,mwanauchumi,jaribio,NA,sd,NA,4,NA,NA,NA,NA,NA,NA,NA,NA,NA,NA,NA,NA,NA,NA,NA,NA,NA,NA,NA
40881,Shallow Question,html.Page,3_0_4_0_7_1_0,NA,NA,form submission,3729.88,727503,727499.8,727516.12,731246,731247,2024-11-02T10:14:24Z,731246.36,NULL,Verzögerung,kuchelewa,s,mwakilishi,mwanauchumi,jaribio,kuchelewa,NA,NA,4,NA,NA,NA,NA,NA,NA,NA,NA,NA,NA,NA,NA,NA,NA,NA,NA,NA,NA,NA
40881,"""Richtig""-Screen",canvas.Screen,3_0_4_0_7_1_1,NA,NA,timeout,4995.92,731248,731245.52,731246.36,736225.92,736229,2024-11-02T10:14:29Z,736242.28,NULL,Verzögerung,kuchelewa,s,mwakilishi,mwanauchumi,jaribio,NA,sd,1,4,NA,NA,NA,NA,NA,NA,NA,NA,NA,NA,NA,NA,NA,NA,NA,NA,NA,NA,NA
40881,"""Falsch""-Screen",canvas.Screen,3_0_4_0_7_1_2,NA,NA,skipped,NA,736233,NA,NA,736225.92,736234,2024-11-02T10:14:29Z,736242.28,NULL,Verzögerung,kuchelewa,s,mwakilishi,mwanauchumi,jaribio,NA,sd,NA,4,NA,NA,NA,NA,NA,NA,NA,NA,NA,NA,NA,NA,NA,NA,NA,NA,NA,NA,NA
40881,shallow,flow.Sequence,3_0_4_0_7_1,NA,NA,completion,8709.8,727503,727499.8,727516.12,736225.92,736234,2024-11-02T10:14:29Z,736242.28,NULL,Verzögerung,kuchelewa,s,mwakilishi,mwanauchumi,jaribio,NA,sd,NA,4,NA,NA,NA,NA,NA,NA,NA,NA,NA,NA,NA,NA,NA,NA,NA,NA,NA,NA,NA
40881,task,flow.Sequence,3_0_4_0_7,NA,NA,completion,8709.8,727502,727499.8,727516.12,736225.92,736234,2024-11-02T10:14:29Z,736242.28,NULL,Verzögerung,kuchelewa,s,mwakilishi,mwanauchumi,jaribio,NA,sd,NA,4,NA,NA,NA,NA,NA,NA,NA,NA,NA,NA,NA,NA,NA,NA,NA,NA,NA,NA,NA
40881,block,flow.Loop,3_0_4_0,NA,NA,completion,85379.5,650838,650837.44,650846.42,736225.92,736234,2024-11-02T10:14:29Z,736242.28,NULL,NA,NA,NA,NA,NA,NA,NA,sd,NA,4,NA,NA,NA,NA,NA,NA,NA,NA,NA,NA,NA,NA,NA,NA,NA,NA,NA,NA,NA
40881,weiter,canvas.Screen,3_0_4_1,sdf,keypress(Space),response,971.71999999997,736234,736225.92,736242.28,737214,737228,2024-11-02T10:14:30Z,737274.82,NULL,NA,NA,NA,NA,NA,NA,NA,sd,NA,4,NA,NA,NA,NA,NA,NA,NA,NA,NA,NA,NA,NA,NA,NA,NA,NA,NA,NA,NA
40881,check continue,flow.Sequence,3_0_4,NA,NA,completion,86367.58,650838,650837.44,650846.42,737214,737228,2024-11-02T10:14:30Z,737274.82,NULL,NA,NA,NA,NA,NA,NA,NA,sd,NA,4,NA,NA,NA,NA,NA,NA,NA,NA,NA,NA,NA,NA,NA,NA,NA,NA,NA,NA,NA
40881,deep,flow.Sequence,3_0_5_0_0_0,NA,NA,skipped,NA,737263,NA,NA,737214,737263,2024-11-02T10:14:30Z,737274.82,NULL,Verzögerung,kuchelewa,s,mwakilishi,mwanauchumi,jaribio,NA,sdf,NA,5,NA,NA,NA,NA,NA,NA,NA,NA,NA,NA,NA,NA,NA,NA,NA,NA,NA,NA,NA
40881,Shallow Question,html.Page,3_0_5_0_0_1_0,NA,NA,form submission,3857.1800000001,737263,737263.44,737274.82,741132,741132,2024-11-02T10:14:34Z,741138.18,NULL,Verzögerung,kuchelewa,s,mwakilishi,mwanauchumi,jaribio,kuchelewa,NA,NA,5,NA,NA,NA,NA,NA,NA,NA,NA,NA,NA,NA,NA,NA,NA,NA,NA,NA,NA,NA
40881,"""Richtig""-Screen",canvas.Screen,3_0_5_0_0_1_1,NA,NA,timeout,4995.96,741134,741130.9,741138.18,746117.84,746119,2024-11-02T10:14:39Z,746134.14,NULL,Verzögerung,kuchelewa,s,mwakilishi,mwanauchumi,jaribio,NA,sdf,1,5,NA,NA,NA,NA,NA,NA,NA,NA,NA,NA,NA,NA,NA,NA,NA,NA,NA,NA,NA
40881,"""Falsch""-Screen",canvas.Screen,3_0_5_0_0_1_2,NA,NA,skipped,NA,746124,NA,NA,746117.84,746124,2024-11-02T10:14:39Z,746134.14,NULL,Verzögerung,kuchelewa,s,mwakilishi,mwanauchumi,jaribio,NA,sdf,NA,5,NA,NA,NA,NA,NA,NA,NA,NA,NA,NA,NA,NA,NA,NA,NA,NA,NA,NA,NA
40881,shallow,flow.Sequence,3_0_5_0_0_1,NA,NA,completion,8843.02,737263,737263.44,737274.82,746117.84,746124,2024-11-02T10:14:39Z,746134.14,NULL,Verzögerung,kuchelewa,s,mwakilishi,mwanauchumi,jaribio,NA,sdf,NA,5,NA,NA,NA,NA,NA,NA,NA,NA,NA,NA,NA,NA,NA,NA,NA,NA,NA,NA,NA
40881,task,flow.Sequence,3_0_5_0_0,NA,NA,completion,8843.02,737263,737263.44,737274.82,746117.84,746124,2024-11-02T10:14:39Z,746134.14,NULL,Verzögerung,kuchelewa,s,mwakilishi,mwanauchumi,jaribio,NA,sdf,NA,5,NA,NA,NA,NA,NA,NA,NA,NA,NA,NA,NA,NA,NA,NA,NA,NA,NA,NA,NA
40881,deep,flow.Sequence,3_0_5_0_1_0,NA,NA,skipped,NA,746124,NA,NA,746117.84,746125,2024-11-02T10:14:39Z,746134.14,NULL,Begegnung,kukutana,s,mmasihiya,mpiganaji,husiano,NA,sdf,NA,5,NA,NA,NA,NA,NA,NA,NA,NA,NA,NA,NA,NA,NA,NA,NA,NA,NA,NA,NA
40881,Shallow Question,html.Page,3_0_5_0_1_1_0,NA,NA,form submission,5431.86,746125,746117.84,746134.14,751566,751567,2024-11-02T10:14:45Z,751579.62,NULL,Begegnung,kukutana,s,mmasihiya,mpiganaji,husiano,kukutana,NA,NA,5,NA,NA,NA,NA,NA,NA,NA,NA,NA,NA,NA,NA,NA,NA,NA,NA,NA,NA,NA
40881,"""Richtig""-Screen",canvas.Screen,3_0_5_0_1_1_1,NA,NA,timeout,4996.26,751567,751565.6,751579.62,756559.12,756560,2024-11-02T10:14:50Z,756575.88,NULL,Begegnung,kukutana,s,mmasihiya,mpiganaji,husiano,NA,sdf,1,5,NA,NA,NA,NA,NA,NA,NA,NA,NA,NA,NA,NA,NA,NA,NA,NA,NA,NA,NA
40881,"""Falsch""-Screen",canvas.Screen,3_0_5_0_1_1_2,NA,NA,skipped,NA,756563,NA,NA,756559.12,756563,2024-11-02T10:14:50Z,756575.88,NULL,Begegnung,kukutana,s,mmasihiya,mpiganaji,husiano,NA,sdf,NA,5,NA,NA,NA,NA,NA,NA,NA,NA,NA,NA,NA,NA,NA,NA,NA,NA,NA,NA,NA
40881,shallow,flow.Sequence,3_0_5_0_1_1,NA,NA,completion,10424.98,746125,746117.84,746134.14,756559.12,756563,2024-11-02T10:14:50Z,756575.88,NULL,Begegnung,kukutana,s,mmasihiya,mpiganaji,husiano,NA,sdf,NA,5,NA,NA,NA,NA,NA,NA,NA,NA,NA,NA,NA,NA,NA,NA,NA,NA,NA,NA,NA
40881,task,flow.Sequence,3_0_5_0_1,NA,NA,completion,10424.98,746124,746117.84,746134.14,756559.12,756563,2024-11-02T10:14:50Z,756575.88,NULL,Begegnung,kukutana,s,mmasihiya,mpiganaji,husiano,NA,sdf,NA,5,NA,NA,NA,NA,NA,NA,NA,NA,NA,NA,NA,NA,NA,NA,NA,NA,NA,NA,NA
40881,Deep Question,html.Page,3_0_5_0_2_0_0,NA,NA,form submission,5904.12,756564,756559.12,756575.88,762480,762480,2024-11-02T10:14:56Z,762487.22,NULL,Fleisch,mshakiki,d,NA,NA,NA,mshakiki,NA,NA,5,NA,NA,NA,NA,NA,NA,NA,NA,NA,NA,NA,NA,NA,NA,NA,NA,NA,NA,NA
40881,"""Richtig""-Screen",canvas.Screen,3_0_5_0_2_0_1,NA,NA,timeout,4995.9600000001,762481,762478.92,762487.22,767466.9,767468,2024-11-02T10:15:01Z,767483.18,NULL,Fleisch,mshakiki,d,NA,NA,NA,NA,sdf,1,5,NA,NA,NA,NA,NA,NA,NA,NA,NA,NA,NA,NA,NA,NA,NA,NA,NA,NA,NA
40881,"""Falsch""-Screen",canvas.Screen,3_0_5_0_2_0_2,NA,NA,skipped,NA,767473,NA,NA,767466.9,767473,2024-11-02T10:15:01Z,767483.18,NULL,Fleisch,mshakiki,d,NA,NA,NA,NA,sdf,NA,5,NA,NA,NA,NA,NA,NA,NA,NA,NA,NA,NA,NA,NA,NA,NA,NA,NA,NA,NA
40881,deep,flow.Sequence,3_0_5_0_2_0,NA,NA,completion,10891.02,756564,756559.12,756575.88,767466.9,767473,2024-11-02T10:15:01Z,767483.18,NULL,Fleisch,mshakiki,d,NA,NA,NA,NA,sdf,NA,5,NA,NA,NA,NA,NA,NA,NA,NA,NA,NA,NA,NA,NA,NA,NA,NA,NA,NA,NA
40881,shallow,flow.Sequence,3_0_5_0_2_1,NA,NA,skipped,NA,767473,NA,NA,767466.9,767473,2024-11-02T10:15:01Z,767483.18,NULL,Fleisch,mshakiki,d,NA,NA,NA,NA,sdf,NA,5,NA,NA,NA,NA,NA,NA,NA,NA,NA,NA,NA,NA,NA,NA,NA,NA,NA,NA,NA
40881,task,flow.Sequence,3_0_5_0_2,NA,NA,completion,10891.02,756564,756559.12,756575.88,767466.9,767473,2024-11-02T10:15:01Z,767483.18,NULL,Fleisch,mshakiki,d,NA,NA,NA,NA,sdf,NA,5,NA,NA,NA,NA,NA,NA,NA,NA,NA,NA,NA,NA,NA,NA,NA,NA,NA,NA,NA
40881,Deep Question,html.Page,3_0_5_0_3_0_0,NA,NA,form submission,5871.8199999999,767473,767466.9,767483.18,773355,773356,2024-11-02T10:15:06Z,773361.58,NULL,Prüfung,mtihani,d,NA,NA,NA,igohidi,NA,NA,5,NA,NA,NA,NA,NA,NA,NA,NA,NA,NA,NA,NA,NA,NA,NA,NA,NA,NA,NA
40881,"""Richtig""-Screen",canvas.Screen,3_0_5_0_3_0_1,NA,NA,skipped,NA,773356,NA,NA,773355,773356,2024-11-02T10:15:06Z,773361.58,NULL,Prüfung,mtihani,d,NA,NA,NA,NA,sdf,NA,5,NA,NA,NA,NA,NA,NA,NA,NA,NA,NA,NA,NA,NA,NA,NA,NA,NA,NA,NA
40881,"""Falsch""-Screen",canvas.Screen,3_0_5_0_3_0_2,NA,NA,timeout,4996.4,773357,773354.54,773361.58,778341.06,778342,2024-11-02T10:15:11Z,778357.98,NULL,Prüfung,mtihani,d,NA,NA,NA,NA,sdf,0,5,NA,NA,NA,NA,NA,NA,NA,NA,NA,NA,NA,NA,NA,NA,NA,NA,NA,NA,NA
40881,deep,flow.Sequence,3_0_5_0_3_0,NA,NA,completion,10857.88,767473,767466.9,767483.18,778341.06,778343,2024-11-02T10:15:11Z,778357.98,NULL,Prüfung,mtihani,d,NA,NA,NA,NA,sdf,NA,5,NA,NA,NA,NA,NA,NA,NA,NA,NA,NA,NA,NA,NA,NA,NA,NA,NA,NA,NA
40881,shallow,flow.Sequence,3_0_5_0_3_1,NA,NA,skipped,NA,778343,NA,NA,778341.06,778343,2024-11-02T10:15:11Z,778357.98,NULL,Prüfung,mtihani,d,NA,NA,NA,NA,sdf,NA,5,NA,NA,NA,NA,NA,NA,NA,NA,NA,NA,NA,NA,NA,NA,NA,NA,NA,NA,NA
40881,task,flow.Sequence,3_0_5_0_3,NA,NA,completion,10857.88,767473,767466.9,767483.18,778341.06,778343,2024-11-02T10:15:11Z,778357.98,NULL,Prüfung,mtihani,d,NA,NA,NA,NA,sdf,NA,5,NA,NA,NA,NA,NA,NA,NA,NA,NA,NA,NA,NA,NA,NA,NA,NA,NA,NA,NA
40881,deep,flow.Sequence,3_0_5_0_4_0,NA,NA,skipped,NA,778344,NA,NA,778341.06,778344,2024-11-02T10:15:11Z,778357.98,NULL,Genehmigung,idhini,s,mwanamke,itikadi,fedheha,NA,sdf,NA,5,NA,NA,NA,NA,NA,NA,NA,NA,NA,NA,NA,NA,NA,NA,NA,NA,NA,NA,NA
40881,Shallow Question,html.Page,3_0_5_0_4_1_0,NA,NA,form submission,6017.02,778344,778341.06,778357.98,784375,784375,2024-11-02T10:15:17Z,784385.84,NULL,Genehmigung,idhini,s,mwanamke,itikadi,fedheha,idhini,NA,NA,5,NA,NA,NA,NA,NA,NA,NA,NA,NA,NA,NA,NA,NA,NA,NA,NA,NA,NA,NA
40881,"""Richtig""-Screen",canvas.Screen,3_0_5_0_4_1_1,NA,NA,timeout,4996.26,784377,784374.26,784385.84,789365.44,789367,2024-11-02T10:15:22Z,789382.1,NULL,Genehmigung,idhini,s,mwanamke,itikadi,fedheha,NA,sdf,1,5,NA,NA,NA,NA,NA,NA,NA,NA,NA,NA,NA,NA,NA,NA,NA,NA,NA,NA,NA
40881,"""Falsch""-Screen",canvas.Screen,3_0_5_0_4_1_2,NA,NA,skipped,NA,789371,NA,NA,789365.44,789371,2024-11-02T10:15:22Z,789382.1,NULL,Genehmigung,idhini,s,mwanamke,itikadi,fedheha,NA,sdf,NA,5,NA,NA,NA,NA,NA,NA,NA,NA,NA,NA,NA,NA,NA,NA,NA,NA,NA,NA,NA
40881,shallow,flow.Sequence,3_0_5_0_4_1,NA,NA,completion,11007.46,778344,778341.06,778357.98,789365.44,789371,2024-11-02T10:15:22Z,789382.1,NULL,Genehmigung,idhini,s,mwanamke,itikadi,fedheha,NA,sdf,NA,5,NA,NA,NA,NA,NA,NA,NA,NA,NA,NA,NA,NA,NA,NA,NA,NA,NA,NA,NA
40881,task,flow.Sequence,3_0_5_0_4,NA,NA,completion,11007.46,778343,778341.06,778357.98,789365.44,789372,2024-11-02T10:15:22Z,789382.1,NULL,Genehmigung,idhini,s,mwanamke,itikadi,fedheha,NA,sdf,NA,5,NA,NA,NA,NA,NA,NA,NA,NA,NA,NA,NA,NA,NA,NA,NA,NA,NA,NA,NA
40881,Deep Question,html.Page,3_0_5_0_5_0_0,NA,NA,form submission,4236.9,789372,789365.44,789382.1,793619,793619,2024-11-02T10:15:27Z,793628.22,NULL,Aufstand,ugomaji,d,NA,NA,NA,ugomaji,NA,NA,5,NA,NA,NA,NA,NA,NA,NA,NA,NA,NA,NA,NA,NA,NA,NA,NA,NA,NA,NA
40881,"""Richtig""-Screen",canvas.Screen,3_0_5_0_5_0_1,NA,NA,timeout,4996.02,793620,793618.6,793628.22,798607.92,798608,2024-11-02T10:15:32Z,798624.24,NULL,Aufstand,ugomaji,d,NA,NA,NA,NA,sdf,1,5,NA,NA,NA,NA,NA,NA,NA,NA,NA,NA,NA,NA,NA,NA,NA,NA,NA,NA,NA
40881,"""Falsch""-Screen",canvas.Screen,3_0_5_0_5_0_2,NA,NA,skipped,NA,798612,NA,NA,798607.92,798612,2024-11-02T10:15:32Z,798624.24,NULL,Aufstand,ugomaji,d,NA,NA,NA,NA,sdf,NA,5,NA,NA,NA,NA,NA,NA,NA,NA,NA,NA,NA,NA,NA,NA,NA,NA,NA,NA,NA
40881,deep,flow.Sequence,3_0_5_0_5_0,NA,NA,completion,9225.8200000001,789372,789365.44,789382.1,798607.92,798612,2024-11-02T10:15:32Z,798624.24,NULL,Aufstand,ugomaji,d,NA,NA,NA,NA,sdf,NA,5,NA,NA,NA,NA,NA,NA,NA,NA,NA,NA,NA,NA,NA,NA,NA,NA,NA,NA,NA
40881,shallow,flow.Sequence,3_0_5_0_5_1,NA,NA,skipped,NA,798612,NA,NA,798607.92,798612,2024-11-02T10:15:32Z,798624.24,NULL,Aufstand,ugomaji,d,NA,NA,NA,NA,sdf,NA,5,NA,NA,NA,NA,NA,NA,NA,NA,NA,NA,NA,NA,NA,NA,NA,NA,NA,NA,NA
40881,task,flow.Sequence,3_0_5_0_5,NA,NA,completion,9225.8200000001,789372,789365.44,789382.1,798607.92,798612,2024-11-02T10:15:32Z,798624.24,NULL,Aufstand,ugomaji,d,NA,NA,NA,NA,sdf,NA,5,NA,NA,NA,NA,NA,NA,NA,NA,NA,NA,NA,NA,NA,NA,NA,NA,NA,NA,NA
40881,deep,flow.Sequence,3_0_5_0_6_0,NA,NA,skipped,NA,798612,NA,NA,798607.92,798612,2024-11-02T10:15:32Z,798624.24,NULL,Kultur,utamaduni,s,shetani,gerezani,mazingira,NA,sdf,NA,5,NA,NA,NA,NA,NA,NA,NA,NA,NA,NA,NA,NA,NA,NA,NA,NA,NA,NA,NA
40881,Shallow Question,html.Page,3_0_5_0_6_1_0,NA,NA,form submission,3838.76,798612,798607.92,798624.24,802463,802463,2024-11-02T10:15:36Z,802470.9,NULL,Kultur,utamaduni,s,shetani,gerezani,mazingira,utamaduni,NA,NA,5,NA,NA,NA,NA,NA,NA,NA,NA,NA,NA,NA,NA,NA,NA,NA,NA,NA,NA,NA
40881,"""Richtig""-Screen",canvas.Screen,3_0_5_0_6_1_1,NA,NA,timeout,4995.96,802465,802461.78,802470.9,807450.24,807451,2024-11-02T10:15:41Z,807466.86,NULL,Kultur,utamaduni,s,shetani,gerezani,mazingira,NA,sdf,1,5,NA,NA,NA,NA,NA,NA,NA,NA,NA,NA,NA,NA,NA,NA,NA,NA,NA,NA,NA
40881,"""Falsch""-Screen",canvas.Screen,3_0_5_0_6_1_2,NA,NA,skipped,NA,807456,NA,NA,807450.24,807456,2024-11-02T10:15:41Z,807466.86,NULL,Kultur,utamaduni,s,shetani,gerezani,mazingira,NA,sdf,NA,5,NA,NA,NA,NA,NA,NA,NA,NA,NA,NA,NA,NA,NA,NA,NA,NA,NA,NA,NA
40881,shallow,flow.Sequence,3_0_5_0_6_1,NA,NA,completion,8826,798612,798607.92,798624.24,807450.24,807456,2024-11-02T10:15:41Z,807466.86,NULL,Kultur,utamaduni,s,shetani,gerezani,mazingira,NA,sdf,NA,5,NA,NA,NA,NA,NA,NA,NA,NA,NA,NA,NA,NA,NA,NA,NA,NA,NA,NA,NA
40881,task,flow.Sequence,3_0_5_0_6,NA,NA,completion,8826,798612,798607.92,798624.24,807450.24,807456,2024-11-02T10:15:41Z,807466.86,NULL,Kultur,utamaduni,s,shetani,gerezani,mazingira,NA,sdf,NA,5,NA,NA,NA,NA,NA,NA,NA,NA,NA,NA,NA,NA,NA,NA,NA,NA,NA,NA,NA
40881,Deep Question,html.Page,3_0_5_0_7_0_0,NA,NA,form submission,4345.14,807457,807450.24,807466.86,811812,811813,2024-11-02T10:15:45Z,811813.22,NULL,Integrität,uadilifu,d,NA,NA,NA,idishi,NA,NA,5,NA,NA,NA,NA,NA,NA,NA,NA,NA,NA,NA,NA,NA,NA,NA,NA,NA,NA,NA
40881,"""Richtig""-Screen",canvas.Screen,3_0_5_0_7_0_1,NA,NA,skipped,NA,811814,NA,NA,811812,811814,2024-11-02T10:15:45Z,811813.22,NULL,Integrität,uadilifu,d,NA,NA,NA,NA,sdf,NA,5,NA,NA,NA,NA,NA,NA,NA,NA,NA,NA,NA,NA,NA,NA,NA,NA,NA,NA,NA
40881,"""Falsch""-Screen",canvas.Screen,3_0_5_0_7_0_2,NA,NA,timeout,4995.92,811815,811812.18,811813.22,816792.72,816794,2024-11-02T10:15:50Z,816809.14,NULL,Integrität,uadilifu,d,NA,NA,NA,NA,sdf,0,5,NA,NA,NA,NA,NA,NA,NA,NA,NA,NA,NA,NA,NA,NA,NA,NA,NA,NA,NA
40881,deep,flow.Sequence,3_0_5_0_7_0,NA,NA,completion,9325.86,807457,807450.24,807466.86,816792.72,816795,2024-11-02T10:15:50Z,816809.14,NULL,Integrität,uadilifu,d,NA,NA,NA,NA,sdf,NA,5,NA,NA,NA,NA,NA,NA,NA,NA,NA,NA,NA,NA,NA,NA,NA,NA,NA,NA,NA
40881,shallow,flow.Sequence,3_0_5_0_7_1,NA,NA,skipped,NA,816795,NA,NA,816792.72,816795,2024-11-02T10:15:50Z,816809.14,NULL,Integrität,uadilifu,d,NA,NA,NA,NA,sdf,NA,5,NA,NA,NA,NA,NA,NA,NA,NA,NA,NA,NA,NA,NA,NA,NA,NA,NA,NA,NA
40881,task,flow.Sequence,3_0_5_0_7,NA,NA,completion,9325.86,807457,807450.24,807466.86,816792.72,816795,2024-11-02T10:15:50Z,816809.14,NULL,Integrität,uadilifu,d,NA,NA,NA,NA,sdf,NA,5,NA,NA,NA,NA,NA,NA,NA,NA,NA,NA,NA,NA,NA,NA,NA,NA,NA,NA,NA
40881,block,flow.Loop,3_0_5_0,NA,NA,completion,79517.9,737263,737263.44,737274.82,816792.72,816796,2024-11-02T10:15:50Z,816809.14,NULL,NA,NA,NA,NA,NA,NA,NA,sdf,NA,5,NA,NA,NA,NA,NA,NA,NA,NA,NA,NA,NA,NA,NA,NA,NA,NA,NA,NA,NA
40881,weiter,canvas.Screen,3_0_5_1,sdf,keypress(Space),response,1059.86,816796,816792.72,816809.14,817869,817882,2024-11-02T10:15:51Z,818374.44,NULL,NA,NA,NA,NA,NA,NA,NA,sdf,NA,5,NA,NA,NA,NA,NA,NA,NA,NA,NA,NA,NA,NA,NA,NA,NA,NA,NA,NA,NA
40881,check continue,flow.Sequence,3_0_5,NA,NA,completion,80594.18,737263,737263.44,737274.82,817869,817882,2024-11-02T10:15:51Z,818374.44,NULL,NA,NA,NA,NA,NA,NA,NA,sdf,NA,5,NA,NA,NA,NA,NA,NA,NA,NA,NA,NA,NA,NA,NA,NA,NA,NA,NA,NA,NA
40881,check continue,flow.Sequence,3_0_6,NA,NA,skipped,NA,817911,NA,NA,817869,817911,2024-11-02T10:15:51Z,818374.44,NULL,NA,NA,NA,NA,NA,NA,NA,dfs,NA,6,NA,NA,NA,NA,NA,NA,NA,NA,NA,NA,NA,NA,NA,NA,NA,NA,NA,NA,NA
40881,check continue,flow.Sequence,3_0_7,NA,NA,skipped,NA,817933,NA,NA,817869,817933,2024-11-02T10:15:51Z,818374.44,NULL,NA,NA,NA,NA,NA,NA,NA,df,NA,7,NA,NA,NA,NA,NA,NA,NA,NA,NA,NA,NA,NA,NA,NA,NA,NA,NA,NA,NA
40881,check continue,flow.Sequence,3_0_8,NA,NA,skipped,NA,817954,NA,NA,817869,817954,2024-11-02T10:15:51Z,818374.44,NULL,NA,NA,NA,NA,NA,NA,NA,dfs,NA,8,NA,NA,NA,NA,NA,NA,NA,NA,NA,NA,NA,NA,NA,NA,NA,NA,NA,NA,NA
40881,check continue,flow.Sequence,3_0_9,NA,NA,skipped,NA,817975,NA,NA,817869,817975,2024-11-02T10:15:51Z,818374.44,NULL,NA,NA,NA,NA,NA,NA,NA,dsf,NA,9,NA,NA,NA,NA,NA,NA,NA,NA,NA,NA,NA,NA,NA,NA,NA,NA,NA,NA,NA
40881,check continue,flow.Sequence,3_0_10,NA,NA,skipped,NA,817997,NA,NA,817869,817997,2024-11-02T10:15:51Z,818374.44,NULL,NA,NA,NA,NA,NA,NA,NA,df,NA,10,NA,NA,NA,NA,NA,NA,NA,NA,NA,NA,NA,NA,NA,NA,NA,NA,NA,NA,NA
40881,check continue,flow.Sequence,3_0_11,NA,NA,skipped,NA,818016,NA,NA,817869,818016,2024-11-02T10:15:51Z,818374.44,NULL,NA,NA,NA,NA,NA,NA,NA,dfs,NA,11,NA,NA,NA,NA,NA,NA,NA,NA,NA,NA,NA,NA,NA,NA,NA,NA,NA,NA,NA
40881,check continue,flow.Sequence,3_0_12,NA,NA,skipped,NA,818036,NA,NA,817869,818036,2024-11-02T10:15:51Z,818374.44,NULL,NA,NA,NA,NA,NA,NA,NA,dsf,NA,12,NA,NA,NA,NA,NA,NA,NA,NA,NA,NA,NA,NA,NA,NA,NA,NA,NA,NA,NA
40881,check continue,flow.Sequence,3_0_13,NA,NA,skipped,NA,818056,NA,NA,817869,818056,2024-11-02T10:15:51Z,818374.44,NULL,NA,NA,NA,NA,NA,NA,NA,dsf,NA,13,NA,NA,NA,NA,NA,NA,NA,NA,NA,NA,NA,NA,NA,NA,NA,NA,NA,NA,NA
40881,check continue,flow.Sequence,3_0_14,NA,NA,skipped,NA,818077,NA,NA,817869,818077,2024-11-02T10:15:51Z,818374.44,NULL,NA,NA,NA,NA,NA,NA,NA,NA,NA,14,NA,NA,NA,NA,NA,NA,NA,NA,NA,NA,NA,NA,NA,NA,NA,NA,NA,NA,NA
40881,check continue,flow.Sequence,3_0_15,NA,NA,skipped,NA,818097,NA,NA,817869,818097,2024-11-02T10:15:51Z,818374.44,NULL,NA,NA,NA,NA,NA,NA,NA,NA,NA,15,NA,NA,NA,NA,NA,NA,NA,NA,NA,NA,NA,NA,NA,NA,NA,NA,NA,NA,NA
40881,check continue,flow.Sequence,3_0_16,NA,NA,skipped,NA,818115,NA,NA,817869,818115,2024-11-02T10:15:51Z,818374.44,NULL,NA,NA,NA,NA,NA,NA,NA,NA,NA,16,NA,NA,NA,NA,NA,NA,NA,NA,NA,NA,NA,NA,NA,NA,NA,NA,NA,NA,NA
40881,check continue,flow.Sequence,3_0_17,NA,NA,skipped,NA,818135,NA,NA,817869,818135,2024-11-02T10:15:51Z,818374.44,NULL,NA,NA,NA,NA,NA,NA,NA,NA,NA,17,NA,NA,NA,NA,NA,NA,NA,NA,NA,NA,NA,NA,NA,NA,NA,NA,NA,NA,NA
40881,check continue,flow.Sequence,3_0_18,NA,NA,skipped,NA,818154,NA,NA,817869,818154,2024-11-02T10:15:51Z,818374.44,NULL,NA,NA,NA,NA,NA,NA,NA,NA,NA,18,NA,NA,NA,NA,NA,NA,NA,NA,NA,NA,NA,NA,NA,NA,NA,NA,NA,NA,NA
40881,check continue,flow.Sequence,3_0_19,NA,NA,skipped,NA,818172,NA,NA,817869,818172,2024-11-02T10:15:51Z,818374.44,NULL,NA,NA,NA,NA,NA,NA,NA,NA,NA,19,NA,NA,NA,NA,NA,NA,NA,NA,NA,NA,NA,NA,NA,NA,NA,NA,NA,NA,NA
40881,check continue,flow.Sequence,3_0_20,NA,NA,skipped,NA,818191,NA,NA,817869,818191,2024-11-02T10:15:51Z,818374.44,NULL,NA,NA,NA,NA,NA,NA,NA,NA,NA,20,NA,NA,NA,NA,NA,NA,NA,NA,NA,NA,NA,NA,NA,NA,NA,NA,NA,NA,NA
40881,check continue,flow.Sequence,3_0_21,NA,NA,skipped,NA,818212,NA,NA,817869,818212,2024-11-02T10:15:51Z,818374.44,NULL,NA,NA,NA,NA,NA,NA,NA,NA,NA,21,NA,NA,NA,NA,NA,NA,NA,NA,NA,NA,NA,NA,NA,NA,NA,NA,NA,NA,NA
40881,check continue,flow.Sequence,3_0_22,NA,NA,skipped,NA,818235,NA,NA,817869,818235,2024-11-02T10:15:51Z,818374.44,NULL,NA,NA,NA,NA,NA,NA,NA,NA,NA,22,NA,NA,NA,NA,NA,NA,NA,NA,NA,NA,NA,NA,NA,NA,NA,NA,NA,NA,NA
40881,check continue,flow.Sequence,3_0_23,NA,NA,skipped,NA,818252,NA,NA,817869,818252,2024-11-02T10:15:51Z,818374.44,NULL,NA,NA,NA,NA,NA,NA,NA,NA,NA,23,NA,NA,NA,NA,NA,NA,NA,NA,NA,NA,NA,NA,NA,NA,NA,NA,NA,NA,NA
40881,check continue,flow.Sequence,3_0_24,NA,NA,skipped,NA,818271,NA,NA,817869,818271,2024-11-02T10:15:51Z,818374.44,NULL,NA,NA,NA,NA,NA,NA,NA,NA,NA,24,NA,NA,NA,NA,NA,NA,NA,NA,NA,NA,NA,NA,NA,NA,NA,NA,NA,NA,NA
40881,check continue,flow.Sequence,3_0_25,NA,NA,skipped,NA,818289,NA,NA,817869,818289,2024-11-02T10:15:51Z,818374.44,NULL,NA,NA,NA,NA,NA,NA,NA,NA,NA,25,NA,NA,NA,NA,NA,NA,NA,NA,NA,NA,NA,NA,NA,NA,NA,NA,NA,NA,NA
40881,check continue,flow.Sequence,3_0_26,NA,NA,skipped,NA,818307,NA,NA,817869,818307,2024-11-02T10:15:51Z,818374.44,NULL,NA,NA,NA,NA,NA,NA,NA,NA,NA,26,NA,NA,NA,NA,NA,NA,NA,NA,NA,NA,NA,NA,NA,NA,NA,NA,NA,NA,NA
40881,check continue,flow.Sequence,3_0_27,NA,NA,skipped,NA,818328,NA,NA,817869,818328,2024-11-02T10:15:51Z,818374.44,NULL,NA,NA,NA,NA,NA,NA,NA,NA,NA,27,NA,NA,NA,NA,NA,NA,NA,NA,NA,NA,NA,NA,NA,NA,NA,NA,NA,NA,NA
40881,check continue,flow.Sequence,3_0_28,NA,NA,skipped,NA,818346,NA,NA,817869,818346,2024-11-02T10:15:51Z,818374.44,NULL,NA,NA,NA,NA,NA,NA,NA,NA,NA,28,NA,NA,NA,NA,NA,NA,NA,NA,NA,NA,NA,NA,NA,NA,NA,NA,NA,NA,NA
40881,check continue,flow.Sequence,3_0_29,NA,NA,skipped,NA,818363,NA,NA,817869,818363,2024-11-02T10:15:51Z,818374.44,NULL,NA,NA,NA,NA,NA,NA,NA,NA,NA,29,NA,NA,NA,NA,NA,NA,NA,NA,NA,NA,NA,NA,NA,NA,NA,NA,NA,NA,NA
40881,until continue,flow.Loop,3_0,NA,NA,completion,543179.52,274656,274682.08,274689.48,817869,818363,2024-11-02T10:15:51Z,818374.44,NULL,NA,NA,NA,NA,NA,NA,NA,NA,NA,NA,NA,NA,NA,NA,NA,NA,NA,NA,NA,NA,NA,NA,NA,NA,NA,NA,NA,NA,NA
40881,block 1,flow.Sequence,3,NA,NA,completion,543179.52,274656,274682.08,274689.48,817869,818363,2024-11-02T10:15:51Z,818374.44,NULL,NA,NA,NA,NA,NA,NA,NA,NA,NA,NA,NA,NA,NA,NA,NA,NA,NA,NA,NA,NA,NA,NA,NA,NA,NA,NA,NA,NA,NA
40881,1.Part Over,canvas.Screen,4,NA,keypress(Space),response,2542.5600000001,818363,818363.52,818374.44,820917,820926,2024-11-02T10:15:54Z,820972.46,NULL,NA,NA,NA,NA,NA,NA,NA,NA,NA,NA,NA,NA,NA,NA,NA,NA,NA,NA,NA,NA,NA,NA,NA,NA,NA,NA,NA,NA,NA
40881,deep,flow.Sequence,5_0_0_0_0_0,NA,NA,skipped,NA,820967,NA,NA,820917,820967,2024-11-02T10:15:54Z,820972.46,NULL,Atmosphäre,angahewa,s,kuteseka,usahihi,kutoamini,NA,sdf,NA,0,NA,NA,NA,NA,NA,NA,NA,NA,NA,NA,NA,NA,NA,NA,NA,NA,NA,NA,NA
40881,Shallow Question,html.Page,5_0_0_0_0_1_0,NA,NA,form submission,4955.54,820967,820967.26,820972.46,825928,825929,2024-11-02T10:15:59Z,825934.92,NULL,Atmosphäre,angahewa,s,kuteseka,usahihi,kutoamini,usahihi,NA,NA,0,NA,NA,NA,NA,NA,NA,NA,NA,NA,NA,NA,NA,NA,NA,NA,NA,NA,NA,NA
40881,"""Richtig""-Screen",canvas.Screen,5_0_0_0_0_1_1,NA,NA,skipped,NA,825930,NA,NA,825928,825930,2024-11-02T10:15:59Z,825934.92,NULL,Atmosphäre,angahewa,s,kuteseka,usahihi,kutoamini,NA,sdf,NA,0,NA,NA,NA,NA,NA,NA,NA,NA,NA,NA,NA,NA,NA,NA,NA,NA,NA,NA,NA
40881,"""Falsch""-Screen",canvas.Screen,5_0_0_0_0_1_2,NA,NA,timeout,4996.1599999999,825931,825927.84,825934.92,830914.46,830915,2024-11-02T10:16:04Z,830931.08,NULL,Atmosphäre,angahewa,s,kuteseka,usahihi,kutoamini,NA,sdf,0,0,NA,NA,NA,NA,NA,NA,NA,NA,NA,NA,NA,NA,NA,NA,NA,NA,NA,NA,NA
40881,shallow,flow.Sequence,5_0_0_0_0_1,NA,NA,completion,9942,820967,820967.26,820972.46,830914.46,830915,2024-11-02T10:16:04Z,830931.08,NULL,Atmosphäre,angahewa,s,kuteseka,usahihi,kutoamini,NA,sdf,NA,0,NA,NA,NA,NA,NA,NA,NA,NA,NA,NA,NA,NA,NA,NA,NA,NA,NA,NA,NA
40881,task,flow.Sequence,5_0_0_0_0,NA,NA,completion,9942,820967,820967.26,820972.46,830914.46,830917,2024-11-02T10:16:04Z,830931.08,NULL,Atmosphäre,angahewa,s,kuteseka,usahihi,kutoamini,NA,sdf,NA,0,NA,NA,NA,NA,NA,NA,NA,NA,NA,NA,NA,NA,NA,NA,NA,NA,NA,NA,NA
40881,Deep Question,html.Page,5_0_0_0_1_0_0,NA,NA,form submission,3149.92,830917,830914.46,830931.08,834081,834081,2024-11-02T10:16:07Z,834094.82,NULL,Angreifer,mshambulizi,d,NA,NA,NA,ataka,NA,NA,0,NA,NA,NA,NA,NA,NA,NA,NA,NA,NA,NA,NA,NA,NA,NA,NA,NA,NA,NA
40881,"""Richtig""-Screen",canvas.Screen,5_0_0_0_1_0_1,NA,NA,skipped,NA,834081,NA,NA,834081,834081,2024-11-02T10:16:07Z,834094.82,NULL,Angreifer,mshambulizi,d,NA,NA,NA,NA,sdf,NA,0,NA,NA,NA,NA,NA,NA,NA,NA,NA,NA,NA,NA,NA,NA,NA,NA,NA,NA,NA
40881,"""Falsch""-Screen",canvas.Screen,5_0_0_0_1_0_2,NA,NA,timeout,4996,834082,834079.94,834094.82,839074.4,839075,2024-11-02T10:16:12Z,839090.82,NULL,Angreifer,mshambulizi,d,NA,NA,NA,NA,sdf,0,0,NA,NA,NA,NA,NA,NA,NA,NA,NA,NA,NA,NA,NA,NA,NA,NA,NA,NA,NA
40881,deep,flow.Sequence,5_0_0_0_1_0,NA,NA,completion,8143.3200000001,830917,830914.46,830931.08,839074.4,839076,2024-11-02T10:16:12Z,839090.82,NULL,Angreifer,mshambulizi,d,NA,NA,NA,NA,sdf,NA,0,NA,NA,NA,NA,NA,NA,NA,NA,NA,NA,NA,NA,NA,NA,NA,NA,NA,NA,NA
40881,shallow,flow.Sequence,5_0_0_0_1_1,NA,NA,skipped,NA,839076,NA,NA,839074.4,839076,2024-11-02T10:16:12Z,839090.82,NULL,Angreifer,mshambulizi,d,NA,NA,NA,NA,sdf,NA,0,NA,NA,NA,NA,NA,NA,NA,NA,NA,NA,NA,NA,NA,NA,NA,NA,NA,NA,NA
40881,task,flow.Sequence,5_0_0_0_1,NA,NA,completion,8143.3200000001,830917,830914.46,830931.08,839074.4,839077,2024-11-02T10:16:12Z,839090.82,NULL,Angreifer,mshambulizi,d,NA,NA,NA,NA,sdf,NA,0,NA,NA,NA,NA,NA,NA,NA,NA,NA,NA,NA,NA,NA,NA,NA,NA,NA,NA,NA
40881,Deep Question,html.Page,5_0_0_0_2_0_0,NA,NA,form submission,8179.1800000001,839077,839074.4,839090.82,847270,847271,2024-11-02T10:16:20Z,847283.96,NULL,Erneuerung,ukarabati,d,NA,NA,NA,unaiouno,NA,NA,0,NA,NA,NA,NA,NA,NA,NA,NA,NA,NA,NA,NA,NA,NA,NA,NA,NA,NA,NA
40881,"""Richtig""-Screen",canvas.Screen,5_0_0_0_2_0_1,NA,NA,skipped,NA,847272,NA,NA,847270,847272,2024-11-02T10:16:20Z,847283.96,NULL,Erneuerung,ukarabati,d,NA,NA,NA,NA,sdf,NA,0,NA,NA,NA,NA,NA,NA,NA,NA,NA,NA,NA,NA,NA,NA,NA,NA,NA,NA,NA
40881,"""Falsch""-Screen",canvas.Screen,5_0_0_0_2_0_2,NA,NA,timeout,4995.88,847273,847270.16,847283.96,852263.48,852266,2024-11-02T10:16:25Z,852279.84,NULL,Erneuerung,ukarabati,d,NA,NA,NA,NA,sdf,0,0,NA,NA,NA,NA,NA,NA,NA,NA,NA,NA,NA,NA,NA,NA,NA,NA,NA,NA,NA
40881,deep,flow.Sequence,5_0_0_0_2_0,NA,NA,completion,13172.66,839077,839074.4,839090.82,852263.48,852268,2024-11-02T10:16:25Z,852279.84,NULL,Erneuerung,ukarabati,d,NA,NA,NA,NA,sdf,NA,0,NA,NA,NA,NA,NA,NA,NA,NA,NA,NA,NA,NA,NA,NA,NA,NA,NA,NA,NA
40881,shallow,flow.Sequence,5_0_0_0_2_1,NA,NA,skipped,NA,852268,NA,NA,852263.48,852268,2024-11-02T10:16:25Z,852279.84,NULL,Erneuerung,ukarabati,d,NA,NA,NA,NA,sdf,NA,0,NA,NA,NA,NA,NA,NA,NA,NA,NA,NA,NA,NA,NA,NA,NA,NA,NA,NA,NA
40881,task,flow.Sequence,5_0_0_0_2,NA,NA,completion,13172.66,839077,839074.4,839090.82,852263.48,852269,2024-11-02T10:16:25Z,852279.84,NULL,Erneuerung,ukarabati,d,NA,NA,NA,NA,sdf,NA,0,NA,NA,NA,NA,NA,NA,NA,NA,NA,NA,NA,NA,NA,NA,NA,NA,NA,NA,NA
40881,deep,flow.Sequence,5_0_0_0_3_0,NA,NA,skipped,NA,852269,NA,NA,852263.48,852269,2024-11-02T10:16:25Z,852279.84,NULL,Kanzler,diwani,s,rasilmali,mahitaji,maabudu,NA,sdf,NA,0,NA,NA,NA,NA,NA,NA,NA,NA,NA,NA,NA,NA,NA,NA,NA,NA,NA,NA,NA
40881,Shallow Question,html.Page,5_0_0_0_3_1_0,NA,NA,form submission,5596.16,852269,852263.48,852279.84,857876,857877,2024-11-02T10:16:31Z,857892.04,NULL,Kanzler,diwani,s,rasilmali,mahitaji,maabudu,maabudu,NA,NA,0,NA,NA,NA,NA,NA,NA,NA,NA,NA,NA,NA,NA,NA,NA,NA,NA,NA,NA,NA
40881,"""Richtig""-Screen",canvas.Screen,5_0_0_0_3_1_1,NA,NA,skipped,NA,857879,NA,NA,857876,857879,2024-11-02T10:16:31Z,857892.04,NULL,Kanzler,diwani,s,rasilmali,mahitaji,maabudu,NA,sdf,NA,0,NA,NA,NA,NA,NA,NA,NA,NA,NA,NA,NA,NA,NA,NA,NA,NA,NA,NA,NA
40881,"""Falsch""-Screen",canvas.Screen,5_0_0_0_3_1_2,NA,NA,timeout,4995.7799999999,857880,857875.38,857892.04,862871.16,862874,2024-11-02T10:16:36Z,862887.82,NULL,Kanzler,diwani,s,rasilmali,mahitaji,maabudu,NA,sdf,0,0,NA,NA,NA,NA,NA,NA,NA,NA,NA,NA,NA,NA,NA,NA,NA,NA,NA,NA,NA
