observation,sender,sender_type,sender_id,response,response_action,ended_on,duration,time_run,time_render,time_show,time_end,time_commit,timestamp,time_switch,distractors,german,swahili,enc,distractor1,distractor2,distractor3,response_2,x,correct,x_2,url_vp,url_sess,meta_labjs_version,meta_location,meta_user_agent,meta_platform,meta_language,meta_locale,meta_time_zone,meta_timezone_offset,meta_screen_width,meta_screen_height,meta_scroll_width,meta_scroll_height,meta_window_inner_width,meta_window_inner_height,meta_device_pixel_ratio,meta_labjs_build_flavor,meta_labjs_build_commit
96de1,Introduction general,canvas.Screen,0,weiter,keypress(q),response,1949049.12,1068,1068.18,1084.88,1950134,1950155,2024-11-23T11:03:32Z,1950160.36,NULL,NA,NA,NA,NA,NA,NA,NA,NA,NA,NA,165,3,20.2.4,https://neurocog.fernuni.ch/studies/vweber/encoding_immediate/index.html?vp=165&sess=3,Mozilla/5.0 (Windows NT 10.0; Win64; x64; rv:132.0) Gecko/20100101 Firefox/132.0,Win32,de,de-CH,Europe/Zurich,-60,1920,1080,1920,871,1920,919,1,production,f5b4a49f956347addd546a832a3327688c2c0fef
96de1,Introduction practice,canvas.Screen,1_0,NA,keypress(Space),response,6786.6399999999,1950157,1950156.62,1950160.36,1956947,1956969,2024-11-23T11:03:39Z,1956971.48,NULL,NA,NA,NA,NA,NA,NA,NA,NA,NA,NA,NA,NA,NA,NA,NA,NA,NA,NA,NA,NA,NA,NA,NA,NA,NA,NA,NA,NA,NA
96de1,deep,flow.Sequence,1_1_0_0,NA,NA,skipped,NA,1956969,NA,NA,1956947,1956969,2024-11-23T11:03:39Z,1956971.48,"c(""distractor1"", ""distractor2"", ""distractor3"")",Rückhalt,msaada,s,muhula,auwali,kiwimbe,NA,NA,NA,NA,NA,NA,NA,NA,NA,NA,NA,NA,NA,NA,NA,NA,NA,NA,NA,NA,NA,NA,NA
96de1,Shallow Question,html.Page,1_1_0_1_0,NA,NA,form submission,8298.52,1956970,1956970.5,1956971.48,1965270,1965271,2024-11-23T11:03:47Z,1965281,"c(""distractor1"", ""distractor2"", ""distractor3"")",Rückhalt,msaada,s,muhula,auwali,kiwimbe,kiwimbe,NA,NA,NA,NA,NA,NA,NA,NA,NA,NA,NA,NA,NA,NA,NA,NA,NA,NA,NA,NA,NA,NA
96de1,"""Richtig""-Screen",canvas.Screen,1_1_0_1_1,NA,NA,skipped,NA,1965274,NA,NA,1965270,1965274,2024-11-23T11:03:47Z,1965281,"c(""distractor1"", ""distractor2"", ""distractor3"")",Rückhalt,msaada,s,muhula,auwali,kiwimbe,NA,NA,NA,NA,NA,NA,NA,NA,NA,NA,NA,NA,NA,NA,NA,NA,NA,NA,NA,NA,NA,NA,NA
96de1,"""Falsch""-Screen",canvas.Screen,1_1_0_1_2,NA,NA,timeout,4996.1599999999,1965275,1965268.3,1965281,1970260.5,1970261,2024-11-23T11:03:52Z,1970277.16,"c(""distractor1"", ""distractor2"", ""distractor3"")",Rückhalt,msaada,s,muhula,auwali,kiwimbe,NA,NA,0,NA,NA,NA,NA,NA,NA,NA,NA,NA,NA,NA,NA,NA,NA,NA,NA,NA,NA,NA,NA
96de1,shallow,flow.Sequence,1_1_0_1,NA,NA,completion,13289.02,1956970,1956970.5,1956971.48,1970260.5,1970263,2024-11-23T11:03:52Z,1970277.16,"c(""distractor1"", ""distractor2"", ""distractor3"")",Rückhalt,msaada,s,muhula,auwali,kiwimbe,NA,NA,NA,NA,NA,NA,NA,NA,NA,NA,NA,NA,NA,NA,NA,NA,NA,NA,NA,NA,NA,NA,NA
96de1,task,flow.Sequence,1_1_0,NA,NA,completion,13289.02,1956969,1956970.5,1956971.48,1970260.5,1970263,2024-11-23T11:03:52Z,1970277.16,"c(""distractor1"", ""distractor2"", ""distractor3"")",Rückhalt,msaada,s,muhula,auwali,kiwimbe,NA,NA,NA,NA,NA,NA,NA,NA,NA,NA,NA,NA,NA,NA,NA,NA,NA,NA,NA,NA,NA,NA,NA
96de1,Deep Question,html.Page,1_1_1_0_0,NA,NA,form submission,9686.8400000001,1970264,1970260.5,1970277.16,1979964,1979965,2024-11-23T11:04:02Z,1979969.14,"c(""distractor1"", ""distractor2"", ""distractor3"")",Gesundheit,salama,d,NA,NA,NA,mbabe,NA,NA,NA,NA,NA,NA,NA,NA,NA,NA,NA,NA,NA,NA,NA,NA,NA,NA,NA,NA,NA,NA
96de1,"""Richtig""-Screen",canvas.Screen,1_1_1_0_1,NA,NA,skipped,NA,1979966,NA,NA,1979964,1979966,2024-11-23T11:04:02Z,1979969.14,"c(""distractor1"", ""distractor2"", ""distractor3"")",Gesundheit,salama,d,NA,NA,NA,NA,NA,NA,NA,NA,NA,NA,NA,NA,NA,NA,NA,NA,NA,NA,NA,NA,NA,NA,NA,NA,NA,NA
96de1,"""Falsch""-Screen",canvas.Screen,1_1_1_0_2,NA,NA,timeout,4996.1000000001,1979968,1979963.5,1979969.14,1984948.54,1984950,2024-11-23T11:04:07Z,1984965.24,"c(""distractor1"", ""distractor2"", ""distractor3"")",Gesundheit,salama,d,NA,NA,NA,NA,NA,0,NA,NA,NA,NA,NA,NA,NA,NA,NA,NA,NA,NA,NA,NA,NA,NA,NA,NA,NA,NA
96de1,deep,flow.Sequence,1_1_1_0,NA,NA,completion,14671.38,1970264,1970260.5,1970277.16,1984948.54,1984951,2024-11-23T11:04:07Z,1984965.24,"c(""distractor1"", ""distractor2"", ""distractor3"")",Gesundheit,salama,d,NA,NA,NA,NA,NA,NA,NA,NA,NA,NA,NA,NA,NA,NA,NA,NA,NA,NA,NA,NA,NA,NA,NA,NA,NA,NA
96de1,shallow,flow.Sequence,1_1_1_1,NA,NA,skipped,NA,1984951,NA,NA,1984948.54,1984951,2024-11-23T11:04:07Z,1984965.24,"c(""distractor1"", ""distractor2"", ""distractor3"")",Gesundheit,salama,d,NA,NA,NA,NA,NA,NA,NA,NA,NA,NA,NA,NA,NA,NA,NA,NA,NA,NA,NA,NA,NA,NA,NA,NA,NA,NA
96de1,task,flow.Sequence,1_1_1,NA,NA,completion,14671.38,1970264,1970260.5,1970277.16,1984948.54,1984951,2024-11-23T11:04:07Z,1984965.24,"c(""distractor1"", ""distractor2"", ""distractor3"")",Gesundheit,salama,d,NA,NA,NA,NA,NA,NA,NA,NA,NA,NA,NA,NA,NA,NA,NA,NA,NA,NA,NA,NA,NA,NA,NA,NA,NA,NA
96de1,deep,flow.Sequence,1_1_2_0,NA,NA,skipped,NA,1984952,NA,NA,1984948.54,1984952,2024-11-23T11:04:07Z,1984965.24,"c(""distractor1"", ""distractor2"", ""distractor3"")",Gegenwart,hadhara,s,katiba,jokofu,mikopo,NA,NA,NA,NA,NA,NA,NA,NA,NA,NA,NA,NA,NA,NA,NA,NA,NA,NA,NA,NA,NA,NA,NA
96de1,Shallow Question,html.Page,1_1_2_1_0,NA,NA,form submission,7458.76,1984952,1984948.54,1984965.24,1992424,1992425,2024-11-23T11:04:14Z,1992425.56,"c(""distractor1"", ""distractor2"", ""distractor3"")",Gegenwart,hadhara,s,katiba,jokofu,mikopo,jokofu,NA,NA,NA,NA,NA,NA,NA,NA,NA,NA,NA,NA,NA,NA,NA,NA,NA,NA,NA,NA,NA,NA
96de1,"""Richtig""-Screen",canvas.Screen,1_1_2_1_1,NA,NA,skipped,NA,1992430,NA,NA,1992424,1992431,2024-11-23T11:04:14Z,1992425.56,"c(""distractor1"", ""distractor2"", ""distractor3"")",Gegenwart,hadhara,s,katiba,jokofu,mikopo,NA,NA,NA,NA,NA,NA,NA,NA,NA,NA,NA,NA,NA,NA,NA,NA,NA,NA,NA,NA,NA,NA,NA
96de1,"""Falsch""-Screen",canvas.Screen,1_1_2_1_2,NA,NA,timeout,4995.96,1992433,1992421.6,1992425.56,1997404.8,1997406,2024-11-23T11:04:19Z,1997421.52,"c(""distractor1"", ""distractor2"", ""distractor3"")",Gegenwart,hadhara,s,katiba,jokofu,mikopo,NA,NA,0,NA,NA,NA,NA,NA,NA,NA,NA,NA,NA,NA,NA,NA,NA,NA,NA,NA,NA,NA,NA
96de1,shallow,flow.Sequence,1_1_2_1,NA,NA,completion,12439.56,1984952,1984948.54,1984965.24,1997404.8,1997406,2024-11-23T11:04:19Z,1997421.52,"c(""distractor1"", ""distractor2"", ""distractor3"")",Gegenwart,hadhara,s,katiba,jokofu,mikopo,NA,NA,NA,NA,NA,NA,NA,NA,NA,NA,NA,NA,NA,NA,NA,NA,NA,NA,NA,NA,NA,NA,NA
96de1,task,flow.Sequence,1_1_2,NA,NA,completion,12439.56,1984952,1984948.54,1984965.24,1997404.8,1997406,2024-11-23T11:04:19Z,1997421.52,"c(""distractor1"", ""distractor2"", ""distractor3"")",Gegenwart,hadhara,s,katiba,jokofu,mikopo,NA,NA,NA,NA,NA,NA,NA,NA,NA,NA,NA,NA,NA,NA,NA,NA,NA,NA,NA,NA,NA,NA,NA
96de1,Deep Question,html.Page,1_1_3_0_0,NA,NA,form submission,4227.48,1997407,1997404.8,1997421.52,2001649,2001650,2024-11-23T11:04:23Z,2001651.22,"c(""distractor1"", ""distractor2"", ""distractor3"")",Qualität,mtindo,d,NA,NA,NA,suwumba,NA,NA,NA,NA,NA,NA,NA,NA,NA,NA,NA,NA,NA,NA,NA,NA,NA,NA,NA,NA,NA,NA
96de1,"""Richtig""-Screen",canvas.Screen,1_1_3_0_1,NA,NA,skipped,NA,2001651,NA,NA,2001649,2001651,2024-11-23T11:04:23Z,2001651.22,"c(""distractor1"", ""distractor2"", ""distractor3"")",Qualität,mtindo,d,NA,NA,NA,NA,NA,NA,NA,NA,NA,NA,NA,NA,NA,NA,NA,NA,NA,NA,NA,NA,NA,NA,NA,NA,NA,NA
96de1,"""Falsch""-Screen",canvas.Screen,1_1_3_0_2,NA,NA,timeout,4996.2,2001653,2001648.34,2001651.22,2006630.74,2006631,2024-11-23T11:04:28Z,2006647.42,"c(""distractor1"", ""distractor2"", ""distractor3"")",Qualität,mtindo,d,NA,NA,NA,NA,NA,0,NA,NA,NA,NA,NA,NA,NA,NA,NA,NA,NA,NA,NA,NA,NA,NA,NA,NA,NA,NA
96de1,deep,flow.Sequence,1_1_3_0,NA,NA,completion,9209.22,1997407,1997404.8,1997421.52,2006630.74,2006632,2024-11-23T11:04:28Z,2006647.42,"c(""distractor1"", ""distractor2"", ""distractor3"")",Qualität,mtindo,d,NA,NA,NA,NA,NA,NA,NA,NA,NA,NA,NA,NA,NA,NA,NA,NA,NA,NA,NA,NA,NA,NA,NA,NA,NA,NA
96de1,shallow,flow.Sequence,1_1_3_1,NA,NA,skipped,NA,2006632,NA,NA,2006630.74,2006632,2024-11-23T11:04:28Z,2006647.42,"c(""distractor1"", ""distractor2"", ""distractor3"")",Qualität,mtindo,d,NA,NA,NA,NA,NA,NA,NA,NA,NA,NA,NA,NA,NA,NA,NA,NA,NA,NA,NA,NA,NA,NA,NA,NA,NA,NA
96de1,task,flow.Sequence,1_1_3,NA,NA,completion,9209.22,1997407,1997404.8,1997421.52,2006630.74,2006633,2024-11-23T11:04:28Z,2006647.42,"c(""distractor1"", ""distractor2"", ""distractor3"")",Qualität,mtindo,d,NA,NA,NA,NA,NA,NA,NA,NA,NA,NA,NA,NA,NA,NA,NA,NA,NA,NA,NA,NA,NA,NA,NA,NA,NA,NA
96de1,deep,flow.Sequence,1_1_4_0,NA,NA,skipped,NA,2006634,NA,NA,2006630.74,2006634,2024-11-23T11:04:28Z,2006647.42,"c(""distractor1"", ""distractor2"", ""distractor3"")",Kritik,lawama,s,dereva,nafasi,mawazo,NA,NA,NA,NA,NA,NA,NA,NA,NA,NA,NA,NA,NA,NA,NA,NA,NA,NA,NA,NA,NA,NA,NA
96de1,Shallow Question,html.Page,1_1_4_1_0,NA,NA,form submission,7322.5800000001,2006634,2006630.74,2006647.42,2013970,2013970,2024-11-23T11:04:36Z,2013974.32,"c(""distractor1"", ""distractor2"", ""distractor3"")",Kritik,lawama,s,dereva,nafasi,mawazo,mawazo,NA,NA,NA,NA,NA,NA,NA,NA,NA,NA,NA,NA,NA,NA,NA,NA,NA,NA,NA,NA,NA,NA
96de1,"""Richtig""-Screen",canvas.Screen,1_1_4_1_1,NA,NA,skipped,NA,2013972,NA,NA,2013970,2013972,2024-11-23T11:04:36Z,2013974.32,"c(""distractor1"", ""distractor2"", ""distractor3"")",Kritik,lawama,s,dereva,nafasi,mawazo,NA,NA,NA,NA,NA,NA,NA,NA,NA,NA,NA,NA,NA,NA,NA,NA,NA,NA,NA,NA,NA,NA,NA
96de1,"""Falsch""-Screen",canvas.Screen,1_1_4_1_2,NA,NA,timeout,4996.22,2013973,2013969.12,2013974.32,2018954,2018955,2024-11-23T11:04:41Z,2018970.54,"c(""distractor1"", ""distractor2"", ""distractor3"")",Kritik,lawama,s,dereva,nafasi,mawazo,NA,NA,0,NA,NA,NA,NA,NA,NA,NA,NA,NA,NA,NA,NA,NA,NA,NA,NA,NA,NA,NA,NA
96de1,shallow,flow.Sequence,1_1_4_1,NA,NA,completion,12306.58,2006634,2006630.74,2006647.42,2018954,2018955,2024-11-23T11:04:41Z,2018970.54,"c(""distractor1"", ""distractor2"", ""distractor3"")",Kritik,lawama,s,dereva,nafasi,mawazo,NA,NA,NA,NA,NA,NA,NA,NA,NA,NA,NA,NA,NA,NA,NA,NA,NA,NA,NA,NA,NA,NA,NA
96de1,task,flow.Sequence,1_1_4,NA,NA,completion,12306.58,2006634,2006630.74,2006647.42,2018954,2018956,2024-11-23T11:04:41Z,2018970.54,"c(""distractor1"", ""distractor2"", ""distractor3"")",Kritik,lawama,s,dereva,nafasi,mawazo,NA,NA,NA,NA,NA,NA,NA,NA,NA,NA,NA,NA,NA,NA,NA,NA,NA,NA,NA,NA,NA,NA,NA
96de1,Deep Question,html.Page,1_1_5_0_0,NA,NA,form submission,3977.46,2018956,2018954,2018970.54,2022948,2022948,2024-11-23T11:04:45Z,2022950.32,"c(""distractor1"", ""distractor2"", ""distractor3"")",Schatten,kivuli,d,NA,NA,NA,sulu,NA,NA,NA,NA,NA,NA,NA,NA,NA,NA,NA,NA,NA,NA,NA,NA,NA,NA,NA,NA,NA,NA
96de1,"""Richtig""-Screen",canvas.Screen,1_1_5_0_1,NA,NA,skipped,NA,2022950,NA,NA,2022948,2022950,2024-11-23T11:04:45Z,2022950.32,"c(""distractor1"", ""distractor2"", ""distractor3"")",Schatten,kivuli,d,NA,NA,NA,NA,NA,NA,NA,NA,NA,NA,NA,NA,NA,NA,NA,NA,NA,NA,NA,NA,NA,NA,NA,NA,NA,NA
96de1,"""Falsch""-Screen",canvas.Screen,1_1_5_0_2,NA,NA,timeout,4996.04,2022951,2022947.08,2022950.32,2027929.64,2027931,2024-11-23T11:04:49Z,2027946.36,"c(""distractor1"", ""distractor2"", ""distractor3"")",Schatten,kivuli,d,NA,NA,NA,NA,NA,0,NA,NA,NA,NA,NA,NA,NA,NA,NA,NA,NA,NA,NA,NA,NA,NA,NA,NA,NA,NA
96de1,deep,flow.Sequence,1_1_5_0,NA,NA,completion,8959.0999999999,2018956,2018954,2018970.54,2027929.64,2027931,2024-11-23T11:04:49Z,2027946.36,"c(""distractor1"", ""distractor2"", ""distractor3"")",Schatten,kivuli,d,NA,NA,NA,NA,NA,NA,NA,NA,NA,NA,NA,NA,NA,NA,NA,NA,NA,NA,NA,NA,NA,NA,NA,NA,NA,NA
96de1,shallow,flow.Sequence,1_1_5_1,NA,NA,skipped,NA,2027931,NA,NA,2027929.64,2027931,2024-11-23T11:04:49Z,2027946.36,"c(""distractor1"", ""distractor2"", ""distractor3"")",Schatten,kivuli,d,NA,NA,NA,NA,NA,NA,NA,NA,NA,NA,NA,NA,NA,NA,NA,NA,NA,NA,NA,NA,NA,NA,NA,NA,NA,NA
96de1,task,flow.Sequence,1_1_5,NA,NA,completion,8959.0999999999,2018956,2018954,2018970.54,2027929.64,2027932,2024-11-23T11:04:49Z,2027946.36,"c(""distractor1"", ""distractor2"", ""distractor3"")",Schatten,kivuli,d,NA,NA,NA,NA,NA,NA,NA,NA,NA,NA,NA,NA,NA,NA,NA,NA,NA,NA,NA,NA,NA,NA,NA,NA,NA,NA
96de1,block,flow.Loop,1_1,NA,NA,completion,70958.16,1956969,1956970.5,1956971.48,2027929.64,2027932,2024-11-23T11:04:49Z,2027946.36,"c(""distractor1"", ""distractor2"", ""distractor3"")",NA,NA,NA,NA,NA,NA,NA,NA,NA,NA,NA,NA,NA,NA,NA,NA,NA,NA,NA,NA,NA,NA,NA,NA,NA,NA,NA,NA,NA
96de1,Practice,flow.Sequence,1,NA,NA,completion,77769.28,1950157,1950156.62,1950160.36,2027929.64,2027932,2024-11-23T11:04:49Z,2027946.36,NULL,NA,NA,NA,NA,NA,NA,NA,NA,NA,NA,NA,NA,NA,NA,NA,NA,NA,NA,NA,NA,NA,NA,NA,NA,NA,NA,NA,NA,NA
96de1,Experiment start,canvas.Screen,2,weiter,keypress(q),response,8936.6399999999,2027933,2027929.64,2027946.36,2036883,2036911,2024-11-23T11:04:58Z,2036988.7,NULL,NA,NA,NA,NA,NA,NA,NA,NA,NA,NA,NA,NA,NA,NA,NA,NA,NA,NA,NA,NA,NA,NA,NA,NA,NA,NA,NA,NA,NA
96de1,Deep Question,html.Page,3_0_0_0_0_0_0,NA,NA,form submission,5075.3,2036984,2036983.34,2036988.7,2042064,2042064,2024-11-23T11:05:04Z,2042067.9,NULL,Inhalt,yaliyomo,d,NA,NA,NA,salambi,NA,NA,0,NA,NA,NA,NA,NA,NA,NA,NA,NA,NA,NA,NA,NA,NA,NA,NA,NA,NA,NA
96de1,"""Richtig""-Screen",canvas.Screen,3_0_0_0_0_0_1,NA,NA,skipped,NA,2042066,NA,NA,2042064,2042066,2024-11-23T11:05:04Z,2042067.9,NULL,Inhalt,yaliyomo,d,NA,NA,NA,NA,sdf,NA,0,NA,NA,NA,NA,NA,NA,NA,NA,NA,NA,NA,NA,NA,NA,NA,NA,NA,NA,NA
96de1,"""Falsch""-Screen",canvas.Screen,3_0_0_0_0_0_2,NA,NA,timeout,4996,2042067,2042062.62,2042067.9,2047047.2,2047049,2024-11-23T11:05:09Z,2047063.9,NULL,Inhalt,yaliyomo,d,NA,NA,NA,NA,sdf,0,0,NA,NA,NA,NA,NA,NA,NA,NA,NA,NA,NA,NA,NA,NA,NA,NA,NA,NA,NA
96de1,deep,flow.Sequence,3_0_0_0_0_0,NA,NA,completion,10058.5,2036984,2036983.34,2036988.7,2047047.2,2047049,2024-11-23T11:05:09Z,2047063.9,NULL,Inhalt,yaliyomo,d,NA,NA,NA,NA,sdf,NA,0,NA,NA,NA,NA,NA,NA,NA,NA,NA,NA,NA,NA,NA,NA,NA,NA,NA,NA,NA
96de1,shallow,flow.Sequence,3_0_0_0_0_1,NA,NA,skipped,NA,2047049,NA,NA,2047047.2,2047050,2024-11-23T11:05:09Z,2047063.9,NULL,Inhalt,yaliyomo,d,NA,NA,NA,NA,sdf,NA,0,NA,NA,NA,NA,NA,NA,NA,NA,NA,NA,NA,NA,NA,NA,NA,NA,NA,NA,NA
96de1,task,flow.Sequence,3_0_0_0_0,NA,NA,completion,10058.5,2036984,2036983.34,2036988.7,2047047.2,2047050,2024-11-23T11:05:09Z,2047063.9,NULL,Inhalt,yaliyomo,d,NA,NA,NA,NA,sdf,NA,0,NA,NA,NA,NA,NA,NA,NA,NA,NA,NA,NA,NA,NA,NA,NA,NA,NA,NA,NA
96de1,deep,flow.Sequence,3_0_0_0_1_0,NA,NA,skipped,NA,2047051,NA,NA,2047047.2,2047051,2024-11-23T11:05:09Z,2047063.9,NULL,Sympathie,mapendano,s,dhamiria,fungamano,maazimio,NA,sdf,NA,0,NA,NA,NA,NA,NA,NA,NA,NA,NA,NA,NA,NA,NA,NA,NA,NA,NA,NA,NA
96de1,Shallow Question,html.Page,3_0_0_0_1_1_0,NA,NA,form submission,10729.1,2047051,2047047.2,2047063.9,2057793,2057794,2024-11-23T11:05:19Z,2057804.98,NULL,Sympathie,mapendano,s,dhamiria,fungamano,maazimio,fungamano,NA,NA,0,NA,NA,NA,NA,NA,NA,NA,NA,NA,NA,NA,NA,NA,NA,NA,NA,NA,NA,NA
96de1,"""Richtig""-Screen",canvas.Screen,3_0_0_0_1_1_1,NA,NA,skipped,NA,2057798,NA,NA,2057793,2057799,2024-11-23T11:05:19Z,2057804.98,NULL,Sympathie,mapendano,s,dhamiria,fungamano,maazimio,NA,sdf,NA,0,NA,NA,NA,NA,NA,NA,NA,NA,NA,NA,NA,NA,NA,NA,NA,NA,NA,NA,NA
96de1,"""Falsch""-Screen",canvas.Screen,3_0_0_0_1_1_2,NA,NA,timeout,4996.0600000001,2057803,2057790.44,2057804.98,2062784.32,2062786,2024-11-23T11:05:24Z,2062801.04,NULL,Sympathie,mapendano,s,dhamiria,fungamano,maazimio,NA,sdf,0,0,NA,NA,NA,NA,NA,NA,NA,NA,NA,NA,NA,NA,NA,NA,NA,NA,NA,NA,NA
96de1,shallow,flow.Sequence,3_0_0_0_1_1,NA,NA,completion,15720.42,2047051,2047047.2,2047063.9,2062784.32,2062787,2024-11-23T11:05:24Z,2062801.04,NULL,Sympathie,mapendano,s,dhamiria,fungamano,maazimio,NA,sdf,NA,0,NA,NA,NA,NA,NA,NA,NA,NA,NA,NA,NA,NA,NA,NA,NA,NA,NA,NA,NA
96de1,task,flow.Sequence,3_0_0_0_1,NA,NA,completion,15720.42,2047050,2047047.2,2047063.9,2062784.32,2062787,2024-11-23T11:05:24Z,2062801.04,NULL,Sympathie,mapendano,s,dhamiria,fungamano,maazimio,NA,sdf,NA,0,NA,NA,NA,NA,NA,NA,NA,NA,NA,NA,NA,NA,NA,NA,NA,NA,NA,NA,NA
96de1,Deep Question,html.Page,3_0_0_0_2_0_0,NA,NA,form submission,3519.96,2062788,2062784.32,2062801.04,2066321,2066322,2024-11-23T11:05:28Z,2066331.14,NULL,Beweis,ushahidi,d,NA,NA,NA,simba,NA,NA,0,NA,NA,NA,NA,NA,NA,NA,NA,NA,NA,NA,NA,NA,NA,NA,NA,NA,NA,NA
96de1,"""Richtig""-Screen",canvas.Screen,3_0_0_0_2_0_1,NA,NA,skipped,NA,2066323,NA,NA,2066321,2066323,2024-11-23T11:05:28Z,2066331.14,NULL,Beweis,ushahidi,d,NA,NA,NA,NA,sdf,NA,0,NA,NA,NA,NA,NA,NA,NA,NA,NA,NA,NA,NA,NA,NA,NA,NA,NA,NA,NA
96de1,"""Falsch""-Screen",canvas.Screen,3_0_0_0_2_0_2,NA,NA,timeout,4996.28,2066325,2066320.68,2066331.14,2071310.7,2071311,2024-11-23T11:05:33Z,2071327.42,NULL,Beweis,ushahidi,d,NA,NA,NA,NA,sdf,0,0,NA,NA,NA,NA,NA,NA,NA,NA,NA,NA,NA,NA,NA,NA,NA,NA,NA,NA,NA
96de1,deep,flow.Sequence,3_0_0_0_2_0,NA,NA,completion,8509.6599999999,2062788,2062784.32,2062801.04,2071310.7,2071311,2024-11-23T11:05:33Z,2071327.42,NULL,Beweis,ushahidi,d,NA,NA,NA,NA,sdf,NA,0,NA,NA,NA,NA,NA,NA,NA,NA,NA,NA,NA,NA,NA,NA,NA,NA,NA,NA,NA
96de1,shallow,flow.Sequence,3_0_0_0_2_1,NA,NA,skipped,NA,2071311,NA,NA,2071310.7,2071311,2024-11-23T11:05:33Z,2071327.42,NULL,Beweis,ushahidi,d,NA,NA,NA,NA,sdf,NA,0,NA,NA,NA,NA,NA,NA,NA,NA,NA,NA,NA,NA,NA,NA,NA,NA,NA,NA,NA
96de1,task,flow.Sequence,3_0_0_0_2,NA,NA,completion,8509.6599999999,2062787,2062784.32,2062801.04,2071310.7,2071312,2024-11-23T11:05:33Z,2071327.42,NULL,Beweis,ushahidi,d,NA,NA,NA,NA,sdf,NA,0,NA,NA,NA,NA,NA,NA,NA,NA,NA,NA,NA,NA,NA,NA,NA,NA,NA,NA,NA
96de1,Deep Question,html.Page,3_0_0_0_3_0_0,NA,NA,form submission,4673.5800000001,2071312,2071310.7,2071327.42,2076001,2076001,2024-11-23T11:05:38Z,2076006.58,NULL,Vermutung,udhanifu,d,NA,NA,NA,bumbu,NA,NA,0,NA,NA,NA,NA,NA,NA,NA,NA,NA,NA,NA,NA,NA,NA,NA,NA,NA,NA,NA
96de1,"""Richtig""-Screen",canvas.Screen,3_0_0_0_3_0_1,NA,NA,skipped,NA,2076004,NA,NA,2076001,2076004,2024-11-23T11:05:38Z,2076006.58,NULL,Vermutung,udhanifu,d,NA,NA,NA,NA,sdf,NA,0,NA,NA,NA,NA,NA,NA,NA,NA,NA,NA,NA,NA,NA,NA,NA,NA,NA,NA,NA
96de1,"""Falsch""-Screen",canvas.Screen,3_0_0_0_3_0_2,NA,NA,timeout,4996,2076005,2076000.56,2076006.58,2080985.86,2080987,2024-11-23T11:05:43Z,2081002.58,NULL,Vermutung,udhanifu,d,NA,NA,NA,NA,sdf,0,0,NA,NA,NA,NA,NA,NA,NA,NA,NA,NA,NA,NA,NA,NA,NA,NA,NA,NA,NA
96de1,deep,flow.Sequence,3_0_0_0_3_0,NA,NA,completion,9658.4400000002,2071312,2071310.7,2071327.42,2080985.86,2080988,2024-11-23T11:05:43Z,2081002.58,NULL,Vermutung,udhanifu,d,NA,NA,NA,NA,sdf,NA,0,NA,NA,NA,NA,NA,NA,NA,NA,NA,NA,NA,NA,NA,NA,NA,NA,NA,NA,NA
96de1,shallow,flow.Sequence,3_0_0_0_3_1,NA,NA,skipped,NA,2080988,NA,NA,2080985.86,2080988,2024-11-23T11:05:43Z,2081002.58,NULL,Vermutung,udhanifu,d,NA,NA,NA,NA,sdf,NA,0,NA,NA,NA,NA,NA,NA,NA,NA,NA,NA,NA,NA,NA,NA,NA,NA,NA,NA,NA
96de1,task,flow.Sequence,3_0_0_0_3,NA,NA,completion,9658.4400000002,2071312,2071310.7,2071327.42,2080985.86,2080989,2024-11-23T11:05:43Z,2081002.58,NULL,Vermutung,udhanifu,d,NA,NA,NA,NA,sdf,NA,0,NA,NA,NA,NA,NA,NA,NA,NA,NA,NA,NA,NA,NA,NA,NA,NA,NA,NA,NA
96de1,deep,flow.Sequence,3_0_0_0_4_0,NA,NA,skipped,NA,2080989,NA,NA,2080985.86,2080989,2024-11-23T11:05:43Z,2081002.58,NULL,Toleranz,kuvumiliana,s,maombolezo,ujasusi,mchekeshaji,NA,sdf,NA,0,NA,NA,NA,NA,NA,NA,NA,NA,NA,NA,NA,NA,NA,NA,NA,NA,NA,NA,NA
96de1,Shallow Question,html.Page,3_0_0_0_4_1_0,NA,NA,form submission,9211.4199999999,2080989,2080985.86,2081002.58,2090214,2090218,2024-11-23T11:05:52Z,2090211.56,NULL,Toleranz,kuvumiliana,s,maombolezo,ujasusi,mchekeshaji,kuvumiliana,NA,NA,0,NA,NA,NA,NA,NA,NA,NA,NA,NA,NA,NA,NA,NA,NA,NA,NA,NA,NA,NA
96de1,"""Richtig""-Screen",canvas.Screen,3_0_0_0_4_1_1,NA,NA,timeout,4995.8199999998,2090227,2090203.7,2090211.56,2095191.04,2095192,2024-11-23T11:05:57Z,2095207.38,NULL,Toleranz,kuvumiliana,s,maombolezo,ujasusi,mchekeshaji,NA,sdf,1,0,NA,NA,NA,NA,NA,NA,NA,NA,NA,NA,NA,NA,NA,NA,NA,NA,NA,NA,NA
96de1,"""Falsch""-Screen",canvas.Screen,3_0_0_0_4_1_2,NA,NA,skipped,NA,2095197,NA,NA,2095191.04,2095197,2024-11-23T11:05:57Z,2095207.38,NULL,Toleranz,kuvumiliana,s,maombolezo,ujasusi,mchekeshaji,NA,sdf,NA,0,NA,NA,NA,NA,NA,NA,NA,NA,NA,NA,NA,NA,NA,NA,NA,NA,NA,NA,NA
96de1,shallow,flow.Sequence,3_0_0_0_4_1,NA,NA,completion,14188.46,2080989,2080985.86,2081002.58,2095191.04,2095197,2024-11-23T11:05:57Z,2095207.38,NULL,Toleranz,kuvumiliana,s,maombolezo,ujasusi,mchekeshaji,NA,sdf,NA,0,NA,NA,NA,NA,NA,NA,NA,NA,NA,NA,NA,NA,NA,NA,NA,NA,NA,NA,NA
96de1,task,flow.Sequence,3_0_0_0_4,NA,NA,completion,14188.46,2080989,2080985.86,2081002.58,2095191.04,2095198,2024-11-23T11:05:57Z,2095207.38,NULL,Toleranz,kuvumiliana,s,maombolezo,ujasusi,mchekeshaji,NA,sdf,NA,0,NA,NA,NA,NA,NA,NA,NA,NA,NA,NA,NA,NA,NA,NA,NA,NA,NA,NA,NA
96de1,deep,flow.Sequence,3_0_0_0_5_0,NA,NA,skipped,NA,2095198,NA,NA,2095191.04,2095198,2024-11-23T11:05:57Z,2095207.38,NULL,Annäherung,maegesho,s,madahili,kujiamini,mapendekezo,NA,sdf,NA,0,NA,NA,NA,NA,NA,NA,NA,NA,NA,NA,NA,NA,NA,NA,NA,NA,NA,NA,NA
96de1,Shallow Question,html.Page,3_0_0_0_5_1_0,NA,NA,form submission,9037.6200000001,2095198,2095191.04,2095207.38,2104245,2104246,2024-11-23T11:06:06Z,2104249.92,NULL,Annäherung,maegesho,s,madahili,kujiamini,mapendekezo,kujiamini,NA,NA,0,NA,NA,NA,NA,NA,NA,NA,NA,NA,NA,NA,NA,NA,NA,NA,NA,NA,NA,NA
96de1,"""Richtig""-Screen",canvas.Screen,3_0_0_0_5_1_1,NA,NA,skipped,NA,2104248,NA,NA,2104245,2104248,2024-11-23T11:06:06Z,2104249.92,NULL,Annäherung,maegesho,s,madahili,kujiamini,mapendekezo,NA,sdf,NA,0,NA,NA,NA,NA,NA,NA,NA,NA,NA,NA,NA,NA,NA,NA,NA,NA,NA,NA,NA
96de1,"""Falsch""-Screen",canvas.Screen,3_0_0_0_5_1_2,NA,NA,timeout,4995.98,2104250,2104242.28,2104249.92,2109229.18,2109230,2024-11-23T11:06:11Z,2109245.9,NULL,Annäherung,maegesho,s,madahili,kujiamini,mapendekezo,NA,sdf,0,0,NA,NA,NA,NA,NA,NA,NA,NA,NA,NA,NA,NA,NA,NA,NA,NA,NA,NA,NA
96de1,shallow,flow.Sequence,3_0_0_0_5_1,NA,NA,completion,14021.8,2095198,2095191.04,2095207.38,2109229.18,2109230,2024-11-23T11:06:11Z,2109245.9,NULL,Annäherung,maegesho,s,madahili,kujiamini,mapendekezo,NA,sdf,NA,0,NA,NA,NA,NA,NA,NA,NA,NA,NA,NA,NA,NA,NA,NA,NA,NA,NA,NA,NA
96de1,task,flow.Sequence,3_0_0_0_5,NA,NA,completion,14021.8,2095198,2095191.04,2095207.38,2109229.18,2109231,2024-11-23T11:06:11Z,2109245.9,NULL,Annäherung,maegesho,s,madahili,kujiamini,mapendekezo,NA,sdf,NA,0,NA,NA,NA,NA,NA,NA,NA,NA,NA,NA,NA,NA,NA,NA,NA,NA,NA,NA,NA
96de1,Deep Question,html.Page,3_0_0_0_6_0_0,NA,NA,form submission,4609.1000000001,2109231,2109229.18,2109245.9,2113855,2113855,2024-11-23T11:06:15Z,2113858.66,NULL,Polizist,msongora,d,NA,NA,NA,fishu,NA,NA,0,NA,NA,NA,NA,NA,NA,NA,NA,NA,NA,NA,NA,NA,NA,NA,NA,NA,NA,NA
96de1,"""Richtig""-Screen",canvas.Screen,3_0_0_0_6_0_1,NA,NA,skipped,NA,2113857,NA,NA,2113855,2113857,2024-11-23T11:06:15Z,2113858.66,NULL,Polizist,msongora,d,NA,NA,NA,NA,sdf,NA,0,NA,NA,NA,NA,NA,NA,NA,NA,NA,NA,NA,NA,NA,NA,NA,NA,NA,NA,NA
96de1,"""Falsch""-Screen",canvas.Screen,3_0_0_0_6_0_2,NA,NA,timeout,4995.9399999999,2113859,2113854.22,2113858.66,2118837.92,2118839,2024-11-23T11:06:20Z,2118854.6,NULL,Polizist,msongora,d,NA,NA,NA,NA,sdf,0,0,NA,NA,NA,NA,NA,NA,NA,NA,NA,NA,NA,NA,NA,NA,NA,NA,NA,NA,NA
96de1,deep,flow.Sequence,3_0_0_0_6_0,NA,NA,completion,9592.02,2109231,2109229.18,2109245.9,2118837.92,2118840,2024-11-23T11:06:20Z,2118854.6,NULL,Polizist,msongora,d,NA,NA,NA,NA,sdf,NA,0,NA,NA,NA,NA,NA,NA,NA,NA,NA,NA,NA,NA,NA,NA,NA,NA,NA,NA,NA
96de1,shallow,flow.Sequence,3_0_0_0_6_1,NA,NA,skipped,NA,2118840,NA,NA,2118837.92,2118840,2024-11-23T11:06:20Z,2118854.6,NULL,Polizist,msongora,d,NA,NA,NA,NA,sdf,NA,0,NA,NA,NA,NA,NA,NA,NA,NA,NA,NA,NA,NA,NA,NA,NA,NA,NA,NA,NA
96de1,task,flow.Sequence,3_0_0_0_6,NA,NA,completion,9592.02,2109231,2109229.18,2109245.9,2118837.92,2118841,2024-11-23T11:06:20Z,2118854.6,NULL,Polizist,msongora,d,NA,NA,NA,NA,sdf,NA,0,NA,NA,NA,NA,NA,NA,NA,NA,NA,NA,NA,NA,NA,NA,NA,NA,NA,NA,NA
96de1,deep,flow.Sequence,3_0_0_0_7_0,NA,NA,skipped,NA,2118841,NA,NA,2118837.92,2118841,2024-11-23T11:06:20Z,2118854.6,NULL,Schlange,foleni,s,uvumilivu,uteuzi,muuzaji,NA,sdf,NA,0,NA,NA,NA,NA,NA,NA,NA,NA,NA,NA,NA,NA,NA,NA,NA,NA,NA,NA,NA
96de1,Shallow Question,html.Page,3_0_0_0_7_1_0,NA,NA,form submission,9861.3999999999,2118841,2118837.92,2118854.6,2128716,2128717,2024-11-23T11:06:30Z,2128729.36,NULL,Schlange,foleni,s,uvumilivu,uteuzi,muuzaji,foleni,NA,NA,0,NA,NA,NA,NA,NA,NA,NA,NA,NA,NA,NA,NA,NA,NA,NA,NA,NA,NA,NA
96de1,"""Richtig""-Screen",canvas.Screen,3_0_0_0_7_1_1,NA,NA,timeout,4996.3400000003,2128721,2128713.66,2128729.36,2133708.98,2133710,2024-11-23T11:06:35Z,2133725.7,NULL,Schlange,foleni,s,uvumilivu,uteuzi,muuzaji,NA,sdf,1,0,NA,NA,NA,NA,NA,NA,NA,NA,NA,NA,NA,NA,NA,NA,NA,NA,NA,NA,NA
96de1,"""Falsch""-Screen",canvas.Screen,3_0_0_0_7_1_2,NA,NA,skipped,NA,2133714,NA,NA,2133708.98,2133715,2024-11-23T11:06:35Z,2133725.7,NULL,Schlange,foleni,s,uvumilivu,uteuzi,muuzaji,NA,sdf,NA,0,NA,NA,NA,NA,NA,NA,NA,NA,NA,NA,NA,NA,NA,NA,NA,NA,NA,NA,NA
96de1,shallow,flow.Sequence,3_0_0_0_7_1,NA,NA,completion,14854.38,2118841,2118837.92,2118854.6,2133708.98,2133715,2024-11-23T11:06:35Z,2133725.7,NULL,Schlange,foleni,s,uvumilivu,uteuzi,muuzaji,NA,sdf,NA,0,NA,NA,NA,NA,NA,NA,NA,NA,NA,NA,NA,NA,NA,NA,NA,NA,NA,NA,NA
96de1,task,flow.Sequence,3_0_0_0_7,NA,NA,completion,14854.38,2118841,2118837.92,2118854.6,2133708.98,2133715,2024-11-23T11:06:35Z,2133725.7,NULL,Schlange,foleni,s,uvumilivu,uteuzi,muuzaji,NA,sdf,NA,0,NA,NA,NA,NA,NA,NA,NA,NA,NA,NA,NA,NA,NA,NA,NA,NA,NA,NA,NA
96de1,block,flow.Loop,3_0_0_0,NA,NA,completion,96720.28,2036984,2036983.34,2036988.7,2133708.98,2133715,2024-11-23T11:06:35Z,2133725.7,NULL,NA,NA,NA,NA,NA,NA,NA,sdf,NA,0,NA,NA,NA,NA,NA,NA,NA,NA,NA,NA,NA,NA,NA,NA,NA,NA,NA,NA,NA
96de1,weiter,canvas.Screen,3_0_0_1,sdf,keypress(Space),response,1345.2999999998,2133715,2133708.98,2133725.7,2135071,2135089,2024-11-23T11:06:37Z,2135141.14,NULL,NA,NA,NA,NA,NA,NA,NA,sdf,NA,0,NA,NA,NA,NA,NA,NA,NA,NA,NA,NA,NA,NA,NA,NA,NA,NA,NA,NA,NA
96de1,check continue,flow.Sequence,3_0_0,NA,NA,completion,98082.3,2036984,2036983.34,2036988.7,2135071,2135090,2024-11-23T11:06:37Z,2135141.14,NULL,NA,NA,NA,NA,NA,NA,NA,sdf,NA,0,NA,NA,NA,NA,NA,NA,NA,NA,NA,NA,NA,NA,NA,NA,NA,NA,NA,NA,NA
96de1,deep,flow.Sequence,3_0_1_0_0_0,NA,NA,skipped,NA,2135129,NA,NA,2135071,2135129,2024-11-23T11:06:37Z,2135141.14,NULL,Sympathie,mapendano,s,dhamiria,fungamano,maazimio,NA,sdfdsf,NA,1,NA,NA,NA,NA,NA,NA,NA,NA,NA,NA,NA,NA,NA,NA,NA,NA,NA,NA,NA
96de1,Shallow Question,html.Page,3_0_1_0_0_1_0,NA,NA,form submission,8459.8599999999,2135129,2135129.6,2135141.14,2143601,2143602,2024-11-23T11:06:45Z,2143600.82,NULL,Sympathie,mapendano,s,dhamiria,fungamano,maazimio,mapendano,NA,NA,1,NA,NA,NA,NA,NA,NA,NA,NA,NA,NA,NA,NA,NA,NA,NA,NA,NA,NA,NA
96de1,"""Richtig""-Screen",canvas.Screen,3_0_1_0_0_1_1,NA,NA,timeout,4995.98,2143607,2143598.6,2143600.82,2148580.08,2148581,2024-11-23T11:06:50Z,2148596.8,NULL,Sympathie,mapendano,s,dhamiria,fungamano,maazimio,NA,sdfdsf,1,1,NA,NA,NA,NA,NA,NA,NA,NA,NA,NA,NA,NA,NA,NA,NA,NA,NA,NA,NA
96de1,"""Falsch""-Screen",canvas.Screen,3_0_1_0_0_1_2,NA,NA,skipped,NA,2148586,NA,NA,2148580.08,2148586,2024-11-23T11:06:50Z,2148596.8,NULL,Sympathie,mapendano,s,dhamiria,fungamano,maazimio,NA,sdfdsf,NA,1,NA,NA,NA,NA,NA,NA,NA,NA,NA,NA,NA,NA,NA,NA,NA,NA,NA,NA,NA
96de1,shallow,flow.Sequence,3_0_1_0_0_1,NA,NA,completion,13438.94,2135129,2135129.6,2135141.14,2148580.08,2148586,2024-11-23T11:06:50Z,2148596.8,NULL,Sympathie,mapendano,s,dhamiria,fungamano,maazimio,NA,sdfdsf,NA,1,NA,NA,NA,NA,NA,NA,NA,NA,NA,NA,NA,NA,NA,NA,NA,NA,NA,NA,NA
96de1,task,flow.Sequence,3_0_1_0_0,NA,NA,completion,13438.94,2135129,2135129.6,2135141.14,2148580.08,2148586,2024-11-23T11:06:50Z,2148596.8,NULL,Sympathie,mapendano,s,dhamiria,fungamano,maazimio,NA,sdfdsf,NA,1,NA,NA,NA,NA,NA,NA,NA,NA,NA,NA,NA,NA,NA,NA,NA,NA,NA,NA,NA
96de1,Deep Question,html.Page,3_0_1_0_1_0_0,NA,NA,form submission,5790.2000000002,2148586,2148580.08,2148596.8,2154387,2154388,2024-11-23T11:06:56Z,2154391.92,NULL,Polizist,msongora,d,NA,NA,NA,somoho,NA,NA,1,NA,NA,NA,NA,NA,NA,NA,NA,NA,NA,NA,NA,NA,NA,NA,NA,NA,NA,NA
96de1,"""Richtig""-Screen",canvas.Screen,3_0_1_0_1_0_1,NA,NA,skipped,NA,2154389,NA,NA,2154387,2154389,2024-11-23T11:06:56Z,2154391.92,NULL,Polizist,msongora,d,NA,NA,NA,NA,sdfdsf,NA,1,NA,NA,NA,NA,NA,NA,NA,NA,NA,NA,NA,NA,NA,NA,NA,NA,NA,NA,NA
96de1,"""Falsch""-Screen",canvas.Screen,3_0_1_0_1_0_2,NA,NA,timeout,4995.9399999999,2154391,2154386.74,2154391.92,2159371.3,2159373,2024-11-23T11:07:01Z,2159387.86,NULL,Polizist,msongora,d,NA,NA,NA,NA,sdfdsf,0,1,NA,NA,NA,NA,NA,NA,NA,NA,NA,NA,NA,NA,NA,NA,NA,NA,NA,NA,NA
96de1,deep,flow.Sequence,3_0_1_0_1_0,NA,NA,completion,10774.5,2148586,2148580.08,2148596.8,2159371.3,2159373,2024-11-23T11:07:01Z,2159387.86,NULL,Polizist,msongora,d,NA,NA,NA,NA,sdfdsf,NA,1,NA,NA,NA,NA,NA,NA,NA,NA,NA,NA,NA,NA,NA,NA,NA,NA,NA,NA,NA
96de1,shallow,flow.Sequence,3_0_1_0_1_1,NA,NA,skipped,NA,2159373,NA,NA,2159371.3,2159373,2024-11-23T11:07:01Z,2159387.86,NULL,Polizist,msongora,d,NA,NA,NA,NA,sdfdsf,NA,1,NA,NA,NA,NA,NA,NA,NA,NA,NA,NA,NA,NA,NA,NA,NA,NA,NA,NA,NA
96de1,task,flow.Sequence,3_0_1_0_1,NA,NA,completion,10774.5,2148586,2148580.08,2148596.8,2159371.3,2159374,2024-11-23T11:07:01Z,2159387.86,NULL,Polizist,msongora,d,NA,NA,NA,NA,sdfdsf,NA,1,NA,NA,NA,NA,NA,NA,NA,NA,NA,NA,NA,NA,NA,NA,NA,NA,NA,NA,NA
96de1,deep,flow.Sequence,3_0_1_0_2_0,NA,NA,skipped,NA,2159374,NA,NA,2159371.3,2159374,2024-11-23T11:07:01Z,2159387.86,NULL,Schlange,foleni,s,uvumilivu,uteuzi,muuzaji,NA,sdfdsf,NA,1,NA,NA,NA,NA,NA,NA,NA,NA,NA,NA,NA,NA,NA,NA,NA,NA,NA,NA,NA
96de1,Shallow Question,html.Page,3_0_1_0_2_1_0,NA,NA,form submission,4828.1400000001,2159374,2159371.3,2159387.86,2164216,2164217,2024-11-23T11:07:06Z,2164217.18,NULL,Schlange,foleni,s,uvumilivu,uteuzi,muuzaji,foleni,NA,NA,1,NA,NA,NA,NA,NA,NA,NA,NA,NA,NA,NA,NA,NA,NA,NA,NA,NA,NA,NA
96de1,"""Richtig""-Screen",canvas.Screen,3_0_1_0_2_1_1,NA,NA,timeout,4995.9199999999,2164222,2164214.06,2164217.18,2169196.4,2169197,2024-11-23T11:07:11Z,2169213.1,NULL,Schlange,foleni,s,uvumilivu,uteuzi,muuzaji,NA,sdfdsf,1,1,NA,NA,NA,NA,NA,NA,NA,NA,NA,NA,NA,NA,NA,NA,NA,NA,NA,NA,NA
96de1,"""Falsch""-Screen",canvas.Screen,3_0_1_0_2_1_2,NA,NA,skipped,NA,2169199,NA,NA,2169196.4,2169199,2024-11-23T11:07:11Z,2169213.1,NULL,Schlange,foleni,s,uvumilivu,uteuzi,muuzaji,NA,sdfdsf,NA,1,NA,NA,NA,NA,NA,NA,NA,NA,NA,NA,NA,NA,NA,NA,NA,NA,NA,NA,NA
96de1,shallow,flow.Sequence,3_0_1_0_2_1,NA,NA,completion,9808.54,2159374,2159371.3,2159387.86,2169196.4,2169199,2024-11-23T11:07:11Z,2169213.1,NULL,Schlange,foleni,s,uvumilivu,uteuzi,muuzaji,NA,sdfdsf,NA,1,NA,NA,NA,NA,NA,NA,NA,NA,NA,NA,NA,NA,NA,NA,NA,NA,NA,NA,NA
96de1,task,flow.Sequence,3_0_1_0_2,NA,NA,completion,9808.54,2159374,2159371.3,2159387.86,2169196.4,2169199,2024-11-23T11:07:11Z,2169213.1,NULL,Schlange,foleni,s,uvumilivu,uteuzi,muuzaji,NA,sdfdsf,NA,1,NA,NA,NA,NA,NA,NA,NA,NA,NA,NA,NA,NA,NA,NA,NA,NA,NA,NA,NA
96de1,deep,flow.Sequence,3_0_1_0_3_0,NA,NA,skipped,NA,2169199,NA,NA,2169196.4,2169199,2024-11-23T11:07:11Z,2169213.1,NULL,Toleranz,kuvumiliana,s,maombolezo,ujasusi,mchekeshaji,NA,sdfdsf,NA,1,NA,NA,NA,NA,NA,NA,NA,NA,NA,NA,NA,NA,NA,NA,NA,NA,NA,NA,NA
96de1,Shallow Question,html.Page,3_0_1_0_3_1_0,NA,NA,form submission,14188.9,2169200,2169196.4,2169213.1,2183402,2183403,2024-11-23T11:07:25Z,2183401.34,NULL,Toleranz,kuvumiliana,s,maombolezo,ujasusi,mchekeshaji,maombolezo,NA,NA,1,NA,NA,NA,NA,NA,NA,NA,NA,NA,NA,NA,NA,NA,NA,NA,NA,NA,NA,NA
96de1,"""Richtig""-Screen",canvas.Screen,3_0_1_0_3_1_1,NA,NA,skipped,NA,2183407,NA,NA,2183402,2183407,2024-11-23T11:07:25Z,2183401.34,NULL,Toleranz,kuvumiliana,s,maombolezo,ujasusi,mchekeshaji,NA,sdfdsf,NA,1,NA,NA,NA,NA,NA,NA,NA,NA,NA,NA,NA,NA,NA,NA,NA,NA,NA,NA,NA
96de1,"""Falsch""-Screen",canvas.Screen,3_0_1_0_3_1_2,NA,NA,timeout,4996.02,2183412,2183399.92,2183401.34,2188380.64,2188383,2024-11-23T11:07:30Z,2188397.36,NULL,Toleranz,kuvumiliana,s,maombolezo,ujasusi,mchekeshaji,NA,sdfdsf,0,1,NA,NA,NA,NA,NA,NA,NA,NA,NA,NA,NA,NA,NA,NA,NA,NA,NA,NA,NA
96de1,shallow,flow.Sequence,3_0_1_0_3_1,NA,NA,completion,19167.54,2169199,2169196.4,2169213.1,2188380.64,2188385,2024-11-23T11:07:30Z,2188397.36,NULL,Toleranz,kuvumiliana,s,maombolezo,ujasusi,mchekeshaji,NA,sdfdsf,NA,1,NA,NA,NA,NA,NA,NA,NA,NA,NA,NA,NA,NA,NA,NA,NA,NA,NA,NA,NA
96de1,task,flow.Sequence,3_0_1_0_3,NA,NA,completion,19167.54,2169199,2169196.4,2169213.1,2188380.64,2188386,2024-11-23T11:07:30Z,2188397.36,NULL,Toleranz,kuvumiliana,s,maombolezo,ujasusi,mchekeshaji,NA,sdfdsf,NA,1,NA,NA,NA,NA,NA,NA,NA,NA,NA,NA,NA,NA,NA,NA,NA,NA,NA,NA,NA
96de1,deep,flow.Sequence,3_0_1_0_4_0,NA,NA,skipped,NA,2188387,NA,NA,2188380.64,2188387,2024-11-23T11:07:30Z,2188397.36,NULL,Annäherung,maegesho,s,madahili,kujiamini,mapendekezo,NA,sdfdsf,NA,1,NA,NA,NA,NA,NA,NA,NA,NA,NA,NA,NA,NA,NA,NA,NA,NA,NA,NA,NA
96de1,Shallow Question,html.Page,3_0_1_0_4_1_0,NA,NA,form submission,6317.6400000001,2188387,2188380.64,2188397.36,2194715,2194716,2024-11-23T11:07:36Z,2194725.34,NULL,Annäherung,maegesho,s,madahili,kujiamini,mapendekezo,maegesho,NA,NA,1,NA,NA,NA,NA,NA,NA,NA,NA,NA,NA,NA,NA,NA,NA,NA,NA,NA,NA,NA
96de1,"""Richtig""-Screen",canvas.Screen,3_0_1_0_4_1_1,NA,NA,timeout,4996,2194730,2194712.1,2194725.34,2199704.62,2199706,2024-11-23T11:07:41Z,2199721.34,NULL,Annäherung,maegesho,s,madahili,kujiamini,mapendekezo,NA,sdfdsf,1,1,NA,NA,NA,NA,NA,NA,NA,NA,NA,NA,NA,NA,NA,NA,NA,NA,NA,NA,NA
96de1,"""Falsch""-Screen",canvas.Screen,3_0_1_0_4_1_2,NA,NA,skipped,NA,2199711,NA,NA,2199704.62,2199711,2024-11-23T11:07:41Z,2199721.34,NULL,Annäherung,maegesho,s,madahili,kujiamini,mapendekezo,NA,sdfdsf,NA,1,NA,NA,NA,NA,NA,NA,NA,NA,NA,NA,NA,NA,NA,NA,NA,NA,NA,NA,NA
96de1,shallow,flow.Sequence,3_0_1_0_4_1,NA,NA,completion,11307.26,2188387,2188380.64,2188397.36,2199704.62,2199712,2024-11-23T11:07:41Z,2199721.34,NULL,Annäherung,maegesho,s,madahili,kujiamini,mapendekezo,NA,sdfdsf,NA,1,NA,NA,NA,NA,NA,NA,NA,NA,NA,NA,NA,NA,NA,NA,NA,NA,NA,NA,NA
96de1,task,flow.Sequence,3_0_1_0_4,NA,NA,completion,11307.26,2188386,2188380.64,2188397.36,2199704.62,2199712,2024-11-23T11:07:41Z,2199721.34,NULL,Annäherung,maegesho,s,madahili,kujiamini,mapendekezo,NA,sdfdsf,NA,1,NA,NA,NA,NA,NA,NA,NA,NA,NA,NA,NA,NA,NA,NA,NA,NA,NA,NA,NA
96de1,Deep Question,html.Page,3_0_1_0_5_0_0,NA,NA,form submission,4473.6600000001,2199712,2199704.62,2199721.34,2204195,2204196,2024-11-23T11:07:46Z,2204200.8,NULL,Inhalt,yaliyomo,d,NA,NA,NA,inho,NA,NA,1,NA,NA,NA,NA,NA,NA,NA,NA,NA,NA,NA,NA,NA,NA,NA,NA,NA,NA,NA
96de1,"""Richtig""-Screen",canvas.Screen,3_0_1_0_5_0_1,NA,NA,skipped,NA,2204198,NA,NA,2204195,2204198,2024-11-23T11:07:46Z,2204200.8,NULL,Inhalt,yaliyomo,d,NA,NA,NA,NA,sdfdsf,NA,1,NA,NA,NA,NA,NA,NA,NA,NA,NA,NA,NA,NA,NA,NA,NA,NA,NA,NA,NA
96de1,"""Falsch""-Screen",canvas.Screen,3_0_1_0_5_0_2,NA,NA,timeout,4996.2000000002,2204200,2204194.9,2204200.8,2209180.28,2209181,2024-11-23T11:07:51Z,2209197,NULL,Inhalt,yaliyomo,d,NA,NA,NA,NA,sdfdsf,0,1,NA,NA,NA,NA,NA,NA,NA,NA,NA,NA,NA,NA,NA,NA,NA,NA,NA,NA,NA
96de1,deep,flow.Sequence,3_0_1_0_5_0,NA,NA,completion,9458.9399999999,2199712,2199704.62,2199721.34,2209180.28,2209182,2024-11-23T11:07:51Z,2209197,NULL,Inhalt,yaliyomo,d,NA,NA,NA,NA,sdfdsf,NA,1,NA,NA,NA,NA,NA,NA,NA,NA,NA,NA,NA,NA,NA,NA,NA,NA,NA,NA,NA
96de1,shallow,flow.Sequence,3_0_1_0_5_1,NA,NA,skipped,NA,2209183,NA,NA,2209180.28,2209183,2024-11-23T11:07:51Z,2209197,NULL,Inhalt,yaliyomo,d,NA,NA,NA,NA,sdfdsf,NA,1,NA,NA,NA,NA,NA,NA,NA,NA,NA,NA,NA,NA,NA,NA,NA,NA,NA,NA,NA
96de1,task,flow.Sequence,3_0_1_0_5,NA,NA,completion,9458.9399999999,2199712,2199704.62,2199721.34,2209180.28,2209183,2024-11-23T11:07:51Z,2209197,NULL,Inhalt,yaliyomo,d,NA,NA,NA,NA,sdfdsf,NA,1,NA,NA,NA,NA,NA,NA,NA,NA,NA,NA,NA,NA,NA,NA,NA,NA,NA,NA,NA
96de1,Deep Question,html.Page,3_0_1_0_6_0_0,NA,NA,form submission,6054,2209184,2209180.28,2209197,2215251,2215252,2024-11-23T11:07:57Z,2215258.32,NULL,Vermutung,udhanifu,d,NA,NA,NA,udifuni,NA,NA,1,NA,NA,NA,NA,NA,NA,NA,NA,NA,NA,NA,NA,NA,NA,NA,NA,NA,NA,NA
96de1,"""Richtig""-Screen",canvas.Screen,3_0_1_0_6_0_1,NA,NA,skipped,NA,2215254,NA,NA,2215251,2215254,2024-11-23T11:07:57Z,2215258.32,NULL,Vermutung,udhanifu,d,NA,NA,NA,NA,sdfdsf,NA,1,NA,NA,NA,NA,NA,NA,NA,NA,NA,NA,NA,NA,NA,NA,NA,NA,NA,NA,NA
96de1,"""Falsch""-Screen",canvas.Screen,3_0_1_0_6_0_2,NA,NA,timeout,4995.98,2215255,2215251.18,2215258.32,2220237.7,2220239,2024-11-23T11:08:02Z,2220254.3,NULL,Vermutung,udhanifu,d,NA,NA,NA,NA,sdfdsf,0,1,NA,NA,NA,NA,NA,NA,NA,NA,NA,NA,NA,NA,NA,NA,NA,NA,NA,NA,NA
96de1,deep,flow.Sequence,3_0_1_0_6_0,NA,NA,completion,11040.7,2209184,2209180.28,2209197,2220237.7,2220240,2024-11-23T11:08:02Z,2220254.3,NULL,Vermutung,udhanifu,d,NA,NA,NA,NA,sdfdsf,NA,1,NA,NA,NA,NA,NA,NA,NA,NA,NA,NA,NA,NA,NA,NA,NA,NA,NA,NA,NA
96de1,shallow,flow.Sequence,3_0_1_0_6_1,NA,NA,skipped,NA,2220240,NA,NA,2220237.7,2220240,2024-11-23T11:08:02Z,2220254.3,NULL,Vermutung,udhanifu,d,NA,NA,NA,NA,sdfdsf,NA,1,NA,NA,NA,NA,NA,NA,NA,NA,NA,NA,NA,NA,NA,NA,NA,NA,NA,NA,NA
96de1,task,flow.Sequence,3_0_1_0_6,NA,NA,completion,11040.7,2209183,2209180.28,2209197,2220237.7,2220241,2024-11-23T11:08:02Z,2220254.3,NULL,Vermutung,udhanifu,d,NA,NA,NA,NA,sdfdsf,NA,1,NA,NA,NA,NA,NA,NA,NA,NA,NA,NA,NA,NA,NA,NA,NA,NA,NA,NA,NA
96de1,Deep Question,html.Page,3_0_1_0_7_0_0,NA,NA,form submission,9998.7000000002,2220241,2220237.7,2220254.3,2230253,2230253,2024-11-23T11:08:12Z,2230262.62,NULL,Beweis,ushahidi,d,NA,NA,NA,udhanifu,NA,NA,1,NA,NA,NA,NA,NA,NA,NA,NA,NA,NA,NA,NA,NA,NA,NA,NA,NA,NA,NA
96de1,"""Richtig""-Screen",canvas.Screen,3_0_1_0_7_0_1,NA,NA,skipped,NA,2230255,NA,NA,2230253,2230256,2024-11-23T11:08:12Z,2230262.62,NULL,Beweis,ushahidi,d,NA,NA,NA,NA,sdfdsf,NA,1,NA,NA,NA,NA,NA,NA,NA,NA,NA,NA,NA,NA,NA,NA,NA,NA,NA,NA,NA
96de1,"""Falsch""-Screen",canvas.Screen,3_0_1_0_7_0_2,NA,NA,timeout,4995.7799999998,2230257,2230252.86,2230262.62,2235241.98,2235243,2024-11-23T11:08:17Z,2235258.4,NULL,Beweis,ushahidi,d,NA,NA,NA,NA,sdfdsf,0,1,NA,NA,NA,NA,NA,NA,NA,NA,NA,NA,NA,NA,NA,NA,NA,NA,NA,NA,NA
96de1,deep,flow.Sequence,3_0_1_0_7_0,NA,NA,completion,14987.68,2220241,2220237.7,2220254.3,2235241.98,2235244,2024-11-23T11:08:17Z,2235258.4,NULL,Beweis,ushahidi,d,NA,NA,NA,NA,sdfdsf,NA,1,NA,NA,NA,NA,NA,NA,NA,NA,NA,NA,NA,NA,NA,NA,NA,NA,NA,NA,NA
96de1,shallow,flow.Sequence,3_0_1_0_7_1,NA,NA,skipped,NA,2235244,NA,NA,2235241.98,2235244,2024-11-23T11:08:17Z,2235258.4,NULL,Beweis,ushahidi,d,NA,NA,NA,NA,sdfdsf,NA,1,NA,NA,NA,NA,NA,NA,NA,NA,NA,NA,NA,NA,NA,NA,NA,NA,NA,NA,NA
96de1,task,flow.Sequence,3_0_1_0_7,NA,NA,completion,14987.68,2220241,2220237.7,2220254.3,2235241.98,2235245,2024-11-23T11:08:17Z,2235258.4,NULL,Beweis,ushahidi,d,NA,NA,NA,NA,sdfdsf,NA,1,NA,NA,NA,NA,NA,NA,NA,NA,NA,NA,NA,NA,NA,NA,NA,NA,NA,NA,NA
96de1,block,flow.Loop,3_0_1_0,NA,NA,completion,100100.84,2135129,2135129.6,2135141.14,2235241.98,2235245,2024-11-23T11:08:17Z,2235258.4,NULL,NA,NA,NA,NA,NA,NA,NA,sdfdsf,NA,1,NA,NA,NA,NA,NA,NA,NA,NA,NA,NA,NA,NA,NA,NA,NA,NA,NA,NA,NA
96de1,weiter,canvas.Screen,3_0_1_1,sdf,keypress(Space),response,1109.6000000001,2235245,2235241.98,2235258.4,2236368,2236372,2024-11-23T11:08:18Z,2236424.26,NULL,NA,NA,NA,NA,NA,NA,NA,sdfdsf,NA,1,NA,NA,NA,NA,NA,NA,NA,NA,NA,NA,NA,NA,NA,NA,NA,NA,NA,NA,NA
96de1,check continue,flow.Sequence,3_0_1,NA,NA,completion,101226.86,2135129,2135129.6,2135141.14,2236368,2236372,2024-11-23T11:08:18Z,2236424.26,NULL,NA,NA,NA,NA,NA,NA,NA,sdfdsf,NA,1,NA,NA,NA,NA,NA,NA,NA,NA,NA,NA,NA,NA,NA,NA,NA,NA,NA,NA,NA
96de1,deep,flow.Sequence,3_0_2_0_0_0,NA,NA,skipped,NA,2236420,NA,NA,2236368,2236420,2024-11-23T11:08:18Z,2236424.26,NULL,Schlange,foleni,s,uvumilivu,uteuzi,muuzaji,NA,sdf,NA,2,NA,NA,NA,NA,NA,NA,NA,NA,NA,NA,NA,NA,NA,NA,NA,NA,NA,NA,NA
96de1,Shallow Question,html.Page,3_0_2_0_0_1_0,NA,NA,form submission,4889.7400000002,2236420,2236419.42,2236424.26,2241314,2241315,2024-11-23T11:08:23Z,2241320.26,NULL,Schlange,foleni,s,uvumilivu,uteuzi,muuzaji,foleni,NA,NA,2,NA,NA,NA,NA,NA,NA,NA,NA,NA,NA,NA,NA,NA,NA,NA,NA,NA,NA,NA
96de1,"""Richtig""-Screen",canvas.Screen,3_0_2_0_0_1_1,NA,NA,timeout,4995.8400000003,2241320,2241311.3,2241320.26,2246299.48,2246304,2024-11-23T11:08:28Z,2246316.1,NULL,Schlange,foleni,s,uvumilivu,uteuzi,muuzaji,NA,sdf,1,2,NA,NA,NA,NA,NA,NA,NA,NA,NA,NA,NA,NA,NA,NA,NA,NA,NA,NA,NA
96de1,"""Falsch""-Screen",canvas.Screen,3_0_2_0_0_1_2,NA,NA,skipped,NA,2246318,NA,NA,2246299.48,2246318,2024-11-23T11:08:28Z,2246316.1,NULL,Schlange,foleni,s,uvumilivu,uteuzi,muuzaji,NA,sdf,NA,2,NA,NA,NA,NA,NA,NA,NA,NA,NA,NA,NA,NA,NA,NA,NA,NA,NA,NA,NA
96de1,shallow,flow.Sequence,3_0_2_0_0_1,NA,NA,completion,9875.2200000002,2236420,2236419.42,2236424.26,2246299.48,2246319,2024-11-23T11:08:28Z,2246316.1,NULL,Schlange,foleni,s,uvumilivu,uteuzi,muuzaji,NA,sdf,NA,2,NA,NA,NA,NA,NA,NA,NA,NA,NA,NA,NA,NA,NA,NA,NA,NA,NA,NA,NA
96de1,task,flow.Sequence,3_0_2_0_0,NA,NA,completion,9875.2200000002,2236419,2236419.42,2236424.26,2246299.48,2246320,2024-11-23T11:08:28Z,2246316.1,NULL,Schlange,foleni,s,uvumilivu,uteuzi,muuzaji,NA,sdf,NA,2,NA,NA,NA,NA,NA,NA,NA,NA,NA,NA,NA,NA,NA,NA,NA,NA,NA,NA,NA
96de1,deep,flow.Sequence,3_0_2_0_1_0,NA,NA,skipped,NA,2246320,NA,NA,2246299.48,2246320,2024-11-23T11:08:28Z,2246316.1,NULL,Annäherung,maegesho,s,madahili,kujiamini,mapendekezo,NA,sdf,NA,2,NA,NA,NA,NA,NA,NA,NA,NA,NA,NA,NA,NA,NA,NA,NA,NA,NA,NA,NA
96de1,Shallow Question,html.Page,3_0_2_0_1_1_0,NA,NA,form submission,7466.8999999999,2246320,2246299.48,2246316.1,2253783,2253784,2024-11-23T11:08:35Z,2253793.26,NULL,Annäherung,maegesho,s,madahili,kujiamini,mapendekezo,maegesho,NA,NA,2,NA,NA,NA,NA,NA,NA,NA,NA,NA,NA,NA,NA,NA,NA,NA,NA,NA,NA,NA
96de1,"""Richtig""-Screen",canvas.Screen,3_0_2_0_1_1_1,NA,NA,timeout,4995.9000000004,2253789,2253779.48,2253793.26,2258772.58,2258774,2024-11-23T11:08:40Z,2258789.16,NULL,Annäherung,maegesho,s,madahili,kujiamini,mapendekezo,NA,sdf,1,2,NA,NA,NA,NA,NA,NA,NA,NA,NA,NA,NA,NA,NA,NA,NA,NA,NA,NA,NA
96de1,"""Falsch""-Screen",canvas.Screen,3_0_2_0_1_1_2,NA,NA,skipped,NA,2258778,NA,NA,2258772.58,2258778,2024-11-23T11:08:40Z,2258789.16,NULL,Annäherung,maegesho,s,madahili,kujiamini,mapendekezo,NA,sdf,NA,2,NA,NA,NA,NA,NA,NA,NA,NA,NA,NA,NA,NA,NA,NA,NA,NA,NA,NA,NA
96de1,shallow,flow.Sequence,3_0_2_0_1_1,NA,NA,completion,12456.48,2246320,2246299.48,2246316.1,2258772.58,2258780,2024-11-23T11:08:40Z,2258789.16,NULL,Annäherung,maegesho,s,madahili,kujiamini,mapendekezo,NA,sdf,NA,2,NA,NA,NA,NA,NA,NA,NA,NA,NA,NA,NA,NA,NA,NA,NA,NA,NA,NA,NA
96de1,task,flow.Sequence,3_0_2_0_1,NA,NA,completion,12456.48,2246320,2246299.48,2246316.1,2258772.58,2258781,2024-11-23T11:08:40Z,2258789.16,NULL,Annäherung,maegesho,s,madahili,kujiamini,mapendekezo,NA,sdf,NA,2,NA,NA,NA,NA,NA,NA,NA,NA,NA,NA,NA,NA,NA,NA,NA,NA,NA,NA,NA
96de1,Deep Question,html.Page,3_0_2_0_2_0_0,NA,NA,form submission,5585.8399999999,2258781,2258772.58,2258789.16,2264375,2264375,2024-11-23T11:08:46Z,2264384.42,NULL,Polizist,msongora,d,NA,NA,NA,msongoro,NA,NA,2,NA,NA,NA,NA,NA,NA,NA,NA,NA,NA,NA,NA,NA,NA,NA,NA,NA,NA,NA
96de1,"""Richtig""-Screen",canvas.Screen,3_0_2_0_2_0_1,NA,NA,skipped,NA,2264377,NA,NA,2264375,2264377,2024-11-23T11:08:46Z,2264384.42,NULL,Polizist,msongora,d,NA,NA,NA,NA,sdf,NA,2,NA,NA,NA,NA,NA,NA,NA,NA,NA,NA,NA,NA,NA,NA,NA,NA,NA,NA,NA
96de1,"""Falsch""-Screen",canvas.Screen,3_0_2_0_2_0_2,NA,NA,timeout,4996.02,2264379,2264374.36,2264384.42,2269363.82,2269365,2024-11-23T11:08:51Z,2269380.44,NULL,Polizist,msongora,d,NA,NA,NA,NA,sdf,0,2,NA,NA,NA,NA,NA,NA,NA,NA,NA,NA,NA,NA,NA,NA,NA,NA,NA,NA,NA
96de1,deep,flow.Sequence,3_0_2_0_2_0,NA,NA,completion,10574.66,2258781,2258772.58,2258789.16,2269363.82,2269366,2024-11-23T11:08:51Z,2269380.44,NULL,Polizist,msongora,d,NA,NA,NA,NA,sdf,NA,2,NA,NA,NA,NA,NA,NA,NA,NA,NA,NA,NA,NA,NA,NA,NA,NA,NA,NA,NA
96de1,shallow,flow.Sequence,3_0_2_0_2_1,NA,NA,skipped,NA,2269366,NA,NA,2269363.82,2269366,2024-11-23T11:08:51Z,2269380.44,NULL,Polizist,msongora,d,NA,NA,NA,NA,sdf,NA,2,NA,NA,NA,NA,NA,NA,NA,NA,NA,NA,NA,NA,NA,NA,NA,NA,NA,NA,NA
96de1,task,flow.Sequence,3_0_2_0_2,NA,NA,completion,10574.66,2258781,2258772.58,2258789.16,2269363.82,2269366,2024-11-23T11:08:51Z,2269380.44,NULL,Polizist,msongora,d,NA,NA,NA,NA,sdf,NA,2,NA,NA,NA,NA,NA,NA,NA,NA,NA,NA,NA,NA,NA,NA,NA,NA,NA,NA,NA
96de1,deep,flow.Sequence,3_0_2_0_3_0,NA,NA,skipped,NA,2269367,NA,NA,2269363.82,2269367,2024-11-23T11:08:51Z,2269380.44,NULL,Toleranz,kuvumiliana,s,maombolezo,ujasusi,mchekeshaji,NA,sdf,NA,2,NA,NA,NA,NA,NA,NA,NA,NA,NA,NA,NA,NA,NA,NA,NA,NA,NA,NA,NA
96de1,Shallow Question,html.Page,3_0_2_0_3_1_0,NA,NA,form submission,7253.5600000001,2269367,2269363.82,2269380.44,2276634,2276635,2024-11-23T11:08:58Z,2276641.2,NULL,Toleranz,kuvumiliana,s,maombolezo,ujasusi,mchekeshaji,kuvumiliana,NA,NA,2,NA,NA,NA,NA,NA,NA,NA,NA,NA,NA,NA,NA,NA,NA,NA,NA,NA,NA,NA
96de1,"""Richtig""-Screen",canvas.Screen,3_0_2_0_3_1_1,NA,NA,timeout,4996.0599999996,2276639,2276630.96,2276641.2,2281620.54,2281621,2024-11-23T11:09:03Z,2281637.26,NULL,Toleranz,kuvumiliana,s,maombolezo,ujasusi,mchekeshaji,NA,sdf,1,2,NA,NA,NA,NA,NA,NA,NA,NA,NA,NA,NA,NA,NA,NA,NA,NA,NA,NA,NA
96de1,"""Falsch""-Screen",canvas.Screen,3_0_2_0_3_1_2,NA,NA,skipped,NA,2281626,NA,NA,2281620.54,2281626,2024-11-23T11:09:03Z,2281637.26,NULL,Toleranz,kuvumiliana,s,maombolezo,ujasusi,mchekeshaji,NA,sdf,NA,2,NA,NA,NA,NA,NA,NA,NA,NA,NA,NA,NA,NA,NA,NA,NA,NA,NA,NA,NA
96de1,shallow,flow.Sequence,3_0_2_0_3_1,NA,NA,completion,12240.1,2269367,2269363.82,2269380.44,2281620.54,2281626,2024-11-23T11:09:03Z,2281637.26,NULL,Toleranz,kuvumiliana,s,maombolezo,ujasusi,mchekeshaji,NA,sdf,NA,2,NA,NA,NA,NA,NA,NA,NA,NA,NA,NA,NA,NA,NA,NA,NA,NA,NA,NA,NA
96de1,task,flow.Sequence,3_0_2_0_3,NA,NA,completion,12240.1,2269366,2269363.82,2269380.44,2281620.54,2281627,2024-11-23T11:09:03Z,2281637.26,NULL,Toleranz,kuvumiliana,s,maombolezo,ujasusi,mchekeshaji,NA,sdf,NA,2,NA,NA,NA,NA,NA,NA,NA,NA,NA,NA,NA,NA,NA,NA,NA,NA,NA,NA,NA
96de1,Deep Question,html.Page,3_0_2_0_4_0_0,NA,NA,form submission,8099.7400000002,2281627,2281620.54,2281637.26,2289737,2289738,2024-11-23T11:09:11Z,2289746.86,NULL,Beweis,ushahidi,d,NA,NA,NA,udhanifu,NA,NA,2,NA,NA,NA,NA,NA,NA,NA,NA,NA,NA,NA,NA,NA,NA,NA,NA,NA,NA,NA
96de1,"""Richtig""-Screen",canvas.Screen,3_0_2_0_4_0_1,NA,NA,skipped,NA,2289739,NA,NA,2289737,2289739,2024-11-23T11:09:11Z,2289746.86,NULL,Beweis,ushahidi,d,NA,NA,NA,NA,sdf,NA,2,NA,NA,NA,NA,NA,NA,NA,NA,NA,NA,NA,NA,NA,NA,NA,NA,NA,NA,NA
96de1,"""Falsch""-Screen",canvas.Screen,3_0_2_0_4_0_2,NA,NA,timeout,4996.1600000001,2289740,2289737.1,2289746.86,2294726.32,2294727,2024-11-23T11:09:16Z,2294743.02,NULL,Beweis,ushahidi,d,NA,NA,NA,NA,sdf,0,2,NA,NA,NA,NA,NA,NA,NA,NA,NA,NA,NA,NA,NA,NA,NA,NA,NA,NA,NA
96de1,deep,flow.Sequence,3_0_2_0_4_0,NA,NA,completion,13089.06,2281627,2281620.54,2281637.26,2294726.32,2294727,2024-11-23T11:09:16Z,2294743.02,NULL,Beweis,ushahidi,d,NA,NA,NA,NA,sdf,NA,2,NA,NA,NA,NA,NA,NA,NA,NA,NA,NA,NA,NA,NA,NA,NA,NA,NA,NA,NA
96de1,shallow,flow.Sequence,3_0_2_0_4_1,NA,NA,skipped,NA,2294727,NA,NA,2294726.32,2294729,2024-11-23T11:09:16Z,2294743.02,NULL,Beweis,ushahidi,d,NA,NA,NA,NA,sdf,NA,2,NA,NA,NA,NA,NA,NA,NA,NA,NA,NA,NA,NA,NA,NA,NA,NA,NA,NA,NA
96de1,task,flow.Sequence,3_0_2_0_4,NA,NA,completion,13089.06,2281627,2281620.54,2281637.26,2294726.32,2294729,2024-11-23T11:09:16Z,2294743.02,NULL,Beweis,ushahidi,d,NA,NA,NA,NA,sdf,NA,2,NA,NA,NA,NA,NA,NA,NA,NA,NA,NA,NA,NA,NA,NA,NA,NA,NA,NA,NA
96de1,Deep Question,html.Page,3_0_2_0_5_0_0,NA,NA,form submission,7178.98,2294729,2294726.32,2294743.02,2301922,2301922,2024-11-23T11:09:23Z,2301936.78,NULL,Inhalt,yaliyomo,d,NA,NA,NA,udhanifu,NA,NA,2,NA,NA,NA,NA,NA,NA,NA,NA,NA,NA,NA,NA,NA,NA,NA,NA,NA,NA,NA
96de1,"""Richtig""-Screen",canvas.Screen,3_0_2_0_5_0_1,NA,NA,skipped,NA,2301923,NA,NA,2301922,2301923,2024-11-23T11:09:23Z,2301936.78,NULL,Inhalt,yaliyomo,d,NA,NA,NA,NA,sdf,NA,2,NA,NA,NA,NA,NA,NA,NA,NA,NA,NA,NA,NA,NA,NA,NA,NA,NA,NA,NA
96de1,"""Falsch""-Screen",canvas.Screen,3_0_2_0_5_0_2,NA,NA,timeout,4996.02,2301924,2301920.86,2301936.78,2306916.16,2306917,2024-11-23T11:09:28Z,2306932.8,NULL,Inhalt,yaliyomo,d,NA,NA,NA,NA,sdf,0,2,NA,NA,NA,NA,NA,NA,NA,NA,NA,NA,NA,NA,NA,NA,NA,NA,NA,NA,NA
96de1,deep,flow.Sequence,3_0_2_0_5_0,NA,NA,completion,12173.14,2294729,2294726.32,2294743.02,2306916.16,2306918,2024-11-23T11:09:28Z,2306932.8,NULL,Inhalt,yaliyomo,d,NA,NA,NA,NA,sdf,NA,2,NA,NA,NA,NA,NA,NA,NA,NA,NA,NA,NA,NA,NA,NA,NA,NA,NA,NA,NA
96de1,shallow,flow.Sequence,3_0_2_0_5_1,NA,NA,skipped,NA,2306918,NA,NA,2306916.16,2306918,2024-11-23T11:09:28Z,2306932.8,NULL,Inhalt,yaliyomo,d,NA,NA,NA,NA,sdf,NA,2,NA,NA,NA,NA,NA,NA,NA,NA,NA,NA,NA,NA,NA,NA,NA,NA,NA,NA,NA
96de1,task,flow.Sequence,3_0_2_0_5,NA,NA,completion,12173.14,2294729,2294726.32,2294743.02,2306916.16,2306919,2024-11-23T11:09:28Z,2306932.8,NULL,Inhalt,yaliyomo,d,NA,NA,NA,NA,sdf,NA,2,NA,NA,NA,NA,NA,NA,NA,NA,NA,NA,NA,NA,NA,NA,NA,NA,NA,NA,NA
96de1,deep,flow.Sequence,3_0_2_0_6_0,NA,NA,skipped,NA,2306919,NA,NA,2306916.16,2306919,2024-11-23T11:09:28Z,2306932.8,NULL,Sympathie,mapendano,s,dhamiria,fungamano,maazimio,NA,sdf,NA,2,NA,NA,NA,NA,NA,NA,NA,NA,NA,NA,NA,NA,NA,NA,NA,NA,NA,NA,NA
96de1,Shallow Question,html.Page,3_0_2_0_6_1_0,NA,NA,form submission,9588.2000000002,2306919,2306916.16,2306932.8,2316521,2316522,2024-11-23T11:09:38Z,2316524.84,NULL,Sympathie,mapendano,s,dhamiria,fungamano,maazimio,mapendano,NA,NA,2,NA,NA,NA,NA,NA,NA,NA,NA,NA,NA,NA,NA,NA,NA,NA,NA,NA,NA,NA
96de1,"""Richtig""-Screen",canvas.Screen,3_0_2_0_6_1_1,NA,NA,timeout,4995.9000000004,2316525,2316517.84,2316524.84,2321504.2,2321505,2024-11-23T11:09:43Z,2321520.74,NULL,Sympathie,mapendano,s,dhamiria,fungamano,maazimio,NA,sdf,1,2,NA,NA,NA,NA,NA,NA,NA,NA,NA,NA,NA,NA,NA,NA,NA,NA,NA,NA,NA
96de1,"""Falsch""-Screen",canvas.Screen,3_0_2_0_6_1_2,NA,NA,skipped,NA,2321510,NA,NA,2321504.2,2321510,2024-11-23T11:09:43Z,2321520.74,NULL,Sympathie,mapendano,s,dhamiria,fungamano,maazimio,NA,sdf,NA,2,NA,NA,NA,NA,NA,NA,NA,NA,NA,NA,NA,NA,NA,NA,NA,NA,NA,NA,NA
96de1,shallow,flow.Sequence,3_0_2_0_6_1,NA,NA,completion,14571.4,2306919,2306916.16,2306932.8,2321504.2,2321510,2024-11-23T11:09:43Z,2321520.74,NULL,Sympathie,mapendano,s,dhamiria,fungamano,maazimio,NA,sdf,NA,2,NA,NA,NA,NA,NA,NA,NA,NA,NA,NA,NA,NA,NA,NA,NA,NA,NA,NA,NA
96de1,task,flow.Sequence,3_0_2_0_6,NA,NA,completion,14571.4,2306919,2306916.16,2306932.8,2321504.2,2321511,2024-11-23T11:09:43Z,2321520.74,NULL,Sympathie,mapendano,s,dhamiria,fungamano,maazimio,NA,sdf,NA,2,NA,NA,NA,NA,NA,NA,NA,NA,NA,NA,NA,NA,NA,NA,NA,NA,NA,NA,NA
96de1,Deep Question,html.Page,3_0_2_0_7_0_0,NA,NA,form submission,7091.2599999998,2321511,2321504.2,2321520.74,2328612,2328612,2024-11-23T11:09:50Z,2328614.9,NULL,Vermutung,udhanifu,d,NA,NA,NA,udhanifu,NA,NA,2,NA,NA,NA,NA,NA,NA,NA,NA,NA,NA,NA,NA,NA,NA,NA,NA,NA,NA,NA
96de1,"""Richtig""-Screen",canvas.Screen,3_0_2_0_7_0_1,NA,NA,timeout,4996.1200000001,2328614,2328610.92,2328614.9,2333594.46,2333596,2024-11-23T11:09:55Z,2333611.02,NULL,Vermutung,udhanifu,d,NA,NA,NA,NA,sdf,1,2,NA,NA,NA,NA,NA,NA,NA,NA,NA,NA,NA,NA,NA,NA,NA,NA,NA,NA,NA
96de1,"""Falsch""-Screen",canvas.Screen,3_0_2_0_7_0_2,NA,NA,skipped,NA,2333600,NA,NA,2333594.46,2333600,2024-11-23T11:09:55Z,2333611.02,NULL,Vermutung,udhanifu,d,NA,NA,NA,NA,sdf,NA,2,NA,NA,NA,NA,NA,NA,NA,NA,NA,NA,NA,NA,NA,NA,NA,NA,NA,NA,NA
96de1,deep,flow.Sequence,3_0_2_0_7_0,NA,NA,completion,12073.72,2321511,2321504.2,2321520.74,2333594.46,2333601,2024-11-23T11:09:55Z,2333611.02,NULL,Vermutung,udhanifu,d,NA,NA,NA,NA,sdf,NA,2,NA,NA,NA,NA,NA,NA,NA,NA,NA,NA,NA,NA,NA,NA,NA,NA,NA,NA,NA
96de1,shallow,flow.Sequence,3_0_2_0_7_1,NA,NA,skipped,NA,2333601,NA,NA,2333594.46,2333601,2024-11-23T11:09:55Z,2333611.02,NULL,Vermutung,udhanifu,d,NA,NA,NA,NA,sdf,NA,2,NA,NA,NA,NA,NA,NA,NA,NA,NA,NA,NA,NA,NA,NA,NA,NA,NA,NA,NA
96de1,task,flow.Sequence,3_0_2_0_7,NA,NA,completion,12073.72,2321511,2321504.2,2321520.74,2333594.46,2333601,2024-11-23T11:09:55Z,2333611.02,NULL,Vermutung,udhanifu,d,NA,NA,NA,NA,sdf,NA,2,NA,NA,NA,NA,NA,NA,NA,NA,NA,NA,NA,NA,NA,NA,NA,NA,NA,NA,NA
96de1,block,flow.Loop,3_0_2_0,NA,NA,completion,97170.2,2236419,2236419.42,2236424.26,2333594.46,2333601,2024-11-23T11:09:55Z,2333611.02,NULL,NA,NA,NA,NA,NA,NA,NA,sdf,NA,2,NA,NA,NA,NA,NA,NA,NA,NA,NA,NA,NA,NA,NA,NA,NA,NA,NA,NA,NA
96de1,weiter,canvas.Screen,3_0_2_1,sdf,keypress(Space),response,1318.98,2333601,2333594.46,2333611.02,2334930,2334947,2024-11-23T11:09:57Z,2334992.9,NULL,NA,NA,NA,NA,NA,NA,NA,sdf,NA,2,NA,NA,NA,NA,NA,NA,NA,NA,NA,NA,NA,NA,NA,NA,NA,NA,NA,NA,NA
96de1,check continue,flow.Sequence,3_0_2,NA,NA,completion,98505.74,2236419,2236419.42,2236424.26,2334930,2334949,2024-11-23T11:09:57Z,2334992.9,NULL,NA,NA,NA,NA,NA,NA,NA,sdf,NA,2,NA,NA,NA,NA,NA,NA,NA,NA,NA,NA,NA,NA,NA,NA,NA,NA,NA,NA,NA
96de1,Deep Question,html.Page,3_0_3_0_0_0_0,NA,NA,form submission,4955.1000000001,2334990,2334990.5,2334992.9,2339948,2339948,2024-11-23T11:10:02Z,2339955.44,NULL,Beweis,ushahidi,d,NA,NA,NA,udhanifu,NA,NA,3,NA,NA,NA,NA,NA,NA,NA,NA,NA,NA,NA,NA,NA,NA,NA,NA,NA,NA,NA
96de1,"""Richtig""-Screen",canvas.Screen,3_0_3_0_0_0_1,NA,NA,skipped,NA,2339950,NA,NA,2339948,2339950,2024-11-23T11:10:02Z,2339955.44,NULL,Beweis,ushahidi,d,NA,NA,NA,NA,qt,NA,3,NA,NA,NA,NA,NA,NA,NA,NA,NA,NA,NA,NA,NA,NA,NA,NA,NA,NA,NA
96de1,"""Falsch""-Screen",canvas.Screen,3_0_3_0_0_0_2,NA,NA,timeout,4995.9399999999,2339951,2339946.86,2339955.44,2344934.8,2344935,2024-11-23T11:10:06Z,2344951.38,NULL,Beweis,ushahidi,d,NA,NA,NA,NA,qt,0,3,NA,NA,NA,NA,NA,NA,NA,NA,NA,NA,NA,NA,NA,NA,NA,NA,NA,NA,NA
96de1,deep,flow.Sequence,3_0_3_0_0_0,NA,NA,completion,9941.8999999999,2334990,2334990.5,2334992.9,2344934.8,2344935,2024-11-23T11:10:07Z,2344951.38,NULL,Beweis,ushahidi,d,NA,NA,NA,NA,qt,NA,3,NA,NA,NA,NA,NA,NA,NA,NA,NA,NA,NA,NA,NA,NA,NA,NA,NA,NA,NA
96de1,shallow,flow.Sequence,3_0_3_0_0_1,NA,NA,skipped,NA,2344935,NA,NA,2344934.8,2344936,2024-11-23T11:10:07Z,2344951.38,NULL,Beweis,ushahidi,d,NA,NA,NA,NA,qt,NA,3,NA,NA,NA,NA,NA,NA,NA,NA,NA,NA,NA,NA,NA,NA,NA,NA,NA,NA,NA
96de1,task,flow.Sequence,3_0_3_0_0,NA,NA,completion,9941.8999999999,2334990,2334990.5,2334992.9,2344934.8,2344936,2024-11-23T11:10:07Z,2344951.38,NULL,Beweis,ushahidi,d,NA,NA,NA,NA,qt,NA,3,NA,NA,NA,NA,NA,NA,NA,NA,NA,NA,NA,NA,NA,NA,NA,NA,NA,NA,NA
96de1,deep,flow.Sequence,3_0_3_0_1_0,NA,NA,skipped,NA,2344936,NA,NA,2344934.8,2344936,2024-11-23T11:10:07Z,2344951.38,NULL,Schlange,foleni,s,uvumilivu,uteuzi,muuzaji,NA,qt,NA,3,NA,NA,NA,NA,NA,NA,NA,NA,NA,NA,NA,NA,NA,NA,NA,NA,NA,NA,NA
96de1,Shallow Question,html.Page,3_0_3_0_1_1_0,NA,NA,form submission,4787.6200000001,2344936,2344934.8,2344951.38,2349739,2349740,2024-11-23T11:10:11Z,2349747.46,NULL,Schlange,foleni,s,uvumilivu,uteuzi,muuzaji,foleni,NA,NA,3,NA,NA,NA,NA,NA,NA,NA,NA,NA,NA,NA,NA,NA,NA,NA,NA,NA,NA,NA
96de1,"""Richtig""-Screen",canvas.Screen,3_0_3_0_1_1_1,NA,NA,timeout,4995.8799999999,2349744,2349736.38,2349747.46,2354726.62,2354727,2024-11-23T11:10:16Z,2354743.34,NULL,Schlange,foleni,s,uvumilivu,uteuzi,muuzaji,NA,qt,1,3,NA,NA,NA,NA,NA,NA,NA,NA,NA,NA,NA,NA,NA,NA,NA,NA,NA,NA,NA
96de1,"""Falsch""-Screen",canvas.Screen,3_0_3_0_1_1_2,NA,NA,skipped,NA,2354729,NA,NA,2354726.62,2354729,2024-11-23T11:10:16Z,2354743.34,NULL,Schlange,foleni,s,uvumilivu,uteuzi,muuzaji,NA,qt,NA,3,NA,NA,NA,NA,NA,NA,NA,NA,NA,NA,NA,NA,NA,NA,NA,NA,NA,NA,NA
96de1,shallow,flow.Sequence,3_0_3_0_1_1,NA,NA,completion,9775.2400000002,2344936,2344934.8,2344951.38,2354726.62,2354729,2024-11-23T11:10:16Z,2354743.34,NULL,Schlange,foleni,s,uvumilivu,uteuzi,muuzaji,NA,qt,NA,3,NA,NA,NA,NA,NA,NA,NA,NA,NA,NA,NA,NA,NA,NA,NA,NA,NA,NA,NA
96de1,task,flow.Sequence,3_0_3_0_1,NA,NA,completion,9775.2400000002,2344936,2344934.8,2344951.38,2354726.62,2354729,2024-11-23T11:10:16Z,2354743.34,NULL,Schlange,foleni,s,uvumilivu,uteuzi,muuzaji,NA,qt,NA,3,NA,NA,NA,NA,NA,NA,NA,NA,NA,NA,NA,NA,NA,NA,NA,NA,NA,NA,NA
96de1,deep,flow.Sequence,3_0_3_0_2_0,NA,NA,skipped,NA,2354729,NA,NA,2354726.62,2354729,2024-11-23T11:10:16Z,2354743.34,NULL,Annäherung,maegesho,s,madahili,kujiamini,mapendekezo,NA,qt,NA,3,NA,NA,NA,NA,NA,NA,NA,NA,NA,NA,NA,NA,NA,NA,NA,NA,NA,NA,NA
96de1,Shallow Question,html.Page,3_0_3_0_2_1_0,NA,NA,form submission,7283.6600000001,2354729,2354726.62,2354743.34,2362027,2362027,2024-11-23T11:10:24Z,2362037.1,NULL,Annäherung,maegesho,s,madahili,kujiamini,mapendekezo,maegesho,NA,NA,3,NA,NA,NA,NA,NA,NA,NA,NA,NA,NA,NA,NA,NA,NA,NA,NA,NA,NA,NA
96de1,"""Richtig""-Screen",canvas.Screen,3_0_3_0_2_1_1,NA,NA,timeout,4996.4199999999,2362031,2362023.62,2362037.1,2367016.82,2367017,2024-11-23T11:10:29Z,2367033.52,NULL,Annäherung,maegesho,s,madahili,kujiamini,mapendekezo,NA,qt,1,3,NA,NA,NA,NA,NA,NA,NA,NA,NA,NA,NA,NA,NA,NA,NA,NA,NA,NA,NA
96de1,"""Falsch""-Screen",canvas.Screen,3_0_3_0_2_1_2,NA,NA,skipped,NA,2367019,NA,NA,2367016.82,2367019,2024-11-23T11:10:29Z,2367033.52,NULL,Annäherung,maegesho,s,madahili,kujiamini,mapendekezo,NA,qt,NA,3,NA,NA,NA,NA,NA,NA,NA,NA,NA,NA,NA,NA,NA,NA,NA,NA,NA,NA,NA
96de1,shallow,flow.Sequence,3_0_3_0_2_1,NA,NA,completion,12273.48,2354729,2354726.62,2354743.34,2367016.82,2367019,2024-11-23T11:10:29Z,2367033.52,NULL,Annäherung,maegesho,s,madahili,kujiamini,mapendekezo,NA,qt,NA,3,NA,NA,NA,NA,NA,NA,NA,NA,NA,NA,NA,NA,NA,NA,NA,NA,NA,NA,NA
96de1,task,flow.Sequence,3_0_3_0_2,NA,NA,completion,12273.48,2354729,2354726.62,2354743.34,2367016.82,2367019,2024-11-23T11:10:29Z,2367033.52,NULL,Annäherung,maegesho,s,madahili,kujiamini,mapendekezo,NA,qt,NA,3,NA,NA,NA,NA,NA,NA,NA,NA,NA,NA,NA,NA,NA,NA,NA,NA,NA,NA,NA
96de1,Deep Question,html.Page,3_0_3_0_3_0_0,NA,NA,form submission,7143.48,2367020,2367016.82,2367033.52,2374177,2374178,2024-11-23T11:10:36Z,2374177.18,NULL,Inhalt,yaliyomo,d,NA,NA,NA,yaliyomo,NA,NA,3,NA,NA,NA,NA,NA,NA,NA,NA,NA,NA,NA,NA,NA,NA,NA,NA,NA,NA,NA
96de1,"""Richtig""-Screen",canvas.Screen,3_0_3_0_3_0_1,NA,NA,timeout,4996.2999999998,2374179,2374176.96,2374177.18,2379156.76,2379158,2024-11-23T11:10:41Z,2379173.48,NULL,Inhalt,yaliyomo,d,NA,NA,NA,NA,qt,1,3,NA,NA,NA,NA,NA,NA,NA,NA,NA,NA,NA,NA,NA,NA,NA,NA,NA,NA,NA
96de1,"""Falsch""-Screen",canvas.Screen,3_0_3_0_3_0_2,NA,NA,skipped,NA,2379163,NA,NA,2379156.76,2379163,2024-11-23T11:10:41Z,2379173.48,NULL,Inhalt,yaliyomo,d,NA,NA,NA,NA,qt,NA,3,NA,NA,NA,NA,NA,NA,NA,NA,NA,NA,NA,NA,NA,NA,NA,NA,NA,NA,NA
96de1,deep,flow.Sequence,3_0_3_0_3_0,NA,NA,completion,12123.24,2367020,2367016.82,2367033.52,2379156.76,2379163,2024-11-23T11:10:41Z,2379173.48,NULL,Inhalt,yaliyomo,d,NA,NA,NA,NA,qt,NA,3,NA,NA,NA,NA,NA,NA,NA,NA,NA,NA,NA,NA,NA,NA,NA,NA,NA,NA,NA
96de1,shallow,flow.Sequence,3_0_3_0_3_1,NA,NA,skipped,NA,2379163,NA,NA,2379156.76,2379163,2024-11-23T11:10:41Z,2379173.48,NULL,Inhalt,yaliyomo,d,NA,NA,NA,NA,qt,NA,3,NA,NA,NA,NA,NA,NA,NA,NA,NA,NA,NA,NA,NA,NA,NA,NA,NA,NA,NA
96de1,task,flow.Sequence,3_0_3_0_3,NA,NA,completion,12123.24,2367020,2367016.82,2367033.52,2379156.76,2379163,2024-11-23T11:10:41Z,2379173.48,NULL,Inhalt,yaliyomo,d,NA,NA,NA,NA,qt,NA,3,NA,NA,NA,NA,NA,NA,NA,NA,NA,NA,NA,NA,NA,NA,NA,NA,NA,NA,NA
96de1,deep,flow.Sequence,3_0_3_0_4_0,NA,NA,skipped,NA,2379163,NA,NA,2379156.76,2379163,2024-11-23T11:10:41Z,2379173.48,NULL,Toleranz,kuvumiliana,s,maombolezo,ujasusi,mchekeshaji,NA,qt,NA,3,NA,NA,NA,NA,NA,NA,NA,NA,NA,NA,NA,NA,NA,NA,NA,NA,NA,NA,NA
96de1,Shallow Question,html.Page,3_0_3_0_4_1_0,NA,NA,form submission,10509.52,2379163,2379156.76,2379173.48,2389683,2389684,2024-11-23T11:10:51Z,2389681.18,NULL,Toleranz,kuvumiliana,s,maombolezo,ujasusi,mchekeshaji,kuvumiliana,NA,NA,3,NA,NA,NA,NA,NA,NA,NA,NA,NA,NA,NA,NA,NA,NA,NA,NA,NA,NA,NA
96de1,"""Richtig""-Screen",canvas.Screen,3_0_3_0_4_1_1,NA,NA,timeout,4995.7999999998,2389688,2389680.5,2389681.18,2394660.44,2394665,2024-11-23T11:10:56Z,2394676.98,NULL,Toleranz,kuvumiliana,s,maombolezo,ujasusi,mchekeshaji,NA,qt,1,3,NA,NA,NA,NA,NA,NA,NA,NA,NA,NA,NA,NA,NA,NA,NA,NA,NA,NA,NA
96de1,"""Falsch""-Screen",canvas.Screen,3_0_3_0_4_1_2,NA,NA,skipped,NA,2394677,NA,NA,2394660.44,2394677,2024-11-23T11:10:56Z,2394676.98,NULL,Toleranz,kuvumiliana,s,maombolezo,ujasusi,mchekeshaji,NA,qt,NA,3,NA,NA,NA,NA,NA,NA,NA,NA,NA,NA,NA,NA,NA,NA,NA,NA,NA,NA,NA
96de1,shallow,flow.Sequence,3_0_3_0_4_1,NA,NA,completion,15486.96,2379163,2379156.76,2379173.48,2394660.44,2394677,2024-11-23T11:10:56Z,2394676.98,NULL,Toleranz,kuvumiliana,s,maombolezo,ujasusi,mchekeshaji,NA,qt,NA,3,NA,NA,NA,NA,NA,NA,NA,NA,NA,NA,NA,NA,NA,NA,NA,NA,NA,NA,NA
96de1,task,flow.Sequence,3_0_3_0_4,NA,NA,completion,15486.96,2379163,2379156.76,2379173.48,2394660.44,2394677,2024-11-23T11:10:56Z,2394676.98,NULL,Toleranz,kuvumiliana,s,maombolezo,ujasusi,mchekeshaji,NA,qt,NA,3,NA,NA,NA,NA,NA,NA,NA,NA,NA,NA,NA,NA,NA,NA,NA,NA,NA,NA,NA
96de1,Deep Question,html.Page,3_0_3_0_5_0_0,NA,NA,form submission,8090.02,2394678,2394660.44,2394676.98,2402767,2402768,2024-11-23T11:11:04Z,2402770.32,NULL,Polizist,msongora,d,NA,NA,NA,msongora,NA,NA,3,NA,NA,NA,NA,NA,NA,NA,NA,NA,NA,NA,NA,NA,NA,NA,NA,NA,NA,NA
96de1,"""Richtig""-Screen",canvas.Screen,3_0_3_0_5_0_1,NA,NA,timeout,4995.9399999999,2402770,2402766.38,2402770.32,2407749.86,2407751,2024-11-23T11:11:09Z,2407766.26,NULL,Polizist,msongora,d,NA,NA,NA,NA,qt,1,3,NA,NA,NA,NA,NA,NA,NA,NA,NA,NA,NA,NA,NA,NA,NA,NA,NA,NA,NA
96de1,"""Falsch""-Screen",canvas.Screen,3_0_3_0_5_0_2,NA,NA,skipped,NA,2407755,NA,NA,2407749.86,2407755,2024-11-23T11:11:09Z,2407766.26,NULL,Polizist,msongora,d,NA,NA,NA,NA,qt,NA,3,NA,NA,NA,NA,NA,NA,NA,NA,NA,NA,NA,NA,NA,NA,NA,NA,NA,NA,NA
96de1,deep,flow.Sequence,3_0_3_0_5_0,NA,NA,completion,13072.88,2394678,2394660.44,2394676.98,2407749.86,2407756,2024-11-23T11:11:09Z,2407766.26,NULL,Polizist,msongora,d,NA,NA,NA,NA,qt,NA,3,NA,NA,NA,NA,NA,NA,NA,NA,NA,NA,NA,NA,NA,NA,NA,NA,NA,NA,NA
96de1,shallow,flow.Sequence,3_0_3_0_5_1,NA,NA,skipped,NA,2407757,NA,NA,2407749.86,2407757,2024-11-23T11:11:09Z,2407766.26,NULL,Polizist,msongora,d,NA,NA,NA,NA,qt,NA,3,NA,NA,NA,NA,NA,NA,NA,NA,NA,NA,NA,NA,NA,NA,NA,NA,NA,NA,NA
96de1,task,flow.Sequence,3_0_3_0_5,NA,NA,completion,13072.88,2394678,2394660.44,2394676.98,2407749.86,2407757,2024-11-23T11:11:09Z,2407766.26,NULL,Polizist,msongora,d,NA,NA,NA,NA,qt,NA,3,NA,NA,NA,NA,NA,NA,NA,NA,NA,NA,NA,NA,NA,NA,NA,NA,NA,NA,NA
96de1,Deep Question,html.Page,3_0_3_0_6_0_0,NA,NA,form submission,9061.7400000002,2407757,2407749.86,2407766.26,2416828,2416828,2024-11-23T11:11:18Z,2416842.02,NULL,Vermutung,udhanifu,d,NA,NA,NA,udhanifu,NA,NA,3,NA,NA,NA,NA,NA,NA,NA,NA,NA,NA,NA,NA,NA,NA,NA,NA,NA,NA,NA
96de1,"""Richtig""-Screen",canvas.Screen,3_0_3_0_6_0_1,NA,NA,timeout,4996.0600000001,2416829,2416827.3,2416842.02,2421821.38,2421823,2024-11-23T11:11:23Z,2421838.08,NULL,Vermutung,udhanifu,d,NA,NA,NA,NA,qt,1,3,NA,NA,NA,NA,NA,NA,NA,NA,NA,NA,NA,NA,NA,NA,NA,NA,NA,NA,NA
96de1,"""Falsch""-Screen",canvas.Screen,3_0_3_0_6_0_2,NA,NA,skipped,NA,2421828,NA,NA,2421821.38,2421828,2024-11-23T11:11:23Z,2421838.08,NULL,Vermutung,udhanifu,d,NA,NA,NA,NA,qt,NA,3,NA,NA,NA,NA,NA,NA,NA,NA,NA,NA,NA,NA,NA,NA,NA,NA,NA,NA,NA
96de1,deep,flow.Sequence,3_0_3_0_6_0,NA,NA,completion,14055.12,2407757,2407749.86,2407766.26,2421821.38,2421828,2024-11-23T11:11:23Z,2421838.08,NULL,Vermutung,udhanifu,d,NA,NA,NA,NA,qt,NA,3,NA,NA,NA,NA,NA,NA,NA,NA,NA,NA,NA,NA,NA,NA,NA,NA,NA,NA,NA
96de1,shallow,flow.Sequence,3_0_3_0_6_1,NA,NA,skipped,NA,2421828,NA,NA,2421821.38,2421828,2024-11-23T11:11:23Z,2421838.08,NULL,Vermutung,udhanifu,d,NA,NA,NA,NA,qt,NA,3,NA,NA,NA,NA,NA,NA,NA,NA,NA,NA,NA,NA,NA,NA,NA,NA,NA,NA,NA
96de1,task,flow.Sequence,3_0_3_0_6,NA,NA,completion,14055.12,2407757,2407749.86,2407766.26,2421821.38,2421828,2024-11-23T11:11:23Z,2421838.08,NULL,Vermutung,udhanifu,d,NA,NA,NA,NA,qt,NA,3,NA,NA,NA,NA,NA,NA,NA,NA,NA,NA,NA,NA,NA,NA,NA,NA,NA,NA,NA
96de1,deep,flow.Sequence,3_0_3_0_7_0,NA,NA,skipped,NA,2421828,NA,NA,2421821.38,2421828,2024-11-23T11:11:23Z,2421838.08,NULL,Sympathie,mapendano,s,dhamiria,fungamano,maazimio,NA,qt,NA,3,NA,NA,NA,NA,NA,NA,NA,NA,NA,NA,NA,NA,NA,NA,NA,NA,NA,NA,NA
96de1,Shallow Question,html.Page,3_0_3_0_7_1_0,NA,NA,form submission,6459.9199999999,2421829,2421821.38,2421838.08,2428298,2428299,2024-11-23T11:11:30Z,2428299.24,NULL,Sympathie,mapendano,s,dhamiria,fungamano,maazimio,mapendano,NA,NA,3,NA,NA,NA,NA,NA,NA,NA,NA,NA,NA,NA,NA,NA,NA,NA,NA,NA,NA,NA
96de1,"""Richtig""-Screen",canvas.Screen,3_0_3_0_7_1_1,NA,NA,timeout,4996,2428303,2428295.16,2428299.24,2433278.54,2433279,2024-11-23T11:11:35Z,2433295.24,NULL,Sympathie,mapendano,s,dhamiria,fungamano,maazimio,NA,qt,1,3,NA,NA,NA,NA,NA,NA,NA,NA,NA,NA,NA,NA,NA,NA,NA,NA,NA,NA,NA
96de1,"""Falsch""-Screen",canvas.Screen,3_0_3_0_7_1_2,NA,NA,skipped,NA,2433284,NA,NA,2433278.54,2433285,2024-11-23T11:11:35Z,2433295.24,NULL,Sympathie,mapendano,s,dhamiria,fungamano,maazimio,NA,qt,NA,3,NA,NA,NA,NA,NA,NA,NA,NA,NA,NA,NA,NA,NA,NA,NA,NA,NA,NA,NA
96de1,shallow,flow.Sequence,3_0_3_0_7_1,NA,NA,completion,11440.46,2421828,2421821.38,2421838.08,2433278.54,2433285,2024-11-23T11:11:35Z,2433295.24,NULL,Sympathie,mapendano,s,dhamiria,fungamano,maazimio,NA,qt,NA,3,NA,NA,NA,NA,NA,NA,NA,NA,NA,NA,NA,NA,NA,NA,NA,NA,NA,NA,NA
96de1,task,flow.Sequence,3_0_3_0_7,NA,NA,completion,11440.46,2421828,2421821.38,2421838.08,2433278.54,2433285,2024-11-23T11:11:35Z,2433295.24,NULL,Sympathie,mapendano,s,dhamiria,fungamano,maazimio,NA,qt,NA,3,NA,NA,NA,NA,NA,NA,NA,NA,NA,NA,NA,NA,NA,NA,NA,NA,NA,NA,NA
96de1,block,flow.Loop,3_0_3_0,NA,NA,completion,98285.64,2334990,2334990.5,2334992.9,2433278.54,2433285,2024-11-23T11:11:35Z,2433295.24,NULL,NA,NA,NA,NA,NA,NA,NA,qt,NA,3,NA,NA,NA,NA,NA,NA,NA,NA,NA,NA,NA,NA,NA,NA,NA,NA,NA,NA,NA
96de1,weiter,canvas.Screen,3_0_3_1,sdf,keypress(Space),response,979.75999999978,2433285,2433278.54,2433295.24,2434275,2434280,2024-11-23T11:11:36Z,2434960.4,NULL,NA,NA,NA,NA,NA,NA,NA,qt,NA,3,NA,NA,NA,NA,NA,NA,NA,NA,NA,NA,NA,NA,NA,NA,NA,NA,NA,NA,NA
96de1,check continue,flow.Sequence,3_0_3,NA,NA,completion,99282.1,2334990,2334990.5,2334992.9,2434275,2434280,2024-11-23T11:11:36Z,2434960.4,NULL,NA,NA,NA,NA,NA,NA,NA,qt,NA,3,NA,NA,NA,NA,NA,NA,NA,NA,NA,NA,NA,NA,NA,NA,NA,NA,NA,NA,NA
96de1,check continue,flow.Sequence,3_0_4,NA,NA,skipped,NA,2434313,NA,NA,2434275,2434313,2024-11-23T11:11:36Z,2434960.4,NULL,NA,NA,NA,NA,NA,NA,NA,sd,NA,4,NA,NA,NA,NA,NA,NA,NA,NA,NA,NA,NA,NA,NA,NA,NA,NA,NA,NA,NA
96de1,check continue,flow.Sequence,3_0_5,NA,NA,skipped,NA,2434341,NA,NA,2434275,2434341,2024-11-23T11:11:36Z,2434960.4,NULL,NA,NA,NA,NA,NA,NA,NA,sdf,NA,5,NA,NA,NA,NA,NA,NA,NA,NA,NA,NA,NA,NA,NA,NA,NA,NA,NA,NA,NA
96de1,check continue,flow.Sequence,3_0_6,NA,NA,skipped,NA,2434369,NA,NA,2434275,2434369,2024-11-23T11:11:36Z,2434960.4,NULL,NA,NA,NA,NA,NA,NA,NA,dfs,NA,6,NA,NA,NA,NA,NA,NA,NA,NA,NA,NA,NA,NA,NA,NA,NA,NA,NA,NA,NA
96de1,check continue,flow.Sequence,3_0_7,NA,NA,skipped,NA,2434396,NA,NA,2434275,2434396,2024-11-23T11:11:36Z,2434960.4,NULL,NA,NA,NA,NA,NA,NA,NA,df,NA,7,NA,NA,NA,NA,NA,NA,NA,NA,NA,NA,NA,NA,NA,NA,NA,NA,NA,NA,NA
96de1,check continue,flow.Sequence,3_0_8,NA,NA,skipped,NA,2434424,NA,NA,2434275,2434424,2024-11-23T11:11:36Z,2434960.4,NULL,NA,NA,NA,NA,NA,NA,NA,dfs,NA,8,NA,NA,NA,NA,NA,NA,NA,NA,NA,NA,NA,NA,NA,NA,NA,NA,NA,NA,NA
96de1,check continue,flow.Sequence,3_0_9,NA,NA,skipped,NA,2434449,NA,NA,2434275,2434449,2024-11-23T11:11:36Z,2434960.4,NULL,NA,NA,NA,NA,NA,NA,NA,dsf,NA,9,NA,NA,NA,NA,NA,NA,NA,NA,NA,NA,NA,NA,NA,NA,NA,NA,NA,NA,NA
96de1,check continue,flow.Sequence,3_0_10,NA,NA,skipped,NA,2434475,NA,NA,2434275,2434475,2024-11-23T11:11:36Z,2434960.4,NULL,NA,NA,NA,NA,NA,NA,NA,df,NA,10,NA,NA,NA,NA,NA,NA,NA,NA,NA,NA,NA,NA,NA,NA,NA,NA,NA,NA,NA
96de1,check continue,flow.Sequence,3_0_11,NA,NA,skipped,NA,2434500,NA,NA,2434275,2434500,2024-11-23T11:11:36Z,2434960.4,NULL,NA,NA,NA,NA,NA,NA,NA,dfs,NA,11,NA,NA,NA,NA,NA,NA,NA,NA,NA,NA,NA,NA,NA,NA,NA,NA,NA,NA,NA
96de1,check continue,flow.Sequence,3_0_12,NA,NA,skipped,NA,2434529,NA,NA,2434275,2434529,2024-11-23T11:11:36Z,2434960.4,NULL,NA,NA,NA,NA,NA,NA,NA,dsf,NA,12,NA,NA,NA,NA,NA,NA,NA,NA,NA,NA,NA,NA,NA,NA,NA,NA,NA,NA,NA
96de1,check continue,flow.Sequence,3_0_13,NA,NA,skipped,NA,2434553,NA,NA,2434275,2434553,2024-11-23T11:11:36Z,2434960.4,NULL,NA,NA,NA,NA,NA,NA,NA,dsf,NA,13,NA,NA,NA,NA,NA,NA,NA,NA,NA,NA,NA,NA,NA,NA,NA,NA,NA,NA,NA
96de1,check continue,flow.Sequence,3_0_14,NA,NA,skipped,NA,2434576,NA,NA,2434275,2434576,2024-11-23T11:11:36Z,2434960.4,NULL,NA,NA,NA,NA,NA,NA,NA,NA,NA,14,NA,NA,NA,NA,NA,NA,NA,NA,NA,NA,NA,NA,NA,NA,NA,NA,NA,NA,NA
96de1,check continue,flow.Sequence,3_0_15,NA,NA,skipped,NA,2434604,NA,NA,2434275,2434604,2024-11-23T11:11:36Z,2434960.4,NULL,NA,NA,NA,NA,NA,NA,NA,NA,NA,15,NA,NA,NA,NA,NA,NA,NA,NA,NA,NA,NA,NA,NA,NA,NA,NA,NA,NA,NA
96de1,check continue,flow.Sequence,3_0_16,NA,NA,skipped,NA,2434627,NA,NA,2434275,2434627,2024-11-23T11:11:36Z,2434960.4,NULL,NA,NA,NA,NA,NA,NA,NA,NA,NA,16,NA,NA,NA,NA,NA,NA,NA,NA,NA,NA,NA,NA,NA,NA,NA,NA,NA,NA,NA
96de1,check continue,flow.Sequence,3_0_17,NA,NA,skipped,NA,2434652,NA,NA,2434275,2434652,2024-11-23T11:11:36Z,2434960.4,NULL,NA,NA,NA,NA,NA,NA,NA,NA,NA,17,NA,NA,NA,NA,NA,NA,NA,NA,NA,NA,NA,NA,NA,NA,NA,NA,NA,NA,NA
96de1,check continue,flow.Sequence,3_0_18,NA,NA,skipped,NA,2434677,NA,NA,2434275,2434677,2024-11-23T11:11:36Z,2434960.4,NULL,NA,NA,NA,NA,NA,NA,NA,NA,NA,18,NA,NA,NA,NA,NA,NA,NA,NA,NA,NA,NA,NA,NA,NA,NA,NA,NA,NA,NA
96de1,check continue,flow.Sequence,3_0_19,NA,NA,skipped,NA,2434704,NA,NA,2434275,2434704,2024-11-23T11:11:36Z,2434960.4,NULL,NA,NA,NA,NA,NA,NA,NA,NA,NA,19,NA,NA,NA,NA,NA,NA,NA,NA,NA,NA,NA,NA,NA,NA,NA,NA,NA,NA,NA
96de1,check continue,flow.Sequence,3_0_20,NA,NA,skipped,NA,2434733,NA,NA,2434275,2434733,2024-11-23T11:11:36Z,2434960.4,NULL,NA,NA,NA,NA,NA,NA,NA,NA,NA,20,NA,NA,NA,NA,NA,NA,NA,NA,NA,NA,NA,NA,NA,NA,NA,NA,NA,NA,NA
96de1,check continue,flow.Sequence,3_0_21,NA,NA,skipped,NA,2434757,NA,NA,2434275,2434757,2024-11-23T11:11:36Z,2434960.4,NULL,NA,NA,NA,NA,NA,NA,NA,NA,NA,21,NA,NA,NA,NA,NA,NA,NA,NA,NA,NA,NA,NA,NA,NA,NA,NA,NA,NA,NA
96de1,check continue,flow.Sequence,3_0_22,NA,NA,skipped,NA,2434781,NA,NA,2434275,2434781,2024-11-23T11:11:36Z,2434960.4,NULL,NA,NA,NA,NA,NA,NA,NA,NA,NA,22,NA,NA,NA,NA,NA,NA,NA,NA,NA,NA,NA,NA,NA,NA,NA,NA,NA,NA,NA
96de1,check continue,flow.Sequence,3_0_23,NA,NA,skipped,NA,2434804,NA,NA,2434275,2434804,2024-11-23T11:11:36Z,2434960.4,NULL,NA,NA,NA,NA,NA,NA,NA,NA,NA,23,NA,NA,NA,NA,NA,NA,NA,NA,NA,NA,NA,NA,NA,NA,NA,NA,NA,NA,NA
96de1,check continue,flow.Sequence,3_0_24,NA,NA,skipped,NA,2434828,NA,NA,2434275,2434828,2024-11-23T11:11:36Z,2434960.4,NULL,NA,NA,NA,NA,NA,NA,NA,NA,NA,24,NA,NA,NA,NA,NA,NA,NA,NA,NA,NA,NA,NA,NA,NA,NA,NA,NA,NA,NA
96de1,check continue,flow.Sequence,3_0_25,NA,NA,skipped,NA,2434854,NA,NA,2434275,2434854,2024-11-23T11:11:36Z,2434960.4,NULL,NA,NA,NA,NA,NA,NA,NA,NA,NA,25,NA,NA,NA,NA,NA,NA,NA,NA,NA,NA,NA,NA,NA,NA,NA,NA,NA,NA,NA
96de1,check continue,flow.Sequence,3_0_26,NA,NA,skipped,NA,2434877,NA,NA,2434275,2434877,2024-11-23T11:11:36Z,2434960.4,NULL,NA,NA,NA,NA,NA,NA,NA,NA,NA,26,NA,NA,NA,NA,NA,NA,NA,NA,NA,NA,NA,NA,NA,NA,NA,NA,NA,NA,NA
96de1,check continue,flow.Sequence,3_0_27,NA,NA,skipped,NA,2434901,NA,NA,2434275,2434901,2024-11-23T11:11:36Z,2434960.4,NULL,NA,NA,NA,NA,NA,NA,NA,NA,NA,27,NA,NA,NA,NA,NA,NA,NA,NA,NA,NA,NA,NA,NA,NA,NA,NA,NA,NA,NA
96de1,check continue,flow.Sequence,3_0_28,NA,NA,skipped,NA,2434923,NA,NA,2434275,2434923,2024-11-23T11:11:36Z,2434960.4,NULL,NA,NA,NA,NA,NA,NA,NA,NA,NA,28,NA,NA,NA,NA,NA,NA,NA,NA,NA,NA,NA,NA,NA,NA,NA,NA,NA,NA,NA
96de1,check continue,flow.Sequence,3_0_29,NA,NA,skipped,NA,2434947,NA,NA,2434275,2434947,2024-11-23T11:11:37Z,2434960.4,NULL,NA,NA,NA,NA,NA,NA,NA,NA,NA,29,NA,NA,NA,NA,NA,NA,NA,NA,NA,NA,NA,NA,NA,NA,NA,NA,NA,NA,NA
96de1,until continue,flow.Loop,3_0,NA,NA,completion,397286.3,2036952,2036983.34,2036988.7,2434275,2434947,2024-11-23T11:11:37Z,2434960.4,NULL,NA,NA,NA,NA,NA,NA,NA,NA,NA,NA,NA,NA,NA,NA,NA,NA,NA,NA,NA,NA,NA,NA,NA,NA,NA,NA,NA,NA,NA
96de1,block 1,flow.Sequence,3,NA,NA,completion,397286.3,2036952,2036983.34,2036988.7,2434275,2434947,2024-11-23T11:11:37Z,2434960.4,NULL,NA,NA,NA,NA,NA,NA,NA,NA,NA,NA,NA,NA,NA,NA,NA,NA,NA,NA,NA,NA,NA,NA,NA,NA,NA,NA,NA,NA,NA
96de1,1.Part Over,canvas.Screen,4,NA,keypress(Space),response,1469.6000000001,2434947,2434946.54,2434960.4,2436430,2436446,2024-11-23T11:11:38Z,2436509.06,NULL,NA,NA,NA,NA,NA,NA,NA,NA,NA,NA,NA,NA,NA,NA,NA,NA,NA,NA,NA,NA,NA,NA,NA,NA,NA,NA,NA,NA,NA
96de1,Deep Question,html.Page,5_0_0_0_0_0_0,NA,NA,form submission,5793.9399999999,2436494,2436493.7,2436509.06,2442303,2442304,2024-11-23T11:11:44Z,2442304.36,NULL,Wettbewerb,ushindani,d,NA,NA,NA,chunio,NA,NA,0,NA,NA,NA,NA,NA,NA,NA,NA,NA,NA,NA,NA,NA,NA,NA,NA,NA,NA,NA
96de1,"""Richtig""-Screen",canvas.Screen,5_0_0_0_0_0_1,NA,NA,skipped,NA,2442305,NA,NA,2442303,2442305,2024-11-23T11:11:44Z,2442304.36,NULL,Wettbewerb,ushindani,d,NA,NA,NA,NA,sdf,NA,0,NA,NA,NA,NA,NA,NA,NA,NA,NA,NA,NA,NA,NA,NA,NA,NA,NA,NA,NA
96de1,"""Falsch""-Screen",canvas.Screen,5_0_0_0_0_0_2,NA,NA,timeout,4995.96,2442307,2442302.16,2442304.36,2447283.88,2447285,2024-11-23T11:11:49Z,2447300.32,NULL,Wettbewerb,ushindani,d,NA,NA,NA,NA,sdf,0,0,NA,NA,NA,NA,NA,NA,NA,NA,NA,NA,NA,NA,NA,NA,NA,NA,NA,NA,NA
96de1,deep,flow.Sequence,5_0_0_0_0_0,NA,NA,completion,10774.82,2436494,2436493.7,2436509.06,2447283.88,2447285,2024-11-23T11:11:49Z,2447300.32,NULL,Wettbewerb,ushindani,d,NA,NA,NA,NA,sdf,NA,0,NA,NA,NA,NA,NA,NA,NA,NA,NA,NA,NA,NA,NA,NA,NA,NA,NA,NA,NA
96de1,shallow,flow.Sequence,5_0_0_0_0_1,NA,NA,skipped,NA,2447286,NA,NA,2447283.88,2447286,2024-11-23T11:11:49Z,2447300.32,NULL,Wettbewerb,ushindani,d,NA,NA,NA,NA,sdf,NA,0,NA,NA,NA,NA,NA,NA,NA,NA,NA,NA,NA,NA,NA,NA,NA,NA,NA,NA,NA
96de1,task,flow.Sequence,5_0_0_0_0,NA,NA,completion,10774.82,2436494,2436493.7,2436509.06,2447283.88,2447286,2024-11-23T11:11:49Z,2447300.32,NULL,Wettbewerb,ushindani,d,NA,NA,NA,NA,sdf,NA,0,NA,NA,NA,NA,NA,NA,NA,NA,NA,NA,NA,NA,NA,NA,NA,NA,NA,NA,NA
96de1,Deep Question,html.Page,5_0_0_0_1_0_0,NA,NA,form submission,3967.6800000002,2447286,2447283.88,2447300.32,2451268,2451268,2024-11-23T11:11:53Z,2451280.3,NULL,Hoffnung,matarajio,d,NA,NA,NA,uhu,NA,NA,0,NA,NA,NA,NA,NA,NA,NA,NA,NA,NA,NA,NA,NA,NA,NA,NA,NA,NA,NA
96de1,"""Richtig""-Screen",canvas.Screen,5_0_0_0_1_0_1,NA,NA,skipped,NA,2451270,NA,NA,2451268,2451270,2024-11-23T11:11:53Z,2451280.3,NULL,Hoffnung,matarajio,d,NA,NA,NA,NA,sdf,NA,0,NA,NA,NA,NA,NA,NA,NA,NA,NA,NA,NA,NA,NA,NA,NA,NA,NA,NA,NA
96de1,"""Falsch""-Screen",canvas.Screen,5_0_0_0_1_0_2,NA,NA,timeout,4996.02,2451271,2451267.26,2451280.3,2456259.62,2456262,2024-11-23T11:11:58Z,2456276.32,NULL,Hoffnung,matarajio,d,NA,NA,NA,NA,sdf,0,0,NA,NA,NA,NA,NA,NA,NA,NA,NA,NA,NA,NA,NA,NA,NA,NA,NA,NA,NA
96de1,deep,flow.Sequence,5_0_0_0_1_0,NA,NA,completion,8959.3000000003,2447286,2447283.88,2447300.32,2456259.62,2456264,2024-11-23T11:11:58Z,2456276.32,NULL,Hoffnung,matarajio,d,NA,NA,NA,NA,sdf,NA,0,NA,NA,NA,NA,NA,NA,NA,NA,NA,NA,NA,NA,NA,NA,NA,NA,NA,NA,NA
96de1,shallow,flow.Sequence,5_0_0_0_1_1,NA,NA,skipped,NA,2456264,NA,NA,2456259.62,2456265,2024-11-23T11:11:58Z,2456276.32,NULL,Hoffnung,matarajio,d,NA,NA,NA,NA,sdf,NA,0,NA,NA,NA,NA,NA,NA,NA,NA,NA,NA,NA,NA,NA,NA,NA,NA,NA,NA,NA
96de1,task,flow.Sequence,5_0_0_0_1,NA,NA,completion,8959.3000000003,2447286,2447283.88,2447300.32,2456259.62,2456266,2024-11-23T11:11:58Z,2456276.32,NULL,Hoffnung,matarajio,d,NA,NA,NA,NA,sdf,NA,0,NA,NA,NA,NA,NA,NA,NA,NA,NA,NA,NA,NA,NA,NA,NA,NA,NA,NA,NA
96de1,Deep Question,html.Page,5_0_0_0_2_0_0,NA,NA,form submission,5341.6800000002,2456267,2456259.62,2456276.32,2461618,2461618,2024-11-23T11:12:03Z,2461621.72,NULL,Auftrag,uagizaji,d,NA,NA,NA,hugu,NA,NA,0,NA,NA,NA,NA,NA,NA,NA,NA,NA,NA,NA,NA,NA,NA,NA,NA,NA,NA,NA
96de1,"""Richtig""-Screen",canvas.Screen,5_0_0_0_2_0_1,NA,NA,skipped,NA,2461623,NA,NA,2461618,2461623,2024-11-23T11:12:03Z,2461621.72,NULL,Auftrag,uagizaji,d,NA,NA,NA,NA,sdf,NA,0,NA,NA,NA,NA,NA,NA,NA,NA,NA,NA,NA,NA,NA,NA,NA,NA,NA,NA,NA
96de1,"""Falsch""-Screen",canvas.Screen,5_0_0_0_2_0_2,NA,NA,timeout,4995.9399999999,2461625,2461617.36,2461621.72,2466601.16,2466603,2024-11-23T11:12:08Z,2466617.66,NULL,Auftrag,uagizaji,d,NA,NA,NA,NA,sdf,0,0,NA,NA,NA,NA,NA,NA,NA,NA,NA,NA,NA,NA,NA,NA,NA,NA,NA,NA,NA
96de1,deep,flow.Sequence,5_0_0_0_2_0,NA,NA,completion,10324.84,2456267,2456259.62,2456276.32,2466601.16,2466604,2024-11-23T11:12:08Z,2466617.66,NULL,Auftrag,uagizaji,d,NA,NA,NA,NA,sdf,NA,0,NA,NA,NA,NA,NA,NA,NA,NA,NA,NA,NA,NA,NA,NA,NA,NA,NA,NA,NA
96de1,shallow,flow.Sequence,5_0_0_0_2_1,NA,NA,skipped,NA,2466604,NA,NA,2466601.16,2466604,2024-11-23T11:12:08Z,2466617.66,NULL,Auftrag,uagizaji,d,NA,NA,NA,NA,sdf,NA,0,NA,NA,NA,NA,NA,NA,NA,NA,NA,NA,NA,NA,NA,NA,NA,NA,NA,NA,NA
96de1,task,flow.Sequence,5_0_0_0_2,NA,NA,completion,10324.84,2456266,2456259.62,2456276.32,2466601.16,2466605,2024-11-23T11:12:08Z,2466617.66,NULL,Auftrag,uagizaji,d,NA,NA,NA,NA,sdf,NA,0,NA,NA,NA,NA,NA,NA,NA,NA,NA,NA,NA,NA,NA,NA,NA,NA,NA,NA,NA
96de1,deep,flow.Sequence,5_0_0_0_3_0,NA,NA,skipped,NA,2466605,NA,NA,2466601.16,2466606,2024-11-23T11:12:08Z,2466617.66,NULL,Schönheit,kirembo,s,mahojiano,msisimko,jitihadi,NA,sdf,NA,0,NA,NA,NA,NA,NA,NA,NA,NA,NA,NA,NA,NA,NA,NA,NA,NA,NA,NA,NA
96de1,Shallow Question,html.Page,5_0_0_0_3_1_0,NA,NA,form submission,9409.3399999999,2466606,2466601.16,2466617.66,2476027,2476028,2024-11-23T11:12:18Z,2476026.6,NULL,Schönheit,kirembo,s,mahojiano,msisimko,jitihadi,kirembo,NA,NA,0,NA,NA,NA,NA,NA,NA,NA,NA,NA,NA,NA,NA,NA,NA,NA,NA,NA,NA,NA
96de1,"""Richtig""-Screen",canvas.Screen,5_0_0_0_3_1_1,NA,NA,timeout,4995.98,2476032,2476024.1,2476026.6,2481005.88,2481007,2024-11-23T11:12:23Z,2481022.58,NULL,Schönheit,kirembo,s,mahojiano,msisimko,jitihadi,NA,sdf,1,0,NA,NA,NA,NA,NA,NA,NA,NA,NA,NA,NA,NA,NA,NA,NA,NA,NA,NA,NA
96de1,"""Falsch""-Screen",canvas.Screen,5_0_0_0_3_1_2,NA,NA,skipped,NA,2481012,NA,NA,2481005.88,2481012,2024-11-23T11:12:23Z,2481022.58,NULL,Schönheit,kirembo,s,mahojiano,msisimko,jitihadi,NA,sdf,NA,0,NA,NA,NA,NA,NA,NA,NA,NA,NA,NA,NA,NA,NA,NA,NA,NA,NA,NA,NA
96de1,shallow,flow.Sequence,5_0_0_0_3_1,NA,NA,completion,14388.22,2466606,2466601.16,2466617.66,2481005.88,2481013,2024-11-23T11:12:23Z,2481022.58,NULL,Schönheit,kirembo,s,mahojiano,msisimko,jitihadi,NA,sdf,NA,0,NA,NA,NA,NA,NA,NA,NA,NA,NA,NA,NA,NA,NA,NA,NA,NA,NA,NA,NA
96de1,task,flow.Sequence,5_0_0_0_3,NA,NA,completion,14388.22,2466605,2466601.16,2466617.66,2481005.88,2481013,2024-11-23T11:12:23Z,2481022.58,NULL,Schönheit,kirembo,s,mahojiano,msisimko,jitihadi,NA,sdf,NA,0,NA,NA,NA,NA,NA,NA,NA,NA,NA,NA,NA,NA,NA,NA,NA,NA,NA,NA,NA
96de1,deep,flow.Sequence,5_0_0_0_4_0,NA,NA,skipped,NA,2481013,NA,NA,2481005.88,2481013,2024-11-23T11:12:23Z,2481022.58,NULL,Schock,mshtuko,s,biashara,kukataza,vichekesho,NA,sdf,NA,0,NA,NA,NA,NA,NA,NA,NA,NA,NA,NA,NA,NA,NA,NA,NA,NA,NA,NA,NA
96de1,Shallow Question,html.Page,5_0_0_0_4_1_0,NA,NA,form submission,5238.4199999999,2481013,2481005.88,2481022.58,2486261,2486262,2024-11-23T11:12:28Z,2486268.14,NULL,Schock,mshtuko,s,biashara,kukataza,vichekesho,kukataza,NA,NA,0,NA,NA,NA,NA,NA,NA,NA,NA,NA,NA,NA,NA,NA,NA,NA,NA,NA,NA,NA
96de1,"""Richtig""-Screen",canvas.Screen,5_0_0_0_4_1_1,NA,NA,skipped,NA,2486266,NA,NA,2486261,2486266,2024-11-23T11:12:28Z,2486268.14,NULL,Schock,mshtuko,s,biashara,kukataza,vichekesho,NA,sdf,NA,0,NA,NA,NA,NA,NA,NA,NA,NA,NA,NA,NA,NA,NA,NA,NA,NA,NA,NA,NA
96de1,"""Falsch""-Screen",canvas.Screen,5_0_0_0_4_1_2,NA,NA,timeout,4996,2486271,2486258.04,2486268.14,2491247.44,2491248,2024-11-23T11:12:33Z,2491264.14,NULL,Schock,mshtuko,s,biashara,kukataza,vichekesho,NA,sdf,0,0,NA,NA,NA,NA,NA,NA,NA,NA,NA,NA,NA,NA,NA,NA,NA,NA,NA,NA,NA
96de1,shallow,flow.Sequence,5_0_0_0_4_1,NA,NA,completion,10224.86,2481013,2481005.88,2481022.58,2491247.44,2491249,2024-11-23T11:12:33Z,2491264.14,NULL,Schock,mshtuko,s,biashara,kukataza,vichekesho,NA,sdf,NA,0,NA,NA,NA,NA,NA,NA,NA,NA,NA,NA,NA,NA,NA,NA,NA,NA,NA,NA,NA
96de1,task,flow.Sequence,5_0_0_0_4,NA,NA,completion,10224.86,2481013,2481005.88,2481022.58,2491247.44,2491249,2024-11-23T11:12:33Z,2491264.14,NULL,Schock,mshtuko,s,biashara,kukataza,vichekesho,NA,sdf,NA,0,NA,NA,NA,NA,NA,NA,NA,NA,NA,NA,NA,NA,NA,NA,NA,NA,NA,NA,NA
96de1,deep,flow.Sequence,5_0_0_0_5_0,NA,NA,skipped,NA,2491249,NA,NA,2491247.44,2491249,2024-11-23T11:12:33Z,2491264.14,NULL,Zufall,kikuti,s,kukosekana,uchoraji,leseni,NA,sdf,NA,0,NA,NA,NA,NA,NA,NA,NA,NA,NA,NA,NA,NA,NA,NA,NA,NA,NA,NA,NA
96de1,Shallow Question,html.Page,5_0_0_0_5_1_0,NA,NA,form submission,6520.8599999999,2491250,2491247.44,2491264.14,2497785,2497786,2024-11-23T11:12:39Z,2497791.84,NULL,Zufall,kikuti,s,kukosekana,uchoraji,leseni,kikuti,NA,NA,0,NA,NA,NA,NA,NA,NA,NA,NA,NA,NA,NA,NA,NA,NA,NA,NA,NA,NA,NA
96de1,"""Richtig""-Screen",canvas.Screen,5_0_0_0_5_1_1,NA,NA,timeout,4996.0600000001,2497787,2497784.24,2497791.84,2502771.38,2502772,2024-11-23T11:12:44Z,2502787.9,NULL,Zufall,kikuti,s,kukosekana,uchoraji,leseni,NA,sdf,1,0,NA,NA,NA,NA,NA,NA,NA,NA,NA,NA,NA,NA,NA,NA,NA,NA,NA,NA,NA
96de1,"""Falsch""-Screen",canvas.Screen,5_0_0_0_5_1_2,NA,NA,skipped,NA,2502778,NA,NA,2502771.38,2502778,2024-11-23T11:12:44Z,2502787.9,NULL,Zufall,kikuti,s,kukosekana,uchoraji,leseni,NA,sdf,NA,0,NA,NA,NA,NA,NA,NA,NA,NA,NA,NA,NA,NA,NA,NA,NA,NA,NA,NA,NA
96de1,shallow,flow.Sequence,5_0_0_0_5_1,NA,NA,completion,11507.24,2491250,2491247.44,2491264.14,2502771.38,2502778,2024-11-23T11:12:44Z,2502787.9,NULL,Zufall,kikuti,s,kukosekana,uchoraji,leseni,NA,sdf,NA,0,NA,NA,NA,NA,NA,NA,NA,NA,NA,NA,NA,NA,NA,NA,NA,NA,NA,NA,NA
96de1,task,flow.Sequence,5_0_0_0_5,NA,NA,completion,11507.24,2491249,2491247.44,2491264.14,2502771.38,2502778,2024-11-23T11:12:44Z,2502787.9,NULL,Zufall,kikuti,s,kukosekana,uchoraji,leseni,NA,sdf,NA,0,NA,NA,NA,NA,NA,NA,NA,NA,NA,NA,NA,NA,NA,NA,NA,NA,NA,NA,NA
96de1,Deep Question,html.Page,5_0_0_0_6_0_0,NA,NA,form submission,3759.1000000001,2502778,2502771.38,2502787.9,2506547,2506547,2024-11-23T11:12:48Z,2506551.34,NULL,Verpackung,ufungaji,d,NA,NA,NA,oku,NA,NA,0,NA,NA,NA,NA,NA,NA,NA,NA,NA,NA,NA,NA,NA,NA,NA,NA,NA,NA,NA
96de1,"""Richtig""-Screen",canvas.Screen,5_0_0_0_6_0_1,NA,NA,skipped,NA,2506549,NA,NA,2506547,2506550,2024-11-23T11:12:48Z,2506551.34,NULL,Verpackung,ufungaji,d,NA,NA,NA,NA,sdf,NA,0,NA,NA,NA,NA,NA,NA,NA,NA,NA,NA,NA,NA,NA,NA,NA,NA,NA,NA,NA
96de1,"""Falsch""-Screen",canvas.Screen,5_0_0_0_6_0_2,NA,NA,timeout,4996.04,2506551,2506546.88,2506551.34,2511530.9,2511535,2024-11-23T11:12:53Z,2511547.38,NULL,Verpackung,ufungaji,d,NA,NA,NA,NA,sdf,0,0,NA,NA,NA,NA,NA,NA,NA,NA,NA,NA,NA,NA,NA,NA,NA,NA,NA,NA,NA
96de1,deep,flow.Sequence,5_0_0_0_6_0,NA,NA,completion,8743,2502778,2502771.38,2502787.9,2511530.9,2511536,2024-11-23T11:12:53Z,2511547.38,NULL,Verpackung,ufungaji,d,NA,NA,NA,NA,sdf,NA,0,NA,NA,NA,NA,NA,NA,NA,NA,NA,NA,NA,NA,NA,NA,NA,NA,NA,NA,NA
96de1,shallow,flow.Sequence,5_0_0_0_6_1,NA,NA,skipped,NA,2511537,NA,NA,2511530.9,2511537,2024-11-23T11:12:53Z,2511547.38,NULL,Verpackung,ufungaji,d,NA,NA,NA,NA,sdf,NA,0,NA,NA,NA,NA,NA,NA,NA,NA,NA,NA,NA,NA,NA,NA,NA,NA,NA,NA,NA
96de1,task,flow.Sequence,5_0_0_0_6,NA,NA,completion,8743,2502778,2502771.38,2502787.9,2511530.9,2511537,2024-11-23T11:12:53Z,2511547.38,NULL,Verpackung,ufungaji,d,NA,NA,NA,NA,sdf,NA,0,NA,NA,NA,NA,NA,NA,NA,NA,NA,NA,NA,NA,NA,NA,NA,NA,NA,NA,NA
96de1,deep,flow.Sequence,5_0_0_0_7_0,NA,NA,skipped,NA,2511537,NA,NA,2511530.9,2511537,2024-11-23T11:12:53Z,2511547.38,NULL,Theorie,nadharia,s,ushungi,mkutano,uwakilishi,NA,sdf,NA,0,NA,NA,NA,NA,NA,NA,NA,NA,NA,NA,NA,NA,NA,NA,NA,NA,NA,NA,NA
96de1,Shallow Question,html.Page,5_0_0_0_7_1_0,NA,NA,form submission,6803.6200000001,2511538,2511530.9,2511547.38,2518351,2518353,2024-11-23T11:13:00Z,2518375,NULL,Theorie,nadharia,s,ushungi,mkutano,uwakilishi,uwakilishi,NA,NA,0,NA,NA,NA,NA,NA,NA,NA,NA,NA,NA,NA,NA,NA,NA,NA,NA,NA,NA,NA
96de1,"""Richtig""-Screen",canvas.Screen,5_0_0_0_7_1_1,NA,NA,skipped,NA,2518366,NA,NA,2518351,2518367,2024-11-23T11:13:00Z,2518375,NULL,Theorie,nadharia,s,ushungi,mkutano,uwakilishi,NA,sdf,NA,0,NA,NA,NA,NA,NA,NA,NA,NA,NA,NA,NA,NA,NA,NA,NA,NA,NA,NA,NA
96de1,"""Falsch""-Screen",canvas.Screen,5_0_0_0_7_1_2,NA,NA,timeout,4996,2518374,2518347.58,2518375,2523354.3,2523356,2024-11-23T11:13:05Z,2523371,NULL,Theorie,nadharia,s,ushungi,mkutano,uwakilishi,NA,sdf,0,0,NA,NA,NA,NA,NA,NA,NA,NA,NA,NA,NA,NA,NA,NA,NA,NA,NA,NA,NA
96de1,shallow,flow.Sequence,5_0_0_0_7_1,NA,NA,completion,11806.92,2511537,2511530.9,2511547.38,2523354.3,2523357,2024-11-23T11:13:05Z,2523371,NULL,Theorie,nadharia,s,ushungi,mkutano,uwakilishi,NA,sdf,NA,0,NA,NA,NA,NA,NA,NA,NA,NA,NA,NA,NA,NA,NA,NA,NA,NA,NA,NA,NA
96de1,task,flow.Sequence,5_0_0_0_7,NA,NA,completion,11806.92,2511537,2511530.9,2511547.38,2523354.3,2523358,2024-11-23T11:13:05Z,2523371,NULL,Theorie,nadharia,s,ushungi,mkutano,uwakilishi,NA,sdf,NA,0,NA,NA,NA,NA,NA,NA,NA,NA,NA,NA,NA,NA,NA,NA,NA,NA,NA,NA,NA
96de1,block,flow.Loop,5_0_0_0,NA,NA,completion,86845.24,2436494,2436493.7,2436509.06,2523354.3,2523359,2024-11-23T11:13:05Z,2523371,NULL,NA,NA,NA,NA,NA,NA,NA,sdf,NA,0,NA,NA,NA,NA,NA,NA,NA,NA,NA,NA,NA,NA,NA,NA,NA,NA,NA,NA,NA
96de1,weiter,canvas.Screen,5_0_0_1,sdf,keypress(Space),response,1043,2523360,2523354.3,2523371,2524414,2524430,2024-11-23T11:13:06Z,2524486.56,NULL,NA,NA,NA,NA,NA,NA,NA,sdf,NA,0,NA,NA,NA,NA,NA,NA,NA,NA,NA,NA,NA,NA,NA,NA,NA,NA,NA,NA,NA
96de1,check continue,flow.Sequence,5_0_0,NA,NA,completion,87904.94,2436494,2436493.7,2436509.06,2524414,2524431,2024-11-23T11:13:06Z,2524486.56,NULL,NA,NA,NA,NA,NA,NA,NA,sdf,NA,0,NA,NA,NA,NA,NA,NA,NA,NA,NA,NA,NA,NA,NA,NA,NA,NA,NA,NA,NA
96de1,deep,flow.Sequence,5_0_1_0_0_0,NA,NA,skipped,NA,2524472,NA,NA,2524414,2524472,2024-11-23T11:13:06Z,2524486.56,NULL,Schönheit,kirembo,s,mahojiano,msisimko,jitihadi,NA,sdfdsf,NA,1,NA,NA,NA,NA,NA,NA,NA,NA,NA,NA,NA,NA,NA,NA,NA,NA,NA,NA,NA
96de1,Shallow Question,html.Page,5_0_1_0_0_1_0,NA,NA,form submission,4364.4399999999,2524472,2524471.74,2524486.56,2528851,2528852,2024-11-23T11:13:10Z,2528849.7,NULL,Schönheit,kirembo,s,mahojiano,msisimko,jitihadi,kirembo,NA,NA,1,NA,NA,NA,NA,NA,NA,NA,NA,NA,NA,NA,NA,NA,NA,NA,NA,NA,NA,NA
96de1,"""Richtig""-Screen",canvas.Screen,5_0_1_0_0_1_1,NA,NA,timeout,4995.9199999999,2528854,2528848.02,2528849.7,2533828.9,2533830,2024-11-23T11:13:15Z,2533845.62,NULL,Schönheit,kirembo,s,mahojiano,msisimko,jitihadi,NA,sdfdsf,1,1,NA,NA,NA,NA,NA,NA,NA,NA,NA,NA,NA,NA,NA,NA,NA,NA,NA,NA,NA
96de1,"""Falsch""-Screen",canvas.Screen,5_0_1_0_0_1_2,NA,NA,skipped,NA,2533835,NA,NA,2533828.9,2533835,2024-11-23T11:13:15Z,2533845.62,NULL,Schönheit,kirembo,s,mahojiano,msisimko,jitihadi,NA,sdfdsf,NA,1,NA,NA,NA,NA,NA,NA,NA,NA,NA,NA,NA,NA,NA,NA,NA,NA,NA,NA,NA
96de1,shallow,flow.Sequence,5_0_1_0_0_1,NA,NA,completion,9342.3399999999,2524472,2524471.74,2524486.56,2533828.9,2533835,2024-11-23T11:13:15Z,2533845.62,NULL,Schönheit,kirembo,s,mahojiano,msisimko,jitihadi,NA,sdfdsf,NA,1,NA,NA,NA,NA,NA,NA,NA,NA,NA,NA,NA,NA,NA,NA,NA,NA,NA,NA,NA
96de1,task,flow.Sequence,5_0_1_0_0,NA,NA,completion,9342.3399999999,2524471,2524471.74,2524486.56,2533828.9,2533835,2024-11-23T11:13:15Z,2533845.62,NULL,Schönheit,kirembo,s,mahojiano,msisimko,jitihadi,NA,sdfdsf,NA,1,NA,NA,NA,NA,NA,NA,NA,NA,NA,NA,NA,NA,NA,NA,NA,NA,NA,NA,NA
96de1,deep,flow.Sequence,5_0_1_0_1_0,NA,NA,skipped,NA,2533835,NA,NA,2533828.9,2533835,2024-11-23T11:13:15Z,2533845.62,NULL,Schock,mshtuko,s,biashara,kukataza,vichekesho,NA,sdfdsf,NA,1,NA,NA,NA,NA,NA,NA,NA,NA,NA,NA,NA,NA,NA,NA,NA,NA,NA,NA,NA
96de1,Shallow Question,html.Page,5_0_1_0_1_1_0,NA,NA,form submission,5128.3799999999,2533835,2533828.9,2533845.62,2538974,2538975,2024-11-23T11:13:21Z,2538974.68,NULL,Schock,mshtuko,s,biashara,kukataza,vichekesho,mshtuko,NA,NA,1,NA,NA,NA,NA,NA,NA,NA,NA,NA,NA,NA,NA,NA,NA,NA,NA,NA,NA,NA
96de1,"""Richtig""-Screen",canvas.Screen,5_0_1_0_1_1_1,NA,NA,timeout,4996.1599999997,2538978,2538971.28,2538974.68,2543954.24,2543956,2024-11-23T11:13:26Z,2543970.84,NULL,Schock,mshtuko,s,biashara,kukataza,vichekesho,NA,sdfdsf,1,1,NA,NA,NA,NA,NA,NA,NA,NA,NA,NA,NA,NA,NA,NA,NA,NA,NA,NA,NA
96de1,"""Falsch""-Screen",canvas.Screen,5_0_1_0_1_1_2,NA,NA,skipped,NA,2543960,NA,NA,2543954.24,2543960,2024-11-23T11:13:26Z,2543970.84,NULL,Schock,mshtuko,s,biashara,kukataza,vichekesho,NA,sdfdsf,NA,1,NA,NA,NA,NA,NA,NA,NA,NA,NA,NA,NA,NA,NA,NA,NA,NA,NA,NA,NA
96de1,shallow,flow.Sequence,5_0_1_0_1_1,NA,NA,completion,10108.62,2533835,2533828.9,2533845.62,2543954.24,2543960,2024-11-23T11:13:26Z,2543970.84,NULL,Schock,mshtuko,s,biashara,kukataza,vichekesho,NA,sdfdsf,NA,1,NA,NA,NA,NA,NA,NA,NA,NA,NA,NA,NA,NA,NA,NA,NA,NA,NA,NA,NA
96de1,task,flow.Sequence,5_0_1_0_1,NA,NA,completion,10108.62,2533835,2533828.9,2533845.62,2543954.24,2543961,2024-11-23T11:13:26Z,2543970.84,NULL,Schock,mshtuko,s,biashara,kukataza,vichekesho,NA,sdfdsf,NA,1,NA,NA,NA,NA,NA,NA,NA,NA,NA,NA,NA,NA,NA,NA,NA,NA,NA,NA,NA
96de1,Deep Question,html.Page,5_0_1_0_2_0_0,NA,NA,form submission,6867.1600000001,2543961,2543954.24,2543970.84,2550838,2550838,2024-11-23T11:13:32Z,2550848.02,NULL,Hoffnung,matarajio,d,NA,NA,NA,ujafui,NA,NA,1,NA,NA,NA,NA,NA,NA,NA,NA,NA,NA,NA,NA,NA,NA,NA,NA,NA,NA,NA
96de1,"""Richtig""-Screen",canvas.Screen,5_0_1_0_2_0_1,NA,NA,skipped,NA,2550839,NA,NA,2550838,2550839,2024-11-23T11:13:32Z,2550848.02,NULL,Hoffnung,matarajio,d,NA,NA,NA,NA,sdfdsf,NA,1,NA,NA,NA,NA,NA,NA,NA,NA,NA,NA,NA,NA,NA,NA,NA,NA,NA,NA,NA
96de1,"""Falsch""-Screen",canvas.Screen,5_0_1_0_2_0_2,NA,NA,timeout,4996.1200000001,2550841,2550836.96,2550848.02,2555827.76,2555829,2024-11-23T11:13:37Z,2555844.14,NULL,Hoffnung,matarajio,d,NA,NA,NA,NA,sdfdsf,0,1,NA,NA,NA,NA,NA,NA,NA,NA,NA,NA,NA,NA,NA,NA,NA,NA,NA,NA,NA
96de1,deep,flow.Sequence,5_0_1_0_2_0,NA,NA,completion,11856.92,2543961,2543954.24,2543970.84,2555827.76,2555830,2024-11-23T11:13:37Z,2555844.14,NULL,Hoffnung,matarajio,d,NA,NA,NA,NA,sdfdsf,NA,1,NA,NA,NA,NA,NA,NA,NA,NA,NA,NA,NA,NA,NA,NA,NA,NA,NA,NA,NA
96de1,shallow,flow.Sequence,5_0_1_0_2_1,NA,NA,skipped,NA,2555830,NA,NA,2555827.76,2555830,2024-11-23T11:13:37Z,2555844.14,NULL,Hoffnung,matarajio,d,NA,NA,NA,NA,sdfdsf,NA,1,NA,NA,NA,NA,NA,NA,NA,NA,NA,NA,NA,NA,NA,NA,NA,NA,NA,NA,NA
96de1,task,flow.Sequence,5_0_1_0_2,NA,NA,completion,11856.92,2543961,2543954.24,2543970.84,2555827.76,2555830,2024-11-23T11:13:37Z,2555844.14,NULL,Hoffnung,matarajio,d,NA,NA,NA,NA,sdfdsf,NA,1,NA,NA,NA,NA,NA,NA,NA,NA,NA,NA,NA,NA,NA,NA,NA,NA,NA,NA,NA
96de1,deep,flow.Sequence,5_0_1_0_3_0,NA,NA,skipped,NA,2555830,NA,NA,2555827.76,2555831,2024-11-23T11:13:37Z,2555844.14,NULL,Zufall,kikuti,s,kukosekana,uchoraji,leseni,NA,sdfdsf,NA,1,NA,NA,NA,NA,NA,NA,NA,NA,NA,NA,NA,NA,NA,NA,NA,NA,NA,NA,NA
96de1,Shallow Question,html.Page,5_0_1_0_3_1_0,NA,NA,form submission,5028.8599999999,2555831,2555827.76,2555844.14,2560873,2560873,2024-11-23T11:13:42Z,2560873.22,NULL,Zufall,kikuti,s,kukosekana,uchoraji,leseni,kikuti,NA,NA,1,NA,NA,NA,NA,NA,NA,NA,NA,NA,NA,NA,NA,NA,NA,NA,NA,NA,NA,NA
96de1,"""Richtig""-Screen",canvas.Screen,5_0_1_0_3_1_1,NA,NA,timeout,4995.96,2560878,2560870.7,2560873.22,2565852.46,2565853,2024-11-23T11:13:47Z,2565869.18,NULL,Zufall,kikuti,s,kukosekana,uchoraji,leseni,NA,sdfdsf,1,1,NA,NA,NA,NA,NA,NA,NA,NA,NA,NA,NA,NA,NA,NA,NA,NA,NA,NA,NA
96de1,"""Falsch""-Screen",canvas.Screen,5_0_1_0_3_1_2,NA,NA,skipped,NA,2565858,NA,NA,2565852.46,2565858,2024-11-23T11:13:47Z,2565869.18,NULL,Zufall,kikuti,s,kukosekana,uchoraji,leseni,NA,sdfdsf,NA,1,NA,NA,NA,NA,NA,NA,NA,NA,NA,NA,NA,NA,NA,NA,NA,NA,NA,NA,NA
96de1,shallow,flow.Sequence,5_0_1_0_3_1,NA,NA,completion,10008.32,2555831,2555827.76,2555844.14,2565852.46,2565858,2024-11-23T11:13:47Z,2565869.18,NULL,Zufall,kikuti,s,kukosekana,uchoraji,leseni,NA,sdfdsf,NA,1,NA,NA,NA,NA,NA,NA,NA,NA,NA,NA,NA,NA,NA,NA,NA,NA,NA,NA,NA
96de1,task,flow.Sequence,5_0_1_0_3,NA,NA,completion,10008.32,2555830,2555827.76,2555844.14,2565852.46,2565858,2024-11-23T11:13:47Z,2565869.18,NULL,Zufall,kikuti,s,kukosekana,uchoraji,leseni,NA,sdfdsf,NA,1,NA,NA,NA,NA,NA,NA,NA,NA,NA,NA,NA,NA,NA,NA,NA,NA,NA,NA,NA
96de1,Deep Question,html.Page,5_0_1_0_4_0_0,NA,NA,form submission,8078.8199999998,2565858,2565852.46,2565869.18,2573948,2573948,2024-11-23T11:13:56Z,2573962.4,NULL,Auftrag,uagizaji,d,NA,NA,NA,marajio,NA,NA,1,NA,NA,NA,NA,NA,NA,NA,NA,NA,NA,NA,NA,NA,NA,NA,NA,NA,NA,NA
96de1,"""Richtig""-Screen",canvas.Screen,5_0_1_0_4_0_1,NA,NA,skipped,NA,2573950,NA,NA,2573948,2573950,2024-11-23T11:13:56Z,2573962.4,NULL,Auftrag,uagizaji,d,NA,NA,NA,NA,sdfdsf,NA,1,NA,NA,NA,NA,NA,NA,NA,NA,NA,NA,NA,NA,NA,NA,NA,NA,NA,NA,NA
96de1,"""Falsch""-Screen",canvas.Screen,5_0_1_0_4_0_2,NA,NA,timeout,4995.8599999999,2573952,2573947.7,2573962.4,2578941.84,2578943,2024-11-23T11:14:01Z,2578958.26,NULL,Auftrag,uagizaji,d,NA,NA,NA,NA,sdfdsf,0,1,NA,NA,NA,NA,NA,NA,NA,NA,NA,NA,NA,NA,NA,NA,NA,NA,NA,NA,NA
96de1,deep,flow.Sequence,5_0_1_0_4_0,NA,NA,completion,13072.66,2565858,2565852.46,2565869.18,2578941.84,2578944,2024-11-23T11:14:01Z,2578958.26,NULL,Auftrag,uagizaji,d,NA,NA,NA,NA,sdfdsf,NA,1,NA,NA,NA,NA,NA,NA,NA,NA,NA,NA,NA,NA,NA,NA,NA,NA,NA,NA,NA
96de1,shallow,flow.Sequence,5_0_1_0_4_1,NA,NA,skipped,NA,2578944,NA,NA,2578941.84,2578944,2024-11-23T11:14:01Z,2578958.26,NULL,Auftrag,uagizaji,d,NA,NA,NA,NA,sdfdsf,NA,1,NA,NA,NA,NA,NA,NA,NA,NA,NA,NA,NA,NA,NA,NA,NA,NA,NA,NA,NA
96de1,task,flow.Sequence,5_0_1_0_4,NA,NA,completion,13072.66,2565858,2565852.46,2565869.18,2578941.84,2578944,2024-11-23T11:14:01Z,2578958.26,NULL,Auftrag,uagizaji,d,NA,NA,NA,NA,sdfdsf,NA,1,NA,NA,NA,NA,NA,NA,NA,NA,NA,NA,NA,NA,NA,NA,NA,NA,NA,NA,NA
96de1,Deep Question,html.Page,5_0_1_0_5_0_0,NA,NA,form submission,5827.7400000002,2578944,2578941.84,2578958.26,2584786,2584786,2024-11-23T11:14:06Z,2584786.84,NULL,Wettbewerb,ushindani,d,NA,NA,NA,ouio,NA,NA,1,NA,NA,NA,NA,NA,NA,NA,NA,NA,NA,NA,NA,NA,NA,NA,NA,NA,NA,NA
96de1,"""Richtig""-Screen",canvas.Screen,5_0_1_0_5_0_1,NA,NA,skipped,NA,2584788,NA,NA,2584786,2584788,2024-11-23T11:14:06Z,2584786.84,NULL,Wettbewerb,ushindani,d,NA,NA,NA,NA,sdfdsf,NA,1,NA,NA,NA,NA,NA,NA,NA,NA,NA,NA,NA,NA,NA,NA,NA,NA,NA,NA,NA
96de1,"""Falsch""-Screen",canvas.Screen,5_0_1_0_5_0_2,NA,NA,timeout,4995.8400000003,2584790,2584785.8,2584786.84,2589766.04,2589767,2024-11-23T11:14:11Z,2589782.68,NULL,Wettbewerb,ushindani,d,NA,NA,NA,NA,sdfdsf,0,1,NA,NA,NA,NA,NA,NA,NA,NA,NA,NA,NA,NA,NA,NA,NA,NA,NA,NA,NA
96de1,deep,flow.Sequence,5_0_1_0_5_0,NA,NA,completion,10807.78,2578944,2578941.84,2578958.26,2589766.04,2589769,2024-11-23T11:14:11Z,2589782.68,NULL,Wettbewerb,ushindani,d,NA,NA,NA,NA,sdfdsf,NA,1,NA,NA,NA,NA,NA,NA,NA,NA,NA,NA,NA,NA,NA,NA,NA,NA,NA,NA,NA
96de1,shallow,flow.Sequence,5_0_1_0_5_1,NA,NA,skipped,NA,2589770,NA,NA,2589766.04,2589770,2024-11-23T11:14:11Z,2589782.68,NULL,Wettbewerb,ushindani,d,NA,NA,NA,NA,sdfdsf,NA,1,NA,NA,NA,NA,NA,NA,NA,NA,NA,NA,NA,NA,NA,NA,NA,NA,NA,NA,NA
96de1,task,flow.Sequence,5_0_1_0_5,NA,NA,completion,10807.78,2578944,2578941.84,2578958.26,2589766.04,2589771,2024-11-23T11:14:11Z,2589782.68,NULL,Wettbewerb,ushindani,d,NA,NA,NA,NA,sdfdsf,NA,1,NA,NA,NA,NA,NA,NA,NA,NA,NA,NA,NA,NA,NA,NA,NA,NA,NA,NA,NA
96de1,deep,flow.Sequence,5_0_1_0_6_0,NA,NA,skipped,NA,2589771,NA,NA,2589766.04,2589771,2024-11-23T11:14:11Z,2589782.68,NULL,Theorie,nadharia,s,ushungi,mkutano,uwakilishi,NA,sdfdsf,NA,1,NA,NA,NA,NA,NA,NA,NA,NA,NA,NA,NA,NA,NA,NA,NA,NA,NA,NA,NA
96de1,Shallow Question,html.Page,5_0_1_0_6_1_0,NA,NA,form submission,7416.3199999998,2589772,2589766.04,2589782.68,2597199,2597201,2024-11-23T11:14:19Z,2597210,NULL,Theorie,nadharia,s,ushungi,mkutano,uwakilishi,nadharia,NA,NA,1,NA,NA,NA,NA,NA,NA,NA,NA,NA,NA,NA,NA,NA,NA,NA,NA,NA,NA,NA
96de1,"""Richtig""-Screen",canvas.Screen,5_0_1_0_6_1_1,NA,NA,timeout,4995.8599999999,2597213,2597196.58,2597210,2602189.32,2602190,2024-11-23T11:14:24Z,2602205.86,NULL,Theorie,nadharia,s,ushungi,mkutano,uwakilishi,NA,sdfdsf,1,1,NA,NA,NA,NA,NA,NA,NA,NA,NA,NA,NA,NA,NA,NA,NA,NA,NA,NA,NA
96de1,"""Falsch""-Screen",canvas.Screen,5_0_1_0_6_1_2,NA,NA,skipped,NA,2602196,NA,NA,2602189.32,2602196,2024-11-23T11:14:24Z,2602205.86,NULL,Theorie,nadharia,s,ushungi,mkutano,uwakilishi,NA,sdfdsf,NA,1,NA,NA,NA,NA,NA,NA,NA,NA,NA,NA,NA,NA,NA,NA,NA,NA,NA,NA,NA
96de1,shallow,flow.Sequence,5_0_1_0_6_1,NA,NA,completion,12406.64,2589772,2589766.04,2589782.68,2602189.32,2602196,2024-11-23T11:14:24Z,2602205.86,NULL,Theorie,nadharia,s,ushungi,mkutano,uwakilishi,NA,sdfdsf,NA,1,NA,NA,NA,NA,NA,NA,NA,NA,NA,NA,NA,NA,NA,NA,NA,NA,NA,NA,NA
96de1,task,flow.Sequence,5_0_1_0_6,NA,NA,completion,12406.64,2589771,2589766.04,2589782.68,2602189.32,2602197,2024-11-23T11:14:24Z,2602205.86,NULL,Theorie,nadharia,s,ushungi,mkutano,uwakilishi,NA,sdfdsf,NA,1,NA,NA,NA,NA,NA,NA,NA,NA,NA,NA,NA,NA,NA,NA,NA,NA,NA,NA,NA
96de1,Deep Question,html.Page,5_0_1_0_7_0_0,NA,NA,form submission,5537.1400000001,2602197,2602189.32,2602205.86,2607743,2607743,2024-11-23T11:14:29Z,2607751.14,NULL,Verpackung,ufungaji,d,NA,NA,NA,mojp,NA,NA,1,NA,NA,NA,NA,NA,NA,NA,NA,NA,NA,NA,NA,NA,NA,NA,NA,NA,NA,NA
96de1,"""Richtig""-Screen",canvas.Screen,5_0_1_0_7_0_1,NA,NA,skipped,NA,2607745,NA,NA,2607743,2607745,2024-11-23T11:14:29Z,2607751.14,NULL,Verpackung,ufungaji,d,NA,NA,NA,NA,sdfdsf,NA,1,NA,NA,NA,NA,NA,NA,NA,NA,NA,NA,NA,NA,NA,NA,NA,NA,NA,NA,NA
96de1,"""Falsch""-Screen",canvas.Screen,5_0_1_0_7_0_2,NA,NA,timeout,4996.02,2607747,2607742.38,2607751.14,2612730.74,2612732,2024-11-23T11:14:34Z,2612747.16,NULL,Verpackung,ufungaji,d,NA,NA,NA,NA,sdfdsf,0,1,NA,NA,NA,NA,NA,NA,NA,NA,NA,NA,NA,NA,NA,NA,NA,NA,NA,NA,NA
96de1,deep,flow.Sequence,5_0_1_0_7_0,NA,NA,completion,10524.88,2602197,2602189.32,2602205.86,2612730.74,2612732,2024-11-23T11:14:34Z,2612747.16,NULL,Verpackung,ufungaji,d,NA,NA,NA,NA,sdfdsf,NA,1,NA,NA,NA,NA,NA,NA,NA,NA,NA,NA,NA,NA,NA,NA,NA,NA,NA,NA,NA
96de1,shallow,flow.Sequence,5_0_1_0_7_1,NA,NA,skipped,NA,2612733,NA,NA,2612730.74,2612733,2024-11-23T11:14:34Z,2612747.16,NULL,Verpackung,ufungaji,d,NA,NA,NA,NA,sdfdsf,NA,1,NA,NA,NA,NA,NA,NA,NA,NA,NA,NA,NA,NA,NA,NA,NA,NA,NA,NA,NA
96de1,task,flow.Sequence,5_0_1_0_7,NA,NA,completion,10524.88,2602197,2602189.32,2602205.86,2612730.74,2612733,2024-11-23T11:14:34Z,2612747.16,NULL,Verpackung,ufungaji,d,NA,NA,NA,NA,sdfdsf,NA,1,NA,NA,NA,NA,NA,NA,NA,NA,NA,NA,NA,NA,NA,NA,NA,NA,NA,NA,NA
96de1,block,flow.Loop,5_0_1_0,NA,NA,completion,88244.18,2524471,2524471.74,2524486.56,2612730.74,2612734,2024-11-23T11:14:34Z,2612747.16,NULL,NA,NA,NA,NA,NA,NA,NA,sdfdsf,NA,1,NA,NA,NA,NA,NA,NA,NA,NA,NA,NA,NA,NA,NA,NA,NA,NA,NA,NA,NA
96de1,weiter,canvas.Screen,5_0_1_1,sdf,keypress(Space),response,1073.8399999999,2612734,2612730.74,2612747.16,2613821,2613838,2024-11-23T11:14:35Z,2613896.2,NULL,NA,NA,NA,NA,NA,NA,NA,sdfdsf,NA,1,NA,NA,NA,NA,NA,NA,NA,NA,NA,NA,NA,NA,NA,NA,NA,NA,NA,NA,NA
96de1,check continue,flow.Sequence,5_0_1,NA,NA,completion,89334.44,2524471,2524471.74,2524486.56,2613821,2613838,2024-11-23T11:14:35Z,2613896.2,NULL,NA,NA,NA,NA,NA,NA,NA,sdfdsf,NA,1,NA,NA,NA,NA,NA,NA,NA,NA,NA,NA,NA,NA,NA,NA,NA,NA,NA,NA,NA
96de1,Deep Question,html.Page,5_0_2_0_0_0_0,NA,NA,form submission,8651.7999999998,2613883,2613882.98,2613896.2,2622548,2622548,2024-11-23T11:14:44Z,2622555.6,NULL,Wettbewerb,ushindani,d,NA,NA,NA,ufundani,NA,NA,2,NA,NA,NA,NA,NA,NA,NA,NA,NA,NA,NA,NA,NA,NA,NA,NA,NA,NA,NA
96de1,"""Richtig""-Screen",canvas.Screen,5_0_2_0_0_0_1,NA,NA,skipped,NA,2622549,NA,NA,2622548,2622550,2024-11-23T11:14:44Z,2622555.6,NULL,Wettbewerb,ushindani,d,NA,NA,NA,NA,sdf,NA,2,NA,NA,NA,NA,NA,NA,NA,NA,NA,NA,NA,NA,NA,NA,NA,NA,NA,NA,NA
96de1,"""Falsch""-Screen",canvas.Screen,5_0_2_0_0_0_2,NA,NA,timeout,4996.0800000001,2622552,2622547.38,2622555.6,2627535.06,2627536,2024-11-23T11:14:49Z,2627551.68,NULL,Wettbewerb,ushindani,d,NA,NA,NA,NA,sdf,0,2,NA,NA,NA,NA,NA,NA,NA,NA,NA,NA,NA,NA,NA,NA,NA,NA,NA,NA,NA
96de1,deep,flow.Sequence,5_0_2_0_0_0,NA,NA,completion,13638.86,2613883,2613882.98,2613896.2,2627535.06,2627537,2024-11-23T11:14:49Z,2627551.68,NULL,Wettbewerb,ushindani,d,NA,NA,NA,NA,sdf,NA,2,NA,NA,NA,NA,NA,NA,NA,NA,NA,NA,NA,NA,NA,NA,NA,NA,NA,NA,NA
96de1,shallow,flow.Sequence,5_0_2_0_0_1,NA,NA,skipped,NA,2627537,NA,NA,2627535.06,2627537,2024-11-23T11:14:49Z,2627551.68,NULL,Wettbewerb,ushindani,d,NA,NA,NA,NA,sdf,NA,2,NA,NA,NA,NA,NA,NA,NA,NA,NA,NA,NA,NA,NA,NA,NA,NA,NA,NA,NA
96de1,task,flow.Sequence,5_0_2_0_0,NA,NA,completion,13638.86,2613883,2613882.98,2613896.2,2627535.06,2627537,2024-11-23T11:14:49Z,2627551.68,NULL,Wettbewerb,ushindani,d,NA,NA,NA,NA,sdf,NA,2,NA,NA,NA,NA,NA,NA,NA,NA,NA,NA,NA,NA,NA,NA,NA,NA,NA,NA,NA
96de1,deep,flow.Sequence,5_0_2_0_1_0,NA,NA,skipped,NA,2627538,NA,NA,2627535.06,2627538,2024-11-23T11:14:49Z,2627551.68,NULL,Zufall,kikuti,s,kukosekana,uchoraji,leseni,NA,sdf,NA,2,NA,NA,NA,NA,NA,NA,NA,NA,NA,NA,NA,NA,NA,NA,NA,NA,NA,NA,NA
96de1,Shallow Question,html.Page,5_0_2_0_1_1_0,NA,NA,form submission,5438.3199999998,2627538,2627535.06,2627551.68,2632990,2632991,2024-11-23T11:14:55Z,2632997.14,NULL,Zufall,kikuti,s,kukosekana,uchoraji,leseni,kikuti,NA,NA,2,NA,NA,NA,NA,NA,NA,NA,NA,NA,NA,NA,NA,NA,NA,NA,NA,NA,NA,NA
96de1,"""Richtig""-Screen",canvas.Screen,5_0_2_0_1_1_1,NA,NA,timeout,4995.9199999999,2632995,2632987.42,2632997.14,2637976.36,2637977,2024-11-23T11:15:00Z,2637993.06,NULL,Zufall,kikuti,s,kukosekana,uchoraji,leseni,NA,sdf,1,2,NA,NA,NA,NA,NA,NA,NA,NA,NA,NA,NA,NA,NA,NA,NA,NA,NA,NA,NA
96de1,"""Falsch""-Screen",canvas.Screen,5_0_2_0_1_1_2,NA,NA,skipped,NA,2637979,NA,NA,2637976.36,2637979,2024-11-23T11:15:00Z,2637993.06,NULL,Zufall,kikuti,s,kukosekana,uchoraji,leseni,NA,sdf,NA,2,NA,NA,NA,NA,NA,NA,NA,NA,NA,NA,NA,NA,NA,NA,NA,NA,NA,NA,NA
