observation,sender,sender_type,sender_id,response,response_action,ended_on,duration,time_run,time_render,time_show,time_end,time_commit,timestamp,time_switch,distractors,german,swahili,enc,distractor1,distractor2,distractor3,response_2,x,correct,x_2,url_vp,url_sess,meta_labjs_version,meta_location,meta_user_agent,meta_platform,meta_language,meta_locale,meta_time_zone,meta_timezone_offset,meta_screen_width,meta_screen_height,meta_scroll_width,meta_scroll_height,meta_window_inner_width,meta_window_inner_height,meta_device_pixel_ratio,meta_labjs_build_flavor,meta_labjs_build_commit
ef940,Introduction general,canvas.Screen,0,weiter,keypress(q),response,10971.649999999,152.19999999925,92.321,142.75,11114.399999999,11120.199999999,2023-08-22T08:45:50Z,11125.644,NULL,NA,NA,NA,NA,NA,NA,NA,NA,NA,NA,130,3,20.2.4,https://neurocog.fernuni.ch/studies/vweber/encoding_immediate/index.html?vp=130&sess=3,"Mozilla/5.0 (Macintosh; Intel Mac OS X 10_15_7) AppleWebKit/537.36 (KHTML, like Gecko) Chrome/116.0.0.0 Safari/537.36",MacIntel,de-DE,de,Europe/Zurich,-120,1440,900,1440,735,1440,783,2,production,f5b4a49f956347addd546a832a3327688c2c0fef
ef940,Introduction practice,canvas.Screen,1_0,NA,keypress(Space),response,1077.155999997,11120.5,11108.978,11125.644,12202.799999997,12206,2023-08-22T08:45:51Z,12209.404,NULL,NA,NA,NA,NA,NA,NA,NA,NA,NA,NA,NA,NA,NA,NA,NA,NA,NA,NA,NA,NA,NA,NA,NA,NA,NA,NA,NA,NA,NA
ef940,Deep Question,html.Page,1_1_0_0_0,NA,NA,form submission,3601.2959999993,12206.399999999,12192.738,12209.404,15810.699999999,15811.199999999,2023-08-22T08:45:55Z,15825.926,"c(""distractor1"", ""distractor2"", ""distractor3"")",Qualität,mtindo,d,NA,NA,NA,sds,NA,NA,NA,NA,NA,NA,NA,NA,NA,NA,NA,NA,NA,NA,NA,NA,NA,NA,NA,NA,NA,NA
ef940,"""Richtig""-Screen",canvas.Screen,1_1_0_0_1,NA,NA,skipped,NA,15812.799999997,NA,NA,15810.699999999,15812.899999999,2023-08-22T08:45:55Z,15825.926,"c(""distractor1"", ""distractor2"", ""distractor3"")",Qualität,mtindo,d,NA,NA,NA,NA,NA,NA,NA,NA,NA,NA,NA,NA,NA,NA,NA,NA,NA,NA,NA,NA,NA,NA,NA,NA,NA,NA
ef940,"""Falsch""-Screen",canvas.Screen,1_1_0_0_2,NA,NA,timeout,4999.8,15813.899999999,15809.26,15825.926,20809.06,20814.299999997,2023-08-22T08:46:00Z,20825.726,"c(""distractor1"", ""distractor2"", ""distractor3"")",Qualität,mtindo,d,NA,NA,NA,NA,NA,0,NA,NA,NA,NA,NA,NA,NA,NA,NA,NA,NA,NA,NA,NA,NA,NA,NA,NA,NA,NA
ef940,deep,flow.Sequence,1_1_0_0,NA,NA,completion,8599.656,12206.399999999,12192.738,12209.404,20809.06,20814.799999997,2023-08-22T08:46:00Z,20825.726,"c(""distractor1"", ""distractor2"", ""distractor3"")",Qualität,mtindo,d,NA,NA,NA,NA,NA,NA,NA,NA,NA,NA,NA,NA,NA,NA,NA,NA,NA,NA,NA,NA,NA,NA,NA,NA,NA,NA
ef940,shallow,flow.Sequence,1_1_0_1,NA,NA,skipped,NA,20815,NA,NA,20809.06,20815.099999998,2023-08-22T08:46:00Z,20825.726,"c(""distractor1"", ""distractor2"", ""distractor3"")",Qualität,mtindo,d,NA,NA,NA,NA,NA,NA,NA,NA,NA,NA,NA,NA,NA,NA,NA,NA,NA,NA,NA,NA,NA,NA,NA,NA,NA,NA
ef940,task,flow.Sequence,1_1_0,NA,NA,completion,8599.656,12206.399999999,12192.738,12209.404,20809.06,20815.399999999,2023-08-22T08:46:00Z,20825.726,"c(""distractor1"", ""distractor2"", ""distractor3"")",Qualität,mtindo,d,NA,NA,NA,NA,NA,NA,NA,NA,NA,NA,NA,NA,NA,NA,NA,NA,NA,NA,NA,NA,NA,NA,NA,NA,NA,NA
ef940,Deep Question,html.Page,1_1_1_0_0,NA,NA,form submission,1437.3739999978,20815.699999999,20809.06,20825.726,22263.099999998,22263.599999998,2023-08-22T08:46:01Z,22276.104,"c(""distractor1"", ""distractor2"", ""distractor3"")",Schatten,kivuli,d,NA,NA,NA,sdf,NA,NA,NA,NA,NA,NA,NA,NA,NA,NA,NA,NA,NA,NA,NA,NA,NA,NA,NA,NA,NA,NA
ef940,"""Richtig""-Screen",canvas.Screen,1_1_1_0_1,NA,NA,skipped,NA,22265.099999998,NA,NA,22263.099999998,22265.199999999,2023-08-22T08:46:01Z,22276.104,"c(""distractor1"", ""distractor2"", ""distractor3"")",Schatten,kivuli,d,NA,NA,NA,NA,NA,NA,NA,NA,NA,NA,NA,NA,NA,NA,NA,NA,NA,NA,NA,NA,NA,NA,NA,NA,NA,NA
ef940,"""Falsch""-Screen",canvas.Screen,1_1_1_0_2,NA,NA,timeout,4999.8,22266.099999998,22259.438,22276.104,27259.238,27263.799999997,2023-08-22T08:46:06Z,27275.904,"c(""distractor1"", ""distractor2"", ""distractor3"")",Schatten,kivuli,d,NA,NA,NA,NA,NA,0,NA,NA,NA,NA,NA,NA,NA,NA,NA,NA,NA,NA,NA,NA,NA,NA,NA,NA,NA,NA
ef940,deep,flow.Sequence,1_1_1_0,NA,NA,completion,6433.512,20815.599999998,20809.06,20825.726,27259.238,27264.299999997,2023-08-22T08:46:06Z,27275.904,"c(""distractor1"", ""distractor2"", ""distractor3"")",Schatten,kivuli,d,NA,NA,NA,NA,NA,NA,NA,NA,NA,NA,NA,NA,NA,NA,NA,NA,NA,NA,NA,NA,NA,NA,NA,NA,NA,NA
ef940,shallow,flow.Sequence,1_1_1_1,NA,NA,skipped,NA,27264.399999999,NA,NA,27259.238,27264.599999998,2023-08-22T08:46:06Z,27275.904,"c(""distractor1"", ""distractor2"", ""distractor3"")",Schatten,kivuli,d,NA,NA,NA,NA,NA,NA,NA,NA,NA,NA,NA,NA,NA,NA,NA,NA,NA,NA,NA,NA,NA,NA,NA,NA,NA,NA
ef940,task,flow.Sequence,1_1_1,NA,NA,completion,6433.512,20815.5,20809.06,20825.726,27259.238,27264.899999999,2023-08-22T08:46:06Z,27275.904,"c(""distractor1"", ""distractor2"", ""distractor3"")",Schatten,kivuli,d,NA,NA,NA,NA,NA,NA,NA,NA,NA,NA,NA,NA,NA,NA,NA,NA,NA,NA,NA,NA,NA,NA,NA,NA,NA,NA
ef940,Deep Question,html.Page,1_1_2_0_0,NA,NA,form submission,1093.096,27265,27259.238,27275.904,28369,28369.599999998,2023-08-22T08:46:07Z,28375.86,"c(""distractor1"", ""distractor2"", ""distractor3"")",Gesundheit,salama,d,NA,NA,NA,fsdaf,NA,NA,NA,NA,NA,NA,NA,NA,NA,NA,NA,NA,NA,NA,NA,NA,NA,NA,NA,NA,NA,NA
ef940,"""Richtig""-Screen",canvas.Screen,1_1_2_0_1,NA,NA,skipped,NA,28370.899999999,NA,NA,28369,28371,2023-08-22T08:46:07Z,28375.86,"c(""distractor1"", ""distractor2"", ""distractor3"")",Gesundheit,salama,d,NA,NA,NA,NA,NA,NA,NA,NA,NA,NA,NA,NA,NA,NA,NA,NA,NA,NA,NA,NA,NA,NA,NA,NA,NA,NA
ef940,"""Falsch""-Screen",canvas.Screen,1_1_2_0_2,NA,NA,timeout,5000.129,28371.699999999,28359.194,28375.86,33359.323,33365,2023-08-22T08:46:12Z,33375.989,"c(""distractor1"", ""distractor2"", ""distractor3"")",Gesundheit,salama,d,NA,NA,NA,NA,NA,0,NA,NA,NA,NA,NA,NA,NA,NA,NA,NA,NA,NA,NA,NA,NA,NA,NA,NA,NA,NA
ef940,deep,flow.Sequence,1_1_2_0,NA,NA,completion,6083.419,27265,27259.238,27275.904,33359.323,33365.399999999,2023-08-22T08:46:12Z,33375.989,"c(""distractor1"", ""distractor2"", ""distractor3"")",Gesundheit,salama,d,NA,NA,NA,NA,NA,NA,NA,NA,NA,NA,NA,NA,NA,NA,NA,NA,NA,NA,NA,NA,NA,NA,NA,NA,NA,NA
ef940,shallow,flow.Sequence,1_1_2_1,NA,NA,skipped,NA,33365.5,NA,NA,33359.323,33365.599999998,2023-08-22T08:46:12Z,33375.989,"c(""distractor1"", ""distractor2"", ""distractor3"")",Gesundheit,salama,d,NA,NA,NA,NA,NA,NA,NA,NA,NA,NA,NA,NA,NA,NA,NA,NA,NA,NA,NA,NA,NA,NA,NA,NA,NA,NA
ef940,task,flow.Sequence,1_1_2,NA,NA,completion,6083.419,27265,27259.238,27275.904,33359.323,33365.799999997,2023-08-22T08:46:12Z,33375.989,"c(""distractor1"", ""distractor2"", ""distractor3"")",Gesundheit,salama,d,NA,NA,NA,NA,NA,NA,NA,NA,NA,NA,NA,NA,NA,NA,NA,NA,NA,NA,NA,NA,NA,NA,NA,NA,NA,NA
ef940,deep,flow.Sequence,1_1_3_0,NA,NA,skipped,NA,33365.899999999,NA,NA,33359.323,33366.099999998,2023-08-22T08:46:12Z,33375.989,"c(""distractor1"", ""distractor2"", ""distractor3"")",Gegenwart,hadhara,s,katiba,jokofu,mikopo,NA,NA,NA,NA,NA,NA,NA,NA,NA,NA,NA,NA,NA,NA,NA,NA,NA,NA,NA,NA,NA,NA,NA
ef940,Shallow Question,html.Page,1_1_3_1_0,NA,NA,form submission,2653.4109999985,33366.199999999,33359.323,33375.989,36029.399999999,36029.899999999,2023-08-22T08:46:15Z,36042.549,"c(""distractor1"", ""distractor2"", ""distractor3"")",Gegenwart,hadhara,s,katiba,jokofu,mikopo,hadhara,NA,NA,NA,NA,NA,NA,NA,NA,NA,NA,NA,NA,NA,NA,NA,NA,NA,NA,NA,NA,NA,NA
ef940,"""Richtig""-Screen",canvas.Screen,1_1_3_1_1,NA,NA,timeout,4999.8,36031.099999998,36025.883,36042.549,41025.683,41030.799999997,2023-08-22T08:46:20Z,41042.349,"c(""distractor1"", ""distractor2"", ""distractor3"")",Gegenwart,hadhara,s,katiba,jokofu,mikopo,NA,NA,1,NA,NA,NA,NA,NA,NA,NA,NA,NA,NA,NA,NA,NA,NA,NA,NA,NA,NA,NA,NA
ef940,"""Falsch""-Screen",canvas.Screen,1_1_3_1_2,NA,NA,skipped,NA,41031.899999999,NA,NA,41025.683,41032,2023-08-22T08:46:20Z,41042.349,"c(""distractor1"", ""distractor2"", ""distractor3"")",Gegenwart,hadhara,s,katiba,jokofu,mikopo,NA,NA,NA,NA,NA,NA,NA,NA,NA,NA,NA,NA,NA,NA,NA,NA,NA,NA,NA,NA,NA,NA,NA
ef940,shallow,flow.Sequence,1_1_3_1,NA,NA,completion,7649.694,33366.199999999,33359.323,33375.989,41025.683,41032.099999998,2023-08-22T08:46:20Z,41042.349,"c(""distractor1"", ""distractor2"", ""distractor3"")",Gegenwart,hadhara,s,katiba,jokofu,mikopo,NA,NA,NA,NA,NA,NA,NA,NA,NA,NA,NA,NA,NA,NA,NA,NA,NA,NA,NA,NA,NA,NA,NA
ef940,task,flow.Sequence,1_1_3,NA,NA,completion,7649.694,33365.899999999,33359.323,33375.989,41025.683,41032.099999998,2023-08-22T08:46:20Z,41042.349,"c(""distractor1"", ""distractor2"", ""distractor3"")",Gegenwart,hadhara,s,katiba,jokofu,mikopo,NA,NA,NA,NA,NA,NA,NA,NA,NA,NA,NA,NA,NA,NA,NA,NA,NA,NA,NA,NA,NA,NA,NA
ef940,deep,flow.Sequence,1_1_4_0,NA,NA,skipped,NA,41032.199999999,NA,NA,41025.683,41032.199999999,2023-08-22T08:46:20Z,41042.349,"c(""distractor1"", ""distractor2"", ""distractor3"")",Rückhalt,msaada,s,muhula,auwali,kiwimbe,NA,NA,NA,NA,NA,NA,NA,NA,NA,NA,NA,NA,NA,NA,NA,NA,NA,NA,NA,NA,NA,NA,NA
ef940,Shallow Question,html.Page,1_1_4_1_0,NA,NA,form submission,3307.5509999985,41032.199999999,41025.683,41042.349,44349.899999999,44350.399999999,2023-08-22T08:46:23Z,44359.502,"c(""distractor1"", ""distractor2"", ""distractor3"")",Rückhalt,msaada,s,muhula,auwali,kiwimbe,kiwimbe,NA,NA,NA,NA,NA,NA,NA,NA,NA,NA,NA,NA,NA,NA,NA,NA,NA,NA,NA,NA,NA,NA
ef940,"""Richtig""-Screen",canvas.Screen,1_1_4_1_1,NA,NA,skipped,NA,44351.899999999,NA,NA,44349.899999999,44352,2023-08-22T08:46:23Z,44359.502,"c(""distractor1"", ""distractor2"", ""distractor3"")",Rückhalt,msaada,s,muhula,auwali,kiwimbe,NA,NA,NA,NA,NA,NA,NA,NA,NA,NA,NA,NA,NA,NA,NA,NA,NA,NA,NA,NA,NA,NA,NA
ef940,"""Falsch""-Screen",canvas.Screen,1_1_4_1_2,NA,NA,timeout,4999.8,44352.799999997,44342.836,44359.502,49342.636,49346.799999997,2023-08-22T08:46:28Z,49359.302,"c(""distractor1"", ""distractor2"", ""distractor3"")",Rückhalt,msaada,s,muhula,auwali,kiwimbe,NA,NA,0,NA,NA,NA,NA,NA,NA,NA,NA,NA,NA,NA,NA,NA,NA,NA,NA,NA,NA,NA,NA
ef940,shallow,flow.Sequence,1_1_4_1,NA,NA,completion,8300.287,41032.199999999,41025.683,41042.349,49342.636,49347.199999999,2023-08-22T08:46:28Z,49359.302,"c(""distractor1"", ""distractor2"", ""distractor3"")",Rückhalt,msaada,s,muhula,auwali,kiwimbe,NA,NA,NA,NA,NA,NA,NA,NA,NA,NA,NA,NA,NA,NA,NA,NA,NA,NA,NA,NA,NA,NA,NA
ef940,task,flow.Sequence,1_1_4,NA,NA,completion,8300.287,41032.199999999,41025.683,41042.349,49342.636,49347.399999999,2023-08-22T08:46:28Z,49359.302,"c(""distractor1"", ""distractor2"", ""distractor3"")",Rückhalt,msaada,s,muhula,auwali,kiwimbe,NA,NA,NA,NA,NA,NA,NA,NA,NA,NA,NA,NA,NA,NA,NA,NA,NA,NA,NA,NA,NA,NA,NA
ef940,deep,flow.Sequence,1_1_5_0,NA,NA,skipped,NA,49347.599999998,NA,NA,49342.636,49347.699999999,2023-08-22T08:46:28Z,49359.302,"c(""distractor1"", ""distractor2"", ""distractor3"")",Kritik,lawama,s,dereva,nafasi,mawazo,NA,NA,NA,NA,NA,NA,NA,NA,NA,NA,NA,NA,NA,NA,NA,NA,NA,NA,NA,NA,NA,NA,NA
ef940,Shallow Question,html.Page,1_1_5_1_0,NA,NA,form submission,2032.997999997,49347.899999999,49342.636,49359.302,51392.299999997,51392.699999999,2023-08-22T08:46:30Z,51392.554,"c(""distractor1"", ""distractor2"", ""distractor3"")",Kritik,lawama,s,dereva,nafasi,mawazo,lawama,NA,NA,NA,NA,NA,NA,NA,NA,NA,NA,NA,NA,NA,NA,NA,NA,NA,NA,NA,NA,NA,NA
ef940,"""Richtig""-Screen",canvas.Screen,1_1_5_1_1,NA,NA,timeout,5000.164,51394.099999998,51375.888,51392.554,56376.052,56377.099999998,2023-08-22T08:46:35Z,56392.718,"c(""distractor1"", ""distractor2"", ""distractor3"")",Kritik,lawama,s,dereva,nafasi,mawazo,NA,NA,1,NA,NA,NA,NA,NA,NA,NA,NA,NA,NA,NA,NA,NA,NA,NA,NA,NA,NA,NA,NA
ef940,"""Falsch""-Screen",canvas.Screen,1_1_5_1_2,NA,NA,skipped,NA,56378.699999999,NA,NA,56376.052,56378.799999997,2023-08-22T08:46:35Z,56392.718,"c(""distractor1"", ""distractor2"", ""distractor3"")",Kritik,lawama,s,dereva,nafasi,mawazo,NA,NA,NA,NA,NA,NA,NA,NA,NA,NA,NA,NA,NA,NA,NA,NA,NA,NA,NA,NA,NA,NA,NA
ef940,shallow,flow.Sequence,1_1_5_1,NA,NA,completion,7016.75,49347.799999997,49342.636,49359.302,56376.052,56379,2023-08-22T08:46:35Z,56392.718,"c(""distractor1"", ""distractor2"", ""distractor3"")",Kritik,lawama,s,dereva,nafasi,mawazo,NA,NA,NA,NA,NA,NA,NA,NA,NA,NA,NA,NA,NA,NA,NA,NA,NA,NA,NA,NA,NA,NA,NA
ef940,task,flow.Sequence,1_1_5,NA,NA,completion,7016.75,49347.599999998,49342.636,49359.302,56376.052,56379.099999998,2023-08-22T08:46:35Z,56392.718,"c(""distractor1"", ""distractor2"", ""distractor3"")",Kritik,lawama,s,dereva,nafasi,mawazo,NA,NA,NA,NA,NA,NA,NA,NA,NA,NA,NA,NA,NA,NA,NA,NA,NA,NA,NA,NA,NA,NA,NA
ef940,block,flow.Loop,1_1,NA,NA,completion,44166.648,12206.299999997,12192.738,12209.404,56376.052,56379.299999997,2023-08-22T08:46:35Z,56392.718,"c(""distractor1"", ""distractor2"", ""distractor3"")",NA,NA,NA,NA,NA,NA,NA,NA,NA,NA,NA,NA,NA,NA,NA,NA,NA,NA,NA,NA,NA,NA,NA,NA,NA,NA,NA,NA,NA
ef940,Practice,flow.Sequence,1,NA,NA,completion,45250.408,11120.5,11108.978,11125.644,56376.052,56379.399999999,2023-08-22T08:46:35Z,56392.718,NULL,NA,NA,NA,NA,NA,NA,NA,NA,NA,NA,NA,NA,NA,NA,NA,NA,NA,NA,NA,NA,NA,NA,NA,NA,NA,NA,NA,NA,NA
ef940,Experiment start,canvas.Screen,2,weiter,keypress(q),response,3301.3819999978,56379.5,56376.052,56392.718,59694.099999998,59697.599999998,2023-08-22T08:46:38Z,59759.25,NULL,NA,NA,NA,NA,NA,NA,NA,NA,NA,NA,NA,NA,NA,NA,NA,NA,NA,NA,NA,NA,NA,NA,NA,NA,NA,NA,NA,NA,NA
ef940,Deep Question,html.Page,3_0_0_0_0_0_0,NA,NA,form submission,21275.149999999,59755.099999998,59742.584,59759.25,81034.399999999,81035,2023-08-22T08:47:00Z,81042.877,NULL,Gefährdung,kuhatarisha,d,NA,NA,NA,husulu,NA,NA,0,NA,NA,NA,NA,NA,NA,NA,NA,NA,NA,NA,NA,NA,NA,NA,NA,NA,NA,NA
ef940,"""Richtig""-Screen",canvas.Screen,3_0_0_0_0_0_1,NA,NA,skipped,NA,81038.099999998,NA,NA,81034.399999999,81038.299999997,2023-08-22T08:47:00Z,81042.877,NULL,Gefährdung,kuhatarisha,d,NA,NA,NA,NA,sdf,NA,0,NA,NA,NA,NA,NA,NA,NA,NA,NA,NA,NA,NA,NA,NA,NA,NA,NA,NA,NA
ef940,"""Falsch""-Screen",canvas.Screen,3_0_0_0_0_0_2,NA,NA,timeout,4999.8,81039.099999998,81026.211,81042.877,86026.011,86030.799999997,2023-08-22T08:47:05Z,86042.677,NULL,Gefährdung,kuhatarisha,d,NA,NA,NA,NA,sdf,0,0,NA,NA,NA,NA,NA,NA,NA,NA,NA,NA,NA,NA,NA,NA,NA,NA,NA,NA,NA
ef940,deep,flow.Sequence,3_0_0_0_0_0,NA,NA,completion,26266.761,59755.099999998,59742.584,59759.25,86026.011,86031.299999997,2023-08-22T08:47:05Z,86042.677,NULL,Gefährdung,kuhatarisha,d,NA,NA,NA,NA,sdf,NA,0,NA,NA,NA,NA,NA,NA,NA,NA,NA,NA,NA,NA,NA,NA,NA,NA,NA,NA,NA
ef940,shallow,flow.Sequence,3_0_0_0_0_1,NA,NA,skipped,NA,86031.399999999,NA,NA,86026.011,86031.599999998,2023-08-22T08:47:05Z,86042.677,NULL,Gefährdung,kuhatarisha,d,NA,NA,NA,NA,sdf,NA,0,NA,NA,NA,NA,NA,NA,NA,NA,NA,NA,NA,NA,NA,NA,NA,NA,NA,NA,NA
ef940,task,flow.Sequence,3_0_0_0_0,NA,NA,completion,26266.761,59755.099999998,59742.584,59759.25,86026.011,86031.699999999,2023-08-22T08:47:05Z,86042.677,NULL,Gefährdung,kuhatarisha,d,NA,NA,NA,NA,sdf,NA,0,NA,NA,NA,NA,NA,NA,NA,NA,NA,NA,NA,NA,NA,NA,NA,NA,NA,NA,NA
ef940,deep,flow.Sequence,3_0_0_0_1_0,NA,NA,skipped,NA,86031.899999999,NA,NA,86026.011,86031.899999999,2023-08-22T08:47:05Z,86042.677,NULL,Kreativität,ubunifu,s,mratibu,mwendelezo,makubaliano,NA,sdf,NA,0,NA,NA,NA,NA,NA,NA,NA,NA,NA,NA,NA,NA,NA,NA,NA,NA,NA,NA,NA
ef940,Shallow Question,html.Page,3_0_0_0_1_1_0,NA,NA,form submission,11308.122999997,86032.099999998,86026.011,86042.677,97350.799999997,97351.299999997,2023-08-22T08:47:16Z,97359.373,NULL,Kreativität,ubunifu,s,mratibu,mwendelezo,makubaliano,ubunifu,NA,NA,0,NA,NA,NA,NA,NA,NA,NA,NA,NA,NA,NA,NA,NA,NA,NA,NA,NA,NA,NA
ef940,"""Richtig""-Screen",canvas.Screen,3_0_0_0_1_1_1,NA,NA,timeout,5000.225,97354.199999999,97342.707,97359.373,102342.932,102345.8,2023-08-22T08:47:21Z,102359.598,NULL,Kreativität,ubunifu,s,mratibu,mwendelezo,makubaliano,NA,sdf,1,0,NA,NA,NA,NA,NA,NA,NA,NA,NA,NA,NA,NA,NA,NA,NA,NA,NA,NA,NA
ef940,"""Falsch""-Screen",canvas.Screen,3_0_0_0_1_1_2,NA,NA,skipped,NA,102348.1,NA,NA,102342.932,102348.2,2023-08-22T08:47:21Z,102359.598,NULL,Kreativität,ubunifu,s,mratibu,mwendelezo,makubaliano,NA,sdf,NA,0,NA,NA,NA,NA,NA,NA,NA,NA,NA,NA,NA,NA,NA,NA,NA,NA,NA,NA,NA
ef940,shallow,flow.Sequence,3_0_0_0_1_1,NA,NA,completion,16300.255,86032,86026.011,86042.677,102342.932,102348.5,2023-08-22T08:47:21Z,102359.598,NULL,Kreativität,ubunifu,s,mratibu,mwendelezo,makubaliano,NA,sdf,NA,0,NA,NA,NA,NA,NA,NA,NA,NA,NA,NA,NA,NA,NA,NA,NA,NA,NA,NA,NA
ef940,task,flow.Sequence,3_0_0_0_1,NA,NA,completion,16300.255,86031.799999997,86026.011,86042.677,102342.932,102348.7,2023-08-22T08:47:21Z,102359.598,NULL,Kreativität,ubunifu,s,mratibu,mwendelezo,makubaliano,NA,sdf,NA,0,NA,NA,NA,NA,NA,NA,NA,NA,NA,NA,NA,NA,NA,NA,NA,NA,NA,NA,NA
ef940,deep,flow.Sequence,3_0_0_0_2_0,NA,NA,skipped,NA,102348.8,NA,NA,102342.932,102348.9,2023-08-22T08:47:21Z,102359.598,NULL,Gelegenheit,wakati,s,mchanganyiko,kipaumbele,kushuku,NA,sdf,NA,0,NA,NA,NA,NA,NA,NA,NA,NA,NA,NA,NA,NA,NA,NA,NA,NA,NA,NA,NA
ef940,Shallow Question,html.Page,3_0_0_0_2_1_0,NA,NA,form submission,8424.402,102349,102342.932,102359.598,110784,110784.4,2023-08-22T08:47:30Z,110793.042,NULL,Gelegenheit,wakati,s,mchanganyiko,kipaumbele,kushuku,wakati,NA,NA,0,NA,NA,NA,NA,NA,NA,NA,NA,NA,NA,NA,NA,NA,NA,NA,NA,NA,NA,NA
ef940,"""Richtig""-Screen",canvas.Screen,3_0_0_0_2_1_1,NA,NA,timeout,4999.8,110786.8,110776.376,110793.042,115776.176,115781.1,2023-08-22T08:47:35Z,115792.842,NULL,Gelegenheit,wakati,s,mchanganyiko,kipaumbele,kushuku,NA,sdf,1,0,NA,NA,NA,NA,NA,NA,NA,NA,NA,NA,NA,NA,NA,NA,NA,NA,NA,NA,NA
ef940,"""Falsch""-Screen",canvas.Screen,3_0_0_0_2_1_2,NA,NA,skipped,NA,115783.3,NA,NA,115776.176,115783.5,2023-08-22T08:47:35Z,115792.842,NULL,Gelegenheit,wakati,s,mchanganyiko,kipaumbele,kushuku,NA,sdf,NA,0,NA,NA,NA,NA,NA,NA,NA,NA,NA,NA,NA,NA,NA,NA,NA,NA,NA,NA,NA
ef940,shallow,flow.Sequence,3_0_0_0_2_1,NA,NA,completion,13416.578,102349,102342.932,102359.598,115776.176,115783.7,2023-08-22T08:47:35Z,115792.842,NULL,Gelegenheit,wakati,s,mchanganyiko,kipaumbele,kushuku,NA,sdf,NA,0,NA,NA,NA,NA,NA,NA,NA,NA,NA,NA,NA,NA,NA,NA,NA,NA,NA,NA,NA
ef940,task,flow.Sequence,3_0_0_0_2,NA,NA,completion,13416.578,102348.7,102342.932,102359.598,115776.176,115784,2023-08-22T08:47:35Z,115792.842,NULL,Gelegenheit,wakati,s,mchanganyiko,kipaumbele,kushuku,NA,sdf,NA,0,NA,NA,NA,NA,NA,NA,NA,NA,NA,NA,NA,NA,NA,NA,NA,NA,NA,NA,NA
ef940,Deep Question,html.Page,3_0_0_0_3_0_0,NA,NA,form submission,20641.757999998,115784.2,115776.176,115792.842,136434.6,136435,2023-08-22T08:47:55Z,136443.046,NULL,Kontrolle,kudhibiti,d,NA,NA,NA,husulu,NA,NA,0,NA,NA,NA,NA,NA,NA,NA,NA,NA,NA,NA,NA,NA,NA,NA,NA,NA,NA,NA
ef940,"""Richtig""-Screen",canvas.Screen,3_0_0_0_3_0_1,NA,NA,skipped,NA,136437.6,NA,NA,136434.6,136437.7,2023-08-22T08:47:55Z,136443.046,NULL,Kontrolle,kudhibiti,d,NA,NA,NA,NA,sdf,NA,0,NA,NA,NA,NA,NA,NA,NA,NA,NA,NA,NA,NA,NA,NA,NA,NA,NA,NA,NA
ef940,"""Falsch""-Screen",canvas.Screen,3_0_0_0_3_0_2,NA,NA,timeout,5000.34,136438.5,136426.38,136443.046,141426.72,141430.9,2023-08-22T08:48:00Z,141443.386,NULL,Kontrolle,kudhibiti,d,NA,NA,NA,NA,sdf,0,0,NA,NA,NA,NA,NA,NA,NA,NA,NA,NA,NA,NA,NA,NA,NA,NA,NA,NA,NA
ef940,deep,flow.Sequence,3_0_0_0_3_0,NA,NA,completion,25633.878,115784.1,115776.176,115792.842,141426.72,141431.2,2023-08-22T08:48:00Z,141443.386,NULL,Kontrolle,kudhibiti,d,NA,NA,NA,NA,sdf,NA,0,NA,NA,NA,NA,NA,NA,NA,NA,NA,NA,NA,NA,NA,NA,NA,NA,NA,NA,NA
ef940,shallow,flow.Sequence,3_0_0_0_3_1,NA,NA,skipped,NA,141431.4,NA,NA,141426.72,141431.6,2023-08-22T08:48:00Z,141443.386,NULL,Kontrolle,kudhibiti,d,NA,NA,NA,NA,sdf,NA,0,NA,NA,NA,NA,NA,NA,NA,NA,NA,NA,NA,NA,NA,NA,NA,NA,NA,NA,NA
ef940,task,flow.Sequence,3_0_0_0_3,NA,NA,completion,25633.878,115784.1,115776.176,115792.842,141426.72,141431.7,2023-08-22T08:48:00Z,141443.386,NULL,Kontrolle,kudhibiti,d,NA,NA,NA,NA,sdf,NA,0,NA,NA,NA,NA,NA,NA,NA,NA,NA,NA,NA,NA,NA,NA,NA,NA,NA,NA,NA
ef940,deep,flow.Sequence,3_0_0_0_4_0,NA,NA,skipped,NA,141431.8,NA,NA,141426.72,141431.9,2023-08-22T08:48:00Z,141443.386,NULL,Können,unaweza,s,kiongozi,bustani,mienendo,NA,sdf,NA,0,NA,NA,NA,NA,NA,NA,NA,NA,NA,NA,NA,NA,NA,NA,NA,NA,NA,NA,NA
ef940,Shallow Question,html.Page,3_0_0_0_4_1_0,NA,NA,form submission,20674.713999998,141432.2,141426.72,141443.386,162118.1,162118.6,2023-08-22T08:48:21Z,162126.671,NULL,Können,unaweza,s,kiongozi,bustani,mienendo,unaweza,NA,NA,0,NA,NA,NA,NA,NA,NA,NA,NA,NA,NA,NA,NA,NA,NA,NA,NA,NA,NA,NA
ef940,"""Richtig""-Screen",canvas.Screen,3_0_0_0_4_1_1,NA,NA,timeout,4999.8,162121.1,162110.005,162126.671,167109.805,167113.8,2023-08-22T08:48:26Z,167126.471,NULL,Können,unaweza,s,kiongozi,bustani,mienendo,NA,sdf,1,0,NA,NA,NA,NA,NA,NA,NA,NA,NA,NA,NA,NA,NA,NA,NA,NA,NA,NA,NA
ef940,"""Falsch""-Screen",canvas.Screen,3_0_0_0_4_1_2,NA,NA,skipped,NA,167115.7,NA,NA,167109.805,167115.8,2023-08-22T08:48:26Z,167126.471,NULL,Können,unaweza,s,kiongozi,bustani,mienendo,NA,sdf,NA,0,NA,NA,NA,NA,NA,NA,NA,NA,NA,NA,NA,NA,NA,NA,NA,NA,NA,NA,NA
ef940,shallow,flow.Sequence,3_0_0_0_4_1,NA,NA,completion,25666.419,141432.1,141426.72,141443.386,167109.805,167116,2023-08-22T08:48:26Z,167126.471,NULL,Können,unaweza,s,kiongozi,bustani,mienendo,NA,sdf,NA,0,NA,NA,NA,NA,NA,NA,NA,NA,NA,NA,NA,NA,NA,NA,NA,NA,NA,NA,NA
ef940,task,flow.Sequence,3_0_0_0_4,NA,NA,completion,25666.419,141431.8,141426.72,141443.386,167109.805,167116.1,2023-08-22T08:48:26Z,167126.471,NULL,Können,unaweza,s,kiongozi,bustani,mienendo,NA,sdf,NA,0,NA,NA,NA,NA,NA,NA,NA,NA,NA,NA,NA,NA,NA,NA,NA,NA,NA,NA,NA
ef940,Deep Question,html.Page,3_0_0_0_5_0_0,NA,NA,form submission,6208.328999997,167116.2,167109.805,167126.471,173334.8,173335.4,2023-08-22T08:48:32Z,173343.314,NULL,Verstand,ufahamivu,d,NA,NA,NA,husulu,NA,NA,0,NA,NA,NA,NA,NA,NA,NA,NA,NA,NA,NA,NA,NA,NA,NA,NA,NA,NA,NA
ef940,"""Richtig""-Screen",canvas.Screen,3_0_0_0_5_0_1,NA,NA,skipped,NA,173338,NA,NA,173334.8,173338.1,2023-08-22T08:48:32Z,173343.314,NULL,Verstand,ufahamivu,d,NA,NA,NA,NA,sdf,NA,0,NA,NA,NA,NA,NA,NA,NA,NA,NA,NA,NA,NA,NA,NA,NA,NA,NA,NA,NA
ef940,"""Falsch""-Screen",canvas.Screen,3_0_0_0_5_0_2,NA,NA,timeout,5000.314,173338.7,173326.648,173343.314,178326.962,178331.1,2023-08-22T08:48:37Z,178343.628,NULL,Verstand,ufahamivu,d,NA,NA,NA,NA,sdf,0,0,NA,NA,NA,NA,NA,NA,NA,NA,NA,NA,NA,NA,NA,NA,NA,NA,NA,NA,NA
ef940,deep,flow.Sequence,3_0_0_0_5_0,NA,NA,completion,11200.491,167116.2,167109.805,167126.471,178326.962,178331.5,2023-08-22T08:48:37Z,178343.628,NULL,Verstand,ufahamivu,d,NA,NA,NA,NA,sdf,NA,0,NA,NA,NA,NA,NA,NA,NA,NA,NA,NA,NA,NA,NA,NA,NA,NA,NA,NA,NA
ef940,shallow,flow.Sequence,3_0_0_0_5_1,NA,NA,skipped,NA,178331.6,NA,NA,178326.962,178331.8,2023-08-22T08:48:37Z,178343.628,NULL,Verstand,ufahamivu,d,NA,NA,NA,NA,sdf,NA,0,NA,NA,NA,NA,NA,NA,NA,NA,NA,NA,NA,NA,NA,NA,NA,NA,NA,NA,NA
ef940,task,flow.Sequence,3_0_0_0_5,NA,NA,completion,11200.491,167116.2,167109.805,167126.471,178326.962,178332,2023-08-22T08:48:37Z,178343.628,NULL,Verstand,ufahamivu,d,NA,NA,NA,NA,sdf,NA,0,NA,NA,NA,NA,NA,NA,NA,NA,NA,NA,NA,NA,NA,NA,NA,NA,NA,NA,NA
ef940,deep,flow.Sequence,3_0_0_0_6_0,NA,NA,skipped,NA,178332.2,NA,NA,178326.962,178332.2,2023-08-22T08:48:37Z,178343.628,NULL,Ausschluss,kutengwa,s,ununuzi,taratibu,madeni,NA,sdf,NA,0,NA,NA,NA,NA,NA,NA,NA,NA,NA,NA,NA,NA,NA,NA,NA,NA,NA,NA,NA
ef940,Shallow Question,html.Page,3_0_0_0_6_1_0,NA,NA,form submission,8841.372,178332.4,178326.962,178343.628,187185,187185.6,2023-08-22T08:48:46Z,187193.274,NULL,Ausschluss,kutengwa,s,ununuzi,taratibu,madeni,kutengwa,NA,NA,0,NA,NA,NA,NA,NA,NA,NA,NA,NA,NA,NA,NA,NA,NA,NA,NA,NA,NA,NA
ef940,"""Richtig""-Screen",canvas.Screen,3_0_0_0_6_1_1,NA,NA,timeout,5000.216,187188,187176.608,187193.274,192176.824,192180.7,2023-08-22T08:48:51Z,192193.49,NULL,Ausschluss,kutengwa,s,ununuzi,taratibu,madeni,NA,sdf,1,0,NA,NA,NA,NA,NA,NA,NA,NA,NA,NA,NA,NA,NA,NA,NA,NA,NA,NA,NA
ef940,"""Falsch""-Screen",canvas.Screen,3_0_0_0_6_1_2,NA,NA,skipped,NA,192182.5,NA,NA,192176.824,192182.7,2023-08-22T08:48:51Z,192193.49,NULL,Ausschluss,kutengwa,s,ununuzi,taratibu,madeni,NA,sdf,NA,0,NA,NA,NA,NA,NA,NA,NA,NA,NA,NA,NA,NA,NA,NA,NA,NA,NA,NA,NA
ef940,shallow,flow.Sequence,3_0_0_0_6_1,NA,NA,completion,13833.196,178332.4,178326.962,178343.628,192176.824,192182.8,2023-08-22T08:48:51Z,192193.49,NULL,Ausschluss,kutengwa,s,ununuzi,taratibu,madeni,NA,sdf,NA,0,NA,NA,NA,NA,NA,NA,NA,NA,NA,NA,NA,NA,NA,NA,NA,NA,NA,NA,NA
ef940,task,flow.Sequence,3_0_0_0_6,NA,NA,completion,13833.196,178332.1,178326.962,178343.628,192176.824,192183,2023-08-22T08:48:51Z,192193.49,NULL,Ausschluss,kutengwa,s,ununuzi,taratibu,madeni,NA,sdf,NA,0,NA,NA,NA,NA,NA,NA,NA,NA,NA,NA,NA,NA,NA,NA,NA,NA,NA,NA,NA
ef940,Deep Question,html.Page,3_0_0_0_7_0_0,NA,NA,form submission,8190.809999997,192183.1,192176.824,192193.49,200384.3,200384.7,2023-08-22T08:48:59Z,200393.162,NULL,Widerstand,usulubu,d,NA,NA,NA,husulu,NA,NA,0,NA,NA,NA,NA,NA,NA,NA,NA,NA,NA,NA,NA,NA,NA,NA,NA,NA,NA,NA
ef940,"""Richtig""-Screen",canvas.Screen,3_0_0_0_7_0_1,NA,NA,skipped,NA,200386.9,NA,NA,200384.3,200387.1,2023-08-22T08:48:59Z,200393.162,NULL,Widerstand,usulubu,d,NA,NA,NA,NA,sdf,NA,0,NA,NA,NA,NA,NA,NA,NA,NA,NA,NA,NA,NA,NA,NA,NA,NA,NA,NA,NA
ef940,"""Falsch""-Screen",canvas.Screen,3_0_0_0_7_0_2,NA,NA,timeout,5000.627,200388.1,200376.496,200393.162,205377.123,205381.7,2023-08-22T08:49:04Z,205393.789,NULL,Widerstand,usulubu,d,NA,NA,NA,NA,sdf,0,0,NA,NA,NA,NA,NA,NA,NA,NA,NA,NA,NA,NA,NA,NA,NA,NA,NA,NA,NA
ef940,deep,flow.Sequence,3_0_0_0_7_0,NA,NA,completion,13183.633,192183.1,192176.824,192193.49,205377.123,205382,2023-08-22T08:49:04Z,205393.789,NULL,Widerstand,usulubu,d,NA,NA,NA,NA,sdf,NA,0,NA,NA,NA,NA,NA,NA,NA,NA,NA,NA,NA,NA,NA,NA,NA,NA,NA,NA,NA
ef940,shallow,flow.Sequence,3_0_0_0_7_1,NA,NA,skipped,NA,205382.2,NA,NA,205377.123,205382.4,2023-08-22T08:49:04Z,205393.789,NULL,Widerstand,usulubu,d,NA,NA,NA,NA,sdf,NA,0,NA,NA,NA,NA,NA,NA,NA,NA,NA,NA,NA,NA,NA,NA,NA,NA,NA,NA,NA
ef940,task,flow.Sequence,3_0_0_0_7,NA,NA,completion,13183.633,192183,192176.824,192193.49,205377.123,205382.5,2023-08-22T08:49:04Z,205393.789,NULL,Widerstand,usulubu,d,NA,NA,NA,NA,sdf,NA,0,NA,NA,NA,NA,NA,NA,NA,NA,NA,NA,NA,NA,NA,NA,NA,NA,NA,NA,NA
ef940,block,flow.Loop,3_0_0_0,NA,NA,completion,145617.873,59755.099999998,59742.584,59759.25,205377.123,205382.8,2023-08-22T08:49:04Z,205393.789,NULL,NA,NA,NA,NA,NA,NA,NA,sdf,NA,0,NA,NA,NA,NA,NA,NA,NA,NA,NA,NA,NA,NA,NA,NA,NA,NA,NA,NA,NA
ef940,weiter,canvas.Screen,3_0_0_1,sdf,keypress(Space),response,1750.3109999978,205382.9,205377.123,205393.789,207144.1,207147.7,2023-08-22T08:49:06Z,207160.385,NULL,NA,NA,NA,NA,NA,NA,NA,sdf,NA,0,NA,NA,NA,NA,NA,NA,NA,NA,NA,NA,NA,NA,NA,NA,NA,NA,NA,NA,NA
ef940,check continue,flow.Sequence,3_0_0,NA,NA,completion,147384.85,59755.099999998,59742.584,59759.25,207144.1,207148,2023-08-22T08:49:06Z,207160.385,NULL,NA,NA,NA,NA,NA,NA,NA,sdf,NA,0,NA,NA,NA,NA,NA,NA,NA,NA,NA,NA,NA,NA,NA,NA,NA,NA,NA,NA,NA
ef940,deep,flow.Sequence,3_0_1_0_0_0,NA,NA,skipped,NA,207174.6,NA,NA,207144.1,207174.7,2023-08-22T08:49:06Z,207160.385,NULL,Können,unaweza,s,kiongozi,bustani,mienendo,NA,sdfdsf,NA,1,NA,NA,NA,NA,NA,NA,NA,NA,NA,NA,NA,NA,NA,NA,NA,NA,NA,NA,NA
ef940,Shallow Question,html.Page,3_0_1_0_0_1_0,NA,NA,form submission,6125.2149999978,207174.8,207143.719,207160.385,213285.6,213286.1,2023-08-22T08:49:12Z,213293.473,NULL,Können,unaweza,s,kiongozi,bustani,mienendo,unaweza,NA,NA,1,NA,NA,NA,NA,NA,NA,NA,NA,NA,NA,NA,NA,NA,NA,NA,NA,NA,NA,NA
ef940,"""Richtig""-Screen",canvas.Screen,3_0_1_0_0_1_1,NA,NA,timeout,5000.168,213288.3,213276.807,213293.473,218276.975,218281.7,2023-08-22T08:49:17Z,218293.641,NULL,Können,unaweza,s,kiongozi,bustani,mienendo,NA,sdfdsf,1,1,NA,NA,NA,NA,NA,NA,NA,NA,NA,NA,NA,NA,NA,NA,NA,NA,NA,NA,NA
ef940,"""Falsch""-Screen",canvas.Screen,3_0_1_0_0_1_2,NA,NA,skipped,NA,218283.7,NA,NA,218276.975,218283.8,2023-08-22T08:49:17Z,218293.641,NULL,Können,unaweza,s,kiongozi,bustani,mienendo,NA,sdfdsf,NA,1,NA,NA,NA,NA,NA,NA,NA,NA,NA,NA,NA,NA,NA,NA,NA,NA,NA,NA,NA
ef940,shallow,flow.Sequence,3_0_1_0_0_1,NA,NA,completion,11116.59,207174.8,207143.719,207160.385,218276.975,218284.1,2023-08-22T08:49:17Z,218293.641,NULL,Können,unaweza,s,kiongozi,bustani,mienendo,NA,sdfdsf,NA,1,NA,NA,NA,NA,NA,NA,NA,NA,NA,NA,NA,NA,NA,NA,NA,NA,NA,NA,NA
ef940,task,flow.Sequence,3_0_1_0_0,NA,NA,completion,11116.59,207174.6,207143.719,207160.385,218276.975,218284.2,2023-08-22T08:49:17Z,218293.641,NULL,Können,unaweza,s,kiongozi,bustani,mienendo,NA,sdfdsf,NA,1,NA,NA,NA,NA,NA,NA,NA,NA,NA,NA,NA,NA,NA,NA,NA,NA,NA,NA,NA
ef940,Deep Question,html.Page,3_0_1_0_1_0_0,NA,NA,form submission,8407.9589999978,218284.5,218276.975,218293.641,226701.6,226702.1,2023-08-22T08:49:25Z,226709.971,NULL,Widerstand,usulubu,d,NA,NA,NA,usulubu,NA,NA,1,NA,NA,NA,NA,NA,NA,NA,NA,NA,NA,NA,NA,NA,NA,NA,NA,NA,NA,NA
ef940,"""Richtig""-Screen",canvas.Screen,3_0_1_0_1_0_1,NA,NA,timeout,5000.41,226705,226693.305,226709.971,231693.715,231698.3,2023-08-22T08:49:30Z,231710.381,NULL,Widerstand,usulubu,d,NA,NA,NA,NA,sdfdsf,1,1,NA,NA,NA,NA,NA,NA,NA,NA,NA,NA,NA,NA,NA,NA,NA,NA,NA,NA,NA
ef940,"""Falsch""-Screen",canvas.Screen,3_0_1_0_1_0_2,NA,NA,skipped,NA,231699.9,NA,NA,231693.715,231700.1,2023-08-22T08:49:30Z,231710.381,NULL,Widerstand,usulubu,d,NA,NA,NA,NA,sdfdsf,NA,1,NA,NA,NA,NA,NA,NA,NA,NA,NA,NA,NA,NA,NA,NA,NA,NA,NA,NA,NA
ef940,deep,flow.Sequence,3_0_1_0_1_0,NA,NA,completion,13400.074,218284.5,218276.975,218293.641,231693.715,231700.3,2023-08-22T08:49:30Z,231710.381,NULL,Widerstand,usulubu,d,NA,NA,NA,NA,sdfdsf,NA,1,NA,NA,NA,NA,NA,NA,NA,NA,NA,NA,NA,NA,NA,NA,NA,NA,NA,NA,NA
ef940,shallow,flow.Sequence,3_0_1_0_1_1,NA,NA,skipped,NA,231700.4,NA,NA,231693.715,231700.5,2023-08-22T08:49:30Z,231710.381,NULL,Widerstand,usulubu,d,NA,NA,NA,NA,sdfdsf,NA,1,NA,NA,NA,NA,NA,NA,NA,NA,NA,NA,NA,NA,NA,NA,NA,NA,NA,NA,NA
ef940,task,flow.Sequence,3_0_1_0_1,NA,NA,completion,13400.074,218284.4,218276.975,218293.641,231693.715,231700.6,2023-08-22T08:49:30Z,231710.381,NULL,Widerstand,usulubu,d,NA,NA,NA,NA,sdfdsf,NA,1,NA,NA,NA,NA,NA,NA,NA,NA,NA,NA,NA,NA,NA,NA,NA,NA,NA,NA,NA
ef940,Deep Question,html.Page,3_0_1_0_2_0_0,NA,NA,form submission,8740.918999997,231700.8,231693.715,231710.381,240451.3,240451.7,2023-08-22T08:49:39Z,240460.031,NULL,Kontrolle,kudhibiti,d,NA,NA,NA,usulubu,NA,NA,1,NA,NA,NA,NA,NA,NA,NA,NA,NA,NA,NA,NA,NA,NA,NA,NA,NA,NA,NA
ef940,"""Richtig""-Screen",canvas.Screen,3_0_1_0_2_0_1,NA,NA,skipped,NA,240454.2,NA,NA,240451.3,240454.4,2023-08-22T08:49:39Z,240460.031,NULL,Kontrolle,kudhibiti,d,NA,NA,NA,NA,sdfdsf,NA,1,NA,NA,NA,NA,NA,NA,NA,NA,NA,NA,NA,NA,NA,NA,NA,NA,NA,NA,NA
ef940,"""Falsch""-Screen",canvas.Screen,3_0_1_0_2_0_2,NA,NA,timeout,5000.483,240455.1,240443.365,240460.031,245443.848,245447.6,2023-08-22T08:49:44Z,245460.514,NULL,Kontrolle,kudhibiti,d,NA,NA,NA,NA,sdfdsf,0,1,NA,NA,NA,NA,NA,NA,NA,NA,NA,NA,NA,NA,NA,NA,NA,NA,NA,NA,NA
ef940,deep,flow.Sequence,3_0_1_0_2_0,NA,NA,completion,13733.467,231700.8,231693.715,231710.381,245443.848,245448,2023-08-22T08:49:44Z,245460.514,NULL,Kontrolle,kudhibiti,d,NA,NA,NA,NA,sdfdsf,NA,1,NA,NA,NA,NA,NA,NA,NA,NA,NA,NA,NA,NA,NA,NA,NA,NA,NA,NA,NA
ef940,shallow,flow.Sequence,3_0_1_0_2_1,NA,NA,skipped,NA,245448.2,NA,NA,245443.848,245448.3,2023-08-22T08:49:44Z,245460.514,NULL,Kontrolle,kudhibiti,d,NA,NA,NA,NA,sdfdsf,NA,1,NA,NA,NA,NA,NA,NA,NA,NA,NA,NA,NA,NA,NA,NA,NA,NA,NA,NA,NA
ef940,task,flow.Sequence,3_0_1_0_2,NA,NA,completion,13733.467,231700.7,231693.715,231710.381,245443.848,245448.5,2023-08-22T08:49:44Z,245460.514,NULL,Kontrolle,kudhibiti,d,NA,NA,NA,NA,sdfdsf,NA,1,NA,NA,NA,NA,NA,NA,NA,NA,NA,NA,NA,NA,NA,NA,NA,NA,NA,NA,NA
ef940,deep,flow.Sequence,3_0_1_0_3_0,NA,NA,skipped,NA,245448.6,NA,NA,245443.848,245448.8,2023-08-22T08:49:44Z,245460.514,NULL,Kreativität,ubunifu,s,mratibu,mwendelezo,makubaliano,NA,sdfdsf,NA,1,NA,NA,NA,NA,NA,NA,NA,NA,NA,NA,NA,NA,NA,NA,NA,NA,NA,NA,NA
ef940,Shallow Question,html.Page,3_0_1_0_3_1_0,NA,NA,form submission,14007.986,245448.9,245443.848,245460.514,259468.5,259468.9,2023-08-22T08:49:58Z,259477.075,NULL,Kreativität,ubunifu,s,mratibu,mwendelezo,makubaliano,ubunifu,NA,NA,1,NA,NA,NA,NA,NA,NA,NA,NA,NA,NA,NA,NA,NA,NA,NA,NA,NA,NA,NA
ef940,"""Richtig""-Screen",canvas.Screen,3_0_1_0_3_1_1,NA,NA,timeout,5000.207,259471.5,259460.409,259477.075,264460.616,264464.8,2023-08-22T08:50:03Z,264477.282,NULL,Kreativität,ubunifu,s,mratibu,mwendelezo,makubaliano,NA,sdfdsf,1,1,NA,NA,NA,NA,NA,NA,NA,NA,NA,NA,NA,NA,NA,NA,NA,NA,NA,NA,NA
ef940,"""Falsch""-Screen",canvas.Screen,3_0_1_0_3_1_2,NA,NA,skipped,NA,264466.6,NA,NA,264460.616,264466.7,2023-08-22T08:50:03Z,264477.282,NULL,Kreativität,ubunifu,s,mratibu,mwendelezo,makubaliano,NA,sdfdsf,NA,1,NA,NA,NA,NA,NA,NA,NA,NA,NA,NA,NA,NA,NA,NA,NA,NA,NA,NA,NA
ef940,shallow,flow.Sequence,3_0_1_0_3_1,NA,NA,completion,19000.102,245448.9,245443.848,245460.514,264460.616,264467,2023-08-22T08:50:03Z,264477.282,NULL,Kreativität,ubunifu,s,mratibu,mwendelezo,makubaliano,NA,sdfdsf,NA,1,NA,NA,NA,NA,NA,NA,NA,NA,NA,NA,NA,NA,NA,NA,NA,NA,NA,NA,NA
ef940,task,flow.Sequence,3_0_1_0_3,NA,NA,completion,19000.102,245448.6,245443.848,245460.514,264460.616,264467.1,2023-08-22T08:50:03Z,264477.282,NULL,Kreativität,ubunifu,s,mratibu,mwendelezo,makubaliano,NA,sdfdsf,NA,1,NA,NA,NA,NA,NA,NA,NA,NA,NA,NA,NA,NA,NA,NA,NA,NA,NA,NA,NA
ef940,deep,flow.Sequence,3_0_1_0_4_0,NA,NA,skipped,NA,264467.2,NA,NA,264460.616,264467.3,2023-08-22T08:50:03Z,264477.282,NULL,Gelegenheit,wakati,s,mchanganyiko,kipaumbele,kushuku,NA,sdfdsf,NA,1,NA,NA,NA,NA,NA,NA,NA,NA,NA,NA,NA,NA,NA,NA,NA,NA,NA,NA,NA
ef940,Shallow Question,html.Page,3_0_1_0_4_1_0,NA,NA,form submission,4424.8179999978,264467.4,264460.616,264477.282,268902.1,268902.6,2023-08-22T08:50:08Z,268910.438,NULL,Gelegenheit,wakati,s,mchanganyiko,kipaumbele,kushuku,wakati,NA,NA,1,NA,NA,NA,NA,NA,NA,NA,NA,NA,NA,NA,NA,NA,NA,NA,NA,NA,NA,NA
ef940,"""Richtig""-Screen",canvas.Screen,3_0_1_0_4_1_1,NA,NA,timeout,4999.8,268904,268893.772,268910.438,273893.572,273895.4,2023-08-22T08:50:13Z,273910.238,NULL,Gelegenheit,wakati,s,mchanganyiko,kipaumbele,kushuku,NA,sdfdsf,1,1,NA,NA,NA,NA,NA,NA,NA,NA,NA,NA,NA,NA,NA,NA,NA,NA,NA,NA,NA
ef940,"""Falsch""-Screen",canvas.Screen,3_0_1_0_4_1_2,NA,NA,skipped,NA,273896.6,NA,NA,273893.572,273896.7,2023-08-22T08:50:13Z,273910.238,NULL,Gelegenheit,wakati,s,mchanganyiko,kipaumbele,kushuku,NA,sdfdsf,NA,1,NA,NA,NA,NA,NA,NA,NA,NA,NA,NA,NA,NA,NA,NA,NA,NA,NA,NA,NA
ef940,shallow,flow.Sequence,3_0_1_0_4_1,NA,NA,completion,9416.29,264467.4,264460.616,264477.282,273893.572,273896.8,2023-08-22T08:50:13Z,273910.238,NULL,Gelegenheit,wakati,s,mchanganyiko,kipaumbele,kushuku,NA,sdfdsf,NA,1,NA,NA,NA,NA,NA,NA,NA,NA,NA,NA,NA,NA,NA,NA,NA,NA,NA,NA,NA
ef940,task,flow.Sequence,3_0_1_0_4,NA,NA,completion,9416.29,264467.2,264460.616,264477.282,273893.572,273896.9,2023-08-22T08:50:13Z,273910.238,NULL,Gelegenheit,wakati,s,mchanganyiko,kipaumbele,kushuku,NA,sdfdsf,NA,1,NA,NA,NA,NA,NA,NA,NA,NA,NA,NA,NA,NA,NA,NA,NA,NA,NA,NA,NA
ef940,Deep Question,html.Page,3_0_1_0_5_0_0,NA,NA,form submission,6008.561999997,273897,273893.572,273910.238,279918.8,279919.3,2023-08-22T08:50:19Z,279927.299,NULL,Verstand,ufahamivu,d,NA,NA,NA,husulusu,NA,NA,1,NA,NA,NA,NA,NA,NA,NA,NA,NA,NA,NA,NA,NA,NA,NA,NA,NA,NA,NA
ef940,"""Richtig""-Screen",canvas.Screen,3_0_1_0_5_0_1,NA,NA,skipped,NA,279921.6,NA,NA,279918.8,279921.7,2023-08-22T08:50:19Z,279927.299,NULL,Verstand,ufahamivu,d,NA,NA,NA,NA,sdfdsf,NA,1,NA,NA,NA,NA,NA,NA,NA,NA,NA,NA,NA,NA,NA,NA,NA,NA,NA,NA,NA
ef940,"""Falsch""-Screen",canvas.Screen,3_0_1_0_5_0_2,NA,NA,timeout,5000.036,279922.3,279910.633,279927.299,284910.669,284914.8,2023-08-22T08:50:24Z,284927.335,NULL,Verstand,ufahamivu,d,NA,NA,NA,NA,sdfdsf,0,1,NA,NA,NA,NA,NA,NA,NA,NA,NA,NA,NA,NA,NA,NA,NA,NA,NA,NA,NA
ef940,deep,flow.Sequence,3_0_1_0_5_0,NA,NA,completion,11000.431,273897,273893.572,273910.238,284910.669,284915.3,2023-08-22T08:50:24Z,284927.335,NULL,Verstand,ufahamivu,d,NA,NA,NA,NA,sdfdsf,NA,1,NA,NA,NA,NA,NA,NA,NA,NA,NA,NA,NA,NA,NA,NA,NA,NA,NA,NA,NA
ef940,shallow,flow.Sequence,3_0_1_0_5_1,NA,NA,skipped,NA,284915.4,NA,NA,284910.669,284915.6,2023-08-22T08:50:24Z,284927.335,NULL,Verstand,ufahamivu,d,NA,NA,NA,NA,sdfdsf,NA,1,NA,NA,NA,NA,NA,NA,NA,NA,NA,NA,NA,NA,NA,NA,NA,NA,NA,NA,NA
ef940,task,flow.Sequence,3_0_1_0_5,NA,NA,completion,11000.431,273897,273893.572,273910.238,284910.669,284915.7,2023-08-22T08:50:24Z,284927.335,NULL,Verstand,ufahamivu,d,NA,NA,NA,NA,sdfdsf,NA,1,NA,NA,NA,NA,NA,NA,NA,NA,NA,NA,NA,NA,NA,NA,NA,NA,NA,NA,NA
ef940,Deep Question,html.Page,3_0_1_0_6_0_0,NA,NA,form submission,9091.165,284915.9,284910.669,284927.335,294018.5,294019.1,2023-08-22T08:50:33Z,294026.971,NULL,Gefährdung,kuhatarisha,d,NA,NA,NA,husulusu,NA,NA,1,NA,NA,NA,NA,NA,NA,NA,NA,NA,NA,NA,NA,NA,NA,NA,NA,NA,NA,NA
ef940,"""Richtig""-Screen",canvas.Screen,3_0_1_0_6_0_1,NA,NA,skipped,NA,294022.4,NA,NA,294018.5,294022.8,2023-08-22T08:50:33Z,294026.971,NULL,Gefährdung,kuhatarisha,d,NA,NA,NA,NA,sdfdsf,NA,1,NA,NA,NA,NA,NA,NA,NA,NA,NA,NA,NA,NA,NA,NA,NA,NA,NA,NA,NA
ef940,"""Falsch""-Screen",canvas.Screen,3_0_1_0_6_0_2,NA,NA,timeout,5000.659,294024,294010.305,294026.971,299010.964,299015.4,2023-08-22T08:50:38Z,299027.63,NULL,Gefährdung,kuhatarisha,d,NA,NA,NA,NA,sdfdsf,0,1,NA,NA,NA,NA,NA,NA,NA,NA,NA,NA,NA,NA,NA,NA,NA,NA,NA,NA,NA
ef940,deep,flow.Sequence,3_0_1_0_6_0,NA,NA,completion,14083.629,284915.9,284910.669,284927.335,299010.964,299015.8,2023-08-22T08:50:38Z,299027.63,NULL,Gefährdung,kuhatarisha,d,NA,NA,NA,NA,sdfdsf,NA,1,NA,NA,NA,NA,NA,NA,NA,NA,NA,NA,NA,NA,NA,NA,NA,NA,NA,NA,NA
ef940,shallow,flow.Sequence,3_0_1_0_6_1,NA,NA,skipped,NA,299016,NA,NA,299010.964,299016.1,2023-08-22T08:50:38Z,299027.63,NULL,Gefährdung,kuhatarisha,d,NA,NA,NA,NA,sdfdsf,NA,1,NA,NA,NA,NA,NA,NA,NA,NA,NA,NA,NA,NA,NA,NA,NA,NA,NA,NA,NA
ef940,task,flow.Sequence,3_0_1_0_6,NA,NA,completion,14083.629,284915.8,284910.669,284927.335,299010.964,299016.3,2023-08-22T08:50:38Z,299027.63,NULL,Gefährdung,kuhatarisha,d,NA,NA,NA,NA,sdfdsf,NA,1,NA,NA,NA,NA,NA,NA,NA,NA,NA,NA,NA,NA,NA,NA,NA,NA,NA,NA,NA
ef940,deep,flow.Sequence,3_0_1_0_7_0,NA,NA,skipped,NA,299016.4,NA,NA,299010.964,299016.6,2023-08-22T08:50:38Z,299027.63,NULL,Ausschluss,kutengwa,s,ununuzi,taratibu,madeni,NA,sdfdsf,NA,1,NA,NA,NA,NA,NA,NA,NA,NA,NA,NA,NA,NA,NA,NA,NA,NA,NA,NA,NA
ef940,Shallow Question,html.Page,3_0_1_0_7_1_0,NA,NA,form submission,5840.87,299016.8,299010.964,299027.63,304868.5,304869,2023-08-22T08:50:44Z,304877.396,NULL,Ausschluss,kutengwa,s,ununuzi,taratibu,madeni,ununuzi,NA,NA,1,NA,NA,NA,NA,NA,NA,NA,NA,NA,NA,NA,NA,NA,NA,NA,NA,NA,NA,NA
ef940,"""Richtig""-Screen",canvas.Screen,3_0_1_0_7_1_1,NA,NA,skipped,NA,304871.7,NA,NA,304868.5,304871.9,2023-08-22T08:50:44Z,304877.396,NULL,Ausschluss,kutengwa,s,ununuzi,taratibu,madeni,NA,sdfdsf,NA,1,NA,NA,NA,NA,NA,NA,NA,NA,NA,NA,NA,NA,NA,NA,NA,NA,NA,NA,NA
ef940,"""Falsch""-Screen",canvas.Screen,3_0_1_0_7_1_2,NA,NA,timeout,5000.293,304872.5,304860.73,304877.396,309861.023,309865.5,2023-08-22T08:50:49Z,309877.689,NULL,Ausschluss,kutengwa,s,ununuzi,taratibu,madeni,NA,sdfdsf,0,1,NA,NA,NA,NA,NA,NA,NA,NA,NA,NA,NA,NA,NA,NA,NA,NA,NA,NA,NA
ef940,shallow,flow.Sequence,3_0_1_0_7_1,NA,NA,completion,10833.393,299016.7,299010.964,299027.63,309861.023,309865.8,2023-08-22T08:50:49Z,309877.689,NULL,Ausschluss,kutengwa,s,ununuzi,taratibu,madeni,NA,sdfdsf,NA,1,NA,NA,NA,NA,NA,NA,NA,NA,NA,NA,NA,NA,NA,NA,NA,NA,NA,NA,NA
ef940,task,flow.Sequence,3_0_1_0_7,NA,NA,completion,10833.393,299016.4,299010.964,299027.63,309861.023,309866.1,2023-08-22T08:50:49Z,309877.689,NULL,Ausschluss,kutengwa,s,ununuzi,taratibu,madeni,NA,sdfdsf,NA,1,NA,NA,NA,NA,NA,NA,NA,NA,NA,NA,NA,NA,NA,NA,NA,NA,NA,NA,NA
ef940,block,flow.Loop,3_0_1_0,NA,NA,completion,102700.638,207174.6,207143.719,207160.385,309861.023,309866.3,2023-08-22T08:50:49Z,309877.689,NULL,NA,NA,NA,NA,NA,NA,NA,sdfdsf,NA,1,NA,NA,NA,NA,NA,NA,NA,NA,NA,NA,NA,NA,NA,NA,NA,NA,NA,NA,NA
ef940,weiter,canvas.Screen,3_0_1_1,sdf,keypress(Space),response,1213.9109999978,309866.5,309861.023,309877.689,311091.6,311095.1,2023-08-22T08:50:50Z,311110.973,NULL,NA,NA,NA,NA,NA,NA,NA,sdfdsf,NA,1,NA,NA,NA,NA,NA,NA,NA,NA,NA,NA,NA,NA,NA,NA,NA,NA,NA,NA,NA
ef940,check continue,flow.Sequence,3_0_1,NA,NA,completion,103931.215,207174.6,207143.719,207160.385,311091.6,311095.5,2023-08-22T08:50:50Z,311110.973,NULL,NA,NA,NA,NA,NA,NA,NA,sdfdsf,NA,1,NA,NA,NA,NA,NA,NA,NA,NA,NA,NA,NA,NA,NA,NA,NA,NA,NA,NA,NA
ef940,deep,flow.Sequence,3_0_2_0_0_0,NA,NA,skipped,NA,311122.6,NA,NA,311091.6,311122.7,2023-08-22T08:50:50Z,311110.973,NULL,Kreativität,ubunifu,s,mratibu,mwendelezo,makubaliano,NA,sdf,NA,2,NA,NA,NA,NA,NA,NA,NA,NA,NA,NA,NA,NA,NA,NA,NA,NA,NA,NA,NA
ef940,Shallow Question,html.Page,3_0_2_0_0_1_0,NA,NA,form submission,5574.6269999978,311122.7,311077.641,311110.973,316685.6,316686.1,2023-08-22T08:50:55Z,316694.083,NULL,Kreativität,ubunifu,s,mratibu,mwendelezo,makubaliano,ubunifu,NA,NA,2,NA,NA,NA,NA,NA,NA,NA,NA,NA,NA,NA,NA,NA,NA,NA,NA,NA,NA,NA
ef940,"""Richtig""-Screen",canvas.Screen,3_0_2_0_0_1_1,NA,NA,timeout,5000.299,316688.8,316677.417,316694.083,321677.716,321682,2023-08-22T08:51:00Z,321694.382,NULL,Kreativität,ubunifu,s,mratibu,mwendelezo,makubaliano,NA,sdf,1,2,NA,NA,NA,NA,NA,NA,NA,NA,NA,NA,NA,NA,NA,NA,NA,NA,NA,NA,NA
ef940,"""Falsch""-Screen",canvas.Screen,3_0_2_0_0_1_2,NA,NA,skipped,NA,321684.1,NA,NA,321677.716,321684.2,2023-08-22T08:51:00Z,321694.382,NULL,Kreativität,ubunifu,s,mratibu,mwendelezo,makubaliano,NA,sdf,NA,2,NA,NA,NA,NA,NA,NA,NA,NA,NA,NA,NA,NA,NA,NA,NA,NA,NA,NA,NA
ef940,shallow,flow.Sequence,3_0_2_0_0_1,NA,NA,completion,10566.743,311122.7,311077.641,311110.973,321677.716,321684.4,2023-08-22T08:51:00Z,321694.382,NULL,Kreativität,ubunifu,s,mratibu,mwendelezo,makubaliano,NA,sdf,NA,2,NA,NA,NA,NA,NA,NA,NA,NA,NA,NA,NA,NA,NA,NA,NA,NA,NA,NA,NA
ef940,task,flow.Sequence,3_0_2_0_0,NA,NA,completion,10566.743,311122.6,311077.641,311110.973,321677.716,321684.5,2023-08-22T08:51:00Z,321694.382,NULL,Kreativität,ubunifu,s,mratibu,mwendelezo,makubaliano,NA,sdf,NA,2,NA,NA,NA,NA,NA,NA,NA,NA,NA,NA,NA,NA,NA,NA,NA,NA,NA,NA,NA
ef940,Deep Question,html.Page,3_0_2_0_1_0_0,NA,NA,form submission,10091.217999998,321684.6,321677.716,321694.382,331785.6,331786.1,2023-08-22T08:51:11Z,331794.463,NULL,Kontrolle,kudhibiti,d,NA,NA,NA,husulusu,NA,NA,2,NA,NA,NA,NA,NA,NA,NA,NA,NA,NA,NA,NA,NA,NA,NA,NA,NA,NA,NA
ef940,"""Richtig""-Screen",canvas.Screen,3_0_2_0_1_0_1,NA,NA,skipped,NA,331788.4,NA,NA,331785.6,331788.6,2023-08-22T08:51:11Z,331794.463,NULL,Kontrolle,kudhibiti,d,NA,NA,NA,NA,sdf,NA,2,NA,NA,NA,NA,NA,NA,NA,NA,NA,NA,NA,NA,NA,NA,NA,NA,NA,NA,NA
ef940,"""Falsch""-Screen",canvas.Screen,3_0_2_0_1_0_2,NA,NA,timeout,4999.8,331789.2,331777.797,331794.463,336777.597,336781.2,2023-08-22T08:51:16Z,336794.263,NULL,Kontrolle,kudhibiti,d,NA,NA,NA,NA,sdf,0,2,NA,NA,NA,NA,NA,NA,NA,NA,NA,NA,NA,NA,NA,NA,NA,NA,NA,NA,NA
ef940,deep,flow.Sequence,3_0_2_0_1_0,NA,NA,completion,15083.215,321684.6,321677.716,321694.382,336777.597,336781.7,2023-08-22T08:51:16Z,336794.263,NULL,Kontrolle,kudhibiti,d,NA,NA,NA,NA,sdf,NA,2,NA,NA,NA,NA,NA,NA,NA,NA,NA,NA,NA,NA,NA,NA,NA,NA,NA,NA,NA
ef940,shallow,flow.Sequence,3_0_2_0_1_1,NA,NA,skipped,NA,336781.8,NA,NA,336777.597,336781.9,2023-08-22T08:51:16Z,336794.263,NULL,Kontrolle,kudhibiti,d,NA,NA,NA,NA,sdf,NA,2,NA,NA,NA,NA,NA,NA,NA,NA,NA,NA,NA,NA,NA,NA,NA,NA,NA,NA,NA
ef940,task,flow.Sequence,3_0_2_0_1,NA,NA,completion,15083.215,321684.6,321677.716,321694.382,336777.597,336782.2,2023-08-22T08:51:16Z,336794.263,NULL,Kontrolle,kudhibiti,d,NA,NA,NA,NA,sdf,NA,2,NA,NA,NA,NA,NA,NA,NA,NA,NA,NA,NA,NA,NA,NA,NA,NA,NA,NA,NA
ef940,Deep Question,html.Page,3_0_2_0_2_0_0,NA,NA,form submission,11107.636999999,336782.4,336777.597,336794.263,347901.9,347902.6,2023-08-22T08:51:27Z,347910.949,NULL,Widerstand,usulubu,d,NA,NA,NA,husulusu,NA,NA,2,NA,NA,NA,NA,NA,NA,NA,NA,NA,NA,NA,NA,NA,NA,NA,NA,NA,NA,NA
ef940,"""Richtig""-Screen",canvas.Screen,3_0_2_0_2_0_1,NA,NA,skipped,NA,347906,NA,NA,347901.9,347906.2,2023-08-22T08:51:27Z,347910.949,NULL,Widerstand,usulubu,d,NA,NA,NA,NA,sdf,NA,2,NA,NA,NA,NA,NA,NA,NA,NA,NA,NA,NA,NA,NA,NA,NA,NA,NA,NA,NA
ef940,"""Falsch""-Screen",canvas.Screen,3_0_2_0_2_0_2,NA,NA,timeout,5000.306,347906.8,347894.283,347910.949,352894.589,352897.8,2023-08-22T08:51:32Z,352911.255,NULL,Widerstand,usulubu,d,NA,NA,NA,NA,sdf,0,2,NA,NA,NA,NA,NA,NA,NA,NA,NA,NA,NA,NA,NA,NA,NA,NA,NA,NA,NA
ef940,deep,flow.Sequence,3_0_2_0_2_0,NA,NA,completion,16100.326,336782.3,336777.597,336794.263,352894.589,352898.2,2023-08-22T08:51:32Z,352911.255,NULL,Widerstand,usulubu,d,NA,NA,NA,NA,sdf,NA,2,NA,NA,NA,NA,NA,NA,NA,NA,NA,NA,NA,NA,NA,NA,NA,NA,NA,NA,NA
ef940,shallow,flow.Sequence,3_0_2_0_2_1,NA,NA,skipped,NA,352898.2,NA,NA,352894.589,352898.4,2023-08-22T08:51:32Z,352911.255,NULL,Widerstand,usulubu,d,NA,NA,NA,NA,sdf,NA,2,NA,NA,NA,NA,NA,NA,NA,NA,NA,NA,NA,NA,NA,NA,NA,NA,NA,NA,NA
ef940,task,flow.Sequence,3_0_2_0_2,NA,NA,completion,16100.326,336782.2,336777.597,336794.263,352894.589,352898.5,2023-08-22T08:51:32Z,352911.255,NULL,Widerstand,usulubu,d,NA,NA,NA,NA,sdf,NA,2,NA,NA,NA,NA,NA,NA,NA,NA,NA,NA,NA,NA,NA,NA,NA,NA,NA,NA,NA
ef940,deep,flow.Sequence,3_0_2_0_3_0,NA,NA,skipped,NA,352898.6,NA,NA,352894.589,352898.7,2023-08-22T08:51:32Z,352911.255,NULL,Ausschluss,kutengwa,s,ununuzi,taratibu,madeni,NA,sdf,NA,2,NA,NA,NA,NA,NA,NA,NA,NA,NA,NA,NA,NA,NA,NA,NA,NA,NA,NA,NA
ef940,Shallow Question,html.Page,3_0_2_0_3_1_0,NA,NA,form submission,10124.544999997,352898.7,352894.589,352911.255,363035.8,363036.2,2023-08-22T08:51:42Z,363044.638,NULL,Ausschluss,kutengwa,s,ununuzi,taratibu,madeni,kutengwa,NA,NA,2,NA,NA,NA,NA,NA,NA,NA,NA,NA,NA,NA,NA,NA,NA,NA,NA,NA,NA,NA
ef940,"""Richtig""-Screen",canvas.Screen,3_0_2_0_3_1_1,NA,NA,timeout,4999.8,363038.7,363027.972,363044.638,368027.772,368033.1,2023-08-22T08:51:47Z,368044.438,NULL,Ausschluss,kutengwa,s,ununuzi,taratibu,madeni,NA,sdf,1,2,NA,NA,NA,NA,NA,NA,NA,NA,NA,NA,NA,NA,NA,NA,NA,NA,NA,NA,NA
ef940,"""Falsch""-Screen",canvas.Screen,3_0_2_0_3_1_2,NA,NA,skipped,NA,368035,NA,NA,368027.772,368035.2,2023-08-22T08:51:47Z,368044.438,NULL,Ausschluss,kutengwa,s,ununuzi,taratibu,madeni,NA,sdf,NA,2,NA,NA,NA,NA,NA,NA,NA,NA,NA,NA,NA,NA,NA,NA,NA,NA,NA,NA,NA
ef940,shallow,flow.Sequence,3_0_2_0_3_1,NA,NA,completion,15116.517,352898.7,352894.589,352911.255,368027.772,368035.3,2023-08-22T08:51:47Z,368044.438,NULL,Ausschluss,kutengwa,s,ununuzi,taratibu,madeni,NA,sdf,NA,2,NA,NA,NA,NA,NA,NA,NA,NA,NA,NA,NA,NA,NA,NA,NA,NA,NA,NA,NA
ef940,task,flow.Sequence,3_0_2_0_3,NA,NA,completion,15116.517,352898.6,352894.589,352911.255,368027.772,368035.5,2023-08-22T08:51:47Z,368044.438,NULL,Ausschluss,kutengwa,s,ununuzi,taratibu,madeni,NA,sdf,NA,2,NA,NA,NA,NA,NA,NA,NA,NA,NA,NA,NA,NA,NA,NA,NA,NA,NA,NA,NA
ef940,Deep Question,html.Page,3_0_2_0_4_0_0,NA,NA,form submission,8441.4619999985,368035.7,368027.772,368044.438,376485.9,376486.4,2023-08-22T08:51:55Z,376494.559,NULL,Verstand,ufahamivu,d,NA,NA,NA,usulusu,NA,NA,2,NA,NA,NA,NA,NA,NA,NA,NA,NA,NA,NA,NA,NA,NA,NA,NA,NA,NA,NA
ef940,"""Richtig""-Screen",canvas.Screen,3_0_2_0_4_0_1,NA,NA,skipped,NA,376488.9,NA,NA,376485.9,376489,2023-08-22T08:51:55Z,376494.559,NULL,Verstand,ufahamivu,d,NA,NA,NA,NA,sdf,NA,2,NA,NA,NA,NA,NA,NA,NA,NA,NA,NA,NA,NA,NA,NA,NA,NA,NA,NA,NA
ef940,"""Falsch""-Screen",canvas.Screen,3_0_2_0_4_0_2,NA,NA,timeout,4999.8,376489.6,376477.893,376494.559,381477.693,381481.5,2023-08-22T08:52:00Z,381494.359,NULL,Verstand,ufahamivu,d,NA,NA,NA,NA,sdf,0,2,NA,NA,NA,NA,NA,NA,NA,NA,NA,NA,NA,NA,NA,NA,NA,NA,NA,NA,NA
ef940,deep,flow.Sequence,3_0_2_0_4_0,NA,NA,completion,13433.255,368035.6,368027.772,368044.438,381477.693,381481.8,2023-08-22T08:52:00Z,381494.359,NULL,Verstand,ufahamivu,d,NA,NA,NA,NA,sdf,NA,2,NA,NA,NA,NA,NA,NA,NA,NA,NA,NA,NA,NA,NA,NA,NA,NA,NA,NA,NA
ef940,shallow,flow.Sequence,3_0_2_0_4_1,NA,NA,skipped,NA,381482,NA,NA,381477.693,381482.1,2023-08-22T08:52:00Z,381494.359,NULL,Verstand,ufahamivu,d,NA,NA,NA,NA,sdf,NA,2,NA,NA,NA,NA,NA,NA,NA,NA,NA,NA,NA,NA,NA,NA,NA,NA,NA,NA,NA
ef940,task,flow.Sequence,3_0_2_0_4,NA,NA,completion,13433.255,368035.6,368027.772,368044.438,381477.693,381482.3,2023-08-22T08:52:00Z,381494.359,NULL,Verstand,ufahamivu,d,NA,NA,NA,NA,sdf,NA,2,NA,NA,NA,NA,NA,NA,NA,NA,NA,NA,NA,NA,NA,NA,NA,NA,NA,NA,NA
ef940,deep,flow.Sequence,3_0_2_0_5_0,NA,NA,skipped,NA,381482.4,NA,NA,381477.693,381482.6,2023-08-22T08:52:00Z,381494.359,NULL,Können,unaweza,s,kiongozi,bustani,mienendo,NA,sdf,NA,2,NA,NA,NA,NA,NA,NA,NA,NA,NA,NA,NA,NA,NA,NA,NA,NA,NA,NA,NA
ef940,Shallow Question,html.Page,3_0_2_0_5_1_0,NA,NA,form submission,6291.440999997,381482.7,381477.693,381494.359,387785.8,387786.2,2023-08-22T08:52:07Z,387794.564,NULL,Können,unaweza,s,kiongozi,bustani,mienendo,unaweza,NA,NA,2,NA,NA,NA,NA,NA,NA,NA,NA,NA,NA,NA,NA,NA,NA,NA,NA,NA,NA,NA
ef940,"""Richtig""-Screen",canvas.Screen,3_0_2_0_5_1_1,NA,NA,timeout,4999.8,387788.7,387777.898,387794.564,392777.698,392781.6,2023-08-22T08:52:12Z,392794.364,NULL,Können,unaweza,s,kiongozi,bustani,mienendo,NA,sdf,1,2,NA,NA,NA,NA,NA,NA,NA,NA,NA,NA,NA,NA,NA,NA,NA,NA,NA,NA,NA
ef940,"""Falsch""-Screen",canvas.Screen,3_0_2_0_5_1_2,NA,NA,skipped,NA,392783.1,NA,NA,392777.698,392783.3,2023-08-22T08:52:12Z,392794.364,NULL,Können,unaweza,s,kiongozi,bustani,mienendo,NA,sdf,NA,2,NA,NA,NA,NA,NA,NA,NA,NA,NA,NA,NA,NA,NA,NA,NA,NA,NA,NA,NA
ef940,shallow,flow.Sequence,3_0_2_0_5_1,NA,NA,completion,11283.339,381482.6,381477.693,381494.359,392777.698,392783.5,2023-08-22T08:52:12Z,392794.364,NULL,Können,unaweza,s,kiongozi,bustani,mienendo,NA,sdf,NA,2,NA,NA,NA,NA,NA,NA,NA,NA,NA,NA,NA,NA,NA,NA,NA,NA,NA,NA,NA
ef940,task,flow.Sequence,3_0_2_0_5,NA,NA,completion,11283.339,381482.4,381477.693,381494.359,392777.698,392783.6,2023-08-22T08:52:12Z,392794.364,NULL,Können,unaweza,s,kiongozi,bustani,mienendo,NA,sdf,NA,2,NA,NA,NA,NA,NA,NA,NA,NA,NA,NA,NA,NA,NA,NA,NA,NA,NA,NA,NA
ef940,Deep Question,html.Page,3_0_2_0_6_0_0,NA,NA,form submission,12057.535999999,392783.8,392777.698,392794.364,404851.9,404852.2,2023-08-22T08:52:24Z,404861.468,NULL,Gefährdung,kuhatarisha,d,NA,NA,NA,unulusu,NA,NA,2,NA,NA,NA,NA,NA,NA,NA,NA,NA,NA,NA,NA,NA,NA,NA,NA,NA,NA,NA
ef940,"""Richtig""-Screen",canvas.Screen,3_0_2_0_6_0_1,NA,NA,skipped,NA,404855.1,NA,NA,404851.9,404855.2,2023-08-22T08:52:24Z,404861.468,NULL,Gefährdung,kuhatarisha,d,NA,NA,NA,NA,sdf,NA,2,NA,NA,NA,NA,NA,NA,NA,NA,NA,NA,NA,NA,NA,NA,NA,NA,NA,NA,NA
ef940,"""Falsch""-Screen",canvas.Screen,3_0_2_0_6_0_2,NA,NA,timeout,4999.8,404855.8,404844.802,404861.468,409844.602,409849.7,2023-08-22T08:52:29Z,409861.268,NULL,Gefährdung,kuhatarisha,d,NA,NA,NA,NA,sdf,0,2,NA,NA,NA,NA,NA,NA,NA,NA,NA,NA,NA,NA,NA,NA,NA,NA,NA,NA,NA
ef940,deep,flow.Sequence,3_0_2_0_6_0,NA,NA,completion,17050.238,392783.7,392777.698,392794.364,409844.602,409850.1,2023-08-22T08:52:29Z,409861.268,NULL,Gefährdung,kuhatarisha,d,NA,NA,NA,NA,sdf,NA,2,NA,NA,NA,NA,NA,NA,NA,NA,NA,NA,NA,NA,NA,NA,NA,NA,NA,NA,NA
ef940,shallow,flow.Sequence,3_0_2_0_6_1,NA,NA,skipped,NA,409850.3,NA,NA,409844.602,409850.4,2023-08-22T08:52:29Z,409861.268,NULL,Gefährdung,kuhatarisha,d,NA,NA,NA,NA,sdf,NA,2,NA,NA,NA,NA,NA,NA,NA,NA,NA,NA,NA,NA,NA,NA,NA,NA,NA,NA,NA
ef940,task,flow.Sequence,3_0_2_0_6,NA,NA,completion,17050.238,392783.6,392777.698,392794.364,409844.602,409850.6,2023-08-22T08:52:29Z,409861.268,NULL,Gefährdung,kuhatarisha,d,NA,NA,NA,NA,sdf,NA,2,NA,NA,NA,NA,NA,NA,NA,NA,NA,NA,NA,NA,NA,NA,NA,NA,NA,NA,NA
ef940,deep,flow.Sequence,3_0_2_0_7_0,NA,NA,skipped,NA,409850.7,NA,NA,409844.602,409850.8,2023-08-22T08:52:29Z,409861.268,NULL,Gelegenheit,wakati,s,mchanganyiko,kipaumbele,kushuku,NA,sdf,NA,2,NA,NA,NA,NA,NA,NA,NA,NA,NA,NA,NA,NA,NA,NA,NA,NA,NA,NA,NA
ef940,Shallow Question,html.Page,3_0_2_0_7_1_0,NA,NA,form submission,7558.6319999985,409851,409844.602,409861.268,417419.9,417420.5,2023-08-22T08:52:36Z,417428.102,NULL,Gelegenheit,wakati,s,mchanganyiko,kipaumbele,kushuku,wakati,NA,NA,2,NA,NA,NA,NA,NA,NA,NA,NA,NA,NA,NA,NA,NA,NA,NA,NA,NA,NA,NA
ef940,"""Richtig""-Screen",canvas.Screen,3_0_2_0_7_1_1,NA,NA,timeout,4999.8,417423.3,417411.436,417428.102,422411.236,422415.5,2023-08-22T08:52:41Z,422427.902,NULL,Gelegenheit,wakati,s,mchanganyiko,kipaumbele,kushuku,NA,sdf,1,2,NA,NA,NA,NA,NA,NA,NA,NA,NA,NA,NA,NA,NA,NA,NA,NA,NA,NA,NA
ef940,"""Falsch""-Screen",canvas.Screen,3_0_2_0_7_1_2,NA,NA,skipped,NA,422417.5,NA,NA,422411.236,422417.6,2023-08-22T08:52:41Z,422427.902,NULL,Gelegenheit,wakati,s,mchanganyiko,kipaumbele,kushuku,NA,sdf,NA,2,NA,NA,NA,NA,NA,NA,NA,NA,NA,NA,NA,NA,NA,NA,NA,NA,NA,NA,NA
ef940,shallow,flow.Sequence,3_0_2_0_7_1,NA,NA,completion,12549.968,409850.9,409844.602,409861.268,422411.236,422417.9,2023-08-22T08:52:41Z,422427.902,NULL,Gelegenheit,wakati,s,mchanganyiko,kipaumbele,kushuku,NA,sdf,NA,2,NA,NA,NA,NA,NA,NA,NA,NA,NA,NA,NA,NA,NA,NA,NA,NA,NA,NA,NA
ef940,task,flow.Sequence,3_0_2_0_7,NA,NA,completion,12549.968,409850.7,409844.602,409861.268,422411.236,422418.1,2023-08-22T08:52:41Z,422427.902,NULL,Gelegenheit,wakati,s,mchanganyiko,kipaumbele,kushuku,NA,sdf,NA,2,NA,NA,NA,NA,NA,NA,NA,NA,NA,NA,NA,NA,NA,NA,NA,NA,NA,NA,NA
ef940,block,flow.Loop,3_0_2_0,NA,NA,completion,111300.263,311122.6,311077.641,311110.973,422411.236,422418.2,2023-08-22T08:52:41Z,422427.902,NULL,NA,NA,NA,NA,NA,NA,NA,sdf,NA,2,NA,NA,NA,NA,NA,NA,NA,NA,NA,NA,NA,NA,NA,NA,NA,NA,NA,NA,NA
ef940,weiter,canvas.Screen,3_0_2_1,sdf,keypress(Space),response,1196.397999997,422418.3,422411.236,422427.902,423624.3,423628.2,2023-08-22T08:52:42Z,423644.52,NULL,NA,NA,NA,NA,NA,NA,NA,sdf,NA,2,NA,NA,NA,NA,NA,NA,NA,NA,NA,NA,NA,NA,NA,NA,NA,NA,NA,NA,NA
ef940,check continue,flow.Sequence,3_0_2,NA,NA,completion,112513.327,311122.5,311077.641,311110.973,423624.3,423628.6,2023-08-22T08:52:42Z,423644.52,NULL,NA,NA,NA,NA,NA,NA,NA,sdf,NA,2,NA,NA,NA,NA,NA,NA,NA,NA,NA,NA,NA,NA,NA,NA,NA,NA,NA,NA,NA
ef940,deep,flow.Sequence,3_0_3_0_0_0,NA,NA,skipped,NA,423653.9,NA,NA,423624.3,423654,2023-08-22T08:52:42Z,423644.52,NULL,Gelegenheit,wakati,s,mchanganyiko,kipaumbele,kushuku,NA,qt,NA,3,NA,NA,NA,NA,NA,NA,NA,NA,NA,NA,NA,NA,NA,NA,NA,NA,NA,NA,NA
ef940,Shallow Question,html.Page,3_0_3_0_0_1_0,NA,NA,form submission,4008.279999997,423654,423611.188,423644.52,427652.8,427653.4,2023-08-22T08:52:46Z,427661.478,NULL,Gelegenheit,wakati,s,mchanganyiko,kipaumbele,kushuku,wakati,NA,NA,3,NA,NA,NA,NA,NA,NA,NA,NA,NA,NA,NA,NA,NA,NA,NA,NA,NA,NA,NA
ef940,"""Richtig""-Screen",canvas.Screen,3_0_3_0_0_1_1,NA,NA,timeout,4999.8,427654.8,427644.812,427661.478,432644.612,432647.9,2023-08-22T08:52:51Z,432661.278,NULL,Gelegenheit,wakati,s,mchanganyiko,kipaumbele,kushuku,NA,qt,1,3,NA,NA,NA,NA,NA,NA,NA,NA,NA,NA,NA,NA,NA,NA,NA,NA,NA,NA,NA
ef940,"""Falsch""-Screen",canvas.Screen,3_0_3_0_0_1_2,NA,NA,skipped,NA,432649.2,NA,NA,432644.612,432649.4,2023-08-22T08:52:51Z,432661.278,NULL,Gelegenheit,wakati,s,mchanganyiko,kipaumbele,kushuku,NA,qt,NA,3,NA,NA,NA,NA,NA,NA,NA,NA,NA,NA,NA,NA,NA,NA,NA,NA,NA,NA,NA
ef940,shallow,flow.Sequence,3_0_3_0_0_1,NA,NA,completion,9000.092,423654,423611.188,423644.52,432644.612,432649.5,2023-08-22T08:52:51Z,432661.278,NULL,Gelegenheit,wakati,s,mchanganyiko,kipaumbele,kushuku,NA,qt,NA,3,NA,NA,NA,NA,NA,NA,NA,NA,NA,NA,NA,NA,NA,NA,NA,NA,NA,NA,NA
ef940,task,flow.Sequence,3_0_3_0_0,NA,NA,completion,9000.092,423653.9,423611.188,423644.52,432644.612,432649.5,2023-08-22T08:52:51Z,432661.278,NULL,Gelegenheit,wakati,s,mchanganyiko,kipaumbele,kushuku,NA,qt,NA,3,NA,NA,NA,NA,NA,NA,NA,NA,NA,NA,NA,NA,NA,NA,NA,NA,NA,NA,NA
ef940,deep,flow.Sequence,3_0_3_0_1_0,NA,NA,skipped,NA,432649.5,NA,NA,432644.612,432649.7,2023-08-22T08:52:51Z,432661.278,NULL,Kreativität,ubunifu,s,mratibu,mwendelezo,makubaliano,NA,qt,NA,3,NA,NA,NA,NA,NA,NA,NA,NA,NA,NA,NA,NA,NA,NA,NA,NA,NA,NA,NA
ef940,Shallow Question,html.Page,3_0_3_0_1_1_0,NA,NA,form submission,5358.3219999978,432649.7,432644.612,432661.278,438019.6,438020.2,2023-08-22T08:52:57Z,438028.214,NULL,Kreativität,ubunifu,s,mratibu,mwendelezo,makubaliano,ubunifu,NA,NA,3,NA,NA,NA,NA,NA,NA,NA,NA,NA,NA,NA,NA,NA,NA,NA,NA,NA,NA,NA
ef940,"""Richtig""-Screen",canvas.Screen,3_0_3_0_1_1_1,NA,NA,timeout,4999.8,438021.7,438011.548,438028.214,443011.348,443016.9,2023-08-22T08:53:02Z,443028.014,NULL,Kreativität,ubunifu,s,mratibu,mwendelezo,makubaliano,NA,qt,1,3,NA,NA,NA,NA,NA,NA,NA,NA,NA,NA,NA,NA,NA,NA,NA,NA,NA,NA,NA
ef940,"""Falsch""-Screen",canvas.Screen,3_0_3_0_1_1_2,NA,NA,skipped,NA,443018.7,NA,NA,443011.348,443018.9,2023-08-22T08:53:02Z,443028.014,NULL,Kreativität,ubunifu,s,mratibu,mwendelezo,makubaliano,NA,qt,NA,3,NA,NA,NA,NA,NA,NA,NA,NA,NA,NA,NA,NA,NA,NA,NA,NA,NA,NA,NA
ef940,shallow,flow.Sequence,3_0_3_0_1_1,NA,NA,completion,10350.07,432649.7,432644.612,432661.278,443011.348,443019,2023-08-22T08:53:02Z,443028.014,NULL,Kreativität,ubunifu,s,mratibu,mwendelezo,makubaliano,NA,qt,NA,3,NA,NA,NA,NA,NA,NA,NA,NA,NA,NA,NA,NA,NA,NA,NA,NA,NA,NA,NA
ef940,task,flow.Sequence,3_0_3_0_1,NA,NA,completion,10350.07,432649.5,432644.612,432661.278,443011.348,443019.1,2023-08-22T08:53:02Z,443028.014,NULL,Kreativität,ubunifu,s,mratibu,mwendelezo,makubaliano,NA,qt,NA,3,NA,NA,NA,NA,NA,NA,NA,NA,NA,NA,NA,NA,NA,NA,NA,NA,NA,NA,NA
ef940,Deep Question,html.Page,3_0_3_0_2_0_0,NA,NA,form submission,7808.486,443019.3,443011.348,443028.014,450836.5,450836.9,2023-08-22T08:53:10Z,450844.827,NULL,Kontrolle,kudhibiti,d,NA,NA,NA,usulusu,NA,NA,3,NA,NA,NA,NA,NA,NA,NA,NA,NA,NA,NA,NA,NA,NA,NA,NA,NA,NA,NA
ef940,"""Richtig""-Screen",canvas.Screen,3_0_3_0_2_0_1,NA,NA,skipped,NA,450839.1,NA,NA,450836.5,450839.2,2023-08-22T08:53:10Z,450844.827,NULL,Kontrolle,kudhibiti,d,NA,NA,NA,NA,qt,NA,3,NA,NA,NA,NA,NA,NA,NA,NA,NA,NA,NA,NA,NA,NA,NA,NA,NA,NA,NA
ef940,"""Falsch""-Screen",canvas.Screen,3_0_3_0_2_0_2,NA,NA,timeout,5000.311,450840.1,450828.161,450844.827,455828.472,455833.7,2023-08-22T08:53:15Z,455845.138,NULL,Kontrolle,kudhibiti,d,NA,NA,NA,NA,qt,0,3,NA,NA,NA,NA,NA,NA,NA,NA,NA,NA,NA,NA,NA,NA,NA,NA,NA,NA,NA
ef940,deep,flow.Sequence,3_0_3_0_2_0,NA,NA,completion,12800.458,443019.3,443011.348,443028.014,455828.472,455834,2023-08-22T08:53:15Z,455845.138,NULL,Kontrolle,kudhibiti,d,NA,NA,NA,NA,qt,NA,3,NA,NA,NA,NA,NA,NA,NA,NA,NA,NA,NA,NA,NA,NA,NA,NA,NA,NA,NA
ef940,shallow,flow.Sequence,3_0_3_0_2_1,NA,NA,skipped,NA,455834.2,NA,NA,455828.472,455834.4,2023-08-22T08:53:15Z,455845.138,NULL,Kontrolle,kudhibiti,d,NA,NA,NA,NA,qt,NA,3,NA,NA,NA,NA,NA,NA,NA,NA,NA,NA,NA,NA,NA,NA,NA,NA,NA,NA,NA
ef940,task,flow.Sequence,3_0_3_0_2,NA,NA,completion,12800.458,443019.2,443011.348,443028.014,455828.472,455834.5,2023-08-22T08:53:15Z,455845.138,NULL,Kontrolle,kudhibiti,d,NA,NA,NA,NA,qt,NA,3,NA,NA,NA,NA,NA,NA,NA,NA,NA,NA,NA,NA,NA,NA,NA,NA,NA,NA,NA
ef940,Deep Question,html.Page,3_0_3_0_3_0_0,NA,NA,form submission,9424.7619999985,455834.7,455828.472,455845.138,465269.9,465270.1,2023-08-22T08:53:24Z,465278.094,NULL,Widerstand,usulubu,d,NA,NA,NA,usulusu,NA,NA,3,NA,NA,NA,NA,NA,NA,NA,NA,NA,NA,NA,NA,NA,NA,NA,NA,NA,NA,NA
ef940,"""Richtig""-Screen",canvas.Screen,3_0_3_0_3_0_1,NA,NA,skipped,NA,465273.7,NA,NA,465269.9,465274,2023-08-22T08:53:24Z,465278.094,NULL,Widerstand,usulubu,d,NA,NA,NA,NA,qt,NA,3,NA,NA,NA,NA,NA,NA,NA,NA,NA,NA,NA,NA,NA,NA,NA,NA,NA,NA,NA
ef940,"""Falsch""-Screen",canvas.Screen,3_0_3_0_3_0_2,NA,NA,timeout,5000.454,465274.8,465261.428,465278.094,470261.882,470265.8,2023-08-22T08:53:29Z,470278.548,NULL,Widerstand,usulubu,d,NA,NA,NA,NA,qt,0,3,NA,NA,NA,NA,NA,NA,NA,NA,NA,NA,NA,NA,NA,NA,NA,NA,NA,NA,NA
ef940,deep,flow.Sequence,3_0_3_0_3_0,NA,NA,completion,14416.744,455834.6,455828.472,455845.138,470261.882,470266.2,2023-08-22T08:53:29Z,470278.548,NULL,Widerstand,usulubu,d,NA,NA,NA,NA,qt,NA,3,NA,NA,NA,NA,NA,NA,NA,NA,NA,NA,NA,NA,NA,NA,NA,NA,NA,NA,NA
ef940,shallow,flow.Sequence,3_0_3_0_3_1,NA,NA,skipped,NA,470266.3,NA,NA,470261.882,470266.5,2023-08-22T08:53:29Z,470278.548,NULL,Widerstand,usulubu,d,NA,NA,NA,NA,qt,NA,3,NA,NA,NA,NA,NA,NA,NA,NA,NA,NA,NA,NA,NA,NA,NA,NA,NA,NA,NA
ef940,task,flow.Sequence,3_0_3_0_3,NA,NA,completion,14416.744,455834.6,455828.472,455845.138,470261.882,470266.7,2023-08-22T08:53:29Z,470278.548,NULL,Widerstand,usulubu,d,NA,NA,NA,NA,qt,NA,3,NA,NA,NA,NA,NA,NA,NA,NA,NA,NA,NA,NA,NA,NA,NA,NA,NA,NA,NA
ef940,Deep Question,html.Page,3_0_3_0_4_0_0,NA,NA,form submission,7341.3519999985,470266.8,470261.882,470278.548,477619.9,477620.5,2023-08-22T08:53:36Z,477628.254,NULL,Verstand,ufahamivu,d,NA,NA,NA,usulubu,NA,NA,3,NA,NA,NA,NA,NA,NA,NA,NA,NA,NA,NA,NA,NA,NA,NA,NA,NA,NA,NA
ef940,"""Richtig""-Screen",canvas.Screen,3_0_3_0_4_0_1,NA,NA,skipped,NA,477622.8,NA,NA,477619.9,477623,2023-08-22T08:53:36Z,477628.254,NULL,Verstand,ufahamivu,d,NA,NA,NA,NA,qt,NA,3,NA,NA,NA,NA,NA,NA,NA,NA,NA,NA,NA,NA,NA,NA,NA,NA,NA,NA,NA
ef940,"""Falsch""-Screen",canvas.Screen,3_0_3_0_4_0_2,NA,NA,timeout,5000.362,477623.7,477611.588,477628.254,482611.95,482615.3,2023-08-22T08:53:41Z,482628.616,NULL,Verstand,ufahamivu,d,NA,NA,NA,NA,qt,0,3,NA,NA,NA,NA,NA,NA,NA,NA,NA,NA,NA,NA,NA,NA,NA,NA,NA,NA,NA
ef940,deep,flow.Sequence,3_0_3_0_4_0,NA,NA,completion,12333.402,470266.8,470261.882,470278.548,482611.95,482615.7,2023-08-22T08:53:41Z,482628.616,NULL,Verstand,ufahamivu,d,NA,NA,NA,NA,qt,NA,3,NA,NA,NA,NA,NA,NA,NA,NA,NA,NA,NA,NA,NA,NA,NA,NA,NA,NA,NA
ef940,shallow,flow.Sequence,3_0_3_0_4_1,NA,NA,skipped,NA,482615.8,NA,NA,482611.95,482615.9,2023-08-22T08:53:41Z,482628.616,NULL,Verstand,ufahamivu,d,NA,NA,NA,NA,qt,NA,3,NA,NA,NA,NA,NA,NA,NA,NA,NA,NA,NA,NA,NA,NA,NA,NA,NA,NA,NA
ef940,task,flow.Sequence,3_0_3_0_4,NA,NA,completion,12333.402,470266.8,470261.882,470278.548,482611.95,482616.1,2023-08-22T08:53:41Z,482628.616,NULL,Verstand,ufahamivu,d,NA,NA,NA,NA,qt,NA,3,NA,NA,NA,NA,NA,NA,NA,NA,NA,NA,NA,NA,NA,NA,NA,NA,NA,NA,NA
ef940,deep,flow.Sequence,3_0_3_0_5_0,NA,NA,skipped,NA,482616.3,NA,NA,482611.95,482616.4,2023-08-22T08:53:41Z,482628.616,NULL,Ausschluss,kutengwa,s,ununuzi,taratibu,madeni,NA,qt,NA,3,NA,NA,NA,NA,NA,NA,NA,NA,NA,NA,NA,NA,NA,NA,NA,NA,NA,NA,NA
ef940,Shallow Question,html.Page,3_0_3_0_5_1_0,NA,NA,form submission,4524.384,482616.5,482611.95,482628.616,487153,487153.6,2023-08-22T08:53:46Z,487161.768,NULL,Ausschluss,kutengwa,s,ununuzi,taratibu,madeni,kutengwa,NA,NA,3,NA,NA,NA,NA,NA,NA,NA,NA,NA,NA,NA,NA,NA,NA,NA,NA,NA,NA,NA
ef940,"""Richtig""-Screen",canvas.Screen,3_0_3_0_5_1_1,NA,NA,timeout,4999.8,487154.9,487145.102,487161.768,492144.902,492148.4,2023-08-22T08:53:51Z,492161.568,NULL,Ausschluss,kutengwa,s,ununuzi,taratibu,madeni,NA,qt,1,3,NA,NA,NA,NA,NA,NA,NA,NA,NA,NA,NA,NA,NA,NA,NA,NA,NA,NA,NA
ef940,"""Falsch""-Screen",canvas.Screen,3_0_3_0_5_1_2,NA,NA,skipped,NA,492150.3,NA,NA,492144.902,492150.4,2023-08-22T08:53:51Z,492161.568,NULL,Ausschluss,kutengwa,s,ununuzi,taratibu,madeni,NA,qt,NA,3,NA,NA,NA,NA,NA,NA,NA,NA,NA,NA,NA,NA,NA,NA,NA,NA,NA,NA,NA
ef940,shallow,flow.Sequence,3_0_3_0_5_1,NA,NA,completion,9516.286,482616.5,482611.95,482628.616,492144.902,492150.7,2023-08-22T08:53:51Z,492161.568,NULL,Ausschluss,kutengwa,s,ununuzi,taratibu,madeni,NA,qt,NA,3,NA,NA,NA,NA,NA,NA,NA,NA,NA,NA,NA,NA,NA,NA,NA,NA,NA,NA,NA
ef940,task,flow.Sequence,3_0_3_0_5,NA,NA,completion,9516.286,482616.3,482611.95,482628.616,492144.902,492150.9,2023-08-22T08:53:51Z,492161.568,NULL,Ausschluss,kutengwa,s,ununuzi,taratibu,madeni,NA,qt,NA,3,NA,NA,NA,NA,NA,NA,NA,NA,NA,NA,NA,NA,NA,NA,NA,NA,NA,NA,NA
ef940,Deep Question,html.Page,3_0_3_0_6_0_0,NA,NA,form submission,6723.932,492151.1,492144.902,492161.568,498885.5,498886,2023-08-22T08:53:58Z,498895.07,NULL,Gefährdung,kuhatarisha,d,NA,NA,NA,usulubu,NA,NA,3,NA,NA,NA,NA,NA,NA,NA,NA,NA,NA,NA,NA,NA,NA,NA,NA,NA,NA,NA
ef940,"""Richtig""-Screen",canvas.Screen,3_0_3_0_6_0_1,NA,NA,skipped,NA,498888.3,NA,NA,498885.5,498888.4,2023-08-22T08:53:58Z,498895.07,NULL,Gefährdung,kuhatarisha,d,NA,NA,NA,NA,qt,NA,3,NA,NA,NA,NA,NA,NA,NA,NA,NA,NA,NA,NA,NA,NA,NA,NA,NA,NA,NA
ef940,"""Falsch""-Screen",canvas.Screen,3_0_3_0_6_0_2,NA,NA,timeout,4999.8,498889.2,498878.404,498895.07,503878.204,503882.8,2023-08-22T08:54:03Z,503894.87,NULL,Gefährdung,kuhatarisha,d,NA,NA,NA,NA,qt,0,3,NA,NA,NA,NA,NA,NA,NA,NA,NA,NA,NA,NA,NA,NA,NA,NA,NA,NA,NA
ef940,deep,flow.Sequence,3_0_3_0_6_0,NA,NA,completion,11716.636,492151,492144.902,492161.568,503878.204,503883.2,2023-08-22T08:54:03Z,503894.87,NULL,Gefährdung,kuhatarisha,d,NA,NA,NA,NA,qt,NA,3,NA,NA,NA,NA,NA,NA,NA,NA,NA,NA,NA,NA,NA,NA,NA,NA,NA,NA,NA
ef940,shallow,flow.Sequence,3_0_3_0_6_1,NA,NA,skipped,NA,503883.2,NA,NA,503878.204,503883.4,2023-08-22T08:54:03Z,503894.87,NULL,Gefährdung,kuhatarisha,d,NA,NA,NA,NA,qt,NA,3,NA,NA,NA,NA,NA,NA,NA,NA,NA,NA,NA,NA,NA,NA,NA,NA,NA,NA,NA
ef940,task,flow.Sequence,3_0_3_0_6,NA,NA,completion,11716.636,492151,492144.902,492161.568,503878.204,503883.5,2023-08-22T08:54:03Z,503894.87,NULL,Gefährdung,kuhatarisha,d,NA,NA,NA,NA,qt,NA,3,NA,NA,NA,NA,NA,NA,NA,NA,NA,NA,NA,NA,NA,NA,NA,NA,NA,NA,NA
ef940,deep,flow.Sequence,3_0_3_0_7_0,NA,NA,skipped,NA,503883.7,NA,NA,503878.204,503883.7,2023-08-22T08:54:03Z,503894.87,NULL,Können,unaweza,s,kiongozi,bustani,mienendo,NA,qt,NA,3,NA,NA,NA,NA,NA,NA,NA,NA,NA,NA,NA,NA,NA,NA,NA,NA,NA,NA,NA
ef940,Shallow Question,html.Page,3_0_3_0_7_1_0,NA,NA,form submission,7525.0299999985,503883.8,503878.204,503894.87,511419.9,511420.5,2023-08-22T08:54:10Z,511428.438,NULL,Können,unaweza,s,kiongozi,bustani,mienendo,unaweza,NA,NA,3,NA,NA,NA,NA,NA,NA,NA,NA,NA,NA,NA,NA,NA,NA,NA,NA,NA,NA,NA
ef940,"""Richtig""-Screen",canvas.Screen,3_0_3_0_7_1_1,NA,NA,timeout,5000.142,511423.3,511411.772,511428.438,516411.914,516417,2023-08-22T08:54:15Z,516428.58,NULL,Können,unaweza,s,kiongozi,bustani,mienendo,NA,qt,1,3,NA,NA,NA,NA,NA,NA,NA,NA,NA,NA,NA,NA,NA,NA,NA,NA,NA,NA,NA
ef940,"""Falsch""-Screen",canvas.Screen,3_0_3_0_7_1_2,NA,NA,skipped,NA,516419.3,NA,NA,516411.914,516419.4,2023-08-22T08:54:15Z,516428.58,NULL,Können,unaweza,s,kiongozi,bustani,mienendo,NA,qt,NA,3,NA,NA,NA,NA,NA,NA,NA,NA,NA,NA,NA,NA,NA,NA,NA,NA,NA,NA,NA
ef940,shallow,flow.Sequence,3_0_3_0_7_1,NA,NA,completion,12517.044,503883.8,503878.204,503894.87,516411.914,516419.6,2023-08-22T08:54:15Z,516428.58,NULL,Können,unaweza,s,kiongozi,bustani,mienendo,NA,qt,NA,3,NA,NA,NA,NA,NA,NA,NA,NA,NA,NA,NA,NA,NA,NA,NA,NA,NA,NA,NA
ef940,task,flow.Sequence,3_0_3_0_7,NA,NA,completion,12517.044,503883.6,503878.204,503894.87,516411.914,516419.6,2023-08-22T08:54:15Z,516428.58,NULL,Können,unaweza,s,kiongozi,bustani,mienendo,NA,qt,NA,3,NA,NA,NA,NA,NA,NA,NA,NA,NA,NA,NA,NA,NA,NA,NA,NA,NA,NA,NA
ef940,block,flow.Loop,3_0_3_0,NA,NA,completion,92767.394,423653.9,423611.188,423644.52,516411.914,516419.7,2023-08-22T08:54:15Z,516428.58,NULL,NA,NA,NA,NA,NA,NA,NA,qt,NA,3,NA,NA,NA,NA,NA,NA,NA,NA,NA,NA,NA,NA,NA,NA,NA,NA,NA,NA,NA
ef940,weiter,canvas.Screen,3_0_3_1,sdf,keypress(Space),response,1290.0199999977,516419.8,516411.914,516428.58,517718.6,517722,2023-08-22T08:54:16Z,517745.194,NULL,NA,NA,NA,NA,NA,NA,NA,qt,NA,3,NA,NA,NA,NA,NA,NA,NA,NA,NA,NA,NA,NA,NA,NA,NA,NA,NA,NA,NA
ef940,check continue,flow.Sequence,3_0_3,NA,NA,completion,94074.079999998,423653.8,423611.188,423644.52,517718.6,517722.3,2023-08-22T08:54:16Z,517745.194,NULL,NA,NA,NA,NA,NA,NA,NA,qt,NA,3,NA,NA,NA,NA,NA,NA,NA,NA,NA,NA,NA,NA,NA,NA,NA,NA,NA,NA,NA
ef940,deep,flow.Sequence,3_0_4_0_0_0,NA,NA,skipped,NA,517747.9,NA,NA,517718.6,517748.1,2023-08-22T08:54:17Z,517745.194,NULL,Ausschluss,kutengwa,s,ununuzi,taratibu,madeni,NA,sd,NA,4,NA,NA,NA,NA,NA,NA,NA,NA,NA,NA,NA,NA,NA,NA,NA,NA,NA,NA,NA
ef940,Shallow Question,html.Page,3_0_4_0_0_1_0,NA,NA,form submission,7457.605999997,517748.2,517711.862,517745.194,525202.8,525203.3,2023-08-22T08:54:24Z,525211.562,NULL,Ausschluss,kutengwa,s,ununuzi,taratibu,madeni,kutengwa,NA,NA,4,NA,NA,NA,NA,NA,NA,NA,NA,NA,NA,NA,NA,NA,NA,NA,NA,NA,NA,NA
ef940,"""Richtig""-Screen",canvas.Screen,3_0_4_0_0_1_1,NA,NA,timeout,5000.4269999999,525206.1,525194.896,525211.562,530195.323,530200.9,2023-08-22T08:54:29Z,530211.989,NULL,Ausschluss,kutengwa,s,ununuzi,taratibu,madeni,NA,sd,1,4,NA,NA,NA,NA,NA,NA,NA,NA,NA,NA,NA,NA,NA,NA,NA,NA,NA,NA,NA
ef940,"""Falsch""-Screen",canvas.Screen,3_0_4_0_0_1_2,NA,NA,skipped,NA,530202.8,NA,NA,530195.323,530202.9,2023-08-22T08:54:29Z,530211.989,NULL,Ausschluss,kutengwa,s,ununuzi,taratibu,madeni,NA,sd,NA,4,NA,NA,NA,NA,NA,NA,NA,NA,NA,NA,NA,NA,NA,NA,NA,NA,NA,NA,NA
ef940,shallow,flow.Sequence,3_0_4_0_0_1,NA,NA,completion,12450.129,517748.1,517711.862,517745.194,530195.323,530203,2023-08-22T08:54:29Z,530211.989,NULL,Ausschluss,kutengwa,s,ununuzi,taratibu,madeni,NA,sd,NA,4,NA,NA,NA,NA,NA,NA,NA,NA,NA,NA,NA,NA,NA,NA,NA,NA,NA,NA,NA
ef940,task,flow.Sequence,3_0_4_0_0,NA,NA,completion,12450.129,517747.9,517711.862,517745.194,530195.323,530203.1,2023-08-22T08:54:29Z,530211.989,NULL,Ausschluss,kutengwa,s,ununuzi,taratibu,madeni,NA,sd,NA,4,NA,NA,NA,NA,NA,NA,NA,NA,NA,NA,NA,NA,NA,NA,NA,NA,NA,NA,NA
ef940,Deep Question,html.Page,3_0_4_0_1_0_0,NA,NA,form submission,19224.511,530203.3,530195.323,530211.989,549436.5,549436.8,2023-08-22T08:54:48Z,549445.245,NULL,Widerstand,usulubu,d,NA,NA,NA,usulubu,NA,NA,4,NA,NA,NA,NA,NA,NA,NA,NA,NA,NA,NA,NA,NA,NA,NA,NA,NA,NA,NA
ef940,"""Richtig""-Screen",canvas.Screen,3_0_4_0_1_0_1,NA,NA,timeout,5000.431,549439.8,549428.579,549445.245,554429.01,554433.6,2023-08-22T08:54:53Z,554445.676,NULL,Widerstand,usulubu,d,NA,NA,NA,NA,sd,1,4,NA,NA,NA,NA,NA,NA,NA,NA,NA,NA,NA,NA,NA,NA,NA,NA,NA,NA,NA
ef940,"""Falsch""-Screen",canvas.Screen,3_0_4_0_1_0_2,NA,NA,skipped,NA,554435.1,NA,NA,554429.01,554435.3,2023-08-22T08:54:53Z,554445.676,NULL,Widerstand,usulubu,d,NA,NA,NA,NA,sd,NA,4,NA,NA,NA,NA,NA,NA,NA,NA,NA,NA,NA,NA,NA,NA,NA,NA,NA,NA,NA
ef940,deep,flow.Sequence,3_0_4_0_1_0,NA,NA,completion,24217.021,530203.2,530195.323,530211.989,554429.01,554435.5,2023-08-22T08:54:53Z,554445.676,NULL,Widerstand,usulubu,d,NA,NA,NA,NA,sd,NA,4,NA,NA,NA,NA,NA,NA,NA,NA,NA,NA,NA,NA,NA,NA,NA,NA,NA,NA,NA
ef940,shallow,flow.Sequence,3_0_4_0_1_1,NA,NA,skipped,NA,554435.6,NA,NA,554429.01,554435.7,2023-08-22T08:54:53Z,554445.676,NULL,Widerstand,usulubu,d,NA,NA,NA,NA,sd,NA,4,NA,NA,NA,NA,NA,NA,NA,NA,NA,NA,NA,NA,NA,NA,NA,NA,NA,NA,NA
ef940,task,flow.Sequence,3_0_4_0_1,NA,NA,completion,24217.021,530203.2,530195.323,530211.989,554429.01,554435.9,2023-08-22T08:54:53Z,554445.676,NULL,Widerstand,usulubu,d,NA,NA,NA,NA,sd,NA,4,NA,NA,NA,NA,NA,NA,NA,NA,NA,NA,NA,NA,NA,NA,NA,NA,NA,NA,NA
ef940,deep,flow.Sequence,3_0_4_0_2_0,NA,NA,skipped,NA,554436.1,NA,NA,554429.01,554436.1,2023-08-22T08:54:53Z,554445.676,NULL,Können,unaweza,s,kiongozi,bustani,mienendo,NA,sd,NA,4,NA,NA,NA,NA,NA,NA,NA,NA,NA,NA,NA,NA,NA,NA,NA,NA,NA,NA,NA
ef940,Shallow Question,html.Page,3_0_4_0_2_1_0,NA,NA,form submission,5124.824,554436.3,554429.01,554445.676,559570.5,559571,2023-08-22T08:54:58Z,559578.804,NULL,Können,unaweza,s,kiongozi,bustani,mienendo,unaweza,NA,NA,4,NA,NA,NA,NA,NA,NA,NA,NA,NA,NA,NA,NA,NA,NA,NA,NA,NA,NA,NA
ef940,"""Richtig""-Screen",canvas.Screen,3_0_4_0_2_1_1,NA,NA,timeout,5000.094,559573.8,559562.138,559578.804,564562.232,564566.5,2023-08-22T08:55:03Z,564578.898,NULL,Können,unaweza,s,kiongozi,bustani,mienendo,NA,sd,1,4,NA,NA,NA,NA,NA,NA,NA,NA,NA,NA,NA,NA,NA,NA,NA,NA,NA,NA,NA
ef940,"""Falsch""-Screen",canvas.Screen,3_0_4_0_2_1_2,NA,NA,skipped,NA,564568.3,NA,NA,564562.232,564568.4,2023-08-22T08:55:03Z,564578.898,NULL,Können,unaweza,s,kiongozi,bustani,mienendo,NA,sd,NA,4,NA,NA,NA,NA,NA,NA,NA,NA,NA,NA,NA,NA,NA,NA,NA,NA,NA,NA,NA
ef940,shallow,flow.Sequence,3_0_4_0_2_1,NA,NA,completion,10116.556,554436.2,554429.01,554445.676,564562.232,564568.6,2023-08-22T08:55:03Z,564578.898,NULL,Können,unaweza,s,kiongozi,bustani,mienendo,NA,sd,NA,4,NA,NA,NA,NA,NA,NA,NA,NA,NA,NA,NA,NA,NA,NA,NA,NA,NA,NA,NA
ef940,task,flow.Sequence,3_0_4_0_2,NA,NA,completion,10116.556,554436,554429.01,554445.676,564562.232,564568.8,2023-08-22T08:55:03Z,564578.898,NULL,Können,unaweza,s,kiongozi,bustani,mienendo,NA,sd,NA,4,NA,NA,NA,NA,NA,NA,NA,NA,NA,NA,NA,NA,NA,NA,NA,NA,NA,NA,NA
ef940,Deep Question,html.Page,3_0_4_0_3_0_0,NA,NA,form submission,10908.001999998,564568.9,564562.232,564578.898,575486.9,575487.4,2023-08-22T08:55:14Z,575495.752,NULL,Kontrolle,kudhibiti,d,NA,NA,NA,kuhathari,NA,NA,4,NA,NA,NA,NA,NA,NA,NA,NA,NA,NA,NA,NA,NA,NA,NA,NA,NA,NA,NA
ef940,"""Richtig""-Screen",canvas.Screen,3_0_4_0_3_0_1,NA,NA,skipped,NA,575490.3,NA,NA,575486.9,575490.4,2023-08-22T08:55:14Z,575495.752,NULL,Kontrolle,kudhibiti,d,NA,NA,NA,NA,sd,NA,4,NA,NA,NA,NA,NA,NA,NA,NA,NA,NA,NA,NA,NA,NA,NA,NA,NA,NA,NA
ef940,"""Falsch""-Screen",canvas.Screen,3_0_4_0_3_0_2,NA,NA,timeout,4999.8,575491,575479.086,575495.752,580478.886,580484.3,2023-08-22T08:55:19Z,580495.552,NULL,Kontrolle,kudhibiti,d,NA,NA,NA,NA,sd,0,4,NA,NA,NA,NA,NA,NA,NA,NA,NA,NA,NA,NA,NA,NA,NA,NA,NA,NA,NA
ef940,deep,flow.Sequence,3_0_4_0_3_0,NA,NA,completion,15899.988,564568.9,564562.232,564578.898,580478.886,580484.7,2023-08-22T08:55:19Z,580495.552,NULL,Kontrolle,kudhibiti,d,NA,NA,NA,NA,sd,NA,4,NA,NA,NA,NA,NA,NA,NA,NA,NA,NA,NA,NA,NA,NA,NA,NA,NA,NA,NA
ef940,shallow,flow.Sequence,3_0_4_0_3_1,NA,NA,skipped,NA,580484.9,NA,NA,580478.886,580485.1,2023-08-22T08:55:19Z,580495.552,NULL,Kontrolle,kudhibiti,d,NA,NA,NA,NA,sd,NA,4,NA,NA,NA,NA,NA,NA,NA,NA,NA,NA,NA,NA,NA,NA,NA,NA,NA,NA,NA
ef940,task,flow.Sequence,3_0_4_0_3,NA,NA,completion,15899.988,564568.8,564562.232,564578.898,580478.886,580485.2,2023-08-22T08:55:19Z,580495.552,NULL,Kontrolle,kudhibiti,d,NA,NA,NA,NA,sd,NA,4,NA,NA,NA,NA,NA,NA,NA,NA,NA,NA,NA,NA,NA,NA,NA,NA,NA,NA,NA
ef940,deep,flow.Sequence,3_0_4_0_4_0,NA,NA,skipped,NA,580485.4,NA,NA,580478.886,580485.5,2023-08-22T08:55:19Z,580495.552,NULL,Kreativität,ubunifu,s,mratibu,mwendelezo,makubaliano,NA,sd,NA,4,NA,NA,NA,NA,NA,NA,NA,NA,NA,NA,NA,NA,NA,NA,NA,NA,NA,NA,NA
ef940,Shallow Question,html.Page,3_0_4_0_4_1_0,NA,NA,form submission,6407.948,580485.6,580478.886,580495.552,586903.5,586904,2023-08-22T08:55:26Z,586912.352,NULL,Kreativität,ubunifu,s,mratibu,mwendelezo,makubaliano,ubunifu,NA,NA,4,NA,NA,NA,NA,NA,NA,NA,NA,NA,NA,NA,NA,NA,NA,NA,NA,NA,NA,NA
ef940,"""Richtig""-Screen",canvas.Screen,3_0_4_0_4_1_1,NA,NA,timeout,4999.8,586906.5,586895.686,586912.352,591895.486,591898.1,2023-08-22T08:55:31Z,591912.152,NULL,Kreativität,ubunifu,s,mratibu,mwendelezo,makubaliano,NA,sd,1,4,NA,NA,NA,NA,NA,NA,NA,NA,NA,NA,NA,NA,NA,NA,NA,NA,NA,NA,NA
ef940,"""Falsch""-Screen",canvas.Screen,3_0_4_0_4_1_2,NA,NA,skipped,NA,591899.2,NA,NA,591895.486,591899.3,2023-08-22T08:55:31Z,591912.152,NULL,Kreativität,ubunifu,s,mratibu,mwendelezo,makubaliano,NA,sd,NA,4,NA,NA,NA,NA,NA,NA,NA,NA,NA,NA,NA,NA,NA,NA,NA,NA,NA,NA,NA
ef940,shallow,flow.Sequence,3_0_4_0_4_1,NA,NA,completion,11399.934,580485.6,580478.886,580495.552,591895.486,591899.4,2023-08-22T08:55:31Z,591912.152,NULL,Kreativität,ubunifu,s,mratibu,mwendelezo,makubaliano,NA,sd,NA,4,NA,NA,NA,NA,NA,NA,NA,NA,NA,NA,NA,NA,NA,NA,NA,NA,NA,NA,NA
ef940,task,flow.Sequence,3_0_4_0_4,NA,NA,completion,11399.934,580485.3,580478.886,580495.552,591895.486,591899.4,2023-08-22T08:55:31Z,591912.152,NULL,Kreativität,ubunifu,s,mratibu,mwendelezo,makubaliano,NA,sd,NA,4,NA,NA,NA,NA,NA,NA,NA,NA,NA,NA,NA,NA,NA,NA,NA,NA,NA,NA,NA
ef940,deep,flow.Sequence,3_0_4_0_5_0,NA,NA,skipped,NA,591899.5,NA,NA,591895.486,591899.6,2023-08-22T08:55:31Z,591912.152,NULL,Gelegenheit,wakati,s,mchanganyiko,kipaumbele,kushuku,NA,sd,NA,4,NA,NA,NA,NA,NA,NA,NA,NA,NA,NA,NA,NA,NA,NA,NA,NA,NA,NA,NA
ef940,Shallow Question,html.Page,3_0_4_0_5_1_0,NA,NA,form submission,6075.147999997,591899.7,591895.486,591912.152,597987.3,597987.8,2023-08-22T08:55:37Z,597995.778,NULL,Gelegenheit,wakati,s,mchanganyiko,kipaumbele,kushuku,wakati,NA,NA,4,NA,NA,NA,NA,NA,NA,NA,NA,NA,NA,NA,NA,NA,NA,NA,NA,NA,NA,NA
ef940,"""Richtig""-Screen",canvas.Screen,3_0_4_0_5_1_1,NA,NA,timeout,4999.7999999999,597990.5,597979.112,597995.778,602978.912,602980.2,2023-08-22T08:55:42Z,602995.578,NULL,Gelegenheit,wakati,s,mchanganyiko,kipaumbele,kushuku,NA,sd,1,4,NA,NA,NA,NA,NA,NA,NA,NA,NA,NA,NA,NA,NA,NA,NA,NA,NA,NA,NA
ef940,"""Falsch""-Screen",canvas.Screen,3_0_4_0_5_1_2,NA,NA,skipped,NA,602982.1,NA,NA,602978.912,602982.4,2023-08-22T08:55:42Z,602995.578,NULL,Gelegenheit,wakati,s,mchanganyiko,kipaumbele,kushuku,NA,sd,NA,4,NA,NA,NA,NA,NA,NA,NA,NA,NA,NA,NA,NA,NA,NA,NA,NA,NA,NA,NA
ef940,shallow,flow.Sequence,3_0_4_0_5_1,NA,NA,completion,11066.76,591899.7,591895.486,591912.152,602978.912,602982.6,2023-08-22T08:55:42Z,602995.578,NULL,Gelegenheit,wakati,s,mchanganyiko,kipaumbele,kushuku,NA,sd,NA,4,NA,NA,NA,NA,NA,NA,NA,NA,NA,NA,NA,NA,NA,NA,NA,NA,NA,NA,NA
ef940,task,flow.Sequence,3_0_4_0_5,NA,NA,completion,11066.76,591899.5,591895.486,591912.152,602978.912,602982.8,2023-08-22T08:55:42Z,602995.578,NULL,Gelegenheit,wakati,s,mchanganyiko,kipaumbele,kushuku,NA,sd,NA,4,NA,NA,NA,NA,NA,NA,NA,NA,NA,NA,NA,NA,NA,NA,NA,NA,NA,NA,NA
ef940,Deep Question,html.Page,3_0_4_0_6_0_0,NA,NA,form submission,15641.922,602983,602978.912,602995.578,618637.5,618637.9,2023-08-22T08:55:57Z,618645.901,NULL,Verstand,ufahamivu,d,NA,NA,NA,husubu,NA,NA,4,NA,NA,NA,NA,NA,NA,NA,NA,NA,NA,NA,NA,NA,NA,NA,NA,NA,NA,NA
ef940,"""Richtig""-Screen",canvas.Screen,3_0_4_0_6_0_1,NA,NA,skipped,NA,618640.4,NA,NA,618637.5,618640.4,2023-08-22T08:55:57Z,618645.901,NULL,Verstand,ufahamivu,d,NA,NA,NA,NA,sd,NA,4,NA,NA,NA,NA,NA,NA,NA,NA,NA,NA,NA,NA,NA,NA,NA,NA,NA,NA,NA
ef940,"""Falsch""-Screen",canvas.Screen,3_0_4_0_6_0_2,NA,NA,timeout,4999.8,618641,618629.235,618645.901,623629.035,623633.5,2023-08-22T08:56:02Z,623645.701,NULL,Verstand,ufahamivu,d,NA,NA,NA,NA,sd,0,4,NA,NA,NA,NA,NA,NA,NA,NA,NA,NA,NA,NA,NA,NA,NA,NA,NA,NA,NA
ef940,deep,flow.Sequence,3_0_4_0_6_0,NA,NA,completion,20633.457,602983,602978.912,602995.578,623629.035,623633.9,2023-08-22T08:56:02Z,623645.701,NULL,Verstand,ufahamivu,d,NA,NA,NA,NA,sd,NA,4,NA,NA,NA,NA,NA,NA,NA,NA,NA,NA,NA,NA,NA,NA,NA,NA,NA,NA,NA
ef940,shallow,flow.Sequence,3_0_4_0_6_1,NA,NA,skipped,NA,623634.1,NA,NA,623629.035,623634.3,2023-08-22T08:56:02Z,623645.701,NULL,Verstand,ufahamivu,d,NA,NA,NA,NA,sd,NA,4,NA,NA,NA,NA,NA,NA,NA,NA,NA,NA,NA,NA,NA,NA,NA,NA,NA,NA,NA
ef940,task,flow.Sequence,3_0_4_0_6,NA,NA,completion,20633.457,602983,602978.912,602995.578,623629.035,623634.5,2023-08-22T08:56:02Z,623645.701,NULL,Verstand,ufahamivu,d,NA,NA,NA,NA,sd,NA,4,NA,NA,NA,NA,NA,NA,NA,NA,NA,NA,NA,NA,NA,NA,NA,NA,NA,NA,NA
ef940,Deep Question,html.Page,3_0_4_0_7_0_0,NA,NA,form submission,10141.498999999,623634.7,623629.035,623645.701,633787.2,633787.6,2023-08-22T08:56:13Z,633795.766,NULL,Gefährdung,kuhatarisha,d,NA,NA,NA,husubu,NA,NA,4,NA,NA,NA,NA,NA,NA,NA,NA,NA,NA,NA,NA,NA,NA,NA,NA,NA,NA,NA
ef940,"""Richtig""-Screen",canvas.Screen,3_0_4_0_7_0_1,NA,NA,skipped,NA,633790.1,NA,NA,633787.2,633790.2,2023-08-22T08:56:13Z,633795.766,NULL,Gefährdung,kuhatarisha,d,NA,NA,NA,NA,sd,NA,4,NA,NA,NA,NA,NA,NA,NA,NA,NA,NA,NA,NA,NA,NA,NA,NA,NA,NA,NA
ef940,"""Falsch""-Screen",canvas.Screen,3_0_4_0_7_0_2,NA,NA,timeout,5000.376,633790.8,633779.1,633795.766,638779.476,638784.3,2023-08-22T08:56:18Z,638796.142,NULL,Gefährdung,kuhatarisha,d,NA,NA,NA,NA,sd,0,4,NA,NA,NA,NA,NA,NA,NA,NA,NA,NA,NA,NA,NA,NA,NA,NA,NA,NA,NA
ef940,deep,flow.Sequence,3_0_4_0_7_0,NA,NA,completion,15133.775,623634.7,623629.035,623645.701,638779.476,638784.7,2023-08-22T08:56:18Z,638796.142,NULL,Gefährdung,kuhatarisha,d,NA,NA,NA,NA,sd,NA,4,NA,NA,NA,NA,NA,NA,NA,NA,NA,NA,NA,NA,NA,NA,NA,NA,NA,NA,NA
ef940,shallow,flow.Sequence,3_0_4_0_7_1,NA,NA,skipped,NA,638784.8,NA,NA,638779.476,638785,2023-08-22T08:56:18Z,638796.142,NULL,Gefährdung,kuhatarisha,d,NA,NA,NA,NA,sd,NA,4,NA,NA,NA,NA,NA,NA,NA,NA,NA,NA,NA,NA,NA,NA,NA,NA,NA,NA,NA
ef940,task,flow.Sequence,3_0_4_0_7,NA,NA,completion,15133.775,623634.6,623629.035,623645.701,638779.476,638785.1,2023-08-22T08:56:18Z,638796.142,NULL,Gefährdung,kuhatarisha,d,NA,NA,NA,NA,sd,NA,4,NA,NA,NA,NA,NA,NA,NA,NA,NA,NA,NA,NA,NA,NA,NA,NA,NA,NA,NA
ef940,block,flow.Loop,3_0_4_0,NA,NA,completion,121034.282,517747.9,517711.862,517745.194,638779.476,638785.3,2023-08-22T08:56:18Z,638796.142,NULL,NA,NA,NA,NA,NA,NA,NA,sd,NA,4,NA,NA,NA,NA,NA,NA,NA,NA,NA,NA,NA,NA,NA,NA,NA,NA,NA,NA,NA
ef940,weiter,canvas.Screen,3_0_4_1,sdf,keypress(Space),response,1195.0579999993,638785.4,638779.476,638796.142,639991.2,639994.7,2023-08-22T08:56:19Z,640012.76,NULL,NA,NA,NA,NA,NA,NA,NA,sd,NA,4,NA,NA,NA,NA,NA,NA,NA,NA,NA,NA,NA,NA,NA,NA,NA,NA,NA,NA,NA
ef940,check continue,flow.Sequence,3_0_4,NA,NA,completion,122246.006,517747.9,517711.862,517745.194,639991.2,639995,2023-08-22T08:56:19Z,640012.76,NULL,NA,NA,NA,NA,NA,NA,NA,sd,NA,4,NA,NA,NA,NA,NA,NA,NA,NA,NA,NA,NA,NA,NA,NA,NA,NA,NA,NA,NA
ef940,deep,flow.Sequence,3_0_5_0_0_0,NA,NA,skipped,NA,640021.3,NA,NA,639991.2,640021.4,2023-08-22T08:56:19Z,640012.76,NULL,Können,unaweza,s,kiongozi,bustani,mienendo,NA,sdf,NA,5,NA,NA,NA,NA,NA,NA,NA,NA,NA,NA,NA,NA,NA,NA,NA,NA,NA,NA,NA
ef940,Shallow Question,html.Page,3_0_5_0_0_1_0,NA,NA,form submission,4057.9399999992,640021.5,639979.428,640012.76,644070.7,644071.3,2023-08-22T08:56:23Z,644079.264,NULL,Können,unaweza,s,kiongozi,bustani,mienendo,unaweza,NA,NA,5,NA,NA,NA,NA,NA,NA,NA,NA,NA,NA,NA,NA,NA,NA,NA,NA,NA,NA,NA
ef940,"""Richtig""-Screen",canvas.Screen,3_0_5_0_0_1_1,NA,NA,timeout,5000.0480000001,644072.9,644062.598,644079.264,649062.646,649067.9,2023-08-22T08:56:28Z,649079.312,NULL,Können,unaweza,s,kiongozi,bustani,mienendo,NA,sdf,1,5,NA,NA,NA,NA,NA,NA,NA,NA,NA,NA,NA,NA,NA,NA,NA,NA,NA,NA,NA
ef940,"""Falsch""-Screen",canvas.Screen,3_0_5_0_0_1_2,NA,NA,skipped,NA,649070.1,NA,NA,649062.646,649070.2,2023-08-22T08:56:28Z,649079.312,NULL,Können,unaweza,s,kiongozi,bustani,mienendo,NA,sdf,NA,5,NA,NA,NA,NA,NA,NA,NA,NA,NA,NA,NA,NA,NA,NA,NA,NA,NA,NA,NA
ef940,shallow,flow.Sequence,3_0_5_0_0_1,NA,NA,completion,9049.8859999999,640021.5,639979.428,640012.76,649062.646,649070.3,2023-08-22T08:56:28Z,649079.312,NULL,Können,unaweza,s,kiongozi,bustani,mienendo,NA,sdf,NA,5,NA,NA,NA,NA,NA,NA,NA,NA,NA,NA,NA,NA,NA,NA,NA,NA,NA,NA,NA
ef940,task,flow.Sequence,3_0_5_0_0,NA,NA,completion,9049.8859999999,640021.3,639979.428,640012.76,649062.646,649070.4,2023-08-22T08:56:28Z,649079.312,NULL,Können,unaweza,s,kiongozi,bustani,mienendo,NA,sdf,NA,5,NA,NA,NA,NA,NA,NA,NA,NA,NA,NA,NA,NA,NA,NA,NA,NA,NA,NA,NA
ef940,deep,flow.Sequence,3_0_5_0_1_0,NA,NA,skipped,NA,649070.5,NA,NA,649062.646,649070.5,2023-08-22T08:56:28Z,649079.312,NULL,Kreativität,ubunifu,s,mratibu,mwendelezo,makubaliano,NA,sdf,NA,5,NA,NA,NA,NA,NA,NA,NA,NA,NA,NA,NA,NA,NA,NA,NA,NA,NA,NA,NA
ef940,Shallow Question,html.Page,3_0_5_0_1_1_0,NA,NA,form submission,4558.487999997,649070.6,649062.646,649079.312,653637.8,653638.2,2023-08-22T08:56:32Z,653645.796,NULL,Kreativität,ubunifu,s,mratibu,mwendelezo,makubaliano,ubunifu,NA,NA,5,NA,NA,NA,NA,NA,NA,NA,NA,NA,NA,NA,NA,NA,NA,NA,NA,NA,NA,NA
ef940,"""Richtig""-Screen",canvas.Screen,3_0_5_0_1_1_1,NA,NA,timeout,4999.8,653639.6,653629.13,653645.796,658628.93,658634,2023-08-22T08:56:37Z,658645.596,NULL,Kreativität,ubunifu,s,mratibu,mwendelezo,makubaliano,NA,sdf,1,5,NA,NA,NA,NA,NA,NA,NA,NA,NA,NA,NA,NA,NA,NA,NA,NA,NA,NA,NA
ef940,"""Falsch""-Screen",canvas.Screen,3_0_5_0_1_1_2,NA,NA,skipped,NA,658636.1,NA,NA,658628.93,658636.1,2023-08-22T08:56:37Z,658645.596,NULL,Kreativität,ubunifu,s,mratibu,mwendelezo,makubaliano,NA,sdf,NA,5,NA,NA,NA,NA,NA,NA,NA,NA,NA,NA,NA,NA,NA,NA,NA,NA,NA,NA,NA
ef940,shallow,flow.Sequence,3_0_5_0_1_1,NA,NA,completion,9549.618,649070.6,649062.646,649079.312,658628.93,658636.3,2023-08-22T08:56:37Z,658645.596,NULL,Kreativität,ubunifu,s,mratibu,mwendelezo,makubaliano,NA,sdf,NA,5,NA,NA,NA,NA,NA,NA,NA,NA,NA,NA,NA,NA,NA,NA,NA,NA,NA,NA,NA
ef940,task,flow.Sequence,3_0_5_0_1,NA,NA,completion,9549.618,649070.4,649062.646,649079.312,658628.93,658636.4,2023-08-22T08:56:37Z,658645.596,NULL,Kreativität,ubunifu,s,mratibu,mwendelezo,makubaliano,NA,sdf,NA,5,NA,NA,NA,NA,NA,NA,NA,NA,NA,NA,NA,NA,NA,NA,NA,NA,NA,NA,NA
ef940,Deep Question,html.Page,3_0_5_0_2_0_0,NA,NA,form submission,7358.703999997,658636.5,658628.93,658645.596,666004.3,666004.8,2023-08-22T08:56:45Z,666012.628,NULL,Verstand,ufahamivu,d,NA,NA,NA,husubu,NA,NA,5,NA,NA,NA,NA,NA,NA,NA,NA,NA,NA,NA,NA,NA,NA,NA,NA,NA,NA,NA
ef940,"""Richtig""-Screen",canvas.Screen,3_0_5_0_2_0_1,NA,NA,skipped,NA,666008,NA,NA,666004.3,666008.2,2023-08-22T08:56:45Z,666012.628,NULL,Verstand,ufahamivu,d,NA,NA,NA,NA,sdf,NA,5,NA,NA,NA,NA,NA,NA,NA,NA,NA,NA,NA,NA,NA,NA,NA,NA,NA,NA,NA
ef940,"""Falsch""-Screen",canvas.Screen,3_0_5_0_2_0_2,NA,NA,timeout,5000.3589999999,666009,665995.962,666012.628,670996.321,671001.3,2023-08-22T08:56:50Z,671012.987,NULL,Verstand,ufahamivu,d,NA,NA,NA,NA,sdf,0,5,NA,NA,NA,NA,NA,NA,NA,NA,NA,NA,NA,NA,NA,NA,NA,NA,NA,NA,NA
ef940,deep,flow.Sequence,3_0_5_0_2_0,NA,NA,completion,12350.725,658636.5,658628.93,658645.596,670996.321,671001.7,2023-08-22T08:56:50Z,671012.987,NULL,Verstand,ufahamivu,d,NA,NA,NA,NA,sdf,NA,5,NA,NA,NA,NA,NA,NA,NA,NA,NA,NA,NA,NA,NA,NA,NA,NA,NA,NA,NA
ef940,shallow,flow.Sequence,3_0_5_0_2_1,NA,NA,skipped,NA,671001.7,NA,NA,670996.321,671001.9,2023-08-22T08:56:50Z,671012.987,NULL,Verstand,ufahamivu,d,NA,NA,NA,NA,sdf,NA,5,NA,NA,NA,NA,NA,NA,NA,NA,NA,NA,NA,NA,NA,NA,NA,NA,NA,NA,NA
ef940,task,flow.Sequence,3_0_5_0_2,NA,NA,completion,12350.725,658636.5,658628.93,658645.596,670996.321,671002.1,2023-08-22T08:56:50Z,671012.987,NULL,Verstand,ufahamivu,d,NA,NA,NA,NA,sdf,NA,5,NA,NA,NA,NA,NA,NA,NA,NA,NA,NA,NA,NA,NA,NA,NA,NA,NA,NA,NA
ef940,Deep Question,html.Page,3_0_5_0_3_0_0,NA,NA,form submission,7224.7129999993,671002.3,670996.321,671012.987,678237.7,678238.3,2023-08-22T08:56:57Z,678246.031,NULL,Widerstand,usulubu,d,NA,NA,NA,husubu,NA,NA,5,NA,NA,NA,NA,NA,NA,NA,NA,NA,NA,NA,NA,NA,NA,NA,NA,NA,NA,NA
ef940,"""Richtig""-Screen",canvas.Screen,3_0_5_0_3_0_1,NA,NA,skipped,NA,678240.9,NA,NA,678237.7,678241,2023-08-22T08:56:57Z,678246.031,NULL,Widerstand,usulubu,d,NA,NA,NA,NA,sdf,NA,5,NA,NA,NA,NA,NA,NA,NA,NA,NA,NA,NA,NA,NA,NA,NA,NA,NA,NA,NA
ef940,"""Falsch""-Screen",canvas.Screen,3_0_5_0_3_0_2,NA,NA,timeout,5000.25,678241.6,678229.365,678246.031,683229.615,683233.3,2023-08-22T08:57:02Z,683246.281,NULL,Widerstand,usulubu,d,NA,NA,NA,NA,sdf,0,5,NA,NA,NA,NA,NA,NA,NA,NA,NA,NA,NA,NA,NA,NA,NA,NA,NA,NA,NA
ef940,deep,flow.Sequence,3_0_5_0_3_0,NA,NA,completion,12216.628,671002.2,670996.321,671012.987,683229.615,683233.8,2023-08-22T08:57:02Z,683246.281,NULL,Widerstand,usulubu,d,NA,NA,NA,NA,sdf,NA,5,NA,NA,NA,NA,NA,NA,NA,NA,NA,NA,NA,NA,NA,NA,NA,NA,NA,NA,NA
ef940,shallow,flow.Sequence,3_0_5_0_3_1,NA,NA,skipped,NA,683233.8,NA,NA,683229.615,683234,2023-08-22T08:57:02Z,683246.281,NULL,Widerstand,usulubu,d,NA,NA,NA,NA,sdf,NA,5,NA,NA,NA,NA,NA,NA,NA,NA,NA,NA,NA,NA,NA,NA,NA,NA,NA,NA,NA
ef940,task,flow.Sequence,3_0_5_0_3,NA,NA,completion,12216.628,671002.2,670996.321,671012.987,683229.615,683234.2,2023-08-22T08:57:02Z,683246.281,NULL,Widerstand,usulubu,d,NA,NA,NA,NA,sdf,NA,5,NA,NA,NA,NA,NA,NA,NA,NA,NA,NA,NA,NA,NA,NA,NA,NA,NA,NA,NA
ef940,deep,flow.Sequence,3_0_5_0_4_0,NA,NA,skipped,NA,683234.4,NA,NA,683229.615,683234.4,2023-08-22T08:57:02Z,683246.281,NULL,Ausschluss,kutengwa,s,ununuzi,taratibu,madeni,NA,sdf,NA,5,NA,NA,NA,NA,NA,NA,NA,NA,NA,NA,NA,NA,NA,NA,NA,NA,NA,NA,NA
ef940,Shallow Question,html.Page,3_0_5_0_4_1_0,NA,NA,form submission,6008.3189999978,683234.5,683229.615,683246.281,689254.6,689255.1,2023-08-22T08:57:08Z,689262.707,NULL,Ausschluss,kutengwa,s,ununuzi,taratibu,madeni,kutengwa,NA,NA,5,NA,NA,NA,NA,NA,NA,NA,NA,NA,NA,NA,NA,NA,NA,NA,NA,NA,NA,NA
ef940,"""Richtig""-Screen",canvas.Screen,3_0_5_0_4_1_1,NA,NA,timeout,5000.1899999999,689257.5,689246.041,689262.707,694246.231,694251.3,2023-08-22T08:57:13Z,694262.897,NULL,Ausschluss,kutengwa,s,ununuzi,taratibu,madeni,NA,sdf,1,5,NA,NA,NA,NA,NA,NA,NA,NA,NA,NA,NA,NA,NA,NA,NA,NA,NA,NA,NA
ef940,"""Falsch""-Screen",canvas.Screen,3_0_5_0_4_1_2,NA,NA,skipped,NA,694253.1,NA,NA,694246.231,694253.3,2023-08-22T08:57:13Z,694262.897,NULL,Ausschluss,kutengwa,s,ununuzi,taratibu,madeni,NA,sdf,NA,5,NA,NA,NA,NA,NA,NA,NA,NA,NA,NA,NA,NA,NA,NA,NA,NA,NA,NA,NA
ef940,shallow,flow.Sequence,3_0_5_0_4_1,NA,NA,completion,10999.95,683234.5,683229.615,683246.281,694246.231,694253.5,2023-08-22T08:57:13Z,694262.897,NULL,Ausschluss,kutengwa,s,ununuzi,taratibu,madeni,NA,sdf,NA,5,NA,NA,NA,NA,NA,NA,NA,NA,NA,NA,NA,NA,NA,NA,NA,NA,NA,NA,NA
ef940,task,flow.Sequence,3_0_5_0_4,NA,NA,completion,10999.95,683234.3,683229.615,683246.281,694246.231,694253.6,2023-08-22T08:57:13Z,694262.897,NULL,Ausschluss,kutengwa,s,ununuzi,taratibu,madeni,NA,sdf,NA,5,NA,NA,NA,NA,NA,NA,NA,NA,NA,NA,NA,NA,NA,NA,NA,NA,NA,NA,NA
ef940,Deep Question,html.Page,3_0_5_0_5_0_0,NA,NA,form submission,11290.603,694253.9,694246.231,694262.897,705553.5,705553.8,2023-08-22T08:57:24Z,705563.124,NULL,Gefährdung,kuhatarisha,d,NA,NA,NA,kudharashi,NA,NA,5,NA,NA,NA,NA,NA,NA,NA,NA,NA,NA,NA,NA,NA,NA,NA,NA,NA,NA,NA
ef940,"""Richtig""-Screen",canvas.Screen,3_0_5_0_5_0_1,NA,NA,skipped,NA,705557.3,NA,NA,705553.5,705557.5,2023-08-22T08:57:24Z,705563.124,NULL,Gefährdung,kuhatarisha,d,NA,NA,NA,NA,sdf,NA,5,NA,NA,NA,NA,NA,NA,NA,NA,NA,NA,NA,NA,NA,NA,NA,NA,NA,NA,NA
ef940,"""Falsch""-Screen",canvas.Screen,3_0_5_0_5_0_2,NA,NA,timeout,4999.8,705558.4,705546.458,705563.124,710546.258,710549.9,2023-08-22T08:57:29Z,710562.924,NULL,Gefährdung,kuhatarisha,d,NA,NA,NA,NA,sdf,0,5,NA,NA,NA,NA,NA,NA,NA,NA,NA,NA,NA,NA,NA,NA,NA,NA,NA,NA,NA
ef940,deep,flow.Sequence,3_0_5_0_5_0,NA,NA,completion,16283.361,694253.8,694246.231,694262.897,710546.258,710550.3,2023-08-22T08:57:29Z,710562.924,NULL,Gefährdung,kuhatarisha,d,NA,NA,NA,NA,sdf,NA,5,NA,NA,NA,NA,NA,NA,NA,NA,NA,NA,NA,NA,NA,NA,NA,NA,NA,NA,NA
ef940,shallow,flow.Sequence,3_0_5_0_5_1,NA,NA,skipped,NA,710550.4,NA,NA,710546.258,710550.5,2023-08-22T08:57:29Z,710562.924,NULL,Gefährdung,kuhatarisha,d,NA,NA,NA,NA,sdf,NA,5,NA,NA,NA,NA,NA,NA,NA,NA,NA,NA,NA,NA,NA,NA,NA,NA,NA,NA,NA
ef940,task,flow.Sequence,3_0_5_0_5,NA,NA,completion,16283.361,694253.7,694246.231,694262.897,710546.258,710550.7,2023-08-22T08:57:29Z,710562.924,NULL,Gefährdung,kuhatarisha,d,NA,NA,NA,NA,sdf,NA,5,NA,NA,NA,NA,NA,NA,NA,NA,NA,NA,NA,NA,NA,NA,NA,NA,NA,NA,NA
ef940,Deep Question,html.Page,3_0_5_0_6_0_0,NA,NA,form submission,7908.1759999978,710550.9,710546.258,710562.924,718471.1,718471.6,2023-08-22T08:57:37Z,718479.753,NULL,Kontrolle,kudhibiti,d,NA,NA,NA,husulubu,NA,NA,5,NA,NA,NA,NA,NA,NA,NA,NA,NA,NA,NA,NA,NA,NA,NA,NA,NA,NA,NA
ef940,"""Richtig""-Screen",canvas.Screen,3_0_5_0_6_0_1,NA,NA,skipped,NA,718474.4,NA,NA,718471.1,718474.6,2023-08-22T08:57:37Z,718479.753,NULL,Kontrolle,kudhibiti,d,NA,NA,NA,NA,sdf,NA,5,NA,NA,NA,NA,NA,NA,NA,NA,NA,NA,NA,NA,NA,NA,NA,NA,NA,NA,NA
ef940,"""Falsch""-Screen",canvas.Screen,3_0_5_0_6_0_2,NA,NA,timeout,4999.7999999999,718475.8,718463.087,718479.753,723462.887,723467.1,2023-08-22T08:57:42Z,723479.553,NULL,Kontrolle,kudhibiti,d,NA,NA,NA,NA,sdf,0,5,NA,NA,NA,NA,NA,NA,NA,NA,NA,NA,NA,NA,NA,NA,NA,NA,NA,NA,NA
ef940,deep,flow.Sequence,3_0_5_0_6_0,NA,NA,completion,12899.963,710550.8,710546.258,710562.924,723462.887,723467.5,2023-08-22T08:57:42Z,723479.553,NULL,Kontrolle,kudhibiti,d,NA,NA,NA,NA,sdf,NA,5,NA,NA,NA,NA,NA,NA,NA,NA,NA,NA,NA,NA,NA,NA,NA,NA,NA,NA,NA
ef940,shallow,flow.Sequence,3_0_5_0_6_1,NA,NA,skipped,NA,723467.8,NA,NA,723462.887,723467.8,2023-08-22T08:57:42Z,723479.553,NULL,Kontrolle,kudhibiti,d,NA,NA,NA,NA,sdf,NA,5,NA,NA,NA,NA,NA,NA,NA,NA,NA,NA,NA,NA,NA,NA,NA,NA,NA,NA,NA
ef940,task,flow.Sequence,3_0_5_0_6,NA,NA,completion,12899.963,710550.8,710546.258,710562.924,723462.887,723468,2023-08-22T08:57:42Z,723479.553,NULL,Kontrolle,kudhibiti,d,NA,NA,NA,NA,sdf,NA,5,NA,NA,NA,NA,NA,NA,NA,NA,NA,NA,NA,NA,NA,NA,NA,NA,NA,NA,NA
ef940,deep,flow.Sequence,3_0_5_0_7_0,NA,NA,skipped,NA,723468.2,NA,NA,723462.887,723468.3,2023-08-22T08:57:42Z,723479.553,NULL,Gelegenheit,wakati,s,mchanganyiko,kipaumbele,kushuku,NA,sdf,NA,5,NA,NA,NA,NA,NA,NA,NA,NA,NA,NA,NA,NA,NA,NA,NA,NA,NA,NA,NA
ef940,Shallow Question,html.Page,3_0_5_0_7_1_0,NA,NA,form submission,3907.947,723468.4,723462.887,723479.553,727387.5,727388.2,2023-08-22T08:57:46Z,727396.497,NULL,Gelegenheit,wakati,s,mchanganyiko,kipaumbele,kushuku,wakati,NA,NA,5,NA,NA,NA,NA,NA,NA,NA,NA,NA,NA,NA,NA,NA,NA,NA,NA,NA,NA,NA
ef940,"""Richtig""-Screen",canvas.Screen,3_0_5_0_7_1_1,NA,NA,timeout,4999.8,727389.4,727379.831,727396.497,732379.631,732384.2,2023-08-22T08:57:51Z,732396.297,NULL,Gelegenheit,wakati,s,mchanganyiko,kipaumbele,kushuku,NA,sdf,1,5,NA,NA,NA,NA,NA,NA,NA,NA,NA,NA,NA,NA,NA,NA,NA,NA,NA,NA,NA
ef940,"""Falsch""-Screen",canvas.Screen,3_0_5_0_7_1_2,NA,NA,skipped,NA,732386.2,NA,NA,732379.631,732386.4,2023-08-22T08:57:51Z,732396.297,NULL,Gelegenheit,wakati,s,mchanganyiko,kipaumbele,kushuku,NA,sdf,NA,5,NA,NA,NA,NA,NA,NA,NA,NA,NA,NA,NA,NA,NA,NA,NA,NA,NA,NA,NA
ef940,shallow,flow.Sequence,3_0_5_0_7_1,NA,NA,completion,8900.0780000001,723468.4,723462.887,723479.553,732379.631,732386.5,2023-08-22T08:57:51Z,732396.297,NULL,Gelegenheit,wakati,s,mchanganyiko,kipaumbele,kushuku,NA,sdf,NA,5,NA,NA,NA,NA,NA,NA,NA,NA,NA,NA,NA,NA,NA,NA,NA,NA,NA,NA,NA
ef940,task,flow.Sequence,3_0_5_0_7,NA,NA,completion,8900.0780000001,723468.2,723462.887,723479.553,732379.631,732386.7,2023-08-22T08:57:51Z,732396.297,NULL,Gelegenheit,wakati,s,mchanganyiko,kipaumbele,kushuku,NA,sdf,NA,5,NA,NA,NA,NA,NA,NA,NA,NA,NA,NA,NA,NA,NA,NA,NA,NA,NA,NA,NA
ef940,block,flow.Loop,3_0_5_0,NA,NA,completion,92366.871,640021.2,639979.428,640012.76,732379.631,732387,2023-08-22T08:57:51Z,732396.297,NULL,NA,NA,NA,NA,NA,NA,NA,sdf,NA,5,NA,NA,NA,NA,NA,NA,NA,NA,NA,NA,NA,NA,NA,NA,NA,NA,NA,NA,NA
ef940,weiter,canvas.Screen,3_0_5_1,sdf,keypress(Space),response,1372.9029999992,732387.1,732379.631,732396.297,733769.2,733772.7,2023-08-22T08:57:53Z,733796.241,NULL,NA,NA,NA,NA,NA,NA,NA,sdf,NA,5,NA,NA,NA,NA,NA,NA,NA,NA,NA,NA,NA,NA,NA,NA,NA,NA,NA,NA,NA
ef940,check continue,flow.Sequence,3_0_5,NA,NA,completion,93756.439999999,640021.2,639979.428,640012.76,733769.2,733773,2023-08-22T08:57:53Z,733796.241,NULL,NA,NA,NA,NA,NA,NA,NA,sdf,NA,5,NA,NA,NA,NA,NA,NA,NA,NA,NA,NA,NA,NA,NA,NA,NA,NA,NA,NA,NA
ef940,Deep Question,html.Page,3_0_6_0_0_0_0,NA,NA,form submission,8324.8589999977,733799.6,733762.909,733796.241,742121.1,742121.6,2023-08-22T08:58:01Z,742129.723,NULL,Verstand,ufahamivu,d,NA,NA,NA,husulubu,NA,NA,6,NA,NA,NA,NA,NA,NA,NA,NA,NA,NA,NA,NA,NA,NA,NA,NA,NA,NA,NA
ef940,"""Richtig""-Screen",canvas.Screen,3_0_6_0_0_0_1,NA,NA,skipped,NA,742124.2,NA,NA,742121.1,742124.4,2023-08-22T08:58:01Z,742129.723,NULL,Verstand,ufahamivu,d,NA,NA,NA,NA,dfs,NA,6,NA,NA,NA,NA,NA,NA,NA,NA,NA,NA,NA,NA,NA,NA,NA,NA,NA,NA,NA
ef940,"""Falsch""-Screen",canvas.Screen,3_0_6_0_0_0_2,NA,NA,timeout,5000.3640000001,742125.2,742113.057,742129.723,747113.421,747117.6,2023-08-22T08:58:06Z,747130.087,NULL,Verstand,ufahamivu,d,NA,NA,NA,NA,dfs,0,6,NA,NA,NA,NA,NA,NA,NA,NA,NA,NA,NA,NA,NA,NA,NA,NA,NA,NA,NA
ef940,deep,flow.Sequence,3_0_6_0_0_0,NA,NA,completion,13317.18,733799.6,733762.909,733796.241,747113.421,747118.1,2023-08-22T08:58:06Z,747130.087,NULL,Verstand,ufahamivu,d,NA,NA,NA,NA,dfs,NA,6,NA,NA,NA,NA,NA,NA,NA,NA,NA,NA,NA,NA,NA,NA,NA,NA,NA,NA,NA
ef940,shallow,flow.Sequence,3_0_6_0_0_1,NA,NA,skipped,NA,747118.2,NA,NA,747113.421,747118.3,2023-08-22T08:58:06Z,747130.087,NULL,Verstand,ufahamivu,d,NA,NA,NA,NA,dfs,NA,6,NA,NA,NA,NA,NA,NA,NA,NA,NA,NA,NA,NA,NA,NA,NA,NA,NA,NA,NA
ef940,task,flow.Sequence,3_0_6_0_0,NA,NA,completion,13317.18,733799.6,733762.909,733796.241,747113.421,747118.4,2023-08-22T08:58:06Z,747130.087,NULL,Verstand,ufahamivu,d,NA,NA,NA,NA,dfs,NA,6,NA,NA,NA,NA,NA,NA,NA,NA,NA,NA,NA,NA,NA,NA,NA,NA,NA,NA,NA
ef940,Deep Question,html.Page,3_0_6_0_1_0_0,NA,NA,form submission,5957.212999997,747118.6,747113.421,747130.087,753087.3,753087.8,2023-08-22T08:58:12Z,753096.515,NULL,Gefährdung,kuhatarisha,d,NA,NA,NA,husulubu,NA,NA,6,NA,NA,NA,NA,NA,NA,NA,NA,NA,NA,NA,NA,NA,NA,NA,NA,NA,NA,NA
ef940,"""Richtig""-Screen",canvas.Screen,3_0_6_0_1_0_1,NA,NA,skipped,NA,753090.6,NA,NA,753087.3,753090.8,2023-08-22T08:58:12Z,753096.515,NULL,Gefährdung,kuhatarisha,d,NA,NA,NA,NA,dfs,NA,6,NA,NA,NA,NA,NA,NA,NA,NA,NA,NA,NA,NA,NA,NA,NA,NA,NA,NA,NA
ef940,"""Falsch""-Screen",canvas.Screen,3_0_6_0_1_0_2,NA,NA,timeout,5000.303,753091.5,753079.849,753096.515,758080.152,758085.3,2023-08-22T08:58:17Z,758096.818,NULL,Gefährdung,kuhatarisha,d,NA,NA,NA,NA,dfs,0,6,NA,NA,NA,NA,NA,NA,NA,NA,NA,NA,NA,NA,NA,NA,NA,NA,NA,NA,NA
ef940,deep,flow.Sequence,3_0_6_0_1_0,NA,NA,completion,10950.065,747118.6,747113.421,747130.087,758080.152,758085.8,2023-08-22T08:58:17Z,758096.818,NULL,Gefährdung,kuhatarisha,d,NA,NA,NA,NA,dfs,NA,6,NA,NA,NA,NA,NA,NA,NA,NA,NA,NA,NA,NA,NA,NA,NA,NA,NA,NA,NA
ef940,shallow,flow.Sequence,3_0_6_0_1_1,NA,NA,skipped,NA,758085.9,NA,NA,758080.152,758086.1,2023-08-22T08:58:17Z,758096.818,NULL,Gefährdung,kuhatarisha,d,NA,NA,NA,NA,dfs,NA,6,NA,NA,NA,NA,NA,NA,NA,NA,NA,NA,NA,NA,NA,NA,NA,NA,NA,NA,NA
ef940,task,flow.Sequence,3_0_6_0_1,NA,NA,completion,10950.065,747118.5,747113.421,747130.087,758080.152,758086.2,2023-08-22T08:58:17Z,758096.818,NULL,Gefährdung,kuhatarisha,d,NA,NA,NA,NA,dfs,NA,6,NA,NA,NA,NA,NA,NA,NA,NA,NA,NA,NA,NA,NA,NA,NA,NA,NA,NA,NA
ef940,deep,flow.Sequence,3_0_6_0_2_0,NA,NA,skipped,NA,758086.4,NA,NA,758080.152,758086.4,2023-08-22T08:58:17Z,758096.818,NULL,Gelegenheit,wakati,s,mchanganyiko,kipaumbele,kushuku,NA,dfs,NA,6,NA,NA,NA,NA,NA,NA,NA,NA,NA,NA,NA,NA,NA,NA,NA,NA,NA,NA,NA
ef940,Shallow Question,html.Page,3_0_6_0_2_1_0,NA,NA,form submission,4107.7819999978,758086.6,758080.152,758096.818,762204.6,762205.1,2023-08-22T08:58:21Z,762213.32,NULL,Gelegenheit,wakati,s,mchanganyiko,kipaumbele,kushuku,wakati,NA,NA,6,NA,NA,NA,NA,NA,NA,NA,NA,NA,NA,NA,NA,NA,NA,NA,NA,NA,NA,NA
ef940,"""Richtig""-Screen",canvas.Screen,3_0_6_0_2_1_1,NA,NA,timeout,4999.8,762206.5,762196.654,762213.32,767196.454,767200.9,2023-08-22T08:58:26Z,767213.12,NULL,Gelegenheit,wakati,s,mchanganyiko,kipaumbele,kushuku,NA,dfs,1,6,NA,NA,NA,NA,NA,NA,NA,NA,NA,NA,NA,NA,NA,NA,NA,NA,NA,NA,NA
ef940,"""Falsch""-Screen",canvas.Screen,3_0_6_0_2_1_2,NA,NA,skipped,NA,767202.8,NA,NA,767196.454,767202.9,2023-08-22T08:58:26Z,767213.12,NULL,Gelegenheit,wakati,s,mchanganyiko,kipaumbele,kushuku,NA,dfs,NA,6,NA,NA,NA,NA,NA,NA,NA,NA,NA,NA,NA,NA,NA,NA,NA,NA,NA,NA,NA
ef940,shallow,flow.Sequence,3_0_6_0_2_1,NA,NA,completion,9099.6360000001,758086.5,758080.152,758096.818,767196.454,767203.2,2023-08-22T08:58:26Z,767213.12,NULL,Gelegenheit,wakati,s,mchanganyiko,kipaumbele,kushuku,NA,dfs,NA,6,NA,NA,NA,NA,NA,NA,NA,NA,NA,NA,NA,NA,NA,NA,NA,NA,NA,NA,NA
ef940,task,flow.Sequence,3_0_6_0_2,NA,NA,completion,9099.6360000001,758086.3,758080.152,758096.818,767196.454,767203.3,2023-08-22T08:58:26Z,767213.12,NULL,Gelegenheit,wakati,s,mchanganyiko,kipaumbele,kushuku,NA,dfs,NA,6,NA,NA,NA,NA,NA,NA,NA,NA,NA,NA,NA,NA,NA,NA,NA,NA,NA,NA,NA
ef940,Deep Question,html.Page,3_0_6_0_3_0_0,NA,NA,form submission,5074.88,767203.6,767196.454,767213.12,772288,772288.6,2023-08-22T08:58:31Z,772296.67,NULL,Widerstand,usulubu,d,NA,NA,NA,husulubu,NA,NA,6,NA,NA,NA,NA,NA,NA,NA,NA,NA,NA,NA,NA,NA,NA,NA,NA,NA,NA,NA
ef940,"""Richtig""-Screen",canvas.Screen,3_0_6_0_3_0_1,NA,NA,skipped,NA,772291.5,NA,NA,772288,772291.7,2023-08-22T08:58:31Z,772296.67,NULL,Widerstand,usulubu,d,NA,NA,NA,NA,dfs,NA,6,NA,NA,NA,NA,NA,NA,NA,NA,NA,NA,NA,NA,NA,NA,NA,NA,NA,NA,NA
ef940,"""Falsch""-Screen",canvas.Screen,3_0_6_0_3_0_2,NA,NA,timeout,4999.7999999999,772292.7,772280.004,772296.67,777279.804,777282.1,2023-08-22T08:58:36Z,777296.47,NULL,Widerstand,usulubu,d,NA,NA,NA,NA,dfs,0,6,NA,NA,NA,NA,NA,NA,NA,NA,NA,NA,NA,NA,NA,NA,NA,NA,NA,NA,NA
ef940,deep,flow.Sequence,3_0_6_0_3_0,NA,NA,completion,10066.684,767203.6,767196.454,767213.12,777279.804,777282.5,2023-08-22T08:58:36Z,777296.47,NULL,Widerstand,usulubu,d,NA,NA,NA,NA,dfs,NA,6,NA,NA,NA,NA,NA,NA,NA,NA,NA,NA,NA,NA,NA,NA,NA,NA,NA,NA,NA
ef940,shallow,flow.Sequence,3_0_6_0_3_1,NA,NA,skipped,NA,777282.6,NA,NA,777279.804,777282.8,2023-08-22T08:58:36Z,777296.47,NULL,Widerstand,usulubu,d,NA,NA,NA,NA,dfs,NA,6,NA,NA,NA,NA,NA,NA,NA,NA,NA,NA,NA,NA,NA,NA,NA,NA,NA,NA,NA
ef940,task,flow.Sequence,3_0_6_0_3,NA,NA,completion,10066.684,767203.5,767196.454,767213.12,777279.804,777283,2023-08-22T08:58:36Z,777296.47,NULL,Widerstand,usulubu,d,NA,NA,NA,NA,dfs,NA,6,NA,NA,NA,NA,NA,NA,NA,NA,NA,NA,NA,NA,NA,NA,NA,NA,NA,NA,NA
ef940,deep,flow.Sequence,3_0_6_0_4_0,NA,NA,skipped,NA,777283.1,NA,NA,777279.804,777283.2,2023-08-22T08:58:36Z,777296.47,NULL,Ausschluss,kutengwa,s,ununuzi,taratibu,madeni,NA,dfs,NA,6,NA,NA,NA,NA,NA,NA,NA,NA,NA,NA,NA,NA,NA,NA,NA,NA,NA,NA,NA
ef940,Shallow Question,html.Page,3_0_6_0_4_1_0,NA,NA,form submission,7691.53,777283.3,777279.804,777296.47,784988,784988.6,2023-08-22T08:58:44Z,784996.629,NULL,Ausschluss,kutengwa,s,ununuzi,taratibu,madeni,kutengwa,NA,NA,6,NA,NA,NA,NA,NA,NA,NA,NA,NA,NA,NA,NA,NA,NA,NA,NA,NA,NA,NA
ef940,"""Richtig""-Screen",canvas.Screen,3_0_6_0_4_1_1,NA,NA,timeout,5000.153,784991.7,784979.963,784996.629,789980.116,789983.8,2023-08-22T08:58:49Z,789996.782,NULL,Ausschluss,kutengwa,s,ununuzi,taratibu,madeni,NA,dfs,1,6,NA,NA,NA,NA,NA,NA,NA,NA,NA,NA,NA,NA,NA,NA,NA,NA,NA,NA,NA
