observation,sender,sender_type,sender_id,response,response_action,ended_on,duration,time_run,time_render,time_show,time_end,time_commit,timestamp,time_switch,distractors,german,swahili,enc,distractor1,distractor2,distractor3,response_2,x,correct,x_2,url_vp,url_sess,meta_labjs_version,meta_location,meta_user_agent,meta_platform,meta_language,meta_locale,meta_time_zone,meta_timezone_offset,meta_screen_width,meta_screen_height,meta_scroll_width,meta_scroll_height,meta_window_inner_width,meta_window_inner_height,meta_device_pixel_ratio,meta_labjs_build_flavor,meta_labjs_build_commit
c7405,Introduction general,canvas.Screen,0,weiter,keypress(q),response,17043.607000001,1393,443.518,1443.693,18487.300000001,18490.800000001,2023-04-21T11:42:41Z,18498.289,NULL,NA,NA,NA,NA,NA,NA,NA,NA,NA,NA,124,3,20.2.4,https://neurocog.fernuni.ch/studies/vweber/encoding_immediate/index.html?vp=124&sess=3,"Mozilla/5.0 (Windows NT 10.0; Win64; x64) AppleWebKit/537.36 (KHTML, like Gecko) Chrome/112.0.0.0 Safari/537.36 Edg/112.0.1722.48",Win32,de,de-CH,Europe/Zurich,-120,1664,1110,1607,951,1607,999,1.5,production,f5b4a49f956347addd546a832a3327688c2c0fef
c7405,Introduction practice,canvas.Screen,1_0,NA,keypress(Space),response,1748.6110000022,18491.200000003,18481.695,18498.289,20246.900000002,20248.100000001,2023-04-21T11:42:43Z,20265.431,NULL,NA,NA,NA,NA,NA,NA,NA,NA,NA,NA,NA,NA,NA,NA,NA,NA,NA,NA,NA,NA,NA,NA,NA,NA,NA,NA,NA,NA,NA
c7405,deep,flow.Sequence,1_1_0_0,NA,NA,skipped,NA,20248.300000001,NA,NA,20246.900000002,20248.5,2023-04-21T11:42:43Z,20265.431,"c(""distractor1"", ""distractor2"", ""distractor3"")",Kritik,lawama,s,dereva,nafasi,mawazo,NA,NA,NA,NA,NA,NA,NA,NA,NA,NA,NA,NA,NA,NA,NA,NA,NA,NA,NA,NA,NA,NA,NA
c7405,Shallow Question,html.Page,1_1_0_1_0,NA,NA,form submission,6613.1690000015,20248.800000001,20249.052,20265.431,26878.600000001,26879,2023-04-21T11:42:49Z,26883.896,"c(""distractor1"", ""distractor2"", ""distractor3"")",Kritik,lawama,s,dereva,nafasi,mawazo,nafasi,NA,NA,NA,NA,NA,NA,NA,NA,NA,NA,NA,NA,NA,NA,NA,NA,NA,NA,NA,NA,NA,NA
c7405,"""Richtig""-Screen",canvas.Screen,1_1_0_1_1,NA,NA,skipped,NA,26880.100000001,NA,NA,26878.600000001,26880.200000003,2023-04-21T11:42:49Z,26883.896,"c(""distractor1"", ""distractor2"", ""distractor3"")",Kritik,lawama,s,dereva,nafasi,mawazo,NA,NA,NA,NA,NA,NA,NA,NA,NA,NA,NA,NA,NA,NA,NA,NA,NA,NA,NA,NA,NA,NA,NA
c7405,"""Falsch""-Screen",canvas.Screen,1_1_0_1_2,NA,NA,timeout,5001.399,26881.200000003,26867.267,26883.896,31868.936,31871.300000001,2023-04-21T11:42:54Z,31885.295,"c(""distractor1"", ""distractor2"", ""distractor3"")",Kritik,lawama,s,dereva,nafasi,mawazo,NA,NA,0,NA,NA,NA,NA,NA,NA,NA,NA,NA,NA,NA,NA,NA,NA,NA,NA,NA,NA,NA,NA
c7405,shallow,flow.Sequence,1_1_0_1,NA,NA,completion,11603.505,20248.800000001,20249.052,20265.431,31868.936,31871.700000003,2023-04-21T11:42:54Z,31885.295,"c(""distractor1"", ""distractor2"", ""distractor3"")",Kritik,lawama,s,dereva,nafasi,mawazo,NA,NA,NA,NA,NA,NA,NA,NA,NA,NA,NA,NA,NA,NA,NA,NA,NA,NA,NA,NA,NA,NA,NA
c7405,task,flow.Sequence,1_1_0,NA,NA,completion,11603.505,20248.300000001,20249.052,20265.431,31868.936,31871.800000001,2023-04-21T11:42:54Z,31885.295,"c(""distractor1"", ""distractor2"", ""distractor3"")",Kritik,lawama,s,dereva,nafasi,mawazo,NA,NA,NA,NA,NA,NA,NA,NA,NA,NA,NA,NA,NA,NA,NA,NA,NA,NA,NA,NA,NA,NA,NA
c7405,deep,flow.Sequence,1_1_1_0,NA,NA,skipped,NA,31872,NA,NA,31868.936,31872.100000001,2023-04-21T11:42:54Z,31885.295,"c(""distractor1"", ""distractor2"", ""distractor3"")",Gegenwart,hadhara,s,katiba,jokofu,mikopo,NA,NA,NA,NA,NA,NA,NA,NA,NA,NA,NA,NA,NA,NA,NA,NA,NA,NA,NA,NA,NA,NA,NA
c7405,Shallow Question,html.Page,1_1_1_1_0,NA,NA,form submission,2589.3050000015,31872.400000002,31868.936,31885.295,34474.600000001,34474.800000001,2023-04-21T11:42:57Z,34486.111,"c(""distractor1"", ""distractor2"", ""distractor3"")",Gegenwart,hadhara,s,katiba,jokofu,mikopo,jokofu,NA,NA,NA,NA,NA,NA,NA,NA,NA,NA,NA,NA,NA,NA,NA,NA,NA,NA,NA,NA,NA,NA
c7405,"""Richtig""-Screen",canvas.Screen,1_1_1_1_1,NA,NA,skipped,NA,34475.600000001,NA,NA,34474.600000001,34475.700000003,2023-04-21T11:42:57Z,34486.111,"c(""distractor1"", ""distractor2"", ""distractor3"")",Gegenwart,hadhara,s,katiba,jokofu,mikopo,NA,NA,NA,NA,NA,NA,NA,NA,NA,NA,NA,NA,NA,NA,NA,NA,NA,NA,NA,NA,NA,NA,NA
c7405,"""Falsch""-Screen",canvas.Screen,1_1_1_1_2,NA,NA,timeout,5001.243,34476.400000002,34469.488,34486.111,39471.185,39473.700000003,2023-04-21T11:43:02Z,39487.354,"c(""distractor1"", ""distractor2"", ""distractor3"")",Gegenwart,hadhara,s,katiba,jokofu,mikopo,NA,NA,0,NA,NA,NA,NA,NA,NA,NA,NA,NA,NA,NA,NA,NA,NA,NA,NA,NA,NA,NA,NA
c7405,shallow,flow.Sequence,1_1_1_1,NA,NA,completion,7585.89,31872.300000001,31868.936,31885.295,39471.185,39474.100000001,2023-04-21T11:43:02Z,39487.354,"c(""distractor1"", ""distractor2"", ""distractor3"")",Gegenwart,hadhara,s,katiba,jokofu,mikopo,NA,NA,NA,NA,NA,NA,NA,NA,NA,NA,NA,NA,NA,NA,NA,NA,NA,NA,NA,NA,NA,NA,NA
c7405,task,flow.Sequence,1_1_1,NA,NA,completion,7585.89,31871.900000002,31868.936,31885.295,39471.185,39474.400000002,2023-04-21T11:43:02Z,39487.354,"c(""distractor1"", ""distractor2"", ""distractor3"")",Gegenwart,hadhara,s,katiba,jokofu,mikopo,NA,NA,NA,NA,NA,NA,NA,NA,NA,NA,NA,NA,NA,NA,NA,NA,NA,NA,NA,NA,NA,NA,NA
c7405,Deep Question,html.Page,1_1_2_0_0,NA,NA,form submission,2459.9460000007,39474.700000003,39471.185,39487.354,41947.300000001,41947.5,2023-04-21T11:43:05Z,41954.647,"c(""distractor1"", ""distractor2"", ""distractor3"")",Schatten,kivuli,d,NA,NA,NA,lkl,NA,NA,NA,NA,NA,NA,NA,NA,NA,NA,NA,NA,NA,NA,NA,NA,NA,NA,NA,NA,NA,NA
c7405,"""Richtig""-Screen",canvas.Screen,1_1_2_0_1,NA,NA,skipped,NA,41948.200000003,NA,NA,41947.300000001,41948.300000001,2023-04-21T11:43:05Z,41954.647,"c(""distractor1"", ""distractor2"", ""distractor3"")",Schatten,kivuli,d,NA,NA,NA,NA,NA,NA,NA,NA,NA,NA,NA,NA,NA,NA,NA,NA,NA,NA,NA,NA,NA,NA,NA,NA,NA,NA
c7405,"""Falsch""-Screen",canvas.Screen,1_1_2_0_2,NA,NA,timeout,5001.527,41948.900000002,41938.21,41954.647,46939.679,46941.900000002,2023-04-21T11:43:10Z,46956.174,"c(""distractor1"", ""distractor2"", ""distractor3"")",Schatten,kivuli,d,NA,NA,NA,NA,NA,0,NA,NA,NA,NA,NA,NA,NA,NA,NA,NA,NA,NA,NA,NA,NA,NA,NA,NA,NA,NA
c7405,deep,flow.Sequence,1_1_2_0,NA,NA,completion,7452.325,39474.600000001,39471.185,39487.354,46939.679,46942.5,2023-04-21T11:43:10Z,46956.174,"c(""distractor1"", ""distractor2"", ""distractor3"")",Schatten,kivuli,d,NA,NA,NA,NA,NA,NA,NA,NA,NA,NA,NA,NA,NA,NA,NA,NA,NA,NA,NA,NA,NA,NA,NA,NA,NA,NA
c7405,shallow,flow.Sequence,1_1_2_1,NA,NA,skipped,NA,46942.600000001,NA,NA,46939.679,46942.900000002,2023-04-21T11:43:10Z,46956.174,"c(""distractor1"", ""distractor2"", ""distractor3"")",Schatten,kivuli,d,NA,NA,NA,NA,NA,NA,NA,NA,NA,NA,NA,NA,NA,NA,NA,NA,NA,NA,NA,NA,NA,NA,NA,NA,NA,NA
c7405,task,flow.Sequence,1_1_2,NA,NA,completion,7452.325,39474.5,39471.185,39487.354,46939.679,46943.100000001,2023-04-21T11:43:10Z,46956.174,"c(""distractor1"", ""distractor2"", ""distractor3"")",Schatten,kivuli,d,NA,NA,NA,NA,NA,NA,NA,NA,NA,NA,NA,NA,NA,NA,NA,NA,NA,NA,NA,NA,NA,NA,NA,NA,NA,NA
c7405,deep,flow.Sequence,1_1_3_0,NA,NA,skipped,NA,46943.200000003,NA,NA,46939.679,46943.300000001,2023-04-21T11:43:10Z,46956.174,"c(""distractor1"", ""distractor2"", ""distractor3"")",Rückhalt,msaada,s,muhula,auwali,kiwimbe,NA,NA,NA,NA,NA,NA,NA,NA,NA,NA,NA,NA,NA,NA,NA,NA,NA,NA,NA,NA,NA,NA,NA
c7405,Shallow Question,html.Page,1_1_3_1_0,NA,NA,form submission,2295.526000003,46943.400000002,46939.679,46956.174,49251.700000003,49251.800000001,2023-04-21T11:43:12Z,49256.721,"c(""distractor1"", ""distractor2"", ""distractor3"")",Rückhalt,msaada,s,muhula,auwali,kiwimbe,kiwimbe,NA,NA,NA,NA,NA,NA,NA,NA,NA,NA,NA,NA,NA,NA,NA,NA,NA,NA,NA,NA,NA,NA
c7405,"""Richtig""-Screen",canvas.Screen,1_1_3_1_1,NA,NA,skipped,NA,49252.400000002,NA,NA,49251.700000003,49252.5,2023-04-21T11:43:12Z,49256.721,"c(""distractor1"", ""distractor2"", ""distractor3"")",Rückhalt,msaada,s,muhula,auwali,kiwimbe,NA,NA,NA,NA,NA,NA,NA,NA,NA,NA,NA,NA,NA,NA,NA,NA,NA,NA,NA,NA,NA,NA,NA
c7405,"""Falsch""-Screen",canvas.Screen,1_1_3_1_2,NA,NA,timeout,5001.612,49252.900000002,49240.12,49256.721,54241.652,54243.400000002,2023-04-21T11:43:17Z,54258.333,"c(""distractor1"", ""distractor2"", ""distractor3"")",Rückhalt,msaada,s,muhula,auwali,kiwimbe,NA,NA,0,NA,NA,NA,NA,NA,NA,NA,NA,NA,NA,NA,NA,NA,NA,NA,NA,NA,NA,NA,NA
c7405,shallow,flow.Sequence,1_1_3_1,NA,NA,completion,7285.478,46943.300000001,46939.679,46956.174,54241.652,54243.700000003,2023-04-21T11:43:17Z,54258.333,"c(""distractor1"", ""distractor2"", ""distractor3"")",Rückhalt,msaada,s,muhula,auwali,kiwimbe,NA,NA,NA,NA,NA,NA,NA,NA,NA,NA,NA,NA,NA,NA,NA,NA,NA,NA,NA,NA,NA,NA,NA
c7405,task,flow.Sequence,1_1_3,NA,NA,completion,7285.478,46943.200000003,46939.679,46956.174,54241.652,54243.800000001,2023-04-21T11:43:17Z,54258.333,"c(""distractor1"", ""distractor2"", ""distractor3"")",Rückhalt,msaada,s,muhula,auwali,kiwimbe,NA,NA,NA,NA,NA,NA,NA,NA,NA,NA,NA,NA,NA,NA,NA,NA,NA,NA,NA,NA,NA,NA,NA
c7405,Deep Question,html.Page,1_1_4_0_0,NA,NA,form submission,4863.7670000015,54244,54241.652,54258.333,59122.100000001,59122.300000001,2023-04-21T11:43:22Z,59126.067,"c(""distractor1"", ""distractor2"", ""distractor3"")",Qualität,mtindo,d,NA,NA,NA,iro_ero,NA,NA,NA,NA,NA,NA,NA,NA,NA,NA,NA,NA,NA,NA,NA,NA,NA,NA,NA,NA,NA,NA
c7405,"""Richtig""-Screen",canvas.Screen,1_1_4_0_1,NA,NA,skipped,NA,59123.300000001,NA,NA,59122.100000001,59123.5,2023-04-21T11:43:22Z,59126.067,"c(""distractor1"", ""distractor2"", ""distractor3"")",Qualität,mtindo,d,NA,NA,NA,NA,NA,NA,NA,NA,NA,NA,NA,NA,NA,NA,NA,NA,NA,NA,NA,NA,NA,NA,NA,NA,NA,NA
c7405,"""Falsch""-Screen",canvas.Screen,1_1_4_0_2,NA,NA,timeout,5001.422,59124.300000001,59109.432,59126.067,64110.796,64112.900000002,2023-04-21T11:43:27Z,64127.489,"c(""distractor1"", ""distractor2"", ""distractor3"")",Qualität,mtindo,d,NA,NA,NA,NA,NA,0,NA,NA,NA,NA,NA,NA,NA,NA,NA,NA,NA,NA,NA,NA,NA,NA,NA,NA,NA,NA
c7405,deep,flow.Sequence,1_1_4_0,NA,NA,completion,9852.463,54244,54241.652,54258.333,64110.796,64113.200000003,2023-04-21T11:43:27Z,64127.489,"c(""distractor1"", ""distractor2"", ""distractor3"")",Qualität,mtindo,d,NA,NA,NA,NA,NA,NA,NA,NA,NA,NA,NA,NA,NA,NA,NA,NA,NA,NA,NA,NA,NA,NA,NA,NA,NA,NA
c7405,shallow,flow.Sequence,1_1_4_1,NA,NA,skipped,NA,64113.300000001,NA,NA,64110.796,64113.300000001,2023-04-21T11:43:27Z,64127.489,"c(""distractor1"", ""distractor2"", ""distractor3"")",Qualität,mtindo,d,NA,NA,NA,NA,NA,NA,NA,NA,NA,NA,NA,NA,NA,NA,NA,NA,NA,NA,NA,NA,NA,NA,NA,NA,NA,NA
c7405,task,flow.Sequence,1_1_4,NA,NA,completion,9852.463,54244,54241.652,54258.333,64110.796,64113.5,2023-04-21T11:43:27Z,64127.489,"c(""distractor1"", ""distractor2"", ""distractor3"")",Qualität,mtindo,d,NA,NA,NA,NA,NA,NA,NA,NA,NA,NA,NA,NA,NA,NA,NA,NA,NA,NA,NA,NA,NA,NA,NA,NA,NA,NA
c7405,Deep Question,html.Page,1_1_5_0_0,NA,NA,form submission,2840.9110000022,64113.700000003,64110.796,64127.489,66968.400000002,66968.600000001,2023-04-21T11:43:30Z,66978.124,"c(""distractor1"", ""distractor2"", ""distractor3"")",Gesundheit,salama,d,NA,NA,NA,lol,NA,NA,NA,NA,NA,NA,NA,NA,NA,NA,NA,NA,NA,NA,NA,NA,NA,NA,NA,NA,NA,NA
c7405,"""Richtig""-Screen",canvas.Screen,1_1_5_0_1,NA,NA,skipped,NA,66970.900000002,NA,NA,66968.400000002,66971.100000001,2023-04-21T11:43:30Z,66978.124,"c(""distractor1"", ""distractor2"", ""distractor3"")",Gesundheit,salama,d,NA,NA,NA,NA,NA,NA,NA,NA,NA,NA,NA,NA,NA,NA,NA,NA,NA,NA,NA,NA,NA,NA,NA,NA,NA,NA
c7405,"""Falsch""-Screen",canvas.Screen,1_1_5_0_2,NA,NA,timeout,5001.514,66971.5,66961.836,66978.124,71963.182,71964.800000001,2023-04-21T11:43:35Z,71979.638,"c(""distractor1"", ""distractor2"", ""distractor3"")",Gesundheit,salama,d,NA,NA,NA,NA,NA,0,NA,NA,NA,NA,NA,NA,NA,NA,NA,NA,NA,NA,NA,NA,NA,NA,NA,NA,NA,NA
c7405,deep,flow.Sequence,1_1_5_0,NA,NA,completion,7835.693,64113.600000001,64110.796,64127.489,71963.182,71965.100000001,2023-04-21T11:43:35Z,71979.638,"c(""distractor1"", ""distractor2"", ""distractor3"")",Gesundheit,salama,d,NA,NA,NA,NA,NA,NA,NA,NA,NA,NA,NA,NA,NA,NA,NA,NA,NA,NA,NA,NA,NA,NA,NA,NA,NA,NA
c7405,shallow,flow.Sequence,1_1_5_1,NA,NA,skipped,NA,71965.200000003,NA,NA,71963.182,71965.400000002,2023-04-21T11:43:35Z,71979.638,"c(""distractor1"", ""distractor2"", ""distractor3"")",Gesundheit,salama,d,NA,NA,NA,NA,NA,NA,NA,NA,NA,NA,NA,NA,NA,NA,NA,NA,NA,NA,NA,NA,NA,NA,NA,NA,NA,NA
c7405,task,flow.Sequence,1_1_5,NA,NA,completion,7835.693,64113.600000001,64110.796,64127.489,71963.182,71965.400000002,2023-04-21T11:43:35Z,71979.638,"c(""distractor1"", ""distractor2"", ""distractor3"")",Gesundheit,salama,d,NA,NA,NA,NA,NA,NA,NA,NA,NA,NA,NA,NA,NA,NA,NA,NA,NA,NA,NA,NA,NA,NA,NA,NA,NA,NA
c7405,block,flow.Loop,1_1,NA,NA,completion,51697.751,20248.300000001,20249.052,20265.431,71963.182,71965.700000003,2023-04-21T11:43:35Z,71979.638,"c(""distractor1"", ""distractor2"", ""distractor3"")",NA,NA,NA,NA,NA,NA,NA,NA,NA,NA,NA,NA,NA,NA,NA,NA,NA,NA,NA,NA,NA,NA,NA,NA,NA,NA,NA,NA,NA
c7405,Practice,flow.Sequence,1,NA,NA,completion,53464.893,18491.200000003,18481.695,18498.289,71963.182,71966,2023-04-21T11:43:35Z,71979.638,NULL,NA,NA,NA,NA,NA,NA,NA,NA,NA,NA,NA,NA,NA,NA,NA,NA,NA,NA,NA,NA,NA,NA,NA,NA,NA,NA,NA,NA,NA
c7405,Experiment start,canvas.Screen,2,weiter,keypress(q),response,20341.962000001,71966.200000003,71963.182,71979.638,92321.600000001,92322.700000003,2023-04-21T11:43:55Z,92435.208,NULL,NA,NA,NA,NA,NA,NA,NA,NA,NA,NA,NA,NA,NA,NA,NA,NA,NA,NA,NA,NA,NA,NA,NA,NA,NA,NA,NA,NA,NA
c7405,Deep Question,html.Page,3_0_0_0_0_0_0,NA,NA,form submission,5287.5920000007,92421.300000001,92418.576,92435.208,97722.800000001,97723.100000001,2023-04-21T11:44:00Z,97736.619,NULL,System,maongozi,d,NA,NA,NA,lkl,NA,NA,0,NA,NA,NA,NA,NA,NA,NA,NA,NA,NA,NA,NA,NA,NA,NA,NA,NA,NA,NA
c7405,"""Richtig""-Screen",canvas.Screen,3_0_0_0_0_0_1,NA,NA,skipped,NA,97724.600000001,NA,NA,97722.800000001,97724.800000001,2023-04-21T11:44:00Z,97736.619,NULL,System,maongozi,d,NA,NA,NA,NA,sdf,NA,0,NA,NA,NA,NA,NA,NA,NA,NA,NA,NA,NA,NA,NA,NA,NA,NA,NA,NA,NA
c7405,"""Falsch""-Screen",canvas.Screen,3_0_0_0_0_0_2,NA,NA,timeout,5001.445,97725.200000003,97720.172,97736.619,102721.554,102723.5,2023-04-21T11:44:05Z,102738.064,NULL,System,maongozi,d,NA,NA,NA,NA,sdf,0,0,NA,NA,NA,NA,NA,NA,NA,NA,NA,NA,NA,NA,NA,NA,NA,NA,NA,NA,NA
c7405,deep,flow.Sequence,3_0_0_0_0_0,NA,NA,completion,10286.346,92421.300000001,92418.576,92435.208,102721.554,102723.7,2023-04-21T11:44:05Z,102738.064,NULL,System,maongozi,d,NA,NA,NA,NA,sdf,NA,0,NA,NA,NA,NA,NA,NA,NA,NA,NA,NA,NA,NA,NA,NA,NA,NA,NA,NA,NA
c7405,shallow,flow.Sequence,3_0_0_0_0_1,NA,NA,skipped,NA,102723.8,NA,NA,102721.554,102723.9,2023-04-21T11:44:05Z,102738.064,NULL,System,maongozi,d,NA,NA,NA,NA,sdf,NA,0,NA,NA,NA,NA,NA,NA,NA,NA,NA,NA,NA,NA,NA,NA,NA,NA,NA,NA,NA
c7405,task,flow.Sequence,3_0_0_0_0,NA,NA,completion,10286.346,92421.300000001,92418.576,92435.208,102721.554,102724.1,2023-04-21T11:44:05Z,102738.064,NULL,System,maongozi,d,NA,NA,NA,NA,sdf,NA,0,NA,NA,NA,NA,NA,NA,NA,NA,NA,NA,NA,NA,NA,NA,NA,NA,NA,NA,NA
c7405,deep,flow.Sequence,3_0_0_0_1_0,NA,NA,skipped,NA,102724.1,NA,NA,102721.554,102724.2,2023-04-21T11:44:05Z,102738.064,NULL,Symbol,kielezo,s,kinyume,nderemo,utayari,NA,sdf,NA,0,NA,NA,NA,NA,NA,NA,NA,NA,NA,NA,NA,NA,NA,NA,NA,NA,NA,NA,NA
c7405,Shallow Question,html.Page,3_0_0_0_1_1_0,NA,NA,form submission,6997.5360000015,102724.3,102721.554,102738.064,109735.6,109735.8,2023-04-21T11:44:12Z,109739.786,NULL,Symbol,kielezo,s,kinyume,nderemo,utayari,kinyume,NA,NA,0,NA,NA,NA,NA,NA,NA,NA,NA,NA,NA,NA,NA,NA,NA,NA,NA,NA,NA,NA
c7405,"""Richtig""-Screen",canvas.Screen,3_0_0_0_1_1_1,NA,NA,skipped,NA,109738.3,NA,NA,109735.6,109738.4,2023-04-21T11:44:12Z,109739.786,NULL,Symbol,kielezo,s,kinyume,nderemo,utayari,NA,sdf,NA,0,NA,NA,NA,NA,NA,NA,NA,NA,NA,NA,NA,NA,NA,NA,NA,NA,NA,NA,NA
c7405,"""Falsch""-Screen",canvas.Screen,3_0_0_0_1_1_2,NA,NA,timeout,5001.555,109739.1,109723.417,109739.786,114724.821,114726.4,2023-04-21T11:44:17Z,114741.341,NULL,Symbol,kielezo,s,kinyume,nderemo,utayari,NA,sdf,0,0,NA,NA,NA,NA,NA,NA,NA,NA,NA,NA,NA,NA,NA,NA,NA,NA,NA,NA,NA
c7405,shallow,flow.Sequence,3_0_0_0_1_1,NA,NA,completion,11986.757,102724.3,102721.554,102738.064,114724.821,114726.6,2023-04-21T11:44:17Z,114741.341,NULL,Symbol,kielezo,s,kinyume,nderemo,utayari,NA,sdf,NA,0,NA,NA,NA,NA,NA,NA,NA,NA,NA,NA,NA,NA,NA,NA,NA,NA,NA,NA,NA
c7405,task,flow.Sequence,3_0_0_0_1,NA,NA,completion,11986.757,102724.1,102721.554,102738.064,114724.821,114726.9,2023-04-21T11:44:17Z,114741.341,NULL,Symbol,kielezo,s,kinyume,nderemo,utayari,NA,sdf,NA,0,NA,NA,NA,NA,NA,NA,NA,NA,NA,NA,NA,NA,NA,NA,NA,NA,NA,NA,NA
c7405,Deep Question,html.Page,3_0_0_0_2_0_0,NA,NA,form submission,4157.859000003,114727,114724.821,114741.341,118899.2,118899.4,2023-04-21T11:44:21Z,118908.948,NULL,Lawine,banguko,d,NA,NA,NA,lawine,NA,NA,0,NA,NA,NA,NA,NA,NA,NA,NA,NA,NA,NA,NA,NA,NA,NA,NA,NA,NA,NA
c7405,"""Richtig""-Screen",canvas.Screen,3_0_0_0_2_0_1,NA,NA,skipped,NA,118901.1,NA,NA,118899.2,118901.2,2023-04-21T11:44:21Z,118908.948,NULL,Lawine,banguko,d,NA,NA,NA,NA,sdf,NA,0,NA,NA,NA,NA,NA,NA,NA,NA,NA,NA,NA,NA,NA,NA,NA,NA,NA,NA,NA
c7405,"""Falsch""-Screen",canvas.Screen,3_0_0_0_2_0_2,NA,NA,timeout,5001.522,118901.8,118892.715,118908.948,123893.708,123895.5,2023-04-21T11:44:26Z,123910.47,NULL,Lawine,banguko,d,NA,NA,NA,NA,sdf,0,0,NA,NA,NA,NA,NA,NA,NA,NA,NA,NA,NA,NA,NA,NA,NA,NA,NA,NA,NA
c7405,deep,flow.Sequence,3_0_0_0_2_0,NA,NA,completion,9152.367,114726.9,114724.821,114741.341,123893.708,123895.7,2023-04-21T11:44:26Z,123910.47,NULL,Lawine,banguko,d,NA,NA,NA,NA,sdf,NA,0,NA,NA,NA,NA,NA,NA,NA,NA,NA,NA,NA,NA,NA,NA,NA,NA,NA,NA,NA
c7405,shallow,flow.Sequence,3_0_0_0_2_1,NA,NA,skipped,NA,123895.8,NA,NA,123893.708,123895.9,2023-04-21T11:44:26Z,123910.47,NULL,Lawine,banguko,d,NA,NA,NA,NA,sdf,NA,0,NA,NA,NA,NA,NA,NA,NA,NA,NA,NA,NA,NA,NA,NA,NA,NA,NA,NA,NA
c7405,task,flow.Sequence,3_0_0_0_2,NA,NA,completion,9152.367,114726.9,114724.821,114741.341,123893.708,123896.1,2023-04-21T11:44:26Z,123910.47,NULL,Lawine,banguko,d,NA,NA,NA,NA,sdf,NA,0,NA,NA,NA,NA,NA,NA,NA,NA,NA,NA,NA,NA,NA,NA,NA,NA,NA,NA,NA
c7405,Deep Question,html.Page,3_0_0_0_3_0_0,NA,NA,form submission,4450.53,123896.2,123893.708,123910.47,128361,128361.1,2023-04-21T11:44:31Z,128387.009,NULL,Vorsorge,tahadhari,d,NA,NA,NA,banguko,NA,NA,0,NA,NA,NA,NA,NA,NA,NA,NA,NA,NA,NA,NA,NA,NA,NA,NA,NA,NA,NA
c7405,"""Richtig""-Screen",canvas.Screen,3_0_0_0_3_0_1,NA,NA,skipped,NA,128363.3,NA,NA,128361,128363.4,2023-04-21T11:44:31Z,128387.009,NULL,Vorsorge,tahadhari,d,NA,NA,NA,NA,sdf,NA,0,NA,NA,NA,NA,NA,NA,NA,NA,NA,NA,NA,NA,NA,NA,NA,NA,NA,NA,NA
c7405,"""Falsch""-Screen",canvas.Screen,3_0_0_0_3_0_2,NA,NA,timeout,4992.857,128363.8,128345.086,128387.009,133363.138,133364.8,2023-04-21T11:44:36Z,133379.866,NULL,Vorsorge,tahadhari,d,NA,NA,NA,NA,sdf,0,0,NA,NA,NA,NA,NA,NA,NA,NA,NA,NA,NA,NA,NA,NA,NA,NA,NA,NA,NA
c7405,deep,flow.Sequence,3_0_0_0_3_0,NA,NA,completion,9452.668,123896.2,123893.708,123910.47,133363.138,133365,2023-04-21T11:44:36Z,133379.866,NULL,Vorsorge,tahadhari,d,NA,NA,NA,NA,sdf,NA,0,NA,NA,NA,NA,NA,NA,NA,NA,NA,NA,NA,NA,NA,NA,NA,NA,NA,NA,NA
c7405,shallow,flow.Sequence,3_0_0_0_3_1,NA,NA,skipped,NA,133365.1,NA,NA,133363.138,133365.3,2023-04-21T11:44:36Z,133379.866,NULL,Vorsorge,tahadhari,d,NA,NA,NA,NA,sdf,NA,0,NA,NA,NA,NA,NA,NA,NA,NA,NA,NA,NA,NA,NA,NA,NA,NA,NA,NA,NA
c7405,task,flow.Sequence,3_0_0_0_3,NA,NA,completion,9452.668,123896.2,123893.708,123910.47,133363.138,133365.3,2023-04-21T11:44:36Z,133379.866,NULL,Vorsorge,tahadhari,d,NA,NA,NA,NA,sdf,NA,0,NA,NA,NA,NA,NA,NA,NA,NA,NA,NA,NA,NA,NA,NA,NA,NA,NA,NA,NA
c7405,Deep Question,html.Page,3_0_0_0_4_0_0,NA,NA,form submission,5048.5340000022,133365.4,133363.138,133379.866,138428.4,138428.6,2023-04-21T11:44:41Z,138430.906,NULL,Konkurrent,mshindani,d,NA,NA,NA,tahadhari,NA,NA,0,NA,NA,NA,NA,NA,NA,NA,NA,NA,NA,NA,NA,NA,NA,NA,NA,NA,NA,NA
c7405,"""Richtig""-Screen",canvas.Screen,3_0_0_0_4_0_1,NA,NA,skipped,NA,138430.3,NA,NA,138428.4,138430.5,2023-04-21T11:44:41Z,138430.906,NULL,Konkurrent,mshindani,d,NA,NA,NA,NA,sdf,NA,0,NA,NA,NA,NA,NA,NA,NA,NA,NA,NA,NA,NA,NA,NA,NA,NA,NA,NA,NA
c7405,"""Falsch""-Screen",canvas.Screen,3_0_0_0_4_0_2,NA,NA,timeout,5001.544,138430.9,138414.575,138430.906,143415.959,143417.6,2023-04-21T11:44:46Z,143432.45,NULL,Konkurrent,mshindani,d,NA,NA,NA,NA,sdf,0,0,NA,NA,NA,NA,NA,NA,NA,NA,NA,NA,NA,NA,NA,NA,NA,NA,NA,NA,NA
c7405,deep,flow.Sequence,3_0_0_0_4_0,NA,NA,completion,10036.093,133365.4,133363.138,133379.866,143415.959,143417.8,2023-04-21T11:44:46Z,143432.45,NULL,Konkurrent,mshindani,d,NA,NA,NA,NA,sdf,NA,0,NA,NA,NA,NA,NA,NA,NA,NA,NA,NA,NA,NA,NA,NA,NA,NA,NA,NA,NA
c7405,shallow,flow.Sequence,3_0_0_0_4_1,NA,NA,skipped,NA,143417.9,NA,NA,143415.959,143418.1,2023-04-21T11:44:46Z,143432.45,NULL,Konkurrent,mshindani,d,NA,NA,NA,NA,sdf,NA,0,NA,NA,NA,NA,NA,NA,NA,NA,NA,NA,NA,NA,NA,NA,NA,NA,NA,NA,NA
c7405,task,flow.Sequence,3_0_0_0_4,NA,NA,completion,10036.093,133365.3,133363.138,133379.866,143415.959,143418.2,2023-04-21T11:44:46Z,143432.45,NULL,Konkurrent,mshindani,d,NA,NA,NA,NA,sdf,NA,0,NA,NA,NA,NA,NA,NA,NA,NA,NA,NA,NA,NA,NA,NA,NA,NA,NA,NA,NA
c7405,deep,flow.Sequence,3_0_0_0_5_0,NA,NA,skipped,NA,143418.3,NA,NA,143415.959,143418.3,2023-04-21T11:44:46Z,143432.45,NULL,Übersicht,kilindo,s,mgusano,chipukizi,kulinganisha,NA,sdf,NA,0,NA,NA,NA,NA,NA,NA,NA,NA,NA,NA,NA,NA,NA,NA,NA,NA,NA,NA,NA
c7405,Shallow Question,html.Page,3_0_0_0_5_1_0,NA,NA,form submission,4970.9500000022,143418.4,143415.959,143432.45,148403.4,148403.6,2023-04-21T11:44:51Z,148417.21,NULL,Übersicht,kilindo,s,mgusano,chipukizi,kulinganisha,chipukizi,NA,NA,0,NA,NA,NA,NA,NA,NA,NA,NA,NA,NA,NA,NA,NA,NA,NA,NA,NA,NA,NA
c7405,"""Richtig""-Screen",canvas.Screen,3_0_0_0_5_1_1,NA,NA,skipped,NA,148405.4,NA,NA,148403.4,148405.5,2023-04-21T11:44:51Z,148417.21,NULL,Übersicht,kilindo,s,mgusano,chipukizi,kulinganisha,NA,sdf,NA,0,NA,NA,NA,NA,NA,NA,NA,NA,NA,NA,NA,NA,NA,NA,NA,NA,NA,NA,NA
c7405,"""Falsch""-Screen",canvas.Screen,3_0_0_0_5_1_2,NA,NA,timeout,5001.145,148405.9,148400.683,148417.21,153401.885,153403.4,2023-04-21T11:44:56Z,153418.355,NULL,Übersicht,kilindo,s,mgusano,chipukizi,kulinganisha,NA,sdf,0,0,NA,NA,NA,NA,NA,NA,NA,NA,NA,NA,NA,NA,NA,NA,NA,NA,NA,NA,NA
c7405,shallow,flow.Sequence,3_0_0_0_5_1,NA,NA,completion,9969.435,143418.4,143415.959,143432.45,153401.885,153403.6,2023-04-21T11:44:56Z,153418.355,NULL,Übersicht,kilindo,s,mgusano,chipukizi,kulinganisha,NA,sdf,NA,0,NA,NA,NA,NA,NA,NA,NA,NA,NA,NA,NA,NA,NA,NA,NA,NA,NA,NA,NA
c7405,task,flow.Sequence,3_0_0_0_5,NA,NA,completion,9969.435,143418.2,143415.959,143432.45,153401.885,153403.8,2023-04-21T11:44:56Z,153418.355,NULL,Übersicht,kilindo,s,mgusano,chipukizi,kulinganisha,NA,sdf,NA,0,NA,NA,NA,NA,NA,NA,NA,NA,NA,NA,NA,NA,NA,NA,NA,NA,NA,NA,NA
c7405,deep,flow.Sequence,3_0_0_0_6_0,NA,NA,skipped,NA,153403.9,NA,NA,153401.885,153404,2023-04-21T11:44:56Z,153418.355,NULL,Körper,kiwiliwili,s,mapambano,mpatanishi,kiolezo,NA,sdf,NA,0,NA,NA,NA,NA,NA,NA,NA,NA,NA,NA,NA,NA,NA,NA,NA,NA,NA,NA,NA
c7405,Shallow Question,html.Page,3_0_0_0_6_1_0,NA,NA,form submission,4293.345000003,153404.1,153401.885,153418.355,157711.7,157712,2023-04-21T11:45:00Z,157719.535,NULL,Körper,kiwiliwili,s,mapambano,mpatanishi,kiolezo,kiolezo,NA,NA,0,NA,NA,NA,NA,NA,NA,NA,NA,NA,NA,NA,NA,NA,NA,NA,NA,NA,NA,NA
c7405,"""Richtig""-Screen",canvas.Screen,3_0_0_0_6_1_1,NA,NA,skipped,NA,157713.8,NA,NA,157711.7,157713.8,2023-04-21T11:45:00Z,157719.535,NULL,Körper,kiwiliwili,s,mapambano,mpatanishi,kiolezo,NA,sdf,NA,0,NA,NA,NA,NA,NA,NA,NA,NA,NA,NA,NA,NA,NA,NA,NA,NA,NA,NA,NA
c7405,"""Falsch""-Screen",canvas.Screen,3_0_0_0_6_1_2,NA,NA,timeout,5001.748,157714.4,157703.211,157719.535,162704.544,162706.2,2023-04-21T11:45:05Z,162721.283,NULL,Körper,kiwiliwili,s,mapambano,mpatanishi,kiolezo,NA,sdf,0,0,NA,NA,NA,NA,NA,NA,NA,NA,NA,NA,NA,NA,NA,NA,NA,NA,NA,NA,NA
c7405,shallow,flow.Sequence,3_0_0_0_6_1,NA,NA,completion,9286.189,153404,153401.885,153418.355,162704.544,162706.9,2023-04-21T11:45:05Z,162721.283,NULL,Körper,kiwiliwili,s,mapambano,mpatanishi,kiolezo,NA,sdf,NA,0,NA,NA,NA,NA,NA,NA,NA,NA,NA,NA,NA,NA,NA,NA,NA,NA,NA,NA,NA
c7405,task,flow.Sequence,3_0_0_0_6,NA,NA,completion,9286.189,153403.8,153401.885,153418.355,162704.544,162707,2023-04-21T11:45:05Z,162721.283,NULL,Körper,kiwiliwili,s,mapambano,mpatanishi,kiolezo,NA,sdf,NA,0,NA,NA,NA,NA,NA,NA,NA,NA,NA,NA,NA,NA,NA,NA,NA,NA,NA,NA,NA
c7405,deep,flow.Sequence,3_0_0_0_7_0,NA,NA,skipped,NA,162707.1,NA,NA,162704.544,162707.2,2023-04-21T11:45:05Z,162721.283,NULL,Zuwachs,nyongeza,s,matilaba,udhibiti,hudhurio,NA,sdf,NA,0,NA,NA,NA,NA,NA,NA,NA,NA,NA,NA,NA,NA,NA,NA,NA,NA,NA,NA,NA
c7405,Shallow Question,html.Page,3_0_0_0_7_1_0,NA,NA,form submission,4347.0170000007,162707.3,162704.544,162721.283,167068.3,167068.5,2023-04-21T11:45:10Z,167072.037,NULL,Zuwachs,nyongeza,s,matilaba,udhibiti,hudhurio,udhibiti,NA,NA,0,NA,NA,NA,NA,NA,NA,NA,NA,NA,NA,NA,NA,NA,NA,NA,NA,NA,NA,NA
c7405,"""Richtig""-Screen",canvas.Screen,3_0_0_0_7_1_1,NA,NA,skipped,NA,167070.3,NA,NA,167068.3,167070.5,2023-04-21T11:45:10Z,167072.037,NULL,Zuwachs,nyongeza,s,matilaba,udhibiti,hudhurio,NA,sdf,NA,0,NA,NA,NA,NA,NA,NA,NA,NA,NA,NA,NA,NA,NA,NA,NA,NA,NA,NA,NA
c7405,"""Falsch""-Screen",canvas.Screen,3_0_0_0_7_1_2,NA,NA,timeout,5001.43,167070.9,167055.706,167072.037,172057.075,172059.9,2023-04-21T11:45:15Z,172073.467,NULL,Zuwachs,nyongeza,s,matilaba,udhibiti,hudhurio,NA,sdf,0,0,NA,NA,NA,NA,NA,NA,NA,NA,NA,NA,NA,NA,NA,NA,NA,NA,NA,NA,NA
c7405,shallow,flow.Sequence,3_0_0_0_7_1,NA,NA,completion,9335.792,162707.2,162704.544,162721.283,172057.075,172060.1,2023-04-21T11:45:15Z,172073.467,NULL,Zuwachs,nyongeza,s,matilaba,udhibiti,hudhurio,NA,sdf,NA,0,NA,NA,NA,NA,NA,NA,NA,NA,NA,NA,NA,NA,NA,NA,NA,NA,NA,NA,NA
c7405,task,flow.Sequence,3_0_0_0_7,NA,NA,completion,9335.792,162707,162704.544,162721.283,172057.075,172060.3,2023-04-21T11:45:15Z,172073.467,NULL,Zuwachs,nyongeza,s,matilaba,udhibiti,hudhurio,NA,sdf,NA,0,NA,NA,NA,NA,NA,NA,NA,NA,NA,NA,NA,NA,NA,NA,NA,NA,NA,NA,NA
c7405,block,flow.Loop,3_0_0_0,NA,NA,completion,79621.867,92421.300000001,92418.576,92435.208,172057.075,172060.5,2023-04-21T11:45:15Z,172073.467,NULL,NA,NA,NA,NA,NA,NA,NA,sdf,NA,0,NA,NA,NA,NA,NA,NA,NA,NA,NA,NA,NA,NA,NA,NA,NA,NA,NA,NA,NA
c7405,weiter,canvas.Screen,3_0_0_1,sdf,keypress(Space),response,1710.033,172060.6,172057.075,172073.467,173783.5,173784.6,2023-04-21T11:45:16Z,173840.545,NULL,NA,NA,NA,NA,NA,NA,NA,sdf,NA,0,NA,NA,NA,NA,NA,NA,NA,NA,NA,NA,NA,NA,NA,NA,NA,NA,NA,NA,NA
c7405,check continue,flow.Sequence,3_0_0,NA,NA,completion,81348.292,92421.200000003,92418.576,92435.208,173783.5,173784.8,2023-04-21T11:45:16Z,173840.545,NULL,NA,NA,NA,NA,NA,NA,NA,sdf,NA,0,NA,NA,NA,NA,NA,NA,NA,NA,NA,NA,NA,NA,NA,NA,NA,NA,NA,NA,NA
c7405,Deep Question,html.Page,3_0_1_0_0_0_0,NA,NA,form submission,4900.8550000022,173833.1,173823.976,173840.545,178741.4,178741.5,2023-04-21T11:45:21Z,178768.447,NULL,System,maongozi,d,NA,NA,NA,tahadari,NA,NA,1,NA,NA,NA,NA,NA,NA,NA,NA,NA,NA,NA,NA,NA,NA,NA,NA,NA,NA,NA
c7405,"""Richtig""-Screen",canvas.Screen,3_0_1_0_0_0_1,NA,NA,skipped,NA,178743.3,NA,NA,178741.4,178743.5,2023-04-21T11:45:21Z,178768.447,NULL,System,maongozi,d,NA,NA,NA,NA,sdfdsf,NA,1,NA,NA,NA,NA,NA,NA,NA,NA,NA,NA,NA,NA,NA,NA,NA,NA,NA,NA,NA
c7405,"""Falsch""-Screen",canvas.Screen,3_0_1_0_0_0_2,NA,NA,timeout,4991.545,178743.8,178725.545,178768.447,183743.593,183745.4,2023-04-21T11:45:26Z,183759.992,NULL,System,maongozi,d,NA,NA,NA,NA,sdfdsf,0,1,NA,NA,NA,NA,NA,NA,NA,NA,NA,NA,NA,NA,NA,NA,NA,NA,NA,NA,NA
c7405,deep,flow.Sequence,3_0_1_0_0_0,NA,NA,completion,9903.048,173833,173823.976,173840.545,183743.593,183745.7,2023-04-21T11:45:26Z,183759.992,NULL,System,maongozi,d,NA,NA,NA,NA,sdfdsf,NA,1,NA,NA,NA,NA,NA,NA,NA,NA,NA,NA,NA,NA,NA,NA,NA,NA,NA,NA,NA
c7405,shallow,flow.Sequence,3_0_1_0_0_1,NA,NA,skipped,NA,183745.9,NA,NA,183743.593,183745.9,2023-04-21T11:45:26Z,183759.992,NULL,System,maongozi,d,NA,NA,NA,NA,sdfdsf,NA,1,NA,NA,NA,NA,NA,NA,NA,NA,NA,NA,NA,NA,NA,NA,NA,NA,NA,NA,NA
c7405,task,flow.Sequence,3_0_1_0_0,NA,NA,completion,9903.048,173833,173823.976,173840.545,183743.593,183746,2023-04-21T11:45:26Z,183759.992,NULL,System,maongozi,d,NA,NA,NA,NA,sdfdsf,NA,1,NA,NA,NA,NA,NA,NA,NA,NA,NA,NA,NA,NA,NA,NA,NA,NA,NA,NA,NA
c7405,deep,flow.Sequence,3_0_1_0_1_0,NA,NA,skipped,NA,183746.1,NA,NA,183743.593,183746.1,2023-04-21T11:45:26Z,183759.992,NULL,Zuwachs,nyongeza,s,matilaba,udhibiti,hudhurio,NA,sdfdsf,NA,1,NA,NA,NA,NA,NA,NA,NA,NA,NA,NA,NA,NA,NA,NA,NA,NA,NA,NA,NA
c7405,Shallow Question,html.Page,3_0_1_0_1_1_0,NA,NA,form submission,9025.3080000007,183746.2,183743.593,183759.992,192785.3,192785.6,2023-04-21T11:45:35Z,192795.71,NULL,Zuwachs,nyongeza,s,matilaba,udhibiti,hudhurio,udhibiti,NA,NA,1,NA,NA,NA,NA,NA,NA,NA,NA,NA,NA,NA,NA,NA,NA,NA,NA,NA,NA,NA
c7405,"""Richtig""-Screen",canvas.Screen,3_0_1_0_1_1_1,NA,NA,skipped,NA,192787.5,NA,NA,192785.3,192787.6,2023-04-21T11:45:35Z,192795.71,NULL,Zuwachs,nyongeza,s,matilaba,udhibiti,hudhurio,NA,sdfdsf,NA,1,NA,NA,NA,NA,NA,NA,NA,NA,NA,NA,NA,NA,NA,NA,NA,NA,NA,NA,NA
c7405,"""Falsch""-Screen",canvas.Screen,3_0_1_0_1_1_2,NA,NA,timeout,5001.508,192788.2,192779.201,192795.71,197780.638,197782.7,2023-04-21T11:45:40Z,197797.218,NULL,Zuwachs,nyongeza,s,matilaba,udhibiti,hudhurio,NA,sdfdsf,0,1,NA,NA,NA,NA,NA,NA,NA,NA,NA,NA,NA,NA,NA,NA,NA,NA,NA,NA,NA
c7405,shallow,flow.Sequence,3_0_1_0_1_1,NA,NA,completion,14020.646,183746.2,183743.593,183759.992,197780.638,197783,2023-04-21T11:45:40Z,197797.218,NULL,Zuwachs,nyongeza,s,matilaba,udhibiti,hudhurio,NA,sdfdsf,NA,1,NA,NA,NA,NA,NA,NA,NA,NA,NA,NA,NA,NA,NA,NA,NA,NA,NA,NA,NA
c7405,task,flow.Sequence,3_0_1_0_1,NA,NA,completion,14020.646,183746.1,183743.593,183759.992,197780.638,197783.1,2023-04-21T11:45:40Z,197797.218,NULL,Zuwachs,nyongeza,s,matilaba,udhibiti,hudhurio,NA,sdfdsf,NA,1,NA,NA,NA,NA,NA,NA,NA,NA,NA,NA,NA,NA,NA,NA,NA,NA,NA,NA,NA
c7405,deep,flow.Sequence,3_0_1_0_2_0,NA,NA,skipped,NA,197783.4,NA,NA,197780.638,197783.6,2023-04-21T11:45:40Z,197797.218,NULL,Körper,kiwiliwili,s,mapambano,mpatanishi,kiolezo,NA,sdfdsf,NA,1,NA,NA,NA,NA,NA,NA,NA,NA,NA,NA,NA,NA,NA,NA,NA,NA,NA,NA,NA
c7405,Shallow Question,html.Page,3_0_1_0_2_1_0,NA,NA,form submission,2661.1820000022,197783.7,197780.638,197797.218,200458.4,200458.6,2023-04-21T11:45:43Z,200481.571,NULL,Körper,kiwiliwili,s,mapambano,mpatanishi,kiolezo,kiwiliwili,NA,NA,1,NA,NA,NA,NA,NA,NA,NA,NA,NA,NA,NA,NA,NA,NA,NA,NA,NA,NA,NA
c7405,"""Richtig""-Screen",canvas.Screen,3_0_1_0_2_1_1,NA,NA,timeout,5001.022,200460.3,200448.146,200481.571,205466.298,205468.2,2023-04-21T11:45:48Z,205482.593,NULL,Körper,kiwiliwili,s,mapambano,mpatanishi,kiolezo,NA,sdfdsf,1,1,NA,NA,NA,NA,NA,NA,NA,NA,NA,NA,NA,NA,NA,NA,NA,NA,NA,NA,NA
c7405,"""Falsch""-Screen",canvas.Screen,3_0_1_0_2_1_2,NA,NA,skipped,NA,205471.9,NA,NA,205466.298,205472,2023-04-21T11:45:48Z,205482.593,NULL,Körper,kiwiliwili,s,mapambano,mpatanishi,kiolezo,NA,sdfdsf,NA,1,NA,NA,NA,NA,NA,NA,NA,NA,NA,NA,NA,NA,NA,NA,NA,NA,NA,NA,NA
c7405,shallow,flow.Sequence,3_0_1_0_2_1,NA,NA,completion,7669.08,197783.7,197780.638,197797.218,205466.298,205472.2,2023-04-21T11:45:48Z,205482.593,NULL,Körper,kiwiliwili,s,mapambano,mpatanishi,kiolezo,NA,sdfdsf,NA,1,NA,NA,NA,NA,NA,NA,NA,NA,NA,NA,NA,NA,NA,NA,NA,NA,NA,NA,NA
c7405,task,flow.Sequence,3_0_1_0_2,NA,NA,completion,7669.08,197783.2,197780.638,197797.218,205466.298,205472.3,2023-04-21T11:45:48Z,205482.593,NULL,Körper,kiwiliwili,s,mapambano,mpatanishi,kiolezo,NA,sdfdsf,NA,1,NA,NA,NA,NA,NA,NA,NA,NA,NA,NA,NA,NA,NA,NA,NA,NA,NA,NA,NA
c7405,deep,flow.Sequence,3_0_1_0_3_0,NA,NA,skipped,NA,205472.4,NA,NA,205466.298,205472.4,2023-04-21T11:45:48Z,205482.593,NULL,Übersicht,kilindo,s,mgusano,chipukizi,kulinganisha,NA,sdfdsf,NA,1,NA,NA,NA,NA,NA,NA,NA,NA,NA,NA,NA,NA,NA,NA,NA,NA,NA,NA,NA
c7405,Shallow Question,html.Page,3_0_1_0_3_1_0,NA,NA,form submission,3729.3070000022,205472.5,205466.298,205482.593,209211.9,209212.1,2023-04-21T11:45:52Z,209216.837,NULL,Übersicht,kilindo,s,mgusano,chipukizi,kulinganisha,chipukizi,NA,NA,1,NA,NA,NA,NA,NA,NA,NA,NA,NA,NA,NA,NA,NA,NA,NA,NA,NA,NA,NA
c7405,"""Richtig""-Screen",canvas.Screen,3_0_1_0_3_1_1,NA,NA,skipped,NA,209213.7,NA,NA,209211.9,209213.9,2023-04-21T11:45:52Z,209216.837,NULL,Übersicht,kilindo,s,mgusano,chipukizi,kulinganisha,NA,sdfdsf,NA,1,NA,NA,NA,NA,NA,NA,NA,NA,NA,NA,NA,NA,NA,NA,NA,NA,NA,NA,NA
c7405,"""Falsch""-Screen",canvas.Screen,3_0_1_0_3_1_2,NA,NA,timeout,5001.698,209214.3,209200.263,209216.837,214201.777,214203.5,2023-04-21T11:45:57Z,214218.535,NULL,Übersicht,kilindo,s,mgusano,chipukizi,kulinganisha,NA,sdfdsf,0,1,NA,NA,NA,NA,NA,NA,NA,NA,NA,NA,NA,NA,NA,NA,NA,NA,NA,NA,NA
c7405,shallow,flow.Sequence,3_0_1_0_3_1,NA,NA,completion,8719.184,205472.5,205466.298,205482.593,214201.777,214203.8,2023-04-21T11:45:57Z,214218.535,NULL,Übersicht,kilindo,s,mgusano,chipukizi,kulinganisha,NA,sdfdsf,NA,1,NA,NA,NA,NA,NA,NA,NA,NA,NA,NA,NA,NA,NA,NA,NA,NA,NA,NA,NA
c7405,task,flow.Sequence,3_0_1_0_3,NA,NA,completion,8719.184,205472.4,205466.298,205482.593,214201.777,214204,2023-04-21T11:45:57Z,214218.535,NULL,Übersicht,kilindo,s,mgusano,chipukizi,kulinganisha,NA,sdfdsf,NA,1,NA,NA,NA,NA,NA,NA,NA,NA,NA,NA,NA,NA,NA,NA,NA,NA,NA,NA,NA
c7405,Deep Question,html.Page,3_0_1_0_4_0_0,NA,NA,form submission,5361.7650000007,214204.1,214201.777,214218.535,219580.3,219580.5,2023-04-21T11:46:02Z,219586.325,NULL,Vorsorge,tahadhari,d,NA,NA,NA,mahad,NA,NA,1,NA,NA,NA,NA,NA,NA,NA,NA,NA,NA,NA,NA,NA,NA,NA,NA,NA,NA,NA
c7405,"""Richtig""-Screen",canvas.Screen,3_0_1_0_4_0_1,NA,NA,skipped,NA,219582.5,NA,NA,219580.3,219582.6,2023-04-21T11:46:02Z,219586.325,NULL,Vorsorge,tahadhari,d,NA,NA,NA,NA,sdfdsf,NA,1,NA,NA,NA,NA,NA,NA,NA,NA,NA,NA,NA,NA,NA,NA,NA,NA,NA,NA,NA
c7405,"""Falsch""-Screen",canvas.Screen,3_0_1_0_4_0_2,NA,NA,timeout,5001.565,219583.1,219569.809,219586.325,224571.397,224573.3,2023-04-21T11:46:07Z,224587.89,NULL,Vorsorge,tahadhari,d,NA,NA,NA,NA,sdfdsf,0,1,NA,NA,NA,NA,NA,NA,NA,NA,NA,NA,NA,NA,NA,NA,NA,NA,NA,NA,NA
c7405,deep,flow.Sequence,3_0_1_0_4_0,NA,NA,completion,10352.862,214204,214201.777,214218.535,224571.397,224573.5,2023-04-21T11:46:07Z,224587.89,NULL,Vorsorge,tahadhari,d,NA,NA,NA,NA,sdfdsf,NA,1,NA,NA,NA,NA,NA,NA,NA,NA,NA,NA,NA,NA,NA,NA,NA,NA,NA,NA,NA
c7405,shallow,flow.Sequence,3_0_1_0_4_1,NA,NA,skipped,NA,224573.6,NA,NA,224571.397,224573.7,2023-04-21T11:46:07Z,224587.89,NULL,Vorsorge,tahadhari,d,NA,NA,NA,NA,sdfdsf,NA,1,NA,NA,NA,NA,NA,NA,NA,NA,NA,NA,NA,NA,NA,NA,NA,NA,NA,NA,NA
c7405,task,flow.Sequence,3_0_1_0_4,NA,NA,completion,10352.862,214204,214201.777,214218.535,224571.397,224573.8,2023-04-21T11:46:07Z,224587.89,NULL,Vorsorge,tahadhari,d,NA,NA,NA,NA,sdfdsf,NA,1,NA,NA,NA,NA,NA,NA,NA,NA,NA,NA,NA,NA,NA,NA,NA,NA,NA,NA,NA
c7405,deep,flow.Sequence,3_0_1_0_5_0,NA,NA,skipped,NA,224573.9,NA,NA,224571.397,224574,2023-04-21T11:46:07Z,224587.89,NULL,Symbol,kielezo,s,kinyume,nderemo,utayari,NA,sdfdsf,NA,1,NA,NA,NA,NA,NA,NA,NA,NA,NA,NA,NA,NA,NA,NA,NA,NA,NA,NA,NA
c7405,Shallow Question,html.Page,3_0_1_0_5_1_0,NA,NA,form submission,6061.2100000015,224574,224571.397,224587.89,230649.1,230649.4,2023-04-21T11:46:13Z,230656.016,NULL,Symbol,kielezo,s,kinyume,nderemo,utayari,kielezo,NA,NA,1,NA,NA,NA,NA,NA,NA,NA,NA,NA,NA,NA,NA,NA,NA,NA,NA,NA,NA,NA
c7405,"""Richtig""-Screen",canvas.Screen,3_0_1_0_5_1_1,NA,NA,timeout,5001.461,230651.1,230639.678,230656.016,235641.063,235643,2023-04-21T11:46:18Z,235657.477,NULL,Symbol,kielezo,s,kinyume,nderemo,utayari,NA,sdfdsf,1,1,NA,NA,NA,NA,NA,NA,NA,NA,NA,NA,NA,NA,NA,NA,NA,NA,NA,NA,NA
c7405,"""Falsch""-Screen",canvas.Screen,3_0_1_0_5_1_2,NA,NA,skipped,NA,235647.3,NA,NA,235641.063,235647.5,2023-04-21T11:46:18Z,235657.477,NULL,Symbol,kielezo,s,kinyume,nderemo,utayari,NA,sdfdsf,NA,1,NA,NA,NA,NA,NA,NA,NA,NA,NA,NA,NA,NA,NA,NA,NA,NA,NA,NA,NA
c7405,shallow,flow.Sequence,3_0_1_0_5_1,NA,NA,completion,11053.173,224574,224571.397,224587.89,235641.063,235647.7,2023-04-21T11:46:18Z,235657.477,NULL,Symbol,kielezo,s,kinyume,nderemo,utayari,NA,sdfdsf,NA,1,NA,NA,NA,NA,NA,NA,NA,NA,NA,NA,NA,NA,NA,NA,NA,NA,NA,NA,NA
c7405,task,flow.Sequence,3_0_1_0_5,NA,NA,completion,11053.173,224573.9,224571.397,224587.89,235641.063,235647.9,2023-04-21T11:46:18Z,235657.477,NULL,Symbol,kielezo,s,kinyume,nderemo,utayari,NA,sdfdsf,NA,1,NA,NA,NA,NA,NA,NA,NA,NA,NA,NA,NA,NA,NA,NA,NA,NA,NA,NA,NA
c7405,Deep Question,html.Page,3_0_1_0_6_0_0,NA,NA,form submission,5208.723000003,235648,235641.063,235657.477,240866.2,240866.4,2023-04-21T11:46:23Z,240875.674,NULL,Konkurrent,mshindani,d,NA,NA,NA,tahad,NA,NA,1,NA,NA,NA,NA,NA,NA,NA,NA,NA,NA,NA,NA,NA,NA,NA,NA,NA,NA,NA
c7405,"""Richtig""-Screen",canvas.Screen,3_0_1_0_6_0_1,NA,NA,skipped,NA,240868.1,NA,NA,240866.2,240868.3,2023-04-21T11:46:23Z,240875.674,NULL,Konkurrent,mshindani,d,NA,NA,NA,NA,sdfdsf,NA,1,NA,NA,NA,NA,NA,NA,NA,NA,NA,NA,NA,NA,NA,NA,NA,NA,NA,NA,NA
c7405,"""Falsch""-Screen",canvas.Screen,3_0_1_0_6_0_2,NA,NA,timeout,5001.337,240868.9,240859.167,240875.674,245860.473,245862.4,2023-04-21T11:46:28Z,245877.011,NULL,Konkurrent,mshindani,d,NA,NA,NA,NA,sdfdsf,0,1,NA,NA,NA,NA,NA,NA,NA,NA,NA,NA,NA,NA,NA,NA,NA,NA,NA,NA,NA
c7405,deep,flow.Sequence,3_0_1_0_6_0,NA,NA,completion,10202.996,235648,235641.063,235657.477,245860.473,245862.6,2023-04-21T11:46:28Z,245877.011,NULL,Konkurrent,mshindani,d,NA,NA,NA,NA,sdfdsf,NA,1,NA,NA,NA,NA,NA,NA,NA,NA,NA,NA,NA,NA,NA,NA,NA,NA,NA,NA,NA
c7405,shallow,flow.Sequence,3_0_1_0_6_1,NA,NA,skipped,NA,245862.7,NA,NA,245860.473,245862.8,2023-04-21T11:46:28Z,245877.011,NULL,Konkurrent,mshindani,d,NA,NA,NA,NA,sdfdsf,NA,1,NA,NA,NA,NA,NA,NA,NA,NA,NA,NA,NA,NA,NA,NA,NA,NA,NA,NA,NA
c7405,task,flow.Sequence,3_0_1_0_6,NA,NA,completion,10202.996,235647.9,235641.063,235657.477,245860.473,245862.9,2023-04-21T11:46:28Z,245877.011,NULL,Konkurrent,mshindani,d,NA,NA,NA,NA,sdfdsf,NA,1,NA,NA,NA,NA,NA,NA,NA,NA,NA,NA,NA,NA,NA,NA,NA,NA,NA,NA,NA
c7405,Deep Question,html.Page,3_0_1_0_7_0_0,NA,NA,form submission,3929.3890000022,245863,245860.473,245877.011,249806.4,249806.7,2023-04-21T11:46:32Z,249811.221,NULL,Lawine,banguko,d,NA,NA,NA,mshindani,NA,NA,1,NA,NA,NA,NA,NA,NA,NA,NA,NA,NA,NA,NA,NA,NA,NA,NA,NA,NA,NA
c7405,"""Richtig""-Screen",canvas.Screen,3_0_1_0_7_0_1,NA,NA,skipped,NA,249808.4,NA,NA,249806.4,249808.6,2023-04-21T11:46:32Z,249811.221,NULL,Lawine,banguko,d,NA,NA,NA,NA,sdfdsf,NA,1,NA,NA,NA,NA,NA,NA,NA,NA,NA,NA,NA,NA,NA,NA,NA,NA,NA,NA,NA
c7405,"""Falsch""-Screen",canvas.Screen,3_0_1_0_7_0_2,NA,NA,timeout,5001.761,249809.2,249794.952,249811.221,254796.029,254797.9,2023-04-21T11:46:37Z,254812.982,NULL,Lawine,banguko,d,NA,NA,NA,NA,sdfdsf,0,1,NA,NA,NA,NA,NA,NA,NA,NA,NA,NA,NA,NA,NA,NA,NA,NA,NA,NA,NA
c7405,deep,flow.Sequence,3_0_1_0_7_0,NA,NA,completion,8919.018,245863,245860.473,245877.011,254796.029,254798.4,2023-04-21T11:46:37Z,254812.982,NULL,Lawine,banguko,d,NA,NA,NA,NA,sdfdsf,NA,1,NA,NA,NA,NA,NA,NA,NA,NA,NA,NA,NA,NA,NA,NA,NA,NA,NA,NA,NA
c7405,shallow,flow.Sequence,3_0_1_0_7_1,NA,NA,skipped,NA,254798.4,NA,NA,254796.029,254798.6,2023-04-21T11:46:37Z,254812.982,NULL,Lawine,banguko,d,NA,NA,NA,NA,sdfdsf,NA,1,NA,NA,NA,NA,NA,NA,NA,NA,NA,NA,NA,NA,NA,NA,NA,NA,NA,NA,NA
c7405,task,flow.Sequence,3_0_1_0_7,NA,NA,completion,8919.018,245863,245860.473,245877.011,254796.029,254798.7,2023-04-21T11:46:37Z,254812.982,NULL,Lawine,banguko,d,NA,NA,NA,NA,sdfdsf,NA,1,NA,NA,NA,NA,NA,NA,NA,NA,NA,NA,NA,NA,NA,NA,NA,NA,NA,NA,NA
c7405,block,flow.Loop,3_0_1_0,NA,NA,completion,80955.484,173832.1,173823.976,173840.545,254796.029,254798.8,2023-04-21T11:46:37Z,254812.982,NULL,NA,NA,NA,NA,NA,NA,NA,sdfdsf,NA,1,NA,NA,NA,NA,NA,NA,NA,NA,NA,NA,NA,NA,NA,NA,NA,NA,NA,NA,NA
c7405,weiter,canvas.Screen,3_0_1_1,sdf,keypress(Space),response,1037.3180000008,254798.9,254796.029,254812.982,255850.3,255851.3,2023-04-21T11:46:38Z,255913.005,NULL,NA,NA,NA,NA,NA,NA,NA,sdfdsf,NA,1,NA,NA,NA,NA,NA,NA,NA,NA,NA,NA,NA,NA,NA,NA,NA,NA,NA,NA,NA
c7405,check continue,flow.Sequence,3_0_1,NA,NA,completion,82009.755000001,173832,173823.976,173840.545,255850.3,255851.6,2023-04-21T11:46:38Z,255913.005,NULL,NA,NA,NA,NA,NA,NA,NA,sdfdsf,NA,1,NA,NA,NA,NA,NA,NA,NA,NA,NA,NA,NA,NA,NA,NA,NA,NA,NA,NA,NA
c7405,deep,flow.Sequence,3_0_2_0_0_0,NA,NA,skipped,NA,255899.9,NA,NA,255850.3,255900,2023-04-21T11:46:38Z,255913.005,NULL,Symbol,kielezo,s,kinyume,nderemo,utayari,NA,sdf,NA,2,NA,NA,NA,NA,NA,NA,NA,NA,NA,NA,NA,NA,NA,NA,NA,NA,NA,NA,NA
c7405,Shallow Question,html.Page,3_0_2_0_0_1_0,NA,NA,form submission,3996.7950000007,255900.2,255896.428,255913.005,259909.8,259910,2023-04-21T11:46:42Z,259913.973,NULL,Symbol,kielezo,s,kinyume,nderemo,utayari,kielezo,NA,NA,2,NA,NA,NA,NA,NA,NA,NA,NA,NA,NA,NA,NA,NA,NA,NA,NA,NA,NA,NA
c7405,"""Richtig""-Screen",canvas.Screen,3_0_2_0_0_1_1,NA,NA,timeout,5001.403,259911.6,259897.639,259913.973,264899.12,264901.2,2023-04-21T11:46:47Z,264915.376,NULL,Symbol,kielezo,s,kinyume,nderemo,utayari,NA,sdf,1,2,NA,NA,NA,NA,NA,NA,NA,NA,NA,NA,NA,NA,NA,NA,NA,NA,NA,NA,NA
c7405,"""Falsch""-Screen",canvas.Screen,3_0_2_0_0_1_2,NA,NA,skipped,NA,264905.1,NA,NA,264899.12,264905.3,2023-04-21T11:46:47Z,264915.376,NULL,Symbol,kielezo,s,kinyume,nderemo,utayari,NA,sdf,NA,2,NA,NA,NA,NA,NA,NA,NA,NA,NA,NA,NA,NA,NA,NA,NA,NA,NA,NA,NA
c7405,shallow,flow.Sequence,3_0_2_0_0_1,NA,NA,completion,8986.115,255900.2,255896.428,255913.005,264899.12,264905.6,2023-04-21T11:46:47Z,264915.376,NULL,Symbol,kielezo,s,kinyume,nderemo,utayari,NA,sdf,NA,2,NA,NA,NA,NA,NA,NA,NA,NA,NA,NA,NA,NA,NA,NA,NA,NA,NA,NA,NA
c7405,task,flow.Sequence,3_0_2_0_0,NA,NA,completion,8986.115,255899.8,255896.428,255913.005,264899.12,264905.7,2023-04-21T11:46:47Z,264915.376,NULL,Symbol,kielezo,s,kinyume,nderemo,utayari,NA,sdf,NA,2,NA,NA,NA,NA,NA,NA,NA,NA,NA,NA,NA,NA,NA,NA,NA,NA,NA,NA,NA
c7405,deep,flow.Sequence,3_0_2_0_1_0,NA,NA,skipped,NA,264905.8,NA,NA,264899.12,264905.9,2023-04-21T11:46:47Z,264915.376,NULL,Körper,kiwiliwili,s,mapambano,mpatanishi,kiolezo,NA,sdf,NA,2,NA,NA,NA,NA,NA,NA,NA,NA,NA,NA,NA,NA,NA,NA,NA,NA,NA,NA,NA
c7405,Shallow Question,html.Page,3_0_2_0_1_1_0,NA,NA,form submission,2351.5240000022,264906,264899.12,264915.376,267266.9,267267.2,2023-04-21T11:46:50Z,267282.94,NULL,Körper,kiwiliwili,s,mapambano,mpatanishi,kiolezo,kiwiliwili,NA,NA,2,NA,NA,NA,NA,NA,NA,NA,NA,NA,NA,NA,NA,NA,NA,NA,NA,NA,NA,NA
c7405,"""Richtig""-Screen",canvas.Screen,3_0_2_0_1_1_1,NA,NA,timeout,5001.598,267267.7,267266.112,267282.94,272267.686,272269.6,2023-04-21T11:46:55Z,272284.538,NULL,Körper,kiwiliwili,s,mapambano,mpatanishi,kiolezo,NA,sdf,1,2,NA,NA,NA,NA,NA,NA,NA,NA,NA,NA,NA,NA,NA,NA,NA,NA,NA,NA,NA
c7405,"""Falsch""-Screen",canvas.Screen,3_0_2_0_1_1_2,NA,NA,skipped,NA,272273.9,NA,NA,272267.686,272274.1,2023-04-21T11:46:55Z,272284.538,NULL,Körper,kiwiliwili,s,mapambano,mpatanishi,kiolezo,NA,sdf,NA,2,NA,NA,NA,NA,NA,NA,NA,NA,NA,NA,NA,NA,NA,NA,NA,NA,NA,NA,NA
c7405,shallow,flow.Sequence,3_0_2_0_1_1,NA,NA,completion,7352.31,264906,264899.12,264915.376,272267.686,272274.3,2023-04-21T11:46:55Z,272284.538,NULL,Körper,kiwiliwili,s,mapambano,mpatanishi,kiolezo,NA,sdf,NA,2,NA,NA,NA,NA,NA,NA,NA,NA,NA,NA,NA,NA,NA,NA,NA,NA,NA,NA,NA
c7405,task,flow.Sequence,3_0_2_0_1,NA,NA,completion,7352.31,264905.8,264899.12,264915.376,272267.686,272274.4,2023-04-21T11:46:55Z,272284.538,NULL,Körper,kiwiliwili,s,mapambano,mpatanishi,kiolezo,NA,sdf,NA,2,NA,NA,NA,NA,NA,NA,NA,NA,NA,NA,NA,NA,NA,NA,NA,NA,NA,NA,NA
c7405,Deep Question,html.Page,3_0_2_0_2_0_0,NA,NA,form submission,9991.8620000022,272274.6,272267.686,272284.538,282276.4,282276.5,2023-04-21T11:47:05Z,282286.721,NULL,Konkurrent,mshindani,d,NA,NA,NA,nyadeznzu,NA,NA,2,NA,NA,NA,NA,NA,NA,NA,NA,NA,NA,NA,NA,NA,NA,NA,NA,NA,NA,NA
c7405,"""Richtig""-Screen",canvas.Screen,3_0_2_0_2_0_1,NA,NA,skipped,NA,282278.3,NA,NA,282276.4,282278.3,2023-04-21T11:47:05Z,282286.721,NULL,Konkurrent,mshindani,d,NA,NA,NA,NA,sdf,NA,2,NA,NA,NA,NA,NA,NA,NA,NA,NA,NA,NA,NA,NA,NA,NA,NA,NA,NA,NA
c7405,"""Falsch""-Screen",canvas.Screen,3_0_2_0_2_0_2,NA,NA,timeout,5001.701,282278.8,282270.158,282286.721,287271.775,287273.7,2023-04-21T11:47:10Z,287288.422,NULL,Konkurrent,mshindani,d,NA,NA,NA,NA,sdf,0,2,NA,NA,NA,NA,NA,NA,NA,NA,NA,NA,NA,NA,NA,NA,NA,NA,NA,NA,NA
c7405,deep,flow.Sequence,3_0_2_0_2_0,NA,NA,completion,14987.237,272274.5,272267.686,272284.538,287271.775,287274,2023-04-21T11:47:10Z,287288.422,NULL,Konkurrent,mshindani,d,NA,NA,NA,NA,sdf,NA,2,NA,NA,NA,NA,NA,NA,NA,NA,NA,NA,NA,NA,NA,NA,NA,NA,NA,NA,NA
c7405,shallow,flow.Sequence,3_0_2_0_2_1,NA,NA,skipped,NA,287274.1,NA,NA,287271.775,287274.2,2023-04-21T11:47:10Z,287288.422,NULL,Konkurrent,mshindani,d,NA,NA,NA,NA,sdf,NA,2,NA,NA,NA,NA,NA,NA,NA,NA,NA,NA,NA,NA,NA,NA,NA,NA,NA,NA,NA
c7405,task,flow.Sequence,3_0_2_0_2,NA,NA,completion,14987.237,272274.5,272267.686,272284.538,287271.775,287274.3,2023-04-21T11:47:10Z,287288.422,NULL,Konkurrent,mshindani,d,NA,NA,NA,NA,sdf,NA,2,NA,NA,NA,NA,NA,NA,NA,NA,NA,NA,NA,NA,NA,NA,NA,NA,NA,NA,NA
c7405,Deep Question,html.Page,3_0_2_0_3_0_0,NA,NA,form submission,5004.6780000015,287274.4,287271.775,287288.422,292293.1,292293.3,2023-04-21T11:47:15Z,292306.14,NULL,System,maongozi,d,NA,NA,NA,tahadani,NA,NA,2,NA,NA,NA,NA,NA,NA,NA,NA,NA,NA,NA,NA,NA,NA,NA,NA,NA,NA,NA
c7405,"""Richtig""-Screen",canvas.Screen,3_0_2_0_3_0_1,NA,NA,skipped,NA,292295.3,NA,NA,292293.1,292295.4,2023-04-21T11:47:15Z,292306.14,NULL,System,maongozi,d,NA,NA,NA,NA,sdf,NA,2,NA,NA,NA,NA,NA,NA,NA,NA,NA,NA,NA,NA,NA,NA,NA,NA,NA,NA,NA
c7405,"""Falsch""-Screen",canvas.Screen,3_0_2_0_3_0_2,NA,NA,timeout,5001.504,292295.9,292289.479,292306.14,297291.17,297292.7,2023-04-21T11:47:20Z,297307.644,NULL,System,maongozi,d,NA,NA,NA,NA,sdf,0,2,NA,NA,NA,NA,NA,NA,NA,NA,NA,NA,NA,NA,NA,NA,NA,NA,NA,NA,NA
c7405,deep,flow.Sequence,3_0_2_0_3_0,NA,NA,completion,10002.748,287274.4,287271.775,287288.422,297291.17,297293,2023-04-21T11:47:20Z,297307.644,NULL,System,maongozi,d,NA,NA,NA,NA,sdf,NA,2,NA,NA,NA,NA,NA,NA,NA,NA,NA,NA,NA,NA,NA,NA,NA,NA,NA,NA,NA
c7405,shallow,flow.Sequence,3_0_2_0_3_1,NA,NA,skipped,NA,297293.2,NA,NA,297291.17,297293.3,2023-04-21T11:47:20Z,297307.644,NULL,System,maongozi,d,NA,NA,NA,NA,sdf,NA,2,NA,NA,NA,NA,NA,NA,NA,NA,NA,NA,NA,NA,NA,NA,NA,NA,NA,NA,NA
c7405,task,flow.Sequence,3_0_2_0_3,NA,NA,completion,10002.748,287274.4,287271.775,287288.422,297291.17,297293.5,2023-04-21T11:47:20Z,297307.644,NULL,System,maongozi,d,NA,NA,NA,NA,sdf,NA,2,NA,NA,NA,NA,NA,NA,NA,NA,NA,NA,NA,NA,NA,NA,NA,NA,NA,NA,NA
c7405,deep,flow.Sequence,3_0_2_0_4_0,NA,NA,skipped,NA,297293.7,NA,NA,297291.17,297293.8,2023-04-21T11:47:20Z,297307.644,NULL,Zuwachs,nyongeza,s,matilaba,udhibiti,hudhurio,NA,sdf,NA,2,NA,NA,NA,NA,NA,NA,NA,NA,NA,NA,NA,NA,NA,NA,NA,NA,NA,NA,NA
c7405,Shallow Question,html.Page,3_0_2_0_4_1_0,NA,NA,form submission,5559.9560000015,297294,297291.17,297307.644,302867.6,302867.8,2023-04-21T11:47:25Z,302875.703,NULL,Zuwachs,nyongeza,s,matilaba,udhibiti,hudhurio,matilaba,NA,NA,2,NA,NA,NA,NA,NA,NA,NA,NA,NA,NA,NA,NA,NA,NA,NA,NA,NA,NA,NA
c7405,"""Richtig""-Screen",canvas.Screen,3_0_2_0_4_1_1,NA,NA,skipped,NA,302869.5,NA,NA,302867.6,302869.7,2023-04-21T11:47:25Z,302875.703,NULL,Zuwachs,nyongeza,s,matilaba,udhibiti,hudhurio,NA,sdf,NA,2,NA,NA,NA,NA,NA,NA,NA,NA,NA,NA,NA,NA,NA,NA,NA,NA,NA,NA,NA
c7405,"""Falsch""-Screen",canvas.Screen,3_0_2_0_4_1_2,NA,NA,timeout,5001.65,302870.1,302859.358,302875.703,307860.702,307862.3,2023-04-21T11:47:30Z,307877.353,NULL,Zuwachs,nyongeza,s,matilaba,udhibiti,hudhurio,NA,sdf,0,2,NA,NA,NA,NA,NA,NA,NA,NA,NA,NA,NA,NA,NA,NA,NA,NA,NA,NA,NA
c7405,shallow,flow.Sequence,3_0_2_0_4_1,NA,NA,completion,10553.058,297293.9,297291.17,297307.644,307860.702,307862.7,2023-04-21T11:47:30Z,307877.353,NULL,Zuwachs,nyongeza,s,matilaba,udhibiti,hudhurio,NA,sdf,NA,2,NA,NA,NA,NA,NA,NA,NA,NA,NA,NA,NA,NA,NA,NA,NA,NA,NA,NA,NA
c7405,task,flow.Sequence,3_0_2_0_4,NA,NA,completion,10553.058,297293.6,297291.17,297307.644,307860.702,307862.8,2023-04-21T11:47:30Z,307877.353,NULL,Zuwachs,nyongeza,s,matilaba,udhibiti,hudhurio,NA,sdf,NA,2,NA,NA,NA,NA,NA,NA,NA,NA,NA,NA,NA,NA,NA,NA,NA,NA,NA,NA,NA
c7405,Deep Question,html.Page,3_0_2_0_5_0_0,NA,NA,form submission,10125.547000002,307862.9,307860.702,307877.353,318002.9,318003.1,2023-04-21T11:47:41Z,318013.211,NULL,Vorsorge,tahadhari,d,NA,NA,NA,mahduno,NA,NA,2,NA,NA,NA,NA,NA,NA,NA,NA,NA,NA,NA,NA,NA,NA,NA,NA,NA,NA,NA
c7405,"""Richtig""-Screen",canvas.Screen,3_0_2_0_5_0_1,NA,NA,skipped,NA,318004.9,NA,NA,318002.9,318005,2023-04-21T11:47:41Z,318013.211,NULL,Vorsorge,tahadhari,d,NA,NA,NA,NA,sdf,NA,2,NA,NA,NA,NA,NA,NA,NA,NA,NA,NA,NA,NA,NA,NA,NA,NA,NA,NA,NA
c7405,"""Falsch""-Screen",canvas.Screen,3_0_2_0_5_0_2,NA,NA,timeout,5001.597,318005.6,317996.809,318013.211,322998.144,322999.9,2023-04-21T11:47:46Z,323014.808,NULL,Vorsorge,tahadhari,d,NA,NA,NA,NA,sdf,0,2,NA,NA,NA,NA,NA,NA,NA,NA,NA,NA,NA,NA,NA,NA,NA,NA,NA,NA,NA
c7405,deep,flow.Sequence,3_0_2_0_5_0,NA,NA,completion,15120.791,307862.9,307860.702,307877.353,322998.144,323000.2,2023-04-21T11:47:46Z,323014.808,NULL,Vorsorge,tahadhari,d,NA,NA,NA,NA,sdf,NA,2,NA,NA,NA,NA,NA,NA,NA,NA,NA,NA,NA,NA,NA,NA,NA,NA,NA,NA,NA
c7405,shallow,flow.Sequence,3_0_2_0_5_1,NA,NA,skipped,NA,323000.3,NA,NA,322998.144,323000.4,2023-04-21T11:47:46Z,323014.808,NULL,Vorsorge,tahadhari,d,NA,NA,NA,NA,sdf,NA,2,NA,NA,NA,NA,NA,NA,NA,NA,NA,NA,NA,NA,NA,NA,NA,NA,NA,NA,NA
c7405,task,flow.Sequence,3_0_2_0_5,NA,NA,completion,15120.791,307862.8,307860.702,307877.353,322998.144,323000.5,2023-04-21T11:47:46Z,323014.808,NULL,Vorsorge,tahadhari,d,NA,NA,NA,NA,sdf,NA,2,NA,NA,NA,NA,NA,NA,NA,NA,NA,NA,NA,NA,NA,NA,NA,NA,NA,NA,NA
c7405,Deep Question,html.Page,3_0_2_0_6_0_0,NA,NA,form submission,6164.692,323000.6,322998.144,323014.808,329179.5,329179.7,2023-04-21T11:47:52Z,329182.862,NULL,Lawine,banguko,d,NA,NA,NA,kalungu,NA,NA,2,NA,NA,NA,NA,NA,NA,NA,NA,NA,NA,NA,NA,NA,NA,NA,NA,NA,NA,NA
c7405,"""Richtig""-Screen",canvas.Screen,3_0_2_0_6_0_1,NA,NA,skipped,NA,329181.7,NA,NA,329179.5,329181.8,2023-04-21T11:47:52Z,329182.862,NULL,Lawine,banguko,d,NA,NA,NA,NA,sdf,NA,2,NA,NA,NA,NA,NA,NA,NA,NA,NA,NA,NA,NA,NA,NA,NA,NA,NA,NA,NA
c7405,"""Falsch""-Screen",canvas.Screen,3_0_2_0_6_0_2,NA,NA,timeout,5001.343,329182.4,329166.246,329182.862,334167.844,334169.6,2023-04-21T11:47:57Z,334184.205,NULL,Lawine,banguko,d,NA,NA,NA,NA,sdf,0,2,NA,NA,NA,NA,NA,NA,NA,NA,NA,NA,NA,NA,NA,NA,NA,NA,NA,NA,NA
c7405,deep,flow.Sequence,3_0_2_0_6_0,NA,NA,completion,11153.036,323000.6,322998.144,323014.808,334167.844,334169.9,2023-04-21T11:47:57Z,334184.205,NULL,Lawine,banguko,d,NA,NA,NA,NA,sdf,NA,2,NA,NA,NA,NA,NA,NA,NA,NA,NA,NA,NA,NA,NA,NA,NA,NA,NA,NA,NA
c7405,shallow,flow.Sequence,3_0_2_0_6_1,NA,NA,skipped,NA,334170,NA,NA,334167.844,334170.1,2023-04-21T11:47:57Z,334184.205,NULL,Lawine,banguko,d,NA,NA,NA,NA,sdf,NA,2,NA,NA,NA,NA,NA,NA,NA,NA,NA,NA,NA,NA,NA,NA,NA,NA,NA,NA,NA
c7405,task,flow.Sequence,3_0_2_0_6,NA,NA,completion,11153.036,323000.6,322998.144,323014.808,334167.844,334170.3,2023-04-21T11:47:57Z,334184.205,NULL,Lawine,banguko,d,NA,NA,NA,NA,sdf,NA,2,NA,NA,NA,NA,NA,NA,NA,NA,NA,NA,NA,NA,NA,NA,NA,NA,NA,NA,NA
c7405,deep,flow.Sequence,3_0_2_0_7_0,NA,NA,skipped,NA,334170.3,NA,NA,334167.844,334170.4,2023-04-21T11:47:57Z,334184.205,NULL,Übersicht,kilindo,s,mgusano,chipukizi,kulinganisha,NA,sdf,NA,2,NA,NA,NA,NA,NA,NA,NA,NA,NA,NA,NA,NA,NA,NA,NA,NA,NA,NA,NA
c7405,Shallow Question,html.Page,3_0_2_0_7_1_0,NA,NA,form submission,4891.1950000022,334170.5,334167.844,334184.205,339075.4,339075.7,2023-04-21T11:48:02Z,339085.608,NULL,Übersicht,kilindo,s,mgusano,chipukizi,kulinganisha,chipukizi,NA,NA,2,NA,NA,NA,NA,NA,NA,NA,NA,NA,NA,NA,NA,NA,NA,NA,NA,NA,NA,NA
c7405,"""Richtig""-Screen",canvas.Screen,3_0_2_0_7_1_1,NA,NA,skipped,NA,339077.5,NA,NA,339075.4,339077.6,2023-04-21T11:48:02Z,339085.608,NULL,Übersicht,kilindo,s,mgusano,chipukizi,kulinganisha,NA,sdf,NA,2,NA,NA,NA,NA,NA,NA,NA,NA,NA,NA,NA,NA,NA,NA,NA,NA,NA,NA,NA
c7405,"""Falsch""-Screen",canvas.Screen,3_0_2_0_7_1_2,NA,NA,timeout,5001.275,339078.2,339069.073,339085.608,344070.575,344072.2,2023-04-21T11:48:07Z,344086.883,NULL,Übersicht,kilindo,s,mgusano,chipukizi,kulinganisha,NA,sdf,0,2,NA,NA,NA,NA,NA,NA,NA,NA,NA,NA,NA,NA,NA,NA,NA,NA,NA,NA,NA
c7405,shallow,flow.Sequence,3_0_2_0_7_1,NA,NA,completion,9886.37,334170.5,334167.844,334184.205,344070.575,344072.5,2023-04-21T11:48:07Z,344086.883,NULL,Übersicht,kilindo,s,mgusano,chipukizi,kulinganisha,NA,sdf,NA,2,NA,NA,NA,NA,NA,NA,NA,NA,NA,NA,NA,NA,NA,NA,NA,NA,NA,NA,NA
c7405,task,flow.Sequence,3_0_2_0_7,NA,NA,completion,9886.37,334170.3,334167.844,334184.205,344070.575,344072.6,2023-04-21T11:48:07Z,344086.883,NULL,Übersicht,kilindo,s,mgusano,chipukizi,kulinganisha,NA,sdf,NA,2,NA,NA,NA,NA,NA,NA,NA,NA,NA,NA,NA,NA,NA,NA,NA,NA,NA,NA,NA
c7405,block,flow.Loop,3_0_2_0,NA,NA,completion,88157.57,255899.8,255896.428,255913.005,344070.575,344072.8,2023-04-21T11:48:07Z,344086.883,NULL,NA,NA,NA,NA,NA,NA,NA,sdf,NA,2,NA,NA,NA,NA,NA,NA,NA,NA,NA,NA,NA,NA,NA,NA,NA,NA,NA,NA,NA
c7405,weiter,canvas.Screen,3_0_2_1,sdf,keypress(Space),response,1367.5170000023,344072.9,344070.575,344086.883,345454.4,345455.3,2023-04-21T11:48:08Z,345503.988,NULL,NA,NA,NA,NA,NA,NA,NA,sdf,NA,2,NA,NA,NA,NA,NA,NA,NA,NA,NA,NA,NA,NA,NA,NA,NA,NA,NA,NA,NA
c7405,check continue,flow.Sequence,3_0_2,NA,NA,completion,89541.395000002,255899.8,255896.428,255913.005,345454.4,345455.6,2023-04-21T11:48:08Z,345503.988,NULL,NA,NA,NA,NA,NA,NA,NA,sdf,NA,2,NA,NA,NA,NA,NA,NA,NA,NA,NA,NA,NA,NA,NA,NA,NA,NA,NA,NA,NA
c7405,Deep Question,html.Page,3_0_3_0_0_0_0,NA,NA,form submission,6267.1120000015,345501.7,345487.591,345503.988,351771.1,351771.2,2023-04-21T11:48:14Z,351772.3,NULL,Vorsorge,tahadhari,d,NA,NA,NA,nadungo,NA,NA,3,NA,NA,NA,NA,NA,NA,NA,NA,NA,NA,NA,NA,NA,NA,NA,NA,NA,NA,NA
c7405,"""Richtig""-Screen",canvas.Screen,3_0_3_0_0_0_1,NA,NA,skipped,NA,351773.1,NA,NA,351771.1,351773.3,2023-04-21T11:48:14Z,351772.3,NULL,Vorsorge,tahadhari,d,NA,NA,NA,NA,qt,NA,3,NA,NA,NA,NA,NA,NA,NA,NA,NA,NA,NA,NA,NA,NA,NA,NA,NA,NA,NA
c7405,"""Falsch""-Screen",canvas.Screen,3_0_3_0_0_0_2,NA,NA,timeout,5001.465,351773.7,351755.797,351772.3,356757.056,356758.1,2023-04-21T11:48:19Z,356773.765,NULL,Vorsorge,tahadhari,d,NA,NA,NA,NA,qt,0,3,NA,NA,NA,NA,NA,NA,NA,NA,NA,NA,NA,NA,NA,NA,NA,NA,NA,NA,NA
c7405,deep,flow.Sequence,3_0_3_0_0_0,NA,NA,completion,11253.068,345501.7,345487.591,345503.988,356757.056,356758.3,2023-04-21T11:48:19Z,356773.765,NULL,Vorsorge,tahadhari,d,NA,NA,NA,NA,qt,NA,3,NA,NA,NA,NA,NA,NA,NA,NA,NA,NA,NA,NA,NA,NA,NA,NA,NA,NA,NA
c7405,shallow,flow.Sequence,3_0_3_0_0_1,NA,NA,skipped,NA,356758.3,NA,NA,356757.056,356758.4,2023-04-21T11:48:19Z,356773.765,NULL,Vorsorge,tahadhari,d,NA,NA,NA,NA,qt,NA,3,NA,NA,NA,NA,NA,NA,NA,NA,NA,NA,NA,NA,NA,NA,NA,NA,NA,NA,NA
c7405,task,flow.Sequence,3_0_3_0_0,NA,NA,completion,11253.068,345501.7,345487.591,345503.988,356757.056,356758.4,2023-04-21T11:48:19Z,356773.765,NULL,Vorsorge,tahadhari,d,NA,NA,NA,NA,qt,NA,3,NA,NA,NA,NA,NA,NA,NA,NA,NA,NA,NA,NA,NA,NA,NA,NA,NA,NA,NA
c7405,Deep Question,html.Page,3_0_3_0_1_0_0,NA,NA,form submission,12976.535000001,356758.6,356757.056,356773.765,369750.3,369750.5,2023-04-21T11:48:32Z,369760.765,NULL,Lawine,banguko,d,NA,NA,NA,nadunko,NA,NA,3,NA,NA,NA,NA,NA,NA,NA,NA,NA,NA,NA,NA,NA,NA,NA,NA,NA,NA,NA
c7405,"""Richtig""-Screen",canvas.Screen,3_0_3_0_1_0_1,NA,NA,skipped,NA,369753,NA,NA,369750.3,369753.1,2023-04-21T11:48:32Z,369760.765,NULL,Lawine,banguko,d,NA,NA,NA,NA,qt,NA,3,NA,NA,NA,NA,NA,NA,NA,NA,NA,NA,NA,NA,NA,NA,NA,NA,NA,NA,NA
c7405,"""Falsch""-Screen",canvas.Screen,3_0_3_0_1_0_2,NA,NA,timeout,5001.196,369753.8,369743.973,369760.765,374745.551,374747.3,2023-04-21T11:48:37Z,374761.961,NULL,Lawine,banguko,d,NA,NA,NA,NA,qt,0,3,NA,NA,NA,NA,NA,NA,NA,NA,NA,NA,NA,NA,NA,NA,NA,NA,NA,NA,NA
c7405,deep,flow.Sequence,3_0_3_0_1_0,NA,NA,completion,17971.786,356758.6,356757.056,356773.765,374745.551,374747.6,2023-04-21T11:48:37Z,374761.961,NULL,Lawine,banguko,d,NA,NA,NA,NA,qt,NA,3,NA,NA,NA,NA,NA,NA,NA,NA,NA,NA,NA,NA,NA,NA,NA,NA,NA,NA,NA
c7405,shallow,flow.Sequence,3_0_3_0_1_1,NA,NA,skipped,NA,374747.7,NA,NA,374745.551,374747.8,2023-04-21T11:48:37Z,374761.961,NULL,Lawine,banguko,d,NA,NA,NA,NA,qt,NA,3,NA,NA,NA,NA,NA,NA,NA,NA,NA,NA,NA,NA,NA,NA,NA,NA,NA,NA,NA
c7405,task,flow.Sequence,3_0_3_0_1,NA,NA,completion,17971.786,356758.5,356757.056,356773.765,374745.551,374747.9,2023-04-21T11:48:37Z,374761.961,NULL,Lawine,banguko,d,NA,NA,NA,NA,qt,NA,3,NA,NA,NA,NA,NA,NA,NA,NA,NA,NA,NA,NA,NA,NA,NA,NA,NA,NA,NA
c7405,deep,flow.Sequence,3_0_3_0_2_0,NA,NA,skipped,NA,374748,NA,NA,374745.551,374748.1,2023-04-21T11:48:37Z,374761.961,NULL,Zuwachs,nyongeza,s,matilaba,udhibiti,hudhurio,NA,qt,NA,3,NA,NA,NA,NA,NA,NA,NA,NA,NA,NA,NA,NA,NA,NA,NA,NA,NA,NA,NA
c7405,Shallow Question,html.Page,3_0_3_0_2_1_0,NA,NA,form submission,7145.9390000022,374748.2,374745.551,374761.961,381907.9,381908.3,2023-04-21T11:48:44Z,381913.835,NULL,Zuwachs,nyongeza,s,matilaba,udhibiti,hudhurio,nyongeza,NA,NA,3,NA,NA,NA,NA,NA,NA,NA,NA,NA,NA,NA,NA,NA,NA,NA,NA,NA,NA,NA
c7405,"""Richtig""-Screen",canvas.Screen,3_0_3_0_2_1_1,NA,NA,timeout,5001.404,381910.2,381897.31,381913.835,386898.577,386900.1,2023-04-21T11:48:49Z,386915.239,NULL,Zuwachs,nyongeza,s,matilaba,udhibiti,hudhurio,NA,qt,1,3,NA,NA,NA,NA,NA,NA,NA,NA,NA,NA,NA,NA,NA,NA,NA,NA,NA,NA,NA
c7405,"""Falsch""-Screen",canvas.Screen,3_0_3_0_2_1_2,NA,NA,skipped,NA,386904.3,NA,NA,386898.577,386904.6,2023-04-21T11:48:49Z,386915.239,NULL,Zuwachs,nyongeza,s,matilaba,udhibiti,hudhurio,NA,qt,NA,3,NA,NA,NA,NA,NA,NA,NA,NA,NA,NA,NA,NA,NA,NA,NA,NA,NA,NA,NA
c7405,shallow,flow.Sequence,3_0_3_0_2_1,NA,NA,completion,12136.616,374748.2,374745.551,374761.961,386898.577,386904.8,2023-04-21T11:48:49Z,386915.239,NULL,Zuwachs,nyongeza,s,matilaba,udhibiti,hudhurio,NA,qt,NA,3,NA,NA,NA,NA,NA,NA,NA,NA,NA,NA,NA,NA,NA,NA,NA,NA,NA,NA,NA
c7405,task,flow.Sequence,3_0_3_0_2,NA,NA,completion,12136.616,374748,374745.551,374761.961,386898.577,386905,2023-04-21T11:48:49Z,386915.239,NULL,Zuwachs,nyongeza,s,matilaba,udhibiti,hudhurio,NA,qt,NA,3,NA,NA,NA,NA,NA,NA,NA,NA,NA,NA,NA,NA,NA,NA,NA,NA,NA,NA,NA
c7405,deep,flow.Sequence,3_0_3_0_3_0,NA,NA,skipped,NA,386905.1,NA,NA,386898.577,386905.1,2023-04-21T11:48:49Z,386915.239,NULL,Körper,kiwiliwili,s,mapambano,mpatanishi,kiolezo,NA,qt,NA,3,NA,NA,NA,NA,NA,NA,NA,NA,NA,NA,NA,NA,NA,NA,NA,NA,NA,NA,NA
c7405,Shallow Question,html.Page,3_0_3_0_3_1_0,NA,NA,form submission,2506.461000003,386905.2,386898.577,386915.239,389421.7,389422,2023-04-21T11:48:52Z,389432.934,NULL,Körper,kiwiliwili,s,mapambano,mpatanishi,kiolezo,kiwiliwili,NA,NA,3,NA,NA,NA,NA,NA,NA,NA,NA,NA,NA,NA,NA,NA,NA,NA,NA,NA,NA,NA
c7405,"""Richtig""-Screen",canvas.Screen,3_0_3_0_3_1_1,NA,NA,timeout,5001.095,389422.5,389416.151,389432.934,394417.58,394419,2023-04-21T11:48:57Z,394434.029,NULL,Körper,kiwiliwili,s,mapambano,mpatanishi,kiolezo,NA,qt,1,3,NA,NA,NA,NA,NA,NA,NA,NA,NA,NA,NA,NA,NA,NA,NA,NA,NA,NA,NA
c7405,"""Falsch""-Screen",canvas.Screen,3_0_3_0_3_1_2,NA,NA,skipped,NA,394423.8,NA,NA,394417.58,394424,2023-04-21T11:48:57Z,394434.029,NULL,Körper,kiwiliwili,s,mapambano,mpatanishi,kiolezo,NA,qt,NA,3,NA,NA,NA,NA,NA,NA,NA,NA,NA,NA,NA,NA,NA,NA,NA,NA,NA,NA,NA
c7405,shallow,flow.Sequence,3_0_3_0_3_1,NA,NA,completion,7502.341,386905.2,386898.577,386915.239,394417.58,394424.3,2023-04-21T11:48:57Z,394434.029,NULL,Körper,kiwiliwili,s,mapambano,mpatanishi,kiolezo,NA,qt,NA,3,NA,NA,NA,NA,NA,NA,NA,NA,NA,NA,NA,NA,NA,NA,NA,NA,NA,NA,NA
c7405,task,flow.Sequence,3_0_3_0_3,NA,NA,completion,7502.341,386905,386898.577,386915.239,394417.58,394424.5,2023-04-21T11:48:57Z,394434.029,NULL,Körper,kiwiliwili,s,mapambano,mpatanishi,kiolezo,NA,qt,NA,3,NA,NA,NA,NA,NA,NA,NA,NA,NA,NA,NA,NA,NA,NA,NA,NA,NA,NA,NA
c7405,deep,flow.Sequence,3_0_3_0_4_0,NA,NA,skipped,NA,394424.6,NA,NA,394417.58,394424.7,2023-04-21T11:48:57Z,394434.029,NULL,Symbol,kielezo,s,kinyume,nderemo,utayari,NA,qt,NA,3,NA,NA,NA,NA,NA,NA,NA,NA,NA,NA,NA,NA,NA,NA,NA,NA,NA,NA,NA
c7405,Shallow Question,html.Page,3_0_3_0_4_1_0,NA,NA,form submission,3930.2710000008,394424.7,394417.58,394434.029,398364.3,398364.7,2023-04-21T11:49:01Z,398368.307,NULL,Symbol,kielezo,s,kinyume,nderemo,utayari,kielezo,NA,NA,3,NA,NA,NA,NA,NA,NA,NA,NA,NA,NA,NA,NA,NA,NA,NA,NA,NA,NA,NA
c7405,"""Richtig""-Screen",canvas.Screen,3_0_3_0_4_1_1,NA,NA,timeout,5001.441,398366.5,398351.986,398368.307,403353.147,403355.1,2023-04-21T11:49:06Z,403369.748,NULL,Symbol,kielezo,s,kinyume,nderemo,utayari,NA,qt,1,3,NA,NA,NA,NA,NA,NA,NA,NA,NA,NA,NA,NA,NA,NA,NA,NA,NA,NA,NA
c7405,"""Falsch""-Screen",canvas.Screen,3_0_3_0_4_1_2,NA,NA,skipped,NA,403359.5,NA,NA,403353.147,403359.7,2023-04-21T11:49:06Z,403369.748,NULL,Symbol,kielezo,s,kinyume,nderemo,utayari,NA,qt,NA,3,NA,NA,NA,NA,NA,NA,NA,NA,NA,NA,NA,NA,NA,NA,NA,NA,NA,NA,NA
c7405,shallow,flow.Sequence,3_0_3_0_4_1,NA,NA,completion,8919.118,394424.7,394417.58,394434.029,403353.147,403360.2,2023-04-21T11:49:06Z,403369.748,NULL,Symbol,kielezo,s,kinyume,nderemo,utayari,NA,qt,NA,3,NA,NA,NA,NA,NA,NA,NA,NA,NA,NA,NA,NA,NA,NA,NA,NA,NA,NA,NA
c7405,task,flow.Sequence,3_0_3_0_4,NA,NA,completion,8919.118,394424.5,394417.58,394434.029,403353.147,403360.3,2023-04-21T11:49:06Z,403369.748,NULL,Symbol,kielezo,s,kinyume,nderemo,utayari,NA,qt,NA,3,NA,NA,NA,NA,NA,NA,NA,NA,NA,NA,NA,NA,NA,NA,NA,NA,NA,NA,NA
c7405,Deep Question,html.Page,3_0_3_0_5_0_0,NA,NA,form submission,3685.8520000015,403360.6,403353.147,403369.748,407055.6,407055.8,2023-04-21T11:49:10Z,407070.753,NULL,System,maongozi,d,NA,NA,NA,nadungo,NA,NA,3,NA,NA,NA,NA,NA,NA,NA,NA,NA,NA,NA,NA,NA,NA,NA,NA,NA,NA,NA
c7405,"""Richtig""-Screen",canvas.Screen,3_0_3_0_5_0_1,NA,NA,skipped,NA,407057.6,NA,NA,407055.6,407057.7,2023-04-21T11:49:10Z,407070.753,NULL,System,maongozi,d,NA,NA,NA,NA,qt,NA,3,NA,NA,NA,NA,NA,NA,NA,NA,NA,NA,NA,NA,NA,NA,NA,NA,NA,NA,NA
c7405,"""Falsch""-Screen",canvas.Screen,3_0_3_0_5_0_2,NA,NA,timeout,5001.393,407058.5,407054.386,407070.753,412055.704,412057.4,2023-04-21T11:49:15Z,412072.146,NULL,System,maongozi,d,NA,NA,NA,NA,qt,0,3,NA,NA,NA,NA,NA,NA,NA,NA,NA,NA,NA,NA,NA,NA,NA,NA,NA,NA,NA
c7405,deep,flow.Sequence,3_0_3_0_5_0,NA,NA,completion,8685.956,403360.6,403353.147,403369.748,412055.704,412057.6,2023-04-21T11:49:15Z,412072.146,NULL,System,maongozi,d,NA,NA,NA,NA,qt,NA,3,NA,NA,NA,NA,NA,NA,NA,NA,NA,NA,NA,NA,NA,NA,NA,NA,NA,NA,NA
c7405,shallow,flow.Sequence,3_0_3_0_5_1,NA,NA,skipped,NA,412057.7,NA,NA,412055.704,412057.9,2023-04-21T11:49:15Z,412072.146,NULL,System,maongozi,d,NA,NA,NA,NA,qt,NA,3,NA,NA,NA,NA,NA,NA,NA,NA,NA,NA,NA,NA,NA,NA,NA,NA,NA,NA,NA
c7405,task,flow.Sequence,3_0_3_0_5,NA,NA,completion,8685.956,403360.4,403353.147,403369.748,412055.704,412058,2023-04-21T11:49:15Z,412072.146,NULL,System,maongozi,d,NA,NA,NA,NA,qt,NA,3,NA,NA,NA,NA,NA,NA,NA,NA,NA,NA,NA,NA,NA,NA,NA,NA,NA,NA,NA
c7405,deep,flow.Sequence,3_0_3_0_6_0,NA,NA,skipped,NA,412058.2,NA,NA,412055.704,412058.2,2023-04-21T11:49:15Z,412072.146,NULL,Übersicht,kilindo,s,mgusano,chipukizi,kulinganisha,NA,qt,NA,3,NA,NA,NA,NA,NA,NA,NA,NA,NA,NA,NA,NA,NA,NA,NA,NA,NA,NA,NA
c7405,Shallow Question,html.Page,3_0_3_0_6_1_0,NA,NA,form submission,2961.054000003,412058.3,412055.704,412072.146,415033.2,415033.4,2023-04-21T11:49:18Z,415040.777,NULL,Übersicht,kilindo,s,mgusano,chipukizi,kulinganisha,kilindo,NA,NA,3,NA,NA,NA,NA,NA,NA,NA,NA,NA,NA,NA,NA,NA,NA,NA,NA,NA,NA,NA
c7405,"""Richtig""-Screen",canvas.Screen,3_0_3_0_6_1_1,NA,NA,timeout,5000.31,415035.2,415022.981,415040.777,420024.571,420025.9,2023-04-21T11:49:23Z,420041.087,NULL,Übersicht,kilindo,s,mgusano,chipukizi,kulinganisha,NA,qt,1,3,NA,NA,NA,NA,NA,NA,NA,NA,NA,NA,NA,NA,NA,NA,NA,NA,NA,NA,NA
c7405,"""Falsch""-Screen",canvas.Screen,3_0_3_0_6_1_2,NA,NA,skipped,NA,420029.6,NA,NA,420024.571,420029.8,2023-04-21T11:49:23Z,420041.087,NULL,Übersicht,kilindo,s,mgusano,chipukizi,kulinganisha,NA,qt,NA,3,NA,NA,NA,NA,NA,NA,NA,NA,NA,NA,NA,NA,NA,NA,NA,NA,NA,NA,NA
c7405,shallow,flow.Sequence,3_0_3_0_6_1,NA,NA,completion,7952.425,412058.3,412055.704,412072.146,420024.571,420030,2023-04-21T11:49:23Z,420041.087,NULL,Übersicht,kilindo,s,mgusano,chipukizi,kulinganisha,NA,qt,NA,3,NA,NA,NA,NA,NA,NA,NA,NA,NA,NA,NA,NA,NA,NA,NA,NA,NA,NA,NA
c7405,task,flow.Sequence,3_0_3_0_6,NA,NA,completion,7952.425,412058.1,412055.704,412072.146,420024.571,420030.1,2023-04-21T11:49:23Z,420041.087,NULL,Übersicht,kilindo,s,mgusano,chipukizi,kulinganisha,NA,qt,NA,3,NA,NA,NA,NA,NA,NA,NA,NA,NA,NA,NA,NA,NA,NA,NA,NA,NA,NA,NA
c7405,Deep Question,html.Page,3_0_3_0_7_0_0,NA,NA,form submission,8609.2130000007,420030.3,420024.571,420041.087,428650.3,428650.7,2023-04-21T11:49:31Z,428676.939,NULL,Konkurrent,mshindani,d,NA,NA,NA,tahadnuno,NA,NA,3,NA,NA,NA,NA,NA,NA,NA,NA,NA,NA,NA,NA,NA,NA,NA,NA,NA,NA,NA
c7405,"""Richtig""-Screen",canvas.Screen,3_0_3_0_7_0_1,NA,NA,skipped,NA,428653.1,NA,NA,428650.3,428653.2,2023-04-21T11:49:31Z,428676.939,NULL,Konkurrent,mshindani,d,NA,NA,NA,NA,qt,NA,3,NA,NA,NA,NA,NA,NA,NA,NA,NA,NA,NA,NA,NA,NA,NA,NA,NA,NA,NA
c7405,"""Falsch""-Screen",canvas.Screen,3_0_3_0_7_0_2,NA,NA,timeout,5001.161,428653.9,428659.904,428676.939,433661.408,433662.9,2023-04-21T11:49:36Z,433678.1,NULL,Konkurrent,mshindani,d,NA,NA,NA,NA,qt,0,3,NA,NA,NA,NA,NA,NA,NA,NA,NA,NA,NA,NA,NA,NA,NA,NA,NA,NA,NA
c7405,deep,flow.Sequence,3_0_3_0_7_0,NA,NA,completion,13620.321,420030.3,420024.571,420041.087,433661.408,433663.1,2023-04-21T11:49:36Z,433678.1,NULL,Konkurrent,mshindani,d,NA,NA,NA,NA,qt,NA,3,NA,NA,NA,NA,NA,NA,NA,NA,NA,NA,NA,NA,NA,NA,NA,NA,NA,NA,NA
c7405,shallow,flow.Sequence,3_0_3_0_7_1,NA,NA,skipped,NA,433663.2,NA,NA,433661.408,433663.3,2023-04-21T11:49:36Z,433678.1,NULL,Konkurrent,mshindani,d,NA,NA,NA,NA,qt,NA,3,NA,NA,NA,NA,NA,NA,NA,NA,NA,NA,NA,NA,NA,NA,NA,NA,NA,NA,NA
c7405,task,flow.Sequence,3_0_3_0_7,NA,NA,completion,13620.321,420030.2,420024.571,420041.087,433661.408,433663.4,2023-04-21T11:49:36Z,433678.1,NULL,Konkurrent,mshindani,d,NA,NA,NA,NA,qt,NA,3,NA,NA,NA,NA,NA,NA,NA,NA,NA,NA,NA,NA,NA,NA,NA,NA,NA,NA,NA
c7405,block,flow.Loop,3_0_3_0,NA,NA,completion,88157.42,345501.7,345487.591,345503.988,433661.408,433663.5,2023-04-21T11:49:36Z,433678.1,NULL,NA,NA,NA,NA,NA,NA,NA,qt,NA,3,NA,NA,NA,NA,NA,NA,NA,NA,NA,NA,NA,NA,NA,NA,NA,NA,NA,NA,NA
c7405,weiter,canvas.Screen,3_0_3_1,sdf,keypress(Space),response,1539.600000003,433663.5,433661.408,433678.1,435217.7,435220.9,2023-04-21T11:49:38Z,435278.482,NULL,NA,NA,NA,NA,NA,NA,NA,qt,NA,3,NA,NA,NA,NA,NA,NA,NA,NA,NA,NA,NA,NA,NA,NA,NA,NA,NA,NA,NA
c7405,check continue,flow.Sequence,3_0_3,NA,NA,completion,89713.712000003,345501.6,345487.591,345503.988,435217.7,435221.1,2023-04-21T11:49:38Z,435278.482,NULL,NA,NA,NA,NA,NA,NA,NA,qt,NA,3,NA,NA,NA,NA,NA,NA,NA,NA,NA,NA,NA,NA,NA,NA,NA,NA,NA,NA,NA
c7405,deep,flow.Sequence,3_0_4_0_0_0,NA,NA,skipped,NA,435265.8,NA,NA,435217.7,435265.9,2023-04-21T11:49:38Z,435278.482,NULL,Symbol,kielezo,s,kinyume,nderemo,utayari,NA,sd,NA,4,NA,NA,NA,NA,NA,NA,NA,NA,NA,NA,NA,NA,NA,NA,NA,NA,NA,NA,NA
c7405,Shallow Question,html.Page,3_0_4_0_0_1_0,NA,NA,form submission,6279.3180000007,435266,435261.74,435278.482,441557.8,441558.1,2023-04-21T11:49:44Z,441563.412,NULL,Symbol,kielezo,s,kinyume,nderemo,utayari,kinyume,NA,NA,4,NA,NA,NA,NA,NA,NA,NA,NA,NA,NA,NA,NA,NA,NA,NA,NA,NA,NA,NA
c7405,"""Richtig""-Screen",canvas.Screen,3_0_4_0_0_1_1,NA,NA,skipped,NA,441559.8,NA,NA,441557.8,441559.9,2023-04-21T11:49:44Z,441563.412,NULL,Symbol,kielezo,s,kinyume,nderemo,utayari,NA,sd,NA,4,NA,NA,NA,NA,NA,NA,NA,NA,NA,NA,NA,NA,NA,NA,NA,NA,NA,NA,NA
c7405,"""Falsch""-Screen",canvas.Screen,3_0_4_0_0_1_2,NA,NA,timeout,5001.692,441560.4,441547.314,441563.412,446548.425,446550.2,2023-04-21T11:49:49Z,446565.104,NULL,Symbol,kielezo,s,kinyume,nderemo,utayari,NA,sd,0,4,NA,NA,NA,NA,NA,NA,NA,NA,NA,NA,NA,NA,NA,NA,NA,NA,NA,NA,NA
c7405,shallow,flow.Sequence,3_0_4_0_0_1,NA,NA,completion,11269.943,435266,435261.74,435278.482,446548.425,446550.5,2023-04-21T11:49:49Z,446565.104,NULL,Symbol,kielezo,s,kinyume,nderemo,utayari,NA,sd,NA,4,NA,NA,NA,NA,NA,NA,NA,NA,NA,NA,NA,NA,NA,NA,NA,NA,NA,NA,NA
c7405,task,flow.Sequence,3_0_4_0_0,NA,NA,completion,11269.943,435265.8,435261.74,435278.482,446548.425,446550.6,2023-04-21T11:49:49Z,446565.104,NULL,Symbol,kielezo,s,kinyume,nderemo,utayari,NA,sd,NA,4,NA,NA,NA,NA,NA,NA,NA,NA,NA,NA,NA,NA,NA,NA,NA,NA,NA,NA,NA
c7405,deep,flow.Sequence,3_0_4_0_1_0,NA,NA,skipped,NA,446550.8,NA,NA,446548.425,446550.9,2023-04-21T11:49:49Z,446565.104,NULL,Übersicht,kilindo,s,mgusano,chipukizi,kulinganisha,NA,sd,NA,4,NA,NA,NA,NA,NA,NA,NA,NA,NA,NA,NA,NA,NA,NA,NA,NA,NA,NA,NA
c7405,Shallow Question,html.Page,3_0_4_0_1_1_0,NA,NA,form submission,2074.9960000015,446551,446548.425,446565.104,448640.1,448640.2,2023-04-21T11:49:51Z,448648.85,NULL,Übersicht,kilindo,s,mgusano,chipukizi,kulinganisha,kilindo,NA,NA,4,NA,NA,NA,NA,NA,NA,NA,NA,NA,NA,NA,NA,NA,NA,NA,NA,NA,NA,NA
c7405,"""Richtig""-Screen",canvas.Screen,3_0_4_0_1_1_1,NA,NA,timeout,5001.329,448642,448632.349,448648.85,453633.717,453635.3,2023-04-21T11:49:56Z,453650.179,NULL,Übersicht,kilindo,s,mgusano,chipukizi,kulinganisha,NA,sd,1,4,NA,NA,NA,NA,NA,NA,NA,NA,NA,NA,NA,NA,NA,NA,NA,NA,NA,NA,NA
c7405,"""Falsch""-Screen",canvas.Screen,3_0_4_0_1_1_2,NA,NA,skipped,NA,453639,NA,NA,453633.717,453639.2,2023-04-21T11:49:56Z,453650.179,NULL,Übersicht,kilindo,s,mgusano,chipukizi,kulinganisha,NA,sd,NA,4,NA,NA,NA,NA,NA,NA,NA,NA,NA,NA,NA,NA,NA,NA,NA,NA,NA,NA,NA
c7405,shallow,flow.Sequence,3_0_4_0_1_1,NA,NA,completion,7068.613,446551,446548.425,446565.104,453633.717,453639.4,2023-04-21T11:49:56Z,453650.179,NULL,Übersicht,kilindo,s,mgusano,chipukizi,kulinganisha,NA,sd,NA,4,NA,NA,NA,NA,NA,NA,NA,NA,NA,NA,NA,NA,NA,NA,NA,NA,NA,NA,NA
c7405,task,flow.Sequence,3_0_4_0_1,NA,NA,completion,7068.613,446550.8,446548.425,446565.104,453633.717,453639.6,2023-04-21T11:49:56Z,453650.179,NULL,Übersicht,kilindo,s,mgusano,chipukizi,kulinganisha,NA,sd,NA,4,NA,NA,NA,NA,NA,NA,NA,NA,NA,NA,NA,NA,NA,NA,NA,NA,NA,NA,NA
c7405,Deep Question,html.Page,3_0_4_0_2_0_0,NA,NA,form submission,18532.021000003,453639.7,453633.717,453650.179,472182.2,472182.5,2023-04-21T11:50:15Z,472188.412,NULL,Vorsorge,tahadhari,d,NA,NA,NA,kielezo,NA,NA,4,NA,NA,NA,NA,NA,NA,NA,NA,NA,NA,NA,NA,NA,NA,NA,NA,NA,NA,NA
c7405,"""Richtig""-Screen",canvas.Screen,3_0_4_0_2_0_1,NA,NA,skipped,NA,472184.1,NA,NA,472182.2,472184.2,2023-04-21T11:50:15Z,472188.412,NULL,Vorsorge,tahadhari,d,NA,NA,NA,NA,sd,NA,4,NA,NA,NA,NA,NA,NA,NA,NA,NA,NA,NA,NA,NA,NA,NA,NA,NA,NA,NA
c7405,"""Falsch""-Screen",canvas.Screen,3_0_4_0_2_0_2,NA,NA,timeout,5001.433,472184.6,472171.766,472188.412,477173.152,477174.2,2023-04-21T11:50:20Z,477189.845,NULL,Vorsorge,tahadhari,d,NA,NA,NA,NA,sd,0,4,NA,NA,NA,NA,NA,NA,NA,NA,NA,NA,NA,NA,NA,NA,NA,NA,NA,NA,NA
c7405,deep,flow.Sequence,3_0_4_0_2_0,NA,NA,completion,23522.973,453639.7,453633.717,453650.179,477173.152,477174.5,2023-04-21T11:50:20Z,477189.845,NULL,Vorsorge,tahadhari,d,NA,NA,NA,NA,sd,NA,4,NA,NA,NA,NA,NA,NA,NA,NA,NA,NA,NA,NA,NA,NA,NA,NA,NA,NA,NA
c7405,shallow,flow.Sequence,3_0_4_0_2_1,NA,NA,skipped,NA,477174.6,NA,NA,477173.152,477174.6,2023-04-21T11:50:20Z,477189.845,NULL,Vorsorge,tahadhari,d,NA,NA,NA,NA,sd,NA,4,NA,NA,NA,NA,NA,NA,NA,NA,NA,NA,NA,NA,NA,NA,NA,NA,NA,NA,NA
c7405,task,flow.Sequence,3_0_4_0_2,NA,NA,completion,23522.973,453639.7,453633.717,453650.179,477173.152,477174.7,2023-04-21T11:50:20Z,477189.845,NULL,Vorsorge,tahadhari,d,NA,NA,NA,NA,sd,NA,4,NA,NA,NA,NA,NA,NA,NA,NA,NA,NA,NA,NA,NA,NA,NA,NA,NA,NA,NA
c7405,deep,flow.Sequence,3_0_4_0_3_0,NA,NA,skipped,NA,477174.8,NA,NA,477173.152,477174.8,2023-04-21T11:50:20Z,477189.845,NULL,Körper,kiwiliwili,s,mapambano,mpatanishi,kiolezo,NA,sd,NA,4,NA,NA,NA,NA,NA,NA,NA,NA,NA,NA,NA,NA,NA,NA,NA,NA,NA,NA,NA
c7405,Shallow Question,html.Page,3_0_4_0_3_1_0,NA,NA,form submission,1768.0550000023,477174.9,477173.152,477189.845,478957.9,478958.1,2023-04-21T11:50:22Z,478973.744,NULL,Körper,kiwiliwili,s,mapambano,mpatanishi,kiolezo,kiwiliwili,NA,NA,4,NA,NA,NA,NA,NA,NA,NA,NA,NA,NA,NA,NA,NA,NA,NA,NA,NA,NA,NA
c7405,"""Richtig""-Screen",canvas.Screen,3_0_4_0_3_1_1,NA,NA,timeout,5001.332,478960,478957.084,478973.744,483958.639,483960.4,2023-04-21T11:50:27Z,483975.076,NULL,Körper,kiwiliwili,s,mapambano,mpatanishi,kiolezo,NA,sd,1,4,NA,NA,NA,NA,NA,NA,NA,NA,NA,NA,NA,NA,NA,NA,NA,NA,NA,NA,NA
c7405,"""Falsch""-Screen",canvas.Screen,3_0_4_0_3_1_2,NA,NA,skipped,NA,483964.1,NA,NA,483958.639,483964.3,2023-04-21T11:50:27Z,483975.076,NULL,Körper,kiwiliwili,s,mapambano,mpatanishi,kiolezo,NA,sd,NA,4,NA,NA,NA,NA,NA,NA,NA,NA,NA,NA,NA,NA,NA,NA,NA,NA,NA,NA,NA
c7405,shallow,flow.Sequence,3_0_4_0_3_1,NA,NA,completion,6768.7940000001,477174.9,477173.152,477189.845,483958.639,483964.6,2023-04-21T11:50:27Z,483975.076,NULL,Körper,kiwiliwili,s,mapambano,mpatanishi,kiolezo,NA,sd,NA,4,NA,NA,NA,NA,NA,NA,NA,NA,NA,NA,NA,NA,NA,NA,NA,NA,NA,NA,NA
c7405,task,flow.Sequence,3_0_4_0_3,NA,NA,completion,6768.7940000001,477174.8,477173.152,477189.845,483958.639,483964.7,2023-04-21T11:50:27Z,483975.076,NULL,Körper,kiwiliwili,s,mapambano,mpatanishi,kiolezo,NA,sd,NA,4,NA,NA,NA,NA,NA,NA,NA,NA,NA,NA,NA,NA,NA,NA,NA,NA,NA,NA,NA
c7405,Deep Question,html.Page,3_0_4_0_4_0_0,NA,NA,form submission,20159.924,483964.9,483958.639,483975.076,504135,504135.3,2023-04-21T11:50:47Z,504147.099,NULL,Lawine,banguko,d,NA,NA,NA,nadunko,NA,NA,4,NA,NA,NA,NA,NA,NA,NA,NA,NA,NA,NA,NA,NA,NA,NA,NA,NA,NA,NA
c7405,"""Richtig""-Screen",canvas.Screen,3_0_4_0_4_0_1,NA,NA,skipped,NA,504137.9,NA,NA,504135,504138.1,2023-04-21T11:50:47Z,504147.099,NULL,Lawine,banguko,d,NA,NA,NA,NA,sd,NA,4,NA,NA,NA,NA,NA,NA,NA,NA,NA,NA,NA,NA,NA,NA,NA,NA,NA,NA,NA
c7405,"""Falsch""-Screen",canvas.Screen,3_0_4_0_4_0_2,NA,NA,timeout,5001.695,504138.8,504130.541,504147.099,509132.161,509133.9,2023-04-21T11:50:52Z,509148.794,NULL,Lawine,banguko,d,NA,NA,NA,NA,sd,0,4,NA,NA,NA,NA,NA,NA,NA,NA,NA,NA,NA,NA,NA,NA,NA,NA,NA,NA,NA
c7405,deep,flow.Sequence,3_0_4_0_4_0,NA,NA,completion,25157.085,483964.8,483958.639,483975.076,509132.161,509134.2,2023-04-21T11:50:52Z,509148.794,NULL,Lawine,banguko,d,NA,NA,NA,NA,sd,NA,4,NA,NA,NA,NA,NA,NA,NA,NA,NA,NA,NA,NA,NA,NA,NA,NA,NA,NA,NA
c7405,shallow,flow.Sequence,3_0_4_0_4_1,NA,NA,skipped,NA,509134.3,NA,NA,509132.161,509134.4,2023-04-21T11:50:52Z,509148.794,NULL,Lawine,banguko,d,NA,NA,NA,NA,sd,NA,4,NA,NA,NA,NA,NA,NA,NA,NA,NA,NA,NA,NA,NA,NA,NA,NA,NA,NA,NA
c7405,task,flow.Sequence,3_0_4_0_4,NA,NA,completion,25157.085,483964.8,483958.639,483975.076,509132.161,509134.5,2023-04-21T11:50:52Z,509148.794,NULL,Lawine,banguko,d,NA,NA,NA,NA,sd,NA,4,NA,NA,NA,NA,NA,NA,NA,NA,NA,NA,NA,NA,NA,NA,NA,NA,NA,NA,NA
c7405,Deep Question,html.Page,3_0_4_0_5_0_0,NA,NA,form submission,6602.406000003,509134.6,509132.161,509148.794,515751.2,515751.4,2023-04-21T11:50:58Z,515766.977,NULL,System,maongozi,d,NA,NA,NA,tahadu,NA,NA,4,NA,NA,NA,NA,NA,NA,NA,NA,NA,NA,NA,NA,NA,NA,NA,NA,NA,NA,NA
c7405,"""Richtig""-Screen",canvas.Screen,3_0_4_0_5_0_1,NA,NA,skipped,NA,515753.8,NA,NA,515751.2,515753.9,2023-04-21T11:50:58Z,515766.977,NULL,System,maongozi,d,NA,NA,NA,NA,sd,NA,4,NA,NA,NA,NA,NA,NA,NA,NA,NA,NA,NA,NA,NA,NA,NA,NA,NA,NA,NA
c7405,"""Falsch""-Screen",canvas.Screen,3_0_4_0_5_0_2,NA,NA,timeout,5001.65,515754.5,515750.75,515766.977,520751.957,520753.5,2023-04-21T11:51:03Z,520768.627,NULL,System,maongozi,d,NA,NA,NA,NA,sd,0,4,NA,NA,NA,NA,NA,NA,NA,NA,NA,NA,NA,NA,NA,NA,NA,NA,NA,NA,NA
c7405,deep,flow.Sequence,3_0_4_0_5_0,NA,NA,completion,11603.163,509134.6,509132.161,509148.794,520751.957,520753.9,2023-04-21T11:51:03Z,520768.627,NULL,System,maongozi,d,NA,NA,NA,NA,sd,NA,4,NA,NA,NA,NA,NA,NA,NA,NA,NA,NA,NA,NA,NA,NA,NA,NA,NA,NA,NA
c7405,shallow,flow.Sequence,3_0_4_0_5_1,NA,NA,skipped,NA,520754,NA,NA,520751.957,520754.3,2023-04-21T11:51:03Z,520768.627,NULL,System,maongozi,d,NA,NA,NA,NA,sd,NA,4,NA,NA,NA,NA,NA,NA,NA,NA,NA,NA,NA,NA,NA,NA,NA,NA,NA,NA,NA
c7405,task,flow.Sequence,3_0_4_0_5,NA,NA,completion,11603.163,509134.5,509132.161,509148.794,520751.957,520754.4,2023-04-21T11:51:03Z,520768.627,NULL,System,maongozi,d,NA,NA,NA,NA,sd,NA,4,NA,NA,NA,NA,NA,NA,NA,NA,NA,NA,NA,NA,NA,NA,NA,NA,NA,NA,NA
c7405,Deep Question,html.Page,3_0_4_0_6_0_0,NA,NA,form submission,8215.9730000015,520754.7,520751.957,520768.627,528984.6,528984.8,2023-04-21T11:51:12Z,528987.223,NULL,Konkurrent,mshindani,d,NA,NA,NA,niguzi,NA,NA,4,NA,NA,NA,NA,NA,NA,NA,NA,NA,NA,NA,NA,NA,NA,NA,NA,NA,NA,NA
c7405,"""Richtig""-Screen",canvas.Screen,3_0_4_0_6_0_1,NA,NA,skipped,NA,528986.4,NA,NA,528984.6,528986.5,2023-04-21T11:51:12Z,528987.223,NULL,Konkurrent,mshindani,d,NA,NA,NA,NA,sd,NA,4,NA,NA,NA,NA,NA,NA,NA,NA,NA,NA,NA,NA,NA,NA,NA,NA,NA,NA,NA
c7405,"""Falsch""-Screen",canvas.Screen,3_0_4_0_6_0_2,NA,NA,timeout,5001.46,528986.9,528970.822,528987.223,533972.228,533973.8,2023-04-21T11:51:17Z,533988.683,NULL,Konkurrent,mshindani,d,NA,NA,NA,NA,sd,0,4,NA,NA,NA,NA,NA,NA,NA,NA,NA,NA,NA,NA,NA,NA,NA,NA,NA,NA,NA
c7405,deep,flow.Sequence,3_0_4_0_6_0,NA,NA,completion,13203.601,520754.6,520751.957,520768.627,533972.228,533974.2,2023-04-21T11:51:17Z,533988.683,NULL,Konkurrent,mshindani,d,NA,NA,NA,NA,sd,NA,4,NA,NA,NA,NA,NA,NA,NA,NA,NA,NA,NA,NA,NA,NA,NA,NA,NA,NA,NA
c7405,shallow,flow.Sequence,3_0_4_0_6_1,NA,NA,skipped,NA,533974.3,NA,NA,533972.228,533974.4,2023-04-21T11:51:17Z,533988.683,NULL,Konkurrent,mshindani,d,NA,NA,NA,NA,sd,NA,4,NA,NA,NA,NA,NA,NA,NA,NA,NA,NA,NA,NA,NA,NA,NA,NA,NA,NA,NA
c7405,task,flow.Sequence,3_0_4_0_6,NA,NA,completion,13203.601,520754.5,520751.957,520768.627,533972.228,533974.5,2023-04-21T11:51:17Z,533988.683,NULL,Konkurrent,mshindani,d,NA,NA,NA,NA,sd,NA,4,NA,NA,NA,NA,NA,NA,NA,NA,NA,NA,NA,NA,NA,NA,NA,NA,NA,NA,NA
c7405,deep,flow.Sequence,3_0_4_0_7_0,NA,NA,skipped,NA,533974.6,NA,NA,533972.228,533974.7,2023-04-21T11:51:17Z,533988.683,NULL,Zuwachs,nyongeza,s,matilaba,udhibiti,hudhurio,NA,sd,NA,4,NA,NA,NA,NA,NA,NA,NA,NA,NA,NA,NA,NA,NA,NA,NA,NA,NA,NA,NA
c7405,Shallow Question,html.Page,3_0_4_0_7_1_0,NA,NA,form submission,3221.4170000015,533974.8,533972.228,533988.683,537210.1,537210.5,2023-04-21T11:51:20Z,537223.151,NULL,Zuwachs,nyongeza,s,matilaba,udhibiti,hudhurio,udhibiti,NA,NA,4,NA,NA,NA,NA,NA,NA,NA,NA,NA,NA,NA,NA,NA,NA,NA,NA,NA,NA,NA
c7405,"""Richtig""-Screen",canvas.Screen,3_0_4_0_7_1_1,NA,NA,skipped,NA,537212.4,NA,NA,537210.1,537212.5,2023-04-21T11:51:20Z,537223.151,NULL,Zuwachs,nyongeza,s,matilaba,udhibiti,hudhurio,NA,sd,NA,4,NA,NA,NA,NA,NA,NA,NA,NA,NA,NA,NA,NA,NA,NA,NA,NA,NA,NA,NA
c7405,"""Falsch""-Screen",canvas.Screen,3_0_4_0_7_1_2,NA,NA,timeout,5001.1900000001,537213,537206.425,537223.151,542207.515,542209,2023-04-21T11:51:25Z,542224.341,NULL,Zuwachs,nyongeza,s,matilaba,udhibiti,hudhurio,NA,sd,0,4,NA,NA,NA,NA,NA,NA,NA,NA,NA,NA,NA,NA,NA,NA,NA,NA,NA,NA,NA
c7405,shallow,flow.Sequence,3_0_4_0_7_1,NA,NA,completion,8218.8320000001,533974.8,533972.228,533988.683,542207.515,542209.2,2023-04-21T11:51:25Z,542224.341,NULL,Zuwachs,nyongeza,s,matilaba,udhibiti,hudhurio,NA,sd,NA,4,NA,NA,NA,NA,NA,NA,NA,NA,NA,NA,NA,NA,NA,NA,NA,NA,NA,NA,NA
c7405,task,flow.Sequence,3_0_4_0_7,NA,NA,completion,8218.8320000001,533974.6,533972.228,533988.683,542207.515,542209.3,2023-04-21T11:51:25Z,542224.341,NULL,Zuwachs,nyongeza,s,matilaba,udhibiti,hudhurio,NA,sd,NA,4,NA,NA,NA,NA,NA,NA,NA,NA,NA,NA,NA,NA,NA,NA,NA,NA,NA,NA,NA
c7405,block,flow.Loop,3_0_4_0,NA,NA,completion,106929.033,435265.8,435261.74,435278.482,542207.515,542209.5,2023-04-21T11:51:25Z,542224.341,NULL,NA,NA,NA,NA,NA,NA,NA,sd,NA,4,NA,NA,NA,NA,NA,NA,NA,NA,NA,NA,NA,NA,NA,NA,NA,NA,NA,NA,NA
c7405,weiter,canvas.Screen,3_0_4_1,sdf,keypress(Space),response,1758.4590000007,542209.5,542207.515,542224.341,543982.8,543983.7,2023-04-21T11:51:27Z,544041.301,NULL,NA,NA,NA,NA,NA,NA,NA,sd,NA,4,NA,NA,NA,NA,NA,NA,NA,NA,NA,NA,NA,NA,NA,NA,NA,NA,NA,NA,NA
c7405,check continue,flow.Sequence,3_0_4,NA,NA,completion,108704.318,435265.7,435261.74,435278.482,543982.8,543984,2023-04-21T11:51:27Z,544041.301,NULL,NA,NA,NA,NA,NA,NA,NA,sd,NA,4,NA,NA,NA,NA,NA,NA,NA,NA,NA,NA,NA,NA,NA,NA,NA,NA,NA,NA,NA
c7405,deep,flow.Sequence,3_0_5_0_0_0,NA,NA,skipped,NA,544032.7,NA,NA,543982.8,544033,2023-04-21T11:51:27Z,544041.301,NULL,Körper,kiwiliwili,s,mapambano,mpatanishi,kiolezo,NA,sdf,NA,5,NA,NA,NA,NA,NA,NA,NA,NA,NA,NA,NA,NA,NA,NA,NA,NA,NA,NA,NA
c7405,Shallow Question,html.Page,3_0_5_0_0_1_0,NA,NA,form submission,3616.4990000008,544033.2,544024.947,544041.301,547657.8,547658.1,2023-04-21T11:51:30Z,547659.014,NULL,Körper,kiwiliwili,s,mapambano,mpatanishi,kiolezo,kiwiliwili,NA,NA,5,NA,NA,NA,NA,NA,NA,NA,NA,NA,NA,NA,NA,NA,NA,NA,NA,NA,NA,NA
c7405,"""Richtig""-Screen",canvas.Screen,3_0_5_0_0_1_1,NA,NA,timeout,5001.5140000001,547660,547642.427,547659.014,552643.69,552645.7,2023-04-21T11:51:35Z,552660.528,NULL,Körper,kiwiliwili,s,mapambano,mpatanishi,kiolezo,NA,sdf,1,5,NA,NA,NA,NA,NA,NA,NA,NA,NA,NA,NA,NA,NA,NA,NA,NA,NA,NA,NA
c7405,"""Falsch""-Screen",canvas.Screen,3_0_5_0_0_1_2,NA,NA,skipped,NA,552649.5,NA,NA,552643.69,552649.7,2023-04-21T11:51:35Z,552660.528,NULL,Körper,kiwiliwili,s,mapambano,mpatanishi,kiolezo,NA,sdf,NA,5,NA,NA,NA,NA,NA,NA,NA,NA,NA,NA,NA,NA,NA,NA,NA,NA,NA,NA,NA
c7405,shallow,flow.Sequence,3_0_5_0_0_1,NA,NA,completion,8602.389,544033.1,544024.947,544041.301,552643.69,552650.2,2023-04-21T11:51:35Z,552660.528,NULL,Körper,kiwiliwili,s,mapambano,mpatanishi,kiolezo,NA,sdf,NA,5,NA,NA,NA,NA,NA,NA,NA,NA,NA,NA,NA,NA,NA,NA,NA,NA,NA,NA,NA
c7405,task,flow.Sequence,3_0_5_0_0,NA,NA,completion,8602.389,544032.7,544024.947,544041.301,552643.69,552650.4,2023-04-21T11:51:35Z,552660.528,NULL,Körper,kiwiliwili,s,mapambano,mpatanishi,kiolezo,NA,sdf,NA,5,NA,NA,NA,NA,NA,NA,NA,NA,NA,NA,NA,NA,NA,NA,NA,NA,NA,NA,NA
c7405,Deep Question,html.Page,3_0_5_0_1_0_0,NA,NA,form submission,5669.3720000022,552650.6,552643.69,552660.528,558329.9,558330,2023-04-21T11:51:41Z,558345.341,NULL,System,maongozi,d,NA,NA,NA,tahil,NA,NA,5,NA,NA,NA,NA,NA,NA,NA,NA,NA,NA,NA,NA,NA,NA,NA,NA,NA,NA,NA
c7405,"""Richtig""-Screen",canvas.Screen,3_0_5_0_1_0_1,NA,NA,skipped,NA,558331.7,NA,NA,558329.9,558331.8,2023-04-21T11:51:41Z,558345.341,NULL,System,maongozi,d,NA,NA,NA,NA,sdf,NA,5,NA,NA,NA,NA,NA,NA,NA,NA,NA,NA,NA,NA,NA,NA,NA,NA,NA,NA,NA
c7405,"""Falsch""-Screen",canvas.Screen,3_0_5_0_1_0_2,NA,NA,timeout,5001.298,558332.4,558328.881,558345.341,563329.915,563331.7,2023-04-21T11:51:46Z,563346.639,NULL,System,maongozi,d,NA,NA,NA,NA,sdf,0,5,NA,NA,NA,NA,NA,NA,NA,NA,NA,NA,NA,NA,NA,NA,NA,NA,NA,NA,NA
c7405,deep,flow.Sequence,3_0_5_0_1_0,NA,NA,completion,10669.387,552650.5,552643.69,552660.528,563329.915,563332,2023-04-21T11:51:46Z,563346.639,NULL,System,maongozi,d,NA,NA,NA,NA,sdf,NA,5,NA,NA,NA,NA,NA,NA,NA,NA,NA,NA,NA,NA,NA,NA,NA,NA,NA,NA,NA
c7405,shallow,flow.Sequence,3_0_5_0_1_1,NA,NA,skipped,NA,563332.2,NA,NA,563329.915,563332.3,2023-04-21T11:51:46Z,563346.639,NULL,System,maongozi,d,NA,NA,NA,NA,sdf,NA,5,NA,NA,NA,NA,NA,NA,NA,NA,NA,NA,NA,NA,NA,NA,NA,NA,NA,NA,NA
c7405,task,flow.Sequence,3_0_5_0_1,NA,NA,completion,10669.387,552650.5,552643.69,552660.528,563329.915,563332.5,2023-04-21T11:51:46Z,563346.639,NULL,System,maongozi,d,NA,NA,NA,NA,sdf,NA,5,NA,NA,NA,NA,NA,NA,NA,NA,NA,NA,NA,NA,NA,NA,NA,NA,NA,NA,NA
c7405,Deep Question,html.Page,3_0_5_0_2_0_0,NA,NA,form submission,13092.061000003,563332.7,563329.915,563346.639,576438.7,576439,2023-04-21T11:51:59Z,576450.203,NULL,Vorsorge,tahadhari,d,NA,NA,NA,tahanduza,NA,NA,5,NA,NA,NA,NA,NA,NA,NA,NA,NA,NA,NA,NA,NA,NA,NA,NA,NA,NA,NA
c7405,"""Richtig""-Screen",canvas.Screen,3_0_5_0_2_0_1,NA,NA,skipped,NA,576441.2,NA,NA,576438.7,576441.4,2023-04-21T11:51:59Z,576450.203,NULL,Vorsorge,tahadhari,d,NA,NA,NA,NA,sdf,NA,5,NA,NA,NA,NA,NA,NA,NA,NA,NA,NA,NA,NA,NA,NA,NA,NA,NA,NA,NA
c7405,"""Falsch""-Screen",canvas.Screen,3_0_5_0_2_0_2,NA,NA,timeout,5001.3570000001,576441.8,576433.834,576450.203,581435.172,581437,2023-04-21T11:52:04Z,581451.56,NULL,Vorsorge,tahadhari,d,NA,NA,NA,NA,sdf,0,5,NA,NA,NA,NA,NA,NA,NA,NA,NA,NA,NA,NA,NA,NA,NA,NA,NA,NA,NA
c7405,deep,flow.Sequence,3_0_5_0_2_0,NA,NA,completion,18088.533,563332.6,563329.915,563346.639,581435.172,581437.3,2023-04-21T11:52:04Z,581451.56,NULL,Vorsorge,tahadhari,d,NA,NA,NA,NA,sdf,NA,5,NA,NA,NA,NA,NA,NA,NA,NA,NA,NA,NA,NA,NA,NA,NA,NA,NA,NA,NA
c7405,shallow,flow.Sequence,3_0_5_0_2_1,NA,NA,skipped,NA,581437.3,NA,NA,581435.172,581437.4,2023-04-21T11:52:04Z,581451.56,NULL,Vorsorge,tahadhari,d,NA,NA,NA,NA,sdf,NA,5,NA,NA,NA,NA,NA,NA,NA,NA,NA,NA,NA,NA,NA,NA,NA,NA,NA,NA,NA
c7405,task,flow.Sequence,3_0_5_0_2,NA,NA,completion,18088.533,563332.6,563329.915,563346.639,581435.172,581437.5,2023-04-21T11:52:04Z,581451.56,NULL,Vorsorge,tahadhari,d,NA,NA,NA,NA,sdf,NA,5,NA,NA,NA,NA,NA,NA,NA,NA,NA,NA,NA,NA,NA,NA,NA,NA,NA,NA,NA
c7405,deep,flow.Sequence,3_0_5_0_3_0,NA,NA,skipped,NA,581437.6,NA,NA,581435.172,581437.7,2023-04-21T11:52:04Z,581451.56,NULL,Symbol,kielezo,s,kinyume,nderemo,utayari,NA,sdf,NA,5,NA,NA,NA,NA,NA,NA,NA,NA,NA,NA,NA,NA,NA,NA,NA,NA,NA,NA,NA
c7405,Shallow Question,html.Page,3_0_5_0_3_1_0,NA,NA,form submission,2904.4399999999,581437.7,581435.172,581451.56,584356,584356.2,2023-04-21T11:52:07Z,584369.145,NULL,Symbol,kielezo,s,kinyume,nderemo,utayari,kielezo,NA,NA,5,NA,NA,NA,NA,NA,NA,NA,NA,NA,NA,NA,NA,NA,NA,NA,NA,NA,NA,NA
c7405,"""Richtig""-Screen",canvas.Screen,3_0_5_0_3_1_1,NA,NA,timeout,5001.2879999999,584357.8,584352.784,584369.145,589353.955,589356.1,2023-04-21T11:52:12Z,589370.433,NULL,Symbol,kielezo,s,kinyume,nderemo,utayari,NA,sdf,1,5,NA,NA,NA,NA,NA,NA,NA,NA,NA,NA,NA,NA,NA,NA,NA,NA,NA,NA,NA
c7405,"""Falsch""-Screen",canvas.Screen,3_0_5_0_3_1_2,NA,NA,skipped,NA,589360.7,NA,NA,589353.955,589360.8,2023-04-21T11:52:12Z,589370.433,NULL,Symbol,kielezo,s,kinyume,nderemo,utayari,NA,sdf,NA,5,NA,NA,NA,NA,NA,NA,NA,NA,NA,NA,NA,NA,NA,NA,NA,NA,NA,NA,NA
c7405,shallow,flow.Sequence,3_0_5_0_3_1,NA,NA,completion,7902.3949999999,581437.7,581435.172,581451.56,589353.955,589361.1,2023-04-21T11:52:12Z,589370.433,NULL,Symbol,kielezo,s,kinyume,nderemo,utayari,NA,sdf,NA,5,NA,NA,NA,NA,NA,NA,NA,NA,NA,NA,NA,NA,NA,NA,NA,NA,NA,NA,NA
c7405,task,flow.Sequence,3_0_5_0_3,NA,NA,completion,7902.3949999999,581437.6,581435.172,581451.56,589353.955,589361.2,2023-04-21T11:52:12Z,589370.433,NULL,Symbol,kielezo,s,kinyume,nderemo,utayari,NA,sdf,NA,5,NA,NA,NA,NA,NA,NA,NA,NA,NA,NA,NA,NA,NA,NA,NA,NA,NA,NA,NA
c7405,Deep Question,html.Page,3_0_5_0_4_0_0,NA,NA,form submission,5375.8670000008,589361.4,589353.955,589370.433,594746.3,594746.5,2023-04-21T11:52:17Z,594755.24,NULL,Konkurrent,mshindani,d,NA,NA,NA,ngunko,NA,NA,5,NA,NA,NA,NA,NA,NA,NA,NA,NA,NA,NA,NA,NA,NA,NA,NA,NA,NA,NA
c7405,"""Richtig""-Screen",canvas.Screen,3_0_5_0_4_0_1,NA,NA,skipped,NA,594748.4,NA,NA,594746.3,594748.5,2023-04-21T11:52:17Z,594755.24,NULL,Konkurrent,mshindani,d,NA,NA,NA,NA,sdf,NA,5,NA,NA,NA,NA,NA,NA,NA,NA,NA,NA,NA,NA,NA,NA,NA,NA,NA,NA,NA
c7405,"""Falsch""-Screen",canvas.Screen,3_0_5_0_4_0_2,NA,NA,timeout,5001.334,594748.9,594738.535,594755.24,599740.115,599741.7,2023-04-21T11:52:22Z,599756.574,NULL,Konkurrent,mshindani,d,NA,NA,NA,NA,sdf,0,5,NA,NA,NA,NA,NA,NA,NA,NA,NA,NA,NA,NA,NA,NA,NA,NA,NA,NA,NA
c7405,deep,flow.Sequence,3_0_5_0_4_0,NA,NA,completion,10369.682,589361.3,589353.955,589370.433,599740.115,599741.9,2023-04-21T11:52:22Z,599756.574,NULL,Konkurrent,mshindani,d,NA,NA,NA,NA,sdf,NA,5,NA,NA,NA,NA,NA,NA,NA,NA,NA,NA,NA,NA,NA,NA,NA,NA,NA,NA,NA
c7405,shallow,flow.Sequence,3_0_5_0_4_1,NA,NA,skipped,NA,599742.1,NA,NA,599740.115,599742.1,2023-04-21T11:52:22Z,599756.574,NULL,Konkurrent,mshindani,d,NA,NA,NA,NA,sdf,NA,5,NA,NA,NA,NA,NA,NA,NA,NA,NA,NA,NA,NA,NA,NA,NA,NA,NA,NA,NA
c7405,task,flow.Sequence,3_0_5_0_4,NA,NA,completion,10369.682,589361.2,589353.955,589370.433,599740.115,599742.2,2023-04-21T11:52:22Z,599756.574,NULL,Konkurrent,mshindani,d,NA,NA,NA,NA,sdf,NA,5,NA,NA,NA,NA,NA,NA,NA,NA,NA,NA,NA,NA,NA,NA,NA,NA,NA,NA,NA
c7405,Deep Question,html.Page,3_0_5_0_5_0_0,NA,NA,form submission,5124.126000003,599742.4,599740.115,599756.574,604880.7,604881,2023-04-21T11:52:27Z,604908.25,NULL,Lawine,banguko,d,NA,NA,NA,niosh,NA,NA,5,NA,NA,NA,NA,NA,NA,NA,NA,NA,NA,NA,NA,NA,NA,NA,NA,NA,NA,NA
c7405,"""Richtig""-Screen",canvas.Screen,3_0_5_0_5_0_1,NA,NA,skipped,NA,604883.2,NA,NA,604880.7,604883.3,2023-04-21T11:52:27Z,604908.25,NULL,Lawine,banguko,d,NA,NA,NA,NA,sdf,NA,5,NA,NA,NA,NA,NA,NA,NA,NA,NA,NA,NA,NA,NA,NA,NA,NA,NA,NA,NA
c7405,"""Falsch""-Screen",canvas.Screen,3_0_5_0_5_0_2,NA,NA,timeout,5001.124,604883.8,604891.27,604908.25,609892.961,609894.9,2023-04-21T11:52:32Z,609909.374,NULL,Lawine,banguko,d,NA,NA,NA,NA,sdf,0,5,NA,NA,NA,NA,NA,NA,NA,NA,NA,NA,NA,NA,NA,NA,NA,NA,NA,NA,NA
c7405,deep,flow.Sequence,3_0_5_0_5_0,NA,NA,completion,10136.387,599742.4,599740.115,599756.574,609892.961,609895.4,2023-04-21T11:52:32Z,609909.374,NULL,Lawine,banguko,d,NA,NA,NA,NA,sdf,NA,5,NA,NA,NA,NA,NA,NA,NA,NA,NA,NA,NA,NA,NA,NA,NA,NA,NA,NA,NA
c7405,shallow,flow.Sequence,3_0_5_0_5_1,NA,NA,skipped,NA,609895.5,NA,NA,609892.961,609895.6,2023-04-21T11:52:32Z,609909.374,NULL,Lawine,banguko,d,NA,NA,NA,NA,sdf,NA,5,NA,NA,NA,NA,NA,NA,NA,NA,NA,NA,NA,NA,NA,NA,NA,NA,NA,NA,NA
c7405,task,flow.Sequence,3_0_5_0_5,NA,NA,completion,10136.387,599742.3,599740.115,599756.574,609892.961,609895.7,2023-04-21T11:52:32Z,609909.374,NULL,Lawine,banguko,d,NA,NA,NA,NA,sdf,NA,5,NA,NA,NA,NA,NA,NA,NA,NA,NA,NA,NA,NA,NA,NA,NA,NA,NA,NA,NA
c7405,deep,flow.Sequence,3_0_5_0_6_0,NA,NA,skipped,NA,609895.8,NA,NA,609892.961,609896,2023-04-21T11:52:32Z,609909.374,NULL,Zuwachs,nyongeza,s,matilaba,udhibiti,hudhurio,NA,sdf,NA,5,NA,NA,NA,NA,NA,NA,NA,NA,NA,NA,NA,NA,NA,NA,NA,NA,NA,NA,NA
c7405,Shallow Question,html.Page,3_0_5_0_6_1_0,NA,NA,form submission,3106.2260000015,609896,609892.961,609909.374,613015.6,613015.9,2023-04-21T11:52:36Z,613026.851,NULL,Zuwachs,nyongeza,s,matilaba,udhibiti,hudhurio,nyongeza,NA,NA,5,NA,NA,NA,NA,NA,NA,NA,NA,NA,NA,NA,NA,NA,NA,NA,NA,NA,NA,NA
c7405,"""Richtig""-Screen",canvas.Screen,3_0_5_0_6_1_1,NA,NA,timeout,5001.294,613017.6,613010.405,613026.851,618011.498,618014.3,2023-04-21T11:52:41Z,618028.145,NULL,Zuwachs,nyongeza,s,matilaba,udhibiti,hudhurio,NA,sdf,1,5,NA,NA,NA,NA,NA,NA,NA,NA,NA,NA,NA,NA,NA,NA,NA,NA,NA,NA,NA
c7405,"""Falsch""-Screen",canvas.Screen,3_0_5_0_6_1_2,NA,NA,skipped,NA,618017.7,NA,NA,618011.498,618018,2023-04-21T11:52:41Z,618028.145,NULL,Zuwachs,nyongeza,s,matilaba,udhibiti,hudhurio,NA,sdf,NA,5,NA,NA,NA,NA,NA,NA,NA,NA,NA,NA,NA,NA,NA,NA,NA,NA,NA,NA,NA
c7405,shallow,flow.Sequence,3_0_5_0_6_1,NA,NA,completion,8102.1240000001,609896,609892.961,609909.374,618011.498,618018.2,2023-04-21T11:52:41Z,618028.145,NULL,Zuwachs,nyongeza,s,matilaba,udhibiti,hudhurio,NA,sdf,NA,5,NA,NA,NA,NA,NA,NA,NA,NA,NA,NA,NA,NA,NA,NA,NA,NA,NA,NA,NA
c7405,task,flow.Sequence,3_0_5_0_6,NA,NA,completion,8102.1240000001,609895.8,609892.961,609909.374,618011.498,618018.4,2023-04-21T11:52:41Z,618028.145,NULL,Zuwachs,nyongeza,s,matilaba,udhibiti,hudhurio,NA,sdf,NA,5,NA,NA,NA,NA,NA,NA,NA,NA,NA,NA,NA,NA,NA,NA,NA,NA,NA,NA,NA
c7405,deep,flow.Sequence,3_0_5_0_7_0,NA,NA,skipped,NA,618018.5,NA,NA,618011.498,618018.5,2023-04-21T11:52:41Z,618028.145,NULL,Übersicht,kilindo,s,mgusano,chipukizi,kulinganisha,NA,sdf,NA,5,NA,NA,NA,NA,NA,NA,NA,NA,NA,NA,NA,NA,NA,NA,NA,NA,NA,NA,NA
c7405,Shallow Question,html.Page,3_0_5_0_7_1_0,NA,NA,form submission,3921.9550000015,618018.6,618011.498,618028.145,621950.1,621950.3,2023-04-21T11:52:45Z,621962.831,NULL,Übersicht,kilindo,s,mgusano,chipukizi,kulinganisha,kilindo,NA,NA,5,NA,NA,NA,NA,NA,NA,NA,NA,NA,NA,NA,NA,NA,NA,NA,NA,NA,NA,NA
c7405,"""Richtig""-Screen",canvas.Screen,3_0_5_0_7_1_1,NA,NA,timeout,5001.333,621951.9,621946.225,621962.831,626947.29,626948.6,2023-04-21T11:52:50Z,626964.164,NULL,Übersicht,kilindo,s,mgusano,chipukizi,kulinganisha,NA,sdf,1,5,NA,NA,NA,NA,NA,NA,NA,NA,NA,NA,NA,NA,NA,NA,NA,NA,NA,NA,NA
c7405,"""Falsch""-Screen",canvas.Screen,3_0_5_0_7_1_2,NA,NA,skipped,NA,626952.6,NA,NA,626947.29,626952.9,2023-04-21T11:52:50Z,626964.164,NULL,Übersicht,kilindo,s,mgusano,chipukizi,kulinganisha,NA,sdf,NA,5,NA,NA,NA,NA,NA,NA,NA,NA,NA,NA,NA,NA,NA,NA,NA,NA,NA,NA,NA
c7405,shallow,flow.Sequence,3_0_5_0_7_1,NA,NA,completion,8919.145,618018.6,618011.498,618028.145,626947.29,626953.1,2023-04-21T11:52:50Z,626964.164,NULL,Übersicht,kilindo,s,mgusano,chipukizi,kulinganisha,NA,sdf,NA,5,NA,NA,NA,NA,NA,NA,NA,NA,NA,NA,NA,NA,NA,NA,NA,NA,NA,NA,NA
c7405,task,flow.Sequence,3_0_5_0_7,NA,NA,completion,8919.145,618018.4,618011.498,618028.145,626947.29,626953.3,2023-04-21T11:52:50Z,626964.164,NULL,Übersicht,kilindo,s,mgusano,chipukizi,kulinganisha,NA,sdf,NA,5,NA,NA,NA,NA,NA,NA,NA,NA,NA,NA,NA,NA,NA,NA,NA,NA,NA,NA,NA
c7405,block,flow.Loop,3_0_5_0,NA,NA,completion,82905.989,544032.6,544024.947,544041.301,626947.29,626953.4,2023-04-21T11:52:50Z,626964.164,NULL,NA,NA,NA,NA,NA,NA,NA,sdf,NA,5,NA,NA,NA,NA,NA,NA,NA,NA,NA,NA,NA,NA,NA,NA,NA,NA,NA,NA,NA
c7405,weiter,canvas.Screen,3_0_5_1,sdf,keypress(Space),response,2035.9360000015,626953.5,626947.29,626964.164,629000.1,629001.1,2023-04-21T11:52:52Z,629064.713,NULL,NA,NA,NA,NA,NA,NA,NA,sdf,NA,5,NA,NA,NA,NA,NA,NA,NA,NA,NA,NA,NA,NA,NA,NA,NA,NA,NA,NA,NA
c7405,check continue,flow.Sequence,3_0_5,NA,NA,completion,84958.799000002,544031.7,544024.947,544041.301,629000.1,629001.3,2023-04-21T11:52:52Z,629064.713,NULL,NA,NA,NA,NA,NA,NA,NA,sdf,NA,5,NA,NA,NA,NA,NA,NA,NA,NA,NA,NA,NA,NA,NA,NA,NA,NA,NA,NA,NA
c7405,deep,flow.Sequence,3_0_6_0_0_0,NA,NA,skipped,NA,629048.4,NA,NA,629000.1,629048.6,2023-04-21T11:52:52Z,629064.713,NULL,Zuwachs,nyongeza,s,matilaba,udhibiti,hudhurio,NA,dfs,NA,6,NA,NA,NA,NA,NA,NA,NA,NA,NA,NA,NA,NA,NA,NA,NA,NA,NA,NA,NA
c7405,Shallow Question,html.Page,3_0_6_0_0_1_0,NA,NA,form submission,4413.787,629048.8,629048.114,629064.713,633478.5,633478.7,2023-04-21T11:52:56Z,633482.304,NULL,Zuwachs,nyongeza,s,matilaba,udhibiti,hudhurio,nyongeza,NA,NA,6,NA,NA,NA,NA,NA,NA,NA,NA,NA,NA,NA,NA,NA,NA,NA,NA,NA,NA,NA
c7405,"""Richtig""-Screen",canvas.Screen,3_0_6_0_0_1_1,NA,NA,timeout,5001.377,633480.5,633465.759,633482.304,638467.27,638470.2,2023-04-21T11:53:01Z,638483.681,NULL,Zuwachs,nyongeza,s,matilaba,udhibiti,hudhurio,NA,dfs,1,6,NA,NA,NA,NA,NA,NA,NA,NA,NA,NA,NA,NA,NA,NA,NA,NA,NA,NA,NA
c7405,"""Falsch""-Screen",canvas.Screen,3_0_6_0_0_1_2,NA,NA,skipped,NA,638474.4,NA,NA,638467.27,638474.7,2023-04-21T11:53:01Z,638483.681,NULL,Zuwachs,nyongeza,s,matilaba,udhibiti,hudhurio,NA,dfs,NA,6,NA,NA,NA,NA,NA,NA,NA,NA,NA,NA,NA,NA,NA,NA,NA,NA,NA,NA,NA
c7405,shallow,flow.Sequence,3_0_6_0_0_1,NA,NA,completion,9402.557,629048.8,629048.114,629064.713,638467.27,638474.9,2023-04-21T11:53:01Z,638483.681,NULL,Zuwachs,nyongeza,s,matilaba,udhibiti,hudhurio,NA,dfs,NA,6,NA,NA,NA,NA,NA,NA,NA,NA,NA,NA,NA,NA,NA,NA,NA,NA,NA,NA,NA
c7405,task,flow.Sequence,3_0_6_0_0,NA,NA,completion,9402.557,629048.4,629048.114,629064.713,638467.27,638475,2023-04-21T11:53:01Z,638483.681,NULL,Zuwachs,nyongeza,s,matilaba,udhibiti,hudhurio,NA,dfs,NA,6,NA,NA,NA,NA,NA,NA,NA,NA,NA,NA,NA,NA,NA,NA,NA,NA,NA,NA,NA
c7405,Deep Question,html.Page,3_0_6_0_1_0_0,NA,NA,form submission,15172.219000002,638475.3,638467.27,638483.681,653655.9,653656.2,2023-04-21T11:53:16Z,653671.281,NULL,Konkurrent,mshindani,d,NA,NA,NA,madonginza,NA,NA,6,NA,NA,NA,NA,NA,NA,NA,NA,NA,NA,NA,NA,NA,NA,NA,NA,NA,NA,NA
c7405,"""Richtig""-Screen",canvas.Screen,3_0_6_0_1_0_1,NA,NA,skipped,NA,653657.9,NA,NA,653655.9,653658,2023-04-21T11:53:16Z,653671.281,NULL,Konkurrent,mshindani,d,NA,NA,NA,NA,dfs,NA,6,NA,NA,NA,NA,NA,NA,NA,NA,NA,NA,NA,NA,NA,NA,NA,NA,NA,NA,NA
c7405,"""Falsch""-Screen",canvas.Screen,3_0_6_0_1_0_2,NA,NA,timeout,5001.4620000001,653658.8,653654.809,653671.281,658655.928,658658.3,2023-04-21T11:53:21Z,658672.743,NULL,Konkurrent,mshindani,d,NA,NA,NA,NA,dfs,0,6,NA,NA,NA,NA,NA,NA,NA,NA,NA,NA,NA,NA,NA,NA,NA,NA,NA,NA,NA
c7405,deep,flow.Sequence,3_0_6_0_1_0,NA,NA,completion,20172.247,638475.1,638467.27,638483.681,658655.928,658658.7,2023-04-21T11:53:21Z,658672.743,NULL,Konkurrent,mshindani,d,NA,NA,NA,NA,dfs,NA,6,NA,NA,NA,NA,NA,NA,NA,NA,NA,NA,NA,NA,NA,NA,NA,NA,NA,NA,NA
c7405,shallow,flow.Sequence,3_0_6_0_1_1,NA,NA,skipped,NA,658658.8,NA,NA,658655.928,658659,2023-04-21T11:53:21Z,658672.743,NULL,Konkurrent,mshindani,d,NA,NA,NA,NA,dfs,NA,6,NA,NA,NA,NA,NA,NA,NA,NA,NA,NA,NA,NA,NA,NA,NA,NA,NA,NA,NA
c7405,task,flow.Sequence,3_0_6_0_1,NA,NA,completion,20172.247,638475.1,638467.27,638483.681,658655.928,658659.1,2023-04-21T11:53:21Z,658672.743,NULL,Konkurrent,mshindani,d,NA,NA,NA,NA,dfs,NA,6,NA,NA,NA,NA,NA,NA,NA,NA,NA,NA,NA,NA,NA,NA,NA,NA,NA,NA,NA
c7405,deep,flow.Sequence,3_0_6_0_2_0,NA,NA,skipped,NA,658659.2,NA,NA,658655.928,658659.3,2023-04-21T11:53:21Z,658672.743,NULL,Übersicht,kilindo,s,mgusano,chipukizi,kulinganisha,NA,dfs,NA,6,NA,NA,NA,NA,NA,NA,NA,NA,NA,NA,NA,NA,NA,NA,NA,NA,NA,NA,NA
c7405,Shallow Question,html.Page,3_0_6_0_2_1_0,NA,NA,form submission,4480.0570000007,658659.4,658655.928,658672.743,663152.8,663153.1,2023-04-21T11:53:26Z,663157.046,NULL,Übersicht,kilindo,s,mgusano,chipukizi,kulinganisha,kilindo,NA,NA,6,NA,NA,NA,NA,NA,NA,NA,NA,NA,NA,NA,NA,NA,NA,NA,NA,NA,NA,NA
c7405,"""Richtig""-Screen",canvas.Screen,3_0_6_0_2_1_1,NA,NA,timeout,5001.403,663154.8,663140.72,663157.046,668142.414,668144.4,2023-04-21T11:53:31Z,668158.449,NULL,Übersicht,kilindo,s,mgusano,chipukizi,kulinganisha,NA,dfs,1,6,NA,NA,NA,NA,NA,NA,NA,NA,NA,NA,NA,NA,NA,NA,NA,NA,NA,NA,NA
c7405,"""Falsch""-Screen",canvas.Screen,3_0_6_0_2_1_2,NA,NA,skipped,NA,668148.7,NA,NA,668142.414,668148.9,2023-04-21T11:53:31Z,668158.449,NULL,Übersicht,kilindo,s,mgusano,chipukizi,kulinganisha,NA,dfs,NA,6,NA,NA,NA,NA,NA,NA,NA,NA,NA,NA,NA,NA,NA,NA,NA,NA,NA,NA,NA
c7405,shallow,flow.Sequence,3_0_6_0_2_1,NA,NA,completion,9469.671,658659.3,658655.928,658672.743,668142.414,668149.1,2023-04-21T11:53:31Z,668158.449,NULL,Übersicht,kilindo,s,mgusano,chipukizi,kulinganisha,NA,dfs,NA,6,NA,NA,NA,NA,NA,NA,NA,NA,NA,NA,NA,NA,NA,NA,NA,NA,NA,NA,NA
c7405,task,flow.Sequence,3_0_6_0_2,NA,NA,completion,9469.671,658659.2,658655.928,658672.743,668142.414,668149.2,2023-04-21T11:53:31Z,668158.449,NULL,Übersicht,kilindo,s,mgusano,chipukizi,kulinganisha,NA,dfs,NA,6,NA,NA,NA,NA,NA,NA,NA,NA,NA,NA,NA,NA,NA,NA,NA,NA,NA,NA,NA
c7405,Deep Question,html.Page,3_0_6_0_3_0_0,NA,NA,form submission,9083.9510000022,668149.3,668142.414,668158.449,677242.4,677242.6,2023-04-21T11:53:40Z,677244.244,NULL,Vorsorge,tahadhari,d,NA,NA,NA,tajgnö,NA,NA,6,NA,NA,NA,NA,NA,NA,NA,NA,NA,NA,NA,NA,NA,NA,NA,NA,NA,NA,NA
c7405,"""Richtig""-Screen",canvas.Screen,3_0_6_0_3_0_1,NA,NA,skipped,NA,677244.6,NA,NA,677242.4,677244.8,2023-04-21T11:53:40Z,677244.244,NULL,Vorsorge,tahadhari,d,NA,NA,NA,NA,dfs,NA,6,NA,NA,NA,NA,NA,NA,NA,NA,NA,NA,NA,NA,NA,NA,NA,NA,NA,NA,NA
c7405,"""Falsch""-Screen",canvas.Screen,3_0_6_0_3_0_2,NA,NA,timeout,5001.6680000001,677245.8,677227.924,677244.244,682229.246,682230.9,2023-04-21T11:53:45Z,682245.912,NULL,Vorsorge,tahadhari,d,NA,NA,NA,NA,dfs,0,6,NA,NA,NA,NA,NA,NA,NA,NA,NA,NA,NA,NA,NA,NA,NA,NA,NA,NA,NA
c7405,deep,flow.Sequence,3_0_6_0_3_0,NA,NA,completion,14070.797,668149.3,668142.414,668158.449,682229.246,682231.2,2023-04-21T11:53:45Z,682245.912,NULL,Vorsorge,tahadhari,d,NA,NA,NA,NA,dfs,NA,6,NA,NA,NA,NA,NA,NA,NA,NA,NA,NA,NA,NA,NA,NA,NA,NA,NA,NA,NA
c7405,shallow,flow.Sequence,3_0_6_0_3_1,NA,NA,skipped,NA,682231.2,NA,NA,682229.246,682231.3,2023-04-21T11:53:45Z,682245.912,NULL,Vorsorge,tahadhari,d,NA,NA,NA,NA,dfs,NA,6,NA,NA,NA,NA,NA,NA,NA,NA,NA,NA,NA,NA,NA,NA,NA,NA,NA,NA,NA
c7405,task,flow.Sequence,3_0_6_0_3,NA,NA,completion,14070.797,668149.2,668142.414,668158.449,682229.246,682231.5,2023-04-21T11:53:45Z,682245.912,NULL,Vorsorge,tahadhari,d,NA,NA,NA,NA,dfs,NA,6,NA,NA,NA,NA,NA,NA,NA,NA,NA,NA,NA,NA,NA,NA,NA,NA,NA,NA,NA
c7405,Deep Question,html.Page,3_0_6_0_4_0_0,NA,NA,form submission,5062.6880000015,682231.5,682229.246,682245.912,687308.6,687308.8,2023-04-21T11:53:50Z,687330.651,NULL,Lawine,banguko,d,NA,NA,NA,tahadhari,NA,NA,6,NA,NA,NA,NA,NA,NA,NA,NA,NA,NA,NA,NA,NA,NA,NA,NA,NA,NA,NA
c7405,"""Richtig""-Screen",canvas.Screen,3_0_6_0_4_0_1,NA,NA,skipped,NA,687310.5,NA,NA,687308.6,687310.5,2023-04-21T11:53:50Z,687330.651,NULL,Lawine,banguko,d,NA,NA,NA,NA,dfs,NA,6,NA,NA,NA,NA,NA,NA,NA,NA,NA,NA,NA,NA,NA,NA,NA,NA,NA,NA,NA
c7405,"""Falsch""-Screen",canvas.Screen,3_0_6_0_4_0_2,NA,NA,timeout,5001.197,687310.9,687313.627,687330.651,692315.201,692317.9,2023-04-21T11:53:55Z,692331.848,NULL,Lawine,banguko,d,NA,NA,NA,NA,dfs,0,6,NA,NA,NA,NA,NA,NA,NA,NA,NA,NA,NA,NA,NA,NA,NA,NA,NA,NA,NA
c7405,deep,flow.Sequence,3_0_6_0_4_0,NA,NA,completion,10069.289,682231.5,682229.246,682245.912,692315.201,692318.1,2023-04-21T11:53:55Z,692331.848,NULL,Lawine,banguko,d,NA,NA,NA,NA,dfs,NA,6,NA,NA,NA,NA,NA,NA,NA,NA,NA,NA,NA,NA,NA,NA,NA,NA,NA,NA,NA
c7405,shallow,flow.Sequence,3_0_6_0_4_1,NA,NA,skipped,NA,692318.2,NA,NA,692315.201,692318.3,2023-04-21T11:53:55Z,692331.848,NULL,Lawine,banguko,d,NA,NA,NA,NA,dfs,NA,6,NA,NA,NA,NA,NA,NA,NA,NA,NA,NA,NA,NA,NA,NA,NA,NA,NA,NA,NA
c7405,task,flow.Sequence,3_0_6_0_4,NA,NA,completion,10069.289,682231.5,682229.246,682245.912,692315.201,692318.5,2023-04-21T11:53:55Z,692331.848,NULL,Lawine,banguko,d,NA,NA,NA,NA,dfs,NA,6,NA,NA,NA,NA,NA,NA,NA,NA,NA,NA,NA,NA,NA,NA,NA,NA,NA,NA,NA
