observation,sender,sender_type,sender_id,response,response_action,ended_on,duration,time_run,time_render,time_show,time_end,time_commit,timestamp,time_switch,german,swahili,enc,distractor1,distractor2,distractor3,response_2,x,correct,distractors,url_vp,url_sess,meta_labjs_version,meta_location,meta_user_agent,meta_platform,meta_language,meta_locale,meta_time_zone,meta_timezone_offset,meta_screen_width,meta_screen_height,meta_scroll_width,meta_scroll_height,meta_window_inner_width,meta_window_inner_height,meta_device_pixel_ratio,meta_labjs_build_flavor,meta_labjs_build_commit
25feb,Introduction delayed retrieval,canvas.Screen,0,weiter,keypress(Space),response,2687,986,1032,1133,3719,3855,2023-04-23T11:05:39Z,3916,NA,NA,NA,NA,NA,NA,NA,NA,NA,NULL,124,4,20.2.4,https://neurocog.fernuni.ch/studies/vweber/delayed/index.html?vp=124&sess=4,"Mozilla/5.0 (Macintosh; Intel Mac OS X 10_15_7) AppleWebKit/605.1.15 (KHTML, like Gecko) Version/16.3 Safari/605.1.15",MacIntel,de-DE,de-DE,Europe/Zurich,-120,1440,900,1271,599,1271,647,2,production,f5b4a49f956347addd546a832a3327688c2c0fef
25feb,Deep Question,html.Page,1_0_0_0,NA,NA,form submission,4295,3858,3887,3916,8211,8211,2023-04-23T11:05:44Z,8254,Kreativität,ubunifu,d,mratibu,mwendelezo,makubaliano,mk,NA,NA,NULL,NA,NA,NA,NA,NA,NA,NA,NA,NA,NA,NA,NA,NA,NA,NA,NA,NA,NA,NA
25feb,Save data screen,canvas.Screen,1_0_0_1,NA,NA,timeout,560,8213,8221,8254,8782,8783,2023-04-23T11:05:44Z,8814,Kreativität,ubunifu,d,mratibu,mwendelezo,makubaliano,NA,NA,0,NULL,NA,NA,NA,NA,NA,NA,NA,NA,NA,NA,NA,NA,NA,NA,NA,NA,NA,NA,NA
25feb,deep,flow.Sequence,1_0_0,NA,NA,completion,4866,3858,3887,3916,8782,8783,2023-04-23T11:05:44Z,8814,Kreativität,ubunifu,d,mratibu,mwendelezo,makubaliano,NA,NA,NA,NULL,NA,NA,NA,NA,NA,NA,NA,NA,NA,NA,NA,NA,NA,NA,NA,NA,NA,NA,NA
25feb,task,flow.Sequence,1_0,NA,NA,completion,4866,3857,3887,3916,8782,8783,2023-04-23T11:05:44Z,8814,Kreativität,ubunifu,d,mratibu,mwendelezo,makubaliano,NA,NA,NA,NULL,NA,NA,NA,NA,NA,NA,NA,NA,NA,NA,NA,NA,NA,NA,NA,NA,NA,NA,NA
25feb,Deep Question,html.Page,1_1_0_0,NA,NA,form submission,10592,8784,8782,8814,19406,19407,2023-04-23T11:05:55Z,19435,Körper,kiwiliwili,s,mapambano,mpatanishi,kiolezo,kiwiliwi,NA,NA,NULL,NA,NA,NA,NA,NA,NA,NA,NA,NA,NA,NA,NA,NA,NA,NA,NA,NA,NA,NA
25feb,Save data screen,canvas.Screen,1_1_0_1,NA,NA,timeout,489,19408,19413,19435,19863,19864,2023-04-23T11:05:55Z,19924,Körper,kiwiliwili,s,mapambano,mpatanishi,kiolezo,NA,NA,0,NULL,NA,NA,NA,NA,NA,NA,NA,NA,NA,NA,NA,NA,NA,NA,NA,NA,NA,NA,NA
25feb,deep,flow.Sequence,1_1_0,NA,NA,completion,11049,8784,8782,8814,19863,19864,2023-04-23T11:05:55Z,19924,Körper,kiwiliwili,s,mapambano,mpatanishi,kiolezo,NA,NA,NA,NULL,NA,NA,NA,NA,NA,NA,NA,NA,NA,NA,NA,NA,NA,NA,NA,NA,NA,NA,NA
25feb,task,flow.Sequence,1_1,NA,NA,completion,11049,8783,8782,8814,19863,19865,2023-04-23T11:05:55Z,19924,Körper,kiwiliwili,s,mapambano,mpatanishi,kiolezo,NA,NA,NA,NULL,NA,NA,NA,NA,NA,NA,NA,NA,NA,NA,NA,NA,NA,NA,NA,NA,NA,NA,NA
25feb,Deep Question,html.Page,1_2_0_0,NA,NA,form submission,3664,19865,19863,19924,23588,23590,2023-04-23T11:05:59Z,23662,System,maongozi,d,chokochoko,nuksani,mitaani,nk,NA,NA,NULL,NA,NA,NA,NA,NA,NA,NA,NA,NA,NA,NA,NA,NA,NA,NA,NA,NA,NA,NA
25feb,Save data screen,canvas.Screen,1_2_0_1,NA,NA,timeout,516,23591,23627,23662,24143,24143,2023-04-23T11:06:00Z,24178,System,maongozi,d,chokochoko,nuksani,mitaani,NA,NA,0,NULL,NA,NA,NA,NA,NA,NA,NA,NA,NA,NA,NA,NA,NA,NA,NA,NA,NA,NA,NA
25feb,deep,flow.Sequence,1_2_0,NA,NA,completion,4219,19865,19863,19924,24143,24143,2023-04-23T11:06:00Z,24178,System,maongozi,d,chokochoko,nuksani,mitaani,NA,NA,NA,NULL,NA,NA,NA,NA,NA,NA,NA,NA,NA,NA,NA,NA,NA,NA,NA,NA,NA,NA,NA
25feb,task,flow.Sequence,1_2,NA,NA,completion,4219,19865,19863,19924,24143,24144,2023-04-23T11:06:00Z,24178,System,maongozi,d,chokochoko,nuksani,mitaani,NA,NA,NA,NULL,NA,NA,NA,NA,NA,NA,NA,NA,NA,NA,NA,NA,NA,NA,NA,NA,NA,NA,NA
25feb,Deep Question,html.Page,1_3_0_0,NA,NA,form submission,4530,24144,24143,24178,28708,28708,2023-04-23T11:06:04Z,28764,Kultur,utamaduni,s,shetani,gerezani,mazingira,mpka,NA,NA,NULL,NA,NA,NA,NA,NA,NA,NA,NA,NA,NA,NA,NA,NA,NA,NA,NA,NA,NA,NA
25feb,Save data screen,canvas.Screen,1_3_0_1,NA,NA,timeout,517,28709,28730,28764,29247,29248,2023-04-23T11:06:05Z,29281,Kultur,utamaduni,s,shetani,gerezani,mazingira,NA,NA,0,NULL,NA,NA,NA,NA,NA,NA,NA,NA,NA,NA,NA,NA,NA,NA,NA,NA,NA,NA,NA
25feb,deep,flow.Sequence,1_3_0,NA,NA,completion,5069,24144,24143,24178,29247,29249,2023-04-23T11:06:05Z,29281,Kultur,utamaduni,s,shetani,gerezani,mazingira,NA,NA,NA,NULL,NA,NA,NA,NA,NA,NA,NA,NA,NA,NA,NA,NA,NA,NA,NA,NA,NA,NA,NA
25feb,task,flow.Sequence,1_3,NA,NA,completion,5069,24144,24143,24178,29247,29249,2023-04-23T11:06:05Z,29281,Kultur,utamaduni,s,shetani,gerezani,mazingira,NA,NA,NA,NULL,NA,NA,NA,NA,NA,NA,NA,NA,NA,NA,NA,NA,NA,NA,NA,NA,NA,NA,NA
25feb,Deep Question,html.Page,1_4_0_0,NA,NA,form submission,2522,29249,29247,29281,31803,31804,2023-04-23T11:06:07Z,31871,Verzögerung,kuchelewa,s,mwakilishi,mwanauchumi,jaribio,m,NA,NA,NULL,NA,NA,NA,NA,NA,NA,NA,NA,NA,NA,NA,NA,NA,NA,NA,NA,NA,NA,NA
25feb,Save data screen,canvas.Screen,1_4_0_1,NA,NA,timeout,492,31804,31837,31871,32328,32329,2023-04-23T11:06:08Z,32363,Verzögerung,kuchelewa,s,mwakilishi,mwanauchumi,jaribio,NA,NA,0,NULL,NA,NA,NA,NA,NA,NA,NA,NA,NA,NA,NA,NA,NA,NA,NA,NA,NA,NA,NA
25feb,deep,flow.Sequence,1_4_0,NA,NA,completion,3047,29249,29247,29281,32328,32329,2023-04-23T11:06:08Z,32363,Verzögerung,kuchelewa,s,mwakilishi,mwanauchumi,jaribio,NA,NA,NA,NULL,NA,NA,NA,NA,NA,NA,NA,NA,NA,NA,NA,NA,NA,NA,NA,NA,NA,NA,NA
25feb,task,flow.Sequence,1_4,NA,NA,completion,3047,29249,29247,29281,32328,32330,2023-04-23T11:06:08Z,32363,Verzögerung,kuchelewa,s,mwakilishi,mwanauchumi,jaribio,NA,NA,NA,NULL,NA,NA,NA,NA,NA,NA,NA,NA,NA,NA,NA,NA,NA,NA,NA,NA,NA,NA,NA
25feb,Deep Question,html.Page,1_5_0_0,NA,NA,form submission,2241,32331,32328,32363,34604,34605,2023-04-23T11:06:10Z,34648,Kontrolle,kudhibiti,s,mbinguni,kufunga,utegemezi,f,NA,NA,NULL,NA,NA,NA,NA,NA,NA,NA,NA,NA,NA,NA,NA,NA,NA,NA,NA,NA,NA,NA
25feb,Save data screen,canvas.Screen,1_5_0_1,NA,NA,timeout,509,34606,34614,34648,35123,35124,2023-04-23T11:06:11Z,35157,Kontrolle,kudhibiti,s,mbinguni,kufunga,utegemezi,NA,NA,0,NULL,NA,NA,NA,NA,NA,NA,NA,NA,NA,NA,NA,NA,NA,NA,NA,NA,NA,NA,NA
25feb,deep,flow.Sequence,1_5_0,NA,NA,completion,2760,32330,32328,32363,35123,35124,2023-04-23T11:06:11Z,35157,Kontrolle,kudhibiti,s,mbinguni,kufunga,utegemezi,NA,NA,NA,NULL,NA,NA,NA,NA,NA,NA,NA,NA,NA,NA,NA,NA,NA,NA,NA,NA,NA,NA,NA
25feb,task,flow.Sequence,1_5,NA,NA,completion,2760,32330,32328,32363,35123,35124,2023-04-23T11:06:11Z,35157,Kontrolle,kudhibiti,s,mbinguni,kufunga,utegemezi,NA,NA,NA,NULL,NA,NA,NA,NA,NA,NA,NA,NA,NA,NA,NA,NA,NA,NA,NA,NA,NA,NA,NA
25feb,Deep Question,html.Page,1_6_0_0,NA,NA,form submission,5616,35124,35123,35157,40773,40773,2023-04-23T11:06:16Z,40822,Angreifer,mshambulizi,d,kitengo,tasinia,usafirishaji,f,NA,NA,NULL,NA,NA,NA,NA,NA,NA,NA,NA,NA,NA,NA,NA,NA,NA,NA,NA,NA,NA,NA
25feb,Save data screen,canvas.Screen,1_6_0_1,NA,NA,timeout,507,40774,40787,40822,41294,41294,2023-04-23T11:06:17Z,41329,Angreifer,mshambulizi,d,kitengo,tasinia,usafirishaji,NA,NA,0,NULL,NA,NA,NA,NA,NA,NA,NA,NA,NA,NA,NA,NA,NA,NA,NA,NA,NA,NA,NA
25feb,deep,flow.Sequence,1_6_0,NA,NA,completion,6137,35124,35123,35157,41294,41295,2023-04-23T11:06:17Z,41329,Angreifer,mshambulizi,d,kitengo,tasinia,usafirishaji,NA,NA,NA,NULL,NA,NA,NA,NA,NA,NA,NA,NA,NA,NA,NA,NA,NA,NA,NA,NA,NA,NA,NA
25feb,task,flow.Sequence,1_6,NA,NA,completion,6137,35124,35123,35157,41294,41295,2023-04-23T11:06:17Z,41329,Angreifer,mshambulizi,d,kitengo,tasinia,usafirishaji,NA,NA,NA,NULL,NA,NA,NA,NA,NA,NA,NA,NA,NA,NA,NA,NA,NA,NA,NA,NA,NA,NA,NA
25feb,Deep Question,html.Page,1_7_0_0,NA,NA,form submission,2145,41295,41294,41329,43474,43475,2023-04-23T11:06:19Z,43531,Abrechnung,uhasibu,s,kusahihisha,mpambano,mashambulizi,k,NA,NA,NULL,NA,NA,NA,NA,NA,NA,NA,NA,NA,NA,NA,NA,NA,NA,NA,NA,NA,NA,NA
25feb,Save data screen,canvas.Screen,1_7_0_1,NA,NA,timeout,509,43476,43498,43531,44006,44007,2023-04-23T11:06:19Z,44040,Abrechnung,uhasibu,s,kusahihisha,mpambano,mashambulizi,NA,NA,0,NULL,NA,NA,NA,NA,NA,NA,NA,NA,NA,NA,NA,NA,NA,NA,NA,NA,NA,NA,NA
25feb,deep,flow.Sequence,1_7_0,NA,NA,completion,2677,41295,41294,41329,44006,44008,2023-04-23T11:06:19Z,44040,Abrechnung,uhasibu,s,kusahihisha,mpambano,mashambulizi,NA,NA,NA,NULL,NA,NA,NA,NA,NA,NA,NA,NA,NA,NA,NA,NA,NA,NA,NA,NA,NA,NA,NA
25feb,task,flow.Sequence,1_7,NA,NA,completion,2677,41295,41294,41329,44006,44008,2023-04-23T11:06:19Z,44040,Abrechnung,uhasibu,s,kusahihisha,mpambano,mashambulizi,NA,NA,NA,NULL,NA,NA,NA,NA,NA,NA,NA,NA,NA,NA,NA,NA,NA,NA,NA,NA,NA,NA,NA
25feb,Deep Question,html.Page,1_8_0_0,NA,NA,form submission,4250,44008,44006,44040,48290,48290,2023-04-23T11:06:24Z,48337,Prüfung,mtihani,d,mkulima,mtizamo,ufumbuzi,mpga,NA,NA,NULL,NA,NA,NA,NA,NA,NA,NA,NA,NA,NA,NA,NA,NA,NA,NA,NA,NA,NA,NA
25feb,Save data screen,canvas.Screen,1_8_0_1,NA,NA,timeout,497,48291,48302,48337,48803,48803,2023-04-23T11:06:24Z,48834,Prüfung,mtihani,d,mkulima,mtizamo,ufumbuzi,NA,NA,0,NULL,NA,NA,NA,NA,NA,NA,NA,NA,NA,NA,NA,NA,NA,NA,NA,NA,NA,NA,NA
25feb,deep,flow.Sequence,1_8_0,NA,NA,completion,4763,44008,44006,44040,48803,48804,2023-04-23T11:06:24Z,48834,Prüfung,mtihani,d,mkulima,mtizamo,ufumbuzi,NA,NA,NA,NULL,NA,NA,NA,NA,NA,NA,NA,NA,NA,NA,NA,NA,NA,NA,NA,NA,NA,NA,NA
25feb,task,flow.Sequence,1_8,NA,NA,completion,4763,44008,44006,44040,48803,48804,2023-04-23T11:06:24Z,48834,Prüfung,mtihani,d,mkulima,mtizamo,ufumbuzi,NA,NA,NA,NULL,NA,NA,NA,NA,NA,NA,NA,NA,NA,NA,NA,NA,NA,NA,NA,NA,NA,NA,NA
25feb,Deep Question,html.Page,1_9_0_0,NA,NA,form submission,5486,48804,48803,48834,54320,54320,2023-04-23T11:06:30Z,54388,Sänger,mwimbaji,d,msichana,shughuli,mshirika,k,NA,NA,NULL,NA,NA,NA,NA,NA,NA,NA,NA,NA,NA,NA,NA,NA,NA,NA,NA,NA,NA,NA
25feb,Save data screen,canvas.Screen,1_9_0_1,NA,NA,timeout,508,54321,54350,54388,54867,54870,2023-04-23T11:06:30Z,54896,Sänger,mwimbaji,d,msichana,shughuli,mshirika,NA,NA,0,NULL,NA,NA,NA,NA,NA,NA,NA,NA,NA,NA,NA,NA,NA,NA,NA,NA,NA,NA,NA
25feb,deep,flow.Sequence,1_9_0,NA,NA,completion,6033,48804,48803,48834,54867,54870,2023-04-23T11:06:30Z,54896,Sänger,mwimbaji,d,msichana,shughuli,mshirika,NA,NA,NA,NULL,NA,NA,NA,NA,NA,NA,NA,NA,NA,NA,NA,NA,NA,NA,NA,NA,NA,NA,NA
25feb,task,flow.Sequence,1_9,NA,NA,completion,6033,48804,48803,48834,54867,54870,2023-04-23T11:06:30Z,54896,Sänger,mwimbaji,d,msichana,shughuli,mshirika,NA,NA,NA,NULL,NA,NA,NA,NA,NA,NA,NA,NA,NA,NA,NA,NA,NA,NA,NA,NA,NA,NA,NA
25feb,Deep Question,html.Page,1_10_0_0,NA,NA,form submission,1902,54870,54867,54896,56798,56798,2023-04-23T11:06:32Z,56846,Übersicht,kilindo,s,mgusano,chipukizi,kulinganisha,k,NA,NA,NULL,NA,NA,NA,NA,NA,NA,NA,NA,NA,NA,NA,NA,NA,NA,NA,NA,NA,NA,NA
25feb,Save data screen,canvas.Screen,1_10_0_1,NA,NA,timeout,513,56799,56813,56846,57326,57326,2023-04-23T11:06:33Z,57359,Übersicht,kilindo,s,mgusano,chipukizi,kulinganisha,NA,NA,0,NULL,NA,NA,NA,NA,NA,NA,NA,NA,NA,NA,NA,NA,NA,NA,NA,NA,NA,NA,NA
25feb,deep,flow.Sequence,1_10_0,NA,NA,completion,2430,54870,54867,54896,57326,57327,2023-04-23T11:06:33Z,57359,Übersicht,kilindo,s,mgusano,chipukizi,kulinganisha,NA,NA,NA,NULL,NA,NA,NA,NA,NA,NA,NA,NA,NA,NA,NA,NA,NA,NA,NA,NA,NA,NA,NA
25feb,task,flow.Sequence,1_10,NA,NA,completion,2430,54870,54867,54896,57326,57327,2023-04-23T11:06:33Z,57359,Übersicht,kilindo,s,mgusano,chipukizi,kulinganisha,NA,NA,NA,NULL,NA,NA,NA,NA,NA,NA,NA,NA,NA,NA,NA,NA,NA,NA,NA,NA,NA,NA,NA
25feb,Deep Question,html.Page,1_11_0_0,NA,NA,form submission,1402,57327,57326,57359,58761,58761,2023-04-23T11:06:34Z,58827,Aufstand,ugomaji,d,mazidio,msingi,kujieleza,k,NA,NA,NULL,NA,NA,NA,NA,NA,NA,NA,NA,NA,NA,NA,NA,NA,NA,NA,NA,NA,NA,NA
25feb,Save data screen,canvas.Screen,1_11_0_1,NA,NA,timeout,473,58762,58793,58827,59281,59281,2023-04-23T11:06:35Z,59300,Aufstand,ugomaji,d,mazidio,msingi,kujieleza,NA,NA,0,NULL,NA,NA,NA,NA,NA,NA,NA,NA,NA,NA,NA,NA,NA,NA,NA,NA,NA,NA,NA
25feb,deep,flow.Sequence,1_11_0,NA,NA,completion,1922,57327,57326,57359,59281,59281,2023-04-23T11:06:35Z,59300,Aufstand,ugomaji,d,mazidio,msingi,kujieleza,NA,NA,NA,NULL,NA,NA,NA,NA,NA,NA,NA,NA,NA,NA,NA,NA,NA,NA,NA,NA,NA,NA,NA
25feb,task,flow.Sequence,1_11,NA,NA,completion,1922,57327,57326,57359,59281,59282,2023-04-23T11:06:35Z,59300,Aufstand,ugomaji,d,mazidio,msingi,kujieleza,NA,NA,NA,NULL,NA,NA,NA,NA,NA,NA,NA,NA,NA,NA,NA,NA,NA,NA,NA,NA,NA,NA,NA
25feb,Deep Question,html.Page,1_12_0_0,NA,NA,form submission,3088,59282,59281,59300,62388,62389,2023-04-23T11:06:38Z,62447,Lawine,banguko,d,maambukizi,usuluhishi,chekechea,k,NA,NA,NULL,NA,NA,NA,NA,NA,NA,NA,NA,NA,NA,NA,NA,NA,NA,NA,NA,NA,NA,NA
25feb,Save data screen,canvas.Screen,1_12_0_1,NA,NA,timeout,512,62390,62413,62447,62925,62926,2023-04-23T11:06:38Z,62959,Lawine,banguko,d,maambukizi,usuluhishi,chekechea,NA,NA,0,NULL,NA,NA,NA,NA,NA,NA,NA,NA,NA,NA,NA,NA,NA,NA,NA,NA,NA,NA,NA
25feb,deep,flow.Sequence,1_12_0,NA,NA,completion,3625,59282,59281,59300,62925,62926,2023-04-23T11:06:38Z,62959,Lawine,banguko,d,maambukizi,usuluhishi,chekechea,NA,NA,NA,NULL,NA,NA,NA,NA,NA,NA,NA,NA,NA,NA,NA,NA,NA,NA,NA,NA,NA,NA,NA
25feb,task,flow.Sequence,1_12,NA,NA,completion,3625,59282,59281,59300,62925,62926,2023-04-23T11:06:38Z,62959,Lawine,banguko,d,maambukizi,usuluhishi,chekechea,NA,NA,NA,NULL,NA,NA,NA,NA,NA,NA,NA,NA,NA,NA,NA,NA,NA,NA,NA,NA,NA,NA,NA
25feb,Deep Question,html.Page,1_13_0_0,NA,NA,form submission,3283,62926,62925,62959,66242,66242,2023-04-23T11:06:42Z,66291,Kanzler,diwani,s,rasilmali,mahitaji,maabudu,k,NA,NA,NULL,NA,NA,NA,NA,NA,NA,NA,NA,NA,NA,NA,NA,NA,NA,NA,NA,NA,NA,NA
25feb,Save data screen,canvas.Screen,1_13_0_1,NA,NA,timeout,493,66242,66258,66291,66758,66758,2023-04-23T11:06:42Z,66784,Kanzler,diwani,s,rasilmali,mahitaji,maabudu,NA,NA,0,NULL,NA,NA,NA,NA,NA,NA,NA,NA,NA,NA,NA,NA,NA,NA,NA,NA,NA,NA,NA
25feb,deep,flow.Sequence,1_13_0,NA,NA,completion,3799,62926,62925,62959,66758,66758,2023-04-23T11:06:42Z,66784,Kanzler,diwani,s,rasilmali,mahitaji,maabudu,NA,NA,NA,NULL,NA,NA,NA,NA,NA,NA,NA,NA,NA,NA,NA,NA,NA,NA,NA,NA,NA,NA,NA
25feb,task,flow.Sequence,1_13,NA,NA,completion,3799,62926,62925,62959,66758,66758,2023-04-23T11:06:42Z,66784,Kanzler,diwani,s,rasilmali,mahitaji,maabudu,NA,NA,NA,NULL,NA,NA,NA,NA,NA,NA,NA,NA,NA,NA,NA,NA,NA,NA,NA,NA,NA,NA,NA
25feb,Deep Question,html.Page,1_14_0_0,NA,NA,form submission,2719,66759,66758,66784,69503,69504,2023-04-23T11:06:45Z,69560,Gefährdung,kuhatarisha,s,uchokozi,udhaifu,makorowezo,k,NA,NA,NULL,NA,NA,NA,NA,NA,NA,NA,NA,NA,NA,NA,NA,NA,NA,NA,NA,NA,NA,NA
25feb,Save data screen,canvas.Screen,1_14_0_1,NA,NA,timeout,515,69505,69524,69560,70043,70045,2023-04-23T11:06:45Z,70075,Gefährdung,kuhatarisha,s,uchokozi,udhaifu,makorowezo,NA,NA,0,NULL,NA,NA,NA,NA,NA,NA,NA,NA,NA,NA,NA,NA,NA,NA,NA,NA,NA,NA,NA
25feb,deep,flow.Sequence,1_14_0,NA,NA,completion,3259,66759,66758,66784,70043,70045,2023-04-23T11:06:45Z,70075,Gefährdung,kuhatarisha,s,uchokozi,udhaifu,makorowezo,NA,NA,NA,NULL,NA,NA,NA,NA,NA,NA,NA,NA,NA,NA,NA,NA,NA,NA,NA,NA,NA,NA,NA
25feb,task,flow.Sequence,1_14,NA,NA,completion,3259,66759,66758,66784,70043,70046,2023-04-23T11:06:45Z,70075,Gefährdung,kuhatarisha,s,uchokozi,udhaifu,makorowezo,NA,NA,NA,NULL,NA,NA,NA,NA,NA,NA,NA,NA,NA,NA,NA,NA,NA,NA,NA,NA,NA,NA,NA
25feb,Deep Question,html.Page,1_15_0_0,NA,NA,form submission,2687,70046,70043,70075,72762,72763,2023-04-23T11:06:48Z,72823,Können,unaweza,d,kiongozi,bustani,mienendo,k,NA,NA,NULL,NA,NA,NA,NA,NA,NA,NA,NA,NA,NA,NA,NA,NA,NA,NA,NA,NA,NA,NA
25feb,Save data screen,canvas.Screen,1_15_0_1,NA,NA,timeout,511,72763,72789,72823,73300,73300,2023-04-23T11:06:49Z,73334,Können,unaweza,d,kiongozi,bustani,mienendo,NA,NA,0,NULL,NA,NA,NA,NA,NA,NA,NA,NA,NA,NA,NA,NA,NA,NA,NA,NA,NA,NA,NA
25feb,deep,flow.Sequence,1_15_0,NA,NA,completion,3225,70046,70043,70075,73300,73300,2023-04-23T11:06:49Z,73334,Können,unaweza,d,kiongozi,bustani,mienendo,NA,NA,NA,NULL,NA,NA,NA,NA,NA,NA,NA,NA,NA,NA,NA,NA,NA,NA,NA,NA,NA,NA,NA
25feb,task,flow.Sequence,1_15,NA,NA,completion,3225,70046,70043,70075,73300,73300,2023-04-23T11:06:49Z,73334,Können,unaweza,d,kiongozi,bustani,mienendo,NA,NA,NA,NULL,NA,NA,NA,NA,NA,NA,NA,NA,NA,NA,NA,NA,NA,NA,NA,NA,NA,NA,NA
25feb,retrieval block 1 (cued recall),flow.Loop,1,NA,NA,completion,69384,3856,3887,3916,73300,73301,2023-04-23T11:06:49Z,73334,NA,NA,NA,NA,NA,NA,NA,NA,NA,NULL,NA,NA,NA,NA,NA,NA,NA,NA,NA,NA,NA,NA,NA,NA,NA,NA,NA,NA,NA
25feb,Shallow Question,html.Page,2_0_0_0,NA,NA,form submission,8512,73301,73300,73334,81846,81846,2023-04-23T11:06:57Z,81887,Lawine,banguko,d,maambukizi,usuluhishi,chekechea,maambukizi,NA,NA,"c(""distractor1"", ""distractor2"", ""distractor3"")",NA,NA,NA,NA,NA,NA,NA,NA,NA,NA,NA,NA,NA,NA,NA,NA,NA,NA,NA
25feb,Save data screen,canvas.Screen,2_0_0_1,NA,NA,timeout,505,81847,81853,81887,82357,82358,2023-04-23T11:06:58Z,82392,Lawine,banguko,d,maambukizi,usuluhishi,chekechea,NA,NA,0,"c(""distractor1"", ""distractor2"", ""distractor3"")",NA,NA,NA,NA,NA,NA,NA,NA,NA,NA,NA,NA,NA,NA,NA,NA,NA,NA,NA
25feb,shallow,flow.Sequence,2_0_0,NA,NA,completion,9023,73301,73300,73334,82357,82358,2023-04-23T11:06:58Z,82392,Lawine,banguko,d,maambukizi,usuluhishi,chekechea,NA,NA,NA,"c(""distractor1"", ""distractor2"", ""distractor3"")",NA,NA,NA,NA,NA,NA,NA,NA,NA,NA,NA,NA,NA,NA,NA,NA,NA,NA,NA
25feb,task,flow.Sequence,2_0,NA,NA,completion,9023,73301,73300,73334,82357,82359,2023-04-23T11:06:58Z,82392,Lawine,banguko,d,maambukizi,usuluhishi,chekechea,NA,NA,NA,"c(""distractor1"", ""distractor2"", ""distractor3"")",NA,NA,NA,NA,NA,NA,NA,NA,NA,NA,NA,NA,NA,NA,NA,NA,NA,NA,NA
25feb,Shallow Question,html.Page,2_1_0_0,NA,NA,form submission,5608,82359,82357,82392,88000,88001,2023-04-23T11:07:03Z,88043,Abrechnung,uhasibu,s,kusahihisha,mpambano,mashambulizi,mpambano,NA,NA,"c(""distractor1"", ""distractor2"", ""distractor3"")",NA,NA,NA,NA,NA,NA,NA,NA,NA,NA,NA,NA,NA,NA,NA,NA,NA,NA,NA
25feb,Save data screen,canvas.Screen,2_1_0_1,NA,NA,timeout,493,88002,88010,88043,88509,88510,2023-04-23T11:07:04Z,88536,Abrechnung,uhasibu,s,kusahihisha,mpambano,mashambulizi,NA,NA,0,"c(""distractor1"", ""distractor2"", ""distractor3"")",NA,NA,NA,NA,NA,NA,NA,NA,NA,NA,NA,NA,NA,NA,NA,NA,NA,NA,NA
25feb,shallow,flow.Sequence,2_1_0,NA,NA,completion,6117,82359,82357,82392,88509,88510,2023-04-23T11:07:04Z,88536,Abrechnung,uhasibu,s,kusahihisha,mpambano,mashambulizi,NA,NA,NA,"c(""distractor1"", ""distractor2"", ""distractor3"")",NA,NA,NA,NA,NA,NA,NA,NA,NA,NA,NA,NA,NA,NA,NA,NA,NA,NA,NA
25feb,task,flow.Sequence,2_1,NA,NA,completion,6117,82359,82357,82392,88509,88510,2023-04-23T11:07:04Z,88536,Abrechnung,uhasibu,s,kusahihisha,mpambano,mashambulizi,NA,NA,NA,"c(""distractor1"", ""distractor2"", ""distractor3"")",NA,NA,NA,NA,NA,NA,NA,NA,NA,NA,NA,NA,NA,NA,NA,NA,NA,NA,NA
25feb,Shallow Question,html.Page,2_2_0_0,NA,NA,form submission,3716,88511,88509,88536,92252,92252,2023-04-23T11:07:08Z,92308,Übersicht,kilindo,s,mgusano,chipukizi,kulinganisha,kilindo,NA,NA,"c(""distractor1"", ""distractor2"", ""distractor3"")",NA,NA,NA,NA,NA,NA,NA,NA,NA,NA,NA,NA,NA,NA,NA,NA,NA,NA,NA
25feb,Save data screen,canvas.Screen,2_2_0_1,NA,NA,timeout,507,92254,92274,92308,92781,92782,2023-04-23T11:07:08Z,92815,Übersicht,kilindo,s,mgusano,chipukizi,kulinganisha,NA,NA,1,"c(""distractor1"", ""distractor2"", ""distractor3"")",NA,NA,NA,NA,NA,NA,NA,NA,NA,NA,NA,NA,NA,NA,NA,NA,NA,NA,NA
25feb,shallow,flow.Sequence,2_2_0,NA,NA,completion,4245,88511,88509,88536,92781,92782,2023-04-23T11:07:08Z,92815,Übersicht,kilindo,s,mgusano,chipukizi,kulinganisha,NA,NA,NA,"c(""distractor1"", ""distractor2"", ""distractor3"")",NA,NA,NA,NA,NA,NA,NA,NA,NA,NA,NA,NA,NA,NA,NA,NA,NA,NA,NA
25feb,task,flow.Sequence,2_2,NA,NA,completion,4245,88510,88509,88536,92781,92782,2023-04-23T11:07:08Z,92815,Übersicht,kilindo,s,mgusano,chipukizi,kulinganisha,NA,NA,NA,"c(""distractor1"", ""distractor2"", ""distractor3"")",NA,NA,NA,NA,NA,NA,NA,NA,NA,NA,NA,NA,NA,NA,NA,NA,NA,NA,NA
25feb,Shallow Question,html.Page,2_3_0_0,NA,NA,form submission,9455,92783,92781,92815,102270,102270,2023-04-23T11:07:18Z,102330,Prüfung,mtihani,d,mkulima,mtizamo,ufumbuzi,mkulima,NA,NA,"c(""distractor1"", ""distractor2"", ""distractor3"")",NA,NA,NA,NA,NA,NA,NA,NA,NA,NA,NA,NA,NA,NA,NA,NA,NA,NA,NA
25feb,Save data screen,canvas.Screen,2_3_0_1,NA,NA,timeout,488,102272,102295,102330,102785,102785,2023-04-23T11:07:18Z,102818,Prüfung,mtihani,d,mkulima,mtizamo,ufumbuzi,NA,NA,0,"c(""distractor1"", ""distractor2"", ""distractor3"")",NA,NA,NA,NA,NA,NA,NA,NA,NA,NA,NA,NA,NA,NA,NA,NA,NA,NA,NA
25feb,shallow,flow.Sequence,2_3_0,NA,NA,completion,9970,92783,92781,92815,102785,102786,2023-04-23T11:07:18Z,102818,Prüfung,mtihani,d,mkulima,mtizamo,ufumbuzi,NA,NA,NA,"c(""distractor1"", ""distractor2"", ""distractor3"")",NA,NA,NA,NA,NA,NA,NA,NA,NA,NA,NA,NA,NA,NA,NA,NA,NA,NA,NA
25feb,task,flow.Sequence,2_3,NA,NA,completion,9970,92782,92781,92815,102785,102786,2023-04-23T11:07:18Z,102818,Prüfung,mtihani,d,mkulima,mtizamo,ufumbuzi,NA,NA,NA,"c(""distractor1"", ""distractor2"", ""distractor3"")",NA,NA,NA,NA,NA,NA,NA,NA,NA,NA,NA,NA,NA,NA,NA,NA,NA,NA,NA
25feb,Shallow Question,html.Page,2_4_0_0,NA,NA,form submission,6371,102787,102785,102818,109189,109190,2023-04-23T11:07:25Z,109233,Kanzler,diwani,s,rasilmali,mahitaji,maabudu,diwani,NA,NA,"c(""distractor1"", ""distractor2"", ""distractor3"")",NA,NA,NA,NA,NA,NA,NA,NA,NA,NA,NA,NA,NA,NA,NA,NA,NA,NA,NA
25feb,Save data screen,canvas.Screen,2_4_0_1,NA,NA,timeout,492,109191,109199,109233,109699,109699,2023-04-23T11:07:25Z,109725,Kanzler,diwani,s,rasilmali,mahitaji,maabudu,NA,NA,1,"c(""distractor1"", ""distractor2"", ""distractor3"")",NA,NA,NA,NA,NA,NA,NA,NA,NA,NA,NA,NA,NA,NA,NA,NA,NA,NA,NA
25feb,shallow,flow.Sequence,2_4_0,NA,NA,completion,6881,102787,102785,102818,109699,109700,2023-04-23T11:07:25Z,109725,Kanzler,diwani,s,rasilmali,mahitaji,maabudu,NA,NA,NA,"c(""distractor1"", ""distractor2"", ""distractor3"")",NA,NA,NA,NA,NA,NA,NA,NA,NA,NA,NA,NA,NA,NA,NA,NA,NA,NA,NA
25feb,task,flow.Sequence,2_4,NA,NA,completion,6881,102787,102785,102818,109699,109700,2023-04-23T11:07:25Z,109725,Kanzler,diwani,s,rasilmali,mahitaji,maabudu,NA,NA,NA,"c(""distractor1"", ""distractor2"", ""distractor3"")",NA,NA,NA,NA,NA,NA,NA,NA,NA,NA,NA,NA,NA,NA,NA,NA,NA,NA,NA
25feb,Shallow Question,html.Page,2_5_0_0,NA,NA,form submission,4450,109700,109699,109725,114175,114175,2023-04-23T11:07:30Z,114229,Angreifer,mshambulizi,d,kitengo,tasinia,usafirishaji,kitengo,NA,NA,"c(""distractor1"", ""distractor2"", ""distractor3"")",NA,NA,NA,NA,NA,NA,NA,NA,NA,NA,NA,NA,NA,NA,NA,NA,NA,NA,NA
25feb,Save data screen,canvas.Screen,2_5_0_1,NA,NA,timeout,509,114177,114196,114229,114703,114704,2023-04-23T11:07:30Z,114738,Angreifer,mshambulizi,d,kitengo,tasinia,usafirishaji,NA,NA,0,"c(""distractor1"", ""distractor2"", ""distractor3"")",NA,NA,NA,NA,NA,NA,NA,NA,NA,NA,NA,NA,NA,NA,NA,NA,NA,NA,NA
25feb,shallow,flow.Sequence,2_5_0,NA,NA,completion,4978,109700,109699,109725,114703,114704,2023-04-23T11:07:30Z,114738,Angreifer,mshambulizi,d,kitengo,tasinia,usafirishaji,NA,NA,NA,"c(""distractor1"", ""distractor2"", ""distractor3"")",NA,NA,NA,NA,NA,NA,NA,NA,NA,NA,NA,NA,NA,NA,NA,NA,NA,NA,NA
25feb,task,flow.Sequence,2_5,NA,NA,completion,4978,109700,109699,109725,114703,114704,2023-04-23T11:07:30Z,114738,Angreifer,mshambulizi,d,kitengo,tasinia,usafirishaji,NA,NA,NA,"c(""distractor1"", ""distractor2"", ""distractor3"")",NA,NA,NA,NA,NA,NA,NA,NA,NA,NA,NA,NA,NA,NA,NA,NA,NA,NA,NA
25feb,Shallow Question,html.Page,2_6_0_0,NA,NA,form submission,4576,114704,114703,114738,119314,119315,2023-04-23T11:07:35Z,119375,System,maongozi,d,chokochoko,nuksani,mitaani,maongozi,NA,NA,"c(""distractor1"", ""distractor2"", ""distractor3"")",NA,NA,NA,NA,NA,NA,NA,NA,NA,NA,NA,NA,NA,NA,NA,NA,NA,NA,NA
25feb,Save data screen,canvas.Screen,2_6_0_1,NA,NA,timeout,505,119315,119343,119375,119846,119847,2023-04-23T11:07:35Z,119880,System,maongozi,d,chokochoko,nuksani,mitaani,NA,NA,1,"c(""distractor1"", ""distractor2"", ""distractor3"")",NA,NA,NA,NA,NA,NA,NA,NA,NA,NA,NA,NA,NA,NA,NA,NA,NA,NA,NA
25feb,shallow,flow.Sequence,2_6_0,NA,NA,completion,5108,114704,114703,114738,119846,119847,2023-04-23T11:07:35Z,119880,System,maongozi,d,chokochoko,nuksani,mitaani,NA,NA,NA,"c(""distractor1"", ""distractor2"", ""distractor3"")",NA,NA,NA,NA,NA,NA,NA,NA,NA,NA,NA,NA,NA,NA,NA,NA,NA,NA,NA
25feb,task,flow.Sequence,2_6,NA,NA,completion,5108,114704,114703,114738,119846,119847,2023-04-23T11:07:35Z,119880,System,maongozi,d,chokochoko,nuksani,mitaani,NA,NA,NA,"c(""distractor1"", ""distractor2"", ""distractor3"")",NA,NA,NA,NA,NA,NA,NA,NA,NA,NA,NA,NA,NA,NA,NA,NA,NA,NA,NA
25feb,Shallow Question,html.Page,2_7_0_0,NA,NA,form submission,2777,119847,119846,119880,122657,122657,2023-04-23T11:07:38Z,122698,Gefährdung,kuhatarisha,s,uchokozi,udhaifu,makorowezo,kuhatarisha,NA,NA,"c(""distractor1"", ""distractor2"", ""distractor3"")",NA,NA,NA,NA,NA,NA,NA,NA,NA,NA,NA,NA,NA,NA,NA,NA,NA,NA,NA
25feb,Save data screen,canvas.Screen,2_7_0_1,NA,NA,timeout,507,122658,122665,122698,123170,123170,2023-04-23T11:07:39Z,123205,Gefährdung,kuhatarisha,s,uchokozi,udhaifu,makorowezo,NA,NA,1,"c(""distractor1"", ""distractor2"", ""distractor3"")",NA,NA,NA,NA,NA,NA,NA,NA,NA,NA,NA,NA,NA,NA,NA,NA,NA,NA,NA
25feb,shallow,flow.Sequence,2_7_0,NA,NA,completion,3290,119847,119846,119880,123170,123171,2023-04-23T11:07:39Z,123205,Gefährdung,kuhatarisha,s,uchokozi,udhaifu,makorowezo,NA,NA,NA,"c(""distractor1"", ""distractor2"", ""distractor3"")",NA,NA,NA,NA,NA,NA,NA,NA,NA,NA,NA,NA,NA,NA,NA,NA,NA,NA,NA
25feb,task,flow.Sequence,2_7,NA,NA,completion,3290,119847,119846,119880,123170,123171,2023-04-23T11:07:39Z,123205,Gefährdung,kuhatarisha,s,uchokozi,udhaifu,makorowezo,NA,NA,NA,"c(""distractor1"", ""distractor2"", ""distractor3"")",NA,NA,NA,NA,NA,NA,NA,NA,NA,NA,NA,NA,NA,NA,NA,NA,NA,NA,NA
25feb,Shallow Question,html.Page,2_8_0_0,NA,NA,form submission,3966,123171,123170,123205,127171,127172,2023-04-23T11:07:43Z,127238,Sänger,mwimbaji,d,msichana,shughuli,mshirika,mshirika,NA,NA,"c(""distractor1"", ""distractor2"", ""distractor3"")",NA,NA,NA,NA,NA,NA,NA,NA,NA,NA,NA,NA,NA,NA,NA,NA,NA,NA,NA
25feb,Save data screen,canvas.Screen,2_8_0_1,NA,NA,timeout,505,127174,127205,127238,127711,127711,2023-04-23T11:07:43Z,127743,Sänger,mwimbaji,d,msichana,shughuli,mshirika,NA,NA,0,"c(""distractor1"", ""distractor2"", ""distractor3"")",NA,NA,NA,NA,NA,NA,NA,NA,NA,NA,NA,NA,NA,NA,NA,NA,NA,NA,NA
25feb,shallow,flow.Sequence,2_8_0,NA,NA,completion,4506,123171,123170,123205,127711,127712,2023-04-23T11:07:43Z,127743,Sänger,mwimbaji,d,msichana,shughuli,mshirika,NA,NA,NA,"c(""distractor1"", ""distractor2"", ""distractor3"")",NA,NA,NA,NA,NA,NA,NA,NA,NA,NA,NA,NA,NA,NA,NA,NA,NA,NA,NA
25feb,task,flow.Sequence,2_8,NA,NA,completion,4506,123171,123170,123205,127711,127712,2023-04-23T11:07:43Z,127743,Sänger,mwimbaji,d,msichana,shughuli,mshirika,NA,NA,NA,"c(""distractor1"", ""distractor2"", ""distractor3"")",NA,NA,NA,NA,NA,NA,NA,NA,NA,NA,NA,NA,NA,NA,NA,NA,NA,NA,NA
25feb,Shallow Question,html.Page,2_9_0_0,NA,NA,form submission,4430,127712,127711,127743,132173,132173,2023-04-23T11:07:48Z,132231,Kultur,utamaduni,s,shetani,gerezani,mazingira,utamaduni,NA,NA,"c(""distractor1"", ""distractor2"", ""distractor3"")",NA,NA,NA,NA,NA,NA,NA,NA,NA,NA,NA,NA,NA,NA,NA,NA,NA,NA,NA
25feb,Save data screen,canvas.Screen,2_9_0_1,NA,NA,timeout,492,132174,132194,132231,132690,132691,2023-04-23T11:07:48Z,132723,Kultur,utamaduni,s,shetani,gerezani,mazingira,NA,NA,1,"c(""distractor1"", ""distractor2"", ""distractor3"")",NA,NA,NA,NA,NA,NA,NA,NA,NA,NA,NA,NA,NA,NA,NA,NA,NA,NA,NA
25feb,shallow,flow.Sequence,2_9_0,NA,NA,completion,4947,127712,127711,127743,132690,132691,2023-04-23T11:07:48Z,132723,Kultur,utamaduni,s,shetani,gerezani,mazingira,NA,NA,NA,"c(""distractor1"", ""distractor2"", ""distractor3"")",NA,NA,NA,NA,NA,NA,NA,NA,NA,NA,NA,NA,NA,NA,NA,NA,NA,NA,NA
25feb,task,flow.Sequence,2_9,NA,NA,completion,4947,127712,127711,127743,132690,132691,2023-04-23T11:07:48Z,132723,Kultur,utamaduni,s,shetani,gerezani,mazingira,NA,NA,NA,"c(""distractor1"", ""distractor2"", ""distractor3"")",NA,NA,NA,NA,NA,NA,NA,NA,NA,NA,NA,NA,NA,NA,NA,NA,NA,NA,NA
25feb,Shallow Question,html.Page,2_10_0_0,NA,NA,form submission,3183,132691,132690,132723,135906,135906,2023-04-23T11:07:51Z,135961,Körper,kiwiliwili,s,mapambano,mpatanishi,kiolezo,kiwiliwili,NA,NA,"c(""distractor1"", ""distractor2"", ""distractor3"")",NA,NA,NA,NA,NA,NA,NA,NA,NA,NA,NA,NA,NA,NA,NA,NA,NA,NA,NA
25feb,Save data screen,canvas.Screen,2_10_0_1,NA,NA,timeout,497,135907,135927,135961,136423,136423,2023-04-23T11:07:52Z,136458,Körper,kiwiliwili,s,mapambano,mpatanishi,kiolezo,NA,NA,1,"c(""distractor1"", ""distractor2"", ""distractor3"")",NA,NA,NA,NA,NA,NA,NA,NA,NA,NA,NA,NA,NA,NA,NA,NA,NA,NA,NA
25feb,shallow,flow.Sequence,2_10_0,NA,NA,completion,3700,132691,132690,132723,136423,136424,2023-04-23T11:07:52Z,136458,Körper,kiwiliwili,s,mapambano,mpatanishi,kiolezo,NA,NA,NA,"c(""distractor1"", ""distractor2"", ""distractor3"")",NA,NA,NA,NA,NA,NA,NA,NA,NA,NA,NA,NA,NA,NA,NA,NA,NA,NA,NA
25feb,task,flow.Sequence,2_10,NA,NA,completion,3700,132691,132690,132723,136423,136424,2023-04-23T11:07:52Z,136458,Körper,kiwiliwili,s,mapambano,mpatanishi,kiolezo,NA,NA,NA,"c(""distractor1"", ""distractor2"", ""distractor3"")",NA,NA,NA,NA,NA,NA,NA,NA,NA,NA,NA,NA,NA,NA,NA,NA,NA,NA,NA
25feb,Shallow Question,html.Page,2_11_0_0,NA,NA,form submission,3949,136424,136423,136458,140407,140407,2023-04-23T11:07:56Z,140463,Aufstand,ugomaji,d,mazidio,msingi,kujieleza,ugomaji,NA,NA,"c(""distractor1"", ""distractor2"", ""distractor3"")",NA,NA,NA,NA,NA,NA,NA,NA,NA,NA,NA,NA,NA,NA,NA,NA,NA,NA,NA
25feb,Save data screen,canvas.Screen,2_11_0_1,NA,NA,timeout,491,140408,140429,140463,140935,140935,2023-04-23T11:07:56Z,140954,Aufstand,ugomaji,d,mazidio,msingi,kujieleza,NA,NA,1,"c(""distractor1"", ""distractor2"", ""distractor3"")",NA,NA,NA,NA,NA,NA,NA,NA,NA,NA,NA,NA,NA,NA,NA,NA,NA,NA,NA
25feb,shallow,flow.Sequence,2_11_0,NA,NA,completion,4477,136424,136423,136458,140935,140935,2023-04-23T11:07:56Z,140954,Aufstand,ugomaji,d,mazidio,msingi,kujieleza,NA,NA,NA,"c(""distractor1"", ""distractor2"", ""distractor3"")",NA,NA,NA,NA,NA,NA,NA,NA,NA,NA,NA,NA,NA,NA,NA,NA,NA,NA,NA
25feb,task,flow.Sequence,2_11,NA,NA,completion,4477,136424,136423,136458,140935,140936,2023-04-23T11:07:56Z,140954,Aufstand,ugomaji,d,mazidio,msingi,kujieleza,NA,NA,NA,"c(""distractor1"", ""distractor2"", ""distractor3"")",NA,NA,NA,NA,NA,NA,NA,NA,NA,NA,NA,NA,NA,NA,NA,NA,NA,NA,NA
25feb,Shallow Question,html.Page,2_12_0_0,NA,NA,form submission,5592,140936,140935,140954,146546,146546,2023-04-23T11:08:02Z,146602,Kontrolle,kudhibiti,s,mbinguni,kufunga,utegemezi,utegemezi,NA,NA,"c(""distractor1"", ""distractor2"", ""distractor3"")",NA,NA,NA,NA,NA,NA,NA,NA,NA,NA,NA,NA,NA,NA,NA,NA,NA,NA,NA
25feb,Save data screen,canvas.Screen,2_12_0_1,NA,NA,timeout,489,146547,146569,146602,147074,147075,2023-04-23T11:08:02Z,147091,Kontrolle,kudhibiti,s,mbinguni,kufunga,utegemezi,NA,NA,0,"c(""distractor1"", ""distractor2"", ""distractor3"")",NA,NA,NA,NA,NA,NA,NA,NA,NA,NA,NA,NA,NA,NA,NA,NA,NA,NA,NA
25feb,shallow,flow.Sequence,2_12_0,NA,NA,completion,6120,140936,140935,140954,147074,147075,2023-04-23T11:08:02Z,147091,Kontrolle,kudhibiti,s,mbinguni,kufunga,utegemezi,NA,NA,NA,"c(""distractor1"", ""distractor2"", ""distractor3"")",NA,NA,NA,NA,NA,NA,NA,NA,NA,NA,NA,NA,NA,NA,NA,NA,NA,NA,NA
25feb,task,flow.Sequence,2_12,NA,NA,completion,6120,140936,140935,140954,147074,147075,2023-04-23T11:08:02Z,147091,Kontrolle,kudhibiti,s,mbinguni,kufunga,utegemezi,NA,NA,NA,"c(""distractor1"", ""distractor2"", ""distractor3"")",NA,NA,NA,NA,NA,NA,NA,NA,NA,NA,NA,NA,NA,NA,NA,NA,NA,NA,NA
25feb,Shallow Question,html.Page,2_13_0_0,NA,NA,form submission,5363,147076,147074,147091,152454,152454,2023-04-23T11:08:08Z,152499,Verzögerung,kuchelewa,s,mwakilishi,mwanauchumi,jaribio,jaribio,NA,NA,"c(""distractor1"", ""distractor2"", ""distractor3"")",NA,NA,NA,NA,NA,NA,NA,NA,NA,NA,NA,NA,NA,NA,NA,NA,NA,NA,NA
25feb,Save data screen,canvas.Screen,2_13_0_1,NA,NA,timeout,494,152456,152466,152499,152966,152966,2023-04-23T11:08:08Z,152993,Verzögerung,kuchelewa,s,mwakilishi,mwanauchumi,jaribio,NA,NA,0,"c(""distractor1"", ""distractor2"", ""distractor3"")",NA,NA,NA,NA,NA,NA,NA,NA,NA,NA,NA,NA,NA,NA,NA,NA,NA,NA,NA
25feb,shallow,flow.Sequence,2_13_0,NA,NA,completion,5875,147076,147074,147091,152966,152967,2023-04-23T11:08:08Z,152993,Verzögerung,kuchelewa,s,mwakilishi,mwanauchumi,jaribio,NA,NA,NA,"c(""distractor1"", ""distractor2"", ""distractor3"")",NA,NA,NA,NA,NA,NA,NA,NA,NA,NA,NA,NA,NA,NA,NA,NA,NA,NA,NA
25feb,task,flow.Sequence,2_13,NA,NA,completion,5875,147075,147074,147091,152966,152967,2023-04-23T11:08:08Z,152993,Verzögerung,kuchelewa,s,mwakilishi,mwanauchumi,jaribio,NA,NA,NA,"c(""distractor1"", ""distractor2"", ""distractor3"")",NA,NA,NA,NA,NA,NA,NA,NA,NA,NA,NA,NA,NA,NA,NA,NA,NA,NA,NA
25feb,Shallow Question,html.Page,2_14_0_0,NA,NA,form submission,4062,152967,152966,152993,157055,157055,2023-04-23T11:08:12Z,157110,Kreativität,ubunifu,d,mratibu,mwendelezo,makubaliano,ubunifu,NA,NA,"c(""distractor1"", ""distractor2"", ""distractor3"")",NA,NA,NA,NA,NA,NA,NA,NA,NA,NA,NA,NA,NA,NA,NA,NA,NA,NA,NA
25feb,Save data screen,canvas.Screen,2_14_0_1,NA,NA,timeout,512,157056,157076,157110,157588,157589,2023-04-23T11:08:13Z,157622,Kreativität,ubunifu,d,mratibu,mwendelezo,makubaliano,NA,NA,1,"c(""distractor1"", ""distractor2"", ""distractor3"")",NA,NA,NA,NA,NA,NA,NA,NA,NA,NA,NA,NA,NA,NA,NA,NA,NA,NA,NA
25feb,shallow,flow.Sequence,2_14_0,NA,NA,completion,4595,152967,152966,152993,157588,157589,2023-04-23T11:08:13Z,157622,Kreativität,ubunifu,d,mratibu,mwendelezo,makubaliano,NA,NA,NA,"c(""distractor1"", ""distractor2"", ""distractor3"")",NA,NA,NA,NA,NA,NA,NA,NA,NA,NA,NA,NA,NA,NA,NA,NA,NA,NA,NA
25feb,task,flow.Sequence,2_14,NA,NA,completion,4595,152967,152966,152993,157588,157590,2023-04-23T11:08:13Z,157622,Kreativität,ubunifu,d,mratibu,mwendelezo,makubaliano,NA,NA,NA,"c(""distractor1"", ""distractor2"", ""distractor3"")",NA,NA,NA,NA,NA,NA,NA,NA,NA,NA,NA,NA,NA,NA,NA,NA,NA,NA,NA
25feb,Shallow Question,html.Page,2_15_0_0,NA,NA,form submission,3205,157590,157588,157622,160827,160827,2023-04-23T11:08:16Z,160883,Können,unaweza,d,kiongozi,bustani,mienendo,unaweza,NA,NA,"c(""distractor1"", ""distractor2"", ""distractor3"")",NA,NA,NA,NA,NA,NA,NA,NA,NA,NA,NA,NA,NA,NA,NA,NA,NA,NA,NA
25feb,Save data screen,canvas.Screen,2_15_0_1,NA,NA,timeout,514,160828,160848,160883,161360,161362,2023-04-23T11:08:17Z,161397,Können,unaweza,d,kiongozi,bustani,mienendo,NA,NA,1,"c(""distractor1"", ""distractor2"", ""distractor3"")",NA,NA,NA,NA,NA,NA,NA,NA,NA,NA,NA,NA,NA,NA,NA,NA,NA,NA,NA
25feb,shallow,flow.Sequence,2_15_0,NA,NA,completion,3738,157590,157588,157622,161360,161362,2023-04-23T11:08:17Z,161397,Können,unaweza,d,kiongozi,bustani,mienendo,NA,NA,NA,"c(""distractor1"", ""distractor2"", ""distractor3"")",NA,NA,NA,NA,NA,NA,NA,NA,NA,NA,NA,NA,NA,NA,NA,NA,NA,NA,NA
25feb,task,flow.Sequence,2_15,NA,NA,completion,3738,157590,157588,157622,161360,161362,2023-04-23T11:08:17Z,161397,Können,unaweza,d,kiongozi,bustani,mienendo,NA,NA,NA,"c(""distractor1"", ""distractor2"", ""distractor3"")",NA,NA,NA,NA,NA,NA,NA,NA,NA,NA,NA,NA,NA,NA,NA,NA,NA,NA,NA
25feb,retrieval block 2 (multiple choice),flow.Loop,2,NA,NA,completion,88026,73301,73300,73334,161360,161363,2023-04-23T11:08:17Z,161397,NA,NA,NA,NA,NA,NA,NA,NA,NA,"c(""distractor1"", ""distractor2"", ""distractor3"")",NA,NA,NA,NA,NA,NA,NA,NA,NA,NA,NA,NA,NA,NA,NA,NA,NA,NA,NA
25feb,End,canvas.Screen,3,NA,keypress(Space),response,1439,161363,161360,161397,162799,162794,2023-04-23T11:08:18Z,162838,NA,NA,NA,NA,NA,NA,NA,NA,NA,NULL,NA,NA,NA,NA,NA,NA,NA,NA,NA,NA,NA,NA,NA,NA,NA,NA,NA,NA,NA
25feb,root,flow.Sequence,NA,NA,NA,completion,161666,985,1032,1133,162799,162796,2023-04-23T11:08:18Z,162838,NA,NA,NA,NA,NA,NA,NA,NA,NA,NULL,NA,NA,NA,NA,NA,NA,NA,NA,NA,NA,NA,NA,NA,NA,NA,NA,NA,NA,NA
