observation,sender,sender_type,sender_id,response,response_action,ended_on,duration,time_run,time_render,time_show,time_end,time_commit,timestamp,time_switch,distractors,german,swahili,enc,distractor1,distractor2,distractor3,response_2,x,correct,x_2,url_vp,url_sess,meta_labjs_version,meta_location,meta_user_agent,meta_platform,meta_language,meta_locale,meta_time_zone,meta_timezone_offset,meta_screen_width,meta_screen_height,meta_scroll_width,meta_scroll_height,meta_window_inner_width,meta_window_inner_height,meta_device_pixel_ratio,meta_labjs_build_flavor,meta_labjs_build_commit
17a06,Introduction general,canvas.Screen,0,weiter,keypress(q),response,51898.38,354,355.8,376.62,52275,52287,2023-10-02T13:26:38Z,52294.08,NULL,NA,NA,NA,NA,NA,NA,NA,NA,NA,NA,186,1,20.2.4,https://neurocog.fernuni.ch/studies/vweber/sliechti/encoding_immediate/index.html?vp=186&sess=1,Mozilla/5.0 (Windows NT 10.0; Win64; x64; rv:109.0) Gecko/20100101 Firefox/118.0,Win32,de,de-CH,Europe/Zurich,-120,1280,720,1280,587,1280,587,1.5,production,f5b4a49f956347addd546a832a3327688c2c0fef
17a06,Introduction practice,canvas.Screen,1_0,NA,keypress(Space),response,7356.92,52290,52290.08,52294.08,59651,59665,2023-10-02T13:26:46Z,59667.94,NULL,NA,NA,NA,NA,NA,NA,NA,NA,NA,NA,NA,NA,NA,NA,NA,NA,NA,NA,NA,NA,NA,NA,NA,NA,NA,NA,NA,NA,NA
17a06,Deep Question,html.Page,1_1_0_0_0,NA,NA,form submission,8977.06,59667,59666.64,59667.94,68645,68646,2023-10-02T13:26:55Z,68648.2,"c(""distractor1"", ""distractor2"", ""distractor3"")",Qualität,mtindo,d,NA,NA,NA,erk,NA,NA,NA,NA,NA,NA,NA,NA,NA,NA,NA,NA,NA,NA,NA,NA,NA,NA,NA,NA,NA,NA
17a06,"""Richtig""-Screen",canvas.Screen,1_1_0_0_1,NA,NA,skipped,NA,68649,NA,NA,68645,68649,2023-10-02T13:26:55Z,68648.2,"c(""distractor1"", ""distractor2"", ""distractor3"")",Qualität,mtindo,d,NA,NA,NA,NA,NA,NA,NA,NA,NA,NA,NA,NA,NA,NA,NA,NA,NA,NA,NA,NA,NA,NA,NA,NA,NA,NA
17a06,"""Falsch""-Screen",canvas.Screen,1_1_0_0_2,NA,NA,timeout,4999.9,68651,68642.46,68648.2,73627.28,73630,2023-10-02T13:27:00Z,73648.1,"c(""distractor1"", ""distractor2"", ""distractor3"")",Qualität,mtindo,d,NA,NA,NA,NA,NA,0,NA,NA,NA,NA,NA,NA,NA,NA,NA,NA,NA,NA,NA,NA,NA,NA,NA,NA,NA,NA
17a06,deep,flow.Sequence,1_1_0_0,NA,NA,completion,13959.34,59666,59666.64,59667.94,73627.28,73630,2023-10-02T13:27:00Z,73648.1,"c(""distractor1"", ""distractor2"", ""distractor3"")",Qualität,mtindo,d,NA,NA,NA,NA,NA,NA,NA,NA,NA,NA,NA,NA,NA,NA,NA,NA,NA,NA,NA,NA,NA,NA,NA,NA,NA,NA
17a06,shallow,flow.Sequence,1_1_0_1,NA,NA,skipped,NA,73631,NA,NA,73627.28,73631,2023-10-02T13:27:00Z,73648.1,"c(""distractor1"", ""distractor2"", ""distractor3"")",Qualität,mtindo,d,NA,NA,NA,NA,NA,NA,NA,NA,NA,NA,NA,NA,NA,NA,NA,NA,NA,NA,NA,NA,NA,NA,NA,NA,NA,NA
17a06,task,flow.Sequence,1_1_0,NA,NA,completion,13959.34,59666,59666.64,59667.94,73627.28,73632,2023-10-02T13:27:00Z,73648.1,"c(""distractor1"", ""distractor2"", ""distractor3"")",Qualität,mtindo,d,NA,NA,NA,NA,NA,NA,NA,NA,NA,NA,NA,NA,NA,NA,NA,NA,NA,NA,NA,NA,NA,NA,NA,NA,NA,NA
17a06,deep,flow.Sequence,1_1_1_0,NA,NA,skipped,NA,73633,NA,NA,73627.28,73633,2023-10-02T13:27:00Z,73648.1,"c(""distractor1"", ""distractor2"", ""distractor3"")",Gegenwart,hadhara,s,katiba,jokofu,mikopo,NA,NA,NA,NA,NA,NA,NA,NA,NA,NA,NA,NA,NA,NA,NA,NA,NA,NA,NA,NA,NA,NA,NA
17a06,Shallow Question,html.Page,1_1_1_1_0,NA,NA,form submission,6210.9,73634,73627.28,73648.1,79859,79859,2023-10-02T13:27:06Z,79856.86,"c(""distractor1"", ""distractor2"", ""distractor3"")",Gegenwart,hadhara,s,katiba,jokofu,mikopo,hadhara,NA,NA,NA,NA,NA,NA,NA,NA,NA,NA,NA,NA,NA,NA,NA,NA,NA,NA,NA,NA,NA,NA
17a06,"""Richtig""-Screen",canvas.Screen,1_1_1_1_1,NA,NA,timeout,4999.34,79862,79853.62,79856.86,84835.38,84839,2023-10-02T13:27:11Z,84856.2,"c(""distractor1"", ""distractor2"", ""distractor3"")",Gegenwart,hadhara,s,katiba,jokofu,mikopo,NA,NA,1,NA,NA,NA,NA,NA,NA,NA,NA,NA,NA,NA,NA,NA,NA,NA,NA,NA,NA,NA,NA
17a06,"""Falsch""-Screen",canvas.Screen,1_1_1_1_2,NA,NA,skipped,NA,84847,NA,NA,84835.38,84848,2023-10-02T13:27:11Z,84856.2,"c(""distractor1"", ""distractor2"", ""distractor3"")",Gegenwart,hadhara,s,katiba,jokofu,mikopo,NA,NA,NA,NA,NA,NA,NA,NA,NA,NA,NA,NA,NA,NA,NA,NA,NA,NA,NA,NA,NA,NA,NA
17a06,shallow,flow.Sequence,1_1_1_1,NA,NA,completion,11187.28,73634,73627.28,73648.1,84835.38,84848,2023-10-02T13:27:11Z,84856.2,"c(""distractor1"", ""distractor2"", ""distractor3"")",Gegenwart,hadhara,s,katiba,jokofu,mikopo,NA,NA,NA,NA,NA,NA,NA,NA,NA,NA,NA,NA,NA,NA,NA,NA,NA,NA,NA,NA,NA,NA,NA
17a06,task,flow.Sequence,1_1_1,NA,NA,completion,11187.28,73632,73627.28,73648.1,84835.38,84849,2023-10-02T13:27:11Z,84856.2,"c(""distractor1"", ""distractor2"", ""distractor3"")",Gegenwart,hadhara,s,katiba,jokofu,mikopo,NA,NA,NA,NA,NA,NA,NA,NA,NA,NA,NA,NA,NA,NA,NA,NA,NA,NA,NA,NA,NA,NA,NA
17a06,Deep Question,html.Page,1_1_2_0_0,NA,NA,form submission,5781.8,84850,84835.38,84856.2,90638,90639,2023-10-02T13:27:17Z,90648.32,"c(""distractor1"", ""distractor2"", ""distractor3"")",Gesundheit,salama,d,NA,NA,NA,skn,NA,NA,NA,NA,NA,NA,NA,NA,NA,NA,NA,NA,NA,NA,NA,NA,NA,NA,NA,NA,NA,NA
17a06,"""Richtig""-Screen",canvas.Screen,1_1_2_0_1,NA,NA,skipped,NA,90643,NA,NA,90638,90643,2023-10-02T13:27:17Z,90648.32,"c(""distractor1"", ""distractor2"", ""distractor3"")",Gesundheit,salama,d,NA,NA,NA,NA,NA,NA,NA,NA,NA,NA,NA,NA,NA,NA,NA,NA,NA,NA,NA,NA,NA,NA,NA,NA,NA,NA
17a06,"""Falsch""-Screen",canvas.Screen,1_1_2_0_2,NA,NA,timeout,4999.38,90647,90629.86,90648.32,95626.86,95629,2023-10-02T13:27:22Z,95647.7,"c(""distractor1"", ""distractor2"", ""distractor3"")",Gesundheit,salama,d,NA,NA,NA,NA,NA,0,NA,NA,NA,NA,NA,NA,NA,NA,NA,NA,NA,NA,NA,NA,NA,NA,NA,NA,NA,NA
17a06,deep,flow.Sequence,1_1_2_0,NA,NA,completion,10770.66,84849,84835.38,84856.2,95626.86,95629,2023-10-02T13:27:22Z,95647.7,"c(""distractor1"", ""distractor2"", ""distractor3"")",Gesundheit,salama,d,NA,NA,NA,NA,NA,NA,NA,NA,NA,NA,NA,NA,NA,NA,NA,NA,NA,NA,NA,NA,NA,NA,NA,NA,NA,NA
17a06,shallow,flow.Sequence,1_1_2_1,NA,NA,skipped,NA,95629,NA,NA,95626.86,95630,2023-10-02T13:27:22Z,95647.7,"c(""distractor1"", ""distractor2"", ""distractor3"")",Gesundheit,salama,d,NA,NA,NA,NA,NA,NA,NA,NA,NA,NA,NA,NA,NA,NA,NA,NA,NA,NA,NA,NA,NA,NA,NA,NA,NA,NA
17a06,task,flow.Sequence,1_1_2,NA,NA,completion,10770.66,84849,84835.38,84856.2,95626.86,95630,2023-10-02T13:27:22Z,95647.7,"c(""distractor1"", ""distractor2"", ""distractor3"")",Gesundheit,salama,d,NA,NA,NA,NA,NA,NA,NA,NA,NA,NA,NA,NA,NA,NA,NA,NA,NA,NA,NA,NA,NA,NA,NA,NA,NA,NA
17a06,Deep Question,html.Page,1_1_3_0_0,NA,NA,form submission,4991.3,95630,95626.86,95647.7,100639,100639,2023-10-02T13:27:27Z,100647.44,"c(""distractor1"", ""distractor2"", ""distractor3"")",Schatten,kivuli,d,NA,NA,NA,hei,NA,NA,NA,NA,NA,NA,NA,NA,NA,NA,NA,NA,NA,NA,NA,NA,NA,NA,NA,NA,NA,NA
17a06,"""Richtig""-Screen",canvas.Screen,1_1_3_0_1,NA,NA,skipped,NA,100640,NA,NA,100639,100640,2023-10-02T13:27:27Z,100647.44,"c(""distractor1"", ""distractor2"", ""distractor3"")",Schatten,kivuli,d,NA,NA,NA,NA,NA,NA,NA,NA,NA,NA,NA,NA,NA,NA,NA,NA,NA,NA,NA,NA,NA,NA,NA,NA,NA,NA
17a06,"""Falsch""-Screen",canvas.Screen,1_1_3_0_2,NA,NA,timeout,5000.54,100642,100637.36,100647.44,105627.16,105629,2023-10-02T13:27:32Z,105647.98,"c(""distractor1"", ""distractor2"", ""distractor3"")",Schatten,kivuli,d,NA,NA,NA,NA,NA,0,NA,NA,NA,NA,NA,NA,NA,NA,NA,NA,NA,NA,NA,NA,NA,NA,NA,NA,NA,NA
17a06,deep,flow.Sequence,1_1_3_0,NA,NA,completion,9979.46,95630,95626.86,95647.7,105627.16,105630,2023-10-02T13:27:32Z,105647.98,"c(""distractor1"", ""distractor2"", ""distractor3"")",Schatten,kivuli,d,NA,NA,NA,NA,NA,NA,NA,NA,NA,NA,NA,NA,NA,NA,NA,NA,NA,NA,NA,NA,NA,NA,NA,NA,NA,NA
17a06,shallow,flow.Sequence,1_1_3_1,NA,NA,skipped,NA,105630,NA,NA,105627.16,105630,2023-10-02T13:27:32Z,105647.98,"c(""distractor1"", ""distractor2"", ""distractor3"")",Schatten,kivuli,d,NA,NA,NA,NA,NA,NA,NA,NA,NA,NA,NA,NA,NA,NA,NA,NA,NA,NA,NA,NA,NA,NA,NA,NA,NA,NA
17a06,task,flow.Sequence,1_1_3,NA,NA,completion,9979.46,95630,95626.86,95647.7,105627.16,105631,2023-10-02T13:27:32Z,105647.98,"c(""distractor1"", ""distractor2"", ""distractor3"")",Schatten,kivuli,d,NA,NA,NA,NA,NA,NA,NA,NA,NA,NA,NA,NA,NA,NA,NA,NA,NA,NA,NA,NA,NA,NA,NA,NA,NA,NA
17a06,deep,flow.Sequence,1_1_4_0,NA,NA,skipped,NA,105631,NA,NA,105627.16,105631,2023-10-02T13:27:32Z,105647.98,"c(""distractor1"", ""distractor2"", ""distractor3"")",Kritik,lawama,s,dereva,nafasi,mawazo,NA,NA,NA,NA,NA,NA,NA,NA,NA,NA,NA,NA,NA,NA,NA,NA,NA,NA,NA,NA,NA,NA,NA
17a06,Shallow Question,html.Page,1_1_4_1_0,NA,NA,form submission,9235.02,105632,105627.16,105647.98,114883,114883,2023-10-02T13:27:41Z,114897.26,"c(""distractor1"", ""distractor2"", ""distractor3"")",Kritik,lawama,s,dereva,nafasi,mawazo,dereva,NA,NA,NA,NA,NA,NA,NA,NA,NA,NA,NA,NA,NA,NA,NA,NA,NA,NA,NA,NA,NA,NA
17a06,"""Richtig""-Screen",canvas.Screen,1_1_4_1_1,NA,NA,skipped,NA,114886,NA,NA,114883,114886,2023-10-02T13:27:41Z,114897.26,"c(""distractor1"", ""distractor2"", ""distractor3"")",Kritik,lawama,s,dereva,nafasi,mawazo,NA,NA,NA,NA,NA,NA,NA,NA,NA,NA,NA,NA,NA,NA,NA,NA,NA,NA,NA,NA,NA,NA,NA
17a06,"""Falsch""-Screen",canvas.Screen,1_1_4_1_2,NA,NA,timeout,5000.1,114888,114880.14,114897.26,119876.54,119879,2023-10-02T13:27:46Z,119897.36,"c(""distractor1"", ""distractor2"", ""distractor3"")",Kritik,lawama,s,dereva,nafasi,mawazo,NA,NA,0,NA,NA,NA,NA,NA,NA,NA,NA,NA,NA,NA,NA,NA,NA,NA,NA,NA,NA,NA,NA
17a06,shallow,flow.Sequence,1_1_4_1,NA,NA,completion,14228.56,105632,105627.16,105647.98,119876.54,119880,2023-10-02T13:27:46Z,119897.36,"c(""distractor1"", ""distractor2"", ""distractor3"")",Kritik,lawama,s,dereva,nafasi,mawazo,NA,NA,NA,NA,NA,NA,NA,NA,NA,NA,NA,NA,NA,NA,NA,NA,NA,NA,NA,NA,NA,NA,NA
17a06,task,flow.Sequence,1_1_4,NA,NA,completion,14228.56,105631,105627.16,105647.98,119876.54,119880,2023-10-02T13:27:46Z,119897.36,"c(""distractor1"", ""distractor2"", ""distractor3"")",Kritik,lawama,s,dereva,nafasi,mawazo,NA,NA,NA,NA,NA,NA,NA,NA,NA,NA,NA,NA,NA,NA,NA,NA,NA,NA,NA,NA,NA,NA,NA
17a06,deep,flow.Sequence,1_1_5_0,NA,NA,skipped,NA,119881,NA,NA,119876.54,119881,2023-10-02T13:27:46Z,119897.36,"c(""distractor1"", ""distractor2"", ""distractor3"")",Rückhalt,msaada,s,muhula,auwali,kiwimbe,NA,NA,NA,NA,NA,NA,NA,NA,NA,NA,NA,NA,NA,NA,NA,NA,NA,NA,NA,NA,NA,NA,NA
17a06,Shallow Question,html.Page,1_1_5_1_0,NA,NA,form submission,12070.64,119881,119876.54,119897.36,131968,131971,2023-10-02T13:27:58Z,131980.86,"c(""distractor1"", ""distractor2"", ""distractor3"")",Rückhalt,msaada,s,muhula,auwali,kiwimbe,auwali,NA,NA,NA,NA,NA,NA,NA,NA,NA,NA,NA,NA,NA,NA,NA,NA,NA,NA,NA,NA,NA,NA
17a06,"""Richtig""-Screen",canvas.Screen,1_1_5_1_1,NA,NA,skipped,NA,131982,NA,NA,131968,131982,2023-10-02T13:27:58Z,131980.86,"c(""distractor1"", ""distractor2"", ""distractor3"")",Rückhalt,msaada,s,muhula,auwali,kiwimbe,NA,NA,NA,NA,NA,NA,NA,NA,NA,NA,NA,NA,NA,NA,NA,NA,NA,NA,NA,NA,NA,NA,NA
17a06,"""Falsch""-Screen",canvas.Screen,1_1_5_1_2,NA,NA,timeout,5001.18,131986,131956.22,131980.86,136961.22,136964,2023-10-02T13:28:03Z,136982.04,"c(""distractor1"", ""distractor2"", ""distractor3"")",Rückhalt,msaada,s,muhula,auwali,kiwimbe,NA,NA,0,NA,NA,NA,NA,NA,NA,NA,NA,NA,NA,NA,NA,NA,NA,NA,NA,NA,NA,NA,NA
17a06,shallow,flow.Sequence,1_1_5_1,NA,NA,completion,17063.86,119881,119876.54,119897.36,136961.22,136964,2023-10-02T13:28:03Z,136982.04,"c(""distractor1"", ""distractor2"", ""distractor3"")",Rückhalt,msaada,s,muhula,auwali,kiwimbe,NA,NA,NA,NA,NA,NA,NA,NA,NA,NA,NA,NA,NA,NA,NA,NA,NA,NA,NA,NA,NA,NA,NA
17a06,task,flow.Sequence,1_1_5,NA,NA,completion,17063.86,119880,119876.54,119897.36,136961.22,136965,2023-10-02T13:28:03Z,136982.04,"c(""distractor1"", ""distractor2"", ""distractor3"")",Rückhalt,msaada,s,muhula,auwali,kiwimbe,NA,NA,NA,NA,NA,NA,NA,NA,NA,NA,NA,NA,NA,NA,NA,NA,NA,NA,NA,NA,NA,NA,NA
17a06,block,flow.Loop,1_1,NA,NA,completion,77293.28,59666,59666.64,59667.94,136961.22,136965,2023-10-02T13:28:03Z,136982.04,"c(""distractor1"", ""distractor2"", ""distractor3"")",NA,NA,NA,NA,NA,NA,NA,NA,NA,NA,NA,NA,NA,NA,NA,NA,NA,NA,NA,NA,NA,NA,NA,NA,NA,NA,NA,NA,NA
17a06,Practice,flow.Sequence,1,NA,NA,completion,84667.14,52289,52290.08,52294.08,136961.22,136966,2023-10-02T13:28:03Z,136982.04,NULL,NA,NA,NA,NA,NA,NA,NA,NA,NA,NA,NA,NA,NA,NA,NA,NA,NA,NA,NA,NA,NA,NA,NA,NA,NA,NA,NA,NA,NA
17a06,Experiment start,canvas.Screen,2,weiter,keypress(q),response,13777.96,136966,136961.22,136982.04,150760,150778,2023-10-02T13:28:17Z,150877.36,NULL,NA,NA,NA,NA,NA,NA,NA,NA,NA,NA,NA,NA,NA,NA,NA,NA,NA,NA,NA,NA,NA,NA,NA,NA,NA,NA,NA,NA,NA
17a06,Deep Question,html.Page,3_0_0_0_0_0_0,NA,NA,form submission,15520.64,150865,150864.68,150877.36,166398,166399,2023-10-02T13:28:33Z,166398.58,NULL,Respekt,heshima,d,NA,NA,NA,heiwa,NA,NA,0,NA,NA,NA,NA,NA,NA,NA,NA,NA,NA,NA,NA,NA,NA,NA,NA,NA,NA,NA
17a06,"""Richtig""-Screen",canvas.Screen,3_0_0_0_0_0_1,NA,NA,skipped,NA,166405,NA,NA,166398,166406,2023-10-02T13:28:33Z,166398.58,NULL,Respekt,heshima,d,NA,NA,NA,NA,sdf,NA,0,NA,NA,NA,NA,NA,NA,NA,NA,NA,NA,NA,NA,NA,NA,NA,NA,NA,NA,NA
17a06,"""Falsch""-Screen",canvas.Screen,3_0_0_0_0_0_2,NA,NA,timeout,4999.48,166410,166392.78,166398.58,171377.24,171378,2023-10-02T13:28:38Z,171398.06,NULL,Respekt,heshima,d,NA,NA,NA,NA,sdf,0,0,NA,NA,NA,NA,NA,NA,NA,NA,NA,NA,NA,NA,NA,NA,NA,NA,NA,NA,NA
17a06,deep,flow.Sequence,3_0_0_0_0_0,NA,NA,completion,20499.88,150865,150864.68,150877.36,171377.24,171379,2023-10-02T13:28:38Z,171398.06,NULL,Respekt,heshima,d,NA,NA,NA,NA,sdf,NA,0,NA,NA,NA,NA,NA,NA,NA,NA,NA,NA,NA,NA,NA,NA,NA,NA,NA,NA,NA
17a06,shallow,flow.Sequence,3_0_0_0_0_1,NA,NA,skipped,NA,171379,NA,NA,171377.24,171379,2023-10-02T13:28:38Z,171398.06,NULL,Respekt,heshima,d,NA,NA,NA,NA,sdf,NA,0,NA,NA,NA,NA,NA,NA,NA,NA,NA,NA,NA,NA,NA,NA,NA,NA,NA,NA,NA
17a06,task,flow.Sequence,3_0_0_0_0,NA,NA,completion,20499.88,150865,150864.68,150877.36,171377.24,171379,2023-10-02T13:28:38Z,171398.06,NULL,Respekt,heshima,d,NA,NA,NA,NA,sdf,NA,0,NA,NA,NA,NA,NA,NA,NA,NA,NA,NA,NA,NA,NA,NA,NA,NA,NA,NA,NA
17a06,deep,flow.Sequence,3_0_0_0_1_0,NA,NA,skipped,NA,171379,NA,NA,171377.24,171380,2023-10-02T13:28:38Z,171398.06,NULL,Ergänzung,kijalizo,s,ulaghai,mustarehe,matangazo,NA,sdf,NA,0,NA,NA,NA,NA,NA,NA,NA,NA,NA,NA,NA,NA,NA,NA,NA,NA,NA,NA,NA
17a06,Shallow Question,html.Page,3_0_0_0_1_1_0,NA,NA,form submission,44648.94,171380,171377.24,171398.06,216047,216047,2023-10-02T13:29:22Z,216064.76,NULL,Ergänzung,kijalizo,s,ulaghai,mustarehe,matangazo,mustarehe,NA,NA,0,NA,NA,NA,NA,NA,NA,NA,NA,NA,NA,NA,NA,NA,NA,NA,NA,NA,NA,NA
17a06,"""Richtig""-Screen",canvas.Screen,3_0_0_0_1_1_1,NA,NA,skipped,NA,216050,NA,NA,216047,216051,2023-10-02T13:29:22Z,216064.76,NULL,Ergänzung,kijalizo,s,ulaghai,mustarehe,matangazo,NA,sdf,NA,0,NA,NA,NA,NA,NA,NA,NA,NA,NA,NA,NA,NA,NA,NA,NA,NA,NA,NA,NA
17a06,"""Falsch""-Screen",canvas.Screen,3_0_0_0_1_1_2,NA,NA,timeout,4999.46,216054,216043.94,216064.76,221043.4,221047,2023-10-02T13:29:27Z,221064.22,NULL,Ergänzung,kijalizo,s,ulaghai,mustarehe,matangazo,NA,sdf,0,0,NA,NA,NA,NA,NA,NA,NA,NA,NA,NA,NA,NA,NA,NA,NA,NA,NA,NA,NA
17a06,shallow,flow.Sequence,3_0_0_0_1_1,NA,NA,completion,49645.34,171380,171377.24,171398.06,221043.4,221047,2023-10-02T13:29:27Z,221064.22,NULL,Ergänzung,kijalizo,s,ulaghai,mustarehe,matangazo,NA,sdf,NA,0,NA,NA,NA,NA,NA,NA,NA,NA,NA,NA,NA,NA,NA,NA,NA,NA,NA,NA,NA
17a06,task,flow.Sequence,3_0_0_0_1,NA,NA,completion,49645.34,171379,171377.24,171398.06,221043.4,221048,2023-10-02T13:29:27Z,221064.22,NULL,Ergänzung,kijalizo,s,ulaghai,mustarehe,matangazo,NA,sdf,NA,0,NA,NA,NA,NA,NA,NA,NA,NA,NA,NA,NA,NA,NA,NA,NA,NA,NA,NA,NA
17a06,Deep Question,html.Page,3_0_0_0_2_0_0,NA,NA,form submission,8592.78,221048,221043.4,221064.22,229657,229658,2023-10-02T13:29:36Z,229668.28,NULL,Notfall,dharura,d,NA,NA,NA,he,NA,NA,0,NA,NA,NA,NA,NA,NA,NA,NA,NA,NA,NA,NA,NA,NA,NA,NA,NA,NA,NA
17a06,"""Richtig""-Screen",canvas.Screen,3_0_0_0_2_0_1,NA,NA,skipped,NA,229659,NA,NA,229657,229659,2023-10-02T13:29:36Z,229668.28,NULL,Notfall,dharura,d,NA,NA,NA,NA,sdf,NA,0,NA,NA,NA,NA,NA,NA,NA,NA,NA,NA,NA,NA,NA,NA,NA,NA,NA,NA,NA
17a06,"""Falsch""-Screen",canvas.Screen,3_0_0_0_2_0_2,NA,NA,timeout,5001.2,229660,229655.72,229668.28,234648.66,234650,2023-10-02T13:29:41Z,234669.48,NULL,Notfall,dharura,d,NA,NA,NA,NA,sdf,0,0,NA,NA,NA,NA,NA,NA,NA,NA,NA,NA,NA,NA,NA,NA,NA,NA,NA,NA,NA
17a06,deep,flow.Sequence,3_0_0_0_2_0,NA,NA,completion,13584.44,221048,221043.4,221064.22,234648.66,234651,2023-10-02T13:29:41Z,234669.48,NULL,Notfall,dharura,d,NA,NA,NA,NA,sdf,NA,0,NA,NA,NA,NA,NA,NA,NA,NA,NA,NA,NA,NA,NA,NA,NA,NA,NA,NA,NA
17a06,shallow,flow.Sequence,3_0_0_0_2_1,NA,NA,skipped,NA,234651,NA,NA,234648.66,234652,2023-10-02T13:29:41Z,234669.48,NULL,Notfall,dharura,d,NA,NA,NA,NA,sdf,NA,0,NA,NA,NA,NA,NA,NA,NA,NA,NA,NA,NA,NA,NA,NA,NA,NA,NA,NA,NA
17a06,task,flow.Sequence,3_0_0_0_2,NA,NA,completion,13584.44,221048,221043.4,221064.22,234648.66,234652,2023-10-02T13:29:41Z,234669.48,NULL,Notfall,dharura,d,NA,NA,NA,NA,sdf,NA,0,NA,NA,NA,NA,NA,NA,NA,NA,NA,NA,NA,NA,NA,NA,NA,NA,NA,NA,NA
17a06,Deep Question,html.Page,3_0_0_0_3_0_0,NA,NA,form submission,10471.52,234653,234648.66,234669.48,245141,245143,2023-10-02T13:29:51Z,245148.74,NULL,Vergnügen,kichekesho,d,NA,NA,NA,hamz,NA,NA,0,NA,NA,NA,NA,NA,NA,NA,NA,NA,NA,NA,NA,NA,NA,NA,NA,NA,NA,NA
17a06,"""Richtig""-Screen",canvas.Screen,3_0_0_0_3_0_1,NA,NA,skipped,NA,245147,NA,NA,245141,245147,2023-10-02T13:29:51Z,245148.74,NULL,Vergnügen,kichekesho,d,NA,NA,NA,NA,sdf,NA,0,NA,NA,NA,NA,NA,NA,NA,NA,NA,NA,NA,NA,NA,NA,NA,NA,NA,NA,NA
17a06,"""Falsch""-Screen",canvas.Screen,3_0_0_0_3_0_2,NA,NA,timeout,4999.26,245151,245135.64,245148.74,250127.18,250129,2023-10-02T13:29:56Z,250148,NULL,Vergnügen,kichekesho,d,NA,NA,NA,NA,sdf,0,0,NA,NA,NA,NA,NA,NA,NA,NA,NA,NA,NA,NA,NA,NA,NA,NA,NA,NA,NA
17a06,deep,flow.Sequence,3_0_0_0_3_0,NA,NA,completion,15457.7,234652,234648.66,234669.48,250127.18,250130,2023-10-02T13:29:56Z,250148,NULL,Vergnügen,kichekesho,d,NA,NA,NA,NA,sdf,NA,0,NA,NA,NA,NA,NA,NA,NA,NA,NA,NA,NA,NA,NA,NA,NA,NA,NA,NA,NA
17a06,shallow,flow.Sequence,3_0_0_0_3_1,NA,NA,skipped,NA,250130,NA,NA,250127.18,250130,2023-10-02T13:29:56Z,250148,NULL,Vergnügen,kichekesho,d,NA,NA,NA,NA,sdf,NA,0,NA,NA,NA,NA,NA,NA,NA,NA,NA,NA,NA,NA,NA,NA,NA,NA,NA,NA,NA
17a06,task,flow.Sequence,3_0_0_0_3,NA,NA,completion,15457.7,234652,234648.66,234669.48,250127.18,250131,2023-10-02T13:29:56Z,250148,NULL,Vergnügen,kichekesho,d,NA,NA,NA,NA,sdf,NA,0,NA,NA,NA,NA,NA,NA,NA,NA,NA,NA,NA,NA,NA,NA,NA,NA,NA,NA,NA
17a06,deep,flow.Sequence,3_0_0_0_4_0,NA,NA,skipped,NA,250131,NA,NA,250127.18,250132,2023-10-02T13:29:56Z,250148,NULL,Betrüger,mdanganyifu,s,mwanamuziki,wastani,mahakama,NA,sdf,NA,0,NA,NA,NA,NA,NA,NA,NA,NA,NA,NA,NA,NA,NA,NA,NA,NA,NA,NA,NA
17a06,Shallow Question,html.Page,3_0_0_0_4_1_0,NA,NA,form submission,7875,250132,250127.18,250148,258023,258025,2023-10-02T13:30:04Z,258023.9,NULL,Betrüger,mdanganyifu,s,mwanamuziki,wastani,mahakama,mwanamuziki,NA,NA,0,NA,NA,NA,NA,NA,NA,NA,NA,NA,NA,NA,NA,NA,NA,NA,NA,NA,NA,NA
17a06,"""Richtig""-Screen",canvas.Screen,3_0_0_0_4_1_1,NA,NA,skipped,NA,258028,NA,NA,258023,258028,2023-10-02T13:30:04Z,258023.9,NULL,Betrüger,mdanganyifu,s,mwanamuziki,wastani,mahakama,NA,sdf,NA,0,NA,NA,NA,NA,NA,NA,NA,NA,NA,NA,NA,NA,NA,NA,NA,NA,NA,NA,NA
17a06,"""Falsch""-Screen",canvas.Screen,3_0_0_0_4_1_2,NA,NA,timeout,4999.6,258029,258020.18,258023.9,263002.68,263005,2023-10-02T13:30:09Z,263023.5,NULL,Betrüger,mdanganyifu,s,mwanamuziki,wastani,mahakama,NA,sdf,0,0,NA,NA,NA,NA,NA,NA,NA,NA,NA,NA,NA,NA,NA,NA,NA,NA,NA,NA,NA
17a06,shallow,flow.Sequence,3_0_0_0_4_1,NA,NA,completion,12854.68,250132,250127.18,250148,263002.68,263006,2023-10-02T13:30:09Z,263023.5,NULL,Betrüger,mdanganyifu,s,mwanamuziki,wastani,mahakama,NA,sdf,NA,0,NA,NA,NA,NA,NA,NA,NA,NA,NA,NA,NA,NA,NA,NA,NA,NA,NA,NA,NA
17a06,task,flow.Sequence,3_0_0_0_4,NA,NA,completion,12854.68,250131,250127.18,250148,263002.68,263006,2023-10-02T13:30:09Z,263023.5,NULL,Betrüger,mdanganyifu,s,mwanamuziki,wastani,mahakama,NA,sdf,NA,0,NA,NA,NA,NA,NA,NA,NA,NA,NA,NA,NA,NA,NA,NA,NA,NA,NA,NA,NA
17a06,deep,flow.Sequence,3_0_0_0_5_0,NA,NA,skipped,NA,263007,NA,NA,263002.68,263007,2023-10-02T13:30:09Z,263023.5,NULL,Stimmung,kinyongo,s,kilekile,kisambo,madhehebu,NA,sdf,NA,0,NA,NA,NA,NA,NA,NA,NA,NA,NA,NA,NA,NA,NA,NA,NA,NA,NA,NA,NA
17a06,Shallow Question,html.Page,3_0_0_0_5_1_0,NA,NA,form submission,12768.5,263008,263002.68,263023.5,275792,275793,2023-10-02T13:30:22Z,275793.6,NULL,Stimmung,kinyongo,s,kilekile,kisambo,madhehebu,kilekile,NA,NA,0,NA,NA,NA,NA,NA,NA,NA,NA,NA,NA,NA,NA,NA,NA,NA,NA,NA,NA,NA
17a06,"""Richtig""-Screen",canvas.Screen,3_0_0_0_5_1_1,NA,NA,skipped,NA,275800,NA,NA,275792,275800,2023-10-02T13:30:22Z,275793.6,NULL,Stimmung,kinyongo,s,kilekile,kisambo,madhehebu,NA,sdf,NA,0,NA,NA,NA,NA,NA,NA,NA,NA,NA,NA,NA,NA,NA,NA,NA,NA,NA,NA,NA
17a06,"""Falsch""-Screen",canvas.Screen,3_0_0_0_5_1_2,NA,NA,timeout,4999.66,275805,275786.06,275793.6,280772.44,280776,2023-10-02T13:30:27Z,280793.26,NULL,Stimmung,kinyongo,s,kilekile,kisambo,madhehebu,NA,sdf,0,0,NA,NA,NA,NA,NA,NA,NA,NA,NA,NA,NA,NA,NA,NA,NA,NA,NA,NA,NA
17a06,shallow,flow.Sequence,3_0_0_0_5_1,NA,NA,completion,17748.94,263008,263002.68,263023.5,280772.44,280777,2023-10-02T13:30:27Z,280793.26,NULL,Stimmung,kinyongo,s,kilekile,kisambo,madhehebu,NA,sdf,NA,0,NA,NA,NA,NA,NA,NA,NA,NA,NA,NA,NA,NA,NA,NA,NA,NA,NA,NA,NA
17a06,task,flow.Sequence,3_0_0_0_5,NA,NA,completion,17748.94,263007,263002.68,263023.5,280772.44,280777,2023-10-02T13:30:27Z,280793.26,NULL,Stimmung,kinyongo,s,kilekile,kisambo,madhehebu,NA,sdf,NA,0,NA,NA,NA,NA,NA,NA,NA,NA,NA,NA,NA,NA,NA,NA,NA,NA,NA,NA,NA
17a06,deep,flow.Sequence,3_0_0_0_6_0,NA,NA,skipped,NA,280779,NA,NA,280772.44,280779,2023-10-02T13:30:27Z,280793.26,NULL,Wohlstand,mafanikio,s,chimbuko,kumbuko,mapwaji,NA,sdf,NA,0,NA,NA,NA,NA,NA,NA,NA,NA,NA,NA,NA,NA,NA,NA,NA,NA,NA,NA,NA
17a06,Shallow Question,html.Page,3_0_0_0_6_1_0,NA,NA,form submission,9248.74,280779,280772.44,280793.26,290042,290042,2023-10-02T13:30:36Z,290043.92,NULL,Wohlstand,mafanikio,s,chimbuko,kumbuko,mapwaji,chimbuko,NA,NA,0,NA,NA,NA,NA,NA,NA,NA,NA,NA,NA,NA,NA,NA,NA,NA,NA,NA,NA,NA
17a06,"""Richtig""-Screen",canvas.Screen,3_0_0_0_6_1_1,NA,NA,skipped,NA,290045,NA,NA,290042,290045,2023-10-02T13:30:36Z,290043.92,NULL,Wohlstand,mafanikio,s,chimbuko,kumbuko,mapwaji,NA,sdf,NA,0,NA,NA,NA,NA,NA,NA,NA,NA,NA,NA,NA,NA,NA,NA,NA,NA,NA,NA,NA
17a06,"""Falsch""-Screen",canvas.Screen,3_0_0_0_6_1_2,NA,NA,timeout,5000.8,290047,290040.78,290043.92,295023.9,295025,2023-10-02T13:30:41Z,295044.72,NULL,Wohlstand,mafanikio,s,chimbuko,kumbuko,mapwaji,NA,sdf,0,0,NA,NA,NA,NA,NA,NA,NA,NA,NA,NA,NA,NA,NA,NA,NA,NA,NA,NA,NA
17a06,shallow,flow.Sequence,3_0_0_0_6_1,NA,NA,completion,14230.64,280779,280772.44,280793.26,295023.9,295027,2023-10-02T13:30:41Z,295044.72,NULL,Wohlstand,mafanikio,s,chimbuko,kumbuko,mapwaji,NA,sdf,NA,0,NA,NA,NA,NA,NA,NA,NA,NA,NA,NA,NA,NA,NA,NA,NA,NA,NA,NA,NA
17a06,task,flow.Sequence,3_0_0_0_6,NA,NA,completion,14230.64,280779,280772.44,280793.26,295023.9,295027,2023-10-02T13:30:41Z,295044.72,NULL,Wohlstand,mafanikio,s,chimbuko,kumbuko,mapwaji,NA,sdf,NA,0,NA,NA,NA,NA,NA,NA,NA,NA,NA,NA,NA,NA,NA,NA,NA,NA,NA,NA,NA
17a06,Deep Question,html.Page,3_0_0_0_7_0_0,NA,NA,form submission,16317.28,295027,295023.9,295044.72,311362,311363,2023-10-02T13:30:57Z,311357,NULL,Orientierung,urekebisho,d,NA,NA,NA,wj,NA,NA,0,NA,NA,NA,NA,NA,NA,NA,NA,NA,NA,NA,NA,NA,NA,NA,NA,NA,NA,NA
17a06,"""Richtig""-Screen",canvas.Screen,3_0_0_0_7_0_1,NA,NA,skipped,NA,311368,NA,NA,311362,311368,2023-10-02T13:30:57Z,311357,NULL,Orientierung,urekebisho,d,NA,NA,NA,NA,sdf,NA,0,NA,NA,NA,NA,NA,NA,NA,NA,NA,NA,NA,NA,NA,NA,NA,NA,NA,NA,NA
17a06,"""Falsch""-Screen",canvas.Screen,3_0_0_0_7_0_2,NA,NA,timeout,4999.68,311372,311353.56,311357,316335.86,316342,2023-10-02T13:31:02Z,316356.68,NULL,Orientierung,urekebisho,d,NA,NA,NA,NA,sdf,0,0,NA,NA,NA,NA,NA,NA,NA,NA,NA,NA,NA,NA,NA,NA,NA,NA,NA,NA,NA
17a06,deep,flow.Sequence,3_0_0_0_7_0,NA,NA,completion,21291.14,295027,295023.9,295044.72,316335.86,316345,2023-10-02T13:31:02Z,316356.68,NULL,Orientierung,urekebisho,d,NA,NA,NA,NA,sdf,NA,0,NA,NA,NA,NA,NA,NA,NA,NA,NA,NA,NA,NA,NA,NA,NA,NA,NA,NA,NA
17a06,shallow,flow.Sequence,3_0_0_0_7_1,NA,NA,skipped,NA,316346,NA,NA,316335.86,316347,2023-10-02T13:31:02Z,316356.68,NULL,Orientierung,urekebisho,d,NA,NA,NA,NA,sdf,NA,0,NA,NA,NA,NA,NA,NA,NA,NA,NA,NA,NA,NA,NA,NA,NA,NA,NA,NA,NA
17a06,task,flow.Sequence,3_0_0_0_7,NA,NA,completion,21291.14,295027,295023.9,295044.72,316335.86,316348,2023-10-02T13:31:02Z,316356.68,NULL,Orientierung,urekebisho,d,NA,NA,NA,NA,sdf,NA,0,NA,NA,NA,NA,NA,NA,NA,NA,NA,NA,NA,NA,NA,NA,NA,NA,NA,NA,NA
17a06,block,flow.Loop,3_0_0_0,NA,NA,completion,165458.5,150865,150864.68,150877.36,316335.86,316349,2023-10-02T13:31:02Z,316356.68,NULL,NA,NA,NA,NA,NA,NA,NA,sdf,NA,0,NA,NA,NA,NA,NA,NA,NA,NA,NA,NA,NA,NA,NA,NA,NA,NA,NA,NA,NA
17a06,weiter,canvas.Screen,3_0_0_1,sdf,keypress(Space),response,3231.32,316349,316335.86,316356.68,319588,319592,2023-10-02T13:31:06Z,319669.52,NULL,NA,NA,NA,NA,NA,NA,NA,sdf,NA,0,NA,NA,NA,NA,NA,NA,NA,NA,NA,NA,NA,NA,NA,NA,NA,NA,NA,NA,NA
17a06,check continue,flow.Sequence,3_0_0,NA,NA,completion,168710.64,150865,150864.68,150877.36,319588,319593,2023-10-02T13:31:06Z,319669.52,NULL,NA,NA,NA,NA,NA,NA,NA,sdf,NA,0,NA,NA,NA,NA,NA,NA,NA,NA,NA,NA,NA,NA,NA,NA,NA,NA,NA,NA,NA
17a06,deep,flow.Sequence,3_0_1_0_0_0,NA,NA,skipped,NA,319658,NA,NA,319588,319658,2023-10-02T13:31:06Z,319669.52,NULL,Wohlstand,mafanikio,s,chimbuko,kumbuko,mapwaji,NA,sdfdsf,NA,1,NA,NA,NA,NA,NA,NA,NA,NA,NA,NA,NA,NA,NA,NA,NA,NA,NA,NA,NA
17a06,Shallow Question,html.Page,3_0_1_0_0_1_0,NA,NA,form submission,4812.48,319658,319658.42,319669.52,324482,324483,2023-10-02T13:31:11Z,324481.62,NULL,Wohlstand,mafanikio,s,chimbuko,kumbuko,mapwaji,mafanikio,NA,NA,1,NA,NA,NA,NA,NA,NA,NA,NA,NA,NA,NA,NA,NA,NA,NA,NA,NA,NA,NA
17a06,"""Richtig""-Screen",canvas.Screen,3_0_1_0_0_1_1,NA,NA,timeout,4999.44,324489,324473.2,324481.62,329460.24,329463,2023-10-02T13:31:16Z,329481.06,NULL,Wohlstand,mafanikio,s,chimbuko,kumbuko,mapwaji,NA,sdfdsf,1,1,NA,NA,NA,NA,NA,NA,NA,NA,NA,NA,NA,NA,NA,NA,NA,NA,NA,NA,NA
17a06,"""Falsch""-Screen",canvas.Screen,3_0_1_0_0_1_2,NA,NA,skipped,NA,329467,NA,NA,329460.24,329467,2023-10-02T13:31:16Z,329481.06,NULL,Wohlstand,mafanikio,s,chimbuko,kumbuko,mapwaji,NA,sdfdsf,NA,1,NA,NA,NA,NA,NA,NA,NA,NA,NA,NA,NA,NA,NA,NA,NA,NA,NA,NA,NA
17a06,shallow,flow.Sequence,3_0_1_0_0_1,NA,NA,completion,9790.72,319658,319658.42,319669.52,329460.24,329468,2023-10-02T13:31:16Z,329481.06,NULL,Wohlstand,mafanikio,s,chimbuko,kumbuko,mapwaji,NA,sdfdsf,NA,1,NA,NA,NA,NA,NA,NA,NA,NA,NA,NA,NA,NA,NA,NA,NA,NA,NA,NA,NA
17a06,task,flow.Sequence,3_0_1_0_0,NA,NA,completion,9790.72,319658,319658.42,319669.52,329460.24,329468,2023-10-02T13:31:16Z,329481.06,NULL,Wohlstand,mafanikio,s,chimbuko,kumbuko,mapwaji,NA,sdfdsf,NA,1,NA,NA,NA,NA,NA,NA,NA,NA,NA,NA,NA,NA,NA,NA,NA,NA,NA,NA,NA
17a06,deep,flow.Sequence,3_0_1_0_1_0,NA,NA,skipped,NA,329468,NA,NA,329460.24,329469,2023-10-02T13:31:16Z,329481.06,NULL,Betrüger,mdanganyifu,s,mwanamuziki,wastani,mahakama,NA,sdfdsf,NA,1,NA,NA,NA,NA,NA,NA,NA,NA,NA,NA,NA,NA,NA,NA,NA,NA,NA,NA,NA
17a06,Shallow Question,html.Page,3_0_1_0_1_1_0,NA,NA,form submission,4443.94,329469,329460.24,329481.06,333925,333925,2023-10-02T13:31:20Z,333940.8,NULL,Betrüger,mdanganyifu,s,mwanamuziki,wastani,mahakama,mdanganyifu,NA,NA,1,NA,NA,NA,NA,NA,NA,NA,NA,NA,NA,NA,NA,NA,NA,NA,NA,NA,NA,NA
17a06,"""Richtig""-Screen",canvas.Screen,3_0_1_0_1_1_1,NA,NA,timeout,4999.6,333929,333920.08,333940.8,338919.56,338921,2023-10-02T13:31:25Z,338940.4,NULL,Betrüger,mdanganyifu,s,mwanamuziki,wastani,mahakama,NA,sdfdsf,1,1,NA,NA,NA,NA,NA,NA,NA,NA,NA,NA,NA,NA,NA,NA,NA,NA,NA,NA,NA
17a06,"""Falsch""-Screen",canvas.Screen,3_0_1_0_1_1_2,NA,NA,skipped,NA,338929,NA,NA,338919.56,338929,2023-10-02T13:31:25Z,338940.4,NULL,Betrüger,mdanganyifu,s,mwanamuziki,wastani,mahakama,NA,sdfdsf,NA,1,NA,NA,NA,NA,NA,NA,NA,NA,NA,NA,NA,NA,NA,NA,NA,NA,NA,NA,NA
17a06,shallow,flow.Sequence,3_0_1_0_1_1,NA,NA,completion,9438.5,329469,329460.24,329481.06,338919.56,338930,2023-10-02T13:31:25Z,338940.4,NULL,Betrüger,mdanganyifu,s,mwanamuziki,wastani,mahakama,NA,sdfdsf,NA,1,NA,NA,NA,NA,NA,NA,NA,NA,NA,NA,NA,NA,NA,NA,NA,NA,NA,NA,NA
17a06,task,flow.Sequence,3_0_1_0_1,NA,NA,completion,9438.5,329468,329460.24,329481.06,338919.56,338930,2023-10-02T13:31:25Z,338940.4,NULL,Betrüger,mdanganyifu,s,mwanamuziki,wastani,mahakama,NA,sdfdsf,NA,1,NA,NA,NA,NA,NA,NA,NA,NA,NA,NA,NA,NA,NA,NA,NA,NA,NA,NA,NA
17a06,deep,flow.Sequence,3_0_1_0_2_0,NA,NA,skipped,NA,338930,NA,NA,338919.56,338931,2023-10-02T13:31:25Z,338940.4,NULL,Stimmung,kinyongo,s,kilekile,kisambo,madhehebu,NA,sdfdsf,NA,1,NA,NA,NA,NA,NA,NA,NA,NA,NA,NA,NA,NA,NA,NA,NA,NA,NA,NA,NA
17a06,Shallow Question,html.Page,3_0_1_0_2_1_0,NA,NA,form submission,5312.6,338931,338919.56,338940.4,344253,344253,2023-10-02T13:31:30Z,344251.86,NULL,Stimmung,kinyongo,s,kilekile,kisambo,madhehebu,kinyongo,NA,NA,1,NA,NA,NA,NA,NA,NA,NA,NA,NA,NA,NA,NA,NA,NA,NA,NA,NA,NA,NA
17a06,"""Richtig""-Screen",canvas.Screen,3_0_1_0_2_1_1,NA,NA,timeout,5001.04,344258,344247.48,344251.86,349232.08,349234,2023-10-02T13:31:35Z,349252.9,NULL,Stimmung,kinyongo,s,kilekile,kisambo,madhehebu,NA,sdfdsf,1,1,NA,NA,NA,NA,NA,NA,NA,NA,NA,NA,NA,NA,NA,NA,NA,NA,NA,NA,NA
17a06,"""Falsch""-Screen",canvas.Screen,3_0_1_0_2_1_2,NA,NA,skipped,NA,349241,NA,NA,349232.08,349241,2023-10-02T13:31:35Z,349252.9,NULL,Stimmung,kinyongo,s,kilekile,kisambo,madhehebu,NA,sdfdsf,NA,1,NA,NA,NA,NA,NA,NA,NA,NA,NA,NA,NA,NA,NA,NA,NA,NA,NA,NA,NA
17a06,shallow,flow.Sequence,3_0_1_0_2_1,NA,NA,completion,10291.68,338931,338919.56,338940.4,349232.08,349241,2023-10-02T13:31:35Z,349252.9,NULL,Stimmung,kinyongo,s,kilekile,kisambo,madhehebu,NA,sdfdsf,NA,1,NA,NA,NA,NA,NA,NA,NA,NA,NA,NA,NA,NA,NA,NA,NA,NA,NA,NA,NA
17a06,task,flow.Sequence,3_0_1_0_2,NA,NA,completion,10291.68,338930,338919.56,338940.4,349232.08,349242,2023-10-02T13:31:35Z,349252.9,NULL,Stimmung,kinyongo,s,kilekile,kisambo,madhehebu,NA,sdfdsf,NA,1,NA,NA,NA,NA,NA,NA,NA,NA,NA,NA,NA,NA,NA,NA,NA,NA,NA,NA,NA
17a06,Deep Question,html.Page,3_0_1_0_3_0_0,NA,NA,form submission,16743.1,349243,349232.08,349252.9,365996,365996,2023-10-02T13:31:52Z,366002.26,NULL,Orientierung,urekebisho,d,NA,NA,NA,kezhik,NA,NA,1,NA,NA,NA,NA,NA,NA,NA,NA,NA,NA,NA,NA,NA,NA,NA,NA,NA,NA,NA
17a06,"""Richtig""-Screen",canvas.Screen,3_0_1_0_3_0_1,NA,NA,skipped,NA,365997,NA,NA,365996,365998,2023-10-02T13:31:52Z,366002.26,NULL,Orientierung,urekebisho,d,NA,NA,NA,NA,sdfdsf,NA,1,NA,NA,NA,NA,NA,NA,NA,NA,NA,NA,NA,NA,NA,NA,NA,NA,NA,NA,NA
17a06,"""Falsch""-Screen",canvas.Screen,3_0_1_0_3_0_2,NA,NA,timeout,4999.76,365999,365994.88,366002.26,370981.18,370984,2023-10-02T13:31:57Z,371002.02,NULL,Orientierung,urekebisho,d,NA,NA,NA,NA,sdfdsf,0,1,NA,NA,NA,NA,NA,NA,NA,NA,NA,NA,NA,NA,NA,NA,NA,NA,NA,NA,NA
17a06,deep,flow.Sequence,3_0_1_0_3_0,NA,NA,completion,21728.28,349243,349232.08,349252.9,370981.18,370985,2023-10-02T13:31:57Z,371002.02,NULL,Orientierung,urekebisho,d,NA,NA,NA,NA,sdfdsf,NA,1,NA,NA,NA,NA,NA,NA,NA,NA,NA,NA,NA,NA,NA,NA,NA,NA,NA,NA,NA
17a06,shallow,flow.Sequence,3_0_1_0_3_1,NA,NA,skipped,NA,370986,NA,NA,370981.18,370986,2023-10-02T13:31:57Z,371002.02,NULL,Orientierung,urekebisho,d,NA,NA,NA,NA,sdfdsf,NA,1,NA,NA,NA,NA,NA,NA,NA,NA,NA,NA,NA,NA,NA,NA,NA,NA,NA,NA,NA
17a06,task,flow.Sequence,3_0_1_0_3,NA,NA,completion,21728.28,349243,349232.08,349252.9,370981.18,370986,2023-10-02T13:31:57Z,371002.02,NULL,Orientierung,urekebisho,d,NA,NA,NA,NA,sdfdsf,NA,1,NA,NA,NA,NA,NA,NA,NA,NA,NA,NA,NA,NA,NA,NA,NA,NA,NA,NA,NA
17a06,Deep Question,html.Page,3_0_1_0_4_0_0,NA,NA,form submission,23593.98,370988,370981.18,371002.02,394596,394596,2023-10-02T13:32:21Z,394607.1,NULL,Notfall,dharura,d,NA,NA,NA,duruwlele,NA,NA,1,NA,NA,NA,NA,NA,NA,NA,NA,NA,NA,NA,NA,NA,NA,NA,NA,NA,NA,NA
17a06,"""Richtig""-Screen",canvas.Screen,3_0_1_0_4_0_1,NA,NA,skipped,NA,394598,NA,NA,394596,394598,2023-10-02T13:32:21Z,394607.1,NULL,Notfall,dharura,d,NA,NA,NA,NA,sdfdsf,NA,1,NA,NA,NA,NA,NA,NA,NA,NA,NA,NA,NA,NA,NA,NA,NA,NA,NA,NA,NA
17a06,"""Falsch""-Screen",canvas.Screen,3_0_1_0_4_0_2,NA,NA,timeout,4999.38,394600,394594.98,394607.1,399585.66,399587,2023-10-02T13:32:26Z,399606.48,NULL,Notfall,dharura,d,NA,NA,NA,NA,sdfdsf,0,1,NA,NA,NA,NA,NA,NA,NA,NA,NA,NA,NA,NA,NA,NA,NA,NA,NA,NA,NA
17a06,deep,flow.Sequence,3_0_1_0_4_0,NA,NA,completion,28583.64,370988,370981.18,371002.02,399585.66,399587,2023-10-02T13:32:26Z,399606.48,NULL,Notfall,dharura,d,NA,NA,NA,NA,sdfdsf,NA,1,NA,NA,NA,NA,NA,NA,NA,NA,NA,NA,NA,NA,NA,NA,NA,NA,NA,NA,NA
17a06,shallow,flow.Sequence,3_0_1_0_4_1,NA,NA,skipped,NA,399587,NA,NA,399585.66,399587,2023-10-02T13:32:26Z,399606.48,NULL,Notfall,dharura,d,NA,NA,NA,NA,sdfdsf,NA,1,NA,NA,NA,NA,NA,NA,NA,NA,NA,NA,NA,NA,NA,NA,NA,NA,NA,NA,NA
17a06,task,flow.Sequence,3_0_1_0_4,NA,NA,completion,28583.64,370987,370981.18,371002.02,399585.66,399589,2023-10-02T13:32:26Z,399606.48,NULL,Notfall,dharura,d,NA,NA,NA,NA,sdfdsf,NA,1,NA,NA,NA,NA,NA,NA,NA,NA,NA,NA,NA,NA,NA,NA,NA,NA,NA,NA,NA
17a06,Deep Question,html.Page,3_0_1_0_5_0_0,NA,NA,form submission,7919.52,399589,399585.66,399606.48,407526,407527,2023-10-02T13:32:34Z,407523.1,NULL,Respekt,heshima,d,NA,NA,NA,hel,NA,NA,1,NA,NA,NA,NA,NA,NA,NA,NA,NA,NA,NA,NA,NA,NA,NA,NA,NA,NA,NA
17a06,"""Richtig""-Screen",canvas.Screen,3_0_1_0_5_0_1,NA,NA,skipped,NA,407532,NA,NA,407526,407533,2023-10-02T13:32:34Z,407523.1,NULL,Respekt,heshima,d,NA,NA,NA,NA,sdfdsf,NA,1,NA,NA,NA,NA,NA,NA,NA,NA,NA,NA,NA,NA,NA,NA,NA,NA,NA,NA,NA
17a06,"""Falsch""-Screen",canvas.Screen,3_0_1_0_5_0_2,NA,NA,timeout,5001.08,407539,407519.06,407523.1,412503.36,412505,2023-10-02T13:32:39Z,412524.18,NULL,Respekt,heshima,d,NA,NA,NA,NA,sdfdsf,0,1,NA,NA,NA,NA,NA,NA,NA,NA,NA,NA,NA,NA,NA,NA,NA,NA,NA,NA,NA
17a06,deep,flow.Sequence,3_0_1_0_5_0,NA,NA,completion,12896.88,399589,399585.66,399606.48,412503.36,412505,2023-10-02T13:32:39Z,412524.18,NULL,Respekt,heshima,d,NA,NA,NA,NA,sdfdsf,NA,1,NA,NA,NA,NA,NA,NA,NA,NA,NA,NA,NA,NA,NA,NA,NA,NA,NA,NA,NA
17a06,shallow,flow.Sequence,3_0_1_0_5_1,NA,NA,skipped,NA,412505,NA,NA,412503.36,412505,2023-10-02T13:32:39Z,412524.18,NULL,Respekt,heshima,d,NA,NA,NA,NA,sdfdsf,NA,1,NA,NA,NA,NA,NA,NA,NA,NA,NA,NA,NA,NA,NA,NA,NA,NA,NA,NA,NA
17a06,task,flow.Sequence,3_0_1_0_5,NA,NA,completion,12896.88,399589,399585.66,399606.48,412503.36,412506,2023-10-02T13:32:39Z,412524.18,NULL,Respekt,heshima,d,NA,NA,NA,NA,sdfdsf,NA,1,NA,NA,NA,NA,NA,NA,NA,NA,NA,NA,NA,NA,NA,NA,NA,NA,NA,NA,NA
17a06,Deep Question,html.Page,3_0_1_0_6_0_0,NA,NA,form submission,9913.82,412506,412503.36,412524.18,422438,422439,2023-10-02T13:32:49Z,422440.14,NULL,Vergnügen,kichekesho,d,NA,NA,NA,n,NA,NA,1,NA,NA,NA,NA,NA,NA,NA,NA,NA,NA,NA,NA,NA,NA,NA,NA,NA,NA,NA
17a06,"""Richtig""-Screen",canvas.Screen,3_0_1_0_6_0_1,NA,NA,skipped,NA,422442,NA,NA,422438,422442,2023-10-02T13:32:49Z,422440.14,NULL,Vergnügen,kichekesho,d,NA,NA,NA,NA,sdfdsf,NA,1,NA,NA,NA,NA,NA,NA,NA,NA,NA,NA,NA,NA,NA,NA,NA,NA,NA,NA,NA
17a06,"""Falsch""-Screen",canvas.Screen,3_0_1_0_6_0_2,NA,NA,timeout,4999.38,422445,422435.12,422440.14,427418.7,427423,2023-10-02T13:32:54Z,427439.52,NULL,Vergnügen,kichekesho,d,NA,NA,NA,NA,sdfdsf,0,1,NA,NA,NA,NA,NA,NA,NA,NA,NA,NA,NA,NA,NA,NA,NA,NA,NA,NA,NA
17a06,deep,flow.Sequence,3_0_1_0_6_0,NA,NA,completion,14894.52,412506,412503.36,412524.18,427418.7,427424,2023-10-02T13:32:54Z,427439.52,NULL,Vergnügen,kichekesho,d,NA,NA,NA,NA,sdfdsf,NA,1,NA,NA,NA,NA,NA,NA,NA,NA,NA,NA,NA,NA,NA,NA,NA,NA,NA,NA,NA
17a06,shallow,flow.Sequence,3_0_1_0_6_1,NA,NA,skipped,NA,427426,NA,NA,427418.7,427426,2023-10-02T13:32:54Z,427439.52,NULL,Vergnügen,kichekesho,d,NA,NA,NA,NA,sdfdsf,NA,1,NA,NA,NA,NA,NA,NA,NA,NA,NA,NA,NA,NA,NA,NA,NA,NA,NA,NA,NA
17a06,task,flow.Sequence,3_0_1_0_6,NA,NA,completion,14894.52,412506,412503.36,412524.18,427418.7,427426,2023-10-02T13:32:54Z,427439.52,NULL,Vergnügen,kichekesho,d,NA,NA,NA,NA,sdfdsf,NA,1,NA,NA,NA,NA,NA,NA,NA,NA,NA,NA,NA,NA,NA,NA,NA,NA,NA,NA,NA
17a06,deep,flow.Sequence,3_0_1_0_7_0,NA,NA,skipped,NA,427427,NA,NA,427418.7,427427,2023-10-02T13:32:54Z,427439.52,NULL,Ergänzung,kijalizo,s,ulaghai,mustarehe,matangazo,NA,sdfdsf,NA,1,NA,NA,NA,NA,NA,NA,NA,NA,NA,NA,NA,NA,NA,NA,NA,NA,NA,NA,NA
17a06,Shallow Question,html.Page,3_0_1_0_7_1_0,NA,NA,form submission,12862.48,427427,427418.7,427439.52,440302,440303,2023-10-02T13:33:06Z,440315.74,NULL,Ergänzung,kijalizo,s,ulaghai,mustarehe,matangazo,ulaghai,NA,NA,1,NA,NA,NA,NA,NA,NA,NA,NA,NA,NA,NA,NA,NA,NA,NA,NA,NA,NA,NA
17a06,"""Richtig""-Screen",canvas.Screen,3_0_1_0_7_1_1,NA,NA,skipped,NA,440311,NA,NA,440302,440311,2023-10-02T13:33:06Z,440315.74,NULL,Ergänzung,kijalizo,s,ulaghai,mustarehe,matangazo,NA,sdfdsf,NA,1,NA,NA,NA,NA,NA,NA,NA,NA,NA,NA,NA,NA,NA,NA,NA,NA,NA,NA,NA
17a06,"""Falsch""-Screen",canvas.Screen,3_0_1_0_7_1_2,NA,NA,timeout,4999.66,440314,440294.08,440315.74,445294.56,445297,2023-10-02T13:33:11Z,445315.4,NULL,Ergänzung,kijalizo,s,ulaghai,mustarehe,matangazo,NA,sdfdsf,0,1,NA,NA,NA,NA,NA,NA,NA,NA,NA,NA,NA,NA,NA,NA,NA,NA,NA,NA,NA
17a06,shallow,flow.Sequence,3_0_1_0_7_1,NA,NA,completion,17855.04,427427,427418.7,427439.52,445294.56,445298,2023-10-02T13:33:11Z,445315.4,NULL,Ergänzung,kijalizo,s,ulaghai,mustarehe,matangazo,NA,sdfdsf,NA,1,NA,NA,NA,NA,NA,NA,NA,NA,NA,NA,NA,NA,NA,NA,NA,NA,NA,NA,NA
17a06,task,flow.Sequence,3_0_1_0_7,NA,NA,completion,17855.04,427427,427418.7,427439.52,445294.56,445298,2023-10-02T13:33:11Z,445315.4,NULL,Ergänzung,kijalizo,s,ulaghai,mustarehe,matangazo,NA,sdfdsf,NA,1,NA,NA,NA,NA,NA,NA,NA,NA,NA,NA,NA,NA,NA,NA,NA,NA,NA,NA,NA
17a06,block,flow.Loop,3_0_1_0,NA,NA,completion,125625.04,319658,319658.42,319669.52,445294.56,445300,2023-10-02T13:33:11Z,445315.4,NULL,NA,NA,NA,NA,NA,NA,NA,sdfdsf,NA,1,NA,NA,NA,NA,NA,NA,NA,NA,NA,NA,NA,NA,NA,NA,NA,NA,NA,NA,NA
17a06,weiter,canvas.Screen,3_0_1_1,sdf,keypress(Space),response,2412.6,445300,445294.56,445315.4,447728,447743,2023-10-02T13:33:14Z,447815.84,NULL,NA,NA,NA,NA,NA,NA,NA,sdfdsf,NA,1,NA,NA,NA,NA,NA,NA,NA,NA,NA,NA,NA,NA,NA,NA,NA,NA,NA,NA,NA
17a06,check continue,flow.Sequence,3_0_1,NA,NA,completion,128058.48,319658,319658.42,319669.52,447728,447743,2023-10-02T13:33:14Z,447815.84,NULL,NA,NA,NA,NA,NA,NA,NA,sdfdsf,NA,1,NA,NA,NA,NA,NA,NA,NA,NA,NA,NA,NA,NA,NA,NA,NA,NA,NA,NA,NA
17a06,deep,flow.Sequence,3_0_2_0_0_0,NA,NA,skipped,NA,447796,NA,NA,447728,447796,2023-10-02T13:33:14Z,447815.84,NULL,Stimmung,kinyongo,s,kilekile,kisambo,madhehebu,NA,sdf,NA,2,NA,NA,NA,NA,NA,NA,NA,NA,NA,NA,NA,NA,NA,NA,NA,NA,NA,NA,NA
17a06,Shallow Question,html.Page,3_0_2_0_0_1_0,NA,NA,form submission,9362.16,447796,447796.08,447815.84,457178,457178,2023-10-02T13:33:23Z,457191.04,NULL,Stimmung,kinyongo,s,kilekile,kisambo,madhehebu,kinyongo,NA,NA,2,NA,NA,NA,NA,NA,NA,NA,NA,NA,NA,NA,NA,NA,NA,NA,NA,NA,NA,NA
17a06,"""Richtig""-Screen",canvas.Screen,3_0_2_0_0_1_1,NA,NA,timeout,4999.82,457179,457175.98,457191.04,462170.04,462172,2023-10-02T13:33:28Z,462190.86,NULL,Stimmung,kinyongo,s,kilekile,kisambo,madhehebu,NA,sdf,1,2,NA,NA,NA,NA,NA,NA,NA,NA,NA,NA,NA,NA,NA,NA,NA,NA,NA,NA,NA
17a06,"""Falsch""-Screen",canvas.Screen,3_0_2_0_0_1_2,NA,NA,skipped,NA,462179,NA,NA,462170.04,462179,2023-10-02T13:33:28Z,462190.86,NULL,Stimmung,kinyongo,s,kilekile,kisambo,madhehebu,NA,sdf,NA,2,NA,NA,NA,NA,NA,NA,NA,NA,NA,NA,NA,NA,NA,NA,NA,NA,NA,NA,NA
17a06,shallow,flow.Sequence,3_0_2_0_0_1,NA,NA,completion,14354.2,447796,447796.08,447815.84,462170.04,462179,2023-10-02T13:33:28Z,462190.86,NULL,Stimmung,kinyongo,s,kilekile,kisambo,madhehebu,NA,sdf,NA,2,NA,NA,NA,NA,NA,NA,NA,NA,NA,NA,NA,NA,NA,NA,NA,NA,NA,NA,NA
17a06,task,flow.Sequence,3_0_2_0_0,NA,NA,completion,14354.2,447796,447796.08,447815.84,462170.04,462179,2023-10-02T13:33:28Z,462190.86,NULL,Stimmung,kinyongo,s,kilekile,kisambo,madhehebu,NA,sdf,NA,2,NA,NA,NA,NA,NA,NA,NA,NA,NA,NA,NA,NA,NA,NA,NA,NA,NA,NA,NA
17a06,deep,flow.Sequence,3_0_2_0_1_0,NA,NA,skipped,NA,462180,NA,NA,462170.04,462181,2023-10-02T13:33:28Z,462190.86,NULL,Betrüger,mdanganyifu,s,mwanamuziki,wastani,mahakama,NA,sdf,NA,2,NA,NA,NA,NA,NA,NA,NA,NA,NA,NA,NA,NA,NA,NA,NA,NA,NA,NA,NA
17a06,Shallow Question,html.Page,3_0_2_0_1_1_0,NA,NA,form submission,13432.14,462181,462170.04,462190.86,475623,475624,2023-10-02T13:33:42Z,475627.82,NULL,Betrüger,mdanganyifu,s,mwanamuziki,wastani,mahakama,mdanganyifu,NA,NA,2,NA,NA,NA,NA,NA,NA,NA,NA,NA,NA,NA,NA,NA,NA,NA,NA,NA,NA,NA
17a06,"""Richtig""-Screen",canvas.Screen,3_0_2_0_1_1_1,NA,NA,timeout,4999.62,475629,475618.56,475627.82,480606.6,480609,2023-10-02T13:33:47Z,480627.44,NULL,Betrüger,mdanganyifu,s,mwanamuziki,wastani,mahakama,NA,sdf,1,2,NA,NA,NA,NA,NA,NA,NA,NA,NA,NA,NA,NA,NA,NA,NA,NA,NA,NA,NA
17a06,"""Falsch""-Screen",canvas.Screen,3_0_2_0_1_1_2,NA,NA,skipped,NA,480614,NA,NA,480606.6,480615,2023-10-02T13:33:47Z,480627.44,NULL,Betrüger,mdanganyifu,s,mwanamuziki,wastani,mahakama,NA,sdf,NA,2,NA,NA,NA,NA,NA,NA,NA,NA,NA,NA,NA,NA,NA,NA,NA,NA,NA,NA,NA
17a06,shallow,flow.Sequence,3_0_2_0_1_1,NA,NA,completion,18415.74,462181,462170.04,462190.86,480606.6,480615,2023-10-02T13:33:47Z,480627.44,NULL,Betrüger,mdanganyifu,s,mwanamuziki,wastani,mahakama,NA,sdf,NA,2,NA,NA,NA,NA,NA,NA,NA,NA,NA,NA,NA,NA,NA,NA,NA,NA,NA,NA,NA
17a06,task,flow.Sequence,3_0_2_0_1,NA,NA,completion,18415.74,462179,462170.04,462190.86,480606.6,480616,2023-10-02T13:33:47Z,480627.44,NULL,Betrüger,mdanganyifu,s,mwanamuziki,wastani,mahakama,NA,sdf,NA,2,NA,NA,NA,NA,NA,NA,NA,NA,NA,NA,NA,NA,NA,NA,NA,NA,NA,NA,NA
17a06,deep,flow.Sequence,3_0_2_0_2_0,NA,NA,skipped,NA,480616,NA,NA,480606.6,480616,2023-10-02T13:33:47Z,480627.44,NULL,Ergänzung,kijalizo,s,ulaghai,mustarehe,matangazo,NA,sdf,NA,2,NA,NA,NA,NA,NA,NA,NA,NA,NA,NA,NA,NA,NA,NA,NA,NA,NA,NA,NA
17a06,Shallow Question,html.Page,3_0_2_0_2_1_0,NA,NA,form submission,8166.56,480616,480606.6,480627.44,488794,488795,2023-10-02T13:33:55Z,488794.04,NULL,Ergänzung,kijalizo,s,ulaghai,mustarehe,matangazo,kijalizo,NA,NA,2,NA,NA,NA,NA,NA,NA,NA,NA,NA,NA,NA,NA,NA,NA,NA,NA,NA,NA,NA
17a06,"""Richtig""-Screen",canvas.Screen,3_0_2_0_2_1_1,NA,NA,timeout,4999.72,488802,488784.82,488794.04,493772.92,493777,2023-10-02T13:34:00Z,493793.76,NULL,Ergänzung,kijalizo,s,ulaghai,mustarehe,matangazo,NA,sdf,1,2,NA,NA,NA,NA,NA,NA,NA,NA,NA,NA,NA,NA,NA,NA,NA,NA,NA,NA,NA
17a06,"""Falsch""-Screen",canvas.Screen,3_0_2_0_2_1_2,NA,NA,skipped,NA,493784,NA,NA,493772.92,493785,2023-10-02T13:34:00Z,493793.76,NULL,Ergänzung,kijalizo,s,ulaghai,mustarehe,matangazo,NA,sdf,NA,2,NA,NA,NA,NA,NA,NA,NA,NA,NA,NA,NA,NA,NA,NA,NA,NA,NA,NA,NA
17a06,shallow,flow.Sequence,3_0_2_0_2_1,NA,NA,completion,13145.48,480616,480606.6,480627.44,493772.92,493786,2023-10-02T13:34:00Z,493793.76,NULL,Ergänzung,kijalizo,s,ulaghai,mustarehe,matangazo,NA,sdf,NA,2,NA,NA,NA,NA,NA,NA,NA,NA,NA,NA,NA,NA,NA,NA,NA,NA,NA,NA,NA
17a06,task,flow.Sequence,3_0_2_0_2,NA,NA,completion,13145.48,480616,480606.6,480627.44,493772.92,493786,2023-10-02T13:34:00Z,493793.76,NULL,Ergänzung,kijalizo,s,ulaghai,mustarehe,matangazo,NA,sdf,NA,2,NA,NA,NA,NA,NA,NA,NA,NA,NA,NA,NA,NA,NA,NA,NA,NA,NA,NA,NA
17a06,Deep Question,html.Page,3_0_2_0_3_0_0,NA,NA,form submission,51714.24,493787,493772.92,493793.76,545508,545508,2023-10-02T13:34:52Z,545523.54,NULL,Notfall,dharura,d,NA,NA,NA,dadura,NA,NA,2,NA,NA,NA,NA,NA,NA,NA,NA,NA,NA,NA,NA,NA,NA,NA,NA,NA,NA,NA
17a06,"""Richtig""-Screen",canvas.Screen,3_0_2_0_3_0_1,NA,NA,skipped,NA,545510,NA,NA,545508,545510,2023-10-02T13:34:52Z,545523.54,NULL,Notfall,dharura,d,NA,NA,NA,NA,sdf,NA,2,NA,NA,NA,NA,NA,NA,NA,NA,NA,NA,NA,NA,NA,NA,NA,NA,NA,NA,NA
17a06,"""Falsch""-Screen",canvas.Screen,3_0_2_0_3_0_2,NA,NA,timeout,5000.22,545511,545506.3,545523.54,550502.94,550507,2023-10-02T13:34:57Z,550523.76,NULL,Notfall,dharura,d,NA,NA,NA,NA,sdf,0,2,NA,NA,NA,NA,NA,NA,NA,NA,NA,NA,NA,NA,NA,NA,NA,NA,NA,NA,NA
17a06,deep,flow.Sequence,3_0_2_0_3_0,NA,NA,completion,56709.18,493787,493772.92,493793.76,550502.94,550508,2023-10-02T13:34:57Z,550523.76,NULL,Notfall,dharura,d,NA,NA,NA,NA,sdf,NA,2,NA,NA,NA,NA,NA,NA,NA,NA,NA,NA,NA,NA,NA,NA,NA,NA,NA,NA,NA
17a06,shallow,flow.Sequence,3_0_2_0_3_1,NA,NA,skipped,NA,550508,NA,NA,550502.94,550509,2023-10-02T13:34:57Z,550523.76,NULL,Notfall,dharura,d,NA,NA,NA,NA,sdf,NA,2,NA,NA,NA,NA,NA,NA,NA,NA,NA,NA,NA,NA,NA,NA,NA,NA,NA,NA,NA
17a06,task,flow.Sequence,3_0_2_0_3,NA,NA,completion,56709.18,493786,493772.92,493793.76,550502.94,550510,2023-10-02T13:34:57Z,550523.76,NULL,Notfall,dharura,d,NA,NA,NA,NA,sdf,NA,2,NA,NA,NA,NA,NA,NA,NA,NA,NA,NA,NA,NA,NA,NA,NA,NA,NA,NA,NA
17a06,Deep Question,html.Page,3_0_2_0_4_0_0,NA,NA,form submission,28168.24,550512,550502.94,550523.76,578692,578693,2023-10-02T13:35:25Z,578690.6,NULL,Respekt,heshima,d,NA,NA,NA,kezhe,NA,NA,2,NA,NA,NA,NA,NA,NA,NA,NA,NA,NA,NA,NA,NA,NA,NA,NA,NA,NA,NA
17a06,"""Richtig""-Screen",canvas.Screen,3_0_2_0_4_0_1,NA,NA,skipped,NA,578696,NA,NA,578692,578697,2023-10-02T13:35:25Z,578690.6,NULL,Respekt,heshima,d,NA,NA,NA,NA,sdf,NA,2,NA,NA,NA,NA,NA,NA,NA,NA,NA,NA,NA,NA,NA,NA,NA,NA,NA,NA,NA
17a06,"""Falsch""-Screen",canvas.Screen,3_0_2_0_4_0_2,NA,NA,timeout,4999.62,578701,578683.24,578690.6,583669.4,583672,2023-10-02T13:35:30Z,583690.22,NULL,Respekt,heshima,d,NA,NA,NA,NA,sdf,0,2,NA,NA,NA,NA,NA,NA,NA,NA,NA,NA,NA,NA,NA,NA,NA,NA,NA,NA,NA
17a06,deep,flow.Sequence,3_0_2_0_4_0,NA,NA,completion,33145.64,550511,550502.94,550523.76,583669.4,583673,2023-10-02T13:35:30Z,583690.22,NULL,Respekt,heshima,d,NA,NA,NA,NA,sdf,NA,2,NA,NA,NA,NA,NA,NA,NA,NA,NA,NA,NA,NA,NA,NA,NA,NA,NA,NA,NA
17a06,shallow,flow.Sequence,3_0_2_0_4_1,NA,NA,skipped,NA,583673,NA,NA,583669.4,583674,2023-10-02T13:35:30Z,583690.22,NULL,Respekt,heshima,d,NA,NA,NA,NA,sdf,NA,2,NA,NA,NA,NA,NA,NA,NA,NA,NA,NA,NA,NA,NA,NA,NA,NA,NA,NA,NA
17a06,task,flow.Sequence,3_0_2_0_4,NA,NA,completion,33145.64,550511,550502.94,550523.76,583669.4,583674,2023-10-02T13:35:30Z,583690.22,NULL,Respekt,heshima,d,NA,NA,NA,NA,sdf,NA,2,NA,NA,NA,NA,NA,NA,NA,NA,NA,NA,NA,NA,NA,NA,NA,NA,NA,NA,NA
17a06,deep,flow.Sequence,3_0_2_0_5_0,NA,NA,skipped,NA,583674,NA,NA,583669.4,583675,2023-10-02T13:35:30Z,583690.22,NULL,Wohlstand,mafanikio,s,chimbuko,kumbuko,mapwaji,NA,sdf,NA,2,NA,NA,NA,NA,NA,NA,NA,NA,NA,NA,NA,NA,NA,NA,NA,NA,NA,NA,NA
17a06,Shallow Question,html.Page,3_0_2_0_5_1_0,NA,NA,form submission,24970.78,583675,583669.4,583690.22,608661,608661,2023-10-02T13:35:55Z,608670.18,NULL,Wohlstand,mafanikio,s,chimbuko,kumbuko,mapwaji,mafanikio,NA,NA,2,NA,NA,NA,NA,NA,NA,NA,NA,NA,NA,NA,NA,NA,NA,NA,NA,NA,NA,NA
17a06,"""Richtig""-Screen",canvas.Screen,3_0_2_0_5_1_1,NA,NA,timeout,4999.6399999999,608668,608656.26,608670.18,613649,613651,2023-10-02T13:36:00Z,613669.82,NULL,Wohlstand,mafanikio,s,chimbuko,kumbuko,mapwaji,NA,sdf,1,2,NA,NA,NA,NA,NA,NA,NA,NA,NA,NA,NA,NA,NA,NA,NA,NA,NA,NA,NA
17a06,"""Falsch""-Screen",canvas.Screen,3_0_2_0_5_1_2,NA,NA,skipped,NA,613654,NA,NA,613649,613655,2023-10-02T13:36:00Z,613669.82,NULL,Wohlstand,mafanikio,s,chimbuko,kumbuko,mapwaji,NA,sdf,NA,2,NA,NA,NA,NA,NA,NA,NA,NA,NA,NA,NA,NA,NA,NA,NA,NA,NA,NA,NA
17a06,shallow,flow.Sequence,3_0_2_0_5_1,NA,NA,completion,29958.78,583675,583669.4,583690.22,613649,613655,2023-10-02T13:36:00Z,613669.82,NULL,Wohlstand,mafanikio,s,chimbuko,kumbuko,mapwaji,NA,sdf,NA,2,NA,NA,NA,NA,NA,NA,NA,NA,NA,NA,NA,NA,NA,NA,NA,NA,NA,NA,NA
17a06,task,flow.Sequence,3_0_2_0_5,NA,NA,completion,29958.78,583674,583669.4,583690.22,613649,613655,2023-10-02T13:36:00Z,613669.82,NULL,Wohlstand,mafanikio,s,chimbuko,kumbuko,mapwaji,NA,sdf,NA,2,NA,NA,NA,NA,NA,NA,NA,NA,NA,NA,NA,NA,NA,NA,NA,NA,NA,NA,NA
17a06,Deep Question,html.Page,3_0_2_0_6_0_0,NA,NA,form submission,9199.1800000001,613655,613649,613669.82,622869,622869,2023-10-02T13:36:09Z,622878.76,NULL,Orientierung,urekebisho,d,NA,NA,NA,j,NA,NA,2,NA,NA,NA,NA,NA,NA,NA,NA,NA,NA,NA,NA,NA,NA,NA,NA,NA,NA,NA
17a06,"""Richtig""-Screen",canvas.Screen,3_0_2_0_6_0_1,NA,NA,skipped,NA,622872,NA,NA,622869,622872,2023-10-02T13:36:09Z,622878.76,NULL,Orientierung,urekebisho,d,NA,NA,NA,NA,sdf,NA,2,NA,NA,NA,NA,NA,NA,NA,NA,NA,NA,NA,NA,NA,NA,NA,NA,NA,NA,NA
17a06,"""Falsch""-Screen",canvas.Screen,3_0_2_0_6_0_2,NA,NA,timeout,4999.64,622875,622866.64,622878.76,627857.58,627859,2023-10-02T13:36:14Z,627878.4,NULL,Orientierung,urekebisho,d,NA,NA,NA,NA,sdf,0,2,NA,NA,NA,NA,NA,NA,NA,NA,NA,NA,NA,NA,NA,NA,NA,NA,NA,NA,NA
17a06,deep,flow.Sequence,3_0_2_0_6_0,NA,NA,completion,14187.76,613655,613649,613669.82,627857.58,627860,2023-10-02T13:36:14Z,627878.4,NULL,Orientierung,urekebisho,d,NA,NA,NA,NA,sdf,NA,2,NA,NA,NA,NA,NA,NA,NA,NA,NA,NA,NA,NA,NA,NA,NA,NA,NA,NA,NA
17a06,shallow,flow.Sequence,3_0_2_0_6_1,NA,NA,skipped,NA,627860,NA,NA,627857.58,627861,2023-10-02T13:36:14Z,627878.4,NULL,Orientierung,urekebisho,d,NA,NA,NA,NA,sdf,NA,2,NA,NA,NA,NA,NA,NA,NA,NA,NA,NA,NA,NA,NA,NA,NA,NA,NA,NA,NA
17a06,task,flow.Sequence,3_0_2_0_6,NA,NA,completion,14187.76,613655,613649,613669.82,627857.58,627861,2023-10-02T13:36:14Z,627878.4,NULL,Orientierung,urekebisho,d,NA,NA,NA,NA,sdf,NA,2,NA,NA,NA,NA,NA,NA,NA,NA,NA,NA,NA,NA,NA,NA,NA,NA,NA,NA,NA
17a06,Deep Question,html.Page,3_0_2_0_7_0_0,NA,NA,form submission,21218.6,627862,627857.58,627878.4,649097,649097,2023-10-02T13:36:35Z,649107.74,NULL,Vergnügen,kichekesho,d,NA,NA,NA,kururubele,NA,NA,2,NA,NA,NA,NA,NA,NA,NA,NA,NA,NA,NA,NA,NA,NA,NA,NA,NA,NA,NA
17a06,"""Richtig""-Screen",canvas.Screen,3_0_2_0_7_0_1,NA,NA,skipped,NA,649101,NA,NA,649097,649101,2023-10-02T13:36:35Z,649107.74,NULL,Vergnügen,kichekesho,d,NA,NA,NA,NA,sdf,NA,2,NA,NA,NA,NA,NA,NA,NA,NA,NA,NA,NA,NA,NA,NA,NA,NA,NA,NA,NA
17a06,"""Falsch""-Screen",canvas.Screen,3_0_2_0_7_0_2,NA,NA,timeout,4999.6800000001,649104,649093.4,649107.74,654086.6,654088,2023-10-02T13:36:40Z,654107.42,NULL,Vergnügen,kichekesho,d,NA,NA,NA,NA,sdf,0,2,NA,NA,NA,NA,NA,NA,NA,NA,NA,NA,NA,NA,NA,NA,NA,NA,NA,NA,NA
17a06,deep,flow.Sequence,3_0_2_0_7_0,NA,NA,completion,26208.2,627862,627857.58,627878.4,654086.6,654089,2023-10-02T13:36:40Z,654107.42,NULL,Vergnügen,kichekesho,d,NA,NA,NA,NA,sdf,NA,2,NA,NA,NA,NA,NA,NA,NA,NA,NA,NA,NA,NA,NA,NA,NA,NA,NA,NA,NA
17a06,shallow,flow.Sequence,3_0_2_0_7_1,NA,NA,skipped,NA,654089,NA,NA,654086.6,654089,2023-10-02T13:36:40Z,654107.42,NULL,Vergnügen,kichekesho,d,NA,NA,NA,NA,sdf,NA,2,NA,NA,NA,NA,NA,NA,NA,NA,NA,NA,NA,NA,NA,NA,NA,NA,NA,NA,NA
17a06,task,flow.Sequence,3_0_2_0_7,NA,NA,completion,26208.2,627862,627857.58,627878.4,654086.6,654089,2023-10-02T13:36:40Z,654107.42,NULL,Vergnügen,kichekesho,d,NA,NA,NA,NA,sdf,NA,2,NA,NA,NA,NA,NA,NA,NA,NA,NA,NA,NA,NA,NA,NA,NA,NA,NA,NA,NA
17a06,block,flow.Loop,3_0_2_0,NA,NA,completion,206270.76,447796,447796.08,447815.84,654086.6,654090,2023-10-02T13:36:40Z,654107.42,NULL,NA,NA,NA,NA,NA,NA,NA,sdf,NA,2,NA,NA,NA,NA,NA,NA,NA,NA,NA,NA,NA,NA,NA,NA,NA,NA,NA,NA,NA
17a06,weiter,canvas.Screen,3_0_2_1,sdf,keypress(Space),response,2135.58,654090,654086.6,654107.42,656243,656252,2023-10-02T13:36:42Z,656316.4,NULL,NA,NA,NA,NA,NA,NA,NA,sdf,NA,2,NA,NA,NA,NA,NA,NA,NA,NA,NA,NA,NA,NA,NA,NA,NA,NA,NA,NA,NA
17a06,check continue,flow.Sequence,3_0_2,NA,NA,completion,208427.16,447796,447796.08,447815.84,656243,656253,2023-10-02T13:36:42Z,656316.4,NULL,NA,NA,NA,NA,NA,NA,NA,sdf,NA,2,NA,NA,NA,NA,NA,NA,NA,NA,NA,NA,NA,NA,NA,NA,NA,NA,NA,NA,NA
17a06,Deep Question,html.Page,3_0_3_0_0_0_0,NA,NA,form submission,79673.6,656314,656313.56,656316.4,735990,735991,2023-10-02T13:38:02Z,736002.88,NULL,Notfall,dharura,d,NA,NA,NA,dururu,NA,NA,3,NA,NA,NA,NA,NA,NA,NA,NA,NA,NA,NA,NA,NA,NA,NA,NA,NA,NA,NA
17a06,"""Richtig""-Screen",canvas.Screen,3_0_3_0_0_0_1,NA,NA,skipped,NA,735995,NA,NA,735990,735995,2023-10-02T13:38:02Z,736002.88,NULL,Notfall,dharura,d,NA,NA,NA,NA,qt,NA,3,NA,NA,NA,NA,NA,NA,NA,NA,NA,NA,NA,NA,NA,NA,NA,NA,NA,NA,NA
17a06,"""Falsch""-Screen",canvas.Screen,3_0_3_0_0_0_2,NA,NA,timeout,5001.16,735998,735986.82,736002.88,740983.22,740985,2023-10-02T13:38:07Z,741004.04,NULL,Notfall,dharura,d,NA,NA,NA,NA,qt,0,3,NA,NA,NA,NA,NA,NA,NA,NA,NA,NA,NA,NA,NA,NA,NA,NA,NA,NA,NA
17a06,deep,flow.Sequence,3_0_3_0_0_0,NA,NA,completion,84666.82,656314,656313.56,656316.4,740983.22,740987,2023-10-02T13:38:07Z,741004.04,NULL,Notfall,dharura,d,NA,NA,NA,NA,qt,NA,3,NA,NA,NA,NA,NA,NA,NA,NA,NA,NA,NA,NA,NA,NA,NA,NA,NA,NA,NA
17a06,shallow,flow.Sequence,3_0_3_0_0_1,NA,NA,skipped,NA,740987,NA,NA,740983.22,740988,2023-10-02T13:38:07Z,741004.04,NULL,Notfall,dharura,d,NA,NA,NA,NA,qt,NA,3,NA,NA,NA,NA,NA,NA,NA,NA,NA,NA,NA,NA,NA,NA,NA,NA,NA,NA,NA
17a06,task,flow.Sequence,3_0_3_0_0,NA,NA,completion,84666.82,656314,656313.56,656316.4,740983.22,740989,2023-10-02T13:38:07Z,741004.04,NULL,Notfall,dharura,d,NA,NA,NA,NA,qt,NA,3,NA,NA,NA,NA,NA,NA,NA,NA,NA,NA,NA,NA,NA,NA,NA,NA,NA,NA,NA
17a06,deep,flow.Sequence,3_0_3_0_1_0,NA,NA,skipped,NA,740990,NA,NA,740983.22,740990,2023-10-02T13:38:07Z,741004.04,NULL,Stimmung,kinyongo,s,kilekile,kisambo,madhehebu,NA,qt,NA,3,NA,NA,NA,NA,NA,NA,NA,NA,NA,NA,NA,NA,NA,NA,NA,NA,NA,NA,NA
17a06,Shallow Question,html.Page,3_0_3_0_1_1_0,NA,NA,form submission,10514.96,740991,740983.22,741004.04,751519,751520,2023-10-02T13:38:18Z,751523.66,NULL,Stimmung,kinyongo,s,kilekile,kisambo,madhehebu,kinyongo,NA,NA,3,NA,NA,NA,NA,NA,NA,NA,NA,NA,NA,NA,NA,NA,NA,NA,NA,NA,NA,NA
17a06,"""Richtig""-Screen",canvas.Screen,3_0_3_0_1_1_1,NA,NA,timeout,5001.14,751523,751516.62,751523.66,756503.96,756507,2023-10-02T13:38:23Z,756524.8,NULL,Stimmung,kinyongo,s,kilekile,kisambo,madhehebu,NA,qt,1,3,NA,NA,NA,NA,NA,NA,NA,NA,NA,NA,NA,NA,NA,NA,NA,NA,NA,NA,NA
17a06,"""Falsch""-Screen",canvas.Screen,3_0_3_0_1_1_2,NA,NA,skipped,NA,756517,NA,NA,756503.96,756518,2023-10-02T13:38:23Z,756524.8,NULL,Stimmung,kinyongo,s,kilekile,kisambo,madhehebu,NA,qt,NA,3,NA,NA,NA,NA,NA,NA,NA,NA,NA,NA,NA,NA,NA,NA,NA,NA,NA,NA,NA
17a06,shallow,flow.Sequence,3_0_3_0_1_1,NA,NA,completion,15499.92,740991,740983.22,741004.04,756503.96,756518,2023-10-02T13:38:23Z,756524.8,NULL,Stimmung,kinyongo,s,kilekile,kisambo,madhehebu,NA,qt,NA,3,NA,NA,NA,NA,NA,NA,NA,NA,NA,NA,NA,NA,NA,NA,NA,NA,NA,NA,NA
17a06,task,flow.Sequence,3_0_3_0_1,NA,NA,completion,15499.92,740989,740983.22,741004.04,756503.96,756519,2023-10-02T13:38:23Z,756524.8,NULL,Stimmung,kinyongo,s,kilekile,kisambo,madhehebu,NA,qt,NA,3,NA,NA,NA,NA,NA,NA,NA,NA,NA,NA,NA,NA,NA,NA,NA,NA,NA,NA,NA
17a06,deep,flow.Sequence,3_0_3_0_2_0,NA,NA,skipped,NA,756519,NA,NA,756503.96,756520,2023-10-02T13:38:23Z,756524.8,NULL,Betrüger,mdanganyifu,s,mwanamuziki,wastani,mahakama,NA,qt,NA,3,NA,NA,NA,NA,NA,NA,NA,NA,NA,NA,NA,NA,NA,NA,NA,NA,NA,NA,NA
17a06,Shallow Question,html.Page,3_0_3_0_2_1_0,NA,NA,form submission,8280.2,756520,756503.96,756524.8,764805,764809,2023-10-02T13:38:31Z,764816.42,NULL,Betrüger,mdanganyifu,s,mwanamuziki,wastani,mahakama,mdanganyifu,NA,NA,3,NA,NA,NA,NA,NA,NA,NA,NA,NA,NA,NA,NA,NA,NA,NA,NA,NA,NA,NA
17a06,"""Richtig""-Screen",canvas.Screen,3_0_3_0_2_1_1,NA,NA,timeout,4999.7999999999,764817,764794.7,764816.42,769795.4,769798,2023-10-02T13:38:36Z,769816.22,NULL,Betrüger,mdanganyifu,s,mwanamuziki,wastani,mahakama,NA,qt,1,3,NA,NA,NA,NA,NA,NA,NA,NA,NA,NA,NA,NA,NA,NA,NA,NA,NA,NA,NA
17a06,"""Falsch""-Screen",canvas.Screen,3_0_3_0_2_1_2,NA,NA,skipped,NA,769806,NA,NA,769795.4,769806,2023-10-02T13:38:36Z,769816.22,NULL,Betrüger,mdanganyifu,s,mwanamuziki,wastani,mahakama,NA,qt,NA,3,NA,NA,NA,NA,NA,NA,NA,NA,NA,NA,NA,NA,NA,NA,NA,NA,NA,NA,NA
17a06,shallow,flow.Sequence,3_0_3_0_2_1,NA,NA,completion,13270.6,756520,756503.96,756524.8,769795.4,769807,2023-10-02T13:38:36Z,769816.22,NULL,Betrüger,mdanganyifu,s,mwanamuziki,wastani,mahakama,NA,qt,NA,3,NA,NA,NA,NA,NA,NA,NA,NA,NA,NA,NA,NA,NA,NA,NA,NA,NA,NA,NA
17a06,task,flow.Sequence,3_0_3_0_2,NA,NA,completion,13270.6,756519,756503.96,756524.8,769795.4,769807,2023-10-02T13:38:36Z,769816.22,NULL,Betrüger,mdanganyifu,s,mwanamuziki,wastani,mahakama,NA,qt,NA,3,NA,NA,NA,NA,NA,NA,NA,NA,NA,NA,NA,NA,NA,NA,NA,NA,NA,NA,NA
17a06,Deep Question,html.Page,3_0_3_0_3_0_0,NA,NA,form submission,7346.78,769808,769795.4,769816.22,777163,777163,2023-10-02T13:38:43Z,777170.74,NULL,Respekt,heshima,d,NA,NA,NA,heshima,NA,NA,3,NA,NA,NA,NA,NA,NA,NA,NA,NA,NA,NA,NA,NA,NA,NA,NA,NA,NA,NA
17a06,"""Richtig""-Screen",canvas.Screen,3_0_3_0_3_0_1,NA,NA,timeout,4999.4,777165,777161.08,777170.74,782149.32,782151,2023-10-02T13:38:48Z,782170.14,NULL,Respekt,heshima,d,NA,NA,NA,NA,qt,1,3,NA,NA,NA,NA,NA,NA,NA,NA,NA,NA,NA,NA,NA,NA,NA,NA,NA,NA,NA
17a06,"""Falsch""-Screen",canvas.Screen,3_0_3_0_3_0_2,NA,NA,skipped,NA,782154,NA,NA,782149.32,782154,2023-10-02T13:38:48Z,782170.14,NULL,Respekt,heshima,d,NA,NA,NA,NA,qt,NA,3,NA,NA,NA,NA,NA,NA,NA,NA,NA,NA,NA,NA,NA,NA,NA,NA,NA,NA,NA
17a06,deep,flow.Sequence,3_0_3_0_3_0,NA,NA,completion,12333.1,769807,769795.4,769816.22,782149.32,782154,2023-10-02T13:38:48Z,782170.14,NULL,Respekt,heshima,d,NA,NA,NA,NA,qt,NA,3,NA,NA,NA,NA,NA,NA,NA,NA,NA,NA,NA,NA,NA,NA,NA,NA,NA,NA,NA
17a06,shallow,flow.Sequence,3_0_3_0_3_1,NA,NA,skipped,NA,782154,NA,NA,782149.32,782155,2023-10-02T13:38:48Z,782170.14,NULL,Respekt,heshima,d,NA,NA,NA,NA,qt,NA,3,NA,NA,NA,NA,NA,NA,NA,NA,NA,NA,NA,NA,NA,NA,NA,NA,NA,NA,NA
17a06,task,flow.Sequence,3_0_3_0_3,NA,NA,completion,12333.1,769807,769795.4,769816.22,782149.32,782155,2023-10-02T13:38:48Z,782170.14,NULL,Respekt,heshima,d,NA,NA,NA,NA,qt,NA,3,NA,NA,NA,NA,NA,NA,NA,NA,NA,NA,NA,NA,NA,NA,NA,NA,NA,NA,NA
17a06,Deep Question,html.Page,3_0_3_0_4_0_0,NA,NA,form submission,45627.86,782156,782149.32,782170.14,827798,827799,2023-10-02T13:39:34Z,827795.48,NULL,Orientierung,urekebisho,d,NA,NA,NA,dharura,NA,NA,3,NA,NA,NA,NA,NA,NA,NA,NA,NA,NA,NA,NA,NA,NA,NA,NA,NA,NA,NA
17a06,"""Richtig""-Screen",canvas.Screen,3_0_3_0_4_0_1,NA,NA,skipped,NA,827802,NA,NA,827798,827803,2023-10-02T13:39:34Z,827795.48,NULL,Orientierung,urekebisho,d,NA,NA,NA,NA,qt,NA,3,NA,NA,NA,NA,NA,NA,NA,NA,NA,NA,NA,NA,NA,NA,NA,NA,NA,NA,NA
17a06,"""Falsch""-Screen",canvas.Screen,3_0_3_0_4_0_2,NA,NA,timeout,4999.64,827806,827792.96,827795.48,832774.3,832777,2023-10-02T13:39:39Z,832795.12,NULL,Orientierung,urekebisho,d,NA,NA,NA,NA,qt,0,3,NA,NA,NA,NA,NA,NA,NA,NA,NA,NA,NA,NA,NA,NA,NA,NA,NA,NA,NA
17a06,deep,flow.Sequence,3_0_3_0_4_0,NA,NA,completion,50604.16,782156,782149.32,782170.14,832774.3,832778,2023-10-02T13:39:39Z,832795.12,NULL,Orientierung,urekebisho,d,NA,NA,NA,NA,qt,NA,3,NA,NA,NA,NA,NA,NA,NA,NA,NA,NA,NA,NA,NA,NA,NA,NA,NA,NA,NA
17a06,shallow,flow.Sequence,3_0_3_0_4_1,NA,NA,skipped,NA,832778,NA,NA,832774.3,832778,2023-10-02T13:39:39Z,832795.12,NULL,Orientierung,urekebisho,d,NA,NA,NA,NA,qt,NA,3,NA,NA,NA,NA,NA,NA,NA,NA,NA,NA,NA,NA,NA,NA,NA,NA,NA,NA,NA
17a06,task,flow.Sequence,3_0_3_0_4,NA,NA,completion,50604.16,782155,782149.32,782170.14,832774.3,832779,2023-10-02T13:39:39Z,832795.12,NULL,Orientierung,urekebisho,d,NA,NA,NA,NA,qt,NA,3,NA,NA,NA,NA,NA,NA,NA,NA,NA,NA,NA,NA,NA,NA,NA,NA,NA,NA,NA
17a06,deep,flow.Sequence,3_0_3_0_5_0,NA,NA,skipped,NA,832780,NA,NA,832774.3,832780,2023-10-02T13:39:39Z,832795.12,NULL,Wohlstand,mafanikio,s,chimbuko,kumbuko,mapwaji,NA,qt,NA,3,NA,NA,NA,NA,NA,NA,NA,NA,NA,NA,NA,NA,NA,NA,NA,NA,NA,NA,NA
17a06,Shallow Question,html.Page,3_0_3_0_5_1_0,NA,NA,form submission,5312.88,832781,832774.3,832795.12,838108,838109,2023-10-02T13:39:44Z,838108.02,NULL,Wohlstand,mafanikio,s,chimbuko,kumbuko,mapwaji,mafanikio,NA,NA,3,NA,NA,NA,NA,NA,NA,NA,NA,NA,NA,NA,NA,NA,NA,NA,NA,NA,NA,NA
17a06,"""Richtig""-Screen",canvas.Screen,3_0_3_0_5_1_1,NA,NA,timeout,4999.6799999999,838114,838102.28,838108.02,843086.88,843089,2023-10-02T13:39:49Z,843107.7,NULL,Wohlstand,mafanikio,s,chimbuko,kumbuko,mapwaji,NA,qt,1,3,NA,NA,NA,NA,NA,NA,NA,NA,NA,NA,NA,NA,NA,NA,NA,NA,NA,NA,NA
17a06,"""Falsch""-Screen",canvas.Screen,3_0_3_0_5_1_2,NA,NA,skipped,NA,843093,NA,NA,843086.88,843094,2023-10-02T13:39:49Z,843107.7,NULL,Wohlstand,mafanikio,s,chimbuko,kumbuko,mapwaji,NA,qt,NA,3,NA,NA,NA,NA,NA,NA,NA,NA,NA,NA,NA,NA,NA,NA,NA,NA,NA,NA,NA
17a06,shallow,flow.Sequence,3_0_3_0_5_1,NA,NA,completion,10291.76,832780,832774.3,832795.12,843086.88,843094,2023-10-02T13:39:49Z,843107.7,NULL,Wohlstand,mafanikio,s,chimbuko,kumbuko,mapwaji,NA,qt,NA,3,NA,NA,NA,NA,NA,NA,NA,NA,NA,NA,NA,NA,NA,NA,NA,NA,NA,NA,NA
17a06,task,flow.Sequence,3_0_3_0_5,NA,NA,completion,10291.76,832780,832774.3,832795.12,843086.88,843094,2023-10-02T13:39:49Z,843107.7,NULL,Wohlstand,mafanikio,s,chimbuko,kumbuko,mapwaji,NA,qt,NA,3,NA,NA,NA,NA,NA,NA,NA,NA,NA,NA,NA,NA,NA,NA,NA,NA,NA,NA,NA
17a06,deep,flow.Sequence,3_0_3_0_6_0,NA,NA,skipped,NA,843096,NA,NA,843086.88,843096,2023-10-02T13:39:49Z,843107.7,NULL,Ergänzung,kijalizo,s,ulaghai,mustarehe,matangazo,NA,qt,NA,3,NA,NA,NA,NA,NA,NA,NA,NA,NA,NA,NA,NA,NA,NA,NA,NA,NA,NA,NA
17a06,Shallow Question,html.Page,3_0_3_0_6_1_0,NA,NA,form submission,6895.3,843096,843086.88,843107.7,850003,850004,2023-10-02T13:39:56Z,850003.42,NULL,Ergänzung,kijalizo,s,ulaghai,mustarehe,matangazo,kijalizo,NA,NA,3,NA,NA,NA,NA,NA,NA,NA,NA,NA,NA,NA,NA,NA,NA,NA,NA,NA,NA,NA
17a06,"""Richtig""-Screen",canvas.Screen,3_0_3_0_6_1_1,NA,NA,timeout,4999.5199999999,850008,850000.16,850003.42,854982.12,854984,2023-10-02T13:40:01Z,855002.94,NULL,Ergänzung,kijalizo,s,ulaghai,mustarehe,matangazo,NA,qt,1,3,NA,NA,NA,NA,NA,NA,NA,NA,NA,NA,NA,NA,NA,NA,NA,NA,NA,NA,NA
17a06,"""Falsch""-Screen",canvas.Screen,3_0_3_0_6_1_2,NA,NA,skipped,NA,854988,NA,NA,854982.12,854988,2023-10-02T13:40:01Z,855002.94,NULL,Ergänzung,kijalizo,s,ulaghai,mustarehe,matangazo,NA,qt,NA,3,NA,NA,NA,NA,NA,NA,NA,NA,NA,NA,NA,NA,NA,NA,NA,NA,NA,NA,NA
17a06,shallow,flow.Sequence,3_0_3_0_6_1,NA,NA,completion,11874.42,843096,843086.88,843107.7,854982.12,854988,2023-10-02T13:40:01Z,855002.94,NULL,Ergänzung,kijalizo,s,ulaghai,mustarehe,matangazo,NA,qt,NA,3,NA,NA,NA,NA,NA,NA,NA,NA,NA,NA,NA,NA,NA,NA,NA,NA,NA,NA,NA
17a06,task,flow.Sequence,3_0_3_0_6,NA,NA,completion,11874.42,843096,843086.88,843107.7,854982.12,854989,2023-10-02T13:40:01Z,855002.94,NULL,Ergänzung,kijalizo,s,ulaghai,mustarehe,matangazo,NA,qt,NA,3,NA,NA,NA,NA,NA,NA,NA,NA,NA,NA,NA,NA,NA,NA,NA,NA,NA,NA,NA
17a06,Deep Question,html.Page,3_0_3_0_7_0_0,NA,NA,form submission,26054.06,854989,854982.12,855002.94,881057,881057,2023-10-02T13:40:27Z,881065.5,NULL,Vergnügen,kichekesho,d,NA,NA,NA,ukumbule,NA,NA,3,NA,NA,NA,NA,NA,NA,NA,NA,NA,NA,NA,NA,NA,NA,NA,NA,NA,NA,NA
17a06,"""Richtig""-Screen",canvas.Screen,3_0_3_0_7_0_1,NA,NA,skipped,NA,881058,NA,NA,881057,881058,2023-10-02T13:40:27Z,881065.5,NULL,Vergnügen,kichekesho,d,NA,NA,NA,NA,qt,NA,3,NA,NA,NA,NA,NA,NA,NA,NA,NA,NA,NA,NA,NA,NA,NA,NA,NA,NA,NA
17a06,"""Falsch""-Screen",canvas.Screen,3_0_3_0_7_0_2,NA,NA,timeout,4999.96,881060,881055.18,881065.5,886044.64,886047,2023-10-02T13:40:32Z,886065.46,NULL,Vergnügen,kichekesho,d,NA,NA,NA,NA,qt,0,3,NA,NA,NA,NA,NA,NA,NA,NA,NA,NA,NA,NA,NA,NA,NA,NA,NA,NA,NA
17a06,deep,flow.Sequence,3_0_3_0_7_0,NA,NA,completion,31041.7,854989,854982.12,855002.94,886044.64,886048,2023-10-02T13:40:32Z,886065.46,NULL,Vergnügen,kichekesho,d,NA,NA,NA,NA,qt,NA,3,NA,NA,NA,NA,NA,NA,NA,NA,NA,NA,NA,NA,NA,NA,NA,NA,NA,NA,NA
17a06,shallow,flow.Sequence,3_0_3_0_7_1,NA,NA,skipped,NA,886048,NA,NA,886044.64,886049,2023-10-02T13:40:32Z,886065.46,NULL,Vergnügen,kichekesho,d,NA,NA,NA,NA,qt,NA,3,NA,NA,NA,NA,NA,NA,NA,NA,NA,NA,NA,NA,NA,NA,NA,NA,NA,NA,NA
17a06,task,flow.Sequence,3_0_3_0_7,NA,NA,completion,31041.7,854989,854982.12,855002.94,886044.64,886049,2023-10-02T13:40:32Z,886065.46,NULL,Vergnügen,kichekesho,d,NA,NA,NA,NA,qt,NA,3,NA,NA,NA,NA,NA,NA,NA,NA,NA,NA,NA,NA,NA,NA,NA,NA,NA,NA,NA
17a06,block,flow.Loop,3_0_3_0,NA,NA,completion,229728.24,656314,656313.56,656316.4,886044.64,886050,2023-10-02T13:40:32Z,886065.46,NULL,NA,NA,NA,NA,NA,NA,NA,qt,NA,3,NA,NA,NA,NA,NA,NA,NA,NA,NA,NA,NA,NA,NA,NA,NA,NA,NA,NA,NA
17a06,weiter,canvas.Screen,3_0_3_1,sdf,keypress(Space),response,1083.54,886050,886044.64,886065.46,887149,887156,2023-10-02T13:40:33Z,887212.52,NULL,NA,NA,NA,NA,NA,NA,NA,qt,NA,3,NA,NA,NA,NA,NA,NA,NA,NA,NA,NA,NA,NA,NA,NA,NA,NA,NA,NA,NA
17a06,check continue,flow.Sequence,3_0_3,NA,NA,completion,230832.6,656314,656313.56,656316.4,887149,887156,2023-10-02T13:40:33Z,887212.52,NULL,NA,NA,NA,NA,NA,NA,NA,qt,NA,3,NA,NA,NA,NA,NA,NA,NA,NA,NA,NA,NA,NA,NA,NA,NA,NA,NA,NA,NA
17a06,deep,flow.Sequence,3_0_4_0_0_0,NA,NA,skipped,NA,887204,NA,NA,887149,887204,2023-10-02T13:40:33Z,887212.52,NULL,Ergänzung,kijalizo,s,ulaghai,mustarehe,matangazo,NA,sd,NA,4,NA,NA,NA,NA,NA,NA,NA,NA,NA,NA,NA,NA,NA,NA,NA,NA,NA,NA,NA
17a06,Shallow Question,html.Page,3_0_4_0_0_1_0,NA,NA,form submission,4399.48,887204,887191.7,887212.52,891612,891612,2023-10-02T13:40:38Z,891629.16,NULL,Ergänzung,kijalizo,s,ulaghai,mustarehe,matangazo,kijalizo,NA,NA,4,NA,NA,NA,NA,NA,NA,NA,NA,NA,NA,NA,NA,NA,NA,NA,NA,NA,NA,NA
17a06,"""Richtig""-Screen",canvas.Screen,3_0_4_0_0_1_1,NA,NA,timeout,4999.4,891615,891608.88,891629.16,896607.74,896610,2023-10-02T13:40:43Z,896628.56,NULL,Ergänzung,kijalizo,s,ulaghai,mustarehe,matangazo,NA,sd,1,4,NA,NA,NA,NA,NA,NA,NA,NA,NA,NA,NA,NA,NA,NA,NA,NA,NA,NA,NA
17a06,"""Falsch""-Screen",canvas.Screen,3_0_4_0_0_1_2,NA,NA,skipped,NA,896612,NA,NA,896607.74,896612,2023-10-02T13:40:43Z,896628.56,NULL,Ergänzung,kijalizo,s,ulaghai,mustarehe,matangazo,NA,sd,NA,4,NA,NA,NA,NA,NA,NA,NA,NA,NA,NA,NA,NA,NA,NA,NA,NA,NA,NA,NA
17a06,shallow,flow.Sequence,3_0_4_0_0_1,NA,NA,completion,9395.22,887204,887191.7,887212.52,896607.74,896614,2023-10-02T13:40:43Z,896628.56,NULL,Ergänzung,kijalizo,s,ulaghai,mustarehe,matangazo,NA,sd,NA,4,NA,NA,NA,NA,NA,NA,NA,NA,NA,NA,NA,NA,NA,NA,NA,NA,NA,NA,NA
17a06,task,flow.Sequence,3_0_4_0_0,NA,NA,completion,9395.22,887204,887191.7,887212.52,896607.74,896614,2023-10-02T13:40:43Z,896628.56,NULL,Ergänzung,kijalizo,s,ulaghai,mustarehe,matangazo,NA,sd,NA,4,NA,NA,NA,NA,NA,NA,NA,NA,NA,NA,NA,NA,NA,NA,NA,NA,NA,NA,NA
17a06,deep,flow.Sequence,3_0_4_0_1_0,NA,NA,skipped,NA,896614,NA,NA,896607.74,896614,2023-10-02T13:40:43Z,896628.56,NULL,Stimmung,kinyongo,s,kilekile,kisambo,madhehebu,NA,sd,NA,4,NA,NA,NA,NA,NA,NA,NA,NA,NA,NA,NA,NA,NA,NA,NA,NA,NA,NA,NA
17a06,Shallow Question,html.Page,3_0_4_0_1_1_0,NA,NA,form submission,3960.4399999999,896615,896607.74,896628.56,900589,900590,2023-10-02T13:40:47Z,900587.6,NULL,Stimmung,kinyongo,s,kilekile,kisambo,madhehebu,kinyongo,NA,NA,4,NA,NA,NA,NA,NA,NA,NA,NA,NA,NA,NA,NA,NA,NA,NA,NA,NA,NA,NA
17a06,"""Richtig""-Screen",canvas.Screen,3_0_4_0_1_1_1,NA,NA,timeout,4999.66,900593,900583.42,900587.6,905566.44,905572,2023-10-02T13:40:52Z,905587.26,NULL,Stimmung,kinyongo,s,kilekile,kisambo,madhehebu,NA,sd,1,4,NA,NA,NA,NA,NA,NA,NA,NA,NA,NA,NA,NA,NA,NA,NA,NA,NA,NA,NA
17a06,"""Falsch""-Screen",canvas.Screen,3_0_4_0_1_1_2,NA,NA,skipped,NA,905589,NA,NA,905566.44,905589,2023-10-02T13:40:52Z,905587.26,NULL,Stimmung,kinyongo,s,kilekile,kisambo,madhehebu,NA,sd,NA,4,NA,NA,NA,NA,NA,NA,NA,NA,NA,NA,NA,NA,NA,NA,NA,NA,NA,NA,NA
17a06,shallow,flow.Sequence,3_0_4_0_1_1,NA,NA,completion,8937.8799999999,896615,896607.74,896628.56,905566.44,905590,2023-10-02T13:40:52Z,905587.26,NULL,Stimmung,kinyongo,s,kilekile,kisambo,madhehebu,NA,sd,NA,4,NA,NA,NA,NA,NA,NA,NA,NA,NA,NA,NA,NA,NA,NA,NA,NA,NA,NA,NA
17a06,task,flow.Sequence,3_0_4_0_1,NA,NA,completion,8937.8799999999,896614,896607.74,896628.56,905566.44,905590,2023-10-02T13:40:52Z,905587.26,NULL,Stimmung,kinyongo,s,kilekile,kisambo,madhehebu,NA,sd,NA,4,NA,NA,NA,NA,NA,NA,NA,NA,NA,NA,NA,NA,NA,NA,NA,NA,NA,NA,NA
17a06,deep,flow.Sequence,3_0_4_0_2_0,NA,NA,skipped,NA,905590,NA,NA,905566.44,905590,2023-10-02T13:40:52Z,905587.26,NULL,Wohlstand,mafanikio,s,chimbuko,kumbuko,mapwaji,NA,sd,NA,4,NA,NA,NA,NA,NA,NA,NA,NA,NA,NA,NA,NA,NA,NA,NA,NA,NA,NA,NA
17a06,Shallow Question,html.Page,3_0_4_0_2_1_0,NA,NA,form submission,4276.74,905590,905566.44,905587.26,909864,909865,2023-10-02T13:40:56Z,909857.88,NULL,Wohlstand,mafanikio,s,chimbuko,kumbuko,mapwaji,mafanikio,NA,NA,4,NA,NA,NA,NA,NA,NA,NA,NA,NA,NA,NA,NA,NA,NA,NA,NA,NA,NA,NA
17a06,"""Richtig""-Screen",canvas.Screen,3_0_4_0_2_1_1,NA,NA,timeout,5000.6800000001,909869,909856.84,909857.88,914837.82,914839,2023-10-02T13:41:01Z,914858.56,NULL,Wohlstand,mafanikio,s,chimbuko,kumbuko,mapwaji,NA,sd,1,4,NA,NA,NA,NA,NA,NA,NA,NA,NA,NA,NA,NA,NA,NA,NA,NA,NA,NA,NA
17a06,"""Falsch""-Screen",canvas.Screen,3_0_4_0_2_1_2,NA,NA,skipped,NA,914847,NA,NA,914837.82,914848,2023-10-02T13:41:01Z,914858.56,NULL,Wohlstand,mafanikio,s,chimbuko,kumbuko,mapwaji,NA,sd,NA,4,NA,NA,NA,NA,NA,NA,NA,NA,NA,NA,NA,NA,NA,NA,NA,NA,NA,NA,NA
17a06,shallow,flow.Sequence,3_0_4_0_2_1,NA,NA,completion,9250.5599999999,905590,905566.44,905587.26,914837.82,914849,2023-10-02T13:41:01Z,914858.56,NULL,Wohlstand,mafanikio,s,chimbuko,kumbuko,mapwaji,NA,sd,NA,4,NA,NA,NA,NA,NA,NA,NA,NA,NA,NA,NA,NA,NA,NA,NA,NA,NA,NA,NA
17a06,task,flow.Sequence,3_0_4_0_2,NA,NA,completion,9250.5599999999,905590,905566.44,905587.26,914837.82,914849,2023-10-02T13:41:01Z,914858.56,NULL,Wohlstand,mafanikio,s,chimbuko,kumbuko,mapwaji,NA,sd,NA,4,NA,NA,NA,NA,NA,NA,NA,NA,NA,NA,NA,NA,NA,NA,NA,NA,NA,NA,NA
17a06,deep,flow.Sequence,3_0_4_0_3_0,NA,NA,skipped,NA,914849,NA,NA,914837.82,914849,2023-10-02T13:41:01Z,914858.56,NULL,Betrüger,mdanganyifu,s,mwanamuziki,wastani,mahakama,NA,sd,NA,4,NA,NA,NA,NA,NA,NA,NA,NA,NA,NA,NA,NA,NA,NA,NA,NA,NA,NA,NA
17a06,Shallow Question,html.Page,3_0_4_0_3_1_0,NA,NA,form submission,17739.44,914850,914837.82,914858.56,932598,932599,2023-10-02T13:41:19Z,932607.9,NULL,Betrüger,mdanganyifu,s,mwanamuziki,wastani,mahakama,mdanganyifu,NA,NA,4,NA,NA,NA,NA,NA,NA,NA,NA,NA,NA,NA,NA,NA,NA,NA,NA,NA,NA,NA
17a06,"""Richtig""-Screen",canvas.Screen,3_0_4_0_3_1_1,NA,NA,timeout,4999.58,932606,932593.5,932607.9,937586.66,937589,2023-10-02T13:41:24Z,937607.48,NULL,Betrüger,mdanganyifu,s,mwanamuziki,wastani,mahakama,NA,sd,1,4,NA,NA,NA,NA,NA,NA,NA,NA,NA,NA,NA,NA,NA,NA,NA,NA,NA,NA,NA
17a06,"""Falsch""-Screen",canvas.Screen,3_0_4_0_3_1_2,NA,NA,skipped,NA,937593,NA,NA,937586.66,937594,2023-10-02T13:41:24Z,937607.48,NULL,Betrüger,mdanganyifu,s,mwanamuziki,wastani,mahakama,NA,sd,NA,4,NA,NA,NA,NA,NA,NA,NA,NA,NA,NA,NA,NA,NA,NA,NA,NA,NA,NA,NA
17a06,shallow,flow.Sequence,3_0_4_0_3_1,NA,NA,completion,22728.1,914850,914837.82,914858.56,937586.66,937594,2023-10-02T13:41:24Z,937607.48,NULL,Betrüger,mdanganyifu,s,mwanamuziki,wastani,mahakama,NA,sd,NA,4,NA,NA,NA,NA,NA,NA,NA,NA,NA,NA,NA,NA,NA,NA,NA,NA,NA,NA,NA
17a06,task,flow.Sequence,3_0_4_0_3,NA,NA,completion,22728.1,914849,914837.82,914858.56,937586.66,937594,2023-10-02T13:41:24Z,937607.48,NULL,Betrüger,mdanganyifu,s,mwanamuziki,wastani,mahakama,NA,sd,NA,4,NA,NA,NA,NA,NA,NA,NA,NA,NA,NA,NA,NA,NA,NA,NA,NA,NA,NA,NA
17a06,Deep Question,html.Page,3_0_4_0_4_0_0,NA,NA,form submission,6536.52,937594,937586.66,937607.48,944144,944145,2023-10-02T13:41:30Z,944149.58,NULL,Notfall,dharura,d,NA,NA,NA,urulele,NA,NA,4,NA,NA,NA,NA,NA,NA,NA,NA,NA,NA,NA,NA,NA,NA,NA,NA,NA,NA,NA
17a06,"""Richtig""-Screen",canvas.Screen,3_0_4_0_4_0_1,NA,NA,skipped,NA,944146,NA,NA,944144,944146,2023-10-02T13:41:30Z,944149.58,NULL,Notfall,dharura,d,NA,NA,NA,NA,sd,NA,4,NA,NA,NA,NA,NA,NA,NA,NA,NA,NA,NA,NA,NA,NA,NA,NA,NA,NA,NA
17a06,"""Falsch""-Screen",canvas.Screen,3_0_4_0_4_0_2,NA,NA,timeout,4999.64,944148,944143.18,944149.58,949128.38,949131,2023-10-02T13:41:35Z,949149.22,NULL,Notfall,dharura,d,NA,NA,NA,NA,sd,0,4,NA,NA,NA,NA,NA,NA,NA,NA,NA,NA,NA,NA,NA,NA,NA,NA,NA,NA,NA
17a06,deep,flow.Sequence,3_0_4_0_4_0,NA,NA,completion,11520.9,937594,937586.66,937607.48,949128.38,949132,2023-10-02T13:41:35Z,949149.22,NULL,Notfall,dharura,d,NA,NA,NA,NA,sd,NA,4,NA,NA,NA,NA,NA,NA,NA,NA,NA,NA,NA,NA,NA,NA,NA,NA,NA,NA,NA
17a06,shallow,flow.Sequence,3_0_4_0_4_1,NA,NA,skipped,NA,949133,NA,NA,949128.38,949133,2023-10-02T13:41:35Z,949149.22,NULL,Notfall,dharura,d,NA,NA,NA,NA,sd,NA,4,NA,NA,NA,NA,NA,NA,NA,NA,NA,NA,NA,NA,NA,NA,NA,NA,NA,NA,NA
17a06,task,flow.Sequence,3_0_4_0_4,NA,NA,completion,11520.9,937594,937586.66,937607.48,949128.38,949134,2023-10-02T13:41:35Z,949149.22,NULL,Notfall,dharura,d,NA,NA,NA,NA,sd,NA,4,NA,NA,NA,NA,NA,NA,NA,NA,NA,NA,NA,NA,NA,NA,NA,NA,NA,NA,NA
17a06,Deep Question,html.Page,3_0_4_0_5_0_0,NA,NA,form submission,8740.78,949135,949128.38,949149.22,957890,957891,2023-10-02T13:41:44Z,957899.4,NULL,Vergnügen,kichekesho,d,NA,NA,NA,urulele,NA,NA,4,NA,NA,NA,NA,NA,NA,NA,NA,NA,NA,NA,NA,NA,NA,NA,NA,NA,NA,NA
17a06,"""Richtig""-Screen",canvas.Screen,3_0_4_0_5_0_1,NA,NA,skipped,NA,957892,NA,NA,957890,957892,2023-10-02T13:41:44Z,957899.4,NULL,Vergnügen,kichekesho,d,NA,NA,NA,NA,sd,NA,4,NA,NA,NA,NA,NA,NA,NA,NA,NA,NA,NA,NA,NA,NA,NA,NA,NA,NA,NA
17a06,"""Falsch""-Screen",canvas.Screen,3_0_4_0_5_0_2,NA,NA,timeout,5000.12,957896,957887.52,957899.4,962878.7,962885,2023-10-02T13:41:49Z,962899.52,NULL,Vergnügen,kichekesho,d,NA,NA,NA,NA,sd,0,4,NA,NA,NA,NA,NA,NA,NA,NA,NA,NA,NA,NA,NA,NA,NA,NA,NA,NA,NA
17a06,deep,flow.Sequence,3_0_4_0_5_0,NA,NA,completion,13729.48,949135,949128.38,949149.22,962878.7,962889,2023-10-02T13:41:49Z,962899.52,NULL,Vergnügen,kichekesho,d,NA,NA,NA,NA,sd,NA,4,NA,NA,NA,NA,NA,NA,NA,NA,NA,NA,NA,NA,NA,NA,NA,NA,NA,NA,NA
17a06,shallow,flow.Sequence,3_0_4_0_5_1,NA,NA,skipped,NA,962890,NA,NA,962878.7,962891,2023-10-02T13:41:49Z,962899.52,NULL,Vergnügen,kichekesho,d,NA,NA,NA,NA,sd,NA,4,NA,NA,NA,NA,NA,NA,NA,NA,NA,NA,NA,NA,NA,NA,NA,NA,NA,NA,NA
17a06,task,flow.Sequence,3_0_4_0_5,NA,NA,completion,13729.48,949135,949128.38,949149.22,962878.7,962892,2023-10-02T13:41:49Z,962899.52,NULL,Vergnügen,kichekesho,d,NA,NA,NA,NA,sd,NA,4,NA,NA,NA,NA,NA,NA,NA,NA,NA,NA,NA,NA,NA,NA,NA,NA,NA,NA,NA
17a06,Deep Question,html.Page,3_0_4_0_6_0_0,NA,NA,form submission,5063.48,962893,962878.7,962899.52,967963,967963,2023-10-02T13:41:54Z,967962.06,NULL,Respekt,heshima,d,NA,NA,NA,heshima,NA,NA,4,NA,NA,NA,NA,NA,NA,NA,NA,NA,NA,NA,NA,NA,NA,NA,NA,NA,NA,NA
17a06,"""Richtig""-Screen",canvas.Screen,3_0_4_0_6_0_1,NA,NA,timeout,4999.62,967967,967960.96,967962.06,972940.86,972944,2023-10-02T13:41:59Z,972961.68,NULL,Respekt,heshima,d,NA,NA,NA,NA,sd,1,4,NA,NA,NA,NA,NA,NA,NA,NA,NA,NA,NA,NA,NA,NA,NA,NA,NA,NA,NA
17a06,"""Falsch""-Screen",canvas.Screen,3_0_4_0_6_0_2,NA,NA,skipped,NA,972947,NA,NA,972940.86,972947,2023-10-02T13:41:59Z,972961.68,NULL,Respekt,heshima,d,NA,NA,NA,NA,sd,NA,4,NA,NA,NA,NA,NA,NA,NA,NA,NA,NA,NA,NA,NA,NA,NA,NA,NA,NA,NA
17a06,deep,flow.Sequence,3_0_4_0_6_0,NA,NA,completion,10041.34,962893,962878.7,962899.52,972940.86,972948,2023-10-02T13:41:59Z,972961.68,NULL,Respekt,heshima,d,NA,NA,NA,NA,sd,NA,4,NA,NA,NA,NA,NA,NA,NA,NA,NA,NA,NA,NA,NA,NA,NA,NA,NA,NA,NA
17a06,shallow,flow.Sequence,3_0_4_0_6_1,NA,NA,skipped,NA,972948,NA,NA,972940.86,972948,2023-10-02T13:41:59Z,972961.68,NULL,Respekt,heshima,d,NA,NA,NA,NA,sd,NA,4,NA,NA,NA,NA,NA,NA,NA,NA,NA,NA,NA,NA,NA,NA,NA,NA,NA,NA,NA
17a06,task,flow.Sequence,3_0_4_0_6,NA,NA,completion,10041.34,962893,962878.7,962899.52,972940.86,972948,2023-10-02T13:41:59Z,972961.68,NULL,Respekt,heshima,d,NA,NA,NA,NA,sd,NA,4,NA,NA,NA,NA,NA,NA,NA,NA,NA,NA,NA,NA,NA,NA,NA,NA,NA,NA,NA
17a06,Deep Question,html.Page,3_0_4_0_7_0_0,NA,NA,form submission,29892.32,972948,972940.86,972961.68,1002854,1002855,2023-10-02T13:42:29Z,1002857.82,NULL,Orientierung,urekebisho,d,NA,NA,NA,darubesho,NA,NA,4,NA,NA,NA,NA,NA,NA,NA,NA,NA,NA,NA,NA,NA,NA,NA,NA,NA,NA,NA
17a06,"""Richtig""-Screen",canvas.Screen,3_0_4_0_7_0_1,NA,NA,skipped,NA,1002858,NA,NA,1002854,1002858,2023-10-02T13:42:29Z,1002857.82,NULL,Orientierung,urekebisho,d,NA,NA,NA,NA,sd,NA,4,NA,NA,NA,NA,NA,NA,NA,NA,NA,NA,NA,NA,NA,NA,NA,NA,NA,NA,NA
17a06,"""Falsch""-Screen",canvas.Screen,3_0_4_0_7_0_2,NA,NA,timeout,4999.4400000001,1002861,1002851.54,1002857.82,1007836.44,1007839,2023-10-02T13:42:34Z,1007857.26,NULL,Orientierung,urekebisho,d,NA,NA,NA,NA,sd,0,4,NA,NA,NA,NA,NA,NA,NA,NA,NA,NA,NA,NA,NA,NA,NA,NA,NA,NA,NA
17a06,deep,flow.Sequence,3_0_4_0_7_0,NA,NA,completion,34874.76,972948,972940.86,972961.68,1007836.44,1007840,2023-10-02T13:42:34Z,1007857.26,NULL,Orientierung,urekebisho,d,NA,NA,NA,NA,sd,NA,4,NA,NA,NA,NA,NA,NA,NA,NA,NA,NA,NA,NA,NA,NA,NA,NA,NA,NA,NA
17a06,shallow,flow.Sequence,3_0_4_0_7_1,NA,NA,skipped,NA,1007841,NA,NA,1007836.44,1007841,2023-10-02T13:42:34Z,1007857.26,NULL,Orientierung,urekebisho,d,NA,NA,NA,NA,sd,NA,4,NA,NA,NA,NA,NA,NA,NA,NA,NA,NA,NA,NA,NA,NA,NA,NA,NA,NA,NA
17a06,task,flow.Sequence,3_0_4_0_7,NA,NA,completion,34874.76,972948,972940.86,972961.68,1007836.44,1007842,2023-10-02T13:42:34Z,1007857.26,NULL,Orientierung,urekebisho,d,NA,NA,NA,NA,sd,NA,4,NA,NA,NA,NA,NA,NA,NA,NA,NA,NA,NA,NA,NA,NA,NA,NA,NA,NA,NA
17a06,block,flow.Loop,3_0_4_0,NA,NA,completion,120623.92,887204,887191.7,887212.52,1007836.44,1007843,2023-10-02T13:42:34Z,1007857.26,NULL,NA,NA,NA,NA,NA,NA,NA,sd,NA,4,NA,NA,NA,NA,NA,NA,NA,NA,NA,NA,NA,NA,NA,NA,NA,NA,NA,NA,NA
17a06,weiter,canvas.Screen,3_0_4_1,sdf,keypress(Space),response,1244.74,1007843,1007836.44,1007857.26,1009102,1009111,2023-10-02T13:42:35Z,1009170.84,NULL,NA,NA,NA,NA,NA,NA,NA,sd,NA,4,NA,NA,NA,NA,NA,NA,NA,NA,NA,NA,NA,NA,NA,NA,NA,NA,NA,NA,NA
17a06,check continue,flow.Sequence,3_0_4,NA,NA,completion,121889.48,887204,887191.7,887212.52,1009102,1009111,2023-10-02T13:42:35Z,1009170.84,NULL,NA,NA,NA,NA,NA,NA,NA,sd,NA,4,NA,NA,NA,NA,NA,NA,NA,NA,NA,NA,NA,NA,NA,NA,NA,NA,NA,NA,NA
17a06,deep,flow.Sequence,3_0_5_0_0_0,NA,NA,skipped,NA,1009160,NA,NA,1009102,1009160,2023-10-02T13:42:35Z,1009170.84,NULL,Ergänzung,kijalizo,s,ulaghai,mustarehe,matangazo,NA,sdf,NA,5,NA,NA,NA,NA,NA,NA,NA,NA,NA,NA,NA,NA,NA,NA,NA,NA,NA,NA,NA
17a06,Shallow Question,html.Page,3_0_5_0_0_1_0,NA,NA,form submission,7232.16,1009160,1009160.1,1009170.84,1016403,1016403,2023-10-02T13:42:43Z,1016399.76,NULL,Ergänzung,kijalizo,s,ulaghai,mustarehe,matangazo,kijalizo,NA,NA,5,NA,NA,NA,NA,NA,NA,NA,NA,NA,NA,NA,NA,NA,NA,NA,NA,NA,NA,NA
17a06,"""Richtig""-Screen",canvas.Screen,3_0_5_0_0_1_1,NA,NA,timeout,5000.64,1016407,1016397.92,1016399.76,1021379.58,1021380,2023-10-02T13:42:48Z,1021400.4,NULL,Ergänzung,kijalizo,s,ulaghai,mustarehe,matangazo,NA,sdf,1,5,NA,NA,NA,NA,NA,NA,NA,NA,NA,NA,NA,NA,NA,NA,NA,NA,NA,NA,NA
17a06,"""Falsch""-Screen",canvas.Screen,3_0_5_0_0_1_2,NA,NA,skipped,NA,1021387,NA,NA,1021379.58,1021387,2023-10-02T13:42:48Z,1021400.4,NULL,Ergänzung,kijalizo,s,ulaghai,mustarehe,matangazo,NA,sdf,NA,5,NA,NA,NA,NA,NA,NA,NA,NA,NA,NA,NA,NA,NA,NA,NA,NA,NA,NA,NA
17a06,shallow,flow.Sequence,3_0_5_0_0_1,NA,NA,completion,12208.74,1009160,1009160.1,1009170.84,1021379.58,1021387,2023-10-02T13:42:48Z,1021400.4,NULL,Ergänzung,kijalizo,s,ulaghai,mustarehe,matangazo,NA,sdf,NA,5,NA,NA,NA,NA,NA,NA,NA,NA,NA,NA,NA,NA,NA,NA,NA,NA,NA,NA,NA
17a06,task,flow.Sequence,3_0_5_0_0,NA,NA,completion,12208.74,1009160,1009160.1,1009170.84,1021379.58,1021387,2023-10-02T13:42:48Z,1021400.4,NULL,Ergänzung,kijalizo,s,ulaghai,mustarehe,matangazo,NA,sdf,NA,5,NA,NA,NA,NA,NA,NA,NA,NA,NA,NA,NA,NA,NA,NA,NA,NA,NA,NA,NA
17a06,deep,flow.Sequence,3_0_5_0_1_0,NA,NA,skipped,NA,1021388,NA,NA,1021379.58,1021388,2023-10-02T13:42:48Z,1021400.4,NULL,Betrüger,mdanganyifu,s,mwanamuziki,wastani,mahakama,NA,sdf,NA,5,NA,NA,NA,NA,NA,NA,NA,NA,NA,NA,NA,NA,NA,NA,NA,NA,NA,NA,NA
17a06,Shallow Question,html.Page,3_0_5_0_1_1_0,NA,NA,form submission,4506.6,1021388,1021379.58,1021400.4,1025907,1025907,2023-10-02T13:42:52Z,1025921.2,NULL,Betrüger,mdanganyifu,s,mwanamuziki,wastani,mahakama,mdanganyifu,NA,NA,5,NA,NA,NA,NA,NA,NA,NA,NA,NA,NA,NA,NA,NA,NA,NA,NA,NA,NA,NA
17a06,"""Richtig""-Screen",canvas.Screen,3_0_5_0_1_1_1,NA,NA,timeout,4999.66,1025909,1025903.52,1025921.2,1030900.02,1030902,2023-10-02T13:42:57Z,1030920.86,NULL,Betrüger,mdanganyifu,s,mwanamuziki,wastani,mahakama,NA,sdf,1,5,NA,NA,NA,NA,NA,NA,NA,NA,NA,NA,NA,NA,NA,NA,NA,NA,NA,NA,NA
17a06,"""Falsch""-Screen",canvas.Screen,3_0_5_0_1_1_2,NA,NA,skipped,NA,1030908,NA,NA,1030900.02,1030909,2023-10-02T13:42:57Z,1030920.86,NULL,Betrüger,mdanganyifu,s,mwanamuziki,wastani,mahakama,NA,sdf,NA,5,NA,NA,NA,NA,NA,NA,NA,NA,NA,NA,NA,NA,NA,NA,NA,NA,NA,NA,NA
17a06,shallow,flow.Sequence,3_0_5_0_1_1,NA,NA,completion,9499.62,1021388,1021379.58,1021400.4,1030900.02,1030909,2023-10-02T13:42:57Z,1030920.86,NULL,Betrüger,mdanganyifu,s,mwanamuziki,wastani,mahakama,NA,sdf,NA,5,NA,NA,NA,NA,NA,NA,NA,NA,NA,NA,NA,NA,NA,NA,NA,NA,NA,NA,NA
17a06,task,flow.Sequence,3_0_5_0_1,NA,NA,completion,9499.62,1021388,1021379.58,1021400.4,1030900.02,1030910,2023-10-02T13:42:57Z,1030920.86,NULL,Betrüger,mdanganyifu,s,mwanamuziki,wastani,mahakama,NA,sdf,NA,5,NA,NA,NA,NA,NA,NA,NA,NA,NA,NA,NA,NA,NA,NA,NA,NA,NA,NA,NA
17a06,Deep Question,html.Page,3_0_5_0_2_0_0,NA,NA,form submission,11502.14,1030910,1030900.02,1030920.86,1042423,1042423,2023-10-02T13:43:09Z,1042420.86,NULL,Vergnügen,kichekesho,d,NA,NA,NA,kichekesho,NA,NA,5,NA,NA,NA,NA,NA,NA,NA,NA,NA,NA,NA,NA,NA,NA,NA,NA,NA,NA,NA
17a06,"""Richtig""-Screen",canvas.Screen,3_0_5_0_2_0_1,NA,NA,timeout,4999.7000000001,1042426,1042419.24,1042420.86,1047399.74,1047403,2023-10-02T13:43:14Z,1047420.56,NULL,Vergnügen,kichekesho,d,NA,NA,NA,NA,sdf,1,5,NA,NA,NA,NA,NA,NA,NA,NA,NA,NA,NA,NA,NA,NA,NA,NA,NA,NA,NA
17a06,"""Falsch""-Screen",canvas.Screen,3_0_5_0_2_0_2,NA,NA,skipped,NA,1047409,NA,NA,1047399.74,1047410,2023-10-02T13:43:14Z,1047420.56,NULL,Vergnügen,kichekesho,d,NA,NA,NA,NA,sdf,NA,5,NA,NA,NA,NA,NA,NA,NA,NA,NA,NA,NA,NA,NA,NA,NA,NA,NA,NA,NA
17a06,deep,flow.Sequence,3_0_5_0_2_0,NA,NA,completion,16478.88,1030910,1030900.02,1030920.86,1047399.74,1047410,2023-10-02T13:43:14Z,1047420.56,NULL,Vergnügen,kichekesho,d,NA,NA,NA,NA,sdf,NA,5,NA,NA,NA,NA,NA,NA,NA,NA,NA,NA,NA,NA,NA,NA,NA,NA,NA,NA,NA
17a06,shallow,flow.Sequence,3_0_5_0_2_1,NA,NA,skipped,NA,1047410,NA,NA,1047399.74,1047410,2023-10-02T13:43:14Z,1047420.56,NULL,Vergnügen,kichekesho,d,NA,NA,NA,NA,sdf,NA,5,NA,NA,NA,NA,NA,NA,NA,NA,NA,NA,NA,NA,NA,NA,NA,NA,NA,NA,NA
17a06,task,flow.Sequence,3_0_5_0_2,NA,NA,completion,16478.88,1030910,1030900.02,1030920.86,1047399.74,1047411,2023-10-02T13:43:14Z,1047420.56,NULL,Vergnügen,kichekesho,d,NA,NA,NA,NA,sdf,NA,5,NA,NA,NA,NA,NA,NA,NA,NA,NA,NA,NA,NA,NA,NA,NA,NA,NA,NA,NA
17a06,deep,flow.Sequence,3_0_5_0_3_0,NA,NA,skipped,NA,1047411,NA,NA,1047399.74,1047411,2023-10-02T13:43:14Z,1047420.56,NULL,Wohlstand,mafanikio,s,chimbuko,kumbuko,mapwaji,NA,sdf,NA,5,NA,NA,NA,NA,NA,NA,NA,NA,NA,NA,NA,NA,NA,NA,NA,NA,NA,NA,NA
17a06,Shallow Question,html.Page,3_0_5_0_3_1_0,NA,NA,form submission,3646.4399999999,1047411,1047399.74,1047420.56,1051067,1051067,2023-10-02T13:43:17Z,1051066.6,NULL,Wohlstand,mafanikio,s,chimbuko,kumbuko,mapwaji,mafanikio,NA,NA,5,NA,NA,NA,NA,NA,NA,NA,NA,NA,NA,NA,NA,NA,NA,NA,NA,NA,NA,NA
17a06,"""Richtig""-Screen",canvas.Screen,3_0_5_0_3_1_1,NA,NA,timeout,4999.46,1051070,1051062.06,1051066.6,1056045.24,1056047,2023-10-02T13:43:22Z,1056066.06,NULL,Wohlstand,mafanikio,s,chimbuko,kumbuko,mapwaji,NA,sdf,1,5,NA,NA,NA,NA,NA,NA,NA,NA,NA,NA,NA,NA,NA,NA,NA,NA,NA,NA,NA
17a06,"""Falsch""-Screen",canvas.Screen,3_0_5_0_3_1_2,NA,NA,skipped,NA,1056048,NA,NA,1056045.24,1056049,2023-10-02T13:43:22Z,1056066.06,NULL,Wohlstand,mafanikio,s,chimbuko,kumbuko,mapwaji,NA,sdf,NA,5,NA,NA,NA,NA,NA,NA,NA,NA,NA,NA,NA,NA,NA,NA,NA,NA,NA,NA,NA
17a06,shallow,flow.Sequence,3_0_5_0_3_1,NA,NA,completion,8624.6799999999,1047411,1047399.74,1047420.56,1056045.24,1056049,2023-10-02T13:43:22Z,1056066.06,NULL,Wohlstand,mafanikio,s,chimbuko,kumbuko,mapwaji,NA,sdf,NA,5,NA,NA,NA,NA,NA,NA,NA,NA,NA,NA,NA,NA,NA,NA,NA,NA,NA,NA,NA
17a06,task,flow.Sequence,3_0_5_0_3,NA,NA,completion,8624.6799999999,1047411,1047399.74,1047420.56,1056045.24,1056049,2023-10-02T13:43:22Z,1056066.06,NULL,Wohlstand,mafanikio,s,chimbuko,kumbuko,mapwaji,NA,sdf,NA,5,NA,NA,NA,NA,NA,NA,NA,NA,NA,NA,NA,NA,NA,NA,NA,NA,NA,NA,NA
17a06,Deep Question,html.Page,3_0_5_0_4_0_0,NA,NA,form submission,4994.9399999999,1056049,1056045.24,1056066.06,1061061,1061061,2023-10-02T13:43:27Z,1061087.72,NULL,Respekt,heshima,d,NA,NA,NA,heshima,NA,NA,5,NA,NA,NA,NA,NA,NA,NA,NA,NA,NA,NA,NA,NA,NA,NA,NA,NA,NA,NA
17a06,"""Richtig""-Screen",canvas.Screen,3_0_5_0_4_0_1,NA,NA,timeout,4999.54,1061063,1061066.9,1061087.72,1066066.44,1066073,2023-10-02T13:43:32Z,1066087.26,NULL,Respekt,heshima,d,NA,NA,NA,NA,sdf,1,5,NA,NA,NA,NA,NA,NA,NA,NA,NA,NA,NA,NA,NA,NA,NA,NA,NA,NA,NA
17a06,"""Falsch""-Screen",canvas.Screen,3_0_5_0_4_0_2,NA,NA,skipped,NA,1066089,NA,NA,1066066.44,1066089,2023-10-02T13:43:32Z,1066087.26,NULL,Respekt,heshima,d,NA,NA,NA,NA,sdf,NA,5,NA,NA,NA,NA,NA,NA,NA,NA,NA,NA,NA,NA,NA,NA,NA,NA,NA,NA,NA
17a06,deep,flow.Sequence,3_0_5_0_4_0,NA,NA,completion,10000.38,1056049,1056045.24,1056066.06,1066066.44,1066090,2023-10-02T13:43:32Z,1066087.26,NULL,Respekt,heshima,d,NA,NA,NA,NA,sdf,NA,5,NA,NA,NA,NA,NA,NA,NA,NA,NA,NA,NA,NA,NA,NA,NA,NA,NA,NA,NA
17a06,shallow,flow.Sequence,3_0_5_0_4_1,NA,NA,skipped,NA,1066090,NA,NA,1066066.44,1066090,2023-10-02T13:43:32Z,1066087.26,NULL,Respekt,heshima,d,NA,NA,NA,NA,sdf,NA,5,NA,NA,NA,NA,NA,NA,NA,NA,NA,NA,NA,NA,NA,NA,NA,NA,NA,NA,NA
17a06,task,flow.Sequence,3_0_5_0_4,NA,NA,completion,10000.38,1056049,1056045.24,1056066.06,1066066.44,1066091,2023-10-02T13:43:32Z,1066087.26,NULL,Respekt,heshima,d,NA,NA,NA,NA,sdf,NA,5,NA,NA,NA,NA,NA,NA,NA,NA,NA,NA,NA,NA,NA,NA,NA,NA,NA,NA,NA
17a06,Deep Question,html.Page,3_0_5_0_5_0_0,NA,NA,form submission,15074.74,1066092,1066066.44,1066087.26,1081162,1081163,2023-10-02T13:43:47Z,1081170.84,NULL,Notfall,dharura,d,NA,NA,NA,darura,NA,NA,5,NA,NA,NA,NA,NA,NA,NA,NA,NA,NA,NA,NA,NA,NA,NA,NA,NA,NA,NA
17a06,"""Richtig""-Screen",canvas.Screen,3_0_5_0_5_0_1,NA,NA,skipped,NA,1081168,NA,NA,1081162,1081168,2023-10-02T13:43:47Z,1081170.84,NULL,Notfall,dharura,d,NA,NA,NA,NA,sdf,NA,5,NA,NA,NA,NA,NA,NA,NA,NA,NA,NA,NA,NA,NA,NA,NA,NA,NA,NA,NA
17a06,"""Falsch""-Screen",canvas.Screen,3_0_5_0_5_0_2,NA,NA,timeout,4999.6399999999,1081173,1081154.3,1081170.84,1086149.66,1086152,2023-10-02T13:43:52Z,1086170.48,NULL,Notfall,dharura,d,NA,NA,NA,NA,sdf,0,5,NA,NA,NA,NA,NA,NA,NA,NA,NA,NA,NA,NA,NA,NA,NA,NA,NA,NA,NA
17a06,deep,flow.Sequence,3_0_5_0_5_0,NA,NA,completion,20062.4,1066092,1066066.44,1066087.26,1086149.66,1086153,2023-10-02T13:43:52Z,1086170.48,NULL,Notfall,dharura,d,NA,NA,NA,NA,sdf,NA,5,NA,NA,NA,NA,NA,NA,NA,NA,NA,NA,NA,NA,NA,NA,NA,NA,NA,NA,NA
17a06,shallow,flow.Sequence,3_0_5_0_5_1,NA,NA,skipped,NA,1086153,NA,NA,1086149.66,1086154,2023-10-02T13:43:52Z,1086170.48,NULL,Notfall,dharura,d,NA,NA,NA,NA,sdf,NA,5,NA,NA,NA,NA,NA,NA,NA,NA,NA,NA,NA,NA,NA,NA,NA,NA,NA,NA,NA
17a06,task,flow.Sequence,3_0_5_0_5,NA,NA,completion,20062.4,1066091,1066066.44,1066087.26,1086149.66,1086155,2023-10-02T13:43:52Z,1086170.48,NULL,Notfall,dharura,d,NA,NA,NA,NA,sdf,NA,5,NA,NA,NA,NA,NA,NA,NA,NA,NA,NA,NA,NA,NA,NA,NA,NA,NA,NA,NA
17a06,deep,flow.Sequence,3_0_5_0_6_0,NA,NA,skipped,NA,1086156,NA,NA,1086149.66,1086156,2023-10-02T13:43:52Z,1086170.48,NULL,Stimmung,kinyongo,s,kilekile,kisambo,madhehebu,NA,sdf,NA,5,NA,NA,NA,NA,NA,NA,NA,NA,NA,NA,NA,NA,NA,NA,NA,NA,NA,NA,NA
17a06,Shallow Question,html.Page,3_0_5_0_6_1_0,NA,NA,form submission,5259.52,1086158,1086149.66,1086170.48,1091430,1091431,2023-10-02T13:43:58Z,1091442.26,NULL,Stimmung,kinyongo,s,kilekile,kisambo,madhehebu,kinyongo,NA,NA,5,NA,NA,NA,NA,NA,NA,NA,NA,NA,NA,NA,NA,NA,NA,NA,NA,NA,NA,NA
17a06,"""Richtig""-Screen",canvas.Screen,3_0_5_0_6_1_1,NA,NA,timeout,4999.24,1091435,1091426.44,1091442.26,1096420.68,1096423,2023-10-02T13:44:03Z,1096441.5,NULL,Stimmung,kinyongo,s,kilekile,kisambo,madhehebu,NA,sdf,1,5,NA,NA,NA,NA,NA,NA,NA,NA,NA,NA,NA,NA,NA,NA,NA,NA,NA,NA,NA
17a06,"""Falsch""-Screen",canvas.Screen,3_0_5_0_6_1_2,NA,NA,skipped,NA,1096432,NA,NA,1096420.68,1096432,2023-10-02T13:44:03Z,1096441.5,NULL,Stimmung,kinyongo,s,kilekile,kisambo,madhehebu,NA,sdf,NA,5,NA,NA,NA,NA,NA,NA,NA,NA,NA,NA,NA,NA,NA,NA,NA,NA,NA,NA,NA
17a06,shallow,flow.Sequence,3_0_5_0_6_1,NA,NA,completion,10250.2,1086157,1086149.66,1086170.48,1096420.68,1096433,2023-10-02T13:44:03Z,1096441.5,NULL,Stimmung,kinyongo,s,kilekile,kisambo,madhehebu,NA,sdf,NA,5,NA,NA,NA,NA,NA,NA,NA,NA,NA,NA,NA,NA,NA,NA,NA,NA,NA,NA,NA
17a06,task,flow.Sequence,3_0_5_0_6,NA,NA,completion,10250.2,1086155,1086149.66,1086170.48,1096420.68,1096433,2023-10-02T13:44:03Z,1096441.5,NULL,Stimmung,kinyongo,s,kilekile,kisambo,madhehebu,NA,sdf,NA,5,NA,NA,NA,NA,NA,NA,NA,NA,NA,NA,NA,NA,NA,NA,NA,NA,NA,NA,NA
17a06,Deep Question,html.Page,3_0_5_0_7_0_0,NA,NA,form submission,17771.5,1096433,1096420.68,1096441.5,1114213,1114214,2023-10-02T13:44:20Z,1114211.98,NULL,Orientierung,urekebisho,d,NA,NA,NA,okubesho,NA,NA,5,NA,NA,NA,NA,NA,NA,NA,NA,NA,NA,NA,NA,NA,NA,NA,NA,NA,NA,NA
17a06,"""Richtig""-Screen",canvas.Screen,3_0_5_0_7_0_1,NA,NA,skipped,NA,1114218,NA,NA,1114213,1114218,2023-10-02T13:44:20Z,1114211.98,NULL,Orientierung,urekebisho,d,NA,NA,NA,NA,sdf,NA,5,NA,NA,NA,NA,NA,NA,NA,NA,NA,NA,NA,NA,NA,NA,NA,NA,NA,NA,NA
17a06,"""Falsch""-Screen",canvas.Screen,3_0_5_0_7_0_2,NA,NA,timeout,4999.6799999999,1114222,1114210.04,1114211.98,1119190.84,1119193,2023-10-02T13:44:25Z,1119211.66,NULL,Orientierung,urekebisho,d,NA,NA,NA,NA,sdf,0,5,NA,NA,NA,NA,NA,NA,NA,NA,NA,NA,NA,NA,NA,NA,NA,NA,NA,NA,NA
17a06,deep,flow.Sequence,3_0_5_0_7_0,NA,NA,completion,22749.34,1096433,1096420.68,1096441.5,1119190.84,1119195,2023-10-02T13:44:25Z,1119211.66,NULL,Orientierung,urekebisho,d,NA,NA,NA,NA,sdf,NA,5,NA,NA,NA,NA,NA,NA,NA,NA,NA,NA,NA,NA,NA,NA,NA,NA,NA,NA,NA
17a06,shallow,flow.Sequence,3_0_5_0_7_1,NA,NA,skipped,NA,1119195,NA,NA,1119190.84,1119195,2023-10-02T13:44:25Z,1119211.66,NULL,Orientierung,urekebisho,d,NA,NA,NA,NA,sdf,NA,5,NA,NA,NA,NA,NA,NA,NA,NA,NA,NA,NA,NA,NA,NA,NA,NA,NA,NA,NA
17a06,task,flow.Sequence,3_0_5_0_7,NA,NA,completion,22749.34,1096433,1096420.68,1096441.5,1119190.84,1119195,2023-10-02T13:44:25Z,1119211.66,NULL,Orientierung,urekebisho,d,NA,NA,NA,NA,sdf,NA,5,NA,NA,NA,NA,NA,NA,NA,NA,NA,NA,NA,NA,NA,NA,NA,NA,NA,NA,NA
17a06,block,flow.Loop,3_0_5_0,NA,NA,completion,110020,1009160,1009160.1,1009170.84,1119190.84,1119196,2023-10-02T13:44:25Z,1119211.66,NULL,NA,NA,NA,NA,NA,NA,NA,sdf,NA,5,NA,NA,NA,NA,NA,NA,NA,NA,NA,NA,NA,NA,NA,NA,NA,NA,NA,NA,NA
17a06,weiter,canvas.Screen,3_0_5_1,sdf,keypress(Space),response,9890.3400000001,1119196,1119190.84,1119211.66,1129102,1129113,2023-10-02T13:44:35Z,1129795.8,NULL,NA,NA,NA,NA,NA,NA,NA,sdf,NA,5,NA,NA,NA,NA,NA,NA,NA,NA,NA,NA,NA,NA,NA,NA,NA,NA,NA,NA,NA
17a06,check continue,flow.Sequence,3_0_5,NA,NA,completion,119931.16,1009160,1009160.1,1009170.84,1129102,1129116,2023-10-02T13:44:35Z,1129795.8,NULL,NA,NA,NA,NA,NA,NA,NA,sdf,NA,5,NA,NA,NA,NA,NA,NA,NA,NA,NA,NA,NA,NA,NA,NA,NA,NA,NA,NA,NA
17a06,check continue,flow.Sequence,3_0_6,NA,NA,skipped,NA,1129173,NA,NA,1129102,1129173,2023-10-02T13:44:35Z,1129795.8,NULL,NA,NA,NA,NA,NA,NA,NA,dfs,NA,6,NA,NA,NA,NA,NA,NA,NA,NA,NA,NA,NA,NA,NA,NA,NA,NA,NA,NA,NA
17a06,check continue,flow.Sequence,3_0_7,NA,NA,skipped,NA,1129203,NA,NA,1129102,1129203,2023-10-02T13:44:35Z,1129795.8,NULL,NA,NA,NA,NA,NA,NA,NA,df,NA,7,NA,NA,NA,NA,NA,NA,NA,NA,NA,NA,NA,NA,NA,NA,NA,NA,NA,NA,NA
17a06,check continue,flow.Sequence,3_0_8,NA,NA,skipped,NA,1129231,NA,NA,1129102,1129232,2023-10-02T13:44:35Z,1129795.8,NULL,NA,NA,NA,NA,NA,NA,NA,dfs,NA,8,NA,NA,NA,NA,NA,NA,NA,NA,NA,NA,NA,NA,NA,NA,NA,NA,NA,NA,NA
17a06,check continue,flow.Sequence,3_0_9,NA,NA,skipped,NA,1129260,NA,NA,1129102,1129260,2023-10-02T13:44:35Z,1129795.8,NULL,NA,NA,NA,NA,NA,NA,NA,dsf,NA,9,NA,NA,NA,NA,NA,NA,NA,NA,NA,NA,NA,NA,NA,NA,NA,NA,NA,NA,NA
17a06,check continue,flow.Sequence,3_0_10,NA,NA,skipped,NA,1129288,NA,NA,1129102,1129288,2023-10-02T13:44:35Z,1129795.8,NULL,NA,NA,NA,NA,NA,NA,NA,df,NA,10,NA,NA,NA,NA,NA,NA,NA,NA,NA,NA,NA,NA,NA,NA,NA,NA,NA,NA,NA
17a06,check continue,flow.Sequence,3_0_11,NA,NA,skipped,NA,1129314,NA,NA,1129102,1129314,2023-10-02T13:44:35Z,1129795.8,NULL,NA,NA,NA,NA,NA,NA,NA,dfs,NA,11,NA,NA,NA,NA,NA,NA,NA,NA,NA,NA,NA,NA,NA,NA,NA,NA,NA,NA,NA
17a06,check continue,flow.Sequence,3_0_12,NA,NA,skipped,NA,1129344,NA,NA,1129102,1129344,2023-10-02T13:44:35Z,1129795.8,NULL,NA,NA,NA,NA,NA,NA,NA,dsf,NA,12,NA,NA,NA,NA,NA,NA,NA,NA,NA,NA,NA,NA,NA,NA,NA,NA,NA,NA,NA
17a06,check continue,flow.Sequence,3_0_13,NA,NA,skipped,NA,1129370,NA,NA,1129102,1129370,2023-10-02T13:44:35Z,1129795.8,NULL,NA,NA,NA,NA,NA,NA,NA,dsf,NA,13,NA,NA,NA,NA,NA,NA,NA,NA,NA,NA,NA,NA,NA,NA,NA,NA,NA,NA,NA
17a06,check continue,flow.Sequence,3_0_14,NA,NA,skipped,NA,1129401,NA,NA,1129102,1129401,2023-10-02T13:44:36Z,1129795.8,NULL,NA,NA,NA,NA,NA,NA,NA,NA,NA,14,NA,NA,NA,NA,NA,NA,NA,NA,NA,NA,NA,NA,NA,NA,NA,NA,NA,NA,NA
17a06,check continue,flow.Sequence,3_0_15,NA,NA,skipped,NA,1129425,NA,NA,1129102,1129425,2023-10-02T13:44:36Z,1129795.8,NULL,NA,NA,NA,NA,NA,NA,NA,NA,NA,15,NA,NA,NA,NA,NA,NA,NA,NA,NA,NA,NA,NA,NA,NA,NA,NA,NA,NA,NA
17a06,check continue,flow.Sequence,3_0_16,NA,NA,skipped,NA,1129449,NA,NA,1129102,1129449,2023-10-02T13:44:36Z,1129795.8,NULL,NA,NA,NA,NA,NA,NA,NA,NA,NA,16,NA,NA,NA,NA,NA,NA,NA,NA,NA,NA,NA,NA,NA,NA,NA,NA,NA,NA,NA
17a06,check continue,flow.Sequence,3_0_17,NA,NA,skipped,NA,1129477,NA,NA,1129102,1129477,2023-10-02T13:44:36Z,1129795.8,NULL,NA,NA,NA,NA,NA,NA,NA,NA,NA,17,NA,NA,NA,NA,NA,NA,NA,NA,NA,NA,NA,NA,NA,NA,NA,NA,NA,NA,NA
17a06,check continue,flow.Sequence,3_0_18,NA,NA,skipped,NA,1129503,NA,NA,1129102,1129503,2023-10-02T13:44:36Z,1129795.8,NULL,NA,NA,NA,NA,NA,NA,NA,NA,NA,18,NA,NA,NA,NA,NA,NA,NA,NA,NA,NA,NA,NA,NA,NA,NA,NA,NA,NA,NA
17a06,check continue,flow.Sequence,3_0_19,NA,NA,skipped,NA,1129527,NA,NA,1129102,1129527,2023-10-02T13:44:36Z,1129795.8,NULL,NA,NA,NA,NA,NA,NA,NA,NA,NA,19,NA,NA,NA,NA,NA,NA,NA,NA,NA,NA,NA,NA,NA,NA,NA,NA,NA,NA,NA
17a06,check continue,flow.Sequence,3_0_20,NA,NA,skipped,NA,1129553,NA,NA,1129102,1129553,2023-10-02T13:44:36Z,1129795.8,NULL,NA,NA,NA,NA,NA,NA,NA,NA,NA,20,NA,NA,NA,NA,NA,NA,NA,NA,NA,NA,NA,NA,NA,NA,NA,NA,NA,NA,NA
17a06,check continue,flow.Sequence,3_0_21,NA,NA,skipped,NA,1129578,NA,NA,1129102,1129578,2023-10-02T13:44:36Z,1129795.8,NULL,NA,NA,NA,NA,NA,NA,NA,NA,NA,21,NA,NA,NA,NA,NA,NA,NA,NA,NA,NA,NA,NA,NA,NA,NA,NA,NA,NA,NA
17a06,check continue,flow.Sequence,3_0_22,NA,NA,skipped,NA,1129602,NA,NA,1129102,1129602,2023-10-02T13:44:36Z,1129795.8,NULL,NA,NA,NA,NA,NA,NA,NA,NA,NA,22,NA,NA,NA,NA,NA,NA,NA,NA,NA,NA,NA,NA,NA,NA,NA,NA,NA,NA,NA
17a06,check continue,flow.Sequence,3_0_23,NA,NA,skipped,NA,1129629,NA,NA,1129102,1129629,2023-10-02T13:44:36Z,1129795.8,NULL,NA,NA,NA,NA,NA,NA,NA,NA,NA,23,NA,NA,NA,NA,NA,NA,NA,NA,NA,NA,NA,NA,NA,NA,NA,NA,NA,NA,NA
17a06,check continue,flow.Sequence,3_0_24,NA,NA,skipped,NA,1129652,NA,NA,1129102,1129653,2023-10-02T13:44:36Z,1129795.8,NULL,NA,NA,NA,NA,NA,NA,NA,NA,NA,24,NA,NA,NA,NA,NA,NA,NA,NA,NA,NA,NA,NA,NA,NA,NA,NA,NA,NA,NA
17a06,check continue,flow.Sequence,3_0_25,NA,NA,skipped,NA,1129683,NA,NA,1129102,1129683,2023-10-02T13:44:36Z,1129795.8,NULL,NA,NA,NA,NA,NA,NA,NA,NA,NA,25,NA,NA,NA,NA,NA,NA,NA,NA,NA,NA,NA,NA,NA,NA,NA,NA,NA,NA,NA
17a06,check continue,flow.Sequence,3_0_26,NA,NA,skipped,NA,1129708,NA,NA,1129102,1129708,2023-10-02T13:44:36Z,1129795.8,NULL,NA,NA,NA,NA,NA,NA,NA,NA,NA,26,NA,NA,NA,NA,NA,NA,NA,NA,NA,NA,NA,NA,NA,NA,NA,NA,NA,NA,NA
17a06,check continue,flow.Sequence,3_0_27,NA,NA,skipped,NA,1129733,NA,NA,1129102,1129733,2023-10-02T13:44:36Z,1129795.8,NULL,NA,NA,NA,NA,NA,NA,NA,NA,NA,27,NA,NA,NA,NA,NA,NA,NA,NA,NA,NA,NA,NA,NA,NA,NA,NA,NA,NA,NA
17a06,check continue,flow.Sequence,3_0_28,NA,NA,skipped,NA,1129759,NA,NA,1129102,1129759,2023-10-02T13:44:36Z,1129795.8,NULL,NA,NA,NA,NA,NA,NA,NA,NA,NA,28,NA,NA,NA,NA,NA,NA,NA,NA,NA,NA,NA,NA,NA,NA,NA,NA,NA,NA,NA
17a06,check continue,flow.Sequence,3_0_29,NA,NA,skipped,NA,1129784,NA,NA,1129102,1129784,2023-10-02T13:44:36Z,1129795.8,NULL,NA,NA,NA,NA,NA,NA,NA,NA,NA,29,NA,NA,NA,NA,NA,NA,NA,NA,NA,NA,NA,NA,NA,NA,NA,NA,NA,NA,NA
17a06,until continue,flow.Loop,3_0,NA,NA,completion,978224.64,150830,150864.68,150877.36,1129102,1129784,2023-10-02T13:44:36Z,1129795.8,NULL,NA,NA,NA,NA,NA,NA,NA,NA,NA,NA,NA,NA,NA,NA,NA,NA,NA,NA,NA,NA,NA,NA,NA,NA,NA,NA,NA,NA,NA
17a06,block 1,flow.Sequence,3,NA,NA,completion,978224.64,150830,150864.68,150877.36,1129102,1129785,2023-10-02T13:44:36Z,1129795.8,NULL,NA,NA,NA,NA,NA,NA,NA,NA,NA,NA,NA,NA,NA,NA,NA,NA,NA,NA,NA,NA,NA,NA,NA,NA,NA,NA,NA,NA,NA
17a06,1.Part Over,canvas.Screen,4,NA,keypress(Space),response,2572.2,1129785,1129784.26,1129795.8,1132368,1132382,2023-10-02T13:44:39Z,1132442.14,NULL,NA,NA,NA,NA,NA,NA,NA,NA,NA,NA,NA,NA,NA,NA,NA,NA,NA,NA,NA,NA,NA,NA,NA,NA,NA,NA,NA,NA,NA
17a06,Deep Question,html.Page,5_0_0_0_0_0_0,NA,NA,form submission,7896.8600000001,1132434,1132434.6,1132442.14,1140339,1140339,2023-10-02T13:44:46Z,1140338.16,NULL,Niveau,kiwango,d,NA,NA,NA,niveau,NA,NA,0,NA,NA,NA,NA,NA,NA,NA,NA,NA,NA,NA,NA,NA,NA,NA,NA,NA,NA,NA
17a06,"""Richtig""-Screen",canvas.Screen,5_0_0_0_0_0_1,NA,NA,skipped,NA,1140340,NA,NA,1140339,1140340,2023-10-02T13:44:46Z,1140338.16,NULL,Niveau,kiwango,d,NA,NA,NA,NA,sdf,NA,0,NA,NA,NA,NA,NA,NA,NA,NA,NA,NA,NA,NA,NA,NA,NA,NA,NA,NA,NA
17a06,"""Falsch""-Screen",canvas.Screen,5_0_0_0_0_0_2,NA,NA,timeout,4999.5600000001,1140342,1140336.78,1140338.16,1145316.9,1145319,2023-10-02T13:44:51Z,1145337.72,NULL,Niveau,kiwango,d,NA,NA,NA,NA,sdf,0,0,NA,NA,NA,NA,NA,NA,NA,NA,NA,NA,NA,NA,NA,NA,NA,NA,NA,NA,NA
17a06,deep,flow.Sequence,5_0_0_0_0_0,NA,NA,completion,12874.76,1132434,1132434.6,1132442.14,1145316.9,1145319,2023-10-02T13:44:51Z,1145337.72,NULL,Niveau,kiwango,d,NA,NA,NA,NA,sdf,NA,0,NA,NA,NA,NA,NA,NA,NA,NA,NA,NA,NA,NA,NA,NA,NA,NA,NA,NA,NA
17a06,shallow,flow.Sequence,5_0_0_0_0_1,NA,NA,skipped,NA,1145320,NA,NA,1145316.9,1145320,2023-10-02T13:44:51Z,1145337.72,NULL,Niveau,kiwango,d,NA,NA,NA,NA,sdf,NA,0,NA,NA,NA,NA,NA,NA,NA,NA,NA,NA,NA,NA,NA,NA,NA,NA,NA,NA,NA
17a06,task,flow.Sequence,5_0_0_0_0,NA,NA,completion,12874.76,1132434,1132434.6,1132442.14,1145316.9,1145320,2023-10-02T13:44:51Z,1145337.72,NULL,Niveau,kiwango,d,NA,NA,NA,NA,sdf,NA,0,NA,NA,NA,NA,NA,NA,NA,NA,NA,NA,NA,NA,NA,NA,NA,NA,NA,NA,NA
17a06,deep,flow.Sequence,5_0_0_0_1_0,NA,NA,skipped,NA,1145321,NA,NA,1145316.9,1145321,2023-10-02T13:44:51Z,1145337.72,NULL,Spionage,upelelezi,s,maslahi,utokazo,magangao,NA,sdf,NA,0,NA,NA,NA,NA,NA,NA,NA,NA,NA,NA,NA,NA,NA,NA,NA,NA,NA,NA,NA
17a06,Shallow Question,html.Page,5_0_0_0_1_1_0,NA,NA,form submission,8615.28,1145321,1145316.9,1145337.72,1153953,1153953,2023-10-02T13:45:00Z,1153962.74,NULL,Spionage,upelelezi,s,maslahi,utokazo,magangao,maslahi,NA,NA,0,NA,NA,NA,NA,NA,NA,NA,NA,NA,NA,NA,NA,NA,NA,NA,NA,NA,NA,NA
17a06,"""Richtig""-Screen",canvas.Screen,5_0_0_0_1_1_1,NA,NA,skipped,NA,1153955,NA,NA,1153953,1153955,2023-10-02T13:45:00Z,1153962.74,NULL,Spionage,upelelezi,s,maslahi,utokazo,magangao,NA,sdf,NA,0,NA,NA,NA,NA,NA,NA,NA,NA,NA,NA,NA,NA,NA,NA,NA,NA,NA,NA,NA
17a06,"""Falsch""-Screen",canvas.Screen,5_0_0_0_1_1_2,NA,NA,timeout,4999.6200000001,1153956,1153952,1153962.74,1158941.54,1158944,2023-10-02T13:45:05Z,1158962.36,NULL,Spionage,upelelezi,s,maslahi,utokazo,magangao,NA,sdf,0,0,NA,NA,NA,NA,NA,NA,NA,NA,NA,NA,NA,NA,NA,NA,NA,NA,NA,NA,NA
17a06,shallow,flow.Sequence,5_0_0_0_1_1,NA,NA,completion,13603.82,1145321,1145316.9,1145337.72,1158941.54,1158944,2023-10-02T13:45:05Z,1158962.36,NULL,Spionage,upelelezi,s,maslahi,utokazo,magangao,NA,sdf,NA,0,NA,NA,NA,NA,NA,NA,NA,NA,NA,NA,NA,NA,NA,NA,NA,NA,NA,NA,NA
17a06,task,flow.Sequence,5_0_0_0_1,NA,NA,completion,13603.82,1145320,1145316.9,1145337.72,1158941.54,1158945,2023-10-02T13:45:05Z,1158962.36,NULL,Spionage,upelelezi,s,maslahi,utokazo,magangao,NA,sdf,NA,0,NA,NA,NA,NA,NA,NA,NA,NA,NA,NA,NA,NA,NA,NA,NA,NA,NA,NA,NA
17a06,deep,flow.Sequence,5_0_0_0_2_0,NA,NA,skipped,NA,1158945,NA,NA,1158941.54,1158945,2023-10-02T13:45:05Z,1158962.36,NULL,Fenster,dirisha,s,walakini,tasawari,maarifa,NA,sdf,NA,0,NA,NA,NA,NA,NA,NA,NA,NA,NA,NA,NA,NA,NA,NA,NA,NA,NA,NA,NA
17a06,Shallow Question,html.Page,5_0_0_0_2_1_0,NA,NA,form submission,6308.6399999999,1158946,1158941.54,1158962.36,1165271,1165272,2023-10-02T13:45:11Z,1165275.26,NULL,Fenster,dirisha,s,walakini,tasawari,maarifa,tasawari,NA,NA,0,NA,NA,NA,NA,NA,NA,NA,NA,NA,NA,NA,NA,NA,NA,NA,NA,NA,NA,NA
17a06,"""Richtig""-Screen",canvas.Screen,5_0_0_0_2_1_1,NA,NA,skipped,NA,1165278,NA,NA,1165271,1165279,2023-10-02T13:45:11Z,1165275.26,NULL,Fenster,dirisha,s,walakini,tasawari,maarifa,NA,sdf,NA,0,NA,NA,NA,NA,NA,NA,NA,NA,NA,NA,NA,NA,NA,NA,NA,NA,NA,NA,NA
17a06,"""Falsch""-Screen",canvas.Screen,5_0_0_0_2_1_2,NA,NA,timeout,4999.52,1165285,1165264.62,1165275.26,1170253.96,1170256,2023-10-02T13:45:16Z,1170274.78,NULL,Fenster,dirisha,s,walakini,tasawari,maarifa,NA,sdf,0,0,NA,NA,NA,NA,NA,NA,NA,NA,NA,NA,NA,NA,NA,NA,NA,NA,NA,NA,NA
17a06,shallow,flow.Sequence,5_0_0_0_2_1,NA,NA,completion,11291.6,1158946,1158941.54,1158962.36,1170253.96,1170257,2023-10-02T13:45:16Z,1170274.78,NULL,Fenster,dirisha,s,walakini,tasawari,maarifa,NA,sdf,NA,0,NA,NA,NA,NA,NA,NA,NA,NA,NA,NA,NA,NA,NA,NA,NA,NA,NA,NA,NA
17a06,task,flow.Sequence,5_0_0_0_2,NA,NA,completion,11291.6,1158945,1158941.54,1158962.36,1170253.96,1170258,2023-10-02T13:45:16Z,1170274.78,NULL,Fenster,dirisha,s,walakini,tasawari,maarifa,NA,sdf,NA,0,NA,NA,NA,NA,NA,NA,NA,NA,NA,NA,NA,NA,NA,NA,NA,NA,NA,NA,NA
17a06,Deep Question,html.Page,5_0_0_0_3_0_0,NA,NA,form submission,4867.22,1170258,1170253.96,1170274.78,1175142,1175143,2023-10-02T13:45:21Z,1175149.6,NULL,Schüler,mwanafunzi,d,NA,NA,NA,student,NA,NA,0,NA,NA,NA,NA,NA,NA,NA,NA,NA,NA,NA,NA,NA,NA,NA,NA,NA,NA,NA
17a06,"""Richtig""-Screen",canvas.Screen,5_0_0_0_3_0_1,NA,NA,skipped,NA,1175144,NA,NA,1175142,1175144,2023-10-02T13:45:21Z,1175149.6,NULL,Schüler,mwanafunzi,d,NA,NA,NA,NA,sdf,NA,0,NA,NA,NA,NA,NA,NA,NA,NA,NA,NA,NA,NA,NA,NA,NA,NA,NA,NA,NA
