observation,sender,sender_type,sender_id,response,response_action,ended_on,duration,time_run,time_render,time_show,time_end,time_commit,timestamp,time_switch,german,swahili,enc,distractor1,distractor2,distractor3,response_2,x,correct,distractors,url_vp,url_sess,meta_labjs_version,meta_location,meta_user_agent,meta_platform,meta_language,meta_locale,meta_time_zone,meta_timezone_offset,meta_screen_width,meta_screen_height,meta_scroll_width,meta_scroll_height,meta_window_inner_width,meta_window_inner_height,meta_device_pixel_ratio,meta_labjs_build_flavor,meta_labjs_build_commit
ae9c0,Introduction delayed retrieval,canvas.Screen,0,weiter,keypress(Space),response,12431,653,660,739,13091,13106,2023-10-29T08:15:19Z,13148,NA,NA,NA,NA,NA,NA,NA,NA,NA,NULL,186,4,20.2.4,https://neurocog.fernuni.ch/studies/vweber/sliechti/delayed%203/index.html?vp=186&sess=4,"Mozilla/5.0 (Macintosh; Intel Mac OS X 10_15_7) AppleWebKit/605.1.15 (KHTML, like Gecko) Version/16.4 Safari/605.1.15",MacIntel,de-DE,de-DE,Europe/Zurich,-60,1440,900,1440,852,1440,900,2,production,f5b4a49f956347addd546a832a3327688c2c0fef
ae9c0,Deep Question,html.Page,1_0_0_0,NA,NA,form submission,34591,13106,13115,13148,47739,47740,2023-10-29T08:15:53Z,47798,Aufstand,ugomaji,d,mazidio,msingi,kujieleza,mwarisha,NA,NA,NULL,NA,NA,NA,NA,NA,NA,NA,NA,NA,NA,NA,NA,NA,NA,NA,NA,NA,NA,NA
ae9c0,Save data screen,canvas.Screen,1_0_0_1,NA,NA,timeout,500,47743,47764,47798,48265,48268,2023-10-29T08:15:54Z,48298,Aufstand,ugomaji,d,mazidio,msingi,kujieleza,NA,NA,0,NULL,NA,NA,NA,NA,NA,NA,NA,NA,NA,NA,NA,NA,NA,NA,NA,NA,NA,NA,NA
ae9c0,deep,flow.Sequence,1_0_0,NA,NA,completion,35117,13106,13115,13148,48265,48268,2023-10-29T08:15:54Z,48298,Aufstand,ugomaji,d,mazidio,msingi,kujieleza,NA,NA,NA,NULL,NA,NA,NA,NA,NA,NA,NA,NA,NA,NA,NA,NA,NA,NA,NA,NA,NA,NA,NA
ae9c0,task,flow.Sequence,1_0,NA,NA,completion,35117,13106,13115,13148,48265,48268,2023-10-29T08:15:54Z,48298,Aufstand,ugomaji,d,mazidio,msingi,kujieleza,NA,NA,NA,NULL,NA,NA,NA,NA,NA,NA,NA,NA,NA,NA,NA,NA,NA,NA,NA,NA,NA,NA,NA
ae9c0,Deep Question,html.Page,1_1_0_0,NA,NA,form submission,10479,48269,48265,48298,58777,58777,2023-10-29T08:16:04Z,58831,Angreifer,mshambulizi,d,kitengo,tasinia,usafirishaji,mshindani,NA,NA,NULL,NA,NA,NA,NA,NA,NA,NA,NA,NA,NA,NA,NA,NA,NA,NA,NA,NA,NA,NA
ae9c0,Save data screen,canvas.Screen,1_1_0_1,NA,NA,timeout,500,58778,58798,58831,59298,59299,2023-10-29T08:16:05Z,59331,Angreifer,mshambulizi,d,kitengo,tasinia,usafirishaji,NA,NA,0,NULL,NA,NA,NA,NA,NA,NA,NA,NA,NA,NA,NA,NA,NA,NA,NA,NA,NA,NA,NA
ae9c0,deep,flow.Sequence,1_1_0,NA,NA,completion,11000,48269,48265,48298,59298,59299,2023-10-29T08:16:05Z,59331,Angreifer,mshambulizi,d,kitengo,tasinia,usafirishaji,NA,NA,NA,NULL,NA,NA,NA,NA,NA,NA,NA,NA,NA,NA,NA,NA,NA,NA,NA,NA,NA,NA,NA
ae9c0,task,flow.Sequence,1_1,NA,NA,completion,11000,48268,48265,48298,59298,59299,2023-10-29T08:16:05Z,59331,Angreifer,mshambulizi,d,kitengo,tasinia,usafirishaji,NA,NA,NA,NULL,NA,NA,NA,NA,NA,NA,NA,NA,NA,NA,NA,NA,NA,NA,NA,NA,NA,NA,NA
ae9c0,Deep Question,html.Page,1_2_0_0,NA,NA,form submission,18047,59299,59298,59331,77378,77378,2023-10-29T08:16:23Z,77431,Lawine,banguko,d,maambukizi,usuluhishi,chekechea,awukum,NA,NA,NULL,NA,NA,NA,NA,NA,NA,NA,NA,NA,NA,NA,NA,NA,NA,NA,NA,NA,NA,NA
ae9c0,Save data screen,canvas.Screen,1_2_0_1,NA,NA,timeout,500,77379,77397,77431,77898,77898,2023-10-29T08:16:23Z,77931,Lawine,banguko,d,maambukizi,usuluhishi,chekechea,NA,NA,0,NULL,NA,NA,NA,NA,NA,NA,NA,NA,NA,NA,NA,NA,NA,NA,NA,NA,NA,NA,NA
ae9c0,deep,flow.Sequence,1_2_0,NA,NA,completion,18567,59299,59298,59331,77898,77899,2023-10-29T08:16:23Z,77931,Lawine,banguko,d,maambukizi,usuluhishi,chekechea,NA,NA,NA,NULL,NA,NA,NA,NA,NA,NA,NA,NA,NA,NA,NA,NA,NA,NA,NA,NA,NA,NA,NA
ae9c0,task,flow.Sequence,1_2,NA,NA,completion,18567,59299,59298,59331,77898,77899,2023-10-29T08:16:23Z,77931,Lawine,banguko,d,maambukizi,usuluhishi,chekechea,NA,NA,NA,NULL,NA,NA,NA,NA,NA,NA,NA,NA,NA,NA,NA,NA,NA,NA,NA,NA,NA,NA,NA
ae9c0,Deep Question,html.Page,1_3_0_0,NA,NA,form submission,50853,77899,77898,77931,128784,128784,2023-10-29T08:17:14Z,128831,Prüfung,mtihani,d,mkulima,mtizamo,ufumbuzi,ahanifu,NA,NA,NULL,NA,NA,NA,NA,NA,NA,NA,NA,NA,NA,NA,NA,NA,NA,NA,NA,NA,NA,NA
ae9c0,Save data screen,canvas.Screen,1_3_0_1,NA,NA,timeout,498,128785,128796,128831,129296,129296,2023-10-29T08:17:15Z,129329,Prüfung,mtihani,d,mkulima,mtizamo,ufumbuzi,NA,NA,0,NULL,NA,NA,NA,NA,NA,NA,NA,NA,NA,NA,NA,NA,NA,NA,NA,NA,NA,NA,NA
ae9c0,deep,flow.Sequence,1_3_0,NA,NA,completion,51365,77899,77898,77931,129296,129297,2023-10-29T08:17:15Z,129329,Prüfung,mtihani,d,mkulima,mtizamo,ufumbuzi,NA,NA,NA,NULL,NA,NA,NA,NA,NA,NA,NA,NA,NA,NA,NA,NA,NA,NA,NA,NA,NA,NA,NA
ae9c0,task,flow.Sequence,1_3,NA,NA,completion,51365,77899,77898,77931,129296,129297,2023-10-29T08:17:15Z,129329,Prüfung,mtihani,d,mkulima,mtizamo,ufumbuzi,NA,NA,NA,NULL,NA,NA,NA,NA,NA,NA,NA,NA,NA,NA,NA,NA,NA,NA,NA,NA,NA,NA,NA
ae9c0,Deep Question,html.Page,1_4_0_0,NA,NA,form submission,31826,129297,129296,129329,161155,161155,2023-10-29T08:17:47Z,161213,Kreativität,ubunifu,d,mratibu,mwendelezo,makubaliano,wanifu,NA,NA,NULL,NA,NA,NA,NA,NA,NA,NA,NA,NA,NA,NA,NA,NA,NA,NA,NA,NA,NA,NA
ae9c0,Save data screen,canvas.Screen,1_4_0_1,NA,NA,timeout,500,161156,161179,161213,161680,161681,2023-10-29T08:17:47Z,161713,Kreativität,ubunifu,d,mratibu,mwendelezo,makubaliano,NA,NA,0,NULL,NA,NA,NA,NA,NA,NA,NA,NA,NA,NA,NA,NA,NA,NA,NA,NA,NA,NA,NA
ae9c0,deep,flow.Sequence,1_4_0,NA,NA,completion,32351,129297,129296,129329,161680,161681,2023-10-29T08:17:47Z,161713,Kreativität,ubunifu,d,mratibu,mwendelezo,makubaliano,NA,NA,NA,NULL,NA,NA,NA,NA,NA,NA,NA,NA,NA,NA,NA,NA,NA,NA,NA,NA,NA,NA,NA
ae9c0,task,flow.Sequence,1_4,NA,NA,completion,32351,129297,129296,129329,161680,161681,2023-10-29T08:17:47Z,161713,Kreativität,ubunifu,d,mratibu,mwendelezo,makubaliano,NA,NA,NA,NULL,NA,NA,NA,NA,NA,NA,NA,NA,NA,NA,NA,NA,NA,NA,NA,NA,NA,NA,NA
ae9c0,Deep Question,html.Page,1_5_0_0,NA,NA,form submission,9416,161682,161680,161713,171129,171129,2023-10-29T08:17:57Z,171180,Gefährdung,kuhatarisha,s,uchokozi,udhaifu,makorowezo,warisha,NA,NA,NULL,NA,NA,NA,NA,NA,NA,NA,NA,NA,NA,NA,NA,NA,NA,NA,NA,NA,NA,NA
ae9c0,Save data screen,canvas.Screen,1_5_0_1,NA,NA,timeout,500,171130,171146,171180,171646,171646,2023-10-29T08:17:57Z,171680,Gefährdung,kuhatarisha,s,uchokozi,udhaifu,makorowezo,NA,NA,0,NULL,NA,NA,NA,NA,NA,NA,NA,NA,NA,NA,NA,NA,NA,NA,NA,NA,NA,NA,NA
ae9c0,deep,flow.Sequence,1_5_0,NA,NA,completion,9933,161682,161680,161713,171646,171646,2023-10-29T08:17:57Z,171680,Gefährdung,kuhatarisha,s,uchokozi,udhaifu,makorowezo,NA,NA,NA,NULL,NA,NA,NA,NA,NA,NA,NA,NA,NA,NA,NA,NA,NA,NA,NA,NA,NA,NA,NA
ae9c0,task,flow.Sequence,1_5,NA,NA,completion,9933,161682,161680,161713,171646,171646,2023-10-29T08:17:57Z,171680,Gefährdung,kuhatarisha,s,uchokozi,udhaifu,makorowezo,NA,NA,NA,NULL,NA,NA,NA,NA,NA,NA,NA,NA,NA,NA,NA,NA,NA,NA,NA,NA,NA,NA,NA
ae9c0,Deep Question,html.Page,1_6_0_0,NA,NA,form submission,12908,171646,171646,171680,184588,184588,2023-10-29T08:18:10Z,184630,Verzögerung,kuchelewa,s,mwakilishi,mwanauchumi,jaribio,hawenifo,NA,NA,NULL,NA,NA,NA,NA,NA,NA,NA,NA,NA,NA,NA,NA,NA,NA,NA,NA,NA,NA,NA
ae9c0,Save data screen,canvas.Screen,1_6_0_1,NA,NA,timeout,502,184589,184595,184630,185095,185096,2023-10-29T08:18:11Z,185132,Verzögerung,kuchelewa,s,mwakilishi,mwanauchumi,jaribio,NA,NA,0,NULL,NA,NA,NA,NA,NA,NA,NA,NA,NA,NA,NA,NA,NA,NA,NA,NA,NA,NA,NA
ae9c0,deep,flow.Sequence,1_6_0,NA,NA,completion,13415,171646,171646,171680,185095,185096,2023-10-29T08:18:11Z,185132,Verzögerung,kuchelewa,s,mwakilishi,mwanauchumi,jaribio,NA,NA,NA,NULL,NA,NA,NA,NA,NA,NA,NA,NA,NA,NA,NA,NA,NA,NA,NA,NA,NA,NA,NA
ae9c0,task,flow.Sequence,1_6,NA,NA,completion,13415,171646,171646,171680,185095,185096,2023-10-29T08:18:11Z,185132,Verzögerung,kuchelewa,s,mwakilishi,mwanauchumi,jaribio,NA,NA,NA,NULL,NA,NA,NA,NA,NA,NA,NA,NA,NA,NA,NA,NA,NA,NA,NA,NA,NA,NA,NA
ae9c0,Deep Question,html.Page,1_7_0_0,NA,NA,form submission,13478,185097,185095,185132,198610,198610,2023-10-29T08:18:24Z,198662,System,maongozi,d,chokochoko,nuksani,mitaani,heshwati,NA,NA,NULL,NA,NA,NA,NA,NA,NA,NA,NA,NA,NA,NA,NA,NA,NA,NA,NA,NA,NA,NA
ae9c0,Save data screen,canvas.Screen,1_7_0_1,NA,NA,timeout,501,198612,198630,198662,199129,199130,2023-10-29T08:18:25Z,199163,System,maongozi,d,chokochoko,nuksani,mitaani,NA,NA,0,NULL,NA,NA,NA,NA,NA,NA,NA,NA,NA,NA,NA,NA,NA,NA,NA,NA,NA,NA,NA
ae9c0,deep,flow.Sequence,1_7_0,NA,NA,completion,13997,185097,185095,185132,199129,199131,2023-10-29T08:18:25Z,199163,System,maongozi,d,chokochoko,nuksani,mitaani,NA,NA,NA,NULL,NA,NA,NA,NA,NA,NA,NA,NA,NA,NA,NA,NA,NA,NA,NA,NA,NA,NA,NA
ae9c0,task,flow.Sequence,1_7,NA,NA,completion,13997,185096,185095,185132,199129,199131,2023-10-29T08:18:25Z,199163,System,maongozi,d,chokochoko,nuksani,mitaani,NA,NA,NA,NULL,NA,NA,NA,NA,NA,NA,NA,NA,NA,NA,NA,NA,NA,NA,NA,NA,NA,NA,NA
ae9c0,Deep Question,html.Page,1_8_0_0,NA,NA,form submission,6713,199132,199129,199163,205876,205876,2023-10-29T08:18:31Z,205930,Übersicht,kilindo,s,mgusano,chipukizi,kulinganisha,olafguka,NA,NA,NULL,NA,NA,NA,NA,NA,NA,NA,NA,NA,NA,NA,NA,NA,NA,NA,NA,NA,NA,NA
ae9c0,Save data screen,canvas.Screen,1_8_0_1,NA,NA,timeout,499,205877,205895,205930,206396,206397,2023-10-29T08:18:32Z,206429,Übersicht,kilindo,s,mgusano,chipukizi,kulinganisha,NA,NA,0,NULL,NA,NA,NA,NA,NA,NA,NA,NA,NA,NA,NA,NA,NA,NA,NA,NA,NA,NA,NA
ae9c0,deep,flow.Sequence,1_8_0,NA,NA,completion,7233,199131,199129,199163,206396,206397,2023-10-29T08:18:32Z,206429,Übersicht,kilindo,s,mgusano,chipukizi,kulinganisha,NA,NA,NA,NULL,NA,NA,NA,NA,NA,NA,NA,NA,NA,NA,NA,NA,NA,NA,NA,NA,NA,NA,NA
ae9c0,task,flow.Sequence,1_8,NA,NA,completion,7233,199131,199129,199163,206396,206397,2023-10-29T08:18:32Z,206429,Übersicht,kilindo,s,mgusano,chipukizi,kulinganisha,NA,NA,NA,NULL,NA,NA,NA,NA,NA,NA,NA,NA,NA,NA,NA,NA,NA,NA,NA,NA,NA,NA,NA
ae9c0,Deep Question,html.Page,1_9_0_0,NA,NA,form submission,18509,206397,206396,206429,224938,224938,2023-10-29T08:18:50Z,224979,Abrechnung,uhasibu,s,kusahihisha,mpambano,mashambulizi,kaweto,NA,NA,NULL,NA,NA,NA,NA,NA,NA,NA,NA,NA,NA,NA,NA,NA,NA,NA,NA,NA,NA,NA
ae9c0,Save data screen,canvas.Screen,1_9_0_1,NA,NA,timeout,499,224939,224945,224979,225446,225446,2023-10-29T08:18:51Z,225478,Abrechnung,uhasibu,s,kusahihisha,mpambano,mashambulizi,NA,NA,0,NULL,NA,NA,NA,NA,NA,NA,NA,NA,NA,NA,NA,NA,NA,NA,NA,NA,NA,NA,NA
ae9c0,deep,flow.Sequence,1_9_0,NA,NA,completion,19017,206397,206396,206429,225446,225447,2023-10-29T08:18:51Z,225478,Abrechnung,uhasibu,s,kusahihisha,mpambano,mashambulizi,NA,NA,NA,NULL,NA,NA,NA,NA,NA,NA,NA,NA,NA,NA,NA,NA,NA,NA,NA,NA,NA,NA,NA
ae9c0,task,flow.Sequence,1_9,NA,NA,completion,19017,206397,206396,206429,225446,225447,2023-10-29T08:18:51Z,225478,Abrechnung,uhasibu,s,kusahihisha,mpambano,mashambulizi,NA,NA,NA,NULL,NA,NA,NA,NA,NA,NA,NA,NA,NA,NA,NA,NA,NA,NA,NA,NA,NA,NA,NA
ae9c0,Deep Question,html.Page,1_10_0_0,NA,NA,form submission,10386,225447,225446,225478,235864,235864,2023-10-29T08:19:01Z,235928,Kontrolle,kudhibiti,s,mbinguni,kufunga,utegemezi,abuliza,NA,NA,NULL,NA,NA,NA,NA,NA,NA,NA,NA,NA,NA,NA,NA,NA,NA,NA,NA,NA,NA,NA
ae9c0,Save data screen,canvas.Screen,1_10_0_1,NA,NA,timeout,500,235865,235895,235928,236395,236395,2023-10-29T08:19:02Z,236428,Kontrolle,kudhibiti,s,mbinguni,kufunga,utegemezi,NA,NA,0,NULL,NA,NA,NA,NA,NA,NA,NA,NA,NA,NA,NA,NA,NA,NA,NA,NA,NA,NA,NA
ae9c0,deep,flow.Sequence,1_10_0,NA,NA,completion,10917,225447,225446,225478,236395,236396,2023-10-29T08:19:02Z,236428,Kontrolle,kudhibiti,s,mbinguni,kufunga,utegemezi,NA,NA,NA,NULL,NA,NA,NA,NA,NA,NA,NA,NA,NA,NA,NA,NA,NA,NA,NA,NA,NA,NA,NA
ae9c0,task,flow.Sequence,1_10,NA,NA,completion,10917,225447,225446,225478,236395,236396,2023-10-29T08:19:02Z,236428,Kontrolle,kudhibiti,s,mbinguni,kufunga,utegemezi,NA,NA,NA,NULL,NA,NA,NA,NA,NA,NA,NA,NA,NA,NA,NA,NA,NA,NA,NA,NA,NA,NA,NA
ae9c0,Deep Question,html.Page,1_11_0_0,NA,NA,form submission,11694,236396,236395,236428,248122,248123,2023-10-29T08:19:14Z,248179,Körper,kiwiliwili,s,mapambano,mpatanishi,kiolezo,killilli,NA,NA,NULL,NA,NA,NA,NA,NA,NA,NA,NA,NA,NA,NA,NA,NA,NA,NA,NA,NA,NA,NA
ae9c0,Save data screen,canvas.Screen,1_11_0_1,NA,NA,timeout,499,248123,248146,248179,248646,248646,2023-10-29T08:19:14Z,248678,Körper,kiwiliwili,s,mapambano,mpatanishi,kiolezo,NA,NA,0,NULL,NA,NA,NA,NA,NA,NA,NA,NA,NA,NA,NA,NA,NA,NA,NA,NA,NA,NA,NA
ae9c0,deep,flow.Sequence,1_11_0,NA,NA,completion,12218,236396,236395,236428,248646,248647,2023-10-29T08:19:14Z,248678,Körper,kiwiliwili,s,mapambano,mpatanishi,kiolezo,NA,NA,NA,NULL,NA,NA,NA,NA,NA,NA,NA,NA,NA,NA,NA,NA,NA,NA,NA,NA,NA,NA,NA
ae9c0,task,flow.Sequence,1_11,NA,NA,completion,12218,236396,236395,236428,248646,248647,2023-10-29T08:19:14Z,248678,Körper,kiwiliwili,s,mapambano,mpatanishi,kiolezo,NA,NA,NA,NULL,NA,NA,NA,NA,NA,NA,NA,NA,NA,NA,NA,NA,NA,NA,NA,NA,NA,NA,NA
ae9c0,Deep Question,html.Page,1_12_0_0,NA,NA,form submission,7749,248647,248646,248678,256427,256427,2023-10-29T08:19:22Z,256494,Sänger,mwimbaji,d,msichana,shughuli,mshirika,ashwato,NA,NA,NULL,NA,NA,NA,NA,NA,NA,NA,NA,NA,NA,NA,NA,NA,NA,NA,NA,NA,NA,NA
ae9c0,Save data screen,canvas.Screen,1_12_0_1,NA,NA,timeout,501,256428,256462,256494,256961,256962,2023-10-29T08:19:23Z,256995,Sänger,mwimbaji,d,msichana,shughuli,mshirika,NA,NA,0,NULL,NA,NA,NA,NA,NA,NA,NA,NA,NA,NA,NA,NA,NA,NA,NA,NA,NA,NA,NA
ae9c0,deep,flow.Sequence,1_12_0,NA,NA,completion,8283,248647,248646,248678,256961,256962,2023-10-29T08:19:23Z,256995,Sänger,mwimbaji,d,msichana,shughuli,mshirika,NA,NA,NA,NULL,NA,NA,NA,NA,NA,NA,NA,NA,NA,NA,NA,NA,NA,NA,NA,NA,NA,NA,NA
ae9c0,task,flow.Sequence,1_12,NA,NA,completion,8283,248647,248646,248678,256961,256963,2023-10-29T08:19:23Z,256995,Sänger,mwimbaji,d,msichana,shughuli,mshirika,NA,NA,NA,NULL,NA,NA,NA,NA,NA,NA,NA,NA,NA,NA,NA,NA,NA,NA,NA,NA,NA,NA,NA
ae9c0,Deep Question,html.Page,1_13_0_0,NA,NA,form submission,10183,256963,256961,256995,267178,267178,2023-10-29T08:19:33Z,267228,Können,unaweza,d,kiongozi,bustani,mienendo,shedadele,NA,NA,NULL,NA,NA,NA,NA,NA,NA,NA,NA,NA,NA,NA,NA,NA,NA,NA,NA,NA,NA,NA
ae9c0,Save data screen,canvas.Screen,1_13_0_1,NA,NA,timeout,500,267180,267195,267228,267695,267695,2023-10-29T08:19:33Z,267728,Können,unaweza,d,kiongozi,bustani,mienendo,NA,NA,0,NULL,NA,NA,NA,NA,NA,NA,NA,NA,NA,NA,NA,NA,NA,NA,NA,NA,NA,NA,NA
ae9c0,deep,flow.Sequence,1_13_0,NA,NA,completion,10700,256963,256961,256995,267695,267696,2023-10-29T08:19:33Z,267728,Können,unaweza,d,kiongozi,bustani,mienendo,NA,NA,NA,NULL,NA,NA,NA,NA,NA,NA,NA,NA,NA,NA,NA,NA,NA,NA,NA,NA,NA,NA,NA
ae9c0,task,flow.Sequence,1_13,NA,NA,completion,10700,256963,256961,256995,267695,267696,2023-10-29T08:19:33Z,267728,Können,unaweza,d,kiongozi,bustani,mienendo,NA,NA,NA,NULL,NA,NA,NA,NA,NA,NA,NA,NA,NA,NA,NA,NA,NA,NA,NA,NA,NA,NA,NA
ae9c0,Deep Question,html.Page,1_14_0_0,NA,NA,form submission,5938,267696,267695,267728,273666,273666,2023-10-29T08:19:39Z,273728,Kultur,utamaduni,s,shetani,gerezani,mazingira,d,NA,NA,NULL,NA,NA,NA,NA,NA,NA,NA,NA,NA,NA,NA,NA,NA,NA,NA,NA,NA,NA,NA
ae9c0,Save data screen,canvas.Screen,1_14_0_1,NA,NA,timeout,500,273667,273694,273728,274195,274196,2023-10-29T08:19:40Z,274228,Kultur,utamaduni,s,shetani,gerezani,mazingira,NA,NA,0,NULL,NA,NA,NA,NA,NA,NA,NA,NA,NA,NA,NA,NA,NA,NA,NA,NA,NA,NA,NA
ae9c0,deep,flow.Sequence,1_14_0,NA,NA,completion,6467,267696,267695,267728,274195,274196,2023-10-29T08:19:40Z,274228,Kultur,utamaduni,s,shetani,gerezani,mazingira,NA,NA,NA,NULL,NA,NA,NA,NA,NA,NA,NA,NA,NA,NA,NA,NA,NA,NA,NA,NA,NA,NA,NA
ae9c0,task,flow.Sequence,1_14,NA,NA,completion,6467,267696,267695,267728,274195,274196,2023-10-29T08:19:40Z,274228,Kultur,utamaduni,s,shetani,gerezani,mazingira,NA,NA,NA,NULL,NA,NA,NA,NA,NA,NA,NA,NA,NA,NA,NA,NA,NA,NA,NA,NA,NA,NA,NA
ae9c0,Deep Question,html.Page,1_15_0_0,NA,NA,form submission,41643,274197,274195,274228,315871,315872,2023-10-29T08:20:21Z,315928,Kanzler,diwani,s,rasilmali,mahitaji,maabudu,adhari,NA,NA,NULL,NA,NA,NA,NA,NA,NA,NA,NA,NA,NA,NA,NA,NA,NA,NA,NA,NA,NA,NA
ae9c0,Save data screen,canvas.Screen,1_15_0_1,NA,NA,timeout,500,315872,315894,315928,316395,316395,2023-10-29T08:20:22Z,316428,Kanzler,diwani,s,rasilmali,mahitaji,maabudu,NA,NA,0,NULL,NA,NA,NA,NA,NA,NA,NA,NA,NA,NA,NA,NA,NA,NA,NA,NA,NA,NA,NA
ae9c0,deep,flow.Sequence,1_15_0,NA,NA,completion,42167,274197,274195,274228,316395,316396,2023-10-29T08:20:22Z,316428,Kanzler,diwani,s,rasilmali,mahitaji,maabudu,NA,NA,NA,NULL,NA,NA,NA,NA,NA,NA,NA,NA,NA,NA,NA,NA,NA,NA,NA,NA,NA,NA,NA
ae9c0,task,flow.Sequence,1_15,NA,NA,completion,42167,274197,274195,274228,316395,316396,2023-10-29T08:20:22Z,316428,Kanzler,diwani,s,rasilmali,mahitaji,maabudu,NA,NA,NA,NULL,NA,NA,NA,NA,NA,NA,NA,NA,NA,NA,NA,NA,NA,NA,NA,NA,NA,NA,NA
ae9c0,retrieval block 1 (cued recall),flow.Loop,1,NA,NA,completion,303247,13106,13115,13148,316395,316396,2023-10-29T08:20:22Z,316428,NA,NA,NA,NA,NA,NA,NA,NA,NA,NULL,NA,NA,NA,NA,NA,NA,NA,NA,NA,NA,NA,NA,NA,NA,NA,NA,NA,NA,NA
ae9c0,Shallow Question,html.Page,2_0_0_0,NA,NA,form submission,4493,316397,316395,316428,320921,320921,2023-10-29T08:20:26Z,320978,Können,unaweza,d,kiongozi,bustani,mienendo,unaweza,NA,NA,"c(""distractor1"", ""distractor2"", ""distractor3"")",NA,NA,NA,NA,NA,NA,NA,NA,NA,NA,NA,NA,NA,NA,NA,NA,NA,NA,NA
ae9c0,Save data screen,canvas.Screen,2_0_0_1,NA,NA,timeout,500,320922,320944,320978,321444,321444,2023-10-29T08:20:27Z,321478,Können,unaweza,d,kiongozi,bustani,mienendo,NA,NA,1,"c(""distractor1"", ""distractor2"", ""distractor3"")",NA,NA,NA,NA,NA,NA,NA,NA,NA,NA,NA,NA,NA,NA,NA,NA,NA,NA,NA
ae9c0,shallow,flow.Sequence,2_0_0,NA,NA,completion,5016,316397,316395,316428,321444,321444,2023-10-29T08:20:27Z,321478,Können,unaweza,d,kiongozi,bustani,mienendo,NA,NA,NA,"c(""distractor1"", ""distractor2"", ""distractor3"")",NA,NA,NA,NA,NA,NA,NA,NA,NA,NA,NA,NA,NA,NA,NA,NA,NA,NA,NA
ae9c0,task,flow.Sequence,2_0,NA,NA,completion,5016,316396,316395,316428,321444,321444,2023-10-29T08:20:27Z,321478,Können,unaweza,d,kiongozi,bustani,mienendo,NA,NA,NA,"c(""distractor1"", ""distractor2"", ""distractor3"")",NA,NA,NA,NA,NA,NA,NA,NA,NA,NA,NA,NA,NA,NA,NA,NA,NA,NA,NA
ae9c0,Shallow Question,html.Page,2_1_0_0,NA,NA,form submission,1920,321445,321444,321478,323398,323398,2023-10-29T08:20:29Z,323444,Verzögerung,kuchelewa,s,mwakilishi,mwanauchumi,jaribio,kuchelewa,NA,NA,"c(""distractor1"", ""distractor2"", ""distractor3"")",NA,NA,NA,NA,NA,NA,NA,NA,NA,NA,NA,NA,NA,NA,NA,NA,NA,NA,NA
ae9c0,Save data screen,canvas.Screen,2_1_0_1,NA,NA,timeout,501,323399,323411,323444,323910,323911,2023-10-29T08:20:29Z,323945,Verzögerung,kuchelewa,s,mwakilishi,mwanauchumi,jaribio,NA,NA,1,"c(""distractor1"", ""distractor2"", ""distractor3"")",NA,NA,NA,NA,NA,NA,NA,NA,NA,NA,NA,NA,NA,NA,NA,NA,NA,NA,NA
ae9c0,shallow,flow.Sequence,2_1_0,NA,NA,completion,2432,321444,321444,321478,323910,323911,2023-10-29T08:20:29Z,323945,Verzögerung,kuchelewa,s,mwakilishi,mwanauchumi,jaribio,NA,NA,NA,"c(""distractor1"", ""distractor2"", ""distractor3"")",NA,NA,NA,NA,NA,NA,NA,NA,NA,NA,NA,NA,NA,NA,NA,NA,NA,NA,NA
ae9c0,task,flow.Sequence,2_1,NA,NA,completion,2432,321444,321444,321478,323910,323911,2023-10-29T08:20:29Z,323945,Verzögerung,kuchelewa,s,mwakilishi,mwanauchumi,jaribio,NA,NA,NA,"c(""distractor1"", ""distractor2"", ""distractor3"")",NA,NA,NA,NA,NA,NA,NA,NA,NA,NA,NA,NA,NA,NA,NA,NA,NA,NA,NA
ae9c0,Shallow Question,html.Page,2_2_0_0,NA,NA,form submission,5823,323912,323910,323945,329768,329768,2023-10-29T08:20:35Z,329811,Prüfung,mtihani,d,mkulima,mtizamo,ufumbuzi,ufumbuzi,NA,NA,"c(""distractor1"", ""distractor2"", ""distractor3"")",NA,NA,NA,NA,NA,NA,NA,NA,NA,NA,NA,NA,NA,NA,NA,NA,NA,NA,NA
ae9c0,Save data screen,canvas.Screen,2_2_0_1,NA,NA,timeout,499,329769,329777,329811,330278,330278,2023-10-29T08:20:36Z,330310,Prüfung,mtihani,d,mkulima,mtizamo,ufumbuzi,NA,NA,0,"c(""distractor1"", ""distractor2"", ""distractor3"")",NA,NA,NA,NA,NA,NA,NA,NA,NA,NA,NA,NA,NA,NA,NA,NA,NA,NA,NA
ae9c0,shallow,flow.Sequence,2_2_0,NA,NA,completion,6333,323912,323910,323945,330278,330279,2023-10-29T08:20:36Z,330310,Prüfung,mtihani,d,mkulima,mtizamo,ufumbuzi,NA,NA,NA,"c(""distractor1"", ""distractor2"", ""distractor3"")",NA,NA,NA,NA,NA,NA,NA,NA,NA,NA,NA,NA,NA,NA,NA,NA,NA,NA,NA
ae9c0,task,flow.Sequence,2_2,NA,NA,completion,6333,323911,323910,323945,330278,330279,2023-10-29T08:20:36Z,330310,Prüfung,mtihani,d,mkulima,mtizamo,ufumbuzi,NA,NA,NA,"c(""distractor1"", ""distractor2"", ""distractor3"")",NA,NA,NA,NA,NA,NA,NA,NA,NA,NA,NA,NA,NA,NA,NA,NA,NA,NA,NA
ae9c0,Shallow Question,html.Page,2_3_0_0,NA,NA,form submission,3449,330279,330278,330310,333759,333760,2023-10-29T08:20:39Z,333828,Gefährdung,kuhatarisha,s,uchokozi,udhaifu,makorowezo,kuhatarisha,NA,NA,"c(""distractor1"", ""distractor2"", ""distractor3"")",NA,NA,NA,NA,NA,NA,NA,NA,NA,NA,NA,NA,NA,NA,NA,NA,NA,NA,NA
ae9c0,Save data screen,canvas.Screen,2_3_0_1,NA,NA,timeout,500,333760,333793,333828,334294,334295,2023-10-29T08:20:40Z,334328,Gefährdung,kuhatarisha,s,uchokozi,udhaifu,makorowezo,NA,NA,1,"c(""distractor1"", ""distractor2"", ""distractor3"")",NA,NA,NA,NA,NA,NA,NA,NA,NA,NA,NA,NA,NA,NA,NA,NA,NA,NA,NA
ae9c0,shallow,flow.Sequence,2_3_0,NA,NA,completion,3984,330279,330278,330310,334294,334297,2023-10-29T08:20:40Z,334328,Gefährdung,kuhatarisha,s,uchokozi,udhaifu,makorowezo,NA,NA,NA,"c(""distractor1"", ""distractor2"", ""distractor3"")",NA,NA,NA,NA,NA,NA,NA,NA,NA,NA,NA,NA,NA,NA,NA,NA,NA,NA,NA
ae9c0,task,flow.Sequence,2_3,NA,NA,completion,3984,330279,330278,330310,334294,334297,2023-10-29T08:20:40Z,334328,Gefährdung,kuhatarisha,s,uchokozi,udhaifu,makorowezo,NA,NA,NA,"c(""distractor1"", ""distractor2"", ""distractor3"")",NA,NA,NA,NA,NA,NA,NA,NA,NA,NA,NA,NA,NA,NA,NA,NA,NA,NA,NA
ae9c0,Shallow Question,html.Page,2_4_0_0,NA,NA,form submission,7923.0000000001,334298,334294,334328,342251,342251,2023-10-29T08:20:48Z,342311,Kontrolle,kudhibiti,s,mbinguni,kufunga,utegemezi,kudhibiti,NA,NA,"c(""distractor1"", ""distractor2"", ""distractor3"")",NA,NA,NA,NA,NA,NA,NA,NA,NA,NA,NA,NA,NA,NA,NA,NA,NA,NA,NA
ae9c0,Save data screen,canvas.Screen,2_4_0_1,NA,NA,timeout,500,342253,342277,342311,342777,342777,2023-10-29T08:20:48Z,342811,Kontrolle,kudhibiti,s,mbinguni,kufunga,utegemezi,NA,NA,1,"c(""distractor1"", ""distractor2"", ""distractor3"")",NA,NA,NA,NA,NA,NA,NA,NA,NA,NA,NA,NA,NA,NA,NA,NA,NA,NA,NA
ae9c0,shallow,flow.Sequence,2_4_0,NA,NA,completion,8449,334298,334294,334328,342777,342778,2023-10-29T08:20:48Z,342811,Kontrolle,kudhibiti,s,mbinguni,kufunga,utegemezi,NA,NA,NA,"c(""distractor1"", ""distractor2"", ""distractor3"")",NA,NA,NA,NA,NA,NA,NA,NA,NA,NA,NA,NA,NA,NA,NA,NA,NA,NA,NA
ae9c0,task,flow.Sequence,2_4,NA,NA,completion,8449,334298,334294,334328,342777,342778,2023-10-29T08:20:48Z,342811,Kontrolle,kudhibiti,s,mbinguni,kufunga,utegemezi,NA,NA,NA,"c(""distractor1"", ""distractor2"", ""distractor3"")",NA,NA,NA,NA,NA,NA,NA,NA,NA,NA,NA,NA,NA,NA,NA,NA,NA,NA,NA
ae9c0,Shallow Question,html.Page,2_5_0_0,NA,NA,form submission,4788,342778,342777,342811,347599,347599,2023-10-29T08:20:53Z,347644,Kultur,utamaduni,s,shetani,gerezani,mazingira,utamaduni,NA,NA,"c(""distractor1"", ""distractor2"", ""distractor3"")",NA,NA,NA,NA,NA,NA,NA,NA,NA,NA,NA,NA,NA,NA,NA,NA,NA,NA,NA
ae9c0,Save data screen,canvas.Screen,2_5_0_1,NA,NA,timeout,499,347600,347611,347644,348111,348111,2023-10-29T08:20:54Z,348143,Kultur,utamaduni,s,shetani,gerezani,mazingira,NA,NA,1,"c(""distractor1"", ""distractor2"", ""distractor3"")",NA,NA,NA,NA,NA,NA,NA,NA,NA,NA,NA,NA,NA,NA,NA,NA,NA,NA,NA
ae9c0,shallow,flow.Sequence,2_5_0,NA,NA,completion,5300,342778,342777,342811,348111,348112,2023-10-29T08:20:54Z,348143,Kultur,utamaduni,s,shetani,gerezani,mazingira,NA,NA,NA,"c(""distractor1"", ""distractor2"", ""distractor3"")",NA,NA,NA,NA,NA,NA,NA,NA,NA,NA,NA,NA,NA,NA,NA,NA,NA,NA,NA
ae9c0,task,flow.Sequence,2_5,NA,NA,completion,5300,342778,342777,342811,348111,348112,2023-10-29T08:20:54Z,348143,Kultur,utamaduni,s,shetani,gerezani,mazingira,NA,NA,NA,"c(""distractor1"", ""distractor2"", ""distractor3"")",NA,NA,NA,NA,NA,NA,NA,NA,NA,NA,NA,NA,NA,NA,NA,NA,NA,NA,NA
ae9c0,Shallow Question,html.Page,2_6_0_0,NA,NA,form submission,4421,348112,348111,348143,352564,352564,2023-10-29T08:20:58Z,352610,Angreifer,mshambulizi,d,kitengo,tasinia,usafirishaji,mshambulizi,NA,NA,"c(""distractor1"", ""distractor2"", ""distractor3"")",NA,NA,NA,NA,NA,NA,NA,NA,NA,NA,NA,NA,NA,NA,NA,NA,NA,NA,NA
ae9c0,Save data screen,canvas.Screen,2_6_0_1,NA,NA,timeout,501,352565,352577,352610,353078,353078,2023-10-29T08:20:59Z,353111,Angreifer,mshambulizi,d,kitengo,tasinia,usafirishaji,NA,NA,1,"c(""distractor1"", ""distractor2"", ""distractor3"")",NA,NA,NA,NA,NA,NA,NA,NA,NA,NA,NA,NA,NA,NA,NA,NA,NA,NA,NA
ae9c0,shallow,flow.Sequence,2_6_0,NA,NA,completion,4935,348112,348111,348143,353078,353078,2023-10-29T08:20:59Z,353111,Angreifer,mshambulizi,d,kitengo,tasinia,usafirishaji,NA,NA,NA,"c(""distractor1"", ""distractor2"", ""distractor3"")",NA,NA,NA,NA,NA,NA,NA,NA,NA,NA,NA,NA,NA,NA,NA,NA,NA,NA,NA
ae9c0,task,flow.Sequence,2_6,NA,NA,completion,4935,348112,348111,348143,353078,353079,2023-10-29T08:20:59Z,353111,Angreifer,mshambulizi,d,kitengo,tasinia,usafirishaji,NA,NA,NA,"c(""distractor1"", ""distractor2"", ""distractor3"")",NA,NA,NA,NA,NA,NA,NA,NA,NA,NA,NA,NA,NA,NA,NA,NA,NA,NA,NA
ae9c0,Shallow Question,html.Page,2_7_0_0,NA,NA,form submission,3507,353079,353078,353111,356618,356618,2023-10-29T08:21:02Z,356677,System,maongozi,d,chokochoko,nuksani,mitaani,maongozi,NA,NA,"c(""distractor1"", ""distractor2"", ""distractor3"")",NA,NA,NA,NA,NA,NA,NA,NA,NA,NA,NA,NA,NA,NA,NA,NA,NA,NA,NA
ae9c0,Save data screen,canvas.Screen,2_7_0_1,NA,NA,timeout,500,356619,356644,356677,357143,357143,2023-10-29T08:21:03Z,357177,System,maongozi,d,chokochoko,nuksani,mitaani,NA,NA,1,"c(""distractor1"", ""distractor2"", ""distractor3"")",NA,NA,NA,NA,NA,NA,NA,NA,NA,NA,NA,NA,NA,NA,NA,NA,NA,NA,NA
ae9c0,shallow,flow.Sequence,2_7_0,NA,NA,completion,4032,353079,353078,353111,357143,357143,2023-10-29T08:21:03Z,357177,System,maongozi,d,chokochoko,nuksani,mitaani,NA,NA,NA,"c(""distractor1"", ""distractor2"", ""distractor3"")",NA,NA,NA,NA,NA,NA,NA,NA,NA,NA,NA,NA,NA,NA,NA,NA,NA,NA,NA
ae9c0,task,flow.Sequence,2_7,NA,NA,completion,4032,353079,353078,353111,357143,357144,2023-10-29T08:21:03Z,357177,System,maongozi,d,chokochoko,nuksani,mitaani,NA,NA,NA,"c(""distractor1"", ""distractor2"", ""distractor3"")",NA,NA,NA,NA,NA,NA,NA,NA,NA,NA,NA,NA,NA,NA,NA,NA,NA,NA,NA
ae9c0,Shallow Question,html.Page,2_8_0_0,NA,NA,form submission,2763,357144,357143,357177,359940,359940,2023-10-29T08:21:05Z,359994,Übersicht,kilindo,s,mgusano,chipukizi,kulinganisha,mgusano,NA,NA,"c(""distractor1"", ""distractor2"", ""distractor3"")",NA,NA,NA,NA,NA,NA,NA,NA,NA,NA,NA,NA,NA,NA,NA,NA,NA,NA,NA
ae9c0,Save data screen,canvas.Screen,2_8_0_1,NA,NA,timeout,499,359941,359960,359994,360461,360461,2023-10-29T08:21:06Z,360493,Übersicht,kilindo,s,mgusano,chipukizi,kulinganisha,NA,NA,0,"c(""distractor1"", ""distractor2"", ""distractor3"")",NA,NA,NA,NA,NA,NA,NA,NA,NA,NA,NA,NA,NA,NA,NA,NA,NA,NA,NA
ae9c0,shallow,flow.Sequence,2_8_0,NA,NA,completion,3284,357144,357143,357177,360461,360462,2023-10-29T08:21:06Z,360493,Übersicht,kilindo,s,mgusano,chipukizi,kulinganisha,NA,NA,NA,"c(""distractor1"", ""distractor2"", ""distractor3"")",NA,NA,NA,NA,NA,NA,NA,NA,NA,NA,NA,NA,NA,NA,NA,NA,NA,NA,NA
ae9c0,task,flow.Sequence,2_8,NA,NA,completion,3284,357144,357143,357177,360461,360462,2023-10-29T08:21:06Z,360493,Übersicht,kilindo,s,mgusano,chipukizi,kulinganisha,NA,NA,NA,"c(""distractor1"", ""distractor2"", ""distractor3"")",NA,NA,NA,NA,NA,NA,NA,NA,NA,NA,NA,NA,NA,NA,NA,NA,NA,NA,NA
ae9c0,Shallow Question,html.Page,2_9_0_0,NA,NA,form submission,2043,360462,360461,360493,362536,362536,2023-10-29T08:21:08Z,362577,Kanzler,diwani,s,rasilmali,mahitaji,maabudu,diwani,NA,NA,"c(""distractor1"", ""distractor2"", ""distractor3"")",NA,NA,NA,NA,NA,NA,NA,NA,NA,NA,NA,NA,NA,NA,NA,NA,NA,NA,NA
ae9c0,Save data screen,canvas.Screen,2_9_0_1,NA,NA,timeout,500,362536,362543,362577,363044,363045,2023-10-29T08:21:09Z,363077,Kanzler,diwani,s,rasilmali,mahitaji,maabudu,NA,NA,1,"c(""distractor1"", ""distractor2"", ""distractor3"")",NA,NA,NA,NA,NA,NA,NA,NA,NA,NA,NA,NA,NA,NA,NA,NA,NA,NA,NA
ae9c0,shallow,flow.Sequence,2_9_0,NA,NA,completion,2551,360462,360461,360493,363044,363045,2023-10-29T08:21:09Z,363077,Kanzler,diwani,s,rasilmali,mahitaji,maabudu,NA,NA,NA,"c(""distractor1"", ""distractor2"", ""distractor3"")",NA,NA,NA,NA,NA,NA,NA,NA,NA,NA,NA,NA,NA,NA,NA,NA,NA,NA,NA
ae9c0,task,flow.Sequence,2_9,NA,NA,completion,2551,360462,360461,360493,363044,363045,2023-10-29T08:21:09Z,363077,Kanzler,diwani,s,rasilmali,mahitaji,maabudu,NA,NA,NA,"c(""distractor1"", ""distractor2"", ""distractor3"")",NA,NA,NA,NA,NA,NA,NA,NA,NA,NA,NA,NA,NA,NA,NA,NA,NA,NA,NA
ae9c0,Shallow Question,html.Page,2_10_0_0,NA,NA,form submission,9761,363046,363044,363077,372838,372838,2023-10-29T08:21:18Z,372893,Sänger,mwimbaji,d,msichana,shughuli,mshirika,mwimbaji,NA,NA,"c(""distractor1"", ""distractor2"", ""distractor3"")",NA,NA,NA,NA,NA,NA,NA,NA,NA,NA,NA,NA,NA,NA,NA,NA,NA,NA,NA
ae9c0,Save data screen,canvas.Screen,2_10_0_1,NA,NA,timeout,501,372839,372861,372893,373360,373361,2023-10-29T08:21:19Z,373394,Sänger,mwimbaji,d,msichana,shughuli,mshirika,NA,NA,1,"c(""distractor1"", ""distractor2"", ""distractor3"")",NA,NA,NA,NA,NA,NA,NA,NA,NA,NA,NA,NA,NA,NA,NA,NA,NA,NA,NA
ae9c0,shallow,flow.Sequence,2_10_0,NA,NA,completion,10283,363046,363044,363077,373360,373361,2023-10-29T08:21:19Z,373394,Sänger,mwimbaji,d,msichana,shughuli,mshirika,NA,NA,NA,"c(""distractor1"", ""distractor2"", ""distractor3"")",NA,NA,NA,NA,NA,NA,NA,NA,NA,NA,NA,NA,NA,NA,NA,NA,NA,NA,NA
ae9c0,task,flow.Sequence,2_10,NA,NA,completion,10283,363046,363044,363077,373360,373361,2023-10-29T08:21:19Z,373394,Sänger,mwimbaji,d,msichana,shughuli,mshirika,NA,NA,NA,"c(""distractor1"", ""distractor2"", ""distractor3"")",NA,NA,NA,NA,NA,NA,NA,NA,NA,NA,NA,NA,NA,NA,NA,NA,NA,NA,NA
ae9c0,Shallow Question,html.Page,2_11_0_0,NA,NA,form submission,3780.0000000001,373362,373360,373394,377174,377174,2023-10-29T08:21:23Z,377226,Kreativität,ubunifu,d,mratibu,mwendelezo,makubaliano,ubunifu,NA,NA,"c(""distractor1"", ""distractor2"", ""distractor3"")",NA,NA,NA,NA,NA,NA,NA,NA,NA,NA,NA,NA,NA,NA,NA,NA,NA,NA,NA
ae9c0,Save data screen,canvas.Screen,2_11_0_1,NA,NA,timeout,500,377175,377194,377226,377693,377694,2023-10-29T08:21:23Z,377726,Kreativität,ubunifu,d,mratibu,mwendelezo,makubaliano,NA,NA,1,"c(""distractor1"", ""distractor2"", ""distractor3"")",NA,NA,NA,NA,NA,NA,NA,NA,NA,NA,NA,NA,NA,NA,NA,NA,NA,NA,NA
ae9c0,shallow,flow.Sequence,2_11_0,NA,NA,completion,4299,373361,373360,373394,377693,377694,2023-10-29T08:21:23Z,377726,Kreativität,ubunifu,d,mratibu,mwendelezo,makubaliano,NA,NA,NA,"c(""distractor1"", ""distractor2"", ""distractor3"")",NA,NA,NA,NA,NA,NA,NA,NA,NA,NA,NA,NA,NA,NA,NA,NA,NA,NA,NA
ae9c0,task,flow.Sequence,2_11,NA,NA,completion,4299,373361,373360,373394,377693,377695,2023-10-29T08:21:23Z,377726,Kreativität,ubunifu,d,mratibu,mwendelezo,makubaliano,NA,NA,NA,"c(""distractor1"", ""distractor2"", ""distractor3"")",NA,NA,NA,NA,NA,NA,NA,NA,NA,NA,NA,NA,NA,NA,NA,NA,NA,NA,NA
ae9c0,Shallow Question,html.Page,2_12_0_0,NA,NA,form submission,5466,377695,377693,377726,383192,383192,2023-10-29T08:21:29Z,383226,Lawine,banguko,d,maambukizi,usuluhishi,chekechea,banguko,NA,NA,"c(""distractor1"", ""distractor2"", ""distractor3"")",NA,NA,NA,NA,NA,NA,NA,NA,NA,NA,NA,NA,NA,NA,NA,NA,NA,NA,NA
ae9c0,Save data screen,canvas.Screen,2_12_0_1,NA,NA,timeout,501,383192,383197,383226,383693,383693,2023-10-29T08:21:29Z,383727,Lawine,banguko,d,maambukizi,usuluhishi,chekechea,NA,NA,1,"c(""distractor1"", ""distractor2"", ""distractor3"")",NA,NA,NA,NA,NA,NA,NA,NA,NA,NA,NA,NA,NA,NA,NA,NA,NA,NA,NA
ae9c0,shallow,flow.Sequence,2_12_0,NA,NA,completion,5967,377695,377693,377726,383693,383694,2023-10-29T08:21:29Z,383727,Lawine,banguko,d,maambukizi,usuluhishi,chekechea,NA,NA,NA,"c(""distractor1"", ""distractor2"", ""distractor3"")",NA,NA,NA,NA,NA,NA,NA,NA,NA,NA,NA,NA,NA,NA,NA,NA,NA,NA,NA
ae9c0,task,flow.Sequence,2_12,NA,NA,completion,5967,377695,377693,377726,383693,383694,2023-10-29T08:21:29Z,383727,Lawine,banguko,d,maambukizi,usuluhishi,chekechea,NA,NA,NA,"c(""distractor1"", ""distractor2"", ""distractor3"")",NA,NA,NA,NA,NA,NA,NA,NA,NA,NA,NA,NA,NA,NA,NA,NA,NA,NA,NA
ae9c0,Shallow Question,html.Page,2_13_0_0,NA,NA,form submission,11088,383694,383693,383727,394815,394815,2023-10-29T08:21:40Z,394876,Abrechnung,uhasibu,s,kusahihisha,mpambano,mashambulizi,uhasibu,NA,NA,"c(""distractor1"", ""distractor2"", ""distractor3"")",NA,NA,NA,NA,NA,NA,NA,NA,NA,NA,NA,NA,NA,NA,NA,NA,NA,NA,NA
ae9c0,Save data screen,canvas.Screen,2_13_0_1,NA,NA,timeout,500,394816,394844,394876,395343,395344,2023-10-29T08:21:41Z,395376,Abrechnung,uhasibu,s,kusahihisha,mpambano,mashambulizi,NA,NA,1,"c(""distractor1"", ""distractor2"", ""distractor3"")",NA,NA,NA,NA,NA,NA,NA,NA,NA,NA,NA,NA,NA,NA,NA,NA,NA,NA,NA
ae9c0,shallow,flow.Sequence,2_13_0,NA,NA,completion,11616,383694,383693,383727,395343,395344,2023-10-29T08:21:41Z,395376,Abrechnung,uhasibu,s,kusahihisha,mpambano,mashambulizi,NA,NA,NA,"c(""distractor1"", ""distractor2"", ""distractor3"")",NA,NA,NA,NA,NA,NA,NA,NA,NA,NA,NA,NA,NA,NA,NA,NA,NA,NA,NA
ae9c0,task,flow.Sequence,2_13,NA,NA,completion,11616,383694,383693,383727,395343,395344,2023-10-29T08:21:41Z,395376,Abrechnung,uhasibu,s,kusahihisha,mpambano,mashambulizi,NA,NA,NA,"c(""distractor1"", ""distractor2"", ""distractor3"")",NA,NA,NA,NA,NA,NA,NA,NA,NA,NA,NA,NA,NA,NA,NA,NA,NA,NA,NA
ae9c0,Shallow Question,html.Page,2_14_0_0,NA,NA,form submission,6821,395345,395343,395376,402197,402197,2023-10-29T08:21:48Z,402243,Aufstand,ugomaji,d,mazidio,msingi,kujieleza,ugomaji,NA,NA,"c(""distractor1"", ""distractor2"", ""distractor3"")",NA,NA,NA,NA,NA,NA,NA,NA,NA,NA,NA,NA,NA,NA,NA,NA,NA,NA,NA
ae9c0,Save data screen,canvas.Screen,2_14_0_1,NA,NA,timeout,499,402198,402209,402243,402709,402709,2023-10-29T08:21:48Z,402742,Aufstand,ugomaji,d,mazidio,msingi,kujieleza,NA,NA,1,"c(""distractor1"", ""distractor2"", ""distractor3"")",NA,NA,NA,NA,NA,NA,NA,NA,NA,NA,NA,NA,NA,NA,NA,NA,NA,NA,NA
ae9c0,shallow,flow.Sequence,2_14_0,NA,NA,completion,7333,395345,395343,395376,402709,402710,2023-10-29T08:21:48Z,402742,Aufstand,ugomaji,d,mazidio,msingi,kujieleza,NA,NA,NA,"c(""distractor1"", ""distractor2"", ""distractor3"")",NA,NA,NA,NA,NA,NA,NA,NA,NA,NA,NA,NA,NA,NA,NA,NA,NA,NA,NA
ae9c0,task,flow.Sequence,2_14,NA,NA,completion,7333,395345,395343,395376,402709,402710,2023-10-29T08:21:48Z,402742,Aufstand,ugomaji,d,mazidio,msingi,kujieleza,NA,NA,NA,"c(""distractor1"", ""distractor2"", ""distractor3"")",NA,NA,NA,NA,NA,NA,NA,NA,NA,NA,NA,NA,NA,NA,NA,NA,NA,NA,NA
ae9c0,Shallow Question,html.Page,2_15_0_0,NA,NA,form submission,2221,402711,402709,402742,404963,404963,2023-10-29T08:21:50Z,405009,Körper,kiwiliwili,s,mapambano,mpatanishi,kiolezo,kiwiliwili,NA,NA,"c(""distractor1"", ""distractor2"", ""distractor3"")",NA,NA,NA,NA,NA,NA,NA,NA,NA,NA,NA,NA,NA,NA,NA,NA,NA,NA,NA
ae9c0,Save data screen,canvas.Screen,2_15_0_1,NA,NA,timeout,501,404964,404976,405009,405476,405477,2023-10-29T08:21:51Z,405510,Körper,kiwiliwili,s,mapambano,mpatanishi,kiolezo,NA,NA,1,"c(""distractor1"", ""distractor2"", ""distractor3"")",NA,NA,NA,NA,NA,NA,NA,NA,NA,NA,NA,NA,NA,NA,NA,NA,NA,NA,NA
ae9c0,shallow,flow.Sequence,2_15_0,NA,NA,completion,2734,402711,402709,402742,405476,405477,2023-10-29T08:21:51Z,405510,Körper,kiwiliwili,s,mapambano,mpatanishi,kiolezo,NA,NA,NA,"c(""distractor1"", ""distractor2"", ""distractor3"")",NA,NA,NA,NA,NA,NA,NA,NA,NA,NA,NA,NA,NA,NA,NA,NA,NA,NA,NA
ae9c0,task,flow.Sequence,2_15,NA,NA,completion,2734,402710,402709,402742,405476,405478,2023-10-29T08:21:51Z,405510,Körper,kiwiliwili,s,mapambano,mpatanishi,kiolezo,NA,NA,NA,"c(""distractor1"", ""distractor2"", ""distractor3"")",NA,NA,NA,NA,NA,NA,NA,NA,NA,NA,NA,NA,NA,NA,NA,NA,NA,NA,NA
ae9c0,retrieval block 2 (multiple choice),flow.Loop,2,NA,NA,completion,89048,316396,316395,316428,405476,405478,2023-10-29T08:21:51Z,405510,NA,NA,NA,NA,NA,NA,NA,NA,NA,"c(""distractor1"", ""distractor2"", ""distractor3"")",NA,NA,NA,NA,NA,NA,NA,NA,NA,NA,NA,NA,NA,NA,NA,NA,NA,NA,NA
ae9c0,End,canvas.Screen,3,NA,keypress(Space),response,4430,405478,405476,405510,409906,409901,2023-10-29T08:21:55Z,409943,NA,NA,NA,NA,NA,NA,NA,NA,NA,NULL,NA,NA,NA,NA,NA,NA,NA,NA,NA,NA,NA,NA,NA,NA,NA,NA,NA,NA,NA
ae9c0,root,flow.Sequence,NA,NA,NA,completion,409167,652,660,739,409906,409901,2023-10-29T08:21:55Z,409943,NA,NA,NA,NA,NA,NA,NA,NA,NA,NULL,NA,NA,NA,NA,NA,NA,NA,NA,NA,NA,NA,NA,NA,NA,NA,NA,NA,NA,NA
