observation,sender,sender_type,sender_id,response,response_action,ended_on,duration,time_run,time_render,time_show,time_end,time_commit,timestamp,time_switch,distractors,german,swahili,enc,distractor1,distractor2,distractor3,response_2,x,correct,x_2,url_vp,url_sess,meta_labjs_version,meta_location,meta_user_agent,meta_platform,meta_language,meta_locale,meta_time_zone,meta_timezone_offset,meta_screen_width,meta_screen_height,meta_scroll_width,meta_scroll_height,meta_window_inner_width,meta_window_inner_height,meta_device_pixel_ratio,meta_labjs_build_flavor,meta_labjs_build_commit
94e80,Introduction general,canvas.Screen,0,weiter,keypress(q),response,1172734.836,953.5,366.257,982.764,1173717.6,1173725.6,2023-06-27T11:31:29Z,1173729.869,NULL,NA,NA,NA,NA,NA,NA,NA,NA,NA,NA,126,3,20.2.4,https://neurocog.fernuni.ch/studies/vweber/encoding_immediate/index.html?vp=126&sess=3,"Mozilla/5.0 (Windows NT 10.0; Win64; x64) AppleWebKit/537.36 (KHTML, like Gecko) Chrome/114.0.0.0 Safari/537.36",Win32,de-DE,de,Europe/Zurich,-120,1440,960,1440,761,1440,809,2,production,f5b4a49f956347addd546a832a3327688c2c0fef
94e80,Introduction practice,canvas.Screen,1_0,NA,keypress(Space),response,4973.4310000716,1173726.1,1173705.456,1173729.869,1178703.3000001,1178704.6,2023-06-27T11:31:34Z,1178718.483,NULL,NA,NA,NA,NA,NA,NA,NA,NA,NA,NA,NA,NA,NA,NA,NA,NA,NA,NA,NA,NA,NA,NA,NA,NA,NA,NA,NA,NA,NA
94e80,deep,flow.Sequence,1_1_0_0,NA,NA,skipped,NA,1178704.9000001,NA,NA,1178703.3000001,1178705.3000001,2023-06-27T11:31:34Z,1178718.483,"c(""distractor1"", ""distractor2"", ""distractor3"")",Gegenwart,hadhara,s,katiba,jokofu,mikopo,NA,NA,NA,NA,NA,NA,NA,NA,NA,NA,NA,NA,NA,NA,NA,NA,NA,NA,NA,NA,NA,NA,NA
94e80,Shallow Question,html.Page,1_1_0_1_0,NA,NA,form submission,6994.7170000477,1178705.6,1178698.16,1178718.483,1185713.2,1185713.4000001,2023-06-27T11:31:41Z,1185722.396,"c(""distractor1"", ""distractor2"", ""distractor3"")",Gegenwart,hadhara,s,katiba,jokofu,mikopo,mikopo,NA,NA,NA,NA,NA,NA,NA,NA,NA,NA,NA,NA,NA,NA,NA,NA,NA,NA,NA,NA,NA,NA
94e80,"""Richtig""-Screen",canvas.Screen,1_1_0_1_1,NA,NA,skipped,NA,1185714.4000001,NA,NA,1185713.2,1185714.4000001,2023-06-27T11:31:41Z,1185722.396,"c(""distractor1"", ""distractor2"", ""distractor3"")",Gegenwart,hadhara,s,katiba,jokofu,mikopo,NA,NA,NA,NA,NA,NA,NA,NA,NA,NA,NA,NA,NA,NA,NA,NA,NA,NA,NA,NA,NA,NA,NA
94e80,"""Falsch""-Screen",canvas.Screen,1_1_0_1_2,NA,NA,timeout,5006.9140000001,1185715.2,1185711.101,1185722.396,1190712.968,1190717.7,2023-06-27T11:31:46Z,1190729.31,"c(""distractor1"", ""distractor2"", ""distractor3"")",Gegenwart,hadhara,s,katiba,jokofu,mikopo,NA,NA,0,NA,NA,NA,NA,NA,NA,NA,NA,NA,NA,NA,NA,NA,NA,NA,NA,NA,NA,NA,NA
94e80,shallow,flow.Sequence,1_1_0_1,NA,NA,completion,11994.485,1178705.6,1178698.16,1178718.483,1190712.968,1190718.4000001,2023-06-27T11:31:46Z,1190729.31,"c(""distractor1"", ""distractor2"", ""distractor3"")",Gegenwart,hadhara,s,katiba,jokofu,mikopo,NA,NA,NA,NA,NA,NA,NA,NA,NA,NA,NA,NA,NA,NA,NA,NA,NA,NA,NA,NA,NA,NA,NA
94e80,task,flow.Sequence,1_1_0,NA,NA,completion,11994.485,1178704.9000001,1178698.16,1178718.483,1190712.968,1190718.6,2023-06-27T11:31:46Z,1190729.31,"c(""distractor1"", ""distractor2"", ""distractor3"")",Gegenwart,hadhara,s,katiba,jokofu,mikopo,NA,NA,NA,NA,NA,NA,NA,NA,NA,NA,NA,NA,NA,NA,NA,NA,NA,NA,NA,NA,NA,NA,NA
94e80,Deep Question,html.Page,1_1_1_0_0,NA,NA,form submission,3123.3900000476,1190719.3000001,1190712.968,1190729.31,1193852.7,1193852.9000001,2023-06-27T11:31:49Z,1193867.92,"c(""distractor1"", ""distractor2"", ""distractor3"")",Qualität,mtindo,d,NA,NA,NA,NA,NA,NA,NA,NA,NA,NA,NA,NA,NA,NA,NA,NA,NA,NA,NA,NA,NA,NA,NA,NA,NA,NA
94e80,"""Richtig""-Screen",canvas.Screen,1_1_1_0_1,NA,NA,skipped,NA,1193854.8000001,NA,NA,1193852.7,1193855.1,2023-06-27T11:31:49Z,1193867.92,"c(""distractor1"", ""distractor2"", ""distractor3"")",Qualität,mtindo,d,NA,NA,NA,NA,NA,NA,NA,NA,NA,NA,NA,NA,NA,NA,NA,NA,NA,NA,NA,NA,NA,NA,NA,NA,NA,NA
94e80,"""Falsch""-Screen",canvas.Screen,1_1_1_0_2,NA,NA,timeout,4993.858,1193855.7,1193851.663,1193867.92,1198845.38,1198847,2023-06-27T11:31:54Z,1198861.778,"c(""distractor1"", ""distractor2"", ""distractor3"")",Qualität,mtindo,d,NA,NA,NA,NA,NA,0,NA,NA,NA,NA,NA,NA,NA,NA,NA,NA,NA,NA,NA,NA,NA,NA,NA,NA,NA,NA
94e80,deep,flow.Sequence,1_1_1_0,NA,NA,completion,8116.0699999998,1190719.1,1190712.968,1190729.31,1198845.38,1198847.6,2023-06-27T11:31:54Z,1198861.778,"c(""distractor1"", ""distractor2"", ""distractor3"")",Qualität,mtindo,d,NA,NA,NA,NA,NA,NA,NA,NA,NA,NA,NA,NA,NA,NA,NA,NA,NA,NA,NA,NA,NA,NA,NA,NA,NA,NA
94e80,shallow,flow.Sequence,1_1_1_1,NA,NA,skipped,NA,1198847.7,NA,NA,1198845.38,1198847.9000001,2023-06-27T11:31:54Z,1198861.778,"c(""distractor1"", ""distractor2"", ""distractor3"")",Qualität,mtindo,d,NA,NA,NA,NA,NA,NA,NA,NA,NA,NA,NA,NA,NA,NA,NA,NA,NA,NA,NA,NA,NA,NA,NA,NA,NA,NA
94e80,task,flow.Sequence,1_1_1,NA,NA,completion,8116.0699999998,1190719,1190712.968,1190729.31,1198845.38,1198848.2,2023-06-27T11:31:54Z,1198861.778,"c(""distractor1"", ""distractor2"", ""distractor3"")",Qualität,mtindo,d,NA,NA,NA,NA,NA,NA,NA,NA,NA,NA,NA,NA,NA,NA,NA,NA,NA,NA,NA,NA,NA,NA,NA,NA,NA,NA
94e80,deep,flow.Sequence,1_1_2_0,NA,NA,skipped,NA,1198849.1,NA,NA,1198845.38,1198849.3000001,2023-06-27T11:31:54Z,1198861.778,"c(""distractor1"", ""distractor2"", ""distractor3"")",Rückhalt,msaada,s,muhula,auwali,kiwimbe,NA,NA,NA,NA,NA,NA,NA,NA,NA,NA,NA,NA,NA,NA,NA,NA,NA,NA,NA,NA,NA,NA,NA
94e80,Shallow Question,html.Page,1_1_2_1_0,NA,NA,form submission,3919.0220000716,1198849.7,1198845.38,1198861.778,1202780.8000001,1202780.9000001,2023-06-27T11:31:58Z,1202791.784,"c(""distractor1"", ""distractor2"", ""distractor3"")",Rückhalt,msaada,s,muhula,auwali,kiwimbe,kiwimbe,NA,NA,NA,NA,NA,NA,NA,NA,NA,NA,NA,NA,NA,NA,NA,NA,NA,NA,NA,NA,NA,NA
94e80,"""Richtig""-Screen",canvas.Screen,1_1_2_1_1,NA,NA,skipped,NA,1202782.8000001,NA,NA,1202780.8000001,1202782.9000001,2023-06-27T11:31:58Z,1202791.784,"c(""distractor1"", ""distractor2"", ""distractor3"")",Rückhalt,msaada,s,muhula,auwali,kiwimbe,NA,NA,NA,NA,NA,NA,NA,NA,NA,NA,NA,NA,NA,NA,NA,NA,NA,NA,NA,NA,NA,NA,NA
94e80,"""Falsch""-Screen",canvas.Screen,1_1_2_1_2,NA,NA,timeout,5000.858,1202783.5,1202770.707,1202791.784,1207775.985,1207777.1,2023-06-27T11:32:03Z,1207792.642,"c(""distractor1"", ""distractor2"", ""distractor3"")",Rückhalt,msaada,s,muhula,auwali,kiwimbe,NA,NA,0,NA,NA,NA,NA,NA,NA,NA,NA,NA,NA,NA,NA,NA,NA,NA,NA,NA,NA,NA,NA
94e80,shallow,flow.Sequence,1_1_2_1,NA,NA,completion,8914.2070000002,1198849.6,1198845.38,1198861.778,1207775.985,1207777.4000001,2023-06-27T11:32:03Z,1207792.642,"c(""distractor1"", ""distractor2"", ""distractor3"")",Rückhalt,msaada,s,muhula,auwali,kiwimbe,NA,NA,NA,NA,NA,NA,NA,NA,NA,NA,NA,NA,NA,NA,NA,NA,NA,NA,NA,NA,NA,NA,NA
94e80,task,flow.Sequence,1_1_2,NA,NA,completion,8914.2070000002,1198849,1198845.38,1198861.778,1207775.985,1207777.6,2023-06-27T11:32:03Z,1207792.642,"c(""distractor1"", ""distractor2"", ""distractor3"")",Rückhalt,msaada,s,muhula,auwali,kiwimbe,NA,NA,NA,NA,NA,NA,NA,NA,NA,NA,NA,NA,NA,NA,NA,NA,NA,NA,NA,NA,NA,NA,NA
94e80,Deep Question,html.Page,1_1_3_0_0,NA,NA,form submission,2242.7580000954,1207777.8000001,1207775.985,1207792.642,1210035.4000001,1210035.5,2023-06-27T11:32:05Z,1210047.194,"c(""distractor1"", ""distractor2"", ""distractor3"")",Schatten,kivuli,d,NA,NA,NA,NA,NA,NA,NA,NA,NA,NA,NA,NA,NA,NA,NA,NA,NA,NA,NA,NA,NA,NA,NA,NA,NA,NA
94e80,"""Richtig""-Screen",canvas.Screen,1_1_3_0_1,NA,NA,skipped,NA,1210037.1,NA,NA,1210035.4000001,1210037.2,2023-06-27T11:32:05Z,1210047.194,"c(""distractor1"", ""distractor2"", ""distractor3"")",Schatten,kivuli,d,NA,NA,NA,NA,NA,NA,NA,NA,NA,NA,NA,NA,NA,NA,NA,NA,NA,NA,NA,NA,NA,NA,NA,NA,NA,NA
94e80,"""Falsch""-Screen",canvas.Screen,1_1_3_0_2,NA,NA,timeout,5000.618,1210037.7,1210030.431,1210047.194,1215031.072,1215033,2023-06-27T11:32:10Z,1215047.812,"c(""distractor1"", ""distractor2"", ""distractor3"")",Schatten,kivuli,d,NA,NA,NA,NA,NA,0,NA,NA,NA,NA,NA,NA,NA,NA,NA,NA,NA,NA,NA,NA,NA,NA,NA,NA,NA,NA
94e80,deep,flow.Sequence,1_1_3_0,NA,NA,completion,7238.4299999999,1207777.8000001,1207775.985,1207792.642,1215031.072,1215033.6,2023-06-27T11:32:10Z,1215047.812,"c(""distractor1"", ""distractor2"", ""distractor3"")",Schatten,kivuli,d,NA,NA,NA,NA,NA,NA,NA,NA,NA,NA,NA,NA,NA,NA,NA,NA,NA,NA,NA,NA,NA,NA,NA,NA,NA,NA
94e80,shallow,flow.Sequence,1_1_3_1,NA,NA,skipped,NA,1215033.8000001,NA,NA,1215031.072,1215034,2023-06-27T11:32:10Z,1215047.812,"c(""distractor1"", ""distractor2"", ""distractor3"")",Schatten,kivuli,d,NA,NA,NA,NA,NA,NA,NA,NA,NA,NA,NA,NA,NA,NA,NA,NA,NA,NA,NA,NA,NA,NA,NA,NA,NA,NA
94e80,task,flow.Sequence,1_1_3,NA,NA,completion,7238.4299999999,1207777.7,1207775.985,1207792.642,1215031.072,1215034.1,2023-06-27T11:32:10Z,1215047.812,"c(""distractor1"", ""distractor2"", ""distractor3"")",Schatten,kivuli,d,NA,NA,NA,NA,NA,NA,NA,NA,NA,NA,NA,NA,NA,NA,NA,NA,NA,NA,NA,NA,NA,NA,NA,NA,NA,NA
94e80,deep,flow.Sequence,1_1_4_0,NA,NA,skipped,NA,1215034.3000001,NA,NA,1215031.072,1215034.4000001,2023-06-27T11:32:10Z,1215047.812,"c(""distractor1"", ""distractor2"", ""distractor3"")",Kritik,lawama,s,dereva,nafasi,mawazo,NA,NA,NA,NA,NA,NA,NA,NA,NA,NA,NA,NA,NA,NA,NA,NA,NA,NA,NA,NA,NA,NA,NA
94e80,Shallow Question,html.Page,1_1_4_1_0,NA,NA,form submission,1875.7880000239,1215034.5,1215031.072,1215047.812,1216923.6,1216923.9000001,2023-06-27T11:32:12Z,1216925.486,"c(""distractor1"", ""distractor2"", ""distractor3"")",Kritik,lawama,s,dereva,nafasi,mawazo,nafasi,NA,NA,NA,NA,NA,NA,NA,NA,NA,NA,NA,NA,NA,NA,NA,NA,NA,NA,NA,NA,NA,NA
94e80,"""Richtig""-Screen",canvas.Screen,1_1_4_1_1,NA,NA,skipped,NA,1216927.7,NA,NA,1216923.6,1216927.8000001,2023-06-27T11:32:12Z,1216925.486,"c(""distractor1"", ""distractor2"", ""distractor3"")",Kritik,lawama,s,dereva,nafasi,mawazo,NA,NA,NA,NA,NA,NA,NA,NA,NA,NA,NA,NA,NA,NA,NA,NA,NA,NA,NA,NA,NA,NA,NA
94e80,"""Falsch""-Screen",canvas.Screen,1_1_4_1_2,NA,NA,timeout,4992.898,1216928.3000001,1216909.187,1216925.486,1221901.709,1221902.6,2023-06-27T11:32:17Z,1221918.384,"c(""distractor1"", ""distractor2"", ""distractor3"")",Kritik,lawama,s,dereva,nafasi,mawazo,NA,NA,0,NA,NA,NA,NA,NA,NA,NA,NA,NA,NA,NA,NA,NA,NA,NA,NA,NA,NA,NA,NA
94e80,shallow,flow.Sequence,1_1_4_1,NA,NA,completion,6853.8970000001,1215034.5,1215031.072,1215047.812,1221901.709,1221902.9000001,2023-06-27T11:32:17Z,1221918.384,"c(""distractor1"", ""distractor2"", ""distractor3"")",Kritik,lawama,s,dereva,nafasi,mawazo,NA,NA,NA,NA,NA,NA,NA,NA,NA,NA,NA,NA,NA,NA,NA,NA,NA,NA,NA,NA,NA,NA,NA
94e80,task,flow.Sequence,1_1_4,NA,NA,completion,6853.8970000001,1215034.3000001,1215031.072,1215047.812,1221901.709,1221903.2,2023-06-27T11:32:17Z,1221918.384,"c(""distractor1"", ""distractor2"", ""distractor3"")",Kritik,lawama,s,dereva,nafasi,mawazo,NA,NA,NA,NA,NA,NA,NA,NA,NA,NA,NA,NA,NA,NA,NA,NA,NA,NA,NA,NA,NA,NA,NA
94e80,Deep Question,html.Page,1_1_5_0_0,NA,NA,form submission,4377.8160000476,1221903.3000001,1221901.709,1221918.384,1226296.2,1226296.4000001,2023-06-27T11:32:21Z,1226323.5,"c(""distractor1"", ""distractor2"", ""distractor3"")",Gesundheit,salama,d,NA,NA,NA,NA,NA,NA,NA,NA,NA,NA,NA,NA,NA,NA,NA,NA,NA,NA,NA,NA,NA,NA,NA,NA,NA,NA
94e80,"""Richtig""-Screen",canvas.Screen,1_1_5_0_1,NA,NA,skipped,NA,1226298.3000001,NA,NA,1226296.2,1226298.3000001,2023-06-27T11:32:21Z,1226323.5,"c(""distractor1"", ""distractor2"", ""distractor3"")",Gesundheit,salama,d,NA,NA,NA,NA,NA,NA,NA,NA,NA,NA,NA,NA,NA,NA,NA,NA,NA,NA,NA,NA,NA,NA,NA,NA,NA,NA
94e80,"""Falsch""-Screen",canvas.Screen,1_1_5_0_2,NA,NA,timeout,4995.446,1226298.9000001,1226306.829,1226323.5,1231302.555,1231303.5,2023-06-27T11:32:26Z,1231318.946,"c(""distractor1"", ""distractor2"", ""distractor3"")",Gesundheit,salama,d,NA,NA,NA,NA,NA,0,NA,NA,NA,NA,NA,NA,NA,NA,NA,NA,NA,NA,NA,NA,NA,NA,NA,NA,NA,NA
94e80,deep,flow.Sequence,1_1_5_0,NA,NA,completion,9384.1709999999,1221903.3000001,1221901.709,1221918.384,1231302.555,1231303.8000001,2023-06-27T11:32:26Z,1231318.946,"c(""distractor1"", ""distractor2"", ""distractor3"")",Gesundheit,salama,d,NA,NA,NA,NA,NA,NA,NA,NA,NA,NA,NA,NA,NA,NA,NA,NA,NA,NA,NA,NA,NA,NA,NA,NA,NA,NA
94e80,shallow,flow.Sequence,1_1_5_1,NA,NA,skipped,NA,1231304,NA,NA,1231302.555,1231304.1,2023-06-27T11:32:26Z,1231318.946,"c(""distractor1"", ""distractor2"", ""distractor3"")",Gesundheit,salama,d,NA,NA,NA,NA,NA,NA,NA,NA,NA,NA,NA,NA,NA,NA,NA,NA,NA,NA,NA,NA,NA,NA,NA,NA,NA,NA
94e80,task,flow.Sequence,1_1_5,NA,NA,completion,9384.1709999999,1221903.2,1221901.709,1221918.384,1231302.555,1231304.3000001,2023-06-27T11:32:26Z,1231318.946,"c(""distractor1"", ""distractor2"", ""distractor3"")",Gesundheit,salama,d,NA,NA,NA,NA,NA,NA,NA,NA,NA,NA,NA,NA,NA,NA,NA,NA,NA,NA,NA,NA,NA,NA,NA,NA,NA,NA
94e80,block,flow.Loop,1_1,NA,NA,completion,52584.072,1178704.9000001,1178698.16,1178718.483,1231302.555,1231304.5,2023-06-27T11:32:26Z,1231318.946,"c(""distractor1"", ""distractor2"", ""distractor3"")",NA,NA,NA,NA,NA,NA,NA,NA,NA,NA,NA,NA,NA,NA,NA,NA,NA,NA,NA,NA,NA,NA,NA,NA,NA,NA,NA,NA,NA
94e80,Practice,flow.Sequence,1,NA,NA,completion,57572.686,1173726.1,1173705.456,1173729.869,1231302.555,1231304.7,2023-06-27T11:32:26Z,1231318.946,NULL,NA,NA,NA,NA,NA,NA,NA,NA,NA,NA,NA,NA,NA,NA,NA,NA,NA,NA,NA,NA,NA,NA,NA,NA,NA,NA,NA,NA,NA
94e80,Experiment start,canvas.Screen,2,weiter,keypress(q),response,36776.754000048,1231304.9000001,1231302.555,1231318.946,1268095.7,1268101,2023-06-27T11:33:03Z,1268200.691,NULL,NA,NA,NA,NA,NA,NA,NA,NA,NA,NA,NA,NA,NA,NA,NA,NA,NA,NA,NA,NA,NA,NA,NA,NA,NA,NA,NA,NA,NA
94e80,deep,flow.Sequence,3_0_0_0_0_0,NA,NA,skipped,NA,1268188.4000001,NA,NA,1268095.7,1268188.5,2023-06-27T11:33:03Z,1268200.691,NULL,Prüfung,mtihani,s,mkulima,mtizamo,ufumbuzi,NA,sdf,NA,0,NA,NA,NA,NA,NA,NA,NA,NA,NA,NA,NA,NA,NA,NA,NA,NA,NA,NA,NA
94e80,Shallow Question,html.Page,3_0_0_0_0_1_0,NA,NA,form submission,9683.7090000953,1268188.6,1268174.092,1268200.691,1277884.4000001,1277884.6,2023-06-27T11:33:13Z,1277895.086,NULL,Prüfung,mtihani,s,mkulima,mtizamo,ufumbuzi,mtihani,NA,NA,0,NA,NA,NA,NA,NA,NA,NA,NA,NA,NA,NA,NA,NA,NA,NA,NA,NA,NA,NA
94e80,"""Richtig""-Screen",canvas.Screen,3_0_0_0_0_1_1,NA,NA,timeout,4995.7830000001,1277886.5,1277881.599,1277895.086,1282874.428,1282875.4000001,2023-06-27T11:33:18Z,1282890.869,NULL,Prüfung,mtihani,s,mkulima,mtizamo,ufumbuzi,NA,sdf,1,0,NA,NA,NA,NA,NA,NA,NA,NA,NA,NA,NA,NA,NA,NA,NA,NA,NA,NA,NA
94e80,"""Falsch""-Screen",canvas.Screen,3_0_0_0_0_1_2,NA,NA,skipped,NA,1282880.4000001,NA,NA,1282874.428,1282880.9000001,2023-06-27T11:33:18Z,1282890.869,NULL,Prüfung,mtihani,s,mkulima,mtizamo,ufumbuzi,NA,sdf,NA,0,NA,NA,NA,NA,NA,NA,NA,NA,NA,NA,NA,NA,NA,NA,NA,NA,NA,NA,NA
94e80,shallow,flow.Sequence,3_0_0_0_0_1,NA,NA,completion,14673.737,1268188.6,1268174.092,1268200.691,1282874.428,1282881.1,2023-06-27T11:33:18Z,1282890.869,NULL,Prüfung,mtihani,s,mkulima,mtizamo,ufumbuzi,NA,sdf,NA,0,NA,NA,NA,NA,NA,NA,NA,NA,NA,NA,NA,NA,NA,NA,NA,NA,NA,NA,NA
94e80,task,flow.Sequence,3_0_0_0_0,NA,NA,completion,14673.737,1268188.4000001,1268174.092,1268200.691,1282874.428,1282881.3000001,2023-06-27T11:33:18Z,1282890.869,NULL,Prüfung,mtihani,s,mkulima,mtizamo,ufumbuzi,NA,sdf,NA,0,NA,NA,NA,NA,NA,NA,NA,NA,NA,NA,NA,NA,NA,NA,NA,NA,NA,NA,NA
94e80,Deep Question,html.Page,3_0_0_0_1_0_0,NA,NA,form submission,3145.5310000954,1282881.4000001,1282874.428,1282890.869,1286036.4000001,1286036.6,2023-06-27T11:33:21Z,1286043.217,NULL,Kultur,utamaduni,d,NA,NA,NA,NA,NA,NA,0,NA,NA,NA,NA,NA,NA,NA,NA,NA,NA,NA,NA,NA,NA,NA,NA,NA,NA,NA
94e80,"""Richtig""-Screen",canvas.Screen,3_0_0_0_1_0_1,NA,NA,skipped,NA,1286038.1,NA,NA,1286036.4000001,1286038.3000001,2023-06-27T11:33:21Z,1286043.217,NULL,Kultur,utamaduni,d,NA,NA,NA,NA,sdf,NA,0,NA,NA,NA,NA,NA,NA,NA,NA,NA,NA,NA,NA,NA,NA,NA,NA,NA,NA,NA
94e80,"""Falsch""-Screen",canvas.Screen,3_0_0_0_1_0_2,NA,NA,timeout,4998.2660000001,1286038.7,1286026.786,1286043.217,1291024.93,1291025.7,2023-06-27T11:33:26Z,1291041.483,NULL,Kultur,utamaduni,d,NA,NA,NA,NA,sdf,0,0,NA,NA,NA,NA,NA,NA,NA,NA,NA,NA,NA,NA,NA,NA,NA,NA,NA,NA,NA
94e80,deep,flow.Sequence,3_0_0_0_1_0,NA,NA,completion,8134.061,1282881.4000001,1282874.428,1282890.869,1291024.93,1291026,2023-06-27T11:33:26Z,1291041.483,NULL,Kultur,utamaduni,d,NA,NA,NA,NA,sdf,NA,0,NA,NA,NA,NA,NA,NA,NA,NA,NA,NA,NA,NA,NA,NA,NA,NA,NA,NA,NA
94e80,shallow,flow.Sequence,3_0_0_0_1_1,NA,NA,skipped,NA,1291026.7,NA,NA,1291024.93,1291026.8000001,2023-06-27T11:33:26Z,1291041.483,NULL,Kultur,utamaduni,d,NA,NA,NA,NA,sdf,NA,0,NA,NA,NA,NA,NA,NA,NA,NA,NA,NA,NA,NA,NA,NA,NA,NA,NA,NA,NA
94e80,task,flow.Sequence,3_0_0_0_1,NA,NA,completion,8134.061,1282881.3000001,1282874.428,1282890.869,1291024.93,1291027,2023-06-27T11:33:26Z,1291041.483,NULL,Kultur,utamaduni,d,NA,NA,NA,NA,sdf,NA,0,NA,NA,NA,NA,NA,NA,NA,NA,NA,NA,NA,NA,NA,NA,NA,NA,NA,NA,NA
94e80,deep,flow.Sequence,3_0_0_0_2_0,NA,NA,skipped,NA,1291027.1,NA,NA,1291024.93,1291027.4000001,2023-06-27T11:33:26Z,1291041.483,NULL,Beweis,ushahidi,s,marudio,kizuizi,mtendaji,NA,sdf,NA,0,NA,NA,NA,NA,NA,NA,NA,NA,NA,NA,NA,NA,NA,NA,NA,NA,NA,NA,NA
94e80,Shallow Question,html.Page,3_0_0_0_2_1_0,NA,NA,form submission,4317.8170000715,1291027.5,1291024.93,1291041.483,1295359.3000001,1295359.6,2023-06-27T11:33:30Z,1295370.398,NULL,Beweis,ushahidi,s,marudio,kizuizi,mtendaji,marudio,NA,NA,0,NA,NA,NA,NA,NA,NA,NA,NA,NA,NA,NA,NA,NA,NA,NA,NA,NA,NA,NA
94e80,"""Richtig""-Screen",canvas.Screen,3_0_0_0_2_1_1,NA,NA,skipped,NA,1295361.2,NA,NA,1295359.3000001,1295361.3000001,2023-06-27T11:33:30Z,1295370.398,NULL,Beweis,ushahidi,s,marudio,kizuizi,mtendaji,NA,sdf,NA,0,NA,NA,NA,NA,NA,NA,NA,NA,NA,NA,NA,NA,NA,NA,NA,NA,NA,NA,NA
94e80,"""Falsch""-Screen",canvas.Screen,3_0_0_0_2_1_2,NA,NA,timeout,4999.9309999999,1295361.7,1295349.771,1295370.398,1300353.612,1300354.5,2023-06-27T11:33:35Z,1300370.329,NULL,Beweis,ushahidi,s,marudio,kizuizi,mtendaji,NA,sdf,0,0,NA,NA,NA,NA,NA,NA,NA,NA,NA,NA,NA,NA,NA,NA,NA,NA,NA,NA,NA
94e80,shallow,flow.Sequence,3_0_0_0_2_1,NA,NA,completion,9312.129,1291027.5,1291024.93,1291041.483,1300353.612,1300354.9000001,2023-06-27T11:33:35Z,1300370.329,NULL,Beweis,ushahidi,s,marudio,kizuizi,mtendaji,NA,sdf,NA,0,NA,NA,NA,NA,NA,NA,NA,NA,NA,NA,NA,NA,NA,NA,NA,NA,NA,NA,NA
94e80,task,flow.Sequence,3_0_0_0_2,NA,NA,completion,9312.129,1291027.1,1291024.93,1291041.483,1300353.612,1300355.1,2023-06-27T11:33:35Z,1300370.329,NULL,Beweis,ushahidi,s,marudio,kizuizi,mtendaji,NA,sdf,NA,0,NA,NA,NA,NA,NA,NA,NA,NA,NA,NA,NA,NA,NA,NA,NA,NA,NA,NA,NA
94e80,deep,flow.Sequence,3_0_0_0_3_0,NA,NA,skipped,NA,1300355.3000001,NA,NA,1300353.612,1300355.4000001,2023-06-27T11:33:35Z,1300370.329,NULL,Aufstand,ugomaji,s,mazidio,msingi,kujieleza,NA,sdf,NA,0,NA,NA,NA,NA,NA,NA,NA,NA,NA,NA,NA,NA,NA,NA,NA,NA,NA,NA,NA
94e80,Shallow Question,html.Page,3_0_0_0_3_1_0,NA,NA,form submission,9847.6710000001,1300355.5,1300353.612,1300370.329,1310218,1310218.1,2023-06-27T11:33:45Z,1310228.546,NULL,Aufstand,ugomaji,s,mazidio,msingi,kujieleza,mazidio,NA,NA,0,NA,NA,NA,NA,NA,NA,NA,NA,NA,NA,NA,NA,NA,NA,NA,NA,NA,NA,NA
94e80,"""Richtig""-Screen",canvas.Screen,3_0_0_0_3_1_1,NA,NA,skipped,NA,1310219.7,NA,NA,1310218,1310219.8000001,2023-06-27T11:33:45Z,1310228.546,NULL,Aufstand,ugomaji,s,mazidio,msingi,kujieleza,NA,sdf,NA,0,NA,NA,NA,NA,NA,NA,NA,NA,NA,NA,NA,NA,NA,NA,NA,NA,NA,NA,NA
94e80,"""Falsch""-Screen",canvas.Screen,3_0_0_0_3_1_2,NA,NA,timeout,5005.7759999998,1310220.2,1310201.948,1310228.546,1315217.993,1315220.6,2023-06-27T11:33:50Z,1315234.322,NULL,Aufstand,ugomaji,s,mazidio,msingi,kujieleza,NA,sdf,0,0,NA,NA,NA,NA,NA,NA,NA,NA,NA,NA,NA,NA,NA,NA,NA,NA,NA,NA,NA
94e80,shallow,flow.Sequence,3_0_0_0_3_1,NA,NA,completion,14847.664,1300355.5,1300353.612,1300370.329,1315217.993,1315221.6,2023-06-27T11:33:50Z,1315234.322,NULL,Aufstand,ugomaji,s,mazidio,msingi,kujieleza,NA,sdf,NA,0,NA,NA,NA,NA,NA,NA,NA,NA,NA,NA,NA,NA,NA,NA,NA,NA,NA,NA,NA
94e80,task,flow.Sequence,3_0_0_0_3,NA,NA,completion,14847.664,1300355.2,1300353.612,1300370.329,1315217.993,1315221.8000001,2023-06-27T11:33:50Z,1315234.322,NULL,Aufstand,ugomaji,s,mazidio,msingi,kujieleza,NA,sdf,NA,0,NA,NA,NA,NA,NA,NA,NA,NA,NA,NA,NA,NA,NA,NA,NA,NA,NA,NA,NA
94e80,deep,flow.Sequence,3_0_0_0_4_0,NA,NA,skipped,NA,1315222,NA,NA,1315217.993,1315222.2,2023-06-27T11:33:50Z,1315234.322,NULL,Polizist,msongora,s,simanzi,mandhari,nidhamu,NA,sdf,NA,0,NA,NA,NA,NA,NA,NA,NA,NA,NA,NA,NA,NA,NA,NA,NA,NA,NA,NA,NA
94e80,Shallow Question,html.Page,3_0_0_0_4_1_0,NA,NA,form submission,2561.5780000954,1315222.3000001,1315217.993,1315234.322,1317795.9000001,1317796.1,2023-06-27T11:33:53Z,1317806.75,NULL,Polizist,msongora,s,simanzi,mandhari,nidhamu,msongora,NA,NA,0,NA,NA,NA,NA,NA,NA,NA,NA,NA,NA,NA,NA,NA,NA,NA,NA,NA,NA,NA
94e80,"""Richtig""-Screen",canvas.Screen,3_0_0_0_4_1_1,NA,NA,timeout,4995.9240000001,1317797.6,1317789.911,1317806.75,1322786.28,1322787.1,2023-06-27T11:33:58Z,1322802.674,NULL,Polizist,msongora,s,simanzi,mandhari,nidhamu,NA,sdf,1,0,NA,NA,NA,NA,NA,NA,NA,NA,NA,NA,NA,NA,NA,NA,NA,NA,NA,NA,NA
94e80,"""Falsch""-Screen",canvas.Screen,3_0_0_0_4_1_2,NA,NA,skipped,NA,1322791.5,NA,NA,1322786.28,1322791.9000001,2023-06-27T11:33:58Z,1322802.674,NULL,Polizist,msongora,s,simanzi,mandhari,nidhamu,NA,sdf,NA,0,NA,NA,NA,NA,NA,NA,NA,NA,NA,NA,NA,NA,NA,NA,NA,NA,NA,NA,NA
94e80,shallow,flow.Sequence,3_0_0_0_4_1,NA,NA,completion,7551.9580000001,1315222.3000001,1315217.993,1315234.322,1322786.28,1322792.1,2023-06-27T11:33:58Z,1322802.674,NULL,Polizist,msongora,s,simanzi,mandhari,nidhamu,NA,sdf,NA,0,NA,NA,NA,NA,NA,NA,NA,NA,NA,NA,NA,NA,NA,NA,NA,NA,NA,NA,NA
94e80,task,flow.Sequence,3_0_0_0_4,NA,NA,completion,7551.9580000001,1315221.9000001,1315217.993,1315234.322,1322786.28,1322792.4000001,2023-06-27T11:33:58Z,1322802.674,NULL,Polizist,msongora,s,simanzi,mandhari,nidhamu,NA,sdf,NA,0,NA,NA,NA,NA,NA,NA,NA,NA,NA,NA,NA,NA,NA,NA,NA,NA,NA,NA,NA
94e80,Deep Question,html.Page,3_0_0_0_5_0_0,NA,NA,form submission,2042.5260000476,1322792.6,1322786.28,1322802.674,1324845.2,1324845.3000001,2023-06-27T11:34:00Z,1324854.484,NULL,Sympathie,mapendano,d,NA,NA,NA,NA,NA,NA,0,NA,NA,NA,NA,NA,NA,NA,NA,NA,NA,NA,NA,NA,NA,NA,NA,NA,NA,NA
94e80,"""Richtig""-Screen",canvas.Screen,3_0_0_0_5_0_1,NA,NA,skipped,NA,1324845.9000001,NA,NA,1324845.2,1324846,2023-06-27T11:34:00Z,1324854.484,NULL,Sympathie,mapendano,d,NA,NA,NA,NA,sdf,NA,0,NA,NA,NA,NA,NA,NA,NA,NA,NA,NA,NA,NA,NA,NA,NA,NA,NA,NA,NA
94e80,"""Falsch""-Screen",canvas.Screen,3_0_0_0_5_0_2,NA,NA,timeout,5007.5450000002,1324846.5,1324837.097,1324854.484,1329845.195,1329846.3000001,2023-06-27T11:34:05Z,1329862.029,NULL,Sympathie,mapendano,d,NA,NA,NA,NA,sdf,0,0,NA,NA,NA,NA,NA,NA,NA,NA,NA,NA,NA,NA,NA,NA,NA,NA,NA,NA,NA
94e80,deep,flow.Sequence,3_0_0_0_5_0,NA,NA,completion,7042.5209999999,1322792.5,1322786.28,1322802.674,1329845.195,1329846.7,2023-06-27T11:34:05Z,1329862.029,NULL,Sympathie,mapendano,d,NA,NA,NA,NA,sdf,NA,0,NA,NA,NA,NA,NA,NA,NA,NA,NA,NA,NA,NA,NA,NA,NA,NA,NA,NA,NA
94e80,shallow,flow.Sequence,3_0_0_0_5_1,NA,NA,skipped,NA,1329846.8000001,NA,NA,1329845.195,1329847,2023-06-27T11:34:05Z,1329862.029,NULL,Sympathie,mapendano,d,NA,NA,NA,NA,sdf,NA,0,NA,NA,NA,NA,NA,NA,NA,NA,NA,NA,NA,NA,NA,NA,NA,NA,NA,NA,NA
94e80,task,flow.Sequence,3_0_0_0_5,NA,NA,completion,7042.5209999999,1322792.4000001,1322786.28,1322802.674,1329845.195,1329847.2,2023-06-27T11:34:05Z,1329862.029,NULL,Sympathie,mapendano,d,NA,NA,NA,NA,sdf,NA,0,NA,NA,NA,NA,NA,NA,NA,NA,NA,NA,NA,NA,NA,NA,NA,NA,NA,NA,NA
94e80,Deep Question,html.Page,3_0_0_0_6_0_0,NA,NA,form submission,2654.6710000476,1329847.8000001,1329845.195,1329862.029,1332516.7,1332517,2023-06-27T11:34:08Z,1332543.262,NULL,Verzögerung,kuchelewa,d,NA,NA,NA,NA,NA,NA,0,NA,NA,NA,NA,NA,NA,NA,NA,NA,NA,NA,NA,NA,NA,NA,NA,NA,NA,NA
94e80,"""Richtig""-Screen",canvas.Screen,3_0_0_0_6_0_1,NA,NA,skipped,NA,1332519,NA,NA,1332516.7,1332519.1,2023-06-27T11:34:08Z,1332543.262,NULL,Verzögerung,kuchelewa,d,NA,NA,NA,NA,sdf,NA,0,NA,NA,NA,NA,NA,NA,NA,NA,NA,NA,NA,NA,NA,NA,NA,NA,NA,NA,NA
94e80,"""Falsch""-Screen",canvas.Screen,3_0_0_0_6_0_2,NA,NA,timeout,4998.382,1332519.8000001,1332526.592,1332543.262,1337525.148,1337526.2,2023-06-27T11:34:13Z,1337541.644,NULL,Verzögerung,kuchelewa,d,NA,NA,NA,NA,sdf,0,0,NA,NA,NA,NA,NA,NA,NA,NA,NA,NA,NA,NA,NA,NA,NA,NA,NA,NA,NA
94e80,deep,flow.Sequence,3_0_0_0_6_0,NA,NA,completion,7663.1189999999,1329847.8000001,1329845.195,1329862.029,1337525.148,1337526.7,2023-06-27T11:34:13Z,1337541.644,NULL,Verzögerung,kuchelewa,d,NA,NA,NA,NA,sdf,NA,0,NA,NA,NA,NA,NA,NA,NA,NA,NA,NA,NA,NA,NA,NA,NA,NA,NA,NA,NA
94e80,shallow,flow.Sequence,3_0_0_0_6_1,NA,NA,skipped,NA,1337526.8000001,NA,NA,1337525.148,1337527,2023-06-27T11:34:13Z,1337541.644,NULL,Verzögerung,kuchelewa,d,NA,NA,NA,NA,sdf,NA,0,NA,NA,NA,NA,NA,NA,NA,NA,NA,NA,NA,NA,NA,NA,NA,NA,NA,NA,NA
94e80,task,flow.Sequence,3_0_0_0_6,NA,NA,completion,7663.1189999999,1329847.3000001,1329845.195,1329862.029,1337525.148,1337527.2,2023-06-27T11:34:13Z,1337541.644,NULL,Verzögerung,kuchelewa,d,NA,NA,NA,NA,sdf,NA,0,NA,NA,NA,NA,NA,NA,NA,NA,NA,NA,NA,NA,NA,NA,NA,NA,NA,NA,NA
94e80,Deep Question,html.Page,3_0_0_0_7_0_0,NA,NA,form submission,1588.8559999999,1337527.3000001,1337525.148,1337541.644,1339130.5,1339130.7,2023-06-27T11:34:14Z,1339141.576,NULL,Annäherung,maegesho,d,NA,NA,NA,NA,NA,NA,0,NA,NA,NA,NA,NA,NA,NA,NA,NA,NA,NA,NA,NA,NA,NA,NA,NA,NA,NA
94e80,"""Richtig""-Screen",canvas.Screen,3_0_0_0_7_0_1,NA,NA,skipped,NA,1339132.5,NA,NA,1339130.5,1339132.5,2023-06-27T11:34:14Z,1339141.576,NULL,Annäherung,maegesho,d,NA,NA,NA,NA,sdf,NA,0,NA,NA,NA,NA,NA,NA,NA,NA,NA,NA,NA,NA,NA,NA,NA,NA,NA,NA,NA
94e80,"""Falsch""-Screen",canvas.Screen,3_0_0_0_7_0_2,NA,NA,timeout,5003.3820000002,1339133,1339117.002,1339141.576,1344128.747,1344129.8000001,2023-06-27T11:34:19Z,1344144.958,NULL,Annäherung,maegesho,d,NA,NA,NA,NA,sdf,0,0,NA,NA,NA,NA,NA,NA,NA,NA,NA,NA,NA,NA,NA,NA,NA,NA,NA,NA,NA
94e80,deep,flow.Sequence,3_0_0_0_7_0,NA,NA,completion,6587.1029999999,1337527.3000001,1337525.148,1337541.644,1344128.747,1344130.1,2023-06-27T11:34:19Z,1344144.958,NULL,Annäherung,maegesho,d,NA,NA,NA,NA,sdf,NA,0,NA,NA,NA,NA,NA,NA,NA,NA,NA,NA,NA,NA,NA,NA,NA,NA,NA,NA,NA
94e80,shallow,flow.Sequence,3_0_0_0_7_1,NA,NA,skipped,NA,1344130.3000001,NA,NA,1344128.747,1344130.4000001,2023-06-27T11:34:19Z,1344144.958,NULL,Annäherung,maegesho,d,NA,NA,NA,NA,sdf,NA,0,NA,NA,NA,NA,NA,NA,NA,NA,NA,NA,NA,NA,NA,NA,NA,NA,NA,NA,NA
94e80,task,flow.Sequence,3_0_0_0_7,NA,NA,completion,6587.1029999999,1337527.2,1337525.148,1337541.644,1344128.747,1344130.5,2023-06-27T11:34:19Z,1344144.958,NULL,Annäherung,maegesho,d,NA,NA,NA,NA,sdf,NA,0,NA,NA,NA,NA,NA,NA,NA,NA,NA,NA,NA,NA,NA,NA,NA,NA,NA,NA,NA
94e80,block,flow.Loop,3_0_0_0,NA,NA,completion,75928.056,1268188.4000001,1268174.092,1268200.691,1344128.747,1344130.8000001,2023-06-27T11:34:19Z,1344144.958,NULL,NA,NA,NA,NA,NA,NA,NA,sdf,NA,0,NA,NA,NA,NA,NA,NA,NA,NA,NA,NA,NA,NA,NA,NA,NA,NA,NA,NA,NA
94e80,weiter,canvas.Screen,3_0_0_1,sdf,keypress(Space),response,1114.3420000714,1344130.9000001,1344128.747,1344144.958,1345259.3000001,1345263.8000001,2023-06-27T11:34:20Z,1345315.7,NULL,NA,NA,NA,NA,NA,NA,NA,sdf,NA,0,NA,NA,NA,NA,NA,NA,NA,NA,NA,NA,NA,NA,NA,NA,NA,NA,NA,NA,NA
94e80,check continue,flow.Sequence,3_0_0,NA,NA,completion,77058.609000071,1268188.4000001,1268174.092,1268200.691,1345259.3000001,1345264.1,2023-06-27T11:34:20Z,1345315.7,NULL,NA,NA,NA,NA,NA,NA,NA,sdf,NA,0,NA,NA,NA,NA,NA,NA,NA,NA,NA,NA,NA,NA,NA,NA,NA,NA,NA,NA,NA
94e80,deep,flow.Sequence,3_0_1_0_0_0,NA,NA,skipped,NA,1345303.5,NA,NA,1345259.3000001,1345303.7,2023-06-27T11:34:20Z,1345315.7,NULL,Beweis,ushahidi,s,marudio,kizuizi,mtendaji,NA,sdfdsf,NA,1,NA,NA,NA,NA,NA,NA,NA,NA,NA,NA,NA,NA,NA,NA,NA,NA,NA,NA,NA
94e80,Shallow Question,html.Page,3_0_1_0_0_1_0,NA,NA,form submission,5539.9000000239,1345303.8000001,1345295.391,1345315.7,1350855.6,1350855.8000001,2023-06-27T11:34:26Z,1350866.574,NULL,Beweis,ushahidi,s,marudio,kizuizi,mtendaji,marudio,NA,NA,1,NA,NA,NA,NA,NA,NA,NA,NA,NA,NA,NA,NA,NA,NA,NA,NA,NA,NA,NA
94e80,"""Richtig""-Screen",canvas.Screen,3_0_1_0_0_1_1,NA,NA,skipped,NA,1350857.3000001,NA,NA,1350855.6,1350857.4000001,2023-06-27T11:34:26Z,1350866.574,NULL,Beweis,ushahidi,s,marudio,kizuizi,mtendaji,NA,sdfdsf,NA,1,NA,NA,NA,NA,NA,NA,NA,NA,NA,NA,NA,NA,NA,NA,NA,NA,NA,NA,NA
94e80,"""Falsch""-Screen",canvas.Screen,3_0_1_0_0_1_2,NA,NA,timeout,4993.4450000001,1350857.9000001,1350841.928,1350866.574,1355843.266,1355844.2,2023-06-27T11:34:31Z,1355860.019,NULL,Beweis,ushahidi,s,marudio,kizuizi,mtendaji,NA,sdfdsf,0,1,NA,NA,NA,NA,NA,NA,NA,NA,NA,NA,NA,NA,NA,NA,NA,NA,NA,NA,NA
94e80,shallow,flow.Sequence,3_0_1_0_0_1,NA,NA,completion,10527.566,1345303.8000001,1345295.391,1345315.7,1355843.266,1355844.6,2023-06-27T11:34:31Z,1355860.019,NULL,Beweis,ushahidi,s,marudio,kizuizi,mtendaji,NA,sdfdsf,NA,1,NA,NA,NA,NA,NA,NA,NA,NA,NA,NA,NA,NA,NA,NA,NA,NA,NA,NA,NA
94e80,task,flow.Sequence,3_0_1_0_0,NA,NA,completion,10527.566,1345303.5,1345295.391,1345315.7,1355843.266,1355844.8000001,2023-06-27T11:34:31Z,1355860.019,NULL,Beweis,ushahidi,s,marudio,kizuizi,mtendaji,NA,sdfdsf,NA,1,NA,NA,NA,NA,NA,NA,NA,NA,NA,NA,NA,NA,NA,NA,NA,NA,NA,NA,NA
94e80,deep,flow.Sequence,3_0_1_0_1_0,NA,NA,skipped,NA,1355845,NA,NA,1355843.266,1355845.1,2023-06-27T11:34:31Z,1355860.019,NULL,Polizist,msongora,s,simanzi,mandhari,nidhamu,NA,sdfdsf,NA,1,NA,NA,NA,NA,NA,NA,NA,NA,NA,NA,NA,NA,NA,NA,NA,NA,NA,NA,NA
94e80,Shallow Question,html.Page,3_0_1_0_1_1_0,NA,NA,form submission,5886.3810000953,1355845.2,1355843.266,1355860.019,1361746.4000001,1361746.6,2023-06-27T11:34:37Z,1361757.082,NULL,Polizist,msongora,s,simanzi,mandhari,nidhamu,msongora,NA,NA,1,NA,NA,NA,NA,NA,NA,NA,NA,NA,NA,NA,NA,NA,NA,NA,NA,NA,NA,NA
94e80,"""Richtig""-Screen",canvas.Screen,3_0_1_0_1_1_1,NA,NA,timeout,4993.75,1361748.2,1361738.712,1361757.082,1366734.557,1366735.5,2023-06-27T11:34:42Z,1366750.832,NULL,Polizist,msongora,s,simanzi,mandhari,nidhamu,NA,sdfdsf,1,1,NA,NA,NA,NA,NA,NA,NA,NA,NA,NA,NA,NA,NA,NA,NA,NA,NA,NA,NA
94e80,"""Falsch""-Screen",canvas.Screen,3_0_1_0_1_1_2,NA,NA,skipped,NA,1366741.1,NA,NA,1366734.557,1366741.4000001,2023-06-27T11:34:42Z,1366750.832,NULL,Polizist,msongora,s,simanzi,mandhari,nidhamu,NA,sdfdsf,NA,1,NA,NA,NA,NA,NA,NA,NA,NA,NA,NA,NA,NA,NA,NA,NA,NA,NA,NA,NA
94e80,shallow,flow.Sequence,3_0_1_0_1_1,NA,NA,completion,10874.538,1355845.2,1355843.266,1355860.019,1366734.557,1366741.7,2023-06-27T11:34:42Z,1366750.832,NULL,Polizist,msongora,s,simanzi,mandhari,nidhamu,NA,sdfdsf,NA,1,NA,NA,NA,NA,NA,NA,NA,NA,NA,NA,NA,NA,NA,NA,NA,NA,NA,NA,NA
94e80,task,flow.Sequence,3_0_1_0_1,NA,NA,completion,10874.538,1355844.9000001,1355843.266,1355860.019,1366734.557,1366741.9000001,2023-06-27T11:34:42Z,1366750.832,NULL,Polizist,msongora,s,simanzi,mandhari,nidhamu,NA,sdfdsf,NA,1,NA,NA,NA,NA,NA,NA,NA,NA,NA,NA,NA,NA,NA,NA,NA,NA,NA,NA,NA
94e80,Deep Question,html.Page,3_0_1_0_2_0_0,NA,NA,form submission,5096.4680000716,1366742.1,1366734.557,1366750.832,1371847.3000001,1371847.5,2023-06-27T11:34:47Z,1371858.407,NULL,Kultur,utamaduni,d,NA,NA,NA,magDD,NA,NA,1,NA,NA,NA,NA,NA,NA,NA,NA,NA,NA,NA,NA,NA,NA,NA,NA,NA,NA,NA
94e80,"""Richtig""-Screen",canvas.Screen,3_0_1_0_2_0_1,NA,NA,skipped,NA,1371849,NA,NA,1371847.3000001,1371849.1,2023-06-27T11:34:47Z,1371858.407,NULL,Kultur,utamaduni,d,NA,NA,NA,NA,sdfdsf,NA,1,NA,NA,NA,NA,NA,NA,NA,NA,NA,NA,NA,NA,NA,NA,NA,NA,NA,NA,NA
94e80,"""Falsch""-Screen",canvas.Screen,3_0_1_0_2_0_2,NA,NA,timeout,4994.9480000001,1371849.5,1371844.388,1371858.407,1376836.876,1376837.7,2023-06-27T11:34:52Z,1376853.355,NULL,Kultur,utamaduni,d,NA,NA,NA,NA,sdfdsf,0,1,NA,NA,NA,NA,NA,NA,NA,NA,NA,NA,NA,NA,NA,NA,NA,NA,NA,NA,NA
94e80,deep,flow.Sequence,3_0_1_0_2_0,NA,NA,completion,10086.044,1366742.1,1366734.557,1366750.832,1376836.876,1376838.1,2023-06-27T11:34:52Z,1376853.355,NULL,Kultur,utamaduni,d,NA,NA,NA,NA,sdfdsf,NA,1,NA,NA,NA,NA,NA,NA,NA,NA,NA,NA,NA,NA,NA,NA,NA,NA,NA,NA,NA
94e80,shallow,flow.Sequence,3_0_1_0_2_1,NA,NA,skipped,NA,1376838.2,NA,NA,1376836.876,1376838.4000001,2023-06-27T11:34:52Z,1376853.355,NULL,Kultur,utamaduni,d,NA,NA,NA,NA,sdfdsf,NA,1,NA,NA,NA,NA,NA,NA,NA,NA,NA,NA,NA,NA,NA,NA,NA,NA,NA,NA,NA
94e80,task,flow.Sequence,3_0_1_0_2,NA,NA,completion,10086.044,1366742,1366734.557,1366750.832,1376836.876,1376838.5,2023-06-27T11:34:52Z,1376853.355,NULL,Kultur,utamaduni,d,NA,NA,NA,NA,sdfdsf,NA,1,NA,NA,NA,NA,NA,NA,NA,NA,NA,NA,NA,NA,NA,NA,NA,NA,NA,NA,NA
94e80,deep,flow.Sequence,3_0_1_0_3_0,NA,NA,skipped,NA,1376838.7,NA,NA,1376836.876,1376838.7,2023-06-27T11:34:52Z,1376853.355,NULL,Aufstand,ugomaji,s,mazidio,msingi,kujieleza,NA,sdfdsf,NA,1,NA,NA,NA,NA,NA,NA,NA,NA,NA,NA,NA,NA,NA,NA,NA,NA,NA,NA,NA
94e80,Shallow Question,html.Page,3_0_1_0_3_1_0,NA,NA,form submission,4850.0450000954,1376838.8000001,1376836.876,1376853.355,1381703.4000001,1381703.7,2023-06-27T11:34:57Z,1381713.859,NULL,Aufstand,ugomaji,s,mazidio,msingi,kujieleza,msingi,NA,NA,1,NA,NA,NA,NA,NA,NA,NA,NA,NA,NA,NA,NA,NA,NA,NA,NA,NA,NA,NA
94e80,"""Richtig""-Screen",canvas.Screen,3_0_1_0_3_1_1,NA,NA,skipped,NA,1381705.4000001,NA,NA,1381703.4000001,1381705.5,2023-06-27T11:34:57Z,1381713.859,NULL,Aufstand,ugomaji,s,mazidio,msingi,kujieleza,NA,sdfdsf,NA,1,NA,NA,NA,NA,NA,NA,NA,NA,NA,NA,NA,NA,NA,NA,NA,NA,NA,NA,NA
94e80,"""Falsch""-Screen",canvas.Screen,3_0_1_0_3_1_2,NA,NA,timeout,4999.3400000001,1381705.9000001,1381691.999,1381713.859,1386696.644,1386697.8000001,2023-06-27T11:35:02Z,1386713.199,NULL,Aufstand,ugomaji,s,mazidio,msingi,kujieleza,NA,sdfdsf,0,1,NA,NA,NA,NA,NA,NA,NA,NA,NA,NA,NA,NA,NA,NA,NA,NA,NA,NA,NA
94e80,shallow,flow.Sequence,3_0_1_0_3_1,NA,NA,completion,9843.2890000001,1376838.8000001,1376836.876,1376853.355,1386696.644,1386698.2,2023-06-27T11:35:02Z,1386713.199,NULL,Aufstand,ugomaji,s,mazidio,msingi,kujieleza,NA,sdfdsf,NA,1,NA,NA,NA,NA,NA,NA,NA,NA,NA,NA,NA,NA,NA,NA,NA,NA,NA,NA,NA
94e80,task,flow.Sequence,3_0_1_0_3,NA,NA,completion,9843.2890000001,1376838.6,1376836.876,1376853.355,1386696.644,1386698.3000001,2023-06-27T11:35:02Z,1386713.199,NULL,Aufstand,ugomaji,s,mazidio,msingi,kujieleza,NA,sdfdsf,NA,1,NA,NA,NA,NA,NA,NA,NA,NA,NA,NA,NA,NA,NA,NA,NA,NA,NA,NA,NA
94e80,deep,flow.Sequence,3_0_1_0_4_0,NA,NA,skipped,NA,1386698.5,NA,NA,1386696.644,1386698.6,2023-06-27T11:35:02Z,1386713.199,NULL,Prüfung,mtihani,s,mkulima,mtizamo,ufumbuzi,NA,sdfdsf,NA,1,NA,NA,NA,NA,NA,NA,NA,NA,NA,NA,NA,NA,NA,NA,NA,NA,NA,NA,NA
94e80,Shallow Question,html.Page,3_0_1_0_4_1_0,NA,NA,form submission,6286.801,1386698.9000001,1386696.644,1386713.199,1393000,1393000.2,2023-06-27T11:35:08Z,1393013.002,NULL,Prüfung,mtihani,s,mkulima,mtizamo,ufumbuzi,mtizamo,NA,NA,1,NA,NA,NA,NA,NA,NA,NA,NA,NA,NA,NA,NA,NA,NA,NA,NA,NA,NA,NA
94e80,"""Richtig""-Screen",canvas.Screen,3_0_1_0_4_1_1,NA,NA,skipped,NA,1393001.8000001,NA,NA,1393000,1393001.9000001,2023-06-27T11:35:08Z,1393013.002,NULL,Prüfung,mtihani,s,mkulima,mtizamo,ufumbuzi,NA,sdfdsf,NA,1,NA,NA,NA,NA,NA,NA,NA,NA,NA,NA,NA,NA,NA,NA,NA,NA,NA,NA,NA
94e80,"""Falsch""-Screen",canvas.Screen,3_0_1_0_4_1_2,NA,NA,timeout,4998.2819999999,1393002.3000001,1392997.546,1393013.002,1397994.984,1397996,2023-06-27T11:35:13Z,1398011.284,NULL,Prüfung,mtihani,s,mkulima,mtizamo,ufumbuzi,NA,sdfdsf,0,1,NA,NA,NA,NA,NA,NA,NA,NA,NA,NA,NA,NA,NA,NA,NA,NA,NA,NA,NA
94e80,shallow,flow.Sequence,3_0_1_0_4_1,NA,NA,completion,11281.785,1386698.8000001,1386696.644,1386713.199,1397994.984,1397997.1,2023-06-27T11:35:13Z,1398011.284,NULL,Prüfung,mtihani,s,mkulima,mtizamo,ufumbuzi,NA,sdfdsf,NA,1,NA,NA,NA,NA,NA,NA,NA,NA,NA,NA,NA,NA,NA,NA,NA,NA,NA,NA,NA
94e80,task,flow.Sequence,3_0_1_0_4,NA,NA,completion,11281.785,1386698.5,1386696.644,1386713.199,1397994.984,1397997.4000001,2023-06-27T11:35:13Z,1398011.284,NULL,Prüfung,mtihani,s,mkulima,mtizamo,ufumbuzi,NA,sdfdsf,NA,1,NA,NA,NA,NA,NA,NA,NA,NA,NA,NA,NA,NA,NA,NA,NA,NA,NA,NA,NA
94e80,Deep Question,html.Page,3_0_1_0_5_0_0,NA,NA,form submission,2416.9160000477,1397997.7,1397994.984,1398011.284,1400428.2,1400428.4000001,2023-06-27T11:35:15Z,1400439.565,NULL,Verzögerung,kuchelewa,d,NA,NA,NA,NA,NA,NA,1,NA,NA,NA,NA,NA,NA,NA,NA,NA,NA,NA,NA,NA,NA,NA,NA,NA,NA,NA
94e80,"""Richtig""-Screen",canvas.Screen,3_0_1_0_5_0_1,NA,NA,skipped,NA,1400430.1,NA,NA,1400428.2,1400430.1,2023-06-27T11:35:15Z,1400439.565,NULL,Verzögerung,kuchelewa,d,NA,NA,NA,NA,sdfdsf,NA,1,NA,NA,NA,NA,NA,NA,NA,NA,NA,NA,NA,NA,NA,NA,NA,NA,NA,NA,NA
94e80,"""Falsch""-Screen",canvas.Screen,3_0_1_0_5_0_2,NA,NA,timeout,4996.29,1400430.6,1400412.546,1400439.565,1405419.227,1405420.3000001,2023-06-27T11:35:20Z,1405435.855,NULL,Verzögerung,kuchelewa,d,NA,NA,NA,NA,sdfdsf,0,1,NA,NA,NA,NA,NA,NA,NA,NA,NA,NA,NA,NA,NA,NA,NA,NA,NA,NA,NA
94e80,deep,flow.Sequence,3_0_1_0_5_0,NA,NA,completion,7407.943,1397997.6,1397994.984,1398011.284,1405419.227,1405420.6,2023-06-27T11:35:20Z,1405435.855,NULL,Verzögerung,kuchelewa,d,NA,NA,NA,NA,sdfdsf,NA,1,NA,NA,NA,NA,NA,NA,NA,NA,NA,NA,NA,NA,NA,NA,NA,NA,NA,NA,NA
94e80,shallow,flow.Sequence,3_0_1_0_5_1,NA,NA,skipped,NA,1405420.7,NA,NA,1405419.227,1405420.8000001,2023-06-27T11:35:20Z,1405435.855,NULL,Verzögerung,kuchelewa,d,NA,NA,NA,NA,sdfdsf,NA,1,NA,NA,NA,NA,NA,NA,NA,NA,NA,NA,NA,NA,NA,NA,NA,NA,NA,NA,NA
94e80,task,flow.Sequence,3_0_1_0_5,NA,NA,completion,7407.943,1397997.6,1397994.984,1398011.284,1405419.227,1405421,2023-06-27T11:35:20Z,1405435.855,NULL,Verzögerung,kuchelewa,d,NA,NA,NA,NA,sdfdsf,NA,1,NA,NA,NA,NA,NA,NA,NA,NA,NA,NA,NA,NA,NA,NA,NA,NA,NA,NA,NA
94e80,Deep Question,html.Page,3_0_1_0_6_0_0,NA,NA,form submission,10239.445000072,1405421.2,1405419.227,1405435.855,1415675.3000001,1415675.4000001,2023-06-27T11:35:31Z,1415686.558,NULL,Annäherung,maegesho,d,NA,NA,NA,kuchelewa,NA,NA,1,NA,NA,NA,NA,NA,NA,NA,NA,NA,NA,NA,NA,NA,NA,NA,NA,NA,NA,NA
94e80,"""Richtig""-Screen",canvas.Screen,3_0_1_0_6_0_1,NA,NA,skipped,NA,1415677.6,NA,NA,1415675.3000001,1415677.7,2023-06-27T11:35:31Z,1415686.558,NULL,Annäherung,maegesho,d,NA,NA,NA,NA,sdfdsf,NA,1,NA,NA,NA,NA,NA,NA,NA,NA,NA,NA,NA,NA,NA,NA,NA,NA,NA,NA,NA
94e80,"""Falsch""-Screen",canvas.Screen,3_0_1_0_6_0_2,NA,NA,timeout,5004.007,1415678.2,1415663.783,1415686.558,1420673.852,1420676,2023-06-27T11:35:36Z,1420690.565,NULL,Annäherung,maegesho,d,NA,NA,NA,NA,sdfdsf,0,1,NA,NA,NA,NA,NA,NA,NA,NA,NA,NA,NA,NA,NA,NA,NA,NA,NA,NA,NA
94e80,deep,flow.Sequence,3_0_1_0_6_0,NA,NA,completion,15237.997,1405421.1,1405419.227,1405435.855,1420673.852,1420676.6,2023-06-27T11:35:36Z,1420690.565,NULL,Annäherung,maegesho,d,NA,NA,NA,NA,sdfdsf,NA,1,NA,NA,NA,NA,NA,NA,NA,NA,NA,NA,NA,NA,NA,NA,NA,NA,NA,NA,NA
94e80,shallow,flow.Sequence,3_0_1_0_6_1,NA,NA,skipped,NA,1420676.9000001,NA,NA,1420673.852,1420677.1,2023-06-27T11:35:36Z,1420690.565,NULL,Annäherung,maegesho,d,NA,NA,NA,NA,sdfdsf,NA,1,NA,NA,NA,NA,NA,NA,NA,NA,NA,NA,NA,NA,NA,NA,NA,NA,NA,NA,NA
94e80,task,flow.Sequence,3_0_1_0_6,NA,NA,completion,15237.997,1405421.1,1405419.227,1405435.855,1420673.852,1420677.9000001,2023-06-27T11:35:36Z,1420690.565,NULL,Annäherung,maegesho,d,NA,NA,NA,NA,sdfdsf,NA,1,NA,NA,NA,NA,NA,NA,NA,NA,NA,NA,NA,NA,NA,NA,NA,NA,NA,NA,NA
94e80,Deep Question,html.Page,3_0_1_0_7_0_0,NA,NA,form submission,1922.9350000001,1420678.2,1420673.852,1420690.565,1422613.5,1422613.7,2023-06-27T11:35:38Z,1422622.986,NULL,Sympathie,mapendano,d,NA,NA,NA,NA,NA,NA,1,NA,NA,NA,NA,NA,NA,NA,NA,NA,NA,NA,NA,NA,NA,NA,NA,NA,NA,NA
94e80,"""Richtig""-Screen",canvas.Screen,3_0_1_0_7_0_1,NA,NA,skipped,NA,1422615.3000001,NA,NA,1422613.5,1422615.4000001,2023-06-27T11:35:38Z,1422622.986,NULL,Sympathie,mapendano,d,NA,NA,NA,NA,sdfdsf,NA,1,NA,NA,NA,NA,NA,NA,NA,NA,NA,NA,NA,NA,NA,NA,NA,NA,NA,NA,NA
94e80,"""Falsch""-Screen",canvas.Screen,3_0_1_0_7_0_2,NA,NA,timeout,4999.2719999999,1422615.9000001,1422602.901,1422622.986,1427605.94,1427606.7,2023-06-27T11:35:43Z,1427622.258,NULL,Sympathie,mapendano,d,NA,NA,NA,NA,sdfdsf,0,1,NA,NA,NA,NA,NA,NA,NA,NA,NA,NA,NA,NA,NA,NA,NA,NA,NA,NA,NA
94e80,deep,flow.Sequence,3_0_1_0_7_0,NA,NA,completion,6915.375,1420678.1,1420673.852,1420690.565,1427605.94,1427607.1,2023-06-27T11:35:43Z,1427622.258,NULL,Sympathie,mapendano,d,NA,NA,NA,NA,sdfdsf,NA,1,NA,NA,NA,NA,NA,NA,NA,NA,NA,NA,NA,NA,NA,NA,NA,NA,NA,NA,NA
94e80,shallow,flow.Sequence,3_0_1_0_7_1,NA,NA,skipped,NA,1427607.3000001,NA,NA,1427605.94,1427607.4000001,2023-06-27T11:35:43Z,1427622.258,NULL,Sympathie,mapendano,d,NA,NA,NA,NA,sdfdsf,NA,1,NA,NA,NA,NA,NA,NA,NA,NA,NA,NA,NA,NA,NA,NA,NA,NA,NA,NA,NA
94e80,task,flow.Sequence,3_0_1_0_7,NA,NA,completion,6915.375,1420678.1,1420673.852,1420690.565,1427605.94,1427607.6,2023-06-27T11:35:43Z,1427622.258,NULL,Sympathie,mapendano,d,NA,NA,NA,NA,sdfdsf,NA,1,NA,NA,NA,NA,NA,NA,NA,NA,NA,NA,NA,NA,NA,NA,NA,NA,NA,NA,NA
94e80,block,flow.Loop,3_0_1_0,NA,NA,completion,82290.24,1345303.5,1345295.391,1345315.7,1427605.94,1427607.8000001,2023-06-27T11:35:43Z,1427622.258,NULL,NA,NA,NA,NA,NA,NA,NA,sdfdsf,NA,1,NA,NA,NA,NA,NA,NA,NA,NA,NA,NA,NA,NA,NA,NA,NA,NA,NA,NA,NA
94e80,weiter,canvas.Screen,3_0_1_1,sdf,keypress(Space),response,831.74200000009,1427607.9000001,1427605.94,1427622.258,1428454,1428458.9000001,2023-06-27T11:35:43Z,1428516.719,NULL,NA,NA,NA,NA,NA,NA,NA,sdfdsf,NA,1,NA,NA,NA,NA,NA,NA,NA,NA,NA,NA,NA,NA,NA,NA,NA,NA,NA,NA,NA
94e80,check continue,flow.Sequence,3_0_1,NA,NA,completion,83138.3,1345303.5,1345295.391,1345315.7,1428454,1428459.2,2023-06-27T11:35:43Z,1428516.719,NULL,NA,NA,NA,NA,NA,NA,NA,sdfdsf,NA,1,NA,NA,NA,NA,NA,NA,NA,NA,NA,NA,NA,NA,NA,NA,NA,NA,NA,NA,NA
94e80,Deep Question,html.Page,3_0_2_0_0_0_0,NA,NA,form submission,15016.681000095,1428504.8000001,1428489.746,1428516.719,1443533.4000001,1443533.5,2023-06-27T11:35:59Z,1443545.642,NULL,Annäherung,maegesho,d,NA,NA,NA,mapeando,NA,NA,2,NA,NA,NA,NA,NA,NA,NA,NA,NA,NA,NA,NA,NA,NA,NA,NA,NA,NA,NA
94e80,"""Richtig""-Screen",canvas.Screen,3_0_2_0_0_0_1,NA,NA,skipped,NA,1443535.1,NA,NA,1443533.4000001,1443535.2,2023-06-27T11:35:59Z,1443545.642,NULL,Annäherung,maegesho,d,NA,NA,NA,NA,sdf,NA,2,NA,NA,NA,NA,NA,NA,NA,NA,NA,NA,NA,NA,NA,NA,NA,NA,NA,NA,NA
94e80,"""Falsch""-Screen",canvas.Screen,3_0_2_0_0_0_2,NA,NA,timeout,4992.6340000001,1443535.7,1443526.219,1443545.642,1448521.547,1448522.3000001,2023-06-27T11:36:04Z,1448538.276,NULL,Annäherung,maegesho,d,NA,NA,NA,NA,sdf,0,2,NA,NA,NA,NA,NA,NA,NA,NA,NA,NA,NA,NA,NA,NA,NA,NA,NA,NA,NA
94e80,deep,flow.Sequence,3_0_2_0_0_0,NA,NA,completion,20004.828,1428504.8000001,1428489.746,1428516.719,1448521.547,1448522.6,2023-06-27T11:36:04Z,1448538.276,NULL,Annäherung,maegesho,d,NA,NA,NA,NA,sdf,NA,2,NA,NA,NA,NA,NA,NA,NA,NA,NA,NA,NA,NA,NA,NA,NA,NA,NA,NA,NA
94e80,shallow,flow.Sequence,3_0_2_0_0_1,NA,NA,skipped,NA,1448522.7,NA,NA,1448521.547,1448522.9000001,2023-06-27T11:36:04Z,1448538.276,NULL,Annäherung,maegesho,d,NA,NA,NA,NA,sdf,NA,2,NA,NA,NA,NA,NA,NA,NA,NA,NA,NA,NA,NA,NA,NA,NA,NA,NA,NA,NA
94e80,task,flow.Sequence,3_0_2_0_0,NA,NA,completion,20004.828,1428504.8000001,1428489.746,1428516.719,1448521.547,1448523,2023-06-27T11:36:04Z,1448538.276,NULL,Annäherung,maegesho,d,NA,NA,NA,NA,sdf,NA,2,NA,NA,NA,NA,NA,NA,NA,NA,NA,NA,NA,NA,NA,NA,NA,NA,NA,NA,NA
94e80,deep,flow.Sequence,3_0_2_0_1_0,NA,NA,skipped,NA,1448523.1,NA,NA,1448521.547,1448523.2,2023-06-27T11:36:04Z,1448538.276,NULL,Beweis,ushahidi,s,marudio,kizuizi,mtendaji,NA,sdf,NA,2,NA,NA,NA,NA,NA,NA,NA,NA,NA,NA,NA,NA,NA,NA,NA,NA,NA,NA,NA
94e80,Shallow Question,html.Page,3_0_2_0_1_1_0,NA,NA,form submission,4615.5240000715,1448523.2,1448521.547,1448538.276,1453153.8000001,1453153.9000001,2023-06-27T11:36:08Z,1453164.621,NULL,Beweis,ushahidi,s,marudio,kizuizi,mtendaji,ushahidi,NA,NA,2,NA,NA,NA,NA,NA,NA,NA,NA,NA,NA,NA,NA,NA,NA,NA,NA,NA,NA,NA
94e80,"""Richtig""-Screen",canvas.Screen,3_0_2_0_1_1_1,NA,NA,timeout,4994.7490000001,1453155.5,1453140.653,1453164.621,1458143.032,1458144.4000001,2023-06-27T11:36:13Z,1458159.37,NULL,Beweis,ushahidi,s,marudio,kizuizi,mtendaji,NA,sdf,1,2,NA,NA,NA,NA,NA,NA,NA,NA,NA,NA,NA,NA,NA,NA,NA,NA,NA,NA,NA
94e80,"""Falsch""-Screen",canvas.Screen,3_0_2_0_1_1_2,NA,NA,skipped,NA,1458149.9000001,NA,NA,1458143.032,1458150.2,2023-06-27T11:36:13Z,1458159.37,NULL,Beweis,ushahidi,s,marudio,kizuizi,mtendaji,NA,sdf,NA,2,NA,NA,NA,NA,NA,NA,NA,NA,NA,NA,NA,NA,NA,NA,NA,NA,NA,NA,NA
94e80,shallow,flow.Sequence,3_0_2_0_1_1,NA,NA,completion,9604.7559999998,1448523.2,1448521.547,1448538.276,1458143.032,1458150.5,2023-06-27T11:36:13Z,1458159.37,NULL,Beweis,ushahidi,s,marudio,kizuizi,mtendaji,NA,sdf,NA,2,NA,NA,NA,NA,NA,NA,NA,NA,NA,NA,NA,NA,NA,NA,NA,NA,NA,NA,NA
94e80,task,flow.Sequence,3_0_2_0_1,NA,NA,completion,9604.7559999998,1448523.1,1448521.547,1448538.276,1458143.032,1458150.6,2023-06-27T11:36:13Z,1458159.37,NULL,Beweis,ushahidi,s,marudio,kizuizi,mtendaji,NA,sdf,NA,2,NA,NA,NA,NA,NA,NA,NA,NA,NA,NA,NA,NA,NA,NA,NA,NA,NA,NA,NA
94e80,Deep Question,html.Page,3_0_2_0_2_0_0,NA,NA,form submission,5499.7300000237,1458150.9000001,1458143.032,1458159.37,1463659.1,1463659.3000001,2023-06-27T11:36:19Z,1463669.117,NULL,Kultur,utamaduni,d,NA,NA,NA,kuchelewa,NA,NA,2,NA,NA,NA,NA,NA,NA,NA,NA,NA,NA,NA,NA,NA,NA,NA,NA,NA,NA,NA
94e80,"""Richtig""-Screen",canvas.Screen,3_0_2_0_2_0_1,NA,NA,skipped,NA,1463660.9000001,NA,NA,1463659.1,1463661,2023-06-27T11:36:19Z,1463669.117,NULL,Kultur,utamaduni,d,NA,NA,NA,NA,sdf,NA,2,NA,NA,NA,NA,NA,NA,NA,NA,NA,NA,NA,NA,NA,NA,NA,NA,NA,NA,NA
94e80,"""Falsch""-Screen",canvas.Screen,3_0_2_0_2_0_2,NA,NA,timeout,4996.4569999999,1463661.4000001,1463652.734,1463669.117,1468649.269,1468650.2,2023-06-27T11:36:24Z,1468665.574,NULL,Kultur,utamaduni,d,NA,NA,NA,NA,sdf,0,2,NA,NA,NA,NA,NA,NA,NA,NA,NA,NA,NA,NA,NA,NA,NA,NA,NA,NA,NA
94e80,deep,flow.Sequence,3_0_2_0_2_0,NA,NA,completion,10489.899,1458150.7,1458143.032,1458159.37,1468649.269,1468650.5,2023-06-27T11:36:24Z,1468665.574,NULL,Kultur,utamaduni,d,NA,NA,NA,NA,sdf,NA,2,NA,NA,NA,NA,NA,NA,NA,NA,NA,NA,NA,NA,NA,NA,NA,NA,NA,NA,NA
94e80,shallow,flow.Sequence,3_0_2_0_2_1,NA,NA,skipped,NA,1468650.7,NA,NA,1468649.269,1468650.7,2023-06-27T11:36:24Z,1468665.574,NULL,Kultur,utamaduni,d,NA,NA,NA,NA,sdf,NA,2,NA,NA,NA,NA,NA,NA,NA,NA,NA,NA,NA,NA,NA,NA,NA,NA,NA,NA,NA
94e80,task,flow.Sequence,3_0_2_0_2,NA,NA,completion,10489.899,1458150.7,1458143.032,1458159.37,1468649.269,1468650.9000001,2023-06-27T11:36:24Z,1468665.574,NULL,Kultur,utamaduni,d,NA,NA,NA,NA,sdf,NA,2,NA,NA,NA,NA,NA,NA,NA,NA,NA,NA,NA,NA,NA,NA,NA,NA,NA,NA,NA
94e80,Deep Question,html.Page,3_0_2_0_3_0_0,NA,NA,form submission,4404.7260000715,1468651.1,1468649.269,1468665.574,1473070.3000001,1473070.5,2023-06-27T11:36:28Z,1473078.678,NULL,Sympathie,mapendano,d,NA,NA,NA,maeshgo,NA,NA,2,NA,NA,NA,NA,NA,NA,NA,NA,NA,NA,NA,NA,NA,NA,NA,NA,NA,NA,NA
94e80,"""Richtig""-Screen",canvas.Screen,3_0_2_0_3_0_1,NA,NA,skipped,NA,1473072.1,NA,NA,1473070.3000001,1473072.2,2023-06-27T11:36:28Z,1473078.678,NULL,Sympathie,mapendano,d,NA,NA,NA,NA,sdf,NA,2,NA,NA,NA,NA,NA,NA,NA,NA,NA,NA,NA,NA,NA,NA,NA,NA,NA,NA,NA
94e80,"""Falsch""-Screen",canvas.Screen,3_0_2_0_3_0_2,NA,NA,timeout,5006.1599999999,1473072.6,1473054.111,1473078.678,1478068.083,1478077.1,2023-06-27T11:36:33Z,1478084.838,NULL,Sympathie,mapendano,d,NA,NA,NA,NA,sdf,0,2,NA,NA,NA,NA,NA,NA,NA,NA,NA,NA,NA,NA,NA,NA,NA,NA,NA,NA,NA
94e80,deep,flow.Sequence,3_0_2_0_3_0,NA,NA,completion,9402.5090000001,1468651.1,1468649.269,1468665.574,1478068.083,1478077.5,2023-06-27T11:36:33Z,1478084.838,NULL,Sympathie,mapendano,d,NA,NA,NA,NA,sdf,NA,2,NA,NA,NA,NA,NA,NA,NA,NA,NA,NA,NA,NA,NA,NA,NA,NA,NA,NA,NA
94e80,shallow,flow.Sequence,3_0_2_0_3_1,NA,NA,skipped,NA,1478077.5,NA,NA,1478068.083,1478077.7,2023-06-27T11:36:33Z,1478084.838,NULL,Sympathie,mapendano,d,NA,NA,NA,NA,sdf,NA,2,NA,NA,NA,NA,NA,NA,NA,NA,NA,NA,NA,NA,NA,NA,NA,NA,NA,NA,NA
94e80,task,flow.Sequence,3_0_2_0_3,NA,NA,completion,9402.5090000001,1468651,1468649.269,1468665.574,1478068.083,1478077.9000001,2023-06-27T11:36:33Z,1478084.838,NULL,Sympathie,mapendano,d,NA,NA,NA,NA,sdf,NA,2,NA,NA,NA,NA,NA,NA,NA,NA,NA,NA,NA,NA,NA,NA,NA,NA,NA,NA,NA
94e80,deep,flow.Sequence,3_0_2_0_4_0,NA,NA,skipped,NA,1478077.9000001,NA,NA,1478068.083,1478078.1,2023-06-27T11:36:33Z,1478084.838,NULL,Aufstand,ugomaji,s,mazidio,msingi,kujieleza,NA,sdf,NA,2,NA,NA,NA,NA,NA,NA,NA,NA,NA,NA,NA,NA,NA,NA,NA,NA,NA,NA,NA
94e80,Shallow Question,html.Page,3_0_2_0_4_1_0,NA,NA,form submission,11108.962000072,1478078.1,1478068.083,1478084.838,1489193.8000001,1489194,2023-06-27T11:36:44Z,1489204.366,NULL,Aufstand,ugomaji,s,mazidio,msingi,kujieleza,ugomaji,NA,NA,2,NA,NA,NA,NA,NA,NA,NA,NA,NA,NA,NA,NA,NA,NA,NA,NA,NA,NA,NA
94e80,"""Richtig""-Screen",canvas.Screen,3_0_2_0_4_1_1,NA,NA,timeout,4991.8740000001,1489195.7,1489189.063,1489204.366,1494179.578,1494179.9000001,2023-06-27T11:36:49Z,1494196.24,NULL,Aufstand,ugomaji,s,mazidio,msingi,kujieleza,NA,sdf,1,2,NA,NA,NA,NA,NA,NA,NA,NA,NA,NA,NA,NA,NA,NA,NA,NA,NA,NA,NA
94e80,"""Falsch""-Screen",canvas.Screen,3_0_2_0_4_1_2,NA,NA,skipped,NA,1494182.4000001,NA,NA,1494179.578,1494182.6,2023-06-27T11:36:49Z,1494196.24,NULL,Aufstand,ugomaji,s,mazidio,msingi,kujieleza,NA,sdf,NA,2,NA,NA,NA,NA,NA,NA,NA,NA,NA,NA,NA,NA,NA,NA,NA,NA,NA,NA,NA
94e80,shallow,flow.Sequence,3_0_2_0_4_1,NA,NA,completion,16094.74,1478078.1,1478068.083,1478084.838,1494179.578,1494182.8000001,2023-06-27T11:36:49Z,1494196.24,NULL,Aufstand,ugomaji,s,mazidio,msingi,kujieleza,NA,sdf,NA,2,NA,NA,NA,NA,NA,NA,NA,NA,NA,NA,NA,NA,NA,NA,NA,NA,NA,NA,NA
94e80,task,flow.Sequence,3_0_2_0_4,NA,NA,completion,16094.74,1478077.9000001,1478068.083,1478084.838,1494179.578,1494182.8000001,2023-06-27T11:36:49Z,1494196.24,NULL,Aufstand,ugomaji,s,mazidio,msingi,kujieleza,NA,sdf,NA,2,NA,NA,NA,NA,NA,NA,NA,NA,NA,NA,NA,NA,NA,NA,NA,NA,NA,NA,NA
94e80,deep,flow.Sequence,3_0_2_0_5_0,NA,NA,skipped,NA,1494182.9000001,NA,NA,1494179.578,1494182.9000001,2023-06-27T11:36:49Z,1494196.24,NULL,Prüfung,mtihani,s,mkulima,mtizamo,ufumbuzi,NA,sdf,NA,2,NA,NA,NA,NA,NA,NA,NA,NA,NA,NA,NA,NA,NA,NA,NA,NA,NA,NA,NA
94e80,Shallow Question,html.Page,3_0_2_0_5_1_0,NA,NA,form submission,4032.76,1494183,1494179.578,1494196.24,1498229,1498229.3000001,2023-06-27T11:36:53Z,1498232.158,NULL,Prüfung,mtihani,s,mkulima,mtizamo,ufumbuzi,mtihani,NA,NA,2,NA,NA,NA,NA,NA,NA,NA,NA,NA,NA,NA,NA,NA,NA,NA,NA,NA,NA,NA
94e80,"""Richtig""-Screen",canvas.Screen,3_0_2_0_5_1_1,NA,NA,timeout,5005.335,1498230.8000001,1498216.792,1498232.158,1503220.822,1503227.8000001,2023-06-27T11:36:58Z,1503237.493,NULL,Prüfung,mtihani,s,mkulima,mtizamo,ufumbuzi,NA,sdf,1,2,NA,NA,NA,NA,NA,NA,NA,NA,NA,NA,NA,NA,NA,NA,NA,NA,NA,NA,NA
94e80,"""Falsch""-Screen",canvas.Screen,3_0_2_0_5_1_2,NA,NA,skipped,NA,1503233.7,NA,NA,1503220.822,1503234.1,2023-06-27T11:36:58Z,1503237.493,NULL,Prüfung,mtihani,s,mkulima,mtizamo,ufumbuzi,NA,sdf,NA,2,NA,NA,NA,NA,NA,NA,NA,NA,NA,NA,NA,NA,NA,NA,NA,NA,NA,NA,NA
94e80,shallow,flow.Sequence,3_0_2_0_5_1,NA,NA,completion,9024.5819999999,1494183,1494179.578,1494196.24,1503220.822,1503234.3000001,2023-06-27T11:36:58Z,1503237.493,NULL,Prüfung,mtihani,s,mkulima,mtizamo,ufumbuzi,NA,sdf,NA,2,NA,NA,NA,NA,NA,NA,NA,NA,NA,NA,NA,NA,NA,NA,NA,NA,NA,NA,NA
94e80,task,flow.Sequence,3_0_2_0_5,NA,NA,completion,9024.5819999999,1494182.9000001,1494179.578,1494196.24,1503220.822,1503234.4000001,2023-06-27T11:36:58Z,1503237.493,NULL,Prüfung,mtihani,s,mkulima,mtizamo,ufumbuzi,NA,sdf,NA,2,NA,NA,NA,NA,NA,NA,NA,NA,NA,NA,NA,NA,NA,NA,NA,NA,NA,NA,NA
94e80,deep,flow.Sequence,3_0_2_0_6_0,NA,NA,skipped,NA,1503234.6,NA,NA,1503220.822,1503234.6,2023-06-27T11:36:58Z,1503237.493,NULL,Polizist,msongora,s,simanzi,mandhari,nidhamu,NA,sdf,NA,2,NA,NA,NA,NA,NA,NA,NA,NA,NA,NA,NA,NA,NA,NA,NA,NA,NA,NA,NA
94e80,Shallow Question,html.Page,3_0_2_0_6_1_0,NA,NA,form submission,3514.507,1503234.8000001,1503220.822,1503237.493,1506752,1506752.2,2023-06-27T11:37:02Z,1506762.732,NULL,Polizist,msongora,s,simanzi,mandhari,nidhamu,msongora,NA,NA,2,NA,NA,NA,NA,NA,NA,NA,NA,NA,NA,NA,NA,NA,NA,NA,NA,NA,NA,NA
94e80,"""Richtig""-Screen",canvas.Screen,3_0_2_0_6_1_1,NA,NA,timeout,5006.872,1506752.7,1506737.76,1506762.732,1511753.104,1511754.2,2023-06-27T11:37:07Z,1511769.604,NULL,Polizist,msongora,s,simanzi,mandhari,nidhamu,NA,sdf,1,2,NA,NA,NA,NA,NA,NA,NA,NA,NA,NA,NA,NA,NA,NA,NA,NA,NA,NA,NA
94e80,"""Falsch""-Screen",canvas.Screen,3_0_2_0_6_1_2,NA,NA,skipped,NA,1511759,NA,NA,1511753.104,1511759.4000001,2023-06-27T11:37:07Z,1511769.604,NULL,Polizist,msongora,s,simanzi,mandhari,nidhamu,NA,sdf,NA,2,NA,NA,NA,NA,NA,NA,NA,NA,NA,NA,NA,NA,NA,NA,NA,NA,NA,NA,NA
94e80,shallow,flow.Sequence,3_0_2_0_6_1,NA,NA,completion,8515.611,1503234.8000001,1503220.822,1503237.493,1511753.104,1511759.7,2023-06-27T11:37:07Z,1511769.604,NULL,Polizist,msongora,s,simanzi,mandhari,nidhamu,NA,sdf,NA,2,NA,NA,NA,NA,NA,NA,NA,NA,NA,NA,NA,NA,NA,NA,NA,NA,NA,NA,NA
94e80,task,flow.Sequence,3_0_2_0_6,NA,NA,completion,8515.611,1503234.6,1503220.822,1503237.493,1511753.104,1511759.8000001,2023-06-27T11:37:07Z,1511769.604,NULL,Polizist,msongora,s,simanzi,mandhari,nidhamu,NA,sdf,NA,2,NA,NA,NA,NA,NA,NA,NA,NA,NA,NA,NA,NA,NA,NA,NA,NA,NA,NA,NA
94e80,Deep Question,html.Page,3_0_2_0_7_0_0,NA,NA,form submission,6509.7960000953,1511760,1511753.104,1511769.604,1518279.4000001,1518279.7,2023-06-27T11:37:13Z,1518288.559,NULL,Verzögerung,kuchelewa,d,NA,NA,NA,kuchawela,NA,NA,2,NA,NA,NA,NA,NA,NA,NA,NA,NA,NA,NA,NA,NA,NA,NA,NA,NA,NA,NA
94e80,"""Richtig""-Screen",canvas.Screen,3_0_2_0_7_0_1,NA,NA,skipped,NA,1518281.4000001,NA,NA,1518279.4000001,1518281.5,2023-06-27T11:37:13Z,1518288.559,NULL,Verzögerung,kuchelewa,d,NA,NA,NA,NA,sdf,NA,2,NA,NA,NA,NA,NA,NA,NA,NA,NA,NA,NA,NA,NA,NA,NA,NA,NA,NA,NA
94e80,"""Falsch""-Screen",canvas.Screen,3_0_2_0_7_0_2,NA,NA,timeout,5001.1310000001,1518282.2,1518267.462,1518288.559,1523273.043,1523275.5,2023-06-27T11:37:18Z,1523289.69,NULL,Verzögerung,kuchelewa,d,NA,NA,NA,NA,sdf,0,2,NA,NA,NA,NA,NA,NA,NA,NA,NA,NA,NA,NA,NA,NA,NA,NA,NA,NA,NA
94e80,deep,flow.Sequence,3_0_2_0_7_0,NA,NA,completion,11503.439,1511759.9000001,1511753.104,1511769.604,1523273.043,1523275.9000001,2023-06-27T11:37:18Z,1523289.69,NULL,Verzögerung,kuchelewa,d,NA,NA,NA,NA,sdf,NA,2,NA,NA,NA,NA,NA,NA,NA,NA,NA,NA,NA,NA,NA,NA,NA,NA,NA,NA,NA
94e80,shallow,flow.Sequence,3_0_2_0_7_1,NA,NA,skipped,NA,1523276.1,NA,NA,1523273.043,1523276.2,2023-06-27T11:37:18Z,1523289.69,NULL,Verzögerung,kuchelewa,d,NA,NA,NA,NA,sdf,NA,2,NA,NA,NA,NA,NA,NA,NA,NA,NA,NA,NA,NA,NA,NA,NA,NA,NA,NA,NA
94e80,task,flow.Sequence,3_0_2_0_7,NA,NA,completion,11503.439,1511759.9000001,1511753.104,1511769.604,1523273.043,1523276.4000001,2023-06-27T11:37:18Z,1523289.69,NULL,Verzögerung,kuchelewa,d,NA,NA,NA,NA,sdf,NA,2,NA,NA,NA,NA,NA,NA,NA,NA,NA,NA,NA,NA,NA,NA,NA,NA,NA,NA,NA
94e80,block,flow.Loop,3_0_2_0,NA,NA,completion,94756.324,1428504.7,1428489.746,1428516.719,1523273.043,1523276.5,2023-06-27T11:37:18Z,1523289.69,NULL,NA,NA,NA,NA,NA,NA,NA,sdf,NA,2,NA,NA,NA,NA,NA,NA,NA,NA,NA,NA,NA,NA,NA,NA,NA,NA,NA,NA,NA
94e80,weiter,canvas.Screen,3_0_2_1,sdf,keypress(Space),response,759.31000000006,1523276.7,1523273.043,1523289.69,1524049,1524053.2,2023-06-27T11:37:19Z,1524092.35,NULL,NA,NA,NA,NA,NA,NA,NA,sdf,NA,2,NA,NA,NA,NA,NA,NA,NA,NA,NA,NA,NA,NA,NA,NA,NA,NA,NA,NA,NA
94e80,check continue,flow.Sequence,3_0_2,NA,NA,completion,95532.281,1428504.7,1428489.746,1428516.719,1524049,1524053.5,2023-06-27T11:37:19Z,1524092.35,NULL,NA,NA,NA,NA,NA,NA,NA,sdf,NA,2,NA,NA,NA,NA,NA,NA,NA,NA,NA,NA,NA,NA,NA,NA,NA,NA,NA,NA,NA
94e80,deep,flow.Sequence,3_0_3_0_0_0,NA,NA,skipped,NA,1524085.3000001,NA,NA,1524049,1524085.3000001,2023-06-27T11:37:19Z,1524092.35,NULL,Prüfung,mtihani,s,mkulima,mtizamo,ufumbuzi,NA,qt,NA,3,NA,NA,NA,NA,NA,NA,NA,NA,NA,NA,NA,NA,NA,NA,NA,NA,NA,NA,NA
94e80,Shallow Question,html.Page,3_0_3_0_0_1_0,NA,NA,form submission,2667.6499999999,1524085.4000001,1524073.293,1524092.35,1526760,1526760.1,2023-06-27T11:37:22Z,1526770.887,NULL,Prüfung,mtihani,s,mkulima,mtizamo,ufumbuzi,mtihani,NA,NA,3,NA,NA,NA,NA,NA,NA,NA,NA,NA,NA,NA,NA,NA,NA,NA,NA,NA,NA,NA
94e80,"""Richtig""-Screen",canvas.Screen,3_0_3_0_0_1_1,NA,NA,timeout,4992.8169999998,1526760.6,1526752.59,1526770.887,1531747.077,1531755.6,2023-06-27T11:37:27Z,1531763.704,NULL,Prüfung,mtihani,s,mkulima,mtizamo,ufumbuzi,NA,qt,1,3,NA,NA,NA,NA,NA,NA,NA,NA,NA,NA,NA,NA,NA,NA,NA,NA,NA,NA,NA
94e80,"""Falsch""-Screen",canvas.Screen,3_0_3_0_0_1_2,NA,NA,skipped,NA,1531759.5,NA,NA,1531747.077,1531760,2023-06-27T11:37:27Z,1531763.704,NULL,Prüfung,mtihani,s,mkulima,mtizamo,ufumbuzi,NA,qt,NA,3,NA,NA,NA,NA,NA,NA,NA,NA,NA,NA,NA,NA,NA,NA,NA,NA,NA,NA,NA
94e80,shallow,flow.Sequence,3_0_3_0_0_1,NA,NA,completion,7654.727,1524085.4000001,1524073.293,1524092.35,1531747.077,1531760.3000001,2023-06-27T11:37:27Z,1531763.704,NULL,Prüfung,mtihani,s,mkulima,mtizamo,ufumbuzi,NA,qt,NA,3,NA,NA,NA,NA,NA,NA,NA,NA,NA,NA,NA,NA,NA,NA,NA,NA,NA,NA,NA
94e80,task,flow.Sequence,3_0_3_0_0,NA,NA,completion,7654.727,1524085.3000001,1524073.293,1524092.35,1531747.077,1531760.4000001,2023-06-27T11:37:27Z,1531763.704,NULL,Prüfung,mtihani,s,mkulima,mtizamo,ufumbuzi,NA,qt,NA,3,NA,NA,NA,NA,NA,NA,NA,NA,NA,NA,NA,NA,NA,NA,NA,NA,NA,NA,NA
94e80,deep,flow.Sequence,3_0_3_0_1_0,NA,NA,skipped,NA,1531760.5,NA,NA,1531747.077,1531760.6,2023-06-27T11:37:27Z,1531763.704,NULL,Beweis,ushahidi,s,marudio,kizuizi,mtendaji,NA,qt,NA,3,NA,NA,NA,NA,NA,NA,NA,NA,NA,NA,NA,NA,NA,NA,NA,NA,NA,NA,NA
94e80,Shallow Question,html.Page,3_0_3_0_1_1_0,NA,NA,form submission,7070.7960000001,1531760.7,1531747.077,1531763.704,1538834.5,1538834.7,2023-06-27T11:37:34Z,1538845.159,NULL,Beweis,ushahidi,s,marudio,kizuizi,mtendaji,ushahidi,NA,NA,3,NA,NA,NA,NA,NA,NA,NA,NA,NA,NA,NA,NA,NA,NA,NA,NA,NA,NA,NA
94e80,"""Richtig""-Screen",canvas.Screen,3_0_3_0_1_1_1,NA,NA,timeout,4994.2820000001,1538836.4000001,1538818.222,1538845.159,1543822.601,1543824.6,2023-06-27T11:37:39Z,1543839.441,NULL,Beweis,ushahidi,s,marudio,kizuizi,mtendaji,NA,qt,1,3,NA,NA,NA,NA,NA,NA,NA,NA,NA,NA,NA,NA,NA,NA,NA,NA,NA,NA,NA
94e80,"""Falsch""-Screen",canvas.Screen,3_0_3_0_1_1_2,NA,NA,skipped,NA,1543830.3000001,NA,NA,1543822.601,1543830.6,2023-06-27T11:37:39Z,1543839.441,NULL,Beweis,ushahidi,s,marudio,kizuizi,mtendaji,NA,qt,NA,3,NA,NA,NA,NA,NA,NA,NA,NA,NA,NA,NA,NA,NA,NA,NA,NA,NA,NA,NA
94e80,shallow,flow.Sequence,3_0_3_0_1_1,NA,NA,completion,12058.897,1531760.7,1531747.077,1531763.704,1543822.601,1543830.9000001,2023-06-27T11:37:39Z,1543839.441,NULL,Beweis,ushahidi,s,marudio,kizuizi,mtendaji,NA,qt,NA,3,NA,NA,NA,NA,NA,NA,NA,NA,NA,NA,NA,NA,NA,NA,NA,NA,NA,NA,NA
94e80,task,flow.Sequence,3_0_3_0_1,NA,NA,completion,12058.897,1531760.5,1531747.077,1531763.704,1543822.601,1543831.1,2023-06-27T11:37:39Z,1543839.441,NULL,Beweis,ushahidi,s,marudio,kizuizi,mtendaji,NA,qt,NA,3,NA,NA,NA,NA,NA,NA,NA,NA,NA,NA,NA,NA,NA,NA,NA,NA,NA,NA,NA
94e80,deep,flow.Sequence,3_0_3_0_2_0,NA,NA,skipped,NA,1543831.1,NA,NA,1543822.601,1543831.3000001,2023-06-27T11:37:39Z,1543839.441,NULL,Polizist,msongora,s,simanzi,mandhari,nidhamu,NA,qt,NA,3,NA,NA,NA,NA,NA,NA,NA,NA,NA,NA,NA,NA,NA,NA,NA,NA,NA,NA,NA
94e80,Shallow Question,html.Page,3_0_3_0_2_1_0,NA,NA,form submission,1880.6590000237,1543831.4000001,1543822.601,1543839.441,1545720.1,1545720.1,2023-06-27T11:37:41Z,1545730.695,NULL,Polizist,msongora,s,simanzi,mandhari,nidhamu,msongora,NA,NA,3,NA,NA,NA,NA,NA,NA,NA,NA,NA,NA,NA,NA,NA,NA,NA,NA,NA,NA,NA
94e80,"""Richtig""-Screen",canvas.Screen,3_0_3_0_2_1_1,NA,NA,timeout,4999.8899999999,1545720.7,1545706.434,1545730.695,1550714.13,1550714.9000001,2023-06-27T11:37:46Z,1550730.585,NULL,Polizist,msongora,s,simanzi,mandhari,nidhamu,NA,qt,1,3,NA,NA,NA,NA,NA,NA,NA,NA,NA,NA,NA,NA,NA,NA,NA,NA,NA,NA,NA
94e80,"""Falsch""-Screen",canvas.Screen,3_0_3_0_2_1_2,NA,NA,skipped,NA,1550719.1,NA,NA,1550714.13,1550719.8000001,2023-06-27T11:37:46Z,1550730.585,NULL,Polizist,msongora,s,simanzi,mandhari,nidhamu,NA,qt,NA,3,NA,NA,NA,NA,NA,NA,NA,NA,NA,NA,NA,NA,NA,NA,NA,NA,NA,NA,NA
94e80,shallow,flow.Sequence,3_0_3_0_2_1,NA,NA,completion,6874.6889999998,1543831.4000001,1543822.601,1543839.441,1550714.13,1550720.1,2023-06-27T11:37:46Z,1550730.585,NULL,Polizist,msongora,s,simanzi,mandhari,nidhamu,NA,qt,NA,3,NA,NA,NA,NA,NA,NA,NA,NA,NA,NA,NA,NA,NA,NA,NA,NA,NA,NA,NA
94e80,task,flow.Sequence,3_0_3_0_2,NA,NA,completion,6874.6889999998,1543831.1,1543822.601,1543839.441,1550714.13,1550720.3000001,2023-06-27T11:37:46Z,1550730.585,NULL,Polizist,msongora,s,simanzi,mandhari,nidhamu,NA,qt,NA,3,NA,NA,NA,NA,NA,NA,NA,NA,NA,NA,NA,NA,NA,NA,NA,NA,NA,NA,NA
94e80,deep,flow.Sequence,3_0_3_0_3_0,NA,NA,skipped,NA,1550720.4000001,NA,NA,1550714.13,1550720.5,2023-06-27T11:37:46Z,1550730.585,NULL,Aufstand,ugomaji,s,mazidio,msingi,kujieleza,NA,qt,NA,3,NA,NA,NA,NA,NA,NA,NA,NA,NA,NA,NA,NA,NA,NA,NA,NA,NA,NA,NA
94e80,Shallow Question,html.Page,3_0_3_0_3_1_0,NA,NA,form submission,6348.7150000716,1550720.7,1550714.13,1550730.585,1557079.3000001,1557079.5,2023-06-27T11:37:52Z,1557089.912,NULL,Aufstand,ugomaji,s,mazidio,msingi,kujieleza,ugomaji,NA,NA,3,NA,NA,NA,NA,NA,NA,NA,NA,NA,NA,NA,NA,NA,NA,NA,NA,NA,NA,NA
94e80,"""Richtig""-Screen",canvas.Screen,3_0_3_0_3_1_1,NA,NA,timeout,4993.202,1557081.1,1557071.495,1557089.912,1562066.626,1562067.6,2023-06-27T11:37:57Z,1562083.114,NULL,Aufstand,ugomaji,s,mazidio,msingi,kujieleza,NA,qt,1,3,NA,NA,NA,NA,NA,NA,NA,NA,NA,NA,NA,NA,NA,NA,NA,NA,NA,NA,NA
94e80,"""Falsch""-Screen",canvas.Screen,3_0_3_0_3_1_2,NA,NA,skipped,NA,1562072.4000001,NA,NA,1562066.626,1562073,2023-06-27T11:37:57Z,1562083.114,NULL,Aufstand,ugomaji,s,mazidio,msingi,kujieleza,NA,qt,NA,3,NA,NA,NA,NA,NA,NA,NA,NA,NA,NA,NA,NA,NA,NA,NA,NA,NA,NA,NA
94e80,shallow,flow.Sequence,3_0_3_0_3_1,NA,NA,completion,11336.041,1550720.6,1550714.13,1550730.585,1562066.626,1562073.8000001,2023-06-27T11:37:57Z,1562083.114,NULL,Aufstand,ugomaji,s,mazidio,msingi,kujieleza,NA,qt,NA,3,NA,NA,NA,NA,NA,NA,NA,NA,NA,NA,NA,NA,NA,NA,NA,NA,NA,NA,NA
94e80,task,flow.Sequence,3_0_3_0_3,NA,NA,completion,11336.041,1550720.4000001,1550714.13,1550730.585,1562066.626,1562074.2,2023-06-27T11:37:57Z,1562083.114,NULL,Aufstand,ugomaji,s,mazidio,msingi,kujieleza,NA,qt,NA,3,NA,NA,NA,NA,NA,NA,NA,NA,NA,NA,NA,NA,NA,NA,NA,NA,NA,NA,NA
94e80,Deep Question,html.Page,3_0_3_0_4_0_0,NA,NA,form submission,3524.3859999999,1562074.4000001,1562066.626,1562083.114,1565607.5,1565607.7,2023-06-27T11:38:01Z,1565616.779,NULL,Annäherung,maegesho,d,NA,NA,NA,maengo,NA,NA,3,NA,NA,NA,NA,NA,NA,NA,NA,NA,NA,NA,NA,NA,NA,NA,NA,NA,NA,NA
94e80,"""Richtig""-Screen",canvas.Screen,3_0_3_0_4_0_1,NA,NA,skipped,NA,1565609.3000001,NA,NA,1565607.5,1565609.4000001,2023-06-27T11:38:01Z,1565616.779,NULL,Annäherung,maegesho,d,NA,NA,NA,NA,qt,NA,3,NA,NA,NA,NA,NA,NA,NA,NA,NA,NA,NA,NA,NA,NA,NA,NA,NA,NA,NA
94e80,"""Falsch""-Screen",canvas.Screen,3_0_3_0_4_0_2,NA,NA,timeout,4991.4409999999,1565609.9000001,1565596.343,1565616.779,1570591.908,1570592.7,2023-06-27T11:38:06Z,1570608.22,NULL,Annäherung,maegesho,d,NA,NA,NA,NA,qt,0,3,NA,NA,NA,NA,NA,NA,NA,NA,NA,NA,NA,NA,NA,NA,NA,NA,NA,NA,NA
94e80,deep,flow.Sequence,3_0_3_0_4_0,NA,NA,completion,8508.794,1562074.3000001,1562066.626,1562083.114,1570591.908,1570593.1,2023-06-27T11:38:06Z,1570608.22,NULL,Annäherung,maegesho,d,NA,NA,NA,NA,qt,NA,3,NA,NA,NA,NA,NA,NA,NA,NA,NA,NA,NA,NA,NA,NA,NA,NA,NA,NA,NA
94e80,shallow,flow.Sequence,3_0_3_0_4_1,NA,NA,skipped,NA,1570593.2,NA,NA,1570591.908,1570593.3000001,2023-06-27T11:38:06Z,1570608.22,NULL,Annäherung,maegesho,d,NA,NA,NA,NA,qt,NA,3,NA,NA,NA,NA,NA,NA,NA,NA,NA,NA,NA,NA,NA,NA,NA,NA,NA,NA,NA
94e80,task,flow.Sequence,3_0_3_0_4,NA,NA,completion,8508.794,1562074.3000001,1562066.626,1562083.114,1570591.908,1570593.5,2023-06-27T11:38:06Z,1570608.22,NULL,Annäherung,maegesho,d,NA,NA,NA,NA,qt,NA,3,NA,NA,NA,NA,NA,NA,NA,NA,NA,NA,NA,NA,NA,NA,NA,NA,NA,NA,NA
94e80,Deep Question,html.Page,3_0_3_0_5_0_0,NA,NA,form submission,2193.9800000477,1570593.7,1570591.908,1570608.22,1572802.2,1572802.3000001,2023-06-27T11:38:08Z,1572812.612,NULL,Kultur,utamaduni,d,NA,NA,NA,knjfrn,NA,NA,3,NA,NA,NA,NA,NA,NA,NA,NA,NA,NA,NA,NA,NA,NA,NA,NA,NA,NA,NA
94e80,"""Richtig""-Screen",canvas.Screen,3_0_3_0_5_0_1,NA,NA,skipped,NA,1572803.9000001,NA,NA,1572802.2,1572804,2023-06-27T11:38:08Z,1572812.612,NULL,Kultur,utamaduni,d,NA,NA,NA,NA,qt,NA,3,NA,NA,NA,NA,NA,NA,NA,NA,NA,NA,NA,NA,NA,NA,NA,NA,NA,NA,NA
94e80,"""Falsch""-Screen",canvas.Screen,3_0_3_0_5_0_2,NA,NA,timeout,4992.321,1572805.1,1572786.273,1572812.612,1577788.308,1577797,2023-06-27T11:38:13Z,1577804.933,NULL,Kultur,utamaduni,d,NA,NA,NA,NA,qt,0,3,NA,NA,NA,NA,NA,NA,NA,NA,NA,NA,NA,NA,NA,NA,NA,NA,NA,NA,NA
94e80,deep,flow.Sequence,3_0_3_0_5_0,NA,NA,completion,7180.088,1570593.6,1570591.908,1570608.22,1577788.308,1577797.4000001,2023-06-27T11:38:13Z,1577804.933,NULL,Kultur,utamaduni,d,NA,NA,NA,NA,qt,NA,3,NA,NA,NA,NA,NA,NA,NA,NA,NA,NA,NA,NA,NA,NA,NA,NA,NA,NA,NA
94e80,shallow,flow.Sequence,3_0_3_0_5_1,NA,NA,skipped,NA,1577797.5,NA,NA,1577788.308,1577797.6,2023-06-27T11:38:13Z,1577804.933,NULL,Kultur,utamaduni,d,NA,NA,NA,NA,qt,NA,3,NA,NA,NA,NA,NA,NA,NA,NA,NA,NA,NA,NA,NA,NA,NA,NA,NA,NA,NA
94e80,task,flow.Sequence,3_0_3_0_5,NA,NA,completion,7180.088,1570593.6,1570591.908,1570608.22,1577788.308,1577797.8000001,2023-06-27T11:38:13Z,1577804.933,NULL,Kultur,utamaduni,d,NA,NA,NA,NA,qt,NA,3,NA,NA,NA,NA,NA,NA,NA,NA,NA,NA,NA,NA,NA,NA,NA,NA,NA,NA,NA
94e80,Deep Question,html.Page,3_0_3_0_6_0_0,NA,NA,form submission,5090.2670000477,1577798,1577788.308,1577804.933,1582895.2,1582895.4000001,2023-06-27T11:38:18Z,1582905.971,NULL,Verzögerung,kuchelewa,d,NA,NA,NA,kuchuwela,NA,NA,3,NA,NA,NA,NA,NA,NA,NA,NA,NA,NA,NA,NA,NA,NA,NA,NA,NA,NA,NA
94e80,"""Richtig""-Screen",canvas.Screen,3_0_3_0_6_0_1,NA,NA,skipped,NA,1582897.2,NA,NA,1582895.2,1582897.3000001,2023-06-27T11:38:18Z,1582905.971,NULL,Verzögerung,kuchelewa,d,NA,NA,NA,NA,qt,NA,3,NA,NA,NA,NA,NA,NA,NA,NA,NA,NA,NA,NA,NA,NA,NA,NA,NA,NA,NA
94e80,"""Falsch""-Screen",canvas.Screen,3_0_3_0_6_0_2,NA,NA,timeout,4992.2150000001,1582897.8000001,1582883.892,1582905.971,1587881.522,1587882.4000001,2023-06-27T11:38:23Z,1587898.186,NULL,Verzögerung,kuchelewa,d,NA,NA,NA,NA,qt,0,3,NA,NA,NA,NA,NA,NA,NA,NA,NA,NA,NA,NA,NA,NA,NA,NA,NA,NA,NA
94e80,deep,flow.Sequence,3_0_3_0_6_0,NA,NA,completion,10076.589,1577797.9000001,1577788.308,1577804.933,1587881.522,1587882.7,2023-06-27T11:38:23Z,1587898.186,NULL,Verzögerung,kuchelewa,d,NA,NA,NA,NA,qt,NA,3,NA,NA,NA,NA,NA,NA,NA,NA,NA,NA,NA,NA,NA,NA,NA,NA,NA,NA,NA
94e80,shallow,flow.Sequence,3_0_3_0_6_1,NA,NA,skipped,NA,1587882.9000001,NA,NA,1587881.522,1587883.1,2023-06-27T11:38:23Z,1587898.186,NULL,Verzögerung,kuchelewa,d,NA,NA,NA,NA,qt,NA,3,NA,NA,NA,NA,NA,NA,NA,NA,NA,NA,NA,NA,NA,NA,NA,NA,NA,NA,NA
94e80,task,flow.Sequence,3_0_3_0_6,NA,NA,completion,10076.589,1577797.9000001,1577788.308,1577804.933,1587881.522,1587883.4000001,2023-06-27T11:38:23Z,1587898.186,NULL,Verzögerung,kuchelewa,d,NA,NA,NA,NA,qt,NA,3,NA,NA,NA,NA,NA,NA,NA,NA,NA,NA,NA,NA,NA,NA,NA,NA,NA,NA,NA
94e80,Deep Question,html.Page,3_0_3_0_7_0_0,NA,NA,form submission,4705.2140000954,1587883.6,1587881.522,1587898.186,1592603.4000001,1592603.6,2023-06-27T11:38:28Z,1592614.256,NULL,Sympathie,mapendano,d,NA,NA,NA,mangen,NA,NA,3,NA,NA,NA,NA,NA,NA,NA,NA,NA,NA,NA,NA,NA,NA,NA,NA,NA,NA,NA
94e80,"""Richtig""-Screen",canvas.Screen,3_0_3_0_7_0_1,NA,NA,skipped,NA,1592605.1,NA,NA,1592603.4000001,1592605.2,2023-06-27T11:38:28Z,1592614.256,NULL,Sympathie,mapendano,d,NA,NA,NA,NA,qt,NA,3,NA,NA,NA,NA,NA,NA,NA,NA,NA,NA,NA,NA,NA,NA,NA,NA,NA,NA,NA
94e80,"""Falsch""-Screen",canvas.Screen,3_0_3_0_7_0_2,NA,NA,timeout,4995.378,1592605.6,1592597.887,1592614.256,1597592.228,1597593.1,2023-06-27T11:38:33Z,1597609.634,NULL,Sympathie,mapendano,d,NA,NA,NA,NA,qt,0,3,NA,NA,NA,NA,NA,NA,NA,NA,NA,NA,NA,NA,NA,NA,NA,NA,NA,NA,NA
94e80,deep,flow.Sequence,3_0_3_0_7_0,NA,NA,completion,9694.0419999999,1587883.5,1587881.522,1587898.186,1597592.228,1597593.4000001,2023-06-27T11:38:33Z,1597609.634,NULL,Sympathie,mapendano,d,NA,NA,NA,NA,qt,NA,3,NA,NA,NA,NA,NA,NA,NA,NA,NA,NA,NA,NA,NA,NA,NA,NA,NA,NA,NA
94e80,shallow,flow.Sequence,3_0_3_0_7_1,NA,NA,skipped,NA,1597593.6,NA,NA,1597592.228,1597593.7,2023-06-27T11:38:33Z,1597609.634,NULL,Sympathie,mapendano,d,NA,NA,NA,NA,qt,NA,3,NA,NA,NA,NA,NA,NA,NA,NA,NA,NA,NA,NA,NA,NA,NA,NA,NA,NA,NA
94e80,task,flow.Sequence,3_0_3_0_7,NA,NA,completion,9694.0419999999,1587883.5,1587881.522,1587898.186,1597592.228,1597593.9000001,2023-06-27T11:38:33Z,1597609.634,NULL,Sympathie,mapendano,d,NA,NA,NA,NA,qt,NA,3,NA,NA,NA,NA,NA,NA,NA,NA,NA,NA,NA,NA,NA,NA,NA,NA,NA,NA,NA
94e80,block,flow.Loop,3_0_3_0,NA,NA,completion,73499.878,1524085.2,1524073.293,1524092.35,1597592.228,1597594.1,2023-06-27T11:38:33Z,1597609.634,NULL,NA,NA,NA,NA,NA,NA,NA,qt,NA,3,NA,NA,NA,NA,NA,NA,NA,NA,NA,NA,NA,NA,NA,NA,NA,NA,NA,NA,NA
94e80,weiter,canvas.Screen,3_0_3_1,sdf,keypress(Space),response,1976.3659999999,1597594.2,1597592.228,1597609.634,1599586,1599590.3000001,2023-06-27T11:38:35Z,1599656.56,NULL,NA,NA,NA,NA,NA,NA,NA,qt,NA,3,NA,NA,NA,NA,NA,NA,NA,NA,NA,NA,NA,NA,NA,NA,NA,NA,NA,NA,NA
94e80,check continue,flow.Sequence,3_0_3,NA,NA,completion,75493.65,1524085.2,1524073.293,1524092.35,1599586,1599590.6,2023-06-27T11:38:35Z,1599656.56,NULL,NA,NA,NA,NA,NA,NA,NA,qt,NA,3,NA,NA,NA,NA,NA,NA,NA,NA,NA,NA,NA,NA,NA,NA,NA,NA,NA,NA,NA
94e80,Deep Question,html.Page,3_0_4_0_0_0_0,NA,NA,form submission,6580.5400000238,1599644.6,1599641.008,1599656.56,1606237.1,1606237.2,2023-06-27T11:38:41Z,1606246.181,NULL,Annäherung,maegesho,d,NA,NA,NA,mapendela,NA,NA,4,NA,NA,NA,NA,NA,NA,NA,NA,NA,NA,NA,NA,NA,NA,NA,NA,NA,NA,NA
94e80,"""Richtig""-Screen",canvas.Screen,3_0_4_0_0_0_1,NA,NA,skipped,NA,1606238.8000001,NA,NA,1606237.1,1606238.9000001,2023-06-27T11:38:41Z,1606246.181,NULL,Annäherung,maegesho,d,NA,NA,NA,NA,sd,NA,4,NA,NA,NA,NA,NA,NA,NA,NA,NA,NA,NA,NA,NA,NA,NA,NA,NA,NA,NA
94e80,"""Falsch""-Screen",canvas.Screen,3_0_4_0_0_0_2,NA,NA,timeout,4993.865,1606239.4000001,1606232.48,1606246.181,1611223.763,1611226.5,2023-06-27T11:38:46Z,1611240.046,NULL,Annäherung,maegesho,d,NA,NA,NA,NA,sd,0,4,NA,NA,NA,NA,NA,NA,NA,NA,NA,NA,NA,NA,NA,NA,NA,NA,NA,NA,NA
94e80,deep,flow.Sequence,3_0_4_0_0_0,NA,NA,completion,11567.203,1599644.6,1599641.008,1599656.56,1611223.763,1611226.9000001,2023-06-27T11:38:46Z,1611240.046,NULL,Annäherung,maegesho,d,NA,NA,NA,NA,sd,NA,4,NA,NA,NA,NA,NA,NA,NA,NA,NA,NA,NA,NA,NA,NA,NA,NA,NA,NA,NA
94e80,shallow,flow.Sequence,3_0_4_0_0_1,NA,NA,skipped,NA,1611227,NA,NA,1611223.763,1611227.2,2023-06-27T11:38:46Z,1611240.046,NULL,Annäherung,maegesho,d,NA,NA,NA,NA,sd,NA,4,NA,NA,NA,NA,NA,NA,NA,NA,NA,NA,NA,NA,NA,NA,NA,NA,NA,NA,NA
94e80,task,flow.Sequence,3_0_4_0_0,NA,NA,completion,11567.203,1599644.6,1599641.008,1599656.56,1611223.763,1611227.4000001,2023-06-27T11:38:46Z,1611240.046,NULL,Annäherung,maegesho,d,NA,NA,NA,NA,sd,NA,4,NA,NA,NA,NA,NA,NA,NA,NA,NA,NA,NA,NA,NA,NA,NA,NA,NA,NA,NA
94e80,deep,flow.Sequence,3_0_4_0_1_0,NA,NA,skipped,NA,1611227.5,NA,NA,1611223.763,1611227.7,2023-06-27T11:38:46Z,1611240.046,NULL,Prüfung,mtihani,s,mkulima,mtizamo,ufumbuzi,NA,sd,NA,4,NA,NA,NA,NA,NA,NA,NA,NA,NA,NA,NA,NA,NA,NA,NA,NA,NA,NA,NA
94e80,Shallow Question,html.Page,3_0_4_0_1_1_0,NA,NA,form submission,5971.3540000953,1611227.8000001,1611223.763,1611240.046,1617211.4000001,1617211.5,2023-06-27T11:38:52Z,1617219.612,NULL,Prüfung,mtihani,s,mkulima,mtizamo,ufumbuzi,mtihani,NA,NA,4,NA,NA,NA,NA,NA,NA,NA,NA,NA,NA,NA,NA,NA,NA,NA,NA,NA,NA,NA
94e80,"""Richtig""-Screen",canvas.Screen,3_0_4_0_1_1_1,NA,NA,timeout,4997.9650000001,1617213.3000001,1617209.053,1617219.612,1622200.971,1622203.4000001,2023-06-27T11:38:57Z,1622217.577,NULL,Prüfung,mtihani,s,mkulima,mtizamo,ufumbuzi,NA,sd,1,4,NA,NA,NA,NA,NA,NA,NA,NA,NA,NA,NA,NA,NA,NA,NA,NA,NA,NA,NA
94e80,"""Falsch""-Screen",canvas.Screen,3_0_4_0_1_1_2,NA,NA,skipped,NA,1622209.1,NA,NA,1622200.971,1622209.4000001,2023-06-27T11:38:57Z,1622217.577,NULL,Prüfung,mtihani,s,mkulima,mtizamo,ufumbuzi,NA,sd,NA,4,NA,NA,NA,NA,NA,NA,NA,NA,NA,NA,NA,NA,NA,NA,NA,NA,NA,NA,NA
94e80,shallow,flow.Sequence,3_0_4_0_1_1,NA,NA,completion,10960.925,1611227.8000001,1611223.763,1611240.046,1622200.971,1622209.7,2023-06-27T11:38:57Z,1622217.577,NULL,Prüfung,mtihani,s,mkulima,mtizamo,ufumbuzi,NA,sd,NA,4,NA,NA,NA,NA,NA,NA,NA,NA,NA,NA,NA,NA,NA,NA,NA,NA,NA,NA,NA
94e80,task,flow.Sequence,3_0_4_0_1,NA,NA,completion,10960.925,1611227.5,1611223.763,1611240.046,1622200.971,1622209.8000001,2023-06-27T11:38:57Z,1622217.577,NULL,Prüfung,mtihani,s,mkulima,mtizamo,ufumbuzi,NA,sd,NA,4,NA,NA,NA,NA,NA,NA,NA,NA,NA,NA,NA,NA,NA,NA,NA,NA,NA,NA,NA
94e80,Deep Question,html.Page,3_0_4_0_2_0_0,NA,NA,form submission,5774.6230000476,1622210,1622200.971,1622217.577,1627992.2,1627992.3000001,2023-06-27T11:39:03Z,1628018.067,NULL,Verzögerung,kuchelewa,d,NA,NA,NA,kuchelewa,NA,NA,4,NA,NA,NA,NA,NA,NA,NA,NA,NA,NA,NA,NA,NA,NA,NA,NA,NA,NA,NA
94e80,"""Richtig""-Screen",canvas.Screen,3_0_4_0_2_0_1,NA,NA,timeout,4995.308,1627993.9000001,1628001.292,1628018.067,1632996.655,1632999.4000001,2023-06-27T11:39:08Z,1633013.375,NULL,Verzögerung,kuchelewa,d,NA,NA,NA,NA,sd,1,4,NA,NA,NA,NA,NA,NA,NA,NA,NA,NA,NA,NA,NA,NA,NA,NA,NA,NA,NA
94e80,"""Falsch""-Screen",canvas.Screen,3_0_4_0_2_0_2,NA,NA,skipped,NA,1633005.5,NA,NA,1632996.655,1633005.9000001,2023-06-27T11:39:08Z,1633013.375,NULL,Verzögerung,kuchelewa,d,NA,NA,NA,NA,sd,NA,4,NA,NA,NA,NA,NA,NA,NA,NA,NA,NA,NA,NA,NA,NA,NA,NA,NA,NA,NA
94e80,deep,flow.Sequence,3_0_4_0_2_0,NA,NA,completion,10779.078,1622210,1622200.971,1622217.577,1632996.655,1633006.5,2023-06-27T11:39:08Z,1633013.375,NULL,Verzögerung,kuchelewa,d,NA,NA,NA,NA,sd,NA,4,NA,NA,NA,NA,NA,NA,NA,NA,NA,NA,NA,NA,NA,NA,NA,NA,NA,NA,NA
94e80,shallow,flow.Sequence,3_0_4_0_2_1,NA,NA,skipped,NA,1633006.6,NA,NA,1632996.655,1633006.8000001,2023-06-27T11:39:08Z,1633013.375,NULL,Verzögerung,kuchelewa,d,NA,NA,NA,NA,sd,NA,4,NA,NA,NA,NA,NA,NA,NA,NA,NA,NA,NA,NA,NA,NA,NA,NA,NA,NA,NA
94e80,task,flow.Sequence,3_0_4_0_2,NA,NA,completion,10779.078,1622210,1622200.971,1622217.577,1632996.655,1633006.9000001,2023-06-27T11:39:08Z,1633013.375,NULL,Verzögerung,kuchelewa,d,NA,NA,NA,NA,sd,NA,4,NA,NA,NA,NA,NA,NA,NA,NA,NA,NA,NA,NA,NA,NA,NA,NA,NA,NA,NA
94e80,Deep Question,html.Page,3_0_4_0_3_0_0,NA,NA,form submission,6806.625,1633007.1,1632996.655,1633013.375,1639820,1639820.2,2023-06-27T11:39:15Z,1639833.877,NULL,Sympathie,mapendano,d,NA,NA,NA,utumenda,NA,NA,4,NA,NA,NA,NA,NA,NA,NA,NA,NA,NA,NA,NA,NA,NA,NA,NA,NA,NA,NA
94e80,"""Richtig""-Screen",canvas.Screen,3_0_4_0_3_0_1,NA,NA,skipped,NA,1639821.8000001,NA,NA,1639820,1639821.9000001,2023-06-27T11:39:15Z,1639833.877,NULL,Sympathie,mapendano,d,NA,NA,NA,NA,sd,NA,4,NA,NA,NA,NA,NA,NA,NA,NA,NA,NA,NA,NA,NA,NA,NA,NA,NA,NA,NA
94e80,"""Falsch""-Screen",canvas.Screen,3_0_4_0_3_0_2,NA,NA,timeout,4994.048,1639822.7,1639817.57,1639833.877,1644811.292,1644812.3000001,2023-06-27T11:39:20Z,1644827.925,NULL,Sympathie,mapendano,d,NA,NA,NA,NA,sd,0,4,NA,NA,NA,NA,NA,NA,NA,NA,NA,NA,NA,NA,NA,NA,NA,NA,NA,NA,NA
94e80,deep,flow.Sequence,3_0_4_0_3_0,NA,NA,completion,11797.917,1633007,1632996.655,1633013.375,1644811.292,1644812.7,2023-06-27T11:39:20Z,1644827.925,NULL,Sympathie,mapendano,d,NA,NA,NA,NA,sd,NA,4,NA,NA,NA,NA,NA,NA,NA,NA,NA,NA,NA,NA,NA,NA,NA,NA,NA,NA,NA
94e80,shallow,flow.Sequence,3_0_4_0_3_1,NA,NA,skipped,NA,1644812.9000001,NA,NA,1644811.292,1644813,2023-06-27T11:39:20Z,1644827.925,NULL,Sympathie,mapendano,d,NA,NA,NA,NA,sd,NA,4,NA,NA,NA,NA,NA,NA,NA,NA,NA,NA,NA,NA,NA,NA,NA,NA,NA,NA,NA
94e80,task,flow.Sequence,3_0_4_0_3,NA,NA,completion,11797.917,1633007,1632996.655,1633013.375,1644811.292,1644813.1,2023-06-27T11:39:20Z,1644827.925,NULL,Sympathie,mapendano,d,NA,NA,NA,NA,sd,NA,4,NA,NA,NA,NA,NA,NA,NA,NA,NA,NA,NA,NA,NA,NA,NA,NA,NA,NA,NA
94e80,deep,flow.Sequence,3_0_4_0_4_0,NA,NA,skipped,NA,1644813.2,NA,NA,1644811.292,1644813.3000001,2023-06-27T11:39:20Z,1644827.925,NULL,Polizist,msongora,s,simanzi,mandhari,nidhamu,NA,sd,NA,4,NA,NA,NA,NA,NA,NA,NA,NA,NA,NA,NA,NA,NA,NA,NA,NA,NA,NA,NA
94e80,Shallow Question,html.Page,3_0_4_0_4_1_0,NA,NA,form submission,3099.1750000238,1644813.4000001,1644811.292,1644827.925,1647927.1,1647927.4000001,2023-06-27T11:39:23Z,1647940.549,NULL,Polizist,msongora,s,simanzi,mandhari,nidhamu,msongora,NA,NA,4,NA,NA,NA,NA,NA,NA,NA,NA,NA,NA,NA,NA,NA,NA,NA,NA,NA,NA,NA
94e80,"""Richtig""-Screen",canvas.Screen,3_0_4_0_4_1_1,NA,NA,timeout,5006.3289999999,1647928.9000001,1647926.192,1647940.549,1652930.161,1652931.2,2023-06-27T11:39:28Z,1652946.878,NULL,Polizist,msongora,s,simanzi,mandhari,nidhamu,NA,sd,1,4,NA,NA,NA,NA,NA,NA,NA,NA,NA,NA,NA,NA,NA,NA,NA,NA,NA,NA,NA
94e80,"""Falsch""-Screen",canvas.Screen,3_0_4_0_4_1_2,NA,NA,skipped,NA,1652935.4000001,NA,NA,1652930.161,1652935.7,2023-06-27T11:39:28Z,1652946.878,NULL,Polizist,msongora,s,simanzi,mandhari,nidhamu,NA,sd,NA,4,NA,NA,NA,NA,NA,NA,NA,NA,NA,NA,NA,NA,NA,NA,NA,NA,NA,NA,NA
94e80,shallow,flow.Sequence,3_0_4_0_4_1,NA,NA,completion,8102.236,1644813.4000001,1644811.292,1644827.925,1652930.161,1652936,2023-06-27T11:39:28Z,1652946.878,NULL,Polizist,msongora,s,simanzi,mandhari,nidhamu,NA,sd,NA,4,NA,NA,NA,NA,NA,NA,NA,NA,NA,NA,NA,NA,NA,NA,NA,NA,NA,NA,NA
94e80,task,flow.Sequence,3_0_4_0_4,NA,NA,completion,8102.236,1644813.2,1644811.292,1644827.925,1652930.161,1652936.1,2023-06-27T11:39:28Z,1652946.878,NULL,Polizist,msongora,s,simanzi,mandhari,nidhamu,NA,sd,NA,4,NA,NA,NA,NA,NA,NA,NA,NA,NA,NA,NA,NA,NA,NA,NA,NA,NA,NA,NA
94e80,deep,flow.Sequence,3_0_4_0_5_0,NA,NA,skipped,NA,1652936.4000001,NA,NA,1652930.161,1652936.4000001,2023-06-27T11:39:28Z,1652946.878,NULL,Aufstand,ugomaji,s,mazidio,msingi,kujieleza,NA,sd,NA,4,NA,NA,NA,NA,NA,NA,NA,NA,NA,NA,NA,NA,NA,NA,NA,NA,NA,NA,NA
94e80,Shallow Question,html.Page,3_0_4_0_5_1_0,NA,NA,form submission,5850.7220000238,1652936.5,1652930.161,1652946.878,1658797.6,1658797.8000001,2023-06-27T11:39:34Z,1658808.487,NULL,Aufstand,ugomaji,s,mazidio,msingi,kujieleza,ugomaji,NA,NA,4,NA,NA,NA,NA,NA,NA,NA,NA,NA,NA,NA,NA,NA,NA,NA,NA,NA,NA,NA
94e80,"""Richtig""-Screen",canvas.Screen,3_0_4_0_5_1_1,NA,NA,timeout,4996.8730000001,1658799.8000001,1658788.047,1658808.487,1663788.672,1663797.3000001,2023-06-27T11:39:39Z,1663805.36,NULL,Aufstand,ugomaji,s,mazidio,msingi,kujieleza,NA,sd,1,4,NA,NA,NA,NA,NA,NA,NA,NA,NA,NA,NA,NA,NA,NA,NA,NA,NA,NA,NA
94e80,"""Falsch""-Screen",canvas.Screen,3_0_4_0_5_1_2,NA,NA,skipped,NA,1663801.5,NA,NA,1663788.672,1663801.9000001,2023-06-27T11:39:39Z,1663805.36,NULL,Aufstand,ugomaji,s,mazidio,msingi,kujieleza,NA,sd,NA,4,NA,NA,NA,NA,NA,NA,NA,NA,NA,NA,NA,NA,NA,NA,NA,NA,NA,NA,NA
94e80,shallow,flow.Sequence,3_0_4_0_5_1,NA,NA,completion,10841.794,1652936.5,1652930.161,1652946.878,1663788.672,1663802.2,2023-06-27T11:39:39Z,1663805.36,NULL,Aufstand,ugomaji,s,mazidio,msingi,kujieleza,NA,sd,NA,4,NA,NA,NA,NA,NA,NA,NA,NA,NA,NA,NA,NA,NA,NA,NA,NA,NA,NA,NA
94e80,task,flow.Sequence,3_0_4_0_5,NA,NA,completion,10841.794,1652936.3000001,1652930.161,1652946.878,1663788.672,1663802.4000001,2023-06-27T11:39:39Z,1663805.36,NULL,Aufstand,ugomaji,s,mazidio,msingi,kujieleza,NA,sd,NA,4,NA,NA,NA,NA,NA,NA,NA,NA,NA,NA,NA,NA,NA,NA,NA,NA,NA,NA,NA
94e80,Deep Question,html.Page,3_0_4_0_6_0_0,NA,NA,form submission,6295.9400000714,1663802.5,1663788.672,1663805.36,1670101.3000001,1670101.8000001,2023-06-27T11:39:45Z,1670117.673,NULL,Kultur,utamaduni,d,NA,NA,NA,NA,NA,NA,4,NA,NA,NA,NA,NA,NA,NA,NA,NA,NA,NA,NA,NA,NA,NA,NA,NA,NA,NA
94e80,"""Richtig""-Screen",canvas.Screen,3_0_4_0_6_0_1,NA,NA,skipped,NA,1670103.8000001,NA,NA,1670101.3000001,1670104.1,2023-06-27T11:39:45Z,1670117.673,NULL,Kultur,utamaduni,d,NA,NA,NA,NA,sd,NA,4,NA,NA,NA,NA,NA,NA,NA,NA,NA,NA,NA,NA,NA,NA,NA,NA,NA,NA,NA
94e80,"""Falsch""-Screen",canvas.Screen,3_0_4_0_6_0_2,NA,NA,timeout,4995.088,1670104.7,1670100.964,1670117.673,1675096.068,1675104.9000001,2023-06-27T11:39:50Z,1675112.761,NULL,Kultur,utamaduni,d,NA,NA,NA,NA,sd,0,4,NA,NA,NA,NA,NA,NA,NA,NA,NA,NA,NA,NA,NA,NA,NA,NA,NA,NA,NA
94e80,deep,flow.Sequence,3_0_4_0_6_0,NA,NA,completion,11290.708,1663802.5,1663788.672,1663805.36,1675096.068,1675105.3000001,2023-06-27T11:39:50Z,1675112.761,NULL,Kultur,utamaduni,d,NA,NA,NA,NA,sd,NA,4,NA,NA,NA,NA,NA,NA,NA,NA,NA,NA,NA,NA,NA,NA,NA,NA,NA,NA,NA
94e80,shallow,flow.Sequence,3_0_4_0_6_1,NA,NA,skipped,NA,1675105.5,NA,NA,1675096.068,1675105.6,2023-06-27T11:39:50Z,1675112.761,NULL,Kultur,utamaduni,d,NA,NA,NA,NA,sd,NA,4,NA,NA,NA,NA,NA,NA,NA,NA,NA,NA,NA,NA,NA,NA,NA,NA,NA,NA,NA
94e80,task,flow.Sequence,3_0_4_0_6,NA,NA,completion,11290.708,1663802.4000001,1663788.672,1663805.36,1675096.068,1675105.7,2023-06-27T11:39:50Z,1675112.761,NULL,Kultur,utamaduni,d,NA,NA,NA,NA,sd,NA,4,NA,NA,NA,NA,NA,NA,NA,NA,NA,NA,NA,NA,NA,NA,NA,NA,NA,NA,NA
94e80,deep,flow.Sequence,3_0_4_0_7_0,NA,NA,skipped,NA,1675105.9000001,NA,NA,1675096.068,1675105.9000001,2023-06-27T11:39:50Z,1675112.761,NULL,Beweis,ushahidi,s,marudio,kizuizi,mtendaji,NA,sd,NA,4,NA,NA,NA,NA,NA,NA,NA,NA,NA,NA,NA,NA,NA,NA,NA,NA,NA,NA,NA
94e80,Shallow Question,html.Page,3_0_4_0_7_1_0,NA,NA,form submission,10584.039000072,1675106.1,1675096.068,1675112.761,1685696.8000001,1685697,2023-06-27T11:40:01Z,1685703.741,NULL,Beweis,ushahidi,s,marudio,kizuizi,mtendaji,ushahidi,NA,NA,4,NA,NA,NA,NA,NA,NA,NA,NA,NA,NA,NA,NA,NA,NA,NA,NA,NA,NA,NA
94e80,"""Richtig""-Screen",canvas.Screen,3_0_4_0_7_1_1,NA,NA,timeout,4998.3790000002,1685698.6,1685691.828,1685703.741,1690685.849,1690686.7,2023-06-27T11:40:06Z,1690702.12,NULL,Beweis,ushahidi,s,marudio,kizuizi,mtendaji,NA,sd,1,4,NA,NA,NA,NA,NA,NA,NA,NA,NA,NA,NA,NA,NA,NA,NA,NA,NA,NA,NA
94e80,"""Falsch""-Screen",canvas.Screen,3_0_4_0_7_1_2,NA,NA,skipped,NA,1690691.1,NA,NA,1690685.849,1690691.4000001,2023-06-27T11:40:06Z,1690702.12,NULL,Beweis,ushahidi,s,marudio,kizuizi,mtendaji,NA,sd,NA,4,NA,NA,NA,NA,NA,NA,NA,NA,NA,NA,NA,NA,NA,NA,NA,NA,NA,NA,NA
94e80,shallow,flow.Sequence,3_0_4_0_7_1,NA,NA,completion,15573.088,1675106.1,1675096.068,1675112.761,1690685.849,1690691.6,2023-06-27T11:40:06Z,1690702.12,NULL,Beweis,ushahidi,s,marudio,kizuizi,mtendaji,NA,sd,NA,4,NA,NA,NA,NA,NA,NA,NA,NA,NA,NA,NA,NA,NA,NA,NA,NA,NA,NA,NA
94e80,task,flow.Sequence,3_0_4_0_7,NA,NA,completion,15573.088,1675105.8000001,1675096.068,1675112.761,1690685.849,1690691.8000001,2023-06-27T11:40:06Z,1690702.12,NULL,Beweis,ushahidi,s,marudio,kizuizi,mtendaji,NA,sd,NA,4,NA,NA,NA,NA,NA,NA,NA,NA,NA,NA,NA,NA,NA,NA,NA,NA,NA,NA,NA
94e80,block,flow.Loop,3_0_4_0,NA,NA,completion,91029.289,1599644.5,1599641.008,1599656.56,1690685.849,1690692,2023-06-27T11:40:06Z,1690702.12,NULL,NA,NA,NA,NA,NA,NA,NA,sd,NA,4,NA,NA,NA,NA,NA,NA,NA,NA,NA,NA,NA,NA,NA,NA,NA,NA,NA,NA,NA
94e80,weiter,canvas.Screen,3_0_4_1,sdf,keypress(Space),response,852.28000009526,1690692.1,1690685.849,1690702.12,1691554.4000001,1691556.4000001,2023-06-27T11:40:07Z,1691611.241,NULL,NA,NA,NA,NA,NA,NA,NA,sd,NA,4,NA,NA,NA,NA,NA,NA,NA,NA,NA,NA,NA,NA,NA,NA,NA,NA,NA,NA,NA
94e80,check continue,flow.Sequence,3_0_4,NA,NA,completion,91897.840000095,1599644.5,1599641.008,1599656.56,1691554.4000001,1691556.7,2023-06-27T11:40:07Z,1691611.241,NULL,NA,NA,NA,NA,NA,NA,NA,sd,NA,4,NA,NA,NA,NA,NA,NA,NA,NA,NA,NA,NA,NA,NA,NA,NA,NA,NA,NA,NA
94e80,Deep Question,html.Page,3_0_5_0_0_0_0,NA,NA,form submission,10183.659000095,1691599.2,1691586.629,1691611.241,1701794.9000001,1701795.1,2023-06-27T11:40:17Z,1701808.222,NULL,Kultur,utamaduni,d,NA,NA,NA,$,NA,NA,5,NA,NA,NA,NA,NA,NA,NA,NA,NA,NA,NA,NA,NA,NA,NA,NA,NA,NA,NA
94e80,"""Richtig""-Screen",canvas.Screen,3_0_5_0_0_0_1,NA,NA,skipped,NA,1701796.7,NA,NA,1701794.9000001,1701796.8000001,2023-06-27T11:40:17Z,1701808.222,NULL,Kultur,utamaduni,d,NA,NA,NA,NA,sdf,NA,5,NA,NA,NA,NA,NA,NA,NA,NA,NA,NA,NA,NA,NA,NA,NA,NA,NA,NA,NA
94e80,"""Falsch""-Screen",canvas.Screen,3_0_5_0_0_0_2,NA,NA,timeout,4994.379,1701797.4000001,1701781.367,1701808.222,1706786.27,1706787.1,2023-06-27T11:40:22Z,1706802.601,NULL,Kultur,utamaduni,d,NA,NA,NA,NA,sdf,0,5,NA,NA,NA,NA,NA,NA,NA,NA,NA,NA,NA,NA,NA,NA,NA,NA,NA,NA,NA
94e80,deep,flow.Sequence,3_0_5_0_0_0,NA,NA,completion,15175.029,1691599.2,1691586.629,1691611.241,1706786.27,1706787.4000001,2023-06-27T11:40:22Z,1706802.601,NULL,Kultur,utamaduni,d,NA,NA,NA,NA,sdf,NA,5,NA,NA,NA,NA,NA,NA,NA,NA,NA,NA,NA,NA,NA,NA,NA,NA,NA,NA,NA
94e80,shallow,flow.Sequence,3_0_5_0_0_1,NA,NA,skipped,NA,1706787.5,NA,NA,1706786.27,1706787.7,2023-06-27T11:40:22Z,1706802.601,NULL,Kultur,utamaduni,d,NA,NA,NA,NA,sdf,NA,5,NA,NA,NA,NA,NA,NA,NA,NA,NA,NA,NA,NA,NA,NA,NA,NA,NA,NA,NA
94e80,task,flow.Sequence,3_0_5_0_0,NA,NA,completion,15175.029,1691599.2,1691586.629,1691611.241,1706786.27,1706787.8000001,2023-06-27T11:40:22Z,1706802.601,NULL,Kultur,utamaduni,d,NA,NA,NA,NA,sdf,NA,5,NA,NA,NA,NA,NA,NA,NA,NA,NA,NA,NA,NA,NA,NA,NA,NA,NA,NA,NA
94e80,deep,flow.Sequence,3_0_5_0_1_0,NA,NA,skipped,NA,1706787.9000001,NA,NA,1706786.27,1706788,2023-06-27T11:40:22Z,1706802.601,NULL,Prüfung,mtihani,s,mkulima,mtizamo,ufumbuzi,NA,sdf,NA,5,NA,NA,NA,NA,NA,NA,NA,NA,NA,NA,NA,NA,NA,NA,NA,NA,NA,NA,NA
94e80,Shallow Question,html.Page,3_0_5_0_1_1_0,NA,NA,form submission,4202.5990000477,1706788.1,1706786.27,1706802.601,1711005.2,1711005.4000001,2023-06-27T11:40:26Z,1711016.063,NULL,Prüfung,mtihani,s,mkulima,mtizamo,ufumbuzi,mtihani,NA,NA,5,NA,NA,NA,NA,NA,NA,NA,NA,NA,NA,NA,NA,NA,NA,NA,NA,NA,NA,NA
94e80,"""Richtig""-Screen",canvas.Screen,3_0_5_0_1_1_1,NA,NA,timeout,4997.5989999999,1711006.9000001,1711002.797,1711016.063,1715997.507,1715998.5,2023-06-27T11:40:31Z,1716013.662,NULL,Prüfung,mtihani,s,mkulima,mtizamo,ufumbuzi,NA,sdf,1,5,NA,NA,NA,NA,NA,NA,NA,NA,NA,NA,NA,NA,NA,NA,NA,NA,NA,NA,NA
94e80,"""Falsch""-Screen",canvas.Screen,3_0_5_0_1_1_2,NA,NA,skipped,NA,1716002.5,NA,NA,1715997.507,1716002.9000001,2023-06-27T11:40:31Z,1716013.662,NULL,Prüfung,mtihani,s,mkulima,mtizamo,ufumbuzi,NA,sdf,NA,5,NA,NA,NA,NA,NA,NA,NA,NA,NA,NA,NA,NA,NA,NA,NA,NA,NA,NA,NA
94e80,shallow,flow.Sequence,3_0_5_0_1_1,NA,NA,completion,9194.906,1706788.1,1706786.27,1706802.601,1715997.507,1716003.1,2023-06-27T11:40:31Z,1716013.662,NULL,Prüfung,mtihani,s,mkulima,mtizamo,ufumbuzi,NA,sdf,NA,5,NA,NA,NA,NA,NA,NA,NA,NA,NA,NA,NA,NA,NA,NA,NA,NA,NA,NA,NA
94e80,task,flow.Sequence,3_0_5_0_1,NA,NA,completion,9194.906,1706787.9000001,1706786.27,1706802.601,1715997.507,1716003.3000001,2023-06-27T11:40:31Z,1716013.662,NULL,Prüfung,mtihani,s,mkulima,mtizamo,ufumbuzi,NA,sdf,NA,5,NA,NA,NA,NA,NA,NA,NA,NA,NA,NA,NA,NA,NA,NA,NA,NA,NA,NA,NA
94e80,Deep Question,html.Page,3_0_5_0_2_0_0,NA,NA,form submission,3850.0380000477,1716003.5,1715997.507,1716013.662,1719863.7,1719864,2023-06-27T11:40:35Z,1719874.942,NULL,Verzögerung,kuchelewa,d,NA,NA,NA,kuchelewa,NA,NA,5,NA,NA,NA,NA,NA,NA,NA,NA,NA,NA,NA,NA,NA,NA,NA,NA,NA,NA,NA
94e80,"""Richtig""-Screen",canvas.Screen,3_0_5_0_2_0_1,NA,NA,timeout,5003.7419999999,1719865.6,1719861.559,1719874.942,1724862.398,1724863.3000001,2023-06-27T11:40:40Z,1724878.684,NULL,Verzögerung,kuchelewa,d,NA,NA,NA,NA,sdf,1,5,NA,NA,NA,NA,NA,NA,NA,NA,NA,NA,NA,NA,NA,NA,NA,NA,NA,NA,NA
94e80,"""Falsch""-Screen",canvas.Screen,3_0_5_0_2_0_2,NA,NA,skipped,NA,1724868.3000001,NA,NA,1724862.398,1724868.9000001,2023-06-27T11:40:40Z,1724878.684,NULL,Verzögerung,kuchelewa,d,NA,NA,NA,NA,sdf,NA,5,NA,NA,NA,NA,NA,NA,NA,NA,NA,NA,NA,NA,NA,NA,NA,NA,NA,NA,NA
94e80,deep,flow.Sequence,3_0_5_0_2_0,NA,NA,completion,8848.736,1716003.5,1715997.507,1716013.662,1724862.398,1724869.3000001,2023-06-27T11:40:40Z,1724878.684,NULL,Verzögerung,kuchelewa,d,NA,NA,NA,NA,sdf,NA,5,NA,NA,NA,NA,NA,NA,NA,NA,NA,NA,NA,NA,NA,NA,NA,NA,NA,NA,NA
94e80,shallow,flow.Sequence,3_0_5_0_2_1,NA,NA,skipped,NA,1724869.5,NA,NA,1724862.398,1724869.7,2023-06-27T11:40:40Z,1724878.684,NULL,Verzögerung,kuchelewa,d,NA,NA,NA,NA,sdf,NA,5,NA,NA,NA,NA,NA,NA,NA,NA,NA,NA,NA,NA,NA,NA,NA,NA,NA,NA,NA
94e80,task,flow.Sequence,3_0_5_0_2,NA,NA,completion,8848.736,1716003.5,1715997.507,1716013.662,1724862.398,1724869.8000001,2023-06-27T11:40:40Z,1724878.684,NULL,Verzögerung,kuchelewa,d,NA,NA,NA,NA,sdf,NA,5,NA,NA,NA,NA,NA,NA,NA,NA,NA,NA,NA,NA,NA,NA,NA,NA,NA,NA,NA
94e80,deep,flow.Sequence,3_0_5_0_3_0,NA,NA,skipped,NA,1724870,NA,NA,1724862.398,1724870,2023-06-27T11:40:40Z,1724878.684,NULL,Beweis,ushahidi,s,marudio,kizuizi,mtendaji,NA,sdf,NA,5,NA,NA,NA,NA,NA,NA,NA,NA,NA,NA,NA,NA,NA,NA,NA,NA,NA,NA,NA
94e80,Shallow Question,html.Page,3_0_5_0_3_1_0,NA,NA,form submission,2769.5160000478,1724870.1,1724862.398,1724878.684,1727648.2,1727648.3000001,2023-06-27T11:40:43Z,1727658.969,NULL,Beweis,ushahidi,s,marudio,kizuizi,mtendaji,ushahidi,NA,NA,5,NA,NA,NA,NA,NA,NA,NA,NA,NA,NA,NA,NA,NA,NA,NA,NA,NA,NA,NA
94e80,"""Richtig""-Screen",canvas.Screen,3_0_5_0_3_1_1,NA,NA,timeout,4991.997,1727649.8000001,1727647.006,1727658.969,1732634.279,1732635.1,2023-06-27T11:40:48Z,1732650.966,NULL,Beweis,ushahidi,s,marudio,kizuizi,mtendaji,NA,sdf,1,5,NA,NA,NA,NA,NA,NA,NA,NA,NA,NA,NA,NA,NA,NA,NA,NA,NA,NA,NA
94e80,"""Falsch""-Screen",canvas.Screen,3_0_5_0_3_1_2,NA,NA,skipped,NA,1732640.7,NA,NA,1732634.279,1732641.1,2023-06-27T11:40:48Z,1732650.966,NULL,Beweis,ushahidi,s,marudio,kizuizi,mtendaji,NA,sdf,NA,5,NA,NA,NA,NA,NA,NA,NA,NA,NA,NA,NA,NA,NA,NA,NA,NA,NA,NA,NA
94e80,shallow,flow.Sequence,3_0_5_0_3_1,NA,NA,completion,7755.5950000002,1724870.1,1724862.398,1724878.684,1732634.279,1732641.4000001,2023-06-27T11:40:48Z,1732650.966,NULL,Beweis,ushahidi,s,marudio,kizuizi,mtendaji,NA,sdf,NA,5,NA,NA,NA,NA,NA,NA,NA,NA,NA,NA,NA,NA,NA,NA,NA,NA,NA,NA,NA
94e80,task,flow.Sequence,3_0_5_0_3,NA,NA,completion,7755.5950000002,1724869.9000001,1724862.398,1724878.684,1732634.279,1732641.7,2023-06-27T11:40:48Z,1732650.966,NULL,Beweis,ushahidi,s,marudio,kizuizi,mtendaji,NA,sdf,NA,5,NA,NA,NA,NA,NA,NA,NA,NA,NA,NA,NA,NA,NA,NA,NA,NA,NA,NA,NA
94e80,Deep Question,html.Page,3_0_5_0_4_0_0,NA,NA,form submission,8584.8340000715,1732641.9000001,1732634.279,1732650.966,1741235.8000001,1741236.1,2023-06-27T11:40:56Z,1741250.737,NULL,Annäherung,maegesho,d,NA,NA,NA,mapendano,NA,NA,5,NA,NA,NA,NA,NA,NA,NA,NA,NA,NA,NA,NA,NA,NA,NA,NA,NA,NA,NA
94e80,"""Richtig""-Screen",canvas.Screen,3_0_5_0_4_0_1,NA,NA,skipped,NA,1741237.7,NA,NA,1741235.8000001,1741237.8000001,2023-06-27T11:40:56Z,1741250.737,NULL,Annäherung,maegesho,d,NA,NA,NA,NA,sdf,NA,5,NA,NA,NA,NA,NA,NA,NA,NA,NA,NA,NA,NA,NA,NA,NA,NA,NA,NA,NA
94e80,"""Falsch""-Screen",canvas.Screen,3_0_5_0_4_0_2,NA,NA,timeout,4993.254,1741238.3000001,1741229.059,1741250.737,1746227.486,1746228.9000001,2023-06-27T11:41:01Z,1746243.991,NULL,Annäherung,maegesho,d,NA,NA,NA,NA,sdf,0,5,NA,NA,NA,NA,NA,NA,NA,NA,NA,NA,NA,NA,NA,NA,NA,NA,NA,NA,NA
94e80,deep,flow.Sequence,3_0_5_0_4_0,NA,NA,completion,13576.52,1732641.9000001,1732634.279,1732650.966,1746227.486,1746229.4000001,2023-06-27T11:41:01Z,1746243.991,NULL,Annäherung,maegesho,d,NA,NA,NA,NA,sdf,NA,5,NA,NA,NA,NA,NA,NA,NA,NA,NA,NA,NA,NA,NA,NA,NA,NA,NA,NA,NA
94e80,shallow,flow.Sequence,3_0_5_0_4_1,NA,NA,skipped,NA,1746229.5,NA,NA,1746227.486,1746229.6,2023-06-27T11:41:01Z,1746243.991,NULL,Annäherung,maegesho,d,NA,NA,NA,NA,sdf,NA,5,NA,NA,NA,NA,NA,NA,NA,NA,NA,NA,NA,NA,NA,NA,NA,NA,NA,NA,NA
94e80,task,flow.Sequence,3_0_5_0_4,NA,NA,completion,13576.52,1732641.8000001,1732634.279,1732650.966,1746227.486,1746229.8000001,2023-06-27T11:41:01Z,1746243.991,NULL,Annäherung,maegesho,d,NA,NA,NA,NA,sdf,NA,5,NA,NA,NA,NA,NA,NA,NA,NA,NA,NA,NA,NA,NA,NA,NA,NA,NA,NA,NA
94e80,deep,flow.Sequence,3_0_5_0_5_0,NA,NA,skipped,NA,1746229.9000001,NA,NA,1746227.486,1746230,2023-06-27T11:41:01Z,1746243.991,NULL,Polizist,msongora,s,simanzi,mandhari,nidhamu,NA,sdf,NA,5,NA,NA,NA,NA,NA,NA,NA,NA,NA,NA,NA,NA,NA,NA,NA,NA,NA,NA,NA
94e80,Shallow Question,html.Page,3_0_5_0_5_1_0,NA,NA,form submission,4872.2090000478,1746230.1,1746227.486,1746243.991,1751116.2,1751116.4000001,2023-06-27T11:41:06Z,1751126.862,NULL,Polizist,msongora,s,simanzi,mandhari,nidhamu,msongora,NA,NA,5,NA,NA,NA,NA,NA,NA,NA,NA,NA,NA,NA,NA,NA,NA,NA,NA,NA,NA,NA
94e80,"""Richtig""-Screen",canvas.Screen,3_0_5_0_5_1_1,NA,NA,timeout,4994.909,1751118.2,1751099.934,1751126.862,1756105.385,1756106.4000001,2023-06-27T11:41:11Z,1756121.771,NULL,Polizist,msongora,s,simanzi,mandhari,nidhamu,NA,sdf,1,5,NA,NA,NA,NA,NA,NA,NA,NA,NA,NA,NA,NA,NA,NA,NA,NA,NA,NA,NA
94e80,"""Falsch""-Screen",canvas.Screen,3_0_5_0_5_1_2,NA,NA,skipped,NA,1756111.4000001,NA,NA,1756105.385,1756111.7,2023-06-27T11:41:11Z,1756121.771,NULL,Polizist,msongora,s,simanzi,mandhari,nidhamu,NA,sdf,NA,5,NA,NA,NA,NA,NA,NA,NA,NA,NA,NA,NA,NA,NA,NA,NA,NA,NA,NA,NA
94e80,shallow,flow.Sequence,3_0_5_0_5_1,NA,NA,completion,9861.3940000001,1746230.1,1746227.486,1746243.991,1756105.385,1756112,2023-06-27T11:41:11Z,1756121.771,NULL,Polizist,msongora,s,simanzi,mandhari,nidhamu,NA,sdf,NA,5,NA,NA,NA,NA,NA,NA,NA,NA,NA,NA,NA,NA,NA,NA,NA,NA,NA,NA,NA
94e80,task,flow.Sequence,3_0_5_0_5,NA,NA,completion,9861.3940000001,1746229.9000001,1746227.486,1746243.991,1756105.385,1756112.2,2023-06-27T11:41:11Z,1756121.771,NULL,Polizist,msongora,s,simanzi,mandhari,nidhamu,NA,sdf,NA,5,NA,NA,NA,NA,NA,NA,NA,NA,NA,NA,NA,NA,NA,NA,NA,NA,NA,NA,NA
94e80,Deep Question,html.Page,3_0_5_0_6_0_0,NA,NA,form submission,3111.7290000001,1756112.3000001,1756105.385,1756121.771,1759233.5,1759233.7,2023-06-27T11:41:14Z,1759244.904,NULL,Sympathie,mapendano,d,NA,NA,NA,mapendano,NA,NA,5,NA,NA,NA,NA,NA,NA,NA,NA,NA,NA,NA,NA,NA,NA,NA,NA,NA,NA,NA
94e80,"""Richtig""-Screen",canvas.Screen,3_0_5_0_6_0_1,NA,NA,timeout,4997.493,1759235.4000001,1759218.461,1759244.904,1764225.883,1764228,2023-06-27T11:41:19Z,1764242.397,NULL,Sympathie,mapendano,d,NA,NA,NA,NA,sdf,1,5,NA,NA,NA,NA,NA,NA,NA,NA,NA,NA,NA,NA,NA,NA,NA,NA,NA,NA,NA
94e80,"""Falsch""-Screen",canvas.Screen,3_0_5_0_6_0_2,NA,NA,skipped,NA,1764232.5,NA,NA,1764225.883,1764232.8000001,2023-06-27T11:41:19Z,1764242.397,NULL,Sympathie,mapendano,d,NA,NA,NA,NA,sdf,NA,5,NA,NA,NA,NA,NA,NA,NA,NA,NA,NA,NA,NA,NA,NA,NA,NA,NA,NA,NA
94e80,deep,flow.Sequence,3_0_5_0_6_0,NA,NA,completion,8104.112,1756112.3000001,1756105.385,1756121.771,1764225.883,1764233.1,2023-06-27T11:41:19Z,1764242.397,NULL,Sympathie,mapendano,d,NA,NA,NA,NA,sdf,NA,5,NA,NA,NA,NA,NA,NA,NA,NA,NA,NA,NA,NA,NA,NA,NA,NA,NA,NA,NA
94e80,shallow,flow.Sequence,3_0_5_0_6_1,NA,NA,skipped,NA,1764233.1,NA,NA,1764225.883,1764233.3000001,2023-06-27T11:41:19Z,1764242.397,NULL,Sympathie,mapendano,d,NA,NA,NA,NA,sdf,NA,5,NA,NA,NA,NA,NA,NA,NA,NA,NA,NA,NA,NA,NA,NA,NA,NA,NA,NA,NA
94e80,task,flow.Sequence,3_0_5_0_6,NA,NA,completion,8104.112,1756112.3000001,1756105.385,1756121.771,1764225.883,1764233.4000001,2023-06-27T11:41:19Z,1764242.397,NULL,Sympathie,mapendano,d,NA,NA,NA,NA,sdf,NA,5,NA,NA,NA,NA,NA,NA,NA,NA,NA,NA,NA,NA,NA,NA,NA,NA,NA,NA,NA
94e80,deep,flow.Sequence,3_0_5_0_7_0,NA,NA,skipped,NA,1764233.8000001,NA,NA,1764225.883,1764234.2,2023-06-27T11:41:19Z,1764242.397,NULL,Aufstand,ugomaji,s,mazidio,msingi,kujieleza,NA,sdf,NA,5,NA,NA,NA,NA,NA,NA,NA,NA,NA,NA,NA,NA,NA,NA,NA,NA,NA,NA,NA
94e80,Shallow Question,html.Page,3_0_5_0_7_1_0,NA,NA,form submission,4593.8030000476,1764234.5,1764225.883,1764242.397,1768836.2,1768836.4000001,2023-06-27T11:41:24Z,1768845.236,NULL,Aufstand,ugomaji,s,mazidio,msingi,kujieleza,ugomaji,NA,NA,5,NA,NA,NA,NA,NA,NA,NA,NA,NA,NA,NA,NA,NA,NA,NA,NA,NA,NA,NA
94e80,"""Richtig""-Screen",canvas.Screen,3_0_5_0_7_1_1,NA,NA,timeout,4997.2379999999,1768837.9000001,1768827.389,1768845.236,1773826.069,1773826.8000001,2023-06-27T11:41:29Z,1773842.474,NULL,Aufstand,ugomaji,s,mazidio,msingi,kujieleza,NA,sdf,1,5,NA,NA,NA,NA,NA,NA,NA,NA,NA,NA,NA,NA,NA,NA,NA,NA,NA,NA,NA
94e80,"""Falsch""-Screen",canvas.Screen,3_0_5_0_7_1_2,NA,NA,skipped,NA,1773831.1,NA,NA,1773826.069,1773831.5,2023-06-27T11:41:29Z,1773842.474,NULL,Aufstand,ugomaji,s,mazidio,msingi,kujieleza,NA,sdf,NA,5,NA,NA,NA,NA,NA,NA,NA,NA,NA,NA,NA,NA,NA,NA,NA,NA,NA,NA,NA
94e80,shallow,flow.Sequence,3_0_5_0_7_1,NA,NA,completion,9583.6719999998,1764234.4000001,1764225.883,1764242.397,1773826.069,1773831.8000001,2023-06-27T11:41:29Z,1773842.474,NULL,Aufstand,ugomaji,s,mazidio,msingi,kujieleza,NA,sdf,NA,5,NA,NA,NA,NA,NA,NA,NA,NA,NA,NA,NA,NA,NA,NA,NA,NA,NA,NA,NA
94e80,task,flow.Sequence,3_0_5_0_7,NA,NA,completion,9583.6719999998,1764233.5,1764225.883,1764242.397,1773826.069,1773832,2023-06-27T11:41:29Z,1773842.474,NULL,Aufstand,ugomaji,s,mazidio,msingi,kujieleza,NA,sdf,NA,5,NA,NA,NA,NA,NA,NA,NA,NA,NA,NA,NA,NA,NA,NA,NA,NA,NA,NA,NA
94e80,block,flow.Loop,3_0_5_0,NA,NA,completion,82214.828,1691599.1,1691586.629,1691611.241,1773826.069,1773832.2,2023-06-27T11:41:29Z,1773842.474,NULL,NA,NA,NA,NA,NA,NA,NA,sdf,NA,5,NA,NA,NA,NA,NA,NA,NA,NA,NA,NA,NA,NA,NA,NA,NA,NA,NA,NA,NA
94e80,weiter,canvas.Screen,3_0_5_1,sdf,keypress(Space),response,974.92600009544,1773832.3000001,1773826.069,1773842.474,1774817.4000001,1774819,2023-06-27T11:41:30Z,1775180.866,NULL,NA,NA,NA,NA,NA,NA,NA,sdf,NA,5,NA,NA,NA,NA,NA,NA,NA,NA,NA,NA,NA,NA,NA,NA,NA,NA,NA,NA,NA
94e80,check continue,flow.Sequence,3_0_5,NA,NA,completion,83206.159000095,1691599.1,1691586.629,1691611.241,1774817.4000001,1774819.3000001,2023-06-27T11:41:30Z,1775180.866,NULL,NA,NA,NA,NA,NA,NA,NA,sdf,NA,5,NA,NA,NA,NA,NA,NA,NA,NA,NA,NA,NA,NA,NA,NA,NA,NA,NA,NA,NA
94e80,check continue,flow.Sequence,3_0_6,NA,NA,skipped,NA,1774849.6,NA,NA,1774817.4000001,1774849.8000001,2023-06-27T11:41:30Z,1775180.866,NULL,NA,NA,NA,NA,NA,NA,NA,dfs,NA,6,NA,NA,NA,NA,NA,NA,NA,NA,NA,NA,NA,NA,NA,NA,NA,NA,NA,NA,NA
94e80,check continue,flow.Sequence,3_0_7,NA,NA,skipped,NA,1774867.8000001,NA,NA,1774817.4000001,1774867.9000001,2023-06-27T11:41:30Z,1775180.866,NULL,NA,NA,NA,NA,NA,NA,NA,df,NA,7,NA,NA,NA,NA,NA,NA,NA,NA,NA,NA,NA,NA,NA,NA,NA,NA,NA,NA,NA
94e80,check continue,flow.Sequence,3_0_8,NA,NA,skipped,NA,1774886,NA,NA,1774817.4000001,1774886.1,2023-06-27T11:41:30Z,1775180.866,NULL,NA,NA,NA,NA,NA,NA,NA,dfs,NA,8,NA,NA,NA,NA,NA,NA,NA,NA,NA,NA,NA,NA,NA,NA,NA,NA,NA,NA,NA
94e80,check continue,flow.Sequence,3_0_9,NA,NA,skipped,NA,1774898.6,NA,NA,1774817.4000001,1774898.7,2023-06-27T11:41:30Z,1775180.866,NULL,NA,NA,NA,NA,NA,NA,NA,dsf,NA,9,NA,NA,NA,NA,NA,NA,NA,NA,NA,NA,NA,NA,NA,NA,NA,NA,NA,NA,NA
94e80,check continue,flow.Sequence,3_0_10,NA,NA,skipped,NA,1774911.8000001,NA,NA,1774817.4000001,1774911.8000001,2023-06-27T11:41:30Z,1775180.866,NULL,NA,NA,NA,NA,NA,NA,NA,df,NA,10,NA,NA,NA,NA,NA,NA,NA,NA,NA,NA,NA,NA,NA,NA,NA,NA,NA,NA,NA
94e80,check continue,flow.Sequence,3_0_11,NA,NA,skipped,NA,1774924.6,NA,NA,1774817.4000001,1774924.7,2023-06-27T11:41:30Z,1775180.866,NULL,NA,NA,NA,NA,NA,NA,NA,dfs,NA,11,NA,NA,NA,NA,NA,NA,NA,NA,NA,NA,NA,NA,NA,NA,NA,NA,NA,NA,NA
94e80,check continue,flow.Sequence,3_0_12,NA,NA,skipped,NA,1774939.4000001,NA,NA,1774817.4000001,1774939.4000001,2023-06-27T11:41:30Z,1775180.866,NULL,NA,NA,NA,NA,NA,NA,NA,dsf,NA,12,NA,NA,NA,NA,NA,NA,NA,NA,NA,NA,NA,NA,NA,NA,NA,NA,NA,NA,NA
94e80,check continue,flow.Sequence,3_0_13,NA,NA,skipped,NA,1774950.6,NA,NA,1774817.4000001,1774950.6,2023-06-27T11:41:30Z,1775180.866,NULL,NA,NA,NA,NA,NA,NA,NA,dsf,NA,13,NA,NA,NA,NA,NA,NA,NA,NA,NA,NA,NA,NA,NA,NA,NA,NA,NA,NA,NA
94e80,check continue,flow.Sequence,3_0_14,NA,NA,skipped,NA,1774962.7,NA,NA,1774817.4000001,1774962.8000001,2023-06-27T11:41:30Z,1775180.866,NULL,NA,NA,NA,NA,NA,NA,NA,NA,NA,14,NA,NA,NA,NA,NA,NA,NA,NA,NA,NA,NA,NA,NA,NA,NA,NA,NA,NA,NA
94e80,check continue,flow.Sequence,3_0_15,NA,NA,skipped,NA,1774975.7,NA,NA,1774817.4000001,1774975.9000001,2023-06-27T11:41:30Z,1775180.866,NULL,NA,NA,NA,NA,NA,NA,NA,NA,NA,15,NA,NA,NA,NA,NA,NA,NA,NA,NA,NA,NA,NA,NA,NA,NA,NA,NA,NA,NA
94e80,check continue,flow.Sequence,3_0_16,NA,NA,skipped,NA,1774989.7,NA,NA,1774817.4000001,1774989.8000001,2023-06-27T11:41:30Z,1775180.866,NULL,NA,NA,NA,NA,NA,NA,NA,NA,NA,16,NA,NA,NA,NA,NA,NA,NA,NA,NA,NA,NA,NA,NA,NA,NA,NA,NA,NA,NA
94e80,check continue,flow.Sequence,3_0_17,NA,NA,skipped,NA,1775001.9000001,NA,NA,1774817.4000001,1775002.1,2023-06-27T11:41:30Z,1775180.866,NULL,NA,NA,NA,NA,NA,NA,NA,NA,NA,17,NA,NA,NA,NA,NA,NA,NA,NA,NA,NA,NA,NA,NA,NA,NA,NA,NA,NA,NA
94e80,check continue,flow.Sequence,3_0_18,NA,NA,skipped,NA,1775012.8000001,NA,NA,1774817.4000001,1775012.9000001,2023-06-27T11:41:30Z,1775180.866,NULL,NA,NA,NA,NA,NA,NA,NA,NA,NA,18,NA,NA,NA,NA,NA,NA,NA,NA,NA,NA,NA,NA,NA,NA,NA,NA,NA,NA,NA
94e80,check continue,flow.Sequence,3_0_19,NA,NA,skipped,NA,1775025.2,NA,NA,1774817.4000001,1775025.3000001,2023-06-27T11:41:30Z,1775180.866,NULL,NA,NA,NA,NA,NA,NA,NA,NA,NA,19,NA,NA,NA,NA,NA,NA,NA,NA,NA,NA,NA,NA,NA,NA,NA,NA,NA,NA,NA
94e80,check continue,flow.Sequence,3_0_20,NA,NA,skipped,NA,1775039.2,NA,NA,1774817.4000001,1775039.3000001,2023-06-27T11:41:30Z,1775180.866,NULL,NA,NA,NA,NA,NA,NA,NA,NA,NA,20,NA,NA,NA,NA,NA,NA,NA,NA,NA,NA,NA,NA,NA,NA,NA,NA,NA,NA,NA
94e80,check continue,flow.Sequence,3_0_21,NA,NA,skipped,NA,1775049.8000001,NA,NA,1774817.4000001,1775050,2023-06-27T11:41:30Z,1775180.866,NULL,NA,NA,NA,NA,NA,NA,NA,NA,NA,21,NA,NA,NA,NA,NA,NA,NA,NA,NA,NA,NA,NA,NA,NA,NA,NA,NA,NA,NA
94e80,check continue,flow.Sequence,3_0_22,NA,NA,skipped,NA,1775065.3000001,NA,NA,1774817.4000001,1775065.3000001,2023-06-27T11:41:30Z,1775180.866,NULL,NA,NA,NA,NA,NA,NA,NA,NA,NA,22,NA,NA,NA,NA,NA,NA,NA,NA,NA,NA,NA,NA,NA,NA,NA,NA,NA,NA,NA
94e80,check continue,flow.Sequence,3_0_23,NA,NA,skipped,NA,1775078.2,NA,NA,1774817.4000001,1775078.4000001,2023-06-27T11:41:30Z,1775180.866,NULL,NA,NA,NA,NA,NA,NA,NA,NA,NA,23,NA,NA,NA,NA,NA,NA,NA,NA,NA,NA,NA,NA,NA,NA,NA,NA,NA,NA,NA
