observation,sender,sender_type,sender_id,response,response_action,ended_on,duration,time_run,time_render,time_show,time_end,time_commit,timestamp,time_switch,distractors,german,swahili,enc,distractor1,distractor2,distractor3,response_2,x,correct,x_2,url_vp,url_sess,meta_labjs_version,meta_location,meta_user_agent,meta_platform,meta_language,meta_locale,meta_time_zone,meta_timezone_offset,meta_screen_width,meta_screen_height,meta_scroll_width,meta_scroll_height,meta_window_inner_width,meta_window_inner_height,meta_device_pixel_ratio,meta_labjs_build_flavor,meta_labjs_build_commit
14c1c,Introduction general,canvas.Screen,0,weiter,keypress(q),response,215337.68,1034,1034.36,1046.32,216384,216392,2024-06-22T12:31:53Z,216408.58,NULL,NA,NA,NA,NA,NA,NA,NA,NA,NA,NA,163,3,20.2.4,https://neurocog.fernuni.ch/studies/vweber/jbaenninger/encoding_immediate/index.html?vp=163&sess=3,Mozilla/5.0 (Windows NT 10.0; Win64; x64; rv:127.0) Gecko/20100101 Firefox/127.0,Win32,de,de-CH,Europe/Zurich,-120,1280,800,1280,591,1280,639,1.5,production,f5b4a49f956347addd546a832a3327688c2c0fef
14c1c,Introduction practice,canvas.Screen,1_0,NA,keypress(Space),response,3442.42,216393,216393.5,216408.58,219851,219855,2024-06-22T12:31:56Z,219856.26,NULL,NA,NA,NA,NA,NA,NA,NA,NA,NA,NA,NA,NA,NA,NA,NA,NA,NA,NA,NA,NA,NA,NA,NA,NA,NA,NA,NA,NA,NA
14c1c,Deep Question,html.Page,1_1_0_0_0,NA,NA,form submission,4426.74,219856,219855.96,219856.26,224283,224283,2024-06-22T12:32:00Z,224282.02,"c(""distractor1"", ""distractor2"", ""distractor3"")",Schatten,kivuli,d,NA,NA,NA,fjdsihfis,NA,NA,NA,NA,NA,NA,NA,NA,NA,NA,NA,NA,NA,NA,NA,NA,NA,NA,NA,NA,NA,NA
14c1c,"""Richtig""-Screen",canvas.Screen,1_1_0_0_1,NA,NA,skipped,NA,224289,NA,NA,224283,224289,2024-06-22T12:32:00Z,224282.02,"c(""distractor1"", ""distractor2"", ""distractor3"")",Schatten,kivuli,d,NA,NA,NA,NA,NA,NA,NA,NA,NA,NA,NA,NA,NA,NA,NA,NA,NA,NA,NA,NA,NA,NA,NA,NA,NA,NA
14c1c,"""Falsch""-Screen",canvas.Screen,1_1_0_0_2,NA,NA,timeout,5003.94,224290,224280.98,224282.02,229269.26,229270,2024-06-22T12:32:05Z,229285.96,"c(""distractor1"", ""distractor2"", ""distractor3"")",Schatten,kivuli,d,NA,NA,NA,NA,NA,0,NA,NA,NA,NA,NA,NA,NA,NA,NA,NA,NA,NA,NA,NA,NA,NA,NA,NA,NA,NA
14c1c,deep,flow.Sequence,1_1_0_0,NA,NA,completion,9413,219856,219855.96,219856.26,229269.26,229271,2024-06-22T12:32:05Z,229285.96,"c(""distractor1"", ""distractor2"", ""distractor3"")",Schatten,kivuli,d,NA,NA,NA,NA,NA,NA,NA,NA,NA,NA,NA,NA,NA,NA,NA,NA,NA,NA,NA,NA,NA,NA,NA,NA,NA,NA
14c1c,shallow,flow.Sequence,1_1_0_1,NA,NA,skipped,NA,229271,NA,NA,229269.26,229271,2024-06-22T12:32:05Z,229285.96,"c(""distractor1"", ""distractor2"", ""distractor3"")",Schatten,kivuli,d,NA,NA,NA,NA,NA,NA,NA,NA,NA,NA,NA,NA,NA,NA,NA,NA,NA,NA,NA,NA,NA,NA,NA,NA,NA,NA
14c1c,task,flow.Sequence,1_1_0,NA,NA,completion,9413,219856,219855.96,219856.26,229269.26,229272,2024-06-22T12:32:05Z,229285.96,"c(""distractor1"", ""distractor2"", ""distractor3"")",Schatten,kivuli,d,NA,NA,NA,NA,NA,NA,NA,NA,NA,NA,NA,NA,NA,NA,NA,NA,NA,NA,NA,NA,NA,NA,NA,NA,NA,NA
14c1c,deep,flow.Sequence,1_1_1_0,NA,NA,skipped,NA,229272,NA,NA,229269.26,229272,2024-06-22T12:32:05Z,229285.96,"c(""distractor1"", ""distractor2"", ""distractor3"")",Rückhalt,msaada,s,muhula,auwali,kiwimbe,NA,NA,NA,NA,NA,NA,NA,NA,NA,NA,NA,NA,NA,NA,NA,NA,NA,NA,NA,NA,NA,NA,NA
14c1c,Shallow Question,html.Page,1_1_1_1_0,NA,NA,form submission,6312.04,229273,229269.26,229285.96,235598,235598,2024-06-22T12:32:12Z,235607.88,"c(""distractor1"", ""distractor2"", ""distractor3"")",Rückhalt,msaada,s,muhula,auwali,kiwimbe,auwali,NA,NA,NA,NA,NA,NA,NA,NA,NA,NA,NA,NA,NA,NA,NA,NA,NA,NA,NA,NA,NA,NA
14c1c,"""Richtig""-Screen",canvas.Screen,1_1_1_1_1,NA,NA,skipped,NA,235600,NA,NA,235598,235600,2024-06-22T12:32:12Z,235607.88,"c(""distractor1"", ""distractor2"", ""distractor3"")",Rückhalt,msaada,s,muhula,auwali,kiwimbe,NA,NA,NA,NA,NA,NA,NA,NA,NA,NA,NA,NA,NA,NA,NA,NA,NA,NA,NA,NA,NA,NA,NA
14c1c,"""Falsch""-Screen",canvas.Screen,1_1_1_1_2,NA,NA,timeout,5004.12,235603,235594.84,235607.88,240595.38,240596,2024-06-22T12:32:17Z,240612,"c(""distractor1"", ""distractor2"", ""distractor3"")",Rückhalt,msaada,s,muhula,auwali,kiwimbe,NA,NA,0,NA,NA,NA,NA,NA,NA,NA,NA,NA,NA,NA,NA,NA,NA,NA,NA,NA,NA,NA,NA
14c1c,shallow,flow.Sequence,1_1_1_1,NA,NA,completion,11309.42,229272,229269.26,229285.96,240595.38,240597,2024-06-22T12:32:17Z,240612,"c(""distractor1"", ""distractor2"", ""distractor3"")",Rückhalt,msaada,s,muhula,auwali,kiwimbe,NA,NA,NA,NA,NA,NA,NA,NA,NA,NA,NA,NA,NA,NA,NA,NA,NA,NA,NA,NA,NA,NA,NA
14c1c,task,flow.Sequence,1_1_1,NA,NA,completion,11309.42,229272,229269.26,229285.96,240595.38,240597,2024-06-22T12:32:17Z,240612,"c(""distractor1"", ""distractor2"", ""distractor3"")",Rückhalt,msaada,s,muhula,auwali,kiwimbe,NA,NA,NA,NA,NA,NA,NA,NA,NA,NA,NA,NA,NA,NA,NA,NA,NA,NA,NA,NA,NA,NA,NA
14c1c,Deep Question,html.Page,1_1_2_0_0,NA,NA,form submission,2836,240597,240595.38,240612,243448,243448,2024-06-22T12:32:20Z,243447.76,"c(""distractor1"", ""distractor2"", ""distractor3"")",Gesundheit,salama,d,NA,NA,NA,vfjshjhg,NA,NA,NA,NA,NA,NA,NA,NA,NA,NA,NA,NA,NA,NA,NA,NA,NA,NA,NA,NA,NA,NA
14c1c,"""Richtig""-Screen",canvas.Screen,1_1_2_0_1,NA,NA,skipped,NA,243450,NA,NA,243448,243450,2024-06-22T12:32:20Z,243447.76,"c(""distractor1"", ""distractor2"", ""distractor3"")",Gesundheit,salama,d,NA,NA,NA,NA,NA,NA,NA,NA,NA,NA,NA,NA,NA,NA,NA,NA,NA,NA,NA,NA,NA,NA,NA,NA,NA,NA
14c1c,"""Falsch""-Screen",canvas.Screen,1_1_2_0_2,NA,NA,timeout,5004,243451,243446.26,243447.76,248435.06,248436,2024-06-22T12:32:25Z,248451.76,"c(""distractor1"", ""distractor2"", ""distractor3"")",Gesundheit,salama,d,NA,NA,NA,NA,NA,0,NA,NA,NA,NA,NA,NA,NA,NA,NA,NA,NA,NA,NA,NA,NA,NA,NA,NA,NA,NA
14c1c,deep,flow.Sequence,1_1_2_0,NA,NA,completion,7823.06,240597,240595.38,240612,248435.06,248437,2024-06-22T12:32:25Z,248451.76,"c(""distractor1"", ""distractor2"", ""distractor3"")",Gesundheit,salama,d,NA,NA,NA,NA,NA,NA,NA,NA,NA,NA,NA,NA,NA,NA,NA,NA,NA,NA,NA,NA,NA,NA,NA,NA,NA,NA
14c1c,shallow,flow.Sequence,1_1_2_1,NA,NA,skipped,NA,248437,NA,NA,248435.06,248437,2024-06-22T12:32:25Z,248451.76,"c(""distractor1"", ""distractor2"", ""distractor3"")",Gesundheit,salama,d,NA,NA,NA,NA,NA,NA,NA,NA,NA,NA,NA,NA,NA,NA,NA,NA,NA,NA,NA,NA,NA,NA,NA,NA,NA,NA
14c1c,task,flow.Sequence,1_1_2,NA,NA,completion,7823.06,240597,240595.38,240612,248435.06,248437,2024-06-22T12:32:25Z,248451.76,"c(""distractor1"", ""distractor2"", ""distractor3"")",Gesundheit,salama,d,NA,NA,NA,NA,NA,NA,NA,NA,NA,NA,NA,NA,NA,NA,NA,NA,NA,NA,NA,NA,NA,NA,NA,NA,NA,NA
14c1c,Deep Question,html.Page,1_1_3_0_0,NA,NA,form submission,3696.24,248437,248435.06,248451.76,252148,252148,2024-06-22T12:32:28Z,252154.86,"c(""distractor1"", ""distractor2"", ""distractor3"")",Qualität,mtindo,d,NA,NA,NA,fnksjkf,NA,NA,NA,NA,NA,NA,NA,NA,NA,NA,NA,NA,NA,NA,NA,NA,NA,NA,NA,NA,NA,NA
14c1c,"""Richtig""-Screen",canvas.Screen,1_1_3_0_1,NA,NA,skipped,NA,252148,NA,NA,252148,252149,2024-06-22T12:32:28Z,252154.86,"c(""distractor1"", ""distractor2"", ""distractor3"")",Qualität,mtindo,d,NA,NA,NA,NA,NA,NA,NA,NA,NA,NA,NA,NA,NA,NA,NA,NA,NA,NA,NA,NA,NA,NA,NA,NA,NA,NA
14c1c,"""Falsch""-Screen",canvas.Screen,1_1_3_0_2,NA,NA,timeout,5004.32,252151,252145.84,252154.86,257142.48,257143,2024-06-22T12:32:33Z,257159.18,"c(""distractor1"", ""distractor2"", ""distractor3"")",Qualität,mtindo,d,NA,NA,NA,NA,NA,0,NA,NA,NA,NA,NA,NA,NA,NA,NA,NA,NA,NA,NA,NA,NA,NA,NA,NA,NA,NA
14c1c,deep,flow.Sequence,1_1_3_0,NA,NA,completion,8690.72,248437,248435.06,248451.76,257142.48,257144,2024-06-22T12:32:33Z,257159.18,"c(""distractor1"", ""distractor2"", ""distractor3"")",Qualität,mtindo,d,NA,NA,NA,NA,NA,NA,NA,NA,NA,NA,NA,NA,NA,NA,NA,NA,NA,NA,NA,NA,NA,NA,NA,NA,NA,NA
14c1c,shallow,flow.Sequence,1_1_3_1,NA,NA,skipped,NA,257144,NA,NA,257142.48,257144,2024-06-22T12:32:33Z,257159.18,"c(""distractor1"", ""distractor2"", ""distractor3"")",Qualität,mtindo,d,NA,NA,NA,NA,NA,NA,NA,NA,NA,NA,NA,NA,NA,NA,NA,NA,NA,NA,NA,NA,NA,NA,NA,NA,NA,NA
14c1c,task,flow.Sequence,1_1_3,NA,NA,completion,8690.72,248437,248435.06,248451.76,257142.48,257144,2024-06-22T12:32:33Z,257159.18,"c(""distractor1"", ""distractor2"", ""distractor3"")",Qualität,mtindo,d,NA,NA,NA,NA,NA,NA,NA,NA,NA,NA,NA,NA,NA,NA,NA,NA,NA,NA,NA,NA,NA,NA,NA,NA,NA,NA
14c1c,deep,flow.Sequence,1_1_4_0,NA,NA,skipped,NA,257144,NA,NA,257142.48,257144,2024-06-22T12:32:33Z,257159.18,"c(""distractor1"", ""distractor2"", ""distractor3"")",Gegenwart,hadhara,s,katiba,jokofu,mikopo,NA,NA,NA,NA,NA,NA,NA,NA,NA,NA,NA,NA,NA,NA,NA,NA,NA,NA,NA,NA,NA,NA,NA
14c1c,Shallow Question,html.Page,1_1_4_1_0,NA,NA,form submission,8002.82,257144,257142.48,257159.18,265162,265163,2024-06-22T12:32:41Z,265165.68,"c(""distractor1"", ""distractor2"", ""distractor3"")",Gegenwart,hadhara,s,katiba,jokofu,mikopo,katiba,NA,NA,NA,NA,NA,NA,NA,NA,NA,NA,NA,NA,NA,NA,NA,NA,NA,NA,NA,NA,NA,NA
14c1c,"""Richtig""-Screen",canvas.Screen,1_1_4_1_1,NA,NA,skipped,NA,265164,NA,NA,265162,265164,2024-06-22T12:32:41Z,265165.68,"c(""distractor1"", ""distractor2"", ""distractor3"")",Gegenwart,hadhara,s,katiba,jokofu,mikopo,NA,NA,NA,NA,NA,NA,NA,NA,NA,NA,NA,NA,NA,NA,NA,NA,NA,NA,NA,NA,NA,NA,NA
14c1c,"""Falsch""-Screen",canvas.Screen,1_1_4_1_2,NA,NA,timeout,5004.24,265166,265159.1,265165.68,270153.22,270155,2024-06-22T12:32:46Z,270169.92,"c(""distractor1"", ""distractor2"", ""distractor3"")",Gegenwart,hadhara,s,katiba,jokofu,mikopo,NA,NA,0,NA,NA,NA,NA,NA,NA,NA,NA,NA,NA,NA,NA,NA,NA,NA,NA,NA,NA,NA,NA
14c1c,shallow,flow.Sequence,1_1_4_1,NA,NA,completion,12994.04,257144,257142.48,257159.18,270153.22,270155,2024-06-22T12:32:46Z,270169.92,"c(""distractor1"", ""distractor2"", ""distractor3"")",Gegenwart,hadhara,s,katiba,jokofu,mikopo,NA,NA,NA,NA,NA,NA,NA,NA,NA,NA,NA,NA,NA,NA,NA,NA,NA,NA,NA,NA,NA,NA,NA
14c1c,task,flow.Sequence,1_1_4,NA,NA,completion,12994.04,257144,257142.48,257159.18,270153.22,270155,2024-06-22T12:32:46Z,270169.92,"c(""distractor1"", ""distractor2"", ""distractor3"")",Gegenwart,hadhara,s,katiba,jokofu,mikopo,NA,NA,NA,NA,NA,NA,NA,NA,NA,NA,NA,NA,NA,NA,NA,NA,NA,NA,NA,NA,NA,NA,NA
14c1c,deep,flow.Sequence,1_1_5_0,NA,NA,skipped,NA,270155,NA,NA,270153.22,270155,2024-06-22T12:32:46Z,270169.92,"c(""distractor1"", ""distractor2"", ""distractor3"")",Kritik,lawama,s,dereva,nafasi,mawazo,NA,NA,NA,NA,NA,NA,NA,NA,NA,NA,NA,NA,NA,NA,NA,NA,NA,NA,NA,NA,NA,NA,NA
14c1c,Shallow Question,html.Page,1_1_5_1_0,NA,NA,form submission,8403.08,270155,270153.22,270169.92,278573,278573,2024-06-22T12:32:55Z,278576.72,"c(""distractor1"", ""distractor2"", ""distractor3"")",Kritik,lawama,s,dereva,nafasi,mawazo,nafasi,NA,NA,NA,NA,NA,NA,NA,NA,NA,NA,NA,NA,NA,NA,NA,NA,NA,NA,NA,NA,NA,NA
14c1c,"""Richtig""-Screen",canvas.Screen,1_1_5_1_1,NA,NA,skipped,NA,278574,NA,NA,278573,278574,2024-06-22T12:32:55Z,278576.72,"c(""distractor1"", ""distractor2"", ""distractor3"")",Kritik,lawama,s,dereva,nafasi,mawazo,NA,NA,NA,NA,NA,NA,NA,NA,NA,NA,NA,NA,NA,NA,NA,NA,NA,NA,NA,NA,NA,NA,NA
14c1c,"""Falsch""-Screen",canvas.Screen,1_1_5_1_2,NA,NA,timeout,5004.24,278575,278569.22,278576.72,283564.26,283565,2024-06-22T12:33:00Z,283580.96,"c(""distractor1"", ""distractor2"", ""distractor3"")",Kritik,lawama,s,dereva,nafasi,mawazo,NA,NA,0,NA,NA,NA,NA,NA,NA,NA,NA,NA,NA,NA,NA,NA,NA,NA,NA,NA,NA,NA,NA
14c1c,shallow,flow.Sequence,1_1_5_1,NA,NA,completion,13394.34,270155,270153.22,270169.92,283564.26,283566,2024-06-22T12:33:00Z,283580.96,"c(""distractor1"", ""distractor2"", ""distractor3"")",Kritik,lawama,s,dereva,nafasi,mawazo,NA,NA,NA,NA,NA,NA,NA,NA,NA,NA,NA,NA,NA,NA,NA,NA,NA,NA,NA,NA,NA,NA,NA
14c1c,task,flow.Sequence,1_1_5,NA,NA,completion,13394.34,270155,270153.22,270169.92,283564.26,283566,2024-06-22T12:33:00Z,283580.96,"c(""distractor1"", ""distractor2"", ""distractor3"")",Kritik,lawama,s,dereva,nafasi,mawazo,NA,NA,NA,NA,NA,NA,NA,NA,NA,NA,NA,NA,NA,NA,NA,NA,NA,NA,NA,NA,NA,NA,NA
14c1c,block,flow.Loop,1_1,NA,NA,completion,63708,219855,219855.96,219856.26,283564.26,283566,2024-06-22T12:33:00Z,283580.96,"c(""distractor1"", ""distractor2"", ""distractor3"")",NA,NA,NA,NA,NA,NA,NA,NA,NA,NA,NA,NA,NA,NA,NA,NA,NA,NA,NA,NA,NA,NA,NA,NA,NA,NA,NA,NA,NA
14c1c,Practice,flow.Sequence,1,NA,NA,completion,67155.68,216393,216393.5,216408.58,283564.26,283566,2024-06-22T12:33:00Z,283580.96,NULL,NA,NA,NA,NA,NA,NA,NA,NA,NA,NA,NA,NA,NA,NA,NA,NA,NA,NA,NA,NA,NA,NA,NA,NA,NA,NA,NA,NA,NA
14c1c,Experiment start,canvas.Screen,2,weiter,keypress(q),response,34276.04,283567,283564.26,283580.96,317857,317867,2024-06-22T12:33:34Z,317950.28,NULL,NA,NA,NA,NA,NA,NA,NA,NA,NA,NA,NA,NA,NA,NA,NA,NA,NA,NA,NA,NA,NA,NA,NA,NA,NA,NA,NA,NA,NA
14c1c,Deep Question,html.Page,3_0_0_0_0_0_0,NA,NA,form submission,8835.72,317950,317949.84,317950.28,326786,326786,2024-06-22T12:33:43Z,326784.88,NULL,Vorwurf,mashtaka,d,NA,NA,NA,fhzdgtr,NA,NA,0,NA,NA,NA,NA,NA,NA,NA,NA,NA,NA,NA,NA,NA,NA,NA,NA,NA,NA,NA
14c1c,"""Richtig""-Screen",canvas.Screen,3_0_0_0_0_0_1,NA,NA,skipped,NA,326787,NA,NA,326786,326787,2024-06-22T12:33:43Z,326784.88,NULL,Vorwurf,mashtaka,d,NA,NA,NA,NA,sdf,NA,0,NA,NA,NA,NA,NA,NA,NA,NA,NA,NA,NA,NA,NA,NA,NA,NA,NA,NA,NA
14c1c,"""Falsch""-Screen",canvas.Screen,3_0_0_0_0_0_2,NA,NA,timeout,5002.48,326789,326784.54,326784.88,331770.66,331773,2024-06-22T12:33:48Z,331787.36,NULL,Vorwurf,mashtaka,d,NA,NA,NA,NA,sdf,0,0,NA,NA,NA,NA,NA,NA,NA,NA,NA,NA,NA,NA,NA,NA,NA,NA,NA,NA,NA
14c1c,deep,flow.Sequence,3_0_0_0_0_0,NA,NA,completion,13820.38,317950,317949.84,317950.28,331770.66,331773,2024-06-22T12:33:48Z,331787.36,NULL,Vorwurf,mashtaka,d,NA,NA,NA,NA,sdf,NA,0,NA,NA,NA,NA,NA,NA,NA,NA,NA,NA,NA,NA,NA,NA,NA,NA,NA,NA,NA
14c1c,shallow,flow.Sequence,3_0_0_0_0_1,NA,NA,skipped,NA,331773,NA,NA,331770.66,331774,2024-06-22T12:33:48Z,331787.36,NULL,Vorwurf,mashtaka,d,NA,NA,NA,NA,sdf,NA,0,NA,NA,NA,NA,NA,NA,NA,NA,NA,NA,NA,NA,NA,NA,NA,NA,NA,NA,NA
14c1c,task,flow.Sequence,3_0_0_0_0,NA,NA,completion,13820.38,317950,317949.84,317950.28,331770.66,331774,2024-06-22T12:33:48Z,331787.36,NULL,Vorwurf,mashtaka,d,NA,NA,NA,NA,sdf,NA,0,NA,NA,NA,NA,NA,NA,NA,NA,NA,NA,NA,NA,NA,NA,NA,NA,NA,NA,NA
14c1c,Deep Question,html.Page,3_0_0_0_1_0_0,NA,NA,form submission,2795.64,331774,331770.66,331787.36,334583,334583,2024-06-22T12:33:51Z,334589.64,NULL,Spionage,upelelezi,d,NA,NA,NA,vhgdt,NA,NA,0,NA,NA,NA,NA,NA,NA,NA,NA,NA,NA,NA,NA,NA,NA,NA,NA,NA,NA,NA
14c1c,"""Richtig""-Screen",canvas.Screen,3_0_0_0_1_0_1,NA,NA,skipped,NA,334585,NA,NA,334583,334585,2024-06-22T12:33:51Z,334589.64,NULL,Spionage,upelelezi,d,NA,NA,NA,NA,sdf,NA,0,NA,NA,NA,NA,NA,NA,NA,NA,NA,NA,NA,NA,NA,NA,NA,NA,NA,NA,NA
14c1c,"""Falsch""-Screen",canvas.Screen,3_0_0_0_1_0_2,NA,NA,timeout,5004.16,334586,334581.82,334589.64,339577.24,339578,2024-06-22T12:33:56Z,339593.8,NULL,Spionage,upelelezi,d,NA,NA,NA,NA,sdf,0,0,NA,NA,NA,NA,NA,NA,NA,NA,NA,NA,NA,NA,NA,NA,NA,NA,NA,NA,NA
14c1c,deep,flow.Sequence,3_0_0_0_1_0,NA,NA,completion,7789.88,331774,331770.66,331787.36,339577.24,339579,2024-06-22T12:33:56Z,339593.8,NULL,Spionage,upelelezi,d,NA,NA,NA,NA,sdf,NA,0,NA,NA,NA,NA,NA,NA,NA,NA,NA,NA,NA,NA,NA,NA,NA,NA,NA,NA,NA
14c1c,shallow,flow.Sequence,3_0_0_0_1_1,NA,NA,skipped,NA,339579,NA,NA,339577.24,339579,2024-06-22T12:33:56Z,339593.8,NULL,Spionage,upelelezi,d,NA,NA,NA,NA,sdf,NA,0,NA,NA,NA,NA,NA,NA,NA,NA,NA,NA,NA,NA,NA,NA,NA,NA,NA,NA,NA
14c1c,task,flow.Sequence,3_0_0_0_1,NA,NA,completion,7789.88,331774,331770.66,331787.36,339577.24,339579,2024-06-22T12:33:56Z,339593.8,NULL,Spionage,upelelezi,d,NA,NA,NA,NA,sdf,NA,0,NA,NA,NA,NA,NA,NA,NA,NA,NA,NA,NA,NA,NA,NA,NA,NA,NA,NA,NA
14c1c,deep,flow.Sequence,3_0_0_0_2_0,NA,NA,skipped,NA,339579,NA,NA,339577.24,339579,2024-06-22T12:33:56Z,339593.8,NULL,Tester,wanaojaribu,s,sherti,sihiri,mlipuko,NA,sdf,NA,0,NA,NA,NA,NA,NA,NA,NA,NA,NA,NA,NA,NA,NA,NA,NA,NA,NA,NA,NA
14c1c,Shallow Question,html.Page,3_0_0_0_2_1_0,NA,NA,form submission,3780.2,339579,339577.24,339593.8,343374,343374,2024-06-22T12:34:00Z,343380.32,NULL,Tester,wanaojaribu,s,sherti,sihiri,mlipuko,sherti,NA,NA,0,NA,NA,NA,NA,NA,NA,NA,NA,NA,NA,NA,NA,NA,NA,NA,NA,NA,NA,NA
14c1c,"""Richtig""-Screen",canvas.Screen,3_0_0_0_2_1_1,NA,NA,skipped,NA,343376,NA,NA,343374,343377,2024-06-22T12:34:00Z,343380.32,NULL,Tester,wanaojaribu,s,sherti,sihiri,mlipuko,NA,sdf,NA,0,NA,NA,NA,NA,NA,NA,NA,NA,NA,NA,NA,NA,NA,NA,NA,NA,NA,NA,NA
14c1c,"""Falsch""-Screen",canvas.Screen,3_0_0_0_2_1_2,NA,NA,timeout,5004.16,343378,343371.12,343380.32,348367.78,348371,2024-06-22T12:34:05Z,348384.48,NULL,Tester,wanaojaribu,s,sherti,sihiri,mlipuko,NA,sdf,0,0,NA,NA,NA,NA,NA,NA,NA,NA,NA,NA,NA,NA,NA,NA,NA,NA,NA,NA,NA
14c1c,shallow,flow.Sequence,3_0_0_0_2_1,NA,NA,completion,8773.98,339579,339577.24,339593.8,348367.78,348373,2024-06-22T12:34:05Z,348384.48,NULL,Tester,wanaojaribu,s,sherti,sihiri,mlipuko,NA,sdf,NA,0,NA,NA,NA,NA,NA,NA,NA,NA,NA,NA,NA,NA,NA,NA,NA,NA,NA,NA,NA
14c1c,task,flow.Sequence,3_0_0_0_2,NA,NA,completion,8773.98,339579,339577.24,339593.8,348367.78,348373,2024-06-22T12:34:05Z,348384.48,NULL,Tester,wanaojaribu,s,sherti,sihiri,mlipuko,NA,sdf,NA,0,NA,NA,NA,NA,NA,NA,NA,NA,NA,NA,NA,NA,NA,NA,NA,NA,NA,NA,NA
14c1c,Deep Question,html.Page,3_0_0_0_3_0_0,NA,NA,form submission,3866.52,348374,348367.78,348384.48,352251,352251,2024-06-22T12:34:08Z,352254.26,NULL,Fenster,dirisha,d,NA,NA,NA,jghzfg,NA,NA,0,NA,NA,NA,NA,NA,NA,NA,NA,NA,NA,NA,NA,NA,NA,NA,NA,NA,NA,NA
14c1c,"""Richtig""-Screen",canvas.Screen,3_0_0_0_3_0_1,NA,NA,skipped,NA,352257,NA,NA,352251,352258,2024-06-22T12:34:08Z,352254.26,NULL,Fenster,dirisha,d,NA,NA,NA,NA,sdf,NA,0,NA,NA,NA,NA,NA,NA,NA,NA,NA,NA,NA,NA,NA,NA,NA,NA,NA,NA,NA
14c1c,"""Falsch""-Screen",canvas.Screen,3_0_0_0_3_0_2,NA,NA,timeout,5004.26,352259,352249.34,352254.26,357241.86,357243,2024-06-22T12:34:13Z,357258.52,NULL,Fenster,dirisha,d,NA,NA,NA,NA,sdf,0,0,NA,NA,NA,NA,NA,NA,NA,NA,NA,NA,NA,NA,NA,NA,NA,NA,NA,NA,NA
14c1c,deep,flow.Sequence,3_0_0_0_3_0,NA,NA,completion,8857.38,348374,348367.78,348384.48,357241.86,357244,2024-06-22T12:34:13Z,357258.52,NULL,Fenster,dirisha,d,NA,NA,NA,NA,sdf,NA,0,NA,NA,NA,NA,NA,NA,NA,NA,NA,NA,NA,NA,NA,NA,NA,NA,NA,NA,NA
14c1c,shallow,flow.Sequence,3_0_0_0_3_1,NA,NA,skipped,NA,357244,NA,NA,357241.86,357244,2024-06-22T12:34:13Z,357258.52,NULL,Fenster,dirisha,d,NA,NA,NA,NA,sdf,NA,0,NA,NA,NA,NA,NA,NA,NA,NA,NA,NA,NA,NA,NA,NA,NA,NA,NA,NA,NA
14c1c,task,flow.Sequence,3_0_0_0_3,NA,NA,completion,8857.38,348374,348367.78,348384.48,357241.86,357244,2024-06-22T12:34:13Z,357258.52,NULL,Fenster,dirisha,d,NA,NA,NA,NA,sdf,NA,0,NA,NA,NA,NA,NA,NA,NA,NA,NA,NA,NA,NA,NA,NA,NA,NA,NA,NA,NA
14c1c,deep,flow.Sequence,3_0_0_0_4_0,NA,NA,skipped,NA,357245,NA,NA,357241.86,357245,2024-06-22T12:34:13Z,357258.52,NULL,Papier,karatasi,s,uchambuzi,usalama,kukataliwa,NA,sdf,NA,0,NA,NA,NA,NA,NA,NA,NA,NA,NA,NA,NA,NA,NA,NA,NA,NA,NA,NA,NA
14c1c,Shallow Question,html.Page,3_0_0_0_4_1_0,NA,NA,form submission,3804.48,357245,357241.86,357258.52,361063,361063,2024-06-22T12:34:17Z,361078.28,NULL,Papier,karatasi,s,uchambuzi,usalama,kukataliwa,karatasi,NA,NA,0,NA,NA,NA,NA,NA,NA,NA,NA,NA,NA,NA,NA,NA,NA,NA,NA,NA,NA,NA
14c1c,"""Richtig""-Screen",canvas.Screen,3_0_0_0_4_1_1,NA,NA,timeout,5004.16,361065,361061.58,361078.28,366065.84,366067,2024-06-22T12:34:22Z,366082.44,NULL,Papier,karatasi,s,uchambuzi,usalama,kukataliwa,NA,sdf,1,0,NA,NA,NA,NA,NA,NA,NA,NA,NA,NA,NA,NA,NA,NA,NA,NA,NA,NA,NA
14c1c,"""Falsch""-Screen",canvas.Screen,3_0_0_0_4_1_2,NA,NA,skipped,NA,366070,NA,NA,366065.84,366070,2024-06-22T12:34:22Z,366082.44,NULL,Papier,karatasi,s,uchambuzi,usalama,kukataliwa,NA,sdf,NA,0,NA,NA,NA,NA,NA,NA,NA,NA,NA,NA,NA,NA,NA,NA,NA,NA,NA,NA,NA
14c1c,shallow,flow.Sequence,3_0_0_0_4_1,NA,NA,completion,8807.32,357245,357241.86,357258.52,366065.84,366070,2024-06-22T12:34:22Z,366082.44,NULL,Papier,karatasi,s,uchambuzi,usalama,kukataliwa,NA,sdf,NA,0,NA,NA,NA,NA,NA,NA,NA,NA,NA,NA,NA,NA,NA,NA,NA,NA,NA,NA,NA
14c1c,task,flow.Sequence,3_0_0_0_4,NA,NA,completion,8807.32,357245,357241.86,357258.52,366065.84,366070,2024-06-22T12:34:22Z,366082.44,NULL,Papier,karatasi,s,uchambuzi,usalama,kukataliwa,NA,sdf,NA,0,NA,NA,NA,NA,NA,NA,NA,NA,NA,NA,NA,NA,NA,NA,NA,NA,NA,NA,NA
14c1c,Deep Question,html.Page,3_0_0_0_5_0_0,NA,NA,form submission,5255.56,366070,366065.84,366082.44,371338,371338,2024-06-22T12:34:28Z,371336.96,NULL,Entwicklung,maendeleo,d,NA,NA,NA,upelelezi,NA,NA,0,NA,NA,NA,NA,NA,NA,NA,NA,NA,NA,NA,NA,NA,NA,NA,NA,NA,NA,NA
14c1c,"""Richtig""-Screen",canvas.Screen,3_0_0_0_5_0_1,NA,NA,skipped,NA,371340,NA,NA,371338,371340,2024-06-22T12:34:28Z,371336.96,NULL,Entwicklung,maendeleo,d,NA,NA,NA,NA,sdf,NA,0,NA,NA,NA,NA,NA,NA,NA,NA,NA,NA,NA,NA,NA,NA,NA,NA,NA,NA,NA
14c1c,"""Falsch""-Screen",canvas.Screen,3_0_0_0_5_0_2,NA,NA,timeout,5004.12,371341,371336.66,371336.96,376324.38,376326,2024-06-22T12:34:32Z,376341.08,NULL,Entwicklung,maendeleo,d,NA,NA,NA,NA,sdf,0,0,NA,NA,NA,NA,NA,NA,NA,NA,NA,NA,NA,NA,NA,NA,NA,NA,NA,NA,NA
14c1c,deep,flow.Sequence,3_0_0_0_5_0,NA,NA,completion,10241.94,366070,366065.84,366082.44,376324.38,376326,2024-06-22T12:34:32Z,376341.08,NULL,Entwicklung,maendeleo,d,NA,NA,NA,NA,sdf,NA,0,NA,NA,NA,NA,NA,NA,NA,NA,NA,NA,NA,NA,NA,NA,NA,NA,NA,NA,NA
14c1c,shallow,flow.Sequence,3_0_0_0_5_1,NA,NA,skipped,NA,376326,NA,NA,376324.38,376326,2024-06-22T12:34:32Z,376341.08,NULL,Entwicklung,maendeleo,d,NA,NA,NA,NA,sdf,NA,0,NA,NA,NA,NA,NA,NA,NA,NA,NA,NA,NA,NA,NA,NA,NA,NA,NA,NA,NA
14c1c,task,flow.Sequence,3_0_0_0_5,NA,NA,completion,10241.94,366070,366065.84,366082.44,376324.38,376326,2024-06-22T12:34:32Z,376341.08,NULL,Entwicklung,maendeleo,d,NA,NA,NA,NA,sdf,NA,0,NA,NA,NA,NA,NA,NA,NA,NA,NA,NA,NA,NA,NA,NA,NA,NA,NA,NA,NA
14c1c,deep,flow.Sequence,3_0_0_0_6_0,NA,NA,skipped,NA,376327,NA,NA,376324.38,376327,2024-06-22T12:34:32Z,376341.08,NULL,Schüler,mwanafunzi,s,mwekezaji,matumizi,uaminifu,NA,sdf,NA,0,NA,NA,NA,NA,NA,NA,NA,NA,NA,NA,NA,NA,NA,NA,NA,NA,NA,NA,NA
14c1c,Shallow Question,html.Page,3_0_0_0_6_1_0,NA,NA,form submission,6627.92,376327,376324.38,376341.08,382969,382969,2024-06-22T12:34:39Z,382979.84,NULL,Schüler,mwanafunzi,s,mwekezaji,matumizi,uaminifu,uaminifu,NA,NA,0,NA,NA,NA,NA,NA,NA,NA,NA,NA,NA,NA,NA,NA,NA,NA,NA,NA,NA,NA
14c1c,"""Richtig""-Screen",canvas.Screen,3_0_0_0_6_1_1,NA,NA,skipped,NA,382970,NA,NA,382969,382971,2024-06-22T12:34:39Z,382979.84,NULL,Schüler,mwanafunzi,s,mwekezaji,matumizi,uaminifu,NA,sdf,NA,0,NA,NA,NA,NA,NA,NA,NA,NA,NA,NA,NA,NA,NA,NA,NA,NA,NA,NA,NA
14c1c,"""Falsch""-Screen",canvas.Screen,3_0_0_0_6_1_2,NA,NA,timeout,5004.1,382972,382965.38,382979.84,387967.24,387968,2024-06-22T12:34:44Z,387983.94,NULL,Schüler,mwanafunzi,s,mwekezaji,matumizi,uaminifu,NA,sdf,0,0,NA,NA,NA,NA,NA,NA,NA,NA,NA,NA,NA,NA,NA,NA,NA,NA,NA,NA,NA
14c1c,shallow,flow.Sequence,3_0_0_0_6_1,NA,NA,completion,11626.16,376327,376324.38,376341.08,387967.24,387968,2024-06-22T12:34:44Z,387983.94,NULL,Schüler,mwanafunzi,s,mwekezaji,matumizi,uaminifu,NA,sdf,NA,0,NA,NA,NA,NA,NA,NA,NA,NA,NA,NA,NA,NA,NA,NA,NA,NA,NA,NA,NA
14c1c,task,flow.Sequence,3_0_0_0_6,NA,NA,completion,11626.16,376326,376324.38,376341.08,387967.24,387969,2024-06-22T12:34:44Z,387983.94,NULL,Schüler,mwanafunzi,s,mwekezaji,matumizi,uaminifu,NA,sdf,NA,0,NA,NA,NA,NA,NA,NA,NA,NA,NA,NA,NA,NA,NA,NA,NA,NA,NA,NA,NA
14c1c,deep,flow.Sequence,3_0_0_0_7_0,NA,NA,skipped,NA,387969,NA,NA,387967.24,387969,2024-06-22T12:34:44Z,387983.94,NULL,Niveau,kiwango,s,usimamizi,mwamali,mshairi,NA,sdf,NA,0,NA,NA,NA,NA,NA,NA,NA,NA,NA,NA,NA,NA,NA,NA,NA,NA,NA,NA,NA
14c1c,Shallow Question,html.Page,3_0_0_0_7_1_0,NA,NA,form submission,3811.06,387969,387967.24,387983.94,391795,391795,2024-06-22T12:34:48Z,391803.8,NULL,Niveau,kiwango,s,usimamizi,mwamali,mshairi,kiwango,NA,NA,0,NA,NA,NA,NA,NA,NA,NA,NA,NA,NA,NA,NA,NA,NA,NA,NA,NA,NA,NA
14c1c,"""Richtig""-Screen",canvas.Screen,3_0_0_0_7_1_1,NA,NA,timeout,5004.12,391797,391791.3,391803.8,396791.22,396793,2024-06-22T12:34:53Z,396807.92,NULL,Niveau,kiwango,s,usimamizi,mwamali,mshairi,NA,sdf,1,0,NA,NA,NA,NA,NA,NA,NA,NA,NA,NA,NA,NA,NA,NA,NA,NA,NA,NA,NA
14c1c,"""Falsch""-Screen",canvas.Screen,3_0_0_0_7_1_2,NA,NA,skipped,NA,396794,NA,NA,396791.22,396794,2024-06-22T12:34:53Z,396807.92,NULL,Niveau,kiwango,s,usimamizi,mwamali,mshairi,NA,sdf,NA,0,NA,NA,NA,NA,NA,NA,NA,NA,NA,NA,NA,NA,NA,NA,NA,NA,NA,NA,NA
14c1c,shallow,flow.Sequence,3_0_0_0_7_1,NA,NA,completion,8807.28,387969,387967.24,387983.94,396791.22,396795,2024-06-22T12:34:53Z,396807.92,NULL,Niveau,kiwango,s,usimamizi,mwamali,mshairi,NA,sdf,NA,0,NA,NA,NA,NA,NA,NA,NA,NA,NA,NA,NA,NA,NA,NA,NA,NA,NA,NA,NA
14c1c,task,flow.Sequence,3_0_0_0_7,NA,NA,completion,8807.28,387969,387967.24,387983.94,396791.22,396795,2024-06-22T12:34:53Z,396807.92,NULL,Niveau,kiwango,s,usimamizi,mwamali,mshairi,NA,sdf,NA,0,NA,NA,NA,NA,NA,NA,NA,NA,NA,NA,NA,NA,NA,NA,NA,NA,NA,NA,NA
14c1c,block,flow.Loop,3_0_0_0,NA,NA,completion,78840.94,317950,317949.84,317950.28,396791.22,396795,2024-06-22T12:34:53Z,396807.92,NULL,NA,NA,NA,NA,NA,NA,NA,sdf,NA,0,NA,NA,NA,NA,NA,NA,NA,NA,NA,NA,NA,NA,NA,NA,NA,NA,NA,NA,NA
14c1c,weiter,canvas.Screen,3_0_0_1,sdf,keypress(Space),response,11533.08,396795,396791.22,396807.92,408341,408348,2024-06-22T12:35:05Z,408409.64,NULL,NA,NA,NA,NA,NA,NA,NA,sdf,NA,0,NA,NA,NA,NA,NA,NA,NA,NA,NA,NA,NA,NA,NA,NA,NA,NA,NA,NA,NA
14c1c,check continue,flow.Sequence,3_0_0,NA,NA,completion,90390.72,317950,317949.84,317950.28,408341,408350,2024-06-22T12:35:05Z,408409.64,NULL,NA,NA,NA,NA,NA,NA,NA,sdf,NA,0,NA,NA,NA,NA,NA,NA,NA,NA,NA,NA,NA,NA,NA,NA,NA,NA,NA,NA,NA
14c1c,Deep Question,html.Page,3_0_1_0_0_0_0,NA,NA,form submission,5275.36,408409,408409.18,408409.64,413685,413687,2024-06-22T12:35:10Z,413688.42,NULL,Fenster,dirisha,d,NA,NA,NA,upelelezi,NA,NA,1,NA,NA,NA,NA,NA,NA,NA,NA,NA,NA,NA,NA,NA,NA,NA,NA,NA,NA,NA
14c1c,"""Richtig""-Screen",canvas.Screen,3_0_1_0_0_0_1,NA,NA,skipped,NA,413694,NA,NA,413685,413694,2024-06-22T12:35:10Z,413688.42,NULL,Fenster,dirisha,d,NA,NA,NA,NA,sdfdsf,NA,1,NA,NA,NA,NA,NA,NA,NA,NA,NA,NA,NA,NA,NA,NA,NA,NA,NA,NA,NA
14c1c,"""Falsch""-Screen",canvas.Screen,3_0_1_0_0_0_2,NA,NA,timeout,5004.2,413696,413684,413688.42,418675.94,418678,2024-06-22T12:35:15Z,418692.62,NULL,Fenster,dirisha,d,NA,NA,NA,NA,sdfdsf,0,1,NA,NA,NA,NA,NA,NA,NA,NA,NA,NA,NA,NA,NA,NA,NA,NA,NA,NA,NA
14c1c,deep,flow.Sequence,3_0_1_0_0_0,NA,NA,completion,10266.3,408409,408409.18,408409.64,418675.94,418678,2024-06-22T12:35:15Z,418692.62,NULL,Fenster,dirisha,d,NA,NA,NA,NA,sdfdsf,NA,1,NA,NA,NA,NA,NA,NA,NA,NA,NA,NA,NA,NA,NA,NA,NA,NA,NA,NA,NA
14c1c,shallow,flow.Sequence,3_0_1_0_0_1,NA,NA,skipped,NA,418678,NA,NA,418675.94,418679,2024-06-22T12:35:15Z,418692.62,NULL,Fenster,dirisha,d,NA,NA,NA,NA,sdfdsf,NA,1,NA,NA,NA,NA,NA,NA,NA,NA,NA,NA,NA,NA,NA,NA,NA,NA,NA,NA,NA
14c1c,task,flow.Sequence,3_0_1_0_0,NA,NA,completion,10266.3,408409,408409.18,408409.64,418675.94,418679,2024-06-22T12:35:15Z,418692.62,NULL,Fenster,dirisha,d,NA,NA,NA,NA,sdfdsf,NA,1,NA,NA,NA,NA,NA,NA,NA,NA,NA,NA,NA,NA,NA,NA,NA,NA,NA,NA,NA
14c1c,Deep Question,html.Page,3_0_1_0_1_0_0,NA,NA,form submission,6077.38,418679,418675.94,418692.62,424770,424770,2024-06-22T12:35:21Z,424769.44,NULL,Vorwurf,mashtaka,d,NA,NA,NA,upelelezi,NA,NA,1,NA,NA,NA,NA,NA,NA,NA,NA,NA,NA,NA,NA,NA,NA,NA,NA,NA,NA,NA
14c1c,"""Richtig""-Screen",canvas.Screen,3_0_1_0_1_0_1,NA,NA,skipped,NA,424773,NA,NA,424770,424773,2024-06-22T12:35:21Z,424769.44,NULL,Vorwurf,mashtaka,d,NA,NA,NA,NA,sdfdsf,NA,1,NA,NA,NA,NA,NA,NA,NA,NA,NA,NA,NA,NA,NA,NA,NA,NA,NA,NA,NA
14c1c,"""Falsch""-Screen",canvas.Screen,3_0_1_0_1_0_2,NA,NA,timeout,4998.9,424774,424769.04,424769.44,429751.66,429754,2024-06-22T12:35:26Z,429768.34,NULL,Vorwurf,mashtaka,d,NA,NA,NA,NA,sdfdsf,0,1,NA,NA,NA,NA,NA,NA,NA,NA,NA,NA,NA,NA,NA,NA,NA,NA,NA,NA,NA
14c1c,deep,flow.Sequence,3_0_1_0_1_0,NA,NA,completion,11059.04,418679,418675.94,418692.62,429751.66,429754,2024-06-22T12:35:26Z,429768.34,NULL,Vorwurf,mashtaka,d,NA,NA,NA,NA,sdfdsf,NA,1,NA,NA,NA,NA,NA,NA,NA,NA,NA,NA,NA,NA,NA,NA,NA,NA,NA,NA,NA
14c1c,shallow,flow.Sequence,3_0_1_0_1_1,NA,NA,skipped,NA,429754,NA,NA,429751.66,429754,2024-06-22T12:35:26Z,429768.34,NULL,Vorwurf,mashtaka,d,NA,NA,NA,NA,sdfdsf,NA,1,NA,NA,NA,NA,NA,NA,NA,NA,NA,NA,NA,NA,NA,NA,NA,NA,NA,NA,NA
14c1c,task,flow.Sequence,3_0_1_0_1,NA,NA,completion,11059.04,418679,418675.94,418692.62,429751.66,429755,2024-06-22T12:35:26Z,429768.34,NULL,Vorwurf,mashtaka,d,NA,NA,NA,NA,sdfdsf,NA,1,NA,NA,NA,NA,NA,NA,NA,NA,NA,NA,NA,NA,NA,NA,NA,NA,NA,NA,NA
14c1c,deep,flow.Sequence,3_0_1_0_2_0,NA,NA,skipped,NA,429755,NA,NA,429751.66,429755,2024-06-22T12:35:26Z,429768.34,NULL,Schüler,mwanafunzi,s,mwekezaji,matumizi,uaminifu,NA,sdfdsf,NA,1,NA,NA,NA,NA,NA,NA,NA,NA,NA,NA,NA,NA,NA,NA,NA,NA,NA,NA,NA
14c1c,Shallow Question,html.Page,3_0_1_0_2_1_0,NA,NA,form submission,5692.66,429755,429751.66,429768.34,435461,435461,2024-06-22T12:35:32Z,435473.18,NULL,Schüler,mwanafunzi,s,mwekezaji,matumizi,uaminifu,mwanafunzi,NA,NA,1,NA,NA,NA,NA,NA,NA,NA,NA,NA,NA,NA,NA,NA,NA,NA,NA,NA,NA,NA
14c1c,"""Richtig""-Screen",canvas.Screen,3_0_1_0_2_1_1,NA,NA,timeout,5004.18,435463,435457.12,435473.18,440460.66,440462,2024-06-22T12:35:37Z,440477.36,NULL,Schüler,mwanafunzi,s,mwekezaji,matumizi,uaminifu,NA,sdfdsf,1,1,NA,NA,NA,NA,NA,NA,NA,NA,NA,NA,NA,NA,NA,NA,NA,NA,NA,NA,NA
14c1c,"""Falsch""-Screen",canvas.Screen,3_0_1_0_2_1_2,NA,NA,skipped,NA,440465,NA,NA,440460.66,440465,2024-06-22T12:35:37Z,440477.36,NULL,Schüler,mwanafunzi,s,mwekezaji,matumizi,uaminifu,NA,sdfdsf,NA,1,NA,NA,NA,NA,NA,NA,NA,NA,NA,NA,NA,NA,NA,NA,NA,NA,NA,NA,NA
14c1c,shallow,flow.Sequence,3_0_1_0_2_1,NA,NA,completion,10692.32,429755,429751.66,429768.34,440460.66,440465,2024-06-22T12:35:37Z,440477.36,NULL,Schüler,mwanafunzi,s,mwekezaji,matumizi,uaminifu,NA,sdfdsf,NA,1,NA,NA,NA,NA,NA,NA,NA,NA,NA,NA,NA,NA,NA,NA,NA,NA,NA,NA,NA
14c1c,task,flow.Sequence,3_0_1_0_2,NA,NA,completion,10692.32,429755,429751.66,429768.34,440460.66,440465,2024-06-22T12:35:37Z,440477.36,NULL,Schüler,mwanafunzi,s,mwekezaji,matumizi,uaminifu,NA,sdfdsf,NA,1,NA,NA,NA,NA,NA,NA,NA,NA,NA,NA,NA,NA,NA,NA,NA,NA,NA,NA,NA
14c1c,deep,flow.Sequence,3_0_1_0_3_0,NA,NA,skipped,NA,440465,NA,NA,440460.66,440466,2024-06-22T12:35:37Z,440477.36,NULL,Papier,karatasi,s,uchambuzi,usalama,kukataliwa,NA,sdfdsf,NA,1,NA,NA,NA,NA,NA,NA,NA,NA,NA,NA,NA,NA,NA,NA,NA,NA,NA,NA,NA
14c1c,Shallow Question,html.Page,3_0_1_0_3_1_0,NA,NA,form submission,6210.64,440466,440460.66,440477.36,446688,446689,2024-06-22T12:35:43Z,446699.1,NULL,Papier,karatasi,s,uchambuzi,usalama,kukataliwa,karatasi,NA,NA,1,NA,NA,NA,NA,NA,NA,NA,NA,NA,NA,NA,NA,NA,NA,NA,NA,NA,NA,NA
14c1c,"""Richtig""-Screen",canvas.Screen,3_0_1_0_3_1_1,NA,NA,timeout,5004.14,446690,446684.88,446699.1,451686.54,451687,2024-06-22T12:35:48Z,451703.24,NULL,Papier,karatasi,s,uchambuzi,usalama,kukataliwa,NA,sdfdsf,1,1,NA,NA,NA,NA,NA,NA,NA,NA,NA,NA,NA,NA,NA,NA,NA,NA,NA,NA,NA
14c1c,"""Falsch""-Screen",canvas.Screen,3_0_1_0_3_1_2,NA,NA,skipped,NA,451690,NA,NA,451686.54,451690,2024-06-22T12:35:48Z,451703.24,NULL,Papier,karatasi,s,uchambuzi,usalama,kukataliwa,NA,sdfdsf,NA,1,NA,NA,NA,NA,NA,NA,NA,NA,NA,NA,NA,NA,NA,NA,NA,NA,NA,NA,NA
14c1c,shallow,flow.Sequence,3_0_1_0_3_1,NA,NA,completion,11209.18,440466,440460.66,440477.36,451686.54,451691,2024-06-22T12:35:48Z,451703.24,NULL,Papier,karatasi,s,uchambuzi,usalama,kukataliwa,NA,sdfdsf,NA,1,NA,NA,NA,NA,NA,NA,NA,NA,NA,NA,NA,NA,NA,NA,NA,NA,NA,NA,NA
14c1c,task,flow.Sequence,3_0_1_0_3,NA,NA,completion,11209.18,440465,440460.66,440477.36,451686.54,451691,2024-06-22T12:35:48Z,451703.24,NULL,Papier,karatasi,s,uchambuzi,usalama,kukataliwa,NA,sdfdsf,NA,1,NA,NA,NA,NA,NA,NA,NA,NA,NA,NA,NA,NA,NA,NA,NA,NA,NA,NA,NA
14c1c,deep,flow.Sequence,3_0_1_0_4_0,NA,NA,skipped,NA,451691,NA,NA,451686.54,451692,2024-06-22T12:35:48Z,451703.24,NULL,Niveau,kiwango,s,usimamizi,mwamali,mshairi,NA,sdfdsf,NA,1,NA,NA,NA,NA,NA,NA,NA,NA,NA,NA,NA,NA,NA,NA,NA,NA,NA,NA,NA
14c1c,Shallow Question,html.Page,3_0_1_0_4_1_0,NA,NA,form submission,5575.76,451692,451686.54,451703.24,457279,457279,2024-06-22T12:35:53Z,457291.24,NULL,Niveau,kiwango,s,usimamizi,mwamali,mshairi,kiwango,NA,NA,1,NA,NA,NA,NA,NA,NA,NA,NA,NA,NA,NA,NA,NA,NA,NA,NA,NA,NA,NA
14c1c,"""Richtig""-Screen",canvas.Screen,3_0_1_0_4_1_1,NA,NA,timeout,5004.2,457281,457275.02,457291.24,462278.74,462280,2024-06-22T12:35:58Z,462295.44,NULL,Niveau,kiwango,s,usimamizi,mwamali,mshairi,NA,sdfdsf,1,1,NA,NA,NA,NA,NA,NA,NA,NA,NA,NA,NA,NA,NA,NA,NA,NA,NA,NA,NA
14c1c,"""Falsch""-Screen",canvas.Screen,3_0_1_0_4_1_2,NA,NA,skipped,NA,462283,NA,NA,462278.74,462283,2024-06-22T12:35:58Z,462295.44,NULL,Niveau,kiwango,s,usimamizi,mwamali,mshairi,NA,sdfdsf,NA,1,NA,NA,NA,NA,NA,NA,NA,NA,NA,NA,NA,NA,NA,NA,NA,NA,NA,NA,NA
14c1c,shallow,flow.Sequence,3_0_1_0_4_1,NA,NA,completion,10575.5,451692,451686.54,451703.24,462278.74,462283,2024-06-22T12:35:58Z,462295.44,NULL,Niveau,kiwango,s,usimamizi,mwamali,mshairi,NA,sdfdsf,NA,1,NA,NA,NA,NA,NA,NA,NA,NA,NA,NA,NA,NA,NA,NA,NA,NA,NA,NA,NA
14c1c,task,flow.Sequence,3_0_1_0_4,NA,NA,completion,10575.5,451691,451686.54,451703.24,462278.74,462283,2024-06-22T12:35:58Z,462295.44,NULL,Niveau,kiwango,s,usimamizi,mwamali,mshairi,NA,sdfdsf,NA,1,NA,NA,NA,NA,NA,NA,NA,NA,NA,NA,NA,NA,NA,NA,NA,NA,NA,NA,NA
14c1c,deep,flow.Sequence,3_0_1_0_5_0,NA,NA,skipped,NA,462283,NA,NA,462278.74,462283,2024-06-22T12:35:58Z,462295.44,NULL,Tester,wanaojaribu,s,sherti,sihiri,mlipuko,NA,sdfdsf,NA,1,NA,NA,NA,NA,NA,NA,NA,NA,NA,NA,NA,NA,NA,NA,NA,NA,NA,NA,NA
14c1c,Shallow Question,html.Page,3_0_1_0_5_1_0,NA,NA,form submission,5191.56,462283,462278.74,462295.44,467487,467487,2024-06-22T12:36:04Z,467499.7,NULL,Tester,wanaojaribu,s,sherti,sihiri,mlipuko,wanaojaribu,NA,NA,1,NA,NA,NA,NA,NA,NA,NA,NA,NA,NA,NA,NA,NA,NA,NA,NA,NA,NA,NA
14c1c,"""Richtig""-Screen",canvas.Screen,3_0_1_0_5_1_1,NA,NA,timeout,5004.18,467490,467484.22,467499.7,472487.18,472488,2024-06-22T12:36:09Z,472503.88,NULL,Tester,wanaojaribu,s,sherti,sihiri,mlipuko,NA,sdfdsf,1,1,NA,NA,NA,NA,NA,NA,NA,NA,NA,NA,NA,NA,NA,NA,NA,NA,NA,NA,NA
14c1c,"""Falsch""-Screen",canvas.Screen,3_0_1_0_5_1_2,NA,NA,skipped,NA,472491,NA,NA,472487.18,472491,2024-06-22T12:36:09Z,472503.88,NULL,Tester,wanaojaribu,s,sherti,sihiri,mlipuko,NA,sdfdsf,NA,1,NA,NA,NA,NA,NA,NA,NA,NA,NA,NA,NA,NA,NA,NA,NA,NA,NA,NA,NA
14c1c,shallow,flow.Sequence,3_0_1_0_5_1,NA,NA,completion,10191.74,462283,462278.74,462295.44,472487.18,472491,2024-06-22T12:36:09Z,472503.88,NULL,Tester,wanaojaribu,s,sherti,sihiri,mlipuko,NA,sdfdsf,NA,1,NA,NA,NA,NA,NA,NA,NA,NA,NA,NA,NA,NA,NA,NA,NA,NA,NA,NA,NA
14c1c,task,flow.Sequence,3_0_1_0_5,NA,NA,completion,10191.74,462283,462278.74,462295.44,472487.18,472491,2024-06-22T12:36:09Z,472503.88,NULL,Tester,wanaojaribu,s,sherti,sihiri,mlipuko,NA,sdfdsf,NA,1,NA,NA,NA,NA,NA,NA,NA,NA,NA,NA,NA,NA,NA,NA,NA,NA,NA,NA,NA
14c1c,Deep Question,html.Page,3_0_1_0_6_0_0,NA,NA,form submission,6740.12,472491,472487.18,472503.88,479244,479245,2024-06-22T12:36:15Z,479242.72,NULL,Entwicklung,maendeleo,d,NA,NA,NA,upelelezi,NA,NA,1,NA,NA,NA,NA,NA,NA,NA,NA,NA,NA,NA,NA,NA,NA,NA,NA,NA,NA,NA
14c1c,"""Richtig""-Screen",canvas.Screen,3_0_1_0_6_0_1,NA,NA,skipped,NA,479252,NA,NA,479244,479252,2024-06-22T12:36:15Z,479242.72,NULL,Entwicklung,maendeleo,d,NA,NA,NA,NA,sdfdsf,NA,1,NA,NA,NA,NA,NA,NA,NA,NA,NA,NA,NA,NA,NA,NA,NA,NA,NA,NA,NA
14c1c,"""Falsch""-Screen",canvas.Screen,3_0_1_0_6_0_2,NA,NA,timeout,5004.1800000001,479254,479242.14,479242.72,484230.22,484232,2024-06-22T12:36:20Z,484246.9,NULL,Entwicklung,maendeleo,d,NA,NA,NA,NA,sdfdsf,0,1,NA,NA,NA,NA,NA,NA,NA,NA,NA,NA,NA,NA,NA,NA,NA,NA,NA,NA,NA
14c1c,deep,flow.Sequence,3_0_1_0_6_0,NA,NA,completion,11726.34,472491,472487.18,472503.88,484230.22,484232,2024-06-22T12:36:20Z,484246.9,NULL,Entwicklung,maendeleo,d,NA,NA,NA,NA,sdfdsf,NA,1,NA,NA,NA,NA,NA,NA,NA,NA,NA,NA,NA,NA,NA,NA,NA,NA,NA,NA,NA
14c1c,shallow,flow.Sequence,3_0_1_0_6_1,NA,NA,skipped,NA,484232,NA,NA,484230.22,484233,2024-06-22T12:36:20Z,484246.9,NULL,Entwicklung,maendeleo,d,NA,NA,NA,NA,sdfdsf,NA,1,NA,NA,NA,NA,NA,NA,NA,NA,NA,NA,NA,NA,NA,NA,NA,NA,NA,NA,NA
14c1c,task,flow.Sequence,3_0_1_0_6,NA,NA,completion,11726.34,472491,472487.18,472503.88,484230.22,484233,2024-06-22T12:36:20Z,484246.9,NULL,Entwicklung,maendeleo,d,NA,NA,NA,NA,sdfdsf,NA,1,NA,NA,NA,NA,NA,NA,NA,NA,NA,NA,NA,NA,NA,NA,NA,NA,NA,NA,NA
14c1c,Deep Question,html.Page,3_0_1_0_7_0_0,NA,NA,form submission,6461.1,484233,484230.22,484246.9,490708,490708,2024-06-22T12:36:27Z,490718.86,NULL,Spionage,upelelezi,d,NA,NA,NA,upelelezi,NA,NA,1,NA,NA,NA,NA,NA,NA,NA,NA,NA,NA,NA,NA,NA,NA,NA,NA,NA,NA,NA
14c1c,"""Richtig""-Screen",canvas.Screen,3_0_1_0_7_0_1,NA,NA,timeout,5004.12,490709,490706.2,490718.86,495706.64,495709,2024-06-22T12:36:32Z,495722.98,NULL,Spionage,upelelezi,d,NA,NA,NA,NA,sdfdsf,1,1,NA,NA,NA,NA,NA,NA,NA,NA,NA,NA,NA,NA,NA,NA,NA,NA,NA,NA,NA
14c1c,"""Falsch""-Screen",canvas.Screen,3_0_1_0_7_0_2,NA,NA,skipped,NA,495711,NA,NA,495706.64,495712,2024-06-22T12:36:32Z,495722.98,NULL,Spionage,upelelezi,d,NA,NA,NA,NA,sdfdsf,NA,1,NA,NA,NA,NA,NA,NA,NA,NA,NA,NA,NA,NA,NA,NA,NA,NA,NA,NA,NA
14c1c,deep,flow.Sequence,3_0_1_0_7_0,NA,NA,completion,11459.74,484233,484230.22,484246.9,495706.64,495712,2024-06-22T12:36:32Z,495722.98,NULL,Spionage,upelelezi,d,NA,NA,NA,NA,sdfdsf,NA,1,NA,NA,NA,NA,NA,NA,NA,NA,NA,NA,NA,NA,NA,NA,NA,NA,NA,NA,NA
14c1c,shallow,flow.Sequence,3_0_1_0_7_1,NA,NA,skipped,NA,495712,NA,NA,495706.64,495712,2024-06-22T12:36:32Z,495722.98,NULL,Spionage,upelelezi,d,NA,NA,NA,NA,sdfdsf,NA,1,NA,NA,NA,NA,NA,NA,NA,NA,NA,NA,NA,NA,NA,NA,NA,NA,NA,NA,NA
14c1c,task,flow.Sequence,3_0_1_0_7,NA,NA,completion,11459.74,484233,484230.22,484246.9,495706.64,495713,2024-06-22T12:36:32Z,495722.98,NULL,Spionage,upelelezi,d,NA,NA,NA,NA,sdfdsf,NA,1,NA,NA,NA,NA,NA,NA,NA,NA,NA,NA,NA,NA,NA,NA,NA,NA,NA,NA,NA
14c1c,block,flow.Loop,3_0_1_0,NA,NA,completion,87297,408409,408409.18,408409.64,495706.64,495713,2024-06-22T12:36:32Z,495722.98,NULL,NA,NA,NA,NA,NA,NA,NA,sdfdsf,NA,1,NA,NA,NA,NA,NA,NA,NA,NA,NA,NA,NA,NA,NA,NA,NA,NA,NA,NA,NA
14c1c,weiter,canvas.Screen,3_0_1_1,sdf,keypress(Space),response,900.02000000002,495714,495706.64,495722.98,496623,496639,2024-06-22T12:36:33Z,496687.22,NULL,NA,NA,NA,NA,NA,NA,NA,sdfdsf,NA,1,NA,NA,NA,NA,NA,NA,NA,NA,NA,NA,NA,NA,NA,NA,NA,NA,NA,NA,NA
14c1c,check continue,flow.Sequence,3_0_1,NA,NA,completion,88213.36,408409,408409.18,408409.64,496623,496640,2024-06-22T12:36:33Z,496687.22,NULL,NA,NA,NA,NA,NA,NA,NA,sdfdsf,NA,1,NA,NA,NA,NA,NA,NA,NA,NA,NA,NA,NA,NA,NA,NA,NA,NA,NA,NA,NA
14c1c,Deep Question,html.Page,3_0_2_0_0_0_0,NA,NA,form submission,9961.78,496687,496686.92,496687.22,506649,506649,2024-06-22T12:36:43Z,506648.74,NULL,Spionage,upelelezi,d,NA,NA,NA,upelelezi,NA,NA,2,NA,NA,NA,NA,NA,NA,NA,NA,NA,NA,NA,NA,NA,NA,NA,NA,NA,NA,NA
14c1c,"""Richtig""-Screen",canvas.Screen,3_0_2_0_0_0_1,NA,NA,timeout,5004.22,506652,506648.42,506648.74,511636.26,511638,2024-06-22T12:36:48Z,511652.96,NULL,Spionage,upelelezi,d,NA,NA,NA,NA,sdf,1,2,NA,NA,NA,NA,NA,NA,NA,NA,NA,NA,NA,NA,NA,NA,NA,NA,NA,NA,NA
14c1c,"""Falsch""-Screen",canvas.Screen,3_0_2_0_0_0_2,NA,NA,skipped,NA,511639,NA,NA,511636.26,511640,2024-06-22T12:36:48Z,511652.96,NULL,Spionage,upelelezi,d,NA,NA,NA,NA,sdf,NA,2,NA,NA,NA,NA,NA,NA,NA,NA,NA,NA,NA,NA,NA,NA,NA,NA,NA,NA,NA
14c1c,deep,flow.Sequence,3_0_2_0_0_0,NA,NA,completion,14949.04,496687,496686.92,496687.22,511636.26,511640,2024-06-22T12:36:48Z,511652.96,NULL,Spionage,upelelezi,d,NA,NA,NA,NA,sdf,NA,2,NA,NA,NA,NA,NA,NA,NA,NA,NA,NA,NA,NA,NA,NA,NA,NA,NA,NA,NA
14c1c,shallow,flow.Sequence,3_0_2_0_0_1,NA,NA,skipped,NA,511640,NA,NA,511636.26,511641,2024-06-22T12:36:48Z,511652.96,NULL,Spionage,upelelezi,d,NA,NA,NA,NA,sdf,NA,2,NA,NA,NA,NA,NA,NA,NA,NA,NA,NA,NA,NA,NA,NA,NA,NA,NA,NA,NA
14c1c,task,flow.Sequence,3_0_2_0_0,NA,NA,completion,14949.04,496686,496686.92,496687.22,511636.26,511641,2024-06-22T12:36:48Z,511652.96,NULL,Spionage,upelelezi,d,NA,NA,NA,NA,sdf,NA,2,NA,NA,NA,NA,NA,NA,NA,NA,NA,NA,NA,NA,NA,NA,NA,NA,NA,NA,NA
14c1c,deep,flow.Sequence,3_0_2_0_1_0,NA,NA,skipped,NA,511641,NA,NA,511636.26,511641,2024-06-22T12:36:48Z,511652.96,NULL,Tester,wanaojaribu,s,sherti,sihiri,mlipuko,NA,sdf,NA,2,NA,NA,NA,NA,NA,NA,NA,NA,NA,NA,NA,NA,NA,NA,NA,NA,NA,NA,NA
14c1c,Shallow Question,html.Page,3_0_2_0_1_1_0,NA,NA,form submission,5138.04,511641,511636.26,511652.96,516791,516791,2024-06-22T12:36:53Z,516790.46,NULL,Tester,wanaojaribu,s,sherti,sihiri,mlipuko,wanaojaribu,NA,NA,2,NA,NA,NA,NA,NA,NA,NA,NA,NA,NA,NA,NA,NA,NA,NA,NA,NA,NA,NA
14c1c,"""Richtig""-Screen",canvas.Screen,3_0_2_0_1_1_1,NA,NA,timeout,5004.3,516792,516787.82,516790.46,521778.06,521780,2024-06-22T12:36:58Z,521794.76,NULL,Tester,wanaojaribu,s,sherti,sihiri,mlipuko,NA,sdf,1,2,NA,NA,NA,NA,NA,NA,NA,NA,NA,NA,NA,NA,NA,NA,NA,NA,NA,NA,NA
14c1c,"""Falsch""-Screen",canvas.Screen,3_0_2_0_1_1_2,NA,NA,skipped,NA,521783,NA,NA,521778.06,521783,2024-06-22T12:36:58Z,521794.76,NULL,Tester,wanaojaribu,s,sherti,sihiri,mlipuko,NA,sdf,NA,2,NA,NA,NA,NA,NA,NA,NA,NA,NA,NA,NA,NA,NA,NA,NA,NA,NA,NA,NA
14c1c,shallow,flow.Sequence,3_0_2_0_1_1,NA,NA,completion,10125.1,511641,511636.26,511652.96,521778.06,521783,2024-06-22T12:36:58Z,521794.76,NULL,Tester,wanaojaribu,s,sherti,sihiri,mlipuko,NA,sdf,NA,2,NA,NA,NA,NA,NA,NA,NA,NA,NA,NA,NA,NA,NA,NA,NA,NA,NA,NA,NA
14c1c,task,flow.Sequence,3_0_2_0_1,NA,NA,completion,10125.1,511641,511636.26,511652.96,521778.06,521783,2024-06-22T12:36:58Z,521794.76,NULL,Tester,wanaojaribu,s,sherti,sihiri,mlipuko,NA,sdf,NA,2,NA,NA,NA,NA,NA,NA,NA,NA,NA,NA,NA,NA,NA,NA,NA,NA,NA,NA,NA
14c1c,deep,flow.Sequence,3_0_2_0_2_0,NA,NA,skipped,NA,521783,NA,NA,521778.06,521783,2024-06-22T12:36:58Z,521794.76,NULL,Niveau,kiwango,s,usimamizi,mwamali,mshairi,NA,sdf,NA,2,NA,NA,NA,NA,NA,NA,NA,NA,NA,NA,NA,NA,NA,NA,NA,NA,NA,NA,NA
14c1c,Shallow Question,html.Page,3_0_2_0_2_1_0,NA,NA,form submission,4380.24,521783,521778.06,521794.76,526175,526175,2024-06-22T12:37:02Z,526181.5,NULL,Niveau,kiwango,s,usimamizi,mwamali,mshairi,kiwango,NA,NA,2,NA,NA,NA,NA,NA,NA,NA,NA,NA,NA,NA,NA,NA,NA,NA,NA,NA,NA,NA
14c1c,"""Richtig""-Screen",canvas.Screen,3_0_2_0_2_1_1,NA,NA,timeout,5004.12,526177,526171.12,526181.5,531168.92,531170,2024-06-22T12:37:07Z,531185.62,NULL,Niveau,kiwango,s,usimamizi,mwamali,mshairi,NA,sdf,1,2,NA,NA,NA,NA,NA,NA,NA,NA,NA,NA,NA,NA,NA,NA,NA,NA,NA,NA,NA
14c1c,"""Falsch""-Screen",canvas.Screen,3_0_2_0_2_1_2,NA,NA,skipped,NA,531173,NA,NA,531168.92,531173,2024-06-22T12:37:07Z,531185.62,NULL,Niveau,kiwango,s,usimamizi,mwamali,mshairi,NA,sdf,NA,2,NA,NA,NA,NA,NA,NA,NA,NA,NA,NA,NA,NA,NA,NA,NA,NA,NA,NA,NA
14c1c,shallow,flow.Sequence,3_0_2_0_2_1,NA,NA,completion,9374.16,521783,521778.06,521794.76,531168.92,531173,2024-06-22T12:37:07Z,531185.62,NULL,Niveau,kiwango,s,usimamizi,mwamali,mshairi,NA,sdf,NA,2,NA,NA,NA,NA,NA,NA,NA,NA,NA,NA,NA,NA,NA,NA,NA,NA,NA,NA,NA
14c1c,task,flow.Sequence,3_0_2_0_2,NA,NA,completion,9374.16,521783,521778.06,521794.76,531168.92,531174,2024-06-22T12:37:07Z,531185.62,NULL,Niveau,kiwango,s,usimamizi,mwamali,mshairi,NA,sdf,NA,2,NA,NA,NA,NA,NA,NA,NA,NA,NA,NA,NA,NA,NA,NA,NA,NA,NA,NA,NA
14c1c,Deep Question,html.Page,3_0_2_0_3_0_0,NA,NA,form submission,2985.38,531174,531168.92,531185.62,534171,534171,2024-06-22T12:37:10Z,534171.54,NULL,Vorwurf,mashtaka,d,NA,NA,NA,fjhfjgf,NA,NA,2,NA,NA,NA,NA,NA,NA,NA,NA,NA,NA,NA,NA,NA,NA,NA,NA,NA,NA,NA
14c1c,"""Richtig""-Screen",canvas.Screen,3_0_2_0_3_0_1,NA,NA,skipped,NA,534173,NA,NA,534171,534173,2024-06-22T12:37:10Z,534171.54,NULL,Vorwurf,mashtaka,d,NA,NA,NA,NA,sdf,NA,2,NA,NA,NA,NA,NA,NA,NA,NA,NA,NA,NA,NA,NA,NA,NA,NA,NA,NA,NA
14c1c,"""Falsch""-Screen",canvas.Screen,3_0_2_0_3_0_2,NA,NA,timeout,5003.98,534174,534169.52,534171.54,539159.02,539163,2024-06-22T12:37:15Z,539175.52,NULL,Vorwurf,mashtaka,d,NA,NA,NA,NA,sdf,0,2,NA,NA,NA,NA,NA,NA,NA,NA,NA,NA,NA,NA,NA,NA,NA,NA,NA,NA,NA
14c1c,deep,flow.Sequence,3_0_2_0_3_0,NA,NA,completion,7973.4,531174,531168.92,531185.62,539159.02,539164,2024-06-22T12:37:15Z,539175.52,NULL,Vorwurf,mashtaka,d,NA,NA,NA,NA,sdf,NA,2,NA,NA,NA,NA,NA,NA,NA,NA,NA,NA,NA,NA,NA,NA,NA,NA,NA,NA,NA
14c1c,shallow,flow.Sequence,3_0_2_0_3_1,NA,NA,skipped,NA,539166,NA,NA,539159.02,539167,2024-06-22T12:37:15Z,539175.52,NULL,Vorwurf,mashtaka,d,NA,NA,NA,NA,sdf,NA,2,NA,NA,NA,NA,NA,NA,NA,NA,NA,NA,NA,NA,NA,NA,NA,NA,NA,NA,NA
14c1c,task,flow.Sequence,3_0_2_0_3,NA,NA,completion,7973.4,531174,531168.92,531185.62,539159.02,539168,2024-06-22T12:37:15Z,539175.52,NULL,Vorwurf,mashtaka,d,NA,NA,NA,NA,sdf,NA,2,NA,NA,NA,NA,NA,NA,NA,NA,NA,NA,NA,NA,NA,NA,NA,NA,NA,NA,NA
14c1c,Deep Question,html.Page,3_0_2_0_4_0_0,NA,NA,form submission,3652.48,539168,539159.02,539175.52,542828,542829,2024-06-22T12:37:19Z,542828.66,NULL,Fenster,dirisha,d,NA,NA,NA,guguu,NA,NA,2,NA,NA,NA,NA,NA,NA,NA,NA,NA,NA,NA,NA,NA,NA,NA,NA,NA,NA,NA
14c1c,"""Richtig""-Screen",canvas.Screen,3_0_2_0_4_0_1,NA,NA,skipped,NA,542836,NA,NA,542828,542836,2024-06-22T12:37:19Z,542828.66,NULL,Fenster,dirisha,d,NA,NA,NA,NA,sdf,NA,2,NA,NA,NA,NA,NA,NA,NA,NA,NA,NA,NA,NA,NA,NA,NA,NA,NA,NA,NA
14c1c,"""Falsch""-Screen",canvas.Screen,3_0_2_0_4_0_2,NA,NA,timeout,5004.36,542838,542826.86,542828.66,547816.32,547818,2024-06-22T12:37:24Z,547833.02,NULL,Fenster,dirisha,d,NA,NA,NA,NA,sdf,0,2,NA,NA,NA,NA,NA,NA,NA,NA,NA,NA,NA,NA,NA,NA,NA,NA,NA,NA,NA
14c1c,deep,flow.Sequence,3_0_2_0_4_0,NA,NA,completion,8640.7999999999,539168,539159.02,539175.52,547816.32,547818,2024-06-22T12:37:24Z,547833.02,NULL,Fenster,dirisha,d,NA,NA,NA,NA,sdf,NA,2,NA,NA,NA,NA,NA,NA,NA,NA,NA,NA,NA,NA,NA,NA,NA,NA,NA,NA,NA
14c1c,shallow,flow.Sequence,3_0_2_0_4_1,NA,NA,skipped,NA,547818,NA,NA,547816.32,547819,2024-06-22T12:37:24Z,547833.02,NULL,Fenster,dirisha,d,NA,NA,NA,NA,sdf,NA,2,NA,NA,NA,NA,NA,NA,NA,NA,NA,NA,NA,NA,NA,NA,NA,NA,NA,NA,NA
14c1c,task,flow.Sequence,3_0_2_0_4,NA,NA,completion,8640.7999999999,539168,539159.02,539175.52,547816.32,547819,2024-06-22T12:37:24Z,547833.02,NULL,Fenster,dirisha,d,NA,NA,NA,NA,sdf,NA,2,NA,NA,NA,NA,NA,NA,NA,NA,NA,NA,NA,NA,NA,NA,NA,NA,NA,NA,NA
14c1c,Deep Question,html.Page,3_0_2_0_5_0_0,NA,NA,form submission,4968.98,547819,547816.32,547833.02,552802,552802,2024-06-22T12:37:29Z,552803.62,NULL,Entwicklung,maendeleo,d,NA,NA,NA,ffkizitit,NA,NA,2,NA,NA,NA,NA,NA,NA,NA,NA,NA,NA,NA,NA,NA,NA,NA,NA,NA,NA,NA
14c1c,"""Richtig""-Screen",canvas.Screen,3_0_2_0_5_0_1,NA,NA,skipped,NA,552803,NA,NA,552802,552803,2024-06-22T12:37:29Z,552803.62,NULL,Entwicklung,maendeleo,d,NA,NA,NA,NA,sdf,NA,2,NA,NA,NA,NA,NA,NA,NA,NA,NA,NA,NA,NA,NA,NA,NA,NA,NA,NA,NA
14c1c,"""Falsch""-Screen",canvas.Screen,3_0_2_0_5_0_2,NA,NA,timeout,5004.14,552804,552799.7,552803.62,557791.06,557793,2024-06-22T12:37:34Z,557807.76,NULL,Entwicklung,maendeleo,d,NA,NA,NA,NA,sdf,0,2,NA,NA,NA,NA,NA,NA,NA,NA,NA,NA,NA,NA,NA,NA,NA,NA,NA,NA,NA
14c1c,deep,flow.Sequence,3_0_2_0_5_0,NA,NA,completion,9958.04,547819,547816.32,547833.02,557791.06,557793,2024-06-22T12:37:34Z,557807.76,NULL,Entwicklung,maendeleo,d,NA,NA,NA,NA,sdf,NA,2,NA,NA,NA,NA,NA,NA,NA,NA,NA,NA,NA,NA,NA,NA,NA,NA,NA,NA,NA
14c1c,shallow,flow.Sequence,3_0_2_0_5_1,NA,NA,skipped,NA,557793,NA,NA,557791.06,557793,2024-06-22T12:37:34Z,557807.76,NULL,Entwicklung,maendeleo,d,NA,NA,NA,NA,sdf,NA,2,NA,NA,NA,NA,NA,NA,NA,NA,NA,NA,NA,NA,NA,NA,NA,NA,NA,NA,NA
14c1c,task,flow.Sequence,3_0_2_0_5,NA,NA,completion,9958.04,547819,547816.32,547833.02,557791.06,557794,2024-06-22T12:37:34Z,557807.76,NULL,Entwicklung,maendeleo,d,NA,NA,NA,NA,sdf,NA,2,NA,NA,NA,NA,NA,NA,NA,NA,NA,NA,NA,NA,NA,NA,NA,NA,NA,NA,NA
14c1c,deep,flow.Sequence,3_0_2_0_6_0,NA,NA,skipped,NA,557794,NA,NA,557791.06,557794,2024-06-22T12:37:34Z,557807.76,NULL,Schüler,mwanafunzi,s,mwekezaji,matumizi,uaminifu,NA,sdf,NA,2,NA,NA,NA,NA,NA,NA,NA,NA,NA,NA,NA,NA,NA,NA,NA,NA,NA,NA,NA
14c1c,Shallow Question,html.Page,3_0_2_0_6_1_0,NA,NA,form submission,5755.24,557794,557791.06,557807.76,563563,563564,2024-06-22T12:37:40Z,563562.54,NULL,Schüler,mwanafunzi,s,mwekezaji,matumizi,uaminifu,mwanafunzi,NA,NA,2,NA,NA,NA,NA,NA,NA,NA,NA,NA,NA,NA,NA,NA,NA,NA,NA,NA,NA,NA
14c1c,"""Richtig""-Screen",canvas.Screen,3_0_2_0_6_1_1,NA,NA,timeout,5004.02,563565,563559.14,563562.54,568549.86,568553,2024-06-22T12:37:45Z,568566.56,NULL,Schüler,mwanafunzi,s,mwekezaji,matumizi,uaminifu,NA,sdf,1,2,NA,NA,NA,NA,NA,NA,NA,NA,NA,NA,NA,NA,NA,NA,NA,NA,NA,NA,NA
14c1c,"""Falsch""-Screen",canvas.Screen,3_0_2_0_6_1_2,NA,NA,skipped,NA,568555,NA,NA,568549.86,568555,2024-06-22T12:37:45Z,568566.56,NULL,Schüler,mwanafunzi,s,mwekezaji,matumizi,uaminifu,NA,sdf,NA,2,NA,NA,NA,NA,NA,NA,NA,NA,NA,NA,NA,NA,NA,NA,NA,NA,NA,NA,NA
14c1c,shallow,flow.Sequence,3_0_2_0_6_1,NA,NA,completion,10742.1,557794,557791.06,557807.76,568549.86,568555,2024-06-22T12:37:45Z,568566.56,NULL,Schüler,mwanafunzi,s,mwekezaji,matumizi,uaminifu,NA,sdf,NA,2,NA,NA,NA,NA,NA,NA,NA,NA,NA,NA,NA,NA,NA,NA,NA,NA,NA,NA,NA
14c1c,task,flow.Sequence,3_0_2_0_6,NA,NA,completion,10742.1,557794,557791.06,557807.76,568549.86,568555,2024-06-22T12:37:45Z,568566.56,NULL,Schüler,mwanafunzi,s,mwekezaji,matumizi,uaminifu,NA,sdf,NA,2,NA,NA,NA,NA,NA,NA,NA,NA,NA,NA,NA,NA,NA,NA,NA,NA,NA,NA,NA
14c1c,deep,flow.Sequence,3_0_2_0_7_0,NA,NA,skipped,NA,568556,NA,NA,568549.86,568556,2024-06-22T12:37:45Z,568566.56,NULL,Papier,karatasi,s,uchambuzi,usalama,kukataliwa,NA,sdf,NA,2,NA,NA,NA,NA,NA,NA,NA,NA,NA,NA,NA,NA,NA,NA,NA,NA,NA,NA,NA
14c1c,Shallow Question,html.Page,3_0_2_0_7_1_0,NA,NA,form submission,5277.4399999999,568556,568549.86,568566.56,573844,573845,2024-06-22T12:37:50Z,573854.38,NULL,Papier,karatasi,s,uchambuzi,usalama,kukataliwa,karatasi,NA,NA,2,NA,NA,NA,NA,NA,NA,NA,NA,NA,NA,NA,NA,NA,NA,NA,NA,NA,NA,NA
14c1c,"""Richtig""-Screen",canvas.Screen,3_0_2_0_7_1_1,NA,NA,timeout,5004.08,573847,573841.44,573854.38,578841.76,578843,2024-06-22T12:37:55Z,578858.46,NULL,Papier,karatasi,s,uchambuzi,usalama,kukataliwa,NA,sdf,1,2,NA,NA,NA,NA,NA,NA,NA,NA,NA,NA,NA,NA,NA,NA,NA,NA,NA,NA,NA
14c1c,"""Falsch""-Screen",canvas.Screen,3_0_2_0_7_1_2,NA,NA,skipped,NA,578845,NA,NA,578841.76,578845,2024-06-22T12:37:55Z,578858.46,NULL,Papier,karatasi,s,uchambuzi,usalama,kukataliwa,NA,sdf,NA,2,NA,NA,NA,NA,NA,NA,NA,NA,NA,NA,NA,NA,NA,NA,NA,NA,NA,NA,NA
14c1c,shallow,flow.Sequence,3_0_2_0_7_1,NA,NA,completion,10275.2,568556,568549.86,568566.56,578841.76,578845,2024-06-22T12:37:55Z,578858.46,NULL,Papier,karatasi,s,uchambuzi,usalama,kukataliwa,NA,sdf,NA,2,NA,NA,NA,NA,NA,NA,NA,NA,NA,NA,NA,NA,NA,NA,NA,NA,NA,NA,NA
14c1c,task,flow.Sequence,3_0_2_0_7,NA,NA,completion,10275.2,568555,568549.86,568566.56,578841.76,578845,2024-06-22T12:37:55Z,578858.46,NULL,Papier,karatasi,s,uchambuzi,usalama,kukataliwa,NA,sdf,NA,2,NA,NA,NA,NA,NA,NA,NA,NA,NA,NA,NA,NA,NA,NA,NA,NA,NA,NA,NA
14c1c,block,flow.Loop,3_0_2_0,NA,NA,completion,82154.54,496686,496686.92,496687.22,578841.76,578846,2024-06-22T12:37:55Z,578858.46,NULL,NA,NA,NA,NA,NA,NA,NA,sdf,NA,2,NA,NA,NA,NA,NA,NA,NA,NA,NA,NA,NA,NA,NA,NA,NA,NA,NA,NA,NA
14c1c,weiter,canvas.Screen,3_0_2_1,sdf,keypress(Space),response,981.54000000004,578846,578841.76,578858.46,579840,579855,2024-06-22T12:37:56Z,579900.38,NULL,NA,NA,NA,NA,NA,NA,NA,sdf,NA,2,NA,NA,NA,NA,NA,NA,NA,NA,NA,NA,NA,NA,NA,NA,NA,NA,NA,NA,NA
14c1c,check continue,flow.Sequence,3_0_2,NA,NA,completion,83152.78,496686,496686.92,496687.22,579840,579856,2024-06-22T12:37:56Z,579900.38,NULL,NA,NA,NA,NA,NA,NA,NA,sdf,NA,2,NA,NA,NA,NA,NA,NA,NA,NA,NA,NA,NA,NA,NA,NA,NA,NA,NA,NA,NA
14c1c,deep,flow.Sequence,3_0_3_0_0_0,NA,NA,skipped,NA,579899,NA,NA,579840,579899,2024-06-22T12:37:56Z,579900.38,NULL,Niveau,kiwango,s,usimamizi,mwamali,mshairi,NA,qt,NA,3,NA,NA,NA,NA,NA,NA,NA,NA,NA,NA,NA,NA,NA,NA,NA,NA,NA,NA,NA
14c1c,Shallow Question,html.Page,3_0_3_0_0_1_0,NA,NA,form submission,5075.62,579899,579899.68,579900.38,584976,584976,2024-06-22T12:38:01Z,584996.78,NULL,Niveau,kiwango,s,usimamizi,mwamali,mshairi,kiwango,NA,NA,3,NA,NA,NA,NA,NA,NA,NA,NA,NA,NA,NA,NA,NA,NA,NA,NA,NA,NA,NA
14c1c,"""Richtig""-Screen",canvas.Screen,3_0_3_0_0_1_1,NA,NA,timeout,5004.26,584978,584980.24,584996.78,589984.34,589985,2024-06-22T12:38:06Z,590001.04,NULL,Niveau,kiwango,s,usimamizi,mwamali,mshairi,NA,qt,1,3,NA,NA,NA,NA,NA,NA,NA,NA,NA,NA,NA,NA,NA,NA,NA,NA,NA,NA,NA
14c1c,"""Falsch""-Screen",canvas.Screen,3_0_3_0_0_1_2,NA,NA,skipped,NA,589987,NA,NA,589984.34,589988,2024-06-22T12:38:06Z,590001.04,NULL,Niveau,kiwango,s,usimamizi,mwamali,mshairi,NA,qt,NA,3,NA,NA,NA,NA,NA,NA,NA,NA,NA,NA,NA,NA,NA,NA,NA,NA,NA,NA,NA
14c1c,shallow,flow.Sequence,3_0_3_0_0_1,NA,NA,completion,10083.96,579899,579899.68,579900.38,589984.34,589988,2024-06-22T12:38:06Z,590001.04,NULL,Niveau,kiwango,s,usimamizi,mwamali,mshairi,NA,qt,NA,3,NA,NA,NA,NA,NA,NA,NA,NA,NA,NA,NA,NA,NA,NA,NA,NA,NA,NA,NA
14c1c,task,flow.Sequence,3_0_3_0_0,NA,NA,completion,10083.96,579899,579899.68,579900.38,589984.34,589988,2024-06-22T12:38:06Z,590001.04,NULL,Niveau,kiwango,s,usimamizi,mwamali,mshairi,NA,qt,NA,3,NA,NA,NA,NA,NA,NA,NA,NA,NA,NA,NA,NA,NA,NA,NA,NA,NA,NA,NA
14c1c,deep,flow.Sequence,3_0_3_0_1_0,NA,NA,skipped,NA,589989,NA,NA,589984.34,589989,2024-06-22T12:38:06Z,590001.04,NULL,Papier,karatasi,s,uchambuzi,usalama,kukataliwa,NA,qt,NA,3,NA,NA,NA,NA,NA,NA,NA,NA,NA,NA,NA,NA,NA,NA,NA,NA,NA,NA,NA
14c1c,Shallow Question,html.Page,3_0_3_0_1_1_0,NA,NA,form submission,4987.96,589989,589984.34,590001.04,594989,594989,2024-06-22T12:38:11Z,594988.5,NULL,Papier,karatasi,s,uchambuzi,usalama,kukataliwa,karatasi,NA,NA,3,NA,NA,NA,NA,NA,NA,NA,NA,NA,NA,NA,NA,NA,NA,NA,NA,NA,NA,NA
14c1c,"""Richtig""-Screen",canvas.Screen,3_0_3_0_1_1_1,NA,NA,timeout,5003.98,594990,594984.88,594988.5,599976.02,599977,2024-06-22T12:38:16Z,599992.48,NULL,Papier,karatasi,s,uchambuzi,usalama,kukataliwa,NA,qt,1,3,NA,NA,NA,NA,NA,NA,NA,NA,NA,NA,NA,NA,NA,NA,NA,NA,NA,NA,NA
14c1c,"""Falsch""-Screen",canvas.Screen,3_0_3_0_1_1_2,NA,NA,skipped,NA,599979,NA,NA,599976.02,599979,2024-06-22T12:38:16Z,599992.48,NULL,Papier,karatasi,s,uchambuzi,usalama,kukataliwa,NA,qt,NA,3,NA,NA,NA,NA,NA,NA,NA,NA,NA,NA,NA,NA,NA,NA,NA,NA,NA,NA,NA
14c1c,shallow,flow.Sequence,3_0_3_0_1_1,NA,NA,completion,9974.98,589989,589984.34,590001.04,599976.02,599979,2024-06-22T12:38:16Z,599992.48,NULL,Papier,karatasi,s,uchambuzi,usalama,kukataliwa,NA,qt,NA,3,NA,NA,NA,NA,NA,NA,NA,NA,NA,NA,NA,NA,NA,NA,NA,NA,NA,NA,NA
14c1c,task,flow.Sequence,3_0_3_0_1,NA,NA,completion,9974.98,589989,589984.34,590001.04,599976.02,599979,2024-06-22T12:38:16Z,599992.48,NULL,Papier,karatasi,s,uchambuzi,usalama,kukataliwa,NA,qt,NA,3,NA,NA,NA,NA,NA,NA,NA,NA,NA,NA,NA,NA,NA,NA,NA,NA,NA,NA,NA
14c1c,deep,flow.Sequence,3_0_3_0_2_0,NA,NA,skipped,NA,599979,NA,NA,599976.02,599979,2024-06-22T12:38:16Z,599992.48,NULL,Schüler,mwanafunzi,s,mwekezaji,matumizi,uaminifu,NA,qt,NA,3,NA,NA,NA,NA,NA,NA,NA,NA,NA,NA,NA,NA,NA,NA,NA,NA,NA,NA,NA
14c1c,Shallow Question,html.Page,3_0_3_0_2_1_0,NA,NA,form submission,3959.52,599979,599976.02,599992.48,603952,603953,2024-06-22T12:38:20Z,603962.52,NULL,Schüler,mwanafunzi,s,mwekezaji,matumizi,uaminifu,mwanafunzi,NA,NA,3,NA,NA,NA,NA,NA,NA,NA,NA,NA,NA,NA,NA,NA,NA,NA,NA,NA,NA,NA
14c1c,"""Richtig""-Screen",canvas.Screen,3_0_3_0_2_1_1,NA,NA,timeout,5004.2,603961,603947.22,603962.52,608950.34,608952,2024-06-22T12:38:25Z,608966.72,NULL,Schüler,mwanafunzi,s,mwekezaji,matumizi,uaminifu,NA,qt,1,3,NA,NA,NA,NA,NA,NA,NA,NA,NA,NA,NA,NA,NA,NA,NA,NA,NA,NA,NA
14c1c,"""Falsch""-Screen",canvas.Screen,3_0_3_0_2_1_2,NA,NA,skipped,NA,608955,NA,NA,608950.34,608955,2024-06-22T12:38:25Z,608966.72,NULL,Schüler,mwanafunzi,s,mwekezaji,matumizi,uaminifu,NA,qt,NA,3,NA,NA,NA,NA,NA,NA,NA,NA,NA,NA,NA,NA,NA,NA,NA,NA,NA,NA,NA
14c1c,shallow,flow.Sequence,3_0_3_0_2_1,NA,NA,completion,8957.86,599979,599976.02,599992.48,608950.34,608955,2024-06-22T12:38:25Z,608966.72,NULL,Schüler,mwanafunzi,s,mwekezaji,matumizi,uaminifu,NA,qt,NA,3,NA,NA,NA,NA,NA,NA,NA,NA,NA,NA,NA,NA,NA,NA,NA,NA,NA,NA,NA
14c1c,task,flow.Sequence,3_0_3_0_2,NA,NA,completion,8957.86,599979,599976.02,599992.48,608950.34,608955,2024-06-22T12:38:25Z,608966.72,NULL,Schüler,mwanafunzi,s,mwekezaji,matumizi,uaminifu,NA,qt,NA,3,NA,NA,NA,NA,NA,NA,NA,NA,NA,NA,NA,NA,NA,NA,NA,NA,NA,NA,NA
14c1c,Deep Question,html.Page,3_0_3_0_3_0_0,NA,NA,form submission,6420.28,608955,608950.34,608966.72,615387,615387,2024-06-22T12:38:32Z,615388.66,NULL,Spionage,upelelezi,d,NA,NA,NA,upelelezi,NA,NA,3,NA,NA,NA,NA,NA,NA,NA,NA,NA,NA,NA,NA,NA,NA,NA,NA,NA,NA,NA
14c1c,"""Richtig""-Screen",canvas.Screen,3_0_3_0_3_0_1,NA,NA,timeout,5004.34,615389,615385.7,615388.66,620376.3,620378,2024-06-22T12:38:37Z,620393,NULL,Spionage,upelelezi,d,NA,NA,NA,NA,qt,1,3,NA,NA,NA,NA,NA,NA,NA,NA,NA,NA,NA,NA,NA,NA,NA,NA,NA,NA,NA
14c1c,"""Falsch""-Screen",canvas.Screen,3_0_3_0_3_0_2,NA,NA,skipped,NA,620380,NA,NA,620376.3,620381,2024-06-22T12:38:37Z,620393,NULL,Spionage,upelelezi,d,NA,NA,NA,NA,qt,NA,3,NA,NA,NA,NA,NA,NA,NA,NA,NA,NA,NA,NA,NA,NA,NA,NA,NA,NA,NA
14c1c,deep,flow.Sequence,3_0_3_0_3_0,NA,NA,completion,11409.58,608955,608950.34,608966.72,620376.3,620381,2024-06-22T12:38:37Z,620393,NULL,Spionage,upelelezi,d,NA,NA,NA,NA,qt,NA,3,NA,NA,NA,NA,NA,NA,NA,NA,NA,NA,NA,NA,NA,NA,NA,NA,NA,NA,NA
14c1c,shallow,flow.Sequence,3_0_3_0_3_1,NA,NA,skipped,NA,620381,NA,NA,620376.3,620381,2024-06-22T12:38:37Z,620393,NULL,Spionage,upelelezi,d,NA,NA,NA,NA,qt,NA,3,NA,NA,NA,NA,NA,NA,NA,NA,NA,NA,NA,NA,NA,NA,NA,NA,NA,NA,NA
14c1c,task,flow.Sequence,3_0_3_0_3,NA,NA,completion,11409.58,608955,608950.34,608966.72,620376.3,620382,2024-06-22T12:38:37Z,620393,NULL,Spionage,upelelezi,d,NA,NA,NA,NA,qt,NA,3,NA,NA,NA,NA,NA,NA,NA,NA,NA,NA,NA,NA,NA,NA,NA,NA,NA,NA,NA
14c1c,Deep Question,html.Page,3_0_3_0_4_0_0,NA,NA,form submission,38734,620382,620376.3,620393,659127,659127,2024-06-22T12:39:15Z,659125.66,NULL,Fenster,dirisha,d,NA,NA,NA,gugghhj,NA,NA,3,NA,NA,NA,NA,NA,NA,NA,NA,NA,NA,NA,NA,NA,NA,NA,NA,NA,NA,NA
14c1c,"""Richtig""-Screen",canvas.Screen,3_0_3_0_4_0_1,NA,NA,skipped,NA,659128,NA,NA,659127,659128,2024-06-22T12:39:15Z,659125.66,NULL,Fenster,dirisha,d,NA,NA,NA,NA,qt,NA,3,NA,NA,NA,NA,NA,NA,NA,NA,NA,NA,NA,NA,NA,NA,NA,NA,NA,NA,NA
14c1c,"""Falsch""-Screen",canvas.Screen,3_0_3_0_4_0_2,NA,NA,timeout,5003.34,659130,659125.28,659125.66,664112.32,664114,2024-06-22T12:39:20Z,664129,NULL,Fenster,dirisha,d,NA,NA,NA,NA,qt,0,3,NA,NA,NA,NA,NA,NA,NA,NA,NA,NA,NA,NA,NA,NA,NA,NA,NA,NA,NA
14c1c,deep,flow.Sequence,3_0_3_0_4_0,NA,NA,completion,43719.32,620382,620376.3,620393,664112.32,664114,2024-06-22T12:39:20Z,664129,NULL,Fenster,dirisha,d,NA,NA,NA,NA,qt,NA,3,NA,NA,NA,NA,NA,NA,NA,NA,NA,NA,NA,NA,NA,NA,NA,NA,NA,NA,NA
14c1c,shallow,flow.Sequence,3_0_3_0_4_1,NA,NA,skipped,NA,664114,NA,NA,664112.32,664114,2024-06-22T12:39:20Z,664129,NULL,Fenster,dirisha,d,NA,NA,NA,NA,qt,NA,3,NA,NA,NA,NA,NA,NA,NA,NA,NA,NA,NA,NA,NA,NA,NA,NA,NA,NA,NA
14c1c,task,flow.Sequence,3_0_3_0_4,NA,NA,completion,43719.32,620382,620376.3,620393,664112.32,664115,2024-06-22T12:39:20Z,664129,NULL,Fenster,dirisha,d,NA,NA,NA,NA,qt,NA,3,NA,NA,NA,NA,NA,NA,NA,NA,NA,NA,NA,NA,NA,NA,NA,NA,NA,NA,NA
14c1c,Deep Question,html.Page,3_0_3_0_5_0_0,NA,NA,form submission,4173,664115,664112.32,664129,668302,668302,2024-06-22T12:39:24Z,668301.6,NULL,Entwicklung,maendeleo,d,NA,NA,NA,fhjiwog,NA,NA,3,NA,NA,NA,NA,NA,NA,NA,NA,NA,NA,NA,NA,NA,NA,NA,NA,NA,NA,NA
14c1c,"""Richtig""-Screen",canvas.Screen,3_0_3_0_5_0_1,NA,NA,skipped,NA,668304,NA,NA,668302,668304,2024-06-22T12:39:24Z,668301.6,NULL,Entwicklung,maendeleo,d,NA,NA,NA,NA,qt,NA,3,NA,NA,NA,NA,NA,NA,NA,NA,NA,NA,NA,NA,NA,NA,NA,NA,NA,NA,NA
14c1c,"""Falsch""-Screen",canvas.Screen,3_0_3_0_5_0_2,NA,NA,timeout,5001.8,668305,668301.2,668301.6,673286.7,673288,2024-06-22T12:39:29Z,673303.4,NULL,Entwicklung,maendeleo,d,NA,NA,NA,NA,qt,0,3,NA,NA,NA,NA,NA,NA,NA,NA,NA,NA,NA,NA,NA,NA,NA,NA,NA,NA,NA
14c1c,deep,flow.Sequence,3_0_3_0_5_0,NA,NA,completion,9157.7,664115,664112.32,664129,673286.7,673288,2024-06-22T12:39:29Z,673303.4,NULL,Entwicklung,maendeleo,d,NA,NA,NA,NA,qt,NA,3,NA,NA,NA,NA,NA,NA,NA,NA,NA,NA,NA,NA,NA,NA,NA,NA,NA,NA,NA
14c1c,shallow,flow.Sequence,3_0_3_0_5_1,NA,NA,skipped,NA,673288,NA,NA,673286.7,673289,2024-06-22T12:39:29Z,673303.4,NULL,Entwicklung,maendeleo,d,NA,NA,NA,NA,qt,NA,3,NA,NA,NA,NA,NA,NA,NA,NA,NA,NA,NA,NA,NA,NA,NA,NA,NA,NA,NA
14c1c,task,flow.Sequence,3_0_3_0_5,NA,NA,completion,9157.7,664115,664112.32,664129,673286.7,673289,2024-06-22T12:39:29Z,673303.4,NULL,Entwicklung,maendeleo,d,NA,NA,NA,NA,qt,NA,3,NA,NA,NA,NA,NA,NA,NA,NA,NA,NA,NA,NA,NA,NA,NA,NA,NA,NA,NA
14c1c,Deep Question,html.Page,3_0_3_0_6_0_0,NA,NA,form submission,51644.6,673289,673286.7,673303.4,724948,724948,2024-06-22T12:40:21Z,724946.4,NULL,Vorwurf,mashtaka,d,NA,NA,NA,vghsgvfzusg,NA,NA,3,NA,NA,NA,NA,NA,NA,NA,NA,NA,NA,NA,NA,NA,NA,NA,NA,NA,NA,NA
14c1c,"""Richtig""-Screen",canvas.Screen,3_0_3_0_6_0_1,NA,NA,skipped,NA,724950,NA,NA,724948,724950,2024-06-22T12:40:21Z,724946.4,NULL,Vorwurf,mashtaka,d,NA,NA,NA,NA,qt,NA,3,NA,NA,NA,NA,NA,NA,NA,NA,NA,NA,NA,NA,NA,NA,NA,NA,NA,NA,NA
14c1c,"""Falsch""-Screen",canvas.Screen,3_0_3_0_6_0_2,NA,NA,timeout,5003.74,724951,724946.18,724946.4,729933.44,729936,2024-06-22T12:40:26Z,729950.14,NULL,Vorwurf,mashtaka,d,NA,NA,NA,NA,qt,0,3,NA,NA,NA,NA,NA,NA,NA,NA,NA,NA,NA,NA,NA,NA,NA,NA,NA,NA,NA
14c1c,deep,flow.Sequence,3_0_3_0_6_0,NA,NA,completion,56630.04,673289,673286.7,673303.4,729933.44,729937,2024-06-22T12:40:26Z,729950.14,NULL,Vorwurf,mashtaka,d,NA,NA,NA,NA,qt,NA,3,NA,NA,NA,NA,NA,NA,NA,NA,NA,NA,NA,NA,NA,NA,NA,NA,NA,NA,NA
14c1c,shallow,flow.Sequence,3_0_3_0_6_1,NA,NA,skipped,NA,729937,NA,NA,729933.44,729938,2024-06-22T12:40:26Z,729950.14,NULL,Vorwurf,mashtaka,d,NA,NA,NA,NA,qt,NA,3,NA,NA,NA,NA,NA,NA,NA,NA,NA,NA,NA,NA,NA,NA,NA,NA,NA,NA,NA
14c1c,task,flow.Sequence,3_0_3_0_6,NA,NA,completion,56630.04,673289,673286.7,673303.4,729933.44,729938,2024-06-22T12:40:26Z,729950.14,NULL,Vorwurf,mashtaka,d,NA,NA,NA,NA,qt,NA,3,NA,NA,NA,NA,NA,NA,NA,NA,NA,NA,NA,NA,NA,NA,NA,NA,NA,NA,NA
14c1c,deep,flow.Sequence,3_0_3_0_7_0,NA,NA,skipped,NA,729938,NA,NA,729933.44,729938,2024-06-22T12:40:26Z,729950.14,NULL,Tester,wanaojaribu,s,sherti,sihiri,mlipuko,NA,qt,NA,3,NA,NA,NA,NA,NA,NA,NA,NA,NA,NA,NA,NA,NA,NA,NA,NA,NA,NA,NA
14c1c,Shallow Question,html.Page,3_0_3_0_7_1_0,NA,NA,form submission,8778.86,729938,729933.44,729950.14,738729,738730,2024-06-22T12:40:35Z,738740.68,NULL,Tester,wanaojaribu,s,sherti,sihiri,mlipuko,wanaojaribu,NA,NA,3,NA,NA,NA,NA,NA,NA,NA,NA,NA,NA,NA,NA,NA,NA,NA,NA,NA,NA,NA
14c1c,"""Richtig""-Screen",canvas.Screen,3_0_3_0_7_1_1,NA,NA,timeout,5004.12,738736,738724.32,738740.68,743728.12,743731,2024-06-22T12:40:40Z,743744.8,NULL,Tester,wanaojaribu,s,sherti,sihiri,mlipuko,NA,qt,1,3,NA,NA,NA,NA,NA,NA,NA,NA,NA,NA,NA,NA,NA,NA,NA,NA,NA,NA,NA
14c1c,"""Falsch""-Screen",canvas.Screen,3_0_3_0_7_1_2,NA,NA,skipped,NA,743735,NA,NA,743728.12,743735,2024-06-22T12:40:40Z,743744.8,NULL,Tester,wanaojaribu,s,sherti,sihiri,mlipuko,NA,qt,NA,3,NA,NA,NA,NA,NA,NA,NA,NA,NA,NA,NA,NA,NA,NA,NA,NA,NA,NA,NA
14c1c,shallow,flow.Sequence,3_0_3_0_7_1,NA,NA,completion,13777.98,729938,729933.44,729950.14,743728.12,743735,2024-06-22T12:40:40Z,743744.8,NULL,Tester,wanaojaribu,s,sherti,sihiri,mlipuko,NA,qt,NA,3,NA,NA,NA,NA,NA,NA,NA,NA,NA,NA,NA,NA,NA,NA,NA,NA,NA,NA,NA
14c1c,task,flow.Sequence,3_0_3_0_7,NA,NA,completion,13777.98,729938,729933.44,729950.14,743728.12,743736,2024-06-22T12:40:40Z,743744.8,NULL,Tester,wanaojaribu,s,sherti,sihiri,mlipuko,NA,qt,NA,3,NA,NA,NA,NA,NA,NA,NA,NA,NA,NA,NA,NA,NA,NA,NA,NA,NA,NA,NA
14c1c,block,flow.Loop,3_0_3_0,NA,NA,completion,163827.74,579899,579899.68,579900.38,743728.12,743736,2024-06-22T12:40:40Z,743744.8,NULL,NA,NA,NA,NA,NA,NA,NA,qt,NA,3,NA,NA,NA,NA,NA,NA,NA,NA,NA,NA,NA,NA,NA,NA,NA,NA,NA,NA,NA
14c1c,weiter,canvas.Screen,3_0_3_1,sdf,keypress(Space),response,956.19999999995,743736,743728.12,743744.8,744701,744715,2024-06-22T12:40:41Z,745496.18,NULL,NA,NA,NA,NA,NA,NA,NA,qt,NA,3,NA,NA,NA,NA,NA,NA,NA,NA,NA,NA,NA,NA,NA,NA,NA,NA,NA,NA,NA
14c1c,check continue,flow.Sequence,3_0_3,NA,NA,completion,164800.62,579899,579899.68,579900.38,744701,744716,2024-06-22T12:40:41Z,745496.18,NULL,NA,NA,NA,NA,NA,NA,NA,qt,NA,3,NA,NA,NA,NA,NA,NA,NA,NA,NA,NA,NA,NA,NA,NA,NA,NA,NA,NA,NA
14c1c,check continue,flow.Sequence,3_0_4,NA,NA,skipped,NA,744764,NA,NA,744701,744764,2024-06-22T12:40:41Z,745496.18,NULL,NA,NA,NA,NA,NA,NA,NA,sd,NA,4,NA,NA,NA,NA,NA,NA,NA,NA,NA,NA,NA,NA,NA,NA,NA,NA,NA,NA,NA
14c1c,check continue,flow.Sequence,3_0_5,NA,NA,skipped,NA,744793,NA,NA,744701,744794,2024-06-22T12:40:41Z,745496.18,NULL,NA,NA,NA,NA,NA,NA,NA,sdf,NA,5,NA,NA,NA,NA,NA,NA,NA,NA,NA,NA,NA,NA,NA,NA,NA,NA,NA,NA,NA
14c1c,check continue,flow.Sequence,3_0_6,NA,NA,skipped,NA,744822,NA,NA,744701,744822,2024-06-22T12:40:41Z,745496.18,NULL,NA,NA,NA,NA,NA,NA,NA,dfs,NA,6,NA,NA,NA,NA,NA,NA,NA,NA,NA,NA,NA,NA,NA,NA,NA,NA,NA,NA,NA
14c1c,check continue,flow.Sequence,3_0_7,NA,NA,skipped,NA,744849,NA,NA,744701,744849,2024-06-22T12:40:41Z,745496.18,NULL,NA,NA,NA,NA,NA,NA,NA,df,NA,7,NA,NA,NA,NA,NA,NA,NA,NA,NA,NA,NA,NA,NA,NA,NA,NA,NA,NA,NA
14c1c,check continue,flow.Sequence,3_0_8,NA,NA,skipped,NA,744882,NA,NA,744701,744882,2024-06-22T12:40:41Z,745496.18,NULL,NA,NA,NA,NA,NA,NA,NA,dfs,NA,8,NA,NA,NA,NA,NA,NA,NA,NA,NA,NA,NA,NA,NA,NA,NA,NA,NA,NA,NA
14c1c,check continue,flow.Sequence,3_0_9,NA,NA,skipped,NA,744908,NA,NA,744701,744908,2024-06-22T12:40:41Z,745496.18,NULL,NA,NA,NA,NA,NA,NA,NA,dsf,NA,9,NA,NA,NA,NA,NA,NA,NA,NA,NA,NA,NA,NA,NA,NA,NA,NA,NA,NA,NA
14c1c,check continue,flow.Sequence,3_0_10,NA,NA,skipped,NA,744935,NA,NA,744701,744936,2024-06-22T12:40:41Z,745496.18,NULL,NA,NA,NA,NA,NA,NA,NA,df,NA,10,NA,NA,NA,NA,NA,NA,NA,NA,NA,NA,NA,NA,NA,NA,NA,NA,NA,NA,NA
14c1c,check continue,flow.Sequence,3_0_11,NA,NA,skipped,NA,744961,NA,NA,744701,744961,2024-06-22T12:40:41Z,745496.18,NULL,NA,NA,NA,NA,NA,NA,NA,dfs,NA,11,NA,NA,NA,NA,NA,NA,NA,NA,NA,NA,NA,NA,NA,NA,NA,NA,NA,NA,NA
14c1c,check continue,flow.Sequence,3_0_12,NA,NA,skipped,NA,744992,NA,NA,744701,744992,2024-06-22T12:40:41Z,745496.18,NULL,NA,NA,NA,NA,NA,NA,NA,dsf,NA,12,NA,NA,NA,NA,NA,NA,NA,NA,NA,NA,NA,NA,NA,NA,NA,NA,NA,NA,NA
14c1c,check continue,flow.Sequence,3_0_13,NA,NA,skipped,NA,745015,NA,NA,744701,745015,2024-06-22T12:40:41Z,745496.18,NULL,NA,NA,NA,NA,NA,NA,NA,dsf,NA,13,NA,NA,NA,NA,NA,NA,NA,NA,NA,NA,NA,NA,NA,NA,NA,NA,NA,NA,NA
14c1c,check continue,flow.Sequence,3_0_14,NA,NA,skipped,NA,745040,NA,NA,744701,745040,2024-06-22T12:40:41Z,745496.18,NULL,NA,NA,NA,NA,NA,NA,NA,NA,NA,14,NA,NA,NA,NA,NA,NA,NA,NA,NA,NA,NA,NA,NA,NA,NA,NA,NA,NA,NA
14c1c,check continue,flow.Sequence,3_0_15,NA,NA,skipped,NA,745070,NA,NA,744701,745070,2024-06-22T12:40:41Z,745496.18,NULL,NA,NA,NA,NA,NA,NA,NA,NA,NA,15,NA,NA,NA,NA,NA,NA,NA,NA,NA,NA,NA,NA,NA,NA,NA,NA,NA,NA,NA
14c1c,check continue,flow.Sequence,3_0_16,NA,NA,skipped,NA,745095,NA,NA,744701,745095,2024-06-22T12:40:41Z,745496.18,NULL,NA,NA,NA,NA,NA,NA,NA,NA,NA,16,NA,NA,NA,NA,NA,NA,NA,NA,NA,NA,NA,NA,NA,NA,NA,NA,NA,NA,NA
14c1c,check continue,flow.Sequence,3_0_17,NA,NA,skipped,NA,745122,NA,NA,744701,745122,2024-06-22T12:40:41Z,745496.18,NULL,NA,NA,NA,NA,NA,NA,NA,NA,NA,17,NA,NA,NA,NA,NA,NA,NA,NA,NA,NA,NA,NA,NA,NA,NA,NA,NA,NA,NA
14c1c,check continue,flow.Sequence,3_0_18,NA,NA,skipped,NA,745146,NA,NA,744701,745146,2024-06-22T12:40:41Z,745496.18,NULL,NA,NA,NA,NA,NA,NA,NA,NA,NA,18,NA,NA,NA,NA,NA,NA,NA,NA,NA,NA,NA,NA,NA,NA,NA,NA,NA,NA,NA
14c1c,check continue,flow.Sequence,3_0_19,NA,NA,skipped,NA,745178,NA,NA,744701,745178,2024-06-22T12:40:41Z,745496.18,NULL,NA,NA,NA,NA,NA,NA,NA,NA,NA,19,NA,NA,NA,NA,NA,NA,NA,NA,NA,NA,NA,NA,NA,NA,NA,NA,NA,NA,NA
14c1c,check continue,flow.Sequence,3_0_20,NA,NA,skipped,NA,745208,NA,NA,744701,745208,2024-06-22T12:40:41Z,745496.18,NULL,NA,NA,NA,NA,NA,NA,NA,NA,NA,20,NA,NA,NA,NA,NA,NA,NA,NA,NA,NA,NA,NA,NA,NA,NA,NA,NA,NA,NA
14c1c,check continue,flow.Sequence,3_0_21,NA,NA,skipped,NA,745236,NA,NA,744701,745236,2024-06-22T12:40:41Z,745496.18,NULL,NA,NA,NA,NA,NA,NA,NA,NA,NA,21,NA,NA,NA,NA,NA,NA,NA,NA,NA,NA,NA,NA,NA,NA,NA,NA,NA,NA,NA
14c1c,check continue,flow.Sequence,3_0_22,NA,NA,skipped,NA,745264,NA,NA,744701,745264,2024-06-22T12:40:41Z,745496.18,NULL,NA,NA,NA,NA,NA,NA,NA,NA,NA,22,NA,NA,NA,NA,NA,NA,NA,NA,NA,NA,NA,NA,NA,NA,NA,NA,NA,NA,NA
14c1c,check continue,flow.Sequence,3_0_23,NA,NA,skipped,NA,745289,NA,NA,744701,745289,2024-06-22T12:40:41Z,745496.18,NULL,NA,NA,NA,NA,NA,NA,NA,NA,NA,23,NA,NA,NA,NA,NA,NA,NA,NA,NA,NA,NA,NA,NA,NA,NA,NA,NA,NA,NA
14c1c,check continue,flow.Sequence,3_0_24,NA,NA,skipped,NA,745319,NA,NA,744701,745319,2024-06-22T12:40:41Z,745496.18,NULL,NA,NA,NA,NA,NA,NA,NA,NA,NA,24,NA,NA,NA,NA,NA,NA,NA,NA,NA,NA,NA,NA,NA,NA,NA,NA,NA,NA,NA
14c1c,check continue,flow.Sequence,3_0_25,NA,NA,skipped,NA,745341,NA,NA,744701,745341,2024-06-22T12:40:42Z,745496.18,NULL,NA,NA,NA,NA,NA,NA,NA,NA,NA,25,NA,NA,NA,NA,NA,NA,NA,NA,NA,NA,NA,NA,NA,NA,NA,NA,NA,NA,NA
14c1c,check continue,flow.Sequence,3_0_26,NA,NA,skipped,NA,745363,NA,NA,744701,745364,2024-06-22T12:40:42Z,745496.18,NULL,NA,NA,NA,NA,NA,NA,NA,NA,NA,26,NA,NA,NA,NA,NA,NA,NA,NA,NA,NA,NA,NA,NA,NA,NA,NA,NA,NA,NA
14c1c,check continue,flow.Sequence,3_0_27,NA,NA,skipped,NA,745392,NA,NA,744701,745392,2024-06-22T12:40:42Z,745496.18,NULL,NA,NA,NA,NA,NA,NA,NA,NA,NA,27,NA,NA,NA,NA,NA,NA,NA,NA,NA,NA,NA,NA,NA,NA,NA,NA,NA,NA,NA
14c1c,check continue,flow.Sequence,3_0_28,NA,NA,skipped,NA,745413,NA,NA,744701,745413,2024-06-22T12:40:42Z,745496.18,NULL,NA,NA,NA,NA,NA,NA,NA,NA,NA,28,NA,NA,NA,NA,NA,NA,NA,NA,NA,NA,NA,NA,NA,NA,NA,NA,NA,NA,NA
14c1c,check continue,flow.Sequence,3_0_29,NA,NA,skipped,NA,745440,NA,NA,744701,745440,2024-06-22T12:40:42Z,745496.18,NULL,NA,NA,NA,NA,NA,NA,NA,NA,NA,29,NA,NA,NA,NA,NA,NA,NA,NA,NA,NA,NA,NA,NA,NA,NA,NA,NA,NA,NA
14c1c,until continue,flow.Loop,3_0,NA,NA,completion,426750.72,317920,317949.84,317950.28,744701,745440,2024-06-22T12:40:42Z,745496.18,NULL,NA,NA,NA,NA,NA,NA,NA,NA,NA,NA,NA,NA,NA,NA,NA,NA,NA,NA,NA,NA,NA,NA,NA,NA,NA,NA,NA,NA,NA
14c1c,block 1,flow.Sequence,3,NA,NA,completion,426750.72,317920,317949.84,317950.28,744701,745440,2024-06-22T12:40:42Z,745496.18,NULL,NA,NA,NA,NA,NA,NA,NA,NA,NA,NA,NA,NA,NA,NA,NA,NA,NA,NA,NA,NA,NA,NA,NA,NA,NA,NA,NA,NA,NA
14c1c,1.Part Over,canvas.Screen,4,NA,keypress(Space),response,NA,745440,NA,NA,745326,745443,2024-06-22T12:40:42Z,745496.18,NULL,NA,NA,NA,NA,NA,NA,NA,NA,NA,NA,NA,NA,NA,NA,NA,NA,NA,NA,NA,NA,NA,NA,NA,NA,NA,NA,NA,NA,NA
14c1c,Deep Question,html.Page,5_0_0_0_0_0_0,NA,NA,form submission,15216.82,745497,745440.68,745496.18,760713,760713,2024-06-22T12:40:57Z,760712.12,NULL,Begegnung,kukutana,d,NA,NA,NA,vbffhsj,NA,NA,0,NA,NA,NA,NA,NA,NA,NA,NA,NA,NA,NA,NA,NA,NA,NA,NA,NA,NA,NA
14c1c,"""Richtig""-Screen",canvas.Screen,5_0_0_0_0_0_1,NA,NA,skipped,NA,760714,NA,NA,760713,760715,2024-06-22T12:40:57Z,760712.12,NULL,Begegnung,kukutana,d,NA,NA,NA,NA,sdf,NA,0,NA,NA,NA,NA,NA,NA,NA,NA,NA,NA,NA,NA,NA,NA,NA,NA,NA,NA,NA
14c1c,"""Falsch""-Screen",canvas.Screen,5_0_0_0_0_0_2,NA,NA,timeout,5000.92,760716,760711.46,760712.12,765696.34,765697,2024-06-22T12:41:02Z,765713.04,NULL,Begegnung,kukutana,d,NA,NA,NA,NA,sdf,0,0,NA,NA,NA,NA,NA,NA,NA,NA,NA,NA,NA,NA,NA,NA,NA,NA,NA,NA,NA
14c1c,deep,flow.Sequence,5_0_0_0_0_0,NA,NA,completion,20200.16,745497,745440.68,745496.18,765696.34,765697,2024-06-22T12:41:02Z,765713.04,NULL,Begegnung,kukutana,d,NA,NA,NA,NA,sdf,NA,0,NA,NA,NA,NA,NA,NA,NA,NA,NA,NA,NA,NA,NA,NA,NA,NA,NA,NA,NA
14c1c,shallow,flow.Sequence,5_0_0_0_0_1,NA,NA,skipped,NA,765697,NA,NA,765696.34,765697,2024-06-22T12:41:02Z,765713.04,NULL,Begegnung,kukutana,d,NA,NA,NA,NA,sdf,NA,0,NA,NA,NA,NA,NA,NA,NA,NA,NA,NA,NA,NA,NA,NA,NA,NA,NA,NA,NA
14c1c,task,flow.Sequence,5_0_0_0_0,NA,NA,completion,20200.16,745497,745440.68,745496.18,765696.34,765697,2024-06-22T12:41:02Z,765713.04,NULL,Begegnung,kukutana,d,NA,NA,NA,NA,sdf,NA,0,NA,NA,NA,NA,NA,NA,NA,NA,NA,NA,NA,NA,NA,NA,NA,NA,NA,NA,NA
14c1c,Deep Question,html.Page,5_0_0_0_1_0_0,NA,NA,form submission,5122.96,765698,765696.34,765713.04,770836,770837,2024-06-22T12:41:07Z,770850.62,NULL,Genehmigung,idhini,d,NA,NA,NA,dfhshehf,NA,NA,0,NA,NA,NA,NA,NA,NA,NA,NA,NA,NA,NA,NA,NA,NA,NA,NA,NA,NA,NA
14c1c,"""Richtig""-Screen",canvas.Screen,5_0_0_0_1_0_1,NA,NA,skipped,NA,770838,NA,NA,770836,770838,2024-06-22T12:41:07Z,770850.62,NULL,Genehmigung,idhini,d,NA,NA,NA,NA,sdf,NA,0,NA,NA,NA,NA,NA,NA,NA,NA,NA,NA,NA,NA,NA,NA,NA,NA,NA,NA,NA
14c1c,"""Falsch""-Screen",canvas.Screen,5_0_0_0_1_0_2,NA,NA,timeout,5004,770839,770834.76,770850.62,775838.16,775840,2024-06-22T12:41:12Z,775854.62,NULL,Genehmigung,idhini,d,NA,NA,NA,NA,sdf,0,0,NA,NA,NA,NA,NA,NA,NA,NA,NA,NA,NA,NA,NA,NA,NA,NA,NA,NA,NA
14c1c,deep,flow.Sequence,5_0_0_0_1_0,NA,NA,completion,10125.12,765698,765696.34,765713.04,775838.16,775840,2024-06-22T12:41:12Z,775854.62,NULL,Genehmigung,idhini,d,NA,NA,NA,NA,sdf,NA,0,NA,NA,NA,NA,NA,NA,NA,NA,NA,NA,NA,NA,NA,NA,NA,NA,NA,NA,NA
14c1c,shallow,flow.Sequence,5_0_0_0_1_1,NA,NA,skipped,NA,775840,NA,NA,775838.16,775840,2024-06-22T12:41:12Z,775854.62,NULL,Genehmigung,idhini,d,NA,NA,NA,NA,sdf,NA,0,NA,NA,NA,NA,NA,NA,NA,NA,NA,NA,NA,NA,NA,NA,NA,NA,NA,NA,NA
14c1c,task,flow.Sequence,5_0_0_0_1,NA,NA,completion,10125.12,765698,765696.34,765713.04,775838.16,775840,2024-06-22T12:41:12Z,775854.62,NULL,Genehmigung,idhini,d,NA,NA,NA,NA,sdf,NA,0,NA,NA,NA,NA,NA,NA,NA,NA,NA,NA,NA,NA,NA,NA,NA,NA,NA,NA,NA
14c1c,deep,flow.Sequence,5_0_0_0_2_0,NA,NA,skipped,NA,775840,NA,NA,775838.16,775840,2024-06-22T12:41:12Z,775854.62,NULL,Integrität,uadilifu,s,muungano,mtiririko,upunguaji,NA,sdf,NA,0,NA,NA,NA,NA,NA,NA,NA,NA,NA,NA,NA,NA,NA,NA,NA,NA,NA,NA,NA
14c1c,Shallow Question,html.Page,5_0_0_0_2_1_0,NA,NA,form submission,16581.38,775840,775838.16,775854.62,792436,792437,2024-06-22T12:41:29Z,792435.1,NULL,Integrität,uadilifu,s,muungano,mtiririko,upunguaji,mtiririko,NA,NA,0,NA,NA,NA,NA,NA,NA,NA,NA,NA,NA,NA,NA,NA,NA,NA,NA,NA,NA,NA
14c1c,"""Richtig""-Screen",canvas.Screen,5_0_0_0_2_1_1,NA,NA,skipped,NA,792443,NA,NA,792436,792444,2024-06-22T12:41:29Z,792435.1,NULL,Integrität,uadilifu,s,muungano,mtiririko,upunguaji,NA,sdf,NA,0,NA,NA,NA,NA,NA,NA,NA,NA,NA,NA,NA,NA,NA,NA,NA,NA,NA,NA,NA
14c1c,"""Falsch""-Screen",canvas.Screen,5_0_0_0_2_1_2,NA,NA,timeout,5003.6800000001,792446,792431.14,792435.1,797422.1,797423,2024-06-22T12:41:34Z,797438.78,NULL,Integrität,uadilifu,s,muungano,mtiririko,upunguaji,NA,sdf,0,0,NA,NA,NA,NA,NA,NA,NA,NA,NA,NA,NA,NA,NA,NA,NA,NA,NA,NA,NA
14c1c,shallow,flow.Sequence,5_0_0_0_2_1,NA,NA,completion,21567.48,775840,775838.16,775854.62,797422.1,797424,2024-06-22T12:41:34Z,797438.78,NULL,Integrität,uadilifu,s,muungano,mtiririko,upunguaji,NA,sdf,NA,0,NA,NA,NA,NA,NA,NA,NA,NA,NA,NA,NA,NA,NA,NA,NA,NA,NA,NA,NA
14c1c,task,flow.Sequence,5_0_0_0_2,NA,NA,completion,21567.48,775840,775838.16,775854.62,797422.1,797424,2024-06-22T12:41:34Z,797438.78,NULL,Integrität,uadilifu,s,muungano,mtiririko,upunguaji,NA,sdf,NA,0,NA,NA,NA,NA,NA,NA,NA,NA,NA,NA,NA,NA,NA,NA,NA,NA,NA,NA,NA
14c1c,deep,flow.Sequence,5_0_0_0_3_0,NA,NA,skipped,NA,797424,NA,NA,797422.1,797424,2024-06-22T12:41:34Z,797438.78,NULL,Vermutung,udhanifu,s,haramia,tikisho,itifaki,NA,sdf,NA,0,NA,NA,NA,NA,NA,NA,NA,NA,NA,NA,NA,NA,NA,NA,NA,NA,NA,NA,NA
14c1c,Shallow Question,html.Page,5_0_0_0_3_1_0,NA,NA,form submission,6464.22,797425,797422.1,797438.78,803903,803903,2024-06-22T12:41:40Z,803911.3,NULL,Vermutung,udhanifu,s,haramia,tikisho,itifaki,udhanifu,NA,NA,0,NA,NA,NA,NA,NA,NA,NA,NA,NA,NA,NA,NA,NA,NA,NA,NA,NA,NA,NA
14c1c,"""Richtig""-Screen",canvas.Screen,5_0_0_0_3_1_1,NA,NA,timeout,5004.22,803906,803899.68,803911.3,808898.82,808900,2024-06-22T12:41:45Z,808915.52,NULL,Vermutung,udhanifu,s,haramia,tikisho,itifaki,NA,sdf,1,0,NA,NA,NA,NA,NA,NA,NA,NA,NA,NA,NA,NA,NA,NA,NA,NA,NA,NA,NA
14c1c,"""Falsch""-Screen",canvas.Screen,5_0_0_0_3_1_2,NA,NA,skipped,NA,808903,NA,NA,808898.82,808903,2024-06-22T12:41:45Z,808915.52,NULL,Vermutung,udhanifu,s,haramia,tikisho,itifaki,NA,sdf,NA,0,NA,NA,NA,NA,NA,NA,NA,NA,NA,NA,NA,NA,NA,NA,NA,NA,NA,NA,NA
14c1c,shallow,flow.Sequence,5_0_0_0_3_1,NA,NA,completion,11460.04,797425,797422.1,797438.78,808898.82,808904,2024-06-22T12:41:45Z,808915.52,NULL,Vermutung,udhanifu,s,haramia,tikisho,itifaki,NA,sdf,NA,0,NA,NA,NA,NA,NA,NA,NA,NA,NA,NA,NA,NA,NA,NA,NA,NA,NA,NA,NA
14c1c,task,flow.Sequence,5_0_0_0_3,NA,NA,completion,11460.04,797424,797422.1,797438.78,808898.82,808904,2024-06-22T12:41:45Z,808915.52,NULL,Vermutung,udhanifu,s,haramia,tikisho,itifaki,NA,sdf,NA,0,NA,NA,NA,NA,NA,NA,NA,NA,NA,NA,NA,NA,NA,NA,NA,NA,NA,NA,NA
14c1c,deep,flow.Sequence,5_0_0_0_4_0,NA,NA,skipped,NA,808904,NA,NA,808898.82,808905,2024-06-22T12:41:45Z,808915.52,NULL,Fleisch,mshakiki,s,kizunguzungu,mshikamano,angusho,NA,sdf,NA,0,NA,NA,NA,NA,NA,NA,NA,NA,NA,NA,NA,NA,NA,NA,NA,NA,NA,NA,NA
14c1c,Shallow Question,html.Page,5_0_0_0_4_1_0,NA,NA,form submission,7377.48,808905,808898.82,808915.52,816293,816294,2024-06-22T12:41:52Z,816304.9,NULL,Fleisch,mshakiki,s,kizunguzungu,mshikamano,angusho,angusho,NA,NA,0,NA,NA,NA,NA,NA,NA,NA,NA,NA,NA,NA,NA,NA,NA,NA,NA,NA,NA,NA
14c1c,"""Richtig""-Screen",canvas.Screen,5_0_0_0_4_1_1,NA,NA,skipped,NA,816295,NA,NA,816293,816296,2024-06-22T12:41:52Z,816304.9,NULL,Fleisch,mshakiki,s,kizunguzungu,mshikamano,angusho,NA,sdf,NA,0,NA,NA,NA,NA,NA,NA,NA,NA,NA,NA,NA,NA,NA,NA,NA,NA,NA,NA,NA
14c1c,"""Falsch""-Screen",canvas.Screen,5_0_0_0_4_1_2,NA,NA,timeout,5004.16,816298,816289.98,816304.9,821292.36,821294,2024-06-22T12:41:57Z,821309.06,NULL,Fleisch,mshakiki,s,kizunguzungu,mshikamano,angusho,NA,sdf,0,0,NA,NA,NA,NA,NA,NA,NA,NA,NA,NA,NA,NA,NA,NA,NA,NA,NA,NA,NA
14c1c,shallow,flow.Sequence,5_0_0_0_4_1,NA,NA,completion,12376.84,808905,808898.82,808915.52,821292.36,821295,2024-06-22T12:41:57Z,821309.06,NULL,Fleisch,mshakiki,s,kizunguzungu,mshikamano,angusho,NA,sdf,NA,0,NA,NA,NA,NA,NA,NA,NA,NA,NA,NA,NA,NA,NA,NA,NA,NA,NA,NA,NA
14c1c,task,flow.Sequence,5_0_0_0_4,NA,NA,completion,12376.84,808904,808898.82,808915.52,821292.36,821295,2024-06-22T12:41:57Z,821309.06,NULL,Fleisch,mshakiki,s,kizunguzungu,mshikamano,angusho,NA,sdf,NA,0,NA,NA,NA,NA,NA,NA,NA,NA,NA,NA,NA,NA,NA,NA,NA,NA,NA,NA,NA
14c1c,Deep Question,html.Page,5_0_0_0_5_0_0,NA,NA,form submission,3671.9399999999,821295,821292.36,821309.06,824981,824981,2024-06-22T12:42:01Z,824979.92,NULL,Schlange,foleni,d,NA,NA,NA,cjewhkvja,NA,NA,0,NA,NA,NA,NA,NA,NA,NA,NA,NA,NA,NA,NA,NA,NA,NA,NA,NA,NA,NA
14c1c,"""Richtig""-Screen",canvas.Screen,5_0_0_0_5_0_1,NA,NA,skipped,NA,824982,NA,NA,824981,824982,2024-06-22T12:42:01Z,824979.92,NULL,Schlange,foleni,d,NA,NA,NA,NA,sdf,NA,0,NA,NA,NA,NA,NA,NA,NA,NA,NA,NA,NA,NA,NA,NA,NA,NA,NA,NA,NA
14c1c,"""Falsch""-Screen",canvas.Screen,5_0_0_0_5_0_2,NA,NA,timeout,5002.7999999999,824984,824979.46,824979.92,829966.22,829968,2024-06-22T12:42:06Z,829982.72,NULL,Schlange,foleni,d,NA,NA,NA,NA,sdf,0,0,NA,NA,NA,NA,NA,NA,NA,NA,NA,NA,NA,NA,NA,NA,NA,NA,NA,NA,NA
14c1c,deep,flow.Sequence,5_0_0_0_5_0,NA,NA,completion,8657.1599999999,821295,821292.36,821309.06,829966.22,829969,2024-06-22T12:42:06Z,829982.72,NULL,Schlange,foleni,d,NA,NA,NA,NA,sdf,NA,0,NA,NA,NA,NA,NA,NA,NA,NA,NA,NA,NA,NA,NA,NA,NA,NA,NA,NA,NA
14c1c,shallow,flow.Sequence,5_0_0_0_5_1,NA,NA,skipped,NA,829969,NA,NA,829966.22,829969,2024-06-22T12:42:06Z,829982.72,NULL,Schlange,foleni,d,NA,NA,NA,NA,sdf,NA,0,NA,NA,NA,NA,NA,NA,NA,NA,NA,NA,NA,NA,NA,NA,NA,NA,NA,NA,NA
14c1c,task,flow.Sequence,5_0_0_0_5,NA,NA,completion,8657.1599999999,821295,821292.36,821309.06,829966.22,829969,2024-06-22T12:42:06Z,829982.72,NULL,Schlange,foleni,d,NA,NA,NA,NA,sdf,NA,0,NA,NA,NA,NA,NA,NA,NA,NA,NA,NA,NA,NA,NA,NA,NA,NA,NA,NA,NA
14c1c,Deep Question,html.Page,5_0_0_0_6_0_0,NA,NA,form submission,4871.28,829970,829966.22,829982.72,834854,834855,2024-06-22T12:42:11Z,834853.52,NULL,Toleranz,kuvumiliana,d,NA,NA,NA,vfnshfgiure,NA,NA,0,NA,NA,NA,NA,NA,NA,NA,NA,NA,NA,NA,NA,NA,NA,NA,NA,NA,NA,NA
14c1c,"""Richtig""-Screen",canvas.Screen,5_0_0_0_6_0_1,NA,NA,skipped,NA,834856,NA,NA,834854,834856,2024-06-22T12:42:11Z,834853.52,NULL,Toleranz,kuvumiliana,d,NA,NA,NA,NA,sdf,NA,0,NA,NA,NA,NA,NA,NA,NA,NA,NA,NA,NA,NA,NA,NA,NA,NA,NA,NA,NA
14c1c,"""Falsch""-Screen",canvas.Screen,5_0_0_0_6_0_2,NA,NA,timeout,5004.16,834858,834852.88,834853.52,839840.98,839842,2024-06-22T12:42:16Z,839857.68,NULL,Toleranz,kuvumiliana,d,NA,NA,NA,NA,sdf,0,0,NA,NA,NA,NA,NA,NA,NA,NA,NA,NA,NA,NA,NA,NA,NA,NA,NA,NA,NA
14c1c,deep,flow.Sequence,5_0_0_0_6_0,NA,NA,completion,9858.26,829970,829966.22,829982.72,839840.98,839842,2024-06-22T12:42:16Z,839857.68,NULL,Toleranz,kuvumiliana,d,NA,NA,NA,NA,sdf,NA,0,NA,NA,NA,NA,NA,NA,NA,NA,NA,NA,NA,NA,NA,NA,NA,NA,NA,NA,NA
14c1c,shallow,flow.Sequence,5_0_0_0_6_1,NA,NA,skipped,NA,839842,NA,NA,839840.98,839842,2024-06-22T12:42:16Z,839857.68,NULL,Toleranz,kuvumiliana,d,NA,NA,NA,NA,sdf,NA,0,NA,NA,NA,NA,NA,NA,NA,NA,NA,NA,NA,NA,NA,NA,NA,NA,NA,NA,NA
14c1c,task,flow.Sequence,5_0_0_0_6,NA,NA,completion,9858.26,829970,829966.22,829982.72,839840.98,839843,2024-06-22T12:42:16Z,839857.68,NULL,Toleranz,kuvumiliana,d,NA,NA,NA,NA,sdf,NA,0,NA,NA,NA,NA,NA,NA,NA,NA,NA,NA,NA,NA,NA,NA,NA,NA,NA,NA,NA
14c1c,deep,flow.Sequence,5_0_0_0_7_0,NA,NA,skipped,NA,839843,NA,NA,839840.98,839843,2024-06-22T12:42:16Z,839857.68,NULL,Inhalt,yaliyomo,s,kishawishi,hifadhi,kutembea,NA,sdf,NA,0,NA,NA,NA,NA,NA,NA,NA,NA,NA,NA,NA,NA,NA,NA,NA,NA,NA,NA,NA
14c1c,Shallow Question,html.Page,5_0_0_0_7_1_0,NA,NA,form submission,15428.32,839843,839840.98,839857.68,855286,855286,2024-06-22T12:42:31Z,855287.12,NULL,Inhalt,yaliyomo,s,kishawishi,hifadhi,kutembea,kutembea,NA,NA,0,NA,NA,NA,NA,NA,NA,NA,NA,NA,NA,NA,NA,NA,NA,NA,NA,NA,NA,NA
14c1c,"""Richtig""-Screen",canvas.Screen,5_0_0_0_7_1_1,NA,NA,skipped,NA,855289,NA,NA,855286,855289,2024-06-22T12:42:31Z,855287.12,NULL,Inhalt,yaliyomo,s,kishawishi,hifadhi,kutembea,NA,sdf,NA,0,NA,NA,NA,NA,NA,NA,NA,NA,NA,NA,NA,NA,NA,NA,NA,NA,NA,NA,NA
14c1c,"""Falsch""-Screen",canvas.Screen,5_0_0_0_7_1_2,NA,NA,timeout,5004.2,855290,855283.52,855287.12,860274.62,860275,2024-06-22T12:42:36Z,860291.32,NULL,Inhalt,yaliyomo,s,kishawishi,hifadhi,kutembea,NA,sdf,0,0,NA,NA,NA,NA,NA,NA,NA,NA,NA,NA,NA,NA,NA,NA,NA,NA,NA,NA,NA
14c1c,shallow,flow.Sequence,5_0_0_0_7_1,NA,NA,completion,20416.94,839843,839840.98,839857.68,860274.62,860277,2024-06-22T12:42:36Z,860291.32,NULL,Inhalt,yaliyomo,s,kishawishi,hifadhi,kutembea,NA,sdf,NA,0,NA,NA,NA,NA,NA,NA,NA,NA,NA,NA,NA,NA,NA,NA,NA,NA,NA,NA,NA
14c1c,task,flow.Sequence,5_0_0_0_7,NA,NA,completion,20416.94,839843,839840.98,839857.68,860274.62,860277,2024-06-22T12:42:36Z,860291.32,NULL,Inhalt,yaliyomo,s,kishawishi,hifadhi,kutembea,NA,sdf,NA,0,NA,NA,NA,NA,NA,NA,NA,NA,NA,NA,NA,NA,NA,NA,NA,NA,NA,NA,NA
14c1c,block,flow.Loop,5_0_0_0,NA,NA,completion,114778.44,745497,745440.68,745496.18,860274.62,860277,2024-06-22T12:42:36Z,860291.32,NULL,NA,NA,NA,NA,NA,NA,NA,sdf,NA,0,NA,NA,NA,NA,NA,NA,NA,NA,NA,NA,NA,NA,NA,NA,NA,NA,NA,NA,NA
14c1c,weiter,canvas.Screen,5_0_0_1,sdf,keypress(Space),response,1065.6800000001,860277,860274.62,860291.32,861357,861366,2024-06-22T12:42:38Z,861415,NULL,NA,NA,NA,NA,NA,NA,NA,sdf,NA,0,NA,NA,NA,NA,NA,NA,NA,NA,NA,NA,NA,NA,NA,NA,NA,NA,NA,NA,NA
14c1c,check continue,flow.Sequence,5_0_0,NA,NA,completion,115860.82,745497,745440.68,745496.18,861357,861367,2024-06-22T12:42:38Z,861415,NULL,NA,NA,NA,NA,NA,NA,NA,sdf,NA,0,NA,NA,NA,NA,NA,NA,NA,NA,NA,NA,NA,NA,NA,NA,NA,NA,NA,NA,NA
14c1c,Deep Question,html.Page,5_0_1_0_0_0_0,NA,NA,form submission,25708,861414,861414.64,861415,887123,887123,2024-06-22T12:43:03Z,887130.18,NULL,Begegnung,kukutana,d,NA,NA,NA,vfkjdsbkfhb,NA,NA,1,NA,NA,NA,NA,NA,NA,NA,NA,NA,NA,NA,NA,NA,NA,NA,NA,NA,NA,NA
14c1c,"""Richtig""-Screen",canvas.Screen,5_0_1_0_0_0_1,NA,NA,skipped,NA,887125,NA,NA,887123,887125,2024-06-22T12:43:03Z,887130.18,NULL,Begegnung,kukutana,d,NA,NA,NA,NA,sdfdsf,NA,1,NA,NA,NA,NA,NA,NA,NA,NA,NA,NA,NA,NA,NA,NA,NA,NA,NA,NA,NA
14c1c,"""Falsch""-Screen",canvas.Screen,5_0_1_0_0_0_2,NA,NA,timeout,5004.1399999999,887127,887122.22,887130.18,892117.7,892120,2024-06-22T12:43:08Z,892134.32,NULL,Begegnung,kukutana,d,NA,NA,NA,NA,sdfdsf,0,1,NA,NA,NA,NA,NA,NA,NA,NA,NA,NA,NA,NA,NA,NA,NA,NA,NA,NA,NA
14c1c,deep,flow.Sequence,5_0_1_0_0_0,NA,NA,completion,30702.7,861414,861414.64,861415,892117.7,892121,2024-06-22T12:43:08Z,892134.32,NULL,Begegnung,kukutana,d,NA,NA,NA,NA,sdfdsf,NA,1,NA,NA,NA,NA,NA,NA,NA,NA,NA,NA,NA,NA,NA,NA,NA,NA,NA,NA,NA
14c1c,shallow,flow.Sequence,5_0_1_0_0_1,NA,NA,skipped,NA,892121,NA,NA,892117.7,892121,2024-06-22T12:43:08Z,892134.32,NULL,Begegnung,kukutana,d,NA,NA,NA,NA,sdfdsf,NA,1,NA,NA,NA,NA,NA,NA,NA,NA,NA,NA,NA,NA,NA,NA,NA,NA,NA,NA,NA
14c1c,task,flow.Sequence,5_0_1_0_0,NA,NA,completion,30702.7,861414,861414.64,861415,892117.7,892121,2024-06-22T12:43:08Z,892134.32,NULL,Begegnung,kukutana,d,NA,NA,NA,NA,sdfdsf,NA,1,NA,NA,NA,NA,NA,NA,NA,NA,NA,NA,NA,NA,NA,NA,NA,NA,NA,NA,NA
14c1c,Deep Question,html.Page,5_0_1_0_1_0_0,NA,NA,form submission,17698.68,892121,892117.7,892134.32,909833,909833,2024-06-22T12:43:26Z,909832.06,NULL,Genehmigung,idhini,d,NA,NA,NA,bjksjfg,NA,NA,1,NA,NA,NA,NA,NA,NA,NA,NA,NA,NA,NA,NA,NA,NA,NA,NA,NA,NA,NA
14c1c,"""Richtig""-Screen",canvas.Screen,5_0_1_0_1_0_1,NA,NA,skipped,NA,909834,NA,NA,909833,909835,2024-06-22T12:43:26Z,909832.06,NULL,Genehmigung,idhini,d,NA,NA,NA,NA,sdfdsf,NA,1,NA,NA,NA,NA,NA,NA,NA,NA,NA,NA,NA,NA,NA,NA,NA,NA,NA,NA,NA
14c1c,"""Falsch""-Screen",canvas.Screen,5_0_1_0_1_0_2,NA,NA,timeout,5004.22,909836,909831.88,909832.06,914819.58,914824,2024-06-22T12:43:31Z,914836.28,NULL,Genehmigung,idhini,d,NA,NA,NA,NA,sdfdsf,0,1,NA,NA,NA,NA,NA,NA,NA,NA,NA,NA,NA,NA,NA,NA,NA,NA,NA,NA,NA
14c1c,deep,flow.Sequence,5_0_1_0_1_0,NA,NA,completion,22685.26,892121,892117.7,892134.32,914819.58,914826,2024-06-22T12:43:31Z,914836.28,NULL,Genehmigung,idhini,d,NA,NA,NA,NA,sdfdsf,NA,1,NA,NA,NA,NA,NA,NA,NA,NA,NA,NA,NA,NA,NA,NA,NA,NA,NA,NA,NA
14c1c,shallow,flow.Sequence,5_0_1_0_1_1,NA,NA,skipped,NA,914827,NA,NA,914819.58,914827,2024-06-22T12:43:31Z,914836.28,NULL,Genehmigung,idhini,d,NA,NA,NA,NA,sdfdsf,NA,1,NA,NA,NA,NA,NA,NA,NA,NA,NA,NA,NA,NA,NA,NA,NA,NA,NA,NA,NA
14c1c,task,flow.Sequence,5_0_1_0_1,NA,NA,completion,22685.26,892121,892117.7,892134.32,914819.58,914827,2024-06-22T12:43:31Z,914836.28,NULL,Genehmigung,idhini,d,NA,NA,NA,NA,sdfdsf,NA,1,NA,NA,NA,NA,NA,NA,NA,NA,NA,NA,NA,NA,NA,NA,NA,NA,NA,NA,NA
14c1c,deep,flow.Sequence,5_0_1_0_2_0,NA,NA,skipped,NA,914827,NA,NA,914819.58,914827,2024-06-22T12:43:31Z,914836.28,NULL,Fleisch,mshakiki,s,kizunguzungu,mshikamano,angusho,NA,sdfdsf,NA,1,NA,NA,NA,NA,NA,NA,NA,NA,NA,NA,NA,NA,NA,NA,NA,NA,NA,NA,NA
14c1c,Shallow Question,html.Page,5_0_1_0_2_1_0,NA,NA,form submission,5807.72,914827,914819.58,914836.28,920644,920644,2024-06-22T12:43:37Z,920641.18,NULL,Fleisch,mshakiki,s,kizunguzungu,mshikamano,angusho,mshakiki,NA,NA,1,NA,NA,NA,NA,NA,NA,NA,NA,NA,NA,NA,NA,NA,NA,NA,NA,NA,NA,NA
14c1c,"""Richtig""-Screen",canvas.Screen,5_0_1_0_2_1_1,NA,NA,timeout,5008.34,920651,920639.32,920641.18,925628.74,925630,2024-06-22T12:43:42Z,925649.52,NULL,Fleisch,mshakiki,s,kizunguzungu,mshikamano,angusho,NA,sdfdsf,1,1,NA,NA,NA,NA,NA,NA,NA,NA,NA,NA,NA,NA,NA,NA,NA,NA,NA,NA,NA
14c1c,"""Falsch""-Screen",canvas.Screen,5_0_1_0_2_1_2,NA,NA,skipped,NA,925634,NA,NA,925628.74,925634,2024-06-22T12:43:42Z,925649.52,NULL,Fleisch,mshakiki,s,kizunguzungu,mshikamano,angusho,NA,sdfdsf,NA,1,NA,NA,NA,NA,NA,NA,NA,NA,NA,NA,NA,NA,NA,NA,NA,NA,NA,NA,NA
14c1c,shallow,flow.Sequence,5_0_1_0_2_1,NA,NA,completion,10792.46,914827,914819.58,914836.28,925628.74,925634,2024-06-22T12:43:42Z,925649.52,NULL,Fleisch,mshakiki,s,kizunguzungu,mshikamano,angusho,NA,sdfdsf,NA,1,NA,NA,NA,NA,NA,NA,NA,NA,NA,NA,NA,NA,NA,NA,NA,NA,NA,NA,NA
14c1c,task,flow.Sequence,5_0_1_0_2,NA,NA,completion,10792.46,914827,914819.58,914836.28,925628.74,925634,2024-06-22T12:43:42Z,925649.52,NULL,Fleisch,mshakiki,s,kizunguzungu,mshikamano,angusho,NA,sdfdsf,NA,1,NA,NA,NA,NA,NA,NA,NA,NA,NA,NA,NA,NA,NA,NA,NA,NA,NA,NA,NA
14c1c,Deep Question,html.Page,5_0_1_0_3_0_0,NA,NA,form submission,4264.48,925635,925628.74,925649.52,929914,929915,2024-06-22T12:43:46Z,929915.4,NULL,Schlange,foleni,d,NA,NA,NA,idhini,NA,NA,1,NA,NA,NA,NA,NA,NA,NA,NA,NA,NA,NA,NA,NA,NA,NA,NA,NA,NA,NA
14c1c,"""Richtig""-Screen",canvas.Screen,5_0_1_0_3_0_1,NA,NA,skipped,NA,929917,NA,NA,929914,929917,2024-06-22T12:43:46Z,929915.4,NULL,Schlange,foleni,d,NA,NA,NA,NA,sdfdsf,NA,1,NA,NA,NA,NA,NA,NA,NA,NA,NA,NA,NA,NA,NA,NA,NA,NA,NA,NA,NA
14c1c,"""Falsch""-Screen",canvas.Screen,5_0_1_0_3_0_2,NA,NA,timeout,5004.38,929919,929913.04,929915.4,934903.08,934904,2024-06-22T12:43:51Z,934919.78,NULL,Schlange,foleni,d,NA,NA,NA,NA,sdfdsf,0,1,NA,NA,NA,NA,NA,NA,NA,NA,NA,NA,NA,NA,NA,NA,NA,NA,NA,NA,NA
14c1c,deep,flow.Sequence,5_0_1_0_3_0,NA,NA,completion,9253.5599999999,925634,925628.74,925649.52,934903.08,934905,2024-06-22T12:43:51Z,934919.78,NULL,Schlange,foleni,d,NA,NA,NA,NA,sdfdsf,NA,1,NA,NA,NA,NA,NA,NA,NA,NA,NA,NA,NA,NA,NA,NA,NA,NA,NA,NA,NA
14c1c,shallow,flow.Sequence,5_0_1_0_3_1,NA,NA,skipped,NA,934905,NA,NA,934903.08,934905,2024-06-22T12:43:51Z,934919.78,NULL,Schlange,foleni,d,NA,NA,NA,NA,sdfdsf,NA,1,NA,NA,NA,NA,NA,NA,NA,NA,NA,NA,NA,NA,NA,NA,NA,NA,NA,NA,NA
14c1c,task,flow.Sequence,5_0_1_0_3,NA,NA,completion,9253.5599999999,925634,925628.74,925649.52,934903.08,934906,2024-06-22T12:43:51Z,934919.78,NULL,Schlange,foleni,d,NA,NA,NA,NA,sdfdsf,NA,1,NA,NA,NA,NA,NA,NA,NA,NA,NA,NA,NA,NA,NA,NA,NA,NA,NA,NA,NA
14c1c,deep,flow.Sequence,5_0_1_0_4_0,NA,NA,skipped,NA,934906,NA,NA,934903.08,934906,2024-06-22T12:43:51Z,934919.78,NULL,Vermutung,udhanifu,s,haramia,tikisho,itifaki,NA,sdfdsf,NA,1,NA,NA,NA,NA,NA,NA,NA,NA,NA,NA,NA,NA,NA,NA,NA,NA,NA,NA,NA
14c1c,Shallow Question,html.Page,5_0_1_0_4_1_0,NA,NA,form submission,5596.22,934906,934903.08,934919.78,940516,940517,2024-06-22T12:43:57Z,940524.26,NULL,Vermutung,udhanifu,s,haramia,tikisho,itifaki,udhanifu,NA,NA,1,NA,NA,NA,NA,NA,NA,NA,NA,NA,NA,NA,NA,NA,NA,NA,NA,NA,NA,NA
14c1c,"""Richtig""-Screen",canvas.Screen,5_0_1_0_4_1_1,NA,NA,timeout,5004.12,940519,940513.54,940524.26,945511.68,945513,2024-06-22T12:44:02Z,945528.38,NULL,Vermutung,udhanifu,s,haramia,tikisho,itifaki,NA,sdfdsf,1,1,NA,NA,NA,NA,NA,NA,NA,NA,NA,NA,NA,NA,NA,NA,NA,NA,NA,NA,NA
14c1c,"""Falsch""-Screen",canvas.Screen,5_0_1_0_4_1_2,NA,NA,skipped,NA,945515,NA,NA,945511.68,945515,2024-06-22T12:44:02Z,945528.38,NULL,Vermutung,udhanifu,s,haramia,tikisho,itifaki,NA,sdfdsf,NA,1,NA,NA,NA,NA,NA,NA,NA,NA,NA,NA,NA,NA,NA,NA,NA,NA,NA,NA,NA
14c1c,shallow,flow.Sequence,5_0_1_0_4_1,NA,NA,completion,10591.9,934906,934903.08,934919.78,945511.68,945516,2024-06-22T12:44:02Z,945528.38,NULL,Vermutung,udhanifu,s,haramia,tikisho,itifaki,NA,sdfdsf,NA,1,NA,NA,NA,NA,NA,NA,NA,NA,NA,NA,NA,NA,NA,NA,NA,NA,NA,NA,NA
14c1c,task,flow.Sequence,5_0_1_0_4,NA,NA,completion,10591.9,934906,934903.08,934919.78,945511.68,945516,2024-06-22T12:44:02Z,945528.38,NULL,Vermutung,udhanifu,s,haramia,tikisho,itifaki,NA,sdfdsf,NA,1,NA,NA,NA,NA,NA,NA,NA,NA,NA,NA,NA,NA,NA,NA,NA,NA,NA,NA,NA
14c1c,Deep Question,html.Page,5_0_1_0_5_0_0,NA,NA,form submission,3984.62,945516,945511.68,945528.38,949513,949513,2024-06-22T12:44:06Z,949514.96,NULL,Toleranz,kuvumiliana,d,NA,NA,NA,vnjhwsgujrw,NA,NA,1,NA,NA,NA,NA,NA,NA,NA,NA,NA,NA,NA,NA,NA,NA,NA,NA,NA,NA,NA
14c1c,"""Richtig""-Screen",canvas.Screen,5_0_1_0_5_0_1,NA,NA,skipped,NA,949515,NA,NA,949513,949515,2024-06-22T12:44:06Z,949514.96,NULL,Toleranz,kuvumiliana,d,NA,NA,NA,NA,sdfdsf,NA,1,NA,NA,NA,NA,NA,NA,NA,NA,NA,NA,NA,NA,NA,NA,NA,NA,NA,NA,NA
14c1c,"""Falsch""-Screen",canvas.Screen,5_0_1_0_5_0_2,NA,NA,timeout,5004.24,949516,949511.1,949514.96,954502.5,954504,2024-06-22T12:44:11Z,954519.2,NULL,Toleranz,kuvumiliana,d,NA,NA,NA,NA,sdfdsf,0,1,NA,NA,NA,NA,NA,NA,NA,NA,NA,NA,NA,NA,NA,NA,NA,NA,NA,NA,NA
14c1c,deep,flow.Sequence,5_0_1_0_5_0,NA,NA,completion,8974.12,945516,945511.68,945528.38,954502.5,954504,2024-06-22T12:44:11Z,954519.2,NULL,Toleranz,kuvumiliana,d,NA,NA,NA,NA,sdfdsf,NA,1,NA,NA,NA,NA,NA,NA,NA,NA,NA,NA,NA,NA,NA,NA,NA,NA,NA,NA,NA
14c1c,shallow,flow.Sequence,5_0_1_0_5_1,NA,NA,skipped,NA,954504,NA,NA,954502.5,954504,2024-06-22T12:44:11Z,954519.2,NULL,Toleranz,kuvumiliana,d,NA,NA,NA,NA,sdfdsf,NA,1,NA,NA,NA,NA,NA,NA,NA,NA,NA,NA,NA,NA,NA,NA,NA,NA,NA,NA,NA
14c1c,task,flow.Sequence,5_0_1_0_5,NA,NA,completion,8974.12,945516,945511.68,945528.38,954502.5,954504,2024-06-22T12:44:11Z,954519.2,NULL,Toleranz,kuvumiliana,d,NA,NA,NA,NA,sdfdsf,NA,1,NA,NA,NA,NA,NA,NA,NA,NA,NA,NA,NA,NA,NA,NA,NA,NA,NA,NA,NA
14c1c,deep,flow.Sequence,5_0_1_0_6_0,NA,NA,skipped,NA,954505,NA,NA,954502.5,954505,2024-06-22T12:44:11Z,954519.2,NULL,Integrität,uadilifu,s,muungano,mtiririko,upunguaji,NA,sdfdsf,NA,1,NA,NA,NA,NA,NA,NA,NA,NA,NA,NA,NA,NA,NA,NA,NA,NA,NA,NA,NA
14c1c,Shallow Question,html.Page,5_0_1_0_6_1_0,NA,NA,form submission,7539.8,954505,954502.5,954519.2,962059,962059,2024-06-22T12:44:18Z,962058.78,NULL,Integrität,uadilifu,s,muungano,mtiririko,upunguaji,upunguaji,NA,NA,1,NA,NA,NA,NA,NA,NA,NA,NA,NA,NA,NA,NA,NA,NA,NA,NA,NA,NA,NA
14c1c,"""Richtig""-Screen",canvas.Screen,5_0_1_0_6_1_1,NA,NA,skipped,NA,962062,NA,NA,962059,962062,2024-06-22T12:44:18Z,962058.78,NULL,Integrität,uadilifu,s,muungano,mtiririko,upunguaji,NA,sdfdsf,NA,1,NA,NA,NA,NA,NA,NA,NA,NA,NA,NA,NA,NA,NA,NA,NA,NA,NA,NA,NA
14c1c,"""Falsch""-Screen",canvas.Screen,5_0_1_0_6_1_2,NA,NA,timeout,5004.1,962063,962055.64,962058.78,967046.18,967047,2024-06-22T12:44:23Z,967062.88,NULL,Integrität,uadilifu,s,muungano,mtiririko,upunguaji,NA,sdfdsf,0,1,NA,NA,NA,NA,NA,NA,NA,NA,NA,NA,NA,NA,NA,NA,NA,NA,NA,NA,NA
14c1c,shallow,flow.Sequence,5_0_1_0_6_1,NA,NA,completion,12526.98,954505,954502.5,954519.2,967046.18,967048,2024-06-22T12:44:23Z,967062.88,NULL,Integrität,uadilifu,s,muungano,mtiririko,upunguaji,NA,sdfdsf,NA,1,NA,NA,NA,NA,NA,NA,NA,NA,NA,NA,NA,NA,NA,NA,NA,NA,NA,NA,NA
14c1c,task,flow.Sequence,5_0_1_0_6,NA,NA,completion,12526.98,954505,954502.5,954519.2,967046.18,967048,2024-06-22T12:44:23Z,967062.88,NULL,Integrität,uadilifu,s,muungano,mtiririko,upunguaji,NA,sdfdsf,NA,1,NA,NA,NA,NA,NA,NA,NA,NA,NA,NA,NA,NA,NA,NA,NA,NA,NA,NA,NA
14c1c,deep,flow.Sequence,5_0_1_0_7_0,NA,NA,skipped,NA,967048,NA,NA,967046.18,967048,2024-06-22T12:44:23Z,967062.88,NULL,Inhalt,yaliyomo,s,kishawishi,hifadhi,kutembea,NA,sdfdsf,NA,1,NA,NA,NA,NA,NA,NA,NA,NA,NA,NA,NA,NA,NA,NA,NA,NA,NA,NA,NA
14c1c,Shallow Question,html.Page,5_0_1_0_7_1_0,NA,NA,form submission,7073.12,967048,967046.18,967062.88,974136,974137,2024-06-22T12:44:30Z,974135.34,NULL,Inhalt,yaliyomo,s,kishawishi,hifadhi,kutembea,kutembea,NA,NA,1,NA,NA,NA,NA,NA,NA,NA,NA,NA,NA,NA,NA,NA,NA,NA,NA,NA,NA,NA
14c1c,"""Richtig""-Screen",canvas.Screen,5_0_1_0_7_1_1,NA,NA,skipped,NA,974144,NA,NA,974136,974145,2024-06-22T12:44:30Z,974135.34,NULL,Inhalt,yaliyomo,s,kishawishi,hifadhi,kutembea,NA,sdfdsf,NA,1,NA,NA,NA,NA,NA,NA,NA,NA,NA,NA,NA,NA,NA,NA,NA,NA,NA,NA,NA
14c1c,"""Falsch""-Screen",canvas.Screen,5_0_1_0_7_1_2,NA,NA,timeout,5004.12,974147,974130.32,974135.34,979122.76,979124,2024-06-22T12:44:35Z,979139.46,NULL,Inhalt,yaliyomo,s,kishawishi,hifadhi,kutembea,NA,sdfdsf,0,1,NA,NA,NA,NA,NA,NA,NA,NA,NA,NA,NA,NA,NA,NA,NA,NA,NA,NA,NA
14c1c,shallow,flow.Sequence,5_0_1_0_7_1,NA,NA,completion,12059.88,967048,967046.18,967062.88,979122.76,979125,2024-06-22T12:44:35Z,979139.46,NULL,Inhalt,yaliyomo,s,kishawishi,hifadhi,kutembea,NA,sdfdsf,NA,1,NA,NA,NA,NA,NA,NA,NA,NA,NA,NA,NA,NA,NA,NA,NA,NA,NA,NA,NA
14c1c,task,flow.Sequence,5_0_1_0_7,NA,NA,completion,12059.88,967048,967046.18,967062.88,979122.76,979125,2024-06-22T12:44:35Z,979139.46,NULL,Inhalt,yaliyomo,s,kishawishi,hifadhi,kutembea,NA,sdfdsf,NA,1,NA,NA,NA,NA,NA,NA,NA,NA,NA,NA,NA,NA,NA,NA,NA,NA,NA,NA,NA
14c1c,block,flow.Loop,5_0_1_0,NA,NA,completion,117707.76,861414,861414.64,861415,979122.76,979125,2024-06-22T12:44:35Z,979139.46,NULL,NA,NA,NA,NA,NA,NA,NA,sdfdsf,NA,1,NA,NA,NA,NA,NA,NA,NA,NA,NA,NA,NA,NA,NA,NA,NA,NA,NA,NA,NA
14c1c,weiter,canvas.Screen,5_0_1_1,sdf,keypress(Space),response,1075.54,979125,979122.76,979139.46,980215,980224,2024-06-22T12:44:36Z,980280.6,NULL,NA,NA,NA,NA,NA,NA,NA,sdfdsf,NA,1,NA,NA,NA,NA,NA,NA,NA,NA,NA,NA,NA,NA,NA,NA,NA,NA,NA,NA,NA
14c1c,check continue,flow.Sequence,5_0_1,NA,NA,completion,118800,861414,861414.64,861415,980215,980224,2024-06-22T12:44:36Z,980280.6,NULL,NA,NA,NA,NA,NA,NA,NA,sdfdsf,NA,1,NA,NA,NA,NA,NA,NA,NA,NA,NA,NA,NA,NA,NA,NA,NA,NA,NA,NA,NA
14c1c,deep,flow.Sequence,5_0_2_0_0_0,NA,NA,skipped,NA,980280,NA,NA,980215,980280,2024-06-22T12:44:36Z,980280.6,NULL,Integrität,uadilifu,s,muungano,mtiririko,upunguaji,NA,sdf,NA,2,NA,NA,NA,NA,NA,NA,NA,NA,NA,NA,NA,NA,NA,NA,NA,NA,NA,NA,NA
14c1c,Shallow Question,html.Page,5_0_2_0_0_1_0,NA,NA,form submission,4038.4,980280,980280.32,980280.6,984319,984319,2024-06-22T12:44:40Z,984327.2,NULL,Integrität,uadilifu,s,muungano,mtiririko,upunguaji,uadilifu,NA,NA,2,NA,NA,NA,NA,NA,NA,NA,NA,NA,NA,NA,NA,NA,NA,NA,NA,NA,NA,NA
14c1c,"""Richtig""-Screen",canvas.Screen,5_0_2_0_0_1_1,NA,NA,timeout,5004.2200000001,984321,984315.34,984327.2,989314.72,989316,2024-06-22T12:44:45Z,989331.42,NULL,Integrität,uadilifu,s,muungano,mtiririko,upunguaji,NA,sdf,1,2,NA,NA,NA,NA,NA,NA,NA,NA,NA,NA,NA,NA,NA,NA,NA,NA,NA,NA,NA
14c1c,"""Falsch""-Screen",canvas.Screen,5_0_2_0_0_1_2,NA,NA,skipped,NA,989319,NA,NA,989314.72,989319,2024-06-22T12:44:45Z,989331.42,NULL,Integrität,uadilifu,s,muungano,mtiririko,upunguaji,NA,sdf,NA,2,NA,NA,NA,NA,NA,NA,NA,NA,NA,NA,NA,NA,NA,NA,NA,NA,NA,NA,NA
14c1c,shallow,flow.Sequence,5_0_2_0_0_1,NA,NA,completion,9034.12,980280,980280.32,980280.6,989314.72,989320,2024-06-22T12:44:45Z,989331.42,NULL,Integrität,uadilifu,s,muungano,mtiririko,upunguaji,NA,sdf,NA,2,NA,NA,NA,NA,NA,NA,NA,NA,NA,NA,NA,NA,NA,NA,NA,NA,NA,NA,NA
14c1c,task,flow.Sequence,5_0_2_0_0,NA,NA,completion,9034.12,980280,980280.32,980280.6,989314.72,989320,2024-06-22T12:44:45Z,989331.42,NULL,Integrität,uadilifu,s,muungano,mtiririko,upunguaji,NA,sdf,NA,2,NA,NA,NA,NA,NA,NA,NA,NA,NA,NA,NA,NA,NA,NA,NA,NA,NA,NA,NA
14c1c,Deep Question,html.Page,5_0_2_0_1_0_0,NA,NA,form submission,3680.58,989320,989314.72,989331.42,993012,993012,2024-06-22T12:44:49Z,993017.84,NULL,Begegnung,kukutana,d,NA,NA,NA,idhini,NA,NA,2,NA,NA,NA,NA,NA,NA,NA,NA,NA,NA,NA,NA,NA,NA,NA,NA,NA,NA,NA
14c1c,"""Richtig""-Screen",canvas.Screen,5_0_2_0_1_0_1,NA,NA,skipped,NA,993014,NA,NA,993012,993015,2024-06-22T12:44:49Z,993017.84,NULL,Begegnung,kukutana,d,NA,NA,NA,NA,sdf,NA,2,NA,NA,NA,NA,NA,NA,NA,NA,NA,NA,NA,NA,NA,NA,NA,NA,NA,NA,NA
14c1c,"""Falsch""-Screen",canvas.Screen,5_0_2_0_1_0_2,NA,NA,timeout,5003.98,993015,993010.58,993017.84,998005.12,998007,2024-06-22T12:44:54Z,998021.82,NULL,Begegnung,kukutana,d,NA,NA,NA,NA,sdf,0,2,NA,NA,NA,NA,NA,NA,NA,NA,NA,NA,NA,NA,NA,NA,NA,NA,NA,NA,NA
14c1c,deep,flow.Sequence,5_0_2_0_1_0,NA,NA,completion,8673.7,989320,989314.72,989331.42,998005.12,998007,2024-06-22T12:44:54Z,998021.82,NULL,Begegnung,kukutana,d,NA,NA,NA,NA,sdf,NA,2,NA,NA,NA,NA,NA,NA,NA,NA,NA,NA,NA,NA,NA,NA,NA,NA,NA,NA,NA
14c1c,shallow,flow.Sequence,5_0_2_0_1_1,NA,NA,skipped,NA,998007,NA,NA,998005.12,998007,2024-06-22T12:44:54Z,998021.82,NULL,Begegnung,kukutana,d,NA,NA,NA,NA,sdf,NA,2,NA,NA,NA,NA,NA,NA,NA,NA,NA,NA,NA,NA,NA,NA,NA,NA,NA,NA,NA
14c1c,task,flow.Sequence,5_0_2_0_1,NA,NA,completion,8673.7,989320,989314.72,989331.42,998005.12,998007,2024-06-22T12:44:54Z,998021.82,NULL,Begegnung,kukutana,d,NA,NA,NA,NA,sdf,NA,2,NA,NA,NA,NA,NA,NA,NA,NA,NA,NA,NA,NA,NA,NA,NA,NA,NA,NA,NA
14c1c,Deep Question,html.Page,5_0_2_0_2_0_0,NA,NA,form submission,4312.1800000001,998008,998005.12,998021.82,1002334,1002334,2024-06-22T12:44:59Z,1002333.16,NULL,Toleranz,kuvumiliana,d,NA,NA,NA,idhini,NA,NA,2,NA,NA,NA,NA,NA,NA,NA,NA,NA,NA,NA,NA,NA,NA,NA,NA,NA,NA,NA
14c1c,"""Richtig""-Screen",canvas.Screen,5_0_2_0_2_0_1,NA,NA,skipped,NA,1002336,NA,NA,1002334,1002336,2024-06-22T12:44:59Z,1002333.16,NULL,Toleranz,kuvumiliana,d,NA,NA,NA,NA,sdf,NA,2,NA,NA,NA,NA,NA,NA,NA,NA,NA,NA,NA,NA,NA,NA,NA,NA,NA,NA,NA
14c1c,"""Falsch""-Screen",canvas.Screen,5_0_2_0_2_0_2,NA,NA,timeout,4996.38,1002337,1002332.96,1002333.16,1007312.86,1007314,2024-06-22T12:45:03Z,1007329.54,NULL,Toleranz,kuvumiliana,d,NA,NA,NA,NA,sdf,0,2,NA,NA,NA,NA,NA,NA,NA,NA,NA,NA,NA,NA,NA,NA,NA,NA,NA,NA,NA
14c1c,deep,flow.Sequence,5_0_2_0_2_0,NA,NA,completion,9291.04,998008,998005.12,998021.82,1007312.86,1007314,2024-06-22T12:45:03Z,1007329.54,NULL,Toleranz,kuvumiliana,d,NA,NA,NA,NA,sdf,NA,2,NA,NA,NA,NA,NA,NA,NA,NA,NA,NA,NA,NA,NA,NA,NA,NA,NA,NA,NA
14c1c,shallow,flow.Sequence,5_0_2_0_2_1,NA,NA,skipped,NA,1007314,NA,NA,1007312.86,1007314,2024-06-22T12:45:03Z,1007329.54,NULL,Toleranz,kuvumiliana,d,NA,NA,NA,NA,sdf,NA,2,NA,NA,NA,NA,NA,NA,NA,NA,NA,NA,NA,NA,NA,NA,NA,NA,NA,NA,NA
14c1c,task,flow.Sequence,5_0_2_0_2,NA,NA,completion,9291.04,998007,998005.12,998021.82,1007312.86,1007314,2024-06-22T12:45:03Z,1007329.54,NULL,Toleranz,kuvumiliana,d,NA,NA,NA,NA,sdf,NA,2,NA,NA,NA,NA,NA,NA,NA,NA,NA,NA,NA,NA,NA,NA,NA,NA,NA,NA,NA
14c1c,Deep Question,html.Page,5_0_2_0_3_0_0,NA,NA,form submission,4430.46,1007315,1007312.86,1007329.54,1011760,1011760,2024-06-22T12:45:08Z,1011766.48,NULL,Genehmigung,idhini,d,NA,NA,NA,idhini,NA,NA,2,NA,NA,NA,NA,NA,NA,NA,NA,NA,NA,NA,NA,NA,NA,NA,NA,NA,NA,NA
14c1c,"""Richtig""-Screen",canvas.Screen,5_0_2_0_3_0_1,NA,NA,timeout,5004.24,1011762,1011758.66,1011766.48,1016754.04,1016756,2024-06-22T12:45:13Z,1016770.72,NULL,Genehmigung,idhini,d,NA,NA,NA,NA,sdf,1,2,NA,NA,NA,NA,NA,NA,NA,NA,NA,NA,NA,NA,NA,NA,NA,NA,NA,NA,NA
14c1c,"""Falsch""-Screen",canvas.Screen,5_0_2_0_3_0_2,NA,NA,skipped,NA,1016757,NA,NA,1016754.04,1016757,2024-06-22T12:45:13Z,1016770.72,NULL,Genehmigung,idhini,d,NA,NA,NA,NA,sdf,NA,2,NA,NA,NA,NA,NA,NA,NA,NA,NA,NA,NA,NA,NA,NA,NA,NA,NA,NA,NA
