observation,sender,sender_type,sender_id,response,response_action,ended_on,duration,time_run,time_render,time_show,time_end,time_commit,timestamp,time_switch,distractors,german,swahili,enc,distractor1,distractor2,distractor3,response_2,x,correct,x_2,url_vp,url_sess,meta_labjs_version,meta_location,meta_user_agent,meta_platform,meta_language,meta_locale,meta_time_zone,meta_timezone_offset,meta_screen_width,meta_screen_height,meta_scroll_width,meta_scroll_height,meta_window_inner_width,meta_window_inner_height,meta_device_pixel_ratio,meta_labjs_build_flavor,meta_labjs_build_commit
214ed,Introduction general,canvas.Screen,0,weiter,keypress(q),response,124804.218,400,313.352,396.682,125200.9,125212.5,2023-02-08T17:08:13Z,125227.182,NULL,NA,NA,NA,NA,NA,NA,NA,NA,NA,NA,112,1,20.2.4,https://neurocog.fernuni.ch/studies/vweber/encoding_immediate/index.html?vp=112&sess=1,"Mozilla/5.0 (Macintosh; Intel Mac OS X 10_15_7) AppleWebKit/537.36 (KHTML, like Gecko) Chrome/109.0.0.0 Safari/537.36",MacIntel,de-DE,de,Europe/Zurich,-60,1440,900,1440,773,1440,821,2,production,f5b4a49f956347addd546a832a3327688c2c0fef
214ed,Introduction practice,canvas.Screen,1_0,NA,keypress(Space),response,3059.2179999985,125212.8,125193.85,125227.182,128286.4,128292.9,2023-02-08T17:08:17Z,128294.9,NULL,NA,NA,NA,NA,NA,NA,NA,NA,NA,NA,NA,NA,NA,NA,NA,NA,NA,NA,NA,NA,NA,NA,NA,NA,NA,NA,NA,NA,NA
214ed,Deep Question,html.Page,1_1_0_0_0,NA,NA,form submission,10985.899999997,128293.59999999,128278.234,128294.9,139280.8,139281,2023-02-08T17:08:28Z,139294.74,"c(""distractor1"", ""distractor2"", ""distractor3"")",Schatten,kivuli,d,NA,NA,NA,s,NA,NA,NA,NA,NA,NA,NA,NA,NA,NA,NA,NA,NA,NA,NA,NA,NA,NA,NA,NA,NA,NA
214ed,"""Richtig""-Screen",canvas.Screen,1_1_0_0_1,NA,NA,skipped,NA,139282.4,NA,NA,139280.8,139282.5,2023-02-08T17:08:28Z,139294.74,"c(""distractor1"", ""distractor2"", ""distractor3"")",Schatten,kivuli,d,NA,NA,NA,NA,NA,NA,NA,NA,NA,NA,NA,NA,NA,NA,NA,NA,NA,NA,NA,NA,NA,NA,NA,NA,NA,NA
214ed,"""Falsch""-Screen",canvas.Screen,1_1_0_0_2,NA,NA,timeout,4999.8,139283.7,139278.074,139294.74,144277.874,144283.2,2023-02-08T17:08:33Z,144294.54,"c(""distractor1"", ""distractor2"", ""distractor3"")",Schatten,kivuli,d,NA,NA,NA,NA,NA,0,NA,NA,NA,NA,NA,NA,NA,NA,NA,NA,NA,NA,NA,NA,NA,NA,NA,NA,NA,NA
214ed,deep,flow.Sequence,1_1_0_0,NA,NA,completion,15982.974,128293.59999999,128278.234,128294.9,144277.874,144283.59999999,2023-02-08T17:08:33Z,144294.54,"c(""distractor1"", ""distractor2"", ""distractor3"")",Schatten,kivuli,d,NA,NA,NA,NA,NA,NA,NA,NA,NA,NA,NA,NA,NA,NA,NA,NA,NA,NA,NA,NA,NA,NA,NA,NA,NA,NA
214ed,shallow,flow.Sequence,1_1_0_1,NA,NA,skipped,NA,144283.8,NA,NA,144277.874,144283.9,2023-02-08T17:08:33Z,144294.54,"c(""distractor1"", ""distractor2"", ""distractor3"")",Schatten,kivuli,d,NA,NA,NA,NA,NA,NA,NA,NA,NA,NA,NA,NA,NA,NA,NA,NA,NA,NA,NA,NA,NA,NA,NA,NA,NA,NA
214ed,task,flow.Sequence,1_1_0,NA,NA,completion,15982.974,128293.5,128278.234,128294.9,144277.874,144284.09999999,2023-02-08T17:08:33Z,144294.54,"c(""distractor1"", ""distractor2"", ""distractor3"")",Schatten,kivuli,d,NA,NA,NA,NA,NA,NA,NA,NA,NA,NA,NA,NA,NA,NA,NA,NA,NA,NA,NA,NA,NA,NA,NA,NA,NA,NA
214ed,Deep Question,html.Page,1_1_1_0_0,NA,NA,form submission,5107.6599999955,144284.5,144277.874,144294.54,149402.2,149402.59999999,2023-02-08T17:08:38Z,149411.307,"c(""distractor1"", ""distractor2"", ""distractor3"")",Gesundheit,salama,d,NA,NA,NA,g,NA,NA,NA,NA,NA,NA,NA,NA,NA,NA,NA,NA,NA,NA,NA,NA,NA,NA,NA,NA,NA,NA
214ed,"""Richtig""-Screen",canvas.Screen,1_1_1_0_1,NA,NA,skipped,NA,149405.59999999,NA,NA,149402.2,149405.7,2023-02-08T17:08:38Z,149411.307,"c(""distractor1"", ""distractor2"", ""distractor3"")",Gesundheit,salama,d,NA,NA,NA,NA,NA,NA,NA,NA,NA,NA,NA,NA,NA,NA,NA,NA,NA,NA,NA,NA,NA,NA,NA,NA,NA,NA
214ed,"""Falsch""-Screen",canvas.Screen,1_1_1_0_2,NA,NA,timeout,4999.8,149406.7,149394.641,149411.307,154394.441,154406,2023-02-08T17:08:43Z,154411.107,"c(""distractor1"", ""distractor2"", ""distractor3"")",Gesundheit,salama,d,NA,NA,NA,NA,NA,0,NA,NA,NA,NA,NA,NA,NA,NA,NA,NA,NA,NA,NA,NA,NA,NA,NA,NA,NA,NA
214ed,deep,flow.Sequence,1_1_1_0,NA,NA,completion,10099.901,144284.5,144277.874,144294.54,154394.441,154406.4,2023-02-08T17:08:43Z,154411.107,"c(""distractor1"", ""distractor2"", ""distractor3"")",Gesundheit,salama,d,NA,NA,NA,NA,NA,NA,NA,NA,NA,NA,NA,NA,NA,NA,NA,NA,NA,NA,NA,NA,NA,NA,NA,NA,NA,NA
214ed,shallow,flow.Sequence,1_1_1_1,NA,NA,skipped,NA,154406.4,NA,NA,154394.441,154406.59999999,2023-02-08T17:08:43Z,154411.107,"c(""distractor1"", ""distractor2"", ""distractor3"")",Gesundheit,salama,d,NA,NA,NA,NA,NA,NA,NA,NA,NA,NA,NA,NA,NA,NA,NA,NA,NA,NA,NA,NA,NA,NA,NA,NA,NA,NA
214ed,task,flow.Sequence,1_1_1,NA,NA,completion,10099.901,144284.3,144277.874,144294.54,154394.441,154406.7,2023-02-08T17:08:43Z,154411.107,"c(""distractor1"", ""distractor2"", ""distractor3"")",Gesundheit,salama,d,NA,NA,NA,NA,NA,NA,NA,NA,NA,NA,NA,NA,NA,NA,NA,NA,NA,NA,NA,NA,NA,NA,NA,NA,NA,NA
214ed,deep,flow.Sequence,1_1_2_0,NA,NA,skipped,NA,154406.8,NA,NA,154394.441,154406.9,2023-02-08T17:08:43Z,154411.107,"c(""distractor1"", ""distractor2"", ""distractor3"")",Gegenwart,hadhara,s,katiba,jokofu,mikopo,NA,NA,NA,NA,NA,NA,NA,NA,NA,NA,NA,NA,NA,NA,NA,NA,NA,NA,NA,NA,NA,NA,NA
214ed,Shallow Question,html.Page,1_1_2_1_0,NA,NA,form submission,4950.5929999955,154407,154394.441,154411.107,159361.7,159362.09999999,2023-02-08T17:08:48Z,159361.171,"c(""distractor1"", ""distractor2"", ""distractor3"")",Gegenwart,hadhara,s,katiba,jokofu,mikopo,mikopo,NA,NA,NA,NA,NA,NA,NA,NA,NA,NA,NA,NA,NA,NA,NA,NA,NA,NA,NA,NA,NA,NA
214ed,"""Richtig""-Screen",canvas.Screen,1_1_2_1_1,NA,NA,skipped,NA,159366,NA,NA,159361.7,159366.3,2023-02-08T17:08:48Z,159361.171,"c(""distractor1"", ""distractor2"", ""distractor3"")",Gegenwart,hadhara,s,katiba,jokofu,mikopo,NA,NA,NA,NA,NA,NA,NA,NA,NA,NA,NA,NA,NA,NA,NA,NA,NA,NA,NA,NA,NA,NA,NA
214ed,"""Falsch""-Screen",canvas.Screen,1_1_2_1_2,NA,NA,timeout,4999.8,159367.3,159344.505,159361.171,164344.305,164346.4,2023-02-08T17:08:53Z,164360.971,"c(""distractor1"", ""distractor2"", ""distractor3"")",Gegenwart,hadhara,s,katiba,jokofu,mikopo,NA,NA,0,NA,NA,NA,NA,NA,NA,NA,NA,NA,NA,NA,NA,NA,NA,NA,NA,NA,NA,NA,NA
214ed,shallow,flow.Sequence,1_1_2_1,NA,NA,completion,9933.198,154407,154394.441,154411.107,164344.305,164346.5,2023-02-08T17:08:53Z,164360.971,"c(""distractor1"", ""distractor2"", ""distractor3"")",Gegenwart,hadhara,s,katiba,jokofu,mikopo,NA,NA,NA,NA,NA,NA,NA,NA,NA,NA,NA,NA,NA,NA,NA,NA,NA,NA,NA,NA,NA,NA,NA
214ed,task,flow.Sequence,1_1_2,NA,NA,completion,9933.198,154406.7,154394.441,154411.107,164344.305,164346.59999999,2023-02-08T17:08:53Z,164360.971,"c(""distractor1"", ""distractor2"", ""distractor3"")",Gegenwart,hadhara,s,katiba,jokofu,mikopo,NA,NA,NA,NA,NA,NA,NA,NA,NA,NA,NA,NA,NA,NA,NA,NA,NA,NA,NA,NA,NA,NA,NA
214ed,Deep Question,html.Page,1_1_3_0_0,NA,NA,form submission,2147.9289999985,164346.7,164344.305,164360.971,166508.9,166509.2,2023-02-08T17:08:55Z,166510.885,"c(""distractor1"", ""distractor2"", ""distractor3"")",Qualität,mtindo,d,NA,NA,NA,q,NA,NA,NA,NA,NA,NA,NA,NA,NA,NA,NA,NA,NA,NA,NA,NA,NA,NA,NA,NA,NA,NA
214ed,"""Richtig""-Screen",canvas.Screen,1_1_3_0_1,NA,NA,skipped,NA,166512.3,NA,NA,166508.9,166512.4,2023-02-08T17:08:55Z,166510.885,"c(""distractor1"", ""distractor2"", ""distractor3"")",Qualität,mtindo,d,NA,NA,NA,NA,NA,NA,NA,NA,NA,NA,NA,NA,NA,NA,NA,NA,NA,NA,NA,NA,NA,NA,NA,NA,NA,NA
214ed,"""Falsch""-Screen",canvas.Screen,1_1_3_0_2,NA,NA,timeout,4999.8,166513.2,166494.219,166510.885,171494.019,171496.4,2023-02-08T17:09:00Z,171510.685,"c(""distractor1"", ""distractor2"", ""distractor3"")",Qualität,mtindo,d,NA,NA,NA,NA,NA,0,NA,NA,NA,NA,NA,NA,NA,NA,NA,NA,NA,NA,NA,NA,NA,NA,NA,NA,NA,NA
214ed,deep,flow.Sequence,1_1_3_0,NA,NA,completion,7133.048,164346.7,164344.305,164360.971,171494.019,171496.7,2023-02-08T17:09:00Z,171510.685,"c(""distractor1"", ""distractor2"", ""distractor3"")",Qualität,mtindo,d,NA,NA,NA,NA,NA,NA,NA,NA,NA,NA,NA,NA,NA,NA,NA,NA,NA,NA,NA,NA,NA,NA,NA,NA,NA,NA
214ed,shallow,flow.Sequence,1_1_3_1,NA,NA,skipped,NA,171496.9,NA,NA,171494.019,171497,2023-02-08T17:09:00Z,171510.685,"c(""distractor1"", ""distractor2"", ""distractor3"")",Qualität,mtindo,d,NA,NA,NA,NA,NA,NA,NA,NA,NA,NA,NA,NA,NA,NA,NA,NA,NA,NA,NA,NA,NA,NA,NA,NA,NA,NA
214ed,task,flow.Sequence,1_1_3,NA,NA,completion,7133.048,164346.7,164344.305,164360.971,171494.019,171497.3,2023-02-08T17:09:00Z,171510.685,"c(""distractor1"", ""distractor2"", ""distractor3"")",Qualität,mtindo,d,NA,NA,NA,NA,NA,NA,NA,NA,NA,NA,NA,NA,NA,NA,NA,NA,NA,NA,NA,NA,NA,NA,NA,NA,NA,NA
214ed,deep,flow.Sequence,1_1_4_0,NA,NA,skipped,NA,171497.4,NA,NA,171494.019,171497.4,2023-02-08T17:09:00Z,171510.685,"c(""distractor1"", ""distractor2"", ""distractor3"")",Rückhalt,msaada,s,muhula,auwali,kiwimbe,NA,NA,NA,NA,NA,NA,NA,NA,NA,NA,NA,NA,NA,NA,NA,NA,NA,NA,NA,NA,NA,NA,NA
214ed,Shallow Question,html.Page,1_1_4_1_0,NA,NA,form submission,3722.114999997,171497.59999999,171494.019,171510.685,175232.8,175233.2,2023-02-08T17:09:04Z,175244.232,"c(""distractor1"", ""distractor2"", ""distractor3"")",Rückhalt,msaada,s,muhula,auwali,kiwimbe,kiwimbe,NA,NA,NA,NA,NA,NA,NA,NA,NA,NA,NA,NA,NA,NA,NA,NA,NA,NA,NA,NA,NA,NA
214ed,"""Richtig""-Screen",canvas.Screen,1_1_4_1_1,NA,NA,skipped,NA,175236.09999999,NA,NA,175232.8,175236.3,2023-02-08T17:09:04Z,175244.232,"c(""distractor1"", ""distractor2"", ""distractor3"")",Rückhalt,msaada,s,muhula,auwali,kiwimbe,NA,NA,NA,NA,NA,NA,NA,NA,NA,NA,NA,NA,NA,NA,NA,NA,NA,NA,NA,NA,NA,NA,NA
214ed,"""Falsch""-Screen",canvas.Screen,1_1_4_1_2,NA,NA,timeout,4999.8,175237.59999999,175227.566,175244.232,180227.366,180230.09999999,2023-02-08T17:09:09Z,180244.032,"c(""distractor1"", ""distractor2"", ""distractor3"")",Rückhalt,msaada,s,muhula,auwali,kiwimbe,NA,NA,0,NA,NA,NA,NA,NA,NA,NA,NA,NA,NA,NA,NA,NA,NA,NA,NA,NA,NA,NA,NA
214ed,shallow,flow.Sequence,1_1_4_1,NA,NA,completion,8716.681,171497.59999999,171494.019,171510.685,180227.366,180230.5,2023-02-08T17:09:09Z,180244.032,"c(""distractor1"", ""distractor2"", ""distractor3"")",Rückhalt,msaada,s,muhula,auwali,kiwimbe,NA,NA,NA,NA,NA,NA,NA,NA,NA,NA,NA,NA,NA,NA,NA,NA,NA,NA,NA,NA,NA,NA,NA
214ed,task,flow.Sequence,1_1_4,NA,NA,completion,8716.681,171497.4,171494.019,171510.685,180227.366,180230.8,2023-02-08T17:09:09Z,180244.032,"c(""distractor1"", ""distractor2"", ""distractor3"")",Rückhalt,msaada,s,muhula,auwali,kiwimbe,NA,NA,NA,NA,NA,NA,NA,NA,NA,NA,NA,NA,NA,NA,NA,NA,NA,NA,NA,NA,NA,NA,NA
214ed,deep,flow.Sequence,1_1_5_0,NA,NA,skipped,NA,180231,NA,NA,180227.366,180231.09999999,2023-02-08T17:09:09Z,180244.032,"c(""distractor1"", ""distractor2"", ""distractor3"")",Kritik,lawama,s,dereva,nafasi,mawazo,NA,NA,NA,NA,NA,NA,NA,NA,NA,NA,NA,NA,NA,NA,NA,NA,NA,NA,NA,NA,NA,NA,NA
214ed,Shallow Question,html.Page,1_1_5_1_0,NA,NA,form submission,3241.468,180231.2,180227.366,180244.032,183485.5,183485.8,2023-02-08T17:09:12Z,183494.19,"c(""distractor1"", ""distractor2"", ""distractor3"")",Kritik,lawama,s,dereva,nafasi,mawazo,mawazo,NA,NA,NA,NA,NA,NA,NA,NA,NA,NA,NA,NA,NA,NA,NA,NA,NA,NA,NA,NA,NA,NA
214ed,"""Richtig""-Screen",canvas.Screen,1_1_5_1_1,NA,NA,skipped,NA,183488.3,NA,NA,183485.5,183488.3,2023-02-08T17:09:12Z,183494.19,"c(""distractor1"", ""distractor2"", ""distractor3"")",Kritik,lawama,s,dereva,nafasi,mawazo,NA,NA,NA,NA,NA,NA,NA,NA,NA,NA,NA,NA,NA,NA,NA,NA,NA,NA,NA,NA,NA,NA,NA
214ed,"""Falsch""-Screen",canvas.Screen,1_1_5_1_2,NA,NA,timeout,4999.8,183489.2,183477.524,183494.19,188477.324,188479.7,2023-02-08T17:09:17Z,188493.99,"c(""distractor1"", ""distractor2"", ""distractor3"")",Kritik,lawama,s,dereva,nafasi,mawazo,NA,NA,0,NA,NA,NA,NA,NA,NA,NA,NA,NA,NA,NA,NA,NA,NA,NA,NA,NA,NA,NA,NA
214ed,shallow,flow.Sequence,1_1_5_1,NA,NA,completion,8233.292,180231.2,180227.366,180244.032,188477.324,188479.9,2023-02-08T17:09:17Z,188493.99,"c(""distractor1"", ""distractor2"", ""distractor3"")",Kritik,lawama,s,dereva,nafasi,mawazo,NA,NA,NA,NA,NA,NA,NA,NA,NA,NA,NA,NA,NA,NA,NA,NA,NA,NA,NA,NA,NA,NA,NA
214ed,task,flow.Sequence,1_1_5,NA,NA,completion,8233.292,180230.9,180227.366,180244.032,188477.324,188480.09999999,2023-02-08T17:09:17Z,188493.99,"c(""distractor1"", ""distractor2"", ""distractor3"")",Kritik,lawama,s,dereva,nafasi,mawazo,NA,NA,NA,NA,NA,NA,NA,NA,NA,NA,NA,NA,NA,NA,NA,NA,NA,NA,NA,NA,NA,NA,NA
214ed,block,flow.Loop,1_1,NA,NA,completion,60182.424,128293.4,128278.234,128294.9,188477.324,188480.3,2023-02-08T17:09:17Z,188493.99,"c(""distractor1"", ""distractor2"", ""distractor3"")",NA,NA,NA,NA,NA,NA,NA,NA,NA,NA,NA,NA,NA,NA,NA,NA,NA,NA,NA,NA,NA,NA,NA,NA,NA,NA,NA,NA,NA
214ed,Practice,flow.Sequence,1,NA,NA,completion,63250.142,125212.8,125193.85,125227.182,188477.324,188480.5,2023-02-08T17:09:17Z,188493.99,NULL,NA,NA,NA,NA,NA,NA,NA,NA,NA,NA,NA,NA,NA,NA,NA,NA,NA,NA,NA,NA,NA,NA,NA,NA,NA,NA,NA,NA,NA
214ed,Experiment start,canvas.Screen,2,weiter,keypress(q),response,35081.51,188480.7,188477.324,188493.99,223575.5,223585.3,2023-02-08T17:09:52Z,223676.864,NULL,NA,NA,NA,NA,NA,NA,NA,NA,NA,NA,NA,NA,NA,NA,NA,NA,NA,NA,NA,NA,NA,NA,NA,NA,NA,NA,NA,NA,NA
214ed,deep,flow.Sequence,3_0_0_0_0_0,NA,NA,skipped,NA,223668.2,NA,NA,223575.5,223668.4,2023-02-08T17:09:52Z,223676.864,NULL,Sänger,mwimbaji,s,msichana,shughuli,mshirika,NA,sdf,NA,0,NA,NA,NA,NA,NA,NA,NA,NA,NA,NA,NA,NA,NA,NA,NA,NA,NA,NA,NA
214ed,Shallow Question,html.Page,3_0_0_0_0_1_0,NA,NA,form submission,2663.935999997,223668.4,223660.198,223676.864,226340.8,226341.09999999,2023-02-08T17:09:55Z,226343.424,NULL,Sänger,mwimbaji,s,msichana,shughuli,mshirika,shughuli,NA,NA,0,NA,NA,NA,NA,NA,NA,NA,NA,NA,NA,NA,NA,NA,NA,NA,NA,NA,NA,NA
214ed,"""Richtig""-Screen",canvas.Screen,3_0_0_0_0_1_1,NA,NA,skipped,NA,226342.3,NA,NA,226340.8,226342.3,2023-02-08T17:09:55Z,226343.424,NULL,Sänger,mwimbaji,s,msichana,shughuli,mshirika,NA,sdf,NA,0,NA,NA,NA,NA,NA,NA,NA,NA,NA,NA,NA,NA,NA,NA,NA,NA,NA,NA,NA
214ed,"""Falsch""-Screen",canvas.Screen,3_0_0_0_0_1_2,NA,NA,timeout,4999.8,226343.09999999,226326.758,226343.424,231326.558,231328.5,2023-02-08T17:10:00Z,231343.224,NULL,Sänger,mwimbaji,s,msichana,shughuli,mshirika,NA,sdf,0,0,NA,NA,NA,NA,NA,NA,NA,NA,NA,NA,NA,NA,NA,NA,NA,NA,NA,NA,NA
214ed,shallow,flow.Sequence,3_0_0_0_0_1,NA,NA,completion,7649.694,223668.4,223660.198,223676.864,231326.558,231328.9,2023-02-08T17:10:00Z,231343.224,NULL,Sänger,mwimbaji,s,msichana,shughuli,mshirika,NA,sdf,NA,0,NA,NA,NA,NA,NA,NA,NA,NA,NA,NA,NA,NA,NA,NA,NA,NA,NA,NA,NA
214ed,task,flow.Sequence,3_0_0_0_0,NA,NA,completion,7649.694,223668.2,223660.198,223676.864,231326.558,231329.09999999,2023-02-08T17:10:00Z,231343.224,NULL,Sänger,mwimbaji,s,msichana,shughuli,mshirika,NA,sdf,NA,0,NA,NA,NA,NA,NA,NA,NA,NA,NA,NA,NA,NA,NA,NA,NA,NA,NA,NA,NA
214ed,deep,flow.Sequence,3_0_0_0_1_0,NA,NA,skipped,NA,231329.3,NA,NA,231326.558,231329.4,2023-02-08T17:10:00Z,231343.224,NULL,Wechsel,ugeuzaji,s,utambulisho,kujenga,wasiwasi,NA,sdf,NA,0,NA,NA,NA,NA,NA,NA,NA,NA,NA,NA,NA,NA,NA,NA,NA,NA,NA,NA,NA
214ed,Shallow Question,html.Page,3_0_0_0_1_1_0,NA,NA,form submission,2106.776,231329.5,231326.558,231343.224,233450,233450.3,2023-02-08T17:10:02Z,233460.135,NULL,Wechsel,ugeuzaji,s,utambulisho,kujenga,wasiwasi,wasiwasi,NA,NA,0,NA,NA,NA,NA,NA,NA,NA,NA,NA,NA,NA,NA,NA,NA,NA,NA,NA,NA,NA
214ed,"""Richtig""-Screen",canvas.Screen,3_0_0_0_1_1_1,NA,NA,skipped,NA,233452.59999999,NA,NA,233450,233452.8,2023-02-08T17:10:02Z,233460.135,NULL,Wechsel,ugeuzaji,s,utambulisho,kujenga,wasiwasi,NA,sdf,NA,0,NA,NA,NA,NA,NA,NA,NA,NA,NA,NA,NA,NA,NA,NA,NA,NA,NA,NA,NA
214ed,"""Falsch""-Screen",canvas.Screen,3_0_0_0_1_1_2,NA,NA,timeout,4999.8,233453.3,233443.469,233460.135,238443.269,238445.59999999,2023-02-08T17:10:07Z,238459.935,NULL,Wechsel,ugeuzaji,s,utambulisho,kujenga,wasiwasi,NA,sdf,0,0,NA,NA,NA,NA,NA,NA,NA,NA,NA,NA,NA,NA,NA,NA,NA,NA,NA,NA,NA
214ed,shallow,flow.Sequence,3_0_0_0_1_1,NA,NA,completion,7100.045,231329.4,231326.558,231343.224,238443.269,238445.9,2023-02-08T17:10:07Z,238459.935,NULL,Wechsel,ugeuzaji,s,utambulisho,kujenga,wasiwasi,NA,sdf,NA,0,NA,NA,NA,NA,NA,NA,NA,NA,NA,NA,NA,NA,NA,NA,NA,NA,NA,NA,NA
214ed,task,flow.Sequence,3_0_0_0_1,NA,NA,completion,7100.045,231329.2,231326.558,231343.224,238443.269,238446,2023-02-08T17:10:07Z,238459.935,NULL,Wechsel,ugeuzaji,s,utambulisho,kujenga,wasiwasi,NA,sdf,NA,0,NA,NA,NA,NA,NA,NA,NA,NA,NA,NA,NA,NA,NA,NA,NA,NA,NA,NA,NA
214ed,Deep Question,html.Page,3_0_0_0_2_0_0,NA,NA,form submission,2830.164999994,238446.2,238443.269,238459.935,241290.09999999,241290.5,2023-02-08T17:10:10Z,241293.155,NULL,Atmosphäre,angahewa,d,NA,NA,NA,a,NA,NA,0,NA,NA,NA,NA,NA,NA,NA,NA,NA,NA,NA,NA,NA,NA,NA,NA,NA,NA,NA
214ed,"""Richtig""-Screen",canvas.Screen,3_0_0_0_2_0_1,NA,NA,skipped,NA,241293.3,NA,NA,241290.09999999,241293.4,2023-02-08T17:10:10Z,241293.155,NULL,Atmosphäre,angahewa,d,NA,NA,NA,NA,sdf,NA,0,NA,NA,NA,NA,NA,NA,NA,NA,NA,NA,NA,NA,NA,NA,NA,NA,NA,NA,NA
214ed,"""Falsch""-Screen",canvas.Screen,3_0_0_0_2_0_2,NA,NA,timeout,4999.8,241294.5,241276.489,241293.155,246276.289,246278.7,2023-02-08T17:10:15Z,246292.955,NULL,Atmosphäre,angahewa,d,NA,NA,NA,NA,sdf,0,0,NA,NA,NA,NA,NA,NA,NA,NA,NA,NA,NA,NA,NA,NA,NA,NA,NA,NA,NA
214ed,deep,flow.Sequence,3_0_0_0_2_0,NA,NA,completion,7816.354,238446.2,238443.269,238459.935,246276.289,246279,2023-02-08T17:10:15Z,246292.955,NULL,Atmosphäre,angahewa,d,NA,NA,NA,NA,sdf,NA,0,NA,NA,NA,NA,NA,NA,NA,NA,NA,NA,NA,NA,NA,NA,NA,NA,NA,NA,NA
214ed,shallow,flow.Sequence,3_0_0_0_2_1,NA,NA,skipped,NA,246279.09999999,NA,NA,246276.289,246279.3,2023-02-08T17:10:15Z,246292.955,NULL,Atmosphäre,angahewa,d,NA,NA,NA,NA,sdf,NA,0,NA,NA,NA,NA,NA,NA,NA,NA,NA,NA,NA,NA,NA,NA,NA,NA,NA,NA,NA
214ed,task,flow.Sequence,3_0_0_0_2,NA,NA,completion,7816.354,238446.2,238443.269,238459.935,246276.289,246279.4,2023-02-08T17:10:15Z,246292.955,NULL,Atmosphäre,angahewa,d,NA,NA,NA,NA,sdf,NA,0,NA,NA,NA,NA,NA,NA,NA,NA,NA,NA,NA,NA,NA,NA,NA,NA,NA,NA,NA
214ed,deep,flow.Sequence,3_0_0_0_3_0,NA,NA,skipped,NA,246279.5,NA,NA,246276.289,246279.59999999,2023-02-08T17:10:15Z,246292.955,NULL,Erneuerung,ukarabati,s,ushawishi,ukalifu,unyonyaji,NA,sdf,NA,0,NA,NA,NA,NA,NA,NA,NA,NA,NA,NA,NA,NA,NA,NA,NA,NA,NA,NA,NA
214ed,Shallow Question,html.Page,3_0_0_0_3_1_0,NA,NA,form submission,4909.844999997,246279.7,246276.289,246292.955,251202.8,251203.09999999,2023-02-08T17:10:19Z,251209.816,NULL,Erneuerung,ukarabati,s,ushawishi,ukalifu,unyonyaji,unyonyaji,NA,NA,0,NA,NA,NA,NA,NA,NA,NA,NA,NA,NA,NA,NA,NA,NA,NA,NA,NA,NA,NA
214ed,"""Richtig""-Screen",canvas.Screen,3_0_0_0_3_1_1,NA,NA,skipped,NA,251205.9,NA,NA,251202.8,251206.2,2023-02-08T17:10:19Z,251209.816,NULL,Erneuerung,ukarabati,s,ushawishi,ukalifu,unyonyaji,NA,sdf,NA,0,NA,NA,NA,NA,NA,NA,NA,NA,NA,NA,NA,NA,NA,NA,NA,NA,NA,NA,NA
214ed,"""Falsch""-Screen",canvas.Screen,3_0_0_0_3_1_2,NA,NA,timeout,4999.8,251207,251193.15,251209.816,256192.95,256195.2,2023-02-08T17:10:24Z,256209.616,NULL,Erneuerung,ukarabati,s,ushawishi,ukalifu,unyonyaji,NA,sdf,0,0,NA,NA,NA,NA,NA,NA,NA,NA,NA,NA,NA,NA,NA,NA,NA,NA,NA,NA,NA
214ed,shallow,flow.Sequence,3_0_0_0_3_1,NA,NA,completion,9899.995,246279.7,246276.289,246292.955,256192.95,256195.59999999,2023-02-08T17:10:24Z,256209.616,NULL,Erneuerung,ukarabati,s,ushawishi,ukalifu,unyonyaji,NA,sdf,NA,0,NA,NA,NA,NA,NA,NA,NA,NA,NA,NA,NA,NA,NA,NA,NA,NA,NA,NA,NA
214ed,task,flow.Sequence,3_0_0_0_3,NA,NA,completion,9899.995,246279.5,246276.289,246292.955,256192.95,256195.9,2023-02-08T17:10:24Z,256209.616,NULL,Erneuerung,ukarabati,s,ushawishi,ukalifu,unyonyaji,NA,sdf,NA,0,NA,NA,NA,NA,NA,NA,NA,NA,NA,NA,NA,NA,NA,NA,NA,NA,NA,NA,NA
214ed,Deep Question,html.Page,3_0_0_0_4_0_0,NA,NA,form submission,3602.2839999985,256196,256192.95,256209.616,259811.9,259812.3,2023-02-08T17:10:28Z,259843.096,NULL,Abrechnung,uhasibu,d,NA,NA,NA,huj,NA,NA,0,NA,NA,NA,NA,NA,NA,NA,NA,NA,NA,NA,NA,NA,NA,NA,NA,NA,NA,NA
214ed,"""Richtig""-Screen",canvas.Screen,3_0_0_0_4_0_1,NA,NA,skipped,NA,259815.2,NA,NA,259811.9,259815.4,2023-02-08T17:10:28Z,259843.096,NULL,Abrechnung,uhasibu,d,NA,NA,NA,NA,sdf,NA,0,NA,NA,NA,NA,NA,NA,NA,NA,NA,NA,NA,NA,NA,NA,NA,NA,NA,NA,NA
214ed,"""Falsch""-Screen",canvas.Screen,3_0_0_0_4_0_2,NA,NA,timeout,4999.8,259816.2,259826.43,259843.096,264826.23,264828.3,2023-02-08T17:10:33Z,264842.896,NULL,Abrechnung,uhasibu,d,NA,NA,NA,NA,sdf,0,0,NA,NA,NA,NA,NA,NA,NA,NA,NA,NA,NA,NA,NA,NA,NA,NA,NA,NA,NA
214ed,deep,flow.Sequence,3_0_0_0_4_0,NA,NA,completion,8616.614,256196,256192.95,256209.616,264826.23,264828.59999999,2023-02-08T17:10:33Z,264842.896,NULL,Abrechnung,uhasibu,d,NA,NA,NA,NA,sdf,NA,0,NA,NA,NA,NA,NA,NA,NA,NA,NA,NA,NA,NA,NA,NA,NA,NA,NA,NA,NA
214ed,shallow,flow.Sequence,3_0_0_0_4_1,NA,NA,skipped,NA,264828.8,NA,NA,264826.23,264828.9,2023-02-08T17:10:33Z,264842.896,NULL,Abrechnung,uhasibu,d,NA,NA,NA,NA,sdf,NA,0,NA,NA,NA,NA,NA,NA,NA,NA,NA,NA,NA,NA,NA,NA,NA,NA,NA,NA,NA
214ed,task,flow.Sequence,3_0_0_0_4,NA,NA,completion,8616.614,256196,256192.95,256209.616,264826.23,264829.09999999,2023-02-08T17:10:33Z,264842.896,NULL,Abrechnung,uhasibu,d,NA,NA,NA,NA,sdf,NA,0,NA,NA,NA,NA,NA,NA,NA,NA,NA,NA,NA,NA,NA,NA,NA,NA,NA,NA,NA
214ed,deep,flow.Sequence,3_0_0_0_5_0,NA,NA,skipped,NA,264829.3,NA,NA,264826.23,264829.4,2023-02-08T17:10:33Z,264842.896,NULL,Angreifer,mshambulizi,s,kitengo,tasinia,usafirishaji,NA,sdf,NA,0,NA,NA,NA,NA,NA,NA,NA,NA,NA,NA,NA,NA,NA,NA,NA,NA,NA,NA,NA
214ed,Shallow Question,html.Page,3_0_0_0_5_1_0,NA,NA,form submission,3994.203999994,264829.5,264826.23,264842.896,268837.09999999,268837.3,2023-02-08T17:10:37Z,268842.736,NULL,Angreifer,mshambulizi,s,kitengo,tasinia,usafirishaji,tasinia,NA,NA,0,NA,NA,NA,NA,NA,NA,NA,NA,NA,NA,NA,NA,NA,NA,NA,NA,NA,NA,NA
214ed,"""Richtig""-Screen",canvas.Screen,3_0_0_0_5_1_1,NA,NA,skipped,NA,268839.7,NA,NA,268837.09999999,268839.8,2023-02-08T17:10:37Z,268842.736,NULL,Angreifer,mshambulizi,s,kitengo,tasinia,usafirishaji,NA,sdf,NA,0,NA,NA,NA,NA,NA,NA,NA,NA,NA,NA,NA,NA,NA,NA,NA,NA,NA,NA,NA
214ed,"""Falsch""-Screen",canvas.Screen,3_0_0_0_5_1_2,NA,NA,timeout,5000.099,268840.4,268826.07,268842.736,273826.169,273827.5,2023-02-08T17:10:42Z,273842.835,NULL,Angreifer,mshambulizi,s,kitengo,tasinia,usafirishaji,NA,sdf,0,0,NA,NA,NA,NA,NA,NA,NA,NA,NA,NA,NA,NA,NA,NA,NA,NA,NA,NA,NA
214ed,shallow,flow.Sequence,3_0_0_0_5_1,NA,NA,completion,8983.273,264829.5,264826.23,264842.896,273826.169,273827.9,2023-02-08T17:10:42Z,273842.835,NULL,Angreifer,mshambulizi,s,kitengo,tasinia,usafirishaji,NA,sdf,NA,0,NA,NA,NA,NA,NA,NA,NA,NA,NA,NA,NA,NA,NA,NA,NA,NA,NA,NA,NA
214ed,task,flow.Sequence,3_0_0_0_5,NA,NA,completion,8983.273,264829.2,264826.23,264842.896,273826.169,273828.09999999,2023-02-08T17:10:42Z,273842.835,NULL,Angreifer,mshambulizi,s,kitengo,tasinia,usafirishaji,NA,sdf,NA,0,NA,NA,NA,NA,NA,NA,NA,NA,NA,NA,NA,NA,NA,NA,NA,NA,NA,NA,NA
214ed,Deep Question,html.Page,3_0_0_0_6_0_0,NA,NA,form submission,2075.665,273828.3,273826.169,273842.835,275918.5,275919.2,2023-02-08T17:10:44Z,275926.085,NULL,Flexibilität,kubadilika,d,NA,NA,NA,s,NA,NA,0,NA,NA,NA,NA,NA,NA,NA,NA,NA,NA,NA,NA,NA,NA,NA,NA,NA,NA,NA
214ed,"""Richtig""-Screen",canvas.Screen,3_0_0_0_6_0_1,NA,NA,skipped,NA,275921.8,NA,NA,275918.5,275921.9,2023-02-08T17:10:44Z,275926.085,NULL,Flexibilität,kubadilika,d,NA,NA,NA,NA,sdf,NA,0,NA,NA,NA,NA,NA,NA,NA,NA,NA,NA,NA,NA,NA,NA,NA,NA,NA,NA,NA
214ed,"""Falsch""-Screen",canvas.Screen,3_0_0_0_6_0_2,NA,NA,timeout,4999.8,275922.59999999,275909.419,275926.085,280909.219,280911,2023-02-08T17:10:49Z,280925.885,NULL,Flexibilität,kubadilika,d,NA,NA,NA,NA,sdf,0,0,NA,NA,NA,NA,NA,NA,NA,NA,NA,NA,NA,NA,NA,NA,NA,NA,NA,NA,NA
214ed,deep,flow.Sequence,3_0_0_0_6_0,NA,NA,completion,7066.384,273828.2,273826.169,273842.835,280909.219,280911.3,2023-02-08T17:10:49Z,280925.885,NULL,Flexibilität,kubadilika,d,NA,NA,NA,NA,sdf,NA,0,NA,NA,NA,NA,NA,NA,NA,NA,NA,NA,NA,NA,NA,NA,NA,NA,NA,NA,NA
214ed,shallow,flow.Sequence,3_0_0_0_6_1,NA,NA,skipped,NA,280911.4,NA,NA,280909.219,280911.7,2023-02-08T17:10:49Z,280925.885,NULL,Flexibilität,kubadilika,d,NA,NA,NA,NA,sdf,NA,0,NA,NA,NA,NA,NA,NA,NA,NA,NA,NA,NA,NA,NA,NA,NA,NA,NA,NA,NA
214ed,task,flow.Sequence,3_0_0_0_6,NA,NA,completion,7066.384,273828.2,273826.169,273842.835,280909.219,280911.7,2023-02-08T17:10:49Z,280925.885,NULL,Flexibilität,kubadilika,d,NA,NA,NA,NA,sdf,NA,0,NA,NA,NA,NA,NA,NA,NA,NA,NA,NA,NA,NA,NA,NA,NA,NA,NA,NA,NA
214ed,Deep Question,html.Page,3_0_0_0_7_0_0,NA,NA,form submission,3296.714999994,280911.9,280909.219,280925.885,284222.59999999,284223.09999999,2023-02-08T17:10:52Z,284226.068,NULL,Kanzler,diwani,d,NA,NA,NA,k,NA,NA,0,NA,NA,NA,NA,NA,NA,NA,NA,NA,NA,NA,NA,NA,NA,NA,NA,NA,NA,NA
214ed,"""Richtig""-Screen",canvas.Screen,3_0_0_0_7_0_1,NA,NA,skipped,NA,284225.5,NA,NA,284222.59999999,284225.7,2023-02-08T17:10:52Z,284226.068,NULL,Kanzler,diwani,d,NA,NA,NA,NA,sdf,NA,0,NA,NA,NA,NA,NA,NA,NA,NA,NA,NA,NA,NA,NA,NA,NA,NA,NA,NA,NA
214ed,"""Falsch""-Screen",canvas.Screen,3_0_0_0_7_0_2,NA,NA,timeout,4999.8,284226.4,284209.402,284226.068,289209.202,289210.7,2023-02-08T17:10:57Z,289225.868,NULL,Kanzler,diwani,d,NA,NA,NA,NA,sdf,0,0,NA,NA,NA,NA,NA,NA,NA,NA,NA,NA,NA,NA,NA,NA,NA,NA,NA,NA,NA
214ed,deep,flow.Sequence,3_0_0_0_7_0,NA,NA,completion,8283.317,280911.9,280909.219,280925.885,289209.202,289211.09999999,2023-02-08T17:10:57Z,289225.868,NULL,Kanzler,diwani,d,NA,NA,NA,NA,sdf,NA,0,NA,NA,NA,NA,NA,NA,NA,NA,NA,NA,NA,NA,NA,NA,NA,NA,NA,NA,NA
214ed,shallow,flow.Sequence,3_0_0_0_7_1,NA,NA,skipped,NA,289211.2,NA,NA,289209.202,289211.3,2023-02-08T17:10:57Z,289225.868,NULL,Kanzler,diwani,d,NA,NA,NA,NA,sdf,NA,0,NA,NA,NA,NA,NA,NA,NA,NA,NA,NA,NA,NA,NA,NA,NA,NA,NA,NA,NA
214ed,task,flow.Sequence,3_0_0_0_7,NA,NA,completion,8283.317,280911.9,280909.219,280925.885,289209.202,289211.59999999,2023-02-08T17:10:57Z,289225.868,NULL,Kanzler,diwani,d,NA,NA,NA,NA,sdf,NA,0,NA,NA,NA,NA,NA,NA,NA,NA,NA,NA,NA,NA,NA,NA,NA,NA,NA,NA,NA
214ed,block,flow.Loop,3_0_0_0,NA,NA,completion,65532.338,223668.2,223660.198,223676.864,289209.202,289211.7,2023-02-08T17:10:57Z,289225.868,NULL,NA,NA,NA,NA,NA,NA,NA,sdf,NA,0,NA,NA,NA,NA,NA,NA,NA,NA,NA,NA,NA,NA,NA,NA,NA,NA,NA,NA,NA
214ed,weiter,canvas.Screen,3_0_0_1,sdf,keypress(Space),response,1950.632,289211.8,289209.202,289225.868,291176.5,291186,2023-02-08T17:10:59Z,291225.788,NULL,NA,NA,NA,NA,NA,NA,NA,sdf,NA,0,NA,NA,NA,NA,NA,NA,NA,NA,NA,NA,NA,NA,NA,NA,NA,NA,NA,NA,NA
214ed,check continue,flow.Sequence,3_0_0,NA,NA,completion,67499.636,223668.2,223660.198,223676.864,291176.5,291186.3,2023-02-08T17:10:59Z,291225.788,NULL,NA,NA,NA,NA,NA,NA,NA,sdf,NA,0,NA,NA,NA,NA,NA,NA,NA,NA,NA,NA,NA,NA,NA,NA,NA,NA,NA,NA,NA
214ed,Deep Question,html.Page,3_0_1_0_0_0_0,NA,NA,form submission,3283.212,291218,291209.122,291225.788,294509,294509.4,2023-02-08T17:11:03Z,294525.926,NULL,Kanzler,diwani,d,NA,NA,NA,diwani,NA,NA,1,NA,NA,NA,NA,NA,NA,NA,NA,NA,NA,NA,NA,NA,NA,NA,NA,NA,NA,NA
214ed,"""Richtig""-Screen",canvas.Screen,3_0_1_0_0_0_1,NA,NA,timeout,4999.8,294512.2,294509.26,294525.926,299509.06,299510.59999999,2023-02-08T17:11:08Z,299525.726,NULL,Kanzler,diwani,d,NA,NA,NA,NA,sdfdsf,1,1,NA,NA,NA,NA,NA,NA,NA,NA,NA,NA,NA,NA,NA,NA,NA,NA,NA,NA,NA
214ed,"""Falsch""-Screen",canvas.Screen,3_0_1_0_0_0_2,NA,NA,skipped,NA,299514.09999999,NA,NA,299509.06,299514.2,2023-02-08T17:11:08Z,299525.726,NULL,Kanzler,diwani,d,NA,NA,NA,NA,sdfdsf,NA,1,NA,NA,NA,NA,NA,NA,NA,NA,NA,NA,NA,NA,NA,NA,NA,NA,NA,NA,NA
214ed,deep,flow.Sequence,3_0_1_0_0_0,NA,NA,completion,8283.272,291218,291209.122,291225.788,299509.06,299514.5,2023-02-08T17:11:08Z,299525.726,NULL,Kanzler,diwani,d,NA,NA,NA,NA,sdfdsf,NA,1,NA,NA,NA,NA,NA,NA,NA,NA,NA,NA,NA,NA,NA,NA,NA,NA,NA,NA,NA
214ed,shallow,flow.Sequence,3_0_1_0_0_1,NA,NA,skipped,NA,299514.5,NA,NA,299509.06,299514.5,2023-02-08T17:11:08Z,299525.726,NULL,Kanzler,diwani,d,NA,NA,NA,NA,sdfdsf,NA,1,NA,NA,NA,NA,NA,NA,NA,NA,NA,NA,NA,NA,NA,NA,NA,NA,NA,NA,NA
214ed,task,flow.Sequence,3_0_1_0_0,NA,NA,completion,8283.272,291218,291209.122,291225.788,299509.06,299514.7,2023-02-08T17:11:08Z,299525.726,NULL,Kanzler,diwani,d,NA,NA,NA,NA,sdfdsf,NA,1,NA,NA,NA,NA,NA,NA,NA,NA,NA,NA,NA,NA,NA,NA,NA,NA,NA,NA,NA
214ed,deep,flow.Sequence,3_0_1_0_1_0,NA,NA,skipped,NA,299514.8,NA,NA,299509.06,299515,2023-02-08T17:11:08Z,299525.726,NULL,Sänger,mwimbaji,s,msichana,shughuli,mshirika,NA,sdfdsf,NA,1,NA,NA,NA,NA,NA,NA,NA,NA,NA,NA,NA,NA,NA,NA,NA,NA,NA,NA,NA
214ed,Shallow Question,html.Page,3_0_1_0_1_1_0,NA,NA,form submission,3532.9739999955,299515.09999999,299509.06,299525.726,303058.7,303059,2023-02-08T17:11:11Z,303059.193,NULL,Sänger,mwimbaji,s,msichana,shughuli,mshirika,mwimbaji,NA,NA,1,NA,NA,NA,NA,NA,NA,NA,NA,NA,NA,NA,NA,NA,NA,NA,NA,NA,NA,NA
214ed,"""Richtig""-Screen",canvas.Screen,3_0_1_0_1_1_1,NA,NA,timeout,4999.8,303061.5,303042.527,303059.193,308042.327,308044.3,2023-02-08T17:11:16Z,308058.993,NULL,Sänger,mwimbaji,s,msichana,shughuli,mshirika,NA,sdfdsf,1,1,NA,NA,NA,NA,NA,NA,NA,NA,NA,NA,NA,NA,NA,NA,NA,NA,NA,NA,NA
214ed,"""Falsch""-Screen",canvas.Screen,3_0_1_0_1_1_2,NA,NA,skipped,NA,308048,NA,NA,308042.327,308048.09999999,2023-02-08T17:11:16Z,308058.993,NULL,Sänger,mwimbaji,s,msichana,shughuli,mshirika,NA,sdfdsf,NA,1,NA,NA,NA,NA,NA,NA,NA,NA,NA,NA,NA,NA,NA,NA,NA,NA,NA,NA,NA
214ed,shallow,flow.Sequence,3_0_1_0_1_1,NA,NA,completion,8516.601,299515.09999999,299509.06,299525.726,308042.327,308048.3,2023-02-08T17:11:16Z,308058.993,NULL,Sänger,mwimbaji,s,msichana,shughuli,mshirika,NA,sdfdsf,NA,1,NA,NA,NA,NA,NA,NA,NA,NA,NA,NA,NA,NA,NA,NA,NA,NA,NA,NA,NA
214ed,task,flow.Sequence,3_0_1_0_1,NA,NA,completion,8516.601,299514.7,299509.06,299525.726,308042.327,308048.5,2023-02-08T17:11:16Z,308058.993,NULL,Sänger,mwimbaji,s,msichana,shughuli,mshirika,NA,sdfdsf,NA,1,NA,NA,NA,NA,NA,NA,NA,NA,NA,NA,NA,NA,NA,NA,NA,NA,NA,NA,NA
214ed,Deep Question,html.Page,3_0_1_0_2_0_0,NA,NA,form submission,2536.007,308048.7,308042.327,308058.993,310595,310595.3,2023-02-08T17:11:19Z,310608.891,NULL,Abrechnung,uhasibu,d,NA,NA,NA,a,NA,NA,1,NA,NA,NA,NA,NA,NA,NA,NA,NA,NA,NA,NA,NA,NA,NA,NA,NA,NA,NA
214ed,"""Richtig""-Screen",canvas.Screen,3_0_1_0_2_0_1,NA,NA,skipped,NA,310598.2,NA,NA,310595,310598.3,2023-02-08T17:11:19Z,310608.891,NULL,Abrechnung,uhasibu,d,NA,NA,NA,NA,sdfdsf,NA,1,NA,NA,NA,NA,NA,NA,NA,NA,NA,NA,NA,NA,NA,NA,NA,NA,NA,NA,NA
214ed,"""Falsch""-Screen",canvas.Screen,3_0_1_0_2_0_2,NA,NA,timeout,4999.8,310599.09999999,310592.225,310608.891,315592.025,315593.9,2023-02-08T17:11:24Z,315608.691,NULL,Abrechnung,uhasibu,d,NA,NA,NA,NA,sdfdsf,0,1,NA,NA,NA,NA,NA,NA,NA,NA,NA,NA,NA,NA,NA,NA,NA,NA,NA,NA,NA
214ed,deep,flow.Sequence,3_0_1_0_2_0,NA,NA,completion,7533.032,308048.59999999,308042.327,308058.993,315592.025,315594.3,2023-02-08T17:11:24Z,315608.691,NULL,Abrechnung,uhasibu,d,NA,NA,NA,NA,sdfdsf,NA,1,NA,NA,NA,NA,NA,NA,NA,NA,NA,NA,NA,NA,NA,NA,NA,NA,NA,NA,NA
214ed,shallow,flow.Sequence,3_0_1_0_2_1,NA,NA,skipped,NA,315594.4,NA,NA,315592.025,315594.59999999,2023-02-08T17:11:24Z,315608.691,NULL,Abrechnung,uhasibu,d,NA,NA,NA,NA,sdfdsf,NA,1,NA,NA,NA,NA,NA,NA,NA,NA,NA,NA,NA,NA,NA,NA,NA,NA,NA,NA,NA
214ed,task,flow.Sequence,3_0_1_0_2,NA,NA,completion,7533.032,308048.59999999,308042.327,308058.993,315592.025,315594.7,2023-02-08T17:11:24Z,315608.691,NULL,Abrechnung,uhasibu,d,NA,NA,NA,NA,sdfdsf,NA,1,NA,NA,NA,NA,NA,NA,NA,NA,NA,NA,NA,NA,NA,NA,NA,NA,NA,NA,NA
214ed,deep,flow.Sequence,3_0_1_0_3_0,NA,NA,skipped,NA,315595,NA,NA,315592.025,315595,2023-02-08T17:11:24Z,315608.691,NULL,Angreifer,mshambulizi,s,kitengo,tasinia,usafirishaji,NA,sdfdsf,NA,1,NA,NA,NA,NA,NA,NA,NA,NA,NA,NA,NA,NA,NA,NA,NA,NA,NA,NA,NA
214ed,Shallow Question,html.Page,3_0_1_0_3_1_0,NA,NA,form submission,4723.809,315595.2,315592.025,315608.691,320332.5,320332.8,2023-02-08T17:11:29Z,320342.198,NULL,Angreifer,mshambulizi,s,kitengo,tasinia,usafirishaji,mshambulizi,NA,NA,1,NA,NA,NA,NA,NA,NA,NA,NA,NA,NA,NA,NA,NA,NA,NA,NA,NA,NA,NA
214ed,"""Richtig""-Screen",canvas.Screen,3_0_1_0_3_1_1,NA,NA,timeout,4999.8,320335.2,320325.532,320342.198,325325.332,325326.59999999,2023-02-08T17:11:34Z,325341.998,NULL,Angreifer,mshambulizi,s,kitengo,tasinia,usafirishaji,NA,sdfdsf,1,1,NA,NA,NA,NA,NA,NA,NA,NA,NA,NA,NA,NA,NA,NA,NA,NA,NA,NA,NA
214ed,"""Falsch""-Screen",canvas.Screen,3_0_1_0_3_1_2,NA,NA,skipped,NA,325330.3,NA,NA,325325.332,325330.5,2023-02-08T17:11:34Z,325341.998,NULL,Angreifer,mshambulizi,s,kitengo,tasinia,usafirishaji,NA,sdfdsf,NA,1,NA,NA,NA,NA,NA,NA,NA,NA,NA,NA,NA,NA,NA,NA,NA,NA,NA,NA,NA
214ed,shallow,flow.Sequence,3_0_1_0_3_1,NA,NA,completion,9716.641,315595.09999999,315592.025,315608.691,325325.332,325330.7,2023-02-08T17:11:34Z,325341.998,NULL,Angreifer,mshambulizi,s,kitengo,tasinia,usafirishaji,NA,sdfdsf,NA,1,NA,NA,NA,NA,NA,NA,NA,NA,NA,NA,NA,NA,NA,NA,NA,NA,NA,NA,NA
214ed,task,flow.Sequence,3_0_1_0_3,NA,NA,completion,9716.641,315594.8,315592.025,315608.691,325325.332,325330.8,2023-02-08T17:11:34Z,325341.998,NULL,Angreifer,mshambulizi,s,kitengo,tasinia,usafirishaji,NA,sdfdsf,NA,1,NA,NA,NA,NA,NA,NA,NA,NA,NA,NA,NA,NA,NA,NA,NA,NA,NA,NA,NA
214ed,Deep Question,html.Page,3_0_1_0_4_0_0,NA,NA,form submission,2145.7019999955,325331,325325.332,325341.998,327487.7,327488.2,2023-02-08T17:11:36Z,327492.196,NULL,Flexibilität,kubadilika,d,NA,NA,NA,s,NA,NA,1,NA,NA,NA,NA,NA,NA,NA,NA,NA,NA,NA,NA,NA,NA,NA,NA,NA,NA,NA
214ed,"""Richtig""-Screen",canvas.Screen,3_0_1_0_4_0_1,NA,NA,skipped,NA,327489.5,NA,NA,327487.7,327489.7,2023-02-08T17:11:36Z,327492.196,NULL,Flexibilität,kubadilika,d,NA,NA,NA,NA,sdfdsf,NA,1,NA,NA,NA,NA,NA,NA,NA,NA,NA,NA,NA,NA,NA,NA,NA,NA,NA,NA,NA
214ed,"""Falsch""-Screen",canvas.Screen,3_0_1_0_4_0_2,NA,NA,timeout,4999.8,327490.5,327475.53,327492.196,332475.33,332477.09999999,2023-02-08T17:11:41Z,332491.996,NULL,Flexibilität,kubadilika,d,NA,NA,NA,NA,sdfdsf,0,1,NA,NA,NA,NA,NA,NA,NA,NA,NA,NA,NA,NA,NA,NA,NA,NA,NA,NA,NA
214ed,deep,flow.Sequence,3_0_1_0_4_0,NA,NA,completion,7133.332,325330.9,325325.332,325341.998,332475.33,332477.4,2023-02-08T17:11:41Z,332491.996,NULL,Flexibilität,kubadilika,d,NA,NA,NA,NA,sdfdsf,NA,1,NA,NA,NA,NA,NA,NA,NA,NA,NA,NA,NA,NA,NA,NA,NA,NA,NA,NA,NA
214ed,shallow,flow.Sequence,3_0_1_0_4_1,NA,NA,skipped,NA,332477.59999999,NA,NA,332475.33,332477.7,2023-02-08T17:11:41Z,332491.996,NULL,Flexibilität,kubadilika,d,NA,NA,NA,NA,sdfdsf,NA,1,NA,NA,NA,NA,NA,NA,NA,NA,NA,NA,NA,NA,NA,NA,NA,NA,NA,NA,NA
214ed,task,flow.Sequence,3_0_1_0_4,NA,NA,completion,7133.332,325330.9,325325.332,325341.998,332475.33,332477.8,2023-02-08T17:11:41Z,332491.996,NULL,Flexibilität,kubadilika,d,NA,NA,NA,NA,sdfdsf,NA,1,NA,NA,NA,NA,NA,NA,NA,NA,NA,NA,NA,NA,NA,NA,NA,NA,NA,NA,NA
214ed,deep,flow.Sequence,3_0_1_0_5_0,NA,NA,skipped,NA,332478,NA,NA,332475.33,332478.09999999,2023-02-08T17:11:41Z,332491.996,NULL,Wechsel,ugeuzaji,s,utambulisho,kujenga,wasiwasi,NA,sdfdsf,NA,1,NA,NA,NA,NA,NA,NA,NA,NA,NA,NA,NA,NA,NA,NA,NA,NA,NA,NA,NA
214ed,Shallow Question,html.Page,3_0_1_0_5_1_0,NA,NA,form submission,5777.9039999985,332478.2,332475.33,332491.996,338269.9,338270.09999999,2023-02-08T17:11:47Z,338275.385,NULL,Wechsel,ugeuzaji,s,utambulisho,kujenga,wasiwasi,ugeuzaji,NA,NA,1,NA,NA,NA,NA,NA,NA,NA,NA,NA,NA,NA,NA,NA,NA,NA,NA,NA,NA,NA
214ed,"""Richtig""-Screen",canvas.Screen,3_0_1_0_5_1_1,NA,NA,timeout,4999.8,338272.8,338258.719,338275.385,343258.519,343261,2023-02-08T17:11:52Z,343275.185,NULL,Wechsel,ugeuzaji,s,utambulisho,kujenga,wasiwasi,NA,sdfdsf,1,1,NA,NA,NA,NA,NA,NA,NA,NA,NA,NA,NA,NA,NA,NA,NA,NA,NA,NA,NA
214ed,"""Falsch""-Screen",canvas.Screen,3_0_1_0_5_1_2,NA,NA,skipped,NA,343264.7,NA,NA,343258.519,343265.09999999,2023-02-08T17:11:52Z,343275.185,NULL,Wechsel,ugeuzaji,s,utambulisho,kujenga,wasiwasi,NA,sdfdsf,NA,1,NA,NA,NA,NA,NA,NA,NA,NA,NA,NA,NA,NA,NA,NA,NA,NA,NA,NA,NA
214ed,shallow,flow.Sequence,3_0_1_0_5_1,NA,NA,completion,10766.523,332478.2,332475.33,332491.996,343258.519,343265.09999999,2023-02-08T17:11:52Z,343275.185,NULL,Wechsel,ugeuzaji,s,utambulisho,kujenga,wasiwasi,NA,sdfdsf,NA,1,NA,NA,NA,NA,NA,NA,NA,NA,NA,NA,NA,NA,NA,NA,NA,NA,NA,NA,NA
214ed,task,flow.Sequence,3_0_1_0_5,NA,NA,completion,10766.523,332478,332475.33,332491.996,343258.519,343265.3,2023-02-08T17:11:52Z,343275.185,NULL,Wechsel,ugeuzaji,s,utambulisho,kujenga,wasiwasi,NA,sdfdsf,NA,1,NA,NA,NA,NA,NA,NA,NA,NA,NA,NA,NA,NA,NA,NA,NA,NA,NA,NA,NA
214ed,deep,flow.Sequence,3_0_1_0_6_0,NA,NA,skipped,NA,343265.4,NA,NA,343258.519,343265.5,2023-02-08T17:11:52Z,343275.185,NULL,Erneuerung,ukarabati,s,ushawishi,ukalifu,unyonyaji,NA,sdfdsf,NA,1,NA,NA,NA,NA,NA,NA,NA,NA,NA,NA,NA,NA,NA,NA,NA,NA,NA,NA,NA
214ed,Shallow Question,html.Page,3_0_1_0_6_1_0,NA,NA,form submission,7885.0149999955,343265.5,343258.519,343275.185,351160.2,351160.5,2023-02-08T17:11:59Z,351175.146,NULL,Erneuerung,ukarabati,s,ushawishi,ukalifu,unyonyaji,ukarabati,NA,NA,1,NA,NA,NA,NA,NA,NA,NA,NA,NA,NA,NA,NA,NA,NA,NA,NA,NA,NA,NA
214ed,"""Richtig""-Screen",canvas.Screen,3_0_1_0_6_1_1,NA,NA,timeout,4999.8,351163,351158.48,351175.146,356158.28,356159.59999999,2023-02-08T17:12:04Z,356174.946,NULL,Erneuerung,ukarabati,s,ushawishi,ukalifu,unyonyaji,NA,sdfdsf,1,1,NA,NA,NA,NA,NA,NA,NA,NA,NA,NA,NA,NA,NA,NA,NA,NA,NA,NA,NA
214ed,"""Falsch""-Screen",canvas.Screen,3_0_1_0_6_1_2,NA,NA,skipped,NA,356163.4,NA,NA,356158.28,356163.59999999,2023-02-08T17:12:04Z,356174.946,NULL,Erneuerung,ukarabati,s,ushawishi,ukalifu,unyonyaji,NA,sdfdsf,NA,1,NA,NA,NA,NA,NA,NA,NA,NA,NA,NA,NA,NA,NA,NA,NA,NA,NA,NA,NA
214ed,shallow,flow.Sequence,3_0_1_0_6_1,NA,NA,completion,12883.095,343265.5,343258.519,343275.185,356158.28,356163.7,2023-02-08T17:12:04Z,356174.946,NULL,Erneuerung,ukarabati,s,ushawishi,ukalifu,unyonyaji,NA,sdfdsf,NA,1,NA,NA,NA,NA,NA,NA,NA,NA,NA,NA,NA,NA,NA,NA,NA,NA,NA,NA,NA
214ed,task,flow.Sequence,3_0_1_0_6,NA,NA,completion,12883.095,343265.4,343258.519,343275.185,356158.28,356163.8,2023-02-08T17:12:04Z,356174.946,NULL,Erneuerung,ukarabati,s,ushawishi,ukalifu,unyonyaji,NA,sdfdsf,NA,1,NA,NA,NA,NA,NA,NA,NA,NA,NA,NA,NA,NA,NA,NA,NA,NA,NA,NA,NA
214ed,Deep Question,html.Page,3_0_1_0_7_0_0,NA,NA,form submission,3233.4539999985,356164,356158.28,356174.946,359408.4,359409.09999999,2023-02-08T17:12:08Z,359425.087,NULL,Atmosphäre,angahewa,d,NA,NA,NA,a,NA,NA,1,NA,NA,NA,NA,NA,NA,NA,NA,NA,NA,NA,NA,NA,NA,NA,NA,NA,NA,NA
214ed,"""Richtig""-Screen",canvas.Screen,3_0_1_0_7_0_1,NA,NA,skipped,NA,359412,NA,NA,359408.4,359412,2023-02-08T17:12:08Z,359425.087,NULL,Atmosphäre,angahewa,d,NA,NA,NA,NA,sdfdsf,NA,1,NA,NA,NA,NA,NA,NA,NA,NA,NA,NA,NA,NA,NA,NA,NA,NA,NA,NA,NA
214ed,"""Falsch""-Screen",canvas.Screen,3_0_1_0_7_0_2,NA,NA,timeout,4999.8,359413,359408.421,359425.087,364408.221,364410.09999999,2023-02-08T17:12:13Z,364424.887,NULL,Atmosphäre,angahewa,d,NA,NA,NA,NA,sdfdsf,0,1,NA,NA,NA,NA,NA,NA,NA,NA,NA,NA,NA,NA,NA,NA,NA,NA,NA,NA,NA
214ed,deep,flow.Sequence,3_0_1_0_7_0,NA,NA,completion,8233.275,356163.9,356158.28,356174.946,364408.221,364410.5,2023-02-08T17:12:13Z,364424.887,NULL,Atmosphäre,angahewa,d,NA,NA,NA,NA,sdfdsf,NA,1,NA,NA,NA,NA,NA,NA,NA,NA,NA,NA,NA,NA,NA,NA,NA,NA,NA,NA,NA
214ed,shallow,flow.Sequence,3_0_1_0_7_1,NA,NA,skipped,NA,364410.7,NA,NA,364408.221,364410.8,2023-02-08T17:12:13Z,364424.887,NULL,Atmosphäre,angahewa,d,NA,NA,NA,NA,sdfdsf,NA,1,NA,NA,NA,NA,NA,NA,NA,NA,NA,NA,NA,NA,NA,NA,NA,NA,NA,NA,NA
214ed,task,flow.Sequence,3_0_1_0_7,NA,NA,completion,8233.275,356163.8,356158.28,356174.946,364408.221,364411,2023-02-08T17:12:13Z,364424.887,NULL,Atmosphäre,angahewa,d,NA,NA,NA,NA,sdfdsf,NA,1,NA,NA,NA,NA,NA,NA,NA,NA,NA,NA,NA,NA,NA,NA,NA,NA,NA,NA,NA
214ed,block,flow.Loop,3_0_1_0,NA,NA,completion,73182.433,291218,291209.122,291225.788,364408.221,364411.2,2023-02-08T17:12:13Z,364424.887,NULL,NA,NA,NA,NA,NA,NA,NA,sdfdsf,NA,1,NA,NA,NA,NA,NA,NA,NA,NA,NA,NA,NA,NA,NA,NA,NA,NA,NA,NA,NA
214ed,weiter,canvas.Screen,3_0_1_1,sdf,keypress(Space),response,1183.412999997,364411.2,364408.221,364424.887,365608.3,365617.9,2023-02-08T17:12:14Z,365658.171,NULL,NA,NA,NA,NA,NA,NA,NA,sdfdsf,NA,1,NA,NA,NA,NA,NA,NA,NA,NA,NA,NA,NA,NA,NA,NA,NA,NA,NA,NA,NA
214ed,check continue,flow.Sequence,3_0_1,NA,NA,completion,74382.511999997,291218,291209.122,291225.788,365608.3,365618.09999999,2023-02-08T17:12:14Z,365658.171,NULL,NA,NA,NA,NA,NA,NA,NA,sdfdsf,NA,1,NA,NA,NA,NA,NA,NA,NA,NA,NA,NA,NA,NA,NA,NA,NA,NA,NA,NA,NA
214ed,Deep Question,html.Page,3_0_2_0_0_0_0,NA,NA,form submission,7494.7289999985,365649.8,365641.505,365658.171,373152.9,373153.2,2023-02-08T17:12:21Z,373158.133,NULL,Kanzler,diwani,d,NA,NA,NA,wanda,NA,NA,2,NA,NA,NA,NA,NA,NA,NA,NA,NA,NA,NA,NA,NA,NA,NA,NA,NA,NA,NA
214ed,"""Richtig""-Screen",canvas.Screen,3_0_2_0_0_0_1,NA,NA,skipped,NA,373156.2,NA,NA,373152.9,373156.4,2023-02-08T17:12:21Z,373158.133,NULL,Kanzler,diwani,d,NA,NA,NA,NA,sdf,NA,2,NA,NA,NA,NA,NA,NA,NA,NA,NA,NA,NA,NA,NA,NA,NA,NA,NA,NA,NA
214ed,"""Falsch""-Screen",canvas.Screen,3_0_2_0_0_0_2,NA,NA,timeout,4999.8,373157.2,373141.467,373158.133,378141.267,378143.09999999,2023-02-08T17:12:26Z,378157.933,NULL,Kanzler,diwani,d,NA,NA,NA,NA,sdf,0,2,NA,NA,NA,NA,NA,NA,NA,NA,NA,NA,NA,NA,NA,NA,NA,NA,NA,NA,NA
214ed,deep,flow.Sequence,3_0_2_0_0_0,NA,NA,completion,12483.096,365649.8,365641.505,365658.171,378141.267,378143.4,2023-02-08T17:12:26Z,378157.933,NULL,Kanzler,diwani,d,NA,NA,NA,NA,sdf,NA,2,NA,NA,NA,NA,NA,NA,NA,NA,NA,NA,NA,NA,NA,NA,NA,NA,NA,NA,NA
214ed,shallow,flow.Sequence,3_0_2_0_0_1,NA,NA,skipped,NA,378143.5,NA,NA,378141.267,378143.59999999,2023-02-08T17:12:26Z,378157.933,NULL,Kanzler,diwani,d,NA,NA,NA,NA,sdf,NA,2,NA,NA,NA,NA,NA,NA,NA,NA,NA,NA,NA,NA,NA,NA,NA,NA,NA,NA,NA
214ed,task,flow.Sequence,3_0_2_0_0,NA,NA,completion,12483.096,365649.8,365641.505,365658.171,378141.267,378143.8,2023-02-08T17:12:26Z,378157.933,NULL,Kanzler,diwani,d,NA,NA,NA,NA,sdf,NA,2,NA,NA,NA,NA,NA,NA,NA,NA,NA,NA,NA,NA,NA,NA,NA,NA,NA,NA,NA
214ed,Deep Question,html.Page,3_0_2_0_1_0_0,NA,NA,form submission,3399.366999997,378143.9,378141.267,378157.933,381557.3,381558.09999999,2023-02-08T17:12:30Z,381574.781,NULL,Flexibilität,kubadilika,d,NA,NA,NA,a,NA,NA,2,NA,NA,NA,NA,NA,NA,NA,NA,NA,NA,NA,NA,NA,NA,NA,NA,NA,NA,NA
214ed,"""Richtig""-Screen",canvas.Screen,3_0_2_0_1_0_1,NA,NA,skipped,NA,381561,NA,NA,381557.3,381561.2,2023-02-08T17:12:30Z,381574.781,NULL,Flexibilität,kubadilika,d,NA,NA,NA,NA,sdf,NA,2,NA,NA,NA,NA,NA,NA,NA,NA,NA,NA,NA,NA,NA,NA,NA,NA,NA,NA,NA
214ed,"""Falsch""-Screen",canvas.Screen,3_0_2_0_1_0_2,NA,NA,timeout,4999.8,381562,381558.115,381574.781,386557.915,386559.7,2023-02-08T17:12:35Z,386574.581,NULL,Flexibilität,kubadilika,d,NA,NA,NA,NA,sdf,0,2,NA,NA,NA,NA,NA,NA,NA,NA,NA,NA,NA,NA,NA,NA,NA,NA,NA,NA,NA
214ed,deep,flow.Sequence,3_0_2_0_1_0,NA,NA,completion,8399.982,378143.9,378141.267,378157.933,386557.915,386560.09999999,2023-02-08T17:12:35Z,386574.581,NULL,Flexibilität,kubadilika,d,NA,NA,NA,NA,sdf,NA,2,NA,NA,NA,NA,NA,NA,NA,NA,NA,NA,NA,NA,NA,NA,NA,NA,NA,NA,NA
214ed,shallow,flow.Sequence,3_0_2_0_1_1,NA,NA,skipped,NA,386560.2,NA,NA,386557.915,386560.4,2023-02-08T17:12:35Z,386574.581,NULL,Flexibilität,kubadilika,d,NA,NA,NA,NA,sdf,NA,2,NA,NA,NA,NA,NA,NA,NA,NA,NA,NA,NA,NA,NA,NA,NA,NA,NA,NA,NA
214ed,task,flow.Sequence,3_0_2_0_1,NA,NA,completion,8399.982,378143.9,378141.267,378157.933,386557.915,386560.59999999,2023-02-08T17:12:35Z,386574.581,NULL,Flexibilität,kubadilika,d,NA,NA,NA,NA,sdf,NA,2,NA,NA,NA,NA,NA,NA,NA,NA,NA,NA,NA,NA,NA,NA,NA,NA,NA,NA,NA
214ed,Deep Question,html.Page,3_0_2_0_2_0_0,NA,NA,form submission,8151.718999997,386560.7,386557.915,386574.581,394726.3,394726.7,2023-02-08T17:12:43Z,394741.229,NULL,Abrechnung,uhasibu,d,NA,NA,NA,d,NA,NA,2,NA,NA,NA,NA,NA,NA,NA,NA,NA,NA,NA,NA,NA,NA,NA,NA,NA,NA,NA
214ed,"""Richtig""-Screen",canvas.Screen,3_0_2_0_2_0_1,NA,NA,skipped,NA,394729.2,NA,NA,394726.3,394729.3,2023-02-08T17:12:43Z,394741.229,NULL,Abrechnung,uhasibu,d,NA,NA,NA,NA,sdf,NA,2,NA,NA,NA,NA,NA,NA,NA,NA,NA,NA,NA,NA,NA,NA,NA,NA,NA,NA,NA
214ed,"""Falsch""-Screen",canvas.Screen,3_0_2_0_2_0_2,NA,NA,timeout,4999.8,394730,394724.563,394741.229,399724.363,399726.09999999,2023-02-08T17:12:48Z,399741.029,NULL,Abrechnung,uhasibu,d,NA,NA,NA,NA,sdf,0,2,NA,NA,NA,NA,NA,NA,NA,NA,NA,NA,NA,NA,NA,NA,NA,NA,NA,NA,NA
214ed,deep,flow.Sequence,3_0_2_0_2_0,NA,NA,completion,13149.782,386560.7,386557.915,386574.581,399724.363,399726.5,2023-02-08T17:12:48Z,399741.029,NULL,Abrechnung,uhasibu,d,NA,NA,NA,NA,sdf,NA,2,NA,NA,NA,NA,NA,NA,NA,NA,NA,NA,NA,NA,NA,NA,NA,NA,NA,NA,NA
214ed,shallow,flow.Sequence,3_0_2_0_2_1,NA,NA,skipped,NA,399726.59999999,NA,NA,399724.363,399726.8,2023-02-08T17:12:48Z,399741.029,NULL,Abrechnung,uhasibu,d,NA,NA,NA,NA,sdf,NA,2,NA,NA,NA,NA,NA,NA,NA,NA,NA,NA,NA,NA,NA,NA,NA,NA,NA,NA,NA
214ed,task,flow.Sequence,3_0_2_0_2,NA,NA,completion,13149.782,386560.59999999,386557.915,386574.581,399724.363,399726.9,2023-02-08T17:12:48Z,399741.029,NULL,Abrechnung,uhasibu,d,NA,NA,NA,NA,sdf,NA,2,NA,NA,NA,NA,NA,NA,NA,NA,NA,NA,NA,NA,NA,NA,NA,NA,NA,NA,NA
214ed,deep,flow.Sequence,3_0_2_0_3_0,NA,NA,skipped,NA,399727.09999999,NA,NA,399724.363,399727.2,2023-02-08T17:12:48Z,399741.029,NULL,Wechsel,ugeuzaji,s,utambulisho,kujenga,wasiwasi,NA,sdf,NA,2,NA,NA,NA,NA,NA,NA,NA,NA,NA,NA,NA,NA,NA,NA,NA,NA,NA,NA,NA
214ed,Shallow Question,html.Page,3_0_2_0_3_1_0,NA,NA,form submission,4787.270999997,399727.3,399724.363,399741.029,404528.3,404528.7,2023-02-08T17:12:53Z,404541.104,NULL,Wechsel,ugeuzaji,s,utambulisho,kujenga,wasiwasi,ugeuzaji,NA,NA,2,NA,NA,NA,NA,NA,NA,NA,NA,NA,NA,NA,NA,NA,NA,NA,NA,NA,NA,NA
214ed,"""Richtig""-Screen",canvas.Screen,3_0_2_0_3_1_1,NA,NA,timeout,4999.8,404531.4,404524.438,404541.104,409524.238,409526.5,2023-02-08T17:12:58Z,409540.904,NULL,Wechsel,ugeuzaji,s,utambulisho,kujenga,wasiwasi,NA,sdf,1,2,NA,NA,NA,NA,NA,NA,NA,NA,NA,NA,NA,NA,NA,NA,NA,NA,NA,NA,NA
214ed,"""Falsch""-Screen",canvas.Screen,3_0_2_0_3_1_2,NA,NA,skipped,NA,409530.5,NA,NA,409524.238,409530.59999999,2023-02-08T17:12:58Z,409540.904,NULL,Wechsel,ugeuzaji,s,utambulisho,kujenga,wasiwasi,NA,sdf,NA,2,NA,NA,NA,NA,NA,NA,NA,NA,NA,NA,NA,NA,NA,NA,NA,NA,NA,NA,NA
214ed,shallow,flow.Sequence,3_0_2_0_3_1,NA,NA,completion,9783.209,399727.3,399724.363,399741.029,409524.238,409530.8,2023-02-08T17:12:58Z,409540.904,NULL,Wechsel,ugeuzaji,s,utambulisho,kujenga,wasiwasi,NA,sdf,NA,2,NA,NA,NA,NA,NA,NA,NA,NA,NA,NA,NA,NA,NA,NA,NA,NA,NA,NA,NA
214ed,task,flow.Sequence,3_0_2_0_3,NA,NA,completion,9783.209,399727,399724.363,399741.029,409524.238,409530.9,2023-02-08T17:12:58Z,409540.904,NULL,Wechsel,ugeuzaji,s,utambulisho,kujenga,wasiwasi,NA,sdf,NA,2,NA,NA,NA,NA,NA,NA,NA,NA,NA,NA,NA,NA,NA,NA,NA,NA,NA,NA,NA
214ed,deep,flow.Sequence,3_0_2_0_4_0,NA,NA,skipped,NA,409531,NA,NA,409524.238,409531,2023-02-08T17:12:58Z,409540.904,NULL,Angreifer,mshambulizi,s,kitengo,tasinia,usafirishaji,NA,sdf,NA,2,NA,NA,NA,NA,NA,NA,NA,NA,NA,NA,NA,NA,NA,NA,NA,NA,NA,NA,NA
214ed,Shallow Question,html.Page,3_0_2_0_4_1_0,NA,NA,form submission,3554.1959999941,409531.2,409524.238,409540.904,413095.09999999,413095.4,2023-02-08T17:13:01Z,413107.428,NULL,Angreifer,mshambulizi,s,kitengo,tasinia,usafirishaji,mshambulizi,NA,NA,2,NA,NA,NA,NA,NA,NA,NA,NA,NA,NA,NA,NA,NA,NA,NA,NA,NA,NA,NA
214ed,"""Richtig""-Screen",canvas.Screen,3_0_2_0_4_1_1,NA,NA,timeout,5000.076,413097.59999999,413090.762,413107.428,418090.838,418093.09999999,2023-02-08T17:13:06Z,418107.504,NULL,Angreifer,mshambulizi,s,kitengo,tasinia,usafirishaji,NA,sdf,1,2,NA,NA,NA,NA,NA,NA,NA,NA,NA,NA,NA,NA,NA,NA,NA,NA,NA,NA,NA
214ed,"""Falsch""-Screen",canvas.Screen,3_0_2_0_4_1_2,NA,NA,skipped,NA,418097,NA,NA,418090.838,418097.09999999,2023-02-08T17:13:06Z,418107.504,NULL,Angreifer,mshambulizi,s,kitengo,tasinia,usafirishaji,NA,sdf,NA,2,NA,NA,NA,NA,NA,NA,NA,NA,NA,NA,NA,NA,NA,NA,NA,NA,NA,NA,NA
214ed,shallow,flow.Sequence,3_0_2_0_4_1,NA,NA,completion,8549.934,409531.2,409524.238,409540.904,418090.838,418097.4,2023-02-08T17:13:06Z,418107.504,NULL,Angreifer,mshambulizi,s,kitengo,tasinia,usafirishaji,NA,sdf,NA,2,NA,NA,NA,NA,NA,NA,NA,NA,NA,NA,NA,NA,NA,NA,NA,NA,NA,NA,NA
214ed,task,flow.Sequence,3_0_2_0_4,NA,NA,completion,8549.934,409530.9,409524.238,409540.904,418090.838,418097.5,2023-02-08T17:13:06Z,418107.504,NULL,Angreifer,mshambulizi,s,kitengo,tasinia,usafirishaji,NA,sdf,NA,2,NA,NA,NA,NA,NA,NA,NA,NA,NA,NA,NA,NA,NA,NA,NA,NA,NA,NA,NA
214ed,deep,flow.Sequence,3_0_2_0_5_0,NA,NA,skipped,NA,418097.5,NA,NA,418090.838,418097.59999999,2023-02-08T17:13:06Z,418107.504,NULL,Sänger,mwimbaji,s,msichana,shughuli,mshirika,NA,sdf,NA,2,NA,NA,NA,NA,NA,NA,NA,NA,NA,NA,NA,NA,NA,NA,NA,NA,NA,NA,NA
214ed,Shallow Question,html.Page,3_0_2_0_5_1_0,NA,NA,form submission,4534.996,418097.7,418090.838,418107.504,422642.5,422642.7,2023-02-08T17:13:11Z,422657.322,NULL,Sänger,mwimbaji,s,msichana,shughuli,mshirika,mwimbaji,NA,NA,2,NA,NA,NA,NA,NA,NA,NA,NA,NA,NA,NA,NA,NA,NA,NA,NA,NA,NA,NA
214ed,"""Richtig""-Screen",canvas.Screen,3_0_2_0_5_1_1,NA,NA,timeout,4999.8,422645.09999999,422640.656,422657.322,427640.456,427642.2,2023-02-08T17:13:16Z,427657.122,NULL,Sänger,mwimbaji,s,msichana,shughuli,mshirika,NA,sdf,1,2,NA,NA,NA,NA,NA,NA,NA,NA,NA,NA,NA,NA,NA,NA,NA,NA,NA,NA,NA
214ed,"""Falsch""-Screen",canvas.Screen,3_0_2_0_5_1_2,NA,NA,skipped,NA,427645.9,NA,NA,427640.456,427646.09999999,2023-02-08T17:13:16Z,427657.122,NULL,Sänger,mwimbaji,s,msichana,shughuli,mshirika,NA,sdf,NA,2,NA,NA,NA,NA,NA,NA,NA,NA,NA,NA,NA,NA,NA,NA,NA,NA,NA,NA,NA
214ed,shallow,flow.Sequence,3_0_2_0_5_1,NA,NA,completion,9532.952,418097.7,418090.838,418107.504,427640.456,427646.2,2023-02-08T17:13:16Z,427657.122,NULL,Sänger,mwimbaji,s,msichana,shughuli,mshirika,NA,sdf,NA,2,NA,NA,NA,NA,NA,NA,NA,NA,NA,NA,NA,NA,NA,NA,NA,NA,NA,NA,NA
214ed,task,flow.Sequence,3_0_2_0_5,NA,NA,completion,9532.952,418097.5,418090.838,418107.504,427640.456,427646.4,2023-02-08T17:13:16Z,427657.122,NULL,Sänger,mwimbaji,s,msichana,shughuli,mshirika,NA,sdf,NA,2,NA,NA,NA,NA,NA,NA,NA,NA,NA,NA,NA,NA,NA,NA,NA,NA,NA,NA,NA
214ed,deep,flow.Sequence,3_0_2_0_6_0,NA,NA,skipped,NA,427646.4,NA,NA,427640.456,427646.5,2023-02-08T17:13:16Z,427657.122,NULL,Erneuerung,ukarabati,s,ushawishi,ukalifu,unyonyaji,NA,sdf,NA,2,NA,NA,NA,NA,NA,NA,NA,NA,NA,NA,NA,NA,NA,NA,NA,NA,NA,NA,NA
214ed,Shallow Question,html.Page,3_0_2_0_6_1_0,NA,NA,form submission,4373.2779999985,427646.59999999,427640.456,427657.122,432030.4,432030.8,2023-02-08T17:13:20Z,432040.661,NULL,Erneuerung,ukarabati,s,ushawishi,ukalifu,unyonyaji,ukarabati,NA,NA,2,NA,NA,NA,NA,NA,NA,NA,NA,NA,NA,NA,NA,NA,NA,NA,NA,NA,NA,NA
214ed,"""Richtig""-Screen",canvas.Screen,3_0_2_0_6_1_1,NA,NA,timeout,4999.8,432033.3,432023.995,432040.661,437023.795,437026,2023-02-08T17:13:25Z,437040.461,NULL,Erneuerung,ukarabati,s,ushawishi,ukalifu,unyonyaji,NA,sdf,1,2,NA,NA,NA,NA,NA,NA,NA,NA,NA,NA,NA,NA,NA,NA,NA,NA,NA,NA,NA
214ed,"""Falsch""-Screen",canvas.Screen,3_0_2_0_6_1_2,NA,NA,skipped,NA,437029.7,NA,NA,437023.795,437029.9,2023-02-08T17:13:25Z,437040.461,NULL,Erneuerung,ukarabati,s,ushawishi,ukalifu,unyonyaji,NA,sdf,NA,2,NA,NA,NA,NA,NA,NA,NA,NA,NA,NA,NA,NA,NA,NA,NA,NA,NA,NA,NA
214ed,shallow,flow.Sequence,3_0_2_0_6_1,NA,NA,completion,9366.673,427646.59999999,427640.456,427657.122,437023.795,437030,2023-02-08T17:13:25Z,437040.461,NULL,Erneuerung,ukarabati,s,ushawishi,ukalifu,unyonyaji,NA,sdf,NA,2,NA,NA,NA,NA,NA,NA,NA,NA,NA,NA,NA,NA,NA,NA,NA,NA,NA,NA,NA
214ed,task,flow.Sequence,3_0_2_0_6,NA,NA,completion,9366.673,427646.4,427640.456,427657.122,437023.795,437030.09999999,2023-02-08T17:13:25Z,437040.461,NULL,Erneuerung,ukarabati,s,ushawishi,ukalifu,unyonyaji,NA,sdf,NA,2,NA,NA,NA,NA,NA,NA,NA,NA,NA,NA,NA,NA,NA,NA,NA,NA,NA,NA,NA
214ed,Deep Question,html.Page,3_0_2_0_7_0_0,NA,NA,form submission,7027.539,437030.2,437023.795,437040.461,444068,444068.5,2023-02-08T17:13:32Z,444073.797,NULL,Atmosphäre,angahewa,d,NA,NA,NA,a,NA,NA,2,NA,NA,NA,NA,NA,NA,NA,NA,NA,NA,NA,NA,NA,NA,NA,NA,NA,NA,NA
214ed,"""Richtig""-Screen",canvas.Screen,3_0_2_0_7_0_1,NA,NA,skipped,NA,444070.7,NA,NA,444068,444070.9,2023-02-08T17:13:32Z,444073.797,NULL,Atmosphäre,angahewa,d,NA,NA,NA,NA,sdf,NA,2,NA,NA,NA,NA,NA,NA,NA,NA,NA,NA,NA,NA,NA,NA,NA,NA,NA,NA,NA
214ed,"""Falsch""-Screen",canvas.Screen,3_0_2_0_7_0_2,NA,NA,timeout,4999.8,444071.5,444057.131,444073.797,449056.931,449059,2023-02-08T17:13:37Z,449073.597,NULL,Atmosphäre,angahewa,d,NA,NA,NA,NA,sdf,0,2,NA,NA,NA,NA,NA,NA,NA,NA,NA,NA,NA,NA,NA,NA,NA,NA,NA,NA,NA
214ed,deep,flow.Sequence,3_0_2_0_7_0,NA,NA,completion,12016.47,437030.2,437023.795,437040.461,449056.931,449059.3,2023-02-08T17:13:37Z,449073.597,NULL,Atmosphäre,angahewa,d,NA,NA,NA,NA,sdf,NA,2,NA,NA,NA,NA,NA,NA,NA,NA,NA,NA,NA,NA,NA,NA,NA,NA,NA,NA,NA
214ed,shallow,flow.Sequence,3_0_2_0_7_1,NA,NA,skipped,NA,449059.5,NA,NA,449056.931,449059.59999999,2023-02-08T17:13:37Z,449073.597,NULL,Atmosphäre,angahewa,d,NA,NA,NA,NA,sdf,NA,2,NA,NA,NA,NA,NA,NA,NA,NA,NA,NA,NA,NA,NA,NA,NA,NA,NA,NA,NA
214ed,task,flow.Sequence,3_0_2_0_7,NA,NA,completion,12016.47,437030.2,437023.795,437040.461,449056.931,449059.7,2023-02-08T17:13:37Z,449073.597,NULL,Atmosphäre,angahewa,d,NA,NA,NA,NA,sdf,NA,2,NA,NA,NA,NA,NA,NA,NA,NA,NA,NA,NA,NA,NA,NA,NA,NA,NA,NA,NA
214ed,block,flow.Loop,3_0_2_0,NA,NA,completion,83398.76,365649.8,365641.505,365658.171,449056.931,449059.9,2023-02-08T17:13:37Z,449073.597,NULL,NA,NA,NA,NA,NA,NA,NA,sdf,NA,2,NA,NA,NA,NA,NA,NA,NA,NA,NA,NA,NA,NA,NA,NA,NA,NA,NA,NA,NA
214ed,weiter,canvas.Screen,3_0_2_1,sdf,keypress(Space),response,1426.8029999985,449060,449056.931,449073.597,450500.4,450510,2023-02-08T17:13:39Z,450540.482,NULL,NA,NA,NA,NA,NA,NA,NA,sdf,NA,2,NA,NA,NA,NA,NA,NA,NA,NA,NA,NA,NA,NA,NA,NA,NA,NA,NA,NA,NA
214ed,check continue,flow.Sequence,3_0_2,NA,NA,completion,84842.228999999,365649.7,365641.505,365658.171,450500.4,450510.09999999,2023-02-08T17:13:39Z,450540.482,NULL,NA,NA,NA,NA,NA,NA,NA,sdf,NA,2,NA,NA,NA,NA,NA,NA,NA,NA,NA,NA,NA,NA,NA,NA,NA,NA,NA,NA,NA
214ed,Deep Question,html.Page,3_0_3_0_0_0_0,NA,NA,form submission,10207.317999997,450537.4,450523.816,450540.482,460747.8,460748.5,2023-02-08T17:13:49Z,460757.01,NULL,Flexibilität,kubadilika,d,NA,NA,NA,s,NA,NA,3,NA,NA,NA,NA,NA,NA,NA,NA,NA,NA,NA,NA,NA,NA,NA,NA,NA,NA,NA
214ed,"""Richtig""-Screen",canvas.Screen,3_0_3_0_0_0_1,NA,NA,skipped,NA,460751.9,NA,NA,460747.8,460752,2023-02-08T17:13:49Z,460757.01,NULL,Flexibilität,kubadilika,d,NA,NA,NA,NA,qt,NA,3,NA,NA,NA,NA,NA,NA,NA,NA,NA,NA,NA,NA,NA,NA,NA,NA,NA,NA,NA
214ed,"""Falsch""-Screen",canvas.Screen,3_0_3_0_0_0_2,NA,NA,timeout,4999.8,460752.8,460740.344,460757.01,465740.144,465742.8,2023-02-08T17:13:54Z,465756.81,NULL,Flexibilität,kubadilika,d,NA,NA,NA,NA,qt,0,3,NA,NA,NA,NA,NA,NA,NA,NA,NA,NA,NA,NA,NA,NA,NA,NA,NA,NA,NA
214ed,deep,flow.Sequence,3_0_3_0_0_0,NA,NA,completion,15199.662,450537.4,450523.816,450540.482,465740.144,465743.2,2023-02-08T17:13:54Z,465756.81,NULL,Flexibilität,kubadilika,d,NA,NA,NA,NA,qt,NA,3,NA,NA,NA,NA,NA,NA,NA,NA,NA,NA,NA,NA,NA,NA,NA,NA,NA,NA,NA
214ed,shallow,flow.Sequence,3_0_3_0_0_1,NA,NA,skipped,NA,465743.2,NA,NA,465740.144,465743.4,2023-02-08T17:13:54Z,465756.81,NULL,Flexibilität,kubadilika,d,NA,NA,NA,NA,qt,NA,3,NA,NA,NA,NA,NA,NA,NA,NA,NA,NA,NA,NA,NA,NA,NA,NA,NA,NA,NA
214ed,task,flow.Sequence,3_0_3_0_0,NA,NA,completion,15199.662,450537.4,450523.816,450540.482,465740.144,465743.5,2023-02-08T17:13:54Z,465756.81,NULL,Flexibilität,kubadilika,d,NA,NA,NA,NA,qt,NA,3,NA,NA,NA,NA,NA,NA,NA,NA,NA,NA,NA,NA,NA,NA,NA,NA,NA,NA,NA
214ed,deep,flow.Sequence,3_0_3_0_1_0,NA,NA,skipped,NA,465743.59999999,NA,NA,465740.144,465743.7,2023-02-08T17:13:54Z,465756.81,NULL,Sänger,mwimbaji,s,msichana,shughuli,mshirika,NA,qt,NA,3,NA,NA,NA,NA,NA,NA,NA,NA,NA,NA,NA,NA,NA,NA,NA,NA,NA,NA,NA
214ed,Shallow Question,html.Page,3_0_3_0_1_1_0,NA,NA,form submission,2816.69,465743.8,465740.144,465756.81,468573.5,468573.8,2023-02-08T17:13:57Z,468590.03,NULL,Sänger,mwimbaji,s,msichana,shughuli,mshirika,mwimbaji,NA,NA,3,NA,NA,NA,NA,NA,NA,NA,NA,NA,NA,NA,NA,NA,NA,NA,NA,NA,NA,NA
214ed,"""Richtig""-Screen",canvas.Screen,3_0_3_0_1_1_1,NA,NA,timeout,4999.8,468576.09999999,468573.364,468590.03,473573.164,473575.7,2023-02-08T17:14:02Z,473589.83,NULL,Sänger,mwimbaji,s,msichana,shughuli,mshirika,NA,qt,1,3,NA,NA,NA,NA,NA,NA,NA,NA,NA,NA,NA,NA,NA,NA,NA,NA,NA,NA,NA
214ed,"""Falsch""-Screen",canvas.Screen,3_0_3_0_1_1_2,NA,NA,skipped,NA,473579.59999999,NA,NA,473573.164,473579.7,2023-02-08T17:14:02Z,473589.83,NULL,Sänger,mwimbaji,s,msichana,shughuli,mshirika,NA,qt,NA,3,NA,NA,NA,NA,NA,NA,NA,NA,NA,NA,NA,NA,NA,NA,NA,NA,NA,NA,NA
214ed,shallow,flow.Sequence,3_0_3_0_1_1,NA,NA,completion,7816.354,465743.8,465740.144,465756.81,473573.164,473579.9,2023-02-08T17:14:02Z,473589.83,NULL,Sänger,mwimbaji,s,msichana,shughuli,mshirika,NA,qt,NA,3,NA,NA,NA,NA,NA,NA,NA,NA,NA,NA,NA,NA,NA,NA,NA,NA,NA,NA,NA
214ed,task,flow.Sequence,3_0_3_0_1,NA,NA,completion,7816.354,465743.59999999,465740.144,465756.81,473573.164,473580,2023-02-08T17:14:02Z,473589.83,NULL,Sänger,mwimbaji,s,msichana,shughuli,mshirika,NA,qt,NA,3,NA,NA,NA,NA,NA,NA,NA,NA,NA,NA,NA,NA,NA,NA,NA,NA,NA,NA,NA
214ed,deep,flow.Sequence,3_0_3_0_2_0,NA,NA,skipped,NA,473580,NA,NA,473573.164,473580.09999999,2023-02-08T17:14:02Z,473589.83,NULL,Angreifer,mshambulizi,s,kitengo,tasinia,usafirishaji,NA,qt,NA,3,NA,NA,NA,NA,NA,NA,NA,NA,NA,NA,NA,NA,NA,NA,NA,NA,NA,NA,NA
214ed,Shallow Question,html.Page,3_0_3_0_2_1_0,NA,NA,form submission,3326.0699999985,473580.2,473573.164,473589.83,476915.9,476916.59999999,2023-02-08T17:14:05Z,476923.401,NULL,Angreifer,mshambulizi,s,kitengo,tasinia,usafirishaji,mshambulizi,NA,NA,3,NA,NA,NA,NA,NA,NA,NA,NA,NA,NA,NA,NA,NA,NA,NA,NA,NA,NA,NA
214ed,"""Richtig""-Screen",canvas.Screen,3_0_3_0_2_1_1,NA,NA,timeout,4999.8,476919.09999999,476906.735,476923.401,481906.535,481907.2,2023-02-08T17:14:10Z,481923.201,NULL,Angreifer,mshambulizi,s,kitengo,tasinia,usafirishaji,NA,qt,1,3,NA,NA,NA,NA,NA,NA,NA,NA,NA,NA,NA,NA,NA,NA,NA,NA,NA,NA,NA
214ed,"""Falsch""-Screen",canvas.Screen,3_0_3_0_2_1_2,NA,NA,skipped,NA,481910.8,NA,NA,481906.535,481911.09999999,2023-02-08T17:14:10Z,481923.201,NULL,Angreifer,mshambulizi,s,kitengo,tasinia,usafirishaji,NA,qt,NA,3,NA,NA,NA,NA,NA,NA,NA,NA,NA,NA,NA,NA,NA,NA,NA,NA,NA,NA,NA
214ed,shallow,flow.Sequence,3_0_3_0_2_1,NA,NA,completion,8316.705,473580.2,473573.164,473589.83,481906.535,481911.2,2023-02-08T17:14:10Z,481923.201,NULL,Angreifer,mshambulizi,s,kitengo,tasinia,usafirishaji,NA,qt,NA,3,NA,NA,NA,NA,NA,NA,NA,NA,NA,NA,NA,NA,NA,NA,NA,NA,NA,NA,NA
214ed,task,flow.Sequence,3_0_3_0_2,NA,NA,completion,8316.705,473580,473573.164,473589.83,481906.535,481911.3,2023-02-08T17:14:10Z,481923.201,NULL,Angreifer,mshambulizi,s,kitengo,tasinia,usafirishaji,NA,qt,NA,3,NA,NA,NA,NA,NA,NA,NA,NA,NA,NA,NA,NA,NA,NA,NA,NA,NA,NA,NA
214ed,deep,flow.Sequence,3_0_3_0_3_0,NA,NA,skipped,NA,481911.4,NA,NA,481906.535,481911.5,2023-02-08T17:14:10Z,481923.201,NULL,Erneuerung,ukarabati,s,ushawishi,ukalifu,unyonyaji,NA,qt,NA,3,NA,NA,NA,NA,NA,NA,NA,NA,NA,NA,NA,NA,NA,NA,NA,NA,NA,NA,NA
214ed,Shallow Question,html.Page,3_0_3_0_3_1_0,NA,NA,form submission,6349.098999997,481911.59999999,481906.535,481923.201,488272.3,488272.59999999,2023-02-08T17:14:17Z,488273.256,NULL,Erneuerung,ukarabati,s,ushawishi,ukalifu,unyonyaji,ukarabati,NA,NA,3,NA,NA,NA,NA,NA,NA,NA,NA,NA,NA,NA,NA,NA,NA,NA,NA,NA,NA,NA
214ed,"""Richtig""-Screen",canvas.Screen,3_0_3_0_3_1_1,NA,NA,timeout,4999.8,488275,488256.59,488273.256,493256.39,493258.4,2023-02-08T17:14:22Z,493273.056,NULL,Erneuerung,ukarabati,s,ushawishi,ukalifu,unyonyaji,NA,qt,1,3,NA,NA,NA,NA,NA,NA,NA,NA,NA,NA,NA,NA,NA,NA,NA,NA,NA,NA,NA
214ed,"""Falsch""-Screen",canvas.Screen,3_0_3_0_3_1_2,NA,NA,skipped,NA,493262.2,NA,NA,493256.39,493262.4,2023-02-08T17:14:22Z,493273.056,NULL,Erneuerung,ukarabati,s,ushawishi,ukalifu,unyonyaji,NA,qt,NA,3,NA,NA,NA,NA,NA,NA,NA,NA,NA,NA,NA,NA,NA,NA,NA,NA,NA,NA,NA
214ed,shallow,flow.Sequence,3_0_3_0_3_1,NA,NA,completion,11333.189,481911.5,481906.535,481923.201,493256.39,493262.59999999,2023-02-08T17:14:22Z,493273.056,NULL,Erneuerung,ukarabati,s,ushawishi,ukalifu,unyonyaji,NA,qt,NA,3,NA,NA,NA,NA,NA,NA,NA,NA,NA,NA,NA,NA,NA,NA,NA,NA,NA,NA,NA
214ed,task,flow.Sequence,3_0_3_0_3,NA,NA,completion,11333.189,481911.4,481906.535,481923.201,493256.39,493262.7,2023-02-08T17:14:22Z,493273.056,NULL,Erneuerung,ukarabati,s,ushawishi,ukalifu,unyonyaji,NA,qt,NA,3,NA,NA,NA,NA,NA,NA,NA,NA,NA,NA,NA,NA,NA,NA,NA,NA,NA,NA,NA
214ed,Deep Question,html.Page,3_0_3_0_4_0_0,NA,NA,form submission,11464.343999999,493262.8,493256.39,493273.056,504737.4,504737.59999999,2023-02-08T17:14:33Z,504739.527,NULL,Atmosphäre,angahewa,d,NA,NA,NA,anghewa,NA,NA,3,NA,NA,NA,NA,NA,NA,NA,NA,NA,NA,NA,NA,NA,NA,NA,NA,NA,NA,NA
214ed,"""Richtig""-Screen",canvas.Screen,3_0_3_0_4_0_1,NA,NA,skipped,NA,504740.59999999,NA,NA,504737.4,504740.7,2023-02-08T17:14:33Z,504739.527,NULL,Atmosphäre,angahewa,d,NA,NA,NA,NA,qt,NA,3,NA,NA,NA,NA,NA,NA,NA,NA,NA,NA,NA,NA,NA,NA,NA,NA,NA,NA,NA
214ed,"""Falsch""-Screen",canvas.Screen,3_0_3_0_4_0_2,NA,NA,timeout,4999.8,504741.4,504722.861,504739.527,509722.661,509724.2,2023-02-08T17:14:38Z,509739.327,NULL,Atmosphäre,angahewa,d,NA,NA,NA,NA,qt,0,3,NA,NA,NA,NA,NA,NA,NA,NA,NA,NA,NA,NA,NA,NA,NA,NA,NA,NA,NA
214ed,deep,flow.Sequence,3_0_3_0_4_0,NA,NA,completion,16449.605,493262.8,493256.39,493273.056,509722.661,509724.5,2023-02-08T17:14:38Z,509739.327,NULL,Atmosphäre,angahewa,d,NA,NA,NA,NA,qt,NA,3,NA,NA,NA,NA,NA,NA,NA,NA,NA,NA,NA,NA,NA,NA,NA,NA,NA,NA,NA
214ed,shallow,flow.Sequence,3_0_3_0_4_1,NA,NA,skipped,NA,509724.59999999,NA,NA,509722.661,509724.8,2023-02-08T17:14:38Z,509739.327,NULL,Atmosphäre,angahewa,d,NA,NA,NA,NA,qt,NA,3,NA,NA,NA,NA,NA,NA,NA,NA,NA,NA,NA,NA,NA,NA,NA,NA,NA,NA,NA
214ed,task,flow.Sequence,3_0_3_0_4,NA,NA,completion,16449.605,493262.8,493256.39,493273.056,509722.661,509724.9,2023-02-08T17:14:38Z,509739.327,NULL,Atmosphäre,angahewa,d,NA,NA,NA,NA,qt,NA,3,NA,NA,NA,NA,NA,NA,NA,NA,NA,NA,NA,NA,NA,NA,NA,NA,NA,NA,NA
214ed,Deep Question,html.Page,3_0_3_0_5_0_0,NA,NA,form submission,3920.472999997,509725.09999999,509722.661,509739.327,513659.8,513660.3,2023-02-08T17:14:42Z,513672.877,NULL,Kanzler,diwani,d,NA,NA,NA,diwani,NA,NA,3,NA,NA,NA,NA,NA,NA,NA,NA,NA,NA,NA,NA,NA,NA,NA,NA,NA,NA,NA
214ed,"""Richtig""-Screen",canvas.Screen,3_0_3_0_5_0_1,NA,NA,timeout,4999.8,513663.8,513656.211,513672.877,518656.011,518658.09999999,2023-02-08T17:14:47Z,518672.677,NULL,Kanzler,diwani,d,NA,NA,NA,NA,qt,1,3,NA,NA,NA,NA,NA,NA,NA,NA,NA,NA,NA,NA,NA,NA,NA,NA,NA,NA,NA
214ed,"""Falsch""-Screen",canvas.Screen,3_0_3_0_5_0_2,NA,NA,skipped,NA,518661.8,NA,NA,518656.011,518661.9,2023-02-08T17:14:47Z,518672.677,NULL,Kanzler,diwani,d,NA,NA,NA,NA,qt,NA,3,NA,NA,NA,NA,NA,NA,NA,NA,NA,NA,NA,NA,NA,NA,NA,NA,NA,NA,NA
214ed,deep,flow.Sequence,3_0_3_0_5_0,NA,NA,completion,8916.684,509725.09999999,509722.661,509739.327,518656.011,518662.09999999,2023-02-08T17:14:47Z,518672.677,NULL,Kanzler,diwani,d,NA,NA,NA,NA,qt,NA,3,NA,NA,NA,NA,NA,NA,NA,NA,NA,NA,NA,NA,NA,NA,NA,NA,NA,NA,NA
214ed,shallow,flow.Sequence,3_0_3_0_5_1,NA,NA,skipped,NA,518662.09999999,NA,NA,518656.011,518662.2,2023-02-08T17:14:47Z,518672.677,NULL,Kanzler,diwani,d,NA,NA,NA,NA,qt,NA,3,NA,NA,NA,NA,NA,NA,NA,NA,NA,NA,NA,NA,NA,NA,NA,NA,NA,NA,NA
214ed,task,flow.Sequence,3_0_3_0_5,NA,NA,completion,8916.684,509725,509722.661,509739.327,518656.011,518662.3,2023-02-08T17:14:47Z,518672.677,NULL,Kanzler,diwani,d,NA,NA,NA,NA,qt,NA,3,NA,NA,NA,NA,NA,NA,NA,NA,NA,NA,NA,NA,NA,NA,NA,NA,NA,NA,NA
214ed,Deep Question,html.Page,3_0_3_0_6_0_0,NA,NA,form submission,8395.922999994,518662.5,518656.011,518672.677,527068.59999999,527069,2023-02-08T17:14:55Z,527072.614,NULL,Abrechnung,uhasibu,d,NA,NA,NA,abhasi,NA,NA,3,NA,NA,NA,NA,NA,NA,NA,NA,NA,NA,NA,NA,NA,NA,NA,NA,NA,NA,NA
214ed,"""Richtig""-Screen",canvas.Screen,3_0_3_0_6_0_1,NA,NA,skipped,NA,527072,NA,NA,527068.59999999,527072.2,2023-02-08T17:14:55Z,527072.614,NULL,Abrechnung,uhasibu,d,NA,NA,NA,NA,qt,NA,3,NA,NA,NA,NA,NA,NA,NA,NA,NA,NA,NA,NA,NA,NA,NA,NA,NA,NA,NA
214ed,"""Falsch""-Screen",canvas.Screen,3_0_3_0_6_0_2,NA,NA,timeout,4999.8,527073.09999999,527055.948,527072.614,532055.748,532058.4,2023-02-08T17:15:00Z,532072.414,NULL,Abrechnung,uhasibu,d,NA,NA,NA,NA,qt,0,3,NA,NA,NA,NA,NA,NA,NA,NA,NA,NA,NA,NA,NA,NA,NA,NA,NA,NA,NA
214ed,deep,flow.Sequence,3_0_3_0_6_0,NA,NA,completion,13383.071,518662.4,518656.011,518672.677,532055.748,532058.7,2023-02-08T17:15:00Z,532072.414,NULL,Abrechnung,uhasibu,d,NA,NA,NA,NA,qt,NA,3,NA,NA,NA,NA,NA,NA,NA,NA,NA,NA,NA,NA,NA,NA,NA,NA,NA,NA,NA
214ed,shallow,flow.Sequence,3_0_3_0_6_1,NA,NA,skipped,NA,532058.9,NA,NA,532055.748,532059,2023-02-08T17:15:00Z,532072.414,NULL,Abrechnung,uhasibu,d,NA,NA,NA,NA,qt,NA,3,NA,NA,NA,NA,NA,NA,NA,NA,NA,NA,NA,NA,NA,NA,NA,NA,NA,NA,NA
214ed,task,flow.Sequence,3_0_3_0_6,NA,NA,completion,13383.071,518662.3,518656.011,518672.677,532055.748,532059.2,2023-02-08T17:15:00Z,532072.414,NULL,Abrechnung,uhasibu,d,NA,NA,NA,NA,qt,NA,3,NA,NA,NA,NA,NA,NA,NA,NA,NA,NA,NA,NA,NA,NA,NA,NA,NA,NA,NA
214ed,deep,flow.Sequence,3_0_3_0_7_0,NA,NA,skipped,NA,532059.3,NA,NA,532055.748,532059.3,2023-02-08T17:15:00Z,532072.414,NULL,Wechsel,ugeuzaji,s,utambulisho,kujenga,wasiwasi,NA,qt,NA,3,NA,NA,NA,NA,NA,NA,NA,NA,NA,NA,NA,NA,NA,NA,NA,NA,NA,NA,NA
214ed,Shallow Question,html.Page,3_0_3_0_7_1_0,NA,NA,form submission,5072.2859999955,532059.5,532055.748,532072.414,537144.7,537145,2023-02-08T17:15:05Z,537155.855,NULL,Wechsel,ugeuzaji,s,utambulisho,kujenga,wasiwasi,ugeuzaji,NA,NA,3,NA,NA,NA,NA,NA,NA,NA,NA,NA,NA,NA,NA,NA,NA,NA,NA,NA,NA,NA
214ed,"""Richtig""-Screen",canvas.Screen,3_0_3_0_7_1_1,NA,NA,timeout,4999.8,537147.5,537139.189,537155.855,542138.989,542141.7,2023-02-08T17:15:10Z,542155.655,NULL,Wechsel,ugeuzaji,s,utambulisho,kujenga,wasiwasi,NA,qt,1,3,NA,NA,NA,NA,NA,NA,NA,NA,NA,NA,NA,NA,NA,NA,NA,NA,NA,NA,NA
214ed,"""Falsch""-Screen",canvas.Screen,3_0_3_0_7_1_2,NA,NA,skipped,NA,542145.59999999,NA,NA,542138.989,542145.59999999,2023-02-08T17:15:10Z,542155.655,NULL,Wechsel,ugeuzaji,s,utambulisho,kujenga,wasiwasi,NA,qt,NA,3,NA,NA,NA,NA,NA,NA,NA,NA,NA,NA,NA,NA,NA,NA,NA,NA,NA,NA,NA
214ed,shallow,flow.Sequence,3_0_3_0_7_1,NA,NA,completion,10066.575,532059.5,532055.748,532072.414,542138.989,542145.9,2023-02-08T17:15:10Z,542155.655,NULL,Wechsel,ugeuzaji,s,utambulisho,kujenga,wasiwasi,NA,qt,NA,3,NA,NA,NA,NA,NA,NA,NA,NA,NA,NA,NA,NA,NA,NA,NA,NA,NA,NA,NA
214ed,task,flow.Sequence,3_0_3_0_7,NA,NA,completion,10066.575,532059.3,532055.748,532072.414,542138.989,542146,2023-02-08T17:15:10Z,542155.655,NULL,Wechsel,ugeuzaji,s,utambulisho,kujenga,wasiwasi,NA,qt,NA,3,NA,NA,NA,NA,NA,NA,NA,NA,NA,NA,NA,NA,NA,NA,NA,NA,NA,NA,NA
214ed,block,flow.Loop,3_0_3_0,NA,NA,completion,91598.507,450537.4,450523.816,450540.482,542138.989,542146.09999999,2023-02-08T17:15:10Z,542155.655,NULL,NA,NA,NA,NA,NA,NA,NA,qt,NA,3,NA,NA,NA,NA,NA,NA,NA,NA,NA,NA,NA,NA,NA,NA,NA,NA,NA,NA,NA
214ed,weiter,canvas.Screen,3_0_3_1,sdf,keypress(Space),response,1016.2449999985,542146.2,542138.989,542155.655,543171.9,543179.8,2023-02-08T17:15:11Z,543222.543,NULL,NA,NA,NA,NA,NA,NA,NA,qt,NA,3,NA,NA,NA,NA,NA,NA,NA,NA,NA,NA,NA,NA,NA,NA,NA,NA,NA,NA,NA
214ed,check continue,flow.Sequence,3_0_3,NA,NA,completion,92631.417999998,450536.8,450523.816,450540.482,543171.9,543180,2023-02-08T17:15:11Z,543222.543,NULL,NA,NA,NA,NA,NA,NA,NA,qt,NA,3,NA,NA,NA,NA,NA,NA,NA,NA,NA,NA,NA,NA,NA,NA,NA,NA,NA,NA,NA
214ed,Deep Question,html.Page,3_0_4_0_0_0_0,NA,NA,form submission,3986.2569999971,543214.4,543205.877,543222.543,547208.8,547209.09999999,2023-02-08T17:15:15Z,547222.383,NULL,Abrechnung,uhasibu,d,NA,NA,NA,uhasibu,NA,NA,4,NA,NA,NA,NA,NA,NA,NA,NA,NA,NA,NA,NA,NA,NA,NA,NA,NA,NA,NA
214ed,"""Richtig""-Screen",canvas.Screen,3_0_4_0_0_0_1,NA,NA,timeout,4999.7999999999,547212.2,547205.717,547222.383,552205.517,552207.3,2023-02-08T17:15:20Z,552222.183,NULL,Abrechnung,uhasibu,d,NA,NA,NA,NA,sd,1,4,NA,NA,NA,NA,NA,NA,NA,NA,NA,NA,NA,NA,NA,NA,NA,NA,NA,NA,NA
214ed,"""Falsch""-Screen",canvas.Screen,3_0_4_0_0_0_2,NA,NA,skipped,NA,552211,NA,NA,552205.517,552211.2,2023-02-08T17:15:20Z,552222.183,NULL,Abrechnung,uhasibu,d,NA,NA,NA,NA,sd,NA,4,NA,NA,NA,NA,NA,NA,NA,NA,NA,NA,NA,NA,NA,NA,NA,NA,NA,NA,NA
214ed,deep,flow.Sequence,3_0_4_0_0_0,NA,NA,completion,8982.974,543214.4,543205.877,543222.543,552205.517,552211.4,2023-02-08T17:15:20Z,552222.183,NULL,Abrechnung,uhasibu,d,NA,NA,NA,NA,sd,NA,4,NA,NA,NA,NA,NA,NA,NA,NA,NA,NA,NA,NA,NA,NA,NA,NA,NA,NA,NA
214ed,shallow,flow.Sequence,3_0_4_0_0_1,NA,NA,skipped,NA,552211.4,NA,NA,552205.517,552211.5,2023-02-08T17:15:20Z,552222.183,NULL,Abrechnung,uhasibu,d,NA,NA,NA,NA,sd,NA,4,NA,NA,NA,NA,NA,NA,NA,NA,NA,NA,NA,NA,NA,NA,NA,NA,NA,NA,NA
214ed,task,flow.Sequence,3_0_4_0_0,NA,NA,completion,8982.974,543214.4,543205.877,543222.543,552205.517,552211.59999999,2023-02-08T17:15:20Z,552222.183,NULL,Abrechnung,uhasibu,d,NA,NA,NA,NA,sd,NA,4,NA,NA,NA,NA,NA,NA,NA,NA,NA,NA,NA,NA,NA,NA,NA,NA,NA,NA,NA
214ed,deep,flow.Sequence,3_0_4_0_1_0,NA,NA,skipped,NA,552211.7,NA,NA,552205.517,552211.8,2023-02-08T17:15:20Z,552222.183,NULL,Angreifer,mshambulizi,s,kitengo,tasinia,usafirishaji,NA,sd,NA,4,NA,NA,NA,NA,NA,NA,NA,NA,NA,NA,NA,NA,NA,NA,NA,NA,NA,NA,NA
214ed,Shallow Question,html.Page,3_0_4_0_1_1_0,NA,NA,form submission,5400.1169999971,552211.8,552205.517,552222.183,557622.3,557622.8,2023-02-08T17:15:26Z,557638.896,NULL,Angreifer,mshambulizi,s,kitengo,tasinia,usafirishaji,mshambulizi,NA,NA,4,NA,NA,NA,NA,NA,NA,NA,NA,NA,NA,NA,NA,NA,NA,NA,NA,NA,NA,NA
214ed,"""Richtig""-Screen",canvas.Screen,3_0_4_0_1_1_1,NA,NA,timeout,4999.8,557625.2,557622.23,557638.896,562622.03,562624.5,2023-02-08T17:15:31Z,562638.696,NULL,Angreifer,mshambulizi,s,kitengo,tasinia,usafirishaji,NA,sd,1,4,NA,NA,NA,NA,NA,NA,NA,NA,NA,NA,NA,NA,NA,NA,NA,NA,NA,NA,NA
214ed,"""Falsch""-Screen",canvas.Screen,3_0_4_0_1_1_2,NA,NA,skipped,NA,562628.3,NA,NA,562622.03,562628.4,2023-02-08T17:15:31Z,562638.696,NULL,Angreifer,mshambulizi,s,kitengo,tasinia,usafirishaji,NA,sd,NA,4,NA,NA,NA,NA,NA,NA,NA,NA,NA,NA,NA,NA,NA,NA,NA,NA,NA,NA,NA
214ed,shallow,flow.Sequence,3_0_4_0_1_1,NA,NA,completion,10399.847,552211.8,552205.517,552222.183,562622.03,562628.59999999,2023-02-08T17:15:31Z,562638.696,NULL,Angreifer,mshambulizi,s,kitengo,tasinia,usafirishaji,NA,sd,NA,4,NA,NA,NA,NA,NA,NA,NA,NA,NA,NA,NA,NA,NA,NA,NA,NA,NA,NA,NA
214ed,task,flow.Sequence,3_0_4_0_1,NA,NA,completion,10399.847,552211.59999999,552205.517,552222.183,562622.03,562628.7,2023-02-08T17:15:31Z,562638.696,NULL,Angreifer,mshambulizi,s,kitengo,tasinia,usafirishaji,NA,sd,NA,4,NA,NA,NA,NA,NA,NA,NA,NA,NA,NA,NA,NA,NA,NA,NA,NA,NA,NA,NA
214ed,deep,flow.Sequence,3_0_4_0_2_0,NA,NA,skipped,NA,562628.8,NA,NA,562622.03,562628.8,2023-02-08T17:15:31Z,562638.696,NULL,Erneuerung,ukarabati,s,ushawishi,ukalifu,unyonyaji,NA,sd,NA,4,NA,NA,NA,NA,NA,NA,NA,NA,NA,NA,NA,NA,NA,NA,NA,NA,NA,NA,NA
214ed,Shallow Question,html.Page,3_0_4_0_2_1_0,NA,NA,form submission,2819.603999997,562629,562622.03,562638.696,565458.3,565458.59999999,2023-02-08T17:15:34Z,565472.188,NULL,Erneuerung,ukarabati,s,ushawishi,ukalifu,unyonyaji,ukarabati,NA,NA,4,NA,NA,NA,NA,NA,NA,NA,NA,NA,NA,NA,NA,NA,NA,NA,NA,NA,NA,NA
214ed,"""Richtig""-Screen",canvas.Screen,3_0_4_0_2_1_1,NA,NA,timeout,4999.8,565460.9,565455.522,565472.188,570455.322,570457.9,2023-02-08T17:15:39Z,570471.988,NULL,Erneuerung,ukarabati,s,ushawishi,ukalifu,unyonyaji,NA,sd,1,4,NA,NA,NA,NA,NA,NA,NA,NA,NA,NA,NA,NA,NA,NA,NA,NA,NA,NA,NA
214ed,"""Falsch""-Screen",canvas.Screen,3_0_4_0_2_1_2,NA,NA,skipped,NA,570461.59999999,NA,NA,570455.322,570461.8,2023-02-08T17:15:39Z,570471.988,NULL,Erneuerung,ukarabati,s,ushawishi,ukalifu,unyonyaji,NA,sd,NA,4,NA,NA,NA,NA,NA,NA,NA,NA,NA,NA,NA,NA,NA,NA,NA,NA,NA,NA,NA
214ed,shallow,flow.Sequence,3_0_4_0_2_1,NA,NA,completion,7816.626,562628.9,562622.03,562638.696,570455.322,570462,2023-02-08T17:15:39Z,570471.988,NULL,Erneuerung,ukarabati,s,ushawishi,ukalifu,unyonyaji,NA,sd,NA,4,NA,NA,NA,NA,NA,NA,NA,NA,NA,NA,NA,NA,NA,NA,NA,NA,NA,NA,NA
214ed,task,flow.Sequence,3_0_4_0_2,NA,NA,completion,7816.626,562628.8,562622.03,562638.696,570455.322,570462.09999999,2023-02-08T17:15:39Z,570471.988,NULL,Erneuerung,ukarabati,s,ushawishi,ukalifu,unyonyaji,NA,sd,NA,4,NA,NA,NA,NA,NA,NA,NA,NA,NA,NA,NA,NA,NA,NA,NA,NA,NA,NA,NA
214ed,Deep Question,html.Page,3_0_4_0_3_0_0,NA,NA,form submission,7493.512,570462.2,570455.322,570471.988,577965.5,577965.8,2023-02-08T17:15:46Z,577971.963,NULL,Flexibilität,kubadilika,d,NA,NA,NA,kubatji,NA,NA,4,NA,NA,NA,NA,NA,NA,NA,NA,NA,NA,NA,NA,NA,NA,NA,NA,NA,NA,NA
214ed,"""Richtig""-Screen",canvas.Screen,3_0_4_0_3_0_1,NA,NA,skipped,NA,577968.59999999,NA,NA,577965.5,577969,2023-02-08T17:15:46Z,577971.963,NULL,Flexibilität,kubadilika,d,NA,NA,NA,NA,sd,NA,4,NA,NA,NA,NA,NA,NA,NA,NA,NA,NA,NA,NA,NA,NA,NA,NA,NA,NA,NA
214ed,"""Falsch""-Screen",canvas.Screen,3_0_4_0_3_0_2,NA,NA,timeout,4999.8,577969.7,577955.297,577971.963,582955.097,582957.4,2023-02-08T17:15:51Z,582971.763,NULL,Flexibilität,kubadilika,d,NA,NA,NA,NA,sd,0,4,NA,NA,NA,NA,NA,NA,NA,NA,NA,NA,NA,NA,NA,NA,NA,NA,NA,NA,NA
214ed,deep,flow.Sequence,3_0_4_0_3_0,NA,NA,completion,12483.109,570462.2,570455.322,570471.988,582955.097,582957.7,2023-02-08T17:15:51Z,582971.763,NULL,Flexibilität,kubadilika,d,NA,NA,NA,NA,sd,NA,4,NA,NA,NA,NA,NA,NA,NA,NA,NA,NA,NA,NA,NA,NA,NA,NA,NA,NA,NA
214ed,shallow,flow.Sequence,3_0_4_0_3_1,NA,NA,skipped,NA,582957.8,NA,NA,582955.097,582958,2023-02-08T17:15:51Z,582971.763,NULL,Flexibilität,kubadilika,d,NA,NA,NA,NA,sd,NA,4,NA,NA,NA,NA,NA,NA,NA,NA,NA,NA,NA,NA,NA,NA,NA,NA,NA,NA,NA
214ed,task,flow.Sequence,3_0_4_0_3,NA,NA,completion,12483.109,570462.09999999,570455.322,570471.988,582955.097,582958.09999999,2023-02-08T17:15:51Z,582971.763,NULL,Flexibilität,kubadilika,d,NA,NA,NA,NA,sd,NA,4,NA,NA,NA,NA,NA,NA,NA,NA,NA,NA,NA,NA,NA,NA,NA,NA,NA,NA,NA
214ed,Deep Question,html.Page,3_0_4_0_4_0_0,NA,NA,form submission,6155.237,582958.3,582955.097,582971.763,589127,589127.59999999,2023-02-08T17:15:57Z,589138.474,NULL,Atmosphäre,angahewa,d,NA,NA,NA,angahewa,NA,NA,4,NA,NA,NA,NA,NA,NA,NA,NA,NA,NA,NA,NA,NA,NA,NA,NA,NA,NA,NA
214ed,"""Richtig""-Screen",canvas.Screen,3_0_4_0_4_0_1,NA,NA,timeout,4999.7999999999,589130.2,589121.808,589138.474,594121.608,594123.4,2023-02-08T17:16:02Z,594138.274,NULL,Atmosphäre,angahewa,d,NA,NA,NA,NA,sd,1,4,NA,NA,NA,NA,NA,NA,NA,NA,NA,NA,NA,NA,NA,NA,NA,NA,NA,NA,NA
214ed,"""Falsch""-Screen",canvas.Screen,3_0_4_0_4_0_2,NA,NA,skipped,NA,594127,NA,NA,594121.608,594127.2,2023-02-08T17:16:02Z,594138.274,NULL,Atmosphäre,angahewa,d,NA,NA,NA,NA,sd,NA,4,NA,NA,NA,NA,NA,NA,NA,NA,NA,NA,NA,NA,NA,NA,NA,NA,NA,NA,NA
214ed,deep,flow.Sequence,3_0_4_0_4_0,NA,NA,completion,11149.845,582958.3,582955.097,582971.763,594121.608,594127.5,2023-02-08T17:16:02Z,594138.274,NULL,Atmosphäre,angahewa,d,NA,NA,NA,NA,sd,NA,4,NA,NA,NA,NA,NA,NA,NA,NA,NA,NA,NA,NA,NA,NA,NA,NA,NA,NA,NA
214ed,shallow,flow.Sequence,3_0_4_0_4_1,NA,NA,skipped,NA,594127.59999999,NA,NA,594121.608,594127.59999999,2023-02-08T17:16:02Z,594138.274,NULL,Atmosphäre,angahewa,d,NA,NA,NA,NA,sd,NA,4,NA,NA,NA,NA,NA,NA,NA,NA,NA,NA,NA,NA,NA,NA,NA,NA,NA,NA,NA
214ed,task,flow.Sequence,3_0_4_0_4,NA,NA,completion,11149.845,582958.09999999,582955.097,582971.763,594121.608,594127.7,2023-02-08T17:16:02Z,594138.274,NULL,Atmosphäre,angahewa,d,NA,NA,NA,NA,sd,NA,4,NA,NA,NA,NA,NA,NA,NA,NA,NA,NA,NA,NA,NA,NA,NA,NA,NA,NA,NA
214ed,deep,flow.Sequence,3_0_4_0_5_0,NA,NA,skipped,NA,594127.8,NA,NA,594121.608,594127.9,2023-02-08T17:16:02Z,594138.274,NULL,Sänger,mwimbaji,s,msichana,shughuli,mshirika,NA,sd,NA,4,NA,NA,NA,NA,NA,NA,NA,NA,NA,NA,NA,NA,NA,NA,NA,NA,NA,NA,NA
214ed,Shallow Question,html.Page,3_0_4_0_5_1_0,NA,NA,form submission,4084.9259999956,594127.9,594121.608,594138.274,598223.2,598223.59999999,2023-02-08T17:16:06Z,598238.46,NULL,Sänger,mwimbaji,s,msichana,shughuli,mshirika,mwimbaji,NA,NA,4,NA,NA,NA,NA,NA,NA,NA,NA,NA,NA,NA,NA,NA,NA,NA,NA,NA,NA,NA
214ed,"""Richtig""-Screen",canvas.Screen,3_0_4_0_5_1_1,NA,NA,timeout,4999.8,598226,598221.794,598238.46,603221.594,603223.9,2023-02-08T17:16:11Z,603238.26,NULL,Sänger,mwimbaji,s,msichana,shughuli,mshirika,NA,sd,1,4,NA,NA,NA,NA,NA,NA,NA,NA,NA,NA,NA,NA,NA,NA,NA,NA,NA,NA,NA
214ed,"""Falsch""-Screen",canvas.Screen,3_0_4_0_5_1_2,NA,NA,skipped,NA,603227.8,NA,NA,603221.594,603228.09999999,2023-02-08T17:16:12Z,603238.26,NULL,Sänger,mwimbaji,s,msichana,shughuli,mshirika,NA,sd,NA,4,NA,NA,NA,NA,NA,NA,NA,NA,NA,NA,NA,NA,NA,NA,NA,NA,NA,NA,NA
214ed,shallow,flow.Sequence,3_0_4_0_5_1,NA,NA,completion,9083.3200000001,594127.9,594121.608,594138.274,603221.594,603228.2,2023-02-08T17:16:12Z,603238.26,NULL,Sänger,mwimbaji,s,msichana,shughuli,mshirika,NA,sd,NA,4,NA,NA,NA,NA,NA,NA,NA,NA,NA,NA,NA,NA,NA,NA,NA,NA,NA,NA,NA
214ed,task,flow.Sequence,3_0_4_0_5,NA,NA,completion,9083.3200000001,594127.8,594121.608,594138.274,603221.594,603228.3,2023-02-08T17:16:12Z,603238.26,NULL,Sänger,mwimbaji,s,msichana,shughuli,mshirika,NA,sd,NA,4,NA,NA,NA,NA,NA,NA,NA,NA,NA,NA,NA,NA,NA,NA,NA,NA,NA,NA,NA
214ed,deep,flow.Sequence,3_0_4_0_6_0,NA,NA,skipped,NA,603228.4,NA,NA,603221.594,603228.5,2023-02-08T17:16:12Z,603238.26,NULL,Wechsel,ugeuzaji,s,utambulisho,kujenga,wasiwasi,NA,sd,NA,4,NA,NA,NA,NA,NA,NA,NA,NA,NA,NA,NA,NA,NA,NA,NA,NA,NA,NA,NA
214ed,Shallow Question,html.Page,3_0_4_0_6_1_0,NA,NA,form submission,4963.4399999955,603228.5,603221.594,603238.26,608201.7,608201.9,2023-02-08T17:16:16Z,608204.728,NULL,Wechsel,ugeuzaji,s,utambulisho,kujenga,wasiwasi,ugeuzaji,NA,NA,4,NA,NA,NA,NA,NA,NA,NA,NA,NA,NA,NA,NA,NA,NA,NA,NA,NA,NA,NA
214ed,"""Richtig""-Screen",canvas.Screen,3_0_4_0_6_1_1,NA,NA,timeout,5000.077,608204.4,608188.062,608204.728,613188.139,613190.3,2023-02-08T17:16:21Z,613204.805,NULL,Wechsel,ugeuzaji,s,utambulisho,kujenga,wasiwasi,NA,sd,1,4,NA,NA,NA,NA,NA,NA,NA,NA,NA,NA,NA,NA,NA,NA,NA,NA,NA,NA,NA
214ed,"""Falsch""-Screen",canvas.Screen,3_0_4_0_6_1_2,NA,NA,skipped,NA,613193.9,NA,NA,613188.139,613194,2023-02-08T17:16:21Z,613204.805,NULL,Wechsel,ugeuzaji,s,utambulisho,kujenga,wasiwasi,NA,sd,NA,4,NA,NA,NA,NA,NA,NA,NA,NA,NA,NA,NA,NA,NA,NA,NA,NA,NA,NA,NA
214ed,shallow,flow.Sequence,3_0_4_0_6_1,NA,NA,completion,9949.879,603228.5,603221.594,603238.26,613188.139,613194.3,2023-02-08T17:16:21Z,613204.805,NULL,Wechsel,ugeuzaji,s,utambulisho,kujenga,wasiwasi,NA,sd,NA,4,NA,NA,NA,NA,NA,NA,NA,NA,NA,NA,NA,NA,NA,NA,NA,NA,NA,NA,NA
214ed,task,flow.Sequence,3_0_4_0_6,NA,NA,completion,9949.879,603228.4,603221.594,603238.26,613188.139,613194.5,2023-02-08T17:16:21Z,613204.805,NULL,Wechsel,ugeuzaji,s,utambulisho,kujenga,wasiwasi,NA,sd,NA,4,NA,NA,NA,NA,NA,NA,NA,NA,NA,NA,NA,NA,NA,NA,NA,NA,NA,NA,NA
214ed,Deep Question,html.Page,3_0_4_0_7_0_0,NA,NA,form submission,2489.5949999985,613194.59999999,613188.139,613204.805,615694.4,615695,2023-02-08T17:16:24Z,615704.705,NULL,Kanzler,diwani,d,NA,NA,NA,diwani,NA,NA,4,NA,NA,NA,NA,NA,NA,NA,NA,NA,NA,NA,NA,NA,NA,NA,NA,NA,NA,NA
214ed,"""Richtig""-Screen",canvas.Screen,3_0_4_0_7_0_1,NA,NA,timeout,4999.8,615698.09999999,615688.039,615704.705,620687.839,620690.09999999,2023-02-08T17:16:29Z,620704.505,NULL,Kanzler,diwani,d,NA,NA,NA,NA,sd,1,4,NA,NA,NA,NA,NA,NA,NA,NA,NA,NA,NA,NA,NA,NA,NA,NA,NA,NA,NA
214ed,"""Falsch""-Screen",canvas.Screen,3_0_4_0_7_0_2,NA,NA,skipped,NA,620694.09999999,NA,NA,620687.839,620694.09999999,2023-02-08T17:16:29Z,620704.505,NULL,Kanzler,diwani,d,NA,NA,NA,NA,sd,NA,4,NA,NA,NA,NA,NA,NA,NA,NA,NA,NA,NA,NA,NA,NA,NA,NA,NA,NA,NA
214ed,deep,flow.Sequence,3_0_4_0_7_0,NA,NA,completion,7483.034,613194.59999999,613188.139,613204.805,620687.839,620694.3,2023-02-08T17:16:29Z,620704.505,NULL,Kanzler,diwani,d,NA,NA,NA,NA,sd,NA,4,NA,NA,NA,NA,NA,NA,NA,NA,NA,NA,NA,NA,NA,NA,NA,NA,NA,NA,NA
214ed,shallow,flow.Sequence,3_0_4_0_7_1,NA,NA,skipped,NA,620694.4,NA,NA,620687.839,620694.5,2023-02-08T17:16:29Z,620704.505,NULL,Kanzler,diwani,d,NA,NA,NA,NA,sd,NA,4,NA,NA,NA,NA,NA,NA,NA,NA,NA,NA,NA,NA,NA,NA,NA,NA,NA,NA,NA
214ed,task,flow.Sequence,3_0_4_0_7,NA,NA,completion,7483.034,613194.5,613188.139,613204.805,620687.839,620694.59999999,2023-02-08T17:16:29Z,620704.505,NULL,Kanzler,diwani,d,NA,NA,NA,NA,sd,NA,4,NA,NA,NA,NA,NA,NA,NA,NA,NA,NA,NA,NA,NA,NA,NA,NA,NA,NA,NA
214ed,block,flow.Loop,3_0_4_0,NA,NA,completion,77465.296,543214.4,543205.877,543222.543,620687.839,620694.7,2023-02-08T17:16:29Z,620704.505,NULL,NA,NA,NA,NA,NA,NA,NA,sd,NA,4,NA,NA,NA,NA,NA,NA,NA,NA,NA,NA,NA,NA,NA,NA,NA,NA,NA,NA,NA
214ed,weiter,canvas.Screen,3_0_4_1,sdf,keypress(Space),response,1000.8949999985,620694.7,620687.839,620704.505,621705.4,621712.4,2023-02-08T17:16:30Z,622238.104,NULL,NA,NA,NA,NA,NA,NA,NA,sd,NA,4,NA,NA,NA,NA,NA,NA,NA,NA,NA,NA,NA,NA,NA,NA,NA,NA,NA,NA,NA
214ed,check continue,flow.Sequence,3_0_4,NA,NA,completion,78482.856999999,543214.3,543205.877,543222.543,621705.4,621713,2023-02-08T17:16:30Z,622238.104,NULL,NA,NA,NA,NA,NA,NA,NA,sd,NA,4,NA,NA,NA,NA,NA,NA,NA,NA,NA,NA,NA,NA,NA,NA,NA,NA,NA,NA,NA
214ed,check continue,flow.Sequence,3_0_5,NA,NA,skipped,NA,621742.59999999,NA,NA,621705.4,621742.7,2023-02-08T17:16:30Z,622238.104,NULL,NA,NA,NA,NA,NA,NA,NA,sdf,NA,5,NA,NA,NA,NA,NA,NA,NA,NA,NA,NA,NA,NA,NA,NA,NA,NA,NA,NA,NA
214ed,check continue,flow.Sequence,3_0_6,NA,NA,skipped,NA,621763.8,NA,NA,621705.4,621764,2023-02-08T17:16:30Z,622238.104,NULL,NA,NA,NA,NA,NA,NA,NA,dfs,NA,6,NA,NA,NA,NA,NA,NA,NA,NA,NA,NA,NA,NA,NA,NA,NA,NA,NA,NA,NA
214ed,check continue,flow.Sequence,3_0_7,NA,NA,skipped,NA,621782.4,NA,NA,621705.4,621782.5,2023-02-08T17:16:30Z,622238.104,NULL,NA,NA,NA,NA,NA,NA,NA,df,NA,7,NA,NA,NA,NA,NA,NA,NA,NA,NA,NA,NA,NA,NA,NA,NA,NA,NA,NA,NA
214ed,check continue,flow.Sequence,3_0_8,NA,NA,skipped,NA,621801.3,NA,NA,621705.4,621801.3,2023-02-08T17:16:30Z,622238.104,NULL,NA,NA,NA,NA,NA,NA,NA,dfs,NA,8,NA,NA,NA,NA,NA,NA,NA,NA,NA,NA,NA,NA,NA,NA,NA,NA,NA,NA,NA
214ed,check continue,flow.Sequence,3_0_9,NA,NA,skipped,NA,621818.8,NA,NA,621705.4,621818.9,2023-02-08T17:16:30Z,622238.104,NULL,NA,NA,NA,NA,NA,NA,NA,dsf,NA,9,NA,NA,NA,NA,NA,NA,NA,NA,NA,NA,NA,NA,NA,NA,NA,NA,NA,NA,NA
214ed,check continue,flow.Sequence,3_0_10,NA,NA,skipped,NA,621841.9,NA,NA,621705.4,621842,2023-02-08T17:16:30Z,622238.104,NULL,NA,NA,NA,NA,NA,NA,NA,df,NA,10,NA,NA,NA,NA,NA,NA,NA,NA,NA,NA,NA,NA,NA,NA,NA,NA,NA,NA,NA
214ed,check continue,flow.Sequence,3_0_11,NA,NA,skipped,NA,621867,NA,NA,621705.4,621867.09999999,2023-02-08T17:16:30Z,622238.104,NULL,NA,NA,NA,NA,NA,NA,NA,dfs,NA,11,NA,NA,NA,NA,NA,NA,NA,NA,NA,NA,NA,NA,NA,NA,NA,NA,NA,NA,NA
214ed,check continue,flow.Sequence,3_0_12,NA,NA,skipped,NA,621888.2,NA,NA,621705.4,621888.3,2023-02-08T17:16:30Z,622238.104,NULL,NA,NA,NA,NA,NA,NA,NA,dsf,NA,12,NA,NA,NA,NA,NA,NA,NA,NA,NA,NA,NA,NA,NA,NA,NA,NA,NA,NA,NA
214ed,check continue,flow.Sequence,3_0_13,NA,NA,skipped,NA,621910.8,NA,NA,621705.4,621910.8,2023-02-08T17:16:30Z,622238.104,NULL,NA,NA,NA,NA,NA,NA,NA,dsf,NA,13,NA,NA,NA,NA,NA,NA,NA,NA,NA,NA,NA,NA,NA,NA,NA,NA,NA,NA,NA
214ed,check continue,flow.Sequence,3_0_14,NA,NA,skipped,NA,621930.59999999,NA,NA,621705.4,621930.8,2023-02-08T17:16:30Z,622238.104,NULL,NA,NA,NA,NA,NA,NA,NA,NA,NA,14,NA,NA,NA,NA,NA,NA,NA,NA,NA,NA,NA,NA,NA,NA,NA,NA,NA,NA,NA
214ed,check continue,flow.Sequence,3_0_15,NA,NA,skipped,NA,621948.3,NA,NA,621705.4,621948.4,2023-02-08T17:16:30Z,622238.104,NULL,NA,NA,NA,NA,NA,NA,NA,NA,NA,15,NA,NA,NA,NA,NA,NA,NA,NA,NA,NA,NA,NA,NA,NA,NA,NA,NA,NA,NA
214ed,check continue,flow.Sequence,3_0_16,NA,NA,skipped,NA,621966.9,NA,NA,621705.4,621967,2023-02-08T17:16:30Z,622238.104,NULL,NA,NA,NA,NA,NA,NA,NA,NA,NA,16,NA,NA,NA,NA,NA,NA,NA,NA,NA,NA,NA,NA,NA,NA,NA,NA,NA,NA,NA
214ed,check continue,flow.Sequence,3_0_17,NA,NA,skipped,NA,621983.7,NA,NA,621705.4,621983.8,2023-02-08T17:16:30Z,622238.104,NULL,NA,NA,NA,NA,NA,NA,NA,NA,NA,17,NA,NA,NA,NA,NA,NA,NA,NA,NA,NA,NA,NA,NA,NA,NA,NA,NA,NA,NA
214ed,check continue,flow.Sequence,3_0_18,NA,NA,skipped,NA,622000.3,NA,NA,621705.4,622000.4,2023-02-08T17:16:30Z,622238.104,NULL,NA,NA,NA,NA,NA,NA,NA,NA,NA,18,NA,NA,NA,NA,NA,NA,NA,NA,NA,NA,NA,NA,NA,NA,NA,NA,NA,NA,NA
214ed,check continue,flow.Sequence,3_0_19,NA,NA,skipped,NA,622019.3,NA,NA,621705.4,622019.3,2023-02-08T17:16:30Z,622238.104,NULL,NA,NA,NA,NA,NA,NA,NA,NA,NA,19,NA,NA,NA,NA,NA,NA,NA,NA,NA,NA,NA,NA,NA,NA,NA,NA,NA,NA,NA
214ed,check continue,flow.Sequence,3_0_20,NA,NA,skipped,NA,622036.7,NA,NA,621705.4,622036.8,2023-02-08T17:16:30Z,622238.104,NULL,NA,NA,NA,NA,NA,NA,NA,NA,NA,20,NA,NA,NA,NA,NA,NA,NA,NA,NA,NA,NA,NA,NA,NA,NA,NA,NA,NA,NA
214ed,check continue,flow.Sequence,3_0_21,NA,NA,skipped,NA,622053.8,NA,NA,621705.4,622053.9,2023-02-08T17:16:30Z,622238.104,NULL,NA,NA,NA,NA,NA,NA,NA,NA,NA,21,NA,NA,NA,NA,NA,NA,NA,NA,NA,NA,NA,NA,NA,NA,NA,NA,NA,NA,NA
214ed,check continue,flow.Sequence,3_0_22,NA,NA,skipped,NA,622072.4,NA,NA,621705.4,622072.5,2023-02-08T17:16:30Z,622238.104,NULL,NA,NA,NA,NA,NA,NA,NA,NA,NA,22,NA,NA,NA,NA,NA,NA,NA,NA,NA,NA,NA,NA,NA,NA,NA,NA,NA,NA,NA
214ed,check continue,flow.Sequence,3_0_23,NA,NA,skipped,NA,622087.2,NA,NA,621705.4,622087.3,2023-02-08T17:16:30Z,622238.104,NULL,NA,NA,NA,NA,NA,NA,NA,NA,NA,23,NA,NA,NA,NA,NA,NA,NA,NA,NA,NA,NA,NA,NA,NA,NA,NA,NA,NA,NA
214ed,check continue,flow.Sequence,3_0_24,NA,NA,skipped,NA,622104.59999999,NA,NA,621705.4,622104.59999999,2023-02-08T17:16:30Z,622238.104,NULL,NA,NA,NA,NA,NA,NA,NA,NA,NA,24,NA,NA,NA,NA,NA,NA,NA,NA,NA,NA,NA,NA,NA,NA,NA,NA,NA,NA,NA
214ed,check continue,flow.Sequence,3_0_25,NA,NA,skipped,NA,622120,NA,NA,621705.4,622120.2,2023-02-08T17:16:30Z,622238.104,NULL,NA,NA,NA,NA,NA,NA,NA,NA,NA,25,NA,NA,NA,NA,NA,NA,NA,NA,NA,NA,NA,NA,NA,NA,NA,NA,NA,NA,NA
214ed,check continue,flow.Sequence,3_0_26,NA,NA,skipped,NA,622143.9,NA,NA,621705.4,622144,2023-02-08T17:16:30Z,622238.104,NULL,NA,NA,NA,NA,NA,NA,NA,NA,NA,26,NA,NA,NA,NA,NA,NA,NA,NA,NA,NA,NA,NA,NA,NA,NA,NA,NA,NA,NA
214ed,check continue,flow.Sequence,3_0_27,NA,NA,skipped,NA,622159.2,NA,NA,621705.4,622159.3,2023-02-08T17:16:30Z,622238.104,NULL,NA,NA,NA,NA,NA,NA,NA,NA,NA,27,NA,NA,NA,NA,NA,NA,NA,NA,NA,NA,NA,NA,NA,NA,NA,NA,NA,NA,NA
214ed,check continue,flow.Sequence,3_0_28,NA,NA,skipped,NA,622180.4,NA,NA,621705.4,622180.5,2023-02-08T17:16:30Z,622238.104,NULL,NA,NA,NA,NA,NA,NA,NA,NA,NA,28,NA,NA,NA,NA,NA,NA,NA,NA,NA,NA,NA,NA,NA,NA,NA,NA,NA,NA,NA
214ed,check continue,flow.Sequence,3_0_29,NA,NA,skipped,NA,622216.8,NA,NA,621705.4,622216.8,2023-02-08T17:16:30Z,622238.104,NULL,NA,NA,NA,NA,NA,NA,NA,NA,NA,29,NA,NA,NA,NA,NA,NA,NA,NA,NA,NA,NA,NA,NA,NA,NA,NA,NA,NA,NA
214ed,until continue,flow.Loop,3_0,NA,NA,completion,398028.536,223644,223660.198,223676.864,621705.4,622217,2023-02-08T17:16:30Z,622238.104,NULL,NA,NA,NA,NA,NA,NA,NA,NA,NA,NA,NA,NA,NA,NA,NA,NA,NA,NA,NA,NA,NA,NA,NA,NA,NA,NA,NA,NA,NA
214ed,block 1,flow.Sequence,3,NA,NA,completion,398028.536,223644,223660.198,223676.864,621705.4,622217,2023-02-08T17:16:30Z,622238.104,NULL,NA,NA,NA,NA,NA,NA,NA,NA,NA,NA,NA,NA,NA,NA,NA,NA,NA,NA,NA,NA,NA,NA,NA,NA,NA,NA,NA,NA,NA
214ed,1.Part Over,canvas.Screen,4,NA,keypress(Space),response,7894.2959999985,622217.09999999,622204.772,622238.104,630132.4,630139.2,2023-02-08T17:16:38Z,630221.118,NULL,NA,NA,NA,NA,NA,NA,NA,NA,NA,NA,NA,NA,NA,NA,NA,NA,NA,NA,NA,NA,NA,NA,NA,NA,NA,NA,NA,NA,NA
214ed,deep,flow.Sequence,5_0_0_0_0_0,NA,NA,skipped,NA,630208.8,NA,NA,630132.4,630208.9,2023-02-08T17:16:38Z,630221.118,NULL,Kreativität,ubunifu,s,mratibu,mwendelezo,makubaliano,NA,sdf,NA,0,NA,NA,NA,NA,NA,NA,NA,NA,NA,NA,NA,NA,NA,NA,NA,NA,NA,NA,NA
214ed,Shallow Question,html.Page,5_0_0_0_0_1_0,NA,NA,form submission,4679.0819999955,630208.9,630204.452,630221.118,634900.2,634900.4,2023-02-08T17:16:43Z,634904.608,NULL,Kreativität,ubunifu,s,mratibu,mwendelezo,makubaliano,mwendelezo,NA,NA,0,NA,NA,NA,NA,NA,NA,NA,NA,NA,NA,NA,NA,NA,NA,NA,NA,NA,NA,NA
214ed,"""Richtig""-Screen",canvas.Screen,5_0_0_0_0_1_1,NA,NA,skipped,NA,634902.7,NA,NA,634900.2,634902.9,2023-02-08T17:16:43Z,634904.608,NULL,Kreativität,ubunifu,s,mratibu,mwendelezo,makubaliano,NA,sdf,NA,0,NA,NA,NA,NA,NA,NA,NA,NA,NA,NA,NA,NA,NA,NA,NA,NA,NA,NA,NA
214ed,"""Falsch""-Screen",canvas.Screen,5_0_0_0_0_1_2,NA,NA,timeout,4999.8,634903.59999999,634887.942,634904.608,639887.742,639890,2023-02-08T17:16:48Z,639904.408,NULL,Kreativität,ubunifu,s,mratibu,mwendelezo,makubaliano,NA,sdf,0,0,NA,NA,NA,NA,NA,NA,NA,NA,NA,NA,NA,NA,NA,NA,NA,NA,NA,NA,NA
214ed,shallow,flow.Sequence,5_0_0_0_0_1,NA,NA,completion,9666.624,630208.9,630204.452,630221.118,639887.742,639890.5,2023-02-08T17:16:48Z,639904.408,NULL,Kreativität,ubunifu,s,mratibu,mwendelezo,makubaliano,NA,sdf,NA,0,NA,NA,NA,NA,NA,NA,NA,NA,NA,NA,NA,NA,NA,NA,NA,NA,NA,NA,NA
214ed,task,flow.Sequence,5_0_0_0_0,NA,NA,completion,9666.624,630208.8,630204.452,630221.118,639887.742,639890.59999999,2023-02-08T17:16:48Z,639904.408,NULL,Kreativität,ubunifu,s,mratibu,mwendelezo,makubaliano,NA,sdf,NA,0,NA,NA,NA,NA,NA,NA,NA,NA,NA,NA,NA,NA,NA,NA,NA,NA,NA,NA,NA
214ed,Deep Question,html.Page,5_0_0_0_1_0_0,NA,NA,form submission,2092.7919999955,639890.8,639887.742,639904.408,641997.2,641997.9,2023-02-08T17:16:50Z,642004.324,NULL,Stimmung,kinyongo,d,NA,NA,NA,s,NA,NA,0,NA,NA,NA,NA,NA,NA,NA,NA,NA,NA,NA,NA,NA,NA,NA,NA,NA,NA,NA
214ed,"""Richtig""-Screen",canvas.Screen,5_0_0_0_1_0_1,NA,NA,skipped,NA,642000.7,NA,NA,641997.2,642000.9,2023-02-08T17:16:50Z,642004.324,NULL,Stimmung,kinyongo,d,NA,NA,NA,NA,sdf,NA,0,NA,NA,NA,NA,NA,NA,NA,NA,NA,NA,NA,NA,NA,NA,NA,NA,NA,NA,NA
214ed,"""Falsch""-Screen",canvas.Screen,5_0_0_0_1_0_2,NA,NA,timeout,4999.7999999999,642001.5,641987.658,642004.324,646987.458,646989.59999999,2023-02-08T17:16:55Z,647004.124,NULL,Stimmung,kinyongo,d,NA,NA,NA,NA,sdf,0,0,NA,NA,NA,NA,NA,NA,NA,NA,NA,NA,NA,NA,NA,NA,NA,NA,NA,NA,NA
214ed,deep,flow.Sequence,5_0_0_0_1_0,NA,NA,completion,7083.0499999999,639890.8,639887.742,639904.408,646987.458,646990,2023-02-08T17:16:55Z,647004.124,NULL,Stimmung,kinyongo,d,NA,NA,NA,NA,sdf,NA,0,NA,NA,NA,NA,NA,NA,NA,NA,NA,NA,NA,NA,NA,NA,NA,NA,NA,NA,NA
214ed,shallow,flow.Sequence,5_0_0_0_1_1,NA,NA,skipped,NA,646990.09999999,NA,NA,646987.458,646990.3,2023-02-08T17:16:55Z,647004.124,NULL,Stimmung,kinyongo,d,NA,NA,NA,NA,sdf,NA,0,NA,NA,NA,NA,NA,NA,NA,NA,NA,NA,NA,NA,NA,NA,NA,NA,NA,NA,NA
214ed,task,flow.Sequence,5_0_0_0_1,NA,NA,completion,7083.0499999999,639890.7,639887.742,639904.408,646987.458,646990.4,2023-02-08T17:16:55Z,647004.124,NULL,Stimmung,kinyongo,d,NA,NA,NA,NA,sdf,NA,0,NA,NA,NA,NA,NA,NA,NA,NA,NA,NA,NA,NA,NA,NA,NA,NA,NA,NA,NA
214ed,deep,flow.Sequence,5_0_0_0_2_0,NA,NA,skipped,NA,646990.59999999,NA,NA,646987.458,646990.59999999,2023-02-08T17:16:55Z,647004.124,NULL,Orientierung,urekebisho,s,uelekeo,marekebisho,utunzaji,NA,sdf,NA,0,NA,NA,NA,NA,NA,NA,NA,NA,NA,NA,NA,NA,NA,NA,NA,NA,NA,NA,NA
214ed,Shallow Question,html.Page,5_0_0_0_2_1_0,NA,NA,form submission,3415.1759999971,646990.7,646987.458,647004.124,650419.3,650419.5,2023-02-08T17:16:59Z,650420.997,NULL,Orientierung,urekebisho,s,uelekeo,marekebisho,utunzaji,uelekeo,NA,NA,0,NA,NA,NA,NA,NA,NA,NA,NA,NA,NA,NA,NA,NA,NA,NA,NA,NA,NA,NA
214ed,"""Richtig""-Screen",canvas.Screen,5_0_0_0_2_1_1,NA,NA,skipped,NA,650422.4,NA,NA,650419.3,650422.59999999,2023-02-08T17:16:59Z,650420.997,NULL,Orientierung,urekebisho,s,uelekeo,marekebisho,utunzaji,NA,sdf,NA,0,NA,NA,NA,NA,NA,NA,NA,NA,NA,NA,NA,NA,NA,NA,NA,NA,NA,NA,NA
214ed,"""Falsch""-Screen",canvas.Screen,5_0_0_0_2_1_2,NA,NA,timeout,4999.8,650423.4,650404.331,650420.997,655404.131,655406.2,2023-02-08T17:17:04Z,655420.797,NULL,Orientierung,urekebisho,s,uelekeo,marekebisho,utunzaji,NA,sdf,0,0,NA,NA,NA,NA,NA,NA,NA,NA,NA,NA,NA,NA,NA,NA,NA,NA,NA,NA,NA
214ed,shallow,flow.Sequence,5_0_0_0_2_1,NA,NA,completion,8400.0070000001,646990.7,646987.458,647004.124,655404.131,655406.59999999,2023-02-08T17:17:04Z,655420.797,NULL,Orientierung,urekebisho,s,uelekeo,marekebisho,utunzaji,NA,sdf,NA,0,NA,NA,NA,NA,NA,NA,NA,NA,NA,NA,NA,NA,NA,NA,NA,NA,NA,NA,NA
214ed,task,flow.Sequence,5_0_0_0_2,NA,NA,completion,8400.0070000001,646990.59999999,646987.458,647004.124,655404.131,655406.8,2023-02-08T17:17:04Z,655420.797,NULL,Orientierung,urekebisho,s,uelekeo,marekebisho,utunzaji,NA,sdf,NA,0,NA,NA,NA,NA,NA,NA,NA,NA,NA,NA,NA,NA,NA,NA,NA,NA,NA,NA,NA
214ed,Deep Question,html.Page,5_0_0_0_3_0_0,NA,NA,form submission,1857.802999994,655407,655404.131,655420.797,657278.59999999,657279.09999999,2023-02-08T17:17:06Z,657287.389,NULL,Kontrolle,kudhibiti,d,NA,NA,NA,x,NA,NA,0,NA,NA,NA,NA,NA,NA,NA,NA,NA,NA,NA,NA,NA,NA,NA,NA,NA,NA,NA
214ed,"""Richtig""-Screen",canvas.Screen,5_0_0_0_3_0_1,NA,NA,skipped,NA,657282.2,NA,NA,657278.59999999,657282.4,2023-02-08T17:17:06Z,657287.389,NULL,Kontrolle,kudhibiti,d,NA,NA,NA,NA,sdf,NA,0,NA,NA,NA,NA,NA,NA,NA,NA,NA,NA,NA,NA,NA,NA,NA,NA,NA,NA,NA
214ed,"""Falsch""-Screen",canvas.Screen,5_0_0_0_3_0_2,NA,NA,timeout,5000.0700000001,657283,657270.723,657287.389,662270.793,662273,2023-02-08T17:17:11Z,662287.459,NULL,Kontrolle,kudhibiti,d,NA,NA,NA,NA,sdf,0,0,NA,NA,NA,NA,NA,NA,NA,NA,NA,NA,NA,NA,NA,NA,NA,NA,NA,NA,NA
214ed,deep,flow.Sequence,5_0_0_0_3_0,NA,NA,completion,6849.9959999999,655407,655404.131,655420.797,662270.793,662273.2,2023-02-08T17:17:11Z,662287.459,NULL,Kontrolle,kudhibiti,d,NA,NA,NA,NA,sdf,NA,0,NA,NA,NA,NA,NA,NA,NA,NA,NA,NA,NA,NA,NA,NA,NA,NA,NA,NA,NA
214ed,shallow,flow.Sequence,5_0_0_0_3_1,NA,NA,skipped,NA,662273.4,NA,NA,662270.793,662273.59999999,2023-02-08T17:17:11Z,662287.459,NULL,Kontrolle,kudhibiti,d,NA,NA,NA,NA,sdf,NA,0,NA,NA,NA,NA,NA,NA,NA,NA,NA,NA,NA,NA,NA,NA,NA,NA,NA,NA,NA
214ed,task,flow.Sequence,5_0_0_0_3,NA,NA,completion,6849.9959999999,655406.9,655404.131,655420.797,662270.793,662273.7,2023-02-08T17:17:11Z,662287.459,NULL,Kontrolle,kudhibiti,d,NA,NA,NA,NA,sdf,NA,0,NA,NA,NA,NA,NA,NA,NA,NA,NA,NA,NA,NA,NA,NA,NA,NA,NA,NA,NA
214ed,deep,flow.Sequence,5_0_0_0_4_0,NA,NA,skipped,NA,662273.9,NA,NA,662270.793,662274,2023-02-08T17:17:11Z,662287.459,NULL,Respekt,heshima,s,changamnao,upinzani,ufanisi,NA,sdf,NA,0,NA,NA,NA,NA,NA,NA,NA,NA,NA,NA,NA,NA,NA,NA,NA,NA,NA,NA,NA
214ed,Shallow Question,html.Page,5_0_0_0_4_1_0,NA,NA,form submission,2035.140999994,662274,662270.793,662287.459,664322.59999999,664322.8,2023-02-08T17:17:13Z,664337.377,NULL,Respekt,heshima,s,changamnao,upinzani,ufanisi,upinzani,NA,NA,0,NA,NA,NA,NA,NA,NA,NA,NA,NA,NA,NA,NA,NA,NA,NA,NA,NA,NA,NA
214ed,"""Richtig""-Screen",canvas.Screen,5_0_0_0_4_1_1,NA,NA,skipped,NA,664325.4,NA,NA,664322.59999999,664325.59999999,2023-02-08T17:17:13Z,664337.377,NULL,Respekt,heshima,s,changamnao,upinzani,ufanisi,NA,sdf,NA,0,NA,NA,NA,NA,NA,NA,NA,NA,NA,NA,NA,NA,NA,NA,NA,NA,NA,NA,NA
214ed,"""Falsch""-Screen",canvas.Screen,5_0_0_0_4_1_2,NA,NA,timeout,5016.466,664326.2,664320.711,664337.377,669320.511,669322.3,2023-02-08T17:17:18Z,669353.843,NULL,Respekt,heshima,s,changamnao,upinzani,ufanisi,NA,sdf,0,0,NA,NA,NA,NA,NA,NA,NA,NA,NA,NA,NA,NA,NA,NA,NA,NA,NA,NA,NA
214ed,shallow,flow.Sequence,5_0_0_0_4_1,NA,NA,completion,7033.052,662274,662270.793,662287.459,669320.511,669322.59999999,2023-02-08T17:17:18Z,669353.843,NULL,Respekt,heshima,s,changamnao,upinzani,ufanisi,NA,sdf,NA,0,NA,NA,NA,NA,NA,NA,NA,NA,NA,NA,NA,NA,NA,NA,NA,NA,NA,NA,NA
214ed,task,flow.Sequence,5_0_0_0_4,NA,NA,completion,7033.052,662273.8,662270.793,662287.459,669320.511,669322.8,2023-02-08T17:17:18Z,669353.843,NULL,Respekt,heshima,s,changamnao,upinzani,ufanisi,NA,sdf,NA,0,NA,NA,NA,NA,NA,NA,NA,NA,NA,NA,NA,NA,NA,NA,NA,NA,NA,NA,NA
214ed,deep,flow.Sequence,5_0_0_0_5_0,NA,NA,skipped,NA,669323,NA,NA,669320.511,669323.09999999,2023-02-08T17:17:18Z,669353.843,NULL,Können,unaweza,s,kiongozi,bustani,mienendo,NA,sdf,NA,0,NA,NA,NA,NA,NA,NA,NA,NA,NA,NA,NA,NA,NA,NA,NA,NA,NA,NA,NA
214ed,Shallow Question,html.Page,5_0_0_0_5_1_0,NA,NA,form submission,4711.0569999985,669323.2,669320.511,669353.843,674064.9,674065.09999999,2023-02-08T17:17:22Z,674070.636,NULL,Können,unaweza,s,kiongozi,bustani,mienendo,mienendo,NA,NA,0,NA,NA,NA,NA,NA,NA,NA,NA,NA,NA,NA,NA,NA,NA,NA,NA,NA,NA,NA
214ed,"""Richtig""-Screen",canvas.Screen,5_0_0_0_5_1_1,NA,NA,skipped,NA,674067.8,NA,NA,674064.9,674068,2023-02-08T17:17:22Z,674070.636,NULL,Können,unaweza,s,kiongozi,bustani,mienendo,NA,sdf,NA,0,NA,NA,NA,NA,NA,NA,NA,NA,NA,NA,NA,NA,NA,NA,NA,NA,NA,NA,NA
214ed,"""Falsch""-Screen",canvas.Screen,5_0_0_0_5_1_2,NA,NA,timeout,4999.7999999999,674068.9,674053.97,674070.636,679053.77,679055.7,2023-02-08T17:17:27Z,679070.436,NULL,Können,unaweza,s,kiongozi,bustani,mienendo,NA,sdf,0,0,NA,NA,NA,NA,NA,NA,NA,NA,NA,NA,NA,NA,NA,NA,NA,NA,NA,NA,NA
214ed,shallow,flow.Sequence,5_0_0_0_5_1,NA,NA,completion,9699.927,669323.2,669320.511,669353.843,679053.77,679056,2023-02-08T17:17:27Z,679070.436,NULL,Können,unaweza,s,kiongozi,bustani,mienendo,NA,sdf,NA,0,NA,NA,NA,NA,NA,NA,NA,NA,NA,NA,NA,NA,NA,NA,NA,NA,NA,NA,NA
214ed,task,flow.Sequence,5_0_0_0_5,NA,NA,completion,9699.927,669323,669320.511,669353.843,679053.77,679056.2,2023-02-08T17:17:27Z,679070.436,NULL,Können,unaweza,s,kiongozi,bustani,mienendo,NA,sdf,NA,0,NA,NA,NA,NA,NA,NA,NA,NA,NA,NA,NA,NA,NA,NA,NA,NA,NA,NA,NA
214ed,Deep Question,html.Page,5_0_0_0_6_0_0,NA,NA,form submission,1527.863999997,679056.4,679053.77,679070.436,680598.3,680598.9,2023-02-08T17:17:29Z,680603.988,NULL,Betrüger,mdanganyifu,d,NA,NA,NA,x,NA,NA,0,NA,NA,NA,NA,NA,NA,NA,NA,NA,NA,NA,NA,NA,NA,NA,NA,NA,NA,NA
214ed,"""Richtig""-Screen",canvas.Screen,5_0_0_0_6_0_1,NA,NA,skipped,NA,680602.09999999,NA,NA,680598.3,680602.2,2023-02-08T17:17:29Z,680603.988,NULL,Betrüger,mdanganyifu,d,NA,NA,NA,NA,sdf,NA,0,NA,NA,NA,NA,NA,NA,NA,NA,NA,NA,NA,NA,NA,NA,NA,NA,NA,NA,NA
214ed,"""Falsch""-Screen",canvas.Screen,5_0_0_0_6_0_2,NA,NA,timeout,4999.7999999999,680602.9,680587.322,680603.988,685587.122,685589.2,2023-02-08T17:17:34Z,685603.788,NULL,Betrüger,mdanganyifu,d,NA,NA,NA,NA,sdf,0,0,NA,NA,NA,NA,NA,NA,NA,NA,NA,NA,NA,NA,NA,NA,NA,NA,NA,NA,NA
214ed,deep,flow.Sequence,5_0_0_0_6_0,NA,NA,completion,6516.686,679056.4,679053.77,679070.436,685587.122,685589.5,2023-02-08T17:17:34Z,685603.788,NULL,Betrüger,mdanganyifu,d,NA,NA,NA,NA,sdf,NA,0,NA,NA,NA,NA,NA,NA,NA,NA,NA,NA,NA,NA,NA,NA,NA,NA,NA,NA,NA
214ed,shallow,flow.Sequence,5_0_0_0_6_1,NA,NA,skipped,NA,685589.7,NA,NA,685587.122,685589.8,2023-02-08T17:17:34Z,685603.788,NULL,Betrüger,mdanganyifu,d,NA,NA,NA,NA,sdf,NA,0,NA,NA,NA,NA,NA,NA,NA,NA,NA,NA,NA,NA,NA,NA,NA,NA,NA,NA,NA
214ed,task,flow.Sequence,5_0_0_0_6,NA,NA,completion,6516.686,679056.4,679053.77,679070.436,685587.122,685590,2023-02-08T17:17:34Z,685603.788,NULL,Betrüger,mdanganyifu,d,NA,NA,NA,NA,sdf,NA,0,NA,NA,NA,NA,NA,NA,NA,NA,NA,NA,NA,NA,NA,NA,NA,NA,NA,NA,NA
214ed,Deep Question,html.Page,5_0_0_0_7_0_0,NA,NA,form submission,2998.5119999971,685590.09999999,685587.122,685603.788,688602.3,688603,2023-02-08T17:17:37Z,688603.668,NULL,Gefährdung,kuhatarisha,d,NA,NA,NA,s,NA,NA,0,NA,NA,NA,NA,NA,NA,NA,NA,NA,NA,NA,NA,NA,NA,NA,NA,NA,NA,NA
214ed,"""Richtig""-Screen",canvas.Screen,5_0_0_0_7_0_1,NA,NA,skipped,NA,688606.09999999,NA,NA,688602.3,688606.3,2023-02-08T17:17:37Z,688603.668,NULL,Gefährdung,kuhatarisha,d,NA,NA,NA,NA,sdf,NA,0,NA,NA,NA,NA,NA,NA,NA,NA,NA,NA,NA,NA,NA,NA,NA,NA,NA,NA,NA
214ed,"""Falsch""-Screen",canvas.Screen,5_0_0_0_7_0_2,NA,NA,timeout,5016.466,688607,688587.002,688603.668,693586.802,693589.3,2023-02-08T17:17:42Z,693620.134,NULL,Gefährdung,kuhatarisha,d,NA,NA,NA,NA,sdf,0,0,NA,NA,NA,NA,NA,NA,NA,NA,NA,NA,NA,NA,NA,NA,NA,NA,NA,NA,NA
214ed,deep,flow.Sequence,5_0_0_0_7_0,NA,NA,completion,7983.0140000001,685590.09999999,685587.122,685603.788,693586.802,693589.7,2023-02-08T17:17:42Z,693620.134,NULL,Gefährdung,kuhatarisha,d,NA,NA,NA,NA,sdf,NA,0,NA,NA,NA,NA,NA,NA,NA,NA,NA,NA,NA,NA,NA,NA,NA,NA,NA,NA,NA
214ed,shallow,flow.Sequence,5_0_0_0_7_1,NA,NA,skipped,NA,693589.8,NA,NA,693586.802,693589.9,2023-02-08T17:17:42Z,693620.134,NULL,Gefährdung,kuhatarisha,d,NA,NA,NA,NA,sdf,NA,0,NA,NA,NA,NA,NA,NA,NA,NA,NA,NA,NA,NA,NA,NA,NA,NA,NA,NA,NA
214ed,task,flow.Sequence,5_0_0_0_7,NA,NA,completion,7983.0140000001,685590.09999999,685587.122,685603.788,693586.802,693590.09999999,2023-02-08T17:17:42Z,693620.134,NULL,Gefährdung,kuhatarisha,d,NA,NA,NA,NA,sdf,NA,0,NA,NA,NA,NA,NA,NA,NA,NA,NA,NA,NA,NA,NA,NA,NA,NA,NA,NA,NA
214ed,block,flow.Loop,5_0_0_0,NA,NA,completion,63365.684,630208.8,630204.452,630221.118,693586.802,693590.3,2023-02-08T17:17:42Z,693620.134,NULL,NA,NA,NA,NA,NA,NA,NA,sdf,NA,0,NA,NA,NA,NA,NA,NA,NA,NA,NA,NA,NA,NA,NA,NA,NA,NA,NA,NA,NA
214ed,weiter,canvas.Screen,5_0_0_1,sdf,keypress(Space),response,1405.9659999941,693590.3,693586.802,693620.134,695026.09999999,695035.09999999,2023-02-08T17:17:43Z,695070.431,NULL,NA,NA,NA,NA,NA,NA,NA,sdf,NA,0,NA,NA,NA,NA,NA,NA,NA,NA,NA,NA,NA,NA,NA,NA,NA,NA,NA,NA,NA
214ed,check continue,flow.Sequence,5_0_0,NA,NA,completion,64804.981999994,630208.8,630204.452,630221.118,695026.09999999,695035.2,2023-02-08T17:17:43Z,695070.431,NULL,NA,NA,NA,NA,NA,NA,NA,sdf,NA,0,NA,NA,NA,NA,NA,NA,NA,NA,NA,NA,NA,NA,NA,NA,NA,NA,NA,NA,NA
214ed,deep,flow.Sequence,5_0_1_0_0_0,NA,NA,skipped,NA,695064,NA,NA,695026.09999999,695064.09999999,2023-02-08T17:17:43Z,695070.431,NULL,Können,unaweza,s,kiongozi,bustani,mienendo,NA,sdfdsf,NA,1,NA,NA,NA,NA,NA,NA,NA,NA,NA,NA,NA,NA,NA,NA,NA,NA,NA,NA,NA
214ed,Shallow Question,html.Page,5_0_1_0_0_1_0,NA,NA,form submission,5756.368999997,695064.59999999,695053.765,695070.431,700826.8,700827.09999999,2023-02-08T17:17:49Z,700836.867,NULL,Können,unaweza,s,kiongozi,bustani,mienendo,unaweza,NA,NA,1,NA,NA,NA,NA,NA,NA,NA,NA,NA,NA,NA,NA,NA,NA,NA,NA,NA,NA,NA
