observation,sender,sender_type,sender_id,response,response_action,ended_on,duration,time_run,time_render,time_show,time_end,time_commit,timestamp,time_switch,distractors,german,swahili,enc,distractor1,distractor2,distractor3,response_2,x,correct,x_2,url_vp,url_sess,meta_labjs_version,meta_location,meta_user_agent,meta_platform,meta_language,meta_locale,meta_time_zone,meta_timezone_offset,meta_screen_width,meta_screen_height,meta_scroll_width,meta_scroll_height,meta_window_inner_width,meta_window_inner_height,meta_device_pixel_ratio,meta_labjs_build_flavor,meta_labjs_build_commit
72657,Introduction general,canvas.Screen,0,weiter,keypress(q),response,55539.063999999,2102.6999999993,2100.788,2150.736,57689.799999999,57690.799999999,2023-09-15T12:31:05Z,57721.775,NULL,NA,NA,NA,NA,NA,NA,NA,NA,NA,NA,146,1,20.2.4,https://neurocog.fernuni.ch/studies/vweber/jbaenninger/encoding_immediate/index.html?vp=146&sess=1,"Mozilla/5.0 (Windows NT 10.0; Win64; x64) AppleWebKit/537.36 (KHTML, like Gecko) Chrome/116.0.0.0 Safari/537.36 Edg/116.0.1938.81",Win32,de,de-CH,Europe/Zurich,-120,1280,720,1225,577,1225,577,1.5,production,f5b4a49f956347addd546a832a3327688c2c0fef
72657,Introduction practice,canvas.Screen,1_0,NA,keypress(Space),response,7712.0249999989,57691.1,57705.073,57721.775,65433.799999999,65434.5,2023-09-15T12:31:13Z,65465.278,NULL,NA,NA,NA,NA,NA,NA,NA,NA,NA,NA,NA,NA,NA,NA,NA,NA,NA,NA,NA,NA,NA,NA,NA,NA,NA,NA,NA,NA,NA
72657,deep,flow.Sequence,1_1_0_0,NA,NA,skipped,NA,65434.699999999,NA,NA,65433.799999999,65436.199999999,2023-09-15T12:31:13Z,65465.278,"c(""distractor1"", ""distractor2"", ""distractor3"")",Rückhalt,msaada,s,muhula,auwali,kiwimbe,NA,NA,NA,NA,NA,NA,NA,NA,NA,NA,NA,NA,NA,NA,NA,NA,NA,NA,NA,NA,NA,NA,NA
72657,Shallow Question,html.Page,1_1_0_1_0,NA,NA,form submission,17363.621999999,65436.399999999,65448.558,65465.278,82828.899999999,82829.299999999,2023-09-15T12:31:30Z,82834.28,"c(""distractor1"", ""distractor2"", ""distractor3"")",Rückhalt,msaada,s,muhula,auwali,kiwimbe,kiwimbe,NA,NA,NA,NA,NA,NA,NA,NA,NA,NA,NA,NA,NA,NA,NA,NA,NA,NA,NA,NA,NA,NA
72657,"""Richtig""-Screen",canvas.Screen,1_1_0_1_1,NA,NA,skipped,NA,82830.6,NA,NA,82828.899999999,82830.799999999,2023-09-15T12:31:31Z,82834.28,"c(""distractor1"", ""distractor2"", ""distractor3"")",Rückhalt,msaada,s,muhula,auwali,kiwimbe,NA,NA,NA,NA,NA,NA,NA,NA,NA,NA,NA,NA,NA,NA,NA,NA,NA,NA,NA,NA,NA,NA,NA
72657,"""Falsch""-Screen",canvas.Screen,1_1_0_1_2,NA,NA,timeout,4995.982,82832.399999999,82801.32,82834.28,87813.98,87815.799999999,2023-09-15T12:31:35Z,87830.262,"c(""distractor1"", ""distractor2"", ""distractor3"")",Rückhalt,msaada,s,muhula,auwali,kiwimbe,NA,NA,0,NA,NA,NA,NA,NA,NA,NA,NA,NA,NA,NA,NA,NA,NA,NA,NA,NA,NA,NA,NA
72657,shallow,flow.Sequence,1_1_0_1,NA,NA,completion,22348.702,65436.299999999,65448.558,65465.278,87813.98,87816.399999999,2023-09-15T12:31:35Z,87830.262,"c(""distractor1"", ""distractor2"", ""distractor3"")",Rückhalt,msaada,s,muhula,auwali,kiwimbe,NA,NA,NA,NA,NA,NA,NA,NA,NA,NA,NA,NA,NA,NA,NA,NA,NA,NA,NA,NA,NA,NA,NA
72657,task,flow.Sequence,1_1_0,NA,NA,completion,22348.702,65434.6,65448.558,65465.278,87813.98,87816.899999999,2023-09-15T12:31:35Z,87830.262,"c(""distractor1"", ""distractor2"", ""distractor3"")",Rückhalt,msaada,s,muhula,auwali,kiwimbe,NA,NA,NA,NA,NA,NA,NA,NA,NA,NA,NA,NA,NA,NA,NA,NA,NA,NA,NA,NA,NA,NA,NA
72657,Deep Question,html.Page,1_1_1_0_0,NA,NA,form submission,6981.738,87817.399999999,87813.98,87830.262,94812,94812.199999999,2023-09-15T12:31:42Z,94824.432,"c(""distractor1"", ""distractor2"", ""distractor3"")",Schatten,kivuli,d,NA,NA,NA,kukule,NA,NA,NA,NA,NA,NA,NA,NA,NA,NA,NA,NA,NA,NA,NA,NA,NA,NA,NA,NA,NA,NA
72657,"""Richtig""-Screen",canvas.Screen,1_1_1_0_1,NA,NA,skipped,NA,94823.5,NA,NA,94812,94823.899999999,2023-09-15T12:31:42Z,94824.432,"c(""distractor1"", ""distractor2"", ""distractor3"")",Schatten,kivuli,d,NA,NA,NA,NA,NA,NA,NA,NA,NA,NA,NA,NA,NA,NA,NA,NA,NA,NA,NA,NA,NA,NA,NA,NA,NA,NA
72657,"""Falsch""-Screen",canvas.Screen,1_1_1_0_2,NA,NA,timeout,4995.923,94825.899999999,94808.128,94824.432,99804.113,99805.899999999,2023-09-15T12:31:47Z,99820.355,"c(""distractor1"", ""distractor2"", ""distractor3"")",Schatten,kivuli,d,NA,NA,NA,NA,NA,0,NA,NA,NA,NA,NA,NA,NA,NA,NA,NA,NA,NA,NA,NA,NA,NA,NA,NA,NA,NA
72657,deep,flow.Sequence,1_1_1_0,NA,NA,completion,11973.851,87817.299999999,87813.98,87830.262,99804.113,99806.399999999,2023-09-15T12:31:47Z,99820.355,"c(""distractor1"", ""distractor2"", ""distractor3"")",Schatten,kivuli,d,NA,NA,NA,NA,NA,NA,NA,NA,NA,NA,NA,NA,NA,NA,NA,NA,NA,NA,NA,NA,NA,NA,NA,NA,NA,NA
72657,shallow,flow.Sequence,1_1_1_1,NA,NA,skipped,NA,99806.699999999,NA,NA,99804.113,99806.899999999,2023-09-15T12:31:47Z,99820.355,"c(""distractor1"", ""distractor2"", ""distractor3"")",Schatten,kivuli,d,NA,NA,NA,NA,NA,NA,NA,NA,NA,NA,NA,NA,NA,NA,NA,NA,NA,NA,NA,NA,NA,NA,NA,NA,NA,NA
72657,task,flow.Sequence,1_1_1,NA,NA,completion,11973.851,87817.199999999,87813.98,87830.262,99804.113,99807.299999999,2023-09-15T12:31:47Z,99820.355,"c(""distractor1"", ""distractor2"", ""distractor3"")",Schatten,kivuli,d,NA,NA,NA,NA,NA,NA,NA,NA,NA,NA,NA,NA,NA,NA,NA,NA,NA,NA,NA,NA,NA,NA,NA,NA,NA,NA
72657,deep,flow.Sequence,1_1_2_0,NA,NA,skipped,NA,99807.6,NA,NA,99804.113,99807.699999999,2023-09-15T12:31:47Z,99820.355,"c(""distractor1"", ""distractor2"", ""distractor3"")",Gegenwart,hadhara,s,katiba,jokofu,mikopo,NA,NA,NA,NA,NA,NA,NA,NA,NA,NA,NA,NA,NA,NA,NA,NA,NA,NA,NA,NA,NA,NA,NA
72657,Shallow Question,html.Page,1_1_2_1_0,NA,NA,form submission,4419.645,99808,99804.113,99820.355,104240,104240.2,2023-09-15T12:31:52Z,104250.072,"c(""distractor1"", ""distractor2"", ""distractor3"")",Gegenwart,hadhara,s,katiba,jokofu,mikopo,mikopo,NA,NA,NA,NA,NA,NA,NA,NA,NA,NA,NA,NA,NA,NA,NA,NA,NA,NA,NA,NA,NA,NA
72657,"""Richtig""-Screen",canvas.Screen,1_1_2_1_1,NA,NA,skipped,NA,104241.1,NA,NA,104240,104241.4,2023-09-15T12:31:52Z,104250.072,"c(""distractor1"", ""distractor2"", ""distractor3"")",Gegenwart,hadhara,s,katiba,jokofu,mikopo,NA,NA,NA,NA,NA,NA,NA,NA,NA,NA,NA,NA,NA,NA,NA,NA,NA,NA,NA,NA,NA,NA,NA
72657,"""Falsch""-Screen",canvas.Screen,1_1_2_1_2,NA,NA,timeout,4995.936,104242.3,104233.456,104250.072,109229.649,109231.3,2023-09-15T12:31:57Z,109246.008,"c(""distractor1"", ""distractor2"", ""distractor3"")",Gegenwart,hadhara,s,katiba,jokofu,mikopo,NA,NA,0,NA,NA,NA,NA,NA,NA,NA,NA,NA,NA,NA,NA,NA,NA,NA,NA,NA,NA,NA,NA
72657,shallow,flow.Sequence,1_1_2_1,NA,NA,completion,9409.294,99807.899999999,99804.113,99820.355,109229.649,109231.8,2023-09-15T12:31:57Z,109246.008,"c(""distractor1"", ""distractor2"", ""distractor3"")",Gegenwart,hadhara,s,katiba,jokofu,mikopo,NA,NA,NA,NA,NA,NA,NA,NA,NA,NA,NA,NA,NA,NA,NA,NA,NA,NA,NA,NA,NA,NA,NA
72657,task,flow.Sequence,1_1_2,NA,NA,completion,9409.294,99807.5,99804.113,99820.355,109229.649,109232,2023-09-15T12:31:57Z,109246.008,"c(""distractor1"", ""distractor2"", ""distractor3"")",Gegenwart,hadhara,s,katiba,jokofu,mikopo,NA,NA,NA,NA,NA,NA,NA,NA,NA,NA,NA,NA,NA,NA,NA,NA,NA,NA,NA,NA,NA,NA,NA
72657,Deep Question,html.Page,1_1_3_0_0,NA,NA,form submission,6021.7919999989,109232.3,109229.649,109246.008,115267.8,115268.1,2023-09-15T12:32:03Z,115274.24,"c(""distractor1"", ""distractor2"", ""distractor3"")",Qualität,mtindo,d,NA,NA,NA,kokombo,NA,NA,NA,NA,NA,NA,NA,NA,NA,NA,NA,NA,NA,NA,NA,NA,NA,NA,NA,NA,NA,NA
72657,"""Richtig""-Screen",canvas.Screen,1_1_3_0_1,NA,NA,skipped,NA,115270.4,NA,NA,115267.8,115270.5,2023-09-15T12:32:03Z,115274.24,"c(""distractor1"", ""distractor2"", ""distractor3"")",Qualität,mtindo,d,NA,NA,NA,NA,NA,NA,NA,NA,NA,NA,NA,NA,NA,NA,NA,NA,NA,NA,NA,NA,NA,NA,NA,NA,NA,NA
72657,"""Falsch""-Screen",canvas.Screen,1_1_3_0_2,NA,NA,timeout,4995.921,115271.5,115257.965,115274.24,120253.857,120255.5,2023-09-15T12:32:08Z,120270.161,"c(""distractor1"", ""distractor2"", ""distractor3"")",Qualität,mtindo,d,NA,NA,NA,NA,NA,0,NA,NA,NA,NA,NA,NA,NA,NA,NA,NA,NA,NA,NA,NA,NA,NA,NA,NA,NA,NA
72657,deep,flow.Sequence,1_1_3_0,NA,NA,completion,11007.849,109232.3,109229.649,109246.008,120253.857,120256,2023-09-15T12:32:08Z,120270.161,"c(""distractor1"", ""distractor2"", ""distractor3"")",Qualität,mtindo,d,NA,NA,NA,NA,NA,NA,NA,NA,NA,NA,NA,NA,NA,NA,NA,NA,NA,NA,NA,NA,NA,NA,NA,NA,NA,NA
72657,shallow,flow.Sequence,1_1_3_1,NA,NA,skipped,NA,120256.1,NA,NA,120253.857,120256.2,2023-09-15T12:32:08Z,120270.161,"c(""distractor1"", ""distractor2"", ""distractor3"")",Qualität,mtindo,d,NA,NA,NA,NA,NA,NA,NA,NA,NA,NA,NA,NA,NA,NA,NA,NA,NA,NA,NA,NA,NA,NA,NA,NA,NA,NA
72657,task,flow.Sequence,1_1_3,NA,NA,completion,11007.849,109232.2,109229.649,109246.008,120253.857,120256.5,2023-09-15T12:32:08Z,120270.161,"c(""distractor1"", ""distractor2"", ""distractor3"")",Qualität,mtindo,d,NA,NA,NA,NA,NA,NA,NA,NA,NA,NA,NA,NA,NA,NA,NA,NA,NA,NA,NA,NA,NA,NA,NA,NA,NA,NA
72657,Deep Question,html.Page,1_1_4_0_0,NA,NA,form submission,9444.2389999985,120258,120253.857,120270.161,129714.4,129714.7,2023-09-15T12:32:17Z,129729.131,"c(""distractor1"", ""distractor2"", ""distractor3"")",Gesundheit,salama,d,NA,NA,NA,sanite,NA,NA,NA,NA,NA,NA,NA,NA,NA,NA,NA,NA,NA,NA,NA,NA,NA,NA,NA,NA,NA,NA
72657,"""Richtig""-Screen",canvas.Screen,1_1_4_0_1,NA,NA,skipped,NA,129717.4,NA,NA,129714.4,129717.6,2023-09-15T12:32:17Z,129729.131,"c(""distractor1"", ""distractor2"", ""distractor3"")",Gesundheit,salama,d,NA,NA,NA,NA,NA,NA,NA,NA,NA,NA,NA,NA,NA,NA,NA,NA,NA,NA,NA,NA,NA,NA,NA,NA,NA,NA
72657,"""Falsch""-Screen",canvas.Screen,1_1_4_0_2,NA,NA,timeout,4995.834,129718.6,129712.713,129729.131,134708.667,134710.4,2023-09-15T12:32:22Z,134724.965,"c(""distractor1"", ""distractor2"", ""distractor3"")",Gesundheit,salama,d,NA,NA,NA,NA,NA,0,NA,NA,NA,NA,NA,NA,NA,NA,NA,NA,NA,NA,NA,NA,NA,NA,NA,NA,NA,NA
72657,deep,flow.Sequence,1_1_4_0,NA,NA,completion,14438.506,120256.8,120253.857,120270.161,134708.667,134710.9,2023-09-15T12:32:22Z,134724.965,"c(""distractor1"", ""distractor2"", ""distractor3"")",Gesundheit,salama,d,NA,NA,NA,NA,NA,NA,NA,NA,NA,NA,NA,NA,NA,NA,NA,NA,NA,NA,NA,NA,NA,NA,NA,NA,NA,NA
72657,shallow,flow.Sequence,1_1_4_1,NA,NA,skipped,NA,134711,NA,NA,134708.667,134711.3,2023-09-15T12:32:22Z,134724.965,"c(""distractor1"", ""distractor2"", ""distractor3"")",Gesundheit,salama,d,NA,NA,NA,NA,NA,NA,NA,NA,NA,NA,NA,NA,NA,NA,NA,NA,NA,NA,NA,NA,NA,NA,NA,NA,NA,NA
72657,task,flow.Sequence,1_1_4,NA,NA,completion,14438.506,120256.7,120253.857,120270.161,134708.667,134711.5,2023-09-15T12:32:22Z,134724.965,"c(""distractor1"", ""distractor2"", ""distractor3"")",Gesundheit,salama,d,NA,NA,NA,NA,NA,NA,NA,NA,NA,NA,NA,NA,NA,NA,NA,NA,NA,NA,NA,NA,NA,NA,NA,NA,NA,NA
72657,deep,flow.Sequence,1_1_5_0,NA,NA,skipped,NA,134711.8,NA,NA,134708.667,134712.1,2023-09-15T12:32:22Z,134724.965,"c(""distractor1"", ""distractor2"", ""distractor3"")",Kritik,lawama,s,dereva,nafasi,mawazo,NA,NA,NA,NA,NA,NA,NA,NA,NA,NA,NA,NA,NA,NA,NA,NA,NA,NA,NA,NA,NA,NA,NA
72657,Shallow Question,html.Page,1_1_5_1_0,NA,NA,form submission,6529.6349999996,134712.3,134708.667,134724.965,141254.6,141254.9,2023-09-15T12:32:29Z,141269.625,"c(""distractor1"", ""distractor2"", ""distractor3"")",Kritik,lawama,s,dereva,nafasi,mawazo,dereva,NA,NA,NA,NA,NA,NA,NA,NA,NA,NA,NA,NA,NA,NA,NA,NA,NA,NA,NA,NA,NA,NA
72657,"""Richtig""-Screen",canvas.Screen,1_1_5_1_1,NA,NA,skipped,NA,141257.2,NA,NA,141254.6,141257.3,2023-09-15T12:32:29Z,141269.625,"c(""distractor1"", ""distractor2"", ""distractor3"")",Kritik,lawama,s,dereva,nafasi,mawazo,NA,NA,NA,NA,NA,NA,NA,NA,NA,NA,NA,NA,NA,NA,NA,NA,NA,NA,NA,NA,NA,NA,NA
72657,"""Falsch""-Screen",canvas.Screen,1_1_5_1_2,NA,NA,timeout,4995.797,141258.2,141253.251,141269.625,146249.113,146250.7,2023-09-15T12:32:34Z,146265.422,"c(""distractor1"", ""distractor2"", ""distractor3"")",Kritik,lawama,s,dereva,nafasi,mawazo,NA,NA,0,NA,NA,NA,NA,NA,NA,NA,NA,NA,NA,NA,NA,NA,NA,NA,NA,NA,NA,NA,NA
72657,shallow,flow.Sequence,1_1_5_1,NA,NA,completion,11524.148,134712.3,134708.667,134724.965,146249.113,146251.2,2023-09-15T12:32:34Z,146265.422,"c(""distractor1"", ""distractor2"", ""distractor3"")",Kritik,lawama,s,dereva,nafasi,mawazo,NA,NA,NA,NA,NA,NA,NA,NA,NA,NA,NA,NA,NA,NA,NA,NA,NA,NA,NA,NA,NA,NA,NA
72657,task,flow.Sequence,1_1_5,NA,NA,completion,11524.148,134711.7,134708.667,134724.965,146249.113,146251.4,2023-09-15T12:32:34Z,146265.422,"c(""distractor1"", ""distractor2"", ""distractor3"")",Kritik,lawama,s,dereva,nafasi,mawazo,NA,NA,NA,NA,NA,NA,NA,NA,NA,NA,NA,NA,NA,NA,NA,NA,NA,NA,NA,NA,NA,NA,NA
72657,block,flow.Loop,1_1,NA,NA,completion,80783.835,65434.6,65448.558,65465.278,146249.113,146251.8,2023-09-15T12:32:34Z,146265.422,"c(""distractor1"", ""distractor2"", ""distractor3"")",NA,NA,NA,NA,NA,NA,NA,NA,NA,NA,NA,NA,NA,NA,NA,NA,NA,NA,NA,NA,NA,NA,NA,NA,NA,NA,NA,NA,NA
72657,Practice,flow.Sequence,1,NA,NA,completion,88527.338,57691.1,57705.073,57721.775,146249.113,146252,2023-09-15T12:32:34Z,146265.422,NULL,NA,NA,NA,NA,NA,NA,NA,NA,NA,NA,NA,NA,NA,NA,NA,NA,NA,NA,NA,NA,NA,NA,NA,NA,NA,NA,NA,NA,NA
72657,Experiment start,canvas.Screen,2,weiter,keypress(q),response,28272.777999999,146252.3,146249.113,146265.422,174538.2,174540.7,2023-09-15T12:33:02Z,174741.93,NULL,NA,NA,NA,NA,NA,NA,NA,NA,NA,NA,NA,NA,NA,NA,NA,NA,NA,NA,NA,NA,NA,NA,NA,NA,NA,NA,NA,NA,NA
72657,deep,flow.Sequence,3_0_0_0_0_0,NA,NA,skipped,NA,174751.6,NA,NA,174538.2,174751.8,2023-09-15T12:33:02Z,174741.93,NULL,Notfall,dharura,s,rairai,malalamiko,ahueni,NA,sdf,NA,0,NA,NA,NA,NA,NA,NA,NA,NA,NA,NA,NA,NA,NA,NA,NA,NA,NA,NA,NA
72657,Shallow Question,html.Page,3_0_0_0_0_1_0,NA,NA,form submission,8979.4699999985,174751.9,174524.697,174741.93,183721.4,183721.8,2023-09-15T12:33:11Z,183734.677,NULL,Notfall,dharura,s,rairai,malalamiko,ahueni,rairai,NA,NA,0,NA,NA,NA,NA,NA,NA,NA,NA,NA,NA,NA,NA,NA,NA,NA,NA,NA,NA,NA
72657,"""Richtig""-Screen",canvas.Screen,3_0_0_0_0_1_1,NA,NA,skipped,NA,183724.1,NA,NA,183721.4,183724.3,2023-09-15T12:33:11Z,183734.677,NULL,Notfall,dharura,s,rairai,malalamiko,ahueni,NA,sdf,NA,0,NA,NA,NA,NA,NA,NA,NA,NA,NA,NA,NA,NA,NA,NA,NA,NA,NA,NA,NA
72657,"""Falsch""-Screen",canvas.Screen,3_0_0_0_0_1_2,NA,NA,timeout,4995.841,183725.1,183718.177,183734.677,188714.207,188715.6,2023-09-15T12:33:16Z,188730.518,NULL,Notfall,dharura,s,rairai,malalamiko,ahueni,NA,sdf,0,0,NA,NA,NA,NA,NA,NA,NA,NA,NA,NA,NA,NA,NA,NA,NA,NA,NA,NA,NA
72657,shallow,flow.Sequence,3_0_0_0_0_1,NA,NA,completion,13972.277,174751.9,174524.697,174741.93,188714.207,188716.2,2023-09-15T12:33:16Z,188730.518,NULL,Notfall,dharura,s,rairai,malalamiko,ahueni,NA,sdf,NA,0,NA,NA,NA,NA,NA,NA,NA,NA,NA,NA,NA,NA,NA,NA,NA,NA,NA,NA,NA
72657,task,flow.Sequence,3_0_0_0_0,NA,NA,completion,13972.277,174751.6,174524.697,174741.93,188714.207,188716.4,2023-09-15T12:33:16Z,188730.518,NULL,Notfall,dharura,s,rairai,malalamiko,ahueni,NA,sdf,NA,0,NA,NA,NA,NA,NA,NA,NA,NA,NA,NA,NA,NA,NA,NA,NA,NA,NA,NA,NA
72657,deep,flow.Sequence,3_0_0_0_1_0,NA,NA,skipped,NA,188716.6,NA,NA,188714.207,188716.8,2023-09-15T12:33:16Z,188730.518,NULL,Vergnügen,kichekesho,s,dubwana,mpanuko,mtesaji,NA,sdf,NA,0,NA,NA,NA,NA,NA,NA,NA,NA,NA,NA,NA,NA,NA,NA,NA,NA,NA,NA,NA
72657,Shallow Question,html.Page,3_0_0_0_1_1_0,NA,NA,form submission,6213.3819999985,188717,188714.207,188730.518,194943.9,194944.2,2023-09-15T12:33:23Z,194958.754,NULL,Vergnügen,kichekesho,s,dubwana,mpanuko,mtesaji,mtesaji,NA,NA,0,NA,NA,NA,NA,NA,NA,NA,NA,NA,NA,NA,NA,NA,NA,NA,NA,NA,NA,NA
72657,"""Richtig""-Screen",canvas.Screen,3_0_0_0_1_1_1,NA,NA,skipped,NA,194946.4,NA,NA,194943.9,194946.5,2023-09-15T12:33:23Z,194958.754,NULL,Vergnügen,kichekesho,s,dubwana,mpanuko,mtesaji,NA,sdf,NA,0,NA,NA,NA,NA,NA,NA,NA,NA,NA,NA,NA,NA,NA,NA,NA,NA,NA,NA,NA
72657,"""Falsch""-Screen",canvas.Screen,3_0_0_0_1_1_2,NA,NA,timeout,4996.031,194947.8,194942.293,194958.754,199938.311,199939.7,2023-09-15T12:33:28Z,199954.785,NULL,Vergnügen,kichekesho,s,dubwana,mpanuko,mtesaji,NA,sdf,0,0,NA,NA,NA,NA,NA,NA,NA,NA,NA,NA,NA,NA,NA,NA,NA,NA,NA,NA,NA
72657,shallow,flow.Sequence,3_0_0_0_1_1,NA,NA,completion,11207.793,188716.9,188714.207,188730.518,199938.311,199940.1,2023-09-15T12:33:28Z,199954.785,NULL,Vergnügen,kichekesho,s,dubwana,mpanuko,mtesaji,NA,sdf,NA,0,NA,NA,NA,NA,NA,NA,NA,NA,NA,NA,NA,NA,NA,NA,NA,NA,NA,NA,NA
72657,task,flow.Sequence,3_0_0_0_1,NA,NA,completion,11207.793,188716.6,188714.207,188730.518,199938.311,199940.4,2023-09-15T12:33:28Z,199954.785,NULL,Vergnügen,kichekesho,s,dubwana,mpanuko,mtesaji,NA,sdf,NA,0,NA,NA,NA,NA,NA,NA,NA,NA,NA,NA,NA,NA,NA,NA,NA,NA,NA,NA,NA
72657,deep,flow.Sequence,3_0_0_0_2_0,NA,NA,skipped,NA,199940.5,NA,NA,199938.311,199940.7,2023-09-15T12:33:28Z,199954.785,NULL,Ausschluss,kutengwa,s,ununuzi,taratibu,madeni,NA,sdf,NA,0,NA,NA,NA,NA,NA,NA,NA,NA,NA,NA,NA,NA,NA,NA,NA,NA,NA,NA,NA
72657,Shallow Question,html.Page,3_0_0_0_2_1_0,NA,NA,form submission,5193.215,199940.9,199938.311,199954.785,205148,205148.2,2023-09-15T12:33:33Z,205150.246,NULL,Ausschluss,kutengwa,s,ununuzi,taratibu,madeni,ununuzi,NA,NA,0,NA,NA,NA,NA,NA,NA,NA,NA,NA,NA,NA,NA,NA,NA,NA,NA,NA,NA,NA
72657,"""Richtig""-Screen",canvas.Screen,3_0_0_0_2_1_1,NA,NA,skipped,NA,205151.1,NA,NA,205148,205151.3,2023-09-15T12:33:33Z,205150.246,NULL,Ausschluss,kutengwa,s,ununuzi,taratibu,madeni,NA,sdf,NA,0,NA,NA,NA,NA,NA,NA,NA,NA,NA,NA,NA,NA,NA,NA,NA,NA,NA,NA,NA
72657,"""Falsch""-Screen",canvas.Screen,3_0_0_0_2_1_2,NA,NA,timeout,4995.949,205152,205133.797,205150.246,210129.902,210131.4,2023-09-15T12:33:38Z,210146.195,NULL,Ausschluss,kutengwa,s,ununuzi,taratibu,madeni,NA,sdf,0,0,NA,NA,NA,NA,NA,NA,NA,NA,NA,NA,NA,NA,NA,NA,NA,NA,NA,NA,NA
72657,shallow,flow.Sequence,3_0_0_0_2_1,NA,NA,completion,10175.117,199940.8,199938.311,199954.785,210129.902,210132.1,2023-09-15T12:33:38Z,210146.195,NULL,Ausschluss,kutengwa,s,ununuzi,taratibu,madeni,NA,sdf,NA,0,NA,NA,NA,NA,NA,NA,NA,NA,NA,NA,NA,NA,NA,NA,NA,NA,NA,NA,NA
72657,task,flow.Sequence,3_0_0_0_2,NA,NA,completion,10175.117,199940.5,199938.311,199954.785,210129.902,210132.3,2023-09-15T12:33:38Z,210146.195,NULL,Ausschluss,kutengwa,s,ununuzi,taratibu,madeni,NA,sdf,NA,0,NA,NA,NA,NA,NA,NA,NA,NA,NA,NA,NA,NA,NA,NA,NA,NA,NA,NA,NA
72657,deep,flow.Sequence,3_0_0_0_3_0,NA,NA,skipped,NA,210132.5,NA,NA,210129.902,210132.8,2023-09-15T12:33:38Z,210146.195,NULL,Gelegenheit,wakati,s,mchanganyiko,kipaumbele,kushuku,NA,sdf,NA,0,NA,NA,NA,NA,NA,NA,NA,NA,NA,NA,NA,NA,NA,NA,NA,NA,NA,NA,NA
72657,Shallow Question,html.Page,3_0_0_0_3_1_0,NA,NA,form submission,4864.305,210132.9,210129.902,210146.195,215010.5,215010.7,2023-09-15T12:33:43Z,215025.565,NULL,Gelegenheit,wakati,s,mchanganyiko,kipaumbele,kushuku,wakati,NA,NA,0,NA,NA,NA,NA,NA,NA,NA,NA,NA,NA,NA,NA,NA,NA,NA,NA,NA,NA,NA
72657,"""Richtig""-Screen",canvas.Screen,3_0_0_0_3_1_1,NA,NA,timeout,4995.822,215013,215009.15,215025.565,220005.037,220006.4,2023-09-15T12:33:48Z,220021.387,NULL,Gelegenheit,wakati,s,mchanganyiko,kipaumbele,kushuku,NA,sdf,1,0,NA,NA,NA,NA,NA,NA,NA,NA,NA,NA,NA,NA,NA,NA,NA,NA,NA,NA,NA
72657,"""Falsch""-Screen",canvas.Screen,3_0_0_0_3_1_2,NA,NA,skipped,NA,220008.7,NA,NA,220005.037,220009.1,2023-09-15T12:33:48Z,220021.387,NULL,Gelegenheit,wakati,s,mchanganyiko,kipaumbele,kushuku,NA,sdf,NA,0,NA,NA,NA,NA,NA,NA,NA,NA,NA,NA,NA,NA,NA,NA,NA,NA,NA,NA,NA
72657,shallow,flow.Sequence,3_0_0_0_3_1,NA,NA,completion,9858.842,210132.9,210129.902,210146.195,220005.037,220009.5,2023-09-15T12:33:48Z,220021.387,NULL,Gelegenheit,wakati,s,mchanganyiko,kipaumbele,kushuku,NA,sdf,NA,0,NA,NA,NA,NA,NA,NA,NA,NA,NA,NA,NA,NA,NA,NA,NA,NA,NA,NA,NA
72657,task,flow.Sequence,3_0_0_0_3,NA,NA,completion,9858.842,210132.5,210129.902,210146.195,220005.037,220009.8,2023-09-15T12:33:48Z,220021.387,NULL,Gelegenheit,wakati,s,mchanganyiko,kipaumbele,kushuku,NA,sdf,NA,0,NA,NA,NA,NA,NA,NA,NA,NA,NA,NA,NA,NA,NA,NA,NA,NA,NA,NA,NA
72657,Deep Question,html.Page,3_0_0_0_4_0_0,NA,NA,form submission,7748.2129999996,220010,220005.037,220021.387,227769.6,227769.9,2023-09-15T12:33:55Z,227781.69,NULL,Wohlstand,mafanikio,d,NA,NA,NA,susumba,NA,NA,0,NA,NA,NA,NA,NA,NA,NA,NA,NA,NA,NA,NA,NA,NA,NA,NA,NA,NA,NA
72657,"""Richtig""-Screen",canvas.Screen,3_0_0_0_4_0_1,NA,NA,skipped,NA,227772.7,NA,NA,227769.6,227772.9,2023-09-15T12:33:55Z,227781.69,NULL,Wohlstand,mafanikio,d,NA,NA,NA,NA,sdf,NA,0,NA,NA,NA,NA,NA,NA,NA,NA,NA,NA,NA,NA,NA,NA,NA,NA,NA,NA,NA
72657,"""Falsch""-Screen",canvas.Screen,3_0_0_0_4_0_2,NA,NA,timeout,4995.935,227773.8,227765.418,227781.69,232761.258,232762.8,2023-09-15T12:34:00Z,232777.625,NULL,Wohlstand,mafanikio,d,NA,NA,NA,NA,sdf,0,0,NA,NA,NA,NA,NA,NA,NA,NA,NA,NA,NA,NA,NA,NA,NA,NA,NA,NA,NA
72657,deep,flow.Sequence,3_0_0_0_4_0,NA,NA,completion,12739.871,220010,220005.037,220021.387,232761.258,232763.1,2023-09-15T12:34:00Z,232777.625,NULL,Wohlstand,mafanikio,d,NA,NA,NA,NA,sdf,NA,0,NA,NA,NA,NA,NA,NA,NA,NA,NA,NA,NA,NA,NA,NA,NA,NA,NA,NA,NA
72657,shallow,flow.Sequence,3_0_0_0_4_1,NA,NA,skipped,NA,232763.3,NA,NA,232761.258,232763.5,2023-09-15T12:34:00Z,232777.625,NULL,Wohlstand,mafanikio,d,NA,NA,NA,NA,sdf,NA,0,NA,NA,NA,NA,NA,NA,NA,NA,NA,NA,NA,NA,NA,NA,NA,NA,NA,NA,NA
72657,task,flow.Sequence,3_0_0_0_4,NA,NA,completion,12739.871,220009.9,220005.037,220021.387,232761.258,232763.7,2023-09-15T12:34:00Z,232777.625,NULL,Wohlstand,mafanikio,d,NA,NA,NA,NA,sdf,NA,0,NA,NA,NA,NA,NA,NA,NA,NA,NA,NA,NA,NA,NA,NA,NA,NA,NA,NA,NA
72657,Deep Question,html.Page,3_0_0_0_5_0_0,NA,NA,form submission,6632.0749999993,232763.9,232761.258,232777.625,239409.7,239410,2023-09-15T12:34:07Z,239422.131,NULL,Ergänzung,kijalizo,d,NA,NA,NA,gulasch,NA,NA,0,NA,NA,NA,NA,NA,NA,NA,NA,NA,NA,NA,NA,NA,NA,NA,NA,NA,NA,NA
72657,"""Richtig""-Screen",canvas.Screen,3_0_0_0_5_0_1,NA,NA,skipped,NA,239412.3,NA,NA,239409.7,239412.4,2023-09-15T12:34:07Z,239422.131,NULL,Ergänzung,kijalizo,d,NA,NA,NA,NA,sdf,NA,0,NA,NA,NA,NA,NA,NA,NA,NA,NA,NA,NA,NA,NA,NA,NA,NA,NA,NA,NA
72657,"""Falsch""-Screen",canvas.Screen,3_0_0_0_5_0_2,NA,NA,timeout,4995.931,239413.1,239405.726,239422.131,244401.661,244403.2,2023-09-15T12:34:12Z,244418.062,NULL,Ergänzung,kijalizo,d,NA,NA,NA,NA,sdf,0,0,NA,NA,NA,NA,NA,NA,NA,NA,NA,NA,NA,NA,NA,NA,NA,NA,NA,NA,NA
72657,deep,flow.Sequence,3_0_0_0_5_0,NA,NA,completion,11624.036,232763.9,232761.258,232777.625,244401.661,244403.8,2023-09-15T12:34:12Z,244418.062,NULL,Ergänzung,kijalizo,d,NA,NA,NA,NA,sdf,NA,0,NA,NA,NA,NA,NA,NA,NA,NA,NA,NA,NA,NA,NA,NA,NA,NA,NA,NA,NA
72657,shallow,flow.Sequence,3_0_0_0_5_1,NA,NA,skipped,NA,244403.9,NA,NA,244401.661,244404.2,2023-09-15T12:34:12Z,244418.062,NULL,Ergänzung,kijalizo,d,NA,NA,NA,NA,sdf,NA,0,NA,NA,NA,NA,NA,NA,NA,NA,NA,NA,NA,NA,NA,NA,NA,NA,NA,NA,NA
72657,task,flow.Sequence,3_0_0_0_5,NA,NA,completion,11624.036,232763.9,232761.258,232777.625,244401.661,244404.4,2023-09-15T12:34:12Z,244418.062,NULL,Ergänzung,kijalizo,d,NA,NA,NA,NA,sdf,NA,0,NA,NA,NA,NA,NA,NA,NA,NA,NA,NA,NA,NA,NA,NA,NA,NA,NA,NA,NA
72657,Deep Question,html.Page,3_0_0_0_6_0_0,NA,NA,form submission,5733.5379999996,244405,244401.661,244418.062,250151.6,250151.8,2023-09-15T12:34:18Z,250179.869,NULL,Verstand,ufahamivu,d,NA,NA,NA,jojo,NA,NA,0,NA,NA,NA,NA,NA,NA,NA,NA,NA,NA,NA,NA,NA,NA,NA,NA,NA,NA,NA
72657,"""Richtig""-Screen",canvas.Screen,3_0_0_0_6_0_1,NA,NA,skipped,NA,250152.8,NA,NA,250151.6,250152.9,2023-09-15T12:34:18Z,250179.869,NULL,Verstand,ufahamivu,d,NA,NA,NA,NA,sdf,NA,0,NA,NA,NA,NA,NA,NA,NA,NA,NA,NA,NA,NA,NA,NA,NA,NA,NA,NA,NA
72657,"""Falsch""-Screen",canvas.Screen,3_0_0_0_6_0_2,NA,NA,timeout,4996,250153.8,250163.532,250179.869,255159.494,255160.8,2023-09-15T12:34:23Z,255175.869,NULL,Verstand,ufahamivu,d,NA,NA,NA,NA,sdf,0,0,NA,NA,NA,NA,NA,NA,NA,NA,NA,NA,NA,NA,NA,NA,NA,NA,NA,NA,NA
72657,deep,flow.Sequence,3_0_0_0_6_0,NA,NA,completion,10741.432,244404.9,244401.661,244418.062,255159.494,255161.1,2023-09-15T12:34:23Z,255175.869,NULL,Verstand,ufahamivu,d,NA,NA,NA,NA,sdf,NA,0,NA,NA,NA,NA,NA,NA,NA,NA,NA,NA,NA,NA,NA,NA,NA,NA,NA,NA,NA
72657,shallow,flow.Sequence,3_0_0_0_6_1,NA,NA,skipped,NA,255161.3,NA,NA,255159.494,255161.5,2023-09-15T12:34:23Z,255175.869,NULL,Verstand,ufahamivu,d,NA,NA,NA,NA,sdf,NA,0,NA,NA,NA,NA,NA,NA,NA,NA,NA,NA,NA,NA,NA,NA,NA,NA,NA,NA,NA
72657,task,flow.Sequence,3_0_0_0_6,NA,NA,completion,10741.432,244404.8,244401.661,244418.062,255159.494,255161.7,2023-09-15T12:34:23Z,255175.869,NULL,Verstand,ufahamivu,d,NA,NA,NA,NA,sdf,NA,0,NA,NA,NA,NA,NA,NA,NA,NA,NA,NA,NA,NA,NA,NA,NA,NA,NA,NA,NA
72657,Deep Question,html.Page,3_0_0_0_7_0_0,NA,NA,form submission,6399.7309999996,255162,255159.494,255175.869,261575.6,261575.8,2023-09-15T12:34:29Z,261587.215,NULL,Widerstand,usulubu,d,NA,NA,NA,gogo,NA,NA,0,NA,NA,NA,NA,NA,NA,NA,NA,NA,NA,NA,NA,NA,NA,NA,NA,NA,NA,NA
72657,"""Richtig""-Screen",canvas.Screen,3_0_0_0_7_0_1,NA,NA,skipped,NA,261578.1,NA,NA,261575.6,261578.2,2023-09-15T12:34:29Z,261587.215,NULL,Widerstand,usulubu,d,NA,NA,NA,NA,sdf,NA,0,NA,NA,NA,NA,NA,NA,NA,NA,NA,NA,NA,NA,NA,NA,NA,NA,NA,NA,NA
72657,"""Falsch""-Screen",canvas.Screen,3_0_0_0_7_0_2,NA,NA,timeout,4995.815,261579,261570.855,261587.215,266566.756,266568.2,2023-09-15T12:34:34Z,266583.03,NULL,Widerstand,usulubu,d,NA,NA,NA,NA,sdf,0,0,NA,NA,NA,NA,NA,NA,NA,NA,NA,NA,NA,NA,NA,NA,NA,NA,NA,NA,NA
72657,deep,flow.Sequence,3_0_0_0_7_0,NA,NA,completion,11390.887,255161.9,255159.494,255175.869,266566.756,266568.6,2023-09-15T12:34:34Z,266583.03,NULL,Widerstand,usulubu,d,NA,NA,NA,NA,sdf,NA,0,NA,NA,NA,NA,NA,NA,NA,NA,NA,NA,NA,NA,NA,NA,NA,NA,NA,NA,NA
72657,shallow,flow.Sequence,3_0_0_0_7_1,NA,NA,skipped,NA,266568.8,NA,NA,266566.756,266568.9,2023-09-15T12:34:34Z,266583.03,NULL,Widerstand,usulubu,d,NA,NA,NA,NA,sdf,NA,0,NA,NA,NA,NA,NA,NA,NA,NA,NA,NA,NA,NA,NA,NA,NA,NA,NA,NA,NA
72657,task,flow.Sequence,3_0_0_0_7,NA,NA,completion,11390.887,255161.8,255159.494,255175.869,266566.756,266569.2,2023-09-15T12:34:34Z,266583.03,NULL,Widerstand,usulubu,d,NA,NA,NA,NA,sdf,NA,0,NA,NA,NA,NA,NA,NA,NA,NA,NA,NA,NA,NA,NA,NA,NA,NA,NA,NA,NA
72657,block,flow.Loop,3_0_0_0,NA,NA,completion,91824.826,174751.6,174524.697,174741.93,266566.756,266569.5,2023-09-15T12:34:34Z,266583.03,NULL,NA,NA,NA,NA,NA,NA,NA,sdf,NA,0,NA,NA,NA,NA,NA,NA,NA,NA,NA,NA,NA,NA,NA,NA,NA,NA,NA,NA,NA
72657,weiter,canvas.Screen,3_0_0_1,sdf,keypress(Space),response,1914.8699999985,266569.7,266566.756,266583.03,268497.9,268500,2023-09-15T12:34:36Z,268598.006,NULL,NA,NA,NA,NA,NA,NA,NA,sdf,NA,0,NA,NA,NA,NA,NA,NA,NA,NA,NA,NA,NA,NA,NA,NA,NA,NA,NA,NA,NA
72657,check continue,flow.Sequence,3_0_0,NA,NA,completion,93755.969999999,174751.4,174524.697,174741.93,268497.9,268500.3,2023-09-15T12:34:36Z,268598.006,NULL,NA,NA,NA,NA,NA,NA,NA,sdf,NA,0,NA,NA,NA,NA,NA,NA,NA,NA,NA,NA,NA,NA,NA,NA,NA,NA,NA,NA,NA
72657,Deep Question,html.Page,3_0_1_0_0_0_0,NA,NA,form submission,15075.393999999,268589.4,268498.047,268598.006,283673.4,283673.6,2023-09-15T12:34:51Z,283685.676,NULL,Wohlstand,mafanikio,d,NA,NA,NA,kokombo,NA,NA,1,NA,NA,NA,NA,NA,NA,NA,NA,NA,NA,NA,NA,NA,NA,NA,NA,NA,NA,NA
72657,"""Richtig""-Screen",canvas.Screen,3_0_1_0_0_0_1,NA,NA,skipped,NA,283676.2,NA,NA,283673.4,283676.5,2023-09-15T12:34:51Z,283685.676,NULL,Wohlstand,mafanikio,d,NA,NA,NA,NA,sdfdsf,NA,1,NA,NA,NA,NA,NA,NA,NA,NA,NA,NA,NA,NA,NA,NA,NA,NA,NA,NA,NA
72657,"""Falsch""-Screen",canvas.Screen,3_0_1_0_0_0_2,NA,NA,timeout,4995.896,283677.3,283669.243,283685.676,288665.249,288666.6,2023-09-15T12:34:56Z,288681.572,NULL,Wohlstand,mafanikio,d,NA,NA,NA,NA,sdfdsf,0,1,NA,NA,NA,NA,NA,NA,NA,NA,NA,NA,NA,NA,NA,NA,NA,NA,NA,NA,NA
72657,deep,flow.Sequence,3_0_1_0_0_0,NA,NA,completion,20067.243,268589.4,268498.047,268598.006,288665.249,288667.1,2023-09-15T12:34:56Z,288681.572,NULL,Wohlstand,mafanikio,d,NA,NA,NA,NA,sdfdsf,NA,1,NA,NA,NA,NA,NA,NA,NA,NA,NA,NA,NA,NA,NA,NA,NA,NA,NA,NA,NA
72657,shallow,flow.Sequence,3_0_1_0_0_1,NA,NA,skipped,NA,288667.2,NA,NA,288665.249,288667.4,2023-09-15T12:34:56Z,288681.572,NULL,Wohlstand,mafanikio,d,NA,NA,NA,NA,sdfdsf,NA,1,NA,NA,NA,NA,NA,NA,NA,NA,NA,NA,NA,NA,NA,NA,NA,NA,NA,NA,NA
72657,task,flow.Sequence,3_0_1_0_0,NA,NA,completion,20067.243,268589.4,268498.047,268598.006,288665.249,288667.7,2023-09-15T12:34:56Z,288681.572,NULL,Wohlstand,mafanikio,d,NA,NA,NA,NA,sdfdsf,NA,1,NA,NA,NA,NA,NA,NA,NA,NA,NA,NA,NA,NA,NA,NA,NA,NA,NA,NA,NA
72657,Deep Question,html.Page,3_0_1_0_1_0_0,NA,NA,form submission,6347.1279999993,288667.9,288665.249,288681.572,295028.7,295028.9,2023-09-15T12:35:03Z,295043.028,NULL,Ergänzung,kijalizo,d,NA,NA,NA,jojo,NA,NA,1,NA,NA,NA,NA,NA,NA,NA,NA,NA,NA,NA,NA,NA,NA,NA,NA,NA,NA,NA
72657,"""Richtig""-Screen",canvas.Screen,3_0_1_0_1_0_1,NA,NA,skipped,NA,295031.4,NA,NA,295028.7,295031.6,2023-09-15T12:35:03Z,295043.028,NULL,Ergänzung,kijalizo,d,NA,NA,NA,NA,sdfdsf,NA,1,NA,NA,NA,NA,NA,NA,NA,NA,NA,NA,NA,NA,NA,NA,NA,NA,NA,NA,NA
72657,"""Falsch""-Screen",canvas.Screen,3_0_1_0_1_0_2,NA,NA,timeout,4995.87,295032.4,295026.554,295043.028,300022.544,300024,2023-09-15T12:35:08Z,300038.898,NULL,Ergänzung,kijalizo,d,NA,NA,NA,NA,sdfdsf,0,1,NA,NA,NA,NA,NA,NA,NA,NA,NA,NA,NA,NA,NA,NA,NA,NA,NA,NA,NA
72657,deep,flow.Sequence,3_0_1_0_1_0,NA,NA,completion,11340.972,288667.9,288665.249,288681.572,300022.544,300024.3,2023-09-15T12:35:08Z,300038.898,NULL,Ergänzung,kijalizo,d,NA,NA,NA,NA,sdfdsf,NA,1,NA,NA,NA,NA,NA,NA,NA,NA,NA,NA,NA,NA,NA,NA,NA,NA,NA,NA,NA
72657,shallow,flow.Sequence,3_0_1_0_1_1,NA,NA,skipped,NA,300024.6,NA,NA,300022.544,300024.8,2023-09-15T12:35:08Z,300038.898,NULL,Ergänzung,kijalizo,d,NA,NA,NA,NA,sdfdsf,NA,1,NA,NA,NA,NA,NA,NA,NA,NA,NA,NA,NA,NA,NA,NA,NA,NA,NA,NA,NA
72657,task,flow.Sequence,3_0_1_0_1,NA,NA,completion,11340.972,288667.8,288665.249,288681.572,300022.544,300025,2023-09-15T12:35:08Z,300038.898,NULL,Ergänzung,kijalizo,d,NA,NA,NA,NA,sdfdsf,NA,1,NA,NA,NA,NA,NA,NA,NA,NA,NA,NA,NA,NA,NA,NA,NA,NA,NA,NA,NA
72657,Deep Question,html.Page,3_0_1_0_2_0_0,NA,NA,form submission,12614.501999999,300025.3,300022.544,300038.898,312653.4,312653.5,2023-09-15T12:35:20Z,312661.687,NULL,Widerstand,usulubu,d,NA,NA,NA,jojo,NA,NA,1,NA,NA,NA,NA,NA,NA,NA,NA,NA,NA,NA,NA,NA,NA,NA,NA,NA,NA,NA
72657,"""Richtig""-Screen",canvas.Screen,3_0_1_0_2_0_1,NA,NA,skipped,NA,312656.1,NA,NA,312653.4,312656.3,2023-09-15T12:35:20Z,312661.687,NULL,Widerstand,usulubu,d,NA,NA,NA,NA,sdfdsf,NA,1,NA,NA,NA,NA,NA,NA,NA,NA,NA,NA,NA,NA,NA,NA,NA,NA,NA,NA,NA
72657,"""Falsch""-Screen",canvas.Screen,3_0_1_0_2_0_2,NA,NA,timeout,4995.969,312657.2,312645.386,312661.687,317641.352,317643,2023-09-15T12:35:25Z,317657.656,NULL,Widerstand,usulubu,d,NA,NA,NA,NA,sdfdsf,0,1,NA,NA,NA,NA,NA,NA,NA,NA,NA,NA,NA,NA,NA,NA,NA,NA,NA,NA,NA
72657,deep,flow.Sequence,3_0_1_0_2_0,NA,NA,completion,17602.454,300025.2,300022.544,300038.898,317641.352,317643.5,2023-09-15T12:35:25Z,317657.656,NULL,Widerstand,usulubu,d,NA,NA,NA,NA,sdfdsf,NA,1,NA,NA,NA,NA,NA,NA,NA,NA,NA,NA,NA,NA,NA,NA,NA,NA,NA,NA,NA
72657,shallow,flow.Sequence,3_0_1_0_2_1,NA,NA,skipped,NA,317643.7,NA,NA,317641.352,317643.9,2023-09-15T12:35:25Z,317657.656,NULL,Widerstand,usulubu,d,NA,NA,NA,NA,sdfdsf,NA,1,NA,NA,NA,NA,NA,NA,NA,NA,NA,NA,NA,NA,NA,NA,NA,NA,NA,NA,NA
72657,task,flow.Sequence,3_0_1_0_2,NA,NA,completion,17602.454,300025.2,300022.544,300038.898,317641.352,317644.2,2023-09-15T12:35:25Z,317657.656,NULL,Widerstand,usulubu,d,NA,NA,NA,NA,sdfdsf,NA,1,NA,NA,NA,NA,NA,NA,NA,NA,NA,NA,NA,NA,NA,NA,NA,NA,NA,NA,NA
72657,deep,flow.Sequence,3_0_1_0_3_0,NA,NA,skipped,NA,317644.4,NA,NA,317641.352,317644.5,2023-09-15T12:35:25Z,317657.656,NULL,Notfall,dharura,s,rairai,malalamiko,ahueni,NA,sdfdsf,NA,1,NA,NA,NA,NA,NA,NA,NA,NA,NA,NA,NA,NA,NA,NA,NA,NA,NA,NA,NA
72657,Shallow Question,html.Page,3_0_1_0_3_1_0,NA,NA,form submission,9063.6439999989,317644.8,317641.352,317657.656,326721.3,326721.6,2023-09-15T12:35:34Z,326733.533,NULL,Notfall,dharura,s,rairai,malalamiko,ahueni,dharura,NA,NA,1,NA,NA,NA,NA,NA,NA,NA,NA,NA,NA,NA,NA,NA,NA,NA,NA,NA,NA,NA
72657,"""Richtig""-Screen",canvas.Screen,3_0_1_0_3_1_1,NA,NA,timeout,4995.858,326724.1,326716.853,326733.533,331713.097,331714.7,2023-09-15T12:35:39Z,331729.391,NULL,Notfall,dharura,s,rairai,malalamiko,ahueni,NA,sdfdsf,1,1,NA,NA,NA,NA,NA,NA,NA,NA,NA,NA,NA,NA,NA,NA,NA,NA,NA,NA,NA
72657,"""Falsch""-Screen",canvas.Screen,3_0_1_0_3_1_2,NA,NA,skipped,NA,331716.8,NA,NA,331713.097,331717.1,2023-09-15T12:35:39Z,331729.391,NULL,Notfall,dharura,s,rairai,malalamiko,ahueni,NA,sdfdsf,NA,1,NA,NA,NA,NA,NA,NA,NA,NA,NA,NA,NA,NA,NA,NA,NA,NA,NA,NA,NA
72657,shallow,flow.Sequence,3_0_1_0_3_1,NA,NA,completion,14055.441,317644.7,317641.352,317657.656,331713.097,331717.5,2023-09-15T12:35:39Z,331729.391,NULL,Notfall,dharura,s,rairai,malalamiko,ahueni,NA,sdfdsf,NA,1,NA,NA,NA,NA,NA,NA,NA,NA,NA,NA,NA,NA,NA,NA,NA,NA,NA,NA,NA
72657,task,flow.Sequence,3_0_1_0_3,NA,NA,completion,14055.441,317644.3,317641.352,317657.656,331713.097,331717.7,2023-09-15T12:35:39Z,331729.391,NULL,Notfall,dharura,s,rairai,malalamiko,ahueni,NA,sdfdsf,NA,1,NA,NA,NA,NA,NA,NA,NA,NA,NA,NA,NA,NA,NA,NA,NA,NA,NA,NA,NA
72657,deep,flow.Sequence,3_0_1_0_4_0,NA,NA,skipped,NA,331718,NA,NA,331713.097,331718.1,2023-09-15T12:35:39Z,331729.391,NULL,Vergnügen,kichekesho,s,dubwana,mpanuko,mtesaji,NA,sdfdsf,NA,1,NA,NA,NA,NA,NA,NA,NA,NA,NA,NA,NA,NA,NA,NA,NA,NA,NA,NA,NA
72657,Shallow Question,html.Page,3_0_1_0_4_1_0,NA,NA,form submission,5874.109,331718.3,331713.097,331729.391,337603.5,337603.7,2023-09-15T12:35:45Z,337607.834,NULL,Vergnügen,kichekesho,s,dubwana,mpanuko,mtesaji,kichekesho,NA,NA,1,NA,NA,NA,NA,NA,NA,NA,NA,NA,NA,NA,NA,NA,NA,NA,NA,NA,NA,NA
72657,"""Richtig""-Screen",canvas.Screen,3_0_1_0_4_1_1,NA,NA,timeout,4995.912,337605.9,337591.487,337607.834,342587.476,342588.9,2023-09-15T12:35:50Z,342603.746,NULL,Vergnügen,kichekesho,s,dubwana,mpanuko,mtesaji,NA,sdfdsf,1,1,NA,NA,NA,NA,NA,NA,NA,NA,NA,NA,NA,NA,NA,NA,NA,NA,NA,NA,NA
72657,"""Falsch""-Screen",canvas.Screen,3_0_1_0_4_1_2,NA,NA,skipped,NA,342590.9,NA,NA,342587.476,342591.2,2023-09-15T12:35:50Z,342603.746,NULL,Vergnügen,kichekesho,s,dubwana,mpanuko,mtesaji,NA,sdfdsf,NA,1,NA,NA,NA,NA,NA,NA,NA,NA,NA,NA,NA,NA,NA,NA,NA,NA,NA,NA,NA
72657,shallow,flow.Sequence,3_0_1_0_4_1,NA,NA,completion,10858.085,331718.2,331713.097,331729.391,342587.476,342591.6,2023-09-15T12:35:50Z,342603.746,NULL,Vergnügen,kichekesho,s,dubwana,mpanuko,mtesaji,NA,sdfdsf,NA,1,NA,NA,NA,NA,NA,NA,NA,NA,NA,NA,NA,NA,NA,NA,NA,NA,NA,NA,NA
72657,task,flow.Sequence,3_0_1_0_4,NA,NA,completion,10858.085,331717.9,331713.097,331729.391,342587.476,342591.8,2023-09-15T12:35:50Z,342603.746,NULL,Vergnügen,kichekesho,s,dubwana,mpanuko,mtesaji,NA,sdfdsf,NA,1,NA,NA,NA,NA,NA,NA,NA,NA,NA,NA,NA,NA,NA,NA,NA,NA,NA,NA,NA
72657,deep,flow.Sequence,3_0_1_0_5_0,NA,NA,skipped,NA,342592.1,NA,NA,342587.476,342592.2,2023-09-15T12:35:50Z,342603.746,NULL,Ausschluss,kutengwa,s,ununuzi,taratibu,madeni,NA,sdfdsf,NA,1,NA,NA,NA,NA,NA,NA,NA,NA,NA,NA,NA,NA,NA,NA,NA,NA,NA,NA,NA
72657,Shallow Question,html.Page,3_0_1_0_5_1_0,NA,NA,form submission,4637.6539999985,342592.4,342587.476,342603.746,347241.4,347241.7,2023-09-15T12:35:55Z,347249.963,NULL,Ausschluss,kutengwa,s,ununuzi,taratibu,madeni,kutengwa,NA,NA,1,NA,NA,NA,NA,NA,NA,NA,NA,NA,NA,NA,NA,NA,NA,NA,NA,NA,NA,NA
72657,"""Richtig""-Screen",canvas.Screen,3_0_1_0_5_1_1,NA,NA,timeout,4995.853,347242.4,347233.583,347249.963,352229.566,352231.2,2023-09-15T12:36:00Z,352245.816,NULL,Ausschluss,kutengwa,s,ununuzi,taratibu,madeni,NA,sdfdsf,1,1,NA,NA,NA,NA,NA,NA,NA,NA,NA,NA,NA,NA,NA,NA,NA,NA,NA,NA,NA
72657,"""Falsch""-Screen",canvas.Screen,3_0_1_0_5_1_2,NA,NA,skipped,NA,352233.2,NA,NA,352229.566,352233.6,2023-09-15T12:36:00Z,352245.816,NULL,Ausschluss,kutengwa,s,ununuzi,taratibu,madeni,NA,sdfdsf,NA,1,NA,NA,NA,NA,NA,NA,NA,NA,NA,NA,NA,NA,NA,NA,NA,NA,NA,NA,NA
72657,shallow,flow.Sequence,3_0_1_0_5_1,NA,NA,completion,9625.82,342592.4,342587.476,342603.746,352229.566,352233.9,2023-09-15T12:36:00Z,352245.816,NULL,Ausschluss,kutengwa,s,ununuzi,taratibu,madeni,NA,sdfdsf,NA,1,NA,NA,NA,NA,NA,NA,NA,NA,NA,NA,NA,NA,NA,NA,NA,NA,NA,NA,NA
72657,task,flow.Sequence,3_0_1_0_5,NA,NA,completion,9625.82,342592,342587.476,342603.746,352229.566,352234.2,2023-09-15T12:36:00Z,352245.816,NULL,Ausschluss,kutengwa,s,ununuzi,taratibu,madeni,NA,sdfdsf,NA,1,NA,NA,NA,NA,NA,NA,NA,NA,NA,NA,NA,NA,NA,NA,NA,NA,NA,NA,NA
72657,deep,flow.Sequence,3_0_1_0_6_0,NA,NA,skipped,NA,352234.4,NA,NA,352229.566,352234.7,2023-09-15T12:36:00Z,352245.816,NULL,Gelegenheit,wakati,s,mchanganyiko,kipaumbele,kushuku,NA,sdfdsf,NA,1,NA,NA,NA,NA,NA,NA,NA,NA,NA,NA,NA,NA,NA,NA,NA,NA,NA,NA,NA
72657,Shallow Question,html.Page,3_0_1_0_6_1_0,NA,NA,form submission,10586.184,352234.9,352229.566,352245.816,362832,362832.8,2023-09-15T12:36:11Z,362837.074,NULL,Gelegenheit,wakati,s,mchanganyiko,kipaumbele,kushuku,kushuku,NA,NA,1,NA,NA,NA,NA,NA,NA,NA,NA,NA,NA,NA,NA,NA,NA,NA,NA,NA,NA,NA
72657,"""Richtig""-Screen",canvas.Screen,3_0_1_0_6_1_1,NA,NA,skipped,NA,362835.3,NA,NA,362832,362835.5,2023-09-15T12:36:11Z,362837.074,NULL,Gelegenheit,wakati,s,mchanganyiko,kipaumbele,kushuku,NA,sdfdsf,NA,1,NA,NA,NA,NA,NA,NA,NA,NA,NA,NA,NA,NA,NA,NA,NA,NA,NA,NA,NA
72657,"""Falsch""-Screen",canvas.Screen,3_0_1_0_6_1_2,NA,NA,timeout,4995.901,362836.2,362820.474,362837.074,367816.34,367817.3,2023-09-15T12:36:15Z,367832.975,NULL,Gelegenheit,wakati,s,mchanganyiko,kipaumbele,kushuku,NA,sdfdsf,0,1,NA,NA,NA,NA,NA,NA,NA,NA,NA,NA,NA,NA,NA,NA,NA,NA,NA,NA,NA
72657,shallow,flow.Sequence,3_0_1_0_6_1,NA,NA,completion,15570.524,352234.9,352229.566,352245.816,367816.34,367817.6,2023-09-15T12:36:15Z,367832.975,NULL,Gelegenheit,wakati,s,mchanganyiko,kipaumbele,kushuku,NA,sdfdsf,NA,1,NA,NA,NA,NA,NA,NA,NA,NA,NA,NA,NA,NA,NA,NA,NA,NA,NA,NA,NA
72657,task,flow.Sequence,3_0_1_0_6,NA,NA,completion,15570.524,352234.4,352229.566,352245.816,367816.34,367817.8,2023-09-15T12:36:15Z,367832.975,NULL,Gelegenheit,wakati,s,mchanganyiko,kipaumbele,kushuku,NA,sdfdsf,NA,1,NA,NA,NA,NA,NA,NA,NA,NA,NA,NA,NA,NA,NA,NA,NA,NA,NA,NA,NA
72657,Deep Question,html.Page,3_0_1_0_7_0_0,NA,NA,form submission,7012.525,367818,367816.34,367832.975,374845.5,374845.7,2023-09-15T12:36:23Z,374860.553,NULL,Verstand,ufahamivu,d,NA,NA,NA,kukumbo,NA,NA,1,NA,NA,NA,NA,NA,NA,NA,NA,NA,NA,NA,NA,NA,NA,NA,NA,NA,NA,NA
72657,"""Richtig""-Screen",canvas.Screen,3_0_1_0_7_0_1,NA,NA,skipped,NA,374848,NA,NA,374845.5,374848.2,2023-09-15T12:36:23Z,374860.553,NULL,Verstand,ufahamivu,d,NA,NA,NA,NA,sdfdsf,NA,1,NA,NA,NA,NA,NA,NA,NA,NA,NA,NA,NA,NA,NA,NA,NA,NA,NA,NA,NA
72657,"""Falsch""-Screen",canvas.Screen,3_0_1_0_7_0_2,NA,NA,timeout,4995.897,374849.4,374843.842,374860.553,379839.77,379840.7,2023-09-15T12:36:28Z,379856.45,NULL,Verstand,ufahamivu,d,NA,NA,NA,NA,sdfdsf,0,1,NA,NA,NA,NA,NA,NA,NA,NA,NA,NA,NA,NA,NA,NA,NA,NA,NA,NA,NA
72657,deep,flow.Sequence,3_0_1_0_7_0,NA,NA,completion,12006.795,367818,367816.34,367832.975,379839.77,379841,2023-09-15T12:36:28Z,379856.45,NULL,Verstand,ufahamivu,d,NA,NA,NA,NA,sdfdsf,NA,1,NA,NA,NA,NA,NA,NA,NA,NA,NA,NA,NA,NA,NA,NA,NA,NA,NA,NA,NA
72657,shallow,flow.Sequence,3_0_1_0_7_1,NA,NA,skipped,NA,379841.2,NA,NA,379839.77,379841.3,2023-09-15T12:36:28Z,379856.45,NULL,Verstand,ufahamivu,d,NA,NA,NA,NA,sdfdsf,NA,1,NA,NA,NA,NA,NA,NA,NA,NA,NA,NA,NA,NA,NA,NA,NA,NA,NA,NA,NA
72657,task,flow.Sequence,3_0_1_0_7,NA,NA,completion,12006.795,367817.9,367816.34,367832.975,379839.77,379841.5,2023-09-15T12:36:28Z,379856.45,NULL,Verstand,ufahamivu,d,NA,NA,NA,NA,sdfdsf,NA,1,NA,NA,NA,NA,NA,NA,NA,NA,NA,NA,NA,NA,NA,NA,NA,NA,NA,NA,NA
72657,block,flow.Loop,3_0_1_0,NA,NA,completion,111241.764,268589.3,268498.047,268598.006,379839.77,379841.7,2023-09-15T12:36:28Z,379856.45,NULL,NA,NA,NA,NA,NA,NA,NA,sdfdsf,NA,1,NA,NA,NA,NA,NA,NA,NA,NA,NA,NA,NA,NA,NA,NA,NA,NA,NA,NA,NA
72657,weiter,canvas.Screen,3_0_1_1,sdf,keypress(Space),response,1341.3499999989,379841.8,379839.77,379856.45,381197.8,381198.9,2023-09-15T12:36:29Z,381271.852,NULL,NA,NA,NA,NA,NA,NA,NA,sdfdsf,NA,1,NA,NA,NA,NA,NA,NA,NA,NA,NA,NA,NA,NA,NA,NA,NA,NA,NA,NA,NA
72657,check continue,flow.Sequence,3_0_1,NA,NA,completion,112599.794,268589.2,268498.047,268598.006,381197.8,381199.2,2023-09-15T12:36:29Z,381271.852,NULL,NA,NA,NA,NA,NA,NA,NA,sdfdsf,NA,1,NA,NA,NA,NA,NA,NA,NA,NA,NA,NA,NA,NA,NA,NA,NA,NA,NA,NA,NA
72657,deep,flow.Sequence,3_0_2_0_0_0,NA,NA,skipped,NA,381270.4,NA,NA,381197.8,381270.5,2023-09-15T12:36:29Z,381271.852,NULL,Ausschluss,kutengwa,s,ununuzi,taratibu,madeni,NA,sdf,NA,2,NA,NA,NA,NA,NA,NA,NA,NA,NA,NA,NA,NA,NA,NA,NA,NA,NA,NA,NA
72657,Shallow Question,html.Page,3_0_2_0_0_1_0,NA,NA,form submission,4781.2479999996,381270.6,381188.612,381271.852,386053.1,386053.4,2023-09-15T12:36:34Z,386068.019,NULL,Ausschluss,kutengwa,s,ununuzi,taratibu,madeni,kutengwa,NA,NA,2,NA,NA,NA,NA,NA,NA,NA,NA,NA,NA,NA,NA,NA,NA,NA,NA,NA,NA,NA
72657,"""Richtig""-Screen",canvas.Screen,3_0_2_0_0_1_1,NA,NA,timeout,4995.923,386054.2,386051.574,386068.019,391047.206,391048.2,2023-09-15T12:36:39Z,391063.942,NULL,Ausschluss,kutengwa,s,ununuzi,taratibu,madeni,NA,sdf,1,2,NA,NA,NA,NA,NA,NA,NA,NA,NA,NA,NA,NA,NA,NA,NA,NA,NA,NA,NA
72657,"""Falsch""-Screen",canvas.Screen,3_0_2_0_0_1_2,NA,NA,skipped,NA,391050.1,NA,NA,391047.206,391050.4,2023-09-15T12:36:39Z,391063.942,NULL,Ausschluss,kutengwa,s,ununuzi,taratibu,madeni,NA,sdf,NA,2,NA,NA,NA,NA,NA,NA,NA,NA,NA,NA,NA,NA,NA,NA,NA,NA,NA,NA,NA
72657,shallow,flow.Sequence,3_0_2_0_0_1,NA,NA,completion,9775.354,381270.6,381188.612,381271.852,391047.206,391050.8,2023-09-15T12:36:39Z,391063.942,NULL,Ausschluss,kutengwa,s,ununuzi,taratibu,madeni,NA,sdf,NA,2,NA,NA,NA,NA,NA,NA,NA,NA,NA,NA,NA,NA,NA,NA,NA,NA,NA,NA,NA
72657,task,flow.Sequence,3_0_2_0_0,NA,NA,completion,9775.354,381270.3,381188.612,381271.852,391047.206,391051.1,2023-09-15T12:36:39Z,391063.942,NULL,Ausschluss,kutengwa,s,ununuzi,taratibu,madeni,NA,sdf,NA,2,NA,NA,NA,NA,NA,NA,NA,NA,NA,NA,NA,NA,NA,NA,NA,NA,NA,NA,NA
72657,Deep Question,html.Page,3_0_2_0_1_0_0,NA,NA,form submission,5419.2579999993,391051.4,391047.206,391063.942,396483.2,396483.5,2023-09-15T12:36:44Z,396492.682,NULL,Ergänzung,kijalizo,d,NA,NA,NA,jojo,NA,NA,2,NA,NA,NA,NA,NA,NA,NA,NA,NA,NA,NA,NA,NA,NA,NA,NA,NA,NA,NA
72657,"""Richtig""-Screen",canvas.Screen,3_0_2_0_1_0_1,NA,NA,skipped,NA,396484.7,NA,NA,396483.2,396485,2023-09-15T12:36:44Z,396492.682,NULL,Ergänzung,kijalizo,d,NA,NA,NA,NA,sdf,NA,2,NA,NA,NA,NA,NA,NA,NA,NA,NA,NA,NA,NA,NA,NA,NA,NA,NA,NA,NA
72657,"""Falsch""-Screen",canvas.Screen,3_0_2_0_1_0_2,NA,NA,timeout,4995.94,396486.3,396476.099,396492.682,401471.953,401472.9,2023-09-15T12:36:49Z,401488.622,NULL,Ergänzung,kijalizo,d,NA,NA,NA,NA,sdf,0,2,NA,NA,NA,NA,NA,NA,NA,NA,NA,NA,NA,NA,NA,NA,NA,NA,NA,NA,NA
72657,deep,flow.Sequence,3_0_2_0_1_0,NA,NA,completion,10408.011,391051.4,391047.206,391063.942,401471.953,401473.3,2023-09-15T12:36:49Z,401488.622,NULL,Ergänzung,kijalizo,d,NA,NA,NA,NA,sdf,NA,2,NA,NA,NA,NA,NA,NA,NA,NA,NA,NA,NA,NA,NA,NA,NA,NA,NA,NA,NA
72657,shallow,flow.Sequence,3_0_2_0_1_1,NA,NA,skipped,NA,401473.4,NA,NA,401471.953,401473.6,2023-09-15T12:36:49Z,401488.622,NULL,Ergänzung,kijalizo,d,NA,NA,NA,NA,sdf,NA,2,NA,NA,NA,NA,NA,NA,NA,NA,NA,NA,NA,NA,NA,NA,NA,NA,NA,NA,NA
72657,task,flow.Sequence,3_0_2_0_1,NA,NA,completion,10408.011,391051.3,391047.206,391063.942,401471.953,401473.8,2023-09-15T12:36:49Z,401488.622,NULL,Ergänzung,kijalizo,d,NA,NA,NA,NA,sdf,NA,2,NA,NA,NA,NA,NA,NA,NA,NA,NA,NA,NA,NA,NA,NA,NA,NA,NA,NA,NA
72657,deep,flow.Sequence,3_0_2_0_2_0,NA,NA,skipped,NA,401474,NA,NA,401471.953,401474.2,2023-09-15T12:36:49Z,401488.622,NULL,Gelegenheit,wakati,s,mchanganyiko,kipaumbele,kushuku,NA,sdf,NA,2,NA,NA,NA,NA,NA,NA,NA,NA,NA,NA,NA,NA,NA,NA,NA,NA,NA,NA,NA
72657,Shallow Question,html.Page,3_0_2_0_2_1_0,NA,NA,form submission,5874.4779999997,401474.4,401471.953,401488.622,407363.1,407363.5,2023-09-15T12:36:55Z,407367.039,NULL,Gelegenheit,wakati,s,mchanganyiko,kipaumbele,kushuku,wakati,NA,NA,2,NA,NA,NA,NA,NA,NA,NA,NA,NA,NA,NA,NA,NA,NA,NA,NA,NA,NA,NA
72657,"""Richtig""-Screen",canvas.Screen,3_0_2_0_2_1_1,NA,NA,timeout,4995.961,407366.4,407350.457,407367.039,412346.364,412347.5,2023-09-15T12:37:00Z,412363,NULL,Gelegenheit,wakati,s,mchanganyiko,kipaumbele,kushuku,NA,sdf,1,2,NA,NA,NA,NA,NA,NA,NA,NA,NA,NA,NA,NA,NA,NA,NA,NA,NA,NA,NA
72657,"""Falsch""-Screen",canvas.Screen,3_0_2_0_2_1_2,NA,NA,skipped,NA,412349.1,NA,NA,412346.364,412349.4,2023-09-15T12:37:00Z,412363,NULL,Gelegenheit,wakati,s,mchanganyiko,kipaumbele,kushuku,NA,sdf,NA,2,NA,NA,NA,NA,NA,NA,NA,NA,NA,NA,NA,NA,NA,NA,NA,NA,NA,NA,NA
72657,shallow,flow.Sequence,3_0_2_0_2_1,NA,NA,completion,10857.742,401474.3,401471.953,401488.622,412346.364,412349.7,2023-09-15T12:37:00Z,412363,NULL,Gelegenheit,wakati,s,mchanganyiko,kipaumbele,kushuku,NA,sdf,NA,2,NA,NA,NA,NA,NA,NA,NA,NA,NA,NA,NA,NA,NA,NA,NA,NA,NA,NA,NA
72657,task,flow.Sequence,3_0_2_0_2,NA,NA,completion,10857.742,401473.9,401471.953,401488.622,412346.364,412349.9,2023-09-15T12:37:00Z,412363,NULL,Gelegenheit,wakati,s,mchanganyiko,kipaumbele,kushuku,NA,sdf,NA,2,NA,NA,NA,NA,NA,NA,NA,NA,NA,NA,NA,NA,NA,NA,NA,NA,NA,NA,NA
72657,deep,flow.Sequence,3_0_2_0_3_0,NA,NA,skipped,NA,412350.1,NA,NA,412346.364,412350.3,2023-09-15T12:37:00Z,412363,NULL,Notfall,dharura,s,rairai,malalamiko,ahueni,NA,sdf,NA,2,NA,NA,NA,NA,NA,NA,NA,NA,NA,NA,NA,NA,NA,NA,NA,NA,NA,NA,NA
72657,Shallow Question,html.Page,3_0_2_0_3_1_0,NA,NA,form submission,4848.2999999989,412350.6,412346.364,412363,417211.3,417211.6,2023-09-15T12:37:05Z,417225.668,NULL,Notfall,dharura,s,rairai,malalamiko,ahueni,dharura,NA,NA,2,NA,NA,NA,NA,NA,NA,NA,NA,NA,NA,NA,NA,NA,NA,NA,NA,NA,NA,NA
72657,"""Richtig""-Screen",canvas.Screen,3_0_2_0_3_1_1,NA,NA,timeout,4995.907,417213.9,417209.011,417225.668,422204.884,422206.3,2023-09-15T12:37:10Z,422221.575,NULL,Notfall,dharura,s,rairai,malalamiko,ahueni,NA,sdf,1,2,NA,NA,NA,NA,NA,NA,NA,NA,NA,NA,NA,NA,NA,NA,NA,NA,NA,NA,NA
72657,"""Falsch""-Screen",canvas.Screen,3_0_2_0_3_1_2,NA,NA,skipped,NA,422208.7,NA,NA,422204.884,422208.9,2023-09-15T12:37:10Z,422221.575,NULL,Notfall,dharura,s,rairai,malalamiko,ahueni,NA,sdf,NA,2,NA,NA,NA,NA,NA,NA,NA,NA,NA,NA,NA,NA,NA,NA,NA,NA,NA,NA,NA
72657,shallow,flow.Sequence,3_0_2_0_3_1,NA,NA,completion,9841.884,412350.5,412346.364,412363,422204.884,422209.3,2023-09-15T12:37:10Z,422221.575,NULL,Notfall,dharura,s,rairai,malalamiko,ahueni,NA,sdf,NA,2,NA,NA,NA,NA,NA,NA,NA,NA,NA,NA,NA,NA,NA,NA,NA,NA,NA,NA,NA
72657,task,flow.Sequence,3_0_2_0_3,NA,NA,completion,9841.884,412350,412346.364,412363,422204.884,422209.4,2023-09-15T12:37:10Z,422221.575,NULL,Notfall,dharura,s,rairai,malalamiko,ahueni,NA,sdf,NA,2,NA,NA,NA,NA,NA,NA,NA,NA,NA,NA,NA,NA,NA,NA,NA,NA,NA,NA,NA
72657,deep,flow.Sequence,3_0_2_0_4_0,NA,NA,skipped,NA,422209.6,NA,NA,422204.884,422209.7,2023-09-15T12:37:10Z,422221.575,NULL,Vergnügen,kichekesho,s,dubwana,mpanuko,mtesaji,NA,sdf,NA,2,NA,NA,NA,NA,NA,NA,NA,NA,NA,NA,NA,NA,NA,NA,NA,NA,NA,NA,NA
72657,Shallow Question,html.Page,3_0_2_0_4_1_0,NA,NA,form submission,6767.925,422209.8,422204.884,422221.575,428989.5,428989.8,2023-09-15T12:37:17Z,428999.283,NULL,Vergnügen,kichekesho,s,dubwana,mpanuko,mtesaji,kichekesho,NA,NA,2,NA,NA,NA,NA,NA,NA,NA,NA,NA,NA,NA,NA,NA,NA,NA,NA,NA,NA,NA
72657,"""Richtig""-Screen",canvas.Screen,3_0_2_0_4_1_1,NA,NA,timeout,4995.993,428993.4,428982.598,428999.283,433978.519,433979.7,2023-09-15T12:37:22Z,433995.276,NULL,Vergnügen,kichekesho,s,dubwana,mpanuko,mtesaji,NA,sdf,1,2,NA,NA,NA,NA,NA,NA,NA,NA,NA,NA,NA,NA,NA,NA,NA,NA,NA,NA,NA
72657,"""Falsch""-Screen",canvas.Screen,3_0_2_0_4_1_2,NA,NA,skipped,NA,433981.8,NA,NA,433978.519,433982.1,2023-09-15T12:37:22Z,433995.276,NULL,Vergnügen,kichekesho,s,dubwana,mpanuko,mtesaji,NA,sdf,NA,2,NA,NA,NA,NA,NA,NA,NA,NA,NA,NA,NA,NA,NA,NA,NA,NA,NA,NA,NA
72657,shallow,flow.Sequence,3_0_2_0_4_1,NA,NA,completion,11756.944,422209.8,422204.884,422221.575,433978.519,433982.3,2023-09-15T12:37:22Z,433995.276,NULL,Vergnügen,kichekesho,s,dubwana,mpanuko,mtesaji,NA,sdf,NA,2,NA,NA,NA,NA,NA,NA,NA,NA,NA,NA,NA,NA,NA,NA,NA,NA,NA,NA,NA
72657,task,flow.Sequence,3_0_2_0_4,NA,NA,completion,11756.944,422209.5,422204.884,422221.575,433978.519,433982.5,2023-09-15T12:37:22Z,433995.276,NULL,Vergnügen,kichekesho,s,dubwana,mpanuko,mtesaji,NA,sdf,NA,2,NA,NA,NA,NA,NA,NA,NA,NA,NA,NA,NA,NA,NA,NA,NA,NA,NA,NA,NA
72657,Deep Question,html.Page,3_0_2_0_5_0_0,NA,NA,form submission,5858.224,433982.7,433978.519,433995.276,439853.5,439853.7,2023-09-15T12:37:28Z,439856.966,NULL,Widerstand,usulubu,d,NA,NA,NA,jojo,NA,NA,2,NA,NA,NA,NA,NA,NA,NA,NA,NA,NA,NA,NA,NA,NA,NA,NA,NA,NA,NA
72657,"""Richtig""-Screen",canvas.Screen,3_0_2_0_5_0_1,NA,NA,skipped,NA,439857.9,NA,NA,439853.5,439858.1,2023-09-15T12:37:28Z,439856.966,NULL,Widerstand,usulubu,d,NA,NA,NA,NA,sdf,NA,2,NA,NA,NA,NA,NA,NA,NA,NA,NA,NA,NA,NA,NA,NA,NA,NA,NA,NA,NA
72657,"""Falsch""-Screen",canvas.Screen,3_0_2_0_5_0_2,NA,NA,timeout,4995.903,439859,439840.35,439856.966,444836.249,444837.3,2023-09-15T12:37:33Z,444852.869,NULL,Widerstand,usulubu,d,NA,NA,NA,NA,sdf,0,2,NA,NA,NA,NA,NA,NA,NA,NA,NA,NA,NA,NA,NA,NA,NA,NA,NA,NA,NA
72657,deep,flow.Sequence,3_0_2_0_5_0,NA,NA,completion,10840.973,433982.6,433978.519,433995.276,444836.249,444837.7,2023-09-15T12:37:33Z,444852.869,NULL,Widerstand,usulubu,d,NA,NA,NA,NA,sdf,NA,2,NA,NA,NA,NA,NA,NA,NA,NA,NA,NA,NA,NA,NA,NA,NA,NA,NA,NA,NA
72657,shallow,flow.Sequence,3_0_2_0_5_1,NA,NA,skipped,NA,444837.8,NA,NA,444836.249,444838,2023-09-15T12:37:33Z,444852.869,NULL,Widerstand,usulubu,d,NA,NA,NA,NA,sdf,NA,2,NA,NA,NA,NA,NA,NA,NA,NA,NA,NA,NA,NA,NA,NA,NA,NA,NA,NA,NA
72657,task,flow.Sequence,3_0_2_0_5,NA,NA,completion,10840.973,433982.6,433978.519,433995.276,444836.249,444838.2,2023-09-15T12:37:33Z,444852.869,NULL,Widerstand,usulubu,d,NA,NA,NA,NA,sdf,NA,2,NA,NA,NA,NA,NA,NA,NA,NA,NA,NA,NA,NA,NA,NA,NA,NA,NA,NA,NA
72657,Deep Question,html.Page,3_0_2_0_6_0_0,NA,NA,form submission,3994.3309999992,444838.4,444836.249,444852.869,448847.2,448847.4,2023-09-15T12:37:37Z,448849.548,NULL,Wohlstand,mafanikio,d,NA,NA,NA,jojo,NA,NA,2,NA,NA,NA,NA,NA,NA,NA,NA,NA,NA,NA,NA,NA,NA,NA,NA,NA,NA,NA
72657,"""Richtig""-Screen",canvas.Screen,3_0_2_0_6_0_1,NA,NA,skipped,NA,448848.4,NA,NA,448847.2,448848.5,2023-09-15T12:37:37Z,448849.548,NULL,Wohlstand,mafanikio,d,NA,NA,NA,NA,sdf,NA,2,NA,NA,NA,NA,NA,NA,NA,NA,NA,NA,NA,NA,NA,NA,NA,NA,NA,NA,NA
72657,"""Falsch""-Screen",canvas.Screen,3_0_2_0_6_0_2,NA,NA,timeout,4996.088,448849.3,448833.028,448849.548,453829.197,453831,2023-09-15T12:37:42Z,453845.636,NULL,Wohlstand,mafanikio,d,NA,NA,NA,NA,sdf,0,2,NA,NA,NA,NA,NA,NA,NA,NA,NA,NA,NA,NA,NA,NA,NA,NA,NA,NA,NA
72657,deep,flow.Sequence,3_0_2_0_6_0,NA,NA,completion,8976.328,444838.4,444836.249,444852.869,453829.197,453831.7,2023-09-15T12:37:42Z,453845.636,NULL,Wohlstand,mafanikio,d,NA,NA,NA,NA,sdf,NA,2,NA,NA,NA,NA,NA,NA,NA,NA,NA,NA,NA,NA,NA,NA,NA,NA,NA,NA,NA
72657,shallow,flow.Sequence,3_0_2_0_6_1,NA,NA,skipped,NA,453832.1,NA,NA,453829.197,453832.6,2023-09-15T12:37:42Z,453845.636,NULL,Wohlstand,mafanikio,d,NA,NA,NA,NA,sdf,NA,2,NA,NA,NA,NA,NA,NA,NA,NA,NA,NA,NA,NA,NA,NA,NA,NA,NA,NA,NA
72657,task,flow.Sequence,3_0_2_0_6,NA,NA,completion,8976.328,444838.3,444836.249,444852.869,453829.197,453832.9,2023-09-15T12:37:42Z,453845.636,NULL,Wohlstand,mafanikio,d,NA,NA,NA,NA,sdf,NA,2,NA,NA,NA,NA,NA,NA,NA,NA,NA,NA,NA,NA,NA,NA,NA,NA,NA,NA,NA
72657,Deep Question,html.Page,3_0_2_0_7_0_0,NA,NA,form submission,4057.5639999993,453833.2,453829.197,453845.636,457903.2,457903.5,2023-09-15T12:37:46Z,457908.768,NULL,Verstand,ufahamivu,d,NA,NA,NA,jojo,NA,NA,2,NA,NA,NA,NA,NA,NA,NA,NA,NA,NA,NA,NA,NA,NA,NA,NA,NA,NA,NA
72657,"""Richtig""-Screen",canvas.Screen,3_0_2_0_7_0_1,NA,NA,skipped,NA,457904.3,NA,NA,457903.2,457904.5,2023-09-15T12:37:46Z,457908.768,NULL,Verstand,ufahamivu,d,NA,NA,NA,NA,sdf,NA,2,NA,NA,NA,NA,NA,NA,NA,NA,NA,NA,NA,NA,NA,NA,NA,NA,NA,NA,NA
72657,"""Falsch""-Screen",canvas.Screen,3_0_2_0_7_0_2,NA,NA,timeout,4995.974,457905.2,457892.423,457908.768,462888.463,462890,2023-09-15T12:37:51Z,462904.742,NULL,Verstand,ufahamivu,d,NA,NA,NA,NA,sdf,0,2,NA,NA,NA,NA,NA,NA,NA,NA,NA,NA,NA,NA,NA,NA,NA,NA,NA,NA,NA
72657,deep,flow.Sequence,3_0_2_0_7_0,NA,NA,completion,9042.827,453833.1,453829.197,453845.636,462888.463,462890.7,2023-09-15T12:37:51Z,462904.742,NULL,Verstand,ufahamivu,d,NA,NA,NA,NA,sdf,NA,2,NA,NA,NA,NA,NA,NA,NA,NA,NA,NA,NA,NA,NA,NA,NA,NA,NA,NA,NA
72657,shallow,flow.Sequence,3_0_2_0_7_1,NA,NA,skipped,NA,462890.8,NA,NA,462888.463,462891,2023-09-15T12:37:51Z,462904.742,NULL,Verstand,ufahamivu,d,NA,NA,NA,NA,sdf,NA,2,NA,NA,NA,NA,NA,NA,NA,NA,NA,NA,NA,NA,NA,NA,NA,NA,NA,NA,NA
72657,task,flow.Sequence,3_0_2_0_7,NA,NA,completion,9042.827,453833.1,453829.197,453845.636,462888.463,462891.4,2023-09-15T12:37:51Z,462904.742,NULL,Verstand,ufahamivu,d,NA,NA,NA,NA,sdf,NA,2,NA,NA,NA,NA,NA,NA,NA,NA,NA,NA,NA,NA,NA,NA,NA,NA,NA,NA,NA
72657,block,flow.Loop,3_0_2_0,NA,NA,completion,81616.611,381270.3,381188.612,381271.852,462888.463,462891.9,2023-09-15T12:37:51Z,462904.742,NULL,NA,NA,NA,NA,NA,NA,NA,sdf,NA,2,NA,NA,NA,NA,NA,NA,NA,NA,NA,NA,NA,NA,NA,NA,NA,NA,NA,NA,NA
72657,weiter,canvas.Screen,3_0_2_1,sdf,keypress(Space),response,1511.0579999989,462892.1,462888.463,462904.742,464415.8,464417.6,2023-09-15T12:37:52Z,464520.01,NULL,NA,NA,NA,NA,NA,NA,NA,sdf,NA,2,NA,NA,NA,NA,NA,NA,NA,NA,NA,NA,NA,NA,NA,NA,NA,NA,NA,NA,NA
72657,check continue,flow.Sequence,3_0_2,NA,NA,completion,83143.947999999,381270.2,381188.612,381271.852,464415.8,464418,2023-09-15T12:37:52Z,464520.01,NULL,NA,NA,NA,NA,NA,NA,NA,sdf,NA,2,NA,NA,NA,NA,NA,NA,NA,NA,NA,NA,NA,NA,NA,NA,NA,NA,NA,NA,NA
72657,deep,flow.Sequence,3_0_3_0_0_0,NA,NA,skipped,NA,464498.8,NA,NA,464415.8,464499.1,2023-09-15T12:37:52Z,464520.01,NULL,Ausschluss,kutengwa,s,ununuzi,taratibu,madeni,NA,qt,NA,3,NA,NA,NA,NA,NA,NA,NA,NA,NA,NA,NA,NA,NA,NA,NA,NA,NA,NA,NA
72657,Shallow Question,html.Page,3_0_3_0_0_1_0,NA,NA,form submission,4789.1899999992,464499.4,464403.807,464520.01,469309.2,469309.6,2023-09-15T12:37:57Z,469316.052,NULL,Ausschluss,kutengwa,s,ununuzi,taratibu,madeni,kutengwa,NA,NA,3,NA,NA,NA,NA,NA,NA,NA,NA,NA,NA,NA,NA,NA,NA,NA,NA,NA,NA,NA
72657,"""Richtig""-Screen",canvas.Screen,3_0_3_0_0_1_1,NA,NA,timeout,4995.974,469310.3,469299.669,469316.052,474295.614,474297,2023-09-15T12:38:02Z,474312.026,NULL,Ausschluss,kutengwa,s,ununuzi,taratibu,madeni,NA,qt,1,3,NA,NA,NA,NA,NA,NA,NA,NA,NA,NA,NA,NA,NA,NA,NA,NA,NA,NA,NA
72657,"""Falsch""-Screen",canvas.Screen,3_0_3_0_0_1_2,NA,NA,skipped,NA,474298.8,NA,NA,474295.614,474299.4,2023-09-15T12:38:02Z,474312.026,NULL,Ausschluss,kutengwa,s,ununuzi,taratibu,madeni,NA,qt,NA,3,NA,NA,NA,NA,NA,NA,NA,NA,NA,NA,NA,NA,NA,NA,NA,NA,NA,NA,NA
72657,shallow,flow.Sequence,3_0_3_0_0_1,NA,NA,completion,9775.604,464499.3,464403.807,464520.01,474295.614,474299.8,2023-09-15T12:38:02Z,474312.026,NULL,Ausschluss,kutengwa,s,ununuzi,taratibu,madeni,NA,qt,NA,3,NA,NA,NA,NA,NA,NA,NA,NA,NA,NA,NA,NA,NA,NA,NA,NA,NA,NA,NA
72657,task,flow.Sequence,3_0_3_0_0,NA,NA,completion,9775.604,464498.7,464403.807,464520.01,474295.614,474300.1,2023-09-15T12:38:02Z,474312.026,NULL,Ausschluss,kutengwa,s,ununuzi,taratibu,madeni,NA,qt,NA,3,NA,NA,NA,NA,NA,NA,NA,NA,NA,NA,NA,NA,NA,NA,NA,NA,NA,NA,NA
72657,Deep Question,html.Page,3_0_3_0_1_0_0,NA,NA,form submission,5107.474,474300.3,474295.614,474312.026,479419.5,479419.7,2023-09-15T12:38:07Z,479424.407,NULL,Widerstand,usulubu,d,NA,NA,NA,jojo,NA,NA,3,NA,NA,NA,NA,NA,NA,NA,NA,NA,NA,NA,NA,NA,NA,NA,NA,NA,NA,NA
72657,"""Richtig""-Screen",canvas.Screen,3_0_3_0_1_0_1,NA,NA,skipped,NA,479422,NA,NA,479419.5,479422.1,2023-09-15T12:38:07Z,479424.407,NULL,Widerstand,usulubu,d,NA,NA,NA,NA,qt,NA,3,NA,NA,NA,NA,NA,NA,NA,NA,NA,NA,NA,NA,NA,NA,NA,NA,NA,NA,NA
72657,"""Falsch""-Screen",canvas.Screen,3_0_3_0_1_0_2,NA,NA,timeout,4996.05,479422.9,479407.929,479424.407,484404.053,484405.4,2023-09-15T12:38:12Z,484420.457,NULL,Widerstand,usulubu,d,NA,NA,NA,NA,qt,0,3,NA,NA,NA,NA,NA,NA,NA,NA,NA,NA,NA,NA,NA,NA,NA,NA,NA,NA,NA
72657,deep,flow.Sequence,3_0_3_0_1_0,NA,NA,completion,10092.027,474300.3,474295.614,474312.026,484404.053,484405.9,2023-09-15T12:38:12Z,484420.457,NULL,Widerstand,usulubu,d,NA,NA,NA,NA,qt,NA,3,NA,NA,NA,NA,NA,NA,NA,NA,NA,NA,NA,NA,NA,NA,NA,NA,NA,NA,NA
72657,shallow,flow.Sequence,3_0_3_0_1_1,NA,NA,skipped,NA,484406,NA,NA,484404.053,484406.1,2023-09-15T12:38:12Z,484420.457,NULL,Widerstand,usulubu,d,NA,NA,NA,NA,qt,NA,3,NA,NA,NA,NA,NA,NA,NA,NA,NA,NA,NA,NA,NA,NA,NA,NA,NA,NA,NA
72657,task,flow.Sequence,3_0_3_0_1,NA,NA,completion,10092.027,474300.2,474295.614,474312.026,484404.053,484406.4,2023-09-15T12:38:12Z,484420.457,NULL,Widerstand,usulubu,d,NA,NA,NA,NA,qt,NA,3,NA,NA,NA,NA,NA,NA,NA,NA,NA,NA,NA,NA,NA,NA,NA,NA,NA,NA,NA
72657,Deep Question,html.Page,3_0_3_0_2_0_0,NA,NA,form submission,5379.4429999985005,484406.6,484404.053,484420.457,489799.9,489800.1,2023-09-15T12:38:17Z,489826.291,NULL,Verstand,ufahamivu,d,NA,NA,NA,jojo,NA,NA,3,NA,NA,NA,NA,NA,NA,NA,NA,NA,NA,NA,NA,NA,NA,NA,NA,NA,NA,NA
72657,"""Richtig""-Screen",canvas.Screen,3_0_3_0_2_0_1,NA,NA,skipped,NA,489802.4,NA,NA,489799.9,489802.5,2023-09-15T12:38:17Z,489826.291,NULL,Verstand,ufahamivu,d,NA,NA,NA,NA,qt,NA,3,NA,NA,NA,NA,NA,NA,NA,NA,NA,NA,NA,NA,NA,NA,NA,NA,NA,NA,NA
72657,"""Falsch""-Screen",canvas.Screen,3_0_3_0_2_0_2,NA,NA,timeout,5002.1079999999,489803.3,489782.953,489826.291,494812.177,494813.8,2023-09-15T12:38:22Z,494828.399,NULL,Verstand,ufahamivu,d,NA,NA,NA,NA,qt,0,3,NA,NA,NA,NA,NA,NA,NA,NA,NA,NA,NA,NA,NA,NA,NA,NA,NA,NA,NA
72657,deep,flow.Sequence,3_0_3_0_2_0,NA,NA,completion,10391.72,484406.6,484404.053,484420.457,494812.177,494814.3,2023-09-15T12:38:22Z,494828.399,NULL,Verstand,ufahamivu,d,NA,NA,NA,NA,qt,NA,3,NA,NA,NA,NA,NA,NA,NA,NA,NA,NA,NA,NA,NA,NA,NA,NA,NA,NA,NA
72657,shallow,flow.Sequence,3_0_3_0_2_1,NA,NA,skipped,NA,494814.4,NA,NA,494812.177,494814.6,2023-09-15T12:38:22Z,494828.399,NULL,Verstand,ufahamivu,d,NA,NA,NA,NA,qt,NA,3,NA,NA,NA,NA,NA,NA,NA,NA,NA,NA,NA,NA,NA,NA,NA,NA,NA,NA,NA
72657,task,flow.Sequence,3_0_3_0_2,NA,NA,completion,10391.72,484406.5,484404.053,484420.457,494812.177,494814.9,2023-09-15T12:38:22Z,494828.399,NULL,Verstand,ufahamivu,d,NA,NA,NA,NA,qt,NA,3,NA,NA,NA,NA,NA,NA,NA,NA,NA,NA,NA,NA,NA,NA,NA,NA,NA,NA,NA
72657,deep,flow.Sequence,3_0_3_0_3_0,NA,NA,skipped,NA,494815.9,NA,NA,494812.177,494816.4,2023-09-15T12:38:22Z,494828.399,NULL,Gelegenheit,wakati,s,mchanganyiko,kipaumbele,kushuku,NA,qt,NA,3,NA,NA,NA,NA,NA,NA,NA,NA,NA,NA,NA,NA,NA,NA,NA,NA,NA,NA,NA
72657,Shallow Question,html.Page,3_0_3_0_3_1_0,NA,NA,form submission,11728.800999999,494816.7,494812.177,494828.399,506557.2,506557.5,2023-09-15T12:38:34Z,506568.831,NULL,Gelegenheit,wakati,s,mchanganyiko,kipaumbele,kushuku,wakati,NA,NA,3,NA,NA,NA,NA,NA,NA,NA,NA,NA,NA,NA,NA,NA,NA,NA,NA,NA,NA,NA
72657,"""Richtig""-Screen",canvas.Screen,3_0_3_0_3_1_1,NA,NA,timeout,4995.84,506559.9,506552.46,506568.831,511548.394,511549.9,2023-09-15T12:38:39Z,511564.671,NULL,Gelegenheit,wakati,s,mchanganyiko,kipaumbele,kushuku,NA,qt,1,3,NA,NA,NA,NA,NA,NA,NA,NA,NA,NA,NA,NA,NA,NA,NA,NA,NA,NA,NA
72657,"""Falsch""-Screen",canvas.Screen,3_0_3_0_3_1_2,NA,NA,skipped,NA,511551.7,NA,NA,511548.394,511552,2023-09-15T12:38:39Z,511564.671,NULL,Gelegenheit,wakati,s,mchanganyiko,kipaumbele,kushuku,NA,qt,NA,3,NA,NA,NA,NA,NA,NA,NA,NA,NA,NA,NA,NA,NA,NA,NA,NA,NA,NA,NA
72657,shallow,flow.Sequence,3_0_3_0_3_1,NA,NA,completion,16719.995,494816.5,494812.177,494828.399,511548.394,511552.4,2023-09-15T12:38:39Z,511564.671,NULL,Gelegenheit,wakati,s,mchanganyiko,kipaumbele,kushuku,NA,qt,NA,3,NA,NA,NA,NA,NA,NA,NA,NA,NA,NA,NA,NA,NA,NA,NA,NA,NA,NA,NA
72657,task,flow.Sequence,3_0_3_0_3,NA,NA,completion,16719.995,494815,494812.177,494828.399,511548.394,511552.6,2023-09-15T12:38:39Z,511564.671,NULL,Gelegenheit,wakati,s,mchanganyiko,kipaumbele,kushuku,NA,qt,NA,3,NA,NA,NA,NA,NA,NA,NA,NA,NA,NA,NA,NA,NA,NA,NA,NA,NA,NA,NA
72657,deep,flow.Sequence,3_0_3_0_4_0,NA,NA,skipped,NA,511552.9,NA,NA,511548.394,511553,2023-09-15T12:38:39Z,511564.671,NULL,Notfall,dharura,s,rairai,malalamiko,ahueni,NA,qt,NA,3,NA,NA,NA,NA,NA,NA,NA,NA,NA,NA,NA,NA,NA,NA,NA,NA,NA,NA,NA
72657,Shallow Question,html.Page,3_0_3_0_4_1_0,NA,NA,form submission,7690.6289999989,511553.2,511548.394,511564.671,519255.3,519255.5,2023-09-15T12:38:47Z,519258.238,NULL,Notfall,dharura,s,rairai,malalamiko,ahueni,dharura,NA,NA,3,NA,NA,NA,NA,NA,NA,NA,NA,NA,NA,NA,NA,NA,NA,NA,NA,NA,NA,NA
72657,"""Richtig""-Screen",canvas.Screen,3_0_3_0_4_1_1,NA,NA,timeout,4996.03,519257.6,519241.98,519258.238,524237.962,524239.5,2023-09-15T12:38:52Z,524254.268,NULL,Notfall,dharura,s,rairai,malalamiko,ahueni,NA,qt,1,3,NA,NA,NA,NA,NA,NA,NA,NA,NA,NA,NA,NA,NA,NA,NA,NA,NA,NA,NA
72657,"""Falsch""-Screen",canvas.Screen,3_0_3_0_4_1_2,NA,NA,skipped,NA,524241.1,NA,NA,524237.962,524241.3,2023-09-15T12:38:52Z,524254.268,NULL,Notfall,dharura,s,rairai,malalamiko,ahueni,NA,qt,NA,3,NA,NA,NA,NA,NA,NA,NA,NA,NA,NA,NA,NA,NA,NA,NA,NA,NA,NA,NA
72657,shallow,flow.Sequence,3_0_3_0_4_1,NA,NA,completion,12673.291,511553.2,511548.394,511564.671,524237.962,524241.7,2023-09-15T12:38:52Z,524254.268,NULL,Notfall,dharura,s,rairai,malalamiko,ahueni,NA,qt,NA,3,NA,NA,NA,NA,NA,NA,NA,NA,NA,NA,NA,NA,NA,NA,NA,NA,NA,NA,NA
72657,task,flow.Sequence,3_0_3_0_4,NA,NA,completion,12673.291,511552.8,511548.394,511564.671,524237.962,524242,2023-09-15T12:38:52Z,524254.268,NULL,Notfall,dharura,s,rairai,malalamiko,ahueni,NA,qt,NA,3,NA,NA,NA,NA,NA,NA,NA,NA,NA,NA,NA,NA,NA,NA,NA,NA,NA,NA,NA
72657,Deep Question,html.Page,3_0_3_0_5_0_0,NA,NA,form submission,8671.0319999989,524242.2,524237.962,524254.268,532925.3,532925.6,2023-09-15T12:39:01Z,532930.332,NULL,Ergänzung,kijalizo,d,NA,NA,NA,ukululu,NA,NA,3,NA,NA,NA,NA,NA,NA,NA,NA,NA,NA,NA,NA,NA,NA,NA,NA,NA,NA,NA
72657,"""Richtig""-Screen",canvas.Screen,3_0_3_0_5_0_1,NA,NA,skipped,NA,532927.9,NA,NA,532925.3,532928.1,2023-09-15T12:39:01Z,532930.332,NULL,Ergänzung,kijalizo,d,NA,NA,NA,NA,qt,NA,3,NA,NA,NA,NA,NA,NA,NA,NA,NA,NA,NA,NA,NA,NA,NA,NA,NA,NA,NA
72657,"""Falsch""-Screen",canvas.Screen,3_0_3_0_5_0_2,NA,NA,timeout,4996.0889999999,532928.8,532913.925,532930.332,537909.868,537911.6,2023-09-15T12:39:06Z,537926.421,NULL,Ergänzung,kijalizo,d,NA,NA,NA,NA,qt,0,3,NA,NA,NA,NA,NA,NA,NA,NA,NA,NA,NA,NA,NA,NA,NA,NA,NA,NA,NA
72657,deep,flow.Sequence,3_0_3_0_5_0,NA,NA,completion,13655.6,524242.1,524237.962,524254.268,537909.868,537912.2,2023-09-15T12:39:06Z,537926.421,NULL,Ergänzung,kijalizo,d,NA,NA,NA,NA,qt,NA,3,NA,NA,NA,NA,NA,NA,NA,NA,NA,NA,NA,NA,NA,NA,NA,NA,NA,NA,NA
72657,shallow,flow.Sequence,3_0_3_0_5_1,NA,NA,skipped,NA,537912.5,NA,NA,537909.868,537912.7,2023-09-15T12:39:06Z,537926.421,NULL,Ergänzung,kijalizo,d,NA,NA,NA,NA,qt,NA,3,NA,NA,NA,NA,NA,NA,NA,NA,NA,NA,NA,NA,NA,NA,NA,NA,NA,NA,NA
72657,task,flow.Sequence,3_0_3_0_5,NA,NA,completion,13655.6,524242,524237.962,524254.268,537909.868,537913,2023-09-15T12:39:06Z,537926.421,NULL,Ergänzung,kijalizo,d,NA,NA,NA,NA,qt,NA,3,NA,NA,NA,NA,NA,NA,NA,NA,NA,NA,NA,NA,NA,NA,NA,NA,NA,NA,NA
72657,deep,flow.Sequence,3_0_3_0_6_0,NA,NA,skipped,NA,537913.1,NA,NA,537909.868,537913.6,2023-09-15T12:39:06Z,537926.421,NULL,Vergnügen,kichekesho,s,dubwana,mpanuko,mtesaji,NA,qt,NA,3,NA,NA,NA,NA,NA,NA,NA,NA,NA,NA,NA,NA,NA,NA,NA,NA,NA,NA,NA
72657,Shallow Question,html.Page,3_0_3_0_6_1_0,NA,NA,form submission,7111.3789999989,537913.8,537909.868,537926.421,545037.8,545038.1,2023-09-15T12:39:13Z,545064.126,NULL,Vergnügen,kichekesho,s,dubwana,mpanuko,mtesaji,kichekesho,NA,NA,3,NA,NA,NA,NA,NA,NA,NA,NA,NA,NA,NA,NA,NA,NA,NA,NA,NA,NA,NA
72657,"""Richtig""-Screen",canvas.Screen,3_0_3_0_6_1_1,NA,NA,timeout,5002.174,545040.3,545020.785,545064.126,550049.926,550051.5,2023-09-15T12:39:18Z,550066.3,NULL,Vergnügen,kichekesho,s,dubwana,mpanuko,mtesaji,NA,qt,1,3,NA,NA,NA,NA,NA,NA,NA,NA,NA,NA,NA,NA,NA,NA,NA,NA,NA,NA,NA
72657,"""Falsch""-Screen",canvas.Screen,3_0_3_0_6_1_2,NA,NA,skipped,NA,550053.4,NA,NA,550049.926,550053.7,2023-09-15T12:39:18Z,550066.3,NULL,Vergnügen,kichekesho,s,dubwana,mpanuko,mtesaji,NA,qt,NA,3,NA,NA,NA,NA,NA,NA,NA,NA,NA,NA,NA,NA,NA,NA,NA,NA,NA,NA,NA
72657,shallow,flow.Sequence,3_0_3_0_6_1,NA,NA,completion,12123.505,537913.7,537909.868,537926.421,550049.926,550054,2023-09-15T12:39:18Z,550066.3,NULL,Vergnügen,kichekesho,s,dubwana,mpanuko,mtesaji,NA,qt,NA,3,NA,NA,NA,NA,NA,NA,NA,NA,NA,NA,NA,NA,NA,NA,NA,NA,NA,NA,NA
72657,task,flow.Sequence,3_0_3_0_6,NA,NA,completion,12123.505,537913.1,537909.868,537926.421,550049.926,550054.2,2023-09-15T12:39:18Z,550066.3,NULL,Vergnügen,kichekesho,s,dubwana,mpanuko,mtesaji,NA,qt,NA,3,NA,NA,NA,NA,NA,NA,NA,NA,NA,NA,NA,NA,NA,NA,NA,NA,NA,NA,NA
72657,Deep Question,html.Page,3_0_3_0_7_0_0,NA,NA,form submission,16044.899999999,550054.4,550049.926,550066.3,566111.2,566111.4,2023-09-15T12:39:34Z,566119.639,NULL,Wohlstand,mafanikio,d,NA,NA,NA,mefankaji,NA,NA,3,NA,NA,NA,NA,NA,NA,NA,NA,NA,NA,NA,NA,NA,NA,NA,NA,NA,NA,NA
72657,"""Richtig""-Screen",canvas.Screen,3_0_3_0_7_0_1,NA,NA,skipped,NA,566113.8,NA,NA,566111.2,566114,2023-09-15T12:39:34Z,566119.639,NULL,Wohlstand,mafanikio,d,NA,NA,NA,NA,qt,NA,3,NA,NA,NA,NA,NA,NA,NA,NA,NA,NA,NA,NA,NA,NA,NA,NA,NA,NA,NA
72657,"""Falsch""-Screen",canvas.Screen,3_0_3_0_7_0_2,NA,NA,timeout,4995.986,566114.8,566103.402,566119.639,571099.371,571100.8,2023-09-15T12:39:39Z,571115.625,NULL,Wohlstand,mafanikio,d,NA,NA,NA,NA,qt,0,3,NA,NA,NA,NA,NA,NA,NA,NA,NA,NA,NA,NA,NA,NA,NA,NA,NA,NA,NA
72657,deep,flow.Sequence,3_0_3_0_7_0,NA,NA,completion,21033.071,550054.4,550049.926,550066.3,571099.371,571101.1,2023-09-15T12:39:39Z,571115.625,NULL,Wohlstand,mafanikio,d,NA,NA,NA,NA,qt,NA,3,NA,NA,NA,NA,NA,NA,NA,NA,NA,NA,NA,NA,NA,NA,NA,NA,NA,NA,NA
72657,shallow,flow.Sequence,3_0_3_0_7_1,NA,NA,skipped,NA,571101.3,NA,NA,571099.371,571101.5,2023-09-15T12:39:39Z,571115.625,NULL,Wohlstand,mafanikio,d,NA,NA,NA,NA,qt,NA,3,NA,NA,NA,NA,NA,NA,NA,NA,NA,NA,NA,NA,NA,NA,NA,NA,NA,NA,NA
72657,task,flow.Sequence,3_0_3_0_7,NA,NA,completion,21033.071,550054.3,550049.926,550066.3,571099.371,571101.8,2023-09-15T12:39:39Z,571115.625,NULL,Wohlstand,mafanikio,d,NA,NA,NA,NA,qt,NA,3,NA,NA,NA,NA,NA,NA,NA,NA,NA,NA,NA,NA,NA,NA,NA,NA,NA,NA,NA
72657,block,flow.Loop,3_0_3_0,NA,NA,completion,106579.361,464498.7,464403.807,464520.01,571099.371,571102,2023-09-15T12:39:39Z,571115.625,NULL,NA,NA,NA,NA,NA,NA,NA,qt,NA,3,NA,NA,NA,NA,NA,NA,NA,NA,NA,NA,NA,NA,NA,NA,NA,NA,NA,NA,NA
72657,weiter,canvas.Screen,3_0_3_1,sdf,keypress(Space),response,1548.5749999993,571102.2,571099.371,571115.625,572664.2,572666.9,2023-09-15T12:39:40Z,572764.241,NULL,NA,NA,NA,NA,NA,NA,NA,qt,NA,3,NA,NA,NA,NA,NA,NA,NA,NA,NA,NA,NA,NA,NA,NA,NA,NA,NA,NA,NA
72657,check continue,flow.Sequence,3_0_3,NA,NA,completion,108144.19,464498.5,464403.807,464520.01,572664.2,572667.4,2023-09-15T12:39:40Z,572764.241,NULL,NA,NA,NA,NA,NA,NA,NA,qt,NA,3,NA,NA,NA,NA,NA,NA,NA,NA,NA,NA,NA,NA,NA,NA,NA,NA,NA,NA,NA
72657,deep,flow.Sequence,3_0_4_0_0_0,NA,NA,skipped,NA,572772.2,NA,NA,572664.2,572772.5,2023-09-15T12:39:40Z,572764.241,NULL,Ausschluss,kutengwa,s,ununuzi,taratibu,madeni,NA,sd,NA,4,NA,NA,NA,NA,NA,NA,NA,NA,NA,NA,NA,NA,NA,NA,NA,NA,NA,NA,NA
72657,Shallow Question,html.Page,3_0_4_0_0_1_0,NA,NA,form submission,3554.759,572772.9,572664.448,572764.241,576319,576319.3,2023-09-15T12:39:44Z,576328.064,NULL,Ausschluss,kutengwa,s,ununuzi,taratibu,madeni,kutengwa,NA,NA,4,NA,NA,NA,NA,NA,NA,NA,NA,NA,NA,NA,NA,NA,NA,NA,NA,NA,NA,NA
72657,"""Richtig""-Screen",canvas.Screen,3_0_4_0_0_1_1,NA,NA,timeout,4996.0919999999,576320.2,576311.708,576328.064,581307.596,581309,2023-09-15T12:39:49Z,581324.156,NULL,Ausschluss,kutengwa,s,ununuzi,taratibu,madeni,NA,sd,1,4,NA,NA,NA,NA,NA,NA,NA,NA,NA,NA,NA,NA,NA,NA,NA,NA,NA,NA,NA
72657,"""Falsch""-Screen",canvas.Screen,3_0_4_0_0_1_2,NA,NA,skipped,NA,581311,NA,NA,581307.596,581311.3,2023-09-15T12:39:49Z,581324.156,NULL,Ausschluss,kutengwa,s,ununuzi,taratibu,madeni,NA,sd,NA,4,NA,NA,NA,NA,NA,NA,NA,NA,NA,NA,NA,NA,NA,NA,NA,NA,NA,NA,NA
72657,shallow,flow.Sequence,3_0_4_0_0_1,NA,NA,completion,8543.355,572772.8,572664.448,572764.241,581307.596,581311.6,2023-09-15T12:39:49Z,581324.156,NULL,Ausschluss,kutengwa,s,ununuzi,taratibu,madeni,NA,sd,NA,4,NA,NA,NA,NA,NA,NA,NA,NA,NA,NA,NA,NA,NA,NA,NA,NA,NA,NA,NA
72657,task,flow.Sequence,3_0_4_0_0,NA,NA,completion,8543.355,572772.1,572664.448,572764.241,581307.596,581311.9,2023-09-15T12:39:49Z,581324.156,NULL,Ausschluss,kutengwa,s,ununuzi,taratibu,madeni,NA,sd,NA,4,NA,NA,NA,NA,NA,NA,NA,NA,NA,NA,NA,NA,NA,NA,NA,NA,NA,NA,NA
72657,deep,flow.Sequence,3_0_4_0_1_0,NA,NA,skipped,NA,581312.2,NA,NA,581307.596,581312.3,2023-09-15T12:39:49Z,581324.156,NULL,Gelegenheit,wakati,s,mchanganyiko,kipaumbele,kushuku,NA,sd,NA,4,NA,NA,NA,NA,NA,NA,NA,NA,NA,NA,NA,NA,NA,NA,NA,NA,NA,NA,NA
72657,Shallow Question,html.Page,3_0_4_0_1_1_0,NA,NA,form submission,4633.0439999993,581312.5,581307.596,581324.156,585957.2,585957.5,2023-09-15T12:39:54Z,585970.113,NULL,Gelegenheit,wakati,s,mchanganyiko,kipaumbele,kushuku,wakati,NA,NA,4,NA,NA,NA,NA,NA,NA,NA,NA,NA,NA,NA,NA,NA,NA,NA,NA,NA,NA,NA
72657,"""Richtig""-Screen",canvas.Screen,3_0_4_0_1_1_1,NA,NA,timeout,4995.8369999999,585958.2,585953.705,585970.113,590949.235,590950.3,2023-09-15T12:39:59Z,590965.95,NULL,Gelegenheit,wakati,s,mchanganyiko,kipaumbele,kushuku,NA,sd,1,4,NA,NA,NA,NA,NA,NA,NA,NA,NA,NA,NA,NA,NA,NA,NA,NA,NA,NA,NA
72657,"""Falsch""-Screen",canvas.Screen,3_0_4_0_1_1_2,NA,NA,skipped,NA,590952.6,NA,NA,590949.235,590953,2023-09-15T12:39:59Z,590965.95,NULL,Gelegenheit,wakati,s,mchanganyiko,kipaumbele,kushuku,NA,sd,NA,4,NA,NA,NA,NA,NA,NA,NA,NA,NA,NA,NA,NA,NA,NA,NA,NA,NA,NA,NA
72657,shallow,flow.Sequence,3_0_4_0_1_1,NA,NA,completion,9625.079,581312.4,581307.596,581324.156,590949.235,590953.4,2023-09-15T12:39:59Z,590965.95,NULL,Gelegenheit,wakati,s,mchanganyiko,kipaumbele,kushuku,NA,sd,NA,4,NA,NA,NA,NA,NA,NA,NA,NA,NA,NA,NA,NA,NA,NA,NA,NA,NA,NA,NA
72657,task,flow.Sequence,3_0_4_0_1,NA,NA,completion,9625.079,581312,581307.596,581324.156,590949.235,590953.7,2023-09-15T12:39:59Z,590965.95,NULL,Gelegenheit,wakati,s,mchanganyiko,kipaumbele,kushuku,NA,sd,NA,4,NA,NA,NA,NA,NA,NA,NA,NA,NA,NA,NA,NA,NA,NA,NA,NA,NA,NA,NA
72657,Deep Question,html.Page,3_0_4_0_2_0_0,NA,NA,form submission,9233.1499999997,590954.1,590949.235,590965.95,600199.1,600199.2,2023-09-15T12:40:08Z,600208.253,NULL,Wohlstand,mafanikio,d,NA,NA,NA,mafakanji,NA,NA,4,NA,NA,NA,NA,NA,NA,NA,NA,NA,NA,NA,NA,NA,NA,NA,NA,NA,NA,NA
72657,"""Richtig""-Screen",canvas.Screen,3_0_4_0_2_0_1,NA,NA,skipped,NA,600201.5,NA,NA,600199.1,600201.7,2023-09-15T12:40:08Z,600208.253,NULL,Wohlstand,mafanikio,d,NA,NA,NA,NA,sd,NA,4,NA,NA,NA,NA,NA,NA,NA,NA,NA,NA,NA,NA,NA,NA,NA,NA,NA,NA,NA
72657,"""Falsch""-Screen",canvas.Screen,3_0_4_0_2_0_2,NA,NA,timeout,4996.025,600202.4,600191.983,600208.253,605187.926,605189.5,2023-09-15T12:40:13Z,605204.278,NULL,Wohlstand,mafanikio,d,NA,NA,NA,NA,sd,0,4,NA,NA,NA,NA,NA,NA,NA,NA,NA,NA,NA,NA,NA,NA,NA,NA,NA,NA,NA
72657,deep,flow.Sequence,3_0_4_0_2_0,NA,NA,completion,14221.976,590954,590949.235,590965.95,605187.926,605189.9,2023-09-15T12:40:13Z,605204.278,NULL,Wohlstand,mafanikio,d,NA,NA,NA,NA,sd,NA,4,NA,NA,NA,NA,NA,NA,NA,NA,NA,NA,NA,NA,NA,NA,NA,NA,NA,NA,NA
72657,shallow,flow.Sequence,3_0_4_0_2_1,NA,NA,skipped,NA,605190.1,NA,NA,605187.926,605190.3,2023-09-15T12:40:13Z,605204.278,NULL,Wohlstand,mafanikio,d,NA,NA,NA,NA,sd,NA,4,NA,NA,NA,NA,NA,NA,NA,NA,NA,NA,NA,NA,NA,NA,NA,NA,NA,NA,NA
72657,task,flow.Sequence,3_0_4_0_2,NA,NA,completion,14221.976,590954,590949.235,590965.95,605187.926,605190.5,2023-09-15T12:40:13Z,605204.278,NULL,Wohlstand,mafanikio,d,NA,NA,NA,NA,sd,NA,4,NA,NA,NA,NA,NA,NA,NA,NA,NA,NA,NA,NA,NA,NA,NA,NA,NA,NA,NA
72657,Deep Question,html.Page,3_0_4_0_3_0_0,NA,NA,form submission,5692.722,605190.8,605187.926,605204.278,610897,610897.3,2023-09-15T12:40:19Z,610899.469,NULL,Verstand,ufahamivu,d,NA,NA,NA,wakati,NA,NA,4,NA,NA,NA,NA,NA,NA,NA,NA,NA,NA,NA,NA,NA,NA,NA,NA,NA,NA,NA
72657,"""Richtig""-Screen",canvas.Screen,3_0_4_0_3_0_1,NA,NA,skipped,NA,610900.5,NA,NA,610897,610900.8,2023-09-15T12:40:19Z,610899.469,NULL,Verstand,ufahamivu,d,NA,NA,NA,NA,sd,NA,4,NA,NA,NA,NA,NA,NA,NA,NA,NA,NA,NA,NA,NA,NA,NA,NA,NA,NA,NA
72657,"""Falsch""-Screen",canvas.Screen,3_0_4_0_3_0_2,NA,NA,timeout,4995.9179999999,610901.7,610882.929,610899.469,615879.025,615881.6,2023-09-15T12:40:24Z,615895.387,NULL,Verstand,ufahamivu,d,NA,NA,NA,NA,sd,0,4,NA,NA,NA,NA,NA,NA,NA,NA,NA,NA,NA,NA,NA,NA,NA,NA,NA,NA,NA
72657,deep,flow.Sequence,3_0_4_0_3_0,NA,NA,completion,10674.747,605190.8,605187.926,605204.278,615879.025,615882.1,2023-09-15T12:40:24Z,615895.387,NULL,Verstand,ufahamivu,d,NA,NA,NA,NA,sd,NA,4,NA,NA,NA,NA,NA,NA,NA,NA,NA,NA,NA,NA,NA,NA,NA,NA,NA,NA,NA
72657,shallow,flow.Sequence,3_0_4_0_3_1,NA,NA,skipped,NA,615882.4,NA,NA,615879.025,615882.5,2023-09-15T12:40:24Z,615895.387,NULL,Verstand,ufahamivu,d,NA,NA,NA,NA,sd,NA,4,NA,NA,NA,NA,NA,NA,NA,NA,NA,NA,NA,NA,NA,NA,NA,NA,NA,NA,NA
72657,task,flow.Sequence,3_0_4_0_3,NA,NA,completion,10674.747,605190.7,605187.926,605204.278,615879.025,615882.7,2023-09-15T12:40:24Z,615895.387,NULL,Verstand,ufahamivu,d,NA,NA,NA,NA,sd,NA,4,NA,NA,NA,NA,NA,NA,NA,NA,NA,NA,NA,NA,NA,NA,NA,NA,NA,NA,NA
72657,deep,flow.Sequence,3_0_4_0_4_0,NA,NA,skipped,NA,615882.9,NA,NA,615879.025,615883,2023-09-15T12:40:24Z,615895.387,NULL,Vergnügen,kichekesho,s,dubwana,mpanuko,mtesaji,NA,sd,NA,4,NA,NA,NA,NA,NA,NA,NA,NA,NA,NA,NA,NA,NA,NA,NA,NA,NA,NA,NA
72657,Shallow Question,html.Page,3_0_4_0_4_1_0,NA,NA,form submission,9577.8129999993,615883.3,615879.025,615895.387,625473.2,625473.5,2023-09-15T12:40:33Z,625487.575,NULL,Vergnügen,kichekesho,s,dubwana,mpanuko,mtesaji,kichekesho,NA,NA,4,NA,NA,NA,NA,NA,NA,NA,NA,NA,NA,NA,NA,NA,NA,NA,NA,NA,NA,NA
72657,"""Richtig""-Screen",canvas.Screen,3_0_4_0_4_1_1,NA,NA,timeout,4995.831,625475.7,625470.885,625487.575,630467.098,630468.5,2023-09-15T12:40:38Z,630483.406,NULL,Vergnügen,kichekesho,s,dubwana,mpanuko,mtesaji,NA,sd,1,4,NA,NA,NA,NA,NA,NA,NA,NA,NA,NA,NA,NA,NA,NA,NA,NA,NA,NA,NA
72657,"""Falsch""-Screen",canvas.Screen,3_0_4_0_4_1_2,NA,NA,skipped,NA,630470.4,NA,NA,630467.098,630470.7,2023-09-15T12:40:38Z,630483.406,NULL,Vergnügen,kichekesho,s,dubwana,mpanuko,mtesaji,NA,sd,NA,4,NA,NA,NA,NA,NA,NA,NA,NA,NA,NA,NA,NA,NA,NA,NA,NA,NA,NA,NA
72657,shallow,flow.Sequence,3_0_4_0_4_1,NA,NA,completion,14571.711,615883.2,615879.025,615895.387,630467.098,630471,2023-09-15T12:40:38Z,630483.406,NULL,Vergnügen,kichekesho,s,dubwana,mpanuko,mtesaji,NA,sd,NA,4,NA,NA,NA,NA,NA,NA,NA,NA,NA,NA,NA,NA,NA,NA,NA,NA,NA,NA,NA
72657,task,flow.Sequence,3_0_4_0_4,NA,NA,completion,14571.711,615882.9,615879.025,615895.387,630467.098,630471.4,2023-09-15T12:40:38Z,630483.406,NULL,Vergnügen,kichekesho,s,dubwana,mpanuko,mtesaji,NA,sd,NA,4,NA,NA,NA,NA,NA,NA,NA,NA,NA,NA,NA,NA,NA,NA,NA,NA,NA,NA,NA
72657,Deep Question,html.Page,3_0_4_0_5_0_0,NA,NA,form submission,5296.3939999989,630471.6,630467.098,630483.406,635779.8,635780.1,2023-09-15T12:40:43Z,635806.012,NULL,Ergänzung,kijalizo,d,NA,NA,NA,jojo,NA,NA,4,NA,NA,NA,NA,NA,NA,NA,NA,NA,NA,NA,NA,NA,NA,NA,NA,NA,NA,NA
72657,"""Richtig""-Screen",canvas.Screen,3_0_4_0_5_0_1,NA,NA,skipped,NA,635781,NA,NA,635779.8,635781.2,2023-09-15T12:40:43Z,635806.012,NULL,Ergänzung,kijalizo,d,NA,NA,NA,NA,sd,NA,4,NA,NA,NA,NA,NA,NA,NA,NA,NA,NA,NA,NA,NA,NA,NA,NA,NA,NA,NA
72657,"""Falsch""-Screen",canvas.Screen,3_0_4_0_5_0_2,NA,NA,timeout,5002.1850000001,635781.9,635762.721,635806.012,640791.552,640793.6,2023-09-15T12:40:48Z,640808.197,NULL,Ergänzung,kijalizo,d,NA,NA,NA,NA,sd,0,4,NA,NA,NA,NA,NA,NA,NA,NA,NA,NA,NA,NA,NA,NA,NA,NA,NA,NA,NA
72657,deep,flow.Sequence,3_0_4_0_5_0,NA,NA,completion,10308.146,630471.5,630467.098,630483.406,640791.552,640794.4,2023-09-15T12:40:48Z,640808.197,NULL,Ergänzung,kijalizo,d,NA,NA,NA,NA,sd,NA,4,NA,NA,NA,NA,NA,NA,NA,NA,NA,NA,NA,NA,NA,NA,NA,NA,NA,NA,NA
72657,shallow,flow.Sequence,3_0_4_0_5_1,NA,NA,skipped,NA,640794.7,NA,NA,640791.552,640794.9,2023-09-15T12:40:48Z,640808.197,NULL,Ergänzung,kijalizo,d,NA,NA,NA,NA,sd,NA,4,NA,NA,NA,NA,NA,NA,NA,NA,NA,NA,NA,NA,NA,NA,NA,NA,NA,NA,NA
72657,task,flow.Sequence,3_0_4_0_5,NA,NA,completion,10308.146,630471.5,630467.098,630483.406,640791.552,640795.3,2023-09-15T12:40:48Z,640808.197,NULL,Ergänzung,kijalizo,d,NA,NA,NA,NA,sd,NA,4,NA,NA,NA,NA,NA,NA,NA,NA,NA,NA,NA,NA,NA,NA,NA,NA,NA,NA,NA
72657,Deep Question,html.Page,3_0_4_0_6_0_0,NA,NA,form submission,17187.502999999,640795.8,640791.552,640808.197,657995.7,657996,2023-09-15T12:41:06Z,658011.014,NULL,Widerstand,usulubu,d,NA,NA,NA,kulu,NA,NA,4,NA,NA,NA,NA,NA,NA,NA,NA,NA,NA,NA,NA,NA,NA,NA,NA,NA,NA,NA
72657,"""Richtig""-Screen",canvas.Screen,3_0_4_0_6_0_1,NA,NA,skipped,NA,657998.8,NA,NA,657995.7,657999.2,2023-09-15T12:41:06Z,658011.014,NULL,Widerstand,usulubu,d,NA,NA,NA,NA,sd,NA,4,NA,NA,NA,NA,NA,NA,NA,NA,NA,NA,NA,NA,NA,NA,NA,NA,NA,NA,NA
72657,"""Falsch""-Screen",canvas.Screen,3_0_4_0_6_0_2,NA,NA,timeout,4995.645,658000.4,657977.721,658011.014,662990.349,662991.8,2023-09-15T12:41:11Z,663006.659,NULL,Widerstand,usulubu,d,NA,NA,NA,NA,sd,0,4,NA,NA,NA,NA,NA,NA,NA,NA,NA,NA,NA,NA,NA,NA,NA,NA,NA,NA,NA
72657,deep,flow.Sequence,3_0_4_0_6_0,NA,NA,completion,22182.152,640795.7,640791.552,640808.197,662990.349,662992.5,2023-09-15T12:41:11Z,663006.659,NULL,Widerstand,usulubu,d,NA,NA,NA,NA,sd,NA,4,NA,NA,NA,NA,NA,NA,NA,NA,NA,NA,NA,NA,NA,NA,NA,NA,NA,NA,NA
72657,shallow,flow.Sequence,3_0_4_0_6_1,NA,NA,skipped,NA,662992.7,NA,NA,662990.349,662993,2023-09-15T12:41:11Z,663006.659,NULL,Widerstand,usulubu,d,NA,NA,NA,NA,sd,NA,4,NA,NA,NA,NA,NA,NA,NA,NA,NA,NA,NA,NA,NA,NA,NA,NA,NA,NA,NA
72657,task,flow.Sequence,3_0_4_0_6,NA,NA,completion,22182.152,640795.6,640791.552,640808.197,662990.349,662993.2,2023-09-15T12:41:11Z,663006.659,NULL,Widerstand,usulubu,d,NA,NA,NA,NA,sd,NA,4,NA,NA,NA,NA,NA,NA,NA,NA,NA,NA,NA,NA,NA,NA,NA,NA,NA,NA,NA
72657,deep,flow.Sequence,3_0_4_0_7_0,NA,NA,skipped,NA,662993.5,NA,NA,662990.349,662993.7,2023-09-15T12:41:11Z,663006.659,NULL,Notfall,dharura,s,rairai,malalamiko,ahueni,NA,sd,NA,4,NA,NA,NA,NA,NA,NA,NA,NA,NA,NA,NA,NA,NA,NA,NA,NA,NA,NA,NA
72657,Shallow Question,html.Page,3_0_4_0_7_1_0,NA,NA,form submission,20032.240999999,662994.1,662990.349,663006.659,683038.9,683039.1,2023-09-15T12:41:31Z,683040.054,NULL,Notfall,dharura,s,rairai,malalamiko,ahueni,dharura,NA,NA,4,NA,NA,NA,NA,NA,NA,NA,NA,NA,NA,NA,NA,NA,NA,NA,NA,NA,NA,NA
72657,"""Richtig""-Screen",canvas.Screen,3_0_4_0_7_1_1,NA,NA,timeout,4995.954,683042,683023.77,683040.054,688019.724,688021.2,2023-09-15T12:41:36Z,688036.008,NULL,Notfall,dharura,s,rairai,malalamiko,ahueni,NA,sd,1,4,NA,NA,NA,NA,NA,NA,NA,NA,NA,NA,NA,NA,NA,NA,NA,NA,NA,NA,NA
72657,"""Falsch""-Screen",canvas.Screen,3_0_4_0_7_1_2,NA,NA,skipped,NA,688023.1,NA,NA,688019.724,688023.4,2023-09-15T12:41:36Z,688036.008,NULL,Notfall,dharura,s,rairai,malalamiko,ahueni,NA,sd,NA,4,NA,NA,NA,NA,NA,NA,NA,NA,NA,NA,NA,NA,NA,NA,NA,NA,NA,NA,NA
72657,shallow,flow.Sequence,3_0_4_0_7_1,NA,NA,completion,25013.065,662993.9,662990.349,663006.659,688019.724,688023.7,2023-09-15T12:41:36Z,688036.008,NULL,Notfall,dharura,s,rairai,malalamiko,ahueni,NA,sd,NA,4,NA,NA,NA,NA,NA,NA,NA,NA,NA,NA,NA,NA,NA,NA,NA,NA,NA,NA,NA
72657,task,flow.Sequence,3_0_4_0_7,NA,NA,completion,25013.065,662993.4,662990.349,663006.659,688019.724,688023.9,2023-09-15T12:41:36Z,688036.008,NULL,Notfall,dharura,s,rairai,malalamiko,ahueni,NA,sd,NA,4,NA,NA,NA,NA,NA,NA,NA,NA,NA,NA,NA,NA,NA,NA,NA,NA,NA,NA,NA
72657,block,flow.Loop,3_0_4_0,NA,NA,completion,115255.483,572772.1,572664.448,572764.241,688019.724,688024.3,2023-09-15T12:41:36Z,688036.008,NULL,NA,NA,NA,NA,NA,NA,NA,sd,NA,4,NA,NA,NA,NA,NA,NA,NA,NA,NA,NA,NA,NA,NA,NA,NA,NA,NA,NA,NA
72657,weiter,canvas.Screen,3_0_4_1,sdf,keypress(Space),response,1581.2919999989,688024.4,688019.724,688036.008,689617.3,689619.4,2023-09-15T12:41:37Z,689717.935,NULL,NA,NA,NA,NA,NA,NA,NA,sd,NA,4,NA,NA,NA,NA,NA,NA,NA,NA,NA,NA,NA,NA,NA,NA,NA,NA,NA,NA,NA
72657,check continue,flow.Sequence,3_0_4,NA,NA,completion,116853.059,572772,572664.448,572764.241,689617.3,689619.8,2023-09-15T12:41:37Z,689717.935,NULL,NA,NA,NA,NA,NA,NA,NA,sd,NA,4,NA,NA,NA,NA,NA,NA,NA,NA,NA,NA,NA,NA,NA,NA,NA,NA,NA,NA,NA
72657,Deep Question,html.Page,3_0_5_0_0_0_0,NA,NA,form submission,6310.7649999992,689726.2,689634.662,689717.935,696028.7,696029,2023-09-15T12:41:44Z,696029.354,NULL,Ergänzung,kijalizo,d,NA,NA,NA,wakati,NA,NA,5,NA,NA,NA,NA,NA,NA,NA,NA,NA,NA,NA,NA,NA,NA,NA,NA,NA,NA,NA
72657,"""Richtig""-Screen",canvas.Screen,3_0_5_0_0_0_1,NA,NA,skipped,NA,696032.1,NA,NA,696028.7,696032.3,2023-09-15T12:41:44Z,696029.354,NULL,Ergänzung,kijalizo,d,NA,NA,NA,NA,sdf,NA,5,NA,NA,NA,NA,NA,NA,NA,NA,NA,NA,NA,NA,NA,NA,NA,NA,NA,NA,NA
72657,"""Falsch""-Screen",canvas.Screen,3_0_5_0_0_0_2,NA,NA,timeout,4995.99,696033.1,696013.046,696029.354,701009.018,701010.7,2023-09-15T12:41:49Z,701025.344,NULL,Ergänzung,kijalizo,d,NA,NA,NA,NA,sdf,0,5,NA,NA,NA,NA,NA,NA,NA,NA,NA,NA,NA,NA,NA,NA,NA,NA,NA,NA,NA
72657,deep,flow.Sequence,3_0_5_0_0_0,NA,NA,completion,11291.083,689726.2,689634.662,689717.935,701009.018,701011.2,2023-09-15T12:41:49Z,701025.344,NULL,Ergänzung,kijalizo,d,NA,NA,NA,NA,sdf,NA,5,NA,NA,NA,NA,NA,NA,NA,NA,NA,NA,NA,NA,NA,NA,NA,NA,NA,NA,NA
72657,shallow,flow.Sequence,3_0_5_0_0_1,NA,NA,skipped,NA,701011.4,NA,NA,701009.018,701011.5,2023-09-15T12:41:49Z,701025.344,NULL,Ergänzung,kijalizo,d,NA,NA,NA,NA,sdf,NA,5,NA,NA,NA,NA,NA,NA,NA,NA,NA,NA,NA,NA,NA,NA,NA,NA,NA,NA,NA
72657,task,flow.Sequence,3_0_5_0_0,NA,NA,completion,11291.083,689726.1,689634.662,689717.935,701009.018,701011.7,2023-09-15T12:41:49Z,701025.344,NULL,Ergänzung,kijalizo,d,NA,NA,NA,NA,sdf,NA,5,NA,NA,NA,NA,NA,NA,NA,NA,NA,NA,NA,NA,NA,NA,NA,NA,NA,NA,NA
72657,deep,flow.Sequence,3_0_5_0_1_0,NA,NA,skipped,NA,701011.9,NA,NA,701009.018,701012,2023-09-15T12:41:49Z,701025.344,NULL,Ausschluss,kutengwa,s,ununuzi,taratibu,madeni,NA,sdf,NA,5,NA,NA,NA,NA,NA,NA,NA,NA,NA,NA,NA,NA,NA,NA,NA,NA,NA,NA,NA
72657,Shallow Question,html.Page,3_0_5_0_1_1_0,NA,NA,form submission,7737.4559999988,701012.2,701009.018,701025.344,708762.8,708763,2023-09-15T12:41:56Z,708768.864,NULL,Ausschluss,kutengwa,s,ununuzi,taratibu,madeni,kutengwa,NA,NA,5,NA,NA,NA,NA,NA,NA,NA,NA,NA,NA,NA,NA,NA,NA,NA,NA,NA,NA,NA
72657,"""Richtig""-Screen",canvas.Screen,3_0_5_0_1_1_1,NA,NA,timeout,4995.956,708765.2,708752.567,708768.864,713748.379,713750,2023-09-15T12:42:01Z,713764.82,NULL,Ausschluss,kutengwa,s,ununuzi,taratibu,madeni,NA,sdf,1,5,NA,NA,NA,NA,NA,NA,NA,NA,NA,NA,NA,NA,NA,NA,NA,NA,NA,NA,NA
72657,"""Falsch""-Screen",canvas.Screen,3_0_5_0_1_1_2,NA,NA,skipped,NA,713751.9,NA,NA,713748.379,713752.4,2023-09-15T12:42:01Z,713764.82,NULL,Ausschluss,kutengwa,s,ununuzi,taratibu,madeni,NA,sdf,NA,5,NA,NA,NA,NA,NA,NA,NA,NA,NA,NA,NA,NA,NA,NA,NA,NA,NA,NA,NA
72657,shallow,flow.Sequence,3_0_5_0_1_1,NA,NA,completion,12723.035,701012.1,701009.018,701025.344,713748.379,713752.8,2023-09-15T12:42:01Z,713764.82,NULL,Ausschluss,kutengwa,s,ununuzi,taratibu,madeni,NA,sdf,NA,5,NA,NA,NA,NA,NA,NA,NA,NA,NA,NA,NA,NA,NA,NA,NA,NA,NA,NA,NA
72657,task,flow.Sequence,3_0_5_0_1,NA,NA,completion,12723.035,701011.9,701009.018,701025.344,713748.379,713753,2023-09-15T12:42:01Z,713764.82,NULL,Ausschluss,kutengwa,s,ununuzi,taratibu,madeni,NA,sdf,NA,5,NA,NA,NA,NA,NA,NA,NA,NA,NA,NA,NA,NA,NA,NA,NA,NA,NA,NA,NA
72657,deep,flow.Sequence,3_0_5_0_2_0,NA,NA,skipped,NA,713753.2,NA,NA,713748.379,713753.3,2023-09-15T12:42:01Z,713764.82,NULL,Notfall,dharura,s,rairai,malalamiko,ahueni,NA,sdf,NA,5,NA,NA,NA,NA,NA,NA,NA,NA,NA,NA,NA,NA,NA,NA,NA,NA,NA,NA,NA
72657,Shallow Question,html.Page,3_0_5_0_2_1_0,NA,NA,form submission,3836.1800000001,713753.6,713748.379,713764.82,717601,717601.3,2023-09-15T12:42:05Z,717611.715,NULL,Notfall,dharura,s,rairai,malalamiko,ahueni,dharura,NA,NA,5,NA,NA,NA,NA,NA,NA,NA,NA,NA,NA,NA,NA,NA,NA,NA,NA,NA,NA,NA
72657,"""Richtig""-Screen",canvas.Screen,3_0_5_0_2_1_1,NA,NA,timeout,4995.915,717601.9,717595.272,717611.715,722591.273,722592.6,2023-09-15T12:42:10Z,722607.63,NULL,Notfall,dharura,s,rairai,malalamiko,ahueni,NA,sdf,1,5,NA,NA,NA,NA,NA,NA,NA,NA,NA,NA,NA,NA,NA,NA,NA,NA,NA,NA,NA
72657,"""Falsch""-Screen",canvas.Screen,3_0_5_0_2_1_2,NA,NA,skipped,NA,722594.3,NA,NA,722591.273,722594.5,2023-09-15T12:42:10Z,722607.63,NULL,Notfall,dharura,s,rairai,malalamiko,ahueni,NA,sdf,NA,5,NA,NA,NA,NA,NA,NA,NA,NA,NA,NA,NA,NA,NA,NA,NA,NA,NA,NA,NA
72657,shallow,flow.Sequence,3_0_5_0_2_1,NA,NA,completion,8826.4530000001,713753.5,713748.379,713764.82,722591.273,722594.8,2023-09-15T12:42:10Z,722607.63,NULL,Notfall,dharura,s,rairai,malalamiko,ahueni,NA,sdf,NA,5,NA,NA,NA,NA,NA,NA,NA,NA,NA,NA,NA,NA,NA,NA,NA,NA,NA,NA,NA
72657,task,flow.Sequence,3_0_5_0_2,NA,NA,completion,8826.4530000001,713753.1,713748.379,713764.82,722591.273,722595,2023-09-15T12:42:10Z,722607.63,NULL,Notfall,dharura,s,rairai,malalamiko,ahueni,NA,sdf,NA,5,NA,NA,NA,NA,NA,NA,NA,NA,NA,NA,NA,NA,NA,NA,NA,NA,NA,NA,NA
72657,Deep Question,html.Page,3_0_5_0_3_0_0,NA,NA,form submission,13537.47,722595.3,722591.273,722607.63,736145.1,736145.4,2023-09-15T12:42:24Z,736146.328,NULL,Widerstand,usulubu,d,NA,NA,NA,ukululu,NA,NA,5,NA,NA,NA,NA,NA,NA,NA,NA,NA,NA,NA,NA,NA,NA,NA,NA,NA,NA,NA
72657,"""Richtig""-Screen",canvas.Screen,3_0_5_0_3_0_1,NA,NA,skipped,NA,736148.5,NA,NA,736145.1,736148.7,2023-09-15T12:42:24Z,736146.328,NULL,Widerstand,usulubu,d,NA,NA,NA,NA,sdf,NA,5,NA,NA,NA,NA,NA,NA,NA,NA,NA,NA,NA,NA,NA,NA,NA,NA,NA,NA,NA
72657,"""Falsch""-Screen",canvas.Screen,3_0_5_0_3_0_2,NA,NA,timeout,4995.9330000001,736149.4,736129.758,736146.328,741125.945,741127.2,2023-09-15T12:42:29Z,741142.261,NULL,Widerstand,usulubu,d,NA,NA,NA,NA,sdf,0,5,NA,NA,NA,NA,NA,NA,NA,NA,NA,NA,NA,NA,NA,NA,NA,NA,NA,NA,NA
72657,deep,flow.Sequence,3_0_5_0_3_0,NA,NA,completion,18518.315,722595.2,722591.273,722607.63,741125.945,741127.5,2023-09-15T12:42:29Z,741142.261,NULL,Widerstand,usulubu,d,NA,NA,NA,NA,sdf,NA,5,NA,NA,NA,NA,NA,NA,NA,NA,NA,NA,NA,NA,NA,NA,NA,NA,NA,NA,NA
72657,shallow,flow.Sequence,3_0_5_0_3_1,NA,NA,skipped,NA,741127.8,NA,NA,741125.945,741127.9,2023-09-15T12:42:29Z,741142.261,NULL,Widerstand,usulubu,d,NA,NA,NA,NA,sdf,NA,5,NA,NA,NA,NA,NA,NA,NA,NA,NA,NA,NA,NA,NA,NA,NA,NA,NA,NA,NA
72657,task,flow.Sequence,3_0_5_0_3,NA,NA,completion,18518.315,722595.2,722591.273,722607.63,741125.945,741128.1,2023-09-15T12:42:29Z,741142.261,NULL,Widerstand,usulubu,d,NA,NA,NA,NA,sdf,NA,5,NA,NA,NA,NA,NA,NA,NA,NA,NA,NA,NA,NA,NA,NA,NA,NA,NA,NA,NA
72657,deep,flow.Sequence,3_0_5_0_4_0,NA,NA,skipped,NA,741128.3,NA,NA,741125.945,741128.4,2023-09-15T12:42:29Z,741142.261,NULL,Gelegenheit,wakati,s,mchanganyiko,kipaumbele,kushuku,NA,sdf,NA,5,NA,NA,NA,NA,NA,NA,NA,NA,NA,NA,NA,NA,NA,NA,NA,NA,NA,NA,NA
72657,Shallow Question,html.Page,3_0_5_0_4_1_0,NA,NA,form submission,9514.8389999996,741128.6,741125.945,741142.261,750657.1,750657.4,2023-09-15T12:42:38Z,750667.821,NULL,Gelegenheit,wakati,s,mchanganyiko,kipaumbele,kushuku,wakati,NA,NA,5,NA,NA,NA,NA,NA,NA,NA,NA,NA,NA,NA,NA,NA,NA,NA,NA,NA,NA,NA
72657,"""Richtig""-Screen",canvas.Screen,3_0_5_0_4_1_1,NA,NA,timeout,4995.958,750659.7,750651.275,750667.821,755647.386,755648.8,2023-09-15T12:42:43Z,755663.779,NULL,Gelegenheit,wakati,s,mchanganyiko,kipaumbele,kushuku,NA,sdf,1,5,NA,NA,NA,NA,NA,NA,NA,NA,NA,NA,NA,NA,NA,NA,NA,NA,NA,NA,NA
72657,"""Falsch""-Screen",canvas.Screen,3_0_5_0_4_1_2,NA,NA,skipped,NA,755650.6,NA,NA,755647.386,755650.9,2023-09-15T12:42:43Z,755663.779,NULL,Gelegenheit,wakati,s,mchanganyiko,kipaumbele,kushuku,NA,sdf,NA,5,NA,NA,NA,NA,NA,NA,NA,NA,NA,NA,NA,NA,NA,NA,NA,NA,NA,NA,NA
72657,shallow,flow.Sequence,3_0_5_0_4_1,NA,NA,completion,14505.125,741128.5,741125.945,741142.261,755647.386,755651.2,2023-09-15T12:42:43Z,755663.779,NULL,Gelegenheit,wakati,s,mchanganyiko,kipaumbele,kushuku,NA,sdf,NA,5,NA,NA,NA,NA,NA,NA,NA,NA,NA,NA,NA,NA,NA,NA,NA,NA,NA,NA,NA
72657,task,flow.Sequence,3_0_5_0_4,NA,NA,completion,14505.125,741128.2,741125.945,741142.261,755647.386,755651.4,2023-09-15T12:42:43Z,755663.779,NULL,Gelegenheit,wakati,s,mchanganyiko,kipaumbele,kushuku,NA,sdf,NA,5,NA,NA,NA,NA,NA,NA,NA,NA,NA,NA,NA,NA,NA,NA,NA,NA,NA,NA,NA
72657,Deep Question,html.Page,3_0_5_0_5_0_0,NA,NA,form submission,11598.920999999,755651.7,755647.386,755663.779,767262.7,767263,2023-09-15T12:42:55Z,767270.675,NULL,Verstand,ufahamivu,d,NA,NA,NA,ko,NA,NA,5,NA,NA,NA,NA,NA,NA,NA,NA,NA,NA,NA,NA,NA,NA,NA,NA,NA,NA,NA
72657,"""Richtig""-Screen",canvas.Screen,3_0_5_0_5_0_1,NA,NA,skipped,NA,767265.5,NA,NA,767262.7,767265.6,2023-09-15T12:42:55Z,767270.675,NULL,Verstand,ufahamivu,d,NA,NA,NA,NA,sdf,NA,5,NA,NA,NA,NA,NA,NA,NA,NA,NA,NA,NA,NA,NA,NA,NA,NA,NA,NA,NA
72657,"""Falsch""-Screen",canvas.Screen,3_0_5_0_5_0_2,NA,NA,timeout,4995.983,767266.4,767254.166,767270.675,772250.351,772251.8,2023-09-15T12:43:00Z,772266.658,NULL,Verstand,ufahamivu,d,NA,NA,NA,NA,sdf,0,5,NA,NA,NA,NA,NA,NA,NA,NA,NA,NA,NA,NA,NA,NA,NA,NA,NA,NA,NA
72657,deep,flow.Sequence,3_0_5_0_5_0,NA,NA,completion,16586.572,755651.6,755647.386,755663.779,772250.351,772252.2,2023-09-15T12:43:00Z,772266.658,NULL,Verstand,ufahamivu,d,NA,NA,NA,NA,sdf,NA,5,NA,NA,NA,NA,NA,NA,NA,NA,NA,NA,NA,NA,NA,NA,NA,NA,NA,NA,NA
72657,shallow,flow.Sequence,3_0_5_0_5_1,NA,NA,skipped,NA,772252.4,NA,NA,772250.351,772252.5,2023-09-15T12:43:00Z,772266.658,NULL,Verstand,ufahamivu,d,NA,NA,NA,NA,sdf,NA,5,NA,NA,NA,NA,NA,NA,NA,NA,NA,NA,NA,NA,NA,NA,NA,NA,NA,NA,NA
72657,task,flow.Sequence,3_0_5_0_5,NA,NA,completion,16586.572,755651.6,755647.386,755663.779,772250.351,772252.8,2023-09-15T12:43:00Z,772266.658,NULL,Verstand,ufahamivu,d,NA,NA,NA,NA,sdf,NA,5,NA,NA,NA,NA,NA,NA,NA,NA,NA,NA,NA,NA,NA,NA,NA,NA,NA,NA,NA
72657,Deep Question,html.Page,3_0_5_0_6_0_0,NA,NA,form submission,17032.141999999,772253.1,772250.351,772266.658,789298.8,789299.2,2023-09-15T12:43:17Z,789302.555,NULL,Wohlstand,mafanikio,d,NA,NA,NA,mafanikio,NA,NA,5,NA,NA,NA,NA,NA,NA,NA,NA,NA,NA,NA,NA,NA,NA,NA,NA,NA,NA,NA
72657,"""Richtig""-Screen",canvas.Screen,3_0_5_0_6_0_1,NA,NA,timeout,4995.9169999999,789302,789286.246,789302.555,794282.147,794283.6,2023-09-15T12:43:22Z,794298.472,NULL,Wohlstand,mafanikio,d,NA,NA,NA,NA,sdf,1,5,NA,NA,NA,NA,NA,NA,NA,NA,NA,NA,NA,NA,NA,NA,NA,NA,NA,NA,NA
72657,"""Falsch""-Screen",canvas.Screen,3_0_5_0_6_0_2,NA,NA,skipped,NA,794285.4,NA,NA,794282.147,794285.8,2023-09-15T12:43:22Z,794298.472,NULL,Wohlstand,mafanikio,d,NA,NA,NA,NA,sdf,NA,5,NA,NA,NA,NA,NA,NA,NA,NA,NA,NA,NA,NA,NA,NA,NA,NA,NA,NA,NA
72657,deep,flow.Sequence,3_0_5_0_6_0,NA,NA,completion,22015.489,772253,772250.351,772266.658,794282.147,794286.1,2023-09-15T12:43:22Z,794298.472,NULL,Wohlstand,mafanikio,d,NA,NA,NA,NA,sdf,NA,5,NA,NA,NA,NA,NA,NA,NA,NA,NA,NA,NA,NA,NA,NA,NA,NA,NA,NA,NA
72657,shallow,flow.Sequence,3_0_5_0_6_1,NA,NA,skipped,NA,794286.3,NA,NA,794282.147,794286.5,2023-09-15T12:43:22Z,794298.472,NULL,Wohlstand,mafanikio,d,NA,NA,NA,NA,sdf,NA,5,NA,NA,NA,NA,NA,NA,NA,NA,NA,NA,NA,NA,NA,NA,NA,NA,NA,NA,NA
72657,task,flow.Sequence,3_0_5_0_6,NA,NA,completion,22015.489,772252.9,772250.351,772266.658,794282.147,794286.7,2023-09-15T12:43:22Z,794298.472,NULL,Wohlstand,mafanikio,d,NA,NA,NA,NA,sdf,NA,5,NA,NA,NA,NA,NA,NA,NA,NA,NA,NA,NA,NA,NA,NA,NA,NA,NA,NA,NA
72657,deep,flow.Sequence,3_0_5_0_7_0,NA,NA,skipped,NA,794286.8,NA,NA,794282.147,794287,2023-09-15T12:43:22Z,794298.472,NULL,Vergnügen,kichekesho,s,dubwana,mpanuko,mtesaji,NA,sdf,NA,5,NA,NA,NA,NA,NA,NA,NA,NA,NA,NA,NA,NA,NA,NA,NA,NA,NA,NA,NA
72657,Shallow Question,html.Page,3_0_5_0_7_1_0,NA,NA,form submission,6920.1279999997,794287.2,794282.147,794298.472,801218.6,801218.9,2023-09-15T12:43:29Z,801226.153,NULL,Vergnügen,kichekesho,s,dubwana,mpanuko,mtesaji,kichekesho,NA,NA,5,NA,NA,NA,NA,NA,NA,NA,NA,NA,NA,NA,NA,NA,NA,NA,NA,NA,NA,NA
72657,"""Richtig""-Screen",canvas.Screen,3_0_5_0_7_1_1,NA,NA,timeout,4995.8639999999,801221,801209.716,801226.153,806205.749,806207.1,2023-09-15T12:43:34Z,806222.017,NULL,Vergnügen,kichekesho,s,dubwana,mpanuko,mtesaji,NA,sdf,1,5,NA,NA,NA,NA,NA,NA,NA,NA,NA,NA,NA,NA,NA,NA,NA,NA,NA,NA,NA
72657,"""Falsch""-Screen",canvas.Screen,3_0_5_0_7_1_2,NA,NA,skipped,NA,806209,NA,NA,806205.749,806209.3,2023-09-15T12:43:34Z,806222.017,NULL,Vergnügen,kichekesho,s,dubwana,mpanuko,mtesaji,NA,sdf,NA,5,NA,NA,NA,NA,NA,NA,NA,NA,NA,NA,NA,NA,NA,NA,NA,NA,NA,NA,NA
72657,shallow,flow.Sequence,3_0_5_0_7_1,NA,NA,completion,11907.277,794287.1,794282.147,794298.472,806205.749,806209.7,2023-09-15T12:43:34Z,806222.017,NULL,Vergnügen,kichekesho,s,dubwana,mpanuko,mtesaji,NA,sdf,NA,5,NA,NA,NA,NA,NA,NA,NA,NA,NA,NA,NA,NA,NA,NA,NA,NA,NA,NA,NA
72657,task,flow.Sequence,3_0_5_0_7,NA,NA,completion,11907.277,794286.8,794282.147,794298.472,806205.749,806210,2023-09-15T12:43:34Z,806222.017,NULL,Vergnügen,kichekesho,s,dubwana,mpanuko,mtesaji,NA,sdf,NA,5,NA,NA,NA,NA,NA,NA,NA,NA,NA,NA,NA,NA,NA,NA,NA,NA,NA,NA,NA
72657,block,flow.Loop,3_0_5_0,NA,NA,completion,116487.814,689726,689634.662,689717.935,806205.749,806210.3,2023-09-15T12:43:34Z,806222.017,NULL,NA,NA,NA,NA,NA,NA,NA,sdf,NA,5,NA,NA,NA,NA,NA,NA,NA,NA,NA,NA,NA,NA,NA,NA,NA,NA,NA,NA,NA
72657,weiter,canvas.Screen,3_0_5_1,sdf,keypress(Space),response,1568.8829999985,806210.4,806205.749,806222.017,807790.9,807815.9,2023-09-15T12:43:35Z,807920.612,NULL,NA,NA,NA,NA,NA,NA,NA,sdf,NA,5,NA,NA,NA,NA,NA,NA,NA,NA,NA,NA,NA,NA,NA,NA,NA,NA,NA,NA,NA
72657,check continue,flow.Sequence,3_0_5,NA,NA,completion,118072.965,689725.8,689634.662,689717.935,807790.9,807816.3,2023-09-15T12:43:35Z,807920.612,NULL,NA,NA,NA,NA,NA,NA,NA,sdf,NA,5,NA,NA,NA,NA,NA,NA,NA,NA,NA,NA,NA,NA,NA,NA,NA,NA,NA,NA,NA
72657,Deep Question,html.Page,3_0_6_0_0_0_0,NA,NA,form submission,33966.287999999,807922,807787.753,807920.612,841886.9,841887.2,2023-09-15T12:44:10Z,841892.572,NULL,Verstand,ufahamivu,d,NA,NA,NA,ukululu,NA,NA,6,NA,NA,NA,NA,NA,NA,NA,NA,NA,NA,NA,NA,NA,NA,NA,NA,NA,NA,NA
72657,"""Richtig""-Screen",canvas.Screen,3_0_6_0_0_0_1,NA,NA,skipped,NA,841889.7,NA,NA,841886.9,841889.9,2023-09-15T12:44:10Z,841892.572,NULL,Verstand,ufahamivu,d,NA,NA,NA,NA,dfs,NA,6,NA,NA,NA,NA,NA,NA,NA,NA,NA,NA,NA,NA,NA,NA,NA,NA,NA,NA,NA
72657,"""Falsch""-Screen",canvas.Screen,3_0_6_0_0_0_2,NA,NA,timeout,4995.933,841890.6,841876.232,841892.572,846872.28,846873.8,2023-09-15T12:44:15Z,846888.505,NULL,Verstand,ufahamivu,d,NA,NA,NA,NA,dfs,0,6,NA,NA,NA,NA,NA,NA,NA,NA,NA,NA,NA,NA,NA,NA,NA,NA,NA,NA,NA
72657,deep,flow.Sequence,3_0_6_0_0_0,NA,NA,completion,38951.668,807922,807787.753,807920.612,846872.28,846874.3,2023-09-15T12:44:15Z,846888.505,NULL,Verstand,ufahamivu,d,NA,NA,NA,NA,dfs,NA,6,NA,NA,NA,NA,NA,NA,NA,NA,NA,NA,NA,NA,NA,NA,NA,NA,NA,NA,NA
72657,shallow,flow.Sequence,3_0_6_0_0_1,NA,NA,skipped,NA,846874.5,NA,NA,846872.28,846874.6,2023-09-15T12:44:15Z,846888.505,NULL,Verstand,ufahamivu,d,NA,NA,NA,NA,dfs,NA,6,NA,NA,NA,NA,NA,NA,NA,NA,NA,NA,NA,NA,NA,NA,NA,NA,NA,NA,NA
72657,task,flow.Sequence,3_0_6_0_0,NA,NA,completion,38951.668,807921.7,807787.753,807920.612,846872.28,846874.9,2023-09-15T12:44:15Z,846888.505,NULL,Verstand,ufahamivu,d,NA,NA,NA,NA,dfs,NA,6,NA,NA,NA,NA,NA,NA,NA,NA,NA,NA,NA,NA,NA,NA,NA,NA,NA,NA,NA
72657,deep,flow.Sequence,3_0_6_0_1_0,NA,NA,skipped,NA,846875.1,NA,NA,846872.28,846875.2,2023-09-15T12:44:15Z,846888.505,NULL,Notfall,dharura,s,rairai,malalamiko,ahueni,NA,dfs,NA,6,NA,NA,NA,NA,NA,NA,NA,NA,NA,NA,NA,NA,NA,NA,NA,NA,NA,NA,NA
72657,Shallow Question,html.Page,3_0_6_0_1_1_0,NA,NA,form submission,14181.995,846875.6,846872.28,846888.505,861070.5,861070.8,2023-09-15T12:44:29Z,861076.763,NULL,Notfall,dharura,s,rairai,malalamiko,ahueni,dharura,NA,NA,6,NA,NA,NA,NA,NA,NA,NA,NA,NA,NA,NA,NA,NA,NA,NA,NA,NA,NA,NA
72657,"""Richtig""-Screen",canvas.Screen,3_0_6_0_1_1_1,NA,NA,timeout,4995.9469999999,861073.1,861060.495,861076.763,866056.483,866058.3,2023-09-15T12:44:34Z,866072.71,NULL,Notfall,dharura,s,rairai,malalamiko,ahueni,NA,dfs,1,6,NA,NA,NA,NA,NA,NA,NA,NA,NA,NA,NA,NA,NA,NA,NA,NA,NA,NA,NA
72657,"""Falsch""-Screen",canvas.Screen,3_0_6_0_1_1_2,NA,NA,skipped,NA,866061,NA,NA,866056.483,866061.4,2023-09-15T12:44:34Z,866072.71,NULL,Notfall,dharura,s,rairai,malalamiko,ahueni,NA,dfs,NA,6,NA,NA,NA,NA,NA,NA,NA,NA,NA,NA,NA,NA,NA,NA,NA,NA,NA,NA,NA
72657,shallow,flow.Sequence,3_0_6_0_1_1,NA,NA,completion,19167.978,846875.3,846872.28,846888.505,866056.483,866061.8,2023-09-15T12:44:34Z,866072.71,NULL,Notfall,dharura,s,rairai,malalamiko,ahueni,NA,dfs,NA,6,NA,NA,NA,NA,NA,NA,NA,NA,NA,NA,NA,NA,NA,NA,NA,NA,NA,NA,NA
72657,task,flow.Sequence,3_0_6_0_1,NA,NA,completion,19167.978,846875,846872.28,846888.505,866056.483,866062,2023-09-15T12:44:34Z,866072.71,NULL,Notfall,dharura,s,rairai,malalamiko,ahueni,NA,dfs,NA,6,NA,NA,NA,NA,NA,NA,NA,NA,NA,NA,NA,NA,NA,NA,NA,NA,NA,NA,NA
72657,Deep Question,html.Page,3_0_6_0_2_0_0,NA,NA,form submission,16335.89,866062.3,866056.483,866072.71,882408.6,882408.8,2023-09-15T12:44:50Z,882409.239,NULL,Wohlstand,mafanikio,d,NA,NA,NA,mafanikio,NA,NA,6,NA,NA,NA,NA,NA,NA,NA,NA,NA,NA,NA,NA,NA,NA,NA,NA,NA,NA,NA
72657,"""Richtig""-Screen",canvas.Screen,3_0_6_0_2_0_1,NA,NA,timeout,4995.8870000001,882411.9,882393.075,882409.239,887388.913,887390.6,2023-09-15T12:44:55Z,887405.126,NULL,Wohlstand,mafanikio,d,NA,NA,NA,NA,dfs,1,6,NA,NA,NA,NA,NA,NA,NA,NA,NA,NA,NA,NA,NA,NA,NA,NA,NA,NA,NA
72657,"""Falsch""-Screen",canvas.Screen,3_0_6_0_2_0_2,NA,NA,skipped,NA,887392.6,NA,NA,887388.913,887393,2023-09-15T12:44:55Z,887405.126,NULL,Wohlstand,mafanikio,d,NA,NA,NA,NA,dfs,NA,6,NA,NA,NA,NA,NA,NA,NA,NA,NA,NA,NA,NA,NA,NA,NA,NA,NA,NA,NA
72657,deep,flow.Sequence,3_0_6_0_2_0,NA,NA,completion,21316.203,866062.3,866056.483,866072.71,887388.913,887393.3,2023-09-15T12:44:55Z,887405.126,NULL,Wohlstand,mafanikio,d,NA,NA,NA,NA,dfs,NA,6,NA,NA,NA,NA,NA,NA,NA,NA,NA,NA,NA,NA,NA,NA,NA,NA,NA,NA,NA
72657,shallow,flow.Sequence,3_0_6_0_2_1,NA,NA,skipped,NA,887393.4,NA,NA,887388.913,887393.6,2023-09-15T12:44:55Z,887405.126,NULL,Wohlstand,mafanikio,d,NA,NA,NA,NA,dfs,NA,6,NA,NA,NA,NA,NA,NA,NA,NA,NA,NA,NA,NA,NA,NA,NA,NA,NA,NA,NA
72657,task,flow.Sequence,3_0_6_0_2,NA,NA,completion,21316.203,866062.2,866056.483,866072.71,887388.913,887393.9,2023-09-15T12:44:55Z,887405.126,NULL,Wohlstand,mafanikio,d,NA,NA,NA,NA,dfs,NA,6,NA,NA,NA,NA,NA,NA,NA,NA,NA,NA,NA,NA,NA,NA,NA,NA,NA,NA,NA
72657,deep,flow.Sequence,3_0_6_0_3_0,NA,NA,skipped,NA,887394.1,NA,NA,887388.913,887394.2,2023-09-15T12:44:55Z,887405.126,NULL,Ausschluss,kutengwa,s,ununuzi,taratibu,madeni,NA,dfs,NA,6,NA,NA,NA,NA,NA,NA,NA,NA,NA,NA,NA,NA,NA,NA,NA,NA,NA,NA,NA
72657,Shallow Question,html.Page,3_0_6_0_3_1_0,NA,NA,form submission,4237.374,887394.4,887388.913,887405.126,891642.5,891642.7,2023-09-15T12:44:59Z,891651.648,NULL,Ausschluss,kutengwa,s,ununuzi,taratibu,madeni,kutengwa,NA,NA,6,NA,NA,NA,NA,NA,NA,NA,NA,NA,NA,NA,NA,NA,NA,NA,NA,NA,NA,NA
72657,"""Richtig""-Screen",canvas.Screen,3_0_6_0_3_1_1,NA,NA,timeout,4995.955,891643.6,891635.239,891651.648,896631.258,896632.7,2023-09-15T12:45:04Z,896647.603,NULL,Ausschluss,kutengwa,s,ununuzi,taratibu,madeni,NA,dfs,1,6,NA,NA,NA,NA,NA,NA,NA,NA,NA,NA,NA,NA,NA,NA,NA,NA,NA,NA,NA
72657,"""Falsch""-Screen",canvas.Screen,3_0_6_0_3_1_2,NA,NA,skipped,NA,896634.5,NA,NA,896631.258,896634.8,2023-09-15T12:45:04Z,896647.603,NULL,Ausschluss,kutengwa,s,ununuzi,taratibu,madeni,NA,dfs,NA,6,NA,NA,NA,NA,NA,NA,NA,NA,NA,NA,NA,NA,NA,NA,NA,NA,NA,NA,NA
72657,shallow,flow.Sequence,3_0_6_0_3_1,NA,NA,completion,9226.132,887394.3,887388.913,887405.126,896631.258,896635.2,2023-09-15T12:45:04Z,896647.603,NULL,Ausschluss,kutengwa,s,ununuzi,taratibu,madeni,NA,dfs,NA,6,NA,NA,NA,NA,NA,NA,NA,NA,NA,NA,NA,NA,NA,NA,NA,NA,NA,NA,NA
72657,task,flow.Sequence,3_0_6_0_3,NA,NA,completion,9226.132,887394.1,887388.913,887405.126,896631.258,896635.5,2023-09-15T12:45:04Z,896647.603,NULL,Ausschluss,kutengwa,s,ununuzi,taratibu,madeni,NA,dfs,NA,6,NA,NA,NA,NA,NA,NA,NA,NA,NA,NA,NA,NA,NA,NA,NA,NA,NA,NA,NA
72657,Deep Question,html.Page,3_0_6_0_4_0_0,NA,NA,form submission,8982.7969999985,896635.7,896631.258,896647.603,905630.4,905630.7,2023-09-15T12:45:13Z,905640.162,NULL,Widerstand,usulubu,d,NA,NA,NA,wakati,NA,NA,6,NA,NA,NA,NA,NA,NA,NA,NA,NA,NA,NA,NA,NA,NA,NA,NA,NA,NA,NA
72657,"""Richtig""-Screen",canvas.Screen,3_0_6_0_4_0_1,NA,NA,skipped,NA,905632.8,NA,NA,905630.4,905633,2023-09-15T12:45:13Z,905640.162,NULL,Widerstand,usulubu,d,NA,NA,NA,NA,dfs,NA,6,NA,NA,NA,NA,NA,NA,NA,NA,NA,NA,NA,NA,NA,NA,NA,NA,NA,NA,NA
72657,"""Falsch""-Screen",canvas.Screen,3_0_6_0_4_0_2,NA,NA,timeout,4995.914,905633.7,905623.842,905640.162,910619.75,910621.2,2023-09-15T12:45:18Z,910636.076,NULL,Widerstand,usulubu,d,NA,NA,NA,NA,dfs,0,6,NA,NA,NA,NA,NA,NA,NA,NA,NA,NA,NA,NA,NA,NA,NA,NA,NA,NA,NA
72657,deep,flow.Sequence,3_0_6_0_4_0,NA,NA,completion,13972.147,896635.6,896631.258,896647.603,910619.75,910621.6,2023-09-15T12:45:18Z,910636.076,NULL,Widerstand,usulubu,d,NA,NA,NA,NA,dfs,NA,6,NA,NA,NA,NA,NA,NA,NA,NA,NA,NA,NA,NA,NA,NA,NA,NA,NA,NA,NA
72657,shallow,flow.Sequence,3_0_6_0_4_1,NA,NA,skipped,NA,910621.8,NA,NA,910619.75,910621.8,2023-09-15T12:45:18Z,910636.076,NULL,Widerstand,usulubu,d,NA,NA,NA,NA,dfs,NA,6,NA,NA,NA,NA,NA,NA,NA,NA,NA,NA,NA,NA,NA,NA,NA,NA,NA,NA,NA
72657,task,flow.Sequence,3_0_6_0_4,NA,NA,completion,13972.147,896635.6,896631.258,896647.603,910619.75,910622.2,2023-09-15T12:45:18Z,910636.076,NULL,Widerstand,usulubu,d,NA,NA,NA,NA,dfs,NA,6,NA,NA,NA,NA,NA,NA,NA,NA,NA,NA,NA,NA,NA,NA,NA,NA,NA,NA,NA
72657,deep,flow.Sequence,3_0_6_0_5_0,NA,NA,skipped,NA,910622.3,NA,NA,910619.75,910622.4,2023-09-15T12:45:18Z,910636.076,NULL,Gelegenheit,wakati,s,mchanganyiko,kipaumbele,kushuku,NA,dfs,NA,6,NA,NA,NA,NA,NA,NA,NA,NA,NA,NA,NA,NA,NA,NA,NA,NA,NA,NA,NA
