observation,sender,sender_type,sender_id,response,response_action,ended_on,duration,time_run,time_render,time_show,time_end,time_commit,timestamp,time_switch,distractors,german,swahili,enc,distractor1,distractor2,distractor3,response_2,x,correct,x_2,url_vp,url_sess,meta_labjs_version,meta_location,meta_user_agent,meta_platform,meta_language,meta_locale,meta_time_zone,meta_timezone_offset,meta_screen_width,meta_screen_height,meta_scroll_width,meta_scroll_height,meta_window_inner_width,meta_window_inner_height,meta_device_pixel_ratio,meta_labjs_build_flavor,meta_labjs_build_commit
b79bf,Introduction general,canvas.Screen,0,weiter,keypress(q),response,55004.6,3954,3951.44,4001.4,59006,59014,2023-10-13T07:37:05Z,59022.86,NULL,NA,NA,NA,NA,NA,NA,NA,NA,NA,NA,145,3,20.2.4,https://neurocog.fernuni.ch/studies/vweber/jbaenninger/encoding_immediate/index.html?vp=145&sess=3,Mozilla/5.0 (Windows NT 10.0; Win64; x64; rv:109.0) Gecko/20100101 Firefox/118.0,Win32,de,de-CH,Europe/Zurich,-120,1280,720,1280,595,1280,595,1.5,production,f5b4a49f956347addd546a832a3327688c2c0fef
b79bf,Introduction practice,canvas.Screen,1_0,NA,keypress(Space),response,7796.14,59017,59017.24,59022.86,66819,66834,2023-10-13T07:37:13Z,66866.56,NULL,NA,NA,NA,NA,NA,NA,NA,NA,NA,NA,NA,NA,NA,NA,NA,NA,NA,NA,NA,NA,NA,NA,NA,NA,NA,NA,NA,NA,NA
b79bf,Deep Question,html.Page,1_1_0_0_0,NA,NA,form submission,6669.44,66836,66835.98,66866.56,73536,73536,2023-10-13T07:37:20Z,73544.28,"c(""distractor1"", ""distractor2"", ""distractor3"")",Gesundheit,salama,d,NA,NA,NA,ge,NA,NA,NA,NA,NA,NA,NA,NA,NA,NA,NA,NA,NA,NA,NA,NA,NA,NA,NA,NA,NA,NA
b79bf,"""Richtig""-Screen",canvas.Screen,1_1_0_0_1,NA,NA,skipped,NA,73546,NA,NA,73536,73547,2023-10-13T07:37:20Z,73544.28,"c(""distractor1"", ""distractor2"", ""distractor3"")",Gesundheit,salama,d,NA,NA,NA,NA,NA,NA,NA,NA,NA,NA,NA,NA,NA,NA,NA,NA,NA,NA,NA,NA,NA,NA,NA,NA,NA,NA
b79bf,"""Falsch""-Screen",canvas.Screen,1_1_0_0_2,NA,NA,timeout,4995.92,73552,73527.88,73544.28,78523.56,78527,2023-10-13T07:37:25Z,78540.2,"c(""distractor1"", ""distractor2"", ""distractor3"")",Gesundheit,salama,d,NA,NA,NA,NA,NA,0,NA,NA,NA,NA,NA,NA,NA,NA,NA,NA,NA,NA,NA,NA,NA,NA,NA,NA,NA,NA
b79bf,deep,flow.Sequence,1_1_0_0,NA,NA,completion,11657,66836,66835.98,66866.56,78523.56,78530,2023-10-13T07:37:25Z,78540.2,"c(""distractor1"", ""distractor2"", ""distractor3"")",Gesundheit,salama,d,NA,NA,NA,NA,NA,NA,NA,NA,NA,NA,NA,NA,NA,NA,NA,NA,NA,NA,NA,NA,NA,NA,NA,NA,NA,NA
b79bf,shallow,flow.Sequence,1_1_0_1,NA,NA,skipped,NA,78531,NA,NA,78523.56,78532,2023-10-13T07:37:25Z,78540.2,"c(""distractor1"", ""distractor2"", ""distractor3"")",Gesundheit,salama,d,NA,NA,NA,NA,NA,NA,NA,NA,NA,NA,NA,NA,NA,NA,NA,NA,NA,NA,NA,NA,NA,NA,NA,NA,NA,NA
b79bf,task,flow.Sequence,1_1_0,NA,NA,completion,11657,66835,66835.98,66866.56,78523.56,78533,2023-10-13T07:37:25Z,78540.2,"c(""distractor1"", ""distractor2"", ""distractor3"")",Gesundheit,salama,d,NA,NA,NA,NA,NA,NA,NA,NA,NA,NA,NA,NA,NA,NA,NA,NA,NA,NA,NA,NA,NA,NA,NA,NA,NA,NA
b79bf,Deep Question,html.Page,1_1_1_0_0,NA,NA,form submission,7683.8,78534,78523.56,78540.2,86224,86225,2023-10-13T07:37:32Z,86233.8,"c(""distractor1"", ""distractor2"", ""distractor3"")",Schatten,kivuli,d,NA,NA,NA,sch,NA,NA,NA,NA,NA,NA,NA,NA,NA,NA,NA,NA,NA,NA,NA,NA,NA,NA,NA,NA,NA,NA
b79bf,"""Richtig""-Screen",canvas.Screen,1_1_1_0_1,NA,NA,skipped,NA,86230,NA,NA,86224,86230,2023-10-13T07:37:32Z,86233.8,"c(""distractor1"", ""distractor2"", ""distractor3"")",Schatten,kivuli,d,NA,NA,NA,NA,NA,NA,NA,NA,NA,NA,NA,NA,NA,NA,NA,NA,NA,NA,NA,NA,NA,NA,NA,NA,NA,NA
b79bf,"""Falsch""-Screen",canvas.Screen,1_1_1_0_2,NA,NA,timeout,4995.98,86233,86221.7,86233.8,91213.14,91215,2023-10-13T07:37:37Z,91229.78,"c(""distractor1"", ""distractor2"", ""distractor3"")",Schatten,kivuli,d,NA,NA,NA,NA,NA,0,NA,NA,NA,NA,NA,NA,NA,NA,NA,NA,NA,NA,NA,NA,NA,NA,NA,NA,NA,NA
b79bf,deep,flow.Sequence,1_1_1_0,NA,NA,completion,12672.94,78534,78523.56,78540.2,91213.14,91216,2023-10-13T07:37:37Z,91229.78,"c(""distractor1"", ""distractor2"", ""distractor3"")",Schatten,kivuli,d,NA,NA,NA,NA,NA,NA,NA,NA,NA,NA,NA,NA,NA,NA,NA,NA,NA,NA,NA,NA,NA,NA,NA,NA,NA,NA
b79bf,shallow,flow.Sequence,1_1_1_1,NA,NA,skipped,NA,91217,NA,NA,91213.14,91217,2023-10-13T07:37:37Z,91229.78,"c(""distractor1"", ""distractor2"", ""distractor3"")",Schatten,kivuli,d,NA,NA,NA,NA,NA,NA,NA,NA,NA,NA,NA,NA,NA,NA,NA,NA,NA,NA,NA,NA,NA,NA,NA,NA,NA,NA
b79bf,task,flow.Sequence,1_1_1,NA,NA,completion,12672.94,78534,78523.56,78540.2,91213.14,91217,2023-10-13T07:37:37Z,91229.78,"c(""distractor1"", ""distractor2"", ""distractor3"")",Schatten,kivuli,d,NA,NA,NA,NA,NA,NA,NA,NA,NA,NA,NA,NA,NA,NA,NA,NA,NA,NA,NA,NA,NA,NA,NA,NA,NA,NA
b79bf,deep,flow.Sequence,1_1_2_0,NA,NA,skipped,NA,91219,NA,NA,91213.14,91219,2023-10-13T07:37:37Z,91229.78,"c(""distractor1"", ""distractor2"", ""distractor3"")",Kritik,lawama,s,dereva,nafasi,mawazo,NA,NA,NA,NA,NA,NA,NA,NA,NA,NA,NA,NA,NA,NA,NA,NA,NA,NA,NA,NA,NA,NA,NA
b79bf,Shallow Question,html.Page,1_1_2_1_0,NA,NA,form submission,12760.22,91219,91213.14,91229.78,103990,103991,2023-10-13T07:37:50Z,104002.6,"c(""distractor1"", ""distractor2"", ""distractor3"")",Kritik,lawama,s,dereva,nafasi,mawazo,mawazo,NA,NA,NA,NA,NA,NA,NA,NA,NA,NA,NA,NA,NA,NA,NA,NA,NA,NA,NA,NA,NA,NA
b79bf,"""Richtig""-Screen",canvas.Screen,1_1_2_1_1,NA,NA,skipped,NA,103994,NA,NA,103990,103994,2023-10-13T07:37:50Z,104002.6,"c(""distractor1"", ""distractor2"", ""distractor3"")",Kritik,lawama,s,dereva,nafasi,mawazo,NA,NA,NA,NA,NA,NA,NA,NA,NA,NA,NA,NA,NA,NA,NA,NA,NA,NA,NA,NA,NA,NA,NA
b79bf,"""Falsch""-Screen",canvas.Screen,1_1_2_1_2,NA,NA,timeout,4995.92,103997,103988.14,104002.6,108981.88,108983,2023-10-13T07:37:55Z,108998.52,"c(""distractor1"", ""distractor2"", ""distractor3"")",Kritik,lawama,s,dereva,nafasi,mawazo,NA,NA,0,NA,NA,NA,NA,NA,NA,NA,NA,NA,NA,NA,NA,NA,NA,NA,NA,NA,NA,NA,NA
b79bf,shallow,flow.Sequence,1_1_2_1,NA,NA,completion,17752.1,91219,91213.14,91229.78,108981.88,108983,2023-10-13T07:37:55Z,108998.52,"c(""distractor1"", ""distractor2"", ""distractor3"")",Kritik,lawama,s,dereva,nafasi,mawazo,NA,NA,NA,NA,NA,NA,NA,NA,NA,NA,NA,NA,NA,NA,NA,NA,NA,NA,NA,NA,NA,NA,NA
b79bf,task,flow.Sequence,1_1_2,NA,NA,completion,17752.1,91219,91213.14,91229.78,108981.88,108984,2023-10-13T07:37:55Z,108998.52,"c(""distractor1"", ""distractor2"", ""distractor3"")",Kritik,lawama,s,dereva,nafasi,mawazo,NA,NA,NA,NA,NA,NA,NA,NA,NA,NA,NA,NA,NA,NA,NA,NA,NA,NA,NA,NA,NA,NA,NA
b79bf,deep,flow.Sequence,1_1_3_0,NA,NA,skipped,NA,108984,NA,NA,108981.88,108985,2023-10-13T07:37:55Z,108998.52,"c(""distractor1"", ""distractor2"", ""distractor3"")",Rückhalt,msaada,s,muhula,auwali,kiwimbe,NA,NA,NA,NA,NA,NA,NA,NA,NA,NA,NA,NA,NA,NA,NA,NA,NA,NA,NA,NA,NA,NA,NA
b79bf,Shallow Question,html.Page,1_1_3_1_0,NA,NA,form submission,14729.48,108985,108981.88,108998.52,123728,123728,2023-10-13T07:38:10Z,123736.4,"c(""distractor1"", ""distractor2"", ""distractor3"")",Rückhalt,msaada,s,muhula,auwali,kiwimbe,kiwimbe,NA,NA,NA,NA,NA,NA,NA,NA,NA,NA,NA,NA,NA,NA,NA,NA,NA,NA,NA,NA,NA,NA
b79bf,"""Richtig""-Screen",canvas.Screen,1_1_3_1_1,NA,NA,skipped,NA,123730,NA,NA,123728,123731,2023-10-13T07:38:10Z,123736.4,"c(""distractor1"", ""distractor2"", ""distractor3"")",Rückhalt,msaada,s,muhula,auwali,kiwimbe,NA,NA,NA,NA,NA,NA,NA,NA,NA,NA,NA,NA,NA,NA,NA,NA,NA,NA,NA,NA,NA,NA,NA
b79bf,"""Falsch""-Screen",canvas.Screen,1_1_3_1_2,NA,NA,timeout,4995.9,123734,123725.48,123736.4,128715.64,128718,2023-10-13T07:38:15Z,128732.3,"c(""distractor1"", ""distractor2"", ""distractor3"")",Rückhalt,msaada,s,muhula,auwali,kiwimbe,NA,NA,0,NA,NA,NA,NA,NA,NA,NA,NA,NA,NA,NA,NA,NA,NA,NA,NA,NA,NA,NA,NA
b79bf,shallow,flow.Sequence,1_1_3_1,NA,NA,completion,19717.12,108985,108981.88,108998.52,128715.64,128719,2023-10-13T07:38:15Z,128732.3,"c(""distractor1"", ""distractor2"", ""distractor3"")",Rückhalt,msaada,s,muhula,auwali,kiwimbe,NA,NA,NA,NA,NA,NA,NA,NA,NA,NA,NA,NA,NA,NA,NA,NA,NA,NA,NA,NA,NA,NA,NA
b79bf,task,flow.Sequence,1_1_3,NA,NA,completion,19717.12,108984,108981.88,108998.52,128715.64,128719,2023-10-13T07:38:15Z,128732.3,"c(""distractor1"", ""distractor2"", ""distractor3"")",Rückhalt,msaada,s,muhula,auwali,kiwimbe,NA,NA,NA,NA,NA,NA,NA,NA,NA,NA,NA,NA,NA,NA,NA,NA,NA,NA,NA,NA,NA,NA,NA
b79bf,Deep Question,html.Page,1_1_4_0_0,NA,NA,form submission,7012.7,128720,128715.64,128732.3,135745,135745,2023-10-13T07:38:22Z,135743.14,"c(""distractor1"", ""distractor2"", ""distractor3"")",Qualität,mtindo,d,NA,NA,NA,qu,NA,NA,NA,NA,NA,NA,NA,NA,NA,NA,NA,NA,NA,NA,NA,NA,NA,NA,NA,NA,NA,NA
b79bf,"""Richtig""-Screen",canvas.Screen,1_1_4_0_1,NA,NA,skipped,NA,135747,NA,NA,135745,135747,2023-10-13T07:38:22Z,135743.14,"c(""distractor1"", ""distractor2"", ""distractor3"")",Qualität,mtindo,d,NA,NA,NA,NA,NA,NA,NA,NA,NA,NA,NA,NA,NA,NA,NA,NA,NA,NA,NA,NA,NA,NA,NA,NA,NA,NA
b79bf,"""Falsch""-Screen",canvas.Screen,1_1_4_0_2,NA,NA,timeout,4995.94,135750,135741.76,135743.14,140722.42,140724,2023-10-13T07:38:27Z,140739.08,"c(""distractor1"", ""distractor2"", ""distractor3"")",Qualität,mtindo,d,NA,NA,NA,NA,NA,0,NA,NA,NA,NA,NA,NA,NA,NA,NA,NA,NA,NA,NA,NA,NA,NA,NA,NA,NA,NA
b79bf,deep,flow.Sequence,1_1_4_0,NA,NA,completion,11990.12,128720,128715.64,128732.3,140722.42,140725,2023-10-13T07:38:27Z,140739.08,"c(""distractor1"", ""distractor2"", ""distractor3"")",Qualität,mtindo,d,NA,NA,NA,NA,NA,NA,NA,NA,NA,NA,NA,NA,NA,NA,NA,NA,NA,NA,NA,NA,NA,NA,NA,NA,NA,NA
b79bf,shallow,flow.Sequence,1_1_4_1,NA,NA,skipped,NA,140725,NA,NA,140722.42,140726,2023-10-13T07:38:27Z,140739.08,"c(""distractor1"", ""distractor2"", ""distractor3"")",Qualität,mtindo,d,NA,NA,NA,NA,NA,NA,NA,NA,NA,NA,NA,NA,NA,NA,NA,NA,NA,NA,NA,NA,NA,NA,NA,NA,NA,NA
b79bf,task,flow.Sequence,1_1_4,NA,NA,completion,11990.12,128720,128715.64,128732.3,140722.42,140727,2023-10-13T07:38:27Z,140739.08,"c(""distractor1"", ""distractor2"", ""distractor3"")",Qualität,mtindo,d,NA,NA,NA,NA,NA,NA,NA,NA,NA,NA,NA,NA,NA,NA,NA,NA,NA,NA,NA,NA,NA,NA,NA,NA,NA,NA
b79bf,deep,flow.Sequence,1_1_5_0,NA,NA,skipped,NA,140727,NA,NA,140722.42,140728,2023-10-13T07:38:27Z,140739.08,"c(""distractor1"", ""distractor2"", ""distractor3"")",Gegenwart,hadhara,s,katiba,jokofu,mikopo,NA,NA,NA,NA,NA,NA,NA,NA,NA,NA,NA,NA,NA,NA,NA,NA,NA,NA,NA,NA,NA,NA,NA
b79bf,Shallow Question,html.Page,1_1_5_1_0,NA,NA,form submission,5550.92,140728,140722.42,140739.08,146290,146291,2023-10-13T07:38:32Z,146301.08,"c(""distractor1"", ""distractor2"", ""distractor3"")",Gegenwart,hadhara,s,katiba,jokofu,mikopo,mikopo,NA,NA,NA,NA,NA,NA,NA,NA,NA,NA,NA,NA,NA,NA,NA,NA,NA,NA,NA,NA,NA,NA
b79bf,"""Richtig""-Screen",canvas.Screen,1_1_5_1_1,NA,NA,skipped,NA,146293,NA,NA,146290,146293,2023-10-13T07:38:32Z,146301.08,"c(""distractor1"", ""distractor2"", ""distractor3"")",Gegenwart,hadhara,s,katiba,jokofu,mikopo,NA,NA,NA,NA,NA,NA,NA,NA,NA,NA,NA,NA,NA,NA,NA,NA,NA,NA,NA,NA,NA,NA,NA
b79bf,"""Falsch""-Screen",canvas.Screen,1_1_5_1_2,NA,NA,timeout,4995.98,146295,146287.86,146301.08,151280.4,151282,2023-10-13T07:38:37Z,151297.06,"c(""distractor1"", ""distractor2"", ""distractor3"")",Gegenwart,hadhara,s,katiba,jokofu,mikopo,NA,NA,0,NA,NA,NA,NA,NA,NA,NA,NA,NA,NA,NA,NA,NA,NA,NA,NA,NA,NA,NA,NA
b79bf,shallow,flow.Sequence,1_1_5_1,NA,NA,completion,10541.32,140728,140722.42,140739.08,151280.4,151283,2023-10-13T07:38:37Z,151297.06,"c(""distractor1"", ""distractor2"", ""distractor3"")",Gegenwart,hadhara,s,katiba,jokofu,mikopo,NA,NA,NA,NA,NA,NA,NA,NA,NA,NA,NA,NA,NA,NA,NA,NA,NA,NA,NA,NA,NA,NA,NA
b79bf,task,flow.Sequence,1_1_5,NA,NA,completion,10541.32,140727,140722.42,140739.08,151280.4,151284,2023-10-13T07:38:37Z,151297.06,"c(""distractor1"", ""distractor2"", ""distractor3"")",Gegenwart,hadhara,s,katiba,jokofu,mikopo,NA,NA,NA,NA,NA,NA,NA,NA,NA,NA,NA,NA,NA,NA,NA,NA,NA,NA,NA,NA,NA,NA,NA
b79bf,block,flow.Loop,1_1,NA,NA,completion,84413.84,66835,66835.98,66866.56,151280.4,151285,2023-10-13T07:38:37Z,151297.06,"c(""distractor1"", ""distractor2"", ""distractor3"")",NA,NA,NA,NA,NA,NA,NA,NA,NA,NA,NA,NA,NA,NA,NA,NA,NA,NA,NA,NA,NA,NA,NA,NA,NA,NA,NA,NA,NA
b79bf,Practice,flow.Sequence,1,NA,NA,completion,92257.54,59017,59017.24,59022.86,151280.4,151286,2023-10-13T07:38:37Z,151297.06,NULL,NA,NA,NA,NA,NA,NA,NA,NA,NA,NA,NA,NA,NA,NA,NA,NA,NA,NA,NA,NA,NA,NA,NA,NA,NA,NA,NA,NA,NA
b79bf,Experiment start,canvas.Screen,2,weiter,keypress(q),response,11895.94,151286,151280.4,151297.06,163193,163199,2023-10-13T07:38:49Z,163425.22,NULL,NA,NA,NA,NA,NA,NA,NA,NA,NA,NA,NA,NA,NA,NA,NA,NA,NA,NA,NA,NA,NA,NA,NA,NA,NA,NA,NA,NA,NA
b79bf,Deep Question,html.Page,3_0_0_0_0_0_0,NA,NA,form submission,6229.78,163425,163424.86,163425.22,169655,169656,2023-10-13T07:38:56Z,169665.26,NULL,Stimmung,kinyongo,d,NA,NA,NA,sti,NA,NA,0,NA,NA,NA,NA,NA,NA,NA,NA,NA,NA,NA,NA,NA,NA,NA,NA,NA,NA,NA
b79bf,"""Richtig""-Screen",canvas.Screen,3_0_0_0_0_0_1,NA,NA,skipped,NA,169657,NA,NA,169655,169658,2023-10-13T07:38:56Z,169665.26,NULL,Stimmung,kinyongo,d,NA,NA,NA,NA,sdf,NA,0,NA,NA,NA,NA,NA,NA,NA,NA,NA,NA,NA,NA,NA,NA,NA,NA,NA,NA,NA
b79bf,"""Falsch""-Screen",canvas.Screen,3_0_0_0_0_0_2,NA,NA,timeout,4995.96,169660,169653.48,169665.26,174644.56,174646,2023-10-13T07:39:01Z,174661.22,NULL,Stimmung,kinyongo,d,NA,NA,NA,NA,sdf,0,0,NA,NA,NA,NA,NA,NA,NA,NA,NA,NA,NA,NA,NA,NA,NA,NA,NA,NA,NA
b79bf,deep,flow.Sequence,3_0_0_0_0_0,NA,NA,completion,11219.34,163425,163424.86,163425.22,174644.56,174647,2023-10-13T07:39:01Z,174661.22,NULL,Stimmung,kinyongo,d,NA,NA,NA,NA,sdf,NA,0,NA,NA,NA,NA,NA,NA,NA,NA,NA,NA,NA,NA,NA,NA,NA,NA,NA,NA,NA
b79bf,shallow,flow.Sequence,3_0_0_0_0_1,NA,NA,skipped,NA,174648,NA,NA,174644.56,174648,2023-10-13T07:39:01Z,174661.22,NULL,Stimmung,kinyongo,d,NA,NA,NA,NA,sdf,NA,0,NA,NA,NA,NA,NA,NA,NA,NA,NA,NA,NA,NA,NA,NA,NA,NA,NA,NA,NA
b79bf,task,flow.Sequence,3_0_0_0_0,NA,NA,completion,11219.34,163425,163424.86,163425.22,174644.56,174648,2023-10-13T07:39:01Z,174661.22,NULL,Stimmung,kinyongo,d,NA,NA,NA,NA,sdf,NA,0,NA,NA,NA,NA,NA,NA,NA,NA,NA,NA,NA,NA,NA,NA,NA,NA,NA,NA,NA
b79bf,deep,flow.Sequence,3_0_0_0_1_0,NA,NA,skipped,NA,174649,NA,NA,174644.56,174649,2023-10-13T07:39:01Z,174661.22,NULL,Kreativität,ubunifu,s,mratibu,mwendelezo,makubaliano,NA,sdf,NA,0,NA,NA,NA,NA,NA,NA,NA,NA,NA,NA,NA,NA,NA,NA,NA,NA,NA,NA,NA
b79bf,Shallow Question,html.Page,3_0_0_0_1_1_0,NA,NA,form submission,7736.78,174650,174644.56,174661.22,182398,182398,2023-10-13T07:39:08Z,182404.76,NULL,Kreativität,ubunifu,s,mratibu,mwendelezo,makubaliano,makubaliano,NA,NA,0,NA,NA,NA,NA,NA,NA,NA,NA,NA,NA,NA,NA,NA,NA,NA,NA,NA,NA,NA
b79bf,"""Richtig""-Screen",canvas.Screen,3_0_0_0_1_1_1,NA,NA,skipped,NA,182400,NA,NA,182398,182400,2023-10-13T07:39:08Z,182404.76,NULL,Kreativität,ubunifu,s,mratibu,mwendelezo,makubaliano,NA,sdf,NA,0,NA,NA,NA,NA,NA,NA,NA,NA,NA,NA,NA,NA,NA,NA,NA,NA,NA,NA,NA
b79bf,"""Falsch""-Screen",canvas.Screen,3_0_0_0_1_1_2,NA,NA,timeout,4995.96,182401,182395.76,182404.76,187384.1,187390,2023-10-13T07:39:13Z,187400.72,NULL,Kreativität,ubunifu,s,mratibu,mwendelezo,makubaliano,NA,sdf,0,0,NA,NA,NA,NA,NA,NA,NA,NA,NA,NA,NA,NA,NA,NA,NA,NA,NA,NA,NA
b79bf,shallow,flow.Sequence,3_0_0_0_1_1,NA,NA,completion,12722.88,174649,174644.56,174661.22,187384.1,187394,2023-10-13T07:39:13Z,187400.72,NULL,Kreativität,ubunifu,s,mratibu,mwendelezo,makubaliano,NA,sdf,NA,0,NA,NA,NA,NA,NA,NA,NA,NA,NA,NA,NA,NA,NA,NA,NA,NA,NA,NA,NA
b79bf,task,flow.Sequence,3_0_0_0_1,NA,NA,completion,12722.88,174649,174644.56,174661.22,187384.1,187395,2023-10-13T07:39:13Z,187400.72,NULL,Kreativität,ubunifu,s,mratibu,mwendelezo,makubaliano,NA,sdf,NA,0,NA,NA,NA,NA,NA,NA,NA,NA,NA,NA,NA,NA,NA,NA,NA,NA,NA,NA,NA
b79bf,deep,flow.Sequence,3_0_0_0_2_0,NA,NA,skipped,NA,187396,NA,NA,187384.1,187396,2023-10-13T07:39:13Z,187400.72,NULL,Respekt,heshima,s,changamnao,upinzani,ufanisi,NA,sdf,NA,0,NA,NA,NA,NA,NA,NA,NA,NA,NA,NA,NA,NA,NA,NA,NA,NA,NA,NA,NA
b79bf,Shallow Question,html.Page,3_0_0_0_2_1_0,NA,NA,form submission,4631.28,187397,187384.1,187400.72,192032,192032,2023-10-13T07:39:18Z,192046.86,NULL,Respekt,heshima,s,changamnao,upinzani,ufanisi,changamnao,NA,NA,0,NA,NA,NA,NA,NA,NA,NA,NA,NA,NA,NA,NA,NA,NA,NA,NA,NA,NA,NA
b79bf,"""Richtig""-Screen",canvas.Screen,3_0_0_0_2_1_1,NA,NA,skipped,NA,192039,NA,NA,192032,192039,2023-10-13T07:39:18Z,192046.86,NULL,Respekt,heshima,s,changamnao,upinzani,ufanisi,NA,sdf,NA,0,NA,NA,NA,NA,NA,NA,NA,NA,NA,NA,NA,NA,NA,NA,NA,NA,NA,NA,NA
b79bf,"""Falsch""-Screen",canvas.Screen,3_0_0_0_2_1_2,NA,NA,timeout,4996,192044,192027.16,192046.86,197026.22,197028,2023-10-13T07:39:23Z,197042.86,NULL,Respekt,heshima,s,changamnao,upinzani,ufanisi,NA,sdf,0,0,NA,NA,NA,NA,NA,NA,NA,NA,NA,NA,NA,NA,NA,NA,NA,NA,NA,NA,NA
b79bf,shallow,flow.Sequence,3_0_0_0_2_1,NA,NA,completion,9625.5,187397,187384.1,187400.72,197026.22,197029,2023-10-13T07:39:23Z,197042.86,NULL,Respekt,heshima,s,changamnao,upinzani,ufanisi,NA,sdf,NA,0,NA,NA,NA,NA,NA,NA,NA,NA,NA,NA,NA,NA,NA,NA,NA,NA,NA,NA,NA
b79bf,task,flow.Sequence,3_0_0_0_2,NA,NA,completion,9625.5,187396,187384.1,187400.72,197026.22,197030,2023-10-13T07:39:23Z,197042.86,NULL,Respekt,heshima,s,changamnao,upinzani,ufanisi,NA,sdf,NA,0,NA,NA,NA,NA,NA,NA,NA,NA,NA,NA,NA,NA,NA,NA,NA,NA,NA,NA,NA
b79bf,deep,flow.Sequence,3_0_0_0_3_0,NA,NA,skipped,NA,197030,NA,NA,197026.22,197031,2023-10-13T07:39:23Z,197042.86,NULL,Können,unaweza,s,kiongozi,bustani,mienendo,NA,sdf,NA,0,NA,NA,NA,NA,NA,NA,NA,NA,NA,NA,NA,NA,NA,NA,NA,NA,NA,NA,NA
b79bf,Shallow Question,html.Page,3_0_0_0_3_1_0,NA,NA,form submission,4300.14,197032,197026.22,197042.86,201343,201343,2023-10-13T07:39:27Z,201355.74,NULL,Können,unaweza,s,kiongozi,bustani,mienendo,bustani,NA,NA,0,NA,NA,NA,NA,NA,NA,NA,NA,NA,NA,NA,NA,NA,NA,NA,NA,NA,NA,NA
b79bf,"""Richtig""-Screen",canvas.Screen,3_0_0_0_3_1_1,NA,NA,skipped,NA,201346,NA,NA,201343,201346,2023-10-13T07:39:27Z,201355.74,NULL,Können,unaweza,s,kiongozi,bustani,mienendo,NA,sdf,NA,0,NA,NA,NA,NA,NA,NA,NA,NA,NA,NA,NA,NA,NA,NA,NA,NA,NA,NA,NA
b79bf,"""Falsch""-Screen",canvas.Screen,3_0_0_0_3_1_2,NA,NA,timeout,4996.06,201349,201340.08,201355.74,206335.16,206336,2023-10-13T07:39:32Z,206351.8,NULL,Können,unaweza,s,kiongozi,bustani,mienendo,NA,sdf,0,0,NA,NA,NA,NA,NA,NA,NA,NA,NA,NA,NA,NA,NA,NA,NA,NA,NA,NA,NA
b79bf,shallow,flow.Sequence,3_0_0_0_3_1,NA,NA,completion,9292.3,197031,197026.22,197042.86,206335.16,206338,2023-10-13T07:39:32Z,206351.8,NULL,Können,unaweza,s,kiongozi,bustani,mienendo,NA,sdf,NA,0,NA,NA,NA,NA,NA,NA,NA,NA,NA,NA,NA,NA,NA,NA,NA,NA,NA,NA,NA
b79bf,task,flow.Sequence,3_0_0_0_3,NA,NA,completion,9292.3,197030,197026.22,197042.86,206335.16,206339,2023-10-13T07:39:32Z,206351.8,NULL,Können,unaweza,s,kiongozi,bustani,mienendo,NA,sdf,NA,0,NA,NA,NA,NA,NA,NA,NA,NA,NA,NA,NA,NA,NA,NA,NA,NA,NA,NA,NA
b79bf,Deep Question,html.Page,3_0_0_0_4_0_0,NA,NA,form submission,3522.2,206339,206335.16,206351.8,209874,209874,2023-10-13T07:39:36Z,209882.12,NULL,Kontrolle,kudhibiti,d,NA,NA,NA,ko,NA,NA,0,NA,NA,NA,NA,NA,NA,NA,NA,NA,NA,NA,NA,NA,NA,NA,NA,NA,NA,NA
b79bf,"""Richtig""-Screen",canvas.Screen,3_0_0_0_4_0_1,NA,NA,skipped,NA,209876,NA,NA,209874,209876,2023-10-13T07:39:36Z,209882.12,NULL,Kontrolle,kudhibiti,d,NA,NA,NA,NA,sdf,NA,0,NA,NA,NA,NA,NA,NA,NA,NA,NA,NA,NA,NA,NA,NA,NA,NA,NA,NA,NA
b79bf,"""Falsch""-Screen",canvas.Screen,3_0_0_0_4_0_2,NA,NA,timeout,4996,209879,209871.7,209882.12,214861.48,214863,2023-10-13T07:39:41Z,214878.12,NULL,Kontrolle,kudhibiti,d,NA,NA,NA,NA,sdf,0,0,NA,NA,NA,NA,NA,NA,NA,NA,NA,NA,NA,NA,NA,NA,NA,NA,NA,NA,NA
b79bf,deep,flow.Sequence,3_0_0_0_4_0,NA,NA,completion,8509.68,206339,206335.16,206351.8,214861.48,214864,2023-10-13T07:39:41Z,214878.12,NULL,Kontrolle,kudhibiti,d,NA,NA,NA,NA,sdf,NA,0,NA,NA,NA,NA,NA,NA,NA,NA,NA,NA,NA,NA,NA,NA,NA,NA,NA,NA,NA
b79bf,shallow,flow.Sequence,3_0_0_0_4_1,NA,NA,skipped,NA,214864,NA,NA,214861.48,214865,2023-10-13T07:39:41Z,214878.12,NULL,Kontrolle,kudhibiti,d,NA,NA,NA,NA,sdf,NA,0,NA,NA,NA,NA,NA,NA,NA,NA,NA,NA,NA,NA,NA,NA,NA,NA,NA,NA,NA
b79bf,task,flow.Sequence,3_0_0_0_4,NA,NA,completion,8509.68,206339,206335.16,206351.8,214861.48,214866,2023-10-13T07:39:41Z,214878.12,NULL,Kontrolle,kudhibiti,d,NA,NA,NA,NA,sdf,NA,0,NA,NA,NA,NA,NA,NA,NA,NA,NA,NA,NA,NA,NA,NA,NA,NA,NA,NA,NA
b79bf,Deep Question,html.Page,3_0_0_0_5_0_0,NA,NA,form submission,4439.88,214867,214861.48,214878.12,219318,219318,2023-10-13T07:39:45Z,219324.42,NULL,Gefährdung,kuhatarisha,d,NA,NA,NA,ge,NA,NA,0,NA,NA,NA,NA,NA,NA,NA,NA,NA,NA,NA,NA,NA,NA,NA,NA,NA,NA,NA
b79bf,"""Richtig""-Screen",canvas.Screen,3_0_0_0_5_0_1,NA,NA,skipped,NA,219321,NA,NA,219318,219321,2023-10-13T07:39:45Z,219324.42,NULL,Gefährdung,kuhatarisha,d,NA,NA,NA,NA,sdf,NA,0,NA,NA,NA,NA,NA,NA,NA,NA,NA,NA,NA,NA,NA,NA,NA,NA,NA,NA,NA
b79bf,"""Falsch""-Screen",canvas.Screen,3_0_0_0_5_0_2,NA,NA,timeout,4995.94,219324,219315.88,219324.42,224303.7,224305,2023-10-13T07:39:50Z,224320.36,NULL,Gefährdung,kuhatarisha,d,NA,NA,NA,NA,sdf,0,0,NA,NA,NA,NA,NA,NA,NA,NA,NA,NA,NA,NA,NA,NA,NA,NA,NA,NA,NA
b79bf,deep,flow.Sequence,3_0_0_0_5_0,NA,NA,completion,9425.58,214866,214861.48,214878.12,224303.7,224306,2023-10-13T07:39:50Z,224320.36,NULL,Gefährdung,kuhatarisha,d,NA,NA,NA,NA,sdf,NA,0,NA,NA,NA,NA,NA,NA,NA,NA,NA,NA,NA,NA,NA,NA,NA,NA,NA,NA,NA
b79bf,shallow,flow.Sequence,3_0_0_0_5_1,NA,NA,skipped,NA,224306,NA,NA,224303.7,224306,2023-10-13T07:39:50Z,224320.36,NULL,Gefährdung,kuhatarisha,d,NA,NA,NA,NA,sdf,NA,0,NA,NA,NA,NA,NA,NA,NA,NA,NA,NA,NA,NA,NA,NA,NA,NA,NA,NA,NA
b79bf,task,flow.Sequence,3_0_0_0_5,NA,NA,completion,9425.58,214866,214861.48,214878.12,224303.7,224307,2023-10-13T07:39:50Z,224320.36,NULL,Gefährdung,kuhatarisha,d,NA,NA,NA,NA,sdf,NA,0,NA,NA,NA,NA,NA,NA,NA,NA,NA,NA,NA,NA,NA,NA,NA,NA,NA,NA,NA
b79bf,Deep Question,html.Page,3_0_0_0_6_0_0,NA,NA,form submission,4232.64,224307,224303.7,224320.36,228553,228553,2023-10-13T07:39:55Z,228550.16,NULL,Betrüger,mdanganyifu,d,NA,NA,NA,be,NA,NA,0,NA,NA,NA,NA,NA,NA,NA,NA,NA,NA,NA,NA,NA,NA,NA,NA,NA,NA,NA
b79bf,"""Richtig""-Screen",canvas.Screen,3_0_0_0_6_0_1,NA,NA,skipped,NA,228555,NA,NA,228553,228555,2023-10-13T07:39:55Z,228550.16,NULL,Betrüger,mdanganyifu,d,NA,NA,NA,NA,sdf,NA,0,NA,NA,NA,NA,NA,NA,NA,NA,NA,NA,NA,NA,NA,NA,NA,NA,NA,NA,NA
b79bf,"""Falsch""-Screen",canvas.Screen,3_0_0_0_6_0_2,NA,NA,timeout,4995.96,228557,228549.66,228550.16,233529.46,233532,2023-10-13T07:40:00Z,233546.12,NULL,Betrüger,mdanganyifu,d,NA,NA,NA,NA,sdf,0,0,NA,NA,NA,NA,NA,NA,NA,NA,NA,NA,NA,NA,NA,NA,NA,NA,NA,NA,NA
b79bf,deep,flow.Sequence,3_0_0_0_6_0,NA,NA,completion,9209.1,224307,224303.7,224320.36,233529.46,233532,2023-10-13T07:40:00Z,233546.12,NULL,Betrüger,mdanganyifu,d,NA,NA,NA,NA,sdf,NA,0,NA,NA,NA,NA,NA,NA,NA,NA,NA,NA,NA,NA,NA,NA,NA,NA,NA,NA,NA
b79bf,shallow,flow.Sequence,3_0_0_0_6_1,NA,NA,skipped,NA,233533,NA,NA,233529.46,233534,2023-10-13T07:40:00Z,233546.12,NULL,Betrüger,mdanganyifu,d,NA,NA,NA,NA,sdf,NA,0,NA,NA,NA,NA,NA,NA,NA,NA,NA,NA,NA,NA,NA,NA,NA,NA,NA,NA,NA
b79bf,task,flow.Sequence,3_0_0_0_6,NA,NA,completion,9209.1,224307,224303.7,224320.36,233529.46,233534,2023-10-13T07:40:00Z,233546.12,NULL,Betrüger,mdanganyifu,d,NA,NA,NA,NA,sdf,NA,0,NA,NA,NA,NA,NA,NA,NA,NA,NA,NA,NA,NA,NA,NA,NA,NA,NA,NA,NA
b79bf,deep,flow.Sequence,3_0_0_0_7_0,NA,NA,skipped,NA,233535,NA,NA,233529.46,233535,2023-10-13T07:40:00Z,233546.12,NULL,Orientierung,urekebisho,s,uelekeo,marekebisho,utunzaji,NA,sdf,NA,0,NA,NA,NA,NA,NA,NA,NA,NA,NA,NA,NA,NA,NA,NA,NA,NA,NA,NA,NA
b79bf,Shallow Question,html.Page,3_0_0_0_7_1_0,NA,NA,form submission,6349.88,233537,233529.46,233546.12,239896,239896,2023-10-13T07:40:06Z,239907.56,NULL,Orientierung,urekebisho,s,uelekeo,marekebisho,utunzaji,marekebisho,NA,NA,0,NA,NA,NA,NA,NA,NA,NA,NA,NA,NA,NA,NA,NA,NA,NA,NA,NA,NA,NA
b79bf,"""Richtig""-Screen",canvas.Screen,3_0_0_0_7_1_1,NA,NA,skipped,NA,239898,NA,NA,239896,239898,2023-10-13T07:40:06Z,239907.56,NULL,Orientierung,urekebisho,s,uelekeo,marekebisho,utunzaji,NA,sdf,NA,0,NA,NA,NA,NA,NA,NA,NA,NA,NA,NA,NA,NA,NA,NA,NA,NA,NA,NA,NA
b79bf,"""Falsch""-Screen",canvas.Screen,3_0_0_0_7_1_2,NA,NA,timeout,4995.9,239901,239893.72,239907.56,244886.8,244894,2023-10-13T07:40:11Z,244903.46,NULL,Orientierung,urekebisho,s,uelekeo,marekebisho,utunzaji,NA,sdf,0,0,NA,NA,NA,NA,NA,NA,NA,NA,NA,NA,NA,NA,NA,NA,NA,NA,NA,NA,NA
b79bf,shallow,flow.Sequence,3_0_0_0_7_1,NA,NA,completion,11340.68,233537,233529.46,233546.12,244886.8,244896,2023-10-13T07:40:11Z,244903.46,NULL,Orientierung,urekebisho,s,uelekeo,marekebisho,utunzaji,NA,sdf,NA,0,NA,NA,NA,NA,NA,NA,NA,NA,NA,NA,NA,NA,NA,NA,NA,NA,NA,NA,NA
b79bf,task,flow.Sequence,3_0_0_0_7,NA,NA,completion,11340.68,233535,233529.46,233546.12,244886.8,244897,2023-10-13T07:40:11Z,244903.46,NULL,Orientierung,urekebisho,s,uelekeo,marekebisho,utunzaji,NA,sdf,NA,0,NA,NA,NA,NA,NA,NA,NA,NA,NA,NA,NA,NA,NA,NA,NA,NA,NA,NA,NA
b79bf,block,flow.Loop,3_0_0_0,NA,NA,completion,81461.58,163425,163424.86,163425.22,244886.8,244898,2023-10-13T07:40:11Z,244903.46,NULL,NA,NA,NA,NA,NA,NA,NA,sdf,NA,0,NA,NA,NA,NA,NA,NA,NA,NA,NA,NA,NA,NA,NA,NA,NA,NA,NA,NA,NA
b79bf,weiter,canvas.Screen,3_0_0_1,sdf,keypress(Space),response,1928.54,244899,244886.8,244903.46,246832,246850,2023-10-13T07:40:13Z,247035.1,NULL,NA,NA,NA,NA,NA,NA,NA,sdf,NA,0,NA,NA,NA,NA,NA,NA,NA,NA,NA,NA,NA,NA,NA,NA,NA,NA,NA,NA,NA
b79bf,check continue,flow.Sequence,3_0_0,NA,NA,completion,83406.78,163425,163424.86,163425.22,246832,246851,2023-10-13T07:40:13Z,247035.1,NULL,NA,NA,NA,NA,NA,NA,NA,sdf,NA,0,NA,NA,NA,NA,NA,NA,NA,NA,NA,NA,NA,NA,NA,NA,NA,NA,NA,NA,NA
b79bf,Deep Question,html.Page,3_0_1_0_0_0_0,NA,NA,form submission,4675.9,247031,247030.42,247035.1,251711,251711,2023-10-13T07:40:18Z,251714.46,NULL,Stimmung,kinyongo,d,NA,NA,NA,st,NA,NA,1,NA,NA,NA,NA,NA,NA,NA,NA,NA,NA,NA,NA,NA,NA,NA,NA,NA,NA,NA
b79bf,"""Richtig""-Screen",canvas.Screen,3_0_1_0_0_0_1,NA,NA,skipped,NA,251715,NA,NA,251711,251716,2023-10-13T07:40:18Z,251714.46,NULL,Stimmung,kinyongo,d,NA,NA,NA,NA,sdfdsf,NA,1,NA,NA,NA,NA,NA,NA,NA,NA,NA,NA,NA,NA,NA,NA,NA,NA,NA,NA,NA
b79bf,"""Falsch""-Screen",canvas.Screen,3_0_1_0_0_0_2,NA,NA,timeout,4999.6,251720,251705.6,251714.46,256693.76,256695,2023-10-13T07:40:23Z,256714.06,NULL,Stimmung,kinyongo,d,NA,NA,NA,NA,sdfdsf,0,1,NA,NA,NA,NA,NA,NA,NA,NA,NA,NA,NA,NA,NA,NA,NA,NA,NA,NA,NA
b79bf,deep,flow.Sequence,3_0_1_0_0_0,NA,NA,completion,9658.66,247031,247030.42,247035.1,256693.76,256696,2023-10-13T07:40:23Z,256714.06,NULL,Stimmung,kinyongo,d,NA,NA,NA,NA,sdfdsf,NA,1,NA,NA,NA,NA,NA,NA,NA,NA,NA,NA,NA,NA,NA,NA,NA,NA,NA,NA,NA
b79bf,shallow,flow.Sequence,3_0_1_0_0_1,NA,NA,skipped,NA,256697,NA,NA,256693.76,256697,2023-10-13T07:40:23Z,256714.06,NULL,Stimmung,kinyongo,d,NA,NA,NA,NA,sdfdsf,NA,1,NA,NA,NA,NA,NA,NA,NA,NA,NA,NA,NA,NA,NA,NA,NA,NA,NA,NA,NA
b79bf,task,flow.Sequence,3_0_1_0_0,NA,NA,completion,9658.66,247031,247030.42,247035.1,256693.76,256698,2023-10-13T07:40:23Z,256714.06,NULL,Stimmung,kinyongo,d,NA,NA,NA,NA,sdfdsf,NA,1,NA,NA,NA,NA,NA,NA,NA,NA,NA,NA,NA,NA,NA,NA,NA,NA,NA,NA,NA
b79bf,deep,flow.Sequence,3_0_1_0_1_0,NA,NA,skipped,NA,256699,NA,NA,256693.76,256699,2023-10-13T07:40:23Z,256714.06,NULL,Orientierung,urekebisho,s,uelekeo,marekebisho,utunzaji,NA,sdfdsf,NA,1,NA,NA,NA,NA,NA,NA,NA,NA,NA,NA,NA,NA,NA,NA,NA,NA,NA,NA,NA
b79bf,Shallow Question,html.Page,3_0_1_0_1_1_0,NA,NA,form submission,16313.94,256700,256693.76,256714.06,273028,273029,2023-10-13T07:40:39Z,273046.92,NULL,Orientierung,urekebisho,s,uelekeo,marekebisho,utunzaji,urekebisho,NA,NA,1,NA,NA,NA,NA,NA,NA,NA,NA,NA,NA,NA,NA,NA,NA,NA,NA,NA,NA,NA
b79bf,"""Richtig""-Screen",canvas.Screen,3_0_1_0_1_1_1,NA,NA,timeout,4995.98,273030,273025.52,273046.92,278026.24,278028,2023-10-13T07:40:44Z,278042.9,NULL,Orientierung,urekebisho,s,uelekeo,marekebisho,utunzaji,NA,sdfdsf,1,1,NA,NA,NA,NA,NA,NA,NA,NA,NA,NA,NA,NA,NA,NA,NA,NA,NA,NA,NA
b79bf,"""Falsch""-Screen",canvas.Screen,3_0_1_0_1_1_2,NA,NA,skipped,NA,278035,NA,NA,278026.24,278035,2023-10-13T07:40:44Z,278042.9,NULL,Orientierung,urekebisho,s,uelekeo,marekebisho,utunzaji,NA,sdfdsf,NA,1,NA,NA,NA,NA,NA,NA,NA,NA,NA,NA,NA,NA,NA,NA,NA,NA,NA,NA,NA
b79bf,shallow,flow.Sequence,3_0_1_0_1_1,NA,NA,completion,21312.18,256700,256693.76,256714.06,278026.24,278036,2023-10-13T07:40:44Z,278042.9,NULL,Orientierung,urekebisho,s,uelekeo,marekebisho,utunzaji,NA,sdfdsf,NA,1,NA,NA,NA,NA,NA,NA,NA,NA,NA,NA,NA,NA,NA,NA,NA,NA,NA,NA,NA
b79bf,task,flow.Sequence,3_0_1_0_1,NA,NA,completion,21312.18,256698,256693.76,256714.06,278026.24,278036,2023-10-13T07:40:44Z,278042.9,NULL,Orientierung,urekebisho,s,uelekeo,marekebisho,utunzaji,NA,sdfdsf,NA,1,NA,NA,NA,NA,NA,NA,NA,NA,NA,NA,NA,NA,NA,NA,NA,NA,NA,NA,NA
b79bf,Deep Question,html.Page,3_0_1_0_2_0_0,NA,NA,form submission,4260.1,278037,278026.24,278042.9,282303,282303,2023-10-13T07:40:48Z,282305.92,NULL,Gefährdung,kuhatarisha,d,NA,NA,NA,ge,NA,NA,1,NA,NA,NA,NA,NA,NA,NA,NA,NA,NA,NA,NA,NA,NA,NA,NA,NA,NA,NA
b79bf,"""Richtig""-Screen",canvas.Screen,3_0_1_0_2_0_1,NA,NA,skipped,NA,282305,NA,NA,282303,282305,2023-10-13T07:40:48Z,282305.92,NULL,Gefährdung,kuhatarisha,d,NA,NA,NA,NA,sdfdsf,NA,1,NA,NA,NA,NA,NA,NA,NA,NA,NA,NA,NA,NA,NA,NA,NA,NA,NA,NA,NA
b79bf,"""Falsch""-Screen",canvas.Screen,3_0_1_0_2_0_2,NA,NA,timeout,4996.04,282308,282300.12,282305.92,287285.3,287287,2023-10-13T07:40:53Z,287301.96,NULL,Gefährdung,kuhatarisha,d,NA,NA,NA,NA,sdfdsf,0,1,NA,NA,NA,NA,NA,NA,NA,NA,NA,NA,NA,NA,NA,NA,NA,NA,NA,NA,NA
b79bf,deep,flow.Sequence,3_0_1_0_2_0,NA,NA,completion,9242.4,278037,278026.24,278042.9,287285.3,287287,2023-10-13T07:40:53Z,287301.96,NULL,Gefährdung,kuhatarisha,d,NA,NA,NA,NA,sdfdsf,NA,1,NA,NA,NA,NA,NA,NA,NA,NA,NA,NA,NA,NA,NA,NA,NA,NA,NA,NA,NA
b79bf,shallow,flow.Sequence,3_0_1_0_2_1,NA,NA,skipped,NA,287288,NA,NA,287285.3,287288,2023-10-13T07:40:53Z,287301.96,NULL,Gefährdung,kuhatarisha,d,NA,NA,NA,NA,sdfdsf,NA,1,NA,NA,NA,NA,NA,NA,NA,NA,NA,NA,NA,NA,NA,NA,NA,NA,NA,NA,NA
b79bf,task,flow.Sequence,3_0_1_0_2,NA,NA,completion,9242.4,278036,278026.24,278042.9,287285.3,287288,2023-10-13T07:40:53Z,287301.96,NULL,Gefährdung,kuhatarisha,d,NA,NA,NA,NA,sdfdsf,NA,1,NA,NA,NA,NA,NA,NA,NA,NA,NA,NA,NA,NA,NA,NA,NA,NA,NA,NA,NA
b79bf,deep,flow.Sequence,3_0_1_0_3_0,NA,NA,skipped,NA,287289,NA,NA,287285.3,287289,2023-10-13T07:40:53Z,287301.96,NULL,Kreativität,ubunifu,s,mratibu,mwendelezo,makubaliano,NA,sdfdsf,NA,1,NA,NA,NA,NA,NA,NA,NA,NA,NA,NA,NA,NA,NA,NA,NA,NA,NA,NA,NA
b79bf,Shallow Question,html.Page,3_0_1_0_3_1_0,NA,NA,form submission,19156.04,287289,287285.3,287301.96,306458,306458,2023-10-13T07:41:12Z,306469.48,NULL,Kreativität,ubunifu,s,mratibu,mwendelezo,makubaliano,ubunifu,NA,NA,1,NA,NA,NA,NA,NA,NA,NA,NA,NA,NA,NA,NA,NA,NA,NA,NA,NA,NA,NA
b79bf,"""Richtig""-Screen",canvas.Screen,3_0_1_0_3_1_1,NA,NA,timeout,4995.92,306459,306455.8,306469.48,311448.74,311450,2023-10-13T07:41:17Z,311465.4,NULL,Kreativität,ubunifu,s,mratibu,mwendelezo,makubaliano,NA,sdfdsf,1,1,NA,NA,NA,NA,NA,NA,NA,NA,NA,NA,NA,NA,NA,NA,NA,NA,NA,NA,NA
b79bf,"""Falsch""-Screen",canvas.Screen,3_0_1_0_3_1_2,NA,NA,skipped,NA,311457,NA,NA,311448.74,311457,2023-10-13T07:41:17Z,311465.4,NULL,Kreativität,ubunifu,s,mratibu,mwendelezo,makubaliano,NA,sdfdsf,NA,1,NA,NA,NA,NA,NA,NA,NA,NA,NA,NA,NA,NA,NA,NA,NA,NA,NA,NA,NA
b79bf,shallow,flow.Sequence,3_0_1_0_3_1,NA,NA,completion,24146.78,287289,287285.3,287301.96,311448.74,311458,2023-10-13T07:41:17Z,311465.4,NULL,Kreativität,ubunifu,s,mratibu,mwendelezo,makubaliano,NA,sdfdsf,NA,1,NA,NA,NA,NA,NA,NA,NA,NA,NA,NA,NA,NA,NA,NA,NA,NA,NA,NA,NA
b79bf,task,flow.Sequence,3_0_1_0_3,NA,NA,completion,24146.78,287289,287285.3,287301.96,311448.74,311458,2023-10-13T07:41:17Z,311465.4,NULL,Kreativität,ubunifu,s,mratibu,mwendelezo,makubaliano,NA,sdfdsf,NA,1,NA,NA,NA,NA,NA,NA,NA,NA,NA,NA,NA,NA,NA,NA,NA,NA,NA,NA,NA
b79bf,Deep Question,html.Page,3_0_1_0_4_0_0,NA,NA,form submission,4135.6,311458,311448.74,311465.4,315601,315601,2023-10-13T07:41:22Z,315612,NULL,Betrüger,mdanganyifu,d,NA,NA,NA,be,NA,NA,1,NA,NA,NA,NA,NA,NA,NA,NA,NA,NA,NA,NA,NA,NA,NA,NA,NA,NA,NA
b79bf,"""Richtig""-Screen",canvas.Screen,3_0_1_0_4_0_1,NA,NA,skipped,NA,315603,NA,NA,315601,315603,2023-10-13T07:41:22Z,315612,NULL,Betrüger,mdanganyifu,d,NA,NA,NA,NA,sdfdsf,NA,1,NA,NA,NA,NA,NA,NA,NA,NA,NA,NA,NA,NA,NA,NA,NA,NA,NA,NA,NA
b79bf,"""Falsch""-Screen",canvas.Screen,3_0_1_0_4_0_2,NA,NA,timeout,4995.9,315605,315595.78,315612,320591.26,320593,2023-10-13T07:41:27Z,320607.9,NULL,Betrüger,mdanganyifu,d,NA,NA,NA,NA,sdfdsf,0,1,NA,NA,NA,NA,NA,NA,NA,NA,NA,NA,NA,NA,NA,NA,NA,NA,NA,NA,NA
b79bf,deep,flow.Sequence,3_0_1_0_4_0,NA,NA,completion,9125.86,311458,311448.74,311465.4,320591.26,320594,2023-10-13T07:41:27Z,320607.9,NULL,Betrüger,mdanganyifu,d,NA,NA,NA,NA,sdfdsf,NA,1,NA,NA,NA,NA,NA,NA,NA,NA,NA,NA,NA,NA,NA,NA,NA,NA,NA,NA,NA
b79bf,shallow,flow.Sequence,3_0_1_0_4_1,NA,NA,skipped,NA,320594,NA,NA,320591.26,320594,2023-10-13T07:41:27Z,320607.9,NULL,Betrüger,mdanganyifu,d,NA,NA,NA,NA,sdfdsf,NA,1,NA,NA,NA,NA,NA,NA,NA,NA,NA,NA,NA,NA,NA,NA,NA,NA,NA,NA,NA
b79bf,task,flow.Sequence,3_0_1_0_4,NA,NA,completion,9125.86,311458,311448.74,311465.4,320591.26,320595,2023-10-13T07:41:27Z,320607.9,NULL,Betrüger,mdanganyifu,d,NA,NA,NA,NA,sdfdsf,NA,1,NA,NA,NA,NA,NA,NA,NA,NA,NA,NA,NA,NA,NA,NA,NA,NA,NA,NA,NA
b79bf,Deep Question,html.Page,3_0_1_0_5_0_0,NA,NA,form submission,4326.1,320595,320591.26,320607.9,324934,324934,2023-10-13T07:41:31Z,324937.46,NULL,Kontrolle,kudhibiti,d,NA,NA,NA,ko,NA,NA,1,NA,NA,NA,NA,NA,NA,NA,NA,NA,NA,NA,NA,NA,NA,NA,NA,NA,NA,NA
b79bf,"""Richtig""-Screen",canvas.Screen,3_0_1_0_5_0_1,NA,NA,skipped,NA,324936,NA,NA,324934,324936,2023-10-13T07:41:31Z,324937.46,NULL,Kontrolle,kudhibiti,d,NA,NA,NA,NA,sdfdsf,NA,1,NA,NA,NA,NA,NA,NA,NA,NA,NA,NA,NA,NA,NA,NA,NA,NA,NA,NA,NA
b79bf,"""Falsch""-Screen",canvas.Screen,3_0_1_0_5_0_2,NA,NA,timeout,4996.12,324939,324931.66,324937.46,329916.92,329918,2023-10-13T07:41:36Z,329933.58,NULL,Kontrolle,kudhibiti,d,NA,NA,NA,NA,sdfdsf,0,1,NA,NA,NA,NA,NA,NA,NA,NA,NA,NA,NA,NA,NA,NA,NA,NA,NA,NA,NA
b79bf,deep,flow.Sequence,3_0_1_0_5_0,NA,NA,completion,9309.02,320595,320591.26,320607.9,329916.92,329919,2023-10-13T07:41:36Z,329933.58,NULL,Kontrolle,kudhibiti,d,NA,NA,NA,NA,sdfdsf,NA,1,NA,NA,NA,NA,NA,NA,NA,NA,NA,NA,NA,NA,NA,NA,NA,NA,NA,NA,NA
b79bf,shallow,flow.Sequence,3_0_1_0_5_1,NA,NA,skipped,NA,329919,NA,NA,329916.92,329919,2023-10-13T07:41:36Z,329933.58,NULL,Kontrolle,kudhibiti,d,NA,NA,NA,NA,sdfdsf,NA,1,NA,NA,NA,NA,NA,NA,NA,NA,NA,NA,NA,NA,NA,NA,NA,NA,NA,NA,NA
b79bf,task,flow.Sequence,3_0_1_0_5,NA,NA,completion,9309.02,320595,320591.26,320607.9,329916.92,329920,2023-10-13T07:41:36Z,329933.58,NULL,Kontrolle,kudhibiti,d,NA,NA,NA,NA,sdfdsf,NA,1,NA,NA,NA,NA,NA,NA,NA,NA,NA,NA,NA,NA,NA,NA,NA,NA,NA,NA,NA
b79bf,deep,flow.Sequence,3_0_1_0_6_0,NA,NA,skipped,NA,329920,NA,NA,329916.92,329921,2023-10-13T07:41:36Z,329933.58,NULL,Können,unaweza,s,kiongozi,bustani,mienendo,NA,sdfdsf,NA,1,NA,NA,NA,NA,NA,NA,NA,NA,NA,NA,NA,NA,NA,NA,NA,NA,NA,NA,NA
b79bf,Shallow Question,html.Page,3_0_1_0_6_1_0,NA,NA,form submission,22742.42,329921,329916.92,329933.58,352676,352676,2023-10-13T07:41:59Z,352681.52,NULL,Können,unaweza,s,kiongozi,bustani,mienendo,unaweza,NA,NA,1,NA,NA,NA,NA,NA,NA,NA,NA,NA,NA,NA,NA,NA,NA,NA,NA,NA,NA,NA
b79bf,"""Richtig""-Screen",canvas.Screen,3_0_1_0_6_1_1,NA,NA,timeout,5012.54,352678,352673.36,352681.52,357660.78,357667,2023-10-13T07:42:04Z,357694.06,NULL,Können,unaweza,s,kiongozi,bustani,mienendo,NA,sdfdsf,1,1,NA,NA,NA,NA,NA,NA,NA,NA,NA,NA,NA,NA,NA,NA,NA,NA,NA,NA,NA
b79bf,"""Falsch""-Screen",canvas.Screen,3_0_1_0_6_1_2,NA,NA,skipped,NA,357688,NA,NA,357660.78,357689,2023-10-13T07:42:04Z,357694.06,NULL,Können,unaweza,s,kiongozi,bustani,mienendo,NA,sdfdsf,NA,1,NA,NA,NA,NA,NA,NA,NA,NA,NA,NA,NA,NA,NA,NA,NA,NA,NA,NA,NA
b79bf,shallow,flow.Sequence,3_0_1_0_6_1,NA,NA,completion,27727.2,329921,329916.92,329933.58,357660.78,357689,2023-10-13T07:42:04Z,357694.06,NULL,Können,unaweza,s,kiongozi,bustani,mienendo,NA,sdfdsf,NA,1,NA,NA,NA,NA,NA,NA,NA,NA,NA,NA,NA,NA,NA,NA,NA,NA,NA,NA,NA
b79bf,task,flow.Sequence,3_0_1_0_6,NA,NA,completion,27727.2,329920,329916.92,329933.58,357660.78,357689,2023-10-13T07:42:04Z,357694.06,NULL,Können,unaweza,s,kiongozi,bustani,mienendo,NA,sdfdsf,NA,1,NA,NA,NA,NA,NA,NA,NA,NA,NA,NA,NA,NA,NA,NA,NA,NA,NA,NA,NA
b79bf,deep,flow.Sequence,3_0_1_0_7_0,NA,NA,skipped,NA,357692,NA,NA,357660.78,357692,2023-10-13T07:42:04Z,357694.06,NULL,Respekt,heshima,s,changamnao,upinzani,ufanisi,NA,sdfdsf,NA,1,NA,NA,NA,NA,NA,NA,NA,NA,NA,NA,NA,NA,NA,NA,NA,NA,NA,NA,NA
b79bf,Shallow Question,html.Page,3_0_1_0_7_1_0,NA,NA,form submission,18356.94,357693,357660.78,357694.06,376051,376052,2023-10-13T07:42:22Z,376062.24,NULL,Respekt,heshima,s,changamnao,upinzani,ufanisi,upinzani,NA,NA,1,NA,NA,NA,NA,NA,NA,NA,NA,NA,NA,NA,NA,NA,NA,NA,NA,NA,NA,NA
b79bf,"""Richtig""-Screen",canvas.Screen,3_0_1_0_7_1_1,NA,NA,skipped,NA,376054,NA,NA,376051,376055,2023-10-13T07:42:22Z,376062.24,NULL,Respekt,heshima,s,changamnao,upinzani,ufanisi,NA,sdfdsf,NA,1,NA,NA,NA,NA,NA,NA,NA,NA,NA,NA,NA,NA,NA,NA,NA,NA,NA,NA,NA
b79bf,"""Falsch""-Screen",canvas.Screen,3_0_1_0_7_1_2,NA,NA,timeout,4995.98,376058,376047.9,376062.24,381041.56,381042,2023-10-13T07:42:27Z,381058.22,NULL,Respekt,heshima,s,changamnao,upinzani,ufanisi,NA,sdfdsf,0,1,NA,NA,NA,NA,NA,NA,NA,NA,NA,NA,NA,NA,NA,NA,NA,NA,NA,NA,NA
b79bf,shallow,flow.Sequence,3_0_1_0_7_1,NA,NA,completion,23347.5,357693,357660.78,357694.06,381041.56,381044,2023-10-13T07:42:27Z,381058.22,NULL,Respekt,heshima,s,changamnao,upinzani,ufanisi,NA,sdfdsf,NA,1,NA,NA,NA,NA,NA,NA,NA,NA,NA,NA,NA,NA,NA,NA,NA,NA,NA,NA,NA
b79bf,task,flow.Sequence,3_0_1_0_7,NA,NA,completion,23347.5,357691,357660.78,357694.06,381041.56,381045,2023-10-13T07:42:27Z,381058.22,NULL,Respekt,heshima,s,changamnao,upinzani,ufanisi,NA,sdfdsf,NA,1,NA,NA,NA,NA,NA,NA,NA,NA,NA,NA,NA,NA,NA,NA,NA,NA,NA,NA,NA
b79bf,block,flow.Loop,3_0_1_0,NA,NA,completion,134006.46,247030,247030.42,247035.1,381041.56,381046,2023-10-13T07:42:27Z,381058.22,NULL,NA,NA,NA,NA,NA,NA,NA,sdfdsf,NA,1,NA,NA,NA,NA,NA,NA,NA,NA,NA,NA,NA,NA,NA,NA,NA,NA,NA,NA,NA
b79bf,weiter,canvas.Screen,3_0_1_1,sdf,keypress(Space),response,1446.78,381047,381041.56,381058.22,382505,382514,2023-10-13T07:42:29Z,382694.64,NULL,NA,NA,NA,NA,NA,NA,NA,sdfdsf,NA,1,NA,NA,NA,NA,NA,NA,NA,NA,NA,NA,NA,NA,NA,NA,NA,NA,NA,NA,NA
b79bf,check continue,flow.Sequence,3_0_1,NA,NA,completion,135469.9,247030,247030.42,247035.1,382505,382514,2023-10-13T07:42:29Z,382694.64,NULL,NA,NA,NA,NA,NA,NA,NA,sdfdsf,NA,1,NA,NA,NA,NA,NA,NA,NA,NA,NA,NA,NA,NA,NA,NA,NA,NA,NA,NA,NA
b79bf,Deep Question,html.Page,3_0_2_0_0_0_0,NA,NA,form submission,3503.36,382694,382694.24,382694.64,386198,386199,2023-10-13T07:42:32Z,386203.88,NULL,Stimmung,kinyongo,d,NA,NA,NA,st,NA,NA,2,NA,NA,NA,NA,NA,NA,NA,NA,NA,NA,NA,NA,NA,NA,NA,NA,NA,NA,NA
b79bf,"""Richtig""-Screen",canvas.Screen,3_0_2_0_0_0_1,NA,NA,skipped,NA,386201,NA,NA,386198,386201,2023-10-13T07:42:32Z,386203.88,NULL,Stimmung,kinyongo,d,NA,NA,NA,NA,sdf,NA,2,NA,NA,NA,NA,NA,NA,NA,NA,NA,NA,NA,NA,NA,NA,NA,NA,NA,NA,NA
b79bf,"""Falsch""-Screen",canvas.Screen,3_0_2_0_0_0_2,NA,NA,timeout,4996,386203,386196.14,386203.88,391183.22,391185,2023-10-13T07:42:37Z,391199.88,NULL,Stimmung,kinyongo,d,NA,NA,NA,NA,sdf,0,2,NA,NA,NA,NA,NA,NA,NA,NA,NA,NA,NA,NA,NA,NA,NA,NA,NA,NA,NA
b79bf,deep,flow.Sequence,3_0_2_0_0_0,NA,NA,completion,8488.58,382694,382694.24,382694.64,391183.22,391185,2023-10-13T07:42:37Z,391199.88,NULL,Stimmung,kinyongo,d,NA,NA,NA,NA,sdf,NA,2,NA,NA,NA,NA,NA,NA,NA,NA,NA,NA,NA,NA,NA,NA,NA,NA,NA,NA,NA
b79bf,shallow,flow.Sequence,3_0_2_0_0_1,NA,NA,skipped,NA,391186,NA,NA,391183.22,391186,2023-10-13T07:42:37Z,391199.88,NULL,Stimmung,kinyongo,d,NA,NA,NA,NA,sdf,NA,2,NA,NA,NA,NA,NA,NA,NA,NA,NA,NA,NA,NA,NA,NA,NA,NA,NA,NA,NA
b79bf,task,flow.Sequence,3_0_2_0_0,NA,NA,completion,8488.58,382694,382694.24,382694.64,391183.22,391187,2023-10-13T07:42:37Z,391199.88,NULL,Stimmung,kinyongo,d,NA,NA,NA,NA,sdf,NA,2,NA,NA,NA,NA,NA,NA,NA,NA,NA,NA,NA,NA,NA,NA,NA,NA,NA,NA,NA
b79bf,Deep Question,html.Page,3_0_2_0_1_0_0,NA,NA,form submission,14818.12,391187,391183.22,391199.88,406018,406018,2023-10-13T07:42:52Z,406020.92,NULL,Gefährdung,kuhatarisha,d,NA,NA,NA,ge,NA,NA,2,NA,NA,NA,NA,NA,NA,NA,NA,NA,NA,NA,NA,NA,NA,NA,NA,NA,NA,NA
b79bf,"""Richtig""-Screen",canvas.Screen,3_0_2_0_1_0_1,NA,NA,skipped,NA,406020,NA,NA,406018,406020,2023-10-13T07:42:52Z,406020.92,NULL,Gefährdung,kuhatarisha,d,NA,NA,NA,NA,sdf,NA,2,NA,NA,NA,NA,NA,NA,NA,NA,NA,NA,NA,NA,NA,NA,NA,NA,NA,NA,NA
b79bf,"""Falsch""-Screen",canvas.Screen,3_0_2_0_1_0_2,NA,NA,timeout,4996,406023,406015.86,406020.92,411000.26,411001,2023-10-13T07:42:57Z,411016.92,NULL,Gefährdung,kuhatarisha,d,NA,NA,NA,NA,sdf,0,2,NA,NA,NA,NA,NA,NA,NA,NA,NA,NA,NA,NA,NA,NA,NA,NA,NA,NA,NA
b79bf,deep,flow.Sequence,3_0_2_0_1_0,NA,NA,completion,19800.38,391187,391183.22,391199.88,411000.26,411002,2023-10-13T07:42:57Z,411016.92,NULL,Gefährdung,kuhatarisha,d,NA,NA,NA,NA,sdf,NA,2,NA,NA,NA,NA,NA,NA,NA,NA,NA,NA,NA,NA,NA,NA,NA,NA,NA,NA,NA
b79bf,shallow,flow.Sequence,3_0_2_0_1_1,NA,NA,skipped,NA,411003,NA,NA,411000.26,411003,2023-10-13T07:42:57Z,411016.92,NULL,Gefährdung,kuhatarisha,d,NA,NA,NA,NA,sdf,NA,2,NA,NA,NA,NA,NA,NA,NA,NA,NA,NA,NA,NA,NA,NA,NA,NA,NA,NA,NA
b79bf,task,flow.Sequence,3_0_2_0_1,NA,NA,completion,19800.38,391187,391183.22,391199.88,411000.26,411004,2023-10-13T07:42:57Z,411016.92,NULL,Gefährdung,kuhatarisha,d,NA,NA,NA,NA,sdf,NA,2,NA,NA,NA,NA,NA,NA,NA,NA,NA,NA,NA,NA,NA,NA,NA,NA,NA,NA,NA
b79bf,deep,flow.Sequence,3_0_2_0_2_0,NA,NA,skipped,NA,411004,NA,NA,411000.26,411004,2023-10-13T07:42:57Z,411016.92,NULL,Orientierung,urekebisho,s,uelekeo,marekebisho,utunzaji,NA,sdf,NA,2,NA,NA,NA,NA,NA,NA,NA,NA,NA,NA,NA,NA,NA,NA,NA,NA,NA,NA,NA
b79bf,Shallow Question,html.Page,3_0_2_0_2_1_0,NA,NA,form submission,18978.08,411005,411000.26,411016.92,429995,429996,2023-10-13T07:43:16Z,430017.86,NULL,Orientierung,urekebisho,s,uelekeo,marekebisho,utunzaji,urekebisho,NA,NA,2,NA,NA,NA,NA,NA,NA,NA,NA,NA,NA,NA,NA,NA,NA,NA,NA,NA,NA,NA
b79bf,"""Richtig""-Screen",canvas.Screen,3_0_2_0_2_1_1,NA,NA,timeout,4995.98,430004,430001.22,430017.86,434997.2,434999,2023-10-13T07:43:21Z,435013.84,NULL,Orientierung,urekebisho,s,uelekeo,marekebisho,utunzaji,NA,sdf,1,2,NA,NA,NA,NA,NA,NA,NA,NA,NA,NA,NA,NA,NA,NA,NA,NA,NA,NA,NA
b79bf,"""Falsch""-Screen",canvas.Screen,3_0_2_0_2_1_2,NA,NA,skipped,NA,435008,NA,NA,434997.2,435008,2023-10-13T07:43:21Z,435013.84,NULL,Orientierung,urekebisho,s,uelekeo,marekebisho,utunzaji,NA,sdf,NA,2,NA,NA,NA,NA,NA,NA,NA,NA,NA,NA,NA,NA,NA,NA,NA,NA,NA,NA,NA
b79bf,shallow,flow.Sequence,3_0_2_0_2_1,NA,NA,completion,23980.28,411004,411000.26,411016.92,434997.2,435009,2023-10-13T07:43:21Z,435013.84,NULL,Orientierung,urekebisho,s,uelekeo,marekebisho,utunzaji,NA,sdf,NA,2,NA,NA,NA,NA,NA,NA,NA,NA,NA,NA,NA,NA,NA,NA,NA,NA,NA,NA,NA
b79bf,task,flow.Sequence,3_0_2_0_2,NA,NA,completion,23980.28,411004,411000.26,411016.92,434997.2,435010,2023-10-13T07:43:21Z,435013.84,NULL,Orientierung,urekebisho,s,uelekeo,marekebisho,utunzaji,NA,sdf,NA,2,NA,NA,NA,NA,NA,NA,NA,NA,NA,NA,NA,NA,NA,NA,NA,NA,NA,NA,NA
b79bf,deep,flow.Sequence,3_0_2_0_3_0,NA,NA,skipped,NA,435010,NA,NA,434997.2,435011,2023-10-13T07:43:21Z,435013.84,NULL,Können,unaweza,s,kiongozi,bustani,mienendo,NA,sdf,NA,2,NA,NA,NA,NA,NA,NA,NA,NA,NA,NA,NA,NA,NA,NA,NA,NA,NA,NA,NA
b79bf,Shallow Question,html.Page,3_0_2_0_3_1_0,NA,NA,form submission,18009.16,435011,434997.2,435013.84,453023,453024,2023-10-13T07:43:39Z,453032.38,NULL,Können,unaweza,s,kiongozi,bustani,mienendo,unaweza,NA,NA,2,NA,NA,NA,NA,NA,NA,NA,NA,NA,NA,NA,NA,NA,NA,NA,NA,NA,NA,NA
b79bf,"""Richtig""-Screen",canvas.Screen,3_0_2_0_3_1_1,NA,NA,timeout,4995.88,453027,453021.28,453032.38,458011.62,458014,2023-10-13T07:43:44Z,458028.26,NULL,Können,unaweza,s,kiongozi,bustani,mienendo,NA,sdf,1,2,NA,NA,NA,NA,NA,NA,NA,NA,NA,NA,NA,NA,NA,NA,NA,NA,NA,NA,NA
b79bf,"""Falsch""-Screen",canvas.Screen,3_0_2_0_3_1_2,NA,NA,skipped,NA,458023,NA,NA,458011.62,458023,2023-10-13T07:43:44Z,458028.26,NULL,Können,unaweza,s,kiongozi,bustani,mienendo,NA,sdf,NA,2,NA,NA,NA,NA,NA,NA,NA,NA,NA,NA,NA,NA,NA,NA,NA,NA,NA,NA,NA
b79bf,shallow,flow.Sequence,3_0_2_0_3_1,NA,NA,completion,22997.78,435011,434997.2,435013.84,458011.62,458024,2023-10-13T07:43:44Z,458028.26,NULL,Können,unaweza,s,kiongozi,bustani,mienendo,NA,sdf,NA,2,NA,NA,NA,NA,NA,NA,NA,NA,NA,NA,NA,NA,NA,NA,NA,NA,NA,NA,NA
b79bf,task,flow.Sequence,3_0_2_0_3,NA,NA,completion,22997.78,435010,434997.2,435013.84,458011.62,458025,2023-10-13T07:43:44Z,458028.26,NULL,Können,unaweza,s,kiongozi,bustani,mienendo,NA,sdf,NA,2,NA,NA,NA,NA,NA,NA,NA,NA,NA,NA,NA,NA,NA,NA,NA,NA,NA,NA,NA
b79bf,Deep Question,html.Page,3_0_2_0_4_0_0,NA,NA,form submission,4175.74,458025,458011.62,458028.26,462204,462204,2023-10-13T07:43:48Z,462208.1,NULL,Betrüger,mdanganyifu,d,NA,NA,NA,be,NA,NA,2,NA,NA,NA,NA,NA,NA,NA,NA,NA,NA,NA,NA,NA,NA,NA,NA,NA,NA,NA
b79bf,"""Richtig""-Screen",canvas.Screen,3_0_2_0_4_0_1,NA,NA,skipped,NA,462207,NA,NA,462204,462207,2023-10-13T07:43:48Z,462208.1,NULL,Betrüger,mdanganyifu,d,NA,NA,NA,NA,sdf,NA,2,NA,NA,NA,NA,NA,NA,NA,NA,NA,NA,NA,NA,NA,NA,NA,NA,NA,NA,NA
b79bf,"""Falsch""-Screen",canvas.Screen,3_0_2_0_4_0_2,NA,NA,timeout,4995.96,462210,462201.48,462208.1,467187.4,467189,2023-10-13T07:43:53Z,467204.06,NULL,Betrüger,mdanganyifu,d,NA,NA,NA,NA,sdf,0,2,NA,NA,NA,NA,NA,NA,NA,NA,NA,NA,NA,NA,NA,NA,NA,NA,NA,NA,NA
b79bf,deep,flow.Sequence,3_0_2_0_4_0,NA,NA,completion,9159.14,458025,458011.62,458028.26,467187.4,467190,2023-10-13T07:43:53Z,467204.06,NULL,Betrüger,mdanganyifu,d,NA,NA,NA,NA,sdf,NA,2,NA,NA,NA,NA,NA,NA,NA,NA,NA,NA,NA,NA,NA,NA,NA,NA,NA,NA,NA
b79bf,shallow,flow.Sequence,3_0_2_0_4_1,NA,NA,skipped,NA,467190,NA,NA,467187.4,467191,2023-10-13T07:43:53Z,467204.06,NULL,Betrüger,mdanganyifu,d,NA,NA,NA,NA,sdf,NA,2,NA,NA,NA,NA,NA,NA,NA,NA,NA,NA,NA,NA,NA,NA,NA,NA,NA,NA,NA
b79bf,task,flow.Sequence,3_0_2_0_4,NA,NA,completion,9159.14,458025,458011.62,458028.26,467187.4,467192,2023-10-13T07:43:53Z,467204.06,NULL,Betrüger,mdanganyifu,d,NA,NA,NA,NA,sdf,NA,2,NA,NA,NA,NA,NA,NA,NA,NA,NA,NA,NA,NA,NA,NA,NA,NA,NA,NA,NA
b79bf,deep,flow.Sequence,3_0_2_0_5_0,NA,NA,skipped,NA,467193,NA,NA,467187.4,467193,2023-10-13T07:43:53Z,467204.06,NULL,Kreativität,ubunifu,s,mratibu,mwendelezo,makubaliano,NA,sdf,NA,2,NA,NA,NA,NA,NA,NA,NA,NA,NA,NA,NA,NA,NA,NA,NA,NA,NA,NA,NA
b79bf,Shallow Question,html.Page,3_0_2_0_5_1_0,NA,NA,form submission,10070.94,467193,467187.4,467204.06,477275,477275,2023-10-13T07:44:03Z,477279.04,NULL,Kreativität,ubunifu,s,mratibu,mwendelezo,makubaliano,ubunifu,NA,NA,2,NA,NA,NA,NA,NA,NA,NA,NA,NA,NA,NA,NA,NA,NA,NA,NA,NA,NA,NA
b79bf,"""Richtig""-Screen",canvas.Screen,3_0_2_0_5_1_1,NA,NA,timeout,4995.92,477278,477273.28,477279.04,482258.32,482260,2023-10-13T07:44:08Z,482274.96,NULL,Kreativität,ubunifu,s,mratibu,mwendelezo,makubaliano,NA,sdf,1,2,NA,NA,NA,NA,NA,NA,NA,NA,NA,NA,NA,NA,NA,NA,NA,NA,NA,NA,NA
b79bf,"""Falsch""-Screen",canvas.Screen,3_0_2_0_5_1_2,NA,NA,skipped,NA,482267,NA,NA,482258.32,482267,2023-10-13T07:44:08Z,482274.96,NULL,Kreativität,ubunifu,s,mratibu,mwendelezo,makubaliano,NA,sdf,NA,2,NA,NA,NA,NA,NA,NA,NA,NA,NA,NA,NA,NA,NA,NA,NA,NA,NA,NA,NA
b79bf,shallow,flow.Sequence,3_0_2_0_5_1,NA,NA,completion,15054.26,467193,467187.4,467204.06,482258.32,482268,2023-10-13T07:44:08Z,482274.96,NULL,Kreativität,ubunifu,s,mratibu,mwendelezo,makubaliano,NA,sdf,NA,2,NA,NA,NA,NA,NA,NA,NA,NA,NA,NA,NA,NA,NA,NA,NA,NA,NA,NA,NA
b79bf,task,flow.Sequence,3_0_2_0_5,NA,NA,completion,15054.26,467192,467187.4,467204.06,482258.32,482268,2023-10-13T07:44:08Z,482274.96,NULL,Kreativität,ubunifu,s,mratibu,mwendelezo,makubaliano,NA,sdf,NA,2,NA,NA,NA,NA,NA,NA,NA,NA,NA,NA,NA,NA,NA,NA,NA,NA,NA,NA,NA
b79bf,deep,flow.Sequence,3_0_2_0_6_0,NA,NA,skipped,NA,482269,NA,NA,482258.32,482269,2023-10-13T07:44:08Z,482274.96,NULL,Respekt,heshima,s,changamnao,upinzani,ufanisi,NA,sdf,NA,2,NA,NA,NA,NA,NA,NA,NA,NA,NA,NA,NA,NA,NA,NA,NA,NA,NA,NA,NA
b79bf,Shallow Question,html.Page,3_0_2_0_6_1_0,NA,NA,form submission,6250.04,482269,482258.32,482274.96,488525,488525,2023-10-13T07:44:15Z,488536.52,NULL,Respekt,heshima,s,changamnao,upinzani,ufanisi,heshima,NA,NA,2,NA,NA,NA,NA,NA,NA,NA,NA,NA,NA,NA,NA,NA,NA,NA,NA,NA,NA,NA
b79bf,"""Richtig""-Screen",canvas.Screen,3_0_2_0_6_1_1,NA,NA,timeout,4995.86,488527,488523.4,488536.52,493515.74,493517,2023-10-13T07:44:20Z,493532.38,NULL,Respekt,heshima,s,changamnao,upinzani,ufanisi,NA,sdf,1,2,NA,NA,NA,NA,NA,NA,NA,NA,NA,NA,NA,NA,NA,NA,NA,NA,NA,NA,NA
b79bf,"""Falsch""-Screen",canvas.Screen,3_0_2_0_6_1_2,NA,NA,skipped,NA,493523,NA,NA,493515.74,493524,2023-10-13T07:44:20Z,493532.38,NULL,Respekt,heshima,s,changamnao,upinzani,ufanisi,NA,sdf,NA,2,NA,NA,NA,NA,NA,NA,NA,NA,NA,NA,NA,NA,NA,NA,NA,NA,NA,NA,NA
b79bf,shallow,flow.Sequence,3_0_2_0_6_1,NA,NA,completion,11240.78,482269,482258.32,482274.96,493515.74,493525,2023-10-13T07:44:20Z,493532.38,NULL,Respekt,heshima,s,changamnao,upinzani,ufanisi,NA,sdf,NA,2,NA,NA,NA,NA,NA,NA,NA,NA,NA,NA,NA,NA,NA,NA,NA,NA,NA,NA,NA
b79bf,task,flow.Sequence,3_0_2_0_6,NA,NA,completion,11240.78,482269,482258.32,482274.96,493515.74,493525,2023-10-13T07:44:20Z,493532.38,NULL,Respekt,heshima,s,changamnao,upinzani,ufanisi,NA,sdf,NA,2,NA,NA,NA,NA,NA,NA,NA,NA,NA,NA,NA,NA,NA,NA,NA,NA,NA,NA,NA
b79bf,Deep Question,html.Page,3_0_2_0_7_0_0,NA,NA,form submission,3852.62,493526,493515.74,493532.38,497385,497385,2023-10-13T07:44:23Z,497395.82,NULL,Kontrolle,kudhibiti,d,NA,NA,NA,ko,NA,NA,2,NA,NA,NA,NA,NA,NA,NA,NA,NA,NA,NA,NA,NA,NA,NA,NA,NA,NA,NA
b79bf,"""Richtig""-Screen",canvas.Screen,3_0_2_0_7_0_1,NA,NA,skipped,NA,497387,NA,NA,497385,497387,2023-10-13T07:44:23Z,497395.82,NULL,Kontrolle,kudhibiti,d,NA,NA,NA,NA,sdf,NA,2,NA,NA,NA,NA,NA,NA,NA,NA,NA,NA,NA,NA,NA,NA,NA,NA,NA,NA,NA
b79bf,"""Falsch""-Screen",canvas.Screen,3_0_2_0_7_0_2,NA,NA,timeout,4995.94,497389,497383.2,497395.82,502375.1,502376,2023-10-13T07:44:28Z,502391.76,NULL,Kontrolle,kudhibiti,d,NA,NA,NA,NA,sdf,0,2,NA,NA,NA,NA,NA,NA,NA,NA,NA,NA,NA,NA,NA,NA,NA,NA,NA,NA,NA
b79bf,deep,flow.Sequence,3_0_2_0_7_0,NA,NA,completion,8842.72,493526,493515.74,493532.38,502375.1,502377,2023-10-13T07:44:28Z,502391.76,NULL,Kontrolle,kudhibiti,d,NA,NA,NA,NA,sdf,NA,2,NA,NA,NA,NA,NA,NA,NA,NA,NA,NA,NA,NA,NA,NA,NA,NA,NA,NA,NA
b79bf,shallow,flow.Sequence,3_0_2_0_7_1,NA,NA,skipped,NA,502377,NA,NA,502375.1,502377,2023-10-13T07:44:28Z,502391.76,NULL,Kontrolle,kudhibiti,d,NA,NA,NA,NA,sdf,NA,2,NA,NA,NA,NA,NA,NA,NA,NA,NA,NA,NA,NA,NA,NA,NA,NA,NA,NA,NA
b79bf,task,flow.Sequence,3_0_2_0_7,NA,NA,completion,8842.72,493526,493515.74,493532.38,502375.1,502379,2023-10-13T07:44:28Z,502391.76,NULL,Kontrolle,kudhibiti,d,NA,NA,NA,NA,sdf,NA,2,NA,NA,NA,NA,NA,NA,NA,NA,NA,NA,NA,NA,NA,NA,NA,NA,NA,NA,NA
b79bf,block,flow.Loop,3_0_2_0,NA,NA,completion,119680.46,382694,382694.24,382694.64,502375.1,502379,2023-10-13T07:44:28Z,502391.76,NULL,NA,NA,NA,NA,NA,NA,NA,sdf,NA,2,NA,NA,NA,NA,NA,NA,NA,NA,NA,NA,NA,NA,NA,NA,NA,NA,NA,NA,NA
b79bf,weiter,canvas.Screen,3_0_2_1,sdf,keypress(Space),response,3238.24,502379,502375.1,502391.76,505630,505644,2023-10-13T07:44:32Z,505796.1,NULL,NA,NA,NA,NA,NA,NA,NA,sdf,NA,2,NA,NA,NA,NA,NA,NA,NA,NA,NA,NA,NA,NA,NA,NA,NA,NA,NA,NA,NA
b79bf,check continue,flow.Sequence,3_0_2,NA,NA,completion,122935.36,382694,382694.24,382694.64,505630,505645,2023-10-13T07:44:32Z,505796.1,NULL,NA,NA,NA,NA,NA,NA,NA,sdf,NA,2,NA,NA,NA,NA,NA,NA,NA,NA,NA,NA,NA,NA,NA,NA,NA,NA,NA,NA,NA
b79bf,Deep Question,html.Page,3_0_3_0_0_0_0,NA,NA,form submission,5041.9,505795,505795.7,505796.1,510838,510838,2023-10-13T07:44:37Z,510851.36,NULL,Gefährdung,kuhatarisha,d,NA,NA,NA,ge,NA,NA,3,NA,NA,NA,NA,NA,NA,NA,NA,NA,NA,NA,NA,NA,NA,NA,NA,NA,NA,NA
b79bf,"""Richtig""-Screen",canvas.Screen,3_0_3_0_0_0_1,NA,NA,skipped,NA,510839,NA,NA,510838,510839,2023-10-13T07:44:37Z,510851.36,NULL,Gefährdung,kuhatarisha,d,NA,NA,NA,NA,qt,NA,3,NA,NA,NA,NA,NA,NA,NA,NA,NA,NA,NA,NA,NA,NA,NA,NA,NA,NA,NA
b79bf,"""Falsch""-Screen",canvas.Screen,3_0_3_0_0_0_2,NA,NA,timeout,4996.02,510841,510835.68,510851.36,515830.76,515832,2023-10-13T07:44:42Z,515847.38,NULL,Gefährdung,kuhatarisha,d,NA,NA,NA,NA,qt,0,3,NA,NA,NA,NA,NA,NA,NA,NA,NA,NA,NA,NA,NA,NA,NA,NA,NA,NA,NA
b79bf,deep,flow.Sequence,3_0_3_0_0_0,NA,NA,completion,10034.66,505795,505795.7,505796.1,515830.76,515833,2023-10-13T07:44:42Z,515847.38,NULL,Gefährdung,kuhatarisha,d,NA,NA,NA,NA,qt,NA,3,NA,NA,NA,NA,NA,NA,NA,NA,NA,NA,NA,NA,NA,NA,NA,NA,NA,NA,NA
b79bf,shallow,flow.Sequence,3_0_3_0_0_1,NA,NA,skipped,NA,515834,NA,NA,515830.76,515834,2023-10-13T07:44:42Z,515847.38,NULL,Gefährdung,kuhatarisha,d,NA,NA,NA,NA,qt,NA,3,NA,NA,NA,NA,NA,NA,NA,NA,NA,NA,NA,NA,NA,NA,NA,NA,NA,NA,NA
b79bf,task,flow.Sequence,3_0_3_0_0,NA,NA,completion,10034.66,505795,505795.7,505796.1,515830.76,515835,2023-10-13T07:44:42Z,515847.38,NULL,Gefährdung,kuhatarisha,d,NA,NA,NA,NA,qt,NA,3,NA,NA,NA,NA,NA,NA,NA,NA,NA,NA,NA,NA,NA,NA,NA,NA,NA,NA,NA
b79bf,deep,flow.Sequence,3_0_3_0_1_0,NA,NA,skipped,NA,515835,NA,NA,515830.76,515835,2023-10-13T07:44:42Z,515847.38,NULL,Können,unaweza,s,kiongozi,bustani,mienendo,NA,qt,NA,3,NA,NA,NA,NA,NA,NA,NA,NA,NA,NA,NA,NA,NA,NA,NA,NA,NA,NA,NA
b79bf,Shallow Question,html.Page,3_0_3_0_1_1_0,NA,NA,form submission,6044.62,515835,515830.76,515847.38,521892,521892,2023-10-13T07:44:48Z,521892.36,NULL,Können,unaweza,s,kiongozi,bustani,mienendo,unaweza,NA,NA,3,NA,NA,NA,NA,NA,NA,NA,NA,NA,NA,NA,NA,NA,NA,NA,NA,NA,NA,NA
b79bf,"""Richtig""-Screen",canvas.Screen,3_0_3_0_1_1_1,NA,NA,timeout,4995.96,521895,521889.76,521892.36,526871.68,526876,2023-10-13T07:44:53Z,526888.32,NULL,Können,unaweza,s,kiongozi,bustani,mienendo,NA,qt,1,3,NA,NA,NA,NA,NA,NA,NA,NA,NA,NA,NA,NA,NA,NA,NA,NA,NA,NA,NA
b79bf,"""Falsch""-Screen",canvas.Screen,3_0_3_0_1_1_2,NA,NA,skipped,NA,526894,NA,NA,526871.68,526895,2023-10-13T07:44:53Z,526888.32,NULL,Können,unaweza,s,kiongozi,bustani,mienendo,NA,qt,NA,3,NA,NA,NA,NA,NA,NA,NA,NA,NA,NA,NA,NA,NA,NA,NA,NA,NA,NA,NA
b79bf,shallow,flow.Sequence,3_0_3_0_1_1,NA,NA,completion,11024.3,515835,515830.76,515847.38,526871.68,526895,2023-10-13T07:44:53Z,526888.32,NULL,Können,unaweza,s,kiongozi,bustani,mienendo,NA,qt,NA,3,NA,NA,NA,NA,NA,NA,NA,NA,NA,NA,NA,NA,NA,NA,NA,NA,NA,NA,NA
b79bf,task,flow.Sequence,3_0_3_0_1,NA,NA,completion,11024.3,515835,515830.76,515847.38,526871.68,526896,2023-10-13T07:44:53Z,526888.32,NULL,Können,unaweza,s,kiongozi,bustani,mienendo,NA,qt,NA,3,NA,NA,NA,NA,NA,NA,NA,NA,NA,NA,NA,NA,NA,NA,NA,NA,NA,NA,NA
b79bf,Deep Question,html.Page,3_0_3_0_2_0_0,NA,NA,form submission,3661.6800000001,526897,526871.68,526888.32,530550,530550,2023-10-13T07:44:57Z,530551.92,NULL,Kontrolle,kudhibiti,d,NA,NA,NA,ko,NA,NA,3,NA,NA,NA,NA,NA,NA,NA,NA,NA,NA,NA,NA,NA,NA,NA,NA,NA,NA,NA
b79bf,"""Richtig""-Screen",canvas.Screen,3_0_3_0_2_0_1,NA,NA,skipped,NA,530554,NA,NA,530550,530554,2023-10-13T07:44:57Z,530551.92,NULL,Kontrolle,kudhibiti,d,NA,NA,NA,NA,qt,NA,3,NA,NA,NA,NA,NA,NA,NA,NA,NA,NA,NA,NA,NA,NA,NA,NA,NA,NA,NA
b79bf,"""Falsch""-Screen",canvas.Screen,3_0_3_0_2_0_2,NA,NA,timeout,4995.96,530557,530551.92,530551.92,535531.22,535533,2023-10-13T07:45:02Z,535547.88,NULL,Kontrolle,kudhibiti,d,NA,NA,NA,NA,qt,0,3,NA,NA,NA,NA,NA,NA,NA,NA,NA,NA,NA,NA,NA,NA,NA,NA,NA,NA,NA
b79bf,deep,flow.Sequence,3_0_3_0_2_0,NA,NA,completion,8642.9,526897,526871.68,526888.32,535531.22,535534,2023-10-13T07:45:02Z,535547.88,NULL,Kontrolle,kudhibiti,d,NA,NA,NA,NA,qt,NA,3,NA,NA,NA,NA,NA,NA,NA,NA,NA,NA,NA,NA,NA,NA,NA,NA,NA,NA,NA
b79bf,shallow,flow.Sequence,3_0_3_0_2_1,NA,NA,skipped,NA,535534,NA,NA,535531.22,535535,2023-10-13T07:45:02Z,535547.88,NULL,Kontrolle,kudhibiti,d,NA,NA,NA,NA,qt,NA,3,NA,NA,NA,NA,NA,NA,NA,NA,NA,NA,NA,NA,NA,NA,NA,NA,NA,NA,NA
b79bf,task,flow.Sequence,3_0_3_0_2,NA,NA,completion,8642.9,526896,526871.68,526888.32,535531.22,535535,2023-10-13T07:45:02Z,535547.88,NULL,Kontrolle,kudhibiti,d,NA,NA,NA,NA,qt,NA,3,NA,NA,NA,NA,NA,NA,NA,NA,NA,NA,NA,NA,NA,NA,NA,NA,NA,NA,NA
b79bf,deep,flow.Sequence,3_0_3_0_3_0,NA,NA,skipped,NA,535536,NA,NA,535531.22,535538,2023-10-13T07:45:02Z,535547.88,NULL,Orientierung,urekebisho,s,uelekeo,marekebisho,utunzaji,NA,qt,NA,3,NA,NA,NA,NA,NA,NA,NA,NA,NA,NA,NA,NA,NA,NA,NA,NA,NA,NA,NA
b79bf,Shallow Question,html.Page,3_0_3_0_3_1_0,NA,NA,form submission,15475.12,535538,535531.22,535547.88,551023,551024,2023-10-13T07:45:17Z,551035.16,NULL,Orientierung,urekebisho,s,uelekeo,marekebisho,utunzaji,urekebisho,NA,NA,3,NA,NA,NA,NA,NA,NA,NA,NA,NA,NA,NA,NA,NA,NA,NA,NA,NA,NA,NA
b79bf,"""Richtig""-Screen",canvas.Screen,3_0_3_0_3_1_1,NA,NA,timeout,4995.88,551026,551021.1,551035.16,556014.38,556016,2023-10-13T07:45:22Z,556031.04,NULL,Orientierung,urekebisho,s,uelekeo,marekebisho,utunzaji,NA,qt,1,3,NA,NA,NA,NA,NA,NA,NA,NA,NA,NA,NA,NA,NA,NA,NA,NA,NA,NA,NA
b79bf,"""Falsch""-Screen",canvas.Screen,3_0_3_0_3_1_2,NA,NA,skipped,NA,556025,NA,NA,556014.38,556025,2023-10-13T07:45:22Z,556031.04,NULL,Orientierung,urekebisho,s,uelekeo,marekebisho,utunzaji,NA,qt,NA,3,NA,NA,NA,NA,NA,NA,NA,NA,NA,NA,NA,NA,NA,NA,NA,NA,NA,NA,NA
b79bf,shallow,flow.Sequence,3_0_3_0_3_1,NA,NA,completion,20466.5,535538,535531.22,535547.88,556014.38,556026,2023-10-13T07:45:22Z,556031.04,NULL,Orientierung,urekebisho,s,uelekeo,marekebisho,utunzaji,NA,qt,NA,3,NA,NA,NA,NA,NA,NA,NA,NA,NA,NA,NA,NA,NA,NA,NA,NA,NA,NA,NA
b79bf,task,flow.Sequence,3_0_3_0_3,NA,NA,completion,20466.5,535536,535531.22,535547.88,556014.38,556026,2023-10-13T07:45:22Z,556031.04,NULL,Orientierung,urekebisho,s,uelekeo,marekebisho,utunzaji,NA,qt,NA,3,NA,NA,NA,NA,NA,NA,NA,NA,NA,NA,NA,NA,NA,NA,NA,NA,NA,NA,NA
b79bf,Deep Question,html.Page,3_0_3_0_4_0_0,NA,NA,form submission,5329.96,556027,556014.38,556031.04,561361,561362,2023-10-13T07:45:27Z,561359.88,NULL,Betrüger,mdanganyifu,d,NA,NA,NA,be,NA,NA,3,NA,NA,NA,NA,NA,NA,NA,NA,NA,NA,NA,NA,NA,NA,NA,NA,NA,NA,NA
b79bf,"""Richtig""-Screen",canvas.Screen,3_0_3_0_4_0_1,NA,NA,skipped,NA,561364,NA,NA,561361,561364,2023-10-13T07:45:27Z,561359.88,NULL,Betrüger,mdanganyifu,d,NA,NA,NA,NA,qt,NA,3,NA,NA,NA,NA,NA,NA,NA,NA,NA,NA,NA,NA,NA,NA,NA,NA,NA,NA,NA
b79bf,"""Falsch""-Screen",canvas.Screen,3_0_3_0_4_0_2,NA,NA,timeout,4996.12,561367,561357.98,561359.88,566339.36,566341,2023-10-13T07:45:32Z,566356,NULL,Betrüger,mdanganyifu,d,NA,NA,NA,NA,qt,0,3,NA,NA,NA,NA,NA,NA,NA,NA,NA,NA,NA,NA,NA,NA,NA,NA,NA,NA,NA
b79bf,deep,flow.Sequence,3_0_3_0_4_0,NA,NA,completion,10308.32,556027,556014.38,556031.04,566339.36,566343,2023-10-13T07:45:32Z,566356,NULL,Betrüger,mdanganyifu,d,NA,NA,NA,NA,qt,NA,3,NA,NA,NA,NA,NA,NA,NA,NA,NA,NA,NA,NA,NA,NA,NA,NA,NA,NA,NA
b79bf,shallow,flow.Sequence,3_0_3_0_4_1,NA,NA,skipped,NA,566343,NA,NA,566339.36,566344,2023-10-13T07:45:32Z,566356,NULL,Betrüger,mdanganyifu,d,NA,NA,NA,NA,qt,NA,3,NA,NA,NA,NA,NA,NA,NA,NA,NA,NA,NA,NA,NA,NA,NA,NA,NA,NA,NA
b79bf,task,flow.Sequence,3_0_3_0_4,NA,NA,completion,10308.32,556026,556014.38,556031.04,566339.36,566345,2023-10-13T07:45:32Z,566356,NULL,Betrüger,mdanganyifu,d,NA,NA,NA,NA,qt,NA,3,NA,NA,NA,NA,NA,NA,NA,NA,NA,NA,NA,NA,NA,NA,NA,NA,NA,NA,NA
b79bf,deep,flow.Sequence,3_0_3_0_5_0,NA,NA,skipped,NA,566345,NA,NA,566339.36,566347,2023-10-13T07:45:32Z,566356,NULL,Respekt,heshima,s,changamnao,upinzani,ufanisi,NA,qt,NA,3,NA,NA,NA,NA,NA,NA,NA,NA,NA,NA,NA,NA,NA,NA,NA,NA,NA,NA,NA
b79bf,Shallow Question,html.Page,3_0_3_0_5_1_0,NA,NA,form submission,6129,566348,566339.36,566356,572485,572486,2023-10-13T07:45:38Z,572484.06,NULL,Respekt,heshima,s,changamnao,upinzani,ufanisi,heshima,NA,NA,3,NA,NA,NA,NA,NA,NA,NA,NA,NA,NA,NA,NA,NA,NA,NA,NA,NA,NA,NA
b79bf,"""Richtig""-Screen",canvas.Screen,3_0_3_0_5_1_1,NA,NA,timeout,4995.98,572488,572483.08,572484.06,577463.38,577465,2023-10-13T07:45:43Z,577480.04,NULL,Respekt,heshima,s,changamnao,upinzani,ufanisi,NA,qt,1,3,NA,NA,NA,NA,NA,NA,NA,NA,NA,NA,NA,NA,NA,NA,NA,NA,NA,NA,NA
b79bf,"""Falsch""-Screen",canvas.Screen,3_0_3_0_5_1_2,NA,NA,skipped,NA,577471,NA,NA,577463.38,577471,2023-10-13T07:45:43Z,577480.04,NULL,Respekt,heshima,s,changamnao,upinzani,ufanisi,NA,qt,NA,3,NA,NA,NA,NA,NA,NA,NA,NA,NA,NA,NA,NA,NA,NA,NA,NA,NA,NA,NA
b79bf,shallow,flow.Sequence,3_0_3_0_5_1,NA,NA,completion,11107.38,566347,566339.36,566356,577463.38,577472,2023-10-13T07:45:43Z,577480.04,NULL,Respekt,heshima,s,changamnao,upinzani,ufanisi,NA,qt,NA,3,NA,NA,NA,NA,NA,NA,NA,NA,NA,NA,NA,NA,NA,NA,NA,NA,NA,NA,NA
b79bf,task,flow.Sequence,3_0_3_0_5,NA,NA,completion,11107.38,566345,566339.36,566356,577463.38,577473,2023-10-13T07:45:43Z,577480.04,NULL,Respekt,heshima,s,changamnao,upinzani,ufanisi,NA,qt,NA,3,NA,NA,NA,NA,NA,NA,NA,NA,NA,NA,NA,NA,NA,NA,NA,NA,NA,NA,NA
b79bf,Deep Question,html.Page,3_0_3_0_6_0_0,NA,NA,form submission,8280.96,577474,577463.38,577480.04,585761,585762,2023-10-13T07:45:52Z,585756.52,NULL,Stimmung,kinyongo,d,NA,NA,NA,kinyongo,NA,NA,3,NA,NA,NA,NA,NA,NA,NA,NA,NA,NA,NA,NA,NA,NA,NA,NA,NA,NA,NA
b79bf,"""Richtig""-Screen",canvas.Screen,3_0_3_0_6_0_1,NA,NA,timeout,4995.9399999999,585768,585755.7,585756.52,590735.88,590738,2023-10-13T07:45:57Z,590752.46,NULL,Stimmung,kinyongo,d,NA,NA,NA,NA,qt,1,3,NA,NA,NA,NA,NA,NA,NA,NA,NA,NA,NA,NA,NA,NA,NA,NA,NA,NA,NA
b79bf,"""Falsch""-Screen",canvas.Screen,3_0_3_0_6_0_2,NA,NA,skipped,NA,590747,NA,NA,590735.88,590747,2023-10-13T07:45:57Z,590752.46,NULL,Stimmung,kinyongo,d,NA,NA,NA,NA,qt,NA,3,NA,NA,NA,NA,NA,NA,NA,NA,NA,NA,NA,NA,NA,NA,NA,NA,NA,NA,NA
b79bf,deep,flow.Sequence,3_0_3_0_6_0,NA,NA,completion,13255.84,577474,577463.38,577480.04,590735.88,590748,2023-10-13T07:45:57Z,590752.46,NULL,Stimmung,kinyongo,d,NA,NA,NA,NA,qt,NA,3,NA,NA,NA,NA,NA,NA,NA,NA,NA,NA,NA,NA,NA,NA,NA,NA,NA,NA,NA
b79bf,shallow,flow.Sequence,3_0_3_0_6_1,NA,NA,skipped,NA,590748,NA,NA,590735.88,590748,2023-10-13T07:45:57Z,590752.46,NULL,Stimmung,kinyongo,d,NA,NA,NA,NA,qt,NA,3,NA,NA,NA,NA,NA,NA,NA,NA,NA,NA,NA,NA,NA,NA,NA,NA,NA,NA,NA
b79bf,task,flow.Sequence,3_0_3_0_6,NA,NA,completion,13255.84,577473,577463.38,577480.04,590735.88,590749,2023-10-13T07:45:57Z,590752.46,NULL,Stimmung,kinyongo,d,NA,NA,NA,NA,qt,NA,3,NA,NA,NA,NA,NA,NA,NA,NA,NA,NA,NA,NA,NA,NA,NA,NA,NA,NA,NA
b79bf,deep,flow.Sequence,3_0_3_0_7_0,NA,NA,skipped,NA,590749,NA,NA,590735.88,590750,2023-10-13T07:45:57Z,590752.46,NULL,Kreativität,ubunifu,s,mratibu,mwendelezo,makubaliano,NA,qt,NA,3,NA,NA,NA,NA,NA,NA,NA,NA,NA,NA,NA,NA,NA,NA,NA,NA,NA,NA,NA
b79bf,Shallow Question,html.Page,3_0_3_0_7_1_0,NA,NA,form submission,23048.54,590750,590735.88,590752.46,613801,613802,2023-10-13T07:46:20Z,613800.08,NULL,Kreativität,ubunifu,s,mratibu,mwendelezo,makubaliano,ubunifu,NA,NA,3,NA,NA,NA,NA,NA,NA,NA,NA,NA,NA,NA,NA,NA,NA,NA,NA,NA,NA,NA
b79bf,"""Richtig""-Screen",canvas.Screen,3_0_3_0_7_1_1,NA,NA,timeout,4996,613804,613797.86,613800.08,618779.42,618781,2023-10-13T07:46:25Z,618796.08,NULL,Kreativität,ubunifu,s,mratibu,mwendelezo,makubaliano,NA,qt,1,3,NA,NA,NA,NA,NA,NA,NA,NA,NA,NA,NA,NA,NA,NA,NA,NA,NA,NA,NA
b79bf,"""Falsch""-Screen",canvas.Screen,3_0_3_0_7_1_2,NA,NA,skipped,NA,618790,NA,NA,618779.42,618791,2023-10-13T07:46:25Z,618796.08,NULL,Kreativität,ubunifu,s,mratibu,mwendelezo,makubaliano,NA,qt,NA,3,NA,NA,NA,NA,NA,NA,NA,NA,NA,NA,NA,NA,NA,NA,NA,NA,NA,NA,NA
b79bf,shallow,flow.Sequence,3_0_3_0_7_1,NA,NA,completion,28026.96,590750,590735.88,590752.46,618779.42,618791,2023-10-13T07:46:25Z,618796.08,NULL,Kreativität,ubunifu,s,mratibu,mwendelezo,makubaliano,NA,qt,NA,3,NA,NA,NA,NA,NA,NA,NA,NA,NA,NA,NA,NA,NA,NA,NA,NA,NA,NA,NA
b79bf,task,flow.Sequence,3_0_3_0_7,NA,NA,completion,28026.96,590749,590735.88,590752.46,618779.42,618792,2023-10-13T07:46:25Z,618796.08,NULL,Kreativität,ubunifu,s,mratibu,mwendelezo,makubaliano,NA,qt,NA,3,NA,NA,NA,NA,NA,NA,NA,NA,NA,NA,NA,NA,NA,NA,NA,NA,NA,NA,NA
b79bf,block,flow.Loop,3_0_3_0,NA,NA,completion,112983.32,505795,505795.7,505796.1,618779.42,618793,2023-10-13T07:46:25Z,618796.08,NULL,NA,NA,NA,NA,NA,NA,NA,qt,NA,3,NA,NA,NA,NA,NA,NA,NA,NA,NA,NA,NA,NA,NA,NA,NA,NA,NA,NA,NA
b79bf,weiter,canvas.Screen,3_0_3_1,sdf,keypress(Space),response,1332.92,618793,618779.42,618796.08,620129,620145,2023-10-13T07:46:26Z,620280.86,NULL,NA,NA,NA,NA,NA,NA,NA,qt,NA,3,NA,NA,NA,NA,NA,NA,NA,NA,NA,NA,NA,NA,NA,NA,NA,NA,NA,NA,NA
b79bf,check continue,flow.Sequence,3_0_3,NA,NA,completion,114332.9,505795,505795.7,505796.1,620129,620145,2023-10-13T07:46:26Z,620280.86,NULL,NA,NA,NA,NA,NA,NA,NA,qt,NA,3,NA,NA,NA,NA,NA,NA,NA,NA,NA,NA,NA,NA,NA,NA,NA,NA,NA,NA,NA
b79bf,Deep Question,html.Page,3_0_4_0_0_0_0,NA,NA,form submission,4431.14,620281,620280.62,620280.86,624712,624712,2023-10-13T07:46:31Z,624724.48,NULL,Gefährdung,kuhatarisha,d,NA,NA,NA,ge,NA,NA,4,NA,NA,NA,NA,NA,NA,NA,NA,NA,NA,NA,NA,NA,NA,NA,NA,NA,NA,NA
b79bf,"""Richtig""-Screen",canvas.Screen,3_0_4_0_0_0_1,NA,NA,skipped,NA,624714,NA,NA,624712,624714,2023-10-13T07:46:31Z,624724.48,NULL,Gefährdung,kuhatarisha,d,NA,NA,NA,NA,sd,NA,4,NA,NA,NA,NA,NA,NA,NA,NA,NA,NA,NA,NA,NA,NA,NA,NA,NA,NA,NA
b79bf,"""Falsch""-Screen",canvas.Screen,3_0_4_0_0_0_2,NA,NA,timeout,4998.76,624717,624709.8,624724.48,629703.78,629705,2023-10-13T07:46:36Z,629723.24,NULL,Gefährdung,kuhatarisha,d,NA,NA,NA,NA,sd,0,4,NA,NA,NA,NA,NA,NA,NA,NA,NA,NA,NA,NA,NA,NA,NA,NA,NA,NA,NA
b79bf,deep,flow.Sequence,3_0_4_0_0_0,NA,NA,completion,9422.92,620281,620280.62,620280.86,629703.78,629706,2023-10-13T07:46:36Z,629723.24,NULL,Gefährdung,kuhatarisha,d,NA,NA,NA,NA,sd,NA,4,NA,NA,NA,NA,NA,NA,NA,NA,NA,NA,NA,NA,NA,NA,NA,NA,NA,NA,NA
b79bf,shallow,flow.Sequence,3_0_4_0_0_1,NA,NA,skipped,NA,629706,NA,NA,629703.78,629706,2023-10-13T07:46:36Z,629723.24,NULL,Gefährdung,kuhatarisha,d,NA,NA,NA,NA,sd,NA,4,NA,NA,NA,NA,NA,NA,NA,NA,NA,NA,NA,NA,NA,NA,NA,NA,NA,NA,NA
b79bf,task,flow.Sequence,3_0_4_0_0,NA,NA,completion,9422.92,620281,620280.62,620280.86,629703.78,629707,2023-10-13T07:46:36Z,629723.24,NULL,Gefährdung,kuhatarisha,d,NA,NA,NA,NA,sd,NA,4,NA,NA,NA,NA,NA,NA,NA,NA,NA,NA,NA,NA,NA,NA,NA,NA,NA,NA,NA
b79bf,Deep Question,html.Page,3_0_4_0_1_0_0,NA,NA,form submission,4729.76,629708,629703.78,629723.24,634453,634453,2023-10-13T07:46:40Z,634466.46,NULL,Kontrolle,kudhibiti,d,NA,NA,NA,ko,NA,NA,4,NA,NA,NA,NA,NA,NA,NA,NA,NA,NA,NA,NA,NA,NA,NA,NA,NA,NA,NA
b79bf,"""Richtig""-Screen",canvas.Screen,3_0_4_0_1_0_1,NA,NA,skipped,NA,634456,NA,NA,634453,634456,2023-10-13T07:46:40Z,634466.46,NULL,Kontrolle,kudhibiti,d,NA,NA,NA,NA,sd,NA,4,NA,NA,NA,NA,NA,NA,NA,NA,NA,NA,NA,NA,NA,NA,NA,NA,NA,NA,NA
b79bf,"""Falsch""-Screen",canvas.Screen,3_0_4_0_1_0_2,NA,NA,timeout,4996,634458,634451.36,634466.46,639445.8,639447,2023-10-13T07:46:45Z,639462.46,NULL,Kontrolle,kudhibiti,d,NA,NA,NA,NA,sd,0,4,NA,NA,NA,NA,NA,NA,NA,NA,NA,NA,NA,NA,NA,NA,NA,NA,NA,NA,NA
b79bf,deep,flow.Sequence,3_0_4_0_1_0,NA,NA,completion,9722.5600000001,629708,629703.78,629723.24,639445.8,639448,2023-10-13T07:46:45Z,639462.46,NULL,Kontrolle,kudhibiti,d,NA,NA,NA,NA,sd,NA,4,NA,NA,NA,NA,NA,NA,NA,NA,NA,NA,NA,NA,NA,NA,NA,NA,NA,NA,NA
b79bf,shallow,flow.Sequence,3_0_4_0_1_1,NA,NA,skipped,NA,639448,NA,NA,639445.8,639449,2023-10-13T07:46:45Z,639462.46,NULL,Kontrolle,kudhibiti,d,NA,NA,NA,NA,sd,NA,4,NA,NA,NA,NA,NA,NA,NA,NA,NA,NA,NA,NA,NA,NA,NA,NA,NA,NA,NA
b79bf,task,flow.Sequence,3_0_4_0_1,NA,NA,completion,9722.5600000001,629708,629703.78,629723.24,639445.8,639449,2023-10-13T07:46:45Z,639462.46,NULL,Kontrolle,kudhibiti,d,NA,NA,NA,NA,sd,NA,4,NA,NA,NA,NA,NA,NA,NA,NA,NA,NA,NA,NA,NA,NA,NA,NA,NA,NA,NA
b79bf,Deep Question,html.Page,3_0_4_0_2_0_0,NA,NA,form submission,6749.54,639450,639445.8,639462.46,646212,646212,2023-10-13T07:46:52Z,646223.58,NULL,Stimmung,kinyongo,d,NA,NA,NA,kinyongo,NA,NA,4,NA,NA,NA,NA,NA,NA,NA,NA,NA,NA,NA,NA,NA,NA,NA,NA,NA,NA,NA
b79bf,"""Richtig""-Screen",canvas.Screen,3_0_4_0_2_0_1,NA,NA,timeout,4995.92,646214,646209.74,646223.58,651202.84,651204,2023-10-13T07:46:57Z,651219.5,NULL,Stimmung,kinyongo,d,NA,NA,NA,NA,sd,1,4,NA,NA,NA,NA,NA,NA,NA,NA,NA,NA,NA,NA,NA,NA,NA,NA,NA,NA,NA
b79bf,"""Falsch""-Screen",canvas.Screen,3_0_4_0_2_0_2,NA,NA,skipped,NA,651210,NA,NA,651202.84,651211,2023-10-13T07:46:57Z,651219.5,NULL,Stimmung,kinyongo,d,NA,NA,NA,NA,sd,NA,4,NA,NA,NA,NA,NA,NA,NA,NA,NA,NA,NA,NA,NA,NA,NA,NA,NA,NA,NA
b79bf,deep,flow.Sequence,3_0_4_0_2_0,NA,NA,completion,11740.38,639449,639445.8,639462.46,651202.84,651212,2023-10-13T07:46:57Z,651219.5,NULL,Stimmung,kinyongo,d,NA,NA,NA,NA,sd,NA,4,NA,NA,NA,NA,NA,NA,NA,NA,NA,NA,NA,NA,NA,NA,NA,NA,NA,NA,NA
b79bf,shallow,flow.Sequence,3_0_4_0_2_1,NA,NA,skipped,NA,651212,NA,NA,651202.84,651213,2023-10-13T07:46:57Z,651219.5,NULL,Stimmung,kinyongo,d,NA,NA,NA,NA,sd,NA,4,NA,NA,NA,NA,NA,NA,NA,NA,NA,NA,NA,NA,NA,NA,NA,NA,NA,NA,NA
b79bf,task,flow.Sequence,3_0_4_0_2,NA,NA,completion,11740.38,639449,639445.8,639462.46,651202.84,651213,2023-10-13T07:46:57Z,651219.5,NULL,Stimmung,kinyongo,d,NA,NA,NA,NA,sd,NA,4,NA,NA,NA,NA,NA,NA,NA,NA,NA,NA,NA,NA,NA,NA,NA,NA,NA,NA,NA
b79bf,deep,flow.Sequence,3_0_4_0_3_0,NA,NA,skipped,NA,651213,NA,NA,651202.84,651214,2023-10-13T07:46:57Z,651219.5,NULL,Kreativität,ubunifu,s,mratibu,mwendelezo,makubaliano,NA,sd,NA,4,NA,NA,NA,NA,NA,NA,NA,NA,NA,NA,NA,NA,NA,NA,NA,NA,NA,NA,NA
b79bf,Shallow Question,html.Page,3_0_4_0_3_1_0,NA,NA,form submission,4773.5,651214,651202.84,651219.5,655993,655993,2023-10-13T07:47:02Z,655998.8,NULL,Kreativität,ubunifu,s,mratibu,mwendelezo,makubaliano,ubunifu,NA,NA,4,NA,NA,NA,NA,NA,NA,NA,NA,NA,NA,NA,NA,NA,NA,NA,NA,NA,NA,NA
b79bf,"""Richtig""-Screen",canvas.Screen,3_0_4_0_3_1_1,NA,NA,timeout,4995.96,655995,655991.16,655998.8,660978.1,660980,2023-10-13T07:47:07Z,660994.76,NULL,Kreativität,ubunifu,s,mratibu,mwendelezo,makubaliano,NA,sd,1,4,NA,NA,NA,NA,NA,NA,NA,NA,NA,NA,NA,NA,NA,NA,NA,NA,NA,NA,NA
b79bf,"""Falsch""-Screen",canvas.Screen,3_0_4_0_3_1_2,NA,NA,skipped,NA,660986,NA,NA,660978.1,660987,2023-10-13T07:47:07Z,660994.76,NULL,Kreativität,ubunifu,s,mratibu,mwendelezo,makubaliano,NA,sd,NA,4,NA,NA,NA,NA,NA,NA,NA,NA,NA,NA,NA,NA,NA,NA,NA,NA,NA,NA,NA
b79bf,shallow,flow.Sequence,3_0_4_0_3_1,NA,NA,completion,9758.6,651214,651202.84,651219.5,660978.1,660987,2023-10-13T07:47:07Z,660994.76,NULL,Kreativität,ubunifu,s,mratibu,mwendelezo,makubaliano,NA,sd,NA,4,NA,NA,NA,NA,NA,NA,NA,NA,NA,NA,NA,NA,NA,NA,NA,NA,NA,NA,NA
b79bf,task,flow.Sequence,3_0_4_0_3,NA,NA,completion,9758.6,651213,651202.84,651219.5,660978.1,660988,2023-10-13T07:47:07Z,660994.76,NULL,Kreativität,ubunifu,s,mratibu,mwendelezo,makubaliano,NA,sd,NA,4,NA,NA,NA,NA,NA,NA,NA,NA,NA,NA,NA,NA,NA,NA,NA,NA,NA,NA,NA
b79bf,deep,flow.Sequence,3_0_4_0_4_0,NA,NA,skipped,NA,660988,NA,NA,660978.1,660988,2023-10-13T07:47:07Z,660994.76,NULL,Können,unaweza,s,kiongozi,bustani,mienendo,NA,sd,NA,4,NA,NA,NA,NA,NA,NA,NA,NA,NA,NA,NA,NA,NA,NA,NA,NA,NA,NA,NA
b79bf,Shallow Question,html.Page,3_0_4_0_4_1_0,NA,NA,form submission,4622.24,660989,660978.1,660994.76,665617,665617,2023-10-13T07:47:12Z,665624.18,NULL,Können,unaweza,s,kiongozi,bustani,mienendo,unaweza,NA,NA,4,NA,NA,NA,NA,NA,NA,NA,NA,NA,NA,NA,NA,NA,NA,NA,NA,NA,NA,NA
b79bf,"""Richtig""-Screen",canvas.Screen,3_0_4_0_4_1_1,NA,NA,timeout,4995.98,665619,665615.54,665624.18,670603.5,670605,2023-10-13T07:47:17Z,670620.16,NULL,Können,unaweza,s,kiongozi,bustani,mienendo,NA,sd,1,4,NA,NA,NA,NA,NA,NA,NA,NA,NA,NA,NA,NA,NA,NA,NA,NA,NA,NA,NA
b79bf,"""Falsch""-Screen",canvas.Screen,3_0_4_0_4_1_2,NA,NA,skipped,NA,670610,NA,NA,670603.5,670610,2023-10-13T07:47:17Z,670620.16,NULL,Können,unaweza,s,kiongozi,bustani,mienendo,NA,sd,NA,4,NA,NA,NA,NA,NA,NA,NA,NA,NA,NA,NA,NA,NA,NA,NA,NA,NA,NA,NA
b79bf,shallow,flow.Sequence,3_0_4_0_4_1,NA,NA,completion,9608.74,660989,660978.1,660994.76,670603.5,670611,2023-10-13T07:47:17Z,670620.16,NULL,Können,unaweza,s,kiongozi,bustani,mienendo,NA,sd,NA,4,NA,NA,NA,NA,NA,NA,NA,NA,NA,NA,NA,NA,NA,NA,NA,NA,NA,NA,NA
b79bf,task,flow.Sequence,3_0_4_0_4,NA,NA,completion,9608.74,660988,660978.1,660994.76,670603.5,670612,2023-10-13T07:47:17Z,670620.16,NULL,Können,unaweza,s,kiongozi,bustani,mienendo,NA,sd,NA,4,NA,NA,NA,NA,NA,NA,NA,NA,NA,NA,NA,NA,NA,NA,NA,NA,NA,NA,NA
b79bf,deep,flow.Sequence,3_0_4_0_5_0,NA,NA,skipped,NA,670612,NA,NA,670603.5,670613,2023-10-13T07:47:17Z,670620.16,NULL,Respekt,heshima,s,changamnao,upinzani,ufanisi,NA,sd,NA,4,NA,NA,NA,NA,NA,NA,NA,NA,NA,NA,NA,NA,NA,NA,NA,NA,NA,NA,NA
b79bf,Shallow Question,html.Page,3_0_4_0_5_1_0,NA,NA,form submission,8723.84,670613,670603.5,670620.16,679344,679344,2023-10-13T07:47:25Z,679346.22,NULL,Respekt,heshima,s,changamnao,upinzani,ufanisi,heshima,NA,NA,4,NA,NA,NA,NA,NA,NA,NA,NA,NA,NA,NA,NA,NA,NA,NA,NA,NA,NA,NA
b79bf,"""Richtig""-Screen",canvas.Screen,3_0_4_0_5_1_1,NA,NA,timeout,4995.9600000001,679345,679341.44,679346.22,684325.54,684332,2023-10-13T07:47:30Z,684342.18,NULL,Respekt,heshima,s,changamnao,upinzani,ufanisi,NA,sd,1,4,NA,NA,NA,NA,NA,NA,NA,NA,NA,NA,NA,NA,NA,NA,NA,NA,NA,NA,NA
b79bf,"""Falsch""-Screen",canvas.Screen,3_0_4_0_5_1_2,NA,NA,skipped,NA,684348,NA,NA,684325.54,684349,2023-10-13T07:47:30Z,684342.18,NULL,Respekt,heshima,s,changamnao,upinzani,ufanisi,NA,sd,NA,4,NA,NA,NA,NA,NA,NA,NA,NA,NA,NA,NA,NA,NA,NA,NA,NA,NA,NA,NA
b79bf,shallow,flow.Sequence,3_0_4_0_5_1,NA,NA,completion,13705.38,670613,670603.5,670620.16,684325.54,684350,2023-10-13T07:47:30Z,684342.18,NULL,Respekt,heshima,s,changamnao,upinzani,ufanisi,NA,sd,NA,4,NA,NA,NA,NA,NA,NA,NA,NA,NA,NA,NA,NA,NA,NA,NA,NA,NA,NA,NA
b79bf,task,flow.Sequence,3_0_4_0_5,NA,NA,completion,13705.38,670612,670603.5,670620.16,684325.54,684350,2023-10-13T07:47:30Z,684342.18,NULL,Respekt,heshima,s,changamnao,upinzani,ufanisi,NA,sd,NA,4,NA,NA,NA,NA,NA,NA,NA,NA,NA,NA,NA,NA,NA,NA,NA,NA,NA,NA,NA
b79bf,Deep Question,html.Page,3_0_4_0_6_0_0,NA,NA,form submission,6121.8199999999,684351,684325.54,684342.18,690464,690465,2023-10-13T07:47:36Z,690470.42,NULL,Betrüger,mdanganyifu,d,NA,NA,NA,be,NA,NA,4,NA,NA,NA,NA,NA,NA,NA,NA,NA,NA,NA,NA,NA,NA,NA,NA,NA,NA,NA
b79bf,"""Richtig""-Screen",canvas.Screen,3_0_4_0_6_0_1,NA,NA,skipped,NA,690467,NA,NA,690464,690467,2023-10-13T07:47:36Z,690470.42,NULL,Betrüger,mdanganyifu,d,NA,NA,NA,NA,sd,NA,4,NA,NA,NA,NA,NA,NA,NA,NA,NA,NA,NA,NA,NA,NA,NA,NA,NA,NA,NA
b79bf,"""Falsch""-Screen",canvas.Screen,3_0_4_0_6_0_2,NA,NA,timeout,4995.98,690472,690459.96,690470.42,695449.74,695451,2023-10-13T07:47:41Z,695466.4,NULL,Betrüger,mdanganyifu,d,NA,NA,NA,NA,sd,0,4,NA,NA,NA,NA,NA,NA,NA,NA,NA,NA,NA,NA,NA,NA,NA,NA,NA,NA,NA
b79bf,deep,flow.Sequence,3_0_4_0_6_0,NA,NA,completion,11107.56,684351,684325.54,684342.18,695449.74,695453,2023-10-13T07:47:41Z,695466.4,NULL,Betrüger,mdanganyifu,d,NA,NA,NA,NA,sd,NA,4,NA,NA,NA,NA,NA,NA,NA,NA,NA,NA,NA,NA,NA,NA,NA,NA,NA,NA,NA
b79bf,shallow,flow.Sequence,3_0_4_0_6_1,NA,NA,skipped,NA,695454,NA,NA,695449.74,695454,2023-10-13T07:47:41Z,695466.4,NULL,Betrüger,mdanganyifu,d,NA,NA,NA,NA,sd,NA,4,NA,NA,NA,NA,NA,NA,NA,NA,NA,NA,NA,NA,NA,NA,NA,NA,NA,NA,NA
b79bf,task,flow.Sequence,3_0_4_0_6,NA,NA,completion,11107.56,684351,684325.54,684342.18,695449.74,695455,2023-10-13T07:47:41Z,695466.4,NULL,Betrüger,mdanganyifu,d,NA,NA,NA,NA,sd,NA,4,NA,NA,NA,NA,NA,NA,NA,NA,NA,NA,NA,NA,NA,NA,NA,NA,NA,NA,NA
b79bf,deep,flow.Sequence,3_0_4_0_7_0,NA,NA,skipped,NA,695456,NA,NA,695449.74,695457,2023-10-13T07:47:41Z,695466.4,NULL,Orientierung,urekebisho,s,uelekeo,marekebisho,utunzaji,NA,sd,NA,4,NA,NA,NA,NA,NA,NA,NA,NA,NA,NA,NA,NA,NA,NA,NA,NA,NA,NA,NA
b79bf,Shallow Question,html.Page,3_0_4_0_7_1_0,NA,NA,form submission,8033.6,695457,695449.74,695466.4,703500,703500,2023-10-13T07:47:49Z,703509.74,NULL,Orientierung,urekebisho,s,uelekeo,marekebisho,utunzaji,urekebisho,NA,NA,4,NA,NA,NA,NA,NA,NA,NA,NA,NA,NA,NA,NA,NA,NA,NA,NA,NA,NA,NA
b79bf,"""Richtig""-Screen",canvas.Screen,3_0_4_0_7_1_1,NA,NA,timeout,4995.98,703502,703497.5,703509.74,708489.06,708491,2023-10-13T07:47:54Z,708505.72,NULL,Orientierung,urekebisho,s,uelekeo,marekebisho,utunzaji,NA,sd,1,4,NA,NA,NA,NA,NA,NA,NA,NA,NA,NA,NA,NA,NA,NA,NA,NA,NA,NA,NA
b79bf,"""Falsch""-Screen",canvas.Screen,3_0_4_0_7_1_2,NA,NA,skipped,NA,708499,NA,NA,708489.06,708500,2023-10-13T07:47:54Z,708505.72,NULL,Orientierung,urekebisho,s,uelekeo,marekebisho,utunzaji,NA,sd,NA,4,NA,NA,NA,NA,NA,NA,NA,NA,NA,NA,NA,NA,NA,NA,NA,NA,NA,NA,NA
b79bf,shallow,flow.Sequence,3_0_4_0_7_1,NA,NA,completion,13022.66,695457,695449.74,695466.4,708489.06,708500,2023-10-13T07:47:54Z,708505.72,NULL,Orientierung,urekebisho,s,uelekeo,marekebisho,utunzaji,NA,sd,NA,4,NA,NA,NA,NA,NA,NA,NA,NA,NA,NA,NA,NA,NA,NA,NA,NA,NA,NA,NA
b79bf,task,flow.Sequence,3_0_4_0_7,NA,NA,completion,13022.66,695455,695449.74,695466.4,708489.06,708501,2023-10-13T07:47:54Z,708505.72,NULL,Orientierung,urekebisho,s,uelekeo,marekebisho,utunzaji,NA,sd,NA,4,NA,NA,NA,NA,NA,NA,NA,NA,NA,NA,NA,NA,NA,NA,NA,NA,NA,NA,NA
b79bf,block,flow.Loop,3_0_4_0,NA,NA,completion,88208.2,620281,620280.62,620280.86,708489.06,708501,2023-10-13T07:47:54Z,708505.72,NULL,NA,NA,NA,NA,NA,NA,NA,sd,NA,4,NA,NA,NA,NA,NA,NA,NA,NA,NA,NA,NA,NA,NA,NA,NA,NA,NA,NA,NA
b79bf,weiter,canvas.Screen,3_0_4_1,sdf,keypress(Space),response,1139.28,708502,708489.06,708505.72,709645,709657,2023-10-13T07:47:56Z,709823.56,NULL,NA,NA,NA,NA,NA,NA,NA,sd,NA,4,NA,NA,NA,NA,NA,NA,NA,NA,NA,NA,NA,NA,NA,NA,NA,NA,NA,NA,NA
b79bf,check continue,flow.Sequence,3_0_4,NA,NA,completion,89364.14,620281,620280.62,620280.86,709645,709658,2023-10-13T07:47:56Z,709823.56,NULL,NA,NA,NA,NA,NA,NA,NA,sd,NA,4,NA,NA,NA,NA,NA,NA,NA,NA,NA,NA,NA,NA,NA,NA,NA,NA,NA,NA,NA
b79bf,deep,flow.Sequence,3_0_5_0_0_0,NA,NA,skipped,NA,709823,NA,NA,709645,709823,2023-10-13T07:47:56Z,709823.56,NULL,Können,unaweza,s,kiongozi,bustani,mienendo,NA,sdf,NA,5,NA,NA,NA,NA,NA,NA,NA,NA,NA,NA,NA,NA,NA,NA,NA,NA,NA,NA,NA
b79bf,Shallow Question,html.Page,3_0_5_0_0_1_0,NA,NA,form submission,4052.4399999999,709824,709823.16,709823.56,713876,713876,2023-10-13T07:48:00Z,713884.6,NULL,Können,unaweza,s,kiongozi,bustani,mienendo,unaweza,NA,NA,5,NA,NA,NA,NA,NA,NA,NA,NA,NA,NA,NA,NA,NA,NA,NA,NA,NA,NA,NA
b79bf,"""Richtig""-Screen",canvas.Screen,3_0_5_0_0_1_1,NA,NA,timeout,4995.9,713878,713873.56,713884.6,718863.84,718865,2023-10-13T07:48:05Z,718880.5,NULL,Können,unaweza,s,kiongozi,bustani,mienendo,NA,sdf,1,5,NA,NA,NA,NA,NA,NA,NA,NA,NA,NA,NA,NA,NA,NA,NA,NA,NA,NA,NA
b79bf,"""Falsch""-Screen",canvas.Screen,3_0_5_0_0_1_2,NA,NA,skipped,NA,718871,NA,NA,718863.84,718872,2023-10-13T07:48:05Z,718880.5,NULL,Können,unaweza,s,kiongozi,bustani,mienendo,NA,sdf,NA,5,NA,NA,NA,NA,NA,NA,NA,NA,NA,NA,NA,NA,NA,NA,NA,NA,NA,NA,NA
b79bf,shallow,flow.Sequence,3_0_5_0_0_1,NA,NA,completion,9040.2799999999,709823,709823.16,709823.56,718863.84,718872,2023-10-13T07:48:05Z,718880.5,NULL,Können,unaweza,s,kiongozi,bustani,mienendo,NA,sdf,NA,5,NA,NA,NA,NA,NA,NA,NA,NA,NA,NA,NA,NA,NA,NA,NA,NA,NA,NA,NA
b79bf,task,flow.Sequence,3_0_5_0_0,NA,NA,completion,9040.2799999999,709823,709823.16,709823.56,718863.84,718873,2023-10-13T07:48:05Z,718880.5,NULL,Können,unaweza,s,kiongozi,bustani,mienendo,NA,sdf,NA,5,NA,NA,NA,NA,NA,NA,NA,NA,NA,NA,NA,NA,NA,NA,NA,NA,NA,NA,NA
b79bf,Deep Question,html.Page,3_0_5_0_1_0_0,NA,NA,form submission,5337.5,718873,718863.84,718880.5,724218,724218,2023-10-13T07:48:10Z,724226.04,NULL,Stimmung,kinyongo,d,NA,NA,NA,kinyongo,NA,NA,5,NA,NA,NA,NA,NA,NA,NA,NA,NA,NA,NA,NA,NA,NA,NA,NA,NA,NA,NA
b79bf,"""Richtig""-Screen",canvas.Screen,3_0_5_0_1_0_1,NA,NA,timeout,4995.9399999999,724220,724215.58,724226.04,729205.34,729207,2023-10-13T07:48:15Z,729221.98,NULL,Stimmung,kinyongo,d,NA,NA,NA,NA,sdf,1,5,NA,NA,NA,NA,NA,NA,NA,NA,NA,NA,NA,NA,NA,NA,NA,NA,NA,NA,NA
b79bf,"""Falsch""-Screen",canvas.Screen,3_0_5_0_1_0_2,NA,NA,skipped,NA,729214,NA,NA,729205.34,729214,2023-10-13T07:48:15Z,729221.98,NULL,Stimmung,kinyongo,d,NA,NA,NA,NA,sdf,NA,5,NA,NA,NA,NA,NA,NA,NA,NA,NA,NA,NA,NA,NA,NA,NA,NA,NA,NA,NA
b79bf,deep,flow.Sequence,3_0_5_0_1_0,NA,NA,completion,10324.84,718873,718863.84,718880.5,729205.34,729214,2023-10-13T07:48:15Z,729221.98,NULL,Stimmung,kinyongo,d,NA,NA,NA,NA,sdf,NA,5,NA,NA,NA,NA,NA,NA,NA,NA,NA,NA,NA,NA,NA,NA,NA,NA,NA,NA,NA
b79bf,shallow,flow.Sequence,3_0_5_0_1_1,NA,NA,skipped,NA,729215,NA,NA,729205.34,729215,2023-10-13T07:48:15Z,729221.98,NULL,Stimmung,kinyongo,d,NA,NA,NA,NA,sdf,NA,5,NA,NA,NA,NA,NA,NA,NA,NA,NA,NA,NA,NA,NA,NA,NA,NA,NA,NA,NA
b79bf,task,flow.Sequence,3_0_5_0_1,NA,NA,completion,10324.84,718873,718863.84,718880.5,729205.34,729215,2023-10-13T07:48:15Z,729221.98,NULL,Stimmung,kinyongo,d,NA,NA,NA,NA,sdf,NA,5,NA,NA,NA,NA,NA,NA,NA,NA,NA,NA,NA,NA,NA,NA,NA,NA,NA,NA,NA
b79bf,Deep Question,html.Page,3_0_5_0_2_0_0,NA,NA,form submission,5481.02,729216,729205.34,729221.98,734703,734703,2023-10-13T07:48:21Z,734700.72,NULL,Kontrolle,kudhibiti,d,NA,NA,NA,ko,NA,NA,5,NA,NA,NA,NA,NA,NA,NA,NA,NA,NA,NA,NA,NA,NA,NA,NA,NA,NA,NA
b79bf,"""Richtig""-Screen",canvas.Screen,3_0_5_0_2_0_1,NA,NA,skipped,NA,734705,NA,NA,734703,734705,2023-10-13T07:48:21Z,734700.72,NULL,Kontrolle,kudhibiti,d,NA,NA,NA,NA,sdf,NA,5,NA,NA,NA,NA,NA,NA,NA,NA,NA,NA,NA,NA,NA,NA,NA,NA,NA,NA,NA
b79bf,"""Falsch""-Screen",canvas.Screen,3_0_5_0_2_0_2,NA,NA,timeout,4996,734707,734699.68,734700.72,739680.06,739685,2023-10-13T07:48:26Z,739696.72,NULL,Kontrolle,kudhibiti,d,NA,NA,NA,NA,sdf,0,5,NA,NA,NA,NA,NA,NA,NA,NA,NA,NA,NA,NA,NA,NA,NA,NA,NA,NA,NA
b79bf,deep,flow.Sequence,3_0_5_0_2_0,NA,NA,completion,10458.08,729216,729205.34,729221.98,739680.06,739688,2023-10-13T07:48:26Z,739696.72,NULL,Kontrolle,kudhibiti,d,NA,NA,NA,NA,sdf,NA,5,NA,NA,NA,NA,NA,NA,NA,NA,NA,NA,NA,NA,NA,NA,NA,NA,NA,NA,NA
b79bf,shallow,flow.Sequence,3_0_5_0_2_1,NA,NA,skipped,NA,739688,NA,NA,739680.06,739689,2023-10-13T07:48:26Z,739696.72,NULL,Kontrolle,kudhibiti,d,NA,NA,NA,NA,sdf,NA,5,NA,NA,NA,NA,NA,NA,NA,NA,NA,NA,NA,NA,NA,NA,NA,NA,NA,NA,NA
b79bf,task,flow.Sequence,3_0_5_0_2,NA,NA,completion,10458.08,729215,729205.34,729221.98,739680.06,739689,2023-10-13T07:48:26Z,739696.72,NULL,Kontrolle,kudhibiti,d,NA,NA,NA,NA,sdf,NA,5,NA,NA,NA,NA,NA,NA,NA,NA,NA,NA,NA,NA,NA,NA,NA,NA,NA,NA,NA
b79bf,Deep Question,html.Page,3_0_5_0_3_0_0,NA,NA,form submission,5758.28,739690,739680.06,739696.72,745455,745456,2023-10-13T07:48:31Z,745475.22,NULL,Gefährdung,kuhatarisha,d,NA,NA,NA,ge,NA,NA,5,NA,NA,NA,NA,NA,NA,NA,NA,NA,NA,NA,NA,NA,NA,NA,NA,NA,NA,NA
b79bf,"""Richtig""-Screen",canvas.Screen,3_0_5_0_3_0_1,NA,NA,skipped,NA,745462,NA,NA,745455,745462,2023-10-13T07:48:31Z,745475.22,NULL,Gefährdung,kuhatarisha,d,NA,NA,NA,NA,sdf,NA,5,NA,NA,NA,NA,NA,NA,NA,NA,NA,NA,NA,NA,NA,NA,NA,NA,NA,NA,NA
b79bf,"""Falsch""-Screen",canvas.Screen,3_0_5_0_3_0_2,NA,NA,timeout,4998.04,745465,745458.58,745475.22,750454.52,750456,2023-10-13T07:48:36Z,750473.26,NULL,Gefährdung,kuhatarisha,d,NA,NA,NA,NA,sdf,0,5,NA,NA,NA,NA,NA,NA,NA,NA,NA,NA,NA,NA,NA,NA,NA,NA,NA,NA,NA
b79bf,deep,flow.Sequence,3_0_5_0_3_0,NA,NA,completion,10757.8,739690,739680.06,739696.72,750454.52,750457,2023-10-13T07:48:36Z,750473.26,NULL,Gefährdung,kuhatarisha,d,NA,NA,NA,NA,sdf,NA,5,NA,NA,NA,NA,NA,NA,NA,NA,NA,NA,NA,NA,NA,NA,NA,NA,NA,NA,NA
b79bf,shallow,flow.Sequence,3_0_5_0_3_1,NA,NA,skipped,NA,750457,NA,NA,750454.52,750458,2023-10-13T07:48:36Z,750473.26,NULL,Gefährdung,kuhatarisha,d,NA,NA,NA,NA,sdf,NA,5,NA,NA,NA,NA,NA,NA,NA,NA,NA,NA,NA,NA,NA,NA,NA,NA,NA,NA,NA
b79bf,task,flow.Sequence,3_0_5_0_3,NA,NA,completion,10757.8,739690,739680.06,739696.72,750454.52,750459,2023-10-13T07:48:36Z,750473.26,NULL,Gefährdung,kuhatarisha,d,NA,NA,NA,NA,sdf,NA,5,NA,NA,NA,NA,NA,NA,NA,NA,NA,NA,NA,NA,NA,NA,NA,NA,NA,NA,NA
b79bf,deep,flow.Sequence,3_0_5_0_4_0,NA,NA,skipped,NA,750460,NA,NA,750454.52,750461,2023-10-13T07:48:36Z,750473.26,NULL,Orientierung,urekebisho,s,uelekeo,marekebisho,utunzaji,NA,sdf,NA,5,NA,NA,NA,NA,NA,NA,NA,NA,NA,NA,NA,NA,NA,NA,NA,NA,NA,NA,NA
b79bf,Shallow Question,html.Page,3_0_5_0_4_1_0,NA,NA,form submission,13329.74,750462,750454.52,750473.26,763803,763804,2023-10-13T07:48:50Z,763810.22,NULL,Orientierung,urekebisho,s,uelekeo,marekebisho,utunzaji,urekebisho,NA,NA,5,NA,NA,NA,NA,NA,NA,NA,NA,NA,NA,NA,NA,NA,NA,NA,NA,NA,NA,NA
b79bf,"""Richtig""-Screen",canvas.Screen,3_0_5_0_4_1_1,NA,NA,timeout,4995.86,763807,763801.5,763810.22,768789.46,768791,2023-10-13T07:48:55Z,768806.08,NULL,Orientierung,urekebisho,s,uelekeo,marekebisho,utunzaji,NA,sdf,1,5,NA,NA,NA,NA,NA,NA,NA,NA,NA,NA,NA,NA,NA,NA,NA,NA,NA,NA,NA
b79bf,"""Falsch""-Screen",canvas.Screen,3_0_5_0_4_1_2,NA,NA,skipped,NA,768797,NA,NA,768789.46,768798,2023-10-13T07:48:55Z,768806.08,NULL,Orientierung,urekebisho,s,uelekeo,marekebisho,utunzaji,NA,sdf,NA,5,NA,NA,NA,NA,NA,NA,NA,NA,NA,NA,NA,NA,NA,NA,NA,NA,NA,NA,NA
b79bf,shallow,flow.Sequence,3_0_5_0_4_1,NA,NA,completion,18316.2,750461,750454.52,750473.26,768789.46,768798,2023-10-13T07:48:55Z,768806.08,NULL,Orientierung,urekebisho,s,uelekeo,marekebisho,utunzaji,NA,sdf,NA,5,NA,NA,NA,NA,NA,NA,NA,NA,NA,NA,NA,NA,NA,NA,NA,NA,NA,NA,NA
b79bf,task,flow.Sequence,3_0_5_0_4,NA,NA,completion,18316.2,750459,750454.52,750473.26,768789.46,768799,2023-10-13T07:48:55Z,768806.08,NULL,Orientierung,urekebisho,s,uelekeo,marekebisho,utunzaji,NA,sdf,NA,5,NA,NA,NA,NA,NA,NA,NA,NA,NA,NA,NA,NA,NA,NA,NA,NA,NA,NA,NA
b79bf,Deep Question,html.Page,3_0_5_0_5_0_0,NA,NA,form submission,29999.92,768800,768789.46,768806.08,798806,798806,2023-10-13T07:49:25Z,798814.66,NULL,Betrüger,mdanganyifu,d,NA,NA,NA,mdanga,NA,NA,5,NA,NA,NA,NA,NA,NA,NA,NA,NA,NA,NA,NA,NA,NA,NA,NA,NA,NA,NA
b79bf,"""Richtig""-Screen",canvas.Screen,3_0_5_0_5_0_1,NA,NA,skipped,NA,798808,NA,NA,798806,798808,2023-10-13T07:49:25Z,798814.66,NULL,Betrüger,mdanganyifu,d,NA,NA,NA,NA,sdf,NA,5,NA,NA,NA,NA,NA,NA,NA,NA,NA,NA,NA,NA,NA,NA,NA,NA,NA,NA,NA
b79bf,"""Falsch""-Screen",canvas.Screen,3_0_5_0_5_0_2,NA,NA,timeout,4996.02,798813,798803.46,798814.66,803794.04,803796,2023-10-13T07:49:30Z,803810.68,NULL,Betrüger,mdanganyifu,d,NA,NA,NA,NA,sdf,0,5,NA,NA,NA,NA,NA,NA,NA,NA,NA,NA,NA,NA,NA,NA,NA,NA,NA,NA,NA
b79bf,deep,flow.Sequence,3_0_5_0_5_0,NA,NA,completion,34987.96,768800,768789.46,768806.08,803794.04,803798,2023-10-13T07:49:30Z,803810.68,NULL,Betrüger,mdanganyifu,d,NA,NA,NA,NA,sdf,NA,5,NA,NA,NA,NA,NA,NA,NA,NA,NA,NA,NA,NA,NA,NA,NA,NA,NA,NA,NA
b79bf,shallow,flow.Sequence,3_0_5_0_5_1,NA,NA,skipped,NA,803798,NA,NA,803794.04,803798,2023-10-13T07:49:30Z,803810.68,NULL,Betrüger,mdanganyifu,d,NA,NA,NA,NA,sdf,NA,5,NA,NA,NA,NA,NA,NA,NA,NA,NA,NA,NA,NA,NA,NA,NA,NA,NA,NA,NA
b79bf,task,flow.Sequence,3_0_5_0_5,NA,NA,completion,34987.96,768799,768789.46,768806.08,803794.04,803799,2023-10-13T07:49:30Z,803810.68,NULL,Betrüger,mdanganyifu,d,NA,NA,NA,NA,sdf,NA,5,NA,NA,NA,NA,NA,NA,NA,NA,NA,NA,NA,NA,NA,NA,NA,NA,NA,NA,NA
b79bf,deep,flow.Sequence,3_0_5_0_6_0,NA,NA,skipped,NA,803800,NA,NA,803794.04,803803,2023-10-13T07:49:30Z,803810.68,NULL,Kreativität,ubunifu,s,mratibu,mwendelezo,makubaliano,NA,sdf,NA,5,NA,NA,NA,NA,NA,NA,NA,NA,NA,NA,NA,NA,NA,NA,NA,NA,NA,NA,NA
b79bf,Shallow Question,html.Page,3_0_5_0_6_1_0,NA,NA,form submission,8745.3199999999,803804,803794.04,803810.68,812556,812556,2023-10-13T07:49:39Z,812570.04,NULL,Kreativität,ubunifu,s,mratibu,mwendelezo,makubaliano,ubunifu,NA,NA,5,NA,NA,NA,NA,NA,NA,NA,NA,NA,NA,NA,NA,NA,NA,NA,NA,NA,NA,NA
b79bf,"""Richtig""-Screen",canvas.Screen,3_0_5_0_6_1_1,NA,NA,timeout,4995.96,812558,812553.66,812570.04,817549.36,817551,2023-10-13T07:49:44Z,817566,NULL,Kreativität,ubunifu,s,mratibu,mwendelezo,makubaliano,NA,sdf,1,5,NA,NA,NA,NA,NA,NA,NA,NA,NA,NA,NA,NA,NA,NA,NA,NA,NA,NA,NA
b79bf,"""Falsch""-Screen",canvas.Screen,3_0_5_0_6_1_2,NA,NA,skipped,NA,817558,NA,NA,817549.36,817558,2023-10-13T07:49:44Z,817566,NULL,Kreativität,ubunifu,s,mratibu,mwendelezo,makubaliano,NA,sdf,NA,5,NA,NA,NA,NA,NA,NA,NA,NA,NA,NA,NA,NA,NA,NA,NA,NA,NA,NA,NA
b79bf,shallow,flow.Sequence,3_0_5_0_6_1,NA,NA,completion,13738.68,803804,803794.04,803810.68,817549.36,817559,2023-10-13T07:49:44Z,817566,NULL,Kreativität,ubunifu,s,mratibu,mwendelezo,makubaliano,NA,sdf,NA,5,NA,NA,NA,NA,NA,NA,NA,NA,NA,NA,NA,NA,NA,NA,NA,NA,NA,NA,NA
b79bf,task,flow.Sequence,3_0_5_0_6,NA,NA,completion,13738.68,803799,803794.04,803810.68,817549.36,817560,2023-10-13T07:49:44Z,817566,NULL,Kreativität,ubunifu,s,mratibu,mwendelezo,makubaliano,NA,sdf,NA,5,NA,NA,NA,NA,NA,NA,NA,NA,NA,NA,NA,NA,NA,NA,NA,NA,NA,NA,NA
b79bf,deep,flow.Sequence,3_0_5_0_7_0,NA,NA,skipped,NA,817560,NA,NA,817549.36,817560,2023-10-13T07:49:44Z,817566,NULL,Respekt,heshima,s,changamnao,upinzani,ufanisi,NA,sdf,NA,5,NA,NA,NA,NA,NA,NA,NA,NA,NA,NA,NA,NA,NA,NA,NA,NA,NA,NA,NA
b79bf,Shallow Question,html.Page,3_0_5_0_7_1_0,NA,NA,form submission,4092,817560,817549.36,817566,821658,821658,2023-10-13T07:49:48Z,821662.58,NULL,Respekt,heshima,s,changamnao,upinzani,ufanisi,heshima,NA,NA,5,NA,NA,NA,NA,NA,NA,NA,NA,NA,NA,NA,NA,NA,NA,NA,NA,NA,NA,NA
b79bf,"""Richtig""-Screen",canvas.Screen,3_0_5_0_7_1_1,NA,NA,timeout,4996.02,821660,821655.68,821662.58,826641.96,826643,2023-10-13T07:49:53Z,826658.6,NULL,Respekt,heshima,s,changamnao,upinzani,ufanisi,NA,sdf,1,5,NA,NA,NA,NA,NA,NA,NA,NA,NA,NA,NA,NA,NA,NA,NA,NA,NA,NA,NA
b79bf,"""Falsch""-Screen",canvas.Screen,3_0_5_0_7_1_2,NA,NA,skipped,NA,826649,NA,NA,826641.96,826649,2023-10-13T07:49:53Z,826658.6,NULL,Respekt,heshima,s,changamnao,upinzani,ufanisi,NA,sdf,NA,5,NA,NA,NA,NA,NA,NA,NA,NA,NA,NA,NA,NA,NA,NA,NA,NA,NA,NA,NA
b79bf,shallow,flow.Sequence,3_0_5_0_7_1,NA,NA,completion,9075.96,817560,817549.36,817566,826641.96,826650,2023-10-13T07:49:53Z,826658.6,NULL,Respekt,heshima,s,changamnao,upinzani,ufanisi,NA,sdf,NA,5,NA,NA,NA,NA,NA,NA,NA,NA,NA,NA,NA,NA,NA,NA,NA,NA,NA,NA,NA
b79bf,task,flow.Sequence,3_0_5_0_7,NA,NA,completion,9075.96,817560,817549.36,817566,826641.96,826650,2023-10-13T07:49:53Z,826658.6,NULL,Respekt,heshima,s,changamnao,upinzani,ufanisi,NA,sdf,NA,5,NA,NA,NA,NA,NA,NA,NA,NA,NA,NA,NA,NA,NA,NA,NA,NA,NA,NA,NA
b79bf,block,flow.Loop,3_0_5_0,NA,NA,completion,116818.4,709823,709823.16,709823.56,826641.96,826651,2023-10-13T07:49:53Z,826658.6,NULL,NA,NA,NA,NA,NA,NA,NA,sdf,NA,5,NA,NA,NA,NA,NA,NA,NA,NA,NA,NA,NA,NA,NA,NA,NA,NA,NA,NA,NA
b79bf,weiter,canvas.Screen,3_0_5_1,sdf,keypress(Space),response,1314.4,826652,826641.96,826658.6,827973,827986,2023-10-13T07:49:54Z,829790.68,NULL,NA,NA,NA,NA,NA,NA,NA,sdf,NA,5,NA,NA,NA,NA,NA,NA,NA,NA,NA,NA,NA,NA,NA,NA,NA,NA,NA,NA,NA
b79bf,check continue,flow.Sequence,3_0_5,NA,NA,completion,118149.44,709822,709823.16,709823.56,827973,827987,2023-10-13T07:49:54Z,829790.68,NULL,NA,NA,NA,NA,NA,NA,NA,sdf,NA,5,NA,NA,NA,NA,NA,NA,NA,NA,NA,NA,NA,NA,NA,NA,NA,NA,NA,NA,NA
b79bf,check continue,flow.Sequence,3_0_6,NA,NA,skipped,NA,828131,NA,NA,827973,828132,2023-10-13T07:49:54Z,829790.68,NULL,NA,NA,NA,NA,NA,NA,NA,dfs,NA,6,NA,NA,NA,NA,NA,NA,NA,NA,NA,NA,NA,NA,NA,NA,NA,NA,NA,NA,NA
b79bf,check continue,flow.Sequence,3_0_7,NA,NA,skipped,NA,828243,NA,NA,827973,828243,2023-10-13T07:49:54Z,829790.68,NULL,NA,NA,NA,NA,NA,NA,NA,df,NA,7,NA,NA,NA,NA,NA,NA,NA,NA,NA,NA,NA,NA,NA,NA,NA,NA,NA,NA,NA
b79bf,check continue,flow.Sequence,3_0_8,NA,NA,skipped,NA,828333,NA,NA,827973,828333,2023-10-13T07:49:54Z,829790.68,NULL,NA,NA,NA,NA,NA,NA,NA,dfs,NA,8,NA,NA,NA,NA,NA,NA,NA,NA,NA,NA,NA,NA,NA,NA,NA,NA,NA,NA,NA
b79bf,check continue,flow.Sequence,3_0_9,NA,NA,skipped,NA,828381,NA,NA,827973,828381,2023-10-13T07:49:54Z,829790.68,NULL,NA,NA,NA,NA,NA,NA,NA,dsf,NA,9,NA,NA,NA,NA,NA,NA,NA,NA,NA,NA,NA,NA,NA,NA,NA,NA,NA,NA,NA
b79bf,check continue,flow.Sequence,3_0_10,NA,NA,skipped,NA,828449,NA,NA,827973,828449,2023-10-13T07:49:54Z,829790.68,NULL,NA,NA,NA,NA,NA,NA,NA,df,NA,10,NA,NA,NA,NA,NA,NA,NA,NA,NA,NA,NA,NA,NA,NA,NA,NA,NA,NA,NA
b79bf,check continue,flow.Sequence,3_0_11,NA,NA,skipped,NA,828510,NA,NA,827973,828510,2023-10-13T07:49:54Z,829790.68,NULL,NA,NA,NA,NA,NA,NA,NA,dfs,NA,11,NA,NA,NA,NA,NA,NA,NA,NA,NA,NA,NA,NA,NA,NA,NA,NA,NA,NA,NA
b79bf,check continue,flow.Sequence,3_0_12,NA,NA,skipped,NA,828585,NA,NA,827973,828585,2023-10-13T07:49:55Z,829790.68,NULL,NA,NA,NA,NA,NA,NA,NA,dsf,NA,12,NA,NA,NA,NA,NA,NA,NA,NA,NA,NA,NA,NA,NA,NA,NA,NA,NA,NA,NA
b79bf,check continue,flow.Sequence,3_0_13,NA,NA,skipped,NA,828657,NA,NA,827973,828657,2023-10-13T07:49:55Z,829790.68,NULL,NA,NA,NA,NA,NA,NA,NA,dsf,NA,13,NA,NA,NA,NA,NA,NA,NA,NA,NA,NA,NA,NA,NA,NA,NA,NA,NA,NA,NA
b79bf,check continue,flow.Sequence,3_0_14,NA,NA,skipped,NA,828731,NA,NA,827973,828731,2023-10-13T07:49:55Z,829790.68,NULL,NA,NA,NA,NA,NA,NA,NA,NA,NA,14,NA,NA,NA,NA,NA,NA,NA,NA,NA,NA,NA,NA,NA,NA,NA,NA,NA,NA,NA
b79bf,check continue,flow.Sequence,3_0_15,NA,NA,skipped,NA,828805,NA,NA,827973,828805,2023-10-13T07:49:55Z,829790.68,NULL,NA,NA,NA,NA,NA,NA,NA,NA,NA,15,NA,NA,NA,NA,NA,NA,NA,NA,NA,NA,NA,NA,NA,NA,NA,NA,NA,NA,NA
b79bf,check continue,flow.Sequence,3_0_16,NA,NA,skipped,NA,828893,NA,NA,827973,828893,2023-10-13T07:49:55Z,829790.68,NULL,NA,NA,NA,NA,NA,NA,NA,NA,NA,16,NA,NA,NA,NA,NA,NA,NA,NA,NA,NA,NA,NA,NA,NA,NA,NA,NA,NA,NA
b79bf,check continue,flow.Sequence,3_0_17,NA,NA,skipped,NA,828982,NA,NA,827973,828982,2023-10-13T07:49:55Z,829790.68,NULL,NA,NA,NA,NA,NA,NA,NA,NA,NA,17,NA,NA,NA,NA,NA,NA,NA,NA,NA,NA,NA,NA,NA,NA,NA,NA,NA,NA,NA
b79bf,check continue,flow.Sequence,3_0_18,NA,NA,skipped,NA,829063,NA,NA,827973,829063,2023-10-13T07:49:55Z,829790.68,NULL,NA,NA,NA,NA,NA,NA,NA,NA,NA,18,NA,NA,NA,NA,NA,NA,NA,NA,NA,NA,NA,NA,NA,NA,NA,NA,NA,NA,NA
b79bf,check continue,flow.Sequence,3_0_19,NA,NA,skipped,NA,829131,NA,NA,827973,829132,2023-10-13T07:49:55Z,829790.68,NULL,NA,NA,NA,NA,NA,NA,NA,NA,NA,19,NA,NA,NA,NA,NA,NA,NA,NA,NA,NA,NA,NA,NA,NA,NA,NA,NA,NA,NA
b79bf,check continue,flow.Sequence,3_0_20,NA,NA,skipped,NA,829204,NA,NA,827973,829204,2023-10-13T07:49:55Z,829790.68,NULL,NA,NA,NA,NA,NA,NA,NA,NA,NA,20,NA,NA,NA,NA,NA,NA,NA,NA,NA,NA,NA,NA,NA,NA,NA,NA,NA,NA,NA
b79bf,check continue,flow.Sequence,3_0_21,NA,NA,skipped,NA,829290,NA,NA,827973,829290,2023-10-13T07:49:55Z,829790.68,NULL,NA,NA,NA,NA,NA,NA,NA,NA,NA,21,NA,NA,NA,NA,NA,NA,NA,NA,NA,NA,NA,NA,NA,NA,NA,NA,NA,NA,NA
b79bf,check continue,flow.Sequence,3_0_22,NA,NA,skipped,NA,829376,NA,NA,827973,829377,2023-10-13T07:49:55Z,829790.68,NULL,NA,NA,NA,NA,NA,NA,NA,NA,NA,22,NA,NA,NA,NA,NA,NA,NA,NA,NA,NA,NA,NA,NA,NA,NA,NA,NA,NA,NA
b79bf,check continue,flow.Sequence,3_0_23,NA,NA,skipped,NA,829464,NA,NA,827973,829464,2023-10-13T07:49:55Z,829790.68,NULL,NA,NA,NA,NA,NA,NA,NA,NA,NA,23,NA,NA,NA,NA,NA,NA,NA,NA,NA,NA,NA,NA,NA,NA,NA,NA,NA,NA,NA
b79bf,check continue,flow.Sequence,3_0_24,NA,NA,skipped,NA,829530,NA,NA,827973,829530,2023-10-13T07:49:56Z,829790.68,NULL,NA,NA,NA,NA,NA,NA,NA,NA,NA,24,NA,NA,NA,NA,NA,NA,NA,NA,NA,NA,NA,NA,NA,NA,NA,NA,NA,NA,NA
b79bf,check continue,flow.Sequence,3_0_25,NA,NA,skipped,NA,829577,NA,NA,827973,829577,2023-10-13T07:49:56Z,829790.68,NULL,NA,NA,NA,NA,NA,NA,NA,NA,NA,25,NA,NA,NA,NA,NA,NA,NA,NA,NA,NA,NA,NA,NA,NA,NA,NA,NA,NA,NA
b79bf,check continue,flow.Sequence,3_0_26,NA,NA,skipped,NA,829631,NA,NA,827973,829632,2023-10-13T07:49:56Z,829790.68,NULL,NA,NA,NA,NA,NA,NA,NA,NA,NA,26,NA,NA,NA,NA,NA,NA,NA,NA,NA,NA,NA,NA,NA,NA,NA,NA,NA,NA,NA
b79bf,check continue,flow.Sequence,3_0_27,NA,NA,skipped,NA,829688,NA,NA,827973,829689,2023-10-13T07:49:56Z,829790.68,NULL,NA,NA,NA,NA,NA,NA,NA,NA,NA,27,NA,NA,NA,NA,NA,NA,NA,NA,NA,NA,NA,NA,NA,NA,NA,NA,NA,NA,NA
b79bf,check continue,flow.Sequence,3_0_28,NA,NA,skipped,NA,829740,NA,NA,827973,829740,2023-10-13T07:49:56Z,829790.68,NULL,NA,NA,NA,NA,NA,NA,NA,NA,NA,28,NA,NA,NA,NA,NA,NA,NA,NA,NA,NA,NA,NA,NA,NA,NA,NA,NA,NA,NA
b79bf,check continue,flow.Sequence,3_0_29,NA,NA,skipped,NA,829790,NA,NA,827973,829790,2023-10-13T07:49:56Z,829790.68,NULL,NA,NA,NA,NA,NA,NA,NA,NA,NA,29,NA,NA,NA,NA,NA,NA,NA,NA,NA,NA,NA,NA,NA,NA,NA,NA,NA,NA,NA
b79bf,until continue,flow.Loop,3_0,NA,NA,completion,664547.78,163330,163424.86,163425.22,827973,829790,2023-10-13T07:49:56Z,829790.68,NULL,NA,NA,NA,NA,NA,NA,NA,NA,NA,NA,NA,NA,NA,NA,NA,NA,NA,NA,NA,NA,NA,NA,NA,NA,NA,NA,NA,NA,NA
b79bf,block 1,flow.Sequence,3,NA,NA,completion,664547.78,163329,163424.86,163425.22,827973,829790,2023-10-13T07:49:56Z,829790.68,NULL,NA,NA,NA,NA,NA,NA,NA,NA,NA,NA,NA,NA,NA,NA,NA,NA,NA,NA,NA,NA,NA,NA,NA,NA,NA,NA,NA,NA,NA
b79bf,1.Part Over,canvas.Screen,4,NA,keypress(Space),response,2854.3199999999,829790,829790.42,829790.68,832645,832657,2023-10-13T07:49:59Z,832919.3,NULL,NA,NA,NA,NA,NA,NA,NA,NA,NA,NA,NA,NA,NA,NA,NA,NA,NA,NA,NA,NA,NA,NA,NA,NA,NA,NA,NA,NA,NA
b79bf,deep,flow.Sequence,5_0_0_0_0_0,NA,NA,skipped,NA,832918,NA,NA,832645,832918,2023-10-13T07:49:59Z,832919.3,NULL,Lawine,banguko,s,maambukizi,usuluhishi,chekechea,NA,sdf,NA,0,NA,NA,NA,NA,NA,NA,NA,NA,NA,NA,NA,NA,NA,NA,NA,NA,NA,NA,NA
b79bf,Shallow Question,html.Page,5_0_0_0_0_1_0,NA,NA,form submission,7044.7,832918,832918.8,832919.3,839964,839964,2023-10-13T07:50:06Z,839964.22,NULL,Lawine,banguko,s,maambukizi,usuluhishi,chekechea,banguko,NA,NA,0,NA,NA,NA,NA,NA,NA,NA,NA,NA,NA,NA,NA,NA,NA,NA,NA,NA,NA,NA
b79bf,"""Richtig""-Screen",canvas.Screen,5_0_0_0_0_1_1,NA,NA,timeout,4995.9600000001,839967,839959.78,839964.22,844943.54,844945,2023-10-13T07:50:11Z,844960.18,NULL,Lawine,banguko,s,maambukizi,usuluhishi,chekechea,NA,sdf,1,0,NA,NA,NA,NA,NA,NA,NA,NA,NA,NA,NA,NA,NA,NA,NA,NA,NA,NA,NA
b79bf,"""Falsch""-Screen",canvas.Screen,5_0_0_0_0_1_2,NA,NA,skipped,NA,844952,NA,NA,844943.54,844952,2023-10-13T07:50:11Z,844960.18,NULL,Lawine,banguko,s,maambukizi,usuluhishi,chekechea,NA,sdf,NA,0,NA,NA,NA,NA,NA,NA,NA,NA,NA,NA,NA,NA,NA,NA,NA,NA,NA,NA,NA
b79bf,shallow,flow.Sequence,5_0_0_0_0_1,NA,NA,completion,12024.24,832918,832918.8,832919.3,844943.54,844953,2023-10-13T07:50:11Z,844960.18,NULL,Lawine,banguko,s,maambukizi,usuluhishi,chekechea,NA,sdf,NA,0,NA,NA,NA,NA,NA,NA,NA,NA,NA,NA,NA,NA,NA,NA,NA,NA,NA,NA,NA
b79bf,task,flow.Sequence,5_0_0_0_0,NA,NA,completion,12024.24,832918,832918.8,832919.3,844943.54,844954,2023-10-13T07:50:11Z,844960.18,NULL,Lawine,banguko,s,maambukizi,usuluhishi,chekechea,NA,sdf,NA,0,NA,NA,NA,NA,NA,NA,NA,NA,NA,NA,NA,NA,NA,NA,NA,NA,NA,NA,NA
b79bf,Deep Question,html.Page,5_0_0_0_1_0_0,NA,NA,form submission,6799.8199999999,844955,844943.54,844960.18,851760,851760,2023-10-13T07:50:18Z,851771.16,NULL,Übersicht,kilindo,d,NA,NA,NA,über,NA,NA,0,NA,NA,NA,NA,NA,NA,NA,NA,NA,NA,NA,NA,NA,NA,NA,NA,NA,NA,NA
b79bf,"""Richtig""-Screen",canvas.Screen,5_0_0_0_1_0_1,NA,NA,skipped,NA,851766,NA,NA,851760,851766,2023-10-13T07:50:18Z,851771.16,NULL,Übersicht,kilindo,d,NA,NA,NA,NA,sdf,NA,0,NA,NA,NA,NA,NA,NA,NA,NA,NA,NA,NA,NA,NA,NA,NA,NA,NA,NA,NA
b79bf,"""Falsch""-Screen",canvas.Screen,5_0_0_0_1_0_2,NA,NA,timeout,4995.96,851773,851755.64,851771.16,856750.46,856752,2023-10-13T07:50:23Z,856767.12,NULL,Übersicht,kilindo,d,NA,NA,NA,NA,sdf,0,0,NA,NA,NA,NA,NA,NA,NA,NA,NA,NA,NA,NA,NA,NA,NA,NA,NA,NA,NA
b79bf,deep,flow.Sequence,5_0_0_0_1_0,NA,NA,completion,11790.28,844954,844943.54,844960.18,856750.46,856753,2023-10-13T07:50:23Z,856767.12,NULL,Übersicht,kilindo,d,NA,NA,NA,NA,sdf,NA,0,NA,NA,NA,NA,NA,NA,NA,NA,NA,NA,NA,NA,NA,NA,NA,NA,NA,NA,NA
b79bf,shallow,flow.Sequence,5_0_0_0_1_1,NA,NA,skipped,NA,856754,NA,NA,856750.46,856754,2023-10-13T07:50:23Z,856767.12,NULL,Übersicht,kilindo,d,NA,NA,NA,NA,sdf,NA,0,NA,NA,NA,NA,NA,NA,NA,NA,NA,NA,NA,NA,NA,NA,NA,NA,NA,NA,NA
b79bf,task,flow.Sequence,5_0_0_0_1,NA,NA,completion,11790.28,844954,844943.54,844960.18,856750.46,856754,2023-10-13T07:50:23Z,856767.12,NULL,Übersicht,kilindo,d,NA,NA,NA,NA,sdf,NA,0,NA,NA,NA,NA,NA,NA,NA,NA,NA,NA,NA,NA,NA,NA,NA,NA,NA,NA,NA
b79bf,deep,flow.Sequence,5_0_0_0_2_0,NA,NA,skipped,NA,856755,NA,NA,856750.46,856755,2023-10-13T07:50:23Z,856767.12,NULL,Niveau,kiwango,s,usimamizi,mwamali,mshairi,NA,sdf,NA,0,NA,NA,NA,NA,NA,NA,NA,NA,NA,NA,NA,NA,NA,NA,NA,NA,NA,NA,NA
b79bf,Shallow Question,html.Page,5_0_0_0_2_1_0,NA,NA,form submission,9170.88,856756,856750.46,856767.12,865938,865938,2023-10-13T07:50:32Z,865942.8,NULL,Niveau,kiwango,s,usimamizi,mwamali,mshairi,mwamali,NA,NA,0,NA,NA,NA,NA,NA,NA,NA,NA,NA,NA,NA,NA,NA,NA,NA,NA,NA,NA,NA
b79bf,"""Richtig""-Screen",canvas.Screen,5_0_0_0_2_1_1,NA,NA,skipped,NA,865941,NA,NA,865938,865941,2023-10-13T07:50:32Z,865942.8,NULL,Niveau,kiwango,s,usimamizi,mwamali,mshairi,NA,sdf,NA,0,NA,NA,NA,NA,NA,NA,NA,NA,NA,NA,NA,NA,NA,NA,NA,NA,NA,NA,NA
b79bf,"""Falsch""-Screen",canvas.Screen,5_0_0_0_2_1_2,NA,NA,timeout,4996.0599999999,865943,865935.64,865942.8,870922.22,870924,2023-10-13T07:50:37Z,870938.86,NULL,Niveau,kiwango,s,usimamizi,mwamali,mshairi,NA,sdf,0,0,NA,NA,NA,NA,NA,NA,NA,NA,NA,NA,NA,NA,NA,NA,NA,NA,NA,NA,NA
b79bf,shallow,flow.Sequence,5_0_0_0_2_1,NA,NA,completion,14155.1,856756,856750.46,856767.12,870922.22,870925,2023-10-13T07:50:37Z,870938.86,NULL,Niveau,kiwango,s,usimamizi,mwamali,mshairi,NA,sdf,NA,0,NA,NA,NA,NA,NA,NA,NA,NA,NA,NA,NA,NA,NA,NA,NA,NA,NA,NA,NA
b79bf,task,flow.Sequence,5_0_0_0_2,NA,NA,completion,14155.1,856755,856750.46,856767.12,870922.22,870926,2023-10-13T07:50:37Z,870938.86,NULL,Niveau,kiwango,s,usimamizi,mwamali,mshairi,NA,sdf,NA,0,NA,NA,NA,NA,NA,NA,NA,NA,NA,NA,NA,NA,NA,NA,NA,NA,NA,NA,NA
b79bf,Deep Question,html.Page,5_0_0_0_3_0_0,NA,NA,form submission,5614.14,870926,870922.22,870938.86,876553,876554,2023-10-13T07:50:43Z,876567.46,NULL,Vorwurf,mashtaka,d,NA,NA,NA,vo,NA,NA,0,NA,NA,NA,NA,NA,NA,NA,NA,NA,NA,NA,NA,NA,NA,NA,NA,NA,NA,NA
b79bf,"""Richtig""-Screen",canvas.Screen,5_0_0_0_3_0_1,NA,NA,skipped,NA,876556,NA,NA,876553,876556,2023-10-13T07:50:43Z,876567.46,NULL,Vorwurf,mashtaka,d,NA,NA,NA,NA,sdf,NA,0,NA,NA,NA,NA,NA,NA,NA,NA,NA,NA,NA,NA,NA,NA,NA,NA,NA,NA,NA
b79bf,"""Falsch""-Screen",canvas.Screen,5_0_0_0_3_0_2,NA,NA,timeout,4995.9400000001,876558,876551.5,876567.46,881546.76,881549,2023-10-13T07:50:48Z,881563.4,NULL,Vorwurf,mashtaka,d,NA,NA,NA,NA,sdf,0,0,NA,NA,NA,NA,NA,NA,NA,NA,NA,NA,NA,NA,NA,NA,NA,NA,NA,NA,NA
