observation,sender,sender_type,sender_id,response,response_action,ended_on,duration,time_run,time_render,time_show,time_end,time_commit,timestamp,time_switch,distractors,german,swahili,enc,distractor1,distractor2,distractor3,response_2,x,correct,x_2,url_vp,url_sess,meta_labjs_version,meta_location,meta_user_agent,meta_platform,meta_language,meta_locale,meta_time_zone,meta_timezone_offset,meta_screen_width,meta_screen_height,meta_scroll_width,meta_scroll_height,meta_window_inner_width,meta_window_inner_height,meta_device_pixel_ratio,meta_labjs_build_flavor,meta_labjs_build_commit
eb57c,Introduction general,canvas.Screen,0,weiter,keypress(q),response,1768270.858,2380.8000000119,1176.922,2409.242,1770680.1,1770689.2,2023-05-14T11:07:14Z,1770686.894,NULL,NA,NA,NA,NA,NA,NA,NA,NA,NA,NA,210,3,20.2.4,https://neurocog.fernuni.ch/studies/vweber/sfink/encoding_immediate/index.html?vp=210&sess=3,"Mozilla/5.0 (Windows NT 10.0; Win64; x64) AppleWebKit/537.36 (KHTML, like Gecko) Chrome/113.0.0.0 Safari/537.36",Win32,de-CH,de,Europe/Zurich,-120,1536,864,1536,706,1536,754,1.25,production,f5b4a49f956347addd546a832a3327688c2c0fef
eb57c,Introduction practice,canvas.Screen,1_0,NA,keypress(Space),response,2665.1059999999,1770689.7,1770668.265,1770686.894,1773352,1773353.3,2023-05-14T11:07:16Z,1773367.977,NULL,NA,NA,NA,NA,NA,NA,NA,NA,NA,NA,NA,NA,NA,NA,NA,NA,NA,NA,NA,NA,NA,NA,NA,NA,NA,NA,NA,NA,NA
eb57c,Deep Question,html.Page,1_1_0_0_0,NA,NA,form submission,8328.7229999881,1773353.9,1773351.153,1773367.977,1781696.7,1781696.9,2023-05-14T11:07:25Z,1781711.083,"c(""distractor1"", ""distractor2"", ""distractor3"")",Schatten,kivuli,d,NA,NA,NA,ssu,NA,NA,NA,NA,NA,NA,NA,NA,NA,NA,NA,NA,NA,NA,NA,NA,NA,NA,NA,NA,NA,NA
eb57c,"""Richtig""-Screen",canvas.Screen,1_1_0_0_1,NA,NA,skipped,NA,1781699.1,NA,NA,1781696.7,1781699.2,2023-05-14T11:07:25Z,1781711.083,"c(""distractor1"", ""distractor2"", ""distractor3"")",Schatten,kivuli,d,NA,NA,NA,NA,NA,NA,NA,NA,NA,NA,NA,NA,NA,NA,NA,NA,NA,NA,NA,NA,NA,NA,NA,NA,NA,NA
eb57c,"""Falsch""-Screen",canvas.Screen,1_1_0_0_2,NA,NA,timeout,4995.943,1781700.6,1781694.545,1781711.083,1786690.649,1786696.2,2023-05-14T11:07:30Z,1786707.026,"c(""distractor1"", ""distractor2"", ""distractor3"")",Schatten,kivuli,d,NA,NA,NA,NA,NA,0,NA,NA,NA,NA,NA,NA,NA,NA,NA,NA,NA,NA,NA,NA,NA,NA,NA,NA,NA,NA
eb57c,deep,flow.Sequence,1_1_0_0,NA,NA,completion,13322.672,1773353.9,1773351.153,1773367.977,1786690.649,1786696.8,2023-05-14T11:07:30Z,1786707.026,"c(""distractor1"", ""distractor2"", ""distractor3"")",Schatten,kivuli,d,NA,NA,NA,NA,NA,NA,NA,NA,NA,NA,NA,NA,NA,NA,NA,NA,NA,NA,NA,NA,NA,NA,NA,NA,NA,NA
eb57c,shallow,flow.Sequence,1_1_0_1,NA,NA,skipped,NA,1786697,NA,NA,1786690.649,1786697.2,2023-05-14T11:07:30Z,1786707.026,"c(""distractor1"", ""distractor2"", ""distractor3"")",Schatten,kivuli,d,NA,NA,NA,NA,NA,NA,NA,NA,NA,NA,NA,NA,NA,NA,NA,NA,NA,NA,NA,NA,NA,NA,NA,NA,NA,NA
eb57c,task,flow.Sequence,1_1_0,NA,NA,completion,13322.672,1773353.8,1773351.153,1773367.977,1786690.649,1786697.5,2023-05-14T11:07:30Z,1786707.026,"c(""distractor1"", ""distractor2"", ""distractor3"")",Schatten,kivuli,d,NA,NA,NA,NA,NA,NA,NA,NA,NA,NA,NA,NA,NA,NA,NA,NA,NA,NA,NA,NA,NA,NA,NA,NA,NA,NA
eb57c,deep,flow.Sequence,1_1_1_0,NA,NA,skipped,NA,1786697.8,NA,NA,1786690.649,1786698,2023-05-14T11:07:30Z,1786707.026,"c(""distractor1"", ""distractor2"", ""distractor3"")",Gegenwart,hadhara,s,katiba,jokofu,mikopo,NA,NA,NA,NA,NA,NA,NA,NA,NA,NA,NA,NA,NA,NA,NA,NA,NA,NA,NA,NA,NA,NA,NA
eb57c,Shallow Question,html.Page,1_1_1_1_0,NA,NA,form submission,6950.073999994,1786698.3,1786690.649,1786707.026,1793657.1,1793657.3,2023-05-14T11:07:37Z,1793668.104,"c(""distractor1"", ""distractor2"", ""distractor3"")",Gegenwart,hadhara,s,katiba,jokofu,mikopo,hadhara,NA,NA,NA,NA,NA,NA,NA,NA,NA,NA,NA,NA,NA,NA,NA,NA,NA,NA,NA,NA,NA,NA
eb57c,"""Richtig""-Screen",canvas.Screen,1_1_1_1_1,NA,NA,timeout,4995.905,1793659.3,1793651.216,1793668.104,1798647.609,1798648.8,2023-05-14T11:07:42Z,1798664.009,"c(""distractor1"", ""distractor2"", ""distractor3"")",Gegenwart,hadhara,s,katiba,jokofu,mikopo,NA,NA,1,NA,NA,NA,NA,NA,NA,NA,NA,NA,NA,NA,NA,NA,NA,NA,NA,NA,NA,NA,NA
eb57c,"""Falsch""-Screen",canvas.Screen,1_1_1_1_2,NA,NA,skipped,NA,1798651.8,NA,NA,1798647.609,1798652.1,2023-05-14T11:07:42Z,1798664.009,"c(""distractor1"", ""distractor2"", ""distractor3"")",Gegenwart,hadhara,s,katiba,jokofu,mikopo,NA,NA,NA,NA,NA,NA,NA,NA,NA,NA,NA,NA,NA,NA,NA,NA,NA,NA,NA,NA,NA,NA,NA
eb57c,shallow,flow.Sequence,1_1_1_1,NA,NA,completion,11940.583,1786698.2,1786690.649,1786707.026,1798647.609,1798652.3,2023-05-14T11:07:42Z,1798664.009,"c(""distractor1"", ""distractor2"", ""distractor3"")",Gegenwart,hadhara,s,katiba,jokofu,mikopo,NA,NA,NA,NA,NA,NA,NA,NA,NA,NA,NA,NA,NA,NA,NA,NA,NA,NA,NA,NA,NA,NA,NA
eb57c,task,flow.Sequence,1_1_1,NA,NA,completion,11940.583,1786697.7,1786690.649,1786707.026,1798647.609,1798652.5,2023-05-14T11:07:42Z,1798664.009,"c(""distractor1"", ""distractor2"", ""distractor3"")",Gegenwart,hadhara,s,katiba,jokofu,mikopo,NA,NA,NA,NA,NA,NA,NA,NA,NA,NA,NA,NA,NA,NA,NA,NA,NA,NA,NA,NA,NA,NA,NA
eb57c,Deep Question,html.Page,1_1_2_0_0,NA,NA,form submission,8106.590999994,1798652.7,1798647.609,1798664.009,1806770.6,1806770.9,2023-05-14T11:07:50Z,1806773.759,"c(""distractor1"", ""distractor2"", ""distractor3"")",Gesundheit,salama,d,NA,NA,NA,lol,NA,NA,NA,NA,NA,NA,NA,NA,NA,NA,NA,NA,NA,NA,NA,NA,NA,NA,NA,NA,NA,NA
eb57c,"""Richtig""-Screen",canvas.Screen,1_1_2_0_1,NA,NA,skipped,NA,1806773.6,NA,NA,1806770.6,1806774,2023-05-14T11:07:50Z,1806773.759,"c(""distractor1"", ""distractor2"", ""distractor3"")",Gesundheit,salama,d,NA,NA,NA,NA,NA,NA,NA,NA,NA,NA,NA,NA,NA,NA,NA,NA,NA,NA,NA,NA,NA,NA,NA,NA,NA,NA
eb57c,"""Falsch""-Screen",canvas.Screen,1_1_2_0_2,NA,NA,timeout,4995.9239999999,1806775.2,1806757.373,1806773.759,1811753.304,1811755.6,2023-05-14T11:07:55Z,1811769.683,"c(""distractor1"", ""distractor2"", ""distractor3"")",Gesundheit,salama,d,NA,NA,NA,NA,NA,0,NA,NA,NA,NA,NA,NA,NA,NA,NA,NA,NA,NA,NA,NA,NA,NA,NA,NA,NA,NA
eb57c,deep,flow.Sequence,1_1_2_0,NA,NA,completion,13089.295,1798652.6,1798647.609,1798664.009,1811753.304,1811756.1,2023-05-14T11:07:55Z,1811769.683,"c(""distractor1"", ""distractor2"", ""distractor3"")",Gesundheit,salama,d,NA,NA,NA,NA,NA,NA,NA,NA,NA,NA,NA,NA,NA,NA,NA,NA,NA,NA,NA,NA,NA,NA,NA,NA,NA,NA
eb57c,shallow,flow.Sequence,1_1_2_1,NA,NA,skipped,NA,1811756.3,NA,NA,1811753.304,1811756.6,2023-05-14T11:07:55Z,1811769.683,"c(""distractor1"", ""distractor2"", ""distractor3"")",Gesundheit,salama,d,NA,NA,NA,NA,NA,NA,NA,NA,NA,NA,NA,NA,NA,NA,NA,NA,NA,NA,NA,NA,NA,NA,NA,NA,NA,NA
eb57c,task,flow.Sequence,1_1_2,NA,NA,completion,13089.295,1798652.6,1798647.609,1798664.009,1811753.304,1811756.9,2023-05-14T11:07:55Z,1811769.683,"c(""distractor1"", ""distractor2"", ""distractor3"")",Gesundheit,salama,d,NA,NA,NA,NA,NA,NA,NA,NA,NA,NA,NA,NA,NA,NA,NA,NA,NA,NA,NA,NA,NA,NA,NA,NA,NA,NA
eb57c,deep,flow.Sequence,1_1_3_0,NA,NA,skipped,NA,1811757,NA,NA,1811753.304,1811757.2,2023-05-14T11:07:55Z,1811769.683,"c(""distractor1"", ""distractor2"", ""distractor3"")",Kritik,lawama,s,dereva,nafasi,mawazo,NA,NA,NA,NA,NA,NA,NA,NA,NA,NA,NA,NA,NA,NA,NA,NA,NA,NA,NA,NA,NA,NA,NA
eb57c,Shallow Question,html.Page,1_1_3_1_0,NA,NA,form submission,2803.0169999881,1811757.5,1811753.304,1811769.683,1814572.7,1814572.8,2023-05-14T11:07:58Z,1814583.987,"c(""distractor1"", ""distractor2"", ""distractor3"")",Kritik,lawama,s,dereva,nafasi,mawazo,dereva,NA,NA,NA,NA,NA,NA,NA,NA,NA,NA,NA,NA,NA,NA,NA,NA,NA,NA,NA,NA,NA,NA
eb57c,"""Richtig""-Screen",canvas.Screen,1_1_3_1_1,NA,NA,skipped,NA,1814574.5,NA,NA,1814572.7,1814574.6,2023-05-14T11:07:58Z,1814583.987,"c(""distractor1"", ""distractor2"", ""distractor3"")",Kritik,lawama,s,dereva,nafasi,mawazo,NA,NA,NA,NA,NA,NA,NA,NA,NA,NA,NA,NA,NA,NA,NA,NA,NA,NA,NA,NA,NA,NA,NA
eb57c,"""Falsch""-Screen",canvas.Screen,1_1_3_1_2,NA,NA,timeout,4996.425,1814575.3,1814568.024,1814583.987,1819563.344,1819564.5,2023-05-14T11:08:03Z,1819580.412,"c(""distractor1"", ""distractor2"", ""distractor3"")",Kritik,lawama,s,dereva,nafasi,mawazo,NA,NA,0,NA,NA,NA,NA,NA,NA,NA,NA,NA,NA,NA,NA,NA,NA,NA,NA,NA,NA,NA,NA
eb57c,shallow,flow.Sequence,1_1_3_1,NA,NA,completion,7793.6610000001,1811757.5,1811753.304,1811769.683,1819563.344,1819565.1,2023-05-14T11:08:03Z,1819580.412,"c(""distractor1"", ""distractor2"", ""distractor3"")",Kritik,lawama,s,dereva,nafasi,mawazo,NA,NA,NA,NA,NA,NA,NA,NA,NA,NA,NA,NA,NA,NA,NA,NA,NA,NA,NA,NA,NA,NA,NA
eb57c,task,flow.Sequence,1_1_3,NA,NA,completion,7793.6610000001,1811757,1811753.304,1811769.683,1819563.344,1819565.3,2023-05-14T11:08:03Z,1819580.412,"c(""distractor1"", ""distractor2"", ""distractor3"")",Kritik,lawama,s,dereva,nafasi,mawazo,NA,NA,NA,NA,NA,NA,NA,NA,NA,NA,NA,NA,NA,NA,NA,NA,NA,NA,NA,NA,NA,NA,NA
eb57c,Deep Question,html.Page,1_1_4_0_0,NA,NA,form submission,4486.8880000119,1819565.6,1819563.344,1819580.412,1824067.3,1824067.4,2023-05-14T11:08:07Z,1824076.306,"c(""distractor1"", ""distractor2"", ""distractor3"")",Qualität,mtindo,d,NA,NA,NA,koko,NA,NA,NA,NA,NA,NA,NA,NA,NA,NA,NA,NA,NA,NA,NA,NA,NA,NA,NA,NA,NA,NA
eb57c,"""Richtig""-Screen",canvas.Screen,1_1_4_0_1,NA,NA,skipped,NA,1824069.6,NA,NA,1824067.3,1824069.8,2023-05-14T11:08:07Z,1824076.306,"c(""distractor1"", ""distractor2"", ""distractor3"")",Qualität,mtindo,d,NA,NA,NA,NA,NA,NA,NA,NA,NA,NA,NA,NA,NA,NA,NA,NA,NA,NA,NA,NA,NA,NA,NA,NA,NA,NA
eb57c,"""Falsch""-Screen",canvas.Screen,1_1_4_0_2,NA,NA,timeout,4996.4449999998,1824070.4,1824059.814,1824076.306,1829055.944,1829057.1,2023-05-14T11:08:12Z,1829072.751,"c(""distractor1"", ""distractor2"", ""distractor3"")",Qualität,mtindo,d,NA,NA,NA,NA,NA,0,NA,NA,NA,NA,NA,NA,NA,NA,NA,NA,NA,NA,NA,NA,NA,NA,NA,NA,NA,NA
eb57c,deep,flow.Sequence,1_1_4_0,NA,NA,completion,9475.5319999999,1819565.6,1819563.344,1819580.412,1829055.944,1829057.6,2023-05-14T11:08:12Z,1829072.751,"c(""distractor1"", ""distractor2"", ""distractor3"")",Qualität,mtindo,d,NA,NA,NA,NA,NA,NA,NA,NA,NA,NA,NA,NA,NA,NA,NA,NA,NA,NA,NA,NA,NA,NA,NA,NA,NA,NA
eb57c,shallow,flow.Sequence,1_1_4_1,NA,NA,skipped,NA,1829057.8,NA,NA,1829055.944,1829057.9,2023-05-14T11:08:12Z,1829072.751,"c(""distractor1"", ""distractor2"", ""distractor3"")",Qualität,mtindo,d,NA,NA,NA,NA,NA,NA,NA,NA,NA,NA,NA,NA,NA,NA,NA,NA,NA,NA,NA,NA,NA,NA,NA,NA,NA,NA
eb57c,task,flow.Sequence,1_1_4,NA,NA,completion,9475.5319999999,1819565.5,1819563.344,1819580.412,1829055.944,1829058.1,2023-05-14T11:08:12Z,1829072.751,"c(""distractor1"", ""distractor2"", ""distractor3"")",Qualität,mtindo,d,NA,NA,NA,NA,NA,NA,NA,NA,NA,NA,NA,NA,NA,NA,NA,NA,NA,NA,NA,NA,NA,NA,NA,NA,NA,NA
eb57c,deep,flow.Sequence,1_1_5_0,NA,NA,skipped,NA,1829058.4,NA,NA,1829055.944,1829058.5,2023-05-14T11:08:12Z,1829072.751,"c(""distractor1"", ""distractor2"", ""distractor3"")",Rückhalt,msaada,s,muhula,auwali,kiwimbe,NA,NA,NA,NA,NA,NA,NA,NA,NA,NA,NA,NA,NA,NA,NA,NA,NA,NA,NA,NA,NA,NA,NA
eb57c,Shallow Question,html.Page,1_1_5_1_0,NA,NA,form submission,6695.9489999881,1829058.7,1829055.944,1829072.751,1835768.7,1835768.8,2023-05-14T11:08:19Z,1835783.404,"c(""distractor1"", ""distractor2"", ""distractor3"")",Rückhalt,msaada,s,muhula,auwali,kiwimbe,auwali,NA,NA,NA,NA,NA,NA,NA,NA,NA,NA,NA,NA,NA,NA,NA,NA,NA,NA,NA,NA,NA,NA
eb57c,"""Richtig""-Screen",canvas.Screen,1_1_5_1_1,NA,NA,skipped,NA,1835770.6,NA,NA,1835768.7,1835770.8,2023-05-14T11:08:19Z,1835783.404,"c(""distractor1"", ""distractor2"", ""distractor3"")",Rückhalt,msaada,s,muhula,auwali,kiwimbe,NA,NA,NA,NA,NA,NA,NA,NA,NA,NA,NA,NA,NA,NA,NA,NA,NA,NA,NA,NA,NA,NA,NA
eb57c,"""Falsch""-Screen",canvas.Screen,1_1_5_1_2,NA,NA,timeout,4996.4149999998,1835771.3,1835767.177,1835783.404,1840763.296,1840763.9,2023-05-14T11:08:24Z,1840779.819,"c(""distractor1"", ""distractor2"", ""distractor3"")",Rückhalt,msaada,s,muhula,auwali,kiwimbe,NA,NA,0,NA,NA,NA,NA,NA,NA,NA,NA,NA,NA,NA,NA,NA,NA,NA,NA,NA,NA,NA,NA
eb57c,shallow,flow.Sequence,1_1_5_1,NA,NA,completion,11690.545,1829058.6,1829055.944,1829072.751,1840763.296,1840764,2023-05-14T11:08:24Z,1840779.819,"c(""distractor1"", ""distractor2"", ""distractor3"")",Rückhalt,msaada,s,muhula,auwali,kiwimbe,NA,NA,NA,NA,NA,NA,NA,NA,NA,NA,NA,NA,NA,NA,NA,NA,NA,NA,NA,NA,NA,NA,NA
eb57c,task,flow.Sequence,1_1_5,NA,NA,completion,11690.545,1829058.3,1829055.944,1829072.751,1840763.296,1840764.2,2023-05-14T11:08:24Z,1840779.819,"c(""distractor1"", ""distractor2"", ""distractor3"")",Rückhalt,msaada,s,muhula,auwali,kiwimbe,NA,NA,NA,NA,NA,NA,NA,NA,NA,NA,NA,NA,NA,NA,NA,NA,NA,NA,NA,NA,NA,NA,NA
eb57c,block,flow.Loop,1_1,NA,NA,completion,67395.319,1773353.7,1773351.153,1773367.977,1840763.296,1840764.4,2023-05-14T11:08:24Z,1840779.819,"c(""distractor1"", ""distractor2"", ""distractor3"")",NA,NA,NA,NA,NA,NA,NA,NA,NA,NA,NA,NA,NA,NA,NA,NA,NA,NA,NA,NA,NA,NA,NA,NA,NA,NA,NA,NA,NA
eb57c,Practice,flow.Sequence,1,NA,NA,completion,70076.402,1770689.7,1770668.265,1770686.894,1840763.296,1840764.6,2023-05-14T11:08:24Z,1840779.819,NULL,NA,NA,NA,NA,NA,NA,NA,NA,NA,NA,NA,NA,NA,NA,NA,NA,NA,NA,NA,NA,NA,NA,NA,NA,NA,NA,NA,NA,NA
eb57c,Experiment start,canvas.Screen,2,weiter,keypress(q),response,11305.880999988,1840764.6,1840763.296,1840779.819,1852085.7,1852086.9,2023-05-14T11:08:35Z,1852186.579,NULL,NA,NA,NA,NA,NA,NA,NA,NA,NA,NA,NA,NA,NA,NA,NA,NA,NA,NA,NA,NA,NA,NA,NA,NA,NA,NA,NA,NA,NA
eb57c,Deep Question,html.Page,3_0_0_0_0_0_0,NA,NA,form submission,3848.1209999882,1852180.5,1852169.778,1852186.579,1856034.7,1856034.9,2023-05-14T11:08:39Z,1856050.628,NULL,Gefährdung,kuhatarisha,d,NA,NA,NA,kko,NA,NA,0,NA,NA,NA,NA,NA,NA,NA,NA,NA,NA,NA,NA,NA,NA,NA,NA,NA,NA,NA
eb57c,"""Richtig""-Screen",canvas.Screen,3_0_0_0_0_0_1,NA,NA,skipped,NA,1856035.6,NA,NA,1856034.7,1856035.8,2023-05-14T11:08:39Z,1856050.628,NULL,Gefährdung,kuhatarisha,d,NA,NA,NA,NA,sdf,NA,0,NA,NA,NA,NA,NA,NA,NA,NA,NA,NA,NA,NA,NA,NA,NA,NA,NA,NA,NA
eb57c,"""Falsch""-Screen",canvas.Screen,3_0_0_0_0_0_2,NA,NA,timeout,4995.5630000001,1856036.3,1856033.958,1856050.628,1861029.238,1861031.2,2023-05-14T11:08:44Z,1861046.191,NULL,Gefährdung,kuhatarisha,d,NA,NA,NA,NA,sdf,0,0,NA,NA,NA,NA,NA,NA,NA,NA,NA,NA,NA,NA,NA,NA,NA,NA,NA,NA,NA
eb57c,deep,flow.Sequence,3_0_0_0_0_0,NA,NA,completion,8842.659,1852180.5,1852169.778,1852186.579,1861029.238,1861031.6,2023-05-14T11:08:44Z,1861046.191,NULL,Gefährdung,kuhatarisha,d,NA,NA,NA,NA,sdf,NA,0,NA,NA,NA,NA,NA,NA,NA,NA,NA,NA,NA,NA,NA,NA,NA,NA,NA,NA,NA
eb57c,shallow,flow.Sequence,3_0_0_0_0_1,NA,NA,skipped,NA,1861031.7,NA,NA,1861029.238,1861031.8,2023-05-14T11:08:44Z,1861046.191,NULL,Gefährdung,kuhatarisha,d,NA,NA,NA,NA,sdf,NA,0,NA,NA,NA,NA,NA,NA,NA,NA,NA,NA,NA,NA,NA,NA,NA,NA,NA,NA,NA
eb57c,task,flow.Sequence,3_0_0_0_0,NA,NA,completion,8842.659,1852180.5,1852169.778,1852186.579,1861029.238,1861032.1,2023-05-14T11:08:44Z,1861046.191,NULL,Gefährdung,kuhatarisha,d,NA,NA,NA,NA,sdf,NA,0,NA,NA,NA,NA,NA,NA,NA,NA,NA,NA,NA,NA,NA,NA,NA,NA,NA,NA,NA
eb57c,Deep Question,html.Page,3_0_0_0_1_0_0,NA,NA,form submission,4165.6090000118,1861032.3,1861029.238,1861046.191,1865211.8,1865212,2023-05-14T11:08:48Z,1865242.944,NULL,Stimmung,kinyongo,d,NA,NA,NA,sio,NA,NA,0,NA,NA,NA,NA,NA,NA,NA,NA,NA,NA,NA,NA,NA,NA,NA,NA,NA,NA,NA
eb57c,"""Richtig""-Screen",canvas.Screen,3_0_0_0_1_0_1,NA,NA,skipped,NA,1865214.6,NA,NA,1865211.8,1865214.7,2023-05-14T11:08:48Z,1865242.944,NULL,Stimmung,kinyongo,d,NA,NA,NA,NA,sdf,NA,0,NA,NA,NA,NA,NA,NA,NA,NA,NA,NA,NA,NA,NA,NA,NA,NA,NA,NA,NA
eb57c,"""Falsch""-Screen",canvas.Screen,3_0_0_0_1_0_2,NA,NA,timeout,4995.669,1865215.4,1865225.754,1865242.944,1870222.142,1870223.2,2023-05-14T11:08:53Z,1870238.613,NULL,Stimmung,kinyongo,d,NA,NA,NA,NA,sdf,0,0,NA,NA,NA,NA,NA,NA,NA,NA,NA,NA,NA,NA,NA,NA,NA,NA,NA,NA,NA
eb57c,deep,flow.Sequence,3_0_0_0_1_0,NA,NA,completion,9175.9509999999,1861032.2,1861029.238,1861046.191,1870222.142,1870223.5,2023-05-14T11:08:53Z,1870238.613,NULL,Stimmung,kinyongo,d,NA,NA,NA,NA,sdf,NA,0,NA,NA,NA,NA,NA,NA,NA,NA,NA,NA,NA,NA,NA,NA,NA,NA,NA,NA,NA
eb57c,shallow,flow.Sequence,3_0_0_0_1_1,NA,NA,skipped,NA,1870223.7,NA,NA,1870222.142,1870223.9,2023-05-14T11:08:53Z,1870238.613,NULL,Stimmung,kinyongo,d,NA,NA,NA,NA,sdf,NA,0,NA,NA,NA,NA,NA,NA,NA,NA,NA,NA,NA,NA,NA,NA,NA,NA,NA,NA,NA
eb57c,task,flow.Sequence,3_0_0_0_1,NA,NA,completion,9175.9509999999,1861032.2,1861029.238,1861046.191,1870222.142,1870224.1,2023-05-14T11:08:53Z,1870238.613,NULL,Stimmung,kinyongo,d,NA,NA,NA,NA,sdf,NA,0,NA,NA,NA,NA,NA,NA,NA,NA,NA,NA,NA,NA,NA,NA,NA,NA,NA,NA,NA
eb57c,Deep Question,html.Page,3_0_0_0_2_0_0,NA,NA,form submission,8688.9869999941,1870224.2,1870222.142,1870238.613,1878927.6,1878927.8,2023-05-14T11:09:02Z,1878948.105,NULL,Betrüger,mdanganyifu,d,NA,NA,NA,kinyongo,NA,NA,0,NA,NA,NA,NA,NA,NA,NA,NA,NA,NA,NA,NA,NA,NA,NA,NA,NA,NA,NA
eb57c,"""Richtig""-Screen",canvas.Screen,3_0_0_0_2_0_1,NA,NA,skipped,NA,1878930,NA,NA,1878927.6,1878930.1,2023-05-14T11:09:02Z,1878948.105,NULL,Betrüger,mdanganyifu,d,NA,NA,NA,NA,sdf,NA,0,NA,NA,NA,NA,NA,NA,NA,NA,NA,NA,NA,NA,NA,NA,NA,NA,NA,NA,NA
eb57c,"""Falsch""-Screen",canvas.Screen,3_0_0_0_2_0_2,NA,NA,timeout,4995.6240000001,1878930.9,1878931.034,1878948.105,1883927.062,1883929.4,2023-05-14T11:09:07Z,1883943.729,NULL,Betrüger,mdanganyifu,d,NA,NA,NA,NA,sdf,0,0,NA,NA,NA,NA,NA,NA,NA,NA,NA,NA,NA,NA,NA,NA,NA,NA,NA,NA,NA
eb57c,deep,flow.Sequence,3_0_0_0_2_0,NA,NA,completion,13688.449,1870224.2,1870222.142,1870238.613,1883927.062,1883929.7,2023-05-14T11:09:07Z,1883943.729,NULL,Betrüger,mdanganyifu,d,NA,NA,NA,NA,sdf,NA,0,NA,NA,NA,NA,NA,NA,NA,NA,NA,NA,NA,NA,NA,NA,NA,NA,NA,NA,NA
eb57c,shallow,flow.Sequence,3_0_0_0_2_1,NA,NA,skipped,NA,1883929.9,NA,NA,1883927.062,1883930.1,2023-05-14T11:09:07Z,1883943.729,NULL,Betrüger,mdanganyifu,d,NA,NA,NA,NA,sdf,NA,0,NA,NA,NA,NA,NA,NA,NA,NA,NA,NA,NA,NA,NA,NA,NA,NA,NA,NA,NA
eb57c,task,flow.Sequence,3_0_0_0_2,NA,NA,completion,13688.449,1870224.2,1870222.142,1870238.613,1883927.062,1883930.3,2023-05-14T11:09:07Z,1883943.729,NULL,Betrüger,mdanganyifu,d,NA,NA,NA,NA,sdf,NA,0,NA,NA,NA,NA,NA,NA,NA,NA,NA,NA,NA,NA,NA,NA,NA,NA,NA,NA,NA
eb57c,deep,flow.Sequence,3_0_0_0_3_0,NA,NA,skipped,NA,1883930.4,NA,NA,1883927.062,1883930.5,2023-05-14T11:09:07Z,1883943.729,NULL,Kreativität,ubunifu,s,mratibu,mwendelezo,makubaliano,NA,sdf,NA,0,NA,NA,NA,NA,NA,NA,NA,NA,NA,NA,NA,NA,NA,NA,NA,NA,NA,NA,NA
eb57c,Shallow Question,html.Page,3_0_0_0_3_1_0,NA,NA,form submission,3865.2709999999,1883930.6,1883927.062,1883943.729,1887809,1887809.1,2023-05-14T11:09:11Z,1887824.544,NULL,Kreativität,ubunifu,s,mratibu,mwendelezo,makubaliano,mwendelezo,NA,NA,0,NA,NA,NA,NA,NA,NA,NA,NA,NA,NA,NA,NA,NA,NA,NA,NA,NA,NA,NA
eb57c,"""Richtig""-Screen",canvas.Screen,3_0_0_0_3_1_1,NA,NA,skipped,NA,1887811.2,NA,NA,1887809,1887811.3,2023-05-14T11:09:11Z,1887824.544,NULL,Kreativität,ubunifu,s,mratibu,mwendelezo,makubaliano,NA,sdf,NA,0,NA,NA,NA,NA,NA,NA,NA,NA,NA,NA,NA,NA,NA,NA,NA,NA,NA,NA,NA
eb57c,"""Falsch""-Screen",canvas.Screen,3_0_0_0_3_1_2,NA,NA,timeout,4995.21,1887811.9,1887807.164,1887824.544,1892803.532,1892804.6,2023-05-14T11:09:16Z,1892819.754,NULL,Kreativität,ubunifu,s,mratibu,mwendelezo,makubaliano,NA,sdf,0,0,NA,NA,NA,NA,NA,NA,NA,NA,NA,NA,NA,NA,NA,NA,NA,NA,NA,NA,NA
eb57c,shallow,flow.Sequence,3_0_0_0_3_1,NA,NA,completion,8859.8029999998,1883930.6,1883927.062,1883943.729,1892803.532,1892805.1,2023-05-14T11:09:16Z,1892819.754,NULL,Kreativität,ubunifu,s,mratibu,mwendelezo,makubaliano,NA,sdf,NA,0,NA,NA,NA,NA,NA,NA,NA,NA,NA,NA,NA,NA,NA,NA,NA,NA,NA,NA,NA
eb57c,task,flow.Sequence,3_0_0_0_3,NA,NA,completion,8859.8029999998,1883930.4,1883927.062,1883943.729,1892803.532,1892805.3,2023-05-14T11:09:16Z,1892819.754,NULL,Kreativität,ubunifu,s,mratibu,mwendelezo,makubaliano,NA,sdf,NA,0,NA,NA,NA,NA,NA,NA,NA,NA,NA,NA,NA,NA,NA,NA,NA,NA,NA,NA,NA
eb57c,Deep Question,html.Page,3_0_0_0_4_0_0,NA,NA,form submission,8441.4459999881,1892805.5,1892803.532,1892819.754,1901261.2,1901261.4,2023-05-14T11:09:24Z,1901262.663,NULL,Kontrolle,kudhibiti,d,NA,NA,NA,mwandanifu,NA,NA,0,NA,NA,NA,NA,NA,NA,NA,NA,NA,NA,NA,NA,NA,NA,NA,NA,NA,NA,NA
eb57c,"""Richtig""-Screen",canvas.Screen,3_0_0_0_4_0_1,NA,NA,skipped,NA,1901263.8,NA,NA,1901261.2,1901263.9,2023-05-14T11:09:24Z,1901262.663,NULL,Kontrolle,kudhibiti,d,NA,NA,NA,NA,sdf,NA,0,NA,NA,NA,NA,NA,NA,NA,NA,NA,NA,NA,NA,NA,NA,NA,NA,NA,NA,NA
eb57c,"""Falsch""-Screen",canvas.Screen,3_0_0_0_4_0_2,NA,NA,timeout,4996.2709999999,1901264.6,1901246.483,1901262.663,1906242.339,1906243.4,2023-05-14T11:09:29Z,1906258.934,NULL,Kontrolle,kudhibiti,d,NA,NA,NA,NA,sdf,0,0,NA,NA,NA,NA,NA,NA,NA,NA,NA,NA,NA,NA,NA,NA,NA,NA,NA,NA,NA
eb57c,deep,flow.Sequence,3_0_0_0_4_0,NA,NA,completion,13422.585,1892805.5,1892803.532,1892819.754,1906242.339,1906243.9,2023-05-14T11:09:29Z,1906258.934,NULL,Kontrolle,kudhibiti,d,NA,NA,NA,NA,sdf,NA,0,NA,NA,NA,NA,NA,NA,NA,NA,NA,NA,NA,NA,NA,NA,NA,NA,NA,NA,NA
eb57c,shallow,flow.Sequence,3_0_0_0_4_1,NA,NA,skipped,NA,1906243.9,NA,NA,1906242.339,1906244.1,2023-05-14T11:09:29Z,1906258.934,NULL,Kontrolle,kudhibiti,d,NA,NA,NA,NA,sdf,NA,0,NA,NA,NA,NA,NA,NA,NA,NA,NA,NA,NA,NA,NA,NA,NA,NA,NA,NA,NA
eb57c,task,flow.Sequence,3_0_0_0_4,NA,NA,completion,13422.585,1892805.4,1892803.532,1892819.754,1906242.339,1906244.4,2023-05-14T11:09:29Z,1906258.934,NULL,Kontrolle,kudhibiti,d,NA,NA,NA,NA,sdf,NA,0,NA,NA,NA,NA,NA,NA,NA,NA,NA,NA,NA,NA,NA,NA,NA,NA,NA,NA,NA
eb57c,deep,flow.Sequence,3_0_0_0_5_0,NA,NA,skipped,NA,1906244.5,NA,NA,1906242.339,1906244.7,2023-05-14T11:09:29Z,1906258.934,NULL,Respekt,heshima,s,changamnao,upinzani,ufanisi,NA,sdf,NA,0,NA,NA,NA,NA,NA,NA,NA,NA,NA,NA,NA,NA,NA,NA,NA,NA,NA,NA,NA
eb57c,Shallow Question,html.Page,3_0_0_0_5_1_0,NA,NA,form submission,3737.5660000001,1906244.9,1906242.339,1906258.934,1909996.5,1909996.7,2023-05-14T11:09:33Z,1910005.524,NULL,Respekt,heshima,s,changamnao,upinzani,ufanisi,ufanisi,NA,NA,0,NA,NA,NA,NA,NA,NA,NA,NA,NA,NA,NA,NA,NA,NA,NA,NA,NA,NA,NA
eb57c,"""Richtig""-Screen",canvas.Screen,3_0_0_0_5_1_1,NA,NA,skipped,NA,1909998.5,NA,NA,1909996.5,1909998.5,2023-05-14T11:09:33Z,1910005.524,NULL,Respekt,heshima,s,changamnao,upinzani,ufanisi,NA,sdf,NA,0,NA,NA,NA,NA,NA,NA,NA,NA,NA,NA,NA,NA,NA,NA,NA,NA,NA,NA,NA
eb57c,"""Falsch""-Screen",canvas.Screen,3_0_0_0_5_1_2,NA,NA,timeout,4996.1680000001,1909999.2,1909988.988,1910005.524,1914985.297,1914985.8,2023-05-14T11:09:38Z,1915001.692,NULL,Respekt,heshima,s,changamnao,upinzani,ufanisi,NA,sdf,0,0,NA,NA,NA,NA,NA,NA,NA,NA,NA,NA,NA,NA,NA,NA,NA,NA,NA,NA,NA
eb57c,shallow,flow.Sequence,3_0_0_0_5_1,NA,NA,completion,8726.3630000001,1906244.8,1906242.339,1906258.934,1914985.297,1914986,2023-05-14T11:09:38Z,1915001.692,NULL,Respekt,heshima,s,changamnao,upinzani,ufanisi,NA,sdf,NA,0,NA,NA,NA,NA,NA,NA,NA,NA,NA,NA,NA,NA,NA,NA,NA,NA,NA,NA,NA
eb57c,task,flow.Sequence,3_0_0_0_5,NA,NA,completion,8726.3630000001,1906244.5,1906242.339,1906258.934,1914985.297,1914986.1,2023-05-14T11:09:38Z,1915001.692,NULL,Respekt,heshima,s,changamnao,upinzani,ufanisi,NA,sdf,NA,0,NA,NA,NA,NA,NA,NA,NA,NA,NA,NA,NA,NA,NA,NA,NA,NA,NA,NA,NA
eb57c,deep,flow.Sequence,3_0_0_0_6_0,NA,NA,skipped,NA,1914986.2,NA,NA,1914985.297,1914986.3,2023-05-14T11:09:38Z,1915001.692,NULL,Orientierung,urekebisho,s,uelekeo,marekebisho,utunzaji,NA,sdf,NA,0,NA,NA,NA,NA,NA,NA,NA,NA,NA,NA,NA,NA,NA,NA,NA,NA,NA,NA,NA
eb57c,Shallow Question,html.Page,3_0_0_0_6_1_0,NA,NA,form submission,4226.1080000119,1914986.3,1914985.297,1915001.692,1919227.8,1919228,2023-05-14T11:09:42Z,1919231.183,NULL,Orientierung,urekebisho,s,uelekeo,marekebisho,utunzaji,uelekeo,NA,NA,0,NA,NA,NA,NA,NA,NA,NA,NA,NA,NA,NA,NA,NA,NA,NA,NA,NA,NA,NA
eb57c,"""Richtig""-Screen",canvas.Screen,3_0_0_0_6_1_1,NA,NA,skipped,NA,1919230,NA,NA,1919227.8,1919230.2,2023-05-14T11:09:42Z,1919231.183,NULL,Orientierung,urekebisho,s,uelekeo,marekebisho,utunzaji,NA,sdf,NA,0,NA,NA,NA,NA,NA,NA,NA,NA,NA,NA,NA,NA,NA,NA,NA,NA,NA,NA,NA
eb57c,"""Falsch""-Screen",canvas.Screen,3_0_0_0_6_1_2,NA,NA,timeout,4996.1300000001,1919230.8,1919215.202,1919231.183,1924210.717,1924211.8,2023-05-14T11:09:47Z,1924227.313,NULL,Orientierung,urekebisho,s,uelekeo,marekebisho,utunzaji,NA,sdf,0,0,NA,NA,NA,NA,NA,NA,NA,NA,NA,NA,NA,NA,NA,NA,NA,NA,NA,NA,NA
eb57c,shallow,flow.Sequence,3_0_0_0_6_1,NA,NA,completion,9209.0249999999,1914986.3,1914985.297,1915001.692,1924210.717,1924212.2,2023-05-14T11:09:47Z,1924227.313,NULL,Orientierung,urekebisho,s,uelekeo,marekebisho,utunzaji,NA,sdf,NA,0,NA,NA,NA,NA,NA,NA,NA,NA,NA,NA,NA,NA,NA,NA,NA,NA,NA,NA,NA
eb57c,task,flow.Sequence,3_0_0_0_6,NA,NA,completion,9209.0249999999,1914986.1,1914985.297,1915001.692,1924210.717,1924212.4,2023-05-14T11:09:47Z,1924227.313,NULL,Orientierung,urekebisho,s,uelekeo,marekebisho,utunzaji,NA,sdf,NA,0,NA,NA,NA,NA,NA,NA,NA,NA,NA,NA,NA,NA,NA,NA,NA,NA,NA,NA,NA
eb57c,deep,flow.Sequence,3_0_0_0_7_0,NA,NA,skipped,NA,1924212.7,NA,NA,1924210.717,1924212.8,2023-05-14T11:09:47Z,1924227.313,NULL,Können,unaweza,s,kiongozi,bustani,mienendo,NA,sdf,NA,0,NA,NA,NA,NA,NA,NA,NA,NA,NA,NA,NA,NA,NA,NA,NA,NA,NA,NA,NA
eb57c,Shallow Question,html.Page,3_0_0_0_7_1_0,NA,NA,form submission,2629.286999994,1924213.1,1924210.717,1924227.313,1926856.6,1926856.7,2023-05-14T11:09:50Z,1926858.268,NULL,Können,unaweza,s,kiongozi,bustani,mienendo,unaweza,NA,NA,0,NA,NA,NA,NA,NA,NA,NA,NA,NA,NA,NA,NA,NA,NA,NA,NA,NA,NA,NA
eb57c,"""Richtig""-Screen",canvas.Screen,3_0_0_0_7_1_1,NA,NA,timeout,4995.922,1926858.1,1926841.962,1926858.268,1931837.671,1931839.1,2023-05-14T11:09:55Z,1931854.19,NULL,Können,unaweza,s,kiongozi,bustani,mienendo,NA,sdf,1,0,NA,NA,NA,NA,NA,NA,NA,NA,NA,NA,NA,NA,NA,NA,NA,NA,NA,NA,NA
eb57c,"""Falsch""-Screen",canvas.Screen,3_0_0_0_7_1_2,NA,NA,skipped,NA,1931844.9,NA,NA,1931837.671,1931845.3,2023-05-14T11:09:55Z,1931854.19,NULL,Können,unaweza,s,kiongozi,bustani,mienendo,NA,sdf,NA,0,NA,NA,NA,NA,NA,NA,NA,NA,NA,NA,NA,NA,NA,NA,NA,NA,NA,NA,NA
eb57c,shallow,flow.Sequence,3_0_0_0_7_1,NA,NA,completion,7610.358,1924213,1924210.717,1924227.313,1931837.671,1931845.7,2023-05-14T11:09:55Z,1931854.19,NULL,Können,unaweza,s,kiongozi,bustani,mienendo,NA,sdf,NA,0,NA,NA,NA,NA,NA,NA,NA,NA,NA,NA,NA,NA,NA,NA,NA,NA,NA,NA,NA
eb57c,task,flow.Sequence,3_0_0_0_7,NA,NA,completion,7610.358,1924212.6,1924210.717,1924227.313,1931837.671,1931845.9,2023-05-14T11:09:55Z,1931854.19,NULL,Können,unaweza,s,kiongozi,bustani,mienendo,NA,sdf,NA,0,NA,NA,NA,NA,NA,NA,NA,NA,NA,NA,NA,NA,NA,NA,NA,NA,NA,NA,NA
eb57c,block,flow.Loop,3_0_0_0,NA,NA,completion,79651.092,1852180.4,1852169.778,1852186.579,1931837.671,1931846.3,2023-05-14T11:09:55Z,1931854.19,NULL,NA,NA,NA,NA,NA,NA,NA,sdf,NA,0,NA,NA,NA,NA,NA,NA,NA,NA,NA,NA,NA,NA,NA,NA,NA,NA,NA,NA,NA
eb57c,weiter,canvas.Screen,3_0_0_1,sdf,keypress(Space),response,976.81000000006,1931846.5,1931837.671,1931854.19,1932831,1932831.5,2023-05-14T11:09:56Z,1932869.942,NULL,NA,NA,NA,NA,NA,NA,NA,sdf,NA,0,NA,NA,NA,NA,NA,NA,NA,NA,NA,NA,NA,NA,NA,NA,NA,NA,NA,NA,NA
eb57c,check continue,flow.Sequence,3_0_0,NA,NA,completion,80644.421,1852180.4,1852169.778,1852186.579,1932831,1932831.6,2023-05-14T11:09:56Z,1932869.942,NULL,NA,NA,NA,NA,NA,NA,NA,sdf,NA,0,NA,NA,NA,NA,NA,NA,NA,NA,NA,NA,NA,NA,NA,NA,NA,NA,NA,NA,NA
eb57c,Deep Question,html.Page,3_0_1_0_0_0_0,NA,NA,form submission,10436.358000012,1932867.6,1932853.536,1932869.942,1943306.3,1943306.6,2023-05-14T11:10:06Z,1943311.344,NULL,Betrüger,mdanganyifu,d,NA,NA,NA,kinyongo,NA,NA,1,NA,NA,NA,NA,NA,NA,NA,NA,NA,NA,NA,NA,NA,NA,NA,NA,NA,NA,NA
eb57c,"""Richtig""-Screen",canvas.Screen,3_0_1_0_0_0_1,NA,NA,skipped,NA,1943308.6,NA,NA,1943306.3,1943308.8,2023-05-14T11:10:06Z,1943311.344,NULL,Betrüger,mdanganyifu,d,NA,NA,NA,NA,sdfdsf,NA,1,NA,NA,NA,NA,NA,NA,NA,NA,NA,NA,NA,NA,NA,NA,NA,NA,NA,NA,NA
eb57c,"""Falsch""-Screen",canvas.Screen,3_0_1_0_0_0_2,NA,NA,timeout,4996.365,1943309.3,1943295.286,1943311.344,1948291.176,1948292.2,2023-05-14T11:10:11Z,1948307.709,NULL,Betrüger,mdanganyifu,d,NA,NA,NA,NA,sdfdsf,0,1,NA,NA,NA,NA,NA,NA,NA,NA,NA,NA,NA,NA,NA,NA,NA,NA,NA,NA,NA
eb57c,deep,flow.Sequence,3_0_1_0_0_0,NA,NA,completion,15421.234,1932867.6,1932853.536,1932869.942,1948291.176,1948292.6,2023-05-14T11:10:11Z,1948307.709,NULL,Betrüger,mdanganyifu,d,NA,NA,NA,NA,sdfdsf,NA,1,NA,NA,NA,NA,NA,NA,NA,NA,NA,NA,NA,NA,NA,NA,NA,NA,NA,NA,NA
eb57c,shallow,flow.Sequence,3_0_1_0_0_1,NA,NA,skipped,NA,1948292.8,NA,NA,1948291.176,1948293,2023-05-14T11:10:11Z,1948307.709,NULL,Betrüger,mdanganyifu,d,NA,NA,NA,NA,sdfdsf,NA,1,NA,NA,NA,NA,NA,NA,NA,NA,NA,NA,NA,NA,NA,NA,NA,NA,NA,NA,NA
eb57c,task,flow.Sequence,3_0_1_0_0,NA,NA,completion,15421.234,1932867.6,1932853.536,1932869.942,1948291.176,1948293.2,2023-05-14T11:10:11Z,1948307.709,NULL,Betrüger,mdanganyifu,d,NA,NA,NA,NA,sdfdsf,NA,1,NA,NA,NA,NA,NA,NA,NA,NA,NA,NA,NA,NA,NA,NA,NA,NA,NA,NA,NA
eb57c,deep,flow.Sequence,3_0_1_0_1_0,NA,NA,skipped,NA,1948293.4,NA,NA,1948291.176,1948293.5,2023-05-14T11:10:11Z,1948307.709,NULL,Kreativität,ubunifu,s,mratibu,mwendelezo,makubaliano,NA,sdfdsf,NA,1,NA,NA,NA,NA,NA,NA,NA,NA,NA,NA,NA,NA,NA,NA,NA,NA,NA,NA,NA
eb57c,Shallow Question,html.Page,3_0_1_0_1_1_0,NA,NA,form submission,3504.6910000059,1948293.6,1948291.176,1948307.709,1951812.4,1951812.7,2023-05-14T11:10:15Z,1951821.212,NULL,Kreativität,ubunifu,s,mratibu,mwendelezo,makubaliano,ubunifu,NA,NA,1,NA,NA,NA,NA,NA,NA,NA,NA,NA,NA,NA,NA,NA,NA,NA,NA,NA,NA,NA
eb57c,"""Richtig""-Screen",canvas.Screen,3_0_1_0_1_1_1,NA,NA,timeout,4995.706,1951814.4,1951804.919,1951821.212,1956800.874,1956801.4,2023-05-14T11:10:20Z,1956816.918,NULL,Kreativität,ubunifu,s,mratibu,mwendelezo,makubaliano,NA,sdfdsf,1,1,NA,NA,NA,NA,NA,NA,NA,NA,NA,NA,NA,NA,NA,NA,NA,NA,NA,NA,NA
eb57c,"""Falsch""-Screen",canvas.Screen,3_0_1_0_1_1_2,NA,NA,skipped,NA,1956803.8,NA,NA,1956800.874,1956804,2023-05-14T11:10:20Z,1956816.918,NULL,Kreativität,ubunifu,s,mratibu,mwendelezo,makubaliano,NA,sdfdsf,NA,1,NA,NA,NA,NA,NA,NA,NA,NA,NA,NA,NA,NA,NA,NA,NA,NA,NA,NA,NA
eb57c,shallow,flow.Sequence,3_0_1_0_1_1,NA,NA,completion,8493.165,1948293.6,1948291.176,1948307.709,1956800.874,1956804.2,2023-05-14T11:10:20Z,1956816.918,NULL,Kreativität,ubunifu,s,mratibu,mwendelezo,makubaliano,NA,sdfdsf,NA,1,NA,NA,NA,NA,NA,NA,NA,NA,NA,NA,NA,NA,NA,NA,NA,NA,NA,NA,NA
eb57c,task,flow.Sequence,3_0_1_0_1,NA,NA,completion,8493.165,1948293.3,1948291.176,1948307.709,1956800.874,1956804.3,2023-05-14T11:10:20Z,1956816.918,NULL,Kreativität,ubunifu,s,mratibu,mwendelezo,makubaliano,NA,sdfdsf,NA,1,NA,NA,NA,NA,NA,NA,NA,NA,NA,NA,NA,NA,NA,NA,NA,NA,NA,NA,NA
eb57c,Deep Question,html.Page,3_0_1_0_2_0_0,NA,NA,form submission,5539.281999988,1956804.4,1956800.874,1956816.918,1962356.2,1962356.4,2023-05-14T11:10:25Z,1962362.33,NULL,Gefährdung,kuhatarisha,d,NA,NA,NA,kinyongo,NA,NA,1,NA,NA,NA,NA,NA,NA,NA,NA,NA,NA,NA,NA,NA,NA,NA,NA,NA,NA,NA
eb57c,"""Richtig""-Screen",canvas.Screen,3_0_1_0_2_0_1,NA,NA,skipped,NA,1962358.9,NA,NA,1962356.2,1962358.9,2023-05-14T11:10:25Z,1962362.33,NULL,Gefährdung,kuhatarisha,d,NA,NA,NA,NA,sdfdsf,NA,1,NA,NA,NA,NA,NA,NA,NA,NA,NA,NA,NA,NA,NA,NA,NA,NA,NA,NA,NA
eb57c,"""Falsch""-Screen",canvas.Screen,3_0_1_0_2_0_2,NA,NA,timeout,4996.4139999999,1962359.8,1962346.264,1962362.33,1967341.675,1967343.7,2023-05-14T11:10:30Z,1967358.744,NULL,Gefährdung,kuhatarisha,d,NA,NA,NA,NA,sdfdsf,0,1,NA,NA,NA,NA,NA,NA,NA,NA,NA,NA,NA,NA,NA,NA,NA,NA,NA,NA,NA
eb57c,deep,flow.Sequence,3_0_1_0_2_0,NA,NA,completion,10524.757,1956804.4,1956800.874,1956816.918,1967341.675,1967343.9,2023-05-14T11:10:30Z,1967358.744,NULL,Gefährdung,kuhatarisha,d,NA,NA,NA,NA,sdfdsf,NA,1,NA,NA,NA,NA,NA,NA,NA,NA,NA,NA,NA,NA,NA,NA,NA,NA,NA,NA,NA
eb57c,shallow,flow.Sequence,3_0_1_0_2_1,NA,NA,skipped,NA,1967343.9,NA,NA,1967341.675,1967343.9,2023-05-14T11:10:30Z,1967358.744,NULL,Gefährdung,kuhatarisha,d,NA,NA,NA,NA,sdfdsf,NA,1,NA,NA,NA,NA,NA,NA,NA,NA,NA,NA,NA,NA,NA,NA,NA,NA,NA,NA,NA
eb57c,task,flow.Sequence,3_0_1_0_2,NA,NA,completion,10524.757,1956804.3,1956800.874,1956816.918,1967341.675,1967343.9,2023-05-14T11:10:30Z,1967358.744,NULL,Gefährdung,kuhatarisha,d,NA,NA,NA,NA,sdfdsf,NA,1,NA,NA,NA,NA,NA,NA,NA,NA,NA,NA,NA,NA,NA,NA,NA,NA,NA,NA,NA
eb57c,deep,flow.Sequence,3_0_1_0_3_0,NA,NA,skipped,NA,1967344,NA,NA,1967341.675,1967344.1,2023-05-14T11:10:30Z,1967358.744,NULL,Orientierung,urekebisho,s,uelekeo,marekebisho,utunzaji,NA,sdfdsf,NA,1,NA,NA,NA,NA,NA,NA,NA,NA,NA,NA,NA,NA,NA,NA,NA,NA,NA,NA,NA
eb57c,Shallow Question,html.Page,3_0_1_0_3_1_0,NA,NA,form submission,4193.156000006,1967344.1,1967341.675,1967358.744,1971551.9,1971552.1,2023-05-14T11:10:35Z,1971554.809,NULL,Orientierung,urekebisho,s,uelekeo,marekebisho,utunzaji,uelekeo,NA,NA,1,NA,NA,NA,NA,NA,NA,NA,NA,NA,NA,NA,NA,NA,NA,NA,NA,NA,NA,NA
eb57c,"""Richtig""-Screen",canvas.Screen,3_0_1_0_3_1_1,NA,NA,skipped,NA,1971554,NA,NA,1971551.9,1971554.1,2023-05-14T11:10:35Z,1971554.809,NULL,Orientierung,urekebisho,s,uelekeo,marekebisho,utunzaji,NA,sdfdsf,NA,1,NA,NA,NA,NA,NA,NA,NA,NA,NA,NA,NA,NA,NA,NA,NA,NA,NA,NA,NA
eb57c,"""Falsch""-Screen",canvas.Screen,3_0_1_0_3_1_2,NA,NA,timeout,4996.3260000001,1971554.6,1971538.706,1971554.809,1976534.338,1976535.4,2023-05-14T11:10:40Z,1976551.135,NULL,Orientierung,urekebisho,s,uelekeo,marekebisho,utunzaji,NA,sdfdsf,0,1,NA,NA,NA,NA,NA,NA,NA,NA,NA,NA,NA,NA,NA,NA,NA,NA,NA,NA,NA
eb57c,shallow,flow.Sequence,3_0_1_0_3_1,NA,NA,completion,9175.594,1967344.1,1967341.675,1967358.744,1976534.338,1976535.8,2023-05-14T11:10:40Z,1976551.135,NULL,Orientierung,urekebisho,s,uelekeo,marekebisho,utunzaji,NA,sdfdsf,NA,1,NA,NA,NA,NA,NA,NA,NA,NA,NA,NA,NA,NA,NA,NA,NA,NA,NA,NA,NA
eb57c,task,flow.Sequence,3_0_1_0_3,NA,NA,completion,9175.594,1967344,1967341.675,1967358.744,1976534.338,1976536,2023-05-14T11:10:40Z,1976551.135,NULL,Orientierung,urekebisho,s,uelekeo,marekebisho,utunzaji,NA,sdfdsf,NA,1,NA,NA,NA,NA,NA,NA,NA,NA,NA,NA,NA,NA,NA,NA,NA,NA,NA,NA,NA
eb57c,deep,flow.Sequence,3_0_1_0_4_0,NA,NA,skipped,NA,1976536.2,NA,NA,1976534.338,1976536.4,2023-05-14T11:10:40Z,1976551.135,NULL,Respekt,heshima,s,changamnao,upinzani,ufanisi,NA,sdfdsf,NA,1,NA,NA,NA,NA,NA,NA,NA,NA,NA,NA,NA,NA,NA,NA,NA,NA,NA,NA,NA
eb57c,Shallow Question,html.Page,3_0_1_0_4_1_0,NA,NA,form submission,5651.1650000119,1976536.6,1976534.338,1976551.135,1982202.3,1982202.5,2023-05-14T11:10:45Z,1982213.004,NULL,Respekt,heshima,s,changamnao,upinzani,ufanisi,heshima,NA,NA,1,NA,NA,NA,NA,NA,NA,NA,NA,NA,NA,NA,NA,NA,NA,NA,NA,NA,NA,NA
eb57c,"""Richtig""-Screen",canvas.Screen,3_0_1_0_4_1_1,NA,NA,timeout,4996.0020000001,1982204.3,1982196.336,1982213.004,1987192.504,1987193.2,2023-05-14T11:10:50Z,1987209.006,NULL,Respekt,heshima,s,changamnao,upinzani,ufanisi,NA,sdfdsf,1,1,NA,NA,NA,NA,NA,NA,NA,NA,NA,NA,NA,NA,NA,NA,NA,NA,NA,NA,NA
eb57c,"""Falsch""-Screen",canvas.Screen,3_0_1_0_4_1_2,NA,NA,skipped,NA,1987196.6,NA,NA,1987192.504,1987196.7,2023-05-14T11:10:50Z,1987209.006,NULL,Respekt,heshima,s,changamnao,upinzani,ufanisi,NA,sdfdsf,NA,1,NA,NA,NA,NA,NA,NA,NA,NA,NA,NA,NA,NA,NA,NA,NA,NA,NA,NA,NA
eb57c,shallow,flow.Sequence,3_0_1_0_4_1,NA,NA,completion,10641.369,1976536.5,1976534.338,1976551.135,1987192.504,1987197,2023-05-14T11:10:50Z,1987209.006,NULL,Respekt,heshima,s,changamnao,upinzani,ufanisi,NA,sdfdsf,NA,1,NA,NA,NA,NA,NA,NA,NA,NA,NA,NA,NA,NA,NA,NA,NA,NA,NA,NA,NA
eb57c,task,flow.Sequence,3_0_1_0_4,NA,NA,completion,10641.369,1976536.2,1976534.338,1976551.135,1987192.504,1987197.2,2023-05-14T11:10:50Z,1987209.006,NULL,Respekt,heshima,s,changamnao,upinzani,ufanisi,NA,sdfdsf,NA,1,NA,NA,NA,NA,NA,NA,NA,NA,NA,NA,NA,NA,NA,NA,NA,NA,NA,NA,NA
eb57c,Deep Question,html.Page,3_0_1_0_5_0_0,NA,NA,form submission,9158.593999994,1987197.4,1987192.504,1987209.006,1996367.6,1996367.9,2023-05-14T11:10:59Z,1996385.112,NULL,Kontrolle,kudhibiti,d,NA,NA,NA,hesima,NA,NA,1,NA,NA,NA,NA,NA,NA,NA,NA,NA,NA,NA,NA,NA,NA,NA,NA,NA,NA,NA
eb57c,"""Richtig""-Screen",canvas.Screen,3_0_1_0_5_0_1,NA,NA,skipped,NA,1996370.1,NA,NA,1996367.6,1996370.3,2023-05-14T11:10:59Z,1996385.112,NULL,Kontrolle,kudhibiti,d,NA,NA,NA,NA,sdfdsf,NA,1,NA,NA,NA,NA,NA,NA,NA,NA,NA,NA,NA,NA,NA,NA,NA,NA,NA,NA,NA
eb57c,"""Falsch""-Screen",canvas.Screen,3_0_1_0_5_0_2,NA,NA,timeout,4995.709,1996370.9,1996351.225,1996385.112,2001364.139,2001365.3,2023-05-14T11:11:04Z,2001380.821,NULL,Kontrolle,kudhibiti,d,NA,NA,NA,NA,sdfdsf,0,1,NA,NA,NA,NA,NA,NA,NA,NA,NA,NA,NA,NA,NA,NA,NA,NA,NA,NA,NA
eb57c,deep,flow.Sequence,3_0_1_0_5_0,NA,NA,completion,14155.133,1987197.4,1987192.504,1987209.006,2001364.139,2001365.7,2023-05-14T11:11:04Z,2001380.821,NULL,Kontrolle,kudhibiti,d,NA,NA,NA,NA,sdfdsf,NA,1,NA,NA,NA,NA,NA,NA,NA,NA,NA,NA,NA,NA,NA,NA,NA,NA,NA,NA,NA
eb57c,shallow,flow.Sequence,3_0_1_0_5_1,NA,NA,skipped,NA,2001365.8,NA,NA,2001364.139,2001366,2023-05-14T11:11:04Z,2001380.821,NULL,Kontrolle,kudhibiti,d,NA,NA,NA,NA,sdfdsf,NA,1,NA,NA,NA,NA,NA,NA,NA,NA,NA,NA,NA,NA,NA,NA,NA,NA,NA,NA,NA
eb57c,task,flow.Sequence,3_0_1_0_5,NA,NA,completion,14155.133,1987197.3,1987192.504,1987209.006,2001364.139,2001366.3,2023-05-14T11:11:04Z,2001380.821,NULL,Kontrolle,kudhibiti,d,NA,NA,NA,NA,sdfdsf,NA,1,NA,NA,NA,NA,NA,NA,NA,NA,NA,NA,NA,NA,NA,NA,NA,NA,NA,NA,NA
eb57c,Deep Question,html.Page,3_0_1_0_6_0_0,NA,NA,form submission,3613.278999994,2001366.5,2001364.139,2001380.821,2004994.1,2004994.2,2023-05-14T11:11:08Z,2005012.258,NULL,Stimmung,kinyongo,d,NA,NA,NA,kinyongo,NA,NA,1,NA,NA,NA,NA,NA,NA,NA,NA,NA,NA,NA,NA,NA,NA,NA,NA,NA,NA,NA
eb57c,"""Richtig""-Screen",canvas.Screen,3_0_1_0_6_0_1,NA,NA,timeout,4994.8290000001,2004996,2004977.676,2005012.258,2009990.409,2009991.4,2023-05-14T11:11:13Z,2010007.087,NULL,Stimmung,kinyongo,d,NA,NA,NA,NA,sdfdsf,1,1,NA,NA,NA,NA,NA,NA,NA,NA,NA,NA,NA,NA,NA,NA,NA,NA,NA,NA,NA
eb57c,"""Falsch""-Screen",canvas.Screen,3_0_1_0_6_0_2,NA,NA,skipped,NA,2009995.2,NA,NA,2009990.409,2009995.3,2023-05-14T11:11:13Z,2010007.087,NULL,Stimmung,kinyongo,d,NA,NA,NA,NA,sdfdsf,NA,1,NA,NA,NA,NA,NA,NA,NA,NA,NA,NA,NA,NA,NA,NA,NA,NA,NA,NA,NA
eb57c,deep,flow.Sequence,3_0_1_0_6_0,NA,NA,completion,8609.588,2001366.5,2001364.139,2001380.821,2009990.409,2009995.5,2023-05-14T11:11:13Z,2010007.087,NULL,Stimmung,kinyongo,d,NA,NA,NA,NA,sdfdsf,NA,1,NA,NA,NA,NA,NA,NA,NA,NA,NA,NA,NA,NA,NA,NA,NA,NA,NA,NA,NA
eb57c,shallow,flow.Sequence,3_0_1_0_6_1,NA,NA,skipped,NA,2009995.5,NA,NA,2009990.409,2009995.5,2023-05-14T11:11:13Z,2010007.087,NULL,Stimmung,kinyongo,d,NA,NA,NA,NA,sdfdsf,NA,1,NA,NA,NA,NA,NA,NA,NA,NA,NA,NA,NA,NA,NA,NA,NA,NA,NA,NA,NA
eb57c,task,flow.Sequence,3_0_1_0_6,NA,NA,completion,8609.588,2001366.4,2001364.139,2001380.821,2009990.409,2009995.6,2023-05-14T11:11:13Z,2010007.087,NULL,Stimmung,kinyongo,d,NA,NA,NA,NA,sdfdsf,NA,1,NA,NA,NA,NA,NA,NA,NA,NA,NA,NA,NA,NA,NA,NA,NA,NA,NA,NA,NA
eb57c,deep,flow.Sequence,3_0_1_0_7_0,NA,NA,skipped,NA,2009995.6,NA,NA,2009990.409,2009995.7,2023-05-14T11:11:13Z,2010007.087,NULL,Können,unaweza,s,kiongozi,bustani,mienendo,NA,sdfdsf,NA,1,NA,NA,NA,NA,NA,NA,NA,NA,NA,NA,NA,NA,NA,NA,NA,NA,NA,NA,NA
eb57c,Shallow Question,html.Page,3_0_1_0_7_1_0,NA,NA,form submission,3490.4129999999,2009995.8,2009990.409,2010007.087,2013497.5,2013497.6,2023-05-14T11:11:16Z,2013503.557,NULL,Können,unaweza,s,kiongozi,bustani,mienendo,kiongozi,NA,NA,1,NA,NA,NA,NA,NA,NA,NA,NA,NA,NA,NA,NA,NA,NA,NA,NA,NA,NA,NA
eb57c,"""Richtig""-Screen",canvas.Screen,3_0_1_0_7_1_1,NA,NA,skipped,NA,2013499.3,NA,NA,2013497.5,2013499.5,2023-05-14T11:11:16Z,2013503.557,NULL,Können,unaweza,s,kiongozi,bustani,mienendo,NA,sdfdsf,NA,1,NA,NA,NA,NA,NA,NA,NA,NA,NA,NA,NA,NA,NA,NA,NA,NA,NA,NA,NA
eb57c,"""Falsch""-Screen",canvas.Screen,3_0_1_0_7_1_2,NA,NA,timeout,4996.5649999999,2013500.1,2013486.939,2013503.557,2018483.441,2018484.4,2023-05-14T11:11:21Z,2018500.122,NULL,Können,unaweza,s,kiongozi,bustani,mienendo,NA,sdfdsf,0,1,NA,NA,NA,NA,NA,NA,NA,NA,NA,NA,NA,NA,NA,NA,NA,NA,NA,NA,NA
eb57c,shallow,flow.Sequence,3_0_1_0_7_1,NA,NA,completion,8476.3540000001,2009995.8,2009990.409,2010007.087,2018483.441,2018484.8,2023-05-14T11:11:21Z,2018500.122,NULL,Können,unaweza,s,kiongozi,bustani,mienendo,NA,sdfdsf,NA,1,NA,NA,NA,NA,NA,NA,NA,NA,NA,NA,NA,NA,NA,NA,NA,NA,NA,NA,NA
eb57c,task,flow.Sequence,3_0_1_0_7,NA,NA,completion,8476.3540000001,2009995.6,2009990.409,2010007.087,2018483.441,2018484.9,2023-05-14T11:11:21Z,2018500.122,NULL,Können,unaweza,s,kiongozi,bustani,mienendo,NA,sdfdsf,NA,1,NA,NA,NA,NA,NA,NA,NA,NA,NA,NA,NA,NA,NA,NA,NA,NA,NA,NA,NA
eb57c,block,flow.Loop,3_0_1_0,NA,NA,completion,85613.499,1932867.6,1932853.536,1932869.942,2018483.441,2018485.1,2023-05-14T11:11:21Z,2018500.122,NULL,NA,NA,NA,NA,NA,NA,NA,sdfdsf,NA,1,NA,NA,NA,NA,NA,NA,NA,NA,NA,NA,NA,NA,NA,NA,NA,NA,NA,NA,NA
eb57c,weiter,canvas.Screen,3_0_1_1,sdf,keypress(Space),response,1035.1780000119,2018485.3,2018483.441,2018500.122,2019535.3,2019536.4,2023-05-14T11:11:23Z,2019582.631,NULL,NA,NA,NA,NA,NA,NA,NA,sdfdsf,NA,1,NA,NA,NA,NA,NA,NA,NA,NA,NA,NA,NA,NA,NA,NA,NA,NA,NA,NA,NA
eb57c,check continue,flow.Sequence,3_0_1,NA,NA,completion,86665.358000012,1932867.5,1932853.536,1932869.942,2019535.3,2019536.9,2023-05-14T11:11:23Z,2019582.631,NULL,NA,NA,NA,NA,NA,NA,NA,sdfdsf,NA,1,NA,NA,NA,NA,NA,NA,NA,NA,NA,NA,NA,NA,NA,NA,NA,NA,NA,NA,NA
eb57c,deep,flow.Sequence,3_0_2_0_0_0,NA,NA,skipped,NA,2019569.9,NA,NA,2019535.3,2019570,2023-05-14T11:11:23Z,2019582.631,NULL,Respekt,heshima,s,changamnao,upinzani,ufanisi,NA,sdf,NA,2,NA,NA,NA,NA,NA,NA,NA,NA,NA,NA,NA,NA,NA,NA,NA,NA,NA,NA,NA
eb57c,Shallow Question,html.Page,3_0_2_0_0_1_0,NA,NA,form submission,3051.6690000119,2019570.1,2019565.789,2019582.631,2022634.3,2022634.5,2023-05-14T11:11:26Z,2022646.078,NULL,Respekt,heshima,s,changamnao,upinzani,ufanisi,heshima,NA,NA,2,NA,NA,NA,NA,NA,NA,NA,NA,NA,NA,NA,NA,NA,NA,NA,NA,NA,NA,NA
eb57c,"""Richtig""-Screen",canvas.Screen,3_0_2_0_0_1_1,NA,NA,timeout,4995.9909999999,2022635.2,2022629.458,2022646.078,2027625.586,2027626.7,2023-05-14T11:11:31Z,2027642.069,NULL,Respekt,heshima,s,changamnao,upinzani,ufanisi,NA,sdf,1,2,NA,NA,NA,NA,NA,NA,NA,NA,NA,NA,NA,NA,NA,NA,NA,NA,NA,NA,NA
eb57c,"""Falsch""-Screen",canvas.Screen,3_0_2_0_0_1_2,NA,NA,skipped,NA,2027631.9,NA,NA,2027625.586,2027632.2,2023-05-14T11:11:31Z,2027642.069,NULL,Respekt,heshima,s,changamnao,upinzani,ufanisi,NA,sdf,NA,2,NA,NA,NA,NA,NA,NA,NA,NA,NA,NA,NA,NA,NA,NA,NA,NA,NA,NA,NA
eb57c,shallow,flow.Sequence,3_0_2_0_0_1,NA,NA,completion,8042.9549999998,2019570.1,2019565.789,2019582.631,2027625.586,2027632.6,2023-05-14T11:11:31Z,2027642.069,NULL,Respekt,heshima,s,changamnao,upinzani,ufanisi,NA,sdf,NA,2,NA,NA,NA,NA,NA,NA,NA,NA,NA,NA,NA,NA,NA,NA,NA,NA,NA,NA,NA
eb57c,task,flow.Sequence,3_0_2_0_0,NA,NA,completion,8042.9549999998,2019569.9,2019565.789,2019582.631,2027625.586,2027632.8,2023-05-14T11:11:31Z,2027642.069,NULL,Respekt,heshima,s,changamnao,upinzani,ufanisi,NA,sdf,NA,2,NA,NA,NA,NA,NA,NA,NA,NA,NA,NA,NA,NA,NA,NA,NA,NA,NA,NA,NA
eb57c,Deep Question,html.Page,3_0_2_0_1_0_0,NA,NA,form submission,12243.931,2027633.1,2027625.586,2027642.069,2039886,2039886.1,2023-05-14T11:11:43Z,2039898.724,NULL,Gefährdung,kuhatarisha,d,NA,NA,NA,mdawanafuzi,NA,NA,2,NA,NA,NA,NA,NA,NA,NA,NA,NA,NA,NA,NA,NA,NA,NA,NA,NA,NA,NA
eb57c,"""Richtig""-Screen",canvas.Screen,3_0_2_0_1_0_1,NA,NA,skipped,NA,2039888.7,NA,NA,2039886,2039888.8,2023-05-14T11:11:43Z,2039898.724,NULL,Gefährdung,kuhatarisha,d,NA,NA,NA,NA,sdf,NA,2,NA,NA,NA,NA,NA,NA,NA,NA,NA,NA,NA,NA,NA,NA,NA,NA,NA,NA,NA
eb57c,"""Falsch""-Screen",canvas.Screen,3_0_2_0_1_0_2,NA,NA,timeout,4996.112,2039890.2,2039882.133,2039898.724,2044877.87,2044880.5,2023-05-14T11:11:48Z,2044894.836,NULL,Gefährdung,kuhatarisha,d,NA,NA,NA,NA,sdf,0,2,NA,NA,NA,NA,NA,NA,NA,NA,NA,NA,NA,NA,NA,NA,NA,NA,NA,NA,NA
eb57c,deep,flow.Sequence,3_0_2_0_1_0,NA,NA,completion,17235.801,2027633,2027625.586,2027642.069,2044877.87,2044881.1,2023-05-14T11:11:48Z,2044894.836,NULL,Gefährdung,kuhatarisha,d,NA,NA,NA,NA,sdf,NA,2,NA,NA,NA,NA,NA,NA,NA,NA,NA,NA,NA,NA,NA,NA,NA,NA,NA,NA,NA
eb57c,shallow,flow.Sequence,3_0_2_0_1_1,NA,NA,skipped,NA,2044881.2,NA,NA,2044877.87,2044881.4,2023-05-14T11:11:48Z,2044894.836,NULL,Gefährdung,kuhatarisha,d,NA,NA,NA,NA,sdf,NA,2,NA,NA,NA,NA,NA,NA,NA,NA,NA,NA,NA,NA,NA,NA,NA,NA,NA,NA,NA
eb57c,task,flow.Sequence,3_0_2_0_1,NA,NA,completion,17235.801,2027633,2027625.586,2027642.069,2044877.87,2044881.6,2023-05-14T11:11:48Z,2044894.836,NULL,Gefährdung,kuhatarisha,d,NA,NA,NA,NA,sdf,NA,2,NA,NA,NA,NA,NA,NA,NA,NA,NA,NA,NA,NA,NA,NA,NA,NA,NA,NA,NA
eb57c,Deep Question,html.Page,3_0_2_0_2_0_0,NA,NA,form submission,5224.8639999882,2044881.9,2044877.87,2044894.836,2050119.7,2050119.9,2023-05-14T11:11:53Z,2050123.414,NULL,Kontrolle,kudhibiti,d,NA,NA,NA,kutersha,NA,NA,2,NA,NA,NA,NA,NA,NA,NA,NA,NA,NA,NA,NA,NA,NA,NA,NA,NA,NA,NA
eb57c,"""Richtig""-Screen",canvas.Screen,3_0_2_0_2_0_1,NA,NA,skipped,NA,2050122.8,NA,NA,2050119.7,2050123,2023-05-14T11:11:53Z,2050123.414,NULL,Kontrolle,kudhibiti,d,NA,NA,NA,NA,sdf,NA,2,NA,NA,NA,NA,NA,NA,NA,NA,NA,NA,NA,NA,NA,NA,NA,NA,NA,NA,NA
eb57c,"""Falsch""-Screen",canvas.Screen,3_0_2_0_2_0_2,NA,NA,timeout,4996.264,2050124.2,2050106.931,2050123.414,2055103.042,2055104.1,2023-05-14T11:11:58Z,2055119.678,NULL,Kontrolle,kudhibiti,d,NA,NA,NA,NA,sdf,0,2,NA,NA,NA,NA,NA,NA,NA,NA,NA,NA,NA,NA,NA,NA,NA,NA,NA,NA,NA
eb57c,deep,flow.Sequence,3_0_2_0_2_0,NA,NA,completion,10208.206,2044881.8,2044877.87,2044894.836,2055103.042,2055104.5,2023-05-14T11:11:58Z,2055119.678,NULL,Kontrolle,kudhibiti,d,NA,NA,NA,NA,sdf,NA,2,NA,NA,NA,NA,NA,NA,NA,NA,NA,NA,NA,NA,NA,NA,NA,NA,NA,NA,NA
eb57c,shallow,flow.Sequence,3_0_2_0_2_1,NA,NA,skipped,NA,2055104.6,NA,NA,2055103.042,2055104.8,2023-05-14T11:11:58Z,2055119.678,NULL,Kontrolle,kudhibiti,d,NA,NA,NA,NA,sdf,NA,2,NA,NA,NA,NA,NA,NA,NA,NA,NA,NA,NA,NA,NA,NA,NA,NA,NA,NA,NA
eb57c,task,flow.Sequence,3_0_2_0_2,NA,NA,completion,10208.206,2044881.7,2044877.87,2044894.836,2055103.042,2055105,2023-05-14T11:11:58Z,2055119.678,NULL,Kontrolle,kudhibiti,d,NA,NA,NA,NA,sdf,NA,2,NA,NA,NA,NA,NA,NA,NA,NA,NA,NA,NA,NA,NA,NA,NA,NA,NA,NA,NA
eb57c,deep,flow.Sequence,3_0_2_0_3_0,NA,NA,skipped,NA,2055105.2,NA,NA,2055103.042,2055105.3,2023-05-14T11:11:58Z,2055119.678,NULL,Kreativität,ubunifu,s,mratibu,mwendelezo,makubaliano,NA,sdf,NA,2,NA,NA,NA,NA,NA,NA,NA,NA,NA,NA,NA,NA,NA,NA,NA,NA,NA,NA,NA
eb57c,Shallow Question,html.Page,3_0_2_0_3_1_0,NA,NA,form submission,7545.021999988,2055105.5,2055103.042,2055119.678,2062664.7,2062664.9,2023-05-14T11:12:06Z,2062680.405,NULL,Kreativität,ubunifu,s,mratibu,mwendelezo,makubaliano,ubunifu,NA,NA,2,NA,NA,NA,NA,NA,NA,NA,NA,NA,NA,NA,NA,NA,NA,NA,NA,NA,NA,NA
eb57c,"""Richtig""-Screen",canvas.Screen,3_0_2_0_3_1_1,NA,NA,timeout,4995.3589999999,2062666.8,2062663.635,2062680.405,2067659.498,2067660.6,2023-05-14T11:12:11Z,2067675.764,NULL,Kreativität,ubunifu,s,mratibu,mwendelezo,makubaliano,NA,sdf,1,2,NA,NA,NA,NA,NA,NA,NA,NA,NA,NA,NA,NA,NA,NA,NA,NA,NA,NA,NA
eb57c,"""Falsch""-Screen",canvas.Screen,3_0_2_0_3_1_2,NA,NA,skipped,NA,2067665.8,NA,NA,2067659.498,2067666.2,2023-05-14T11:12:11Z,2067675.764,NULL,Kreativität,ubunifu,s,mratibu,mwendelezo,makubaliano,NA,sdf,NA,2,NA,NA,NA,NA,NA,NA,NA,NA,NA,NA,NA,NA,NA,NA,NA,NA,NA,NA,NA
eb57c,shallow,flow.Sequence,3_0_2_0_3_1,NA,NA,completion,12539.82,2055105.5,2055103.042,2055119.678,2067659.498,2067666.6,2023-05-14T11:12:11Z,2067675.764,NULL,Kreativität,ubunifu,s,mratibu,mwendelezo,makubaliano,NA,sdf,NA,2,NA,NA,NA,NA,NA,NA,NA,NA,NA,NA,NA,NA,NA,NA,NA,NA,NA,NA,NA
eb57c,task,flow.Sequence,3_0_2_0_3,NA,NA,completion,12539.82,2055105.1,2055103.042,2055119.678,2067659.498,2067666.8,2023-05-14T11:12:11Z,2067675.764,NULL,Kreativität,ubunifu,s,mratibu,mwendelezo,makubaliano,NA,sdf,NA,2,NA,NA,NA,NA,NA,NA,NA,NA,NA,NA,NA,NA,NA,NA,NA,NA,NA,NA,NA
eb57c,Deep Question,html.Page,3_0_2_0_4_0_0,NA,NA,form submission,6317.536000012,2067667,2067659.498,2067675.764,2073993.3,2073993.5,2023-05-14T11:12:17Z,2074004.152,NULL,Stimmung,kinyongo,d,NA,NA,NA,kinyongo,NA,NA,2,NA,NA,NA,NA,NA,NA,NA,NA,NA,NA,NA,NA,NA,NA,NA,NA,NA,NA,NA
eb57c,"""Richtig""-Screen",canvas.Screen,3_0_2_0_4_0_1,NA,NA,timeout,4995.5360000001,2073995.2,2073987.573,2074004.152,2078983.571,2078984.6,2023-05-14T11:12:22Z,2078999.688,NULL,Stimmung,kinyongo,d,NA,NA,NA,NA,sdf,1,2,NA,NA,NA,NA,NA,NA,NA,NA,NA,NA,NA,NA,NA,NA,NA,NA,NA,NA,NA
eb57c,"""Falsch""-Screen",canvas.Screen,3_0_2_0_4_0_2,NA,NA,skipped,NA,2078989.1,NA,NA,2078983.571,2078989.3,2023-05-14T11:12:22Z,2078999.688,NULL,Stimmung,kinyongo,d,NA,NA,NA,NA,sdf,NA,2,NA,NA,NA,NA,NA,NA,NA,NA,NA,NA,NA,NA,NA,NA,NA,NA,NA,NA,NA
eb57c,deep,flow.Sequence,3_0_2_0_4_0,NA,NA,completion,11307.807,2067667,2067659.498,2067675.764,2078983.571,2078989.3,2023-05-14T11:12:22Z,2078999.688,NULL,Stimmung,kinyongo,d,NA,NA,NA,NA,sdf,NA,2,NA,NA,NA,NA,NA,NA,NA,NA,NA,NA,NA,NA,NA,NA,NA,NA,NA,NA,NA
eb57c,shallow,flow.Sequence,3_0_2_0_4_1,NA,NA,skipped,NA,2078989.4,NA,NA,2078983.571,2078989.4,2023-05-14T11:12:22Z,2078999.688,NULL,Stimmung,kinyongo,d,NA,NA,NA,NA,sdf,NA,2,NA,NA,NA,NA,NA,NA,NA,NA,NA,NA,NA,NA,NA,NA,NA,NA,NA,NA,NA
eb57c,task,flow.Sequence,3_0_2_0_4,NA,NA,completion,11307.807,2067666.9,2067659.498,2067675.764,2078983.571,2078989.5,2023-05-14T11:12:22Z,2078999.688,NULL,Stimmung,kinyongo,d,NA,NA,NA,NA,sdf,NA,2,NA,NA,NA,NA,NA,NA,NA,NA,NA,NA,NA,NA,NA,NA,NA,NA,NA,NA,NA
eb57c,deep,flow.Sequence,3_0_2_0_5_0,NA,NA,skipped,NA,2078989.5,NA,NA,2078983.571,2078989.6,2023-05-14T11:12:22Z,2078999.688,NULL,Können,unaweza,s,kiongozi,bustani,mienendo,NA,sdf,NA,2,NA,NA,NA,NA,NA,NA,NA,NA,NA,NA,NA,NA,NA,NA,NA,NA,NA,NA,NA
eb57c,Shallow Question,html.Page,3_0_2_0_5_1_0,NA,NA,form submission,4318.3119999999,2078989.7,2078983.571,2078999.688,2083318,2083318.2,2023-05-14T11:12:26Z,2083329.909,NULL,Können,unaweza,s,kiongozi,bustani,mienendo,unaweza,NA,NA,2,NA,NA,NA,NA,NA,NA,NA,NA,NA,NA,NA,NA,NA,NA,NA,NA,NA,NA,NA
eb57c,"""Richtig""-Screen",canvas.Screen,3_0_2_0_5_1_1,NA,NA,timeout,4995.4939999999,2083319.6,2083313.342,2083329.909,2088308.76,2088309.7,2023-05-14T11:12:31Z,2088325.403,NULL,Können,unaweza,s,kiongozi,bustani,mienendo,NA,sdf,1,2,NA,NA,NA,NA,NA,NA,NA,NA,NA,NA,NA,NA,NA,NA,NA,NA,NA,NA,NA
eb57c,"""Falsch""-Screen",canvas.Screen,3_0_2_0_5_1_2,NA,NA,skipped,NA,2088313.9,NA,NA,2088308.76,2088314,2023-05-14T11:12:31Z,2088325.403,NULL,Können,unaweza,s,kiongozi,bustani,mienendo,NA,sdf,NA,2,NA,NA,NA,NA,NA,NA,NA,NA,NA,NA,NA,NA,NA,NA,NA,NA,NA,NA,NA
eb57c,shallow,flow.Sequence,3_0_2_0_5_1,NA,NA,completion,9309.0719999999,2078989.7,2078983.571,2078999.688,2088308.76,2088314.1,2023-05-14T11:12:31Z,2088325.403,NULL,Können,unaweza,s,kiongozi,bustani,mienendo,NA,sdf,NA,2,NA,NA,NA,NA,NA,NA,NA,NA,NA,NA,NA,NA,NA,NA,NA,NA,NA,NA,NA
eb57c,task,flow.Sequence,3_0_2_0_5,NA,NA,completion,9309.0719999999,2078989.5,2078983.571,2078999.688,2088308.76,2088314.2,2023-05-14T11:12:31Z,2088325.403,NULL,Können,unaweza,s,kiongozi,bustani,mienendo,NA,sdf,NA,2,NA,NA,NA,NA,NA,NA,NA,NA,NA,NA,NA,NA,NA,NA,NA,NA,NA,NA,NA
eb57c,deep,flow.Sequence,3_0_2_0_6_0,NA,NA,skipped,NA,2088314.3,NA,NA,2088308.76,2088314.3,2023-05-14T11:12:31Z,2088325.403,NULL,Orientierung,urekebisho,s,uelekeo,marekebisho,utunzaji,NA,sdf,NA,2,NA,NA,NA,NA,NA,NA,NA,NA,NA,NA,NA,NA,NA,NA,NA,NA,NA,NA,NA
eb57c,Shallow Question,html.Page,3_0_2_0_6_1_0,NA,NA,form submission,3831.897000012,2088314.3,2088308.76,2088325.403,2092157.3,2092157.5,2023-05-14T11:12:35Z,2092172.905,NULL,Orientierung,urekebisho,s,uelekeo,marekebisho,utunzaji,urekebisho,NA,NA,2,NA,NA,NA,NA,NA,NA,NA,NA,NA,NA,NA,NA,NA,NA,NA,NA,NA,NA,NA
eb57c,"""Richtig""-Screen",canvas.Screen,3_0_2_0_6_1_1,NA,NA,timeout,4995.2950000002,2092159.3,2092155.892,2092172.905,2097151.863,2097153,2023-05-14T11:12:40Z,2097168.2,NULL,Orientierung,urekebisho,s,uelekeo,marekebisho,utunzaji,NA,sdf,1,2,NA,NA,NA,NA,NA,NA,NA,NA,NA,NA,NA,NA,NA,NA,NA,NA,NA,NA,NA
eb57c,"""Falsch""-Screen",canvas.Screen,3_0_2_0_6_1_2,NA,NA,skipped,NA,2097158.2,NA,NA,2097151.863,2097158.5,2023-05-14T11:12:40Z,2097168.2,NULL,Orientierung,urekebisho,s,uelekeo,marekebisho,utunzaji,NA,sdf,NA,2,NA,NA,NA,NA,NA,NA,NA,NA,NA,NA,NA,NA,NA,NA,NA,NA,NA,NA,NA
eb57c,shallow,flow.Sequence,3_0_2_0_6_1,NA,NA,completion,8826.46,2088314.3,2088308.76,2088325.403,2097151.863,2097158.9,2023-05-14T11:12:40Z,2097168.2,NULL,Orientierung,urekebisho,s,uelekeo,marekebisho,utunzaji,NA,sdf,NA,2,NA,NA,NA,NA,NA,NA,NA,NA,NA,NA,NA,NA,NA,NA,NA,NA,NA,NA,NA
eb57c,task,flow.Sequence,3_0_2_0_6,NA,NA,completion,8826.46,2088314.3,2088308.76,2088325.403,2097151.863,2097159.2,2023-05-14T11:12:40Z,2097168.2,NULL,Orientierung,urekebisho,s,uelekeo,marekebisho,utunzaji,NA,sdf,NA,2,NA,NA,NA,NA,NA,NA,NA,NA,NA,NA,NA,NA,NA,NA,NA,NA,NA,NA,NA
eb57c,Deep Question,html.Page,3_0_2_0_7_0_0,NA,NA,form submission,6746.7999999998,2097159.4,2097151.863,2097168.2,2103915,2103915.1,2023-05-14T11:12:47Z,2103929.901,NULL,Betrüger,mdanganyifu,d,NA,NA,NA,mdawanafuzi,NA,NA,2,NA,NA,NA,NA,NA,NA,NA,NA,NA,NA,NA,NA,NA,NA,NA,NA,NA,NA,NA
eb57c,"""Richtig""-Screen",canvas.Screen,3_0_2_0_7_0_1,NA,NA,skipped,NA,2103917.5,NA,NA,2103915,2103917.6,2023-05-14T11:12:47Z,2103929.901,NULL,Betrüger,mdanganyifu,d,NA,NA,NA,NA,sdf,NA,2,NA,NA,NA,NA,NA,NA,NA,NA,NA,NA,NA,NA,NA,NA,NA,NA,NA,NA,NA
eb57c,"""Falsch""-Screen",canvas.Screen,3_0_2_0_7_0_2,NA,NA,timeout,4995.736,2103918.4,2103913.02,2103929.901,2108908.634,2108909.7,2023-05-14T11:12:52Z,2108925.637,NULL,Betrüger,mdanganyifu,d,NA,NA,NA,NA,sdf,0,2,NA,NA,NA,NA,NA,NA,NA,NA,NA,NA,NA,NA,NA,NA,NA,NA,NA,NA,NA
eb57c,deep,flow.Sequence,3_0_2_0_7_0,NA,NA,completion,11740.434,2097159.3,2097151.863,2097168.2,2108908.634,2108910,2023-05-14T11:12:52Z,2108925.637,NULL,Betrüger,mdanganyifu,d,NA,NA,NA,NA,sdf,NA,2,NA,NA,NA,NA,NA,NA,NA,NA,NA,NA,NA,NA,NA,NA,NA,NA,NA,NA,NA
eb57c,shallow,flow.Sequence,3_0_2_0_7_1,NA,NA,skipped,NA,2108910.2,NA,NA,2108908.634,2108910.3,2023-05-14T11:12:52Z,2108925.637,NULL,Betrüger,mdanganyifu,d,NA,NA,NA,NA,sdf,NA,2,NA,NA,NA,NA,NA,NA,NA,NA,NA,NA,NA,NA,NA,NA,NA,NA,NA,NA,NA
eb57c,task,flow.Sequence,3_0_2_0_7,NA,NA,completion,11740.434,2097159.3,2097151.863,2097168.2,2108908.634,2108910.6,2023-05-14T11:12:52Z,2108925.637,NULL,Betrüger,mdanganyifu,d,NA,NA,NA,NA,sdf,NA,2,NA,NA,NA,NA,NA,NA,NA,NA,NA,NA,NA,NA,NA,NA,NA,NA,NA,NA,NA
eb57c,block,flow.Loop,3_0_2_0,NA,NA,completion,89326.003,2019569.9,2019565.789,2019582.631,2108908.634,2108910.8,2023-05-14T11:12:52Z,2108925.637,NULL,NA,NA,NA,NA,NA,NA,NA,sdf,NA,2,NA,NA,NA,NA,NA,NA,NA,NA,NA,NA,NA,NA,NA,NA,NA,NA,NA,NA,NA
eb57c,weiter,canvas.Screen,3_0_2_1,sdf,keypress(Space),response,750.16300001182,2108911,2108908.634,2108925.637,2109675.8,2109676.8,2023-05-14T11:12:53Z,2109724.408,NULL,NA,NA,NA,NA,NA,NA,NA,sdf,NA,2,NA,NA,NA,NA,NA,NA,NA,NA,NA,NA,NA,NA,NA,NA,NA,NA,NA,NA,NA
eb57c,check continue,flow.Sequence,3_0_2,NA,NA,completion,90093.169000012,2019569.8,2019565.789,2019582.631,2109675.8,2109677.1,2023-05-14T11:12:53Z,2109724.408,NULL,NA,NA,NA,NA,NA,NA,NA,sdf,NA,2,NA,NA,NA,NA,NA,NA,NA,NA,NA,NA,NA,NA,NA,NA,NA,NA,NA,NA,NA
eb57c,deep,flow.Sequence,3_0_3_0_0_0,NA,NA,skipped,NA,2109711.4,NA,NA,2109675.8,2109711.4,2023-05-14T11:12:53Z,2109724.408,NULL,Kreativität,ubunifu,s,mratibu,mwendelezo,makubaliano,NA,qt,NA,3,NA,NA,NA,NA,NA,NA,NA,NA,NA,NA,NA,NA,NA,NA,NA,NA,NA,NA,NA
eb57c,Shallow Question,html.Page,3_0_3_0_0_1_0,NA,NA,form submission,2424.1919999942,2109711.5,2109708.109,2109724.408,2112148.6,2112148.7,2023-05-14T11:12:55Z,2112155.705,NULL,Kreativität,ubunifu,s,mratibu,mwendelezo,makubaliano,ubunifu,NA,NA,3,NA,NA,NA,NA,NA,NA,NA,NA,NA,NA,NA,NA,NA,NA,NA,NA,NA,NA,NA
eb57c,"""Richtig""-Screen",canvas.Screen,3_0_3_0_0_1_1,NA,NA,timeout,4996.4159999997,2112149.5,2112139.633,2112155.705,2117135.296,2117136,2023-05-14T11:13:00Z,2117152.121,NULL,Kreativität,ubunifu,s,mratibu,mwendelezo,makubaliano,NA,qt,1,3,NA,NA,NA,NA,NA,NA,NA,NA,NA,NA,NA,NA,NA,NA,NA,NA,NA,NA,NA
eb57c,"""Falsch""-Screen",canvas.Screen,3_0_3_0_0_1_2,NA,NA,skipped,NA,2117139.7,NA,NA,2117135.296,2117139.9,2023-05-14T11:13:00Z,2117152.121,NULL,Kreativität,ubunifu,s,mratibu,mwendelezo,makubaliano,NA,qt,NA,3,NA,NA,NA,NA,NA,NA,NA,NA,NA,NA,NA,NA,NA,NA,NA,NA,NA,NA,NA
eb57c,shallow,flow.Sequence,3_0_3_0_0_1,NA,NA,completion,7410.8880000003,2109711.5,2109708.109,2109724.408,2117135.296,2117140.2,2023-05-14T11:13:00Z,2117152.121,NULL,Kreativität,ubunifu,s,mratibu,mwendelezo,makubaliano,NA,qt,NA,3,NA,NA,NA,NA,NA,NA,NA,NA,NA,NA,NA,NA,NA,NA,NA,NA,NA,NA,NA
eb57c,task,flow.Sequence,3_0_3_0_0,NA,NA,completion,7410.8880000003,2109711.4,2109708.109,2109724.408,2117135.296,2117140.4,2023-05-14T11:13:00Z,2117152.121,NULL,Kreativität,ubunifu,s,mratibu,mwendelezo,makubaliano,NA,qt,NA,3,NA,NA,NA,NA,NA,NA,NA,NA,NA,NA,NA,NA,NA,NA,NA,NA,NA,NA,NA
eb57c,deep,flow.Sequence,3_0_3_0_1_0,NA,NA,skipped,NA,2117140.5,NA,NA,2117135.296,2117140.7,2023-05-14T11:13:00Z,2117152.121,NULL,Können,unaweza,s,kiongozi,bustani,mienendo,NA,qt,NA,3,NA,NA,NA,NA,NA,NA,NA,NA,NA,NA,NA,NA,NA,NA,NA,NA,NA,NA,NA
eb57c,Shallow Question,html.Page,3_0_3_0_1_1_0,NA,NA,form submission,2295.6790000121,2117140.8,2117135.296,2117152.121,2119447.8,2119447.9,2023-05-14T11:13:02Z,2119449.713,NULL,Können,unaweza,s,kiongozi,bustani,mienendo,unaweza,NA,NA,3,NA,NA,NA,NA,NA,NA,NA,NA,NA,NA,NA,NA,NA,NA,NA,NA,NA,NA,NA
eb57c,"""Richtig""-Screen",canvas.Screen,3_0_3_0_1_1_1,NA,NA,timeout,4995.9560000002,2119448.4,2119433.056,2119449.713,2124429.497,2124430.4,2023-05-14T11:13:07Z,2124445.669,NULL,Können,unaweza,s,kiongozi,bustani,mienendo,NA,qt,1,3,NA,NA,NA,NA,NA,NA,NA,NA,NA,NA,NA,NA,NA,NA,NA,NA,NA,NA,NA
eb57c,"""Falsch""-Screen",canvas.Screen,3_0_3_0_1_1_2,NA,NA,skipped,NA,2124435.6,NA,NA,2124429.497,2124435.8,2023-05-14T11:13:07Z,2124445.669,NULL,Können,unaweza,s,kiongozi,bustani,mienendo,NA,qt,NA,3,NA,NA,NA,NA,NA,NA,NA,NA,NA,NA,NA,NA,NA,NA,NA,NA,NA,NA,NA
eb57c,shallow,flow.Sequence,3_0_3_0_1_1,NA,NA,completion,7277.3760000002,2117140.8,2117135.296,2117152.121,2124429.497,2124436.1,2023-05-14T11:13:07Z,2124445.669,NULL,Können,unaweza,s,kiongozi,bustani,mienendo,NA,qt,NA,3,NA,NA,NA,NA,NA,NA,NA,NA,NA,NA,NA,NA,NA,NA,NA,NA,NA,NA,NA
eb57c,task,flow.Sequence,3_0_3_0_1,NA,NA,completion,7277.3760000002,2117140.5,2117135.296,2117152.121,2124429.497,2124436.4,2023-05-14T11:13:07Z,2124445.669,NULL,Können,unaweza,s,kiongozi,bustani,mienendo,NA,qt,NA,3,NA,NA,NA,NA,NA,NA,NA,NA,NA,NA,NA,NA,NA,NA,NA,NA,NA,NA,NA
eb57c,Deep Question,html.Page,3_0_3_0_2_0_0,NA,NA,form submission,4289.9309999938,2124436.7,2124429.497,2124445.669,2128735.6,2128735.9,2023-05-14T11:13:12Z,2128742.018,NULL,Kontrolle,kudhibiti,d,NA,NA,NA,kudhibti,NA,NA,3,NA,NA,NA,NA,NA,NA,NA,NA,NA,NA,NA,NA,NA,NA,NA,NA,NA,NA,NA
eb57c,"""Richtig""-Screen",canvas.Screen,3_0_3_0_2_0_1,NA,NA,skipped,NA,2128738.1,NA,NA,2128735.6,2128738.3,2023-05-14T11:13:12Z,2128742.018,NULL,Kontrolle,kudhibiti,d,NA,NA,NA,NA,qt,NA,3,NA,NA,NA,NA,NA,NA,NA,NA,NA,NA,NA,NA,NA,NA,NA,NA,NA,NA,NA
eb57c,"""Falsch""-Screen",canvas.Screen,3_0_3_0_2_0_2,NA,NA,timeout,4995.9479999999,2128739.2,2128725.378,2128742.018,2133721.264,2133721.9,2023-05-14T11:13:17Z,2133737.966,NULL,Kontrolle,kudhibiti,d,NA,NA,NA,NA,qt,0,3,NA,NA,NA,NA,NA,NA,NA,NA,NA,NA,NA,NA,NA,NA,NA,NA,NA,NA,NA
eb57c,deep,flow.Sequence,3_0_3_0_2_0,NA,NA,completion,9275.5949999997,2124436.6,2124429.497,2124445.669,2133721.264,2133722.1,2023-05-14T11:13:17Z,2133737.966,NULL,Kontrolle,kudhibiti,d,NA,NA,NA,NA,qt,NA,3,NA,NA,NA,NA,NA,NA,NA,NA,NA,NA,NA,NA,NA,NA,NA,NA,NA,NA,NA
eb57c,shallow,flow.Sequence,3_0_3_0_2_1,NA,NA,skipped,NA,2133722.2,NA,NA,2133721.264,2133722.2,2023-05-14T11:13:17Z,2133737.966,NULL,Kontrolle,kudhibiti,d,NA,NA,NA,NA,qt,NA,3,NA,NA,NA,NA,NA,NA,NA,NA,NA,NA,NA,NA,NA,NA,NA,NA,NA,NA,NA
eb57c,task,flow.Sequence,3_0_3_0_2,NA,NA,completion,9275.5949999997,2124436.6,2124429.497,2124445.669,2133721.264,2133722.3,2023-05-14T11:13:17Z,2133737.966,NULL,Kontrolle,kudhibiti,d,NA,NA,NA,NA,qt,NA,3,NA,NA,NA,NA,NA,NA,NA,NA,NA,NA,NA,NA,NA,NA,NA,NA,NA,NA,NA
eb57c,Deep Question,html.Page,3_0_3_0_3_0_0,NA,NA,form submission,9376.133999994,2133722.5,2133721.264,2133737.966,2143114.1,2143114.3,2023-05-14T11:13:26Z,2143130.826,NULL,Betrüger,mdanganyifu,d,NA,NA,NA,k,NA,NA,3,NA,NA,NA,NA,NA,NA,NA,NA,NA,NA,NA,NA,NA,NA,NA,NA,NA,NA,NA
eb57c,"""Richtig""-Screen",canvas.Screen,3_0_3_0_3_0_1,NA,NA,skipped,NA,2143116.8,NA,NA,2143114.1,2143116.9,2023-05-14T11:13:26Z,2143130.826,NULL,Betrüger,mdanganyifu,d,NA,NA,NA,NA,qt,NA,3,NA,NA,NA,NA,NA,NA,NA,NA,NA,NA,NA,NA,NA,NA,NA,NA,NA,NA,NA
eb57c,"""Falsch""-Screen",canvas.Screen,3_0_3_0_3_0_2,NA,NA,timeout,4995.4870000002,2143117.5,2143097.516,2143130.826,2148110.049,2148111.1,2023-05-14T11:13:31Z,2148126.313,NULL,Betrüger,mdanganyifu,d,NA,NA,NA,NA,qt,0,3,NA,NA,NA,NA,NA,NA,NA,NA,NA,NA,NA,NA,NA,NA,NA,NA,NA,NA,NA
eb57c,deep,flow.Sequence,3_0_3_0_3_0,NA,NA,completion,14372.083,2133722.5,2133721.264,2133737.966,2148110.049,2148111.5,2023-05-14T11:13:31Z,2148126.313,NULL,Betrüger,mdanganyifu,d,NA,NA,NA,NA,qt,NA,3,NA,NA,NA,NA,NA,NA,NA,NA,NA,NA,NA,NA,NA,NA,NA,NA,NA,NA,NA
eb57c,shallow,flow.Sequence,3_0_3_0_3_1,NA,NA,skipped,NA,2148111.6,NA,NA,2148110.049,2148111.8,2023-05-14T11:13:31Z,2148126.313,NULL,Betrüger,mdanganyifu,d,NA,NA,NA,NA,qt,NA,3,NA,NA,NA,NA,NA,NA,NA,NA,NA,NA,NA,NA,NA,NA,NA,NA,NA,NA,NA
eb57c,task,flow.Sequence,3_0_3_0_3,NA,NA,completion,14372.083,2133722.4,2133721.264,2133737.966,2148110.049,2148112.1,2023-05-14T11:13:31Z,2148126.313,NULL,Betrüger,mdanganyifu,d,NA,NA,NA,NA,qt,NA,3,NA,NA,NA,NA,NA,NA,NA,NA,NA,NA,NA,NA,NA,NA,NA,NA,NA,NA,NA
eb57c,Deep Question,html.Page,3_0_3_0_4_0_0,NA,NA,form submission,7441.9870000118,2148112.4,2148110.049,2148126.313,2155568.3,2155568.6,2023-05-14T11:13:39Z,2155569.945,NULL,Gefährdung,kuhatarisha,d,NA,NA,NA,mdanganyifu,NA,NA,3,NA,NA,NA,NA,NA,NA,NA,NA,NA,NA,NA,NA,NA,NA,NA,NA,NA,NA,NA
eb57c,"""Richtig""-Screen",canvas.Screen,3_0_3_0_4_0_1,NA,NA,skipped,NA,2155571.3,NA,NA,2155568.3,2155571.4,2023-05-14T11:13:39Z,2155569.945,NULL,Gefährdung,kuhatarisha,d,NA,NA,NA,NA,qt,NA,3,NA,NA,NA,NA,NA,NA,NA,NA,NA,NA,NA,NA,NA,NA,NA,NA,NA,NA,NA
eb57c,"""Falsch""-Screen",canvas.Screen,3_0_3_0_4_0_2,NA,NA,timeout,4996.4939999999,2155571.9,2155553.892,2155569.945,2160549.716,2160550.8,2023-05-14T11:13:44Z,2160566.439,NULL,Gefährdung,kuhatarisha,d,NA,NA,NA,NA,qt,0,3,NA,NA,NA,NA,NA,NA,NA,NA,NA,NA,NA,NA,NA,NA,NA,NA,NA,NA,NA
eb57c,deep,flow.Sequence,3_0_3_0_4_0,NA,NA,completion,12423.403,2148112.3,2148110.049,2148126.313,2160549.716,2160551.2,2023-05-14T11:13:44Z,2160566.439,NULL,Gefährdung,kuhatarisha,d,NA,NA,NA,NA,qt,NA,3,NA,NA,NA,NA,NA,NA,NA,NA,NA,NA,NA,NA,NA,NA,NA,NA,NA,NA,NA
eb57c,shallow,flow.Sequence,3_0_3_0_4_1,NA,NA,skipped,NA,2160551.4,NA,NA,2160549.716,2160551.4,2023-05-14T11:13:44Z,2160566.439,NULL,Gefährdung,kuhatarisha,d,NA,NA,NA,NA,qt,NA,3,NA,NA,NA,NA,NA,NA,NA,NA,NA,NA,NA,NA,NA,NA,NA,NA,NA,NA,NA
eb57c,task,flow.Sequence,3_0_3_0_4,NA,NA,completion,12423.403,2148112.3,2148110.049,2148126.313,2160549.716,2160551.7,2023-05-14T11:13:44Z,2160566.439,NULL,Gefährdung,kuhatarisha,d,NA,NA,NA,NA,qt,NA,3,NA,NA,NA,NA,NA,NA,NA,NA,NA,NA,NA,NA,NA,NA,NA,NA,NA,NA,NA
eb57c,deep,flow.Sequence,3_0_3_0_5_0,NA,NA,skipped,NA,2160551.9,NA,NA,2160549.716,2160552,2023-05-14T11:13:44Z,2160566.439,NULL,Respekt,heshima,s,changamnao,upinzani,ufanisi,NA,qt,NA,3,NA,NA,NA,NA,NA,NA,NA,NA,NA,NA,NA,NA,NA,NA,NA,NA,NA,NA,NA
eb57c,Shallow Question,html.Page,3_0_3_0_5_1_0,NA,NA,form submission,3439.9610000062,2160552.1,2160549.716,2160566.439,2164006.4,2164006.4,2023-05-14T11:13:47Z,2164013.2,NULL,Respekt,heshima,s,changamnao,upinzani,ufanisi,heshima,NA,NA,3,NA,NA,NA,NA,NA,NA,NA,NA,NA,NA,NA,NA,NA,NA,NA,NA,NA,NA,NA
eb57c,"""Richtig""-Screen",canvas.Screen,3_0_3_0_5_1_1,NA,NA,timeout,4995.9849999999,2164008.3,2163996.631,2164013.2,2168992.325,2168993.3,2023-05-14T11:13:52Z,2169009.185,NULL,Respekt,heshima,s,changamnao,upinzani,ufanisi,NA,qt,1,3,NA,NA,NA,NA,NA,NA,NA,NA,NA,NA,NA,NA,NA,NA,NA,NA,NA,NA,NA
eb57c,"""Falsch""-Screen",canvas.Screen,3_0_3_0_5_1_2,NA,NA,skipped,NA,2168998.3,NA,NA,2168992.325,2168998.4,2023-05-14T11:13:52Z,2169009.185,NULL,Respekt,heshima,s,changamnao,upinzani,ufanisi,NA,qt,NA,3,NA,NA,NA,NA,NA,NA,NA,NA,NA,NA,NA,NA,NA,NA,NA,NA,NA,NA,NA
eb57c,shallow,flow.Sequence,3_0_3_0_5_1,NA,NA,completion,8425.8860000004,2160552.1,2160549.716,2160566.439,2168992.325,2168998.5,2023-05-14T11:13:52Z,2169009.185,NULL,Respekt,heshima,s,changamnao,upinzani,ufanisi,NA,qt,NA,3,NA,NA,NA,NA,NA,NA,NA,NA,NA,NA,NA,NA,NA,NA,NA,NA,NA,NA,NA
eb57c,task,flow.Sequence,3_0_3_0_5,NA,NA,completion,8425.8860000004,2160551.8,2160549.716,2160566.439,2168992.325,2168998.6,2023-05-14T11:13:52Z,2169009.185,NULL,Respekt,heshima,s,changamnao,upinzani,ufanisi,NA,qt,NA,3,NA,NA,NA,NA,NA,NA,NA,NA,NA,NA,NA,NA,NA,NA,NA,NA,NA,NA,NA
eb57c,Deep Question,html.Page,3_0_3_0_6_0_0,NA,NA,form submission,12582.615000012,2168998.7,2168992.325,2169009.185,2181591.8,2181592,2023-05-14T11:14:05Z,2181598.507,NULL,Stimmung,kinyongo,d,NA,NA,NA,kionygo,NA,NA,3,NA,NA,NA,NA,NA,NA,NA,NA,NA,NA,NA,NA,NA,NA,NA,NA,NA,NA,NA
eb57c,"""Richtig""-Screen",canvas.Screen,3_0_3_0_6_0_1,NA,NA,skipped,NA,2181594,NA,NA,2181591.8,2181594.2,2023-05-14T11:14:05Z,2181598.507,NULL,Stimmung,kinyongo,d,NA,NA,NA,NA,qt,NA,3,NA,NA,NA,NA,NA,NA,NA,NA,NA,NA,NA,NA,NA,NA,NA,NA,NA,NA,NA
eb57c,"""Falsch""-Screen",canvas.Screen,3_0_3_0_6_0_2,NA,NA,timeout,4996.5729999999,2181595.1,2181582.461,2181598.507,2186578.221,2186580.1,2023-05-14T11:14:10Z,2186595.08,NULL,Stimmung,kinyongo,d,NA,NA,NA,NA,qt,0,3,NA,NA,NA,NA,NA,NA,NA,NA,NA,NA,NA,NA,NA,NA,NA,NA,NA,NA,NA
eb57c,deep,flow.Sequence,3_0_3_0_6_0,NA,NA,completion,17569.036,2168998.6,2168992.325,2169009.185,2186578.221,2186580.3,2023-05-14T11:14:10Z,2186595.08,NULL,Stimmung,kinyongo,d,NA,NA,NA,NA,qt,NA,3,NA,NA,NA,NA,NA,NA,NA,NA,NA,NA,NA,NA,NA,NA,NA,NA,NA,NA,NA
eb57c,shallow,flow.Sequence,3_0_3_0_6_1,NA,NA,skipped,NA,2186580.4,NA,NA,2186578.221,2186580.5,2023-05-14T11:14:10Z,2186595.08,NULL,Stimmung,kinyongo,d,NA,NA,NA,NA,qt,NA,3,NA,NA,NA,NA,NA,NA,NA,NA,NA,NA,NA,NA,NA,NA,NA,NA,NA,NA,NA
eb57c,task,flow.Sequence,3_0_3_0_6,NA,NA,completion,17569.036,2168998.6,2168992.325,2169009.185,2186578.221,2186580.6,2023-05-14T11:14:10Z,2186595.08,NULL,Stimmung,kinyongo,d,NA,NA,NA,NA,qt,NA,3,NA,NA,NA,NA,NA,NA,NA,NA,NA,NA,NA,NA,NA,NA,NA,NA,NA,NA,NA
eb57c,deep,flow.Sequence,3_0_3_0_7_0,NA,NA,skipped,NA,2186580.7,NA,NA,2186578.221,2186580.7,2023-05-14T11:14:10Z,2186595.08,NULL,Orientierung,urekebisho,s,uelekeo,marekebisho,utunzaji,NA,qt,NA,3,NA,NA,NA,NA,NA,NA,NA,NA,NA,NA,NA,NA,NA,NA,NA,NA,NA,NA,NA
eb57c,Shallow Question,html.Page,3_0_3_0_7_1_0,NA,NA,form submission,3621.2200000118,2186580.8,2186578.221,2186595.08,2190216.3,2190216.5,2023-05-14T11:14:13Z,2190224.901,NULL,Orientierung,urekebisho,s,uelekeo,marekebisho,utunzaji,urekebisho,NA,NA,3,NA,NA,NA,NA,NA,NA,NA,NA,NA,NA,NA,NA,NA,NA,NA,NA,NA,NA,NA
eb57c,"""Richtig""-Screen",canvas.Screen,3_0_3_0_7_1_1,NA,NA,timeout,4995.7879999997,2190218.2,2190208.512,2190224.901,2195204.072,2195205.2,2023-05-14T11:14:18Z,2195220.689,NULL,Orientierung,urekebisho,s,uelekeo,marekebisho,utunzaji,NA,qt,1,3,NA,NA,NA,NA,NA,NA,NA,NA,NA,NA,NA,NA,NA,NA,NA,NA,NA,NA,NA
eb57c,"""Falsch""-Screen",canvas.Screen,3_0_3_0_7_1_2,NA,NA,skipped,NA,2195212.4,NA,NA,2195204.072,2195212.7,2023-05-14T11:14:18Z,2195220.689,NULL,Orientierung,urekebisho,s,uelekeo,marekebisho,utunzaji,NA,qt,NA,3,NA,NA,NA,NA,NA,NA,NA,NA,NA,NA,NA,NA,NA,NA,NA,NA,NA,NA,NA
eb57c,shallow,flow.Sequence,3_0_3_0_7_1,NA,NA,completion,8608.9920000001,2186580.8,2186578.221,2186595.08,2195204.072,2195213,2023-05-14T11:14:18Z,2195220.689,NULL,Orientierung,urekebisho,s,uelekeo,marekebisho,utunzaji,NA,qt,NA,3,NA,NA,NA,NA,NA,NA,NA,NA,NA,NA,NA,NA,NA,NA,NA,NA,NA,NA,NA
eb57c,task,flow.Sequence,3_0_3_0_7,NA,NA,completion,8608.9920000001,2186580.7,2186578.221,2186595.08,2195204.072,2195213.1,2023-05-14T11:14:18Z,2195220.689,NULL,Orientierung,urekebisho,s,uelekeo,marekebisho,utunzaji,NA,qt,NA,3,NA,NA,NA,NA,NA,NA,NA,NA,NA,NA,NA,NA,NA,NA,NA,NA,NA,NA,NA
eb57c,block,flow.Loop,3_0_3_0,NA,NA,completion,85479.664,2109711.4,2109708.109,2109724.408,2195204.072,2195213.3,2023-05-14T11:14:18Z,2195220.689,NULL,NA,NA,NA,NA,NA,NA,NA,qt,NA,3,NA,NA,NA,NA,NA,NA,NA,NA,NA,NA,NA,NA,NA,NA,NA,NA,NA,NA,NA
eb57c,weiter,canvas.Screen,3_0_3_1,sdf,keypress(Space),response,800.0109999883,2195213.5,2195204.072,2195220.689,2196020.7,2196021.5,2023-05-14T11:14:19Z,2196069.926,NULL,NA,NA,NA,NA,NA,NA,NA,qt,NA,3,NA,NA,NA,NA,NA,NA,NA,NA,NA,NA,NA,NA,NA,NA,NA,NA,NA,NA,NA
eb57c,check continue,flow.Sequence,3_0_3,NA,NA,completion,86296.291999988,2109711.3,2109708.109,2109724.408,2196020.7,2196021.8,2023-05-14T11:14:19Z,2196069.926,NULL,NA,NA,NA,NA,NA,NA,NA,qt,NA,3,NA,NA,NA,NA,NA,NA,NA,NA,NA,NA,NA,NA,NA,NA,NA,NA,NA,NA,NA
eb57c,deep,flow.Sequence,3_0_4_0_0_0,NA,NA,skipped,NA,2196068.1,NA,NA,2196020.7,2196068.2,2023-05-14T11:14:19Z,2196069.926,NULL,Respekt,heshima,s,changamnao,upinzani,ufanisi,NA,sd,NA,4,NA,NA,NA,NA,NA,NA,NA,NA,NA,NA,NA,NA,NA,NA,NA,NA,NA,NA,NA
eb57c,Shallow Question,html.Page,3_0_4_0_0_1_0,NA,NA,form submission,3045.1739999941,2196068.3,2196053.414,2196069.926,2199115.1,2199115.4,2023-05-14T11:14:22Z,2199117.452,NULL,Respekt,heshima,s,changamnao,upinzani,ufanisi,heshima,NA,NA,4,NA,NA,NA,NA,NA,NA,NA,NA,NA,NA,NA,NA,NA,NA,NA,NA,NA,NA,NA
eb57c,"""Richtig""-Screen",canvas.Screen,3_0_4_0_0_1_1,NA,NA,timeout,4996.0049999999,2199117.8,2199101.141,2199117.452,2204096.883,2204098.6,2023-05-14T11:14:27Z,2204113.457,NULL,Respekt,heshima,s,changamnao,upinzani,ufanisi,NA,sd,1,4,NA,NA,NA,NA,NA,NA,NA,NA,NA,NA,NA,NA,NA,NA,NA,NA,NA,NA,NA
eb57c,"""Falsch""-Screen",canvas.Screen,3_0_4_0_0_1_2,NA,NA,skipped,NA,2204103.7,NA,NA,2204096.883,2204104.1,2023-05-14T11:14:27Z,2204113.457,NULL,Respekt,heshima,s,changamnao,upinzani,ufanisi,NA,sd,NA,4,NA,NA,NA,NA,NA,NA,NA,NA,NA,NA,NA,NA,NA,NA,NA,NA,NA,NA,NA
eb57c,shallow,flow.Sequence,3_0_4_0_0_1,NA,NA,completion,8026.9569999999,2196068.3,2196053.414,2196069.926,2204096.883,2204104.4,2023-05-14T11:14:27Z,2204113.457,NULL,Respekt,heshima,s,changamnao,upinzani,ufanisi,NA,sd,NA,4,NA,NA,NA,NA,NA,NA,NA,NA,NA,NA,NA,NA,NA,NA,NA,NA,NA,NA,NA
eb57c,task,flow.Sequence,3_0_4_0_0,NA,NA,completion,8026.9569999999,2196068.1,2196053.414,2196069.926,2204096.883,2204104.6,2023-05-14T11:14:27Z,2204113.457,NULL,Respekt,heshima,s,changamnao,upinzani,ufanisi,NA,sd,NA,4,NA,NA,NA,NA,NA,NA,NA,NA,NA,NA,NA,NA,NA,NA,NA,NA,NA,NA,NA
eb57c,Deep Question,html.Page,3_0_4_0_1_0_0,NA,NA,form submission,7539.443000006,2204104.9,2204096.883,2204113.457,2211652.9,2211653.1,2023-05-14T11:14:35Z,2211657.093,NULL,Betrüger,mdanganyifu,d,NA,NA,NA,kudhibiti,NA,NA,4,NA,NA,NA,NA,NA,NA,NA,NA,NA,NA,NA,NA,NA,NA,NA,NA,NA,NA,NA
eb57c,"""Richtig""-Screen",canvas.Screen,3_0_4_0_1_0_1,NA,NA,skipped,NA,2211654.9,NA,NA,2211652.9,2211655.1,2023-05-14T11:14:35Z,2211657.093,NULL,Betrüger,mdanganyifu,d,NA,NA,NA,NA,sd,NA,4,NA,NA,NA,NA,NA,NA,NA,NA,NA,NA,NA,NA,NA,NA,NA,NA,NA,NA,NA
eb57c,"""Falsch""-Screen",canvas.Screen,3_0_4_0_1_0_2,NA,NA,timeout,4996.1490000002,2211655.6,2211640.59,2211657.093,2216636.97,2216638,2023-05-14T11:14:40Z,2216653.242,NULL,Betrüger,mdanganyifu,d,NA,NA,NA,NA,sd,0,4,NA,NA,NA,NA,NA,NA,NA,NA,NA,NA,NA,NA,NA,NA,NA,NA,NA,NA,NA
eb57c,deep,flow.Sequence,3_0_4_0_1_0,NA,NA,completion,12523.513,2204104.9,2204096.883,2204113.457,2216636.97,2216638.4,2023-05-14T11:14:40Z,2216653.242,NULL,Betrüger,mdanganyifu,d,NA,NA,NA,NA,sd,NA,4,NA,NA,NA,NA,NA,NA,NA,NA,NA,NA,NA,NA,NA,NA,NA,NA,NA,NA,NA
eb57c,shallow,flow.Sequence,3_0_4_0_1_1,NA,NA,skipped,NA,2216638.5,NA,NA,2216636.97,2216638.7,2023-05-14T11:14:40Z,2216653.242,NULL,Betrüger,mdanganyifu,d,NA,NA,NA,NA,sd,NA,4,NA,NA,NA,NA,NA,NA,NA,NA,NA,NA,NA,NA,NA,NA,NA,NA,NA,NA,NA
eb57c,task,flow.Sequence,3_0_4_0_1,NA,NA,completion,12523.513,2204104.8,2204096.883,2204113.457,2216636.97,2216638.9,2023-05-14T11:14:40Z,2216653.242,NULL,Betrüger,mdanganyifu,d,NA,NA,NA,NA,sd,NA,4,NA,NA,NA,NA,NA,NA,NA,NA,NA,NA,NA,NA,NA,NA,NA,NA,NA,NA,NA
eb57c,Deep Question,html.Page,3_0_4_0_2_0_0,NA,NA,form submission,4956.7579999999,2216639.1,2216636.97,2216653.242,2221610,2221610.2,2023-05-14T11:14:45Z,2221615.563,NULL,Gefährdung,kuhatarisha,d,NA,NA,NA,kudhibiti,NA,NA,4,NA,NA,NA,NA,NA,NA,NA,NA,NA,NA,NA,NA,NA,NA,NA,NA,NA,NA,NA
eb57c,"""Richtig""-Screen",canvas.Screen,3_0_4_0_2_0_1,NA,NA,skipped,NA,2221611.9,NA,NA,2221610,2221612,2023-05-14T11:14:45Z,2221615.563,NULL,Gefährdung,kuhatarisha,d,NA,NA,NA,NA,sd,NA,4,NA,NA,NA,NA,NA,NA,NA,NA,NA,NA,NA,NA,NA,NA,NA,NA,NA,NA,NA
eb57c,"""Falsch""-Screen",canvas.Screen,3_0_4_0_2_0_2,NA,NA,timeout,4996.568,2221612.5,2221599.639,2221615.563,2226595.222,2226596.4,2023-05-14T11:14:50Z,2226612.131,NULL,Gefährdung,kuhatarisha,d,NA,NA,NA,NA,sd,0,4,NA,NA,NA,NA,NA,NA,NA,NA,NA,NA,NA,NA,NA,NA,NA,NA,NA,NA,NA
eb57c,deep,flow.Sequence,3_0_4_0_2_0,NA,NA,completion,9941.98,2216639,2216636.97,2216653.242,2226595.222,2226596.9,2023-05-14T11:14:50Z,2226612.131,NULL,Gefährdung,kuhatarisha,d,NA,NA,NA,NA,sd,NA,4,NA,NA,NA,NA,NA,NA,NA,NA,NA,NA,NA,NA,NA,NA,NA,NA,NA,NA,NA
eb57c,shallow,flow.Sequence,3_0_4_0_2_1,NA,NA,skipped,NA,2226597,NA,NA,2226595.222,2226597.3,2023-05-14T11:14:50Z,2226612.131,NULL,Gefährdung,kuhatarisha,d,NA,NA,NA,NA,sd,NA,4,NA,NA,NA,NA,NA,NA,NA,NA,NA,NA,NA,NA,NA,NA,NA,NA,NA,NA,NA
eb57c,task,flow.Sequence,3_0_4_0_2,NA,NA,completion,9941.98,2216638.9,2216636.97,2216653.242,2226595.222,2226597.5,2023-05-14T11:14:50Z,2226612.131,NULL,Gefährdung,kuhatarisha,d,NA,NA,NA,NA,sd,NA,4,NA,NA,NA,NA,NA,NA,NA,NA,NA,NA,NA,NA,NA,NA,NA,NA,NA,NA,NA
eb57c,Deep Question,html.Page,3_0_4_0_3_0_0,NA,NA,form submission,4844.468999994,2226597.6,2226595.222,2226612.131,2231456.6,2231456.9,2023-05-14T11:14:54Z,2231457.506,NULL,Stimmung,kinyongo,d,NA,NA,NA,kinyongo,NA,NA,4,NA,NA,NA,NA,NA,NA,NA,NA,NA,NA,NA,NA,NA,NA,NA,NA,NA,NA,NA
eb57c,"""Richtig""-Screen",canvas.Screen,3_0_4_0_3_0_1,NA,NA,timeout,4996.6209999998,2231459.2,2231441.18,2231457.506,2236437.318,2236438.5,2023-05-14T11:14:59Z,2236454.127,NULL,Stimmung,kinyongo,d,NA,NA,NA,NA,sd,1,4,NA,NA,NA,NA,NA,NA,NA,NA,NA,NA,NA,NA,NA,NA,NA,NA,NA,NA,NA
eb57c,"""Falsch""-Screen",canvas.Screen,3_0_4_0_3_0_2,NA,NA,skipped,NA,2236441.5,NA,NA,2236437.318,2236441.6,2023-05-14T11:14:59Z,2236454.127,NULL,Stimmung,kinyongo,d,NA,NA,NA,NA,sd,NA,4,NA,NA,NA,NA,NA,NA,NA,NA,NA,NA,NA,NA,NA,NA,NA,NA,NA,NA,NA
eb57c,deep,flow.Sequence,3_0_4_0_3_0,NA,NA,completion,9825.1869999999,2226597.6,2226595.222,2226612.131,2236437.318,2236441.8,2023-05-14T11:14:59Z,2236454.127,NULL,Stimmung,kinyongo,d,NA,NA,NA,NA,sd,NA,4,NA,NA,NA,NA,NA,NA,NA,NA,NA,NA,NA,NA,NA,NA,NA,NA,NA,NA,NA
eb57c,shallow,flow.Sequence,3_0_4_0_3_1,NA,NA,skipped,NA,2236441.8,NA,NA,2236437.318,2236441.8,2023-05-14T11:14:59Z,2236454.127,NULL,Stimmung,kinyongo,d,NA,NA,NA,NA,sd,NA,4,NA,NA,NA,NA,NA,NA,NA,NA,NA,NA,NA,NA,NA,NA,NA,NA,NA,NA,NA
eb57c,task,flow.Sequence,3_0_4_0_3,NA,NA,completion,9825.1869999999,2226597.6,2226595.222,2226612.131,2236437.318,2236441.8,2023-05-14T11:14:59Z,2236454.127,NULL,Stimmung,kinyongo,d,NA,NA,NA,NA,sd,NA,4,NA,NA,NA,NA,NA,NA,NA,NA,NA,NA,NA,NA,NA,NA,NA,NA,NA,NA,NA
eb57c,deep,flow.Sequence,3_0_4_0_4_0,NA,NA,skipped,NA,2236441.9,NA,NA,2236437.318,2236442,2023-05-14T11:14:59Z,2236454.127,NULL,Orientierung,urekebisho,s,uelekeo,marekebisho,utunzaji,NA,sd,NA,4,NA,NA,NA,NA,NA,NA,NA,NA,NA,NA,NA,NA,NA,NA,NA,NA,NA,NA,NA
eb57c,Shallow Question,html.Page,3_0_4_0_4_1_0,NA,NA,form submission,5397.4729999942,2236442,2236437.318,2236454.127,2241851.6,2241851.8,2023-05-14T11:15:05Z,2241865.589,NULL,Orientierung,urekebisho,s,uelekeo,marekebisho,utunzaji,urekebisho,NA,NA,4,NA,NA,NA,NA,NA,NA,NA,NA,NA,NA,NA,NA,NA,NA,NA,NA,NA,NA,NA
eb57c,"""Richtig""-Screen",canvas.Screen,3_0_4_0_4_1_1,NA,NA,timeout,4995.9209999996,2241853.5,2241849.306,2241865.589,2246845.372,2246846.4,2023-05-14T11:15:10Z,2246861.51,NULL,Orientierung,urekebisho,s,uelekeo,marekebisho,utunzaji,NA,sd,1,4,NA,NA,NA,NA,NA,NA,NA,NA,NA,NA,NA,NA,NA,NA,NA,NA,NA,NA,NA
eb57c,"""Falsch""-Screen",canvas.Screen,3_0_4_0_4_1_2,NA,NA,skipped,NA,2246851.7,NA,NA,2246845.372,2246852.1,2023-05-14T11:15:10Z,2246861.51,NULL,Orientierung,urekebisho,s,uelekeo,marekebisho,utunzaji,NA,sd,NA,4,NA,NA,NA,NA,NA,NA,NA,NA,NA,NA,NA,NA,NA,NA,NA,NA,NA,NA,NA
eb57c,shallow,flow.Sequence,3_0_4_0_4_1,NA,NA,completion,10391.245,2236442,2236437.318,2236454.127,2246845.372,2246852.6,2023-05-14T11:15:10Z,2246861.51,NULL,Orientierung,urekebisho,s,uelekeo,marekebisho,utunzaji,NA,sd,NA,4,NA,NA,NA,NA,NA,NA,NA,NA,NA,NA,NA,NA,NA,NA,NA,NA,NA,NA,NA
eb57c,task,flow.Sequence,3_0_4_0_4,NA,NA,completion,10391.245,2236441.9,2236437.318,2236454.127,2246845.372,2246852.8,2023-05-14T11:15:10Z,2246861.51,NULL,Orientierung,urekebisho,s,uelekeo,marekebisho,utunzaji,NA,sd,NA,4,NA,NA,NA,NA,NA,NA,NA,NA,NA,NA,NA,NA,NA,NA,NA,NA,NA,NA,NA
eb57c,deep,flow.Sequence,3_0_4_0_5_0,NA,NA,skipped,NA,2246853,NA,NA,2246845.372,2246853.1,2023-05-14T11:15:10Z,2246861.51,NULL,Können,unaweza,s,kiongozi,bustani,mienendo,NA,sd,NA,4,NA,NA,NA,NA,NA,NA,NA,NA,NA,NA,NA,NA,NA,NA,NA,NA,NA,NA,NA
eb57c,Shallow Question,html.Page,3_0_4_0_5_1_0,NA,NA,form submission,4746.4900000002,2246853.3,2246845.372,2246861.51,2251608,2251608.2,2023-05-14T11:15:15Z,2251624.918,NULL,Können,unaweza,s,kiongozi,bustani,mienendo,unaweza,NA,NA,4,NA,NA,NA,NA,NA,NA,NA,NA,NA,NA,NA,NA,NA,NA,NA,NA,NA,NA,NA
eb57c,"""Richtig""-Screen",canvas.Screen,3_0_4_0_5_1_1,NA,NA,timeout,4995.9329999997,2251610.7,2251590.939,2251624.918,2256604.003,2256605,2023-05-14T11:15:20Z,2256620.851,NULL,Können,unaweza,s,kiongozi,bustani,mienendo,NA,sd,1,4,NA,NA,NA,NA,NA,NA,NA,NA,NA,NA,NA,NA,NA,NA,NA,NA,NA,NA,NA
eb57c,"""Falsch""-Screen",canvas.Screen,3_0_4_0_5_1_2,NA,NA,skipped,NA,2256609.4,NA,NA,2256604.003,2256609.5,2023-05-14T11:15:20Z,2256620.851,NULL,Können,unaweza,s,kiongozi,bustani,mienendo,NA,sd,NA,4,NA,NA,NA,NA,NA,NA,NA,NA,NA,NA,NA,NA,NA,NA,NA,NA,NA,NA,NA
eb57c,shallow,flow.Sequence,3_0_4_0_5_1,NA,NA,completion,9742.4930000002,2246853.2,2246845.372,2246861.51,2256604.003,2256609.7,2023-05-14T11:15:20Z,2256620.851,NULL,Können,unaweza,s,kiongozi,bustani,mienendo,NA,sd,NA,4,NA,NA,NA,NA,NA,NA,NA,NA,NA,NA,NA,NA,NA,NA,NA,NA,NA,NA,NA
eb57c,task,flow.Sequence,3_0_4_0_5,NA,NA,completion,9742.4930000002,2246852.9,2246845.372,2246861.51,2256604.003,2256609.7,2023-05-14T11:15:20Z,2256620.851,NULL,Können,unaweza,s,kiongozi,bustani,mienendo,NA,sd,NA,4,NA,NA,NA,NA,NA,NA,NA,NA,NA,NA,NA,NA,NA,NA,NA,NA,NA,NA,NA
eb57c,deep,flow.Sequence,3_0_4_0_6_0,NA,NA,skipped,NA,2256609.8,NA,NA,2256604.003,2256609.8,2023-05-14T11:15:20Z,2256620.851,NULL,Kreativität,ubunifu,s,mratibu,mwendelezo,makubaliano,NA,sd,NA,4,NA,NA,NA,NA,NA,NA,NA,NA,NA,NA,NA,NA,NA,NA,NA,NA,NA,NA,NA
eb57c,Shallow Question,html.Page,3_0_4_0_6_1_0,NA,NA,form submission,5485.0490000062,2256609.8,2256604.003,2256620.851,2262105.9,2262106.1,2023-05-14T11:15:25Z,2262115.857,NULL,Kreativität,ubunifu,s,mratibu,mwendelezo,makubaliano,ubunifu,NA,NA,4,NA,NA,NA,NA,NA,NA,NA,NA,NA,NA,NA,NA,NA,NA,NA,NA,NA,NA,NA
eb57c,"""Richtig""-Screen",canvas.Screen,3_0_4_0_6_1_1,NA,NA,timeout,4995.7570000002,2262107.9,2262098.997,2262115.857,2267095.434,2267096.6,2023-05-14T11:15:30Z,2267111.614,NULL,Kreativität,ubunifu,s,mratibu,mwendelezo,makubaliano,NA,sd,1,4,NA,NA,NA,NA,NA,NA,NA,NA,NA,NA,NA,NA,NA,NA,NA,NA,NA,NA,NA
eb57c,"""Falsch""-Screen",canvas.Screen,3_0_4_0_6_1_2,NA,NA,skipped,NA,2267100.9,NA,NA,2267095.434,2267101.1,2023-05-14T11:15:30Z,2267111.614,NULL,Kreativität,ubunifu,s,mratibu,mwendelezo,makubaliano,NA,sd,NA,4,NA,NA,NA,NA,NA,NA,NA,NA,NA,NA,NA,NA,NA,NA,NA,NA,NA,NA,NA
eb57c,shallow,flow.Sequence,3_0_4_0_6_1,NA,NA,completion,10474.583,2256609.8,2256604.003,2256620.851,2267095.434,2267101.2,2023-05-14T11:15:30Z,2267111.614,NULL,Kreativität,ubunifu,s,mratibu,mwendelezo,makubaliano,NA,sd,NA,4,NA,NA,NA,NA,NA,NA,NA,NA,NA,NA,NA,NA,NA,NA,NA,NA,NA,NA,NA
eb57c,task,flow.Sequence,3_0_4_0_6,NA,NA,completion,10474.583,2256609.8,2256604.003,2256620.851,2267095.434,2267101.3,2023-05-14T11:15:30Z,2267111.614,NULL,Kreativität,ubunifu,s,mratibu,mwendelezo,makubaliano,NA,sd,NA,4,NA,NA,NA,NA,NA,NA,NA,NA,NA,NA,NA,NA,NA,NA,NA,NA,NA,NA,NA
eb57c,Deep Question,html.Page,3_0_4_0_7_0_0,NA,NA,form submission,5384.985999994,2267101.4,2267095.434,2267111.614,2272496.6,2272496.7,2023-05-14T11:15:35Z,2272507.443,NULL,Kontrolle,kudhibiti,d,NA,NA,NA,kudhibiti,NA,NA,4,NA,NA,NA,NA,NA,NA,NA,NA,NA,NA,NA,NA,NA,NA,NA,NA,NA,NA,NA
eb57c,"""Richtig""-Screen",canvas.Screen,3_0_4_0_7_0_1,NA,NA,timeout,4995.531,2272498.5,2272490.978,2272507.443,2277486.844,2277487.9,2023-05-14T11:15:40Z,2277502.974,NULL,Kontrolle,kudhibiti,d,NA,NA,NA,NA,sd,1,4,NA,NA,NA,NA,NA,NA,NA,NA,NA,NA,NA,NA,NA,NA,NA,NA,NA,NA,NA
eb57c,"""Falsch""-Screen",canvas.Screen,3_0_4_0_7_0_2,NA,NA,skipped,NA,2277492.3,NA,NA,2277486.844,2277492.4,2023-05-14T11:15:40Z,2277502.974,NULL,Kontrolle,kudhibiti,d,NA,NA,NA,NA,sd,NA,4,NA,NA,NA,NA,NA,NA,NA,NA,NA,NA,NA,NA,NA,NA,NA,NA,NA,NA,NA
eb57c,deep,flow.Sequence,3_0_4_0_7_0,NA,NA,completion,10375.23,2267101.4,2267095.434,2267111.614,2277486.844,2277492.5,2023-05-14T11:15:40Z,2277502.974,NULL,Kontrolle,kudhibiti,d,NA,NA,NA,NA,sd,NA,4,NA,NA,NA,NA,NA,NA,NA,NA,NA,NA,NA,NA,NA,NA,NA,NA,NA,NA,NA
eb57c,shallow,flow.Sequence,3_0_4_0_7_1,NA,NA,skipped,NA,2277492.6,NA,NA,2277486.844,2277492.6,2023-05-14T11:15:40Z,2277502.974,NULL,Kontrolle,kudhibiti,d,NA,NA,NA,NA,sd,NA,4,NA,NA,NA,NA,NA,NA,NA,NA,NA,NA,NA,NA,NA,NA,NA,NA,NA,NA,NA
eb57c,task,flow.Sequence,3_0_4_0_7,NA,NA,completion,10375.23,2267101.4,2267095.434,2267111.614,2277486.844,2277492.7,2023-05-14T11:15:40Z,2277502.974,NULL,Kontrolle,kudhibiti,d,NA,NA,NA,NA,sd,NA,4,NA,NA,NA,NA,NA,NA,NA,NA,NA,NA,NA,NA,NA,NA,NA,NA,NA,NA,NA
eb57c,block,flow.Loop,3_0_4_0,NA,NA,completion,81416.918,2196068.1,2196053.414,2196069.926,2277486.844,2277492.8,2023-05-14T11:15:40Z,2277502.974,NULL,NA,NA,NA,NA,NA,NA,NA,sd,NA,4,NA,NA,NA,NA,NA,NA,NA,NA,NA,NA,NA,NA,NA,NA,NA,NA,NA,NA,NA
eb57c,weiter,canvas.Screen,3_0_4_1,sdf,keypress(Space),response,1175.1259999941,2277492.8,2277486.844,2277502.974,2278678.1,2278679.2,2023-05-14T11:15:42Z,2279169.648,NULL,NA,NA,NA,NA,NA,NA,NA,sd,NA,4,NA,NA,NA,NA,NA,NA,NA,NA,NA,NA,NA,NA,NA,NA,NA,NA,NA,NA,NA
eb57c,check continue,flow.Sequence,3_0_4,NA,NA,completion,82608.173999994,2196068.1,2196053.414,2196069.926,2278678.1,2278679.5,2023-05-14T11:15:42Z,2279169.648,NULL,NA,NA,NA,NA,NA,NA,NA,sd,NA,4,NA,NA,NA,NA,NA,NA,NA,NA,NA,NA,NA,NA,NA,NA,NA,NA,NA,NA,NA
eb57c,check continue,flow.Sequence,3_0_5,NA,NA,skipped,NA,2278705.9,NA,NA,2278678.1,2278706.1,2023-05-14T11:15:42Z,2279169.648,NULL,NA,NA,NA,NA,NA,NA,NA,sdf,NA,5,NA,NA,NA,NA,NA,NA,NA,NA,NA,NA,NA,NA,NA,NA,NA,NA,NA,NA,NA
eb57c,check continue,flow.Sequence,3_0_6,NA,NA,skipped,NA,2278724.5,NA,NA,2278678.1,2278724.6,2023-05-14T11:15:42Z,2279169.648,NULL,NA,NA,NA,NA,NA,NA,NA,dfs,NA,6,NA,NA,NA,NA,NA,NA,NA,NA,NA,NA,NA,NA,NA,NA,NA,NA,NA,NA,NA
eb57c,check continue,flow.Sequence,3_0_7,NA,NA,skipped,NA,2278743,NA,NA,2278678.1,2278743.2,2023-05-14T11:15:42Z,2279169.648,NULL,NA,NA,NA,NA,NA,NA,NA,df,NA,7,NA,NA,NA,NA,NA,NA,NA,NA,NA,NA,NA,NA,NA,NA,NA,NA,NA,NA,NA
eb57c,check continue,flow.Sequence,3_0_8,NA,NA,skipped,NA,2278767.8,NA,NA,2278678.1,2278767.8,2023-05-14T11:15:42Z,2279169.648,NULL,NA,NA,NA,NA,NA,NA,NA,dfs,NA,8,NA,NA,NA,NA,NA,NA,NA,NA,NA,NA,NA,NA,NA,NA,NA,NA,NA,NA,NA
eb57c,check continue,flow.Sequence,3_0_9,NA,NA,skipped,NA,2278792.1,NA,NA,2278678.1,2278792.3,2023-05-14T11:15:42Z,2279169.648,NULL,NA,NA,NA,NA,NA,NA,NA,dsf,NA,9,NA,NA,NA,NA,NA,NA,NA,NA,NA,NA,NA,NA,NA,NA,NA,NA,NA,NA,NA
eb57c,check continue,flow.Sequence,3_0_10,NA,NA,skipped,NA,2278820.5,NA,NA,2278678.1,2278820.7,2023-05-14T11:15:42Z,2279169.648,NULL,NA,NA,NA,NA,NA,NA,NA,df,NA,10,NA,NA,NA,NA,NA,NA,NA,NA,NA,NA,NA,NA,NA,NA,NA,NA,NA,NA,NA
eb57c,check continue,flow.Sequence,3_0_11,NA,NA,skipped,NA,2278836.8,NA,NA,2278678.1,2278836.8,2023-05-14T11:15:42Z,2279169.648,NULL,NA,NA,NA,NA,NA,NA,NA,dfs,NA,11,NA,NA,NA,NA,NA,NA,NA,NA,NA,NA,NA,NA,NA,NA,NA,NA,NA,NA,NA
eb57c,check continue,flow.Sequence,3_0_12,NA,NA,skipped,NA,2278855,NA,NA,2278678.1,2278855.1,2023-05-14T11:15:42Z,2279169.648,NULL,NA,NA,NA,NA,NA,NA,NA,dsf,NA,12,NA,NA,NA,NA,NA,NA,NA,NA,NA,NA,NA,NA,NA,NA,NA,NA,NA,NA,NA
eb57c,check continue,flow.Sequence,3_0_13,NA,NA,skipped,NA,2278874.2,NA,NA,2278678.1,2278874.3,2023-05-14T11:15:42Z,2279169.648,NULL,NA,NA,NA,NA,NA,NA,NA,dsf,NA,13,NA,NA,NA,NA,NA,NA,NA,NA,NA,NA,NA,NA,NA,NA,NA,NA,NA,NA,NA
eb57c,check continue,flow.Sequence,3_0_14,NA,NA,skipped,NA,2278894.2,NA,NA,2278678.1,2278894.2,2023-05-14T11:15:42Z,2279169.648,NULL,NA,NA,NA,NA,NA,NA,NA,NA,NA,14,NA,NA,NA,NA,NA,NA,NA,NA,NA,NA,NA,NA,NA,NA,NA,NA,NA,NA,NA
eb57c,check continue,flow.Sequence,3_0_15,NA,NA,skipped,NA,2278912.2,NA,NA,2278678.1,2278912.3,2023-05-14T11:15:42Z,2279169.648,NULL,NA,NA,NA,NA,NA,NA,NA,NA,NA,15,NA,NA,NA,NA,NA,NA,NA,NA,NA,NA,NA,NA,NA,NA,NA,NA,NA,NA,NA
eb57c,check continue,flow.Sequence,3_0_16,NA,NA,skipped,NA,2278928.6,NA,NA,2278678.1,2278928.7,2023-05-14T11:15:42Z,2279169.648,NULL,NA,NA,NA,NA,NA,NA,NA,NA,NA,16,NA,NA,NA,NA,NA,NA,NA,NA,NA,NA,NA,NA,NA,NA,NA,NA,NA,NA,NA
eb57c,check continue,flow.Sequence,3_0_17,NA,NA,skipped,NA,2278943.6,NA,NA,2278678.1,2278943.6,2023-05-14T11:15:42Z,2279169.648,NULL,NA,NA,NA,NA,NA,NA,NA,NA,NA,17,NA,NA,NA,NA,NA,NA,NA,NA,NA,NA,NA,NA,NA,NA,NA,NA,NA,NA,NA
eb57c,check continue,flow.Sequence,3_0_18,NA,NA,skipped,NA,2278958.6,NA,NA,2278678.1,2278958.7,2023-05-14T11:15:42Z,2279169.648,NULL,NA,NA,NA,NA,NA,NA,NA,NA,NA,18,NA,NA,NA,NA,NA,NA,NA,NA,NA,NA,NA,NA,NA,NA,NA,NA,NA,NA,NA
eb57c,check continue,flow.Sequence,3_0_19,NA,NA,skipped,NA,2278975.8,NA,NA,2278678.1,2278975.9,2023-05-14T11:15:42Z,2279169.648,NULL,NA,NA,NA,NA,NA,NA,NA,NA,NA,19,NA,NA,NA,NA,NA,NA,NA,NA,NA,NA,NA,NA,NA,NA,NA,NA,NA,NA,NA
eb57c,check continue,flow.Sequence,3_0_20,NA,NA,skipped,NA,2278992,NA,NA,2278678.1,2278992.2,2023-05-14T11:15:42Z,2279169.648,NULL,NA,NA,NA,NA,NA,NA,NA,NA,NA,20,NA,NA,NA,NA,NA,NA,NA,NA,NA,NA,NA,NA,NA,NA,NA,NA,NA,NA,NA
eb57c,check continue,flow.Sequence,3_0_21,NA,NA,skipped,NA,2279009.1,NA,NA,2278678.1,2279009.2,2023-05-14T11:15:42Z,2279169.648,NULL,NA,NA,NA,NA,NA,NA,NA,NA,NA,21,NA,NA,NA,NA,NA,NA,NA,NA,NA,NA,NA,NA,NA,NA,NA,NA,NA,NA,NA
eb57c,check continue,flow.Sequence,3_0_22,NA,NA,skipped,NA,2279025,NA,NA,2278678.1,2279025,2023-05-14T11:15:42Z,2279169.648,NULL,NA,NA,NA,NA,NA,NA,NA,NA,NA,22,NA,NA,NA,NA,NA,NA,NA,NA,NA,NA,NA,NA,NA,NA,NA,NA,NA,NA,NA
eb57c,check continue,flow.Sequence,3_0_23,NA,NA,skipped,NA,2279041.7,NA,NA,2278678.1,2279041.8,2023-05-14T11:15:42Z,2279169.648,NULL,NA,NA,NA,NA,NA,NA,NA,NA,NA,23,NA,NA,NA,NA,NA,NA,NA,NA,NA,NA,NA,NA,NA,NA,NA,NA,NA,NA,NA
eb57c,check continue,flow.Sequence,3_0_24,NA,NA,skipped,NA,2279056.4,NA,NA,2278678.1,2279056.6,2023-05-14T11:15:42Z,2279169.648,NULL,NA,NA,NA,NA,NA,NA,NA,NA,NA,24,NA,NA,NA,NA,NA,NA,NA,NA,NA,NA,NA,NA,NA,NA,NA,NA,NA,NA,NA
eb57c,check continue,flow.Sequence,3_0_25,NA,NA,skipped,NA,2279072.2,NA,NA,2278678.1,2279072.2,2023-05-14T11:15:42Z,2279169.648,NULL,NA,NA,NA,NA,NA,NA,NA,NA,NA,25,NA,NA,NA,NA,NA,NA,NA,NA,NA,NA,NA,NA,NA,NA,NA,NA,NA,NA,NA
eb57c,check continue,flow.Sequence,3_0_26,NA,NA,skipped,NA,2279093.5,NA,NA,2278678.1,2279093.6,2023-05-14T11:15:42Z,2279169.648,NULL,NA,NA,NA,NA,NA,NA,NA,NA,NA,26,NA,NA,NA,NA,NA,NA,NA,NA,NA,NA,NA,NA,NA,NA,NA,NA,NA,NA,NA
eb57c,check continue,flow.Sequence,3_0_27,NA,NA,skipped,NA,2279115.6,NA,NA,2278678.1,2279115.8,2023-05-14T11:15:42Z,2279169.648,NULL,NA,NA,NA,NA,NA,NA,NA,NA,NA,27,NA,NA,NA,NA,NA,NA,NA,NA,NA,NA,NA,NA,NA,NA,NA,NA,NA,NA,NA
eb57c,check continue,flow.Sequence,3_0_28,NA,NA,skipped,NA,2279134.1,NA,NA,2278678.1,2279134.2,2023-05-14T11:15:42Z,2279169.648,NULL,NA,NA,NA,NA,NA,NA,NA,NA,NA,28,NA,NA,NA,NA,NA,NA,NA,NA,NA,NA,NA,NA,NA,NA,NA,NA,NA,NA,NA
eb57c,check continue,flow.Sequence,3_0_29,NA,NA,skipped,NA,2279150.1,NA,NA,2278678.1,2279150.2,2023-05-14T11:15:42Z,2279169.648,NULL,NA,NA,NA,NA,NA,NA,NA,NA,NA,29,NA,NA,NA,NA,NA,NA,NA,NA,NA,NA,NA,NA,NA,NA,NA,NA,NA,NA,NA
eb57c,until continue,flow.Loop,3_0,NA,NA,completion,426491.52099999,1852155.2,1852169.778,1852186.579,2278678.1,2279150.3,2023-05-14T11:15:42Z,2279169.648,NULL,NA,NA,NA,NA,NA,NA,NA,NA,NA,NA,NA,NA,NA,NA,NA,NA,NA,NA,NA,NA,NA,NA,NA,NA,NA,NA,NA,NA,NA
eb57c,block 1,flow.Sequence,3,NA,NA,completion,426491.52099999,1852155.2,1852169.778,1852186.579,2278678.1,2279150.3,2023-05-14T11:15:42Z,2279169.648,NULL,NA,NA,NA,NA,NA,NA,NA,NA,NA,NA,NA,NA,NA,NA,NA,NA,NA,NA,NA,NA,NA,NA,NA,NA,NA,NA,NA,NA,NA
eb57c,1.Part Over,canvas.Screen,4,NA,keypress(Space),response,2169.352,2279150.4,2279134.887,2279169.648,2281339,2281340.3,2023-05-14T11:15:44Z,2281416.658,NULL,NA,NA,NA,NA,NA,NA,NA,NA,NA,NA,NA,NA,NA,NA,NA,NA,NA,NA,NA,NA,NA,NA,NA,NA,NA,NA,NA,NA,NA
eb57c,deep,flow.Sequence,5_0_0_0_0_0,NA,NA,skipped,NA,2281400.5,NA,NA,2281339,2281400.7,2023-05-14T11:15:44Z,2281416.658,NULL,Niveau,kiwango,s,usimamizi,mwamali,mshairi,NA,sdf,NA,0,NA,NA,NA,NA,NA,NA,NA,NA,NA,NA,NA,NA,NA,NA,NA,NA,NA,NA,NA
eb57c,Shallow Question,html.Page,5_0_0_0_0_1_0,NA,NA,form submission,3136.1420000121,2281400.8,2281399.684,2281416.658,2284552.8,2284553,2023-05-14T11:15:48Z,2284564.267,NULL,Niveau,kiwango,s,usimamizi,mwamali,mshairi,kiwango,NA,NA,0,NA,NA,NA,NA,NA,NA,NA,NA,NA,NA,NA,NA,NA,NA,NA,NA,NA,NA,NA
eb57c,"""Richtig""-Screen",canvas.Screen,5_0_0_0_0_1_1,NA,NA,timeout,4995.5099999998,2284555.1,2284547.375,2284564.267,2289543.254,2289544.3,2023-05-14T11:15:53Z,2289559.777,NULL,Niveau,kiwango,s,usimamizi,mwamali,mshairi,NA,sdf,1,0,NA,NA,NA,NA,NA,NA,NA,NA,NA,NA,NA,NA,NA,NA,NA,NA,NA,NA,NA
eb57c,"""Falsch""-Screen",canvas.Screen,5_0_0_0_0_1_2,NA,NA,skipped,NA,2289549.6,NA,NA,2289543.254,2289549.9,2023-05-14T11:15:53Z,2289559.777,NULL,Niveau,kiwango,s,usimamizi,mwamali,mshairi,NA,sdf,NA,0,NA,NA,NA,NA,NA,NA,NA,NA,NA,NA,NA,NA,NA,NA,NA,NA,NA,NA,NA
eb57c,shallow,flow.Sequence,5_0_0_0_0_1,NA,NA,completion,8126.5960000004,2281400.8,2281399.684,2281416.658,2289543.254,2289550.1,2023-05-14T11:15:53Z,2289559.777,NULL,Niveau,kiwango,s,usimamizi,mwamali,mshairi,NA,sdf,NA,0,NA,NA,NA,NA,NA,NA,NA,NA,NA,NA,NA,NA,NA,NA,NA,NA,NA,NA,NA
eb57c,task,flow.Sequence,5_0_0_0_0,NA,NA,completion,8126.5960000004,2281400.5,2281399.684,2281416.658,2289543.254,2289550.3,2023-05-14T11:15:53Z,2289559.777,NULL,Niveau,kiwango,s,usimamizi,mwamali,mshairi,NA,sdf,NA,0,NA,NA,NA,NA,NA,NA,NA,NA,NA,NA,NA,NA,NA,NA,NA,NA,NA,NA,NA
eb57c,Deep Question,html.Page,5_0_0_0_1_0_0,NA,NA,form submission,3641.0230000122,2289550.5,2289543.254,2289559.777,2293200.8,2293201,2023-05-14T11:15:56Z,2293206.62,NULL,Körper,kiwiliwili,d,NA,NA,NA,bodyoyd,NA,NA,0,NA,NA,NA,NA,NA,NA,NA,NA,NA,NA,NA,NA,NA,NA,NA,NA,NA,NA,NA
eb57c,"""Richtig""-Screen",canvas.Screen,5_0_0_0_1_0_1,NA,NA,skipped,NA,2293202,NA,NA,2293200.8,2293202.1,2023-05-14T11:15:56Z,2293206.62,NULL,Körper,kiwiliwili,d,NA,NA,NA,NA,sdf,NA,0,NA,NA,NA,NA,NA,NA,NA,NA,NA,NA,NA,NA,NA,NA,NA,NA,NA,NA,NA
eb57c,"""Falsch""-Screen",canvas.Screen,5_0_0_0_1_0_2,NA,NA,timeout,4996.659,2293202.9,2293190.224,2293206.62,2298186.431,2298187.5,2023-05-14T11:16:01Z,2298203.279,NULL,Körper,kiwiliwili,d,NA,NA,NA,NA,sdf,0,0,NA,NA,NA,NA,NA,NA,NA,NA,NA,NA,NA,NA,NA,NA,NA,NA,NA,NA,NA
eb57c,deep,flow.Sequence,5_0_0_0_1_0,NA,NA,completion,8626.6540000001,2289550.5,2289543.254,2289559.777,2298186.431,2298187.9,2023-05-14T11:16:01Z,2298203.279,NULL,Körper,kiwiliwili,d,NA,NA,NA,NA,sdf,NA,0,NA,NA,NA,NA,NA,NA,NA,NA,NA,NA,NA,NA,NA,NA,NA,NA,NA,NA,NA
eb57c,shallow,flow.Sequence,5_0_0_0_1_1,NA,NA,skipped,NA,2298188,NA,NA,2298186.431,2298188.2,2023-05-14T11:16:01Z,2298203.279,NULL,Körper,kiwiliwili,d,NA,NA,NA,NA,sdf,NA,0,NA,NA,NA,NA,NA,NA,NA,NA,NA,NA,NA,NA,NA,NA,NA,NA,NA,NA,NA
eb57c,task,flow.Sequence,5_0_0_0_1,NA,NA,completion,8626.6540000001,2289550.4,2289543.254,2289559.777,2298186.431,2298188.3,2023-05-14T11:16:01Z,2298203.279,NULL,Körper,kiwiliwili,d,NA,NA,NA,NA,sdf,NA,0,NA,NA,NA,NA,NA,NA,NA,NA,NA,NA,NA,NA,NA,NA,NA,NA,NA,NA,NA
eb57c,Deep Question,html.Page,5_0_0_0_2_0_0,NA,NA,form submission,2882.5210000118,2298188.7,2298186.431,2298203.279,2301085.8,2301086,2023-05-14T11:16:04Z,2301100.128,NULL,Übersicht,kilindo,d,NA,NA,NA,kol,NA,NA,0,NA,NA,NA,NA,NA,NA,NA,NA,NA,NA,NA,NA,NA,NA,NA,NA,NA,NA,NA
eb57c,"""Richtig""-Screen",canvas.Screen,5_0_0_0_2_0_1,NA,NA,skipped,NA,2301088,NA,NA,2301085.8,2301088.1,2023-05-14T11:16:04Z,2301100.128,NULL,Übersicht,kilindo,d,NA,NA,NA,NA,sdf,NA,0,NA,NA,NA,NA,NA,NA,NA,NA,NA,NA,NA,NA,NA,NA,NA,NA,NA,NA,NA
eb57c,"""Falsch""-Screen",canvas.Screen,5_0_0_0_2_0_2,NA,NA,timeout,4996.432,2301088.7,2301083.597,2301100.128,2306079.963,2306081,2023-05-14T11:16:09Z,2306096.56,NULL,Übersicht,kilindo,d,NA,NA,NA,NA,sdf,0,0,NA,NA,NA,NA,NA,NA,NA,NA,NA,NA,NA,NA,NA,NA,NA,NA,NA,NA,NA
eb57c,deep,flow.Sequence,5_0_0_0_2_0,NA,NA,completion,7876.6839999999,2298188.7,2298186.431,2298203.279,2306079.963,2306081.4,2023-05-14T11:16:09Z,2306096.56,NULL,Übersicht,kilindo,d,NA,NA,NA,NA,sdf,NA,0,NA,NA,NA,NA,NA,NA,NA,NA,NA,NA,NA,NA,NA,NA,NA,NA,NA,NA,NA
eb57c,shallow,flow.Sequence,5_0_0_0_2_1,NA,NA,skipped,NA,2306081.6,NA,NA,2306079.963,2306081.8,2023-05-14T11:16:09Z,2306096.56,NULL,Übersicht,kilindo,d,NA,NA,NA,NA,sdf,NA,0,NA,NA,NA,NA,NA,NA,NA,NA,NA,NA,NA,NA,NA,NA,NA,NA,NA,NA,NA
eb57c,task,flow.Sequence,5_0_0_0_2,NA,NA,completion,7876.6839999999,2298188.6,2298186.431,2298203.279,2306079.963,2306082,2023-05-14T11:16:09Z,2306096.56,NULL,Übersicht,kilindo,d,NA,NA,NA,NA,sdf,NA,0,NA,NA,NA,NA,NA,NA,NA,NA,NA,NA,NA,NA,NA,NA,NA,NA,NA,NA,NA
eb57c,Deep Question,html.Page,5_0_0_0_3_0_0,NA,NA,form submission,5416.039999994,2306082.3,2306079.963,2306096.56,2311512.6,2311512.9,2023-05-14T11:16:15Z,2311524.92,NULL,Entwicklung,maendeleo,d,NA,NA,NA,lol,NA,NA,0,NA,NA,NA,NA,NA,NA,NA,NA,NA,NA,NA,NA,NA,NA,NA,NA,NA,NA,NA
eb57c,"""Richtig""-Screen",canvas.Screen,5_0_0_0_3_0_1,NA,NA,skipped,NA,2311515.6,NA,NA,2311512.6,2311515.7,2023-05-14T11:16:15Z,2311524.92,NULL,Entwicklung,maendeleo,d,NA,NA,NA,NA,sdf,NA,0,NA,NA,NA,NA,NA,NA,NA,NA,NA,NA,NA,NA,NA,NA,NA,NA,NA,NA,NA
eb57c,"""Falsch""-Screen",canvas.Screen,5_0_0_0_3_0_2,NA,NA,timeout,4996.284,2311516.6,2311508.865,2311524.92,2316504.536,2316505.1,2023-05-14T11:16:19Z,2316521.204,NULL,Entwicklung,maendeleo,d,NA,NA,NA,NA,sdf,0,0,NA,NA,NA,NA,NA,NA,NA,NA,NA,NA,NA,NA,NA,NA,NA,NA,NA,NA,NA
eb57c,deep,flow.Sequence,5_0_0_0_3_0,NA,NA,completion,10407.976,2306082.2,2306079.963,2306096.56,2316504.536,2316505.2,2023-05-14T11:16:19Z,2316521.204,NULL,Entwicklung,maendeleo,d,NA,NA,NA,NA,sdf,NA,0,NA,NA,NA,NA,NA,NA,NA,NA,NA,NA,NA,NA,NA,NA,NA,NA,NA,NA,NA
eb57c,shallow,flow.Sequence,5_0_0_0_3_1,NA,NA,skipped,NA,2316505.3,NA,NA,2316504.536,2316505.4,2023-05-14T11:16:20Z,2316521.204,NULL,Entwicklung,maendeleo,d,NA,NA,NA,NA,sdf,NA,0,NA,NA,NA,NA,NA,NA,NA,NA,NA,NA,NA,NA,NA,NA,NA,NA,NA,NA,NA
eb57c,task,flow.Sequence,5_0_0_0_3,NA,NA,completion,10407.976,2306082.1,2306079.963,2306096.56,2316504.536,2316505.5,2023-05-14T11:16:20Z,2316521.204,NULL,Entwicklung,maendeleo,d,NA,NA,NA,NA,sdf,NA,0,NA,NA,NA,NA,NA,NA,NA,NA,NA,NA,NA,NA,NA,NA,NA,NA,NA,NA,NA
eb57c,deep,flow.Sequence,5_0_0_0_4_0,NA,NA,skipped,NA,2316505.6,NA,NA,2316504.536,2316505.6,2023-05-14T11:16:20Z,2316521.204,NULL,Papier,karatasi,s,uchambuzi,usalama,kukataliwa,NA,sdf,NA,0,NA,NA,NA,NA,NA,NA,NA,NA,NA,NA,NA,NA,NA,NA,NA,NA,NA,NA,NA
eb57c,Shallow Question,html.Page,5_0_0_0_4_1_0,NA,NA,form submission,3261.7960000001,2316505.6,2316504.536,2316521.204,2319783,2319783.2,2023-05-14T11:16:23Z,2319784.783,NULL,Papier,karatasi,s,uchambuzi,usalama,kukataliwa,usalama,NA,NA,0,NA,NA,NA,NA,NA,NA,NA,NA,NA,NA,NA,NA,NA,NA,NA,NA,NA,NA,NA
eb57c,"""Richtig""-Screen",canvas.Screen,5_0_0_0_4_1_1,NA,NA,skipped,NA,2319785.3,NA,NA,2319783,2319785.4,2023-05-14T11:16:23Z,2319784.783,NULL,Papier,karatasi,s,uchambuzi,usalama,kukataliwa,NA,sdf,NA,0,NA,NA,NA,NA,NA,NA,NA,NA,NA,NA,NA,NA,NA,NA,NA,NA,NA,NA,NA
eb57c,"""Falsch""-Screen",canvas.Screen,5_0_0_0_4_1_2,NA,NA,timeout,4995.855,2319786.1,2319768.622,2319784.783,2324764.093,2324765,2023-05-14T11:16:28Z,2324780.638,NULL,Papier,karatasi,s,uchambuzi,usalama,kukataliwa,NA,sdf,0,0,NA,NA,NA,NA,NA,NA,NA,NA,NA,NA,NA,NA,NA,NA,NA,NA,NA,NA,NA
eb57c,shallow,flow.Sequence,5_0_0_0_4_1,NA,NA,completion,8242.889,2316505.6,2316504.536,2316521.204,2324764.093,2324765.4,2023-05-14T11:16:28Z,2324780.638,NULL,Papier,karatasi,s,uchambuzi,usalama,kukataliwa,NA,sdf,NA,0,NA,NA,NA,NA,NA,NA,NA,NA,NA,NA,NA,NA,NA,NA,NA,NA,NA,NA,NA
eb57c,task,flow.Sequence,5_0_0_0_4,NA,NA,completion,8242.889,2316505.5,2316504.536,2316521.204,2324764.093,2324765.7,2023-05-14T11:16:28Z,2324780.638,NULL,Papier,karatasi,s,uchambuzi,usalama,kukataliwa,NA,sdf,NA,0,NA,NA,NA,NA,NA,NA,NA,NA,NA,NA,NA,NA,NA,NA,NA,NA,NA,NA,NA
eb57c,deep,flow.Sequence,5_0_0_0_5_0,NA,NA,skipped,NA,2324765.8,NA,NA,2324764.093,2324766.1,2023-05-14T11:16:28Z,2324780.638,NULL,Lawine,banguko,s,maambukizi,usuluhishi,chekechea,NA,sdf,NA,0,NA,NA,NA,NA,NA,NA,NA,NA,NA,NA,NA,NA,NA,NA,NA,NA,NA,NA,NA
eb57c,Shallow Question,html.Page,5_0_0_0_5_1_0,NA,NA,form submission,2129.6620000121,2324766.2,2324764.093,2324780.638,2326910.3,2326910.4,2023-05-14T11:16:30Z,2326912.257,NULL,Lawine,banguko,s,maambukizi,usuluhishi,chekechea,chekechea,NA,NA,0,NA,NA,NA,NA,NA,NA,NA,NA,NA,NA,NA,NA,NA,NA,NA,NA,NA,NA,NA
eb57c,"""Richtig""-Screen",canvas.Screen,5_0_0_0_5_1_1,NA,NA,skipped,NA,2326912.5,NA,NA,2326910.3,2326912.5,2023-05-14T11:16:30Z,2326912.257,NULL,Lawine,banguko,s,maambukizi,usuluhishi,chekechea,NA,sdf,NA,0,NA,NA,NA,NA,NA,NA,NA,NA,NA,NA,NA,NA,NA,NA,NA,NA,NA,NA,NA
eb57c,"""Falsch""-Screen",canvas.Screen,5_0_0_0_5_1_2,NA,NA,timeout,4996.3429999999,2326913.2,2326896.241,2326912.257,2331892.303,2331892.9,2023-05-14T11:16:35Z,2331908.6,NULL,Lawine,banguko,s,maambukizi,usuluhishi,chekechea,NA,sdf,0,0,NA,NA,NA,NA,NA,NA,NA,NA,NA,NA,NA,NA,NA,NA,NA,NA,NA,NA,NA
eb57c,shallow,flow.Sequence,5_0_0_0_5_1,NA,NA,completion,7111.665,2324766.1,2324764.093,2324780.638,2331892.303,2331893.1,2023-05-14T11:16:35Z,2331908.6,NULL,Lawine,banguko,s,maambukizi,usuluhishi,chekechea,NA,sdf,NA,0,NA,NA,NA,NA,NA,NA,NA,NA,NA,NA,NA,NA,NA,NA,NA,NA,NA,NA,NA
eb57c,task,flow.Sequence,5_0_0_0_5,NA,NA,completion,7111.665,2324765.8,2324764.093,2324780.638,2331892.303,2331893.2,2023-05-14T11:16:35Z,2331908.6,NULL,Lawine,banguko,s,maambukizi,usuluhishi,chekechea,NA,sdf,NA,0,NA,NA,NA,NA,NA,NA,NA,NA,NA,NA,NA,NA,NA,NA,NA,NA,NA,NA,NA
eb57c,deep,flow.Sequence,5_0_0_0_6_0,NA,NA,skipped,NA,2331893.3,NA,NA,2331892.303,2331893.3,2023-05-14T11:16:35Z,2331908.6,NULL,System,maongozi,s,chokochoko,nuksani,mitaani,NA,sdf,NA,0,NA,NA,NA,NA,NA,NA,NA,NA,NA,NA,NA,NA,NA,NA,NA,NA,NA,NA,NA
eb57c,Shallow Question,html.Page,5_0_0_0_6_1_0,NA,NA,form submission,2891.9999999939,2331893.3,2331892.303,2331908.6,2334800.6,2334800.7,2023-05-14T11:16:38Z,2334805.752,NULL,System,maongozi,s,chokochoko,nuksani,mitaani,chokochoko,NA,NA,0,NA,NA,NA,NA,NA,NA,NA,NA,NA,NA,NA,NA,NA,NA,NA,NA,NA,NA,NA
eb57c,"""Richtig""-Screen",canvas.Screen,5_0_0_0_6_1_1,NA,NA,skipped,NA,2334802.5,NA,NA,2334800.6,2334802.7,2023-05-14T11:16:38Z,2334805.752,NULL,System,maongozi,s,chokochoko,nuksani,mitaani,NA,sdf,NA,0,NA,NA,NA,NA,NA,NA,NA,NA,NA,NA,NA,NA,NA,NA,NA,NA,NA,NA,NA
eb57c,"""Falsch""-Screen",canvas.Screen,5_0_0_0_6_1_2,NA,NA,timeout,4996.4170000004,2334803.2,2334789.201,2334805.752,2339785.203,2339786.4,2023-05-14T11:16:43Z,2339802.169,NULL,System,maongozi,s,chokochoko,nuksani,mitaani,NA,sdf,0,0,NA,NA,NA,NA,NA,NA,NA,NA,NA,NA,NA,NA,NA,NA,NA,NA,NA,NA,NA
eb57c,shallow,flow.Sequence,5_0_0_0_6_1,NA,NA,completion,7876.6030000001,2331893.3,2331892.303,2331908.6,2339785.203,2339786.7,2023-05-14T11:16:43Z,2339802.169,NULL,System,maongozi,s,chokochoko,nuksani,mitaani,NA,sdf,NA,0,NA,NA,NA,NA,NA,NA,NA,NA,NA,NA,NA,NA,NA,NA,NA,NA,NA,NA,NA
eb57c,task,flow.Sequence,5_0_0_0_6,NA,NA,completion,7876.6030000001,2331893.3,2331892.303,2331908.6,2339785.203,2339787,2023-05-14T11:16:43Z,2339802.169,NULL,System,maongozi,s,chokochoko,nuksani,mitaani,NA,sdf,NA,0,NA,NA,NA,NA,NA,NA,NA,NA,NA,NA,NA,NA,NA,NA,NA,NA,NA,NA,NA
eb57c,Deep Question,html.Page,5_0_0_0_7_0_0,NA,NA,form submission,4086.2310000057,2339787.3,2339785.203,2339802.169,2343888.4,2343888.6,2023-05-14T11:16:47Z,2343898.35,NULL,Vorwurf,mashtaka,d,NA,NA,NA,bussi,NA,NA,0,NA,NA,NA,NA,NA,NA,NA,NA,NA,NA,NA,NA,NA,NA,NA,NA,NA,NA,NA
eb57c,"""Richtig""-Screen",canvas.Screen,5_0_0_0_7_0_1,NA,NA,skipped,NA,2343891.3,NA,NA,2343888.4,2343891.5,2023-05-14T11:16:47Z,2343898.35,NULL,Vorwurf,mashtaka,d,NA,NA,NA,NA,sdf,NA,0,NA,NA,NA,NA,NA,NA,NA,NA,NA,NA,NA,NA,NA,NA,NA,NA,NA,NA,NA
eb57c,"""Falsch""-Screen",canvas.Screen,5_0_0_0_7_0_2,NA,NA,timeout,4996.5519999997,2343892.4,2343882.173,2343898.35,2348877.65,2348878.3,2023-05-14T11:16:52Z,2348894.902,NULL,Vorwurf,mashtaka,d,NA,NA,NA,NA,sdf,0,0,NA,NA,NA,NA,NA,NA,NA,NA,NA,NA,NA,NA,NA,NA,NA,NA,NA,NA,NA
eb57c,deep,flow.Sequence,5_0_0_0_7_0,NA,NA,completion,9075.4809999997,2339787.2,2339785.203,2339802.169,2348877.65,2348878.4,2023-05-14T11:16:52Z,2348894.902,NULL,Vorwurf,mashtaka,d,NA,NA,NA,NA,sdf,NA,0,NA,NA,NA,NA,NA,NA,NA,NA,NA,NA,NA,NA,NA,NA,NA,NA,NA,NA,NA
eb57c,shallow,flow.Sequence,5_0_0_0_7_1,NA,NA,skipped,NA,2348878.6,NA,NA,2348877.65,2348878.6,2023-05-14T11:16:52Z,2348894.902,NULL,Vorwurf,mashtaka,d,NA,NA,NA,NA,sdf,NA,0,NA,NA,NA,NA,NA,NA,NA,NA,NA,NA,NA,NA,NA,NA,NA,NA,NA,NA,NA
