observation,sender,sender_type,sender_id,response,response_action,ended_on,duration,time_run,time_render,time_show,time_end,time_commit,timestamp,time_switch,german,swahili,enc,distractor1,distractor2,distractor3,response_2,x,correct,distractors,url_vp,url_sess,meta_labjs_version,meta_location,meta_user_agent,meta_platform,meta_language,meta_locale,meta_time_zone,meta_timezone_offset,meta_screen_width,meta_screen_height,meta_scroll_width,meta_scroll_height,meta_window_inner_width,meta_window_inner_height,meta_device_pixel_ratio,meta_labjs_build_flavor,meta_labjs_build_commit
ac614,Introduction delayed retrieval,canvas.Screen,0,weiter,keypress(Space),response,9715.946,1208.4000000358,1197.644,1231.054,10947,10948.600000024,2023-06-18T12:05:10Z,10956.22,NA,NA,NA,NA,NA,NA,NA,NA,NA,NULL,172,4,20.2.4,https://neurocog.fernuni.ch/studies/vweber/sliechti/delayed/index.html?vp=172&sess=4,"Mozilla/5.0 (Windows NT 10.0; Win64; x64) AppleWebKit/537.36 (KHTML, like Gecko) Chrome/114.0.0.0 Safari/537.36",Win32,de-CH,de,Europe/Zurich,-120,1280,720,1280,553,1280,601,1.5,production,f5b4a49f956347addd546a832a3327688c2c0fef
ac614,Deep Question,html.Page,1_0_0_0,NA,NA,form submission,3363.0800000119,10948.800000012,10941.616,10956.22,14319.300000012,14319.699999988,2023-06-18T12:05:13Z,14320.123,Konkurrent,mshindani,d,msemaji,mvutaji,kipukusa,lkfjda,NA,NA,NULL,NA,NA,NA,NA,NA,NA,NA,NA,NA,NA,NA,NA,NA,NA,NA,NA,NA,NA,NA
ac614,Save data screen,canvas.Screen,1_0_0_1,NA,NA,timeout,499.839,14320.5,14303.994,14320.123,14803.346,14804.300000012,2023-06-18T12:05:13Z,14819.962,Konkurrent,mshindani,d,msemaji,mvutaji,kipukusa,NA,NA,0,NULL,NA,NA,NA,NA,NA,NA,NA,NA,NA,NA,NA,NA,NA,NA,NA,NA,NA,NA,NA
ac614,deep,flow.Sequence,1_0_0,NA,NA,completion,3847.126,10948.800000012,10941.616,10956.22,14803.346,14804.5,2023-06-18T12:05:13Z,14819.962,Konkurrent,mshindani,d,msemaji,mvutaji,kipukusa,NA,NA,NA,NULL,NA,NA,NA,NA,NA,NA,NA,NA,NA,NA,NA,NA,NA,NA,NA,NA,NA,NA,NA
ac614,task,flow.Sequence,1_0,NA,NA,completion,3847.126,10948.800000012,10941.616,10956.22,14803.346,14804.600000024,2023-06-18T12:05:13Z,14819.962,Konkurrent,mshindani,d,msemaji,mvutaji,kipukusa,NA,NA,NA,NULL,NA,NA,NA,NA,NA,NA,NA,NA,NA,NA,NA,NA,NA,NA,NA,NA,NA,NA,NA
ac614,Deep Question,html.Page,1_1_0_0,NA,NA,form submission,3814.2379999881,14804.699999988,14803.346,14819.962,18634.199999988,18634.5,2023-06-18T12:05:17Z,18650.27,Annäherung,maegesho,s,madahili,kujiamini,mapendekezo,mgonkuk,NA,NA,NULL,NA,NA,NA,NA,NA,NA,NA,NA,NA,NA,NA,NA,NA,NA,NA,NA,NA,NA,NA
ac614,Save data screen,canvas.Screen,1_1_0_1,NA,NA,timeout,499.234,18635.300000012,18633.408,18650.27,19132.874,19141.5,2023-06-18T12:05:18Z,19149.504,Annäherung,maegesho,s,madahili,kujiamini,mapendekezo,NA,NA,0,NULL,NA,NA,NA,NA,NA,NA,NA,NA,NA,NA,NA,NA,NA,NA,NA,NA,NA,NA,NA
ac614,deep,flow.Sequence,1_1_0,NA,NA,completion,4312.912,14804.699999988,14803.346,14819.962,19132.874,19141.699999988,2023-06-18T12:05:18Z,19149.504,Annäherung,maegesho,s,madahili,kujiamini,mapendekezo,NA,NA,NA,NULL,NA,NA,NA,NA,NA,NA,NA,NA,NA,NA,NA,NA,NA,NA,NA,NA,NA,NA,NA
ac614,task,flow.Sequence,1_1,NA,NA,completion,4312.912,14804.699999988,14803.346,14819.962,19132.874,19141.900000036,2023-06-18T12:05:18Z,19149.504,Annäherung,maegesho,s,madahili,kujiamini,mapendekezo,NA,NA,NA,NULL,NA,NA,NA,NA,NA,NA,NA,NA,NA,NA,NA,NA,NA,NA,NA,NA,NA,NA,NA
ac614,Deep Question,html.Page,1_2_0_0,NA,NA,form submission,5313.1959999881,19142.300000012,19132.874,19149.504,24462.699999988,24462.900000036,2023-06-18T12:05:23Z,24478.632,Polizist,msongora,d,simanzi,mandhari,nidhamu,msoroa,NA,NA,NULL,NA,NA,NA,NA,NA,NA,NA,NA,NA,NA,NA,NA,NA,NA,NA,NA,NA,NA,NA
ac614,Save data screen,canvas.Screen,1_2_0_1,NA,NA,timeout,499.656,24463.300000012,24461.205,24478.632,24962.239,24963.199999988,2023-06-18T12:05:24Z,24978.288,Polizist,msongora,d,simanzi,mandhari,nidhamu,NA,NA,0,NULL,NA,NA,NA,NA,NA,NA,NA,NA,NA,NA,NA,NA,NA,NA,NA,NA,NA,NA,NA
ac614,deep,flow.Sequence,1_2_0,NA,NA,completion,5812.735,19142.199999988,19132.874,19149.504,24962.239,24963.5,2023-06-18T12:05:24Z,24978.288,Polizist,msongora,d,simanzi,mandhari,nidhamu,NA,NA,NA,NULL,NA,NA,NA,NA,NA,NA,NA,NA,NA,NA,NA,NA,NA,NA,NA,NA,NA,NA,NA
ac614,task,flow.Sequence,1_2,NA,NA,completion,5812.735,19142.100000024,19132.874,19149.504,24962.239,24963.699999988,2023-06-18T12:05:24Z,24978.288,Polizist,msongora,d,simanzi,mandhari,nidhamu,NA,NA,NA,NULL,NA,NA,NA,NA,NA,NA,NA,NA,NA,NA,NA,NA,NA,NA,NA,NA,NA,NA,NA
ac614,Deep Question,html.Page,1_3_0_0,NA,NA,form submission,2717.8120000238,24963.900000036,24962.239,24978.288,27696.100000024,27696.300000012,2023-06-18T12:05:26Z,27709.44,Zufall,kikuti,s,kukosekana,uchoraji,leseni,fjödk,NA,NA,NULL,NA,NA,NA,NA,NA,NA,NA,NA,NA,NA,NA,NA,NA,NA,NA,NA,NA,NA,NA
ac614,Save data screen,canvas.Screen,1_3_0_1,NA,NA,timeout,499.302,27696.699999988,27692.422,27709.44,28192.139,28192.600000024,2023-06-18T12:05:27Z,28208.742,Zufall,kikuti,s,kukosekana,uchoraji,leseni,NA,NA,0,NULL,NA,NA,NA,NA,NA,NA,NA,NA,NA,NA,NA,NA,NA,NA,NA,NA,NA,NA,NA
ac614,deep,flow.Sequence,1_3_0,NA,NA,completion,3213.851,24963.800000012,24962.239,24978.288,28192.139,28192.900000036,2023-06-18T12:05:27Z,28208.742,Zufall,kikuti,s,kukosekana,uchoraji,leseni,NA,NA,NA,NULL,NA,NA,NA,NA,NA,NA,NA,NA,NA,NA,NA,NA,NA,NA,NA,NA,NA,NA,NA
ac614,task,flow.Sequence,1_3,NA,NA,completion,3213.851,24963.699999988,24962.239,24978.288,28192.139,28192.900000036,2023-06-18T12:05:27Z,28208.742,Zufall,kikuti,s,kukosekana,uchoraji,leseni,NA,NA,NA,NULL,NA,NA,NA,NA,NA,NA,NA,NA,NA,NA,NA,NA,NA,NA,NA,NA,NA,NA,NA
ac614,Deep Question,html.Page,1_4_0_0,NA,NA,form submission,1919.758,28193,28192.139,28208.742,30128.5,30128.800000012,2023-06-18T12:05:29Z,30140.559,Beweis,ushahidi,d,marudio,kizuizi,mtendaji,dfd,NA,NA,NULL,NA,NA,NA,NA,NA,NA,NA,NA,NA,NA,NA,NA,NA,NA,NA,NA,NA,NA,NA
ac614,Save data screen,canvas.Screen,1_4_0_1,NA,NA,timeout,499.846,30129.300000012,30125.052,30140.559,30623.683,30624.5,2023-06-18T12:05:29Z,30640.405,Beweis,ushahidi,d,marudio,kizuizi,mtendaji,NA,NA,0,NULL,NA,NA,NA,NA,NA,NA,NA,NA,NA,NA,NA,NA,NA,NA,NA,NA,NA,NA,NA
ac614,deep,flow.Sequence,1_4_0,NA,NA,completion,2414.941,28193,28192.139,28208.742,30623.683,30624.699999988,2023-06-18T12:05:29Z,30640.405,Beweis,ushahidi,d,marudio,kizuizi,mtendaji,NA,NA,NA,NULL,NA,NA,NA,NA,NA,NA,NA,NA,NA,NA,NA,NA,NA,NA,NA,NA,NA,NA,NA
ac614,task,flow.Sequence,1_4,NA,NA,completion,2414.941,28193,28192.139,28208.742,30623.683,30624.900000036,2023-06-18T12:05:29Z,30640.405,Beweis,ushahidi,d,marudio,kizuizi,mtendaji,NA,NA,NA,NULL,NA,NA,NA,NA,NA,NA,NA,NA,NA,NA,NA,NA,NA,NA,NA,NA,NA,NA,NA
ac614,Deep Question,html.Page,1_5_0_0,NA,NA,form submission,3800.7949999881,30625.300000012,30623.683,30640.405,34441.199999988,34441.400000036,2023-06-18T12:05:33Z,34453.787,Vorsorge,tahadhari,d,ufafanuzi,makini,mashambani,mshalibuon,NA,NA,NULL,NA,NA,NA,NA,NA,NA,NA,NA,NA,NA,NA,NA,NA,NA,NA,NA,NA,NA,NA
ac614,Save data screen,canvas.Screen,1_5_0_1,NA,NA,timeout,499.438,34442.100000024,34437.072,34453.787,34936.612,34937.300000012,2023-06-18T12:05:34Z,34953.225,Vorsorge,tahadhari,d,ufafanuzi,makini,mashambani,NA,NA,0,NULL,NA,NA,NA,NA,NA,NA,NA,NA,NA,NA,NA,NA,NA,NA,NA,NA,NA,NA,NA
ac614,deep,flow.Sequence,1_5_0,NA,NA,completion,4296.207,30625.199999988,30623.683,30640.405,34936.612,34937.400000036,2023-06-18T12:05:34Z,34953.225,Vorsorge,tahadhari,d,ufafanuzi,makini,mashambani,NA,NA,NA,NULL,NA,NA,NA,NA,NA,NA,NA,NA,NA,NA,NA,NA,NA,NA,NA,NA,NA,NA,NA
ac614,task,flow.Sequence,1_5,NA,NA,completion,4296.207,30625.100000024,30623.683,30640.405,34936.612,34937.5,2023-06-18T12:05:34Z,34953.225,Vorsorge,tahadhari,d,ufafanuzi,makini,mashambani,NA,NA,NA,NULL,NA,NA,NA,NA,NA,NA,NA,NA,NA,NA,NA,NA,NA,NA,NA,NA,NA,NA,NA
ac614,Deep Question,html.Page,1_6_0_0,NA,NA,form submission,2813.5750000119,34937.5,34936.612,34953.225,37766.800000012,37767.100000024,2023-06-18T12:05:36Z,37767.517,Zuwachs,nyongeza,s,matilaba,udhibiti,hudhurio,mguezo,NA,NA,NULL,NA,NA,NA,NA,NA,NA,NA,NA,NA,NA,NA,NA,NA,NA,NA,NA,NA,NA,NA
ac614,Save data screen,canvas.Screen,1_6_0_1,NA,NA,timeout,499.753,37767.699999988,37752.552,37767.517,38250.527,38251.300000012,2023-06-18T12:05:37Z,38267.27,Zuwachs,nyongeza,s,matilaba,udhibiti,hudhurio,NA,NA,0,NULL,NA,NA,NA,NA,NA,NA,NA,NA,NA,NA,NA,NA,NA,NA,NA,NA,NA,NA,NA
ac614,deep,flow.Sequence,1_6_0,NA,NA,completion,3297.302,34937.5,34936.612,34953.225,38250.527,38251.600000024,2023-06-18T12:05:37Z,38267.27,Zuwachs,nyongeza,s,matilaba,udhibiti,hudhurio,NA,NA,NA,NULL,NA,NA,NA,NA,NA,NA,NA,NA,NA,NA,NA,NA,NA,NA,NA,NA,NA,NA,NA
ac614,task,flow.Sequence,1_6,NA,NA,completion,3297.302,34937.5,34936.612,34953.225,38250.527,38251.800000012,2023-06-18T12:05:37Z,38267.27,Zuwachs,nyongeza,s,matilaba,udhibiti,hudhurio,NA,NA,NA,NULL,NA,NA,NA,NA,NA,NA,NA,NA,NA,NA,NA,NA,NA,NA,NA,NA,NA,NA,NA
ac614,Deep Question,html.Page,1_7_0_0,NA,NA,form submission,3911.1300000358,38251.900000036,38250.527,38267.27,42178.400000036,42178.600000024,2023-06-18T12:05:41Z,42180.573,Symbol,kielezo,s,kinyume,nderemo,utayari,kahiti,NA,NA,NULL,NA,NA,NA,NA,NA,NA,NA,NA,NA,NA,NA,NA,NA,NA,NA,NA,NA,NA,NA
ac614,Save data screen,canvas.Screen,1_7_0_1,NA,NA,timeout,499.984,42179.199999988,42165.41,42180.573,42663.915,42664.699999988,2023-06-18T12:05:41Z,42680.557,Symbol,kielezo,s,kinyume,nderemo,utayari,NA,NA,0,NULL,NA,NA,NA,NA,NA,NA,NA,NA,NA,NA,NA,NA,NA,NA,NA,NA,NA,NA,NA
ac614,deep,flow.Sequence,1_7_0,NA,NA,completion,4396.645,38251.900000036,38250.527,38267.27,42663.915,42665,2023-06-18T12:05:41Z,42680.557,Symbol,kielezo,s,kinyume,nderemo,utayari,NA,NA,NA,NULL,NA,NA,NA,NA,NA,NA,NA,NA,NA,NA,NA,NA,NA,NA,NA,NA,NA,NA,NA
ac614,task,flow.Sequence,1_7,NA,NA,completion,4396.645,38251.900000036,38250.527,38267.27,42663.915,42665.199999988,2023-06-18T12:05:41Z,42680.557,Symbol,kielezo,s,kinyume,nderemo,utayari,NA,NA,NA,NULL,NA,NA,NA,NA,NA,NA,NA,NA,NA,NA,NA,NA,NA,NA,NA,NA,NA,NA,NA
ac614,Deep Question,html.Page,1_8_0_0,NA,NA,form submission,3364.943,42665.400000036,42663.915,42680.557,46045.5,46045.699999988,2023-06-18T12:05:45Z,46060.944,Schönheit,kirembo,s,mahojiano,msisimko,jitihadi,ödsjf,NA,NA,NULL,NA,NA,NA,NA,NA,NA,NA,NA,NA,NA,NA,NA,NA,NA,NA,NA,NA,NA,NA
ac614,Save data screen,canvas.Screen,1_8_0_1,NA,NA,timeout,499.685,46046.199999988,46044.843,46060.944,46543.947,46544.800000012,2023-06-18T12:05:45Z,46560.629,Schönheit,kirembo,s,mahojiano,msisimko,jitihadi,NA,NA,0,NULL,NA,NA,NA,NA,NA,NA,NA,NA,NA,NA,NA,NA,NA,NA,NA,NA,NA,NA,NA
ac614,deep,flow.Sequence,1_8_0,NA,NA,completion,3863.39,42665.300000012,42663.915,42680.557,46543.947,46545.100000024,2023-06-18T12:05:45Z,46560.629,Schönheit,kirembo,s,mahojiano,msisimko,jitihadi,NA,NA,NA,NULL,NA,NA,NA,NA,NA,NA,NA,NA,NA,NA,NA,NA,NA,NA,NA,NA,NA,NA,NA
ac614,task,flow.Sequence,1_8,NA,NA,completion,3863.39,42665.300000012,42663.915,42680.557,46543.947,46545.400000036,2023-06-18T12:05:45Z,46560.629,Schönheit,kirembo,s,mahojiano,msisimko,jitihadi,NA,NA,NA,NULL,NA,NA,NA,NA,NA,NA,NA,NA,NA,NA,NA,NA,NA,NA,NA,NA,NA,NA,NA
ac614,Deep Question,html.Page,1_9_0_0,NA,NA,form submission,3551.0709999881,46545.699999988,46543.947,46560.629,50111.699999988,50112,2023-06-18T12:05:49Z,50124.171,Wettbewerb,ushindani,d,mapendezi,kichocheo,ubaguzi,mshania,NA,NA,NULL,NA,NA,NA,NA,NA,NA,NA,NA,NA,NA,NA,NA,NA,NA,NA,NA,NA,NA,NA
ac614,Save data screen,canvas.Screen,1_9_0_1,NA,NA,timeout,499.681,50112.400000036,50107.448,50124.171,50607.338,50608.100000024,2023-06-18T12:05:49Z,50623.852,Wettbewerb,ushindani,d,mapendezi,kichocheo,ubaguzi,NA,NA,0,NULL,NA,NA,NA,NA,NA,NA,NA,NA,NA,NA,NA,NA,NA,NA,NA,NA,NA,NA,NA
ac614,deep,flow.Sequence,1_9_0,NA,NA,completion,4046.709,46545.699999988,46543.947,46560.629,50607.338,50608.400000036,2023-06-18T12:05:49Z,50623.852,Wettbewerb,ushindani,d,mapendezi,kichocheo,ubaguzi,NA,NA,NA,NULL,NA,NA,NA,NA,NA,NA,NA,NA,NA,NA,NA,NA,NA,NA,NA,NA,NA,NA,NA
ac614,task,flow.Sequence,1_9,NA,NA,completion,4046.709,46545.600000024,46543.947,46560.629,50607.338,50608.5,2023-06-18T12:05:49Z,50623.852,Wettbewerb,ushindani,d,mapendezi,kichocheo,ubaguzi,NA,NA,NA,NULL,NA,NA,NA,NA,NA,NA,NA,NA,NA,NA,NA,NA,NA,NA,NA,NA,NA,NA,NA
ac614,Deep Question,html.Page,1_10_0_0,NA,NA,form submission,4365.4480000119,50608.600000024,50607.338,50623.852,54989.300000012,54989.400000036,2023-06-18T12:05:54Z,55003.506,Ausschluss,kutengwa,d,ununuzi,taratibu,madeni,msohonal,NA,NA,NULL,NA,NA,NA,NA,NA,NA,NA,NA,NA,NA,NA,NA,NA,NA,NA,NA,NA,NA,NA
ac614,Save data screen,canvas.Screen,1_10_0_1,NA,NA,timeout,499.543,54989.900000036,54972.468,55003.506,55486.384,55487.300000012,2023-06-18T12:05:54Z,55503.049,Ausschluss,kutengwa,d,ununuzi,taratibu,madeni,NA,NA,0,NULL,NA,NA,NA,NA,NA,NA,NA,NA,NA,NA,NA,NA,NA,NA,NA,NA,NA,NA,NA
ac614,deep,flow.Sequence,1_10_0,NA,NA,completion,4862.532,50608.600000024,50607.338,50623.852,55486.384,55487.5,2023-06-18T12:05:54Z,55503.049,Ausschluss,kutengwa,d,ununuzi,taratibu,madeni,NA,NA,NA,NULL,NA,NA,NA,NA,NA,NA,NA,NA,NA,NA,NA,NA,NA,NA,NA,NA,NA,NA,NA
ac614,task,flow.Sequence,1_10,NA,NA,completion,4862.532,50608.600000024,50607.338,50623.852,55486.384,55487.800000012,2023-06-18T12:05:54Z,55503.049,Ausschluss,kutengwa,d,ununuzi,taratibu,madeni,NA,NA,NA,NULL,NA,NA,NA,NA,NA,NA,NA,NA,NA,NA,NA,NA,NA,NA,NA,NA,NA,NA,NA
ac614,Deep Question,html.Page,1_11_0_0,NA,NA,form submission,3514.6509999881,55487.900000036,55486.384,55503.049,59017.699999988,59017.900000036,2023-06-18T12:05:58Z,59033.446,Verstand,ufahamivu,s,shakawa,hadhari,mhandisi,gerono,NA,NA,NULL,NA,NA,NA,NA,NA,NA,NA,NA,NA,NA,NA,NA,NA,NA,NA,NA,NA,NA,NA
ac614,Save data screen,canvas.Screen,1_11_0_1,NA,NA,timeout,499.81099999999,59018.5,59016.458,59033.446,59516.631,59517.400000036,2023-06-18T12:05:58Z,59533.257,Verstand,ufahamivu,s,shakawa,hadhari,mhandisi,NA,NA,0,NULL,NA,NA,NA,NA,NA,NA,NA,NA,NA,NA,NA,NA,NA,NA,NA,NA,NA,NA,NA
ac614,deep,flow.Sequence,1_11_0,NA,NA,completion,4013.582,55487.900000036,55486.384,55503.049,59516.631,59517.600000024,2023-06-18T12:05:58Z,59533.257,Verstand,ufahamivu,s,shakawa,hadhari,mhandisi,NA,NA,NA,NULL,NA,NA,NA,NA,NA,NA,NA,NA,NA,NA,NA,NA,NA,NA,NA,NA,NA,NA,NA
ac614,task,flow.Sequence,1_11,NA,NA,completion,4013.582,55487.900000036,55486.384,55503.049,59516.631,59517.800000012,2023-06-18T12:05:58Z,59533.257,Verstand,ufahamivu,s,shakawa,hadhari,mhandisi,NA,NA,NA,NULL,NA,NA,NA,NA,NA,NA,NA,NA,NA,NA,NA,NA,NA,NA,NA,NA,NA,NA,NA
ac614,Deep Question,html.Page,1_12_0_0,NA,NA,form submission,10503.442999988,59518,59516.631,59533.257,70036.699999988,70036.900000036,2023-06-18T12:06:09Z,70041.128,Gelegenheit,wakati,d,mchanganyiko,kipaumbele,kushuku,watai,NA,NA,NULL,NA,NA,NA,NA,NA,NA,NA,NA,NA,NA,NA,NA,NA,NA,NA,NA,NA,NA,NA
ac614,Save data screen,canvas.Screen,1_12_0_1,NA,NA,timeout,499.768,70038.5,70025.938,70041.128,70524.371,70525.100000024,2023-06-18T12:06:09Z,70540.896,Gelegenheit,wakati,d,mchanganyiko,kipaumbele,kushuku,NA,NA,0,NULL,NA,NA,NA,NA,NA,NA,NA,NA,NA,NA,NA,NA,NA,NA,NA,NA,NA,NA,NA
ac614,deep,flow.Sequence,1_12_0,NA,NA,completion,10991.114,59517.900000036,59516.631,59533.257,70524.371,70525.300000012,2023-06-18T12:06:09Z,70540.896,Gelegenheit,wakati,d,mchanganyiko,kipaumbele,kushuku,NA,NA,NA,NULL,NA,NA,NA,NA,NA,NA,NA,NA,NA,NA,NA,NA,NA,NA,NA,NA,NA,NA,NA
ac614,task,flow.Sequence,1_12,NA,NA,completion,10991.114,59517.900000036,59516.631,59533.257,70524.371,70525.5,2023-06-18T12:06:09Z,70540.896,Gelegenheit,wakati,d,mchanganyiko,kipaumbele,kushuku,NA,NA,NA,NULL,NA,NA,NA,NA,NA,NA,NA,NA,NA,NA,NA,NA,NA,NA,NA,NA,NA,NA,NA
ac614,Deep Question,html.Page,1_13_0_0,NA,NA,form submission,2622.0040000358,70525.600000024,70524.371,70540.896,73162.900000036,73163.199999988,2023-06-18T12:06:12Z,73172.038,Sympathie,mapendano,s,dhamiria,fungamano,maazimio,beloh,NA,NA,NULL,NA,NA,NA,NA,NA,NA,NA,NA,NA,NA,NA,NA,NA,NA,NA,NA,NA,NA,NA
ac614,Save data screen,canvas.Screen,1_13_0_1,NA,NA,timeout,499.53200000001,73163.600000024,73157.093,73172.038,73654.824,73655.900000036,2023-06-18T12:06:12Z,73671.57,Sympathie,mapendano,s,dhamiria,fungamano,maazimio,NA,NA,0,NULL,NA,NA,NA,NA,NA,NA,NA,NA,NA,NA,NA,NA,NA,NA,NA,NA,NA,NA,NA
ac614,deep,flow.Sequence,1_13_0,NA,NA,completion,3113.928,70525.600000024,70524.371,70540.896,73654.824,73656.100000024,2023-06-18T12:06:12Z,73671.57,Sympathie,mapendano,s,dhamiria,fungamano,maazimio,NA,NA,NA,NULL,NA,NA,NA,NA,NA,NA,NA,NA,NA,NA,NA,NA,NA,NA,NA,NA,NA,NA,NA
ac614,task,flow.Sequence,1_13,NA,NA,completion,3113.928,70525.5,70524.371,70540.896,73654.824,73656.300000012,2023-06-18T12:06:12Z,73671.57,Sympathie,mapendano,s,dhamiria,fungamano,maazimio,NA,NA,NA,NULL,NA,NA,NA,NA,NA,NA,NA,NA,NA,NA,NA,NA,NA,NA,NA,NA,NA,NA,NA
ac614,Deep Question,html.Page,1_14_0_0,NA,NA,form submission,2125.5300000238,73656.400000036,73654.824,73671.57,75797.100000024,75797.199999988,2023-06-18T12:06:14Z,75802.999,Auftrag,uagizaji,d,ghanima,kuzingatia,msukani,dasfd,NA,NA,NULL,NA,NA,NA,NA,NA,NA,NA,NA,NA,NA,NA,NA,NA,NA,NA,NA,NA,NA,NA
ac614,Save data screen,canvas.Screen,1_14_0_1,NA,NA,timeout,499.99000000001,75797.800000012,75790.738,75802.999,76286.335,76287.100000024,2023-06-18T12:06:15Z,76302.989,Auftrag,uagizaji,d,ghanima,kuzingatia,msukani,NA,NA,0,NULL,NA,NA,NA,NA,NA,NA,NA,NA,NA,NA,NA,NA,NA,NA,NA,NA,NA,NA,NA
ac614,deep,flow.Sequence,1_14_0,NA,NA,completion,2614.765,73656.400000036,73654.824,73671.57,76286.335,76287.400000036,2023-06-18T12:06:15Z,76302.989,Auftrag,uagizaji,d,ghanima,kuzingatia,msukani,NA,NA,NA,NULL,NA,NA,NA,NA,NA,NA,NA,NA,NA,NA,NA,NA,NA,NA,NA,NA,NA,NA,NA
ac614,task,flow.Sequence,1_14,NA,NA,completion,2614.765,73656.300000012,73654.824,73671.57,76286.335,76287.5,2023-06-18T12:06:15Z,76302.989,Auftrag,uagizaji,d,ghanima,kuzingatia,msukani,NA,NA,NA,NULL,NA,NA,NA,NA,NA,NA,NA,NA,NA,NA,NA,NA,NA,NA,NA,NA,NA,NA,NA
ac614,Deep Question,html.Page,1_15_0_0,NA,NA,form submission,8331.9110000358,76287.699999988,76286.335,76302.989,84634.900000036,84635.100000024,2023-06-18T12:06:23Z,84646.073,Widerstand,usulubu,s,kusababisha,mwalimu,mwenendo,mahadi,NA,NA,NULL,NA,NA,NA,NA,NA,NA,NA,NA,NA,NA,NA,NA,NA,NA,NA,NA,NA,NA,NA
ac614,Save data screen,canvas.Screen,1_15_0_1,NA,NA,timeout,499.41499999999,84636.900000036,84630.039,84646.073,85128.951,85129.699999988,2023-06-18T12:06:24Z,85145.488,Widerstand,usulubu,s,kusababisha,mwalimu,mwenendo,NA,NA,0,NULL,NA,NA,NA,NA,NA,NA,NA,NA,NA,NA,NA,NA,NA,NA,NA,NA,NA,NA,NA
ac614,deep,flow.Sequence,1_15_0,NA,NA,completion,8825.962,76287.600000024,76286.335,76302.989,85128.951,85130,2023-06-18T12:06:24Z,85145.488,Widerstand,usulubu,s,kusababisha,mwalimu,mwenendo,NA,NA,NA,NULL,NA,NA,NA,NA,NA,NA,NA,NA,NA,NA,NA,NA,NA,NA,NA,NA,NA,NA,NA
ac614,task,flow.Sequence,1_15,NA,NA,completion,8825.962,76287.600000024,76286.335,76302.989,85128.951,85130.100000024,2023-06-18T12:06:24Z,85145.488,Widerstand,usulubu,s,kusababisha,mwalimu,mwenendo,NA,NA,NA,NULL,NA,NA,NA,NA,NA,NA,NA,NA,NA,NA,NA,NA,NA,NA,NA,NA,NA,NA,NA
ac614,retrieval block 1 (cued recall),flow.Loop,1,NA,NA,completion,74172.731,10948.800000012,10941.616,10956.22,85128.951,85130.300000012,2023-06-18T12:06:24Z,85145.488,NA,NA,NA,NA,NA,NA,NA,NA,NA,NULL,NA,NA,NA,NA,NA,NA,NA,NA,NA,NA,NA,NA,NA,NA,NA,NA,NA,NA,NA
ac614,Shallow Question,html.Page,2_0_0_0,NA,NA,form submission,3416.9120000358,85130.5,85128.951,85145.488,88562.400000036,88562.699999988,2023-06-18T12:06:27Z,88576.12,Gelegenheit,wakati,d,mchanganyiko,kipaumbele,kushuku,wakati,NA,NA,"c(""distractor1"", ""distractor2"", ""distractor3"")",NA,NA,NA,NA,NA,NA,NA,NA,NA,NA,NA,NA,NA,NA,NA,NA,NA,NA,NA
ac614,Save data screen,canvas.Screen,2_0_0_1,NA,NA,timeout,499.314,88563.100000024,88559.533,88576.12,89059.191,89060,2023-06-18T12:06:28Z,89075.434,Gelegenheit,wakati,d,mchanganyiko,kipaumbele,kushuku,NA,NA,1,"c(""distractor1"", ""distractor2"", ""distractor3"")",NA,NA,NA,NA,NA,NA,NA,NA,NA,NA,NA,NA,NA,NA,NA,NA,NA,NA,NA
ac614,shallow,flow.Sequence,2_0_0,NA,NA,completion,3913.703,85130.400000036,85128.951,85145.488,89059.191,89060.199999988,2023-06-18T12:06:28Z,89075.434,Gelegenheit,wakati,d,mchanganyiko,kipaumbele,kushuku,NA,NA,NA,"c(""distractor1"", ""distractor2"", ""distractor3"")",NA,NA,NA,NA,NA,NA,NA,NA,NA,NA,NA,NA,NA,NA,NA,NA,NA,NA,NA
ac614,task,flow.Sequence,2_0,NA,NA,completion,3913.703,85130.400000036,85128.951,85145.488,89059.191,89060.400000036,2023-06-18T12:06:28Z,89075.434,Gelegenheit,wakati,d,mchanganyiko,kipaumbele,kushuku,NA,NA,NA,"c(""distractor1"", ""distractor2"", ""distractor3"")",NA,NA,NA,NA,NA,NA,NA,NA,NA,NA,NA,NA,NA,NA,NA,NA,NA,NA,NA
ac614,Shallow Question,html.Page,2_1_0_0,NA,NA,form submission,8748.566,89060.600000024,89059.191,89075.434,97824,97824.400000036,2023-06-18T12:06:36Z,97834.941,Wettbewerb,ushindani,d,mapendezi,kichocheo,ubaguzi,ushindani,NA,NA,"c(""distractor1"", ""distractor2"", ""distractor3"")",NA,NA,NA,NA,NA,NA,NA,NA,NA,NA,NA,NA,NA,NA,NA,NA,NA,NA,NA
ac614,Save data screen,canvas.Screen,2_1_0_1,NA,NA,timeout,499.94399999999,97825.800000012,97818.966,97834.941,98318.254,98319.699999988,2023-06-18T12:06:37Z,98334.885,Wettbewerb,ushindani,d,mapendezi,kichocheo,ubaguzi,NA,NA,1,"c(""distractor1"", ""distractor2"", ""distractor3"")",NA,NA,NA,NA,NA,NA,NA,NA,NA,NA,NA,NA,NA,NA,NA,NA,NA,NA,NA
ac614,shallow,flow.Sequence,2_1_0,NA,NA,completion,9242.82,89060.600000024,89059.191,89075.434,98318.254,98320.100000024,2023-06-18T12:06:37Z,98334.885,Wettbewerb,ushindani,d,mapendezi,kichocheo,ubaguzi,NA,NA,NA,"c(""distractor1"", ""distractor2"", ""distractor3"")",NA,NA,NA,NA,NA,NA,NA,NA,NA,NA,NA,NA,NA,NA,NA,NA,NA,NA,NA
ac614,task,flow.Sequence,2_1,NA,NA,completion,9242.82,89060.5,89059.191,89075.434,98318.254,98320.400000036,2023-06-18T12:06:37Z,98334.885,Wettbewerb,ushindani,d,mapendezi,kichocheo,ubaguzi,NA,NA,NA,"c(""distractor1"", ""distractor2"", ""distractor3"")",NA,NA,NA,NA,NA,NA,NA,NA,NA,NA,NA,NA,NA,NA,NA,NA,NA,NA,NA
ac614,Shallow Question,html.Page,2_2_0_0,NA,NA,form submission,4013.9150000119,98320.600000024,98318.254,98334.885,102348.80000001,102349,2023-06-18T12:06:41Z,102364.644,Widerstand,usulubu,s,kusababisha,mwalimu,mwenendo,usulubu,NA,NA,"c(""distractor1"", ""distractor2"", ""distractor3"")",NA,NA,NA,NA,NA,NA,NA,NA,NA,NA,NA,NA,NA,NA,NA,NA,NA,NA,NA
ac614,Save data screen,canvas.Screen,2_2_0_1,NA,NA,timeout,499.787,102350.30000001,102331.514,102364.644,102847.846,102854.30000001,2023-06-18T12:06:42Z,102864.431,Widerstand,usulubu,s,kusababisha,mwalimu,mwenendo,NA,NA,1,"c(""distractor1"", ""distractor2"", ""distractor3"")",NA,NA,NA,NA,NA,NA,NA,NA,NA,NA,NA,NA,NA,NA,NA,NA,NA,NA,NA
ac614,shallow,flow.Sequence,2_2_0,NA,NA,completion,4512.961,98320.600000024,98318.254,98334.885,102847.846,102854.40000004,2023-06-18T12:06:42Z,102864.431,Widerstand,usulubu,s,kusababisha,mwalimu,mwenendo,NA,NA,NA,"c(""distractor1"", ""distractor2"", ""distractor3"")",NA,NA,NA,NA,NA,NA,NA,NA,NA,NA,NA,NA,NA,NA,NA,NA,NA,NA,NA
ac614,task,flow.Sequence,2_2,NA,NA,completion,4512.961,98320.5,98318.254,98334.885,102847.846,102854.40000004,2023-06-18T12:06:42Z,102864.431,Widerstand,usulubu,s,kusababisha,mwalimu,mwenendo,NA,NA,NA,"c(""distractor1"", ""distractor2"", ""distractor3"")",NA,NA,NA,NA,NA,NA,NA,NA,NA,NA,NA,NA,NA,NA,NA,NA,NA,NA,NA
ac614,Shallow Question,html.Page,2_3_0_0,NA,NA,form submission,2570.7689999881,102854.5,102847.846,102864.431,105435.19999999,105435.5,2023-06-18T12:06:44Z,105445.674,Konkurrent,mshindani,d,msemaji,mvutaji,kipukusa,mshindani,NA,NA,"c(""distractor1"", ""distractor2"", ""distractor3"")",NA,NA,NA,NA,NA,NA,NA,NA,NA,NA,NA,NA,NA,NA,NA,NA,NA,NA,NA
ac614,Save data screen,canvas.Screen,2_3_0_1,NA,NA,timeout,499.327,105435.90000004,105429.031,105445.674,105928.358,105929.5,2023-06-18T12:06:45Z,105945.001,Konkurrent,mshindani,d,msemaji,mvutaji,kipukusa,NA,NA,1,"c(""distractor1"", ""distractor2"", ""distractor3"")",NA,NA,NA,NA,NA,NA,NA,NA,NA,NA,NA,NA,NA,NA,NA,NA,NA,NA,NA
ac614,shallow,flow.Sequence,2_3_0,NA,NA,completion,3063.927,102854.5,102847.846,102864.431,105928.358,105929.80000001,2023-06-18T12:06:45Z,105945.001,Konkurrent,mshindani,d,msemaji,mvutaji,kipukusa,NA,NA,NA,"c(""distractor1"", ""distractor2"", ""distractor3"")",NA,NA,NA,NA,NA,NA,NA,NA,NA,NA,NA,NA,NA,NA,NA,NA,NA,NA,NA
ac614,task,flow.Sequence,2_3,NA,NA,completion,3063.927,102854.5,102847.846,102864.431,105928.358,105929.90000004,2023-06-18T12:06:45Z,105945.001,Konkurrent,mshindani,d,msemaji,mvutaji,kipukusa,NA,NA,NA,"c(""distractor1"", ""distractor2"", ""distractor3"")",NA,NA,NA,NA,NA,NA,NA,NA,NA,NA,NA,NA,NA,NA,NA,NA,NA,NA,NA
ac614,Shallow Question,html.Page,2_4_0_0,NA,NA,form submission,2325.3990000358,105930.10000002,105928.358,105945.001,108270.40000004,108270.69999999,2023-06-18T12:06:47Z,108293.358,Sympathie,mapendano,s,dhamiria,fungamano,maazimio,mapendano,NA,NA,"c(""distractor1"", ""distractor2"", ""distractor3"")",NA,NA,NA,NA,NA,NA,NA,NA,NA,NA,NA,NA,NA,NA,NA,NA,NA,NA,NA
ac614,Save data screen,canvas.Screen,2_4_0_1,NA,NA,timeout,499.64700000001,108272.60000002,108276.696,108293.358,108776.328,108777.10000002,2023-06-18T12:06:47Z,108793.005,Sympathie,mapendano,s,dhamiria,fungamano,maazimio,NA,NA,1,"c(""distractor1"", ""distractor2"", ""distractor3"")",NA,NA,NA,NA,NA,NA,NA,NA,NA,NA,NA,NA,NA,NA,NA,NA,NA,NA,NA
ac614,shallow,flow.Sequence,2_4_0,NA,NA,completion,2831.327,105930.10000002,105928.358,105945.001,108776.328,108777.40000004,2023-06-18T12:06:47Z,108793.005,Sympathie,mapendano,s,dhamiria,fungamano,maazimio,NA,NA,NA,"c(""distractor1"", ""distractor2"", ""distractor3"")",NA,NA,NA,NA,NA,NA,NA,NA,NA,NA,NA,NA,NA,NA,NA,NA,NA,NA,NA
ac614,task,flow.Sequence,2_4,NA,NA,completion,2831.327,105930,105928.358,105945.001,108776.328,108777.60000002,2023-06-18T12:06:47Z,108793.005,Sympathie,mapendano,s,dhamiria,fungamano,maazimio,NA,NA,NA,"c(""distractor1"", ""distractor2"", ""distractor3"")",NA,NA,NA,NA,NA,NA,NA,NA,NA,NA,NA,NA,NA,NA,NA,NA,NA,NA,NA
ac614,Shallow Question,html.Page,2_5_0_0,NA,NA,form submission,2183.0950000238,108777.69999999,108776.328,108793.005,110976.10000002,110976.30000001,2023-06-18T12:06:50Z,110991.138,Annäherung,maegesho,s,madahili,kujiamini,mapendekezo,maegesho,NA,NA,"c(""distractor1"", ""distractor2"", ""distractor3"")",NA,NA,NA,NA,NA,NA,NA,NA,NA,NA,NA,NA,NA,NA,NA,NA,NA,NA,NA
ac614,Save data screen,canvas.Screen,2_5_0_1,NA,NA,timeout,499.63699999999,110976.69999999,110974.634,110991.138,111473.985,111475.10000002,2023-06-18T12:06:50Z,111490.775,Annäherung,maegesho,s,madahili,kujiamini,mapendekezo,NA,NA,1,"c(""distractor1"", ""distractor2"", ""distractor3"")",NA,NA,NA,NA,NA,NA,NA,NA,NA,NA,NA,NA,NA,NA,NA,NA,NA,NA,NA
ac614,shallow,flow.Sequence,2_5_0,NA,NA,completion,2680.98,108777.69999999,108776.328,108793.005,111473.985,111475.19999999,2023-06-18T12:06:50Z,111490.775,Annäherung,maegesho,s,madahili,kujiamini,mapendekezo,NA,NA,NA,"c(""distractor1"", ""distractor2"", ""distractor3"")",NA,NA,NA,NA,NA,NA,NA,NA,NA,NA,NA,NA,NA,NA,NA,NA,NA,NA,NA
ac614,task,flow.Sequence,2_5,NA,NA,completion,2680.98,108777.69999999,108776.328,108793.005,111473.985,111475.5,2023-06-18T12:06:50Z,111490.775,Annäherung,maegesho,s,madahili,kujiamini,mapendekezo,NA,NA,NA,"c(""distractor1"", ""distractor2"", ""distractor3"")",NA,NA,NA,NA,NA,NA,NA,NA,NA,NA,NA,NA,NA,NA,NA,NA,NA,NA,NA
ac614,Shallow Question,html.Page,2_6_0_0,NA,NA,form submission,2049.225,111475.60000002,111473.985,111490.775,113540,113540.30000001,2023-06-18T12:06:52Z,113555.446,Polizist,msongora,d,simanzi,mandhari,nidhamu,msongora,NA,NA,"c(""distractor1"", ""distractor2"", ""distractor3"")",NA,NA,NA,NA,NA,NA,NA,NA,NA,NA,NA,NA,NA,NA,NA,NA,NA,NA,NA
ac614,Save data screen,canvas.Screen,2_6_0_1,NA,NA,timeout,499.92300000001,113540.69999999,113522.868,113555.446,114038.666,114039.40000004,2023-06-18T12:06:53Z,114055.369,Polizist,msongora,d,simanzi,mandhari,nidhamu,NA,NA,1,"c(""distractor1"", ""distractor2"", ""distractor3"")",NA,NA,NA,NA,NA,NA,NA,NA,NA,NA,NA,NA,NA,NA,NA,NA,NA,NA,NA
ac614,shallow,flow.Sequence,2_6_0,NA,NA,completion,2547.891,111475.60000002,111473.985,111490.775,114038.666,114039.60000002,2023-06-18T12:06:53Z,114055.369,Polizist,msongora,d,simanzi,mandhari,nidhamu,NA,NA,NA,"c(""distractor1"", ""distractor2"", ""distractor3"")",NA,NA,NA,NA,NA,NA,NA,NA,NA,NA,NA,NA,NA,NA,NA,NA,NA,NA,NA
ac614,task,flow.Sequence,2_6,NA,NA,completion,2547.891,111475.60000002,111473.985,111490.775,114038.666,114039.69999999,2023-06-18T12:06:53Z,114055.369,Polizist,msongora,d,simanzi,mandhari,nidhamu,NA,NA,NA,"c(""distractor1"", ""distractor2"", ""distractor3"")",NA,NA,NA,NA,NA,NA,NA,NA,NA,NA,NA,NA,NA,NA,NA,NA,NA,NA,NA
ac614,Shallow Question,html.Page,2_7_0_0,NA,NA,form submission,2581.631,114039.90000004,114038.666,114055.369,116637,116637.40000004,2023-06-18T12:06:55Z,116636.214,Verstand,ufahamivu,s,shakawa,hadhari,mhandisi,hadhari,NA,NA,"c(""distractor1"", ""distractor2"", ""distractor3"")",NA,NA,NA,NA,NA,NA,NA,NA,NA,NA,NA,NA,NA,NA,NA,NA,NA,NA,NA
ac614,Save data screen,canvas.Screen,2_7_0_1,NA,NA,timeout,499.609,116638.69999999,116626.024,116636.214,117119.198,117128.10000002,2023-06-18T12:06:56Z,117135.823,Verstand,ufahamivu,s,shakawa,hadhari,mhandisi,NA,NA,0,"c(""distractor1"", ""distractor2"", ""distractor3"")",NA,NA,NA,NA,NA,NA,NA,NA,NA,NA,NA,NA,NA,NA,NA,NA,NA,NA,NA
ac614,shallow,flow.Sequence,2_7_0,NA,NA,completion,3063.829,114039.90000004,114038.666,114055.369,117119.198,117128.30000001,2023-06-18T12:06:56Z,117135.823,Verstand,ufahamivu,s,shakawa,hadhari,mhandisi,NA,NA,NA,"c(""distractor1"", ""distractor2"", ""distractor3"")",NA,NA,NA,NA,NA,NA,NA,NA,NA,NA,NA,NA,NA,NA,NA,NA,NA,NA,NA
ac614,task,flow.Sequence,2_7,NA,NA,completion,3063.829,114039.90000004,114038.666,114055.369,117119.198,117128.60000002,2023-06-18T12:06:56Z,117135.823,Verstand,ufahamivu,s,shakawa,hadhari,mhandisi,NA,NA,NA,"c(""distractor1"", ""distractor2"", ""distractor3"")",NA,NA,NA,NA,NA,NA,NA,NA,NA,NA,NA,NA,NA,NA,NA,NA,NA,NA,NA
ac614,Shallow Question,html.Page,2_8_0_0,NA,NA,form submission,1128.5770000358,117128.69999999,117119.198,117135.823,118264.40000004,118264.69999999,2023-06-18T12:06:57Z,118268.167,Symbol,kielezo,s,kinyume,nderemo,utayari,kielezo,NA,NA,"c(""distractor1"", ""distractor2"", ""distractor3"")",NA,NA,NA,NA,NA,NA,NA,NA,NA,NA,NA,NA,NA,NA,NA,NA,NA,NA,NA
ac614,Save data screen,canvas.Screen,2_8_0_1,NA,NA,timeout,499.986,118265.10000002,118252.024,118268.167,118751.483,118752.19999999,2023-06-18T12:06:57Z,118768.153,Symbol,kielezo,s,kinyume,nderemo,utayari,NA,NA,1,"c(""distractor1"", ""distractor2"", ""distractor3"")",NA,NA,NA,NA,NA,NA,NA,NA,NA,NA,NA,NA,NA,NA,NA,NA,NA,NA,NA
ac614,shallow,flow.Sequence,2_8_0,NA,NA,completion,1615.66,117128.69999999,117119.198,117135.823,118751.483,118752.40000004,2023-06-18T12:06:57Z,118768.153,Symbol,kielezo,s,kinyume,nderemo,utayari,NA,NA,NA,"c(""distractor1"", ""distractor2"", ""distractor3"")",NA,NA,NA,NA,NA,NA,NA,NA,NA,NA,NA,NA,NA,NA,NA,NA,NA,NA,NA
ac614,task,flow.Sequence,2_8,NA,NA,completion,1615.66,117128.69999999,117119.198,117135.823,118751.483,118752.60000002,2023-06-18T12:06:57Z,118768.153,Symbol,kielezo,s,kinyume,nderemo,utayari,NA,NA,NA,"c(""distractor1"", ""distractor2"", ""distractor3"")",NA,NA,NA,NA,NA,NA,NA,NA,NA,NA,NA,NA,NA,NA,NA,NA,NA,NA,NA
ac614,Shallow Question,html.Page,2_9_0_0,NA,NA,form submission,1310.1470000119,118752.69999999,118751.483,118768.153,120078.30000001,120078.5,2023-06-18T12:06:59Z,120083.491,Auftrag,uagizaji,d,ghanima,kuzingatia,msukani,uagizaji,NA,NA,"c(""distractor1"", ""distractor2"", ""distractor3"")",NA,NA,NA,NA,NA,NA,NA,NA,NA,NA,NA,NA,NA,NA,NA,NA,NA,NA,NA
ac614,Save data screen,canvas.Screen,2_9_0_1,NA,NA,timeout,499.864,120079,120067.453,120083.491,120566.665,120567.5,2023-06-18T12:06:59Z,120583.355,Auftrag,uagizaji,d,ghanima,kuzingatia,msukani,NA,NA,1,"c(""distractor1"", ""distractor2"", ""distractor3"")",NA,NA,NA,NA,NA,NA,NA,NA,NA,NA,NA,NA,NA,NA,NA,NA,NA,NA,NA
ac614,shallow,flow.Sequence,2_9_0,NA,NA,completion,1798.512,118752.69999999,118751.483,118768.153,120566.665,120567.90000004,2023-06-18T12:06:59Z,120583.355,Auftrag,uagizaji,d,ghanima,kuzingatia,msukani,NA,NA,NA,"c(""distractor1"", ""distractor2"", ""distractor3"")",NA,NA,NA,NA,NA,NA,NA,NA,NA,NA,NA,NA,NA,NA,NA,NA,NA,NA,NA
ac614,task,flow.Sequence,2_9,NA,NA,completion,1798.512,118752.69999999,118751.483,118768.153,120566.665,120568.30000001,2023-06-18T12:06:59Z,120583.355,Auftrag,uagizaji,d,ghanima,kuzingatia,msukani,NA,NA,NA,"c(""distractor1"", ""distractor2"", ""distractor3"")",NA,NA,NA,NA,NA,NA,NA,NA,NA,NA,NA,NA,NA,NA,NA,NA,NA,NA,NA
ac614,Shallow Question,html.Page,2_10_0_0,NA,NA,form submission,3860.145,120568.40000004,120566.665,120583.355,124443.5,124443.80000001,2023-06-18T12:07:03Z,124446.479,Vorsorge,tahadhari,d,ufafanuzi,makini,mashambani,tahadhari,NA,NA,"c(""distractor1"", ""distractor2"", ""distractor3"")",NA,NA,NA,NA,NA,NA,NA,NA,NA,NA,NA,NA,NA,NA,NA,NA,NA,NA,NA
ac614,Save data screen,canvas.Screen,2_10_0_1,NA,NA,timeout,499.60399999999,124445.19999999,124430.161,124446.479,124929.417,124930.40000004,2023-06-18T12:07:04Z,124946.083,Vorsorge,tahadhari,d,ufafanuzi,makini,mashambani,NA,NA,1,"c(""distractor1"", ""distractor2"", ""distractor3"")",NA,NA,NA,NA,NA,NA,NA,NA,NA,NA,NA,NA,NA,NA,NA,NA,NA,NA,NA
ac614,shallow,flow.Sequence,2_10_0,NA,NA,completion,4346.062,120568.40000004,120566.665,120583.355,124929.417,124930.69999999,2023-06-18T12:07:04Z,124946.083,Vorsorge,tahadhari,d,ufafanuzi,makini,mashambani,NA,NA,NA,"c(""distractor1"", ""distractor2"", ""distractor3"")",NA,NA,NA,NA,NA,NA,NA,NA,NA,NA,NA,NA,NA,NA,NA,NA,NA,NA,NA
ac614,task,flow.Sequence,2_10,NA,NA,completion,4346.062,120568.40000004,120566.665,120583.355,124929.417,124930.80000001,2023-06-18T12:07:04Z,124946.083,Vorsorge,tahadhari,d,ufafanuzi,makini,mashambani,NA,NA,NA,"c(""distractor1"", ""distractor2"", ""distractor3"")",NA,NA,NA,NA,NA,NA,NA,NA,NA,NA,NA,NA,NA,NA,NA,NA,NA,NA,NA
ac614,Shallow Question,html.Page,2_11_0_0,NA,NA,form submission,3098.417,124930.90000004,124929.417,124946.083,128044.5,128044.80000001,2023-06-18T12:07:07Z,128060.461,Zuwachs,nyongeza,s,matilaba,udhibiti,hudhurio,nyongeza,NA,NA,"c(""distractor1"", ""distractor2"", ""distractor3"")",NA,NA,NA,NA,NA,NA,NA,NA,NA,NA,NA,NA,NA,NA,NA,NA,NA,NA,NA
ac614,Save data screen,canvas.Screen,2_11_0_1,NA,NA,timeout,499.649,128046.10000002,128029.016,128060.461,128543.455,128544.10000002,2023-06-18T12:07:07Z,128560.11,Zuwachs,nyongeza,s,matilaba,udhibiti,hudhurio,NA,NA,1,"c(""distractor1"", ""distractor2"", ""distractor3"")",NA,NA,NA,NA,NA,NA,NA,NA,NA,NA,NA,NA,NA,NA,NA,NA,NA,NA,NA
ac614,shallow,flow.Sequence,2_11_0,NA,NA,completion,3597.372,124930.90000004,124929.417,124946.083,128543.455,128544.40000004,2023-06-18T12:07:07Z,128560.11,Zuwachs,nyongeza,s,matilaba,udhibiti,hudhurio,NA,NA,NA,"c(""distractor1"", ""distractor2"", ""distractor3"")",NA,NA,NA,NA,NA,NA,NA,NA,NA,NA,NA,NA,NA,NA,NA,NA,NA,NA,NA
ac614,task,flow.Sequence,2_11,NA,NA,completion,3597.372,124930.90000004,124929.417,124946.083,128543.455,128544.5,2023-06-18T12:07:07Z,128560.11,Zuwachs,nyongeza,s,matilaba,udhibiti,hudhurio,NA,NA,NA,"c(""distractor1"", ""distractor2"", ""distractor3"")",NA,NA,NA,NA,NA,NA,NA,NA,NA,NA,NA,NA,NA,NA,NA,NA,NA,NA,NA
ac614,Shallow Question,html.Page,2_12_0_0,NA,NA,form submission,2812.39,128544.69999999,128543.455,128560.11,131372.5,131372.80000001,2023-06-18T12:07:10Z,131374.101,Schönheit,kirembo,s,mahojiano,msisimko,jitihadi,kirembo,NA,NA,"c(""distractor1"", ""distractor2"", ""distractor3"")",NA,NA,NA,NA,NA,NA,NA,NA,NA,NA,NA,NA,NA,NA,NA,NA,NA,NA,NA
ac614,Save data screen,canvas.Screen,2_12_0_1,NA,NA,timeout,499.60800000001,131373.19999999,131357.817,131374.101,131857.491,131858.60000002,2023-06-18T12:07:11Z,131873.709,Schönheit,kirembo,s,mahojiano,msisimko,jitihadi,NA,NA,1,"c(""distractor1"", ""distractor2"", ""distractor3"")",NA,NA,NA,NA,NA,NA,NA,NA,NA,NA,NA,NA,NA,NA,NA,NA,NA,NA,NA
ac614,shallow,flow.Sequence,2_12_0,NA,NA,completion,3297.381,128544.69999999,128543.455,128560.11,131857.491,131858.80000001,2023-06-18T12:07:11Z,131873.709,Schönheit,kirembo,s,mahojiano,msisimko,jitihadi,NA,NA,NA,"c(""distractor1"", ""distractor2"", ""distractor3"")",NA,NA,NA,NA,NA,NA,NA,NA,NA,NA,NA,NA,NA,NA,NA,NA,NA,NA,NA
ac614,task,flow.Sequence,2_12,NA,NA,completion,3297.381,128544.69999999,128543.455,128560.11,131857.491,131859.10000002,2023-06-18T12:07:11Z,131873.709,Schönheit,kirembo,s,mahojiano,msisimko,jitihadi,NA,NA,NA,"c(""distractor1"", ""distractor2"", ""distractor3"")",NA,NA,NA,NA,NA,NA,NA,NA,NA,NA,NA,NA,NA,NA,NA,NA,NA,NA,NA
ac614,Shallow Question,html.Page,2_13_0_0,NA,NA,form submission,5307.791,131859.19999999,131857.491,131873.709,137181.5,137181.90000004,2023-06-18T12:07:16Z,137185.986,Ausschluss,kutengwa,d,ununuzi,taratibu,madeni,taratibu,NA,NA,"c(""distractor1"", ""distractor2"", ""distractor3"")",NA,NA,NA,NA,NA,NA,NA,NA,NA,NA,NA,NA,NA,NA,NA,NA,NA,NA,NA
ac614,Save data screen,canvas.Screen,2_13_0_1,NA,NA,timeout,499.976,137183.30000001,137171.296,137185.986,137669.305,137670.19999999,2023-06-18T12:07:16Z,137685.962,Ausschluss,kutengwa,d,ununuzi,taratibu,madeni,NA,NA,0,"c(""distractor1"", ""distractor2"", ""distractor3"")",NA,NA,NA,NA,NA,NA,NA,NA,NA,NA,NA,NA,NA,NA,NA,NA,NA,NA,NA
ac614,shallow,flow.Sequence,2_13_0,NA,NA,completion,5795.596,131859.19999999,131857.491,131873.709,137669.305,137670.60000002,2023-06-18T12:07:16Z,137685.962,Ausschluss,kutengwa,d,ununuzi,taratibu,madeni,NA,NA,NA,"c(""distractor1"", ""distractor2"", ""distractor3"")",NA,NA,NA,NA,NA,NA,NA,NA,NA,NA,NA,NA,NA,NA,NA,NA,NA,NA,NA
ac614,task,flow.Sequence,2_13,NA,NA,completion,5795.596,131859.10000002,131857.491,131873.709,137669.305,137670.90000004,2023-06-18T12:07:16Z,137685.962,Ausschluss,kutengwa,d,ununuzi,taratibu,madeni,NA,NA,NA,"c(""distractor1"", ""distractor2"", ""distractor3"")",NA,NA,NA,NA,NA,NA,NA,NA,NA,NA,NA,NA,NA,NA,NA,NA,NA,NA,NA
ac614,Shallow Question,html.Page,2_14_0_0,NA,NA,form submission,2135.7379999881,137671.10000002,137669.305,137685.962,139821.69999999,139821.80000001,2023-06-18T12:07:18Z,139833.922,Zufall,kikuti,s,kukosekana,uchoraji,leseni,kikuti,NA,NA,"c(""distractor1"", ""distractor2"", ""distractor3"")",NA,NA,NA,NA,NA,NA,NA,NA,NA,NA,NA,NA,NA,NA,NA,NA,NA,NA,NA
ac614,Save data screen,canvas.Screen,2_14_0_1,NA,NA,timeout,499.83199999999,139822.30000001,139817.747,139833.922,140317.258,140318.60000002,2023-06-18T12:07:19Z,140333.754,Zufall,kikuti,s,kukosekana,uchoraji,leseni,NA,NA,1,"c(""distractor1"", ""distractor2"", ""distractor3"")",NA,NA,NA,NA,NA,NA,NA,NA,NA,NA,NA,NA,NA,NA,NA,NA,NA,NA,NA
ac614,shallow,flow.Sequence,2_14_0,NA,NA,completion,2631.296,137671,137669.305,137685.962,140317.258,140318.80000001,2023-06-18T12:07:19Z,140333.754,Zufall,kikuti,s,kukosekana,uchoraji,leseni,NA,NA,NA,"c(""distractor1"", ""distractor2"", ""distractor3"")",NA,NA,NA,NA,NA,NA,NA,NA,NA,NA,NA,NA,NA,NA,NA,NA,NA,NA,NA
ac614,task,flow.Sequence,2_14,NA,NA,completion,2631.296,137671,137669.305,137685.962,140317.258,140319.10000002,2023-06-18T12:07:19Z,140333.754,Zufall,kikuti,s,kukosekana,uchoraji,leseni,NA,NA,NA,"c(""distractor1"", ""distractor2"", ""distractor3"")",NA,NA,NA,NA,NA,NA,NA,NA,NA,NA,NA,NA,NA,NA,NA,NA,NA,NA,NA
ac614,Shallow Question,html.Page,2_15_0_0,NA,NA,form submission,3196.746,140319.19999999,140317.258,140333.754,143530.5,143530.80000001,2023-06-18T12:07:22Z,143530.816,Beweis,ushahidi,d,marudio,kizuizi,mtendaji,ushahidi,NA,NA,"c(""distractor1"", ""distractor2"", ""distractor3"")",NA,NA,NA,NA,NA,NA,NA,NA,NA,NA,NA,NA,NA,NA,NA,NA,NA,NA,NA
ac614,Save data screen,canvas.Screen,2_15_0_1,NA,NA,timeout,499.636,143532.30000001,143514.568,143530.816,144014.054,144015.10000002,2023-06-18T12:07:23Z,144030.452,Beweis,ushahidi,d,marudio,kizuizi,mtendaji,NA,NA,1,"c(""distractor1"", ""distractor2"", ""distractor3"")",NA,NA,NA,NA,NA,NA,NA,NA,NA,NA,NA,NA,NA,NA,NA,NA,NA,NA,NA
ac614,shallow,flow.Sequence,2_15_0,NA,NA,completion,3680.3,140319.19999999,140317.258,140333.754,144014.054,144015.30000001,2023-06-18T12:07:23Z,144030.452,Beweis,ushahidi,d,marudio,kizuizi,mtendaji,NA,NA,NA,"c(""distractor1"", ""distractor2"", ""distractor3"")",NA,NA,NA,NA,NA,NA,NA,NA,NA,NA,NA,NA,NA,NA,NA,NA,NA,NA,NA
ac614,task,flow.Sequence,2_15,NA,NA,completion,3680.3,140319.10000002,140317.258,140333.754,144014.054,144015.5,2023-06-18T12:07:23Z,144030.452,Beweis,ushahidi,d,marudio,kizuizi,mtendaji,NA,NA,NA,"c(""distractor1"", ""distractor2"", ""distractor3"")",NA,NA,NA,NA,NA,NA,NA,NA,NA,NA,NA,NA,NA,NA,NA,NA,NA,NA,NA
ac614,retrieval block 2 (multiple choice),flow.Loop,2,NA,NA,completion,58868.566,85130.400000036,85128.951,85145.488,144014.054,144015.69999999,2023-06-18T12:07:23Z,144030.452,NA,NA,NA,NA,NA,NA,NA,NA,NA,"c(""distractor1"", ""distractor2"", ""distractor3"")",NA,NA,NA,NA,NA,NA,NA,NA,NA,NA,NA,NA,NA,NA,NA,NA,NA,NA,NA
ac614,End,canvas.Screen,3,NA,keypress(Space),response,1644.3480000119,144015.90000004,144014.054,144030.452,145674.80000001,145676.40000004,2023-06-18T12:07:24Z,145679.39,NA,NA,NA,NA,NA,NA,NA,NA,NA,NULL,NA,NA,NA,NA,NA,NA,NA,NA,NA,NA,NA,NA,NA,NA,NA,NA,NA,NA,NA
ac614,root,flow.Sequence,NA,NA,NA,completion,144443.74600001,1208.1999999881,1197.644,1231.054,145674.80000001,145677,2023-06-18T12:07:24Z,145679.39,NA,NA,NA,NA,NA,NA,NA,NA,NA,NULL,NA,NA,NA,NA,NA,NA,NA,NA,NA,NA,NA,NA,NA,NA,NA,NA,NA,NA,NA
