observation,sender,sender_type,sender_id,response,response_action,ended_on,duration,time_run,time_render,time_show,time_end,time_commit,timestamp,time_switch,distractors,german,swahili,enc,distractor1,distractor2,distractor3,response_2,x,correct,x_2,url_vp,url_sess,meta_labjs_version,meta_location,meta_user_agent,meta_platform,meta_language,meta_locale,meta_time_zone,meta_timezone_offset,meta_screen_width,meta_screen_height,meta_scroll_width,meta_scroll_height,meta_window_inner_width,meta_window_inner_height,meta_device_pixel_ratio,meta_labjs_build_flavor,meta_labjs_build_commit
aaf6a,Introduction general,canvas.Screen,0,weiter,keypress(q),response,1833.484,1086.5,1086.32,1103.516,2937,2937.8999999762,2023-04-27T16:02:47Z,2951.502,NULL,NA,NA,NA,NA,NA,NA,NA,NA,NA,NA,212,1,20.2.4,https://neurocog.fernuni.ch/studies/vweber/sfink/encoding_immediate/index.html?vp=212&sess=1,"Mozilla/5.0 (Windows NT 10.0; Win64; x64) AppleWebKit/537.36 (KHTML, like Gecko) Chrome/111.0.0.0 Safari/537.36",Win32,de-CH,de,Europe/Zurich,-120,1536,864,1536,706,1536,754,1.25,production,f5b4a49f956347addd546a832a3327688c2c0fef
aaf6a,Introduction practice,canvas.Screen,1_0,NA,keypress(Space),response,13061.198000048,2938.1000000238,2934.906,2951.502,16012.700000048,16013.700000048,2023-04-27T16:03:00Z,16024.177,NULL,NA,NA,NA,NA,NA,NA,NA,NA,NA,NA,NA,NA,NA,NA,NA,NA,NA,NA,NA,NA,NA,NA,NA,NA,NA,NA,NA,NA,NA
aaf6a,Deep Question,html.Page,1_1_0_0_0,NA,NA,form submission,16302.222999976,16014.200000048,16007.327,16024.177,32326.399999976,32326.600000024,2023-04-27T16:03:17Z,32327.332,"c(""distractor1"", ""distractor2"", ""distractor3"")",Qualität,mtindo,d,NA,NA,NA,qualität,NA,NA,NA,NA,NA,NA,NA,NA,NA,NA,NA,NA,NA,NA,NA,NA,NA,NA,NA,NA,NA,NA
aaf6a,"""Richtig""-Screen",canvas.Screen,1_1_0_0_1,NA,NA,skipped,NA,32328,NA,NA,32326.399999976,32328.300000072,2023-04-27T16:03:17Z,32327.332,"c(""distractor1"", ""distractor2"", ""distractor3"")",Qualität,mtindo,d,NA,NA,NA,NA,NA,NA,NA,NA,NA,NA,NA,NA,NA,NA,NA,NA,NA,NA,NA,NA,NA,NA,NA,NA,NA,NA
aaf6a,"""Falsch""-Screen",canvas.Screen,1_1_0_0_2,NA,NA,timeout,4996.025,32329.300000072,32311.272,32327.332,37307.146,37312.100000024,2023-04-27T16:03:22Z,37323.357,"c(""distractor1"", ""distractor2"", ""distractor3"")",Qualität,mtindo,d,NA,NA,NA,NA,NA,0,NA,NA,NA,NA,NA,NA,NA,NA,NA,NA,NA,NA,NA,NA,NA,NA,NA,NA,NA,NA
aaf6a,deep,flow.Sequence,1_1_0_0,NA,NA,completion,21282.969,16014.100000024,16007.327,16024.177,37307.146,37312.800000072,2023-04-27T16:03:22Z,37323.357,"c(""distractor1"", ""distractor2"", ""distractor3"")",Qualität,mtindo,d,NA,NA,NA,NA,NA,NA,NA,NA,NA,NA,NA,NA,NA,NA,NA,NA,NA,NA,NA,NA,NA,NA,NA,NA,NA,NA
aaf6a,shallow,flow.Sequence,1_1_0_1,NA,NA,skipped,NA,37313,NA,NA,37307.146,37313.200000048,2023-04-27T16:03:22Z,37323.357,"c(""distractor1"", ""distractor2"", ""distractor3"")",Qualität,mtindo,d,NA,NA,NA,NA,NA,NA,NA,NA,NA,NA,NA,NA,NA,NA,NA,NA,NA,NA,NA,NA,NA,NA,NA,NA,NA,NA
aaf6a,task,flow.Sequence,1_1_0,NA,NA,completion,21282.969,16014.100000024,16007.327,16024.177,37307.146,37313.5,2023-04-27T16:03:22Z,37323.357,"c(""distractor1"", ""distractor2"", ""distractor3"")",Qualität,mtindo,d,NA,NA,NA,NA,NA,NA,NA,NA,NA,NA,NA,NA,NA,NA,NA,NA,NA,NA,NA,NA,NA,NA,NA,NA,NA,NA
aaf6a,deep,flow.Sequence,1_1_1_0,NA,NA,skipped,NA,37313.800000072,NA,NA,37307.146,37314.100000024,2023-04-27T16:03:22Z,37323.357,"c(""distractor1"", ""distractor2"", ""distractor3"")",Gegenwart,hadhara,s,katiba,jokofu,mikopo,NA,NA,NA,NA,NA,NA,NA,NA,NA,NA,NA,NA,NA,NA,NA,NA,NA,NA,NA,NA,NA,NA,NA
aaf6a,Shallow Question,html.Page,1_1_1_1_0,NA,NA,form submission,5516.2430000238,37314.300000072,37307.146,37323.357,42839.600000024,42839.800000072,2023-04-27T16:03:27Z,42852.169,"c(""distractor1"", ""distractor2"", ""distractor3"")",Gegenwart,hadhara,s,katiba,jokofu,mikopo,jokofu,NA,NA,NA,NA,NA,NA,NA,NA,NA,NA,NA,NA,NA,NA,NA,NA,NA,NA,NA,NA,NA,NA
aaf6a,"""Richtig""-Screen",canvas.Screen,1_1_1_1_1,NA,NA,skipped,NA,42841.800000072,NA,NA,42839.600000024,42842,2023-04-27T16:03:27Z,42852.169,"c(""distractor1"", ""distractor2"", ""distractor3"")",Gegenwart,hadhara,s,katiba,jokofu,mikopo,NA,NA,NA,NA,NA,NA,NA,NA,NA,NA,NA,NA,NA,NA,NA,NA,NA,NA,NA,NA,NA,NA,NA
aaf6a,"""Falsch""-Screen",canvas.Screen,1_1_1_1_2,NA,NA,timeout,4996.209,42842.800000072,42835.409,42852.169,47831.848,47833,2023-04-27T16:03:32Z,47848.378,"c(""distractor1"", ""distractor2"", ""distractor3"")",Gegenwart,hadhara,s,katiba,jokofu,mikopo,NA,NA,0,NA,NA,NA,NA,NA,NA,NA,NA,NA,NA,NA,NA,NA,NA,NA,NA,NA,NA,NA,NA
aaf6a,shallow,flow.Sequence,1_1_1_1,NA,NA,completion,10508.491,37314.200000048,37307.146,37323.357,47831.848,47833.5,2023-04-27T16:03:32Z,47848.378,"c(""distractor1"", ""distractor2"", ""distractor3"")",Gegenwart,hadhara,s,katiba,jokofu,mikopo,NA,NA,NA,NA,NA,NA,NA,NA,NA,NA,NA,NA,NA,NA,NA,NA,NA,NA,NA,NA,NA,NA,NA
aaf6a,task,flow.Sequence,1_1_1,NA,NA,completion,10508.491,37313.700000048,37307.146,37323.357,47831.848,47833.899999976,2023-04-27T16:03:32Z,47848.378,"c(""distractor1"", ""distractor2"", ""distractor3"")",Gegenwart,hadhara,s,katiba,jokofu,mikopo,NA,NA,NA,NA,NA,NA,NA,NA,NA,NA,NA,NA,NA,NA,NA,NA,NA,NA,NA,NA,NA,NA,NA
aaf6a,Deep Question,html.Page,1_1_2_0_0,NA,NA,form submission,5075.8220000477,47834.200000048,47831.848,47848.378,52924.200000048,52924.300000072,2023-04-27T16:03:37Z,52927.038,"c(""distractor1"", ""distractor2"", ""distractor3"")",Schatten,kivuli,d,NA,NA,NA,njnjn,NA,NA,NA,NA,NA,NA,NA,NA,NA,NA,NA,NA,NA,NA,NA,NA,NA,NA,NA,NA,NA,NA
aaf6a,"""Richtig""-Screen",canvas.Screen,1_1_2_0_1,NA,NA,skipped,NA,52927,NA,NA,52924.200000048,52927.399999976,2023-04-27T16:03:37Z,52927.038,"c(""distractor1"", ""distractor2"", ""distractor3"")",Schatten,kivuli,d,NA,NA,NA,NA,NA,NA,NA,NA,NA,NA,NA,NA,NA,NA,NA,NA,NA,NA,NA,NA,NA,NA,NA,NA,NA,NA
aaf6a,"""Falsch""-Screen",canvas.Screen,1_1_2_0_2,NA,NA,timeout,4996.511,52928.100000024,52911.018,52927.038,57906.718,57907.800000072,2023-04-27T16:03:42Z,57923.549,"c(""distractor1"", ""distractor2"", ""distractor3"")",Schatten,kivuli,d,NA,NA,NA,NA,NA,0,NA,NA,NA,NA,NA,NA,NA,NA,NA,NA,NA,NA,NA,NA,NA,NA,NA,NA,NA,NA
aaf6a,deep,flow.Sequence,1_1_2_0,NA,NA,completion,10058.34,47834.200000048,47831.848,47848.378,57906.718,57908.300000072,2023-04-27T16:03:42Z,57923.549,"c(""distractor1"", ""distractor2"", ""distractor3"")",Schatten,kivuli,d,NA,NA,NA,NA,NA,NA,NA,NA,NA,NA,NA,NA,NA,NA,NA,NA,NA,NA,NA,NA,NA,NA,NA,NA,NA,NA
aaf6a,shallow,flow.Sequence,1_1_2_1,NA,NA,skipped,NA,57908.600000024,NA,NA,57906.718,57908.800000072,2023-04-27T16:03:42Z,57923.549,"c(""distractor1"", ""distractor2"", ""distractor3"")",Schatten,kivuli,d,NA,NA,NA,NA,NA,NA,NA,NA,NA,NA,NA,NA,NA,NA,NA,NA,NA,NA,NA,NA,NA,NA,NA,NA,NA,NA
aaf6a,task,flow.Sequence,1_1_2,NA,NA,completion,10058.34,47834.100000024,47831.848,47848.378,57906.718,57909,2023-04-27T16:03:42Z,57923.549,"c(""distractor1"", ""distractor2"", ""distractor3"")",Schatten,kivuli,d,NA,NA,NA,NA,NA,NA,NA,NA,NA,NA,NA,NA,NA,NA,NA,NA,NA,NA,NA,NA,NA,NA,NA,NA,NA,NA
aaf6a,Deep Question,html.Page,1_1_3_0_0,NA,NA,form submission,9402.7510000715,57909.200000048,57906.718,57923.549,67326.300000072,67326.5,2023-04-27T16:03:52Z,67331.89,"c(""distractor1"", ""distractor2"", ""distractor3"")",Gesundheit,salama,d,NA,NA,NA,sate,NA,NA,NA,NA,NA,NA,NA,NA,NA,NA,NA,NA,NA,NA,NA,NA,NA,NA,NA,NA,NA,NA
aaf6a,"""Richtig""-Screen",canvas.Screen,1_1_3_0_1,NA,NA,skipped,NA,67329.200000048,NA,NA,67326.300000072,67329.300000072,2023-04-27T16:03:52Z,67331.89,"c(""distractor1"", ""distractor2"", ""distractor3"")",Gesundheit,salama,d,NA,NA,NA,NA,NA,NA,NA,NA,NA,NA,NA,NA,NA,NA,NA,NA,NA,NA,NA,NA,NA,NA,NA,NA,NA,NA
aaf6a,"""Falsch""-Screen",canvas.Screen,1_1_3_0_2,NA,NA,timeout,4995.999,67330.200000048,67315.816,67331.89,72311.695,72312.700000048,2023-04-27T16:03:57Z,72327.889,"c(""distractor1"", ""distractor2"", ""distractor3"")",Gesundheit,salama,d,NA,NA,NA,NA,NA,0,NA,NA,NA,NA,NA,NA,NA,NA,NA,NA,NA,NA,NA,NA,NA,NA,NA,NA,NA,NA
aaf6a,deep,flow.Sequence,1_1_3_0,NA,NA,completion,14388.146,57909.200000048,57906.718,57923.549,72311.695,72313.200000048,2023-04-27T16:03:57Z,72327.889,"c(""distractor1"", ""distractor2"", ""distractor3"")",Gesundheit,salama,d,NA,NA,NA,NA,NA,NA,NA,NA,NA,NA,NA,NA,NA,NA,NA,NA,NA,NA,NA,NA,NA,NA,NA,NA,NA,NA
aaf6a,shallow,flow.Sequence,1_1_3_1,NA,NA,skipped,NA,72313.399999976,NA,NA,72311.695,72313.700000048,2023-04-27T16:03:57Z,72327.889,"c(""distractor1"", ""distractor2"", ""distractor3"")",Gesundheit,salama,d,NA,NA,NA,NA,NA,NA,NA,NA,NA,NA,NA,NA,NA,NA,NA,NA,NA,NA,NA,NA,NA,NA,NA,NA,NA,NA
aaf6a,task,flow.Sequence,1_1_3,NA,NA,completion,14388.146,57909.100000024,57906.718,57923.549,72311.695,72313.899999976,2023-04-27T16:03:57Z,72327.889,"c(""distractor1"", ""distractor2"", ""distractor3"")",Gesundheit,salama,d,NA,NA,NA,NA,NA,NA,NA,NA,NA,NA,NA,NA,NA,NA,NA,NA,NA,NA,NA,NA,NA,NA,NA,NA,NA,NA
aaf6a,deep,flow.Sequence,1_1_4_0,NA,NA,skipped,NA,72314.300000072,NA,NA,72311.695,72314.600000024,2023-04-27T16:03:57Z,72327.889,"c(""distractor1"", ""distractor2"", ""distractor3"")",Rückhalt,msaada,s,muhula,auwali,kiwimbe,NA,NA,NA,NA,NA,NA,NA,NA,NA,NA,NA,NA,NA,NA,NA,NA,NA,NA,NA,NA,NA,NA,NA
aaf6a,Shallow Question,html.Page,1_1_4_1_0,NA,NA,form submission,4425.8110000477,72315,72311.695,72327.889,76753.700000048,76754.200000048,2023-04-27T16:04:01Z,76757.555,"c(""distractor1"", ""distractor2"", ""distractor3"")",Rückhalt,msaada,s,muhula,auwali,kiwimbe,muhula,NA,NA,NA,NA,NA,NA,NA,NA,NA,NA,NA,NA,NA,NA,NA,NA,NA,NA,NA,NA,NA,NA
aaf6a,"""Richtig""-Screen",canvas.Screen,1_1_4_1_1,NA,NA,skipped,NA,76760.399999976,NA,NA,76753.700000048,76761,2023-04-27T16:04:01Z,76757.555,"c(""distractor1"", ""distractor2"", ""distractor3"")",Rückhalt,msaada,s,muhula,auwali,kiwimbe,NA,NA,NA,NA,NA,NA,NA,NA,NA,NA,NA,NA,NA,NA,NA,NA,NA,NA,NA,NA,NA,NA,NA
aaf6a,"""Falsch""-Screen",canvas.Screen,1_1_4_1_2,NA,NA,timeout,4995.838,76763,76741.416,76757.555,81736.787,81737.600000024,2023-04-27T16:04:06Z,81753.393,"c(""distractor1"", ""distractor2"", ""distractor3"")",Rückhalt,msaada,s,muhula,auwali,kiwimbe,NA,NA,0,NA,NA,NA,NA,NA,NA,NA,NA,NA,NA,NA,NA,NA,NA,NA,NA,NA,NA,NA,NA
aaf6a,shallow,flow.Sequence,1_1_4_1,NA,NA,completion,9408.898,72314.899999976,72311.695,72327.889,81736.787,81738.300000072,2023-04-27T16:04:06Z,81753.393,"c(""distractor1"", ""distractor2"", ""distractor3"")",Rückhalt,msaada,s,muhula,auwali,kiwimbe,NA,NA,NA,NA,NA,NA,NA,NA,NA,NA,NA,NA,NA,NA,NA,NA,NA,NA,NA,NA,NA,NA,NA
aaf6a,task,flow.Sequence,1_1_4,NA,NA,completion,9408.898,72314.200000048,72311.695,72327.889,81736.787,81738.800000072,2023-04-27T16:04:06Z,81753.393,"c(""distractor1"", ""distractor2"", ""distractor3"")",Rückhalt,msaada,s,muhula,auwali,kiwimbe,NA,NA,NA,NA,NA,NA,NA,NA,NA,NA,NA,NA,NA,NA,NA,NA,NA,NA,NA,NA,NA,NA,NA
aaf6a,deep,flow.Sequence,1_1_5_0,NA,NA,skipped,NA,81739.100000024,NA,NA,81736.787,81739.399999976,2023-04-27T16:04:06Z,81753.393,"c(""distractor1"", ""distractor2"", ""distractor3"")",Kritik,lawama,s,dereva,nafasi,mawazo,NA,NA,NA,NA,NA,NA,NA,NA,NA,NA,NA,NA,NA,NA,NA,NA,NA,NA,NA,NA,NA,NA,NA
aaf6a,Shallow Question,html.Page,1_1_5_1_0,NA,NA,form submission,5371.107,81739.800000072,81736.787,81753.393,87124.5,87124.800000072,2023-04-27T16:04:11Z,87132.409,"c(""distractor1"", ""distractor2"", ""distractor3"")",Kritik,lawama,s,dereva,nafasi,mawazo,lawama,NA,NA,NA,NA,NA,NA,NA,NA,NA,NA,NA,NA,NA,NA,NA,NA,NA,NA,NA,NA,NA,NA
aaf6a,"""Richtig""-Screen",canvas.Screen,1_1_5_1_1,NA,NA,timeout,5012.505,87126.700000048,87116.15,87132.409,92112.125,92113.200000048,2023-04-27T16:04:16Z,92144.914,"c(""distractor1"", ""distractor2"", ""distractor3"")",Kritik,lawama,s,dereva,nafasi,mawazo,NA,NA,1,NA,NA,NA,NA,NA,NA,NA,NA,NA,NA,NA,NA,NA,NA,NA,NA,NA,NA,NA,NA
aaf6a,"""Falsch""-Screen",canvas.Screen,1_1_5_1_2,NA,NA,skipped,NA,92118.800000072,NA,NA,92112.125,92119.300000072,2023-04-27T16:04:16Z,92144.914,"c(""distractor1"", ""distractor2"", ""distractor3"")",Kritik,lawama,s,dereva,nafasi,mawazo,NA,NA,NA,NA,NA,NA,NA,NA,NA,NA,NA,NA,NA,NA,NA,NA,NA,NA,NA,NA,NA,NA,NA
aaf6a,shallow,flow.Sequence,1_1_5_1,NA,NA,completion,10358.732,81739.600000024,81736.787,81753.393,92112.125,92119.600000024,2023-04-27T16:04:16Z,92144.914,"c(""distractor1"", ""distractor2"", ""distractor3"")",Kritik,lawama,s,dereva,nafasi,mawazo,NA,NA,NA,NA,NA,NA,NA,NA,NA,NA,NA,NA,NA,NA,NA,NA,NA,NA,NA,NA,NA,NA,NA
aaf6a,task,flow.Sequence,1_1_5,NA,NA,completion,10358.732,81739,81736.787,81753.393,92112.125,92120,2023-04-27T16:04:16Z,92144.914,"c(""distractor1"", ""distractor2"", ""distractor3"")",Kritik,lawama,s,dereva,nafasi,mawazo,NA,NA,NA,NA,NA,NA,NA,NA,NA,NA,NA,NA,NA,NA,NA,NA,NA,NA,NA,NA,NA,NA,NA
aaf6a,block,flow.Loop,1_1,NA,NA,completion,76087.948,16013.899999976,16007.327,16024.177,92112.125,92120.300000072,2023-04-27T16:04:16Z,92144.914,"c(""distractor1"", ""distractor2"", ""distractor3"")",NA,NA,NA,NA,NA,NA,NA,NA,NA,NA,NA,NA,NA,NA,NA,NA,NA,NA,NA,NA,NA,NA,NA,NA,NA,NA,NA,NA,NA
aaf6a,Practice,flow.Sequence,1,NA,NA,completion,89160.623,2938.1000000238,2934.906,2951.502,92112.125,92120.600000024,2023-04-27T16:04:16Z,92144.914,NULL,NA,NA,NA,NA,NA,NA,NA,NA,NA,NA,NA,NA,NA,NA,NA,NA,NA,NA,NA,NA,NA,NA,NA,NA,NA,NA,NA,NA,NA
aaf6a,Experiment start,canvas.Screen,2,weiter,keypress(q),response,24638.886000072,92120.800000072,92112.125,92144.914,116783.80000007,116789.20000005,2023-04-27T16:04:41Z,117041.085,NULL,NA,NA,NA,NA,NA,NA,NA,NA,NA,NA,NA,NA,NA,NA,NA,NA,NA,NA,NA,NA,NA,NA,NA,NA,NA,NA,NA,NA,NA
aaf6a,deep,flow.Sequence,3_0_0_0_0_0,NA,NA,skipped,NA,117028,NA,NA,116783.80000007,117028.20000005,2023-04-27T16:04:41Z,117041.085,NULL,Tester,wanaojaribu,s,sherti,sihiri,mlipuko,NA,sdf,NA,0,NA,NA,NA,NA,NA,NA,NA,NA,NA,NA,NA,NA,NA,NA,NA,NA,NA,NA,NA
aaf6a,Shallow Question,html.Page,3_0_0_0_0_1_0,NA,NA,form submission,4863.5150000238,117028.39999998,117023.531,117041.085,121904.60000002,121904.70000005,2023-04-27T16:04:46Z,121920.923,NULL,Tester,wanaojaribu,s,sherti,sihiri,mlipuko,sihiri,NA,NA,0,NA,NA,NA,NA,NA,NA,NA,NA,NA,NA,NA,NA,NA,NA,NA,NA,NA,NA,NA
aaf6a,"""Richtig""-Screen",canvas.Screen,3_0_0_0_0_1_1,NA,NA,skipped,NA,121906.5,NA,NA,121904.60000002,121906.60000002,2023-04-27T16:04:46Z,121920.923,NULL,Tester,wanaojaribu,s,sherti,sihiri,mlipuko,NA,sdf,NA,0,NA,NA,NA,NA,NA,NA,NA,NA,NA,NA,NA,NA,NA,NA,NA,NA,NA,NA,NA
aaf6a,"""Falsch""-Screen",canvas.Screen,3_0_0_0_0_1_2,NA,NA,timeout,4995.942,121907.20000005,121903.783,121920.923,126900.091,126901.20000005,2023-04-27T16:04:51Z,126916.865,NULL,Tester,wanaojaribu,s,sherti,sihiri,mlipuko,NA,sdf,0,0,NA,NA,NA,NA,NA,NA,NA,NA,NA,NA,NA,NA,NA,NA,NA,NA,NA,NA,NA
aaf6a,shallow,flow.Sequence,3_0_0_0_0_1,NA,NA,completion,9859.006,117028.39999998,117023.531,117041.085,126900.091,126901.60000002,2023-04-27T16:04:51Z,126916.865,NULL,Tester,wanaojaribu,s,sherti,sihiri,mlipuko,NA,sdf,NA,0,NA,NA,NA,NA,NA,NA,NA,NA,NA,NA,NA,NA,NA,NA,NA,NA,NA,NA,NA
aaf6a,task,flow.Sequence,3_0_0_0_0,NA,NA,completion,9859.006,117028,117023.531,117041.085,126900.091,126901.80000007,2023-04-27T16:04:51Z,126916.865,NULL,Tester,wanaojaribu,s,sherti,sihiri,mlipuko,NA,sdf,NA,0,NA,NA,NA,NA,NA,NA,NA,NA,NA,NA,NA,NA,NA,NA,NA,NA,NA,NA,NA
aaf6a,Deep Question,html.Page,3_0_0_0_1_0_0,NA,NA,form submission,3928.4350000715,126902,126900.091,126916.865,130845.30000007,130845.39999998,2023-04-27T16:04:55Z,130846.357,NULL,Fenster,dirisha,d,NA,NA,NA,f,NA,NA,0,NA,NA,NA,NA,NA,NA,NA,NA,NA,NA,NA,NA,NA,NA,NA,NA,NA,NA,NA
aaf6a,"""Richtig""-Screen",canvas.Screen,3_0_0_0_1_0_1,NA,NA,skipped,NA,130847.70000005,NA,NA,130845.30000007,130847.89999998,2023-04-27T16:04:55Z,130846.357,NULL,Fenster,dirisha,d,NA,NA,NA,NA,sdf,NA,0,NA,NA,NA,NA,NA,NA,NA,NA,NA,NA,NA,NA,NA,NA,NA,NA,NA,NA,NA
aaf6a,"""Falsch""-Screen",canvas.Screen,3_0_0_0_1_0_2,NA,NA,timeout,4996.177,130848.39999998,130830.269,130846.357,135826.161,135827.20000005,2023-04-27T16:05:00Z,135842.534,NULL,Fenster,dirisha,d,NA,NA,NA,NA,sdf,0,0,NA,NA,NA,NA,NA,NA,NA,NA,NA,NA,NA,NA,NA,NA,NA,NA,NA,NA,NA
aaf6a,deep,flow.Sequence,3_0_0_0_1_0,NA,NA,completion,8909.296,126901.89999998,126900.091,126916.865,135826.161,135827.60000002,2023-04-27T16:05:00Z,135842.534,NULL,Fenster,dirisha,d,NA,NA,NA,NA,sdf,NA,0,NA,NA,NA,NA,NA,NA,NA,NA,NA,NA,NA,NA,NA,NA,NA,NA,NA,NA,NA
aaf6a,shallow,flow.Sequence,3_0_0_0_1_1,NA,NA,skipped,NA,135827.70000005,NA,NA,135826.161,135827.89999998,2023-04-27T16:05:00Z,135842.534,NULL,Fenster,dirisha,d,NA,NA,NA,NA,sdf,NA,0,NA,NA,NA,NA,NA,NA,NA,NA,NA,NA,NA,NA,NA,NA,NA,NA,NA,NA,NA
aaf6a,task,flow.Sequence,3_0_0_0_1,NA,NA,completion,8909.296,126901.89999998,126900.091,126916.865,135826.161,135828.20000005,2023-04-27T16:05:00Z,135842.534,NULL,Fenster,dirisha,d,NA,NA,NA,NA,sdf,NA,0,NA,NA,NA,NA,NA,NA,NA,NA,NA,NA,NA,NA,NA,NA,NA,NA,NA,NA,NA
aaf6a,deep,flow.Sequence,3_0_0_0_2_0,NA,NA,skipped,NA,135828.30000007,NA,NA,135826.161,135828.39999998,2023-04-27T16:05:00Z,135842.534,NULL,Schüler,mwanafunzi,s,mwekezaji,matumizi,uaminifu,NA,sdf,NA,0,NA,NA,NA,NA,NA,NA,NA,NA,NA,NA,NA,NA,NA,NA,NA,NA,NA,NA,NA
aaf6a,Shallow Question,html.Page,3_0_0_0_2_1_0,NA,NA,form submission,2830.466,135828.5,135826.161,135842.534,138673,138673.39999998,2023-04-27T16:05:03Z,138700.244,NULL,Schüler,mwanafunzi,s,mwekezaji,matumizi,uaminifu,mwekezaji,NA,NA,0,NA,NA,NA,NA,NA,NA,NA,NA,NA,NA,NA,NA,NA,NA,NA,NA,NA,NA,NA
aaf6a,"""Richtig""-Screen",canvas.Screen,3_0_0_0_2_1_1,NA,NA,skipped,NA,138675.10000002,NA,NA,138673,138675.10000002,2023-04-27T16:05:03Z,138700.244,NULL,Schüler,mwanafunzi,s,mwekezaji,matumizi,uaminifu,NA,sdf,NA,0,NA,NA,NA,NA,NA,NA,NA,NA,NA,NA,NA,NA,NA,NA,NA,NA,NA,NA,NA
aaf6a,"""Falsch""-Screen",canvas.Screen,3_0_0_0_2_1_2,NA,NA,timeout,5002.203,138675.60000002,138656.687,138700.244,143685.793,143686.10000002,2023-04-27T16:05:08Z,143702.447,NULL,Schüler,mwanafunzi,s,mwekezaji,matumizi,uaminifu,NA,sdf,0,0,NA,NA,NA,NA,NA,NA,NA,NA,NA,NA,NA,NA,NA,NA,NA,NA,NA,NA,NA
aaf6a,shallow,flow.Sequence,3_0_0_0_2_1,NA,NA,completion,7843.259,135828.5,135826.161,135842.534,143685.793,143686.39999998,2023-04-27T16:05:08Z,143702.447,NULL,Schüler,mwanafunzi,s,mwekezaji,matumizi,uaminifu,NA,sdf,NA,0,NA,NA,NA,NA,NA,NA,NA,NA,NA,NA,NA,NA,NA,NA,NA,NA,NA,NA,NA
aaf6a,task,flow.Sequence,3_0_0_0_2,NA,NA,completion,7843.259,135828.30000007,135826.161,135842.534,143685.793,143686.39999998,2023-04-27T16:05:08Z,143702.447,NULL,Schüler,mwanafunzi,s,mwekezaji,matumizi,uaminifu,NA,sdf,NA,0,NA,NA,NA,NA,NA,NA,NA,NA,NA,NA,NA,NA,NA,NA,NA,NA,NA,NA,NA
aaf6a,Deep Question,html.Page,3_0_0_0_3_0_0,NA,NA,form submission,4864.7530000477,143686.5,143685.793,143702.447,148567.20000005,148567.39999998,2023-04-27T16:05:13Z,148582.344,NULL,Zuwachs,nyongeza,d,NA,NA,NA,b,NA,NA,0,NA,NA,NA,NA,NA,NA,NA,NA,NA,NA,NA,NA,NA,NA,NA,NA,NA,NA,NA
aaf6a,"""Richtig""-Screen",canvas.Screen,3_0_0_0_3_0_1,NA,NA,skipped,NA,148569.60000002,NA,NA,148567.20000005,148569.60000002,2023-04-27T16:05:13Z,148582.344,NULL,Zuwachs,nyongeza,d,NA,NA,NA,NA,sdf,NA,0,NA,NA,NA,NA,NA,NA,NA,NA,NA,NA,NA,NA,NA,NA,NA,NA,NA,NA,NA
aaf6a,"""Falsch""-Screen",canvas.Screen,3_0_0_0_3_0_2,NA,NA,timeout,4995.818,148570.20000005,148565.264,148582.344,153561.473,153562.5,2023-04-27T16:05:18Z,153578.162,NULL,Zuwachs,nyongeza,d,NA,NA,NA,NA,sdf,0,0,NA,NA,NA,NA,NA,NA,NA,NA,NA,NA,NA,NA,NA,NA,NA,NA,NA,NA,NA
aaf6a,deep,flow.Sequence,3_0_0_0_3_0,NA,NA,completion,9859.026,143686.5,143685.793,143702.447,153561.473,153563,2023-04-27T16:05:18Z,153578.162,NULL,Zuwachs,nyongeza,d,NA,NA,NA,NA,sdf,NA,0,NA,NA,NA,NA,NA,NA,NA,NA,NA,NA,NA,NA,NA,NA,NA,NA,NA,NA,NA
aaf6a,shallow,flow.Sequence,3_0_0_0_3_1,NA,NA,skipped,NA,153563.20000005,NA,NA,153561.473,153563.39999998,2023-04-27T16:05:18Z,153578.162,NULL,Zuwachs,nyongeza,d,NA,NA,NA,NA,sdf,NA,0,NA,NA,NA,NA,NA,NA,NA,NA,NA,NA,NA,NA,NA,NA,NA,NA,NA,NA,NA
aaf6a,task,flow.Sequence,3_0_0_0_3,NA,NA,completion,9859.026,143686.5,143685.793,143702.447,153561.473,153563.60000002,2023-04-27T16:05:18Z,153578.162,NULL,Zuwachs,nyongeza,d,NA,NA,NA,NA,sdf,NA,0,NA,NA,NA,NA,NA,NA,NA,NA,NA,NA,NA,NA,NA,NA,NA,NA,NA,NA,NA
aaf6a,Deep Question,html.Page,3_0_0_0_4_0_0,NA,NA,form submission,4824.338,153563.80000007,153561.473,153578.162,158402.5,158402.60000002,2023-04-27T16:05:23Z,158407.013,NULL,Symbol,kielezo,d,NA,NA,NA,m,NA,NA,0,NA,NA,NA,NA,NA,NA,NA,NA,NA,NA,NA,NA,NA,NA,NA,NA,NA,NA,NA
aaf6a,"""Richtig""-Screen",canvas.Screen,3_0_0_0_4_0_1,NA,NA,skipped,NA,158404.60000002,NA,NA,158402.5,158404.70000005,2023-04-27T16:05:23Z,158407.013,NULL,Symbol,kielezo,d,NA,NA,NA,NA,sdf,NA,0,NA,NA,NA,NA,NA,NA,NA,NA,NA,NA,NA,NA,NA,NA,NA,NA,NA,NA,NA
aaf6a,"""Falsch""-Screen",canvas.Screen,3_0_0_0_4_0_2,NA,NA,timeout,4996.501,158405.30000007,158390.999,158407.013,163386.853,163387.80000007,2023-04-27T16:05:28Z,163403.514,NULL,Symbol,kielezo,d,NA,NA,NA,NA,sdf,0,0,NA,NA,NA,NA,NA,NA,NA,NA,NA,NA,NA,NA,NA,NA,NA,NA,NA,NA,NA
aaf6a,deep,flow.Sequence,3_0_0_0_4_0,NA,NA,completion,9808.691,153563.80000007,153561.473,153578.162,163386.853,163388.30000007,2023-04-27T16:05:28Z,163403.514,NULL,Symbol,kielezo,d,NA,NA,NA,NA,sdf,NA,0,NA,NA,NA,NA,NA,NA,NA,NA,NA,NA,NA,NA,NA,NA,NA,NA,NA,NA,NA
aaf6a,shallow,flow.Sequence,3_0_0_0_4_1,NA,NA,skipped,NA,163388.39999998,NA,NA,163386.853,163388.60000002,2023-04-27T16:05:28Z,163403.514,NULL,Symbol,kielezo,d,NA,NA,NA,NA,sdf,NA,0,NA,NA,NA,NA,NA,NA,NA,NA,NA,NA,NA,NA,NA,NA,NA,NA,NA,NA,NA
aaf6a,task,flow.Sequence,3_0_0_0_4,NA,NA,completion,9808.691,153563.80000007,153561.473,153578.162,163386.853,163388.89999998,2023-04-27T16:05:28Z,163403.514,NULL,Symbol,kielezo,d,NA,NA,NA,NA,sdf,NA,0,NA,NA,NA,NA,NA,NA,NA,NA,NA,NA,NA,NA,NA,NA,NA,NA,NA,NA,NA
aaf6a,Deep Question,html.Page,3_0_0_0_5_0_0,NA,NA,form submission,2999.0860000238,163389.10000002,163386.853,163403.514,166402.60000002,166402.80000007,2023-04-27T16:05:31Z,166417.088,NULL,Spionage,upelelezi,d,NA,NA,NA,m,NA,NA,0,NA,NA,NA,NA,NA,NA,NA,NA,NA,NA,NA,NA,NA,NA,NA,NA,NA,NA,NA
aaf6a,"""Richtig""-Screen",canvas.Screen,3_0_0_0_5_0_1,NA,NA,skipped,NA,166404.60000002,NA,NA,166402.60000002,166404.70000005,2023-04-27T16:05:31Z,166417.088,NULL,Spionage,upelelezi,d,NA,NA,NA,NA,sdf,NA,0,NA,NA,NA,NA,NA,NA,NA,NA,NA,NA,NA,NA,NA,NA,NA,NA,NA,NA,NA
aaf6a,"""Falsch""-Screen",canvas.Screen,3_0_0_0_5_0_2,NA,NA,timeout,4996.056,166405.30000007,166401.079,166417.088,171396.956,171398.10000002,2023-04-27T16:05:36Z,171413.144,NULL,Spionage,upelelezi,d,NA,NA,NA,NA,sdf,0,0,NA,NA,NA,NA,NA,NA,NA,NA,NA,NA,NA,NA,NA,NA,NA,NA,NA,NA,NA
aaf6a,deep,flow.Sequence,3_0_0_0_5_0,NA,NA,completion,7993.442,163389.10000002,163386.853,163403.514,171396.956,171398.60000002,2023-04-27T16:05:36Z,171413.144,NULL,Spionage,upelelezi,d,NA,NA,NA,NA,sdf,NA,0,NA,NA,NA,NA,NA,NA,NA,NA,NA,NA,NA,NA,NA,NA,NA,NA,NA,NA,NA
aaf6a,shallow,flow.Sequence,3_0_0_0_5_1,NA,NA,skipped,NA,171398.80000007,NA,NA,171396.956,171399,2023-04-27T16:05:36Z,171413.144,NULL,Spionage,upelelezi,d,NA,NA,NA,NA,sdf,NA,0,NA,NA,NA,NA,NA,NA,NA,NA,NA,NA,NA,NA,NA,NA,NA,NA,NA,NA,NA
aaf6a,task,flow.Sequence,3_0_0_0_5,NA,NA,completion,7993.442,163389,163386.853,163403.514,171396.956,171399.20000005,2023-04-27T16:05:36Z,171413.144,NULL,Spionage,upelelezi,d,NA,NA,NA,NA,sdf,NA,0,NA,NA,NA,NA,NA,NA,NA,NA,NA,NA,NA,NA,NA,NA,NA,NA,NA,NA,NA
aaf6a,deep,flow.Sequence,3_0_0_0_6_0,NA,NA,skipped,NA,171399.39999998,NA,NA,171396.956,171399.5,2023-04-27T16:05:36Z,171413.144,NULL,Vorsorge,tahadhari,s,ufafanuzi,makini,mashambani,NA,sdf,NA,0,NA,NA,NA,NA,NA,NA,NA,NA,NA,NA,NA,NA,NA,NA,NA,NA,NA,NA,NA
aaf6a,Shallow Question,html.Page,3_0_0_0_6_1_0,NA,NA,form submission,5729.1560000715,171399.70000005,171396.956,171413.144,177142.30000007,177142.60000002,2023-04-27T16:05:41Z,177158.817,NULL,Vorsorge,tahadhari,s,ufafanuzi,makini,mashambani,tahadhari,NA,NA,0,NA,NA,NA,NA,NA,NA,NA,NA,NA,NA,NA,NA,NA,NA,NA,NA,NA,NA,NA
aaf6a,"""Richtig""-Screen",canvas.Screen,3_0_0_0_6_1_1,NA,NA,timeout,4995.404,177144.5,177125.485,177158.817,182138.035,182139.10000002,2023-04-27T16:05:46Z,182154.221,NULL,Vorsorge,tahadhari,s,ufafanuzi,makini,mashambani,NA,sdf,1,0,NA,NA,NA,NA,NA,NA,NA,NA,NA,NA,NA,NA,NA,NA,NA,NA,NA,NA,NA
aaf6a,"""Falsch""-Screen",canvas.Screen,3_0_0_0_6_1_2,NA,NA,skipped,NA,182144.5,NA,NA,182138.035,182144.70000005,2023-04-27T16:05:46Z,182154.221,NULL,Vorsorge,tahadhari,s,ufafanuzi,makini,mashambani,NA,sdf,NA,0,NA,NA,NA,NA,NA,NA,NA,NA,NA,NA,NA,NA,NA,NA,NA,NA,NA,NA,NA
aaf6a,shallow,flow.Sequence,3_0_0_0_6_1,NA,NA,completion,10724.891,171399.70000005,171396.956,171413.144,182138.035,182145.30000007,2023-04-27T16:05:46Z,182154.221,NULL,Vorsorge,tahadhari,s,ufafanuzi,makini,mashambani,NA,sdf,NA,0,NA,NA,NA,NA,NA,NA,NA,NA,NA,NA,NA,NA,NA,NA,NA,NA,NA,NA,NA
aaf6a,task,flow.Sequence,3_0_0_0_6,NA,NA,completion,10724.891,171399.30000007,171396.956,171413.144,182138.035,182145.5,2023-04-27T16:05:46Z,182154.221,NULL,Vorsorge,tahadhari,s,ufafanuzi,makini,mashambani,NA,sdf,NA,0,NA,NA,NA,NA,NA,NA,NA,NA,NA,NA,NA,NA,NA,NA,NA,NA,NA,NA,NA
aaf6a,deep,flow.Sequence,3_0_0_0_7_0,NA,NA,skipped,NA,182145.70000005,NA,NA,182138.035,182145.89999998,2023-04-27T16:05:46Z,182154.221,NULL,Konkurrent,mshindani,s,msemaji,mvutaji,kipukusa,NA,sdf,NA,0,NA,NA,NA,NA,NA,NA,NA,NA,NA,NA,NA,NA,NA,NA,NA,NA,NA,NA,NA
aaf6a,Shallow Question,html.Page,3_0_0_0_7_1_0,NA,NA,form submission,3730.3790000239,182146.10000002,182138.035,182154.221,185884.60000002,185884.80000007,2023-04-27T16:05:50Z,185920.941,NULL,Konkurrent,mshindani,s,msemaji,mvutaji,kipukusa,kipukusa,NA,NA,0,NA,NA,NA,NA,NA,NA,NA,NA,NA,NA,NA,NA,NA,NA,NA,NA,NA,NA,NA
aaf6a,"""Richtig""-Screen",canvas.Screen,3_0_0_0_7_1_1,NA,NA,skipped,NA,185886.60000002,NA,NA,185884.60000002,185886.70000005,2023-04-27T16:05:50Z,185920.941,NULL,Konkurrent,mshindani,s,msemaji,mvutaji,kipukusa,NA,sdf,NA,0,NA,NA,NA,NA,NA,NA,NA,NA,NA,NA,NA,NA,NA,NA,NA,NA,NA,NA,NA
aaf6a,"""Falsch""-Screen",canvas.Screen,3_0_0_0_7_1_2,NA,NA,timeout,4992.744,185887.20000005,185868.379,185920.941,190897.595,190898.70000005,2023-04-27T16:05:55Z,190913.685,NULL,Konkurrent,mshindani,s,msemaji,mvutaji,kipukusa,NA,sdf,0,0,NA,NA,NA,NA,NA,NA,NA,NA,NA,NA,NA,NA,NA,NA,NA,NA,NA,NA,NA
aaf6a,shallow,flow.Sequence,3_0_0_0_7_1,NA,NA,completion,8743.374,182146,182138.035,182154.221,190897.595,190899,2023-04-27T16:05:55Z,190913.685,NULL,Konkurrent,mshindani,s,msemaji,mvutaji,kipukusa,NA,sdf,NA,0,NA,NA,NA,NA,NA,NA,NA,NA,NA,NA,NA,NA,NA,NA,NA,NA,NA,NA,NA
aaf6a,task,flow.Sequence,3_0_0_0_7,NA,NA,completion,8743.374,182145.70000005,182138.035,182154.221,190897.595,190899.39999998,2023-04-27T16:05:55Z,190913.685,NULL,Konkurrent,mshindani,s,msemaji,mvutaji,kipukusa,NA,sdf,NA,0,NA,NA,NA,NA,NA,NA,NA,NA,NA,NA,NA,NA,NA,NA,NA,NA,NA,NA,NA
aaf6a,block,flow.Loop,3_0_0_0,NA,NA,completion,73856.51,117027.89999998,117023.531,117041.085,190897.595,190899.70000005,2023-04-27T16:05:55Z,190913.685,NULL,NA,NA,NA,NA,NA,NA,NA,sdf,NA,0,NA,NA,NA,NA,NA,NA,NA,NA,NA,NA,NA,NA,NA,NA,NA,NA,NA,NA,NA
aaf6a,weiter,canvas.Screen,3_0_0_1,sdf,keypress(Space),response,1808.7149999762,190899.89999998,190897.595,190913.685,192722.39999998,192723.80000007,2023-04-27T16:05:57Z,192828.786,NULL,NA,NA,NA,NA,NA,NA,NA,sdf,NA,0,NA,NA,NA,NA,NA,NA,NA,NA,NA,NA,NA,NA,NA,NA,NA,NA,NA,NA,NA
aaf6a,check continue,flow.Sequence,3_0_0,NA,NA,completion,75681.314999976,117027.80000007,117023.531,117041.085,192722.39999998,192724.20000005,2023-04-27T16:05:57Z,192828.786,NULL,NA,NA,NA,NA,NA,NA,NA,sdf,NA,0,NA,NA,NA,NA,NA,NA,NA,NA,NA,NA,NA,NA,NA,NA,NA,NA,NA,NA,NA
aaf6a,Deep Question,html.Page,3_0_1_0_0_0_0,NA,NA,form submission,5790.214,192820,192812.506,192828.786,198619,198619.10000002,2023-04-27T16:06:03Z,198623.954,NULL,Spionage,upelelezi,d,NA,NA,NA,m,NA,NA,1,NA,NA,NA,NA,NA,NA,NA,NA,NA,NA,NA,NA,NA,NA,NA,NA,NA,NA,NA
aaf6a,"""Richtig""-Screen",canvas.Screen,3_0_1_0_0_0_1,NA,NA,skipped,NA,198621,NA,NA,198619,198621.20000005,2023-04-27T16:06:03Z,198623.954,NULL,Spionage,upelelezi,d,NA,NA,NA,NA,sdfdsf,NA,1,NA,NA,NA,NA,NA,NA,NA,NA,NA,NA,NA,NA,NA,NA,NA,NA,NA,NA,NA
aaf6a,"""Falsch""-Screen",canvas.Screen,3_0_1_0_0_0_2,NA,NA,timeout,4996.413,198621.80000007,198607.391,198623.954,203603.307,203604.10000002,2023-04-27T16:06:08Z,203620.367,NULL,Spionage,upelelezi,d,NA,NA,NA,NA,sdfdsf,0,1,NA,NA,NA,NA,NA,NA,NA,NA,NA,NA,NA,NA,NA,NA,NA,NA,NA,NA,NA
aaf6a,deep,flow.Sequence,3_0_1_0_0_0,NA,NA,completion,10774.521,192819.89999998,192812.506,192828.786,203603.307,203604.5,2023-04-27T16:06:08Z,203620.367,NULL,Spionage,upelelezi,d,NA,NA,NA,NA,sdfdsf,NA,1,NA,NA,NA,NA,NA,NA,NA,NA,NA,NA,NA,NA,NA,NA,NA,NA,NA,NA,NA
aaf6a,shallow,flow.Sequence,3_0_1_0_0_1,NA,NA,skipped,NA,203604.70000005,NA,NA,203603.307,203604.89999998,2023-04-27T16:06:08Z,203620.367,NULL,Spionage,upelelezi,d,NA,NA,NA,NA,sdfdsf,NA,1,NA,NA,NA,NA,NA,NA,NA,NA,NA,NA,NA,NA,NA,NA,NA,NA,NA,NA,NA
aaf6a,task,flow.Sequence,3_0_1_0_0,NA,NA,completion,10774.521,192819.89999998,192812.506,192828.786,203603.307,203605.20000005,2023-04-27T16:06:08Z,203620.367,NULL,Spionage,upelelezi,d,NA,NA,NA,NA,sdfdsf,NA,1,NA,NA,NA,NA,NA,NA,NA,NA,NA,NA,NA,NA,NA,NA,NA,NA,NA,NA,NA
aaf6a,deep,flow.Sequence,3_0_1_0_1_0,NA,NA,skipped,NA,203605.30000007,NA,NA,203603.307,203605.5,2023-04-27T16:06:08Z,203620.367,NULL,Konkurrent,mshindani,s,msemaji,mvutaji,kipukusa,NA,sdfdsf,NA,1,NA,NA,NA,NA,NA,NA,NA,NA,NA,NA,NA,NA,NA,NA,NA,NA,NA,NA,NA
aaf6a,Shallow Question,html.Page,3_0_1_0_1_1_0,NA,NA,form submission,3778.133,203605.70000005,203603.307,203620.367,207398.5,207398.70000005,2023-04-27T16:06:12Z,207400.088,NULL,Konkurrent,mshindani,s,msemaji,mvutaji,kipukusa,mshindani,NA,NA,1,NA,NA,NA,NA,NA,NA,NA,NA,NA,NA,NA,NA,NA,NA,NA,NA,NA,NA,NA
aaf6a,"""Richtig""-Screen",canvas.Screen,3_0_1_0_1_1_1,NA,NA,timeout,4995.949,207400.70000005,207384.024,207400.088,212379.928,212380.89999998,2023-04-27T16:06:17Z,212396.037,NULL,Konkurrent,mshindani,s,msemaji,mvutaji,kipukusa,NA,sdfdsf,1,1,NA,NA,NA,NA,NA,NA,NA,NA,NA,NA,NA,NA,NA,NA,NA,NA,NA,NA,NA
aaf6a,"""Falsch""-Screen",canvas.Screen,3_0_1_0_1_1_2,NA,NA,skipped,NA,212386.30000007,NA,NA,212379.928,212386.60000002,2023-04-27T16:06:17Z,212396.037,NULL,Konkurrent,mshindani,s,msemaji,mvutaji,kipukusa,NA,sdfdsf,NA,1,NA,NA,NA,NA,NA,NA,NA,NA,NA,NA,NA,NA,NA,NA,NA,NA,NA,NA,NA
aaf6a,shallow,flow.Sequence,3_0_1_0_1_1,NA,NA,completion,8759.561,203605.70000005,203603.307,203620.367,212379.928,212387.20000005,2023-04-27T16:06:17Z,212396.037,NULL,Konkurrent,mshindani,s,msemaji,mvutaji,kipukusa,NA,sdfdsf,NA,1,NA,NA,NA,NA,NA,NA,NA,NA,NA,NA,NA,NA,NA,NA,NA,NA,NA,NA,NA
aaf6a,task,flow.Sequence,3_0_1_0_1,NA,NA,completion,8759.561,203605.30000007,203603.307,203620.367,212379.928,212387.5,2023-04-27T16:06:17Z,212396.037,NULL,Konkurrent,mshindani,s,msemaji,mvutaji,kipukusa,NA,sdfdsf,NA,1,NA,NA,NA,NA,NA,NA,NA,NA,NA,NA,NA,NA,NA,NA,NA,NA,NA,NA,NA
aaf6a,deep,flow.Sequence,3_0_1_0_2_0,NA,NA,skipped,NA,212387.70000005,NA,NA,212379.928,212387.80000007,2023-04-27T16:06:17Z,212396.037,NULL,Tester,wanaojaribu,s,sherti,sihiri,mlipuko,NA,sdfdsf,NA,1,NA,NA,NA,NA,NA,NA,NA,NA,NA,NA,NA,NA,NA,NA,NA,NA,NA,NA,NA
aaf6a,Shallow Question,html.Page,3_0_1_0_2_1_0,NA,NA,form submission,5649.5630000238,212388,212379.928,212396.037,218045.60000002,218045.80000007,2023-04-27T16:06:22Z,218058.344,NULL,Tester,wanaojaribu,s,sherti,sihiri,mlipuko,sherti,NA,NA,1,NA,NA,NA,NA,NA,NA,NA,NA,NA,NA,NA,NA,NA,NA,NA,NA,NA,NA,NA
aaf6a,"""Richtig""-Screen",canvas.Screen,3_0_1_0_2_1_1,NA,NA,skipped,NA,218048.20000005,NA,NA,218045.60000002,218048.30000007,2023-04-27T16:06:22Z,218058.344,NULL,Tester,wanaojaribu,s,sherti,sihiri,mlipuko,NA,sdfdsf,NA,1,NA,NA,NA,NA,NA,NA,NA,NA,NA,NA,NA,NA,NA,NA,NA,NA,NA,NA,NA
aaf6a,"""Falsch""-Screen",canvas.Screen,3_0_1_0_2_1_2,NA,NA,timeout,4996.098,218048.89999998,218041.851,218058.344,223037.822,223038.80000007,2023-04-27T16:06:27Z,223054.442,NULL,Tester,wanaojaribu,s,sherti,sihiri,mlipuko,NA,sdfdsf,0,1,NA,NA,NA,NA,NA,NA,NA,NA,NA,NA,NA,NA,NA,NA,NA,NA,NA,NA,NA
aaf6a,shallow,flow.Sequence,3_0_1_0_2_1,NA,NA,completion,10641.785,212388,212379.928,212396.037,223037.822,223039.30000007,2023-04-27T16:06:27Z,223054.442,NULL,Tester,wanaojaribu,s,sherti,sihiri,mlipuko,NA,sdfdsf,NA,1,NA,NA,NA,NA,NA,NA,NA,NA,NA,NA,NA,NA,NA,NA,NA,NA,NA,NA,NA
aaf6a,task,flow.Sequence,3_0_1_0_2,NA,NA,completion,10641.785,212387.70000005,212379.928,212396.037,223037.822,223039.5,2023-04-27T16:06:27Z,223054.442,NULL,Tester,wanaojaribu,s,sherti,sihiri,mlipuko,NA,sdfdsf,NA,1,NA,NA,NA,NA,NA,NA,NA,NA,NA,NA,NA,NA,NA,NA,NA,NA,NA,NA,NA
aaf6a,deep,flow.Sequence,3_0_1_0_3_0,NA,NA,skipped,NA,223039.70000005,NA,NA,223037.822,223039.89999998,2023-04-27T16:06:27Z,223054.442,NULL,Vorsorge,tahadhari,s,ufafanuzi,makini,mashambani,NA,sdfdsf,NA,1,NA,NA,NA,NA,NA,NA,NA,NA,NA,NA,NA,NA,NA,NA,NA,NA,NA,NA,NA
aaf6a,Shallow Question,html.Page,3_0_1_0_3_1_0,NA,NA,form submission,4290.4579999761,223040,223037.822,223054.442,227344.89999998,227345.10000002,2023-04-27T16:06:32Z,227350.327,NULL,Vorsorge,tahadhari,s,ufafanuzi,makini,mashambani,tahadhari,NA,NA,1,NA,NA,NA,NA,NA,NA,NA,NA,NA,NA,NA,NA,NA,NA,NA,NA,NA,NA,NA
aaf6a,"""Richtig""-Screen",canvas.Screen,3_0_1_0_3_1_1,NA,NA,timeout,4996.011,227347,227334.092,227350.327,232330.189,232331.30000007,2023-04-27T16:06:37Z,232346.338,NULL,Vorsorge,tahadhari,s,ufafanuzi,makini,mashambani,NA,sdfdsf,1,1,NA,NA,NA,NA,NA,NA,NA,NA,NA,NA,NA,NA,NA,NA,NA,NA,NA,NA,NA
aaf6a,"""Falsch""-Screen",canvas.Screen,3_0_1_0_3_1_2,NA,NA,skipped,NA,232336.5,NA,NA,232330.189,232336.89999998,2023-04-27T16:06:37Z,232346.338,NULL,Vorsorge,tahadhari,s,ufafanuzi,makini,mashambani,NA,sdfdsf,NA,1,NA,NA,NA,NA,NA,NA,NA,NA,NA,NA,NA,NA,NA,NA,NA,NA,NA,NA,NA
aaf6a,shallow,flow.Sequence,3_0_1_0_3_1,NA,NA,completion,9275.747,223040,223037.822,223054.442,232330.189,232337.39999998,2023-04-27T16:06:37Z,232346.338,NULL,Vorsorge,tahadhari,s,ufafanuzi,makini,mashambani,NA,sdfdsf,NA,1,NA,NA,NA,NA,NA,NA,NA,NA,NA,NA,NA,NA,NA,NA,NA,NA,NA,NA,NA
aaf6a,task,flow.Sequence,3_0_1_0_3,NA,NA,completion,9275.747,223039.70000005,223037.822,223054.442,232330.189,232337.80000007,2023-04-27T16:06:37Z,232346.338,NULL,Vorsorge,tahadhari,s,ufafanuzi,makini,mashambani,NA,sdfdsf,NA,1,NA,NA,NA,NA,NA,NA,NA,NA,NA,NA,NA,NA,NA,NA,NA,NA,NA,NA,NA
aaf6a,Deep Question,html.Page,3_0_1_0_4_0_0,NA,NA,form submission,3656.9620000715,232337.89999998,232330.189,232346.338,236003.30000007,236003.5,2023-04-27T16:06:40Z,236009.896,NULL,Fenster,dirisha,d,NA,NA,NA,f,NA,NA,1,NA,NA,NA,NA,NA,NA,NA,NA,NA,NA,NA,NA,NA,NA,NA,NA,NA,NA,NA
aaf6a,"""Richtig""-Screen",canvas.Screen,3_0_1_0_4_0_1,NA,NA,skipped,NA,236006,NA,NA,236003.30000007,236006.10000002,2023-04-27T16:06:40Z,236009.896,NULL,Fenster,dirisha,d,NA,NA,NA,NA,sdfdsf,NA,1,NA,NA,NA,NA,NA,NA,NA,NA,NA,NA,NA,NA,NA,NA,NA,NA,NA,NA,NA
aaf6a,"""Falsch""-Screen",canvas.Screen,3_0_1_0_4_0_2,NA,NA,timeout,4996.511,236007,235993.851,236009.896,240989.674,240990.60000002,2023-04-27T16:06:45Z,241006.407,NULL,Fenster,dirisha,d,NA,NA,NA,NA,sdfdsf,0,1,NA,NA,NA,NA,NA,NA,NA,NA,NA,NA,NA,NA,NA,NA,NA,NA,NA,NA,NA
aaf6a,deep,flow.Sequence,3_0_1_0_4_0,NA,NA,completion,8643.336,232337.89999998,232330.189,232346.338,240989.674,240991.10000002,2023-04-27T16:06:45Z,241006.407,NULL,Fenster,dirisha,d,NA,NA,NA,NA,sdfdsf,NA,1,NA,NA,NA,NA,NA,NA,NA,NA,NA,NA,NA,NA,NA,NA,NA,NA,NA,NA,NA
aaf6a,shallow,flow.Sequence,3_0_1_0_4_1,NA,NA,skipped,NA,240991.30000007,NA,NA,240989.674,240991.39999998,2023-04-27T16:06:45Z,241006.407,NULL,Fenster,dirisha,d,NA,NA,NA,NA,sdfdsf,NA,1,NA,NA,NA,NA,NA,NA,NA,NA,NA,NA,NA,NA,NA,NA,NA,NA,NA,NA,NA
aaf6a,task,flow.Sequence,3_0_1_0_4,NA,NA,completion,8643.336,232337.89999998,232330.189,232346.338,240989.674,240991.70000005,2023-04-27T16:06:45Z,241006.407,NULL,Fenster,dirisha,d,NA,NA,NA,NA,sdfdsf,NA,1,NA,NA,NA,NA,NA,NA,NA,NA,NA,NA,NA,NA,NA,NA,NA,NA,NA,NA,NA
aaf6a,Deep Question,html.Page,3_0_1_0_5_0_0,NA,NA,form submission,4535.9929999762,240991.89999998,240989.674,241006.407,245542.39999998,245542.60000002,2023-04-27T16:06:50Z,245552.117,NULL,Symbol,kielezo,d,NA,NA,NA,m,NA,NA,1,NA,NA,NA,NA,NA,NA,NA,NA,NA,NA,NA,NA,NA,NA,NA,NA,NA,NA,NA
aaf6a,"""Richtig""-Screen",canvas.Screen,3_0_1_0_5_0_1,NA,NA,skipped,NA,245544.60000002,NA,NA,245542.39999998,245544.80000007,2023-04-27T16:06:50Z,245552.117,NULL,Symbol,kielezo,d,NA,NA,NA,NA,sdfdsf,NA,1,NA,NA,NA,NA,NA,NA,NA,NA,NA,NA,NA,NA,NA,NA,NA,NA,NA,NA,NA
aaf6a,"""Falsch""-Screen",canvas.Screen,3_0_1_0_5_0_2,NA,NA,timeout,4995.897,245545.30000007,245536.014,245552.117,250531.818,250532.80000007,2023-04-27T16:06:55Z,250548.014,NULL,Symbol,kielezo,d,NA,NA,NA,NA,sdfdsf,0,1,NA,NA,NA,NA,NA,NA,NA,NA,NA,NA,NA,NA,NA,NA,NA,NA,NA,NA,NA
aaf6a,deep,flow.Sequence,3_0_1_0_5_0,NA,NA,completion,9525.411,240991.80000007,240989.674,241006.407,250531.818,250533.30000007,2023-04-27T16:06:55Z,250548.014,NULL,Symbol,kielezo,d,NA,NA,NA,NA,sdfdsf,NA,1,NA,NA,NA,NA,NA,NA,NA,NA,NA,NA,NA,NA,NA,NA,NA,NA,NA,NA,NA
aaf6a,shallow,flow.Sequence,3_0_1_0_5_1,NA,NA,skipped,NA,250533.39999998,NA,NA,250531.818,250533.60000002,2023-04-27T16:06:55Z,250548.014,NULL,Symbol,kielezo,d,NA,NA,NA,NA,sdfdsf,NA,1,NA,NA,NA,NA,NA,NA,NA,NA,NA,NA,NA,NA,NA,NA,NA,NA,NA,NA,NA
aaf6a,task,flow.Sequence,3_0_1_0_5,NA,NA,completion,9525.411,240991.80000007,240989.674,241006.407,250531.818,250533.80000007,2023-04-27T16:06:55Z,250548.014,NULL,Symbol,kielezo,d,NA,NA,NA,NA,sdfdsf,NA,1,NA,NA,NA,NA,NA,NA,NA,NA,NA,NA,NA,NA,NA,NA,NA,NA,NA,NA,NA
aaf6a,Deep Question,html.Page,3_0_1_0_6_0_0,NA,NA,form submission,4802.1860000477,250534.10000002,250531.818,250548.014,255350.20000005,255350.5,2023-04-27T16:07:00Z,255360.822,NULL,Zuwachs,nyongeza,d,NA,NA,NA,m,NA,NA,1,NA,NA,NA,NA,NA,NA,NA,NA,NA,NA,NA,NA,NA,NA,NA,NA,NA,NA,NA
aaf6a,"""Richtig""-Screen",canvas.Screen,3_0_1_0_6_0_1,NA,NA,skipped,NA,255352.60000002,NA,NA,255350.20000005,255352.70000005,2023-04-27T16:07:00Z,255360.822,NULL,Zuwachs,nyongeza,d,NA,NA,NA,NA,sdfdsf,NA,1,NA,NA,NA,NA,NA,NA,NA,NA,NA,NA,NA,NA,NA,NA,NA,NA,NA,NA,NA
aaf6a,"""Falsch""-Screen",canvas.Screen,3_0_1_0_6_0_2,NA,NA,timeout,4996.224,255353.30000007,255344.6,255360.822,260340.522,260341.60000002,2023-04-27T16:07:05Z,260357.046,NULL,Zuwachs,nyongeza,d,NA,NA,NA,NA,sdfdsf,0,1,NA,NA,NA,NA,NA,NA,NA,NA,NA,NA,NA,NA,NA,NA,NA,NA,NA,NA,NA
aaf6a,deep,flow.Sequence,3_0_1_0_6_0,NA,NA,completion,9792.508,250534.10000002,250531.818,250548.014,260340.522,260342.10000002,2023-04-27T16:07:05Z,260357.046,NULL,Zuwachs,nyongeza,d,NA,NA,NA,NA,sdfdsf,NA,1,NA,NA,NA,NA,NA,NA,NA,NA,NA,NA,NA,NA,NA,NA,NA,NA,NA,NA,NA
aaf6a,shallow,flow.Sequence,3_0_1_0_6_1,NA,NA,skipped,NA,260342.20000005,NA,NA,260340.522,260342.30000007,2023-04-27T16:07:05Z,260357.046,NULL,Zuwachs,nyongeza,d,NA,NA,NA,NA,sdfdsf,NA,1,NA,NA,NA,NA,NA,NA,NA,NA,NA,NA,NA,NA,NA,NA,NA,NA,NA,NA,NA
aaf6a,task,flow.Sequence,3_0_1_0_6,NA,NA,completion,9792.508,250533.89999998,250531.818,250548.014,260340.522,260342.60000002,2023-04-27T16:07:05Z,260357.046,NULL,Zuwachs,nyongeza,d,NA,NA,NA,NA,sdfdsf,NA,1,NA,NA,NA,NA,NA,NA,NA,NA,NA,NA,NA,NA,NA,NA,NA,NA,NA,NA,NA
aaf6a,deep,flow.Sequence,3_0_1_0_7_0,NA,NA,skipped,NA,260342.80000007,NA,NA,260340.522,260342.89999998,2023-04-27T16:07:05Z,260357.046,NULL,Schüler,mwanafunzi,s,mwekezaji,matumizi,uaminifu,NA,sdfdsf,NA,1,NA,NA,NA,NA,NA,NA,NA,NA,NA,NA,NA,NA,NA,NA,NA,NA,NA,NA,NA
aaf6a,Shallow Question,html.Page,3_0_1_0_7_1_0,NA,NA,form submission,4488.6540000477,260343.20000005,260340.522,260357.046,264845.70000005,264846,2023-04-27T16:07:09Z,264853.015,NULL,Schüler,mwanafunzi,s,mwekezaji,matumizi,uaminifu,mwanafunzi,NA,NA,1,NA,NA,NA,NA,NA,NA,NA,NA,NA,NA,NA,NA,NA,NA,NA,NA,NA,NA,NA
aaf6a,"""Richtig""-Screen",canvas.Screen,3_0_1_0_7_1_1,NA,NA,timeout,4995.876,264847.80000007,264836.249,264853.015,269832.638,269833.70000005,2023-04-27T16:07:14Z,269848.891,NULL,Schüler,mwanafunzi,s,mwekezaji,matumizi,uaminifu,NA,sdfdsf,1,1,NA,NA,NA,NA,NA,NA,NA,NA,NA,NA,NA,NA,NA,NA,NA,NA,NA,NA,NA
aaf6a,"""Falsch""-Screen",canvas.Screen,3_0_1_0_7_1_2,NA,NA,skipped,NA,269839.10000002,NA,NA,269832.638,269839.39999998,2023-04-27T16:07:14Z,269848.891,NULL,Schüler,mwanafunzi,s,mwekezaji,matumizi,uaminifu,NA,sdfdsf,NA,1,NA,NA,NA,NA,NA,NA,NA,NA,NA,NA,NA,NA,NA,NA,NA,NA,NA,NA,NA
aaf6a,shallow,flow.Sequence,3_0_1_0_7_1,NA,NA,completion,9475.592,260343,260340.522,260357.046,269832.638,269839.80000007,2023-04-27T16:07:14Z,269848.891,NULL,Schüler,mwanafunzi,s,mwekezaji,matumizi,uaminifu,NA,sdfdsf,NA,1,NA,NA,NA,NA,NA,NA,NA,NA,NA,NA,NA,NA,NA,NA,NA,NA,NA,NA,NA
aaf6a,task,flow.Sequence,3_0_1_0_7,NA,NA,completion,9475.592,260342.80000007,260340.522,260357.046,269832.638,269840,2023-04-27T16:07:14Z,269848.891,NULL,Schüler,mwanafunzi,s,mwekezaji,matumizi,uaminifu,NA,sdfdsf,NA,1,NA,NA,NA,NA,NA,NA,NA,NA,NA,NA,NA,NA,NA,NA,NA,NA,NA,NA,NA
aaf6a,block,flow.Loop,3_0_1_0,NA,NA,completion,77003.852,192819.89999998,192812.506,192828.786,269832.638,269840.30000007,2023-04-27T16:07:14Z,269848.891,NULL,NA,NA,NA,NA,NA,NA,NA,sdfdsf,NA,1,NA,NA,NA,NA,NA,NA,NA,NA,NA,NA,NA,NA,NA,NA,NA,NA,NA,NA,NA
aaf6a,weiter,canvas.Screen,3_0_1_1,sdf,keypress(Space),response,1485.2090000238,269840.60000002,269832.638,269848.891,271334.10000002,271335.20000005,2023-04-27T16:07:16Z,271430.812,NULL,NA,NA,NA,NA,NA,NA,NA,sdfdsf,NA,1,NA,NA,NA,NA,NA,NA,NA,NA,NA,NA,NA,NA,NA,NA,NA,NA,NA,NA,NA
aaf6a,check continue,flow.Sequence,3_0_1,NA,NA,completion,78505.314000024,192819.80000007,192812.506,192828.786,271334.10000002,271335.60000002,2023-04-27T16:07:16Z,271430.812,NULL,NA,NA,NA,NA,NA,NA,NA,sdfdsf,NA,1,NA,NA,NA,NA,NA,NA,NA,NA,NA,NA,NA,NA,NA,NA,NA,NA,NA,NA,NA
aaf6a,Deep Question,html.Page,3_0_2_0_0_0_0,NA,NA,form submission,6805.7880000239,271418.39999998,271414.218,271430.812,278236.60000002,278236.80000007,2023-04-27T16:07:23Z,278258.539,NULL,Symbol,kielezo,d,NA,NA,NA,m,NA,NA,2,NA,NA,NA,NA,NA,NA,NA,NA,NA,NA,NA,NA,NA,NA,NA,NA,NA,NA,NA
aaf6a,"""Richtig""-Screen",canvas.Screen,3_0_2_0_0_0_1,NA,NA,skipped,NA,278239.39999998,NA,NA,278236.60000002,278239.5,2023-04-27T16:07:23Z,278258.539,NULL,Symbol,kielezo,d,NA,NA,NA,NA,sdf,NA,2,NA,NA,NA,NA,NA,NA,NA,NA,NA,NA,NA,NA,NA,NA,NA,NA,NA,NA,NA
aaf6a,"""Falsch""-Screen",canvas.Screen,3_0_2_0_0_0_2,NA,NA,timeout,4996.197,278240.39999998,278241.878,278258.539,283238.35,283239.30000007,2023-04-27T16:07:28Z,283254.736,NULL,Symbol,kielezo,d,NA,NA,NA,NA,sdf,0,2,NA,NA,NA,NA,NA,NA,NA,NA,NA,NA,NA,NA,NA,NA,NA,NA,NA,NA,NA
aaf6a,deep,flow.Sequence,3_0_2_0_0_0,NA,NA,completion,11807.538,271418.39999998,271414.218,271430.812,283238.35,283239.80000007,2023-04-27T16:07:28Z,283254.736,NULL,Symbol,kielezo,d,NA,NA,NA,NA,sdf,NA,2,NA,NA,NA,NA,NA,NA,NA,NA,NA,NA,NA,NA,NA,NA,NA,NA,NA,NA,NA
aaf6a,shallow,flow.Sequence,3_0_2_0_0_1,NA,NA,skipped,NA,283240,NA,NA,283238.35,283240.10000002,2023-04-27T16:07:28Z,283254.736,NULL,Symbol,kielezo,d,NA,NA,NA,NA,sdf,NA,2,NA,NA,NA,NA,NA,NA,NA,NA,NA,NA,NA,NA,NA,NA,NA,NA,NA,NA,NA
aaf6a,task,flow.Sequence,3_0_2_0_0,NA,NA,completion,11807.538,271418.30000007,271414.218,271430.812,283238.35,283240.30000007,2023-04-27T16:07:28Z,283254.736,NULL,Symbol,kielezo,d,NA,NA,NA,NA,sdf,NA,2,NA,NA,NA,NA,NA,NA,NA,NA,NA,NA,NA,NA,NA,NA,NA,NA,NA,NA,NA
aaf6a,deep,flow.Sequence,3_0_2_0_1_0,NA,NA,skipped,NA,283240.5,NA,NA,283238.35,283240.70000005,2023-04-27T16:07:28Z,283254.736,NULL,Konkurrent,mshindani,s,msemaji,mvutaji,kipukusa,NA,sdf,NA,2,NA,NA,NA,NA,NA,NA,NA,NA,NA,NA,NA,NA,NA,NA,NA,NA,NA,NA,NA
aaf6a,Shallow Question,html.Page,3_0_2_0_1_1_0,NA,NA,form submission,5514.1639999762,283240.80000007,283238.35,283254.736,288768.89999998,288769.20000005,2023-04-27T16:07:33Z,288783.779,NULL,Konkurrent,mshindani,s,msemaji,mvutaji,kipukusa,mshindani,NA,NA,2,NA,NA,NA,NA,NA,NA,NA,NA,NA,NA,NA,NA,NA,NA,NA,NA,NA,NA,NA
aaf6a,"""Richtig""-Screen",canvas.Screen,3_0_2_0_1_1_1,NA,NA,timeout,4995.428,288771.30000007,288767.117,288783.779,293763.026,293764.10000002,2023-04-27T16:07:38Z,293779.207,NULL,Konkurrent,mshindani,s,msemaji,mvutaji,kipukusa,NA,sdf,1,2,NA,NA,NA,NA,NA,NA,NA,NA,NA,NA,NA,NA,NA,NA,NA,NA,NA,NA,NA
aaf6a,"""Falsch""-Screen",canvas.Screen,3_0_2_0_1_1_2,NA,NA,skipped,NA,293769.39999998,NA,NA,293763.026,293769.80000007,2023-04-27T16:07:38Z,293779.207,NULL,Konkurrent,mshindani,s,msemaji,mvutaji,kipukusa,NA,sdf,NA,2,NA,NA,NA,NA,NA,NA,NA,NA,NA,NA,NA,NA,NA,NA,NA,NA,NA,NA,NA
aaf6a,shallow,flow.Sequence,3_0_2_0_1_1,NA,NA,completion,10508.29,283240.80000007,283238.35,283254.736,293763.026,293770.30000007,2023-04-27T16:07:38Z,293779.207,NULL,Konkurrent,mshindani,s,msemaji,mvutaji,kipukusa,NA,sdf,NA,2,NA,NA,NA,NA,NA,NA,NA,NA,NA,NA,NA,NA,NA,NA,NA,NA,NA,NA,NA
aaf6a,task,flow.Sequence,3_0_2_0_1,NA,NA,completion,10508.29,283240.39999998,283238.35,283254.736,293763.026,293770.5,2023-04-27T16:07:38Z,293779.207,NULL,Konkurrent,mshindani,s,msemaji,mvutaji,kipukusa,NA,sdf,NA,2,NA,NA,NA,NA,NA,NA,NA,NA,NA,NA,NA,NA,NA,NA,NA,NA,NA,NA,NA
aaf6a,Deep Question,html.Page,3_0_2_0_2_0_0,NA,NA,form submission,5201.9930000477,293770.70000005,293763.026,293779.207,298981.20000005,298981.39999998,2023-04-27T16:07:43Z,298991.543,NULL,Fenster,dirisha,d,NA,NA,NA,kiezu,NA,NA,2,NA,NA,NA,NA,NA,NA,NA,NA,NA,NA,NA,NA,NA,NA,NA,NA,NA,NA,NA
aaf6a,"""Richtig""-Screen",canvas.Screen,3_0_2_0_2_0_1,NA,NA,skipped,NA,298983.89999998,NA,NA,298981.20000005,298984,2023-04-27T16:07:43Z,298991.543,NULL,Fenster,dirisha,d,NA,NA,NA,NA,sdf,NA,2,NA,NA,NA,NA,NA,NA,NA,NA,NA,NA,NA,NA,NA,NA,NA,NA,NA,NA,NA
aaf6a,"""Falsch""-Screen",canvas.Screen,3_0_2_0_2_0_2,NA,NA,timeout,4996.444,298984.89999998,298975.425,298991.543,303971.304,303972.30000007,2023-04-27T16:07:48Z,303987.987,NULL,Fenster,dirisha,d,NA,NA,NA,NA,sdf,0,2,NA,NA,NA,NA,NA,NA,NA,NA,NA,NA,NA,NA,NA,NA,NA,NA,NA,NA,NA
aaf6a,deep,flow.Sequence,3_0_2_0_2_0,NA,NA,completion,10192.097,293770.70000005,293763.026,293779.207,303971.304,303972.80000007,2023-04-27T16:07:48Z,303987.987,NULL,Fenster,dirisha,d,NA,NA,NA,NA,sdf,NA,2,NA,NA,NA,NA,NA,NA,NA,NA,NA,NA,NA,NA,NA,NA,NA,NA,NA,NA,NA
aaf6a,shallow,flow.Sequence,3_0_2_0_2_1,NA,NA,skipped,NA,303972.89999998,NA,NA,303971.304,303973.10000002,2023-04-27T16:07:48Z,303987.987,NULL,Fenster,dirisha,d,NA,NA,NA,NA,sdf,NA,2,NA,NA,NA,NA,NA,NA,NA,NA,NA,NA,NA,NA,NA,NA,NA,NA,NA,NA,NA
aaf6a,task,flow.Sequence,3_0_2_0_2,NA,NA,completion,10192.097,293770.70000005,293763.026,293779.207,303971.304,303973.30000007,2023-04-27T16:07:48Z,303987.987,NULL,Fenster,dirisha,d,NA,NA,NA,NA,sdf,NA,2,NA,NA,NA,NA,NA,NA,NA,NA,NA,NA,NA,NA,NA,NA,NA,NA,NA,NA,NA
aaf6a,Deep Question,html.Page,3_0_2_0_3_0_0,NA,NA,form submission,4387.2130000477,303973.60000002,303971.304,303987.987,308375.20000005,308375.39999998,2023-04-27T16:07:53Z,308383.759,NULL,Zuwachs,nyongeza,d,NA,NA,NA,k,NA,NA,2,NA,NA,NA,NA,NA,NA,NA,NA,NA,NA,NA,NA,NA,NA,NA,NA,NA,NA,NA
aaf6a,"""Richtig""-Screen",canvas.Screen,3_0_2_0_3_0_1,NA,NA,skipped,NA,308378.10000002,NA,NA,308375.20000005,308378.20000005,2023-04-27T16:07:53Z,308383.759,NULL,Zuwachs,nyongeza,d,NA,NA,NA,NA,sdf,NA,2,NA,NA,NA,NA,NA,NA,NA,NA,NA,NA,NA,NA,NA,NA,NA,NA,NA,NA,NA
aaf6a,"""Falsch""-Screen",canvas.Screen,3_0_2_0_3_0_2,NA,NA,timeout,4996.5,308379.39999998,308367.703,308383.759,313363.578,313364.60000002,2023-04-27T16:07:58Z,313380.259,NULL,Zuwachs,nyongeza,d,NA,NA,NA,NA,sdf,0,2,NA,NA,NA,NA,NA,NA,NA,NA,NA,NA,NA,NA,NA,NA,NA,NA,NA,NA,NA
aaf6a,deep,flow.Sequence,3_0_2_0_3_0,NA,NA,completion,9375.591,303973.5,303971.304,303987.987,313363.578,313365,2023-04-27T16:07:58Z,313380.259,NULL,Zuwachs,nyongeza,d,NA,NA,NA,NA,sdf,NA,2,NA,NA,NA,NA,NA,NA,NA,NA,NA,NA,NA,NA,NA,NA,NA,NA,NA,NA,NA
aaf6a,shallow,flow.Sequence,3_0_2_0_3_1,NA,NA,skipped,NA,313365.20000005,NA,NA,313363.578,313365.30000007,2023-04-27T16:07:58Z,313380.259,NULL,Zuwachs,nyongeza,d,NA,NA,NA,NA,sdf,NA,2,NA,NA,NA,NA,NA,NA,NA,NA,NA,NA,NA,NA,NA,NA,NA,NA,NA,NA,NA
aaf6a,task,flow.Sequence,3_0_2_0_3,NA,NA,completion,9375.591,303973.39999998,303971.304,303987.987,313363.578,313365.60000002,2023-04-27T16:07:58Z,313380.259,NULL,Zuwachs,nyongeza,d,NA,NA,NA,NA,sdf,NA,2,NA,NA,NA,NA,NA,NA,NA,NA,NA,NA,NA,NA,NA,NA,NA,NA,NA,NA,NA
aaf6a,Deep Question,html.Page,3_0_2_0_4_0_0,NA,NA,form submission,2534.5410000715,313365.89999998,313363.578,313380.259,315914.80000007,315914.89999998,2023-04-27T16:08:00Z,315927.91,NULL,Spionage,upelelezi,d,NA,NA,NA,m,NA,NA,2,NA,NA,NA,NA,NA,NA,NA,NA,NA,NA,NA,NA,NA,NA,NA,NA,NA,NA,NA
aaf6a,"""Richtig""-Screen",canvas.Screen,3_0_2_0_4_0_1,NA,NA,skipped,NA,315917.39999998,NA,NA,315914.80000007,315917.60000002,2023-04-27T16:08:00Z,315927.91,NULL,Spionage,upelelezi,d,NA,NA,NA,NA,sdf,NA,2,NA,NA,NA,NA,NA,NA,NA,NA,NA,NA,NA,NA,NA,NA,NA,NA,NA,NA,NA
aaf6a,"""Falsch""-Screen",canvas.Screen,3_0_2_0_4_0_2,NA,NA,timeout,4995.835,315918.39999998,315911.508,315927.91,320907.393,320908.5,2023-04-27T16:08:05Z,320923.745,NULL,Spionage,upelelezi,d,NA,NA,NA,NA,sdf,0,2,NA,NA,NA,NA,NA,NA,NA,NA,NA,NA,NA,NA,NA,NA,NA,NA,NA,NA,NA
aaf6a,deep,flow.Sequence,3_0_2_0_4_0,NA,NA,completion,7527.134,313365.80000007,313363.578,313380.259,320907.393,320908.89999998,2023-04-27T16:08:05Z,320923.745,NULL,Spionage,upelelezi,d,NA,NA,NA,NA,sdf,NA,2,NA,NA,NA,NA,NA,NA,NA,NA,NA,NA,NA,NA,NA,NA,NA,NA,NA,NA,NA
aaf6a,shallow,flow.Sequence,3_0_2_0_4_1,NA,NA,skipped,NA,320909.10000002,NA,NA,320907.393,320909.20000005,2023-04-27T16:08:05Z,320923.745,NULL,Spionage,upelelezi,d,NA,NA,NA,NA,sdf,NA,2,NA,NA,NA,NA,NA,NA,NA,NA,NA,NA,NA,NA,NA,NA,NA,NA,NA,NA,NA
aaf6a,task,flow.Sequence,3_0_2_0_4,NA,NA,completion,7527.134,313365.70000005,313363.578,313380.259,320907.393,320909.5,2023-04-27T16:08:05Z,320923.745,NULL,Spionage,upelelezi,d,NA,NA,NA,NA,sdf,NA,2,NA,NA,NA,NA,NA,NA,NA,NA,NA,NA,NA,NA,NA,NA,NA,NA,NA,NA,NA
aaf6a,deep,flow.Sequence,3_0_2_0_5_0,NA,NA,skipped,NA,320909.70000005,NA,NA,320907.393,320909.80000007,2023-04-27T16:08:05Z,320923.745,NULL,Schüler,mwanafunzi,s,mwekezaji,matumizi,uaminifu,NA,sdf,NA,2,NA,NA,NA,NA,NA,NA,NA,NA,NA,NA,NA,NA,NA,NA,NA,NA,NA,NA,NA
aaf6a,Shallow Question,html.Page,3_0_2_0_5_1_0,NA,NA,form submission,4627.5550000715,320910,320907.393,320923.745,325551.30000007,325551.39999998,2023-04-27T16:08:10Z,325553.005,NULL,Schüler,mwanafunzi,s,mwekezaji,matumizi,uaminifu,mwanafunzi,NA,NA,2,NA,NA,NA,NA,NA,NA,NA,NA,NA,NA,NA,NA,NA,NA,NA,NA,NA,NA,NA
aaf6a,"""Richtig""-Screen",canvas.Screen,3_0_2_0_5_1_1,NA,NA,timeout,4995.911,325553.30000007,325536.872,325553.005,330532.79,330533.80000007,2023-04-27T16:08:15Z,330548.916,NULL,Schüler,mwanafunzi,s,mwekezaji,matumizi,uaminifu,NA,sdf,1,2,NA,NA,NA,NA,NA,NA,NA,NA,NA,NA,NA,NA,NA,NA,NA,NA,NA,NA,NA
aaf6a,"""Falsch""-Screen",canvas.Screen,3_0_2_0_5_1_2,NA,NA,skipped,NA,330539.39999998,NA,NA,330532.79,330539.80000007,2023-04-27T16:08:15Z,330548.916,NULL,Schüler,mwanafunzi,s,mwekezaji,matumizi,uaminifu,NA,sdf,NA,2,NA,NA,NA,NA,NA,NA,NA,NA,NA,NA,NA,NA,NA,NA,NA,NA,NA,NA,NA
aaf6a,shallow,flow.Sequence,3_0_2_0_5_1,NA,NA,completion,9609.045,320909.89999998,320907.393,320923.745,330532.79,330540.30000007,2023-04-27T16:08:15Z,330548.916,NULL,Schüler,mwanafunzi,s,mwekezaji,matumizi,uaminifu,NA,sdf,NA,2,NA,NA,NA,NA,NA,NA,NA,NA,NA,NA,NA,NA,NA,NA,NA,NA,NA,NA,NA
aaf6a,task,flow.Sequence,3_0_2_0_5,NA,NA,completion,9609.045,320909.60000002,320907.393,320923.745,330532.79,330540.60000002,2023-04-27T16:08:15Z,330548.916,NULL,Schüler,mwanafunzi,s,mwekezaji,matumizi,uaminifu,NA,sdf,NA,2,NA,NA,NA,NA,NA,NA,NA,NA,NA,NA,NA,NA,NA,NA,NA,NA,NA,NA,NA
aaf6a,deep,flow.Sequence,3_0_2_0_6_0,NA,NA,skipped,NA,330540.80000007,NA,NA,330532.79,330540.89999998,2023-04-27T16:08:15Z,330548.916,NULL,Vorsorge,tahadhari,s,ufafanuzi,makini,mashambani,NA,sdf,NA,2,NA,NA,NA,NA,NA,NA,NA,NA,NA,NA,NA,NA,NA,NA,NA,NA,NA,NA,NA
aaf6a,Shallow Question,html.Page,3_0_2_0_6_1_0,NA,NA,form submission,4488.1840000238,330541.10000002,330532.79,330548.916,335037.10000002,335037.20000005,2023-04-27T16:08:19Z,335045.413,NULL,Vorsorge,tahadhari,s,ufafanuzi,makini,mashambani,tahadhari,NA,NA,2,NA,NA,NA,NA,NA,NA,NA,NA,NA,NA,NA,NA,NA,NA,NA,NA,NA,NA,NA
aaf6a,"""Richtig""-Screen",canvas.Screen,3_0_2_0_6_1_1,NA,NA,timeout,4995.689,335039.10000002,335028.862,335045.413,340024.998,340026,2023-04-27T16:08:24Z,340041.102,NULL,Vorsorge,tahadhari,s,ufafanuzi,makini,mashambani,NA,sdf,1,2,NA,NA,NA,NA,NA,NA,NA,NA,NA,NA,NA,NA,NA,NA,NA,NA,NA,NA,NA
aaf6a,"""Falsch""-Screen",canvas.Screen,3_0_2_0_6_1_2,NA,NA,skipped,NA,340031.5,NA,NA,340024.998,340031.80000007,2023-04-27T16:08:24Z,340041.102,NULL,Vorsorge,tahadhari,s,ufafanuzi,makini,mashambani,NA,sdf,NA,2,NA,NA,NA,NA,NA,NA,NA,NA,NA,NA,NA,NA,NA,NA,NA,NA,NA,NA,NA
aaf6a,shallow,flow.Sequence,3_0_2_0_6_1,NA,NA,completion,9476.082,330541.10000002,330532.79,330548.916,340024.998,340032.10000002,2023-04-27T16:08:24Z,340041.102,NULL,Vorsorge,tahadhari,s,ufafanuzi,makini,mashambani,NA,sdf,NA,2,NA,NA,NA,NA,NA,NA,NA,NA,NA,NA,NA,NA,NA,NA,NA,NA,NA,NA,NA
aaf6a,task,flow.Sequence,3_0_2_0_6,NA,NA,completion,9476.082,330540.70000005,330532.79,330548.916,340024.998,340032.39999998,2023-04-27T16:08:24Z,340041.102,NULL,Vorsorge,tahadhari,s,ufafanuzi,makini,mashambani,NA,sdf,NA,2,NA,NA,NA,NA,NA,NA,NA,NA,NA,NA,NA,NA,NA,NA,NA,NA,NA,NA,NA
aaf6a,deep,flow.Sequence,3_0_2_0_7_0,NA,NA,skipped,NA,340032.60000002,NA,NA,340024.998,340032.70000005,2023-04-27T16:08:24Z,340041.102,NULL,Tester,wanaojaribu,s,sherti,sihiri,mlipuko,NA,sdf,NA,2,NA,NA,NA,NA,NA,NA,NA,NA,NA,NA,NA,NA,NA,NA,NA,NA,NA,NA,NA
aaf6a,Shallow Question,html.Page,3_0_2_0_7_1_0,NA,NA,form submission,6403.9980000238,340032.89999998,340024.998,340041.102,346445.10000002,346445.30000007,2023-04-27T16:08:31Z,346452.657,NULL,Tester,wanaojaribu,s,sherti,sihiri,mlipuko,wanaojaribu,NA,NA,2,NA,NA,NA,NA,NA,NA,NA,NA,NA,NA,NA,NA,NA,NA,NA,NA,NA,NA,NA
aaf6a,"""Richtig""-Screen",canvas.Screen,3_0_2_0_7_1_1,NA,NA,timeout,4995.766,346447,346436.399,346452.657,351432.326,351433.39999998,2023-04-27T16:08:36Z,351448.423,NULL,Tester,wanaojaribu,s,sherti,sihiri,mlipuko,NA,sdf,1,2,NA,NA,NA,NA,NA,NA,NA,NA,NA,NA,NA,NA,NA,NA,NA,NA,NA,NA,NA
aaf6a,"""Falsch""-Screen",canvas.Screen,3_0_2_0_7_1_2,NA,NA,skipped,NA,351438.70000005,NA,NA,351432.326,351439.10000002,2023-04-27T16:08:36Z,351448.423,NULL,Tester,wanaojaribu,s,sherti,sihiri,mlipuko,NA,sdf,NA,2,NA,NA,NA,NA,NA,NA,NA,NA,NA,NA,NA,NA,NA,NA,NA,NA,NA,NA,NA
aaf6a,shallow,flow.Sequence,3_0_2_0_7_1,NA,NA,completion,11391.224,340032.80000007,340024.998,340041.102,351432.326,351439.5,2023-04-27T16:08:36Z,351448.423,NULL,Tester,wanaojaribu,s,sherti,sihiri,mlipuko,NA,sdf,NA,2,NA,NA,NA,NA,NA,NA,NA,NA,NA,NA,NA,NA,NA,NA,NA,NA,NA,NA,NA
aaf6a,task,flow.Sequence,3_0_2_0_7,NA,NA,completion,11391.224,340032.60000002,340024.998,340041.102,351432.326,351439.80000007,2023-04-27T16:08:36Z,351448.423,NULL,Tester,wanaojaribu,s,sherti,sihiri,mlipuko,NA,sdf,NA,2,NA,NA,NA,NA,NA,NA,NA,NA,NA,NA,NA,NA,NA,NA,NA,NA,NA,NA,NA
aaf6a,block,flow.Loop,3_0_2_0,NA,NA,completion,80001.514,271418.30000007,271414.218,271430.812,351432.326,351440,2023-04-27T16:08:36Z,351448.423,NULL,NA,NA,NA,NA,NA,NA,NA,sdf,NA,2,NA,NA,NA,NA,NA,NA,NA,NA,NA,NA,NA,NA,NA,NA,NA,NA,NA,NA,NA
aaf6a,weiter,canvas.Screen,3_0_2_1,sdf,keypress(Space),response,1097.2770000477,351440.10000002,351432.326,351448.423,352545.70000005,352546.80000007,2023-04-27T16:08:37Z,352647.421,NULL,NA,NA,NA,NA,NA,NA,NA,sdf,NA,2,NA,NA,NA,NA,NA,NA,NA,NA,NA,NA,NA,NA,NA,NA,NA,NA,NA,NA,NA
aaf6a,check continue,flow.Sequence,3_0_2,NA,NA,completion,81114.888000048,271418.20000005,271414.218,271430.812,352545.70000005,352547.10000002,2023-04-27T16:08:37Z,352647.421,NULL,NA,NA,NA,NA,NA,NA,NA,sdf,NA,2,NA,NA,NA,NA,NA,NA,NA,NA,NA,NA,NA,NA,NA,NA,NA,NA,NA,NA,NA
aaf6a,Deep Question,html.Page,3_0_3_0_0_0_0,NA,NA,form submission,5445.1790000239,352642.39999998,352631.282,352647.421,358092.60000002,358092.80000007,2023-04-27T16:08:42Z,358110.124,NULL,Fenster,dirisha,d,NA,NA,NA,m,NA,NA,3,NA,NA,NA,NA,NA,NA,NA,NA,NA,NA,NA,NA,NA,NA,NA,NA,NA,NA,NA
aaf6a,"""Richtig""-Screen",canvas.Screen,3_0_3_0_0_0_1,NA,NA,skipped,NA,358095.5,NA,NA,358092.60000002,358095.60000002,2023-04-27T16:08:42Z,358110.124,NULL,Fenster,dirisha,d,NA,NA,NA,NA,qt,NA,3,NA,NA,NA,NA,NA,NA,NA,NA,NA,NA,NA,NA,NA,NA,NA,NA,NA,NA,NA
aaf6a,"""Falsch""-Screen",canvas.Screen,3_0_3_0_0_0_2,NA,NA,timeout,4995.936,358096.70000005,358076.836,358110.124,363089.296,363090.30000007,2023-04-27T16:08:47Z,363106.06,NULL,Fenster,dirisha,d,NA,NA,NA,NA,qt,0,3,NA,NA,NA,NA,NA,NA,NA,NA,NA,NA,NA,NA,NA,NA,NA,NA,NA,NA,NA
aaf6a,deep,flow.Sequence,3_0_3_0_0_0,NA,NA,completion,10441.875,352642.39999998,352631.282,352647.421,363089.296,363090.70000005,2023-04-27T16:08:47Z,363106.06,NULL,Fenster,dirisha,d,NA,NA,NA,NA,qt,NA,3,NA,NA,NA,NA,NA,NA,NA,NA,NA,NA,NA,NA,NA,NA,NA,NA,NA,NA,NA
aaf6a,shallow,flow.Sequence,3_0_3_0_0_1,NA,NA,skipped,NA,363091,NA,NA,363089.296,363091.10000002,2023-04-27T16:08:47Z,363106.06,NULL,Fenster,dirisha,d,NA,NA,NA,NA,qt,NA,3,NA,NA,NA,NA,NA,NA,NA,NA,NA,NA,NA,NA,NA,NA,NA,NA,NA,NA,NA
aaf6a,task,flow.Sequence,3_0_3_0_0,NA,NA,completion,10441.875,352642.39999998,352631.282,352647.421,363089.296,363091.39999998,2023-04-27T16:08:47Z,363106.06,NULL,Fenster,dirisha,d,NA,NA,NA,NA,qt,NA,3,NA,NA,NA,NA,NA,NA,NA,NA,NA,NA,NA,NA,NA,NA,NA,NA,NA,NA,NA
aaf6a,Deep Question,html.Page,3_0_3_0_1_0_0,NA,NA,form submission,5711.44,363091.60000002,363089.296,363106.06,368817.5,368817.70000005,2023-04-27T16:08:53Z,368837.576,NULL,Symbol,kielezo,d,NA,NA,NA,kiezu,NA,NA,3,NA,NA,NA,NA,NA,NA,NA,NA,NA,NA,NA,NA,NA,NA,NA,NA,NA,NA,NA
aaf6a,"""Richtig""-Screen",canvas.Screen,3_0_3_0_1_0_1,NA,NA,skipped,NA,368819.70000005,NA,NA,368817.5,368819.89999998,2023-04-27T16:08:53Z,368837.576,NULL,Symbol,kielezo,d,NA,NA,NA,NA,qt,NA,3,NA,NA,NA,NA,NA,NA,NA,NA,NA,NA,NA,NA,NA,NA,NA,NA,NA,NA,NA
aaf6a,"""Falsch""-Screen",canvas.Screen,3_0_3_0_1_0_2,NA,NA,timeout,4992.717,368820.39999998,368800.838,368837.576,373813.891,373814.89999998,2023-04-27T16:08:58Z,373830.293,NULL,Symbol,kielezo,d,NA,NA,NA,NA,qt,0,3,NA,NA,NA,NA,NA,NA,NA,NA,NA,NA,NA,NA,NA,NA,NA,NA,NA,NA,NA
aaf6a,deep,flow.Sequence,3_0_3_0_1_0,NA,NA,completion,10707.831,363091.60000002,363089.296,363106.06,373813.891,373815.30000007,2023-04-27T16:08:58Z,373830.293,NULL,Symbol,kielezo,d,NA,NA,NA,NA,qt,NA,3,NA,NA,NA,NA,NA,NA,NA,NA,NA,NA,NA,NA,NA,NA,NA,NA,NA,NA,NA
aaf6a,shallow,flow.Sequence,3_0_3_0_1_1,NA,NA,skipped,NA,373815.5,NA,NA,373813.891,373815.60000002,2023-04-27T16:08:58Z,373830.293,NULL,Symbol,kielezo,d,NA,NA,NA,NA,qt,NA,3,NA,NA,NA,NA,NA,NA,NA,NA,NA,NA,NA,NA,NA,NA,NA,NA,NA,NA,NA
aaf6a,task,flow.Sequence,3_0_3_0_1,NA,NA,completion,10707.831,363091.5,363089.296,363106.06,373813.891,373815.89999998,2023-04-27T16:08:58Z,373830.293,NULL,Symbol,kielezo,d,NA,NA,NA,NA,qt,NA,3,NA,NA,NA,NA,NA,NA,NA,NA,NA,NA,NA,NA,NA,NA,NA,NA,NA,NA,NA
aaf6a,deep,flow.Sequence,3_0_3_0_2_0,NA,NA,skipped,NA,373816,NA,NA,373813.891,373816.20000005,2023-04-27T16:08:58Z,373830.293,NULL,Schüler,mwanafunzi,s,mwekezaji,matumizi,uaminifu,NA,qt,NA,3,NA,NA,NA,NA,NA,NA,NA,NA,NA,NA,NA,NA,NA,NA,NA,NA,NA,NA,NA
aaf6a,Shallow Question,html.Page,3_0_3_0_2_1_0,NA,NA,form submission,3848.8070000238,373816.39999998,373813.891,373830.293,377679.10000002,377679.30000007,2023-04-27T16:09:02Z,377693.607,NULL,Schüler,mwanafunzi,s,mwekezaji,matumizi,uaminifu,mwanafunzi,NA,NA,3,NA,NA,NA,NA,NA,NA,NA,NA,NA,NA,NA,NA,NA,NA,NA,NA,NA,NA,NA
aaf6a,"""Richtig""-Screen",canvas.Screen,3_0_3_0_2_1_1,NA,NA,timeout,4995.876,377681.10000002,377676.843,377693.607,382673.303,382674.39999998,2023-04-27T16:09:07Z,382689.483,NULL,Schüler,mwanafunzi,s,mwekezaji,matumizi,uaminifu,NA,qt,1,3,NA,NA,NA,NA,NA,NA,NA,NA,NA,NA,NA,NA,NA,NA,NA,NA,NA,NA,NA
aaf6a,"""Falsch""-Screen",canvas.Screen,3_0_3_0_2_1_2,NA,NA,skipped,NA,382680.80000007,NA,NA,382673.303,382681.10000002,2023-04-27T16:09:07Z,382689.483,NULL,Schüler,mwanafunzi,s,mwekezaji,matumizi,uaminifu,NA,qt,NA,3,NA,NA,NA,NA,NA,NA,NA,NA,NA,NA,NA,NA,NA,NA,NA,NA,NA,NA,NA
aaf6a,shallow,flow.Sequence,3_0_3_0_2_1,NA,NA,completion,8843.01,373816.30000007,373813.891,373830.293,382673.303,382681.5,2023-04-27T16:09:07Z,382689.483,NULL,Schüler,mwanafunzi,s,mwekezaji,matumizi,uaminifu,NA,qt,NA,3,NA,NA,NA,NA,NA,NA,NA,NA,NA,NA,NA,NA,NA,NA,NA,NA,NA,NA,NA
aaf6a,task,flow.Sequence,3_0_3_0_2,NA,NA,completion,8843.01,373816,373813.891,373830.293,382673.303,382681.89999998,2023-04-27T16:09:07Z,382689.483,NULL,Schüler,mwanafunzi,s,mwekezaji,matumizi,uaminifu,NA,qt,NA,3,NA,NA,NA,NA,NA,NA,NA,NA,NA,NA,NA,NA,NA,NA,NA,NA,NA,NA,NA
aaf6a,deep,flow.Sequence,3_0_3_0_3_0,NA,NA,skipped,NA,382682.10000002,NA,NA,382673.303,382682.20000005,2023-04-27T16:09:07Z,382689.483,NULL,Konkurrent,mshindani,s,msemaji,mvutaji,kipukusa,NA,qt,NA,3,NA,NA,NA,NA,NA,NA,NA,NA,NA,NA,NA,NA,NA,NA,NA,NA,NA,NA,NA
aaf6a,Shallow Question,html.Page,3_0_3_0_3_1_0,NA,NA,form submission,6443.8170000715,382682.39999998,382673.303,382689.483,389133.30000007,389133.39999998,2023-04-27T16:09:13Z,389134.067,NULL,Konkurrent,mshindani,s,msemaji,mvutaji,kipukusa,mshindani,NA,NA,3,NA,NA,NA,NA,NA,NA,NA,NA,NA,NA,NA,NA,NA,NA,NA,NA,NA,NA,NA
aaf6a,"""Richtig""-Screen",canvas.Screen,3_0_3_0_3_1_1,NA,NA,timeout,4995.935,389135.30000007,389117.908,389134.067,394113.896,394114.80000007,2023-04-27T16:09:18Z,394130.002,NULL,Konkurrent,mshindani,s,msemaji,mvutaji,kipukusa,NA,qt,1,3,NA,NA,NA,NA,NA,NA,NA,NA,NA,NA,NA,NA,NA,NA,NA,NA,NA,NA,NA
aaf6a,"""Falsch""-Screen",canvas.Screen,3_0_3_0_3_1_2,NA,NA,skipped,NA,394120.30000007,NA,NA,394113.896,394120.60000002,2023-04-27T16:09:18Z,394130.002,NULL,Konkurrent,mshindani,s,msemaji,mvutaji,kipukusa,NA,qt,NA,3,NA,NA,NA,NA,NA,NA,NA,NA,NA,NA,NA,NA,NA,NA,NA,NA,NA,NA,NA
aaf6a,shallow,flow.Sequence,3_0_3_0_3_1,NA,NA,completion,11424.413,382682.39999998,382673.303,382689.483,394113.896,394121.10000002,2023-04-27T16:09:18Z,394130.002,NULL,Konkurrent,mshindani,s,msemaji,mvutaji,kipukusa,NA,qt,NA,3,NA,NA,NA,NA,NA,NA,NA,NA,NA,NA,NA,NA,NA,NA,NA,NA,NA,NA,NA
aaf6a,task,flow.Sequence,3_0_3_0_3,NA,NA,completion,11424.413,382681.89999998,382673.303,382689.483,394113.896,394121.39999998,2023-04-27T16:09:18Z,394130.002,NULL,Konkurrent,mshindani,s,msemaji,mvutaji,kipukusa,NA,qt,NA,3,NA,NA,NA,NA,NA,NA,NA,NA,NA,NA,NA,NA,NA,NA,NA,NA,NA,NA,NA
aaf6a,deep,flow.Sequence,3_0_3_0_4_0,NA,NA,skipped,NA,394121.60000002,NA,NA,394113.896,394121.80000007,2023-04-27T16:09:18Z,394130.002,NULL,Tester,wanaojaribu,s,sherti,sihiri,mlipuko,NA,qt,NA,3,NA,NA,NA,NA,NA,NA,NA,NA,NA,NA,NA,NA,NA,NA,NA,NA,NA,NA,NA
aaf6a,Shallow Question,html.Page,3_0_3_0_4_1_0,NA,NA,form submission,4551.2980000715,394121.89999998,394113.896,394130.002,398681.30000007,398681.39999998,2023-04-27T16:09:23Z,398693.203,NULL,Tester,wanaojaribu,s,sherti,sihiri,mlipuko,wanaojaribu,NA,NA,3,NA,NA,NA,NA,NA,NA,NA,NA,NA,NA,NA,NA,NA,NA,NA,NA,NA,NA,NA
aaf6a,"""Richtig""-Screen",canvas.Screen,3_0_3_0_4_1_1,NA,NA,timeout,4995.651,398683.20000005,398676.547,398693.203,403672.24,403683.10000002,2023-04-27T16:09:28Z,403688.854,NULL,Tester,wanaojaribu,s,sherti,sihiri,mlipuko,NA,qt,1,3,NA,NA,NA,NA,NA,NA,NA,NA,NA,NA,NA,NA,NA,NA,NA,NA,NA,NA,NA
aaf6a,"""Falsch""-Screen",canvas.Screen,3_0_3_0_4_1_2,NA,NA,skipped,NA,403688.5,NA,NA,403672.24,403689.20000005,2023-04-27T16:09:28Z,403688.854,NULL,Tester,wanaojaribu,s,sherti,sihiri,mlipuko,NA,qt,NA,3,NA,NA,NA,NA,NA,NA,NA,NA,NA,NA,NA,NA,NA,NA,NA,NA,NA,NA,NA
aaf6a,shallow,flow.Sequence,3_0_3_0_4_1,NA,NA,completion,9542.238,394121.89999998,394113.896,394130.002,403672.24,403689.80000007,2023-04-27T16:09:28Z,403688.854,NULL,Tester,wanaojaribu,s,sherti,sihiri,mlipuko,NA,qt,NA,3,NA,NA,NA,NA,NA,NA,NA,NA,NA,NA,NA,NA,NA,NA,NA,NA,NA,NA,NA
aaf6a,task,flow.Sequence,3_0_3_0_4,NA,NA,completion,9542.238,394121.5,394113.896,394130.002,403672.24,403690,2023-04-27T16:09:28Z,403688.854,NULL,Tester,wanaojaribu,s,sherti,sihiri,mlipuko,NA,qt,NA,3,NA,NA,NA,NA,NA,NA,NA,NA,NA,NA,NA,NA,NA,NA,NA,NA,NA,NA,NA
aaf6a,Deep Question,html.Page,3_0_3_0_5_0_0,NA,NA,form submission,3965.2460000238,403690.30000007,403672.24,403688.854,407654.10000002,407654.30000007,2023-04-27T16:09:32Z,407669.396,NULL,Zuwachs,nyongeza,d,NA,NA,NA,k,NA,NA,3,NA,NA,NA,NA,NA,NA,NA,NA,NA,NA,NA,NA,NA,NA,NA,NA,NA,NA,NA
aaf6a,"""Richtig""-Screen",canvas.Screen,3_0_3_0_5_0_1,NA,NA,skipped,NA,407656.10000002,NA,NA,407654.10000002,407656.20000005,2023-04-27T16:09:32Z,407669.396,NULL,Zuwachs,nyongeza,d,NA,NA,NA,NA,qt,NA,3,NA,NA,NA,NA,NA,NA,NA,NA,NA,NA,NA,NA,NA,NA,NA,NA,NA,NA,NA
aaf6a,"""Falsch""-Screen",canvas.Screen,3_0_3_0_5_0_2,NA,NA,timeout,4995.372,407656.80000007,407652.858,407669.396,412648.663,412649.80000007,2023-04-27T16:09:37Z,412664.768,NULL,Zuwachs,nyongeza,d,NA,NA,NA,NA,qt,0,3,NA,NA,NA,NA,NA,NA,NA,NA,NA,NA,NA,NA,NA,NA,NA,NA,NA,NA,NA
aaf6a,deep,flow.Sequence,3_0_3_0_5_0,NA,NA,completion,8959.809,403690.30000007,403672.24,403688.854,412648.663,412650.20000005,2023-04-27T16:09:37Z,412664.768,NULL,Zuwachs,nyongeza,d,NA,NA,NA,NA,qt,NA,3,NA,NA,NA,NA,NA,NA,NA,NA,NA,NA,NA,NA,NA,NA,NA,NA,NA,NA,NA
aaf6a,shallow,flow.Sequence,3_0_3_0_5_1,NA,NA,skipped,NA,412650.30000007,NA,NA,412648.663,412650.5,2023-04-27T16:09:37Z,412664.768,NULL,Zuwachs,nyongeza,d,NA,NA,NA,NA,qt,NA,3,NA,NA,NA,NA,NA,NA,NA,NA,NA,NA,NA,NA,NA,NA,NA,NA,NA,NA,NA
aaf6a,task,flow.Sequence,3_0_3_0_5,NA,NA,completion,8959.809,403690.20000005,403672.24,403688.854,412648.663,412650.80000007,2023-04-27T16:09:37Z,412664.768,NULL,Zuwachs,nyongeza,d,NA,NA,NA,NA,qt,NA,3,NA,NA,NA,NA,NA,NA,NA,NA,NA,NA,NA,NA,NA,NA,NA,NA,NA,NA,NA
aaf6a,deep,flow.Sequence,3_0_3_0_6_0,NA,NA,skipped,NA,412651,NA,NA,412648.663,412651.10000002,2023-04-27T16:09:37Z,412664.768,NULL,Vorsorge,tahadhari,s,ufafanuzi,makini,mashambani,NA,qt,NA,3,NA,NA,NA,NA,NA,NA,NA,NA,NA,NA,NA,NA,NA,NA,NA,NA,NA,NA,NA
aaf6a,Shallow Question,html.Page,3_0_3_0_6_1_0,NA,NA,form submission,6074.4320000477,412651.30000007,412648.663,412664.768,418739.20000005,418739.39999998,2023-04-27T16:09:43Z,418743.033,NULL,Vorsorge,tahadhari,s,ufafanuzi,makini,mashambani,tahadhari,NA,NA,3,NA,NA,NA,NA,NA,NA,NA,NA,NA,NA,NA,NA,NA,NA,NA,NA,NA,NA,NA
aaf6a,"""Richtig""-Screen",canvas.Screen,3_0_3_0_6_1_1,NA,NA,timeout,4995.998,418741.30000007,418726.416,418743.033,423722.9,423724,2023-04-27T16:09:48Z,423739.031,NULL,Vorsorge,tahadhari,s,ufafanuzi,makini,mashambani,NA,qt,1,3,NA,NA,NA,NA,NA,NA,NA,NA,NA,NA,NA,NA,NA,NA,NA,NA,NA,NA,NA
aaf6a,"""Falsch""-Screen",canvas.Screen,3_0_3_0_6_1_2,NA,NA,skipped,NA,423729.30000007,NA,NA,423722.9,423729.60000002,2023-04-27T16:09:48Z,423739.031,NULL,Vorsorge,tahadhari,s,ufafanuzi,makini,mashambani,NA,qt,NA,3,NA,NA,NA,NA,NA,NA,NA,NA,NA,NA,NA,NA,NA,NA,NA,NA,NA,NA,NA
aaf6a,shallow,flow.Sequence,3_0_3_0_6_1,NA,NA,completion,11058.132,412651.30000007,412648.663,412664.768,423722.9,423730,2023-04-27T16:09:48Z,423739.031,NULL,Vorsorge,tahadhari,s,ufafanuzi,makini,mashambani,NA,qt,NA,3,NA,NA,NA,NA,NA,NA,NA,NA,NA,NA,NA,NA,NA,NA,NA,NA,NA,NA,NA
aaf6a,task,flow.Sequence,3_0_3_0_6,NA,NA,completion,11058.132,412650.89999998,412648.663,412664.768,423722.9,423730.30000007,2023-04-27T16:09:48Z,423739.031,NULL,Vorsorge,tahadhari,s,ufafanuzi,makini,mashambani,NA,qt,NA,3,NA,NA,NA,NA,NA,NA,NA,NA,NA,NA,NA,NA,NA,NA,NA,NA,NA,NA,NA
aaf6a,Deep Question,html.Page,3_0_3_0_7_0_0,NA,NA,form submission,5642.2690000715,423730.5,423722.9,423739.031,429381.30000007,429381.5,2023-04-27T16:09:54Z,429384.296,NULL,Spionage,upelelezi,d,NA,NA,NA,k,NA,NA,3,NA,NA,NA,NA,NA,NA,NA,NA,NA,NA,NA,NA,NA,NA,NA,NA,NA,NA,NA
aaf6a,"""Richtig""-Screen",canvas.Screen,3_0_3_0_7_0_1,NA,NA,skipped,NA,429383.30000007,NA,NA,429381.30000007,429383.5,2023-04-27T16:09:54Z,429384.296,NULL,Spionage,upelelezi,d,NA,NA,NA,NA,qt,NA,3,NA,NA,NA,NA,NA,NA,NA,NA,NA,NA,NA,NA,NA,NA,NA,NA,NA,NA,NA
aaf6a,"""Falsch""-Screen",canvas.Screen,3_0_3_0_7_0_2,NA,NA,timeout,4996.5060000001,429383.89999998,429368.251,429384.296,434364.138,434365.20000005,2023-04-27T16:09:59Z,434380.802,NULL,Spionage,upelelezi,d,NA,NA,NA,NA,qt,0,3,NA,NA,NA,NA,NA,NA,NA,NA,NA,NA,NA,NA,NA,NA,NA,NA,NA,NA,NA
aaf6a,deep,flow.Sequence,3_0_3_0_7_0,NA,NA,completion,10625.107,423730.5,423722.9,423739.031,434364.138,434365.60000002,2023-04-27T16:09:59Z,434380.802,NULL,Spionage,upelelezi,d,NA,NA,NA,NA,qt,NA,3,NA,NA,NA,NA,NA,NA,NA,NA,NA,NA,NA,NA,NA,NA,NA,NA,NA,NA,NA
aaf6a,shallow,flow.Sequence,3_0_3_0_7_1,NA,NA,skipped,NA,434365.80000007,NA,NA,434364.138,434365.89999998,2023-04-27T16:09:59Z,434380.802,NULL,Spionage,upelelezi,d,NA,NA,NA,NA,qt,NA,3,NA,NA,NA,NA,NA,NA,NA,NA,NA,NA,NA,NA,NA,NA,NA,NA,NA,NA,NA
aaf6a,task,flow.Sequence,3_0_3_0_7,NA,NA,completion,10625.107,423730.39999998,423722.9,423739.031,434364.138,434366.20000005,2023-04-27T16:09:59Z,434380.802,NULL,Spionage,upelelezi,d,NA,NA,NA,NA,qt,NA,3,NA,NA,NA,NA,NA,NA,NA,NA,NA,NA,NA,NA,NA,NA,NA,NA,NA,NA,NA
aaf6a,block,flow.Loop,3_0_3_0,NA,NA,completion,81716.717,352642.30000007,352631.282,352647.421,434364.138,434366.39999998,2023-04-27T16:09:59Z,434380.802,NULL,NA,NA,NA,NA,NA,NA,NA,qt,NA,3,NA,NA,NA,NA,NA,NA,NA,NA,NA,NA,NA,NA,NA,NA,NA,NA,NA,NA,NA
aaf6a,weiter,canvas.Screen,3_0_3_1,sdf,keypress(Space),response,1409.7980000238,434366.60000002,434364.138,434380.802,435790.60000002,435791.80000007,2023-04-27T16:10:00Z,435879.005,NULL,NA,NA,NA,NA,NA,NA,NA,qt,NA,3,NA,NA,NA,NA,NA,NA,NA,NA,NA,NA,NA,NA,NA,NA,NA,NA,NA,NA,NA
aaf6a,check continue,flow.Sequence,3_0_3,NA,NA,completion,83143.179000024,352642.20000005,352631.282,352647.421,435790.60000002,435792.20000005,2023-04-27T16:10:00Z,435879.005,NULL,NA,NA,NA,NA,NA,NA,NA,qt,NA,3,NA,NA,NA,NA,NA,NA,NA,NA,NA,NA,NA,NA,NA,NA,NA,NA,NA,NA,NA
aaf6a,Deep Question,html.Page,3_0_4_0_0_0_0,NA,NA,form submission,5774.6950000477,435874.20000005,435862.806,435879.005,441653.70000005,441654,2023-04-27T16:10:06Z,441657.535,NULL,Symbol,kielezo,d,NA,NA,NA,s,NA,NA,4,NA,NA,NA,NA,NA,NA,NA,NA,NA,NA,NA,NA,NA,NA,NA,NA,NA,NA,NA
aaf6a,"""Richtig""-Screen",canvas.Screen,3_0_4_0_0_0_1,NA,NA,skipped,NA,441656.5,NA,NA,441653.70000005,441656.70000005,2023-04-27T16:10:06Z,441657.535,NULL,Symbol,kielezo,d,NA,NA,NA,NA,sd,NA,4,NA,NA,NA,NA,NA,NA,NA,NA,NA,NA,NA,NA,NA,NA,NA,NA,NA,NA,NA
aaf6a,"""Falsch""-Screen",canvas.Screen,3_0_4_0_0_0_2,NA,NA,timeout,4996.348,441657.39999998,441641.506,441657.535,446637.276,446638.30000007,2023-04-27T16:10:11Z,446653.883,NULL,Symbol,kielezo,d,NA,NA,NA,NA,sd,0,4,NA,NA,NA,NA,NA,NA,NA,NA,NA,NA,NA,NA,NA,NA,NA,NA,NA,NA,NA
aaf6a,deep,flow.Sequence,3_0_4_0_0_0,NA,NA,completion,10758.271,435874.10000002,435862.806,435879.005,446637.276,446638.80000007,2023-04-27T16:10:11Z,446653.883,NULL,Symbol,kielezo,d,NA,NA,NA,NA,sd,NA,4,NA,NA,NA,NA,NA,NA,NA,NA,NA,NA,NA,NA,NA,NA,NA,NA,NA,NA,NA
aaf6a,shallow,flow.Sequence,3_0_4_0_0_1,NA,NA,skipped,NA,446639,NA,NA,446637.276,446639.10000002,2023-04-27T16:10:11Z,446653.883,NULL,Symbol,kielezo,d,NA,NA,NA,NA,sd,NA,4,NA,NA,NA,NA,NA,NA,NA,NA,NA,NA,NA,NA,NA,NA,NA,NA,NA,NA,NA
aaf6a,task,flow.Sequence,3_0_4_0_0,NA,NA,completion,10758.271,435874.10000002,435862.806,435879.005,446637.276,446639.39999998,2023-04-27T16:10:11Z,446653.883,NULL,Symbol,kielezo,d,NA,NA,NA,NA,sd,NA,4,NA,NA,NA,NA,NA,NA,NA,NA,NA,NA,NA,NA,NA,NA,NA,NA,NA,NA,NA
aaf6a,deep,flow.Sequence,3_0_4_0_1_0,NA,NA,skipped,NA,446639.60000002,NA,NA,446637.276,446639.70000005,2023-04-27T16:10:11Z,446653.883,NULL,Vorsorge,tahadhari,s,ufafanuzi,makini,mashambani,NA,sd,NA,4,NA,NA,NA,NA,NA,NA,NA,NA,NA,NA,NA,NA,NA,NA,NA,NA,NA,NA,NA
aaf6a,Shallow Question,html.Page,3_0_4_0_1_1_0,NA,NA,form submission,8335.617,446639.80000007,446637.276,446653.883,454989.5,454989.70000005,2023-04-27T16:10:19Z,454996.741,NULL,Vorsorge,tahadhari,s,ufafanuzi,makini,mashambani,tahadhari,NA,NA,4,NA,NA,NA,NA,NA,NA,NA,NA,NA,NA,NA,NA,NA,NA,NA,NA,NA,NA,NA
aaf6a,"""Richtig""-Screen",canvas.Screen,3_0_4_0_1_1_1,NA,NA,timeout,4995.79,454991.5,454980.007,454996.741,459976.418,459977.39999998,2023-04-27T16:10:24Z,459992.531,NULL,Vorsorge,tahadhari,s,ufafanuzi,makini,mashambani,NA,sd,1,4,NA,NA,NA,NA,NA,NA,NA,NA,NA,NA,NA,NA,NA,NA,NA,NA,NA,NA,NA
aaf6a,"""Falsch""-Screen",canvas.Screen,3_0_4_0_1_1_2,NA,NA,skipped,NA,459982.70000005,NA,NA,459976.418,459983,2023-04-27T16:10:24Z,459992.531,NULL,Vorsorge,tahadhari,s,ufafanuzi,makini,mashambani,NA,sd,NA,4,NA,NA,NA,NA,NA,NA,NA,NA,NA,NA,NA,NA,NA,NA,NA,NA,NA,NA,NA
aaf6a,shallow,flow.Sequence,3_0_4_0_1_1,NA,NA,completion,13322.535,446639.80000007,446637.276,446653.883,459976.418,459983.5,2023-04-27T16:10:24Z,459992.531,NULL,Vorsorge,tahadhari,s,ufafanuzi,makini,mashambani,NA,sd,NA,4,NA,NA,NA,NA,NA,NA,NA,NA,NA,NA,NA,NA,NA,NA,NA,NA,NA,NA,NA
aaf6a,task,flow.Sequence,3_0_4_0_1,NA,NA,completion,13322.535,446639.5,446637.276,446653.883,459976.418,459983.80000007,2023-04-27T16:10:24Z,459992.531,NULL,Vorsorge,tahadhari,s,ufafanuzi,makini,mashambani,NA,sd,NA,4,NA,NA,NA,NA,NA,NA,NA,NA,NA,NA,NA,NA,NA,NA,NA,NA,NA,NA,NA
aaf6a,Deep Question,html.Page,3_0_4_0_2_0_0,NA,NA,form submission,5437.969,459984,459976.418,459992.531,465430.5,465430.70000005,2023-04-27T16:10:30Z,465438.007,NULL,Zuwachs,nyongeza,d,NA,NA,NA,n,NA,NA,4,NA,NA,NA,NA,NA,NA,NA,NA,NA,NA,NA,NA,NA,NA,NA,NA,NA,NA,NA
aaf6a,"""Richtig""-Screen",canvas.Screen,3_0_4_0_2_0_1,NA,NA,skipped,NA,465432.60000002,NA,NA,465430.5,465432.70000005,2023-04-27T16:10:30Z,465438.007,NULL,Zuwachs,nyongeza,d,NA,NA,NA,NA,sd,NA,4,NA,NA,NA,NA,NA,NA,NA,NA,NA,NA,NA,NA,NA,NA,NA,NA,NA,NA,NA
aaf6a,"""Falsch""-Screen",canvas.Screen,3_0_4_0_2_0_2,NA,NA,timeout,4995.969,465433.20000005,465421.964,465438.007,470417.302,470422,2023-04-27T16:10:35Z,470433.976,NULL,Zuwachs,nyongeza,d,NA,NA,NA,NA,sd,0,4,NA,NA,NA,NA,NA,NA,NA,NA,NA,NA,NA,NA,NA,NA,NA,NA,NA,NA,NA
aaf6a,deep,flow.Sequence,3_0_4_0_2_0,NA,NA,completion,10424.771,459984,459976.418,459992.531,470417.302,470422.60000002,2023-04-27T16:10:35Z,470433.976,NULL,Zuwachs,nyongeza,d,NA,NA,NA,NA,sd,NA,4,NA,NA,NA,NA,NA,NA,NA,NA,NA,NA,NA,NA,NA,NA,NA,NA,NA,NA,NA
aaf6a,shallow,flow.Sequence,3_0_4_0_2_1,NA,NA,skipped,NA,470423,NA,NA,470417.302,470423.20000005,2023-04-27T16:10:35Z,470433.976,NULL,Zuwachs,nyongeza,d,NA,NA,NA,NA,sd,NA,4,NA,NA,NA,NA,NA,NA,NA,NA,NA,NA,NA,NA,NA,NA,NA,NA,NA,NA,NA
aaf6a,task,flow.Sequence,3_0_4_0_2,NA,NA,completion,10424.771,459983.89999998,459976.418,459992.531,470417.302,470423.5,2023-04-27T16:10:35Z,470433.976,NULL,Zuwachs,nyongeza,d,NA,NA,NA,NA,sd,NA,4,NA,NA,NA,NA,NA,NA,NA,NA,NA,NA,NA,NA,NA,NA,NA,NA,NA,NA,NA
aaf6a,Deep Question,html.Page,3_0_4_0_3_0_0,NA,NA,form submission,8147.8240000715,470423.89999998,470417.302,470433.976,478581.80000007,478581.89999998,2023-04-27T16:10:43Z,478593.881,NULL,Spionage,upelelezi,d,NA,NA,NA,uzelel,NA,NA,4,NA,NA,NA,NA,NA,NA,NA,NA,NA,NA,NA,NA,NA,NA,NA,NA,NA,NA,NA
aaf6a,"""Richtig""-Screen",canvas.Screen,3_0_4_0_3_0_1,NA,NA,skipped,NA,478584.60000002,NA,NA,478581.80000007,478584.70000005,2023-04-27T16:10:43Z,478593.881,NULL,Spionage,upelelezi,d,NA,NA,NA,NA,sd,NA,4,NA,NA,NA,NA,NA,NA,NA,NA,NA,NA,NA,NA,NA,NA,NA,NA,NA,NA,NA
aaf6a,"""Falsch""-Screen",canvas.Screen,3_0_4_0_3_0_2,NA,NA,timeout,4996.3,478585.70000005,478577.749,478593.881,483573.673,483574.70000005,2023-04-27T16:10:48Z,483590.181,NULL,Spionage,upelelezi,d,NA,NA,NA,NA,sd,0,4,NA,NA,NA,NA,NA,NA,NA,NA,NA,NA,NA,NA,NA,NA,NA,NA,NA,NA,NA
aaf6a,deep,flow.Sequence,3_0_4_0_3_0,NA,NA,completion,13139.697,470423.80000007,470417.302,470433.976,483573.673,483575.10000002,2023-04-27T16:10:48Z,483590.181,NULL,Spionage,upelelezi,d,NA,NA,NA,NA,sd,NA,4,NA,NA,NA,NA,NA,NA,NA,NA,NA,NA,NA,NA,NA,NA,NA,NA,NA,NA,NA
aaf6a,shallow,flow.Sequence,3_0_4_0_3_1,NA,NA,skipped,NA,483575.30000007,NA,NA,483573.673,483575.39999998,2023-04-27T16:10:48Z,483590.181,NULL,Spionage,upelelezi,d,NA,NA,NA,NA,sd,NA,4,NA,NA,NA,NA,NA,NA,NA,NA,NA,NA,NA,NA,NA,NA,NA,NA,NA,NA,NA
aaf6a,task,flow.Sequence,3_0_4_0_3,NA,NA,completion,13139.697,470423.80000007,470417.302,470433.976,483573.673,483575.60000002,2023-04-27T16:10:48Z,483590.181,NULL,Spionage,upelelezi,d,NA,NA,NA,NA,sd,NA,4,NA,NA,NA,NA,NA,NA,NA,NA,NA,NA,NA,NA,NA,NA,NA,NA,NA,NA,NA
aaf6a,deep,flow.Sequence,3_0_4_0_4_0,NA,NA,skipped,NA,483575.80000007,NA,NA,483573.673,483576,2023-04-27T16:10:48Z,483590.181,NULL,Tester,wanaojaribu,s,sherti,sihiri,mlipuko,NA,sd,NA,4,NA,NA,NA,NA,NA,NA,NA,NA,NA,NA,NA,NA,NA,NA,NA,NA,NA,NA,NA
aaf6a,Shallow Question,html.Page,3_0_4_0_4_1_0,NA,NA,form submission,4815.2189999762,483576.20000005,483573.673,483590.181,488405.39999998,488405.5,2023-04-27T16:10:53Z,488419.696,NULL,Tester,wanaojaribu,s,sherti,sihiri,mlipuko,wanaojaribu,NA,NA,4,NA,NA,NA,NA,NA,NA,NA,NA,NA,NA,NA,NA,NA,NA,NA,NA,NA,NA,NA
aaf6a,"""Richtig""-Screen",canvas.Screen,3_0_4_0_4_1_1,NA,NA,timeout,4995.402,488407.39999998,488402.99,488419.696,493398.932,493399.89999998,2023-04-27T16:10:58Z,493415.098,NULL,Tester,wanaojaribu,s,sherti,sihiri,mlipuko,NA,sd,1,4,NA,NA,NA,NA,NA,NA,NA,NA,NA,NA,NA,NA,NA,NA,NA,NA,NA,NA,NA
aaf6a,"""Falsch""-Screen",canvas.Screen,3_0_4_0_4_1_2,NA,NA,skipped,NA,493405.10000002,NA,NA,493398.932,493405.5,2023-04-27T16:10:58Z,493415.098,NULL,Tester,wanaojaribu,s,sherti,sihiri,mlipuko,NA,sd,NA,4,NA,NA,NA,NA,NA,NA,NA,NA,NA,NA,NA,NA,NA,NA,NA,NA,NA,NA,NA
aaf6a,shallow,flow.Sequence,3_0_4_0_4_1,NA,NA,completion,9808.751,483576.20000005,483573.673,483590.181,493398.932,493406,2023-04-27T16:10:58Z,493415.098,NULL,Tester,wanaojaribu,s,sherti,sihiri,mlipuko,NA,sd,NA,4,NA,NA,NA,NA,NA,NA,NA,NA,NA,NA,NA,NA,NA,NA,NA,NA,NA,NA,NA
aaf6a,task,flow.Sequence,3_0_4_0_4,NA,NA,completion,9808.751,483575.80000007,483573.673,483590.181,493398.932,493406.30000007,2023-04-27T16:10:58Z,493415.098,NULL,Tester,wanaojaribu,s,sherti,sihiri,mlipuko,NA,sd,NA,4,NA,NA,NA,NA,NA,NA,NA,NA,NA,NA,NA,NA,NA,NA,NA,NA,NA,NA,NA
aaf6a,deep,flow.Sequence,3_0_4_0_5_0,NA,NA,skipped,NA,493406.5,NA,NA,493398.932,493406.60000002,2023-04-27T16:10:58Z,493415.098,NULL,Konkurrent,mshindani,s,msemaji,mvutaji,kipukusa,NA,sd,NA,4,NA,NA,NA,NA,NA,NA,NA,NA,NA,NA,NA,NA,NA,NA,NA,NA,NA,NA,NA
aaf6a,Shallow Question,html.Page,3_0_4_0_5_1_0,NA,NA,form submission,4788.402,493406.80000007,493398.932,493415.098,498203.5,498203.70000005,2023-04-27T16:11:02Z,498211.084,NULL,Konkurrent,mshindani,s,msemaji,mvutaji,kipukusa,mshindani,NA,NA,4,NA,NA,NA,NA,NA,NA,NA,NA,NA,NA,NA,NA,NA,NA,NA,NA,NA,NA,NA
aaf6a,"""Richtig""-Screen",canvas.Screen,3_0_4_0_5_1_1,NA,NA,timeout,4995.9190000001,498206.10000002,498194.888,498211.084,503190.912,503192,2023-04-27T16:11:07Z,503207.003,NULL,Konkurrent,mshindani,s,msemaji,mvutaji,kipukusa,NA,sd,1,4,NA,NA,NA,NA,NA,NA,NA,NA,NA,NA,NA,NA,NA,NA,NA,NA,NA,NA,NA
aaf6a,"""Falsch""-Screen",canvas.Screen,3_0_4_0_5_1_2,NA,NA,skipped,NA,503197.30000007,NA,NA,503190.912,503197.60000002,2023-04-27T16:11:07Z,503207.003,NULL,Konkurrent,mshindani,s,msemaji,mvutaji,kipukusa,NA,sd,NA,4,NA,NA,NA,NA,NA,NA,NA,NA,NA,NA,NA,NA,NA,NA,NA,NA,NA,NA,NA
aaf6a,shallow,flow.Sequence,3_0_4_0_5_1,NA,NA,completion,9775.814,493406.80000007,493398.932,493415.098,503190.912,503198,2023-04-27T16:11:07Z,503207.003,NULL,Konkurrent,mshindani,s,msemaji,mvutaji,kipukusa,NA,sd,NA,4,NA,NA,NA,NA,NA,NA,NA,NA,NA,NA,NA,NA,NA,NA,NA,NA,NA,NA,NA
aaf6a,task,flow.Sequence,3_0_4_0_5,NA,NA,completion,9775.814,493406.39999998,493398.932,493415.098,503190.912,503198.20000005,2023-04-27T16:11:07Z,503207.003,NULL,Konkurrent,mshindani,s,msemaji,mvutaji,kipukusa,NA,sd,NA,4,NA,NA,NA,NA,NA,NA,NA,NA,NA,NA,NA,NA,NA,NA,NA,NA,NA,NA,NA
aaf6a,Deep Question,html.Page,3_0_4_0_6_0_0,NA,NA,form submission,10380.396999976,503198.39999998,503190.912,503207.003,513587.39999998,513587.5,2023-04-27T16:11:18Z,513598.627,NULL,Fenster,dirisha,d,NA,NA,NA,m,NA,NA,4,NA,NA,NA,NA,NA,NA,NA,NA,NA,NA,NA,NA,NA,NA,NA,NA,NA,NA,NA
aaf6a,"""Richtig""-Screen",canvas.Screen,3_0_4_0_6_0_1,NA,NA,skipped,NA,513590.10000002,NA,NA,513587.39999998,513590.30000007,2023-04-27T16:11:18Z,513598.627,NULL,Fenster,dirisha,d,NA,NA,NA,NA,sd,NA,4,NA,NA,NA,NA,NA,NA,NA,NA,NA,NA,NA,NA,NA,NA,NA,NA,NA,NA,NA
aaf6a,"""Falsch""-Screen",canvas.Screen,3_0_4_0_6_0_2,NA,NA,timeout,4995.733,513591.10000002,513582.369,513598.627,518577.757,518583.80000007,2023-04-27T16:11:23Z,518594.36,NULL,Fenster,dirisha,d,NA,NA,NA,NA,sd,0,4,NA,NA,NA,NA,NA,NA,NA,NA,NA,NA,NA,NA,NA,NA,NA,NA,NA,NA,NA
aaf6a,deep,flow.Sequence,3_0_4_0_6_0,NA,NA,completion,15370.754,503198.39999998,503190.912,503207.003,518577.757,518584.20000005,2023-04-27T16:11:23Z,518594.36,NULL,Fenster,dirisha,d,NA,NA,NA,NA,sd,NA,4,NA,NA,NA,NA,NA,NA,NA,NA,NA,NA,NA,NA,NA,NA,NA,NA,NA,NA,NA
aaf6a,shallow,flow.Sequence,3_0_4_0_6_1,NA,NA,skipped,NA,518584.39999998,NA,NA,518577.757,518584.5,2023-04-27T16:11:23Z,518594.36,NULL,Fenster,dirisha,d,NA,NA,NA,NA,sd,NA,4,NA,NA,NA,NA,NA,NA,NA,NA,NA,NA,NA,NA,NA,NA,NA,NA,NA,NA,NA
aaf6a,task,flow.Sequence,3_0_4_0_6,NA,NA,completion,15370.754,503198.30000007,503190.912,503207.003,518577.757,518584.80000007,2023-04-27T16:11:23Z,518594.36,NULL,Fenster,dirisha,d,NA,NA,NA,NA,sd,NA,4,NA,NA,NA,NA,NA,NA,NA,NA,NA,NA,NA,NA,NA,NA,NA,NA,NA,NA,NA
aaf6a,deep,flow.Sequence,3_0_4_0_7_0,NA,NA,skipped,NA,518585,NA,NA,518577.757,518585.10000002,2023-04-27T16:11:23Z,518594.36,NULL,Schüler,mwanafunzi,s,mwekezaji,matumizi,uaminifu,NA,sd,NA,4,NA,NA,NA,NA,NA,NA,NA,NA,NA,NA,NA,NA,NA,NA,NA,NA,NA,NA,NA
aaf6a,Shallow Question,html.Page,3_0_4_0_7_1_0,NA,NA,form submission,4705.14,518585.30000007,518577.757,518594.36,523299.5,523299.60000002,2023-04-27T16:11:28Z,523307.336,NULL,Schüler,mwanafunzi,s,mwekezaji,matumizi,uaminifu,mwanafunzi,NA,NA,4,NA,NA,NA,NA,NA,NA,NA,NA,NA,NA,NA,NA,NA,NA,NA,NA,NA,NA,NA
aaf6a,"""Richtig""-Screen",canvas.Screen,3_0_4_0_7_1_1,NA,NA,timeout,4995.708,523301.39999998,523291.012,523307.336,528286.845,528287.89999998,2023-04-27T16:11:33Z,528303.044,NULL,Schüler,mwanafunzi,s,mwekezaji,matumizi,uaminifu,NA,sd,1,4,NA,NA,NA,NA,NA,NA,NA,NA,NA,NA,NA,NA,NA,NA,NA,NA,NA,NA,NA
aaf6a,"""Falsch""-Screen",canvas.Screen,3_0_4_0_7_1_2,NA,NA,skipped,NA,528293.20000005,NA,NA,528286.845,528293.5,2023-04-27T16:11:33Z,528303.044,NULL,Schüler,mwanafunzi,s,mwekezaji,matumizi,uaminifu,NA,sd,NA,4,NA,NA,NA,NA,NA,NA,NA,NA,NA,NA,NA,NA,NA,NA,NA,NA,NA,NA,NA
aaf6a,shallow,flow.Sequence,3_0_4_0_7_1,NA,NA,completion,9692.485,518585.20000005,518577.757,518594.36,528286.845,528293.89999998,2023-04-27T16:11:33Z,528303.044,NULL,Schüler,mwanafunzi,s,mwekezaji,matumizi,uaminifu,NA,sd,NA,4,NA,NA,NA,NA,NA,NA,NA,NA,NA,NA,NA,NA,NA,NA,NA,NA,NA,NA,NA
aaf6a,task,flow.Sequence,3_0_4_0_7,NA,NA,completion,9692.485,518585,518577.757,518594.36,528286.845,528294.20000005,2023-04-27T16:11:33Z,528303.044,NULL,Schüler,mwanafunzi,s,mwekezaji,matumizi,uaminifu,NA,sd,NA,4,NA,NA,NA,NA,NA,NA,NA,NA,NA,NA,NA,NA,NA,NA,NA,NA,NA,NA,NA
aaf6a,block,flow.Loop,3_0_4_0,NA,NA,completion,92407.84,435874.10000002,435862.806,435879.005,528286.845,528294.39999998,2023-04-27T16:11:33Z,528303.044,NULL,NA,NA,NA,NA,NA,NA,NA,sd,NA,4,NA,NA,NA,NA,NA,NA,NA,NA,NA,NA,NA,NA,NA,NA,NA,NA,NA,NA,NA
aaf6a,weiter,canvas.Screen,3_0_4_1,sdf,keypress(Space),response,2447.5560000238,528294.5,528286.845,528303.044,530750.60000002,530752.10000002,2023-04-27T16:11:35Z,530867.583,NULL,NA,NA,NA,NA,NA,NA,NA,sd,NA,4,NA,NA,NA,NA,NA,NA,NA,NA,NA,NA,NA,NA,NA,NA,NA,NA,NA,NA,NA
aaf6a,check continue,flow.Sequence,3_0_4,NA,NA,completion,94871.595000024,435873.89999998,435862.806,435879.005,530750.60000002,530752.39999998,2023-04-27T16:11:35Z,530867.583,NULL,NA,NA,NA,NA,NA,NA,NA,sd,NA,4,NA,NA,NA,NA,NA,NA,NA,NA,NA,NA,NA,NA,NA,NA,NA,NA,NA,NA,NA
aaf6a,deep,flow.Sequence,3_0_5_0_0_0,NA,NA,skipped,NA,530862.30000007,NA,NA,530750.60000002,530862.5,2023-04-27T16:11:35Z,530867.583,NULL,Tester,wanaojaribu,s,sherti,sihiri,mlipuko,NA,sdf,NA,5,NA,NA,NA,NA,NA,NA,NA,NA,NA,NA,NA,NA,NA,NA,NA,NA,NA,NA,NA
aaf6a,Shallow Question,html.Page,3_0_5_0_0_1_0,NA,NA,form submission,8204.3169999762,530862.70000005,530851.38,530867.583,539071.89999998,539072.10000002,2023-04-27T16:11:43Z,539077.487,NULL,Tester,wanaojaribu,s,sherti,sihiri,mlipuko,wanaojaribu,NA,NA,5,NA,NA,NA,NA,NA,NA,NA,NA,NA,NA,NA,NA,NA,NA,NA,NA,NA,NA,NA
aaf6a,"""Richtig""-Screen",canvas.Screen,3_0_5_0_0_1_1,NA,NA,timeout,4996.0060000001,539073.89999998,539061.25,539077.487,544057.228,544058.39999998,2023-04-27T16:11:48Z,544073.493,NULL,Tester,wanaojaribu,s,sherti,sihiri,mlipuko,NA,sdf,1,5,NA,NA,NA,NA,NA,NA,NA,NA,NA,NA,NA,NA,NA,NA,NA,NA,NA,NA,NA
aaf6a,"""Falsch""-Screen",canvas.Screen,3_0_5_0_0_1_2,NA,NA,skipped,NA,544063.5,NA,NA,544057.228,544063.89999998,2023-04-27T16:11:48Z,544073.493,NULL,Tester,wanaojaribu,s,sherti,sihiri,mlipuko,NA,sdf,NA,5,NA,NA,NA,NA,NA,NA,NA,NA,NA,NA,NA,NA,NA,NA,NA,NA,NA,NA,NA
aaf6a,shallow,flow.Sequence,3_0_5_0_0_1,NA,NA,completion,13189.645,530862.60000002,530851.38,530867.583,544057.228,544064.30000007,2023-04-27T16:11:48Z,544073.493,NULL,Tester,wanaojaribu,s,sherti,sihiri,mlipuko,NA,sdf,NA,5,NA,NA,NA,NA,NA,NA,NA,NA,NA,NA,NA,NA,NA,NA,NA,NA,NA,NA,NA
aaf6a,task,flow.Sequence,3_0_5_0_0,NA,NA,completion,13189.645,530862.30000007,530851.38,530867.583,544057.228,544064.5,2023-04-27T16:11:48Z,544073.493,NULL,Tester,wanaojaribu,s,sherti,sihiri,mlipuko,NA,sdf,NA,5,NA,NA,NA,NA,NA,NA,NA,NA,NA,NA,NA,NA,NA,NA,NA,NA,NA,NA,NA
aaf6a,Deep Question,html.Page,3_0_5_0_1_0_0,NA,NA,form submission,5191.507,544064.80000007,544057.228,544073.493,549265,549265.10000002,2023-04-27T16:11:54Z,549269.092,NULL,Symbol,kielezo,d,NA,NA,NA,m,NA,NA,5,NA,NA,NA,NA,NA,NA,NA,NA,NA,NA,NA,NA,NA,NA,NA,NA,NA,NA,NA
aaf6a,"""Richtig""-Screen",canvas.Screen,3_0_5_0_1_0_1,NA,NA,skipped,NA,549266.89999998,NA,NA,549265,549267.10000002,2023-04-27T16:11:54Z,549269.092,NULL,Symbol,kielezo,d,NA,NA,NA,NA,sdf,NA,5,NA,NA,NA,NA,NA,NA,NA,NA,NA,NA,NA,NA,NA,NA,NA,NA,NA,NA,NA
aaf6a,"""Falsch""-Screen",canvas.Screen,3_0_5_0_1_0_2,NA,NA,timeout,4996.1420000001,549267.60000002,549252.95,549269.092,554248.922,554250,2023-04-27T16:11:59Z,554265.234,NULL,Symbol,kielezo,d,NA,NA,NA,NA,sdf,0,5,NA,NA,NA,NA,NA,NA,NA,NA,NA,NA,NA,NA,NA,NA,NA,NA,NA,NA,NA
aaf6a,deep,flow.Sequence,3_0_5_0_1_0,NA,NA,completion,10175.429,544064.80000007,544057.228,544073.493,554248.922,554250.39999998,2023-04-27T16:11:59Z,554265.234,NULL,Symbol,kielezo,d,NA,NA,NA,NA,sdf,NA,5,NA,NA,NA,NA,NA,NA,NA,NA,NA,NA,NA,NA,NA,NA,NA,NA,NA,NA,NA
aaf6a,shallow,flow.Sequence,3_0_5_0_1_1,NA,NA,skipped,NA,554250.60000002,NA,NA,554248.922,554250.70000005,2023-04-27T16:11:59Z,554265.234,NULL,Symbol,kielezo,d,NA,NA,NA,NA,sdf,NA,5,NA,NA,NA,NA,NA,NA,NA,NA,NA,NA,NA,NA,NA,NA,NA,NA,NA,NA,NA
aaf6a,task,flow.Sequence,3_0_5_0_1,NA,NA,completion,10175.429,544064.70000005,544057.228,544073.493,554248.922,554251,2023-04-27T16:11:59Z,554265.234,NULL,Symbol,kielezo,d,NA,NA,NA,NA,sdf,NA,5,NA,NA,NA,NA,NA,NA,NA,NA,NA,NA,NA,NA,NA,NA,NA,NA,NA,NA,NA
aaf6a,deep,flow.Sequence,3_0_5_0_2_0,NA,NA,skipped,NA,554251.10000002,NA,NA,554248.922,554251.30000007,2023-04-27T16:11:59Z,554265.234,NULL,Vorsorge,tahadhari,s,ufafanuzi,makini,mashambani,NA,sdf,NA,5,NA,NA,NA,NA,NA,NA,NA,NA,NA,NA,NA,NA,NA,NA,NA,NA,NA,NA,NA
aaf6a,Shallow Question,html.Page,3_0_5_0_2_1_0,NA,NA,form submission,4053.2659999999,554251.5,554248.922,554265.234,558318.5,558318.70000005,2023-04-27T16:12:03Z,558328.642,NULL,Vorsorge,tahadhari,s,ufafanuzi,makini,mashambani,tahadhari,NA,NA,5,NA,NA,NA,NA,NA,NA,NA,NA,NA,NA,NA,NA,NA,NA,NA,NA,NA,NA,NA
aaf6a,"""Richtig""-Screen",canvas.Screen,3_0_5_0_2_1_1,NA,NA,timeout,4995.672,558320.5,558312.254,558328.642,563308.167,563309.20000005,2023-04-27T16:12:08Z,563324.314,NULL,Vorsorge,tahadhari,s,ufafanuzi,makini,mashambani,NA,sdf,1,5,NA,NA,NA,NA,NA,NA,NA,NA,NA,NA,NA,NA,NA,NA,NA,NA,NA,NA,NA
aaf6a,"""Falsch""-Screen",canvas.Screen,3_0_5_0_2_1_2,NA,NA,skipped,NA,563314.30000007,NA,NA,563308.167,563314.60000002,2023-04-27T16:12:08Z,563324.314,NULL,Vorsorge,tahadhari,s,ufafanuzi,makini,mashambani,NA,sdf,NA,5,NA,NA,NA,NA,NA,NA,NA,NA,NA,NA,NA,NA,NA,NA,NA,NA,NA,NA,NA
aaf6a,shallow,flow.Sequence,3_0_5_0_2_1,NA,NA,completion,9042.933,554251.39999998,554248.922,554265.234,563308.167,563315.10000002,2023-04-27T16:12:08Z,563324.314,NULL,Vorsorge,tahadhari,s,ufafanuzi,makini,mashambani,NA,sdf,NA,5,NA,NA,NA,NA,NA,NA,NA,NA,NA,NA,NA,NA,NA,NA,NA,NA,NA,NA,NA
aaf6a,task,flow.Sequence,3_0_5_0_2,NA,NA,completion,9042.933,554251.10000002,554248.922,554265.234,563308.167,563315.5,2023-04-27T16:12:08Z,563324.314,NULL,Vorsorge,tahadhari,s,ufafanuzi,makini,mashambani,NA,sdf,NA,5,NA,NA,NA,NA,NA,NA,NA,NA,NA,NA,NA,NA,NA,NA,NA,NA,NA,NA,NA
aaf6a,Deep Question,html.Page,3_0_5_0_3_0_0,NA,NA,form submission,6707.5859999761,563315.89999998,563308.167,563324.314,570031.89999998,570032.10000002,2023-04-27T16:12:14Z,570035.387,NULL,Zuwachs,nyongeza,d,NA,NA,NA,m,NA,NA,5,NA,NA,NA,NA,NA,NA,NA,NA,NA,NA,NA,NA,NA,NA,NA,NA,NA,NA,NA
aaf6a,"""Richtig""-Screen",canvas.Screen,3_0_5_0_3_0_1,NA,NA,skipped,NA,570034.70000005,NA,NA,570031.89999998,570034.80000007,2023-04-27T16:12:14Z,570035.387,NULL,Zuwachs,nyongeza,d,NA,NA,NA,NA,sdf,NA,5,NA,NA,NA,NA,NA,NA,NA,NA,NA,NA,NA,NA,NA,NA,NA,NA,NA,NA,NA
aaf6a,"""Falsch""-Screen",canvas.Screen,3_0_5_0_3_0_2,NA,NA,timeout,4996.478,570035.80000007,570019.434,570035.387,575015.216,575016.20000005,2023-04-27T16:12:19Z,575031.865,NULL,Zuwachs,nyongeza,d,NA,NA,NA,NA,sdf,0,5,NA,NA,NA,NA,NA,NA,NA,NA,NA,NA,NA,NA,NA,NA,NA,NA,NA,NA,NA
aaf6a,deep,flow.Sequence,3_0_5_0_3_0,NA,NA,completion,11690.902,563315.80000007,563308.167,563324.314,575015.216,575016.60000002,2023-04-27T16:12:19Z,575031.865,NULL,Zuwachs,nyongeza,d,NA,NA,NA,NA,sdf,NA,5,NA,NA,NA,NA,NA,NA,NA,NA,NA,NA,NA,NA,NA,NA,NA,NA,NA,NA,NA
aaf6a,shallow,flow.Sequence,3_0_5_0_3_1,NA,NA,skipped,NA,575016.80000007,NA,NA,575015.216,575016.89999998,2023-04-27T16:12:19Z,575031.865,NULL,Zuwachs,nyongeza,d,NA,NA,NA,NA,sdf,NA,5,NA,NA,NA,NA,NA,NA,NA,NA,NA,NA,NA,NA,NA,NA,NA,NA,NA,NA,NA
aaf6a,task,flow.Sequence,3_0_5_0_3,NA,NA,completion,11690.902,563315.70000005,563308.167,563324.314,575015.216,575017.20000005,2023-04-27T16:12:19Z,575031.865,NULL,Zuwachs,nyongeza,d,NA,NA,NA,NA,sdf,NA,5,NA,NA,NA,NA,NA,NA,NA,NA,NA,NA,NA,NA,NA,NA,NA,NA,NA,NA,NA
aaf6a,Deep Question,html.Page,3_0_5_0_4_0_0,NA,NA,form submission,8883.8350000477,575017.39999998,575015.216,575031.865,583915.70000005,583915.89999998,2023-04-27T16:12:28Z,583923.98,NULL,Fenster,dirisha,d,NA,NA,NA,nyongeza,NA,NA,5,NA,NA,NA,NA,NA,NA,NA,NA,NA,NA,NA,NA,NA,NA,NA,NA,NA,NA,NA
aaf6a,"""Richtig""-Screen",canvas.Screen,3_0_5_0_4_0_1,NA,NA,skipped,NA,583917.80000007,NA,NA,583915.70000005,583918,2023-04-27T16:12:28Z,583923.98,NULL,Fenster,dirisha,d,NA,NA,NA,NA,sdf,NA,5,NA,NA,NA,NA,NA,NA,NA,NA,NA,NA,NA,NA,NA,NA,NA,NA,NA,NA,NA
aaf6a,"""Falsch""-Screen",canvas.Screen,3_0_5_0_4_0_2,NA,NA,timeout,4995.9450000001,583918.5,583907.85,583923.98,588903.795,588904.80000007,2023-04-27T16:12:33Z,588919.925,NULL,Fenster,dirisha,d,NA,NA,NA,NA,sdf,0,5,NA,NA,NA,NA,NA,NA,NA,NA,NA,NA,NA,NA,NA,NA,NA,NA,NA,NA,NA
aaf6a,deep,flow.Sequence,3_0_5_0_4_0,NA,NA,completion,13871.93,575017.39999998,575015.216,575031.865,588903.795,588905.30000007,2023-04-27T16:12:33Z,588919.925,NULL,Fenster,dirisha,d,NA,NA,NA,NA,sdf,NA,5,NA,NA,NA,NA,NA,NA,NA,NA,NA,NA,NA,NA,NA,NA,NA,NA,NA,NA,NA
aaf6a,shallow,flow.Sequence,3_0_5_0_4_1,NA,NA,skipped,NA,588905.5,NA,NA,588903.795,588905.60000002,2023-04-27T16:12:33Z,588919.925,NULL,Fenster,dirisha,d,NA,NA,NA,NA,sdf,NA,5,NA,NA,NA,NA,NA,NA,NA,NA,NA,NA,NA,NA,NA,NA,NA,NA,NA,NA,NA
aaf6a,task,flow.Sequence,3_0_5_0_4,NA,NA,completion,13871.93,575017.30000007,575015.216,575031.865,588903.795,588905.80000007,2023-04-27T16:12:33Z,588919.925,NULL,Fenster,dirisha,d,NA,NA,NA,NA,sdf,NA,5,NA,NA,NA,NA,NA,NA,NA,NA,NA,NA,NA,NA,NA,NA,NA,NA,NA,NA,NA
aaf6a,deep,flow.Sequence,3_0_5_0_5_0,NA,NA,skipped,NA,588906,NA,NA,588903.795,588906.10000002,2023-04-27T16:12:33Z,588919.925,NULL,Schüler,mwanafunzi,s,mwekezaji,matumizi,uaminifu,NA,sdf,NA,5,NA,NA,NA,NA,NA,NA,NA,NA,NA,NA,NA,NA,NA,NA,NA,NA,NA,NA,NA
aaf6a,Shallow Question,html.Page,3_0_5_0_5_1_0,NA,NA,form submission,5513.6750000238,588906.30000007,588903.795,588919.925,594433.60000002,594433.70000005,2023-04-27T16:12:39Z,594449.202,NULL,Schüler,mwanafunzi,s,mwekezaji,matumizi,uaminifu,mwanafunzi,NA,NA,5,NA,NA,NA,NA,NA,NA,NA,NA,NA,NA,NA,NA,NA,NA,NA,NA,NA,NA,NA
aaf6a,"""Richtig""-Screen",canvas.Screen,3_0_5_0_5_1_1,NA,NA,timeout,4995.374,594435.70000005,594432.524,594449.202,599428.48,599429.5,2023-04-27T16:12:44Z,599444.576,NULL,Schüler,mwanafunzi,s,mwekezaji,matumizi,uaminifu,NA,sdf,1,5,NA,NA,NA,NA,NA,NA,NA,NA,NA,NA,NA,NA,NA,NA,NA,NA,NA,NA,NA
aaf6a,"""Falsch""-Screen",canvas.Screen,3_0_5_0_5_1_2,NA,NA,skipped,NA,599434.80000007,NA,NA,599428.48,599435.10000002,2023-04-27T16:12:44Z,599444.576,NULL,Schüler,mwanafunzi,s,mwekezaji,matumizi,uaminifu,NA,sdf,NA,5,NA,NA,NA,NA,NA,NA,NA,NA,NA,NA,NA,NA,NA,NA,NA,NA,NA,NA,NA
aaf6a,shallow,flow.Sequence,3_0_5_0_5_1,NA,NA,completion,10508.555,588906.30000007,588903.795,588919.925,599428.48,599435.70000005,2023-04-27T16:12:44Z,599444.576,NULL,Schüler,mwanafunzi,s,mwekezaji,matumizi,uaminifu,NA,sdf,NA,5,NA,NA,NA,NA,NA,NA,NA,NA,NA,NA,NA,NA,NA,NA,NA,NA,NA,NA,NA
aaf6a,task,flow.Sequence,3_0_5_0_5,NA,NA,completion,10508.555,588906,588903.795,588919.925,599428.48,599436.10000002,2023-04-27T16:12:44Z,599444.576,NULL,Schüler,mwanafunzi,s,mwekezaji,matumizi,uaminifu,NA,sdf,NA,5,NA,NA,NA,NA,NA,NA,NA,NA,NA,NA,NA,NA,NA,NA,NA,NA,NA,NA,NA
aaf6a,deep,flow.Sequence,3_0_5_0_6_0,NA,NA,skipped,NA,599436.5,NA,NA,599428.48,599436.60000002,2023-04-27T16:12:44Z,599444.576,NULL,Konkurrent,mshindani,s,msemaji,mvutaji,kipukusa,NA,sdf,NA,5,NA,NA,NA,NA,NA,NA,NA,NA,NA,NA,NA,NA,NA,NA,NA,NA,NA,NA,NA
aaf6a,Shallow Question,html.Page,3_0_5_0_6_1_0,NA,NA,form submission,4837.8239999762,599437,599428.48,599444.576,604282.39999998,604282.5,2023-04-27T16:12:49Z,604290.675,NULL,Konkurrent,mshindani,s,msemaji,mvutaji,kipukusa,mshindani,NA,NA,5,NA,NA,NA,NA,NA,NA,NA,NA,NA,NA,NA,NA,NA,NA,NA,NA,NA,NA,NA
aaf6a,"""Richtig""-Screen",canvas.Screen,3_0_5_0_6_1_1,NA,NA,timeout,4995.804,604284.39999998,604274.451,604290.675,609270.386,609271.39999998,2023-04-27T16:12:54Z,609286.479,NULL,Konkurrent,mshindani,s,msemaji,mvutaji,kipukusa,NA,sdf,1,5,NA,NA,NA,NA,NA,NA,NA,NA,NA,NA,NA,NA,NA,NA,NA,NA,NA,NA,NA
aaf6a,"""Falsch""-Screen",canvas.Screen,3_0_5_0_6_1_2,NA,NA,skipped,NA,609276.80000007,NA,NA,609270.386,609277.10000002,2023-04-27T16:12:54Z,609286.479,NULL,Konkurrent,mshindani,s,msemaji,mvutaji,kipukusa,NA,sdf,NA,5,NA,NA,NA,NA,NA,NA,NA,NA,NA,NA,NA,NA,NA,NA,NA,NA,NA,NA,NA
aaf6a,shallow,flow.Sequence,3_0_5_0_6_1,NA,NA,completion,9825.8100000001,599436.89999998,599428.48,599444.576,609270.386,609277.70000005,2023-04-27T16:12:54Z,609286.479,NULL,Konkurrent,mshindani,s,msemaji,mvutaji,kipukusa,NA,sdf,NA,5,NA,NA,NA,NA,NA,NA,NA,NA,NA,NA,NA,NA,NA,NA,NA,NA,NA,NA,NA
aaf6a,task,flow.Sequence,3_0_5_0_6,NA,NA,completion,9825.8100000001,599436.39999998,599428.48,599444.576,609270.386,609278.10000002,2023-04-27T16:12:54Z,609286.479,NULL,Konkurrent,mshindani,s,msemaji,mvutaji,kipukusa,NA,sdf,NA,5,NA,NA,NA,NA,NA,NA,NA,NA,NA,NA,NA,NA,NA,NA,NA,NA,NA,NA,NA
aaf6a,Deep Question,html.Page,3_0_5_0_7_0_0,NA,NA,form submission,10504.721000048,609278.60000002,609270.386,609286.479,619791.20000005,619791.39999998,2023-04-27T16:13:04Z,619794.496,NULL,Spionage,upelelezi,d,NA,NA,NA,uikelelez,NA,NA,5,NA,NA,NA,NA,NA,NA,NA,NA,NA,NA,NA,NA,NA,NA,NA,NA,NA,NA,NA
aaf6a,"""Richtig""-Screen",canvas.Screen,3_0_5_0_7_0_1,NA,NA,skipped,NA,619793.89999998,NA,NA,619791.20000005,619794,2023-04-27T16:13:04Z,619794.496,NULL,Spionage,upelelezi,d,NA,NA,NA,NA,sdf,NA,5,NA,NA,NA,NA,NA,NA,NA,NA,NA,NA,NA,NA,NA,NA,NA,NA,NA,NA,NA
aaf6a,"""Falsch""-Screen",canvas.Screen,3_0_5_0_7_0_2,NA,NA,timeout,4996.473,619794.89999998,619778.236,619794.496,624774.325,624775.39999998,2023-04-27T16:13:09Z,624790.969,NULL,Spionage,upelelezi,d,NA,NA,NA,NA,sdf,0,5,NA,NA,NA,NA,NA,NA,NA,NA,NA,NA,NA,NA,NA,NA,NA,NA,NA,NA,NA
aaf6a,deep,flow.Sequence,3_0_5_0_7_0,NA,NA,completion,15487.846,609278.5,609270.386,609286.479,624774.325,624775.89999998,2023-04-27T16:13:09Z,624790.969,NULL,Spionage,upelelezi,d,NA,NA,NA,NA,sdf,NA,5,NA,NA,NA,NA,NA,NA,NA,NA,NA,NA,NA,NA,NA,NA,NA,NA,NA,NA,NA
aaf6a,shallow,flow.Sequence,3_0_5_0_7_1,NA,NA,skipped,NA,624776,NA,NA,624774.325,624776.20000005,2023-04-27T16:13:09Z,624790.969,NULL,Spionage,upelelezi,d,NA,NA,NA,NA,sdf,NA,5,NA,NA,NA,NA,NA,NA,NA,NA,NA,NA,NA,NA,NA,NA,NA,NA,NA,NA,NA
aaf6a,task,flow.Sequence,3_0_5_0_7,NA,NA,completion,15487.846,609278.39999998,609270.386,609286.479,624774.325,624776.39999998,2023-04-27T16:13:09Z,624790.969,NULL,Spionage,upelelezi,d,NA,NA,NA,NA,sdf,NA,5,NA,NA,NA,NA,NA,NA,NA,NA,NA,NA,NA,NA,NA,NA,NA,NA,NA,NA,NA
aaf6a,block,flow.Loop,3_0_5_0,NA,NA,completion,93906.742,530862.30000007,530851.38,530867.583,624774.325,624776.70000005,2023-04-27T16:13:09Z,624790.969,NULL,NA,NA,NA,NA,NA,NA,NA,sdf,NA,5,NA,NA,NA,NA,NA,NA,NA,NA,NA,NA,NA,NA,NA,NA,NA,NA,NA,NA,NA
aaf6a,weiter,canvas.Screen,3_0_5_1,sdf,keypress(Space),response,1508.4309999761,624776.80000007,624774.325,624790.969,626299.39999998,626300.39999998,2023-04-27T16:13:11Z,626422.402,NULL,NA,NA,NA,NA,NA,NA,NA,sdf,NA,5,NA,NA,NA,NA,NA,NA,NA,NA,NA,NA,NA,NA,NA,NA,NA,NA,NA,NA,NA
aaf6a,check continue,flow.Sequence,3_0_5,NA,NA,completion,95431.816999976,530862.20000005,530851.38,530867.583,626299.39999998,626300.80000007,2023-04-27T16:13:11Z,626422.402,NULL,NA,NA,NA,NA,NA,NA,NA,sdf,NA,5,NA,NA,NA,NA,NA,NA,NA,NA,NA,NA,NA,NA,NA,NA,NA,NA,NA,NA,NA
aaf6a,Deep Question,html.Page,3_0_6_0_0_0_0,NA,NA,form submission,10929.798000048,626388.80000007,626406.386,626422.402,637352.20000005,637352.5,2023-04-27T16:13:22Z,637363.714,NULL,Zuwachs,nyongeza,d,NA,NA,NA,nyongeza,NA,NA,6,NA,NA,NA,NA,NA,NA,NA,NA,NA,NA,NA,NA,NA,NA,NA,NA,NA,NA,NA
aaf6a,"""Richtig""-Screen",canvas.Screen,3_0_6_0_0_0_1,NA,NA,timeout,4995.6429999999,637354.60000002,637347.308,637363.714,642343.218,642344.39999998,2023-04-27T16:13:27Z,642359.357,NULL,Zuwachs,nyongeza,d,NA,NA,NA,NA,dfs,1,6,NA,NA,NA,NA,NA,NA,NA,NA,NA,NA,NA,NA,NA,NA,NA,NA,NA,NA,NA
aaf6a,"""Falsch""-Screen",canvas.Screen,3_0_6_0_0_0_2,NA,NA,skipped,NA,642349.70000005,NA,NA,642343.218,642350,2023-04-27T16:13:27Z,642359.357,NULL,Zuwachs,nyongeza,d,NA,NA,NA,NA,dfs,NA,6,NA,NA,NA,NA,NA,NA,NA,NA,NA,NA,NA,NA,NA,NA,NA,NA,NA,NA,NA
aaf6a,deep,flow.Sequence,3_0_6_0_0_0,NA,NA,completion,15920.816,626388.80000007,626406.386,626422.402,642343.218,642350.39999998,2023-04-27T16:13:27Z,642359.357,NULL,Zuwachs,nyongeza,d,NA,NA,NA,NA,dfs,NA,6,NA,NA,NA,NA,NA,NA,NA,NA,NA,NA,NA,NA,NA,NA,NA,NA,NA,NA,NA
aaf6a,shallow,flow.Sequence,3_0_6_0_0_1,NA,NA,skipped,NA,642350.5,NA,NA,642343.218,642350.70000005,2023-04-27T16:13:27Z,642359.357,NULL,Zuwachs,nyongeza,d,NA,NA,NA,NA,dfs,NA,6,NA,NA,NA,NA,NA,NA,NA,NA,NA,NA,NA,NA,NA,NA,NA,NA,NA,NA,NA
aaf6a,task,flow.Sequence,3_0_6_0_0,NA,NA,completion,15920.816,626388.70000005,626406.386,626422.402,642343.218,642351,2023-04-27T16:13:27Z,642359.357,NULL,Zuwachs,nyongeza,d,NA,NA,NA,NA,dfs,NA,6,NA,NA,NA,NA,NA,NA,NA,NA,NA,NA,NA,NA,NA,NA,NA,NA,NA,NA,NA
aaf6a,Deep Question,html.Page,3_0_6_0_1_0_0,NA,NA,form submission,4757.143,642351.10000002,642343.218,642359.357,647116.5,647116.60000002,2023-04-27T16:13:31Z,647122.017,NULL,Symbol,kielezo,d,NA,NA,NA,m,NA,NA,6,NA,NA,NA,NA,NA,NA,NA,NA,NA,NA,NA,NA,NA,NA,NA,NA,NA,NA,NA
aaf6a,"""Richtig""-Screen",canvas.Screen,3_0_6_0_1_0_1,NA,NA,skipped,NA,647119.10000002,NA,NA,647116.5,647119.20000005,2023-04-27T16:13:31Z,647122.017,NULL,Symbol,kielezo,d,NA,NA,NA,NA,dfs,NA,6,NA,NA,NA,NA,NA,NA,NA,NA,NA,NA,NA,NA,NA,NA,NA,NA,NA,NA,NA
aaf6a,"""Falsch""-Screen",canvas.Screen,3_0_6_0_1_0_2,NA,NA,timeout,4996.173,647120,647105.932,647122.017,652101.772,652102.80000007,2023-04-27T16:13:36Z,652118.19,NULL,Symbol,kielezo,d,NA,NA,NA,NA,dfs,0,6,NA,NA,NA,NA,NA,NA,NA,NA,NA,NA,NA,NA,NA,NA,NA,NA,NA,NA,NA
aaf6a,deep,flow.Sequence,3_0_6_0_1_0,NA,NA,completion,9742.415,642351.10000002,642343.218,642359.357,652101.772,652103.10000002,2023-04-27T16:13:36Z,652118.19,NULL,Symbol,kielezo,d,NA,NA,NA,NA,dfs,NA,6,NA,NA,NA,NA,NA,NA,NA,NA,NA,NA,NA,NA,NA,NA,NA,NA,NA,NA,NA
aaf6a,shallow,flow.Sequence,3_0_6_0_1_1,NA,NA,skipped,NA,652103.39999998,NA,NA,652101.772,652103.60000002,2023-04-27T16:13:36Z,652118.19,NULL,Symbol,kielezo,d,NA,NA,NA,NA,dfs,NA,6,NA,NA,NA,NA,NA,NA,NA,NA,NA,NA,NA,NA,NA,NA,NA,NA,NA,NA,NA
aaf6a,task,flow.Sequence,3_0_6_0_1,NA,NA,completion,9742.415,642351.10000002,642343.218,642359.357,652101.772,652103.70000005,2023-04-27T16:13:36Z,652118.19,NULL,Symbol,kielezo,d,NA,NA,NA,NA,dfs,NA,6,NA,NA,NA,NA,NA,NA,NA,NA,NA,NA,NA,NA,NA,NA,NA,NA,NA,NA,NA
aaf6a,deep,flow.Sequence,3_0_6_0_2_0,NA,NA,skipped,NA,652104,NA,NA,652101.772,652104.10000002,2023-04-27T16:13:36Z,652118.19,NULL,Konkurrent,mshindani,s,msemaji,mvutaji,kipukusa,NA,dfs,NA,6,NA,NA,NA,NA,NA,NA,NA,NA,NA,NA,NA,NA,NA,NA,NA,NA,NA,NA,NA
aaf6a,Shallow Question,html.Page,3_0_6_0_2_1_0,NA,NA,form submission,4467.4100000239,652104.20000005,652101.772,652118.19,656585.60000002,656585.70000005,2023-04-27T16:13:41Z,656597.903,NULL,Konkurrent,mshindani,s,msemaji,mvutaji,kipukusa,mshindani,NA,NA,6,NA,NA,NA,NA,NA,NA,NA,NA,NA,NA,NA,NA,NA,NA,NA,NA,NA,NA,NA
aaf6a,"""Richtig""-Screen",canvas.Screen,3_0_6_0_2_1_1,NA,NA,timeout,5012.254,656587.60000002,656581.315,656597.903,661577.386,661578.39999998,2023-04-27T16:13:46Z,661610.157,NULL,Konkurrent,mshindani,s,msemaji,mvutaji,kipukusa,NA,dfs,1,6,NA,NA,NA,NA,NA,NA,NA,NA,NA,NA,NA,NA,NA,NA,NA,NA,NA,NA,NA
